"Interval"|"ms"|0|0|1,"Utc"|"ms"|0|0|1,"FB_p"|"bar"|0|300|50,"Volant"|"F"|0.0|300.0|50,"xFR"|"mm"|0.0|5.0|50,"xRR"|"mm"|0.0|5.0|50,"xFL"|"mm"|0.0|5.0|50,"xRL"|"mm"|0.0|5.0|50,"AccelX"|"G"|-3.0|3.0|50,"AccelY"|"G"|-3.0|3.0|50,"AccelZ"|"G"|-3.0|3.0|50,"Yaw"|"Deg/Sec"|-120|120|50,"Pitch"|"Deg/Sec"|-120|120|50,"Roll"|"Deg/Sec"|-120|120|50,"Gsum"|"G"|0.0|3.0|50,"RPM"|""|0|14000|50,"TPS"|"%"|0|100|50,"WaterTemp"|"?C"|0|300|50,"AirTemp"|"?C"|-1000|1000|50,"MAP"|"KPa"|0|255|50,"Lambda"|""|0|1024|50,"WheelSpeed"|"MPH"|0.0|150.0|50,"OilPress"|"PSI"|0|150|50,"FuelPress"|"PSI"|0|150|50,"OilTemp"|"F"|0|300|50,"Battery"|"Volts"|0.0|20.0|50,"FuelCon"|"L/h"|-1000|1000|50,"Gear"|""|0|10|50,"Advance"|"Deg"|-360|360|50,"Injection"|"ms"|-1000|1000|50,"FuelCon"|"L/100km"|-1000|1000|50,"LC_But_Pres"|""|-1000|1000|50,"LC_Active"|""|-1000|1000|50,"RD_Speed"|""|-1000|1000|50,"RUD_Speed"|""|-1000|1000|50,"LD_Speed"|""|-1000|1000|50,"LUD_Speed"|""|-1000|1000|50,"Ana1"|"bar"|-1000.0|1000.0|50,"Latitude"|"Degrees"|-180.0|180.0|10,"Longitude"|"Degrees"|-180.0|180.0|10,"Speed"|"kph"|0.0|150.0|10,"Altitude"|"m"|0.0|4000.0|10,"LapCount"|""|0|0|10,"LapTime"|"Min"|0.0|0.0|10,"Sector"|""|0|0|10,"SectorTime"|"Min"|0.0|0.0|10,"ElapsedTime"|"Min"|0.0|0.0|10,"CurrentLap"|""|0|0|10,"Distance"|"km"|0.0|0.0|10,"SessionTime"|"Min"|0.0|0.0|10
146963,1563729399750,3,2.31,0.78,0.54,1.09,0.9,0.63,-0.16,0.97,0,1,-0,0.65,11453,77,76,42,75,1149,575.0,691,462,60,122.0,356,1,441,473,202,0,0,324,-8188,1010,577,882.05,,,,,,,,,,,,
146983,1563729399770,2,2.31,0.77,0.54,1.1,0.9,0.59,-0.12,1.04,0,0,0,0.6,11524,77,76,42,74,1137,578.0,701,469,60,121.0,356,1,440,468,202,0,0,324,30208,269,578,882.05,,,,,,,,,,,,
147003,1563729399790,-0,2.32,0.78,0.54,1.09,0.9,0.62,-0.09,1.0,1,-2,1,0.62,11631,77,76,42,74,1110,584.0,699,470,60,122.0,356,1,440,468,202,0,0,26,15649,17336,587,1115.64,,,,,,,,,,,,
147023,1563729399810,4,2.31,0.78,0.54,1.09,0.9,0.63,-0.12,1.03,1,-5,2,0.64,11711,77,76,42,74,1082,588.0,704,466,60,122.0,351,1,440,468,207,0,0,204,-12040,966,588,1115.64,,,,,,,,,,,,
147043,1563729399830,3,2.32,0.78,0.54,1.09,0.89,0.56,-0.14,0.95,1,-5,2,0.57,11822,77,76,42,74,1063,592.0,703,468,60,121.0,351,1,440,468,207,0,0,16229,-28648,-16046,591,648.46,45.748829,4.906674,49.15,189.9,0,0.0,-1,0.0,0.0,0,0.32,2.4507
147063,1563729399850,3,2.31,0.78,0.53,1.1,0.89,0.51,-0.18,0.97,1,-3,2,0.54,11897,77,76,42,74,1047,599.0,703,467,60,122.0,351,1,440,468,207,0,0,3939,-28648,-4876,599,882.05,,,,,,,,,,,,
147083,1563729399870,3,2.32,0.78,0.54,1.1,0.9,0.48,-0.21,1.06,0,-1,2,0.53,11950,77,76,42,74,1021,602.0,700,467,60,122.0,351,1,440,468,207,0,0,520,-3210,3,602,882.05,,,,,,,,,,,,
147103,1563729399894,0,2.3,0.78,0.54,1.1,0.89,0.51,-0.23,1.14,0,1,3,0.56,11996,77,76,42,74,991,607.0,700,467,60,122.0,351,1,440,468,207,0,0,1190,19621,24,607,882.05,,,,,,,,,,,,
147123,1563729399914,1,2.32,0.78,0.54,1.09,0.91,0.46,-0.24,1.22,0,1,3,0.51,12034,77,76,42,74,972,610.0,702,469,60,122.0,350,1,440,468,213,0,0,1214,-30139,479,610,882.05,,,,,,,,,,,,
147143,1563729399934,3,2.32,0.78,0.54,1.1,0.9,0.43,-0.27,1.3,0,1,3,0.5,12096,77,76,42,74,957,613.0,707,473,60,122.0,350,1,440,468,213,0,0,151,-28304,2024,613,882.05,45.74884,4.906676,50.57,189.9,0,0.0,-1,0.0,0.0,0,0.32,2.4524
147163,1563729399954,3,2.32,0.78,0.54,1.1,0.9,0.45,-0.25,1.32,-0,-1,4,0.51,12167,77,76,42,74,934,616.0,702,469,60,121.0,350,1,440,469,213,0,0,268,16529,2024,618,882.05,,,,,,,,,,,,
147183,1563729399974,2,2.3,0.78,0.54,1.1,0.89,0.45,-0.26,1.29,-0,-4,5,0.51,12230,77,76,42,75,909,619.0,700,468,60,122.0,350,1,440,470,213,0,0,268,17336,-10348,620,882.05,,,,,,,,,,,,
147203,1563729399994,2,2.3,0.78,0.54,1.1,0.9,0.48,-0.29,1.24,-0,-4,5,0.56,12295,77,76,42,74,890,628.0,703,468,60,123.0,350,1,440,471,213,0,0,73,506,-26380,626,1115.64,,,,,,,,,,,,
147223,1563729400008,0,2.32,0.78,0.54,1.1,0.9,0.47,-0.27,1.13,-0,-3,5,0.54,12368,77,76,42,74,879,630.0,708,470,60,121.0,349,1,440,472,220,0,0,359,20993,-2830,630,1349.23,,,,,,,,,,,,
147243,1563729400028,3,2.3,0.78,0.54,1.1,0.9,0.43,-0.22,1.12,-0,-2,4,0.49,12417,77,76,42,74,865,631.0,708,466,60,121.0,349,1,440,473,220,0,0,359,771,-10348,630,882.05,45.748856,4.906677,52.62,190.0,0,0.0,-1,0.0,0.0,0,0.32,2.4541
147263,1563729400048,3,2.31,0.78,0.54,1.1,0.9,0.42,-0.25,1.12,-0,-4,3,0.49,12491,77,76,42,74,850,633.0,708,461,60,122.0,349,1,440,474,220,0,0,359,-5120,31988,633,882.05,,,,,,,,,,,,
147283,1563729400068,-1,2.31,0.78,0.53,1.09,0.9,0.51,-0.37,1.05,-1,-4,3,0.63,12550,77,76,42,74,839,641.0,706,468,60,122.0,349,1,440,474,220,0,0,4533,-3584,-26380,638,1115.64,,,,,,,,,,,,
147303,1563729400092,1,2.31,0.78,0.54,1.1,0.9,0.51,-0.28,1.1,-1,-0,2,0.58,12626,77,76,42,74,834,643.0,711,470,60,121.0,349,1,440,475,220,0,0,1360,244,-2345,643,882.05,,,,,,,,,,,,
147323,1563729400112,1,2.31,0.78,0.54,1.1,0.91,0.47,-0.17,1.0,-0,2,1,0.5,12694,77,76,42,74,827,647.0,709,469,60,122.0,355,1,440,476,229,0,0,417,-8429,-26562,645,1115.64,,,,,,,,,,,,
147343,1563729400132,3,2.29,0.78,0.54,1.1,0.9,0.53,-0.19,1.01,-0,4,1,0.56,12711,77,76,42,74,818,648.0,717,468,60,121.0,355,1,440,477,229,0,0,145,479,-3578,646,882.05,45.748871,4.90668,54.68,190.0,0,0.0,-1,0.0,0.0,0,0.32,2.4557
147363,1563729400152,-0,2.29,0.78,0.54,1.09,0.9,0.48,-0.07,1.08,-0,4,1,0.49,12720,77,76,42,74,809,652.0,726,468,60,122.0,355,1,440,477,229,0,0,145,24583,-26892,651,882.05,,,,,,,,,,,,
147383,1563729400172,2,2.3,0.78,0.53,1.1,0.9,0.47,-0.14,1.07,-1,4,1,0.49,12833,77,76,42,74,804,656.0,719,473,60,121.0,355,1,440,478,229,0,0,272,31988,11576,658,882.05,,,,,,,,,,,,
147403,1563729400192,0,2.3,0.77,0.54,1.1,0.91,0.49,-0.16,1.09,-1,4,1,0.51,12922,77,76,42,74,797,661.0,714,473,60,122.0,355,1,440,479,229,0,0,155,-2345,24,659,1115.64,,,,,,,,,,,,
147423,1563729400212,4,2.3,0.78,0.54,1.1,0.89,0.42,-0.12,1.09,-1,2,1,0.43,12948,77,76,42,74,788,662.0,711,466,60,122.0,357,1,440,480,235,0,0,191,-10344,14342,662,882.05,,,,,,,,,,,,
147443,1563729400232,3,2.29,0.77,0.54,1.09,0.9,0.52,-0.2,1.13,-1,0,1,0.56,13029,77,76,42,74,780,665.0,717,465,60,121.0,357,1,440,480,235,0,0,1136,-2345,16599,665,1349.23,45.748882,4.906682,56.44,189.9,0,0.0,-1,0.0,0.0,0,0.32,2.4574
147463,1563729400252,1,2.3,0.78,0.54,1.09,0.9,0.51,-0.14,1.05,-1,-1,2,0.53,13084,78,76,42,74,776,669.0,714,468,60,122.0,357,1,440,480,235,0,0,165,31988,8010,665,1115.64,,,,,,,,,,,,
147483,1563729400272,4,2.3,0.77,0.54,1.09,0.9,0.53,-0.02,1.1,-1,1,2,0.53,13029,78,76,42,75,772,670.0,715,470,60,121.0,357,1,440,480,235,0,0,613,-388,24,670,1349.23,,,,,,,,,,,,
147503,1563729400295,3,2.3,0.77,0.54,1.1,0.9,0.5,-0.11,1.09,-1,-1,1,0.51,13130,78,76,42,74,770,675.0,726,473,60,121.0,357,1,440,480,235,0,0,704,-3038,24,670,882.05,,,,,,,,,,,,
147523,1563729400315,1,2.3,0.78,0.54,1.1,0.9,0.51,-0.1,1.1,-0,-1,1,0.52,13222,78,76,42,74,768,673.0,716,472,60,122.0,356,1,440,480,240,0,0,101,-26380,-30694,672,1349.23,,,,,,,,,,,,
147543,1563729400335,2,2.3,0.78,0.54,1.1,0.89,0.6,-0.19,1.08,-1,-4,1,0.63,13222,78,76,42,74,770,679.0,719,460,60,122.0,356,1,440,480,240,0,0,1356,-2345,6658,677,1115.64,45.748901,4.906685,59.49,190.0,0,0.0,-1,0.0,0.0,0,0.32,2.459
147563,1563729400355,1,2.29,0.78,0.54,1.09,0.9,0.55,-0.08,1.04,-1,-4,0,0.56,13307,78,76,42,74,771,682.0,716,463,60,121.0,356,1,440,480,240,0,0,162,-10344,204,677,1115.64,,,,,,,,,,,,
147583,1563729400375,5,2.3,0.78,0.54,1.09,0.9,0.59,0.06,1.03,-0,-2,2,0.59,13297,78,76,42,75,770,685.0,712,468,60,122.0,356,1,440,480,240,0,0,146,3543,-23490,681,882.05,,,,,,,,,,,,
147603,1563729400397,5,2.29,0.78,0.54,1.1,0.9,0.58,-0.03,1.05,-0,-0,1,0.58,13402,78,76,42,74,770,686.0,719,477,60,122.0,356,1,440,480,240,0,0,635,-10399,-2560,685,882.05,,,,,,,,,,,,
147623,1563729400417,-1,2.29,0.78,0.54,1.1,0.9,0.47,0.02,1.0,0,2,0,0.47,13345,78,76,42,74,767,686.0,719,475,60,125.0,361,1,440,487,247,0,0,284,16599,-13312,683,414.87,,,,,,,,,,,,
147643,1563729400437,0,2.3,0.78,0.54,1.1,0.9,0.61,-0.09,0.99,-0,1,0,0.61,12913,78,76,42,75,766,692.0,704,462,60,124.0,361,1,440,486,247,0,0,284,14342,-3888,685,414.87,45.748917,4.906688,61.69,190.1,0,0.0,-1,0.0,0.0,0,0.33,2.4607
147663,1563729400457,-2,2.3,0.77,0.54,1.09,0.9,0.52,0.12,0.95,1,2,-0,0.54,12609,78,76,42,75,763,692.0,703,465,60,124.0,361,1,440,481,247,0,0,70,11576,-12152,686,414.87,,,,,,,,,,,,
147683,1563729400477,-3,2.3,0.77,0.54,1.09,0.89,0.56,0.1,0.8,1,2,-1,0.57,12368,78,76,42,75,760,690.0,693,469,60,124.0,361,1,440,478,247,0,0,1036,-2830,11069,689,181.28,,,,,,,,,,,,
147703,1563729400503,-2,2.29,0.77,0.54,1.09,0.89,0.62,-0.03,0.67,0,2,-2,0.62,12065,79,76,42,76,759,688.0,693,466,60,122.0,361,1,440,480,247,0,0,133,-3584,11069,688,181.28,,,,,,,,,,,,
147723,1563729400523,1,2.29,0.77,0.54,1.1,0.9,0.6,-0.14,0.59,-0,-1,-0,0.62,11852,79,76,42,78,759,691.0,695,457,60,122.0,582,1,440,869,400,0,0,333,-2830,-23490,687,882.05,,,,,,,,,,,,
147743,1563729400543,-1,2.29,0.78,0.54,1.1,0.91,0.53,-0.05,0.57,-0,2,-1,0.53,10913,79,76,41,79,839,694.0,692,469,60,121.0,582,1,441,810,400,0,0,110,12333,-2830,692,1349.23,45.748932,4.906691,64.76,190.1,0,0.0,-1,0.0,0.0,0,0.33,2.4624
147763,1563729400563,2,2.28,0.78,0.54,1.1,0.9,0.44,-0.06,0.62,-0,2,-2,0.44,10521,79,76,41,80,917,702.0,680,471,60,121.0,582,1,430,734,400,0,0,1041,19188,-31066,692,1349.23,,,,,,,,,,,,
147783,1563729400583,2,2.3,0.78,0.54,1.1,0.9,0.45,-0.08,0.53,-0,3,-3,0.45,10806,79,76,41,79,998,701.0,684,463,60,122.0,582,1,438,638,400,0,0,130,24,-22796,700,882.05,,,,,,,,,,,,
147803,1563729400603,3,2.28,0.77,0.54,1.1,0.89,0.39,-0.04,0.67,-0,2,-3,0.39,10677,79,76,41,78,1079,706.0,686,466,60,122.0,582,1,435,549,400,0,0,1410,687,-2766,703,1115.64,,,,,,,,,,,,
147823,1563729400623,3,2.29,0.78,0.53,1.1,0.89,0.43,-0.06,0.76,-1,2,-3,0.43,10387,79,76,41,78,1197,712.0,682,469,60,123.0,274,1,423,492,194,0,0,248,204,-13312,707,1115.64,,,,,,,,,,,,
147843,1563729400643,1,2.3,0.77,0.54,1.09,0.89,0.34,0.0,0.82,-1,3,-3,0.34,10223,79,76,41,78,1315,714.0,688,470,60,123.0,274,1,411,492,194,0,0,248,204,-23308,712,882.05,45.748947,4.906693,66.04,190.2,0,0.0,-1,0.0,0.0,0,0.33,2.4641
147863,1563729400663,0,2.3,0.77,0.53,1.09,0.9,0.42,0.01,0.82,-1,3,-4,0.42,10257,79,76,41,78,1374,719.0,678,466,60,122.0,274,1,413,492,194,0,0,248,-3450,-2344,714,882.05,,,,,,,,,,,,
147883,1563729400683,0,2.3,0.77,0.53,1.09,0.9,0.46,-0.01,0.79,-1,-0,-2,0.46,10279,79,76,41,77,1412,722.0,683,469,60,122.0,274,1,415,485,194,0,0,46,-388,-10214,724,648.46,,,,,,,,,,,,
147903,1563729400705,1,2.3,0.77,0.53,1.09,0.9,0.55,-0.01,0.76,-1,0,-2,0.55,10393,79,76,41,77,1382,729.0,678,475,60,121.0,274,1,423,485,194,0,0,46,-2830,-2766,729,648.46,,,,,,,,,,,,
147923,1563729400725,-1,2.3,0.77,0.53,1.09,0.9,0.61,0.0,0.82,-1,1,-3,0.61,10416,79,76,41,77,1329,729.0,681,470,60,121.0,263,1,425,485,191,0,0,2440,-2314,6389,729,1115.64,,,,,,,,,,,,
147943,1563729400745,1,2.3,0.77,0.54,1.1,0.89,0.65,-0.07,0.91,-1,-1,-1,0.66,10498,79,76,42,77,1250,733.0,681,466,60,122.0,263,1,431,485,191,0,0,112,-22796,-10214,733,1115.64,45.748966,4.906696,68.41,190.2,0,0.0,-1,0.0,0.0,0,0.33,2.4657
147963,1563729400765,1,2.3,0.78,0.53,1.09,0.89,0.75,-0.1,0.96,-2,-1,-1,0.75,10539,79,76,41,77,1159,737.0,688,472,60,121.0,263,1,432,485,191,0,0,112,-3580,-10218,737,1115.64,,,,,,,,,,,,
147983,1563729400785,-0,2.31,0.77,0.54,1.1,0.9,0.79,-0.03,1.0,-1,-1,-1,0.79,10599,79,76,41,77,1083,743.0,685,472,60,121.0,263,1,433,485,191,0,0,47,-2314,-23308,740,648.46,,,,,,,,,,,,
148003,1563729400807,1,2.29,0.77,0.53,1.09,0.89,0.81,-0.05,1.0,-1,-1,-0,0.81,10617,79,76,41,77,1012,744.0,685,467,60,122.0,263,1,434,485,191,0,0,595,-31066,-10216,744,882.05,,,,,,,,,,,,
148023,1563729400827,1,2.3,0.77,0.54,1.1,0.9,0.81,-0.08,0.91,-1,0,0,0.81,10714,79,76,41,77,986,748.0,683,466,60,122.0,263,1,436,485,197,0,0,595,6790,-31066,748,648.46,,,,,,,,,,,,
148043,1563729400847,1,2.31,0.78,0.54,1.1,0.89,0.77,-0.01,0.87,-1,-2,1,0.77,10732,79,76,41,77,1006,750.0,691,473,60,121.0,263,1,437,485,197,0,0,595,-3344,-10218,747,882.05,45.748982,4.9067,70.51,190.2,0,0.0,-1,0.0,0.0,0,0.33,2.4674
148063,1563729400867,2,2.3,0.78,0.53,1.09,0.9,0.65,0.02,0.81,-1,-2,2,0.65,10782,79,76,41,77,1030,754.0,690,471,60,122.0,263,1,438,485,197,0,0,595,-2574,-2826,752,882.05,,,,,,,,,,,,
148083,1563729400887,-0,2.29,0.78,0.54,1.1,0.89,0.66,0.0,0.86,-1,-0,1,0.66,10726,79,76,41,77,1057,759.0,686,470,60,122.0,263,1,437,485,197,0,0,28,-22795,-3888,758,1115.64,,,,,,,,,,,,
148103,1563729400907,-1,2.31,0.78,0.53,1.09,0.9,0.71,0.06,0.86,-1,1,0,0.72,10775,79,76,41,77,1074,761.0,678,463,60,122.0,263,1,438,485,197,0,0,28,-10218,-13072,760,1115.64,,,,,,,,,,,,
148123,1563729400907,2,2.3,0.77,0.53,1.1,0.9,0.75,-0.03,0.93,-1,-0,-1,0.76,10831,79,76,41,77,1081,761.0,685,471,60,122.0,261,1,439,485,199,0,0,28,13016,16118,763,1115.64,,,,,,,,,,,,
148143,1563729400927,3,2.29,0.77,0.53,1.1,0.89,0.73,0.0,0.92,-1,-2,1,0.73,10882,78,76,41,77,1086,766.0,690,472,60,121.0,261,1,440,485,199,0,0,28,-2826,-2540,762,882.05,45.749001,4.906704,73.09,190.1,0,0.0,-1,0.0,0.0,0,0.34,2.469
148163,1563729400947,2,2.29,0.78,0.54,1.1,0.89,0.64,0.02,0.84,-1,-1,2,0.65,10971,78,76,41,77,1089,766.0,684,470,60,123.0,261,1,443,485,199,0,0,35,-2826,204,765,882.05,,,,,,,,,,,,
148183,1563729400967,-0,2.29,0.78,0.54,1.1,0.89,0.72,0.08,0.92,-1,0,1,0.72,11003,78,76,41,77,1089,769.0,685,467,60,122.0,261,1,444,485,199,0,0,35,-2344,1524,769,882.05,,,,,,,,,,,,
148203,1563729400987,2,2.29,0.78,0.54,1.1,0.9,0.65,0.05,0.9,-1,-0,1,0.65,11068,78,76,41,76,1085,772.0,685,464,60,121.0,261,1,444,485,199,0,0,1160,-23308,-4091,772,882.05,,,,,,,,,,,,
148223,1563729401005,-1,2.3,0.78,0.53,1.1,0.9,0.66,0.07,0.92,-1,-1,0,0.66,11127,79,76,41,76,1078,778.0,691,467,60,122.0,260,1,443,478,201,0,0,333,-2574,1524,776,1115.64,,,,,,,,,,,,
148243,1563729401025,1,2.3,0.78,0.53,1.09,0.89,0.65,0.01,1.03,-1,-0,0,0.65,11147,79,76,41,76,1070,780.0,693,468,60,122.0,260,1,443,478,201,0,0,1047,-10218,-2830,780,648.46,45.74902,4.906709,74.82,190.1,0,0.0,-1,0.0,0.0,0,0.34,2.4707
148263,1563729401045,1,2.3,0.78,0.54,1.09,0.9,0.62,0.06,0.93,-0,-1,0,0.62,11147,78,76,41,76,1062,784.0,694,467,60,122.0,260,1,443,478,201,0,0,3598,-2826,-2356,784,882.05,,,,,,,,,,,,
148283,1563729401065,2,2.28,0.78,0.53,1.1,0.9,0.66,0.02,1.04,-0,-3,1,0.66,11214,78,76,41,76,1057,785.0,701,472,60,122.0,260,1,443,485,201,0,0,3598,-2344,-13580,783,882.05,,,,,,,,,,,,
148303,1563729401085,3,2.3,0.78,0.53,1.1,0.89,0.61,0.08,0.91,-0,-3,1,0.62,11288,78,76,41,76,1051,791.0,693,468,60,122.0,260,1,442,478,201,0,0,709,-8148,-2830,787,882.05,,,,,,,,,,,,
148323,1563729401107,3,2.28,0.77,0.53,1.1,0.9,0.6,0.09,0.93,0,0,0,0.61,11322,78,76,41,76,1039,792.0,690,472,60,121.0,259,1,442,478,205,0,0,876,5344,-3344,792,882.05,,,,,,,,,,,,
148343,1563729401127,-1,2.3,0.78,0.54,1.1,0.9,0.63,0.04,0.85,0,2,-1,0.63,11336,78,76,41,76,1028,793.0,692,466,60,122.0,259,1,442,478,205,0,0,919,-2540,-2314,795,882.05,45.749039,4.906713,76.58,190.1,0,0.0,-1,0.0,0.0,0,0.34,2.4724
148363,1563729401147,2,2.3,0.77,0.54,1.1,0.9,0.65,0.0,0.89,0,0,-2,0.65,11377,78,76,41,76,1021,800.0,696,467,60,122.0,259,1,441,478,205,0,0,919,204,-3450,797,882.05,,,,,,,,,,,,
148383,1563729401167,-1,2.3,0.78,0.54,1.1,0.89,0.66,-0.01,0.86,0,0,-2,0.66,11419,78,76,41,76,1011,802.0,696,468,60,122.0,259,1,441,478,205,0,0,919,-13312,136,802,1115.64,,,,,,,,,,,,
148403,1563729401191,4,2.29,0.78,0.53,1.11,0.9,0.58,-0.05,0.84,-0,-2,-2,0.58,11510,78,76,41,76,991,805.0,697,471,60,122.0,259,1,440,478,205,0,0,41,-2560,-3344,802,882.05,,,,,,,,,,,,
148423,1563729401211,2,2.3,0.77,0.53,1.1,0.9,0.53,-0.11,0.93,-0,1,-2,0.54,11581,78,76,41,76,971,810.0,698,471,60,122.0,259,1,440,478,209,0,0,1092,-31068,-2311,810,648.46,,,,,,,,,,,,
148443,1563729401231,2,2.3,0.78,0.54,1.1,0.9,0.54,-0.12,0.82,0,1,-2,0.55,11617,78,76,41,76,958,812.0,698,472,60,122.0,259,1,440,478,209,0,0,1092,-388,-2766,809,1115.64,45.749062,4.906717,78.4,190.1,0,0.0,-1,0.0,0.0,0,0.34,2.4741
148463,1563729401251,0,2.31,0.78,0.53,1.1,0.9,0.52,-0.09,0.83,-0,1,-1,0.52,11609,78,76,41,75,944,813.0,698,472,60,122.0,259,1,440,473,209,0,0,66,31988,-2570,809,1115.64,,,,,,,,,,,,
148483,1563729401271,3,2.29,0.78,0.54,1.1,0.9,0.51,0.05,0.75,0,1,-0,0.51,11674,78,76,41,75,927,817.0,700,472,60,122.0,259,1,440,473,209,0,0,66,1524,-2311,817,882.05,,,,,,,,,,,,
148503,1563729401291,4,2.28,0.78,0.54,1.11,0.9,0.54,0.08,0.87,0,0,1,0.55,11718,78,76,41,75,909,821.0,696,475,60,122.0,259,1,440,473,209,0,0,66,-2358,-2830,821,882.05,,,,,,,,,,,,
148523,1563729401311,2,2.3,0.78,0.53,1.1,0.9,0.59,0.0,0.89,-0,0,1,0.59,11740,78,76,41,75,905,822.0,706,470,60,122.0,256,1,440,473,210,0,0,66,-2826,-2830,820,882.05,,,,,,,,,,,,
148543,1563729401331,2,2.3,0.78,0.53,1.11,0.9,0.65,-0.11,0.86,-0,-0,1,0.66,11762,77,76,41,75,900,828.0,692,470,60,122.0,256,1,440,473,210,0,0,66,-2830,-10508,825,882.05,45.749081,4.906722,79.67,190.2,0,0.0,-1,0.0,0.0,0,0.34,2.4757
148563,1563729401351,-1,2.31,0.78,0.54,1.1,0.9,0.67,-0.19,0.87,-0,-0,0,0.7,11785,77,76,41,75,887,828.0,692,470,60,122.0,256,1,440,473,210,0,0,27,-13068,-2826,827,1115.64,,,,,,,,,,,,
148583,1563729401371,-1,2.31,0.78,0.54,1.1,0.9,0.64,-0.16,0.78,-0,-0,-1,0.66,11852,77,76,41,74,873,831.0,703,471,60,122.0,256,1,440,468,210,0,0,470,-2314,-10508,828,882.05,,,,,,,,,,,,
148603,1563729401394,-1,2.3,0.78,0.54,1.1,0.9,0.65,-0.07,0.65,-1,0,-1,0.66,11889,76,76,41,74,863,835.0,698,467,60,122.0,256,1,440,468,210,0,0,203,6790,-1576,830,882.05,,,,,,,,,,,,
148623,1563729401414,4,2.29,0.77,0.54,1.11,0.9,0.61,-0.01,0.54,-0,1,-1,0.61,11942,76,76,41,74,854,839.0,692,468,60,122.0,253,1,440,468,212,0,0,979,-3344,-779,837,882.05,,,,,,,,,,,,
148643,1563729401434,4,2.3,0.78,0.54,1.11,0.91,0.49,0.09,0.49,-0,-1,-1,0.5,11988,76,76,41,74,842,842.0,702,473,60,122.0,253,1,440,468,212,0,0,979,-2830,-2820,837,882.05,45.7491,4.906726,81.72,190.2,0,0.0,-1,0.0,0.0,0,0.35,2.4774
148663,1563729401454,0,2.28,0.78,0.54,1.1,0.9,0.4,0.17,0.49,-0,-2,-0,0.44,12019,74,76,41,74,829,842.0,693,471,60,122.0,253,1,440,468,212,0,0,1113,-22795,-1578,838,882.05,,,,,,,,,,,,
148683,1563729401474,2,2.3,0.78,0.54,1.1,0.91,0.29,0.32,0.49,0,1,-1,0.43,12042,72,76,41,73,824,844.0,707,470,60,123.0,253,1,440,464,212,0,0,266,-10508,236,842,882.05,,,,,,,,,,,,
148703,1563729401494,3,2.3,0.78,0.53,1.11,0.9,0.23,0.4,0.41,1,3,-2,0.47,12050,69,76,41,71,820,849.0,693,470,60,122.0,253,1,440,454,212,0,0,1079,-31066,-30778,845,882.05,,,,,,,,,,,,
148723,1563729401514,2,2.3,0.78,0.54,1.1,0.9,0.2,0.47,0.38,1,5,-3,0.51,12034,65,76,41,69,814,855.0,694,467,60,122.0,238,1,440,444,203,0,0,531,-2311,-2570,850,882.05,,,,,,,,,,,,
148743,1563729401534,2,2.3,0.78,0.54,1.1,0.9,0.16,0.53,0.26,1,5,-3,0.56,11996,62,76,41,67,808,852.0,698,476,60,121.0,238,1,440,433,203,0,0,1317,-9995,966,849,882.05,45.749123,4.90673,82.44,190.2,0,0.0,-1,0.0,0.0,0,0.35,2.479
148763,1563729401554,4,2.3,0.79,0.54,1.11,0.9,0.17,0.58,0.19,1,6,-3,0.6,11957,58,76,41,64,804,855.0,697,470,60,122.0,238,1,440,415,203,0,0,1364,-2311,-5120,855,882.05,,,,,,,,,,,,
148783,1563729401574,3,2.3,0.78,0.54,1.1,0.91,0.15,0.62,0.26,1,4,-3,0.64,11973,52,76,41,62,801,856.0,700,474,60,121.0,238,1,440,402,203,0,0,3671,-2766,-780,855,882.05,,,,,,,,,,,,
148803,1563729401598,1,2.31,0.78,0.53,1.1,0.91,0.13,0.64,0.36,2,1,-2,0.66,11867,46,76,41,59,793,856.0,699,471,60,122.0,238,1,428,379,203,0,0,553,-2826,966,856,882.05,,,,,,,,,,,,
148823,1563729401618,2,2.29,0.78,0.54,1.11,0.91,0.11,0.67,0.46,2,2,-2,0.68,11755,43,76,41,56,784,855.0,701,467,60,122.0,188,1,411,351,161,0,0,1066,-2570,-2820,855,882.05,,,,,,,,,,,,
148843,1563729401638,1,2.3,0.78,0.54,1.11,0.9,0.21,0.61,0.54,3,4,-2,0.65,11545,41,76,41,55,775,858.0,698,472,60,122.0,188,1,405,339,161,0,0,209,-2766,-2820,858,648.46,45.749142,4.906734,84.83,190.2,0,0.0,-1,0.0,0.0,0,0.35,2.4807
148863,1563729401658,4,2.3,0.78,0.54,1.11,0.9,0.31,0.57,0.67,2,3,-3,0.64,11343,40,76,41,55,769,858.0,693,470,60,122.0,188,1,406,329,161,0,0,1079,-1582,1020,854,882.05,,,,,,,,,,,,
148883,1563729401678,0,2.3,0.79,0.54,1.1,0.9,0.35,0.64,0.69,2,2,-3,0.73,11114,40,76,41,54,763,857.0,688,467,60,122.0,188,1,400,329,161,0,0,1079,-2311,-2826,855,1115.64,,,,,,,,,,,,
148903,1563729401698,3,2.3,0.78,0.54,1.11,0.91,0.43,0.59,0.52,2,1,-3,0.73,10958,39,76,41,53,757,856.0,686,470,60,123.0,188,1,397,328,161,0,0,1079,-2826,-2574,855,882.05,,,,,,,,,,,,
148923,1563729401718,-0,2.3,0.77,0.54,1.12,0.9,0.45,0.56,0.4,2,-0,-2,0.72,10913,35,76,41,52,755,855.0,692,468,60,122.0,152,1,394,302,130,0,0,1079,13049,-2570,852,1115.64,,,,,,,,,,,,
148943,1563729401738,1,2.31,0.78,0.54,1.11,0.9,0.56,0.53,0.27,1,-1,0,0.78,11009,32,76,41,51,756,851.0,696,468,60,122.0,152,1,391,292,130,0,0,255,-10508,-31068,851,648.46,45.749165,4.906739,85.96,190.2,0,0.0,-1,0.0,0.0,0,0.35,2.4824
148963,1563729401758,3,2.3,0.79,0.54,1.11,0.91,0.61,0.33,0.41,1,-1,-0,0.69,11075,30,76,41,49,773,851.0,695,472,60,121.0,152,1,385,267,130,0,0,5373,13049,-2570,848,648.46,,,,,,,,,,,,
148983,1563729401778,-0,2.31,0.78,0.54,1.1,0.91,0.56,0.43,0.3,1,1,-0,0.71,11088,29,76,41,48,806,844.0,689,473,60,121.0,152,1,382,243,130,0,0,202,-3450,-30694,845,1115.64,,,,,,,,,,,,
149003,1563729401800,2,2.31,0.79,0.54,1.11,0.9,0.67,0.25,0.21,1,0,-1,0.72,11075,28,77,41,46,838,844.0,693,475,60,122.0,152,1,372,240,130,0,0,7728,-22795,8838,844,648.46,,,,,,,,,,,,
149023,1563729401820,1,2.32,0.78,0.54,1.11,0.91,0.77,0.3,0.39,0,-3,0,0.82,11107,27,76,41,45,869,841.0,688,470,60,122.0,120,1,365,238,101,0,0,7728,-2830,-1576,841,882.05,,,,,,,,,,,,
149043,1563729401840,1,2.31,0.78,0.54,1.1,0.91,0.75,0.32,0.21,1,-5,2,0.81,11114,25,76,41,44,903,843.0,692,470,60,122.0,120,1,357,235,101,0,0,17640,136,-2830,837,1115.64,45.749188,4.906743,86.09,190.2,0,0.0,-1,0.0,0.0,0,0.36,2.4841
149063,1563729401860,3,2.31,0.79,0.54,1.12,0.9,0.79,0.21,0.29,0,-5,3,0.82,11101,21,76,41,42,941,836.0,691,467,60,122.0,120,1,342,233,101,0,0,439,-31066,-30694,836,648.46,,,,,,,,,,,,
149083,1563729401880,1,2.31,0.79,0.54,1.11,0.9,0.8,0.29,0.31,-0,-3,2,0.85,11101,16,76,41,40,971,832.0,688,468,60,123.0,120,1,327,225,101,0,0,262,-2826,-22795,836,882.05,,,,,,,,,,,,
149103,1563729401902,2,2.32,0.78,0.54,1.11,0.91,0.83,0.24,0.2,0,-2,2,0.87,11140,15,76,41,38,977,830.0,690,463,60,122.0,120,1,317,222,101,0,0,514,1037,-22796,830,648.46,,,,,,,,,,,,
149123,1563729401922,3,2.31,0.78,0.53,1.1,0.9,0.85,0.25,0.36,1,-3,-0,0.89,11107,14,76,41,36,991,826.0,693,468,60,122.0,110,1,311,219,92,0,0,892,-31066,-13068,830,882.05,,,,,,,,,,,,
149143,1563729401942,1,2.31,0.79,0.54,1.11,0.91,0.82,0.24,0.22,1,-3,1,0.85,11114,13,77,41,35,1019,823.0,702,467,60,122.0,110,1,308,218,92,0,0,585,-22796,-2830,822,414.87,45.74921,4.906748,85.1,190.2,0,0.0,-1,0.0,0.0,0,0.36,2.4857
149163,1563729401962,3,2.3,0.79,0.54,1.11,0.91,0.91,0.15,0.31,0,-4,1,0.92,11140,13,77,40,34,1046,821.0,698,471,60,121.0,110,1,305,216,92,0,0,331,-2314,3462,821,648.46,,,,,,,,,,,,
149183,1563729401982,1,2.31,0.79,0.54,1.1,0.91,0.83,0.22,0.13,0,-2,2,0.86,11088,13,77,40,33,1069,822.0,691,467,60,123.0,110,1,302,215,92,0,0,1511,-13580,-2314,819,1115.64,,,,,,,,,,,,
149203,1563729402000,3,2.3,0.79,0.54,1.12,0.91,0.87,0.1,0.17,0,-3,3,0.88,11081,11,77,40,32,1091,816.0,689,473,60,123.0,110,1,300,214,92,0,0,507,-2918,-31066,816,1115.64,,,,,,,,,,,,
149223,1563729402020,4,2.3,0.79,0.54,1.11,0.91,0.9,0.14,0.25,-0,-1,2,0.91,11107,8,77,40,31,1113,818.0,686,472,60,123.0,109,1,295,212,89,0,0,183,-2830,-13580,812,882.05,,,,,,,,,,,,
149243,1563729402040,3,2.31,0.78,0.54,1.11,0.91,0.86,0.21,0.12,0,1,2,0.88,11081,7,77,40,30,1131,811.0,688,473,60,121.0,109,1,291,211,89,0,0,315,31988,31988,810,1349.23,45.749233,4.906752,83.73,190.2,0,0.0,-1,0.0,0.0,0,0.36,2.4874
149263,1563729402060,3,2.31,0.79,0.54,1.11,0.91,0.95,0.08,0.29,0,2,0,0.95,11009,7,77,40,29,1129,810.0,690,466,60,122.0,109,1,287,209,89,0,0,825,-23490,-3344,805,648.46,,,,,,,,,,,,
149283,1563729402080,4,2.31,0.79,0.54,1.11,0.91,0.93,0.2,0.27,0,0,1,0.96,11016,6,77,40,28,1124,807.0,696,466,60,123.0,109,1,282,208,89,0,0,1704,-13312,-3450,801,882.05,,,,,,,,,,,,
149303,1563729402102,4,2.31,0.78,0.54,1.11,0.91,0.92,0.13,0.2,1,-1,2,0.93,10984,6,77,40,28,1104,801.0,696,465,60,121.0,109,1,282,208,89,0,0,1844,-12152,-13072,801,648.46,,,,,,,,,,,,
149323,1563729402122,5,2.31,0.79,0.54,1.11,0.9,0.94,0.01,0.27,1,-1,2,0.94,10901,6,77,40,27,1084,796.0,698,468,60,122.0,106,1,278,206,85,0,0,1711,-1566,-2830,795,648.46,,,,,,,,,,,,
149343,1563729402142,6,2.31,0.79,0.54,1.11,0.91,1.0,0.01,0.43,0,-0,1,1.0,10882,6,77,40,27,1065,799.0,691,471,60,122.0,106,1,278,206,85,0,0,1281,-2540,-13312,799,882.05,45.749252,4.906756,82.36,190.0,0,0.0,-1,0.0,0.0,0,0.36,2.489
149363,1563729402162,5,2.31,0.78,0.54,1.11,0.91,0.93,0.16,0.33,1,0,1,0.95,10825,6,77,40,27,1046,795.0,689,475,60,122.0,106,1,278,206,85,0,0,7583,-8148,-13072,789,1115.64,,,,,,,,,,,,
149383,1563729402182,8,2.29,0.79,0.54,1.11,0.89,0.92,0.11,0.21,1,-0,1,0.93,10744,6,77,40,27,1018,790.0,682,468,60,122.0,106,1,278,206,85,0,0,530,-10216,-10216,788,1115.64,,,,,,,,,,,,
149403,1563729402206,8,2.3,0.79,0.54,1.11,0.91,0.93,0.03,0.08,1,1,1,0.93,10732,6,77,40,27,990,787.0,685,470,60,122.0,106,1,278,206,85,0,0,750,6389,-2826,786,648.46,,,,,,,,,,,,
149423,1563729402226,9,2.29,0.79,0.54,1.12,0.91,1.0,-0.04,0.1,1,-1,2,1.0,10659,6,77,40,26,980,781.0,681,467,60,122.0,106,1,274,206,83,0,0,1998,-22795,-2540,780,648.46,,,,,,,,,,,,
149443,1563729402246,10,2.29,0.78,0.54,1.12,0.9,1.08,-0.15,0.19,0,-2,2,1.09,10671,6,77,40,27,970,781.0,688,467,60,122.0,106,1,278,206,83,0,0,1397,-31066,-2426,774,648.46,45.749271,4.90676,81.51,190.0,0,0.0,-1,0.0,0.0,0,0.36,2.4907
149463,1563729402266,11,2.29,0.78,0.54,1.12,0.9,1.12,-0.13,0.29,-0,1,1,1.13,10581,6,77,40,27,956,776.0,685,467,60,123.0,106,1,278,206,83,0,0,712,-2830,-10218,772,648.46,,,,,,,,,,,,
149483,1563729402286,13,2.28,0.78,0.54,1.11,0.9,1.12,-0.1,0.42,-0,0,0,1.12,10563,6,77,40,27,941,772.0,686,467,60,123.0,106,1,278,206,83,0,0,1055,-2570,-2570,761,882.05,,,,,,,,,,,,
149503,1563729402306,13,2.29,0.78,0.53,1.11,0.91,1.05,-0.13,0.52,0,-2,-1,1.06,10457,6,77,40,27,935,769.0,685,473,60,122.0,106,1,278,205,83,0,0,324,6389,-2344,770,882.05,,,,,,,,,,,,
149523,1563729402307,14,2.29,0.79,0.53,1.11,0.91,1.05,-0.15,0.6,-0,2,-2,1.06,10428,6,77,40,27,931,770.0,688,463,60,122.0,104,1,278,204,80,0,0,6570,-2570,-10212,756,648.46,,,,,,,,,,,,
149543,1563729402327,13,2.3,0.79,0.54,1.11,0.91,1.15,-0.2,0.58,-1,1,-4,1.17,10347,6,77,40,27,923,755.0,687,470,60,121.0,104,1,278,200,80,0,0,2660,-22795,-2344,755,648.46,45.749294,4.906765,79.72,189.9,0,0.0,-1,0.0,0.0,0,0.37,2.4924
149563,1563729402347,13,2.29,0.78,0.54,1.11,0.9,1.14,-0.18,0.69,-1,-4,-2,1.16,10307,6,77,40,27,915,755.0,682,468,60,123.0,104,1,278,200,80,0,0,231,-22795,-2830,752,648.46,,,,,,,,,,,,
149583,1563729402367,13,2.29,0.79,0.54,1.1,0.91,1.02,-0.05,0.52,-1,2,-2,1.02,10179,6,77,40,27,911,751.0,677,471,60,123.0,104,1,278,198,80,0,0,287,-3344,-10218,747,648.46,,,,,,,,,,,,
149603,1563729402391,12,2.29,0.78,0.53,1.11,0.9,1.02,0.02,0.29,-1,3,-4,1.02,10190,6,77,40,27,907,742.0,678,473,60,123.0,104,1,278,195,80,0,0,139,-13068,6790,739,882.05,,,,,,,,,,,,
149623,1563729402411,15,2.29,0.79,0.53,1.11,0.9,1.12,0.06,0.3,-1,1,-1,1.12,10118,6,77,40,27,905,745.0,680,473,60,122.0,100,1,278,194,74,0,0,310,6790,-31066,739,882.05,,,,,,,,,,,,
149643,1563729402431,15,2.28,0.78,0.54,1.11,0.9,1.08,0.04,0.46,-1,2,-2,1.09,9968,6,77,40,27,904,738.0,679,471,60,123.0,100,1,278,190,74,0,0,310,-3580,-2314,738,648.46,45.749313,4.906769,78.13,189.9,0,0.0,-1,0.0,0.0,0,0.37,2.4941
149663,1563729402451,13,2.3,0.78,0.54,1.1,0.9,0.94,0.09,0.53,-1,2,-2,0.95,9915,6,77,40,27,905,734.0,676,468,60,123.0,100,1,278,190,74,0,0,310,-31066,-2314,729,1115.64,,,,,,,,,,,,
149683,1563729402471,14,2.29,0.78,0.54,1.1,0.89,1.05,0.16,0.35,-1,2,-3,1.06,9904,6,77,40,27,906,734.0,677,470,60,123.0,100,1,278,190,74,0,0,49,-2314,-3344,727,882.05,,,,,,,,,,,,
149703,1563729402491,15,2.29,0.78,0.53,1.1,0.9,1.03,0.2,0.46,-1,0,-2,1.05,9811,6,77,40,27,910,729.0,671,474,60,122.0,100,1,278,189,74,0,0,157,-4091,-31068,724,648.46,,,,,,,,,,,,
149723,1563729402511,16,2.3,0.78,0.53,1.11,0.89,1.08,0.23,0.44,-1,1,-3,1.1,9780,6,77,40,27,915,727.0,669,473,60,123.0,97,1,278,189,70,0,0,13524,-2918,-13580,713,882.05,,,,,,,,,,,,
149743,1563729402531,15,2.3,0.78,0.53,1.1,0.89,1.1,0.18,0.39,-1,-2,-4,1.12,9765,6,77,40,26,919,717.0,676,467,60,122.0,97,1,274,187,70,0,0,609,-13072,31988,713,414.87,45.749332,4.906774,76.14,189.7,0,0.0,-1,0.0,0.0,0,0.37,2.4957
149763,1563729402551,18,2.3,0.78,0.53,1.1,0.9,1.12,0.15,0.35,-1,-1,-2,1.13,9709,6,77,40,26,922,716.0,671,469,60,122.0,97,1,274,187,70,0,0,609,-2560,-3888,706,882.05,,,,,,,,,,,,
149783,1563729402571,14,2.31,0.78,0.53,1.11,0.89,1.15,0.11,0.31,-1,-1,-3,1.15,9620,6,77,40,26,929,709.0,662,476,60,122.0,97,1,274,186,70,0,0,56,-12152,15647,703,414.87,,,,,,,,,,,,
149803,1563729402597,15,2.31,0.78,0.54,1.1,0.9,1.14,0.04,0.25,-1,-2,-2,1.14,9522,6,77,40,26,939,706.0,670,468,60,122.0,97,1,274,186,70,0,0,428,19188,11069,698,648.46,,,,,,,,,,,,
149823,1563729402617,17,2.32,0.77,0.54,1.1,0.9,1.11,-0.01,0.26,-1,-3,-3,1.11,9469,6,77,40,26,947,699.0,669,473,60,123.0,96,1,274,186,67,0,0,799,-3584,-10448,689,882.05,,,,,,,,,,,,
149843,1563729402637,15,2.32,0.78,0.53,1.11,0.89,1.1,0.04,0.19,-0,-3,-3,1.1,9389,6,77,40,26,954,695.0,673,472,60,122.0,96,1,274,186,67,0,0,1250,-10448,6208,694,414.87,45.749348,4.906778,74.49,189.6,0,0.0,-1,0.0,0.0,0,0.37,2.4974
149863,1563729402657,17,2.31,0.78,0.53,1.11,0.89,1.13,-0.04,0.13,-0,-2,-2,1.13,9351,6,77,40,25,967,690.0,671,472,60,122.0,96,1,270,185,67,0,0,736,-2830,-26562,680,648.46,,,,,,,,,,,,
149883,1563729402677,17,2.31,0.78,0.53,1.1,0.9,1.22,-0.08,0.13,-0,-2,-3,1.22,9286,6,77,40,25,985,681.0,670,468,60,123.0,96,1,270,185,67,0,0,839,-26562,24845,681,414.87,,,,,,,,,,,,
149903,1563729402699,18,2.31,0.78,0.53,1.1,0.9,1.29,-0.05,0.18,-0,-4,-1,1.29,9213,6,77,40,25,1001,681.0,666,473,60,122.0,96,1,270,185,67,0,0,436,-26562,31988,678,882.05,,,,,,,,,,,,
149923,1563729402719,17,2.31,0.78,0.54,1.11,0.9,1.21,-0.04,0.16,-0,-3,-2,1.21,9164,6,77,40,25,1013,675.0,665,462,60,123.0,94,1,270,185,64,0,0,757,-2345,-26562,672,882.05,,,,,,,,,,,,
149943,1563729402739,18,2.3,0.78,0.54,1.11,0.89,1.17,0.02,0.21,-0,-3,-0,1.17,9088,6,77,40,25,1033,672.0,661,472,60,122.0,94,1,270,185,64,0,0,199,8958,-2830,667,882.05,45.749367,4.906782,72.47,189.5,0,0.0,-1,0.0,0.0,0,0.38,2.499
149963,1563729402759,19,2.3,0.78,0.54,1.11,0.89,1.09,0.07,0.11,-0,-2,-2,1.09,9049,6,77,41,25,1062,667.0,662,475,60,123.0,94,1,270,185,64,0,0,180,1549,-2345,663,882.05,,,,,,,,,,,,
149983,1563729402779,17,2.31,0.78,0.53,1.1,0.89,1.04,0.13,0.09,0,-3,-1,1.05,8949,6,77,41,25,1089,663.0,660,470,60,123.0,94,1,270,185,64,0,0,706,-27404,-388,659,648.46,,,,,,,,,,,,
150003,1563729402805,17,2.3,0.77,0.53,1.11,0.9,1.01,0.14,0.0,0,-2,-3,1.02,8907,6,77,41,25,1106,654.0,658,473,60,123.0,94,1,270,185,64,0,0,385,-3488,-3038,654,882.05,,,,,,,,,,,,
150023,1563729402825,18,2.3,0.78,0.53,1.11,0.89,1.04,0.14,-0.0,0,-1,-1,1.05,8865,6,77,41,25,1129,652.0,657,467,60,124.0,94,1,270,185,62,0,0,1188,24583,-2345,652,882.05,,,,,,,,,,,,
150043,1563729402845,18,2.31,0.79,0.53,1.11,0.9,1.09,0.09,0.13,-1,-2,-1,1.09,8836,6,77,41,25,1166,650.0,660,466,60,123.0,94,1,270,185,62,0,0,386,-6006,-2836,644,882.05,45.749382,4.906786,70.04,189.4,0,0.0,-1,0.0,0.0,0,0.38,2.5007
150063,1563729402865,17,2.32,0.78,0.53,1.11,0.9,1.15,0.05,0.22,-1,-0,0,1.15,8753,6,77,41,25,1200,641.0,653,471,60,124.0,94,1,270,185,62,0,0,1687,-3584,-2830,640,648.46,,,,,,,,,,,,
150083,1563729402885,16,2.31,0.78,0.54,1.11,0.89,1.16,-0.0,0.19,-0,-0,-2,1.16,8672,6,77,41,26,1221,640.0,663,464,60,122.0,94,1,274,185,62,0,0,845,-2580,-5120,634,181.28,,,,,,,,,,,,
150103,1563729402908,19,2.32,0.79,0.53,1.1,0.89,1.17,-0.02,0.13,-0,-1,-1,1.17,8608,6,77,41,26,1244,632.0,654,470,60,123.0,94,1,274,185,62,0,0,105,-14655,6208,632,882.05,,,,,,,,,,,,
150123,1563729402928,18,2.31,0.78,0.52,1.11,0.9,1.2,-0.04,0.22,-0,-2,-2,1.2,8518,6,77,41,26,1273,629.0,653,471,60,122.0,95,1,274,185,60,0,0,1645,506,-4876,626,882.05,,,,,,,,,,,,
150143,1563729402948,16,2.32,0.78,0.53,1.11,0.9,1.19,-0.07,0.24,0,-2,0,1.19,8457,6,77,41,27,1303,623.0,665,470,60,123.0,95,1,278,182,60,0,0,258,3395,17336,622,414.87,45.749401,4.906789,67.71,189.3,0,0.0,-1,0.0,0.0,0,0.38,2.5024
150163,1563729402968,19,2.31,0.78,0.53,1.11,0.9,1.17,-0.07,0.3,0,-3,1,1.17,8370,6,77,41,27,1312,617.0,658,468,60,123.0,95,1,277,179,60,0,0,72,3403,30721,617,882.05,,,,,,,,,,,,
150183,1563729402988,17,2.31,0.79,0.54,1.11,0.91,1.23,-0.08,0.27,-0,-2,-0,1.23,8340,6,77,41,27,1316,613.0,649,470,60,123.0,95,1,277,176,60,0,0,123,17740,17740,611,648.46,,,,,,,,,,,,
150203,1563729403008,19,2.3,0.78,0.54,1.11,0.9,1.19,-0.13,0.27,-0,-1,0,1.2,8281,6,77,41,28,1296,611.0,646,467,60,123.0,95,1,280,173,60,0,0,361,-30139,16529,611,882.05,,,,,,,,,,,,
150223,1563729403005,16,2.32,0.78,0.54,1.11,0.91,1.28,-0.12,0.29,-0,-1,-1,1.28,8198,6,77,41,28,1276,605.0,652,468,60,124.0,87,1,279,169,53,0,0,1971,-3820,-23055,603,648.46,,,,,,,,,,,,
150243,1563729403025,19,2.32,0.78,0.54,1.11,0.91,1.2,-0.1,0.27,-0,-4,1,1.21,8106,6,77,41,28,1247,603.0,657,470,60,121.0,87,1,279,165,53,0,0,732,-3210,3472,603,882.05,45.749416,4.906793,65.3,189.2,0,0.0,-1,0.0,0.0,0,0.38,2.504
150263,1563729403045,15,2.32,0.79,0.53,1.11,0.9,1.2,-0.16,0.35,0,-3,2,1.21,8061,6,77,41,29,1219,597.0,651,467,60,121.0,87,1,282,164,53,0,0,732,23619,-3210,596,414.87,,,,,,,,,,,,
150283,1563729403065,18,2.32,0.78,0.53,1.12,0.9,1.26,-0.15,0.29,0,-4,-0,1.26,7995,6,77,41,29,1178,594.0,642,472,60,124.0,87,1,281,161,53,0,0,732,-12040,-13043,590,882.05,,,,,,,,,,,,
150303,1563729403085,18,2.32,0.78,0.53,1.12,0.9,1.16,-0.1,0.16,1,-2,1,1.16,7961,6,77,41,29,1138,585.0,649,467,60,122.0,87,1,281,161,53,0,0,732,-25872,-28648,585,1115.64,,,,,,,,,,,,
150323,1563729403107,14,2.32,0.79,0.53,1.12,0.9,1.23,-0.14,0.19,1,-1,3,1.24,7955,6,77,41,29,1125,583.0,644,467,60,124.0,82,1,281,161,48,0,0,732,15649,10432,582,414.87,,,,,,,,,,,,
150343,1563729403127,15,2.31,0.78,0.54,1.12,0.91,1.29,-0.11,0.19,1,-1,2,1.29,7878,6,77,41,29,1113,580.0,640,467,60,124.0,82,1,280,160,48,0,0,732,30208,-25872,578,648.46,45.749435,4.906796,62.78,189.1,0,0.0,-1,0.0,0.0,0,0.38,2.5057
150363,1563729403147,17,2.3,0.79,0.54,1.12,0.91,1.2,-0.08,0.16,1,-2,1,1.2,7874,6,77,41,29,1104,572.0,647,468,60,123.0,82,1,280,161,48,0,0,693,774,243,569,882.05,,,,,,,,,,,,
150383,1563729403167,14,2.31,0.78,0.54,1.12,0.9,1.13,-0.08,0.07,1,1,2,1.13,7799,6,77,41,28,1096,567.0,643,469,60,122.0,82,1,276,160,48,0,0,120,-2934,259,567,414.87,,,,,,,,,,,,
150403,1563729403191,13,2.3,0.79,0.54,1.12,0.9,1.13,-0.16,0.13,1,0,-0,1.14,7741,6,77,41,27,1096,566.0,647,471,60,122.0,82,1,273,160,48,0,0,1320,-30159,-29984,565,414.87,,,,,,,,,,,,
150423,1563729403211,12,2.3,0.79,0.54,1.12,0.9,1.22,-0.22,0.12,-0,-0,-0,1.24,7712,6,77,41,27,1100,564.0,642,467,60,123.0,81,1,273,158,46,0,0,161,12552,2211,558,414.87,,,,,,,,,,,,
150443,1563729403231,13,2.3,0.78,0.54,1.11,0.91,1.3,-0.24,0.2,-1,-2,0,1.32,7643,6,77,41,27,1092,561.0,644,469,60,123.0,81,1,272,158,46,0,0,1001,-18032,6273,555,181.28,45.749447,4.906799,59.51,189.1,0,0.0,-1,0.0,0.0,0,0.38,2.5074
150463,1563729403251,12,2.29,0.79,0.54,1.12,0.91,1.36,-0.16,0.27,-1,-2,1,1.37,7591,6,77,41,27,1082,557.0,636,472,60,124.0,81,1,272,158,46,0,0,165,2216,2216,553,648.46,,,,,,,,,,,,
150483,1563729403271,11,2.3,0.78,0.54,1.1,0.91,1.37,-0.09,0.25,-1,-2,1,1.37,7548,6,77,42,27,1070,554.0,633,463,60,123.0,81,1,272,158,46,0,0,267,2524,-9072,550,648.46,,,,,,,,,,,,
150503,1563729403291,12,2.3,0.79,0.54,1.12,0.9,1.38,-0.0,0.16,-1,-4,-1,1.38,7527,6,77,42,27,1057,545.0,642,472,60,124.0,81,1,272,158,46,0,0,227,-506,-22263,549,648.46,,,,,,,,,,,,
150523,1563729403310,12,2.29,0.79,0.54,1.12,0.9,1.38,0.07,0.14,-1,-3,-1,1.38,7467,6,77,42,27,1031,544.0,636,467,60,123.0,81,1,271,158,44,0,0,126,-506,-28648,540,648.46,,,,,,,,,,,,
150543,1563729403330,11,2.3,0.78,0.54,1.11,0.9,1.39,0.14,0.13,-1,-3,-1,1.4,7458,6,77,42,27,1001,543.0,640,467,60,124.0,81,1,271,158,44,0,0,126,1779,-22519,537,648.46,45.749462,4.906803,59.03,189.0,0,0.0,-1,0.0,0.0,0,0.39,2.509
150563,1563729403350,11,2.29,0.78,0.54,1.12,0.9,1.45,0.17,0.17,-1,-4,-2,1.46,7396,5,77,42,27,980,541.0,632,465,60,123.0,81,1,270,158,44,0,0,930,-2336,1779,538,648.46,,,,,,,,,,,,
150583,1563729403370,10,2.29,0.79,0.54,1.11,0.9,1.5,0.17,0.28,-2,-6,-2,1.51,7361,6,77,42,27,963,539.0,637,467,60,123.0,81,1,270,158,44,0,0,123,-32248,-3082,528,648.46,,,,,,,,,,,,
150603,1563729403390,10,2.29,0.79,0.54,1.12,0.9,1.56,0.14,0.32,-2,-7,-3,1.56,7309,5,77,42,27,945,529.0,638,471,60,122.0,81,1,270,158,44,0,0,162,-32248,-2934,527,414.87,,,,,,,,,,,,
150623,1563729403410,11,2.29,0.78,0.54,1.11,0.89,1.6,0.09,0.46,-2,-10,-2,1.61,7287,6,77,42,27,926,526.0,638,467,60,122.0,82,1,270,158,43,0,0,13412,-32248,-30064,522,414.87,,,,,,,,,,,,
150643,1563729403430,12,2.31,0.78,0.53,1.11,0.9,1.57,0.0,0.46,-2,-9,-2,1.57,7208,6,77,42,28,915,525.0,642,470,60,123.0,82,1,274,160,43,0,0,731,-32248,2088,522,882.05,45.749477,4.906806,55.11,189.0,0,0.0,-1,0.0,0.0,0,0.39,2.5107
150663,1563729403450,12,2.3,0.79,0.54,1.11,0.9,1.41,0.05,0.26,-1,-8,-2,1.41,7142,6,77,42,28,912,525.0,627,465,60,123.0,82,1,273,160,43,0,0,1515,2088,-28648,518,648.46,,,,,,,,,,,,
150683,1563729403470,11,2.31,0.78,0.54,1.11,0.9,1.31,0.05,0.27,-1,-9,-1,1.31,7094,5,78,42,28,910,517.0,627,470,60,124.0,82,1,272,160,43,0,0,114,15679,6274,513,648.46,,,,,,,,,,,,
150703,1563729403494,10,2.31,0.79,0.53,1.12,0.9,1.34,0.06,0.25,-1,-8,-0,1.34,7046,6,78,42,28,907,515.0,634,465,60,123.0,82,1,272,160,43,0,0,155,-14,16383,508,414.87,,,,,,,,,,,,
150723,1563729403514,12,2.3,0.78,0.53,1.11,0.9,1.33,0.02,0.22,-1,-6,-0,1.33,7017,6,78,42,29,906,513.0,643,469,60,122.0,81,1,277,160,42,0,0,1343,-21872,-3856,512,882.05,,,,,,,,,,,,
150743,1563729403534,11,2.3,0.78,0.53,1.12,0.9,1.27,0.03,0.23,-1,-3,-1,1.27,6998,6,78,42,29,905,508.0,634,468,60,124.0,81,1,277,161,42,0,0,127,17136,26178,503,648.46,45.749493,4.906809,54.3,188.9,0,0.0,-1,0.0,0.0,0,0.39,2.5124
150763,1563729403554,9,2.29,0.78,0.54,1.11,0.91,1.24,0.06,0.3,-1,-3,-3,1.25,6957,6,78,42,29,907,506.0,637,466,60,124.0,81,1,277,161,42,0,0,1366,-32248,1341,503,414.87,,,,,,,,,,,,
150783,1563729403574,11,2.3,0.78,0.54,1.11,0.91,1.24,0.04,0.2,-0,-3,-3,1.24,6883,5,78,42,29,911,503.0,625,462,60,125.0,81,1,278,161,42,0,0,1366,15661,-3414,501,181.28,,,,,,,,,,,,
150803,1563729403596,12,2.29,0.79,0.54,1.11,0.9,1.25,0.06,0.11,-1,-2,-2,1.25,6783,5,78,42,29,915,500.0,624,466,60,124.0,81,1,278,161,42,0,0,78,10408,-21872,495,181.28,,,,,,,,,,,,
150823,1563729403616,12,2.29,0.78,0.54,1.11,0.9,1.18,0.08,0.07,-1,-2,-1,1.18,6696,5,78,42,29,919,493.0,617,463,60,124.0,82,1,278,161,41,0,0,577,-1818,998,493,181.28,,,,,,,,,,,,
150843,1563729403636,13,2.29,0.79,0.53,1.11,0.9,1.22,0.09,0.02,-0,-1,-2,1.22,6663,5,78,42,30,924,489.0,619,461,60,123.0,82,1,282,163,41,0,0,15027,-6656,-1818,486,181.28,45.749504,4.906813,52.55,188.7,0,0.0,-1,0.0,0.0,0,0.39,2.514
150863,1563729403656,11,2.3,0.78,0.54,1.11,0.9,1.25,0.11,0.04,-1,-3,-0,1.26,6623,5,78,42,30,929,490.0,615,463,60,124.0,82,1,282,244,41,0,0,82,-1562,-899,486,181.28,,,,,,,,,,,,
150883,1563729403676,15,2.29,0.79,0.54,1.11,0.9,1.15,0.16,0.07,-1,-1,-1,1.16,6597,6,78,42,31,933,486.0,622,469,60,121.0,82,1,286,228,41,0,0,127,-1562,-10483,482,882.05,,,,,,,,,,,,
150903,1563729403702,11,2.3,0.78,0.54,1.11,0.91,1.19,0.15,0.07,-1,0,-2,1.2,6674,5,78,42,31,932,481.0,625,468,60,123.0,82,1,286,211,41,0,0,127,32033,-10483,476,648.46,,,,,,,,,,,,
150923,1563729403722,13,2.3,0.79,0.54,1.11,0.9,1.15,0.09,0.19,-0,-1,-3,1.15,6609,6,78,42,32,933,475.0,628,467,60,119.0,105,1,290,197,50,0,0,2127,-9203,505,475,882.05,,,,,,,,,,,,
150943,1563729403742,10,2.3,0.79,0.53,1.11,0.91,1.17,0.08,0.07,-0,-1,-2,1.18,6526,5,78,42,32,935,474.0,621,468,60,121.0,105,1,290,181,50,0,0,126,-9203,2212,467,414.87,45.749516,4.906816,51.63,188.5,0,0.0,-1,0.0,0.0,0,0.39,2.5157
150963,1563729403762,10,2.3,0.79,0.54,1.11,0.9,1.15,0.11,0.05,-1,-1,-1,1.16,6408,5,78,42,32,936,470.0,616,467,60,123.0,105,1,290,166,50,0,0,92,243,-899,467,648.46,,,,,,,,,,,,
150983,1563729403782,13,2.3,0.78,0.54,1.11,0.91,1.18,0.16,-0.07,-1,-1,0,1.19,6388,5,78,42,33,938,466.0,627,464,60,123.0,105,1,292,171,50,0,0,293,243,-8985,463,648.46,,,,,,,,,,,,
151003,1563729403802,14,2.3,0.78,0.54,1.11,0.9,1.25,0.15,-0.12,-1,-6,0,1.26,6432,0,78,42,33,949,461.0,630,468,60,123.0,105,1,292,171,50,0,0,582,2211,3635,456,1115.64,,,,,,,,,,,,
151023,1563729403822,13,2.29,0.78,0.53,1.11,0.89,1.16,0.18,-0.24,-1,-2,1,1.18,6658,0,78,42,32,987,460.0,620,462,60,124.0,94,1,290,171,43,0,0,186,17628,3635,454,648.46,,,,,,,,,,,,
151043,1563729403842,16,2.29,0.79,0.53,1.11,0.9,1.18,0.14,-0.2,-1,-2,0,1.19,6835,0,78,42,33,1026,451.0,635,468,60,123.0,94,1,292,171,43,0,0,193,3571,-6656,448,882.05,45.749531,4.906821,49.24,188.4,0,0.0,-1,0.0,0.0,0,0.39,2.5174
151063,1563729403862,13,2.29,0.79,0.54,1.11,0.9,1.2,0.1,-0.18,-1,-6,-0,1.2,6888,0,78,42,32,1062,448.0,623,467,60,123.0,94,1,290,166,43,0,0,1316,8488,-19126,445,414.87,,,,,,,,,,,,
151083,1563729403882,9,2.3,0.78,0.54,1.11,0.91,1.17,0.09,-0.1,-1,-6,-1,1.18,6991,0,78,42,32,1100,444.0,639,468,60,123.0,94,1,290,166,43,0,0,166,21432,2790,441,414.87,,,,,,,,,,,,
151103,1563729403902,12,2.3,0.79,0.54,1.11,0.91,1.26,0.02,0.05,-2,-4,-3,1.26,6988,0,78,42,32,1141,439.0,626,467,60,123.0,94,1,290,166,43,0,0,202,20625,742,435,882.05,,,,,,,,,,,,
151123,1563729403906,12,2.29,0.78,0.53,1.12,0.9,1.2,-0.0,-0.14,-2,-2,-3,1.2,6962,0,78,42,31,1180,434.0,625,466,60,124.0,99,1,285,164,43,0,0,384,-768,240,433,648.46,,,,,,,,,,,,
151143,1563729403926,9,2.3,0.78,0.53,1.11,0.9,1.22,0.1,-0.1,-2,-5,-1,1.22,7062,0,78,42,31,1186,432.0,635,469,60,122.0,99,1,285,164,43,0,0,8196,-3322,1,426,414.87,45.749542,4.906826,47.16,188.2,0,0.0,-1,0.0,0.0,0,0.39,2.5191
151163,1563729403946,13,2.3,0.78,0.53,1.11,0.9,1.23,-0.02,-0.04,-2,-4,1,1.23,7197,0,78,42,31,1190,424.0,635,471,60,122.0,99,1,285,164,43,0,0,6364,-3856,240,422,414.87,,,,,,,,,,,,
151183,1563729403966,12,2.3,0.79,0.53,1.11,0.9,1.1,-0.04,-0.01,-1,1,1,1.1,7301,0,78,42,30,1160,422.0,635,469,60,122.0,99,1,282,163,43,0,0,916,-3414,-992,419,882.05,,,,,,,,,,,,
151203,1563729403986,12,2.29,0.78,0.54,1.1,0.9,0.96,0.05,-0.13,-0,3,-0,0.96,7329,0,78,42,30,1131,415.0,640,470,60,123.0,99,1,282,163,43,0,0,240,-26615,-26615,414,882.05,,,,,,,,,,,,
151223,1563729404002,9,2.31,0.78,0.54,1.11,0.91,0.95,0.12,-0.19,0,1,-1,0.95,7347,0,78,42,29,1098,410.0,629,465,60,123.0,107,1,278,161,44,0,0,532,9517,10392,410,648.46,,,,,,,,,,,,
151243,1563729404022,8,2.31,0.78,0.54,1.11,0.89,1.05,0.16,-0.11,-1,-3,0,1.07,7422,0,78,42,29,1064,407.0,636,467,60,123.0,107,1,278,161,44,0,0,261,2524,-32702,407,648.46,45.749554,4.906829,46.23,188.2,0,0.0,-1,0.0,0.0,0,0.4,2.5207
151263,1563729404042,6,2.29,0.78,0.53,1.11,0.9,1.08,0.23,-0.02,-1,-4,1,1.11,7446,0,78,42,28,1023,404.0,637,469,60,124.0,107,1,275,160,44,0,0,251,1504,28696,401,414.87,,,,,,,,,,,,
151283,1563729404062,6,2.3,0.78,0.54,1.12,0.9,1.18,0.21,0.03,-1,-4,1,1.2,7518,0,78,42,28,982,403.0,637,467,60,123.0,107,1,275,160,44,0,0,555,6512,-6656,399,648.46,,,,,,,,,,,,
151303,1563729404082,5,2.31,0.79,0.53,1.12,0.9,1.26,0.23,0.11,-1,-5,-2,1.28,7485,0,78,42,27,965,399.0,634,468,60,123.0,107,1,271,158,44,0,0,157,6384,-3968,395,648.46,,,,,,,,,,,,
151323,1563729404108,4,2.3,0.79,0.54,1.12,0.91,1.34,0.2,0.15,-1,-8,-2,1.35,7473,0,78,42,27,956,395.0,639,468,60,124.0,111,1,271,158,44,0,0,652,-1818,6512,394,648.46,,,,,,,,,,,,
151343,1563729404128,2,2.31,0.78,0.53,1.12,0.91,1.41,0.17,0.31,-2,-8,-2,1.42,7434,0,78,42,27,949,393.0,640,469,60,124.0,111,1,271,158,44,0,0,836,-1562,28696,388,648.46,45.749565,4.906832,44.78,188.2,0,0.0,-1,0.0,0.0,0,0.4,2.5224
151363,1563729404148,2,2.3,0.78,0.54,1.11,0.9,1.47,0.22,0.37,-1,-6,-2,1.48,7399,0,78,42,27,941,393.0,646,467,60,123.0,111,1,270,158,44,0,0,836,-6524,6384,393,648.46,,,,,,,,,,,,
151383,1563729404168,-1,2.31,0.78,0.54,1.11,0.9,1.52,0.18,0.48,-1,-8,-3,1.53,7321,0,78,42,27,940,392.0,631,468,60,123.0,111,1,270,158,44,0,0,351,-31744,-1562,392,414.87,,,,,,,,,,,,
151403,1563729404188,-2,2.31,0.78,0.53,1.11,0.91,1.54,0.09,0.55,-2,-8,-3,1.55,7292,0,78,42,27,941,389.0,638,468,60,122.0,111,1,270,158,44,0,0,204,240,1,389,882.05,,,,,,,,,,,,
151423,1563729404208,2,2.31,0.79,0.53,1.11,0.91,1.44,0.09,0.48,-2,-5,-1,1.45,7242,0,78,42,27,943,388.0,637,468,60,121.0,111,1,270,158,43,0,0,127,-3866,-3866,387,414.87,,,,,,,,,,,,
151443,1563729404228,2,2.31,0.78,0.53,1.11,0.91,1.29,0.07,0.38,-1,-3,-0,1.29,7231,0,78,42,27,945,386.0,632,466,60,124.0,111,1,270,158,43,0,0,127,-3866,-6475,383,648.46,45.749577,4.906835,43.06,188.3,0,0.0,-1,0.0,0.0,0,0.4,2.524
151463,1563729404248,1,2.3,0.79,0.54,1.11,0.91,1.12,0.09,0.34,-1,-2,0,1.13,7222,0,78,42,27,947,383.0,632,470,60,123.0,111,1,270,158,43,0,0,127,-19126,240,383,648.46,,,,,,,,,,,,
151483,1563729404268,-2,2.31,0.78,0.54,1.11,0.91,1.15,0.14,0.34,-1,-3,-2,1.16,7170,0,78,42,27,949,381.0,634,466,60,123.0,111,1,269,158,43,0,0,603,-18948,240,381,648.46,,,,,,,,,,,,
151503,1563729404293,-1,2.31,0.78,0.54,1.12,0.9,1.24,0.09,0.43,-1,-4,-2,1.24,7164,0,78,42,27,950,380.0,640,467,60,123.0,111,1,269,158,43,0,0,150,-992,-19019,380,414.87,,,,,,,,,,,,
151523,1563729404313,2,2.3,0.79,0.54,1.12,0.91,1.18,0.04,0.45,-1,-4,-1,1.18,7113,0,78,42,27,951,379.0,634,468,60,123.0,110,1,269,158,42,0,0,658,2278,-3866,379,648.46,,,,,,,,,,,,
151543,1563729404333,1,2.3,0.79,0.54,1.12,0.9,1.08,0.09,0.43,-1,-4,0,1.09,7072,0,78,42,28,952,376.0,636,465,60,123.0,110,1,272,158,42,0,0,153,770,-992,376,882.05,45.749588,4.906837,42.06,188.3,0,0.0,-1,0.0,0.0,0,0.4,2.5257
151563,1563729404353,-2,2.31,0.78,0.54,1.11,0.91,1.01,0.15,0.43,-0,-3,0,1.02,7067,0,78,42,27,952,375.0,630,467,60,124.0,110,1,268,158,42,0,0,153,742,3,375,414.87,,,,,,,,,,,,
151583,1563729404373,3,2.3,0.79,0.54,1.11,0.91,1.07,0.09,0.45,-1,-3,-1,1.08,7033,0,78,42,28,953,374.0,642,467,60,123.0,110,1,272,160,42,0,0,153,-6656,770,374,414.87,,,,,,,,,,,,
151603,1563729404395,1,2.3,0.79,0.54,1.11,0.91,1.05,0.02,0.37,-1,-1,-0,1.05,7014,0,78,42,28,955,373.0,631,468,60,122.0,110,1,272,160,42,0,0,153,-6656,770,371,882.05,,,,,,,,,,,,
151623,1563729404415,-1,2.3,0.79,0.54,1.11,0.9,1.01,0.04,0.34,-0,-1,-1,1.01,6996,0,78,42,28,957,371.0,627,468,60,124.0,113,1,273,160,42,0,0,153,486,742,371,414.87,,,,,,,,,,,,
151643,1563729404435,1,2.31,0.79,0.54,1.12,0.9,1.0,-0.02,0.4,-1,-2,0,1.0,6949,0,78,42,28,959,369.0,631,467,60,122.0,113,1,273,160,42,0,0,153,-6656,257,369,414.87,45.749596,4.906841,40.25,188.3,0,0.0,-1,0.0,0.0,0,0.4,2.5274
151663,1563729404455,-1,2.31,0.79,0.54,1.12,0.9,1.0,-0.02,0.36,-1,-1,1,1.0,6913,0,78,42,28,962,366.0,623,463,60,124.0,113,1,273,160,42,0,0,153,230,1,368,648.46,,,,,,,,,,,,
151683,1563729404475,-1,2.31,0.79,0.54,1.11,0.9,0.94,0.05,0.36,0,1,0,0.94,6921,0,78,42,28,966,366.0,636,471,60,123.0,113,1,273,160,42,0,0,153,-1268,257,366,414.87,,,,,,,,,,,,
151703,1563729404499,2,2.32,0.79,0.54,1.12,0.9,0.96,0.0,0.43,-0,1,-1,0.96,6888,0,78,42,29,970,366.0,627,467,60,124.0,113,1,278,161,42,0,0,17,2790,230,366,648.46,,,,,,,,,,,,
151723,1563729404519,-1,2.31,0.79,0.54,1.12,0.91,0.89,0.01,0.28,0,4,-1,0.89,6875,2,78,42,29,972,364.0,627,463,60,123.0,115,1,278,161,42,0,0,17,-14707,230,364,648.46,,,,,,,,,,,,
151743,1563729404539,2,2.32,0.79,0.55,1.11,0.91,0.89,0.04,0.3,0,2,-0,0.89,6865,4,78,42,29,974,362.0,627,470,60,123.0,115,1,278,161,42,0,0,55,-14707,3082,362,414.87,45.749607,4.906844,39.91,188.3,0,0.0,-1,0.0,0.0,0,0.4,2.529
151763,1563729404559,0,2.31,0.79,0.54,1.12,0.91,0.9,0.04,0.2,0,2,1,0.9,6825,5,78,42,29,976,362.0,623,470,60,123.0,115,1,278,161,42,0,0,107,2790,-6458,360,648.46,,,,,,,,,,,,
151783,1563729404579,-2,2.32,0.8,0.54,1.12,0.91,0.83,0.07,0.28,0,2,2,0.84,6768,5,78,42,30,978,360.0,631,467,60,124.0,115,1,282,163,42,0,0,107,-29978,-6405,360,414.87,,,,,,,,,,,,
151803,1563729404595,-0,2.31,0.79,0.54,1.12,0.92,0.92,0.05,0.36,-1,-1,3,0.92,6730,5,78,42,30,976,359.0,628,466,60,123.0,115,1,282,163,42,0,0,107,-29302,-1268,359,882.05,,,,,,,,,,,,
151823,1563729404615,-5,2.31,0.8,0.54,1.12,0.92,0.82,0.05,0.45,-0,2,1,0.82,6732,5,78,42,30,977,357.0,627,468,60,123.0,114,1,282,163,41,0,0,107,4104,2790,355,414.87,,,,,,,,,,,,
151843,1563729404635,-1,2.31,0.8,0.54,1.12,0.91,0.89,-0.01,0.41,-1,0,0,0.89,6722,5,78,42,30,975,356.0,619,466,60,124.0,114,1,282,163,41,0,0,107,2060,-14707,355,414.87,45.749615,4.906848,40.21,188.4,0,0.0,-1,0.0,0.0,0,0.4,2.5307
151863,1563729404655,3,2.31,0.8,0.54,1.11,0.92,0.8,0.01,0.51,0,2,-2,0.8,6677,6,78,42,31,975,354.0,636,469,60,122.0,114,1,286,164,41,0,0,30,3183,-6640,354,414.87,,,,,,,,,,,,
151883,1563729404675,-2,2.31,0.79,0.54,1.11,0.92,0.92,0.04,0.36,-0,2,-0,0.92,6660,6,78,42,31,974,352.0,623,467,60,123.0,114,1,286,164,41,0,0,464,3183,-6640,352,648.46,,,,,,,,,,,,
151903,1563729404699,3,2.31,0.79,0.54,1.12,0.91,0.93,0.02,0.33,-0,2,1,0.93,6665,5,78,42,31,973,351.0,630,468,60,122.0,114,1,286,164,41,0,0,214,-30454,2060,351,414.87,,,,,,,,,,,,
151923,1563729404719,-2,2.31,0.79,0.54,1.11,0.92,0.94,-0.01,0.31,-0,4,1,0.94,6653,6,78,42,31,971,350.0,633,465,60,124.0,117,1,286,164,41,0,0,195,-30454,2811,349,414.87,,,,,,,,,,,,
151943,1563729404739,0,2.31,0.8,0.54,1.12,0.91,0.9,0.03,0.38,-1,3,1,0.9,6592,6,78,42,32,968,349.0,626,467,60,122.0,117,1,290,166,41,0,0,88,2811,-6644,348,882.05,45.749626,4.906851,38.07,188.3,0,0.0,-1,0.0,0.0,0,0.4,2.5324
151963,1563729404759,-2,2.31,0.79,0.54,1.12,0.91,0.89,0.0,0.39,0,5,1,0.89,6553,6,78,42,32,966,348.0,626,465,60,123.0,117,1,290,166,41,0,0,1629,8841,-6644,348,414.87,,,,,,,,,,,,
151983,1563729404779,-1,2.31,0.79,0.53,1.11,0.92,0.98,0.03,0.46,-0,2,-0,0.98,6546,6,78,42,32,964,347.0,618,466,60,123.0,117,1,290,166,41,0,0,96,8841,3183,346,414.87,,,,,,,,,,,,
152003,1563729404799,2,2.31,0.79,0.54,1.12,0.91,0.83,0.06,0.56,0,3,1,0.83,6526,6,78,42,33,960,345.0,616,468,60,123.0,117,1,292,171,41,0,0,282,6870,-30454,344,882.05,,,,,,,,,,,,
152023,1563729404819,-2,2.32,0.79,0.54,1.12,0.92,0.88,0.04,0.52,1,4,-0,0.88,6524,6,78,42,33,957,343.0,624,468,60,123.0,118,1,292,171,41,0,0,560,-14714,2811,343,414.87,,,,,,,,,,,,
152043,1563729404839,0,2.31,0.8,0.54,1.12,0.91,0.99,0.05,0.55,0,3,-1,0.99,6517,6,78,42,33,954,342.0,618,466,60,123.0,118,1,292,171,41,0,0,560,3327,8841,341,648.46,45.749638,4.906854,39.59,188.4,0,0.0,-1,0.0,0.0,0,0.41,2.534
152063,1563729404859,1,2.32,0.79,0.55,1.12,0.91,0.93,0.06,0.63,0,4,-2,0.93,6469,6,78,42,33,953,342.0,623,465,60,122.0,118,1,292,171,41,0,0,62,-122,-10554,342,882.05,,,,,,,,,,,,
152083,1563729404879,-3,2.31,0.8,0.54,1.12,0.92,0.93,0.03,0.51,1,4,-2,0.93,6452,6,78,42,33,950,341.0,622,468,60,121.0,118,1,292,171,41,0,0,451,3327,-30438,342,414.87,,,,,,,,,,,,
152103,1563729404903,-2,2.31,0.8,0.54,1.12,0.91,0.99,0.04,0.4,0,1,-1,0.99,6436,6,78,42,33,948,340.0,612,465,60,123.0,118,1,292,171,41,0,0,2691,3327,-14714,339,648.46,,,,,,,,,,,,
152123,1563729404923,1,2.3,0.8,0.54,1.13,0.91,0.93,-0.01,0.41,0,2,0,0.93,6390,6,78,42,34,947,338.0,621,465,60,122.0,124,1,295,176,42,0,0,269,2560,-30438,338,882.05,,,,,,,,,,,,
152143,1563729404943,1,2.31,0.8,0.54,1.12,0.92,0.88,0.0,0.39,1,3,-0,0.88,6384,6,78,42,34,947,337.0,623,471,60,123.0,124,1,295,176,42,0,0,278,13,-10554,337,414.87,45.749645,4.906857,38.69,188.4,0,0.0,-1,0.0,0.0,0,0.41,2.5357
152163,1563729404963,-1,2.31,0.79,0.54,1.13,0.92,0.98,-0.02,0.34,1,2,1,0.98,6373,6,78,42,34,948,336.0,613,465,60,123.0,124,1,295,176,42,0,0,137,13,6668,335,414.87,,,,,,,,,,,,
152183,1563729404983,-2,2.31,0.8,0.55,1.12,0.91,1.04,-0.0,0.33,0,-1,2,1.04,6360,6,78,42,35,949,336.0,618,465,60,123.0,124,1,298,176,42,0,0,137,4838,3327,334,648.46,,,,,,,,,,,,
152203,1563729404999,0,2.31,0.8,0.54,1.13,0.91,0.94,-0.03,0.43,0,-1,2,0.94,6345,6,78,42,35,950,335.0,629,468,60,121.0,124,1,298,182,42,0,0,1329,-32559,3327,335,882.05,,,,,,,,,,,,
152223,1563729405019,3,2.3,0.8,0.54,1.13,0.91,0.85,-0.01,0.51,1,1,2,0.85,6334,6,78,42,35,953,331.0,630,465,60,121.0,129,1,298,182,43,0,0,1329,-6528,3327,331,414.87,,,,,,,,,,,,
152243,1563729405039,-1,2.29,0.8,0.54,1.13,0.92,0.87,0.0,0.49,1,4,0,0.87,6283,6,78,42,35,954,332.0,627,463,60,121.0,129,1,298,182,43,0,0,187,-12032,13,332,414.87,45.749657,4.90686,38.78,188.4,0,0.0,-1,0.0,0.0,0,0.41,2.5374
152263,1563729405059,-2,2.3,0.8,0.54,1.12,0.91,0.95,0.03,0.47,0,3,-0,0.95,6283,6,78,42,35,954,331.0,623,467,60,123.0,129,1,298,182,43,0,0,563,-12032,13,331,414.87,,,,,,,,,,,,
152283,1563729405079,-0,2.3,0.8,0.55,1.13,0.92,0.98,0.06,0.5,-0,3,-0,0.98,6241,6,78,42,35,953,332.0,612,466,60,123.0,129,1,298,182,43,0,0,563,-32559,-31222,329,648.46,,,,,,,,,,,,
152303,1563729405101,-0,2.3,0.79,0.55,1.12,0.92,0.97,0.02,0.52,-0,3,0,0.97,6241,6,78,42,36,953,329.0,615,468,60,123.0,129,1,301,182,43,0,0,48,-20736,3346,329,882.05,,,,,,,,,,,,
152323,1563729405121,2,2.29,0.8,0.54,1.13,0.92,0.83,0.03,0.6,1,5,0,0.83,6231,6,78,42,36,952,328.0,618,466,60,122.0,134,1,301,187,44,0,0,220,170,175,326,882.05,,,,,,,,,,,,
152343,1563729405141,1,2.3,0.8,0.55,1.13,0.92,0.78,0.04,0.63,1,7,-1,0.78,6227,6,78,42,36,948,327.0,617,467,60,122.0,134,1,301,187,44,0,0,220,165,4838,327,414.87,45.749664,4.906863,38.33,188.3,0,0.0,-1,0.0,0.0,0,0.41,2.5391
152363,1563729405161,3,2.29,0.8,0.54,1.12,0.91,0.84,0.05,0.6,2,7,-1,0.84,6200,6,78,42,36,945,327.0,612,466,60,123.0,134,1,301,187,44,0,0,63,-22016,-32559,325,181.28,,,,,,,,,,,,
152383,1563729405181,-2,2.3,0.8,0.54,1.12,0.91,0.93,0.06,0.52,1,7,-1,0.93,6190,6,78,42,36,942,325.0,609,465,60,124.0,134,1,301,187,44,0,0,63,-23296,-20736,325,414.87,,,,,,,,,,,,
152403,1563729405201,-2,2.29,0.8,0.54,1.13,0.91,1.04,0.05,0.52,0,4,-2,1.04,6169,6,78,42,37,939,324.0,611,466,60,124.0,134,1,304,193,44,0,0,265,-24576,-20736,324,414.87,,,,,,,,,,,,
152423,1563729405221,-2,2.29,0.8,0.55,1.12,0.92,1.11,0.04,0.55,-1,2,-2,1.11,6127,6,78,42,37,934,322.0,612,467,60,124.0,137,1,304,193,44,0,0,474,155,-22016,322,648.46,,,,,,,,,,,,
152443,1563729405241,-1,2.28,0.8,0.55,1.13,0.92,1.14,0.06,0.56,-1,-0,-2,1.14,6099,6,78,42,37,930,322.0,606,465,60,124.0,137,1,304,193,44,0,0,273,155,-20736,321,648.46,45.749672,4.906865,34.77,188.3,0,0.0,-1,0.0,0.0,0,0.41,2.5407
152463,1563729405261,-2,2.27,0.79,0.54,1.13,0.91,1.11,0.07,0.53,-1,-2,-2,1.12,6095,6,78,42,37,928,322.0,617,466,60,123.0,137,1,304,193,44,0,0,230,155,-22016,321,648.46,,,,,,,,,,,,
152483,1563729405281,-1,2.28,0.8,0.54,1.12,0.92,1.07,0.03,0.52,-1,-4,-2,1.07,6091,6,78,42,37,926,320.0,620,468,60,123.0,137,1,304,193,44,0,0,274,150,165,319,648.46,,,,,,,,,,,,
152503,1563729405306,-1,2.28,0.8,0.54,1.12,0.91,1.04,-0.02,0.52,-1,-4,-2,1.04,6044,6,79,42,37,925,318.0,619,468,60,122.0,137,1,304,193,44,0,0,130,145,155,317,882.05,,,,,,,,,,,,
152523,1563729405326,0,2.27,0.8,0.55,1.12,0.92,1.01,-0.03,0.51,-1,-3,-2,1.01,6046,6,78,42,38,924,319.0,619,467,60,123.0,141,1,307,193,45,0,0,130,-27136,-24576,318,882.05,,,,,,,,,,,,
152543,1563729405346,0,2.26,0.79,0.54,1.13,0.91,0.93,-0.07,0.53,-1,-3,-2,0.93,6034,6,78,42,38,925,318.0,619,470,60,123.0,141,1,307,199,45,0,0,825,145,-23296,316,882.05,45.74968,4.906866,33.52,188.3,0,0.0,-1,0.0,0.0,0,0.41,2.5424
152563,1563729405366,0,2.27,0.8,0.55,1.13,0.91,0.86,-0.09,0.55,-0,-4,-2,0.87,6013,6,78,42,38,924,317.0,615,467,60,122.0,141,1,306,199,45,0,0,155,-28416,-25856,315,882.05,,,,,,,,,,,,
152583,1563729405386,0,2.28,0.79,0.54,1.12,0.92,0.84,-0.13,0.54,-0,-4,-2,0.85,5982,6,78,42,38,921,315.0,614,470,60,123.0,141,1,305,198,45,0,0,159,135,-27136,315,882.05,,,,,,,,,,,,
152603,1563729405404,1,2.27,0.8,0.55,1.12,0.92,0.81,-0.13,0.52,-0,-3,-1,0.82,5975,6,78,42,39,917,315.0,611,470,60,122.0,141,1,308,198,45,0,0,533,-29696,140,313,882.05,,,,,,,,,,,,
152623,1563729405424,-1,2.27,0.8,0.55,1.12,0.91,0.83,-0.15,0.51,-0,-4,-1,0.84,5924,6,79,42,39,914,314.0,605,468,60,123.0,143,1,305,203,45,0,0,128,135,135,312,648.46,,,,,,,,,,,,
152643,1563729405444,-1,2.28,0.8,0.55,1.12,0.92,0.85,-0.16,0.5,-1,-5,-2,0.86,5935,6,79,42,39,910,313.0,597,469,60,123.0,143,1,306,203,45,0,0,488,-30976,-29696,310,648.46,45.749687,4.906868,33.17,188.3,0,0.0,-1,0.0,0.0,0,0.41,2.544
152663,1563729405464,-1,2.28,0.8,0.55,1.12,0.92,0.9,-0.16,0.47,-1,-6,-2,0.92,5892,6,79,42,39,905,313.0,599,469,60,123.0,143,1,303,203,45,0,0,836,-30976,-28416,309,648.46,,,,,,,,,,,,
152683,1563729405484,-2,2.28,0.8,0.54,1.13,0.92,0.96,-0.14,0.4,-2,-7,-2,0.97,5905,6,79,42,39,900,311.0,606,467,60,124.0,143,1,304,203,45,0,0,253,-32256,-29696,309,648.46,,,,,,,,,,,,
152703,1563729405506,-1,2.28,0.8,0.54,1.13,0.92,1.06,-0.1,0.36,-2,-7,-3,1.06,5859,6,78,42,39,899,310.0,606,465,60,123.0,143,1,301,203,45,0,0,253,125,135,308,414.87,,,,,,,,,,,,
152723,1563729405526,-2,2.27,0.79,0.54,1.13,0.91,1.13,-0.05,0.35,-3,-8,-4,1.14,5870,6,79,42,39,897,309.0,602,466,60,123.0,147,1,302,204,45,0,0,20543,32000,-30976,305,414.87,,,,,,,,,,,,
152743,1563729405546,1,2.28,0.8,0.54,1.12,0.91,1.15,-0.01,0.31,-3,-7,-4,1.15,5850,6,78,42,40,895,308.0,601,467,60,122.0,147,1,306,204,45,0,0,495,120,-30976,306,414.87,45.749695,4.90687,31.96,188.2,0,0.0,-1,0.0,0.0,0,0.41,2.5457
152763,1563729405566,2,2.27,0.8,0.54,1.13,0.91,1.12,0.04,0.31,-3,-4,-5,1.12,5822,6,79,42,40,894,307.0,605,466,60,122.0,147,1,304,204,45,0,0,169,30720,-30976,305,414.87,,,,,,,,,,,,
152783,1563729405586,1,2.27,0.8,0.55,1.12,0.92,0.99,0.04,0.39,-2,-2,-4,0.99,5797,6,79,42,41,893,305.0,601,467,60,122.0,147,1,308,205,45,0,0,126,115,-30976,305,882.05,,,,,,,,,,,,
152803,1563729405604,1,2.27,0.8,0.55,1.12,0.92,0.84,0.03,0.46,-1,-0,-4,0.84,5785,6,79,42,41,894,305.0,603,470,60,123.0,147,1,308,205,45,0,0,168,29440,120,303,882.05,,,,,,,,,,,,
152823,1563729405624,-1,2.27,0.8,0.54,1.13,0.91,0.78,0.01,0.5,-1,0,-4,0.78,5733,6,79,42,41,894,305.0,599,466,60,123.0,145,1,303,205,44,0,0,474,29440,125,302,648.46,,,,,,,,,,,,
152843,1563729405644,-1,2.27,0.81,0.54,1.13,0.92,0.89,0.04,0.51,-1,-1,-3,0.89,5733,6,79,42,42,894,304.0,589,467,60,123.0,145,1,308,206,44,0,0,509,29440,30720,300,414.87,45.749702,4.906872,31.87,188.2,0,0.0,-1,0.0,0.0,0,0.41,2.5474
152863,1563729405664,-1,2.27,0.8,0.54,1.12,0.92,1.0,0.08,0.52,-2,-3,-3,1.01,5673,6,79,42,42,894,303.0,589,461,60,124.0,145,1,305,206,44,0,0,249,28160,120,299,414.87,,,,,,,,,,,,
152883,1563729405684,0,2.28,0.8,0.55,1.12,0.92,0.97,0.07,0.54,-2,-2,-4,0.97,5668,6,79,42,43,894,302.0,600,469,60,122.0,145,1,310,208,44,0,0,392,105,28160,300,414.87,,,,,,,,,,,,
152903,1563729405706,0,2.27,0.8,0.55,1.12,0.92,0.84,0.06,0.57,-2,1,-4,0.84,5681,6,79,42,43,897,301.0,590,470,60,123.0,145,1,310,208,44,0,0,102,26880,28160,298,882.05,,,,,,,,,,,,
152923,1563729405726,-2,2.28,0.8,0.54,1.13,0.91,0.83,0.07,0.58,-1,1,-3,0.83,5657,6,79,42,43,899,299.0,572,467,60,123.0,148,1,309,208,44,0,0,98,25600,29440,296,648.46,,,,,,,,,,,,
152943,1563729405746,-2,2.28,0.8,0.55,1.13,0.91,0.9,0.08,0.53,-2,-1,-3,0.91,5652,6,79,42,44,900,300.0,583,468,60,124.0,148,1,313,209,44,0,0,98,100,105,296,414.87,45.74971,4.906873,31.15,188.2,0,0.0,-1,0.0,0.0,0,0.41,2.549
152963,1563729405766,1,2.28,0.8,0.55,1.12,0.92,0.91,0.08,0.45,-2,-2,-3,0.91,5639,6,79,42,44,902,297.0,578,465,60,123.0,148,1,312,211,44,0,0,81,24320,25600,296,414.87,,,,,,,,,,,,
152983,1563729405786,1,2.27,0.81,0.54,1.13,0.92,0.84,0.03,0.53,-2,-1,-3,0.84,5635,6,79,42,45,903,295.0,585,465,60,122.0,148,1,317,211,44,0,0,363,23040,100,293,882.05,,,,,,,,,,,,
153003,1563729405804,-0,2.28,0.8,0.55,1.12,0.92,0.8,0.02,0.52,-2,-1,-2,0.8,5625,6,79,42,45,904,294.0,576,470,60,122.0,148,1,316,211,44,0,0,238,85,100,292,648.46,,,,,,,,,,,,
153023,1563729405824,-0,2.27,0.8,0.54,1.13,0.91,0.88,0.05,0.48,-2,-0,-2,0.88,5590,6,79,42,45,901,294.0,585,466,60,124.0,150,1,313,210,44,0,0,440,85,24320,292,414.87,,,,,,,,,,,,
153043,1563729405844,2,2.28,0.8,0.54,1.13,0.91,0.91,0.05,0.41,-2,-2,-2,0.91,5560,6,79,42,46,899,294.0,581,466,60,123.0,150,1,315,212,44,0,0,199,23040,95,291,414.87,45.749718,4.906874,30.5,188.2,0,0.0,-1,0.0,0.0,0,0.42,2.5507
153063,1563729405864,0,2.28,0.8,0.54,1.13,0.91,0.81,0.04,0.45,-2,-0,-2,0.81,5542,6,79,42,47,898,293.0,575,470,60,122.0,150,1,316,212,44,0,0,199,21760,24320,290,882.05,,,,,,,,,,,,
153083,1563729405884,-1,2.29,0.8,0.55,1.12,0.92,0.83,0.04,0.38,-2,-1,-2,0.83,5511,6,79,42,47,896,293.0,578,467,60,124.0,150,1,315,214,44,0,0,480,21760,90,290,414.87,,,,,,,,,,,,
153103,1563729405904,0,2.29,0.8,0.55,1.12,0.92,0.89,0.05,0.34,-2,-0,-3,0.89,5493,6,79,42,47,895,292.0,570,468,60,121.0,150,1,314,214,44,0,0,481,80,85,288,414.87,,,,,,,,,,,,
153123,1563729405902,-1,2.28,0.79,0.54,1.13,0.91,0.79,-0.02,0.42,-2,4,-3,0.79,5464,7,79,42,48,895,291.0,570,471,60,122.0,156,1,315,218,45,0,0,481,0,90,288,882.05,,,,,,,,,,,,
153143,1563729405922,-1,2.29,0.8,0.54,1.13,0.91,0.82,0.02,0.36,-2,2,-3,0.82,5444,7,79,42,48,893,289.0,567,461,60,124.0,156,1,313,218,45,0,0,59,0,80,286,414.87,45.749725,4.906876,29.83,188.1,0,0.0,-1,0.0,0.0,0,0.42,2.5524
153163,1563729405942,-0,2.29,0.8,0.54,1.13,0.91,0.92,0.01,0.42,-2,0,-3,0.92,5471,7,79,42,48,892,288.0,571,465,60,123.0,156,1,316,222,45,0,0,1608,0,0,286,414.87,,,,,,,,,,,,
153183,1563729405962,-1,2.3,0.8,0.54,1.12,0.91,0.82,-0.04,0.56,-1,0,-3,0.82,5503,6,79,42,49,890,286.0,568,468,60,123.0,156,1,322,222,45,0,0,1569,-16896,0,286,648.46,,,,,,,,,,,,
153203,1563729406002,-1,2.3,0.8,0.55,1.12,0.92,0.88,0.01,0.55,-2,-1,-1,0.88,5460,7,79,42,49,887,286.0,568,464,60,124.0,156,1,319,222,45,0,0,155,10686,80,285,414.87,,,,,,,,,,,,
153223,1563729406022,1,2.29,0.8,0.54,1.13,0.91,0.86,0.01,0.46,-2,-1,-2,0.86,5460,7,79,42,49,885,286.0,578,466,60,122.0,157,1,319,222,45,0,0,710,10686,20480,284,414.87,,,,,,,,,,,,
153243,1563729406042,-2,2.31,0.8,0.55,1.12,0.92,0.79,-0.05,0.46,-1,1,-2,0.79,5434,7,79,42,49,882,285.0,556,470,60,123.0,157,1,317,222,45,0,0,471,-16896,0,284,648.46,45.749733,4.906877,29.69,188.0,0,0.0,-1,0.0,0.0,0,0.42,2.554
153263,1563729406062,3,2.3,0.8,0.55,1.13,0.91,0.87,-0.01,0.42,-1,0,-2,0.87,5409,7,79,42,49,879,285.0,556,463,60,124.0,157,1,314,222,45,0,0,347,-16896,0,282,181.28,,,,,,,,,,,,
153283,1563729406082,-2,2.3,0.8,0.55,1.12,0.91,0.82,-0.01,0.44,-1,-1,-2,0.82,5384,7,79,42,50,880,283.0,575,471,60,122.0,157,1,316,225,45,0,0,175,1886,0,283,882.05,,,,,,,,,,,,
153303,1563729406101,-1,2.32,0.8,0.54,1.13,0.92,0.84,0.03,0.4,-0,-0,-1,0.84,5364,7,79,42,50,877,283.0,548,462,60,125.0,157,1,314,224,45,0,0,449,-1529,0,282,414.87,,,,,,,,,,,,
153323,1563729406121,0,2.32,0.8,0.55,1.12,0.92,0.84,0.05,0.34,0,0,-2,0.84,5346,7,79,42,50,875,283.0,560,468,60,121.0,160,1,313,224,45,0,0,641,250,10686,281,414.87,,,,,,,,,,,,
153343,1563729406141,-1,2.32,0.8,0.55,1.12,0.92,0.76,0.01,0.38,0,2,-2,0.77,5338,7,79,42,51,874,282.0,543,466,60,124.0,160,1,316,224,45,0,0,641,1886,-1529,281,648.46,45.749741,4.906878,29.3,188.0,0,0.0,-1,0.0,0.0,0,0.42,2.5557
153363,1563729406161,-1,2.32,0.8,0.54,1.12,0.92,0.85,0.02,0.46,0,-0,-2,0.85,5329,7,79,42,51,872,281.0,563,464,60,122.0,160,1,315,227,45,0,0,155,-1534,-16896,281,181.28,,,,,,,,,,,,
153383,1563729406181,-2,2.32,0.8,0.55,1.12,0.91,0.76,-0.05,0.55,1,0,-2,0.76,5326,7,79,42,51,872,280.0,547,465,60,123.0,160,1,315,227,45,0,0,1661,30208,-16896,279,648.46,,,,,,,,,,,,
153403,1563729406204,2,2.33,0.81,0.54,1.13,0.91,0.88,-0.01,0.59,1,-4,-1,0.88,5344,7,79,42,51,870,278.0,555,465,60,123.0,160,1,316,227,45,0,0,653,30208,-16896,277,181.28,,,,,,,,,,,,
153423,1563729406224,-2,2.33,0.8,0.54,1.13,0.92,0.79,-0.07,0.67,1,-2,-1,0.79,5302,7,79,42,52,870,278.0,553,465,60,123.0,162,1,317,231,45,0,0,463,250,-1529,278,882.05,,,,,,,,,,,,
153443,1563729406244,3,2.32,0.8,0.55,1.13,0.92,0.9,-0.04,0.56,1,-3,-0,0.9,5280,7,79,42,51,870,278.0,552,465,60,124.0,162,1,311,230,45,0,0,463,250,1886,278,414.87,45.749748,4.906879,28.46,187.9,0,0.0,-1,0.0,0.0,0,0.42,2.5574
153463,1563729406264,-2,2.34,0.8,0.54,1.13,0.91,0.82,-0.08,0.63,1,-3,-0,0.83,5295,7,79,42,52,870,276.0,553,471,60,122.0,162,1,315,230,45,0,0,18235,250,1886,275,882.05,,,,,,,,,,,,
153483,1563729406284,3,2.32,0.8,0.54,1.13,0.91,0.92,-0.05,0.54,1,-2,0,0.92,5243,7,79,42,52,872,278.0,551,463,60,124.0,162,1,312,230,45,0,0,674,-1527,-16896,278,414.87,,,,,,,,,,,,
153503,1563729406302,-1,2.33,0.8,0.54,1.13,0.91,0.85,-0.13,0.6,1,-0,-1,0.86,5249,7,79,42,52,874,277.0,548,472,60,122.0,162,1,312,230,45,0,0,223,-1527,24064,277,882.05,,,,,,,,,,,,
153523,1563729406322,4,2.34,0.81,0.55,1.12,0.92,0.96,-0.05,0.52,1,0,-0,0.96,5217,7,79,42,52,876,277.0,539,462,60,124.0,162,1,310,230,45,0,0,113,28160,24064,277,414.87,,,,,,,,,,,,
153543,1563729406342,-1,2.34,0.8,0.55,1.12,0.92,0.87,-0.12,0.57,1,0,1,0.88,5246,7,79,42,53,877,276.0,553,470,60,122.0,162,1,316,233,45,0,0,106,28160,630,275,882.05,45.749756,4.90688,27.96,187.9,0,0.0,-1,0.0,0.0,0,0.42,2.5591
153563,1563729406362,3,2.34,0.8,0.55,1.13,0.91,0.92,-0.06,0.52,1,-1,1,0.92,5227,7,79,42,53,876,274.0,546,466,60,124.0,162,1,314,233,45,0,0,106,250,630,274,414.87,,,,,,,,,,,,
153583,1563729406382,-1,2.36,0.8,0.54,1.13,0.91,0.85,-0.09,0.56,2,0,2,0.85,5219,7,79,42,53,876,274.0,547,467,60,123.0,162,1,314,233,45,0,0,1986,-1,250,274,882.05,,,,,,,,,,,,
153603,1563729406403,3,2.35,0.81,0.54,1.13,0.92,0.93,-0.05,0.48,2,0,2,0.93,5196,7,79,42,53,873,275.0,544,466,60,122.0,162,1,312,232,45,0,0,427,-1,250,275,414.87,,,,,,,,,,,,
153623,1563729406423,-2,2.36,0.8,0.55,1.13,0.92,0.84,-0.12,0.55,2,1,1,0.85,5173,7,79,42,53,871,275.0,537,465,60,124.0,164,1,310,232,45,0,0,150,-1281,-1534,275,414.87,,,,,,,,,,,,
153643,1563729406443,2,2.35,0.81,0.54,1.13,0.92,0.96,-0.11,0.54,2,-2,2,0.97,5176,7,79,42,53,872,276.0,534,461,60,123.0,164,1,310,236,45,0,0,111,-1,-1534,276,414.87,45.74976,4.906881,28.36,187.9,0,0.0,-1,0.0,0.0,0,0.42,2.5607
153663,1563729406463,-1,2.36,0.8,0.55,1.12,0.92,0.85,-0.17,0.62,2,0,2,0.87,5153,7,79,42,54,873,272.0,528,470,60,124.0,164,1,313,232,45,0,0,1482,-1,250,272,648.46,,,,,,,,,,,,
153683,1563729406483,-1,2.36,0.81,0.54,1.13,0.92,0.9,-0.2,0.76,2,-4,1,0.93,5118,7,79,42,54,876,272.0,541,463,60,122.0,164,1,310,235,45,0,0,149,-1,250,272,414.87,,,,,,,,,,,,
153703,1563729406499,-1,2.35,0.8,0.55,1.14,0.92,0.83,-0.08,0.63,2,-2,3,0.83,5111,7,79,42,54,879,272.0,529,466,60,123.0,164,1,310,235,45,0,0,220,-1,630,272,414.87,,,,,,,,,,,,
153723,1563729406519,-1,2.35,0.81,0.55,1.13,0.93,0.79,-0.04,0.64,2,-2,2,0.79,5117,7,79,42,54,885,273.0,530,471,60,122.0,164,1,310,235,45,0,0,220,-1,2414,271,882.05,,,,,,,,,,,,
153743,1563729406539,2,2.36,0.81,0.55,1.13,0.92,0.91,0.01,0.55,2,-2,3,0.91,5085,7,79,42,54,889,268.0,530,462,60,123.0,164,1,308,234,45,0,0,220,-1,28160,268,414.87,45.749767,4.906882,27.84,187.8,0,0.0,-1,0.0,0.0,0,0.42,2.5624
153763,1563729406559,-1,2.34,0.8,0.55,1.13,0.91,0.84,-0.01,0.54,2,-2,3,0.84,5122,7,79,42,55,892,269.0,517,466,60,123.0,164,1,308,235,45,0,0,220,-1,2414,269,648.46,,,,,,,,,,,,
153783,1563729406579,-1,2.34,0.81,0.55,1.13,0.93,0.87,0.02,0.53,3,-4,2,0.87,5100,8,79,42,55,893,269.0,529,465,60,122.0,164,1,306,238,45,0,0,34,-1,2414,269,414.87,,,,,,,,,,,,
153803,1563729406599,-2,2.34,0.81,0.55,1.14,0.92,0.84,0.04,0.46,3,-2,3,0.84,5077,11,79,42,55,894,268.0,526,466,60,125.0,164,1,304,238,45,0,0,34,-1,-1281,268,414.87,,,,,,,,,,,,
153823,1563729406619,-1,2.33,0.81,0.55,1.12,0.92,0.86,-0.02,0.56,3,-3,2,0.86,5084,11,79,42,57,895,269.0,525,469,60,123.0,170,1,295,242,46,0,0,110,-1,28160,269,882.05,,,,,,,,,,,,
153843,1563729406639,3,2.32,0.8,0.55,1.14,0.92,0.91,0.01,0.52,3,-5,3,0.91,5077,12,79,42,57,895,268.0,528,468,60,122.0,170,1,296,246,46,0,0,109,-1,250,268,414.87,45.749775,4.906883,27.35,187.9,0,0.0,-1,0.0,0.0,0,0.42,2.564
153863,1563729406659,-2,2.31,0.8,0.55,1.14,0.92,0.82,0.01,0.48,2,-2,3,0.82,5041,12,79,42,58,895,269.0,523,465,60,123.0,170,1,288,249,46,0,0,109,-1,-1527,269,414.87,,,,,,,,,,,,
153883,1563729406679,-1,2.31,0.8,0.55,1.13,0.93,0.84,-0.03,0.57,2,-4,3,0.84,5048,13,79,42,59,894,266.0,523,465,60,122.0,170,1,285,253,46,0,0,109,-1,28160,266,882.05,,,,,,,,,,,,
153903,1563729406699,1,2.3,0.81,0.55,1.13,0.93,0.91,0.04,0.46,2,-2,2,0.91,5059,14,79,42,59,893,265.0,523,462,60,123.0,170,1,286,253,46,0,0,36,-1,28160,264,414.87,,,,,,,,,,,,
153923,1563729406719,-1,2.28,0.81,0.55,1.14,0.92,0.83,0.02,0.48,1,-1,2,0.83,5024,14,79,42,61,892,265.0,524,470,60,124.0,190,1,274,257,50,0,0,36,-1,-1,263,648.46,,,,,,,,,,,,
153943,1563729406739,-0,2.28,0.8,0.55,1.14,0.92,0.93,0.05,0.5,1,-2,3,0.93,5073,14,79,42,61,891,264.0,526,466,60,121.0,190,1,279,261,50,0,0,69,-1,-1,263,414.87,45.749779,4.906885,27.46,187.9,0,0.0,-1,0.0,0.0,0,0.42,2.5657
153963,1563729406759,-1,2.29,0.8,0.55,1.14,0.92,0.85,0.07,0.47,1,-1,2,0.85,5086,15,79,42,61,889,263.0,518,466,60,124.0,190,1,281,261,50,0,0,69,-1,-1,262,414.87,,,,,,,,,,,,
153983,1563729406779,-3,2.28,0.81,0.55,1.13,0.93,0.84,0.03,0.57,1,-2,2,0.84,5103,17,79,42,63,886,264.0,532,468,60,122.0,190,1,284,267,50,0,0,69,-1,250,262,882.05,,,,,,,,,,,,
154003,1563729406801,2,2.28,0.81,0.54,1.14,0.92,0.86,0.04,0.47,1,-1,1,0.87,5121,19,79,42,63,884,263.0,526,470,60,123.0,190,1,285,273,50,0,0,69,-1,250,261,414.87,,,,,,,,,,,,
154023,1563729406821,-1,2.28,0.8,0.55,1.13,0.92,0.81,0.02,0.52,1,-1,0,0.81,5173,19,79,42,65,882,263.0,529,477,60,123.0,205,1,289,287,54,0,0,69,-1,-1281,263,648.46,,,,,,,,,,,,
154043,1563729406841,2,2.27,0.81,0.55,1.13,0.92,0.86,0.06,0.53,1,-1,-0,0.86,5146,20,79,42,65,880,263.0,545,467,60,122.0,205,1,287,288,54,0,0,69,-1,-1,263,414.87,45.74979,4.906886,27.46,187.8,0,0.0,-1,0.0,0.0,0,0.42,2.5674
154063,1563729406861,-2,2.28,0.81,0.55,1.13,0.92,0.77,0.04,0.57,1,1,-0,0.77,5179,20,79,42,66,878,262.0,520,468,60,123.0,205,1,290,295,54,0,0,69,-1,-1,260,414.87,,,,,,,,,,,,
154083,1563729406881,0,2.28,0.81,0.54,1.14,0.92,0.84,0.04,0.63,0,-1,-1,0.84,5222,20,79,42,67,875,262.0,537,462,60,121.0,205,1,293,300,54,0,0,17,-1,-1,261,414.87,,,,,,,,,,,,
154103,1563729406901,-2,2.28,0.8,0.55,1.13,0.93,0.75,0.03,0.62,-0,1,-1,0.75,5257,20,79,42,67,875,263.0,523,471,60,124.0,205,1,296,300,54,0,0,264,-1,-1,261,414.87,,,,,,,,,,,,
154123,1563729406921,1,2.28,0.81,0.55,1.13,0.92,0.82,0.07,0.56,-0,-1,-1,0.82,5305,20,79,42,67,878,262.0,546,461,60,122.0,230,1,300,299,60,0,0,264,-1,-1,260,414.87,,,,,,,,,,,,
154143,1563729406941,-1,2.28,0.8,0.55,1.13,0.93,0.74,0.07,0.53,-1,1,-2,0.74,5341,20,79,42,67,887,263.0,532,468,60,124.0,230,1,303,299,60,0,0,264,-1,-1,260,414.87,45.749794,4.906887,26.84,187.8,0,0.0,-1,0.0,0.0,0,0.42,2.5691
154163,1563729406961,3,2.28,0.81,0.55,1.14,0.92,0.83,0.12,0.45,-1,1,-3,0.84,5374,20,79,42,67,896,262.0,553,466,60,123.0,230,1,306,299,60,0,0,354,-1,-1,260,414.87,,,,,,,,,,,,
154183,1563729406981,-2,2.28,0.81,0.55,1.13,0.93,0.81,0.06,0.56,-1,-1,-3,0.81,5439,20,79,42,67,906,262.0,554,473,60,122.0,230,1,314,298,60,0,0,354,-1,-1,260,882.05,,,,,,,,,,,,
154203,1563729406997,-0,2.27,0.81,0.55,1.13,0.93,0.81,0.09,0.52,-0,-0,-2,0.82,5560,20,79,42,67,920,261.0,560,462,60,123.0,230,1,323,297,60,0,0,354,-1,-1,259,414.87,,,,,,,,,,,,
154223,1563729407017,3,2.28,0.81,0.55,1.13,0.92,0.86,0.12,0.51,-0,-1,-2,0.87,5608,20,79,42,66,937,261.0,573,466,60,122.0,236,1,329,289,61,0,0,354,-1,250,258,414.87,,,,,,,,,,,,
154243,1563729407037,-1,2.28,0.81,0.55,1.13,0.93,0.78,0.07,0.6,-0,1,-3,0.79,5537,20,79,42,66,953,263.0,570,473,60,122.0,236,1,321,290,61,0,0,36,-1,-1527,261,882.05,45.749802,4.906887,26.94,187.9,0,0.0,-1,0.0,0.0,0,0.42,2.5707
154263,1563729407057,-0,2.28,0.81,0.55,1.14,0.92,0.74,0.08,0.64,-0,4,-3,0.75,5351,21,79,42,66,961,266.0,559,468,60,123.0,236,1,305,292,61,0,0,1545,-1,-1529,267,648.46,,,,,,,,,,,,
154283,1563729407077,-0,2.29,0.81,0.55,1.13,0.92,0.8,0.12,0.63,-0,4,-2,0.81,5139,21,79,42,67,972,271.0,543,462,60,122.0,236,1,286,301,61,0,0,1545,-1281,-1529,270,414.87,,,,,,,,,,,,
154303,1563729407097,3,2.28,0.81,0.55,1.14,0.92,0.81,0.16,0.62,-1,4,-3,0.82,4972,21,79,42,67,987,273.0,529,470,60,123.0,236,1,270,301,61,0,0,1545,28160,-16896,270,414.87,,,,,,,,,,,,
154323,1563729407117,-1,2.29,0.8,0.55,1.13,0.91,0.78,0.08,0.64,-1,1,-4,0.79,4866,21,79,42,69,1001,274.0,505,467,60,123.0,210,1,262,311,57,0,0,1545,2414,-1534,271,648.46,,,,,,,,,,,,
154343,1563729407137,-1,2.29,0.81,0.55,1.13,0.92,0.79,0.07,0.65,-1,-2,-3,0.79,4894,21,79,42,70,1010,274.0,507,471,60,122.0,210,1,265,317,57,0,0,1545,2414,250,270,882.05,45.749809,4.906887,26.21,188.0,0,0.0,-1,0.0,0.0,0,0.43,2.5724
154363,1563729407157,1,2.3,0.8,0.55,1.14,0.92,0.85,0.13,0.55,-1,-2,-2,0.86,4934,21,79,42,70,1017,274.0,508,462,60,122.0,210,1,268,317,57,0,0,1545,2414,-1534,271,414.87,,,,,,,,,,,,
154383,1563729407177,-1,2.3,0.81,0.55,1.14,0.92,0.81,0.08,0.52,-1,1,-1,0.81,4998,21,79,42,71,1025,273.0,499,466,60,124.0,210,1,273,323,57,0,0,22,28160,-1534,272,414.87,,,,,,,,,,,,
154403,1563729407199,-2,2.3,0.81,0.55,1.13,0.92,0.8,0.05,0.59,-1,-2,-2,0.8,5082,21,79,42,71,1034,274.0,519,468,60,123.0,210,1,280,331,57,0,0,90,2414,30208,272,882.05,,,,,,,,,,,,
154423,1563729407219,1,2.31,0.81,0.55,1.14,0.93,0.86,0.11,0.55,-1,-2,-2,0.86,5175,21,79,42,71,1034,275.0,521,468,60,123.0,232,1,288,328,63,0,0,90,-1527,250,271,414.87,,,,,,,,,,,,
154443,1563729407239,-1,2.29,0.81,0.55,1.14,0.91,0.78,0.05,0.63,-2,-2,-1,0.79,5230,21,79,42,71,1033,273.0,533,467,60,123.0,232,1,293,329,63,0,0,420,28160,250,271,882.05,45.749813,4.906887,26.78,188.0,0,0.0,-1,0.0,0.0,0,0.43,2.574
154463,1563729407259,2,2.31,0.8,0.55,1.13,0.92,0.85,0.11,0.5,-2,-2,-1,0.86,5346,21,79,42,70,1026,274.0,544,468,60,122.0,232,1,303,323,63,0,0,123,2414,-1534,272,414.87,,,,,,,,,,,,
154483,1563729407279,-0,2.3,0.81,0.55,1.13,0.91,0.8,0.04,0.55,-2,-3,-1,0.8,5419,21,79,42,70,1019,274.0,556,472,60,123.0,232,1,309,324,63,0,0,115,28160,30208,273,882.05,,,,,,,,,,,,
154503,1563729407296,-2,2.3,0.8,0.54,1.13,0.9,0.79,0.04,0.49,-2,1,-1,0.79,5537,21,79,42,69,1011,273.0,554,465,60,123.0,232,1,319,315,63,0,0,1442,-1281,630,273,414.87,,,,,,,,,,,,
154523,1563729407316,-2,2.31,0.8,0.55,1.13,0.92,0.9,0.08,0.42,-1,1,-0,0.91,5688,21,79,42,68,1003,273.0,568,462,60,123.0,238,1,331,304,65,0,0,1413,250,-1534,273,414.87,,,,,,,,,,,,
154543,1563729407336,2,2.31,0.8,0.54,1.13,0.92,0.87,0.1,0.44,-1,1,-0,0.87,5771,21,79,42,66,992,272.0,585,466,60,123.0,238,1,344,295,65,0,0,809,250,10686,272,414.87,45.749821,4.906887,27.26,188.1,0,0.0,-1,0.0,0.0,0,0.43,2.5757
154563,1563729407356,-0,2.32,0.81,0.54,1.13,0.92,0.78,0.06,0.5,-1,4,-0,0.78,5762,21,79,42,66,982,277.0,587,463,60,121.0,238,1,343,287,65,0,0,806,2414,90,277,414.87,,,,,,,,,,,,
154583,1563729407376,1,2.31,0.81,0.55,1.14,0.92,0.67,-0.0,0.65,-0,5,0,0.67,5697,21,79,42,65,980,280.0,583,468,60,122.0,238,1,339,280,65,0,0,806,630,25600,280,882.05,,,,,,,,,,,,
154603,1563729407400,-1,2.32,0.81,0.55,1.14,0.92,0.65,0.04,0.66,-0,3,1,0.65,5529,21,79,42,64,976,283.0,569,462,60,123.0,238,1,325,274,65,0,0,59,1886,26880,283,648.46,,,,,,,,,,,,
154623,1563729407420,1,2.33,0.81,0.55,1.13,0.91,0.7,0.11,0.67,0,1,0,0.71,5357,21,79,42,65,973,285.0,562,461,60,123.0,203,1,306,284,58,0,0,59,250,95,288,414.87,,,,,,,,,,,,
154643,1563729407440,-1,2.32,0.8,0.55,1.13,0.91,0.65,-0.01,0.8,0,2,-0,0.65,5278,21,79,42,66,972,288.0,548,472,60,123.0,203,1,299,293,58,0,0,1631,10686,24320,288,648.46,45.749828,4.906887,27.02,188.1,0,0.0,-1,0.0,0.0,0,0.43,2.5774
154663,1563729407460,1,2.33,0.8,0.55,1.13,0.92,0.78,0.03,0.75,0,0,-0,0.79,5237,21,79,42,67,972,287.0,543,460,60,123.0,203,1,294,300,58,0,0,381,10686,90,287,414.87,,,,,,,,,,,,
154683,1563729407480,-2,2.34,0.8,0.55,1.13,0.91,0.72,-0.03,0.72,0,2,-1,0.73,5262,21,79,42,68,973,289.0,539,467,60,123.0,203,1,296,300,58,0,0,248,41,95,289,648.46,,,,,,,,,,,,
154703,1563729407498,2,2.34,0.81,0.55,1.13,0.92,0.79,0.03,0.57,0,0,-0,0.79,5335,21,79,42,68,967,287.0,549,466,60,122.0,203,1,302,307,58,0,0,11760,-16896,80,287,414.87,,,,,,,,,,,,
154723,1563729407518,-1,2.35,0.81,0.54,1.14,0.92,0.79,-0.01,0.55,0,-1,0,0.79,5437,21,79,42,68,963,287.0,561,474,60,123.0,216,1,310,306,62,0,0,750,10686,85,288,882.05,,,,,,,,,,,,
154743,1563729407538,-1,2.34,0.81,0.55,1.15,0.92,0.75,-0.1,0.54,0,-2,2,0.76,5522,21,79,42,68,958,289.0,552,463,60,124.0,216,1,317,305,62,0,0,229,-1529,23040,289,414.87,45.749836,4.906887,26.94,188.2,0,0.0,-1,0.0,0.0,0,0.43,2.5791
154763,1563729407558,1,2.35,0.81,0.55,1.14,0.92,0.81,-0.02,0.45,0,-1,2,0.81,5676,21,79,42,67,952,290.0,567,465,60,124.0,216,1,333,296,62,0,0,452,10686,24320,290,414.87,,,,,,,,,,,,
154783,1563729407578,1,2.34,0.81,0.54,1.13,0.92,0.83,0.06,0.41,1,3,1,0.83,5839,22,79,42,66,941,289.0,590,468,60,122.0,216,1,350,286,62,0,0,168,0,24320,289,882.05,,,,,,,,,,,,
154803,1563729407600,2,2.34,0.81,0.55,1.13,0.93,0.81,0.06,0.39,2,5,1,0.82,5986,21,79,42,65,929,290.0,603,466,60,122.0,216,1,366,276,62,0,0,897,0,25600,290,414.87,,,,,,,,,,,,
154823,1563729407620,2,2.35,0.81,0.55,1.13,0.93,0.76,0.06,0.35,2,7,1,0.76,6032,22,79,42,63,921,295.0,610,465,60,123.0,204,1,376,268,60,0,0,501,0,115,295,414.87,,,,,,,,,,,,
154843,1563729407640,2,2.34,0.81,0.55,1.13,0.92,0.7,0.04,0.35,3,7,1,0.7,5977,22,79,42,62,914,296.0,608,468,60,122.0,204,1,375,251,60,0,0,545,80,130,296,882.05,45.74984,4.906887,27.85,188.3,0,0.0,-1,0.0,0.0,0,0.43,2.5807
154863,1563729407660,1,2.35,0.81,0.54,1.14,0.92,0.67,0.02,0.37,3,9,1,0.67,5852,22,79,42,62,910,298.0,600,465,60,122.0,204,1,362,253,60,0,0,793,23040,130,298,414.87,,,,,,,,,,,,
154883,1563729407680,1,2.35,0.81,0.55,1.14,0.92,0.61,-0.03,0.47,3,9,1,0.61,5751,22,79,42,62,908,298.0,583,468,60,123.0,204,1,351,248,60,0,0,166,25600,135,299,882.05,,,,,,,,,,,,
154903,1563729407701,-0,2.35,0.81,0.55,1.14,0.92,0.54,-0.07,0.58,3,8,2,0.55,5637,22,79,42,62,908,304.0,572,465,60,123.0,204,1,339,250,60,0,0,18442,95,-29696,304,648.46,,,,,,,,,,,,
154923,1563729407721,-2,2.35,0.81,0.55,1.13,0.92,0.59,0.03,0.57,3,4,3,0.59,5597,22,79,42,62,910,306.0,571,463,60,123.0,176,1,336,259,54,0,0,490,100,140,306,414.87,,,,,,,,,,,,
154943,1563729407741,1,2.36,0.81,0.54,1.14,0.92,0.72,0.1,0.56,3,2,2,0.73,5634,22,79,42,63,914,305.0,580,466,60,123.0,176,1,337,266,54,0,0,614,100,-30976,305,181.28,45.749847,4.906887,28.34,188.3,0,0.0,-1,0.0,0.0,0,0.43,2.5824
154963,1563729407761,-0,2.35,0.8,0.55,1.13,0.92,0.69,0.1,0.57,4,4,0,0.7,5765,22,79,42,63,920,305.0,581,466,60,122.0,176,1,351,264,54,0,0,614,105,140,305,1115.64,,,,,,,,,,,,
154983,1563729407781,-1,2.36,0.81,0.55,1.13,0.93,0.58,0.03,0.66,4,4,1,0.58,5890,21,79,42,63,923,306.0,586,467,60,123.0,176,1,363,253,54,0,0,1097,110,140,306,882.05,,,,,,,,,,,,
155003,1563729407802,1,2.35,0.81,0.55,1.14,0.93,0.48,-0.01,0.7,4,4,3,0.48,6044,21,79,42,62,924,308.0,598,469,60,123.0,176,1,379,252,54,0,0,168,28160,-30976,308,882.05,,,,,,,,,,,,
155023,1563729407822,0,2.35,0.81,0.55,1.14,0.92,0.4,-0.02,0.72,4,4,3,0.4,6157,21,79,42,61,926,310.0,610,472,60,121.0,184,1,387,249,57,0,0,616,28160,-27136,310,882.05,,,,,,,,,,,,
155043,1563729407842,3,2.35,0.82,0.55,1.14,0.92,0.4,-0.02,0.77,5,6,2,0.4,6198,21,79,42,60,928,308.0,618,474,60,122.0,184,1,388,252,57,0,0,134,115,155,308,414.87,45.749855,4.906887,28.54,188.4,0,0.0,-1,0.0,0.0,0,0.43,2.584
155063,1563729407862,-2,2.35,0.81,0.55,1.14,0.93,0.53,0.02,0.76,5,8,2,0.53,6175,21,79,42,60,929,308.0,615,467,60,123.0,184,1,387,251,57,0,0,188,120,-20736,307,414.87,,,,,,,,,,,,
155083,1563729407882,-3,2.36,0.81,0.55,1.14,0.92,0.61,-0.0,0.74,4,8,3,0.61,6115,21,79,42,59,927,314.0,608,467,60,123.0,184,1,384,249,57,0,0,560,-32256,-20736,314,414.87,,,,,,,,,,,,
155103,1563729407900,-2,2.35,0.81,0.55,1.13,0.92,0.74,-0.0,0.74,3,7,2,0.74,6044,21,79,42,59,924,316.0,603,468,60,123.0,184,1,383,248,57,0,0,880,-30976,-22016,316,414.87,,,,,,,,,,,,
155123,1563729407920,-1,2.35,0.8,0.55,1.14,0.92,0.83,0.06,0.75,3,5,2,0.83,6025,21,79,42,59,918,316.0,602,465,60,124.0,177,1,383,247,56,0,0,1478,135,-6528,316,414.87,,,,,,,,,,,,
155143,1563729407940,-1,2.35,0.81,0.55,1.14,0.92,0.89,0.16,0.68,2,4,3,0.91,6030,21,80,42,58,912,320.0,598,464,60,123.0,177,1,383,247,56,0,0,539,-29696,-32559,320,414.87,45.749863,4.906888,29.12,188.4,0,0.0,-1,0.0,0.0,0,0.43,2.5857
155163,1563729407960,-1,2.35,0.81,0.55,1.13,0.92,0.93,0.22,0.69,2,2,3,0.95,6089,20,80,42,58,907,320.0,603,466,60,123.0,177,1,384,249,56,0,0,322,-28416,170,320,414.87,,,,,,,,,,,,
155183,1563729407980,-2,2.34,0.81,0.55,1.13,0.92,0.88,0.22,0.73,2,-1,3,0.91,6163,20,80,42,58,904,321.0,601,468,60,123.0,177,1,386,251,56,0,0,322,-27136,-12032,321,648.46,,,,,,,,,,,,
155203,1563729407998,0,2.34,0.81,0.55,1.13,0.93,0.77,0.16,0.8,2,-2,3,0.79,6241,20,80,42,58,908,323.0,613,470,60,122.0,177,1,388,252,56,0,0,915,-28416,-6528,323,882.05,,,,,,,,,,,,
155223,1563729408018,2,2.34,0.81,0.55,1.14,0.93,0.69,0.15,0.9,3,-3,2,0.71,6294,20,79,42,57,913,323.0,605,471,60,121.0,185,1,388,253,60,0,0,12021,-27136,-6528,325,882.05,,,,,,,,,,,,
155243,1563729408038,3,2.35,0.81,0.55,1.14,0.92,0.74,0.13,0.89,3,0,1,0.75,6328,20,79,42,57,922,323.0,617,463,60,122.0,185,1,389,254,60,0,0,12021,-24576,4838,323,414.87,45.74987,4.906889,29.39,188.5,0,0.0,-1,0.0,0.0,0,0.43,2.5874
155263,1563729408058,-2,2.35,0.81,0.55,1.14,0.92,0.82,0.18,0.78,3,2,2,0.84,6319,20,79,42,57,932,325.0,620,468,60,123.0,185,1,388,254,60,0,0,49,-24576,-122,327,414.87,,,,,,,,,,,,
155283,1563729408078,-3,2.34,0.82,0.55,1.14,0.92,0.84,0.12,0.76,3,2,2,0.84,6317,19,79,42,56,944,329.0,616,465,60,123.0,185,1,387,253,60,0,0,200,-23296,-31222,329,648.46,,,,,,,,,,,,
155303,1563729408094,1,2.34,0.81,0.55,1.14,0.93,0.78,0.06,0.85,3,1,2,0.78,6330,18,79,42,56,957,329.0,613,470,60,122.0,185,1,387,253,60,0,0,200,-23296,6668,329,882.05,,,,,,,,,,,,
155323,1563729408114,2,2.34,0.81,0.55,1.15,0.92,0.74,0.02,0.84,3,1,3,0.74,6338,17,79,42,55,963,332.0,616,467,60,122.0,180,1,387,253,60,0,0,207,165,6668,332,414.87,,,,,,,,,,,,
155343,1563729408134,-1,2.34,0.81,0.55,1.14,0.93,0.78,0.03,0.73,3,3,2,0.78,6371,17,79,42,55,967,332.0,617,468,60,122.0,180,1,387,253,60,0,0,12021,170,6870,332,414.87,45.749878,4.906891,28.96,188.6,0,0.0,-1,0.0,0.0,0,0.43,2.5891
155363,1563729408154,-1,2.34,0.82,0.55,1.13,0.92,0.84,0.07,0.65,2,2,3,0.84,6368,17,80,42,54,969,332.0,612,465,60,123.0,180,1,386,252,60,0,0,6965,175,-31206,331,648.46,,,,,,,,,,,,
155383,1563729408174,-0,2.34,0.82,0.56,1.14,0.93,0.76,0.02,0.68,2,2,3,0.76,6390,16,79,42,54,972,333.0,622,468,60,123.0,180,1,386,252,60,0,0,92,-12032,-10554,333,882.05,,,,,,,,,,,,
155403,1563729408196,3,2.33,0.82,0.55,1.14,0.92,0.77,0.01,0.69,3,3,3,0.77,6441,15,79,41,53,972,334.0,626,468,60,122.0,180,1,382,247,60,0,0,928,-12032,-10554,334,414.87,,,,,,,,,,,,
155423,1563729408216,-1,2.33,0.82,0.55,1.13,0.93,0.89,0.03,0.59,2,2,3,0.89,6447,14,80,42,52,972,335.0,620,466,60,124.0,178,1,379,242,60,0,0,541,-32559,-14714,335,414.87,,,,,,,,,,,,
155443,1563729408236,-2,2.34,0.82,0.55,1.14,0.93,0.86,0.03,0.53,2,-1,4,0.86,6449,12,80,41,51,969,336.0,611,463,60,124.0,178,1,376,236,60,0,0,900,-6528,6870,336,648.46,45.749886,4.906893,28.76,188.8,0,0.0,-1,0.0,0.0,0,0.43,2.5907
155463,1563729408256,1,2.33,0.82,0.55,1.13,0.93,0.76,0.01,0.66,2,-1,5,0.76,6456,11,80,41,50,966,338.0,611,468,60,122.0,178,1,373,231,60,0,0,900,4838,6870,338,882.05,,,,,,,,,,,,
155483,1563729408276,-0,2.33,0.81,0.55,1.14,0.93,0.8,0.01,0.69,3,1,4,0.8,6423,9,80,41,49,966,337.0,634,467,60,123.0,178,1,370,225,60,0,0,70,-6528,-1246,337,414.87,,,,,,,,,,,,
155503,1563729408295,-2,2.33,0.82,0.55,1.15,0.93,0.89,0.01,0.68,2,0,3,0.89,6412,8,79,41,47,965,340.0,625,461,60,124.0,178,1,364,216,60,0,0,227,4838,28553,337,414.87,,,,,,,,,,,,
155523,1563729408315,-1,2.33,0.81,0.55,1.14,0.93,0.78,-0.05,0.76,2,-1,3,0.79,6401,7,79,41,46,959,339.0,615,468,60,124.0,153,1,357,214,52,0,0,227,3346,-30454,339,882.05,,,,,,,,,,,,
155543,1563729408335,3,2.32,0.82,0.55,1.15,0.93,0.72,-0.04,0.78,2,0,2,0.72,6419,7,80,41,45,955,339.0,623,467,60,121.0,153,1,350,213,52,0,0,461,2560,8841,339,414.87,45.749893,4.906892,29.51,188.8,0,0.0,-1,0.0,0.0,0,0.43,2.5924
155563,1563729408355,-2,2.33,0.81,0.55,1.14,0.92,0.83,-0.02,0.67,3,3,1,0.83,6373,6,80,41,44,951,340.0,622,465,60,124.0,153,1,343,210,52,0,0,622,2560,-30438,340,414.87,,,,,,,,,,,,
155583,1563729408375,-2,2.33,0.82,0.55,1.14,0.93,0.9,-0.03,0.67,2,1,1,0.9,6368,6,80,41,43,946,337.0,618,465,60,124.0,153,1,336,209,52,0,0,575,3346,2811,337,414.87,,,,,,,,,,,,
155603,1563729408393,1,2.32,0.81,0.55,1.14,0.93,0.86,-0.08,0.69,2,0,2,0.86,6319,6,80,41,42,935,340.0,615,468,60,122.0,153,1,329,208,52,0,0,177,13,-14714,338,882.05,,,,,,,,,,,,
155623,1563729408413,2,2.32,0.82,0.55,1.14,0.93,0.77,-0.13,0.69,2,1,2,0.78,6225,5,80,41,41,924,339.0,616,470,60,122.0,142,1,323,206,48,0,0,311,2560,3183,339,882.05,,,,,,,,,,,,
155643,1563729408433,1,2.32,0.81,0.55,1.14,0.92,0.74,-0.14,0.65,2,1,2,0.76,6177,4,80,41,41,916,339.0,616,470,60,123.0,142,1,322,206,48,0,0,311,13,6870,339,882.05,45.749897,4.906891,30.12,188.8,0,0.0,-1,0.0,0.0,0,0.44,2.594
155663,1563729408453,1,2.32,0.82,0.55,1.14,0.93,0.78,-0.12,0.53,3,3,1,0.79,6065,0,80,41,40,908,338.0,611,466,60,122.0,142,1,316,205,48,0,0,311,3346,-10554,337,414.87,,,,,,,,,,,,
155683,1563729408473,2,2.32,0.82,0.55,1.14,0.92,0.8,-0.12,0.46,3,2,1,0.81,5946,0,80,41,40,893,338.0,607,467,60,123.0,142,1,312,204,48,0,0,804,4838,6870,338,414.87,,,,,,,,,,,,
155703,1563729408496,2,2.32,0.82,0.55,1.14,0.92,0.8,-0.12,0.43,3,3,1,0.81,5833,0,80,41,39,876,338.0,613,465,60,121.0,142,1,299,204,48,0,0,1748,13,8841,338,414.87,,,,,,,,,,,,
155723,1563729408516,-0,2.31,0.82,0.55,1.14,0.92,0.72,-0.16,0.51,3,5,1,0.74,5692,0,80,41,40,864,336.0,608,470,60,121.0,130,1,296,203,44,0,0,1516,13,-10554,336,882.05,,,,,,,,,,,,
155743,1563729408536,-0,2.31,0.82,0.55,1.15,0.93,0.69,-0.18,0.5,4,4,0,0.71,5645,0,80,41,39,854,339.0,587,461,60,123.0,130,1,288,202,44,0,0,242,4838,3346,339,414.87,45.749908,4.906891,31.44,188.8,0,0.0,-1,0.0,0.0,0,0.44,2.5957
155763,1563729408556,-1,2.32,0.82,0.55,1.14,0.92,0.82,-0.15,0.4,3,1,1,0.84,5678,0,80,41,40,842,334.0,582,462,60,123.0,130,1,295,203,44,0,0,1777,-12032,-23296,334,181.28,,,,,,,,,,,,
155783,1563729408576,2,2.31,0.81,0.54,1.15,0.92,0.94,-0.14,0.39,3,1,0,0.95,5769,0,80,41,40,831,328.0,597,467,60,121.0,130,1,301,203,44,0,0,247,-22016,-20736,328,181.28,,,,,,,,,,,,
155803,1563729408593,0,2.31,0.81,0.55,1.14,0.92,0.98,-0.12,0.37,3,2,-1,0.99,5846,0,80,41,40,825,328.0,609,471,60,122.0,130,1,305,204,44,0,0,795,-22016,-25856,328,414.87,,,,,,,,,,,,
155823,1563729408613,2,2.31,0.82,0.55,1.14,0.92,0.94,-0.09,0.34,3,3,-1,0.95,5952,0,80,41,39,824,326.0,613,471,60,121.0,138,1,307,203,45,0,0,741,-24576,150,326,414.87,,,,,,,,,,,,
155843,1563729408633,2,2.31,0.82,0.55,1.15,0.92,0.87,-0.06,0.27,4,6,-1,0.87,6028,0,80,41,39,824,322.0,609,472,60,122.0,138,1,310,203,45,0,0,3073,150,145,322,882.05,45.749916,4.906891,32.64,188.8,0,0.0,-1,0.0,0.0,0,0.44,2.5974
155863,1563729408653,2,2.31,0.81,0.55,1.14,0.92,0.82,-0.03,0.18,4,8,-0,0.83,6075,0,80,41,38,827,320.0,610,472,60,122.0,138,1,307,199,45,0,0,8034,-27136,140,320,882.05,,,,,,,,,,,,
155883,1563729408673,2,2.31,0.81,0.55,1.14,0.92,0.81,-0.01,0.13,5,10,0,0.81,6071,0,80,41,38,832,320.0,621,468,60,123.0,138,1,307,199,45,0,0,146,145,-27136,317,414.87,,,,,,,,,,,,
155903,1563729408695,1,2.32,0.81,0.54,1.14,0.93,0.82,-0.01,0.08,5,11,-1,0.82,6052,0,80,41,37,836,317.0,621,467,60,123.0,138,1,304,193,45,0,0,496,145,155,316,414.87,,,,,,,,,,,,
155923,1563729408715,0,2.31,0.82,0.55,1.14,0.93,0.87,0.0,0.09,5,12,-1,0.87,6025,0,80,41,37,848,317.0,616,466,60,123.0,138,1,304,193,44,0,0,988,140,160,317,414.87,,,,,,,,,,,,
155943,1563729408735,2,2.31,0.82,0.55,1.14,0.93,0.92,0.0,0.1,5,12,-1,0.92,5998,0,80,41,37,867,315.0,610,466,60,123.0,138,1,303,192,44,0,0,153,130,-24576,314,414.87,45.749924,4.906894,31.88,188.8,0,0.0,-1,0.0,0.0,0,0.44,2.5991
155963,1563729408755,2,2.31,0.82,0.55,1.14,0.93,0.95,0.0,0.12,5,13,-2,0.95,5916,0,80,41,37,886,313.0,606,468,60,122.0,138,1,298,192,44,0,0,1016,130,145,313,414.87,,,,,,,,,,,,
155983,1563729408775,2,2.32,0.81,0.55,1.15,0.93,0.91,-0.01,0.12,5,13,-2,0.91,5850,0,80,41,37,902,312.0,604,469,60,122.0,138,1,295,192,44,0,0,904,32000,-28416,312,414.87,,,,,,,,,,,,
156003,1563729408795,-0,2.32,0.82,0.54,1.15,0.92,0.84,-0.02,0.17,5,14,-2,0.84,5813,0,80,41,37,919,312.0,603,469,60,122.0,138,1,292,192,44,0,0,511,32000,135,312,882.05,,,,,,,,,,,,
156023,1563729408815,-0,2.32,0.81,0.55,1.14,0.93,0.76,-0.04,0.3,6,13,-1,0.76,5783,0,80,41,37,941,310.0,598,468,60,123.0,135,1,291,191,42,0,0,315,30720,-29696,310,882.05,,,,,,,,,,,,
156043,1563729408835,-1,2.31,0.82,0.56,1.15,0.92,0.71,-0.06,0.37,5,11,-0,0.71,5774,0,80,41,37,958,308.0,596,465,60,123.0,135,1,290,191,42,0,0,189,115,-32256,308,648.46,45.749931,4.906896,31.64,188.8,0,0.0,-1,0.0,0.0,0,0.44,2.6007
156063,1563729408855,-1,2.31,0.82,0.55,1.14,0.92,0.8,-0.03,0.34,4,7,1,0.8,5758,0,80,41,37,962,306.0,595,466,60,124.0,135,1,289,191,42,0,0,165,29440,32000,306,414.87,,,,,,,,,,,,
156083,1563729408875,0,2.31,0.81,0.55,1.15,0.92,0.92,0.01,0.36,3,4,0,0.92,5732,0,80,41,38,964,305.0,592,465,60,123.0,135,1,290,197,42,0,0,306,29440,30720,305,414.87,,,,,,,,,,,,
156103,1563729408897,1,2.32,0.81,0.55,1.14,0.93,1.02,0.04,0.4,3,5,-1,1.02,5723,0,80,41,38,961,304.0,595,464,60,122.0,135,1,290,197,42,0,0,507,110,29440,303,414.87,,,,,,,,,,,,
156123,1563729408917,1,2.31,0.81,0.55,1.15,0.93,0.92,0.03,0.43,4,8,-2,0.92,5686,0,80,41,38,958,304.0,600,468,60,122.0,139,1,288,197,42,0,0,167,26880,26880,304,882.05,,,,,,,,,,,,
156143,1563729408937,-2,2.32,0.81,0.55,1.14,0.92,0.79,-0.03,0.55,4,9,-2,0.79,5673,0,80,41,39,950,301.0,593,473,60,122.0,139,1,290,197,42,0,0,294,100,29440,301,648.46,45.749939,4.906898,31.28,188.7,0,0.0,-1,0.0,0.0,0,0.44,2.6024
156163,1563729408957,-1,2.32,0.81,0.54,1.15,0.92,0.84,0.05,0.48,3,5,0,0.84,5639,0,80,41,39,941,299.0,586,465,60,124.0,139,1,288,202,42,0,0,289,25600,100,298,414.87,,,,,,,,,,,,
156183,1563729408977,0,2.31,0.82,0.54,1.14,0.92,0.96,0.08,0.48,3,3,0,0.96,5607,0,80,41,39,933,298.0,593,466,60,121.0,139,1,286,202,42,0,0,510,95,28160,298,414.87,,,,,,,,,,,,
156203,1563729408997,1,2.32,0.81,0.55,1.14,0.92,0.92,0.04,0.54,2,4,0,0.93,5588,0,80,41,40,926,297.0,587,468,60,122.0,139,1,289,202,42,0,0,484,23040,26880,297,882.05,,,,,,,,,,,,
156223,1563729409009,-1,2.32,0.82,0.55,1.15,0.93,0.77,-0.02,0.53,2,6,0,0.77,5575,0,80,41,40,926,296.0,573,465,60,124.0,141,1,288,202,42,0,0,200,21760,100,296,414.87,,,,,,,,,,,,
156243,1563729409029,-1,2.32,0.81,0.55,1.14,0.92,0.84,0.04,0.43,2,5,0,0.84,5562,0,80,41,40,925,294.0,586,468,60,123.0,141,1,287,202,42,0,0,200,20480,90,294,414.87,45.749947,4.9069,31.03,188.7,0,0.0,-1,0.0,0.0,0,0.44,2.604
156263,1563729409049,1,2.33,0.81,0.55,1.14,0.92,0.92,0.06,0.42,2,3,-0,0.92,5540,0,80,41,40,932,291.0,578,466,60,121.0,141,1,286,204,42,0,0,200,20480,23040,291,414.87,,,,,,,,,,,,
156283,1563729409069,-2,2.32,0.81,0.55,1.14,0.91,0.85,0.0,0.41,2,3,-0,0.85,5511,0,80,41,41,940,290.0,561,465,60,123.0,141,1,288,204,42,0,0,200,0,21760,290,648.46,,,,,,,,,,,,
156303,1563729409089,-2,2.33,0.81,0.55,1.15,0.93,0.91,0.04,0.35,2,2,1,0.91,5463,0,80,41,41,948,289.0,570,463,60,123.0,141,1,285,204,42,0,0,35,0,85,289,414.87,,,,,,,,,,,,
156323,1563729409109,1,2.32,0.81,0.54,1.14,0.92,0.89,0.03,0.34,2,1,1,0.89,5437,0,80,41,42,955,291.0,572,472,60,121.0,145,1,288,205,42,0,0,302,0,0,291,414.87,,,,,,,,,,,,
156343,1563729409129,-1,2.32,0.82,0.55,1.14,0.92,0.77,-0.04,0.44,2,3,-1,0.77,5444,0,80,41,42,970,287.0,564,471,60,123.0,145,1,288,205,42,0,0,230,-16896,0,287,648.46,45.749954,4.906902,29.62,188.5,0,0.0,-1,0.0,0.0,0,0.44,2.6057
156363,1563729409149,2,2.33,0.82,0.54,1.15,0.92,0.89,0.01,0.39,2,2,-1,0.89,5400,0,80,41,42,985,285.0,571,460,60,123.0,145,1,286,205,42,0,0,107,-16896,0,285,414.87,,,,,,,,,,,,
156383,1563729409169,-1,2.32,0.81,0.54,1.15,0.92,0.86,-0.04,0.46,2,4,-1,0.86,5367,0,80,41,43,994,284.0,568,468,60,123.0,145,1,285,207,42,0,0,107,-1529,0,285,882.05,,,,,,,,,,,,
156403,1563729409189,-0,2.33,0.82,0.54,1.15,0.92,0.86,-0.02,0.4,2,0,0,0.86,5337,0,80,41,43,1000,284.0,558,468,60,124.0,145,1,285,207,42,0,0,314,1886,0,284,414.87,,,,,,,,,,,,
156423,1563729409209,-1,2.33,0.81,0.55,1.14,0.92,0.87,-0.02,0.41,1,-1,1,0.87,5328,0,80,41,44,1009,281.0,559,464,60,122.0,148,1,287,208,42,0,0,766,24064,10686,280,882.05,,,,,,,,,,,,
156443,1563729409229,-2,2.32,0.81,0.55,1.14,0.92,0.81,-0.01,0.37,1,1,1,0.81,5295,0,80,41,44,1016,280.0,553,466,60,123.0,148,1,285,208,42,0,0,445,-1534,10686,280,414.87,45.749958,4.906903,29.55,188.5,0,0.0,-1,0.0,0.0,0,0.44,2.6074
156463,1563729409249,0,2.34,0.82,0.55,1.15,0.93,0.87,0.01,0.31,1,-1,1,0.87,5302,0,80,41,45,1018,279.0,559,468,60,122.0,148,1,289,210,42,0,0,748,30208,24064,279,882.05,,,,,,,,,,,,
156483,1563729409269,-1,2.33,0.82,0.55,1.13,0.93,0.81,0.02,0.31,1,0,2,0.81,5310,0,80,41,45,1019,279.0,546,460,60,124.0,148,1,289,210,42,0,0,444,250,250,279,414.87,,,,,,,,,,,,
156503,1563729409291,1,2.32,0.82,0.55,1.13,0.92,0.91,0.04,0.34,1,-2,1,0.92,5252,0,80,41,46,1015,278.0,558,472,60,122.0,148,1,288,212,42,0,0,448,30208,250,278,414.87,,,,,,,,,,,,
156523,1563729409311,-1,2.33,0.82,0.55,1.14,0.92,0.8,-0.01,0.43,2,-0,1,0.8,5192,0,80,41,46,1010,278.0,533,467,60,123.0,147,1,283,212,41,0,0,12202,250,-1534,276,414.87,,,,,,,,,,,,
156543,1563729409331,1,2.33,0.81,0.54,1.14,0.93,0.92,-0.03,0.52,2,-1,-1,0.92,5192,0,80,41,47,1004,276.0,548,461,60,121.0,147,1,287,214,41,0,0,428,28160,250,276,882.05,45.749966,4.906905,28.17,188.6,0,0.0,-1,0.0,0.0,0,0.44,2.6091
156563,1563729409351,-1,2.33,0.82,0.55,1.14,0.93,0.86,0.01,0.47,2,0,0,0.86,5172,0,80,41,47,998,275.0,533,469,60,123.0,147,1,285,214,41,0,0,428,28160,-1534,275,414.87,,,,,,,,,,,,
156583,1563729409371,-2,2.33,0.81,0.55,1.13,0.92,0.85,-0.07,0.6,2,-0,-0,0.85,5155,0,80,41,48,988,273.0,530,467,60,122.0,147,1,287,217,41,0,0,428,28160,-1527,271,882.05,,,,,,,,,,,,
156603,1563729409391,2,2.33,0.81,0.55,1.14,0.93,0.87,-0.01,0.49,2,-1,-0,0.87,5141,0,80,41,48,974,274.0,530,465,60,123.0,147,1,286,217,41,0,0,430,-1,28160,274,414.87,,,,,,,,,,,,
156623,1563729409410,-1,2.34,0.81,0.55,1.14,0.93,0.83,-0.1,0.47,2,-1,-1,0.84,5176,0,80,41,49,965,271.0,535,470,60,123.0,153,1,293,217,42,0,0,449,-1,250,271,648.46,,,,,,,,,,,,
156643,1563729409430,2,2.33,0.81,0.55,1.15,0.92,0.93,-0.02,0.35,2,-1,-1,0.93,5132,0,80,41,49,957,270.0,538,467,60,121.0,153,1,289,220,42,0,0,445,-1,-1527,270,414.87,45.749973,4.906907,28.79,188.7,0,0.0,-1,0.0,0.0,0,0.44,2.6107
156663,1563729409450,-2,2.33,0.82,0.55,1.14,0.93,0.84,-0.07,0.42,2,2,-1,0.84,5107,0,80,41,49,949,269.0,525,468,60,124.0,153,1,287,220,42,0,0,440,-1,-1527,269,414.87,,,,,,,,,,,,
156683,1563729409470,-1,2.33,0.81,0.55,1.14,0.92,0.92,-0.02,0.48,2,0,-1,0.92,5089,0,80,41,49,938,269.0,537,465,60,121.0,153,1,286,223,42,0,0,430,-1,-1527,269,882.05,,,,,,,,,,,,
156703,1563729409490,3,2.32,0.82,0.55,1.15,0.92,0.84,-0.0,0.45,2,-0,0,0.84,5057,0,80,41,50,931,268.0,528,468,60,124.0,153,1,287,223,42,0,0,225,-1,-1281,268,414.87,,,,,,,,,,,,
156723,1563729409510,-3,2.33,0.81,0.55,1.14,0.93,0.81,-0.09,0.52,2,0,0,0.82,5002,0,80,41,50,929,267.0,515,465,60,123.0,157,1,283,222,42,0,0,81,-1,-1281,267,648.46,,,,,,,,,,,,
156743,1563729409530,0,2.32,0.81,0.55,1.14,0.93,0.87,-0.03,0.46,2,-0,-0,0.87,4980,0,80,41,50,925,265.0,522,466,60,122.0,157,1,280,224,42,0,0,216,-1,-1,266,414.87,45.749977,4.906909,30.24,189.1,0,0.0,-1,0.0,0.0,0,0.44,2.6124
156763,1563729409550,2,2.32,0.82,0.55,1.15,0.92,0.86,-0.02,0.4,2,-0,0,0.86,4990,0,80,41,50,922,265.0,520,466,60,123.0,157,1,281,224,42,0,0,436,-1,-1,264,414.87,,,,,,,,,,,,
156783,1563729409570,-2,2.31,0.82,0.55,1.14,0.93,0.85,-0.09,0.43,2,1,1,0.85,4985,0,80,41,52,919,262.0,516,472,60,123.0,157,1,290,224,42,0,0,436,-1,-1,262,648.46,,,,,,,,,,,,
156803,1563729409590,0,2.3,0.82,0.55,1.15,0.92,0.95,-0.02,0.43,1,-1,1,0.95,4966,0,80,41,52,919,262.0,525,464,60,122.0,157,1,287,226,42,0,0,1211,-1,-1,259,882.05,,,,,,,,,,,,
156823,1563729409608,2,2.29,0.82,0.55,1.15,0.93,0.92,0.03,0.39,1,-1,1,0.92,4981,0,80,41,52,918,261.0,514,470,60,123.0,160,1,289,226,42,0,0,1211,-1,-1,259,414.87,,,,,,,,,,,,
156843,1563729409628,-1,2.27,0.82,0.55,1.16,0.92,0.88,0.01,0.5,1,-0,1,0.88,4961,0,80,41,52,916,260.0,510,466,60,123.0,160,1,286,226,42,0,0,93,-1,-1,259,414.87,45.749989,4.90691,29.55,189.2,0,0.0,-1,0.0,0.0,0,0.45,2.614
156863,1563729409648,-0,2.26,0.82,0.55,1.15,0.93,0.95,0.01,0.55,1,-3,0,0.95,4917,0,80,41,52,914,260.0,521,468,60,122.0,160,1,281,226,42,0,0,107,-1,-1,257,882.05,,,,,,,,,,,,
156883,1563729409668,2,2.25,0.82,0.55,1.15,0.93,0.94,0.04,0.41,0,-2,0,0.94,4901,0,80,41,52,913,259.0,512,464,60,122.0,160,1,279,226,42,0,0,426,-41,-1,258,414.87,,,,,,,,,,,,
156903,1563729409688,-2,2.25,0.82,0.55,1.15,0.93,0.85,0.04,0.42,0,1,0,0.85,4886,0,80,41,52,911,258.0,497,468,60,124.0,160,1,278,225,42,0,0,625,-10440,-1,256,414.87,,,,,,,,,,,,
156923,1563729409710,-3,2.25,0.82,0.55,1.14,0.93,0.88,0.04,0.51,-1,-1,-0,0.88,4853,0,80,41,53,910,258.0,507,468,60,124.0,164,1,277,228,42,0,0,203,-10440,14337,253,648.46,,,,,,,,,,,,
156943,1563729409730,-1,2.23,0.82,0.55,1.15,0.93,0.91,-0.0,0.62,-1,-4,-1,0.91,4839,0,80,41,53,908,258.0,503,473,60,123.0,164,1,278,227,42,0,0,146,-10440,14337,253,882.05,45.749992,4.906911,30.83,189.3,0,0.0,-1,0.0,0.0,0,0.45,2.6157
156963,1563729409750,2,2.24,0.82,0.54,1.14,0.93,0.91,0.02,0.47,-1,-3,-0,0.91,4844,0,80,41,53,906,258.0,505,458,60,123.0,164,1,276,227,42,0,0,102,-10440,14337,252,414.87,,,,,,,,,,,,
156983,1563729409770,2,2.23,0.82,0.55,1.14,0.93,0.83,0.03,0.42,-2,-1,1,0.83,4852,0,80,41,53,906,257.0,496,466,60,123.0,164,1,277,228,42,0,0,102,14337,506,251,414.87,,,,,,,,,,,,
157003,1563729409790,-3,2.22,0.82,0.55,1.14,0.93,0.8,0.01,0.45,-2,-1,-1,0.8,4810,0,80,41,53,904,256.0,483,466,60,124.0,164,1,272,227,42,0,0,178,506,506,252,414.87,,,,,,,,,,,,
157023,1563729409808,-2,2.22,0.81,0.55,1.15,0.93,0.84,0.0,0.52,-2,-3,-2,0.84,4832,0,80,41,53,901,256.0,491,465,60,123.0,164,1,274,227,41,0,0,215,506,-1,250,882.05,,,,,,,,,,,,
157043,1563729409828,-1,2.23,0.82,0.55,1.15,0.93,0.89,0.04,0.45,-2,-4,-1,0.89,4800,0,80,41,53,899,254.0,493,465,60,121.0,164,1,270,227,41,0,0,215,-1,-1,247,414.87,45.75,4.906912,31.41,189.6,0,0.0,-1,0.0,0.0,0,0.45,2.6174
157063,1563729409848,2,2.22,0.81,0.55,1.15,0.93,0.88,0.05,0.35,-3,-2,-2,0.88,4762,0,80,41,53,897,253.0,494,464,60,124.0,164,1,265,226,41,0,0,215,-1,-1,249,414.87,,,,,,,,,,,,
157083,1563729409868,2,2.23,0.82,0.55,1.15,0.92,0.88,0.09,0.33,-3,-0,-2,0.88,4760,0,80,41,53,892,253.0,502,463,60,123.0,164,1,265,226,41,0,0,215,-1,10818,246,414.87,,,,,,,,,,,,
157103,1563729409892,-1,2.22,0.82,0.55,1.14,0.93,0.83,0.03,0.4,-3,-1,-3,0.83,4720,0,80,41,53,886,253.0,478,468,60,123.0,164,1,260,226,41,0,0,215,-1,-214,247,414.87,,,,,,,,,,,,
157123,1563729409912,-1,2.23,0.81,0.55,1.15,0.93,0.83,-0.02,0.46,-4,-1,-4,0.83,4720,0,80,41,53,883,251.0,482,464,60,124.0,161,1,260,226,40,0,0,215,-1,-1,245,414.87,,,,,,,,,,,,
157143,1563729409932,-2,2.22,0.81,0.55,1.15,0.92,0.85,0.01,0.44,-4,-1,-4,0.85,4679,0,80,41,53,880,251.0,477,468,60,123.0,161,1,254,225,40,0,0,215,-214,10818,244,414.87,45.750008,4.906917,30.08,190.0,0,0.0,-1,0.0,0.0,0,0.45,2.6191
157163,1563729409952,-2,2.23,0.82,0.55,1.15,0.92,0.88,0.05,0.39,-3,-2,-5,0.88,4689,0,80,41,54,879,251.0,475,466,60,121.0,161,1,261,229,40,0,0,248,-214,-1494,244,882.05,,,,,,,,,,,,
157183,1563729409972,-1,2.22,0.82,0.56,1.14,0.93,0.95,0.12,0.29,-3,-3,-6,0.96,4700,0,80,41,53,877,251.0,487,462,60,122.0,161,1,257,226,40,0,0,249,-214,16896,243,882.05,,,,,,,,,,,,
157203,1563729409992,1,2.22,0.82,0.55,1.15,0.93,0.95,0.14,0.24,-3,-1,-4,0.96,4657,0,80,41,53,878,249.0,478,469,60,123.0,161,1,252,225,40,0,0,250,16896,-1494,244,414.87,,,,,,,,,,,,
157223,1563729410004,1,2.23,0.82,0.56,1.15,0.92,0.87,0.12,0.3,-3,-0,-4,0.88,4666,0,80,41,53,880,249.0,477,469,60,123.0,162,1,253,225,39,0,0,251,16896,10812,240,414.87,,,,,,,,,,,,
157243,1563729410024,1,2.23,0.82,0.55,1.15,0.93,0.79,0.15,0.35,-3,3,-5,0.81,4626,0,80,41,53,884,247.0,473,465,60,123.0,162,1,248,225,39,0,0,250,-1494,10812,240,414.87,45.750011,4.90692,29.8,190.1,0,0.0,-1,0.0,0.0,0,0.45,2.6207
157263,1563729410044,-1,2.22,0.82,0.55,1.15,0.92,0.72,0.08,0.39,-3,6,-6,0.73,4676,0,80,41,54,888,247.0,470,468,60,124.0,162,1,258,225,39,0,0,248,-1494,250,242,414.87,,,,,,,,,,,,
157283,1563729410064,-1,2.23,0.82,0.56,1.15,0.93,0.69,0.06,0.39,-4,5,-6,0.7,4610,0,80,41,53,890,247.0,472,469,60,124.0,162,1,246,225,39,0,0,251,-1494,15360,239,414.87,,,,,,,,,,,,
157303,1563729410109,-2,2.23,0.82,0.55,1.15,0.93,0.7,0.05,0.46,-4,4,-8,0.7,4611,0,80,41,54,892,246.0,468,465,60,123.0,162,1,250,229,39,0,0,249,10812,250,239,414.87,,,,,,,,,,,,
157323,1563729410129,-1,2.23,0.82,0.55,1.15,0.93,0.76,0.05,0.48,-4,3,-8,0.76,4568,0,80,41,53,892,245.0,463,463,60,123.0,158,1,241,224,38,0,0,248,15360,-1445,239,648.46,,,,,,,,,,,,
157343,1563729410149,-2,2.23,0.82,0.55,1.15,0.92,0.82,0.0,0.52,-4,-1,-8,0.82,4557,0,80,41,53,893,245.0,469,464,60,124.0,158,1,239,228,38,0,0,246,250,-17920,236,648.46,45.750019,4.906924,29.36,190.2,0,0.0,-1,0.0,0.0,0,0.45,2.6224
157363,1563729410169,-1,2.22,0.82,0.55,1.14,0.93,0.86,-0.03,0.51,-4,-3,-8,0.86,4567,0,80,41,53,893,243.0,454,466,60,124.0,158,1,241,228,38,0,0,247,-1445,-17920,237,648.46,,,,,,,,,,,,
157383,1563729410189,-2,2.23,0.82,0.56,1.15,0.93,0.88,-0.01,0.46,-4,-4,-7,0.88,4536,0,80,41,53,892,242.0,464,465,60,122.0,158,1,237,224,38,0,0,245,23482,23482,235,648.46,,,,,,,,,,,,
157403,1563729410206,-2,2.22,0.82,0.55,1.15,0.92,0.9,0.02,0.51,-5,-6,-6,0.9,4536,0,80,41,53,890,241.0,452,468,60,123.0,158,1,237,224,38,0,0,244,-17920,250,235,414.87,,,,,,,,,,,,
157423,1563729410226,-2,2.24,0.82,0.55,1.15,0.92,0.94,0.03,0.48,-5,-8,-6,0.94,4546,0,80,41,53,887,240.0,458,463,60,123.0,166,1,238,224,39,0,0,243,250,13468,234,882.05,,,,,,,,,,,,
157443,1563729410246,-2,2.23,0.82,0.55,1.15,0.93,0.99,0.06,0.38,-4,-8,-5,0.99,4542,0,80,41,53,885,241.0,460,462,60,122.0,166,1,238,224,39,0,0,244,-17920,-1484,233,882.05,45.750027,4.906927,27.52,190.2,0,0.0,-1,0.0,0.0,0,0.45,2.6241
157463,1563729410266,-1,2.23,0.81,0.55,1.15,0.93,1.02,0.11,0.28,-4,-7,-4,1.02,4518,0,80,41,53,883,240.0,447,462,60,123.0,166,1,234,224,39,0,0,243,250,-25600,233,648.46,,,,,,,,,,,,
157483,1563729410286,-1,2.23,0.82,0.55,1.15,0.93,1.01,0.1,0.25,-4,-7,-4,1.01,4454,0,80,41,53,881,240.0,455,470,60,123.0,166,1,226,224,39,0,0,242,-1484,-25600,234,882.05,,,,,,,,,,,,
157503,1563729410307,-1,2.23,0.82,0.55,1.15,0.92,1.06,0.07,0.27,-4,-9,-3,1.07,4450,0,80,41,53,878,238.0,442,467,60,124.0,166,1,225,224,39,0,0,241,13468,-25600,229,414.87,,,,,,,,,,,,
157523,1563729410327,-2,2.24,0.82,0.55,1.14,0.93,1.1,0.05,0.25,-4,-10,-3,1.1,4452,0,80,41,53,876,238.0,440,461,60,123.0,164,1,226,224,38,0,0,241,13468,250,231,648.46,,,,,,,,,,,,
157543,1563729410347,-1,2.24,0.82,0.55,1.15,0.93,1.12,0.05,0.28,-4,-9,-2,1.12,4443,0,80,41,53,875,237.0,440,461,60,123.0,164,1,225,224,38,0,0,240,-25600,13602,230,648.46,45.750034,4.90693,26.04,190.3,0,0.0,-1,0.0,0.0,0,0.45,2.6257
157563,1563729410367,-2,2.25,0.82,0.55,1.15,0.92,1.12,0.05,0.33,-4,-11,-2,1.12,4439,0,80,41,53,875,236.0,435,472,60,124.0,164,1,224,224,38,0,0,238,250,250,230,414.87,,,,,,,,,,,,
157583,1563729410387,-2,2.25,0.81,0.55,1.15,0.92,1.13,0.04,0.32,-4,-12,-2,1.13,4434,0,80,41,53,875,235.0,445,466,60,124.0,164,1,223,224,38,0,0,238,-1483,250,229,414.87,,,,,,,,,,,,
157603,1563729410405,-2,2.26,0.82,0.55,1.15,0.93,1.12,0.01,0.38,-4,-12,-3,1.12,4411,0,80,41,53,876,234.0,437,468,60,124.0,164,1,220,224,38,0,0,239,13602,13602,229,414.87,,,,,,,,,,,,
157623,1563729410425,-3,2.27,0.82,0.55,1.14,0.92,1.11,-0.01,0.43,-4,-13,-3,1.11,4422,0,80,41,53,877,233.0,443,470,60,124.0,161,1,222,224,37,0,0,237,8704,8704,229,414.87,,,,,,,,,,,,
157643,1563729410445,-1,2.26,0.82,0.55,1.15,0.92,1.05,-0.04,0.46,-4,-12,-4,1.05,4372,0,80,41,53,879,232.0,440,468,60,124.0,161,1,216,223,37,0,0,235,250,8704,229,181.28,45.750034,4.906933,24.66,190.3,0,0.0,-1,0.0,0.0,0,0.45,2.6274
157663,1563729410465,-0,2.26,0.82,0.53,1.14,0.93,0.98,-0.05,0.55,-4,-12,-5,0.98,4375,0,80,41,53,881,232.0,432,465,60,123.0,161,1,216,223,37,0,0,251,250,-1494,226,414.87,,,,,,,,,,,,
157683,1563729410485,2,2.27,0.82,0.55,1.15,0.93,0.94,-0.08,0.56,-4,-10,-6,0.94,4366,0,80,41,53,883,232.0,434,467,60,123.0,161,1,215,223,37,0,0,251,250,8704,227,414.87,,,,,,,,,,,,
157703,1563729410507,1,2.28,0.82,0.55,1.14,0.93,0.88,-0.06,0.58,-4,-7,-7,0.88,4340,0,80,41,52,884,232.0,431,465,60,122.0,161,1,210,219,37,0,0,251,-1494,250,228,414.87,,,,,,,,,,,,
157723,1563729410527,-2,2.3,0.82,0.55,1.14,0.93,0.89,-0.04,0.56,-3,-4,-7,0.89,4344,0,80,41,53,886,230.0,440,463,60,122.0,159,1,213,223,36,0,0,228,10824,250,226,414.87,,,,,,,,,,,,
157743,1563729410547,-2,2.3,0.82,0.55,1.14,0.93,0.91,0.0,0.47,-3,-2,-6,0.91,4336,0,80,41,53,888,228.0,434,466,60,122.0,159,1,212,223,36,0,0,229,250,250,226,882.05,45.750042,4.906935,23.97,190.4,0,0.0,-1,0.0,0.0,0,0.45,2.629
157763,1563729410567,-2,2.3,0.82,0.55,1.15,0.92,0.94,0.07,0.38,-2,-1,-5,0.94,4314,0,81,41,53,890,227.0,435,467,60,124.0,159,1,209,223,36,0,0,231,-1496,10824,227,882.05,,,,,,,,,,,,
157783,1563729410587,-2,2.31,0.81,0.55,1.15,0.92,0.97,0.12,0.37,-2,-2,-3,0.98,4328,0,80,41,53,891,228.0,437,467,60,122.0,159,1,210,223,36,0,0,230,-1496,10824,227,648.46,,,,,,,,,,,,
157803,1563729410603,-2,2.31,0.82,0.55,1.14,0.92,1.0,0.03,0.45,-1,-5,-3,1.0,4322,0,81,41,53,892,226.0,421,468,60,123.0,159,1,210,223,36,0,0,230,10318,10824,225,414.87,,,,,,,,,,,,
157823,1563729410623,0,2.32,0.82,0.55,1.15,0.92,0.93,-0.04,0.45,-1,-5,-4,0.93,4285,0,81,41,53,895,226.0,425,463,60,123.0,160,1,205,222,36,0,0,229,19968,-1494,226,414.87,,,,,,,,,,,,
157843,1563729410643,1,2.33,0.82,0.55,1.15,0.92,0.87,-0.08,0.48,-1,-4,-4,0.88,4292,0,80,41,53,897,225.0,424,468,60,123.0,160,1,206,222,36,0,0,229,19968,10824,224,414.87,45.75005,4.906937,23.52,190.4,0,0.0,-1,0.0,0.0,0,0.45,2.6307
157863,1563729410663,-1,2.34,0.82,0.54,1.15,0.93,0.83,-0.08,0.49,-1,-1,-4,0.84,4255,0,80,41,53,898,225.0,438,460,60,122.0,160,1,201,222,36,0,0,229,-1530,18432,225,414.87,,,,,,,,,,,,
157883,1563729410683,-1,2.34,0.82,0.56,1.15,0.93,0.82,-0.06,0.47,-1,0,-4,0.82,4260,0,80,41,53,900,226.0,429,466,60,121.0,160,1,202,222,36,0,0,227,1596,18432,226,414.87,,,,,,,,,,,,
157903,1563729410703,-2,2.35,0.82,0.55,1.15,0.93,0.85,0.03,0.46,-1,-0,-2,0.85,4246,0,80,41,53,903,224.0,425,470,60,122.0,160,1,198,222,36,0,0,225,1596,18432,224,882.05,,,,,,,,,,,,
157923,1563729410723,-1,2.35,0.82,0.55,1.15,0.93,0.91,0.05,0.5,-0,-2,-1,0.91,4224,0,81,41,53,906,224.0,416,470,60,124.0,156,1,197,222,35,0,0,226,15360,10318,224,414.87,,,,,,,,,,,,
157943,1563729410743,-1,2.35,0.82,0.55,1.16,0.93,0.88,-0.05,0.58,-0,-5,0,0.88,4246,0,80,41,53,909,224.0,417,467,60,124.0,156,1,200,222,35,0,0,226,15360,18432,224,414.87,45.750053,4.906939,22.76,190.4,0,0.0,-1,0.0,0.0,0,0.45,2.6324
157963,1563729410763,1,2.35,0.82,0.55,1.15,0.93,0.83,-0.11,0.62,0,-4,-1,0.83,4188,0,80,41,53,911,223.0,419,465,60,122.0,156,1,192,221,35,0,0,224,15360,-1496,223,414.87,,,,,,,,,,,,
157983,1563729410783,-2,2.36,0.82,0.55,1.15,0.94,0.81,-0.11,0.61,0,-1,-1,0.82,4214,0,80,41,53,915,223.0,420,465,60,122.0,156,1,196,222,35,0,0,224,250,10318,223,414.87,,,,,,,,,,,,
158003,1563729410799,-1,2.36,0.82,0.55,1.16,0.93,0.88,-0.06,0.58,1,-1,-0,0.88,4207,0,80,41,54,918,222.0,415,471,60,123.0,156,1,197,225,35,0,0,224,-1532,250,222,648.46,,,,,,,,,,,,
158023,1563729410819,-2,2.37,0.82,0.55,1.15,0.93,0.95,-0.04,0.54,2,-3,1,0.95,4190,0,81,41,54,920,223.0,406,466,60,123.0,156,1,194,221,35,0,0,223,1210,10318,223,648.46,,,,,,,,,,,,
158043,1563729410839,-1,2.36,0.82,0.55,1.15,0.93,0.92,-0.12,0.63,2,-5,2,0.93,4185,0,81,41,54,921,220.0,420,465,60,124.0,156,1,194,221,35,0,0,222,1210,250,220,414.87,45.750057,4.90694,22.47,190.4,0,0.0,-1,0.0,0.0,0,0.45,2.634
158063,1563729410859,0,2.37,0.82,0.55,1.14,0.93,0.88,-0.17,0.65,1,-3,1,0.89,4195,0,81,41,53,921,219.0,411,466,60,123.0,156,1,193,221,35,0,0,220,250,250,219,414.87,,,,,,,,,,,,
158083,1563729410879,-1,2.36,0.82,0.55,1.15,0.93,0.86,-0.17,0.6,1,-1,1,0.88,4197,0,81,41,53,922,220.0,415,467,60,122.0,156,1,193,221,35,0,0,220,-1532,19968,220,882.05,,,,,,,,,,,,
158103,1563729410897,-2,2.37,0.82,0.55,1.15,0.93,0.9,-0.14,0.59,2,-1,2,0.91,4175,0,81,41,53,922,219.0,410,470,60,123.0,156,1,190,221,35,0,0,220,-1532,250,219,882.05,,,,,,,,,,,,
158123,1563729410917,-2,2.37,0.83,0.55,1.15,0.93,0.94,-0.13,0.63,2,-5,3,0.95,4151,0,81,41,54,921,220.0,411,467,60,124.0,154,1,189,224,34,0,0,220,250,19968,220,414.87,,,,,,,,,,,,
158143,1563729410937,3,2.37,0.83,0.55,1.16,0.93,0.87,-0.17,0.63,2,-3,3,0.89,4145,0,81,41,54,923,220.0,407,466,60,123.0,154,1,188,220,34,0,0,214,1088,-1530,220,414.87,45.750065,4.906942,23.04,190.4,0,0.0,-1,0.0,0.0,0,0.46,2.6357
158163,1563729410957,0,2.37,0.82,0.55,1.15,0.93,0.85,-0.15,0.58,2,-1,3,0.86,4158,0,81,41,54,925,219.0,407,466,60,123.0,154,1,190,221,34,0,0,216,1088,250,219,414.87,,,,,,,,,,,,
158183,1563729410977,-1,2.37,0.82,0.55,1.16,0.92,0.87,-0.08,0.52,2,-2,4,0.87,4117,0,81,41,54,928,220.0,415,468,60,122.0,154,1,185,224,34,0,0,219,16384,1596,217,882.05,,,,,,,,,,,,
158203,1563729410991,-2,2.38,0.82,0.55,1.15,0.93,0.91,-0.09,0.53,2,-4,4,0.92,4118,0,81,41,54,931,218.0,402,465,60,124.0,154,1,185,224,34,0,0,217,16384,-1530,218,414.87,,,,,,,,,,,,
158223,1563729411011,2,2.37,0.82,0.55,1.15,0.93,0.86,-0.19,0.61,2,-4,4,0.88,4101,0,81,41,54,935,216.0,402,466,60,124.0,155,1,183,224,34,0,0,217,1088,15360,216,414.87,,,,,,,,,,,,
158243,1563729411031,-2,2.38,0.82,0.55,1.15,0.92,0.8,-0.16,0.57,3,-1,2,0.82,4104,0,81,41,54,939,219.0,403,465,60,123.0,155,1,183,224,34,0,0,217,16384,15360,218,414.87,45.750072,4.906942,23.54,190.4,0,0.0,-1,0.0,0.0,0,0.46,2.6374
158263,1563729411051,-2,2.37,0.82,0.55,1.15,0.92,0.83,-0.11,0.52,3,-2,2,0.84,4124,0,81,41,54,943,217.0,411,466,60,123.0,155,1,183,224,34,0,0,36,16384,250,217,648.46,,,,,,,,,,,,
158283,1563729411071,-3,2.38,0.82,0.54,1.15,0.93,0.9,-0.07,0.52,4,-4,3,0.91,4101,0,81,41,54,945,217.0,398,465,60,124.0,155,1,183,224,34,0,0,655,250,250,217,414.87,,,,,,,,,,,,
158303,1563729411091,2,2.37,0.83,0.55,1.16,0.93,0.85,-0.13,0.56,4,-3,3,0.86,4068,0,81,41,54,948,218.0,407,465,60,124.0,155,1,178,224,34,0,0,655,-1533,1596,217,414.87,,,,,,,,,,,,
158323,1563729411111,-2,2.38,0.82,0.55,1.15,0.93,0.85,-0.08,0.51,3,-1,3,0.85,4067,0,81,41,54,952,217.0,405,465,60,121.0,156,1,178,224,34,0,0,655,-1533,15360,217,414.87,,,,,,,,,,,,
158343,1563729411131,-1,2.39,0.82,0.55,1.15,0.93,0.87,-0.08,0.5,3,-3,3,0.88,4073,0,81,41,54,955,214.0,396,465,60,123.0,156,1,179,224,34,0,0,655,966,250,214,414.87,45.750076,4.906944,23.63,190.5,0,0.0,-1,0.0,0.0,0,0.46,2.639
158363,1563729411151,3,2.38,0.82,0.55,1.16,0.93,0.86,-0.11,0.52,4,-3,3,0.87,4064,0,81,41,54,956,216.0,394,465,60,123.0,156,1,178,224,34,0,0,28,-1533,15360,215,414.87,,,,,,,,,,,,
158383,1563729411171,0,2.37,0.83,0.55,1.16,0.92,0.83,-0.11,0.55,4,-1,2,0.84,4060,0,81,41,54,959,216.0,408,465,60,121.0,156,1,177,224,34,0,0,211,966,15360,216,414.87,,,,,,,,,,,,
158403,1563729411191,-3,2.38,0.83,0.55,1.15,0.94,0.86,-0.05,0.53,4,-1,3,0.86,4061,0,81,41,54,964,215.0,405,466,60,122.0,156,1,177,224,34,0,0,214,966,250,215,882.05,,,,,,,,,,,,
158423,1563729411211,-1,2.37,0.82,0.55,1.16,0.93,0.9,-0.05,0.59,4,-3,4,0.9,4035,0,81,41,54,968,215.0,392,465,60,124.0,158,1,174,224,34,0,0,213,250,-1532,215,414.87,,,,,,,,,,,,
158443,1563729411231,1,2.38,0.83,0.55,1.15,0.93,0.85,-0.09,0.66,4,-2,3,0.85,4020,0,81,41,54,971,215.0,403,465,60,124.0,158,1,172,224,34,0,0,213,-14848,-1532,215,414.87,45.75008,4.906946,23.66,190.6,0,0.0,-1,0.0,0.0,0,0.46,2.6407
158463,1563729411251,-2,2.38,0.82,0.55,1.15,0.93,0.84,-0.06,0.64,4,-3,3,0.85,4029,0,81,41,54,974,214.0,398,468,60,122.0,158,1,173,224,34,0,0,213,250,-1532,214,882.05,,,,,,,,,,,,
158483,1563729411271,-1,2.37,0.8,0.54,1.16,0.93,0.89,-0.02,0.65,4,-4,4,0.9,4004,0,81,41,54,976,213.0,393,466,60,124.0,158,1,170,224,34,0,0,213,-14848,-17920,213,414.87,,,,,,,,,,,,
158503,1563729411291,1,2.38,0.83,0.55,1.14,0.93,0.86,-0.05,0.63,4,-4,3,0.86,4001,0,81,41,54,977,212.0,392,465,60,124.0,158,1,170,224,34,0,0,213,-1482,-1532,212,414.87,,,,,,,,,,,,
158523,1563729411310,-2,2.39,0.82,0.55,1.15,0.93,0.86,-0.01,0.59,4,-3,3,0.86,4041,0,81,41,54,976,211.0,397,467,60,122.0,159,1,175,224,34,0,0,213,250,-1532,211,882.05,,,,,,,,,,,,
158543,1563729411330,-2,2.39,0.82,0.56,1.15,0.93,0.89,-0.01,0.58,4,-3,4,0.89,4021,0,81,41,54,975,212.0,388,463,60,124.0,159,1,172,224,34,0,0,204,13964,-17920,212,414.87,45.750088,4.90695,26.52,190.6,0,0.0,-1,0.0,0.0,0,0.46,2.6424
158563,1563729411350,1,2.38,0.83,0.55,1.16,0.93,0.87,-0.04,0.56,4,-3,4,0.87,3994,0,81,41,54,973,211.0,397,465,60,124.0,159,1,169,223,34,0,0,208,13964,250,211,414.87,,,,,,,,,,,,
158583,1563729411370,-2,2.39,0.83,0.55,1.16,0.93,0.87,-0.02,0.54,4,-3,4,0.87,4014,0,81,41,54,972,211.0,392,470,60,121.0,159,1,171,224,34,0,0,282,-29696,250,211,181.28,,,,,,,,,,,,
158603,1563729411392,-1,2.38,0.82,0.55,1.16,0.93,0.9,-0.01,0.58,5,-4,4,0.9,3993,0,81,41,55,972,210.0,396,468,60,124.0,159,1,169,223,34,0,0,282,13964,-1532,210,414.87,,,,,,,,,,,,
158623,1563729411412,1,2.39,0.83,0.55,1.16,0.93,0.88,-0.02,0.59,4,-4,4,0.88,3972,0,81,41,54,971,210.0,388,463,60,123.0,161,1,168,223,34,0,0,282,-29696,-17920,210,414.87,,,,,,,,,,,,
158643,1563729411432,-1,2.38,0.82,0.55,1.15,0.93,0.89,-0.0,0.55,4,-2,4,0.89,4007,0,81,41,54,970,210.0,397,469,60,121.0,161,1,170,224,34,0,0,282,13964,16384,210,414.87,45.750092,4.906953,26.63,190.6,0,0.0,-1,0.0,0.0,0,0.46,2.6441
158663,1563729411452,-1,2.37,0.82,0.55,1.16,0.92,0.92,0.03,0.53,5,-4,5,0.92,3980,0,81,41,54,968,211.0,391,467,60,123.0,161,1,169,223,34,0,0,34,-29696,250,211,414.87,,,,,,,,,,,,
158683,1563729411472,1,2.37,0.83,0.55,1.16,0.93,0.89,-0.03,0.61,5,-4,4,0.89,3944,0,81,41,54,966,211.0,388,463,60,123.0,161,1,167,222,34,0,0,34,250,1088,211,414.87,,,,,,,,,,,,
158703,1563729411494,-2,2.37,0.82,0.55,1.16,0.93,0.9,-0.01,0.52,5,-2,4,0.9,3978,0,81,41,55,964,211.0,394,471,60,122.0,161,1,169,227,34,0,0,34,250,1088,211,882.05,,,,,,,,,,,,
158723,1563729411514,-2,2.37,0.83,0.55,1.16,0.94,0.94,-0.01,0.52,4,-4,6,0.94,3963,0,81,41,55,960,210.0,391,465,60,124.0,157,1,168,226,33,0,0,34,250,16384,210,414.87,,,,,,,,,,,,
158743,1563729411534,-0,2.37,0.82,0.56,1.15,0.93,0.89,-0.02,0.47,5,-4,5,0.89,3946,0,81,41,54,956,208.0,387,463,60,124.0,157,1,167,222,33,0,0,29,-1482,16384,208,414.87,45.750095,4.906957,26.36,190.4,0,0.0,-1,0.0,0.0,0,0.46,2.6457
158763,1563729411554,-1,2.36,0.82,0.56,1.15,0.94,0.91,0.02,0.44,5,-4,4,0.91,3978,0,81,41,55,954,207.0,400,470,60,123.0,157,1,168,227,33,0,0,202,250,1088,207,882.05,,,,,,,,,,,,
158783,1563729411574,-1,2.35,0.83,0.56,1.15,0.93,0.91,-0.01,0.5,4,-6,5,0.91,3944,0,81,41,55,952,207.0,385,463,60,124.0,157,1,167,226,33,0,0,258,250,-1533,207,414.87,,,,,,,,,,,,
158803,1563729411598,-1,2.34,0.82,0.55,1.16,0.93,0.85,-0.01,0.51,4,-3,4,0.85,3940,0,81,41,54,953,207.0,393,466,60,121.0,157,1,167,226,33,0,0,258,13874,-1533,207,414.87,,,,,,,,,,,,
158823,1563729411618,-1,2.35,0.83,0.55,1.15,0.93,0.89,0.03,0.5,4,-4,5,0.89,3975,0,81,41,55,955,207.0,399,473,60,123.0,159,1,168,227,33,0,0,258,250,-1533,207,648.46,,,,,,,,,,,,
158843,1563729411638,2,2.34,0.82,0.55,1.16,0.93,0.88,-0.01,0.56,4,-4,5,0.88,3949,0,81,41,55,958,207.0,384,460,60,123.0,159,1,167,226,33,0,0,258,-29696,250,207,414.87,45.750103,4.90696,24.82,190.2,0,0.0,-1,0.0,0.0,0,0.46,2.6474
158863,1563729411658,-2,2.34,0.82,0.56,1.15,0.93,0.85,0.03,0.49,3,-0,4,0.85,3915,0,81,41,55,961,209.0,393,467,60,122.0,159,1,166,225,33,0,0,258,-29696,250,209,414.87,,,,,,,,,,,,
158883,1563729411678,-2,2.34,0.82,0.56,1.15,0.93,0.87,0.0,0.5,3,-3,5,0.87,3935,0,81,41,55,967,208.0,380,463,60,124.0,159,1,167,226,33,0,0,25,250,-1533,208,414.87,,,,,,,,,,,,
158903,1563729411701,1,2.33,0.83,0.55,1.15,0.94,0.87,-0.01,0.49,3,-2,4,0.88,3897,0,81,41,55,971,207.0,384,460,60,124.0,159,1,165,224,33,0,0,205,-1482,16384,205,414.87,,,,,,,,,,,,
158923,1563729411721,-2,2.33,0.82,0.55,1.15,0.93,0.87,0.02,0.45,3,-2,4,0.87,3917,0,81,41,55,974,207.0,384,468,60,122.0,159,1,166,225,33,0,0,243,-1482,-14848,207,882.05,,,,,,,,,,,,
158943,1563729411741,2,2.33,0.83,0.55,1.16,0.93,0.87,-0.01,0.5,3,-3,5,0.87,3925,0,81,41,55,976,205.0,383,462,60,124.0,159,1,167,225,33,0,0,84,-29696,-14848,205,414.87,45.750107,4.906963,23.99,190.0,0,0.0,-1,0.0,0.0,0,0.46,2.649
158963,1563729411761,-2,2.32,0.82,0.55,1.15,0.92,0.82,0.01,0.48,3,-1,4,0.82,3877,0,81,40,55,977,205.0,388,462,60,122.0,159,1,165,224,33,0,0,84,13874,966,205,414.87,,,,,,,,,,,,
158983,1563729411781,-1,2.32,0.82,0.55,1.15,0.93,0.81,-0.02,0.52,3,-2,3,0.81,3907,0,81,40,55,979,205.0,379,468,60,124.0,159,1,166,225,33,0,0,84,13874,-14848,205,414.87,,,,,,,,,,,,
159003,1563729411804,-0,2.31,0.82,0.55,1.15,0.93,0.8,-0.04,0.48,3,-2,2,0.8,3949,0,81,40,55,978,204.0,383,460,60,123.0,159,1,167,226,33,0,0,84,12800,250,204,414.87,,,,,,,,,,,,
159023,1563729411824,-2,2.31,0.82,0.55,1.16,0.93,0.79,-0.01,0.41,3,-0,2,0.79,3886,0,81,40,55,978,203.0,383,471,60,123.0,163,1,165,224,33,0,0,37,13874,-1482,203,882.05,,,,,,,,,,,,
159043,1563729411844,2,2.29,0.83,0.55,1.16,0.93,0.83,-0.03,0.51,2,-4,3,0.83,3890,0,81,40,55,976,202.0,376,468,60,124.0,163,1,165,224,33,0,0,37,12800,250,203,414.87,45.750114,4.906965,22.29,190.0,0,0.0,-1,0.0,0.0,0,0.46,2.6507
159063,1563729411864,-1,2.29,0.83,0.55,1.16,0.93,0.79,-0.01,0.48,2,-1,3,0.79,3913,0,81,40,55,974,204.0,390,469,60,122.0,163,1,166,225,33,0,0,37,250,250,204,882.05,,,,,,,,,,,,
159083,1563729411884,-1,2.28,0.82,0.55,1.16,0.93,0.82,0.0,0.52,2,-2,3,0.82,3872,0,81,40,55,972,204.0,375,470,60,123.0,163,1,164,224,33,0,0,34,250,250,203,414.87,,,,,,,,,,,,
159103,1563729411906,1,2.29,0.83,0.55,1.15,0.93,0.81,0.01,0.53,1,-1,2,0.81,3851,0,81,40,55,970,204.0,386,461,60,124.0,163,1,164,224,33,0,0,204,250,250,203,414.87,,,,,,,,,,,,
159123,1563729411926,-2,2.29,0.83,0.55,1.16,0.93,0.83,0.04,0.49,1,0,1,0.83,3879,0,81,40,55,965,204.0,376,473,60,123.0,157,1,165,229,32,0,0,230,250,250,203,882.05,,,,,,,,,,,,
159143,1563729411946,2,2.28,0.82,0.55,1.15,0.92,0.87,0.03,0.51,1,-1,1,0.87,3829,0,81,40,55,959,203.0,380,465,60,123.0,157,1,163,224,32,0,0,230,-1482,-29696,202,414.87,45.750114,4.906967,21.29,190.0,0,0.0,-1,0.0,0.0,0,0.46,2.6524
159163,1563729411966,-1,2.28,0.83,0.55,1.15,0.93,0.87,0.03,0.51,0,0,1,0.87,3790,0,81,40,56,953,203.0,374,472,60,123.0,157,1,161,227,32,0,0,230,-1482,-1482,200,1115.64,,,,,,,,,,,,
159183,1563729411986,2,2.28,0.82,0.55,1.16,0.93,0.88,0.04,0.57,-0,-3,1,0.88,3835,0,81,40,56,948,203.0,375,462,60,124.0,157,1,163,228,32,0,0,230,-1482,-1482,200,181.28,,,,,,,,,,,,
159203,1563729412006,-1,2.27,0.83,0.55,1.16,0.93,0.84,0.06,0.53,-0,-2,-1,0.84,3787,0,81,40,56,942,203.0,374,463,60,121.0,157,1,161,227,32,0,0,230,-1482,-29696,197,414.87,,,,,,,,,,,,
159223,1563729412004,2,2.26,0.82,0.55,1.15,0.93,0.87,0.05,0.54,-1,-5,-1,0.87,3759,0,81,40,56,936,201.0,374,462,60,124.0,161,1,160,227,32,0,0,230,12800,-29696,198,181.28,,,,,,,,,,,,
159243,1563729412024,-1,2.25,0.82,0.55,1.16,0.93,0.83,0.05,0.52,-1,-3,-2,0.83,3838,0,81,40,56,931,202.0,373,467,60,122.0,161,1,163,228,32,0,0,364,12800,-1482,198,414.87,45.750122,4.906968,21.02,190.0,0,0.0,-1,0.0,0.0,0,0.46,2.654
159263,1563729412044,-1,2.25,0.83,0.55,1.15,0.93,0.84,0.04,0.55,-1,-5,-1,0.84,3797,0,81,40,57,929,201.0,381,470,60,124.0,161,1,162,232,32,0,0,278,12800,13874,198,414.87,,,,,,,,,,,,
159283,1563729412064,-2,2.25,0.82,0.55,1.15,0.93,0.8,0.05,0.54,-1,-3,-2,0.8,3793,0,81,40,57,926,200.0,371,463,60,121.0,161,1,162,232,32,0,0,278,250,13874,198,414.87,,,,,,,,,,,,
159303,1563729412108,-4,2.24,0.82,0.55,1.15,0.92,0.8,0.05,0.52,-1,-3,-2,0.8,3853,0,81,40,57,922,201.0,378,471,60,124.0,161,1,165,234,32,0,0,278,12800,13874,198,414.87,,,,,,,,,,,,
159323,1563729412128,-0,2.24,0.82,0.56,1.15,0.93,0.78,0.03,0.47,-1,-2,-2,0.78,3807,0,81,40,57,919,201.0,375,463,60,122.0,166,1,163,233,33,0,0,47,12800,12800,198,181.28,,,,,,,,,,,,
159343,1563729412148,-2,2.24,0.83,0.56,1.15,0.93,0.78,0.02,0.43,-1,0,-3,0.78,3787,0,81,40,57,918,202.0,378,473,60,122.0,166,1,162,232,33,0,0,47,13874,250,197,648.46,45.750126,4.906969,20.26,190.0,0,0.0,-1,0.0,0.0,0,0.46,2.6557
159363,1563729412168,1,2.24,0.82,0.55,1.15,0.94,0.8,-0.01,0.51,-2,1,-3,0.8,3839,0,81,40,57,916,203.0,372,462,60,124.0,166,1,164,233,33,0,0,47,-1482,12800,197,181.28,,,,,,,,,,,,
159383,1563729412188,-2,2.24,0.83,0.55,1.16,0.93,0.82,0.03,0.48,-2,1,-4,0.82,3777,0,81,40,57,916,202.0,388,473,60,122.0,166,1,161,232,33,0,0,47,13874,12800,196,882.05,,,,,,,,,,,,
159403,1563729412192,2,2.24,0.82,0.55,1.16,0.93,0.87,0.03,0.49,-2,0,-4,0.87,3813,0,81,40,57,915,202.0,367,458,60,124.0,166,1,163,233,33,0,0,27,13874,12800,196,414.87,,,,,,,,,,,,
159423,1563729412212,-1,2.23,0.82,0.55,1.15,0.94,0.87,0.05,0.5,-2,1,-5,0.87,3841,0,81,40,57,915,201.0,392,465,60,122.0,175,1,164,233,34,0,0,218,250,12800,194,1115.64,,,,,,,,,,,,
159443,1563729412232,3,2.23,0.82,0.55,1.16,0.93,0.92,0.05,0.51,-2,-2,-4,0.92,3776,0,81,40,57,915,200.0,367,462,60,123.0,175,1,161,232,34,0,0,218,250,14412,195,414.87,45.750134,4.90697,20.25,189.9,0,0.0,-1,0.0,0.0,0,0.46,2.6574
159463,1563729412252,-1,2.23,0.83,0.56,1.16,0.93,0.89,0.06,0.52,-3,-1,-5,0.89,3815,0,81,40,57,915,200.0,380,468,60,122.0,175,1,163,233,34,0,0,218,14412,12800,194,882.05,,,,,,,,,,,,
159483,1563729412272,-2,2.23,0.82,0.55,1.15,0.93,0.92,0.05,0.55,-3,-4,-4,0.92,3858,0,81,40,57,915,200.0,369,465,60,123.0,175,1,165,234,34,0,0,54,250,-1480,194,414.87,,,,,,,,,,,,
159503,1563729412293,-2,2.24,0.82,0.55,1.15,0.93,0.85,0.06,0.53,-3,-2,-5,0.85,3777,0,81,40,57,915,199.0,381,461,60,123.0,175,1,161,232,34,0,0,54,-1480,-1480,192,414.87,,,,,,,,,,,,
159523,1563729412313,-3,2.24,0.82,0.55,1.16,0.94,0.87,0.05,0.56,-3,-4,-4,0.87,3781,0,81,40,57,915,199.0,365,468,60,123.0,170,1,162,232,33,0,0,54,-1480,14412,193,414.87,,,,,,,,,,,,
159543,1563729412333,-1,2.24,0.83,0.55,1.16,0.93,0.83,0.04,0.53,-3,-3,-5,0.83,3832,0,81,40,57,917,199.0,385,461,60,122.0,170,1,164,233,33,0,0,54,-1480,-1480,194,414.87,45.750134,4.906971,19.71,189.8,0,0.0,-1,0.0,0.0,0,0.46,2.659
