"Interval"|"ms"|0|0|1,"Utc"|"ms"|0|0|1,"FB_p"|"bar"|0|300|50,"Volant"|"F"|0.0|300.0|50,"xFR"|"mm"|0.0|5.0|50,"xRR"|"mm"|0.0|5.0|50,"xFL"|"mm"|0.0|5.0|50,"xRL"|"mm"|0.0|5.0|50,"AccelX"|"G"|-3.0|3.0|50,"AccelY"|"G"|-3.0|3.0|50,"AccelZ"|"G"|-3.0|3.0|50,"Yaw"|"Deg/Sec"|-120|120|50,"Pitch"|"Deg/Sec"|-120|120|50,"Roll"|"Deg/Sec"|-120|120|50,"Gsum"|"G"|0.0|3.0|50,"RPM"|""|0|14000|50,"TPS"|"%"|0|100|50,"WaterTemp"|"?C"|0|300|50,"AirTemp"|"?C"|-1000|1000|50,"MAP"|"KPa"|0|255|50,"Lambda"|""|0|1024|50,"WheelSpeed"|"MPH"|0.0|150.0|50,"OilPress"|"PSI"|0|150|50,"FuelPress"|"PSI"|0|150|50,"OilTemp"|"F"|0|300|50,"Battery"|"Volts"|0.0|20.0|50,"FuelCon"|"L/h"|-1000|1000|50,"Gear"|""|0|10|50,"Advance"|"Deg"|-360|360|50,"Injection"|"ms"|-1000|1000|50,"FuelCon"|"L/100km"|-1000|1000|50,"LC_But_Pres"|""|-1000|1000|50,"LC_Active"|""|-1000|1000|50,"RD_Speed"|""|-1000|1000|50,"RUD_Speed"|""|-1000|1000|50,"LD_Speed"|""|-1000|1000|50,"LUD_Speed"|""|-1000|1000|50,"Ana1"|"bar"|-1000.0|1000.0|50,"Latitude"|"Degrees"|-180.0|180.0|10,"Longitude"|"Degrees"|-180.0|180.0|10,"Speed"|"kph"|0.0|150.0|10,"Altitude"|"m"|0.0|4000.0|10,"LapCount"|""|0|0|10,"LapTime"|"Min"|0.0|0.0|10,"Sector"|""|0|0|10,"SectorTime"|"Min"|0.0|0.0|10,"ElapsedTime"|"Min"|0.0|0.0|10,"CurrentLap"|""|0|0|10,"Distance"|"km"|0.0|0.0|10,"SessionTime"|"Min"|0.0|0.0|10
69964,1563729586322,16,2.31,0.8,0.55,1.1,0.9,1.13,0.29,0.07,1,0,0,1.17,9765,7,82,40,27,987,871.0,669,468,60,122.0,83,1,278,189,73,0,0,6364,-23308,-2574,872,882.05,,,,,,,,,,,,
69984,1563729586342,14,2.31,0.8,0.55,1.1,0.91,1.18,0.17,-0.01,1,1,2,1.19,9740,7,82,40,27,1000,861.0,671,465,60,123.0,83,1,278,189,73,0,0,367,-11019,-2574,855,648.46,,,,,,,,,,,,
70004,1563729586362,15,2.31,0.8,0.55,1.1,0.9,1.26,0.16,-0.08,1,1,0,1.27,9704,7,82,40,27,1012,858.0,673,476,60,123.0,81,1,278,189,69,0,0,88,-2311,-1578,851,882.05,,,,,,,,,,,,
70024,1563729586382,16,2.3,0.8,0.55,1.1,0.9,1.33,0.07,-0.2,0,-0,1,1.34,9640,7,82,40,26,1022,853.0,671,468,60,122.0,81,1,274,186,69,0,0,1856,-31066,-2570,846,414.87,,,,,,,,,,,,
70044,1563729586404,16,2.3,0.79,0.55,1.11,0.9,1.31,0.07,-0.18,1,1,1,1.31,9640,7,82,40,26,1037,851.0,672,467,60,122.0,81,1,274,186,69,0,0,1856,13049,-10508,834,882.05,45.749084,4.906718,92.67,184.2,0,0.0,-1,0.0,0.0,0,0.14,1.1674
70064,1563729586424,17,2.3,0.8,0.55,1.11,0.9,1.26,0.03,-0.25,0,2,0,1.26,9620,7,82,40,26,1059,844.0,673,471,60,121.0,81,1,274,186,69,0,0,79,-31066,-3450,847,414.87,,,,,,,,,,,,
70084,1563729586444,13,2.29,0.8,0.55,1.1,0.9,1.13,0.14,-0.19,0,0,1,1.14,9532,7,82,40,26,1078,837.0,668,465,60,123.0,81,1,274,186,69,0,0,127,-4096,-31066,833,648.46,,,,,,,,,,,,
70104,1563729586464,15,2.31,0.8,0.55,1.1,0.9,1.22,0.12,-0.23,-0,-0,-1,1.23,9469,7,82,40,26,1091,833.0,663,468,60,123.0,79,1,274,186,66,0,0,823,-22796,-3344,829,882.05,,,,,,,,,,,,
70124,1563729586484,16,2.29,0.81,0.55,1.1,0.9,1.3,0.07,-0.18,-1,-2,0,1.3,9384,7,82,40,26,1108,832.0,662,473,60,122.0,79,1,274,186,66,0,0,823,-13068,-2830,826,882.05,,,,,,,,,,,,
70144,1563729586504,17,2.3,0.8,0.56,1.11,0.9,1.1,0.14,-0.17,-1,-1,-1,1.11,9319,7,82,40,26,1139,828.0,661,465,60,123.0,79,1,274,185,66,0,0,62,-2830,-31066,818,414.87,45.749107,4.906723,89.22,184.2,0,0.0,-1,0.0,0.0,0,0.15,1.1691
70164,1563729586524,12,2.3,0.8,0.54,1.1,0.91,1.09,0.16,-0.18,-1,-1,-2,1.1,9300,7,82,40,26,1168,820.0,666,465,60,123.0,79,1,274,185,66,0,0,279,-3344,-2826,813,648.46,,,,,,,,,,,,
70184,1563729586544,15,2.3,0.8,0.54,1.1,0.91,1.18,0.02,-0.17,-1,-1,1,1.18,9272,7,82,41,25,1187,819.0,662,466,60,123.0,79,1,270,185,66,0,0,279,-13580,-2826,808,648.46,,,,,,,,,,,,
70204,1563729586564,14,2.31,0.8,0.55,1.1,0.91,1.25,-0.0,-0.21,-1,1,-1,1.25,9245,7,82,41,25,1209,811.0,665,472,60,122.0,80,1,270,185,65,0,0,1803,-2830,-13312,811,882.05,,,,,,,,,,,,
70224,1563729586584,16,2.31,0.8,0.55,1.11,0.91,1.29,0.01,-0.08,-1,-0,-0,1.29,9204,7,82,41,25,1241,808.0,663,465,60,122.0,80,1,270,185,65,0,0,257,-31068,-13580,800,1115.64,,,,,,,,,,,,
70244,1563729586604,14,2.32,0.8,0.56,1.1,0.9,1.15,0.01,-0.05,-1,0,-1,1.15,9159,7,82,41,25,1272,798.0,662,466,60,123.0,80,1,270,185,65,0,0,89,6905,-2830,796,414.87,45.74913,4.906728,86.54,184.1,0,0.0,-1,0.0,0.0,0,0.15,1.1707
70264,1563729586624,15,2.32,0.8,0.55,1.1,0.9,1.05,0.08,-0.04,-1,-1,0,1.05,9097,7,82,41,26,1284,795.0,658,461,60,122.0,80,1,274,185,65,0,0,450,5344,-2826,793,414.87,,,,,,,,,,,,
70284,1563729586644,15,2.32,0.8,0.55,1.1,0.91,0.98,0.09,-0.0,-1,-0,-1,0.98,9053,7,82,41,26,1294,794.0,660,465,60,123.0,80,1,274,185,65,0,0,882,5344,204,789,414.87,,,,,,,,,,,,
70304,1563729586664,15,2.32,0.8,0.55,1.1,0.91,0.9,0.15,-0.05,-0,2,-1,0.91,8954,7,82,41,26,1288,789.0,660,472,60,123.0,79,1,274,185,63,0,0,3939,5876,6905,791,414.87,,,,,,,,,,,,
70324,1563729586684,14,2.32,0.8,0.55,1.1,0.9,0.88,0.14,0.01,-1,1,-1,0.89,8890,7,82,41,26,1282,784.0,660,462,60,122.0,79,1,274,185,63,0,0,3939,-2826,-2540,781,414.87,,,,,,,,,,,,
70344,1563729586702,15,2.32,0.81,0.55,1.11,0.9,0.89,0.17,-0.0,-1,1,-1,0.9,8844,7,82,41,27,1264,779.0,656,465,60,122.0,79,1,278,185,63,0,0,65,5876,-10218,777,414.87,45.749149,4.906732,83.62,184.0,0,0.0,-1,0.0,0.0,0,0.15,1.1724
70364,1563729586722,14,2.32,0.8,0.55,1.1,0.91,0.94,0.15,-0.02,-1,2,-3,0.96,8802,7,82,41,27,1246,778.0,658,466,60,123.0,79,1,278,185,63,0,0,429,-3450,-22795,779,882.05,,,,,,,,,,,,
70384,1563729586742,14,2.31,0.8,0.55,1.11,0.91,1.05,0.08,0.0,-1,2,0,1.05,8733,7,82,41,27,1201,770.0,655,468,60,123.0,79,1,278,185,63,0,0,107,-10214,-23308,770,648.46,,,,,,,,,,,,
70404,1563729586762,12,2.32,0.8,0.55,1.1,0.91,1.06,0.06,-0.08,-1,1,-1,1.06,8716,7,82,41,27,1155,764.0,651,467,60,123.0,79,1,278,185,61,0,0,210,-10216,-2826,762,882.05,,,,,,,,,,,,
70424,1563729586782,15,2.31,0.8,0.55,1.1,0.91,1.08,0.04,-0.04,-0,2,0,1.08,8688,7,82,41,27,1126,764.0,659,461,60,122.0,79,1,278,185,61,0,0,233,-10216,-3368,759,414.87,,,,,,,,,,,,
70444,1563729586803,16,2.3,0.8,0.55,1.11,0.91,1.08,0.09,0.03,-0,1,1,1.08,8644,7,82,41,28,1098,763.0,655,462,60,123.0,79,1,282,185,61,0,0,233,5876,-10214,763,414.87,45.749168,4.906736,81.17,184.0,0,0.0,-1,0.0,0.0,0,0.15,1.1741
70464,1563729586823,14,2.3,0.8,0.55,1.11,0.91,1.03,0.09,0.05,0,2,1,1.03,8589,7,82,41,28,1067,750.0,660,466,60,123.0,79,1,282,185,61,0,0,64,-3344,5876,750,1115.64,,,,,,,,,,,,
70484,1563729586843,13,2.31,0.8,0.55,1.11,0.91,1.05,0.07,0.07,-0,2,1,1.05,8557,7,82,41,28,1035,748.0,641,472,60,123.0,79,1,282,185,61,0,0,188,-4096,-3344,747,882.05,,,,,,,,,,,,
70504,1563729586863,14,2.31,0.8,0.55,1.1,0.91,1.07,0.05,0.09,-0,-0,1,1.07,8491,7,82,41,28,1024,747.0,652,464,60,123.0,79,1,282,184,59,0,0,252,-2826,-2574,746,414.87,,,,,,,,,,,,
70524,1563729586883,12,2.31,0.8,0.55,1.1,0.9,1.05,0.02,0.15,-0,0,2,1.05,8449,7,82,41,28,1020,744.0,653,461,60,122.0,79,1,282,181,59,0,0,240,-31066,136,742,882.05,,,,,,,,,,,,
70544,1563729586905,12,2.31,0.8,0.55,1.11,0.91,1.01,0.07,0.08,0,2,0,1.01,8400,7,82,41,28,1014,736.0,653,468,60,123.0,79,1,282,179,59,0,0,314,3462,-3344,736,648.46,45.749188,4.90674,79.81,183.9,0,0.0,-1,0.0,0.0,0,0.15,1.1757
70564,1563729586925,14,2.31,0.79,0.55,1.11,0.91,1.0,0.06,0.02,0,3,2,1.01,8359,7,82,41,28,1007,735.0,651,467,60,122.0,79,1,281,177,59,0,0,440,-22796,-31066,730,414.87,,,,,,,,,,,,
70584,1563729586945,11,2.31,0.81,0.55,1.1,0.9,1.03,0.07,0.05,-0,3,1,1.03,8366,7,82,41,28,1003,728.0,647,466,60,123.0,79,1,281,177,59,0,0,696,-3344,-13068,730,882.05,,,,,,,,,,,,
70604,1563729586965,12,2.31,0.8,0.56,1.1,0.91,1.06,0.08,0.01,-1,1,1,1.06,8311,7,82,41,27,1000,726.0,648,468,60,123.0,75,1,277,175,55,0,0,151,-13580,-13068,726,414.87,,,,,,,,,,,,
70624,1563729586985,11,2.31,0.8,0.55,1.11,0.91,1.04,0.09,0.0,-0,2,2,1.05,8259,7,82,41,27,996,720.0,644,468,60,124.0,75,1,277,172,55,0,0,2138,-2830,-2826,719,648.46,,,,,,,,,,,,
70644,1563729586995,13,2.3,0.81,0.56,1.1,0.91,1.03,0.12,-0.07,-0,2,1,1.04,8205,7,82,42,27,991,715.0,651,465,60,123.0,75,1,276,169,55,0,0,2709,-13312,-2314,715,414.87,45.749207,4.906744,76.37,184.0,0,0.0,-1,0.0,0.0,0,0.16,1.1774
70664,1563729587015,11,2.3,0.81,0.55,1.1,0.9,1.05,0.1,-0.04,0,3,2,1.06,8198,7,82,42,27,987,715.0,649,466,60,123.0,75,1,276,168,55,0,0,10819,-2560,-388,711,882.05,,,,,,,,,,,,
70684,1563729587035,10,2.3,0.8,0.55,1.1,0.91,1.11,0.09,-0.03,-0,3,1,1.12,8148,7,82,42,26,985,713.0,645,467,60,122.0,75,1,273,165,55,0,0,8155,6658,-31068,713,882.05,,,,,,,,,,,,
70704,1563729587055,10,2.29,0.81,0.55,1.11,0.91,1.1,0.1,-0.04,-0,4,0,1.1,8081,7,82,42,26,982,708.0,642,470,60,123.0,69,1,273,161,49,0,0,349,687,-30694,708,648.46,,,,,,,,,,,,
70724,1563729587075,10,2.3,0.81,0.55,1.11,0.91,1.14,0.06,0.03,-0,3,1,1.14,8029,7,82,42,26,976,702.0,654,468,60,122.0,69,1,272,158,49,0,0,1396,8010,-12152,701,882.05,,,,,,,,,,,,
70744,1563729587103,12,2.3,0.8,0.55,1.11,0.91,1.13,0.07,0.1,-1,2,0,1.13,8009,7,82,42,26,972,702.0,647,465,60,122.0,69,1,272,157,49,0,0,232,8010,6658,698,414.87,45.749226,4.906748,74.16,184.0,0,0.0,-1,0.0,0.0,0,0.16,1.1791
70764,1563729587123,8,2.3,0.8,0.55,1.1,0.91,1.08,0.05,0.01,-1,4,-1,1.08,7971,7,82,42,26,969,701.0,647,466,60,123.0,69,1,272,157,49,0,0,265,24,687,693,648.46,,,,,,,,,,,,
70784,1563729587143,9,2.29,0.8,0.55,1.1,0.9,1.16,-0.0,0.06,-1,3,-0,1.16,7938,7,82,42,26,961,693.0,654,468,60,122.0,69,1,272,157,49,0,0,6033,11576,-3584,690,882.05,,,,,,,,,,,,
70804,1563729587163,12,2.29,0.8,0.55,1.11,0.91,1.17,0.03,0.05,-1,1,-1,1.17,7928,7,82,42,26,950,689.0,644,468,60,123.0,67,1,272,157,47,0,0,768,-3584,24,681,414.87,,,,,,,,,,,,
70824,1563729587183,12,2.29,0.8,0.55,1.1,0.9,1.11,0.06,-0.08,-1,1,-1,1.11,7874,7,82,42,26,940,689.0,647,466,60,123.0,67,1,271,157,47,0,0,1099,6208,14342,686,414.87,,,,,,,,,,,,
70844,1563729587203,8,2.3,0.8,0.55,1.1,0.9,1.12,-0.02,0.02,-1,2,0,1.12,7858,7,82,42,27,931,683.0,635,466,60,123.0,67,1,274,157,47,0,0,1624,3543,-3584,680,882.05,45.749245,4.906753,71.65,184.0,0,0.0,-1,0.0,0.0,0,0.16,1.1807
70864,1563729587223,11,2.3,0.81,0.55,1.1,0.91,1.21,-0.05,0.14,-1,1,-0,1.21,7819,7,82,42,27,923,681.0,638,469,60,122.0,67,1,274,157,47,0,0,2695,-26562,1780,679,882.05,,,,,,,,,,,,
70884,1563729587243,10,2.29,0.8,0.55,1.1,0.9,1.27,-0.04,0.21,-1,-3,-1,1.27,7722,7,82,42,26,914,675.0,641,467,60,122.0,67,1,270,157,47,0,0,1192,-2345,-2830,673,414.87,,,,,,,,,,,,
70904,1563729587263,10,2.3,0.8,0.55,1.1,0.92,1.16,-0.02,0.12,-2,-3,-1,1.16,7709,7,82,42,26,906,678.0,637,466,60,123.0,67,1,270,158,45,0,0,137,-2826,-2345,668,414.87,,,,,,,,,,,,
70924,1563729587283,12,2.3,0.8,0.55,1.1,0.91,1.06,0.05,0.04,-1,-2,-0,1.06,7684,7,82,42,27,905,668.0,634,468,60,124.0,67,1,272,158,45,0,0,125,-3038,-10346,665,414.87,,,,,,,,,,,,
70944,1563729587305,12,2.3,0.81,0.56,1.1,0.91,0.99,0.09,-0.01,-1,-1,1,0.99,7687,7,82,42,27,905,668.0,637,470,60,123.0,67,1,272,158,45,0,0,207,-2830,-2345,667,648.46,45.74926,4.906757,70.04,183.9,0,0.0,-1,0.0,0.0,0,0.16,1.1824
70964,1563729587325,12,2.3,0.8,0.55,1.11,0.91,0.94,0.08,0.03,-1,1,1,0.94,7615,7,82,42,27,904,662.0,635,467,60,123.0,67,1,272,158,45,0,0,20543,-2826,3543,662,648.46,,,,,,,,,,,,
70984,1563729587345,8,2.3,0.81,0.55,1.11,0.91,0.9,0.02,0.11,-0,3,2,0.9,7597,7,82,42,27,904,660.0,637,468,60,123.0,67,1,272,158,45,0,0,2592,-10344,-2830,657,648.46,,,,,,,,,,,,
71004,1563729587365,4,2.31,0.8,0.56,1.11,0.9,0.96,-0.07,0.29,-0,5,1,0.97,7569,7,82,42,27,905,663.0,630,463,60,123.0,68,1,272,158,45,0,0,477,-27404,-388,662,882.05,,,,,,,,,,,,
71024,1563729587385,4,2.3,0.8,0.55,1.11,0.9,1.04,-0.1,0.36,-0,5,0,1.04,7563,7,82,42,28,905,660.0,640,466,60,123.0,68,1,275,160,45,0,0,14490,-10344,-2830,659,882.05,,,,,,,,,,,,
71044,1563729587405,4,2.3,0.81,0.55,1.11,0.91,1.13,-0.18,0.4,-0,6,-1,1.15,7512,7,83,42,27,903,659.0,618,468,60,124.0,68,1,272,158,45,0,0,957,-26380,3543,657,882.05,45.749279,4.906761,68.12,183.9,0,0.0,-1,0.0,0.0,0,0.16,1.1841
71064,1563729587425,3,2.3,0.81,0.55,1.11,0.91,1.22,-0.25,0.45,-0,5,-0,1.25,7533,7,83,42,28,901,654.0,635,467,60,122.0,68,1,275,160,45,0,0,2547,-2830,-3578,650,882.05,,,,,,,,,,,,
71084,1563729587445,2,2.29,0.8,0.55,1.11,0.91,1.3,-0.26,0.59,-0,4,-0,1.33,7503,7,83,42,28,899,655.0,629,467,60,122.0,68,1,275,160,45,0,0,6906,31988,-27404,651,882.05,,,,,,,,,,,,
71104,1563729587465,-1,2.3,0.81,0.55,1.11,0.92,1.38,-0.32,0.64,-1,3,-1,1.41,7494,7,83,42,28,896,651.0,637,467,60,123.0,69,1,275,160,45,0,0,6906,-3488,-2826,649,882.05,,,,,,,,,,,,
71124,1563729587485,0,2.31,0.81,0.55,1.11,0.91,1.44,-0.33,0.65,-1,5,-2,1.48,7482,7,83,42,28,893,650.0,628,463,60,122.0,69,1,275,160,45,0,0,302,-8429,-26380,649,882.05,,,,,,,,,,,,
71144,1563729587505,-1,2.31,0.81,0.55,1.11,0.92,1.5,-0.38,0.64,-1,5,-1,1.55,7455,7,83,42,28,891,649.0,630,467,60,123.0,69,1,275,160,45,0,0,555,479,31988,645,882.05,45.749298,4.906765,66.48,183.9,0,0.0,-1,0.0,0.0,0,0.17,1.1857
71164,1563729587525,0,2.3,0.8,0.55,1.11,0.91,1.53,-0.41,0.72,-1,5,-1,1.58,7413,7,83,42,28,891,648.0,628,463,60,123.0,69,1,275,160,45,0,0,307,4909,-10344,648,882.05,,,,,,,,,,,,
71184,1563729587545,3,2.29,0.81,0.55,1.11,0.91,1.51,-0.44,0.75,-1,3,-2,1.57,7428,7,82,42,29,892,647.0,633,465,60,123.0,69,1,278,160,45,0,0,593,11566,-2830,645,648.46,,,,,,,,,,,,
71204,1563729587565,1,2.31,0.81,0.55,1.1,0.91,1.49,-0.46,0.76,-1,5,-2,1.56,7399,7,82,42,29,897,645.0,625,466,60,123.0,68,1,278,160,44,0,0,299,11566,-2830,645,648.46,,,,,,,,,,,,
71224,1563729587585,2,2.3,0.8,0.56,1.1,0.91,1.37,-0.47,0.78,-0,7,-0,1.45,7408,7,83,42,28,902,648.0,632,466,60,123.0,68,1,275,160,44,0,0,159,11776,24583,648,648.46,,,,,,,,,,,,
71244,1563729587605,0,2.31,0.8,0.55,1.1,0.92,1.21,-0.45,0.74,0,9,1,1.29,7341,7,83,42,29,907,644.0,636,471,60,122.0,68,1,278,161,44,0,0,800,6208,31988,644,414.87,45.749317,4.906769,65.58,183.9,0,0.0,-1,0.0,0.0,0,0.17,1.1874
71264,1563729587625,1,2.31,0.81,0.55,1.1,0.91,1.03,-0.33,0.67,1,10,0,1.09,7390,7,82,42,29,912,643.0,638,467,60,124.0,68,1,278,161,44,0,0,669,-3584,-2830,643,414.87,,,,,,,,,,,,
71284,1563729587645,0,2.31,0.81,0.55,1.1,0.91,0.87,-0.22,0.53,1,10,0,0.9,7364,7,83,42,29,916,642.0,634,467,60,123.0,68,1,278,161,44,0,0,589,-2830,31988,641,414.87,,,,,,,,,,,,
71304,1563729587665,-0,2.32,0.81,0.56,1.1,0.92,0.77,-0.09,0.45,1,7,0,0.77,7378,7,83,42,29,921,641.0,638,468,60,122.0,70,1,278,161,45,0,0,239,16599,-3488,641,414.87,,,,,,,,,,,,
71324,1563729587685,0,2.3,0.81,0.55,1.11,0.92,0.8,0.01,0.43,1,4,1,0.8,7352,7,82,42,29,921,641.0,644,466,60,121.0,70,1,278,161,45,0,0,102,-10251,-6006,641,414.87,,,,,,,,,,,,
71344,1563729587705,-1,2.31,0.81,0.55,1.11,0.91,0.86,0.01,0.45,0,1,-0,0.86,7338,7,83,42,30,920,634.0,629,465,60,123.0,70,1,282,161,45,0,0,190,-2836,-3488,639,882.05,45.749332,4.906773,65.02,183.9,0,0.0,-1,0.0,0.0,0,0.17,1.1891
71364,1563729587725,-2,2.32,0.8,0.55,1.1,0.92,0.97,-0.02,0.5,0,0,-1,0.97,7318,7,83,42,29,919,637.0,630,466,60,122.0,70,1,278,161,45,0,0,235,-10251,-30207,638,882.05,,,,,,,,,,,,
71384,1563729587745,-2,2.31,0.81,0.56,1.1,0.91,1.08,-0.1,0.53,-0,-1,-1,1.08,7287,7,83,42,30,917,636.0,625,466,60,123.0,70,1,282,161,45,0,0,548,-5120,11776,635,882.05,,,,,,,,,,,,
71404,1563729587765,2,2.32,0.81,0.56,1.1,0.92,1.08,-0.18,0.56,0,-1,0,1.09,7307,7,83,42,30,916,634.0,630,468,60,123.0,69,1,282,161,44,0,0,160,771,16599,632,648.46,,,,,,,,,,,,
71424,1563729587785,2,2.31,0.81,0.56,1.11,0.92,1.0,-0.23,0.56,1,1,1,1.02,7261,7,83,42,30,915,632.0,628,467,60,123.0,69,1,282,163,44,0,0,160,771,11566,634,648.46,,,,,,,,,,,,
71444,1563729587804,1,2.31,0.81,0.56,1.11,0.92,0.81,-0.16,0.5,1,3,0,0.83,7290,7,83,42,30,915,632.0,636,471,60,122.0,69,1,282,163,44,0,0,953,-14655,4909,632,414.87,45.749348,4.906777,63.96,183.9,0,0.0,-1,0.0,0.0,0,0.17,1.1907
71464,1563729587824,-0,2.32,0.81,0.56,1.11,0.92,0.74,-0.06,0.36,1,4,-0,0.75,7244,7,83,42,30,915,633.0,639,468,60,122.0,69,1,282,163,44,0,0,210,-5120,24,632,414.87,,,,,,,,,,,,
71484,1563729587844,-0,2.31,0.81,0.56,1.11,0.91,0.86,-0.01,0.38,1,-1,0,0.86,7253,7,83,42,30,916,630.0,636,467,60,122.0,69,1,282,163,44,0,0,2999,-16046,244,630,882.05,,,,,,,,,,,,
71504,1563729587864,-1,2.3,0.82,0.56,1.11,0.92,0.98,-0.03,0.46,0,-3,0,0.98,7253,7,83,42,30,917,630.0,637,470,60,123.0,69,1,282,163,44,0,0,712,966,-3584,629,882.05,,,,,,,,,,,,
71524,1563729587884,1,2.31,0.81,0.56,1.12,0.91,1.08,-0.13,0.56,-0,-3,1,1.09,7211,7,83,42,30,919,628.0,626,465,60,123.0,69,1,282,163,44,0,0,207,-1346,3,628,648.46,,,,,,,,,,,,
71544,1563729587904,2,2.31,0.81,0.56,1.1,0.93,1.02,-0.12,0.52,0,-1,1,1.03,7208,7,83,42,31,921,627.0,632,471,60,124.0,69,1,286,163,44,0,0,599,-1346,24,626,414.87,45.749363,4.906781,63.67,183.9,0,0.0,-1,0.0,0.0,0,0.17,1.1924
71564,1563729587924,1,2.3,0.82,0.56,1.12,0.92,0.87,-0.05,0.4,1,1,-0,0.88,7194,7,83,42,31,922,625.0,641,468,60,122.0,69,1,285,164,44,0,0,551,-1346,6208,625,414.87,,,,,,,,,,,,
71584,1563729587944,-0,2.3,0.82,0.56,1.12,0.92,0.87,-0.0,0.36,1,0,0,0.87,7214,7,83,42,31,923,625.0,627,467,60,122.0,69,1,286,164,44,0,0,300,3395,-2830,625,882.05,,,,,,,,,,,,
71604,1563729587964,-2,2.31,0.81,0.56,1.12,0.92,0.99,-0.07,0.39,0,-2,0,0.99,7181,7,83,42,31,925,625.0,636,472,60,122.0,70,1,285,164,44,0,0,70,3395,-10251,625,882.05,,,,,,,,,,,,
71624,1563729587984,3,2.3,0.81,0.56,1.12,0.91,1.05,-0.16,0.48,-0,-2,0,1.06,7153,7,83,42,31,927,626.0,620,466,60,123.0,70,1,285,164,44,0,0,434,-18357,-16883,620,648.46,,,,,,,,,,,,
71644,1563729587996,1,2.31,0.81,0.56,1.11,0.92,0.97,-0.13,0.43,0,1,0,0.98,7159,7,83,42,31,929,622.0,629,469,60,124.0,70,1,285,164,44,0,0,150,19320,-2836,621,414.87,45.749382,4.906785,63.22,183.9,0,0.0,-1,0.0,0.0,0,0.18,1.1941
71664,1563729588016,-1,2.31,0.81,0.56,1.12,0.91,0.93,-0.06,0.33,1,2,-1,0.93,7134,7,83,42,31,931,620.0,630,468,60,122.0,70,1,285,164,44,0,0,3663,30721,3,619,414.87,,,,,,,,,,,,
71684,1563729588036,-2,2.31,0.81,0.56,1.11,0.93,1.02,-0.03,0.3,-0,-1,1,1.02,7129,7,83,42,31,932,620.0,630,469,60,122.0,70,1,285,164,44,0,0,177,269,-14655,620,882.05,,,,,,,,,,,,
71704,1563729588056,2,2.3,0.82,0.56,1.12,0.92,1.1,-0.08,0.4,-0,-2,1,1.11,7140,7,83,42,31,933,621.0,626,471,60,124.0,70,1,285,164,44,0,0,149,3403,-16883,621,414.87,,,,,,,,,,,,
71724,1563729588076,1,2.3,0.82,0.56,1.12,0.92,1.04,-0.1,0.4,-0,-1,2,1.05,7113,7,83,42,31,933,616.0,622,466,60,124.0,70,1,285,164,44,0,0,149,16529,-16046,619,414.87,,,,,,,,,,,,
71744,1563729588106,0,2.31,0.81,0.56,1.11,0.92,0.94,-0.02,0.37,0,-0,1,0.94,7107,7,83,42,31,933,617.0,632,472,60,123.0,70,1,285,166,44,0,0,208,26688,-14655,617,414.87,45.749397,4.906788,62.2,183.8,0,0.0,-1,0.0,0.0,0,0.18,1.1957
71764,1563729588126,-2,2.31,0.82,0.56,1.11,0.93,1.02,-0.0,0.4,-0,-2,0,1.02,7075,7,83,43,32,932,615.0,635,470,60,123.0,70,1,290,166,44,0,0,154,-28304,19304,615,882.05,,,,,,,,,,,,
71784,1563729588146,3,2.31,0.81,0.56,1.11,0.92,1.11,-0.06,0.41,-1,-1,1,1.11,7080,7,83,43,31,930,614.0,623,466,60,124.0,70,1,285,164,44,0,0,154,-28304,-18357,614,648.46,,,,,,,,,,,,
71804,1563729588166,1,2.3,0.82,0.56,1.11,0.92,0.99,-0.02,0.33,-0,-1,2,0.99,7056,7,83,42,32,928,617.0,628,471,60,122.0,71,1,290,166,44,0,0,154,1010,17336,613,414.87,,,,,,,,,,,,
71824,1563729588186,-2,2.32,0.81,0.55,1.11,0.92,0.96,0.04,0.33,-1,-2,3,0.97,7046,7,83,43,32,928,612.0,636,469,60,121.0,71,1,290,166,44,0,0,1116,-3446,-18357,611,882.05,,,,,,,,,,,,
71844,1563729588204,-1,2.31,0.81,0.55,1.11,0.92,1.04,0.0,0.43,-1,-4,2,1.04,7035,7,83,42,32,927,612.0,623,463,60,124.0,71,1,290,166,44,0,0,410,-3446,17336,612,648.46,45.749416,4.906792,61.8,183.8,0,0.0,-1,0.0,0.0,0,0.18,1.1974
71864,1563729588224,-0,2.32,0.81,0.56,1.11,0.92,0.99,-0.02,0.47,-0,-3,2,1.0,7038,7,83,42,32,927,610.0,620,469,60,124.0,71,1,290,166,44,0,0,1462,-30139,-18357,610,414.87,,,,,,,,,,,,
71884,1563729588244,-2,2.31,0.82,0.55,1.12,0.92,0.89,0.05,0.33,0,-0,2,0.9,7022,7,83,43,32,927,609.0,636,466,60,121.0,71,1,290,166,44,0,0,7619,19621,-16046,611,414.87,,,,,,,,,,,,
71904,1563729588264,-1,2.3,0.81,0.56,1.12,0.92,1.0,-0.0,0.42,-1,-1,2,1.0,7001,7,83,43,32,928,609.0,622,467,60,123.0,72,1,290,166,44,0,0,1393,-30139,30721,609,882.05,,,,,,,,,,,,
71924,1563729588284,2,2.3,0.82,0.56,1.11,0.93,1.01,-0.03,0.44,-0,-2,2,1.01,7017,7,83,43,32,930,608.0,623,470,60,124.0,72,1,290,166,44,0,0,402,-23055,-1346,608,414.87,,,,,,,,,,,,
71944,1563729588304,-1,2.3,0.81,0.56,1.11,0.92,0.94,0.03,0.38,-0,-1,2,0.94,6996,7,83,42,32,933,609.0,635,471,60,122.0,72,1,290,166,44,0,0,123,-23055,30721,606,414.87,45.749432,4.906796,61.99,183.8,0,0.0,-1,0.0,0.0,0,0.18,1.1991
71964,1563729588324,-0,2.3,0.82,0.56,1.12,0.92,0.99,0.03,0.48,-1,-1,2,0.99,6972,7,83,43,32,936,605.0,611,466,60,124.0,72,1,290,166,44,0,0,171,-3820,30721,605,648.46,,,,,,,,,,,,
71984,1563729588344,1,2.31,0.82,0.56,1.12,0.92,1.03,-0.02,0.53,-1,-1,2,1.03,6972,7,83,43,32,938,607.0,620,466,60,123.0,72,1,290,166,44,0,0,557,-768,30721,607,414.87,,,,,,,,,,,,
72004,1563729588364,0,2.3,0.82,0.56,1.12,0.92,0.96,0.04,0.36,-0,-0,1,0.96,6957,7,83,43,33,940,603.0,630,469,60,122.0,74,1,292,171,45,0,0,239,-768,17336,604,414.87,,,,,,,,,,,,
72024,1563729588384,3,2.29,0.82,0.56,1.12,0.92,1.02,0.02,0.38,-1,-2,1,1.02,6939,7,83,43,33,942,600.0,618,465,60,123.0,74,1,292,166,45,0,0,714,30227,19621,600,648.46,,,,,,,,,,,,
72044,1563729588406,4,2.29,0.81,0.56,1.12,0.92,0.96,0.01,0.35,-0,-2,2,0.96,6929,7,83,43,32,945,600.0,622,468,60,123.0,74,1,290,171,45,0,0,245,243,-3446,598,414.87,45.749447,4.9068,61.41,183.8,0,0.0,-1,0.0,0.0,0,0.18,1.2007
72064,1563729588426,-0,2.31,0.81,0.56,1.12,0.91,0.95,0.03,0.3,-0,-2,2,0.95,6898,7,83,43,33,945,599.0,627,472,60,123.0,74,1,292,171,45,0,0,281,4956,19621,599,882.05,,,,,,,,,,,,
72084,1563729588446,4,2.31,0.81,0.56,1.12,0.92,0.98,-0.07,0.44,-1,-1,2,0.98,6853,7,83,43,33,946,598.0,608,467,60,124.0,74,1,292,171,45,0,0,1288,-16179,-23055,598,648.46,,,,,,,,,,,,
72104,1563729588466,1,2.31,0.81,0.56,1.11,0.92,0.9,-0.02,0.38,-0,2,1,0.91,6865,7,83,43,33,945,597.0,618,468,60,122.0,73,1,292,171,44,0,0,389,23619,28675,596,414.87,,,,,,,,,,,,
72124,1563729588486,7,2.3,0.82,0.56,1.11,0.92,0.96,-0.06,0.54,-0,-0,-0,0.96,6865,7,83,43,33,943,591.0,613,470,60,124.0,73,1,292,171,44,0,0,389,2048,-7939,591,414.87,,,,,,,,,,,,
72144,1563729588506,5,2.3,0.82,0.56,1.12,0.92,0.96,-0.01,0.39,-0,2,0,0.96,6825,7,83,43,34,941,592.0,634,471,60,121.0,73,1,295,176,44,0,0,1280,6273,-7939,590,882.05,45.749462,4.906804,60.89,183.9,0,0.0,-1,0.0,0.0,0,0.18,1.2024
72164,1563729588526,4,2.3,0.82,0.56,1.11,0.92,0.99,0.01,0.38,-0,1,-0,0.99,6830,7,83,43,34,940,590.0,623,468,60,123.0,73,1,295,176,44,0,0,242,-32504,-3820,590,882.05,,,,,,,,,,,,
72184,1563729588546,5,2.31,0.81,0.56,1.11,0.92,1.0,-0.01,0.37,-0,1,1,1.0,6791,7,83,43,34,935,588.0,622,472,60,123.0,73,1,295,176,44,0,0,1176,-12040,30227,588,414.87,,,,,,,,,,,,
72204,1563729588566,5,2.3,0.82,0.56,1.11,0.93,1.0,-0.01,0.38,-0,1,1,1.0,6749,7,83,43,34,931,584.0,628,470,60,123.0,76,1,295,176,45,0,0,390,-4035,17344,582,882.05,,,,,,,,,,,,
72224,1563729588586,6,2.3,0.82,0.56,1.11,0.92,1.02,-0.03,0.39,-0,-1,-0,1.02,6720,7,83,43,34,927,583.0,627,466,60,122.0,76,1,295,176,45,0,0,307,-16384,3472,578,414.87,,,,,,,,,,,,
72244,1563729588606,3,2.3,0.81,0.56,1.11,0.93,1.02,0.05,0.38,0,-0,0,1.03,6696,7,83,43,34,925,582.0,603,467,60,123.0,76,1,295,176,45,0,0,354,8488,17344,581,882.05,45.749477,4.906808,60.23,183.9,0,0.0,-1,0.0,0.0,0,0.19,1.2041
72264,1563729588626,5,2.3,0.81,0.56,1.11,0.92,1.08,0.04,0.46,-0,-2,1,1.08,6694,7,83,43,35,922,580.0,618,473,60,122.0,76,1,298,182,45,0,0,175,-16384,-32504,578,414.87,,,,,,,,,,,,
72284,1563729588646,7,2.3,0.81,0.56,1.11,0.92,1.0,0.05,0.46,-0,-2,0,1.01,6696,7,83,43,35,918,578.0,607,469,60,123.0,76,1,298,182,45,0,0,142,-3210,208,577,414.87,,,,,,,,,,,,
72304,1563729588666,5,2.29,0.81,0.56,1.12,0.92,0.98,0.02,0.35,0,1,-1,0.98,6637,7,83,43,35,917,574.0,612,465,60,122.0,79,1,298,182,46,0,0,142,774,-32504,575,414.87,,,,,,,,,,,,
72324,1563729588686,7,2.29,0.82,0.56,1.12,0.92,0.97,0.04,0.37,-0,1,-0,0.97,6609,7,83,43,35,916,575.0,601,467,60,123.0,79,1,298,182,46,0,0,142,774,-1894,575,648.46,,,,,,,,,,,,
72344,1563729588706,4,2.29,0.81,0.56,1.11,0.92,1.0,0.05,0.28,-1,-0,-0,1.0,6604,7,83,43,35,914,572.0,610,472,60,122.0,79,1,298,182,46,0,0,38,-8188,-4035,572,882.05,45.749493,4.906812,59.14,184.0,0,0.0,-1,0.0,0.0,0,0.19,1.2057
72364,1563729588726,3,2.27,0.81,0.54,1.1,0.92,1.01,0.04,0.33,-1,-0,0,1.01,6592,7,83,43,35,911,574.0,605,467,60,123.0,79,1,298,182,46,0,0,125,774,10432,570,414.87,,,,,,,,,,,,
72384,1563729588746,7,2.29,0.82,0.56,1.12,0.92,1.0,0.05,0.37,-1,-0,0,1.0,6574,7,83,43,36,909,573.0,615,467,60,123.0,79,1,301,182,46,0,0,242,1760,-1894,569,648.46,,,,,,,,,,,,
72404,1563729588766,4,2.27,0.81,0.56,1.12,0.92,1.07,0.08,0.37,-1,-1,-1,1.07,6546,7,83,43,36,907,570.0,616,472,60,122.0,80,1,301,187,46,0,0,242,-3190,30208,566,414.87,,,,,,,,,,,,
72424,1563729588786,7,2.28,0.81,0.56,1.12,0.92,1.01,0.02,0.44,-2,-1,-1,1.01,6535,7,83,43,36,903,565.0,602,465,60,124.0,80,1,301,187,46,0,0,882,2211,1,562,414.87,,,,,,,,,,,,
72444,1563729588803,4,2.27,0.82,0.56,1.11,0.92,0.98,0.04,0.35,-1,0,-1,0.98,6521,7,83,43,36,900,565.0,603,472,60,123.0,80,1,301,187,46,0,0,594,-30159,10432,561,882.05,45.749508,4.906816,58.4,184.1,0,0.0,-1,0.0,0.0,0,0.19,1.2074
72464,1563729588823,5,2.28,0.81,0.55,1.11,0.92,1.07,-0.0,0.42,-2,-2,-1,1.07,6510,7,83,43,36,896,566.0,618,468,60,123.0,80,1,301,187,46,0,0,594,12552,1267,560,414.87,,,,,,,,,,,,
72484,1563729588843,6,2.28,0.81,0.56,1.12,0.92,1.0,0.01,0.5,-2,-2,-2,1.0,6487,7,83,43,36,895,563.0,600,467,60,123.0,80,1,301,187,46,0,0,842,2211,1,558,414.87,,,,,,,,,,,,
72504,1563729588863,8,2.28,0.81,0.55,1.11,0.93,0.98,0.04,0.38,-2,0,-2,0.98,6463,7,83,43,37,892,560.0,612,468,60,122.0,82,1,304,193,46,0,0,132,-28648,12552,556,882.05,,,,,,,,,,,,
72524,1563729588883,7,2.27,0.82,0.56,1.11,0.92,1.06,0.07,0.29,-2,1,-2,1.06,6416,7,83,43,37,889,555.0,610,469,60,122.0,82,1,304,193,46,0,0,189,-9072,12552,552,414.87,,,,,,,,,,,,
72544,1563729588906,9,2.27,0.81,0.55,1.11,0.92,1.05,0.03,0.31,-2,-1,-1,1.05,6390,7,83,43,37,886,552.0,590,467,60,123.0,82,1,304,193,46,0,0,267,-9072,-8186,547,414.87,45.749519,4.906819,57.36,184.2,0,0.0,-1,0.0,0.0,0,0.19,1.2091
72564,1563729588926,9,2.28,0.81,0.56,1.11,0.92,0.98,0.01,0.33,-2,0,-2,0.98,6368,7,83,43,37,885,552.0,585,466,60,123.0,82,1,304,193,46,0,0,1424,-28648,-28648,545,648.46,,,,,,,,,,,,
72584,1563729588946,9,2.28,0.81,0.56,1.12,0.91,1.02,-0.0,0.3,-2,1,-3,1.02,6334,7,83,43,37,885,550.0,582,471,60,124.0,82,1,304,193,46,0,0,1007,-32248,6273,543,648.46,,,,,,,,,,,,
72604,1563729588966,7,2.28,0.81,0.55,1.12,0.92,1.12,0.05,0.23,-2,-1,-2,1.12,6294,7,83,43,37,884,546.0,595,469,60,122.0,84,1,304,199,46,0,0,108,2524,-23623,540,414.87,,,,,,,,,,,,
72624,1563729588986,7,2.28,0.81,0.56,1.11,0.92,1.13,0.06,0.26,-3,-5,-2,1.13,6268,7,83,43,37,883,542.0,583,467,60,123.0,84,1,304,199,46,0,0,237,1779,2524,535,414.87,,,,,,,,,,,,
72644,1563729588997,9,2.28,0.82,0.56,1.12,0.92,1.02,0.04,0.33,-3,-5,-3,1.02,6237,7,83,43,37,884,538.0,575,463,60,124.0,84,1,304,199,46,0,0,237,-2336,2524,537,181.28,45.749538,4.906823,56.28,184.3,0,0.0,-1,0.0,0.0,0,0.19,1.2107
72664,1563729589017,9,2.28,0.82,0.55,1.12,0.92,0.93,0.02,0.35,-2,-3,-3,0.93,6115,7,83,43,38,887,539.0,567,466,60,123.0,84,1,307,193,46,0,0,59,1780,-3082,532,181.28,,,,,,,,,,,,
72684,1563729589037,10,2.28,0.81,0.55,1.12,0.92,0.86,-0.02,0.4,-2,-1,-4,0.87,6036,7,83,43,37,888,537.0,559,464,60,124.0,84,1,304,199,46,0,0,784,-30064,-30064,532,181.28,,,,,,,,,,,,
72704,1563729589057,10,2.27,0.81,0.56,1.11,0.91,0.82,-0.02,0.43,-1,0,-4,0.82,5998,7,83,43,38,890,532.0,553,466,60,122.0,85,1,306,198,45,0,0,6033,14504,-22519,524,181.28,,,,,,,,,,,,
72724,1563729589077,12,2.28,0.81,0.56,1.11,0.92,0.78,-0.07,0.52,-1,-0,-4,0.78,5986,7,83,43,38,892,526.0,553,466,60,124.0,85,1,306,198,45,0,0,203,-32248,6274,526,181.28,,,,,,,,,,,,
72744,1563729589105,12,2.28,0.81,0.56,1.11,0.92,0.71,-0.06,0.61,-1,0,-3,0.71,5978,7,83,43,38,893,524.0,553,468,60,123.0,85,1,305,307,45,0,0,208,10408,2088,521,414.87,45.74955,4.906826,55.25,184.5,0,0.0,-1,0.0,0.0,0,0.19,1.2124
72764,1563729589125,13,2.28,0.82,0.56,1.11,0.92,0.65,-0.06,0.58,-0,0,-4,0.66,5986,7,83,43,38,893,519.0,553,462,60,123.0,85,1,306,282,45,0,0,263,-8187,10408,512,414.87,,,,,,,,,,,,
72784,1563729589145,12,2.28,0.81,0.56,1.11,0.93,0.61,-0.08,0.63,-0,1,-4,0.61,6151,7,83,43,39,892,516.0,569,468,60,123.0,85,1,310,259,45,0,0,263,16383,6274,512,414.87,,,,,,,,,,,,
72804,1563729589165,13,2.29,0.81,0.56,1.11,0.92,0.57,-0.07,0.66,0,3,-4,0.57,6058,7,83,43,39,890,516.0,565,465,60,123.0,111,1,310,233,57,0,0,61,16383,15679,508,414.87,,,,,,,,,,,,
72824,1563729589185,13,2.28,0.82,0.56,1.11,0.92,0.55,-0.06,0.65,0,7,-5,0.55,5973,7,83,42,40,891,513.0,570,468,60,122.0,111,1,314,209,57,0,0,513,26178,-22519,509,648.46,,,,,,,,,,,,
72844,1563729589205,11,2.29,0.81,0.56,1.11,0.92,0.48,-0.03,0.71,1,8,-4,0.48,5954,7,83,42,40,904,509.0,552,467,60,123.0,111,1,313,204,57,0,0,402,10994,2524,504,414.87,45.749561,4.906828,54.27,184.5,0,0.0,-1,0.0,0.0,0,0.2,1.2141
72864,1563729589225,12,2.28,0.82,0.56,1.12,0.92,0.42,-0.09,0.77,1,10,-4,0.43,5907,7,83,42,40,916,504.0,550,457,60,124.0,111,1,309,204,57,0,0,402,-32248,-3482,503,414.87,,,,,,,,,,,,
72884,1563729589245,10,2.29,0.81,0.55,1.12,0.91,0.42,-0.04,0.69,1,9,-4,0.42,5935,7,83,42,40,931,501.0,546,467,60,123.0,111,1,312,205,57,0,0,402,11560,771,497,414.87,,,,,,,,,,,,
72904,1563729589265,11,2.29,0.81,0.55,1.11,0.92,0.48,0.02,0.67,1,7,-3,0.48,6171,7,83,42,41,945,500.0,557,470,60,123.0,94,1,322,206,47,0,0,488,-22519,-6528,494,414.87,,,,,,,,,,,,
72924,1563729589285,14,2.29,0.81,0.55,1.11,0.92,0.43,0.01,0.74,1,6,-3,0.43,6317,7,83,42,40,1043,494.0,570,467,60,124.0,94,1,316,205,47,0,0,1279,771,32033,490,414.87,,,,,,,,,,,,
72944,1563729589307,10,2.29,0.81,0.56,1.11,0.91,0.56,0.01,0.55,1,6,-3,0.56,6537,7,83,42,40,1141,491.0,586,469,60,122.0,94,1,316,205,47,0,0,215,248,-1562,486,882.05,45.749577,4.906832,52.47,184.6,0,0.0,-1,0.0,0.0,0,0.2,1.2157
72964,1563729589327,11,2.29,0.81,0.56,1.11,0.92,0.66,-0.04,0.62,0,2,-3,0.67,6703,7,83,42,39,1226,483.0,598,468,60,123.0,94,1,310,204,47,0,0,163,3580,-17956,482,414.87,,,,,,,,,,,,
72984,1563729589347,8,2.29,0.81,0.56,1.11,0.92,0.59,0.02,0.52,1,5,-3,0.59,6776,7,83,42,39,1309,481.0,615,474,60,122.0,94,1,310,204,47,0,0,927,8488,-6441,478,882.05,,,,,,,,,,,,
73004,1563729589367,11,2.29,0.81,0.56,1.12,0.92,0.7,-0.06,0.52,-0,4,-3,0.7,6754,7,83,42,38,1322,477.0,613,470,60,124.0,107,1,307,199,51,0,0,146,-23367,-1818,475,414.87,,,,,,,,,,,,
73024,1563729589387,9,2.28,0.82,0.56,1.12,0.92,0.75,0.0,0.4,-0,5,-3,0.75,6694,7,83,42,38,1333,476.0,622,470,60,121.0,107,1,307,193,51,0,0,1249,-23367,-1562,473,882.05,,,,,,,,,,,,
73044,1563729589407,8,2.29,0.81,0.56,1.11,0.92,0.79,0.01,0.38,-0,5,-2,0.79,6665,7,82,42,37,1281,473.0,607,467,60,124.0,107,1,304,193,51,0,0,232,3576,505,473,414.87,45.749588,4.906834,50.15,184.6,0,0.0,-1,0.0,0.0,0,0.2,1.2174
73064,1563729589427,10,2.29,0.81,0.56,1.11,0.92,0.78,-0.02,0.35,-0,7,-2,0.78,6634,7,82,42,37,1209,472.0,622,471,60,123.0,107,1,304,193,51,0,0,186,32033,-899,468,882.05,,,,,,,,,,,,
73084,1563729589447,9,2.28,0.82,0.56,1.12,0.92,0.86,-0.01,0.37,-1,3,-2,0.86,6602,7,82,42,37,1113,470.0,611,467,60,123.0,107,1,304,193,51,0,0,186,-16384,-6441,470,414.87,,,,,,,,,,,,
73104,1563729589467,12,2.29,0.82,0.55,1.12,0.92,0.78,-0.02,0.4,-0,3,-2,0.78,6565,7,82,42,37,1013,465.0,608,471,60,123.0,103,1,304,193,48,0,0,528,16408,16648,464,648.46,,,,,,,,,,,,
73124,1563729589487,8,2.28,0.82,0.56,1.12,0.92,0.86,0.01,0.34,-0,4,-2,0.86,6481,7,82,42,37,968,463.0,615,469,60,122.0,103,1,304,193,48,0,0,234,6193,32033,464,882.05,,,,,,,,,,,,
73144,1563729589505,7,2.3,0.81,0.55,1.11,0.92,0.95,0.05,0.39,-1,2,-1,0.95,6441,7,82,42,37,940,463.0,598,465,60,124.0,103,1,304,193,48,0,0,127,6193,-17956,459,414.87,45.749599,4.906836,48.74,184.6,0,0.0,-1,0.0,0.0,0,0.2,1.2191
73164,1563729589525,11,2.29,0.82,0.56,1.12,0.92,0.86,0.01,0.45,-1,1,-1,0.86,6394,7,82,42,37,913,460.0,588,467,60,124.0,103,1,304,193,48,0,0,1129,-23623,243,459,648.46,,,,,,,,,,,,
73184,1563729589545,11,2.28,0.82,0.56,1.12,0.92,0.79,0.04,0.45,-0,4,-1,0.79,6353,7,82,42,37,885,457.0,586,470,60,122.0,103,1,304,193,48,0,0,1129,-9160,-17956,457,882.05,,,,,,,,,,,,
73204,1563729589565,6,2.3,0.81,0.56,1.11,0.92,0.86,0.08,0.34,-0,5,-1,0.86,6306,7,82,42,38,874,455.0,592,471,60,122.0,101,1,307,193,46,0,0,92,-26615,30272,454,882.05,,,,,,,,,,,,
73224,1563729589585,6,2.29,0.81,0.56,1.12,0.92,0.93,0.1,0.34,-1,5,-1,0.93,6239,7,82,42,38,873,455.0,587,475,60,121.0,101,1,307,199,46,0,0,133,-26615,16408,454,882.05,,,,,,,,,,,,
73244,1563729589601,5,2.29,0.81,0.56,1.11,0.92,0.96,0.12,0.29,-1,4,-1,0.96,6208,7,82,42,38,868,453.0,581,470,60,122.0,101,1,307,199,46,0,0,133,-8985,16408,455,414.87,45.749615,4.906839,48.36,184.6,0,0.0,-1,0.0,0.0,0,0.2,1.2207
73264,1563729589621,5,2.28,0.82,0.56,1.12,0.92,0.92,0.1,0.32,-2,4,-1,0.92,6135,7,82,42,38,864,452.0,575,465,60,123.0,101,1,307,199,46,0,0,133,-6387,2211,450,414.87,,,,,,,,,,,,
73284,1563729589641,4,2.28,0.81,0.56,1.12,0.92,0.86,0.08,0.34,-2,4,-0,0.87,6109,7,82,42,39,861,453.0,567,468,60,125.0,101,1,310,204,46,0,0,133,-8985,17628,450,414.87,,,,,,,,,,,,
73304,1563729589661,2,2.29,0.82,0.55,1.12,0.92,0.76,0.02,0.4,-1,6,-1,0.76,6052,7,82,42,39,857,452.0,565,465,60,125.0,104,1,310,204,47,0,0,133,-6387,14488,452,414.87,,,,,,,,,,,,
73324,1563729589681,1,2.29,0.81,0.56,1.11,0.92,0.7,0.03,0.43,-0,6,-1,0.7,6101,7,82,42,39,855,452.0,565,465,60,123.0,104,1,310,204,47,0,0,24,-6387,-26615,450,181.28,,,,,,,,,,,,
73344,1563729589700,3,2.28,0.81,0.55,1.11,0.93,0.62,0.08,0.38,1,8,-1,0.62,6163,7,82,42,39,852,451.0,573,469,60,124.0,104,1,310,204,47,0,0,24,-3267,12552,451,648.46,45.749622,4.90684,49.01,184.8,0,0.0,-1,0.0,0.0,0,0.2,1.2224
73364,1563729589720,2,2.29,0.82,0.55,1.11,0.92,0.63,0.07,0.34,1,7,-1,0.63,6258,7,82,42,40,852,448.0,577,471,60,123.0,104,1,316,205,47,0,0,268,10305,-8985,448,882.05,,,,,,,,,,,,
73384,1563729589740,-1,2.3,0.81,0.55,1.11,0.92,0.72,0.08,0.22,1,7,-1,0.73,6281,7,82,42,39,852,446.0,591,468,60,123.0,104,1,310,204,47,0,0,1726,16648,2524,445,882.05,,,,,,,,,,,,
73404,1563729589760,-1,2.3,0.81,0.56,1.11,0.92,0.81,0.11,0.2,-0,5,-2,0.82,6250,7,82,42,39,853,445.0,586,466,60,123.0,107,1,310,204,48,0,0,1726,2131,3571,445,414.87,,,,,,,,,,,,
73424,1563729589780,0,2.29,0.82,0.56,1.11,0.92,0.83,0.13,0.15,-1,5,-1,0.84,6227,7,82,42,39,855,448.0,589,463,60,123.0,107,1,310,204,48,0,0,68,10305,2524,445,414.87,,,,,,,,,,,,
73444,1563729589802,-0,2.3,0.81,0.56,1.11,0.92,0.73,0.08,0.16,-0,6,-1,0.73,6167,7,82,42,39,858,445.0,571,465,60,124.0,107,1,310,204,48,0,0,512,2131,-26615,444,414.87,45.749638,4.906841,45.34,185.1,0,0.0,-1,0.0,0.0,0,0.2,1.2241
73464,1563729589822,0,2.3,0.82,0.56,1.12,0.91,0.64,0.04,0.25,-0,6,-1,0.64,6141,7,82,42,39,860,446.0,569,466,60,124.0,107,1,310,204,48,0,0,75,21432,14488,443,648.46,,,,,,,,,,,,
73484,1563729589842,2,2.29,0.82,0.56,1.12,0.92,0.57,0.0,0.33,0,7,-2,0.57,6095,7,82,42,39,863,444.0,563,465,60,124.0,107,1,310,204,48,0,0,75,21432,-26615,444,648.46,,,,,,,,,,,,
73504,1563729589862,1,2.3,0.81,0.56,1.11,0.92,0.54,-0.03,0.37,1,8,-2,0.54,6087,7,82,42,40,866,443.0,565,470,60,123.0,105,1,316,205,47,0,0,59,23400,14488,443,882.05,,,,,,,,,,,,
73524,1563729589882,1,2.3,0.81,0.56,1.12,0.92,0.52,-0.02,0.38,1,8,-3,0.52,6056,7,82,42,40,869,444.0,563,468,60,123.0,105,1,316,205,47,0,0,132,23400,-6387,442,882.05,,,,,,,,,,,,
73544,1563729589902,1,2.3,0.81,0.56,1.11,0.92,0.57,0.01,0.37,1,7,-3,0.57,6097,7,82,42,40,870,443.0,564,471,60,123.0,105,1,316,205,47,0,0,535,-18341,8488,442,882.05,45.749645,4.906843,42.64,185.3,0,0.0,-1,0.0,0.0,0,0.21,1.2257
73564,1563729589922,-2,2.3,0.81,0.56,1.11,0.93,0.63,0.0,0.34,1,6,-4,0.63,6111,7,82,42,40,869,443.0,567,472,60,122.0,105,1,316,205,47,0,0,130,-18341,-3267,442,882.05,,,,,,,,,,,,
73584,1563729589942,-2,2.3,0.81,0.56,1.11,0.92,0.74,-0.02,0.38,1,4,-4,0.74,6143,7,82,42,40,865,441.0,570,470,60,122.0,105,1,316,205,47,0,0,69,26704,3571,439,882.05,,,,,,,,,,,,
73604,1563729589962,-0,2.29,0.81,0.56,1.11,0.93,0.85,0.01,0.39,-0,1,-4,0.85,6117,7,82,42,40,860,441.0,573,469,60,122.0,106,1,316,205,47,0,0,544,26704,3571,441,414.87,,,,,,,,,,,,
73624,1563729589982,-1,2.29,0.82,0.56,1.11,0.92,0.97,0.04,0.39,-1,-2,-4,0.97,6123,7,82,42,40,856,440.0,570,471,60,122.0,106,1,316,205,47,0,0,544,20625,8488,440,882.05,,,,,,,,,,,,
73644,1563729589998,-1,2.29,0.82,0.55,1.12,0.92,1.02,0.05,0.44,-2,-6,-3,1.02,6095,7,82,42,40,851,438.0,570,467,60,123.0,106,1,316,205,47,0,0,256,21580,-3267,437,414.87,45.749657,4.906844,43.86,185.4,0,0.0,-1,0.0,0.0,0,0.21,1.2274
73664,1563729590018,-2,2.3,0.82,0.55,1.12,0.92,1.03,0.03,0.47,-2,-9,-1,1.03,6117,7,82,42,40,846,437.0,570,468,60,122.0,106,1,316,205,47,0,0,508,19477,3571,437,414.87,,,,,,,,,,,,
73684,1563729590038,-1,2.3,0.82,0.55,1.12,0.92,1.02,0.06,0.51,-3,-11,-1,1.02,6075,7,82,42,40,841,438.0,566,470,60,123.0,106,1,316,205,47,0,0,202,21580,2131,436,414.87,,,,,,,,,,,,
73704,1563729590058,-0,2.3,0.82,0.56,1.11,0.92,0.94,0.03,0.59,-2,-11,-1,0.94,6077,7,82,42,40,840,437.0,569,471,60,124.0,107,1,316,206,47,0,0,1551,19477,2131,436,414.87,,,,,,,,,,,,
73724,1563729590078,-0,2.29,0.82,0.56,1.11,0.93,0.84,0.05,0.58,-2,-12,0,0.84,6030,7,82,42,40,839,435.0,566,467,60,123.0,107,1,316,205,47,0,0,168,5600,2131,436,414.87,,,,,,,,,,,,
73744,1563729590106,1,2.3,0.81,0.56,1.11,0.92,0.75,0.05,0.6,-1,-12,0,0.75,6028,7,82,42,40,838,434.0,558,466,60,123.0,107,1,316,205,47,0,0,87,243,23400,434,414.87,45.749668,4.906846,46.5,185.6,0,0.0,-1,0.0,0.0,0,0.21,1.2291
73764,1563729590126,4,2.29,0.82,0.56,1.12,0.92,0.66,0.04,0.66,-1,-11,1,0.66,6021,7,82,42,41,837,433.0,557,467,60,124.0,107,1,322,206,47,0,0,143,243,23400,432,414.87,,,,,,,,,,,,
73784,1563729590146,3,2.29,0.81,0.56,1.12,0.92,0.61,0.02,0.71,-1,-9,1,0.61,5980,7,82,42,41,837,432.0,556,467,60,124.0,107,1,320,205,47,0,0,128,1779,26704,433,414.87,,,,,,,,,,,,
73804,1563729590166,2,2.3,0.81,0.56,1.12,0.92,0.67,0.04,0.74,-1,-9,1,0.67,5958,7,82,42,41,837,431.0,564,470,60,123.0,106,1,319,205,46,0,0,128,1779,-7939,427,414.87,,,,,,,,,,,,
73824,1563729590186,3,2.29,0.82,0.56,1.12,0.91,0.67,0.0,0.75,-1,-10,2,0.67,5926,7,82,42,41,836,429.0,564,468,60,123.0,106,1,317,205,46,0,0,80,3635,-3322,429,414.87,,,,,,,,,,,,
73844,1563729590204,3,2.3,0.82,0.55,1.11,0.92,0.74,0.02,0.79,-2,-12,2,0.74,5905,7,82,42,42,835,428.0,559,471,60,122.0,106,1,321,207,46,0,0,80,31796,-768,428,414.87,45.749676,4.906848,45.18,185.6,0,0.0,-1,0.0,0.0,0,0.21,1.2307
73864,1563729590224,2,2.31,0.82,0.56,1.12,0.92,0.83,0.03,0.78,-2,-13,2,0.83,5890,7,82,42,42,833,426.0,556,467,60,123.0,106,1,320,207,46,0,0,406,13552,-7939,423,414.87,,,,,,,,,,,,
73884,1563729590244,5,2.3,0.81,0.55,1.12,0.92,0.93,0.06,0.73,-3,-15,2,0.93,5883,7,82,42,42,832,423.0,558,470,60,121.0,106,1,319,207,46,0,0,2038,-8165,-7939,423,414.87,,,,,,,,,,,,
73904,1563729590264,5,2.31,0.81,0.56,1.12,0.92,1.04,0.06,0.7,-3,-16,2,1.04,5850,7,82,42,42,832,421.0,553,471,60,122.0,108,1,317,208,46,0,0,166,-21792,13180,420,882.05,,,,,,,,,,,,
73924,1563729590284,8,2.31,0.82,0.55,1.11,0.92,1.12,0.1,0.61,-3,-15,2,1.12,5824,7,82,42,43,831,419.0,546,472,60,122.0,108,1,321,208,46,0,0,551,7154,31796,419,882.05,,,,,,,,,,,,
73944,1563729590306,7,2.32,0.82,0.56,1.12,0.92,1.07,0.11,0.57,-3,-14,2,1.08,5760,7,82,42,43,832,417.0,538,467,60,123.0,108,1,316,208,46,0,0,551,-21944,13552,416,648.46,45.749691,4.90685,44.92,185.7,0,0.0,-1,0.0,0.0,0,0.21,1.2324
73964,1563729590326,9,2.31,0.82,0.56,1.11,0.92,0.96,0.08,0.54,-2,-10,1,0.96,5746,7,82,42,44,833,416.0,537,466,60,124.0,108,1,320,208,46,0,0,74,18584,-3414,413,414.87,,,,,,,,,,,,
73984,1563729590346,6,2.31,0.82,0.56,1.12,0.92,0.89,-0.0,0.53,-1,-7,0,0.89,5673,7,82,42,44,835,415.0,536,466,60,124.0,108,1,315,209,46,0,0,74,13040,31796,415,414.87,,,,,,,,,,,,
74004,1563729590366,6,2.31,0.81,0.56,1.12,0.91,0.96,0.02,0.47,-1,-7,1,0.96,5674,7,82,42,44,837,411.0,534,466,60,123.0,109,1,315,211,45,0,0,67,-4059,-21944,411,414.87,,,,,,,,,,,,
74024,1563729590386,11,2.31,0.81,0.55,1.12,0.92,1.06,0.04,0.37,-2,-8,1,1.06,5659,7,82,42,45,838,406.0,535,470,60,121.0,109,1,316,211,45,0,0,137,2524,-21944,406,882.05,,,,,,,,,,,,
74044,1563729590408,10,2.32,0.81,0.55,1.12,0.92,1.02,0.04,0.34,-1,-7,1,1.02,5630,7,82,42,46,840,406.0,534,470,60,123.0,109,1,321,211,45,0,0,144,-9211,13040,405,648.46,45.749699,4.906852,46.72,185.8,0,0.0,-1,0.0,0.0,0,0.21,1.2341
74064,1563729590428,8,2.31,0.81,0.56,1.12,0.92,0.89,0.02,0.36,-1,-5,-0,0.89,5587,7,82,42,46,841,402.0,527,465,60,123.0,109,1,317,212,45,0,0,79,11545,-4059,401,181.28,,,,,,,,,,,,
74084,1563729590448,7,2.32,0.82,0.55,1.12,0.92,0.96,0.01,0.3,-1,-6,0,0.96,5550,7,82,42,47,843,398.0,531,469,60,125.0,109,1,319,214,45,0,0,20286,-3968,10392,398,414.87,,,,,,,,,,,,
74104,1563729590468,7,2.32,0.81,0.56,1.11,0.92,0.98,0.05,0.22,-1,-6,1,0.98,5447,7,82,42,47,844,396.0,513,466,60,125.0,111,1,310,214,44,0,0,173,-32702,2524,396,414.87,,,,,,,,,,,,
74124,1563729590488,9,2.32,0.81,0.56,1.11,0.92,0.91,0.04,0.28,0,-3,-0,0.91,5343,7,82,42,48,845,396.0,499,463,60,124.0,111,1,304,217,44,0,0,173,17144,6512,396,181.28,,,,,,,,,,,,
74144,1563729590507,8,2.31,0.81,0.56,1.12,0.92,1.02,0.06,0.31,-0,-3,1,1.02,5314,7,82,42,49,849,392.0,512,464,60,123.0,111,1,304,221,44,0,0,173,1,28696,391,181.28,45.74971,4.906853,43.8,185.9,0,0.0,-1,0.0,0.0,0,0.21,1.2357
74164,1563729590527,8,2.33,0.81,0.56,1.12,0.92,0.95,-0.03,0.35,-0,-3,-0,0.95,5287,7,82,42,49,853,387.0,490,468,60,123.0,111,1,303,221,44,0,0,342,-3866,-6656,387,181.28,,,,,,,,,,,,
74184,1563729590547,11,2.32,0.82,0.56,1.11,0.92,1.06,-0.01,0.37,-0,-6,-0,1.06,5268,7,82,42,50,855,384.0,490,472,60,122.0,111,1,306,344,44,0,0,280,-19019,-3866,383,648.46,,,,,,,,,,,,
74204,1563729590567,9,2.31,0.82,0.55,1.12,0.92,1.0,-0.06,0.45,-0,-4,1,1.0,5265,7,82,42,50,858,384.0,497,466,60,123.0,170,1,305,316,65,0,0,280,-992,19125,384,414.87,,,,,,,,,,,,
74224,1563729590587,8,2.32,0.82,0.56,1.12,0.92,1.01,0.01,0.33,0,-2,1,1.01,5426,7,82,42,50,859,380.0,500,470,60,121.0,170,1,320,288,65,0,0,280,-6656,-19126,380,882.05,,,,,,,,,,,,
74244,1563729590602,7,2.33,0.81,0.56,1.11,0.93,0.97,-0.01,0.37,0,-2,1,0.97,5408,7,82,42,50,861,376.0,500,463,60,124.0,170,1,318,259,65,0,0,444,742,-6475,376,414.87,45.749718,4.906854,42.43,185.9,0,0.0,-1,0.0,0.0,0,0.21,1.2374
74264,1563729590622,7,2.33,0.82,0.55,1.12,0.92,0.96,0.01,0.31,1,-2,1,0.96,5354,7,82,42,51,862,376.0,514,466,60,121.0,170,1,317,233,65,0,0,285,770,-19019,378,414.87,,,,,,,,,,,,
74284,1563729590642,7,2.32,0.82,0.55,1.12,0.92,1.0,0.02,0.25,0,-1,1,1.0,5298,7,82,42,51,860,376.0,492,471,60,122.0,170,1,312,227,65,0,0,1805,-6656,-19019,374,648.46,,,,,,,,,,,,
74304,1563729590662,7,2.32,0.81,0.55,1.12,0.92,0.97,0.03,0.19,1,-0,1,0.97,5322,7,82,42,52,879,371.0,491,462,60,124.0,120,1,318,231,45,0,0,109,0,2790,371,181.28,,,,,,,,,,,,
74324,1563729590682,9,2.32,0.82,0.55,1.12,0.92,1.06,0.07,0.17,1,0,-0,1.07,5511,7,82,42,52,919,366.0,505,471,60,123.0,120,1,335,233,45,0,0,130,3082,6870,366,882.05,,,,,,,,,,,,
74344,1563729590706,9,2.31,0.82,0.55,1.12,0.92,1.1,0.03,0.23,1,-1,-1,1.1,5744,7,82,42,52,960,364.0,525,475,60,124.0,120,1,354,232,45,0,0,818,2790,-1246,364,648.46,45.749733,4.906856,42.04,186.1,0,0.0,-1,0.0,0.0,0,0.22,1.2391
74364,1563729590726,7,2.32,0.82,0.55,1.12,0.92,0.92,-0.04,0.29,2,2,1,0.92,6021,7,82,42,51,1001,357.0,542,470,60,124.0,120,1,373,235,45,0,0,1554,-6640,-122,355,648.46,,,,,,,,,,,,
74384,1563729590746,8,2.31,0.81,0.56,1.12,0.92,0.84,-0.03,0.32,2,4,-0,0.84,6243,7,82,42,49,1056,354.0,563,470,60,123.0,120,1,368,225,45,0,0,104,28553,175,354,882.05,,,,,,,,,,,,
74404,1563729590766,2,2.32,0.82,0.55,1.12,0.92,0.86,-0.0,0.23,2,5,-1,0.86,6512,7,82,42,47,1149,351.0,589,469,60,122.0,151,1,365,216,53,0,0,562,2811,-6528,351,414.87,,,,,,,,,,,,
74424,1563729590786,4,2.31,0.81,0.56,1.12,0.92,0.92,-0.06,0.28,2,3,-1,0.92,6646,7,82,42,45,1234,348.0,601,467,60,124.0,151,1,352,213,53,0,0,562,-30438,28553,348,414.87,,,,,,,,,,,,
74444,1563729590801,1,2.3,0.82,0.56,1.12,0.91,0.83,0.0,0.21,2,4,0,0.83,6803,8,82,42,44,1287,348.0,626,473,60,122.0,151,1,346,212,53,0,0,562,8841,-6644,345,882.05,45.749741,4.906858,40.8,186.2,0,0.0,-1,0.0,0.0,0,0.22,1.2407
74464,1563729590821,2,2.31,0.82,0.56,1.12,0.92,0.87,-0.04,0.3,1,3,0,0.87,6845,8,82,42,42,1320,345.0,617,466,60,123.0,151,1,331,209,53,0,0,562,6870,3302,345,648.46,,,,,,,,,,,,
74484,1563729590841,-1,2.31,0.81,0.56,1.12,0.92,0.81,0.03,0.14,2,6,-1,0.81,6858,8,82,42,41,1292,345.0,631,469,60,123.0,151,1,324,207,53,0,0,38,-10554,2060,345,414.87,,,,,,,,,,,,
74504,1563729590861,3,2.31,0.81,0.56,1.12,0.93,0.87,-0.05,0.25,1,5,-1,0.87,6845,8,82,42,40,1263,346.0,613,468,60,123.0,153,1,317,205,53,0,0,534,-10554,-6640,345,648.46,,,,,,,,,,,,
74524,1563729590881,1,2.31,0.82,0.56,1.12,0.93,0.85,-0.01,0.18,2,4,-0,0.85,6885,8,82,42,39,1182,345.0,625,468,60,123.0,153,1,310,204,53,0,0,6218,-14714,-6640,345,414.87,,,,,,,,,,,,
74544,1563729590905,-1,2.31,0.82,0.56,1.11,0.92,0.86,-0.02,0.28,2,3,-0,0.86,6843,8,82,42,39,1100,343.0,614,470,60,123.0,153,1,310,204,53,0,0,6218,6668,-30454,343,648.46,45.749748,4.90686,38.44,186.3,0,0.0,-1,0.0,0.0,0,0.22,1.2424
74564,1563729590925,-1,2.32,0.82,0.56,1.12,0.93,0.88,0.01,0.29,1,2,0,0.88,6805,8,82,42,38,1009,342.0,610,466,60,123.0,153,1,307,199,53,0,0,8772,6668,2811,342,414.87,,,,,,,,,,,,
74584,1563729590945,-1,2.31,0.82,0.56,1.12,0.92,0.82,0.06,0.29,2,4,-0,0.82,6773,8,82,42,38,920,342.0,616,469,60,122.0,153,1,307,199,53,0,0,198,6668,-30454,342,882.05,,,,,,,,,,,,
74604,1563729590965,-1,2.32,0.82,0.56,1.12,0.92,0.87,0.05,0.34,1,1,-1,0.87,6727,8,81,42,37,909,341.0,623,468,60,123.0,149,1,304,199,51,0,0,198,6668,-1246,341,414.87,,,,,,,,,,,,
74624,1563729590985,-2,2.31,0.82,0.56,1.12,0.91,0.84,0.02,0.42,2,2,-1,0.85,6713,8,82,42,37,901,341.0,612,469,60,124.0,149,1,304,193,51,0,0,198,6668,3183,341,882.05,,,,,,,,,,,,
74644,1563729590997,-1,2.32,0.82,0.56,1.11,0.92,0.91,0.02,0.32,1,2,-1,0.91,6611,8,81,42,37,893,341.0,616,466,60,123.0,149,1,304,193,51,0,0,968,6668,-30438,340,414.87,45.749756,4.906862,37.24,186.2,0,0.0,-1,0.0,0.0,0,0.22,1.2441
74664,1563729591017,3,2.32,0.81,0.55,1.12,0.92,0.85,-0.01,0.42,1,1,1,0.85,6558,8,81,42,37,885,341.0,608,469,60,123.0,149,1,304,193,51,0,0,968,6668,-1246,340,882.05,,,,,,,,,,,,
74684,1563729591037,-2,2.33,0.82,0.56,1.12,0.92,0.82,-0.03,0.34,1,1,-0,0.82,6514,8,81,42,38,886,341.0,611,474,60,121.0,149,1,307,199,51,0,0,968,2560,2811,341,882.05,,,,,,,,,,,,
74704,1563729591057,-1,2.32,0.82,0.56,1.11,0.93,0.89,-0.04,0.33,1,-0,0,0.89,6472,8,81,42,37,886,341.0,601,465,60,124.0,143,1,304,199,49,0,0,968,-122,-30438,341,414.87,,,,,,,,,,,,
74724,1563729591077,2,2.32,0.82,0.56,1.12,0.92,0.81,-0.04,0.4,1,1,1,0.81,6410,8,81,42,38,879,341.0,600,470,60,123.0,143,1,307,199,49,0,0,184,13,2811,342,648.46,,,,,,,,,,,,
74744,1563729591107,-2,2.33,0.81,0.56,1.12,0.92,0.79,-0.06,0.46,1,1,0,0.79,6351,8,81,42,38,870,339.0,608,471,60,123.0,143,1,307,199,49,0,0,584,-31222,8841,339,882.05,45.749767,4.906864,36.46,186.3,0,0.0,-1,0.0,0.0,0,0.22,1.2457
74764,1563729591127,-3,2.33,0.82,0.56,1.12,0.93,0.89,-0.01,0.44,0,0,0,0.89,6277,8,81,42,38,861,341.0,602,470,60,121.0,143,1,307,204,49,0,0,341,-122,-1246,341,414.87,,,,,,,,,,,,
74784,1563729591147,-1,2.32,0.82,0.55,1.12,0.92,0.99,-0.03,0.44,-1,-0,1,0.99,6237,8,81,42,38,851,343.0,601,465,60,122.0,143,1,307,199,49,0,0,732,-122,2811,343,414.87,,,,,,,,,,,,
74804,1563729591167,0,2.33,0.81,0.56,1.12,0.93,0.95,-0.01,0.49,-0,-0,2,0.95,6175,9,81,42,39,841,340.0,581,468,60,124.0,141,1,310,204,48,0,0,4745,-31222,-30438,340,414.87,,,,,,,,,,,,
74824,1563729591187,1,2.33,0.81,0.56,1.12,0.93,0.86,-0.03,0.55,0,-1,2,0.86,6111,9,81,42,39,831,340.0,572,462,60,124.0,141,1,310,204,48,0,0,9273,-31222,8841,340,414.87,,,,,,,,,,,,
74844,1563729591205,1,2.32,0.82,0.56,1.12,0.92,0.76,-0.09,0.66,1,0,2,0.76,6083,9,81,42,40,828,341.0,561,466,60,123.0,141,1,316,205,48,0,0,264,2560,2811,341,648.46,45.749775,4.906866,36.05,186.3,0,0.0,-1,0.0,0.0,0,0.22,1.2474
74864,1563729591225,2,2.34,0.82,0.55,1.12,0.92,0.66,-0.15,0.76,2,2,2,0.67,6007,9,81,42,40,826,340.0,560,469,60,124.0,141,1,316,205,48,0,0,257,13,-30454,340,648.46,,,,,,,,,,,,
74884,1563729591245,1,2.34,0.82,0.56,1.12,0.92,0.57,-0.16,0.83,3,6,2,0.59,5992,9,81,42,40,826,341.0,562,463,60,124.0,141,1,315,205,48,0,0,105,-31222,-10554,341,414.87,,,,,,,,,,,,
74904,1563729591265,1,2.33,0.82,0.56,1.12,0.92,0.47,-0.19,0.87,4,7,1,0.5,6060,9,81,42,41,827,339.0,560,467,60,125.0,137,1,322,206,47,0,0,3431,-32559,-122,339,648.46,,,,,,,,,,,,
74924,1563729591285,3,2.33,0.82,0.56,1.13,0.92,0.45,-0.17,0.91,4,8,0,0.48,6223,9,81,42,41,827,334.0,563,466,60,125.0,137,1,323,205,47,0,0,138,-6528,13,335,648.46,,,,,,,,,,,,
74944,1563729591303,-2,2.34,0.81,0.56,1.12,0.92,0.5,-0.16,0.8,4,9,1,0.52,6373,9,81,42,41,828,332.0,580,469,60,123.0,137,1,323,205,47,0,0,244,175,13,332,882.05,45.749786,4.906867,35.83,186.3,0,0.0,-1,0.0,0.0,0,0.22,1.2491
74964,1563729591323,-1,2.34,0.82,0.56,1.12,0.93,0.6,-0.17,0.75,2,6,1,0.62,6510,9,81,42,40,827,331.0,597,470,60,124.0,137,1,316,205,47,0,0,722,-20736,175,331,414.87,,,,,,,,,,,,
74984,1563729591343,2,2.34,0.82,0.56,1.12,0.93,0.59,-0.18,0.78,3,6,0,0.62,6533,9,81,42,40,827,330.0,602,469,60,124.0,137,1,316,205,47,0,0,722,175,2560,330,648.46,,,,,,,,,,,,
75004,1563729591363,-1,2.34,0.81,0.56,1.12,0.93,0.59,-0.15,0.66,3,8,0,0.61,6524,9,81,42,40,827,332.0,607,469,60,124.0,151,1,316,205,50,0,0,722,-20736,-122,332,882.05,,,,,,,,,,,,
75024,1563729591383,-1,2.32,0.82,0.53,1.11,0.92,0.7,-0.11,0.55,3,8,0,0.71,6465,9,81,42,39,826,332.0,598,466,60,123.0,151,1,310,205,50,0,0,533,170,-31222,333,414.87,,,,,,,,,,,,
75044,1563729591399,1,2.34,0.82,0.56,1.11,0.93,0.71,-0.16,0.61,2,7,2,0.73,6425,10,81,42,40,824,331.0,596,466,60,123.0,151,1,316,204,50,0,0,533,165,-31222,331,648.46,45.749794,4.906869,35.08,186.4,0,0.0,-1,0.0,0.0,0,0.22,1.2507
75064,1563729591419,-1,2.33,0.82,0.56,1.12,0.93,0.73,-0.17,0.58,3,6,1,0.75,6410,10,81,42,40,822,328.0,604,471,60,123.0,151,1,316,205,50,0,0,533,-23296,3327,331,882.05,,,,,,,,,,,,
75084,1563729591439,-1,2.33,0.82,0.56,1.11,0.92,0.77,-0.13,0.49,3,4,2,0.79,6397,10,81,42,40,820,329.0,602,467,60,122.0,151,1,316,205,50,0,0,41,165,13,329,414.87,,,,,,,,,,,,
75104,1563729591459,-1,2.34,0.82,0.56,1.12,0.93,0.8,-0.12,0.53,2,1,2,0.81,6345,10,81,42,40,817,327.0,589,467,60,123.0,148,1,316,205,49,0,0,150,-23296,-31222,328,414.87,,,,,,,,,,,,
75124,1563729591479,0,2.34,0.81,0.55,1.12,0.93,0.76,-0.15,0.6,2,1,3,0.78,6325,10,81,42,40,816,328.0,588,469,60,124.0,148,1,316,205,49,0,0,92,160,3346,328,648.46,,,,,,,,,,,,
75144,1563729591499,3,2.34,0.82,0.56,1.12,0.93,0.67,-0.12,0.64,3,3,2,0.68,6291,10,81,42,40,815,329.0,581,468,60,123.0,148,1,316,205,49,0,0,538,165,2560,329,648.46,45.749802,4.90687,34.75,186.4,0,0.0,-1,0.0,0.0,0,0.22,1.2524
75164,1563729591519,-1,2.33,0.82,0.56,1.12,0.92,0.71,-0.1,0.63,4,3,1,0.71,6266,10,81,42,40,814,328.0,586,470,60,123.0,148,1,316,205,49,0,0,538,-22016,2560,328,882.05,,,,,,,,,,,,
75184,1563729591539,-3,2.33,0.82,0.56,1.12,0.93,0.8,-0.06,0.54,3,1,2,0.81,6202,10,81,42,41,814,329.0,585,472,60,122.0,148,1,323,206,49,0,0,831,-22016,4838,329,882.05,,,,,,,,,,,,
75204,1563729591559,-2,2.34,0.82,0.55,1.12,0.92,0.89,-0.01,0.56,2,-0,3,0.89,6167,10,81,42,41,815,328.0,585,465,60,123.0,145,1,322,206,48,0,0,3622,165,2560,328,414.87,,,,,,,,,,,,
75224,1563729591579,-1,2.34,0.82,0.55,1.13,0.92,0.91,0.01,0.63,1,-2,4,0.91,6161,10,81,42,41,818,329.0,579,467,60,124.0,145,1,322,206,48,0,0,250,160,-31222,329,414.87,,,,,,,,,,,,
75244,1563729591607,1,2.33,0.82,0.55,1.12,0.92,0.88,0.01,0.66,2,-2,4,0.88,6107,10,81,42,41,821,328.0,571,466,60,123.0,145,1,322,206,48,0,0,136,160,-31222,328,414.87,45.749813,4.906872,35.54,186.4,0,0.0,-1,0.0,0.0,0,0.22,1.2541
75264,1563729591627,-0,2.34,0.82,0.56,1.11,0.92,0.83,-0.02,0.76,2,-1,4,0.83,6093,10,81,42,41,824,327.0,565,466,60,123.0,145,1,322,206,48,0,0,136,155,3346,327,414.87,,,,,,,,,,,,
75284,1563729591647,1,2.33,0.81,0.56,1.12,0.92,0.72,-0.09,0.88,3,1,4,0.73,6079,10,81,42,42,827,327.0,561,467,60,124.0,145,1,328,207,48,0,0,136,-24576,4838,328,648.46,,,,,,,,,,,,
75304,1563729591667,0,2.34,0.82,0.56,1.12,0.92,0.63,-0.11,0.98,4,3,4,0.64,6062,10,81,42,42,831,328.0,562,466,60,124.0,143,1,328,207,47,0,0,37,155,4838,328,648.46,,,,,,,,,,,,
75324,1563729591687,3,2.34,0.82,0.55,1.13,0.92,0.55,-0.14,1.04,5,4,3,0.56,6058,11,81,42,42,835,326.0,565,466,60,125.0,143,1,328,207,47,0,0,472,-24576,4838,326,648.46,,,,,,,,,,,,
75344,1563729591699,1,2.35,0.82,0.56,1.12,0.93,0.46,-0.16,1.07,6,5,3,0.49,6060,11,81,42,42,836,325.0,566,468,60,124.0,143,1,328,207,47,0,0,502,160,-12032,325,648.46,45.749821,4.906871,35.53,186.4,0,0.0,-1,0.0,0.0,0,0.23,1.2557
75364,1563729591719,2,2.35,0.82,0.55,1.13,0.92,0.41,-0.15,1.11,7,7,2,0.43,6046,11,81,42,42,836,325.0,563,470,60,123.0,143,1,328,207,47,0,0,10965,-25856,-22016,325,882.05,,,,,,,,,,,,
75384,1563729591739,1,2.34,0.82,0.56,1.12,0.93,0.36,-0.15,1.04,7,8,2,0.39,6071,11,81,42,43,835,327.0,566,470,60,123.0,143,1,335,207,47,0,0,15911,-25856,175,327,882.05,,,,,,,,,,,,
75404,1563729591759,3,2.35,0.81,0.56,1.12,0.93,0.34,-0.16,0.94,8,10,2,0.38,6095,11,81,42,43,834,326.0,567,467,60,123.0,144,1,335,209,47,0,0,101,150,-23296,325,648.46,,,,,,,,,,,,
75424,1563729591779,-1,2.34,0.82,0.56,1.12,0.93,0.37,-0.11,0.8,8,10,1,0.38,6161,11,81,42,43,833,324.0,581,469,60,123.0,144,1,335,209,47,0,0,175,-27136,-12032,324,882.05,,,,,,,,,,,,
75444,1563729591806,-1,2.34,0.82,0.56,1.13,0.92,0.42,-0.1,0.67,7,9,2,0.43,6210,11,81,42,43,831,324.0,584,471,60,123.0,144,1,336,209,47,0,0,175,-27136,-20736,323,882.05,45.749832,4.906872,36.04,186.6,0,0.0,-1,0.0,0.0,0,0.23,1.2574
75464,1563729591826,-1,2.34,0.82,0.56,1.12,0.92,0.56,-0.06,0.56,6,7,2,0.56,6227,11,81,42,42,828,320.0,583,464,60,123.0,144,1,329,209,47,0,0,88,140,-22016,320,414.87,,,,,,,,,,,,
75484,1563729591846,-1,2.35,0.82,0.56,1.12,0.92,0.7,-0.03,0.5,5,5,3,0.7,6220,11,81,42,42,826,321.0,574,468,60,124.0,144,1,329,208,47,0,0,526,140,170,321,414.87,,,,,,,,,,,,
75504,1563729591866,0,2.35,0.82,0.55,1.13,0.92,0.71,-0.07,0.54,4,3,5,0.72,6206,11,81,42,42,825,320.0,579,463,60,124.0,152,1,329,208,49,0,0,526,-27136,-20736,320,414.87,,,,,,,,,,,,
75524,1563729591886,1,2.35,0.81,0.56,1.12,0.93,0.59,-0.13,0.57,5,3,3,0.61,6218,11,81,42,42,825,323.0,575,467,60,124.0,152,1,329,208,49,0,0,526,145,-20736,323,414.87,,,,,,,,,,,,
75544,1563729591900,3,2.34,0.81,0.56,1.12,0.93,0.54,-0.15,0.58,5,5,2,0.56,6214,11,81,42,42,824,319.0,565,467,60,123.0,152,1,329,208,49,0,0,526,145,170,319,882.05,45.749836,4.906872,34.71,186.9,0,0.0,-1,0.0,0.0,0,0.23,1.2591
75564,1563729591920,-1,2.34,0.82,0.56,1.13,0.92,0.52,-0.13,0.49,6,8,2,0.53,6227,11,81,42,43,824,320.0,570,470,60,123.0,152,1,336,209,49,0,0,36,-28416,-32559,320,882.05,,,,,,,,,,,,
75584,1563729591940,-1,2.34,0.82,0.56,1.12,0.92,0.56,-0.1,0.3,5,8,2,0.57,6206,11,81,42,43,823,320.0,577,471,60,122.0,152,1,336,209,49,0,0,270,-28416,175,320,882.05,,,,,,,,,,,,
75604,1563729591960,-1,2.34,0.81,0.55,1.12,0.91,0.64,-0.06,0.19,4,6,3,0.64,6214,11,81,42,42,822,320.0,578,465,60,123.0,153,1,329,209,49,0,0,270,140,-20736,320,414.87,,,,,,,,,,,,
75624,1563729591980,-0,2.33,0.82,0.56,1.13,0.93,0.73,-0.03,0.19,4,4,4,0.73,6212,11,81,42,43,822,319.0,576,465,60,124.0,153,1,336,209,49,0,0,270,-29696,165,319,414.87,,,,,,,,,,,,
75644,1563729591996,1,2.32,0.82,0.56,1.12,0.94,0.73,-0.04,0.21,3,3,5,0.73,6218,11,81,42,43,823,321.0,579,468,60,124.0,153,1,336,209,49,0,0,264,-29696,165,321,414.87,45.749847,4.906871,36.23,186.8,0,0.0,-1,0.0,0.0,0,0.23,1.2607
75664,1563729592016,2,2.32,0.82,0.56,1.12,0.94,0.65,-0.07,0.25,4,3,4,0.65,6208,11,81,42,43,824,318.0,582,472,60,123.0,153,1,336,209,49,0,0,150,-29696,-22016,318,648.46,,,,,,,,,,,,
75684,1563729592036,2,2.32,0.82,0.56,1.12,0.95,0.58,-0.1,0.28,4,4,5,0.59,6204,11,81,42,43,825,319.0,580,470,60,123.0,153,1,336,209,49,0,0,133,-28416,-22016,319,648.46,,,,,,,,,,,,
75704,1563729592056,-2,2.31,0.82,0.56,1.13,0.94,0.58,-0.06,0.26,4,4,3,0.58,6216,12,81,42,43,829,320.0,580,470,60,120.0,152,1,336,209,49,0,0,795,140,-27136,320,882.05,,,,,,,,,,,,
75724,1563729592076,-3,2.31,0.82,0.57,1.12,0.95,0.7,-0.03,0.21,3,2,4,0.7,6235,12,81,42,43,833,318.0,592,473,60,122.0,152,1,336,209,49,0,0,311,145,-23296,318,414.87,,,,,,,,,,,,
75744,1563729592105,-3,2.29,0.82,0.56,1.13,0.94,0.8,0.02,0.23,2,-2,5,0.81,6218,12,81,42,43,836,319.0,591,467,60,121.0,152,1,336,209,49,0,0,155,140,165,320,414.87,45.749855,4.906873,33.47,186.9,0,0.0,-1,0.0,0.0,0,0.23,1.2624
75764,1563729592125,-0,2.3,0.82,0.57,1.12,0.94,0.9,-0.01,0.29,1,-5,5,0.9,6231,12,81,42,43,839,318.0,586,462,60,124.0,152,1,336,209,49,0,0,346,140,170,318,414.87,,,,,,,,,,,,
75784,1563729592145,1,2.29,0.82,0.57,1.13,0.94,0.81,-0.05,0.37,1,-5,5,0.81,6237,12,81,42,43,843,317.0,573,468,60,123.0,152,1,336,209,49,0,0,216,-29696,-22016,317,414.87,,,,,,,,,,,,
75804,1563729592165,1,2.3,0.82,0.56,1.12,0.94,0.7,-0.06,0.44,2,-2,4,0.7,6233,12,81,42,43,848,317.0,576,467,60,122.0,154,1,336,209,49,0,0,73,140,-12032,317,648.46,,,,,,,,,,,,
75824,1563729592185,2,2.3,0.82,0.56,1.12,0.94,0.6,-0.08,0.49,3,0,3,0.6,6220,12,80,42,43,852,316.0,580,470,60,123.0,154,1,336,209,49,0,0,294,-29696,160,316,882.05,,,,,,,,,,,,
75844,1563729592204,-2,2.29,0.82,0.57,1.13,0.94,0.64,-0.05,0.47,3,1,2,0.64,6198,12,80,42,44,854,316.0,590,472,60,123.0,154,1,341,210,49,0,0,132,-29696,-23296,316,882.05,45.749863,4.906873,32.75,186.9,0,0.0,-1,0.0,0.0,0,0.23,1.2641
75864,1563729592224,-2,2.29,0.82,0.56,1.12,0.94,0.76,-0.03,0.49,1,1,1,0.76,6169,12,80,42,43,856,317.0,581,467,60,122.0,154,1,335,210,49,0,0,400,-28416,160,317,414.87,,,,,,,,,,,,
75884,1563729592244,-2,2.28,0.83,0.56,1.13,0.94,0.89,0.01,0.52,0,-0,2,0.89,6167,12,80,42,44,859,318.0,580,467,60,123.0,154,1,341,210,49,0,0,400,145,-23296,317,414.87,,,,,,,,,,,,
75904,1563729592264,-1,2.28,0.83,0.56,1.13,0.94,0.93,0.09,0.52,-1,-2,3,0.93,6149,12,80,42,44,860,318.0,568,468,60,124.0,154,1,341,210,49,0,0,66,145,-23296,318,414.87,,,,,,,,,,,,
75924,1563729592284,1,2.27,0.81,0.56,1.13,0.94,0.83,0.11,0.53,-1,-2,3,0.84,6121,12,80,42,44,861,319.0,568,467,60,124.0,154,1,341,210,49,0,0,66,-27136,165,316,414.87,,,,,,,,,,,,
75944,1563729592302,1,2.27,0.82,0.56,1.12,0.95,0.74,0.08,0.54,-0,0,3,0.74,6062,12,80,42,44,863,317.0,567,470,60,124.0,154,1,341,210,49,0,0,2102,-28416,-20736,316,414.87,45.749874,4.906873,34.91,186.9,0,0.0,-1,0.0,0.0,0,0.23,1.2657
75964,1563729592322,2,2.27,0.82,0.56,1.13,0.94,0.66,0.08,0.56,1,1,3,0.67,6065,12,80,42,44,866,318.0,562,468,60,125.0,154,1,341,210,49,0,0,524,145,-24576,315,414.87,,,,,,,,,,,,
75984,1563729592342,2,2.28,0.81,0.56,1.13,0.94,0.57,0.06,0.71,1,2,2,0.57,6025,12,80,42,44,869,320.0,562,470,60,123.0,154,1,341,210,49,0,0,286,150,165,315,648.46,,,,,,,,,,,,
76004,1563729592362,-0,2.26,0.82,0.57,1.12,0.94,0.46,-0.01,0.78,1,3,1,0.46,6019,12,81,42,45,872,318.0,559,469,60,124.0,151,1,347,211,48,0,0,189,-28416,-22016,317,648.46,,,,,,,,,,,,
76024,1563729592382,0,2.27,0.82,0.56,1.12,0.94,0.44,-0.0,0.75,2,5,0,0.44,6013,12,81,42,45,875,317.0,555,467,60,124.0,151,1,347,211,48,0,0,518,-28416,-23296,316,648.46,,,,,,,,,,,,
76044,1563729592404,1,2.27,0.82,0.57,1.12,0.94,0.45,-0.01,0.78,2,7,-1,0.45,6027,12,80,42,45,877,319.0,561,468,60,123.0,151,1,347,211,48,0,0,515,-27136,165,315,648.46,45.749882,4.906876,34.06,187.0,0,0.0,-1,0.0,0.0,0,0.23,1.2674
76064,1563729592424,0,2.27,0.82,0.56,1.12,0.94,0.5,0.0,0.78,2,8,-0,0.5,6021,12,80,42,45,879,319.0,560,467,60,124.0,151,1,347,211,48,0,0,264,-27136,-25856,318,648.46,,,,,,,,,,,,
76084,1563729592444,2,2.26,0.83,0.56,1.12,0.94,0.49,0.03,0.79,2,10,-2,0.49,6013,12,80,42,45,880,318.0,555,467,60,124.0,151,1,347,211,48,0,0,436,145,-24576,315,648.46,,,,,,,,,,,,
76104,1563729592464,2,2.26,0.83,0.56,1.13,0.94,0.52,0.03,0.71,2,12,-2,0.52,6038,12,80,42,45,880,319.0,563,468,60,123.0,152,1,347,211,48,0,0,10018,-27136,-23296,313,648.46,,,,,,,,,,,,
76124,1563729592484,2,2.27,0.82,0.56,1.13,0.94,0.56,0.11,0.61,3,12,-3,0.57,6034,12,80,42,45,880,318.0,566,468,60,123.0,152,1,347,211,48,0,0,543,145,165,315,648.46,,,,,,,,,,,,
76144,1563729592506,1,2.28,0.82,0.56,1.12,0.94,0.62,0.12,0.56,3,12,-5,0.64,6042,12,80,42,46,879,319.0,568,471,60,124.0,152,1,353,211,48,0,0,235,-27136,150,316,882.05,45.749889,4.906878,33.22,187.0,0,0.0,-1,0.0,0.0,0,0.23,1.2691
76164,1563729592526,1,2.29,0.82,0.56,1.12,0.93,0.71,0.16,0.49,3,12,-5,0.73,6044,12,80,42,46,878,317.0,565,471,60,123.0,152,1,353,211,48,0,0,3353,-28416,-23296,315,882.05,,,,,,,,,,,,
76184,1563729592546,3,2.29,0.82,0.56,1.13,0.94,0.8,0.18,0.41,3,11,-4,0.82,6081,12,80,42,46,877,317.0,562,469,60,123.0,152,1,354,211,48,0,0,641,-28416,150,316,882.05,,,,,,,,,,,,
76204,1563729592566,-1,2.3,0.82,0.56,1.13,0.93,0.86,0.21,0.38,3,10,-5,0.88,6123,12,80,42,46,873,317.0,568,473,60,122.0,155,1,354,212,49,0,0,376,-28416,160,316,882.05,,,,,,,,,,,,
76224,1563729592586,-1,2.3,0.82,0.56,1.12,0.94,0.93,0.22,0.34,2,9,-6,0.96,6125,12,80,42,46,868,316.0,571,473,60,121.0,155,1,354,212,49,0,0,80,145,160,316,882.05,,,,,,,,,,,,
76244,1563729592606,-2,2.31,0.82,0.56,1.12,0.94,1.01,0.25,0.31,1,8,-5,1.04,6135,12,80,42,45,864,316.0,575,472,60,121.0,155,1,348,212,49,0,0,221,140,165,316,414.87,45.749893,4.906879,32.45,187.0,0,0.0,-1,0.0,0.0,0,0.23,1.2707
76264,1563729592626,-1,2.3,0.82,0.56,1.13,0.94,1.03,0.25,0.29,0,5,-3,1.06,6143,12,80,42,45,859,317.0,575,467,60,123.0,155,1,348,212,49,0,0,262,145,170,316,414.87,,,,,,,,,,,,
76284,1563729592646,-1,2.3,0.83,0.56,1.13,0.94,0.97,0.23,0.28,-1,4,-2,1.0,6129,13,80,42,45,855,318.0,573,466,60,124.0,155,1,348,211,49,0,0,387,145,170,316,414.87,,,,,,,,,,,,
76304,1563729592666,-1,2.31,0.82,0.56,1.12,0.94,0.9,0.18,0.33,-1,1,-1,0.92,6149,13,80,42,45,852,317.0,565,467,60,124.0,155,1,348,211,49,0,0,550,140,150,317,181.28,,,,,,,,,,,,
76324,1563729592686,0,2.31,0.82,0.56,1.12,0.94,0.79,0.13,0.42,-1,-0,-1,0.8,6147,13,80,42,45,853,317.0,567,468,60,124.0,155,1,348,211,49,0,0,372,-28416,170,317,414.87,,,,,,,,,,,,
76344,1563729592706,1,2.31,0.82,0.56,1.13,0.94,0.67,0.07,0.46,-0,1,-0,0.67,6141,13,80,42,45,854,317.0,576,468,60,123.0,155,1,348,211,49,0,0,12983,-28416,165,318,414.87,45.749905,4.906882,32.63,187.0,0,0.0,-1,0.0,0.0,0,0.23,1.2724
76364,1563729592726,2,2.31,0.82,0.56,1.12,0.94,0.61,0.04,0.5,1,2,-0,0.61,6117,13,80,42,45,858,317.0,577,468,60,122.0,155,1,348,211,49,0,0,75,-28416,170,315,648.46,,,,,,,,,,,,
76384,1563729592746,1,2.33,0.82,0.56,1.12,0.94,0.56,0.01,0.5,1,4,-1,0.56,6091,13,80,42,45,862,318.0,570,468,60,123.0,155,1,347,211,49,0,0,1639,145,-22016,320,648.46,,,,,,,,,,,,
76404,1563729592766,2,2.33,0.81,0.56,1.12,0.94,0.59,-0.0,0.43,2,4,-2,0.59,6101,13,80,42,45,866,318.0,571,470,60,123.0,150,1,348,211,48,0,0,681,140,160,318,648.46,,,,,,,,,,,,
76424,1563729592786,2,2.33,0.82,0.55,1.12,0.94,0.67,-0.02,0.37,2,5,-2,0.67,6081,13,80,42,45,869,317.0,571,465,60,122.0,150,1,347,211,48,0,0,550,-28416,175,316,882.05,,,,,,,,,,,,
76444,1563729592807,3,2.34,0.82,0.56,1.12,0.94,0.7,-0.02,0.28,3,6,-3,0.7,6091,13,80,42,45,875,319.0,575,470,60,123.0,150,1,347,211,48,0,0,227,145,170,319,882.05,45.749912,4.906883,32.39,187.1,0,0.0,-1,0.0,0.0,0,0.24,1.2741
76464,1563729592827,-2,2.35,0.82,0.55,1.12,0.94,0.81,-0.01,0.19,3,6,-3,0.81,6067,13,80,42,46,881,319.0,575,471,60,120.0,150,1,353,211,48,0,0,227,-27136,175,319,882.05,,,,,,,,,,,,
76484,1563729592847,-1,2.34,0.82,0.56,1.13,0.93,0.89,-0.0,0.09,3,8,-3,0.89,6099,13,80,42,46,886,317.0,562,473,60,122.0,150,1,353,212,48,0,0,380,-28416,170,317,882.05,,,,,,,,,,,,
76504,1563729592867,-1,2.34,0.82,0.56,1.12,0.94,0.99,0.02,0.04,4,7,-4,0.99,6075,13,80,42,46,889,320.0,568,467,60,122.0,153,1,353,212,49,0,0,613,140,-22016,320,882.05,,,,,,,,,,,,
76524,1563729592887,-3,2.35,0.82,0.55,1.12,0.94,1.06,0.05,0.01,3,5,-2,1.06,6097,13,80,42,46,893,320.0,565,466,60,122.0,153,1,353,212,49,0,0,613,-27136,-20736,320,414.87,,,,,,,,,,,,
76544,1563729592907,-2,2.34,0.82,0.56,1.12,0.93,1.11,0.11,0.04,3,4,-2,1.11,6105,13,80,42,46,898,319.0,573,466,60,123.0,153,1,354,212,49,0,0,9660,140,-12032,319,414.87,45.74992,4.906885,32.02,187.1,0,0.0,-1,0.0,0.0,0,0.24,1.2757
76564,1563729592927,-1,2.34,0.82,0.56,1.12,0.94,1.12,0.13,0.03,2,3,-1,1.13,6115,13,80,42,46,899,320.0,570,468,60,123.0,153,1,354,212,49,0,0,171,-29696,-23296,320,414.87,,,,,,,,,,,,
76584,1563729592947,-0,2.34,0.81,0.55,1.13,0.93,1.04,0.1,0.05,2,-0,-0,1.04,6123,13,80,42,45,900,319.0,566,466,60,124.0,153,1,348,212,49,0,0,109,135,-23296,319,414.87,,,,,,,,,,,,
76604,1563729592967,-1,2.35,0.81,0.56,1.12,0.94,0.88,0.04,0.12,1,-2,-0,0.88,6125,13,80,42,45,900,319.0,563,467,60,124.0,154,1,348,211,49,0,0,109,-29696,-12032,319,414.87,,,,,,,,,,,,
76624,1563729592987,0,2.35,0.82,0.56,1.13,0.93,0.78,0.03,0.22,1,-2,2,0.78,6109,13,80,42,45,900,319.0,561,468,60,124.0,154,1,348,211,49,0,0,111,-28416,-20736,319,414.87,,,,,,,,,,,,
76644,1563729592997,1,2.35,0.82,0.56,1.13,0.94,0.65,0.02,0.31,2,-2,2,0.65,6115,13,80,42,45,900,318.0,565,466,60,124.0,154,1,348,211,49,0,0,108,145,175,317,648.46,45.749928,4.906887,31.96,187.0,0,0.0,-1,0.0,0.0,0,0.24,1.2774
76664,1563729593017,1,2.35,0.82,0.56,1.12,0.94,0.59,-0.02,0.37,2,0,-0,0.59,6099,13,80,42,45,900,320.0,566,468,60,124.0,154,1,347,211,49,0,0,20543,145,170,320,648.46,,,,,,,,,,,,
76684,1563729593037,2,2.34,0.82,0.56,1.12,0.94,0.61,-0.03,0.41,3,2,1,0.61,6105,13,80,42,46,899,320.0,565,469,60,123.0,154,1,354,212,49,0,0,12021,145,-32559,322,648.46,,,,,,,,,,,,
76704,1563729593057,3,2.34,0.82,0.56,1.13,0.94,0.69,-0.01,0.42,4,2,-0,0.69,6089,13,80,42,46,897,323.0,561,471,60,120.0,149,1,353,211,48,0,0,1898,-28416,-22016,323,882.05,,,,,,,,,,,,
76724,1563729593077,2,2.34,0.81,0.56,1.13,0.94,0.81,0.02,0.45,4,2,-1,0.81,6101,13,80,42,46,896,321.0,565,470,60,122.0,149,1,354,211,48,0,0,725,-28416,175,321,882.05,,,,,,,,,,,,
76744,1563729593105,-2,2.35,0.81,0.56,1.12,0.94,0.94,0.08,0.42,4,0,-1,0.94,6089,13,80,42,46,894,320.0,571,472,60,122.0,149,1,353,212,48,0,0,490,140,-12032,320,882.05,45.749935,4.906889,31.73,187.0,0,0.0,-1,0.0,0.0,0,0.24,1.2791
76764,1563729593125,-3,2.35,0.82,0.56,1.12,0.93,1.04,0.1,0.42,3,-3,-1,1.05,6129,13,80,42,46,892,323.0,573,472,60,122.0,149,1,354,212,48,0,0,651,140,170,323,1115.64,,,,,,,,,,,,
76784,1563729593145,-2,2.35,0.82,0.56,1.13,0.93,1.11,0.13,0.41,3,-5,1,1.12,6139,13,80,42,46,890,321.0,578,468,60,122.0,149,1,354,212,48,0,0,295,145,-32559,321,414.87,,,,,,,,,,,,
76804,1563729593165,-1,2.35,0.82,0.56,1.13,0.93,1.11,0.13,0.38,3,-8,1,1.12,6149,13,80,42,46,888,321.0,575,465,60,122.0,152,1,354,212,49,0,0,713,-28416,-32559,321,414.87,,,,,,,,,,,,
76824,1563729593185,-1,2.34,0.82,0.56,1.12,0.94,1.09,0.08,0.4,2,-12,3,1.09,6145,13,80,42,45,887,321.0,570,467,60,124.0,152,1,348,212,49,0,0,298,145,-32559,321,414.87,,,,,,,,,,,,
76844,1563729593205,-0,2.34,0.82,0.56,1.13,0.93,1.0,0.01,0.49,2,-12,4,1.0,6139,13,80,42,45,887,321.0,571,464,60,124.0,152,1,348,212,49,0,0,2026,-27136,175,321,414.87,45.749943,4.906891,32.0,187.0,0,0.0,-1,0.0,0.0,0,0.24,1.2807
76864,1563729593225,-0,2.35,0.82,0.56,1.12,0.94,0.86,-0.05,0.61,2,-10,4,0.86,6149,13,80,42,46,888,324.0,571,467,60,125.0,152,1,354,212,49,0,0,508,145,-20736,324,414.87,,,,,,,,,,,,
76884,1563729593245,1,2.34,0.82,0.56,1.13,0.94,0.75,-0.12,0.65,2,-6,4,0.76,6161,13,80,42,46,889,322.0,568,472,60,124.0,152,1,354,212,49,0,0,6491,-28416,-32559,322,648.46,,,,,,,,,,,,
76904,1563729593265,1,2.36,0.82,0.56,1.13,0.93,0.7,-0.12,0.74,3,-3,4,0.71,6165,13,80,42,46,890,321.0,568,468,60,124.0,152,1,354,212,49,0,0,149,-28416,175,321,648.46,,,,,,,,,,,,
76924,1563729593285,2,2.35,0.82,0.56,1.13,0.94,0.73,-0.11,0.75,3,-1,3,0.73,6147,13,80,42,46,891,322.0,566,469,60,123.0,152,1,354,212,49,0,0,72,-27136,-20736,322,882.05,,,,,,,,,,,,
76944,1563729593307,4,2.34,0.82,0.56,1.12,0.94,0.82,-0.08,0.7,4,2,3,0.82,6155,13,80,42,46,892,324.0,570,472,60,123.0,152,1,354,212,49,0,0,196,145,-20736,324,648.46,45.749954,4.906894,32.22,186.9,0,0.0,-1,0.0,0.0,0,0.24,1.2824
76964,1563729593327,-1,2.34,0.82,0.56,1.12,0.94,0.94,-0.04,0.7,3,2,2,0.94,6145,13,80,42,46,892,322.0,573,470,60,123.0,152,1,354,212,49,0,0,558,-27136,-22016,322,882.05,,,,,,,,,,,,
76984,1563729593347,-1,2.34,0.82,0.56,1.11,0.93,1.02,-0.0,0.66,3,1,2,1.02,6139,13,80,42,46,891,321.0,576,467,60,122.0,152,1,354,212,49,0,0,723,-28416,170,321,414.87,,,,,,,,,,,,
77004,1563729593367,-1,2.33,0.81,0.56,1.12,0.93,1.06,0.04,0.7,2,-2,2,1.06,6149,14,80,42,46,889,321.0,574,466,60,123.0,152,1,354,212,49,0,0,503,145,-20736,321,414.87,,,,,,,,,,,,
77024,1563729593387,-2,2.33,0.8,0.56,1.12,0.93,0.97,0.04,0.75,2,-2,3,0.97,6175,14,80,42,46,889,322.0,570,467,60,123.0,152,1,354,212,49,0,0,326,150,175,322,414.87,,,,,,,,,,,,
77044,1563729593405,0,2.32,0.81,0.56,1.12,0.93,0.88,0.02,0.78,2,-1,4,0.89,6147,14,80,42,46,889,321.0,569,468,60,124.0,152,1,354,212,49,0,0,2709,-27136,175,321,414.87,45.749958,4.906897,32.03,186.9,0,0.0,-1,0.0,0.0,0,0.24,1.2841
77064,1563729593425,1,2.32,0.82,0.56,1.13,0.93,0.76,-0.04,0.84,3,0,4,0.77,6161,14,80,42,46,889,322.0,569,468,60,124.0,152,1,354,212,49,0,0,1528,-27136,175,322,414.87,,,,,,,,,,,,
77084,1563729593445,2,2.32,0.82,0.56,1.12,0.94,0.69,-0.07,0.9,3,2,4,0.7,6167,14,80,42,46,891,322.0,576,467,60,124.0,152,1,354,212,49,0,0,866,150,-12032,322,648.46,,,,,,,,,,,,
77104,1563729593465,2,2.31,0.82,0.55,1.12,0.94,0.67,-0.07,0.91,4,4,4,0.67,6184,14,80,41,46,892,320.0,567,467,60,124.0,152,1,354,212,49,0,0,231,-27136,-12032,320,414.87,,,,,,,,,,,,
77124,1563729593485,-1,2.31,0.81,0.56,1.12,0.93,0.76,-0.06,0.86,4,5,3,0.76,6177,14,80,42,46,894,323.0,577,472,60,122.0,152,1,354,212,49,0,0,1941,150,-32559,323,882.05,,,,,,,,,,,,
77144,1563729593507,-2,2.31,0.82,0.56,1.12,0.93,0.87,-0.06,0.79,3,5,3,0.88,6210,14,80,42,46,894,322.0,583,469,60,122.0,152,1,355,212,49,0,0,12779,-25856,175,320,1115.64,45.74997,4.906899,31.81,186.9,0,0.0,-1,0.0,0.0,0,0.24,1.2857
77164,1563729593527,-2,2.3,0.82,0.56,1.12,0.93,0.96,-0.02,0.75,2,3,3,0.96,6208,14,80,42,46,894,322.0,583,468,60,122.0,152,1,355,213,49,0,0,494,155,175,319,414.87,,,,,,,,,,,,
77184,1563729593547,-1,2.3,0.82,0.56,1.12,0.93,0.98,0.0,0.72,1,-1,3,0.98,6208,14,80,42,46,894,322.0,581,466,60,124.0,152,1,355,213,49,0,0,673,155,-6528,321,414.87,,,,,,,,,,,,
77204,1563729593567,0,2.3,0.82,0.56,1.13,0.93,0.89,-0.05,0.72,1,-3,3,0.89,6198,14,80,42,46,894,323.0,582,467,60,123.0,152,1,354,214,49,0,0,1998,-24576,-32559,321,414.87,,,,,,,,,,,,
77224,1563729593587,0,2.31,0.82,0.56,1.12,0.93,0.78,-0.08,0.77,1,-3,3,0.78,6210,14,80,42,46,895,324.0,569,468,60,125.0,152,1,355,213,49,0,0,1733,160,4838,322,414.87,,,,,,,,,,,,
77244,1563729593605,3,2.3,0.82,0.56,1.11,0.94,0.73,-0.07,0.75,2,-1,2,0.74,6208,14,80,42,47,897,326.0,569,469,60,123.0,152,1,362,213,49,0,0,1733,-24576,-6528,326,648.46,45.749973,4.906902,32.1,186.9,0,0.0,-1,0.0,0.0,0,0.24,1.2874
77264,1563729593625,2,2.3,0.81,0.56,1.12,0.93,0.76,-0.05,0.67,3,0,1,0.76,6218,15,80,42,47,900,324.0,573,468,60,123.0,152,1,362,215,49,0,0,1733,-24576,-32559,326,882.05,,,,,,,,,,,,
77284,1563729593645,-2,2.3,0.82,0.56,1.12,0.94,0.86,-0.04,0.55,2,1,0,0.86,6204,15,80,42,47,903,323.0,581,472,60,122.0,152,1,362,215,49,0,0,1487,155,-12032,323,882.05,,,,,,,,,,,,
77304,1563729593665,-3,2.29,0.82,0.56,1.12,0.93,0.94,0.01,0.44,2,0,-0,0.94,6223,15,80,41,47,906,324.0,581,467,60,122.0,154,1,362,215,50,0,0,408,-24576,-20736,322,414.87,,,,,,,,,,,,
77324,1563729593685,-2,2.28,0.82,0.56,1.12,0.94,0.94,0.02,0.42,1,-1,-0,0.94,6233,15,80,41,47,907,324.0,577,467,60,124.0,154,1,362,215,50,0,0,270,160,4838,324,414.87,,,,,,,,,,,,
77344,1563729593707,1,2.28,0.82,0.56,1.13,0.94,0.83,0.0,0.46,-0,-0,-0,0.83,6264,15,80,41,47,913,325.0,581,469,60,124.0,154,1,362,215,50,0,0,135,-23296,170,323,414.87,45.749985,4.906906,32.06,186.9,0,0.0,-1,0.0,0.0,0,0.24,1.2891
77364,1563729593727,1,2.27,0.82,0.56,1.13,0.93,0.73,-0.01,0.48,-0,1,0,0.73,6252,15,80,41,47,919,326.0,583,469,60,123.0,154,1,362,215,50,0,0,263,165,-32559,322,648.46,,,,,,,,,,,,
77384,1563729593747,1,2.25,0.82,0.56,1.12,0.94,0.75,-0.02,0.57,-0,0,-1,0.75,6250,15,80,41,47,925,327.0,585,474,60,123.0,154,1,362,215,50,0,0,14362,-22016,4838,319,882.05,,,,,,,,,,,,
77404,1563729593767,-2,2.26,0.82,0.57,1.12,0.94,0.84,0.01,0.48,-1,-2,-3,0.84,6254,15,80,41,47,929,328.0,587,470,60,123.0,154,1,362,215,50,0,0,504,170,4838,322,882.05,,,,,,,,,,,,
77424,1563729593787,-2,2.26,0.82,0.56,1.13,0.93,0.87,0.07,0.43,-2,-3,-3,0.87,6260,15,80,41,47,937,329.0,591,467,60,123.0,154,1,362,215,50,0,0,453,-20736,3346,324,414.87,,,,,,,,,,,,
77444,1563729593804,-1,2.26,0.82,0.56,1.13,0.93,0.9,0.08,0.46,-3,-6,-3,0.9,6262,15,80,41,47,946,329.0,590,471,60,122.0,154,1,362,220,50,0,0,484,-20736,3346,324,414.87,45.749992,4.906909,32.71,186.9,0,0.0,-1,0.0,0.0,0,0.24,1.2907
77464,1563729593824,-0,2.26,0.82,0.56,1.12,0.94,0.76,0.02,0.58,-3,-7,-2,0.76,6268,15,80,41,47,952,328.0,576,466,60,123.0,154,1,362,215,50,0,0,772,-20736,-32559,322,414.87,,,,,,,,,,,,
77484,1563729593844,2,2.25,0.82,0.56,1.13,0.94,0.65,0.07,0.52,-2,-4,-3,0.66,6294,16,80,41,47,956,329.0,578,465,60,124.0,154,1,362,215,50,0,0,200,-20736,-32559,325,648.46,,,,,,,,,,,,
77504,1563729593864,0,2.24,0.83,0.56,1.13,0.94,0.74,0.07,0.48,-2,-2,-4,0.74,6315,16,80,41,48,961,328.0,572,474,60,122.0,160,1,366,215,52,0,0,335,170,2560,325,882.05,,,,,,,,,,,,
77524,1563729593884,-1,2.24,0.82,0.56,1.12,0.94,0.86,0.1,0.52,-2,-3,-4,0.87,6291,16,80,41,48,968,329.0,594,468,60,121.0,160,1,365,220,52,0,0,8196,-20736,4838,324,414.87,,,,,,,,,,,,
77544,1563729593904,-0,2.24,0.82,0.56,1.13,0.93,0.83,0.12,0.54,-3,-3,-4,0.84,6294,16,80,41,48,972,329.0,591,468,60,123.0,160,1,365,220,52,0,0,577,-20736,3346,323,414.87,45.75,4.906912,32.96,186.9,0,0.0,-1,0.0,0.0,0,0.25,1.2924
77564,1563729593924,-0,2.23,0.82,0.56,1.13,0.94,0.73,0.08,0.63,-3,-2,-4,0.73,6270,16,80,41,48,975,332.0,578,466,60,124.0,160,1,365,220,52,0,0,11510,-32559,-31222,326,414.87,,,,,,,,,,,,
77584,1563729593944,2,2.23,0.83,0.56,1.13,0.93,0.67,0.08,0.72,-3,-1,-4,0.67,6287,16,80,41,48,979,332.0,575,470,60,123.0,160,1,365,220,52,0,0,1468,-32559,13,324,648.46,,,,,,,,,,,,
77604,1563729593964,-1,2.22,0.83,0.56,1.13,0.93,0.71,0.19,0.69,-3,0,-4,0.74,6296,16,80,41,48,982,332.0,581,474,60,123.0,160,1,365,220,52,0,0,1183,-32559,3346,325,882.05,,,,,,,,,,,,
77624,1563729593984,-1,2.22,0.83,0.56,1.13,0.94,0.83,0.18,0.67,-3,0,-5,0.85,6323,16,80,41,48,983,333.0,588,471,60,122.0,160,1,366,220,52,0,0,2466,-6528,13,327,414.87,,,,,,,,,,,,
77644,1563729593998,-2,2.24,0.82,0.56,1.12,0.93,0.9,0.18,0.69,-4,-1,-5,0.91,6349,16,80,41,48,983,332.0,586,467,60,123.0,160,1,366,220,52,0,0,745,-32559,13,324,414.87,45.750011,4.906914,32.92,186.9,0,0.0,-1,0.0,0.0,0,0.25,1.2941
77664,1563729594018,-0,2.23,0.82,0.56,1.12,0.94,0.77,0.15,0.7,-4,-1,-5,0.79,6368,16,80,41,48,986,333.0,587,468,60,124.0,160,1,366,220,52,0,0,505,-6528,13,324,414.87,,,,,,,,,,,,
77684,1563729594038,3,2.23,0.82,0.56,1.12,0.94,0.76,0.14,0.72,-4,-0,-5,0.78,6381,16,80,41,48,988,332.0,593,469,60,123.0,160,1,366,220,52,0,0,252,-32559,-31222,326,648.46,,,,,,,,,,,,
77704,1563729594058,-1,2.23,0.82,0.56,1.12,0.94,0.84,0.19,0.62,-4,2,-6,0.86,6373,17,80,41,48,989,333.0,593,471,60,122.0,165,1,366,220,54,0,0,619,-6528,13,325,1115.64,,,,,,,,,,,,
77724,1563729594078,-2,2.24,0.82,0.56,1.12,0.94,0.89,0.21,0.59,-5,1,-6,0.92,6351,17,80,41,48,989,334.0,602,470,60,123.0,165,1,366,220,54,0,0,849,4838,13,324,414.87,,,,,,,,,,,,
77744,1563729594102,2,2.23,0.82,0.56,1.12,0.94,0.76,0.19,0.59,-5,3,-6,0.78,6362,17,80,41,48,991,335.0,592,463,60,123.0,165,1,366,220,54,0,0,700,3346,-14714,328,414.87,45.750019,4.906917,33.05,186.9,0,0.0,-1,0.0,0.0,0,0.25,1.2957
77764,1563729594122,2,2.22,0.82,0.56,1.13,0.94,0.69,0.15,0.6,-5,4,-7,0.71,6371,17,80,41,49,994,336.0,589,467,60,124.0,165,1,369,220,54,0,0,163,13,-31222,329,882.05,,,,,,,,,,,,
77784,1563729594142,-2,2.23,0.82,0.56,1.13,0.94,0.76,0.18,0.52,-5,2,-8,0.78,6364,17,80,41,49,997,336.0,591,470,60,122.0,165,1,369,225,54,0,0,91,13,-31206,327,882.05,,,,,,,,,,,,
77804,1563729594162,-1,2.22,0.82,0.56,1.13,0.93,0.81,0.22,0.53,-5,-2,-7,0.84,6386,17,80,41,49,996,335.0,598,470,60,121.0,164,1,369,225,54,0,0,1022,3346,3327,328,414.87,,,,,,,,,,,,
77824,1563729594182,1,2.23,0.82,0.56,1.13,0.93,0.7,0.19,0.6,-5,-3,-7,0.72,6403,17,80,41,49,998,335.0,586,462,60,124.0,164,1,370,225,54,0,0,199,13,3327,327,414.87,,,,,,,,,,,,
77844,1563729594208,3,2.22,0.82,0.56,1.13,0.94,0.65,0.18,0.61,-5,1,-7,0.68,6430,17,80,41,49,1001,337.0,586,470,60,123.0,164,1,370,225,54,0,0,9066,2560,13,332,882.05,45.750027,4.90692,32.97,186.9,0,0.0,-1,0.0,0.0,0,0.25,1.2974
77864,1563729594228,-3,2.23,0.82,0.55,1.12,0.94,0.73,0.17,0.58,-5,3,-8,0.75,6410,17,80,41,49,1004,336.0,597,466,60,121.0,164,1,370,225,54,0,0,79,13,-10554,330,414.87,,,,,,,,,,,,
77884,1563729594248,-1,2.24,0.82,0.56,1.13,0.93,0.74,0.12,0.66,-5,2,-8,0.74,6438,17,80,41,49,1004,338.0,595,466,60,123.0,164,1,370,225,54,0,0,79,-31222,3327,329,414.87,,,,,,,,,,,,
77904,1563729594268,1,2.24,0.83,0.56,1.13,0.94,0.65,0.09,0.74,-5,5,-7,0.66,6430,17,80,41,49,1006,338.0,594,470,60,123.0,164,1,370,225,54,0,0,61,-31222,-10554,328,648.46,,,,,,,,,,,,
77924,1563729594288,-2,2.24,0.82,0.56,1.12,0.94,0.71,0.09,0.72,-5,5,-8,0.72,6463,18,80,41,49,1010,338.0,596,473,60,122.0,164,1,370,225,54,0,0,187,-31222,-31222,330,882.05,,,,,,,,,,,,
77944,1563729594308,-2,2.25,0.82,0.56,1.12,0.94,0.82,0.11,0.79,-5,3,-8,0.83,6438,18,80,41,49,1012,339.0,597,467,60,123.0,164,1,370,225,54,0,0,187,-122,-31206,330,414.87,45.750034,4.906921,33.28,186.9,0,0.0,-1,0.0,0.0,0,0.25,1.2991
77964,1563729594328,0,2.25,0.82,0.56,1.13,0.93,0.74,0.07,0.82,-5,2,-8,0.75,6443,18,80,41,49,1013,339.0,590,468,60,124.0,164,1,370,225,54,0,0,187,-122,6870,329,648.46,,,,,,,,,,,,
77984,1563729594348,2,2.25,0.82,0.56,1.12,0.94,0.75,0.09,0.71,-4,3,-8,0.76,6445,18,80,41,50,1014,339.0,601,471,60,122.0,164,1,373,225,54,0,0,784,3327,6668,333,882.05,,,,,,,,,,,,
78004,1563729594368,-1,2.25,0.82,0.56,1.13,0.93,0.85,0.14,0.58,-4,2,-9,0.86,6445,18,80,41,50,1017,338.0,605,467,60,122.0,168,1,373,231,56,0,0,295,-31222,-14714,330,414.87,,,,,,,,,,,,
78024,1563729594388,1,2.27,0.82,0.56,1.13,0.94,0.83,0.13,0.56,-5,2,-8,0.84,6472,18,80,41,50,1019,340.0,596,468,60,124.0,168,1,373,231,56,0,0,5816,3327,6870,334,414.87,,,,,,,,,,,,
78044,1563729594408,1,2.28,0.82,0.56,1.13,0.93,0.72,0.11,0.52,-4,4,-9,0.73,6499,18,80,41,50,1020,340.0,600,467,60,124.0,168,1,373,225,56,0,0,5816,3327,6870,334,882.05,45.750042,4.906923,33.28,186.9,0,0.0,-1,0.0,0.0,0,0.25,1.3007
78064,1563729594428,-1,2.28,0.82,0.56,1.13,0.93,0.83,0.1,0.49,-4,1,-9,0.84,6537,18,80,41,50,1022,339.0,610,473,60,122.0,168,1,374,231,56,0,0,71,-122,-30438,332,414.87,,,,,,,,,,,,
78084,1563729594448,2,2.29,0.82,0.56,1.13,0.93,0.76,0.1,0.55,-4,-0,-7,0.77,6528,19,80,41,50,1025,340.0,608,471,60,124.0,168,1,374,231,56,0,0,71,3327,2811,335,414.87,,,,,,,,,,,,
78104,1563729594468,7,2.29,0.82,0.56,1.13,0.94,0.71,0.1,0.54,-3,3,-8,0.72,6539,19,80,41,50,1028,341.0,595,470,60,124.0,168,1,374,231,57,0,0,53,6668,3183,335,648.46,,,,,,,,,,,,
78124,1563729594488,-2,2.3,0.82,0.55,1.13,0.94,0.84,0.11,0.58,-4,1,-7,0.84,6512,19,80,41,50,1029,342.0,609,467,60,122.0,168,1,374,231,57,0,0,138,-31206,2811,338,414.87,,,,,,,,,,,,
78144,1563729594508,1,2.29,0.82,0.56,1.13,0.94,0.73,0.06,0.66,-4,0,-6,0.74,6528,19,80,41,50,1031,340.0,591,464,60,124.0,168,1,374,231,57,0,0,253,3327,2811,339,414.87,45.750053,4.906924,33.78,186.8,0,0.0,-1,0.0,0.0,0,0.25,1.3024
78164,1563729594528,-1,2.29,0.82,0.56,1.12,0.94,0.69,0.06,0.62,-3,3,-6,0.69,6565,19,80,41,50,1032,341.0,600,470,60,122.0,168,1,374,231,57,0,0,772,6668,2811,340,882.05,,,,,,,,,,,,
78184,1563729594548,-0,2.29,0.82,0.56,1.13,0.93,0.81,0.06,0.62,-3,3,-5,0.81,6592,19,79,41,50,1033,340.0,616,471,60,122.0,168,1,374,231,57,0,0,772,-31206,8841,340,414.87,,,,,,,,,,,,
78204,1563729594568,2,2.29,0.82,0.56,1.13,0.94,0.71,0.03,0.62,-3,4,-5,0.71,6602,19,80,41,50,1034,341.0,598,466,60,124.0,167,1,375,231,57,0,0,405,6668,4104,340,648.46,,,,,,,,,,,,
78224,1563729594588,-3,2.3,0.82,0.56,1.13,0.93,0.8,0.05,0.47,-2,5,-5,0.8,6602,19,80,41,50,1033,341.0,603,466,60,122.0,167,1,375,231,57,0,0,570,3327,2811,341,414.87,,,,,,,,,,,,
78244,1563729594606,-0,2.3,0.82,0.56,1.13,0.93,0.81,0.01,0.55,-3,4,-3,0.81,6609,19,80,41,50,1031,342.0,602,468,60,125.0,167,1,375,231,57,0,0,109,6668,4104,340,414.87,45.750061,4.906925,33.99,186.8,0,0.0,-1,0.0,0.0,0,0.25,1.3041
78264,1563729594626,-1,2.29,0.82,0.56,1.13,0.93,0.79,-0.01,0.59,-3,3,-3,0.79,6595,19,80,41,51,1029,344.0,603,467,60,123.0,167,1,377,236,57,0,0,109,-10554,28553,343,648.46,,,,,,,,,,,,
78284,1563729594646,1,2.31,0.82,0.55,1.13,0.93,0.84,-0.03,0.58,-3,-1,-2,0.84,6641,19,80,41,50,1025,345.0,608,468,60,123.0,167,1,375,237,57,0,0,109,6870,-6644,344,414.87,,,,,,,,,,,,
78304,1563729594666,3,2.31,0.82,0.56,1.13,0.94,0.76,0.01,0.66,-2,-0,-1,0.76,6648,19,80,41,50,1024,345.0,607,466,60,124.0,168,1,375,231,58,0,0,2315,-10554,-29978,343,648.46,,,,,,,,,,,,
78324,1563729594686,-1,2.32,0.81,0.55,1.12,0.93,0.82,0.04,0.66,-2,0,-2,0.82,6639,18,80,41,51,1021,344.0,617,472,60,123.0,168,1,378,237,58,0,0,5923,-10554,-6640,343,414.87,,,,,,,,,,,,
78344,1563729594706,1,2.34,0.81,0.55,1.12,0.94,0.74,-0.06,0.77,-2,-1,-2,0.74,6653,14,80,41,50,1018,347.0,608,464,60,124.0,168,1,375,231,58,0,0,5923,-14714,-14707,347,648.46,45.750069,4.906926,34.42,186.8,0,0.0,-1,0.0,0.0,0,0.25,1.3057
78364,1563729594726,-1,2.34,0.82,0.56,1.12,0.93,0.76,-0.01,0.7,-1,1,-2,0.76,6677,10,80,41,49,1017,346.0,612,473,60,122.0,168,1,373,226,58,0,0,5923,-30438,-29978,342,414.87,,,,,,,,,,,,
78384,1563729594746,2,2.36,0.82,0.55,1.12,0.94,0.76,-0.09,0.74,-2,-3,-1,0.76,6706,7,80,41,47,1016,347.0,616,470,60,123.0,168,1,367,217,58,0,0,5923,6870,-29978,347,648.46,,,,,,,,,,,,
78404,1563729594766,-1,2.37,0.81,0.56,1.13,0.94,0.79,-0.04,0.59,-0,-1,-2,0.79,6684,0,80,41,45,1015,350.0,620,470,60,121.0,154,1,352,213,54,0,0,5923,-10554,4104,350,882.05,,,,,,,,,,,,
78424,1563729594786,-0,2.38,0.82,0.55,1.12,0.93,0.81,-0.08,0.5,-0,-0,-1,0.81,6623,0,79,41,43,1013,350.0,608,466,60,124.0,154,1,338,210,54,0,0,5923,6870,2790,349,414.87,,,,,,,,,,,,
78444,1563729594807,2,2.38,0.82,0.56,1.12,0.93,0.78,-0.07,0.53,0,-0,-1,0.79,6551,0,80,41,41,1011,350.0,600,467,60,124.0,154,1,323,207,54,0,0,317,-30438,-14707,350,882.05,45.750076,4.906927,34.66,186.7,0,0.0,-1,0.0,0.0,0,0.25,1.3074
78464,1563729594827,-0,2.37,0.83,0.56,1.13,0.93,0.83,-0.12,0.54,1,-0,-1,0.84,6512,0,80,41,40,1009,350.0,607,475,60,123.0,154,1,316,205,54,0,0,317,8841,-14707,350,414.87,,,,,,,,,,,,
78484,1563729594847,0,2.38,0.82,0.56,1.13,0.94,0.87,-0.15,0.55,1,-2,1,0.88,6469,0,80,41,39,1004,349.0,601,469,60,124.0,154,1,310,204,54,0,0,561,6870,-29302,349,414.87,,,,,,,,,,,,
78504,1563729594867,4,2.38,0.82,0.56,1.13,0.94,0.8,-0.14,0.55,2,-2,1,0.81,6410,0,80,41,38,997,353.0,590,469,60,123.0,139,1,307,199,49,0,0,215,-10554,-29978,353,648.46,,,,,,,,,,,,
78524,1563729594887,1,2.39,0.83,0.56,1.13,0.94,0.81,-0.1,0.45,3,-1,0,0.81,6340,0,80,41,38,990,346.0,584,472,60,123.0,139,1,307,199,49,0,0,311,-31206,-29978,346,882.05,,,,,,,,,,,,
78544,1563729594905,1,2.39,0.82,0.56,1.12,0.94,0.91,-0.07,0.45,3,-1,0,0.91,6223,0,80,41,38,985,348.0,584,471,60,122.0,139,1,307,199,49,0,0,770,-14714,-6640,348,414.87,45.750088,4.906928,34.98,186.6,0,0.0,-1,0.0,0.0,0,0.25,1.3091
78564,1563729594925,1,2.39,0.82,0.56,1.13,0.93,0.97,-0.11,0.5,3,-3,2,0.97,6121,0,80,41,38,971,347.0,582,473,60,122.0,139,1,307,199,49,0,0,183,-31206,-14707,348,414.87,,,,,,,,,,,,
78584,1563729594945,-0,2.4,0.82,0.56,1.13,0.93,1.02,-0.15,0.63,2,-4,3,1.03,6032,0,80,41,37,951,348.0,574,467,60,123.0,139,1,304,199,49,0,0,183,3327,-29978,348,-5.59,,,,,,,,,,,,
78604,1563729594965,1,2.39,0.82,0.56,1.13,0.94,1.04,-0.19,0.68,1,-5,5,1.05,5924,0,80,41,37,933,348.0,565,468,60,124.0,125,1,299,198,44,0,0,2149,6668,-6644,348,414.87,,,,,,,,,,,,
78624,1563729594985,1,2.39,0.82,0.56,1.13,0.93,1.14,-0.15,0.63,1,-8,6,1.15,5879,0,80,41,38,917,348.0,557,470,60,122.0,125,1,299,198,44,0,0,261,3327,-30454,344,414.87,,,,,,,,,,,,
78644,1563729594999,2,2.39,0.82,0.56,1.12,0.94,1.23,-0.13,0.61,0,-10,6,1.23,5942,0,80,41,38,898,343.0,562,471,60,123.0,125,1,303,198,44,0,0,261,3346,-31222,343,414.87,45.750095,4.90693,34.69,186.5,0,0.0,-1,0.0,0.0,0,0.26,1.3107
78664,1563729595019,3,2.39,0.82,0.56,1.13,0.94,1.3,-0.1,0.59,-0,-11,7,1.31,6030,0,80,41,38,873,335.0,570,471,60,123.0,125,1,307,193,44,0,0,81,-12032,-12032,335,882.05,,,,,,,,,,,,
78684,1563729595039,5,2.4,0.82,0.56,1.13,0.94,1.35,-0.05,0.6,-0,-12,8,1.35,6133,0,80,41,37,851,335.0,580,467,60,121.0,125,1,304,193,44,0,0,174,-22016,-29696,335,414.87,,,,,,,,,,,,
78704,1563729595059,4,2.4,0.82,0.56,1.13,0.93,1.34,-0.06,0.6,-0,-12,9,1.34,6147,0,80,41,37,840,332.0,574,467,60,124.0,135,1,304,193,45,0,0,516,-24576,120,332,414.87,,,,,,,,,,,,
78724,1563729595079,5,2.4,0.82,0.56,1.14,0.94,1.29,-0.11,0.66,0,-13,9,1.29,6077,0,79,41,36,830,331.0,578,470,60,122.0,135,1,301,193,45,0,0,516,-27136,4838,332,414.87,,,,,,,,,,,,
78744,1563729595103,5,2.4,0.82,0.56,1.12,0.94,1.17,-0.17,0.72,1,-12,9,1.18,6030,0,80,41,36,822,329.0,577,463,60,123.0,135,1,301,187,45,0,0,265,-27136,-32559,329,414.87,45.750107,4.906931,34.62,186.5,0,0.0,-1,0.0,0.0,0,0.26,1.3124
78764,1563729595123,5,2.41,0.82,0.56,1.13,0.93,1.09,-0.19,0.73,2,-11,9,1.1,6009,0,80,41,36,816,326.0,575,466,60,123.0,135,1,301,193,45,0,0,292,140,170,324,414.87,,,,,,,,,,,,
78784,1563729595143,7,2.4,0.82,0.56,1.12,0.94,1.03,-0.21,0.72,2,-10,10,1.05,6021,0,80,41,36,819,321.0,557,467,60,124.0,135,1,301,187,45,0,0,292,130,-23296,321,414.87,,,,,,,,,,,,
78804,1563729595163,6,2.41,0.82,0.56,1.13,0.94,0.96,-0.29,0.8,3,-11,11,1.01,5973,0,80,41,36,825,319.0,559,467,60,124.0,131,1,299,186,42,0,0,292,32000,145,316,414.87,,,,,,,,,,,,
78824,1563729595183,5,2.41,0.82,0.56,1.13,0.93,0.92,-0.29,0.82,4,-10,13,0.97,5942,0,80,41,36,839,318.0,550,469,60,124.0,131,1,297,192,42,0,0,57,32000,-27136,318,414.87,,,,,,,,,,,,
78844,1563729595207,3,2.41,0.82,0.56,1.14,0.93,0.89,-0.29,0.84,4,-8,13,0.93,5879,0,80,41,37,852,315.0,557,468,60,123.0,131,1,296,192,42,0,0,153,29440,145,315,414.87,45.750114,4.906932,33.04,186.4,0,0.0,-1,0.0,0.0,0,0.26,1.3141
78864,1563729595227,5,2.4,0.82,0.56,1.13,0.94,0.96,-0.24,0.78,5,-7,12,0.99,5822,0,80,41,37,863,314.0,552,469,60,122.0,131,1,293,192,42,0,0,153,28160,145,314,414.87,,,,,,,,,,,,
78884,1563729595247,4,2.4,0.82,0.56,1.13,0.94,1.07,-0.24,0.78,4,-7,12,1.1,5772,0,80,41,37,873,311.0,547,468,60,121.0,131,1,290,191,42,0,0,59,25600,-30976,311,414.87,,,,,,,,,,,,
78904,1563729595267,8,2.4,0.83,0.56,1.13,0.94,1.16,-0.21,0.68,3,-6,12,1.18,5726,0,80,41,38,884,307.0,541,468,60,122.0,133,1,288,191,41,0,0,485,100,-29696,307,882.05,,,,,,,,,,,,
78924,1563729595287,6,2.41,0.82,0.56,1.14,0.94,1.11,-0.23,0.63,4,-3,11,1.13,5669,0,80,41,38,896,305.0,538,469,60,124.0,133,1,287,197,41,0,0,24968,90,32000,305,648.46,,,,,,,,,,,,
78944,1563729595308,5,2.41,0.82,0.56,1.13,0.94,0.96,-0.28,0.69,5,-1,11,1.0,5627,0,80,41,38,898,301.0,535,467,60,124.0,133,1,284,197,41,0,0,257,23040,29440,301,414.87,45.750122,4.906934,32.97,186.4,0,0.0,-1,0.0,0.0,0,0.26,1.3157
78964,1563729595328,2,2.42,0.82,0.56,1.13,0.93,0.93,-0.22,0.65,5,-4,12,0.96,5582,0,80,41,39,898,301.0,533,466,60,123.0,133,1,284,201,41,0,0,1964,20480,29440,298,414.87,,,,,,,,,,,,
78984,1563729595348,6,2.41,0.82,0.55,1.13,0.94,1.04,-0.26,0.68,4,-7,13,1.07,5529,0,80,41,40,897,297.0,526,471,60,123.0,133,1,285,202,41,0,0,693,0,100,297,882.05,,,,,,,,,,,,
79004,1563729595368,4,2.41,0.82,0.56,1.13,0.93,0.94,-0.27,0.77,4,-5,11,0.98,5463,0,80,41,40,897,296.0,519,467,60,124.0,142,1,281,202,42,0,0,1308,0,105,296,414.87,,,,,,,,,,,,
79024,1563729595388,1,2.42,0.82,0.56,1.12,0.94,0.91,-0.15,0.66,5,-5,12,0.92,5442,0,80,41,41,896,297.0,526,467,60,122.0,142,1,284,204,42,0,0,1722,0,25600,297,414.87,,,,,,,,,,,,
79044,1563729595403,4,2.41,0.82,0.56,1.13,0.94,1.01,-0.19,0.59,5,-7,10,1.03,5450,0,80,41,41,895,293.0,507,466,60,124.0,142,1,285,204,42,0,0,469,250,85,292,648.46,45.75013,4.906937,31.42,186.4,0,0.0,-1,0.0,0.0,0,0.26,1.3174
79064,1563729595423,1,2.42,0.82,0.56,1.13,0.94,0.92,-0.24,0.58,6,-6,10,0.95,5439,0,80,41,42,896,292.0,505,465,60,124.0,142,1,288,205,42,0,0,1767,24064,24320,292,414.87,,,,,,,,,,,,
79084,1563729595443,2,2.41,0.82,0.56,1.13,0.93,1.03,-0.21,0.49,6,-6,10,1.05,5428,0,80,41,43,897,290.0,522,473,60,123.0,142,1,291,207,42,0,0,1767,-1534,85,290,882.05,,,,,,,,,,,,
79104,1563729595463,2,2.42,0.82,0.56,1.13,0.94,0.98,-0.23,0.4,6,-4,11,1.0,5401,0,80,41,43,901,289.0,501,468,60,123.0,145,1,290,207,42,0,0,47,30208,20480,289,648.46,,,,,,,,,,,,
79124,1563729595483,1,2.42,0.81,0.55,1.13,0.94,0.9,-0.19,0.35,7,-2,11,0.92,5366,0,80,41,44,903,286.0,507,464,60,124.0,145,1,290,208,42,0,0,116,250,0,285,414.87,,,,,,,,,,,,
79144,1563729595505,3,2.42,0.82,0.56,1.13,0.94,0.99,-0.19,0.38,7,-1,11,1.01,5355,0,80,41,45,913,285.0,498,468,60,124.0,145,1,293,208,42,0,0,426,2414,0,285,882.05,45.750134,4.906939,30.49,186.3,0,0.0,-1,0.0,0.0,0,0.26,1.3191
79164,1563729595525,-1,2.43,0.82,0.56,1.13,0.94,0.87,-0.25,0.45,7,2,11,0.9,5260,0,80,41,45,927,285.0,503,465,60,123.0,145,1,286,210,42,0,0,93,28160,0,285,414.87,,,,,,,,,,,,
79184,1563729595545,1,2.43,0.82,0.56,1.13,0.94,0.97,-0.28,0.52,7,0,10,1.01,5215,0,80,41,45,937,284.0,483,471,60,123.0,145,1,282,210,42,0,0,93,28160,10686,284,882.05,,,,,,,,,,,,
79204,1563729595565,-2,2.43,0.82,0.56,1.13,0.94,0.9,-0.31,0.55,7,1,11,0.95,5211,0,80,41,46,948,283.0,491,467,60,124.0,144,1,284,212,41,0,0,93,250,-1529,283,414.87,,,,,,,,,,,,
79224,1563729595585,1,2.43,0.83,0.56,1.13,0.94,0.98,-0.36,0.58,7,-2,9,1.04,5202,0,80,41,47,955,282.0,494,470,60,123.0,144,1,288,212,41,0,0,479,-1281,41,281,648.46,,,,,,,,,,,,
79244,1563729595607,-0,2.42,0.82,0.56,1.12,0.94,0.92,-0.31,0.48,7,-0,10,0.97,5166,0,80,41,47,962,278.0,496,463,60,123.0,144,1,284,214,41,0,0,479,-1281,250,278,414.87,45.750145,4.906941,30.37,186.3,0,0.0,-1,0.0,0.0,0,0.26,1.3207
79264,1563729595627,-0,2.43,0.82,0.56,1.14,0.93,0.92,-0.35,0.45,8,-0,9,0.99,5173,0,80,41,48,965,278.0,484,471,60,124.0,144,1,289,214,41,0,0,479,-1,24064,278,414.87,,,,,,,,,,,,
79284,1563729595647,-1,2.42,0.82,0.56,1.13,0.94,0.9,-0.26,0.33,8,2,9,0.94,5180,0,80,41,48,962,277.0,494,463,60,122.0,144,1,290,217,41,0,0,479,-1,250,277,414.87,,,,,,,,,,,,
79304,1563729595667,-2,2.43,0.83,0.56,1.14,0.94,0.9,-0.29,0.35,8,3,9,0.94,5175,0,80,41,48,957,278.0,483,472,60,124.0,152,1,289,217,42,0,0,479,-1,250,278,181.28,,,,,,,,,,,,
79324,1563729595687,2,2.42,0.83,0.56,1.14,0.94,0.98,-0.21,0.34,8,2,10,1.0,5125,0,80,41,49,948,278.0,490,468,60,123.0,152,1,289,220,42,0,0,479,-1,630,278,882.05,,,,,,,,,,,,
79344,1563729595707,-1,2.43,0.82,0.56,1.13,0.94,0.88,-0.23,0.41,8,4,10,0.91,5095,0,80,41,49,942,276.0,483,468,60,123.0,152,1,286,220,42,0,0,8772,-1,30208,276,414.87,45.750153,4.906943,30.21,186.3,0,0.0,-1,0.0,0.0,0,0.26,1.3224
79364,1563729595727,-1,2.43,0.82,0.56,1.13,0.94,0.97,-0.25,0.4,8,1,10,1.01,5128,0,80,41,50,935,275.0,483,472,60,124.0,152,1,293,220,42,0,0,150,-1,30208,272,648.46,,,,,,,,,,,,
79384,1563729595747,-1,2.42,0.82,0.56,1.13,0.94,0.91,-0.19,0.35,8,2,11,0.93,5100,0,80,41,50,930,272.0,487,470,60,123.0,152,1,291,223,42,0,0,108,-1,-1527,272,181.28,,,,,,,,,,,,
79404,1563729595767,-1,2.42,0.82,0.56,1.13,0.93,0.93,-0.24,0.42,8,1,9,0.96,5053,0,80,41,50,924,272.0,476,473,60,124.0,154,1,287,223,42,0,0,3188,-1,28160,272,414.87,,,,,,,,,,,,
79424,1563729595787,2,2.42,0.83,0.56,1.14,0.94,1.01,-0.16,0.34,8,-0,10,1.03,5014,0,80,41,51,920,266.0,479,468,60,122.0,154,1,288,224,42,0,0,3188,-1,2414,266,882.05,,,,,,,,,,,,
79444,1563729595808,-1,2.41,0.82,0.56,1.12,0.94,0.89,-0.19,0.44,8,0,10,0.91,5010,0,79,41,51,921,269.0,479,467,60,122.0,154,1,287,224,42,0,0,3188,-41,-1527,269,414.87,45.750156,4.906946,29.34,186.3,0,0.0,-1,0.0,0.0,0,0.26,1.3241
79464,1563729595828,-2,2.42,0.82,0.56,1.14,0.93,0.91,-0.24,0.54,8,-1,9,0.94,4988,0,80,41,51,921,268.0,461,468,60,122.0,154,1,285,224,42,0,0,48,-41,-1281,268,414.87,,,,,,,,,,,,
79484,1563729595848,2,2.42,0.82,0.56,1.14,0.94,0.97,-0.19,0.45,8,-1,11,0.99,4980,0,80,41,51,921,267.0,468,470,60,122.0,154,1,284,224,42,0,0,212,14337,2414,267,882.05,,,,,,,,,,,,
79504,1563729595868,-2,2.42,0.82,0.56,1.13,0.94,0.86,-0.22,0.44,8,1,10,0.89,4978,0,80,41,52,920,267.0,472,466,60,122.0,157,1,289,226,42,0,0,423,506,-1,267,414.87,,,,,,,,,,,,
79524,1563729595888,-1,2.42,0.82,0.55,1.13,0.94,0.91,-0.29,0.49,8,-1,9,0.96,4965,0,80,41,52,920,264.0,460,468,60,123.0,157,1,287,226,42,0,0,423,506,28160,264,414.87,,,,,,,,,,,,
79544,1563729595908,1,2.41,0.83,0.56,1.13,0.94,0.98,-0.16,0.38,8,-2,11,1.0,4955,0,80,41,53,919,263.0,458,470,60,123.0,157,1,289,229,42,0,0,423,-1,-1,263,882.05,45.750168,4.906947,28.53,186.3,0,0.0,-1,0.0,0.0,0,0.26,1.3257
79564,1563729595928,-1,2.41,0.83,0.56,1.14,0.94,0.88,-0.13,0.3,8,0,10,0.89,4932,0,80,41,52,916,263.0,473,468,60,123.0,157,1,283,229,42,0,0,634,-1,-1,263,414.87,,,,,,,,,,,,
79584,1563729595948,-1,2.4,0.83,0.56,1.13,0.94,0.86,-0.21,0.43,7,-0,10,0.89,4876,0,80,41,52,914,261.0,460,464,60,124.0,157,1,276,225,42,0,0,634,-1,-1,261,414.87,,,,,,,,,,,,
79604,1563729595968,-2,2.4,0.82,0.55,1.13,0.94,0.88,-0.21,0.47,7,-1,9,0.91,4866,0,80,41,53,913,262.0,450,472,60,124.0,160,1,279,228,42,0,0,634,-214,-1,262,414.87,,,,,,,,,,,,
79624,1563729595988,2,2.38,0.83,0.56,1.14,0.94,0.92,-0.13,0.33,7,-1,9,0.93,4853,0,80,41,53,910,261.0,446,469,60,124.0,160,1,277,228,42,0,0,634,-214,-1,261,882.05,,,,,,,,,,,,
79644,1563729595996,3,2.36,0.83,0.56,1.13,0.94,0.83,-0.11,0.26,7,2,9,0.83,4844,0,80,41,53,905,259.0,452,466,60,123.0,160,1,276,227,42,0,0,634,10818,-1,259,882.05,45.750172,4.90695,27.57,186.3,0,0.0,-1,0.0,0.0,0,0.26,1.3274
79664,1563729596016,-2,2.34,0.82,0.56,1.13,0.94,0.81,-0.15,0.36,7,3,9,0.82,4817,0,80,41,53,901,258.0,448,466,60,123.0,160,1,273,227,42,0,0,634,-1,-1,258,414.87,,,,,,,,,,,,
79684,1563729596036,-1,2.32,0.82,0.55,1.14,0.94,0.87,-0.16,0.46,6,-0,9,0.89,4807,0,80,41,53,898,256.0,450,466,60,125.0,160,1,271,227,42,0,0,634,-214,-1,256,414.87,,,,,,,,,,,,
79704,1563729596056,-0,2.31,0.82,0.56,1.13,0.94,0.92,-0.12,0.43,6,-3,8,0.93,4816,0,80,41,53,894,254.0,450,475,60,123.0,160,1,272,227,41,0,0,18,-214,506,254,648.46,,,,,,,,,,,,
79724,1563729596076,2,2.29,0.82,0.56,1.13,0.94,0.96,-0.09,0.35,5,-2,7,0.96,4799,0,80,41,53,891,252.0,447,473,60,123.0,160,1,270,226,41,0,0,18,-214,-1,252,648.46,,,,,,,,,,,,
79744,1563729596106,2,2.27,0.82,0.56,1.12,0.94,0.88,-0.06,0.31,4,1,6,0.89,4772,0,80,41,53,888,252.0,451,466,60,122.0,160,1,267,226,41,0,0,57,-1,506,250,414.87,45.750176,4.906952,26.47,186.2,0,0.0,-1,0.0,0.0,0,0.27,1.3291
79764,1563729596126,-2,2.25,0.82,0.56,1.13,0.93,0.84,-0.04,0.37,4,2,5,0.84,4785,0,80,41,53,888,251.0,439,469,60,124.0,160,1,268,226,41,0,0,14889,-214,-214,250,414.87,,,,,,,,,,,,
79784,1563729596146,-2,2.22,0.82,0.56,1.11,0.94,0.88,-0.01,0.47,3,-1,3,0.88,4772,0,80,41,53,888,251.0,442,465,60,124.0,160,1,267,226,41,0,0,202,-214,-1,247,414.87,,,,,,,,,,,,
79804,1563729596166,-1,2.2,0.82,0.55,1.12,0.93,0.92,0.02,0.42,2,-3,3,0.92,4750,0,80,41,53,888,251.0,440,470,60,123.0,161,1,264,226,40,0,0,202,-214,-1,245,648.46,,,,,,,,,,,,
79824,1563729596186,1,2.19,0.82,0.55,1.13,0.94,0.95,0.03,0.29,1,-3,2,0.96,4712,0,80,41,53,888,251.0,438,471,60,123.0,161,1,259,230,40,0,0,68,-214,16896,244,648.46,,,,,,,,,,,,
79844,1563729596206,-0,2.19,0.82,0.56,1.13,0.93,0.94,0.08,0.21,0,-2,2,0.95,4685,0,80,41,53,888,251.0,440,465,60,122.0,161,1,253,225,40,0,0,68,-214,250,243,1115.64,45.750183,4.906954,25.75,186.2,0,0.0,-1,0.0,0.0,0,0.27,1.3307
79864,1563729596226,3,2.16,0.81,0.56,1.12,0.93,0.91,0.13,0.19,-0,0,1,0.91,4653,0,80,41,53,887,251.0,440,466,60,123.0,161,1,251,225,40,0,0,68,-214,-1494,242,882.05,,,,,,,,,,,,
79884,1563729596246,3,2.15,0.82,0.55,1.13,0.93,0.86,0.17,0.24,-2,2,-0,0.88,4636,0,80,41,53,886,252.0,431,469,60,122.0,161,1,249,225,40,0,0,68,-1,15360,241,414.87,,,,,,,,,,,,
79904,1563729596266,-1,2.14,0.81,0.56,1.12,0.94,0.79,0.16,0.3,-3,1,-3,0.81,4636,0,80,41,53,886,251.0,436,467,60,121.0,163,1,249,225,39,0,0,27,-214,15360,239,414.87,,,,,,,,,,,,
79924,1563729596286,-1,2.12,0.81,0.56,1.12,0.94,0.75,0.16,0.39,-4,-1,-3,0.77,4603,0,80,41,53,885,251.0,421,470,60,123.0,163,1,245,225,39,0,0,248,-214,-1484,237,414.87,,,,,,,,,,,,
79944,1563729596306,-2,2.11,0.81,0.56,1.12,0.93,0.74,0.15,0.45,-6,-1,-5,0.75,4604,0,80,41,53,885,250.0,426,466,60,124.0,163,1,246,225,39,0,0,253,10818,-1484,234,414.87,45.750191,4.906957,25.37,186.1,0,0.0,-1,0.0,0.0,0,0.27,1.3324
79964,1563729596326,-1,2.09,0.82,0.55,1.13,0.94,0.77,0.16,0.44,-6,-2,-6,0.79,4588,0,80,41,53,883,250.0,423,465,60,124.0,163,1,244,224,39,0,0,252,10818,250,233,414.87,,,,,,,,,,,,
79984,1563729596346,-1,2.08,0.82,0.55,1.13,0.94,0.84,0.16,0.47,-7,-5,-7,0.85,4602,0,80,41,54,882,248.0,422,468,60,124.0,163,1,248,225,39,0,0,250,250,-1483,231,414.87,,,,,,,,,,,,
80004,1563729596366,-2,2.08,0.82,0.55,1.12,0.94,0.9,0.16,0.49,-8,-8,-7,0.91,4562,0,80,41,53,880,249.0,418,469,60,124.0,164,1,240,224,38,0,0,250,250,250,230,414.87,,,,,,,,,,,,
80024,1563729596386,-1,2.05,0.82,0.55,1.13,0.93,0.93,0.19,0.47,-8,-10,-8,0.95,4531,0,80,41,53,879,248.0,411,466,60,124.0,164,1,236,224,38,0,0,252,-1494,250,229,414.87,,,,,,,,,,,,
80044,1563729596408,-2,2.05,0.81,0.56,1.12,0.93,0.95,0.22,0.51,-9,-12,-9,0.98,4511,0,80,41,53,879,250.0,418,467,60,124.0,164,1,233,224,38,0,0,252,10818,8704,226,414.87,45.750195,4.90696,24.59,186.0,0,0.0,-1,0.0,0.0,0,0.27,1.3341
80064,1563729596428,-1,2.03,0.82,0.55,1.12,0.93,0.99,0.27,0.52,-10,-15,-9,1.03,4498,0,80,41,53,880,248.0,412,468,60,124.0,164,1,232,224,38,0,0,251,250,-1494,227,181.28,,,,,,,,,,,,
80084,1563729596448,-1,2.02,0.81,0.55,1.12,0.93,1.01,0.26,0.53,-10,-15,-10,1.05,4469,0,80,41,54,881,248.0,411,470,60,125.0,164,1,231,227,38,0,0,253,250,-1496,225,414.87,,,,,,,,,,,,
80104,1563729596468,-1,2.02,0.81,0.55,1.12,0.94,1.05,0.27,0.52,-11,-17,-11,1.08,4455,0,80,41,53,883,249.0,415,468,60,124.0,169,1,226,224,38,0,0,251,16896,-1496,222,414.87,,,,,,,,,,,,
80124,1563729596488,-3,2.01,0.81,0.55,1.12,0.92,1.06,0.29,0.54,-12,-18,-10,1.1,4461,0,80,41,53,885,247.0,405,469,60,124.0,169,1,227,224,38,0,0,248,-1494,-1496,223,181.28,,,,,,,,,,,,
80144,1563729596500,-2,2.0,0.81,0.55,1.12,0.93,1.08,0.27,0.59,-13,-20,-11,1.11,4436,0,80,41,53,886,247.0,410,470,60,124.0,169,1,224,224,38,0,0,249,-1494,19968,221,414.87,45.750198,4.906961,24.62,185.9,0,0.0,-1,0.0,0.0,0,0.27,1.3357
80164,1563729596520,-1,2.0,0.81,0.56,1.12,0.93,1.08,0.27,0.58,-14,-19,-12,1.11,4425,0,80,41,53,887,248.0,400,462,60,123.0,169,1,222,220,38,0,0,247,250,250,220,414.87,,,,,,,,,,,,
80184,1563729596540,-1,2.0,0.82,0.55,1.12,0.93,1.08,0.24,0.61,-15,-18,-13,1.11,4393,0,80,41,53,887,248.0,409,466,60,123.0,169,1,218,223,38,0,0,249,250,1596,219,414.87,,,,,,,,,,,,
80204,1563729596560,-1,2.0,0.82,0.55,1.12,0.93,1.06,0.27,0.63,-16,-17,-15,1.09,4369,0,80,41,53,886,245.0,399,462,60,123.0,168,1,215,223,37,0,0,246,15360,1596,217,414.87,,,,,,,,,,,,
80224,1563729596580,1,2.0,0.81,0.56,1.12,0.93,1.0,0.3,0.56,-17,-15,-16,1.05,4359,0,80,41,53,886,244.0,402,463,60,122.0,168,1,214,223,37,0,0,246,250,-1532,219,414.87,,,,,,,,,,,,
80244,1563729596606,0,1.99,0.81,0.55,1.12,0.92,0.96,0.3,0.51,-17,-11,-19,1.01,4349,0,80,41,53,885,244.0,402,466,60,121.0,168,1,213,223,37,0,0,246,250,-1532,218,648.46,45.750206,4.906963,24.69,185.8,0,0.0,-1,0.0,0.0,0,0.27,1.3374
80264,1563729596626,-0,1.99,0.81,0.55,1.12,0.93,0.94,0.34,0.41,-18,-7,-20,1.0,4362,0,80,41,53,885,244.0,398,470,60,124.0,168,1,215,223,37,0,0,245,250,250,217,882.05,,,,,,,,,,,,
80284,1563729596646,0,1.99,0.82,0.55,1.13,0.93,0.93,0.36,0.35,-18,-4,-21,1.0,4339,0,80,41,53,883,243.0,401,470,60,124.0,168,1,212,223,37,0,0,244,-1445,-1532,218,882.05,,,,,,,,,,,,
80304,1563729596666,-1,1.98,0.81,0.55,1.12,0.94,0.93,0.39,0.31,-18,-2,-22,1.01,4311,0,80,41,53,881,242.0,391,463,60,124.0,166,1,208,223,36,0,0,244,23482,-17920,215,648.46,,,,,,,,,,,,
80324,1563729596686,-2,1.99,0.82,0.55,1.13,0.93,0.93,0.4,0.33,-18,-3,-23,1.01,4314,0,80,41,53,878,241.0,390,463,60,124.0,166,1,209,223,36,0,0,244,-17920,1210,214,181.28,,,,,,,,,,,,
80344,1563729596706,-1,1.99,0.81,0.55,1.12,0.93,0.95,0.39,0.44,-19,-6,-22,1.03,4277,0,80,41,53,876,241.0,387,467,60,124.0,166,1,204,222,36,0,0,244,-17920,-1532,215,414.87,45.750214,4.906964,24.66,185.8,0,0.0,-1,0.0,0.0,0,0.27,1.3391
80364,1563729596726,-1,1.99,0.81,0.55,1.13,0.93,0.97,0.36,0.55,-19,-9,-22,1.04,4299,0,80,41,53,874,240.0,393,466,60,123.0,166,1,207,222,36,0,0,241,250,250,213,414.87,,,,,,,,,,,,
80384,1563729596746,3,1.99,0.81,0.56,1.12,0.94,0.94,0.35,0.54,-20,-8,-22,1.01,4273,0,80,41,53,871,240.0,400,468,60,121.0,166,1,203,222,36,0,0,243,-1484,16384,213,414.87,,,,,,,,,,,,
80404,1563729596766,1,1.99,0.82,0.55,1.12,0.93,0.91,0.4,0.49,-20,-5,-24,0.99,4242,0,80,41,53,870,240.0,392,470,60,122.0,164,1,199,222,35,0,0,240,250,-1532,211,882.05,,,,,,,,,,,,
80424,1563729596786,-1,1.99,0.81,0.56,1.12,0.94,0.9,0.39,0.4,-20,-2,-25,0.98,4269,0,80,41,54,870,239.0,388,471,60,123.0,164,1,205,225,35,0,0,239,-1484,250,211,648.46,,,,,,,,,,,,
80444,1563729596804,-2,2.0,0.81,0.55,1.12,0.93,0.9,0.4,0.34,-20,-1,-25,0.99,4243,0,80,41,53,870,238.0,376,470,60,124.0,164,1,199,222,35,0,0,241,13468,16384,211,414.87,45.750217,4.906965,23.65,185.9,0,0.0,-1,0.0,0.0,0,0.27,1.3407
80464,1563729596824,-1,2.0,0.82,0.56,1.12,0.93,0.92,0.36,0.36,-20,-3,-25,0.98,4214,0,80,41,53,872,238.0,381,465,60,124.0,164,1,196,222,35,0,0,240,13468,250,209,414.87,,,,,,,,,,,,
80484,1563729596844,-1,2.02,0.81,0.55,1.13,0.93,0.92,0.33,0.42,-20,-5,-25,0.97,4229,0,80,41,54,874,237.0,383,467,60,124.0,164,1,199,222,35,0,0,239,-25600,-1533,209,414.87,,,,,,,,,,,,
80504,1563729596864,1,2.02,0.82,0.55,1.12,0.93,0.89,0.37,0.39,-21,-4,-25,0.96,4197,0,80,41,53,875,236.0,388,464,60,122.0,172,1,193,221,36,0,0,237,13602,250,211,414.87,,,,,,,,,,,,
80524,1563729596884,-0,2.02,0.82,0.55,1.13,0.93,0.85,0.38,0.34,-21,-1,-26,0.93,4155,0,80,41,54,877,235.0,374,468,60,122.0,172,1,190,221,36,0,0,236,-1483,-1533,208,882.05,,,,,,,,,,,,
80544,1563729596908,-1,2.03,0.81,0.55,1.13,0.94,0.89,0.39,0.32,-20,-1,-26,0.97,4184,0,80,41,54,883,235.0,371,471,60,123.0,172,1,194,224,36,0,0,236,-1483,-1533,209,414.87,45.750225,4.906966,22.89,185.9,0,0.0,-1,0.0,0.0,0,0.27,1.3424
80564,1563729596928,-2,2.03,0.82,0.56,1.12,0.94,0.91,0.36,0.37,-20,-3,-26,0.97,4209,0,80,41,54,889,232.0,380,467,60,124.0,172,1,197,225,36,0,0,237,250,-14848,208,181.28,,,,,,,,,,,,
80584,1563729596948,1,2.04,0.82,0.55,1.12,0.93,0.93,0.37,0.41,-20,-4,-25,1.0,4140,0,80,41,53,893,231.0,376,469,60,123.0,172,1,186,220,36,0,0,235,-1494,250,209,414.87,,,,,,,,,,,,
80604,1563729596968,0,2.05,0.81,0.56,1.12,0.93,0.89,0.35,0.45,-20,-1,-26,0.95,4200,0,80,41,54,897,231.0,383,468,60,122.0,167,1,196,225,35,0,0,234,-1494,-1533,207,882.05,,,,,,,,,,,,
80624,1563729596988,-1,2.06,0.82,0.56,1.12,0.93,0.89,0.35,0.44,-20,2,-27,0.96,4190,0,80,41,54,905,230.0,376,466,60,124.0,167,1,194,224,35,0,0,231,10824,966,208,648.46,,,,,,,,,,,,
80644,1563729596999,-1,2.06,0.82,0.55,1.13,0.93,0.91,0.35,0.46,-19,1,-26,0.97,4108,0,80,41,54,914,230.0,376,466,60,124.0,167,1,184,224,35,0,0,233,10824,-1533,207,414.87,45.750229,4.906967,21.26,185.9,0,0.0,-1,0.0,0.0,0,0.27,1.3441
80664,1563729597019,-1,2.06,0.82,0.55,1.13,0.93,0.89,0.37,0.52,-19,-2,-24,0.96,4136,0,80,41,54,919,229.0,370,468,60,124.0,167,1,187,224,35,0,0,231,18432,966,207,181.28,,,,,,,,,,,,
80684,1563729597039,0,2.08,0.82,0.56,1.12,0.94,0.82,0.38,0.48,-19,-1,-24,0.9,4112,0,80,41,54,923,228.0,375,467,60,122.0,167,1,184,224,35,0,0,231,250,966,206,414.87,,,,,,,,,,,,
80704,1563729597059,-0,2.07,0.82,0.56,1.12,0.94,0.82,0.4,0.4,-18,1,-23,0.91,4096,0,80,41,54,929,228.0,374,470,60,124.0,165,1,182,224,34,0,0,231,250,966,206,648.46,,,,,,,,,,,,
80724,1563729597079,-2,2.07,0.82,0.56,1.13,0.93,0.83,0.44,0.41,-18,1,-23,0.94,4128,0,80,41,54,935,227.0,369,469,60,123.0,165,1,186,224,34,0,0,230,-1496,-1533,207,414.87,,,,,,,,,,,,
80744,1563729597107,-2,2.07,0.82,0.56,1.12,0.93,0.84,0.41,0.49,-18,-1,-22,0.94,4069,0,80,41,54,938,226.0,367,467,60,123.0,165,1,179,224,34,0,0,229,10318,-14848,208,414.87,45.750233,4.906968,20.47,185.9,0,0.0,-1,0.0,0.0,0,0.27,1.3457
80764,1563729597127,1,2.07,0.81,0.56,1.13,0.93,0.83,0.41,0.44,-18,1,-23,0.92,4095,0,80,41,54,940,225.0,374,471,60,124.0,165,1,182,224,34,0,0,228,19968,13964,206,648.46,,,,,,,,,,,,
80784,1563729597147,-2,2.06,0.81,0.55,1.12,0.94,0.83,0.4,0.39,-17,3,-24,0.92,4111,0,80,41,54,940,224.0,366,469,60,124.0,165,1,184,224,34,0,0,226,250,-14848,206,414.87,,,,,,,,,,,,
80804,1563729597167,-1,2.06,0.81,0.55,1.12,0.93,0.91,0.44,0.42,-17,-1,-23,1.01,4061,0,80,41,54,940,224.0,361,469,60,124.0,165,1,177,224,34,0,0,227,250,13964,206,181.28,,,,,,,,,,,,
80824,1563729597187,2,2.06,0.82,0.55,1.12,0.93,0.92,0.37,0.51,-17,-1,-22,0.99,4063,0,80,41,54,939,227.0,379,467,60,122.0,165,1,178,224,34,0,0,227,-1496,-14848,203,882.05,,,,,,,,,,,,
80844,1563729597205,-2,2.06,0.82,0.55,1.13,0.93,0.9,0.38,0.4,-17,2,-24,0.98,4069,0,80,41,54,938,225.0,367,470,60,123.0,165,1,179,224,34,0,0,229,250,-1482,204,648.46,45.750236,4.906968,20.7,185.9,0,0.0,-1,0.0,0.0,0,0.27,1.3474
80864,1563729597225,-1,2.06,0.82,0.56,1.12,0.94,0.92,0.36,0.4,-17,-1,-23,0.99,4026,0,80,41,54,936,224.0,363,468,60,124.0,165,1,173,224,34,0,0,230,250,13964,203,414.87,,,,,,,,,,,,
80884,1563729597245,1,2.07,0.82,0.55,1.12,0.94,0.92,0.32,0.5,-18,-4,-22,0.98,4036,0,80,41,54,933,224.0,365,464,60,123.0,165,1,174,224,34,0,0,223,250,-1482,202,414.87,,,,,,,,,,,,
80904,1563729597265,-0,2.05,0.82,0.56,1.13,0.94,0.9,0.37,0.43,-18,-1,-23,0.97,4045,0,80,41,54,932,222.0,372,471,60,122.0,168,1,175,224,34,0,0,225,1596,-29696,202,882.05,,,,,,,,,,,,
80924,1563729597285,-1,2.06,0.82,0.56,1.12,0.94,0.9,0.38,0.42,-17,-2,-23,0.97,3991,0,80,41,54,931,223.0,356,470,60,124.0,168,1,169,223,34,0,0,224,-1530,-1482,203,414.87,,,,,,,,,,,,
80944,1563729597305,1,2.06,0.82,0.56,1.12,0.93,0.9,0.36,0.48,-17,-4,-23,0.97,4002,0,80,41,54,929,224.0,366,466,60,124.0,168,1,170,224,34,0,0,224,250,-29696,202,414.87,45.750244,4.906968,20.38,185.9,0,0.0,-1,0.0,0.0,0,0.27,1.3491
80964,1563729597325,0,2.07,0.82,0.55,1.13,0.93,0.89,0.37,0.43,-17,-2,-24,0.96,4054,0,80,41,54,928,222.0,361,470,60,123.0,168,1,177,224,34,0,0,224,1596,250,200,882.05,,,,,,,,,,,,
80984,1563729597345,-1,2.06,0.82,0.56,1.12,0.94,0.89,0.37,0.41,-17,-1,-24,0.96,3996,0,80,41,54,926,220.0,358,468,60,123.0,168,1,169,223,34,0,0,222,15360,13964,200,414.87,,,,,,,,,,,,
81004,1563729597365,-2,2.06,0.82,0.56,1.13,0.93,0.91,0.36,0.49,-17,-4,-23,0.98,3994,0,80,41,54,924,221.0,362,468,60,124.0,165,1,169,223,33,0,0,222,15360,13964,201,414.87,,,,,,,,,,,,
81024,1563729597385,0,2.07,0.82,0.55,1.13,0.93,0.88,0.35,0.47,-16,-2,-24,0.94,4027,0,80,41,54,923,221.0,359,471,60,123.0,165,1,173,224,33,0,0,222,15360,13964,200,882.05,,,,,,,,,,,,
81044,1563729597407,-2,2.08,0.82,0.55,1.13,0.93,0.88,0.33,0.45,-16,-3,-24,0.94,3971,0,80,41,54,921,220.0,356,471,60,124.0,165,1,168,223,33,0,0,222,250,13964,200,181.28,45.750252,4.906967,21.04,185.9,0,0.0,-1,0.0,0.0,0,0.27,1.3507
81064,1563729597427,2,2.08,0.81,0.55,1.13,0.93,0.88,0.33,0.49,-16,-4,-24,0.94,4008,0,80,41,54,920,220.0,364,465,60,123.0,165,1,171,224,33,0,0,222,250,12800,197,414.87,,,,,,,,,,,,
81084,1563729597447,-1,2.11,0.82,0.56,1.12,0.94,0.87,0.32,0.44,-15,-2,-24,0.93,4030,0,80,41,54,919,218.0,366,472,60,122.0,165,1,173,224,33,0,0,222,1210,-1482,199,882.05,,,,,,,,,,,,
81104,1563729597467,-2,2.11,0.82,0.56,1.13,0.93,0.9,0.32,0.42,-15,-2,-24,0.95,3966,0,80,41,54,919,217.0,360,468,60,124.0,170,1,168,223,34,0,0,222,-17920,13874,199,414.87,,,,,,,,,,,,
81124,1563729597487,-2,2.13,0.82,0.56,1.12,0.94,0.88,0.27,0.48,-15,-4,-22,0.93,4014,0,80,41,54,919,217.0,364,467,60,124.0,170,1,171,224,34,0,0,221,-17920,-1482,200,414.87,,,,,,,,,,,,
81144,1563729597503,-1,2.15,0.82,0.55,1.13,0.94,0.85,0.26,0.42,-15,-2,-22,0.89,3979,0,80,41,54,919,215.0,361,469,60,123.0,170,1,169,228,34,0,0,219,-1532,13874,198,882.05,45.750252,4.906966,19.33,185.8,0,0.0,-1,0.0,0.0,0,0.27,1.3524
81164,1563729597523,-1,2.15,0.82,0.56,1.13,0.93,0.9,0.23,0.49,-15,-1,-21,0.93,3917,0,80,41,54,919,214.0,356,468,60,124.0,170,1,166,222,34,0,0,218,1088,-1482,198,414.87,,,,,,,,,,,,
81184,1563729597543,1,2.16,0.82,0.56,1.13,0.93,0.89,0.2,0.56,-14,-3,-20,0.91,3974,0,80,41,54,920,214.0,355,465,60,123.0,170,1,168,223,34,0,0,216,1088,-1482,199,414.87,,,,,,,,,,,,
81204,1563729597563,-1,2.16,0.82,0.55,1.12,0.94,0.88,0.2,0.5,-15,-1,-20,0.9,3983,6,80,41,55,922,212.0,360,471,60,123.0,170,1,169,227,34,0,0,217,250,13874,200,648.46,,,,,,,,,,,,
81224,1563729597583,-1,2.15,0.82,0.55,1.13,0.93,0.89,0.16,0.58,-15,-3,-18,0.9,3899,9,80,41,55,924,213.0,347,468,60,123.0,170,1,165,224,34,0,0,216,16384,-29696,199,414.87,,,,,,,,,,,,
81244,1563729597607,1,2.15,0.82,0.55,1.14,0.93,0.88,0.21,0.51,-14,-0,-17,0.9,3954,10,80,41,56,925,212.0,363,468,60,122.0,170,1,169,231,34,0,0,215,250,250,201,414.87,45.750259,4.906965,20.32,185.7,0,0.0,-1,0.0,0.0,0,0.28,1.3541
81264,1563729597627,-1,2.15,0.82,0.55,1.12,0.94,0.87,0.21,0.43,-13,2,-18,0.9,3986,12,80,41,57,927,212.0,354,469,60,123.0,170,1,171,237,34,0,0,218,250,250,200,414.87,,,,,,,,,,,,
81284,1563729597647,-2,2.14,0.82,0.56,1.13,0.93,0.91,0.22,0.5,-13,-2,-16,0.94,3911,14,80,41,58,930,211.0,351,462,60,123.0,170,1,168,240,34,0,0,216,-1533,13964,200,414.87,,,,,,,,,,,,
81304,1563729597667,1,2.13,0.82,0.56,1.13,0.93,0.87,0.23,0.48,-13,-1,-16,0.9,4024,15,80,41,60,932,210.0,361,470,60,122.0,181,1,176,252,36,0,0,214,966,-1482,201,882.05,,,,,,,,,,,,
81324,1563729597687,-2,2.11,0.81,0.56,1.13,0.93,0.88,0.26,0.44,-12,1,-16,0.92,4049,16,80,41,61,934,210.0,357,466,60,124.0,181,1,179,257,36,0,0,215,966,250,199,414.87,,,,,,,,,,,,
81344,1563729597705,-2,2.1,0.82,0.56,1.13,0.94,0.9,0.27,0.47,-12,-1,-15,0.94,3998,16,80,41,62,935,211.0,353,465,60,123.0,181,1,176,261,36,0,0,216,-1533,12800,198,414.87,45.750263,4.906964,20.52,185.7,0,0.0,-1,0.0,0.0,0,0.28,1.3557
81364,1563729597725,1,2.09,0.82,0.56,1.12,0.94,0.86,0.24,0.51,-12,-1,-15,0.89,4129,16,80,41,63,934,211.0,370,468,60,122.0,181,1,190,267,36,0,0,217,-1533,-1482,197,414.87,,,,,,,,,,,,
81384,1563729597745,-1,2.08,0.82,0.56,1.13,0.93,0.86,0.27,0.45,-13,1,-15,0.91,4154,17,80,41,64,933,212.0,366,471,60,122.0,181,1,194,272,36,0,0,218,250,12800,197,882.05,,,,,,,,,,,,
81404,1563729597765,-2,2.07,0.82,0.55,1.13,0.93,0.87,0.29,0.4,-13,3,-15,0.92,4139,17,80,41,65,932,211.0,368,470,60,124.0,218,1,195,277,43,0,0,218,-1533,12800,197,414.87,,,,,,,,,,,,
81424,1563729597785,-2,2.08,0.82,0.55,1.12,0.94,0.88,0.28,0.45,-13,2,-15,0.92,4235,17,80,41,66,930,214.0,378,468,60,124.0,218,1,205,284,43,0,0,218,1088,-1480,196,414.87,,,,,,,,,,,,
81444,1563729597803,-3,2.07,0.82,0.56,1.13,0.93,0.87,0.22,0.53,-14,-0,-15,0.9,4251,17,80,41,66,925,213.0,384,465,60,123.0,218,1,207,284,43,0,0,220,16384,-1480,196,414.87,45.750271,4.906962,20.93,185.6,0,0.0,-1,0.0,0.0,0,0.28,1.3574
81464,1563729597823,3,2.06,0.82,0.55,1.13,0.93,0.91,0.23,0.53,-15,-1,-15,0.94,4260,17,80,41,66,920,214.0,385,463,60,122.0,218,1,207,290,43,0,0,219,1088,13874,196,181.28,,,,,,,,,,,,
81484,1563729597843,1,2.07,0.82,0.55,1.12,0.94,0.84,0.26,0.52,-16,2,-15,0.88,4331,17,80,41,67,917,215.0,388,467,60,121.0,218,1,215,291,43,0,0,219,-1532,12800,197,882.05,,,,,,,,,,,,
81504,1563729597863,1,2.06,0.81,0.55,1.13,0.93,0.86,0.32,0.47,-16,5,-16,0.92,4342,17,80,41,67,914,216.0,389,465,60,122.0,247,1,216,291,48,0,0,219,-1532,-1480,194,882.05,,,,,,,,,,,,
81524,1563729597883,-2,2.07,0.82,0.55,1.13,0.93,0.86,0.36,0.5,-16,5,-16,0.93,4301,17,80,41,68,917,215.0,383,466,60,123.0,247,1,215,296,48,0,0,219,-1532,-29696,195,648.46,,,,,,,,,,,,
81544,1563729597902,-1,2.06,0.82,0.56,1.12,0.93,0.86,0.34,0.57,-16,4,-16,0.93,4270,17,80,41,68,919,216.0,387,469,60,123.0,247,1,212,296,48,0,0,222,250,-1482,199,414.87,45.750275,4.90696,21.3,185.4,0,0.0,-1,0.0,0.0,0,0.28,1.3591
81564,1563729597922,-1,2.05,0.82,0.56,1.13,0.93,0.83,0.34,0.62,-16,1,-16,0.9,4093,17,80,41,68,925,218.0,377,468,60,124.0,247,1,197,292,48,0,0,225,1210,8704,201,414.87,,,,,,,,,,,,
81584,1563729597942,2,2.05,0.82,0.55,1.13,0.93,0.83,0.35,0.57,-16,0,-17,0.9,4041,17,80,41,68,930,218.0,369,466,60,121.0,247,1,193,293,48,0,0,223,1210,19968,201,414.87,,,,,,,,,,,,
81604,1563729597962,-1,2.05,0.82,0.55,1.12,0.92,0.79,0.35,0.53,-15,2,-18,0.86,4052,17,80,41,69,946,218.0,364,471,60,123.0,221,1,194,294,45,0,0,223,1210,966,201,648.46,,,,,,,,,,,,
81624,1563729597982,-1,2.05,0.81,0.55,1.13,0.93,0.8,0.32,0.58,-14,-1,-18,0.86,3995,17,80,41,69,962,222.0,364,469,60,123.0,221,1,189,292,45,0,0,226,1596,250,203,414.87,,,,,,,,,,,,
81644,1563729597994,0,2.05,0.82,0.55,1.13,0.92,0.79,0.3,0.57,-15,-2,-18,0.84,3988,17,80,41,69,974,223.0,359,465,60,122.0,221,1,189,292,45,0,0,227,-1530,-14848,203,414.87,45.750278,4.906958,20.26,185.4,0,0.0,-1,0.0,0.0,0,0.28,1.3607
81664,1563729598014,-2,2.05,0.82,0.55,1.13,0.93,0.78,0.31,0.5,-15,1,-20,0.84,4078,17,80,41,69,985,224.0,363,470,60,123.0,221,1,196,294,45,0,0,229,250,-14848,202,648.46,,,,,,,,,,,,
81684,1563729598034,-2,2.05,0.82,0.55,1.12,0.94,0.78,0.28,0.52,-15,-1,-20,0.83,4111,17,80,41,69,999,224.0,368,468,60,124.0,221,1,199,295,45,0,0,228,250,-14848,204,414.87,,,,,,,,,,,,
81704,1563729598054,-1,2.05,0.82,0.55,1.13,0.93,0.82,0.27,0.55,-15,-2,-20,0.86,4119,17,80,41,69,1013,226.0,365,468,60,124.0,221,1,199,295,45,0,0,231,10318,-1482,203,414.87,,,,,,,,,,,,
81724,1563729598074,1,2.05,0.82,0.55,1.12,0.93,0.8,0.29,0.54,-16,-1,-20,0.85,4223,17,80,41,70,1021,228.0,378,467,60,122.0,221,1,209,300,45,0,0,345,250,-14848,202,414.87,,,,,,,,,,,,
81744,1563729598100,-1,2.05,0.82,0.55,1.13,0.93,0.78,0.3,0.52,-16,0,-22,0.83,4127,17,80,41,70,1025,229.0,378,467,60,123.0,221,1,201,298,45,0,0,345,18432,966,204,882.05,45.750282,4.906956,20.11,185.4,0,0.0,-1,0.0,0.0,0,0.28,1.3624
81764,1563729598120,-1,2.04,0.82,0.55,1.13,0.93,0.74,0.3,0.54,-16,-1,-22,0.8,4141,17,80,41,70,1033,229.0,371,468,60,124.0,221,1,202,297,45,0,0,71,18432,966,203,414.87,,,,,,,,,,,,
81784,1563729598140,-1,2.04,0.82,0.56,1.12,0.94,0.75,0.33,0.58,-16,-4,-22,0.82,4201,17,80,41,70,1044,228.0,374,464,60,123.0,221,1,207,300,45,0,0,229,250,250,205,414.87,,,,,,,,,,,,
81804,1563729598160,1,2.04,0.82,0.55,1.13,0.93,0.78,0.36,0.63,-17,-6,-22,0.86,4146,17,80,41,70,1051,229.0,384,467,60,123.0,229,1,202,297,47,0,0,233,18432,250,205,414.87,,,,,,,,,,,,
81824,1563729598180,1,2.04,0.82,0.55,1.14,0.93,0.77,0.39,0.61,-17,-4,-23,0.86,4184,17,80,41,70,1056,230.0,379,466,60,122.0,229,1,205,299,47,0,0,234,10824,1088,204,882.05,,,,,,,,,,,,
81844,1563729598206,-2,2.04,0.82,0.57,1.13,0.95,0.78,0.41,0.59,-17,-3,-24,0.88,4232,17,80,41,70,1065,232.0,374,467,60,124.0,229,1,209,300,47,0,0,235,250,1088,208,414.87,45.75029,4.906953,21.67,185.2,0,0.0,-1,0.0,0.0,0,0.28,1.3641
81864,1563729598226,-1,2.03,0.82,0.59,1.13,0.97,0.81,0.41,0.61,-18,-3,-24,0.91,4171,17,80,41,70,1075,234.0,374,472,60,124.0,229,1,204,298,47,0,0,236,13602,1088,206,414.87,,,,,,,,,,,,
81884,1563729598246,-1,2.03,0.82,0.58,1.15,0.96,0.86,0.38,0.66,-18,-4,-23,0.94,4248,17,80,41,71,1083,235.0,376,469,60,124.0,229,1,211,300,47,0,0,238,-1483,-17920,210,414.87,,,,,,,,,,,,
81904,1563729598266,0,2.03,0.83,0.56,1.14,0.94,0.81,0.42,0.59,-18,-4,-23,0.91,4245,17,80,41,70,1087,234.0,385,465,60,123.0,233,1,210,300,49,0,0,239,13602,-17920,211,414.87,,,,,,,,,,,,
81924,1563729598286,2,2.03,0.83,0.56,1.13,0.94,0.71,0.46,0.52,-17,-1,-25,0.85,4203,17,80,41,70,1092,233.0,380,468,60,121.0,233,1,207,299,49,0,0,240,8704,-17920,210,882.05,,,,,,,,,,,,
81944,1563729598306,-1,2.04,0.84,0.55,1.14,0.93,0.75,0.48,0.46,-16,2,-26,0.89,4350,17,80,41,71,1096,233.0,391,470,60,122.0,233,1,220,305,49,0,0,238,8704,-1532,208,882.05,45.75029,4.906949,21.01,185.3,0,0.0,-1,0.0,0.0,0,0.28,1.3657
81964,1563729598326,-2,2.04,0.84,0.56,1.13,0.94,0.77,0.52,0.44,-16,5,-26,0.93,4339,17,80,41,71,1100,234.0,387,468,60,124.0,233,1,219,302,49,0,0,242,13602,1210,209,648.46,,,,,,,,,,,,
81984,1563729598346,-1,2.03,0.84,0.56,1.15,0.93,0.77,0.52,0.46,-16,6,-26,0.93,4278,17,80,41,70,1100,239.0,388,468,60,124.0,233,1,213,301,49,0,0,241,-1484,250,214,414.87,,,,,,,,,,,,
82004,1563729598366,-1,2.03,0.83,0.55,1.14,0.94,0.74,0.46,0.55,-16,4,-26,0.87,4363,17,80,41,70,1100,242.0,388,468,60,124.0,227,1,220,303,49,0,0,244,250,250,215,414.87,,,,,,,,,,,,
82024,1563729598386,-2,2.02,0.83,0.56,1.13,0.93,0.75,0.43,0.66,-17,0,-24,0.87,4349,14,80,41,70,1100,238.0,391,471,60,124.0,227,1,219,302,49,0,0,243,13468,1596,214,414.87,,,,,,,,,,,,
82044,1563729598408,-1,2.01,0.83,0.56,1.14,0.93,0.77,0.42,0.67,-17,-2,-24,0.88,4368,13,80,41,69,1099,237.0,390,464,60,124.0,227,1,220,300,49,0,0,245,-25600,19968,212,414.87,45.750298,4.906944,21.3,185.1,0,0.0,-1,0.0,0.0,0,0.28,1.3674
82064,1563729598428,-1,2.02,0.82,0.55,1.13,0.94,0.76,0.38,0.72,-18,-1,-23,0.85,4405,12,80,41,69,1098,240.0,396,466,60,124.0,227,1,224,301,49,0,0,246,250,10318,217,414.87,,,,,,,,,,,,
82084,1563729598448,2,2.03,0.82,0.55,1.13,0.94,0.77,0.4,0.74,-18,-0,-22,0.87,4324,10,80,41,68,1096,242.0,400,463,60,123.0,227,1,217,296,49,0,0,245,23482,19968,216,414.87,,,,,,,,,,,,
82104,1563729598468,1,2.03,0.82,0.55,1.12,0.94,0.79,0.36,0.77,-19,0,-22,0.86,4428,9,80,41,67,1090,238.0,396,471,60,120.0,226,1,223,293,49,0,0,244,13468,1596,219,882.05,,,,,,,,,,,,
82124,1563729598488,2,2.04,0.82,0.55,1.13,0.93,0.77,0.31,0.8,-19,3,-22,0.83,4392,9,80,41,66,1084,240.0,404,469,60,122.0,226,1,219,286,49,0,0,247,-1445,19968,220,414.87,,,,,,,,,,,,
82144,1563729598507,1,2.04,0.81,0.55,1.12,0.93,0.75,0.31,0.7,-19,6,-23,0.81,4317,9,80,41,65,1079,238.0,399,470,60,122.0,226,1,211,285,49,0,0,245,-25600,19968,216,882.05,45.750301,4.90694,20.97,185.0,0,0.0,-1,0.0,0.0,0,0.28,1.3691
82164,1563729598527,-1,2.06,0.81,0.55,1.12,0.94,0.76,0.33,0.68,-18,7,-25,0.83,4399,8,80,41,65,1073,238.0,398,470,60,121.0,226,1,218,280,49,0,0,245,13468,1596,216,882.05,,,,,,,,,,,,
82184,1563729598547,-1,2.06,0.81,0.55,1.12,0.94,0.78,0.36,0.64,-17,9,-25,0.85,4366,9,80,41,65,1061,241.0,396,470,60,124.0,226,1,215,280,49,0,0,244,-17920,250,217,882.05,,,,,,,,,,,,
82204,1563729598567,-2,2.07,0.82,0.55,1.13,0.92,0.82,0.42,0.57,-16,9,-26,0.92,4328,9,80,41,64,1050,237.0,391,468,60,124.0,202,1,210,274,44,0,0,246,-25600,10318,219,414.87,,,,,,,,,,,,
82224,1563729598587,-1,2.06,0.82,0.55,1.13,0.92,0.87,0.41,0.64,-15,8,-24,0.96,4401,9,80,41,64,1043,238.0,398,470,60,124.0,202,1,217,275,44,0,0,243,13468,10318,221,414.87,,,,,,,,,,,,
82244,1563729598606,-3,2.07,0.82,0.55,1.12,0.93,0.86,0.39,0.55,-15,6,-22,0.95,4294,9,80,41,63,1034,237.0,391,467,60,123.0,202,1,206,269,44,0,0,243,13602,10824,222,414.87,45.750305,4.906935,22.02,184.9,0,0.0,-1,0.0,0.0,0,0.28,1.3707
82264,1563729598626,-2,2.08,0.81,0.55,1.13,0.93,0.91,0.33,0.54,-16,4,-22,0.97,4388,9,80,41,63,1013,236.0,391,471,60,123.0,202,1,214,269,44,0,0,243,250,-1494,222,414.87,,,,,,,,,,,,
82284,1563729598646,-1,2.09,0.82,0.56,1.12,0.93,0.88,0.3,0.62,-17,7,-20,0.93,4402,9,80,41,63,992,242.0,400,462,60,123.0,202,1,215,270,44,0,0,247,23482,18432,223,414.87,,,,,,,,,,,,
82304,1563729598666,-1,2.1,0.81,0.56,1.12,0.92,0.85,0.39,0.56,-16,7,-20,0.94,4327,9,80,41,62,978,236.0,398,467,60,122.0,199,1,207,263,44,0,0,246,250,10824,220,414.87,,,,,,,,,,,,
82324,1563729598686,3,2.12,0.81,0.55,1.12,0.93,0.86,0.41,0.61,-15,8,-23,0.96,4473,9,80,41,63,964,240.0,403,466,60,119.0,199,1,222,271,44,0,0,245,250,18432,219,882.05,,,,,,,,,,,,
82344,1563729598708,1,2.16,0.81,0.54,1.12,0.93,0.87,0.38,0.75,-15,8,-23,0.95,4395,9,80,41,62,937,246.0,405,463,60,122.0,199,1,214,263,44,0,0,245,10812,10318,218,414.87,45.750313,4.90693,22.06,184.7,0,0.0,-1,0.0,0.0,0,0.28,1.3724
82364,1563729598728,2,2.18,0.81,0.55,1.11,0.93,0.83,0.32,0.68,-17,7,-21,0.89,4399,9,80,41,62,908,240.0,406,466,60,121.0,199,1,214,263,44,0,0,241,250,-1496,218,414.87,,,,,,,,,,,,
82384,1563729598748,1,2.19,0.81,0.55,1.12,0.93,0.78,0.21,0.62,-18,8,-21,0.81,4445,9,80,41,62,894,235.0,401,470,60,121.0,199,1,219,265,44,0,0,237,8704,250,220,882.05,,,,,,,,,,,,
82404,1563729598768,-0,2.23,0.81,0.55,1.12,0.92,0.75,0.22,0.55,-17,9,-20,0.78,4347,9,80,41,62,880,233.0,403,471,60,122.0,200,1,209,263,44,0,0,241,8704,-1496,218,882.05,,,,,,,,,,,,
82424,1563729598788,0,2.24,0.82,0.55,1.13,0.92,0.76,0.24,0.55,-16,12,-20,0.8,4376,9,80,41,62,867,232.0,394,464,60,123.0,200,1,212,263,44,0,0,239,250,250,221,414.87,,,,,,,,,,,,
82444,1563729598807,-1,2.28,0.81,0.55,1.13,0.92,0.75,0.24,0.49,-15,12,-19,0.79,4367,9,80,41,62,855,230.0,390,470,60,123.0,200,1,211,263,44,0,0,236,10824,18432,225,648.46,45.750313,4.906925,22.24,184.5,0,0.0,-1,0.0,0.0,0,0.28,1.3741
82464,1563729598827,-2,2.3,0.81,0.54,1.12,0.92,0.79,0.27,0.46,-14,10,-18,0.84,4321,9,80,41,62,853,231.0,389,470,60,123.0,200,1,207,263,44,0,0,236,-1494,-1494,223,414.87,,,,,,,,,,,,
82484,1563729598847,-2,2.32,0.81,0.54,1.12,0.92,0.81,0.29,0.46,-12,7,-16,0.86,4340,9,80,41,62,855,231.0,388,470,60,123.0,200,1,208,263,44,0,0,236,-1494,-1494,226,414.87,,,,,,,,,,,,
82504,1563729598867,-1,2.34,0.81,0.54,1.12,0.91,0.84,0.26,0.5,-11,3,-14,0.88,4290,9,80,41,61,859,229.0,399,467,60,124.0,188,1,203,258,43,0,0,234,18432,250,228,414.87,,,,,,,,,,,,
82524,1563729598887,-1,2.36,0.81,0.54,1.11,0.92,0.91,0.17,0.63,-11,0,-12,0.92,4298,9,80,41,61,862,228.0,389,462,60,123.0,188,1,203,258,43,0,0,232,250,13602,228,414.87,,,,,,,,,,,,
82544,1563729598907,1,2.39,0.81,0.55,1.11,0.92,0.88,0.06,0.68,-10,-1,-10,0.88,4369,9,80,41,61,864,228.0,397,471,60,122.0,188,1,210,258,43,0,0,231,250,250,228,882.05,45.75032,4.906921,22.35,184.3,0,0.0,-1,0.0,0.0,0,0.28,1.3757
82564,1563729598927,2,2.41,0.81,0.54,1.11,0.92,0.79,0.01,0.77,-6,-3,-10,0.79,4333,8,80,41,61,866,226.0,396,471,60,122.0,188,1,207,263,43,0,0,233,-1530,8704,226,648.46,,,,,,,,,,,,
