"Interval"|"ms"|0|0|1,"Utc"|"ms"|0|0|1,"FB_p"|"bar"|0|300|50,"Volant"|"F"|0.0|300.0|50,"xFR"|"mm"|0.0|5.0|50,"xRR"|"mm"|0.0|5.0|50,"xFL"|"mm"|0.0|5.0|50,"xRL"|"mm"|0.0|5.0|50,"AccelX"|"G"|-3.0|3.0|50,"AccelY"|"G"|-3.0|3.0|50,"AccelZ"|"G"|-3.0|3.0|50,"Yaw"|"Deg/Sec"|-120|120|50,"Pitch"|"Deg/Sec"|-120|120|50,"Roll"|"Deg/Sec"|-120|120|50,"Gsum"|"G"|0.0|3.0|50,"RPM"|""|0|14000|50,"TPS"|"%"|0|100|50,"WaterTemp"|"?C"|0|300|50,"AirTemp"|"?C"|-1000|1000|50,"MAP"|"KPa"|0|255|50,"Lambda"|""|0|1024|50,"WheelSpeed"|"MPH"|0.0|150.0|50,"OilPress"|"PSI"|0|150|50,"FuelPress"|"PSI"|0|150|50,"OilTemp"|"F"|0|300|50,"Battery"|"Volts"|0.0|20.0|50,"FuelCon"|"L/h"|-1000|1000|50,"Gear"|""|0|10|50,"Advance"|"Deg"|-360|360|50,"Injection"|"ms"|-1000|1000|50,"FuelCon"|"L/100km"|-1000|1000|50,"LC_But_Pres"|""|-1000|1000|50,"LC_Active"|""|-1000|1000|50,"RD_Speed"|""|-1000|1000|50,"RUD_Speed"|""|-1000|1000|50,"LD_Speed"|""|-1000|1000|50,"LUD_Speed"|""|-1000|1000|50,"Ana1"|"bar"|-1000.0|1000.0|50,"Latitude"|"Degrees"|-180.0|180.0|10,"Longitude"|"Degrees"|-180.0|180.0|10,"Speed"|"kph"|0.0|150.0|10,"Altitude"|"m"|0.0|4000.0|10,"LapCount"|""|0|0|10,"LapTime"|"Min"|0.0|0.0|10,"Sector"|""|0|0|10,"SectorTime"|"Min"|0.0|0.0|10,"ElapsedTime"|"Min"|0.0|0.0|10,"CurrentLap"|""|0|0|10,"Distance"|"km"|0.0|0.0|10,"SessionTime"|"Min"|0.0|0.0|10
26104,1563729915358,8,2.28,0.68,0.49,0.91,0.76,0.88,-0.01,0.53,-1,-2,0,0.88,4381,7,92,39,55,506,0.0,392,469,60,120.0,0,1,218,244,41,0,0,0,250,250,0,414.87,,,,,,,,,,,,
26124,1563729915378,11,2.29,0.68,0.49,0.9,0.77,0.83,-0.04,0.55,-1,-3,-0,0.83,4349,7,92,39,54,506,0.0,390,464,60,119.0,0,1,215,244,41,0,0,0,250,250,0,414.87,,,,,,,,,,,,
26144,1563729915398,9,2.29,0.68,0.5,0.9,0.76,0.79,-0.05,0.55,-1,-2,-1,0.79,4397,7,92,39,54,506,0.0,392,463,60,119.0,0,1,222,244,41,0,0,0,250,250,0,414.87,45.747856,4.906453,0.0,198.8,0,0.0,-1,0.0,0.0,0,0.0,0.4357
26164,1563729915418,10,2.28,0.68,0.49,0.91,0.76,0.76,-0.04,0.54,-1,0,-1,0.76,4394,7,92,39,54,506,0.0,393,466,60,119.0,0,1,221,244,41,0,0,0,250,250,0,414.87,,,,,,,,,,,,
26184,1563729915438,9,2.28,0.68,0.49,0.91,0.76,0.78,-0.03,0.5,-1,1,-1,0.78,4369,7,92,39,54,506,0.0,400,466,60,118.0,0,1,218,248,41,0,0,0,250,250,0,414.87,,,,,,,,,,,,
26204,1563729915458,6,2.3,0.68,0.49,0.9,0.76,0.81,-0.02,0.48,-1,2,-1,0.81,4371,7,92,39,55,506,0.0,392,468,60,118.0,0,1,217,248,40,0,0,0,250,250,0,414.87,,,,,,,,,,,,
26224,1563729915478,7,2.28,0.68,0.49,0.9,0.76,0.86,-0.04,0.48,-1,1,-1,0.86,4372,7,92,39,55,506,0.0,395,470,60,118.0,0,1,217,248,40,0,0,0,250,250,0,882.05,,,,,,,,,,,,
26244,1563729915498,6,2.3,0.68,0.49,0.9,0.75,0.86,-0.06,0.5,-1,0,-1,0.87,4396,7,92,39,55,506,0.0,391,472,60,119.0,0,1,217,248,40,0,0,0,250,250,0,882.05,45.747856,4.906453,0.0,198.8,0,0.0,-1,0.0,0.0,0,0.0,0.4374
26264,1563729915518,6,2.29,0.67,0.49,0.89,0.76,0.89,-0.03,0.49,-0,-1,-1,0.89,4373,7,92,39,55,506,0.0,388,471,60,119.0,0,1,217,248,40,0,0,0,250,250,0,648.46,,,,,,,,,,,,
26284,1563729915538,6,2.29,0.67,0.48,0.9,0.75,0.93,0.01,0.46,-0,-1,0,0.93,4365,7,91,39,55,506,0.0,391,468,60,119.0,0,1,216,248,40,0,0,0,250,250,0,648.46,,,,,,,,,,,,
26304,1563729915558,7,2.28,0.68,0.48,0.9,0.75,0.95,0.02,0.47,-0,-2,1,0.95,4396,7,91,39,55,506,0.0,385,467,60,120.0,0,1,220,248,40,0,0,0,250,250,0,414.87,,,,,,,,,,,,
26324,1563729915578,7,2.29,0.67,0.49,0.9,0.74,0.96,0.03,0.5,-0,-4,1,0.96,4386,7,91,39,55,506,0.0,393,468,60,120.0,0,1,219,248,40,0,0,0,250,250,0,414.87,,,,,,,,,,,,
26344,1563729915598,7,2.28,0.67,0.48,0.89,0.75,0.92,0.01,0.52,-0,-5,1,0.92,4426,7,91,39,55,506,0.0,388,473,60,120.0,0,1,224,249,40,0,0,0,250,250,0,414.87,45.747856,4.906453,0.0,198.8,0,0.0,-1,0.0,0.0,0,0.0,0.4391
26364,1563729915618,8,2.28,0.67,0.48,0.89,0.75,0.9,-0.01,0.54,-0,-4,1,0.9,4414,7,91,39,55,506,0.0,396,465,60,119.0,0,1,223,245,40,0,0,0,250,250,0,414.87,,,,,,,,,,,,
26384,1563729915638,-0,2.29,0.67,0.48,0.89,0.75,0.83,-0.04,0.54,-0,-2,1,0.83,4383,7,91,39,54,506,0.0,393,458,60,119.0,0,1,220,244,40,0,0,0,250,250,0,414.87,,,,,,,,,,,,
26404,1563729915658,9,2.29,0.67,0.47,0.88,0.75,0.77,-0.05,0.53,-0,-1,1,0.77,4414,7,91,39,54,506,0.0,397,466,60,119.0,0,1,224,245,41,0,0,0,250,250,0,414.87,,,,,,,,,,,,
26424,1563729915678,11,2.29,0.67,0.47,0.88,0.75,0.73,-0.07,0.53,-0,0,-0,0.74,4400,7,91,39,54,506,0.0,399,463,60,119.0,0,1,222,245,41,0,0,0,250,250,0,414.87,,,,,,,,,,,,
26444,1563729915697,9,2.28,0.67,0.48,0.88,0.73,0.71,-0.07,0.53,-0,1,-1,0.72,4378,7,91,39,54,506,0.0,394,463,60,119.0,0,1,219,244,41,0,0,0,250,250,0,414.87,45.747856,4.906453,0.0,198.8,0,0.0,-1,0.0,0.0,0,0.0,0.4407
26464,1563729915717,9,2.28,0.59,0.39,0.75,0.59,0.73,-0.05,0.52,-0,2,-1,0.73,4388,7,91,39,54,506,0.0,401,465,60,118.0,0,1,220,244,41,0,0,0,250,250,0,414.87,,,,,,,,,,,,
26484,1563729915737,8,2.28,0.57,0.37,0.72,0.56,0.76,-0.03,0.49,-0,3,-1,0.76,4365,7,90,39,54,506,0.0,394,467,60,117.0,0,1,217,244,41,0,0,0,250,250,0,414.87,,,,,,,,,,,,
26504,1563729915757,4,2.29,0.57,0.35,0.71,0.54,0.78,-0.02,0.48,0,3,-1,0.78,4357,7,91,39,55,506,0.0,394,471,60,118.0,0,1,215,248,40,0,0,0,250,250,0,882.05,,,,,,,,,,,,
26524,1563729915777,7,2.28,0.56,0.35,0.7,0.53,0.82,-0.03,0.5,0,2,-0,0.83,4358,7,91,39,55,506,0.0,389,472,60,119.0,0,1,215,247,40,0,0,0,250,250,0,882.05,,,,,,,,,,,,
26544,1563729915797,7,2.28,0.55,0.34,0.69,0.53,0.85,-0.03,0.53,0,-0,0,0.85,4363,7,91,39,55,506,0.0,388,470,60,119.0,0,1,216,247,40,0,0,0,250,250,0,648.46,45.747856,4.906453,0.0,198.8,0,0.0,-1,0.0,0.0,0,0.0,0.4424
26564,1563729915817,7,2.28,0.55,0.33,0.68,0.52,0.88,-0.03,0.56,0,-2,1,0.88,4350,7,90,39,55,506,0.0,389,467,60,120.0,0,1,214,247,40,0,0,0,250,250,0,414.87,,,,,,,,,,,,
26584,1563729915837,7,2.29,0.55,0.33,0.67,0.52,0.88,-0.02,0.56,0,-2,1,0.88,4368,7,90,39,55,506,0.0,385,471,60,120.0,0,1,217,247,40,0,0,0,250,250,0,414.87,,,,,,,,,,,,
26604,1563729915857,8,2.29,0.55,0.32,0.67,0.51,0.85,-0.02,0.55,0,-1,1,0.85,4355,7,90,39,55,506,0.0,393,469,60,120.0,0,1,215,247,41,0,0,0,250,250,0,414.87,,,,,,,,,,,,
26624,1563729915877,11,2.28,0.55,0.32,0.66,0.5,0.79,-0.04,0.56,0,-0,1,0.8,4348,7,90,39,55,506,0.0,387,467,60,120.0,0,1,214,247,41,0,0,0,250,250,0,414.87,,,,,,,,,,,,
26644,1563729915897,9,2.29,0.55,0.31,0.66,0.49,0.76,-0.07,0.57,-0,0,-0,0.76,4345,7,90,39,54,506,0.0,392,467,60,118.0,0,1,215,242,41,0,0,0,250,250,0,414.87,45.747856,4.906453,0.0,198.8,0,0.0,-1,0.0,0.0,0,0.0,0.4441
26664,1563729915917,9,2.28,0.54,0.31,0.65,0.49,0.76,-0.08,0.55,-0,1,-1,0.76,4321,7,90,39,54,506,0.0,391,468,60,117.0,0,1,212,242,41,0,0,0,250,250,0,414.87,,,,,,,,,,,,
26684,1563729915937,8,2.29,0.54,0.31,0.65,0.49,0.78,-0.06,0.54,-0,2,-1,0.78,4338,7,90,39,54,506,0.0,388,470,60,118.0,0,1,214,245,41,0,0,0,250,250,0,414.87,,,,,,,,,,,,
26704,1563729915957,7,2.28,0.54,0.3,0.64,0.48,0.8,-0.04,0.53,0,2,-1,0.8,4332,7,90,39,55,506,0.0,393,469,60,118.0,0,1,213,245,40,0,0,0,250,250,0,882.05,,,,,,,,,,,,
26724,1563729915977,7,2.29,0.53,0.31,0.64,0.48,0.84,-0.02,0.52,0,1,-0,0.84,4309,7,90,39,55,506,0.0,387,470,60,119.0,0,1,212,245,40,0,0,0,250,250,0,648.46,,,,,,,,,,,,
26744,1563729915991,6,2.29,0.53,0.3,0.63,0.48,0.86,-0.01,0.55,0,-1,0,0.86,4361,7,90,39,55,506,0.0,395,466,60,120.0,0,1,216,245,40,0,0,0,250,250,0,648.46,45.747856,4.906453,0.0,198.8,0,0.0,-1,0.0,0.0,0,0.0,0.4457
26764,1563729916011,6,2.28,0.53,0.3,0.63,0.48,0.9,-0.0,0.58,0,-3,1,0.9,4369,7,90,39,55,506,0.0,386,465,60,120.0,0,1,217,245,40,0,0,0,250,250,0,414.87,,,,,,,,,,,,
26784,1563729916031,6,2.29,0.54,0.29,0.63,0.48,0.85,0.0,0.57,0,-3,1,0.85,4347,7,90,39,55,506,0.0,385,471,60,120.0,0,1,214,245,40,0,0,0,250,250,0,414.87,,,,,,,,,,,,
26804,1563729916051,11,2.29,0.53,0.3,0.62,0.47,0.8,-0.02,0.56,0,-1,1,0.8,4348,7,90,39,55,506,0.0,391,471,60,120.0,0,1,214,245,40,0,0,0,250,250,0,414.87,,,,,,,,,,,,
26824,1563729916071,11,2.29,0.53,0.29,0.61,0.47,0.76,-0.02,0.54,0,1,-0,0.76,4337,7,89,39,55,506,0.0,388,472,60,120.0,0,1,213,245,40,0,0,0,250,250,0,414.87,,,,,,,,,,,,
26844,1563729916097,9,2.29,0.53,0.29,0.61,0.47,0.72,-0.03,0.54,0,2,-0,0.72,4358,7,89,39,55,506,0.0,391,468,60,119.0,0,1,215,245,40,0,0,0,250,250,0,414.87,45.747856,4.906453,0.0,198.8,0,0.0,-1,0.0,0.0,0,0.0,0.4474
26864,1563729916117,8,2.29,0.53,0.29,0.61,0.46,0.71,-0.03,0.51,-0,2,-1,0.71,4330,7,89,39,55,506,0.0,392,468,60,118.0,0,1,213,245,40,0,0,0,250,250,0,882.05,,,,,,,,,,,,
26884,1563729916137,7,2.28,0.53,0.28,0.61,0.46,0.73,-0.02,0.51,-0,2,-1,0.73,4381,7,89,39,55,506,0.0,398,469,60,117.0,0,1,218,245,40,0,0,0,250,250,0,-5.59,,,,,,,,,,,,
26904,1563729916157,6,2.29,0.53,0.28,0.62,0.45,0.75,-0.0,0.47,0,2,-1,0.75,4379,7,89,39,55,506,0.0,393,473,60,118.0,0,1,218,245,40,0,0,0,250,250,0,882.05,,,,,,,,,,,,
26924,1563729916177,7,2.28,0.53,0.28,0.61,0.45,0.79,0.03,0.46,0,1,-1,0.79,4369,7,89,39,55,506,0.0,390,470,60,119.0,0,1,217,245,40,0,0,0,250,250,0,882.05,,,,,,,,,,,,
26944,1563729916197,7,2.29,0.52,0.28,0.61,0.45,0.82,0.04,0.46,0,1,-0,0.82,4389,7,89,39,55,506,0.0,391,472,60,120.0,0,1,219,245,40,0,0,0,250,250,0,648.46,45.747856,4.906453,0.0,198.8,0,0.0,-1,0.0,0.0,0,0.0,0.4491
26964,1563729916217,7,2.29,0.52,0.28,0.6,0.46,0.84,0.03,0.48,0,-1,1,0.84,4373,7,89,39,55,506,0.0,388,468,60,120.0,0,1,217,245,40,0,0,0,250,250,0,648.46,,,,,,,,,,,,
26984,1563729916237,6,2.29,0.52,0.28,0.6,0.45,0.86,0.05,0.49,0,-2,1,0.86,4385,7,89,39,55,506,0.0,391,473,60,120.0,0,1,219,245,40,0,0,0,250,250,0,414.87,,,,,,,,,,,,
27004,1563729916257,8,2.28,0.53,0.28,0.6,0.44,0.89,0.03,0.5,0,-3,1,0.89,4372,7,89,39,55,506,0.0,385,470,60,120.0,0,1,217,245,41,0,0,0,250,250,0,414.87,,,,,,,,,,,,
27024,1563729916277,6,2.29,0.52,0.28,0.6,0.44,0.9,0.04,0.49,0,-2,1,0.9,4379,7,89,39,55,506,0.0,398,474,60,120.0,0,1,218,245,41,0,0,0,250,250,0,414.87,,,,,,,,,,,,
27044,1563729916297,11,2.28,0.52,0.28,0.6,0.45,0.88,0.04,0.5,0,-0,0,0.89,4395,7,89,39,55,506,0.0,390,470,60,120.0,0,1,220,241,41,0,0,0,250,250,0,414.87,45.747856,4.906453,0.0,198.8,0,0.0,-1,0.0,0.0,0,0.0,0.4507
27064,1563729916317,10,2.29,0.51,0.27,0.59,0.44,0.86,0.0,0.49,0,-0,-1,0.86,4386,7,89,39,54,506,0.0,391,467,60,119.0,0,1,220,241,41,0,0,0,250,250,0,414.87,,,,,,,,,,,,
27084,1563729916337,11,2.29,0.51,0.27,0.58,0.43,0.78,-0.03,0.54,0,1,0,0.78,4443,7,89,39,54,506,0.0,397,465,60,119.0,0,1,228,242,41,0,0,0,250,250,0,414.87,,,,,,,,,,,,
27104,1563729916357,10,2.28,0.52,0.27,0.58,0.42,0.73,-0.05,0.56,0,3,1,0.73,4454,7,88,39,54,506,0.0,396,464,60,119.0,0,1,229,246,40,0,0,0,250,250,0,414.87,,,,,,,,,,,,
27124,1563729916377,8,2.29,0.51,0.27,0.58,0.43,0.68,-0.04,0.56,0,4,0,0.68,4419,7,88,39,54,506,0.0,401,467,60,119.0,0,1,224,242,40,0,0,0,250,250,0,414.87,,,,,,,,,,,,
27144,1563729916397,8,2.29,0.51,0.27,0.57,0.43,0.67,-0.04,0.54,0,4,0,0.67,4452,7,88,39,54,506,0.0,397,469,60,118.0,0,1,229,242,40,0,0,0,250,250,0,414.87,45.747856,4.906453,0.0,198.8,0,0.0,-1,0.0,0.0,0,0.0,0.4524
27164,1563729916417,7,2.29,0.51,0.26,0.57,0.42,0.68,-0.04,0.53,-0,4,0,0.68,4391,7,88,39,54,506,0.0,403,468,60,118.0,0,1,221,245,40,0,0,0,250,250,0,414.87,,,,,,,,,,,,
27184,1563729916437,8,2.29,0.5,0.26,0.56,0.42,0.7,-0.04,0.54,-0,4,0,0.7,4428,7,88,39,54,506,0.0,397,472,60,117.0,0,1,226,246,40,0,0,0,250,250,0,882.05,,,,,,,,,,,,
27204,1563729916457,6,2.29,0.5,0.26,0.56,0.42,0.73,-0.03,0.54,-0,3,-1,0.73,4409,7,88,39,54,506,0.0,397,470,60,118.0,0,1,223,242,40,0,0,0,250,250,0,882.05,,,,,,,,,,,,
27224,1563729916477,7,2.29,0.5,0.25,0.56,0.41,0.75,-0.02,0.49,-0,5,1,0.75,4444,7,88,39,54,506,0.0,393,468,60,119.0,0,1,228,242,40,0,0,0,250,250,0,648.46,,,,,,,,,,,,
27244,1563729916497,6,2.28,0.5,0.26,0.55,0.4,0.77,-0.0,0.45,-0,5,1,0.77,4444,7,88,39,54,506,0.0,398,468,60,119.0,0,1,227,242,40,0,0,0,250,250,0,648.46,45.747856,4.906453,0.0,198.8,0,0.0,-1,0.0,0.0,0,0.0,0.4541
27264,1563729916517,7,2.29,0.5,0.25,0.54,0.4,0.84,-0.01,0.44,-0,5,2,0.84,4397,7,88,39,54,506,0.0,400,467,60,119.0,0,1,222,241,40,0,0,0,250,250,0,882.05,,,,,,,,,,,,
27284,1563729916537,7,2.29,0.5,0.26,0.56,0.42,0.87,-0.02,0.46,-0,4,2,0.87,4452,7,88,39,54,506,0.0,392,468,60,119.0,0,1,229,242,40,0,0,0,250,250,0,648.46,,,,,,,,,,,,
27304,1563729916557,7,2.28,0.5,0.26,0.56,0.41,0.89,0.02,0.45,-0,4,2,0.89,4422,7,88,39,54,506,0.0,396,477,60,120.0,0,1,225,246,40,0,0,0,250,250,0,648.46,,,,,,,,,,,,
27324,1563729916577,7,2.29,0.5,0.27,0.56,0.41,0.91,0.05,0.44,-0,2,3,0.91,4415,7,88,39,54,506,0.0,394,472,60,120.0,0,1,224,242,40,0,0,0,250,250,0,414.87,,,,,,,,,,,,
27344,1563729916597,6,2.29,0.51,0.27,0.56,0.42,0.93,0.05,0.46,-0,0,3,0.93,4407,7,88,39,54,506,0.0,391,465,60,120.0,0,1,223,242,40,0,0,0,250,250,0,414.87,45.747856,4.906453,0.0,198.8,0,0.0,-1,0.0,0.0,0,0.0,0.4557
27364,1563729916617,8,2.29,0.51,0.27,0.56,0.43,0.97,0.07,0.46,0,1,4,0.97,4403,7,88,39,54,506,0.0,394,468,60,120.0,0,1,222,242,40,0,0,0,250,250,0,414.87,,,,,,,,,,,,
27384,1563729916637,7,2.29,0.61,0.38,0.74,0.61,0.96,0.04,0.49,0,1,3,0.96,4400,7,88,39,54,506,0.0,392,470,60,120.0,0,1,222,242,40,0,0,0,250,250,0,414.87,,,,,,,,,,,,
27404,1563729916657,11,2.29,0.62,0.4,0.77,0.64,0.95,0.02,0.51,0,1,2,0.95,4379,7,87,39,54,506,0.0,397,468,60,120.0,0,1,219,241,40,0,0,0,250,250,0,414.87,,,,,,,,,,,,
27424,1563729916677,11,2.29,0.62,0.41,0.77,0.65,0.9,-0.0,0.52,0,1,2,0.9,4405,7,87,39,54,506,0.0,392,461,60,119.0,0,1,223,238,40,0,0,0,250,250,0,414.87,,,,,,,,,,,,
27444,1563729916696,11,2.29,0.64,0.42,0.78,0.67,0.84,-0.03,0.54,0,2,2,0.85,4408,7,87,39,54,506,0.0,397,466,60,118.0,0,1,223,242,40,0,0,0,250,250,0,414.87,45.747856,4.906453,0.0,198.8,0,0.0,-1,0.0,0.0,0,0.0,0.4574
27464,1563729916716,10,2.28,0.64,0.43,0.8,0.67,0.8,-0.07,0.57,-0,2,1,0.8,4392,7,87,39,54,506,0.0,402,468,60,118.0,0,1,221,241,40,0,0,0,250,250,0,414.87,,,,,,,,,,,,
27484,1563729916736,9,2.28,0.64,0.44,0.81,0.69,0.77,-0.06,0.56,-0,2,0,0.77,4404,7,87,39,54,506,0.0,396,466,60,118.0,0,1,222,242,40,0,0,0,250,250,0,414.87,,,,,,,,,,,,
27504,1563729916756,8,2.29,0.64,0.44,0.81,0.7,0.78,-0.04,0.55,-0,2,-0,0.78,4376,7,87,39,54,506,0.0,395,472,60,118.0,0,1,219,245,40,0,0,0,250,250,0,414.87,,,,,,,,,,,,
27524,1563729916776,8,2.29,0.65,0.45,0.82,0.7,0.83,-0.04,0.55,-0,2,-1,0.83,4378,7,87,39,54,506,0.0,392,470,60,118.0,0,1,219,241,40,0,0,0,250,250,0,882.05,,,,,,,,,,,,
27544,1563729916796,8,2.29,0.65,0.45,0.83,0.7,0.84,-0.03,0.54,-0,1,-0,0.84,4339,7,87,39,54,506,0.0,398,471,60,119.0,0,1,214,241,40,0,0,0,250,250,0,882.05,45.747856,4.906453,0.0,198.8,0,0.0,-1,0.0,0.0,0,0.0,0.4591
27564,1563729916816,8,2.29,0.66,0.46,0.83,0.71,0.84,-0.04,0.55,0,1,0,0.84,4341,7,87,39,54,506,0.0,387,472,60,119.0,0,1,214,241,40,0,0,0,250,250,0,648.46,,,,,,,,,,,,
27584,1563729916836,7,2.29,0.65,0.46,0.84,0.72,0.86,-0.05,0.51,0,-1,0,0.86,4378,7,87,39,54,506,0.0,391,472,60,120.0,0,1,219,241,40,0,0,0,250,250,0,414.87,,,,,,,,,,,,
27604,1563729916856,8,2.29,0.66,0.46,0.85,0.72,0.9,-0.06,0.49,0,-2,1,0.91,4321,7,87,39,54,506,0.0,391,466,60,120.0,0,1,212,241,39,0,0,0,250,250,0,414.87,,,,,,,,,,,,
27624,1563729916876,8,2.29,0.66,0.47,0.85,0.73,0.92,-0.04,0.5,-0,-2,1,0.92,4345,7,87,39,55,506,0.0,384,467,60,119.0,0,1,214,245,39,0,0,0,250,250,0,414.87,,,,,,,,,,,,
27644,1563729916896,10,2.29,0.66,0.47,0.85,0.73,0.9,-0.03,0.51,-0,-1,1,0.9,4345,7,87,39,55,506,0.0,388,468,60,120.0,0,1,214,241,39,0,0,0,250,250,0,414.87,45.747856,4.906453,0.0,198.8,0,0.0,-1,0.0,0.0,0,0.0,0.4607
27664,1563729916916,10,2.28,0.66,0.47,0.86,0.73,0.83,-0.04,0.53,-0,1,0,0.83,4343,7,87,39,54,506,0.0,385,466,60,119.0,0,1,214,241,39,0,0,0,250,250,0,414.87,,,,,,,,,,,,
27684,1563729916936,10,2.29,0.67,0.48,0.87,0.73,0.8,-0.07,0.52,-0,2,-0,0.8,4366,7,86,39,54,506,0.0,396,463,60,119.0,0,1,217,241,39,0,0,0,250,250,0,414.87,,,,,,,,,,,,
27704,1563729916956,8,2.28,0.67,0.48,0.86,0.74,0.78,-0.05,0.52,-0,2,-1,0.79,4345,7,86,39,55,506,0.0,392,471,60,118.0,0,1,214,244,39,0,0,0,250,250,0,414.87,,,,,,,,,,,,
27724,1563729916976,6,2.29,0.66,0.48,0.87,0.75,0.82,-0.04,0.53,-0,1,-1,0.82,4338,7,86,39,54,506,0.0,389,470,60,118.0,0,1,214,244,39,0,0,0,250,250,0,882.05,,,,,,,,,,,,
27744,1563729916996,8,2.28,0.66,0.48,0.88,0.74,0.83,-0.02,0.5,-0,0,-1,0.83,4360,7,86,39,55,506,0.0,392,470,60,118.0,0,1,216,239,39,0,0,0,250,250,0,882.05,45.747856,4.906453,0.0,198.8,0,0.0,-1,0.0,0.0,0,0.0,0.4624
27764,1563729917010,7,2.29,0.66,0.49,0.87,0.75,0.85,-0.02,0.51,-0,-0,-0,0.85,4352,7,86,39,55,506,0.0,388,470,60,119.0,0,1,215,244,39,0,0,0,250,250,0,648.46,,,,,,,,,,,,
27784,1563729917030,7,2.29,0.67,0.48,0.89,0.75,0.87,-0.03,0.51,-0,-1,0,0.87,4356,7,86,39,55,506,0.0,387,470,60,120.0,0,1,215,244,39,0,0,0,250,250,0,414.87,,,,,,,,,,,,
27804,1563729917050,6,2.29,0.67,0.49,0.88,0.76,0.91,-0.03,0.53,-0,-3,1,0.91,4380,7,86,39,55,506,0.0,386,467,60,120.0,0,1,218,244,39,0,0,0,250,250,0,414.87,,,,,,,,,,,,
27824,1563729917070,7,2.28,0.67,0.49,0.89,0.76,0.93,-0.04,0.55,-0,-4,1,0.93,4391,7,86,39,55,506,0.0,394,471,60,119.0,0,1,220,244,39,0,0,0,250,250,0,414.87,,,,,,,,,,,,
27844,1563729917098,7,2.29,0.67,0.5,0.88,0.76,0.93,-0.01,0.54,-0,-4,1,0.93,4389,7,86,39,55,506,0.0,389,466,60,120.0,0,1,219,239,39,0,0,0,250,250,0,414.87,45.747856,4.906453,0.0,198.8,0,0.0,-1,0.0,0.0,0,0.0,0.4641
27864,1563729917118,10,2.29,0.67,0.49,0.89,0.76,0.9,-0.01,0.54,-0,-1,1,0.9,4389,7,86,39,54,506,0.0,393,463,60,120.0,0,1,220,239,39,0,0,0,250,250,0,414.87,,,,,,,,,,,,
27884,1563729917138,10,2.29,0.67,0.5,0.9,0.76,0.85,-0.01,0.52,-0,1,0,0.85,4361,7,86,39,54,506,0.0,400,463,60,119.0,0,1,217,244,39,0,0,0,250,250,0,414.87,,,,,,,,,,,,
27904,1563729917158,10,2.28,0.66,0.49,0.9,0.76,0.8,-0.04,0.53,-0,1,-1,0.8,4355,7,86,39,54,506,0.0,389,463,60,119.0,0,1,216,239,40,0,0,0,250,250,0,414.87,,,,,,,,,,,,
27924,1563729917178,9,2.29,0.67,0.5,0.89,0.76,0.77,-0.04,0.54,-0,1,-1,0.77,4404,7,86,39,54,506,0.0,397,465,60,118.0,0,1,222,240,40,0,0,0,250,250,0,414.87,,,,,,,,,,,,
27944,1563729917196,8,2.29,0.67,0.5,0.9,0.76,0.76,-0.02,0.53,-0,1,-2,0.76,4360,7,85,39,54,506,0.0,389,466,60,117.0,0,1,217,239,40,0,0,0,250,250,0,414.87,45.747856,4.906453,0.0,198.8,0,0.0,-1,0.0,0.0,0,0.0,0.4657
27964,1563729917216,8,2.28,0.68,0.5,0.9,0.76,0.78,-0.02,0.52,-0,2,-2,0.78,4428,7,85,39,54,506,0.0,398,469,60,118.0,0,1,226,240,40,0,0,0,250,250,0,882.05,,,,,,,,,,,,
27984,1563729917236,7,2.29,0.67,0.5,0.9,0.77,0.79,0.0,0.5,-0,2,-1,0.79,4432,7,85,39,54,506,0.0,402,467,60,118.0,0,1,226,245,40,0,0,0,250,250,0,882.05,,,,,,,,,,,,
28004,1563729917256,7,2.29,0.68,0.5,0.91,0.77,0.84,-0.01,0.49,-0,1,-1,0.84,4403,7,85,39,55,506,0.0,393,472,60,119.0,0,1,224,245,40,0,0,0,250,250,0,882.05,,,,,,,,,,,,
28024,1563729917276,7,2.29,0.67,0.51,0.9,0.78,0.88,-0.02,0.51,-0,-0,-1,0.88,4450,7,85,39,54,506,0.0,401,466,60,119.0,0,1,227,239,40,0,0,0,250,250,0,882.05,,,,,,,,,,,,
28044,1563729917298,8,2.29,0.68,0.5,0.91,0.78,0.9,0.01,0.49,-0,-2,-0,0.9,4435,7,85,39,54,506,0.0,395,470,60,119.0,0,1,226,239,40,0,0,0,250,250,0,648.46,45.747856,4.906453,0.0,198.8,0,0.0,-1,0.0,0.0,0,0.0,0.4674
28064,1563729917318,7,2.29,0.68,0.5,0.9,0.77,0.91,0.02,0.51,0,-2,0,0.91,4420,7,85,39,55,506,0.0,398,467,60,120.0,0,1,224,239,40,0,0,0,250,250,0,648.46,,,,,,,,,,,,
28084,1563729917338,7,2.29,0.68,0.51,0.91,0.78,0.92,0.0,0.52,-0,-3,1,0.92,4439,7,85,39,54,506,0.0,393,465,60,120.0,0,1,227,239,40,0,0,0,250,250,0,414.87,,,,,,,,,,,,
28104,1563729917358,7,2.29,0.68,0.5,0.92,0.77,0.94,0.01,0.52,0,-4,2,0.94,4396,7,85,39,54,506,0.0,397,471,60,120.0,0,1,221,238,40,0,0,0,250,250,0,414.87,,,,,,,,,,,,
28124,1563729917378,8,2.29,0.68,0.51,0.92,0.78,0.97,-0.0,0.49,0,-5,2,0.97,4395,7,85,39,54,506,0.0,391,467,60,120.0,0,1,221,238,40,0,0,0,250,250,0,414.87,,,,,,,,,,,,
28144,1563729917398,8,2.28,0.68,0.51,0.91,0.77,0.98,0.02,0.48,0,-4,2,0.98,4424,7,85,39,54,506,0.0,394,468,60,120.0,0,1,225,239,40,0,0,0,250,250,0,414.87,45.747856,4.906453,0.0,198.8,0,0.0,-1,0.0,0.0,0,0.0,0.4691
28164,1563729917418,6,2.3,0.68,0.51,0.92,0.77,0.98,0.02,0.5,0,-4,1,0.98,4373,7,85,39,54,506,0.0,394,464,60,120.0,0,1,218,238,40,0,0,0,250,250,0,414.87,,,,,,,,,,,,
28184,1563729917438,11,2.28,0.68,0.51,0.92,0.78,0.94,0.01,0.52,0,-4,1,0.94,4423,7,84,39,54,506,0.0,389,464,60,122.0,0,1,225,239,40,0,0,0,250,250,0,414.87,,,,,,,,,,,,
28204,1563729917458,11,2.29,0.67,0.51,0.92,0.79,0.87,-0.01,0.53,0,-3,0,0.87,4412,7,84,39,54,506,0.0,397,466,60,121.0,0,1,223,239,40,0,0,0,250,250,0,414.87,,,,,,,,,,,,
28224,1563729917478,10,2.3,0.68,0.51,0.92,0.78,0.8,-0.03,0.52,0,-0,0,0.81,4415,7,84,39,54,506,0.0,394,466,60,122.0,0,1,224,239,40,0,0,0,250,250,0,414.87,,,,,,,,,,,,
28244,1563729917498,10,2.29,0.68,0.51,0.92,0.79,0.75,-0.04,0.5,0,1,-1,0.75,4395,7,84,39,54,506,0.0,398,466,60,122.0,0,1,221,238,40,0,0,0,250,250,0,414.87,45.747856,4.906453,0.0,198.8,0,0.0,-1,0.0,0.0,0,0.0,0.4707
28264,1563729917518,9,2.3,0.68,0.52,0.92,0.78,0.75,-0.03,0.49,0,2,-1,0.75,4392,7,84,39,54,506,0.0,397,465,60,121.0,0,1,221,236,40,0,0,0,250,250,0,414.87,,,,,,,,,,,,
28284,1563729917538,8,2.29,0.68,0.52,0.92,0.79,0.74,-0.04,0.48,-0,2,-2,0.74,4392,7,84,39,54,506,0.0,396,465,60,120.0,0,1,221,236,40,0,0,0,250,250,0,414.87,,,,,,,,,,,,
28304,1563729917558,8,2.28,0.68,0.51,0.93,0.79,0.75,-0.04,0.48,0,1,-1,0.75,4384,7,84,39,54,506,0.0,401,470,60,120.0,0,1,220,236,40,0,0,0,250,250,0,882.05,,,,,,,,,,,,
28324,1563729917578,8,2.29,0.68,0.51,0.92,0.79,0.78,-0.03,0.49,-0,1,-1,0.78,4395,7,84,39,54,506,0.0,392,463,60,122.0,0,1,224,236,40,0,0,0,250,250,0,882.05,,,,,,,,,,,,
28344,1563729917598,8,2.28,0.68,0.51,0.93,0.79,0.81,-0.01,0.48,0,0,-1,0.81,4395,7,84,39,54,506,0.0,392,469,60,122.0,0,1,221,236,40,0,0,0,250,250,0,882.05,45.747856,4.906453,0.0,198.8,0,0.0,-1,0.0,0.0,0,0.0,0.4724
28364,1563729917618,7,2.29,0.68,0.51,0.92,0.79,0.85,-0.0,0.48,0,-0,-1,0.85,4400,7,84,39,54,506,0.0,391,465,60,122.0,0,1,222,237,40,0,0,0,250,250,0,648.46,,,,,,,,,,,,
28384,1563729917638,7,2.29,0.68,0.51,0.92,0.79,0.87,-0.01,0.5,0,-2,0,0.87,4410,7,84,39,54,506,0.0,396,467,60,122.0,0,1,223,237,40,0,0,0,250,250,0,648.46,,,,,,,,,,,,
28404,1563729917658,7,2.29,0.68,0.52,0.93,0.79,0.89,-0.01,0.52,0,-3,1,0.89,4381,7,84,39,54,506,0.0,394,471,60,123.0,0,1,219,236,39,0,0,0,250,250,0,414.87,,,,,,,,,,,,
28424,1563729917678,7,2.28,0.68,0.51,0.93,0.79,0.92,-0.01,0.52,0,-4,1,0.92,4406,7,84,39,54,506,0.0,388,468,60,123.0,0,1,223,237,39,0,0,0,250,250,0,414.87,,,,,,,,,,,,
28444,1563729917697,7,2.29,0.68,0.52,0.93,0.79,0.95,0.02,0.49,0,-3,1,0.95,4384,7,84,39,54,506,0.0,392,470,60,123.0,0,1,220,236,39,0,0,0,250,250,0,414.87,45.747856,4.906453,0.0,198.8,0,0.0,-1,0.0,0.0,0,0.0,0.4741
28464,1563729917717,7,2.29,0.68,0.52,0.92,0.8,0.94,0.01,0.49,0,-2,1,0.94,4358,7,84,39,54,506,0.0,388,466,60,123.0,0,1,216,236,39,0,0,0,250,250,0,414.87,,,,,,,,,,,,
28484,1563729917737,9,2.3,0.69,0.52,0.92,0.8,0.89,-0.01,0.5,0,-1,0,0.89,4391,7,83,39,54,506,0.0,391,462,60,121.0,0,1,221,236,39,0,0,0,250,250,0,414.87,,,,,,,,,,,,
28504,1563729917757,10,2.28,0.69,0.52,0.93,0.79,0.82,-0.05,0.53,-0,-1,-1,0.83,4384,7,83,39,54,506,0.0,395,465,60,121.0,0,1,220,235,39,0,0,0,250,250,0,414.87,,,,,,,,,,,,
28524,1563729917777,10,2.28,0.69,0.52,0.93,0.79,0.77,-0.06,0.54,-0,0,-1,0.77,4423,7,83,39,54,506,0.0,394,463,60,122.0,0,1,225,236,39,0,0,0,250,250,0,414.87,,,,,,,,,,,,
28544,1563729917797,7,2.29,0.69,0.52,0.93,0.8,0.74,-0.05,0.53,-0,2,-1,0.74,4394,7,83,39,54,506,0.0,400,466,60,121.0,0,1,221,235,39,0,0,0,250,250,0,414.87,45.747856,4.906453,0.0,198.8,0,0.0,-1,0.0,0.0,0,0.0,0.4757
28564,1563729917817,7,2.3,0.69,0.52,0.94,0.79,0.76,-0.05,0.5,-0,2,-1,0.76,4425,7,83,39,54,506,0.0,394,465,60,120.0,0,1,225,236,39,0,0,0,250,250,0,414.87,,,,,,,,,,,,
28584,1563729917837,6,2.29,0.68,0.51,0.92,0.79,0.78,-0.04,0.49,-0,2,-1,0.78,4378,7,83,39,54,506,0.0,399,467,60,120.0,0,1,219,235,39,0,0,0,250,250,0,882.05,,,,,,,,,,,,
28604,1563729917857,8,2.29,0.69,0.52,0.94,0.79,0.83,-0.05,0.5,-0,1,-1,0.83,4406,7,83,39,54,506,0.0,393,470,60,121.0,0,1,223,235,39,0,0,0,250,250,0,882.05,,,,,,,,,,,,
28624,1563729917877,6,2.29,0.68,0.52,0.93,0.8,0.86,-0.05,0.51,-0,-0,-2,0.86,4441,7,83,39,54,506,0.0,396,467,60,122.0,0,1,227,236,39,0,0,0,250,250,0,648.46,,,,,,,,,,,,
28644,1563729917897,5,2.3,0.68,0.52,0.94,0.79,0.86,-0.02,0.5,-0,0,-1,0.86,4410,7,83,39,54,506,0.0,398,468,60,121.0,0,1,225,236,39,0,0,0,250,250,0,882.05,45.747856,4.906453,0.0,198.8,0,0.0,-1,0.0,0.0,0,0.0,0.4774
28664,1563729917917,6,2.3,0.69,0.51,0.94,0.8,0.88,-0.01,0.5,-0,0,-1,0.88,4430,7,83,39,54,506,0.0,395,465,60,122.0,0,1,226,236,39,0,0,0,250,250,0,648.46,,,,,,,,,,,,
28684,1563729917937,7,2.29,0.69,0.51,0.94,0.79,0.91,-0.03,0.5,-0,-1,-0,0.91,4432,7,83,39,54,506,0.0,402,464,60,122.0,0,1,226,236,39,0,0,0,250,250,0,648.46,,,,,,,,,,,,
28704,1563729917957,7,2.29,0.69,0.51,0.93,0.79,0.92,-0.02,0.51,-0,-2,0,0.92,4423,7,83,39,54,506,0.0,391,472,60,123.0,0,1,225,236,39,0,0,0,250,250,0,648.46,,,,,,,,,,,,
28724,1563729917977,7,2.29,0.69,0.52,0.94,0.79,0.94,0.01,0.51,0,-4,1,0.94,4452,7,83,39,54,506,0.0,394,465,60,122.0,0,1,229,234,39,0,0,0,250,250,0,648.46,,,,,,,,,,,,
28744,1563729917991,6,2.28,0.66,0.51,0.93,0.78,0.96,0.04,0.5,0,-4,1,0.96,4452,7,83,39,54,506,0.0,398,466,60,123.0,0,1,229,234,39,0,0,0,250,250,0,414.87,45.747856,4.906453,0.0,198.8,0,0.0,-1,0.0,0.0,0,0.0,0.4791
28764,1563729918011,7,2.3,0.68,0.52,0.93,0.8,0.98,0.07,0.52,0,-4,2,0.98,4430,7,83,39,54,506,0.0,393,467,60,123.0,0,1,226,234,39,0,0,0,250,250,0,414.87,,,,,,,,,,,,
28784,1563729918031,6,2.29,0.68,0.52,0.93,0.79,1.0,0.08,0.51,0,-5,2,1.01,4423,7,83,39,54,506,0.0,396,470,60,123.0,0,1,225,234,39,0,0,0,250,250,0,414.87,,,,,,,,,,,,
28804,1563729918051,6,2.3,0.68,0.52,0.93,0.8,1.02,0.06,0.52,0,-5,2,1.02,4411,7,83,39,54,506,0.0,386,470,60,122.0,0,1,223,234,39,0,0,0,250,250,0,414.87,,,,,,,,,,,,
28824,1563729918071,6,2.29,0.68,0.52,0.93,0.79,1.02,0.06,0.52,0,-4,1,1.02,4437,7,82,39,54,506,0.0,402,466,60,122.0,0,1,227,234,39,0,0,0,250,250,0,414.87,,,,,,,,,,,,
28844,1563729918091,5,2.3,0.68,0.51,0.93,0.78,0.99,0.06,0.53,0,-4,1,0.99,4392,7,82,39,54,506,0.0,392,465,60,122.0,0,1,221,233,39,0,0,0,250,250,0,414.87,45.747856,4.906453,0.0,198.8,0,0.0,-1,0.0,0.0,0,0.0,0.4807
28864,1563729918111,11,2.29,0.68,0.51,0.93,0.79,0.93,0.03,0.56,0,-3,1,0.93,4424,7,82,39,54,506,0.0,394,463,60,122.0,0,1,225,234,39,0,0,0,250,250,0,414.87,,,,,,,,,,,,
28884,1563729918131,11,2.28,0.68,0.51,0.93,0.78,0.86,-0.01,0.58,-0,-2,0,0.86,4416,7,82,39,54,506,0.0,398,467,60,122.0,0,1,224,233,39,0,0,0,250,250,0,414.87,,,,,,,,,,,,
28904,1563729918107,8,2.3,0.68,0.51,0.93,0.78,0.78,-0.02,0.55,0,0,0,0.78,4419,7,82,39,54,506,0.0,393,463,60,122.0,0,1,224,233,38,0,0,0,250,250,0,414.87,,,,,,,,,,,,
28924,1563729918127,7,2.29,0.68,0.51,0.93,0.78,0.76,-0.0,0.52,0,2,-1,0.76,4375,7,82,39,54,506,0.0,398,463,60,122.0,0,1,219,232,38,0,0,0,250,250,0,414.87,,,,,,,,,,,,
28944,1563729918197,9,2.28,0.68,0.51,0.93,0.78,0.81,-0.01,0.5,0,1,-1,0.81,4361,7,82,39,54,506,0.0,390,466,60,120.0,0,1,217,232,38,0,0,0,250,250,0,414.87,45.747856,4.906453,0.0,198.8,0,0.0,-1,0.0,0.0,0,0.0,0.4824
28964,1563729918217,7,2.29,0.68,0.51,0.93,0.78,0.81,-0.01,0.5,0,1,-1,0.81,4369,7,82,39,54,506,0.0,400,466,60,122.0,0,1,218,232,38,0,0,0,250,250,0,882.05,,,,,,,,,,,,
28984,1563729918237,6,2.29,0.68,0.51,0.93,0.78,0.82,-0.02,0.5,0,-0,-1,0.82,4340,7,82,39,54,506,0.0,390,465,60,122.0,0,1,214,232,38,0,0,0,250,250,0,882.05,,,,,,,,,,,,
29004,1563729918257,6,2.29,0.68,0.51,0.93,0.79,0.83,-0.03,0.52,0,-1,-0,0.83,4351,7,82,39,54,506,0.0,387,470,60,122.0,0,1,215,232,38,0,0,0,250,250,0,648.46,,,,,,,,,,,,
29024,1563729918277,5,2.29,0.68,0.51,0.92,0.79,0.87,-0.02,0.5,0,-2,0,0.87,4357,7,82,39,54,506,0.0,387,467,60,122.0,0,1,216,232,38,0,0,0,250,250,0,648.46,,,,,,,,,,,,
29044,1563729918297,6,2.29,0.68,0.51,0.94,0.78,0.9,0.0,0.49,0,-3,1,0.9,4345,7,82,39,54,506,0.0,385,468,60,123.0,0,1,215,232,38,0,0,0,250,250,0,414.87,45.747856,4.906453,0.0,198.8,0,0.0,-1,0.0,0.0,0,0.0,0.4841
29064,1563729918317,7,2.29,0.67,0.5,0.93,0.78,0.91,0.01,0.52,0,-3,1,0.91,4367,7,82,39,54,506,0.0,390,468,60,123.0,0,1,218,230,38,0,0,0,250,250,0,414.87,,,,,,,,,,,,
29084,1563729918337,11,2.29,0.68,0.51,0.94,0.78,0.89,0.0,0.53,0,-2,1,0.89,4353,7,82,39,54,506,0.0,383,469,60,123.0,0,1,216,230,38,0,0,0,250,250,0,414.87,,,,,,,,,,,,
29104,1563729918357,9,2.29,0.69,0.51,0.94,0.78,0.83,-0.02,0.53,0,-1,-0,0.83,4352,7,82,39,54,506,0.0,395,467,60,122.0,0,1,216,230,38,0,0,23,250,250,0,181.28,,,,,,,,,,,,
29124,1563729918377,9,2.28,0.68,0.51,0.94,0.78,0.78,-0.01,0.51,0,0,-0,0.78,4336,7,82,39,54,506,0.0,389,462,60,122.0,0,1,214,230,38,0,0,23,250,250,0,414.87,,,,,,,,,,,,
29144,1563729918397,8,2.28,0.68,0.51,0.94,0.78,0.8,0.0,0.51,0,1,-1,0.8,4310,7,82,39,54,506,0.0,387,468,60,121.0,0,1,210,230,38,0,0,23,250,250,0,414.87,45.747856,4.906453,0.0,198.8,0,0.0,-1,0.0,0.0,0,0.0,0.4857
29164,1563729918417,5,2.29,0.68,0.51,0.93,0.79,0.84,0.0,0.51,0,0,-1,0.84,4339,7,82,39,55,506,0.0,387,469,60,121.0,0,1,213,235,38,0,0,23,250,250,0,882.05,,,,,,,,,,,,
29184,1563729918437,5,2.28,0.68,0.51,0.93,0.78,0.85,-0.01,0.52,0,-1,-1,0.85,4315,7,82,39,55,506,0.0,387,469,60,122.0,0,1,211,234,38,0,0,23,250,250,0,648.46,,,,,,,,,,,,
29204,1563729918403,6,2.29,0.68,0.5,0.93,0.79,0.86,-0.01,0.52,0,-2,0,0.86,4302,7,82,39,55,506,0.0,383,467,60,122.0,0,1,209,235,38,0,0,23,250,250,0,648.46,,,,,,,,,,,,
29224,1563729918423,7,2.28,0.68,0.51,0.93,0.78,0.9,-0.01,0.52,0,-3,0,0.9,4336,7,82,39,55,506,0.0,380,468,60,123.0,0,1,213,233,38,0,0,23,250,250,0,414.87,,,,,,,,,,,,
29244,1563729918443,8,2.29,0.68,0.51,0.92,0.79,0.9,-0.0,0.55,0,-4,0,0.9,4303,7,82,39,55,506,0.0,385,472,60,122.0,0,1,209,233,38,0,0,23,250,250,0,414.87,45.747856,4.906453,0.0,198.8,0,0.0,-1,0.0,0.0,0,0.0,0.4874
29264,1563729918463,10,2.3,0.67,0.51,0.93,0.79,0.88,-0.01,0.56,0,-3,-0,0.88,4345,7,81,39,55,506,0.0,384,470,60,122.0,0,1,214,229,38,0,0,15,250,250,0,414.87,,,,,,,,,,,,
29284,1563729918483,10,2.29,0.68,0.5,0.93,0.78,0.82,-0.02,0.56,0,-0,-1,0.82,4322,7,81,39,54,506,0.0,389,465,60,122.0,0,1,212,233,38,0,0,15,250,250,0,414.87,,,,,,,,,,,,
29304,1563729918499,7,2.3,0.68,0.51,0.93,0.78,0.82,-0.03,0.53,-0,1,-1,0.82,4315,7,81,39,54,506,0.0,387,465,60,121.0,0,1,211,233,37,0,0,15,250,250,0,414.87,,,,,,,,,,,,
29324,1563729918519,8,2.29,0.68,0.51,0.92,0.79,0.83,-0.02,0.51,-0,1,-1,0.83,4333,7,81,39,55,506,0.0,388,468,60,122.0,0,1,213,233,37,0,0,15,250,250,0,882.05,,,,,,,,,,,,
29344,1563729918539,6,2.29,0.67,0.51,0.93,0.78,0.87,-0.03,0.52,-0,-0,-0,0.87,4349,7,81,39,55,506,0.0,391,470,60,121.0,0,1,212,157,37,0,0,15,250,250,0,882.05,45.747856,4.906453,0.0,198.8,0,0.0,-1,0.0,0.0,0,0.0,0.4891
29364,1563729918559,7,2.3,0.68,0.51,0.93,0.78,0.86,-0.03,0.54,-0,-2,-0,0.86,4332,7,81,39,55,506,0.0,379,466,60,122.0,0,1,213,233,37,0,0,15,250,250,0,648.46,,,,,,,,,,,,
29384,1563729918579,6,2.29,0.68,0.51,0.94,0.78,0.89,-0.03,0.53,-0,-3,1,0.89,4344,7,81,39,55,506,0.0,389,470,60,123.0,0,1,214,232,37,0,0,15,250,250,0,414.87,,,,,,,,,,,,
29404,1563729918594,7,2.29,0.68,0.51,0.93,0.79,0.93,0.0,0.51,-0,-3,1,0.93,4326,7,81,39,55,506,0.0,385,471,60,123.0,0,1,212,232,38,0,0,15,250,250,0,414.87,,,,,,,,,,,,
29424,1563729918614,6,2.3,0.68,0.51,0.93,0.79,0.93,-0.0,0.51,-0,-2,1,0.93,4324,7,81,39,55,506,0.0,382,471,60,123.0,0,1,212,232,38,0,0,15,250,250,0,414.87,,,,,,,,,,,,
29444,1563729918634,10,2.29,0.68,0.51,0.94,0.79,0.88,-0.02,0.52,-0,-1,0,0.88,4341,7,81,39,55,506,0.0,386,463,60,122.0,0,1,214,232,38,0,0,15,250,250,0,414.87,45.747856,4.906453,0.0,198.8,0,0.0,-1,0.0,0.0,0,0.0,0.4907
29464,1563729918654,10,2.29,0.69,0.52,0.93,0.8,0.83,-0.05,0.54,-0,-1,-0,0.83,4321,7,81,39,55,506,0.0,390,470,60,122.0,0,1,212,232,38,0,0,15,250,250,0,414.87,,,,,,,,,,,,
29484,1563729918674,9,2.29,0.69,0.52,0.94,0.79,0.77,-0.04,0.53,-0,0,-1,0.77,4388,7,81,39,54,506,0.0,392,468,60,120.0,0,1,220,232,38,0,0,15,250,250,0,414.87,,,,,,,,,,,,
29504,1563729918694,6,2.3,0.69,0.52,0.94,0.79,0.78,-0.02,0.52,-0,1,-1,0.78,4383,7,81,39,55,506,0.0,388,473,60,121.0,0,1,219,232,38,0,0,15,250,250,0,882.05,,,,,,,,,,,,
29524,1563729918710,7,2.28,0.69,0.52,0.95,0.8,0.81,-0.01,0.49,-0,2,-1,0.81,4374,7,81,39,55,506,0.0,393,471,60,121.0,0,1,217,232,38,0,0,15,250,250,0,882.05,,,,,,,,,,,,
29544,1563729918796,5,2.29,0.69,0.51,0.94,0.8,0.83,0.01,0.49,0,1,-1,0.83,4394,7,81,39,55,506,0.0,391,466,60,122.0,0,1,219,232,38,0,0,15,250,250,0,882.05,45.747856,4.906453,0.0,198.8,0,0.0,-1,0.0,0.0,0,0.0,0.4924
29564,1563729918816,7,2.28,0.69,0.52,0.95,0.8,0.86,-0.01,0.5,0,-0,-0,0.86,4394,7,81,39,55,506,0.0,391,468,60,122.0,0,1,217,232,38,0,0,15,250,250,0,648.46,,,,,,,,,,,,
29584,1563729918836,7,2.28,0.69,0.52,0.94,0.79,0.85,-0.01,0.53,0,-2,0,0.86,4378,7,81,39,55,505,0.0,387,467,60,123.0,0,1,218,232,38,0,0,15,250,250,0,648.46,,,,,,,,,,,,
29604,1563729918856,6,2.29,0.69,0.51,0.94,0.8,0.89,-0.02,0.52,0,-3,1,0.89,4383,7,81,39,55,505,0.0,386,471,60,123.0,0,1,219,232,38,0,0,15,250,250,0,414.87,,,,,,,,,,,,
29624,1563729918876,5,2.29,0.69,0.52,0.94,0.81,0.91,0.02,0.49,0,-3,1,0.91,4362,7,81,39,55,506,0.0,392,473,60,123.0,0,1,216,232,38,0,0,15,250,250,0,414.87,,,,,,,,,,,,
29644,1563729918896,7,2.29,0.69,0.52,0.95,0.8,0.92,0.03,0.5,0,-3,1,0.92,4377,7,81,39,55,506,0.0,382,469,60,123.0,0,1,218,232,38,0,0,6,250,250,0,414.87,45.747856,4.906453,0.0,198.8,0,0.0,-1,0.0,0.0,0,0.0,0.4941
29664,1563729918916,7,2.28,0.69,0.52,0.94,0.8,0.91,0.01,0.52,0,-3,1,0.91,4399,7,81,39,55,506,0.0,393,470,60,122.0,0,1,221,232,38,0,0,6,250,250,0,414.87,,,,,,,,,,,,
29684,1563729918936,10,2.29,0.68,0.53,0.95,0.8,0.85,-0.01,0.54,-0,-3,0,0.85,4392,7,81,39,55,506,0.0,389,467,60,122.0,0,1,220,228,38,0,0,6,250,250,0,414.87,,,,,,,,,,,,
29704,1563729918956,10,2.29,0.69,0.52,0.95,0.81,0.82,-0.03,0.55,-0,-1,0,0.82,4396,7,81,39,55,506,0.0,391,466,60,122.0,0,1,220,228,38,0,0,6,250,250,0,414.87,,,,,,,,,,,,
29724,1563729918976,10,2.29,0.69,0.52,0.95,0.81,0.76,-0.03,0.54,-0,1,-0,0.76,4382,7,81,39,55,506,0.0,392,463,60,122.0,0,1,219,228,38,0,0,6,250,250,0,414.87,,,,,,,,,,,,
29744,1563729918992,8,2.29,0.69,0.52,0.95,0.81,0.76,-0.03,0.51,-0,2,-1,0.76,4439,7,81,39,55,505,0.0,394,471,60,120.0,0,1,226,233,38,0,0,6,250,250,0,882.05,45.747856,4.906453,0.0,198.8,0,0.0,-1,0.0,0.0,0,0.0,0.4957
29764,1563729919012,7,2.29,0.69,0.52,0.94,0.81,0.76,-0.03,0.51,-0,2,-1,0.76,4400,7,81,39,55,506,0.0,399,465,60,121.0,0,1,221,233,38,0,0,6,250,250,0,414.87,,,,,,,,,,,,
29784,1563729919032,7,2.29,0.69,0.52,0.96,0.8,0.77,-0.03,0.52,-0,1,-2,0.77,4413,7,81,39,55,506,0.0,391,467,60,120.0,0,1,223,233,38,0,0,6,250,250,0,414.87,,,,,,,,,,,,
29804,1563729919052,6,2.29,0.69,0.52,0.96,0.81,0.8,-0.03,0.52,-0,1,-2,0.8,4401,7,80,39,55,506,0.0,396,467,60,122.0,0,1,221,233,38,0,0,6,250,250,0,882.05,,,,,,,,,,,,
29824,1563729919072,5,2.28,0.69,0.52,0.95,0.8,0.82,-0.0,0.5,-0,1,-2,0.82,4381,7,81,39,54,505,0.0,392,470,60,121.0,0,1,222,228,38,0,0,6,250,250,0,882.05,,,,,,,,,,,,
29844,1563729919096,5,2.3,0.69,0.52,0.95,0.8,0.84,0.01,0.49,-0,1,-1,0.84,4414,7,81,39,55,505,0.0,393,467,60,122.0,0,1,223,229,38,0,0,6,250,250,0,882.05,45.747856,4.906453,0.0,198.8,0,0.0,-1,0.0,0.0,0,0.0,0.4974
29864,1563729919116,6,2.28,0.69,0.53,0.95,0.8,0.87,-0.01,0.49,-0,0,-1,0.87,4411,7,81,39,54,505,0.0,390,471,60,123.0,0,1,223,229,38,0,0,6,250,250,0,648.46,,,,,,,,,,,,
29884,1563729919136,6,2.3,0.69,0.53,0.95,0.81,0.9,-0.02,0.51,-0,-1,-0,0.9,4425,7,80,39,55,506,0.0,388,467,60,122.0,0,1,224,229,38,0,0,6,250,250,0,648.46,,,,,,,,,,,,
29904,1563729919156,7,2.29,0.7,0.53,0.95,0.81,0.92,-0.0,0.51,0,-3,0,0.92,4424,7,80,39,54,505,0.0,396,475,60,123.0,0,1,225,229,38,0,0,6,250,250,0,648.46,,,,,,,,,,,,
29924,1563729919176,7,2.28,0.7,0.53,0.95,0.81,0.94,0.04,0.5,0,-3,1,0.94,4427,7,81,39,55,505,0.0,388,472,60,123.0,0,1,224,233,38,0,0,6,250,250,0,414.87,,,,,,,,,,,,
29944,1563729919198,7,2.29,0.7,0.52,0.96,0.8,0.96,0.06,0.51,0,-4,2,0.96,4437,7,81,39,54,506,0.0,393,468,60,123.0,0,1,227,233,38,0,0,8,250,250,0,414.87,45.747856,4.906453,0.0,198.8,0,0.0,-1,0.0,0.0,0,0.0,0.4991
29964,1563729919218,7,2.29,0.69,0.52,0.96,0.81,0.98,0.06,0.52,0,-4,2,0.99,4413,7,80,39,54,506,0.0,394,469,60,123.0,0,1,224,229,38,0,0,8,250,250,0,414.87,,,,,,,,,,,,
29984,1563729919238,7,2.29,0.7,0.53,0.95,0.81,0.97,0.06,0.53,0,-4,1,0.97,4392,7,80,39,54,506,0.0,385,472,60,123.0,0,1,221,228,38,0,0,8,250,250,0,414.87,,,,,,,,,,,,
30004,1563729919258,6,2.3,0.69,0.53,0.96,0.81,0.96,0.04,0.54,0,-4,1,0.96,4425,7,80,39,55,505,0.0,392,472,60,123.0,0,1,224,229,39,0,0,8,250,250,0,414.87,,,,,,,,,,,,
30024,1563729919278,8,2.29,0.69,0.53,0.95,0.81,0.92,0.02,0.54,0,-3,1,0.92,4410,7,80,39,55,505,0.0,386,468,60,122.0,0,1,222,229,39,0,0,8,250,250,0,414.87,,,,,,,,,,,,
30044,1563729919298,11,2.29,0.7,0.53,0.95,0.81,0.86,-0.02,0.57,0,-2,0,0.86,4429,7,80,39,54,505,0.0,396,466,60,122.0,0,1,226,229,39,0,0,8,250,250,0,414.87,45.747856,4.906453,0.0,198.8,0,0.0,-1,0.0,0.0,0,0.0,0.5007
30064,1563729919318,11,2.29,0.7,0.53,0.95,0.81,0.8,-0.07,0.57,-0,-0,-0,0.8,4393,7,80,39,54,505,0.0,396,466,60,121.0,0,1,221,228,39,0,0,8,250,250,0,414.87,,,,,,,,,,,,
30084,1563729919338,10,2.29,0.7,0.52,0.96,0.81,0.75,-0.06,0.55,-0,1,-1,0.75,4414,7,80,39,54,505,0.0,396,468,60,122.0,0,1,224,233,39,0,0,8,250,250,0,414.87,,,,,,,,,,,,
30104,1563729919358,9,2.3,0.7,0.52,0.96,0.81,0.75,-0.04,0.53,-0,2,-1,0.75,4376,7,80,39,54,505,0.0,400,470,60,121.0,0,1,219,228,38,0,0,8,250,250,0,882.05,,,,,,,,,,,,
30124,1563729919378,7,2.29,0.7,0.52,0.96,0.8,0.81,-0.04,0.52,-0,2,-2,0.81,4402,7,80,39,55,505,0.0,392,467,60,121.0,0,1,221,233,38,0,0,8,250,250,0,882.05,,,,,,,,,,,,
30144,1563729919398,6,2.29,0.69,0.53,0.95,0.81,0.8,-0.03,0.5,-0,2,-2,0.8,4394,7,80,39,54,506,0.0,397,470,60,120.0,0,1,221,233,38,0,0,8,250,250,0,882.05,45.747856,4.906453,0.0,198.8,0,0.0,-1,0.0,0.0,0,0.0,0.5024
30164,1563729919418,7,2.29,0.7,0.52,0.96,0.81,0.82,-0.04,0.5,-0,1,-1,0.82,4376,6,80,39,55,505,0.0,387,468,60,122.0,0,1,222,232,38,0,0,11,250,250,0,882.05,,,,,,,,,,,,
30184,1563729919438,7,2.28,0.7,0.53,0.95,0.81,0.84,-0.03,0.51,0,0,-1,0.84,4399,7,80,39,54,505,0.0,396,470,60,122.0,0,1,222,228,38,0,0,11,250,250,0,882.05,,,,,,,,,,,,
30204,1563729919458,5,2.29,0.7,0.53,0.96,0.82,0.86,-0.0,0.48,0,-0,-0,0.86,4371,7,80,39,54,505,0.0,384,468,60,122.0,0,1,218,228,37,0,0,11,250,250,0,648.46,,,,,,,,,,,,
30224,1563729919478,5,2.28,0.7,0.53,0.95,0.81,0.9,0.02,0.49,0,-1,0,0.9,4422,7,80,39,54,506,0.0,388,470,60,123.0,0,1,225,229,37,0,0,11,250,250,0,648.46,,,,,,,,,,,,
30244,1563729919494,7,2.29,0.7,0.53,0.96,0.82,0.9,0.04,0.51,0,-2,1,0.9,4402,7,80,39,55,506,0.0,394,470,60,123.0,0,1,221,233,37,0,0,11,250,250,0,414.87,45.747856,4.906453,0.0,198.8,0,0.0,-1,0.0,0.0,0,0.0,0.5041
30264,1563729919514,7,2.29,0.69,0.53,0.96,0.82,0.92,0.06,0.52,0,-3,2,0.92,4403,7,80,39,55,506,0.0,385,472,60,123.0,0,1,221,233,37,0,0,11,250,250,0,414.87,,,,,,,,,,,,
30284,1563729919534,6,2.3,0.7,0.52,0.96,0.82,0.9,0.06,0.52,0,-3,2,0.9,4395,7,80,39,54,506,0.0,388,471,60,123.0,0,1,221,232,37,0,0,11,250,250,0,414.87,,,,,,,,,,,,
30304,1563729919554,7,2.29,0.7,0.53,0.96,0.82,0.89,0.04,0.52,0,-2,1,0.89,4380,7,80,39,54,506,0.0,388,468,60,123.0,0,1,219,228,38,0,0,19,250,250,0,414.87,,,,,,,,,,,,
30324,1563729919574,9,2.29,0.7,0.53,0.96,0.81,0.85,0.02,0.51,0,-1,1,0.85,4388,7,80,39,54,506,0.0,392,468,60,123.0,0,1,220,228,38,0,0,19,250,250,0,414.87,,,,,,,,,,,,
30344,1563729919594,8,2.29,0.7,0.53,0.96,0.82,0.81,-0.01,0.53,0,-0,0,0.81,4379,7,80,39,54,506,0.0,389,466,60,122.0,0,1,219,228,38,0,0,19,250,250,0,414.87,45.747856,4.906453,0.0,198.8,0,0.0,-1,0.0,0.0,0,0.0,0.5057
30364,1563729919614,9,2.29,0.7,0.53,0.96,0.82,0.77,-0.05,0.55,-0,1,-1,0.77,4374,7,80,39,54,506,0.0,388,463,60,122.0,0,1,218,228,38,0,0,19,250,250,0,414.87,,,,,,,,,,,,
30384,1563729919634,7,2.28,0.7,0.52,0.96,0.81,0.75,-0.05,0.54,-0,1,-1,0.75,4401,7,80,39,54,505,0.0,397,468,60,121.0,0,1,222,229,38,0,0,19,250,250,0,882.05,,,,,,,,,,,,
30404,1563729919654,8,2.29,0.69,0.53,0.96,0.82,0.78,-0.04,0.52,-0,2,-1,0.78,4373,7,80,39,54,505,0.0,388,469,60,120.0,0,1,218,228,38,0,0,19,250,250,0,414.87,,,,,,,,,,,,
30424,1563729919674,7,2.29,0.69,0.53,0.97,0.82,0.84,-0.03,0.49,-0,2,-1,0.84,4432,7,80,39,54,505,0.0,394,470,60,121.0,0,1,226,233,38,0,0,19,250,250,0,882.05,,,,,,,,,,,,
30444,1563729919693,6,2.29,0.7,0.52,0.97,0.81,0.86,-0.02,0.48,0,2,-1,0.86,4389,7,80,39,55,505,0.0,392,467,60,122.0,0,1,219,232,38,0,0,19,250,250,0,648.46,45.747856,4.906453,0.0,198.8,0,0.0,-1,0.0,0.0,0,0.0,0.5074
30464,1563729919713,7,2.28,0.7,0.53,0.96,0.81,0.88,-0.03,0.5,-0,0,-1,0.88,4409,6,80,39,55,505,0.0,395,471,60,122.0,0,1,222,229,38,0,0,19,250,250,0,882.05,,,,,,,,,,,,
30484,1563729919733,7,2.29,0.7,0.52,0.97,0.81,0.88,-0.03,0.52,-0,-1,-0,0.88,4444,7,80,39,54,505,0.0,391,463,60,122.0,0,1,228,229,38,0,0,19,250,250,0,648.46,,,,,,,,,,,,
30504,1563729919753,5,2.29,0.7,0.53,0.96,0.82,0.89,-0.01,0.5,0,-1,0,0.89,4411,6,80,39,54,505,0.0,387,473,60,123.0,0,1,223,229,38,0,0,19,250,250,0,414.87,,,,,,,,,,,,
30524,1563729919773,6,2.29,0.7,0.52,0.97,0.81,0.92,0.02,0.47,0,-1,1,0.93,4427,7,80,39,54,505,0.0,396,467,60,122.0,0,1,225,229,38,0,0,19,250,250,0,648.46,,,,,,,,,,,,
30544,1563729919793,6,2.29,0.7,0.52,0.97,0.82,0.95,0.03,0.47,0,-2,1,0.95,4414,7,80,39,54,505,0.0,389,471,60,123.0,0,1,224,233,38,0,0,19,250,250,0,414.87,45.747856,4.906453,0.0,198.8,0,0.0,-1,0.0,0.0,0,0.0,0.5091
30564,1563729919813,7,2.28,0.7,0.53,0.97,0.81,0.97,0.05,0.5,0,-4,2,0.97,4407,7,80,39,54,506,0.0,391,470,60,123.0,0,1,223,229,38,0,0,19,250,250,0,414.87,,,,,,,,,,,,
30584,1563729919833,7,2.29,0.7,0.53,0.97,0.81,0.96,0.04,0.52,0,-5,2,0.96,4408,7,80,39,54,506,0.0,388,472,60,123.0,0,1,223,229,38,0,0,19,250,250,0,414.87,,,,,,,,,,,,
30604,1563729919853,7,2.29,0.7,0.53,0.96,0.82,0.95,0.05,0.53,0,-4,2,0.95,4408,7,80,39,54,506,0.0,394,466,60,122.0,0,1,223,229,37,0,0,19,250,250,0,414.87,,,,,,,,,,,,
30624,1563729919873,8,2.29,0.71,0.53,0.97,0.81,0.91,0.03,0.52,0,-2,1,0.91,4421,7,80,39,54,506,0.0,395,463,60,122.0,0,1,225,229,37,0,0,19,250,250,0,414.87,,,,,,,,,,,,
30644,1563729919897,10,2.29,0.7,0.53,0.96,0.82,0.86,0.0,0.53,0,-1,1,0.86,4397,7,80,39,54,506,0.0,389,468,60,122.0,0,1,222,228,37,0,0,19,250,250,0,414.87,45.747856,4.906453,0.0,198.8,0,0.0,-1,0.0,0.0,0,0.0,0.5107
30664,1563729919917,10,2.29,0.7,0.53,0.96,0.82,0.81,-0.04,0.54,-0,-0,-0,0.81,4402,7,80,39,54,506,0.0,392,467,60,122.0,0,1,222,229,37,0,0,19,250,250,0,414.87,,,,,,,,,,,,
30684,1563729919937,10,2.29,0.71,0.53,0.97,0.82,0.77,-0.05,0.54,-0,0,-0,0.77,4394,7,80,39,54,506,0.0,393,467,60,122.0,0,1,221,228,37,0,0,19,250,250,0,414.87,,,,,,,,,,,,
30704,1563729919957,10,2.3,0.7,0.53,0.97,0.82,0.73,-0.05,0.54,-0,2,-1,0.73,4412,7,80,39,54,506,0.0,391,465,60,122.0,0,1,223,229,38,0,0,19,250,250,0,414.87,,,,,,,,,,,,
30724,1563729919977,8,2.29,0.7,0.53,0.97,0.83,0.74,-0.06,0.51,-0,3,-1,0.74,4426,6,80,39,54,506,0.0,395,465,60,121.0,0,1,225,229,38,0,0,19,250,250,0,414.87,,,,,,,,,,,,
30744,1563729919991,8,2.28,0.71,0.53,0.98,0.82,0.75,-0.03,0.48,-0,3,-1,0.75,4391,7,80,39,54,506,0.0,394,468,60,120.0,0,1,221,228,38,0,0,19,250,250,0,414.87,45.747856,4.906453,0.0,198.8,0,0.0,-1,0.0,0.0,0,0.0,0.5124
30764,1563729920011,8,2.29,0.71,0.53,0.98,0.82,0.8,-0.04,0.49,-0,2,-1,0.81,4423,6,80,39,55,506,0.0,393,466,60,122.0,0,1,224,233,38,0,0,19,250,250,0,648.46,,,,,,,,,,,,
30784,1563729920031,5,2.29,0.71,0.54,0.97,0.82,0.84,-0.04,0.5,-0,1,-1,0.84,4420,6,80,39,55,506,0.0,387,473,60,121.0,0,1,218,233,38,0,0,19,250,250,0,882.05,,,,,,,,,,,,
30804,1563729920051,7,2.29,0.71,0.54,0.97,0.83,0.84,-0.0,0.48,-0,0,-1,0.84,4396,6,80,39,55,506,0.0,389,470,60,123.0,0,1,220,232,38,0,0,0,250,250,0,414.87,,,,,,,,,,,,
30824,1563729920071,7,2.29,0.71,0.53,0.98,0.82,0.86,0.01,0.49,0,-0,0,0.86,4404,6,80,39,54,506,0.0,391,469,60,123.0,0,1,222,233,38,0,0,0,250,250,0,648.46,,,,,,,,,,,,
30844,1563729920097,7,2.28,0.71,0.53,0.98,0.83,0.88,0.01,0.49,-0,-1,1,0.88,4370,6,80,39,54,506,0.0,387,467,60,123.0,0,1,218,228,38,0,0,0,250,250,0,414.87,45.747856,4.906453,0.0,198.8,0,0.0,-1,0.0,0.0,0,0.0,0.5141
30864,1563729920117,6,2.29,0.71,0.53,0.98,0.82,0.91,0.03,0.46,0,-2,1,0.91,4424,6,80,39,54,506,0.0,389,468,60,123.0,0,1,225,229,38,0,0,0,250,250,0,414.87,,,,,,,,,,,,
30884,1563729920137,7,2.29,0.71,0.54,0.98,0.82,0.92,0.03,0.48,0,-3,1,0.92,4383,7,80,39,54,506,0.0,385,470,60,122.0,0,1,220,228,38,0,0,0,250,250,0,181.28,,,,,,,,,,,,
30904,1563729920157,6,2.29,0.71,0.53,0.97,0.82,0.94,0.05,0.49,0,-4,2,0.94,4435,7,80,39,55,506,0.0,394,468,60,123.0,0,1,225,229,38,0,0,0,250,250,0,414.87,,,,,,,,,,,,
30924,1563729920177,7,2.29,0.71,0.53,0.98,0.82,0.93,0.05,0.51,0,-3,2,0.93,4436,7,80,39,55,506,0.0,388,470,60,123.0,0,1,226,229,38,0,0,0,250,250,0,414.87,,,,,,,,,,,,
30944,1563729920197,8,2.28,0.71,0.53,0.97,0.82,0.9,0.03,0.52,0,-3,2,0.9,4435,7,80,39,54,506,0.0,393,470,60,123.0,0,1,226,229,38,0,0,0,250,250,0,414.87,45.747856,4.906453,0.0,198.8,0,0.0,-1,0.0,0.0,0,0.0,0.5157
30964,1563729920217,6,2.29,0.71,0.53,0.97,0.82,0.84,-0.01,0.53,0,-2,1,0.84,4429,7,80,39,54,506,0.0,395,464,60,122.0,0,1,226,229,38,0,0,0,250,250,0,414.87,,,,,,,,,,,,
30984,1563729920237,11,2.28,0.71,0.53,0.98,0.82,0.8,-0.05,0.52,0,-1,0,0.8,4421,7,80,39,54,506,0.0,394,468,60,123.0,0,1,225,229,38,0,0,0,250,250,0,414.87,,,,,,,,,,,,
31004,1563729920257,9,2.29,0.71,0.54,0.98,0.82,0.76,-0.06,0.51,0,1,-0,0.76,4401,7,80,39,54,506,0.0,392,467,60,123.0,0,1,222,229,38,0,0,0,250,250,0,414.87,,,,,,,,,,,,
31024,1563729920277,10,2.28,0.71,0.53,0.97,0.82,0.74,-0.07,0.52,-0,1,-1,0.74,4421,7,80,39,54,506,0.0,392,466,60,121.0,0,1,225,229,38,0,0,0,250,250,0,414.87,,,,,,,,,,,,
31044,1563729920299,9,2.29,0.71,0.53,0.97,0.82,0.71,-0.1,0.53,-0,2,-1,0.72,4439,7,80,39,54,506,0.0,407,466,60,120.0,0,1,227,233,38,0,0,0,250,250,0,414.87,45.747856,4.906453,0.0,198.8,0,0.0,-1,0.0,0.0,0,0.0,0.5174
31064,1563729920319,7,2.29,0.7,0.54,0.97,0.82,0.7,-0.09,0.52,-0,3,-1,0.7,4429,7,80,39,54,506,0.0,398,467,60,121.0,0,1,226,229,38,0,0,0,250,250,0,414.87,,,,,,,,,,,,
31084,1563729920339,8,2.28,0.7,0.51,0.97,0.82,0.73,-0.07,0.5,-0,4,-2,0.73,4376,6,80,39,54,506,0.0,393,467,60,120.0,0,1,219,228,38,0,0,0,250,250,0,414.87,,,,,,,,,,,,
31104,1563729920359,6,2.29,0.71,0.53,0.97,0.83,0.79,-0.05,0.48,-0,4,-2,0.79,4433,6,80,39,54,506,0.0,394,471,60,120.0,0,1,226,229,37,0,0,0,250,250,0,882.05,,,,,,,,,,,,
31124,1563729920379,6,2.29,0.71,0.53,0.98,0.82,0.81,-0.04,0.47,-0,3,-1,0.81,4424,6,80,39,55,506,0.0,396,466,60,122.0,0,1,218,233,37,0,0,0,250,250,0,882.05,,,,,,,,,,,,
31144,1563729920399,7,2.29,0.7,0.53,0.97,0.82,0.83,-0.06,0.48,-0,1,-1,0.83,4394,6,80,39,55,506,0.0,396,470,60,122.0,0,1,220,228,37,0,0,0,250,250,0,882.05,45.747856,4.906453,0.0,198.8,0,0.0,-1,0.0,0.0,0,0.0,0.5191
31164,1563729920419,7,2.29,0.71,0.53,0.98,0.82,0.83,-0.05,0.52,-0,-0,-1,0.83,4415,6,80,39,55,506,0.0,387,470,60,122.0,0,1,223,229,37,0,0,0,250,250,0,648.46,,,,,,,,,,,,
31184,1563729920439,7,2.28,0.71,0.53,0.98,0.82,0.86,-0.04,0.49,-0,-1,-0,0.86,4376,6,80,39,54,506,0.0,393,468,60,123.0,0,1,219,228,37,0,0,0,250,250,0,648.46,,,,,,,,,,,,
31204,1563729920459,7,2.29,0.7,0.54,0.97,0.83,0.9,-0.0,0.45,-0,-1,1,0.9,4385,6,80,39,54,506,0.0,388,472,60,123.0,0,1,220,228,37,0,0,0,250,250,0,414.87,,,,,,,,,,,,
31224,1563729920479,7,2.28,0.71,0.53,0.98,0.82,0.9,0.01,0.47,-0,-2,1,0.9,4374,6,80,39,55,506,0.0,386,473,60,123.0,0,1,217,232,37,0,0,0,250,250,0,414.87,,,,,,,,,,,,
31244,1563729920495,7,2.29,0.7,0.54,0.97,0.83,0.9,0.01,0.49,-0,-3,1,0.9,4396,7,80,39,54,506,0.0,387,468,60,122.0,0,1,221,228,37,0,0,0,250,250,0,414.87,45.747856,4.906453,0.0,198.8,0,0.0,-1,0.0,0.0,0,0.0,0.5207
31264,1563729920515,9,2.3,0.71,0.54,0.98,0.82,0.84,-0.01,0.51,0,-3,1,0.84,4381,6,80,39,54,506,0.0,390,465,60,123.0,0,1,219,228,37,0,0,0,250,250,0,414.87,,,,,,,,,,,,
31284,1563729920535,11,2.29,0.71,0.54,0.97,0.82,0.78,-0.03,0.53,-0,-1,0,0.78,4370,7,80,39,55,505,0.0,391,466,60,123.0,0,1,217,228,37,0,0,0,250,250,0,414.87,,,,,,,,,,,,
31304,1563729920555,9,2.28,0.71,0.54,0.97,0.83,0.74,-0.04,0.51,0,1,-0,0.74,4385,7,80,39,54,504,0.0,384,465,60,122.0,0,1,220,228,37,0,0,0,250,250,0,414.87,,,,,,,,,,,,
31324,1563729920575,8,2.29,0.71,0.54,0.98,0.82,0.76,-0.04,0.48,-0,2,-1,0.76,4363,7,80,39,54,504,0.0,397,471,60,122.0,0,1,217,228,37,0,0,0,250,250,0,882.05,,,,,,,,,,,,
31344,1563729920595,7,2.29,0.71,0.53,0.97,0.82,0.77,-0.04,0.48,-0,2,-1,0.77,4362,6,80,39,55,520,0.0,392,471,60,121.0,0,1,216,232,37,0,0,0,250,250,0,414.87,45.747856,4.906453,0.0,198.8,0,0.0,-1,0.0,0.0,0,0.0,0.5224
31364,1563729920615,7,2.29,0.71,0.53,0.98,0.82,0.8,-0.04,0.49,-0,1,-1,0.8,4377,6,80,39,55,596,0.0,392,468,60,121.0,0,1,218,232,37,0,0,0,250,250,0,882.05,,,,,,,,,,,,
31384,1563729920635,6,2.3,0.71,0.53,0.98,0.82,0.81,-0.04,0.51,-0,0,-1,0.81,4363,6,80,39,55,672,0.0,386,468,60,123.0,0,1,216,232,37,0,0,0,250,250,0,648.46,,,,,,,,,,,,
31404,1563729920655,7,2.29,0.71,0.53,0.97,0.83,0.84,-0.01,0.49,-0,0,-1,0.84,4362,6,80,39,55,748,0.0,383,469,60,123.0,0,1,216,232,37,0,0,0,250,250,0,414.87,,,,,,,,,,,,
31424,1563729920675,7,2.3,0.7,0.53,0.98,0.83,0.87,0.01,0.47,-0,-0,-0,0.87,4367,6,81,39,55,825,0.0,391,471,60,123.0,0,1,217,232,37,0,0,0,250,250,0,648.46,,,,,,,,,,,,
31444,1563729920694,7,2.3,0.71,0.53,0.98,0.82,0.89,0.01,0.49,-0,-1,1,0.89,4404,6,81,39,55,899,0.0,385,468,60,123.0,0,1,221,233,37,0,0,0,250,250,0,414.87,45.747856,4.906453,0.0,198.8,0,0.0,-1,0.0,0.0,0,0.0,0.5241
31464,1563729920714,7,2.3,0.7,0.53,0.97,0.83,0.91,0.03,0.51,0,-3,1,0.91,4415,6,81,39,55,973,0.0,392,470,60,123.0,0,1,223,233,37,0,0,0,250,250,0,414.87,,,,,,,,,,,,
31484,1563729920734,7,2.29,0.7,0.53,0.97,0.82,0.88,0.04,0.53,0,-4,1,0.88,4375,7,81,39,55,972,0.0,391,471,60,123.0,0,1,218,232,37,0,0,0,250,250,0,414.87,,,,,,,,,,,,
31504,1563729920754,6,2.29,0.71,0.53,0.98,0.82,0.87,0.03,0.51,0,-3,1,0.88,4437,6,81,39,55,970,0.0,392,468,60,123.0,0,1,226,229,39,0,0,0,250,250,0,414.87,,,,,,,,,,,,
31524,1563729920774,10,2.29,0.71,0.53,0.98,0.82,0.83,0.01,0.49,0,-1,1,0.83,4384,7,81,39,55,969,0.0,390,467,60,123.0,0,1,219,232,39,0,0,0,250,250,0,414.87,,,,,,,,,,,,
31544,1563729920794,11,2.28,0.71,0.53,0.97,0.82,0.79,-0.02,0.5,0,0,0,0.79,4374,7,81,39,54,968,0.0,388,466,60,123.0,0,1,218,228,39,0,0,0,250,250,0,414.87,45.747856,4.906453,0.0,198.8,0,0.0,-1,0.0,0.0,0,0.0,0.5257
31564,1563729920814,9,2.29,0.71,0.53,0.97,0.82,0.74,-0.06,0.52,-0,0,-1,0.74,4399,7,80,39,54,969,0.0,401,465,60,122.0,0,1,222,228,39,0,0,0,250,250,0,414.87,,,,,,,,,,,,
31584,1563729920834,8,2.29,0.71,0.53,0.97,0.82,0.71,-0.07,0.53,-0,1,-1,0.71,4388,6,80,39,54,970,0.0,391,466,60,122.0,0,1,220,228,39,0,0,7,250,250,0,414.87,,,,,,,,,,,,
31604,1563729920854,7,2.3,0.7,0.53,0.97,0.81,0.71,-0.05,0.52,-0,2,-2,0.71,4414,6,80,39,55,971,0.0,396,472,60,121.0,0,1,223,233,38,0,0,7,250,250,0,414.87,,,,,,,,,,,,
31624,1563729920874,9,2.28,0.7,0.52,0.97,0.81,0.74,-0.04,0.49,-0,3,-1,0.74,4434,6,81,39,55,972,0.0,397,470,60,122.0,0,1,225,233,38,0,0,7,250,250,0,414.87,,,,,,,,,,,,
31644,1563729920898,7,2.28,0.7,0.52,0.97,0.81,0.78,-0.02,0.47,-0,3,-1,0.78,4422,6,81,39,55,972,0.0,396,470,60,122.0,0,1,224,233,38,0,0,7,250,250,0,648.46,45.747856,4.906453,0.0,198.8,0,0.0,-1,0.0,0.0,0,0.0,0.5274
31664,1563729920918,6,2.29,0.69,0.52,0.96,0.8,0.84,-0.04,0.48,-0,2,-1,0.84,4425,6,81,39,55,971,0.0,396,468,60,121.0,0,1,224,233,38,0,0,7,250,250,0,882.05,,,,,,,,,,,,
31684,1563729920938,7,2.29,0.7,0.52,0.95,0.8,0.86,-0.04,0.49,-0,1,-1,0.86,4394,6,81,39,55,973,0.0,389,471,60,121.0,0,1,220,233,38,0,0,7,250,250,0,882.05,,,,,,,,,,,,
31704,1563729920958,7,2.29,0.69,0.51,0.96,0.79,0.87,0.0,0.48,-0,0,-1,0.87,4416,6,81,39,55,976,0.0,394,468,60,123.0,0,1,223,233,38,0,0,7,250,250,0,648.46,,,,,,,,,,,,
31724,1563729920978,7,2.29,0.68,0.51,0.95,0.79,0.9,0.01,0.48,-0,-0,-0,0.9,4405,6,81,39,55,979,0.0,391,469,60,122.0,0,1,222,229,38,0,0,7,250,250,0,648.46,,,,,,,,,,,,
31744,1563729920992,7,2.28,0.69,0.51,0.94,0.78,0.93,0.01,0.48,-0,-1,0,0.93,4374,6,81,39,54,982,0.0,388,469,60,123.0,0,1,218,228,38,0,0,7,250,250,0,648.46,45.747856,4.906453,0.0,198.8,0,0.0,-1,0.0,0.0,0,0.0,0.5291
31764,1563729921012,7,2.28,0.68,0.51,0.95,0.78,0.96,0.02,0.47,-0,-2,1,0.96,4404,6,81,39,54,985,0.0,395,470,60,123.0,0,1,222,229,38,0,0,7,250,250,0,414.87,,,,,,,,,,,,
31784,1563729921032,7,2.28,0.69,0.5,0.95,0.79,0.96,0.0,0.5,-0,-3,1,0.96,4380,6,81,39,55,989,0.0,384,471,60,123.0,0,1,218,232,38,0,0,7,250,250,0,414.87,,,,,,,,,,,,
31804,1563729921052,8,2.29,0.68,0.5,0.95,0.79,0.95,-0.0,0.5,0,-3,1,0.95,4422,6,81,39,55,991,0.0,390,472,60,123.0,0,1,224,233,38,0,0,7,250,250,0,414.87,,,,,,,,,,,,
31824,1563729921072,7,2.29,0.69,0.5,0.95,0.78,0.91,-0.01,0.5,0,-2,1,0.91,4420,6,81,39,55,993,0.0,386,470,60,123.0,0,1,224,229,38,0,0,7,250,250,0,414.87,,,,,,,,,,,,
31844,1563729921098,8,2.3,0.69,0.5,0.95,0.78,0.85,-0.04,0.51,0,-1,1,0.86,4416,7,81,39,55,993,0.0,394,467,60,123.0,0,1,223,229,38,0,0,7,250,250,0,414.87,45.747856,4.906453,0.0,198.8,0,0.0,-1,0.0,0.0,0,0.0,0.5307
31864,1563729921118,9,2.3,0.68,0.51,0.95,0.78,0.8,-0.06,0.51,0,-0,0,0.8,4411,7,81,39,54,992,0.0,393,463,60,122.0,0,1,223,229,38,0,0,7,250,250,0,414.87,,,,,,,,,,,,
31884,1563729921138,11,2.29,0.69,0.51,0.94,0.78,0.76,-0.07,0.5,0,1,-0,0.76,4390,6,81,39,55,991,0.0,393,469,60,123.0,0,1,220,228,38,0,0,7,250,250,0,414.87,,,,,,,,,,,,
31904,1563729921158,10,2.28,0.69,0.5,0.95,0.78,0.75,-0.05,0.49,0,2,-1,0.75,4391,6,81,39,54,990,0.0,396,466,60,122.0,0,1,221,228,38,0,0,7,250,250,0,414.87,,,,,,,,,,,,
31924,1563729921178,8,2.3,0.69,0.5,0.95,0.78,0.76,-0.06,0.48,-0,2,-1,0.77,4405,6,81,39,54,987,0.0,392,471,60,121.0,0,1,223,229,38,0,0,7,250,250,0,882.05,,,,,,,,,,,,
31944,1563729921198,6,2.29,0.69,0.5,0.95,0.78,0.76,-0.04,0.46,-0,2,-1,0.76,4384,6,81,39,54,983,0.0,395,467,60,121.0,0,1,220,232,38,0,0,7,250,250,0,414.87,45.747856,4.906453,0.0,198.8,0,0.0,-1,0.0,0.0,0,0.0,0.5324
31964,1563729921218,8,2.29,0.69,0.51,0.95,0.78,0.79,-0.04,0.45,-0,2,-1,0.79,4380,6,81,39,55,980,0.0,388,470,60,121.0,0,1,218,232,38,0,0,7,250,250,0,882.05,,,,,,,,,,,,
31984,1563729921238,6,2.29,0.69,0.51,0.95,0.78,0.82,-0.04,0.46,-0,1,-1,0.82,4365,6,81,39,55,977,0.0,391,468,60,123.0,0,1,216,228,38,0,0,7,250,250,0,882.05,,,,,,,,,,,,
32004,1563729921258,8,2.28,0.69,0.5,0.94,0.78,0.84,-0.01,0.44,0,0,-1,0.84,4397,6,81,39,55,975,0.0,386,470,60,122.0,0,1,221,232,37,0,0,7,250,250,0,882.05,,,,,,,,,,,,
32024,1563729921278,8,2.29,0.69,0.5,0.94,0.79,0.85,0.02,0.45,0,-0,-0,0.85,4392,6,81,39,55,972,0.0,387,471,60,123.0,0,1,220,232,37,0,0,7,250,250,0,648.46,,,,,,,,,,,,
32044,1563729921298,8,2.29,0.69,0.5,0.95,0.78,0.87,0.04,0.47,0,-1,1,0.87,4421,6,81,39,55,970,0.0,393,470,60,123.0,0,1,224,233,37,0,0,7,250,250,0,414.87,45.747856,4.906453,0.0,198.8,0,0.0,-1,0.0,0.0,0,0.0,0.5341
32064,1563729921318,7,2.29,0.68,0.51,0.95,0.78,0.9,0.05,0.47,0,-2,1,0.9,4382,6,81,39,55,970,0.0,384,471,60,123.0,0,1,219,232,37,0,0,7,250,250,0,414.87,,,,,,,,,,,,
32084,1563729921338,7,2.3,0.69,0.5,0.95,0.79,0.9,0.04,0.49,0,-3,1,0.9,4396,7,81,39,55,969,0.0,387,471,60,123.0,0,1,220,232,37,0,0,0,250,250,0,414.87,,,,,,,,,,,,
32104,1563729921358,9,2.29,0.69,0.5,0.95,0.78,0.9,0.03,0.5,0,-3,1,0.9,4403,6,81,39,55,970,0.0,385,471,60,123.0,0,1,221,233,38,0,0,0,250,250,0,414.87,,,,,,,,,,,,
32124,1563729921378,9,2.28,0.68,0.5,0.95,0.78,0.86,0.02,0.51,0,-3,1,0.86,4406,6,81,39,55,970,0.0,391,468,60,123.0,0,1,222,229,38,0,0,0,250,250,0,414.87,,,,,,,,,,,,
32144,1563729921398,11,2.29,0.69,0.5,0.94,0.78,0.8,-0.02,0.54,0,-2,1,0.8,4430,7,81,39,54,971,0.0,391,461,60,123.0,0,1,226,229,38,0,0,0,250,250,0,414.87,45.747856,4.906453,0.0,198.8,0,0.0,-1,0.0,0.0,0,0.0,0.5357
32164,1563729921418,12,2.28,0.68,0.5,0.95,0.78,0.75,-0.06,0.55,0,-1,0,0.75,4393,6,81,39,54,971,0.0,389,464,60,123.0,0,1,221,228,38,0,0,0,250,250,0,414.87,,,,,,,,,,,,
32184,1563729921438,11,2.28,0.69,0.5,0.95,0.78,0.7,-0.05,0.53,0,0,0,0.71,4430,7,81,39,54,971,0.0,393,464,60,123.0,0,1,226,229,38,0,0,0,250,250,0,414.87,,,,,,,,,,,,
32204,1563729921458,9,2.29,0.68,0.51,0.95,0.78,0.72,-0.03,0.53,0,2,-1,0.72,4376,6,81,39,54,970,0.0,387,463,60,123.0,0,1,219,232,38,0,0,0,250,250,0,414.87,,,,,,,,,,,,
32224,1563729921478,10,2.28,0.67,0.5,0.94,0.78,0.78,-0.03,0.51,0,2,-1,0.78,4382,7,81,39,54,969,0.0,391,471,60,121.0,0,1,220,228,38,0,0,0,250,250,0,882.05,,,,,,,,,,,,
32244,1563729921496,10,2.28,0.69,0.51,0.95,0.78,0.8,-0.02,0.5,0,2,-1,0.8,4407,6,81,39,55,968,0.0,389,468,60,122.0,0,1,222,233,38,0,0,0,250,250,0,414.87,45.747856,4.906453,0.0,198.8,0,0.0,-1,0.0,0.0,0,0.0,0.5374
32264,1563729921516,8,2.29,0.69,0.5,0.95,0.78,0.81,-0.03,0.5,0,1,-1,0.81,4412,6,81,39,55,969,0.0,397,471,60,121.0,0,1,222,233,38,0,0,0,250,250,0,882.05,,,,,,,,,,,,
32284,1563729921536,9,2.29,0.69,0.51,0.94,0.78,0.83,-0.02,0.5,0,1,-1,0.83,4432,6,81,39,55,970,0.0,393,467,60,123.0,0,1,225,233,38,0,0,0,250,250,0,648.46,,,,,,,,,,,,
32304,1563729921556,7,2.29,0.69,0.51,0.94,0.79,0.85,0.0,0.48,0,1,-1,0.85,4414,6,81,39,55,973,0.0,387,470,60,123.0,0,1,225,233,39,0,0,0,250,250,0,648.46,,,,,,,,,,,,
32324,1563729921576,9,2.28,0.69,0.5,0.95,0.78,0.88,0.01,0.47,0,1,-1,0.88,4420,6,81,39,54,975,0.0,395,466,60,122.0,0,1,225,233,39,0,0,0,250,250,0,648.46,,,,,,,,,,,,
32344,1563729921594,8,2.29,0.69,0.5,0.95,0.78,0.9,0.02,0.48,0,0,-0,0.9,4437,6,81,39,55,977,0.0,392,466,60,122.0,0,1,226,233,39,0,0,0,250,250,0,648.46,45.747856,4.906453,0.0,198.8,0,0.0,-1,0.0,0.0,0,0.0,0.5391
32364,1563729921614,9,2.28,0.69,0.5,0.95,0.78,0.91,0.03,0.51,0,-2,0,0.91,4433,6,81,39,55,980,0.0,389,469,60,123.0,0,1,225,233,39,0,0,0,250,250,0,414.87,,,,,,,,,,,,
32384,1563729921634,9,2.29,0.69,0.5,0.95,0.78,0.93,0.02,0.52,0,-3,1,0.93,4419,6,81,39,54,979,0.0,388,476,60,123.0,0,1,224,229,39,0,0,0,250,250,0,414.87,,,,,,,,,,,,
32404,1563729921654,9,2.29,0.69,0.5,0.95,0.79,0.95,0.06,0.5,0,-3,1,0.95,4415,6,81,39,55,979,0.0,393,471,60,123.0,0,1,223,233,38,0,0,0,250,250,0,414.87,,,,,,,,,,,,
32424,1563729921674,8,2.29,0.69,0.5,0.95,0.79,0.96,0.06,0.5,-0,-3,2,0.96,4403,6,81,39,54,977,0.0,393,470,60,123.0,0,1,222,233,38,0,0,0,250,250,0,414.87,,,,,,,,,,,,
32444,1563729921695,10,2.29,0.69,0.5,0.95,0.78,0.95,0.05,0.52,0,-3,1,0.96,4437,7,81,39,54,975,0.0,389,470,60,123.0,0,1,227,229,38,0,0,0,250,250,0,414.87,45.747856,4.906453,0.0,198.8,0,0.0,-1,0.0,0.0,0,0.0,0.5407
32464,1563729921715,10,2.28,0.69,0.5,0.94,0.78,0.9,0.03,0.54,0,-4,1,0.9,4406,6,81,39,54,974,0.0,392,463,60,123.0,0,1,223,229,38,0,0,0,250,250,0,414.87,,,,,,,,,,,,
32484,1563729921735,8,2.3,0.69,0.5,0.95,0.78,0.86,0.0,0.56,0,-3,1,0.86,4438,6,81,39,55,973,0.0,393,466,60,123.0,0,1,226,229,38,0,0,0,250,250,0,414.87,,,,,,,,,,,,
32504,1563729921755,13,2.29,0.68,0.5,0.95,0.79,0.8,-0.01,0.56,0,-2,1,0.8,4409,6,81,39,54,972,0.0,391,465,60,123.0,0,1,223,229,38,0,0,0,250,250,0,414.87,,,,,,,,,,,,
32524,1563729921775,12,2.29,0.69,0.5,0.95,0.78,0.76,-0.02,0.56,0,-1,1,0.76,4427,6,81,39,54,972,0.0,394,465,60,123.0,0,1,225,229,38,0,0,0,250,250,0,414.87,,,,,,,,,,,,
32544,1563729921795,11,2.29,0.69,0.5,0.95,0.78,0.74,-0.04,0.55,-0,0,-0,0.74,4386,7,81,39,54,972,0.0,394,467,60,123.0,0,1,220,228,38,0,0,0,250,250,0,414.87,45.747856,4.906453,0.0,198.8,0,0.0,-1,0.0,0.0,0,0.0,0.5424
32564,1563729921815,11,2.29,0.69,0.5,0.95,0.78,0.75,-0.04,0.55,0,0,-1,0.75,4385,6,81,39,54,972,0.0,397,466,60,122.0,0,1,220,228,38,0,0,0,250,250,0,414.87,,,,,,,,,,,,
32584,1563729921835,11,2.29,0.69,0.51,0.95,0.78,0.77,-0.03,0.55,0,1,-1,0.77,4415,6,81,39,54,973,0.0,388,469,60,121.0,0,1,224,229,38,0,0,0,250,250,0,414.87,,,,,,,,,,,,
32604,1563729921855,10,2.29,0.68,0.5,0.94,0.79,0.79,-0.02,0.53,0,1,-1,0.79,4384,6,81,39,54,974,0.0,391,468,60,120.0,0,1,220,232,39,0,0,0,250,250,0,414.87,,,,,,,,,,,,
32624,1563729921875,9,2.29,0.69,0.5,0.95,0.78,0.81,0.0,0.51,0,1,-1,0.81,4390,6,81,39,54,975,0.0,392,470,60,121.0,0,1,221,228,39,0,0,0,250,250,0,882.05,,,,,,,,,,,,
32644,1563729921897,9,2.29,0.69,0.5,0.95,0.79,0.85,-0.02,0.51,-0,1,-1,0.85,4391,6,81,39,55,976,0.0,386,468,60,123.0,0,1,220,232,39,0,0,0,250,250,0,648.46,45.747856,4.906453,0.0,198.8,0,0.0,-1,0.0,0.0,0,0.0,0.5441
32664,1563729921917,7,2.29,0.68,0.51,0.95,0.79,0.87,-0.0,0.51,-0,-0,-1,0.87,4386,6,81,39,55,977,0.0,389,470,60,123.0,0,1,219,232,39,0,0,0,250,250,0,648.46,,,,,,,,,,,,
32684,1563729921937,9,2.3,0.68,0.5,0.95,0.79,0.89,0.0,0.52,0,-1,0,0.89,4383,6,81,39,55,978,0.0,384,469,60,123.0,0,1,219,232,39,0,0,0,250,250,0,648.46,,,,,,,,,,,,
32704,1563729921957,9,2.28,0.69,0.51,0.95,0.78,0.91,0.04,0.51,0,-2,1,0.91,4392,7,81,39,55,979,0.0,393,466,60,123.0,0,1,220,232,37,0,0,0,250,250,0,414.87,,,,,,,,,,,,
32724,1563729921977,8,2.29,0.69,0.51,0.95,0.78,0.91,0.05,0.52,0,-2,1,0.91,4385,6,81,39,55,980,0.0,383,472,60,123.0,0,1,219,232,37,0,0,0,250,250,0,414.87,,,,,,,,,,,,
32744,1563729921991,9,2.29,0.69,0.5,0.95,0.79,0.89,0.02,0.54,0,-3,1,0.89,4367,6,81,39,55,980,0.0,385,470,60,123.0,0,1,217,232,37,0,0,0,250,250,0,414.87,45.747856,4.906453,0.0,198.8,0,0.0,-1,0.0,0.0,0,0.0,0.5457
32764,1563729922011,10,2.28,0.69,0.51,0.95,0.79,0.84,0.0,0.54,0,-3,1,0.84,4385,6,81,39,55,980,0.0,387,466,60,122.0,0,1,219,232,37,0,0,0,250,250,0,414.87,,,,,,,,,,,,
32784,1563729922031,11,2.28,0.69,0.51,0.94,0.79,0.8,-0.01,0.54,0,-2,0,0.8,4389,6,81,39,54,981,0.0,389,466,60,122.0,0,1,220,228,37,0,0,0,250,250,0,414.87,,,,,,,,,,,,
32804,1563729922051,13,2.29,0.69,0.51,0.94,0.79,0.76,-0.01,0.55,0,-1,-0,0.76,4384,6,81,39,54,980,0.0,392,463,60,122.0,0,1,220,232,38,0,0,0,250,250,0,414.87,,,,,,,,,,,,
32824,1563729922071,10,2.29,0.69,0.51,0.95,0.79,0.77,-0.02,0.53,-0,-0,-0,0.77,4403,6,81,39,54,979,0.0,386,464,60,122.0,0,1,222,229,38,0,0,0,250,250,0,414.87,,,,,,,,,,,,
32844,1563729922097,10,2.29,0.68,0.51,0.95,0.79,0.77,-0.03,0.51,-0,0,-1,0.77,4386,6,81,39,55,978,0.0,404,470,60,121.0,0,1,219,232,38,0,0,0,250,250,0,882.05,45.747856,4.906453,0.0,198.8,0,0.0,-1,0.0,0.0,0,0.0,0.5474
32864,1563729922117,10,2.29,0.68,0.5,0.95,0.79,0.81,-0.02,0.51,-0,1,-1,0.81,4414,6,82,39,55,976,0.0,394,470,60,122.0,0,1,223,233,38,0,0,0,250,250,0,414.87,,,,,,,,,,,,
32884,1563729922137,10,2.28,0.69,0.5,0.95,0.79,0.84,-0.02,0.52,-0,0,-1,0.85,4365,6,82,39,55,974,0.0,396,472,60,121.0,0,1,216,232,38,0,0,0,250,250,0,882.05,,,,,,,,,,,,
32904,1563729922157,8,2.29,0.69,0.5,0.95,0.79,0.85,0.01,0.49,-0,0,-1,0.85,4393,6,82,39,55,972,0.0,395,469,60,122.0,0,1,220,232,38,0,0,0,250,250,0,882.05,,,,,,,,,,,,
32924,1563729922177,7,2.29,0.69,0.51,0.95,0.78,0.86,0.01,0.49,-0,0,-1,0.86,4370,6,82,39,55,971,0.0,392,469,60,122.0,0,1,217,232,38,0,0,0,250,250,0,648.46,,,,,,,,,,,,
32944,1563729922199,9,2.29,0.68,0.49,0.94,0.79,0.88,0.0,0.49,-0,-1,-0,0.88,4389,6,82,39,55,970,0.0,389,468,60,122.0,0,1,219,232,38,0,0,0,250,250,0,648.46,45.747856,4.906453,0.0,198.8,0,0.0,-1,0.0,0.0,0,0.0,0.5491
32964,1563729922219,8,2.29,0.69,0.5,0.95,0.79,0.9,0.01,0.49,-0,-1,-0,0.9,4421,6,82,39,54,971,0.0,389,469,60,123.0,0,1,225,229,38,0,0,0,250,250,0,648.46,,,,,,,,,,,,
32984,1563729922239,8,2.29,0.68,0.49,0.95,0.79,0.92,-0.01,0.5,-0,-2,0,0.92,4378,6,82,39,55,972,0.0,393,471,60,123.0,0,1,218,232,38,0,0,0,250,250,0,414.87,,,,,,,,,,,,
33004,1563729922259,9,2.28,0.69,0.5,0.95,0.78,0.93,0.01,0.51,0,-3,1,0.93,4426,6,82,39,55,974,0.0,391,472,60,123.0,0,1,224,233,38,0,0,0,250,250,0,414.87,,,,,,,,,,,,
33024,1563729922279,10,2.28,0.69,0.51,0.94,0.79,0.9,0.01,0.53,0,-3,1,0.9,4410,6,82,39,55,976,0.0,393,467,60,123.0,0,1,222,229,38,0,0,0,250,250,0,414.87,,,,,,,,,,,,
33044,1563729922299,10,2.29,0.68,0.51,0.95,0.79,0.85,-0.02,0.55,0,-3,1,0.85,4401,6,82,39,55,977,0.0,388,467,60,123.0,0,1,221,233,38,0,0,0,250,250,0,414.87,45.747856,4.906453,0.0,198.8,0,0.0,-1,0.0,0.0,0,0.0,0.5507
33064,1563729922319,13,2.28,0.69,0.5,0.95,0.78,0.79,-0.04,0.54,0,-2,1,0.79,4404,6,82,39,55,979,0.0,388,468,60,123.0,0,1,221,229,38,0,0,0,250,250,0,414.87,,,,,,,,,,,,
33084,1563729922339,12,2.3,0.69,0.5,0.95,0.79,0.74,-0.05,0.53,0,-0,0,0.74,4403,6,82,39,55,982,0.0,396,471,60,123.0,0,1,221,233,38,0,0,0,250,250,0,414.87,,,,,,,,,,,,
33104,1563729922359,11,2.29,0.69,0.51,0.95,0.79,0.71,-0.04,0.51,0,1,-0,0.71,4406,6,82,39,55,986,0.0,387,469,60,123.0,0,1,222,233,38,0,0,0,250,250,0,414.87,,,,,,,,,,,,
33124,1563729922379,13,2.3,0.69,0.51,0.95,0.78,0.72,-0.04,0.51,0,1,-0,0.72,4430,6,82,39,54,988,0.0,398,466,60,121.0,0,1,226,233,38,0,0,0,250,250,0,414.87,,,,,,,,,,,,
33144,1563729922399,10,2.28,0.69,0.5,0.96,0.79,0.7,-0.05,0.5,-0,1,-1,0.71,4401,6,82,39,54,990,0.0,395,462,60,122.0,0,1,222,233,38,0,0,0,250,250,0,414.87,45.747856,4.906453,0.0,198.8,0,0.0,-1,0.0,0.0,0,0.0,0.5524
33164,1563729922419,9,2.28,0.69,0.5,0.95,0.78,0.72,-0.05,0.49,-0,1,-1,0.72,4425,6,82,39,54,991,0.0,391,467,60,123.0,0,1,225,233,38,0,0,0,250,250,0,414.87,,,,,,,,,,,,
33184,1563729922439,8,2.29,0.69,0.51,0.94,0.8,0.75,-0.04,0.51,-0,1,-1,0.75,4278,6,82,39,55,992,0.0,385,466,60,123.0,0,1,206,232,38,0,0,0,250,250,0,181.28,,,,,,,,,,,,
33204,1563729922459,9,2.28,0.69,0.5,0.96,0.79,0.88,-0.03,0.53,1,-1,-2,0.88,4178,6,82,39,55,990,0.0,371,466,60,123.0,0,1,193,230,36,0,0,0,250,250,0,181.28,,,,,,,,,,,,
33224,1563729922479,6,2.3,0.69,0.51,0.95,0.8,0.74,-0.02,0.55,0,1,-2,0.74,4032,6,82,39,55,988,0.0,365,482,60,122.0,0,1,174,230,36,0,0,0,250,250,0,181.28,,,,,,,,,,,,
33244,1563729922495,9,2.29,0.69,0.5,0.95,0.79,0.82,0.01,0.48,0,-4,-4,0.82,3848,6,82,39,55,986,0.0,347,463,60,123.0,0,1,163,225,36,0,0,11510,250,250,0,181.28,45.747856,4.906453,0.0,198.8,0,0.0,-1,0.0,0.0,0,0.0,0.5541
33264,1563729922515,13,2.3,0.68,0.5,0.95,0.78,0.78,-0.19,0.38,-2,4,-5,0.8,3732,6,82,39,55,984,0.0,341,470,60,123.0,0,1,159,354,36,0,0,142,250,250,0,414.87,,,,,,,,,,,,
33284,1563729922535,13,2.28,0.68,0.49,0.95,0.78,0.72,-0.21,0.54,-1,-1,-3,0.75,3614,6,82,39,56,983,0.0,332,463,60,120.0,0,1,154,331,36,0,0,142,250,250,0,882.05,,,,,,,,,,,,
33304,1563729922555,9,2.3,0.68,0.51,0.94,0.8,0.74,-0.19,0.42,-2,2,-3,0.76,3553,6,82,39,57,982,0.0,325,461,60,123.0,0,1,152,303,42,0,0,142,250,250,0,414.87,,,,,,,,,,,,
33324,1563729922575,10,2.29,0.69,0.5,0.95,0.8,0.75,-0.15,0.57,-2,-3,-1,0.76,3698,6,82,39,59,980,0.0,323,473,60,123.0,0,1,158,289,42,0,0,142,250,250,0,414.87,,,,,,,,,,,,
33344,1563729922595,10,2.28,0.69,0.5,0.96,0.79,0.69,-0.15,0.45,-2,-3,-2,0.7,3750,6,82,39,59,979,0.0,333,468,60,122.0,0,1,161,258,42,0,0,142,250,250,0,414.87,45.747856,4.906453,0.0,198.8,0,0.0,-1,0.0,0.0,0,0.0,0.5557
33364,1563729922615,12,2.29,0.69,0.5,0.96,0.78,0.75,-0.13,0.45,-2,-3,-1,0.76,3715,6,82,39,59,977,0.0,331,470,60,123.0,0,1,159,241,42,0,0,142,250,250,0,648.46,,,,,,,,,,,,
33384,1563729922635,12,2.29,0.69,0.5,0.95,0.78,0.75,-0.13,0.46,-2,-1,-1,0.76,3803,6,82,39,60,976,0.0,336,463,60,123.0,0,1,164,248,42,0,0,142,250,250,0,414.87,,,,,,,,,,,,
33404,1563729922655,12,2.29,0.68,0.5,0.95,0.79,0.74,-0.13,0.53,-1,-3,-1,0.75,3789,6,82,39,60,990,0.0,334,478,60,122.0,0,1,162,247,35,0,0,142,250,250,0,648.46,,,,,,,,,,,,
33424,1563729922675,12,2.28,0.69,0.5,0.96,0.79,0.7,-0.11,0.51,-1,0,0,0.71,3764,6,82,39,60,1010,0.0,333,467,60,124.0,0,1,162,246,35,0,0,142,250,250,0,414.87,,,,,,,,,,,,
33444,1563729922694,11,2.28,0.69,0.5,0.96,0.79,0.72,-0.1,0.55,-1,-1,-1,0.73,3834,6,82,39,60,1029,0.0,338,469,60,122.0,0,1,165,249,35,0,0,142,250,250,0,882.05,45.747856,4.906453,0.0,198.8,0,0.0,-1,0.0,0.0,0,0.0,0.5574
33464,1563729922714,11,2.28,0.69,0.51,0.95,0.78,0.74,-0.11,0.57,-1,1,-1,0.75,3832,6,82,39,60,1049,0.0,338,467,60,123.0,0,1,165,248,35,0,0,142,250,250,0,414.87,,,,,,,,,,,,
33484,1563729922734,11,2.28,0.69,0.51,0.95,0.79,0.71,-0.1,0.57,-1,4,-1,0.71,3836,6,82,39,60,1117,0.0,341,467,60,121.0,0,1,165,249,35,0,0,11,250,250,0,882.05,,,,,,,,,,,,
33504,1563729922754,15,2.29,0.69,0.5,0.95,0.79,0.77,-0.08,0.49,-1,4,-0,0.77,3847,6,82,39,60,1200,0.0,338,466,60,123.0,0,1,166,249,36,0,0,11,250,250,0,414.87,,,,,,,,,,,,
33524,1563729922774,12,2.28,0.68,0.5,0.96,0.79,0.77,-0.06,0.46,-0,3,-1,0.77,3862,6,82,39,59,1274,0.0,343,465,60,120.0,0,1,166,244,36,0,0,11,250,250,0,882.05,,,,,,,,,,,,
33544,1563729922794,13,2.28,0.69,0.5,0.96,0.8,0.79,-0.05,0.53,-0,1,0,0.79,3902,6,82,39,59,1338,0.0,342,468,60,123.0,0,1,168,246,36,0,0,11,250,250,0,648.46,45.747856,4.906453,0.0,198.8,0,0.0,-1,0.0,0.0,0,0.0,0.5591
33564,1563729922814,11,2.29,0.69,0.51,0.95,0.79,0.76,-0.03,0.5,-0,3,0,0.76,3887,6,82,39,59,1360,0.0,342,467,60,122.0,0,1,167,245,36,0,0,11,250,250,0,414.87,,,,,,,,,,,,
33584,1563729922834,10,2.29,0.69,0.51,0.95,0.8,0.77,0.0,0.47,-0,2,-1,0.77,3924,6,82,39,59,1357,0.0,347,471,60,121.0,0,1,169,245,36,0,0,11,250,250,0,882.05,,,,,,,,,,,,
33604,1563729922854,15,2.28,0.69,0.51,0.96,0.79,0.8,0.0,0.46,-0,1,-0,0.8,3980,6,82,39,59,1322,0.0,345,469,60,123.0,0,1,172,248,36,0,0,11,250,250,0,414.87,,,,,,,,,,,,
33624,1563729922874,10,2.29,0.69,0.51,0.96,0.79,0.78,0.0,0.43,-0,3,0,0.78,3939,6,82,39,58,1254,0.0,352,468,60,122.0,0,1,169,242,36,0,0,11,250,250,0,414.87,,,,,,,,,,,,
33644,1563729922898,11,2.28,0.69,0.51,0.95,0.79,0.8,0.05,0.47,-0,1,-0,0.81,3958,6,82,39,58,1176,0.0,344,469,60,122.0,0,1,170,242,36,0,0,11,250,250,0,882.05,45.747856,4.906453,0.0,198.8,0,0.0,-1,0.0,0.0,0,0.0,0.5607
33664,1563729922918,13,2.29,0.69,0.51,0.95,0.79,0.84,0.04,0.49,-0,-0,-0,0.84,4060,6,82,39,58,1088,0.0,355,471,60,123.0,0,1,178,244,36,0,0,11,250,250,0,414.87,,,,,,,,,,,,
33684,1563729922938,12,2.28,0.69,0.51,0.96,0.8,0.82,0.05,0.47,-0,1,-0,0.82,3993,6,82,39,58,1023,0.0,350,467,60,123.0,0,1,171,243,36,0,0,11,250,250,0,414.87,,,,,,,,,,,,
33704,1563729922958,12,2.29,0.69,0.5,0.96,0.79,0.84,0.07,0.46,-0,1,-1,0.84,4090,6,82,39,57,1002,0.0,361,469,60,121.0,0,1,181,244,37,0,0,11,250,250,0,882.05,,,,,,,,,,,,
33724,1563729922978,12,2.29,0.7,0.51,0.96,0.79,0.86,0.05,0.45,0,-0,-0,0.86,4133,6,82,39,58,981,0.0,360,470,60,123.0,0,1,187,244,37,0,0,11,250,250,0,414.87,,,,,,,,,,,,
33744,1563729922992,14,2.29,0.7,0.51,0.97,0.8,0.84,0.04,0.45,0,1,0,0.84,4040,6,82,39,57,961,0.0,361,469,60,123.0,0,1,176,240,37,0,0,11,250,250,0,414.87,45.747856,4.906453,0.0,198.8,0,0.0,-1,0.0,0.0,0,0.0,0.5624
33764,1563729923012,10,2.29,0.7,0.52,0.96,0.81,0.83,0.04,0.43,-0,1,-0,0.83,4147,6,82,39,57,946,0.0,363,470,60,122.0,0,1,189,240,37,0,0,11,250,250,0,414.87,,,,,,,,,,,,
33784,1563729923032,11,2.29,0.7,0.51,0.97,0.8,0.85,0.05,0.45,-0,-0,-1,0.85,4185,6,82,39,57,948,0.0,369,466,60,123.0,0,1,188,240,37,0,0,8,250,250,0,882.05,,,,,,,,,,,,
33804,1563729923052,10,2.3,0.71,0.51,0.97,0.81,0.88,0.04,0.5,-0,-1,0,0.88,4097,6,82,39,57,950,0.0,360,470,60,123.0,0,1,182,240,37,0,0,8,250,250,0,414.87,,,,,,,,,,,,
33824,1563729923072,13,2.29,0.7,0.52,0.97,0.82,0.89,0.02,0.52,-0,-1,0,0.89,4181,6,82,39,57,952,0.0,365,466,60,123.0,0,1,193,240,37,0,0,8,250,250,0,414.87,,,,,,,,,,,,
33844,1563729923098,12,2.29,0.71,0.52,0.98,0.82,0.86,0.01,0.48,-0,0,-0,0.86,4158,6,82,39,57,954,0.0,371,465,60,123.0,0,1,190,240,37,0,0,8,250,250,0,414.87,45.747856,4.906453,0.0,198.8,0,0.0,-1,0.0,0.0,0,0.0,0.5641
33864,1563729923118,9,2.29,0.71,0.52,0.98,0.82,0.86,0.02,0.48,-0,-0,-1,0.86,4160,6,82,39,57,955,0.0,367,467,60,121.0,0,1,190,240,37,0,0,8,250,250,0,882.05,,,,,,,,,,,,
33884,1563729923138,10,2.29,0.71,0.52,0.99,0.82,0.87,0.01,0.51,-0,-1,-0,0.87,4205,6,82,39,57,957,0.0,371,466,60,123.0,0,1,196,241,37,0,0,25,250,250,0,648.46,,,,,,,,,,,,
33904,1563729923158,10,2.28,0.71,0.52,0.99,0.82,0.9,-0.01,0.54,-0,-2,0,0.9,4157,6,82,39,57,962,0.0,365,470,60,123.0,0,1,190,240,38,0,0,25,250,250,0,414.87,,,,,,,,,,,,
33924,1563729923178,11,2.29,0.71,0.53,0.98,0.83,0.86,-0.02,0.5,-0,-1,-0,0.86,4161,6,82,39,57,967,0.0,367,468,60,123.0,0,1,191,235,38,0,0,25,250,250,0,414.87,,,,,,,,,,,,
33944,1563729923198,10,2.29,0.72,0.53,0.99,0.83,0.84,0.0,0.49,-0,1,-1,0.84,4208,6,82,39,56,971,0.0,373,468,60,122.0,0,1,197,236,38,0,0,25,250,250,0,414.87,45.747856,4.906453,0.0,198.8,0,0.0,-1,0.0,0.0,0,0.0,0.5657
33964,1563729923218,10,2.29,0.71,0.53,0.98,0.82,0.84,0.03,0.47,0,1,-1,0.84,4135,6,82,39,56,976,0.0,371,469,60,122.0,0,1,187,235,38,0,0,33,250,250,0,882.05,,,,,,,,,,,,
33984,1563729923238,10,2.29,0.71,0.53,0.98,0.82,0.87,0.02,0.5,0,-1,-0,0.87,4181,6,82,39,57,984,0.0,362,468,60,123.0,0,1,193,240,38,0,0,33,250,250,0,414.87,,,,,,,,,,,,
34004,1563729923258,13,2.3,0.71,0.53,0.99,0.82,0.89,-0.0,0.53,0,-1,0,0.89,4232,6,82,39,57,991,0.0,373,467,60,123.0,0,1,199,241,37,0,0,33,250,250,0,414.87,,,,,,,,,,,,
34024,1563729923278,12,2.29,0.71,0.52,0.98,0.83,0.85,-0.02,0.5,0,0,-0,0.85,4166,6,82,39,56,995,0.0,371,467,60,122.0,0,1,191,235,37,0,0,50,250,250,0,414.87,,,,,,,,,,,,
34044,1563729923298,10,2.29,0.7,0.53,0.99,0.83,0.84,-0.02,0.48,-0,1,-0,0.84,4233,6,82,39,56,999,0.0,374,470,60,122.0,0,1,200,236,37,0,0,50,250,250,0,882.05,45.747856,4.906453,0.0,198.8,0,0.0,-1,0.0,0.0,0,0.0,0.5674
34064,1563729923318,9,2.28,0.71,0.53,0.98,0.82,0.85,-0.01,0.5,-0,-0,-1,0.85,4237,6,82,39,57,1000,0.0,378,472,60,123.0,0,1,200,241,37,0,0,50,250,250,0,648.46,,,,,,,,,,,,
34084,1563729923338,9,2.29,0.71,0.53,0.98,0.82,0.86,-0.03,0.54,-0,-2,-1,0.86,4196,6,82,39,56,1002,0.0,367,467,60,123.0,0,1,195,235,37,0,0,50,250,250,0,648.46,,,,,,,,,,,,
34104,1563729923358,10,2.28,0.72,0.53,0.99,0.82,0.9,-0.07,0.54,0,-2,-0,0.9,4253,6,82,39,56,1000,0.0,369,470,60,124.0,0,1,202,241,37,0,0,50,250,250,0,414.87,,,,,,,,,,,,
34124,1563729923378,13,2.28,0.71,0.53,0.99,0.82,0.89,-0.07,0.52,-0,-1,-0,0.9,4263,6,82,39,56,998,0.0,374,468,60,123.0,0,1,203,236,37,0,0,50,250,250,0,414.87,,,,,,,,,,,,
34144,1563729923398,12,2.29,0.71,0.53,0.98,0.83,0.84,-0.06,0.48,-0,1,-0,0.85,4221,6,82,39,56,993,0.0,379,467,60,121.0,0,1,198,236,37,0,0,50,250,250,0,414.87,45.747856,4.906453,0.0,198.8,0,0.0,-1,0.0,0.0,0,0.0,0.5691
34164,1563729923418,8,2.29,0.71,0.53,0.99,0.83,0.84,-0.04,0.48,-0,1,-1,0.84,4286,6,82,39,56,987,0.0,377,466,60,121.0,0,1,206,236,37,0,0,50,250,250,0,414.87,,,,,,,,,,,,
34184,1563729923438,9,2.28,0.71,0.52,0.99,0.82,0.83,-0.02,0.47,-0,1,-1,0.83,4249,6,82,39,56,984,0.0,379,468,60,122.0,0,1,198,236,37,0,0,50,250,250,0,882.05,,,,,,,,,,,,
34204,1563729923458,10,2.29,0.71,0.53,0.98,0.83,0.86,-0.03,0.5,-0,-0,-0,0.86,4229,6,82,39,57,982,0.0,378,470,60,123.0,0,1,199,236,37,0,0,50,250,250,0,648.46,,,,,,,,,,,,
34224,1563729923478,9,2.28,0.71,0.53,0.98,0.83,0.89,-0.04,0.53,-0,-2,0,0.89,4280,6,82,39,56,979,0.0,373,466,60,124.0,0,1,205,236,37,0,0,50,250,250,0,414.87,,,,,,,,,,,,
34244,1563729923496,13,2.28,0.71,0.53,0.99,0.82,0.86,-0.04,0.53,-0,-2,0,0.86,4227,6,82,39,56,976,0.0,371,466,60,123.0,0,1,199,236,37,0,0,11,250,250,0,414.87,45.747856,4.906453,0.0,198.8,0,0.0,-1,0.0,0.0,0,0.0,0.5707
34264,1563729923516,13,2.28,0.7,0.53,0.99,0.82,0.82,-0.05,0.51,-0,-1,-0,0.82,4306,6,82,39,56,975,0.0,377,468,60,123.0,0,1,209,237,37,0,0,11,250,250,0,414.87,,,,,,,,,,,,
34284,1563729923536,11,2.29,0.72,0.53,0.98,0.83,0.79,-0.04,0.5,-0,1,-1,0.79,4273,6,82,39,56,975,0.0,386,466,60,121.0,0,1,204,236,37,0,0,11,250,250,0,414.87,,,,,,,,,,,,
34304,1563729923556,10,2.29,0.71,0.52,0.99,0.83,0.8,-0.04,0.49,-0,2,-1,0.8,4273,6,82,39,56,974,0.0,374,470,60,122.0,0,1,204,236,38,0,0,41,250,250,0,882.05,,,,,,,,,,,,
34324,1563729923576,10,2.29,0.71,0.53,0.99,0.82,0.82,-0.02,0.49,0,1,-1,0.82,4321,6,82,39,56,972,0.0,382,470,60,123.0,0,1,211,237,38,0,0,41,250,250,0,414.87,,,,,,,,,,,,
34344,1563729923594,10,2.28,0.72,0.53,0.99,0.82,0.85,-0.02,0.52,0,-0,-0,0.85,4265,6,82,39,56,971,0.0,379,471,60,123.0,0,1,203,236,38,0,0,41,250,250,0,648.46,45.747856,4.906453,0.0,198.8,0,0.0,-1,0.0,0.0,0,0.0,0.5724
34364,1563729923614,10,2.29,0.72,0.53,1.0,0.83,0.87,-0.04,0.55,0,-1,0,0.87,4257,7,82,39,56,970,0.0,373,468,60,123.0,0,1,202,236,38,0,0,41,250,250,0,414.87,,,,,,,,,,,,
34384,1563729923634,13,2.29,0.71,0.53,0.99,0.83,0.83,-0.03,0.55,0,-1,1,0.83,4312,6,82,39,56,968,0.0,379,467,60,123.0,0,1,209,237,38,0,0,41,250,250,0,414.87,,,,,,,,,,,,
34404,1563729923654,10,2.3,0.71,0.53,0.99,0.82,0.79,-0.03,0.52,0,0,0,0.79,4236,6,82,39,56,967,0.0,382,463,60,123.0,0,1,200,236,38,0,0,41,250,250,0,414.87,,,,,,,,,,,,
34424,1563729923674,10,2.29,0.72,0.53,0.99,0.83,0.78,-0.02,0.51,0,1,-1,0.78,4280,6,82,39,56,966,0.0,381,470,60,121.0,0,1,205,236,38,0,0,41,250,250,0,414.87,,,,,,,,,,,,
34444,1563729923695,9,2.3,0.72,0.53,0.99,0.83,0.81,-0.02,0.5,0,1,-1,0.81,4317,6,82,39,56,966,0.0,379,469,60,122.0,0,1,210,237,38,0,0,41,250,250,0,882.05,45.747856,4.906453,0.0,198.8,0,0.0,-1,0.0,0.0,0,0.0,0.5741
34464,1563729923715,10,2.29,0.71,0.53,1.0,0.83,0.82,-0.01,0.51,0,1,-1,0.82,4270,6,82,39,56,966,0.0,385,468,60,123.0,0,1,203,236,38,0,0,41,250,250,0,648.46,,,,,,,,,,,,
34484,1563729923735,9,2.29,0.71,0.53,0.99,0.83,0.85,-0.02,0.54,0,-1,-0,0.85,4324,6,82,39,56,967,0.0,379,468,60,123.0,0,1,211,237,38,0,0,41,250,250,0,414.87,,,,,,,,,,,,
34504,1563729923755,8,2.29,0.71,0.53,0.99,0.83,0.86,-0.03,0.56,0,-2,0,0.86,4341,6,82,39,56,968,0.0,383,470,60,123.0,0,1,213,237,39,0,0,13,250,250,0,414.87,,,,,,,,,,,,
34524,1563729923775,9,2.29,0.71,0.53,0.99,0.83,0.85,-0.04,0.55,0,-3,1,0.85,4272,6,82,39,56,970,0.0,379,466,60,123.0,0,1,204,236,39,0,0,13,250,250,0,414.87,,,,,,,,,,,,
34544,1563729923795,13,2.29,0.72,0.53,0.99,0.84,0.82,-0.05,0.54,0,-2,0,0.83,4371,6,82,39,56,971,0.0,380,469,60,123.0,0,1,216,237,39,0,0,13,250,250,0,414.87,45.747856,4.906453,0.0,198.8,0,0.0,-1,0.0,0.0,0,0.0,0.5757
34564,1563729923815,12,2.29,0.72,0.53,1.0,0.83,0.8,-0.04,0.52,0,-1,0,0.8,4326,6,82,39,56,972,0.0,389,465,60,123.0,0,1,211,232,39,0,0,13,250,250,0,414.87,,,,,,,,,,,,
34584,1563729923835,10,2.3,0.71,0.53,0.99,0.84,0.78,-0.04,0.52,0,1,-0,0.78,4349,6,82,39,55,973,0.0,382,466,60,122.0,0,1,214,237,39,0,0,13,250,250,0,414.87,,,,,,,,,,,,
34604,1563729923855,10,2.29,0.72,0.53,0.99,0.83,0.76,-0.04,0.51,-0,2,-1,0.76,4383,6,82,39,56,973,0.0,396,470,60,122.0,0,1,218,237,39,0,0,13,250,250,0,648.46,,,,,,,,,,,,
34624,1563729923875,8,2.3,0.71,0.53,0.99,0.83,0.78,-0.04,0.51,-0,1,-1,0.78,4315,6,82,39,56,973,0.0,384,470,60,123.0,0,1,207,237,39,0,0,13,250,250,0,648.46,,,,,,,,,,,,
34644,1563729923897,9,2.29,0.71,0.53,1.0,0.83,0.81,-0.04,0.52,-0,-0,-1,0.81,4323,6,82,39,56,971,0.0,380,467,60,122.0,0,1,212,237,39,0,0,13,250,250,0,648.46,45.747856,4.906453,0.0,198.8,0,0.0,-1,0.0,0.0,0,0.0,0.5774
34664,1563729923917,9,2.29,0.71,0.53,0.99,0.83,0.81,-0.0,0.5,0,-1,-0,0.81,4388,6,82,39,56,969,0.0,384,468,60,123.0,0,1,218,237,39,0,0,13,250,250,0,648.46,,,,,,,,,,,,
34684,1563729923937,8,2.3,0.72,0.52,0.99,0.83,0.84,-0.0,0.51,0,-2,0,0.84,4307,6,82,39,56,968,0.0,382,468,60,123.0,0,1,209,237,39,0,0,13,250,250,0,414.87,,,,,,,,,,,,
34704,1563729923957,8,2.29,0.72,0.53,0.99,0.83,0.87,-0.01,0.51,0,-2,1,0.87,4334,6,82,39,56,966,0.0,381,468,60,123.0,0,1,212,237,38,0,0,13,250,250,0,414.87,,,,,,,,,,,,
34724,1563729923977,13,2.29,0.72,0.53,1.0,0.83,0.86,-0.02,0.52,0,-1,0,0.86,4351,6,82,39,56,963,0.0,381,466,60,123.0,0,1,214,237,38,0,0,13,250,250,0,414.87,,,,,,,,,,,,
34744,1563729923991,12,2.28,0.72,0.53,0.99,0.82,0.82,-0.03,0.51,-0,-1,-0,0.82,4256,6,82,39,55,961,0.0,388,463,60,122.0,0,1,203,231,38,0,0,11,250,250,0,414.87,45.747856,4.906453,0.0,198.8,0,0.0,-1,0.0,0.0,0,0.0,0.5791
34764,1563729924011,9,2.29,0.71,0.53,0.99,0.83,0.79,-0.03,0.52,-0,-0,-1,0.79,4342,6,82,39,55,960,0.0,383,466,60,122.0,0,1,214,237,38,0,0,11,250,250,0,414.87,,,,,,,,,,,,
34784,1563729924031,9,2.29,0.71,0.52,0.99,0.82,0.8,-0.01,0.51,-0,-0,-1,0.8,4276,6,82,39,56,959,0.0,384,472,60,122.0,0,1,205,236,38,0,0,11,250,250,0,882.05,,,,,,,,,,,,
34804,1563729924051,9,2.29,0.71,0.53,0.99,0.83,0.82,0.03,0.51,0,-0,-1,0.82,4238,6,82,39,56,956,0.0,374,470,60,123.0,0,1,201,236,38,0,0,11,250,250,0,648.46,,,,,,,,,,,,
34824,1563729924071,9,2.29,0.72,0.53,1.0,0.82,0.86,0.03,0.52,0,-1,-0,0.87,4358,6,82,39,56,953,0.0,382,471,60,124.0,0,1,214,237,38,0,0,28,250,250,0,648.46,,,,,,,,,,,,
34844,1563729924097,10,2.29,0.72,0.53,1.0,0.82,0.89,0.01,0.54,0,-2,1,0.89,4287,6,82,39,56,950,0.0,383,468,60,123.0,0,1,206,236,38,0,0,28,250,250,0,414.87,45.747856,4.906453,0.0,198.8,0,0.0,-1,0.0,0.0,0,0.0,0.5807
34864,1563729924117,8,2.29,0.71,0.52,0.99,0.83,0.89,0.01,0.54,0,-2,1,0.89,4301,6,82,39,56,948,0.0,374,468,60,123.0,0,1,208,237,38,0,0,28,250,250,0,414.87,,,,,,,,,,,,
34884,1563729924137,11,2.3,0.72,0.53,0.99,0.82,0.85,0.02,0.53,0,-2,1,0.85,4372,6,82,39,56,944,0.0,395,465,60,123.0,0,1,216,232,38,0,0,28,250,250,0,414.87,,,,,,,,,,,,
34904,1563729924157,12,2.29,0.72,0.53,0.99,0.83,0.81,0.01,0.52,0,-1,0,0.81,4277,6,82,39,55,941,0.0,385,467,60,122.0,0,1,206,236,39,0,0,28,250,250,0,414.87,,,,,,,,,,,,
34924,1563729924177,9,2.29,0.71,0.53,0.99,0.83,0.8,0.02,0.51,0,1,-1,0.8,4318,6,82,39,55,940,0.0,382,470,60,122.0,0,1,211,237,39,0,0,28,250,250,0,414.87,,,,,,,,,,,,
34944,1563729924199,8,2.29,0.72,0.53,0.99,0.83,0.84,0.0,0.51,0,1,-1,0.84,4346,6,82,39,56,939,0.0,390,471,60,121.0,0,1,213,237,39,0,0,28,250,250,0,882.05,45.747856,4.906453,0.0,198.8,0,0.0,-1,0.0,0.0,0,0.0,0.5824
34964,1563729924219,8,2.29,0.72,0.53,1.0,0.83,0.85,0.01,0.52,0,0,-1,0.85,4283,6,82,39,56,937,0.0,383,468,60,123.0,0,1,206,236,39,0,0,28,250,250,0,882.05,,,,,,,,,,,,
34984,1563729924239,9,2.29,0.72,0.53,1.0,0.83,0.87,0.02,0.53,0,-1,-0,0.87,4338,6,82,39,56,936,0.0,382,468,60,123.0,0,1,212,237,39,0,0,28,250,250,0,648.46,,,,,,,,,,,,
35004,1563729924259,9,2.29,0.72,0.53,1.0,0.83,0.88,0.01,0.56,0,-2,0,0.88,4360,6,82,39,56,936,0.0,380,469,60,123.0,0,1,215,237,38,0,0,28,250,250,0,414.87,,,,,,,,,,,,
35024,1563729924279,9,2.29,0.72,0.53,1.0,0.83,0.88,-0.02,0.56,0,-3,1,0.88,4287,6,82,39,55,935,0.0,383,466,60,123.0,0,1,207,231,38,0,0,28,250,250,0,414.87,,,,,,,,,,,,
35044,1563729924299,11,2.28,0.72,0.53,1.0,0.83,0.87,-0.04,0.55,0,-2,0,0.87,4375,6,82,39,56,936,0.0,382,472,60,123.0,0,1,217,232,38,0,0,28,250,250,0,414.87,45.747856,4.906453,0.0,198.8,0,0.0,-1,0.0,0.0,0,0.0,0.5841
35064,1563729924319,10,2.29,0.72,0.53,0.99,0.84,0.84,-0.03,0.53,0,-1,0,0.84,4305,6,82,39,56,937,0.0,382,468,60,123.0,0,1,208,232,38,0,0,28,250,250,0,414.87,,,,,,,,,,,,
35084,1563729924339,10,2.29,0.72,0.54,1.0,0.84,0.81,-0.02,0.53,0,0,-0,0.81,4327,6,82,39,55,937,0.0,381,465,60,122.0,0,1,212,232,38,0,0,28,250,250,0,414.87,,,,,,,,,,,,
35104,1563729924359,10,2.29,0.73,0.53,1.0,0.83,0.79,-0.03,0.53,0,1,-1,0.79,4376,6,82,39,55,938,0.0,389,466,60,122.0,0,1,218,237,39,0,0,28,250,250,0,181.28,,,,,,,,,,,,
35124,1563729924379,9,2.29,0.72,0.53,1.0,0.84,0.8,-0.03,0.52,-0,1,-1,0.8,4284,6,82,39,56,941,0.0,387,472,60,122.0,0,1,206,236,39,0,0,28,250,250,0,648.46,,,,,,,,,,,,
35144,1563729924399,7,2.3,0.72,0.53,1.01,0.83,0.83,-0.03,0.53,0,0,-1,0.83,4318,6,82,39,56,944,0.0,376,466,60,123.0,0,1,210,237,39,0,0,28,250,250,0,882.05,45.747856,4.906453,0.0,198.8,0,0.0,-1,0.0,0.0,0,0.0,0.5857
35164,1563729924419,9,2.29,0.73,0.54,1.0,0.84,0.84,0.01,0.52,0,-1,-0,0.84,4372,6,82,39,56,947,0.0,390,469,60,123.0,0,1,216,237,39,0,0,7,250,250,0,648.46,,,,,,,,,,,,
35184,1563729924439,8,2.3,0.72,0.54,1.0,0.84,0.86,0.02,0.53,0,-2,0,0.86,4286,6,82,39,56,950,0.0,379,467,60,123.0,0,1,206,231,39,0,0,7,250,250,0,414.87,,,,,,,,,,,,
35204,1563729924459,8,2.3,0.72,0.54,1.0,0.84,0.87,0.01,0.53,0,-1,1,0.87,4342,6,82,39,56,951,0.0,378,468,60,123.0,0,1,213,237,38,0,0,7,250,250,0,414.87,,,,,,,,,,,,
35224,1563729924479,11,2.29,0.73,0.53,1.01,0.84,0.86,-0.01,0.53,0,-1,1,0.86,4340,6,82,39,56,952,0.0,387,463,60,123.0,0,1,212,232,38,0,0,42,250,250,0,414.87,,,,,,,,,,,,
35244,1563729924495,11,2.28,0.73,0.54,1.0,0.84,0.82,-0.03,0.52,0,-1,-0,0.82,4261,6,82,39,55,952,0.0,378,466,60,123.0,0,1,204,231,38,0,0,42,250,250,0,414.87,45.747856,4.906453,0.0,198.8,0,0.0,-1,0.0,0.0,0,0.0,0.5874
35264,1563729924515,8,2.29,0.72,0.53,1.0,0.84,0.79,-0.02,0.52,-0,-0,-0,0.79,4379,6,82,40,56,951,0.0,388,468,60,121.0,0,1,217,235,38,0,0,42,250,250,0,882.05,,,,,,,,,,,,
35284,1563729924535,7,2.29,0.72,0.54,1.01,0.84,0.8,-0.0,0.52,-0,1,-1,0.8,4313,6,82,39,56,949,0.0,385,467,60,121.0,0,1,210,237,38,0,0,42,250,250,0,414.87,,,,,,,,,,,,
35304,1563729924555,7,2.28,0.72,0.54,1.01,0.84,0.83,0.02,0.51,0,1,-1,0.83,4286,6,82,39,56,946,0.0,385,468,60,122.0,0,1,212,236,38,0,0,42,250,250,0,882.05,,,,,,,,,,,,
35324,1563729924575,8,2.28,0.72,0.54,1.01,0.83,0.85,0.03,0.5,0,1,-1,0.85,4413,6,82,39,56,943,0.0,389,467,60,122.0,0,1,221,238,38,0,0,42,250,250,0,648.46,,,,,,,,,,,,
35344,1563729924595,8,2.28,0.73,0.53,1.01,0.84,0.88,0.02,0.51,0,-1,0,0.88,4334,6,82,39,56,942,0.0,386,470,60,123.0,0,1,212,237,38,0,0,20,250,250,0,648.46,45.747856,4.906453,0.0,198.8,0,0.0,-1,0.0,0.0,0,0.0,0.5891
35364,1563729924615,7,2.29,0.73,0.53,1.01,0.84,0.9,0.01,0.53,0,-2,1,0.9,4346,6,82,39,55,940,0.0,381,467,60,123.0,0,1,214,232,38,0,0,20,250,250,0,414.87,,,,,,,,,,,,
35384,1563729924635,8,2.28,0.72,0.53,1.0,0.84,0.92,-0.01,0.53,0,-3,1,0.92,4404,6,82,39,56,939,0.0,386,470,60,123.0,0,1,220,238,38,0,0,20,250,250,0,414.87,,,,,,,,,,,,
35404,1563729924655,8,2.29,0.73,0.53,1.01,0.84,0.91,-0.01,0.51,0,-3,1,0.91,4321,6,82,39,56,938,0.0,387,468,60,123.0,0,1,211,232,38,0,0,20,250,250,0,414.87,,,,,,,,,,,,
35424,1563729924675,11,2.28,0.73,0.54,1.0,0.85,0.87,-0.01,0.5,0,-1,1,0.87,4383,6,82,39,56,938,0.0,379,469,60,123.0,0,1,218,232,38,0,0,20,250,250,0,414.87,,,,,,,,,,,,
35444,1563729924694,9,2.28,0.72,0.54,1.01,0.84,0.82,-0.02,0.5,0,0,0,0.83,4373,6,82,39,56,937,0.0,400,469,60,123.0,0,1,216,237,38,0,0,27,250,250,0,414.87,45.747856,4.906453,0.0,198.8,0,0.0,-1,0.0,0.0,0,0.0,0.5907
35464,1563729924714,8,2.29,0.72,0.53,1.0,0.84,0.8,-0.06,0.51,-0,1,-1,0.8,4287,6,82,39,55,937,0.0,383,463,60,122.0,0,1,207,231,38,0,0,27,250,250,0,414.87,,,,,,,,,,,,
35484,1563729924734,8,2.28,0.73,0.54,1.0,0.85,0.8,-0.06,0.52,-0,1,-1,0.8,4388,6,82,39,55,936,0.0,384,468,60,121.0,0,1,219,237,38,0,0,27,250,250,0,414.87,,,,,,,,,,,,
35504,1563729924754,8,2.28,0.72,0.53,1.0,0.84,0.83,-0.04,0.52,-0,0,-1,0.83,4316,6,82,39,55,935,0.0,388,472,60,121.0,0,1,211,237,39,0,0,27,250,250,0,882.05,,,,,,,,,,,,
35524,1563729924774,7,2.28,0.73,0.54,1.01,0.83,0.85,0.0,0.51,-0,0,-1,0.85,4267,6,82,40,55,934,0.0,378,473,60,122.0,0,1,204,229,39,0,0,27,250,250,0,648.46,,,,,,,,,,,,
35544,1563729924794,5,2.29,0.73,0.54,1.01,0.84,0.89,0.01,0.51,-0,-0,-0,0.89,4385,6,82,39,56,934,0.0,383,471,60,123.0,0,1,218,237,39,0,0,27,250,250,0,414.87,45.747856,4.906453,0.0,198.8,0,0.0,-1,0.0,0.0,0,0.0,0.5924
35564,1563729924814,7,2.29,0.73,0.53,1.02,0.84,0.91,-0.01,0.52,-0,-1,0,0.91,4310,6,82,39,56,934,0.0,379,467,60,123.0,0,1,209,237,39,0,0,27,250,250,0,414.87,,,,,,,,,,,,
35584,1563729924834,7,2.29,0.72,0.53,1.01,0.84,0.91,-0.01,0.52,-0,-2,1,0.91,4315,6,82,39,55,934,0.0,384,467,60,124.0,0,1,211,232,39,0,0,27,250,250,0,414.87,,,,,,,,,,,,
35604,1563729924854,10,2.29,0.72,0.54,1.01,0.83,0.86,-0.01,0.52,-0,-2,0,0.86,4394,6,82,39,56,935,0.0,385,467,60,123.0,0,1,219,232,39,0,0,27,250,250,0,414.87,,,,,,,,,,,,
35624,1563729924874,8,2.28,0.72,0.54,1.01,0.84,0.81,-0.02,0.52,-0,-1,0,0.81,4306,6,82,39,55,934,0.0,387,460,60,122.0,0,1,210,232,39,0,0,27,250,250,0,414.87,,,,,,,,,,,,
35644,1563729924898,8,2.28,0.72,0.54,1.01,0.84,0.78,-0.03,0.51,-0,1,-1,0.78,4371,6,82,39,55,933,0.0,383,467,60,122.0,0,1,217,232,39,0,0,13,250,250,0,414.87,45.747856,4.906453,0.0,198.8,0,0.0,-1,0.0,0.0,0,0.0,0.5941
35664,1563729924918,6,2.29,0.72,0.54,1.01,0.85,0.81,-0.04,0.51,-0,1,-1,0.81,4360,6,82,39,56,931,0.0,389,472,60,121.0,0,1,215,237,39,0,0,13,250,250,0,882.05,,,,,,,,,,,,
35684,1563729924938,5,2.29,0.73,0.53,1.01,0.84,0.82,-0.03,0.5,-0,1,-1,0.82,4287,6,82,39,56,930,0.0,387,470,60,122.0,0,1,206,237,39,0,0,13,250,250,0,882.05,,,,,,,,,,,,
35704,1563729924958,5,2.29,0.73,0.53,1.02,0.84,0.85,-0.02,0.51,-0,0,-1,0.85,4348,6,82,39,56,926,0.0,379,467,60,123.0,0,1,213,237,38,0,0,13,250,250,0,882.05,,,,,,,,,,,,
35724,1563729924978,5,2.29,0.72,0.54,1.01,0.84,0.86,-0.02,0.52,-0,-1,-1,0.86,4362,6,82,39,56,922,0.0,391,467,60,123.0,0,1,215,237,38,0,0,13,250,250,0,648.46,,,,,,,,,,,,
35744,1563729924992,6,2.28,0.73,0.53,1.01,0.84,0.9,-0.04,0.51,-0,-2,-0,0.9,4273,7,82,39,56,920,0.0,374,469,60,124.0,0,1,204,236,38,0,0,13,250,250,0,414.87,45.747856,4.906453,0.0,198.8,0,0.0,-1,0.0,0.0,0,0.0,0.5957
35764,1563729925012,5,2.29,0.73,0.53,1.01,0.84,0.91,-0.03,0.5,-0,-2,0,0.91,4373,7,82,39,56,918,0.0,383,473,60,124.0,0,1,216,237,38,0,0,13,250,250,0,414.87,,,,,,,,,,,,
35784,1563729925032,8,2.29,0.73,0.54,1.01,0.85,0.89,-0.02,0.52,0,-2,0,0.89,4311,7,82,39,56,918,0.0,383,472,60,124.0,0,1,209,237,38,0,0,13,250,250,0,414.87,,,,,,,,,,,,
35804,1563729925052,10,2.29,0.73,0.53,1.01,0.84,0.83,-0.03,0.53,-0,-1,-0,0.83,4324,7,82,39,56,918,0.0,381,467,60,123.0,0,1,211,232,38,0,0,13,250,250,0,414.87,,,,,,,,,,,,
35824,1563729925072,8,2.29,0.72,0.54,1.01,0.84,0.8,-0.06,0.53,-0,0,-1,0.8,4349,7,82,39,56,920,0.0,391,465,60,123.0,0,1,213,237,38,0,0,13,250,250,0,414.87,,,,,,,,,,,,
35844,1563729925098,6,2.29,0.73,0.53,1.01,0.85,0.8,-0.05,0.51,-0,1,-1,0.81,4288,7,82,39,56,922,0.0,384,473,60,121.0,0,1,206,236,38,0,0,13,250,250,0,414.87,45.747856,4.906453,0.0,198.8,0,0.0,-1,0.0,0.0,0,0.0,0.5974
35864,1563729925118,6,2.28,0.72,0.54,1.02,0.84,0.84,-0.03,0.5,-0,0,-1,0.85,4309,7,82,39,56,922,0.0,387,471,60,121.0,0,1,209,237,38,0,0,13,250,250,0,882.05,,,,,,,,,,,,
35884,1563729925138,6,2.28,0.73,0.54,1.01,0.84,0.86,0.02,0.49,-0,-0,-1,0.86,4332,7,82,39,56,923,0.0,380,470,60,122.0,0,1,212,237,38,0,0,13,250,250,0,648.46,,,,,,,,,,,,
35904,1563729925158,4,2.29,0.73,0.54,1.02,0.84,0.9,0.01,0.5,-0,-1,0,0.9,4273,8,82,39,56,922,0.0,381,470,60,123.0,0,1,204,236,38,0,0,13,250,250,0,414.87,,,,,,,,,,,,
35924,1563729925178,5,2.28,0.72,0.54,1.01,0.84,0.91,0.02,0.52,-0,-1,0,0.91,4301,12,82,39,57,921,0.0,376,467,60,124.0,0,1,207,241,38,0,0,13,250,250,0,414.87,,,,,,,,,,,,
35944,1563729925198,10,2.28,0.73,0.53,1.02,0.84,0.88,-0.0,0.54,0,-1,0,0.88,4311,14,82,39,58,920,0.0,380,469,60,123.0,0,1,208,245,38,0,0,13,250,250,0,414.87,45.747856,4.906453,0.0,198.8,0,0.0,-1,0.0,0.0,0,0.0,0.5991
35964,1563729925218,7,2.29,0.73,0.54,1.01,0.84,0.83,-0.02,0.54,-0,-1,-0,0.83,4282,16,82,39,59,919,0.0,377,467,60,123.0,0,1,204,250,38,0,0,13,250,250,0,414.87,,,,,,,,,,,,
35984,1563729925238,7,2.29,0.73,0.53,1.01,0.85,0.79,-0.03,0.54,-0,-0,-0,0.79,4390,17,82,39,60,919,0.0,383,468,60,121.0,0,1,214,255,38,0,0,13,250,250,0,882.05,,,,,,,,,,,,
36004,1563729925258,6,2.28,0.73,0.54,1.01,0.84,0.79,-0.04,0.55,-0,0,-1,0.79,4380,18,82,39,61,919,0.0,392,467,60,122.0,0,1,211,260,43,0,0,13,250,250,0,414.87,,,,,,,,,,,,
36024,1563729925278,6,2.28,0.72,0.54,1.01,0.84,0.81,-0.03,0.53,-0,1,-1,0.81,4450,19,82,39,63,918,0.0,384,470,60,121.0,0,1,220,273,43,0,0,6,250,250,0,414.87,,,,,,,,,,,,
36044,1563729925298,6,2.29,0.73,0.53,1.02,0.84,0.8,-0.05,0.53,-0,1,-1,0.8,4506,19,82,39,64,918,0.0,398,468,60,120.0,0,1,227,278,43,0,0,6,250,250,0,414.87,45.747856,4.906453,0.0,198.8,0,0.0,-1,0.0,0.0,0,0.0,0.6007
36064,1563729925318,7,2.28,0.73,0.54,1.01,0.84,0.77,-0.05,0.52,-0,2,-2,0.78,4526,20,82,39,65,916,0.0,399,466,60,121.0,0,1,230,284,43,0,0,6,250,250,0,414.87,,,,,,,,,,,,
36084,1563729925338,9,2.28,0.73,0.54,1.01,0.84,0.73,-0.05,0.53,-0,3,-2,0.74,4598,22,82,39,66,915,0.0,400,466,60,121.0,0,1,238,291,43,0,0,6,250,250,0,414.87,,,,,,,,,,,,
36104,1563729925358,6,2.28,0.73,0.54,1.01,0.84,0.72,-0.06,0.54,-0,2,-2,0.72,4683,24,82,39,68,913,0.0,415,466,60,121.0,0,1,247,306,52,0,0,6,250,250,0,414.87,,,,,,,,,,,,
36124,1563729925378,5,2.29,0.73,0.54,1.01,0.85,0.7,-0.09,0.54,-0,1,-2,0.7,4719,22,82,39,69,910,0.0,409,468,60,123.0,0,1,250,310,52,0,0,6,250,250,0,414.87,,,,,,,,,,,,
36144,1563729925398,6,2.28,0.73,0.53,1.01,0.84,0.75,-0.06,0.52,-0,1,-1,0.76,4856,25,82,39,71,907,0.0,422,476,60,123.0,0,1,261,322,52,0,0,6,250,250,0,414.87,45.747856,4.906453,0.0,198.8,0,0.0,-1,0.0,0.0,0,0.0,0.6024
36164,1563729925418,9,2.28,0.73,0.54,1.01,0.85,0.78,-0.06,0.56,-0,0,-1,0.78,4926,26,82,39,73,904,0.0,437,471,60,122.0,0,1,270,334,52,0,0,6,250,250,0,882.05,,,,,,,,,,,,
36184,1563729925438,6,2.28,0.73,0.54,1.02,0.84,0.72,-0.06,0.57,-0,0,-1,0.73,5045,28,82,39,74,903,0.0,444,463,60,121.0,0,1,277,343,52,0,0,6,250,250,0,414.87,,,,,,,,,,,,
36204,1563729925458,8,2.29,0.73,0.53,1.02,0.84,0.81,-0.06,0.51,-0,0,-1,0.81,5166,30,82,39,75,904,0.0,451,473,60,123.0,0,1,287,357,66,0,0,6,250,250,0,648.46,,,,,,,,,,,,
36224,1563729925478,5,2.28,0.72,0.54,1.01,0.84,0.73,-0.05,0.57,-0,-0,-1,0.74,5299,30,82,39,75,906,0.0,467,467,60,122.0,0,1,297,365,66,0,0,6,250,250,0,882.05,,,,,,,,,,,,
36244,1563729925498,5,2.29,0.73,0.53,1.02,0.84,0.79,-0.1,0.53,-0,-1,-1,0.79,5367,31,82,39,75,909,0.0,465,471,60,122.0,0,1,302,371,66,0,0,6,250,250,0,882.05,45.747856,4.906453,0.0,198.8,0,0.0,-1,0.0,0.0,0,0.0,0.6041
36264,1563729925518,8,2.28,0.73,0.54,1.02,0.84,0.86,0.02,0.45,-0,-0,-0,0.86,5539,31,82,39,75,914,0.0,485,466,60,123.0,0,1,315,382,66,0,0,6,250,250,0,414.87,,,,,,,,,,,,
36284,1563729925538,9,2.28,0.73,0.54,1.01,0.85,0.78,0.03,0.39,1,3,-0,0.78,5704,32,82,39,74,920,0.0,508,466,60,123.0,0,1,328,393,66,0,0,9,250,250,0,414.87,,,,,,,,,,,,
36304,1563729925558,8,2.29,0.73,0.54,1.01,0.84,0.64,0.01,0.37,2,6,-0,0.64,5922,33,82,39,74,924,0.0,523,473,60,122.0,0,1,345,392,85,0,0,9,250,250,0,882.05,,,,,,,,,,,,
36324,1563729925578,7,2.29,0.72,0.53,1.02,0.84,0.56,0.08,0.29,3,10,-0,0.56,6241,34,82,39,72,926,0.0,536,467,60,123.0,0,1,361,384,85,0,0,9,250,250,0,414.87,,,,,,,,,,,,
36344,1563729925598,8,2.29,0.73,0.53,1.02,0.84,0.69,0.07,0.33,2,8,1,0.7,6562,35,82,39,72,936,0.0,551,466,60,123.0,0,1,372,373,85,0,0,41,250,250,0,648.46,45.747856,4.906453,0.0,198.8,0,0.0,-1,0.0,0.0,0,0.0,0.6057
36364,1563729925618,6,2.28,0.73,0.54,1.02,0.84,0.62,0.04,0.31,2,8,0,0.62,6885,35,82,40,71,958,0.0,583,468,60,121.0,0,1,384,360,85,0,0,41,250,250,0,414.87,,,,,,,,,,,,
36384,1563729925638,6,2.28,0.73,0.54,1.02,0.84,0.76,0.01,0.38,1,6,0,0.76,7148,36,82,40,70,979,0.0,607,471,60,122.0,0,1,400,351,85,0,0,41,250,250,0,882.05,,,,,,,,,,,,
36404,1563729925658,6,2.28,0.73,0.53,1.02,0.84,0.81,0.01,0.42,1,6,1,0.81,7446,36,82,40,69,997,0.0,624,471,60,122.0,0,1,416,347,99,0,0,41,250,250,0,882.05,,,,,,,,,,,,
36424,1563729925678,7,2.28,0.7,0.53,1.01,0.84,0.78,0.07,0.44,1,5,0,0.78,7819,36,82,40,66,1017,0.0,637,469,60,123.0,0,1,441,335,99,0,0,41,250,250,0,882.05,,,,,,,,,,,,
36444,1563729925699,7,2.28,0.73,0.54,1.01,0.84,0.84,0.04,0.42,1,5,0,0.84,8267,36,82,40,63,1039,0.0,646,470,60,123.0,0,1,446,336,99,0,0,41,250,250,0,414.87,45.747856,4.906453,0.0,198.8,0,0.0,-1,0.0,0.0,0,0.0,0.6074
36464,1563729925719,5,2.28,0.73,0.53,1.01,0.84,0.83,0.01,0.42,1,5,1,0.83,8720,36,82,40,59,1057,0.0,643,467,60,122.0,0,1,415,315,99,0,0,41,250,250,0,882.05,,,,,,,,,,,,
36484,1563729925739,5,2.29,0.73,0.53,1.02,0.84,0.85,0.03,0.41,1,4,0,0.85,9044,36,82,40,55,1059,0.0,660,475,60,124.0,0,1,400,298,99,0,0,41,250,250,0,414.87,,,,,,,,,,,,
36504,1563729925759,5,2.29,0.73,0.53,1.02,0.83,0.89,0.04,0.43,1,4,1,0.89,8971,34,82,40,52,1057,0.0,660,465,60,124.0,0,1,390,272,97,0,0,41,250,250,0,648.46,,,,,,,,,,,,
36524,1563729925779,6,2.29,0.72,0.53,1.01,0.84,0.91,0.04,0.41,1,3,-1,0.91,9014,36,82,40,51,1037,0.0,665,474,60,124.0,0,1,387,272,97,0,0,41,250,250,0,414.87,,,,,,,,,,,,
36544,1563729925797,5,2.29,0.72,0.53,1.02,0.83,0.94,0.07,0.36,1,4,0,0.94,9079,35,82,40,52,1016,0.0,663,475,60,123.0,0,1,391,274,97,0,0,41,250,250,0,882.05,45.747856,4.906453,0.0,198.8,0,0.0,-1,0.0,0.0,0,0.0,0.6091
36564,1563729925817,3,2.29,0.72,0.53,1.01,0.83,0.98,0.03,0.33,1,3,-1,0.99,9049,37,82,40,51,995,0.0,661,466,60,124.0,0,1,387,264,97,0,0,41,250,250,0,414.87,,,,,,,,,,,,
36584,1563729925837,3,2.29,0.72,0.53,1.01,0.84,1.01,0.05,0.26,1,3,0,1.01,9088,36,82,40,51,974,0.0,660,461,60,124.0,0,1,387,264,97,0,0,41,250,250,0,414.87,,,,,,,,,,,,
36604,1563729925857,3,2.28,0.72,0.53,1.01,0.83,1.01,0.06,0.23,1,3,-2,1.01,8911,37,82,40,51,991,0.0,661,466,60,121.0,0,1,386,261,86,0,0,41,250,250,0,882.05,,,,,,,,,,,,
36624,1563729925877,3,2.28,0.72,0.53,1.01,0.84,1.02,0.07,0.21,1,3,-1,1.02,9053,37,82,39,51,1007,0.0,663,476,60,124.0,0,1,387,267,86,0,0,41,250,250,0,414.87,,,,,,,,,,,,
36644,1563729925899,5,2.27,0.72,0.54,1.01,0.84,1.02,0.12,0.2,1,3,-2,1.03,9075,37,82,39,51,1046,0.0,663,464,60,124.0,0,1,387,266,86,0,0,41,250,250,0,414.87,45.747856,4.906453,0.0,198.8,0,0.0,-1,0.0,0.0,0,0.0,0.6107
36664,1563729925919,2,2.29,0.72,0.54,1.01,0.84,1.0,0.13,0.23,1,3,-1,1.01,8873,35,82,39,51,1086,0.0,661,467,60,122.0,0,1,386,261,86,0,0,41,250,250,0,882.05,,,,,,,,,,,,
36684,1563729925939,3,2.29,0.73,0.53,1.02,0.84,0.98,0.18,0.2,1,3,-2,1.0,9018,37,82,39,51,1158,0.0,665,471,60,122.0,0,1,387,264,86,0,0,41,250,250,0,882.05,,,,,,,,,,,,
36704,1563729925959,3,2.28,0.72,0.54,1.01,0.83,0.96,0.2,0.2,1,4,-1,0.98,8958,37,82,39,51,1231,0.0,661,463,60,122.0,0,1,387,255,87,0,0,41,250,250,0,1115.64,,,,,,,,,,,,
36724,1563729925979,4,2.27,0.73,0.53,1.02,0.84,0.94,0.23,0.17,1,4,-2,0.97,8971,38,82,39,50,1272,0.0,663,468,60,122.0,0,1,382,254,87,0,0,439,250,250,0,882.05,,,,,,,,,,,,
36744,1563729925991,5,2.28,0.72,0.53,1.02,0.84,0.91,0.24,0.17,1,3,-1,0.94,9018,38,82,39,50,1305,0.0,660,475,60,124.0,0,1,382,256,87,0,0,439,250,250,0,414.87,45.747856,4.906453,0.0,198.8,0,0.0,-1,0.0,0.0,0,0.0,0.6124
36764,1563729926011,4,2.28,0.73,0.54,1.02,0.85,0.88,0.28,0.13,1,4,-2,0.92,8962,38,82,39,50,1340,0.0,667,475,60,123.0,0,1,382,256,87,0,0,439,250,250,0,882.05,,,,,,,,,,,,
36784,1563729926031,4,2.28,0.72,0.53,1.01,0.84,0.85,0.3,0.13,2,5,-1,0.9,9071,38,82,39,50,1376,0.0,654,471,60,124.0,0,1,383,256,87,0,0,439,250,250,0,414.87,,,,,,,,,,,,
36804,1563729926051,3,2.28,0.73,0.54,1.01,0.84,0.83,0.33,0.1,2,5,-2,0.9,8928,38,82,39,50,1388,0.0,662,469,60,122.0,0,1,382,253,86,0,0,439,250,250,0,882.05,,,,,,,,,,,,
36824,1563729926071,3,2.28,0.73,0.54,1.01,0.84,0.77,0.38,0.09,2,6,-0,0.86,8941,38,82,39,51,1390,0.0,660,474,60,123.0,0,1,386,273,86,0,0,439,250,250,0,882.05,,,,,,,,,,,,
36844,1563729926097,3,2.28,0.73,0.54,1.02,0.84,0.75,0.45,0.09,2,5,-1,0.88,9071,38,82,39,51,1393,0.0,669,471,60,124.0,0,1,388,267,86,0,0,21,250,250,0,414.87,45.747856,4.906453,0.0,198.8,0,0.0,-1,0.0,0.0,0,0.0,0.6141
36864,1563729926117,4,2.28,0.72,0.54,1.02,0.84,0.73,0.47,0.08,2,5,1,0.87,8967,38,82,39,50,1399,0.0,657,463,60,124.0,0,1,382,255,86,0,0,370,250,250,0,414.87,,,,,,,,,,,,
36884,1563729926137,4,2.28,0.74,0.54,1.01,0.85,0.67,0.51,0.06,2,5,-1,0.84,8844,39,82,39,52,1402,0.0,664,466,60,122.0,0,1,388,269,86,0,0,133,250,250,0,882.05,,,,,,,,,,,,
36904,1563729926157,3,2.28,0.73,0.54,1.02,0.84,0.54,0.55,0.01,3,7,1,0.78,8898,39,82,39,52,1403,0.0,655,472,60,123.0,0,1,389,271,91,0,0,76,250,250,0,882.05,,,,,,,,,,,,
36924,1563729926177,3,2.29,0.73,0.53,1.02,0.85,0.52,0.59,-0.02,3,8,0,0.79,9119,39,82,39,51,1407,0.0,656,475,60,124.0,0,1,388,268,91,0,0,190,250,250,0,414.87,,,,,,,,,,,,
36944,1563729926197,2,2.29,0.72,0.54,1.02,0.85,0.45,0.6,-0.03,3,8,2,0.75,8903,41,82,39,51,1412,0.0,653,468,60,122.0,0,1,386,263,91,0,0,135,250,250,0,882.05,45.747856,4.906453,0.0,198.8,0,0.0,-1,0.0,0.0,0,0.0,0.6157
36964,1563729926217,5,2.28,0.73,0.54,1.02,0.85,0.43,0.61,0.02,3,8,1,0.74,8786,47,82,39,54,1416,0.0,666,469,60,123.0,0,1,395,284,91,0,0,125,250,250,0,882.05,,,,,,,,,,,,
36984,1563729926237,3,2.28,0.73,0.54,1.02,0.84,0.33,0.6,0.06,3,9,2,0.68,8869,54,82,39,58,1417,0.0,659,475,60,123.0,0,1,404,316,91,0,0,190,250,250,0,882.05,,,,,,,,,,,,
37004,1563729926257,3,2.28,0.73,0.54,1.02,0.84,0.34,0.57,0.11,3,8,1,0.66,9088,60,82,39,60,1426,0.0,662,469,60,124.0,0,1,400,336,114,0,0,190,250,250,0,414.87,,,,,,,,,,,,
37024,1563729926277,5,2.29,0.73,0.54,1.02,0.84,0.31,0.5,0.16,3,8,3,0.59,8861,67,82,39,65,1441,0.0,663,464,60,123.0,0,1,415,358,114,0,0,64,250,250,0,414.87,,,,,,,,,,,,
37044,1563729926297,5,2.29,0.73,0.54,1.02,0.84,0.49,0.4,0.24,2,6,2,0.63,8700,75,82,39,72,1454,0.0,662,470,60,123.0,0,1,423,410,114,0,0,85,250,250,0,882.05,45.747856,4.906453,0.0,198.8,0,0.0,-1,0.0,0.0,0,0.0,0.6174
37064,1563729926317,5,2.28,0.73,0.54,1.03,0.84,0.55,0.29,0.31,2,5,2,0.63,8656,82,82,39,79,1465,0.0,663,470,60,122.0,0,1,423,489,114,0,0,85,250,250,0,648.46,,,,,,,,,,,,
37084,1563729926337,3,2.29,0.73,0.54,1.03,0.84,0.63,0.22,0.36,2,4,2,0.67,8932,90,82,39,83,1477,0.0,659,472,60,122.0,0,1,420,545,114,0,0,85,250,250,0,648.46,,,,,,,,,,,,
37104,1563729926357,5,2.29,0.73,0.54,1.02,0.85,0.71,0.19,0.39,1,3,2,0.73,8979,97,82,39,85,1490,0.0,663,468,60,124.0,0,1,419,566,194,0,0,85,250,250,0,414.87,,,,,,,,,,,,
37124,1563729926377,5,2.28,0.73,0.54,1.02,0.84,0.69,0.19,0.39,1,3,2,0.71,8769,93,82,39,89,1498,0.0,665,463,60,121.0,0,1,426,600,194,0,0,85,250,250,0,648.46,,,,,,,,,,,,
37144,1563729926397,2,2.28,0.73,0.54,1.02,0.85,0.65,0.24,0.36,1,3,1,0.69,8769,100,81,39,89,1498,0.0,655,473,60,123.0,0,1,426,701,194,0,0,85,250,250,0,882.05,45.747856,4.906453,0.0,198.8,0,0.0,-1,0.0,0.0,0,0.0,0.6191
37164,1563729926417,3,2.28,0.73,0.54,1.03,0.84,0.65,0.21,0.35,1,2,1,0.68,9323,100,82,39,88,1498,0.0,657,467,60,124.0,0,1,418,672,194,0,0,85,250,250,0,414.87,,,,,,,,,,,,
37184,1563729926437,8,2.28,0.73,0.54,1.02,0.84,0.72,0.18,0.37,1,1,1,0.75,9115,100,82,39,88,1498,0.0,657,468,60,124.0,0,1,418,657,194,0,0,85,250,250,0,414.87,,,,,,,,,,,,
37204,1563729926457,8,2.29,0.73,0.54,1.03,0.85,0.77,0.16,0.38,1,1,1,0.78,8911,97,82,39,90,1498,0.0,663,458,60,122.0,0,1,422,717,227,0,0,17,250,250,0,648.46,,,,,,,,,,,,
37224,1563729926477,6,2.29,0.73,0.54,1.02,0.85,0.75,0.19,0.31,1,1,1,0.77,8769,100,82,39,90,1498,0.0,658,473,60,121.0,0,1,429,721,227,0,0,17,250,250,0,1115.64,,,,,,,,,,,,
37244,1563729926499,6,2.28,0.73,0.54,1.03,0.85,0.66,0.22,0.3,2,1,0,0.7,9001,100,82,39,89,1498,0.0,658,470,60,123.0,0,1,418,685,227,0,0,48,250,250,0,414.87,45.747856,4.906453,0.0,198.8,0,0.0,-1,0.0,0.0,0,0.0,0.6207
37264,1563729926519,7,2.28,0.73,0.54,1.02,0.85,0.73,0.19,0.3,1,1,1,0.76,9200,100,82,39,88,1498,0.0,661,468,60,124.0,0,1,418,657,227,0,0,48,250,250,0,414.87,,,,,,,,,,,,
37284,1563729926539,6,2.28,0.73,0.54,1.02,0.85,0.74,0.19,0.32,1,0,0,0.77,8928,96,82,39,90,1498,0.0,668,463,60,121.0,0,1,421,717,227,0,0,98,250,250,0,414.87,,,,,,,,,,,,
37304,1563729926559,6,2.29,0.73,0.54,1.02,0.85,0.72,0.2,0.27,1,0,1,0.75,8761,99,82,39,91,1498,0.0,661,465,60,122.0,0,1,427,726,203,0,0,345,250,250,0,1115.64,,,,,,,,,,,,
37324,1563729926579,5,2.28,0.73,0.54,1.03,0.85,0.64,0.23,0.29,1,1,1,0.67,9093,98,82,39,89,1498,0.0,659,474,60,122.0,0,1,418,695,203,0,0,345,250,250,0,882.05,,,,,,,,,,,,
37344,1563729926599,5,2.28,0.73,0.54,1.03,0.84,0.74,0.2,0.31,1,1,1,0.77,9241,98,82,39,88,1498,0.0,661,469,60,124.0,0,1,418,667,203,0,0,345,250,250,0,414.87,45.747856,4.906453,0.0,198.8,0,0.0,-1,0.0,0.0,0,0.0,0.6224
37364,1563729926619,6,2.28,0.73,0.54,1.02,0.85,0.77,0.18,0.31,1,0,1,0.79,8967,98,82,39,89,1498,0.0,655,472,60,124.0,0,1,419,717,203,0,0,1320,250,250,0,414.87,,,,,,,,,,,,
37384,1563729926639,5,2.28,0.73,0.54,1.02,0.85,0.78,0.17,0.3,1,-1,0,0.8,8819,100,82,39,90,1498,0.0,655,474,60,121.0,0,1,427,623,203,0,0,1320,250,250,0,882.05,,,,,,,,,,,,
37404,1563729926659,3,2.29,0.74,0.54,1.02,0.85,0.68,0.21,0.39,1,-0,-0,0.71,8823,100,82,39,90,1498,0.0,655,474,60,122.0,0,1,425,623,205,0,0,1320,250,250,0,882.05,,,,,,,,,,,,
37424,1563729926679,6,2.28,0.74,0.54,1.02,0.85,0.73,0.24,0.37,1,-1,-0,0.77,9200,94,82,40,88,1498,0.0,656,477,60,124.0,0,1,418,595,205,0,0,1320,250,250,0,414.87,,,,,,,,,,,,
37444,1563729926698,6,2.27,0.73,0.54,1.03,0.85,0.69,0.23,0.37,1,-1,-0,0.73,8932,97,82,40,89,1498,0.0,662,462,60,121.0,0,1,420,700,205,0,0,1320,250,250,0,882.05,45.747856,4.906453,0.0,198.8,0,0.0,-1,0.0,0.0,0,0.0,0.6241
37464,1563729926718,2,2.29,0.73,0.53,1.02,0.85,0.69,0.27,0.34,1,-1,0,0.74,8782,100,82,39,90,1498,0.0,655,475,60,123.0,0,1,426,704,205,0,0,1320,250,250,0,882.05,,,,,,,,,,,,
37484,1563729926738,3,2.28,0.73,0.54,1.02,0.85,0.6,0.29,0.36,2,-1,0,0.67,9146,98,82,39,89,1498,0.0,660,478,60,124.0,0,1,418,674,205,0,0,1320,250,250,0,414.87,,,,,,,,,,,,
37504,1563729926758,4,2.29,0.73,0.54,1.02,0.85,0.62,0.33,0.3,1,-1,0,0.7,8962,98,82,40,88,1498,0.0,652,465,60,124.0,0,1,419,692,200,0,0,1320,250,250,0,414.87,,,,,,,,,,,,
37524,1563729926778,4,2.28,0.73,0.54,1.03,0.85,0.52,0.38,0.32,2,-1,0,0.64,8815,99,82,39,90,1498,0.0,661,472,60,122.0,0,1,425,709,200,0,0,1320,250,250,0,882.05,,,,,,,,,,,,
37544,1563729926798,3,2.28,0.74,0.53,1.03,0.85,0.48,0.41,0.3,2,-1,0,0.63,8932,100,82,39,90,1498,0.0,651,472,60,122.0,0,1,421,699,200,0,0,1320,250,250,0,882.05,45.747856,4.906453,0.0,198.8,0,0.0,-1,0.0,0.0,0,0.0,0.6257
37564,1563729926818,2,2.29,0.73,0.54,1.02,0.85,0.41,0.41,0.33,2,-2,0,0.58,9268,97,82,40,88,1498,0.0,654,469,60,124.0,0,1,418,692,200,0,0,1320,250,250,0,414.87,,,,,,,,,,,,
37584,1563729926838,5,2.29,0.73,0.54,1.02,0.85,0.46,0.4,0.29,1,-2,0,0.61,8988,97,82,40,89,1498,0.0,653,462,60,124.0,0,1,419,695,200,0,0,1320,250,250,0,181.28,,,,,,,,,,,,
37604,1563729926858,5,2.29,0.74,0.54,1.03,0.85,0.38,0.44,0.3,2,-2,1,0.58,8848,98,82,40,90,1498,0.0,660,468,60,122.0,0,1,426,719,238,0,0,1320,250,250,0,1115.64,,,,,,,,,,,,
37624,1563729926878,2,2.3,0.73,0.54,1.03,0.84,0.39,0.48,0.3,2,-1,0,0.62,9040,100,82,39,90,1498,0.0,653,472,60,123.0,0,1,418,715,238,0,0,1320,250,250,0,882.05,,,,,,,,,,,,
37644,1563729926898,5,2.29,0.74,0.54,1.03,0.84,0.37,0.46,0.29,2,-1,1,0.59,9115,99,82,40,88,1498,0.0,657,468,60,124.0,0,1,418,667,238,0,0,1320,250,250,0,414.87,45.747856,4.906453,0.0,198.8,0,0.0,-1,0.0,0.0,0,0.0,0.6274
37664,1563729926918,4,2.29,0.74,0.53,1.02,0.85,0.41,0.48,0.27,2,-1,0,0.63,8962,100,82,40,89,1498,0.0,653,473,60,123.0,0,1,419,663,238,0,0,1320,250,250,0,648.46,,,,,,,,,,,,
37684,1563729926938,2,2.29,0.74,0.54,1.02,0.85,0.31,0.54,0.28,2,-1,1,0.62,8757,98,82,39,91,1498,0.0,657,473,60,122.0,0,1,427,726,238,0,0,1320,250,250,0,1115.64,,,,,,,,,,,,
37704,1563729926958,4,2.29,0.74,0.54,1.02,0.85,0.31,0.59,0.27,2,-0,1,0.66,9155,100,82,40,89,1498,0.0,653,480,60,124.0,0,1,418,690,240,0,0,1320,250,250,0,414.87,,,,,,,,,,,,
37724,1563729926978,5,2.29,0.74,0.54,1.02,0.84,0.29,0.57,0.28,2,-0,1,0.64,9186,100,82,40,88,1498,0.0,655,472,60,124.0,0,1,418,687,240,0,0,1320,250,250,0,414.87,,,,,,,,,,,,
37744,1563729926992,5,2.29,0.74,0.54,1.03,0.84,0.35,0.58,0.23,2,-1,1,0.68,8907,100,82,40,90,1498,0.0,661,463,60,121.0,0,1,422,684,240,0,0,1320,250,250,0,882.05,45.747856,4.906453,0.0,198.8,0,0.0,-1,0.0,0.0,0,0.0,0.6291
37764,1563729927012,5,2.28,0.74,0.54,1.03,0.85,0.25,0.66,0.26,2,0,1,0.71,8765,96,82,39,90,1498,0.0,657,475,60,121.0,0,1,427,732,240,0,0,384,250,250,0,1115.64,,,,,,,,,,,,
37784,1563729927032,2,2.29,0.73,0.54,1.02,0.85,0.25,0.7,0.21,2,1,1,0.74,9115,100,82,39,89,1498,0.0,657,473,60,122.0,0,1,418,695,240,0,0,384,250,250,0,414.87,,,,,,,,,,,,
37804,1563729927052,3,2.28,0.73,0.54,1.02,0.85,0.27,0.64,0.23,2,-0,1,0.69,9231,99,82,40,88,1498,0.0,668,468,60,124.0,0,1,418,687,248,0,0,384,250,250,0,414.87,,,,,,,,,,,,
37824,1563729927072,4,2.29,0.74,0.54,1.03,0.85,0.42,0.58,0.21,2,-0,1,0.72,9018,97,82,40,89,1498,0.0,655,469,60,124.0,0,1,418,684,248,0,0,384,250,250,0,181.28,,,,,,,,,,,,
37844,1563729927094,5,2.28,0.74,0.54,1.02,0.85,0.45,0.57,0.26,2,-1,1,0.72,8819,92,82,40,91,1498,0.0,665,466,60,121.0,0,1,425,681,248,0,0,384,250,250,0,181.28,45.747856,4.906453,0.0,198.8,0,0.0,-1,0.0,0.0,0,0.0,0.6307
37864,1563729927114,2,2.29,0.74,0.54,1.02,0.86,0.45,0.58,0.2,1,-1,1,0.73,8848,100,82,39,91,1498,0.0,656,474,60,122.0,0,1,424,721,248,0,0,384,250,250,0,882.05,,,,,,,,,,,,
37884,1563729927134,4,2.28,0.74,0.54,1.03,0.85,0.48,0.53,0.26,1,-2,0,0.72,9393,99,82,40,88,1498,0.0,658,468,60,124.0,0,1,418,667,248,0,0,384,250,250,0,414.87,,,,,,,,,,,,
37904,1563729927154,3,2.28,0.74,0.54,1.03,0.85,0.64,0.4,0.24,1,-1,1,0.75,9186,100,82,40,88,1498,0.0,656,466,60,124.0,0,1,418,651,233,0,0,20,250,250,0,414.87,,,,,,,,,,,,
37924,1563729927174,6,2.29,0.74,0.53,1.03,0.85,0.77,0.34,0.33,1,-2,0,0.84,8984,98,82,40,89,1498,0.0,653,466,60,124.0,0,1,419,711,233,0,0,20,250,250,0,181.28,,,,,,,,,,,,
37944,1563729927198,6,2.29,0.73,0.54,1.02,0.85,0.86,0.24,0.29,0,-3,1,0.89,8778,100,82,39,91,1498,0.0,661,468,60,122.0,0,1,426,715,233,0,0,20,250,250,0,414.87,45.747856,4.906453,0.0,198.8,0,0.0,-1,0.0,0.0,0,0.0,0.6324
37964,1563729927218,4,2.28,0.73,0.54,1.02,0.85,0.91,0.15,0.38,0,-4,-0,0.92,9128,100,82,39,89,1498,0.0,658,472,60,122.0,0,1,418,685,233,0,0,592,250,250,0,414.87,,,,,,,,,,,,
37984,1563729927238,2,2.29,0.73,0.54,1.03,0.84,1.02,0.04,0.39,-0,-4,1,1.02,9164,100,82,40,88,1498,0.0,662,467,60,124.0,0,1,418,692,233,0,0,592,250,250,0,414.87,,,,,,,,,,,,
38004,1563729927258,5,2.29,0.74,0.54,1.02,0.85,1.09,-0.01,0.44,-0,-5,-1,1.09,8958,95,82,40,90,1498,0.0,662,463,60,124.0,0,1,420,690,241,0,0,592,250,250,0,414.87,,,,,,,,,,,,
38024,1563729927278,6,2.28,0.74,0.54,1.03,0.85,1.12,-0.08,0.44,-1,-5,1,1.12,8749,95,82,39,91,1498,0.0,656,463,60,121.0,0,1,428,732,241,0,0,592,250,250,0,1115.64,,,,,,,,,,,,
38044,1563729927298,3,2.28,0.73,0.54,1.02,0.85,1.15,-0.14,0.49,-0,-6,-1,1.16,8992,100,82,39,90,1498,0.0,661,462,60,122.0,0,1,419,709,241,0,0,592,250,250,0,648.46,45.747856,4.906453,0.0,198.8,0,0.0,-1,0.0,0.0,0,0.0,0.6341
38064,1563729927318,2,2.29,0.74,0.53,1.02,0.85,1.21,-0.22,0.51,-1,-5,0,1.23,9314,99,82,40,88,1498,0.0,665,472,60,124.0,0,1,418,692,241,0,0,592,250,250,0,414.87,,,,,,,,,,,,
38084,1563729927338,6,2.28,0.74,0.54,1.02,0.85,1.26,-0.22,0.55,-1,-6,-1,1.28,9106,98,82,40,89,1498,0.0,661,462,60,124.0,0,1,418,690,241,0,0,592,250,250,0,414.87,,,,,,,,,,,,
38104,1563729927358,6,2.29,0.74,0.53,1.03,0.85,1.18,-0.27,0.54,-1,-4,0,1.21,8898,92,82,40,90,1498,0.0,663,465,60,123.0,0,1,422,600,238,0,0,592,250,250,0,648.46,,,,,,,,,,,,
38124,1563729927378,7,2.28,0.74,0.54,1.02,0.85,1.19,-0.32,0.56,-1,-5,-1,1.23,8733,100,82,39,91,1498,0.0,660,468,60,122.0,0,1,428,565,238,0,0,592,250,250,0,648.46,,,,,,,,,,,,
38144,1563729927398,2,2.29,0.74,0.54,1.02,0.85,1.27,-0.4,0.58,-1,-5,0,1.33,8971,100,82,39,90,1498,0.0,653,465,60,122.0,0,1,420,726,238,0,0,592,250,250,0,1115.64,45.747856,4.906453,0.0,198.8,0,0.0,-1,0.0,0.0,0,0.0,0.6357
38164,1563729927418,3,2.26,0.73,0.53,1.02,0.85,1.33,-0.43,0.66,-1,-6,-2,1.4,9272,100,82,39,88,1498,0.0,669,460,60,124.0,0,1,418,704,238,0,0,592,250,250,0,414.87,,,,,,,,,,,,
38184,1563729927438,8,2.28,0.74,0.54,1.02,0.85,1.27,-0.43,0.65,-1,-4,0,1.34,9057,97,82,39,89,1498,0.0,663,460,60,124.0,0,1,418,688,238,0,0,592,250,250,0,414.87,,,,,,,,,,,,
38204,1563729927458,7,2.29,0.73,0.54,1.03,0.85,1.32,-0.43,0.69,-1,-6,-1,1.38,8865,100,82,39,90,1498,0.0,668,460,60,121.0,0,1,423,731,249,0,0,592,250,250,0,648.46,,,,,,,,,,,,
38224,1563729927478,3,2.28,0.74,0.54,1.03,0.85,1.34,-0.5,0.69,-1,-5,0,1.43,8827,100,82,39,91,1498,0.0,659,469,60,122.0,0,1,425,721,249,0,0,592,250,250,0,648.46,,,,,,,,,,,,
38244,1563729927498,3,2.29,0.73,0.54,1.02,0.85,1.4,-0.52,0.71,-1,-6,-1,1.49,9218,100,82,39,88,1498,0.0,671,465,60,124.0,0,1,418,704,249,0,0,9,250,250,0,414.87,45.747856,4.906453,0.0,198.8,0,0.0,-1,0.0,0.0,0,0.0,0.6374
38264,1563729927518,7,2.29,0.74,0.53,1.03,0.85,1.33,-0.51,0.7,-1,-4,0,1.42,9005,95,82,39,89,1498,0.0,660,470,60,124.0,0,1,418,701,249,0,0,9,250,250,0,414.87,,,,,,,,,,,,
38284,1563729927538,7,2.28,0.74,0.54,1.03,0.84,1.35,-0.5,0.69,-1,-5,-1,1.44,8811,100,82,39,91,1498,0.0,666,465,60,121.0,0,1,425,704,249,0,0,9,250,250,0,648.46,,,,,,,,,,,,
38304,1563729927558,2,2.29,0.74,0.54,1.03,0.85,1.4,-0.55,0.7,-1,-6,0,1.5,8886,100,82,39,91,1498,0.0,661,466,60,121.0,0,1,423,688,231,0,0,9,250,250,0,1115.64,,,,,,,,,,,,
38324,1563729927578,6,2.28,0.74,0.53,1.03,0.85,1.45,-0.57,0.74,-2,-7,-1,1.56,9110,100,82,39,89,1498,0.0,661,466,60,124.0,0,1,418,600,231,0,0,9,250,250,0,414.87,,,,,,,,,,,,
38344,1563729927598,8,2.28,0.74,0.54,1.03,0.85,1.44,-0.6,0.73,-1,-6,0,1.56,8894,92,82,39,90,1498,0.0,660,463,60,123.0,0,1,422,595,231,0,0,9,250,250,0,648.46,45.747856,4.906453,0.0,198.8,0,0.0,-1,0.0,0.0,0,0.0,0.6391
38364,1563729927618,9,2.27,0.74,0.54,1.03,0.85,1.4,-0.61,0.75,-1,-6,-1,1.53,8729,100,82,39,91,1498,0.0,656,463,60,121.0,0,1,428,726,231,0,0,9,250,250,0,1115.64,,,,,,,,,,,,
38384,1563729927638,7,2.28,0.74,0.54,1.03,0.85,1.45,-0.62,0.74,-2,-7,-0,1.58,9168,100,82,39,89,1498,0.0,658,465,60,124.0,0,1,418,690,231,0,0,9,250,250,0,414.87,,,,,,,,,,,,
38404,1563729927658,10,2.29,0.74,0.54,1.02,0.85,1.46,-0.62,0.76,-2,-7,-1,1.59,9053,100,82,39,89,1498,0.0,660,463,60,124.0,0,1,418,662,234,0,0,226,250,250,0,414.87,,,,,,,,,,,,
38424,1563729927678,11,2.28,0.74,0.54,1.03,0.85,1.44,-0.62,0.72,-2,-6,-0,1.57,8840,100,82,39,90,1498,0.0,658,468,60,122.0,0,1,424,671,234,0,0,226,250,250,0,1115.64,,,,,,,,,,,,
38444,1563729927697,7,2.29,0.74,0.54,1.03,0.85,1.43,-0.61,0.73,-1,-7,-1,1.55,8962,100,82,39,91,1498,0.0,667,466,60,121.0,0,1,420,655,234,0,0,96,250,250,0,648.46,45.747856,4.906453,0.0,198.8,0,0.0,-1,0.0,0.0,0,0.0,0.6407
38464,1563729927717,9,2.28,0.74,0.54,1.03,0.84,1.46,-0.65,0.71,-2,-7,-1,1.6,9231,99,82,39,88,1498,0.0,658,471,60,124.0,0,1,418,698,234,0,0,96,250,250,0,414.87,,,,,,,,,,,,
38484,1563729927737,12,2.28,0.74,0.54,1.03,0.85,1.51,-0.63,0.75,-2,-8,-2,1.63,9031,100,82,39,89,1498,0.0,666,462,60,124.0,0,1,418,683,234,0,0,96,250,250,0,414.87,,,,,,,,,,,,
38504,1563729927757,11,2.28,0.74,0.54,1.03,0.85,1.46,-0.65,0.73,-1,-7,-0,1.6,8819,100,82,39,90,1498,0.0,660,463,60,122.0,0,1,425,726,234,0,0,37,250,250,0,414.87,,,,,,,,,,,,
38524,1563729927777,7,2.29,0.74,0.54,1.03,0.85,1.44,-0.65,0.76,-1,-7,-2,1.58,8920,99,82,39,91,1498,0.0,662,465,60,122.0,0,1,421,565,234,0,0,37,250,250,0,648.46,,,,,,,,,,,,
38544,1563729927797,7,2.28,0.74,0.54,1.02,0.85,1.49,-0.68,0.71,-1,-6,-1,1.63,9164,96,82,39,88,1498,0.0,659,469,60,124.0,0,1,418,600,234,0,0,65,250,250,0,414.87,45.747856,4.906453,0.0,198.8,0,0.0,-1,0.0,0.0,0,0.0,0.6424
38564,1563729927817,11,2.29,0.74,0.54,1.03,0.85,1.5,-0.64,0.75,-1,-7,-2,1.63,8958,99,82,39,89,1498,0.0,657,466,60,124.0,0,1,419,611,234,0,0,175,250,250,0,414.87,,,,,,,,,,,,
38584,1563729927837,11,2.28,0.74,0.54,1.03,0.85,1.46,-0.63,0.65,-1,-6,-1,1.59,8745,100,82,39,90,1498,0.0,652,466,60,122.0,0,1,428,623,234,0,0,175,250,250,0,648.46,,,,,,,,,,,,
38604,1563729927857,8,2.29,0.74,0.53,1.02,0.85,1.41,-0.6,0.65,-1,-6,-2,1.53,9057,99,82,39,89,1498,0.0,658,474,60,122.0,0,1,418,611,209,0,0,175,250,250,0,1115.64,,,,,,,,,,,,
38624,1563729927877,7,2.29,0.74,0.54,1.02,0.85,1.47,-0.65,0.61,-1,-6,-1,1.6,9191,100,82,39,88,1498,0.0,658,465,60,124.0,0,1,418,600,209,0,0,49,250,250,0,414.87,,,,,,,,,,,,
38644,1563729927897,9,2.29,0.74,0.54,1.03,0.84,1.49,-0.61,0.65,-1,-7,-2,1.61,8984,97,82,39,89,1498,0.0,662,464,60,124.0,0,1,419,611,209,0,0,49,250,250,0,414.87,45.747856,4.906453,0.0,198.8,0,0.0,-1,0.0,0.0,0,0.0,0.6441
38664,1563729927917,12,2.28,0.74,0.54,1.03,0.84,1.46,-0.62,0.58,-1,-5,-1,1.59,8778,100,82,39,91,1498,0.0,660,463,60,122.0,0,1,426,726,209,0,0,1941,250,250,0,648.46,,,,,,,,,,,,
38684,1563729927937,7,2.29,0.74,0.54,1.02,0.85,1.41,-0.62,0.62,-1,-6,-3,1.54,8924,100,82,39,90,1498,0.0,657,466,60,122.0,0,1,421,720,209,0,0,1941,250,250,0,1115.64,,,,,,,,,,,,
38704,1563729927957,8,2.28,0.74,0.54,1.02,0.84,1.45,-0.65,0.61,-1,-5,-1,1.59,9263,96,82,39,88,1498,0.0,663,470,60,124.0,0,1,418,678,247,0,0,63,250,250,0,414.87,,,,,,,,,,,,
38724,1563729927977,11,2.28,0.74,0.53,1.02,0.85,1.49,-0.62,0.66,-1,-7,-2,1.61,9062,100,82,39,89,1498,0.0,670,462,60,124.0,0,1,418,674,247,0,0,63,250,250,0,181.28,,,,,,,,,,,,
38744,1563729927991,11,2.28,0.74,0.54,1.03,0.84,1.44,-0.65,0.62,-1,-5,-1,1.58,8852,99,82,39,91,1498,0.0,665,467,60,123.0,0,1,424,671,247,0,0,63,250,250,0,648.46,45.747856,4.906453,0.0,198.8,0,0.0,-1,0.0,0.0,0,0.0,0.6457
38764,1563729928011,9,2.28,0.74,0.54,1.02,0.85,1.44,-0.66,0.65,-1,-6,-2,1.59,8844,95,82,39,90,1498,0.0,651,469,60,122.0,0,1,424,655,247,0,0,63,250,250,0,648.46,,,,,,,,,,,,
38784,1563729928031,8,2.28,0.73,0.54,1.03,0.85,1.48,-0.67,0.66,-1,-4,-0,1.62,9370,98,82,39,88,1498,0.0,662,462,60,124.0,0,1,418,615,247,0,0,33,250,250,0,414.87,,,,,,,,,,,,
38804,1563729928051,7,2.29,0.74,0.53,1.02,0.85,1.47,-0.59,0.67,-1,-4,-2,1.59,9173,100,82,39,88,1498,0.0,656,463,60,124.0,0,1,418,600,215,0,0,33,250,250,0,414.87,,,,,,,,,,,,
38824,1563729928071,12,2.28,0.74,0.54,1.03,0.85,1.36,-0.58,0.64,-1,-2,0,1.48,8962,95,82,39,90,1498,0.0,657,460,60,124.0,0,1,420,726,215,0,0,33,250,250,0,414.87,,,,,,,,,,,,
38844,1563729928093,11,2.28,0.74,0.54,1.02,0.85,1.42,-0.55,0.68,-1,-5,-1,1.53,8765,98,82,39,91,1498,0.0,660,471,60,123.0,0,1,427,565,215,0,0,33,250,250,0,882.05,45.747856,4.906453,0.0,198.8,0,0.0,-1,0.0,0.0,0,0.0,0.6474
38864,1563729928113,6,2.29,0.74,0.54,1.03,0.85,1.42,-0.61,0.72,-1,-4,0,1.54,9040,100,82,39,90,1498,0.0,657,465,60,121.0,0,1,418,693,215,0,0,31,250,250,0,1115.64,,,,,,,,,,,,
38884,1563729928133,8,2.28,0.74,0.53,1.03,0.84,1.4,-0.52,0.76,-1,-5,-1,1.49,9236,100,82,39,88,1498,0.0,653,465,60,124.0,0,1,418,652,215,0,0,31,250,250,0,414.87,,,,,,,,,,,,
38904,1563729928153,10,2.28,0.74,0.54,1.02,0.85,1.24,-0.48,0.7,-0,-2,1,1.33,9027,87,82,39,89,1498,0.0,651,472,60,124.0,0,1,418,595,228,0,0,71,250,250,0,181.28,,,,,,,,,,,,
38924,1563729928173,11,2.28,0.74,0.54,1.02,0.85,1.26,-0.42,0.71,-1,-3,-1,1.32,8831,100,82,39,91,1498,0.0,665,465,60,122.0,0,1,425,737,228,0,0,198,250,250,0,648.46,,,,,,,,,,,,
38944,1563729928197,7,2.29,0.74,0.54,1.03,0.85,1.21,-0.44,0.7,-0,-2,1,1.29,8932,100,82,39,91,1498,0.0,659,465,60,122.0,0,1,421,726,228,0,0,235,250,250,0,414.87,45.747856,4.906453,0.0,198.8,0,0.0,-1,0.0,0.0,0,0.0,0.6491
38964,1563729928217,7,2.28,0.74,0.54,1.03,0.85,1.19,-0.37,0.72,-0,-2,-1,1.25,9195,100,82,39,88,1498,0.0,661,463,60,124.0,0,1,418,704,228,0,0,88,250,250,0,414.87,,,,,,,,,,,,
38984,1563729928237,11,2.27,0.73,0.52,1.02,0.85,1.08,-0.35,0.66,0,-0,1,1.14,8975,93,82,39,89,1498,0.0,658,462,60,125.0,0,1,419,701,228,0,0,225,250,250,0,414.87,,,,,,,,,,,,
39004,1563729928257,9,2.29,0.74,0.54,1.02,0.85,1.14,-0.3,0.67,-0,-1,-0,1.18,8782,100,82,39,91,1498,0.0,659,459,60,122.0,0,1,426,731,247,0,0,347,250,250,0,882.05,,,,,,,,,,,,
39024,1563729928277,6,2.28,0.74,0.54,1.02,0.85,1.11,-0.34,0.67,0,0,2,1.16,9023,95,82,39,90,1498,0.0,657,471,60,123.0,0,1,418,715,247,0,0,347,250,250,0,882.05,,,,,,,,,,,,
39044,1563729928297,9,2.29,0.73,0.54,1.03,0.85,1.15,-0.3,0.68,0,-0,0,1.19,9084,100,82,39,89,1498,0.0,658,458,60,124.0,0,1,418,672,247,0,0,347,250,250,0,414.87,45.747856,4.906453,0.0,198.8,0,0.0,-1,0.0,0.0,0,0.0,0.6507
39064,1563729928317,11,2.28,0.74,0.53,1.02,0.85,1.1,-0.33,0.65,0,1,2,1.15,8865,88,82,39,90,1498,0.0,654,465,60,123.0,0,1,423,606,247,0,0,347,250,250,0,648.46,,,,,,,,,,,,
39084,1563729928337,8,2.28,0.74,0.54,1.03,0.84,1.14,-0.37,0.66,-0,0,0,1.2,8729,99,82,39,90,1498,0.0,656,473,60,122.0,0,1,428,720,247,0,0,7310,250,250,0,648.46,,,,,,,,,,,,
39104,1563729928357,6,2.29,0.74,0.54,1.03,0.84,1.17,-0.42,0.72,-0,1,2,1.24,9236,100,82,39,89,1498,0.0,661,466,60,123.0,0,1,418,690,243,0,0,7310,250,250,0,414.87,,,,,,,,,,,,
39124,1563729928377,6,2.28,0.74,0.54,1.03,0.85,1.13,-0.34,0.75,0,0,0,1.18,9263,100,82,39,88,1498,0.0,654,471,60,124.0,0,1,418,537,243,0,0,2415,250,250,0,414.87,,,,,,,,,,,,
39144,1563729928397,9,2.28,0.74,0.53,1.03,0.85,0.95,-0.27,0.67,0,2,2,0.99,9057,98,82,39,89,1498,0.0,663,466,60,125.0,0,1,418,658,243,0,0,2415,250,250,0,414.87,45.747856,4.906453,0.0,198.8,0,0.0,-1,0.0,0.0,0,0.0,0.6524
39164,1563729928417,11,2.29,0.73,0.54,1.03,0.85,0.96,-0.22,0.69,0,1,0,0.99,8865,100,82,39,90,1498,0.0,660,473,60,122.0,0,1,423,560,243,0,0,2415,250,250,0,882.05,,,,,,,,,,,,
39184,1563729928437,6,2.29,0.74,0.54,1.03,0.84,0.88,-0.23,0.66,1,3,2,0.91,8894,99,82,39,91,1498,0.0,662,466,60,122.0,0,1,422,644,243,0,0,2415,250,250,0,882.05,,,,,,,,,,,,
39204,1563729928457,7,2.28,0.74,0.54,1.03,0.85,0.86,-0.15,0.67,1,3,1,0.88,9186,100,82,39,89,1498,0.0,663,458,60,124.0,0,1,418,600,219,0,0,2415,250,250,0,414.87,,,,,,,,,,,,
39224,1563729928477,11,2.29,0.74,0.53,1.02,0.85,0.76,-0.12,0.63,1,4,2,0.77,8979,97,82,39,89,1498,0.0,661,467,60,124.0,0,1,419,611,219,0,0,24,250,250,0,414.87,,,,,,,,,,,,
39244,1563729928497,11,2.28,0.74,0.54,1.02,0.85,0.82,-0.11,0.64,1,3,1,0.83,8773,100,82,39,90,1498,0.0,654,475,60,122.0,0,1,427,737,219,0,0,24,250,250,0,882.05,45.747856,4.906453,0.0,198.8,0,0.0,-1,0.0,0.0,0,0.0,0.6541
39264,1563729928517,8,2.28,0.74,0.54,1.03,0.84,0.75,-0.12,0.62,1,5,3,0.76,9010,96,82,39,90,1498,0.0,660,463,60,122.0,0,1,418,715,219,0,0,24,250,250,0,648.46,,,,,,,,,,,,
39284,1563729928537,8,2.28,0.74,0.53,1.04,0.85,0.74,-0.05,0.64,1,5,1,0.74,9173,100,82,39,88,1498,0.0,660,470,60,124.0,0,1,418,672,219,0,0,24,250,250,0,181.28,,,,,,,,,,,,
39304,1563729928557,11,2.28,0.74,0.53,1.03,0.84,0.63,-0.03,0.62,2,6,3,0.63,8958,99,83,39,89,1498,0.0,656,473,60,124.0,0,1,419,669,234,0,0,24,250,250,0,181.28,,,,,,,,,,,,
39324,1563729928577,7,2.28,0.74,0.54,1.03,0.85,0.73,-0.02,0.62,1,5,1,0.73,8761,100,82,39,91,1498,0.0,661,466,60,122.0,0,1,427,671,234,0,0,2285,250,250,0,648.46,,,,,,,,,,,,
39344,1563729928597,7,2.28,0.74,0.53,1.02,0.85,0.68,-0.06,0.62,2,6,2,0.69,9088,100,82,39,89,1498,0.0,652,481,60,124.0,0,1,418,650,234,0,0,2285,250,250,0,414.87,45.747856,4.906453,0.0,198.8,0,0.0,-1,0.0,0.0,0,0.0,0.6557
39364,1563729928617,8,2.29,0.73,0.54,1.03,0.85,0.7,-0.02,0.65,2,5,1,0.7,9124,100,83,39,88,1498,0.0,666,462,60,124.0,0,1,418,610,234,0,0,2285,250,250,0,414.87,,,,,,,,,,,,
39384,1563729928637,9,2.29,0.74,0.54,1.03,0.84,0.62,-0.02,0.62,2,6,3,0.62,8907,98,82,39,89,1498,0.0,657,467,60,123.0,0,1,421,623,234,0,0,2285,250,250,0,882.05,,,,,,,,,,,,
39404,1563729928657,7,2.28,0.73,0.54,1.03,0.85,0.71,-0.01,0.63,1,5,1,0.71,8745,97,82,39,91,1498,0.0,663,463,60,123.0,0,1,428,628,209,0,0,2285,250,250,0,882.05,,,,,,,,,,,,
39424,1563729928677,6,2.29,0.74,0.54,1.02,0.85,0.7,-0.06,0.64,1,6,3,0.7,9124,99,82,39,89,1498,0.0,656,466,60,123.0,0,1,418,611,209,0,0,2285,250,250,0,414.87,,,,,,,,,,,,
39444,1563729928698,8,2.29,0.74,0.53,1.03,0.85,0.7,-0.01,0.67,1,5,1,0.7,9132,100,83,39,88,1498,0.0,663,462,60,124.0,0,1,418,600,209,0,0,22,250,250,0,414.87,45.747856,4.906453,0.0,198.8,0,0.0,-1,0.0,0.0,0,0.0,0.6574
39464,1563729928718,11,2.28,0.74,0.54,1.03,0.85,0.64,-0.03,0.62,2,6,3,0.65,8920,97,82,39,90,1498,0.0,658,463,60,123.0,0,1,421,623,209,0,0,22,250,250,0,648.46,,,,,,,,,,,,
39484,1563729928738,11,2.28,0.74,0.53,1.04,0.85,0.71,-0.04,0.65,1,4,1,0.71,8749,98,82,39,90,1498,0.0,656,471,60,122.0,0,1,428,737,209,0,0,22,250,250,0,882.05,,,,,,,,,,,,
39504,1563729928758,8,2.29,0.73,0.54,1.03,0.85,0.78,-0.11,0.67,1,5,3,0.78,8997,99,82,39,90,1498,0.0,652,473,60,123.0,0,1,419,715,243,0,0,22,250,250,0,648.46,,,,,,,,,,,,
39524,1563729928778,8,2.29,0.73,0.54,1.03,0.85,0.73,-0.02,0.7,2,4,0,0.73,9351,100,83,39,88,1498,0.0,664,461,60,124.0,0,1,418,672,243,0,0,22,250,250,0,414.87,,,,,,,,,,,,
