"Interval"|"ms"|0|0|1,"Utc"|"ms"|0|0|1,"FB_p"|"bar"|0|300|50,"Volant"|"F"|0.0|300.0|50,"xFR"|"mm"|0.0|5.0|50,"xRR"|"mm"|0.0|5.0|50,"xFL"|"mm"|0.0|5.0|50,"xRL"|"mm"|0.0|5.0|50,"AccelX"|"G"|-3.0|3.0|50,"AccelY"|"G"|-3.0|3.0|50,"AccelZ"|"G"|-3.0|3.0|50,"Yaw"|"Deg/Sec"|-120|120|50,"Pitch"|"Deg/Sec"|-120|120|50,"Roll"|"Deg/Sec"|-120|120|50,"Gsum"|"G"|0.0|3.0|50,"RPM"|""|0|14000|50,"TPS"|"%"|0|100|50,"WaterTemp"|"?C"|0|300|50,"AirTemp"|"?C"|-1000|1000|50,"MAP"|"KPa"|0|255|50,"Lambda"|""|0|1024|50,"WheelSpeed"|"MPH"|0.0|150.0|50,"OilPress"|"PSI"|0|150|50,"FuelPress"|"PSI"|0|150|50,"OilTemp"|"F"|0|300|50,"Battery"|"Volts"|0.0|20.0|50,"FuelCon"|"L/h"|-1000|1000|50,"Gear"|""|0|10|50,"Advance"|"Deg"|-360|360|50,"Injection"|"ms"|-1000|1000|50,"FuelCon"|"L/100km"|-1000|1000|50,"LC_But_Pres"|""|-1000|1000|50,"LC_Active"|""|-1000|1000|50,"RD_Speed"|""|-1000|1000|50,"RUD_Speed"|""|-1000|1000|50,"LD_Speed"|""|-1000|1000|50,"LUD_Speed"|""|-1000|1000|50,"Ana1"|"bar"|-1000.0|1000.0|50,"Latitude"|"Degrees"|-180.0|180.0|10,"Longitude"|"Degrees"|-180.0|180.0|10,"Speed"|"kph"|0.0|150.0|10,"Altitude"|"m"|0.0|4000.0|10,"LapCount"|""|0|0|10,"LapTime"|"Min"|0.0|0.0|10,"Sector"|""|0|0|10,"SectorTime"|"Min"|0.0|0.0|10,"ElapsedTime"|"Min"|0.0|0.0|10,"CurrentLap"|""|0|0|10,"Distance"|"km"|0.0|0.0|10,"SessionTime"|"Min"|0.0|0.0|10
16564,1563729969853,3,2.53,0.55,0.49,0.93,0.79,0.88,-0.6,0.58,14,3,12,1.06,9245,35,88,40,44,1276,487.0,638,465,60,123.0,160,1,353,223,78,0,0,347,14488,2524,488,882.05,,,,,,,,,,,,
16584,1563729969873,-0,2.53,0.55,0.48,0.93,0.79,0.79,-0.56,0.5,15,3,13,0.96,9277,35,88,40,44,1271,486.0,640,463,60,123.0,160,1,354,223,78,0,0,347,-26615,11560,486,882.05,,,,,,,,,,,,
16604,1563729969895,1,2.55,0.54,0.48,0.93,0.79,0.64,-0.57,0.48,15,2,15,0.86,9360,35,88,40,44,1267,484.0,640,465,60,123.0,160,1,355,224,78,0,0,50,-26615,2524,484,882.05,,,,,,,,,,,,
16624,1563729969915,2,2.53,0.56,0.49,0.94,0.8,0.64,-0.71,0.51,16,2,16,0.96,9356,35,88,40,44,1255,487.0,641,462,60,123.0,160,1,355,224,78,0,0,421,-18108,3,487,648.46,,,,,,,,,,,,
16644,1563729969935,2,2.55,0.57,0.49,0.94,0.79,0.78,-0.74,0.51,18,2,17,1.08,9375,35,88,40,44,1245,490.0,645,465,60,123.0,160,1,355,224,78,0,0,217,17628,10408,489,648.46,45.748222,4.906598,46.73,189.1,0,0.0,-1,0.0,0.0,0,0.16,0.2774
16664,1563729969955,-3,2.54,0.57,0.49,0.94,0.8,0.72,-0.68,0.46,18,3,20,0.99,9365,35,88,40,44,1233,488.0,642,455,60,123.0,161,1,355,224,79,0,0,2872,-9160,2524,488,648.46,,,,,,,,,,,,
16684,1563729969975,1,2.54,0.57,0.49,0.95,0.79,0.63,-0.65,0.45,19,2,18,0.91,9351,34,88,40,44,1223,488.0,647,462,60,122.0,161,1,355,224,79,0,0,136,-9160,-3414,488,1115.64,,,,,,,,,,,,
16704,1563729969995,1,2.54,0.57,0.5,0.95,0.8,0.68,-0.79,0.46,20,-1,20,1.04,9342,35,88,40,44,1212,489.0,643,460,60,122.0,161,1,355,224,79,0,0,105,-26615,15661,489,648.46,,,,,,,,,,,,
16724,1563729970009,2,2.53,0.59,0.5,0.96,0.81,0.81,-0.82,0.49,20,-1,20,1.16,9360,35,88,40,44,1201,493.0,640,470,60,123.0,161,1,355,224,79,0,0,105,17628,-9216,490,648.46,,,,,,,,,,,,
16744,1563729970029,-0,2.53,0.58,0.5,0.96,0.8,0.78,-0.74,0.49,20,-1,23,1.08,9379,35,88,40,44,1189,488.0,641,471,60,123.0,161,1,356,224,79,0,0,105,-9160,11560,492,882.05,45.748211,4.906599,46.04,189.1,0,0.0,-1,0.0,0.0,0,0.16,0.2791
16764,1563729970049,1,2.53,0.58,0.49,0.95,0.81,0.66,-0.69,0.47,21,0,22,0.95,9464,33,88,40,44,1184,489.0,637,470,60,121.0,163,1,356,224,80,0,0,34,17628,6274,489,1115.64,,,,,,,,,,,,
16784,1563729970069,1,2.54,0.59,0.5,0.96,0.81,0.74,-0.82,0.49,22,-2,23,1.1,9450,35,88,40,44,1180,490.0,638,474,60,123.0,163,1,356,224,80,0,0,34,-23623,-3856,490,648.46,,,,,,,,,,,,
16804,1563729970089,-1,2.52,0.6,0.5,0.97,0.81,0.76,-0.77,0.5,21,-2,24,1.09,9441,35,88,40,44,1172,493.0,640,463,60,122.0,163,1,356,224,80,0,0,91,-18108,6274,493,648.46,,,,,,,,,,,,
16824,1563729970105,-0,2.53,0.6,0.5,0.98,0.81,0.68,-0.69,0.5,22,-2,24,0.97,9431,34,88,40,44,1165,492.0,645,467,60,122.0,163,1,356,224,80,0,0,91,-18108,15661,494,1115.64,,,,,,,,,,,,
16844,1563729970125,1,2.52,0.6,0.49,0.97,0.81,0.66,-0.79,0.46,21,-2,25,1.03,9441,34,88,40,44,1163,492.0,646,462,60,122.0,163,1,356,224,80,0,0,69,-18108,2109,491,648.46,45.748199,4.906598,46.42,189.1,0,0.0,-1,0.0,0.0,0,0.16,0.2807
16864,1563729970145,2,2.51,0.6,0.51,0.98,0.82,0.78,-0.85,0.51,21,-2,25,1.15,9422,34,88,40,44,1160,490.0,653,467,60,122.0,163,1,356,224,80,0,0,69,-23623,-28648,490,882.05,,,,,,,,,,,,
16884,1563729970165,0,2.49,0.61,0.51,0.99,0.82,0.72,-0.71,0.52,21,-2,27,1.01,9398,35,88,40,44,1149,492.0,640,471,60,122.0,163,1,356,224,80,0,0,69,30272,-32248,492,882.05,,,,,,,,,,,,
16904,1563729970195,1,2.46,0.62,0.52,0.99,0.83,0.61,-0.7,0.5,21,-1,26,0.93,9360,32,88,40,44,1142,494.0,643,474,60,123.0,163,1,356,224,80,0,0,69,30272,-3414,493,882.05,,,,,,,,,,,,
16924,1563729970215,0,2.43,0.62,0.52,0.99,0.82,0.65,-0.78,0.52,20,-1,26,1.02,9417,35,88,40,44,1136,494.0,640,466,60,122.0,163,1,356,224,80,0,0,69,-3210,-3414,494,1115.64,,,,,,,,,,,,
16944,1563729970235,3,2.41,0.62,0.51,0.99,0.82,0.71,-0.77,0.57,19,-1,26,1.05,9426,34,88,40,44,1129,492.0,636,469,60,123.0,163,1,356,224,80,0,0,909,-16384,6274,492,882.05,45.748188,4.906597,46.04,189.2,0,0.0,-1,0.0,0.0,0,0.17,0.2824
16964,1563729970255,-1,2.39,0.6,0.51,0.98,0.81,0.68,-0.63,0.58,18,0,25,0.92,9431,31,88,40,44,1127,491.0,637,467,60,123.0,160,1,356,224,79,0,0,266,-16384,-21872,491,1115.64,,,,,,,,,,,,
16984,1563729970275,0,2.36,0.6,0.5,0.97,0.8,0.61,-0.62,0.49,17,0,26,0.87,9398,34,88,40,44,1125,490.0,642,471,60,123.0,160,1,355,224,79,0,0,266,3576,10408,490,414.87,,,,,,,,,,,,
17004,1563729970295,1,2.32,0.59,0.49,0.94,0.78,0.75,-0.66,0.54,15,-1,23,1.0,9384,28,88,40,44,1130,491.0,646,471,60,123.0,160,1,355,224,79,0,0,266,-17956,10408,491,648.46,,,,,,,,,,,,
17024,1563729970315,-0,2.3,0.57,0.46,0.9,0.76,0.82,-0.55,0.62,13,-2,24,0.99,9356,35,88,40,44,1135,487.0,642,471,60,123.0,160,1,355,224,79,0,0,266,8488,-28648,488,882.05,,,,,,,,,,,,
17044,1563729970335,-1,2.29,0.54,0.42,0.84,0.71,0.74,-0.4,0.6,12,-2,21,0.84,9351,28,88,40,44,1140,485.0,643,468,60,122.0,160,1,355,224,79,0,0,642,-10483,-22519,485,1115.64,45.748177,4.906593,46.41,189.2,0,0.0,-1,0.0,0.0,0,0.17,0.2841
17064,1563729970355,1,2.26,0.49,0.38,0.75,0.65,0.58,-0.33,0.58,10,-3,20,0.67,9346,33,88,40,44,1146,485.0,640,472,60,123.0,160,1,355,223,78,0,0,273,-10483,2109,485,414.87,,,,,,,,,,,,
17084,1563729970375,2,2.25,0.43,0.33,0.65,0.59,0.73,-0.33,0.61,8,-4,17,0.8,9346,28,88,40,44,1151,485.0,645,465,60,123.0,160,1,355,224,78,0,0,246,-6441,-22519,484,648.46,,,,,,,,,,,,
17104,1563729970395,2,2.23,0.37,0.28,0.57,0.52,0.86,-0.29,0.68,6,-4,15,0.91,9370,34,88,40,44,1153,487.0,644,461,60,123.0,160,1,355,224,78,0,0,2531,505,998,479,882.05,,,,,,,,,,,,
17124,1563729970415,0,2.21,0.31,0.24,0.5,0.47,0.69,-0.13,0.59,5,-2,14,0.7,9379,27,89,40,44,1156,489.0,643,467,60,123.0,160,1,355,224,78,0,0,2732,-6656,15661,482,648.46,,,,,,,,,,,,
17144,1563729970435,1,2.19,0.29,0.22,0.47,0.44,0.54,0.06,0.56,3,1,12,0.54,9389,34,88,40,44,1160,492.0,645,462,60,122.0,160,1,355,224,78,0,0,3067,-32768,-9216,481,414.87,45.748165,4.90659,46.98,189.3,0,0.0,-1,0.0,0.0,0,0.17,0.2857
17164,1563729970455,2,2.17,0.25,0.21,0.43,0.43,0.67,-0.05,0.58,1,0,9,0.67,9379,29,88,40,44,1161,492.0,648,451,60,123.0,165,1,355,224,80,0,0,2924,-32768,15661,480,648.46,,,,,,,,,,,,
17184,1563729970475,-0,2.14,0.24,0.2,0.42,0.42,0.75,-0.06,0.62,-1,1,7,0.75,9389,30,88,40,44,1162,496.0,645,466,60,123.0,165,1,355,224,80,0,0,304,3,-22519,479,882.05,,,,,,,,,,,,
17204,1563729970493,1,2.11,0.23,0.19,0.42,0.41,0.61,0.15,0.54,-2,3,6,0.63,9445,33,88,40,44,1169,493.0,647,462,60,123.0,165,1,356,224,80,0,0,137,-6528,15661,477,882.05,,,,,,,,,,,,
17224,1563729970513,2,2.1,0.22,0.2,0.42,0.41,0.6,0.21,0.54,-4,2,2,0.64,9464,29,88,40,44,1173,495.0,637,473,60,123.0,165,1,356,224,80,0,0,724,998,2524,478,181.28,,,,,,,,,,,,
17244,1563729970533,1,2.09,0.22,0.2,0.41,0.41,0.74,0.05,0.57,-6,2,-1,0.75,9498,33,88,40,44,1181,499.0,650,462,60,123.0,165,1,356,224,80,0,0,1314,-22519,15661,474,648.46,45.74815,4.906587,47.86,189.4,0,0.0,-1,0.0,0.0,0,0.17,0.2874
17264,1563729970553,-1,2.08,0.22,0.2,0.41,0.41,0.61,0.25,0.53,-7,4,-3,0.66,9503,34,88,40,44,1185,497.0,652,468,60,123.0,170,1,357,224,80,0,0,2512,-9216,-9216,472,882.05,,,,,,,,,,,,
17284,1563729970573,0,2.08,0.22,0.21,0.41,0.42,0.57,0.42,0.49,-9,3,-5,0.71,9445,34,88,40,44,1192,495.0,655,460,60,122.0,170,1,356,224,80,0,0,2778,771,11560,470,414.87,,,,,,,,,,,,
17304,1563729970594,2,2.08,0.22,0.21,0.4,0.42,0.71,0.29,0.62,-11,0,-8,0.77,9436,34,88,40,44,1195,499.0,655,465,60,123.0,170,1,356,224,80,0,0,879,-22519,-28648,471,648.46,,,,,,,,,,,,
17324,1563729970614,-0,2.07,0.21,0.2,0.41,0.41,0.67,0.42,0.57,-12,1,-10,0.79,9441,32,88,40,44,1197,499.0,647,469,60,123.0,170,1,356,224,80,0,0,1276,-22519,11560,473,882.05,,,,,,,,,,,,
17344,1563729970634,0,2.08,0.22,0.21,0.41,0.42,0.54,0.58,0.51,-13,2,-11,0.79,9503,35,89,40,44,1197,500.0,648,469,60,123.0,170,1,357,224,80,0,0,333,11560,2524,471,414.87,45.748142,4.906584,48.21,189.4,0,0.0,-1,0.0,0.0,0,0.17,0.2891
17364,1563729970654,2,2.07,0.22,0.2,0.41,0.41,0.69,0.41,0.62,-14,-1,-14,0.81,9527,35,88,40,44,1193,502.0,649,467,60,123.0,170,1,357,224,80,0,0,840,-22519,-9216,470,648.46,,,,,,,,,,,,
17384,1563729970674,-1,2.07,0.23,0.22,0.42,0.41,0.76,0.47,0.71,-15,-2,-15,0.89,9512,35,89,40,44,1189,499.0,649,463,60,123.0,170,1,357,224,80,0,0,353,-22519,-9216,469,648.46,,,,,,,,,,,,
17404,1563729970692,2,2.08,0.24,0.22,0.42,0.41,0.62,0.62,0.65,-16,-1,-17,0.88,9508,35,88,40,44,1183,501.0,647,470,60,122.0,170,1,357,224,80,0,0,17450,11560,-3856,470,414.87,,,,,,,,,,,,
17424,1563729970712,2,2.09,0.23,0.23,0.42,0.43,0.7,0.46,0.65,-17,-1,-20,0.84,9517,35,89,40,44,1179,505.0,651,470,60,123.0,170,1,357,224,80,0,0,14112,6274,10408,472,648.46,,,,,,,,,,,,
17444,1563729970732,-1,2.13,0.23,0.22,0.42,0.42,0.68,0.61,0.61,-17,-2,-19,0.92,9561,35,89,40,44,1173,500.0,653,466,60,123.0,170,1,357,225,80,0,0,2365,10408,-9216,471,882.05,45.748127,4.906582,48.36,189.4,0,0.0,-1,0.0,0.0,0,0.17,0.2907
17464,1563729970752,2,2.14,0.23,0.22,0.42,0.42,0.67,0.64,0.64,-17,-1,-21,0.92,9595,35,89,40,44,1169,500.0,647,466,60,122.0,171,1,357,225,81,0,0,248,10408,-9216,472,648.46,,,,,,,,,,,,
17484,1563729970772,-1,2.16,0.24,0.23,0.42,0.42,0.8,0.43,0.72,-18,-1,-21,0.91,9580,35,89,40,44,1167,500.0,656,463,60,123.0,171,1,357,225,81,0,0,8238,10408,2109,472,882.05,,,,,,,,,,,,
17504,1563729970792,-1,2.19,0.24,0.23,0.43,0.42,0.55,0.59,0.62,-16,1,-21,0.81,9532,33,89,40,44,1168,500.0,649,461,60,123.0,171,1,356,224,81,0,0,339,-22519,-3856,475,882.05,,,,,,,,,,,,
17524,1563729970812,2,2.2,0.24,0.23,0.42,0.43,0.6,0.59,0.57,-15,-1,-23,0.84,9455,30,89,40,44,1169,498.0,658,450,60,123.0,171,1,356,224,81,0,0,273,2524,2109,478,414.87,,,,,,,,,,,,
17544,1563729970832,3,2.22,0.25,0.24,0.43,0.43,0.74,0.42,0.68,-15,-2,-21,0.85,9441,21,89,40,41,1169,498.0,641,466,60,123.0,171,1,334,219,81,0,0,1182,2524,-32248,479,882.05,45.748116,4.90658,48.21,189.3,0,0.0,-1,0.0,0.0,0,0.17,0.2924
17564,1563729970852,-1,2.24,0.26,0.23,0.43,0.43,0.65,0.44,0.62,-13,1,-21,0.79,9426,14,89,40,38,1169,492.0,648,464,60,123.0,158,1,317,208,76,0,0,274,-32768,-28648,482,882.05,,,,,,,,,,,,
17584,1563729970872,1,2.26,0.26,0.23,0.44,0.43,0.52,0.45,0.61,-12,1,-19,0.69,9412,9,89,40,34,1169,494.0,646,460,60,123.0,158,1,305,198,76,0,0,205,998,-32248,484,1115.64,,,,,,,,,,,,
17604,1563729970894,2,2.27,0.27,0.24,0.45,0.44,0.67,0.31,0.7,-12,-3,-18,0.74,9305,5,89,40,31,1170,492.0,644,456,60,123.0,158,1,295,190,76,0,0,290,-6528,10408,483,648.46,,,,,,,,,,,,
17624,1563729970914,1,2.28,0.27,0.25,0.46,0.45,0.81,0.19,0.72,-11,-5,-18,0.83,9177,0,89,40,28,1170,491.0,641,450,60,123.0,158,1,282,186,76,0,0,1651,248,248,484,648.46,,,,,,,,,,,,
17644,1563729970934,3,2.29,0.27,0.25,0.47,0.46,0.93,0.14,0.75,-11,-6,-18,0.94,9001,0,89,40,26,1172,490.0,640,448,60,122.0,158,1,274,185,76,0,0,1470,-1818,998,485,414.87,45.748108,4.90658,48.27,189.1,0,0.0,-1,0.0,0.0,0,0.17,0.2941
17664,1563729970954,2,2.29,0.28,0.25,0.48,0.46,1.04,0.06,0.74,-10,-6,-16,1.04,8802,0,89,40,25,1173,489.0,646,453,60,122.0,128,1,270,185,62,0,0,2950,-6656,-9216,481,648.46,,,,,,,,,,,,
17684,1563729970974,1,2.3,0.28,0.25,0.48,0.46,1.01,0.07,0.66,-10,-7,-16,1.01,8585,0,89,40,25,1168,484.0,635,465,60,123.0,128,1,270,185,62,0,0,1012,-10483,248,482,882.05,,,,,,,,,,,,
17704,1563729970994,5,2.3,0.28,0.25,0.47,0.46,1.0,0.14,0.7,-9,-7,-15,1.01,8363,0,89,40,25,1131,484.0,629,465,60,123.0,128,1,270,176,62,0,0,1626,-899,-32768,480,882.05,,,,,,,,,,,,
17724,1563729971008,2,2.31,0.27,0.25,0.48,0.46,1.0,0.08,0.62,-8,-7,-15,1.0,8152,0,89,40,25,1101,482.0,633,461,60,123.0,128,1,270,165,62,0,0,763,-899,3580,480,414.87,,,,,,,,,,,,
17744,1563729971028,5,2.31,0.26,0.24,0.48,0.44,1.09,0.11,0.56,-7,-8,-14,1.1,8109,0,89,40,24,1077,480.0,620,458,60,124.0,128,1,270,158,62,0,0,2609,8488,-16384,475,648.46,45.748093,4.90658,48.34,189.1,0,0.0,-1,0.0,0.0,0,0.18,0.2957
17764,1563729971048,8,2.32,0.26,0.23,0.47,0.44,1.12,0.11,0.47,-7,-9,-14,1.13,8088,0,89,40,25,1033,473.0,620,452,60,123.0,101,1,270,161,48,0,0,7878,32033,30272,470,1115.64,,,,,,,,,,,,
17784,1563729971068,7,2.32,0.27,0.24,0.47,0.44,1.14,0.1,0.45,-6,-9,-12,1.14,8113,0,89,40,25,985,466.0,616,457,60,124.0,101,1,270,162,48,0,0,199,-3210,-9160,466,648.46,,,,,,,,,,,,
17804,1563729971096,6,2.34,0.26,0.24,0.47,0.44,1.1,0.14,0.42,-6,-8,-12,1.11,8148,0,89,40,25,941,463.0,613,452,60,123.0,101,1,270,165,48,0,0,2006,2211,8488,463,882.05,,,,,,,,,,,,
17824,1563729971116,6,2.34,0.27,0.24,0.48,0.44,1.09,0.13,0.37,-5,-7,-10,1.1,8184,0,89,40,25,928,460.0,616,461,60,122.0,101,1,270,167,48,0,0,1869,14488,-28332,460,414.87,,,,,,,,,,,,
17844,1563729971136,7,2.35,0.28,0.25,0.49,0.45,1.06,0.14,0.29,-4,-7,-8,1.07,8155,0,89,40,25,909,453.0,619,461,60,123.0,101,1,270,165,48,0,0,102,3571,21580,452,882.05,45.748081,4.906582,47.3,189.3,0,0.0,-1,0.0,0.0,0,0.18,0.2974
17864,1563729971156,3,2.35,0.29,0.25,0.5,0.46,1.02,0.16,0.26,-3,-4,-7,1.03,8134,0,89,40,25,906,450.0,628,465,60,123.0,112,1,270,164,51,0,0,7410,10305,1779,454,414.87,,,,,,,,,,,,
17884,1563729971176,7,2.35,0.3,0.26,0.51,0.47,1.06,0.11,0.21,-2,-3,-5,1.07,8134,0,89,40,25,905,448.0,618,461,60,124.0,112,1,270,164,51,0,0,313,26704,-768,448,648.46,,,,,,,,,,,,
17904,1563729971196,9,2.36,0.32,0.28,0.53,0.48,1.03,0.11,0.19,-1,-4,-4,1.03,8102,0,89,40,25,917,443.0,618,461,60,122.0,112,1,270,160,51,0,0,1084,-7939,-768,443,882.05,,,,,,,,,,,,
17924,1563729971216,5,2.37,0.33,0.29,0.55,0.5,1.03,0.1,0.2,0,-3,-3,1.04,8054,0,89,40,25,934,439.0,630,463,60,123.0,112,1,270,159,51,0,0,6339,-3314,-768,439,414.87,,,,,,,,,,,,
17944,1563729971236,6,2.37,0.34,0.31,0.57,0.53,1.08,0.07,0.21,1,-4,-1,1.08,8036,0,89,40,25,965,436.0,622,467,60,123.0,112,1,270,158,51,0,0,6339,-3414,19477,436,882.05,45.74807,4.906582,45.69,189.3,0,0.0,-1,0.0,0.0,0,0.18,0.2991
17964,1563729971256,8,2.37,0.36,0.32,0.6,0.54,1.08,0.05,0.25,1,-4,-0,1.08,7985,0,89,40,25,983,433.0,615,462,60,123.0,108,1,269,156,47,0,0,62,7154,243,433,414.87,,,,,,,,,,,,
17984,1563729971276,5,2.37,0.36,0.34,0.6,0.56,1.11,0.0,0.22,2,-3,0,1.11,7921,0,89,40,25,996,426.0,628,465,60,124.0,108,1,269,156,47,0,0,62,7154,13552,428,648.46,,,,,,,,,,,,
18004,1563729971296,6,2.37,0.37,0.33,0.62,0.55,1.18,-0.04,0.24,2,-3,1,1.18,7904,0,89,40,24,1004,422.0,609,460,60,124.0,108,1,269,153,47,0,0,1041,-26615,31796,422,414.87,,,,,,,,,,,,
18024,1563729971316,7,2.36,0.37,0.33,0.62,0.56,1.19,-0.05,0.23,2,-4,1,1.19,7822,0,89,40,25,1013,417.0,604,463,60,123.0,108,1,268,156,47,0,0,1741,-4059,-8165,417,882.05,,,,,,,,,,,,
18044,1563729971336,7,2.37,0.37,0.34,0.62,0.57,1.15,-0.02,0.21,2,-3,1,1.15,7754,0,89,40,25,1020,415.0,613,465,60,122.0,108,1,267,156,47,0,0,521,11560,18584,416,414.87,45.748058,4.906581,43.62,189.3,0,0.0,-1,0.0,0.0,0,0.18,0.3007
18064,1563729971356,8,2.37,0.37,0.33,0.62,0.56,1.08,-0.02,0.18,3,-2,3,1.08,7716,0,89,40,25,1019,412.0,595,463,60,123.0,106,1,267,153,44,0,0,2504,1504,-21944,411,414.87,,,,,,,,,,,,
18084,1563729971376,7,2.37,0.36,0.33,0.62,0.56,0.99,-0.03,0.15,3,2,2,0.99,7612,0,89,40,25,1018,409.0,598,465,60,122.0,106,1,266,156,44,0,0,1208,11545,-26615,409,414.87,,,,,,,,,,,,
18104,1563729971395,8,2.37,0.35,0.33,0.61,0.55,0.98,-0.08,0.18,4,1,3,0.99,7572,0,89,40,25,1008,406.0,588,462,60,122.0,106,1,265,156,44,0,0,251,-3968,9517,406,414.87,,,,,,,,,,,,
18124,1563729971415,7,2.37,0.34,0.32,0.6,0.54,0.96,-0.09,0.2,5,3,3,0.96,7512,0,89,40,25,991,400.0,591,467,60,124.0,106,1,265,156,44,0,0,624,17144,6512,400,414.87,,,,,,,,,,,,
18144,1563729971435,6,2.38,0.34,0.31,0.58,0.53,1.01,-0.2,0.2,5,3,1,1.03,7476,0,89,40,25,979,391.0,585,464,60,124.0,106,1,264,156,44,0,0,700,505,28696,390,414.87,45.748047,4.906581,41.01,189.3,0,0.0,-1,0.0,0.0,0,0.18,0.3024
18164,1563729971455,5,2.38,0.34,0.31,0.58,0.53,1.01,-0.24,0.17,6,4,3,1.04,7381,0,89,40,25,969,395.0,595,467,60,121.0,111,1,263,156,44,0,0,284,-1562,6384,395,414.87,,,,,,,,,,,,
18184,1563729971475,6,2.38,0.33,0.31,0.58,0.54,0.87,-0.24,0.07,6,4,2,0.9,7344,0,89,40,25,953,395.0,581,466,60,123.0,111,1,263,156,44,0,0,92,-3866,28696,395,414.87,,,,,,,,,,,,
18204,1563729971492,3,2.38,0.34,0.32,0.59,0.53,0.75,-0.18,-0.05,7,4,3,0.78,7290,0,89,40,25,936,392.0,582,467,60,122.0,111,1,262,157,44,0,0,605,-18948,28696,392,414.87,,,,,,,,,,,,
18224,1563729971512,4,2.38,0.34,0.31,0.6,0.53,0.69,-0.18,-0.07,7,3,3,0.72,7233,0,89,40,26,924,386.0,570,466,60,123.0,111,1,266,157,44,0,0,605,8200,-31744,386,882.05,,,,,,,,,,,,
18244,1563729971532,3,2.38,0.34,0.32,0.6,0.54,0.78,-0.16,0.05,6,-1,2,0.8,7205,0,89,40,26,919,384.0,566,466,60,123.0,111,1,266,157,44,0,0,1528,770,-1562,384,882.05,45.748035,4.906581,39.44,189.4,0,0.0,-1,0.0,0.0,0,0.18,0.3041
18264,1563729971552,6,2.39,0.35,0.32,0.6,0.54,0.87,-0.12,0.15,6,-3,3,0.88,7126,0,89,40,26,910,381.0,559,465,60,124.0,109,1,265,157,42,0,0,174,1,-6475,381,648.46,,,,,,,,,,,,
18284,1563729971572,2,2.4,0.35,0.32,0.59,0.55,0.77,-0.17,0.14,7,-4,2,0.79,7094,0,89,40,27,897,379.0,557,464,60,122.0,109,1,268,158,42,0,0,113,486,3,379,414.87,,,,,,,,,,,,
18304,1563729971592,3,2.39,0.36,0.33,0.6,0.55,0.74,-0.1,0.12,7,-1,5,0.74,7011,0,89,40,27,887,376.0,553,470,60,122.0,109,1,268,158,42,0,0,1049,-6656,-6524,376,882.05,,,,,,,,,,,,
18324,1563729971612,5,2.39,0.35,0.33,0.6,0.55,0.76,-0.1,0.24,7,-2,4,0.77,6975,0,89,40,27,879,377.0,544,462,60,123.0,109,1,269,158,42,0,0,1049,230,-18948,377,648.46,,,,,,,,,,,,
18344,1563729971632,3,2.39,0.36,0.33,0.62,0.56,0.82,-0.11,0.24,8,0,5,0.83,6923,0,89,40,27,872,372.0,543,467,60,123.0,109,1,269,160,42,0,0,55,2790,8200,372,414.87,45.748028,4.90658,37.9,189.5,0,0.0,-1,0.0,0.0,0,0.18,0.3057
18364,1563729971652,1,2.38,0.37,0.34,0.62,0.57,0.76,-0.04,0.21,8,0,5,0.76,6911,0,89,40,28,866,370.0,539,468,60,123.0,110,1,273,160,41,0,0,386,-6458,257,369,882.05,,,,,,,,,,,,
18384,1563729971672,3,2.39,0.38,0.35,0.64,0.58,0.84,-0.01,0.27,7,0,7,0.84,6863,0,89,40,28,862,369.0,539,466,60,124.0,110,1,274,160,41,0,0,462,-6640,486,369,414.87,,,,,,,,,,,,
18404,1563729971691,2,2.37,0.39,0.35,0.65,0.59,0.82,0.01,0.23,7,1,8,0.82,6835,0,89,40,29,864,366.0,537,465,60,123.0,110,1,278,161,41,0,0,190,3302,-6405,366,882.05,,,,,,,,,,,,
18424,1563729971711,3,2.39,0.39,0.36,0.66,0.6,0.91,-0.05,0.38,7,-2,8,0.91,6803,0,89,40,29,866,364.0,539,466,60,124.0,110,1,278,161,41,0,0,759,3183,-14707,364,648.46,,,,,,,,,,,,
18444,1563729971731,1,2.38,0.4,0.36,0.65,0.6,0.96,-0.08,0.32,8,1,8,0.96,6739,0,89,40,29,870,361.0,541,467,60,121.0,110,1,278,161,41,0,0,180,28553,0,361,882.05,45.748016,4.90658,36.49,189.5,0,0.0,-1,0.0,0.0,0,0.18,0.3074
18464,1563729971751,2,2.39,0.39,0.36,0.65,0.59,0.91,-0.19,0.42,7,-0,8,0.93,6691,0,89,40,29,874,359.0,533,462,60,124.0,111,1,278,161,40,0,0,94,2811,-6458,360,648.46,,,,,,,,,,,,
18484,1563729971771,-1,2.39,0.39,0.36,0.64,0.59,0.86,-0.12,0.28,8,3,8,0.87,6653,0,89,40,30,876,358.0,533,468,60,123.0,111,1,282,163,40,0,0,926,-1246,-14707,358,882.05,,,,,,,,,,,,
18504,1563729971791,1,2.39,0.39,0.36,0.64,0.59,0.98,-0.11,0.31,7,1,9,0.98,6623,0,89,40,30,880,357.0,530,469,60,125.0,111,1,282,163,40,0,0,581,-30438,-29978,357,414.87,,,,,,,,,,,,
18524,1563729971811,3,2.38,0.39,0.36,0.65,0.59,0.98,-0.14,0.31,8,1,9,0.99,6613,0,89,40,31,885,353.0,530,465,60,123.0,111,1,286,163,40,0,0,453,-10554,2060,353,882.05,,,,,,,,,,,,
18544,1563729971831,0,2.38,0.39,0.35,0.66,0.59,1.01,-0.11,0.19,8,3,9,1.01,6562,0,89,40,31,889,353.0,530,462,60,123.0,111,1,286,164,40,0,0,113,-122,2060,351,414.87,45.748009,4.906579,35.36,189.7,0,0.0,-1,0.0,0.0,0,0.19,0.3091
18564,1563729971851,0,2.39,0.39,0.36,0.65,0.6,0.96,-0.13,0.29,7,1,9,0.97,6567,0,89,40,31,892,349.0,525,461,60,123.0,113,1,286,164,40,0,0,1041,-31222,2060,349,648.46,,,,,,,,,,,,
18584,1563729971871,2,2.39,0.39,0.36,0.66,0.6,0.97,-0.16,0.29,7,2,9,0.98,6535,0,89,40,31,893,347.0,529,468,60,123.0,113,1,286,164,40,0,0,366,2560,2811,347,882.05,,,,,,,,,,,,
18604,1563729971895,0,2.38,0.4,0.37,0.67,0.6,1.01,-0.17,0.34,7,-1,9,1.03,6526,0,89,40,32,897,347.0,525,470,60,121.0,113,1,290,166,40,0,0,105,13,-30454,346,414.87,,,,,,,,,,,,
18624,1563729971915,1,2.39,0.4,0.37,0.66,0.61,0.96,-0.22,0.41,6,-2,9,0.99,6499,0,89,40,32,901,345.0,518,466,60,124.0,113,1,290,166,40,0,0,105,3346,-30454,345,648.46,,,,,,,,,,,,
18644,1563729971935,3,2.38,0.4,0.37,0.66,0.61,0.9,-0.21,0.39,6,-1,8,0.92,6401,0,89,40,32,902,343.0,518,469,60,123.0,113,1,290,166,40,0,0,55,-32559,-10554,343,882.05,45.748001,4.906578,34.27,189.8,0,0.0,-1,0.0,0.0,0,0.19,0.3107
18664,1563729971955,-1,2.38,0.41,0.37,0.67,0.6,1.01,-0.16,0.35,7,1,8,1.03,6368,0,89,40,32,905,343.0,517,466,60,123.0,116,1,290,166,40,0,0,277,-32559,8841,341,414.87,,,,,,,,,,,,
18684,1563729971975,-1,2.37,0.4,0.37,0.66,0.6,1.03,-0.19,0.42,6,1,8,1.05,6321,0,89,40,33,909,340.0,510,466,60,125.0,116,1,292,171,40,0,0,998,-20736,-14714,340,414.87,,,,,,,,,,,,
18704,1563729971995,1,2.37,0.4,0.37,0.67,0.61,0.95,-0.25,0.52,6,-0,8,0.99,6279,0,89,40,33,913,338.0,505,468,60,123.0,116,1,292,171,40,0,0,524,170,-14714,338,648.46,,,,,,,,,,,,
18724,1563729972007,1,2.36,0.4,0.37,0.67,0.61,0.81,-0.21,0.56,6,2,9,0.84,6268,0,89,40,33,914,337.0,507,467,60,123.0,116,1,292,171,40,0,0,5009,-22016,3327,337,882.05,,,,,,,,,,,,
18744,1563729972027,3,2.36,0.41,0.37,0.68,0.61,0.84,-0.22,0.55,7,4,9,0.87,6273,0,89,40,34,915,335.0,507,470,60,121.0,116,1,295,171,40,0,0,266,165,-122,335,1115.64,45.74799,4.906577,33.64,190.0,0,0.0,-1,0.0,0.0,0,0.19,0.3124
18764,1563729972047,0,2.36,0.41,0.37,0.68,0.61,0.96,-0.21,0.5,7,5,9,0.98,6273,0,89,40,34,916,334.0,507,468,60,122.0,122,1,295,176,41,0,0,559,-24576,2560,332,414.87,,,,,,,,,,,,
18784,1563729972067,-0,2.35,0.4,0.37,0.67,0.62,1.03,-0.18,0.48,6,4,10,1.04,6237,0,89,40,34,917,330.0,508,466,60,124.0,122,1,295,176,41,0,0,138,155,-31222,330,414.87,,,,,,,,,,,,
18804,1563729972095,-0,2.36,0.4,0.37,0.67,0.61,1.07,-0.18,0.48,5,1,10,1.08,6208,0,89,40,34,915,330.0,505,464,60,124.0,122,1,295,176,41,0,0,521,155,-12032,327,414.87,,,,,,,,,,,,
18824,1563729972115,-1,2.36,0.41,0.37,0.66,0.61,1.08,-0.17,0.46,4,-2,11,1.09,6145,0,89,40,34,913,326.0,503,471,60,124.0,122,1,295,176,41,0,0,132,-25856,4838,326,648.46,,,,,,,,,,,,
18844,1563729972135,0,2.35,0.41,0.37,0.66,0.6,1.03,-0.15,0.5,4,-4,10,1.04,6103,0,89,40,35,911,327.0,496,468,60,124.0,122,1,298,182,41,0,0,556,150,-12032,326,648.46,45.747982,4.906575,33.14,190.1,0,0.0,-1,0.0,0.0,0,0.19,0.3141
18864,1563729972155,1,2.36,0.4,0.37,0.66,0.61,0.97,-0.15,0.49,4,-5,9,0.98,6052,0,89,40,35,909,326.0,493,466,60,124.0,128,1,298,182,42,0,0,277,145,175,326,648.46,,,,,,,,,,,,
18884,1563729972175,-0,2.35,0.4,0.37,0.66,0.6,0.89,-0.16,0.48,5,-6,9,0.9,6009,0,89,40,35,908,323.0,489,467,60,123.0,128,1,298,182,42,0,0,128,-29696,-20736,323,648.46,,,,,,,,,,,,
18904,1563729972196,-0,2.35,0.41,0.37,0.66,0.6,0.85,-0.15,0.49,5,-8,8,0.86,6000,0,89,40,36,907,321.0,485,467,60,123.0,128,1,301,182,42,0,0,522,-30976,-24576,321,648.46,,,,,,,,,,,,
18924,1563729972216,-0,2.36,0.41,0.37,0.67,0.61,0.8,-0.15,0.53,5,-9,9,0.81,6017,0,89,40,36,906,319.0,483,466,60,124.0,128,1,301,187,42,0,0,260,-32256,-25856,317,648.46,,,,,,,,,,,,
18944,1563729972236,-1,2.35,0.41,0.38,0.67,0.62,0.76,-0.13,0.52,5,-10,8,0.77,5965,0,89,40,36,906,316.0,482,467,60,123.0,128,1,298,186,42,0,0,260,32000,-27136,316,648.46,45.747974,4.906574,31.9,190.3,0,0.0,-1,0.0,0.0,0,0.19,0.3157
18964,1563729972256,1,2.34,0.41,0.38,0.68,0.62,0.74,-0.08,0.44,4,-11,8,0.75,5946,0,89,40,37,906,315.0,476,465,60,124.0,132,1,300,186,42,0,0,5135,30720,-28416,314,648.46,,,,,,,,,,,,
18984,1563729972276,-0,2.33,0.41,0.38,0.68,0.61,0.79,-0.03,0.43,4,-12,9,0.79,5896,0,89,40,37,906,311.0,474,469,60,124.0,132,1,297,192,42,0,0,127,29440,-28416,311,414.87,,,,,,,,,,,,
19004,1563729972295,-0,2.34,0.42,0.38,0.68,0.62,0.87,0.02,0.4,3,-12,9,0.87,5828,0,89,40,37,906,310.0,471,466,60,124.0,132,1,293,192,42,0,0,128,29440,140,310,414.87,,,,,,,,,,,,
19024,1563729972315,4,2.33,0.42,0.38,0.68,0.62,0.97,0.05,0.36,3,-10,9,0.97,5718,0,89,40,38,905,309.0,465,463,60,124.0,132,1,290,197,42,0,0,84,115,-27136,309,414.87,,,,,,,,,,,,
19044,1563729972335,2,2.33,0.4,0.37,0.67,0.62,0.88,0.05,0.33,3,-7,8,0.88,5597,0,89,40,39,904,310.0,458,467,60,121.0,132,1,285,202,42,0,0,244,110,-28416,310,1115.64,45.747967,4.906572,31.55,190.4,0,0.0,-1,0.0,0.0,0,0.19,0.3174
19064,1563729972355,2,2.32,0.41,0.37,0.67,0.62,0.73,0.04,0.38,4,-6,9,0.73,5474,0,89,40,40,902,308.0,451,467,60,123.0,135,1,282,202,42,0,0,244,28160,-30976,308,648.46,,,,,,,,,,,,
19084,1563729972375,3,2.31,0.4,0.37,0.67,0.62,0.84,0.05,0.39,3,-5,8,0.84,5328,0,89,40,41,900,305.0,450,461,60,122.0,135,1,276,203,42,0,0,244,26880,125,305,414.87,,,,,,,,,,,,
19104,1563729972395,2,2.32,0.41,0.38,0.68,0.61,0.75,0.0,0.41,4,-2,8,0.75,5243,0,89,40,43,899,304.0,438,473,60,123.0,135,1,277,205,42,0,0,9221,95,-30976,304,648.46,,,,,,,,,,,,
19124,1563729972415,2,2.32,0.4,0.38,0.68,0.62,0.87,0.02,0.49,3,-6,7,0.87,5159,0,89,40,43,898,301.0,426,463,60,123.0,135,1,271,208,42,0,0,9221,100,30720,301,414.87,,,,,,,,,,,,
19144,1563729972435,6,2.31,0.41,0.38,0.69,0.62,0.83,0.05,0.43,3,-5,7,0.83,5037,0,89,41,45,897,299.0,418,471,60,124.0,135,1,267,208,42,0,0,9221,90,115,299,414.87,45.747955,4.906571,30.94,190.7,0,0.0,-1,0.0,0.0,0,0.19,0.3191
19164,1563729972455,2,2.32,0.4,0.38,0.68,0.63,0.79,-0.02,0.54,3,-5,6,0.79,4926,0,89,41,46,897,298.0,413,468,60,122.0,130,1,253,210,39,0,0,9221,23040,28160,298,882.05,,,,,,,,,,,,
19184,1563729972475,1,2.32,0.4,0.38,0.69,0.62,0.83,-0.08,0.59,2,-6,4,0.84,4758,0,89,41,47,898,297.0,396,469,60,123.0,130,1,244,209,39,0,0,9221,21760,28160,297,882.05,,,,,,,,,,,,
19204,1563729972493,2,2.31,0.41,0.38,0.68,0.62,0.87,-0.04,0.49,2,-7,4,0.87,4654,0,89,41,47,899,296.0,396,465,60,122.0,130,1,233,207,39,0,0,9221,21760,105,296,414.87,,,,,,,,,,,,
19224,1563729972513,2,2.32,0.41,0.38,0.69,0.62,0.92,0.01,0.44,2,-10,5,0.92,4594,0,89,41,47,900,294.0,377,469,60,124.0,130,1,227,208,39,0,0,294,80,26880,294,414.87,,,,,,,,,,,,
19244,1563729972533,2,2.32,0.4,0.38,0.69,0.63,0.93,0.05,0.34,2,-11,6,0.93,4533,0,89,41,48,897,293.0,374,470,60,122.0,130,1,222,207,39,0,0,295,80,26880,293,414.87,45.747948,4.90657,30.42,190.7,0,0.0,-1,0.0,0.0,0,0.19,0.3207
19264,1563729972553,2,2.31,0.41,0.38,0.7,0.62,0.97,0.07,0.32,2,-11,7,0.98,4455,0,89,41,48,887,292.0,361,471,60,123.0,119,1,214,210,35,0,0,288,0,95,292,414.87,,,,,,,,,,,,
19284,1563729972573,0,2.32,0.4,0.38,0.69,0.63,1.0,0.1,0.32,2,-12,8,1.01,4368,0,89,41,49,877,290.0,359,464,60,123.0,119,1,207,208,35,0,0,288,0,24320,291,414.87,,,,,,,,,,,,
19304,1563729972591,2,2.32,0.4,0.37,0.68,0.62,1.01,0.07,0.38,2,-12,7,1.02,4292,0,89,41,49,866,289.0,349,470,60,122.0,119,1,198,132,35,0,0,288,41,24320,289,-5.59,,,,,,,,,,,,
19324,1563729972611,4,2.3,0.4,0.37,0.68,0.61,0.98,0.06,0.37,2,-9,7,0.98,4255,0,89,41,50,857,288.0,343,467,60,122.0,119,1,192,210,35,0,0,288,10686,90,286,882.05,,,,,,,,,,,,
19344,1563729972631,2,2.31,0.4,0.37,0.68,0.61,0.95,0.04,0.33,2,-5,5,0.95,4210,0,89,41,50,852,286.0,336,466,60,124.0,119,1,191,210,35,0,0,288,-1529,80,286,414.87,45.747944,4.906568,29.72,190.8,0,0.0,-1,0.0,0.0,0,0.19,0.3224
19364,1563729972651,1,2.31,0.39,0.37,0.67,0.61,0.97,0.05,0.34,2,-5,6,0.98,4116,0,89,41,50,850,286.0,331,464,60,125.0,111,1,180,208,32,0,0,288,1886,0,283,414.87,,,,,,,,,,,,
19384,1563729972671,2,2.31,0.4,0.36,0.68,0.61,0.97,0.04,0.36,1,-6,6,0.97,4080,0,89,41,51,856,283.0,333,468,60,121.0,111,1,177,211,32,0,0,288,1886,0,284,414.87,,,,,,,,,,,,
19404,1563729972692,2,2.32,0.39,0.36,0.67,0.6,0.94,0.01,0.34,1,-3,5,0.94,4087,0,89,41,51,864,282.0,324,465,60,123.0,111,1,175,211,32,0,0,282,24064,41,282,882.05,,,,,,,,,,,,
19424,1563729972712,2,2.31,0.39,0.36,0.68,0.6,0.92,0.04,0.31,1,-1,5,0.92,4003,0,89,41,52,873,281.0,324,467,60,124.0,111,1,168,215,32,0,0,284,250,10686,280,414.87,,,,,,,,,,,,
19444,1563729972732,1,2.31,0.4,0.36,0.68,0.61,0.95,0.05,0.34,1,-1,5,0.95,4006,0,89,41,52,883,280.0,322,471,60,121.0,111,1,168,215,32,0,0,283,-1534,10686,280,414.87,45.747936,4.906567,28.73,191.0,0,0.0,-1,0.0,0.0,0,0.19,0.3241
19464,1563729972752,2,2.32,0.39,0.37,0.67,0.6,0.94,0.03,0.33,1,2,5,0.94,4000,0,89,41,52,886,279.0,317,466,60,124.0,114,1,168,215,32,0,0,282,630,-1529,279,882.05,,,,,,,,,,,,
19484,1563729972772,1,2.32,0.39,0.36,0.66,0.6,0.95,0.03,0.35,1,0,4,0.95,3924,0,89,41,52,889,277.0,314,468,60,124.0,114,1,164,213,32,0,0,284,250,250,275,414.87,,,,,,,,,,,,
19504,1563729972792,5,2.32,0.38,0.36,0.66,0.59,0.95,0.02,0.38,1,0,4,0.95,3911,0,89,41,53,893,275.0,314,463,60,122.0,114,1,165,217,32,0,0,281,-1527,1886,274,414.87,,,,,,,,,,,,
19524,1563729972812,2,2.31,0.39,0.36,0.66,0.59,0.92,0.02,0.37,1,3,4,0.92,3908,0,89,41,53,897,273.0,308,465,60,124.0,114,1,165,217,32,0,0,1513,-1281,-1534,273,414.87,,,,,,,,,,,,
19544,1563729972832,3,2.31,0.38,0.36,0.67,0.59,0.97,0.04,0.44,1,0,4,0.97,3849,0,89,41,53,896,271.0,311,463,60,124.0,114,1,162,215,32,0,0,101,-1281,30208,270,414.87,45.747929,4.906568,28.57,191.5,0,0.0,-1,0.0,0.0,0,0.19,0.3257
19564,1563729972852,3,2.31,0.38,0.36,0.66,0.59,0.96,0.05,0.41,1,2,3,0.96,3846,0,89,41,54,897,270.0,307,471,60,123.0,114,1,164,220,31,0,0,270,-1,2414,270,648.46,,,,,,,,,,,,
19584,1563729972872,3,2.31,0.39,0.36,0.66,0.6,0.97,0.06,0.42,1,-0,3,0.97,3834,0,89,41,54,899,268.0,310,462,60,123.0,114,1,163,220,31,0,0,274,-1,2414,268,414.87,,,,,,,,,,,,
19604,1563729972894,3,2.31,0.39,0.36,0.65,0.59,0.96,0.07,0.34,1,2,3,0.96,3770,0,89,41,54,902,267.0,308,470,60,122.0,114,1,160,219,31,0,0,272,-1,2414,267,882.05,,,,,,,,,,,,
19624,1563729972914,2,2.32,0.38,0.35,0.65,0.6,0.97,0.09,0.32,1,-0,3,0.98,3763,0,89,41,54,905,265.0,303,461,60,123.0,114,1,160,219,31,0,0,268,-1,28160,265,414.87,,,,,,,,,,,,
19644,1563729972934,4,2.31,0.38,0.35,0.66,0.59,0.94,0.07,0.27,1,1,3,0.95,3756,0,89,41,55,908,263.0,304,470,60,122.0,114,1,160,223,31,0,0,268,-1,-1,262,882.05,45.747921,4.906568,27.81,191.8,0,0.0,-1,0.0,0.0,0,0.2,0.3274
19664,1563729972954,4,2.31,0.38,0.35,0.65,0.59,0.95,0.09,0.31,2,-1,3,0.95,3720,0,89,41,55,916,262.0,300,460,60,124.0,117,1,158,222,31,0,0,266,-1,-1281,261,414.87,,,,,,,,,,,,
19684,1563729972974,5,2.31,0.37,0.34,0.65,0.58,0.91,0.08,0.27,2,2,2,0.92,3667,0,89,41,56,925,259.0,296,471,60,124.0,117,1,156,225,31,0,0,282,-10440,-1,259,882.05,,,,,,,,,,,,
19704,1563729972994,6,2.32,0.37,0.35,0.65,0.59,0.94,0.06,0.39,2,-1,3,0.94,3670,0,89,41,56,932,256.0,297,462,60,115.0,117,1,156,225,31,0,0,282,506,-1,255,414.87,,,,,,,,,,,,
19724,1563729973010,4,2.31,0.38,0.35,0.65,0.59,0.92,0.04,0.33,2,2,2,0.92,3654,0,89,41,57,938,255.0,293,469,60,116.0,117,1,156,229,31,0,0,282,-1,-41,255,414.87,,,,,,,,,,,,
19744,1563729973030,5,2.32,0.38,0.36,0.66,0.6,0.95,0.04,0.37,2,1,3,0.95,3572,0,89,41,57,942,254.0,296,463,60,115.0,117,1,152,227,31,0,0,282,-1,-1,254,414.87,45.74791,4.906567,27.01,192.1,0,0.0,-1,0.0,0.0,0,0.2,0.3291
19764,1563729973050,3,2.32,0.38,0.35,0.65,0.6,0.97,0.08,0.34,2,-1,2,0.97,3535,0,89,41,58,946,251.0,286,468,60,116.0,118,1,151,230,30,0,0,29,10818,14337,251,414.87,,,,,,,,,,,,
19784,1563729973070,4,2.31,0.38,0.35,0.65,0.58,0.95,0.08,0.27,2,1,2,0.95,3522,0,89,41,59,946,249.0,287,466,60,115.0,118,1,150,234,30,0,0,251,-1494,-1,249,648.46,,,,,,,,,,,,
19804,1563729973096,5,2.32,0.38,0.35,0.65,0.59,0.93,0.08,0.32,1,-0,2,0.93,3463,0,89,41,59,945,247.0,286,460,60,114.0,118,1,150,234,30,0,0,247,-1445,10818,247,414.87,,,,,,,,,,,,
19824,1563729973116,7,2.32,0.38,0.35,0.66,0.6,0.96,0.06,0.33,1,-3,2,0.97,3427,0,89,41,60,942,244.0,281,471,60,117.0,118,1,150,238,30,0,0,249,-17920,10818,245,414.87,,,,,,,,,,,,
19844,1563729973136,5,2.32,0.38,0.35,0.65,0.59,0.95,0.09,0.21,1,-1,2,0.96,3421,0,90,41,61,939,243.0,276,463,60,117.0,118,1,0,243,30,0,0,246,-1484,10812,243,414.87,45.74791,4.906566,26.38,192.0,0,0.0,-1,0.0,0.0,0,0.2,0.3307
19864,1563729973156,4,2.31,0.38,0.35,0.65,0.59,0.92,0.06,0.23,1,2,2,0.92,3339,0,89,41,61,937,238.0,275,457,60,117.0,129,1,0,243,31,0,0,243,250,250,238,414.87,,,,,,,,,,,,
19884,1563729973176,4,2.32,0.39,0.36,0.66,0.6,0.89,0.05,0.31,1,4,3,0.89,3188,0,89,41,62,935,238.0,272,465,60,116.0,129,1,0,245,31,0,0,242,250,-1445,238,882.05,,,,,,,,,,,,
19904,1563729973196,4,2.31,0.38,0.36,0.66,0.6,0.87,0.05,0.39,1,2,2,0.87,3106,0,89,41,63,935,238.0,268,463,60,116.0,129,1,158,248,31,0,0,240,-1483,-17920,238,414.87,,,,,,,,,,,,
19924,1563729973216,3,2.31,0.38,0.35,0.66,0.59,0.88,0.04,0.43,2,-2,3,0.88,3023,0,89,41,64,936,235.0,265,468,60,116.0,129,1,162,250,31,0,0,240,-1494,-25600,235,414.87,,,,,,,,,,,,
19944,1563729973236,4,2.31,0.38,0.34,0.66,0.59,0.87,0.03,0.52,1,-5,3,0.87,2950,0,89,41,64,937,233.0,256,465,60,116.0,129,1,162,250,31,0,0,237,10824,-1483,232,414.87,45.747902,4.906564,25.05,192.1,0,0.0,-1,0.0,0.0,0,0.2,0.3324
19964,1563729973256,4,2.31,0.37,0.35,0.65,0.59,0.83,0.03,0.54,1,-6,3,0.83,2867,0,89,41,65,939,229.0,255,467,60,117.0,116,1,0,253,27,0,0,234,10318,-25600,229,882.05,,,,,,,,,,,,
19984,1563729973276,3,2.31,0.38,0.35,0.65,0.59,0.81,0.03,0.58,1,-6,3,0.81,2796,0,89,41,66,940,227.0,247,462,60,118.0,116,1,165,256,27,0,0,234,19968,8704,227,882.05,,,,,,,,,,,,
20004,1563729973296,6,2.3,0.38,0.35,0.65,0.59,0.79,0.04,0.61,1,-3,3,0.79,2752,0,90,41,67,942,223.0,240,466,60,118.0,116,1,0,259,27,0,0,229,1596,18432,223,414.87,,,,,,,,,,,,
20024,1563729973316,5,2.3,0.38,0.35,0.65,0.59,0.84,0.04,0.58,1,-2,2,0.84,2653,0,89,41,68,943,222.0,236,466,60,119.0,116,1,166,262,27,0,0,227,250,-1496,221,414.87,,,,,,,,,,,,
20044,1563729973336,5,2.3,0.38,0.34,0.65,0.59,0.85,0.03,0.53,1,-3,3,0.85,2540,0,89,41,69,943,220.0,234,468,60,119.0,116,1,0,261,27,0,0,225,1210,-1530,220,414.87,45.747894,4.906562,23.81,192.3,0,0.0,-1,0.0,0.0,0,0.2,0.3341
20064,1563729973356,7,2.3,0.38,0.35,0.66,0.59,0.84,0.02,0.53,1,-2,2,0.84,2486,0,90,41,70,946,217.0,228,467,60,120.0,110,1,155,259,24,0,0,222,250,250,217,414.87,,,,,,,,,,,,
20084,1563729973376,4,2.3,0.37,0.35,0.65,0.58,0.88,0.04,0.51,1,-3,2,0.88,2398,0,90,41,72,951,216.0,223,470,60,120.0,110,1,150,258,24,0,0,221,16384,15360,216,414.87,,,,,,,,,,,,
20104,1563729973396,7,2.31,0.38,0.34,0.65,0.58,0.87,0.02,0.44,1,-1,3,0.87,2324,0,89,41,73,957,215.0,221,466,60,119.0,110,1,148,255,24,0,0,219,16384,-1532,215,882.05,,,,,,,,,,,,
20124,1563729973416,4,2.3,0.38,0.35,0.65,0.59,0.92,0.04,0.46,1,-1,2,0.92,2281,0,89,41,74,962,212.0,213,466,60,120.0,110,1,145,253,24,0,0,216,-1533,250,212,414.87,,,,,,,,,,,,
20144,1563729973436,5,2.31,0.38,0.35,0.66,0.59,0.91,0.02,0.45,1,0,4,0.91,2163,0,89,41,75,969,212.0,215,466,60,119.0,110,1,0,252,24,0,0,214,250,250,212,882.05,45.747887,4.906561,23.02,192.6,0,0.0,-1,0.0,0.0,0,0.2,0.3357
20164,1563729973456,4,2.3,0.38,0.35,0.65,0.59,0.94,0.03,0.44,1,-1,2,0.94,2078,0,89,41,76,979,208.0,209,469,60,119.0,95,1,0,250,20,0,0,213,250,250,208,414.87,,,,,,,,,,,,
20184,1563729973476,4,2.3,0.38,0.35,0.65,0.6,0.95,0.03,0.46,1,-1,2,0.95,1991,0,90,41,78,988,205.0,201,465,60,120.0,95,1,138,252,20,0,0,209,-29696,-14848,204,181.28,,,,,,,,,,,,
20204,1563729973494,4,2.3,0.38,0.35,0.66,0.59,0.95,0.02,0.48,0,-1,1,0.95,1906,0,90,41,79,993,204.0,198,468,60,120.0,95,1,136,254,20,0,0,208,250,-14848,203,414.87,,,,,,,,,,,,
20224,1563729973514,3,2.29,0.38,0.35,0.65,0.59,0.94,0.02,0.54,0,-2,1,0.95,1788,0,89,41,80,998,201.0,198,463,60,119.0,95,1,135,255,20,0,0,205,12800,13964,201,882.05,,,,,,,,,,,,
20244,1563729973534,6,2.3,0.38,0.35,0.66,0.59,0.95,-0.0,0.54,0,-1,1,0.95,1731,0,89,41,81,1002,200.0,192,471,60,121.0,95,1,133,257,20,0,0,204,250,250,198,414.87,45.747883,4.906559,21.91,192.7,0,0.0,-1,0.0,0.0,0,0.2,0.3374
20264,1563729973554,6,2.3,0.38,0.35,0.65,0.6,0.96,0.0,0.54,-0,-1,1,0.96,1680,0,89,41,83,1005,198.0,188,468,60,120.0,85,1,130,258,17,0,0,203,14412,250,197,414.87,,,,,,,,,,,,
20284,1563729973574,6,2.3,0.38,0.35,0.65,0.6,0.95,0.01,0.49,-0,-0,2,0.95,1599,0,90,41,84,1005,197.0,182,465,60,121.0,85,1,130,261,17,0,0,201,19456,-1480,196,181.28,,,,,,,,,,,,
20304,1563729973594,5,2.3,0.37,0.35,0.65,0.58,0.95,0.02,0.43,0,-0,1,0.95,1471,0,90,41,85,1004,194.0,180,471,60,120.0,85,1,0,262,17,0,0,198,14326,14412,192,414.87,,,,,,,,,,,,
20324,1563729973614,4,2.29,0.38,0.35,0.64,0.59,0.94,0.01,0.42,0,0,1,0.94,1347,0,89,41,85,1000,193.0,178,470,60,120.0,85,1,117,262,17,0,0,196,-2560,250,193,414.87,,,,,,,,,,,,
20344,1563729973634,3,2.29,0.38,0.35,0.65,0.58,0.94,0.02,0.41,0,1,1,0.94,1214,0,89,41,87,996,190.0,173,462,60,119.0,85,1,0,264,17,0,0,195,-1,-1481,190,882.05,45.747875,4.906558,20.53,193.0,0,0.0,-1,0.0,0.0,0,0.2,0.3391
20364,1563729973654,3,2.28,0.38,0.34,0.65,0.59,0.94,0.01,0.43,0,1,1,0.94,1214,0,90,41,89,992,190.0,167,466,60,120.0,63,1,107,266,12,0,0,194,-1,-1281,190,181.28,,,,,,,,,,,,
20384,1563729973674,3,2.29,0.38,0.35,0.66,0.59,0.94,0.02,0.45,0,1,1,0.94,1085,0,90,41,91,989,186.0,161,467,60,120.0,63,1,109,267,12,0,0,192,-1,250,186,414.87,,,,,,,,,,,,
20404,1563729973693,4,2.29,0.38,0.35,0.65,0.59,0.94,0.02,0.49,0,-0,1,0.94,999,0,89,41,90,984,185.0,162,465,60,118.0,63,1,46,267,12,0,0,189,-1,-1,185,882.05,,,,,,,,,,,,
20424,1563729973713,2,2.3,0.38,0.35,0.65,0.6,0.94,0.01,0.5,-0,-1,1,0.94,999,0,90,41,93,978,183.0,156,467,60,120.0,63,1,48,288,12,0,0,188,-1,-1,182,414.87,,,,,,,,,,,,
20444,1563729973733,3,2.29,0.39,0.35,0.66,0.59,0.93,0.02,0.51,-0,-1,1,0.93,968,0,90,41,93,975,181.0,153,464,60,120.0,63,1,63,288,12,0,0,187,-1,-1,180,414.87,45.747871,4.906556,19.8,193.0,0,0.0,-1,0.0,0.0,0,0.2,0.3407
20464,1563729973753,3,2.29,0.39,0.35,0.66,0.59,0.92,0.03,0.52,-0,-1,1,0.92,918,0,90,41,92,973,181.0,153,465,60,120.0,55,1,117,280,10,0,0,184,-1,-1,180,414.87,,,,,,,,,,,,
20484,1563729973773,3,2.29,0.39,0.35,0.66,0.59,0.92,0.04,0.51,-0,-0,2,0.92,918,0,90,41,95,969,180.0,151,462,60,119.0,55,1,88,301,10,0,0,183,-1,-1,178,414.87,,,,,,,,,,,,
20504,1563729973792,3,2.3,0.39,0.35,0.66,0.59,0.91,0.05,0.48,-0,1,1,0.91,776,0,90,41,93,965,178.0,151,461,60,117.0,55,1,122,288,10,0,0,181,3584,-1,178,882.05,,,,,,,,,,,,
20524,1563729973812,3,2.29,0.38,0.35,0.65,0.59,0.91,0.05,0.47,0,0,1,0.91,776,0,90,41,97,963,176.0,145,466,60,119.0,55,1,129,309,10,0,0,179,-1495,-236,176,414.87,,,,,,,,,,,,
20544,1563729973832,2,2.3,0.38,0.34,0.66,0.59,0.9,0.06,0.47,0,-0,1,0.9,776,0,90,41,97,962,173.0,142,463,60,119.0,55,1,186,323,10,0,0,179,31744,250,173,414.87,45.747868,4.906554,18.74,193.1,0,0.0,-1,0.0,0.0,0,0.2,0.3424
20564,1563729973852,3,2.28,0.38,0.35,0.66,0.59,0.93,0.04,0.5,0,-0,-0,0.93,524,0,89,41,96,961,171.0,146,475,60,116.0,52,1,180,309,9,0,0,176,-1281,250,170,882.05,,,,,,,,,,,,
20584,1563729973872,3,2.29,0.38,0.35,0.66,0.6,0.94,0.02,0.54,-0,0,0,0.94,524,0,90,41,98,960,170.0,139,462,60,119.0,52,1,180,323,9,0,0,175,-1,10620,170,414.87,,,,,,,,,,,,
20604,1563729973895,2,2.29,0.39,0.35,0.67,0.6,0.93,0.03,0.53,-0,-0,0,0.93,524,0,90,42,99,959,169.0,133,467,60,118.0,52,1,180,357,9,0,0,174,-1,31744,168,414.87,,,,,,,,,,,,
20624,1563729973915,2,2.29,0.38,0.35,0.67,0.6,0.91,0.03,0.56,-0,-0,-1,0.91,524,0,90,42,99,959,168.0,128,466,60,119.0,52,1,195,357,9,0,0,171,888,250,168,181.28,,,,,,,,,,,,
20644,1563729973935,1,2.28,0.38,0.35,0.65,0.6,0.92,0.04,0.54,-0,-0,-1,0.92,524,0,90,42,99,959,166.0,128,467,60,118.0,52,1,195,357,9,0,0,171,888,-253,165,414.87,45.747864,4.906552,17.68,193.1,0,0.0,-1,0.0,0.0,0,0.2,0.3441
20664,1563729973955,2,2.28,0.38,0.35,0.66,0.59,0.9,0.03,0.54,-0,1,-0,0.9,524,0,90,42,99,957,164.0,126,464,60,119.0,36,1,195,357,6,0,0,168,-1494,-253,164,414.87,,,,,,,,,,,,
20684,1563729973975,2,2.29,0.38,0.35,0.66,0.59,0.9,0.04,0.52,-0,1,0,0.91,524,0,90,42,99,956,163.0,124,467,60,119.0,36,1,195,357,6,0,0,167,-1494,30720,161,414.87,,,,,,,,,,,,
20704,1563729973995,2,2.28,0.38,0.35,0.65,0.59,0.89,0.04,0.51,0,0,-0,0.89,524,0,90,42,99,956,161.0,123,467,60,119.0,36,1,195,357,6,0,0,166,3072,250,161,414.87,,,,,,,,,,,,
20724,1563729974007,3,2.28,0.38,0.35,0.65,0.6,0.9,0.04,0.51,0,-0,-1,0.9,524,0,90,42,99,955,160.0,123,467,60,118.0,36,1,200,357,6,0,0,164,-1281,-1494,160,414.87,,,,,,,,,,,,
20744,1563729974027,1,2.29,0.38,0.35,0.66,0.6,0.9,0.04,0.52,0,-1,-0,0.9,524,0,90,42,99,953,158.0,123,468,60,118.0,36,1,200,357,6,0,0,163,-1,250,158,414.87,45.74786,4.906552,16.68,193.4,0,0.0,-1,0.0,0.0,0,0.2,0.3457
20764,1563729974047,2,2.28,0.37,0.35,0.66,0.59,0.88,0.03,0.5,0,-1,-1,0.88,524,0,90,42,99,953,156.0,123,466,60,119.0,38,1,200,357,6,0,0,160,-1,-1281,156,414.87,,,,,,,,,,,,
20784,1563729974067,2,2.28,0.38,0.35,0.67,0.59,0.91,0.02,0.54,-0,-1,-0,0.91,524,0,90,42,99,952,155.0,123,468,60,118.0,38,1,200,357,6,0,0,160,-165,-1,154,414.87,,,,,,,,,,,,
20804,1563729974093,2,2.27,0.38,0.35,0.66,0.59,0.92,0.03,0.54,-1,-1,-0,0.92,524,0,90,42,99,951,155.0,123,466,60,119.0,38,1,200,357,6,0,0,158,-165,-1,153,414.87,,,,,,,,,,,,
20824,1563729974113,1,2.28,0.38,0.35,0.66,0.6,0.91,0.03,0.56,-1,-1,-0,0.91,524,0,90,42,99,950,154.0,123,466,60,119.0,38,1,200,357,6,0,0,157,23460,-1,153,414.87,,,,,,,,,,,,
20844,1563729974133,2,2.27,0.38,0.35,0.67,0.59,0.92,0.04,0.57,-1,-2,-1,0.92,524,0,90,42,99,949,153.0,123,466,60,119.0,38,1,200,357,6,0,0,155,-23552,23460,150,414.87,45.747852,4.906551,15.62,193.7,0,0.0,-1,0.0,0.0,0,0.2,0.3474
20864,1563729974153,2,2.27,0.38,0.35,0.66,0.59,0.92,0.04,0.59,-1,-2,-1,0.92,524,0,90,42,99,948,150.0,123,465,60,119.0,40,1,200,357,6,0,0,152,-1,-1281,149,414.87,,,,,,,,,,,,
20884,1563729974173,2,2.28,0.38,0.35,0.66,0.59,0.91,0.05,0.57,-1,-2,-1,0.91,524,0,90,42,99,948,150.0,122,467,60,119.0,40,1,200,357,6,0,0,153,-1,-1,147,414.87,,,,,,,,,,,,
20904,1563729974193,1,2.28,0.38,0.35,0.66,0.6,0.9,0.06,0.55,-0,-1,-2,0.9,524,0,90,42,99,947,147.0,122,465,60,119.0,40,1,200,357,6,0,0,151,-1,-1,146,414.87,,,,,,,,,,,,
20924,1563729974213,1,2.28,0.38,0.35,0.66,0.59,0.91,0.07,0.54,-0,-1,-1,0.92,524,0,90,42,99,947,147.0,122,467,60,119.0,40,1,200,357,6,0,0,150,-1,-1,144,414.87,,,,,,,,,,,,
20944,1563729974233,3,2.28,0.38,0.34,0.66,0.6,0.91,0.06,0.54,-0,-1,-1,0.91,524,0,90,42,99,947,145.0,122,465,60,119.0,40,1,200,357,6,0,0,149,-1,-1,143,414.87,45.747848,4.906549,15.0,193.9,0,0.0,-1,0.0,0.0,0,0.2,0.3491
20964,1563729974253,1,2.27,0.38,0.35,0.66,0.59,0.91,0.05,0.53,-1,-1,-1,0.91,524,0,90,42,99,947,143.0,122,465,60,119.0,41,1,200,357,6,0,0,146,-236,-1,143,414.87,,,,,,,,,,,,
20984,1563729974273,2,2.27,0.39,0.35,0.67,0.6,0.92,0.05,0.54,-1,-1,-1,0.92,0,0,90,42,99,553,0.0,122,467,60,119.0,0,1,0,0,0,0,0,0,250,250,0,414.87,,,,,,,,,,,,
21004,1563729974293,1,2.29,0.39,0.36,0.67,0.6,0.93,0.06,0.53,-1,-1,-1,0.93,0,0,90,42,99,624,140.0,122,462,60,119.0,0,1,0,0,0,0,0,142,250,-236,138,414.87,,,,,,,,,,,,
21024,1563729974313,1,2.28,0.38,0.35,0.67,0.6,0.91,0.07,0.49,-1,-1,-1,0.91,0,0,90,42,99,696,138.0,122,466,60,119.0,0,1,0,0,0,0,0,142,-1,250,136,414.87,,,,,,,,,,,,
21044,1563729974333,2,2.28,0.38,0.35,0.67,0.59,0.91,0.08,0.47,-1,-1,-1,0.92,0,0,90,42,99,767,137.0,123,466,60,119.0,0,1,0,0,0,0,0,139,-1,-1,136,414.87,45.747848,4.906549,14.24,194.1,0,0.0,-1,0.0,0.0,0,0.2,0.3507
21064,1563729974353,2,2.27,0.39,0.35,0.67,0.59,0.91,0.09,0.47,-1,-1,-1,0.91,0,0,90,42,99,838,136.0,123,465,60,119.0,0,1,0,0,0,0,0,138,-1,-1,134,414.87,,,,,,,,,,,,
21084,1563729974373,0,2.28,0.38,0.35,0.67,0.6,0.91,0.09,0.43,-1,-1,-1,0.92,0,0,90,42,99,910,134.0,123,466,60,119.0,0,1,0,0,0,0,0,137,-1,-1,132,414.87,,,,,,,,,,,,
21104,1563729974393,2,2.28,0.38,0.35,0.67,0.59,0.91,0.09,0.42,-1,-1,-1,0.91,0,0,90,42,99,945,132.0,123,463,60,119.0,0,1,0,0,0,0,0,136,-1,-1,132,414.87,,,,,,,,,,,,
21124,1563729974413,2,2.27,0.38,0.35,0.67,0.59,0.91,0.09,0.41,-1,-1,-2,0.91,0,0,90,42,99,946,130.0,123,467,60,119.0,0,1,0,0,0,0,0,134,-1,-1,130,414.87,,,,,,,,,,,,
21144,1563729974433,2,2.27,0.38,0.35,0.67,0.59,0.91,0.08,0.41,-1,-1,-2,0.91,0,0,90,42,99,946,129.0,123,465,60,119.0,0,1,0,0,0,0,0,132,-1,-1,128,414.87,45.747845,4.906548,13.39,194.4,0,0.0,-1,0.0,0.0,0,0.2,0.3524
21164,1563729974453,0,2.29,0.38,0.35,0.66,0.6,0.89,0.09,0.41,-1,-1,-1,0.89,0,0,90,42,99,946,129.0,123,467,60,119.0,0,1,0,0,0,0,0,131,-1,-1,128,414.87,,,,,,,,,,,,
21184,1563729974473,2,2.28,0.38,0.35,0.66,0.59,0.89,0.09,0.42,-1,-0,-1,0.89,0,0,90,42,99,946,128.0,123,465,60,119.0,0,1,0,0,0,0,0,130,13868,-1,126,414.87,,,,,,,,,,,,
21204,1563729974491,1,2.29,0.38,0.34,0.67,0.59,0.89,0.09,0.43,-1,-0,-1,0.89,0,0,90,42,99,946,126.0,123,467,60,119.0,0,1,0,0,0,0,0,129,13868,-202,125,414.87,,,,,,,,,,,,
21224,1563729974511,2,2.29,0.38,0.34,0.66,0.58,0.89,0.1,0.42,-1,-0,-2,0.89,0,0,90,42,99,946,126.0,123,464,60,119.0,0,1,0,0,0,0,0,128,13868,-202,124,414.87,,,,,,,,,,,,
21244,1563729974531,1,2.29,0.38,0.34,0.66,0.58,0.89,0.09,0.43,-1,-1,-2,0.89,0,0,90,42,99,946,124.0,123,468,60,119.0,0,1,0,0,0,0,0,127,250,11264,122,414.87,45.747837,4.906547,12.82,194.6,0,0.0,-1,0.0,0.0,0,0.2,0.3541
21264,1563729974551,1,2.29,0.37,0.33,0.65,0.58,0.88,0.1,0.45,-1,-1,-2,0.89,0,0,90,42,99,946,123.0,122,464,60,118.0,0,1,0,0,0,0,0,125,-1482,-1482,121,414.87,,,,,,,,,,,,
21284,1563729974571,1,2.28,0.37,0.33,0.66,0.57,0.87,0.09,0.45,-1,-1,-2,0.87,0,0,90,42,99,946,122.0,122,466,60,119.0,0,1,0,0,0,0,0,124,13862,250,120,414.87,,,,,,,,,,,,
21304,1563729974591,-1,2.29,0.37,0.33,0.65,0.56,0.86,0.09,0.45,-0,-1,-1,0.87,0,0,90,42,99,945,121.0,122,466,60,119.0,0,1,0,0,0,0,0,123,9728,250,120,414.87,,,,,,,,,,,,
21324,1563729974610,-1,2.3,0.37,0.32,0.65,0.56,0.86,0.09,0.46,-0,-1,-2,0.87,0,0,90,42,99,945,120.0,122,467,60,119.0,0,1,0,0,0,0,0,122,250,9728,119,414.87,,,,,,,,,,,,
21344,1563729974630,-1,2.3,0.36,0.32,0.65,0.56,0.86,0.09,0.46,-0,-1,-1,0.86,0,0,90,42,99,945,119.0,122,467,60,119.0,0,1,0,0,0,0,0,122,-1482,13862,118,414.87,45.747833,4.906547,12.23,194.6,0,0.0,-1,0.0,0.0,0,0.2,0.3557
21364,1563729974650,-2,2.3,0.36,0.33,0.64,0.56,0.86,0.09,0.46,-0,-1,-2,0.86,0,0,90,42,99,944,117.0,122,465,60,119.0,0,1,0,0,0,0,0,120,8192,-1482,117,414.87,,,,,,,,,,,,
21384,1563729974670,0,2.29,0.37,0.32,0.65,0.56,0.85,0.09,0.45,-0,-1,-1,0.85,0,0,90,42,99,944,117.0,122,466,60,119.0,0,1,0,0,0,0,0,119,8192,250,117,414.87,,,,,,,,,,,,
21404,1563729974690,-1,2.3,0.36,0.32,0.64,0.55,0.84,0.08,0.46,-0,-1,-1,0.84,0,0,90,42,99,944,116.0,122,466,60,119.0,0,1,0,0,0,0,0,119,-1482,-1482,116,414.87,,,,,,,,,,,,
21424,1563729974708,-0,2.29,0.36,0.32,0.64,0.55,0.84,0.08,0.47,-0,-1,-1,0.84,0,0,90,42,99,944,115.0,122,467,60,119.0,0,1,0,0,0,0,0,119,-1482,13856,115,414.87,,,,,,,,,,,,
21444,1563729974728,-2,2.29,0.36,0.32,0.64,0.56,0.85,0.08,0.47,-0,-1,-1,0.85,0,0,90,42,99,944,115.0,122,466,60,119.0,0,1,0,0,0,0,0,117,13850,8192,114,414.87,45.747833,4.906546,11.29,194.7,0,0.0,-1,0.0,0.0,0,0.2,0.3574
21464,1563729974748,-0,2.29,0.36,0.32,0.64,0.55,0.85,0.08,0.47,-0,-1,-1,0.86,0,0,90,42,99,944,114.0,122,466,60,119.0,0,1,0,0,0,0,0,117,13850,250,113,414.87,,,,,,,,,,,,
21484,1563729974768,-1,2.3,0.36,0.32,0.65,0.56,0.86,0.08,0.48,-0,-1,-1,0.86,0,0,90,42,99,944,113.0,122,465,60,119.0,0,1,0,0,0,0,0,116,6656,13850,112,414.87,,,,,,,,,,,,
21504,1563729974788,-0,2.29,0.36,0.31,0.64,0.55,0.86,0.08,0.48,-0,-1,-1,0.86,0,0,90,42,99,943,112.0,123,465,60,119.0,0,1,0,0,0,0,0,115,250,13850,112,414.87,,,,,,,,,,,,
21524,1563729974808,-0,2.29,0.36,0.32,0.64,0.55,0.85,0.08,0.49,-0,-1,-1,0.85,0,0,90,42,99,943,112.0,122,466,60,119.0,0,1,0,0,0,0,0,115,250,13850,111,414.87,,,,,,,,,,,,
21544,1563729974828,-0,2.3,0.35,0.32,0.64,0.55,0.85,0.09,0.49,-0,-1,-2,0.85,0,0,90,42,99,943,111.0,122,464,60,119.0,0,1,0,0,0,0,0,113,-1482,13850,111,414.87,45.747829,4.906545,10.93,194.8,0,0.0,-1,0.0,0.0,0,0.2,0.3591
21564,1563729974848,-2,2.3,0.36,0.32,0.64,0.55,0.84,0.09,0.49,-0,-1,-1,0.85,0,0,90,42,99,942,110.0,122,466,60,119.0,0,1,0,0,0,0,0,113,13844,6656,110,414.87,,,,,,,,,,,,
21584,1563729974868,-0,2.3,0.36,0.32,0.64,0.55,0.84,0.1,0.47,-0,-2,-1,0.85,0,0,90,42,99,942,110.0,121,464,60,119.0,0,1,0,0,0,0,0,112,5120,-1482,109,414.87,,,,,,,,,,,,
21604,1563729974888,-0,2.29,0.36,0.32,0.65,0.55,0.84,0.1,0.47,-0,-2,-1,0.85,0,0,90,42,99,942,109.0,122,466,60,119.0,0,1,0,0,0,0,0,112,5120,-1482,109,414.87,,,,,,,,,,,,
21624,1563729974908,-1,2.3,0.36,0.32,0.64,0.56,0.83,0.09,0.47,-0,-2,-1,0.84,0,0,90,42,99,942,108.0,121,466,60,119.0,0,1,0,0,0,0,0,112,250,-1482,108,414.87,,,,,,,,,,,,
21644,1563729974928,-1,2.3,0.36,0.32,0.64,0.56,0.82,0.09,0.47,-1,-1,-1,0.82,0,0,90,42,99,942,108.0,121,466,60,119.0,0,1,0,0,0,0,0,111,250,5120,108,414.87,45.747829,4.906545,10.4,194.9,0,0.0,-1,0.0,0.0,0,0.21,0.3607
21664,1563729974948,-0,2.3,0.35,0.32,0.64,0.56,0.82,0.09,0.47,-0,-1,-1,0.83,0,0,90,42,99,942,108.0,121,465,60,119.0,0,1,0,0,0,0,0,110,-1482,5120,108,414.87,,,,,,,,,,,,
21684,1563729974968,-1,2.3,0.36,0.31,0.64,0.56,0.83,0.09,0.49,-0,-1,-1,0.83,0,6,90,42,99,942,107.0,122,469,60,119.0,0,1,0,0,0,0,0,110,-1482,13844,107,414.87,,,,,,,,,,,,
21704,1563729974988,-1,2.3,0.35,0.32,0.63,0.55,0.83,0.09,0.5,-0,-1,-1,0.83,0,8,90,42,99,942,107.0,122,466,60,119.0,0,1,0,0,0,0,0,108,-1482,5120,106,414.87,,,,,,,,,,,,
21724,1563729975008,-0,2.29,0.35,0.31,0.64,0.55,0.83,0.08,0.51,-0,-1,-1,0.83,0,10,90,42,99,942,105.0,122,463,60,119.0,0,1,0,0,0,0,0,108,3584,250,105,414.87,,,,,,,,,,,,
21744,1563729975028,-2,2.3,0.34,0.31,0.63,0.53,0.83,0.09,0.5,-0,-1,-1,0.84,0,13,90,42,99,942,105.0,122,467,60,119.0,0,1,0,0,0,0,0,107,3584,-1482,105,414.87,45.747826,4.906544,10.68,195.1,0,0.0,-1,0.0,0.0,0,0.21,0.3624
21764,1563729975048,-2,2.3,0.34,0.3,0.62,0.53,0.84,0.08,0.5,-0,-1,-1,0.85,0,15,90,42,99,942,105.0,122,466,60,119.0,0,1,0,0,0,0,0,107,250,-1482,105,414.87,,,,,,,,,,,,
21784,1563729975068,-1,2.29,0.34,0.3,0.62,0.53,0.84,0.08,0.52,-0,-2,-1,0.84,0,17,90,42,99,942,104.0,122,465,60,119.0,0,1,0,0,0,0,0,107,250,-1482,103,414.87,,,,,,,,,,,,
21804,1563729975096,-0,2.29,0.34,0.3,0.62,0.53,0.83,0.08,0.53,-0,-2,-1,0.83,0,19,90,42,99,942,104.0,122,466,60,119.0,0,1,0,0,0,0,0,106,-1482,13838,103,414.87,,,,,,,,,,,,
21824,1563729975116,-1,2.3,0.33,0.29,0.62,0.52,0.83,0.08,0.55,-0,-2,-1,0.83,0,19,90,42,99,942,103.0,122,465,60,119.0,0,1,0,0,0,0,0,105,-1482,250,102,414.87,,,,,,,,,,,,
21844,1563729975136,-1,2.3,0.33,0.29,0.61,0.52,0.82,0.07,0.56,-0,-2,-1,0.82,0,19,90,42,99,942,102.0,122,465,60,119.0,0,1,0,0,0,0,0,105,13832,250,101,414.87,45.747822,4.906543,10.62,195.2,0,0.0,-1,0.0,0.0,0,0.21,0.3641
21864,1563729975156,-0,2.3,0.32,0.29,0.61,0.51,0.81,0.08,0.56,-0,-1,-0,0.82,0,19,90,42,99,941,101.0,122,467,60,119.0,0,1,0,0,0,0,0,104,2048,-1482,101,414.87,,,,,,,,,,,,
21884,1563729975176,-0,2.3,0.31,0.27,0.6,0.5,0.81,0.07,0.55,-0,-1,-0,0.81,0,19,90,42,99,941,101.0,122,466,60,119.0,0,1,0,0,0,0,0,104,2048,-1482,101,414.87,,,,,,,,,,,,
21904,1563729975196,-2,2.32,0.31,0.27,0.59,0.5,0.81,0.07,0.55,-0,-0,-0,0.81,0,21,90,42,99,940,101.0,122,464,60,119.0,0,1,0,0,0,0,0,103,2048,13832,100,414.87,,,,,,,,,,,,
21924,1563729975216,-0,2.31,0.31,0.27,0.59,0.48,0.8,0.07,0.54,-0,0,-0,0.81,0,22,90,42,99,940,100.0,122,465,60,119.0,0,1,0,0,0,0,0,102,-1483,13832,100,414.87,,,,,,,,,,,,
21944,1563729975236,-1,2.32,0.29,0.27,0.58,0.48,0.81,0.07,0.53,0,0,-0,0.81,0,22,90,42,99,940,100.0,122,465,60,119.0,0,1,0,0,0,0,0,102,-1483,13832,100,414.87,45.747818,4.906542,10.18,195.2,0,0.0,-1,0.0,0.0,0,0.21,0.3657
21964,1563729975256,-0,2.33,0.3,0.27,0.59,0.48,0.82,0.07,0.53,0,0,-0,0.82,0,22,90,42,99,940,99.0,122,464,60,119.0,0,1,0,0,0,0,0,101,-22528,2048,99,414.87,,,,,,,,,,,,
21984,1563729975276,-0,2.34,0.29,0.26,0.59,0.47,0.81,0.06,0.52,0,0,0,0.81,0,22,90,42,99,940,98.0,122,464,60,118.0,0,1,0,0,0,0,0,100,-22528,2048,98,414.87,,,,,,,,,,,,
22004,1563729975296,-1,2.36,0.29,0.27,0.58,0.48,0.81,0.06,0.53,0,-0,-0,0.81,0,22,90,42,99,940,97.0,122,466,60,119.0,0,1,0,0,0,0,0,99,-22528,250,97,414.87,,,,,,,,,,,,
22024,1563729975316,-1,2.36,0.29,0.26,0.58,0.47,0.81,0.05,0.54,1,-0,0,0.81,0,22,90,42,99,941,97.0,122,464,60,119.0,0,1,0,0,0,0,0,99,250,13736,96,414.87,,,,,,,,,,,,
22044,1563729975336,-0,2.36,0.29,0.26,0.58,0.47,0.81,0.05,0.54,1,-0,0,0.81,0,22,90,42,99,940,96.0,121,468,60,119.0,0,1,0,0,0,0,0,97,-1481,-1483,96,414.87,45.747814,4.906542,9.99,195.2,0,0.0,-1,0.0,0.0,0,0.21,0.3674
22064,1563729975356,-1,2.37,0.28,0.26,0.57,0.47,0.81,0.05,0.53,1,-1,0,0.81,0,22,90,42,99,940,96.0,121,465,60,119.0,0,1,0,0,0,0,0,97,-1481,-1483,96,414.87,,,,,,,,,,,,
22084,1563729975376,-0,2.37,0.28,0.26,0.58,0.47,0.8,0.04,0.55,1,-1,1,0.8,0,23,90,42,99,940,96.0,121,466,60,119.0,0,1,0,0,0,0,0,96,-6144,-22528,96,414.87,,,,,,,,,,,,
22104,1563729975396,-0,2.39,0.28,0.26,0.58,0.46,0.79,0.04,0.54,1,-1,1,0.79,0,22,90,42,99,940,96.0,121,466,60,119.0,0,1,0,0,0,0,0,96,-6144,-22528,96,414.87,,,,,,,,,,,,
22124,1563729975416,-0,2.39,0.28,0.26,0.57,0.45,0.8,0.04,0.55,1,-1,1,0.8,0,22,90,42,99,940,95.0,121,466,60,119.0,0,1,0,0,0,0,0,95,250,-22528,95,414.87,,,,,,,,,,,,
22144,1563729975436,-1,2.41,0.27,0.25,0.57,0.45,0.8,0.04,0.56,1,-1,2,0.8,0,22,90,42,99,940,95.0,121,466,60,119.0,0,1,0,0,0,0,0,94,250,-22528,95,414.87,45.747814,4.906542,9.62,195.3,0,0.0,-1,0.0,0.0,0,0.21,0.3691
22164,1563729975456,-1,2.41,0.27,0.26,0.57,0.45,0.8,0.04,0.57,1,-1,2,0.8,0,22,90,42,99,940,94.0,121,463,60,119.0,0,1,0,0,0,0,0,93,14298,-1481,94,414.87,,,,,,,,,,,,
22184,1563729975476,-0,2.42,0.27,0.25,0.57,0.45,0.8,0.04,0.56,2,-0,2,0.8,0,22,90,42,99,940,94.0,121,467,60,119.0,0,1,0,0,0,0,0,93,-9728,250,94,414.87,,,,,,,,,,,,
22204,1563729975496,-1,2.43,0.27,0.26,0.56,0.45,0.8,0.04,0.56,2,0,3,0.8,0,22,90,42,99,940,94.0,121,464,60,119.0,0,1,0,0,0,0,0,91,-9728,-1481,94,414.87,,,,,,,,,,,,
22224,1563729975516,-1,2.43,0.27,0.25,0.57,0.44,0.8,0.04,0.56,2,0,3,0.8,0,23,90,42,99,940,93.0,121,467,60,119.0,0,1,0,0,0,0,0,90,250,-1481,93,414.87,,,,,,,,,,,,
22244,1563729975536,-1,2.44,0.27,0.25,0.56,0.44,0.8,0.04,0.54,2,0,3,0.8,0,22,90,42,99,940,92.0,121,464,60,119.0,0,1,0,0,0,0,0,90,-1481,14312,92,414.87,45.74781,4.906541,9.48,195.4,0,0.0,-1,0.0,0.0,0,0.21,0.3707
22264,1563729975556,-0,2.45,0.26,0.25,0.56,0.45,0.8,0.04,0.54,2,0,3,0.8,0,22,90,42,99,939,92.0,121,467,60,119.0,0,1,0,0,0,0,0,89,-1481,-6144,92,414.87,,,,,,,,,,,,
22284,1563729975576,-2,2.46,0.27,0.25,0.56,0.44,0.8,0.04,0.54,3,0,4,0.8,0,23,90,42,99,939,92.0,121,466,60,119.0,0,1,0,0,0,0,0,88,14284,-6144,92,414.87,,,,,,,,,,,,
22304,1563729975594,-0,2.45,0.28,0.26,0.57,0.45,0.79,0.04,0.54,3,0,4,0.79,0,23,90,42,99,939,91.0,121,468,60,119.0,0,1,0,0,0,0,0,88,-13312,-6144,91,414.87,,,,,,,,,,,,
22324,1563729975614,-1,2.45,0.29,0.26,0.57,0.45,0.8,0.04,0.54,3,-0,4,0.8,0,22,90,42,99,939,91.0,121,466,60,119.0,0,1,0,0,0,0,0,87,-13312,-6144,91,414.87,,,,,,,,,,,,
22344,1563729975634,-1,2.45,0.29,0.26,0.58,0.46,0.8,0.05,0.54,3,-0,4,0.8,0,22,90,42,99,939,90.0,121,466,60,119.0,0,1,0,0,0,0,0,87,250,-1481,90,414.87,45.74781,4.90654,8.92,195.4,0,0.0,-1,0.0,0.0,0,0.21,0.3724
22364,1563729975654,-0,2.44,0.29,0.27,0.58,0.46,0.8,0.05,0.54,3,-1,4,0.8,0,22,90,42,99,939,89.0,121,466,60,119.0,0,1,0,0,0,0,0,87,250,-1481,89,414.87,,,,,,,,,,,,
22384,1563729975674,-2,2.44,0.29,0.27,0.58,0.48,0.79,0.05,0.54,3,-1,4,0.79,0,22,90,42,99,939,89.0,121,466,60,119.0,0,1,0,0,0,0,0,85,250,14298,89,414.87,,,,,,,,,,,,
22404,1563729975695,-0,2.43,0.31,0.27,0.59,0.48,0.8,0.05,0.54,3,-1,4,0.8,0,23,90,42,99,939,88.0,121,467,60,118.0,0,1,0,0,0,0,0,84,-1481,-9728,88,414.87,,,,,,,,,,,,
22424,1563729975715,-1,2.42,0.31,0.28,0.59,0.49,0.79,0.06,0.54,3,-1,4,0.79,0,23,90,42,99,938,87.0,121,465,60,119.0,0,1,0,0,0,0,0,84,-1481,-9728,87,414.87,,,,,,,,,,,,
22444,1563729975735,-0,2.39,0.31,0.28,0.59,0.48,0.79,0.06,0.53,4,-1,4,0.8,0,23,90,42,99,939,87.0,121,466,60,118.0,0,1,0,0,0,0,0,84,14270,-9728,87,414.87,45.747807,4.906539,8.89,195.5,0,0.0,-1,0.0,0.0,0,0.21,0.3741
22464,1563729975755,-2,2.37,0.32,0.29,0.6,0.49,0.8,0.08,0.52,3,-1,4,0.81,0,22,90,42,99,939,86.0,121,466,60,118.0,0,1,0,0,0,0,0,83,-16896,250,86,414.87,,,,,,,,,,,,
22484,1563729975775,-2,2.33,0.32,0.29,0.6,0.49,0.81,0.08,0.52,3,-1,4,0.82,0,24,90,42,99,939,85.0,121,466,60,119.0,0,1,0,0,0,0,0,83,-16896,250,85,414.87,,,,,,,,,,,,
22504,1563729975795,-0,2.28,0.33,0.29,0.61,0.51,0.82,0.09,0.52,3,-1,3,0.83,0,25,90,42,99,939,85.0,121,466,60,119.0,0,1,0,0,0,0,0,83,14270,14284,85,414.87,,,,,,,,,,,,
22524,1563729975815,-2,2.22,0.33,0.3,0.6,0.52,0.82,0.11,0.52,2,-1,3,0.83,0,26,90,42,99,939,83.0,121,466,60,118.0,0,1,0,0,0,0,0,83,-16896,250,83,414.87,,,,,,,,,,,,
22544,1563729975835,-0,2.16,0.34,0.31,0.61,0.53,0.83,0.12,0.53,2,-1,2,0.84,0,28,90,42,99,939,81.0,121,466,60,119.0,0,1,0,0,0,0,0,83,-16896,250,80,414.87,45.747807,4.906538,8.56,195.6,0,0.0,-1,0.0,0.0,0,0.21,0.3757
22564,1563729975855,-0,2.1,0.35,0.32,0.63,0.54,0.83,0.14,0.52,1,-1,2,0.84,0,31,90,42,99,939,82.0,121,467,60,119.0,0,1,0,0,0,0,0,83,14270,14270,80,414.87,,,,,,,,,,,,
22584,1563729975875,-0,2.04,0.37,0.33,0.65,0.56,0.83,0.16,0.51,0,-1,1,0.84,0,33,90,42,99,939,82.0,121,465,60,119.0,0,1,0,0,0,0,0,84,14270,250,77,181.28,,,,,,,,,,,,
22604,1563729975895,-0,1.98,0.37,0.34,0.65,0.58,0.83,0.18,0.5,-1,-1,0,0.85,0,35,90,42,99,939,82.0,121,464,60,119.0,0,1,0,0,0,0,0,84,14270,250,77,414.87,,,,,,,,,,,,
22624,1563729975915,-0,1.91,0.37,0.34,0.66,0.57,0.84,0.2,0.5,-2,-1,-1,0.86,0,38,90,42,99,939,83.0,121,465,60,119.0,0,1,0,0,0,0,0,84,-1481,-20480,74,414.87,,,,,,,,,,,,
22644,1563729975935,-2,1.87,0.37,0.34,0.65,0.58,0.84,0.21,0.5,-3,-1,-2,0.87,0,41,90,42,99,939,83.0,121,466,60,119.0,0,1,0,0,0,0,0,84,-1481,-20480,74,414.87,45.747803,4.906538,7.67,195.6,0,0.0,-1,0.0,0.0,0,0.21,0.3774
22664,1563729975955,-2,1.82,0.36,0.34,0.65,0.57,0.85,0.22,0.49,-3,-1,-3,0.88,0,44,90,42,99,939,83.0,121,466,60,119.0,0,1,0,0,0,0,0,84,-1481,-24064,71,414.87,,,,,,,,,,,,
22684,1563729975975,-0,1.76,0.37,0.34,0.65,0.58,0.87,0.24,0.48,-4,-2,-5,0.9,0,47,90,42,99,939,85.0,122,467,60,118.0,0,1,0,0,0,0,0,84,-13312,-24064,70,414.87,,,,,,,,,,,,
22704,1563729975995,-1,1.72,0.36,0.34,0.64,0.57,0.87,0.24,0.48,-5,-2,-6,0.91,0,50,90,42,99,939,85.0,122,464,60,118.0,0,1,0,0,0,0,0,84,-13312,14228,70,414.87,,,,,,,,,,,,
22724,1563729976009,-1,1.68,0.36,0.34,0.64,0.56,0.87,0.25,0.47,-6,-2,-8,0.91,0,54,90,42,99,939,84.0,122,465,60,119.0,0,1,0,0,0,0,0,83,250,14228,67,414.87,,,,,,,,,,,,
22744,1563729976029,-1,1.64,0.35,0.33,0.65,0.56,0.87,0.25,0.45,-7,-2,-9,0.91,0,57,90,42,99,939,84.0,122,466,60,119.0,0,1,0,0,0,0,0,82,250,-1482,67,414.87,45.747803,4.906538,8.04,195.6,0,0.0,-1,0.0,0.0,0,0.21,0.3791
22764,1563729976049,-1,1.62,0.36,0.33,0.64,0.56,0.87,0.25,0.46,-8,-2,-10,0.91,0,60,90,42,99,939,84.0,122,467,60,118.0,0,1,0,0,0,0,0,82,250,-1482,65,414.87,,,,,,,,,,,,
22784,1563729976069,-2,1.59,0.35,0.33,0.64,0.56,0.86,0.24,0.46,-9,-2,-12,0.9,0,63,90,42,99,939,83.0,121,465,60,119.0,0,1,0,0,0,0,0,82,-1481,-1,65,414.87,,,,,,,,,,,,
22804,1563729976095,-0,1.54,0.35,0.33,0.64,0.56,0.86,0.24,0.46,-10,-2,-13,0.9,0,66,90,42,99,939,84.0,121,466,60,119.0,0,1,0,0,0,0,0,81,250,-1,64,414.87,,,,,,,,,,,,
22824,1563729976115,-2,1.52,0.35,0.33,0.64,0.55,0.86,0.25,0.46,-11,-1,-14,0.9,0,67,90,42,99,940,84.0,121,466,60,118.0,0,1,0,0,0,0,0,81,250,-1,64,414.87,,,,,,,,,,,,
22844,1563729976135,-1,1.48,0.34,0.32,0.63,0.54,0.87,0.25,0.46,-12,-2,-15,0.91,0,69,90,42,99,940,83.0,121,465,60,119.0,0,1,0,0,0,0,0,80,-1481,-1,62,414.87,45.747799,4.906537,7.09,195.6,0,0.0,-1,0.0,0.0,0,0.21,0.3807
22864,1563729976155,-1,1.46,0.34,0.32,0.63,0.53,0.87,0.24,0.48,-12,-2,-16,0.9,0,70,90,42,99,940,82.0,121,466,60,118.0,0,1,0,0,0,0,0,80,14270,-1,62,414.87,,,,,,,,,,,,
22884,1563729976175,-0,1.43,0.34,0.31,0.62,0.54,0.87,0.23,0.48,-13,-2,-17,0.9,0,71,90,42,99,940,82.0,121,464,60,118.0,0,1,0,0,0,0,0,79,14270,-1,62,414.87,,,,,,,,,,,,
22904,1563729976196,-2,1.41,0.34,0.32,0.62,0.54,0.87,0.23,0.48,-14,-2,-18,0.9,0,71,90,42,99,940,82.0,121,466,60,119.0,0,1,0,0,0,0,0,77,14270,-1,60,414.87,,,,,,,,,,,,
22924,1563729976216,-1,1.39,0.33,0.32,0.62,0.53,0.87,0.23,0.48,-14,-2,-19,0.9,0,71,90,42,99,940,82.0,121,465,60,119.0,0,1,0,0,0,0,0,77,14270,-1,60,414.87,,,,,,,,,,,,
22944,1563729976236,-0,1.36,0.34,0.31,0.63,0.53,0.87,0.22,0.47,-15,-2,-19,0.9,0,71,90,42,99,940,80.0,121,466,60,119.0,0,1,0,0,0,0,0,75,250,-1,58,414.87,45.747795,4.906537,6.91,195.7,0,0.0,-1,0.0,0.0,0,0.21,0.3824
22964,1563729976256,-0,1.35,0.33,0.32,0.62,0.53,0.88,0.22,0.47,-15,-2,-20,0.91,0,71,90,42,99,940,79.0,121,465,60,119.0,0,1,0,0,0,0,0,75,-1481,-1,58,414.87,,,,,,,,,,,,
22984,1563729976276,-1,1.33,0.34,0.32,0.62,0.54,0.88,0.22,0.46,-16,-1,-21,0.91,0,71,90,42,99,940,79.0,121,466,60,119.0,0,1,0,0,0,0,0,73,-1481,-1,56,414.87,,,,,,,,,,,,
23004,1563729976295,-1,1.32,0.34,0.32,0.62,0.53,0.88,0.21,0.45,-16,-1,-21,0.9,0,71,90,42,99,940,78.0,121,467,60,118.0,0,1,0,0,0,0,0,73,14256,-1,56,414.87,,,,,,,,,,,,
23024,1563729976315,-0,1.29,0.34,0.31,0.62,0.53,0.88,0.21,0.45,-17,-1,-22,0.9,0,71,90,42,99,941,78.0,121,466,60,118.0,0,1,0,0,0,0,0,71,14256,-1,54,414.87,,,,,,,,,,,,
23044,1563729976335,-0,1.27,0.35,0.31,0.63,0.53,0.88,0.2,0.45,-17,-1,-22,0.91,0,72,90,42,99,941,76.0,121,466,60,118.0,0,1,0,0,0,0,0,69,250,-1,54,414.87,45.747795,4.906536,6.39,195.6,0,0.0,-1,0.0,0.0,0,0.21,0.3841
23064,1563729976355,-0,1.27,0.34,0.32,0.62,0.54,0.88,0.19,0.46,-17,-1,-23,0.91,0,72,90,42,99,941,74.0,121,467,60,119.0,0,1,0,0,0,0,0,69,14242,-1,54,414.87,,,,,,,,,,,,
23084,1563729976375,-1,1.27,0.34,0.31,0.64,0.53,0.88,0.18,0.46,-18,-1,-23,0.9,0,72,90,42,99,941,74.0,121,467,60,118.0,0,1,0,0,0,0,0,67,14242,-1,52,414.87,,,,,,,,,,,,
23104,1563729976395,-1,1.27,0.35,0.32,0.63,0.54,0.87,0.18,0.48,-18,-2,-23,0.89,0,72,90,42,99,941,72.0,121,467,60,119.0,0,1,0,0,0,0,0,67,250,-1,52,414.87,,,,,,,,,,,,
23124,1563729976415,-1,1.26,0.35,0.32,0.64,0.54,0.88,0.17,0.49,-18,-2,-23,0.89,0,72,90,42,99,941,72.0,121,466,60,119.0,0,1,0,0,0,0,0,64,250,-1,50,414.87,,,,,,,,,,,,
23144,1563729976435,-0,1.27,0.35,0.33,0.64,0.55,0.87,0.16,0.5,-18,-2,-23,0.88,0,72,90,42,99,941,69.0,121,464,60,119.0,0,1,0,0,0,0,0,64,-27648,1018,50,414.87,45.747795,4.906537,5.47,195.6,0,0.0,-1,0.0,0.0,0,0.21,0.3857
23164,1563729976455,-0,1.26,0.36,0.33,0.64,0.55,0.87,0.15,0.5,-18,-1,-23,0.88,0,72,90,42,99,941,69.0,122,466,60,119.0,0,1,0,0,0,0,0,64,-27648,1018,50,414.87,,,,,,,,,,,,
23184,1563729976475,-0,1.26,0.36,0.33,0.66,0.55,0.86,0.14,0.5,-17,-1,-23,0.88,0,72,90,42,99,942,66.0,122,466,60,119.0,0,1,0,0,0,0,0,61,14054,1018,47,414.87,,,,,,,,,,,,
23204,1563729976495,-1,1.26,0.36,0.33,0.65,0.56,0.86,0.14,0.51,-17,-1,-24,0.87,0,72,90,42,99,942,66.0,122,466,60,119.0,0,1,0,0,0,0,0,61,14054,-1,47,414.87,,,,,,,,,,,,
23224,1563729976515,-0,1.26,0.37,0.34,0.65,0.56,0.86,0.13,0.51,-17,-1,-23,0.87,0,72,90,42,99,942,63.0,122,465,60,119.0,0,1,0,0,0,0,0,58,-1281,-1,47,414.87,,,,,,,,,,,,
23244,1563729976535,-2,1.27,0.36,0.34,0.66,0.57,0.85,0.13,0.51,-17,-1,-23,0.86,0,72,90,42,99,942,63.0,121,466,60,118.0,0,1,0,0,0,0,0,58,-1281,-1,44,414.87,45.747791,4.906537,4.83,195.5,0,0.0,-1,0.0,0.0,0,0.21,0.3874
23264,1563729976555,-2,1.27,0.37,0.34,0.67,0.57,0.85,0.11,0.51,-17,-1,-23,0.85,0,72,90,42,99,942,61.0,121,466,60,119.0,0,1,0,0,0,0,0,56,-1,-1,44,414.87,,,,,,,,,,,,
23284,1563729976575,-2,1.27,0.37,0.34,0.67,0.57,0.84,0.11,0.53,-16,-1,-23,0.84,0,72,90,42,99,942,61.0,121,467,60,119.0,0,1,0,0,0,0,0,56,-1,-1,44,414.87,,,,,,,,,,,,
23304,1563729976595,-2,1.27,0.37,0.34,0.67,0.58,0.85,0.11,0.54,-16,-1,-23,0.85,0,72,90,42,99,942,55.0,121,466,60,119.0,0,1,0,0,0,0,0,53,-1,-1,41,414.87,,,,,,,,,,,,
23324,1563729976615,-2,1.26,0.37,0.34,0.67,0.58,0.85,0.11,0.52,-17,-1,-22,0.86,0,72,90,42,99,942,55.0,121,466,60,118.0,0,1,0,0,0,0,0,53,-1,-1,41,414.87,,,,,,,,,,,,
23344,1563729976635,-0,1.26,0.37,0.34,0.67,0.58,0.85,0.11,0.52,-16,-2,-22,0.86,0,72,90,42,99,943,55.0,121,466,60,118.0,0,1,0,0,0,0,0,53,-1,-1,41,414.87,45.747791,4.906537,4.21,195.4,0,0.0,-1,0.0,0.0,0,0.21,0.3891
23364,1563729976655,-1,1.26,0.37,0.35,0.68,0.58,0.85,0.11,0.54,-16,-1,-22,0.85,0,72,90,42,99,943,53.0,121,467,60,118.0,0,1,0,0,0,0,0,49,-1,-1,41,414.87,,,,,,,,,,,,
23384,1563729976675,-0,1.26,0.39,0.35,0.69,0.59,0.85,0.1,0.55,-16,-1,-22,0.85,0,72,90,42,99,943,53.0,121,465,60,119.0,0,1,0,0,0,0,0,49,-1,-1,38,414.87,,,,,,,,,,,,
23404,1563729976694,-1,1.27,0.39,0.36,0.69,0.59,0.84,0.09,0.55,-15,-1,-21,0.85,0,72,90,42,99,943,52.0,121,466,60,119.0,0,1,0,0,0,0,0,49,-1,-1,38,414.87,,,,,,,,,,,,
23424,1563729976714,-2,1.27,0.38,0.35,0.68,0.58,0.85,0.09,0.53,-15,-1,-21,0.86,0,72,90,42,99,943,52.0,121,467,60,119.0,0,1,0,0,0,0,0,46,-1,-1,38,414.87,,,,,,,,,,,,
23444,1563729976734,-1,1.27,0.38,0.35,0.69,0.59,0.86,0.09,0.53,-15,-1,-21,0.86,0,72,90,42,99,943,52.0,121,466,60,119.0,0,1,0,0,0,0,0,46,-1,-1,35,414.87,45.747791,4.906538,3.88,195.4,0,0.0,-1,0.0,0.0,0,0.21,0.3907
23464,1563729976754,-1,1.27,0.39,0.36,0.7,0.59,0.86,0.09,0.52,-15,-1,-20,0.87,0,72,90,42,99,943,46.0,121,465,60,119.0,0,1,0,0,0,0,0,46,-1,-1,35,414.87,,,,,,,,,,,,
23484,1563729976774,-0,1.26,0.39,0.36,0.7,0.6,0.85,0.08,0.52,-15,-1,-20,0.86,0,72,90,42,99,943,46.0,121,466,60,119.0,0,1,0,0,0,0,0,42,-1,-1,35,414.87,,,,,,,,,,,,
23504,1563729976796,-2,1.27,0.39,0.37,0.69,0.61,0.85,0.08,0.52,-14,-1,-19,0.85,0,72,90,42,99,944,46.0,121,466,60,119.0,0,1,0,0,0,0,0,42,-1,-1,35,414.87,,,,,,,,,,,,
23524,1563729976816,-0,1.26,0.4,0.36,0.7,0.6,0.85,0.07,0.53,-14,-1,-19,0.85,0,72,90,42,99,944,44.0,121,466,60,119.0,0,1,0,0,0,0,0,42,-1,-1,31,414.87,,,,,,,,,,,,
23544,1563729976836,-1,1.27,0.39,0.37,0.7,0.6,0.85,0.06,0.53,-13,-1,-18,0.86,0,72,90,42,99,944,44.0,121,465,60,119.0,0,1,0,0,0,0,0,38,-1,1018,31,414.87,45.747791,4.906538,3.57,195.4,0,0.0,-1,0.0,0.0,0,0.21,0.3924
23564,1563729976856,-0,1.26,0.4,0.37,0.71,0.6,0.86,0.06,0.52,-13,-1,-18,0.86,0,72,90,42,99,944,44.0,121,467,60,119.0,0,1,0,0,0,0,0,38,-1,1018,31,414.87,,,,,,,,,,,,
23584,1563729976876,-1,1.27,0.4,0.37,0.7,0.61,0.86,0.05,0.53,-13,-1,-17,0.86,0,72,90,42,99,944,38.0,122,466,60,119.0,0,1,0,0,0,0,0,38,-1,1018,31,414.87,,,,,,,,,,,,
23604,1563729976896,-1,1.27,0.4,0.37,0.71,0.6,0.85,0.05,0.53,-13,-1,-17,0.85,0,72,90,42,99,944,38.0,122,466,60,119.0,0,1,0,0,0,0,0,38,-1,1018,31,414.87,,,,,,,,,,,,
23624,1563729976916,-0,1.27,0.4,0.37,0.71,0.61,0.85,0.05,0.53,-12,-1,-16,0.85,0,72,90,42,99,944,38.0,122,465,60,119.0,0,1,0,0,0,0,0,34,-1,1018,26,414.87,,,,,,,,,,,,
23644,1563729976936,-0,1.26,0.41,0.37,0.71,0.61,0.85,0.05,0.53,-12,-1,-16,0.85,0,72,90,42,99,944,38.0,122,466,60,119.0,0,1,0,0,0,0,0,34,-1,1018,26,414.87,45.747788,4.906538,3.15,195.4,0,0.0,-1,0.0,0.0,0,0.21,0.3941
23664,1563729976956,-1,1.26,0.41,0.38,0.71,0.61,0.85,0.05,0.52,-12,-1,-15,0.86,0,72,90,42,99,945,34.0,122,467,60,119.0,0,1,0,0,0,0,0,34,-1,1018,26,414.87,,,,,,,,,,,,
23684,1563729976976,-0,1.26,0.41,0.37,0.72,0.62,0.85,0.05,0.52,-11,-1,-15,0.85,0,72,90,42,99,945,34.0,122,466,60,119.0,0,1,0,0,0,0,0,34,-1,-1,26,414.87,,,,,,,,,,,,
23704,1563729976996,-0,1.27,0.41,0.38,0.72,0.62,0.85,0.04,0.52,-11,-1,-14,0.85,0,72,90,42,99,946,34.0,122,467,60,119.0,0,1,0,0,0,0,0,29,-1,-1,26,414.87,,,,,,,,,,,,
23724,1563729977010,-2,1.27,0.41,0.38,0.72,0.63,0.85,0.04,0.52,-11,-1,-14,0.85,0,72,90,42,99,946,34.0,122,462,60,119.0,0,1,0,0,0,0,0,29,-1,-1,26,414.87,,,,,,,,,,,,
23744,1563729977030,-1,1.27,0.41,0.38,0.73,0.62,0.85,0.03,0.52,-10,-1,-14,0.85,0,72,90,42,99,946,34.0,122,466,60,119.0,0,1,0,0,0,0,0,29,-1,-1,21,181.28,45.747788,4.906538,2.89,195.3,0,0.0,-1,0.0,0.0,0,0.21,0.3957
23764,1563729977050,-0,1.26,0.42,0.38,0.73,0.62,0.85,0.03,0.52,-10,-1,-13,0.85,0,72,90,42,99,946,29.0,122,468,60,119.0,0,1,0,0,0,0,0,29,-1,-1,21,414.87,,,,,,,,,,,,
23784,1563729977070,-1,1.26,0.42,0.39,0.73,0.62,0.85,0.03,0.52,-10,-1,-13,0.85,0,72,90,42,99,946,29.0,122,465,60,119.0,0,1,0,0,0,0,0,29,-1,-1,21,414.87,,,,,,,,,,,,
23804,1563729977096,-1,1.27,0.42,0.39,0.74,0.62,0.85,0.02,0.53,-9,-1,-12,0.85,0,65,90,42,99,945,29.0,122,467,60,119.0,0,1,0,0,0,0,0,29,-1,-1,21,414.87,,,,,,,,,,,,
23824,1563729977116,1,1.26,0.42,0.39,0.73,0.64,0.84,0.02,0.53,-9,-1,-12,0.84,0,56,90,42,99,945,29.0,122,465,60,119.0,0,1,0,0,0,0,0,22,-1,-1,21,414.87,,,,,,,,,,,,
23844,1563729977136,1,1.26,0.42,0.39,0.74,0.63,0.84,0.01,0.53,-8,-1,-11,0.84,0,47,90,42,99,946,29.0,122,466,60,119.0,0,1,0,0,0,0,0,22,-1,-1,21,414.87,45.747788,4.906538,2.23,195.2,0,0.0,-1,0.0,0.0,0,0.21,0.3974
23864,1563729977156,2,1.26,0.42,0.39,0.74,0.63,0.84,0.01,0.52,-8,-1,-11,0.84,0,39,90,42,99,946,29.0,122,467,60,119.0,0,1,0,0,0,0,0,22,-1,-1,21,414.87,,,,,,,,,,,,
23884,1563729977176,2,1.27,0.42,0.39,0.74,0.63,0.85,0.01,0.51,-7,-1,-10,0.85,0,33,90,42,99,947,21.0,122,466,60,119.0,0,1,0,0,0,0,0,22,-1,-1,21,414.87,,,,,,,,,,,,
23904,1563729977196,4,1.26,0.43,0.39,0.74,0.63,0.86,0.0,0.5,-7,-1,-9,0.86,0,28,90,42,99,947,21.0,122,463,60,119.0,0,1,0,0,0,0,0,22,-1,-1,21,414.87,,,,,,,,,,,,
23924,1563729977216,6,1.27,0.43,0.39,0.74,0.64,0.87,-0.01,0.48,-6,-1,-9,0.87,0,23,90,42,99,947,21.0,121,466,60,119.0,0,1,0,0,0,0,0,22,-1,-1,21,414.87,,,,,,,,,,,,
23944,1563729977236,6,1.27,0.43,0.39,0.75,0.64,0.88,-0.01,0.47,-6,-1,-8,0.88,0,21,90,42,99,948,21.0,121,466,60,119.0,0,1,0,0,0,0,0,22,-1,-1,13,414.87,45.747788,4.906538,0.0,195.2,0,0.0,-1,0.0,0.0,0,0.21,0.3991
23964,1563729977256,7,1.27,0.43,0.4,0.75,0.65,0.89,-0.02,0.46,-5,-1,-7,0.89,0,20,90,42,99,948,21.0,121,465,60,119.0,0,1,0,0,0,0,0,22,-1,-1,13,414.87,,,,,,,,,,,,
23984,1563729977276,9,1.26,0.44,0.4,0.76,0.64,0.88,-0.02,0.47,-4,-1,-7,0.88,0,20,90,42,99,948,21.0,121,463,60,121.0,0,1,0,0,0,0,0,22,-1,-1,13,414.87,,,,,,,,,,,,
24004,1563729977296,7,1.26,0.44,0.4,0.76,0.64,0.86,-0.03,0.48,-4,-0,-6,0.86,0,19,90,42,99,948,21.0,121,452,60,120.0,0,1,0,0,0,0,0,22,-1,-1,13,414.87,,,,,,,,,,,,
24024,1563729977316,8,1.27,0.44,0.4,0.76,0.66,0.85,-0.02,0.51,-4,0,-5,0.85,0,16,90,42,99,948,21.0,121,416,60,120.0,0,1,0,0,0,0,0,22,-1,-1,13,414.87,,,,,,,,,,,,
24044,1563729977336,8,1.26,0.45,0.4,0.76,0.65,0.84,-0.01,0.53,-4,0,-4,0.84,0,12,90,42,99,948,21.0,121,402,60,120.0,0,1,0,0,0,0,0,22,-1,-1,13,414.87,45.747788,4.906539,0.0,195.1,0,0.0,-1,0.0,0.0,0,0.21,0.4007
24064,1563729977356,8,1.26,0.44,0.4,0.76,0.65,0.83,-0.01,0.55,-3,1,-4,0.83,0,7,90,42,99,948,21.0,121,396,60,120.0,0,1,0,0,0,0,0,22,-1,-1,13,414.87,,,,,,,,,,,,
24084,1563729977376,8,1.26,0.44,0.4,0.75,0.65,0.82,0.0,0.57,-3,1,-3,0.82,0,5,90,42,99,948,21.0,121,393,60,120.0,0,1,0,0,0,0,0,22,-1,-1,13,181.28,,,,,,,,,,,,
24104,1563729977396,8,1.27,0.43,0.4,0.75,0.65,0.81,0.01,0.59,-3,1,-3,0.81,0,0,90,42,99,948,21.0,121,390,60,120.0,0,1,0,0,0,0,0,22,-1,-1,13,414.87,,,,,,,,,,,,
24124,1563729977416,8,1.26,0.44,0.4,0.75,0.64,0.81,0.01,0.6,-2,1,-2,0.81,0,0,90,42,99,948,21.0,121,390,60,121.0,0,1,0,0,0,0,0,22,-1,-1,13,414.87,,,,,,,,,,,,
24144,1563729977436,7,1.28,0.44,0.4,0.75,0.64,0.8,0.02,0.6,-2,0,-2,0.8,0,0,90,42,99,948,21.0,121,387,60,120.0,0,1,0,0,0,0,0,22,-1,-1,13,414.87,45.747788,4.906539,0.0,195.1,0,0.0,-1,0.0,0.0,0,0.21,0.4024
24164,1563729977456,7,1.28,0.44,0.4,0.76,0.64,0.8,0.02,0.59,-2,0,-2,0.8,0,0,90,42,99,948,21.0,121,387,60,120.0,0,1,0,0,0,0,0,22,-1,-1,13,414.87,,,,,,,,,,,,
24184,1563729977476,8,1.27,0.44,0.4,0.75,0.65,0.8,0.02,0.59,-2,-0,-2,0.8,0,0,90,42,99,948,21.0,121,384,60,120.0,0,1,0,0,0,0,0,22,-1,-1,13,414.87,,,,,,,,,,,,
24204,1563729977496,8,1.27,0.44,0.4,0.76,0.64,0.79,0.02,0.59,-1,-0,-2,0.79,0,0,90,42,99,949,21.0,121,384,60,120.0,0,1,0,0,0,0,0,22,-1,-1,13,414.87,,,,,,,,,,,,
24224,1563729977516,8,1.28,0.44,0.4,0.76,0.64,0.79,0.03,0.59,-1,-0,-2,0.79,0,0,90,42,99,949,21.0,121,384,60,120.0,0,1,0,0,0,0,0,22,-1,-1,13,414.87,,,,,,,,,,,,
24244,1563729977536,9,1.27,0.44,0.4,0.76,0.65,0.78,0.03,0.59,-1,-0,-2,0.78,0,0,90,42,99,949,21.0,121,384,60,120.0,0,1,0,0,0,0,0,22,-1,-1,13,414.87,45.747788,4.906539,0.0,195.0,0,0.0,-1,0.0,0.0,0,0.21,0.4041
24264,1563729977556,7,1.27,0.45,0.41,0.76,0.66,0.78,0.03,0.6,-1,-0,-1,0.78,0,0,90,42,99,949,21.0,121,382,60,121.0,0,1,0,0,0,0,0,22,-1,-1,13,414.87,,,,,,,,,,,,
24284,1563729977576,8,1.27,0.45,0.41,0.76,0.66,0.78,0.03,0.6,-1,-0,-1,0.78,0,0,90,42,99,950,21.0,121,382,60,121.0,0,1,0,0,0,0,0,22,-1,-1,13,414.87,,,,,,,,,,,,
24304,1563729977596,9,1.27,0.46,0.41,0.76,0.65,0.77,0.03,0.61,-1,-0,-1,0.77,0,0,90,42,99,950,21.0,121,382,60,121.0,0,1,0,0,0,0,0,22,-1,-1,13,181.28,,,,,,,,,,,,
24324,1563729977616,9,1.26,0.45,0.41,0.77,0.66,0.77,0.03,0.61,-1,-0,-1,0.77,0,0,90,42,99,950,21.0,121,382,60,121.0,0,1,0,0,0,0,0,0,-1,-1,13,414.87,,,,,,,,,,,,
24344,1563729977636,8,1.26,0.46,0.4,0.77,0.65,0.77,0.04,0.61,-1,-0,-1,0.77,0,0,90,42,99,950,21.0,121,380,60,120.0,0,1,0,0,0,0,0,0,-1,-1,13,414.87,45.747788,4.906539,0.0,195.0,0,0.0,-1,0.0,0.0,0,0.21,0.4057
24364,1563729977656,9,1.26,0.46,0.41,0.76,0.66,0.77,0.04,0.61,-1,-0,-1,0.77,0,0,90,42,99,950,21.0,121,379,60,120.0,0,1,0,0,0,0,0,0,-1,250,13,414.87,,,,,,,,,,,,
24384,1563729977676,9,1.27,0.46,0.41,0.78,0.66,0.77,0.04,0.61,-1,-0,-1,0.77,0,0,90,42,99,950,13.0,121,379,60,121.0,0,1,0,0,0,0,0,0,250,250,13,414.87,,,,,,,,,,,,
24404,1563729977695,8,1.27,0.46,0.42,0.77,0.67,0.76,0.04,0.61,-0,-0,-1,0.76,0,0,90,42,99,950,13.0,121,379,60,120.0,0,1,0,0,0,0,0,0,250,250,13,414.87,,,,,,,,,,,,
24424,1563729977715,7,1.28,0.47,0.41,0.78,0.67,0.76,0.04,0.61,-0,-0,-1,0.76,0,0,90,42,99,951,13.0,121,378,60,121.0,0,1,0,0,0,0,0,0,250,250,13,414.87,,,,,,,,,,,,
24444,1563729977735,9,1.26,0.47,0.42,0.79,0.67,0.76,0.04,0.61,-0,-0,-1,0.76,0,0,90,42,99,951,0.0,121,376,60,121.0,0,1,0,0,0,0,0,0,250,250,0,414.87,45.747788,4.906539,0.0,194.9,0,0.0,-1,0.0,0.0,0,0.21,0.4074
24464,1563729977755,8,1.27,0.48,0.42,0.79,0.68,0.76,0.04,0.61,-0,-0,-1,0.76,0,0,90,42,99,951,0.0,121,376,60,121.0,0,1,0,0,0,0,0,0,250,250,0,414.87,,,,,,,,,,,,
24484,1563729977775,9,1.26,0.48,0.43,0.8,0.69,0.76,0.04,0.61,-0,-1,-1,0.76,0,0,90,42,99,951,0.0,121,376,60,121.0,0,1,0,0,0,0,0,0,250,250,0,414.87,,,,,,,,,,,,
24504,1563729977797,8,1.27,0.48,0.43,0.79,0.69,0.76,0.04,0.61,-0,-1,-1,0.76,0,0,90,42,99,951,0.0,121,376,60,121.0,0,1,0,0,0,0,0,0,250,250,0,414.87,,,,,,,,,,,,
24524,1563729977817,7,1.27,0.48,0.42,0.79,0.69,0.76,0.04,0.61,-0,-1,-1,0.76,0,0,90,42,99,951,0.0,121,375,60,120.0,0,1,0,0,0,0,0,0,250,250,0,414.87,,,,,,,,,,,,
24544,1563729977837,6,1.27,0.48,0.43,0.8,0.68,0.76,0.05,0.61,-0,-1,-1,0.76,0,0,90,42,99,952,0.0,121,374,60,120.0,0,1,0,0,0,0,0,0,250,250,0,414.87,45.747788,4.906539,0.0,195.0,0,0.0,-1,0.0,0.0,0,0.21,0.4091
24564,1563729977857,7,1.27,0.48,0.43,0.8,0.68,0.76,0.05,0.62,-0,-1,-1,0.76,0,0,90,42,99,952,0.0,121,374,60,120.0,0,1,0,0,0,0,0,0,250,250,0,414.87,,,,,,,,,,,,
24584,1563729977877,8,1.26,0.48,0.43,0.79,0.68,0.76,0.05,0.62,-0,-1,-0,0.76,0,0,90,42,99,952,0.0,121,374,60,120.0,0,1,0,0,0,0,0,0,250,250,0,414.87,,,,,,,,,,,,
24604,1563729977897,7,1.26,0.48,0.43,0.79,0.68,0.75,0.05,0.62,-0,-1,-0,0.76,0,0,90,42,99,952,0.0,121,374,60,121.0,0,1,0,0,0,0,0,0,250,250,0,414.87,,,,,,,,,,,,
24624,1563729977917,8,1.27,0.48,0.43,0.8,0.69,0.75,0.05,0.62,-0,-1,-0,0.76,0,0,90,42,99,951,0.0,121,373,60,121.0,0,1,0,0,0,0,0,0,250,250,0,414.87,,,,,,,,,,,,
24644,1563729977937,6,1.27,0.48,0.43,0.8,0.69,0.75,0.05,0.62,-0,-1,-0,0.76,0,0,90,42,99,951,0.0,121,371,60,121.0,0,1,0,0,0,0,0,0,250,250,0,414.87,45.747788,4.906539,0.0,195.0,0,0.0,-1,0.0,0.0,0,0.21,0.4107
24664,1563729977957,8,1.27,0.48,0.43,0.81,0.69,0.75,0.05,0.63,-0,-1,-0,0.76,0,0,90,42,99,951,0.0,121,371,60,121.0,0,1,0,0,0,0,0,0,250,250,0,414.87,,,,,,,,,,,,
24684,1563729977977,8,1.26,0.48,0.43,0.8,0.69,0.75,0.05,0.63,-0,-1,-0,0.76,0,0,90,42,99,951,0.0,121,371,60,120.0,0,1,0,0,0,0,0,0,250,250,0,414.87,,,,,,,,,,,,
24704,1563729977997,7,1.27,0.48,0.43,0.8,0.69,0.75,0.05,0.63,-0,-1,-0,0.76,0,0,90,42,99,951,0.0,121,371,60,121.0,0,1,0,0,0,0,0,0,250,250,0,414.87,,,,,,,,,,,,
24724,1563729978009,6,1.27,0.47,0.42,0.8,0.69,0.75,0.05,0.63,-0,-1,-0,0.76,0,0,90,42,99,952,0.0,121,370,60,120.0,0,1,0,0,0,0,0,0,250,250,0,414.87,,,,,,,,,,,,
24744,1563729978029,6,1.27,0.48,0.42,0.79,0.68,0.75,0.05,0.63,-0,-1,-0,0.75,0,0,90,42,99,952,0.0,121,368,60,120.0,0,1,0,0,0,0,0,0,250,250,0,414.87,45.747788,4.906539,0.0,195.0,0,0.0,-1,0.0,0.0,0,0.21,0.4124
24764,1563729978049,8,1.27,0.48,0.43,0.79,0.68,0.75,0.05,0.63,-0,-1,-0,0.75,0,0,90,42,99,952,0.0,121,368,60,121.0,0,1,0,0,0,0,0,0,250,250,0,414.87,,,,,,,,,,,,
24784,1563729978069,7,1.27,0.48,0.42,0.79,0.68,0.75,0.05,0.63,-0,-0,-0,0.75,0,0,90,42,99,952,0.0,121,368,60,121.0,0,1,0,0,0,0,0,0,250,250,0,414.87,,,,,,,,,,,,
24804,1563729978097,6,1.27,0.48,0.42,0.78,0.67,0.75,0.05,0.63,-0,-0,-0,0.75,0,0,90,42,99,953,0.0,121,368,60,121.0,0,1,0,0,0,0,0,0,250,250,0,414.87,,,,,,,,,,,,
24824,1563729978117,6,1.27,0.47,0.41,0.79,0.67,0.75,0.05,0.63,-0,-0,-0,0.75,0,0,90,42,99,953,0.0,121,368,60,121.0,0,1,0,0,0,0,0,0,250,250,0,414.87,,,,,,,,,,,,
24844,1563729978137,8,1.26,0.47,0.42,0.79,0.67,0.75,0.05,0.63,0,-0,-0,0.75,0,0,90,42,99,953,0.0,121,368,60,121.0,0,1,0,0,0,0,0,0,250,250,0,414.87,45.747788,4.906539,0.0,195.1,0,0.0,-1,0.0,0.0,0,0.21,0.4141
24864,1563729978157,7,1.27,0.47,0.42,0.78,0.67,0.75,0.05,0.63,0,-0,-0,0.75,0,0,90,42,99,953,0.0,121,367,60,120.0,0,1,0,0,0,0,0,0,250,250,0,414.87,,,,,,,,,,,,
24884,1563729978177,6,1.28,0.47,0.42,0.79,0.66,0.75,0.05,0.63,0,-0,-0,0.75,0,0,90,42,99,954,0.0,121,366,60,120.0,0,1,0,0,0,0,0,0,250,250,0,414.87,,,,,,,,,,,,
24904,1563729978195,8,1.27,0.48,0.42,0.78,0.67,0.75,0.05,0.62,0,-1,-0,0.75,0,0,90,42,99,954,0.0,121,365,60,120.0,0,1,0,0,0,0,0,0,250,250,0,414.87,,,,,,,,,,,,
24924,1563729978215,6,1.27,0.47,0.42,0.79,0.67,0.75,0.05,0.62,0,-1,-0,0.75,0,0,90,42,99,954,0.0,121,365,60,121.0,0,1,0,0,0,0,0,0,250,250,0,181.28,,,,,,,,,,,,
24944,1563729978235,6,1.28,0.47,0.42,0.8,0.67,0.75,0.05,0.62,-0,-1,-0,0.75,0,0,90,42,99,954,0.0,121,365,60,121.0,0,1,0,0,0,0,0,0,250,250,0,414.87,45.747788,4.906539,0.0,195.1,0,0.0,-1,0.0,0.0,0,0.21,0.4157
24964,1563729978255,8,1.27,0.48,0.42,0.79,0.68,0.75,0.05,0.62,-0,-1,-0,0.75,0,0,90,42,99,953,0.0,121,364,60,121.0,0,1,0,0,0,0,0,0,250,250,0,414.87,,,,,,,,,,,,
24984,1563729978275,6,1.28,0.48,0.42,0.79,0.68,0.75,0.05,0.62,0,-1,-0,0.75,0,0,90,42,99,953,0.0,121,362,60,121.0,0,1,0,0,0,0,0,0,250,250,0,181.28,,,,,,,,,,,,
25004,1563729978295,7,1.27,0.48,0.42,0.81,0.67,0.75,0.05,0.62,0,-1,-0,0.75,0,0,90,42,99,953,0.0,121,362,60,121.0,0,1,0,0,0,0,0,0,250,250,0,414.87,,,,,,,,,,,,
25024,1563729978315,7,1.27,0.48,0.42,0.81,0.68,0.75,0.05,0.62,0,-1,-0,0.75,0,0,90,42,99,953,0.0,121,362,60,121.0,0,1,0,0,0,0,0,0,250,250,0,414.87,,,,,,,,,,,,
25044,1563729978335,8,1.27,0.48,0.43,0.8,0.68,0.75,0.05,0.62,0,-1,-0,0.75,0,0,90,42,99,954,0.0,121,362,60,120.0,0,1,0,0,0,0,0,0,250,250,0,414.87,45.747788,4.906539,0.0,195.1,0,0.0,-1,0.0,0.0,0,0.21,0.4174
25064,1563729978355,6,1.28,0.48,0.43,0.81,0.69,0.75,0.05,0.62,0,-1,-0,0.75,0,0,90,42,99,954,0.0,121,362,60,121.0,0,1,0,0,0,0,0,0,250,250,0,414.87,,,,,,,,,,,,
25084,1563729978375,6,1.26,0.48,0.43,0.81,0.69,0.75,0.05,0.62,0,-1,-0,0.75,0,0,90,42,99,954,0.0,121,362,60,121.0,0,1,0,0,0,0,0,0,250,250,0,181.28,,,,,,,,,,,,
25104,1563729978395,7,1.27,0.49,0.43,0.82,0.69,0.75,0.05,0.62,0,-1,-0,0.75,0,0,90,42,99,955,0.0,121,362,60,120.0,0,1,0,0,0,0,0,0,250,250,0,414.87,,,,,,,,,,,,
25124,1563729978415,7,1.27,0.49,0.43,0.82,0.69,0.75,0.05,0.62,0,-1,-0,0.75,0,0,90,42,99,955,0.0,121,360,60,121.0,0,1,0,0,0,0,0,0,250,250,0,414.87,,,,,,,,,,,,
25144,1563729978435,6,1.27,0.49,0.43,0.82,0.69,0.75,0.05,0.62,0,-1,-0,0.75,0,0,90,42,99,955,0.0,122,360,60,121.0,0,1,0,0,0,0,0,0,250,250,0,414.87,45.747788,4.906539,0.0,195.1,0,0.0,-1,0.0,0.0,0,0.21,0.4191
25164,1563729978455,6,1.27,0.5,0.43,0.82,0.69,0.75,0.05,0.63,0,-1,-0,0.76,0,0,90,42,99,955,0.0,122,360,60,121.0,0,1,0,0,0,0,0,0,250,250,0,414.87,,,,,,,,,,,,
25184,1563729978475,5,1.27,0.49,0.44,0.81,0.7,0.75,0.05,0.63,0,-1,-0,0.76,0,0,90,42,99,955,0.0,121,360,60,121.0,0,1,0,0,0,0,0,0,250,250,0,414.87,,,,,,,,,,,,
25204,1563729978495,6,1.26,0.49,0.43,0.82,0.69,0.75,0.05,0.63,0,-1,-0,0.75,0,0,90,42,99,955,0.0,121,360,60,120.0,0,1,0,0,0,0,0,0,250,250,0,414.87,,,,,,,,,,,,
25224,1563729978515,7,1.26,0.5,0.43,0.82,0.69,0.75,0.05,0.63,0,-1,-0,0.75,0,0,90,42,99,955,0.0,121,360,60,120.0,0,1,0,0,0,0,0,0,250,250,0,181.28,,,,,,,,,,,,
25244,1563729978535,7,1.26,0.49,0.44,0.82,0.69,0.75,0.05,0.63,0,-1,-0,0.75,0,0,90,42,99,955,0.0,121,357,60,120.0,0,1,0,0,0,0,0,0,250,250,0,414.87,45.747788,4.906539,0.0,195.1,0,0.0,-1,0.0,0.0,0,0.21,0.4207
25264,1563729978555,6,1.27,0.5,0.44,0.83,0.7,0.75,0.05,0.63,0,-1,-0,0.75,0,0,90,42,99,955,0.0,121,357,60,121.0,0,1,0,0,0,0,0,0,250,250,0,414.87,,,,,,,,,,,,
25284,1563729978575,7,1.27,0.5,0.44,0.82,0.7,0.75,0.05,0.63,0,-1,-0,0.75,0,0,90,42,99,956,0.0,121,357,60,121.0,0,1,0,0,0,0,0,0,250,250,0,414.87,,,,,,,,,,,,
25304,1563729978596,7,1.27,0.5,0.43,0.82,0.7,0.75,0.05,0.63,0,-1,-0,0.75,0,0,90,42,99,956,0.0,121,357,60,121.0,0,1,0,0,0,0,0,0,250,250,0,414.87,,,,,,,,,,,,
25324,1563729978616,7,1.27,0.5,0.44,0.83,0.7,0.75,0.05,0.63,0,-1,-0,0.75,0,0,90,42,99,956,0.0,121,357,60,121.0,0,1,0,0,0,0,0,0,250,250,0,414.87,,,,,,,,,,,,
25344,1563729978636,7,1.26,0.49,0.44,0.83,0.7,0.75,0.05,0.63,0,-1,-0,0.75,0,0,90,42,99,956,0.0,121,357,60,121.0,0,1,0,0,0,0,0,0,250,250,0,414.87,45.747788,4.906539,0.0,195.1,0,0.0,-1,0.0,0.0,0,0.21,0.4224
25364,1563729978656,6,1.27,0.51,0.44,0.83,0.7,0.75,0.05,0.63,0,-1,-0,0.75,0,0,90,42,99,956,0.0,122,357,60,120.0,0,1,0,0,0,0,0,0,250,250,0,414.87,,,,,,,,,,,,
25384,1563729978676,6,1.27,0.5,0.44,0.83,0.71,0.75,0.05,0.63,0,-1,-0,0.75,0,0,90,42,99,956,0.0,122,357,60,120.0,0,1,0,0,0,0,0,0,250,250,0,414.87,,,,,,,,,,,,
25404,1563729978694,5,1.28,0.5,0.44,0.83,0.71,0.75,0.05,0.62,0,-1,-0,0.75,0,0,90,42,99,957,0.0,122,356,60,120.0,0,1,0,0,0,0,0,0,250,250,0,414.87,,,,,,,,,,,,
25424,1563729978714,7,1.27,0.5,0.44,0.83,0.71,0.75,0.05,0.63,0,-1,-0,0.75,0,0,90,42,99,957,0.0,122,355,60,121.0,0,1,0,0,0,0,0,0,250,250,0,181.28,,,,,,,,,,,,
25444,1563729978734,5,1.28,0.51,0.45,0.84,0.71,0.75,0.05,0.62,0,-1,-0,0.75,0,0,90,43,99,957,0.0,122,355,60,120.0,0,1,0,0,0,0,0,0,250,250,0,414.87,45.747788,4.906539,0.0,195.1,0,0.0,-1,0.0,0.0,0,0.21,0.4241
25464,1563729978754,5,1.28,0.5,0.44,0.83,0.71,0.75,0.05,0.62,0,-1,-0,0.75,0,0,90,43,99,957,0.0,122,355,60,121.0,0,1,0,0,0,0,0,0,250,250,0,414.87,,,,,,,,,,,,
25484,1563729978774,7,1.27,0.51,0.44,0.84,0.71,0.75,0.05,0.62,0,-1,-0,0.75,0,0,90,43,99,957,0.0,122,355,60,121.0,0,1,0,0,0,0,0,0,250,250,0,414.87,,,,,,,,,,,,
25504,1563729978796,6,1.27,0.51,0.44,0.84,0.7,0.75,0.05,0.62,0,-1,-0,0.75,0,0,90,42,99,957,0.0,122,354,60,121.0,0,1,0,0,0,0,0,0,250,250,0,414.87,,,,,,,,,,,,
25524,1563729978816,7,1.27,0.5,0.45,0.84,0.71,0.75,0.05,0.62,0,-1,-0,0.75,0,0,90,43,99,957,0.0,122,354,60,121.0,0,1,0,0,0,0,0,0,250,250,0,414.87,,,,,,,,,,,,
25544,1563729978836,7,1.27,0.51,0.45,0.84,0.71,0.75,0.05,0.62,0,-1,-0,0.75,0,0,90,43,99,957,0.0,122,353,60,120.0,0,1,0,0,0,0,0,0,250,250,0,414.87,45.747788,4.906539,0.0,195.1,0,0.0,-1,0.0,0.0,0,0.21,0.4257
25564,1563729978856,5,1.28,0.51,0.45,0.84,0.71,0.75,0.05,0.62,0,-1,-0,0.75,0,0,90,43,99,957,0.0,122,352,60,120.0,0,1,0,0,0,0,0,0,250,250,0,181.28,,,,,,,,,,,,
25584,1563729978876,7,1.27,0.52,0.45,0.85,0.71,0.75,0.05,0.62,0,-1,-0,0.75,0,0,90,43,99,957,0.0,122,352,60,120.0,0,1,0,0,0,0,0,0,250,250,0,181.28,,,,,,,,,,,,
25604,1563729978896,7,1.28,0.52,0.45,0.84,0.71,0.75,0.05,0.62,0,-1,-0,0.75,0,0,90,43,99,958,0.0,122,352,60,121.0,0,1,0,0,0,0,0,0,250,250,0,414.87,,,,,,,,,,,,
25624,1563729978916,7,1.27,0.52,0.45,0.84,0.72,0.75,0.05,0.62,0,-1,-0,0.75,0,0,90,43,99,958,0.0,122,352,60,120.0,0,1,0,0,0,0,0,0,250,250,0,414.87,,,,,,,,,,,,
25644,1563729978936,5,1.28,0.51,0.45,0.85,0.72,0.75,0.05,0.63,0,-1,-0,0.75,0,0,90,43,99,958,0.0,122,352,60,121.0,0,1,0,0,0,0,0,0,250,250,0,414.87,45.747788,4.906539,0.0,195.1,0,0.0,-1,0.0,0.0,0,0.21,0.4274
25664,1563729978956,6,1.28,0.51,0.45,0.84,0.72,0.75,0.05,0.63,0,-1,-0,0.75,0,0,90,43,99,958,0.0,122,352,60,121.0,0,1,0,0,0,0,0,0,250,250,0,414.87,,,,,,,,,,,,
25684,1563729978976,7,1.27,0.52,0.45,0.85,0.71,0.75,0.05,0.63,0,-1,-0,0.75,0,0,90,43,99,958,0.0,122,351,60,121.0,0,1,0,0,0,0,0,0,250,250,0,414.87,,,,,,,,,,,,
25704,1563729978996,7,1.27,0.51,0.45,0.84,0.71,0.75,0.05,0.63,0,-1,-0,0.75,0,0,90,43,99,958,0.0,122,350,60,120.0,0,1,0,0,0,0,0,0,250,250,0,414.87,,,,,,,,,,,,
25724,1563729979010,7,1.26,0.5,0.45,0.84,0.7,0.75,0.05,0.63,0,-1,-0,0.75,0,0,90,43,99,958,0.0,122,350,60,120.0,0,1,0,0,0,0,0,0,250,250,0,414.87,,,,,,,,,,,,
25744,1563729979030,6,1.26,0.51,0.44,0.83,0.7,0.75,0.05,0.63,0,-1,-0,0.75,0,0,90,43,99,959,0.0,122,349,60,120.0,0,1,0,0,0,0,0,0,250,250,0,414.87,45.747788,4.906539,0.0,195.1,0,0.0,-1,0.0,0.0,0,0.21,0.4291
25764,1563729979050,6,1.27,0.5,0.43,0.82,0.69,0.75,0.05,0.63,0,-0,-0,0.75,0,0,90,43,99,959,0.0,122,349,60,120.0,0,1,0,0,0,0,0,0,250,250,0,414.87,,,,,,,,,,,,
25784,1563729979070,5,1.27,0.49,0.42,0.8,0.68,0.75,0.05,0.63,0,-0,-0,0.75,0,0,90,43,99,958,0.0,122,349,60,120.0,0,1,0,0,0,0,0,0,250,250,0,414.87,,,,,,,,,,,,
25804,1563729979096,7,1.27,0.49,0.41,0.8,0.66,0.75,0.05,0.63,0,-0,-0,0.75,0,0,90,43,99,959,0.0,122,349,60,121.0,0,1,0,0,0,0,0,0,250,250,0,414.87,,,,,,,,,,,,
25824,1563729979116,7,1.27,0.48,0.4,0.78,0.65,0.75,0.05,0.63,0,-0,-0,0.75,0,0,90,43,99,959,0.0,122,349,60,121.0,0,1,0,0,0,0,0,0,250,250,0,414.87,,,,,,,,,,,,
25844,1563729979136,7,1.26,0.48,0.39,0.78,0.63,0.75,0.05,0.63,0,-0,-0,0.75,0,0,90,43,99,959,0.0,122,348,60,121.0,0,1,0,0,0,0,0,0,250,250,0,414.87,45.747788,4.906539,0.0,195.1,0,0.0,-1,0.0,0.0,0,0.21,0.4307
25864,1563729979156,6,1.27,0.47,0.39,0.76,0.63,0.75,0.05,0.63,0,-0,-0,0.75,0,0,90,43,99,959,0.0,122,347,60,120.0,0,1,0,0,0,0,0,0,250,250,0,414.87,,,,,,,,,,,,
25884,1563729979176,5,1.28,0.46,0.38,0.76,0.61,0.75,0.05,0.63,0,-0,-0,0.75,0,0,90,43,99,959,0.0,121,347,60,120.0,0,1,0,0,0,0,0,0,250,250,0,414.87,,,,,,,,,,,,
25904,1563729979196,7,1.26,0.45,0.37,0.76,0.6,0.75,0.05,0.63,0,-0,-0,0.75,0,0,90,43,99,960,0.0,121,346,60,120.0,0,1,0,0,0,0,0,0,250,250,0,414.87,,,,,,,,,,,,
25924,1563729979216,5,1.28,0.44,0.36,0.74,0.6,0.75,0.05,0.63,0,-0,-0,0.75,0,0,90,43,99,960,0.0,121,346,60,120.0,0,1,0,0,0,0,0,0,250,250,0,414.87,,,,,,,,,,,,
25944,1563729979236,7,1.28,0.44,0.36,0.75,0.59,0.75,0.05,0.62,0,-0,-0,0.75,0,0,90,43,99,961,0.0,121,346,60,120.0,0,1,0,0,0,0,0,0,250,250,0,414.87,45.747788,4.906539,0.0,195.1,0,0.0,-1,0.0,0.0,0,0.21,0.4324
25964,1563729979256,7,1.26,0.43,0.35,0.75,0.58,0.75,0.05,0.62,0,-0,-0,0.75,0,0,90,43,99,961,0.0,121,346,60,121.0,0,1,0,0,0,0,0,0,250,250,0,414.87,,,,,,,,,,,,
25984,1563729979276,6,1.27,0.44,0.35,0.74,0.59,0.75,0.05,0.62,0,-0,-0,0.75,0,0,90,43,99,961,0.0,121,346,60,121.0,0,1,0,0,0,0,0,0,250,250,0,414.87,,,,,,,,,,,,
26004,1563729979296,7,1.27,0.43,0.35,0.74,0.58,0.75,0.05,0.62,0,-0,-0,0.75,0,0,90,43,99,961,0.0,121,346,60,121.0,0,1,0,0,0,0,0,0,250,250,0,414.87,,,,,,,,,,,,
26024,1563729979316,7,1.27,0.43,0.35,0.73,0.59,0.75,0.05,0.62,0,-0,-0,0.75,0,0,90,43,99,961,0.0,121,346,60,120.0,0,1,0,0,0,0,0,0,250,250,0,414.87,,,,,,,,,,,,
26044,1563729979336,7,1.26,0.43,0.35,0.74,0.58,0.75,0.05,0.62,0,-0,-0,0.75,0,0,90,43,99,961,0.0,121,346,60,120.0,0,1,0,0,0,0,0,0,250,250,0,414.87,45.747788,4.906539,0.0,195.1,0,0.0,-1,0.0,0.0,0,0.21,0.4341
26064,1563729979356,7,1.27,0.43,0.35,0.74,0.58,0.75,0.05,0.62,0,-0,-0,0.75,0,0,90,43,99,961,0.0,121,346,60,120.0,0,1,0,0,0,0,0,0,250,250,0,414.87,,,,,,,,,,,,
26084,1563729979376,7,1.27,0.43,0.35,0.74,0.58,0.75,0.05,0.62,0,-1,-0,0.75,0,0,90,43,99,961,0.0,121,345,60,120.0,0,1,0,0,0,0,0,0,250,250,0,414.87,,,,,,,,,,,,
26104,1563729979396,7,1.27,0.43,0.35,0.73,0.58,0.75,0.05,0.62,0,-1,-0,0.75,0,0,90,43,99,961,0.0,122,343,60,120.0,0,1,0,0,0,0,0,0,250,250,0,414.87,,,,,,,,,,,,
26124,1563729979416,7,1.27,0.42,0.34,0.73,0.57,0.75,0.05,0.62,0,-1,-0,0.75,0,0,90,43,99,961,0.0,122,343,60,120.0,0,1,0,0,0,0,0,0,250,250,0,414.87,,,,,,,,,,,,
26144,1563729979436,6,1.27,0.42,0.34,0.72,0.57,0.75,0.05,0.62,0,-1,-0,0.75,0,0,90,43,99,961,0.0,122,343,60,120.0,0,1,0,0,0,0,0,0,250,250,0,414.87,45.747788,4.906538,0.0,195.8,0,0.0,-1,0.0,0.0,0,0.21,0.4357
26164,1563729979456,6,1.27,0.41,0.34,0.72,0.57,0.75,0.05,0.62,0,-1,-0,0.75,0,0,90,43,99,962,0.0,122,343,60,121.0,0,1,0,0,0,0,0,0,250,250,0,414.87,,,,,,,,,,,,
26184,1563729979476,5,1.27,0.41,0.34,0.72,0.57,0.75,0.05,0.63,0,-1,-0,0.75,0,0,90,43,99,962,0.0,122,343,60,120.0,0,1,0,0,0,0,0,0,250,250,0,414.87,,,,,,,,,,,,
26204,1563729979494,7,1.27,0.41,0.33,0.73,0.56,0.75,0.05,0.63,0,-1,-0,0.75,0,0,90,43,99,962,0.0,122,343,60,121.0,0,1,0,0,0,0,0,0,250,250,0,414.87,,,,,,,,,,,,
26224,1563729979514,6,1.28,0.41,0.33,0.72,0.56,0.75,0.05,0.63,0,-1,-0,0.75,0,0,90,43,99,962,0.0,122,343,60,120.0,0,1,0,0,0,0,0,0,250,250,0,414.87,,,,,,,,,,,,
26244,1563729979534,7,1.26,0.42,0.33,0.73,0.57,0.75,0.05,0.63,0,-1,-0,0.75,0,0,90,43,99,963,0.0,121,343,60,120.0,0,1,0,0,0,0,0,0,250,250,0,414.87,45.747788,4.906538,0.0,196.0,0,0.0,-1,0.0,0.0,0,0.21,0.4374
26264,1563729979554,6,1.27,0.41,0.34,0.71,0.56,0.75,0.05,0.63,0,-1,-0,0.75,0,0,90,43,99,963,0.0,121,341,60,120.0,0,1,0,0,0,0,0,0,250,250,0,414.87,,,,,,,,,,,,
26284,1563729979574,6,1.28,0.41,0.33,0.72,0.55,0.75,0.05,0.63,0,-1,-0,0.75,0,0,90,43,99,963,0.0,121,341,60,120.0,0,1,0,0,0,0,0,0,250,250,0,414.87,,,,,,,,,,,,
26304,1563729979596,7,1.27,0.41,0.33,0.71,0.56,0.75,0.05,0.63,0,-1,-0,0.75,0,0,90,43,99,963,0.0,121,341,60,120.0,0,1,0,0,0,0,0,0,250,250,0,414.87,,,,,,,,,,,,
26324,1563729979616,7,1.27,0.4,0.33,0.72,0.56,0.75,0.05,0.63,0,-1,-0,0.75,0,0,90,43,99,963,0.0,121,341,60,121.0,0,1,0,0,0,0,0,0,250,250,0,414.87,,,,,,,,,,,,
26344,1563729979636,7,1.28,0.41,0.33,0.72,0.55,0.75,0.05,0.63,0,-1,-0,0.75,0,0,90,43,99,963,0.0,121,341,60,121.0,0,1,0,0,0,0,0,0,250,250,0,414.87,45.747788,4.906538,0.0,196.0,0,0.0,-1,0.0,0.0,0,0.21,0.4391
26364,1563729979656,6,1.27,0.41,0.33,0.72,0.55,0.75,0.05,0.63,0,-0,-0,0.75,0,0,90,43,99,963,0.0,121,341,60,121.0,0,1,0,0,0,0,0,0,250,250,0,414.87,,,,,,,,,,,,
26384,1563729979676,6,1.27,0.41,0.33,0.72,0.56,0.75,0.05,0.63,0,-0,-0,0.75,0,0,90,43,99,964,0.0,121,341,60,120.0,0,1,0,0,0,0,0,0,250,250,0,414.87,,,,,,,,,,,,
26404,1563729979691,6,1.27,0.41,0.33,0.72,0.56,0.75,0.05,0.63,0,-0,-0,0.75,0,0,90,43,99,964,0.0,121,341,60,120.0,0,1,0,0,0,0,0,0,250,250,0,414.87,,,,,,,,,,,,
26424,1563729979711,5,1.26,0.41,0.33,0.72,0.55,0.75,0.05,0.63,0,-0,-0,0.75,0,0,90,43,99,964,0.0,121,341,60,120.0,0,1,0,0,0,0,0,0,250,250,0,414.87,,,,,,,,,,,,
26444,1563729979731,5,1.27,0.41,0.33,0.72,0.55,0.75,0.05,0.63,0,-0,-0,0.75,0,0,90,43,99,964,0.0,121,341,60,120.0,0,1,0,0,0,0,0,0,250,250,0,414.87,45.747788,4.906538,0.0,196.4,0,0.0,-1,0.0,0.0,0,0.21,0.4407
26464,1563729979751,7,1.27,0.41,0.33,0.72,0.55,0.75,0.05,0.63,0,-0,-0,0.75,0,0,90,43,99,964,0.0,121,341,60,120.0,0,1,0,0,0,0,0,0,250,250,0,414.87,,,,,,,,,,,,
26484,1563729979771,6,1.26,0.41,0.33,0.71,0.55,0.75,0.05,0.63,0,-0,-0,0.75,0,0,90,43,99,964,0.0,121,341,60,120.0,0,1,0,0,0,0,0,0,250,250,0,414.87,,,,,,,,,,,,
26504,1563729979793,6,1.27,0.41,0.33,0.71,0.56,0.75,0.05,0.62,0,-1,-0,0.75,0,0,90,43,99,964,0.0,121,338,60,121.0,0,1,0,0,0,0,0,0,250,250,0,414.87,,,,,,,,,,,,
26524,1563729979813,5,1.28,0.41,0.33,0.71,0.56,0.75,0.05,0.62,0,-1,-0,0.75,0,0,90,43,99,964,0.0,121,338,60,121.0,0,1,0,0,0,0,0,0,250,250,0,414.87,,,,,,,,,,,,
26544,1563729979833,7,1.27,0.41,0.33,0.72,0.56,0.75,0.05,0.62,0,-1,-0,0.75,0,0,90,43,99,964,0.0,121,338,60,120.0,0,1,0,0,0,0,0,0,250,250,0,414.87,45.747788,4.906538,0.0,196.4,0,0.0,-1,0.0,0.0,0,0.21,0.4424
26564,1563729979853,5,1.27,0.41,0.34,0.72,0.56,0.75,0.05,0.62,0,-1,-0,0.75,0,0,90,43,99,964,0.0,121,338,60,120.0,0,1,0,0,0,0,0,0,250,250,0,414.87,,,,,,,,,,,,
26584,1563729979873,5,1.27,0.42,0.34,0.73,0.57,0.75,0.05,0.62,0,-1,-0,0.75,0,0,90,43,99,964,0.0,121,338,60,120.0,0,1,0,0,0,0,0,0,250,250,0,414.87,,,,,,,,,,,,
26604,1563729979893,6,1.26,0.43,0.34,0.73,0.57,0.75,0.05,0.62,0,-1,-0,0.75,0,0,90,43,99,964,0.0,121,338,60,120.0,0,1,0,0,0,0,0,0,250,250,0,414.87,,,,,,,,,,,,
26624,1563729979913,7,1.27,0.42,0.34,0.73,0.58,0.75,0.05,0.62,0,-1,-0,0.75,0,0,90,43,99,965,0.0,121,338,60,120.0,0,1,0,0,0,0,0,0,250,250,0,414.87,,,,,,,,,,,,
26644,1563729979933,5,1.27,0.43,0.35,0.73,0.58,0.75,0.05,0.62,0,-1,-0,0.75,0,0,90,43,99,965,0.0,121,338,60,120.0,0,1,0,0,0,0,0,0,250,250,0,414.87,45.747788,4.906538,0.0,197.2,0,0.0,-1,0.0,0.0,0,0.21,0.4441
26664,1563729979953,6,1.27,0.44,0.35,0.74,0.6,0.75,0.05,0.62,0,-1,-0,0.75,0,0,90,43,99,965,0.0,121,337,60,120.0,0,1,0,0,0,0,0,0,250,250,0,414.87,,,,,,,,,,,,
26684,1563729979973,6,1.27,0.45,0.36,0.76,0.6,0.75,0.05,0.62,0,-1,-0,0.75,0,0,90,43,99,965,0.0,121,336,60,121.0,0,1,0,0,0,0,0,0,250,250,0,414.87,,,,,,,,,,,,
26704,1563729979993,7,1.27,0.46,0.37,0.75,0.61,0.75,0.05,0.62,0,-1,-0,0.75,0,0,90,43,99,965,0.0,121,336,60,121.0,0,1,0,0,0,0,0,0,250,250,0,414.87,,,,,,,,,,,,
26724,1563729980007,6,1.27,0.46,0.38,0.76,0.62,0.75,0.05,0.63,0,-1,-0,0.75,0,0,90,43,99,965,0.0,122,336,60,120.0,0,1,0,0,0,0,0,0,250,250,0,414.87,,,,,,,,,,,,
26744,1563729980027,7,1.28,0.47,0.38,0.77,0.62,0.75,0.05,0.63,0,-1,-0,0.75,0,0,90,43,99,966,0.0,122,336,60,120.0,0,1,0,0,0,0,0,0,250,250,0,414.87,45.747788,4.906538,0.0,197.2,0,0.0,-1,0.0,0.0,0,0.21,0.4457
26764,1563729980047,6,1.27,0.48,0.38,0.79,0.63,0.75,0.05,0.63,0,-1,-0,0.75,0,0,90,43,99,966,0.0,122,336,60,120.0,0,1,0,0,0,0,0,0,250,250,0,414.87,,,,,,,,,,,,
26784,1563729980067,7,1.27,0.48,0.39,0.78,0.64,0.75,0.05,0.63,0,-1,-0,0.75,0,0,90,43,99,966,0.0,122,336,60,120.0,0,1,0,0,0,0,0,0,250,250,0,414.87,,,,,,,,,,,,
26804,1563729980093,7,1.27,0.49,0.39,0.79,0.64,0.75,0.05,0.63,0,-1,-0,0.75,0,0,90,43,99,966,0.0,122,336,60,120.0,0,1,0,0,0,0,0,0,250,250,0,414.87,,,,,,,,,,,,
26824,1563729980113,7,1.27,0.49,0.39,0.79,0.65,0.75,0.05,0.63,0,-1,-0,0.75,0,0,90,43,99,966,0.0,122,336,60,120.0,0,1,0,0,0,0,0,0,250,250,0,414.87,,,,,,,,,,,,
26844,1563729980133,7,1.27,0.49,0.4,0.8,0.66,0.75,0.05,0.63,0,-1,-0,0.75,0,0,90,43,99,966,0.0,122,336,60,120.0,0,1,0,0,0,0,0,0,250,250,0,414.87,45.747788,4.906538,0.0,197.2,0,0.0,-1,0.0,0.0,0,0.21,0.4474
26864,1563729980153,7,1.27,0.49,0.4,0.8,0.65,0.75,0.05,0.63,0,-0,-0,0.75,0,0,90,43,99,966,0.0,122,336,60,121.0,0,1,0,0,0,0,0,0,250,250,0,414.87,,,,,,,,,,,,
26884,1563729980173,6,1.27,0.5,0.4,0.8,0.65,0.75,0.05,0.63,0,-0,-0,0.75,0,0,90,43,99,966,0.0,122,336,60,121.0,0,1,0,0,0,0,0,0,250,250,0,414.87,,,,,,,,,,,,
26904,1563729980195,7,1.27,0.49,0.4,0.8,0.67,0.75,0.05,0.63,0,-0,-0,0.75,0,0,90,43,99,967,0.0,121,334,60,120.0,0,1,0,0,0,0,0,0,250,250,0,414.87,,,,,,,,,,,,
26924,1563729980215,6,1.28,0.5,0.41,0.8,0.67,0.75,0.05,0.62,0,-0,-0,0.75,0,0,90,43,99,967,0.0,121,334,60,120.0,0,1,0,0,0,0,0,0,250,250,0,414.87,,,,,,,,,,,,
26944,1563729980235,7,1.27,0.5,0.41,0.81,0.67,0.75,0.05,0.62,0,-0,-0,0.75,0,0,90,43,99,967,0.0,121,333,60,120.0,0,1,0,0,0,0,0,0,250,250,0,414.87,45.747788,4.906538,0.0,197.2,0,0.0,-1,0.0,0.0,0,0.21,0.4491
26964,1563729980255,6,1.27,0.5,0.41,0.8,0.67,0.75,0.05,0.62,0,-0,-0,0.75,0,0,90,43,99,967,0.0,121,333,60,120.0,0,1,0,0,0,0,0,0,250,250,0,414.87,,,,,,,,,,,,
26984,1563729980275,7,1.27,0.5,0.41,0.81,0.67,0.75,0.05,0.62,0,-0,-0,0.75,0,0,90,43,99,967,0.0,121,333,60,120.0,0,1,0,0,0,0,0,0,250,250,0,414.87,,,,,,,,,,,,
27004,1563729980293,6,1.26,0.5,0.41,0.8,0.67,0.75,0.05,0.62,0,-0,-0,0.75,0,0,90,43,99,967,0.0,121,333,60,121.0,0,1,0,0,0,0,0,0,250,250,0,414.87,,,,,,,,,,,,
27024,1563729980313,5,1.27,0.5,0.42,0.81,0.67,0.75,0.05,0.62,0,-1,-0,0.75,0,0,90,43,99,968,0.0,121,333,60,120.0,0,1,0,0,0,0,0,0,250,250,0,414.87,,,,,,,,,,,,
27044,1563729980333,7,1.26,0.51,0.41,0.82,0.68,0.75,0.05,0.62,0,-1,-0,0.75,0,0,90,43,99,968,0.0,122,333,60,120.0,0,1,0,0,0,0,0,0,250,250,0,414.87,45.747788,4.906538,0.0,199.3,0,0.0,-1,0.0,0.0,0,0.21,0.4507
27064,1563729980353,5,1.27,0.5,0.41,0.81,0.68,0.75,0.05,0.62,0,-1,-0,0.75,0,0,90,43,99,968,0.0,122,333,60,120.0,0,1,0,0,0,0,0,0,250,250,0,414.87,,,,,,,,,,,,
27084,1563729980373,6,1.27,0.5,0.42,0.81,0.68,0.75,0.05,0.62,0,-1,-0,0.75,0,0,90,43,99,968,0.0,122,333,60,120.0,0,1,0,0,0,0,0,0,250,250,0,414.87,,,,,,,,,,,,
27104,1563729980393,6,1.27,0.51,0.42,0.82,0.67,0.75,0.05,0.62,0,-1,-0,0.75,0,0,90,43,99,968,0.0,122,333,60,120.0,0,1,0,0,0,0,0,0,250,250,0,414.87,,,,,,,,,,,,
27124,1563729980413,6,1.27,0.51,0.42,0.82,0.68,0.75,0.05,0.62,0,-1,-0,0.75,0,0,90,43,99,969,0.0,122,333,60,120.0,0,1,0,0,0,0,0,0,250,250,0,414.87,,,,,,,,,,,,
27144,1563729980433,6,1.27,0.5,0.42,0.81,0.68,0.75,0.05,0.62,0,-1,-0,0.75,0,0,90,43,99,969,0.0,122,333,60,120.0,0,1,0,0,0,0,0,0,250,250,0,414.87,45.747788,4.906538,0.0,199.3,0,0.0,-1,0.0,0.0,0,0.21,0.4524
27164,1563729980453,6,1.27,0.51,0.42,0.82,0.68,0.75,0.05,0.62,0,-1,-0,0.75,0,0,90,43,99,969,0.0,122,330,60,120.0,0,1,0,0,0,0,0,0,250,250,0,414.87,,,,,,,,,,,,
27184,1563729980473,7,1.26,0.5,0.42,0.82,0.68,0.75,0.05,0.62,0,-1,-0,0.75,0,0,90,43,99,969,0.0,121,330,60,120.0,0,1,0,0,0,0,0,0,250,250,0,414.87,,,,,,,,,,,,
27204,1563729980493,7,1.26,0.51,0.42,0.82,0.68,0.75,0.05,0.62,0,-1,-0,0.75,0,0,90,43,99,969,0.0,121,330,60,120.0,0,1,0,0,0,0,0,0,250,250,0,414.87,,,,,,,,,,,,
27224,1563729980513,7,1.27,0.51,0.42,0.81,0.69,0.75,0.05,0.62,0,-1,-0,0.75,0,0,90,43,99,969,0.0,121,330,60,120.0,0,1,0,0,0,0,0,0,250,250,0,414.87,,,,,,,,,,,,
27244,1563729980533,6,1.27,0.5,0.42,0.83,0.68,0.75,0.05,0.62,0,-1,-0,0.75,0,0,90,43,99,969,0.0,121,330,60,120.0,0,1,0,0,0,0,0,0,250,250,0,414.87,45.747788,4.906538,0.0,199.3,0,0.0,-1,0.0,0.0,0,0.21,0.4541
27264,1563729980553,6,1.27,0.51,0.42,0.82,0.69,0.75,0.05,0.63,0,-1,-0,0.75,0,0,90,43,99,969,0.0,121,330,60,120.0,0,1,0,0,0,0,0,0,250,250,0,414.87,,,,,,,,,,,,
27284,1563729980573,5,1.27,0.51,0.42,0.82,0.69,0.75,0.05,0.63,0,-1,-0,0.75,0,0,90,43,99,970,0.0,121,330,60,120.0,0,1,0,0,0,0,0,0,250,250,0,414.87,,,,,,,,,,,,
27304,1563729980593,6,1.27,0.51,0.42,0.83,0.68,0.75,0.05,0.63,0,-1,-0,0.75,0,0,90,43,99,970,0.0,121,330,60,120.0,0,1,0,0,0,0,0,0,250,250,0,414.87,,,,,,,,,,,,
27324,1563729980613,6,1.27,0.51,0.43,0.82,0.69,0.75,0.05,0.63,0,-1,-0,0.75,0,0,90,43,99,970,0.0,121,330,60,120.0,0,1,0,0,0,0,0,0,250,250,0,181.28,,,,,,,,,,,,
27344,1563729980633,6,1.28,0.51,0.43,0.82,0.69,0.75,0.05,0.63,0,-1,-0,0.75,0,0,90,43,99,970,0.0,121,330,60,120.0,0,1,0,0,0,0,0,0,250,250,0,414.87,45.747788,4.906538,0.0,199.3,0,0.0,-1,0.0,0.0,0,0.21,0.4557
27364,1563729980653,6,1.27,0.51,0.43,0.82,0.69,0.75,0.05,0.63,0,-1,-0,0.75,0,0,90,43,99,970,0.0,121,330,60,121.0,0,1,0,0,0,0,0,0,250,250,0,414.87,,,,,,,,,,,,
27384,1563729980673,7,1.27,0.52,0.43,0.82,0.69,0.75,0.05,0.63,0,-1,-0,0.75,0,0,90,43,99,970,0.0,121,330,60,121.0,0,1,0,0,0,0,0,0,250,250,0,414.87,,,,,,,,,,,,
27404,1563729980692,7,1.27,0.51,0.43,0.83,0.69,0.75,0.05,0.63,0,-0,-0,0.75,0,0,90,43,99,970,0.0,121,330,60,120.0,0,1,0,0,0,0,0,0,250,250,0,414.87,,,,,,,,,,,,
27424,1563729980712,5,1.28,0.51,0.43,0.83,0.69,0.75,0.05,0.63,0,-0,-0,0.75,0,0,90,43,99,970,0.0,121,328,60,120.0,0,1,0,0,0,0,0,0,250,250,0,414.87,,,,,,,,,,,,
27444,1563729980732,6,1.27,0.51,0.43,0.83,0.69,0.75,0.05,0.63,0,-0,-0,0.75,0,0,90,43,99,971,0.0,121,327,60,120.0,0,1,0,0,0,0,0,0,250,250,0,414.87,45.747788,4.906538,0.0,199.3,0,0.0,-1,0.0,0.0,0,0.21,0.4574
27464,1563729980752,7,1.27,0.52,0.43,0.83,0.69,0.75,0.05,0.63,0,-0,-0,0.75,0,0,90,43,99,971,0.0,121,328,60,120.0,0,1,0,0,0,0,0,0,250,250,0,414.87,,,,,,,,,,,,
27484,1563729980772,6,1.27,0.51,0.43,0.82,0.7,0.75,0.05,0.62,0,-0,-0,0.75,0,0,90,43,99,971,0.0,121,327,60,120.0,0,1,0,0,0,0,0,0,250,250,0,414.87,,,,,,,,,,,,
27504,1563729980792,6,1.27,0.51,0.43,0.82,0.7,0.75,0.05,0.62,0,-0,-0,0.75,0,0,90,43,99,971,0.0,121,327,60,120.0,0,1,0,0,0,0,0,0,250,250,0,414.87,,,,,,,,,,,,
27524,1563729980812,7,1.27,0.52,0.43,0.82,0.69,0.75,0.05,0.62,0,-0,-0,0.75,0,0,90,43,99,971,0.0,121,327,60,121.0,0,1,0,0,0,0,0,0,250,250,0,414.87,,,,,,,,,,,,
27544,1563729980832,7,1.28,0.52,0.43,0.83,0.69,0.75,0.05,0.62,0,-0,-0,0.75,0,0,90,43,99,971,0.0,121,327,60,121.0,0,1,0,0,0,0,0,0,250,250,0,414.87,45.747788,4.906538,0.0,199.3,0,0.0,-1,0.0,0.0,0,0.21,0.4591
27564,1563729980852,5,1.28,0.52,0.43,0.83,0.69,0.75,0.05,0.62,0,-0,-0,0.75,0,0,90,43,99,971,0.0,121,327,60,121.0,0,1,0,0,0,0,0,0,250,250,0,414.87,,,,,,,,,,,,
27584,1563729980872,7,1.27,0.51,0.43,0.83,0.69,0.75,0.05,0.62,0,-0,-0,0.75,0,0,90,43,99,971,0.0,121,327,60,120.0,0,1,0,0,0,0,0,0,250,250,0,414.87,,,,,,,,,,,,
27604,1563729980892,7,1.27,0.52,0.43,0.83,0.69,0.75,0.05,0.62,0,-1,-0,0.75,0,0,90,43,99,971,0.0,121,327,60,120.0,0,1,0,0,0,0,0,0,250,250,0,414.87,,,,,,,,,,,,
27624,1563729980912,5,1.28,0.52,0.43,0.83,0.69,0.75,0.05,0.62,0,-1,-0,0.75,0,0,90,43,99,971,0.0,121,327,60,120.0,0,1,0,0,0,0,0,0,250,250,0,414.87,,,,,,,,,,,,
27644,1563729980932,7,1.26,0.52,0.43,0.83,0.69,0.75,0.05,0.62,0,-1,-0,0.75,0,0,90,43,99,971,0.0,121,327,60,120.0,0,1,0,0,0,0,0,0,250,250,0,414.87,45.747788,4.906538,0.0,199.3,0,0.0,-1,0.0,0.0,0,0.21,0.4607
27664,1563729980952,7,1.26,0.52,0.43,0.82,0.69,0.75,0.05,0.62,0,-1,-0,0.75,0,0,90,43,99,971,0.0,121,327,60,120.0,0,1,0,0,0,0,0,0,250,250,0,414.87,,,,,,,,,,,,
27684,1563729980972,7,1.28,0.52,0.43,0.83,0.69,0.75,0.05,0.62,0,-1,-0,0.75,0,0,90,43,99,972,0.0,121,325,60,120.0,0,1,0,0,0,0,0,0,250,250,0,414.87,,,,,,,,,,,,
27704,1563729980992,7,1.27,0.52,0.43,0.82,0.7,0.75,0.05,0.63,0,-1,-0,0.75,0,0,90,43,99,972,0.0,121,325,60,120.0,0,1,0,0,0,0,0,0,250,250,0,414.87,,,,,,,,,,,,
27724,1563729981007,7,1.27,0.52,0.43,0.83,0.69,0.75,0.05,0.63,0,-1,-0,0.75,0,0,90,43,99,972,0.0,121,325,60,120.0,0,1,0,0,0,0,0,0,250,250,0,414.87,,,,,,,,,,,,
27744,1563729981027,7,1.27,0.52,0.43,0.83,0.69,0.75,0.05,0.63,0,-1,-0,0.75,0,0,90,43,99,972,0.0,121,325,60,120.0,0,1,0,0,0,0,0,0,250,250,0,414.87,45.747788,4.906538,0.0,199.3,0,0.0,-1,0.0,0.0,0,0.21,0.4624
27764,1563729981047,6,1.27,0.51,0.43,0.83,0.7,0.75,0.05,0.63,0,-1,-0,0.75,0,0,90,43,99,972,0.0,121,325,60,120.0,0,1,0,0,0,0,0,0,250,250,0,414.87,,,,,,,,,,,,
27784,1563729981067,6,1.27,0.51,0.43,0.83,0.69,0.75,0.05,0.63,0,-1,-0,0.75,0,0,90,43,99,973,0.0,121,325,60,120.0,0,1,0,0,0,0,0,0,250,250,0,414.87,,,,,,,,,,,,
27804,1563729981092,7,1.26,0.51,0.43,0.83,0.69,0.75,0.05,0.63,0,-1,-0,0.75,0,0,90,43,99,973,0.0,121,325,60,120.0,0,1,0,0,0,0,0,0,250,250,0,414.87,,,,,,,,,,,,
27824,1563729981112,6,1.26,0.52,0.43,0.83,0.69,0.75,0.05,0.63,0,-1,-0,0.75,0,0,90,43,99,973,0.0,121,325,60,120.0,0,1,0,0,0,0,0,0,250,250,0,414.87,,,,,,,,,,,,
27844,1563729981132,7,1.26,0.52,0.43,0.83,0.69,0.75,0.05,0.63,0,-1,-0,0.75,0,0,90,43,99,974,0.0,121,325,60,120.0,0,1,0,0,0,0,0,0,250,250,0,414.87,45.747788,4.906538,0.0,199.3,0,0.0,-1,0.0,0.0,0,0.21,0.4641
27864,1563729981152,5,1.27,0.52,0.43,0.83,0.7,0.75,0.05,0.63,0,-0,-0,0.75,0,0,90,43,99,974,0.0,121,324,60,120.0,0,1,0,0,0,0,0,0,250,250,0,414.87,,,,,,,,,,,,
27884,1563729981172,7,1.27,0.52,0.43,0.84,0.69,0.75,0.05,0.63,0,-0,-0,0.75,0,0,90,43,99,974,0.0,121,324,60,120.0,0,1,0,0,0,0,0,0,250,250,0,414.87,,,,,,,,,,,,
27904,1563729981192,6,1.27,0.51,0.43,0.83,0.69,0.75,0.05,0.63,0,-0,-0,0.75,0,0,90,43,99,974,0.0,121,324,60,120.0,0,1,0,0,0,0,0,0,250,250,0,414.87,,,,,,,,,,,,
27924,1563729981212,7,1.27,0.52,0.43,0.83,0.69,0.75,0.05,0.63,0,-0,-0,0.75,0,0,90,43,99,974,0.0,121,324,60,120.0,0,1,0,0,0,0,0,0,250,250,0,414.87,,,,,,,,,,,,
27944,1563729981232,7,1.27,0.51,0.43,0.84,0.7,0.75,0.05,0.63,0,-0,-0,0.75,0,0,90,43,99,974,0.0,121,323,60,120.0,0,1,0,0,0,0,0,0,250,250,0,414.87,45.747788,4.906538,0.0,199.3,0,0.0,-1,0.0,0.0,0,0.21,0.4657
27964,1563729981252,6,1.27,0.51,0.43,0.83,0.7,0.75,0.05,0.63,0,-0,-0,0.75,0,0,90,43,99,974,0.0,121,322,60,120.0,0,1,0,0,0,0,0,0,250,250,0,181.28,,,,,,,,,,,,
27984,1563729981272,7,1.27,0.51,0.43,0.83,0.7,0.75,0.05,0.63,0,-0,-0,0.75,0,0,90,43,99,974,0.0,121,322,60,120.0,0,1,0,0,0,0,0,0,250,250,0,414.87,,,,,,,,,,,,
28004,1563729981292,6,1.28,0.52,0.43,0.83,0.69,0.75,0.05,0.62,0,-0,-0,0.75,0,0,90,43,99,974,0.0,121,322,60,120.0,0,1,0,0,0,0,0,0,250,250,0,414.87,,,,,,,,,,,,
28024,1563729981312,7,1.27,0.52,0.43,0.84,0.69,0.75,0.05,0.62,0,-0,-0,0.75,0,0,90,43,99,974,0.0,121,322,60,120.0,0,1,0,0,0,0,0,0,250,250,0,414.87,,,,,,,,,,,,
28044,1563729981332,7,1.27,0.51,0.43,0.83,0.7,0.75,0.05,0.62,0,-0,-0,0.75,0,0,90,43,99,974,0.0,121,322,60,120.0,0,1,0,0,0,0,0,0,250,250,0,414.87,45.747788,4.906538,0.0,199.3,0,0.0,-1,0.0,0.0,0,0.21,0.4674
28064,1563729981352,7,1.27,0.52,0.43,0.83,0.69,0.75,0.05,0.62,0,-0,-0,0.75,0,0,90,43,99,974,0.0,121,322,60,121.0,0,1,0,0,0,0,0,0,250,250,0,414.87,,,,,,,,,,,,
28084,1563729981372,7,1.27,0.51,0.43,0.83,0.69,0.75,0.05,0.62,0,-0,-0,0.75,0,0,90,43,99,974,0.0,121,322,60,120.0,0,1,0,0,0,0,0,0,250,250,0,181.28,,,,,,,,,,,,
28104,1563729981392,7,1.27,0.52,0.43,0.83,0.69,0.75,0.05,0.62,0,-0,-0,0.75,0,0,90,43,99,974,0.0,121,322,60,120.0,0,1,0,0,0,0,0,0,250,250,0,414.87,,,,,,,,,,,,
28124,1563729981412,6,1.28,0.52,0.42,0.83,0.7,0.75,0.05,0.62,0,-1,-0,0.75,0,0,90,43,99,974,0.0,121,322,60,120.0,0,1,0,0,0,0,0,0,250,250,0,414.87,,,,,,,,,,,,
28144,1563729981432,7,1.27,0.51,0.43,0.83,0.69,0.75,0.05,0.62,0,-1,-0,0.75,0,0,90,43,99,974,0.0,121,322,60,120.0,0,1,0,0,0,0,0,0,250,250,0,414.87,45.747788,4.906538,0.0,199.3,0,0.0,-1,0.0,0.0,0,0.21,0.4691
28164,1563729981452,7,1.27,0.52,0.43,0.83,0.69,0.75,0.05,0.62,0,-1,-0,0.75,0,0,90,43,99,975,0.0,121,322,60,120.0,0,1,0,0,0,0,0,0,250,250,0,414.87,,,,,,,,,,,,
28184,1563729981472,6,1.28,0.51,0.43,0.83,0.68,0.75,0.05,0.62,0,-1,-0,0.75,0,0,90,43,99,975,0.0,121,322,60,120.0,0,1,0,0,0,0,0,0,250,250,0,181.28,,,,,,,,,,,,
28204,1563729981492,6,1.27,0.51,0.43,0.82,0.69,0.75,0.05,0.63,0,-1,-0,0.75,0,0,90,43,99,975,0.0,121,322,60,120.0,0,1,0,0,0,0,0,0,250,250,0,414.87,,,,,,,,,,,,
28224,1563729981512,7,1.27,0.52,0.42,0.83,0.69,0.75,0.05,0.63,0,-1,-0,0.75,0,0,90,43,99,974,0.0,121,322,60,121.0,0,1,0,0,0,0,0,0,250,250,0,414.87,,,,,,,,,,,,
28244,1563729981532,7,1.27,0.51,0.42,0.82,0.69,0.75,0.05,0.63,0,-1,-0,0.75,0,0,90,43,99,974,0.0,121,321,60,120.0,0,1,0,0,0,0,0,0,250,250,0,414.87,45.747788,4.906538,0.0,199.3,0,0.0,-1,0.0,0.0,0,0.21,0.4707
28264,1563729981552,7,1.27,0.51,0.42,0.83,0.68,0.75,0.05,0.63,0,-1,-0,0.75,0,0,90,43,99,974,0.0,121,321,60,120.0,0,1,0,0,0,0,0,0,250,250,0,414.87,,,,,,,,,,,,
28284,1563729981572,7,1.27,0.51,0.42,0.83,0.69,0.75,0.05,0.63,0,-1,-0,0.75,0,0,90,43,99,975,0.0,121,319,60,120.0,0,1,0,0,0,0,0,0,250,250,0,414.87,,,,,,,,,,,,
28304,1563729981592,7,1.27,0.51,0.42,0.83,0.68,0.75,0.05,0.63,0,-1,-0,0.75,0,0,90,43,99,975,0.0,121,319,60,120.0,0,1,0,0,0,0,0,0,250,250,0,414.87,,,,,,,,,,,,
28324,1563729981612,7,1.27,0.51,0.42,0.82,0.69,0.75,0.05,0.63,0,-1,-0,0.75,0,0,90,43,99,975,0.0,121,319,60,120.0,0,1,0,0,0,0,0,0,250,250,0,414.87,,,,,,,,,,,,
28344,1563729981632,7,1.27,0.51,0.42,0.82,0.68,0.75,0.05,0.63,0,-1,-0,0.75,0,0,90,43,99,976,0.0,121,319,60,120.0,0,1,0,0,0,0,0,0,250,250,0,414.87,45.747788,4.906538,0.0,199.3,0,0.0,-1,0.0,0.0,0,0.21,0.4724
28364,1563729981652,7,1.27,0.51,0.42,0.82,0.69,0.75,0.05,0.63,0,-0,-0,0.75,0,0,90,43,99,976,0.0,121,318,60,120.0,0,1,0,0,0,0,0,0,250,250,0,414.87,,,,,,,,,,,,
28384,1563729981672,7,1.27,0.51,0.42,0.82,0.69,0.75,0.05,0.63,0,-0,-0,0.75,0,0,90,43,99,976,0.0,121,318,60,120.0,0,1,0,0,0,0,0,0,250,250,0,414.87,,,,,,,,,,,,
28404,1563729981693,7,1.27,0.51,0.41,0.83,0.68,0.75,0.05,0.63,0,-0,-0,0.75,0,0,90,43,99,976,0.0,121,318,60,120.0,0,1,0,0,0,0,0,0,250,250,0,414.87,,,,,,,,,,,,
28424,1563729981713,7,1.27,0.5,0.42,0.83,0.68,0.75,0.05,0.63,0,-0,-0,0.75,0,0,90,43,99,976,0.0,121,319,60,121.0,0,1,0,0,0,0,0,0,250,250,0,414.87,,,,,,,,,,,,
28444,1563729981733,7,1.27,0.51,0.42,0.83,0.69,0.75,0.05,0.63,0,-0,-0,0.75,0,0,90,43,99,976,0.0,121,318,60,120.0,0,1,0,0,0,0,0,0,250,250,0,414.87,45.747788,4.906538,0.0,199.3,0,0.0,-1,0.0,0.0,0,0.21,0.4741
28464,1563729981753,7,1.27,0.51,0.42,0.82,0.68,0.75,0.05,0.63,0,-0,-0,0.75,0,0,90,43,99,976,0.0,121,318,60,120.0,0,1,0,0,0,0,0,0,250,250,0,414.87,,,,,,,,,,,,
28484,1563729981773,7,1.26,0.51,0.42,0.83,0.68,0.75,0.05,0.63,0,-0,-0,0.75,0,0,90,43,99,976,0.0,121,318,60,120.0,0,1,0,0,0,0,0,0,250,250,0,414.87,,,,,,,,,,,,
28504,1563729981794,7,1.26,0.52,0.42,0.83,0.69,0.75,0.05,0.63,0,-0,-0,0.75,0,0,90,43,99,976,0.0,121,318,60,120.0,0,1,0,0,0,0,0,0,250,250,0,414.87,,,,,,,,,,,,
28524,1563729981814,7,1.26,0.51,0.42,0.83,0.68,0.75,0.05,0.63,0,-0,-0,0.75,0,0,90,43,99,976,0.0,121,318,60,120.0,0,1,0,0,0,0,0,0,250,250,0,414.87,,,,,,,,,,,,
28544,1563729981834,6,1.27,0.51,0.42,0.83,0.69,0.75,0.05,0.62,0,-0,-0,0.75,0,0,90,43,99,976,0.0,121,318,60,120.0,0,1,0,0,0,0,0,0,250,250,0,414.87,45.747788,4.906538,0.0,199.3,0,0.0,-1,0.0,0.0,0,0.21,0.4757
28564,1563729981854,5,1.27,0.51,0.43,0.83,0.68,0.75,0.05,0.62,0,-0,-0,0.75,0,0,90,43,99,976,0.0,121,318,60,120.0,0,1,0,0,0,0,0,0,250,250,0,414.87,,,,,,,,,,,,
28584,1563729981874,7,1.26,0.51,0.42,0.83,0.69,0.75,0.05,0.62,0,-1,-0,0.75,0,0,90,43,99,976,0.0,121,317,60,120.0,0,1,0,0,0,0,0,0,250,250,0,414.87,,,,,,,,,,,,
28604,1563729981893,7,1.27,0.51,0.42,0.83,0.68,0.75,0.05,0.62,0,-1,-0,0.75,0,0,90,43,99,976,0.0,121,317,60,120.0,0,1,0,0,0,0,0,0,250,250,0,414.87,,,,,,,,,,,,
28624,1563729981913,7,1.27,0.51,0.42,0.83,0.68,0.75,0.05,0.62,0,-1,-0,0.75,0,0,90,43,99,976,0.0,121,317,60,120.0,0,1,0,0,0,0,0,0,250,250,0,414.87,,,,,,,,,,,,
28644,1563729981933,6,1.27,0.52,0.42,0.83,0.68,0.75,0.05,0.62,0,-1,-0,0.75,0,0,90,43,99,977,0.0,121,316,60,120.0,0,1,0,0,0,0,0,0,250,250,0,414.87,45.747788,4.906538,0.0,199.3,0,0.0,-1,0.0,0.0,0,0.21,0.4774
28664,1563729981953,6,1.28,0.51,0.42,0.83,0.69,0.75,0.05,0.62,0,-1,-0,0.75,0,0,90,43,99,977,0.0,121,316,60,120.0,0,1,0,0,0,0,0,0,250,250,0,414.87,,,,,,,,,,,,
28684,1563729981973,6,1.28,0.51,0.42,0.82,0.69,0.75,0.05,0.62,0,-1,-0,0.75,0,0,90,43,99,977,0.0,121,316,60,120.0,0,1,0,0,0,0,0,0,250,250,0,414.87,,,,,,,,,,,,
28704,1563729981993,7,1.27,0.51,0.41,0.83,0.67,0.75,0.05,0.62,0,-1,-0,0.75,0,0,90,43,99,978,0.0,121,316,60,120.0,0,1,0,0,0,0,0,0,250,250,0,414.87,,,,,,,,,,,,
28724,1563729982005,7,1.27,0.51,0.41,0.82,0.67,0.75,0.05,0.62,0,-1,-0,0.75,0,0,90,43,99,978,0.0,121,316,60,120.0,0,1,0,0,0,0,0,0,250,250,0,414.87,,,,,,,,,,,,
28744,1563729982025,7,1.27,0.51,0.41,0.82,0.67,0.75,0.05,0.62,0,-1,-0,0.75,0,0,90,43,99,978,0.0,121,316,60,121.0,0,1,0,0,0,0,0,0,250,250,0,414.87,45.747788,4.906538,0.0,199.3,0,0.0,-1,0.0,0.0,0,0.21,0.4791
28764,1563729982045,6,1.28,0.51,0.41,0.82,0.66,0.75,0.05,0.63,0,-1,-0,0.75,0,0,90,43,99,978,0.0,121,316,60,120.0,0,1,0,0,0,0,0,0,250,250,0,414.87,,,,,,,,,,,,
28784,1563729982065,6,1.27,0.51,0.4,0.82,0.66,0.75,0.05,0.63,0,-1,-0,0.75,0,0,90,43,99,978,0.0,121,316,60,120.0,0,1,0,0,0,0,0,0,250,250,0,414.87,,,,,,,,,,,,
28804,1563729982093,7,1.26,0.5,0.4,0.81,0.66,0.75,0.05,0.63,0,-1,-0,0.75,0,0,90,43,99,978,0.0,121,316,60,120.0,0,1,0,0,0,0,0,0,250,250,0,414.87,,,,,,,,,,,,
28824,1563729982113,7,1.27,0.51,0.41,0.81,0.66,0.75,0.05,0.63,0,-1,-0,0.75,0,0,90,43,99,978,0.0,122,316,60,120.0,0,1,0,0,0,0,0,0,250,250,0,414.87,,,,,,,,,,,,
28844,1563729982133,6,1.27,0.51,0.41,0.82,0.66,0.75,0.05,0.63,0,-1,-0,0.75,0,0,90,43,99,978,0.0,122,316,60,120.0,0,1,0,0,0,0,0,0,250,250,0,414.87,45.747788,4.906538,0.0,199.3,0,0.0,-1,0.0,0.0,0,0.21,0.4807
28864,1563729982153,7,1.27,0.5,0.41,0.81,0.67,0.75,0.05,0.63,0,-1,-0,0.75,0,0,90,43,99,978,0.0,122,316,60,120.0,0,1,0,0,0,0,0,0,250,250,0,414.87,,,,,,,,,,,,
28884,1563729982173,7,1.27,0.51,0.41,0.81,0.67,0.75,0.05,0.63,0,-0,-0,0.75,0,0,90,43,99,978,0.0,121,315,60,120.0,0,1,0,0,0,0,0,0,250,250,0,414.87,,,,,,,,,,,,
28904,1563729982193,7,1.27,0.51,0.41,0.81,0.67,0.75,0.05,0.63,0,-0,-0,0.75,0,0,90,43,99,979,0.0,121,315,60,120.0,0,1,0,0,0,0,0,0,250,250,0,414.87,,,,,,,,,,,,
28924,1563729982213,6,1.27,0.51,0.41,0.82,0.66,0.75,0.05,0.63,0,-0,-0,0.75,0,0,90,43,99,979,0.0,121,315,60,121.0,0,1,0,0,0,0,0,0,250,250,0,414.87,,,,,,,,,,,,
28944,1563729982233,6,1.27,0.5,0.41,0.81,0.67,0.75,0.05,0.63,0,-0,-0,0.75,0,0,90,43,99,979,0.0,122,314,60,120.0,0,1,0,0,0,0,0,0,250,250,0,414.87,45.747788,4.906538,0.0,199.3,0,0.0,-1,0.0,0.0,0,0.21,0.4824
28964,1563729982253,6,1.27,0.51,0.41,0.81,0.67,0.75,0.05,0.63,0,-0,-0,0.75,0,0,90,43,99,979,0.0,121,314,60,120.0,0,1,0,0,0,0,0,0,250,250,0,414.87,,,,,,,,,,,,
28984,1563729982273,6,1.27,0.5,0.4,0.81,0.66,0.75,0.05,0.63,0,-0,-0,0.75,0,0,90,43,99,978,0.0,121,314,60,120.0,0,1,0,0,0,0,0,0,250,250,0,414.87,,,,,,,,,,,,
29004,1563729982293,5,1.27,0.5,0.4,0.81,0.67,0.75,0.05,0.63,0,-0,-0,0.75,0,0,90,43,99,979,0.0,121,314,60,120.0,0,1,0,0,0,0,0,0,250,250,0,414.87,,,,,,,,,,,,
29024,1563729982313,6,1.26,0.5,0.4,0.8,0.65,0.75,0.05,0.63,0,-0,-0,0.75,0,0,90,43,99,979,0.0,121,314,60,120.0,0,1,0,0,0,0,0,0,250,250,0,414.87,,,,,,,,,,,,
29044,1563729982333,7,1.27,0.5,0.39,0.8,0.66,0.75,0.05,0.63,0,-0,-0,0.75,0,0,90,43,99,979,0.0,121,314,60,120.0,0,1,0,0,0,0,0,0,250,250,0,414.87,45.747788,4.906538,0.0,199.3,0,0.0,-1,0.0,0.0,0,0.21,0.4841
29064,1563729982353,7,1.26,0.5,0.4,0.81,0.65,0.75,0.05,0.63,0,-0,-0,0.75,0,0,90,43,99,979,0.0,121,314,60,120.0,0,1,0,0,0,0,0,0,250,250,0,414.87,,,,,,,,,,,,
29084,1563729982373,7,1.27,0.5,0.4,0.81,0.65,0.75,0.05,0.62,0,-0,-0,0.75,0,0,90,43,99,979,0.0,121,314,60,120.0,0,1,0,0,0,0,0,0,250,250,0,414.87,,,,,,,,,,,,
29104,1563729982393,7,1.27,0.5,0.4,0.81,0.66,0.75,0.05,0.62,0,-0,-0,0.75,0,0,90,43,99,979,0.0,121,314,60,120.0,0,1,0,0,0,0,0,0,250,250,0,414.87,,,,,,,,,,,,
29124,1563729982413,6,1.27,0.5,0.4,0.8,0.65,0.75,0.05,0.62,0,-0,-0,0.75,0,0,90,43,99,980,0.0,121,314,60,120.0,0,1,0,0,0,0,0,0,250,250,0,414.87,,,,,,,,,,,,
29144,1563729982433,7,1.27,0.5,0.4,0.81,0.66,0.75,0.05,0.62,0,-0,-0,0.75,0,0,90,43,99,980,0.0,121,314,60,120.0,0,1,0,0,0,0,0,0,250,250,0,414.87,45.747788,4.906538,0.0,199.3,0,0.0,-1,0.0,0.0,0,0.21,0.4857
29164,1563729982453,7,1.27,0.5,0.4,0.81,0.66,0.75,0.05,0.62,0,-1,-0,0.75,0,0,90,43,99,980,0.0,121,314,60,120.0,0,1,0,0,0,0,0,0,250,250,0,414.87,,,,,,,,,,,,
29184,1563729982473,7,1.27,0.51,0.41,0.8,0.67,0.75,0.05,0.62,0,-1,-0,0.75,0,0,90,43,99,980,0.0,121,314,60,120.0,0,1,0,0,0,0,0,0,250,250,0,414.87,,,,,,,,,,,,
29204,1563729982493,7,1.26,0.51,0.4,0.81,0.66,0.75,0.05,0.62,0,-1,-0,0.75,0,0,90,43,99,980,0.0,121,314,60,120.0,0,1,0,0,0,0,0,0,250,250,0,414.87,,,,,,,,,,,,
29224,1563729982513,7,1.27,0.51,0.4,0.82,0.67,0.75,0.05,0.62,0,-1,-0,0.75,0,0,90,43,99,980,0.0,121,314,60,120.0,0,1,0,0,0,0,0,0,250,250,0,181.28,,,,,,,,,,,,
29244,1563729982533,7,1.27,0.51,0.41,0.81,0.67,0.75,0.05,0.63,0,-1,-0,0.75,0,0,90,43,99,980,0.0,121,313,60,120.0,0,1,0,0,0,0,0,0,250,250,0,414.87,45.747788,4.906538,0.0,199.3,0,0.0,-1,0.0,0.0,0,0.21,0.4874
29264,1563729982553,7,1.27,0.51,0.41,0.81,0.66,0.75,0.05,0.63,0,-1,-0,0.75,0,0,90,43,99,980,0.0,121,313,60,121.0,0,1,0,0,0,0,0,0,250,250,0,414.87,,,,,,,,,,,,
29284,1563729982573,6,1.28,0.51,0.41,0.81,0.67,0.75,0.05,0.63,0,-1,-0,0.75,0,0,90,43,99,980,0.0,121,313,60,120.0,0,1,0,0,0,0,0,0,250,250,0,414.87,,,,,,,,,,,,
29304,1563729982594,6,1.28,0.51,0.41,0.82,0.66,0.75,0.05,0.63,0,-1,-0,0.75,0,0,90,43,99,980,0.0,121,312,60,120.0,0,1,0,0,0,0,0,0,250,250,0,414.87,,,,,,,,,,,,
29324,1563729982614,7,1.27,0.51,0.41,0.81,0.67,0.75,0.05,0.63,0,-1,-0,0.75,0,0,90,43,99,980,0.0,121,312,60,120.0,0,1,0,0,0,0,0,0,250,250,0,414.87,,,,,,,,,,,,
29344,1563729982634,6,1.28,0.51,0.41,0.81,0.67,0.75,0.05,0.63,0,-1,-0,0.75,0,0,90,43,99,980,0.0,121,312,60,120.0,0,1,0,0,0,0,0,0,250,250,0,414.87,45.747788,4.906538,0.0,199.3,0,0.0,-1,0.0,0.0,0,0.21,0.4891
29364,1563729982654,7,1.27,0.51,0.41,0.82,0.66,0.75,0.05,0.63,0,-1,-0,0.75,0,0,90,43,99,980,0.0,122,311,60,120.0,0,1,0,0,0,0,0,0,250,250,0,414.87,,,,,,,,,,,,
29384,1563729982674,7,1.27,0.51,0.41,0.82,0.67,0.75,0.05,0.63,0,-1,-0,0.75,0,0,90,43,99,980,0.0,122,311,60,120.0,0,1,0,0,0,0,0,0,250,250,0,414.87,,,,,,,,,,,,
29404,1563729982692,6,1.28,0.51,0.41,0.82,0.68,0.75,0.05,0.63,0,-1,-0,0.75,0,0,90,43,99,980,0.0,122,311,60,120.0,0,1,0,0,0,0,0,0,250,250,0,414.87,,,,,,,,,,,,
29424,1563729982712,7,1.26,0.52,0.41,0.83,0.67,0.75,0.05,0.63,0,-1,-0,0.75,0,0,90,43,99,980,0.0,122,311,60,120.0,0,1,0,0,0,0,0,0,250,250,0,414.87,,,,,,,,,,,,
29444,1563729982732,7,1.27,0.51,0.42,0.82,0.68,0.75,0.05,0.63,0,-0,-0,0.75,0,0,90,43,99,980,0.0,122,311,60,120.0,0,1,0,0,0,0,0,0,250,250,0,414.87,45.747788,4.906538,0.0,199.3,0,0.0,-1,0.0,0.0,0,0.21,0.4907
29464,1563729982752,6,1.27,0.52,0.42,0.82,0.68,0.75,0.05,0.63,0,-0,-0,0.75,0,0,90,43,99,980,0.0,122,310,60,120.0,0,1,0,0,0,0,0,0,250,250,0,414.87,,,,,,,,,,,,
29484,1563729982772,6,1.28,0.52,0.42,0.82,0.69,0.75,0.05,0.63,0,-0,-0,0.75,0,0,90,43,99,981,0.0,122,310,60,120.0,0,1,0,0,0,0,0,0,250,250,0,414.87,,,,,,,,,,,,
29504,1563729982792,7,1.27,0.52,0.42,0.83,0.69,0.75,0.05,0.63,0,-0,-0,0.75,0,0,90,43,99,981,0.0,122,309,60,120.0,0,1,0,0,0,0,0,0,250,250,0,414.87,,,,,,,,,,,,
29524,1563729982812,7,1.27,0.52,0.42,0.84,0.68,0.75,0.05,0.63,0,-0,-0,0.75,0,0,90,43,99,981,0.0,122,309,60,120.0,0,1,0,0,0,0,0,0,250,250,0,181.28,,,,,,,,,,,,
29544,1563729982832,7,1.27,0.52,0.43,0.84,0.69,0.75,0.05,0.63,0,-0,-0,0.75,0,0,90,43,99,981,0.0,122,309,60,120.0,0,1,0,0,0,0,0,0,250,250,0,414.87,45.747788,4.906538,0.0,199.3,0,0.0,-1,0.0,0.0,0,0.21,0.4924
29564,1563729982852,6,1.27,0.53,0.43,0.83,0.69,0.75,0.05,0.63,0,-0,-0,0.75,0,0,90,43,99,981,0.0,122,310,60,120.0,0,1,0,0,0,0,0,0,250,250,0,414.87,,,,,,,,,,,,
29584,1563729982872,7,1.27,0.52,0.42,0.83,0.69,0.75,0.05,0.63,0,-0,-0,0.75,0,0,90,43,99,981,0.0,122,310,60,120.0,0,1,0,0,0,0,0,0,250,250,0,414.87,,,,,,,,,,,,
29604,1563729982892,7,1.26,0.53,0.42,0.83,0.69,0.75,0.05,0.63,0,-0,-0,0.75,0,0,90,43,99,981,0.0,122,310,60,120.0,0,1,0,0,0,0,0,0,250,250,0,414.87,,,,,,,,,,,,
29624,1563729982912,6,1.27,0.53,0.42,0.83,0.69,0.75,0.05,0.62,0,-0,-0,0.75,0,0,90,43,99,982,0.0,122,310,60,120.0,0,1,0,0,0,0,0,0,250,250,0,414.87,,,,,,,,,,,,
29644,1563729982932,6,1.27,0.52,0.43,0.84,0.69,0.75,0.05,0.62,0,-0,-0,0.75,0,0,90,43,99,982,0.0,122,310,60,120.0,0,1,0,0,0,0,0,0,250,250,0,414.87,45.747788,4.906538,0.0,199.3,0,0.0,-1,0.0,0.0,0,0.21,0.4941
29664,1563729982952,6,1.27,0.52,0.43,0.84,0.69,0.75,0.05,0.62,0,-1,-0,0.75,0,0,90,43,99,982,0.0,122,309,60,120.0,0,1,0,0,0,0,0,0,250,250,0,414.87,,,,,,,,,,,,
29684,1563729982972,7,1.27,0.52,0.42,0.84,0.69,0.75,0.05,0.62,0,-1,-0,0.75,0,0,90,43,99,982,0.0,122,308,60,120.0,0,1,0,0,0,0,0,0,250,250,0,414.87,,,,,,,,,,,,
29704,1563729982992,7,1.27,0.52,0.42,0.84,0.7,0.75,0.05,0.62,0,-1,-0,0.75,0,0,90,43,99,982,0.0,122,308,60,120.0,0,1,0,0,0,0,0,0,250,250,0,414.87,,,,,,,,,,,,
29724,1563729983006,8,1.27,0.53,0.43,0.84,0.7,0.75,0.05,0.62,0,-1,-0,0.75,0,0,90,43,99,982,0.0,122,308,60,120.0,0,1,0,0,0,0,0,0,250,250,0,181.28,,,,,,,,,,,,
29744,1563729983026,7,1.27,0.53,0.43,0.85,0.69,0.75,0.05,0.62,0,-1,-0,0.75,0,0,90,43,99,982,0.0,122,308,60,120.0,0,1,0,0,0,0,0,0,250,250,0,414.87,45.747788,4.906538,0.0,199.3,0,0.0,-1,0.0,0.0,0,0.21,0.4957
29764,1563729983046,7,1.27,0.53,0.43,0.85,0.7,0.75,0.05,0.62,0,-1,-0,0.75,0,0,90,43,99,982,0.0,121,308,60,120.0,0,1,0,0,0,0,0,0,250,250,0,414.87,,,,,,,,,,,,
29784,1563729983066,7,1.27,0.53,0.42,0.84,0.7,0.75,0.05,0.62,0,-1,-0,0.75,0,0,90,43,99,982,0.0,121,308,60,120.0,0,1,0,0,0,0,0,0,250,250,0,414.87,,,,,,,,,,,,
29804,1563729983086,7,1.26,0.53,0.43,0.84,0.7,0.75,0.05,0.62,0,-1,-0,0.75,0,0,90,43,99,982,0.0,121,308,60,120.0,0,1,0,0,0,0,0,0,250,250,0,414.87,,,,,,,,,,,,
29824,1563729983104,6,1.26,0.53,0.43,0.84,0.7,0.75,0.05,0.62,0,-1,-0,0.75,0,0,90,43,99,982,0.0,121,308,60,120.0,0,1,0,0,0,0,0,0,250,250,0,414.87,,,,,,,,,,,,
29844,1563729983124,7,1.26,0.53,0.43,0.85,0.7,0.75,0.05,0.63,0,-1,-0,0.75,0,0,90,43,99,982,0.0,121,308,60,120.0,0,1,0,0,0,0,0,0,250,250,0,414.87,45.747788,4.906538,0.0,199.3,0,0.0,-1,0.0,0.0,0,0.21,0.4974
29864,1563729983144,7,1.26,0.53,0.43,0.85,0.7,0.75,0.05,0.63,0,-1,-0,0.75,0,0,90,43,99,982,0.0,121,308,60,120.0,0,1,0,0,0,0,0,0,250,250,0,414.87,,,,,,,,,,,,
29884,1563729983164,7,1.26,0.53,0.43,0.85,0.7,0.75,0.05,0.63,0,-1,-0,0.75,0,0,90,43,99,982,0.0,121,308,60,120.0,0,1,0,0,0,0,0,0,250,250,0,414.87,,,,,,,,,,,,
29904,1563729983192,7,1.27,0.53,0.43,0.85,0.71,0.75,0.05,0.63,0,-1,-0,0.75,0,0,90,43,99,982,0.0,121,308,60,120.0,0,1,0,0,0,0,0,0,250,250,0,414.87,,,,,,,,,,,,
29924,1563729983212,6,1.27,0.53,0.44,0.85,0.7,0.75,0.05,0.63,0,-1,-0,0.75,0,0,90,43,99,983,0.0,121,308,60,120.0,0,1,0,0,0,0,0,0,250,250,0,414.87,,,,,,,,,,,,
29944,1563729983232,7,1.27,0.53,0.43,0.85,0.7,0.75,0.05,0.63,0,-1,-0,0.75,0,0,90,43,99,983,0.0,121,308,60,120.0,0,1,0,0,0,0,0,0,250,250,0,414.87,45.747788,4.906538,0.0,199.3,0,0.0,-1,0.0,0.0,0,0.21,0.4991
29964,1563729983252,7,1.27,0.53,0.43,0.86,0.7,0.75,0.05,0.63,0,-1,-0,0.75,0,0,90,43,99,983,0.0,121,308,60,120.0,0,1,0,0,0,0,0,0,250,250,0,414.87,,,,,,,,,,,,
29984,1563729983272,6,1.27,0.53,0.44,0.85,0.71,0.75,0.05,0.63,0,-0,-0,0.75,0,0,90,43,99,983,0.0,121,308,60,120.0,0,1,0,0,0,0,0,0,250,250,0,414.87,,,,,,,,,,,,
30004,1563729983292,7,1.27,0.53,0.43,0.86,0.7,0.75,0.05,0.63,0,-0,-0,0.75,0,0,90,43,99,984,0.0,121,308,60,120.0,0,1,0,0,0,0,0,0,250,250,0,414.87,,,,,,,,,,,,
30024,1563729983312,7,1.27,0.53,0.43,0.86,0.7,0.75,0.05,0.63,0,-0,-0,0.75,0,0,90,43,99,984,0.0,121,308,60,120.0,0,1,0,0,0,0,0,0,250,250,0,414.87,,,,,,,,,,,,
30044,1563729983332,6,1.27,0.53,0.44,0.85,0.7,0.75,0.05,0.63,0,-0,-0,0.75,0,0,90,43,99,984,0.0,121,308,60,120.0,0,1,0,0,0,0,0,0,250,250,0,414.87,45.747788,4.906538,0.0,199.3,0,0.0,-1,0.0,0.0,0,0.21,0.5007
30064,1563729983352,7,1.27,0.52,0.43,0.86,0.7,0.75,0.05,0.63,0,-0,-0,0.75,0,0,90,43,99,984,0.0,121,308,60,120.0,0,1,0,0,0,0,0,0,250,250,0,414.87,,,,,,,,,,,,
30084,1563729983372,6,1.28,0.53,0.43,0.85,0.71,0.75,0.05,0.63,0,-0,-0,0.75,0,0,90,43,99,984,0.0,122,306,60,120.0,0,1,0,0,0,0,0,0,250,250,0,414.87,,,,,,,,,,,,
