"Interval"|"ms"|0|0|1,"Utc"|"ms"|0|0|1,"FB_p"|"bar"|0|300|50,"Volant"|"F"|0.0|300.0|50,"xFR"|"mm"|0.0|5.0|50,"xRR"|"mm"|0.0|5.0|50,"xFL"|"mm"|0.0|5.0|50,"xRL"|"mm"|0.0|5.0|50,"AccelX"|"G"|-3.0|3.0|50,"AccelY"|"G"|-3.0|3.0|50,"AccelZ"|"G"|-3.0|3.0|50,"Yaw"|"Deg/Sec"|-120|120|50,"Pitch"|"Deg/Sec"|-120|120|50,"Roll"|"Deg/Sec"|-120|120|50,"Gsum"|"G"|0.0|3.0|50,"RPM"|""|0|14000|50,"TPS"|"%"|0|100|50,"WaterTemp"|"?C"|0|300|50,"AirTemp"|"?C"|-1000|1000|50,"MAP"|"KPa"|0|255|50,"Lambda"|""|0|1024|50,"WheelSpeed"|"MPH"|0.0|150.0|50,"OilPress"|"PSI"|0|150|50,"FuelPress"|"PSI"|0|150|50,"OilTemp"|"F"|0|300|50,"Battery"|"Volts"|0.0|20.0|50,"FuelCon"|"L/h"|-1000|1000|50,"Gear"|""|0|10|50,"Advance"|"Deg"|-360|360|50,"Injection"|"ms"|-1000|1000|50,"FuelCon"|"L/100km"|-1000|1000|50,"LC_But_Pres"|""|-1000|1000|50,"LC_Active"|""|-1000|1000|50,"RD_Speed"|""|-1000|1000|50,"RUD_Speed"|""|-1000|1000|50,"LD_Speed"|""|-1000|1000|50,"LUD_Speed"|""|-1000|1000|50,"Ana1"|"bar"|-1000.0|1000.0|50,"Latitude"|"Degrees"|-180.0|180.0|10,"Longitude"|"Degrees"|-180.0|180.0|10,"Speed"|"kph"|0.0|150.0|10,"Altitude"|"m"|0.0|4000.0|10,"LapCount"|""|0|0|10,"LapTime"|"Min"|0.0|0.0|10,"Sector"|""|0|0|10,"SectorTime"|"Min"|0.0|0.0|10,"ElapsedTime"|"Min"|0.0|0.0|10,"CurrentLap"|""|0|0|10,"Distance"|"km"|0.0|0.0|10,"SessionTime"|"Min"|0.0|0.0|10
29064,1563730081477,11,2.28,0.77,0.55,1.0,0.84,0.82,0.09,0.48,-0,-1,-1,0.83,9328,31,99,38,43,728,0.0,671,474,60,119.0,0,1,348,234,83,0,0,748,250,250,0,882.05,,,,,,,,,,,,
29084,1563730081497,8,2.28,0.76,0.54,1.01,0.84,0.69,0.08,0.41,-0,-0,1,0.69,9508,31,99,38,43,735,0.0,676,469,60,118.0,0,1,350,236,83,0,0,748,250,250,0,414.87,,,,,,,,,,,,
29104,1563730081517,10,2.27,0.77,0.54,1.0,0.84,0.73,0.09,0.42,-0,-0,-0,0.73,9610,31,99,38,42,741,0.0,675,467,60,119.0,0,1,342,234,83,0,0,748,250,250,0,648.46,,,,,,,,,,,,
29124,1563730081537,8,2.27,0.77,0.54,0.99,0.83,0.73,0.07,0.46,-1,-1,0,0.73,9720,30,98,38,41,746,0.0,676,472,60,119.0,0,1,335,231,83,0,0,748,250,250,0,882.05,,,,,,,,,,,,
29144,1563730081557,10,2.28,0.77,0.54,1.0,0.83,0.8,0.1,0.47,-0,-1,-0,0.8,9796,30,98,38,41,753,0.0,680,470,60,118.0,0,1,335,232,83,0,0,748,250,250,0,648.46,45.747807,4.906547,0.0,195.1,0,0.0,-1,0.0,0.0,0,0.0,0.4857
29164,1563730081577,9,2.29,0.77,0.54,1.0,0.83,0.75,0.07,0.49,-1,-1,-1,0.76,9884,30,98,38,41,760,0.0,684,468,60,119.0,0,1,335,233,87,0,0,21,250,250,0,1115.64,,,,,,,,,,,,
29184,1563730081597,11,2.27,0.77,0.54,1.0,0.84,0.86,0.08,0.5,-1,-2,-0,0.86,9989,29,98,38,40,763,0.0,683,471,60,118.0,0,1,327,229,87,0,0,212,250,250,0,882.05,,,,,,,,,,,,
29204,1563730081617,9,2.27,0.77,0.54,0.99,0.83,0.89,0.07,0.58,-1,-2,-2,0.9,9978,29,98,38,40,764,0.0,683,467,60,119.0,0,1,327,229,87,0,0,212,250,250,0,648.46,,,,,,,,,,,,
29224,1563730081637,7,2.28,0.77,0.54,0.99,0.83,0.86,0.03,0.53,-1,-2,-1,0.86,10005,28,98,38,40,769,0.0,684,476,60,119.0,0,1,327,230,87,0,0,212,250,250,0,1115.64,,,,,,,,,,,,
29244,1563730081657,9,2.29,0.77,0.54,0.99,0.83,0.95,0.07,0.52,-1,-3,-0,0.95,10059,27,98,38,39,776,0.0,683,463,60,119.0,0,1,320,227,87,0,0,218,250,250,0,882.05,45.747807,4.906547,0.0,195.1,0,0.0,-1,0.0,0.0,0,0.0,0.4874
29264,1563730081677,8,2.28,0.76,0.54,0.99,0.82,0.97,0.07,0.59,-1,-2,-2,0.97,10005,26,98,38,39,781,0.0,680,473,60,118.0,0,1,320,227,86,0,0,218,250,250,0,648.46,,,,,,,,,,,,
29284,1563730081697,8,2.29,0.78,0.54,0.99,0.83,0.93,0.03,0.6,-1,-2,-1,0.93,10000,23,98,38,37,787,0.0,685,470,60,119.0,0,1,314,223,86,0,0,69,250,250,0,1115.64,,,,,,,,,,,,
29304,1563730081717,11,2.27,0.77,0.53,0.99,0.83,1.01,0.05,0.56,-1,-3,-1,1.01,9989,20,98,38,36,791,0.0,679,472,60,119.0,0,1,311,220,86,0,0,69,250,250,0,882.05,,,,,,,,,,,,
29324,1563730081737,8,2.29,0.77,0.53,0.99,0.82,1.01,0.07,0.61,-1,-2,-2,1.02,9878,18,98,38,34,795,0.0,682,467,60,119.0,0,1,305,217,86,0,0,69,250,250,0,648.46,,,,,,,,,,,,
29344,1563730081757,10,2.27,0.76,0.54,0.99,0.82,1.03,-0.01,0.59,-1,-4,-1,1.03,9791,17,98,38,33,796,0.0,681,470,60,119.0,0,1,302,212,86,0,0,69,250,250,0,882.05,45.747807,4.906547,0.0,195.1,0,0.0,-1,0.0,0.0,0,0.0,0.4891
29364,1563730081777,9,2.28,0.76,0.53,1.0,0.83,0.94,0.04,0.55,-0,-2,-1,0.94,9600,16,98,38,33,794,0.0,675,470,60,119.0,0,1,302,209,77,0,0,69,250,250,0,648.46,,,,,,,,,,,,
29384,1563730081797,9,2.27,0.77,0.54,0.99,0.82,0.98,-0.01,0.55,-0,-1,-2,0.98,9417,16,97,38,32,791,0.0,672,471,60,118.0,0,1,300,203,77,0,0,25,250,250,0,882.05,,,,,,,,,,,,
29404,1563730081817,8,2.28,0.76,0.54,0.99,0.83,1.08,-0.09,0.61,-1,-3,-1,1.09,9263,16,97,38,32,787,0.0,670,476,60,119.0,0,1,300,200,77,0,0,25,250,250,0,882.05,,,,,,,,,,,,
29424,1563730081837,9,2.29,0.76,0.53,0.99,0.83,1.13,-0.17,0.62,-1,-2,-2,1.15,9110,16,97,38,31,783,0.0,666,475,60,118.0,0,1,295,195,77,0,0,25,250,250,0,1115.64,,,,,,,,,,,,
29444,1563730081857,10,2.28,0.77,0.54,1.0,0.83,1.18,-0.21,0.7,-1,-3,-1,1.19,8967,16,97,38,32,781,0.0,664,472,60,118.0,0,1,300,194,77,0,0,25,250,250,0,882.05,45.747807,4.906547,0.0,195.1,0,0.0,-1,0.0,0.0,0,0.0,0.4907
29464,1563730081877,9,2.28,0.77,0.54,1.0,0.82,1.19,-0.32,0.68,-2,-3,-2,1.24,8798,16,97,38,32,785,0.0,658,474,60,118.0,0,1,300,194,65,0,0,25,250,250,0,882.05,,,,,,,,,,,,
29484,1563730081896,8,2.28,0.76,0.54,0.99,0.83,1.2,-0.34,0.72,-1,-3,-3,1.25,8724,15,97,38,32,794,0.0,657,473,60,119.0,0,1,300,194,65,0,0,25,250,250,0,882.05,,,,,,,,,,,,
29504,1563730081916,10,2.28,0.76,0.54,0.99,0.83,1.14,-0.26,0.59,-0,-3,-5,1.16,8569,16,97,38,32,805,0.0,655,472,60,119.0,0,1,300,193,65,0,0,25,250,250,0,648.46,,,,,,,,,,,,
29524,1563730081936,9,2.27,0.77,0.54,1.0,0.83,1.11,-0.22,0.55,-0,-2,-2,1.13,8430,15,97,38,32,817,0.0,658,470,60,118.0,0,1,298,189,65,0,0,347,250,250,0,414.87,,,,,,,,,,,,
29544,1563730081956,9,2.28,0.76,0.53,0.99,0.83,1.07,-0.17,0.56,-0,-1,-1,1.08,8296,15,96,38,32,830,0.0,664,467,60,119.0,0,1,295,183,65,0,0,153,250,250,0,882.05,45.747807,4.906547,0.0,195.1,0,0.0,-1,0.0,0.0,0,0.0,0.4924
29564,1563730081976,9,2.28,0.77,0.54,1.0,0.82,1.13,-0.19,0.56,-0,-3,-2,1.14,8202,15,96,38,32,844,0.0,658,470,60,119.0,0,1,294,181,57,0,0,186,250,250,0,414.87,,,,,,,,,,,,
29584,1563730081996,10,2.28,0.76,0.53,0.99,0.82,1.05,-0.17,0.57,-0,-2,-1,1.06,8209,15,96,38,32,856,0.0,650,470,60,119.0,0,1,294,181,57,0,0,686,250,250,0,648.46,,,,,,,,,,,,
29604,1563730082010,8,2.28,0.77,0.53,1.0,0.83,1.09,-0.2,0.59,-1,-2,-1,1.11,8169,15,96,38,32,859,0.0,653,468,60,118.0,0,1,293,178,57,0,0,686,250,250,0,414.87,,,,,,,,,,,,
29624,1563730082030,9,2.28,0.76,0.54,0.99,0.83,1.04,-0.15,0.57,-1,-3,-1,1.05,8081,15,96,38,32,861,0.0,646,471,60,119.0,0,1,291,175,57,0,0,2072,250,250,0,648.46,,,,,,,,,,,,
29644,1563730082050,8,2.28,0.76,0.53,0.99,0.83,1.05,-0.17,0.61,-1,-3,-1,1.06,8071,15,96,38,32,862,0.0,651,470,60,120.0,0,1,291,174,57,0,0,371,250,250,0,882.05,45.747807,4.906547,0.0,195.1,0,0.0,-1,0.0,0.0,0,0.0,0.4941
29664,1563730082070,9,2.28,0.76,0.53,0.99,0.83,1.07,-0.18,0.6,-1,-3,-1,1.08,8036,15,96,38,32,863,0.0,659,467,60,118.0,0,1,290,172,52,0,0,801,250,250,0,414.87,,,,,,,,,,,,
29684,1563730082096,10,2.27,0.76,0.54,1.0,0.82,1.01,-0.14,0.61,-1,-4,-1,1.02,7948,15,96,38,32,861,0.0,646,473,60,119.0,0,1,290,171,52,0,0,1043,250,250,0,414.87,,,,,,,,,,,,
29704,1563730082116,10,2.28,0.77,0.53,1.0,0.82,0.99,-0.14,0.62,-1,-4,-1,1.0,7931,15,95,38,33,859,0.0,642,470,60,119.0,0,1,292,176,52,0,0,168,250,250,0,882.05,,,,,,,,,,,,
29724,1563730082136,7,2.27,0.77,0.54,0.99,0.82,1.01,-0.19,0.65,-1,-3,-1,1.02,7858,15,95,38,33,856,0.0,643,471,60,118.0,0,1,292,176,52,0,0,1789,250,250,0,882.05,,,,,,,,,,,,
29744,1563730082156,6,2.28,0.77,0.54,0.99,0.83,1.06,-0.21,0.67,-1,-4,-1,1.08,7776,15,95,38,33,854,0.0,640,468,60,119.0,0,1,292,175,52,0,0,435,250,250,0,414.87,45.747807,4.906547,0.0,195.1,0,0.0,-1,0.0,0.0,0,0.0,0.4957
29764,1563730082176,8,2.27,0.77,0.53,1.0,0.83,1.04,-0.16,0.67,-1,-4,-1,1.06,7767,15,95,38,33,853,0.0,641,471,60,119.0,0,1,292,180,53,0,0,247,250,250,0,648.46,,,,,,,,,,,,
29784,1563730082198,10,2.28,0.77,0.54,0.99,0.83,0.99,-0.09,0.62,-1,-3,-1,1.0,7709,15,95,38,34,853,0.0,648,472,60,119.0,0,1,295,175,53,0,0,370,250,250,0,648.46,,,,,,,,,,,,
29804,1563730082218,10,2.27,0.77,0.53,1.0,0.82,0.89,-0.01,0.51,-0,-1,-1,0.89,7687,15,94,38,34,857,0.0,640,470,60,120.0,0,1,295,180,53,0,0,370,250,250,0,882.05,,,,,,,,,,,,
29824,1563730082238,10,2.28,0.76,0.54,0.99,0.83,0.79,-0.01,0.45,0,-0,-1,0.79,7625,15,94,38,34,862,0.0,640,469,60,120.0,0,1,295,180,53,0,0,370,250,250,0,648.46,,,,,,,,,,,,
29844,1563730082258,11,2.27,0.76,0.53,1.0,0.83,0.75,-0.05,0.46,0,0,0,0.75,7581,15,94,38,35,867,0.0,634,471,60,118.0,0,1,298,187,53,0,0,370,250,250,0,882.05,45.747807,4.906547,0.0,195.1,0,0.0,-1,0.0,0.0,0,0.0,0.4974
29864,1563730082278,9,2.27,0.76,0.54,0.99,0.82,0.74,-0.09,0.48,0,1,-0,0.75,7578,15,94,38,35,873,0.0,634,470,60,118.0,0,1,298,187,53,0,0,370,250,250,0,882.05,,,,,,,,,,,,
29884,1563730082298,10,2.29,0.76,0.54,1.0,0.83,0.71,-0.12,0.43,0,3,0,0.72,7512,15,94,38,35,880,0.0,636,471,60,119.0,0,1,298,186,53,0,0,370,250,250,0,882.05,,,,,,,,,,,,
29904,1563730082318,10,2.28,0.76,0.54,0.99,0.83,0.68,-0.15,0.44,1,3,1,0.69,7518,15,94,38,35,887,0.0,633,470,60,119.0,0,1,298,186,53,0,0,20,250,250,0,882.05,,,,,,,,,,,,
29924,1563730082338,11,2.28,0.77,0.54,0.99,0.82,0.64,-0.21,0.42,1,4,1,0.67,7476,15,94,38,35,889,0.0,634,472,60,118.0,0,1,298,186,53,0,0,20,250,250,0,882.05,,,,,,,,,,,,
29944,1563730082358,11,2.28,0.77,0.53,0.99,0.83,0.62,-0.22,0.44,1,4,1,0.66,7428,15,94,38,36,890,0.0,630,467,60,118.0,0,1,301,191,53,0,0,20,250,250,0,882.05,45.747807,4.906547,0.0,195.1,0,0.0,-1,0.0,0.0,0,0.0,0.4991
29964,1563730082378,9,2.28,0.76,0.53,0.99,0.83,0.53,-0.2,0.36,1,6,1,0.57,7446,15,93,38,36,893,0.0,627,470,60,119.0,0,1,301,191,53,0,0,20,250,250,0,648.46,,,,,,,,,,,,
29984,1563730082394,10,2.27,0.76,0.53,1.0,0.82,0.47,-0.19,0.32,2,6,1,0.5,7422,15,93,38,36,896,0.0,627,470,60,119.0,0,1,301,191,53,0,0,20,250,250,0,882.05,,,,,,,,,,,,
30004,1563730082414,10,2.29,0.76,0.54,0.99,0.83,0.4,-0.11,0.28,2,6,2,0.42,7419,15,93,38,37,897,0.0,628,472,60,119.0,0,1,304,191,53,0,0,20,250,250,0,882.05,,,,,,,,,,,,
30024,1563730082434,9,2.28,0.76,0.53,0.99,0.83,0.33,-0.03,0.22,2,7,2,0.33,7367,15,93,38,37,899,0.0,625,466,60,119.0,0,1,304,197,53,0,0,20,250,250,0,882.05,,,,,,,,,,,,
30044,1563730082454,7,2.29,0.77,0.53,0.99,0.82,0.27,0.09,0.15,2,8,2,0.28,7376,15,92,38,37,903,0.0,630,470,60,119.0,0,1,304,197,53,0,0,20,250,250,0,648.46,45.747807,4.906547,0.0,195.1,0,0.0,-1,0.0,0.0,0,0.0,0.5007
30064,1563730082474,6,2.29,0.76,0.54,0.99,0.82,0.32,0.13,0.19,2,5,1,0.34,7344,15,92,38,37,907,0.0,629,467,60,120.0,0,1,304,197,54,0,0,20,250,250,0,648.46,,,,,,,,,,,,
30084,1563730082496,6,2.28,0.76,0.53,0.99,0.82,0.42,0.12,0.26,1,4,1,0.44,7347,15,92,38,37,911,0.0,636,476,60,119.0,0,1,304,196,54,0,0,20,250,250,0,882.05,,,,,,,,,,,,
30104,1563730082516,8,2.28,0.77,0.53,1.0,0.83,0.57,0.09,0.41,1,2,0,0.58,7321,15,92,38,37,914,0.0,635,470,60,119.0,0,1,304,202,54,0,0,20,250,250,0,414.87,,,,,,,,,,,,
30124,1563730082536,8,2.27,0.77,0.53,0.99,0.82,0.72,-0.0,0.51,0,-0,-0,0.72,7347,15,92,38,38,921,0.0,625,469,60,118.0,0,1,307,202,54,0,0,20,250,250,0,414.87,,,,,,,,,,,,
30144,1563730082556,10,2.29,0.77,0.53,0.99,0.83,0.8,-0.08,0.53,0,0,0,0.8,7295,15,92,38,38,928,0.0,631,472,60,118.0,0,1,307,202,54,0,0,10,250,250,0,414.87,45.747807,4.906547,0.0,195.1,0,0.0,-1,0.0,0.0,0,0.0,0.5024
30164,1563730082576,10,2.28,0.77,0.53,1.0,0.82,0.75,-0.13,0.49,1,1,0,0.76,7298,15,91,38,38,934,0.0,625,471,60,119.0,0,1,307,202,55,0,0,158,250,250,0,882.05,,,,,,,,,,,,
30184,1563730082598,10,2.28,0.77,0.53,0.98,0.82,0.66,-0.07,0.42,1,2,1,0.67,7298,15,91,38,38,938,0.0,627,472,60,118.0,0,1,307,201,55,0,0,158,250,250,0,882.05,,,,,,,,,,,,
30204,1563730082618,7,2.29,0.76,0.53,0.99,0.83,0.58,0.01,0.36,1,3,1,0.58,7259,15,91,39,38,944,0.0,627,467,60,120.0,0,1,307,201,55,0,0,105,250,250,0,414.87,,,,,,,,,,,,
30224,1563730082638,8,2.28,0.76,0.53,0.99,0.82,0.62,0.06,0.38,1,1,-0,0.62,7264,15,91,39,38,950,0.0,620,467,60,119.0,0,1,307,201,55,0,0,105,250,250,0,648.46,,,,,,,,,,,,
30244,1563730082658,4,2.28,0.77,0.53,0.99,0.82,0.76,0.02,0.49,0,-1,-0,0.76,7239,15,91,39,38,954,0.0,623,468,60,120.0,0,1,307,207,55,0,0,105,250,250,0,414.87,45.747807,4.906547,0.0,195.1,0,0.0,-1,0.0,0.0,0,0.0,0.5041
30264,1563730082678,10,2.28,0.77,0.53,1.0,0.82,0.81,-0.03,0.55,0,-1,-0,0.81,7222,15,90,39,38,955,0.0,624,474,60,118.0,0,1,307,207,55,0,0,105,250,250,0,414.87,,,,,,,,,,,,
30284,1563730082698,10,2.28,0.77,0.53,0.99,0.83,0.78,-0.05,0.53,0,-0,-0,0.79,7231,15,91,39,39,957,0.0,624,471,60,118.0,0,1,310,200,55,0,0,105,250,250,0,882.05,,,,,,,,,,,,
30304,1563730082718,9,2.27,0.76,0.53,1.0,0.82,0.68,-0.03,0.43,1,2,-0,0.68,7192,15,90,39,39,959,0.0,622,469,60,119.0,0,1,310,206,55,0,0,105,250,250,0,882.05,,,,,,,,,,,,
30324,1563730082738,8,2.28,0.76,0.53,1.0,0.82,0.64,0.04,0.36,1,2,-1,0.64,7200,15,90,39,39,960,0.0,621,468,60,119.0,0,1,310,206,55,0,0,105,250,250,0,648.46,,,,,,,,,,,,
30344,1563730082758,8,2.28,0.77,0.54,0.99,0.82,0.74,0.02,0.45,0,-1,-1,0.74,7151,15,90,39,39,960,0.0,617,468,60,120.0,0,1,310,206,55,0,0,20,250,250,0,414.87,45.747807,4.906547,0.0,195.1,0,0.0,-1,0.0,0.0,0,0.0,0.5057
30364,1563730082778,9,2.28,0.76,0.53,0.99,0.83,0.8,-0.02,0.52,0,-1,0,0.8,7175,15,90,39,39,960,0.0,620,474,60,118.0,0,1,310,206,55,0,0,85,250,250,0,414.87,,,,,,,,,,,,
30384,1563730082796,10,2.28,0.77,0.54,0.99,0.83,0.76,-0.0,0.46,0,-1,1,0.76,7159,14,90,39,39,961,0.0,618,472,60,118.0,0,1,310,206,55,0,0,85,250,250,0,882.05,,,,,,,,,,,,
30404,1563730082816,8,2.28,0.76,0.53,0.99,0.83,0.64,0.06,0.39,1,1,1,0.64,7131,13,90,39,39,962,0.0,618,467,60,119.0,0,1,310,206,55,0,0,85,250,250,0,648.46,,,,,,,,,,,,
30424,1563730082836,6,2.28,0.76,0.54,0.99,0.83,0.7,0.06,0.47,1,-1,0,0.7,7140,12,89,39,39,963,0.0,617,470,60,118.0,0,1,310,206,55,0,0,85,250,250,0,414.87,,,,,,,,,,,,
30444,1563730082856,9,2.29,0.77,0.53,0.99,0.83,0.81,0.02,0.53,-0,-2,0,0.81,7110,11,89,39,38,964,0.0,616,470,60,119.0,0,1,307,206,55,0,0,37,250,250,0,414.87,45.747807,4.906547,0.0,195.1,0,0.0,-1,0.0,0.0,0,0.0,0.5074
30464,1563730082876,9,2.27,0.77,0.53,0.99,0.82,0.78,-0.01,0.44,0,-2,1,0.78,7086,11,89,39,38,965,0.0,606,471,60,118.0,0,1,307,200,53,0,0,37,250,250,0,882.05,,,,,,,,,,,,
30484,1563730082897,8,2.28,0.77,0.54,1.0,0.83,0.71,0.02,0.39,0,-0,0,0.71,7113,10,89,39,37,966,0.0,607,468,60,119.0,0,1,304,194,53,0,0,37,250,250,0,648.46,,,,,,,,,,,,
30504,1563730082917,8,2.27,0.76,0.53,1.0,0.83,0.76,-0.01,0.53,0,-2,0,0.76,7051,9,89,39,36,966,0.0,614,467,60,118.0,0,1,301,188,53,0,0,37,250,250,0,414.87,,,,,,,,,,,,
30524,1563730082937,8,2.29,0.77,0.54,0.99,0.82,0.82,-0.07,0.67,-0,-7,-0,0.82,7054,8,89,39,36,967,0.0,612,472,60,118.0,0,1,301,188,53,0,0,37,250,250,0,882.05,,,,,,,,,,,,
30544,1563730082957,8,2.28,0.77,0.54,0.99,0.82,0.7,-0.01,0.53,1,-4,-1,0.7,6998,8,89,39,35,968,0.0,605,470,60,120.0,0,1,298,183,53,0,0,37,250,250,0,648.46,45.747807,4.906547,0.0,195.1,0,0.0,-1,0.0,0.0,0,0.0,0.5091
30564,1563730082977,11,2.27,0.77,0.54,1.0,0.82,0.71,-0.01,0.57,0,-5,-1,0.71,6936,7,89,39,35,968,0.0,602,466,60,120.0,0,1,298,183,48,0,0,37,250,250,0,414.87,,,,,,,,,,,,
30584,1563730082991,8,2.28,0.77,0.53,1.0,0.82,0.79,-0.04,0.53,-0,-6,-1,0.79,6903,7,88,39,35,968,0.0,597,476,60,118.0,0,1,298,183,48,0,0,37,250,250,0,882.05,,,,,,,,,,,,
30604,1563730083011,8,2.28,0.77,0.53,0.99,0.83,0.71,-0.05,0.51,0,-3,-1,0.71,6858,7,88,39,34,967,0.0,591,468,60,119.0,0,1,295,177,48,0,0,15,250,250,0,648.46,,,,,,,,,,,,
30624,1563730083031,9,2.28,0.76,0.53,1.0,0.83,0.81,-0.05,0.57,-0,-5,-1,0.81,6783,7,88,39,34,963,0.0,591,469,60,119.0,0,1,295,177,48,0,0,15,250,250,0,414.87,,,,,,,,,,,,
30644,1563730083051,6,2.28,0.77,0.54,1.0,0.82,0.73,0.0,0.5,0,-2,0,0.73,6732,7,88,39,34,958,0.0,589,465,60,119.0,0,1,295,177,48,0,0,15,250,250,0,414.87,45.747807,4.906547,0.0,195.1,0,0.0,-1,0.0,0.0,0,0.0,0.5107
30664,1563730083071,9,2.27,0.77,0.53,1.0,0.82,0.85,-0.0,0.56,-0,-5,0,0.85,6696,6,88,39,34,954,0.0,585,472,60,117.0,0,1,295,177,45,0,0,15,250,250,0,-5.59,,,,,,,,,,,,
30684,1563730083097,10,2.28,0.76,0.54,0.99,0.83,0.77,-0.02,0.56,0,-3,0,0.77,6634,6,88,39,34,949,0.0,584,471,60,119.0,0,1,295,177,45,0,0,35,250,250,0,648.46,,,,,,,,,,,,
30704,1563730083117,7,2.29,0.76,0.54,0.99,0.83,0.84,0.03,0.41,0,-2,1,0.84,6585,6,88,39,34,942,0.0,578,470,60,119.0,0,1,295,177,45,0,0,71,250,250,0,882.05,,,,,,,,,,,,
30724,1563730083137,9,2.28,0.77,0.53,0.99,0.83,0.81,-0.01,0.47,-0,-3,0,0.81,6487,5,88,39,34,935,0.0,577,470,60,119.0,0,1,295,177,45,0,0,142,250,250,0,414.87,,,,,,,,,,,,
30744,1563730083157,10,2.27,0.77,0.54,0.99,0.82,0.74,-0.01,0.49,0,-3,0,0.74,6416,5,88,39,33,932,0.0,560,466,60,119.0,0,1,292,172,45,0,0,286,250,250,0,414.87,45.747807,4.906547,0.0,195.1,0,0.0,-1,0.0,0.0,0,0.0,0.5124
30764,1563730083177,8,2.28,0.77,0.53,1.0,0.82,0.82,0.01,0.43,0,-4,-0,0.82,6358,4,88,39,34,929,0.0,547,471,60,119.0,0,1,295,177,41,0,0,112,250,250,0,648.46,,,,,,,,,,,,
30784,1563730083197,8,2.28,0.77,0.53,1.0,0.82,0.91,0.03,0.44,-0,-7,-0,0.91,6270,4,87,39,34,924,0.0,541,471,60,119.0,0,1,295,177,41,0,0,809,250,250,0,882.05,,,,,,,,,,,,
30804,1563730083217,8,2.28,0.76,0.53,1.0,0.82,0.93,0.04,0.48,-1,-9,0,0.94,6212,3,87,39,34,919,0.0,540,470,60,118.0,0,1,295,177,41,0,0,100,250,250,0,414.87,,,,,,,,,,,,
30824,1563730083237,7,2.28,0.77,0.53,0.99,0.83,0.94,0.03,0.52,-1,-9,0,0.94,6097,2,87,39,34,916,0.0,533,472,60,119.0,0,1,295,177,41,0,0,100,250,250,0,414.87,,,,,,,,,,,,
30844,1563730083257,6,2.29,0.76,0.53,0.99,0.82,0.94,0.02,0.55,-1,-10,0,0.94,6042,0,87,39,34,913,0.0,526,471,60,120.0,0,1,295,177,41,0,0,100,250,250,0,414.87,45.747807,4.906547,0.0,195.1,0,0.0,-1,0.0,0.0,0,0.0,0.5141
30864,1563730083277,6,2.28,0.76,0.53,0.99,0.81,0.97,0.04,0.57,-2,-10,0,0.98,5931,0,87,39,34,909,0.0,515,467,60,119.0,0,1,291,182,40,0,0,100,250,250,0,414.87,,,,,,,,,,,,
30884,1563730083297,7,2.27,0.77,0.52,0.99,0.81,1.06,0.07,0.61,-2,-11,1,1.06,5852,0,87,39,35,905,0.0,514,471,60,118.0,0,1,290,181,40,0,0,308,250,250,0,414.87,,,,,,,,,,,,
30904,1563730083317,8,2.28,0.76,0.52,0.98,0.82,1.14,0.08,0.6,-3,-12,0,1.15,5781,0,87,39,36,902,0.0,508,473,60,119.0,0,1,288,180,40,0,0,114,250,250,0,882.05,,,,,,,,,,,,
30924,1563730083337,9,2.28,0.75,0.53,0.99,0.81,1.1,0.14,0.62,-2,-11,0,1.11,5647,0,87,39,36,900,0.0,505,470,60,119.0,0,1,281,186,40,0,0,456,250,250,0,882.05,,,,,,,,,,,,
30944,1563730083357,8,2.28,0.76,0.52,0.99,0.82,0.98,0.01,0.66,-2,-9,-0,0.98,5521,0,87,39,37,900,0.0,500,465,60,119.0,0,1,276,191,40,0,0,254,250,250,0,414.87,45.747807,4.906547,0.0,195.1,0,0.0,-1,0.0,0.0,0,0.0,0.5157
30964,1563730083377,10,2.28,0.76,0.52,0.99,0.81,1.04,0.02,0.6,-2,-8,-0,1.04,5387,0,86,39,38,900,0.0,488,476,60,118.0,0,1,271,195,40,0,0,119,250,250,0,882.05,,,,,,,,,,,,
30984,1563730083397,8,2.28,0.75,0.53,0.98,0.82,0.96,-0.01,0.66,-1,-8,-1,0.96,5325,0,86,39,39,901,0.0,480,467,60,120.0,0,1,269,202,40,0,0,119,250,250,0,414.87,,,,,,,,,,,,
31004,1563730083417,8,2.28,0.76,0.53,0.99,0.81,1.03,0.01,0.6,-1,-8,-0,1.03,5218,0,86,39,41,903,0.0,470,464,60,119.0,0,1,269,205,40,0,0,57,250,250,0,414.87,,,,,,,,,,,,
31024,1563730083437,8,2.27,0.76,0.53,0.98,0.81,0.93,-0.03,0.62,-1,-6,-1,0.93,5085,0,86,39,42,907,0.0,447,469,60,120.0,0,1,263,204,40,0,0,687,250,250,0,414.87,,,,,,,,,,,,
31044,1563730083457,8,2.29,0.75,0.52,0.98,0.8,0.93,0.01,0.63,-1,-6,1,0.93,4986,0,86,39,43,911,0.0,442,474,60,119.0,0,1,253,207,40,0,0,72,250,250,0,882.05,45.747807,4.906547,0.0,195.1,0,0.0,-1,0.0,0.0,0,0.0,0.5174
31064,1563730083477,9,2.27,0.76,0.52,0.98,0.81,0.94,0.02,0.57,-1,-6,1,0.94,4868,0,86,39,44,915,0.0,435,465,60,119.0,0,1,249,206,38,0,0,1840,250,250,0,181.28,,,,,,,,,,,,
31084,1563730083497,8,2.29,0.76,0.53,0.98,0.82,0.96,0.0,0.57,-1,-4,1,0.96,4785,0,86,39,45,918,0.0,420,470,60,120.0,0,1,242,206,38,0,0,1840,250,250,0,414.87,,,,,,,,,,,,
31104,1563730083517,11,2.27,0.77,0.54,1.0,0.83,0.93,0.02,0.6,-1,-3,-0,0.93,4720,0,86,39,46,924,0.0,417,470,60,119.0,0,1,238,207,38,0,0,1840,250,250,0,414.87,,,,,,,,,,,,
31124,1563730083537,11,2.27,0.77,0.54,1.01,0.84,0.87,0.0,0.65,-1,-2,-2,0.87,4613,0,86,39,46,930,0.0,403,464,60,120.0,0,1,227,205,38,0,0,1840,250,250,0,414.87,,,,,,,,,,,,
31144,1563730083557,11,2.27,0.78,0.54,1.02,0.84,0.82,-0.01,0.66,-1,-1,-3,0.82,4535,0,86,39,47,936,0.0,399,471,60,120.0,0,1,221,206,38,0,0,1840,250,250,0,414.87,45.747807,4.906547,0.0,195.1,0,0.0,-1,0.0,0.0,0,0.0,0.5191
31164,1563730083577,11,2.28,0.78,0.55,1.02,0.85,0.78,-0.04,0.66,-1,1,-4,0.78,4473,0,86,39,47,939,0.0,392,471,60,120.0,0,1,214,205,35,0,0,1840,250,250,0,414.87,,,,,,,,,,,,
31184,1563730083597,10,2.27,0.78,0.54,1.01,0.86,0.77,-0.04,0.66,-1,2,-5,0.77,4425,0,86,39,47,943,0.0,380,471,60,120.0,0,1,209,204,35,0,0,1840,250,250,0,414.87,,,,,,,,,,,,
31204,1563730083617,8,2.28,0.78,0.55,1.03,0.85,0.77,-0.04,0.66,-1,2,-6,0.77,4340,0,86,39,47,947,0.0,379,467,60,120.0,0,1,200,202,35,0,0,1840,250,250,0,414.87,,,,,,,,,,,,
31224,1563730083637,8,2.27,0.79,0.55,1.03,0.85,0.79,-0.04,0.66,-1,2,-6,0.79,4303,0,85,39,48,951,0.0,371,467,60,119.0,0,1,197,205,35,0,0,1840,250,250,0,414.87,,,,,,,,,,,,
31244,1563730083657,6,2.28,0.79,0.56,1.02,0.86,0.8,-0.03,0.65,-1,0,-5,0.8,4246,0,85,39,48,951,0.0,376,465,60,119.0,0,1,191,204,35,0,0,1840,250,250,0,181.28,45.747807,4.906547,0.0,195.1,0,0.0,-1,0.0,0.0,0,0.0,0.5207
31264,1563730083677,6,2.28,0.78,0.56,1.02,0.85,0.82,-0.03,0.64,-1,-1,-4,0.82,4196,0,85,39,48,952,0.0,364,470,60,119.0,0,1,186,203,32,0,0,1840,250,250,0,882.05,,,,,,,,,,,,
31284,1563730083697,9,2.29,0.79,0.55,1.03,0.86,0.8,-0.04,0.63,-1,-1,-4,0.81,4171,0,85,39,49,954,0.0,362,470,60,119.0,0,1,184,207,32,0,0,1840,250,250,0,414.87,,,,,,,,,,,,
31304,1563730083717,6,2.27,0.78,0.55,1.02,0.86,0.8,-0.03,0.61,-1,2,-4,0.8,4145,0,85,39,49,955,0.0,358,471,60,120.0,0,1,182,206,32,0,0,1840,250,250,0,414.87,,,,,,,,,,,,
31324,1563730083737,7,2.29,0.79,0.55,1.03,0.86,0.82,-0.02,0.61,-0,2,-3,0.82,4107,0,85,39,49,956,0.0,357,466,60,118.0,0,1,178,206,32,0,0,1840,250,250,0,414.87,,,,,,,,,,,,
31344,1563730083757,6,2.29,0.78,0.56,1.03,0.85,0.84,-0.01,0.62,-0,0,-3,0.84,4097,0,85,39,50,955,0.0,357,467,60,119.0,0,1,176,209,32,0,0,1840,250,250,0,882.05,45.747807,4.906547,0.0,195.1,0,0.0,-1,0.0,0.0,0,0.0,0.5224
31364,1563730083777,9,2.28,0.78,0.55,1.03,0.86,0.82,-0.01,0.59,-0,2,-2,0.82,4071,0,85,39,50,950,0.0,352,469,60,120.0,0,1,175,209,32,0,0,1840,250,250,0,414.87,,,,,,,,,,,,
31384,1563730083796,7,2.28,0.78,0.55,1.03,0.86,0.82,0.03,0.58,-0,2,-2,0.82,4047,0,85,39,50,944,0.0,352,470,60,120.0,0,1,172,208,32,0,0,7,250,250,0,414.87,,,,,,,,,,,,
31404,1563730083816,7,2.29,0.78,0.56,1.03,0.86,0.84,0.03,0.56,0,1,-1,0.84,4028,0,84,39,50,938,0.0,348,466,60,121.0,0,1,169,208,32,0,0,170,250,250,0,882.05,,,,,,,,,,,,
31424,1563730083836,8,2.27,0.78,0.56,1.03,0.85,0.81,0.04,0.54,0,1,-1,0.81,4022,0,84,39,51,932,0.0,348,467,60,122.0,0,1,169,212,32,0,0,118,250,250,0,181.28,,,,,,,,,,,,
31444,1563730083856,7,2.29,0.78,0.56,1.03,0.87,0.8,0.07,0.51,0,2,-1,0.81,3981,0,84,39,51,925,0.0,342,467,60,121.0,0,1,166,211,32,0,0,118,250,250,0,414.87,45.747807,4.906547,0.0,195.1,0,0.0,-1,0.0,0.0,0,0.0,0.5241
31464,1563730083876,8,2.28,0.78,0.56,1.03,0.87,0.82,0.06,0.49,0,0,0,0.82,3971,0,84,39,51,919,0.0,346,468,60,122.0,0,1,166,211,31,0,0,118,250,250,0,882.05,,,,,,,,,,,,
31484,1563730083896,8,2.27,0.79,0.56,1.03,0.86,0.81,0.06,0.48,0,2,0,0.81,3963,0,84,39,51,919,0.0,334,463,60,123.0,0,1,165,211,31,0,0,118,250,250,0,414.87,,,,,,,,,,,,
31504,1563730083916,7,2.28,0.78,0.56,1.03,0.86,0.82,0.08,0.51,0,1,0,0.82,3932,0,84,39,51,919,0.0,338,466,60,122.0,0,1,164,210,31,0,0,118,250,250,0,414.87,,,,,,,,,,,,
31524,1563730083936,9,2.28,0.79,0.55,1.03,0.86,0.84,0.06,0.51,0,0,1,0.84,3931,0,84,39,52,925,0.0,337,469,60,122.0,0,1,165,214,31,0,0,118,250,250,0,648.46,,,,,,,,,,,,
31544,1563730083956,7,2.28,0.79,0.55,1.04,0.86,0.83,0.05,0.49,0,2,0,0.84,3959,0,84,39,52,931,0.0,341,462,60,123.0,0,1,166,215,31,0,0,118,250,250,0,414.87,45.747807,4.906547,0.0,195.1,0,0.0,-1,0.0,0.0,0,0.0,0.5257
31564,1563730083976,7,2.27,0.78,0.56,1.03,0.86,0.87,0.02,0.54,0,-0,1,0.87,3905,0,84,39,52,937,0.0,335,467,60,120.0,0,1,164,214,32,0,0,118,250,250,0,414.87,,,,,,,,,,,,
31584,1563730083996,9,2.27,0.79,0.56,1.02,0.86,0.86,0.01,0.53,0,1,0,0.86,3898,0,84,39,52,943,0.0,339,469,60,123.0,0,1,163,213,32,0,0,118,250,250,0,414.87,,,,,,,,,,,,
31604,1563730084010,6,2.29,0.78,0.55,1.02,0.85,0.86,0.04,0.54,0,1,-0,0.86,3943,0,84,39,52,959,0.0,335,466,60,122.0,0,1,165,214,32,0,0,118,250,250,0,414.87,,,,,,,,,,,,
31624,1563730084030,9,2.28,0.78,0.55,1.02,0.86,0.84,0.03,0.54,0,-0,1,0.84,3890,0,84,39,52,975,0.0,335,468,60,121.0,0,1,163,213,32,0,0,13,250,250,0,882.05,,,,,,,,,,,,
31644,1563730084050,8,2.27,0.78,0.55,1.03,0.86,0.83,0.02,0.51,0,1,-0,0.83,3855,0,84,39,53,986,0.0,333,470,60,123.0,0,1,163,217,32,0,0,13,250,250,0,414.87,45.747807,4.906547,0.0,195.1,0,0.0,-1,0.0,0.0,0,0.0,0.5274
31664,1563730084070,7,2.28,0.78,0.56,1.02,0.86,0.85,0.01,0.56,0,-1,0,0.85,3892,0,84,39,53,994,0.0,335,468,60,120.0,0,1,164,217,31,0,0,357,250,250,0,414.87,,,,,,,,,,,,
31684,1563730084096,8,2.28,0.78,0.55,1.02,0.85,0.83,0.01,0.53,0,1,-0,0.83,3854,0,83,39,53,1015,0.0,327,470,60,123.0,0,1,163,217,31,0,0,357,250,250,0,414.87,,,,,,,,,,,,
31704,1563730084116,7,2.27,0.78,0.55,1.02,0.85,0.85,0.01,0.57,0,-0,0,0.85,3824,0,83,39,53,1036,0.0,333,465,60,122.0,0,1,161,216,31,0,0,357,250,250,0,414.87,,,,,,,,,,,,
31724,1563730084136,8,2.29,0.78,0.55,1.02,0.85,0.82,-0.0,0.56,0,-0,0,0.82,3881,0,83,39,53,1050,0.0,327,471,60,122.0,0,1,164,222,31,0,0,357,250,250,0,648.46,,,,,,,,,,,,
31744,1563730084156,8,2.28,0.78,0.55,1.02,0.85,0.84,0.0,0.53,-0,-0,-0,0.84,3828,0,83,39,54,1061,0.0,331,465,60,123.0,0,1,163,216,31,0,0,357,250,250,0,414.87,45.747807,4.906547,0.0,195.1,0,0.0,-1,0.0,0.0,0,0.0,0.5291
31764,1563730084176,10,2.28,0.77,0.54,1.02,0.84,0.82,-0.01,0.55,0,-0,0,0.82,3801,0,83,39,54,1069,0.0,325,471,60,123.0,0,1,162,221,32,0,0,25,250,250,0,648.46,,,,,,,,,,,,
31784,1563730084198,7,2.28,0.78,0.54,1.02,0.84,0.83,-0.01,0.5,0,0,-0,0.83,3832,0,83,39,54,1076,0.0,325,463,60,123.0,0,1,163,221,32,0,0,25,250,250,0,414.87,,,,,,,,,,,,
31804,1563730084218,11,2.27,0.78,0.55,1.02,0.85,0.85,-0.01,0.54,0,-1,0,0.85,3807,0,83,39,54,1074,0.0,331,468,60,120.0,0,1,162,221,32,0,0,25,250,250,0,882.05,,,,,,,,,,,,
31824,1563730084238,7,2.28,0.78,0.55,1.02,0.85,0.85,-0.02,0.5,0,0,0,0.85,3771,0,83,39,54,1068,0.0,324,465,60,123.0,0,1,160,220,32,0,0,25,250,250,0,414.87,,,,,,,,,,,,
31844,1563730084258,9,2.28,0.78,0.55,1.02,0.86,0.87,-0.01,0.54,0,-2,1,0.87,3775,0,83,39,55,1060,0.0,323,466,60,120.0,0,1,161,224,32,0,0,25,250,250,0,882.05,45.747807,4.906547,0.0,195.1,0,0.0,-1,0.0,0.0,0,0.0,0.5307
31864,1563730084278,6,2.29,0.79,0.56,1.04,0.86,0.86,-0.01,0.51,0,0,-0,0.86,3759,0,83,39,55,1051,0.0,325,467,60,123.0,0,1,160,224,31,0,0,25,250,250,0,414.87,,,,,,,,,,,,
31884,1563730084296,11,2.28,0.79,0.56,1.05,0.87,0.86,-0.02,0.59,0,-1,0,0.87,3712,0,83,39,55,1045,0.0,319,472,60,121.0,0,1,158,223,31,0,0,23,250,250,0,882.05,,,,,,,,,,,,
31904,1563730084316,7,2.27,0.8,0.56,1.05,0.88,0.85,-0.01,0.53,0,-0,-1,0.85,3687,0,83,39,56,1041,0.0,321,469,60,123.0,0,1,157,227,31,0,0,23,250,250,0,414.87,,,,,,,,,,,,
31924,1563730084336,9,2.29,0.8,0.57,1.06,0.89,0.86,-0.02,0.56,0,-1,-1,0.86,3683,0,83,39,56,1035,0.0,318,471,60,121.0,0,1,157,227,31,0,0,23,250,250,0,882.05,,,,,,,,,,,,
31944,1563730084356,6,2.29,0.81,0.57,1.07,0.89,0.84,-0.0,0.52,0,-1,-1,0.84,3653,0,83,39,57,1027,0.0,314,467,60,123.0,0,1,156,226,31,0,0,23,250,250,0,414.87,45.747807,4.906547,0.0,195.1,0,0.0,-1,0.0,0.0,0,0.0,0.5324
31964,1563730084376,8,2.28,0.81,0.59,1.08,0.9,0.83,-0.0,0.49,0,0,-1,0.83,3648,0,83,39,57,1022,0.0,312,470,60,122.0,0,1,155,230,31,0,0,23,250,250,0,648.46,,,,,,,,,,,,
31984,1563730084396,6,2.28,0.82,0.6,1.09,0.92,0.85,-0.02,0.53,0,-2,-1,0.85,3602,0,82,39,57,1018,0.0,313,463,60,122.0,0,1,154,230,31,0,0,23,250,250,0,414.87,,,,,,,,,,,,
32004,1563730084416,7,2.29,0.82,0.6,1.1,0.94,0.84,-0.01,0.49,0,1,-1,0.84,3568,0,83,39,58,1014,0.0,302,473,60,123.0,0,1,152,233,31,0,0,23,250,250,0,414.87,,,,,,,,,,,,
32024,1563730084436,9,2.28,0.83,0.61,1.11,0.94,0.84,-0.01,0.53,0,0,-0,0.84,3561,0,82,39,58,1009,0.0,313,465,60,120.0,0,1,152,233,31,0,0,23,250,250,0,882.05,,,,,,,,,,,,
32044,1563730084456,8,2.29,0.84,0.61,1.12,0.95,0.84,-0.02,0.53,0,-1,-0,0.84,3515,0,82,39,58,1006,0.0,303,464,60,122.0,0,1,150,232,31,0,0,23,250,250,0,414.87,45.747807,4.906547,0.0,195.1,0,0.0,-1,0.0,0.0,0,0.0,0.5341
32064,1563730084476,8,2.28,0.84,0.62,1.12,0.97,0.85,0.0,0.47,0,1,-0,0.85,3482,0,82,39,59,1005,0.0,302,471,60,123.0,0,1,150,236,31,0,0,23,250,250,0,414.87,,,,,,,,,,,,
32084,1563730084496,8,2.28,0.85,0.63,1.14,0.97,0.84,-0.01,0.51,0,1,-0,0.84,3447,0,82,39,60,1004,0.0,298,467,60,120.0,0,1,150,240,31,0,0,23,250,250,0,882.05,,,,,,,,,,,,
32104,1563730084516,8,2.29,0.85,0.63,1.14,0.98,0.83,-0.03,0.54,0,-2,0,0.83,3402,0,82,39,60,1002,0.0,300,468,60,122.0,0,1,150,240,31,0,0,23,250,250,0,414.87,,,,,,,,,,,,
32124,1563730084536,7,2.28,0.84,0.64,1.14,0.98,0.86,0.0,0.51,0,-2,-0,0.86,3318,0,82,39,61,1001,0.0,290,473,60,123.0,0,1,150,244,31,0,0,23,250,250,0,414.87,,,,,,,,,,,,
32144,1563730084556,6,2.28,0.85,0.64,1.15,0.98,0.86,0.01,0.46,0,-0,-0,0.86,3229,0,82,39,61,1000,0.0,283,470,60,123.0,0,1,150,244,31,0,0,23,250,250,0,414.87,45.747807,4.906547,0.0,195.1,0,0.0,-1,0.0,0.0,0,0.0,0.5357
32164,1563730084576,8,2.28,0.85,0.63,1.16,0.98,0.86,0.02,0.39,0,4,-1,0.86,3170,0,82,39,62,998,0.0,280,466,60,122.0,0,1,154,246,29,0,0,23,250,250,0,414.87,,,,,,,,,,,,
32184,1563730084598,7,2.28,0.85,0.63,1.15,0.98,0.86,0.02,0.34,0,8,-1,0.86,3102,0,82,39,63,996,0.0,272,460,60,123.0,0,1,158,249,29,0,0,23,250,250,0,414.87,,,,,,,,,,,,
32204,1563730084618,7,2.28,0.85,0.64,1.15,0.98,0.83,0.03,0.31,0,12,-1,0.83,3043,0,82,39,63,994,0.0,271,468,60,122.0,0,1,158,252,29,0,0,23,250,250,0,414.87,,,,,,,,,,,,
32224,1563730084638,6,2.28,0.85,0.64,1.15,0.99,0.81,0.03,0.29,0,15,-1,0.81,2954,0,82,40,64,993,0.0,265,470,60,122.0,0,1,162,250,29,0,0,23,250,250,0,414.87,,,,,,,,,,,,
32244,1563730084658,7,2.28,0.85,0.64,1.16,1.0,0.8,0.04,0.25,0,19,-2,0.81,2878,0,82,40,65,991,0.0,257,470,60,122.0,0,1,164,253,29,0,0,23,250,250,0,414.87,45.747807,4.906547,0.0,195.1,0,0.0,-1,0.0,0.0,0,0.0,0.5374
32264,1563730084678,8,2.28,0.85,0.65,1.16,0.99,0.82,0.05,0.21,1,23,-2,0.82,2853,0,82,40,65,988,0.0,259,469,60,123.0,0,1,163,253,27,0,0,23,250,250,0,414.87,,,,,,,,,,,,
32284,1563730084696,7,2.29,0.85,0.64,1.16,1.0,0.89,0.06,0.14,1,22,-2,0.89,2803,0,82,40,66,985,0.0,253,470,60,123.0,0,1,0,256,27,0,0,23,250,250,0,414.87,,,,,,,,,,,,
32304,1563730084716,7,2.28,0.85,0.65,1.17,1.0,0.93,0.05,0.16,1,19,-2,0.93,2696,0,82,40,66,984,0.0,251,465,60,120.0,0,1,162,256,27,0,0,23,250,250,0,414.87,,,,,,,,,,,,
32324,1563730084736,7,2.28,0.86,0.65,1.17,1.0,0.9,0.03,0.19,0,14,-1,0.9,2627,0,82,40,67,982,0.0,244,467,60,121.0,0,1,162,259,27,0,0,23,250,250,0,882.05,,,,,,,,,,,,
32344,1563730084756,10,2.28,0.85,0.65,1.17,1.01,0.85,0.02,0.27,0,13,-1,0.85,2634,0,82,40,68,982,0.0,239,465,60,123.0,0,1,165,262,27,0,0,23,250,250,0,414.87,45.747807,4.906547,0.0,195.1,0,0.0,-1,0.0,0.0,0,0.0,0.5391
32364,1563730084776,8,2.28,0.86,0.65,1.18,1.0,0.85,0.04,0.32,0,12,-2,0.85,2571,0,82,40,69,983,0.0,237,470,60,122.0,0,1,160,261,25,0,0,23,250,250,0,414.87,,,,,,,,,,,,
32384,1563730084798,6,2.28,0.85,0.65,1.17,1.01,0.87,0.01,0.3,0,11,-1,0.87,2463,0,81,40,70,985,0.0,237,467,60,120.0,0,1,155,261,25,0,0,0,250,250,0,882.05,,,,,,,,,,,,
32404,1563730084818,10,2.27,0.85,0.65,1.18,1.01,0.84,0.01,0.33,0,11,-1,0.84,2413,0,82,40,71,988,0.0,227,468,60,123.0,0,1,153,258,25,0,0,0,250,250,0,414.87,,,,,,,,,,,,
32424,1563730084838,8,2.28,0.86,0.66,1.17,1.01,0.87,0.02,0.36,0,9,-1,0.87,2380,0,81,40,72,994,0.0,225,468,60,123.0,0,1,150,256,25,0,0,0,250,250,0,414.87,,,,,,,,,,,,
32444,1563730084858,9,2.28,0.86,0.66,1.17,1.02,0.87,0.01,0.35,0,8,-1,0.87,2373,0,82,40,73,1000,0.0,226,466,60,122.0,0,1,148,255,25,0,0,0,250,250,0,414.87,45.747807,4.906547,0.0,195.1,0,0.0,-1,0.0,0.0,0,0.0,0.5407
32464,1563730084878,8,2.28,0.86,0.66,1.18,1.02,0.88,0.01,0.38,0,6,-1,0.88,2296,0,81,40,74,1004,0.0,221,470,60,123.0,0,1,145,253,22,0,0,0,250,250,0,414.87,,,,,,,,,,,,
32484,1563730084897,10,2.28,0.87,0.66,1.18,1.02,0.86,0.01,0.42,0,6,-1,0.86,2220,0,81,40,75,1008,0.0,214,465,60,122.0,0,1,143,252,22,0,0,0,250,250,0,181.28,,,,,,,,,,,,
32504,1563730084917,7,2.28,0.86,0.66,1.18,1.02,0.87,0.0,0.41,0,5,-1,0.87,2061,0,81,40,75,1012,0.0,214,465,60,120.0,0,1,143,252,22,0,0,0,250,250,0,414.87,,,,,,,,,,,,
32524,1563730084937,8,2.28,0.87,0.66,1.19,1.01,0.87,0.01,0.44,0,4,-1,0.87,2031,0,81,40,78,1017,0.0,204,467,60,123.0,0,1,138,252,22,0,0,0,250,250,0,414.87,,,,,,,,,,,,
32544,1563730084957,6,2.29,0.86,0.66,1.19,1.02,0.86,-0.0,0.47,0,4,-1,0.86,2016,0,81,40,78,1019,0.0,202,468,60,123.0,0,1,138,252,22,0,0,0,250,250,0,414.87,45.747807,4.906547,0.0,195.1,0,0.0,-1,0.0,0.0,0,0.0,0.5424
32564,1563730084977,10,2.27,0.87,0.66,1.19,1.01,0.85,-0.01,0.47,0,3,-0,0.85,1883,0,81,40,79,1020,0.0,201,462,60,121.0,0,1,136,254,18,0,0,0,250,250,0,414.87,,,,,,,,,,,,
32584,1563730084997,8,2.27,0.87,0.66,1.19,1.02,0.85,-0.01,0.47,0,3,-0,0.85,1800,0,81,40,80,1021,0.0,193,472,60,123.0,0,1,135,255,18,0,0,0,250,250,0,414.87,,,,,,,,,,,,
32604,1563730085009,8,2.28,0.86,0.66,1.18,1.02,0.86,-0.01,0.46,0,2,0,0.86,1731,0,81,40,82,1022,0.0,186,467,60,123.0,0,1,132,258,18,0,0,0,250,250,0,414.87,,,,,,,,,,,,
32624,1563730085029,7,2.28,0.87,0.66,1.19,1.02,0.86,-0.01,0.47,0,1,-1,0.86,1720,0,81,40,83,1022,0.0,184,466,60,123.0,0,1,130,260,18,0,0,0,250,250,0,414.87,,,,,,,,,,,,
32644,1563730085049,6,2.29,0.87,0.66,1.18,1.02,0.85,-0.01,0.47,0,2,-1,0.85,1710,0,81,40,84,1022,0.0,185,469,60,122.0,0,1,0,261,18,0,0,0,250,250,0,414.87,45.747807,4.906547,0.0,195.1,0,0.0,-1,0.0,0.0,0,0.0,0.5441
32664,1563730085069,8,2.28,0.87,0.67,1.18,1.02,0.84,-0.02,0.49,0,2,-1,0.84,1733,0,81,40,84,1021,0.0,184,469,60,122.0,0,1,0,261,17,0,0,0,250,250,0,181.28,,,,,,,,,,,,
32684,1563730085097,7,2.29,0.87,0.66,1.19,1.01,0.83,-0.02,0.53,0,2,-1,0.83,1658,0,81,40,84,1020,0.0,181,465,60,123.0,0,1,130,261,17,0,0,0,250,250,0,414.87,,,,,,,,,,,,
32704,1563730085117,8,2.28,0.87,0.66,1.19,1.01,0.82,-0.02,0.56,0,2,-1,0.83,1533,0,81,40,86,1018,0.0,175,466,60,122.0,0,1,130,263,17,0,0,0,250,250,0,181.28,,,,,,,,,,,,
32724,1563730085137,6,2.28,0.86,0.66,1.18,1.0,0.84,-0.03,0.59,0,2,-1,0.84,1409,14,81,40,88,1017,0.0,170,467,60,123.0,0,1,122,193,17,0,0,0,250,250,0,414.87,,,,,,,,,,,,
32744,1563730085157,8,2.28,0.86,0.65,1.18,1.0,0.86,-0.03,0.61,0,2,-1,0.86,1375,19,81,40,90,1017,0.0,169,469,60,122.0,0,1,120,195,17,0,0,0,250,250,0,414.87,45.747807,4.906547,0.0,195.1,0,0.0,-1,0.0,0.0,0,0.0,0.5457
32764,1563730085177,6,2.28,0.86,0.65,1.17,1.01,0.88,-0.03,0.63,0,0,-1,0.88,1460,23,81,40,92,1018,0.0,170,472,60,123.0,0,1,153,474,24,0,0,0,250,250,0,414.87,,,,,,,,,,,,
32784,1563730085197,6,2.27,0.86,0.65,1.16,1.0,0.9,-0.03,0.63,0,-1,-2,0.9,1475,26,81,40,93,1019,0.0,171,467,60,122.0,0,1,169,503,24,0,0,0,250,250,0,414.87,,,,,,,,,,,,
32804,1563730085217,7,2.29,0.85,0.65,1.17,1.0,0.91,-0.03,0.63,0,-2,-2,0.91,1457,29,81,40,95,1020,0.0,171,468,60,122.0,0,1,194,231,24,0,0,0,250,250,0,414.87,,,,,,,,,,,,
32824,1563730085237,7,2.27,0.85,0.65,1.17,0.99,0.9,-0.03,0.64,0,-4,-3,0.9,1414,32,81,40,96,1023,0.0,167,471,60,122.0,0,1,205,239,24,0,0,0,250,250,0,414.87,,,,,,,,,,,,
32844,1563730085257,7,2.28,0.85,0.64,1.17,0.99,0.89,-0.03,0.64,-0,-6,-3,0.89,1417,34,81,40,97,1026,0.0,169,463,60,122.0,0,1,219,530,24,0,0,0,250,250,0,414.87,45.747807,4.906547,0.0,195.1,0,0.0,-1,0.0,0.0,0,0.0,0.5474
32864,1563730085277,6,2.28,0.84,0.64,1.16,0.98,0.88,-0.02,0.67,-0,-7,-4,0.88,1534,34,81,40,97,1029,0.0,171,462,60,122.0,0,1,226,530,29,0,0,0,250,250,0,414.87,,,,,,,,,,,,
32884,1563730085297,10,2.28,0.84,0.63,1.15,0.96,0.85,-0.03,0.68,-0,-7,-4,0.85,1677,34,81,40,96,1031,0.0,182,465,60,122.0,0,1,212,531,29,0,0,0,250,250,0,414.87,,,,,,,,,,,,
32904,1563730085317,6,2.28,0.83,0.61,1.13,0.96,0.85,-0.02,0.65,-0,-7,-4,0.85,2034,34,80,40,96,1033,0.0,194,468,60,121.0,0,1,212,522,29,0,0,0,250,250,0,414.87,,,,,,,,,,,,
32924,1563730085337,7,2.28,0.83,0.62,1.13,0.95,0.82,-0.02,0.63,-0,-6,-4,0.82,2080,34,81,40,96,1037,0.0,197,472,60,123.0,0,1,212,249,29,0,0,0,250,250,0,414.87,,,,,,,,,,,,
32944,1563730085357,6,2.28,0.83,0.62,1.13,0.94,0.83,-0.01,0.6,0,-6,-4,0.83,2232,34,80,40,95,1040,0.0,210,466,60,122.0,0,1,198,243,29,0,0,0,250,250,0,414.87,45.747807,4.906547,0.0,195.1,0,0.0,-1,0.0,0.0,0,0.0,0.5491
32964,1563730085377,8,2.28,0.83,0.62,1.13,0.94,0.79,-0.03,0.57,-0,-5,-2,0.79,2384,34,81,40,95,1042,0.0,214,466,60,123.0,0,1,198,500,45,0,0,0,250,250,0,414.87,,,,,,,,,,,,
32984,1563730085397,11,2.28,0.83,0.61,1.12,0.93,0.76,0.01,0.58,0,-2,-4,0.76,2625,34,80,40,94,1044,0.0,227,473,60,123.0,0,1,191,544,45,0,0,0,250,250,0,414.87,,,,,,,,,,,,
33004,1563730085417,10,2.28,0.82,0.61,1.11,0.94,0.81,0.01,0.51,0,1,-4,0.81,2849,34,80,40,93,1046,0.0,241,471,60,122.0,0,1,192,602,45,0,0,0,250,250,0,414.87,,,,,,,,,,,,
33024,1563730085437,8,2.27,0.81,0.59,1.1,0.91,0.86,0.03,0.43,0,4,-4,0.86,3008,34,80,40,92,1048,0.0,254,474,60,123.0,0,1,195,312,45,0,0,0,250,250,0,414.87,,,,,,,,,,,,
33044,1563730085457,8,2.28,0.81,0.58,1.09,0.9,0.87,0.03,0.36,0,9,-5,0.87,3223,34,80,40,91,1048,0.0,266,471,60,123.0,0,1,187,288,45,0,0,0,250,250,0,414.87,45.747807,4.906547,0.0,195.1,0,0.0,-1,0.0,0.0,0,0.0,0.5507
33064,1563730085477,10,2.28,0.8,0.58,1.08,0.9,0.89,0.02,0.41,0,7,-4,0.89,3633,34,80,40,89,1046,0.0,291,460,60,122.0,0,1,185,532,62,0,0,0,250,250,0,648.46,,,,,,,,,,,,
33084,1563730085497,8,2.29,0.81,0.58,1.08,0.89,0.85,0.02,0.35,0,9,-4,0.85,3879,34,80,40,88,1039,0.0,312,470,60,123.0,0,1,196,577,62,0,0,0,250,250,0,414.87,,,,,,,,,,,,
33104,1563730085517,7,2.29,0.81,0.58,1.07,0.89,0.87,0.04,0.34,0,9,-4,0.87,4121,34,80,40,87,1031,0.0,341,468,60,122.0,0,1,212,591,62,0,0,0,250,250,0,414.87,,,,,,,,,,,,
33124,1563730085537,8,2.28,0.8,0.57,1.07,0.88,0.89,0.05,0.32,0,9,-4,0.89,4374,34,80,40,86,1023,0.0,356,463,60,120.0,0,1,233,595,62,0,0,0,250,250,0,414.87,,,,,,,,,,,,
33144,1563730085557,9,2.28,0.8,0.57,1.07,0.89,0.89,0.06,0.32,0,8,-3,0.9,4559,30,80,40,85,1017,0.0,376,460,60,120.0,0,1,247,585,62,0,0,0,250,250,0,414.87,45.747807,4.906547,0.0,195.1,0,0.0,-1,0.0,0.0,0,0.0,0.5524
33164,1563730085577,9,2.29,0.8,0.58,1.06,0.89,0.89,0.04,0.37,0,8,-3,0.89,4783,26,80,40,84,1019,0.0,392,463,60,121.0,0,1,262,587,103,0,0,102,250,250,0,414.87,,,,,,,,,,,,
33184,1563730085597,8,2.28,0.81,0.57,1.08,0.89,0.81,0.02,0.45,0,7,-3,0.81,4994,22,80,40,82,1020,0.0,411,475,60,122.0,0,1,274,558,103,0,0,102,250,250,0,648.46,,,,,,,,,,,,
33204,1563730085617,10,2.29,0.81,0.57,1.08,0.89,0.87,0.06,0.39,-0,6,-3,0.87,5231,18,80,40,79,1030,0.0,438,458,60,121.0,0,1,291,516,103,0,0,102,250,250,0,414.87,,,,,,,,,,,,
33224,1563730085637,9,2.28,0.8,0.57,1.08,0.88,0.79,0.05,0.42,0,5,-3,0.79,5380,15,80,40,76,1039,0.0,456,469,60,122.0,0,1,302,451,103,0,0,102,250,250,0,414.87,,,,,,,,,,,,
33244,1563730085657,8,2.29,0.8,0.57,1.07,0.89,0.82,-0.01,0.48,0,3,-3,0.82,5580,12,80,40,72,1042,0.0,467,463,60,122.0,0,1,320,406,103,0,0,102,250,250,0,414.87,45.747807,4.906547,0.0,195.1,0,0.0,-1,0.0,0.0,0,0.0,0.5541
33264,1563730085677,7,2.28,0.81,0.57,1.06,0.89,0.89,-0.0,0.5,-1,1,-3,0.89,5841,11,80,40,67,1045,0.0,491,465,60,122.0,0,1,347,337,80,0,0,102,250,250,0,414.87,,,,,,,,,,,,
33284,1563730085697,6,2.29,0.8,0.57,1.07,0.88,0.99,0.03,0.52,-1,-2,-2,0.99,6032,10,80,40,64,1037,0.0,508,467,60,122.0,0,1,373,268,80,0,0,102,250,250,0,414.87,,,,,,,,,,,,
33304,1563730085717,9,2.29,0.8,0.57,1.07,0.88,1.05,0.06,0.57,-2,-5,-2,1.05,6192,9,80,40,60,1030,0.0,526,469,60,121.0,0,1,388,251,80,0,0,102,250,250,0,414.87,,,,,,,,,,,,
33324,1563730085737,11,2.29,0.8,0.57,1.07,0.88,1.0,0.03,0.63,-1,-4,-2,1.01,6321,9,80,40,57,990,0.0,534,466,60,122.0,0,1,388,254,80,0,0,181,250,250,0,414.87,,,,,,,,,,,,
33344,1563730085757,7,2.28,0.81,0.57,1.06,0.88,0.96,0.06,0.5,-1,-2,-2,0.97,6485,8,80,40,55,951,0.0,546,471,60,122.0,0,1,388,254,80,0,0,1037,250,250,0,882.05,45.747807,4.906547,0.0,195.1,0,0.0,-1,0.0,0.0,0,0.0,0.5557
33364,1563730085777,9,2.29,0.8,0.57,1.06,0.88,0.99,0.07,0.49,-1,-3,-2,0.99,6533,8,80,40,52,915,0.0,563,470,60,121.0,0,1,380,247,62,0,0,70,250,250,0,414.87,,,,,,,,,,,,
33384,1563730085797,8,2.28,0.8,0.57,1.06,0.87,0.91,0.03,0.55,-1,-3,-2,0.91,6590,8,80,40,50,882,0.0,563,464,60,122.0,0,1,374,231,62,0,0,1332,250,250,0,414.87,,,,,,,,,,,,
33404,1563730085817,8,2.28,0.79,0.56,1.05,0.88,0.93,0.04,0.48,-1,-5,-2,0.93,6572,8,80,40,48,841,0.0,562,472,60,122.0,0,1,368,221,62,0,0,74,250,250,0,648.46,,,,,,,,,,,,
33424,1563730085837,10,2.28,0.79,0.56,1.05,0.87,0.94,0.03,0.57,-1,-4,-2,0.94,6567,8,80,40,46,798,0.0,564,471,60,122.0,0,1,358,216,62,0,0,74,250,250,0,414.87,,,,,,,,,,,,
33444,1563730085857,6,2.27,0.79,0.56,1.05,0.87,0.92,0.01,0.57,-0,-1,-2,0.92,6611,8,80,40,45,780,0.0,562,466,60,123.0,0,1,352,213,62,0,0,105,250,250,0,648.46,45.747807,4.906547,0.0,195.1,0,0.0,-1,0.0,0.0,0,0.0,0.5574
33464,1563730085877,7,2.29,0.79,0.56,1.04,0.86,1.02,0.07,0.54,-1,-2,-1,1.03,6481,8,80,40,44,769,0.0,561,471,60,120.0,0,1,343,211,52,0,0,105,250,250,0,414.87,,,,,,,,,,,,
33484,1563730085896,10,2.28,0.79,0.55,1.05,0.87,0.99,-0.0,0.62,-1,-1,-1,0.99,6416,8,80,40,43,762,0.0,555,466,60,123.0,0,1,337,210,52,0,0,556,250,250,0,414.87,,,,,,,,,,,,
33504,1563730085916,10,2.28,0.79,0.56,1.06,0.87,0.88,-0.02,0.65,0,2,-1,0.88,6360,8,80,40,42,757,0.0,541,468,60,123.0,0,1,329,208,52,0,0,485,250,250,0,648.46,,,,,,,,,,,,
33524,1563730085936,7,2.27,0.8,0.56,1.05,0.87,0.88,0.01,0.52,0,2,-1,0.88,6343,8,80,40,42,758,0.0,542,472,60,121.0,0,1,329,208,52,0,0,323,250,250,0,882.05,,,,,,,,,,,,
33544,1563730085956,7,2.27,0.8,0.56,1.05,0.87,0.96,0.01,0.48,-0,1,-0,0.96,6304,8,80,40,42,762,0.0,541,473,60,120.0,0,1,329,206,52,0,0,126,250,250,0,414.87,45.747807,4.906547,0.0,195.1,0,0.0,-1,0.0,0.0,0,0.0,0.5591
33564,1563730085976,7,2.28,0.8,0.56,1.05,0.87,1.01,0.03,0.52,-1,-1,0,1.01,6237,8,80,40,41,768,0.0,538,468,60,122.0,0,1,323,206,49,0,0,1051,250,250,0,414.87,,,,,,,,,,,,
33584,1563730085996,9,2.28,0.79,0.56,1.04,0.87,1.01,0.02,0.56,-1,-2,0,1.01,6208,8,80,40,41,774,0.0,534,466,60,122.0,0,1,323,206,49,0,0,380,250,250,0,414.87,,,,,,,,,,,,
33604,1563730086010,9,2.27,0.79,0.56,1.05,0.86,0.99,-0.02,0.62,-1,-4,0,0.99,6137,8,80,40,41,780,0.0,530,466,60,122.0,0,1,322,206,49,0,0,380,250,250,0,414.87,,,,,,,,,,,,
33624,1563730086030,9,2.28,0.8,0.56,1.04,0.87,0.95,-0.06,0.69,-0,-4,-0,0.95,6030,8,80,40,41,783,0.0,521,467,60,123.0,0,1,322,206,49,0,0,53,250,250,0,414.87,,,,,,,,,,,,
33644,1563730086050,9,2.28,0.79,0.55,1.05,0.86,0.91,-0.1,0.73,-0,-5,-1,0.92,5978,8,80,40,41,787,0.0,528,465,60,122.0,0,1,320,205,49,0,0,53,250,250,0,414.87,45.747807,4.906547,0.0,195.1,0,0.0,-1,0.0,0.0,0,0.0,0.5607
33664,1563730086070,6,2.29,0.79,0.56,1.05,0.86,0.94,-0.09,0.72,-0,-7,-2,0.94,5875,8,80,40,41,792,0.0,517,468,60,123.0,0,1,313,205,46,0,0,20543,250,250,0,414.87,,,,,,,,,,,,
33684,1563730086098,7,2.29,0.8,0.55,1.05,0.86,1.04,-0.05,0.69,-1,-8,-1,1.04,5740,8,80,40,41,796,0.0,511,467,60,122.0,0,1,304,206,46,0,0,20543,250,250,0,414.87,,,,,,,,,,,,
33704,1563730086118,10,2.27,0.8,0.55,1.05,0.86,1.1,0.03,0.58,-1,-7,-1,1.1,5642,8,80,40,42,798,0.0,494,475,60,122.0,0,1,302,206,46,0,0,71,250,250,0,882.05,,,,,,,,,,,,
33724,1563730086138,9,2.29,0.79,0.55,1.04,0.85,0.97,-0.01,0.59,-0,-5,-1,0.97,5527,8,80,40,43,799,0.0,490,472,60,122.0,0,1,299,205,46,0,0,249,250,250,0,648.46,,,,,,,,,,,,
33744,1563730086158,7,2.28,0.79,0.56,1.04,0.86,0.96,-0.01,0.58,-1,-4,-1,0.96,5381,8,80,40,43,798,0.0,488,471,60,122.0,0,1,288,207,46,0,0,798,250,250,0,414.87,45.747807,4.906547,0.0,195.1,0,0.0,-1,0.0,0.0,0,0.0,0.5624
33764,1563730086178,8,2.29,0.8,0.55,1.05,0.86,0.99,0.03,0.53,-1,-3,0,0.99,5310,8,80,40,45,796,0.0,471,476,60,121.0,0,1,286,210,42,0,0,798,250,250,0,882.05,,,,,,,,,,,,
33784,1563730086198,7,2.29,0.79,0.56,1.04,0.86,0.98,0.0,0.5,-0,-2,0,0.98,5186,8,80,40,45,793,0.0,454,462,60,123.0,0,1,279,210,42,0,0,85,250,250,0,414.87,,,,,,,,,,,,
33804,1563730086218,8,2.28,0.79,0.55,1.04,0.86,0.91,0.02,0.57,-0,-3,0,0.91,5136,8,80,40,46,792,0.0,451,469,60,122.0,0,1,279,212,42,0,0,1595,250,250,0,648.46,,,,,,,,,,,,
33824,1563730086238,8,2.29,0.79,0.55,1.04,0.85,0.94,0.0,0.53,-0,-2,1,0.94,4984,8,80,40,47,794,0.0,442,468,60,121.0,0,1,268,213,42,0,0,454,250,250,0,882.05,,,,,,,,,,,,
33844,1563730086258,11,2.28,0.79,0.55,1.04,0.86,0.95,-0.06,0.5,-0,-2,1,0.96,4901,8,80,40,49,796,0.0,428,468,60,123.0,0,1,267,215,42,0,0,454,250,250,0,414.87,45.747807,4.906547,0.0,195.1,0,0.0,-1,0.0,0.0,0,0.0,0.5641
33864,1563730086278,8,2.28,0.79,0.55,1.04,0.86,0.86,-0.08,0.58,-0,-2,-1,0.87,4808,8,80,40,50,800,0.0,421,467,60,123.0,0,1,260,216,39,0,0,454,250,250,0,414.87,,,,,,,,,,,,
33884,1563730086298,7,2.28,0.79,0.55,1.04,0.85,0.87,-0.07,0.54,-0,-2,-1,0.87,4731,8,80,40,50,808,0.0,411,471,60,122.0,0,1,251,217,39,0,0,454,250,250,0,648.46,,,,,,,,,,,,
33904,1563730086318,8,2.28,0.79,0.55,1.04,0.85,0.9,-0.06,0.48,-0,-2,-0,0.91,4660,8,80,40,51,822,0.0,405,467,60,122.0,0,1,246,220,39,0,0,37,250,250,0,882.05,,,,,,,,,,,,
33924,1563730086338,6,2.28,0.79,0.55,1.03,0.86,0.93,-0.05,0.42,-0,-4,1,0.93,4597,8,80,40,52,837,0.0,399,466,60,122.0,0,1,239,222,39,0,0,82,250,250,0,882.05,,,,,,,,,,,,
33944,1563730086358,7,2.28,0.79,0.54,1.04,0.85,0.97,-0.01,0.38,0,-4,2,0.97,4537,8,80,40,53,848,0.0,388,465,60,122.0,0,1,235,221,39,0,0,82,250,250,0,882.05,45.747807,4.906547,0.0,195.1,0,0.0,-1,0.0,0.0,0,0.0,0.5657
33964,1563730086378,6,2.29,0.79,0.55,1.03,0.86,0.99,0.01,0.39,0,-5,3,0.99,4492,8,80,40,53,860,0.0,397,467,60,121.0,0,1,226,224,37,0,0,82,250,250,0,882.05,,,,,,,,,,,,
33984,1563730086398,6,2.29,0.79,0.55,1.03,0.86,0.98,0.01,0.43,0,-6,4,0.98,4448,8,80,40,53,877,0.0,384,469,60,121.0,0,1,223,224,37,0,0,49,250,250,0,882.05,,,,,,,,,,,,
34004,1563730086418,7,2.28,0.79,0.55,1.03,0.86,0.97,0.01,0.45,0,-7,4,0.97,4364,8,80,40,54,894,0.0,377,470,60,122.0,0,1,217,223,37,0,0,49,250,250,0,882.05,,,,,,,,,,,,
34024,1563730086438,7,2.29,0.79,0.55,1.04,0.84,0.94,0.0,0.44,0,-7,4,0.94,4337,8,80,39,54,900,0.0,373,469,60,123.0,0,1,214,224,37,0,0,49,250,250,0,648.46,,,,,,,,,,,,
34044,1563730086458,10,2.27,0.79,0.55,1.03,0.84,0.91,-0.02,0.43,0,-5,2,0.91,4334,8,80,39,54,905,0.0,372,471,60,123.0,0,1,213,228,37,0,0,49,250,250,0,414.87,45.747807,4.906547,0.0,195.1,0,0.0,-1,0.0,0.0,0,0.0,0.5674
34064,1563730086478,8,2.29,0.79,0.54,1.03,0.85,0.88,-0.01,0.42,0,-2,2,0.88,4281,8,80,40,54,907,0.0,369,471,60,123.0,0,1,206,225,36,0,0,49,250,250,0,414.87,,,,,,,,,,,,
34084,1563730086498,6,2.28,0.79,0.54,1.03,0.85,0.89,-0.03,0.44,0,-1,1,0.89,4305,8,80,40,54,908,0.0,366,469,60,123.0,0,1,209,226,36,0,0,49,250,250,0,414.87,,,,,,,,,,,,
34104,1563730086518,8,2.27,0.79,0.54,1.04,0.84,0.89,-0.01,0.45,0,-1,1,0.89,4283,8,80,40,55,904,0.0,379,464,60,122.0,0,1,207,225,36,0,0,49,250,250,0,181.28,,,,,,,,,,,,
34124,1563730086538,7,2.29,0.79,0.55,1.03,0.84,0.91,-0.01,0.49,0,-3,2,0.91,4280,8,80,40,55,899,0.0,366,466,60,120.0,0,1,206,229,36,0,0,49,250,250,0,648.46,,,,,,,,,,,,
34144,1563730086558,6,2.27,0.79,0.55,1.03,0.85,0.92,-0.02,0.53,0,-4,2,0.92,4291,8,80,40,56,894,0.0,364,466,60,123.0,0,1,205,234,36,0,0,49,250,250,0,648.46,45.747807,4.906547,0.0,195.1,0,0.0,-1,0.0,0.0,0,0.0,0.5691
34164,1563730086578,9,2.29,0.79,0.55,1.03,0.85,0.89,-0.02,0.53,0,-4,2,0.89,4272,8,80,40,56,888,0.0,365,469,60,123.0,0,1,204,234,38,0,0,49,250,250,0,648.46,,,,,,,,,,,,
34184,1563730086598,10,2.27,0.79,0.55,1.04,0.84,0.85,-0.03,0.49,0,-2,1,0.85,4275,8,80,40,56,887,0.0,365,472,60,123.0,0,1,205,234,38,0,0,49,250,250,0,414.87,,,,,,,,,,,,
34204,1563730086618,6,2.29,0.79,0.55,1.03,0.84,0.84,-0.02,0.46,0,0,0,0.84,4253,8,80,40,56,886,0.0,364,469,60,123.0,0,1,202,234,38,0,0,49,250,250,0,414.87,,,,,,,,,,,,
34224,1563730086638,7,2.27,0.79,0.54,1.03,0.85,0.87,-0.03,0.46,0,1,-0,0.87,4263,8,80,40,56,883,0.0,366,467,60,122.0,0,1,203,234,38,0,0,49,250,250,0,414.87,,,,,,,,,,,,
34244,1563730086658,6,2.29,0.79,0.54,1.03,0.85,0.88,-0.02,0.48,0,-0,0,0.88,4245,8,80,40,56,881,0.0,371,468,60,121.0,0,1,201,239,38,0,0,49,250,250,0,414.87,45.747807,4.906547,0.0,195.1,0,0.0,-1,0.0,0.0,0,0.0,0.5707
34264,1563730086678,7,2.28,0.79,0.55,1.03,0.84,0.9,-0.03,0.53,0,-2,1,0.9,4263,8,80,40,57,879,0.0,362,466,60,121.0,0,1,203,239,37,0,0,49,250,250,0,882.05,,,,,,,,,,,,
34284,1563730086698,6,2.29,0.79,0.55,1.04,0.84,0.9,-0.05,0.54,0,-3,2,0.9,4274,8,80,40,57,878,0.0,366,468,60,122.0,0,1,204,239,37,0,0,49,250,250,0,414.87,,,,,,,,,,,,
34304,1563730086718,11,2.28,0.79,0.55,1.04,0.85,0.87,-0.05,0.54,0,-3,1,0.87,4275,8,80,40,57,881,0.0,362,468,60,123.0,0,1,204,239,37,0,0,49,250,250,0,414.87,,,,,,,,,,,,
34324,1563730086738,9,2.28,0.79,0.54,1.04,0.84,0.84,-0.04,0.51,0,-1,-0,0.84,4284,8,80,40,57,884,0.0,365,472,60,123.0,0,1,205,239,37,0,0,49,250,250,0,414.87,,,,,,,,,,,,
34344,1563730086758,8,2.27,0.79,0.54,1.04,0.85,0.83,-0.04,0.51,0,1,-1,0.83,4311,8,80,40,57,888,0.0,362,469,60,123.0,0,1,208,240,37,0,0,49,250,250,0,414.87,45.747807,4.906547,0.0,195.1,0,0.0,-1,0.0,0.0,0,0.0,0.5724
34364,1563730086778,7,2.28,0.78,0.54,1.04,0.85,0.84,-0.02,0.5,0,2,-1,0.84,4335,8,80,40,57,892,0.0,370,466,60,122.0,0,1,211,240,39,0,0,49,250,250,0,414.87,,,,,,,,,,,,
34384,1563730086797,6,2.29,0.79,0.55,1.03,0.86,0.86,-0.01,0.49,0,1,-0,0.86,4332,8,80,40,57,899,0.0,376,466,60,121.0,0,1,211,240,39,0,0,49,250,250,0,882.05,,,,,,,,,,,,
34404,1563730086817,7,2.29,0.79,0.54,1.04,0.85,0.89,-0.0,0.5,0,-0,1,0.89,4349,8,80,40,57,908,0.0,372,465,60,120.0,0,1,212,240,39,0,0,49,250,250,0,-5.59,,,,,,,,,,,,
34424,1563730086837,6,2.29,0.79,0.54,1.03,0.85,0.9,-0.01,0.52,0,-2,2,0.9,4322,8,80,40,57,914,0.0,375,469,60,121.0,0,1,210,240,39,0,0,49,250,250,0,882.05,,,,,,,,,,,,
34444,1563730086857,7,2.29,0.79,0.54,1.03,0.85,0.91,-0.03,0.52,0,-4,2,0.91,4346,8,80,40,57,918,0.0,367,468,60,123.0,0,1,212,240,39,0,0,49,250,250,0,414.87,45.747807,4.906547,0.0,195.1,0,0.0,-1,0.0,0.0,0,0.0,0.5741
34464,1563730086877,6,2.28,0.79,0.54,1.03,0.85,0.91,-0.03,0.49,0,-3,2,0.91,4360,8,80,40,57,927,0.0,372,473,60,123.0,0,1,214,240,39,0,0,49,250,250,0,414.87,,,,,,,,,,,,
34484,1563730086897,9,2.29,0.79,0.55,1.03,0.85,0.87,-0.03,0.49,0,-1,1,0.87,4342,8,80,40,57,937,0.0,366,469,60,123.0,0,1,212,240,39,0,0,0,250,250,0,414.87,,,,,,,,,,,,
34504,1563730086917,10,2.28,0.79,0.55,1.03,0.85,0.82,-0.04,0.5,0,0,0,0.82,4388,8,80,40,57,945,0.0,376,470,60,123.0,0,1,217,240,39,0,0,0,250,250,0,414.87,,,,,,,,,,,,
34524,1563730086937,9,2.28,0.79,0.55,1.03,0.85,0.79,-0.07,0.55,-0,1,-1,0.79,4362,8,80,40,57,951,0.0,374,470,60,123.0,0,1,214,240,39,0,0,0,250,250,0,414.87,,,,,,,,,,,,
34544,1563730086957,9,2.28,0.79,0.54,1.04,0.85,0.76,-0.08,0.58,-0,1,-2,0.76,4428,8,80,40,57,959,0.0,374,469,60,122.0,0,1,222,241,39,0,0,0,250,250,0,414.87,45.747807,4.906547,0.0,195.1,0,0.0,-1,0.0,0.0,0,0.0,0.5757
34564,1563730086977,9,2.28,0.79,0.55,1.04,0.86,0.75,-0.07,0.59,-0,2,-2,0.76,4423,8,80,40,57,969,0.0,380,463,60,122.0,0,1,222,241,40,0,0,0,250,250,0,414.87,,,,,,,,,,,,
34584,1563730086997,8,2.28,0.79,0.55,1.03,0.85,0.78,-0.06,0.59,-0,3,-2,0.78,4433,8,80,40,57,976,0.0,379,466,60,122.0,0,1,223,241,40,0,0,0,250,250,0,414.87,,,,,,,,,,,,
34604,1563730087009,8,2.29,0.79,0.54,1.04,0.85,0.8,-0.07,0.59,-0,4,-3,0.8,4466,8,80,40,57,980,0.0,382,467,60,122.0,0,1,227,241,40,0,0,0,250,250,0,414.87,,,,,,,,,,,,
34624,1563730087029,8,2.29,0.79,0.54,1.04,0.85,0.82,-0.07,0.61,-0,4,-3,0.83,4473,8,80,40,57,983,0.0,384,465,60,122.0,0,1,227,241,40,0,0,0,250,250,0,414.87,,,,,,,,,,,,
34644,1563730087049,8,2.28,0.79,0.55,1.04,0.85,0.84,-0.04,0.6,-0,4,-3,0.84,4474,8,80,40,57,986,0.0,382,467,60,122.0,0,1,227,241,40,0,0,0,250,250,0,414.87,45.747807,4.906547,0.0,195.1,0,0.0,-1,0.0,0.0,0,0.0,0.5774
34664,1563730087069,8,2.29,0.79,0.55,1.04,0.85,0.85,-0.04,0.6,-0,5,-3,0.86,4474,8,80,40,57,987,0.0,388,466,60,122.0,0,1,227,241,41,0,0,0,250,250,0,414.87,,,,,,,,,,,,
34684,1563730087097,8,2.28,0.8,0.55,1.04,0.86,0.84,-0.04,0.58,-0,5,-3,0.84,4512,8,80,40,57,987,0.0,382,462,60,122.0,0,1,232,241,41,0,0,0,250,250,0,181.28,,,,,,,,,,,,
34704,1563730087117,8,2.28,0.79,0.54,1.04,0.85,0.83,-0.05,0.59,-0,5,-3,0.83,4569,8,80,40,57,985,0.0,390,465,60,122.0,0,1,238,241,41,0,0,0,250,250,0,414.87,,,,,,,,,,,,
34724,1563730087137,9,2.27,0.79,0.55,1.04,0.85,0.83,-0.04,0.59,-0,6,-3,0.83,4528,8,80,40,57,980,0.0,389,471,60,122.0,0,1,234,241,41,0,0,0,250,250,0,414.87,,,,,,,,,,,,
34744,1563730087157,8,2.28,0.79,0.55,1.03,0.85,0.85,-0.02,0.59,-0,7,-3,0.85,4572,8,80,40,57,976,0.0,390,467,60,122.0,0,1,238,241,41,0,0,0,250,250,0,414.87,45.747807,4.906547,0.0,195.1,0,0.0,-1,0.0,0.0,0,0.0,0.5791
34764,1563730087177,9,2.28,0.8,0.54,1.04,0.85,0.82,-0.04,0.62,-0,7,-4,0.82,4543,8,80,40,57,974,0.0,393,467,60,122.0,0,1,235,241,41,0,0,0,250,250,0,414.87,,,,,,,,,,,,
34784,1563730087195,9,2.28,0.79,0.55,1.03,0.86,0.79,-0.06,0.63,-0,8,-5,0.79,4562,8,80,40,57,969,0.0,387,466,60,122.0,0,1,237,241,41,0,0,0,250,250,0,414.87,,,,,,,,,,,,
34804,1563730087215,10,2.28,0.78,0.54,1.04,0.85,0.74,-0.06,0.66,-0,8,-6,0.74,4542,8,80,40,57,962,0.0,391,467,60,122.0,0,1,235,241,41,0,0,0,250,250,0,414.87,,,,,,,,,,,,
34824,1563730087235,11,2.28,0.79,0.55,1.03,0.85,0.7,-0.07,0.67,-1,8,-6,0.71,4556,8,80,40,57,956,0.0,389,470,60,123.0,0,1,236,241,41,0,0,0,250,250,0,414.87,,,,,,,,,,,,
34844,1563730087255,9,2.29,0.79,0.54,1.03,0.85,0.66,-0.09,0.72,-1,7,-7,0.66,4552,8,80,40,57,952,0.0,388,468,60,123.0,0,1,236,241,41,0,0,0,250,250,0,414.87,45.747807,4.906547,0.0,195.1,0,0.0,-1,0.0,0.0,0,0.0,0.5807
34864,1563730087275,10,2.27,0.79,0.54,1.03,0.84,0.63,-0.1,0.73,-1,8,-7,0.63,4547,8,80,40,57,947,0.0,390,472,60,123.0,0,1,236,241,41,0,0,0,250,250,0,414.87,,,,,,,,,,,,
34884,1563730087297,10,2.28,0.79,0.55,1.03,0.85,0.6,-0.1,0.71,-1,9,-7,0.61,4557,8,80,40,57,940,0.0,387,472,60,123.0,0,1,237,241,41,0,0,0,250,250,0,414.87,,,,,,,,,,,,
34904,1563730087317,8,2.27,0.79,0.54,1.03,0.85,0.59,-0.15,0.73,-1,8,-7,0.61,4528,8,80,40,57,932,0.0,397,468,60,123.0,0,1,234,241,41,0,0,0,250,250,0,414.87,,,,,,,,,,,,
34924,1563730087337,7,2.29,0.79,0.55,1.03,0.85,0.58,-0.15,0.72,-1,7,-7,0.6,4539,8,80,40,57,929,0.0,385,468,60,123.0,0,1,235,241,41,0,0,0,250,250,0,414.87,,,,,,,,,,,,
34944,1563730087357,8,2.27,0.79,0.54,1.03,0.85,0.61,-0.16,0.69,-1,7,-7,0.63,4545,8,80,40,57,925,0.0,391,473,60,123.0,0,1,235,241,41,0,0,0,250,250,0,414.87,45.747807,4.906547,0.0,195.1,0,0.0,-1,0.0,0.0,0,0.0,0.5824
34964,1563730087377,6,2.28,0.79,0.54,1.03,0.85,0.64,-0.14,0.66,-1,6,-6,0.65,4524,8,80,40,57,922,0.0,389,470,60,123.0,0,1,233,241,41,0,0,0,250,250,0,414.87,,,,,,,,,,,,
34984,1563730087397,6,2.28,0.79,0.54,1.02,0.85,0.66,-0.15,0.68,-1,4,-6,0.68,4553,8,80,40,57,919,0.0,385,471,60,123.0,0,1,236,241,41,0,0,0,250,250,0,648.46,,,,,,,,,,,,
35004,1563730087417,8,2.28,0.79,0.54,1.03,0.85,0.67,-0.18,0.68,-0,2,-5,0.69,4530,8,80,40,57,919,0.0,389,477,60,123.0,0,1,234,241,41,0,0,0,250,250,0,648.46,,,,,,,,,,,,
35024,1563730087437,7,2.28,0.79,0.54,1.04,0.84,0.7,-0.15,0.65,-0,2,-4,0.72,4523,8,80,40,57,919,0.0,386,470,60,123.0,0,1,233,241,41,0,0,0,250,250,0,648.46,,,,,,,,,,,,
35044,1563730087457,6,2.29,0.79,0.54,1.02,0.85,0.73,-0.13,0.63,-0,2,-4,0.74,4486,8,80,40,57,921,0.0,387,472,60,123.0,0,1,229,241,41,0,0,0,250,250,0,414.87,45.747807,4.906547,0.0,195.1,0,0.0,-1,0.0,0.0,0,0.0,0.5841
35064,1563730087477,7,2.28,0.79,0.55,1.03,0.85,0.76,-0.12,0.62,-0,0,-3,0.76,4501,8,80,40,57,922,0.0,387,472,60,123.0,0,1,230,241,41,0,0,0,250,250,0,648.46,,,,,,,,,,,,
35084,1563730087497,8,2.28,0.79,0.54,1.03,0.85,0.79,-0.15,0.6,-0,-1,-3,0.8,4518,8,80,40,57,923,0.0,382,468,60,122.0,0,1,232,241,41,0,0,0,250,250,0,648.46,,,,,,,,,,,,
35104,1563730087517,7,2.28,0.79,0.54,1.04,0.84,0.81,-0.13,0.56,-0,-2,-2,0.82,4525,8,80,40,57,923,0.0,390,471,60,122.0,0,1,233,241,41,0,0,0,250,250,0,648.46,,,,,,,,,,,,
35124,1563730087537,7,2.28,0.79,0.54,1.03,0.85,0.84,-0.11,0.56,-0,-3,-2,0.85,4547,8,80,40,57,921,0.0,390,467,60,122.0,0,1,236,241,41,0,0,0,250,250,0,882.05,,,,,,,,,,,,
35144,1563730087557,7,2.28,0.79,0.54,1.03,0.84,0.85,-0.09,0.56,0,-5,-1,0.86,4528,8,80,40,57,919,0.0,385,466,60,122.0,0,1,234,241,41,0,0,0,250,250,0,882.05,45.747807,4.906547,0.0,195.1,0,0.0,-1,0.0,0.0,0,0.0,0.5857
35164,1563730087577,7,2.28,0.79,0.54,1.03,0.84,0.88,-0.1,0.57,0,-6,-0,0.88,4530,8,80,40,57,916,0.0,388,473,60,123.0,0,1,234,241,40,0,0,0,250,250,0,648.46,,,,,,,,,,,,
35184,1563730087597,7,2.29,0.79,0.54,1.03,0.85,0.9,-0.07,0.54,0,-6,1,0.9,4513,8,80,40,57,913,0.0,385,465,60,122.0,0,1,230,241,40,0,0,0,250,250,0,882.05,,,,,,,,,,,,
35204,1563730087617,7,2.28,0.79,0.54,1.03,0.85,0.91,-0.06,0.52,0,-6,2,0.92,4552,8,80,40,57,911,0.0,393,467,60,122.0,0,1,236,241,40,0,0,0,250,250,0,882.05,,,,,,,,,,,,
35224,1563730087637,7,2.28,0.78,0.54,1.02,0.85,0.93,-0.03,0.47,0,-7,2,0.93,4546,8,80,40,57,908,0.0,388,470,60,123.0,0,1,235,241,40,0,0,0,250,250,0,648.46,,,,,,,,,,,,
35244,1563730087657,8,2.28,0.78,0.54,1.03,0.85,0.97,-0.02,0.44,0,-7,3,0.97,4509,8,80,40,57,908,0.0,384,470,60,122.0,0,1,234,241,40,0,0,0,250,250,0,882.05,45.747807,4.906547,0.0,195.1,0,0.0,-1,0.0,0.0,0,0.0,0.5874
35264,1563730087677,7,2.29,0.78,0.54,1.03,0.85,1.0,0.02,0.42,1,-8,3,1.0,4524,8,80,40,57,908,0.0,391,467,60,121.0,0,1,233,241,41,0,0,0,250,250,0,882.05,,,,,,,,,,,,
35284,1563730087697,6,2.29,0.79,0.54,1.03,0.84,1.01,0.03,0.43,0,-8,4,1.01,4515,8,80,40,57,909,0.0,389,467,60,120.0,0,1,232,241,41,0,0,0,250,250,0,882.05,,,,,,,,,,,,
35304,1563730087717,8,2.28,0.79,0.54,1.02,0.84,1.0,0.04,0.42,1,-9,5,1.0,4508,8,80,40,57,910,0.0,394,468,60,121.0,0,1,231,241,41,0,0,0,250,250,0,882.05,,,,,,,,,,,,
35324,1563730087737,6,2.29,0.79,0.54,1.02,0.85,1.0,0.08,0.39,1,-10,5,1.0,4509,8,80,40,57,911,0.0,383,472,60,121.0,0,1,231,241,41,0,0,0,250,250,0,882.05,,,,,,,,,,,,
35344,1563730087757,7,2.28,0.79,0.54,1.03,0.84,1.01,0.11,0.36,1,-9,6,1.02,4552,8,80,40,57,912,0.0,392,469,60,121.0,0,1,236,241,41,0,0,0,250,250,0,882.05,45.747807,4.906547,0.0,195.1,0,0.0,-1,0.0,0.0,0,0.0,0.5891
35364,1563730087777,7,2.28,0.78,0.54,1.03,0.84,1.02,0.09,0.34,1,-9,7,1.02,4582,8,80,40,57,913,0.0,400,467,60,120.0,0,1,240,241,41,0,0,0,250,250,0,414.87,,,,,,,,,,,,
35384,1563730087798,7,2.28,0.78,0.54,1.03,0.84,1.04,0.09,0.35,1,-8,7,1.05,4541,8,80,40,57,915,0.0,389,471,60,121.0,0,1,235,241,41,0,0,0,250,250,0,414.87,,,,,,,,,,,,
35404,1563730087818,7,2.29,0.79,0.53,1.03,0.84,1.05,0.12,0.31,1,-8,7,1.06,4546,8,80,40,57,917,0.0,393,470,60,121.0,0,1,235,241,41,0,0,0,250,250,0,414.87,,,,,,,,,,,,
35424,1563730087838,6,2.28,0.79,0.53,1.02,0.84,1.06,0.14,0.31,1,-7,7,1.07,4508,8,80,40,57,918,0.0,391,467,60,121.0,0,1,231,241,41,0,0,0,250,250,0,414.87,,,,,,,,,,,,
35444,1563730087858,6,2.29,0.79,0.53,1.02,0.85,1.06,0.14,0.32,1,-7,7,1.07,4563,8,80,40,57,920,0.0,398,467,60,121.0,0,1,237,241,41,0,0,0,250,250,0,414.87,45.747807,4.906547,0.0,195.1,0,0.0,-1,0.0,0.0,0,0.0,0.5907
35464,1563730087878,8,2.28,0.78,0.54,1.02,0.84,1.06,0.14,0.36,1,-6,6,1.06,4536,8,80,40,56,922,0.0,392,467,60,122.0,0,1,236,241,41,0,0,0,250,250,0,414.87,,,,,,,,,,,,
35484,1563730087898,8,2.28,0.79,0.54,1.02,0.85,1.05,0.11,0.38,1,-5,5,1.06,4572,8,80,40,57,924,0.0,388,466,60,122.0,0,1,238,241,41,0,0,0,250,250,0,414.87,,,,,,,,,,,,
35504,1563730087918,8,2.28,0.79,0.54,1.02,0.84,1.02,0.11,0.38,1,-4,5,1.03,4533,8,80,40,57,925,0.0,394,468,60,122.0,0,1,234,241,41,0,0,0,250,250,0,414.87,,,,,,,,,,,,
35524,1563730087938,9,2.28,0.78,0.54,1.03,0.84,1.03,0.08,0.4,1,-3,4,1.03,4563,8,80,40,57,926,0.0,393,467,60,121.0,0,1,237,241,41,0,0,0,250,250,0,414.87,,,,,,,,,,,,
35544,1563730087958,8,2.28,0.79,0.54,1.02,0.84,1.02,0.08,0.42,0,-1,3,1.02,4525,8,80,40,57,926,0.0,388,467,60,122.0,0,1,233,241,41,0,0,0,250,250,0,414.87,45.747807,4.906547,0.0,195.1,0,0.0,-1,0.0,0.0,0,0.0,0.5924
35564,1563730087978,9,2.28,0.79,0.53,1.03,0.84,1.03,0.08,0.46,0,-0,2,1.03,4534,8,80,40,57,926,0.0,387,468,60,121.0,0,1,234,241,41,0,0,0,250,250,0,414.87,,,,,,,,,,,,
35584,1563730087998,8,2.29,0.79,0.53,1.02,0.85,0.99,0.05,0.5,0,-0,1,0.99,4546,8,80,40,57,925,0.0,390,466,60,122.0,0,1,235,241,41,0,0,0,250,250,0,414.87,,,,,,,,,,,,
35604,1563730088010,8,2.28,0.79,0.54,1.02,0.84,0.94,0.02,0.53,0,-0,-1,0.94,4527,8,80,40,57,924,0.0,396,464,60,122.0,0,1,234,241,41,0,0,0,250,250,0,414.87,,,,,,,,,,,,
35624,1563730088030,10,2.28,0.79,0.54,1.02,0.85,0.88,0.01,0.57,-0,1,-2,0.88,4545,8,80,40,57,922,0.0,384,466,60,122.0,0,1,235,237,41,0,0,0,250,250,0,414.87,,,,,,,,,,,,
35644,1563730088050,10,2.28,0.79,0.53,1.03,0.85,0.84,0.02,0.59,-0,2,-2,0.84,4542,8,80,40,57,921,0.0,386,468,60,123.0,0,1,235,241,41,0,0,0,250,250,0,414.87,45.747807,4.906547,0.0,195.1,0,0.0,-1,0.0,0.0,0,0.0,0.5941
35664,1563730088070,10,2.28,0.79,0.54,1.02,0.84,0.79,-0.01,0.63,-0,3,-3,0.79,4554,8,80,40,57,921,0.0,389,470,60,123.0,0,1,236,241,41,0,0,0,250,250,0,414.87,,,,,,,,,,,,
35684,1563730088098,9,2.28,0.79,0.54,1.03,0.84,0.75,-0.02,0.62,-0,4,-4,0.75,4543,8,80,40,57,921,0.0,388,472,60,123.0,0,1,235,241,41,0,0,8,250,250,0,414.87,,,,,,,,,,,,
35704,1563730088118,10,2.28,0.79,0.53,1.03,0.83,0.71,-0.03,0.62,-0,5,-5,0.72,4523,8,80,40,57,923,0.0,386,471,60,123.0,0,1,233,241,41,0,0,8,250,250,0,414.87,,,,,,,,,,,,
35724,1563730088138,11,2.28,0.79,0.54,1.02,0.84,0.69,-0.07,0.63,-0,5,-5,0.69,4555,8,80,40,57,924,0.0,382,467,60,123.0,0,1,236,241,41,0,0,8,250,250,0,414.87,,,,,,,,,,,,
35744,1563730088158,11,2.28,0.79,0.54,1.02,0.85,0.65,-0.07,0.66,-0,3,-5,0.65,4515,8,80,40,57,926,0.0,388,466,60,122.0,0,1,232,241,41,0,0,8,250,250,0,414.87,45.747807,4.906547,0.0,195.1,0,0.0,-1,0.0,0.0,0,0.0,0.5957
35764,1563730088178,8,2.27,0.78,0.53,1.03,0.84,0.65,-0.08,0.66,-0,3,-6,0.65,4558,8,80,40,57,927,0.0,389,472,60,123.0,0,1,237,241,41,0,0,8,250,250,0,414.87,,,,,,,,,,,,
35784,1563730088196,6,2.29,0.78,0.53,1.02,0.84,0.63,-0.09,0.67,-0,3,-5,0.64,4566,8,80,40,57,929,0.0,387,471,60,123.0,0,1,238,241,41,0,0,8,250,250,0,414.87,,,,,,,,,,,,
35804,1563730088216,8,2.29,0.78,0.54,1.03,0.84,0.63,-0.13,0.7,-0,2,-5,0.65,4576,8,80,40,57,931,0.0,390,470,60,123.0,0,1,239,241,41,0,0,8,250,250,0,648.46,,,,,,,,,,,,
35824,1563730088236,7,2.29,0.79,0.53,1.03,0.84,0.64,-0.15,0.67,-0,1,-5,0.66,4542,8,81,40,57,931,0.0,385,469,60,123.0,0,1,235,241,41,0,0,8,250,250,0,648.46,,,,,,,,,,,,
35844,1563730088256,7,2.28,0.79,0.54,1.02,0.84,0.68,-0.14,0.61,-0,1,-4,0.69,4558,8,80,40,57,932,0.0,397,473,60,123.0,0,1,237,241,41,0,0,8,250,250,0,648.46,45.747807,4.906547,0.0,195.1,0,0.0,-1,0.0,0.0,0,0.0,0.5974
35864,1563730088276,6,2.29,0.78,0.54,1.02,0.85,0.73,-0.12,0.57,-0,0,-3,0.74,4563,8,80,40,57,932,0.0,392,468,60,122.0,0,1,239,241,41,0,0,8,250,250,0,882.05,,,,,,,,,,,,
35884,1563730088298,7,2.29,0.79,0.53,1.03,0.84,0.77,-0.11,0.54,-0,-2,-2,0.78,4542,8,80,40,57,933,0.0,389,468,60,122.0,0,1,235,241,41,0,0,8,250,250,0,882.05,,,,,,,,,,,,
35904,1563730088318,7,2.28,0.78,0.53,1.02,0.84,0.82,-0.11,0.53,-0,-3,-1,0.83,4532,8,80,40,57,932,0.0,393,469,60,121.0,0,1,234,241,41,0,0,8,250,250,0,882.05,,,,,,,,,,,,
35924,1563730088338,6,2.29,0.78,0.53,1.02,0.84,0.85,-0.08,0.51,0,-4,-0,0.85,4510,8,81,40,57,932,0.0,389,465,60,122.0,0,1,231,241,41,0,0,8,250,250,0,882.05,,,,,,,,,,,,
35944,1563730088358,7,2.28,0.79,0.53,1.03,0.84,0.86,-0.06,0.52,0,-5,1,0.86,4549,8,80,40,57,930,0.0,392,464,60,121.0,0,1,236,241,41,0,0,8,250,250,0,882.05,45.747807,4.906547,0.0,195.1,0,0.0,-1,0.0,0.0,0,0.0,0.5991
35964,1563730088378,6,2.27,0.78,0.54,1.02,0.84,0.87,-0.04,0.49,0,-6,2,0.87,4508,8,81,40,57,927,0.0,388,470,60,122.0,0,1,231,241,41,0,0,8,250,250,0,882.05,,,,,,,,,,,,
35984,1563730088398,7,2.29,0.78,0.54,1.03,0.84,0.9,0.01,0.44,0,-6,2,0.9,4562,8,81,40,57,925,0.0,388,469,60,121.0,0,1,237,241,41,0,0,8,250,250,0,882.05,,,,,,,,,,,,
36004,1563730088418,6,2.28,0.78,0.53,1.02,0.84,0.94,0.04,0.39,0,-5,4,0.94,4547,8,81,40,57,923,0.0,397,467,60,121.0,0,1,236,241,41,0,0,8,250,250,0,882.05,,,,,,,,,,,,
36024,1563730088438,6,2.28,0.78,0.54,1.02,0.83,0.97,0.04,0.37,0,-6,4,0.97,4532,8,81,40,57,920,0.0,387,469,60,120.0,0,1,234,241,41,0,0,8,250,250,0,882.05,,,,,,,,,,,,
36044,1563730088458,6,2.28,0.78,0.54,1.02,0.84,0.99,0.05,0.37,0,-6,5,1.0,4562,8,81,40,57,918,0.0,391,468,60,120.0,0,1,237,241,41,0,0,8,250,250,0,414.87,45.747807,4.906547,0.0,195.1,0,0.0,-1,0.0,0.0,0,0.0,0.6007
36064,1563730088478,7,2.29,0.79,0.53,1.03,0.84,1.0,0.11,0.32,1,-6,5,1.01,4537,8,81,40,57,916,0.0,393,467,60,121.0,0,1,235,241,41,0,0,8,250,250,0,414.87,,,,,,,,,,,,
36084,1563730088492,8,2.28,0.78,0.53,1.02,0.84,1.01,0.14,0.32,1,-5,5,1.02,4528,8,81,40,57,916,0.0,390,466,60,121.0,0,1,234,241,41,0,0,8,250,250,0,882.05,,,,,,,,,,,,
36104,1563730088512,8,2.28,0.79,0.53,1.03,0.84,1.02,0.13,0.35,1,-6,5,1.03,4553,8,81,40,57,914,0.0,393,466,60,121.0,0,1,236,241,41,0,0,8,250,250,0,414.87,,,,,,,,,,,,
36124,1563730088532,8,2.28,0.78,0.53,1.03,0.83,1.03,0.13,0.39,1,-5,5,1.04,4548,8,81,40,57,912,0.0,383,469,60,122.0,0,1,236,241,41,0,0,6,250,250,0,414.87,,,,,,,,,,,,
36144,1563730088552,8,2.28,0.79,0.53,1.03,0.83,1.02,0.12,0.39,1,-4,5,1.03,4549,8,81,40,57,910,0.0,393,467,60,120.0,0,1,236,241,41,0,0,6,250,250,0,414.87,45.747807,4.906547,0.0,195.1,0,0.0,-1,0.0,0.0,0,0.0,0.6024
36164,1563730088572,8,2.28,0.79,0.53,1.03,0.83,1.01,0.13,0.39,1,-3,4,1.02,4513,8,81,40,57,908,0.0,391,470,60,122.0,0,1,232,241,41,0,0,6,250,250,0,414.87,,,,,,,,,,,,
36184,1563730088598,7,2.29,0.78,0.53,1.02,0.84,1.03,0.1,0.39,1,-2,4,1.04,4538,8,81,40,57,907,0.0,388,468,60,123.0,0,1,235,241,41,0,0,6,250,250,0,414.87,,,,,,,,,,,,
36204,1563730088618,8,2.29,0.78,0.53,1.02,0.83,1.05,0.11,0.38,0,-2,3,1.05,4500,8,81,40,57,906,0.0,384,469,60,123.0,0,1,230,241,41,0,0,6,250,250,0,414.87,,,,,,,,,,,,
36224,1563730088638,9,2.28,0.78,0.53,1.01,0.84,1.07,0.07,0.41,0,-1,2,1.08,4521,8,81,40,57,906,0.0,384,466,60,123.0,0,1,233,241,41,0,0,6,250,250,0,414.87,,,,,,,,,,,,
36244,1563730088658,9,2.28,0.78,0.53,1.02,0.83,1.05,0.06,0.43,0,-0,2,1.05,4506,8,81,40,57,907,0.0,394,470,60,122.0,0,1,231,241,41,0,0,6,250,250,0,414.87,45.747807,4.906547,0.0,195.1,0,0.0,-1,0.0,0.0,0,0.0,0.6041
36264,1563730088678,9,2.27,0.78,0.53,1.02,0.83,1.01,0.04,0.44,0,-0,1,1.01,4522,8,81,40,57,907,0.0,387,466,60,123.0,0,1,233,241,41,0,0,6,250,250,0,414.87,,,,,,,,,,,,
36284,1563730088698,9,2.28,0.79,0.53,1.03,0.84,1.0,0.05,0.45,0,1,1,1.0,4535,8,81,40,57,906,0.0,389,471,60,122.0,0,1,234,241,41,0,0,6,250,250,0,414.87,,,,,,,,,,,,
36304,1563730088718,9,2.28,0.79,0.53,1.02,0.84,1.0,0.04,0.47,0,2,-0,1.0,4536,8,81,40,56,905,0.0,394,466,60,123.0,0,1,236,237,41,0,0,6,250,250,0,414.87,,,,,,,,,,,,
36324,1563730088738,10,2.28,0.78,0.53,1.03,0.83,0.98,0.01,0.5,-0,3,-1,0.98,4553,8,81,40,57,904,0.0,390,466,60,123.0,0,1,236,241,41,0,0,6,250,250,0,414.87,,,,,,,,,,,,
36344,1563730088758,10,2.29,0.79,0.53,1.03,0.84,0.94,-0.01,0.52,-0,4,-2,0.94,4539,8,81,40,57,903,0.0,392,468,60,122.0,0,1,235,241,41,0,0,6,250,250,0,414.87,45.747807,4.906547,0.0,195.1,0,0.0,-1,0.0,0.0,0,0.0,0.6057
36364,1563730088778,10,2.28,0.79,0.53,1.03,0.84,0.89,-0.01,0.54,-0,5,-3,0.89,4539,8,81,40,57,904,0.0,385,467,60,122.0,0,1,235,241,41,0,0,6,250,250,0,414.87,,,,,,,,,,,,
36384,1563730088798,9,2.29,0.78,0.53,1.02,0.85,0.86,-0.01,0.57,-0,5,-3,0.86,4544,8,81,40,57,904,0.0,394,465,60,123.0,0,1,235,241,41,0,0,6,250,250,0,414.87,,,,,,,,,,,,
36404,1563730088818,9,2.29,0.79,0.54,1.02,0.85,0.8,-0.03,0.62,-0,5,-4,0.8,4559,8,81,40,57,906,0.0,390,463,60,122.0,0,1,237,241,41,0,0,6,250,250,0,414.87,,,,,,,,,,,,
36424,1563730088838,9,2.28,0.79,0.53,1.02,0.84,0.76,-0.05,0.64,-0,5,-5,0.76,4572,8,81,40,57,909,0.0,388,471,60,123.0,0,1,238,241,41,0,0,6,250,250,0,414.87,,,,,,,,,,,,
36444,1563730088858,11,2.28,0.79,0.54,1.02,0.84,0.71,-0.06,0.66,-0,6,-5,0.71,4555,8,81,40,57,913,0.0,390,468,60,123.0,0,1,236,241,41,0,0,6,250,250,0,414.87,45.747807,4.906547,0.0,195.1,0,0.0,-1,0.0,0.0,0,0.0,0.6074
36464,1563730088878,8,2.27,0.78,0.54,1.03,0.84,0.67,-0.1,0.66,-0,6,-5,0.68,4544,8,81,40,57,917,0.0,388,471,60,123.0,0,1,235,241,41,0,0,6,250,250,0,414.87,,,,,,,,,,,,
36484,1563730088897,8,2.28,0.78,0.54,1.03,0.85,0.63,-0.1,0.65,-0,6,-5,0.64,4516,8,81,40,57,919,0.0,382,471,60,123.0,0,1,232,241,41,0,0,6,250,250,0,414.87,,,,,,,,,,,,
36504,1563730088917,7,2.29,0.79,0.53,1.03,0.84,0.64,-0.12,0.63,-0,5,-6,0.65,4537,8,81,40,57,922,0.0,389,473,60,123.0,0,1,235,246,41,0,0,6,250,250,0,414.87,,,,,,,,,,,,
36524,1563730088937,8,2.28,0.78,0.54,1.03,0.85,0.64,-0.12,0.64,-0,5,-5,0.66,4524,8,81,40,57,925,0.0,380,471,60,123.0,0,1,233,241,41,0,0,6,250,250,0,648.46,,,,,,,,,,,,
36544,1563730088957,8,2.28,0.79,0.54,1.03,0.85,0.64,-0.15,0.68,-0,3,-5,0.66,4547,8,81,40,57,927,0.0,391,463,60,123.0,0,1,236,241,41,0,0,6,250,250,0,648.46,45.747807,4.906547,0.0,195.1,0,0.0,-1,0.0,0.0,0,0.0,0.6091
36564,1563730088977,6,2.29,0.79,0.54,1.03,0.85,0.6,-0.15,0.68,-0,2,-5,0.62,4507,8,82,40,57,926,0.0,380,469,60,123.0,0,1,231,241,41,0,0,6,250,250,0,648.46,,,,,,,,,,,,
36584,1563730088997,8,2.28,0.79,0.54,1.04,0.84,0.61,-0.15,0.65,-0,2,-4,0.63,4537,8,82,40,57,926,0.0,385,470,60,123.0,0,1,235,241,41,0,0,6,250,250,0,648.46,,,,,,,,,,,,
36604,1563730089009,7,2.28,0.79,0.53,1.03,0.85,0.62,-0.15,0.63,-0,2,-4,0.64,4477,8,82,40,57,924,0.0,380,468,60,123.0,0,1,228,241,41,0,0,5,250,250,0,648.46,,,,,,,,,,,,
36624,1563730089029,6,2.29,0.79,0.54,1.03,0.85,0.64,-0.18,0.65,-0,1,-4,0.67,4519,8,82,40,57,923,0.0,383,466,60,123.0,0,1,232,241,41,0,0,196,250,250,0,648.46,,,,,,,,,,,,
36644,1563730089049,8,2.28,0.79,0.54,1.04,0.85,0.64,-0.19,0.63,-0,-0,-4,0.67,4499,8,82,40,57,921,0.0,384,470,60,123.0,0,1,230,241,41,0,0,196,250,250,0,648.46,45.747807,4.906547,0.0,195.1,0,0.0,-1,0.0,0.0,0,0.0,0.6107
36664,1563730089069,6,2.29,0.79,0.54,1.03,0.85,0.66,-0.18,0.6,-0,-1,-4,0.69,4544,8,82,40,57,920,0.0,384,470,60,123.0,0,1,235,241,41,0,0,196,250,250,0,648.46,,,,,,,,,,,,
36684,1563730089091,8,2.28,0.79,0.54,1.03,0.85,0.68,-0.17,0.61,-0,-2,-3,0.7,4553,8,82,40,57,918,0.0,391,465,60,122.0,0,1,236,241,41,0,0,196,250,250,0,648.46,,,,,,,,,,,,
36704,1563730089111,7,2.28,0.79,0.54,1.03,0.85,0.7,-0.16,0.62,0,-3,-2,0.72,4545,8,82,40,57,917,0.0,388,465,60,122.0,0,1,235,241,41,0,0,196,250,250,0,648.46,,,,,,,,,,,,
36724,1563730089131,6,2.29,0.79,0.54,1.03,0.85,0.73,-0.18,0.6,0,-4,-2,0.75,4552,8,82,40,57,916,0.0,387,474,60,123.0,0,1,236,241,41,0,0,196,250,250,0,648.46,,,,,,,,,,,,
36744,1563730089151,6,2.27,0.79,0.54,1.03,0.85,0.76,-0.14,0.57,0,-4,-0,0.78,4513,8,82,40,57,916,0.0,391,466,60,122.0,0,1,231,241,41,0,0,196,250,250,0,882.05,45.747807,4.906547,0.0,195.1,0,0.0,-1,0.0,0.0,0,0.0,0.6124
36764,1563730089171,6,2.29,0.79,0.54,1.04,0.85,0.79,-0.12,0.55,0,-5,1,0.8,4518,8,82,40,57,916,0.0,382,469,60,122.0,0,1,232,241,41,0,0,196,250,250,0,882.05,,,,,,,,,,,,
36784,1563730089197,7,2.28,0.79,0.54,1.04,0.85,0.82,-0.09,0.51,0,-6,1,0.82,4528,8,82,40,57,916,0.0,396,466,60,122.0,0,1,234,241,41,0,0,196,250,250,0,882.05,,,,,,,,,,,,
36804,1563730089217,8,2.28,0.79,0.54,1.04,0.85,0.87,-0.08,0.5,0,-7,1,0.87,4545,8,82,40,57,917,0.0,387,470,60,122.0,0,1,235,241,41,0,0,196,250,250,0,882.05,,,,,,,,,,,,
36824,1563730089237,7,2.28,0.79,0.54,1.03,0.86,0.9,-0.04,0.48,1,-7,2,0.9,4526,8,82,40,57,917,0.0,391,468,60,121.0,0,1,233,241,41,0,0,196,250,250,0,882.05,,,,,,,,,,,,
36844,1563730089257,7,2.28,0.79,0.54,1.04,0.85,0.91,-0.01,0.5,0,-8,3,0.91,4549,8,82,40,57,918,0.0,392,469,60,121.0,0,1,236,241,41,0,0,196,250,250,0,882.05,45.747807,4.906547,0.0,195.1,0,0.0,-1,0.0,0.0,0,0.0,0.6141
36864,1563730089277,7,2.27,0.79,0.54,1.04,0.85,0.91,0.01,0.48,1,-9,4,0.91,4534,8,82,40,57,919,0.0,386,466,60,122.0,0,1,234,241,41,0,0,196,250,250,0,882.05,,,,,,,,,,,,
36884,1563730089297,6,2.28,0.79,0.54,1.04,0.85,0.92,0.07,0.44,1,-8,4,0.92,4530,8,82,40,57,920,0.0,386,468,60,121.0,0,1,234,241,41,0,0,196,250,250,0,882.05,,,,,,,,,,,,
36904,1563730089309,6,2.28,0.79,0.54,1.04,0.85,0.94,0.1,0.4,1,-7,5,0.94,4550,8,82,40,57,920,0.0,391,467,60,121.0,0,1,236,241,41,0,0,196,250,250,0,414.87,,,,,,,,,,,,
36924,1563730089329,7,2.28,0.79,0.54,1.04,0.86,0.96,0.1,0.37,1,-6,6,0.97,4556,8,82,40,57,920,0.0,389,470,60,121.0,0,1,236,241,41,0,0,196,250,250,0,414.87,,,,,,,,,,,,
36944,1563730089349,8,2.28,0.79,0.54,1.05,0.85,0.99,0.11,0.38,1,-6,6,0.99,4552,9,82,40,57,920,0.0,394,470,60,122.0,0,1,236,241,41,0,0,196,250,250,0,414.87,45.747807,4.906547,0.0,195.1,0,0.0,-1,0.0,0.0,0,0.0,0.6157
36964,1563730089369,7,2.28,0.8,0.54,1.03,0.86,0.99,0.14,0.32,1,-5,6,1.0,4531,9,82,40,57,920,0.0,388,470,60,121.0,0,1,234,241,41,0,0,196,250,250,0,414.87,,,,,,,,,,,,
36984,1563730089397,6,2.29,0.79,0.55,1.05,0.86,0.98,0.16,0.33,1,-4,5,0.99,4544,9,82,40,57,919,0.0,391,466,60,122.0,0,1,235,246,41,0,0,196,250,250,0,414.87,,,,,,,,,,,,
37004,1563730089417,7,2.28,0.8,0.54,1.04,0.86,0.97,0.15,0.36,1,-4,5,0.98,4554,10,82,40,57,919,0.0,393,466,60,122.0,0,1,236,246,41,0,0,196,250,250,0,414.87,,,,,,,,,,,,
37024,1563730089437,9,2.28,0.8,0.54,1.04,0.86,0.97,0.14,0.38,1,-4,4,0.98,4572,10,82,40,58,919,0.0,391,468,60,121.0,0,1,236,246,41,0,0,196,250,250,0,414.87,,,,,,,,,,,,
37044,1563730089457,9,2.28,0.79,0.55,1.04,0.86,0.98,0.1,0.4,0,-2,4,0.98,4574,10,82,40,58,919,0.0,393,465,60,122.0,0,1,237,246,41,0,0,196,250,250,0,414.87,45.747807,4.906547,0.0,195.1,0,0.0,-1,0.0,0.0,0,0.0,0.6174
37064,1563730089477,9,2.28,0.79,0.55,1.04,0.85,0.97,0.06,0.42,0,-1,3,0.97,4593,10,82,40,58,920,0.0,388,465,60,122.0,0,1,239,246,42,0,0,196,250,250,0,414.87,,,,,,,,,,,,
37084,1563730089495,10,2.28,0.8,0.54,1.04,0.86,0.93,0.04,0.45,0,1,2,0.93,4594,10,82,40,58,919,0.0,397,468,60,123.0,0,1,239,246,42,0,0,196,250,250,0,414.87,,,,,,,,,,,,
37104,1563730089515,9,2.29,0.79,0.55,1.05,0.85,0.88,0.02,0.48,0,3,0,0.88,4578,10,82,40,59,918,0.0,388,468,60,123.0,0,1,235,246,42,0,0,196,250,250,0,414.87,,,,,,,,,,,,
37124,1563730089535,7,2.28,0.79,0.54,1.04,0.86,0.83,-0.0,0.5,-0,2,-1,0.83,4627,10,82,40,59,916,0.0,391,469,60,123.0,0,1,240,250,42,0,0,196,250,250,0,414.87,,,,,,,,,,,,
37144,1563730089555,8,2.28,0.8,0.54,1.05,0.86,0.77,-0.01,0.53,-0,1,-2,0.77,4614,10,82,40,59,914,0.0,391,472,60,123.0,0,1,239,250,42,0,0,196,250,250,0,414.87,45.747807,4.906547,0.0,195.1,0,0.0,-1,0.0,0.0,0,0.0,0.6191
37164,1563730089575,7,2.28,0.8,0.54,1.05,0.86,0.77,-0.03,0.52,-0,-0,-2,0.77,4665,10,82,40,59,913,0.0,394,475,60,123.0,0,1,245,250,43,0,0,196,250,250,0,414.87,,,,,,,,,,,,
37184,1563730089593,7,2.28,0.8,0.54,1.05,0.85,0.8,-0.03,0.54,-0,-2,-1,0.8,4644,10,82,40,59,911,0.0,401,466,60,122.0,0,1,242,250,43,0,0,196,250,250,0,882.05,,,,,,,,,,,,
37204,1563730089613,7,2.28,0.79,0.54,1.04,0.86,0.82,0.01,0.49,0,-3,0,0.82,4650,10,82,40,59,911,0.0,401,466,60,122.0,0,1,243,250,43,0,0,196,250,250,0,882.05,,,,,,,,,,,,
37224,1563730089633,7,2.28,0.8,0.54,1.05,0.86,0.84,0.09,0.41,0,-3,1,0.85,4678,11,82,40,59,911,0.0,397,469,60,122.0,0,1,246,250,43,0,0,196,250,250,0,882.05,,,,,,,,,,,,
37244,1563730089653,7,2.29,0.79,0.55,1.05,0.85,0.86,0.12,0.4,0,-1,2,0.86,4711,11,83,40,59,913,0.0,408,471,60,122.0,0,1,249,251,43,0,0,196,250,250,0,414.87,45.747807,4.906547,0.0,195.1,0,0.0,-1,0.0,0.0,0,0.0,0.6207
37264,1563730089673,10,2.28,0.79,0.55,1.04,0.86,0.86,0.09,0.43,0,-0,2,0.87,4716,11,83,40,59,916,0.0,407,465,60,122.0,0,1,250,255,44,0,0,196,250,250,0,414.87,,,,,,,,,,,,
37284,1563730089693,10,2.28,0.79,0.54,1.04,0.86,0.81,0.08,0.49,0,1,1,0.82,4728,11,83,40,59,918,0.0,401,470,60,123.0,0,1,251,251,44,0,0,196,250,250,0,414.87,,,,,,,,,,,,
37304,1563730089713,7,2.28,0.8,0.54,1.05,0.85,0.76,0.01,0.53,0,1,-0,0.76,4739,11,83,40,59,920,0.0,409,468,60,123.0,0,1,252,251,44,0,0,196,250,250,0,648.46,,,,,,,,,,,,
37324,1563730089733,7,2.28,0.8,0.54,1.04,0.85,0.76,-0.05,0.51,0,0,-1,0.77,4728,11,83,40,60,922,0.0,399,467,60,122.0,0,1,248,255,44,0,0,196,250,250,0,882.05,,,,,,,,,,,,
37344,1563730089753,6,2.28,0.79,0.54,1.04,0.86,0.83,-0.01,0.41,0,0,0,0.83,4780,11,83,40,60,924,0.0,413,473,60,121.0,0,1,254,255,44,0,0,196,250,250,0,882.05,45.747807,4.906547,0.0,195.1,0,0.0,-1,0.0,0.0,0,0.0,0.6224
37364,1563730089773,9,2.29,0.79,0.55,1.04,0.86,0.89,-0.01,0.37,0,-0,1,0.89,4807,11,83,40,60,926,0.0,413,462,60,121.0,0,1,257,256,46,0,0,196,250,250,0,414.87,,,,,,,,,,,,
37384,1563730089795,9,2.28,0.79,0.54,1.04,0.86,0.9,0.01,0.44,0,0,0,0.9,4788,11,83,40,60,927,0.0,408,467,60,123.0,0,1,255,255,46,0,0,196,250,250,0,414.87,,,,,,,,,,,,
37404,1563730089815,6,2.28,0.79,0.54,1.03,0.86,0.83,-0.01,0.51,0,-1,-1,0.84,4827,11,83,40,60,927,0.0,411,469,60,123.0,0,1,259,256,46,0,0,196,250,250,0,414.87,,,,,,,,,,,,
37424,1563730089835,5,2.28,0.79,0.54,1.04,0.85,0.8,-0.07,0.52,0,-2,-2,0.8,4816,11,83,40,60,927,0.0,405,471,60,123.0,0,1,258,256,46,0,0,196,250,250,0,882.05,,,,,,,,,,,,
37444,1563730089855,8,2.28,0.79,0.54,1.04,0.86,0.86,-0.02,0.42,0,-2,-0,0.86,4812,11,83,40,60,928,0.0,419,466,60,121.0,0,1,257,256,46,0,0,196,250,250,0,882.05,45.747807,4.906547,0.0,195.1,0,0.0,-1,0.0,0.0,0,0.0,0.6241
37464,1563730089875,8,2.28,0.79,0.53,1.04,0.86,0.89,-0.04,0.4,0,-1,0,0.89,4876,11,83,40,60,928,0.0,421,462,60,121.0,0,1,263,261,47,0,0,196,250,250,0,414.87,,,,,,,,,,,,
37484,1563730089898,8,2.28,0.79,0.54,1.04,0.86,0.85,-0.03,0.49,0,-1,-0,0.85,4851,11,83,40,61,927,0.0,411,473,60,122.0,0,1,257,256,47,0,0,196,250,250,0,414.87,,,,,,,,,,,,
37504,1563730089918,6,2.28,0.79,0.54,1.04,0.85,0.8,-0.08,0.59,0,-2,-1,0.8,4853,11,83,40,61,926,0.0,416,470,60,122.0,0,1,257,261,47,0,0,196,250,250,0,648.46,,,,,,,,,,,,
37524,1563730089938,8,2.28,0.8,0.54,1.04,0.85,0.85,0.01,0.5,0,-1,-1,0.85,4895,11,83,40,61,926,0.0,417,467,60,121.0,0,1,261,261,47,0,0,196,250,250,0,882.05,,,,,,,,,,,,
37544,1563730089958,10,2.27,0.79,0.54,1.04,0.85,0.88,-0.02,0.46,-0,-1,0,0.88,4889,11,83,40,61,925,0.0,424,462,60,121.0,0,1,261,261,47,0,0,196,250,250,0,414.87,45.747807,4.906547,0.0,195.1,0,0.0,-1,0.0,0.0,0,0.0,0.6257
37564,1563730089978,7,2.28,0.8,0.54,1.05,0.85,0.84,-0.04,0.52,0,-0,-0,0.84,4913,11,83,40,61,925,0.0,427,467,60,123.0,0,1,263,261,48,0,0,196,250,250,0,414.87,,,,,,,,,,,,
37584,1563730089998,8,2.28,0.79,0.54,1.04,0.86,0.8,-0.03,0.55,-0,-0,-0,0.8,4904,11,83,40,61,920,0.0,421,475,60,122.0,0,1,262,261,48,0,0,196,250,250,0,648.46,,,,,,,,,,,,
37604,1563730090010,7,2.29,0.79,0.54,1.04,0.86,0.85,-0.01,0.48,-0,-0,0,0.85,4919,11,83,40,61,915,0.0,424,461,60,121.0,0,1,264,261,48,0,0,422,250,250,0,414.87,,,,,,,,,,,,
37624,1563730090030,9,2.29,0.79,0.54,1.04,0.85,0.89,-0.05,0.51,-0,-0,-0,0.89,4923,11,83,40,61,911,0.0,423,466,60,123.0,0,1,264,261,48,0,0,422,250,250,0,414.87,,,,,,,,,,,,
37644,1563730090050,8,2.28,0.79,0.54,1.04,0.86,0.79,-0.06,0.58,0,-1,-1,0.79,4947,11,83,40,61,907,0.0,427,470,60,123.0,0,1,266,261,48,0,0,88,250,250,0,648.46,45.747807,4.906547,0.0,195.1,0,0.0,-1,0.0,0.0,0,0.0,0.6274
37664,1563730090070,9,2.28,0.79,0.54,1.05,0.85,0.82,-0.02,0.5,0,-0,-0,0.82,4957,11,83,40,61,899,0.0,427,477,60,122.0,0,1,266,261,48,0,0,10607,250,250,0,882.05,,,,,,,,,,,,
37684,1563730090094,11,2.28,0.8,0.54,1.05,0.86,0.84,-0.05,0.46,0,0,0,0.84,4965,11,83,40,61,892,0.0,433,461,60,122.0,0,1,268,261,48,0,0,10607,250,250,0,414.87,,,,,,,,,,,,
37704,1563730090114,8,2.28,0.8,0.54,1.05,0.86,0.77,-0.04,0.54,0,-0,0,0.77,4989,11,83,40,61,889,0.0,423,473,60,123.0,0,1,270,261,48,0,0,10607,250,250,0,414.87,,,,,,,,,,,,
37724,1563730090134,8,2.28,0.8,0.54,1.05,0.86,0.8,0.0,0.51,0,-0,0,0.8,5010,11,83,40,61,885,0.0,430,471,60,123.0,0,1,273,262,48,0,0,10607,250,250,0,882.05,,,,,,,,,,,,
37744,1563730090154,9,2.29,0.8,0.54,1.04,0.86,0.83,-0.06,0.49,-0,-0,-0,0.84,5051,11,83,40,61,882,0.0,438,463,60,122.0,0,1,277,261,48,0,0,31,250,250,0,414.87,45.747807,4.906547,0.0,195.1,0,0.0,-1,0.0,0.0,0,0.0,0.6291
37764,1563730090174,5,2.27,0.79,0.54,1.05,0.85,0.76,-0.07,0.56,0,-1,-1,0.76,5048,11,83,40,61,879,0.0,432,473,60,123.0,0,1,277,262,50,0,0,31,250,250,0,648.46,,,,,,,,,,,,
37784,1563730090198,10,2.28,0.8,0.54,1.05,0.86,0.81,-0.03,0.47,-0,-1,0,0.81,5081,11,83,40,61,877,0.0,438,467,60,121.0,0,1,280,261,50,0,0,393,250,250,0,414.87,,,,,,,,,,,,
37804,1563730090218,6,2.29,0.79,0.54,1.04,0.86,0.81,-0.09,0.52,0,-1,-0,0.81,5096,12,83,40,61,876,0.0,441,463,60,123.0,0,1,282,257,50,0,0,220,250,250,0,414.87,,,,,,,,,,,,
37824,1563730090238,7,2.28,0.79,0.54,1.04,0.85,0.82,-0.05,0.54,0,-2,-0,0.82,5100,11,83,40,61,875,0.0,432,476,60,122.0,0,1,282,260,50,0,0,220,250,250,0,648.46,,,,,,,,,,,,
37844,1563730090258,8,2.28,0.79,0.54,1.05,0.86,0.84,-0.08,0.52,-0,-1,-0,0.84,5136,12,83,40,61,875,0.0,443,468,60,122.0,0,1,286,260,50,0,0,74,250,250,0,414.87,45.747807,4.906547,0.0,195.1,0,0.0,-1,0.0,0.0,0,0.0,0.6307
37864,1563730090278,8,2.28,0.79,0.53,1.05,0.85,0.8,-0.08,0.6,0,-2,-1,0.81,5170,12,83,40,61,874,0.0,446,472,60,123.0,0,1,290,255,50,0,0,74,250,250,0,648.46,,,,,,,,,,,,
37884,1563730090298,9,2.27,0.79,0.53,1.04,0.86,0.83,-0.07,0.53,-0,-1,-1,0.83,5212,12,83,40,60,875,0.0,448,462,60,122.0,0,1,299,254,50,0,0,63,250,250,0,414.87,,,,,,,,,,,,
37904,1563730090318,7,2.27,0.79,0.54,1.04,0.85,0.79,-0.08,0.55,0,-1,-1,0.79,5247,12,84,40,60,874,0.0,447,470,60,122.0,0,1,302,254,50,0,0,63,250,250,0,648.46,,,,,,,,,,,,
37924,1563730090338,8,2.28,0.79,0.54,1.05,0.85,0.79,-0.09,0.51,-0,-1,-1,0.8,5290,12,84,40,60,873,0.0,462,471,60,122.0,0,1,307,254,50,0,0,64,250,250,0,414.87,,,,,,,,,,,,
37944,1563730090358,9,2.28,0.8,0.53,1.05,0.85,0.82,-0.02,0.51,0,-1,-0,0.82,5340,12,84,40,59,872,0.0,460,466,60,122.0,0,1,315,250,50,0,0,96,250,250,0,648.46,45.747807,4.906547,0.0,195.1,0,0.0,-1,0.0,0.0,0,0.0,0.6324
37964,1563730090378,8,2.28,0.79,0.54,1.04,0.86,0.76,-0.08,0.51,0,1,-0,0.77,5378,12,84,40,59,870,0.0,464,466,60,123.0,0,1,319,250,50,0,0,96,250,250,0,414.87,,,,,,,,,,,,
37984,1563730090398,8,2.29,0.79,0.54,1.05,0.85,0.84,-0.06,0.53,-0,-0,-0,0.84,5398,12,84,40,59,870,0.0,465,476,60,122.0,0,1,324,250,50,0,0,96,250,250,0,882.05,,,,,,,,,,,,
38004,1563730090418,8,2.29,0.79,0.54,1.05,0.86,0.8,-0.06,0.61,0,-1,-0,0.8,5453,12,84,40,58,871,0.0,469,468,60,122.0,0,1,329,248,50,0,0,331,250,250,0,414.87,,,,,,,,,,,,
38024,1563730090438,7,2.28,0.8,0.54,1.05,0.85,0.78,-0.08,0.59,0,-1,-0,0.78,5544,12,84,40,58,872,0.0,478,469,60,121.0,0,1,338,248,50,0,0,331,250,250,0,414.87,,,,,,,,,,,,
38044,1563730090458,8,2.27,0.79,0.54,1.05,0.85,0.86,-0.06,0.53,-0,-2,-0,0.86,5620,12,84,40,57,874,0.0,485,467,60,121.0,0,1,347,247,50,0,0,69,250,250,0,882.05,45.747807,4.906547,0.0,195.1,0,0.0,-1,0.0,0.0,0,0.0,0.6341
38064,1563730090478,10,2.28,0.8,0.54,1.04,0.85,0.89,0.02,0.46,0,-3,-1,0.89,5699,12,84,40,56,877,0.0,497,472,60,122.0,0,1,356,247,53,0,0,157,250,250,0,882.05,,,,,,,,,,,,
38084,1563730090496,8,2.28,0.79,0.54,1.04,0.86,0.8,-0.02,0.46,0,-2,-1,0.8,5749,12,84,40,55,879,0.0,500,467,60,123.0,0,1,362,247,53,0,0,125,250,250,0,648.46,,,,,,,,,,,,
38104,1563730090516,8,2.27,0.79,0.54,1.04,0.85,0.7,-0.08,0.48,1,-0,-2,0.7,5850,12,84,40,54,882,0.0,501,467,60,123.0,0,1,371,249,53,0,0,125,250,250,0,414.87,,,,,,,,,,,,
38124,1563730090536,10,2.27,0.8,0.54,1.05,0.85,0.62,-0.14,0.51,1,-1,-3,0.64,5956,12,84,40,53,883,0.0,502,468,60,123.0,0,1,376,246,53,0,0,63,250,250,0,414.87,,,,,,,,,,,,
38144,1563730090556,9,2.28,0.8,0.54,1.05,0.86,0.56,-0.2,0.54,1,-1,-4,0.59,6065,12,84,40,52,882,0.0,515,468,60,123.0,0,1,377,241,53,0,0,246,250,250,0,414.87,45.747807,4.906547,0.0,195.1,0,0.0,-1,0.0,0.0,0,0.0,0.6357
38164,1563730090576,9,2.27,0.79,0.53,1.04,0.86,0.52,-0.21,0.52,2,-1,-4,0.56,6143,12,84,40,50,882,0.0,521,468,60,123.0,0,1,370,230,54,0,0,10965,250,250,0,414.87,,,,,,,,,,,,
38184,1563730090594,7,2.29,0.79,0.54,1.05,0.85,0.51,-0.17,0.42,3,1,-4,0.53,6233,12,84,40,50,881,0.0,525,468,60,122.0,0,1,371,225,54,0,0,10965,250,250,0,648.46,,,,,,,,,,,,
38204,1563730090614,6,2.28,0.79,0.54,1.04,0.86,0.56,-0.11,0.28,2,3,-4,0.57,6308,12,84,40,49,880,0.0,529,468,60,122.0,0,1,369,220,54,0,0,179,250,250,0,882.05,,,,,,,,,,,,
38224,1563730090634,8,2.28,0.8,0.54,1.04,0.86,0.6,-0.1,0.28,2,3,-3,0.61,6353,12,84,40,48,876,0.0,538,471,60,122.0,0,1,366,220,54,0,0,1476,250,250,0,882.05,,,,,,,,,,,,
38244,1563730090654,9,2.29,0.79,0.55,1.05,0.85,0.57,-0.13,0.34,2,2,-3,0.59,6403,12,84,40,47,867,0.0,540,465,60,123.0,0,1,364,216,54,0,0,78,250,250,0,414.87,45.747807,4.906547,0.0,195.1,0,0.0,-1,0.0,0.0,0,0.0,0.6374
38264,1563730090674,6,2.29,0.8,0.54,1.04,0.86,0.61,-0.1,0.33,1,1,-3,0.62,6476,13,84,40,46,860,0.0,548,471,60,122.0,0,1,357,214,52,0,0,114,250,250,0,648.46,,,,,,,,,,,,
38284,1563730090694,9,2.29,0.79,0.54,1.05,0.85,0.69,-0.1,0.4,1,-1,-3,0.7,6555,13,84,40,46,853,0.0,555,471,60,120.0,0,1,358,214,52,0,0,175,250,250,0,882.05,,,,,,,,,,,,
38304,1563730090714,11,2.28,0.8,0.54,1.04,0.86,0.62,-0.11,0.47,1,-0,-3,0.63,6583,13,84,40,45,844,0.0,558,471,60,123.0,0,1,351,213,52,0,0,268,250,250,0,414.87,,,,,,,,,,,,
38324,1563730090734,6,2.28,0.8,0.54,1.05,0.86,0.75,-0.05,0.44,1,0,-3,0.75,6618,13,84,40,45,833,0.0,563,470,60,122.0,0,1,352,213,52,0,0,198,250,250,0,882.05,,,,,,,,,,,,
38344,1563730090754,9,2.28,0.8,0.54,1.04,0.86,0.69,-0.1,0.58,1,0,-3,0.7,6630,13,84,40,44,821,0.0,573,466,60,122.0,0,1,345,212,52,0,0,681,250,250,0,414.87,45.747807,4.906547,0.0,195.1,0,0.0,-1,0.0,0.0,0,0.0,0.6391
38364,1563730090774,7,2.28,0.8,0.55,1.04,0.86,0.66,-0.06,0.46,1,3,-2,0.67,6627,13,84,40,44,816,0.0,568,468,60,123.0,0,1,345,212,53,0,0,220,250,250,0,648.46,,,,,,,,,,,,
38384,1563730090702,9,2.29,0.8,0.54,1.06,0.86,0.75,-0.05,0.53,1,-0,-1,0.75,6686,13,84,40,44,811,0.0,570,471,60,120.0,0,1,345,212,53,0,0,155,250,250,0,414.87,,,,,,,,,,,,
38404,1563730090797,7,2.29,0.79,0.54,1.05,0.86,0.7,-0.06,0.49,1,2,-1,0.71,6715,13,84,40,43,808,0.0,575,468,60,123.0,0,1,338,210,53,0,0,1702,250,250,0,648.46,,,,,,,,,,,,
38424,1563730090817,9,2.28,0.8,0.54,1.05,0.86,0.76,-0.06,0.45,1,2,-1,0.76,6679,14,84,40,43,805,0.0,578,473,60,122.0,0,1,338,210,53,0,0,511,250,250,0,882.05,,,,,,,,,,,,
38444,1563730090837,7,2.28,0.8,0.54,1.05,0.86,0.74,-0.04,0.44,1,1,-1,0.74,6686,14,84,40,43,807,0.0,572,465,60,123.0,0,1,338,210,53,0,0,511,250,250,0,414.87,45.747807,4.906547,0.0,195.1,0,0.0,-1,0.0,0.0,0,0.0,0.6407
38464,1563730090857,7,2.29,0.8,0.54,1.04,0.86,0.78,-0.05,0.43,0,-2,-1,0.78,6696,14,84,40,43,810,0.0,572,473,60,121.0,0,1,338,210,52,0,0,59,250,250,0,882.05,,,,,,,,,,,,
38484,1563730090877,12,2.29,0.79,0.55,1.05,0.86,0.72,-0.06,0.48,1,-0,-1,0.72,6730,18,84,40,43,813,0.0,566,467,60,123.0,0,1,338,210,52,0,0,11349,250,250,0,414.87,,,,,,,,,,,,
38504,1563730090897,7,2.28,0.8,0.54,1.05,0.86,0.81,-0.0,0.45,0,-0,-1,0.81,6761,22,84,40,44,816,0.0,571,470,60,121.0,0,1,345,212,52,0,0,11349,250,250,0,648.46,,,,,,,,,,,,
38524,1563730090909,7,2.27,0.8,0.54,1.05,0.85,0.73,0.01,0.51,1,1,-0,0.73,6793,28,84,40,47,817,0.0,570,463,60,122.0,0,1,367,215,52,0,0,11349,250,250,0,414.87,,,,,,,,,,,,
38544,1563730090929,9,2.27,0.8,0.54,1.05,0.85,0.8,-0.02,0.55,0,-1,0,0.8,6908,32,84,40,50,818,0.0,573,470,60,122.0,0,1,377,232,52,0,0,11349,250,250,0,882.05,45.747807,4.906547,0.0,195.1,0,0.0,-1,0.0,0.0,0,0.0,0.6424
38564,1563730090949,7,2.29,0.79,0.54,1.05,0.87,0.77,0.02,0.43,1,1,-0,0.77,7011,35,84,40,53,815,0.0,584,470,60,122.0,0,1,387,248,62,0,0,32,250,250,0,648.46,,,,,,,,,,,,
38584,1563730090969,6,2.28,0.8,0.55,1.04,0.87,0.84,-0.01,0.51,0,-1,-1,0.84,7145,40,84,40,57,811,0.0,596,468,60,123.0,0,1,405,270,62,0,0,1084,250,250,0,414.87,,,,,,,,,,,,
38604,1563730091009,6,2.28,0.79,0.54,1.05,0.86,0.88,-0.02,0.59,0,-1,-1,0.88,7307,45,84,40,61,806,0.0,616,473,60,122.0,0,1,431,294,62,0,0,74,250,250,0,414.87,,,,,,,,,,,,
38624,1563730091029,6,2.29,0.8,0.54,1.05,0.86,0.92,-0.09,0.66,0,-1,-1,0.93,7446,48,84,40,65,801,0.0,626,471,60,121.0,0,1,425,318,62,0,0,74,250,250,0,414.87,,,,,,,,,,,,
38644,1563730091049,7,2.28,0.8,0.54,1.05,0.86,0.99,-0.14,0.7,-0,-2,-1,1.0,7659,52,84,40,68,800,0.0,632,469,60,120.0,0,1,430,344,62,0,0,74,250,250,0,414.87,45.747807,4.906547,0.0,195.1,0,0.0,-1,0.0,0.0,0,0.0,0.6441
38664,1563730091069,8,2.28,0.8,0.54,1.05,0.86,1.03,-0.16,0.74,-1,-3,-1,1.04,7793,56,84,40,70,800,0.0,640,467,60,121.0,0,1,435,381,107,0,0,1011,250,250,0,648.46,,,,,,,,,,,,
38684,1563730091097,5,2.29,0.8,0.55,1.05,0.87,0.97,-0.11,0.69,-1,-2,-1,0.97,8078,60,84,40,72,803,0.0,638,469,60,122.0,0,1,443,407,107,0,0,359,250,250,0,882.05,,,,,,,,,,,,
38704,1563730091117,7,2.28,0.8,0.54,1.05,0.85,0.98,-0.08,0.65,-1,-2,-1,0.99,8411,62,84,40,73,807,0.0,638,472,60,121.0,0,1,432,414,107,0,0,4773,250,250,0,414.87,,,,,,,,,,,,
38724,1563730091137,9,2.28,0.8,0.54,1.05,0.86,0.98,-0.13,0.66,-1,-1,-1,0.99,8769,64,84,40,72,843,0.0,640,467,60,121.0,0,1,421,397,107,0,0,4773,250,250,0,1115.64,,,,,,,,,,,,
38744,1563730091157,6,2.28,0.8,0.54,1.05,0.86,1.05,-0.19,0.64,-1,-1,-1,1.07,8941,65,84,40,70,892,0.0,665,475,60,122.0,0,1,416,397,107,0,0,4773,250,250,0,1115.64,45.747807,4.906547,0.0,195.1,0,0.0,-1,0.0,0.0,0,0.0,0.6457
38764,1563730091177,9,2.28,0.8,0.55,1.05,0.86,1.01,-0.26,0.64,-1,0,-0,1.05,9097,66,85,40,69,939,0.0,661,476,60,124.0,0,1,413,389,134,0,0,4773,250,250,0,414.87,,,,,,,,,,,,
38784,1563730091197,9,2.28,0.8,0.54,1.05,0.87,1.04,-0.3,0.66,-1,-1,-1,1.09,8869,66,84,40,72,984,0.0,661,460,60,121.0,0,1,418,397,134,0,0,4773,250,250,0,882.05,,,,,,,,,,,,
38804,1563730091217,8,2.28,0.8,0.55,1.05,0.86,1.08,-0.32,0.68,-1,-2,0,1.12,8704,67,84,40,74,1050,0.0,648,468,60,122.0,0,1,422,425,134,0,0,4773,250,250,0,882.05,,,,,,,,,,,,
38824,1563730091237,6,2.28,0.8,0.55,1.05,0.86,1.09,-0.35,0.7,-1,-3,-1,1.14,8958,67,84,40,74,1132,0.0,653,474,60,122.0,0,1,415,425,134,0,0,20,250,250,0,882.05,,,,,,,,,,,,
38844,1563730091257,9,2.28,0.8,0.55,1.05,0.87,1.13,-0.35,0.72,-1,-4,-0,1.18,9128,65,85,40,72,1194,0.0,659,467,60,123.0,0,1,413,407,134,0,0,169,250,250,0,414.87,45.747807,4.906547,0.0,195.1,0,0.0,-1,0.0,0.0,0,0.0,0.6474
38864,1563730091277,8,2.28,0.8,0.55,1.05,0.86,1.14,-0.33,0.72,-1,-4,-1,1.18,8903,67,84,40,73,1233,0.0,654,465,60,122.0,0,1,417,416,139,0,0,169,250,250,0,882.05,,,,,,,,,,,,
38884,1563730091297,7,2.29,0.8,0.54,1.06,0.87,1.09,-0.27,0.65,-1,-5,-0,1.12,8688,68,84,40,75,1283,0.0,658,470,60,122.0,0,1,423,444,139,0,0,169,250,250,0,882.05,,,,,,,,,,,,
38904,1563730091317,4,2.29,0.8,0.54,1.05,0.86,0.96,-0.17,0.62,-0,-4,-1,0.97,8848,68,84,40,76,1346,0.0,655,471,60,122.0,0,1,417,444,139,0,0,169,250,250,0,882.05,,,,,,,,,,,,
38924,1563730091337,6,2.28,0.8,0.54,1.06,0.86,0.98,-0.08,0.54,-0,-5,0,0.99,9245,68,85,40,74,1398,0.0,657,466,60,124.0,0,1,414,425,139,0,0,494,250,250,0,414.87,,,,,,,,,,,,
38944,1563730091357,7,2.29,0.8,0.55,1.05,0.87,0.95,-0.04,0.56,0,-4,-1,0.95,9031,68,85,40,74,1425,0.0,663,462,60,124.0,0,1,413,416,139,0,0,494,250,250,0,414.87,45.747807,4.906547,0.0,195.1,0,0.0,-1,0.0,0.0,0,0.0,0.6491
38964,1563730091377,7,2.28,0.8,0.54,1.06,0.86,0.94,0.02,0.5,0,-4,-0,0.94,8802,68,84,40,76,1452,0.0,654,472,60,122.0,0,1,419,435,144,0,0,494,250,250,0,882.05,,,,,,,,,,,,
38984,1563730091397,5,2.28,0.8,0.54,1.05,0.86,0.83,0.09,0.47,1,-4,-0,0.84,8712,68,84,40,77,1478,0.0,661,467,60,122.0,0,1,421,458,144,0,0,494,250,250,0,648.46,,,,,,,,,,,,
39004,1563730091417,4,2.28,0.8,0.54,1.06,0.86,0.82,0.14,0.45,1,-5,-0,0.83,9137,68,84,40,75,1498,0.0,662,471,60,123.0,0,1,413,444,144,0,0,494,250,250,0,414.87,,,,,,,,,,,,
39024,1563730091437,5,2.28,0.8,0.54,1.05,0.87,0.73,0.2,0.49,1,-4,-0,0.76,8997,68,85,40,74,1498,0.0,660,466,60,124.0,0,1,414,425,144,0,0,24,250,250,0,181.28,,,,,,,,,,,,
39044,1563730091457,5,2.27,0.8,0.54,1.05,0.86,0.74,0.2,0.47,1,-5,0,0.77,8802,69,84,40,76,1498,0.0,661,470,60,122.0,0,1,419,444,144,0,0,24,250,250,0,648.46,45.747807,4.906547,0.0,195.1,0,0.0,-1,0.0,0.0,0,0.0,0.6507
39064,1563730091477,6,2.29,0.8,0.55,1.05,0.87,0.67,0.24,0.57,1,-5,-0,0.71,8949,69,84,40,76,1498,0.0,653,465,60,122.0,0,1,415,444,148,0,0,24,250,250,0,882.05,,,,,,,,,,,,
39084,1563730091495,7,2.29,0.8,0.54,1.05,0.87,0.69,0.22,0.54,1,-6,-0,0.72,9010,69,85,40,75,1498,0.0,655,465,60,124.0,0,1,413,425,148,0,0,49,250,250,0,414.87,,,,,,,,,,,,
39104,1563730091515,10,2.28,0.8,0.54,1.06,0.86,0.67,0.24,0.6,1,-5,-0,0.71,8840,69,84,40,76,1498,0.0,656,468,60,122.0,0,1,418,435,148,0,0,191,250,250,0,648.46,,,,,,,,,,,,
39124,1563730091535,9,2.28,0.8,0.54,1.06,0.86,0.68,0.19,0.59,1,-5,-1,0.71,8720,69,84,40,77,1498,0.0,656,468,60,121.0,0,1,421,458,148,0,0,257,250,250,0,882.05,,,,,,,,,,,,
39144,1563730091555,5,2.29,0.8,0.55,1.05,0.87,0.7,0.15,0.68,1,-5,-0,0.71,9168,68,84,40,75,1498,0.0,660,467,60,121.0,0,1,414,435,148,0,0,257,250,250,0,414.87,45.747807,4.906547,0.0,195.1,0,0.0,-1,0.0,0.0,0,0.0,0.6524
39164,1563730091575,8,2.28,0.8,0.55,1.05,0.87,0.69,0.08,0.69,1,-5,-1,0.7,9018,68,85,40,74,1498,0.0,660,463,60,123.0,0,1,413,425,147,0,0,61,250,250,0,414.87,,,,,,,,,,,,
39184,1563730091595,8,2.28,0.8,0.55,1.05,0.86,0.71,0.04,0.74,0,-4,-1,0.71,8798,68,84,40,76,1498,0.0,665,466,60,121.0,0,1,419,435,147,0,0,253,250,250,0,414.87,,,,,,,,,,,,
39204,1563730091615,7,2.28,0.8,0.55,1.05,0.86,0.78,-0.04,0.69,0,-4,-1,0.78,8745,66,84,40,76,1498,0.0,648,472,60,122.0,0,1,420,458,147,0,0,2774,250,250,0,1115.64,,,,,,,,,,,,
39224,1563730091635,5,2.28,0.8,0.54,1.05,0.86,0.89,-0.1,0.76,-0,-4,-1,0.9,9062,61,84,40,74,1498,0.0,653,469,60,123.0,0,1,413,435,147,0,0,355,250,250,0,414.87,,,,,,,,,,,,
39244,1563730091655,9,2.28,0.8,0.54,1.06,0.86,0.91,-0.17,0.7,-0,-3,-2,0.92,9044,54,85,40,70,1498,0.0,652,463,60,123.0,0,1,413,389,147,0,0,355,250,250,0,414.87,45.747807,4.906547,0.0,195.1,0,0.0,-1,0.0,0.0,0,0.0,0.6541
39264,1563730091675,7,2.29,0.8,0.54,1.05,0.87,0.96,-0.24,0.75,-1,-3,-1,0.99,8831,47,84,40,68,1498,0.0,656,473,60,122.0,0,1,420,370,128,0,0,98,250,250,0,882.05,,,,,,,,,,,,
39284,1563730091695,6,2.28,0.79,0.54,1.06,0.86,1.0,-0.25,0.7,-1,-3,-2,1.03,8937,39,84,40,64,1498,0.0,648,471,60,122.0,0,1,408,356,128,0,0,95,250,250,0,882.05,,,,,,,,,,,,
39304,1563730091715,6,2.29,0.8,0.54,1.06,0.86,1.09,-0.29,0.78,-1,-4,-1,1.12,9110,31,85,40,58,1498,0.0,649,466,60,124.0,0,1,400,326,128,0,0,247,250,250,0,414.87,,,,,,,,,,,,
39324,1563730091735,6,2.28,0.8,0.54,1.06,0.86,1.1,-0.31,0.71,-1,-4,-3,1.15,8988,26,84,40,54,1498,0.0,657,469,60,123.0,0,1,399,290,128,0,0,1835,250,250,0,648.46,,,,,,,,,,,,
39344,1563730091755,7,2.27,0.8,0.54,1.06,0.86,1.17,-0.36,0.72,-2,-4,-2,1.23,8928,23,85,40,50,1498,0.0,647,472,60,122.0,0,1,382,253,128,0,0,2161,250,250,0,882.05,45.747807,4.906547,0.0,195.1,0,0.0,-1,0.0,0.0,0,0.0,0.6557
39364,1563730091775,7,2.27,0.8,0.54,1.05,0.87,1.18,-0.36,0.66,-2,-3,-3,1.23,9110,22,85,40,46,1498,0.0,659,470,60,123.0,0,1,363,229,83,0,0,7728,250,250,0,414.87,,,,,,,,,,,,
39384,1563730091794,6,2.28,0.79,0.54,1.05,0.87,1.25,-0.38,0.67,-2,-4,-2,1.31,8992,20,84,40,44,1498,0.0,654,477,60,122.0,0,1,351,220,83,0,0,305,250,250,0,882.05,,,,,,,,,,,,
39404,1563730091814,8,2.28,0.8,0.54,1.06,0.86,1.24,-0.39,0.61,-2,-2,-3,1.3,9079,18,85,40,41,1498,0.0,656,467,60,124.0,0,1,332,214,83,0,0,305,250,250,0,414.87,,,,,,,,,,,,
39424,1563730091834,7,2.29,0.8,0.54,1.06,0.87,1.3,-0.4,0.61,-2,-2,-2,1.36,8924,17,84,40,40,1498,0.0,652,470,60,122.0,0,1,326,211,83,0,0,793,250,250,0,882.05,,,,,,,,,,,,
39444,1563730091854,7,2.29,0.8,0.55,1.05,0.86,1.29,-0.36,0.55,-2,-2,-3,1.34,8971,17,84,40,38,1498,0.0,658,472,60,122.0,0,1,317,205,83,0,0,793,250,250,0,882.05,45.747807,4.906547,0.0,195.1,0,0.0,-1,0.0,0.0,0,0.0,0.6574
39464,1563730091874,8,2.27,0.8,0.54,1.05,0.86,1.27,-0.32,0.54,-2,-2,-2,1.31,8915,16,84,39,36,1488,0.0,657,472,60,122.0,0,1,311,200,68,0,0,2269,250,250,0,648.46,,,,,,,,,,,,
39484,1563730091898,7,2.29,0.8,0.54,1.06,0.87,1.22,-0.24,0.44,-2,-1,-3,1.24,8861,16,84,39,35,1474,0.0,654,469,60,122.0,0,1,308,196,68,0,0,251,250,250,0,648.46,,,,,,,,,,,,
39504,1563730091918,6,2.28,0.8,0.54,1.06,0.86,1.11,-0.15,0.42,-2,-0,-2,1.12,8861,15,84,39,33,1460,0.0,653,473,60,123.0,0,1,302,193,68,0,0,251,250,250,0,648.46,,,,,,,,,,,,
39524,1563730091938,11,2.29,0.8,0.55,1.05,0.87,1.04,-0.06,0.41,-1,-0,-2,1.05,8831,15,84,39,32,1446,0.0,649,470,60,122.0,0,1,300,186,68,0,0,58,250,250,0,648.46,,,,,,,,,,,,
39544,1563730091958,9,2.28,0.81,0.54,1.06,0.86,0.98,-0.03,0.41,-1,1,-1,0.98,8790,15,84,39,31,1379,0.0,657,467,60,122.0,0,1,295,186,68,0,0,58,250,250,0,414.87,45.747807,4.906547,0.0,195.1,0,0.0,-1,0.0,0.0,0,0.0,0.6591
39564,1563730091978,7,2.29,0.8,0.54,1.05,0.87,1.01,-0.07,0.45,-1,0,-2,1.02,8741,14,84,39,31,1293,0.0,652,472,60,122.0,0,1,295,186,61,0,0,4636,250,250,0,1115.64,,,,,,,,,,,,
39584,1563730091998,6,2.29,0.8,0.54,1.06,0.86,1.03,-0.11,0.47,-1,0,-1,1.03,8656,14,84,39,30,1214,0.0,656,466,60,122.0,0,1,291,186,61,0,0,823,250,250,0,882.05,,,,,,,,,,,,
39604,1563730092018,7,2.28,0.8,0.54,1.06,0.86,0.96,-0.09,0.48,-1,-0,-2,0.96,8577,14,84,39,30,1142,0.0,658,470,60,123.0,0,1,291,186,61,0,0,264,250,250,0,648.46,,,,,,,,,,,,
39624,1563730092038,9,2.28,0.8,0.54,1.06,0.87,1.0,-0.09,0.49,-1,-2,-1,1.0,8465,14,84,39,30,1052,0.0,655,468,60,121.0,0,1,290,183,61,0,0,362,250,250,0,1115.64,,,,,,,,,,,,
39644,1563730092058,7,2.27,0.8,0.54,1.06,0.86,1.0,-0.1,0.56,-1,-3,-1,1.0,8378,13,84,39,30,955,0.0,650,470,60,122.0,0,1,288,179,61,0,0,3005,250,250,0,882.05,45.747807,4.906547,0.0,195.1,0,0.0,-1,0.0,0.0,0,0.0,0.6607
39664,1563730092004,9,2.28,0.8,0.54,1.05,0.86,1.04,-0.1,0.57,-1,-3,-2,1.04,8238,13,84,39,30,893,0.0,643,469,60,123.0,0,1,287,174,54,0,0,743,250,250,0,414.87,,,,,,,,,,,,
39684,1563730092094,7,2.28,0.8,0.54,1.06,0.86,0.94,-0.06,0.55,-0,-2,-1,0.94,8092,13,84,39,30,868,0.0,639,469,60,123.0,0,1,285,167,54,0,0,2691,250,250,0,882.05,,,,,,,,,,,,
39704,1563730092114,7,2.28,0.81,0.54,1.06,0.87,0.94,-0.1,0.63,-0,-2,-1,0.95,7975,13,84,39,30,844,0.0,645,470,60,122.0,0,1,284,164,54,0,0,654,250,250,0,414.87,,,,,,,,,,,,
39724,1563730092134,7,2.29,0.8,0.54,1.06,0.86,1.01,-0.11,0.65,0,-2,-1,1.02,7888,13,84,39,30,823,0.0,635,468,60,123.0,0,1,283,164,54,0,0,871,250,250,0,414.87,,,,,,,,,,,,
39744,1563730092154,7,2.29,0.8,0.55,1.05,0.87,1.02,-0.1,0.66,-0,-4,-2,1.02,7751,13,84,39,30,813,0.0,638,470,60,123.0,0,1,283,164,54,0,0,11933,250,250,0,414.87,45.747807,4.906547,0.0,195.1,0,0.0,-1,0.0,0.0,0,0.0,0.6624
39764,1563730092174,9,2.28,0.8,0.55,1.06,0.86,0.99,-0.02,0.63,-0,-4,-1,0.99,7687,13,84,39,31,817,0.0,629,472,60,123.0,0,1,286,165,48,0,0,15911,250,250,0,882.05,,,,,,,,,,,,
39784,1563730092198,7,2.29,0.8,0.55,1.06,0.86,0.91,0.03,0.6,-0,-3,-1,0.91,7545,13,84,39,31,823,0.0,627,469,60,122.0,0,1,286,165,48,0,0,646,250,250,0,882.05,,,,,,,,,,,,
39804,1563730092218,8,2.29,0.8,0.54,1.06,0.87,0.79,0.11,0.48,0,-1,-1,0.79,7518,13,84,39,32,832,0.0,627,471,60,122.0,0,1,290,167,48,0,0,1008,250,250,0,882.05,,,,,,,,,,,,
39824,1563730092238,9,2.28,0.81,0.54,1.06,0.86,0.72,0.13,0.42,1,-1,-0,0.73,7434,13,84,39,32,839,0.0,623,469,60,122.0,0,1,290,167,48,0,0,477,250,250,0,882.05,,,,,,,,,,,,
39844,1563730092258,8,2.28,0.8,0.54,1.06,0.86,0.73,0.2,0.4,1,-1,-0,0.76,7411,13,84,39,33,845,0.0,622,472,60,122.0,0,1,292,172,48,0,0,438,250,250,0,648.46,45.747807,4.906547,0.0,195.1,0,0.0,-1,0.0,0.0,0,0.0,0.6641
39864,1563730092278,7,2.28,0.8,0.54,1.06,0.86,0.74,0.28,0.39,1,-1,-0,0.79,7301,13,84,39,33,850,0.0,615,466,60,123.0,0,1,292,172,47,0,0,7410,250,250,0,648.46,,,,,,,,,,,,
39884,1563730092298,6,2.28,0.8,0.54,1.06,0.86,0.85,0.27,0.41,1,-1,-1,0.89,7312,13,84,39,34,855,0.0,625,468,60,123.0,0,1,295,177,47,0,0,876,250,250,0,648.46,,,,,,,,,,,,
39904,1563730092318,6,2.27,0.81,0.54,1.06,0.87,0.93,0.19,0.48,0,-3,-1,0.95,7225,13,84,39,34,859,0.0,613,468,60,123.0,0,1,295,177,47,0,0,198,250,250,0,414.87,,,,,,,,,,,,
39924,1563730092338,8,2.28,0.8,0.54,1.06,0.86,0.9,0.12,0.51,0,-3,-0,0.91,7205,13,84,39,35,859,0.0,607,473,60,121.0,0,1,298,183,47,0,0,616,250,250,0,414.87,,,,,,,,,,,,
39944,1563730092358,9,2.28,0.81,0.54,1.06,0.87,0.84,0.15,0.47,0,-2,-0,0.85,7189,13,84,39,35,860,0.0,605,471,60,123.0,0,1,298,183,47,0,0,616,250,250,0,882.05,45.747807,4.906547,0.0,195.1,0,0.0,-1,0.0,0.0,0,0.0,0.6657
39964,1563730092378,7,2.28,0.81,0.54,1.06,0.86,0.8,0.21,0.4,1,-1,-0,0.83,7104,13,84,39,35,859,0.0,604,468,60,123.0,0,1,298,183,49,0,0,11933,250,250,0,648.46,,,,,,,,,,,,
39984,1563730092398,6,2.28,0.8,0.54,1.06,0.87,0.87,0.19,0.48,1,-2,-0,0.89,7110,13,84,39,36,858,0.0,599,467,60,123.0,0,1,301,188,49,0,0,11933,250,250,0,414.87,,,,,,,,,,,,
40004,1563730092418,9,2.28,0.8,0.54,1.05,0.86,0.87,0.13,0.48,0,-2,-0,0.87,7051,13,84,39,36,857,0.0,599,471,60,122.0,0,1,301,188,49,0,0,11933,250,250,0,414.87,,,,,,,,,,,,
40024,1563730092438,8,2.27,0.8,0.55,1.06,0.86,0.82,0.15,0.38,1,-2,0,0.83,7017,13,84,39,36,856,0.0,586,466,60,123.0,0,1,301,188,49,0,0,33,250,250,0,882.05,,,,,,,,,,,,
40044,1563730092458,7,2.28,0.8,0.54,1.06,0.87,0.81,0.15,0.41,1,-1,-0,0.82,7022,13,84,39,37,855,0.0,598,469,60,123.0,0,1,304,194,49,0,0,5235,250,250,0,648.46,45.747807,4.906547,0.0,195.1,0,0.0,-1,0.0,0.0,0,0.0,0.6674
40064,1563730092478,9,2.27,0.81,0.54,1.06,0.87,0.85,0.09,0.49,0,-2,-0,0.86,6967,13,84,39,37,854,0.0,595,471,60,121.0,0,1,304,194,51,0,0,4398,250,250,0,882.05,,,,,,,,,,,,
40084,1563730092496,6,2.28,0.8,0.54,1.06,0.87,0.83,0.09,0.39,0,-2,-0,0.84,6947,13,84,39,37,854,0.0,586,470,60,122.0,0,1,304,194,51,0,0,318,250,250,0,882.05,,,,,,,,,,,,
40104,1563730092516,6,2.28,0.8,0.54,1.05,0.87,0.82,0.08,0.48,1,-2,-1,0.83,6939,13,84,39,37,854,0.0,593,472,60,121.0,0,1,304,200,51,0,0,394,250,250,0,414.87,,,,,,,,,,,,
40124,1563730092536,9,2.29,0.8,0.54,1.06,0.87,0.86,0.03,0.45,0,-1,-1,0.86,6929,12,84,39,38,855,0.0,592,470,60,121.0,0,1,307,200,51,0,0,319,250,250,0,882.05,,,,,,,,,,,,
40144,1563730092556,6,2.29,0.81,0.54,1.06,0.87,0.84,0.03,0.43,0,-2,-0,0.84,6895,13,84,39,38,857,0.0,588,466,60,123.0,0,1,307,200,51,0,0,3713,250,250,0,414.87,45.747807,4.906547,0.0,195.1,0,0.0,-1,0.0,0.0,0,0.0,0.6691
40164,1563730092576,9,2.28,0.81,0.55,1.06,0.86,0.84,0.03,0.57,0,-2,-0,0.84,6906,13,84,39,38,859,0.0,587,472,60,122.0,0,1,307,200,52,0,0,1525,250,250,0,414.87,,,,,,,,,,,,
40184,1563730092594,8,2.28,0.8,0.55,1.05,0.87,0.88,0.05,0.52,0,-2,-0,0.88,6908,13,84,39,39,860,0.0,585,471,60,121.0,0,1,310,200,52,0,0,99,250,250,0,882.05,,,,,,,,,,,,
40204,1563730092614,5,2.29,0.8,0.55,1.06,0.87,0.79,0.06,0.61,1,-0,0,0.79,6858,13,84,39,39,862,0.0,589,470,60,122.0,0,1,310,206,52,0,0,827,250,250,0,414.87,,,,,,,,,,,,
40224,1563730092634,7,2.29,0.8,0.55,1.05,0.87,0.86,0.01,0.6,0,-2,0,0.86,6875,13,84,39,39,865,0.0,580,471,60,122.0,0,1,310,206,52,0,0,256,250,250,0,882.05,,,,,,,,,,,,
40244,1563730092654,7,2.29,0.8,0.55,1.06,0.87,0.81,0.03,0.53,1,0,-0,0.81,6865,13,84,39,39,866,0.0,583,466,60,123.0,0,1,310,206,52,0,0,200,250,250,0,648.46,45.747807,4.906547,0.0,195.1,0,0.0,-1,0.0,0.0,0,0.0,0.6707
40264,1563730092674,10,2.28,0.81,0.54,1.06,0.87,0.81,-0.01,0.55,0,-0,0,0.81,6845,13,84,39,39,867,0.0,586,471,60,121.0,0,1,310,206,53,0,0,310,250,250,0,414.87,,,,,,,,,,,,
40284,1563730092694,7,2.28,0.81,0.54,1.07,0.86,0.82,-0.0,0.5,0,-2,0,0.82,6813,13,84,39,39,868,0.0,571,471,60,122.0,0,1,310,206,53,0,0,310,250,250,0,882.05,,,,,,,,,,,,
40304,1563730092714,10,2.28,0.81,0.54,1.07,0.86,0.8,-0.0,0.62,0,-2,-0,0.8,6858,13,84,39,39,868,0.0,573,473,60,120.0,0,1,310,206,53,0,0,283,250,250,0,414.87,,,,,,,,,,,,
40324,1563730092734,8,2.28,0.81,0.55,1.06,0.87,0.87,0.02,0.57,0,-2,0,0.87,6858,13,84,39,40,869,0.0,571,471,60,123.0,0,1,317,206,53,0,0,667,250,250,0,882.05,,,,,,,,,,,,
40344,1563730092754,7,2.29,0.8,0.55,1.07,0.87,0.79,0.01,0.66,1,-0,0,0.79,6835,13,84,39,40,869,0.0,586,467,60,121.0,0,1,317,207,53,0,0,667,250,250,0,414.87,45.747807,4.906547,0.0,195.1,0,0.0,-1,0.0,0.0,0,0.0,0.6724
40364,1563730092774,9,2.28,0.8,0.55,1.06,0.86,0.88,-0.02,0.63,0,-1,0,0.88,6860,13,84,39,40,871,0.0,576,476,60,121.0,0,1,317,207,53,0,0,667,250,250,0,1115.64,,,,,,,,,,,,
40384,1563730092794,7,2.28,0.8,0.54,1.07,0.86,0.83,0.0,0.6,1,1,0,0.83,6875,13,84,39,40,872,0.0,578,468,60,123.0,0,1,317,206,53,0,0,298,250,250,0,648.46,,,,,,,,,,,,
40404,1563730092814,8,2.29,0.8,0.55,1.06,0.87,0.86,-0.01,0.6,0,1,0,0.86,6828,13,84,39,40,874,0.0,585,474,60,122.0,0,1,317,207,53,0,0,305,250,250,0,414.87,,,,,,,,,,,,
40424,1563730092834,7,2.28,0.8,0.55,1.06,0.86,0.86,-0.0,0.56,0,0,0,0.86,6848,13,84,39,40,876,0.0,588,466,60,123.0,0,1,317,207,53,0,0,590,250,250,0,648.46,,,,,,,,,,,,
40444,1563730092854,8,2.29,0.8,0.55,1.07,0.86,0.85,-0.01,0.67,0,-0,0,0.85,6853,13,84,39,40,876,0.0,582,473,60,120.0,0,1,317,207,53,0,0,85,250,250,0,882.05,45.747807,4.906547,0.0,195.1,0,0.0,-1,0.0,0.0,0,0.0,0.6741
40464,1563730092874,6,2.29,0.81,0.54,1.07,0.86,0.88,0.02,0.58,0,-0,1,0.88,6858,13,84,39,40,878,0.0,580,468,60,123.0,0,1,317,207,53,0,0,592,250,250,0,882.05,,,,,,,,,,,,
40484,1563730092897,7,2.27,0.81,0.55,1.07,0.86,0.81,-0.02,0.69,1,1,1,0.81,6843,13,84,39,40,878,0.0,580,464,60,123.0,0,1,317,207,53,0,0,116,250,250,0,414.87,,,,,,,,,,,,
40504,1563730092917,8,2.29,0.81,0.54,1.06,0.86,0.87,-0.04,0.61,0,-0,1,0.87,6828,13,84,39,40,878,0.0,576,472,60,121.0,0,1,317,207,53,0,0,116,250,250,0,882.05,,,,,,,,,,,,
40524,1563730092937,5,2.29,0.8,0.54,1.06,0.86,0.81,-0.03,0.62,1,1,0,0.81,6883,13,84,39,40,877,0.0,574,473,60,123.0,0,1,317,207,53,0,0,73,250,250,0,648.46,,,,,,,,,,,,
40544,1563730092957,9,2.28,0.81,0.55,1.07,0.86,0.84,-0.05,0.6,0,1,0,0.84,6853,13,84,39,40,876,0.0,595,474,60,121.0,0,1,317,207,53,0,0,73,250,250,0,414.87,45.747807,4.906547,0.0,195.1,0,0.0,-1,0.0,0.0,0,0.0,0.6757
40564,1563730092977,7,2.28,0.81,0.54,1.07,0.87,0.84,-0.05,0.55,0,0,0,0.84,6870,13,84,39,40,876,0.0,578,464,60,123.0,0,1,317,207,53,0,0,73,250,250,0,648.46,,,,,,,,,,,,
40584,1563730092991,10,2.27,0.81,0.54,1.07,0.87,0.82,-0.05,0.67,0,0,0,0.82,6883,13,84,39,40,875,0.0,578,475,60,120.0,0,1,317,207,53,0,0,73,250,250,0,414.87,,,,,,,,,,,,
40604,1563730093011,8,2.28,0.81,0.55,1.06,0.86,0.87,-0.01,0.59,0,-0,1,0.87,6893,13,84,39,40,876,0.0,582,473,60,122.0,0,1,317,207,53,0,0,37,250,250,0,882.05,,,,,,,,,,,,
40624,1563730093031,5,2.28,0.8,0.54,1.06,0.86,0.8,0.0,0.66,1,1,1,0.8,6880,13,84,39,40,877,0.0,588,466,60,121.0,0,1,317,207,53,0,0,7213,250,250,0,414.87,,,,,,,,,,,,
40644,1563730093051,9,2.28,0.81,0.55,1.06,0.87,0.89,-0.04,0.68,0,-1,1,0.89,6900,13,84,39,40,879,0.0,575,468,60,120.0,0,1,317,207,53,0,0,7213,250,250,0,882.05,45.747807,4.906547,0.0,195.1,0,0.0,-1,0.0,0.0,0,0.0,0.6774
40664,1563730093071,7,2.28,0.81,0.55,1.06,0.87,0.88,-0.03,0.51,1,1,0,0.88,6900,13,83,39,40,881,0.0,581,468,60,122.0,0,1,317,207,54,0,0,7213,250,250,0,648.46,,,,,,,,,,,,
40684,1563730093097,9,2.28,0.81,0.54,1.06,0.87,0.88,-0.04,0.56,0,1,1,0.88,6850,13,83,39,40,882,0.0,586,473,60,122.0,0,1,317,207,54,0,0,198,250,250,0,414.87,,,,,,,,,,,,
40704,1563730093117,7,2.27,0.81,0.54,1.07,0.87,0.88,-0.03,0.47,0,-1,1,0.88,6860,13,83,39,40,884,0.0,573,466,60,122.0,0,1,317,207,54,0,0,490,250,250,0,648.46,,,,,,,,,,,,
40724,1563730093137,7,2.26,0.8,0.54,1.06,0.86,0.83,-0.05,0.44,0,1,0,0.83,6865,13,83,39,40,884,0.0,585,473,60,121.0,0,1,317,207,54,0,0,490,250,250,0,414.87,,,,,,,,,,,,
40744,1563730093157,7,2.28,0.81,0.54,1.06,0.87,0.89,-0.0,0.38,-0,0,1,0.89,6865,13,83,39,40,885,0.0,580,469,60,121.0,0,1,317,207,54,0,0,193,250,250,0,882.05,45.747807,4.906547,0.0,195.1,0,0.0,-1,0.0,0.0,0,0.0,0.6791
40764,1563730093177,6,2.29,0.8,0.55,1.06,0.87,0.85,0.03,0.27,1,2,1,0.85,6865,13,83,39,40,884,0.0,578,468,60,123.0,0,1,317,207,53,0,0,3791,250,250,0,648.46,,,,,,,,,,,,
40784,1563730093197,9,2.28,0.8,0.54,1.06,0.87,0.85,0.02,0.4,0,-1,1,0.85,6880,13,83,39,40,883,0.0,581,468,60,120.0,0,1,317,207,53,0,0,170,250,250,0,414.87,,,,,,,,,,,,
40804,1563730093217,6,2.29,0.81,0.54,1.07,0.86,0.87,0.01,0.28,0,1,0,0.87,6893,13,83,39,40,883,0.0,581,473,60,122.0,0,1,317,207,53,0,0,1356,250,250,0,648.46,,,,,,,,,,,,
40824,1563730093237,10,2.28,0.8,0.55,1.07,0.87,0.85,0.02,0.36,0,-0,0,0.85,6863,13,83,39,40,883,0.0,579,465,60,122.0,0,1,317,207,53,0,0,558,250,250,0,414.87,,,,,,,,,,,,
40844,1563730093257,7,2.29,0.8,0.55,1.07,0.86,0.89,-0.01,0.41,0,-2,0,0.89,6865,13,83,39,40,883,0.0,575,466,60,122.0,0,1,317,207,53,0,0,123,250,250,0,648.46,45.747807,4.906547,0.0,195.1,0,0.0,-1,0.0,0.0,0,0.0,0.6807
40864,1563730093277,5,2.29,0.8,0.55,1.07,0.86,0.87,-0.01,0.38,0,0,-0,0.87,6875,13,83,39,40,884,0.0,582,471,60,122.0,0,1,317,207,54,0,0,123,250,250,0,414.87,,,,,,,,,,,,
40884,1563730093297,9,2.28,0.81,0.55,1.07,0.86,0.87,-0.06,0.51,-0,-1,0,0.87,6875,13,83,39,40,886,0.0,582,470,60,120.0,0,1,317,207,54,0,0,57,250,250,0,1115.64,,,,,,,,,,,,
40904,1563730093317,6,2.28,0.8,0.55,1.06,0.87,0.89,-0.05,0.4,0,1,0,0.89,6875,13,83,39,40,887,0.0,578,465,60,122.0,0,1,317,207,54,0,0,57,250,250,0,648.46,,,,,,,,,,,,
40924,1563730093337,8,2.29,0.81,0.55,1.07,0.86,0.83,-0.04,0.49,0,-1,0,0.83,6893,13,83,39,40,889,0.0,591,470,60,121.0,0,1,317,207,54,0,0,76,250,250,0,414.87,,,,,,,,,,,,
40944,1563730093357,7,2.29,0.8,0.55,1.06,0.87,0.87,-0.05,0.42,0,0,0,0.88,6893,13,83,39,40,890,0.0,577,472,60,122.0,0,1,317,207,54,0,0,74,250,250,0,882.05,45.747807,4.906547,0.0,195.1,0,0.0,-1,0.0,0.0,0,0.0,0.6824
40964,1563730093377,7,2.28,0.81,0.55,1.07,0.86,0.82,-0.04,0.41,0,-0,0,0.83,6883,13,83,39,40,890,0.0,580,471,60,121.0,0,1,317,207,53,0,0,74,250,250,0,414.87,,,,,,,,,,,,
40984,1563730093397,9,2.28,0.81,0.54,1.07,0.87,0.85,-0.05,0.52,-0,-2,0,0.85,6911,13,83,39,40,890,0.0,577,468,60,122.0,0,1,317,207,53,0,0,65,250,250,0,882.05,,,,,,,,,,,,
41004,1563730093417,6,2.28,0.81,0.54,1.07,0.87,0.87,-0.03,0.45,0,0,-0,0.87,6898,13,83,39,40,889,0.0,580,470,60,123.0,0,1,317,207,53,0,0,614,250,250,0,648.46,,,,,,,,,,,,
41024,1563730093437,8,2.29,0.8,0.55,1.06,0.87,0.79,-0.07,0.58,-0,-1,-0,0.79,6890,13,83,39,40,888,0.0,596,468,60,122.0,0,1,317,207,53,0,0,74,250,250,0,414.87,,,,,,,,,,,,
41044,1563730093457,7,2.28,0.81,0.55,1.06,0.87,0.91,-0.11,0.57,0,0,-0,0.92,6885,13,83,39,40,887,0.0,590,471,60,122.0,0,1,317,207,53,0,0,200,250,250,0,882.05,45.747807,4.906547,0.0,195.1,0,0.0,-1,0.0,0.0,0,0.0,0.6841
41064,1563730093477,5,2.29,0.8,0.54,1.07,0.86,0.79,-0.08,0.52,0,-0,-1,0.8,6885,13,83,39,40,886,0.0,585,468,60,122.0,0,1,317,207,54,0,0,90,250,250,0,414.87,,,,,,,,,,,,
41084,1563730093495,8,2.28,0.8,0.54,1.07,0.87,0.87,-0.09,0.57,-0,-0,-0,0.87,6878,13,83,39,40,886,0.0,586,472,60,121.0,0,1,317,207,54,0,0,90,250,250,0,882.05,,,,,,,,,,,,
41104,1563730093515,5,2.28,0.81,0.55,1.06,0.87,0.83,-0.08,0.48,0,0,-1,0.84,6875,13,83,39,40,884,0.0,572,467,60,123.0,0,1,317,207,54,0,0,10677,250,250,0,648.46,,,,,,,,,,,,
41124,1563730093535,8,2.29,0.81,0.54,1.07,0.86,0.81,-0.06,0.58,0,-1,-0,0.82,6895,13,83,39,40,883,0.0,579,473,60,121.0,0,1,317,207,54,0,0,417,250,250,0,414.87,,,,,,,,,,,,
41144,1563730093555,8,2.28,0.8,0.53,1.06,0.86,0.91,-0.02,0.52,0,0,-0,0.91,6903,13,83,39,40,881,0.0,576,470,60,122.0,0,1,317,207,54,0,0,145,250,250,0,648.46,45.747807,4.906547,0.0,195.1,0,0.0,-1,0.0,0.0,0,0.0,0.6857
41164,1563730093575,6,2.28,0.81,0.54,1.06,0.86,0.78,0.03,0.51,0,1,-0,0.78,6895,13,83,39,40,880,0.0,574,468,60,122.0,0,1,317,207,54,0,0,107,250,250,0,414.87,,,,,,,,,,,,
41184,1563730093595,8,2.28,0.81,0.54,1.07,0.86,0.9,0.0,0.61,-0,-1,-0,0.9,6893,13,83,39,40,878,0.0,576,472,60,121.0,0,1,317,207,54,0,0,107,250,250,0,882.05,,,,,,,,,,,,
41204,1563730093615,6,2.28,0.8,0.54,1.07,0.87,0.8,0.04,0.46,1,1,-0,0.8,6908,13,83,39,40,876,0.0,591,467,60,123.0,0,1,317,207,54,0,0,72,250,250,0,648.46,,,,,,,,,,,,
41224,1563730093635,7,2.29,0.8,0.55,1.06,0.87,0.82,0.02,0.55,-0,0,-0,0.82,6875,13,83,39,40,875,0.0,600,469,60,121.0,0,1,317,207,54,0,0,162,250,250,0,414.87,,,,,,,,,,,,
41244,1563730093655,7,2.28,0.8,0.54,1.07,0.86,0.85,-0.0,0.47,0,-0,-0,0.85,6883,13,83,39,40,874,0.0,578,466,60,122.0,0,1,317,207,54,0,0,381,250,250,0,648.46,45.747807,4.906547,0.0,195.1,0,0.0,-1,0.0,0.0,0,0.0,0.6874
41264,1563730093675,9,2.29,0.8,0.54,1.07,0.87,0.74,-0.02,0.51,0,0,-0,0.74,6893,13,83,39,40,873,0.0,582,471,60,122.0,0,1,317,207,54,0,0,826,250,250,0,414.87,,,,,,,,,,,,
41284,1563730093695,8,2.28,0.81,0.54,1.07,0.86,0.86,-0.02,0.57,-0,-1,0,0.86,6888,13,83,39,40,873,0.0,583,472,60,121.0,0,1,317,207,54,0,0,3395,250,250,0,882.05,,,,,,,,,,,,
41304,1563730093715,7,2.28,0.8,0.55,1.07,0.86,0.74,0.03,0.45,1,1,0,0.74,6883,13,83,39,39,872,0.0,582,467,60,122.0,0,1,310,207,54,0,0,215,250,250,0,648.46,,,,,,,,,,,,
41324,1563730093735,9,2.27,0.81,0.54,1.07,0.87,0.82,0.02,0.58,-0,-2,0,0.82,6898,13,83,39,40,872,0.0,577,473,60,122.0,0,1,317,207,54,0,0,215,250,250,0,414.87,,,,,,,,,,,,
41344,1563730093755,6,2.28,0.8,0.54,1.06,0.86,0.83,0.03,0.43,1,0,0,0.83,6911,13,83,39,40,873,0.0,582,470,60,123.0,0,1,317,207,54,0,0,2078,250,250,0,648.46,45.747807,4.906547,0.0,195.1,0,0.0,-1,0.0,0.0,0,0.0,0.6891
41364,1563730093775,9,2.28,0.81,0.54,1.06,0.86,0.78,0.02,0.48,0,-1,0,0.79,6895,13,83,39,40,874,0.0,578,466,60,122.0,0,1,317,207,54,0,0,229,250,250,0,414.87,,,,,,,,,,,,
41384,1563730093795,6,2.29,0.8,0.54,1.07,0.86,0.87,0.01,0.53,0,-2,0,0.87,6916,13,83,39,40,875,0.0,577,473,60,121.0,0,1,317,207,54,0,0,229,250,250,0,882.05,,,,,,,,,,,,
41404,1563730093815,6,2.29,0.81,0.54,1.07,0.87,0.8,-0.01,0.47,0,1,-0,0.8,6911,13,83,39,39,876,0.0,579,464,60,122.0,0,1,310,206,54,0,0,399,250,250,0,648.46,,,,,,,,,,,,
41424,1563730093835,7,2.29,0.8,0.54,1.06,0.87,0.82,-0.07,0.61,-0,-2,0,0.83,6865,13,83,39,40,876,0.0,580,472,60,122.0,0,1,317,207,54,0,0,138,250,250,0,414.87,,,,,,,,,,,,
41444,1563730093855,7,2.28,0.81,0.54,1.06,0.87,0.84,-0.06,0.48,0,1,0,0.84,6883,13,83,39,40,876,0.0,576,465,60,123.0,0,1,317,207,54,0,0,138,250,250,0,648.46,45.747807,4.906547,0.0,195.1,0,0.0,-1,0.0,0.0,0,0.0,0.6907
41464,1563730093875,10,2.29,0.81,0.54,1.06,0.87,0.78,-0.06,0.54,-0,-1,0,0.79,6890,13,83,39,40,875,0.0,578,471,60,120.0,0,1,317,207,54,0,0,556,250,250,0,648.46,,,,,,,,,,,,
41484,1563730093898,8,2.29,0.8,0.55,1.07,0.87,0.89,-0.06,0.49,0,0,0,0.89,6908,13,83,39,40,875,0.0,577,470,60,123.0,0,1,317,207,54,0,0,113,250,250,0,882.05,,,,,,,,,,,,
41504,1563730093918,6,2.29,0.81,0.54,1.07,0.86,0.82,-0.07,0.45,0,0,0,0.82,6885,13,83,39,40,873,0.0,586,466,60,122.0,0,1,317,207,54,0,0,643,250,250,0,414.87,,,,,,,,,,,,
41524,1563730093938,8,2.29,0.81,0.54,1.07,0.86,0.86,-0.07,0.59,-0,-2,0,0.86,6921,13,83,39,40,871,0.0,572,472,60,122.0,0,1,317,207,54,0,0,170,250,250,0,882.05,,,,,,,,,,,,
41544,1563730093958,7,2.28,0.81,0.54,1.07,0.87,0.9,-0.03,0.52,0,0,-0,0.9,6921,13,83,39,40,868,0.0,576,472,60,123.0,0,1,317,207,54,0,0,170,250,250,0,648.46,45.747807,4.906547,0.0,195.1,0,0.0,-1,0.0,0.0,0,0.0,0.6924
41564,1563730093978,9,2.29,0.81,0.54,1.07,0.87,0.78,-0.02,0.59,0,-1,-0,0.78,6903,13,83,39,40,867,0.0,581,467,60,122.0,0,1,317,207,54,0,0,2673,250,250,0,414.87,,,,,,,,,,,,
41584,1563730093998,8,2.28,0.81,0.54,1.07,0.87,0.91,-0.05,0.66,-0,-1,-0,0.91,6878,13,83,39,40,866,0.0,576,470,60,122.0,0,1,317,207,54,0,0,12111,250,250,0,882.05,,,,,,,,,,,,
41604,1563730094010,6,2.28,0.81,0.54,1.06,0.87,0.78,-0.02,0.54,1,1,-1,0.78,6929,13,83,39,39,864,0.0,579,468,60,121.0,0,1,310,206,54,0,0,114,250,250,0,414.87,,,,,,,,,,,,
41624,1563730094030,8,2.29,0.81,0.55,1.06,0.87,0.82,-0.03,0.63,-0,-0,-1,0.82,6888,13,83,39,40,864,0.0,582,468,60,122.0,0,1,317,207,54,0,0,188,250,250,0,882.05,,,,,,,,,,,,
41644,1563730094050,7,2.29,0.8,0.54,1.07,0.86,0.82,-0.02,0.52,0,-0,-0,0.82,6890,13,83,39,40,864,0.0,586,465,60,123.0,0,1,317,207,54,0,0,85,250,250,0,414.87,45.747807,4.906547,0.0,195.1,0,0.0,-1,0.0,0.0,0,0.0,0.6941
41664,1563730094070,9,2.29,0.81,0.54,1.07,0.86,0.74,-0.03,0.57,0,-1,-0,0.74,6888,13,83,39,40,864,0.0,581,468,60,123.0,0,1,317,207,54,0,0,85,250,250,0,414.87,,,,,,,,,,,,
41684,1563730094098,8,2.29,0.81,0.54,1.07,0.87,0.87,-0.01,0.59,0,-1,0,0.87,6908,13,83,39,40,865,0.0,581,473,60,122.0,0,1,317,207,54,0,0,78,250,250,0,882.05,,,,,,,,,,,,
41704,1563730094118,5,2.29,0.81,0.54,1.06,0.87,0.74,0.06,0.48,1,1,0,0.74,6873,13,83,39,40,866,0.0,573,468,60,123.0,0,1,317,207,54,0,0,78,250,250,0,648.46,,,,,,,,,,,,
41724,1563730094138,8,2.29,0.8,0.54,1.07,0.87,0.83,0.04,0.61,-0,-2,0,0.84,6900,13,83,39,40,867,0.0,571,469,60,122.0,0,1,317,207,54,0,0,78,250,250,0,882.05,,,,,,,,,,,,
41744,1563730094158,8,2.29,0.81,0.54,1.07,0.87,0.81,0.06,0.41,1,0,0,0.81,6898,13,83,39,40,867,0.0,572,472,60,123.0,0,1,317,207,54,0,0,36,250,250,0,414.87,45.747807,4.906547,0.0,195.1,0,0.0,-1,0.0,0.0,0,0.0,0.6957
41764,1563730094178,8,2.28,0.8,0.54,1.06,0.87,0.77,0.05,0.5,0,-1,0,0.77,6853,13,83,39,40,867,0.0,582,472,60,122.0,0,1,317,207,54,0,0,36,250,250,0,882.05,,,,,,,,,,,,
41784,1563730094198,7,2.29,0.81,0.54,1.07,0.87,0.84,0.02,0.46,0,-2,-0,0.84,6860,13,83,39,40,867,0.0,570,471,60,122.0,0,1,317,207,54,0,0,36,250,250,0,882.05,,,,,,,,,,,,
41804,1563730094218,6,2.29,0.8,0.55,1.07,0.87,0.75,0.0,0.46,0,-1,-0,0.75,6873,13,83,39,40,865,0.0,573,468,60,122.0,0,1,317,207,54,0,0,36,250,250,0,414.87,,,,,,,,,,,,
41824,1563730094238,9,2.28,0.81,0.55,1.07,0.87,0.84,-0.04,0.55,-0,-3,0,0.84,6878,13,83,39,40,865,0.0,582,470,60,121.0,0,1,317,207,54,0,0,36,250,250,0,882.05,,,,,,,,,,,,
41844,1563730094258,6,2.29,0.81,0.55,1.07,0.86,0.79,0.0,0.43,1,-0,0,0.79,6878,13,83,39,40,864,0.0,571,467,60,123.0,0,1,317,207,54,0,0,36,250,250,0,648.46,45.747807,4.906547,0.0,195.1,0,0.0,-1,0.0,0.0,0,0.0,0.6974
41864,1563730094278,9,2.28,0.81,0.54,1.06,0.87,0.79,-0.01,0.54,-0,-3,0,0.79,6908,13,83,39,40,863,0.0,581,472,60,121.0,0,1,317,207,54,0,0,36,250,250,0,1115.64,,,,,,,,,,,,
41884,1563730094298,7,2.28,0.81,0.54,1.06,0.87,0.85,-0.01,0.42,0,-0,-0,0.85,6890,13,83,39,40,864,0.0,580,471,60,123.0,0,1,317,207,54,0,0,21,250,250,0,648.46,,,,,,,,,,,,
41904,1563730094318,6,2.28,0.8,0.54,1.07,0.87,0.79,-0.01,0.45,0,-1,-0,0.79,6888,13,83,39,40,863,0.0,577,467,60,123.0,0,1,317,207,54,0,0,21,250,250,0,414.87,,,,,,,,,,,,
41924,1563730094338,8,2.28,0.8,0.53,1.07,0.87,0.87,-0.03,0.54,-0,-3,-0,0.87,6893,13,83,39,40,864,0.0,583,475,60,121.0,0,1,317,207,54,0,0,58,250,250,0,882.05,,,,,,,,,,,,
41944,1563730094358,5,2.28,0.8,0.55,1.07,0.87,0.82,-0.01,0.46,0,-0,-1,0.82,6898,13,83,39,40,864,0.0,578,471,60,123.0,0,1,317,207,54,0,0,58,250,250,0,648.46,45.747807,4.906547,0.0,195.1,0,0.0,-1,0.0,0.0,0,0.0,0.6991
41964,1563730094378,9,2.28,0.81,0.54,1.07,0.87,0.82,-0.07,0.58,-0,-2,-0,0.82,6888,13,83,39,40,865,0.0,581,467,60,120.0,0,1,317,207,54,0,0,57,250,250,0,414.87,,,,,,,,,,,,
41984,1563730094398,6,2.29,0.81,0.54,1.07,0.87,0.87,-0.08,0.49,0,1,0,0.87,6870,13,83,39,40,866,0.0,572,469,60,122.0,0,1,317,207,54,0,0,138,250,250,0,882.05,,,,,,,,,,,,
42004,1563730094418,10,2.28,0.81,0.54,1.08,0.87,0.77,-0.06,0.51,0,-1,-0,0.77,6906,13,83,39,40,866,0.0,571,469,60,122.0,0,1,317,207,54,0,0,138,250,250,0,414.87,,,,,,,,,,,,
42024,1563730094438,8,2.28,0.81,0.54,1.08,0.87,0.87,-0.07,0.51,0,-1,-0,0.88,6888,13,83,39,40,867,0.0,577,472,60,122.0,0,1,317,207,54,0,0,138,250,250,0,882.05,,,,,,,,,,,,
42044,1563730094458,5,2.28,0.81,0.55,1.07,0.87,0.82,-0.06,0.47,0,-1,-1,0.82,6883,13,83,39,40,866,0.0,569,465,60,123.0,0,1,317,207,54,0,0,138,250,250,0,648.46,45.747807,4.906547,0.0,195.1,0,0.0,-1,0.0,0.0,0,0.0,0.7007
42064,1563730094478,8,2.29,0.81,0.54,1.07,0.87,0.83,-0.05,0.58,-0,-3,-0,0.83,6918,13,83,39,40,866,0.0,578,472,60,121.0,0,1,317,207,54,0,0,138,250,250,0,414.87,,,,,,,,,,,,
42084,1563730094496,8,2.29,0.81,0.55,1.07,0.87,0.9,-0.01,0.51,0,-1,-1,0.9,6918,13,83,39,40,866,0.0,586,468,60,122.0,0,1,317,207,54,0,0,138,250,250,0,882.05,,,,,,,,,,,,
42104,1563730094516,7,2.28,0.81,0.54,1.08,0.87,0.77,0.02,0.54,0,-1,-1,0.77,6898,13,83,39,40,866,0.0,582,469,60,122.0,0,1,317,207,54,0,0,138,250,250,0,181.28,,,,,,,,,,,,
42124,1563730094536,8,2.29,0.81,0.55,1.07,0.87,0.9,-0.01,0.63,-0,-2,-0,0.9,6921,13,83,39,40,866,0.0,581,470,60,121.0,0,1,317,207,54,0,0,18,250,250,0,882.05,,,,,,,,,,,,
42144,1563730094556,7,2.28,0.81,0.55,1.07,0.88,0.79,0.03,0.49,1,-0,-1,0.79,6908,13,83,39,40,867,0.0,576,467,60,123.0,0,1,317,206,54,0,0,85,250,250,0,648.46,45.747807,4.906547,0.0,195.1,0,0.0,-1,0.0,0.0,0,0.0,0.7024
42164,1563730094576,8,2.29,0.81,0.55,1.07,0.87,0.82,0.02,0.56,-0,-1,-0,0.82,6890,13,83,39,40,867,0.0,582,469,60,121.0,0,1,317,207,54,0,0,285,250,250,0,414.87,,,,,,,,,,,,
42184,1563730094594,6,2.29,0.81,0.54,1.08,0.87,0.85,0.01,0.48,0,-1,-0,0.85,6883,13,83,39,40,868,0.0,577,471,60,122.0,0,1,317,207,54,0,0,285,250,250,0,648.46,,,,,,,,,,,,
42204,1563730094614,9,2.29,0.81,0.55,1.07,0.88,0.73,0.0,0.5,0,-1,-0,0.73,6888,13,83,39,40,867,0.0,577,474,60,121.0,0,1,317,207,54,0,0,285,250,250,0,414.87,,,,,,,,,,,,
42224,1563730094634,7,2.3,0.81,0.54,1.07,0.88,0.85,-0.0,0.54,-0,-2,0,0.85,6921,13,83,39,40,868,0.0,578,470,60,122.0,0,1,317,207,54,0,0,37,250,250,0,882.05,,,,,,,,,,,,
42244,1563730094654,7,2.28,0.81,0.55,1.08,0.88,0.73,0.05,0.41,1,2,0,0.73,6880,13,83,39,39,867,0.0,578,466,60,122.0,0,1,310,207,54,0,0,37,250,250,0,648.46,45.747807,4.906547,0.0,195.1,0,0.0,-1,0.0,0.0,0,0.0,0.7041
42264,1563730094674,9,2.29,0.81,0.55,1.07,0.88,0.79,0.03,0.55,-0,-2,0,0.79,6908,13,83,39,40,866,0.0,580,472,60,120.0,0,1,317,207,54,0,0,8917,250,250,0,414.87,,,,,,,,,,,,
42284,1563730094694,8,2.29,0.81,0.55,1.07,0.87,0.81,0.04,0.4,1,1,0,0.81,6906,12,83,39,40,865,0.0,576,468,60,122.0,0,1,317,207,54,0,0,8917,250,250,0,882.05,,,,,,,,,,,,
42304,1563730094714,5,2.29,0.81,0.55,1.07,0.88,0.76,0.02,0.45,0,-1,0,0.76,6906,13,83,39,39,864,0.0,577,465,60,121.0,0,1,310,207,54,0,0,398,250,250,0,414.87,,,,,,,,,,,,
42324,1563730094734,8,2.29,0.81,0.54,1.07,0.88,0.86,0.0,0.52,0,-2,0,0.86,6918,13,83,39,40,864,0.0,574,468,60,122.0,0,1,317,207,54,0,0,249,250,250,0,882.05,,,,,,,,,,,,
42344,1563730094754,5,2.28,0.81,0.55,1.07,0.87,0.8,0.01,0.45,0,1,-1,0.8,6918,13,83,39,40,864,0.0,578,469,60,123.0,0,1,317,207,54,0,0,74,250,250,0,648.46,45.747807,4.906547,0.0,195.1,0,0.0,-1,0.0,0.0,0,0.0,0.7057
42364,1563730094774,8,2.25,0.8,0.55,1.06,0.87,0.81,-0.05,0.59,-0,-2,-1,0.81,6900,13,83,39,40,864,0.0,581,470,60,121.0,0,1,317,207,54,0,0,74,250,250,0,414.87,,,,,,,,,,,,
42384,1563730094794,7,2.28,0.81,0.54,1.07,0.87,0.89,-0.07,0.56,0,1,-0,0.9,6903,13,83,39,40,864,0.0,573,470,60,122.0,0,1,317,207,54,0,0,74,250,250,0,882.05,,,,,,,,,,,,
42404,1563730094814,7,2.28,0.81,0.55,1.08,0.87,0.76,-0.04,0.52,0,0,-1,0.77,6926,13,83,39,40,864,0.0,580,469,60,123.0,0,1,317,207,54,0,0,74,250,250,0,414.87,,,,,,,,,,,,
42424,1563730094834,7,2.29,0.81,0.55,1.07,0.87,0.87,-0.05,0.56,0,0,-0,0.88,6906,13,83,39,40,865,0.0,573,471,60,121.0,0,1,317,207,54,0,0,74,250,250,0,882.05,,,,,,,,,,,,
