"Interval"|"ms"|0|0|1,"Utc"|"ms"|0|0|1,"FB_p"|"bar"|0|300|50,"Volant"|"F"|0.0|300.0|50,"xFR"|"mm"|0.0|5.0|50,"xRR"|"mm"|0.0|5.0|50,"xFL"|"mm"|0.0|5.0|50,"xRL"|"mm"|0.0|5.0|50,"AccelX"|"G"|-3.0|3.0|50,"AccelY"|"G"|-3.0|3.0|50,"AccelZ"|"G"|-3.0|3.0|50,"Yaw"|"Deg/Sec"|-120|120|50,"Pitch"|"Deg/Sec"|-120|120|50,"Roll"|"Deg/Sec"|-120|120|50,"Gsum"|"G"|0.0|3.0|50,"RPM"|""|0|14000|50,"TPS"|"%"|0|100|50,"WaterTemp"|"?C"|0|300|50,"AirTemp"|"?C"|-1000|1000|50,"MAP"|"KPa"|0|255|50,"Lambda"|""|0|1024|50,"WheelSpeed"|"MPH"|0.0|150.0|50,"OilPress"|"PSI"|0|150|50,"FuelPress"|"PSI"|0|150|50,"OilTemp"|"F"|0|300|50,"Battery"|"Volts"|0.0|20.0|50,"FuelCon"|"L/h"|-1000|1000|50,"Gear"|""|0|10|50,"Advance"|"Deg"|-360|360|50,"Injection"|"ms"|-1000|1000|50,"FuelCon"|"L/100km"|-1000|1000|50,"LC_But_Pres"|""|-1000|1000|50,"LC_Active"|""|-1000|1000|50,"RD_Speed"|""|-1000|1000|50,"RUD_Speed"|""|-1000|1000|50,"LD_Speed"|""|-1000|1000|50,"LUD_Speed"|""|-1000|1000|50,"Ana1"|"bar"|-1000.0|1000.0|50,"Latitude"|"Degrees"|-180.0|180.0|10,"Longitude"|"Degrees"|-180.0|180.0|10,"Speed"|"kph"|0.0|150.0|10,"Altitude"|"m"|0.0|4000.0|10,"LapCount"|""|0|0|10,"LapTime"|"Min"|0.0|0.0|10,"Sector"|""|0|0|10,"SectorTime"|"Min"|0.0|0.0|10,"ElapsedTime"|"Min"|0.0|0.0|10,"CurrentLap"|""|0|0|10,"Distance"|"km"|0.0|0.0|10,"SessionTime"|"Min"|0.0|0.0|10
110964,1563730163379,12,2.3,0.74,0.4,1.1,0.84,1.2,-0.0,0.27,-0,-9,2,1.2,9640,14,90,39,29,1089,970.0,640,465,60,118.0,72,1,287,295,70,0,0,972,771,25,966,882.05,,,,,,,,,,,,
110984,1563730163403,12,2.3,0.74,0.39,1.09,0.85,1.17,-0.07,0.29,-0,-6,2,1.17,9635,14,90,39,29,1041,960.0,640,470,60,118.0,72,1,287,270,70,0,0,974,252,2056,958,882.05,,,,,,,,,,,,
111004,1563730163423,13,2.3,0.74,0.41,1.1,0.85,1.09,-0.02,0.25,-1,-4,2,1.09,9527,14,90,39,29,1011,961.0,644,478,60,118.0,72,1,287,247,70,0,0,977,-1024,-10431,962,1115.64,,,,,,,,,,,,
111024,1563730163443,12,2.3,0.74,0.42,1.1,0.86,1.18,-0.13,0.36,-1,-5,4,1.19,9469,14,90,39,28,992,956.0,647,470,60,118.0,72,1,282,221,70,0,0,966,252,-3584,960,648.46,,,,,,,,,,,,
111044,1563730163463,12,2.3,0.74,0.42,1.1,0.86,1.25,-0.16,0.39,-1,-4,4,1.26,9328,14,90,39,29,981,963.0,655,464,60,119.0,72,1,287,200,70,0,0,966,-1018,-30724,962,882.05,45.748776,4.906673,106.35,180.2,0,0.0,-1,0.0,0.0,0,0.48,1.8507
111064,1563730163483,13,2.3,0.74,0.41,1.09,0.86,1.32,-0.06,0.32,-1,-2,3,1.33,9173,14,90,39,29,989,950.0,647,472,60,119.0,67,1,287,187,65,0,0,966,-783,6464,948,882.05,,,,,,,,,,,,
111084,1563730163501,13,2.29,0.74,0.4,1.09,0.85,1.32,-0.1,0.47,-1,-9,6,1.32,9101,14,90,39,29,999,944.0,643,473,60,120.0,67,1,287,187,65,0,0,966,-776,-14712,938,882.05,,,,,,,,,,,,
111104,1563730163521,13,2.29,0.73,0.39,1.08,0.84,1.21,-0.0,0.34,-1,-9,1,1.21,9282,14,90,39,29,1022,938.0,642,473,60,119.0,67,1,287,189,65,0,0,966,-1796,-3332,926,882.05,,,,,,,,,,,,
111124,1563730163541,12,2.3,0.73,0.4,1.09,0.85,1.22,-0.03,0.29,-0,-7,2,1.22,9333,14,90,39,30,1042,934.0,642,474,60,119.0,67,1,291,190,65,0,0,966,-773,-776,926,1115.64,,,,,,,,,,,,
111144,1563730163561,14,2.29,0.73,0.41,1.09,0.86,1.26,0.03,0.35,-1,-8,1,1.26,9422,14,90,39,29,1052,931.0,649,475,60,118.0,67,1,287,190,65,0,0,938,-772,-4869,922,648.46,45.748749,4.90667,102.62,180.2,0,0.0,-1,0.0,0.0,0,0.49,1.8524
111164,1563730163581,13,2.29,0.73,0.41,1.08,0.86,1.12,0.03,0.27,-1,-10,1,1.12,9600,14,90,39,28,1070,923.0,636,473,60,120.0,75,1,282,191,69,0,0,900,-4870,-3604,905,882.05,,,,,,,,,,,,
111184,1563730163601,12,2.3,0.73,0.4,1.09,0.86,1.14,0.05,0.31,-1,-11,-2,1.14,9786,14,90,39,28,1063,916.0,637,476,60,119.0,75,1,282,192,69,0,0,904,-4873,-14848,899,414.87,,,,,,,,,,,,
111204,1563730163621,11,2.29,0.73,0.4,1.09,0.85,1.08,0.11,0.21,-2,-9,-2,1.09,9863,14,90,39,27,1049,914.0,649,470,60,120.0,75,1,278,190,69,0,0,890,-2068,-2426,911,882.05,,,,,,,,,,,,
111224,1563730163641,12,2.29,0.73,0.4,1.09,0.85,1.09,0.2,0.09,-1,-3,-3,1.1,9873,14,90,39,27,1025,916.0,657,467,60,118.0,75,1,278,190,69,0,0,867,-1812,-2570,886,648.46,,,,,,,,,,,,
111244,1563730163661,11,2.29,0.73,0.4,1.08,0.85,1.1,0.22,0.11,-2,-2,-5,1.12,9796,14,90,39,27,986,906.0,647,473,60,119.0,75,1,278,190,69,0,0,878,-4878,13049,898,882.05,45.748722,4.906666,99.59,180.1,0,0.0,-1,0.0,0.0,0,0.49,1.8541
111264,1563730163681,11,2.32,0.73,0.4,1.09,0.85,1.13,0.28,0.03,-2,-0,-3,1.17,9745,14,90,39,28,968,907.0,654,477,60,119.0,77,1,282,192,70,0,0,903,-4879,-1578,893,414.87,,,,,,,,,,,,
111284,1563730163703,12,2.3,0.72,0.39,1.09,0.83,1.19,0.22,0.06,-2,0,-6,1.21,9755,14,90,40,28,939,899.0,650,476,60,120.0,77,1,282,191,70,0,0,901,-5120,-3348,863,882.05,,,,,,,,,,,,
111304,1563730163723,12,2.31,0.72,0.4,1.08,0.84,1.27,0.23,0.06,-2,1,-5,1.28,9765,14,90,40,29,916,893.0,662,475,60,119.0,77,1,287,193,70,0,0,898,-5120,-775,884,648.46,,,,,,,,,,,,
111324,1563730163743,12,2.31,0.72,0.4,1.08,0.84,1.25,0.14,0.09,-1,-1,-5,1.26,9796,14,90,40,29,879,886.0,646,473,60,120.0,77,1,287,193,70,0,0,884,-14712,966,861,882.05,,,,,,,,,,,,
111344,1563730163763,10,2.31,0.73,0.41,1.08,0.86,1.23,0.11,0.17,-1,-4,-6,1.23,9894,14,90,40,29,871,885.0,653,477,60,118.0,77,1,287,197,70,0,0,882,-9995,-14848,885,414.87,45.748703,4.906662,96.6,180.1,0,0.0,-1,0.0,0.0,0,0.49,1.8557
111364,1563730163783,12,2.31,0.73,0.41,1.08,0.86,1.22,0.1,0.13,-1,-4,-4,1.23,9878,14,90,40,30,863,876.0,656,473,60,119.0,82,1,291,197,72,0,0,869,-10508,966,866,882.05,,,,,,,,,,,,
111384,1563730163803,10,2.31,0.74,0.41,1.09,0.85,1.07,0.08,0.14,0,-3,-3,1.08,9899,14,90,40,30,861,865.0,643,474,60,120.0,82,1,291,197,72,0,0,884,-3335,-2311,866,882.05,,,,,,,,,,,,
111404,1563730163823,11,2.31,0.73,0.41,1.09,0.85,1.15,0.0,0.2,1,-1,-2,1.15,9904,14,90,40,30,858,863.0,646,472,60,120.0,82,1,291,197,72,0,0,870,-1580,-14712,863,648.46,,,,,,,,,,,,
111424,1563730163843,11,2.3,0.73,0.41,1.08,0.85,1.12,0.07,0.17,1,-3,-0,1.13,9915,14,90,40,30,860,862.0,641,468,60,119.0,82,1,291,197,72,0,0,863,-1582,-779,855,882.05,,,,,,,,,,,,
111444,1563730163863,9,2.3,0.73,0.41,1.09,0.86,1.17,0.02,0.27,1,-1,-0,1.17,9791,14,90,40,30,865,858.0,646,470,60,118.0,82,1,291,195,72,0,0,871,-9995,-23308,861,648.46,45.74868,4.90666,93.96,180.1,0,0.0,-1,0.0,0.0,0,0.49,1.8574
111464,1563730163883,9,2.31,0.73,0.42,1.09,0.87,1.21,0.09,0.18,1,-1,0,1.22,9725,14,90,40,30,873,851.0,650,472,60,119.0,84,1,291,195,72,0,0,864,-1576,-23308,846,882.05,,,,,,,,,,,,
111484,1563730163902,11,2.29,0.74,0.42,1.1,0.86,1.27,0.11,0.18,1,-2,0,1.27,9715,14,90,40,30,892,847.0,646,469,60,118.0,84,1,291,195,72,0,0,857,8838,-1578,841,648.46,,,,,,,,,,,,
111504,1563730163922,9,2.3,0.74,0.41,1.1,0.86,1.21,0.14,0.09,1,-4,1,1.22,9630,13,90,40,30,901,836.0,630,476,60,119.0,84,1,291,193,72,0,0,853,-31066,-23308,836,882.05,,,,,,,,,,,,
111524,1563730163942,11,2.3,0.74,0.4,1.1,0.85,1.21,0.08,0.16,1,-3,-0,1.21,9532,14,89,40,30,915,836.0,647,473,60,118.0,84,1,291,192,72,0,0,860,-30694,-1576,826,648.46,,,,,,,,,,,,
111544,1563730163962,8,2.29,0.74,0.41,1.1,0.86,1.23,0.08,0.18,0,-0,1,1.23,9546,14,89,40,30,920,841.0,646,471,60,119.0,84,1,291,192,72,0,0,860,-30694,-3450,839,648.46,45.748657,4.906657,91.98,180.2,0,0.0,-1,0.0,0.0,0,0.5,1.8591
111564,1563730163982,9,2.3,0.74,0.41,1.1,0.86,1.12,0.14,0.08,-0,2,0,1.12,9537,14,90,40,30,926,828.0,643,473,60,119.0,83,1,291,192,69,0,0,860,-2830,-23308,815,882.05,,,,,,,,,,,,
111584,1563730163994,8,2.29,0.74,0.42,1.1,0.87,1.21,0.03,0.19,-0,-0,-1,1.21,9517,14,89,40,30,928,828.0,641,477,60,119.0,83,1,291,192,69,0,0,835,-31066,-2826,825,648.46,,,,,,,,,,,,
111604,1563730164014,10,2.3,0.74,0.42,1.1,0.87,1.23,0.05,0.08,-1,2,2,1.23,9450,14,89,40,29,924,824.0,642,472,60,120.0,83,1,287,190,69,0,0,833,-31066,-31068,821,648.46,,,,,,,,,,,,
111624,1563730164034,8,2.3,0.73,0.41,1.1,0.86,1.1,0.18,0.09,-1,2,1,1.12,9431,14,90,40,29,916,821.0,641,477,60,120.0,83,1,287,189,69,0,0,820,-2314,-2826,814,882.05,,,,,,,,,,,,
111644,1563730164054,9,2.29,0.74,0.42,1.1,0.86,1.09,0.13,0.19,-1,0,0,1.09,9379,14,90,40,28,910,815.0,645,480,60,118.0,83,1,282,188,69,0,0,837,-3344,-2830,814,414.87,45.74863,4.906654,88.47,180.1,0,0.0,-1,0.0,0.0,0,0.5,1.8607
111664,1563730164074,11,2.29,0.73,0.41,1.08,0.86,1.18,0.11,0.14,-0,-1,0,1.18,9342,14,90,40,28,904,816.0,641,469,60,119.0,82,1,282,187,67,0,0,834,-4091,-2356,799,648.46,,,,,,,,,,,,
111684,1563730164100,7,2.3,0.74,0.41,1.1,0.86,1.1,0.12,0.24,0,-1,-2,1.11,9346,14,90,40,28,901,797.0,643,475,60,119.0,82,1,282,187,67,0,0,822,6905,6790,790,648.46,,,,,,,,,,,,
111704,1563730164120,9,2.3,0.73,0.41,1.09,0.87,1.02,0.15,0.13,1,-2,-0,1.03,9305,14,90,40,27,897,803.0,642,467,60,121.0,82,1,278,186,67,0,0,820,-13312,-22796,799,414.87,,,,,,,,,,,,
111724,1563730164140,5,2.31,0.74,0.42,1.1,0.87,0.83,0.17,0.1,1,0,-1,0.85,9150,14,90,40,27,890,803.0,647,465,60,121.0,82,1,278,185,67,0,0,807,-13312,-4091,791,414.87,,,,,,,,,,,,
111744,1563730164160,7,2.3,0.74,0.42,1.1,0.86,0.8,0.17,0.16,1,2,1,0.81,9018,14,90,40,27,886,797.0,618,470,60,120.0,82,1,278,185,67,0,0,807,-30694,-3888,797,414.87,45.748611,4.906651,86.65,179.9,0,0.0,-1,0.0,0.0,0,0.5,1.8624
111764,1563730164180,7,2.31,0.73,0.42,1.09,0.86,0.71,0.24,0.04,1,3,0,0.75,8941,13,90,40,28,881,802.0,620,464,60,120.0,79,1,282,185,63,0,0,787,-12152,-23490,787,414.87,,,,,,,,,,,,
111784,1563730164200,8,2.3,0.73,0.41,1.09,0.86,0.63,0.3,-0.04,2,4,-1,0.7,8920,12,90,40,29,874,790.0,621,466,60,118.0,79,1,287,185,63,0,0,798,6389,-2574,789,414.87,,,,,,,,,,,,
111804,1563730164220,9,2.3,0.74,0.41,1.1,0.85,0.63,0.31,-0.05,1,7,-1,0.7,8861,13,90,40,30,869,787.0,621,468,60,119.0,79,1,291,273,63,0,0,791,-8148,5344,780,882.05,,,,,,,,,,,,
111824,1563730164240,9,2.3,0.74,0.41,1.09,0.86,0.6,0.31,-0.05,1,8,0,0.67,8967,13,89,40,29,861,779.0,630,468,60,118.0,79,1,287,251,63,0,0,785,-22795,-8148,779,882.05,,,,,,,,,,,,
111844,1563730164260,8,2.3,0.74,0.42,1.09,0.87,0.44,0.37,-0.09,2,12,1,0.57,9093,13,90,40,28,858,776.0,638,472,60,117.0,79,1,282,230,63,0,0,788,-23308,6900,776,882.05,45.748589,4.906648,84.67,179.8,0,0.0,-1,0.0,0.0,0,0.5,1.8641
111864,1563730164280,7,2.31,0.74,0.42,1.1,0.88,0.37,0.42,-0.19,3,14,0,0.56,9027,13,90,40,28,855,774.0,635,471,60,117.0,97,1,282,210,75,0,0,790,-2830,-7436,761,882.05,,,,,,,,,,,,
111884,1563730164300,7,2.3,0.74,0.42,1.1,0.87,0.26,0.46,-0.24,4,15,-1,0.53,8992,11,89,41,27,912,766.0,638,477,60,116.0,97,1,278,188,75,0,0,784,-2344,-2826,766,882.05,,,,,,,,,,,,
111904,1563730164320,11,2.3,0.74,0.41,1.1,0.87,0.33,0.47,-0.28,3,15,-1,0.57,8890,10,89,41,27,945,766.0,645,468,60,119.0,97,1,278,185,75,0,0,782,6389,-2344,766,882.05,,,,,,,,,,,,
111924,1563730164340,11,2.29,0.74,0.41,1.11,0.86,0.21,0.53,-0.22,3,14,1,0.57,8882,10,89,41,26,1004,767.0,638,474,60,120.0,97,1,274,185,75,0,0,738,-2344,-2830,763,882.05,,,,,,,,,,,,
111944,1563730164360,9,2.3,0.74,0.42,1.09,0.87,0.24,0.52,-0.23,3,11,-1,0.57,9119,10,89,41,26,1040,760.0,639,463,60,119.0,97,1,274,185,75,0,0,773,5876,-2344,760,648.46,45.74857,4.906646,82.04,179.7,0,0.0,-1,0.0,0.0,0,0.51,1.8657
111964,1563730164380,8,2.29,0.74,0.42,1.1,0.86,0.25,0.52,-0.34,3,11,-2,0.57,9173,9,90,41,25,1066,753.0,648,472,60,120.0,85,1,270,185,64,0,0,743,-3450,3462,738,882.05,,,,,,,,,,,,
111984,1563730164400,11,2.29,0.75,0.41,1.1,0.87,0.36,0.45,-0.24,2,10,-1,0.57,9342,10,89,41,24,1097,744.0,646,471,60,118.0,85,1,270,178,64,0,0,736,-22796,-13068,746,414.87,,,,,,,,,,,,
112004,1563730164420,11,2.29,0.74,0.41,1.11,0.86,0.52,0.38,-0.24,2,10,-1,0.65,9474,10,89,41,24,1081,747.0,626,468,60,120.0,85,1,270,178,64,0,0,736,136,-2830,736,648.46,,,,,,,,,,,,
112024,1563730164440,8,2.3,0.74,0.41,1.1,0.86,0.45,0.34,-0.26,2,10,2,0.56,9455,10,90,41,24,1049,739.0,639,468,60,119.0,85,1,270,178,64,0,0,736,-2356,-13580,738,882.05,,,,,,,,,,,,
112044,1563730164460,10,2.29,0.74,0.41,1.1,0.87,0.46,0.41,-0.2,2,11,-1,0.62,9484,10,90,41,25,1018,732.0,640,477,60,120.0,85,1,270,185,64,0,0,722,-2826,15647,732,1115.64,45.748547,4.906643,79.59,179.6,0,0.0,-1,0.0,0.0,0,0.51,1.8674
112064,1563730164480,10,2.31,0.74,0.42,1.1,0.87,0.6,0.31,-0.21,2,9,-0,0.68,9464,10,90,41,26,967,731.0,640,472,60,120.0,90,1,274,186,66,0,0,718,-13580,1524,722,648.46,,,,,,,,,,,,
112084,1563730164502,8,2.3,0.73,0.41,1.1,0.86,0.72,0.24,-0.17,1,8,-1,0.76,9460,10,90,41,26,949,723.0,642,472,60,120.0,90,1,274,186,66,0,0,713,-25858,1037,718,882.05,,,,,,,,,,,,
112104,1563730164522,9,2.31,0.74,0.41,1.1,0.86,0.74,0.27,-0.19,1,6,1,0.79,9532,10,89,41,26,931,714.0,647,472,60,119.0,90,1,274,186,66,0,0,712,204,-30694,710,882.05,,,,,,,,,,,,
112124,1563730164542,10,2.3,0.73,0.41,1.1,0.86,0.87,0.24,-0.25,1,6,-1,0.9,9556,10,89,41,26,918,712.0,655,475,60,119.0,90,1,274,186,66,0,0,709,204,-2830,707,1115.64,,,,,,,,,,,,
112144,1563730164562,8,2.3,0.74,0.42,1.1,0.86,0.82,0.27,-0.14,1,3,-0,0.87,9576,10,89,41,27,900,709.0,654,476,60,119.0,90,1,278,188,66,0,0,711,11069,11069,709,882.05,45.748528,4.906641,77.57,179.6,0,0.0,-1,0.0,0.0,0,0.51,1.8691
112164,1563730164582,7,2.29,0.74,0.42,1.1,0.87,0.89,0.27,-0.06,1,2,-0,0.93,9537,10,89,41,27,896,705.0,656,473,60,118.0,95,1,278,187,67,0,0,693,-20693,11576,696,1115.64,,,,,,,,,,,,
112184,1563730164600,9,2.3,0.75,0.42,1.11,0.86,1.01,0.15,-0.04,-0,0,-0,1.02,9469,10,89,41,27,896,702.0,663,476,60,118.0,95,1,278,187,67,0,0,681,6208,-2830,704,648.46,,,,,,,,,,,,
112204,1563730164620,6,2.3,0.73,0.42,1.1,0.87,0.81,0.2,-0.1,1,2,0,0.83,9379,10,89,41,27,915,697.0,638,472,60,120.0,95,1,278,187,67,0,0,697,6208,8010,694,882.05,,,,,,,,,,,,
112224,1563730164640,7,2.31,0.74,0.41,1.1,0.86,0.81,0.26,-0.16,1,3,-0,0.85,9309,10,90,41,27,930,686.0,635,476,60,119.0,95,1,278,186,67,0,0,699,16599,-10448,683,882.05,,,,,,,,,,,,
112244,1563730164660,7,2.31,0.75,0.41,1.11,0.86,0.87,0.2,-0.09,1,2,-0,0.89,9323,10,89,41,27,954,690.0,641,467,60,118.0,95,1,278,186,67,0,0,682,6208,-10448,689,414.87,45.748508,4.906639,75.24,179.5,0,0.0,-1,0.0,0.0,0,0.51,1.8707
112264,1563730164680,9,2.3,0.73,0.42,1.1,0.87,0.98,0.08,-0.14,0,0,2,0.99,9333,9,89,41,27,973,687.0,632,466,60,120.0,94,1,278,186,65,0,0,677,6208,11576,687,648.46,,,,,,,,,,,,
112284,1563730164702,8,2.3,0.74,0.43,1.11,0.87,1.05,0.14,-0.09,0,1,1,1.06,9333,9,89,41,27,984,681.0,636,470,60,120.0,94,1,278,186,65,0,0,686,-26562,-2830,681,882.05,,,,,,,,,,,,
112304,1563730164722,6,2.3,0.73,0.41,1.11,0.87,0.93,0.08,-0.12,1,1,1,0.93,9286,9,89,41,27,1002,677.0,636,476,60,120.0,94,1,278,186,65,0,0,683,-26892,-3578,675,882.05,,,,,,,,,,,,
112324,1563730164742,5,2.3,0.74,0.41,1.1,0.86,0.81,0.19,-0.12,1,3,-0,0.83,9222,9,89,41,27,1004,675.0,635,472,60,119.0,94,1,278,186,65,0,0,680,-26892,24,675,882.05,,,,,,,,,,,,
112344,1563730164762,5,2.3,0.75,0.42,1.1,0.88,0.68,0.26,-0.11,2,8,1,0.73,9155,9,89,41,27,999,674.0,651,471,60,118.0,94,1,278,185,65,0,0,676,-10344,-10399,673,882.05,45.748489,4.906636,72.64,179.5,0,0.0,-1,0.0,0.0,0,0.52,1.8724
112364,1563730164782,5,2.31,0.74,0.42,1.11,0.87,0.78,0.24,-0.11,1,9,-0,0.82,9155,9,89,41,27,991,669.0,641,463,60,118.0,95,1,278,185,64,0,0,679,31988,16118,662,414.87,,,,,,,,,,,,
112384,1563730164802,7,2.3,0.75,0.42,1.1,0.87,0.91,0.2,-0.04,1,7,-1,0.93,9150,9,89,41,27,983,664.0,661,464,60,120.0,95,1,278,185,64,0,0,673,-10348,-3038,662,648.46,,,,,,,,,,,,
112404,1563730164822,7,2.3,0.74,0.42,1.11,0.87,1.02,0.08,-0.04,-0,6,-1,1.02,9115,9,89,41,27,973,661.0,637,472,60,119.0,95,1,278,185,64,0,0,670,-2345,1549,657,648.46,,,,,,,,,,,,
112424,1563730164842,6,2.3,0.74,0.42,1.1,0.87,1.09,-0.0,0.09,-1,4,-1,1.09,9071,9,89,41,27,968,658.0,642,470,60,120.0,95,1,278,185,64,0,0,664,-3038,31988,652,648.46,,,,,,,,,,,,
112444,1563730164862,6,2.3,0.75,0.42,1.11,0.87,1.18,-0.09,0.1,-1,2,-1,1.18,9036,9,89,41,26,959,654.0,626,467,60,120.0,95,1,274,185,64,0,0,663,-2830,-2826,649,648.46,45.748474,4.906634,70.56,179.4,0,0.0,-1,0.0,0.0,0,0.52,1.8741
112464,1563730164882,6,2.31,0.74,0.43,1.1,0.88,1.24,-0.06,0.23,-1,0,-2,1.25,8984,9,89,41,26,953,652.0,636,467,60,118.0,97,1,274,185,63,0,0,663,24583,8958,646,414.87,,,,,,,,,,,,
112484,1563730164901,7,2.31,0.75,0.42,1.11,0.87,1.32,-0.16,0.26,-1,-1,-3,1.33,8928,9,89,41,25,948,646.0,627,474,60,120.0,97,1,270,185,63,0,0,660,4909,-3038,644,648.46,,,,,,,,,,,,
112504,1563730164921,6,2.3,0.74,0.42,1.11,0.87,1.37,-0.22,0.36,-1,-2,-2,1.38,8873,9,89,41,25,946,643.0,626,472,60,120.0,97,1,270,185,63,0,0,652,244,2024,643,648.46,,,,,,,,,,,,
112524,1563730164941,4,2.31,0.74,0.42,1.1,0.87,1.39,-0.27,0.36,-1,-3,-2,1.41,8798,9,89,41,25,943,646.0,650,468,60,119.0,97,1,270,185,63,0,0,650,4909,-3488,637,414.87,,,,,,,,,,,,
112544,1563730164961,5,2.3,0.75,0.42,1.11,0.87,1.38,-0.22,0.33,-1,-4,-3,1.4,8737,9,89,41,25,931,640.0,639,468,60,119.0,97,1,270,185,63,0,0,649,24,479,637,414.87,45.748459,4.906632,67.95,179.4,0,0.0,-1,0.0,0.0,0,0.52,1.8757
112564,1563730164981,8,2.3,0.75,0.42,1.1,0.87,1.26,-0.12,0.3,-1,-3,-3,1.26,8696,9,89,41,25,922,640.0,650,470,60,119.0,96,1,270,185,61,0,0,644,24,244,633,882.05,,,,,,,,,,,,
112584,1563730164993,6,2.3,0.74,0.42,1.1,0.87,1.18,-0.08,0.31,-1,-3,-3,1.18,8708,9,89,41,25,915,631.0,630,468,60,120.0,96,1,270,185,61,0,0,645,771,11566,631,882.05,,,,,,,,,,,,
112604,1563730165013,6,2.31,0.75,0.42,1.1,0.87,1.2,-0.14,0.44,-1,-5,-2,1.21,8684,9,89,42,25,903,629.0,641,470,60,120.0,96,1,270,185,61,0,0,635,-14655,-2580,623,648.46,,,,,,,,,,,,
112624,1563730165033,6,2.3,0.74,0.42,1.11,0.87,1.18,-0.1,0.43,-1,-3,-3,1.19,8640,9,89,42,25,892,627.0,630,467,60,119.0,96,1,270,185,61,0,0,635,-16046,506,623,648.46,,,,,,,,,,,,
112644,1563730165053,7,2.3,0.74,0.43,1.1,0.87,1.12,-0.09,0.4,-1,-3,-3,1.13,8604,9,89,42,25,884,624.0,628,471,60,119.0,96,1,270,185,61,0,0,631,3395,-14655,622,882.05,45.74844,4.90663,65.99,179.4,0,0.0,-1,0.0,0.0,0,0.52,1.8774
112664,1563730165073,8,2.29,0.75,0.42,1.11,0.87,1.14,-0.06,0.38,-1,-3,-4,1.14,8538,9,89,42,25,882,621.0,620,469,60,120.0,97,1,270,185,60,0,0,784,-18357,-14655,617,648.46,,,,,,,,,,,,
112684,1563730165099,5,2.31,0.74,0.43,1.1,0.87,1.11,-0.06,0.44,-1,-3,-4,1.12,8518,9,89,42,25,881,615.0,619,470,60,119.0,97,1,270,185,60,0,0,784,26688,-16883,612,648.46,,,,,,,,,,,,
112704,1563730165119,7,2.3,0.75,0.42,1.11,0.87,1.1,-0.06,0.36,-1,-1,-4,1.1,8442,9,89,42,25,882,614.0,625,470,60,118.0,97,1,270,184,60,0,0,784,26688,-18357,612,414.87,,,,,,,,,,,,
112724,1563730165139,6,2.3,0.74,0.42,1.1,0.88,1.11,-0.01,0.33,-0,-0,-3,1.11,8415,9,89,42,25,883,614.0,611,467,60,120.0,97,1,270,179,60,0,0,784,1010,269,612,648.46,,,,,,,,,,,,
112744,1563730165159,4,2.3,0.75,0.42,1.11,0.87,1.1,-0.01,0.32,-0,0,-3,1.1,8370,9,89,42,25,887,611.0,617,467,60,119.0,97,1,270,177,60,0,0,784,1010,16529,607,414.87,45.748424,4.906628,64.17,179.5,0,0.0,-1,0.0,0.0,0,0.52,1.8791
112764,1563730165179,5,2.31,0.75,0.42,1.11,0.87,1.15,-0.05,0.32,-0,1,-3,1.15,8300,9,89,42,25,889,606.0,621,470,60,120.0,89,1,270,174,54,0,0,784,-23055,30721,604,882.05,,,,,,,,,,,,
112784,1563730165199,4,2.31,0.74,0.42,1.1,0.87,1.11,-0.03,0.36,0,1,-3,1.11,8285,9,89,42,26,888,602.0,631,468,60,119.0,89,1,273,173,54,0,0,601,-768,16529,601,648.46,,,,,,,,,,,,
112804,1563730165219,5,2.31,0.74,0.42,1.11,0.88,1.11,-0.02,0.36,0,2,-3,1.11,8259,9,89,42,25,885,601.0,635,472,60,119.0,89,1,270,173,54,0,0,602,243,-30139,599,882.05,,,,,,,,,,,,
112824,1563730165239,3,2.31,0.74,0.42,1.1,0.88,1.07,-0.01,0.3,0,1,-2,1.07,8281,9,89,42,25,880,599.0,621,471,60,120.0,89,1,270,172,54,0,0,604,4956,30227,599,648.46,,,,,,,,,,,,
112844,1563730165259,6,2.3,0.75,0.42,1.1,0.87,1.04,-0.02,0.34,0,0,-4,1.04,8198,9,89,42,25,876,596.0,596,471,60,120.0,89,1,270,167,54,0,0,605,17344,-768,595,882.05,45.748405,4.906626,62.55,179.5,0,0.0,-1,0.0,0.0,0,0.52,1.8807
112864,1563730165279,3,2.3,0.75,0.42,1.1,0.87,1.07,-0.03,0.35,0,0,-3,1.07,8166,8,89,42,26,872,595.0,625,472,60,120.0,87,1,273,166,52,0,0,604,6273,23619,595,648.46,,,,,,,,,,,,
112884,1563730165299,6,2.3,0.75,0.42,1.11,0.87,1.08,-0.05,0.33,-0,-0,-3,1.08,8169,9,89,42,25,869,587.0,604,469,60,120.0,87,1,270,166,52,0,0,600,-25872,4956,585,648.46,,,,,,,,,,,,
112904,1563730165319,4,2.31,0.74,0.42,1.1,0.88,1.08,-0.04,0.38,-0,1,-2,1.08,8134,8,89,42,25,870,587.0,599,471,60,119.0,87,1,270,165,52,0,0,595,-12040,6273,583,414.87,,,,,,,,,,,,
112924,1563730165339,4,2.3,0.75,0.42,1.11,0.88,1.08,-0.07,0.39,-0,2,-1,1.09,8061,8,90,42,25,872,585.0,605,477,60,121.0,87,1,270,159,52,0,0,592,-25872,6273,583,414.87,,,,,,,,,,,,
112944,1563730165359,3,2.31,0.74,0.42,1.1,0.88,1.18,-0.07,0.4,-1,-0,-2,1.18,7982,8,90,42,26,875,582.0,603,465,60,121.0,87,1,272,156,52,0,0,594,8488,-16179,579,414.87,45.748386,4.906625,61.23,179.6,0,0.0,-1,0.0,0.0,0,0.53,1.8824
112964,1563730165379,3,2.31,0.75,0.42,1.11,0.87,1.17,0.0,0.39,-1,-0,-1,1.17,7884,8,90,42,26,878,578.0,600,465,60,120.0,81,1,271,157,47,0,0,589,243,1,576,414.87,,,,,,,,,,,,
112984,1563730165401,3,2.3,0.75,0.42,1.1,0.87,1.07,0.07,0.35,-1,1,-1,1.07,7799,8,90,42,26,880,574.0,592,470,60,118.0,81,1,270,157,47,0,0,578,774,259,574,414.87,,,,,,,,,,,,
113004,1563730165421,3,2.31,0.75,0.42,1.1,0.88,1.05,0.08,0.25,-0,2,-0,1.05,7799,8,90,42,27,881,571.0,587,467,60,120.0,81,1,273,158,47,0,0,575,1267,774,567,414.87,,,,,,,,,,,,
113024,1563730165441,5,2.31,0.74,0.43,1.11,0.87,1.03,0.05,0.27,-0,2,-1,1.03,7747,8,89,42,27,882,570.0,587,472,60,119.0,81,1,273,226,47,0,0,568,1780,-29984,567,882.05,,,,,,,,,,,,
113044,1563730165461,4,2.3,0.75,0.43,1.11,0.87,1.12,0.02,0.31,-0,3,0,1.12,7815,8,89,42,28,882,565.0,597,470,60,119.0,81,1,276,215,47,0,0,571,-30159,-29984,563,882.05,45.748371,4.906622,60.0,179.7,0,0.0,-1,0.0,0.0,0,0.53,1.8841
113064,1563730165481,7,2.3,0.75,0.42,1.1,0.87,1.14,0.04,0.31,-0,2,0,1.14,7819,8,89,42,28,881,561.0,600,469,60,118.0,108,1,277,198,61,0,0,1067,-18032,1780,555,882.05,,,,,,,,,,,,
113084,1563730165501,5,2.31,0.75,0.43,1.1,0.88,1.08,0.04,0.34,0,3,-1,1.08,7735,8,89,42,28,881,556.0,587,471,60,118.0,108,1,276,182,61,0,0,1067,2524,12552,556,648.46,,,,,,,,,,,,
113104,1563730165521,5,2.31,0.75,0.43,1.11,0.87,1.01,0.06,0.33,0,4,0,1.01,7738,8,89,42,28,896,555.0,586,471,60,118.0,108,1,276,167,61,0,0,639,-22263,12552,553,648.46,,,,,,,,,,,,
113124,1563730165541,4,2.31,0.75,0.43,1.1,0.88,1.03,-0.01,0.35,-1,2,1,1.03,7603,8,89,42,28,923,554.0,575,471,60,119.0,108,1,276,160,61,0,0,639,2524,1267,553,882.05,,,,,,,,,,,,
113144,1563730165561,5,2.3,0.75,0.42,1.1,0.87,1.05,0.01,0.33,-1,-2,-1,1.05,7606,8,89,42,28,945,553.0,578,475,60,116.0,108,1,276,160,61,0,0,639,-28648,1779,549,882.05,45.748356,4.90662,58.55,179.7,0,0.0,-1,0.0,0.0,0,0.53,1.8857
113164,1563730165581,5,2.3,0.75,0.41,1.11,0.87,0.89,-0.07,0.43,-1,-2,1,0.89,7512,8,89,42,29,967,545.0,565,472,60,120.0,82,1,279,160,45,0,0,37,-3082,-21872,543,882.05,,,,,,,,,,,,
113184,1563730165601,5,2.31,0.75,0.42,1.11,0.87,0.97,-0.09,0.37,-1,-1,-0,0.97,7864,8,89,42,29,992,542.0,579,471,60,119.0,82,1,280,161,45,0,0,37,-2336,-30064,542,882.05,,,,,,,,,,,,
113204,1563730165621,8,2.3,0.74,0.42,1.1,0.87,1.06,-0.11,0.28,-0,-1,-0,1.06,7944,8,89,42,28,1042,534.0,583,469,60,118.0,82,1,278,161,45,0,0,37,-32248,8488,532,414.87,,,,,,,,,,,,
113224,1563730165641,5,2.3,0.75,0.42,1.11,0.87,0.98,-0.12,0.32,0,-1,0,0.99,8078,8,89,42,28,1061,536.0,588,475,60,119.0,82,1,279,165,45,0,0,37,-22519,11560,536,648.46,,,,,,,,,,,,
113244,1563730165661,6,2.31,0.75,0.42,1.11,0.87,0.97,-0.09,0.29,0,-1,0,0.98,8216,8,89,42,28,1079,529.0,602,468,60,118.0,82,1,280,170,45,0,0,37,-9072,-9216,527,882.05,45.748344,4.906618,56.9,179.7,0,0.0,-1,0.0,0.0,0,0.53,1.8874
113264,1563730165681,4,2.31,0.75,0.42,1.11,0.88,1.0,-0.09,0.3,0,1,0,1.0,8366,8,89,42,27,1077,527.0,612,472,60,119.0,104,1,277,176,55,0,0,37,-22519,3580,521,648.46,,,,,,,,,,,,
113284,1563730165699,5,2.3,0.75,0.42,1.12,0.87,1.05,-0.11,0.34,0,-0,0,1.06,8553,8,89,42,27,1063,521.0,632,467,60,118.0,104,1,278,185,55,0,0,21,-9212,-9216,518,414.87,,,,,,,,,,,,
113304,1563730165719,5,2.31,0.75,0.42,1.11,0.87,1.08,-0.09,0.29,0,-0,0,1.08,8632,8,89,42,26,1039,515.0,633,476,60,117.0,104,1,274,185,55,0,0,489,-4054,-6441,514,882.05,,,,,,,,,,,,
113324,1563730165739,7,2.3,0.75,0.42,1.11,0.88,1.01,-0.04,0.32,0,1,2,1.01,8753,8,89,42,26,1016,509.0,631,467,60,119.0,104,1,274,185,55,0,0,503,-28648,3,509,882.05,,,,,,,,,,,,
113344,1563730165759,4,2.31,0.75,0.43,1.11,0.88,1.02,-0.06,0.31,1,3,1,1.02,8819,8,89,42,25,983,505.0,641,467,60,118.0,104,1,270,185,55,0,0,489,-32248,771,505,648.46,45.748325,4.906616,55.27,179.7,0,0.0,-1,0.0,0.0,0,0.53,1.8891
113364,1563730165779,5,2.31,0.75,0.43,1.11,0.89,1.05,-0.11,0.39,1,4,1,1.05,8958,8,89,42,25,939,503.0,624,475,60,118.0,122,1,270,185,62,0,0,494,11560,505,503,648.46,,,,,,,,,,,,
113384,1563730165799,6,2.3,0.75,0.42,1.12,0.88,1.11,-0.12,0.29,1,6,0,1.11,9071,8,89,42,24,919,499.0,640,466,60,119.0,122,1,270,178,62,0,0,484,2524,3580,494,882.05,,,,,,,,,,,,
113404,1563730165819,6,2.3,0.75,0.42,1.11,0.87,1.03,-0.04,0.27,1,7,1,1.03,9124,8,89,42,24,915,494.0,625,478,60,119.0,122,1,270,178,62,0,0,494,248,1,493,882.05,,,,,,,,,,,,
113424,1563730165839,2,2.29,0.76,0.42,1.11,0.87,0.9,0.03,0.24,2,9,1,0.9,9168,8,89,42,23,913,490.0,628,470,60,119.0,122,1,270,173,62,0,0,488,-1562,1,490,648.46,,,,,,,,,,,,
113444,1563730165859,3,2.29,0.75,0.43,1.11,0.88,0.66,0.09,0.13,2,9,3,0.67,9200,8,89,42,23,909,484.0,639,475,60,118.0,122,1,270,173,62,0,0,485,-10483,1,483,882.05,45.748314,4.906614,53.09,179.8,0,0.0,-1,0.0,0.0,0,0.53,1.8907
113464,1563730165879,3,2.3,0.75,0.43,1.11,0.88,0.6,0.08,0.1,2,9,2,0.6,9137,8,89,42,23,907,484.0,636,468,60,115.0,123,1,270,173,60,0,0,484,-899,-10483,484,1115.64,,,,,,,,,,,,
113484,1563730165898,3,2.3,0.76,0.43,1.12,0.88,0.51,0.09,0.09,2,9,2,0.51,9075,8,89,42,23,908,482.0,643,471,60,117.0,123,1,270,173,60,0,0,479,16648,-6656,478,882.05,,,,,,,,,,,,
113504,1563730165918,3,2.31,0.76,0.42,1.12,0.88,0.57,0.11,0.08,1,8,2,0.58,9001,8,89,42,23,909,476.0,641,467,60,117.0,123,1,270,173,60,0,0,482,-17956,32033,473,181.28,,,,,,,,,,,,
113524,1563730165938,3,2.3,0.75,0.42,1.11,0.89,0.48,0.14,0.02,1,8,1,0.51,8928,8,89,42,23,910,474.0,645,465,60,118.0,123,1,270,173,60,0,0,528,-9203,10305,473,882.05,,,,,,,,,,,,
113544,1563730165958,2,2.3,0.75,0.43,1.11,0.88,0.44,0.14,0.0,1,9,2,0.46,8848,8,89,42,23,910,472.0,633,477,60,120.0,123,1,270,173,60,0,0,528,8488,3576,470,882.05,45.748299,4.906612,50.85,179.9,0,0.0,-1,0.0,0.0,0,0.54,1.8924
113564,1563730165978,5,2.3,0.76,0.43,1.12,0.89,0.37,0.21,-0.03,2,9,1,0.43,8794,8,89,42,24,909,466.0,644,473,60,119.0,125,1,270,173,59,0,0,467,-3210,32033,466,882.05,,,,,,,,,,,,
113584,1563730165992,4,2.3,0.75,0.43,1.11,0.89,0.36,0.17,0.01,2,9,2,0.4,8757,8,89,42,23,910,465.0,629,473,60,120.0,125,1,270,173,59,0,0,467,16408,-16384,465,882.05,,,,,,,,,,,,
113604,1563730166012,2,2.31,0.75,0.43,1.12,0.89,0.44,0.1,0.09,1,8,2,0.46,8716,8,89,42,23,911,463.0,626,472,60,120.0,125,1,270,173,59,0,0,462,6193,6193,460,648.46,,,,,,,,,,,,
113624,1563730166032,2,2.3,0.76,0.43,1.12,0.88,0.59,-0.01,0.13,1,7,1,0.59,8644,8,89,42,24,912,461.0,640,467,60,119.0,125,1,270,178,59,0,0,467,17628,12552,461,1115.64,,,,,,,,,,,,
113644,1563730166052,1,2.3,0.75,0.42,1.11,0.88,0.63,0.01,0.11,1,6,1,0.63,8577,8,89,42,24,914,458.0,629,466,60,118.0,125,1,270,173,59,0,0,463,17628,12552,456,1115.64,45.748287,4.90661,49.07,179.9,0,0.0,-1,0.0,0.0,0,0.54,1.8941
113664,1563730166072,4,2.3,0.75,0.43,1.11,0.89,0.62,0.07,0.16,1,6,-0,0.62,8561,8,89,42,24,915,455.0,616,475,60,119.0,127,1,270,178,58,0,0,458,-8985,6193,455,882.05,,,,,,,,,,,,
113684,1563730166100,1,2.3,0.75,0.43,1.11,0.88,0.69,0.07,0.16,1,6,1,0.7,8503,8,89,42,24,916,454.0,622,466,60,119.0,127,1,270,178,58,0,0,453,15649,17628,450,648.46,,,,,,,,,,,,
113704,1563730166120,4,2.29,0.76,0.43,1.12,0.88,0.72,0.07,0.19,0,3,0,0.72,8476,8,89,42,24,916,451.0,628,470,60,118.0,127,1,270,177,58,0,0,449,15649,15649,451,414.87,,,,,,,,,,,,
113724,1563730166140,2,2.3,0.76,0.43,1.13,0.89,0.77,0.04,0.23,0,2,0,0.77,8408,8,89,43,24,915,449.0,608,465,60,120.0,127,1,270,174,58,0,0,445,21432,-26615,448,882.05,,,,,,,,,,,,
113744,1563730166160,2,2.3,0.75,0.44,1.12,0.89,0.82,-0.01,0.27,0,-0,-0,0.82,8351,8,89,43,24,913,446.0,609,472,60,119.0,127,1,270,171,58,0,0,446,21432,8488,445,414.87,45.748272,4.906608,46.1,179.9,0,0.0,-1,0.0,0.0,0,0.54,1.8957
113764,1563730166180,2,2.29,0.76,0.43,1.12,0.89,0.8,0.04,0.31,0,-1,0,0.81,8337,8,89,43,25,911,443.0,642,470,60,120.0,121,1,270,172,54,0,0,446,-18341,8488,438,882.05,,,,,,,,,,,,
113784,1563730166200,1,2.29,0.76,0.43,1.12,0.89,0.77,0.07,0.26,0,0,0,0.78,8329,8,89,43,24,909,439.0,631,469,60,120.0,121,1,270,170,54,0,0,445,-28332,8488,437,648.46,,,,,,,,,,,,
113804,1563730166220,3,2.29,0.76,0.43,1.11,0.89,0.82,0.0,0.31,0,0,-0,0.82,8281,8,89,43,25,908,437.0,633,471,60,119.0,121,1,270,166,54,0,0,539,-7939,2131,437,882.05,,,,,,,,,,,,
113824,1563730166240,0,2.29,0.76,0.43,1.12,0.88,0.84,0.03,0.27,-0,2,1,0.84,8216,8,89,43,25,908,434.0,631,465,60,119.0,121,1,270,168,54,0,0,539,-768,23400,434,414.87,,,,,,,,,,,,
113844,1563730166260,2,2.29,0.76,0.43,1.12,0.89,0.84,0.04,0.27,-1,1,1,0.84,8205,8,89,43,25,906,435.0,622,469,60,119.0,121,1,270,168,54,0,0,67,-7939,21432,434,882.05,45.74826,4.906605,44.82,180.0,0,0.0,-1,0.0,0.0,0,0.54,1.8974
113864,1563730166280,-1,2.3,0.76,0.43,1.13,0.89,0.81,0.04,0.3,-1,0,-0,0.82,8155,8,89,43,25,902,434.0,606,470,60,120.0,114,1,270,165,50,0,0,67,-768,19477,430,648.46,,,,,,,,,,,,
113884,1563730166302,-1,2.3,0.76,0.44,1.12,0.9,0.84,0.05,0.31,-1,1,2,0.84,8088,8,89,43,25,901,429.0,603,474,60,120.0,114,1,270,161,50,0,0,67,3635,-3322,428,882.05,,,,,,,,,,,,
113904,1563730166322,1,2.29,0.76,0.43,1.13,0.89,0.85,0.05,0.26,-1,0,-0,0.85,8057,8,89,43,25,899,429.0,598,469,60,118.0,114,1,270,159,50,0,0,67,3635,-768,426,414.87,,,,,,,,,,,,
113924,1563730166342,-1,2.28,0.76,0.43,1.12,0.89,0.88,0.0,0.34,-1,2,0,0.88,8057,8,89,43,25,895,427.0,595,469,60,120.0,114,1,270,159,50,0,0,67,31796,-768,424,648.46,,,,,,,,,,,,
113944,1563730166362,-0,2.28,0.76,0.44,1.12,0.89,0.91,0.03,0.3,-1,3,0,0.91,8033,8,89,43,26,890,426.0,599,470,60,119.0,114,1,272,157,50,0,0,67,13552,1779,422,882.05,45.748249,4.906603,43.56,180.0,0,0.0,-1,0.0,0.0,0,0.54,1.8991
113964,1563730166382,2,2.29,0.76,0.43,1.12,0.89,0.9,0.05,0.28,-1,3,-1,0.91,7985,8,89,43,26,888,423.0,608,470,60,119.0,113,1,272,157,48,0,0,67,3826,3826,420,414.87,,,,,,,,,,,,
113984,1563730166402,-1,2.29,0.76,0.44,1.12,0.89,0.91,0.03,0.34,-1,4,0,0.91,7995,8,89,43,26,885,422.0,603,470,60,120.0,113,1,272,157,48,0,0,67,-21792,13180,420,648.46,,,,,,,,,,,,
114004,1563730166422,0,2.28,0.76,0.43,1.13,0.88,0.96,0.02,0.33,-1,3,-0,0.96,7924,8,89,43,26,885,420.0,597,474,60,120.0,113,1,272,157,48,0,0,67,-21792,13552,417,648.46,,,,,,,,,,,,
114024,1563730166442,0,2.27,0.76,0.43,1.13,0.89,1.01,-0.0,0.29,-1,1,-1,1.01,7891,8,89,43,26,885,419.0,601,468,60,119.0,113,1,271,157,48,0,0,67,7154,13552,416,414.87,,,,,,,,,,,,
114044,1563730166462,2,2.28,0.76,0.44,1.12,0.89,0.99,0.0,0.39,-1,2,-1,0.99,7891,8,89,43,26,888,417.0,597,469,60,120.0,113,1,271,158,48,0,0,67,-21944,-8165,412,414.87,45.748238,4.906601,42.44,180.2,0,0.0,-1,0.0,0.0,0,0.54,1.9007
114064,1563730166482,-1,2.27,0.76,0.43,1.13,0.89,0.99,0.04,0.41,-1,2,-0,0.99,7822,8,89,43,27,891,413.0,595,471,60,119.0,114,1,274,158,47,0,0,67,-9166,-21944,413,648.46,,,,,,,,,,,,
114084,1563730166502,0,2.28,0.76,0.43,1.13,0.89,1.04,0.03,0.43,-1,0,-2,1.04,7825,8,89,43,27,892,413.0,589,471,60,120.0,114,1,274,158,47,0,0,10,13040,18584,412,882.05,,,,,,,,,,,,
114104,1563730166522,0,2.28,0.76,0.43,1.13,0.89,1.11,0.08,0.46,-2,-1,-2,1.11,7786,8,89,43,28,895,411.0,599,472,60,119.0,114,1,276,158,47,0,0,414,-4059,-4059,408,882.05,,,,,,,,,,,,
114124,1563730166542,2,2.27,0.76,0.43,1.12,0.88,1.04,0.11,0.42,-2,-1,-2,1.04,7735,8,89,43,27,895,409.0,600,471,60,119.0,114,1,273,160,47,0,0,412,11560,18584,409,414.87,,,,,,,,,,,,
114144,1563730166562,2,2.27,0.76,0.43,1.12,0.88,0.95,0.18,0.34,-1,0,-3,0.97,7744,8,89,43,28,894,408.0,598,468,60,118.0,114,1,276,160,47,0,0,407,10392,-4059,405,414.87,45.748226,4.906599,42.09,180.4,0,0.0,-1,0.0,0.0,0,0.54,1.9024
114164,1563730166582,1,2.28,0.76,0.43,1.12,0.89,0.92,0.19,0.34,-1,-0,-4,0.94,7681,7,89,43,28,894,407.0,576,470,60,120.0,113,1,276,160,46,0,0,409,-26615,-26615,405,648.46,,,,,,,,,,,,
114184,1563730166602,-0,2.27,0.77,0.43,1.12,0.88,0.96,0.12,0.41,-1,-0,-4,0.97,7697,8,89,43,28,894,405.0,579,470,60,120.0,113,1,276,160,46,0,0,610,-9211,9517,404,648.46,,,,,,,,,,,,
114204,1563730166622,-1,2.28,0.76,0.43,1.12,0.89,1.04,0.1,0.44,-1,-0,-3,1.04,7646,8,89,43,28,894,404.0,562,473,60,120.0,113,1,276,160,46,0,0,610,1504,2524,400,882.05,,,,,,,,,,,,
114224,1563730166642,-1,2.29,0.77,0.43,1.13,0.89,1.08,0.04,0.45,-2,0,-4,1.08,7643,8,89,43,29,895,402.0,590,469,60,119.0,113,1,279,160,46,0,0,610,11545,-8151,398,882.05,,,,,,,,,,,,
114244,1563730166662,-2,2.28,0.77,0.43,1.13,0.89,1.13,0.01,0.5,-3,0,-3,1.13,7606,8,89,43,29,896,399.0,575,471,60,120.0,113,1,279,161,46,0,0,610,6384,2524,398,882.05,45.748211,4.906597,41.26,180.7,0,0.0,-1,0.0,0.0,0,0.54,1.9041
114264,1563730166682,-1,2.28,0.76,0.43,1.13,0.89,1.14,0.07,0.44,-2,1,-3,1.14,7566,8,89,43,29,895,399.0,587,471,60,119.0,116,1,279,161,46,0,0,610,6384,28696,397,882.05,,,,,,,,,,,,
114284,1563730166702,-1,2.29,0.76,0.44,1.12,0.89,1.14,0.11,0.4,-2,0,-4,1.15,7569,9,89,43,29,893,397.0,594,470,60,119.0,116,1,279,161,46,0,0,610,-3968,11545,396,882.05,,,,,,,,,,,,
114304,1563730166722,0,2.28,0.76,0.43,1.13,0.89,1.14,0.13,0.43,-3,-1,-4,1.14,7521,9,89,43,29,892,396.0,589,472,60,119.0,116,1,279,161,46,0,0,610,-32702,1504,393,882.05,,,,,,,,,,,,
114324,1563730166742,-1,2.29,0.76,0.43,1.12,0.88,1.11,0.2,0.41,-3,-1,-4,1.13,7512,8,89,43,30,891,394.0,593,470,60,119.0,116,1,282,163,46,0,0,610,-1818,1504,394,882.05,,,,,,,,,,,,
114344,1563730166762,0,2.28,0.77,0.43,1.13,0.88,1.08,0.26,0.37,-2,-0,-4,1.11,7479,8,89,43,30,892,392.0,592,471,60,119.0,116,1,282,163,46,0,0,16,1,10541,389,882.05,45.748203,4.906595,40.22,181.1,0,0.0,-1,0.0,0.0,0,0.55,1.9057
114364,1563730166782,-1,2.29,0.76,0.44,1.12,0.89,1.13,0.27,0.33,-2,-2,-4,1.17,7461,9,89,43,30,893,392.0,583,468,60,118.0,117,1,282,163,46,0,0,933,1,11545,388,882.05,,,,,,,,,,,,
114384,1563730166800,-1,2.28,0.77,0.43,1.13,0.89,1.19,0.29,0.41,-3,-3,-4,1.22,7440,9,89,43,30,895,390.0,568,469,60,120.0,117,1,282,163,46,0,0,933,-6524,6512,390,882.05,,,,,,,,,,,,
114404,1563730166820,-1,2.29,0.77,0.43,1.13,0.89,1.24,0.23,0.46,-3,-3,-4,1.26,7370,9,89,43,30,897,390.0,557,471,60,120.0,117,1,282,163,46,0,0,933,-1562,-1818,387,882.05,,,,,,,,,,,,
114424,1563730166840,-2,2.29,0.76,0.43,1.12,0.89,1.31,0.19,0.51,-3,-2,-4,1.33,7376,9,89,43,31,902,389.0,567,470,60,120.0,117,1,286,163,46,0,0,933,-6524,-1818,386,882.05,,,,,,,,,,,,
114444,1563730166860,2,2.29,0.77,0.43,1.13,0.89,1.33,0.16,0.6,-4,-2,-3,1.34,7315,9,89,43,31,905,387.0,551,469,60,120.0,117,1,286,163,46,0,0,933,240,240,385,882.05,45.748188,4.906594,38.95,181.3,0,0.0,-1,0.0,0.0,0,0.55,1.9074
114464,1563730166880,2,2.28,0.77,0.43,1.12,0.89,1.31,0.1,0.56,-3,-1,-3,1.32,7335,9,89,43,30,906,386.0,562,470,60,120.0,117,1,282,164,45,0,0,22,-3866,-6656,383,648.46,,,,,,,,,,,,
114484,1563730166899,0,2.3,0.77,0.44,1.12,0.89,1.19,0.08,0.52,-2,0,-4,1.19,7273,8,89,43,31,907,383.0,565,470,60,120.0,117,1,286,164,45,0,0,390,-19126,505,381,414.87,,,,,,,,,,,,
114504,1563730166919,1,2.28,0.76,0.43,1.13,0.89,1.09,0.12,0.45,-2,1,-3,1.09,7275,8,89,43,31,913,383.0,561,472,60,120.0,117,1,286,164,45,0,0,385,-19126,-1818,382,414.87,,,,,,,,,,,,
114524,1563730166939,-1,2.29,0.76,0.44,1.12,0.89,1.02,0.17,0.41,-2,-0,-4,1.04,7231,9,89,43,32,917,383.0,571,468,60,119.0,117,1,290,166,45,0,0,388,19125,505,381,882.05,,,,,,,,,,,,
114544,1563730166959,-1,2.29,0.77,0.43,1.12,0.89,1.06,0.1,0.51,-2,-2,-5,1.07,7217,9,89,43,32,921,381.0,557,469,60,119.0,117,1,290,166,45,0,0,389,8200,19125,378,882.05,45.74818,4.906593,38.62,181.7,0,0.0,-1,0.0,0.0,0,0.55,1.9091
114564,1563730166979,2,2.28,0.76,0.43,1.13,0.89,1.16,0.03,0.54,-3,-2,-3,1.16,7244,9,89,43,32,925,377.0,559,468,60,120.0,119,1,290,166,45,0,0,387,-6656,-19019,377,882.05,,,,,,,,,,,,
114584,1563730166991,2,2.29,0.77,0.43,1.12,0.89,1.14,0.01,0.56,-2,-1,-3,1.14,7205,9,89,43,31,932,378.0,554,469,60,120.0,119,1,286,166,45,0,0,382,3,19125,378,648.46,,,,,,,,,,,,
114604,1563730167011,1,2.29,0.77,0.43,1.12,0.89,1.03,0.07,0.5,-1,-0,-2,1.03,7211,8,89,43,32,939,376.0,552,470,60,120.0,119,1,290,166,45,0,0,382,3,-6475,375,414.87,,,,,,,,,,,,
114624,1563730167031,-2,2.3,0.76,0.44,1.12,0.89,0.94,0.17,0.4,-1,-1,-2,0.96,7129,9,89,43,32,943,376.0,553,470,60,119.0,119,1,290,166,45,0,0,382,3,-19019,374,414.87,,,,,,,,,,,,
114644,1563730167051,1,2.29,0.76,0.44,1.12,0.9,1.0,0.15,0.48,-2,-4,-3,1.01,7102,9,89,43,33,947,374.0,552,470,60,120.0,119,1,292,166,45,0,0,382,-6656,-19126,374,882.05,45.748165,4.906592,38.7,182.0,0,0.0,-1,0.0,0.0,0,0.55,1.9107
114664,1563730167071,2,2.3,0.77,0.44,1.12,0.89,1.03,0.1,0.46,-2,-4,-2,1.03,7107,9,89,43,32,951,374.0,542,468,60,120.0,123,1,290,166,46,0,0,3873,-6656,-992,374,414.87,,,,,,,,,,,,
114684,1563730167093,0,2.3,0.77,0.43,1.13,0.89,0.95,0.07,0.41,-1,-3,-3,0.95,7067,9,89,43,33,957,371.0,542,467,60,120.0,123,1,292,171,46,0,0,3873,486,-6656,371,414.87,,,,,,,,,,,,
114704,1563730167113,-1,2.3,0.77,0.43,1.13,0.89,0.95,0.06,0.49,-1,-3,-2,0.96,7072,9,89,43,33,958,371.0,551,470,60,118.0,123,1,292,171,46,0,0,3873,0,-6656,370,882.05,,,,,,,,,,,,
114724,1563730167133,2,2.3,0.76,0.43,1.13,0.89,1.02,0.01,0.58,-2,-3,-2,1.02,7046,9,89,43,33,959,368.0,543,469,60,120.0,123,1,292,171,46,0,0,3873,0,-6656,368,882.05,,,,,,,,,,,,
114744,1563730167153,0,2.3,0.77,0.43,1.12,0.89,1.04,0.0,0.49,-1,-2,-1,1.04,7006,9,89,43,33,959,370.0,542,468,60,119.0,123,1,292,171,46,0,0,3873,0,3,370,414.87,45.748158,4.906592,37.94,182.3,0,0.0,-1,0.0,0.0,0,0.55,1.9124
114764,1563730167173,-1,2.3,0.77,0.44,1.13,0.89,0.99,0.04,0.45,-1,-3,-1,0.99,6996,9,89,43,34,959,368.0,540,468,60,119.0,122,1,295,176,45,0,0,367,0,8200,365,414.87,,,,,,,,,,,,
114784,1563730167201,0,2.31,0.77,0.44,1.13,0.89,1.07,-0.02,0.49,-2,-3,-1,1.07,6998,9,89,43,34,959,365.0,529,468,60,120.0,122,1,295,176,45,0,0,370,-6405,257,364,648.46,,,,,,,,,,,,
114804,1563730167221,-1,2.31,0.77,0.43,1.13,0.89,0.99,-0.05,0.37,-1,-3,-1,0.99,6941,9,89,43,34,958,366.0,526,468,60,121.0,122,1,295,176,45,0,0,371,-1268,1,366,414.87,,,,,,,,,,,,
114824,1563730167241,-1,2.31,0.77,0.44,1.12,0.89,1.0,-0.03,0.45,-1,-4,-1,1.0,6954,10,89,43,34,958,364.0,543,470,60,120.0,122,1,295,176,45,0,0,371,-1268,-6656,363,882.05,,,,,,,,,,,,
114844,1563730167261,1,2.31,0.76,0.44,1.13,0.9,1.07,-0.11,0.55,-1,-4,-1,1.08,6939,10,89,43,34,959,362.0,528,470,60,120.0,122,1,295,176,45,0,0,370,2790,486,362,648.46,45.748146,4.906591,37.79,182.4,0,0.0,-1,0.0,0.0,0,0.55,1.9141
114864,1563730167281,-1,2.31,0.77,0.44,1.13,0.9,1.02,-0.07,0.47,-0,-2,-1,1.02,6880,10,89,43,34,960,362.0,536,468,60,119.0,129,1,295,182,47,0,0,367,-6458,0,362,414.87,,,,,,,,,,,,
114884,1563730167301,1,2.32,0.77,0.44,1.12,0.9,1.02,-0.05,0.6,-1,-4,-1,1.02,6863,10,89,43,35,961,360.0,530,465,60,120.0,129,1,298,182,47,0,0,370,-14707,230,358,648.46,,,,,,,,,,,,
114904,1563730167321,-2,2.31,0.77,0.43,1.12,0.9,1.03,-0.05,0.46,-0,-1,-2,1.03,6873,10,89,43,35,962,359.0,526,470,60,121.0,129,1,298,182,47,0,0,367,-29302,0,359,648.46,,,,,,,,,,,,
114924,1563730167341,3,2.31,0.77,0.43,1.13,0.89,0.97,-0.01,0.53,-0,-2,-2,0.97,6855,10,89,43,35,962,359.0,531,472,60,120.0,129,1,298,182,47,0,0,368,-29302,-1268,358,1115.64,,,,,,,,,,,,
114944,1563730167361,-1,2.31,0.77,0.43,1.13,0.88,0.99,-0.04,0.49,-0,-2,-1,0.99,6825,8,89,43,35,961,359.0,508,466,60,121.0,129,1,298,187,47,0,0,363,-29302,3082,356,648.46,45.748135,4.90659,37.71,182.8,0,0.0,-1,0.0,0.0,0,0.55,1.9157
114964,1563730167381,-1,2.32,0.76,0.43,1.12,0.89,0.93,-0.0,0.45,-0,-2,-1,0.93,6823,10,89,43,36,960,356.0,528,467,60,118.0,135,1,301,187,48,0,0,365,4104,0,355,414.87,,,,,,,,,,,,
114984,1563730167401,0,2.33,0.77,0.43,1.13,0.89,1.03,-0.03,0.47,-0,-1,1,1.03,6798,10,89,43,36,958,356.0,517,468,60,120.0,135,1,301,187,48,0,0,364,4104,0,354,414.87,,,,,,,,,,,,
115004,1563730167421,-2,2.33,0.77,0.43,1.13,0.89,0.9,0.03,0.43,1,0,0,0.91,6781,10,89,43,36,953,354.0,526,468,60,119.0,135,1,304,193,48,0,0,364,-6644,2790,352,414.87,,,,,,,,,,,,
115024,1563730167441,1,2.32,0.78,0.43,1.13,0.89,1.0,-0.0,0.55,-0,-2,1,1.0,6759,11,89,43,36,952,354.0,516,467,60,120.0,135,1,301,187,48,0,0,363,28553,2790,354,648.46,,,,,,,,,,,,
115044,1563730167461,-1,2.32,0.77,0.43,1.14,0.9,0.9,0.01,0.43,1,-0,0,0.9,6773,10,89,43,37,950,351.0,529,475,60,120.0,135,1,304,193,48,0,0,407,28553,-14707,351,414.87,45.748127,4.90659,37.36,183.1,0,0.0,-1,0.0,0.0,0,0.55,1.9174
115064,1563730167481,1,2.34,0.76,0.44,1.13,0.9,0.97,-0.02,0.5,0,-1,1,0.97,6756,10,89,43,37,948,351.0,520,471,60,120.0,139,1,304,193,49,0,0,407,2811,-29302,353,648.46,,,,,,,,,,,,
115084,1563730167499,-1,2.34,0.77,0.43,1.13,0.89,0.91,0.0,0.5,1,-2,-0,0.91,6694,10,89,43,37,943,353.0,521,467,60,118.0,139,1,304,193,49,0,0,16393,2811,-29302,353,414.87,,,,,,,,,,,,
115104,1563730167519,1,2.33,0.77,0.43,1.13,0.89,0.95,-0.03,0.61,1,-4,-0,0.95,6701,10,89,43,37,941,352.0,514,468,60,120.0,139,1,304,193,49,0,0,16393,-30454,2790,352,648.46,,,,,,,,,,,,
115124,1563730167539,2,2.34,0.77,0.44,1.13,0.9,0.89,-0.04,0.61,1,-4,-0,0.89,6698,11,89,43,38,939,352.0,523,471,60,119.0,139,1,307,199,49,0,0,16393,-1246,-29978,352,414.87,,,,,,,,,,,,
115144,1563730167559,-1,2.35,0.77,0.43,1.14,0.9,0.94,-0.04,0.6,1,-3,-0,0.94,6691,10,89,43,38,935,352.0,515,470,60,120.0,139,1,307,199,49,0,0,16393,-30438,-29978,352,648.46,45.748112,4.906591,36.76,183.5,0,0.0,-1,0.0,0.0,0,0.55,1.9191
115164,1563730167579,2,2.35,0.77,0.44,1.13,0.89,0.85,-0.0,0.67,2,-2,0,0.85,6651,8,89,43,38,928,351.0,528,472,60,119.0,143,1,307,199,50,0,0,16393,-30438,-6640,351,882.05,,,,,,,,,,,,
115184,1563730167597,-1,2.34,0.78,0.44,1.13,0.89,0.93,-0.03,0.61,2,1,0,0.93,6632,11,89,43,38,923,349.0,521,467,60,120.0,143,1,307,199,50,0,0,16393,6870,2060,349,414.87,,,,,,,,,,,,
115204,1563730167617,2,2.34,0.77,0.43,1.14,0.9,0.95,-0.07,0.75,2,-2,0,0.95,6625,10,89,43,38,917,350.0,513,468,60,119.0,143,1,307,199,50,0,0,16393,-10554,3302,350,882.05,,,,,,,,,,,,
115224,1563730167637,-1,2.34,0.77,0.44,1.13,0.9,0.94,-0.05,0.52,2,-1,0,0.94,6625,9,89,43,39,911,346.0,509,467,60,119.0,143,1,310,204,50,0,0,18,-14714,-6640,346,414.87,,,,,,,,,,,,
115244,1563730167657,1,2.35,0.77,0.44,1.13,0.9,1.0,-0.07,0.56,2,-2,1,1.0,6623,11,89,43,39,903,347.0,506,473,60,121.0,143,1,310,204,50,0,0,347,-31206,-29978,347,882.05,45.748104,4.906591,36.4,183.7,0,0.0,-1,0.0,0.0,0,0.55,1.9207
115264,1563730167677,1,2.36,0.77,0.44,1.14,0.89,0.91,-0.07,0.58,2,-1,1,0.91,6592,11,89,43,39,894,345.0,516,472,60,120.0,146,1,310,204,51,0,0,347,-14714,3302,345,414.87,,,,,,,,,,,,
115284,1563730167699,-2,2.36,0.78,0.43,1.13,0.9,0.93,-0.09,0.55,2,-2,2,0.94,6583,11,89,43,39,891,344.0,507,467,60,120.0,146,1,310,204,51,0,0,351,-14714,2060,344,648.46,,,,,,,,,,,,
115304,1563730167719,2,2.36,0.77,0.44,1.13,0.89,0.9,-0.09,0.69,2,-4,1,0.9,6569,11,89,43,40,889,345.0,496,469,60,120.0,146,1,316,204,51,0,0,347,-31206,3183,345,882.05,,,,,,,,,,,,
115324,1563730167739,-1,2.35,0.78,0.44,1.13,0.9,0.93,-0.09,0.59,2,-1,2,0.93,6595,10,89,43,40,886,345.0,512,473,60,120.0,146,1,316,205,51,0,0,348,-31206,-30454,345,414.87,,,,,,,,,,,,
115344,1563730167759,0,2.35,0.78,0.44,1.13,0.9,0.94,-0.13,0.66,1,-0,3,0.95,6604,9,89,43,40,886,341.0,505,467,60,120.0,146,1,317,205,51,0,0,347,-31222,2811,341,648.46,45.748093,4.906591,35.99,184.0,0,0.0,-1,0.0,0.0,0,0.56,1.9224
115364,1563730167779,2,2.34,0.77,0.44,1.14,0.9,0.83,-0.09,0.7,2,2,3,0.83,6599,9,89,43,40,886,343.0,516,473,60,120.0,149,1,316,205,51,0,0,349,-31222,-30454,344,882.05,,,,,,,,,,,,
115384,1563730167799,-2,2.35,0.78,0.44,1.14,0.9,0.86,-0.08,0.59,2,4,4,0.87,6574,10,89,43,40,888,342.0,502,468,60,120.0,149,1,316,205,51,0,0,1309,2560,2811,342,414.87,,,,,,,,,,,,
115404,1563730167819,-1,2.35,0.77,0.44,1.14,0.9,0.83,-0.09,0.66,2,-1,3,0.84,6574,9,89,43,40,890,341.0,503,468,60,120.0,149,1,316,205,51,0,0,1309,13,-30454,341,882.05,,,,,,,,,,,,
115424,1563730167839,-1,2.34,0.77,0.44,1.13,0.89,0.77,-0.07,0.45,4,0,2,0.77,6585,12,89,43,41,891,340.0,515,474,60,118.0,149,1,323,207,51,0,0,1309,3346,-1246,340,1115.64,,,,,,,,,,,,
115444,1563730167859,-1,2.34,0.78,0.44,1.14,0.9,0.89,-0.07,0.4,3,2,2,0.9,6583,11,89,43,40,894,336.0,507,469,60,120.0,149,1,316,207,51,0,0,1309,13,2811,336,414.87,45.748085,4.90659,35.29,184.2,0,0.0,-1,0.0,0.0,0,0.56,1.9241
115464,1563730167879,1,2.34,0.77,0.44,1.14,0.9,0.83,-0.08,0.45,3,3,5,0.83,6581,12,89,43,41,895,340.0,517,472,60,119.0,150,1,323,207,51,0,0,1309,13,8841,340,882.05,,,,,,,,,,,,
115484,1563730167900,-1,2.34,0.78,0.44,1.13,0.9,0.83,-0.09,0.35,3,3,4,0.84,6544,12,89,43,41,896,339.0,517,469,60,119.0,150,1,323,207,51,0,0,1309,13,-30454,339,414.87,,,,,,,,,,,,
115504,1563730167920,-0,2.35,0.78,0.44,1.14,0.9,0.87,-0.07,0.47,3,-0,4,0.87,6539,12,89,43,41,898,338.0,507,471,60,120.0,150,1,323,207,51,0,0,355,13,-30454,338,882.05,,,,,,,,,,,,
115524,1563730167940,2,2.34,0.78,0.44,1.14,0.89,0.82,-0.03,0.43,4,0,3,0.82,6542,8,89,43,41,897,333.0,519,470,60,119.0,150,1,323,207,51,0,0,355,-6528,-30438,333,414.87,,,,,,,,,,,,
115544,1563730167960,-2,2.34,0.78,0.44,1.15,0.91,0.94,0.0,0.37,3,2,4,0.94,6528,12,89,43,41,898,337.0,502,467,60,119.0,150,1,323,207,51,0,0,355,-32559,-14714,337,414.87,45.748074,4.906591,35.39,184.6,0,0.0,-1,0.0,0.0,0,0.56,1.9257
115564,1563730167980,1,2.34,0.78,0.44,1.15,0.9,0.87,-0.02,0.48,3,2,4,0.87,6535,12,89,43,42,899,336.0,508,470,60,119.0,151,1,330,207,51,0,0,355,-6528,-10554,336,882.05,,,,,,,,,,,,
115584,1563730167992,2,2.34,0.78,0.44,1.13,0.91,0.72,0.03,0.44,4,4,4,0.72,6494,13,89,43,42,900,333.0,508,471,60,118.0,151,1,330,208,51,0,0,335,-12032,-10554,335,414.87,,,,,,,,,,,,
115604,1563730168012,-0,2.34,0.78,0.44,1.14,0.91,0.79,-0.01,0.48,5,3,2,0.79,6505,13,89,43,42,902,334.0,491,466,60,121.0,151,1,330,208,51,0,0,340,175,-10554,334,414.87,,,,,,,,,,,,
115624,1563730168032,1,2.34,0.77,0.44,1.14,0.9,0.79,-0.02,0.62,4,-1,3,0.79,6514,13,89,43,42,903,334.0,497,470,60,120.0,151,1,330,208,51,0,0,336,-12032,-31206,335,882.05,,,,,,,,,,,,
115644,1563730168052,1,2.34,0.78,0.44,1.14,0.91,0.72,-0.03,0.52,4,1,3,0.72,6546,13,89,43,42,905,332.0,506,474,60,119.0,151,1,330,208,51,0,0,340,175,3327,332,882.05,45.748066,4.906591,34.71,185.0,0,0.0,-1,0.0,0.0,0,0.56,1.9274
115664,1563730168072,-2,2.35,0.78,0.44,1.15,0.9,0.85,-0.02,0.46,4,2,3,0.85,6572,13,89,43,42,910,334.0,501,470,60,121.0,152,1,330,208,51,0,0,340,-12032,-31206,334,648.46,,,,,,,,,,,,
115684,1563730168096,1,2.34,0.78,0.44,1.14,0.9,0.74,-0.01,0.48,4,1,2,0.74,6558,12,89,43,42,912,330.0,513,473,60,119.0,152,1,330,208,51,0,0,335,-20736,3327,330,882.05,,,,,,,,,,,,
115704,1563730168116,-1,2.35,0.78,0.44,1.14,0.9,0.79,0.02,0.48,5,1,2,0.79,6560,12,89,43,42,913,330.0,512,470,60,118.0,152,1,330,208,51,0,0,338,-22016,-122,330,414.87,,,,,,,,,,,,
115724,1563730168136,0,2.34,0.78,0.45,1.14,0.91,0.86,0.02,0.59,4,-2,2,0.86,6544,13,89,43,42,915,330.0,497,468,60,121.0,152,1,330,208,51,0,0,338,165,-31222,330,648.46,,,,,,,,,,,,
115744,1563730168156,2,2.34,0.78,0.44,1.14,0.91,0.73,0.02,0.58,4,-1,2,0.74,6560,13,89,43,42,914,331.0,507,467,60,120.0,152,1,330,208,51,0,0,335,165,-122,331,882.05,45.748054,4.906591,33.88,185.4,0,0.0,-1,0.0,0.0,0,0.56,1.9291
115764,1563730168176,-2,2.33,0.79,0.44,1.14,0.9,0.86,0.01,0.48,4,0,4,0.86,6499,13,89,43,42,913,329.0,510,472,60,121.0,154,1,330,208,51,0,0,285,170,-31206,329,414.87,,,,,,,,,,,,
115784,1563730168200,-1,2.34,0.78,0.45,1.14,0.91,0.92,0.03,0.59,3,-1,4,0.92,6430,11,89,43,43,911,331.0,509,471,60,120.0,154,1,337,208,51,0,0,285,170,-10554,331,648.46,,,,,,,,,,,,
115804,1563730168220,1,2.34,0.78,0.44,1.14,0.91,0.8,-0.03,0.7,3,-2,5,0.8,6330,9,89,43,43,911,333.0,505,473,60,119.0,154,1,336,209,51,0,0,285,-20736,-31206,333,882.05,,,,,,,,,,,,
115824,1563730168240,1,2.35,0.78,0.44,1.14,0.91,0.65,-0.06,0.77,3,0,5,0.65,6254,13,89,43,43,912,334.0,497,470,60,119.0,154,1,336,210,51,0,0,285,-20736,3327,334,414.87,,,,,,,,,,,,
115844,1563730168260,1,2.34,0.78,0.44,1.14,0.91,0.6,-0.04,0.79,4,2,5,0.6,6216,13,89,43,44,914,331.0,484,468,60,120.0,154,1,342,210,51,0,0,285,170,2560,331,414.87,45.748047,4.90659,34.07,185.8,0,0.0,-1,0.0,0.0,0,0.56,1.9307
115864,1563730168280,-1,2.35,0.78,0.45,1.14,0.91,0.71,-0.04,0.71,4,3,5,0.71,6220,13,89,43,44,918,329.0,467,470,60,120.0,147,1,342,210,49,0,0,285,170,3327,329,414.87,,,,,,,,,,,,
115884,1563730168300,-2,2.34,0.78,0.45,1.14,0.91,0.84,-0.04,0.66,4,4,6,0.84,6223,13,89,43,44,924,331.0,470,467,60,120.0,147,1,342,210,49,0,0,285,-23296,6668,331,648.46,,,,,,,,,,,,
115904,1563730168320,-1,2.34,0.78,0.45,1.15,0.9,0.96,-0.02,0.72,3,2,6,0.96,6241,13,89,43,44,928,332.0,470,472,60,119.0,147,1,342,210,49,0,0,18,165,4838,332,648.46,,,,,,,,,,,,
115924,1563730168340,0,2.35,0.78,0.44,1.15,0.9,0.86,-0.01,0.69,3,1,6,0.86,6258,13,89,43,45,932,330.0,472,470,60,119.0,147,1,349,210,49,0,0,18,-23296,3346,330,882.05,,,,,,,,,,,,
115944,1563730168360,2,2.34,0.78,0.45,1.14,0.91,0.71,-0.03,0.67,4,2,6,0.71,6323,13,89,43,45,934,331.0,478,468,60,119.0,147,1,349,212,49,0,0,18,-24576,-31222,331,414.87,45.748032,4.906589,34.15,186.1,0,0.0,-1,0.0,0.0,0,0.56,1.9324
115964,1563730168380,2,2.34,0.78,0.44,1.15,0.9,0.74,-0.03,0.51,4,4,7,0.74,6328,13,89,43,44,936,329.0,476,467,60,120.0,151,1,343,212,50,0,0,18,160,2560,329,414.87,,,,,,,,,,,,
115984,1563730168400,-2,2.34,0.78,0.45,1.14,0.9,0.86,-0.06,0.4,4,4,7,0.86,6325,13,89,43,45,934,329.0,484,471,60,120.0,151,1,349,212,50,0,0,18,160,2560,329,648.46,,,,,,,,,,,,
116004,1563730168420,-2,2.33,0.78,0.44,1.15,0.91,0.88,-0.0,0.43,3,3,7,0.88,6330,13,89,43,45,931,329.0,486,473,60,120.0,151,1,349,212,50,0,0,18,160,13,329,648.46,,,,,,,,,,,,
116024,1563730168440,2,2.34,0.78,0.44,1.15,0.9,0.75,-0.04,0.44,3,2,6,0.75,6319,13,89,43,45,927,327.0,490,474,60,119.0,151,1,349,212,50,0,0,18,-24576,2560,328,882.05,,,,,,,,,,,,
116044,1563730168460,1,2.34,0.78,0.44,1.14,0.91,0.69,-0.02,0.46,3,3,6,0.69,6308,13,89,43,45,922,327.0,489,471,60,120.0,151,1,349,212,50,0,0,18,160,2560,327,414.87,45.748024,4.906588,34.0,186.5,0,0.0,-1,0.0,0.0,0,0.56,1.9341
116064,1563730168480,-1,2.34,0.78,0.44,1.15,0.91,0.72,-0.02,0.4,4,3,4,0.72,6306,13,89,43,45,919,326.0,489,467,60,119.0,152,1,349,212,50,0,0,326,-24576,4838,325,414.87,,,,,,,,,,,,
116084,1563730168500,-1,2.34,0.77,0.44,1.15,0.91,0.79,0.01,0.47,3,0,4,0.79,6308,13,89,43,44,914,327.0,471,463,60,120.0,152,1,343,210,50,0,0,331,155,4838,327,648.46,,,,,,,,,,,,
116104,1563730168520,-1,2.35,0.78,0.44,1.15,0.91,0.78,0.01,0.56,2,-3,3,0.78,6289,13,89,43,45,911,326.0,475,468,60,121.0,152,1,349,212,50,0,0,334,155,3346,326,648.46,,,,,,,,,,,,
116124,1563730168540,-1,2.35,0.78,0.44,1.14,0.9,0.68,-0.05,0.58,2,-3,3,0.68,6266,13,89,43,45,909,327.0,493,475,60,119.0,152,1,349,212,50,0,0,336,155,2560,327,882.05,,,,,,,,,,,,
116144,1563730168560,2,2.34,0.78,0.44,1.15,0.9,0.57,-0.05,0.6,3,-2,3,0.57,6256,13,89,43,45,910,327.0,487,468,60,119.0,152,1,349,212,50,0,0,333,-25856,-31222,327,414.87,45.748016,4.906587,33.67,186.7,0,0.0,-1,0.0,0.0,0,0.56,1.9357
116164,1563730168580,1,2.35,0.78,0.44,1.14,0.91,0.57,-0.06,0.54,4,1,2,0.57,6241,13,89,43,45,912,327.0,482,468,60,119.0,153,1,349,212,50,0,0,335,-24576,13,327,414.87,,,,,,,,,,,,
116184,1563730168600,-2,2.35,0.78,0.44,1.14,0.9,0.71,-0.06,0.52,4,2,3,0.71,6250,13,89,43,45,915,326.0,471,466,60,121.0,153,1,349,212,50,0,0,334,-23296,2560,326,414.87,,,,,,,,,,,,
116204,1563730168620,-2,2.35,0.77,0.44,1.14,0.9,0.83,-0.01,0.56,4,2,3,0.83,6254,13,89,43,45,918,327.0,472,468,60,120.0,153,1,349,212,50,0,0,336,155,-122,327,648.46,,,,,,,,,,,,
116224,1563730168640,-0,2.35,0.77,0.43,1.14,0.9,0.82,0.03,0.62,3,0,3,0.83,6260,13,89,43,45,922,327.0,471,470,60,120.0,153,1,349,212,50,0,0,333,-24576,4838,327,882.05,,,,,,,,,,,,
116244,1563730168660,1,2.35,0.77,0.44,1.13,0.9,0.72,-0.03,0.71,3,-1,4,0.72,6266,11,89,43,45,927,324.0,475,471,60,120.0,153,1,349,212,50,0,0,333,-24576,-6528,324,882.05,45.748009,4.906585,33.62,187.0,0,0.0,-1,0.0,0.0,0,0.56,1.9374
116264,1563730168680,1,2.37,0.78,0.44,1.14,0.9,0.59,-0.12,0.74,3,1,4,0.6,6245,13,89,43,45,929,326.0,485,472,60,118.0,153,1,349,212,50,0,0,333,160,-6528,326,414.87,,,,,,,,,,,,
116284,1563730168700,2,2.36,0.78,0.44,1.13,0.9,0.57,-0.03,0.64,4,4,5,0.57,6233,13,89,43,45,930,326.0,483,466,60,120.0,153,1,349,212,50,0,0,333,155,13,326,414.87,,,,,,,,,,,,
116304,1563730168720,-1,2.36,0.78,0.44,1.14,0.9,0.66,-0.02,0.55,4,5,5,0.66,6229,13,89,43,45,933,325.0,472,468,60,121.0,153,1,349,212,50,0,0,333,-25856,4838,325,414.87,,,,,,,,,,,,
116324,1563730168740,-1,2.36,0.78,0.44,1.13,0.9,0.76,-0.01,0.54,4,2,5,0.76,6231,13,89,43,45,934,326.0,472,470,60,120.0,153,1,349,212,50,0,0,326,-25856,4838,326,648.46,,,,,,,,,,,,
116344,1563730168760,-1,2.36,0.78,0.44,1.14,0.9,0.84,0.01,0.57,3,-1,5,0.84,6220,12,89,43,46,934,326.0,476,471,60,120.0,153,1,355,212,50,0,0,332,-25856,4838,326,882.05,45.747997,4.906583,33.26,187.3,0,0.0,-1,0.0,0.0,0,0.57,1.9391
116364,1563730168780,-0,2.36,0.77,0.44,1.14,0.9,0.79,-0.01,0.57,3,-2,6,0.79,6204,12,89,43,46,934,327.0,485,471,60,120.0,152,1,355,212,50,0,0,330,-24576,-6528,326,882.05,,,,,,,,,,,,
116384,1563730168802,0,2.36,0.78,0.44,1.13,0.9,0.69,-0.05,0.54,4,-1,7,0.69,6229,12,89,43,46,933,328.0,489,471,60,118.0,152,1,355,213,50,0,0,328,150,3346,328,882.05,,,,,,,,,,,,
116404,1563730168822,1,2.38,0.77,0.44,1.14,0.9,0.68,-0.05,0.53,5,-1,6,0.68,6204,12,89,43,46,933,329.0,494,472,60,119.0,152,1,355,213,50,0,0,335,-27136,13,329,414.87,,,,,,,,,,,,
116424,1563730168842,2,2.37,0.78,0.44,1.14,0.9,0.69,-0.06,0.42,6,-2,6,0.69,6218,12,89,43,45,933,327.0,481,468,60,120.0,152,1,349,213,50,0,0,330,-25856,-12032,327,414.87,,,,,,,,,,,,
116444,1563730168862,-1,2.37,0.78,0.44,1.14,0.91,0.78,-0.04,0.29,6,-1,6,0.78,6223,12,89,43,45,932,328.0,472,467,60,121.0,152,1,349,212,50,0,0,329,150,-31222,328,414.87,45.747986,4.906581,32.77,187.5,0,0.0,-1,0.0,0.0,0,0.57,1.9407
116464,1563730168882,-2,2.37,0.78,0.44,1.14,0.9,0.84,0.04,0.26,6,-1,6,0.84,6231,12,89,43,46,932,327.0,479,467,60,121.0,152,1,355,213,50,0,0,329,145,2560,327,414.87,,,,,,,,,,,,
116484,1563730168899,-2,2.38,0.78,0.44,1.14,0.91,0.83,0.09,0.25,5,-1,7,0.83,6229,12,89,43,46,933,324.0,477,470,60,121.0,152,1,355,213,50,0,0,329,145,4838,324,648.46,,,,,,,,,,,,
116504,1563730168919,0,2.37,0.78,0.44,1.14,0.9,0.73,0.08,0.34,5,-2,6,0.74,6243,12,89,43,46,934,325.0,488,472,60,120.0,152,1,355,213,50,0,0,329,-28416,4838,325,882.05,,,,,,,,,,,,
116524,1563730168939,1,2.36,0.78,0.44,1.15,0.91,0.63,0.04,0.39,5,-2,6,0.63,6220,12,89,43,46,935,324.0,484,473,60,118.0,152,1,355,213,50,0,0,33,145,-6528,325,648.46,,,,,,,,,,,,
116544,1563730168959,1,2.37,0.78,0.44,1.15,0.9,0.56,0.01,0.39,6,-1,4,0.56,6188,12,89,43,46,934,325.0,478,467,60,120.0,152,1,354,212,50,0,0,324,-25856,3346,325,414.87,45.747978,4.90658,33.0,187.8,0,0.0,-1,0.0,0.0,0,0.57,1.9424
116564,1563730168979,1,2.37,0.78,0.44,1.14,0.91,0.65,0.04,0.36,6,-1,4,0.65,6188,12,89,43,45,933,324.0,471,466,60,120.0,150,1,348,212,49,0,0,322,-27136,3346,325,414.87,,,,,,,,,,,,
116584,1563730168991,-0,2.36,0.79,0.44,1.15,0.91,0.78,0.02,0.38,5,-4,3,0.78,6179,12,89,43,45,933,324.0,475,464,60,120.0,150,1,348,212,49,0,0,327,-27136,-6528,324,414.87,,,,,,,,,,,,
116604,1563730169011,-1,2.36,0.77,0.44,1.14,0.91,0.89,0.05,0.38,5,-6,4,0.89,6181,12,89,43,46,932,325.0,476,468,60,120.0,150,1,354,212,49,0,0,326,150,-32559,324,648.46,,,,,,,,,,,,
116624,1563730169031,-2,2.36,0.78,0.44,1.14,0.91,0.95,0.05,0.47,4,-10,5,0.95,6175,11,89,43,46,931,325.0,467,471,60,120.0,150,1,354,212,49,0,0,329,-28416,2560,325,648.46,,,,,,,,,,,,
116644,1563730169051,-1,2.34,0.78,0.45,1.14,0.91,0.91,0.03,0.53,4,-13,5,0.91,6169,12,89,43,46,930,324.0,472,471,60,120.0,150,1,354,212,49,0,0,329,-27136,3346,324,882.05,45.747967,4.906577,32.96,188.1,0,0.0,-1,0.0,0.0,0,0.57,1.9441
116664,1563730169071,1,2.33,0.78,0.45,1.15,0.91,0.79,-0.02,0.57,4,-13,5,0.79,6196,12,89,43,46,929,325.0,475,473,60,119.0,150,1,354,212,49,0,0,327,145,2560,325,882.05,,,,,,,,,,,,
116684,1563730169099,1,2.33,0.78,0.45,1.14,0.91,0.68,-0.04,0.65,4,-10,6,0.68,6188,12,89,43,46,928,325.0,481,472,60,119.0,150,1,354,212,49,0,0,330,-27136,-6528,326,414.87,,,,,,,,,,,,
116704,1563730169119,2,2.31,0.78,0.44,1.15,0.91,0.62,-0.02,0.61,4,-6,7,0.62,6196,12,89,43,46,927,324.0,483,471,60,119.0,150,1,354,212,49,0,0,333,-27136,-32559,324,1115.64,,,,,,,,,,,,
116724,1563730169139,1,2.32,0.78,0.44,1.15,0.91,0.65,-0.04,0.56,5,-3,6,0.65,6210,12,89,43,46,926,325.0,483,473,60,119.0,150,1,355,213,49,0,0,447,-27136,3346,323,414.87,,,,,,,,,,,,
116744,1563730169159,-1,2.31,0.78,0.44,1.14,0.91,0.79,-0.01,0.56,4,-2,6,0.79,6196,11,89,43,46,925,323.0,481,468,60,120.0,150,1,354,212,49,0,0,447,150,175,323,414.87,45.747959,4.906575,32.82,188.2,0,0.0,-1,0.0,0.0,0,0.57,1.9457
116764,1563730169179,-1,2.31,0.78,0.44,1.14,0.9,0.91,0.04,0.57,4,-1,6,0.91,6208,11,89,43,46,925,322.0,475,470,60,120.0,155,1,355,213,50,0,0,447,-27136,-20736,324,648.46,,,,,,,,,,,,
116784,1563730169197,-0,2.31,0.78,0.45,1.15,0.9,0.95,0.07,0.66,3,-2,6,0.95,6208,12,89,43,46,924,324.0,464,468,60,121.0,155,1,355,213,50,0,0,447,-27136,175,324,648.46,,,,,,,,,,,,
116804,1563730169217,0,2.31,0.78,0.45,1.14,0.91,0.93,0.09,0.69,3,-3,7,0.93,6188,12,89,43,46,922,321.0,472,467,60,120.0,155,1,354,212,50,0,0,447,-27136,-6528,321,648.46,,,,,,,,,,,,
116824,1563730169237,2,2.29,0.79,0.44,1.15,0.91,0.84,0.06,0.74,3,-2,7,0.84,6181,12,89,43,46,920,322.0,470,468,60,119.0,155,1,354,212,50,0,0,323,-27136,-20736,322,648.46,,,,,,,,,,,,
116844,1563730169257,1,2.29,0.78,0.44,1.14,0.92,0.72,0.04,0.76,3,-1,7,0.72,6143,12,89,43,46,918,320.0,478,470,60,118.0,155,1,354,212,50,0,0,326,-27136,-12032,318,414.87,45.747948,4.906572,32.95,188.6,0,0.0,-1,0.0,0.0,0,0.57,1.9474
116864,1563730169277,4,2.27,0.79,0.45,1.15,0.91,0.63,0.04,0.75,3,2,7,0.63,6129,12,89,43,46,916,319.0,473,466,60,119.0,154,1,354,212,49,0,0,328,-28416,-20736,319,414.87,,,,,,,,,,,,
116884,1563730169297,3,2.28,0.78,0.45,1.15,0.9,0.61,0.08,0.76,3,3,6,0.62,6123,11,89,43,46,914,318.0,468,467,60,120.0,154,1,354,212,49,0,0,329,145,170,318,414.87,,,,,,,,,,,,
116904,1563730169317,4,2.26,0.78,0.45,1.15,0.91,0.58,0.14,0.67,3,6,6,0.6,6111,11,89,43,46,913,319.0,463,468,60,120.0,154,1,354,212,49,0,0,328,-27136,170,318,414.87,,,,,,,,,,,,
116924,1563730169337,4,2.26,0.79,0.44,1.15,0.91,0.61,0.17,0.56,2,7,6,0.63,6099,11,89,43,46,913,321.0,471,468,60,119.0,154,1,353,212,49,0,0,328,-25856,160,314,414.87,,,,,,,,,,,,
116944,1563730169357,2,2.25,0.79,0.45,1.14,0.92,0.69,0.18,0.5,2,8,5,0.71,6111,11,89,43,46,914,318.0,461,467,60,120.0,154,1,354,212,49,0,0,328,145,150,313,414.87,45.747944,4.90657,32.87,188.9,0,0.0,-1,0.0,0.0,0,0.57,1.9491
116964,1563730169377,-0,2.25,0.78,0.45,1.14,0.92,0.79,0.15,0.44,1,8,5,0.8,6135,11,89,43,46,914,317.0,460,467,60,120.0,156,1,354,212,49,0,0,328,-28416,-25856,311,648.46,,,,,,,,,,,,
116984,1563730169399,-0,2.25,0.78,0.45,1.14,0.92,0.87,0.13,0.47,-1,6,4,0.88,6153,11,89,43,46,914,317.0,456,465,60,121.0,156,1,354,212,49,0,0,29,-28416,-27136,311,648.46,,,,,,,,,,,,
117004,1563730169419,2,2.24,0.79,0.45,1.15,0.91,0.91,0.16,0.5,-1,5,4,0.92,6206,10,89,43,46,913,314.0,465,469,60,121.0,156,1,355,213,49,0,0,321,135,140,311,648.46,,,,,,,,,,,,
117024,1563730169439,4,2.24,0.78,0.45,1.15,0.91,0.79,0.14,0.54,-1,4,3,0.8,6285,10,89,43,45,912,315.0,483,473,60,119.0,156,1,349,212,49,0,0,321,-29696,-27136,309,1115.64,,,,,,,,,,,,
117044,1563730169459,3,2.26,0.78,0.44,1.14,0.92,0.72,0.11,0.48,-1,6,2,0.73,6323,10,89,43,45,910,314.0,486,468,60,120.0,156,1,349,212,49,0,0,321,135,140,308,414.87,45.747932,4.906567,32.84,189.3,0,0.0,-1,0.0,0.0,0,0.57,1.9507
117064,1563730169479,0,2.26,0.78,0.44,1.15,0.9,0.84,0.14,0.35,-1,6,1,0.85,6347,9,89,43,44,908,313.0,485,466,60,121.0,162,1,343,212,50,0,0,319,-32256,140,308,414.87,,,,,,,,,,,,
117084,1563730169499,1,2.26,0.78,0.44,1.14,0.91,0.95,0.19,0.33,-2,5,2,0.97,6371,9,89,43,44,907,311.0,492,472,60,120.0,162,1,343,210,50,0,0,319,-32256,-29696,306,648.46,,,,,,,,,,,,
117104,1563730169519,4,2.26,0.78,0.44,1.15,0.9,0.86,0.17,0.36,-2,4,1,0.88,6384,7,89,43,44,907,311.0,491,471,60,120.0,162,1,343,209,50,0,0,685,-32256,-29696,305,882.05,,,,,,,,,,,,
117124,1563730169539,3,2.27,0.78,0.45,1.15,0.9,0.76,0.19,0.32,-2,4,0,0.78,6371,5,89,43,43,902,309.0,508,473,60,119.0,162,1,336,208,50,0,0,685,32000,-30976,305,414.87,,,,,,,,,,,,
117144,1563730169559,1,2.28,0.78,0.44,1.15,0.91,0.83,0.18,0.27,-2,2,-1,0.85,6388,0,89,43,41,899,308.0,503,466,60,120.0,162,1,323,206,50,0,0,685,120,-32256,301,414.87,45.747925,4.906565,32.35,189.5,0,0.0,-1,0.0,0.0,0,0.57,1.9524
117164,1563730169579,1,2.28,0.79,0.44,1.14,0.91,0.93,0.18,0.33,-3,-1,-1,0.95,6360,0,89,43,40,896,307.0,488,466,60,121.0,162,1,316,205,49,0,0,922,30720,120,303,648.46,,,,,,,,,,,,
117184,1563730169599,4,2.26,0.78,0.44,1.15,0.9,0.94,0.17,0.37,-3,-4,-2,0.95,6330,0,89,43,39,893,305.0,496,474,60,119.0,162,1,310,204,49,0,0,922,29440,32000,299,882.05,,,,,,,,,,,,
117204,1563730169619,5,2.25,0.78,0.45,1.14,0.92,0.82,0.14,0.37,-2,-1,-2,0.83,6291,0,89,43,39,890,305.0,494,472,60,119.0,162,1,310,204,49,0,0,220,29440,30720,299,414.87,,,,,,,,,,,,
117224,1563730169639,4,2.24,0.78,0.45,1.15,0.92,0.76,0.19,0.33,-2,1,-2,0.78,6212,0,89,43,38,889,303.0,483,467,60,119.0,162,1,307,204,49,0,0,221,28160,110,297,414.87,,,,,,,,,,,,
117244,1563730169659,5,2.22,0.78,0.45,1.15,0.92,0.76,0.21,0.3,-2,2,-1,0.78,6151,0,89,43,38,891,301.0,477,466,60,121.0,162,1,307,199,49,0,0,221,26880,110,292,414.87,45.747913,4.906562,32.32,189.8,0,0.0,-1,0.0,0.0,0,0.57,1.9541
117264,1563730169679,4,2.22,0.78,0.44,1.15,0.91,0.79,0.24,0.27,-2,4,-2,0.83,6062,0,89,43,38,893,300.0,477,471,60,119.0,157,1,307,199,46,0,0,221,100,105,293,414.87,,,,,,,,,,,,
117284,1563730169701,3,2.21,0.78,0.44,1.15,0.9,0.82,0.27,0.25,-2,6,-2,0.86,6013,0,89,43,38,895,301.0,466,468,60,120.0,157,1,307,199,46,0,0,221,26880,26880,292,414.87,,,,,,,,,,,,
117304,1563730169721,3,2.21,0.78,0.44,1.15,0.91,0.78,0.32,0.26,-2,7,-2,0.84,5892,0,89,43,38,898,301.0,456,470,60,120.0,157,1,300,198,46,0,0,221,26880,25600,288,414.87,,,,,,,,,,,,
117324,1563730169741,1,2.21,0.78,0.44,1.15,0.91,0.65,0.24,0.37,-2,8,-4,0.69,5771,0,89,43,39,900,300.0,455,470,60,119.0,157,1,296,202,46,0,0,221,100,24320,289,882.05,,,,,,,,,,,,
117344,1563730169761,1,2.21,0.78,0.44,1.15,0.9,0.65,0.25,0.42,-3,5,-5,0.7,5645,0,89,43,40,900,299.0,447,473,60,119.0,157,1,291,202,46,0,0,221,25600,21760,285,882.05,45.74791,4.906561,31.36,190.1,0,0.0,-1,0.0,0.0,0,0.57,1.9557
117364,1563730169781,4,2.21,0.77,0.44,1.14,0.9,0.78,0.18,0.47,-4,1,-5,0.8,5503,0,89,43,41,894,296.0,435,470,60,120.0,147,1,288,202,42,0,0,221,90,80,285,648.46,,,,,,,,,,,,
117384,1563730169801,0,2.22,0.78,0.44,1.14,0.91,0.73,0.17,0.57,-4,1,-6,0.75,5360,0,89,43,41,888,295.0,422,466,60,120.0,147,1,278,205,42,0,0,221,23040,80,285,414.87,,,,,,,,,,,,
117404,1563730169821,4,2.23,0.77,0.43,1.14,0.91,0.81,0.21,0.56,-4,0,-7,0.84,5275,0,89,43,43,881,295.0,423,471,60,120.0,147,1,280,207,42,0,0,221,23040,0,286,882.05,,,,,,,,,,,,
117424,1563730169841,2,2.24,0.77,0.44,1.14,0.9,0.7,0.14,0.56,-4,2,-7,0.71,5166,0,89,42,43,874,292.0,413,467,60,120.0,147,1,271,208,42,0,0,221,21760,20480,284,414.87,,,,,,,,,,,,
117444,1563730169861,3,2.25,0.77,0.44,1.14,0.9,0.78,0.18,0.47,-4,0,-7,0.8,5057,0,89,42,45,868,290.0,389,465,60,121.0,147,1,269,210,42,0,0,221,0,0,281,414.87,45.747898,4.906559,30.71,190.3,0,0.0,-1,0.0,0.0,0,0.58,1.9574
117464,1563730169881,3,2.28,0.77,0.44,1.14,0.9,0.81,0.22,0.47,-4,0,-8,0.84,4965,0,89,42,46,860,288.0,403,475,60,120.0,139,1,257,209,39,0,0,290,0,0,280,648.46,,,,,,,,,,,,
117484,1563730169900,5,2.29,0.78,0.44,1.14,0.9,0.78,0.17,0.45,-4,2,-7,0.8,4816,0,89,42,47,855,287.0,391,463,60,120.0,139,1,250,210,39,0,0,290,41,-16896,279,414.87,,,,,,,,,,,,
117504,1563730169920,1,2.3,0.78,0.44,1.13,0.91,0.76,0.1,0.47,-4,4,-6,0.77,4702,0,88,42,47,853,286.0,373,468,60,119.0,139,1,238,208,39,0,0,289,10686,41,280,414.87,,,,,,,,,,,,
117524,1563730169940,3,2.3,0.78,0.44,1.14,0.9,0.72,0.0,0.46,-4,3,-6,0.72,4645,0,89,42,48,848,281.0,356,467,60,120.0,139,1,235,209,39,0,0,289,24064,-1529,279,414.87,,,,,,,,,,,,
117544,1563730169960,4,2.29,0.78,0.44,1.14,0.91,0.67,-0.01,0.48,-3,3,-5,0.67,4555,0,89,42,48,844,278.0,348,466,60,121.0,139,1,225,208,39,0,0,286,630,1886,277,414.87,45.74789,4.906558,29.82,190.5,0,0.0,-1,0.0,0.0,0,0.58,1.9591
117564,1563730169980,8,2.29,0.78,0.44,1.15,0.9,0.67,-0.03,0.46,-2,3,-5,0.67,4449,0,89,42,49,838,276.0,340,467,60,121.0,130,1,216,205,36,0,0,284,250,24064,276,414.87,,,,,,,,,,,,
117584,1563730169992,8,2.29,0.78,0.44,1.15,0.9,0.68,-0.03,0.43,-2,4,-5,0.68,4362,0,89,42,49,836,274.0,336,472,60,121.0,130,1,207,208,36,0,0,284,2414,-1529,273,414.87,,,,,,,,,,,,
117604,1563730170012,6,2.29,0.78,0.44,1.14,0.91,0.76,-0.06,0.42,-2,6,-4,0.76,4323,0,89,42,49,833,272.0,340,470,60,121.0,130,1,202,207,36,0,0,284,250,250,269,414.87,,,,,,,,,,,,
117624,1563730170032,3,2.28,0.78,0.45,1.15,0.91,0.79,-0.05,0.38,-2,7,-3,0.79,4198,0,89,42,49,828,272.0,337,470,60,118.0,130,1,187,205,36,0,0,284,250,250,270,882.05,,,,,,,,,,,,
117644,1563730170052,3,2.27,0.78,0.45,1.14,0.91,0.83,-0.02,0.4,-2,5,-2,0.83,4171,0,89,42,50,827,269.0,318,468,60,121.0,130,1,186,209,36,0,0,284,-1,-1527,267,414.87,45.747883,4.906556,29.42,190.7,0,0.0,-1,0.0,0.0,0,0.58,1.9607
117664,1563730170072,6,2.27,0.78,0.44,1.15,0.91,0.85,-0.02,0.52,-2,2,-2,0.86,4164,0,89,42,50,827,266.0,317,467,60,121.0,124,1,185,209,33,0,0,268,-1,-1281,264,414.87,,,,,,,,,,,,
117684,1563730170098,4,2.26,0.78,0.44,1.14,0.91,0.83,0.0,0.44,-3,5,-3,0.83,4040,0,89,42,50,826,267.0,308,466,60,121.0,124,1,171,206,33,0,0,268,-1,-1,261,414.87,,,,,,,,,,,,
117704,1563730170118,1,2.26,0.78,0.44,1.14,0.91,0.86,0.02,0.42,-3,4,-2,0.86,4063,0,89,42,51,823,264.0,318,470,60,119.0,124,1,175,211,33,0,0,270,-1,-1,258,882.05,,,,,,,,,,,,
117724,1563730170138,1,2.25,0.78,0.44,1.14,0.91,0.88,0.04,0.51,-3,1,-3,0.88,4084,0,89,42,51,820,259.0,311,470,60,121.0,124,1,177,211,33,0,0,266,-41,-1,258,414.87,,,,,,,,,,,,
117744,1563730170158,3,2.25,0.78,0.44,1.14,0.91,0.82,0.06,0.4,-3,5,-2,0.82,3954,0,89,42,51,818,262.0,307,467,60,121.0,124,1,165,210,33,0,0,270,-1,-1,258,414.87,45.747875,4.906554,28.52,190.9,0,0.0,-1,0.0,0.0,0,0.58,1.9624
117764,1563730170178,2,2.26,0.78,0.44,1.14,0.9,0.82,0.09,0.39,-3,2,-3,0.83,3990,0,89,42,52,816,261.0,309,471,60,120.0,121,1,167,214,31,0,0,267,-1,-1,255,648.46,,,,,,,,,,,,
117784,1563730170198,5,2.27,0.78,0.43,1.15,0.9,0.82,0.09,0.45,-2,1,-3,0.82,3984,0,89,42,52,816,258.0,305,468,60,121.0,121,1,167,214,31,0,0,266,-41,-1,253,414.87,,,,,,,,,,,,
117804,1563730170218,2,2.29,0.78,0.43,1.15,0.9,0.83,0.11,0.41,-2,3,-4,0.83,3870,0,89,42,52,817,259.0,297,467,60,120.0,121,1,163,212,31,0,0,263,-10440,-1,249,414.87,,,,,,,,,,,,
117824,1563730170238,3,2.29,0.78,0.44,1.14,0.9,0.88,0.12,0.47,-2,1,-4,0.89,3883,0,89,42,53,820,255.0,301,471,60,121.0,121,1,164,216,31,0,0,261,-1281,506,252,414.87,,,,,,,,,,,,
117844,1563730170258,4,2.3,0.78,0.44,1.14,0.9,0.87,0.13,0.44,-2,3,-4,0.88,3908,0,89,42,53,827,253.0,293,465,60,121.0,121,1,165,217,31,0,0,258,-1,506,250,414.87,45.747868,4.906553,27.57,191.0,0,0.0,-1,0.0,0.0,0,0.58,1.9641
117864,1563730170278,3,2.29,0.78,0.44,1.14,0.9,0.89,0.12,0.44,-2,1,-3,0.9,3829,0,89,43,53,836,250.0,305,471,60,119.0,124,1,162,215,31,0,0,257,10818,-1,247,882.05,,,,,,,,,,,,
117884,1563730170300,6,2.29,0.77,0.44,1.15,0.9,0.9,0.1,0.44,-1,2,-3,0.9,3814,0,89,42,53,843,247.0,288,467,60,120.0,124,1,161,215,31,0,0,261,-1494,-1,245,414.87,,,,,,,,,,,,
117904,1563730170320,3,2.28,0.77,0.44,1.14,0.9,0.91,0.11,0.37,-1,1,-3,0.92,3862,0,89,42,54,849,246.0,305,470,60,119.0,124,1,164,221,31,0,0,251,10812,-214,243,414.87,,,,,,,,,,,,
117924,1563730170340,7,2.29,0.78,0.44,1.14,0.9,0.93,0.09,0.44,-1,-0,-3,0.93,3819,0,89,43,54,858,242.0,295,471,60,121.0,124,1,162,220,31,0,0,245,23482,16896,239,414.87,,,,,,,,,,,,
117944,1563730170360,4,2.29,0.77,0.44,1.14,0.91,0.96,0.08,0.35,-1,0,-3,0.96,3770,0,89,43,54,868,241.0,299,466,60,118.0,124,1,160,219,31,0,0,246,-17920,250,239,414.87,45.747864,4.906552,26.94,191.1,0,0.0,-1,0.0,0.0,0,0.58,1.9657
117964,1563730170380,7,2.28,0.78,0.44,1.15,0.9,0.95,0.08,0.44,-2,-2,-3,0.95,3801,0,89,43,55,881,239.0,285,471,60,121.0,129,1,162,224,31,0,0,241,-1484,10812,236,414.87,,,,,,,,,,,,
117984,1563730170398,4,2.29,0.78,0.44,1.15,0.9,0.94,0.09,0.34,-2,0,-3,0.94,3776,0,89,43,55,891,239.0,290,464,60,120.0,129,1,161,223,31,0,0,244,-1484,-17920,234,414.87,,,,,,,,,,,,
118004,1563730170418,5,2.3,0.78,0.44,1.14,0.9,0.91,0.1,0.43,-2,-1,-2,0.92,3734,0,89,43,55,899,238.0,289,475,60,121.0,129,1,159,222,31,0,0,242,13468,-17920,233,414.87,,,,,,,,,,,,
118024,1563730170438,4,2.29,0.78,0.44,1.13,0.9,0.91,0.12,0.37,-2,-0,-2,0.92,3734,0,89,43,55,905,236.0,292,467,60,121.0,129,1,159,226,31,0,0,240,250,13468,232,414.87,,,,,,,,,,,,
118044,1563730170458,4,2.3,0.78,0.44,1.13,0.91,0.89,0.11,0.44,-2,-0,-1,0.89,3712,0,89,43,56,916,233.0,284,474,60,121.0,129,1,158,226,31,0,0,238,8704,-1484,231,414.87,45.747852,4.90655,26.43,191.3,0,0.0,-1,0.0,0.0,0,0.58,1.9674
118064,1563730170478,3,2.29,0.78,0.44,1.14,0.9,0.9,0.12,0.32,-1,0,-1,0.91,3680,0,89,43,56,917,230.0,293,466,60,119.0,135,1,157,225,31,0,0,236,10824,-1483,229,414.87,,,,,,,,,,,,
118084,1563730170500,4,2.29,0.77,0.44,1.15,0.9,0.9,0.1,0.35,-1,2,-1,0.9,3676,0,89,43,57,919,229.0,276,471,60,121.0,135,1,157,229,31,0,0,236,18432,-1483,225,414.87,,,,,,,,,,,,
118104,1563730170520,3,2.28,0.78,0.44,1.14,0.9,0.94,0.11,0.39,-1,-2,-1,0.95,3621,6,89,43,57,919,227.0,291,470,60,119.0,135,1,154,228,31,0,0,234,-1496,250,226,882.05,,,,,,,,,,,,
118124,1563730170540,4,2.28,0.78,0.44,1.14,0.9,0.91,0.1,0.32,-1,1,-1,0.92,3576,8,89,43,58,919,225.0,268,472,60,121.0,135,1,153,231,31,0,0,231,19968,18432,223,414.87,,,,,,,,,,,,
118144,1563730170560,6,2.28,0.78,0.44,1.15,0.9,0.9,0.1,0.42,-1,-2,-1,0.91,3545,11,89,43,60,918,221.0,279,473,60,121.0,135,1,151,239,31,0,0,228,15360,250,220,414.87,45.747848,4.906549,24.42,191.4,0,0.0,-1,0.0,0.0,0,0.58,1.9691
118164,1563730170580,4,2.28,0.78,0.44,1.14,0.9,0.93,0.12,0.35,-1,-4,-1,0.94,3518,15,89,43,62,917,220.0,280,463,60,119.0,142,1,154,246,31,0,0,227,250,250,217,414.87,,,,,,,,,,,,
118184,1563730170598,4,2.28,0.78,0.44,1.15,0.9,0.92,0.12,0.22,-1,1,-2,0.92,3526,17,89,43,64,919,218.0,267,475,60,121.0,142,1,163,251,31,0,0,223,1210,15360,217,414.87,,,,,,,,,,,,
118204,1563730170618,6,2.28,0.78,0.44,1.14,0.91,0.93,0.1,0.38,-1,-2,-2,0.94,3509,19,89,43,67,921,216.0,275,467,60,121.0,142,1,175,259,31,0,0,220,250,-1532,215,648.46,,,,,,,,,,,,
118224,1563730170638,4,2.27,0.78,0.44,1.15,0.9,0.94,0.12,0.32,-1,-2,-2,0.95,3498,19,89,43,69,923,216.0,278,461,60,119.0,142,1,180,264,31,0,0,219,250,-1532,212,414.87,,,,,,,,,,,,
118244,1563730170658,5,2.27,0.78,0.44,1.15,0.9,0.91,0.12,0.25,-1,2,-2,0.91,3545,19,89,43,71,928,213.0,269,477,60,121.0,142,1,180,269,31,0,0,219,16384,-17920,210,414.87,45.747841,4.906548,23.68,191.5,0,0.0,-1,0.0,0.0,0,0.58,1.9707
118264,1563730170678,9,2.27,0.78,0.44,1.14,0.91,0.94,0.12,0.37,-1,-2,-2,0.95,3583,19,89,43,72,931,211.0,276,470,60,121.0,177,1,181,275,37,0,0,216,-1533,1088,207,882.05,,,,,,,,,,,,
118284,1563730170698,5,2.28,0.78,0.44,1.15,0.9,0.95,0.11,0.29,-1,-0,-3,0.96,3527,19,89,43,73,937,209.0,272,466,60,120.0,177,1,180,274,37,0,0,213,-14848,-1533,206,414.87,,,,,,,,,,,,
118304,1563730170718,6,2.28,0.78,0.44,1.14,0.91,0.92,0.08,0.35,-1,2,-2,0.92,3565,9,89,43,73,938,205.0,270,476,60,121.0,177,1,181,276,37,0,0,212,-29696,-14848,202,414.87,,,,,,,,,,,,
118324,1563730170738,4,2.26,0.78,0.44,1.14,0.91,0.94,0.09,0.37,-1,-1,-1,0.95,3616,0,89,43,71,939,205.0,283,468,60,120.0,177,1,182,277,37,0,0,208,-29696,-1482,198,882.05,,,,,,,,,,,,
118344,1563730170758,6,2.26,0.78,0.44,1.14,0.91,0.93,0.08,0.31,-1,3,-2,0.93,3600,0,89,43,70,940,201.0,273,464,60,121.0,177,1,182,272,37,0,0,207,12800,250,197,414.87,45.747837,4.906547,22.23,191.7,0,0.0,-1,0.0,0.0,0,0.58,1.9724
118364,1563730170778,5,2.26,0.78,0.44,1.15,0.91,0.96,0.06,0.37,-1,-1,-2,0.96,3682,0,89,43,68,941,200.0,285,468,60,120.0,190,1,183,271,37,0,0,204,-1480,13874,193,882.05,,,,,,,,,,,,
118384,1563730170800,6,2.26,0.79,0.44,1.15,0.91,0.95,0.07,0.32,-2,2,-3,0.95,3727,0,89,43,67,940,197.0,280,465,60,121.0,190,1,180,271,37,0,0,200,19456,12800,192,414.87,,,,,,,,,,,,
118404,1563730170820,4,2.26,0.78,0.44,1.14,0.9,0.97,0.07,0.39,-2,-2,-2,0.97,3778,0,89,43,66,941,194.0,288,473,60,121.0,190,1,178,270,37,0,0,199,14326,14412,189,882.05,,,,,,,,,,,,
118424,1563730170840,6,2.26,0.78,0.44,1.15,0.9,0.94,0.08,0.36,-2,-1,-3,0.95,3819,0,89,43,64,965,192.0,282,466,60,121.0,190,1,174,263,37,0,0,197,250,250,186,414.87,,,,,,,,,,,,
118444,1563730170860,4,2.26,0.78,0.44,1.14,0.91,0.98,0.1,0.32,-2,-1,-3,0.98,3924,0,89,43,63,991,190.0,301,472,60,120.0,190,1,175,263,37,0,0,195,-1,-1,187,882.05,45.747829,4.906546,21.24,191.7,0,0.0,-1,0.0,0.0,0,0.58,1.9741
118464,1563730170880,7,2.26,0.78,0.44,1.15,0.9,0.99,0.09,0.37,-2,-2,-4,0.99,3969,0,89,43,62,1032,188.0,295,468,60,121.0,213,1,175,260,39,0,0,191,-1,-1,181,414.87,,,,,,,,,,,,
118484,1563730170899,5,2.26,0.78,0.44,1.14,0.9,0.97,0.09,0.33,-2,-1,-4,0.97,3971,0,89,43,61,1058,185.0,300,466,60,121.0,213,1,173,256,39,0,0,192,-1,-1,180,414.87,,,,,,,,,,,,
118504,1563730170919,2,2.26,0.78,0.44,1.14,0.91,1.0,0.11,0.3,-2,-1,-4,1.0,4061,0,89,43,60,1099,183.0,308,471,60,120.0,213,1,179,257,39,0,0,3182,-1,-1,177,882.05,,,,,,,,,,,,
118524,1563730170939,4,2.26,0.78,0.44,1.15,0.9,1.01,0.1,0.4,-2,-3,-4,1.01,4044,0,89,43,60,1167,182.0,303,466,60,121.0,213,1,178,252,39,0,0,3182,-1,-1,177,414.87,,,,,,,,,,,,
118544,1563730170959,4,2.26,0.78,0.44,1.14,0.91,0.97,0.08,0.39,-2,-1,-4,0.97,4013,0,89,43,59,1200,180.0,301,468,60,121.0,213,1,174,248,39,0,0,3182,-1,-1,176,414.87,45.747826,4.906545,19.97,191.8,0,0.0,-1,0.0,0.0,0,0.58,1.9757
118564,1563730170979,2,2.26,0.78,0.44,1.14,0.91,0.98,0.09,0.34,-2,0,-4,0.98,4115,0,89,43,58,1227,178.0,312,468,60,119.0,215,1,185,243,38,0,0,3182,5134,-236,174,414.87,,,,,,,,,,,,
118584,1563730170993,2,2.25,0.78,0.44,1.15,0.9,0.99,0.11,0.42,-2,-2,-4,1.0,4080,0,89,43,58,1239,177.0,308,471,60,121.0,215,1,181,243,38,0,0,3182,3584,5134,173,414.87,,,,,,,,,,,,
118604,1563730171013,4,2.23,0.78,0.44,1.15,0.9,0.95,0.09,0.52,-2,-3,-4,0.95,4022,0,89,43,58,1247,175.0,299,468,60,121.0,215,1,174,243,38,0,0,26,-1495,250,172,414.87,,,,,,,,,,,,
118624,1563730171033,1,2.23,0.78,0.44,1.15,0.9,0.92,0.1,0.47,-2,-1,-5,0.92,4139,0,89,43,57,1250,173.0,310,467,60,121.0,215,1,188,238,38,0,0,85,31744,-1495,170,414.87,,,,,,,,,,,,
118644,1563730171053,2,2.2,0.78,0.44,1.15,0.91,0.94,0.1,0.45,-2,-1,-5,0.95,4061,0,89,43,57,1240,172.0,312,470,60,119.0,215,1,178,238,38,0,0,230,250,250,167,882.05,45.747822,4.906544,18.85,191.9,0,0.0,-1,0.0,0.0,0,0.58,1.9774
118664,1563730171073,1,2.16,0.78,0.44,1.15,0.91,0.97,0.1,0.53,-3,-4,-4,0.97,4040,0,89,43,57,1215,170.0,306,473,60,121.0,215,1,176,238,36,0,0,78,-1,-1281,166,414.87,,,,,,,,,,,,
118684,1563730171101,5,2.12,0.79,0.44,1.16,0.91,0.94,0.14,0.49,-4,-1,-5,0.95,4130,0,89,43,57,1192,169.0,307,472,60,121.0,215,1,187,238,36,0,0,170,-1,-1,164,414.87,,,,,,,,,,,,
118704,1563730171121,3,2.09,0.78,0.44,1.16,0.91,0.93,0.18,0.41,-4,1,-6,0.95,4054,0,89,43,56,1160,170.0,318,473,60,119.0,215,1,177,233,36,0,0,172,-1,888,161,882.05,,,,,,,,,,,,
118724,1563730171141,3,2.05,0.79,0.44,1.16,0.91,0.98,0.19,0.46,-5,-1,-7,0.99,4024,0,89,43,56,1142,170.0,304,471,60,121.0,215,1,174,233,36,0,0,174,-1,250,158,414.87,,,,,,,,,,,,
118744,1563730171161,6,2.03,0.78,0.44,1.15,0.91,0.97,0.19,0.5,-6,-1,-7,0.98,4109,0,89,43,56,1116,170.0,307,468,60,122.0,215,1,184,233,36,0,0,174,-1,10764,157,414.87,45.747814,4.906542,17.77,192.1,0,0.0,-1,0.0,0.0,0,0.58,1.9791
118764,1563730171181,2,2.02,0.78,0.44,1.15,0.91,0.95,0.23,0.42,-7,1,-9,0.98,4028,0,89,43,56,1092,169.0,314,467,60,120.0,227,1,174,233,35,0,0,175,-1,-1,154,414.87,,,,,,,,,,,,
118784,1563730171201,2,2.01,0.78,0.44,1.14,0.91,0.96,0.26,0.41,-8,0,-9,1.0,4033,0,89,43,56,1055,168.0,312,471,60,120.0,227,1,175,233,35,0,0,172,-1,23460,152,882.05,,,,,,,,,,,,
118804,1563730171221,7,2.01,0.78,0.44,1.15,0.91,0.96,0.27,0.47,-8,-2,-10,0.99,4074,0,89,43,56,1040,167.0,307,470,60,122.0,227,1,179,233,35,0,0,169,-253,250,147,414.87,,,,,,,,,,,,
118824,1563730171241,2,2.01,0.78,0.44,1.15,0.9,0.93,0.28,0.38,-9,1,-11,0.97,3983,0,89,43,55,1029,166.0,307,469,60,121.0,227,1,169,227,35,0,0,170,888,-1281,146,414.87,,,,,,,,,,,,
118844,1563730171261,2,2.02,0.79,0.44,1.15,0.92,0.96,0.31,0.35,-9,-1,-11,1.01,3981,0,89,43,55,1006,165.0,310,470,60,120.0,227,1,169,227,35,0,0,166,30720,-1,145,882.05,45.74781,4.906542,17.15,192.2,0,0.0,-1,0.0,0.0,0,0.58,1.9807
118864,1563730171281,7,2.02,0.79,0.44,1.15,0.9,0.97,0.3,0.42,-9,-2,-12,1.02,4034,0,89,43,55,993,163.0,302,467,60,121.0,234,1,174,228,34,0,0,165,10764,-1,143,414.87,,,,,,,,,,,,
118884,1563730171301,3,2.03,0.78,0.44,1.15,0.9,0.95,0.28,0.36,-10,0,-13,0.99,3973,0,89,43,55,985,159.0,303,470,60,121.0,234,1,168,227,34,0,0,163,-1281,-1,143,414.87,,,,,,,,,,,,
118904,1563730171321,4,2.03,0.78,0.45,1.15,0.91,0.97,0.27,0.39,-10,-2,-13,1.0,3959,0,89,43,55,983,158.0,306,472,60,121.0,234,1,168,226,34,0,0,162,-1,5140,141,648.46,,,,,,,,,,,,
118924,1563730171341,8,2.03,0.78,0.45,1.15,0.91,0.94,0.24,0.44,-10,-2,-13,0.97,3985,0,89,43,55,977,156.0,302,471,60,121.0,234,1,169,227,34,0,0,157,-1,5120,139,414.87,,,,,,,,,,,,
118944,1563730171361,6,2.04,0.79,0.44,1.15,0.91,0.93,0.26,0.39,-10,0,-13,0.97,3937,0,89,43,55,974,153.0,308,469,60,119.0,234,1,167,226,34,0,0,154,-23552,250,137,414.87,45.747807,4.906541,15.65,192.3,0,0.0,-1,0.0,0.0,0,0.59,1.9824
118964,1563730171381,5,2.04,0.78,0.45,1.15,0.91,0.96,0.21,0.45,-11,-2,-13,0.99,3894,0,89,43,55,972,150.0,303,470,60,121.0,246,1,165,224,33,0,0,152,-1,-1,134,882.05,,,,,,,,,,,,
118984,1563730171403,7,2.04,0.78,0.45,1.16,0.9,0.93,0.21,0.41,-11,0,-14,0.95,3920,0,89,42,55,972,145.0,298,468,60,121.0,246,1,166,225,33,0,0,150,-1,-1,132,414.87,,,,,,,,,,,,
119004,1563730171423,7,2.04,0.79,0.44,1.15,0.91,0.96,0.21,0.42,-11,-1,-14,0.98,3883,0,89,42,55,967,143.0,305,474,60,120.0,246,1,165,224,33,0,0,146,-236,-1,130,882.05,,,,,,,,,,,,
119024,1563730171443,9,2.05,0.78,0.44,1.15,0.92,0.94,0.2,0.45,-11,-1,-14,0.96,3851,0,89,42,55,960,141.0,289,472,60,121.0,246,1,164,224,33,0,0,268,5120,-1,127,414.87,,,,,,,,,,,,
119044,1563730171463,7,2.04,0.78,0.44,1.16,0.9,0.95,0.21,0.39,-11,-1,-15,0.97,3872,0,89,42,55,956,138.0,305,470,60,119.0,246,1,164,224,33,0,0,268,-1,-1,124,882.05,45.747803,4.906541,14.31,192.4,0,0.0,-1,0.0,0.0,0,0.59,1.9841
119064,1563730171483,10,2.05,0.78,0.45,1.16,0.9,0.96,0.18,0.46,-11,-3,-15,0.97,3873,0,89,42,55,951,135.0,289,466,60,121.0,264,1,164,224,32,0,0,99,-1,250,121,414.87,,,,,,,,,,,,
119084,1563730171501,6,2.05,0.79,0.44,1.15,0.91,0.94,0.19,0.38,-11,-0,-14,0.96,3813,0,89,42,55,943,132.0,292,462,60,121.0,264,1,162,224,32,0,0,133,-1,-1482,117,414.87,,,,,,,,,,,,
119104,1563730171521,6,2.05,0.78,0.44,1.15,0.91,0.97,0.18,0.48,-11,-3,-15,0.99,3800,0,89,42,55,936,129.0,296,471,60,120.0,264,1,162,224,32,0,0,131,-1,-1482,115,648.46,,,,,,,,,,,,
119124,1563730171541,6,2.04,0.79,0.44,1.16,0.91,0.95,0.18,0.4,-11,-1,-14,0.97,3824,0,89,42,55,933,126.0,293,466,60,121.0,264,1,162,224,32,0,0,129,13868,8192,112,414.87,,,,,,,,,,,,
119144,1563730171561,5,2.04,0.78,0.45,1.15,0.91,0.98,0.18,0.43,-10,-4,-14,0.99,3775,0,89,42,55,931,123.0,297,470,60,120.0,264,1,161,224,32,0,0,128,-1482,13850,110,882.05,45.747795,4.906541,13.42,192.5,0,0.0,-1,0.0,0.0,0,0.59,1.9857
119164,1563730171581,4,2.02,0.79,0.44,1.16,0.91,0.96,0.19,0.34,-10,0,-14,0.97,3758,0,89,42,56,930,120.0,288,466,60,121.0,281,1,160,227,31,0,0,125,250,-1482,110,414.87,,,,,,,,,,,,
119184,1563730171603,2,2.02,0.78,0.44,1.15,0.9,1.0,0.16,0.42,-10,-2,-14,1.01,3768,0,89,42,56,929,118.0,291,472,60,119.0,281,1,160,227,31,0,0,121,13856,250,108,882.05,,,,,,,,,,,,
119204,1563730171623,1,2.01,0.78,0.44,1.15,0.91,0.98,0.16,0.36,-10,1,-14,1.0,3743,0,89,42,56,929,118.0,290,465,60,121.0,281,1,159,226,31,0,0,119,250,13838,105,414.87,,,,,,,,,,,,
119224,1563730171643,3,2.0,0.79,0.44,1.15,0.92,1.0,0.15,0.45,-10,-2,-14,1.01,3687,0,89,42,56,930,116.0,290,472,60,120.0,281,1,157,225,31,0,0,117,250,13838,102,882.05,,,,,,,,,,,,
119244,1563730171663,2,1.98,0.79,0.44,1.16,0.91,0.96,0.16,0.39,-10,1,-14,0.97,3690,0,89,42,57,931,114.0,287,462,60,120.0,281,1,157,229,31,0,0,116,13850,250,100,414.87,45.747791,4.906541,11.6,192.6,0,0.0,-1,0.0,0.0,0,0.59,1.9874
119264,1563730171683,5,1.96,0.79,0.44,1.16,0.91,0.94,0.15,0.5,-11,-1,-13,0.95,3668,0,89,42,57,932,112.0,282,475,60,121.0,320,1,156,229,32,0,0,113,250,2048,100,414.87,,,,,,,,,,,,
119284,1563730171701,1,1.95,0.79,0.44,1.16,0.91,0.93,0.18,0.4,-11,-1,-14,0.95,3594,0,89,42,57,933,111.0,282,460,60,121.0,320,1,153,227,32,0,0,112,-1482,13736,97,414.87,,,,,,,,,,,,
119304,1563730171721,-0,1.93,0.79,0.44,1.15,0.91,0.9,0.17,0.4,-11,2,-14,0.92,3586,0,89,42,58,933,109.0,277,475,60,122.0,320,1,153,231,32,0,0,110,5120,13736,96,414.87,,,,,,,,,,,,
119324,1563730171741,2,1.91,0.79,0.44,1.15,0.91,0.91,0.16,0.49,-11,-2,-14,0.93,3533,0,89,42,59,934,108.0,282,467,60,120.0,320,1,151,235,32,0,0,110,250,-22528,96,882.05,,,,,,,,,,,,
119344,1563730171761,-1,1.89,0.78,0.45,1.15,0.91,0.9,0.18,0.36,-11,0,-14,0.92,3469,0,89,42,59,935,108.0,274,468,60,121.0,320,1,0,234,32,0,0,109,250,14312,93,414.87,45.747788,4.906542,10.44,192.7,0,0.0,-1,0.0,0.0,0,0.59,1.9891
119364,1563730171781,-1,1.87,0.78,0.44,1.16,0.9,0.87,0.2,0.35,-11,4,-14,0.89,3458,0,89,42,60,935,107.0,271,475,60,121.0,322,1,0,238,30,0,0,108,-1482,-1481,91,414.87,,,,,,,,,,,,
119384,1563730171799,-1,1.86,0.78,0.44,1.15,0.91,0.84,0.2,0.49,-12,1,-15,0.87,3426,0,89,42,60,936,106.0,274,467,60,121.0,322,1,150,238,30,0,0,107,13838,-1481,91,648.46,,,,,,,,,,,,
119404,1563730171819,2,1.84,0.78,0.44,1.15,0.91,0.87,0.18,0.5,-12,-3,-15,0.89,3311,0,89,42,61,937,106.0,273,463,60,119.0,322,1,0,243,30,0,0,105,13838,-1481,91,882.05,,,,,,,,,,,,
119424,1563730171839,2,1.81,0.79,0.44,1.16,0.91,0.93,0.17,0.36,-12,-2,-15,0.95,3208,0,89,42,62,938,105.0,262,473,60,120.0,322,1,0,245,30,0,0,105,3584,-1481,88,414.87,,,,,,,,,,,,
119444,1563730171859,2,1.8,0.79,0.45,1.16,0.91,0.96,0.18,0.23,-13,3,-15,0.97,3120,0,89,42,63,939,105.0,256,470,60,120.0,322,1,158,248,30,0,0,105,3584,-1481,87,414.87,45.747788,4.906542,9.57,192.8,0,0.0,-1,0.0,0.0,0,0.59,1.9907
119464,1563730171879,2,1.78,0.78,0.44,1.16,0.9,0.94,0.19,0.18,-13,7,-14,0.96,3037,0,89,42,63,940,105.0,249,470,60,121.0,321,1,158,248,28,0,0,104,3584,-13312,87,414.87,,,,,,,,,,,,
119484,1563730171900,2,1.77,0.78,0.44,1.16,0.9,0.96,0.2,0.19,-13,10,-15,0.98,2933,0,89,42,64,941,104.0,246,465,60,121.0,321,1,161,250,28,0,0,104,250,250,86,414.87,,,,,,,,,,,,
119504,1563730171920,-1,1.76,0.78,0.44,1.15,0.91,1.01,0.2,0.14,-13,11,-14,1.03,2816,0,89,42,65,942,104.0,245,466,60,119.0,321,1,0,173,28,0,0,102,250,250,84,882.05,,,,,,,,,,,,
119524,1563730171940,-1,1.76,0.79,0.44,1.16,0.9,1.04,0.19,0.13,-13,10,-15,1.05,2723,0,89,42,66,942,103.0,241,467,60,120.0,321,1,0,256,28,0,0,102,-1482,14270,84,882.05,,,,,,,,,,,,
119544,1563730171960,-1,1.76,0.79,0.44,1.16,0.91,1.03,0.18,0.14,-14,8,-15,1.05,2672,0,89,42,67,943,102.0,236,467,60,121.0,321,1,0,259,28,0,0,102,13832,14270,82,414.87,45.747788,4.906543,8.74,192.9,0,0.0,-1,0.0,0.0,0,0.59,1.9924
119564,1563730171980,2,1.76,0.79,0.44,1.16,0.91,0.97,0.19,0.23,-14,7,-17,0.99,2570,0,89,42,69,943,102.0,223,472,60,121.0,317,1,0,262,26,0,0,100,13832,250,81,414.87,,,,,,,,,,,,
119584,1563730171994,-0,1.76,0.79,0.44,1.16,0.9,0.96,0.16,0.24,-14,6,-16,0.98,2425,0,89,42,69,944,101.0,224,468,60,118.0,317,1,0,261,26,0,0,99,2048,-1481,81,882.05,,,,,,,,,,,,
119604,1563730172014,2,1.76,0.79,0.44,1.16,0.91,0.95,0.17,0.29,-14,6,-18,0.96,2360,0,89,42,72,945,100.0,218,468,60,121.0,317,1,0,258,26,0,0,98,250,-1481,80,414.87,,,,,,,,,,,,
119624,1563730172034,-0,1.77,0.79,0.44,1.15,0.92,0.94,0.17,0.32,-14,5,-17,0.96,2270,0,89,42,72,946,99.0,211,469,60,120.0,317,1,150,256,26,0,0,98,-1483,-20480,80,414.87,,,,,,,,,,,,
119644,1563730172054,0,1.79,0.78,0.45,1.16,0.92,0.93,0.16,0.37,-14,5,-18,0.94,2212,0,89,42,74,949,99.0,211,466,60,121.0,317,1,0,253,26,0,0,97,-1483,-20480,78,414.87,45.747784,4.906544,8.43,192.9,0,0.0,-1,0.0,0.0,0,0.59,1.9941
119664,1563730172074,-2,1.8,0.79,0.45,1.15,0.92,0.92,0.15,0.37,-14,4,-17,0.93,2080,0,89,42,75,953,97.0,208,468,60,119.0,256,1,143,252,20,0,0,95,-22528,-20480,77,882.05,,,,,,,,,,,,
119684,1563730172100,0,1.82,0.79,0.44,1.16,0.91,0.9,0.15,0.4,-14,3,-19,0.91,1981,0,89,42,77,959,95.0,193,474,60,120.0,256,1,0,250,20,0,0,95,-1481,14242,77,414.87,,,,,,,,,,,,
119704,1563730172120,1,1.84,0.79,0.45,1.16,0.91,0.88,0.14,0.4,-14,4,-18,0.89,1886,0,89,42,79,961,95.0,194,466,60,121.0,256,1,136,252,20,0,0,94,-1481,14242,76,414.87,,,,,,,,,,,,
119724,1563730172140,1,1.86,0.79,0.44,1.17,0.91,0.86,0.12,0.43,-14,3,-19,0.87,1791,0,89,42,80,965,95.0,193,471,60,120.0,256,1,0,255,20,0,0,92,-1481,-24064,76,414.87,,,,,,,,,,,,
119744,1563730172160,1,1.88,0.79,0.45,1.17,0.92,0.87,0.1,0.46,-14,3,-18,0.88,1723,0,89,42,81,968,91.0,188,467,60,120.0,256,1,133,257,20,0,0,89,-1481,-24064,74,414.87,45.74778,4.906545,8.71,192.9,0,0.0,-1,0.0,0.0,0,0.59,1.9957
119764,1563730172180,0,1.91,0.79,0.45,1.16,0.92,0.87,0.09,0.52,-14,3,-17,0.87,1643,0,89,42,82,973,88.0,179,465,60,120.0,216,1,0,258,16,0,0,89,250,250,74,414.87,,,,,,,,,,,,
119784,1563730172200,1,1.92,0.79,0.45,1.17,0.91,0.86,0.08,0.55,-13,3,-17,0.86,1539,0,89,42,84,974,88.0,175,465,60,121.0,216,1,0,261,16,0,0,87,250,250,73,414.87,,,,,,,,,,,,
119804,1563730172220,0,1.93,0.79,0.44,1.17,0.91,0.87,0.07,0.6,-13,3,-17,0.87,1463,0,89,42,85,974,85.0,174,468,60,120.0,216,1,127,263,16,0,0,84,-13312,250,71,414.87,,,,,,,,,,,,
119824,1563730172240,0,1.94,0.79,0.45,1.16,0.92,0.9,0.07,0.62,-12,3,-16,0.9,1331,0,89,42,87,973,84.0,173,468,60,121.0,216,1,0,264,16,0,0,84,250,14228,71,414.87,,,,,,,,,,,,
119844,1563730172260,2,1.93,0.79,0.44,1.17,0.91,0.89,0.05,0.63,-12,2,-16,0.89,1202,0,89,42,88,972,84.0,165,464,60,119.0,216,1,106,264,16,0,0,83,250,14228,69,414.87,45.74778,4.906547,8.41,192.9,0,0.0,-1,0.0,0.0,0,0.59,1.9974
119864,1563730172280,0,1.93,0.78,0.45,1.17,0.91,0.9,0.05,0.63,-12,1,-16,0.9,1059,0,89,42,88,969,81.0,160,463,60,119.0,173,1,15,265,12,0,0,83,-16896,-27648,69,882.05,,,,,,,,,,,,
119884,1563730172300,0,1.94,0.79,0.44,1.16,0.92,0.91,0.05,0.62,-11,1,-15,0.91,1059,0,89,42,92,966,81.0,155,467,60,120.0,173,1,15,280,12,0,0,80,-1481,-27648,68,414.87,,,,,,,,,,,,
119904,1563730172320,2,1.93,0.8,0.45,1.17,0.91,0.89,0.06,0.63,-11,1,-15,0.89,977,0,89,42,91,962,79.0,156,466,60,120.0,173,1,103,273,12,0,0,78,-1481,-1482,68,414.87,,,,,,,,,,,,
119924,1563730172340,1,1.94,0.79,0.45,1.17,0.91,0.88,0.05,0.59,-11,1,-15,0.88,1050,0,89,42,91,957,77.0,153,466,60,118.0,173,1,21,273,12,0,0,78,-20480,-1482,65,882.05,,,,,,,,,,,,
119944,1563730172360,1,1.95,0.79,0.45,1.17,0.91,0.88,0.06,0.58,-11,0,-15,0.89,1050,0,89,42,93,954,77.0,151,468,60,120.0,173,1,21,288,12,0,0,76,-20480,250,65,414.87,45.747776,4.906548,7.36,192.8,0,0.0,-1,0.0,0.0,0,0.59,1.9991
119964,1563730172380,2,1.95,0.8,0.45,1.17,0.92,0.88,0.05,0.58,-11,0,-14,0.88,924,0,89,42,93,953,75.0,153,466,60,118.0,138,1,84,280,9,0,0,76,-1481,250,63,414.87,,,,,,,,,,,,
119984,1563730172396,1,1.97,0.79,0.44,1.16,0.92,0.89,0.05,0.55,-10,-0,-14,0.89,924,0,89,43,95,951,75.0,145,467,60,120.0,138,1,158,301,9,0,0,74,-1481,-1,63,414.87,,,,,,,,,,,,
120004,1563730172416,3,1.97,0.79,0.44,1.16,0.91,0.89,0.04,0.53,-10,-0,-14,0.89,797,0,89,42,95,948,72.0,148,465,60,119.0,138,1,158,301,9,0,0,70,250,-1,60,414.87,,,,,,,,,,,,
120024,1563730172436,2,1.98,0.79,0.45,1.16,0.92,0.89,0.05,0.52,-10,-0,-13,0.9,797,0,89,42,94,947,72.0,143,468,60,119.0,138,1,145,295,9,0,0,70,250,-1,60,414.87,,,,,,,,,,,,
120044,1563730172456,3,1.99,0.8,0.45,1.17,0.92,0.89,0.05,0.5,-9,-1,-13,0.89,849,0,89,42,96,945,68.0,145,466,60,119.0,138,1,172,309,9,0,0,66,250,-1,60,414.87,45.747776,4.906548,6.36,192.7,0,0.0,-1,0.0,0.0,0,0.59,2.0007
120064,1563730172476,4,1.99,0.79,0.45,1.17,0.92,0.89,0.04,0.48,-9,-1,-13,0.89,849,0,89,42,97,944,68.0,140,466,60,119.0,175,1,113,316,10,0,0,66,250,-1,57,414.87,,,,,,,,,,,,
120084,1563730172500,4,2.0,0.8,0.45,1.17,0.92,0.9,0.04,0.47,-9,-1,-12,0.9,553,0,89,42,96,941,64.0,142,468,60,119.0,175,1,172,309,10,0,0,66,250,-1,57,414.87,,,,,,,,,,,,
120104,1563730172520,4,2.0,0.79,0.45,1.17,0.92,0.89,0.04,0.48,-9,-1,-12,0.89,553,0,89,43,97,939,64.0,136,467,60,119.0,175,1,186,316,10,0,0,61,250,-1,51,414.87,,,,,,,,,,,,
120124,1563730172540,5,1.99,0.8,0.45,1.17,0.91,0.89,0.04,0.46,-8,-0,-11,0.89,553,0,89,43,98,938,59.0,129,468,60,119.0,175,1,200,323,10,0,0,61,-1,-1,51,414.87,,,,,,,,,,,,
120144,1563730172560,4,2.01,0.79,0.45,1.17,0.92,0.9,0.05,0.45,-8,-1,-11,0.9,553,0,89,43,99,937,59.0,128,470,60,119.0,175,1,186,357,10,0,0,56,-1,-1,51,414.87,45.747776,4.906549,5.86,192.7,0,0.0,-1,0.0,0.0,0,0.59,2.0024
120164,1563730172580,4,2.0,0.8,0.45,1.17,0.92,0.91,0.05,0.44,-8,-1,-11,0.91,553,0,89,43,99,935,53.0,125,465,60,119.0,152,1,186,357,7,0,0,56,-1,-1,46,414.87,,,,,,,,,,,,
120184,1563730172602,2,2.02,0.8,0.45,1.17,0.92,0.91,0.05,0.43,-7,-1,-10,0.91,553,0,89,43,100,932,53.0,123,465,60,119.0,152,1,200,391,7,0,0,50,-1,-1,46,414.87,,,,,,,,,,,,
120204,1563730172622,3,2.02,0.8,0.45,1.18,0.92,0.91,0.04,0.43,-7,-1,-10,0.91,553,0,89,43,100,932,53.0,123,467,60,119.0,152,1,200,391,7,0,0,50,-1,-1,46,414.87,,,,,,,,,,,,
120224,1563730172642,1,2.03,0.8,0.45,1.18,0.91,0.92,0.04,0.42,-7,-1,-9,0.92,553,0,89,43,101,931,47.0,122,468,60,119.0,152,1,200,424,7,0,0,50,-1,-1,41,414.87,,,,,,,,,,,,
120244,1563730172662,3,2.03,0.79,0.45,1.16,0.92,0.91,0.04,0.43,-6,-1,-9,0.91,553,0,89,43,100,929,47.0,122,467,60,119.0,152,1,200,391,7,0,0,45,-1,-1,41,414.87,45.747772,4.90655,5.34,192.7,0,0.0,-1,0.0,0.0,0,0.59,2.0041
120264,1563730172682,1,2.03,0.79,0.45,1.17,0.92,0.91,0.04,0.42,-6,-1,-9,0.91,553,0,89,43,99,927,47.0,122,466,60,119.0,195,1,200,357,8,0,0,45,-1,-1281,41,414.87,,,,,,,,,,,,
120284,1563730172702,1,2.03,0.8,0.44,1.17,0.92,0.91,0.03,0.43,-6,-1,-8,0.91,553,0,89,43,99,926,41.0,122,467,60,119.0,195,1,200,357,8,0,0,45,24067,-1281,41,414.87,,,,,,,,,,,,
120304,1563730172722,1,2.02,0.79,0.45,1.17,0.92,0.9,0.04,0.44,-5,-1,-8,0.91,553,0,89,43,99,925,41.0,122,466,60,119.0,195,1,200,357,8,0,0,45,24067,-1281,36,414.87,,,,,,,,,,,,
120324,1563730172742,2,2.01,0.8,0.45,1.18,0.92,0.9,0.03,0.44,-5,-1,-7,0.9,553,0,89,43,99,923,41.0,122,467,60,119.0,195,1,200,357,8,0,0,39,24067,-1,36,414.87,,,,,,,,,,,,
120344,1563730172762,2,2.0,0.79,0.45,1.17,0.92,0.9,0.03,0.45,-5,-1,-7,0.9,553,0,89,43,99,922,41.0,122,467,60,119.0,195,1,200,357,8,0,0,39,24067,-1,36,414.87,45.747772,4.906551,4.25,192.8,0,0.0,-1,0.0,0.0,0,0.59,2.0057
120364,1563730172782,1,1.99,0.79,0.45,1.17,0.92,0.89,0.04,0.45,-5,-1,-7,0.9,553,0,89,43,99,921,36.0,122,468,60,119.0,194,1,200,357,7,0,0,39,-1,-1,36,414.87,,,,,,,,,,,,
120384,1563730172800,1,1.98,0.8,0.45,1.17,0.92,0.89,0.04,0.45,-5,-1,-7,0.89,553,0,89,43,99,921,36.0,123,465,60,119.0,194,1,200,357,7,0,0,33,-1,-1,30,414.87,,,,,,,,,,,,
120404,1563730172820,-0,1.97,0.79,0.45,1.17,0.92,0.89,0.04,0.45,-5,-1,-6,0.89,553,0,89,43,99,920,36.0,123,468,60,119.0,194,1,200,357,7,0,0,33,-1,-1,30,414.87,,,,,,,,,,,,
120424,1563730172840,0,1.96,0.79,0.45,1.17,0.92,0.88,0.04,0.46,-4,-1,-6,0.88,553,0,89,43,99,919,36.0,123,467,60,119.0,194,1,200,357,7,0,0,33,-1,-1,30,414.87,,,,,,,,,,,,
120444,1563730172860,0,1.95,0.8,0.45,1.17,0.92,0.88,0.04,0.47,-4,-1,-6,0.88,553,0,89,43,99,145,31.0,123,466,60,119.0,194,1,0,0,7,0,0,0,250,250,0,414.87,45.747772,4.906552,3.18,192.8,0,0.0,-1,0.0,0.0,0,0.59,2.0074
120464,1563730172880,0,1.94,0.8,0.45,1.18,0.91,0.87,0.04,0.47,-4,-1,-6,0.87,0,0,89,43,99,567,0.0,123,466,60,119.0,0,1,0,0,0,0,0,0,250,250,0,414.87,,,,,,,,,,,,
120484,1563730172901,-1,1.94,0.79,0.44,1.17,0.91,0.87,0.04,0.48,-4,-1,-6,0.87,0,0,89,43,99,633,0.0,122,469,60,119.0,0,1,0,0,0,0,0,0,250,250,0,414.87,,,,,,,,,,,,
120504,1563730172921,-1,1.92,0.8,0.45,1.17,0.91,0.87,0.04,0.48,-4,-1,-6,0.87,0,0,89,43,99,700,0.0,122,466,60,119.0,0,1,0,0,0,0,0,0,250,250,0,414.87,,,,,,,,,,,,
120524,1563730172941,-1,1.9,0.79,0.45,1.17,0.91,0.86,0.04,0.48,-4,-1,-5,0.86,0,0,89,43,99,767,0.0,122,468,60,119.0,0,1,0,0,0,0,0,0,250,250,0,414.87,,,,,,,,,,,,
120544,1563730172961,0,1.9,0.79,0.45,1.17,0.92,0.86,0.04,0.48,-3,-1,-5,0.86,0,0,89,43,99,833,0.0,122,467,60,119.0,0,1,0,0,0,0,0,0,250,250,0,414.87,45.747768,4.906552,2.45,192.8,0,0.0,-1,0.0,0.0,0,0.59,2.0091
120564,1563730172981,0,1.88,0.79,0.45,1.17,0.92,0.85,0.03,0.48,-3,-1,-5,0.85,0,0,89,43,99,900,0.0,122,467,60,119.0,0,1,0,0,0,0,0,0,250,250,0,414.87,,,,,,,,,,,,
120584,1563730172995,1,1.87,0.8,0.45,1.17,0.91,0.86,0.03,0.48,-3,-1,-5,0.86,0,0,89,43,99,916,0.0,122,467,60,119.0,0,1,0,0,0,0,0,23,250,250,0,414.87,,,,,,,,,,,,
120604,1563730173015,1,1.87,0.8,0.44,1.17,0.91,0.86,0.03,0.48,-3,-1,-5,0.86,0,0,89,43,99,916,0.0,122,467,60,119.0,0,1,0,0,0,0,0,23,250,250,0,414.87,,,,,,,,,,,,
120624,1563730173035,1,1.87,0.8,0.45,1.17,0.91,0.86,0.03,0.47,-3,-1,-5,0.86,0,0,89,43,99,916,19.0,122,467,60,119.0,0,1,0,0,0,0,0,23,250,250,19,414.87,,,,,,,,,,,,
120644,1563730173055,4,1.86,0.79,0.44,1.17,0.92,0.87,0.02,0.46,-3,-1,-5,0.87,0,0,89,43,99,916,19.0,122,468,60,119.0,0,1,0,0,0,0,0,23,250,250,19,414.87,45.747768,4.906552,1.87,192.9,0,0.0,-1,0.0,0.0,0,0.59,2.0107
120664,1563730173075,5,1.86,0.8,0.45,1.18,0.92,0.87,0.02,0.45,-3,-1,-4,0.87,0,0,89,43,99,916,19.0,122,466,60,119.0,0,1,0,0,0,0,0,23,-235,250,19,414.87,,,,,,,,,,,,
120684,1563730173101,6,1.86,0.8,0.44,1.18,0.91,0.88,0.02,0.44,-2,-1,-4,0.88,0,0,89,43,99,916,19.0,122,467,60,118.0,0,1,0,0,0,0,0,23,-235,250,19,414.87,,,,,,,,,,,,
120704,1563730173121,8,1.84,0.8,0.45,1.18,0.92,0.89,0.01,0.42,-2,-1,-4,0.89,0,0,89,43,99,916,19.0,122,466,60,119.0,0,1,0,0,0,0,0,23,-235,250,19,414.87,,,,,,,,,,,,
120724,1563730173141,7,1.86,0.8,0.45,1.17,0.92,0.9,0.01,0.41,-2,-1,-4,0.9,0,0,89,43,99,916,19.0,122,466,60,118.0,0,1,0,0,0,0,0,23,-235,250,19,414.87,,,,,,,,,,,,
120744,1563730173161,6,1.85,0.8,0.45,1.17,0.92,0.91,0.01,0.4,-2,-1,-3,0.91,0,0,89,43,99,915,19.0,122,468,60,119.0,0,1,0,0,0,0,0,23,-235,250,19,414.87,45.747768,4.906552,0.0,193.0,0,0.0,-1,0.0,0.0,0,0.59,2.0124
120764,1563730173181,7,1.85,0.8,0.45,1.18,0.91,0.9,0.01,0.42,-2,-1,-3,0.9,0,0,89,43,99,915,19.0,122,467,60,119.0,0,1,0,0,0,0,0,23,-235,250,19,414.87,,,,,,,,,,,,
120784,1563730173201,6,1.86,0.8,0.45,1.17,0.92,0.89,-0.0,0.44,-1,-1,-2,0.89,0,0,89,43,99,915,19.0,123,465,60,119.0,0,1,0,0,0,0,0,23,-235,250,19,414.87,,,,,,,,,,,,
120804,1563730173221,5,1.85,0.8,0.45,1.17,0.92,0.87,0.0,0.46,-1,-0,-2,0.87,0,0,89,43,99,914,19.0,122,467,60,119.0,0,1,0,0,0,0,0,23,-235,250,19,414.87,,,,,,,,,,,,
120824,1563730173241,7,1.85,0.8,0.45,1.17,0.92,0.85,0.01,0.49,-1,0,-2,0.85,0,0,89,43,99,914,19.0,123,467,60,118.0,0,1,0,0,0,0,0,23,-235,250,19,414.87,,,,,,,,,,,,
120844,1563730173261,5,1.86,0.8,0.45,1.18,0.92,0.84,0.01,0.51,-1,0,-1,0.84,0,0,89,43,99,914,19.0,123,466,60,118.0,0,1,0,0,0,0,0,23,-235,250,19,414.87,45.747768,4.906553,0.0,193.0,0,0.0,-1,0.0,0.0,0,0.59,2.0141
120864,1563730173281,6,1.86,0.8,0.45,1.18,0.92,0.83,0.01,0.52,-1,1,-1,0.83,0,0,89,43,99,914,19.0,122,466,60,118.0,0,1,0,0,0,0,0,23,-235,250,19,414.87,,,,,,,,,,,,
120884,1563730173301,7,1.85,0.8,0.45,1.17,0.92,0.82,0.01,0.54,-1,0,-1,0.82,0,0,89,43,99,914,19.0,122,467,60,118.0,0,1,0,0,0,0,0,23,-235,250,19,414.87,,,,,,,,,,,,
120904,1563730173321,7,1.85,0.8,0.45,1.18,0.92,0.82,0.01,0.55,-1,0,-1,0.82,0,0,89,43,99,914,19.0,122,466,60,118.0,0,1,0,0,0,0,0,23,-235,250,19,414.87,,,,,,,,,,,,
120924,1563730173341,5,1.86,0.8,0.45,1.17,0.92,0.81,0.02,0.56,-1,0,-1,0.81,0,0,89,43,99,913,19.0,122,467,60,118.0,0,1,0,0,0,0,0,23,-235,250,19,414.87,,,,,,,,,,,,
120944,1563730173361,6,1.85,0.8,0.45,1.17,0.92,0.8,0.02,0.57,-1,-0,-1,0.8,0,0,89,43,99,913,19.0,122,466,60,118.0,0,1,0,0,0,0,0,23,-235,250,19,414.87,45.747768,4.906553,0.0,193.1,0,0.0,-1,0.0,0.0,0,0.59,2.0157
120964,1563730173381,5,1.85,0.8,0.45,1.18,0.91,0.8,0.02,0.57,-1,-0,-1,0.8,0,0,89,43,99,913,19.0,123,466,60,118.0,0,1,0,0,0,0,0,23,-235,250,19,414.87,,,,,,,,,,,,
120984,1563730173401,5,1.86,0.8,0.45,1.18,0.92,0.79,0.02,0.57,-0,-0,-1,0.79,0,0,89,43,99,913,19.0,123,467,60,118.0,0,1,0,0,0,0,0,23,-235,250,19,414.87,,,,,,,,,,,,
121004,1563730173421,4,1.84,0.8,0.45,1.17,0.92,0.79,0.02,0.57,-0,-0,-1,0.79,0,0,89,43,99,913,19.0,123,470,60,118.0,0,1,0,0,0,0,0,23,-235,250,19,414.87,,,,,,,,,,,,
121024,1563730173441,6,1.86,0.8,0.45,1.19,0.92,0.78,0.02,0.57,-0,-0,-1,0.78,0,0,90,43,99,913,19.0,123,466,60,118.0,0,1,0,0,0,0,0,23,-235,250,19,414.87,,,,,,,,,,,,
121044,1563730173461,6,1.86,0.8,0.45,1.18,0.92,0.78,0.02,0.58,-0,-0,-1,0.78,0,0,89,43,99,913,19.0,123,466,60,118.0,0,1,0,0,0,0,0,23,-235,250,19,414.87,45.747768,4.906553,0.0,193.1,0,0.0,-1,0.0,0.0,0,0.59,2.0174
121064,1563730173481,6,1.85,0.8,0.45,1.18,0.92,0.78,0.02,0.58,-0,-0,-1,0.78,0,0,89,43,99,913,19.0,123,466,60,118.0,0,1,0,0,0,0,0,23,-235,250,19,414.87,,,,,,,,,,,,
121084,1563730173501,6,1.86,0.81,0.45,1.18,0.92,0.78,0.02,0.59,-0,-0,-0,0.78,0,0,89,43,99,913,19.0,123,467,60,118.0,0,1,0,0,0,0,0,0,-235,250,19,414.87,,,,,,,,,,,,
121104,1563730173521,6,1.84,0.81,0.45,1.18,0.92,0.77,0.02,0.59,-0,-0,-0,0.77,0,0,89,43,99,912,19.0,123,468,60,118.0,0,1,0,0,0,0,0,0,-235,250,19,414.87,,,,,,,,,,,,
121124,1563730173541,6,1.86,0.8,0.46,1.18,0.92,0.77,0.03,0.6,-0,-0,-0,0.77,0,0,89,43,99,912,19.0,123,467,60,118.0,0,1,0,0,0,0,0,0,-235,250,0,414.87,,,,,,,,,,,,
121144,1563730173561,6,1.86,0.8,0.45,1.18,0.92,0.77,0.02,0.6,-0,-0,-0,0.77,0,0,90,43,99,912,19.0,123,466,60,118.0,0,1,0,0,0,0,0,0,-235,250,0,414.87,45.747768,4.906553,0.0,193.2,0,0.0,-1,0.0,0.0,0,0.59,2.0191
121164,1563730173581,6,1.87,0.81,0.45,1.17,0.92,0.77,0.02,0.6,-0,-0,-0,0.77,0,0,89,43,99,912,0.0,123,465,60,118.0,0,1,0,0,0,0,0,0,250,250,0,414.87,,,,,,,,,,,,
121184,1563730173601,4,1.88,0.8,0.45,1.18,0.92,0.77,0.02,0.6,-0,-0,-0,0.77,0,0,89,43,99,912,0.0,123,468,60,118.0,0,1,0,0,0,0,0,0,250,250,0,414.87,,,,,,,,,,,,
121204,1563730173621,6,1.87,0.8,0.45,1.18,0.92,0.77,0.02,0.6,-0,-0,-0,0.77,0,0,89,43,99,912,0.0,123,467,60,118.0,0,1,0,0,0,0,0,0,250,250,0,414.87,,,,,,,,,,,,
121224,1563730173641,6,1.88,0.8,0.45,1.19,0.92,0.77,0.02,0.6,-0,-0,-0,0.77,0,0,89,43,99,912,0.0,123,468,60,118.0,0,1,0,0,0,0,0,0,250,250,0,414.87,,,,,,,,,,,,
121244,1563730173661,6,1.88,0.8,0.45,1.18,0.92,0.77,0.02,0.61,-0,-0,-0,0.77,0,0,89,43,99,911,0.0,123,466,60,118.0,0,1,0,0,0,0,0,0,250,250,0,414.87,45.747768,4.906553,0.0,193.2,0,0.0,-1,0.0,0.0,0,0.59,2.0207
121264,1563730173681,6,1.89,0.81,0.45,1.18,0.92,0.77,0.02,0.61,-0,-0,-0,0.77,0,0,90,43,99,911,0.0,123,467,60,118.0,0,1,0,0,0,0,0,0,250,250,0,414.87,,,,,,,,,,,,
121284,1563730173701,4,1.9,0.8,0.45,1.18,0.92,0.76,0.03,0.62,-0,-0,-0,0.77,0,0,89,43,99,911,0.0,123,467,60,118.0,0,1,0,0,0,0,0,0,250,250,0,414.87,,,,,,,,,,,,
121304,1563730173721,4,1.9,0.8,0.45,1.19,0.92,0.76,0.03,0.62,-0,-1,-0,0.76,0,0,89,43,99,911,0.0,123,466,60,118.0,0,1,0,0,0,0,0,0,250,250,0,414.87,,,,,,,,,,,,
121324,1563730173741,6,1.89,0.8,0.44,1.19,0.92,0.76,0.03,0.62,-0,-1,-0,0.76,0,0,89,43,99,912,0.0,123,467,60,118.0,0,1,0,0,0,0,0,0,250,250,0,414.87,,,,,,,,,,,,
121344,1563730173761,5,1.89,0.81,0.45,1.18,0.92,0.76,0.03,0.62,0,-1,-0,0.76,0,0,89,43,99,912,0.0,123,468,60,118.0,0,1,0,0,0,0,0,0,250,250,0,414.87,45.747768,4.906553,0.0,193.2,0,0.0,-1,0.0,0.0,0,0.59,2.0224
121364,1563730173781,6,1.88,0.81,0.45,1.19,0.92,0.76,0.03,0.62,0,-1,-0,0.76,0,0,89,43,99,912,0.0,123,469,60,118.0,0,1,0,0,0,0,0,0,250,250,0,414.87,,,,,,,,,,,,
121384,1563730173801,6,1.88,0.81,0.45,1.18,0.92,0.76,0.03,0.62,0,-1,-0,0.76,0,0,89,43,99,912,0.0,123,467,60,118.0,0,1,0,0,0,0,0,0,250,250,0,414.87,,,,,,,,,,,,
121404,1563730173821,6,1.88,0.81,0.45,1.19,0.92,0.76,0.03,0.62,0,-1,-0,0.76,0,0,89,43,99,912,0.0,123,466,60,118.0,0,1,0,0,0,0,0,0,250,250,0,414.87,,,,,,,,,,,,
121424,1563730173841,6,1.88,0.81,0.46,1.18,0.93,0.76,0.03,0.63,0,-1,-0,0.76,0,0,89,43,99,912,0.0,123,467,60,118.0,0,1,0,0,0,0,0,0,250,250,0,414.87,,,,,,,,,,,,
121444,1563730173861,6,1.88,0.81,0.45,1.19,0.92,0.76,0.03,0.63,0,-1,-0,0.76,0,0,89,43,99,912,0.0,122,466,60,118.0,0,1,0,0,0,0,0,0,250,250,0,414.87,45.747768,4.906554,0.0,193.1,0,0.0,-1,0.0,0.0,0,0.59,2.0241
121464,1563730173881,6,1.89,0.8,0.45,1.18,0.92,0.76,0.03,0.63,0,-1,-0,0.76,0,0,89,43,99,912,0.0,122,467,60,118.0,0,1,0,0,0,0,0,0,250,250,0,181.28,,,,,,,,,,,,
121484,1563730173902,5,1.89,0.8,0.45,1.18,0.91,0.76,0.03,0.62,0,-1,-0,0.76,0,0,89,43,99,912,0.0,122,467,60,118.0,0,1,0,0,0,0,0,0,250,250,0,414.87,,,,,,,,,,,,
121504,1563730173922,5,1.89,0.8,0.45,1.17,0.91,0.76,0.03,0.62,0,-1,-0,0.76,0,0,89,43,99,912,0.0,122,466,60,118.0,0,1,0,0,0,0,0,0,250,250,0,414.87,,,,,,,,,,,,
121524,1563730173942,6,1.88,0.8,0.44,1.17,0.9,0.76,0.03,0.62,0,-1,-0,0.76,0,0,89,43,99,912,0.0,122,467,60,118.0,0,1,0,0,0,0,0,0,250,250,0,414.87,,,,,,,,,,,,
121544,1563730173962,6,1.89,0.79,0.44,1.16,0.89,0.76,0.03,0.62,0,-1,-0,0.76,0,0,89,43,99,912,0.0,122,467,60,118.0,0,1,0,0,0,0,0,0,250,250,0,414.87,45.747768,4.906554,0.0,193.1,0,0.0,-1,0.0,0.0,0,0.59,2.0257
121564,1563730173982,6,1.89,0.79,0.43,1.15,0.9,0.76,0.03,0.62,0,-1,-0,0.76,0,0,89,43,99,913,0.0,122,467,60,118.0,0,1,0,0,0,0,0,0,250,250,0,414.87,,,,,,,,,,,,
121584,1563730173994,5,1.88,0.79,0.43,1.14,0.89,0.76,0.03,0.62,0,-1,-0,0.76,0,0,89,43,99,913,0.0,122,468,60,118.0,0,1,0,0,0,0,0,0,250,250,0,414.87,,,,,,,,,,,,
121604,1563730174014,6,1.88,0.79,0.42,1.15,0.88,0.76,0.03,0.62,0,-1,-0,0.76,0,0,89,43,99,912,0.0,122,467,60,118.0,0,1,0,0,0,0,0,0,250,250,0,414.87,,,,,,,,,,,,
121624,1563730174034,5,1.89,0.79,0.42,1.15,0.88,0.76,0.03,0.62,0,-1,-0,0.76,0,0,89,43,99,912,0.0,122,467,60,118.0,0,1,0,0,0,0,0,0,250,250,0,414.87,,,,,,,,,,,,
121644,1563730174054,6,1.88,0.78,0.42,1.14,0.88,0.76,0.03,0.61,0,-1,-0,0.76,0,0,89,43,99,912,0.0,122,466,60,118.0,0,1,0,0,0,0,0,0,250,250,0,414.87,45.747768,4.906554,0.0,193.1,0,0.0,-1,0.0,0.0,0,0.59,2.0274
121664,1563730174074,6,1.89,0.78,0.42,1.14,0.88,0.76,0.03,0.61,0,-1,-0,0.76,0,0,90,43,99,912,0.0,122,467,60,118.0,0,1,0,0,0,0,0,0,250,250,0,414.87,,,,,,,,,,,,
121684,1563730174100,5,1.89,0.78,0.42,1.13,0.87,0.76,0.03,0.61,0,-1,-0,0.76,0,0,90,43,99,912,0.0,122,467,60,118.0,0,1,0,0,0,0,0,0,250,250,0,414.87,,,,,,,,,,,,
121704,1563730174120,5,1.89,0.77,0.42,1.13,0.87,0.75,0.03,0.61,0,-1,-0,0.76,0,0,89,43,99,913,0.0,123,468,60,118.0,0,1,0,0,0,0,0,0,250,250,0,414.87,,,,,,,,,,,,
121724,1563730174140,5,1.88,0.78,0.41,1.13,0.87,0.76,0.03,0.6,0,-1,-0,0.76,0,0,89,43,99,913,0.0,123,465,60,118.0,0,1,0,0,0,0,0,0,250,250,0,414.87,,,,,,,,,,,,
121744,1563730174160,6,1.88,0.77,0.41,1.13,0.86,0.75,0.03,0.6,0,-0,-0,0.75,0,0,90,43,99,913,0.0,123,469,60,118.0,0,1,0,0,0,0,0,0,250,250,0,414.87,45.747768,4.906554,0.0,193.1,0,0.0,-1,0.0,0.0,0,0.59,2.0291
121764,1563730174180,5,1.88,0.77,0.41,1.13,0.87,0.75,0.04,0.6,0,-0,-0,0.75,0,0,89,43,99,913,0.0,123,466,60,118.0,0,1,0,0,0,0,0,0,250,250,0,414.87,,,,,,,,,,,,
121784,1563730174200,6,1.88,0.77,0.41,1.12,0.86,0.75,0.03,0.6,0,-0,-0,0.75,0,0,89,43,99,913,0.0,123,469,60,118.0,0,1,0,0,0,0,0,0,250,250,0,414.87,,,,,,,,,,,,
121804,1563730174220,5,1.87,0.77,0.41,1.13,0.86,0.75,0.04,0.6,0,-0,-0,0.75,0,0,90,43,99,913,0.0,123,467,60,118.0,0,1,0,0,0,0,0,0,250,250,0,414.87,,,,,,,,,,,,
121824,1563730174240,4,1.87,0.75,0.4,1.13,0.86,0.75,0.03,0.6,0,-0,-0,0.75,0,0,90,43,99,913,0.0,123,468,60,118.0,0,1,0,0,0,0,0,0,250,250,0,414.87,,,,,,,,,,,,
121844,1563730174260,4,1.87,0.77,0.42,1.12,0.86,0.75,0.03,0.6,0,-0,-0,0.75,0,0,90,43,99,913,0.0,123,467,60,118.0,0,1,0,0,0,0,0,0,250,250,0,414.87,45.747768,4.906554,0.0,193.1,0,0.0,-1,0.0,0.0,0,0.59,2.0307
121864,1563730174280,5,1.88,0.76,0.41,1.13,0.87,0.75,0.03,0.61,0,-0,-0,0.75,0,0,90,43,99,913,0.0,123,467,60,118.0,0,1,0,0,0,0,0,0,250,250,0,414.87,,,,,,,,,,,,
121884,1563730174300,6,1.89,0.77,0.41,1.13,0.86,0.75,0.03,0.61,0,-0,-0,0.75,0,0,90,43,99,914,0.0,123,467,60,118.0,0,1,0,0,0,0,0,0,250,250,0,414.87,,,,,,,,,,,,
121904,1563730174320,5,1.88,0.76,0.41,1.12,0.87,0.75,0.03,0.61,0,-1,-0,0.75,0,0,89,43,99,914,0.0,123,466,60,118.0,0,1,0,0,0,0,0,0,250,250,0,414.87,,,,,,,,,,,,
121924,1563730174340,5,1.88,0.76,0.41,1.13,0.86,0.75,0.03,0.61,0,-1,-0,0.75,0,0,90,43,99,914,0.0,123,468,60,118.0,0,1,0,0,0,0,0,0,250,250,0,414.87,,,,,,,,,,,,
121944,1563730174360,5,1.88,0.77,0.41,1.12,0.86,0.75,0.03,0.61,0,-1,-0,0.75,0,0,90,43,99,913,0.0,123,467,60,118.0,0,1,0,0,0,0,0,0,250,250,0,414.87,45.747768,4.906554,0.0,193.1,0,0.0,-1,0.0,0.0,0,0.59,2.0324
121964,1563730174380,5,1.87,0.77,0.4,1.12,0.86,0.75,0.03,0.61,0,-1,-0,0.75,0,0,90,43,99,914,0.0,123,468,60,118.0,0,1,0,0,0,0,0,0,250,250,0,414.87,,,,,,,,,,,,
121984,1563730174400,5,1.87,0.77,0.4,1.12,0.85,0.75,0.03,0.61,0,-1,-0,0.75,0,0,90,43,99,914,0.0,123,466,60,118.0,0,1,0,0,0,0,0,0,250,250,0,414.87,,,,,,,,,,,,
122004,1563730174420,5,1.87,0.76,0.4,1.11,0.85,0.75,0.03,0.62,0,-1,-0,0.76,0,0,90,43,99,914,0.0,123,468,60,118.0,0,1,0,0,0,0,0,0,250,250,0,414.87,,,,,,,,,,,,
122024,1563730174440,4,1.88,0.76,0.4,1.11,0.85,0.76,0.03,0.62,0,-0,-0,0.76,0,0,90,43,99,914,0.0,123,467,60,118.0,0,1,0,0,0,0,0,0,250,250,0,414.87,,,,,,,,,,,,
122044,1563730174460,4,1.89,0.76,0.41,1.12,0.85,0.76,0.03,0.62,0,-0,-0,0.76,0,0,90,43,99,914,0.0,123,467,60,118.0,0,1,0,0,0,0,0,0,250,250,0,414.87,45.747768,4.906554,0.0,193.1,0,0.0,-1,0.0,0.0,0,0.59,2.0341
122064,1563730174480,4,1.89,0.76,0.41,1.11,0.86,0.75,0.03,0.62,0,-0,-0,0.75,0,0,90,43,99,915,0.0,123,466,60,118.0,0,1,0,0,0,0,0,0,250,250,0,414.87,,,,,,,,,,,,
122084,1563730174502,5,1.89,0.76,0.41,1.11,0.86,0.75,0.03,0.62,0,-0,-0,0.75,0,0,90,43,99,915,0.0,123,467,60,118.0,0,1,0,0,0,0,0,0,250,250,0,414.87,,,,,,,,,,,,
122104,1563730174522,5,1.88,0.76,0.4,1.12,0.85,0.75,0.03,0.62,0,-0,-0,0.75,0,0,90,43,99,914,0.0,123,467,60,118.0,0,1,0,0,0,0,0,0,250,250,0,414.87,,,,,,,,,,,,
122124,1563730174542,5,1.89,0.76,0.4,1.12,0.85,0.75,0.03,0.62,0,-0,0,0.76,0,0,90,43,99,914,0.0,123,467,60,118.0,0,1,0,0,0,0,0,0,250,250,0,414.87,,,,,,,,,,,,
122144,1563730174562,5,1.89,0.76,0.41,1.11,0.86,0.75,0.03,0.62,0,-0,-0,0.76,0,0,90,43,99,914,0.0,123,466,60,118.0,0,1,0,0,0,0,0,0,250,250,0,414.87,45.747768,4.906554,0.0,193.1,0,0.0,-1,0.0,0.0,0,0.59,2.0357
122164,1563730174582,5,1.88,0.76,0.4,1.12,0.85,0.75,0.03,0.61,0,-0,0,0.75,0,0,90,43,99,914,0.0,123,467,60,118.0,0,1,0,0,0,0,0,0,250,250,0,414.87,,,,,,,,,,,,
122184,1563730174602,4,1.89,0.76,0.4,1.12,0.85,0.75,0.03,0.61,0,-0,-0,0.75,0,0,90,43,99,914,0.0,123,466,60,118.0,0,1,0,0,0,0,0,0,250,250,0,414.87,,,,,,,,,,,,
122204,1563730174622,4,1.89,0.76,0.41,1.11,0.86,0.75,0.03,0.61,0,-0,-0,0.75,0,0,90,43,99,914,0.0,123,468,60,118.0,0,1,0,0,0,0,0,0,250,250,0,414.87,,,,,,,,,,,,
122224,1563730174642,5,1.88,0.76,0.4,1.12,0.86,0.75,0.03,0.61,0,-0,-0,0.75,0,0,90,43,99,914,0.0,123,467,60,118.0,0,1,0,0,0,0,0,0,250,250,0,414.87,,,,,,,,,,,,
122244,1563730174662,6,1.88,0.76,0.41,1.11,0.87,0.75,0.03,0.61,0,-0,-0,0.75,0,0,90,43,99,914,0.0,123,466,60,118.0,0,1,0,0,0,0,0,0,250,250,0,414.87,45.747768,4.906554,0.0,193.1,0,0.0,-1,0.0,0.0,0,0.59,2.0374
122264,1563730174682,5,1.89,0.77,0.4,1.12,0.87,0.75,0.03,0.61,0,-0,-0,0.75,0,0,90,43,99,914,0.0,123,467,60,118.0,0,1,0,0,0,0,0,0,250,250,0,414.87,,,,,,,,,,,,
122284,1563730174702,4,1.88,0.77,0.41,1.11,0.87,0.75,0.03,0.61,0,-1,-0,0.75,0,0,90,43,99,914,0.0,123,468,60,118.0,0,1,0,0,0,0,0,0,250,250,0,414.87,,,,,,,,,,,,
122304,1563730174722,6,1.88,0.77,0.41,1.13,0.87,0.75,0.03,0.61,0,-1,-0,0.75,0,0,90,43,99,914,0.0,123,467,60,118.0,0,1,0,0,0,0,0,0,250,250,0,414.87,,,,,,,,,,,,
122324,1563730174742,6,1.88,0.76,0.41,1.12,0.87,0.75,0.03,0.61,0,-1,-0,0.76,0,0,90,43,99,914,0.0,123,466,60,118.0,0,1,0,0,0,0,0,0,250,250,0,414.87,,,,,,,,,,,,
122344,1563730174762,5,1.88,0.77,0.41,1.12,0.87,0.76,0.03,0.61,0,-1,-0,0.76,0,0,90,43,99,914,0.0,123,469,60,118.0,0,1,0,0,0,0,0,0,250,250,0,414.87,45.747768,4.906554,0.0,193.1,0,0.0,-1,0.0,0.0,0,0.59,2.0391
122364,1563730174782,5,1.87,0.77,0.41,1.12,0.86,0.75,0.03,0.61,0,-1,-0,0.75,0,0,90,43,99,914,0.0,123,466,60,118.0,0,1,0,0,0,0,0,0,250,250,0,181.28,,,,,,,,,,,,
122384,1563730174802,4,1.88,0.77,0.41,1.12,0.87,0.75,0.03,0.61,0,-1,-0,0.75,0,0,90,43,99,915,0.0,123,466,60,118.0,0,1,0,0,0,0,0,0,250,250,0,414.87,,,,,,,,,,,,
122404,1563730174822,4,1.87,0.77,0.41,1.12,0.87,0.75,0.03,0.61,0,-1,-0,0.76,0,0,90,43,99,915,0.0,123,465,60,118.0,0,1,0,0,0,0,0,0,250,250,0,414.87,,,,,,,,,,,,
122424,1563730174842,5,1.88,0.77,0.41,1.12,0.88,0.76,0.03,0.61,0,-1,-0,0.76,0,0,90,43,99,915,0.0,123,466,60,118.0,0,1,0,0,0,0,0,0,250,250,0,414.87,,,,,,,,,,,,
122444,1563730174862,5,1.88,0.76,0.41,1.13,0.87,0.76,0.03,0.61,0,-1,-0,0.76,0,0,90,43,99,915,0.0,122,466,60,118.0,0,1,0,0,0,0,0,0,250,250,0,414.87,45.747768,4.906554,0.0,193.1,0,0.0,-1,0.0,0.0,0,0.59,2.0407
122464,1563730174882,5,1.87,0.77,0.41,1.13,0.87,0.75,0.03,0.62,0,-1,-0,0.75,0,0,90,43,99,915,0.0,122,468,60,118.0,0,1,0,0,0,0,0,0,250,250,0,414.87,,,,,,,,,,,,
122484,1563730174901,4,1.88,0.77,0.42,1.12,0.88,0.75,0.03,0.62,0,-1,-0,0.75,0,0,90,43,99,915,0.0,122,465,60,118.0,0,1,0,0,0,0,0,0,250,250,0,414.87,,,,,,,,,,,,
122504,1563730174921,5,1.88,0.77,0.41,1.12,0.88,0.75,0.03,0.62,0,-1,-0,0.75,0,0,90,43,99,915,0.0,122,468,60,118.0,0,1,0,0,0,0,0,0,250,250,0,414.87,,,,,,,,,,,,
122524,1563730174941,5,1.88,0.77,0.42,1.13,0.88,0.75,0.03,0.62,0,-1,-0,0.76,0,0,90,43,99,915,0.0,122,466,60,118.0,0,1,0,0,0,0,0,0,250,250,0,414.87,,,,,,,,,,,,
122544,1563730174961,5,1.88,0.77,0.42,1.13,0.88,0.76,0.03,0.62,0,-1,-0,0.76,0,0,90,43,99,915,0.0,122,468,60,118.0,0,1,0,0,0,0,0,0,250,250,0,414.87,45.747768,4.906554,0.0,193.1,0,0.0,-1,0.0,0.0,0,0.59,2.0424
122564,1563730174981,6,1.87,0.78,0.42,1.13,0.88,0.76,0.03,0.62,0,-1,-0,0.76,0,0,90,43,99,915,0.0,122,466,60,118.0,0,1,0,0,0,0,0,0,250,250,0,414.87,,,,,,,,,,,,
122584,1563730174995,5,1.88,0.77,0.42,1.13,0.89,0.76,0.03,0.62,0,-1,-0,0.76,0,0,90,43,99,915,0.0,122,466,60,118.0,0,1,0,0,0,0,0,0,250,250,0,414.87,,,,,,,,,,,,
122604,1563730175015,4,1.88,0.77,0.42,1.13,0.89,0.76,0.03,0.62,0,-1,-0,0.76,0,0,90,43,99,916,0.0,122,466,60,118.0,0,1,0,0,0,0,0,0,250,250,0,414.87,,,,,,,,,,,,
122624,1563730175035,4,1.88,0.77,0.42,1.13,0.89,0.76,0.03,0.62,0,-1,-0,0.76,0,0,90,43,99,916,0.0,122,467,60,118.0,0,1,0,0,0,0,0,0,250,250,0,414.87,,,,,,,,,,,,
122644,1563730175055,5,1.88,0.78,0.42,1.13,0.88,0.75,0.03,0.62,0,-1,-0,0.76,0,0,90,43,99,916,0.0,122,466,60,118.0,0,1,0,0,0,0,0,0,250,250,0,414.87,45.747768,4.906554,0.0,193.1,0,0.0,-1,0.0,0.0,0,0.59,2.0441
122664,1563730175075,4,1.89,0.77,0.42,1.13,0.89,0.75,0.03,0.62,0,-1,-0,0.76,0,0,90,43,99,916,0.0,122,467,60,118.0,0,1,0,0,0,0,0,0,250,250,0,414.87,,,,,,,,,,,,
122684,1563730175101,5,1.89,0.77,0.43,1.13,0.89,0.76,0.03,0.62,0,-1,-0,0.76,0,0,90,43,99,916,0.0,122,466,60,118.0,0,1,0,0,0,0,0,0,250,250,0,414.87,,,,,,,,,,,,
122704,1563730175121,4,1.89,0.78,0.43,1.14,0.88,0.76,0.03,0.62,0,-1,-0,0.76,0,0,90,43,99,916,0.0,122,467,60,118.0,0,1,0,0,0,0,0,0,250,250,0,414.87,,,,,,,,,,,,
122724,1563730175141,4,1.89,0.78,0.43,1.14,0.89,0.76,0.03,0.62,0,-1,-0,0.76,0,0,90,43,99,916,0.0,122,465,60,118.0,0,1,0,0,0,0,0,0,250,250,0,414.87,,,,,,,,,,,,
122744,1563730175161,6,1.88,0.78,0.42,1.15,0.89,0.76,0.03,0.62,0,-1,-0,0.76,0,0,90,43,99,916,0.0,122,468,60,118.0,0,1,0,0,0,0,0,0,250,250,0,414.87,45.747768,4.906554,0.0,193.1,0,0.0,-1,0.0,0.0,0,0.59,2.0457
122764,1563730175181,5,1.89,0.78,0.42,1.15,0.89,0.76,0.03,0.62,0,-0,-0,0.76,0,0,90,43,99,916,0.0,122,466,60,118.0,0,1,0,0,0,0,0,0,250,250,0,414.87,,,,,,,,,,,,
122784,1563730175201,6,1.88,0.77,0.43,1.14,0.9,0.76,0.03,0.62,0,-0,-0,0.76,0,0,90,43,99,916,0.0,122,467,60,118.0,0,1,0,0,0,0,0,0,250,250,0,414.87,,,,,,,,,,,,
122804,1563730175221,4,1.89,0.78,0.43,1.14,0.9,0.76,0.03,0.62,0,-1,-0,0.76,0,0,90,43,99,916,0.0,122,468,60,118.0,0,1,0,0,0,0,0,0,250,250,0,414.87,,,,,,,,,,,,
122824,1563730175241,6,1.88,0.78,0.43,1.15,0.89,0.75,0.03,0.62,0,-1,-0,0.75,0,0,90,43,99,916,0.0,123,467,60,118.0,0,1,0,0,0,0,0,0,250,250,0,414.87,,,,,,,,,,,,
122844,1563730175261,6,1.87,0.78,0.43,1.14,0.9,0.75,0.03,0.62,0,-0,-0,0.76,0,0,90,43,99,916,0.0,123,467,60,118.0,0,1,0,0,0,0,0,0,250,250,0,414.87,45.747768,4.906554,0.0,193.1,0,0.0,-1,0.0,0.0,0,0.59,2.0474
122864,1563730175281,6,1.87,0.78,0.43,1.15,0.89,0.76,0.03,0.62,0,-0,-0,0.76,0,0,90,43,99,916,0.0,123,468,60,118.0,0,1,0,0,0,0,0,0,250,250,0,414.87,,,,,,,,,,,,
122884,1563730175301,4,1.88,0.77,0.43,1.14,0.9,0.75,0.03,0.62,0,-0,-0,0.75,0,0,90,43,99,916,0.0,123,467,60,118.0,0,1,0,0,0,0,0,0,250,250,0,414.87,,,,,,,,,,,,
122904,1563730175321,5,1.88,0.78,0.43,1.15,0.89,0.75,0.03,0.62,0,-0,-0,0.75,0,0,90,43,99,916,0.0,123,465,60,118.0,0,1,0,0,0,0,0,0,250,250,0,414.87,,,,,,,,,,,,
122924,1563730175341,6,1.88,0.77,0.43,1.15,0.9,0.75,0.03,0.62,0,-0,-0,0.75,0,0,90,43,99,917,0.0,123,468,60,118.0,0,1,0,0,0,0,0,0,250,250,0,414.87,,,,,,,,,,,,
122944,1563730175361,6,1.87,0.78,0.43,1.15,0.89,0.75,0.03,0.62,0,-0,-0,0.75,0,0,90,43,99,917,0.0,123,467,60,118.0,0,1,0,0,0,0,0,0,250,250,0,414.87,45.747768,4.906554,0.0,193.1,0,0.0,-1,0.0,0.0,0,0.59,2.0491
122964,1563730175381,6,1.87,0.78,0.43,1.14,0.9,0.75,0.03,0.62,0,-0,-0,0.75,0,0,90,43,99,917,0.0,123,466,60,118.0,0,1,0,0,0,0,0,0,250,250,0,414.87,,,,,,,,,,,,
122984,1563730175401,4,1.88,0.78,0.43,1.15,0.89,0.75,0.03,0.61,0,-0,-0,0.75,0,0,90,43,99,916,0.0,123,467,60,118.0,0,1,0,0,0,0,0,0,250,250,0,414.87,,,,,,,,,,,,
123004,1563730175421,5,1.87,0.78,0.43,1.15,0.9,0.75,0.03,0.61,0,-0,-0,0.75,0,0,90,43,99,916,0.0,123,466,60,118.0,0,1,0,0,0,0,0,0,250,250,0,181.28,,,,,,,,,,,,
123024,1563730175441,6,1.87,0.77,0.43,1.15,0.9,0.75,0.03,0.61,0,-0,-0,0.75,0,0,90,43,99,916,0.0,123,467,60,118.0,0,1,0,0,0,0,0,0,250,250,0,414.87,,,,,,,,,,,,
123044,1563730175461,6,1.87,0.78,0.43,1.14,0.9,0.75,0.03,0.61,0,-1,-0,0.75,0,0,90,43,99,917,0.0,123,467,60,118.0,0,1,0,0,0,0,0,0,250,250,0,414.87,45.747768,4.906554,0.0,193.1,0,0.0,-1,0.0,0.0,0,0.59,2.0507
123064,1563730175481,4,1.87,0.78,0.43,1.15,0.89,0.75,0.03,0.61,0,-1,-0,0.75,0,0,90,43,99,917,0.0,123,467,60,118.0,0,1,0,0,0,0,0,0,250,250,0,414.87,,,,,,,,,,,,
123084,1563730175501,6,1.87,0.77,0.43,1.15,0.89,0.75,0.03,0.61,0,-1,-0,0.75,0,0,90,43,99,917,0.0,123,466,60,118.0,0,1,0,0,0,0,0,0,250,250,0,414.87,,,,,,,,,,,,
123104,1563730175521,4,1.87,0.78,0.43,1.15,0.89,0.75,0.03,0.62,0,-1,-0,0.75,0,0,90,43,99,917,0.0,123,467,60,118.0,0,1,0,0,0,0,0,0,250,250,0,414.87,,,,,,,,,,,,
123124,1563730175541,4,1.88,0.78,0.43,1.16,0.89,0.75,0.03,0.62,0,-1,-0,0.75,0,0,90,43,99,917,0.0,123,468,60,118.0,0,1,0,0,0,0,0,0,250,250,0,414.87,,,,,,,,,,,,
123144,1563730175561,5,1.87,0.79,0.43,1.15,0.9,0.75,0.03,0.62,0,-1,-0,0.75,0,0,90,43,99,917,0.0,123,466,60,118.0,0,1,0,0,0,0,0,0,250,250,0,414.87,45.747768,4.906554,0.0,193.1,0,0.0,-1,0.0,0.0,0,0.59,2.0524
123164,1563730175581,4,1.87,0.78,0.43,1.16,0.89,0.75,0.03,0.62,0,-1,-0,0.75,0,0,90,43,99,917,0.0,123,467,60,118.0,0,1,0,0,0,0,0,0,250,250,0,414.87,,,,,,,,,,,,
123184,1563730175601,4,1.87,0.78,0.43,1.15,0.89,0.75,0.03,0.62,0,-1,-0,0.75,0,0,90,43,99,917,0.0,123,467,60,118.0,0,1,0,0,0,0,0,0,250,250,0,414.87,,,,,,,,,,,,
123204,1563730175621,6,1.86,0.78,0.43,1.16,0.89,0.75,0.03,0.62,0,-1,-0,0.76,0,0,90,43,99,917,0.0,123,467,60,118.0,0,1,0,0,0,0,0,0,250,250,0,414.87,,,,,,,,,,,,
123224,1563730175641,4,1.87,0.78,0.43,1.15,0.9,0.76,0.03,0.62,0,-1,-0,0.76,0,0,90,43,99,917,0.0,123,467,60,118.0,0,1,0,0,0,0,0,0,250,250,0,414.87,,,,,,,,,,,,
123244,1563730175661,6,1.87,0.78,0.44,1.15,0.9,0.76,0.03,0.62,0,-1,-0,0.76,0,0,90,43,99,917,0.0,123,466,60,118.0,0,1,0,0,0,0,0,0,250,250,0,414.87,45.747768,4.906554,0.0,193.1,0,0.0,-1,0.0,0.0,0,0.59,2.0541
123264,1563730175681,5,1.87,0.78,0.43,1.15,0.89,0.76,0.03,0.62,0,-1,-0,0.76,0,0,90,43,99,917,0.0,123,467,60,118.0,0,1,0,0,0,0,0,0,250,250,0,414.87,,,,,,,,,,,,
123284,1563730175701,5,1.87,0.78,0.43,1.15,0.9,0.76,0.03,0.62,0,-1,-0,0.76,0,0,90,43,99,917,0.0,123,467,60,118.0,0,1,0,0,0,0,0,0,250,250,0,414.87,,,,,,,,,,,,
123304,1563730175721,6,1.87,0.78,0.43,1.15,0.9,0.76,0.03,0.62,0,-1,-0,0.76,0,0,90,43,99,917,0.0,123,466,60,118.0,0,1,0,0,0,0,0,0,250,250,0,414.87,,,,,,,,,,,,
123324,1563730175741,6,1.87,0.78,0.43,1.15,0.9,0.76,0.03,0.62,0,-0,-0,0.76,0,0,90,43,99,917,0.0,123,467,60,118.0,0,1,0,0,0,0,0,0,250,250,0,414.87,,,,,,,,,,,,
123344,1563730175761,4,1.88,0.78,0.43,1.15,0.9,0.76,0.03,0.62,0,-0,-0,0.76,0,0,90,43,99,917,0.0,123,469,60,118.0,0,1,0,0,0,0,0,0,250,250,0,414.87,45.747768,4.906554,0.0,193.1,0,0.0,-1,0.0,0.0,0,0.59,2.0557
123364,1563730175781,4,1.88,0.78,0.43,1.16,0.89,0.76,0.03,0.62,0,-0,-0,0.76,0,0,90,43,99,917,0.0,123,466,60,118.0,0,1,0,0,0,0,0,0,250,250,0,414.87,,,,,,,,,,,,
123384,1563730175801,6,1.87,0.78,0.43,1.16,0.9,0.76,0.03,0.62,0,-0,-0,0.76,0,0,90,43,99,917,0.0,122,466,60,118.0,0,1,0,0,0,0,0,0,250,250,0,414.87,,,,,,,,,,,,
123404,1563730175821,5,1.87,0.78,0.43,1.16,0.9,0.76,0.03,0.62,0,-0,-0,0.76,0,0,90,43,99,917,0.0,122,467,60,118.0,0,1,0,0,0,0,0,0,250,250,0,414.87,,,,,,,,,,,,
123424,1563730175841,5,1.87,0.78,0.44,1.15,0.9,0.76,0.03,0.62,0,-0,-0,0.76,0,0,90,43,99,917,0.0,122,469,60,118.0,0,1,0,0,0,0,0,0,250,250,0,414.87,,,,,,,,,,,,
123444,1563730175861,4,1.88,0.78,0.44,1.16,0.89,0.76,0.03,0.62,0,-0,-0,0.76,0,0,90,43,99,918,0.0,122,466,60,120.0,0,1,0,0,0,0,0,0,250,250,0,414.87,45.747768,4.906554,0.0,193.1,0,0.0,-1,0.0,0.0,0,0.59,2.0574
123464,1563730175881,5,1.88,0.78,0.44,1.15,0.9,0.75,0.03,0.62,0,-0,-0,0.75,0,0,90,43,99,918,0.0,122,461,60,120.0,0,1,0,0,0,0,0,0,250,250,0,414.87,,,,,,,,,,,,
123484,1563730175901,6,1.87,0.79,0.43,1.16,0.9,0.75,0.03,0.62,0,-0,-0,0.75,0,0,90,43,99,917,0.0,122,431,60,120.0,0,1,0,0,0,0,0,0,250,250,0,414.87,,,,,,,,,,,,
123504,1563730175921,6,1.87,0.79,0.43,1.16,0.9,0.75,0.03,0.62,0,-0,-0,0.75,0,0,90,43,99,917,0.0,122,408,60,120.0,0,1,0,0,0,0,0,0,250,250,0,414.87,,,,,,,,,,,,
123524,1563730175941,6,1.87,0.79,0.43,1.15,0.9,0.75,0.03,0.62,0,-0,-0,0.75,0,0,90,43,99,918,0.0,122,401,60,120.0,0,1,0,0,0,0,0,0,250,250,0,414.87,,,,,,,,,,,,
123544,1563730175961,6,1.87,0.79,0.43,1.16,0.9,0.75,0.03,0.62,0,-0,-0,0.75,0,0,90,43,99,918,0.0,122,396,60,120.0,0,1,0,0,0,0,0,0,250,250,0,414.87,45.747768,4.906554,0.0,193.1,0,0.0,-1,0.0,0.0,0,0.59,2.0591
123564,1563730175981,4,1.87,0.79,0.43,1.15,0.89,0.75,0.03,0.62,0,-0,-0,0.75,0,0,90,43,99,918,0.0,122,393,60,120.0,0,1,0,0,0,0,0,0,250,250,0,414.87,,,,,,,,,,,,
123584,1563730175994,4,1.87,0.78,0.44,1.16,0.9,0.75,0.03,0.62,0,-0,-0,0.75,0,0,90,43,99,918,0.0,122,393,60,120.0,0,1,0,0,0,0,0,0,250,250,0,414.87,,,,,,,,,,,,
123604,1563730176014,6,1.87,0.78,0.43,1.16,0.9,0.75,0.03,0.62,0,-1,-0,0.75,0,0,90,43,99,919,0.0,122,390,60,120.0,0,1,0,0,0,0,0,0,250,250,0,414.87,,,,,,,,,,,,
123624,1563730176034,5,1.88,0.78,0.44,1.16,0.9,0.75,0.03,0.62,0,-1,-0,0.75,0,0,90,43,99,919,0.0,122,389,60,120.0,0,1,0,0,0,0,0,0,250,250,0,414.87,,,,,,,,,,,,
123644,1563730176054,4,1.88,0.79,0.44,1.16,0.9,0.75,0.03,0.62,0,-1,-0,0.75,0,0,90,43,99,919,0.0,122,387,60,120.0,0,1,0,0,0,0,0,0,250,250,0,414.87,45.747768,4.906554,0.0,193.1,0,0.0,-1,0.0,0.0,0,0.59,2.0607
123664,1563730176074,6,1.87,0.79,0.43,1.16,0.9,0.75,0.03,0.62,0,-1,-0,0.75,0,0,90,43,99,919,0.0,122,387,60,120.0,0,1,0,0,0,0,0,0,250,250,0,414.87,,,,,,,,,,,,
123684,1563730176100,6,1.87,0.78,0.43,1.16,0.9,0.75,0.03,0.62,0,-1,-0,0.75,0,0,90,43,99,919,0.0,122,387,60,120.0,0,1,0,0,0,0,0,0,250,250,0,414.87,,,,,,,,,,,,
123704,1563730176120,4,1.87,0.79,0.44,1.16,0.9,0.75,0.03,0.62,0,-1,-0,0.75,0,0,90,43,99,919,0.0,122,384,60,120.0,0,1,0,0,0,0,0,0,250,250,0,414.87,,,,,,,,,,,,
123724,1563730176140,5,1.87,0.79,0.44,1.16,0.9,0.75,0.03,0.62,0,-1,-0,0.75,0,0,90,43,99,919,0.0,122,384,60,120.0,0,1,0,0,0,0,0,0,250,250,0,414.87,,,,,,,,,,,,
123744,1563730176160,6,1.87,0.79,0.43,1.17,0.9,0.75,0.03,0.62,0,-1,-0,0.75,0,0,90,43,99,919,0.0,122,384,60,120.0,0,1,0,0,0,0,0,0,250,250,0,414.87,45.747768,4.906554,0.0,193.1,0,0.0,-1,0.0,0.0,0,0.59,2.0624
123764,1563730176180,4,1.87,0.79,0.44,1.16,0.9,0.75,0.03,0.62,0,-1,-0,0.76,0,0,90,43,99,919,0.0,122,384,60,120.0,0,1,0,0,0,0,0,0,250,250,0,414.87,,,,,,,,,,,,
123784,1563730176200,6,1.86,0.79,0.43,1.16,0.9,0.75,0.03,0.62,0,-1,-0,0.76,0,0,90,43,99,919,0.0,122,383,60,120.0,0,1,0,0,0,0,0,0,250,250,0,414.87,,,,,,,,,,,,
123804,1563730176220,4,1.86,0.79,0.43,1.16,0.9,0.76,0.03,0.62,0,-1,-0,0.76,0,0,90,43,99,919,0.0,122,382,60,120.0,0,1,0,0,0,0,0,0,250,250,0,414.87,,,,,,,,,,,,
123824,1563730176240,5,1.86,0.79,0.44,1.16,0.9,0.76,0.03,0.62,0,-1,-0,0.76,0,0,90,43,99,919,0.0,122,382,60,120.0,0,1,0,0,0,0,0,0,250,250,0,414.87,,,,,,,,,,,,
123844,1563730176260,6,1.87,0.79,0.44,1.16,0.91,0.76,0.03,0.62,0,-1,-0,0.76,0,0,90,43,99,919,0.0,122,382,60,120.0,0,1,0,0,0,0,0,0,250,250,0,414.87,45.747768,4.906554,0.0,193.1,0,0.0,-1,0.0,0.0,0,0.59,2.0641
123864,1563730176280,4,1.88,0.79,0.43,1.16,0.91,0.76,0.03,0.62,0,-1,-0,0.76,0,0,90,43,99,919,0.0,122,382,60,120.0,0,1,0,0,0,0,0,0,250,250,0,414.87,,,,,,,,,,,,
123884,1563730176296,6,1.87,0.78,0.43,1.17,0.9,0.76,0.03,0.62,0,-1,-0,0.76,0,0,90,43,99,919,0.0,122,379,60,120.0,0,1,0,0,0,0,0,0,250,250,0,414.87,,,,,,,,,,,,
123904,1563730176316,5,1.88,0.78,0.44,1.16,0.91,0.76,0.03,0.62,0,-1,-0,0.76,0,0,90,43,99,919,0.0,122,379,60,120.0,0,1,0,0,0,0,0,0,250,250,0,414.87,,,,,,,,,,,,
123924,1563730176336,6,1.86,0.79,0.43,1.17,0.91,0.76,0.03,0.62,0,-1,-0,0.76,0,0,90,43,99,919,0.0,122,379,60,120.0,0,1,0,0,0,0,0,0,250,250,0,414.87,,,,,,,,,,,,
123944,1563730176356,5,1.87,0.79,0.44,1.17,0.9,0.76,0.03,0.62,0,-1,-0,0.76,0,0,90,43,99,920,0.0,122,379,60,120.0,0,1,0,0,0,0,0,0,250,250,0,414.87,45.747768,4.906554,0.0,193.1,0,0.0,-1,0.0,0.0,0,0.59,2.0657
123964,1563730176376,4,1.88,0.79,0.44,1.16,0.91,0.76,0.03,0.62,0,-1,-0,0.76,0,0,90,43,99,920,0.0,122,379,60,120.0,0,1,0,0,0,0,0,0,250,250,0,414.87,,,,,,,,,,,,
123984,1563730176402,5,1.88,0.79,0.43,1.17,0.9,0.76,0.03,0.62,0,-0,-0,0.76,0,0,90,43,99,920,0.0,122,376,60,120.0,0,1,0,0,0,0,0,0,250,250,0,414.87,,,,,,,,,,,,
