"Interval"|"ms"|0|0|1,"Utc"|"ms"|0|0|1,"FB_p"|"bar"|0|300|50,"Volant"|"F"|0.0|300.0|50,"xFR"|"mm"|0.0|5.0|50,"xRR"|"mm"|0.0|5.0|50,"xFL"|"mm"|0.0|5.0|50,"xRL"|"mm"|0.0|5.0|50,"AccelX"|"G"|-3.0|3.0|50,"AccelY"|"G"|-3.0|3.0|50,"AccelZ"|"G"|-3.0|3.0|50,"Yaw"|"Deg/Sec"|-120|120|50,"Pitch"|"Deg/Sec"|-120|120|50,"Roll"|"Deg/Sec"|-120|120|50,"Gsum"|"G"|0.0|3.0|50,"RPM"|""|0|14000|50,"TPS"|"%"|0|100|50,"WaterTemp"|"?C"|0|300|50,"AirTemp"|"?C"|-1000|1000|50,"MAP"|"KPa"|0|255|50,"Lambda"|""|0|1024|50,"WheelSpeed"|"MPH"|0.0|150.0|50,"OilPress"|"PSI"|0|150|50,"FuelPress"|"PSI"|0|150|50,"OilTemp"|"F"|0|300|50,"Battery"|"Volts"|0.0|20.0|50,"FuelCon"|"L/h"|-1000|1000|50,"Gear"|""|0|10|50,"Advance"|"Deg"|-360|360|50,"Injection"|"ms"|-1000|1000|50,"FuelCon"|"L/100km"|-1000|1000|50,"LC_But_Pres"|""|-1000|1000|50,"LC_Active"|""|-1000|1000|50,"RD_Speed"|""|-1000|1000|50,"RUD_Speed"|""|-1000|1000|50,"LD_Speed"|""|-1000|1000|50,"LUD_Speed"|""|-1000|1000|50,"Ana1"|"bar"|-1000.0|1000.0|50,"Latitude"|"Degrees"|-180.0|180.0|10,"Longitude"|"Degrees"|-180.0|180.0|10,"Speed"|"kph"|0.0|150.0|10,"Altitude"|"m"|0.0|4000.0|10,"LapCount"|""|0|0|10,"LapTime"|"Min"|0.0|0.0|10,"Sector"|""|0|0|10,"SectorTime"|"Min"|0.0|0.0|10,"ElapsedTime"|"Min"|0.0|0.0|10,"CurrentLap"|""|0|0|10,"Distance"|"km"|0.0|0.0|10,"SessionTime"|"Min"|0.0|0.0|10
100863,1561290553188,3,2.34,1.86,3.1,1.66,3.47,0.83,-0.06,0.17,2,0,1,0.83,9186,3,80,34,23,945,507.0,642,458,60,123.0,121,1,270,176,62,0,0,488,11560,771,507,-5.59,,,,,,,,,,,,
100883,1561290553210,4,2.33,1.87,3.09,1.67,3.48,0.92,-0.25,0.25,2,1,0,0.95,9132,3,80,34,22,943,503.0,639,461,60,123.0,121,1,270,170,62,0,0,486,2524,-6656,503,-5.59,,,,,,,,,,,,
100903,1561290553230,4,2.34,1.87,3.09,1.66,3.45,1.0,-0.28,0.3,2,1,0,1.04,9053,3,80,34,22,941,500.0,642,457,60,122.0,121,1,270,170,62,0,0,489,998,505,500,-5.59,,,,,,,,,,,,
100923,1561290553250,5,2.33,1.84,3.1,1.65,3.45,1.09,-0.34,0.32,2,1,-1,1.14,9018,3,80,34,22,941,494.0,642,458,60,122.0,117,1,270,170,58,0,0,480,248,3580,494,-5.59,,,,,,,,,,,,
100943,1561290553270,6,2.33,1.84,3.11,1.65,3.48,1.17,-0.31,0.38,2,2,-2,1.22,8962,3,80,34,22,941,492.0,635,458,60,122.0,117,1,270,170,58,0,0,476,-6656,-23367,492,-5.59,45.699829,4.91029,50.78,195.1,2,0.45,0,0.0,0.185,3,0.1,1.6824
100963,1561290553290,6,2.33,1.83,3.1,1.66,3.48,1.26,-0.39,0.38,2,2,-1,1.32,8886,3,80,34,21,945,492.0,631,458,60,122.0,117,1,270,164,58,0,0,477,1,-23367,491,-5.59,,,,,,,,,,,,
100983,1561290553310,4,2.33,1.85,3.09,1.65,3.48,1.26,-0.32,0.3,2,3,-2,1.3,8861,3,80,34,21,954,491.0,632,460,60,122.0,117,1,270,164,58,0,0,472,-6441,-23367,489,-5.59,,,,,,,,,,,,
101003,1561290553330,5,2.33,1.89,3.1,1.66,3.49,1.25,-0.45,0.23,2,4,-3,1.33,8802,3,80,34,21,963,486.0,633,461,60,122.0,117,1,270,164,58,0,0,467,8488,10432,486,-5.59,,,,,,,,,,,,
101023,1561290553350,5,2.33,1.89,3.08,1.66,3.48,1.1,-0.56,0.2,2,4,-1,1.23,8753,3,80,34,21,972,483.0,632,458,60,122.0,111,1,270,164,54,0,0,471,10305,8488,483,181.28,,,,,,,,,,,,
101043,1561290553370,9,2.34,1.86,3.09,1.66,3.5,0.97,-0.6,0.21,2,4,-3,1.14,8700,3,80,34,20,986,478.0,637,459,60,123.0,111,1,270,157,54,0,0,463,-17956,12552,480,181.28,45.699822,4.910305,49.7,195.1,2,0.45,0,0.0,0.1867,3,0.1,1.6841
101063,1561290553390,7,2.33,1.83,3.11,1.64,3.51,1.05,-0.46,0.26,3,3,1,1.15,8636,3,80,34,20,1013,478.0,631,458,60,121.0,111,1,270,157,54,0,0,459,3576,30272,478,-5.59,,,,,,,,,,,,
101083,1561290553410,5,2.34,1.84,3.11,1.64,3.52,1.13,-0.3,0.3,2,1,-2,1.17,8534,3,80,34,20,1038,474.0,633,460,60,122.0,111,1,270,157,54,0,0,458,8488,2524,474,-5.59,,,,,,,,,,,,
101103,1561290553430,10,2.34,1.83,3.12,1.62,3.52,0.99,-0.42,0.19,2,4,-0,1.07,8461,3,80,34,20,1057,471.0,634,462,60,123.0,111,1,270,156,54,0,0,459,-3210,-6387,472,181.28,,,,,,,,,,,,
101123,1561290553450,8,2.34,1.8,3.12,1.61,3.52,1.04,-0.38,0.23,3,2,-0,1.11,8389,3,80,34,20,1078,468.0,632,461,60,121.0,104,1,270,155,49,0,0,450,16408,10305,468,-5.59,,,,,,,,,,,,
101143,1561290553470,6,2.34,1.79,3.12,1.62,3.5,1.02,-0.32,0.19,3,3,-1,1.07,8366,3,80,34,20,1108,466.0,630,457,60,122.0,104,1,270,154,49,0,0,447,-18108,-26615,466,181.28,45.699814,4.910319,48.25,195.1,2,0.45,0,0.0,0.1883,3,0.1,1.6857
101163,1561290553490,7,2.35,1.79,3.09,1.63,3.49,1.06,-0.37,0.23,3,1,3,1.12,8322,3,80,34,21,1137,464.0,632,458,60,122.0,104,1,270,158,49,0,0,450,-9160,21432,464,414.87,,,,,,,,,,,,
101183,1561290553510,6,2.35,1.79,3.1,1.64,3.48,1.09,-0.34,0.27,3,-0,-0,1.15,8270,3,80,34,21,1146,456.0,628,460,60,123.0,104,1,270,157,49,0,0,441,-8985,26704,456,181.28,,,,,,,,,,,,
101203,1561290553530,8,2.35,1.77,3.14,1.62,3.48,1.03,-0.35,0.29,3,1,3,1.09,8230,3,80,34,21,1157,454.0,631,461,60,122.0,104,1,270,155,49,0,0,439,-3267,13180,454,-5.59,,,,,,,,,,,,
101223,1561290553550,6,2.34,1.74,3.16,1.62,3.48,0.94,-0.32,0.28,3,1,2,0.99,8180,3,80,34,21,1181,454.0,627,458,60,122.0,104,1,270,154,49,0,0,435,2131,-3322,454,-5.59,,,,,,,,,,,,
101243,1561290553570,8,2.34,1.75,3.11,1.63,3.47,1.04,-0.35,0.33,3,1,2,1.1,8074,3,80,34,22,1207,451.0,622,460,60,122.0,103,1,270,153,47,0,0,434,-18341,26704,451,181.28,45.699806,4.910333,46.96,195.1,2,0.45,0,0.0,0.19,3,0.1,1.6874
101263,1561290553590,8,2.35,1.74,3.08,1.64,3.46,0.93,-0.31,0.3,3,1,4,0.98,7992,3,80,35,22,1224,446.0,629,457,60,122.0,103,1,269,150,47,0,0,433,21580,3635,447,414.87,,,,,,,,,,,,
101283,1561290553610,6,2.34,1.73,3.1,1.63,3.46,0.91,-0.33,0.33,3,1,2,0.97,7968,3,80,35,23,1237,441.0,622,458,60,123.0,103,1,269,153,47,0,0,433,19477,13552,441,181.28,,,,,,,,,,,,
101303,1561290553630,5,2.34,1.69,3.11,1.6,3.48,0.97,-0.29,0.41,3,1,3,1.01,7904,3,80,35,23,1262,439.0,620,461,60,121.0,103,1,269,153,47,0,0,418,-768,-3414,439,-5.59,,,,,,,,,,,,
101323,1561290553650,8,2.34,1.65,3.11,1.62,3.48,0.96,-0.22,0.39,3,-1,4,0.98,7812,3,79,35,23,1284,438.0,636,458,60,123.0,102,1,268,153,45,0,0,419,1779,2524,438,414.87,,,,,,,,,,,,
101343,1561290553670,10,2.34,1.67,3.08,1.65,3.47,0.78,-0.22,0.3,3,-2,4,0.81,7757,3,79,35,23,1294,433.0,624,458,60,123.0,102,1,267,153,45,0,0,417,3635,3826,433,181.28,45.699799,4.910346,45.32,195.1,2,0.45,0,0.0,0.1917,3,0.1,1.689
101363,1561290553690,8,2.35,1.69,3.08,1.64,3.49,0.69,-0.31,0.22,4,-1,3,0.75,7693,3,80,35,23,1300,429.0,619,462,60,123.0,102,1,266,153,45,0,0,413,-21792,-9166,429,181.28,,,,,,,,,,,,
101383,1561290553710,11,2.35,1.69,3.1,1.65,3.5,0.65,-0.31,0.19,4,0,4,0.72,7668,3,79,35,23,1312,425.0,617,460,60,122.0,102,1,266,153,45,0,0,411,-8165,-26615,425,181.28,,,,,,,,,,,,
101403,1561290553730,6,2.35,1.68,3.09,1.63,3.52,0.74,-0.3,0.26,4,4,5,0.8,7584,3,79,35,23,1325,422.0,623,460,60,123.0,102,1,265,153,45,0,0,401,18584,2524,422,-5.59,,,,,,,,,,,,
101423,1561290553750,7,2.35,1.68,3.1,1.64,3.52,0.87,-0.27,0.25,4,5,4,0.91,7533,3,80,35,23,1335,422.0,616,461,60,122.0,101,1,264,153,43,0,0,406,2524,2524,420,-5.59,,,,,,,,,,,,
101443,1561290553770,9,2.36,1.67,3.05,1.63,3.47,0.98,-0.3,0.4,4,4,4,1.03,7443,3,80,35,23,1339,416.0,608,458,60,123.0,101,1,264,153,43,0,0,406,-4059,10392,416,181.28,45.699791,4.910358,43.57,195.1,2,0.45,0,0.0,0.1933,3,0.1,1.6907
101463,1561290553790,8,2.37,1.67,3.03,1.63,3.48,0.96,-0.26,0.36,4,6,5,1.0,7434,3,80,35,23,1343,414.0,612,459,60,122.0,101,1,264,153,43,0,0,395,-26615,6512,414,-5.59,,,,,,,,,,,,
101483,1561290553809,9,2.37,1.65,3.06,1.62,3.52,0.9,-0.33,0.4,4,10,7,0.96,7387,3,80,35,23,1345,412.0,615,460,60,123.0,101,1,263,153,43,0,0,391,1504,-6524,412,181.28,,,,,,,,,,,,
101503,1561290553829,9,2.37,1.63,3.06,1.61,3.51,0.81,-0.36,0.35,4,10,6,0.88,7341,3,79,35,23,1344,410.0,610,462,60,123.0,101,1,263,150,43,0,0,391,11545,-6656,410,181.28,,,,,,,,,,,,
101523,1561290553849,7,2.38,1.65,3.07,1.63,3.53,0.64,-0.43,0.29,5,10,5,0.77,7256,3,79,35,22,1342,410.0,615,462,60,122.0,100,1,262,150,41,0,0,386,28696,1,410,414.87,,,,,,,,,,,,
101543,1561290553869,6,2.39,1.66,3.04,1.69,3.53,0.63,-0.42,0.16,6,9,6,0.76,7225,3,79,35,22,1336,405.0,603,462,60,121.0,100,1,262,150,41,0,0,381,17144,505,405,414.87,45.699787,4.91037,42.31,195.1,2,0.45,0,0.0,0.195,3,0.11,1.6924
101563,1561290553889,4,2.41,1.65,3.03,1.71,3.52,0.77,-0.4,0.27,7,5,7,0.87,7186,3,80,35,22,1328,402.0,602,456,60,122.0,100,1,261,150,41,0,0,378,505,17144,402,-5.59,,,,,,,,,,,,
101583,1561290553909,9,2.42,1.63,3.02,1.72,3.53,0.9,-0.36,0.3,8,4,7,0.97,7170,3,80,35,22,1320,401.0,602,460,60,122.0,100,1,261,150,41,0,0,378,240,-6524,400,-5.59,,,,,,,,,,,,
101603,1561290553929,7,2.43,1.61,3.03,1.74,3.56,0.8,-0.4,0.29,8,5,7,0.89,7172,3,80,35,21,1316,397.0,605,460,60,123.0,100,1,261,148,41,0,0,369,-6475,505,397,-5.59,,,,,,,,,,,,
101623,1561290553949,5,2.43,1.59,3.02,1.76,3.58,0.72,-0.49,0.22,8,7,7,0.87,7091,3,79,35,21,1298,396.0,608,458,60,123.0,100,1,260,148,41,0,0,366,-992,-1562,396,181.28,,,,,,,,,,,,
101643,1561290553969,4,2.43,1.57,3.02,1.76,3.57,0.78,-0.52,0.2,9,4,8,0.94,7033,3,80,36,21,1262,395.0,598,460,60,122.0,98,1,260,148,39,0,0,369,-6656,240,395,181.28,45.69978,4.910382,40.5,195.1,2,0.45,0,0.0,0.1967,3,0.11,1.6941
101663,1561290553989,6,2.45,1.56,3.01,1.75,3.57,0.81,-0.51,0.25,10,4,11,0.96,6970,3,80,36,21,1221,393.0,592,459,60,122.0,98,1,260,147,39,0,0,365,-6656,-18948,393,-5.59,,,,,,,,,,,,
101683,1561290554003,3,2.46,1.57,3.02,1.75,3.57,0.75,-0.5,0.23,11,4,13,0.9,6903,3,79,36,21,1190,391.0,590,460,60,123.0,98,1,260,147,39,0,0,361,257,19125,391,414.87,,,,,,,,,,,,
101703,1561290554023,7,2.46,1.57,3.01,1.77,3.58,0.87,-0.44,0.17,12,3,13,0.98,6885,3,79,36,21,1154,387.0,587,461,60,122.0,98,1,260,147,39,0,0,351,0,-18948,387,-5.59,,,,,,,,,,,,
101723,1561290554043,5,2.47,1.57,2.99,1.79,3.58,0.79,-0.47,0.18,12,3,12,0.92,6848,3,79,36,21,1071,385.0,585,460,60,123.0,98,1,260,147,39,0,0,352,3082,770,385,181.28,,,,,,,,,,,,
101743,1561290554063,4,2.47,1.56,2.99,1.8,3.59,0.84,-0.4,0.18,13,3,12,0.93,6781,3,79,36,21,983,381.0,581,460,60,121.0,98,1,260,146,38,0,0,350,-6458,2278,381,-5.59,45.699772,4.910393,39.08,195.1,2,0.45,0,0.0,0.1983,3,0.11,1.6957
101763,1561290554083,5,2.47,1.54,3.0,1.79,3.6,0.86,-0.5,0.25,13,1,13,1.0,6732,3,79,36,21,931,382.0,581,456,60,123.0,98,1,260,146,38,0,0,347,-29302,-6656,382,181.28,,,,,,,,,,,,
101783,1561290554109,6,2.47,1.52,3.0,1.79,3.61,0.88,-0.47,0.27,14,-1,16,1.0,6679,3,80,36,22,894,380.0,574,462,60,122.0,98,1,261,148,38,0,0,345,-6640,770,380,-5.59,,,,,,,,,,,,
101803,1561290554129,2,2.49,1.53,2.99,1.81,3.6,0.87,-0.47,0.33,15,-0,18,0.99,6620,3,79,36,22,852,378.0,570,459,60,122.0,98,1,261,148,38,0,0,341,3302,-6656,379,181.28,,,,,,,,,,,,
101823,1561290554149,6,2.5,1.53,2.98,1.82,3.59,0.96,-0.49,0.31,16,0,19,1.08,6578,3,79,36,22,812,378.0,565,455,60,122.0,95,1,261,148,36,0,0,342,28553,-6405,376,-5.59,,,,,,,,,,,,
101843,1561290554169,3,2.51,1.52,2.98,1.83,3.6,0.93,-0.45,0.3,16,0,20,1.04,6551,3,80,36,22,819,374.0,563,461,60,122.0,95,1,261,148,36,0,0,339,8841,-6458,374,181.28,45.699768,4.910403,37.85,195.0,2,0.45,0,0.0,0.2,3,0.11,1.6974
101863,1561290554189,3,2.52,1.5,2.98,1.85,3.59,0.87,-0.52,0.32,16,3,19,1.01,6544,3,79,36,22,828,372.0,560,460,60,123.0,95,1,261,148,36,0,0,333,-14714,2790,372,181.28,,,,,,,,,,,,
101883,1561290554209,5,2.52,1.47,2.99,1.87,3.6,0.94,-0.5,0.3,17,2,19,1.06,6505,3,80,36,23,847,369.0,556,460,60,122.0,95,1,262,151,36,0,0,324,3327,-29302,369,-5.59,,,,,,,,,,,,
101903,1561290554229,2,2.52,1.47,2.98,1.89,3.6,0.99,-0.46,0.23,19,-0,20,1.09,6436,3,79,36,23,858,368.0,557,461,60,121.0,95,1,263,151,36,0,0,324,2560,-29302,368,-5.59,,,,,,,,,,,,
101923,1561290554249,3,2.52,1.47,2.97,1.9,3.61,0.92,-0.55,0.21,18,-1,21,1.07,6373,3,79,36,23,865,366.0,548,459,60,123.0,95,1,263,150,36,0,0,325,3346,-6458,366,181.28,,,,,,,,,,,,
101943,1561290554269,3,2.52,1.47,2.97,1.92,3.59,0.83,-0.57,0.22,18,-2,22,1.0,6321,3,80,36,23,874,363.0,544,462,60,123.0,98,1,263,150,36,0,0,325,-6528,-6640,364,-5.59,45.69976,4.910412,36.43,195.0,2,0.45,0,0.0,0.2017,3,0.11,1.699
101963,1561290554289,6,2.52,1.47,2.99,1.92,3.61,0.81,-0.58,0.28,19,-1,24,1.0,6283,3,79,36,24,884,361.0,540,462,60,122.0,98,1,266,154,36,0,0,322,-12032,8841,361,-5.59,,,,,,,,,,,,
101983,1561290554309,7,2.51,1.46,2.99,1.93,3.61,0.91,-0.53,0.34,20,-0,26,1.05,6220,3,80,36,24,897,359.0,538,463,60,121.0,98,1,266,154,36,0,0,315,-20736,-30454,359,-5.59,,,,,,,,,,,,
102003,1561290554329,6,2.52,1.47,3.0,1.94,3.62,0.97,-0.48,0.38,21,-0,27,1.08,6173,3,79,36,24,903,358.0,539,459,60,122.0,98,1,266,154,36,0,0,314,-23296,-30438,358,181.28,,,,,,,,,,,,
102023,1561290554349,3,2.51,1.48,2.99,1.95,3.63,1.06,-0.51,0.43,22,0,28,1.17,6117,3,79,36,24,909,357.0,533,462,60,121.0,98,1,266,154,36,0,0,313,160,28553,355,414.87,,,,,,,,,,,,
102043,1561290554369,2,2.51,1.46,2.98,1.96,3.61,1.1,-0.58,0.38,23,-0,28,1.24,6075,3,80,36,24,924,354.0,525,457,60,123.0,98,1,267,153,35,0,0,313,150,-1246,354,414.87,45.699753,4.91042,35.02,195.0,2,0.45,0,0.0,0.2033,3,0.11,1.7007
102063,1561290554389,1,2.52,1.47,2.97,1.95,3.61,1.1,-0.63,0.32,23,-0,28,1.27,6048,3,80,36,24,932,350.0,524,457,60,123.0,98,1,267,158,35,0,0,307,-27136,3327,350,414.87,,,,,,,,,,,,
102083,1561290554409,2,2.52,1.47,2.97,1.95,3.61,1.03,-0.68,0.25,23,-1,28,1.23,6015,3,79,36,25,940,348.0,522,458,60,122.0,98,1,270,158,35,0,0,308,-28416,-122,346,414.87,,,,,,,,,,,,
102103,1561290554429,2,2.52,1.47,2.97,1.92,3.61,1.01,-0.68,0.16,24,-1,29,1.21,5982,3,79,36,25,948,344.0,519,459,60,122.0,98,1,269,158,35,0,0,304,140,3346,344,181.28,,,,,,,,,,,,
102123,1561290554449,2,2.52,1.46,2.97,1.9,3.61,0.95,-0.65,0.06,25,-1,29,1.15,5952,3,79,36,25,957,341.0,520,456,60,122.0,98,1,269,158,35,0,0,304,-29696,-32559,341,181.28,,,,,,,,,,,,
102143,1561290554469,3,2.52,1.46,2.96,1.89,3.61,0.95,-0.64,-0.01,25,-1,29,1.14,5905,3,80,36,25,968,339.0,512,458,60,123.0,102,1,269,158,35,0,0,303,130,175,339,181.28,45.699749,4.910428,34.6,195.0,2,0.45,0,0.0,0.205,3,0.11,1.7024
102163,1561290554489,7,2.51,1.48,2.97,1.9,3.6,1.01,-0.63,-0.11,26,-1,30,1.19,5859,3,80,36,26,971,338.0,507,457,60,123.0,102,1,270,159,35,0,0,299,125,-12032,338,181.28,,,,,,,,,,,,
102183,1561290554509,6,2.52,1.49,2.97,1.9,3.62,1.06,-0.55,-0.16,27,-1,29,1.2,5817,3,79,36,26,974,334.0,510,458,60,122.0,102,1,270,159,35,0,0,296,30720,-22016,334,181.28,,,,,,,,,,,,
102203,1561290554529,6,2.51,1.5,2.98,1.89,3.62,1.15,-0.5,-0.11,27,-1,29,1.25,5776,3,79,36,26,979,332.0,507,459,60,121.0,102,1,269,159,35,0,0,294,115,165,332,-5.59,,,,,,,,,,,,
102223,1561290554549,5,2.51,1.5,2.98,1.89,3.63,1.16,-0.5,0.05,27,-1,28,1.26,5762,3,80,36,27,982,328.0,500,462,60,123.0,102,1,272,159,35,0,0,288,110,165,328,-5.59,,,,,,,,,,,,
102243,1561290554569,3,2.52,1.49,2.98,1.88,3.62,1.08,-0.54,0.18,25,0,28,1.2,5721,3,80,36,27,987,328.0,496,458,60,123.0,106,1,271,160,35,0,0,289,26880,155,326,181.28,45.699738,4.910434,32.97,195.0,2,0.45,0,0.0,0.2067,3,0.11,1.7041
102263,1561290554589,3,2.51,1.5,2.97,1.86,3.62,1.08,-0.58,0.2,24,0,29,1.22,5666,3,79,36,27,989,325.0,494,461,60,123.0,106,1,270,159,35,0,0,288,100,150,325,181.28,,,,,,,,,,,,
102283,1561290554609,7,2.52,1.52,2.96,1.87,3.59,1.17,-0.54,0.1,24,-0,29,1.29,5618,3,79,36,28,996,323.0,494,462,60,122.0,106,1,272,160,35,0,0,288,95,140,321,414.87,,,,,,,,,,,,
102303,1561290554629,6,2.51,1.53,2.96,1.88,3.57,1.18,-0.47,0.12,24,1,27,1.27,5588,3,79,36,28,1000,319.0,491,460,60,122.0,106,1,271,160,35,0,0,284,85,135,319,-5.59,,,,,,,,,,,,
102323,1561290554649,1,2.51,1.53,2.96,1.86,3.58,1.06,-0.48,0.28,24,0,26,1.17,5550,3,79,36,29,1006,317.0,484,456,60,123.0,104,1,274,160,33,0,0,284,80,-32256,317,181.28,,,,,,,,,,,,
102343,1561290554669,6,2.51,1.53,2.96,1.86,3.59,1.06,-0.52,0.25,23,-1,27,1.18,5511,3,79,36,29,1010,315.0,483,461,60,123.0,104,1,273,160,33,0,0,278,0,30720,315,181.28,45.69973,4.91044,31.8,194.9,2,0.45,0,0.0,0.2083,3,0.11,1.7057
102363,1561290554689,5,2.5,1.54,2.97,1.85,3.63,1.09,-0.47,0.25,23,-3,26,1.19,5479,3,79,36,30,1020,312.0,485,468,60,121.0,104,1,274,161,33,0,0,276,0,30720,312,-5.59,,,,,,,,,,,,
102383,1561290554709,3,2.52,1.54,2.96,1.83,3.65,1.01,-0.47,0.34,22,-1,26,1.11,5445,3,79,36,30,1026,310.0,473,456,60,123.0,104,1,274,160,33,0,0,276,0,28160,310,181.28,,,,,,,,,,,,
102403,1561290554729,5,2.51,1.54,2.95,1.82,3.63,1.08,-0.45,0.24,22,-2,25,1.17,5352,3,79,36,31,1036,309.0,466,456,60,122.0,104,1,275,160,33,0,0,276,10686,115,309,181.28,,,,,,,,,,,,
102423,1561290554749,3,2.5,1.54,2.94,1.81,3.61,1.0,-0.42,0.32,21,-1,25,1.08,5289,3,80,36,32,1040,306.0,457,463,60,122.0,104,1,275,82,33,0,0,274,-1529,28160,306,-5.59,,,,,,,,,,,,
102443,1561290554769,6,2.51,1.52,2.94,1.79,3.6,1.1,-0.43,0.24,21,-3,26,1.18,5253,3,79,36,33,1040,304.0,455,458,60,123.0,104,1,278,166,32,0,0,271,250,24320,304,181.28,45.699726,4.910444,30.95,194.9,2,0.45,0,0.0,0.21,3,0.11,1.7074
102463,1561290554789,3,2.49,1.53,2.95,1.77,3.59,0.99,-0.4,0.28,21,-1,25,1.07,5256,3,80,36,34,1035,301.0,448,460,60,124.0,104,1,282,172,32,0,0,271,-1534,20480,301,-5.59,,,,,,,,,,,,
102483,1561290554808,6,2.49,1.54,2.98,1.77,3.58,1.05,-0.39,0.2,20,-3,26,1.12,5266,3,80,36,34,1027,299.0,453,463,60,121.0,104,1,282,172,32,0,0,266,250,0,299,181.28,,,,,,,,,,,,
102503,1561290554828,4,2.48,1.6,3.01,1.78,3.57,0.96,-0.37,0.27,20,-1,24,1.03,5237,3,80,36,35,1016,295.0,454,455,60,123.0,104,1,286,172,32,0,0,268,2414,10686,293,-5.59,,,,,,,,,,,,
102523,1561290554848,4,2.48,1.64,3.03,1.77,3.58,1.06,-0.4,0.24,20,-4,25,1.14,5205,3,79,36,35,993,292.0,452,463,60,121.0,119,1,286,178,35,0,0,264,250,10686,292,-5.59,,,,,,,,,,,,
102543,1561290554868,2,2.48,1.64,3.02,1.79,3.57,0.9,-0.36,0.27,19,-0,24,0.97,5156,3,80,37,36,942,292.0,447,466,60,123.0,119,1,289,177,35,0,0,266,-1,-16896,292,181.28,45.699718,4.910449,29.84,194.9,2,0.45,0,0.0,0.2117,3,0.12,1.709
102563,1561290554888,4,2.47,1.63,3.04,1.78,3.56,1.01,-0.34,0.26,20,-1,23,1.07,5077,3,80,37,36,915,290.0,443,462,60,122.0,119,1,287,182,35,0,0,264,-1,24064,290,-5.59,,,,,,,,,,,,
102583,1561290554910,7,2.46,1.63,3.01,1.78,3.53,0.93,-0.35,0.36,18,-2,24,1.0,5013,3,80,37,36,886,288.0,438,463,60,123.0,119,1,287,189,35,0,0,264,-1,-1529,288,181.28,,,,,,,,,,,,
102603,1561290554930,3,2.45,1.63,3.0,1.77,3.51,0.87,-0.35,0.33,18,1,22,0.94,4985,3,80,37,37,859,285.0,437,458,60,124.0,119,1,290,188,35,0,0,262,-1,-1529,285,181.28,,,,,,,,,,,,
102623,1561290554950,4,2.44,1.62,2.96,1.76,3.51,0.99,-0.31,0.23,19,-2,22,1.04,4964,3,80,37,37,839,281.0,435,460,60,122.0,119,1,288,187,35,0,0,259,-1,30208,281,-5.59,,,,,,,,,,,,
102643,1561290554970,4,2.43,1.62,2.98,1.75,3.51,0.99,-0.3,0.4,16,-3,22,1.03,4959,3,80,37,38,823,277.0,431,452,60,123.0,124,1,292,193,35,0,0,255,-1,-1527,277,181.28,45.699711,4.910452,28.72,194.9,2,0.45,0,0.0,0.2133,3,0.12,1.7107
102663,1561290554990,3,2.42,1.62,2.98,1.73,3.51,0.87,-0.29,0.37,15,-0,21,0.92,4965,3,80,37,39,828,275.0,432,465,60,123.0,124,1,298,193,35,0,0,255,-1,250,275,181.28,,,,,,,,,,,,
102683,1561290555004,1,2.4,1.64,3.02,1.73,3.5,0.95,-0.23,0.31,15,-3,20,0.98,4947,3,80,37,39,839,272.0,431,457,60,121.0,124,1,297,200,35,0,0,254,-41,-1,272,-5.59,,,,,,,,,,,,
102703,1561290555024,5,2.38,1.66,3.06,1.72,3.49,1.02,-0.19,0.27,15,-5,20,1.04,4895,3,80,37,39,850,270.0,427,462,60,121.0,124,1,294,198,35,0,0,254,-41,-1,270,181.28,,,,,,,,,,,,
102723,1561290555044,7,2.37,1.71,3.09,1.74,3.45,0.85,-0.16,0.39,13,-2,20,0.87,4854,3,80,37,39,863,268.0,426,456,60,123.0,124,1,292,196,35,0,0,251,-10440,-1,268,181.28,,,,,,,,,,,,
102743,1561290555064,1,2.37,1.74,3.09,1.74,3.4,0.81,-0.19,0.38,12,2,17,0.83,4770,3,80,37,40,872,267.0,417,465,60,123.0,134,1,289,195,36,0,0,252,506,-1,266,181.28,45.699707,4.910455,27.35,194.9,2,0.45,0,0.0,0.215,3,0.12,1.7124
102763,1561290555084,2,2.36,1.75,3.09,1.77,3.38,0.89,-0.2,0.31,12,1,15,0.91,4725,3,80,37,40,881,265.0,412,463,60,122.0,134,1,287,194,36,0,0,251,-1,14337,262,-5.59,,,,,,,,,,,,
102783,1561290555110,3,2.34,1.75,3.1,1.77,3.36,1.0,-0.16,0.23,13,-4,15,1.01,4686,3,80,37,40,890,262.0,405,462,60,121.0,134,1,286,193,36,0,0,249,10818,506,260,-5.59,,,,,,,,,,,,
102803,1561290555130,2,2.34,1.74,3.13,1.75,3.37,1.09,-0.1,0.18,12,-7,15,1.1,4637,3,80,37,40,902,259.0,404,456,60,122.0,134,1,283,191,36,0,0,245,10818,10818,257,-5.59,,,,,,,,,,,,
102823,1561290555150,2,2.32,1.76,3.15,1.76,3.36,1.08,-0.02,0.21,11,-9,15,1.08,4625,3,79,37,40,908,256.0,398,458,60,122.0,128,1,283,190,33,0,0,245,16896,250,255,181.28,,,,,,,,,,,,
102843,1561290555170,3,2.32,1.73,3.16,1.73,3.36,1.1,0.04,0.31,9,-10,15,1.1,4604,3,80,37,40,911,253.0,396,456,60,121.0,128,1,282,193,33,0,0,245,10812,10812,253,181.28,45.699696,4.910457,26.55,194.8,2,0.45,0,0.0,0.2167,3,0.12,1.7141
102863,1561290555190,4,2.32,1.49,3.16,1.66,3.36,1.08,0.04,0.31,8,-8,16,1.09,4574,3,80,37,40,916,252.0,389,458,60,123.0,128,1,280,192,33,0,0,243,-1494,10812,252,181.28,,,,,,,,,,,,
102883,1561290555210,2,2.32,1.45,3.14,1.63,3.32,1.0,0.03,0.3,6,-6,15,1.0,4552,3,80,37,41,918,252.0,394,464,60,122.0,128,1,282,191,33,0,0,243,250,250,252,181.28,,,,,,,,,,,,
102903,1561290555230,3,2.3,1.48,3.11,1.63,3.27,0.96,-0.0,0.4,5,-4,15,0.96,4524,3,80,37,40,919,251.0,384,458,60,123.0,128,1,278,187,33,0,0,244,15360,250,251,414.87,,,,,,,,,,,,
102923,1561290555250,2,2.3,1.52,3.12,1.67,3.26,0.87,-0.04,0.53,3,-4,15,0.87,4495,3,80,37,41,918,247.0,384,458,60,123.0,125,1,279,186,31,0,0,241,-1445,-1445,247,181.28,,,,,,,,,,,,
102943,1561290555270,3,2.28,1.59,3.14,1.7,3.26,0.81,-0.03,0.53,2,-2,15,0.81,4477,3,80,37,41,915,243.0,382,458,60,123.0,125,1,279,188,31,0,0,237,250,-25600,243,181.28,45.699692,4.910459,25.76,194.8,2,0.45,0,0.0,0.2183,3,0.12,1.7157
102963,1561290555290,2,2.27,1.64,3.21,1.67,3.26,0.79,0.02,0.49,1,-0,14,0.79,4458,3,80,37,41,911,241.0,380,460,60,123.0,125,1,278,188,31,0,0,234,-1484,-1483,241,181.28,,,,,,,,,,,,
102983,1561290555310,0,2.24,1.68,3.26,1.64,3.28,0.78,0.05,0.49,-0,-1,12,0.78,4434,3,80,37,41,909,239.0,381,460,60,122.0,125,1,277,187,31,0,0,237,13468,-1494,239,181.28,,,,,,,,,,,,
103003,1561290555330,1,2.25,1.76,3.27,1.66,3.31,0.78,0.05,0.52,-1,-3,12,0.78,4394,3,80,37,41,906,239.0,376,453,60,123.0,125,1,275,186,31,0,0,233,13468,13602,237,414.87,,,,,,,,,,,,
103023,1561290555350,0,2.24,1.83,3.26,1.66,3.3,0.84,0.08,0.45,-1,-5,11,0.84,4344,3,80,37,41,908,238.0,376,464,60,121.0,125,1,274,185,31,0,0,235,13468,8704,237,181.28,,,,,,,,,,,,
103043,1561290555370,2,2.23,1.89,3.26,1.67,3.31,0.87,0.09,0.24,-2,-5,9,0.88,4273,3,80,37,41,909,238.0,373,465,60,121.0,126,1,270,183,30,0,0,235,13468,250,234,-5.59,45.699684,4.910461,24.62,194.8,2,0.45,0,0.0,0.22,3,0.12,1.7174
103063,1561290555390,2,2.21,1.95,3.26,1.67,3.31,0.89,0.09,0.05,-1,-4,8,0.89,4232,3,80,37,41,912,236.0,365,462,60,123.0,126,1,269,181,30,0,0,231,250,250,231,-5.59,,,,,,,,,,,,
103083,1561290555408,4,2.21,2.0,3.15,1.66,3.31,0.89,0.12,0.13,-1,-1,7,0.9,4245,3,80,37,41,917,234.0,362,466,60,123.0,126,1,270,181,30,0,0,231,13602,250,228,181.28,,,,,,,,,,,,
103103,1561290555428,3,2.19,1.97,2.99,1.63,3.26,0.86,0.1,0.31,-2,2,5,0.87,4200,3,80,37,40,930,233.0,361,461,60,123.0,126,1,264,178,30,0,0,229,8704,19968,224,181.28,,,,,,,,,,,,
103123,1561290555448,0,2.18,1.92,2.97,1.53,3.24,0.9,0.07,0.38,-3,1,4,0.9,4205,3,80,37,40,942,232.0,361,456,60,123.0,125,1,264,178,28,0,0,229,250,-1532,223,181.28,,,,,,,,,,,,
103143,1561290555468,1,2.16,1.9,2.99,1.47,3.27,0.94,0.1,0.31,-5,-4,3,0.95,4219,3,80,37,40,950,231.0,358,461,60,121.0,125,1,264,100,28,0,0,224,-1494,1596,218,-5.59,45.69968,4.910463,23.36,194.8,2,0.45,0,0.0,0.2217,3,0.12,1.719
103163,1561290555488,2,2.13,1.91,3.02,1.42,3.32,0.98,0.17,0.32,-6,-6,2,1.0,4251,3,80,37,40,958,229.0,362,460,60,123.0,125,1,266,178,28,0,0,224,18432,-1532,217,181.28,,,,,,,,,,,,
103183,1561290555510,4,2.12,1.97,3.05,1.39,3.35,0.94,0.19,0.34,-7,-4,-1,0.96,4246,3,80,37,41,960,232.0,360,459,60,123.0,125,1,270,181,28,0,0,226,250,250,216,181.28,,,,,,,,,,,,
103203,1561290555530,3,2.1,2.04,3.07,1.39,3.34,0.9,0.2,0.43,-8,-2,-2,0.92,4121,3,80,37,40,960,231.0,356,461,60,123.0,125,1,260,175,28,0,0,228,-1494,1088,215,181.28,,,,,,,,,,,,
103223,1561290555550,1,2.09,2.06,3.07,1.4,3.29,0.92,0.22,0.43,-9,-3,-5,0.94,4054,3,80,37,40,956,232.0,352,457,60,122.0,125,1,256,176,28,0,0,226,250,250,213,414.87,,,,,,,,,,,,
103243,1561290555570,-1,2.07,2.09,3.07,1.41,3.26,0.97,0.27,0.29,-10,-5,-5,1.01,4042,3,80,37,41,944,230.0,347,460,60,122.0,121,1,261,176,26,0,0,227,10824,966,212,-5.59,45.699673,4.910465,22.81,194.7,2,0.45,0,0.0,0.2233,3,0.12,1.7207
103263,1561290555590,2,2.05,2.08,3.12,1.45,3.25,0.94,0.31,0.31,-10,-2,-7,0.99,4040,3,80,37,41,936,229.0,343,462,60,123.0,121,1,261,176,26,0,0,224,18432,-14848,210,181.28,,,,,,,,,,,,
103283,1561290555610,-1,2.02,2.08,3.21,1.45,3.24,0.89,0.33,0.39,-11,-1,-8,0.95,4000,3,80,37,41,919,228.0,343,462,60,123.0,121,1,260,175,26,0,0,223,10318,-29696,207,181.28,,,,,,,,,,,,
103303,1561290555630,1,2.0,2.07,3.3,1.42,3.24,0.91,0.34,0.31,-12,-4,-10,0.97,3952,3,80,37,41,912,227.0,340,459,60,123.0,121,1,258,97,26,0,0,221,-1496,13964,207,-5.59,,,,,,,,,,,,
103323,1561290555650,1,1.99,2.07,3.36,1.42,3.25,0.87,0.36,0.3,-12,-1,-11,0.94,3960,3,80,37,41,908,227.0,335,462,60,123.0,121,1,258,175,26,0,0,222,-1496,12800,205,181.28,,,,,,,,,,,,
103343,1561290555670,-1,1.98,2.08,3.4,1.43,3.24,0.82,0.36,0.38,-14,-2,-12,0.9,3926,3,80,37,41,904,229.0,338,460,60,122.0,126,1,256,175,26,0,0,222,18432,14412,204,181.28,45.699669,4.910467,21.86,194.7,2,0.45,0,0.0,0.225,3,0.12,1.7224
103363,1561290555690,2,1.95,2.08,3.41,1.44,3.2,0.78,0.39,0.22,-14,-2,-14,0.87,3886,3,80,37,42,901,228.0,330,461,60,123.0,126,1,259,178,26,0,0,223,18432,19456,202,181.28,,,,,,,,,,,,
103383,1561290555710,-0,1.93,2.07,3.33,1.45,3.14,0.8,0.42,0.4,-14,1,-16,0.9,3892,3,80,37,42,900,227.0,328,459,60,123.0,126,1,259,178,26,0,0,222,-1496,19456,202,181.28,,,,,,,,,,,,
103403,1561290555730,-1,1.9,2.06,3.26,1.44,3.09,0.91,0.45,0.32,-16,-2,-17,1.02,3898,3,80,37,43,900,226.0,330,460,60,122.0,126,1,263,103,26,0,0,221,10318,19456,199,-5.59,,,,,,,,,,,,
103423,1561290555750,-0,1.89,2.05,3.25,1.42,3.06,0.89,0.48,0.23,-17,-2,-19,1.01,3918,3,80,37,44,902,225.0,330,459,60,123.0,137,1,269,184,27,0,0,222,19968,250,197,181.28,,,,,,,,,,,,
103443,1561290555770,-0,1.87,2.04,3.26,1.41,3.06,0.86,0.5,0.39,-18,-1,-20,1.0,3920,3,80,37,45,910,225.0,331,460,60,122.0,137,1,273,188,27,0,0,222,19968,-2560,194,181.28,45.699661,4.910469,21.29,194.7,2,0.45,0,0.0,0.2267,3,0.12,1.7241
103463,1561290555790,3,1.85,2.03,3.27,1.4,3.07,0.86,0.5,0.33,-19,-1,-22,1.0,3890,3,80,37,47,914,226.0,331,459,60,123.0,137,1,279,194,27,0,0,222,10318,-1,192,181.28,,,,,,,,,,,,
103483,1561290555809,-2,1.84,2.04,3.29,1.41,3.06,0.85,0.52,0.37,-20,1,-23,1.0,3890,3,80,37,48,918,228.0,328,455,60,123.0,137,1,279,198,27,0,0,222,250,-1,191,181.28,,,,,,,,,,,,
103503,1561290555829,-1,1.8,2.05,3.27,1.42,3.06,0.94,0.56,0.47,-22,-2,-24,1.09,3895,3,80,37,51,927,228.0,332,461,60,121.0,137,1,282,212,27,0,0,221,250,-1,192,-5.59,,,,,,,,,,,,
103523,1561290555849,2,1.76,2.06,3.27,1.42,3.06,0.9,0.58,0.41,-23,-1,-25,1.07,3863,3,80,37,52,934,228.0,325,457,60,123.0,137,1,280,215,27,0,0,221,250,-1,190,181.28,,,,,,,,,,,,
103543,1561290555869,-0,1.73,2.08,3.28,1.42,3.07,0.91,0.63,0.5,-24,-1,-27,1.11,3889,3,80,37,54,945,228.0,329,455,60,122.0,163,1,285,224,31,0,0,221,250,-1,188,181.28,45.699657,4.910472,20.3,194.7,2,0.45,0,0.0,0.2283,3,0.12,1.7257
103563,1561290555889,4,1.7,2.11,3.31,1.41,3.07,0.91,0.67,0.4,-26,-1,-28,1.13,3937,3,80,37,56,950,229.0,329,463,60,123.0,163,1,289,234,31,0,0,222,18432,-236,186,181.28,,,,,,,,,,,,
103583,1561290555909,-0,1.67,2.12,3.33,1.41,3.08,0.91,0.7,0.43,-28,0,-30,1.15,3934,3,80,37,57,954,229.0,332,457,60,123.0,163,1,288,239,31,0,0,220,18432,-236,184,181.28,,,,,,,,,,,,
103603,1561290555929,-1,1.64,2.15,3.38,1.4,3.06,0.93,0.73,0.42,-30,-1,-30,1.18,3957,3,80,37,59,963,230.0,328,458,60,122.0,163,1,288,249,31,0,0,221,10824,250,183,-5.59,,,,,,,,,,,,
103623,1561290555949,4,1.6,2.2,3.45,1.38,3.08,0.92,0.75,0.33,-31,0,-31,1.19,4055,3,80,37,61,973,228.0,336,462,60,123.0,218,1,291,261,40,0,0,221,250,250,183,181.28,,,,,,,,,,,,
103643,1561290555969,-0,1.56,2.24,3.45,1.37,3.07,0.91,0.78,0.38,-32,2,-33,1.2,4040,3,80,37,63,976,231.0,335,456,60,123.0,218,1,293,266,40,0,0,221,-1494,-1281,181,181.28,45.699654,4.910475,19.65,194.7,2,0.45,0,0.0,0.23,3,0.12,1.7274
103663,1561290555989,-1,1.53,2.26,3.46,1.36,3.07,0.93,0.82,0.37,-34,2,-36,1.24,4028,3,80,37,65,980,230.0,337,456,60,121.0,218,1,295,280,40,0,0,220,10824,-1,179,-5.59,,,,,,,,,,,,
103683,1561290556003,3,1.49,2.26,3.46,1.36,3.07,0.94,0.83,0.29,-35,1,-37,1.26,4054,3,80,38,67,988,230.0,338,463,60,123.0,218,1,297,288,40,0,0,221,10824,-1,177,-5.59,,,,,,,,,,,,
103703,1561290556023,3,1.48,2.27,3.46,1.36,3.07,0.94,0.84,0.35,-36,1,-38,1.26,4122,3,80,38,69,994,231.0,339,463,60,124.0,218,1,297,297,40,0,0,219,10824,-1,175,181.28,,,,,,,,,,,,
103723,1561290556043,-0,1.48,2.29,3.43,1.38,3.07,0.97,0.86,0.41,-37,1,-42,1.29,4061,3,80,38,70,996,229.0,338,448,60,122.0,218,1,298,299,40,0,0,222,18432,-1281,175,181.28,,,,,,,,,,,,
103743,1561290556063,-0,1.48,2.29,3.4,1.38,3.07,0.96,0.85,0.44,-39,-2,-43,1.28,3986,4,80,38,73,999,229.0,340,458,60,121.0,262,1,296,231,46,0,0,222,18432,-1480,177,-5.59,45.69965,4.910479,19.61,194.7,2,0.45,0,0.0,0.2317,3,0.12,1.729
103763,1561290556083,2,1.49,2.28,3.4,1.37,3.05,0.92,0.89,0.43,-40,0,-44,1.28,3914,3,80,38,74,1009,230.0,331,466,60,123.0,262,1,288,426,46,0,0,219,10824,-17920,176,181.28,,,,,,,,,,,,
103783,1561290556109,-1,1.49,2.29,3.38,1.37,3.05,0.93,0.88,0.47,-40,1,-45,1.28,3943,3,80,38,75,1019,230.0,329,445,60,121.0,262,1,291,428,46,0,0,219,10824,250,176,181.28,,,,,,,,,,,,
103803,1561290556129,-1,1.48,2.29,3.38,1.36,3.05,0.92,0.88,0.52,-41,-0,-47,1.27,4129,3,80,38,76,1028,229.0,336,457,60,122.0,262,1,296,452,46,0,0,219,18432,-1,175,-5.59,,,,,,,,,,,,
103823,1561290556149,4,1.48,2.29,3.35,1.36,3.06,0.91,0.87,0.51,-41,-1,-50,1.26,4083,3,80,38,77,1037,231.0,336,471,60,123.0,388,1,297,444,68,0,0,219,-1494,-1480,175,181.28,,,,,,,,,,,,
103843,1561290556169,0,1.49,2.29,3.33,1.37,3.05,0.92,0.84,0.57,-41,-0,-51,1.24,4100,13,80,38,78,1076,232.0,336,458,60,123.0,388,1,297,492,68,0,0,221,250,-1483,176,181.28,45.699646,4.910483,18.41,194.7,2,0.45,0,0.0,0.2333,3,0.12,1.7307
103863,1561290556189,-0,1.48,2.3,3.32,1.38,3.05,0.92,0.83,0.61,-41,-0,-51,1.24,4221,3,80,38,79,1115,231.0,345,440,60,122.0,388,1,295,514,68,0,0,220,-1494,1210,177,181.28,,,,,,,,,,,,
103883,1561290556209,0,1.49,2.28,3.31,1.37,3.05,0.97,0.82,0.68,-44,-2,-52,1.27,4205,3,80,38,80,1147,231.0,350,453,60,121.0,388,1,294,527,68,0,0,220,13602,1088,178,-5.59,,,,,,,,,,,,
103903,1561290556229,4,1.48,2.28,3.32,1.37,3.04,0.92,0.81,0.66,-45,-3,-54,1.22,4219,3,80,38,81,1178,234.0,345,466,60,123.0,388,1,294,538,68,0,0,223,13602,18432,180,-5.59,,,,,,,,,,,,
103923,1561290556249,4,1.49,2.28,3.32,1.38,3.05,0.9,0.78,0.7,-46,-3,-53,1.19,4312,3,80,38,81,1208,235.0,354,468,60,123.0,488,1,293,534,87,0,0,225,-1483,-1445,178,181.28,,,,,,,,,,,,
103943,1561290556269,3,1.48,2.28,3.33,1.38,3.04,0.85,0.83,0.63,-45,-1,-55,1.19,4380,3,80,38,81,1248,236.0,357,465,60,123.0,488,1,292,534,87,0,0,226,250,10318,179,414.87,45.699642,4.910488,18.65,194.7,2,0.45,0,0.0,0.235,3,0.12,1.7324
103963,1561290556289,2,1.49,2.29,3.32,1.42,3.04,0.86,0.77,0.63,-44,-0,-55,1.15,4381,3,80,38,81,1271,239.0,360,458,60,123.0,488,1,292,522,87,0,0,229,-1484,13468,179,181.28,,,,,,,,,,,,
103983,1561290556309,2,1.49,2.3,3.31,1.43,3.02,0.87,0.81,0.62,-44,2,-56,1.19,4405,3,80,38,81,1279,239.0,362,443,60,123.0,488,1,291,517,87,0,0,231,-1484,-1494,179,181.28,,,,,,,,,,,,
104003,1561290556329,2,1.49,2.29,3.31,1.43,2.98,0.85,0.77,0.64,-44,4,-58,1.15,4404,3,80,38,81,1270,239.0,366,446,60,122.0,488,1,291,505,87,0,0,232,250,19968,182,181.28,,,,,,,,,,,,
104023,1561290556349,0,1.5,2.29,3.32,1.42,2.92,0.8,0.76,0.61,-44,5,-58,1.11,4382,3,80,38,82,1252,242.0,366,449,60,121.0,488,1,292,513,87,0,0,233,23482,250,184,181.28,,,,,,,,,,,,
104043,1561290556369,-1,1.5,2.3,3.33,1.43,2.93,0.75,0.75,0.56,-46,6,-60,1.06,4385,3,80,38,82,1230,243.0,364,453,60,121.0,461,1,292,502,85,0,0,234,-1445,506,184,-5.59,45.699638,4.910494,18.69,194.7,2,0.45,0,0.0,0.2367,3,0.12,1.7341
104063,1561290556389,-1,1.49,2.29,3.36,1.42,2.94,0.68,0.72,0.56,-47,5,-59,0.99,4487,3,80,38,82,1197,243.0,369,442,60,122.0,461,1,290,502,85,0,0,235,-1445,13602,184,181.28,,,,,,,,,,,,
104083,1561290556409,-1,1.49,2.3,3.42,1.42,2.94,0.63,0.73,0.58,-49,6,-61,0.97,4518,3,80,38,82,1156,245.0,378,451,60,122.0,461,1,290,492,85,0,0,240,15360,-1494,187,414.87,,,,,,,,,,,,
104103,1561290556429,-1,1.5,2.3,3.42,1.42,2.94,0.62,0.66,0.61,-51,6,-63,0.91,4567,3,80,38,82,1111,249.0,376,450,60,122.0,461,1,289,487,85,0,0,240,16896,16896,187,181.28,,,,,,,,,,,,
104123,1561290556449,2,1.5,2.3,3.42,1.43,2.95,0.56,0.69,0.58,-52,8,-63,0.89,4613,3,80,38,82,1082,249.0,381,454,60,123.0,446,1,288,477,83,0,0,244,16896,-1445,186,414.87,,,,,,,,,,,,
104143,1561290556469,3,1.5,2.31,3.42,1.43,2.94,0.6,0.71,0.51,-52,11,-63,0.92,4644,3,80,38,82,1062,251.0,382,455,60,123.0,446,1,288,472,83,0,0,247,-214,13468,189,181.28,45.699638,4.9105,18.91,194.7,2,0.45,0,0.0,0.2383,3,0.13,1.7357
104163,1561290556489,4,1.49,2.32,3.43,1.42,2.91,0.57,0.75,0.56,-51,11,-65,0.94,4630,3,80,38,83,1037,252.0,390,453,60,123.0,446,1,287,474,83,0,0,246,-1,506,189,181.28,,,,,,,,,,,,
104183,1561290556509,5,1.49,2.31,3.38,1.43,2.89,0.61,0.77,0.61,-50,12,-67,0.98,4661,2,80,38,83,997,253.0,389,455,60,123.0,446,1,287,469,83,0,0,249,-1,10812,189,181.28,,,,,,,,,,,,
104203,1561290556529,-1,1.49,2.31,3.37,1.42,2.89,0.65,0.83,0.62,-50,9,-65,1.05,4673,3,80,38,83,957,256.0,387,465,60,123.0,446,1,286,456,83,0,0,248,506,10824,191,181.28,,,,,,,,,,,,
104223,1561290556549,0,1.5,2.32,3.37,1.42,2.86,0.72,0.84,0.65,-51,6,-65,1.11,4628,3,80,38,83,936,256.0,389,468,60,122.0,404,1,287,446,78,0,0,250,506,506,193,-5.59,,,,,,,,,,,,
104243,1561290556569,0,1.49,2.32,3.38,1.41,2.85,0.82,0.83,0.61,-51,3,-65,1.17,4589,3,80,38,84,919,255.0,384,469,60,123.0,404,1,288,434,78,0,0,252,-1281,-1,193,181.28,45.699635,4.910506,19.88,194.8,2,0.45,0,0.0,0.24,3,0.13,1.7374
104263,1561290556591,-0,1.49,2.32,3.43,1.41,2.86,0.9,0.82,0.54,-53,-3,-66,1.22,4644,3,80,38,83,895,257.0,388,461,60,122.0,404,1,287,358,78,0,0,249,-10440,250,193,-5.59,,,,,,,,,,,,
104283,1561290556611,0,1.49,2.32,3.47,1.39,2.88,0.9,0.78,0.57,-55,-4,-66,1.19,4734,3,80,38,83,873,257.0,389,452,60,121.0,404,1,285,433,78,0,0,253,-10440,10812,194,-5.59,,,,,,,,,,,,
104303,1561290556631,2,1.5,2.32,3.49,1.39,2.89,0.78,0.8,0.48,-57,-3,-66,1.12,4764,3,80,38,83,870,261.0,391,455,60,121.0,404,1,285,434,78,0,0,254,-1,-1,195,-5.59,,,,,,,,,,,,
104323,1561290556651,4,1.5,2.33,3.49,1.39,2.89,0.71,0.78,0.39,-57,2,-67,1.05,4837,3,80,38,83,865,263.0,401,456,60,123.0,410,1,284,438,80,0,0,253,-1,-1,195,181.28,,,,,,,,,,,,
104343,1561290556671,-0,1.49,2.33,3.5,1.4,2.89,0.78,0.78,0.55,-56,1,-67,1.1,4938,3,80,38,83,860,263.0,407,455,60,123.0,410,1,282,444,80,0,0,257,-1,-1,196,181.28,45.699635,4.910513,20.06,194.8,2,0.45,0,0.0,0.2417,3,0.13,1.739
104363,1561290556691,2,1.49,2.34,3.5,1.39,2.9,0.76,0.82,0.47,-57,-1,-67,1.12,5059,3,80,38,82,855,263.0,417,460,60,121.0,410,1,284,435,80,0,0,260,-1,-1,196,-5.59,,,,,,,,,,,,
104383,1561290556711,4,1.5,2.35,3.48,1.4,2.9,0.74,0.82,0.55,-58,3,-70,1.11,5111,6,80,38,80,854,266.0,425,458,60,123.0,410,1,288,410,80,0,0,262,-1,-1,195,181.28,,,,,,,,,,,,
104403,1561290556731,-1,1.5,2.37,3.43,1.4,2.88,0.76,0.82,0.58,-58,-2,-69,1.11,5103,0,80,38,79,855,266.0,428,459,60,122.0,410,1,287,328,80,0,0,264,-1,-1,197,-5.59,,,,,,,,,,,,
104423,1561290556751,3,1.5,2.38,3.4,1.4,2.86,0.72,0.89,0.53,-59,-0,-68,1.15,5053,1,80,38,77,863,268.0,427,461,60,123.0,410,1,284,529,80,0,0,268,-1,-1281,199,181.28,,,,,,,,,,,,
104443,1561290556771,0,1.5,2.38,3.39,1.38,2.84,0.69,0.92,0.55,-59,3,-69,1.15,4964,3,80,38,75,871,269.0,428,463,60,123.0,507,1,283,486,101,0,0,269,-1,-1,201,181.28,45.699635,4.910521,21.08,194.8,2,0.45,0,0.0,0.2433,3,0.13,1.7407
104463,1561290556791,-0,1.49,2.4,3.39,1.39,2.83,0.74,0.93,0.62,-59,-0,-70,1.19,4856,3,80,38,75,880,271.0,420,464,60,123.0,507,1,285,464,101,0,0,270,-1281,-1,203,-5.59,,,,,,,,,,,,
104483,1561290556808,-3,1.5,2.43,3.4,1.39,2.84,0.81,0.97,0.49,-60,-4,-70,1.26,4711,3,80,38,74,889,273.0,409,469,60,121.0,507,1,287,446,101,0,0,267,28160,-1,204,-5.59,,,,,,,,,,,,
104503,1561290556828,-0,1.49,2.43,3.45,1.37,2.86,0.85,0.97,0.5,-61,-7,-69,1.29,4534,3,80,38,72,905,272.0,397,454,60,122.0,507,1,291,427,101,0,0,262,250,-1,204,-5.59,,,,,,,,,,,,
104523,1561290556848,0,1.49,2.43,3.49,1.34,2.89,0.89,1.05,0.46,-61,-10,-70,1.38,4487,3,80,38,72,921,271.0,388,464,60,122.0,507,1,291,410,101,0,0,259,-1281,13602,205,-5.59,,,,,,,,,,,,
104543,1561290556868,-1,1.5,2.43,3.53,1.29,2.94,0.92,1.07,0.39,-62,-12,-68,1.41,4565,3,80,38,71,929,271.0,391,457,60,121.0,341,1,291,402,70,0,0,258,-1,16896,203,-5.59,45.699635,4.910529,20.93,194.8,2,0.45,0,0.0,0.245,3,0.13,1.7424
104563,1561290556888,0,1.49,2.43,3.53,1.26,3.0,0.92,1.05,0.37,-63,-13,-70,1.39,4567,3,80,38,70,936,273.0,388,448,60,121.0,341,1,291,388,70,0,0,257,-1,-1,202,-5.59,,,,,,,,,,,,
104583,1561290556910,0,1.49,2.43,3.53,1.27,3.05,0.96,1.04,0.42,-63,-13,-71,1.41,4602,3,80,38,70,941,270.0,387,450,60,121.0,341,1,290,386,70,0,0,255,-1,-1,202,181.28,,,,,,,,,,,,
104603,1561290556930,-0,1.49,2.43,3.53,1.27,3.09,0.91,1.01,0.37,-63,-12,-71,1.36,4636,3,80,38,69,946,269.0,393,448,60,122.0,341,1,290,371,70,0,0,255,-1,-1,200,181.28,,,,,,,,,,,,
104623,1561290556950,3,1.49,2.42,3.53,1.27,3.08,0.9,1.05,0.32,-63,-8,-71,1.39,4714,3,80,38,68,943,267.0,395,452,60,123.0,325,1,289,369,65,0,0,253,-1,-1496,200,414.87,,,,,,,,,,,,
104643,1561290556970,3,1.5,2.43,3.51,1.26,3.05,0.88,1.11,0.37,-62,-7,-71,1.42,4722,3,80,38,68,938,266.0,400,455,60,123.0,325,1,288,355,65,0,0,254,-1,-1533,201,181.28,45.699638,4.910536,21.98,194.9,2,0.45,0,0.0,0.2467,3,0.13,1.7441
104663,1561290556990,1,1.49,2.44,3.5,1.27,3.02,0.79,1.18,0.38,-60,-3,-71,1.42,4756,3,80,38,68,924,266.0,398,460,60,124.0,325,1,288,352,65,0,0,255,-1,250,200,181.28,,,,,,,,,,,,
104683,1561290557004,-1,1.49,2.45,3.48,1.28,3.01,0.81,1.21,0.4,-59,-4,-70,1.46,4565,3,80,38,68,904,265.0,392,467,60,124.0,325,1,291,231,65,0,0,251,-1,630,199,-5.59,,,,,,,,,,,,
104703,1561290557024,-0,1.49,2.44,3.44,1.28,3.01,0.78,1.23,0.44,-58,-4,-69,1.46,4549,3,80,38,68,886,263.0,393,467,60,123.0,325,1,291,326,65,0,0,253,-1,-1,199,181.28,,,,,,,,,,,,
104723,1561290557044,-1,1.49,2.44,3.44,1.28,3.01,0.85,1.2,0.38,-58,-4,-69,1.47,4541,3,80,38,67,864,263.0,387,469,60,123.0,271,1,292,317,54,0,0,250,-1,250,199,-5.59,,,,,,,,,,,,
104743,1561290557064,-2,1.49,2.43,3.44,1.27,2.99,0.88,1.19,0.32,-58,-6,-68,1.48,4553,3,80,38,66,841,261.0,387,469,60,122.0,271,1,292,314,54,0,0,251,-1,14412,199,-5.59,45.699638,4.910543,21.16,194.9,2,0.45,0,0.0,0.2483,3,0.13,1.7457
104763,1561290557084,4,1.49,2.41,3.44,1.26,2.97,0.89,1.17,0.34,-58,-6,-68,1.47,4376,3,80,38,66,819,262.0,380,469,60,123.0,271,1,292,296,54,0,0,250,-1,250,199,-5.59,,,,,,,,,,,,
104783,1561290557110,4,1.49,2.4,3.44,1.26,2.96,0.9,1.14,0.36,-57,-6,-69,1.46,4306,3,80,38,66,811,264.0,369,469,60,123.0,271,1,293,291,54,0,0,250,-1,-1,198,181.28,,,,,,,,,,,,
104803,1561290557130,2,1.5,2.38,3.46,1.26,2.98,0.87,1.17,0.43,-56,-5,-69,1.46,4381,3,80,38,66,805,261.0,368,465,60,124.0,271,1,292,288,54,0,0,247,-1,1596,197,181.28,,,,,,,,,,,,
104823,1561290557150,2,1.5,2.36,3.47,1.27,2.97,0.85,1.17,0.42,-56,-4,-69,1.44,4397,3,80,38,65,800,261.0,370,452,60,123.0,271,1,292,282,54,0,0,248,-1,12800,197,181.28,,,,,,,,,,,,
104843,1561290557170,1,1.49,2.36,3.49,1.28,2.97,0.84,1.16,0.38,-55,-1,-69,1.43,4375,3,80,38,66,795,262.0,374,460,60,123.0,238,1,292,282,47,0,0,248,-1,14412,196,181.28,45.699642,4.910549,20.96,194.9,2,0.45,0,0.0,0.25,3,0.13,1.7474
104863,1561290557190,1,1.49,2.35,3.49,1.31,2.98,0.82,1.06,0.41,-55,0,-70,1.34,4364,3,80,38,65,793,260.0,369,451,60,123.0,238,1,292,282,47,0,0,246,-1,-17920,196,181.28,,,,,,,,,,,,
104883,1561290557210,-1,1.5,2.36,3.48,1.35,2.97,0.75,1.01,0.43,-56,-1,-70,1.26,4300,3,80,38,65,794,260.0,369,452,60,122.0,238,1,293,287,47,0,0,245,-1,250,196,414.87,,,,,,,,,,,,
104903,1561290557230,-1,1.5,2.35,3.48,1.36,2.97,0.78,0.99,0.44,-57,-4,-69,1.26,4405,6,80,38,66,796,258.0,367,459,60,121.0,238,1,293,288,47,0,0,246,-10440,-1532,196,181.28,,,,,,,,,,,,
104923,1561290557250,0,1.5,2.34,3.49,1.35,2.98,0.85,0.99,0.42,-59,-6,-69,1.31,4400,3,80,38,67,800,257.0,370,457,60,122.0,238,1,292,415,47,0,0,246,14337,-2560,196,-5.59,,,,,,,,,,,,
104943,1561290557270,0,1.5,2.34,3.49,1.34,2.97,0.87,0.96,0.31,-59,-7,-68,1.3,4367,3,80,37,67,804,258.0,369,460,60,121.0,346,1,293,412,68,0,0,247,-10440,-14848,196,-5.59,45.69965,4.910554,20.67,194.9,2,0.45,0,0.0,0.2517,3,0.13,1.749
104963,1561290557290,1,1.49,2.33,3.5,1.32,2.97,0.91,0.95,0.3,-59,-9,-68,1.31,4306,3,80,37,67,807,257.0,365,463,60,122.0,346,1,293,406,68,0,0,244,14337,14337,195,-5.59,,,,,,,,,,,,
104983,1561290557310,5,1.49,2.32,3.5,1.33,2.95,0.9,0.96,0.35,-59,-8,-69,1.31,4315,3,80,37,68,808,258.0,367,475,60,123.0,346,1,294,407,68,0,0,245,-10440,-17920,194,181.28,,,,,,,,,,,,
105003,1561290557330,4,1.49,2.3,3.49,1.32,2.94,0.89,0.98,0.48,-58,-7,-68,1.33,4328,3,80,37,68,807,256.0,364,468,60,124.0,346,1,294,402,68,0,0,241,506,250,194,414.87,,,,,,,,,,,,
105023,1561290557350,3,1.49,2.29,3.5,1.31,2.95,0.89,1.02,0.62,-57,-7,-68,1.35,4327,3,80,37,68,805,254.0,365,457,60,124.0,329,1,294,393,64,0,0,241,-1,-1,194,181.28,,,,,,,,,,,,
105043,1561290557370,1,1.5,2.28,3.49,1.3,2.96,0.85,1.0,0.63,-57,-4,-71,1.32,4321,3,80,37,69,802,257.0,364,451,60,123.0,329,1,294,389,64,0,0,242,14337,250,193,181.28,45.699654,4.910558,20.4,194.9,2,0.45,0,0.0,0.2533,3,0.13,1.7507
105063,1561290557390,-2,1.5,2.29,3.5,1.3,2.97,0.82,0.95,0.57,-56,-2,-71,1.25,4362,3,80,37,69,799,256.0,361,452,60,121.0,329,1,293,386,64,0,0,242,506,14337,193,181.28,,,,,,,,,,,,
105083,1561290557410,-1,1.49,2.29,3.48,1.32,2.99,0.82,0.95,0.52,-57,-4,-69,1.26,4397,3,80,37,69,793,254.0,366,450,60,122.0,329,1,293,386,64,0,0,240,-1,-1494,192,181.28,,,,,,,,,,,,
105103,1561290557430,0,1.49,2.3,3.47,1.32,2.99,0.79,0.93,0.56,-58,-2,-71,1.22,4502,3,80,37,71,791,254.0,370,460,60,121.0,329,1,291,386,64,0,0,240,-1,-14848,193,-5.59,,,,,,,,,,,,
105123,1561290557450,-1,1.5,2.31,3.44,1.33,2.99,0.8,0.88,0.68,-58,-3,-69,1.19,4478,16,80,37,72,790,254.0,378,462,60,121.0,402,1,291,462,78,0,0,242,-1,250,194,-5.59,,,,,,,,,,,,
105143,1561290557470,-1,1.5,2.3,3.41,1.34,2.98,0.81,0.86,0.7,-59,-4,-69,1.18,4394,3,80,37,73,789,254.0,373,461,60,121.0,402,1,293,452,78,0,0,241,-1,250,193,-5.59,45.699654,4.910561,20.36,194.9,2,0.45,0,0.0,0.255,3,0.13,1.7524
105163,1561290557490,-2,1.5,2.3,3.41,1.32,2.96,0.88,0.88,0.63,-60,-7,-67,1.24,4384,3,80,37,74,790,253.0,369,465,60,122.0,402,1,293,454,78,0,0,241,-1,-1,194,-5.59,,,,,,,,,,,,
105183,1561290557510,-0,1.49,2.3,3.42,1.31,2.96,0.98,0.84,0.6,-60,-8,-66,1.29,4371,3,80,37,75,790,254.0,371,467,60,123.0,402,1,293,447,78,0,0,240,-1,250,194,-5.59,,,,,,,,,,,,
105203,1561290557530,-0,1.51,2.28,3.42,1.28,2.97,0.99,0.84,0.67,-61,-10,-65,1.3,4424,3,80,37,76,792,254.0,365,462,60,122.0,402,1,291,450,78,0,0,242,-1,16384,194,-5.59,,,,,,,,,,,,
105223,1561290557550,0,1.5,2.28,3.43,1.27,2.96,0.99,0.83,0.7,-61,-11,-66,1.29,4444,3,80,37,77,793,255.0,373,471,60,123.0,402,1,291,463,78,0,0,242,506,13468,193,181.28,,,,,,,,,,,,
105243,1561290557570,-0,1.5,2.28,3.43,1.29,2.95,1.01,0.81,0.61,-61,-11,-65,1.29,4409,3,80,37,78,793,257.0,367,472,60,123.0,398,1,292,470,77,0,0,241,14337,-1,194,181.28,45.699661,4.910564,19.77,194.9,2,0.45,0,0.0,0.2567,3,0.13,1.754
105263,1561290557590,-1,1.49,2.29,3.42,1.31,2.95,1.1,0.82,0.57,-60,-12,-65,1.37,4596,3,80,37,80,792,256.0,379,465,60,122.0,398,1,288,505,77,0,0,244,-1,-1494,193,-5.59,,,,,,,,,,,,
105283,1561290557610,0,1.5,2.3,3.42,1.35,2.96,1.13,0.78,0.61,-61,-15,-65,1.37,4686,0,80,37,81,791,255.0,385,458,60,121.0,398,1,287,334,77,0,0,245,-1,18432,193,-5.59,,,,,,,,,,,,
105303,1561290557630,0,1.5,2.3,3.41,1.38,2.95,1.02,0.78,0.64,-62,-15,-63,1.28,4715,3,80,37,82,788,255.0,390,459,60,121.0,398,1,286,531,77,0,0,242,-1281,-10440,194,181.28,,,,,,,,,,,,
105323,1561290557650,2,1.5,2.32,3.42,1.37,2.95,0.95,0.74,0.52,-63,-12,-64,1.21,4727,3,80,37,82,783,252.0,392,448,60,121.0,398,1,286,541,77,0,0,246,-1,-1527,195,414.87,,,,,,,,,,,,
105343,1561290557670,4,1.49,2.31,3.41,1.36,2.95,0.85,0.72,0.56,-62,-8,-66,1.11,4752,3,80,37,83,777,255.0,395,453,60,123.0,482,1,285,529,94,0,0,246,506,-41,195,181.28,45.699669,4.910564,19.81,194.9,2,0.45,0,0.0,0.2583,3,0.13,1.7557
105363,1561290557690,1,1.5,2.33,3.43,1.35,2.96,0.82,0.78,0.59,-60,-7,-66,1.13,4833,3,80,37,83,774,257.0,405,468,60,123.0,482,1,284,527,94,0,0,248,14337,10812,195,181.28,,,,,,,,,,,,
105383,1561290557708,-0,1.5,2.35,3.41,1.36,2.93,0.83,0.8,0.56,-60,-8,-66,1.15,4879,3,80,37,83,770,260.0,410,460,60,122.0,482,1,283,516,94,0,0,251,-1,-1,196,-5.59,,,,,,,,,,,,
105403,1561290557728,1,1.5,2.38,3.39,1.37,2.93,0.84,0.81,0.58,-61,-10,-66,1.17,4904,1,80,37,83,768,262.0,410,459,60,121.0,482,1,283,658,94,0,0,256,-1,-1,197,-5.59,,,,,,,,,,,,
105423,1561290557748,5,1.51,2.38,3.39,1.36,2.93,0.78,0.8,0.57,-61,-6,-66,1.12,4942,3,80,37,83,765,264.0,413,453,60,123.0,482,1,282,654,94,0,0,258,-1,-1,199,181.28,,,,,,,,,,,,
105443,1561290557768,0,1.51,2.41,3.38,1.37,2.89,0.8,0.79,0.63,-60,-5,-66,1.12,4919,1,80,37,83,764,265.0,415,464,60,123.0,613,1,283,659,122,0,0,263,-1,-1,200,181.28,45.699673,4.910564,19.58,195.0,2,0.45,0,0.0,0.26,3,0.13,1.7574
105463,1561290557788,1,1.51,2.43,3.37,1.37,2.85,0.88,0.83,0.58,-60,-8,-66,1.21,4849,3,80,37,84,764,268.0,412,457,60,121.0,613,1,285,643,122,0,0,262,-1,-1,204,-5.59,,,,,,,,,,,,
105483,1561290557807,-1,1.53,2.43,3.37,1.37,2.84,0.9,0.82,0.57,-62,-9,-67,1.22,4746,3,80,37,84,764,269.0,410,454,60,121.0,613,1,285,627,122,0,0,261,-1,-1281,204,-5.59,,,,,,,,,,,,
105503,1561290557827,2,1.52,2.43,3.38,1.35,2.86,0.82,0.8,0.57,-62,-8,-67,1.15,4664,3,80,37,85,763,271.0,398,453,60,123.0,613,1,287,647,122,0,0,261,-1281,250,204,181.28,,,,,,,,,,,,
105523,1561290557847,2,1.53,2.43,3.39,1.35,2.87,0.79,0.81,0.52,-62,-5,-67,1.13,4578,3,80,37,85,763,272.0,392,452,60,122.0,613,1,288,632,122,0,0,261,250,250,207,181.28,,,,,,,,,,,,
105543,1561290557867,3,1.53,2.41,3.43,1.34,2.91,0.74,0.83,0.53,-61,-2,-68,1.11,4544,3,80,37,85,763,270.0,391,455,60,123.0,526,1,288,615,109,0,0,260,-1,-1,207,181.28,45.699676,4.910564,20.22,195.0,2,0.45,0,0.0,0.2617,3,0.13,1.759
105563,1561290557887,2,1.56,2.42,3.48,1.32,2.93,0.63,0.84,0.44,-60,1,-67,1.05,4602,3,80,37,86,767,272.0,385,458,60,123.0,526,1,287,620,109,0,0,257,250,-1,208,181.28,,,,,,,,,,,,
105583,1561290557909,3,1.58,2.42,3.49,1.32,2.96,0.65,0.86,0.38,-58,3,-68,1.08,4728,3,80,37,87,769,270.0,389,459,60,123.0,526,1,286,623,109,0,0,257,-1,10824,208,181.28,,,,,,,,,,,,
105603,1561290557929,0,1.6,2.42,3.49,1.33,2.96,0.7,0.91,0.45,-57,-0,-67,1.15,4876,3,80,37,88,773,270.0,399,461,60,123.0,526,1,283,634,109,0,0,258,-1,-1494,209,-5.59,,,,,,,,,,,,
105623,1561290557949,1,1.61,2.41,3.49,1.36,2.95,0.71,0.84,0.38,-58,-3,-69,1.1,5067,3,80,37,88,776,272.0,408,463,60,122.0,574,1,283,628,120,0,0,259,250,630,209,-5.59,,,,,,,,,,,,
105643,1561290557969,1,1.64,2.39,3.49,1.4,2.95,0.61,0.84,0.5,-56,0,-67,1.04,5260,3,80,37,87,773,272.0,430,449,60,123.0,574,1,292,613,120,0,0,260,250,21760,211,181.28,45.69968,4.910561,21.28,195.0,2,0.45,0,0.0,0.2633,3,0.13,1.7607
105663,1561290557989,4,1.67,2.38,3.44,1.4,2.9,0.61,0.86,0.45,-57,1,-67,1.05,5493,3,80,37,85,767,270.0,452,463,60,122.0,574,1,307,592,120,0,0,265,250,-1534,212,414.87,,,,,,,,,,,,
105683,1561290558003,2,1.7,2.38,3.37,1.43,2.86,0.64,0.85,0.47,-56,-2,-67,1.06,5623,9,80,37,84,759,274.0,462,464,60,121.0,574,1,317,691,120,0,0,270,2414,250,217,-5.59,,,,,,,,,,,,
105703,1561290558023,1,1.73,2.38,3.28,1.53,2.83,0.61,0.86,0.62,-54,-2,-66,1.05,5669,14,80,37,83,750,278.0,472,456,60,123.0,574,1,322,696,120,0,0,282,630,-32256,221,-5.59,,,,,,,,,,,,
105723,1561290558043,1,1.77,2.39,3.18,1.6,2.79,0.59,0.81,0.75,-52,2,-66,1.0,5650,22,80,37,82,740,283.0,479,455,60,123.0,654,1,322,681,146,0,0,300,-1529,0,223,181.28,,,,,,,,,,,,
105743,1561290558063,4,1.8,2.4,3.1,1.67,2.78,0.6,0.79,0.82,-52,1,-65,1.0,5474,9,80,37,83,730,289.0,473,456,60,122.0,654,1,310,689,146,0,0,302,0,2414,229,181.28,45.699688,4.910558,21.78,194.9,2,0.45,0,0.0,0.265,3,0.13,1.7624
105763,1561290558091,1,1.83,2.4,3.06,1.74,2.76,0.61,0.82,0.88,-52,1,-64,1.02,5241,13,80,37,84,726,290.0,451,462,60,122.0,654,1,294,681,146,0,0,294,0,90,234,-5.59,,,,,,,,,,,,
105783,1561290558111,1,1.86,2.4,3.06,1.74,2.73,0.69,0.82,0.89,-51,-2,-62,1.07,4917,0,80,37,85,724,294.0,436,453,60,121.0,654,1,283,672,146,0,0,290,85,-1281,242,181.28,,,,,,,,,,,,
105803,1561290558131,3,1.89,2.41,3.11,1.73,2.71,0.59,0.84,0.8,-50,1,-60,1.03,4801,3,80,37,87,725,293.0,420,455,60,121.0,654,1,284,668,146,0,0,288,21760,-1,245,414.87,,,,,,,,,,,,
105823,1561290558151,4,1.91,2.4,3.19,1.73,2.81,0.56,0.81,0.82,-47,3,-60,0.99,4768,3,80,37,89,730,291.0,409,452,60,123.0,654,1,285,662,146,0,0,285,20480,250,247,181.28,,,,,,,,,,,,
105843,1561290558171,0,1.93,2.4,3.28,1.77,3.01,0.66,0.79,0.83,-44,2,-57,1.02,4918,3,80,37,93,736,288.0,413,462,60,123.0,481,1,281,680,119,0,0,282,0,-1,248,181.28,45.699692,4.910553,22.61,194.9,2,0.45,0,0.0,0.2667,3,0.14,1.764
105863,1561290558191,3,1.95,2.39,3.31,1.8,3.11,0.62,0.72,0.74,-44,-1,-55,0.95,5262,3,80,37,95,743,287.0,421,455,60,122.0,481,1,288,680,119,0,0,283,41,-10440,249,181.28,,,,,,,,,,,,
105883,1561290558211,-0,1.97,2.4,3.27,1.8,3.08,0.71,0.71,0.84,-42,-4,-52,1.0,5553,17,80,37,95,744,288.0,445,463,60,122.0,481,1,300,744,119,0,0,285,0,-1,250,-5.59,,,,,,,,,,,,
105903,1561290558231,1,1.99,2.39,3.22,1.8,3.08,0.74,0.75,0.85,-40,-4,-49,1.05,5864,23,80,37,95,742,291.0,471,461,60,123.0,481,1,311,750,119,0,0,291,20480,105,256,-5.59,,,,,,,,,,,,
105923,1561290558251,3,2.02,2.39,3.12,1.79,2.96,0.82,0.76,0.89,-38,-6,-47,1.12,6127,19,80,37,95,740,292.0,495,455,60,123.0,676,1,323,758,176,0,0,296,80,-12032,260,181.28,,,,,,,,,,,,
105943,1561290558271,5,2.04,2.39,3.04,1.79,2.88,0.74,0.79,0.95,-36,-7,-45,1.09,6283,69,80,37,95,728,298.0,514,461,60,121.0,676,1,331,763,176,0,0,311,100,-25856,265,-5.59,45.699696,4.910547,24.85,194.9,2,0.45,0,0.0,0.2683,3,0.14,1.7657
105963,1561290558291,5,2.07,2.39,2.94,1.81,2.82,0.74,0.75,1.04,-35,-7,-43,1.05,6212,3,80,37,95,724,305.0,519,461,60,121.0,676,1,327,751,176,0,0,315,29440,165,271,-5.59,,,,,,,,,,,,
105983,1561290558311,5,2.11,2.39,2.79,1.91,2.75,0.7,0.7,1.11,-34,-5,-41,0.99,6087,68,80,37,95,723,309.0,515,459,60,121.0,676,1,321,756,176,0,0,325,32000,29440,282,181.28,,,,,,,,,,,,
106003,1561290558331,5,2.13,2.4,2.71,2.0,2.69,0.6,0.64,1.13,-34,-4,-39,0.88,5920,50,80,37,95,727,314.0,507,455,60,121.0,676,1,313,752,176,0,0,324,135,110,288,181.28,,,,,,,,,,,,
106023,1561290558351,3,2.15,2.4,2.72,2.01,2.7,0.49,0.64,1.14,-33,-4,-37,0.81,5822,14,80,37,95,734,317.0,496,463,60,120.0,563,1,310,750,165,0,0,327,-28416,-10554,293,-5.59,,,,,,,,,,,,
106043,1561290558371,2,2.17,2.41,2.76,2.02,2.79,0.44,0.5,1.06,-33,-5,-35,0.66,5885,3,80,37,95,739,319.0,489,460,60,122.0,563,1,314,743,165,0,0,330,-27136,-24576,300,-5.59,45.699699,4.910541,25.41,194.9,2,0.45,0,0.0,0.27,3,0.14,1.7674
106063,1561290558391,4,2.17,2.46,2.91,2.08,2.92,0.46,0.43,1.07,-31,-8,-33,0.63,6079,3,80,37,95,747,323.0,497,465,60,121.0,563,1,320,745,165,0,0,332,-24576,6668,303,-5.59,,,,,,,,,,,,
106083,1561290558411,5,2.18,2.48,3.04,2.17,3.02,0.48,0.42,1.09,-29,-12,-32,0.64,6281,34,80,37,95,753,325.0,507,461,60,122.0,563,1,331,763,165,0,0,334,-23296,-1246,307,-5.59,,,,,,,,,,,,
106103,1561290558431,-0,2.19,2.46,3.05,2.21,3.11,0.35,0.41,1.04,-28,-8,-29,0.54,6434,40,80,37,95,752,326.0,524,460,60,123.0,563,1,339,769,165,0,0,341,165,170,312,414.87,,,,,,,,,,,,
106123,1561290558451,3,2.19,2.43,3.05,2.2,3.1,0.38,0.37,1.11,-26,-6,-28,0.53,6517,12,80,37,95,752,334.0,535,456,60,122.0,597,1,343,771,190,0,0,348,4838,6870,318,-5.59,,,,,,,,,,,,
106143,1561290558471,5,2.18,2.44,3.01,2.21,3.06,0.45,0.37,1.13,-24,-8,-26,0.58,6487,27,80,37,95,753,337.0,537,458,60,122.0,597,1,342,771,190,0,0,349,2560,6870,321,-5.59,45.699703,4.910532,29.02,194.9,2,0.45,0,0.0,0.2717,3,0.14,1.769
106163,1561290558491,-1,2.2,2.44,2.94,2.21,3.05,0.33,0.42,0.96,-23,-6,-24,0.53,6430,13,80,37,95,756,341.0,533,458,60,123.0,597,1,339,760,190,0,0,350,6668,3327,327,414.87,,,,,,,,,,,,
106183,1561290558511,3,2.2,2.44,2.9,2.19,2.99,0.35,0.49,1.01,-22,-7,-23,0.6,6421,29,80,37,95,760,344.0,533,458,60,122.0,597,1,339,768,190,0,0,350,-30438,2811,330,181.28,,,,,,,,,,,,
106203,1561290558531,6,2.21,2.43,2.84,2.14,2.95,0.39,0.44,1.1,-21,-7,-22,0.59,6485,11,80,37,95,762,348.0,534,457,60,122.0,597,1,342,771,190,0,0,354,-1246,-14714,335,181.28,,,,,,,,,,,,
106223,1561290558551,1,2.22,2.4,2.83,2.11,3.0,0.37,0.42,1.0,-20,-6,-22,0.56,6555,3,80,37,95,754,352.0,532,457,60,121.0,597,1,345,757,190,0,0,361,3183,28553,338,181.28,,,,,,,,,,,,
106243,1561290558571,4,2.23,2.37,2.87,2.07,3.05,0.39,0.44,1.03,-19,-6,-21,0.59,6517,27,80,37,95,743,353.0,538,460,60,123.0,557,1,343,771,188,0,0,359,-6644,28553,341,-5.59,45.699711,4.910524,31.23,194.9,2,0.45,0,0.0,0.2733,3,0.14,1.7707
106263,1561290558591,1,2.23,2.36,2.89,2.04,3.07,0.45,0.43,1.08,-17,-6,-20,0.62,6609,3,80,37,95,733,355.0,532,460,60,121.0,557,1,348,749,188,0,0,356,4104,-6458,345,-5.59,,,,,,,,,,,,
106283,1561290558611,1,2.25,2.36,2.87,2.02,3.08,0.3,0.38,1.01,-16,-4,-18,0.49,6632,3,80,37,95,727,357.0,535,455,60,122.0,557,1,349,768,188,0,0,362,-6640,2790,348,181.28,,,,,,,,,,,,
106303,1561290558631,4,2.26,2.35,2.89,2.02,3.1,0.47,0.38,1.04,-15,-8,-18,0.61,6567,3,80,37,95,712,359.0,534,454,60,122.0,557,1,346,765,188,0,0,363,-29302,-1268,351,-5.59,,,,,,,,,,,,
106323,1561290558651,0,2.26,2.35,2.91,2.0,3.16,0.32,0.34,0.91,-14,-6,-16,0.47,6722,3,80,37,95,694,359.0,538,456,60,122.0,558,1,354,772,197,0,0,360,-29302,-6458,353,414.87,,,,,,,,,,,,
106343,1561290558671,4,2.28,2.33,2.96,1.99,3.19,0.49,0.29,1.01,-12,-5,-15,0.57,6908,3,80,37,95,691,360.0,546,461,60,122.0,558,1,363,750,197,0,0,362,-14707,-6405,355,-5.59,45.699711,4.910514,33.65,194.9,2,0.45,0,0.0,0.275,3,0.14,1.7724
106363,1561290558691,1,2.28,2.31,2.97,2.0,3.18,0.24,0.2,0.89,-12,-2,-14,0.31,6908,0,80,37,94,686,361.0,561,455,60,123.0,558,1,364,734,197,0,0,366,-6458,0,358,181.28,,,,,,,,,,,,
106383,1561290558711,-0,2.29,2.3,2.94,2.01,3.2,0.42,0.25,0.95,-10,-5,-12,0.49,6993,2,80,37,94,683,363.0,565,457,60,121.0,558,1,368,717,197,0,0,369,3082,-6656,360,181.28,,,,,,,,,,,,
106403,1561290558731,5,2.29,2.29,2.93,2.01,3.18,0.48,0.25,0.9,-9,-3,-11,0.54,7102,3,80,37,94,681,365.0,569,455,60,122.0,558,1,376,791,197,0,0,369,-6405,-6656,363,-5.59,,,,,,,,,,,,
106423,1561290558751,3,2.29,2.26,2.89,2.01,3.11,0.24,0.18,0.84,-8,-1,-9,0.3,7075,3,80,37,94,680,369.0,578,455,60,123.0,558,1,374,762,197,0,0,375,-6656,3,365,181.28,,,,,,,,,,,,
106443,1561290558771,2,2.3,2.25,2.86,2.01,3.11,0.42,0.16,0.85,-7,-3,-9,0.45,7027,3,80,36,94,681,370.0,568,458,60,120.0,558,1,371,738,204,0,0,378,-6656,8200,369,414.87,45.699718,4.910504,35.0,194.9,2,0.45,0,0.0,0.2767,3,0.14,1.774
106463,1561290558791,1,2.29,2.23,2.84,2.01,3.11,0.58,0.18,0.9,-7,-4,-7,0.6,7088,3,80,36,94,681,372.0,575,456,60,122.0,558,1,375,717,204,0,0,381,-6656,8200,371,-5.59,,,,,,,,,,,,
106483,1561290558810,3,2.3,2.24,2.85,2.02,3.11,0.32,0.08,0.79,-7,1,-7,0.33,7072,3,80,36,94,681,373.0,580,454,60,123.0,558,1,374,698,204,0,0,380,-6656,2278,373,181.28,,,,,,,,,,,,
106503,1561290558830,3,2.3,2.24,2.87,2.02,3.14,0.18,0.04,0.73,-6,2,-7,0.18,7129,3,80,36,94,680,375.0,578,455,60,122.0,558,1,379,684,204,0,0,386,770,-19019,374,414.87,,,,,,,,,,,,
106523,1561290558850,1,2.3,2.24,2.89,2.02,3.18,0.36,0.09,0.79,-5,-4,-7,0.38,7222,3,80,36,94,679,378.0,583,466,60,122.0,558,1,386,663,204,0,0,384,2278,-3866,377,181.28,,,,,,,,,,,,
106543,1561290558870,0,2.3,2.24,2.89,2.02,3.23,0.53,0.11,0.84,-4,-6,-6,0.54,7473,3,80,36,94,678,381.0,592,458,60,122.0,480,1,405,660,181,0,0,393,-18948,-31744,381,-5.59,45.699722,4.910493,35.82,194.9,2,0.45,0,0.0,0.2783,3,0.14,1.7757
106563,1561290558890,1,2.29,2.24,2.88,2.04,3.2,0.68,0.16,0.88,-4,-8,-4,0.7,7603,3,80,36,93,678,384.0,610,458,60,122.0,480,1,416,640,181,0,0,399,-19019,-1818,382,181.28,,,,,,,,,,,,
106583,1561290558910,4,2.29,2.25,2.85,2.04,3.19,0.81,0.19,0.93,-4,-10,-5,0.84,7741,3,80,36,93,677,387.0,611,454,60,121.0,480,1,426,839,181,0,0,400,240,10541,386,-5.59,,,,,,,,,,,,
106603,1561290558930,5,2.29,2.27,2.8,2.04,3.13,0.77,0.19,0.96,-4,-9,-5,0.79,7793,3,80,36,92,678,390.0,613,462,60,122.0,480,1,431,843,181,0,0,411,-1562,-4059,390,181.28,,,,,,,,,,,,
106623,1561290558950,5,2.29,2.27,2.78,2.05,3.1,0.56,0.12,0.85,-4,-6,-4,0.57,7703,3,80,36,91,677,397.0,611,457,60,122.0,480,1,424,827,181,0,0,412,-3968,13040,394,181.28,,,,,,,,,,,,
106643,1561290558970,5,2.29,2.26,2.79,2.05,3.1,0.3,0.1,0.75,-4,-5,-1,0.32,7467,3,80,36,92,674,399.0,607,455,60,122.0,611,1,407,819,241,0,0,415,28696,-26615,398,181.28,45.69973,4.910481,37.27,194.9,2,0.45,0,0.0,0.28,3,0.14,1.7774
106663,1561290558990,4,2.29,2.27,2.8,2.05,3.09,0.08,0.09,0.61,-4,-2,-4,0.12,7422,3,80,36,93,671,403.0,598,456,60,122.0,611,1,402,797,241,0,0,409,-8151,11560,403,181.28,,,,,,,,,,,,
106683,1561290559004,5,2.29,2.26,2.82,2.04,3.09,-0.13,0.0,0.55,-4,-2,-4,0.13,7649,3,80,36,93,669,406.0,605,455,60,122.0,611,1,419,784,241,0,0,413,2524,9517,402,181.28,,,,,,,,,,,,
106703,1561290559024,1,2.3,2.25,2.87,2.04,3.15,-0.22,-0.01,0.5,-4,-1,-2,0.22,7921,3,80,36,91,668,407.0,620,455,60,122.0,611,1,442,771,241,0,0,422,10392,-8165,406,181.28,,,,,,,,,,,,
106723,1561290559044,5,2.3,2.26,2.9,2.04,3.15,-0.06,0.03,0.57,-4,-1,-0,0.07,8138,3,80,36,91,668,410.0,615,458,60,121.0,589,1,446,779,240,0,0,423,9517,-3314,409,-5.59,,,,,,,,,,,,
106743,1561290559064,1,2.31,2.26,2.9,2.05,3.14,-0.03,0.01,0.62,-3,1,-2,0.03,8374,4,80,36,89,669,414.0,623,454,60,122.0,589,1,438,769,240,0,0,437,2524,21432,412,-5.59,45.699734,4.91047,38.5,194.9,2,0.45,0,0.0,0.2817,3,0.14,1.779
106763,1561290559084,1,2.31,2.27,2.84,2.08,3.1,-0.12,0.05,0.75,-3,3,-2,0.13,8632,32,80,36,88,671,418.0,630,451,60,121.0,589,1,430,921,240,0,0,444,-3414,-18341,417,181.28,,,,,,,,,,,,
106783,1561290559110,6,2.31,2.28,2.77,2.12,3.05,-0.1,0.13,0.81,-2,1,-0,0.17,8786,54,80,36,87,672,423.0,625,448,60,120.0,589,1,424,902,240,0,0,457,3826,14488,423,181.28,,,,,,,,,,,,
106803,1561290559130,5,2.32,2.29,2.71,2.17,2.99,-0.01,0.13,0.93,-2,4,-0,0.13,8831,30,80,36,87,672,429.0,632,451,60,121.0,589,1,423,892,240,0,0,472,3635,8488,432,414.87,,,,,,,,,,,,
106823,1561290559150,6,2.32,2.32,2.65,2.21,2.95,0.1,-0.01,1.03,-2,3,-2,0.1,8856,43,81,36,86,671,438.0,626,453,60,121.0,673,1,422,874,295,0,0,469,-768,16408,438,-5.59,,,,,,,,,,,,
106843,1561290559170,5,2.32,2.34,2.65,2.22,2.94,0.19,-0.18,1.08,-3,2,-2,0.26,8886,3,81,36,87,668,441.0,630,452,60,121.0,673,1,422,844,295,0,0,476,23400,505,440,-5.59,45.699738,4.910458,40.19,194.8,2,0.45,0,0.0,0.2833,3,0.14,1.7807
106863,1561290559190,4,2.32,2.34,2.65,2.25,2.93,0.27,-0.32,1.09,-3,1,-2,0.42,8928,45,80,36,86,666,448.0,625,460,60,122.0,673,1,420,874,295,0,0,479,2131,3580,448,181.28,,,,,,,,,,,,
106883,1561290559210,4,2.33,2.34,2.66,2.26,2.96,0.32,-0.47,1.06,-2,3,-4,0.56,9001,35,81,36,86,666,453.0,633,460,60,121.0,673,1,418,514,295,0,0,503,-6387,-6528,453,-5.59,,,,,,,,,,,,
106903,1561290559230,4,2.34,2.34,2.65,2.27,3.02,0.34,-0.53,1.08,-2,-1,-3,0.63,9146,33,81,36,86,666,460.0,630,453,60,121.0,673,1,418,874,295,0,0,490,-9160,3580,460,-5.59,,,,,,,,,,,,
106923,1561290559250,6,2.33,2.36,2.7,2.28,3.07,0.32,-0.63,1.05,-3,1,-4,0.7,9277,33,81,36,86,668,465.0,636,461,60,121.0,668,1,418,884,311,0,0,494,-18108,6274,465,-5.59,,,,,,,,,,,,
106943,1561290559270,2,2.34,2.37,2.69,2.3,3.1,0.31,-0.49,1.14,-2,-1,-3,0.58,9314,40,81,36,86,670,469.0,641,453,60,122.0,668,1,418,884,311,0,0,508,30272,11560,469,181.28,45.699745,4.910446,42.21,194.8,2,0.45,0,0.0,0.285,3,0.15,1.7824
106963,1561290559290,2,2.34,2.37,2.71,2.29,3.09,0.22,-0.32,1.06,-1,3,-1,0.39,9351,22,81,36,86,671,474.0,642,453,60,122.0,668,1,418,864,311,0,0,500,-9203,-4054,474,414.87,,,,,,,,,,,,
106983,1561290559310,6,2.33,2.36,2.66,2.28,3.09,0.23,-0.41,1.1,-1,1,-1,0.46,9479,4,81,36,86,672,481.0,637,457,60,122.0,668,1,418,874,311,0,0,502,-23367,-22519,481,181.28,,,,,,,,,,,,
107003,1561290559330,2,2.33,2.36,2.64,2.29,3.08,0.25,-0.43,1.03,-0,2,1,0.49,9546,4,81,36,85,670,484.0,641,460,60,121.0,668,1,416,847,311,0,0,514,3580,6274,484,-5.59,,,,,,,,,,,,
107023,1561290559350,4,2.33,2.36,2.63,2.28,3.07,0.31,-0.3,1.09,0,1,0,0.43,9360,3,81,36,86,668,488.0,643,454,60,122.0,668,1,418,865,311,0,0,508,-1562,-3414,488,414.87,,,,,,,,,,,,
107043,1561290559370,2,2.33,2.35,2.66,2.27,3.09,0.25,-0.25,1.07,1,2,1,0.35,9328,3,81,36,86,665,495.0,637,460,60,122.0,643,1,418,854,314,0,0,513,-1818,1248,495,-5.59,45.699753,4.910432,45.18,194.8,2,0.45,0,0.0,0.2867,3,0.15,1.784
107063,1561290559390,4,2.33,2.34,2.68,2.25,3.14,0.4,-0.35,1.01,1,-0,0,0.53,9493,3,81,36,86,662,499.0,640,459,60,122.0,643,1,418,814,314,0,0,517,-32768,26178,497,-5.59,,,,,,,,,,,,
107083,1561290559410,4,2.32,2.34,2.7,2.24,3.13,0.37,-0.16,1.06,1,-2,1,0.4,9699,3,81,36,85,661,501.0,639,455,60,122.0,643,1,409,771,314,0,0,511,2524,15679,500,181.28,,,,,,,,,,,,
107103,1561290559430,2,2.31,2.33,2.72,2.22,3.14,0.48,-0.21,1.0,1,0,1,0.52,9941,3,81,36,85,660,504.0,642,457,60,122.0,643,1,398,744,314,0,0,527,10408,-8187,504,181.28,,,,,,,,,,,,
107123,1561290559450,4,2.31,2.33,2.73,2.21,3.15,0.48,-0.17,0.93,2,1,2,0.51,10146,14,81,36,85,661,507.0,635,450,60,122.0,643,1,405,875,314,0,0,537,-21872,2104,507,181.28,,,,,,,,,,,,
107143,1561290559470,6,2.31,2.35,2.7,2.22,3.16,0.45,-0.11,0.98,2,-2,1,0.46,10206,29,81,36,85,663,513.0,643,452,60,122.0,664,1,410,846,337,0,0,552,-3856,-3082,513,181.28,45.699757,4.910418,47.83,194.8,2,0.45,0,0.0,0.2883,3,0.15,1.7857
107163,1561290559490,2,2.31,2.35,2.67,2.22,3.13,0.41,-0.02,0.9,2,2,3,0.41,10268,38,81,36,84,665,517.0,642,456,60,120.0,664,1,413,836,337,0,0,543,16383,-8962,517,181.28,,,,,,,,,,,,
107183,1561290559510,3,2.31,2.38,2.65,2.21,3.1,0.35,-0.07,0.8,2,4,3,0.36,10234,3,81,36,85,668,522.0,646,454,60,121.0,664,1,411,865,337,0,0,549,2524,-22263,522,414.87,,,,,,,,,,,,
107203,1561290559530,3,2.3,2.38,2.66,2.21,3.07,0.31,-0.1,0.91,2,2,1,0.33,10279,10,81,36,85,669,528.0,638,458,60,121.0,664,1,414,875,337,0,0,546,6274,-9072,528,181.28,,,,,,,,,,,,
107223,1561290559550,6,2.31,2.38,2.67,2.21,3.04,0.26,-0.2,0.97,2,3,2,0.33,10273,3,81,36,85,671,530.0,653,455,60,122.0,664,1,414,836,337,0,0,555,2524,-22263,530,181.28,,,,,,,,,,,,
107243,1561290559570,6,2.3,2.38,2.67,2.2,3.08,0.31,-0.21,0.94,1,3,0,0.37,10330,3,81,36,85,671,535.0,647,451,60,122.0,628,1,418,825,333,0,0,558,-32248,-22263,535,181.28,45.699764,4.910404,49.78,194.8,2,0.45,0,0.0,0.29,3,0.15,1.7874
107263,1561290559590,6,2.3,2.38,2.7,2.19,3.11,0.3,-0.15,0.93,2,3,1,0.34,10451,3,81,36,85,670,537.0,654,456,60,121.0,628,1,427,795,333,0,0,565,-30064,-18032,540,181.28,,,,,,,,,,,,
107283,1561290559610,6,2.3,2.4,2.7,2.23,3.12,0.32,-0.08,0.92,2,3,-0,0.33,10581,9,81,36,84,669,543.0,658,457,60,122.0,628,1,432,846,333,0,0,569,-3082,12552,540,181.28,,,,,,,,,,,,
107303,1561290559630,2,2.3,2.43,2.72,2.22,3.13,0.37,-0.17,0.82,2,2,0,0.41,10744,21,81,36,84,668,546.0,651,452,60,121.0,628,1,436,846,333,0,0,570,-22519,-8188,544,-5.59,,,,,,,,,,,,
107323,1561290559650,3,2.3,2.4,2.73,2.19,3.13,0.34,-0.17,0.86,2,3,0,0.38,10825,3,81,36,84,668,551.0,659,459,60,121.0,628,1,439,836,333,0,0,581,-32248,-16384,551,181.28,,,,,,,,,,,,
107343,1561290559670,5,2.3,2.38,2.72,2.19,3.11,0.34,-0.2,0.76,1,3,1,0.39,10738,3,81,36,84,668,557.0,651,456,60,121.0,624,1,436,836,344,0,0,584,2216,1,555,414.87,45.699772,4.910389,51.83,194.7,2,0.45,0,0.0,0.2917,3,0.15,1.789
107363,1561290559690,5,2.3,2.36,2.73,2.18,3.09,0.32,-0.13,0.82,1,2,1,0.35,10569,8,81,36,84,668,561.0,657,452,60,121.0,624,1,431,846,344,0,0,577,-18032,-32504,560,181.28,,,,,,,,,,,,
107383,1561290559710,5,2.3,2.36,2.74,2.18,3.14,0.32,-0.04,0.82,2,0,1,0.32,10593,21,81,36,85,669,561.0,650,450,60,121.0,624,1,433,875,344,0,0,586,-28648,-3210,561,181.28,,,,,,,,,,,,
107403,1561290559730,4,2.31,2.34,2.84,2.16,3.15,0.34,0.06,0.9,2,3,1,0.35,10689,3,81,36,85,669,564.0,650,453,60,122.0,624,1,435,845,344,0,0,568,12552,-12040,564,181.28,,,,,,,,,,,,
107423,1561290559750,3,2.31,2.31,2.81,2.16,3.15,0.38,0.11,1.01,2,3,0,0.39,10599,3,81,36,85,669,566.0,657,453,60,121.0,624,1,433,845,344,0,0,577,-2934,-16384,567,181.28,,,,,,,,,,,,
107443,1561290559770,5,2.3,2.29,2.83,2.17,3.14,0.34,0.21,0.95,1,1,1,0.4,10498,3,81,36,86,674,567.0,656,454,60,122.0,599,1,431,905,340,0,0,576,12552,30208,567,181.28,45.69978,4.910374,53.97,194.7,2,0.45,0,0.0,0.2933,3,0.15,1.7907
107463,1561290559790,2,2.31,2.26,2.88,2.08,3.19,0.42,0.27,0.95,1,0,2,0.5,10162,3,81,36,87,680,566.0,648,452,60,122.0,599,1,408,893,340,0,0,568,12552,-3190,566,181.28,,,,,,,,,,,,
107483,1561290559809,3,2.3,2.22,2.93,2.0,3.26,0.49,0.21,0.93,2,2,1,0.53,10005,3,81,36,88,684,569.0,651,456,60,121.0,599,1,397,887,340,0,0,564,-8186,1780,569,-5.59,,,,,,,,,,,,
107503,1561290559829,3,2.31,2.18,2.94,2.0,3.27,0.47,0.23,0.9,2,1,2,0.52,9847,3,81,36,88,690,569.0,646,458,60,121.0,599,1,404,841,340,0,0,567,1780,-29984,569,-5.59,,,,,,,,,,,,
107523,1561290559849,3,2.31,2.15,2.95,1.97,3.3,0.54,0.18,0.9,2,-1,1,0.57,9620,0,81,36,88,705,571.0,641,453,60,121.0,599,1,414,916,340,0,0,563,1780,-3190,569,181.28,,,,,,,,,,,,
107543,1561290559869,1,2.31,2.12,2.94,1.94,3.35,0.43,0.25,0.76,1,4,2,0.5,9479,3,81,36,88,739,570.0,646,453,60,122.0,579,1,418,869,331,0,0,566,1267,-30159,566,181.28,45.699791,4.910358,55.7,194.7,2,0.45,0,0.0,0.295,3,0.15,1.7924
107563,1561290559889,6,2.3,2.12,2.96,1.89,3.32,0.38,0.25,0.72,1,1,0,0.46,9566,3,81,36,88,758,568.0,646,456,60,122.0,579,1,417,846,331,0,0,547,-8186,2104,565,181.28,,,,,,,,,,,,
107583,1561290559909,3,2.31,2.12,2.94,1.88,3.31,0.54,0.23,0.73,3,3,0,0.58,9962,3,81,36,88,787,561.0,655,453,60,122.0,579,1,399,815,331,0,0,551,-18032,-9072,560,181.28,,,,,,,,,,,,
107603,1561290559929,4,2.3,2.1,2.97,1.86,3.43,0.64,0.17,0.68,2,1,-1,0.66,10285,3,81,36,87,817,561.0,658,458,60,121.0,579,1,417,775,331,0,0,542,-18032,6274,555,-5.59,,,,,,,,,,,,
107623,1561290559949,3,2.31,2.1,3.01,1.85,3.43,0.63,0.16,0.65,1,-1,-0,0.65,10629,3,81,36,86,867,560.0,656,455,60,121.0,579,1,431,719,331,0,0,553,-28648,-22519,556,181.28,,,,,,,,,,,,
107643,1561290559969,4,2.3,2.08,3.04,1.83,3.38,0.57,0.28,0.67,2,-2,0,0.64,10782,3,81,36,86,911,560.0,663,456,60,121.0,521,1,439,678,290,0,0,560,-28648,-22263,554,181.28,45.699799,4.910342,56.43,194.7,2,0.45,0,0.0,0.2967,3,0.16,1.794
107663,1561290559989,2,2.3,2.09,3.06,1.82,3.36,0.67,0.21,0.67,1,1,-1,0.7,11107,3,81,36,86,945,560.0,672,457,60,122.0,521,1,444,647,290,0,0,556,6273,2104,556,181.28,,,,,,,,,,,,
107683,1561290560005,4,2.31,2.09,3.07,1.82,3.37,0.62,0.27,0.49,2,4,1,0.68,11488,3,81,36,82,954,558.0,672,457,60,122.0,521,1,441,794,290,0,0,555,-32504,-28648,555,414.87,,,,,,,,,,,,
107703,1561290560025,3,2.31,2.09,3.05,1.83,3.35,0.6,0.21,0.5,2,7,0,0.63,11624,3,81,36,74,949,556.0,675,456,60,121.0,521,1,440,681,290,0,0,555,-22263,6273,556,-5.59,,,,,,,,,,,,
107723,1561290560045,1,2.31,2.15,3.02,1.84,3.36,0.57,0.27,0.57,2,7,0,0.63,11412,3,81,36,66,930,558.0,676,460,60,122.0,453,1,442,581,251,0,0,571,-22359,774,555,181.28,,,,,,,,,,,,
107743,1561290560065,3,2.31,2.15,2.94,1.89,3.28,0.6,0.13,0.55,2,8,0,0.62,10958,6,81,36,58,906,562.0,665,458,60,121.0,453,1,428,544,251,0,0,576,-28648,259,560,-5.59,45.699806,4.910325,55.93,194.6,2,0.45,0,0.0,0.2983,3,0.16,1.7957
107763,1561290560091,2,2.3,2.16,2.87,1.94,3.23,0.62,-0.0,0.62,2,6,-1,0.62,10359,4,81,36,50,872,564.0,661,463,60,122.0,453,1,388,397,251,0,0,576,12552,-16384,562,-5.59,,,,,,,,,,,,
107783,1561290560111,4,2.31,2.16,2.87,1.91,3.2,0.6,0.07,0.52,2,4,0,0.6,9973,3,81,36,43,833,563.0,656,461,60,122.0,453,1,350,299,251,0,0,567,-2934,-8186,564,181.28,,,,,,,,,,,,
107803,1561290560131,-0,2.32,2.15,2.87,1.89,3.21,0.69,0.01,0.63,1,3,-2,0.69,9699,3,81,36,38,796,563.0,653,457,60,122.0,453,1,317,266,251,0,0,565,-23623,-30159,560,414.87,,,,,,,,,,,,
107823,1561290560151,3,2.32,2.12,2.94,1.89,3.26,0.54,0.06,0.61,2,-0,-1,0.55,9522,3,81,36,35,788,561.0,641,455,60,123.0,453,1,308,243,251,0,0,560,-18032,12552,561,181.28,,,,,,,,,,,,
107843,1561290560171,5,2.32,2.09,2.99,1.88,3.33,0.69,-0.02,0.54,2,3,-2,0.69,9356,3,81,36,33,790,562.0,650,460,60,122.0,155,1,302,226,87,0,0,552,-18032,-30159,561,-5.59,45.699814,4.910309,55.14,194.6,2,0.45,0,0.0,0.3,3,0.16,1.7974
107863,1561290560191,5,2.33,2.06,2.99,1.88,3.4,0.73,-0.05,0.52,2,-1,-4,0.73,9231,3,81,36,31,805,561.0,647,457,60,122.0,155,1,295,212,87,0,0,545,-18032,2104,560,181.28,,,,,,,,,,,,
107883,1561290560209,5,2.32,2.03,3.05,1.85,3.42,0.72,-0.03,0.48,2,2,-1,0.72,9213,3,81,36,29,821,557.0,647,456,60,123.0,155,1,287,204,87,0,0,531,-22359,-32248,557,414.87,,,,,,,,,,,,
107903,1561290560229,3,2.34,1.99,3.12,1.82,3.43,0.75,0.11,0.47,3,-0,-1,0.76,9300,3,81,36,27,837,555.0,641,460,60,122.0,155,1,278,196,87,0,0,534,-28648,14504,557,-5.59,,,,,,,,,,,,
107923,1561290560249,4,2.33,1.96,3.11,1.81,3.5,0.7,0.17,0.39,4,2,-0,0.72,9314,3,81,36,26,858,555.0,647,458,60,123.0,155,1,274,189,87,0,0,507,14504,14504,552,181.28,,,,,,,,,,,,
107943,1561290560269,5,2.33,1.92,3.09,1.82,3.53,0.83,0.02,0.4,4,1,-1,0.84,9398,3,81,36,25,868,552.0,646,461,60,123.0,119,1,270,187,66,0,0,513,-22519,14504,552,-5.59,45.699822,4.910293,55.9,194.6,2,0.45,0,0.0,0.3017,3,0.16,1.799
107963,1561290560291,5,2.35,1.89,3.11,1.82,3.54,0.86,-0.03,0.42,4,-2,-0,0.86,9379,3,81,35,24,874,548.0,642,458,60,122.0,119,1,270,180,66,0,0,524,1779,-9212,548,-5.59,,,,,,,,,,,,
107983,1561290560311,3,2.34,1.88,3.09,1.81,3.54,0.84,-0.0,0.34,4,2,0,0.84,9436,3,81,35,23,865,546.0,646,461,60,122.0,119,1,270,175,66,0,0,525,1780,6274,543,181.28,,,,,,,,,,,,
108003,1561290560331,4,2.33,1.86,3.09,1.81,3.53,0.86,-0.04,0.37,3,-2,0,0.86,9479,3,81,35,23,852,542.0,647,458,60,123.0,119,1,270,175,66,0,0,516,-2934,2524,541,181.28,,,,,,,,,,,,
108023,1561290560351,6,2.34,1.86,3.08,1.82,3.53,0.93,-0.13,0.45,4,-0,1,0.94,9561,3,81,35,22,826,538.0,653,462,60,122.0,113,1,270,170,61,0,0,514,2524,15679,538,-5.59,,,,,,,,,,,,
108043,1561290560371,1,2.35,1.84,3.07,1.82,3.53,0.94,-0.07,0.41,4,-2,2,0.95,9600,3,81,35,22,805,536.0,650,461,60,123.0,113,1,270,171,61,0,0,513,-9072,1341,536,181.28,45.699829,4.910276,55.19,194.6,2,0.45,0,0.0,0.3033,3,0.16,1.8007
108063,1561290560391,5,2.34,1.82,3.07,1.8,3.53,0.91,-0.17,0.45,4,-1,2,0.93,9615,3,81,35,21,799,532.0,651,460,60,123.0,113,1,270,166,61,0,0,516,-28648,-4054,532,-5.59,,,,,,,,,,,,
108083,1561290560411,3,2.34,1.79,3.07,1.78,3.52,1.0,-0.18,0.45,4,-0,2,1.01,9590,3,81,35,21,790,529.0,646,461,60,123.0,113,1,270,165,61,0,0,515,-32248,-3856,529,181.28,,,,,,,,,,,,
108103,1561290560431,3,2.32,1.78,3.05,1.78,3.52,0.94,-0.15,0.51,4,-4,0,0.95,9566,3,81,35,21,778,526.0,649,460,60,123.0,113,1,270,164,61,0,0,514,-9212,-3856,526,181.28,,,,,,,,,,,,
108123,1561290560451,5,2.35,1.79,3.05,1.8,3.53,1.04,-0.19,0.49,4,-3,3,1.06,9541,3,81,35,21,766,522.0,650,460,60,123.0,113,1,270,164,61,0,0,510,1341,10994,522,-5.59,,,,,,,,,,,,
108143,1561290560471,2,2.35,1.8,3.05,1.78,3.53,0.93,-0.06,0.43,4,-3,2,0.93,9532,3,81,35,20,760,522.0,644,457,60,123.0,113,1,270,163,59,0,0,506,16383,-21872,522,181.28,45.699837,4.910261,53.99,194.5,2,0.45,0,0.0,0.305,3,0.16,1.8024
108163,1561290560491,3,2.35,1.8,3.05,1.79,3.53,0.88,-0.11,0.35,4,-2,3,0.89,9484,3,81,35,20,756,519.0,653,457,60,123.0,113,1,270,156,59,0,0,504,-14,-3414,519,181.28,,,,,,,,,,,,
108183,1561290560511,5,2.34,1.8,3.04,1.8,3.49,0.99,-0.26,0.45,3,-4,2,1.03,9379,3,81,35,20,752,514.0,650,461,60,123.0,113,1,270,156,59,0,0,501,-3856,10994,514,-5.59,,,,,,,,,,,,
108203,1561290560531,1,2.35,1.79,3.03,1.78,3.49,1.03,-0.13,0.48,4,-4,4,1.04,9337,3,81,35,20,748,513.0,650,457,60,122.0,113,1,270,156,59,0,0,497,-3414,-32248,513,181.28,,,,,,,,,,,,
108223,1561290560551,3,2.34,1.79,3.04,1.77,3.53,0.93,-0.08,0.44,4,-1,4,0.94,9286,3,81,35,20,746,510.0,643,464,60,123.0,113,1,270,156,59,0,0,494,-21872,-32768,510,181.28,,,,,,,,,,,,
108243,1561290560571,4,2.34,1.79,3.05,1.77,3.54,0.89,-0.06,0.38,4,-3,4,0.9,9222,3,81,35,20,746,510.0,646,456,60,123.0,107,1,270,156,55,0,0,499,-28648,-9216,510,181.28,45.699848,4.910245,52.19,194.5,2,0.45,0,0.0,0.3067,3,0.16,1.804
108263,1561290560591,4,2.35,1.79,3.05,1.77,3.5,0.84,-0.07,0.31,4,-1,5,0.84,9168,3,81,35,19,748,505.0,644,461,60,123.0,107,1,270,150,55,0,0,492,15661,771,505,181.28,,,,,,,,,,,,
108283,1561290560611,3,2.34,1.79,3.05,1.77,3.51,0.86,-0.22,0.31,4,-2,4,0.88,9119,3,81,35,19,750,503.0,646,466,60,123.0,107,1,270,150,55,0,0,488,2524,-6656,503,-5.59,,,,,,,,,,,,
108303,1561290560631,3,2.35,1.78,3.04,1.77,3.5,0.93,-0.34,0.39,4,-1,4,0.99,9079,3,81,35,19,752,500.0,641,462,60,123.0,107,1,270,150,55,0,0,487,-9216,-32768,500,-5.59,,,,,,,,,,,,
108323,1561290560651,3,2.35,1.77,3.05,1.77,3.48,1.0,-0.45,0.46,3,-3,2,1.1,9066,3,81,35,19,755,497.0,638,460,60,122.0,102,1,270,150,51,0,0,487,-32768,3580,499,-5.59,,,,,,,,,,,,
108343,1561290560671,6,2.35,1.75,3.06,1.76,3.48,1.1,-0.46,0.5,4,-1,3,1.2,9027,3,81,35,19,761,498.0,641,462,60,122.0,102,1,270,150,51,0,0,481,1,10305,496,-5.59,45.699852,4.910231,51.06,194.5,2,0.45,0,0.0,0.3083,3,0.17,1.8057
108363,1561290560691,5,2.35,1.75,3.05,1.76,3.49,1.08,-0.5,0.5,4,-2,1,1.19,8949,3,81,35,19,767,495.0,638,463,60,123.0,102,1,270,150,51,0,0,481,1,32033,495,-5.59,,,,,,,,,,,,
108383,1561290560711,4,2.35,1.75,3.05,1.77,3.49,1.18,-0.56,0.53,4,-2,2,1.31,8898,3,81,35,19,774,490.0,642,465,60,123.0,102,1,270,150,51,0,0,475,3580,8488,490,181.28,,,,,,,,,,,,
108403,1561290560731,4,2.35,1.76,3.03,1.77,3.5,1.14,-0.66,0.57,4,-2,-1,1.32,8848,3,81,35,19,780,488.0,641,462,60,123.0,102,1,270,150,51,0,0,474,32033,16648,488,181.28,,,,,,,,,,,,
108423,1561290560751,2,2.35,1.74,3.02,1.76,3.51,1.07,-0.76,0.54,4,-1,2,1.31,8798,3,81,35,19,795,486.0,640,460,60,123.0,102,1,270,150,50,0,0,468,10305,-17956,484,181.28,,,,,,,,,,,,
108443,1561290560771,4,2.35,1.75,3.03,1.76,3.52,0.93,-0.81,0.47,4,-1,-0,1.24,8741,3,81,36,19,807,482.0,643,460,60,123.0,102,1,270,150,50,0,0,467,2212,10305,482,181.28,45.699863,4.910216,49.72,194.4,2,0.45,0,0.0,0.31,3,0.17,1.8074
108463,1561290560791,6,2.35,1.75,3.03,1.75,3.51,0.85,-0.81,0.43,4,1,3,1.17,8692,3,81,36,18,821,480.0,641,456,60,122.0,102,1,270,144,50,0,0,465,3576,-1923,480,181.28,,,,,,,,,,,,
108483,1561290560810,5,2.36,1.74,3.05,1.75,3.52,0.97,-0.64,0.49,5,-2,3,1.16,8640,3,81,36,18,831,479.0,636,458,60,122.0,102,1,270,144,50,0,0,458,-1923,6193,478,181.28,,,,,,,,,,,,
108503,1561290560830,4,2.35,1.75,3.05,1.75,3.54,1.07,-0.52,0.5,5,-2,2,1.19,8620,3,81,36,18,846,477.0,634,458,60,122.0,102,1,270,144,50,0,0,457,-16384,-23623,477,-5.59,,,,,,,,,,,,
108523,1561290560850,2,2.35,1.74,3.04,1.77,3.54,0.96,-0.56,0.37,5,-1,5,1.12,8557,3,81,36,18,869,474.0,630,461,60,123.0,102,1,270,144,50,0,0,457,-3210,-9160,474,181.28,,,,,,,,,,,,
108543,1561290560870,6,2.35,1.74,3.03,1.77,3.52,0.97,-0.55,0.43,5,-2,2,1.12,8507,3,81,36,18,890,472.0,631,458,60,122.0,97,1,270,144,46,0,0,451,6193,14488,470,414.87,45.699871,4.910203,48.35,194.4,2,0.45,0,0.0,0.3117,3,0.17,1.8091
108563,1561290560890,3,2.36,1.74,3.04,1.78,3.53,1.08,-0.42,0.46,6,-0,6,1.16,8445,3,81,36,18,904,467.0,627,460,60,123.0,97,1,270,143,46,0,0,450,-18108,-8985,467,-5.59,,,,,,,,,,,,
108583,1561290560910,1,2.37,1.74,3.04,1.78,3.52,0.92,-0.42,0.36,5,-2,4,1.01,8415,3,81,36,18,921,466.0,637,462,60,123.0,97,1,270,143,46,0,0,449,-9160,15649,465,181.28,,,,,,,,,,,,
108603,1561290560930,4,2.37,1.74,3.05,1.77,3.51,1.02,-0.45,0.46,5,-3,6,1.12,8374,3,81,36,18,957,461.0,640,459,60,122.0,97,1,270,143,46,0,0,448,-26615,21432,463,414.87,,,,,,,,,,,,
108623,1561290560950,1,2.38,1.73,3.06,1.78,3.51,0.9,-0.4,0.38,6,0,6,0.98,8366,3,81,36,19,981,463.0,629,459,60,123.0,101,1,270,148,47,0,0,448,-8985,23400,463,-5.59,,,,,,,,,,,,
108643,1561290560970,2,2.39,1.72,3.03,1.79,3.51,0.95,-0.42,0.45,6,-1,6,1.04,8303,3,81,36,19,996,461.0,630,460,60,123.0,101,1,270,147,47,0,0,442,15649,15649,461,181.28,45.699879,4.91019,47.0,194.4,2,0.45,0,0.0,0.3133,3,0.17,1.8107
108663,1561290560990,1,2.39,1.72,3.0,1.81,3.52,0.89,-0.34,0.38,7,0,8,0.95,8249,3,81,36,19,1017,458.0,635,461,60,122.0,101,1,270,146,47,0,0,440,10305,-3267,458,-5.59,,,,,,,,,,,,
108683,1561290561004,2,2.42,1.68,2.99,1.82,3.52,0.91,-0.36,0.39,7,0,6,0.98,8216,3,81,36,19,1045,456.0,630,458,60,123.0,101,1,270,146,47,0,0,435,-18341,2131,454,414.87,,,,,,,,,,,,
108703,1561290561024,0,2.41,1.64,3.0,1.85,3.53,0.91,-0.37,0.31,8,1,9,0.98,8212,3,81,36,20,1070,454.0,630,460,60,123.0,101,1,270,150,47,0,0,432,20625,-3267,454,-5.59,,,,,,,,,,,,
108723,1561290561044,3,2.44,1.62,3.0,1.84,3.55,1.02,-0.39,0.38,9,-0,10,1.09,8173,3,81,36,20,1084,454.0,628,457,60,123.0,101,1,270,149,46,0,0,430,19477,10305,453,414.87,,,,,,,,,,,,
108743,1561290561064,1,2.45,1.6,2.99,1.86,3.56,0.93,-0.42,0.33,10,-1,7,1.02,8102,3,81,36,21,1100,453.0,627,462,60,123.0,101,1,270,151,46,0,0,426,243,23400,453,181.28,45.699886,4.910177,46.0,194.3,2,0.45,0,0.0,0.315,3,0.17,1.8124
108763,1561290561084,1,2.46,1.58,2.98,1.89,3.57,1.04,-0.53,0.45,11,-2,11,1.17,8047,3,81,36,22,1124,451.0,628,460,60,122.0,101,1,270,153,46,0,0,424,1779,23400,451,-5.59,,,,,,,,,,,,
108783,1561290561104,4,2.46,1.59,2.96,1.95,3.61,1.02,-0.51,0.44,12,-2,11,1.14,8040,3,81,36,23,1141,450.0,623,459,60,122.0,101,1,270,154,46,0,0,418,31796,19477,450,-5.59,,,,,,,,,,,,
108803,1561290561124,0,2.47,1.56,2.92,1.97,3.66,0.93,-0.51,0.37,13,-1,10,1.06,7971,3,81,36,25,1151,448.0,622,460,60,123.0,101,1,269,158,46,0,0,418,-3856,26704,448,181.28,,,,,,,,,,,,
108823,1561290561144,2,2.48,1.52,2.9,1.99,3.68,1.02,-0.58,0.42,13,-0,14,1.17,7924,3,81,37,27,1166,444.0,623,462,60,122.0,108,1,275,160,48,0,0,413,-3414,-28332,444,-5.59,,,,,,,,,,,,
108843,1561290561164,3,2.47,1.51,2.9,2.0,3.68,1.1,-0.6,0.44,14,-2,15,1.25,7931,3,81,37,29,1188,445.0,623,460,60,123.0,108,1,281,163,48,0,0,407,-8165,19477,445,414.87,45.69989,4.910165,44.81,194.3,2,0.45,0,0.0,0.3167,3,0.17,1.814
108863,1561290561184,5,2.47,1.5,2.9,1.99,3.69,0.94,-0.65,0.34,14,-1,14,1.14,7904,3,81,37,31,1209,443.0,620,461,60,123.0,108,1,287,166,48,0,0,411,-21944,243,443,181.28,,,,,,,,,,,,
108883,1561290561210,-0,2.47,1.49,2.89,1.98,3.68,0.94,-0.67,0.36,16,-0,17,1.15,7901,3,81,37,33,1219,441.0,623,460,60,123.0,108,1,292,173,48,0,0,410,-26615,243,441,181.28,,,,,,,,,,,,
108903,1561290561230,1,2.48,1.45,2.86,1.99,3.68,1.05,-0.65,0.44,17,1,18,1.23,7988,3,81,37,36,1231,440.0,626,458,60,122.0,108,1,301,184,48,0,0,405,-9166,5600,442,181.28,,,,,,,,,,,,
108923,1561290561250,4,2.49,1.46,2.89,2.04,3.67,0.95,-0.61,0.38,17,0,18,1.13,8036,3,81,37,38,1245,439.0,622,462,60,123.0,108,1,307,203,48,0,0,406,-4059,-7939,439,181.28,,,,,,,,,,,,
108943,1561290561270,2,2.48,1.46,2.83,2.09,3.64,0.91,-0.63,0.39,18,0,22,1.11,8095,3,81,37,40,1261,438.0,622,459,60,122.0,138,1,318,209,61,0,0,410,9517,23400,438,-5.59,45.699902,4.910154,43.55,194.3,2,0.45,0,0.0,0.3183,3,0.17,1.8157
108963,1561290561290,4,2.48,1.47,2.81,2.11,3.6,0.96,-0.62,0.47,19,1,21,1.14,8134,3,81,37,41,1263,437.0,626,458,60,123.0,138,1,326,212,61,0,0,408,11560,-28332,437,414.87,,,,,,,,,,,,
108983,1561290561310,-1,2.49,1.49,2.79,2.14,3.6,0.92,-0.61,0.41,19,1,19,1.11,8145,3,81,37,42,1264,436.0,621,461,60,123.0,138,1,333,214,61,0,0,406,-26615,5600,436,-5.59,,,,,,,,,,,,
109003,1561290561330,1,2.49,1.49,2.79,2.16,3.6,0.99,-0.74,0.53,19,-1,25,1.24,8148,3,81,37,43,1228,434.0,621,460,60,122.0,138,1,341,216,61,0,0,406,10392,-3322,434,-5.59,,,,,,,,,,,,
109023,1561290561350,1,2.48,1.5,2.79,2.16,3.58,0.91,-0.65,0.49,19,-0,24,1.12,8177,3,81,37,44,1180,433.0,620,460,60,123.0,138,1,348,218,61,0,0,406,2524,243,434,181.28,,,,,,,,,,,,
109043,1561290561370,2,2.49,1.48,2.8,2.13,3.62,0.99,-0.69,0.55,19,-2,20,1.21,8120,3,81,37,44,1131,433.0,622,459,60,122.0,154,1,348,217,67,0,0,404,-9211,13180,433,-5.59,45.699909,4.910143,42.65,194.3,2,0.45,0,0.0,0.32,3,0.17,1.8174
109063,1561290561390,5,2.48,1.48,2.81,2.1,3.66,0.87,-0.75,0.53,19,-1,25,1.15,8141,3,81,37,45,1068,433.0,624,460,60,123.0,154,1,355,219,67,0,0,405,-8151,13180,434,181.28,,,,,,,,,,,,
109083,1561290561410,-0,2.48,1.47,2.8,2.07,3.68,0.87,-0.7,0.54,20,0,25,1.12,8088,3,81,37,46,1036,433.0,622,460,60,122.0,154,1,362,219,67,0,0,406,2524,-768,433,-5.59,,,,,,,,,,,,
109103,1561290561430,4,2.48,1.5,2.77,2.08,3.65,0.94,-0.73,0.6,19,-0,23,1.19,8050,3,81,37,46,1004,434.0,623,460,60,123.0,154,1,362,222,67,0,0,406,-9211,19477,434,414.87,,,,,,,,,,,,
109123,1561290561450,4,2.46,1.55,2.76,2.09,3.64,0.81,-0.74,0.51,19,0,27,1.1,7918,3,81,37,47,1005,430.0,625,457,60,123.0,153,1,370,222,66,0,0,407,1504,-768,432,414.87,,,,,,,,,,,,
109143,1561290561470,-1,2.45,1.62,2.78,2.09,3.65,0.68,-0.68,0.44,19,3,26,0.96,7812,3,81,37,49,1023,430.0,616,460,60,123.0,153,1,375,233,66,0,0,406,2524,13180,430,-5.59,45.699917,4.910134,42.04,194.2,2,0.45,0,0.0,0.3217,3,0.18,1.8191
109163,1561290561490,0,2.43,1.71,2.79,2.09,3.64,0.72,-0.68,0.5,18,2,25,0.99,7687,3,81,38,51,1075,431.0,615,462,60,122.0,153,1,381,242,66,0,0,404,-8151,3635,431,-5.59,,,,,,,,,,,,
109183,1561290561510,-0,2.4,1.77,2.79,2.08,3.58,0.85,-0.65,0.6,18,-1,27,1.07,7572,3,81,38,52,1127,428.0,611,461,60,121.0,153,1,384,248,66,0,0,405,-26615,3826,428,-5.59,,,,,,,,,,,,
109203,1561290561530,1,2.38,1.8,2.78,2.06,3.53,0.97,-0.61,0.62,18,-1,26,1.14,7485,3,81,38,53,1157,425.0,611,461,60,122.0,153,1,387,252,66,0,0,403,2524,-21792,425,-5.59,,,,,,,,,,,,
109223,1561290561550,-1,2.37,1.79,2.79,2.04,3.5,1.01,-0.59,0.66,17,-1,24,1.17,7329,3,81,38,55,1200,423.0,609,463,60,122.0,172,1,396,262,73,0,0,408,-9211,13552,423,-5.59,,,,,,,,,,,,
109243,1561290561570,3,2.33,1.77,2.82,2.0,3.48,1.0,-0.64,0.67,15,-3,24,1.19,7231,3,81,38,56,1260,421.0,607,461,60,122.0,172,1,401,267,73,0,0,408,10392,-21792,421,-5.59,45.699924,4.910125,41.59,194.2,2,0.45,0,0.0,0.3233,3,0.18,1.8207
109263,1561290561590,3,2.29,1.78,2.84,1.91,3.46,0.81,-0.65,0.63,13,1,25,1.03,7115,3,81,38,57,1311,418.0,601,461,60,124.0,172,1,405,272,73,0,0,411,9517,7154,418,181.28,,,,,,,,,,,,
109283,1561290561610,1,2.26,1.83,2.92,1.85,3.38,0.74,-0.5,0.58,11,1,24,0.9,6991,3,81,38,59,1376,417.0,597,456,60,123.0,172,1,413,280,73,0,0,410,13040,2524,416,414.87,,,,,,,,,,,,
109303,1561290561630,1,2.24,1.93,3.06,1.77,3.35,0.87,-0.38,0.59,10,-0,22,0.95,6970,3,81,38,60,1402,414.0,591,463,60,123.0,172,1,417,285,73,0,0,406,13040,2524,411,-5.59,,,,,,,,,,,,
109323,1561290561650,4,2.2,2.03,3.16,1.68,3.35,0.74,-0.3,0.53,7,0,17,0.8,7080,3,81,38,61,1437,413.0,588,458,60,124.0,172,1,426,293,73,0,0,397,-4059,-6475,406,-5.59,,,,,,,,,,,,
109343,1561290561670,1,2.19,2.05,3.24,1.62,3.35,0.66,-0.21,0.46,6,2,13,0.69,7231,3,81,38,61,1481,410.0,603,458,60,124.0,192,1,430,295,78,0,0,401,9517,-1562,400,181.28,45.699932,4.910117,41.43,194.2,2,0.45,0,0.0,0.325,3,0.18,1.8224
109363,1561290561690,3,2.16,2.04,3.32,1.55,3.34,0.72,-0.12,0.37,3,1,13,0.73,7370,3,81,38,63,1498,411.0,606,458,60,124.0,192,1,428,306,78,0,0,396,-4059,-18948,397,414.87,,,,,,,,,,,,
109383,1561290561710,3,2.16,2.06,3.33,1.51,3.33,0.85,-0.01,0.43,1,-2,11,0.85,7452,3,81,38,64,1498,411.0,618,456,60,123.0,192,1,428,321,78,0,0,401,-4059,-6475,394,414.87,,,,,,,,,,,,
109403,1561290561730,1,2.15,2.1,3.32,1.5,3.24,0.97,0.11,0.35,-0,-4,8,0.97,7503,3,81,38,68,1498,412.0,605,460,60,123.0,192,1,421,341,78,0,0,402,13040,-31744,391,414.87,,,,,,,,,,,,
109423,1561290561750,2,2.14,2.14,3.33,1.48,3.19,1.07,0.19,0.42,-2,-7,4,1.09,7464,3,81,38,70,1498,408.0,620,460,60,123.0,265,1,416,364,103,0,0,403,-4059,-18948,388,414.87,,,,,,,,,,,,
109443,1561290561770,1,2.13,2.17,3.35,1.48,3.15,1.17,0.31,0.46,-4,-8,3,1.21,7464,3,81,38,72,1498,410.0,615,456,60,122.0,265,1,413,568,103,0,0,406,9517,2278,386,414.87,45.699944,4.91011,41.14,194.2,2,0.45,0,0.0,0.3267,3,0.18,1.824
109463,1561290561791,2,2.13,2.19,3.4,1.48,3.15,1.25,0.39,0.55,-5,-9,0,1.31,7530,3,81,38,74,1498,409.0,616,458,60,122.0,265,1,414,587,103,0,0,404,11560,8200,384,181.28,,,,,,,,,,,,
109483,1561290561811,5,2.13,2.21,3.4,1.5,3.15,1.27,0.42,0.53,-6,-9,-3,1.34,7951,3,81,38,73,1498,409.0,617,457,60,123.0,265,1,440,580,103,0,0,406,11560,-6656,382,181.28,,,,,,,,,,,,
109503,1561290561831,3,2.13,2.21,3.31,1.51,3.13,1.18,0.39,0.55,-7,-7,-6,1.24,8344,2,81,38,72,1498,406.0,626,460,60,122.0,265,1,434,337,103,0,0,403,2524,-18948,383,-5.59,,,,,,,,,,,,
109523,1561290561851,3,2.13,2.2,3.27,1.51,3.12,0.93,0.34,0.47,-9,-4,-6,0.99,8886,3,81,38,69,1498,407.0,637,457,60,123.0,494,1,418,557,188,0,0,404,-26615,-19019,380,-5.59,,,,,,,,,,,,
109543,1561290561871,4,2.12,2.22,3.26,1.52,3.08,0.82,0.39,0.49,-11,-2,-6,0.91,9268,3,81,38,67,1498,407.0,641,456,60,122.0,494,1,412,519,188,0,0,420,-26615,18584,381,-5.59,45.699951,4.910102,39.71,194.2,2,0.45,0,0.0,0.3283,3,0.18,1.8257
109563,1561290561891,3,2.13,2.25,3.19,1.58,3.01,0.84,0.3,0.56,-12,-2,-10,0.89,9200,10,81,38,66,1484,411.0,643,458,60,121.0,494,1,410,534,188,0,0,445,2524,-506,386,-5.59,,,,,,,,,,,,
109583,1561290561911,4,2.12,2.32,3.08,1.69,2.92,0.84,0.07,0.7,-14,-2,-15,0.84,9097,16,81,38,66,1451,422.0,641,457,60,122.0,494,1,409,528,188,0,0,486,-3414,-28648,388,181.28,,,,,,,,,,,,
109603,1561290561931,5,2.13,2.37,3.0,1.79,2.87,0.83,-0.06,0.69,-15,-1,-16,0.83,9110,27,81,38,66,1426,426.0,642,455,60,122.0,494,1,409,534,188,0,0,492,13552,31796,394,414.87,,,,,,,,,,,,
109623,1561290561951,4,2.13,2.4,2.92,1.86,2.84,0.95,-0.2,0.72,-18,-2,-19,0.97,8937,23,81,38,66,1393,433.0,636,461,60,122.0,494,1,410,534,188,0,0,471,243,243,398,882.05,,,,,,,,,,,,
109643,1561290561971,4,2.12,2.46,2.92,1.88,2.76,0.93,-0.25,0.84,-20,1,-21,0.96,8636,10,81,38,66,1340,439.0,637,455,60,122.0,454,1,429,519,181,0,0,460,-28332,-22519,406,-5.59,45.699959,4.910094,38.89,194.2,2,0.45,0,0.0,0.33,3,0.18,1.8274
109663,1561290561991,2,2.12,2.55,2.94,1.88,2.7,0.71,-0.11,0.81,-22,-2,-22,0.72,8511,3,81,38,67,1277,441.0,630,457,60,122.0,454,1,434,533,181,0,0,470,26704,-32768,408,-5.59,,,,,,,,,,,,
109683,1561290562003,4,2.13,2.6,3.01,1.89,2.71,0.66,0.06,0.85,-22,-0,-22,0.66,8549,5,81,38,68,1179,444.0,638,457,60,123.0,454,1,431,548,181,0,0,463,2131,-3856,409,181.28,,,,,,,,,,,,
109703,1561290562023,3,2.12,2.62,3.09,1.88,2.74,0.72,0.02,0.87,-23,-3,-23,0.72,8542,3,81,38,67,1143,446.0,627,452,60,122.0,454,1,433,521,181,0,0,468,16648,21432,414,-5.59,,,,,,,,,,,,
109723,1561290562043,2,2.12,2.62,3.16,1.88,2.8,0.62,-0.03,0.81,-23,-3,-25,0.62,8585,15,81,38,68,1081,450.0,633,460,60,122.0,425,1,429,548,178,0,0,471,-8985,-1562,418,-5.59,,,,,,,,,,,,
109743,1561290562063,2,2.12,2.63,3.23,1.88,2.85,0.48,0.12,0.7,-23,-2,-23,0.5,8769,3,81,38,68,1036,455.0,631,450,60,123.0,425,1,422,542,178,0,0,467,-26615,-899,422,181.28,45.69997,4.910087,39.84,194.2,2,0.45,0,0.0,0.3317,3,0.18,1.8291
109763,1561290562091,1,2.12,2.64,3.26,1.88,2.86,0.45,0.31,0.74,-23,-2,-24,0.55,8962,10,81,38,68,1003,457.0,642,452,60,122.0,425,1,415,548,178,0,0,473,-9160,15649,424,181.28,,,,,,,,,,,,
109783,1561290562111,2,2.13,2.63,3.26,1.84,2.85,0.37,0.48,0.77,-23,-2,-23,0.61,9075,10,81,38,67,998,461.0,637,458,60,123.0,425,1,410,536,178,0,0,480,2211,-1562,429,181.28,,,,,,,,,,,,
109803,1561290562131,3,2.13,2.63,3.24,1.8,2.82,0.33,0.63,0.85,-22,-2,-24,0.72,9168,8,81,38,68,1001,465.0,645,456,60,123.0,425,1,414,525,178,0,0,486,10432,-8187,434,181.28,,,,,,,,,,,,
109823,1561290562151,3,2.16,2.61,3.18,1.77,2.75,0.32,0.69,0.96,-22,-1,-24,0.76,9291,10,81,38,67,1001,473.0,646,452,60,123.0,425,1,412,542,178,0,0,485,3576,2211,437,-5.59,,,,,,,,,,,,
109843,1561290562171,4,2.16,2.6,3.13,1.78,2.7,0.33,0.65,0.97,-23,-2,-24,0.73,9245,3,81,38,67,999,475.0,643,445,60,122.0,432,1,412,519,189,0,0,494,-17956,-899,442,-5.59,45.699974,4.910077,42.61,194.3,2,0.45,0,0.0,0.3333,3,0.18,1.8307
109863,1561290562191,5,2.16,2.6,3.13,1.78,2.7,0.42,0.46,1.02,-23,-2,-26,0.62,9195,3,81,38,67,994,476.0,643,446,60,122.0,432,1,412,501,189,0,0,497,2212,1248,448,181.28,,,,,,,,,,,,
109883,1561290562211,2,2.16,2.61,3.13,1.8,2.72,0.44,0.4,0.96,-23,-0,-25,0.59,9231,3,81,38,66,986,480.0,644,453,60,122.0,432,1,411,477,189,0,0,499,8488,248,452,414.87,,,,,,,,,,,,
109903,1561290562231,2,2.18,2.62,3.13,1.8,2.73,0.38,0.56,0.86,-21,-2,-26,0.68,9263,3,81,38,64,967,483.0,639,453,60,123.0,432,1,408,455,189,0,0,498,3580,-1818,454,181.28,,,,,,,,,,,,
109923,1561290562251,2,2.18,2.61,3.11,1.81,2.74,0.36,0.71,0.93,-20,-1,-24,0.79,9263,6,81,38,61,954,487.0,648,450,60,123.0,432,1,405,415,189,0,0,504,505,3,461,181.28,,,,,,,,,,,,
109943,1561290562271,2,2.18,2.58,3.1,1.83,2.75,0.3,0.78,0.94,-21,-2,-24,0.83,9227,3,81,38,56,938,490.0,638,456,60,122.0,316,1,401,457,145,0,0,503,248,-1818,466,-5.59,45.699986,4.910066,43.99,194.3,2,0.45,0,0.0,0.335,3,0.19,1.8324
109963,1561290562291,5,2.18,2.56,3.09,1.82,2.75,0.39,0.68,0.98,-21,-1,-22,0.78,9124,3,81,38,51,927,493.0,644,456,60,122.0,316,1,388,379,145,0,0,504,-6528,-22519,470,-5.59,,,,,,,,,,,,
109983,1561290562311,3,2.18,2.55,3.13,1.8,2.78,0.33,0.49,0.95,-21,-3,-23,0.59,8949,3,81,38,48,916,494.0,632,462,60,123.0,316,1,374,309,145,0,0,500,998,6274,473,181.28,,,,,,,,,,,,
110003,1561290562331,2,2.19,2.52,3.16,1.78,2.85,0.38,0.43,0.88,-20,-1,-23,0.57,8786,3,81,38,44,901,495.0,635,456,60,123.0,316,1,351,278,145,0,0,496,771,-10483,475,-5.59,,,,,,,,,,,,
110023,1561290562351,0,2.2,2.46,3.2,1.74,2.88,0.35,0.43,0.8,-20,-1,-24,0.55,8761,3,81,38,42,890,495.0,628,459,60,123.0,181,1,338,262,87,0,0,495,771,2212,479,181.28,,,,,,,,,,,,
110043,1561290562371,1,2.2,2.43,3.2,1.75,2.96,0.32,0.49,0.79,-19,-1,-23,0.59,8652,3,81,37,41,886,495.0,637,449,60,122.0,181,1,332,254,87,0,0,496,771,10305,478,414.87,45.699989,4.910054,45.97,194.3,2,0.45,0,0.0,0.3367,3,0.19,1.834
110063,1561290562391,2,2.2,2.39,3.19,1.75,3.0,0.46,0.55,0.91,-19,-2,-22,0.72,8503,3,81,37,40,866,497.0,629,452,60,122.0,181,1,326,242,87,0,0,493,3,16648,477,414.87,,,,,,,,,,,,
110083,1561290562411,1,2.18,2.34,3.2,1.75,3.0,0.53,0.51,0.78,-19,-2,-21,0.74,8381,3,81,37,39,848,495.0,631,456,60,123.0,181,1,317,231,87,0,0,493,771,-17956,476,181.28,,,,,,,,,,,,
110103,1561290562431,4,2.18,2.33,3.24,1.72,3.02,0.62,0.59,0.75,-17,-3,-20,0.86,8155,3,81,37,40,822,495.0,628,457,60,123.0,181,1,320,225,87,0,0,495,771,3576,477,414.87,,,,,,,,,,,,
110123,1561290562451,4,2.16,2.31,3.24,1.68,3.03,0.68,0.6,0.67,-17,-1,-19,0.91,7978,3,81,37,41,808,496.0,624,455,60,123.0,181,1,325,218,87,0,0,486,3,243,477,181.28,,,,,,,,,,,,
110143,1561290562471,1,2.16,2.29,3.27,1.69,3.03,0.77,0.51,0.67,-17,-4,-19,0.93,7941,3,81,37,42,789,491.0,623,458,60,122.0,138,1,332,213,66,0,0,474,-1818,14488,472,-5.59,45.700001,4.910041,47.77,194.2,2,0.45,0,0.0,0.3383,3,0.19,1.8357
110163,1561290562491,4,2.14,2.27,3.34,1.56,3.08,0.87,0.65,0.58,-16,-4,-18,1.09,8033,3,81,37,42,777,490.0,625,453,60,123.0,138,1,332,213,66,0,0,477,-1818,-23623,470,414.87,,,,,,,,,,,,
110183,1561290562509,1,2.13,2.23,3.4,1.29,3.13,0.86,0.65,0.55,-16,-2,-18,1.08,8023,3,81,37,43,774,488.0,623,458,60,123.0,138,1,340,215,66,0,0,466,1,2131,468,181.28,,,,,,,,,,,,
110203,1561290562529,2,2.13,2.2,3.4,1.27,3.19,0.97,0.71,0.6,-16,-2,-18,1.21,8130,3,81,37,43,779,491.0,624,458,60,123.0,138,1,341,216,66,0,0,476,248,8488,462,-5.59,,,,,,,,,,,,
110223,1561290562549,5,2.12,2.2,3.41,1.27,3.19,0.92,0.67,0.51,-18,-1,-19,1.14,8216,3,81,37,43,796,490.0,625,453,60,123.0,138,1,342,217,66,0,0,461,-1562,26704,459,181.28,,,,,,,,,,,,
110243,1561290562569,3,2.12,2.21,3.4,1.27,3.17,1.03,0.67,0.62,-18,-0,-20,1.23,8389,3,81,37,43,827,486.0,626,457,60,123.0,145,1,344,218,67,0,0,467,-1562,-768,455,-5.59,45.700008,4.910027,48.15,194.2,2,0.45,0,0.0,0.34,3,0.19,1.8374
110263,1561290562589,1,2.13,2.22,3.37,1.26,3.22,0.99,0.67,0.56,-20,-0,-21,1.19,8672,3,81,37,42,862,485.0,637,459,60,123.0,145,1,338,218,67,0,0,458,-6441,-28332,453,-5.59,,,,,,,,,,,,
110283,1561290562609,2,2.12,2.29,3.36,1.28,3.1,0.8,0.72,0.43,-21,2,-21,1.08,8924,3,81,37,41,880,483.0,643,457,60,123.0,145,1,332,216,67,0,0,484,3580,15649,448,-5.59,,,,,,,,,,,,
110303,1561290562629,3,2.13,2.33,3.34,1.3,2.93,0.78,0.84,0.48,-21,2,-21,1.14,9097,3,81,37,40,915,481.0,641,457,60,123.0,145,1,326,214,67,0,0,479,8488,23400,445,181.28,,,,,,,,,,,,
110323,1561290562649,4,2.13,2.32,3.33,1.29,2.93,0.71,0.8,0.63,-22,-1,-25,1.07,9204,1,81,37,39,948,477.0,644,456,60,122.0,226,1,320,290,101,0,0,476,2212,16648,446,-5.59,,,,,,,,,,,,
110343,1561290562669,5,2.13,2.32,3.36,1.28,2.93,0.79,0.65,0.68,-23,-0,-23,1.03,9351,3,81,37,39,968,478.0,647,450,60,122.0,226,1,320,137,101,0,0,475,16648,23400,446,-5.59,45.700012,4.910014,47.09,194.2,2,0.45,0,0.0,0.3417,3,0.19,1.8391
110363,1561290562689,0,2.14,2.33,3.39,1.28,2.91,0.75,0.51,0.67,-23,-1,-26,0.91,9426,3,81,37,39,976,477.0,642,458,60,122.0,226,1,320,275,101,0,0,473,-17956,8488,446,414.87,,,,,,,,,,,,
110383,1561290562709,2,2.15,2.33,3.39,1.28,2.94,0.6,0.66,0.63,-23,1,-25,0.9,9508,3,81,37,40,974,473.0,651,460,60,123.0,226,1,327,271,101,0,0,472,3576,-6387,446,181.28,,,,,,,,,,,,
110403,1561290562729,4,2.16,2.32,3.37,1.34,2.96,0.69,0.56,0.72,-23,2,-28,0.89,9479,3,81,37,40,959,474.0,648,467,60,123.0,226,1,327,262,101,0,0,479,-9203,32033,445,-5.59,,,,,,,,,,,,
110423,1561290562749,5,2.16,2.33,3.35,1.45,2.93,0.76,0.44,0.77,-23,-1,-27,0.88,9277,3,81,37,41,932,477.0,643,451,60,122.0,196,1,333,253,89,0,0,483,16648,-3856,452,414.87,,,,,,,,,,,,
110443,1561290562769,1,2.17,2.36,3.28,1.58,2.86,0.64,0.41,0.66,-22,2,-26,0.76,9177,3,81,37,42,905,479.0,643,455,60,123.0,196,1,339,248,89,0,0,484,10305,17136,454,414.87,45.70002,4.909999,45.82,194.2,2,0.45,0,0.0,0.3433,3,0.19,1.8407
110463,1561290562789,-0,2.18,2.39,3.22,1.7,2.86,0.62,0.57,0.54,-20,3,-25,0.84,9075,3,81,37,42,877,481.0,642,457,60,123.0,196,1,339,238,89,0,0,488,32033,243,456,181.28,,,,,,,,,,,,
110483,1561290562808,-1,2.21,2.41,3.2,1.79,2.87,0.64,0.67,0.58,-19,3,-23,0.92,8911,1,81,37,43,856,479.0,646,451,60,122.0,196,1,345,232,89,0,0,485,10305,10305,458,181.28,,,,,,,,,,,,
110503,1561290562828,3,2.22,2.4,3.17,1.84,2.91,0.66,0.76,0.6,-18,-2,-24,1.0,8749,3,81,37,44,830,479.0,633,453,60,123.0,196,1,351,224,89,0,0,482,10305,8488,461,414.87,,,,,,,,,,,,
110523,1561290562848,5,2.24,2.41,3.12,1.85,2.99,0.78,0.61,0.63,-17,-2,-22,0.99,8716,3,81,37,45,829,477.0,630,453,60,123.0,196,1,357,224,89,0,0,481,2212,243,463,181.28,,,,,,,,,,,,
110543,1561290562868,2,2.25,2.41,3.08,1.87,3.13,0.79,0.47,0.6,-16,-5,-24,0.92,8724,3,81,37,45,830,475.0,632,456,60,122.0,159,1,357,226,74,0,0,476,2212,-16384,466,-5.59,45.700027,4.909985,45.35,194.2,2,0.45,0,0.0,0.345,3,0.19,1.8424
110563,1561290562888,2,2.27,2.37,3.08,1.82,3.25,0.73,0.37,0.5,-15,-4,-23,0.82,8741,3,81,37,46,852,477.0,635,459,60,123.0,159,1,363,228,74,0,0,476,2212,3576,466,-5.59,,,,,,,,,,,,
110583,1561290562908,1,2.29,2.28,3.08,1.77,3.36,0.61,0.37,0.4,-13,-2,-22,0.71,8806,3,81,37,47,876,479.0,638,457,60,123.0,159,1,370,229,74,0,0,475,10305,10432,468,181.28,,,,,,,,,,,,
110603,1561290562928,1,2.31,2.24,3.08,1.74,3.46,0.55,0.4,0.38,-12,-1,-22,0.68,8873,3,81,37,47,904,478.0,632,462,60,123.0,159,1,370,229,74,0,0,478,16648,-9203,467,181.28,,,,,,,,,,,,
110623,1561290562948,1,2.34,2.22,3.06,1.78,3.48,0.45,0.45,0.4,-10,-1,-19,0.64,8962,3,81,37,47,934,478.0,636,457,60,123.0,165,1,370,230,78,0,0,476,16648,32033,470,181.28,,,,,,,,,,,,
110643,1561290562968,-0,2.37,2.2,3.05,1.84,3.48,0.48,0.53,0.48,-8,0,-18,0.71,9023,3,81,37,47,978,475.0,636,466,60,123.0,165,1,370,231,78,0,0,477,-17956,10305,474,181.28,45.700027,4.90997,46.83,194.2,2,0.45,0,0.0,0.3467,3,0.19,1.844
110663,1561290562988,0,2.38,2.17,3.01,1.85,3.47,0.51,0.62,0.46,-4,1,-13,0.8,9044,3,81,37,47,1036,476.0,633,455,60,122.0,165,1,370,231,78,0,0,479,-23367,3580,479,181.28,,,,,,,,,,,,
110683,1561290563004,1,2.41,2.15,2.92,1.87,3.42,0.56,0.71,0.46,-1,2,-13,0.9,8997,3,80,37,47,1079,482.0,632,451,60,122.0,165,1,370,230,78,0,0,477,-23367,-1818,482,181.28,,,,,,,,,,,,
110703,1561290563024,-0,2.44,2.11,2.8,1.93,3.42,0.51,0.69,0.4,1,4,-10,0.86,8920,3,81,37,47,1116,484.0,636,447,60,122.0,165,1,370,230,78,0,0,477,-1923,-1562,484,181.28,,,,,,,,,,,,
110723,1561290563044,5,2.44,2.0,2.76,1.94,3.46,0.57,0.65,0.37,4,4,-8,0.86,8890,3,80,37,48,1169,485.0,631,458,60,123.0,158,1,373,229,77,0,0,475,-16384,-6441,485,414.87,,,,,,,,,,,,
110743,1561290563064,5,2.46,1.94,2.75,1.95,3.57,0.63,0.56,0.34,7,4,-6,0.84,8949,3,80,37,48,1203,488.0,635,457,60,122.0,158,1,374,239,77,0,0,474,8488,3580,488,-5.59,45.700031,4.909955,46.99,194.2,2,0.45,0,0.0,0.3483,3,0.2,1.8457
110763,1561290563084,3,2.47,1.91,2.71,2.02,3.71,0.75,0.45,0.4,8,0,-5,0.87,9014,3,80,37,48,1223,485.0,627,448,60,122.0,158,1,374,240,77,0,0,479,-3210,-1818,485,414.87,,,,,,,,,,,,
110783,1561290563110,3,2.48,1.9,2.71,2.06,3.71,0.82,0.36,0.4,10,1,-3,0.89,8984,3,81,37,48,1231,487.0,629,449,60,122.0,158,1,374,239,77,0,0,473,-16384,-6656,487,181.28,,,,,,,,,,,,
110803,1561290563130,5,2.48,1.88,2.71,2.09,3.69,0.9,0.26,0.4,12,-0,-1,0.94,9010,3,80,37,48,1254,488.0,631,460,60,122.0,158,1,374,239,77,0,0,476,243,-6656,488,414.87,,,,,,,,,,,,
110823,1561290563150,5,2.49,1.85,2.71,2.17,3.71,0.91,0.2,0.43,13,1,1,0.93,9079,3,80,37,48,1290,488.0,636,455,60,122.0,168,1,375,240,82,0,0,480,30272,505,487,414.87,,,,,,,,,,,,
110843,1561290563170,0,2.5,1.83,2.71,2.2,3.7,0.88,0.19,0.45,14,1,3,0.9,9132,3,80,37,48,1314,489.0,637,455,60,123.0,168,1,376,241,82,0,0,478,16408,1,488,181.28,45.700039,4.909938,47.2,194.2,2,0.45,0,0.0,0.35,3,0.2,1.8474
110863,1561290563190,-1,2.51,1.8,2.72,2.2,3.67,0.85,0.18,0.42,17,3,7,0.86,9177,3,80,37,47,1335,490.0,640,456,60,123.0,168,1,373,232,82,0,0,473,6193,248,490,181.28,,,,,,,,,,,,
110883,1561290563210,1,2.52,1.76,2.73,2.23,3.68,0.74,0.22,0.35,18,3,8,0.78,9200,3,80,37,47,1353,490.0,635,460,60,123.0,168,1,374,233,82,0,0,493,12552,-32768,490,181.28,,,,,,,,,,,,
110903,1561290563230,1,2.51,1.73,2.72,2.26,3.67,0.67,0.14,0.39,19,3,11,0.69,9204,3,80,37,47,1371,492.0,633,459,60,123.0,168,1,374,233,82,0,0,503,2211,-9216,492,181.28,,,,,,,,,,,,
110923,1561290563250,3,2.51,1.72,2.71,2.31,3.65,0.75,-0.04,0.43,19,2,13,0.75,9213,3,80,37,47,1375,494.0,637,456,60,123.0,163,1,374,233,81,0,0,479,2211,2524,495,181.28,,,,,,,,,,,,
110943,1561290563270,2,2.52,1.73,2.7,2.35,3.63,0.8,-0.21,0.53,19,-1,15,0.83,9245,3,80,37,47,1371,494.0,636,455,60,122.0,163,1,374,233,81,0,0,484,-23623,-32768,494,-5.59,45.700043,4.909923,47.48,194.2,2,0.45,0,0.0,0.3517,3,0.2,1.849
110963,1561290563290,3,2.52,1.72,2.71,2.35,3.65,0.87,-0.39,0.6,19,1,14,0.95,9191,3,80,37,47,1361,494.0,627,452,60,122.0,163,1,373,232,81,0,0,498,2211,-6528,494,-5.59,,,,,,,,,,,,
110983,1561290563310,5,2.52,1.71,2.69,2.34,3.64,0.89,-0.39,0.68,20,-1,15,0.97,9182,3,80,36,47,1345,494.0,633,456,60,122.0,163,1,373,230,81,0,0,483,12552,248,494,181.28,,,,,,,,,,,,
111003,1561290563330,1,2.52,1.69,2.65,2.32,3.66,0.84,-0.39,0.7,21,1,17,0.93,9182,3,80,36,46,1329,493.0,633,457,60,122.0,163,1,366,229,81,0,0,491,6193,-32768,494,414.87,,,,,,,,,,,,
111023,1561290563350,1,2.52,1.67,2.64,2.32,3.66,0.81,-0.3,0.68,21,-2,19,0.87,9195,3,80,36,46,1316,494.0,635,455,60,122.0,163,1,366,229,81,0,0,497,12552,2524,494,181.28,,,,,,,,,,,,
111043,1561290563370,1,2.52,1.68,2.64,2.31,3.66,0.78,-0.31,0.58,22,-0,21,0.84,9204,3,81,36,45,1302,494.0,639,450,60,122.0,159,1,360,227,79,0,0,487,16408,-22519,494,181.28,45.70005,4.909908,47.35,194.1,2,0.45,0,0.0,0.3533,3,0.2,1.8507
111063,1561290563390,1,2.52,1.67,2.64,2.32,3.67,0.68,-0.42,0.57,22,-2,21,0.8,9227,3,80,36,45,1288,496.0,637,459,60,123.0,159,1,360,227,79,0,0,494,16408,998,496,181.28,,,,,,,,,,,,
111083,1561290563410,3,2.51,1.66,2.65,2.32,3.68,0.76,-0.58,0.61,22,-1,23,0.96,9236,3,80,36,45,1277,496.0,636,461,60,122.0,159,1,360,227,79,0,0,500,16408,-32768,496,-5.59,,,,,,,,,,,,
111103,1561290563430,5,2.51,1.66,2.65,2.32,3.68,0.72,-0.72,0.66,22,-0,21,1.02,9286,3,80,36,45,1276,497.0,568,460,60,122.0,159,1,361,227,79,0,0,492,16408,2524,497,-5.59,,,,,,,,,,,,
111123,1561290563450,-0,2.52,1.67,2.65,2.31,3.67,0.73,-0.7,0.61,23,2,24,1.01,9319,3,80,36,45,1272,496.0,557,455,60,122.0,161,1,362,228,80,0,0,481,6193,-22519,496,414.87,,,,,,,,,,,,
111143,1561290563470,0,2.53,1.67,2.65,2.34,3.67,0.69,-0.53,0.56,23,0,25,0.87,9305,3,80,36,45,1266,497.0,540,457,60,123.0,161,1,362,226,80,0,0,494,16408,-22519,495,181.28,45.700054,4.909893,47.88,194.1,2,0.45,0,0.0,0.355,3,0.2,1.8524
111163,1561290563490,2,2.53,1.7,2.65,2.37,3.65,0.62,-0.49,0.52,23,1,26,0.79,9305,3,80,36,44,1260,493.0,497,462,60,123.0,161,1,355,226,80,0,0,499,6193,-9216,493,181.28,,,,,,,,,,,,
111183,1561290563510,4,2.53,1.7,2.65,2.38,3.64,0.71,-0.64,0.6,23,-1,24,0.96,9254,3,80,36,44,1254,495.0,486,459,60,122.0,161,1,354,226,80,0,0,492,16408,248,495,-5.59,,,,,,,,,,,,
111203,1561290563530,3,2.54,1.66,2.64,2.35,3.65,0.81,-0.77,0.67,23,-2,24,1.12,9227,3,80,36,44,1246,497.0,530,457,60,122.0,161,1,353,226,80,0,0,500,-3210,248,497,-5.59,,,,,,,,,,,,
111223,1561290563550,4,2.52,1.62,2.64,2.34,3.67,0.82,-0.87,0.75,23,-0,24,1.2,9250,3,80,36,44,1234,499.0,462,453,60,122.0,158,1,354,226,79,0,0,506,-3210,2524,499,414.87,,,,,,,,,,,,
111243,1561290563570,-0,2.53,1.61,2.65,2.33,3.67,0.82,-0.7,0.73,23,-2,27,1.08,9277,3,80,36,45,1224,499.0,485,455,60,123.0,158,1,361,226,79,0,0,489,6193,-32248,498,181.28,45.700062,4.909879,47.77,194.1,2,0.45,0,0.0,0.3567,3,0.2,1.854
111263,1561290563590,2,2.53,1.62,2.66,2.34,3.68,0.7,-0.58,0.57,24,0,29,0.91,9254,3,80,36,45,1218,499.0,447,459,60,123.0,158,1,361,227,79,0,0,490,30272,3,497,181.28,,,,,,,,,,,,
111283,1561290563610,3,2.53,1.61,2.68,2.33,3.72,0.69,-0.63,0.5,24,-2,27,0.93,9241,3,80,36,45,1212,498.0,455,463,60,122.0,158,1,360,227,79,0,0,496,16408,11560,499,181.28,,,,,,,,,,,,
111303,1561290563630,4,2.52,1.61,2.66,2.34,3.71,0.78,-0.76,0.55,25,-0,29,1.09,9291,3,80,36,45,1208,499.0,472,460,60,123.0,158,1,361,227,79,0,0,490,243,2524,499,181.28,,,,,,,,,,,,
111323,1561290563650,5,2.52,1.61,2.62,2.34,3.67,0.8,-0.88,0.62,25,-0,28,1.19,9346,3,80,36,45,1204,502.0,472,457,60,122.0,159,1,362,228,80,0,0,484,-3210,-21872,502,181.28,,,,,,,,,,,,
111343,1561290563670,1,2.52,1.61,2.61,2.34,3.65,0.77,-0.81,0.6,25,2,30,1.11,9309,3,80,36,45,1205,500.0,516,458,60,123.0,159,1,362,228,80,0,0,490,-3210,-32248,500,181.28,45.700069,4.909866,48.09,194.1,2,0.45,0,0.0,0.3583,3,0.2,1.8557
111363,1561290563690,1,2.52,1.61,2.63,2.33,3.7,0.7,-0.7,0.51,26,0,30,0.99,9277,3,80,36,45,1208,499.0,498,467,60,123.0,159,1,361,227,80,0,0,508,10432,2109,499,181.28,,,,,,,,,,,,
111383,1561290563710,3,2.51,1.61,2.63,2.33,3.71,0.68,-0.71,0.46,26,2,31,0.98,9328,3,80,36,45,1212,500.0,560,457,60,123.0,159,1,362,228,80,0,0,506,243,-32248,500,181.28,,,,,,,,,,,,
111403,1561290563730,4,2.5,1.62,2.63,2.33,3.71,0.76,-0.83,0.54,25,1,29,1.13,9268,3,80,36,45,1218,499.0,608,462,60,122.0,159,1,361,228,80,0,0,484,-3210,-22519,500,-5.59,,,,,,,,,,,,
111423,1561290563750,5,2.51,1.62,2.62,2.33,3.7,0.8,-0.94,0.61,25,1,29,1.24,9245,3,80,36,45,1222,500.0,616,455,60,122.0,158,1,360,227,79,0,0,487,-3210,15661,500,181.28,,,,,,,,,,,,
111443,1561290563770,-1,2.51,1.62,2.63,2.33,3.71,0.78,-0.93,0.63,25,2,29,1.22,9209,3,81,36,46,1227,499.0,625,452,60,123.0,158,1,367,227,79,0,0,494,243,3,499,181.28,45.700077,4.909853,48.27,194.1,2,0.45,0,0.0,0.36,3,0.2,1.8574
111463,1561290563790,1,2.51,1.62,2.67,2.34,3.7,0.73,-0.74,0.66,25,-1,30,1.04,9173,3,80,36,46,1231,496.0,621,457,60,123.0,158,1,366,227,79,0,0,491,-16384,-9216,496,181.28,,,,,,,,,,,,
111483,1561290563809,1,2.51,1.62,2.68,2.34,3.68,0.66,-0.62,0.57,25,1,31,0.91,9191,3,81,36,46,1235,497.0,633,461,60,123.0,158,1,366,229,79,0,0,477,10432,15661,497,181.28,,,,,,,,,,,,
111503,1561290563829,1,2.49,1.61,2.7,2.33,3.68,0.62,-0.6,0.57,25,-3,31,0.86,9132,3,80,36,46,1235,498.0,626,467,60,123.0,158,1,365,229,79,0,0,487,32033,3,499,-5.59,,,,,,,,,,,,
111523,1561290563849,1,2.49,1.6,2.69,2.32,3.67,0.64,-0.65,0.55,25,-0,31,0.91,9119,3,80,36,46,1235,499.0,636,464,60,123.0,158,1,365,229,79,0,0,487,10432,-9216,502,-5.59,,,,,,,,,,,,
111543,1561290563869,3,2.47,1.61,2.67,2.33,3.64,0.61,-0.78,0.56,24,-2,29,0.99,9075,3,80,36,46,1248,501.0,626,464,60,122.0,158,1,364,231,79,0,0,471,-16384,-9216,501,-5.59,45.700088,4.909841,48.4,194.1,2,0.45,0,0.0,0.3617,3,0.21,1.859
111563,1561290563889,3,2.46,1.61,2.69,2.36,3.64,0.66,-0.88,0.58,23,-1,30,1.1,9023,3,80,36,47,1257,500.0,629,451,60,122.0,158,1,370,231,79,0,0,475,243,771,500,-5.59,,,,,,,,,,,,
111583,1561290563909,3,2.45,1.61,2.71,2.37,3.64,0.58,-0.96,0.52,22,-1,28,1.12,8920,3,80,36,48,1270,499.0,629,461,60,123.0,158,1,374,238,79,0,0,468,10432,2524,499,181.28,,,,,,,,,,,,
111603,1561290563929,2,2.43,1.61,2.75,2.33,3.63,0.56,-0.98,0.51,22,-0,30,1.12,8915,3,80,36,48,1282,498.0,629,461,60,122.0,158,1,374,238,79,0,0,472,-3210,10408,498,-5.59,,,,,,,,,,,,
111623,1561290563949,2,2.42,1.61,2.76,2.23,3.63,0.5,-0.98,0.43,21,1,28,1.1,8869,3,80,36,49,1303,498.0,626,463,60,123.0,158,1,377,246,79,0,0,471,10432,11560,498,181.28,,,,,,,,,,,,
111643,1561290563969,-1,2.4,1.6,2.74,2.19,3.58,0.49,-0.98,0.41,21,1,29,1.1,8852,3,80,36,49,1327,496.0,625,454,60,123.0,164,1,377,246,82,0,0,475,32033,-22519,498,414.87,45.700096,4.90983,48.25,194.1,2,0.45,0,0.0,0.3633,3,0.21,1.8607
111663,1561290563989,1,2.38,1.61,2.72,2.18,3.56,0.43,-0.88,0.37,20,1,26,0.98,8954,3,80,36,49,1348,495.0,628,464,60,123.0,164,1,378,248,82,0,0,471,-1923,-6528,495,181.28,,,,,,,,,,,,
111683,1561290564003,2,2.36,1.63,2.73,2.16,3.59,0.36,-0.85,0.39,18,1,28,0.92,8979,3,80,36,49,1359,492.0,630,462,60,123.0,164,1,378,248,82,0,0,477,-1923,-1562,492,181.28,,,,,,,,,,,,
111703,1561290564023,0,2.35,1.66,2.75,2.16,3.59,0.37,-0.77,0.41,16,0,26,0.85,9023,3,80,36,49,1388,488.0,628,463,60,123.0,164,1,378,258,82,0,0,475,-23367,505,488,-5.59,,,,,,,,,,,,
111723,1561290564043,2,2.33,1.75,2.76,2.13,3.53,0.27,-0.67,0.39,14,0,26,0.72,9049,3,80,36,50,1418,485.0,628,460,60,123.0,181,1,382,259,88,0,0,476,2212,248,489,181.28,,,,,,,,,,,,
111743,1561290564063,2,2.31,1.88,2.79,2.1,3.42,0.27,-0.56,0.39,13,0,24,0.63,9110,3,80,36,50,1439,486.0,631,462,60,123.0,181,1,384,261,88,0,0,478,2212,-1562,482,181.28,45.700108,4.90982,48.28,194.1,2,0.45,0,0.0,0.365,3,0.21,1.8624
111763,1561290564083,3,2.3,1.95,2.79,2.07,3.37,0.25,-0.52,0.4,11,1,22,0.58,9150,3,80,36,49,1457,481.0,636,464,60,122.0,181,1,380,262,88,0,0,479,2212,-899,481,-5.59,,,,,,,,,,,,
111783,1561290564109,4,2.29,1.94,2.84,2.0,3.33,0.3,-0.63,0.51,9,-1,21,0.7,9173,3,80,36,49,1463,482.0,637,462,60,122.0,181,1,380,262,88,0,0,479,-17956,-6441,482,-5.59,,,,,,,,,,,,
111803,1561290564129,5,2.28,1.95,2.91,1.94,3.33,0.4,-0.68,0.57,8,1,18,0.79,9204,3,80,36,50,1465,479.0,633,454,60,122.0,181,1,385,262,88,0,0,483,16648,-10483,480,-5.59,,,,,,,,,,,,
111823,1561290564149,4,2.27,2.03,2.96,1.89,3.32,0.47,-0.77,0.53,7,-1,16,0.9,9182,3,80,36,50,1459,482.0,633,456,60,122.0,181,1,384,262,91,0,0,484,-899,-899,477,181.28,,,,,,,,,,,,
111843,1561290564169,-1,2.23,2.11,2.97,1.87,3.32,0.51,-0.66,0.46,6,2,15,0.84,9191,3,80,36,50,1443,484.0,631,461,60,123.0,190,1,384,262,91,0,0,485,-10483,32033,477,181.28,45.700115,4.909811,48.1,194.1,2,0.45,0,0.0,0.3667,3,0.21,1.864
111863,1561290564189,-0,2.21,2.18,3.05,1.85,3.31,0.59,-0.45,0.47,5,1,13,0.75,9119,3,80,36,50,1426,486.0,638,463,60,123.0,190,1,384,261,91,0,0,489,-1562,-6528,479,181.28,,,,,,,,,,,,
111883,1561290564209,1,2.19,2.19,3.09,1.82,3.26,0.58,-0.21,0.5,4,4,13,0.62,9115,3,80,36,50,1407,490.0,643,457,60,123.0,190,1,384,261,91,0,0,496,-1818,-6528,482,181.28,,,,,,,,,,,,
111903,1561290564229,2,2.17,2.26,3.02,1.81,3.14,0.57,0.01,0.43,2,4,11,0.57,9062,3,80,36,51,1392,492.0,638,450,60,123.0,190,1,387,269,91,0,0,491,-32768,-1818,477,181.28,,,,,,,,,,,,
111923,1561290564249,-0,2.16,2.34,3.06,1.79,3.05,0.51,0.21,0.39,1,3,11,0.55,9018,3,80,36,51,1389,491.0,643,452,60,123.0,190,1,387,268,91,0,0,492,-32768,16648,474,181.28,,,,,,,,,,,,
111943,1561290564269,-0,2.14,2.38,3.19,1.78,3.01,0.55,0.39,0.37,0,4,9,0.67,9014,3,80,36,52,1382,493.0,640,450,60,123.0,191,1,391,268,91,0,0,491,-6528,-10483,470,181.28,45.700127,4.909802,47.68,194.1,2,0.45,0,0.0,0.3683,3,0.21,1.8657
111963,1561290564289,1,2.12,2.39,3.29,1.73,3.01,0.49,0.55,0.39,-1,3,8,0.74,9036,3,80,36,53,1368,493.0,639,455,60,123.0,191,1,395,277,91,0,0,490,-6528,-17956,470,181.28,,,,,,,,,,,,
111983,1561290564309,2,2.13,2.38,3.32,1.68,3.01,0.51,0.7,0.43,-2,3,5,0.87,9053,3,80,36,54,1355,494.0,642,457,60,123.0,191,1,400,297,91,0,0,491,998,16648,471,181.28,,,,,,,,,,,,
112003,1561290564329,2,2.13,2.37,3.32,1.61,3.02,0.41,0.83,0.43,-4,3,4,0.92,9168,3,80,36,55,1345,496.0,643,457,60,123.0,191,1,400,307,91,0,0,497,3,16648,470,181.28,,,,,,,,,,,,
112023,1561290564349,2,2.13,2.38,3.35,1.59,3.02,0.46,0.95,0.41,-4,3,2,1.06,9227,3,80,36,57,1340,496.0,643,461,60,123.0,239,1,401,322,112,0,0,493,-9216,-1562,468,-5.59,,,,,,,,,,,,
112043,1561290564369,4,2.13,2.39,3.36,1.6,3.02,0.47,0.92,0.47,-6,1,-2,1.03,9231,3,80,36,59,1343,496.0,640,453,60,122.0,239,1,402,333,112,0,0,498,3,248,467,-5.59,45.700138,4.909793,47.72,194.1,2,0.45,0,0.0,0.37,3,0.21,1.8674
112063,1561290564389,4,2.12,2.41,3.36,1.6,3.02,0.63,0.72,0.55,-9,-0,-6,0.96,9295,3,80,36,60,1351,499.0,637,458,60,122.0,239,1,405,339,112,0,0,496,2524,998,467,181.28,,,,,,,,,,,,
112083,1561290564409,1,2.1,2.42,3.35,1.61,2.99,0.62,0.71,0.55,-10,-1,-8,0.94,9370,3,80,36,61,1365,497.0,637,457,60,123.0,239,1,409,345,112,0,0,494,-9216,-6441,466,181.28,,,,,,,,,,,,
112103,1561290564429,4,2.09,2.42,3.33,1.6,2.95,0.52,0.79,0.59,-11,-0,-7,0.95,9503,3,80,36,62,1377,498.0,645,460,60,123.0,239,1,414,349,112,0,0,502,2524,2524,469,-5.59,,,,,,,,,,,,
112123,1561290564449,3,2.09,2.44,3.3,1.59,2.94,0.5,0.79,0.6,-13,-0,-10,0.94,9556,3,80,35,62,1384,500.0,640,462,60,123.0,269,1,414,353,126,0,0,504,10408,1341,468,181.28,,,,,,,,,,,,
112143,1561290564469,1,2.09,2.45,3.28,1.59,2.93,0.55,0.71,0.59,-13,3,-12,0.9,9635,3,80,35,62,1393,500.0,647,460,60,123.0,269,1,413,357,126,0,0,502,-22519,-4054,468,181.28,45.70015,4.909784,47.67,194.1,2,0.45,0,0.0,0.3717,3,0.21,1.869
112163,1561290564489,3,2.09,2.45,3.27,1.58,2.93,0.45,0.84,0.52,-14,1,-14,0.95,9669,3,80,35,62,1389,502.0,646,452,60,123.0,269,1,413,359,126,0,0,507,15661,-21872,470,-5.59,,,,,,,,,,,,
112183,1561290564509,1,2.1,2.46,3.26,1.6,2.93,0.57,0.78,0.6,-16,-0,-16,0.97,9650,3,80,35,62,1379,507.0,644,455,60,123.0,269,1,413,358,126,0,0,514,-21872,-28648,473,181.28,,,,,,,,,,,,
112203,1561290564529,4,2.09,2.49,3.25,1.59,2.91,0.47,0.83,0.59,-17,0,-17,0.95,9684,3,80,35,62,1355,510.0,645,465,60,123.0,269,1,413,361,126,0,0,515,-4054,2524,472,181.28,,,,,,,,,,,,
112223,1561290564549,0,2.1,2.52,3.25,1.61,2.9,0.58,0.66,0.73,-19,-1,-19,0.87,9750,3,80,35,61,1337,511.0,646,466,60,122.0,277,1,412,359,132,0,0,521,-3856,-22519,475,-5.59,,,,,,,,,,,,
112243,1561290564569,4,2.1,2.54,3.28,1.61,2.9,0.42,0.79,0.63,-19,-1,-20,0.9,9801,3,80,35,61,1318,514.0,646,459,60,123.0,277,1,411,362,132,0,0,523,-3482,-22519,479,-5.59,45.700157,4.909774,47.93,194.2,2,0.45,0,0.0,0.3733,3,0.22,1.8707
112263,1561290564589,2,2.09,2.55,3.28,1.63,2.89,0.48,0.71,0.62,-19,0,-21,0.86,9816,3,80,35,61,1291,512.0,647,450,60,123.0,277,1,411,363,132,0,0,526,17136,-22519,478,414.87,,,,,,,,,,,,
112283,1561290564609,3,2.1,2.56,3.27,1.65,2.89,0.38,0.79,0.61,-20,-2,-23,0.88,9837,3,80,35,61,1267,514.0,641,451,60,123.0,277,1,411,364,132,0,0,526,-3482,1248,479,-5.59,,,,,,,,,,,,
112303,1561290564629,4,2.09,2.54,3.27,1.63,2.88,0.47,0.79,0.63,-21,0,-22,0.92,9884,3,80,35,61,1228,516.0,644,453,60,123.0,277,1,411,367,132,0,0,531,16383,-2934,484,181.28,,,,,,,,,,,,
112323,1561290564649,-0,2.12,2.54,3.28,1.63,2.89,0.43,0.87,0.57,-21,-2,-24,0.97,9894,3,80,35,61,1215,521.0,647,455,60,122.0,283,1,411,368,138,0,0,529,-9212,-8186,488,-5.59,,,,,,,,,,,,
112343,1561290564669,4,2.12,2.54,3.29,1.6,2.88,0.39,0.98,0.63,-22,-0,-25,1.06,9968,3,80,35,61,1205,523.0,650,448,60,123.0,283,1,410,372,138,0,0,531,-22519,2104,487,-5.59,45.700169,4.909763,48.32,194.2,2,0.45,0,0.0,0.375,3,0.22,1.8724
112363,1561290564689,3,2.14,2.55,3.29,1.61,2.88,0.5,0.95,0.68,-22,-1,-26,1.08,10075,3,80,35,61,1187,527.0,651,448,60,123.0,283,1,415,374,138,0,0,537,6274,6274,492,181.28,,,,,,,,,,,,
112383,1561290564709,2,2.14,2.54,3.27,1.62,2.87,0.46,1.01,0.61,-22,-1,-25,1.11,10135,3,80,35,61,1175,527.0,643,445,60,123.0,283,1,417,375,138,0,0,534,6274,2104,496,-5.59,,,,,,,,,,,,
112403,1561290564729,4,2.15,2.55,3.27,1.63,2.87,0.44,1.03,0.64,-22,1,-27,1.12,10118,3,80,35,62,1170,529.0,645,437,60,123.0,283,1,417,375,138,0,0,541,-9072,2524,497,181.28,,,,,,,,,,,,
112423,1561290564749,3,2.16,2.54,3.24,1.63,2.85,0.44,1.09,0.65,-22,-2,-28,1.17,10184,3,80,35,62,1167,531.0,657,438,60,123.0,296,1,423,384,148,0,0,538,-22519,1780,501,181.28,,,,,,,,,,,,
112443,1561290564769,1,2.16,2.53,3.25,1.62,2.82,0.33,1.05,0.62,-22,-2,-27,1.1,10179,3,80,35,62,1156,535.0,658,445,60,123.0,296,1,422,384,148,0,0,548,14504,-2336,505,181.28,45.700172,4.90975,49.47,194.2,2,0.45,0,0.0,0.3767,3,0.22,1.874
112463,1561290564789,1,2.17,2.53,3.25,1.62,2.83,0.33,0.93,0.67,-22,-0,-26,0.99,10257,3,80,35,62,1144,535.0,651,449,60,122.0,296,1,429,386,148,0,0,551,2104,6274,507,181.28,,,,,,,,,,,,
112483,1561290564810,2,2.17,2.53,3.22,1.62,2.84,0.32,0.81,0.71,-22,0,-27,0.87,10257,3,80,35,63,1134,539.0,642,445,60,122.0,296,1,427,396,148,0,0,550,1780,-8962,511,-5.59,,,,,,,,,,,,
112503,1561290564830,1,2.18,2.54,3.17,1.64,2.84,0.38,0.79,0.83,-22,-1,-28,0.88,10285,3,80,35,63,1124,542.0,645,448,60,122.0,296,1,432,396,148,0,0,552,-3082,2524,515,-5.59,,,,,,,,,,,,
112523,1561290564850,5,2.19,2.59,3.16,1.69,2.84,0.39,0.86,0.94,-21,-3,-26,0.94,10324,3,80,35,63,1111,544.0,642,446,60,123.0,301,1,433,397,155,0,0,557,-506,-28648,514,181.28,,,,,,,,,,,,
112543,1561290564870,5,2.19,2.57,3.12,1.7,2.85,0.48,0.97,0.99,-20,-3,-26,1.09,10330,3,80,35,63,1093,544.0,652,444,60,123.0,301,1,434,397,155,0,0,554,-506,-8962,519,181.28,45.700184,4.909737,50.49,194.2,2,0.45,0,0.0,0.3783,3,0.22,1.8757
112563,1561290564890,4,2.2,2.52,3.12,1.7,2.85,0.54,1.04,0.94,-19,-4,-25,1.17,10405,3,80,35,64,1081,548.0,651,448,60,123.0,301,1,439,408,155,0,0,559,14504,-32504,525,181.28,,,,,,,,,,,,
112583,1561290564910,3,2.21,2.5,3.11,1.69,2.85,0.47,0.97,0.85,-19,-3,-24,1.08,10416,3,80,35,64,1073,550.0,648,450,60,122.0,301,1,440,408,155,0,0,560,-32248,-30159,527,181.28,,,,,,,,,,,,
112603,1561290564930,3,2.23,2.48,3.11,1.72,2.85,0.45,0.95,0.96,-17,-1,-23,1.05,10504,3,80,35,64,1064,548.0,646,456,60,122.0,301,1,447,410,155,0,0,556,14504,-22359,533,181.28,,,,,,,,,,,,
112623,1561290564950,5,2.23,2.46,3.14,1.77,2.89,0.44,1.04,1.0,-16,-2,-24,1.13,10510,3,80,35,64,1056,552.0,647,450,60,122.0,305,1,447,410,163,0,0,564,-28648,243,537,181.28,,,,,,,,,,,,
112643,1561290564970,4,2.24,2.43,3.14,1.81,2.9,0.47,1.07,0.99,-15,-2,-23,1.17,10611,3,80,35,60,1050,553.0,653,453,60,123.0,305,1,442,376,163,0,0,563,-9072,1780,543,181.28,45.700192,4.909723,51.94,194.2,2,0.45,0,0.0,0.38,3,0.22,1.8774
112663,1561290564990,5,2.25,2.41,3.04,1.84,2.93,0.47,0.99,1.02,-15,-1,-20,1.09,10563,3,80,35,53,1049,556.0,657,451,60,122.0,305,1,397,314,163,0,0,568,-22359,-22359,546,414.87,,,,,,,,,,,,
112683,1561290565002,4,2.25,2.39,3.01,1.86,2.92,0.51,1.01,1.11,-14,-3,-19,1.13,10405,3,80,35,44,1045,556.0,652,452,60,123.0,305,1,357,238,163,0,0,570,-22359,6273,547,181.28,,,,,,,,,,,,
112703,1561290565022,3,2.26,2.37,3.0,1.86,2.94,0.53,0.95,1.14,-13,-6,-19,1.09,9962,3,80,35,38,1037,559.0,650,450,60,123.0,305,1,317,214,163,0,0,565,-28648,-9072,547,181.28,,,,,,,,,,,,
112723,1561290565042,5,2.28,2.34,3.01,1.86,3.01,0.52,0.89,0.97,-12,-4,-18,1.03,9674,3,80,35,34,1030,557.0,647,459,60,123.0,134,1,305,204,74,0,0,556,2216,-9072,549,-5.59,,,,,,,,,,,,
112743,1561290565062,2,2.28,2.27,3.05,1.85,3.15,0.61,0.67,1.02,-11,-8,-19,0.9,9474,3,80,35,31,1023,557.0,638,451,60,123.0,134,1,295,194,74,0,0,553,2216,-22519,549,414.87,45.700199,4.909708,53.23,194.2,2,0.45,0,0.0,0.3817,3,0.22,1.879
112763,1561290565082,3,2.27,2.21,3.12,1.82,3.23,0.58,0.68,0.97,-10,-4,-15,0.9,9272,3,80,35,29,1005,554.0,640,452,60,123.0,134,1,287,189,74,0,0,548,2524,-8962,550,181.28,,,,,,,,,,,,
112783,1561290565110,4,2.28,2.17,3.16,1.79,3.3,0.61,0.82,0.82,-8,-3,-15,1.02,9066,3,80,35,27,975,555.0,639,461,60,123.0,134,1,278,187,74,0,0,550,2524,2524,549,181.28,,,,,,,,,,,,
112803,1561290565130,4,2.3,2.08,3.18,1.77,3.37,0.6,0.82,0.67,-6,-3,-11,1.01,8979,3,80,35,25,946,552.0,643,451,60,123.0,134,1,270,187,74,0,0,527,-28648,10408,549,181.28,,,,,,,,,,,,
112823,1561290565150,4,2.31,2.04,3.18,1.75,3.39,0.64,0.87,0.58,-5,-3,-12,1.07,8971,3,80,35,24,922,546.0,631,457,60,123.0,112,1,270,180,61,0,0,509,2524,-3414,542,181.28,,,,,,,,,,,,
112843,1561290565170,5,2.31,1.93,3.17,1.74,3.47,0.63,0.89,0.47,-4,-2,-10,1.09,9040,3,80,35,23,902,543.0,637,455,60,123.0,112,1,270,175,61,0,0,497,1779,-14,542,181.28,45.700207,4.909692,55.15,194.2,2,0.45,0,0.0,0.3833,3,0.22,1.8807
112863,1561290565190,4,2.32,1.86,3.16,1.73,3.5,0.76,0.93,0.48,-3,-3,-8,1.2,9071,3,80,35,22,888,541.0,630,457,60,123.0,112,1,270,169,61,0,0,479,-8186,15661,539,181.28,,,,,,,,,,,,
112883,1561290565210,6,2.32,1.83,3.18,1.71,3.5,0.66,0.9,0.35,-3,-0,-6,1.12,9084,3,80,35,22,881,535.0,637,456,60,123.0,112,1,270,169,61,0,0,501,6274,-899,535,181.28,,,,,,,,,,,,
112903,1561290565230,6,2.33,1.81,3.16,1.69,3.5,0.77,0.9,0.31,-2,-2,-5,1.18,9110,3,80,35,21,892,533.0,635,458,60,123.0,112,1,270,163,61,0,0,490,14504,-899,533,181.28,,,,,,,,,,,,
112923,1561290565250,8,2.32,1.79,3.15,1.67,3.48,0.66,0.86,0.24,-2,0,-3,1.08,9119,3,80,35,21,907,527.0,636,457,60,123.0,106,1,270,163,56,0,0,491,10408,-22519,525,181.28,,,,,,,,,,,,
112943,1561290565270,6,2.33,1.73,3.13,1.65,3.46,0.65,0.76,0.2,-2,0,-3,1.0,9141,3,80,35,20,932,523.0,639,459,60,123.0,106,1,270,156,56,0,0,491,-9212,15661,525,181.28,45.700214,4.909675,54.69,194.2,2,0.45,0,0.0,0.385,3,0.23,1.8824
112963,1561290565290,9,2.32,1.71,3.13,1.63,3.45,0.75,0.63,0.3,-2,-1,-2,0.98,9164,3,80,35,20,955,517.0,643,456,60,123.0,106,1,270,156,56,0,0,495,15679,1,519,181.28,,,,,,,,,,,,
112983,1561290565310,9,2.33,1.69,3.14,1.62,3.46,0.85,0.41,0.42,-2,-2,-2,0.94,9146,3,80,35,20,969,515.0,647,457,60,122.0,106,1,270,156,56,0,0,487,26178,-899,514,-5.59,,,,,,,,,,,,
113003,1561290565330,8,2.33,1.69,3.19,1.62,3.45,0.82,0.29,0.38,-2,-2,-3,0.87,9119,3,80,35,20,982,511.0,646,457,60,122.0,106,1,270,156,56,0,0,488,-4054,-23367,511,-5.59,,,,,,,,,,,,
113023,1561290565350,9,2.34,1.7,3.22,1.63,3.45,0.88,0.3,0.38,-1,-2,-4,0.93,9062,3,80,35,20,991,508.0,640,458,60,123.0,104,1,270,156,53,0,0,485,-32248,-899,508,-5.59,,,,,,,,,,,,
113043,1561290565370,10,2.34,1.7,3.13,1.65,3.47,0.99,0.17,0.43,0,-6,-3,1.01,8988,3,80,35,19,1000,506.0,640,457,60,122.0,104,1,270,150,53,0,0,477,-9216,-9216,506,-5.59,45.700222,4.909659,53.16,194.2,2,0.45,0,0.0,0.3867,3,0.23,1.884
113063,1561290565390,10,2.34,1.67,3.06,1.67,3.46,1.1,0.03,0.5,0,-5,-5,1.1,8949,3,80,35,19,996,504.0,645,461,60,123.0,104,1,270,150,53,0,0,475,998,-9216,504,-5.59,,,,,,,,,,,,
113083,1561290565410,10,2.36,1.65,3.07,1.66,3.49,1.19,0.12,0.55,1,-8,-3,1.19,8920,3,80,35,19,991,499.0,634,455,60,123.0,104,1,270,150,53,0,0,481,-1818,-6656,499,-5.59,,,,,,,,,,,,
113103,1561290565430,10,2.35,1.63,3.07,1.66,3.5,1.27,-0.09,0.58,1,-8,-3,1.27,8886,3,80,35,19,983,495.0,639,458,60,122.0,104,1,270,72,53,0,0,469,-6441,2212,494,-5.59,,,,,,,,,,,,
113123,1561290565450,8,2.37,1.61,3.1,1.66,3.53,1.35,0.07,0.59,2,-9,-2,1.35,8869,3,80,35,19,975,491.0,633,457,60,122.0,104,1,270,150,53,0,0,465,3580,32033,491,-5.59,,,,,,,,,,,,
113143,1561290565470,9,2.37,1.66,3.11,1.66,3.56,1.41,0.03,0.6,3,-10,-3,1.41,8786,3,80,35,19,971,487.0,637,460,60,123.0,101,1,270,150,50,0,0,465,10305,30272,487,181.28,45.70023,4.909643,51.2,194.2,2,0.45,0,0.0,0.3883,3,0.23,1.8857
113163,1561290565490,8,2.38,1.61,3.09,1.65,3.58,1.41,-0.02,0.53,3,-7,-2,1.41,8676,3,80,35,18,968,487.0,629,458,60,123.0,101,1,270,144,50,0,0,455,-9203,-1923,487,181.28,,,,,,,,,,,,
113183,1561290565510,11,2.39,1.51,3.02,1.67,3.59,1.32,-0.22,0.49,4,-6,-1,1.34,8581,3,80,35,18,965,486.0,628,460,60,123.0,101,1,270,144,50,0,0,452,8488,-1923,486,181.28,,,,,,,,,,,,
113203,1561290565530,9,2.39,1.52,3.01,1.72,3.59,1.28,-0.28,0.48,5,-7,1,1.31,8511,3,80,35,18,961,482.0,637,460,60,122.0,101,1,270,144,50,0,0,442,30272,-1923,481,-5.59,,,,,,,,,,,,
113223,1561290565550,6,2.4,1.5,3.0,1.71,3.63,1.3,-0.2,0.49,6,-5,1,1.31,8423,3,80,35,18,961,476.0,625,460,60,123.0,94,1,270,143,45,0,0,436,2211,2211,476,181.28,,,,,,,,,,,,
113243,1561290565570,9,2.4,1.5,3.01,1.7,3.66,1.21,-0.26,0.39,6,-6,4,1.24,8340,3,80,35,19,961,471.0,632,458,60,122.0,94,1,270,148,45,0,0,428,17628,30272,471,-5.59,45.700237,4.909628,49.24,194.2,2,0.45,0,0.0,0.39,3,0.23,1.8874
113263,1561290565590,8,2.4,1.5,3.1,1.7,3.68,1.2,-0.22,0.43,7,-3,4,1.23,8289,3,80,35,19,964,472.0,625,459,60,123.0,94,1,270,147,45,0,0,412,2524,2524,470,181.28,,,,,,,,,,,,
113283,1561290565610,10,2.39,1.5,3.05,1.72,3.67,1.15,-0.22,0.37,8,-3,5,1.17,8127,3,80,35,19,967,468.0,628,458,60,123.0,94,1,270,144,45,0,0,423,-3267,16408,468,414.87,,,,,,,,,,,,
113303,1561290565630,11,2.4,1.5,2.94,1.73,3.63,1.06,-0.23,0.26,8,-0,8,1.09,8005,3,80,35,20,971,465.0,623,458,60,123.0,94,1,270,145,45,0,0,421,16648,-9160,466,181.28,,,,,,,,,,,,
113323,1561290565650,10,2.39,1.5,2.99,1.73,3.62,1.16,-0.23,0.28,8,-0,7,1.18,7985,3,80,35,21,974,461.0,625,461,60,123.0,94,1,269,148,45,0,0,412,-18341,-28332,461,-5.59,,,,,,,,,,,,
113343,1561290565670,9,2.39,1.51,3.0,1.71,3.62,1.14,-0.19,0.26,9,-2,8,1.16,7941,3,80,35,21,982,456.0,620,458,60,122.0,95,1,269,148,44,0,0,419,20625,-28332,455,414.87,45.700245,4.909614,47.51,194.2,2,0.45,0,0.0,0.3917,3,0.23,1.889
113363,1561290565690,11,2.38,1.51,3.0,1.7,3.63,0.96,-0.18,0.19,9,0,11,0.97,7888,3,80,35,21,993,453.0,631,458,60,123.0,95,1,268,148,44,0,0,408,5600,26704,453,181.28,,,,,,,,,,,,
113383,1561290565710,7,2.39,1.5,3.02,1.69,3.66,0.95,-0.26,0.18,8,2,9,0.99,7855,3,80,35,22,1001,446.0,623,461,60,123.0,95,1,268,148,44,0,0,388,243,3635,446,181.28,,,,,,,,,,,,
