"Interval"|"ms"|0|0|1,"Utc"|"ms"|0|0|1,"FB_p"|"bar"|0|300|50,"Volant"|"F"|0.0|300.0|50,"xFR"|"mm"|0.0|5.0|50,"xRR"|"mm"|0.0|5.0|50,"xFL"|"mm"|0.0|5.0|50,"xRL"|"mm"|0.0|5.0|50,"AccelX"|"G"|-3.0|3.0|50,"AccelY"|"G"|-3.0|3.0|50,"AccelZ"|"G"|-3.0|3.0|50,"Yaw"|"Deg/Sec"|-120|120|50,"Pitch"|"Deg/Sec"|-120|120|50,"Roll"|"Deg/Sec"|-120|120|50,"Gsum"|"G"|0.0|3.0|50,"RPM"|""|0|14000|50,"TPS"|"%"|0|100|50,"WaterTemp"|"?C"|0|300|50,"AirTemp"|"?C"|-1000|1000|50,"MAP"|"KPa"|0|255|50,"Lambda"|""|0|1024|50,"WheelSpeed"|"MPH"|0.0|150.0|50,"OilPress"|"PSI"|0|150|50,"FuelPress"|"PSI"|0|150|50,"OilTemp"|"F"|0|300|50,"Battery"|"Volts"|0.0|20.0|50,"FuelCon"|"L/h"|-1000|1000|50,"Gear"|""|0|10|50,"Advance"|"Deg"|-360|360|50,"Injection"|"ms"|-1000|1000|50,"FuelCon"|"L/100km"|-1000|1000|50,"LC_But_Pres"|""|-1000|1000|50,"LC_Active"|""|-1000|1000|50,"RD_Speed"|""|-1000|1000|50,"RUD_Speed"|""|-1000|1000|50,"LD_Speed"|""|-1000|1000|50,"LUD_Speed"|""|-1000|1000|50,"Latitude"|"Degrees"|-180.0|180.0|10,"Longitude"|"Degrees"|-180.0|180.0|10,"Speed"|"kph"|0.0|150.0|10,"Altitude"|"m"|0.0|4000.0|10,"LapCount"|""|0|0|10,"LapTime"|"Min"|0.0|0.0|10,"Sector"|""|0|0|10,"SectorTime"|"Min"|0.0|0.0|10,"ElapsedTime"|"Min"|0.0|0.0|10,"CurrentLap"|""|0|0|10,"Distance"|"km"|0.0|0.0|10,"SessionTime"|"Min"|0.0|0.0|10
75264,1560699011675,28,2.28,1.64,3.57,1.57,5.05,1.2,-0.03,-0.12,4,0,6,1.2,7908,10,87,33,23,1002,523.0,610,449,60,117.0,85,1,269,154,46,0,0,375,-9212,-31744,520,,,,,,,,,,,,
75284,1560699011697,24,2.28,1.65,3.56,1.58,5.05,1.19,-0.11,-0.02,4,-0,5,1.19,7690,10,87,33,23,1003,515.0,606,450,60,116.0,85,1,266,154,46,0,0,364,-4054,-9166,516,,,,,,,,,,,,
75304,1560699011717,20,2.29,1.65,3.54,1.6,5.05,1.27,-0.11,0.02,4,-2,4,1.28,7548,10,87,33,23,1007,508.0,591,450,60,116.0,85,1,265,154,46,0,0,361,-22519,14488,506,,,,,,,,,,,,
75324,1560699011737,19,2.29,1.65,3.52,1.6,5.04,1.35,-0.14,0.13,3,-2,3,1.35,7364,10,87,33,23,1010,502.0,585,448,60,116.0,85,1,263,154,43,0,0,376,998,1,504,,,,,,,,,,,,
75344,1560699011757,20,2.28,1.64,3.53,1.6,5.08,1.41,-0.17,0.25,3,-2,3,1.42,7250,10,86,33,23,1023,498.0,577,447,60,117.0,85,1,262,154,43,0,0,388,-32768,-899,498,45.702064,4.910956,54.4,200.4,0,0.0,0,0.0,0.4033,1,0.32,1.2557
75364,1560699011777,17,2.28,1.63,3.51,1.58,5.06,1.32,-0.11,0.29,4,-1,3,1.33,7309,10,86,33,23,1035,490.0,567,453,60,118.0,85,1,263,154,43,0,0,371,-1818,20625,490,,,,,,,,,,,,
75384,1560699011797,17,2.27,1.63,3.53,1.58,5.04,1.22,-0.12,0.21,4,1,3,1.23,7350,10,86,33,23,1045,484.0,563,448,60,118.0,85,1,263,154,43,0,0,345,-10483,-3968,483,,,,,,,,,,,,
75404,1560699011817,18,2.25,1.64,3.52,1.59,5.05,1.09,-0.05,0.08,4,3,4,1.09,7281,10,86,34,23,1054,480.0,560,451,60,118.0,85,1,262,154,43,0,0,340,2212,-32702,479,,,,,,,,,,,,
75424,1560699011837,15,2.25,1.64,3.51,1.57,5.04,1.06,0.02,-0.07,3,2,4,1.06,7123,10,86,34,23,1061,474.0,558,452,60,116.0,86,1,261,154,41,0,0,353,-1923,-3856,474,,,,,,,,,,,,
75444,1560699011857,18,2.25,1.65,3.47,1.58,5.05,1.15,0.06,-0.02,1,2,2,1.15,7062,10,86,34,24,1067,468.0,549,452,60,117.0,86,1,260,156,41,0,0,390,-16384,23400,467,45.702053,4.910971,51.86,200.4,0,0.0,0,0.0,0.405,1,0.32,1.2574
75464,1560699011877,16,2.24,1.65,3.47,1.58,5.04,1.07,0.03,0.04,3,2,1,1.07,7102,10,86,34,24,1068,462.0,544,449,60,118.0,86,1,261,156,41,0,0,396,-23623,-6524,462,,,,,,,,,,,,
75484,1560699011896,10,2.25,1.65,3.46,1.57,5.06,1.06,0.11,-0.12,2,3,3,1.06,7159,10,86,34,24,1065,457.0,546,449,60,118.0,86,1,261,156,41,0,0,395,-9160,0,452,,,,,,,,,,,,
75504,1560699011916,9,2.24,1.65,3.46,1.57,5.08,1.02,0.15,-0.21,1,1,2,1.04,7183,10,86,34,24,1049,453.0,547,453,60,116.0,86,1,261,156,41,0,0,386,-8985,3082,450,,,,,,,,,,,,
75524,1560699011936,10,2.23,1.68,3.46,1.58,5.03,1.12,0.08,-0.16,-1,-1,1,1.13,7123,10,86,34,24,1028,450.0,547,451,60,116.0,94,1,261,156,42,0,0,380,-3267,-6656,446,,,,,,,,,,,,
75544,1560699011956,11,2.24,1.72,3.42,1.59,5.05,1.09,0.01,-0.02,-0,0,0,1.09,7091,10,86,34,24,1009,444.0,543,451,60,117.0,94,1,260,156,42,0,0,394,21432,-4059,441,45.702049,4.910984,48.9,200.4,0,0.0,0,0.0,0.4067,1,0.32,1.2591
75564,1560699011976,9,2.24,1.73,3.4,1.59,5.04,0.99,0.04,-0.06,-0,1,0,0.99,7164,10,86,34,24,991,436.0,541,451,60,118.0,94,1,261,156,42,0,0,407,5600,2524,434,,,,,,,,,,,,
75584,1560699011996,5,2.23,1.73,3.39,1.56,5.05,1.05,0.11,-0.24,-1,1,-1,1.05,7244,10,86,34,24,966,434.0,548,450,60,118.0,94,1,262,156,42,0,0,399,-768,-1562,431,,,,,,,,,,,,
75604,1560699012008,5,2.23,1.73,3.39,1.56,5.07,1.06,0.17,-0.24,-2,-2,-2,1.07,7338,10,86,34,24,938,430.0,557,451,60,117.0,94,1,263,156,42,0,0,393,1779,240,424,,,,,,,,,,,,
75624,1560699012028,4,2.23,1.73,3.39,1.56,5.04,1.16,0.13,-0.19,-3,-2,-3,1.16,7361,10,86,34,24,919,427.0,565,451,60,117.0,101,1,263,156,43,0,0,385,31796,-3866,422,,,,,,,,,,,,
75644,1560699012048,3,2.22,1.75,3.39,1.58,5.04,1.24,0.1,-0.12,-4,-3,-3,1.25,7413,10,86,34,24,910,424.0,563,452,60,116.0,101,1,264,156,43,0,0,385,-4082,6512,416,45.702038,4.910996,45.77,200.5,0,0.0,0,0.0,0.4083,1,0.33,1.2607
75664,1560699012068,2,2.21,1.76,3.37,1.57,5.04,1.24,0.03,-0.01,-4,-1,-3,1.24,7387,10,86,34,23,900,421.0,566,453,60,116.0,101,1,263,154,43,0,0,402,-21944,-3968,413,,,,,,,,,,,,
75684,1560699012088,7,2.2,1.76,3.34,1.56,5.04,1.29,-0.03,0.09,-4,-1,-3,1.29,7402,9,86,34,23,890,415.0,564,450,60,116.0,101,1,264,154,43,0,0,405,-26615,6512,410,,,,,,,,,,,,
75704,1560699012102,6,2.19,1.79,3.32,1.55,5.07,1.36,-0.09,0.16,-5,-1,-4,1.36,7440,9,86,34,23,885,411.0,565,451,60,117.0,101,1,264,154,43,0,0,393,-4059,-6656,407,,,,,,,,,,,,
75724,1560699012122,7,2.17,1.83,3.32,1.54,5.04,1.24,-0.13,0.2,-4,2,-4,1.24,7437,9,86,34,23,885,411.0,565,450,60,117.0,106,1,264,154,43,0,0,393,-4059,-6656,403,,,,,,,,,,,,
75744,1560699012142,3,2.16,1.86,3.28,1.53,5.06,1.2,-0.15,0.29,-3,2,-4,1.2,7461,9,86,34,23,886,410.0,564,451,60,117.0,106,1,264,154,43,0,0,396,9517,-1562,399,45.702034,4.911007,43.43,200.6,0,0.0,0,0.0,0.41,1,0.33,1.2624
75764,1560699012162,7,2.14,1.91,3.27,1.52,5.04,1.17,-0.18,0.35,-4,3,-4,1.18,7384,9,86,34,23,888,409.0,566,450,60,118.0,106,1,263,154,43,0,0,398,11560,505,395,,,,,,,,,,,,
75784,1560699012196,4,2.13,1.98,3.25,1.53,5.04,1.05,-0.11,0.3,-5,5,-4,1.06,7332,9,86,34,23,890,409.0,565,454,60,118.0,106,1,263,154,43,0,0,400,10392,-6524,391,,,,,,,,,,,,
75804,1560699012216,3,2.12,2.04,3.22,1.53,5.04,0.93,0.09,0.17,-5,5,-6,0.93,7250,9,86,34,23,892,407.0,566,448,60,118.0,106,1,262,154,43,0,0,402,2524,-19126,386,,,,,,,,,,,,
75824,1560699012236,4,2.1,2.07,3.17,1.52,5.04,1.02,0.2,0.12,-8,4,-8,1.04,7214,9,86,34,23,895,404.0,566,452,60,116.0,109,1,262,154,42,0,0,397,1504,2278,382,,,,,,,,,,,,
75844,1560699012256,6,2.07,2.12,3.16,1.51,5.07,1.04,0.22,0.18,-10,3,-9,1.07,7142,9,86,34,23,899,402.0,557,452,60,116.0,109,1,261,154,42,0,0,392,10541,0,378,45.702026,4.911018,40.95,200.7,0,0.0,0,0.0,0.4117,1,0.33,1.2641
75864,1560699012276,10,2.05,2.16,3.16,1.48,5.06,1.09,0.23,0.29,-10,3,-10,1.11,7091,9,86,34,23,903,400.0,556,448,60,118.0,109,1,260,154,42,0,0,392,6512,-6405,374,,,,,,,,,,,,
75884,1560699012296,8,2.03,2.2,3.14,1.48,5.07,0.93,0.41,0.15,-11,4,-11,1.02,7038,9,86,34,23,904,398.0,555,452,60,118.0,109,1,260,154,42,0,0,390,6384,-6640,370,,,,,,,,,,,,
75904,1560699012316,8,2.0,2.19,3.13,1.46,5.04,1.04,0.55,0.1,-14,1,-14,1.18,6952,9,86,34,23,906,396.0,555,454,60,117.0,109,1,260,153,42,0,0,390,-32702,2060,365,,,,,,,,,,,,
75924,1560699012336,10,1.98,2.2,3.12,1.42,5.07,1.0,0.47,0.21,-14,2,-17,1.11,6888,9,86,34,24,908,396.0,549,452,60,117.0,111,1,261,153,40,0,0,387,-32702,-1246,357,,,,,,,,,,,,
75944,1560699012356,6,1.96,2.23,3.1,1.4,5.05,0.98,0.62,0.15,-16,2,-20,1.16,6833,9,86,34,24,910,392.0,543,450,60,118.0,111,1,261,156,40,0,0,387,1,3327,352,45.702019,4.911027,38.71,200.7,0,0.0,0,0.0,0.4133,1,0.33,1.2657
75964,1560699012376,12,1.92,2.23,3.11,1.37,5.07,1.04,0.57,0.3,-17,1,-23,1.18,6722,9,86,34,24,911,391.0,534,456,60,117.0,111,1,262,156,40,0,0,389,505,-23296,347,,,,,,,,,,,,
75984,1560699012396,7,1.92,2.24,3.09,1.35,5.06,1.08,0.72,0.19,-20,1,-25,1.3,6576,9,86,34,25,912,390.0,524,448,60,118.0,111,1,265,159,40,0,0,386,-1562,160,340,,,,,,,,,,,,
76004,1560699012416,9,1.9,2.27,3.07,1.37,5.04,1.08,0.68,0.17,-21,1,-27,1.28,6485,9,86,34,25,916,384.0,521,447,60,118.0,111,1,266,159,40,0,0,382,-19019,-29696,337,,,,,,,,,,,,
76024,1560699012436,10,1.9,2.28,3.07,1.37,5.06,1.12,0.67,0.2,-23,-1,-28,1.3,6386,9,86,34,26,918,384.0,512,454,60,117.0,113,1,270,160,38,0,0,381,-19019,80,333,,,,,,,,,,,,
76044,1560699012456,13,1.9,2.3,3.07,1.37,5.04,1.08,0.77,0.17,-24,-2,-29,1.33,6264,9,86,34,26,921,379.0,508,451,60,116.0,113,1,271,160,38,0,0,379,8200,-1527,328,45.702015,4.911037,37.11,200.6,0,0.0,0,0.0,0.415,1,0.33,1.2674
76064,1560699012476,13,1.9,2.3,3.06,1.37,5.07,1.08,0.9,0.1,-26,-2,-30,1.4,6155,9,86,34,27,924,376.0,500,451,60,117.0,113,1,275,161,38,0,0,378,3,-1,328,,,,,,,,,,,,
76084,1560699012496,12,1.91,2.3,3.06,1.37,5.04,1.0,0.97,0.07,-27,-2,-32,1.39,6034,9,86,34,27,927,376.0,492,456,60,117.0,113,1,275,161,38,0,0,369,3,-1,324,,,,,,,,,,,,
76104,1560699012516,12,1.93,2.29,3.04,1.36,5.04,0.96,1.05,-0.0,-27,-2,-35,1.42,5879,9,86,34,28,930,375.0,485,449,60,117.0,113,1,276,162,38,0,0,370,770,-1494,324,,,,,,,,,,,,
76124,1560699012536,8,1.95,2.28,3.04,1.35,5.06,0.88,1.02,0.03,-27,-3,-38,1.34,5730,9,86,34,29,931,373.0,475,452,60,117.0,108,1,276,163,35,0,0,369,1,13468,322,,,,,,,,,,,,
76144,1560699012556,6,2.0,2.26,3.03,1.38,5.06,0.89,1.09,0.1,-27,-6,-39,1.41,5600,9,86,34,30,931,368.0,460,458,60,118.0,108,1,277,163,35,0,0,362,0,250,318,45.702007,4.911047,35.3,200.6,0,0.0,0,0.0,0.4167,1,0.33,1.2691
76164,1560699012576,10,2.01,2.26,3.06,1.39,5.05,1.0,1.0,0.17,-29,-8,-40,1.42,5453,9,86,34,31,930,360.0,446,453,60,118.0,108,1,276,162,35,0,0,357,-14707,-1,318,,,,,,,,,,,,
76184,1560699012594,1,2.04,2.23,3.09,1.42,5.04,0.93,0.78,0.17,-29,-3,-40,1.21,5366,9,86,34,33,930,360.0,436,455,60,117.0,108,1,279,168,35,0,0,354,-14707,-1527,319,,,,,,,,,,,,
76204,1560699012614,1,2.09,2.2,3.12,1.44,5.08,1.04,0.82,0.18,-27,-6,-39,1.32,5289,9,86,34,34,928,355.0,427,450,60,118.0,108,1,282,173,35,0,0,346,2060,21760,320,,,,,,,,,,,,
76224,1560699012634,2,2.13,2.17,3.16,1.45,5.08,0.99,0.71,0.18,-27,-5,-39,1.22,5405,9,86,34,35,927,351.0,426,463,60,117.0,112,1,289,179,36,0,0,322,-1246,-16896,318,,,,,,,,,,,,
76244,1560699012654,-2,2.18,2.09,3.2,1.49,5.06,0.9,0.71,0.19,-23,-3,-38,1.14,5488,9,86,34,36,928,345.0,428,455,60,118.0,112,1,293,186,36,0,0,321,6870,0,316,45.702004,4.911058,33.67,200.7,0,0.0,0,0.0,0.4183,1,0.33,1.2707
76264,1560699012674,-0,2.23,1.99,3.24,1.53,5.08,0.93,0.61,0.21,-22,-5,-38,1.11,5588,9,86,34,37,930,338.0,434,445,60,118.0,112,1,298,193,36,0,0,312,-31222,28160,316,,,,,,,,,,,,
76284,1560699012696,4,2.28,1.9,3.29,1.58,5.06,0.97,0.48,0.23,-21,-3,-36,1.09,5700,9,86,34,37,934,332.0,438,462,60,116.0,112,1,300,200,36,0,0,304,-32559,130,317,,,,,,,,,,,,
76304,1560699012716,3,2.33,1.85,3.34,1.65,5.08,0.89,0.41,0.25,-18,-2,-33,0.98,5803,9,86,34,37,937,324.0,447,456,60,117.0,112,1,301,195,36,0,0,303,160,125,318,,,,,,,,,,,,
76324,1560699012736,3,2.38,1.81,3.35,1.7,5.07,0.74,0.39,0.23,-14,-0,-29,0.83,5892,10,86,34,38,934,320.0,450,465,60,117.0,135,1,305,195,43,0,0,307,-27136,-30976,320,,,,,,,,,,,,
76344,1560699012756,2,2.44,1.78,3.37,1.76,5.04,0.7,0.36,0.26,-9,1,-25,0.79,5942,14,86,34,38,927,320.0,458,455,60,117.0,135,1,306,201,43,0,0,302,-30976,-29696,320,45.702,4.911068,32.71,200.7,0,0.0,0,0.0,0.42,1,0.33,1.2724
76364,1560699012776,3,2.48,1.76,3.42,1.81,5.04,0.64,0.29,0.33,-4,2,-21,0.7,6000,19,86,34,39,918,322.0,465,459,60,116.0,135,1,310,207,43,0,0,301,32000,-27136,322,,,,,,,,,,,,
76384,1560699012796,3,2.51,1.75,3.46,1.9,5.07,0.61,0.21,0.37,-1,2,-17,0.64,6038,25,86,34,41,910,324.0,468,457,60,117.0,135,1,322,210,43,0,0,304,115,150,324,,,,,,,,,,,,
76404,1560699012816,2,2.56,1.75,3.47,1.99,5.06,0.58,0.16,0.4,3,2,-13,0.6,6050,30,86,34,45,897,326.0,469,456,60,116.0,135,1,347,215,43,0,0,300,105,-25856,326,,,,,,,,,,,,
76424,1560699012836,2,2.6,1.75,3.51,2.07,5.05,0.55,0.15,0.39,6,2,-9,0.57,6119,35,86,34,50,883,328.0,471,459,60,117.0,161,1,370,229,53,0,0,297,100,160,328,,,,,,,,,,,,
76444,1560699012856,5,2.62,1.75,3.55,2.17,5.04,0.59,0.08,0.37,8,1,-5,0.6,6208,43,86,34,55,876,328.0,477,458,60,116.0,161,1,385,258,53,0,0,295,24320,160,328,45.701996,4.911079,31.39,200.7,0,0.0,0,0.0,0.4217,1,0.33,1.2741
76464,1560699012876,-2,2.65,1.75,3.59,2.18,5.06,0.63,0.04,0.28,10,2,0,0.64,6281,54,86,34,62,873,329.0,483,453,60,118.0,161,1,390,262,53,0,0,291,21760,-23296,329,,,,,,,,,,,,
76484,1560699012895,0,2.66,1.75,3.61,2.22,5.04,0.67,-0.09,0.29,12,2,4,0.68,6294,65,86,34,71,869,330.0,486,454,60,118.0,161,1,364,343,53,0,0,288,20480,-22016,330,,,,,,,,,,,,
76504,1560699012915,-0,2.7,1.75,3.62,2.26,5.06,0.66,-0.25,0.32,14,1,7,0.7,6208,73,86,34,80,865,331.0,486,450,60,118.0,161,1,352,462,53,0,0,289,41,-24576,330,,,,,,,,,,,,
76524,1560699012935,3,2.72,1.74,3.63,2.27,5.03,0.62,-0.39,0.36,18,0,11,0.73,6087,80,86,34,88,862,330.0,480,451,60,116.0,342,1,329,491,113,0,0,287,0,175,330,,,,,,,,,,,,
76544,1560699012955,2,2.74,1.74,3.63,2.26,5.07,0.67,-0.55,0.46,20,-1,13,0.87,5980,84,86,35,92,861,333.0,471,451,60,117.0,342,1,315,510,113,0,0,293,10686,-20736,332,45.701996,4.911089,30.51,200.7,0,0.0,0,0.0,0.4233,1,0.34,1.2757
76564,1560699012975,0,2.75,1.73,3.64,2.27,5.06,0.67,-0.69,0.52,23,-2,17,0.96,5828,87,86,35,94,861,334.0,461,451,60,118.0,342,1,310,525,113,0,0,305,10686,-22016,334,,,,,,,,,,,,
76584,1560699012995,-2,2.79,1.73,3.64,2.27,5.05,0.74,-0.76,0.53,24,-3,21,1.06,5719,90,86,35,94,863,335.0,452,448,60,118.0,342,1,306,543,113,0,0,303,250,170,335,,,,,,,,,,,,
76604,1560699013007,18,2.82,1.73,3.62,2.28,5.03,0.82,-0.84,0.48,25,-3,24,1.18,5735,93,86,35,95,867,335.0,442,456,60,117.0,342,1,306,555,113,0,0,290,-1529,-32559,335,,,,,,,,,,,,
76624,1560699013027,3,2.85,1.72,3.63,2.27,5.04,0.83,-0.84,0.38,25,-4,29,1.18,5877,95,86,35,95,872,335.0,437,461,60,116.0,363,1,312,547,121,0,0,285,1886,170,335,,,,,,,,,,,,
76644,1560699013047,-2,2.87,1.71,3.68,2.27,5.07,0.84,-0.84,0.29,27,-2,32,1.18,6050,97,86,35,95,924,334.0,441,458,60,117.0,363,1,319,539,121,0,0,302,24064,-12032,336,45.701996,4.911099,29.91,200.7,0,0.0,0,0.0,0.425,1,0.34,1.2774
76664,1560699013067,0,2.88,1.7,3.69,2.27,5.05,0.82,-0.86,0.22,28,-3,37,1.19,6279,97,86,35,95,1027,338.0,447,457,60,117.0,363,1,331,536,121,0,0,328,-1534,-12032,338,,,,,,,,,,,,
76684,1560699013097,2,2.89,1.71,3.69,2.28,5.06,0.72,-0.91,0.23,31,-1,39,1.16,6469,98,86,35,95,1129,338.0,456,454,60,118.0,363,1,341,532,121,0,0,369,630,-12032,338,,,,,,,,,,,,
76704,1560699013117,0,2.87,1.71,3.7,2.3,5.08,0.73,-0.92,0.21,33,-1,41,1.18,6776,98,86,35,95,1228,337.0,472,452,60,116.0,363,1,356,527,121,0,0,376,250,-6528,337,,,,,,,,,,,,
76724,1560699013137,5,2.84,1.72,3.69,2.3,5.04,0.72,-1.03,0.32,35,-1,44,1.25,6957,98,86,35,95,1322,339.0,488,455,60,118.0,404,1,366,525,137,0,0,369,250,-122,339,,,,,,,,,,,,
76744,1560699013157,3,2.82,1.71,3.69,2.32,5.07,0.56,-0.92,0.3,38,1,48,1.08,7151,98,86,35,95,1411,341.0,498,452,60,117.0,404,1,380,532,137,0,0,370,630,2811,342,45.701988,4.911108,28.56,200.7,0,0.0,0,0.0,0.4267,1,0.34,1.2791
76764,1560699013177,4,2.76,1.76,3.66,2.35,5.05,0.52,-0.88,0.34,39,1,52,1.02,7352,98,86,35,94,1476,346.0,514,453,60,117.0,404,1,396,543,137,0,0,397,630,-6640,346,,,,,,,,,,,,
76784,1560699013197,1,2.71,1.84,3.57,2.37,5.07,0.61,-0.95,0.44,39,0,54,1.13,7440,99,86,35,94,1466,353.0,526,451,60,118.0,404,1,403,547,137,0,0,407,1886,3,353,,,,,,,,,,,,
76804,1560699013217,3,2.63,1.96,3.46,2.41,5.05,0.66,-0.91,0.46,40,-0,56,1.13,7512,99,86,35,93,1446,357.0,464,450,60,118.0,404,1,409,550,137,0,0,395,10686,-1818,357,,,,,,,,,,,,
76824,1560699013237,4,2.55,2.1,3.36,2.42,5.06,0.79,-0.94,0.53,38,-2,58,1.23,7500,99,86,35,93,1391,363.0,380,453,60,118.0,432,1,408,550,157,0,0,384,21760,2524,363,,,,,,,,,,,,
76844,1560699013257,1,2.48,2.21,3.23,2.42,5.05,0.84,-0.87,0.53,38,-2,59,1.21,7473,100,86,35,94,1337,364.0,338,457,60,117.0,432,1,405,548,157,0,0,372,100,11560,364,45.701984,4.911116,28.99,200.8,0,0.0,0,0.0,0.4283,1,0.34,1.2807
76864,1560699013277,1,2.41,2.28,3.16,2.44,5.07,0.91,-0.85,0.59,37,-2,56,1.24,7361,100,86,35,94,1292,366.0,308,454,60,116.0,432,1,397,543,157,0,0,394,-30976,11545,366,,,,,,,,,,,,
76884,1560699013297,-1,2.37,2.32,3.14,2.47,5.07,1.02,-0.88,0.46,35,-2,54,1.35,7327,100,86,35,94,1242,366.0,304,453,60,117.0,432,1,394,542,157,0,0,418,155,17144,366,,,,,,,,,,,,
76904,1560699013317,1,2.32,2.32,3.14,2.47,5.07,1.07,-0.99,0.59,32,-4,50,1.46,7312,100,86,35,94,1170,366.0,318,459,60,116.0,432,1,393,541,157,0,0,396,-32559,1,366,,,,,,,,,,,,
76924,1560699013337,1,2.29,2.34,3.13,2.47,5.06,1.03,-1.02,0.69,30,-3,49,1.45,7344,100,86,35,94,1099,366.0,348,451,60,117.0,412,1,396,543,151,0,0,367,-31222,-32702,368,,,,,,,,,,,,
76944,1560699013357,5,2.27,2.35,3.11,2.45,5.06,0.95,-0.92,0.82,28,-2,46,1.32,7335,100,86,35,94,1071,369.0,365,452,60,117.0,412,1,395,542,151,0,0,379,28553,28696,369,45.701977,4.911124,30.27,200.8,0,0.0,0,0.0,0.43,1,0.34,1.2824
76964,1560699013377,4,2.26,2.38,3.06,2.44,5.07,0.69,-0.78,0.87,26,-1,41,1.04,7287,100,86,35,95,1044,373.0,351,452,60,117.0,412,1,390,539,151,0,0,386,-1268,-32702,373,,,,,,,,,,,,
76984,1560699013393,3,2.24,2.47,3.01,2.44,5.04,0.52,-0.64,0.82,24,1,38,0.83,7275,100,86,35,95,1016,375.0,378,457,60,117.0,412,1,389,539,151,0,0,392,742,11545,375,,,,,,,,,,,,
77004,1560699013413,0,2.24,2.5,2.97,2.45,5.06,0.6,-0.5,0.84,21,0,35,0.78,7256,100,86,35,95,990,380.0,392,455,60,117.0,412,1,388,537,151,0,0,398,8200,-32702,380,,,,,,,,,,,,
77024,1560699013433,1,2.22,2.51,2.91,2.42,5.04,0.72,-0.48,0.83,17,-1,33,0.86,7307,100,86,35,94,988,386.0,394,457,60,116.0,387,1,392,541,148,0,0,401,240,6384,383,,,,,,,,,,,,
77044,1560699013453,1,2.21,2.5,2.91,2.36,5.07,0.81,-0.43,0.88,14,-2,28,0.92,7408,100,86,35,94,987,393.0,388,453,60,116.0,387,1,400,546,148,0,0,402,-6656,10541,389,45.701973,4.911131,33.51,200.9,0,0.0,0,0.0,0.4317,1,0.34,1.2841
77064,1560699013473,2,2.2,2.49,2.92,2.32,5.05,0.89,-0.45,0.86,11,-2,24,1.0,7631,100,86,35,93,982,396.0,422,450,60,117.0,387,1,418,557,148,0,0,406,6384,11545,392,,,,,,,,,,,,
77084,1560699013497,4,2.18,2.51,2.92,2.3,5.07,0.97,-0.36,0.84,8,-4,21,1.04,7822,100,86,35,93,976,401.0,445,458,60,116.0,387,1,433,565,148,0,0,416,1504,13040,396,,,,,,,,,,,,
77104,1560699013517,1,2.13,2.52,2.91,2.28,5.08,0.87,-0.12,0.9,6,-4,19,0.88,8071,100,86,35,91,970,408.0,474,452,60,117.0,387,1,448,581,148,0,0,419,10392,-8165,399,,,,,,,,,,,,
77124,1560699013537,1,2.11,2.58,2.85,2.24,5.06,0.83,-0.09,0.85,4,-2,16,0.83,8278,100,86,35,91,964,417.0,507,451,60,116.0,465,1,442,594,186,0,0,429,-21944,-18341,400,,,,,,,,,,,,
77144,1560699013557,-1,2.06,2.65,2.84,2.25,5.06,0.67,0.12,0.89,2,-3,14,0.68,8393,100,86,35,89,955,423.0,525,450,60,116.0,465,1,437,604,186,0,0,445,3826,2524,402,45.701965,4.911139,36.39,200.9,0,0.0,0,0.0,0.4333,1,0.34,1.2857
77164,1560699013577,5,2.03,2.7,2.78,2.24,5.07,0.68,0.21,0.88,-1,-2,10,0.71,8557,100,86,35,89,944,430.0,550,457,60,117.0,465,1,433,617,186,0,0,448,-3322,17628,406,,,,,,,,,,,,
77184,1560699013595,3,2.0,2.74,2.74,2.24,5.08,0.75,0.05,0.92,-3,-3,7,0.75,8660,100,86,35,88,938,437.0,558,452,60,117.0,465,1,429,606,186,0,0,455,19477,-18108,407,,,,,,,,,,,,
77204,1560699013615,3,1.98,2.75,2.73,2.24,5.07,0.7,0.09,0.98,-5,-3,2,0.71,8737,100,86,35,87,934,442.0,577,455,60,116.0,465,1,426,606,186,0,0,470,23400,8488,410,,,,,,,,,,,,
77224,1560699013635,3,1.97,2.75,2.72,2.24,5.07,0.58,0.28,1.03,-7,-3,-0,0.65,8753,100,86,35,87,937,450.0,587,452,60,117.0,483,1,425,606,200,0,0,474,-3267,-23367,414,,,,,,,,,,,,
77244,1560699013655,1,1.98,2.77,2.72,2.23,5.04,0.44,0.46,0.95,-9,-3,-2,0.63,8907,100,86,35,87,943,454.0,591,454,60,117.0,483,1,421,606,200,0,0,472,2524,-16384,416,45.701958,4.911146,38.23,200.9,0,0.0,0,0.0,0.435,1,0.34,1.2874
77264,1560699013675,1,1.98,2.77,2.72,2.21,5.07,0.24,0.61,0.84,-10,-0,-3,0.66,8992,100,86,35,87,952,464.0,605,450,60,117.0,483,1,419,594,200,0,0,479,16408,-1562,420,,,,,,,,,,,,
77284,1560699013697,1,2.0,2.78,2.73,2.19,5.05,0.12,0.75,0.77,-13,-1,-5,0.76,9124,100,86,35,87,962,467.0,608,452,60,117.0,483,1,418,594,200,0,0,496,243,-3414,428,,,,,,,,,,,,
77304,1560699013717,5,2.01,2.77,2.74,2.15,5.03,-0.03,0.88,0.69,-14,1,-8,0.88,9328,100,86,35,87,987,476.0,616,454,60,116.0,483,1,418,594,200,0,0,497,-23367,505,432,,,,,,,,,,,,
77324,1560699013737,5,2.03,2.82,2.73,2.13,5.04,0.01,0.93,0.76,-16,0,-11,0.93,9517,100,86,35,86,1019,482.0,625,450,60,116.0,491,1,418,583,213,0,0,506,-899,-32248,434,,,,,,,,,,,,
77344,1560699013757,3,2.05,2.82,2.69,2.12,5.04,0.14,0.93,0.77,-18,2,-14,0.94,9679,100,86,35,86,1046,486.0,624,453,60,117.0,491,1,411,588,213,0,0,513,1,-22519,437,45.70195,4.911155,41.24,200.9,0,0.0,0,0.0,0.4367,1,0.34,1.2891
77364,1560699013777,6,2.06,2.82,2.65,2.1,5.06,0.17,1.01,0.83,-20,1,-16,1.03,9889,100,86,35,85,1068,492.0,628,454,60,116.0,491,1,401,576,213,0,0,518,-32768,-8187,442,,,,,,,,,,,,
77384,1560699013797,1,2.09,2.81,2.61,2.07,5.05,0.21,1.09,0.82,-21,1,-18,1.11,9978,100,86,35,85,1089,499.0,633,456,60,116.0,491,1,398,577,213,0,0,524,-22519,-9072,448,,,,,,,,,,,,
77404,1560699013817,2,2.1,2.82,2.6,2.09,5.04,0.29,0.9,0.93,-22,1,-21,0.94,9973,100,86,35,85,1110,506.0,632,451,60,117.0,491,1,397,576,213,0,0,538,-28648,-2336,454,,,,,,,,,,,,
77424,1560699013837,5,2.11,2.82,2.59,2.09,5.04,0.29,1.01,0.85,-23,0,-21,1.05,10042,100,86,35,85,1119,509.0,635,454,60,116.0,479,1,398,577,220,0,0,545,10994,-22519,461,,,,,,,,,,,,
77444,1560699013857,5,2.13,2.83,2.61,2.1,5.06,0.21,1.11,0.89,-24,-0,-22,1.13,10059,100,86,35,85,1117,515.0,628,446,60,117.0,479,1,399,577,220,0,0,538,-14,6273,465,45.701939,4.911165,43.57,200.9,0,0.0,0,0.0,0.4383,1,0.34,1.2907
77464,1560699013877,2,2.15,2.82,2.62,2.1,5.04,0.28,1.01,0.97,-25,-2,-23,1.04,10140,100,86,35,85,1108,517.0,631,455,60,116.0,479,1,405,577,220,0,0,553,15679,-22263,473,,,,,,,,,,,,
77484,1560699013894,3,2.17,2.82,2.61,2.11,5.04,0.29,0.92,0.97,-24,-1,-25,0.96,10341,100,86,35,85,1089,520.0,630,448,60,117.0,479,1,419,577,220,0,0,550,1248,-22519,479,,,,,,,,,,,,
77504,1560699013914,1,2.18,2.82,2.6,2.11,5.07,0.28,0.83,0.89,-24,-1,-26,0.87,10330,100,86,35,85,1072,524.0,634,458,60,116.0,479,1,418,577,220,0,0,556,10408,2211,485,,,,,,,,,,,,
77524,1560699013934,2,2.2,2.8,2.62,2.11,5.04,0.23,0.74,0.88,-23,-0,-26,0.78,10428,100,86,35,85,1056,527.0,636,457,60,116.0,464,1,426,577,227,0,0,563,6274,-25872,495,,,,,,,,,,,,
77544,1560699013954,2,2.21,2.77,2.67,2.1,5.08,0.3,0.81,0.93,-22,-1,-26,0.86,10527,100,86,35,85,1039,532.0,635,447,60,116.0,464,1,431,577,227,0,0,574,14504,6274,501,45.701935,4.911176,45.37,200.9,0,0.0,0,0.0,0.44,1,0.34,1.2924
77564,1560699013974,1,2.23,2.74,2.71,2.1,5.05,0.31,0.82,0.85,-21,0,-25,0.88,10665,100,86,35,85,1020,536.0,638,455,60,116.0,464,1,435,577,227,0,0,571,-28648,2104,510,,,,,,,,,,,,
77584,1560699013994,2,2.25,2.72,2.71,2.1,5.05,0.27,0.75,0.88,-20,1,-23,0.8,10683,100,86,35,85,1006,541.0,643,450,60,116.0,464,1,435,577,227,0,0,569,-2336,1267,521,,,,,,,,,,,,
77604,1560699014010,2,2.25,2.72,2.72,2.09,5.05,0.27,0.63,0.88,-19,2,-22,0.68,10788,100,86,35,85,1003,545.0,638,451,60,116.0,464,1,437,559,227,0,0,571,-22519,-1894,526,,,,,,,,,,,,
77624,1560699014030,3,2.26,2.74,2.71,2.14,5.07,0.24,0.56,0.92,-17,0,-22,0.6,10794,100,86,35,85,999,549.0,638,455,60,116.0,431,1,438,577,229,0,0,574,2104,1760,530,,,,,,,,,,,,
77644,1560699014050,3,2.28,2.74,2.74,2.23,5.04,0.26,0.53,1.03,-15,2,-22,0.59,10844,100,86,35,85,993,552.0,638,452,60,116.0,431,1,439,577,229,0,0,594,-28648,-3190,534,45.701923,4.911189,48.78,200.9,0,0.0,0,0.0,0.4417,1,0.35,1.2941
77664,1560699014070,3,2.3,2.73,2.76,2.28,5.04,0.29,0.53,0.99,-13,1,-20,0.61,10850,100,86,35,84,988,555.0,638,454,60,116.0,431,1,439,559,229,0,0,580,2216,1267,545,,,,,,,,,,,,
77684,1560699014096,2,2.31,2.7,2.79,2.32,5.06,0.32,0.35,1.05,-11,-0,-18,0.48,10800,100,86,35,84,985,559.0,633,454,60,115.0,431,1,437,559,229,0,0,585,6273,-25872,559,,,,,,,,,,,,
77704,1560699014116,3,2.31,2.68,2.83,2.34,5.04,0.33,0.26,1.03,-10,-1,-17,0.42,10901,100,86,35,84,982,564.0,639,451,60,116.0,431,1,440,559,229,0,0,590,12552,-12040,564,,,,,,,,,,,,
77724,1560699014136,3,2.31,2.64,2.88,2.35,5.03,0.3,0.17,1.12,-7,-2,-17,0.34,10964,100,86,35,85,976,573.0,646,453,60,116.0,420,1,443,577,240,0,0,596,-2934,23619,573,,,,,,,,,,,,
77744,1560699014156,5,2.31,2.61,3.04,2.38,5.07,0.34,0.24,1.15,-6,-4,-16,0.41,11114,100,86,35,85,971,574.0,646,449,60,116.0,420,1,443,577,240,0,0,610,-3190,-3210,579,45.701916,4.911203,51.54,200.9,0,0.0,0,0.0,0.4433,1,0.35,1.2957
77764,1560699014176,3,2.31,2.58,3.09,2.39,5.06,0.34,0.08,1.2,-5,-3,-13,0.34,11315,100,86,35,84,968,581.0,650,455,60,116.0,420,1,441,559,240,0,0,602,1,19621,581,,,,,,,,,,,,
77784,1560699014196,4,2.31,2.56,3.08,2.38,5.07,0.39,0.1,1.09,-4,-2,-10,0.4,11510,100,86,35,84,965,586.0,644,448,60,116.0,420,1,440,559,240,0,0,607,-3210,269,588,,,,,,,,,,,,
77804,1560699014216,1,2.31,2.54,3.08,2.38,5.06,0.32,0.14,1.05,-3,-1,-9,0.35,11645,100,86,35,84,958,593.0,651,457,60,116.0,420,1,440,561,240,0,0,614,15649,17740,593,,,,,,,,,,,,
77824,1560699014236,1,2.32,2.52,3.05,2.41,5.05,0.24,0.11,1.14,-1,-1,-8,0.26,11718,100,86,35,83,951,597.0,654,456,60,116.0,420,1,440,563,251,0,0,623,6273,19304,597,,,,,,,,,,,,
77844,1560699014256,3,2.3,2.52,3.06,2.43,5.07,0.2,0.02,1.14,-1,-3,-6,0.2,11718,100,86,35,83,947,601.0,655,455,60,116.0,420,1,440,546,251,0,0,640,-28648,17336,604,45.701908,4.911219,54.55,200.9,0,0.0,0,0.0,0.445,1,0.35,1.2974
77864,1560699014276,13,2.3,2.52,3.03,2.44,5.06,0.22,-0.02,1.18,-1,-2,-5,0.22,11770,100,86,35,83,942,607.0,646,452,60,115.0,420,1,440,548,251,0,0,632,243,-1346,607,,,,,,,,,,,,
77884,1560699014296,4,2.31,2.52,2.99,2.42,5.08,0.25,-0.09,1.09,-1,-5,-4,0.26,11829,100,86,35,83,922,610.0,655,455,60,116.0,420,1,440,549,251,0,0,634,19621,-2580,610,,,,,,,,,,,,
77904,1560699014316,5,2.31,2.51,2.99,2.41,5.07,0.33,-0.09,1.18,-1,-6,-4,0.34,11882,100,86,35,83,901,616.0,652,455,60,116.0,420,1,440,551,251,0,0,637,17740,24,618,,,,,,,,,,,,
77924,1560699014336,5,2.31,2.5,3.0,2.39,5.04,0.37,-0.08,1.26,-0,-7,-3,0.38,11942,100,86,35,83,884,625.0,636,454,60,116.0,402,1,440,553,250,0,0,639,30721,-4876,624,,,,,,,,,,,,
77944,1560699014356,5,2.3,2.49,3.04,2.36,5.04,0.43,-0.09,1.31,-0,-8,-3,0.44,12042,100,86,35,83,867,632.0,659,453,60,116.0,402,1,440,555,250,0,0,654,-1346,244,632,45.7019,4.911234,56.77,200.9,0,0.0,0,0.0,0.4467,1,0.35,1.2991
77964,1560699014376,6,2.3,2.48,3.07,2.36,5.04,0.47,-0.13,1.27,-0,-10,-1,0.48,12159,100,86,35,83,845,633.0,632,452,60,115.0,402,1,440,555,250,0,0,661,966,-2830,633,,,,,,,,,,,,
77984,1560699014398,2,2.31,2.48,3.07,2.34,5.05,0.5,-0.21,1.29,0,-9,-0,0.54,12287,100,86,35,83,824,636.0,658,456,60,116.0,402,1,440,555,250,0,0,656,3,31988,636,,,,,,,,,,,,
78004,1560699014418,4,2.32,2.47,3.07,2.34,5.08,0.48,-0.26,1.36,1,-11,-1,0.54,12458,100,86,35,83,814,640.0,655,460,60,115.0,402,1,440,555,250,0,0,664,-10251,-10344,640,,,,,,,,,,,,
78024,1560699014438,3,2.32,2.47,3.03,2.33,5.05,0.41,-0.14,1.32,2,-9,-1,0.43,12516,100,86,35,83,809,650.0,645,455,60,116.0,406,1,440,555,263,0,0,663,6208,1549,650,,,,,,,,,,,,
78044,1560699014458,3,2.3,2.47,2.98,2.34,5.06,0.4,-0.15,1.1,2,-8,2,0.42,12558,100,86,35,83,804,652.0,642,455,60,115.0,406,1,440,555,263,0,0,664,-8429,-3578,652,45.701893,4.911251,59.26,200.9,0,0.0,0,0.0,0.4483,1,0.35,1.3007
78064,1560699014478,4,2.31,2.44,2.97,2.33,5.07,0.5,-0.22,1.18,2,-7,-0,0.55,12592,100,86,35,83,799,659.0,656,450,60,115.0,406,1,440,555,263,0,0,669,-6006,-26892,659,,,,,,,,,,,,
78084,1560699014496,4,2.31,2.44,2.98,2.36,5.07,0.46,-0.11,0.98,2,-9,2,0.47,12609,100,86,35,83,798,661.0,646,452,60,115.0,406,1,440,555,263,0,0,683,-3488,-388,661,,,,,,,,,,,,
78104,1560699014516,5,2.3,2.44,2.98,2.36,5.06,0.44,-0.2,1.01,2,-6,2,0.48,12694,100,86,35,83,799,665.0,655,441,60,116.0,406,1,440,555,263,0,0,683,31988,3543,665,,,,,,,,,,,,
78124,1560699014536,14,2.31,2.41,3.01,2.35,5.06,0.51,-0.24,1.11,2,-8,2,0.56,12824,100,86,35,83,796,669.0,656,447,60,115.0,402,1,440,555,270,0,0,690,-26380,24,669,,,,,,,,,,,,
78144,1560699014556,6,2.31,2.39,3.0,2.33,5.07,0.45,-0.21,1.08,3,-6,2,0.49,12895,100,86,35,83,791,673.0,651,457,60,115.0,402,1,440,555,270,0,0,692,31988,-2830,673,45.701881,4.911268,61.21,200.9,0,0.0,0,0.0,0.45,1,0.35,1.3024
78164,1560699014576,3,2.3,2.38,3.05,2.32,5.05,0.56,-0.33,1.05,3,-6,3,0.65,12984,100,86,35,83,787,676.0,666,452,60,116.0,402,1,440,555,270,0,0,698,8958,6208,677,,,,,,,,,,,,
78184,1560699014596,3,2.3,2.36,3.09,2.31,5.03,0.56,-0.21,1.14,4,-6,2,0.6,13130,100,86,35,83,783,682.0,660,456,60,116.0,402,1,440,555,270,0,0,706,-26892,1780,682,,,,,,,,,,,,
78204,1560699014616,7,2.3,2.38,3.11,2.31,5.07,0.57,-0.19,1.22,4,-5,3,0.6,13148,100,86,35,83,780,684.0,658,455,60,115.0,402,1,440,555,270,0,0,709,-2345,-10448,684,,,,,,,,,,,,
78224,1560699014636,5,2.29,2.42,3.05,2.31,5.04,0.45,-0.26,1.0,3,-3,2,0.52,13213,100,86,35,83,779,686.0,659,445,60,115.0,405,1,440,555,278,0,0,705,-26562,-20693,685,,,,,,,,,,,,
78244,1560699014656,4,2.29,2.42,2.99,2.31,5.08,0.41,-0.16,0.86,3,-3,3,0.44,13297,100,86,35,83,779,688.0,662,453,60,116.0,405,1,440,555,278,0,0,700,24845,-13312,689,45.701874,4.911286,63.97,200.9,0,0.0,0,0.0,0.4517,1,0.36,1.3041
78264,1560699014676,4,2.28,2.43,2.97,2.31,5.05,0.5,-0.25,0.92,3,-3,2,0.56,13288,100,86,35,83,782,696.0,658,454,60,115.0,405,1,440,555,278,0,0,707,-3584,-4091,696,,,,,,,,,,,,
78284,1560699014698,-0,2.29,2.45,3.0,2.33,5.07,0.46,-0.2,1.02,3,-3,2,0.51,13383,100,86,34,83,783,695.0,665,454,60,115.0,405,1,440,560,278,0,0,717,11576,-2830,695,,,,,,,,,,,,
78304,1560699014718,-1,2.28,2.43,3.1,2.36,5.03,0.49,-0.13,1.12,3,-3,2,0.51,13029,100,86,34,84,786,698.0,676,457,60,119.0,405,1,440,575,278,0,0,735,11576,-4091,698,,,,,,,,,,,,
78324,1560699014738,0,2.27,2.42,3.1,2.34,5.04,0.45,-0.1,0.93,2,-5,4,0.46,12592,100,86,34,84,788,704.0,673,446,60,118.0,392,1,440,575,276,0,0,704,-3584,-2560,704,,,,,,,,,,,,
78344,1560699014758,-1,2.27,2.41,3.13,2.3,5.06,0.46,-0.11,0.9,1,-4,4,0.47,12343,100,86,34,84,790,704.0,671,454,60,118.0,392,1,440,575,276,0,0,706,24,19188,704,45.701862,4.911304,65.32,200.9,0,0.0,0,0.0,0.4533,1,0.36,1.3057
78364,1560699014778,-0,2.27,2.39,3.25,2.24,5.04,0.5,-0.04,0.94,2,-6,3,0.5,12135,100,86,34,85,800,705.0,672,456,60,118.0,392,1,440,592,276,0,0,693,8010,-10448,705,,,,,,,,,,,,
78384,1560699014798,-1,2.26,2.36,3.35,2.21,5.07,0.46,0.03,1.03,3,-4,2,0.46,11912,100,86,34,85,821,703.0,668,456,60,117.0,392,1,440,607,276,0,0,696,19188,8010,707,,,,,,,,,,,,
78404,1560699014818,3,2.25,2.37,3.35,2.22,5.04,0.33,0.06,1.02,4,-3,3,0.33,11638,100,86,34,86,842,704.0,660,448,60,115.0,392,1,440,1092,276,0,0,698,687,-12152,704,,,,,,,,,,,,
78424,1560699014838,4,2.26,2.45,3.28,2.23,5.04,0.33,0.15,1.12,3,-1,1,0.36,10913,100,86,34,87,860,705.0,648,450,60,115.0,610,1,443,986,427,0,0,768,-20693,-7436,707,,,,,,,,,,,,
78444,1560699014858,5,2.26,2.55,3.11,2.29,5.07,0.33,0.15,1.09,2,-4,1,0.36,10399,100,86,34,87,908,713.0,641,450,60,116.0,610,1,426,911,427,0,0,793,-13072,-2830,707,45.701851,4.911323,67.9,200.9,0,0.0,0,0.0,0.455,1,0.36,1.3074
78464,1560699014878,4,2.24,2.6,3.01,2.34,5.06,0.4,0.09,0.99,2,-2,0,0.41,10422,100,86,34,86,1020,715.0,632,453,60,115.0,610,1,426,783,427,0,0,765,-2560,-2358,713,,,,,,,,,,,,
78484,1560699014897,5,2.25,2.56,2.95,2.31,5.07,0.47,0.02,1.0,1,-2,1,0.47,10410,100,86,34,86,1129,725.0,633,453,60,115.0,610,1,425,673,427,0,0,755,-3344,-30694,721,,,,,,,,,,,,
78504,1560699014917,-0,2.26,2.54,2.93,2.27,5.05,0.54,-0.02,1.1,0,-1,0,0.55,10212,100,86,34,85,1222,733.0,635,450,60,116.0,610,1,410,582,427,0,0,766,-22796,6389,727,,,,,,,,,,,,
78524,1560699014937,4,2.26,2.54,2.91,2.24,5.07,0.59,-0.02,1.04,-0,-2,-0,0.59,10135,100,86,34,85,1305,736.0,639,461,60,115.0,306,1,407,582,224,0,0,768,-2830,-2344,733,,,,,,,,,,,,
78544,1560699014957,6,2.26,2.53,2.91,2.24,5.04,0.57,0.07,1.05,-0,-2,1,0.57,10206,100,86,34,85,1360,738.0,634,453,60,116.0,306,1,409,582,224,0,0,758,-13068,5876,737,45.701839,4.911342,67.93,200.9,0,0.0,0,0.0,0.4567,1,0.36,1.3091
78564,1560699014977,4,2.26,2.52,2.91,2.23,5.04,0.52,0.12,1.01,0,1,-1,0.54,10330,100,86,34,85,1409,745.0,641,450,60,116.0,306,1,418,582,224,0,0,756,6790,-31066,743,,,,,,,,,,,,
78584,1560699014991,3,2.26,2.49,2.91,2.2,5.08,0.56,0.16,0.92,-0,-0,-0,0.59,10480,100,86,34,85,1369,747.0,642,450,60,116.0,306,1,429,582,224,0,0,767,136,-10214,743,,,,,,,,,,,,
78604,1560699015011,3,2.27,2.49,2.93,2.21,5.07,0.52,0.14,1.01,-0,-1,-0,0.54,10492,100,86,34,85,1320,746.0,644,453,60,116.0,306,1,430,582,224,0,0,769,-31068,-2344,746,,,,,,,,,,,,
78624,1560699015031,5,2.26,2.54,2.95,2.26,5.08,0.57,0.11,1.0,-1,-1,-0,0.58,10575,100,86,34,85,1233,751.0,642,449,60,116.0,311,1,432,582,233,0,0,780,-23308,-2344,750,,,,,,,,,,,,
78644,1560699015051,5,2.26,2.6,2.94,2.33,5.05,0.55,0.16,1.04,-1,-2,-1,0.58,10587,100,86,34,85,1146,752.0,638,455,60,116.0,311,1,433,582,233,0,0,779,-31068,-2826,751,45.701828,4.911361,69.92,201.0,0,0.0,0,0.0,0.4583,1,0.36,1.3107
78664,1560699015071,6,2.25,2.66,2.94,2.33,5.06,0.5,0.14,0.98,-1,-2,0,0.52,10641,100,86,34,85,1098,759.0,642,450,60,116.0,311,1,434,582,233,0,0,784,5876,5344,750,,,,,,,,,,,,
78684,1560699015097,6,2.26,2.69,3.07,2.31,5.07,0.42,0.1,0.98,0,-3,-2,0.43,10714,100,86,34,85,1049,762.0,645,453,60,116.0,311,1,436,582,233,0,0,796,-2766,-2826,757,,,,,,,,,,,,
78704,1560699015117,1,2.27,2.65,3.2,2.3,5.05,0.44,0.12,1.02,0,-3,-2,0.45,10825,100,86,34,85,1007,768.0,640,456,60,115.0,311,1,439,582,233,0,0,812,-10214,3544,768,,,,,,,,,,,,
78724,1560699015137,4,2.27,2.61,3.29,2.3,5.04,0.39,0.16,1.05,-0,-3,-1,0.43,11042,100,86,34,85,965,772.0,646,450,60,116.0,316,1,444,582,242,0,0,820,-3368,-2826,768,,,,,,,,,,,,
78744,1560699015157,3,2.28,2.51,3.26,2.21,5.06,0.42,0.23,1.12,0,1,-2,0.48,11140,100,87,34,85,968,778.0,642,456,60,116.0,316,1,443,582,242,0,0,808,-2574,-30694,774,45.701817,4.91138,72.33,201.0,0,0.0,0,0.0,0.46,1,0.37,1.3124
78764,1560699015177,4,2.28,2.47,3.15,2.15,5.04,0.48,0.15,1.2,-0,-1,-5,0.5,11274,100,87,34,84,973,786.0,653,451,60,116.0,316,1,441,564,242,0,0,811,-2570,-2830,783,,,,,,,,,,,,
78784,1560699015197,3,2.28,2.46,3.01,2.15,5.06,0.53,0.06,1.22,-0,1,-5,0.53,11349,100,86,34,84,973,788.0,656,450,60,116.0,316,1,441,564,242,0,0,822,6389,-25858,786,,,,,,,,,,,,
78804,1560699015217,3,2.29,2.42,2.88,2.14,5.05,0.56,0.08,1.26,-0,1,-3,0.57,11200,100,86,34,84,971,795.0,653,452,60,116.0,316,1,442,564,242,0,0,824,-7436,1524,794,,,,,,,,,,,,
78824,1560699015237,3,2.29,2.4,2.66,2.17,5.06,0.59,0.05,1.26,1,2,-3,0.6,10971,100,87,34,84,967,797.0,641,454,60,116.0,296,1,442,564,236,0,0,814,6905,-2918,797,,,,,,,,,,,,
78844,1560699015257,1,2.29,2.4,2.64,2.19,5.07,0.62,-0.03,1.33,-1,1,-2,0.62,10819,100,86,34,85,960,800.0,641,453,60,115.0,296,1,439,564,236,0,0,821,-12152,-2918,800,45.701805,4.911401,74.11,201.0,0,0.0,0,0.0,0.4617,1,0.37,1.3141
78864,1560699015277,1,2.29,2.45,2.68,2.24,5.06,0.59,0.0,1.18,-0,1,-4,0.59,10932,100,86,34,85,946,800.0,636,455,60,116.0,296,1,442,582,236,0,0,813,6905,-2560,800,,,,,,,,,,,,
78884,1560699015297,5,2.27,2.46,2.79,2.25,5.04,0.61,0.14,1.19,0,-3,-2,0.63,11061,100,86,34,85,932,801.0,643,451,60,116.0,296,1,444,564,236,0,0,813,-3888,-2830,802,,,,,,,,,,,,
78904,1560699015317,3,2.28,2.47,3.05,2.26,5.07,0.64,0.05,1.16,0,-4,-3,0.64,11288,100,86,34,84,922,801.0,643,451,60,115.0,296,1,441,564,236,0,0,838,-3888,3462,801,,,,,,,,,,,,
78924,1560699015337,5,2.28,2.51,3.3,2.29,5.08,0.57,0.09,1.01,0,-4,-2,0.58,11481,100,86,34,84,913,806.0,648,455,60,116.0,306,1,441,564,245,0,0,854,204,-1580,802,,,,,,,,,,,,
78944,1560699015357,5,2.27,2.56,3.45,2.37,5.03,0.46,0.14,0.86,0,-3,-1,0.48,11704,100,86,34,84,907,805.0,658,456,60,115.0,306,1,440,569,245,0,0,874,204,-2311,805,45.701794,4.911422,75.44,201.0,0,0.0,0,0.0,0.4633,1,0.37,1.3157
78964,1560699015377,3,2.27,2.58,3.47,2.43,5.06,0.28,0.21,0.95,1,-2,0,0.35,11935,100,86,34,84,902,811.0,670,456,60,115.0,306,1,440,575,245,0,0,867,-23490,-22795,807,,,,,,,,,,,,
78984,1560699015397,4,2.28,2.62,3.45,2.42,5.04,0.14,0.3,0.89,2,-3,1,0.33,12096,100,87,34,83,901,811.0,671,457,60,116.0,306,1,440,560,245,0,0,882,1524,-2068,811,,,,,,,,,,,,
79004,1560699015417,6,2.28,2.63,3.4,2.44,5.04,0.01,0.4,0.8,4,-2,1,0.4,12287,100,86,34,83,904,818.0,665,455,60,116.0,306,1,440,560,245,0,0,872,-2830,-2068,818,,,,,,,,,,,,
79024,1560699015437,3,2.28,2.62,3.38,2.45,5.06,0.01,0.4,0.65,5,-1,3,0.4,12359,100,86,34,83,897,820.0,664,454,60,116.0,320,1,440,560,262,0,0,904,-2358,-2311,820,,,,,,,,,,,,
79044,1560699015457,3,2.28,2.62,3.32,2.45,5.04,0.0,0.48,0.46,4,2,3,0.48,12270,100,86,34,83,885,823.0,661,457,60,115.0,320,1,440,560,262,0,0,918,3462,-31068,825,45.701778,4.911444,78.19,201.0,0,0.0,0,0.0,0.465,1,0.37,1.3174
79064,1560699015477,2,2.28,2.6,3.17,2.41,5.05,0.12,0.41,0.61,3,1,4,0.42,12081,100,86,34,83,872,832.0,658,450,60,116.0,320,1,440,485,262,0,0,860,-2826,-780,829,,,,,,,,,,,,
79084,1560699015499,3,2.26,2.59,3.04,2.37,5.04,0.2,0.39,0.72,2,3,4,0.44,11904,100,86,34,83,858,840.0,653,449,60,115.0,320,1,440,557,262,0,0,869,-2830,-1277,837,,,,,,,,,,,,
79104,1560699015519,2,2.27,2.6,2.92,2.36,5.07,0.21,0.41,0.59,2,1,6,0.46,11726,100,86,34,83,838,845.0,657,451,60,116.0,320,1,440,551,262,0,0,872,-22795,-780,841,,,,,,,,,,,,
79124,1560699015539,4,2.28,2.57,2.89,2.35,5.07,0.2,0.48,0.6,2,3,5,0.52,11667,100,86,34,83,812,844.0,651,452,60,115.0,287,1,440,550,243,0,0,872,-31068,-775,844,,,,,,,,,,,,
79144,1560699015559,3,2.27,2.46,2.89,2.33,5.05,0.18,0.44,0.62,4,2,6,0.47,11733,100,86,34,83,792,855.0,651,456,60,116.0,287,1,440,550,243,0,0,865,-1578,-2426,855,45.701767,4.911466,78.85,201.0,0,0.0,0,0.0,0.4667,1,0.37,1.3191
79164,1560699015579,3,2.28,2.35,2.98,2.26,5.04,0.12,0.32,0.73,5,2,5,0.34,11852,100,86,34,83,780,855.0,652,454,60,115.0,287,1,440,555,243,0,0,875,-2311,-2564,857,,,,,,,,,,,,
79184,1560699015597,3,2.27,2.34,3.16,2.21,5.04,0.04,0.35,0.74,6,2,4,0.35,11996,100,86,34,83,776,857.0,655,455,60,116.0,287,1,440,559,243,0,0,891,-11532,-10508,856,,,,,,,,,,,,
79204,1560699015617,4,2.27,2.34,3.19,2.19,5.08,0.04,0.29,0.83,6,0,4,0.3,12159,100,86,34,83,779,863.0,651,455,60,115.0,287,1,440,560,243,0,0,885,-2830,-14848,861,,,,,,,,,,,,
79224,1560699015637,6,2.28,2.34,3.1,2.17,5.07,-0.07,0.31,0.94,6,3,5,0.31,12222,100,86,34,83,786,866.0,660,452,60,115.0,298,1,440,560,260,0,0,887,-2826,3,866,,,,,,,,,,,,
79244,1560699015657,5,2.28,2.35,2.96,2.16,5.05,-0.12,0.41,0.88,6,5,6,0.43,12199,100,86,34,83,802,873.0,664,457,60,115.0,298,1,440,560,260,0,0,898,-10508,-2820,870,45.701756,4.911489,81.17,201.0,0,0.0,0,0.0,0.4683,1,0.38,1.3207
79264,1560699015677,6,2.27,2.39,2.93,2.16,5.05,-0.2,0.46,0.76,7,4,6,0.5,12159,100,86,34,83,818,871.0,656,454,60,116.0,298,1,440,560,260,0,0,894,-2426,16,874,,,,,,,,,,,,
79284,1560699015697,6,2.28,2.39,2.92,2.17,5.05,-0.18,0.52,0.75,7,6,6,0.55,12159,100,86,34,83,831,878.0,660,452,60,116.0,298,1,440,560,260,0,0,902,-2570,-5120,879,,,,,,,,,,,,
79304,1560699015717,3,2.28,2.41,2.91,2.16,5.04,-0.12,0.59,0.58,6,6,7,0.6,12167,100,86,34,83,841,882.0,657,451,60,116.0,298,1,440,560,260,0,0,888,-2820,-2836,877,,,,,,,,,,,,
79324,1560699015737,4,2.28,2.4,2.97,2.14,5.07,-0.06,0.53,0.41,6,6,7,0.53,12214,100,86,34,83,839,883.0,658,452,60,116.0,295,1,440,560,259,0,0,905,-780,-4877,882,,,,,,,,,,,,
79344,1560699015757,8,2.27,2.37,3.05,2.12,5.04,0.05,0.4,0.48,5,6,6,0.4,12319,100,86,34,83,837,887.0,664,449,60,115.0,295,1,440,560,259,0,0,902,-14712,-3348,882,45.70174,4.911511,83.06,201.0,0,0.0,0,0.0,0.47,1,0.38,1.3224
79364,1560699015777,12,2.28,2.34,3.08,2.1,5.07,0.15,0.33,0.61,3,5,5,0.36,12376,100,86,34,83,833,886.0,656,455,60,116.0,295,1,440,560,259,0,0,909,-30469,-9476,880,,,,,,,,,,,,
79384,1560699015797,15,2.28,2.33,3.08,2.09,5.07,0.2,0.34,0.64,2,4,5,0.39,12409,94,86,34,83,829,883.0,661,447,60,116.0,295,1,440,560,259,0,0,909,-2820,-3092,877,,,,,,,,,,,,
79404,1560699015817,20,2.28,2.31,3.1,2.07,5.08,0.28,0.36,0.51,3,5,4,0.46,12409,81,86,34,81,826,881.0,666,450,60,116.0,295,1,440,541,259,0,0,913,-1576,-1044,881,,,,,,,,,,,,
79424,1560699015837,24,2.28,2.3,3.1,2.07,5.07,0.35,0.27,0.54,3,4,3,0.44,12278,65,86,34,75,822,877.0,666,453,60,115.0,267,1,440,494,235,0,0,910,-31066,-2324,875,,,,,,,,,,,,
79444,1560699015857,24,2.29,2.29,3.08,2.07,5.05,0.45,0.13,0.68,3,3,1,0.47,12096,47,86,34,67,811,873.0,672,450,60,115.0,267,1,440,444,235,0,0,904,-1578,-3092,867,45.701729,4.911536,84.5,201.1,0,0.0,0,0.0,0.4717,1,0.38,1.3241
79464,1560699015877,23,2.29,2.25,3.1,2.03,5.05,0.6,0.11,0.7,3,1,-0,0.61,11755,34,86,34,57,799,870.0,666,454,60,115.0,267,1,417,378,235,0,0,892,-22795,-14848,870,,,,,,,,,,,,
79484,1560699015896,25,2.28,2.12,3.24,1.97,5.05,0.7,0.21,0.69,3,-1,-1,0.73,11391,28,86,34,51,791,874.0,667,457,60,116.0,267,1,391,298,235,0,0,878,-31068,-2570,874,,,,,,,,,,,,
79504,1560699015916,23,2.3,2.0,3.35,1.86,5.06,0.76,0.14,0.65,3,-1,-1,0.77,11180,25,86,34,47,783,871.0,663,456,60,117.0,267,1,380,547,235,0,0,855,-10508,-11532,864,,,,,,,,,,,,
79524,1560699015936,26,2.29,1.96,3.47,1.81,5.04,0.79,0.19,0.46,3,0,-1,0.81,11022,24,86,34,44,773,860.0,660,455,60,116.0,254,1,357,520,219,0,0,851,-1582,-31066,860,,,,,,,,,,,,
79544,1560699015956,27,2.29,1.86,3.53,1.76,5.03,0.76,0.23,0.47,4,-0,-1,0.79,10794,24,86,34,41,763,862.0,661,455,60,116.0,254,1,335,483,219,0,0,825,-2311,-2574,862,45.701717,4.911561,85.76,201.1,0,0.0,0,0.0,0.4733,1,0.38,1.3257
79564,1560699015976,28,2.28,1.87,3.55,1.75,5.06,0.78,0.09,0.39,3,1,0,0.78,10665,24,86,34,40,761,851.0,657,454,60,116.0,254,1,327,465,219,0,0,829,-1578,-2830,854,,,,,,,,,,,,
79584,1560699015996,26,2.27,1.93,3.53,1.8,5.04,0.79,0.04,0.31,4,-0,-1,0.79,10575,24,86,34,39,759,835.0,653,453,60,116.0,254,1,320,444,219,0,0,808,-2830,-25858,835,,,,,,,,,,,,
79604,1560699016010,28,2.27,1.92,3.52,1.81,5.05,0.91,-0.07,0.25,2,-4,-1,0.92,10593,24,86,34,38,778,830.0,651,457,60,115.0,254,1,317,438,219,0,0,795,-2358,6905,831,,,,,,,,,,,,
79624,1560699016030,23,2.28,1.89,3.53,1.77,5.04,0.9,-0.08,0.22,4,-3,0,0.9,10611,24,86,34,37,798,831.0,656,453,60,116.0,212,1,314,434,176,0,0,771,-31066,-10216,829,,,,,,,,,,,,
79644,1560699016050,22,2.28,1.87,3.63,1.77,5.06,0.91,-0.15,0.24,3,-4,3,0.92,10451,23,86,34,36,820,828.0,653,451,60,116.0,212,1,311,429,176,0,0,731,-31066,-2358,828,45.701702,4.911585,85.36,201.1,0,0.0,0,0.0,0.475,1,0.39,1.3274
79664,1560699016070,25,2.28,1.87,3.69,1.76,5.04,0.85,-0.19,0.22,3,-3,3,0.87,10290,22,86,34,35,841,820.0,648,455,60,116.0,212,1,308,417,176,0,0,694,-2826,-3344,821,,,,,,,,,,,,
79684,1560699016098,25,2.28,1.87,3.67,1.76,5.04,0.84,-0.1,0.09,3,-1,3,0.84,10113,20,86,34,35,854,823.0,653,451,60,117.0,212,1,308,408,176,0,0,689,-25858,-2314,821,,,,,,,,,,,,
79704,1560699016118,23,2.28,1.86,3.64,1.79,5.04,0.96,-0.19,0.11,3,-2,3,0.98,9858,19,86,34,34,867,820.0,653,456,60,116.0,212,1,305,391,176,0,0,673,-13312,-2358,820,,,,,,,,,,,,
79724,1560699016138,23,2.3,1.84,3.58,1.78,5.05,0.92,-0.17,-0.01,3,-2,7,0.94,9674,18,86,34,33,863,807.0,644,456,60,116.0,171,1,302,375,139,0,0,677,-2560,-3344,810,,,,,,,,,,,,
79744,1560699016158,26,2.29,1.8,3.5,1.76,5.03,1.03,-0.29,0.05,3,-2,5,1.07,9479,18,86,34,32,855,808.0,640,458,60,116.0,171,1,300,357,139,0,0,741,-2540,6389,805,45.701691,4.911608,82.79,201.2,0,0.0,0,0.0,0.4767,1,0.39,1.3291
79764,1560699016178,21,2.29,1.75,3.47,1.75,5.04,1.0,-0.29,0.02,4,-1,6,1.04,9286,18,86,34,32,838,801.0,597,458,60,117.0,171,1,300,344,139,0,0,761,11277,6905,802,,,,,,,,,,,,
79784,1560699016194,22,2.28,1.67,3.53,1.71,5.08,0.94,-0.29,-0.07,4,2,7,0.98,9204,18,86,34,31,820,793.0,597,456,60,118.0,171,1,295,336,139,0,0,719,6389,-22795,793,,,,,,,,,,,,
79804,1560699016214,20,2.29,1.64,3.55,1.65,5.06,0.9,-0.22,-0.18,3,-0,7,0.93,9295,17,86,34,30,809,786.0,617,460,60,118.0,171,1,291,333,139,0,0,709,-10218,-31068,785,,,,,,,,,,,,
79824,1560699016234,20,2.29,1.63,3.52,1.6,5.04,0.9,-0.1,-0.18,3,-1,7,0.91,9250,18,86,34,29,800,776.0,622,458,60,118.0,146,1,287,326,114,0,0,715,-23308,1524,775,,,,,,,,,,,,
79844,1560699016254,21,2.28,1.64,3.54,1.58,5.05,1.01,-0.15,-0.11,2,-1,5,1.03,9282,17,86,34,29,793,772.0,618,461,60,118.0,146,1,287,325,114,0,0,696,-2570,204,771,45.701679,4.911631,80.4,201.2,0,0.0,0,0.0,0.4783,1,0.39,1.3307
79864,1560699016274,22,2.26,1.64,3.54,1.59,5.06,1.12,-0.18,0.03,2,-2,3,1.13,9309,17,86,34,28,787,760.0,633,456,60,118.0,146,1,282,319,114,0,0,683,5876,16599,760,,,,,,,,,,,,
79884,1560699016298,20,2.26,1.64,3.54,1.58,5.06,1.1,-0.21,-0.05,2,1,4,1.12,9300,17,86,34,28,786,756.0,636,458,60,118.0,146,1,282,547,114,0,0,673,-31066,-3584,749,,,,,,,,,,,,
79904,1560699016318,22,2.25,1.64,3.53,1.58,5.04,0.92,-0.14,-0.16,1,-1,4,0.93,9286,17,86,34,27,787,749.0,632,459,60,115.0,146,1,278,491,114,0,0,681,-3344,-388,748,,,,,,,,,,,,
79924,1560699016338,19,2.27,1.63,3.52,1.58,5.05,1.03,-0.26,-0.0,0,-0,4,1.06,9195,17,86,34,27,791,745.0,633,458,60,115.0,212,1,278,437,158,0,0,691,6790,-3038,745,,,,,,,,,,,,
79944,1560699016358,16,2.26,1.64,3.5,1.58,5.04,1.08,-0.36,0.11,-1,-4,3,1.14,9115,17,86,33,27,796,743.0,631,455,60,115.0,212,1,278,386,158,0,0,679,-2314,-10348,738,45.701664,4.911653,77.39,201.2,0,0.0,0,0.0,0.48,1,0.39,1.3324
79964,1560699016378,15,2.26,1.65,3.49,1.59,5.05,1.14,-0.41,0.04,-1,-2,2,1.22,9062,17,86,33,26,801,738.0,633,457,60,115.0,212,1,274,340,158,0,0,671,-2830,-26380,735,,,,,,,,,,,,
79984,1560699016396,11,2.28,1.65,3.44,1.59,5.04,1.15,-0.46,0.05,-2,-3,1,1.24,9049,17,86,33,26,803,732.0,623,455,60,115.0,212,1,274,296,158,0,0,679,-2826,24845,731,,,,,,,,,,,,
80004,1560699016416,9,2.29,1.64,3.44,1.57,5.08,1.19,-0.48,-0.01,-2,-3,-1,1.29,9071,17,86,33,26,826,728.0,618,451,60,115.0,212,1,274,292,158,0,0,682,-2830,11576,731,,,,,,,,,,,,
80024,1560699016436,4,2.3,1.65,3.37,1.58,5.07,1.06,-0.47,-0.03,-2,-5,-2,1.16,9084,17,86,33,26,869,726.0,626,456,60,115.0,137,1,274,289,100,0,0,701,-2918,12333,725,,,,,,,,,,,,
80044,1560699016456,4,2.31,1.65,3.36,1.59,5.08,0.99,-0.43,-0.08,-2,-3,-2,1.08,9119,17,86,33,26,912,724.0,628,452,60,116.0,137,1,274,286,100,0,0,697,-388,8010,720,45.701652,4.911674,74.05,201.2,0,0.0,0,0.0,0.4817,1,0.39,1.3341
80064,1560699016476,5,2.3,1.66,3.36,1.6,5.06,0.84,-0.28,-0.17,-2,-4,-2,0.88,9137,16,86,33,26,953,721.0,627,457,60,116.0,137,1,274,283,100,0,0,704,-2830,19188,718,,,,,,,,,,,,
80084,1560699016496,1,2.31,1.66,3.35,1.6,5.09,0.69,-0.14,-0.26,-1,0,-2,0.7,9168,16,86,33,25,985,717.0,640,451,60,115.0,137,1,270,279,100,0,0,701,204,19188,717,,,,,,,,,,,,
80104,1560699016516,-1,2.31,1.66,3.34,1.63,5.06,0.61,0.05,-0.29,0,-1,-0,0.61,9209,16,86,33,26,1007,716.0,634,459,60,116.0,137,1,274,276,100,0,0,695,-13312,-3584,717,,,,,,,,,,,,
80124,1560699016536,-0,2.31,1.68,3.34,1.64,5.06,0.58,0.15,-0.22,1,2,1,0.6,9231,16,86,33,25,1020,716.0,633,456,60,116.0,91,1,270,188,65,0,0,692,-30694,16599,716,,,,,,,,,,,,
80144,1560699016556,1,2.3,1.68,3.34,1.66,5.07,0.72,0.07,-0.05,1,-1,2,0.73,9259,16,86,33,25,1004,708.0,626,460,60,115.0,91,1,270,188,65,0,0,695,687,14342,711,45.701637,4.911694,71.17,201.2,0,0.0,0,0.0,0.4833,1,0.4,1.3357
80164,1560699016576,2,2.29,1.68,3.35,1.65,5.07,0.85,-0.08,0.09,2,-0,2,0.86,9263,16,86,33,25,985,708.0,632,457,60,115.0,91,1,270,188,65,0,0,691,15647,15647,708,,,,,,,,,,,,
80184,1560699016596,2,2.31,1.69,3.39,1.66,5.05,0.91,-0.16,0.07,1,-3,2,0.92,9286,16,86,34,25,960,708.0,634,454,60,115.0,91,1,270,188,65,0,0,685,8010,24,705,,,,,,,,,,,,
80204,1560699016616,1,2.29,1.68,3.39,1.64,5.06,0.81,-0.11,0.04,2,-1,1,0.81,9300,16,86,34,25,939,703.0,633,455,60,116.0,91,1,270,188,65,0,0,686,-2830,16599,703,,,,,,,,,,,,
80224,1560699016636,1,2.29,1.67,3.4,1.61,5.05,0.69,0.02,-0.05,3,2,2,0.69,9300,16,86,34,25,931,700.0,630,459,60,116.0,94,1,270,188,66,0,0,685,-2830,-10399,702,,,,,,,,,,,,
80244,1560699016656,2,2.29,1.67,3.37,1.62,5.04,0.78,-0.08,0.07,3,2,2,0.79,9295,16,86,34,25,925,700.0,634,456,60,116.0,94,1,270,188,66,0,0,691,-10448,6208,700,45.70163,4.911713,69.17,201.2,0,0.0,0,0.0,0.485,1,0.4,1.3374
80264,1560699016676,5,2.29,1.72,3.33,1.65,5.06,0.91,-0.26,0.14,2,3,2,0.94,9333,16,86,34,25,924,698.0,633,455,60,115.0,94,1,270,188,66,0,0,682,14342,-2345,698,,,,,,,,,,,,
80284,1560699016698,13,2.3,1.77,3.27,1.71,5.05,0.88,-0.32,0.12,2,2,2,0.94,9323,16,86,34,25,924,691.0,635,457,60,115.0,94,1,270,188,66,0,0,685,6208,-10399,690,,,,,,,,,,,,
80304,1560699016718,12,2.29,1.83,3.23,1.75,5.04,0.75,-0.23,0.01,1,4,2,0.78,9291,16,86,34,24,932,679.0,637,452,60,115.0,94,1,270,181,66,0,0,671,-2345,-388,679,,,,,,,,,,,,
80324,1560699016738,14,2.3,1.82,3.28,1.74,5.05,0.72,-0.13,-0.06,2,2,3,0.73,9213,16,86,34,24,942,676.0,638,453,60,115.0,92,1,270,181,63,0,0,672,-3038,-26380,676,,,,,,,,,,,,
80344,1560699016758,14,2.31,1.81,3.39,1.73,5.04,0.67,-0.04,-0.1,3,5,2,0.67,9093,16,86,34,24,965,677.0,637,460,60,115.0,92,1,270,181,63,0,0,663,31988,-2826,672,45.701618,4.911732,68.03,201.2,0,0.0,0,0.0,0.4867,1,0.4,1.3391
80364,1560699016778,12,2.31,1.77,3.51,1.71,5.05,0.81,-0.05,-0.05,3,1,3,0.81,8932,16,86,34,24,988,673.0,633,455,60,115.0,92,1,270,181,63,0,0,642,-3578,-3038,671,,,,,,,,,,,,
80384,1560699016798,19,2.31,1.77,3.57,1.73,5.07,0.73,0.02,-0.09,3,4,4,0.73,8761,15,86,34,25,1003,670.0,630,451,60,117.0,92,1,270,188,63,0,0,633,3543,-26380,670,,,,,,,,,,,,
80404,1560699016818,16,2.31,1.79,3.6,1.75,5.07,0.62,0.1,-0.1,4,2,5,0.63,8553,16,86,34,25,1019,666.0,617,452,60,115.0,92,1,270,188,63,0,0,635,8958,2024,666,,,,,,,,,,,,
80424,1560699016838,13,2.31,1.76,3.59,1.73,5.04,0.7,0.14,0.02,3,2,5,0.72,8400,15,86,34,26,1051,665.0,613,450,60,115.0,88,1,274,182,59,0,0,609,8958,3395,665,,,,,,,,,,,,
80444,1560699016858,11,2.31,1.74,3.59,1.73,5.04,0.77,0.09,-0.04,4,6,6,0.78,8359,16,86,34,26,1083,662.0,608,460,60,117.0,88,1,273,179,59,0,0,530,-3488,2104,662,45.701607,4.91175,66.65,201.2,0,0.0,0,0.0,0.4883,1,0.4,1.3407
80464,1560699016878,5,2.33,1.73,3.53,1.75,5.04,0.68,0.06,0.02,4,4,6,0.68,8484,16,86,34,27,1101,659.0,618,454,60,116.0,88,1,278,187,59,0,0,547,2024,-30139,659,,,,,,,,,,,,
80484,1560699016897,0,2.33,1.75,3.53,1.8,5.05,0.55,0.04,-0.19,6,10,7,0.55,8465,15,86,34,27,1118,655.0,622,460,60,117.0,88,1,278,185,59,0,0,521,4909,6274,655,,,,,,,,,,,,
80504,1560699016917,3,2.33,1.71,3.52,1.78,5.08,0.6,0.06,-0.12,6,10,8,0.61,8589,15,86,34,27,1140,652.0,625,454,60,117.0,88,1,278,188,59,0,0,545,244,208,652,,,,,,,,,,,,
80524,1560699016937,3,2.32,1.69,3.49,1.79,5.06,0.75,-0.12,-0.17,6,13,9,0.75,8573,15,86,34,27,1161,649.0,626,457,60,116.0,91,1,278,188,59,0,0,578,-2580,16529,649,,,,,,,,,,,,
80544,1560699016957,1,2.31,1.65,3.48,1.79,5.05,0.86,-0.29,-0.04,6,11,11,0.91,8596,15,86,34,27,1171,648.0,616,456,60,117.0,91,1,278,188,59,0,0,586,-2836,1010,648,45.701599,4.911768,65.27,201.3,0,0.0,0,0.0,0.49,1,0.4,1.3424
80564,1560699016977,-0,2.32,1.65,3.52,1.8,5.05,0.89,-0.3,0.04,7,12,15,0.94,8680,15,86,34,27,1176,641.0,630,456,60,117.0,91,1,278,188,59,0,0,603,771,-16883,641,,,,,,,,,,,,
80584,1560699016991,5,2.33,1.64,3.5,1.8,5.07,0.76,-0.23,-0.05,7,14,14,0.79,8636,16,86,34,28,1182,640.0,630,458,60,117.0,91,1,282,188,59,0,0,589,-1346,6273,640,,,,,,,,,,,,
80604,1560699017011,2,2.33,1.65,3.48,1.85,5.07,0.75,-0.19,-0.12,7,11,13,0.78,8806,21,86,34,29,1188,636.0,625,454,60,116.0,91,1,287,188,59,0,0,608,17336,1010,636,,,,,,,,,,,,
80624,1560699017031,3,2.33,1.64,3.49,1.87,5.08,0.8,-0.27,0.06,8,8,12,0.84,8806,28,86,34,31,1189,632.0,628,452,60,117.0,98,1,295,188,62,0,0,596,19320,-3820,632,,,,,,,,,,,,
80644,1560699017051,3,2.33,1.64,3.51,1.89,5.07,0.92,-0.35,0.02,6,5,12,0.98,8975,33,86,34,34,1189,625.0,625,455,60,117.0,98,1,305,195,62,0,0,593,16529,-16179,625,45.701584,4.911785,63.58,201.3,0,0.0,0,0.0,0.4917,1,0.41,1.3441
80664,1560699017071,4,2.33,1.64,3.53,1.89,5.08,0.96,-0.34,0.07,6,6,15,1.02,9236,38,86,34,38,1186,623.0,630,460,60,117.0,98,1,317,210,62,0,0,591,16529,-768,623,,,,,,,,,,,,
80684,1560699017097,1,2.34,1.65,3.5,1.89,5.05,0.85,-0.3,0.01,7,3,13,0.9,9503,44,86,34,41,1183,618.0,636,455,60,117.0,98,1,335,221,62,0,0,592,17740,-3210,618,,,,,,,,,,,,
80704,1560699017117,5,2.33,1.65,3.52,1.89,5.06,0.83,-0.34,-0.04,7,2,13,0.89,9931,50,86,34,45,1179,618.0,634,455,60,116.0,98,1,365,237,62,0,0,582,5344,-12040,618,,,,,,,,,,,,
80724,1560699017137,3,2.33,1.65,3.53,1.88,5.04,0.94,-0.36,0.0,6,3,14,1.01,10151,56,86,34,49,1174,616.0,642,452,60,117.0,159,1,385,268,98,0,0,581,-768,15649,615,,,,,,,,,,,,
80744,1560699017157,2,2.33,1.66,3.52,1.87,5.05,0.9,-0.32,0.06,6,1,14,0.95,10422,60,86,34,53,1145,612.0,654,453,60,117.0,159,1,397,313,98,0,0,580,-3210,-4035,612,45.701576,4.9118,61.61,201.4,0,0.0,0,0.0,0.4933,1,0.41,1.3457
80764,1560699017177,4,2.33,1.68,3.53,1.92,5.08,0.94,-0.39,0.1,6,1,13,1.02,10806,63,86,34,58,1105,608.0,657,455,60,117.0,159,1,428,358,98,0,0,572,4956,8488,608,,,,,,,,,,,,
80784,1560699017197,3,2.32,1.69,3.53,1.91,5.04,0.9,-0.5,0.2,7,2,12,1.03,11154,64,86,34,61,1066,603.0,660,455,60,116.0,159,1,447,390,98,0,0,580,-13043,15649,603,,,,,,,,,,,,
80804,1560699017217,6,2.34,1.68,3.53,1.91,5.03,0.91,-0.48,0.24,7,0,12,1.03,11391,64,86,34,62,1029,604.0,656,452,60,116.0,159,1,443,409,98,0,0,582,6273,-12040,602,,,,,,,,,,,,
80824,1560699017237,3,2.34,1.68,3.49,1.89,5.07,0.96,-0.41,0.2,7,1,14,1.04,11667,65,86,34,63,1018,606.0,666,449,60,116.0,298,1,440,412,181,0,0,591,-32504,-30139,606,,,,,,,,,,,,
80844,1560699017257,4,2.34,1.7,3.43,1.91,5.06,0.94,-0.39,0.35,6,-0,14,1.02,11942,65,86,35,63,1032,603.0,670,450,60,116.0,298,1,440,415,181,0,0,1340,-28648,-3210,602,45.701565,4.911815,60.12,201.4,0,0.0,0,0.0,0.495,1,0.41,1.3474
80864,1560699017277,5,2.33,1.72,3.49,1.95,5.05,0.99,-0.37,0.49,6,-0,15,1.05,12135,65,86,35,63,1063,603.0,677,448,60,116.0,298,1,440,415,181,0,0,1340,-28648,4956,603,,,,,,,,,,,,
80884,1560699017297,2,2.36,1.76,3.43,1.99,5.04,0.98,-0.26,0.42,7,-3,16,1.01,12311,65,86,35,64,1113,600.0,664,448,60,116.0,298,1,440,422,181,0,0,1340,2048,5344,600,,,,,,,,,,,,
80904,1560699017317,0,2.36,1.83,3.44,2.1,5.05,0.96,-0.3,0.47,7,-3,16,1.0,12327,64,86,35,64,1156,602.0,677,448,60,117.0,298,1,440,422,181,0,0,1340,-1894,-28304,601,,,,,,,,,,,,
80924,1560699017337,2,2.37,1.86,3.37,2.19,5.04,0.93,-0.44,0.61,8,-3,18,1.03,12034,57,86,35,62,1192,608.0,658,443,60,116.0,315,1,440,409,191,0,0,26,3472,771,608,,,,,,,,,,,,
80944,1560699017357,2,2.36,1.94,3.29,2.24,5.05,0.91,-0.45,0.68,8,-3,18,1.01,11807,46,86,35,58,1216,615.0,657,448,60,116.0,315,1,422,375,191,0,0,645,4956,3,615,45.701553,4.91183,58.85,201.4,0,0.0,0,0.0,0.4967,1,0.41,1.3491
80964,1560699017377,4,2.36,2.04,3.28,2.32,5.04,0.88,-0.32,0.62,8,-3,18,0.93,11595,37,86,35,52,1202,617.0,653,446,60,116.0,315,1,394,310,191,0,0,629,23619,24,617,,,,,,,,,,,,
80984,1560699017399,1,2.38,2.08,3.26,2.33,5.05,0.88,-0.33,0.64,8,-3,18,0.94,11377,30,86,35,46,1177,620.0,650,452,60,116.0,315,1,372,243,191,0,0,615,5344,-1346,620,,,,,,,,,,,,
81004,1560699017419,6,2.36,2.13,3.39,2.36,5.07,0.91,-0.45,0.64,8,-4,16,1.01,11274,28,86,35,41,1136,619.0,661,457,60,116.0,315,1,335,231,191,0,0,624,-3210,-1346,619,,,,,,,,,,,,
81024,1560699017439,3,2.37,2.1,3.43,2.34,5.05,0.87,-0.44,0.67,9,-5,18,0.98,11055,27,86,35,38,1097,618.0,655,453,60,116.0,152,1,317,227,95,0,0,609,-23055,30721,618,,,,,,,,,,,,
81044,1560699017459,1,2.37,2.07,3.43,2.31,5.06,0.89,-0.36,0.63,9,-6,17,0.96,10806,27,86,35,37,1069,623.0,653,455,60,117.0,152,1,314,222,95,0,0,604,-7939,19320,623,45.701542,4.911844,58.33,201.4,0,0.0,0,0.0,0.4983,1,0.41,1.3507
81064,1560699017479,5,2.36,2.04,3.51,2.29,5.06,0.79,-0.29,0.49,10,-5,18,0.85,10641,27,86,35,37,1035,621.0,649,453,60,117.0,152,1,314,218,95,0,0,602,-3820,3403,622,,,,,,,,,,,,
81084,1560699017499,4,2.37,2.0,3.49,2.28,5.07,0.82,-0.23,0.44,11,-3,19,0.85,10393,27,86,35,37,979,623.0,650,453,60,116.0,152,1,314,216,95,0,0,596,-768,269,621,,,,,,,,,,,,
81104,1560699017519,8,2.37,1.96,3.57,2.28,5.07,0.8,-0.35,0.38,11,-4,19,0.87,10240,27,86,35,37,927,626.0,647,455,60,117.0,152,1,314,216,95,0,0,582,17344,-28304,623,,,,,,,,,,,,
81124,1560699017539,11,2.37,1.88,3.56,2.24,5.05,0.9,-0.47,0.34,11,-6,21,1.02,10190,27,86,35,38,897,618.0,644,455,60,116.0,134,1,317,216,83,0,0,569,6273,-28648,618,,,,,,,,,,,,
81144,1560699017559,18,2.37,1.79,3.55,2.22,5.04,1.02,-0.61,0.46,11,-7,19,1.19,10229,25,86,35,37,870,608.0,648,456,60,116.0,134,1,314,215,83,0,0,550,-16384,10432,608,45.70153,4.911857,59.7,201.4,0,0.0,0,0.0,0.5,1,0.41,1.3524
81164,1560699017579,17,2.37,1.68,3.63,2.11,5.05,1.11,-0.66,0.48,11,-10,19,1.29,10347,23,86,35,36,850,603.0,651,448,60,117.0,134,1,311,215,83,0,0,524,10432,1267,607,,,,,,,,,,,,
81184,1560699017599,15,2.37,1.55,3.64,2.03,5.07,1.03,-0.62,0.52,13,-6,20,1.2,10285,21,86,35,34,830,604.0,651,458,60,116.0,134,1,305,213,83,0,0,501,1,-29984,604,,,,,,,,,,,,
81204,1560699017619,15,2.36,1.49,3.68,1.98,5.05,0.99,-0.5,0.52,13,-8,21,1.11,10179,19,86,35,33,839,604.0,646,459,60,116.0,134,1,302,211,83,0,0,470,774,-32504,601,,,,,,,,,,,,
81224,1560699017639,9,2.36,1.45,3.68,1.93,5.05,0.99,-0.56,0.51,13,-4,22,1.14,9936,18,86,35,32,850,603.0,645,451,60,116.0,130,1,300,205,78,0,0,438,774,-12040,600,,,,,,,,,,,,
81244,1560699017659,12,2.36,1.46,3.68,1.93,5.06,1.01,-0.59,0.32,15,-2,21,1.17,9755,16,86,35,31,898,598.0,641,460,60,117.0,130,1,295,199,78,0,0,416,-8188,17344,598,45.701519,4.91187,59.5,201.5,0,0.0,0,0.0,0.5017,1,0.42,1.3541
81264,1560699017679,12,2.34,1.51,3.66,1.96,5.06,1.0,-0.65,0.46,15,-3,22,1.19,9566,14,86,35,29,945,590.0,638,451,60,117.0,130,1,287,193,78,0,0,417,-2934,6273,591,,,,,,,,,,,,
81284,1560699017699,5,2.34,1.6,3.64,2.04,5.05,1.01,-0.68,0.3,15,2,20,1.22,9365,12,86,35,28,984,587.0,630,455,60,116.0,130,1,282,190,78,0,0,427,6273,-16384,587,,,,,,,,,,,,
81304,1560699017719,3,2.34,1.68,3.58,2.09,5.07,0.79,-0.51,0.18,15,-2,22,0.94,9150,11,86,35,26,1021,586.0,632,451,60,117.0,130,1,274,187,78,0,0,457,6273,10432,582,,,,,,,,,,,,
81324,1560699017739,2,2.33,1.69,3.54,2.09,5.06,0.79,-0.4,0.14,14,1,19,0.89,8962,11,86,35,24,1052,580.0,630,458,60,117.0,109,1,270,187,63,0,0,505,-18032,12552,580,,,,,,,,,,,,
81344,1560699017759,5,2.32,1.69,3.54,2.08,5.04,0.72,-0.23,0.04,13,-5,18,0.76,8894,11,86,35,24,1083,572.0,624,458,60,117.0,109,1,270,180,63,0,0,507,2216,-3082,569,45.701508,4.911883,58.28,201.5,0,0.0,0,0.0,0.5033,1,0.42,1.3557
81364,1560699017779,10,2.31,1.68,3.55,2.04,5.04,0.65,-0.16,-0.07,12,-2,19,0.67,8958,11,86,35,24,1082,563.0,525,458,60,117.0,109,1,270,180,63,0,0,508,2216,-22519,563,,,,,,,,,,,,
81384,1560699017799,9,2.31,1.67,3.61,1.96,5.03,0.54,-0.06,-0.07,11,-2,19,0.54,8945,10,86,35,23,1075,564.0,534,454,60,116.0,109,1,270,175,63,0,0,474,-9072,11560,564,,,,,,,,,,,,
81404,1560699017819,9,2.31,1.69,3.63,1.94,5.07,0.44,-0.02,-0.09,11,-1,19,0.44,8937,10,86,35,23,1092,563.0,544,450,60,116.0,109,1,270,175,63,0,0,466,-32248,12552,565,,,,,,,,,,,,
81424,1560699017839,10,2.3,1.72,3.6,1.92,5.04,0.39,0.09,-0.22,11,0,17,0.4,8786,10,86,35,23,1110,557.0,542,458,60,117.0,103,1,270,175,58,0,0,473,-32248,16648,557,,,,,,,,,,,,
81444,1560699017859,10,2.31,1.71,3.59,1.9,5.07,0.55,0.16,-0.27,10,-0,16,0.57,8708,10,86,35,23,1134,556.0,557,455,60,117.0,103,1,270,175,58,0,0,482,-2336,-22519,556,45.701496,4.911894,56.88,201.5,0,0.0,0,0.0,0.505,1,0.42,1.3574
81464,1560699017879,16,2.31,1.7,3.59,1.89,5.05,0.69,-0.06,-0.17,10,0,16,0.69,8668,10,86,35,23,1160,547.0,579,454,60,117.0,103,1,270,175,58,0,0,454,-32248,16648,547,,,,,,,,,,,,
81484,1560699017898,16,2.32,1.66,3.56,1.88,5.05,0.78,-0.12,-0.22,10,1,15,0.79,8672,10,86,35,23,1177,542.0,566,456,60,117.0,103,1,270,175,58,0,0,450,-9072,771,540,,,,,,,,,,,,
81504,1560699017918,21,2.32,1.54,3.56,1.82,5.04,0.76,-0.05,-0.23,9,1,16,0.76,8660,10,86,35,23,1192,537.0,587,453,60,117.0,103,1,270,175,58,0,0,433,-22519,505,533,,,,,,,,,,,,
81524,1560699017938,22,2.32,1.51,3.56,1.73,5.06,0.79,-0.08,-0.24,9,3,15,0.79,8624,10,86,35,23,1188,528.0,608,455,60,116.0,107,1,270,175,57,0,0,424,1341,-1923,529,,,,,,,,,,,,
81544,1560699017958,18,2.32,1.49,3.54,1.7,5.07,0.88,-0.11,-0.12,9,2,15,0.88,8495,10,86,35,23,1178,522.0,618,457,60,116.0,107,1,270,175,57,0,0,434,-4054,-6441,522,45.701481,4.911905,55.0,201.5,0,0.0,0,0.0,0.5067,1,0.42,1.3591
81564,1560699017978,22,2.32,1.49,3.54,1.69,5.06,0.92,-0.11,-0.17,10,2,13,0.92,8445,10,86,35,23,1168,516.0,620,457,60,117.0,107,1,270,172,57,0,0,452,2109,-23367,516,,,,,,,,,,,,
81584,1560699017992,20,2.31,1.48,3.55,1.69,5.04,1.02,-0.13,-0.08,9,2,12,1.03,8423,10,86,35,24,1159,510.0,617,452,60,117.0,107,1,270,177,57,0,0,431,2524,2212,506,,,,,,,,,,,,
81604,1560699018012,18,2.32,1.48,3.6,1.69,5.04,1.06,-0.23,-0.05,9,0,12,1.08,8366,10,86,35,23,1155,504.0,613,453,60,117.0,107,1,270,168,57,0,0,382,998,32033,502,,,,,,,,,,,,
81624,1560699018032,18,2.31,1.5,3.61,1.68,5.04,1.11,-0.32,-0.11,8,1,12,1.15,8227,10,86,35,24,1157,497.0,613,456,60,118.0,106,1,270,166,53,0,0,369,1,-6656,495,,,,,,,,,,,,
81644,1560699018052,22,2.31,1.54,3.62,1.69,5.04,1.06,-0.25,-0.03,9,1,12,1.09,8088,10,86,35,24,1162,491.0,600,456,60,117.0,106,1,270,159,53,0,0,378,-899,10305,491,45.701473,4.911914,52.21,201.5,0,0.0,0,0.0,0.5083,1,0.42,1.3607
81664,1560699018072,16,2.31,1.61,3.63,1.69,5.04,1.1,-0.29,0.02,8,0,11,1.14,7881,10,86,35,24,1170,480.0,587,450,60,117.0,106,1,268,155,53,0,0,361,8488,505,480,,,,,,,,,,,,
81684,1560699018098,19,2.3,1.69,3.63,1.7,5.07,1.2,-0.34,0.06,6,-0,9,1.24,7671,9,86,35,23,1177,477.0,588,455,60,116.0,106,1,266,155,53,0,0,350,-16384,3576,475,,,,,,,,,,,,
81704,1560699018118,20,2.3,1.74,3.62,1.72,5.04,1.28,-0.33,0.05,4,-3,8,1.32,7530,9,86,35,23,1184,469.0,572,455,60,117.0,106,1,265,153,53,0,0,342,16408,-1923,469,,,,,,,,,,,,
81724,1560699018138,18,2.31,1.74,3.57,1.71,5.08,1.35,-0.31,0.07,3,-4,8,1.39,7361,9,86,35,23,1188,463.0,559,455,60,117.0,92,1,263,153,43,0,0,349,6193,-23623,463,,,,,,,,,,,,
81744,1560699018158,17,2.3,1.73,3.56,1.71,5.04,1.42,-0.34,0.13,2,-8,7,1.46,7304,9,86,35,23,1192,460.0,557,457,60,116.0,92,1,263,153,43,0,0,355,2524,16648,458,45.701458,4.911922,48.94,201.5,0,0.0,0,0.0,0.51,1,0.42,1.3624
81764,1560699018178,22,2.31,1.7,3.54,1.69,5.08,1.44,-0.35,0.21,1,-8,8,1.48,7256,9,86,35,23,1192,454.0,555,455,60,117.0,92,1,262,153,43,0,0,360,15649,-3414,454,,,,,,,,,,,,
81784,1560699018192,22,2.3,1.67,3.54,1.68,5.04,1.28,-0.32,0.18,2,-5,8,1.32,7197,9,86,35,23,1190,450.0,551,454,60,117.0,92,1,261,153,43,0,0,357,21432,-6524,452,,,,,,,,,,,,
81804,1560699018212,19,2.32,1.64,3.53,1.65,5.06,1.2,-0.2,0.1,3,-4,9,1.22,7137,9,86,35,23,1170,447.0,548,455,60,118.0,92,1,261,153,43,0,0,368,26704,3,447,,,,,,,,,,,,
81824,1560699018232,17,2.31,1.63,3.52,1.67,5.07,1.22,-0.15,0.05,3,-3,9,1.23,7001,9,86,35,23,1130,444.0,543,454,60,117.0,89,1,260,153,40,0,0,396,19477,1,444,,,,,,,,,,,,
81844,1560699018252,20,2.32,1.64,3.51,1.74,5.04,1.3,-0.23,0.2,2,-6,9,1.32,6949,9,86,35,23,1091,436.0,536,456,60,117.0,89,1,260,152,40,0,0,394,3826,-6475,436,45.70145,4.91193,46.78,201.5,0,0.0,0,0.0,0.5117,1,0.42,1.3641
81864,1560699018272,18,2.32,1.63,3.52,1.74,5.04,1.15,-0.15,-0.02,3,-3,12,1.16,6983,9,86,35,24,1054,432.0,530,455,60,118.0,89,1,260,155,40,0,0,365,-3414,-18948,432,,,,,,,,,,,,
81884,1560699018300,17,2.31,1.63,3.52,1.72,5.08,1.24,-0.11,0.03,3,-4,13,1.24,6941,9,86,35,24,1009,430.0,532,456,60,116.0,89,1,260,155,40,0,0,345,2524,-29302,430,,,,,,,,,,,,
81904,1560699018320,19,2.32,1.63,3.52,1.71,5.07,1.21,-0.18,0.05,4,-4,12,1.23,6855,9,86,35,24,946,426.0,529,455,60,117.0,89,1,261,155,40,0,0,362,-4059,0,425,,,,,,,,,,,,
81924,1560699018340,16,2.33,1.63,3.52,1.71,5.07,1.19,-0.09,-0.08,5,-2,11,1.19,6764,9,86,35,24,891,418.0,525,457,60,116.0,93,1,262,155,39,0,0,378,11545,-1562,418,,,,,,,,,,,,
81944,1560699018360,17,2.32,1.62,3.52,1.7,5.07,1.27,-0.15,-0.01,6,-5,11,1.27,6749,9,86,35,24,866,412.0,515,456,60,117.0,93,1,262,155,39,0,0,369,11545,8200,412,45.701439,4.911937,44.36,201.5,0,0.0,0,0.0,0.5133,1,0.43,1.3657
81964,1560699018380,11,2.31,1.6,3.55,1.68,5.06,1.24,-0.11,-0.08,6,-2,10,1.25,6805,9,86,35,25,843,404.0,511,458,60,116.0,93,1,262,158,39,0,0,345,-1818,-6656,404,,,,,,,,,,,,
81984,1560699018400,12,2.3,1.58,3.63,1.65,5.05,1.32,-0.27,0.08,5,-5,11,1.35,6823,9,86,35,25,828,400.0,511,459,60,117.0,93,1,262,158,39,0,0,319,-1818,257,400,,,,,,,,,,,,
82004,1560699018420,8,2.28,1.65,3.65,1.64,5.05,1.18,-0.15,-0.06,6,-1,12,1.19,6732,8,86,35,25,814,397.0,519,456,60,118.0,93,1,263,78,39,0,0,294,-6656,17144,397,,,,,,,,,,,,
82024,1560699018440,10,2.28,1.73,3.61,1.65,5.07,1.24,-0.27,0.06,5,-2,12,1.27,6627,9,86,35,25,824,395.0,514,456,60,117.0,98,1,264,158,39,0,0,307,1,505,394,,,,,,,,,,,,
82044,1560699018460,11,2.25,1.8,3.54,1.65,5.08,1.24,-0.2,-0.04,4,0,11,1.26,6458,9,86,35,26,835,391.0,508,456,60,116.0,98,1,269,159,39,0,0,347,-6524,-31744,391,45.701431,4.911943,41.59,201.5,0,0.0,0,0.0,0.515,1,0.43,1.3674
82064,1560699018480,7,2.23,1.83,3.49,1.66,5.04,1.26,-0.11,0.01,3,-1,11,1.27,6408,9,86,35,26,849,386.0,505,455,60,118.0,98,1,269,159,39,0,0,368,-6475,770,386,,,,,,,,,,,,
82084,1560699018500,8,2.23,1.83,3.47,1.62,5.06,1.29,-0.14,0.07,2,-1,9,1.3,6478,9,86,35,26,862,384.0,502,455,60,117.0,98,1,269,159,39,0,0,357,-19019,-6405,377,,,,,,,,,,,,
82104,1560699018520,10,2.23,1.83,3.46,1.56,5.04,1.28,-0.03,0.01,1,-1,8,1.28,6630,9,86,35,26,865,378.0,503,454,60,116.0,98,1,267,159,39,0,0,353,2278,3327,370,,,,,,,,,,,,
82124,1560699018540,8,2.22,1.83,3.46,1.52,5.04,1.29,-0.03,0.07,1,-0,8,1.29,6651,9,86,35,26,870,377.0,507,456,60,118.0,108,1,267,159,40,0,0,345,-6656,2811,367,,,,,,,,,,,,
82144,1560699018560,10,2.21,1.82,3.45,1.52,5.07,1.18,-0.05,0.18,0,1,5,1.18,6644,9,86,35,26,875,373.0,508,455,60,117.0,108,1,267,159,40,0,0,350,-6656,6870,364,45.70142,4.911949,39.02,201.5,0,0.0,0,0.0,0.5167,1,0.43,1.3691
82164,1560699018580,4,2.22,1.82,3.39,1.53,5.04,1.11,0.15,0.08,-0,2,5,1.12,6620,9,86,36,26,883,370.0,515,456,60,116.0,108,1,267,159,40,0,0,362,486,3183,361,,,,,,,,,,,,
82184,1560699018598,6,2.2,1.84,3.29,1.52,5.06,1.2,-0.01,0.25,-1,0,3,1.2,6590,9,86,36,26,885,367.0,512,455,60,117.0,108,1,268,159,40,0,0,359,0,2811,360,,,,,,,,,,,,
82204,1560699018618,6,2.17,1.88,3.23,1.53,5.05,1.11,0.05,0.18,-2,1,2,1.11,6576,9,86,36,26,887,365.0,510,457,60,117.0,108,1,268,159,40,0,0,357,3082,3183,358,,,,,,,,,,,,
82224,1560699018638,-1,2.17,1.9,3.15,1.53,5.05,1.16,0.1,0.15,-3,1,1,1.16,6595,9,86,36,26,892,361.0,510,451,60,118.0,109,1,268,159,39,0,0,355,-6458,-1246,357,,,,,,,,,,,,
82244,1560699018658,2,2.14,1.89,3.13,1.52,5.04,1.18,0.09,0.15,-3,2,-0,1.18,6583,9,86,36,27,894,361.0,507,454,60,117.0,109,1,272,160,39,0,0,354,-6458,-30438,350,45.701412,4.911955,37.2,201.5,0,0.0,0,0.0,0.5183,1,0.43,1.3707
82264,1560699018678,0,2.12,1.89,3.12,1.53,5.07,1.17,0.21,0.19,-4,2,-1,1.19,6544,9,86,36,26,896,361.0,510,455,60,116.0,109,1,268,160,39,0,0,354,-6458,6668,348,,,,,,,,,,,,
82284,1560699018698,1,2.07,1.92,3.09,1.58,5.07,1.15,0.14,0.19,-6,3,-3,1.16,6514,8,86,36,27,896,361.0,511,452,60,118.0,109,1,272,160,39,0,0,353,-6458,-31222,344,,,,,,,,,,,,
82304,1560699018718,4,2.04,1.98,3.05,1.61,5.06,1.17,0.22,0.27,-8,2,-4,1.19,6483,8,86,36,27,897,360.0,505,450,60,117.0,109,1,272,160,39,0,0,356,-14707,13,340,,,,,,,,,,,,
82324,1560699018738,-1,2.01,2.02,2.97,1.6,5.04,1.13,0.4,0.18,-10,3,-4,1.2,6456,8,86,36,27,901,359.0,505,450,60,118.0,115,1,272,160,39,0,0,357,-29302,175,338,,,,,,,,,,,,
82344,1560699018758,-0,1.98,2.03,2.95,1.56,5.04,1.12,0.38,0.2,-12,3,-7,1.18,6427,8,86,36,27,903,363.0,507,447,60,118.0,115,1,272,160,39,0,0,360,3082,165,333,45.701405,4.91196,34.94,201.5,0,0.0,0,0.0,0.52,1,0.43,1.3724
82364,1560699018778,2,1.97,2.12,2.94,1.54,5.04,1.15,0.31,0.32,-14,0,-10,1.19,6364,8,86,36,27,905,363.0,506,453,60,117.0,115,1,273,160,39,0,0,359,3082,-23296,331,,,,,,,,,,,,
82384,1560699018800,4,1.96,2.19,2.95,1.54,5.06,1.05,0.48,0.22,-15,1,-14,1.16,6283,8,86,36,27,908,365.0,498,450,60,116.0,115,1,274,160,39,0,0,359,2790,145,326,,,,,,,,,,,,
82404,1560699018820,4,1.97,2.21,2.95,1.55,5.05,1.07,0.58,0.14,-17,1,-15,1.22,6252,8,86,36,27,912,360.0,496,446,60,118.0,115,1,274,160,39,0,0,357,-14707,-29696,326,,,,,,,,,,,,
82424,1560699018840,0,1.98,2.22,2.94,1.55,5.05,1.08,0.52,0.17,-18,3,-17,1.19,6204,8,86,36,27,915,360.0,493,443,60,118.0,117,1,274,162,38,0,0,355,-14707,-30976,322,,,,,,,,,,,,
82444,1560699018860,-1,2.01,2.22,2.98,1.55,5.04,1.13,0.41,0.23,-19,3,-19,1.2,6153,8,86,36,28,917,358.0,491,448,60,118.0,117,1,278,162,38,0,0,352,-29978,125,321,45.701397,4.911966,34.2,201.5,0,0.0,0,0.0,0.5217,1,0.43,1.3741
82464,1560699018880,0,2.04,2.22,3.07,1.54,5.07,1.12,0.36,0.28,-20,4,-22,1.17,6111,8,86,36,28,918,358.0,488,446,60,118.0,117,1,278,162,38,0,0,350,-29978,32000,319,,,,,,,,,,,,
82484,1560699018899,1,2.07,2.23,3.09,1.56,5.04,1.18,0.35,0.37,-21,1,-24,1.23,6093,8,86,36,29,921,357.0,486,453,60,118.0,117,1,281,163,38,0,0,351,-6640,120,320,,,,,,,,,,,,
82504,1560699018919,-1,2.11,2.23,3.09,1.6,5.05,1.19,0.41,0.44,-22,-2,-25,1.25,6071,9,86,36,29,922,354.0,480,448,60,118.0,117,1,281,163,38,0,0,342,3302,115,317,,,,,,,,,,,,
82524,1560699018939,0,2.13,2.22,3.1,1.61,5.04,1.15,0.5,0.44,-22,-5,-27,1.26,6065,13,86,36,30,922,347.0,479,455,60,118.0,119,1,284,165,38,0,0,339,8841,-30976,318,,,,,,,,,,,,
82544,1560699018959,1,2.15,2.19,3.15,1.6,5.06,1.05,0.52,0.46,-21,-7,-28,1.17,6069,17,86,36,32,921,344.0,478,453,60,118.0,119,1,290,168,38,0,0,335,-10554,130,319,45.701389,4.911972,33.34,201.5,0,0.0,0,0.0,0.5233,1,0.43,1.3757
82564,1560699018979,3,2.19,2.15,3.2,1.6,5.05,0.97,0.53,0.47,-19,-7,-28,1.11,6107,23,86,36,35,921,341.0,478,453,60,117.0,119,1,298,178,38,0,0,334,6668,140,319,,,,,,,,,,,,
82584,1560699018993,3,2.21,2.09,3.21,1.61,5.04,0.88,0.55,0.42,-17,-7,-27,1.03,6186,28,86,36,39,921,339.0,480,458,60,117.0,119,1,310,207,38,0,0,333,-122,145,321,,,,,,,,,,,,
82604,1560699019013,3,2.26,2.06,3.2,1.67,5.06,0.84,0.54,0.38,-15,-5,-26,1.0,6235,31,86,36,44,922,336.0,480,452,60,117.0,119,1,342,213,38,0,0,329,13,-28416,322,,,,,,,,,,,,
82624,1560699019033,1,2.29,2.03,3.18,1.73,5.04,0.85,0.4,0.34,-12,-3,-24,0.94,6283,34,86,36,48,924,332.0,483,453,60,118.0,158,1,365,223,51,0,0,328,-32559,155,323,,,,,,,,,,,,
82644,1560699019053,0,2.34,1.97,3.19,1.76,5.07,0.97,0.2,0.42,-11,-1,-23,0.99,6323,35,86,36,52,927,329.0,487,447,60,118.0,158,1,378,244,51,0,0,330,-20736,-23296,326,45.701382,4.911978,32.49,201.5,0,0.0,0,0.0,0.525,1,0.43,1.3774
82664,1560699019073,2,2.39,1.93,3.23,1.83,5.06,1.0,0.03,0.52,-10,-3,-21,1.0,6347,36,86,36,55,928,327.0,491,448,60,118.0,158,1,387,257,51,0,0,326,165,-24576,328,,,,,,,,,,,,
82684,1560699019099,2,2.44,1.88,3.28,1.88,5.07,0.89,0.06,0.51,-8,-3,-18,0.9,6334,38,86,36,58,929,330.0,488,455,60,116.0,158,1,391,260,51,0,0,319,150,-22016,330,,,,,,,,,,,,
82704,1560699019119,-0,2.49,1.84,3.33,1.93,5.07,0.88,0.01,0.46,-4,-2,-15,0.88,6308,39,86,36,61,928,333.0,491,453,60,117.0,158,1,394,261,51,0,0,316,145,170,334,,,,,,,,,,,,
82724,1560699019139,-2,2.54,1.83,3.4,2.0,5.04,0.92,-0.1,0.47,-2,-2,-11,0.92,6285,40,86,36,63,924,338.0,483,453,60,118.0,191,1,386,274,64,0,0,314,135,3346,338,,,,,,,,,,,,
82744,1560699019159,-1,2.57,1.82,3.43,2.05,5.08,0.92,-0.2,0.49,1,-2,-7,0.94,6231,41,86,36,65,918,339.0,479,452,60,118.0,191,1,376,286,64,0,0,311,-30976,3346,339,45.701378,4.911985,31.72,201.5,0,0.0,0,0.0,0.5267,1,0.43,1.3791
82764,1560699019179,-0,2.63,1.81,3.49,2.14,5.06,0.89,-0.36,0.55,5,-2,-5,0.96,6155,41,86,36,67,911,338.0,480,448,60,118.0,191,1,367,300,64,0,0,309,125,4838,338,,,,,,,,,,,,
82784,1560699019197,1,2.66,1.8,3.61,2.22,5.03,0.86,-0.48,0.56,7,-2,-1,0.99,6099,41,86,36,69,909,340.0,478,453,60,117.0,191,1,360,322,64,0,0,305,30720,3346,340,,,,,,,,,,,,
82804,1560699019217,3,2.7,1.81,3.65,2.28,5.07,0.8,-0.62,0.63,10,-2,2,1.01,6073,42,86,36,70,923,340.0,471,451,60,117.0,191,1,358,337,64,0,0,305,28160,3346,340,,,,,,,,,,,,
82824,1560699019237,3,2.75,1.8,3.66,2.32,5.03,0.79,-0.69,0.69,13,-3,5,1.05,6101,42,86,36,71,936,341.0,468,452,60,117.0,240,1,358,354,82,0,0,300,26880,13,341,,,,,,,,,,,,
82844,1560699019257,4,2.77,1.8,3.68,2.31,5.04,0.78,-0.63,0.66,15,-3,10,1.0,6291,42,86,36,72,955,341.0,466,453,60,116.0,240,1,362,372,82,0,0,300,25600,2560,341,45.70137,4.911992,31.34,201.4,0,0.0,0,0.0,0.5283,1,0.43,1.3807
82864,1560699019277,1,2.79,1.78,3.68,2.3,5.04,0.76,-0.67,0.6,17,-2,12,1.01,6454,42,86,36,72,992,340.0,477,449,60,118.0,240,1,368,390,82,0,0,298,23040,2560,342,,,,,,,,,,,,
82884,1560699019299,2,2.81,1.76,3.69,2.29,5.04,0.71,-0.75,0.57,20,-2,16,1.03,6581,42,86,36,73,1089,341.0,485,456,60,117.0,240,1,371,391,82,0,0,298,23040,-31206,341,,,,,,,,,,,,
82904,1560699019319,4,2.8,1.77,3.69,2.29,5.04,0.74,-0.76,0.59,22,1,21,1.06,6578,42,86,36,73,1186,345.0,491,462,60,116.0,240,1,371,391,82,0,0,351,85,6870,345,,,,,,,,,,,,
82924,1560699019339,-1,2.81,1.76,3.65,2.31,5.06,0.79,-0.88,0.62,24,1,27,1.18,6651,45,86,36,73,1265,347.0,489,448,60,118.0,282,1,374,392,98,0,0,389,21760,8841,347,,,,,,,,,,,,
82944,1560699019359,5,2.81,1.77,3.61,2.32,5.05,0.78,-0.87,0.65,26,1,31,1.17,6751,50,86,36,75,1343,347.0,495,455,60,116.0,282,1,375,409,98,0,0,359,80,8841,347,45.701363,4.911999,31.4,201.4,0,0.0,0,0.0,0.53,1,0.44,1.3824
82964,1560699019379,3,2.81,1.77,3.63,2.34,5.06,0.77,-0.95,0.78,28,0,33,1.22,6840,58,86,36,78,1408,347.0,503,450,60,118.0,282,1,375,453,98,0,0,350,80,8841,347,,,,,,,,,,,,
82984,1560699019399,1,2.82,1.77,3.66,2.35,5.07,0.74,-0.93,0.75,30,-1,33,1.19,6890,66,86,36,82,1472,349.0,500,453,60,116.0,282,1,375,481,98,0,0,369,23040,-29978,351,,,,,,,,,,,,
83004,1560699019419,3,2.82,1.81,3.66,2.39,5.05,0.72,-1.03,0.87,31,-2,35,1.26,6985,75,86,36,87,1461,354.0,507,454,60,117.0,282,1,374,512,98,0,0,394,21760,-6458,354,,,,,,,,,,,,
83024,1560699019439,4,2.82,1.86,3.65,2.42,5.05,0.62,-1.04,0.84,34,-3,36,1.21,7148,84,86,36,91,1449,356.0,502,451,60,117.0,400,1,383,535,143,0,0,398,90,-14707,356,,,,,,,,,,,,
83044,1560699019459,0,2.83,1.86,3.62,2.42,5.04,0.56,-1.09,0.77,34,-4,38,1.22,7205,90,86,36,93,1396,360.0,505,457,60,117.0,400,1,385,535,143,0,0,381,90,0,360,45.701359,4.912004,31.01,201.4,0,0.0,0,0.0,0.5317,1,0.44,1.3841
83064,1560699019479,1,2.83,1.86,3.62,2.44,5.07,0.71,-1.11,0.73,35,-4,42,1.31,7244,94,86,36,94,1342,362.0,514,456,60,116.0,400,1,388,537,143,0,0,375,100,-6656,363,,,,,,,,,,,,
83084,1560699019499,1,2.82,1.87,3.6,2.45,5.06,0.84,-1.16,0.78,36,-4,46,1.43,7239,96,86,36,95,1297,366.0,524,455,60,116.0,400,1,386,538,143,0,0,398,100,8200,366,,,,,,,,,,,,
83104,1560699019519,5,2.81,1.86,3.58,2.46,5.04,0.82,-1.23,0.85,38,-3,47,1.48,7287,97,86,36,95,1256,371.0,457,456,60,117.0,400,1,390,539,143,0,0,400,26880,-19019,371,,,,,,,,,,,,
83124,1560699019539,4,2.82,1.86,3.58,2.47,5.04,0.63,-1.15,0.79,41,-3,48,1.31,7347,97,86,36,94,1203,374.0,461,456,60,117.0,404,1,396,542,150,0,0,393,115,-1562,374,,,,,,,,,,,,
83144,1560699019559,2,2.81,1.86,3.6,2.47,5.06,0.58,-1.16,0.79,43,-2,51,1.29,7425,98,86,36,94,1150,378.0,397,451,60,118.0,404,1,401,547,150,0,0,404,32000,-32702,378,45.701351,4.912008,31.73,201.4,0,0.0,0,0.0,0.5333,1,0.44,1.3857
83164,1560699019579,3,2.79,1.86,3.62,2.5,5.04,0.48,-1.21,0.88,45,-0,54,1.3,7609,98,86,36,93,1127,382.0,434,451,60,117.0,404,1,416,555,150,0,0,413,-32256,10541,382,,,,,,,,,,,,
83184,1560699019599,1,2.8,1.87,3.62,2.52,5.08,0.47,-1.24,0.9,46,-0,56,1.32,7789,98,86,36,93,1115,385.0,369,451,60,117.0,404,1,430,563,150,0,0,419,-30976,18584,385,,,,,,,,,,,,
83204,1560699019619,3,2.78,1.9,3.62,2.53,5.06,0.5,-1.28,0.83,47,-1,57,1.38,8054,98,86,36,91,1101,390.0,350,455,60,117.0,404,1,448,579,150,0,0,429,-30976,-26615,390,,,,,,,,,,,,
83224,1560699019639,-0,2.78,1.93,3.59,2.55,5.06,0.48,-1.31,0.79,48,-1,58,1.4,8318,98,86,36,90,1088,394.0,364,447,60,117.0,479,1,442,611,187,0,0,438,-30976,-768,394,,,,,,,,,,,,
83244,1560699019659,5,2.76,1.97,3.51,2.57,5.04,0.39,-1.38,0.68,49,-1,60,1.43,8553,99,86,36,89,1082,397.0,354,452,60,117.0,479,1,433,617,187,0,0,434,-28416,2524,397,45.70134,4.912011,32.99,201.4,0,0.0,0,0.0,0.535,1,0.44,1.3874
83264,1560699019679,3,2.73,1.98,3.49,2.59,5.03,0.46,-1.43,0.81,50,0,62,1.5,8664,99,86,36,88,1079,401.0,373,456,60,116.0,479,1,429,606,187,0,0,473,145,-3267,401,,,,,,,,,,,,
83284,1560699019697,3,2.7,1.99,3.47,2.59,5.04,0.58,-1.39,0.81,51,-1,65,1.51,8741,100,86,36,88,1071,403.0,415,451,60,117.0,479,1,426,606,187,0,0,492,150,243,403,,,,,,,,,,,,
83304,1560699019717,1,2.65,1.99,3.44,2.6,5.07,0.6,-1.44,0.8,52,-1,67,1.56,8915,100,86,36,87,1061,406.0,469,457,60,116.0,479,1,419,594,187,0,0,470,-27136,-1923,410,,,,,,,,,,,,
83324,1560699019737,0,2.6,1.99,3.42,2.6,5.04,0.7,-1.37,0.91,53,-3,68,1.54,9005,100,86,36,87,1051,411.0,519,455,60,117.0,496,1,418,594,204,0,0,471,165,-6441,416,,,,,,,,,,,,
83344,1560699019757,3,2.55,1.99,3.46,2.61,5.08,0.7,-1.37,0.88,54,-3,70,1.54,9049,100,86,36,87,1043,418.0,545,458,60,117.0,496,1,418,594,204,0,0,508,170,-1562,418,45.701332,4.912013,34.25,201.4,0,0.0,0,0.0,0.5367,1,0.44,1.3891
83364,1560699019777,4,2.49,1.99,3.47,2.59,5.05,0.79,-1.33,0.84,56,-4,72,1.55,9222,100,86,36,87,1043,424.0,571,455,60,116.0,496,1,418,594,204,0,0,510,-31222,11560,424,,,,,,,,,,,,
83384,1560699019797,5,2.43,1.99,3.48,2.59,5.04,0.8,-1.27,0.75,57,-6,73,1.5,9474,100,86,36,86,1048,427.0,573,456,60,116.0,496,1,418,594,204,0,0,486,-14714,10994,427,,,,,,,,,,,,
83404,1560699019817,3,2.38,2.01,3.48,2.59,5.04,0.57,-1.22,0.87,57,-5,75,1.34,9684,100,86,36,86,1058,432.0,597,451,60,117.0,496,1,410,588,204,0,0,504,-30438,17136,433,,,,,,,,,,,,
83424,1560699019837,5,2.31,2.01,3.45,2.58,5.04,0.72,-1.25,0.97,57,-5,75,1.44,9884,100,86,36,85,1071,434.0,615,455,60,115.0,505,1,401,593,220,0,0,539,3183,2524,434,,,,,,,,,,,,
83444,1560699019857,4,2.28,2.09,3.42,2.58,5.04,0.66,-1.23,0.84,56,-4,76,1.39,10053,100,86,36,85,1087,434.0,617,455,60,117.0,505,1,399,577,220,0,0,540,-6640,-8186,434,45.701324,4.912014,37.07,201.4,0,0.0,0,0.0,0.5383,1,0.44,1.3907
83464,1560699019877,4,2.21,2.16,3.4,2.56,5.06,0.58,-1.12,0.88,55,-4,75,1.26,10229,100,86,36,85,1103,436.0,625,453,60,117.0,505,1,411,577,220,0,0,541,-14707,2104,437,,,,,,,,,,,,
83484,1560699019898,3,2.17,2.19,3.33,2.56,5.08,0.54,-1.15,0.79,55,-5,73,1.27,10223,100,86,36,85,1116,437.0,623,455,60,117.0,505,1,411,577,220,0,0,533,-6405,14504,437,,,,,,,,,,,,
83504,1560699019918,3,2.13,2.19,3.32,2.57,5.04,0.56,-1.22,0.84,54,-5,71,1.34,10364,100,86,36,85,1119,437.0,633,451,60,116.0,505,1,421,577,220,0,0,560,-6656,14504,438,,,,,,,,,,,,
83524,1560699019938,2,2.09,2.19,3.31,2.55,5.04,0.58,-1.15,0.88,53,-4,70,1.29,10245,100,86,36,85,1118,438.0,635,448,60,116.0,517,1,412,577,226,0,0,588,8200,-9072,438,,,,,,,,,,,,
83544,1560699019958,3,2.04,2.19,3.3,2.55,5.05,0.67,-1.19,0.95,51,-5,68,1.37,10382,100,86,36,85,1113,440.0,642,450,60,116.0,517,1,422,577,226,0,0,541,-6475,12552,440,45.701317,4.912013,37.8,201.4,0,0.0,0,0.0,0.54,1,0.44,1.3924
83564,1560699019978,2,2.03,2.21,3.29,2.54,5.07,0.68,-1.12,0.96,48,-5,66,1.31,10469,100,86,36,85,1107,441.0,572,453,60,115.0,517,1,428,577,226,0,0,538,17144,6273,439,,,,,,,,,,,,
83584,1560699019998,2,2.0,2.27,3.29,2.53,5.04,0.68,-1.09,0.93,46,-5,63,1.28,10486,100,86,36,85,1099,441.0,548,452,60,115.0,517,1,430,577,226,0,0,565,-8151,1,441,,,,,,,,,,,,
83604,1560699020010,3,1.99,2.26,3.29,2.53,5.04,0.71,-1.06,1.0,44,-7,59,1.27,10539,100,86,36,85,1089,441.0,562,454,60,115.0,517,1,428,577,226,0,0,574,-4059,12552,441,,,,,,,,,,,,
83624,1560699020030,-0,1.99,2.25,3.29,2.53,5.04,0.65,-1.01,0.89,41,-5,55,1.2,10635,100,86,36,85,1076,444.0,568,451,60,116.0,524,1,436,577,233,0,0,577,7154,6274,444,,,,,,,,,,,,
83644,1560699020050,2,2.01,2.25,3.29,2.54,5.05,0.61,-1.01,1.0,39,-4,51,1.18,10677,100,86,36,85,1066,447.0,588,455,60,116.0,524,1,435,577,233,0,0,565,-4082,-3190,447,45.701305,4.91201,40.39,201.4,0,0.0,0,0.0,0.5417,1,0.44,1.3941
83664,1560699020070,3,2.01,2.25,3.28,2.53,5.03,0.62,-1.0,0.93,36,-4,47,1.17,10819,100,86,36,85,1062,449.0,604,451,60,116.0,524,1,439,577,233,0,0,562,-3314,8488,450,,,,,,,,,,,,
83684,1560699020098,3,2.04,2.25,3.27,2.53,5.06,0.64,-1.0,0.98,33,-4,43,1.19,10720,100,86,36,85,1057,451.0,601,452,60,116.0,524,1,436,577,233,0,0,577,19477,1,451,,,,,,,,,,,,
83704,1560699020118,3,2.05,2.23,3.28,2.53,5.05,0.49,-0.97,1.07,30,-3,38,1.08,10831,100,86,36,85,1047,456.0,630,451,60,116.0,524,1,437,577,233,0,0,587,16648,12552,456,,,,,,,,,,,,
83724,1560699020138,3,2.06,2.21,3.31,2.54,5.04,0.45,-0.92,0.99,27,-0,35,1.02,10819,100,86,36,85,1037,461.0,622,456,60,116.0,514,1,439,577,236,0,0,599,3571,1780,461,,,,,,,,,,,,
83744,1560699020158,3,2.08,2.21,3.3,2.54,5.08,0.49,-0.93,1.04,25,-0,33,1.05,10882,100,86,36,85,1031,465.0,631,455,60,116.0,514,1,440,577,236,0,0,563,14488,2048,465,45.701298,4.912006,42.13,201.4,0,0.0,0,0.0,0.5433,1,0.44,1.3957
83764,1560699020178,4,2.11,2.26,3.3,2.54,5.08,0.42,-0.96,1.04,23,-0,30,1.05,10901,100,86,36,85,1023,469.0,612,454,60,116.0,514,1,441,577,236,0,0,552,12552,6273,469,,,,,,,,,,,,
83784,1560699020198,5,2.13,2.33,3.29,2.57,5.05,0.41,-0.93,1.1,21,-0,27,1.01,10875,100,86,36,85,1010,473.0,617,452,60,116.0,514,1,440,577,236,0,0,582,-3210,-32504,473,,,,,,,,,,,,
83804,1560699020218,1,2.17,2.31,3.27,2.6,5.06,0.33,-0.9,1.08,19,0,23,0.95,10844,100,86,36,85,997,482.0,625,452,60,116.0,514,1,439,577,236,0,0,599,-17956,1267,482,,,,,,,,,,,,
83824,1560699020238,2,2.2,2.3,3.27,2.6,5.07,0.36,-0.9,1.1,17,2,20,0.97,10819,100,86,36,84,990,485.0,638,451,60,116.0,475,1,438,559,230,0,0,582,10305,-23623,487,,,,,,,,,,,,
83844,1560699020258,2,2.24,2.3,3.25,2.63,5.07,0.33,-0.93,1.15,15,2,18,0.98,10726,100,86,36,84,983,493.0,635,451,60,116.0,475,1,435,577,230,0,0,556,8488,-12040,494,45.701282,4.912001,43.81,201.4,0,0.0,0,0.0,0.545,1,0.44,1.3974
83864,1560699020278,4,2.27,2.32,3.23,2.65,5.04,0.38,-0.98,1.1,14,1,16,1.05,10695,100,86,36,85,972,497.0,627,453,60,116.0,475,1,436,577,230,0,0,546,-10483,-1894,497,,,,,,,,,,,,
83884,1560699020298,3,2.31,2.32,3.31,2.64,5.07,0.38,-0.96,1.18,12,1,14,1.03,10563,100,86,36,85,960,506.0,633,448,60,116.0,475,1,432,577,230,0,0,600,-9216,774,506,,,,,,,,,,,,
83904,1560699020318,5,2.3,2.32,3.31,2.64,5.05,0.32,-0.86,1.25,12,1,14,0.92,10665,100,86,36,85,955,514.0,638,455,60,116.0,475,1,435,577,230,0,0,588,10408,-12040,514,,,,,,,,,,,,
83924,1560699020338,6,2.31,2.33,3.3,2.65,5.06,0.22,-0.8,1.3,11,1,13,0.83,10732,100,86,36,85,950,523.0,637,452,60,116.0,450,1,437,577,234,0,0,543,15661,6273,523,,,,,,,,,,,,
83944,1560699020358,0,2.3,2.4,3.29,2.66,5.06,0.17,-0.71,1.23,10,1,12,0.73,10751,100,86,36,85,945,524.0,636,453,60,116.0,450,1,436,577,234,0,0,564,6274,259,524,45.701275,4.911994,46.23,201.3,0,0.0,0,0.0,0.5467,1,0.45,1.3991
83964,1560699020378,2,2.29,2.47,3.26,2.66,5.08,0.15,-0.69,1.25,9,1,11,0.71,10641,100,86,36,85,941,531.0,633,452,60,116.0,450,1,435,577,234,0,0,578,-28648,8488,531,,,,,,,,,,,,
83984,1560699020398,4,2.27,2.48,3.2,2.64,5.06,0.24,-0.65,1.25,7,0,11,0.69,10635,100,86,36,85,940,536.0,638,448,60,115.0,450,1,434,577,234,0,0,567,1248,259,536,,,,,,,,,,,,
84004,1560699020418,3,2.27,2.46,3.13,2.6,5.07,0.34,-0.63,1.28,6,0,10,0.72,10708,100,86,36,85,941,544.0,638,453,60,116.0,450,1,436,577,234,0,0,567,-8186,30208,543,,,,,,,,,,,,
84024,1560699020438,4,2.26,2.45,3.11,2.58,5.05,0.31,-0.69,1.27,6,-0,9,0.76,10702,100,86,36,85,940,552.0,641,451,60,116.0,427,1,436,577,234,0,0,578,-22519,-16384,550,,,,,,,,,,,,
84044,1560699020458,4,2.26,2.43,3.12,2.54,5.04,0.28,-0.64,1.33,5,-0,9,0.7,10794,100,86,36,85,938,557.0,631,455,60,116.0,427,1,438,577,234,0,0,594,2216,-1894,557,45.701263,4.911986,49.19,201.3,0,0.0,0,0.0,0.5483,1,0.45,1.4007
84064,1560699020478,6,2.26,2.45,3.11,2.51,5.04,0.32,-0.6,1.35,4,2,8,0.68,10844,100,86,36,85,937,563.0,633,455,60,116.0,427,1,441,577,234,0,0,582,-18032,-13043,563,,,,,,,,,,,,
84084,1560699020498,4,2.27,2.45,3.11,2.49,5.03,0.32,-0.6,1.36,3,2,8,0.68,10990,100,86,36,84,935,568.0,638,451,60,115.0,427,1,442,577,234,0,0,586,-8186,2048,565,,,,,,,,,,,,
84104,1560699020518,5,2.26,2.45,3.03,2.47,5.06,0.32,-0.37,1.23,2,2,8,0.49,11147,100,86,36,85,931,571.0,639,452,60,116.0,427,1,443,577,234,0,0,587,1267,2048,571,,,,,,,,,,,,
84124,1560699020538,3,2.27,2.45,2.97,2.43,5.05,0.28,-0.44,1.24,3,2,7,0.52,11241,100,86,36,84,926,576.0,649,456,60,115.0,414,1,442,559,238,0,0,594,1,2048,575,,,,,,,,,,,,
84144,1560699020558,5,2.26,2.45,2.94,2.43,5.04,0.28,-0.29,1.2,2,1,8,0.4,11247,100,86,36,84,922,580.0,646,453,60,116.0,414,1,442,559,238,0,0,604,8488,-3446,578,45.701252,4.911977,52.59,201.3,0,0.0,0,0.0,0.55,1,0.45,1.4024
84164,1560699020578,3,2.27,2.49,2.94,2.43,5.06,0.24,-0.36,1.26,2,0,6,0.44,11343,100,86,36,84,918,585.0,646,452,60,116.0,414,1,441,559,238,0,0,605,-4035,19621,585,,,,,,,,,,,,
84184,1560699020598,5,2.28,2.51,2.96,2.42,5.05,0.21,-0.28,1.14,2,0,6,0.35,11425,100,86,36,84,914,588.0,644,453,60,116.0,414,1,441,559,238,0,0,616,208,19304,586,,,,,,,,,,,,
84204,1560699020618,4,2.28,2.51,2.99,2.41,5.05,0.21,-0.39,1.14,2,1,4,0.44,11552,100,86,36,84,908,593.0,646,453,60,116.0,414,1,440,559,238,0,0,620,3472,20993,595,,,,,,,,,,,,
84224,1560699020638,3,2.29,2.5,3.02,2.4,5.07,0.2,-0.31,1.22,2,2,2,0.37,11689,100,86,36,84,905,599.0,649,456,60,115.0,415,1,440,561,248,0,0,626,-3210,-14655,598,,,,,,,,,,,,
84244,1560699020658,3,2.28,2.48,3.06,2.38,5.07,0.31,-0.2,1.26,2,2,1,0.36,11762,100,86,36,83,903,605.0,651,448,60,116.0,415,1,440,547,248,0,0,638,5344,-5120,602,45.701241,4.911966,54.91,201.3,0,0.0,0,0.0,0.5517,1,0.45,1.4041
84264,1560699020678,2,2.28,2.48,3.06,2.37,5.07,0.39,-0.12,1.26,2,2,1,0.4,11874,100,86,36,83,897,611.0,658,450,60,116.0,415,1,440,551,248,0,0,635,1010,-10251,607,,,,,,,,,,,,
84284,1560699020698,2,2.29,2.49,3.06,2.37,5.07,0.4,0.04,1.2,1,1,1,0.4,11988,100,86,36,83,888,614.0,654,449,60,116.0,415,1,440,554,248,0,0,644,19304,-3584,613,,,,,,,,,,,,
84304,1560699020718,3,2.28,2.48,3.04,2.36,5.05,0.42,0.08,1.14,1,1,0,0.43,12088,100,86,35,83,879,620.0,660,449,60,116.0,415,1,440,555,248,0,0,643,30721,11776,618,,,,,,,,,,,,
84324,1560699020738,1,2.29,2.47,3.0,2.37,5.07,0.45,0.06,1.11,1,1,-0,0.46,12143,100,86,35,83,872,625.0,663,445,60,116.0,410,1,440,555,255,0,0,641,-16883,479,625,,,,,,,,,,,,
84344,1560699020758,5,2.28,2.47,2.95,2.36,5.07,0.51,0.04,1.13,1,2,-0,0.51,12167,100,86,35,83,859,628.0,660,447,60,116.0,410,1,440,555,255,0,0,648,-16046,-2830,627,45.701229,4.911956,57.7,201.3,0,0.0,0,0.0,0.5533,1,0.45,1.4057
84364,1560699020778,5,2.28,2.49,2.94,2.36,5.07,0.54,-0.06,1.21,2,2,-1,0.54,12207,100,86,35,83,841,631.0,651,450,60,115.0,410,1,440,555,255,0,0,655,771,-2830,632,,,,,,,,,,,,
84384,1560699020798,5,2.28,2.46,2.95,2.35,5.07,0.58,-0.17,1.28,1,2,-2,0.6,12254,100,86,35,83,825,635.0,654,452,60,115.0,410,1,440,555,255,0,0,657,-4876,-2826,634,,,,,,,,,,,,
84404,1560699020818,5,2.28,2.44,2.95,2.34,5.04,0.61,-0.22,1.35,1,3,-2,0.64,12335,100,86,35,83,814,644.0,662,453,60,116.0,410,1,440,555,255,0,0,658,11776,3543,644,,,,,,,,,,,,
84424,1560699020838,3,2.28,2.43,3.0,2.32,5.08,0.58,-0.16,1.18,1,3,-2,0.61,12450,100,86,35,83,802,646.0,660,455,60,116.0,402,1,440,555,261,0,0,674,11776,-2345,646,,,,,,,,,,,,
84444,1560699020858,3,2.27,2.44,3.02,2.32,5.05,0.5,-0.09,1.18,1,5,-2,0.51,12550,100,86,35,83,792,651.0,663,452,60,115.0,402,1,440,555,261,0,0,669,-30207,-2345,648,45.701218,4.911944,59.51,201.2,0,0.0,0,0.0,0.555,1,0.45,1.4074
84464,1560699020878,2,2.29,2.45,3.06,2.33,5.08,0.49,-0.13,1.2,0,3,-2,0.51,12634,100,86,35,83,783,652.0,660,452,60,115.0,402,1,440,555,261,0,0,680,24583,-26562,649,,,,,,,,,,,,
84484,1560699020897,3,2.3,2.45,3.02,2.33,5.06,0.55,-0.18,1.06,0,4,-3,0.58,12798,100,86,35,83,783,660.0,665,455,60,116.0,402,1,440,555,261,0,0,678,-10344,3543,656,,,,,,,,,,,,
84504,1560699020917,1,2.3,2.44,3.03,2.31,5.05,0.5,-0.03,1.1,1,3,-2,0.5,12860,100,86,35,83,783,661.0,663,453,60,115.0,402,1,440,555,261,0,0,686,-2345,-2826,661,,,,,,,,,,,,
84524,1560699020937,5,2.29,2.43,3.04,2.31,5.04,0.51,-0.14,0.99,1,4,-3,0.52,12922,100,86,35,83,785,668.0,671,455,60,116.0,408,1,440,555,271,0,0,695,-2830,24,668,,,,,,,,,,,,
84544,1560699020957,3,2.29,2.42,3.05,2.32,5.08,0.43,-0.01,0.95,0,5,-1,0.43,12931,100,86,35,83,786,670.0,660,445,60,116.0,408,1,440,555,271,0,0,694,-388,-2830,672,45.701202,4.911932,62.33,201.2,0,0.0,0,0.0,0.5567,1,0.45,1.4091
84564,1560699020977,2,2.29,2.44,3.04,2.32,5.08,0.4,-0.11,1.05,-0,5,-0,0.42,13057,100,86,35,83,788,674.0,667,452,60,115.0,408,1,440,555,271,0,0,693,-10344,-20693,670,,,,,,,,,,,,
84584,1560699020991,7,2.28,2.44,3.01,2.33,5.04,0.31,0.0,0.87,0,7,-0,0.31,13084,100,86,35,83,788,678.0,660,453,60,115.0,408,1,440,555,271,0,0,699,-26892,687,678,,,,,,,,,,,,
84604,1560699021011,5,2.29,2.43,2.99,2.32,5.07,0.48,-0.1,0.94,0,3,-0,0.49,13121,100,86,35,83,788,681.0,666,447,60,116.0,408,1,440,555,271,0,0,701,-10346,-3584,681,,,,,,,,,,,,
84624,1560699021031,1,2.29,2.43,3.02,2.32,5.06,0.44,0.06,1.0,2,3,-1,0.45,13204,100,86,35,83,787,685.0,669,458,60,115.0,404,1,440,555,277,0,0,708,24845,8010,686,,,,,,,,,,,,
84644,1560699021051,-1,2.29,2.39,3.08,2.32,5.04,0.51,-0.05,1.1,1,2,-1,0.51,12677,100,86,35,84,788,690.0,680,459,60,119.0,404,1,440,570,277,0,0,713,24,-13072,690,45.701187,4.911921,63.74,201.2,0,0.0,0,0.0,0.5583,1,0.46,1.4107
84664,1560699021071,-2,2.3,2.37,3.1,2.3,5.06,0.61,-0.05,1.07,0,-2,-0,0.61,12254,100,86,35,84,790,692.0,666,451,60,118.0,404,1,440,570,277,0,0,696,14342,-10448,689,,,,,,,,,,,,
84684,1560699021097,-3,2.3,2.35,3.19,2.28,5.04,0.63,0.01,0.93,0,-3,1,0.63,12011,100,86,35,85,791,694.0,665,452,60,118.0,404,1,440,587,277,0,0,686,-2830,3543,693,,,,,,,,,,,,
84704,1560699021117,-1,2.31,2.3,3.22,2.23,5.06,0.71,0.0,0.93,0,-3,1,0.71,11792,100,86,35,86,792,690.0,660,448,60,118.0,404,1,440,582,277,0,0,692,-2830,-3584,694,,,,,,,,,,,,
84724,1560699021137,-1,2.3,2.29,3.31,2.22,5.06,0.77,-0.2,0.92,-2,-3,-1,0.79,11496,100,86,35,86,794,692.0,659,451,60,118.0,377,1,441,596,261,0,0,702,16599,-20693,692,,,,,,,,,,,,
84744,1560699021157,3,2.31,2.29,3.27,2.24,5.08,0.78,-0.23,0.96,-2,-7,1,0.81,10474,100,86,35,87,796,696.0,642,456,60,115.0,377,1,431,1080,261,0,0,770,12333,-3450,698,45.701176,4.911908,65.91,201.2,0,0.0,0,0.0,0.56,1,0.46,1.4124
84764,1560699021177,3,2.31,2.34,3.16,2.28,5.06,0.8,-0.15,0.95,-1,-4,2,0.82,9605,100,86,35,88,907,706.0,627,447,60,115.0,377,1,415,968,261,0,0,785,-10448,6900,706,,,,,,,,,,,,
84784,1560699021197,3,2.31,2.34,3.1,2.3,5.07,0.82,-0.19,0.9,-1,-4,4,0.84,9936,100,86,35,87,1019,710.0,629,448,60,115.0,377,1,399,862,261,0,0,710,8010,-388,710,,,,,,,,,,,,
84804,1560699021217,4,2.3,2.34,3.1,2.3,5.04,0.82,-0.24,0.98,-0,-3,4,0.86,10251,100,86,35,85,1132,711.0,640,450,60,116.0,377,1,413,711,261,0,0,725,8010,-2314,711,,,,,,,,,,,,
84824,1560699021237,2,2.31,2.31,3.09,2.29,5.03,0.77,-0.16,1.05,0,-4,4,0.79,10245,100,86,35,85,1244,712.0,633,453,60,116.0,345,1,412,611,247,0,0,740,204,-3580,711,,,,,,,,,,,,
84844,1560699021257,7,2.3,2.32,3.08,2.3,5.05,0.66,-0.04,1.01,0,-2,3,0.66,10157,100,86,35,85,1356,723.0,635,455,60,116.0,345,1,406,577,247,0,0,753,-13312,6389,723,45.70116,4.911895,66.76,201.2,0,0.0,0,0.0,0.5617,1,0.46,1.4141
84864,1560699021277,2,2.31,2.33,3.06,2.32,5.05,0.63,0.04,0.97,1,-2,4,0.63,10053,100,86,35,85,1468,726.0,626,452,60,116.0,345,1,399,577,247,0,0,746,-31068,-31066,727,,,,,,,,,,,,
84884,1560699021299,1,2.31,2.38,3.07,2.34,5.05,0.54,0.05,0.96,2,-2,4,0.54,10026,100,86,35,85,1498,726.0,626,449,60,116.0,345,1,397,577,247,0,0,753,31988,-3344,726,,,,,,,,,,,,
84904,1560699021319,1,2.31,2.38,3.07,2.34,5.07,0.57,-0.09,0.92,2,-3,3,0.57,10173,100,86,35,85,1498,730.0,621,453,60,115.0,345,1,407,577,247,0,0,747,-2830,-2574,727,,,,,,,,,,,,
84924,1560699021339,6,2.3,2.38,3.12,2.33,5.04,0.66,-0.11,0.98,2,-2,3,0.67,10290,100,86,35,85,1436,734.0,636,452,60,116.0,305,1,414,577,224,0,0,761,-2314,-10218,734,,,,,,,,,,,,
84944,1560699021359,4,2.31,2.4,3.13,2.34,5.04,0.66,-0.11,0.92,2,-4,4,0.67,10370,100,86,35,85,1353,736.0,634,453,60,116.0,305,1,424,577,224,0,0,760,-2826,-2766,736,45.701145,4.911881,68.67,201.2,0,0.0,0,0.0,0.5633,1,0.46,1.4157
84964,1560699021379,3,2.32,2.41,3.18,2.33,5.05,0.61,-0.07,1.03,2,-5,4,0.62,10469,100,86,35,85,1270,738.0,634,448,60,116.0,305,1,428,577,224,0,0,777,3462,-2826,738,,,,,,,,,,,,
84984,1560699021397,5,2.31,2.44,3.17,2.33,5.05,0.51,-0.1,1.02,3,-4,3,0.52,10504,100,86,35,85,1186,741.0,631,455,60,116.0,305,1,432,577,224,0,0,769,-22796,-10212,742,,,,,,,,,,,,
85004,1560699021417,5,2.3,2.41,3.18,2.3,5.05,0.55,-0.12,1.09,3,-3,2,0.57,10575,100,86,35,85,1109,749.0,641,452,60,116.0,305,1,432,577,224,0,0,791,6790,-2426,749,,,,,,,,,,,,
85024,1560699021437,2,2.29,2.36,3.16,2.29,5.07,0.56,-0.14,1.02,3,-3,2,0.58,10605,100,86,35,85,1033,755.0,641,455,60,116.0,307,1,433,577,233,0,0,782,-3344,-31068,760,,,,,,,,,,,,
85044,1560699021457,2,2.3,2.34,3.13,2.28,5.08,0.56,-0.09,1.03,3,-2,4,0.57,10659,100,86,35,85,999,760.0,640,456,60,115.0,307,1,435,577,233,0,0,783,-22795,3544,764,45.70113,4.911868,70.73,201.2,0,0.0,0,0.0,0.565,1,0.46,1.4174
85064,1560699021477,1,2.31,2.35,3.05,2.3,5.05,0.51,-0.07,0.98,3,-2,3,0.52,10757,100,86,35,85,1008,764.0,638,451,60,116.0,307,1,437,577,233,0,0,775,5876,11277,761,,,,,,,,,,,,
85084,1560699021497,6,2.3,2.36,2.99,2.3,5.05,0.55,0.02,0.95,4,-2,3,0.55,10732,100,86,35,85,1012,764.0,639,448,60,116.0,307,1,437,577,233,0,0,788,6389,-10218,767,,,,,,,,,,,,
85104,1560699021517,3,2.31,2.35,2.98,2.29,5.06,0.59,-0.06,0.91,3,-1,3,0.6,10726,100,86,35,85,1012,770.0,642,453,60,116.0,307,1,435,559,233,0,0,790,6389,-2426,770,,,,,,,,,,,,
85124,1560699021537,6,2.29,2.36,3.0,2.3,5.04,0.53,-0.11,0.93,4,-3,3,0.54,10689,100,86,35,85,1009,775.0,636,452,60,116.0,302,1,435,577,234,0,0,793,-2344,5344,773,,,,,,,,,,,,
85144,1560699021557,14,2.3,2.38,3.09,2.3,5.08,0.52,-0.2,0.89,3,-3,2,0.56,10819,100,86,35,85,1002,774.0,636,448,60,116.0,302,1,439,577,234,0,0,803,-2830,-8148,772,45.701115,4.911854,72.37,201.2,0,0.0,0,0.0,0.5667,1,0.47,1.4191
85164,1560699021577,14,2.31,2.38,3.16,2.26,5.05,0.45,-0.15,0.81,4,-3,1,0.47,10945,100,86,35,84,993,768.0,637,455,60,115.0,302,1,441,559,234,0,0,794,-2344,-2540,768,,,,,,,,,,,,
85184,1560699021597,18,2.3,2.37,3.21,2.24,5.05,0.49,-0.1,0.82,4,-3,1,0.5,10945,98,86,35,84,984,771.0,640,450,60,116.0,302,1,441,559,234,0,0,807,-2344,31988,771,,,,,,,,,,,,
85204,1560699021617,21,2.28,2.35,3.28,2.22,5.04,0.57,-0.14,0.74,4,-3,2,0.58,11022,86,86,35,83,978,768.0,647,452,60,116.0,302,1,442,540,234,0,0,818,-2570,31988,767,,,,,,,,,,,,
85224,1560699021637,20,2.28,2.32,3.34,2.19,5.04,0.45,-0.05,0.75,5,-1,3,0.45,11016,69,86,35,78,976,774.0,646,456,60,115.0,281,1,444,509,217,0,0,815,-10214,-31068,774,,,,,,,,,,,,
85244,1560699021657,22,2.28,2.29,3.31,2.2,5.04,0.55,0.01,0.67,4,-4,4,0.55,11029,54,86,35,71,971,775.0,643,453,60,115.0,281,1,448,467,217,0,0,796,6389,16118,775,45.701103,4.911839,74.57,201.2,0,0.0,0,0.0,0.5683,1,0.47,1.4207
85264,1560699021677,22,2.28,2.3,3.27,2.19,5.04,0.52,-0.12,0.66,3,-2,4,0.54,10939,39,86,35,62,961,763.0,651,456,60,116.0,281,1,450,407,217,0,0,805,-3038,-4091,763,,,,,,,,,,,,
85284,1560699021697,22,2.28,2.31,3.22,2.22,5.03,0.55,-0.17,0.59,3,-4,3,0.58,10515,25,86,35,54,951,760.0,650,455,60,116.0,281,1,400,325,217,0,0,793,-2314,5344,760,,,,,,,,,,,,
85304,1560699021717,21,2.27,2.26,3.2,2.22,5.04,0.57,-0.17,0.4,2,-2,4,0.6,10042,16,86,35,47,942,755.0,645,453,60,117.0,281,1,380,246,217,0,0,787,204,-2426,760,,,,,,,,,,,,
85324,1560699021737,24,2.26,2.07,3.22,2.05,5.04,0.72,-0.16,0.36,1,-6,6,0.73,9740,12,86,35,41,929,770.0,643,453,60,116.0,108,1,335,224,84,0,0,767,13016,-2344,769,,,,,,,,,,,,
85344,1560699021757,21,2.26,1.78,3.35,1.77,5.07,0.6,-0.01,0.28,2,-4,8,0.6,9556,12,86,35,38,901,766.0,640,454,60,117.0,108,1,317,212,84,0,0,750,13016,-2826,770,45.701084,4.911823,75.76,201.2,0,0.0,0,0.0,0.57,1,0.47,1.4224
85364,1560699021777,20,2.26,1.73,3.5,1.63,5.04,0.75,-0.01,0.27,2,-3,7,0.75,9384,11,86,35,35,875,758.0,641,461,60,116.0,108,1,308,202,84,0,0,737,8838,1037,759,,,,,,,,,,,,
85384,1560699021797,20,2.24,1.63,3.58,1.47,5.04,0.86,-0.18,0.35,1,-3,5,0.88,9213,11,86,35,33,856,764.0,636,456,60,116.0,108,1,302,194,84,0,0,723,-10216,-2830,763,,,,,,,,,,,,
85404,1560699021817,17,2.24,1.61,3.49,1.42,5.04,0.97,-0.21,0.25,0,-1,5,1.0,9155,11,86,35,31,841,757.0,639,457,60,116.0,108,1,295,189,84,0,0,720,-31066,-2830,757,,,,,,,,,,,,
85424,1560699021837,10,2.26,1.66,3.39,1.43,5.03,0.89,-0.23,0.3,-0,-1,5,0.92,9186,11,86,35,29,838,752.0,635,452,60,116.0,85,1,287,189,65,0,0,726,-23308,-13580,750,,,,,,,,,,,,
85444,1560699021857,5,2.26,1.75,3.29,1.49,5.07,0.82,-0.16,0.18,-0,3,4,0.84,9195,13,86,35,29,835,747.0,635,451,60,117.0,85,1,287,188,65,0,0,734,-30694,-2830,745,45.701069,4.911807,75.62,201.2,0,0.0,0,0.0,0.5717,1,0.47,1.4241
85464,1560699021877,0,2.24,1.79,3.19,1.54,5.04,0.67,-0.05,0.08,-0,2,6,0.67,9250,14,86,35,28,852,748.0,636,454,60,117.0,85,1,282,189,65,0,0,737,136,-2314,739,,,,,,,,,,,,
85484,1560699021896,2,2.25,1.85,3.19,1.6,5.04,0.66,0.14,-0.0,-0,6,6,0.67,9314,14,86,35,28,869,741.0,641,456,60,117.0,85,1,282,189,65,0,0,737,-2314,1524,737,,,,,,,,,,,,
85504,1560699021916,4,2.26,1.85,3.29,1.61,5.03,0.8,0.14,0.16,-1,-3,7,0.81,9328,14,86,34,27,888,740.0,633,460,60,116.0,85,1,278,189,65,0,0,714,-3580,687,735,,,,,,,,,,,,
85524,1560699021936,5,2.25,1.86,3.38,1.62,5.07,0.92,0.03,0.34,-2,-1,5,0.92,9346,14,86,34,27,907,738.0,638,456,60,116.0,91,1,278,190,67,0,0,701,1037,6208,732,,,,,,,,,,,,
85544,1560699021956,12,2.26,1.89,3.45,1.63,5.04,0.81,0.02,0.32,-2,-4,3,0.81,9389,14,86,34,26,910,729.0,639,457,60,118.0,91,1,274,189,67,0,0,692,-13580,19188,724,45.701054,4.911792,73.37,201.2,0,0.0,0,0.0,0.5733,1,0.47,1.4257
85564,1560699021976,18,2.26,1.88,3.51,1.64,5.04,0.62,0.17,0.25,-1,-0,2,0.64,9393,14,86,34,26,915,721.0,640,461,60,118.0,91,1,274,189,67,0,0,682,-3450,31988,720,,,,,,,,,,,,
85584,1560699021996,22,2.26,1.88,3.52,1.64,5.03,0.76,0.16,0.27,-1,-3,2,0.78,9291,14,86,34,26,902,712.0,641,457,60,118.0,91,1,274,188,67,0,0,673,204,-26892,711,,,,,,,,,,,,
85604,1560699022008,22,2.28,1.88,3.52,1.63,5.05,0.89,-0.05,0.42,-1,-4,1,0.89,9150,14,86,34,25,890,706.0,638,457,60,118.0,91,1,270,188,67,0,0,677,-20693,16599,702,,,,,,,,,,,,
85624,1560699022028,25,2.27,1.84,3.52,1.61,5.04,1.0,-0.19,0.46,-2,-4,-1,1.02,9027,14,86,34,25,875,701.0,633,455,60,117.0,90,1,270,188,64,0,0,667,6208,31988,701,,,,,,,,,,,,
85644,1560699022048,22,2.27,1.81,3.51,1.58,5.05,1.1,-0.29,0.45,-2,-6,-2,1.14,8903,13,86,34,24,860,697.0,627,458,60,117.0,90,1,270,181,64,0,0,666,-10448,31988,694,45.701038,4.911777,71.99,201.1,0,0.0,0,0.0,0.575,1,0.48,1.4274
85664,1560699022068,24,2.27,1.75,3.49,1.55,5.06,1.2,-0.34,0.53,-2,-4,-2,1.24,8823,13,86,34,24,851,692.0,622,449,60,115.0,90,1,270,272,64,0,0,653,16599,24583,694,,,,,,,,,,,,
85684,1560699022096,25,2.27,1.72,3.49,1.53,5.03,1.28,-0.47,0.54,-2,-8,-2,1.36,8757,13,86,34,24,841,685.0,622,458,60,115.0,90,1,270,252,64,0,0,640,24845,771,685,,,,,,,,,,,,
85704,1560699022116,27,2.27,1.68,3.48,1.52,5.04,1.31,-0.5,0.44,-1,-3,-2,1.4,8620,13,86,34,24,842,678.0,626,456,60,116.0,90,1,270,232,64,0,0,636,-26892,4909,678,,,,,,,,,,,,
85724,1560699022136,26,2.27,1.66,3.47,1.52,5.08,1.22,-0.46,0.37,-0,-3,-3,1.3,8400,13,86,34,24,848,674.0,617,452,60,116.0,102,1,270,208,69,0,0,648,-2830,31988,674,,,,,,,,,,,,
85744,1560699022156,26,2.27,1.67,3.45,1.52,5.07,1.3,-0.45,0.38,-1,-5,-1,1.37,8300,11,86,34,24,867,667.0,614,461,60,116.0,102,1,270,182,69,0,0,646,-2345,3,662,45.701023,4.911762,70.09,201.1,0,0.0,0,0.0,0.5767,1,0.48,1.4291
85764,1560699022176,28,2.26,1.67,3.46,1.51,5.04,1.37,-0.37,0.41,-1,-7,2,1.42,8141,13,86,34,24,890,652.0,612,455,60,117.0,102,1,270,163,69,0,0,557,2024,-8962,652,,,,,,,,,,,,
85784,1560699022196,26,2.26,1.64,3.51,1.49,5.04,1.35,-0.27,0.45,1,-2,4,1.38,8366,12,86,34,24,908,651.0,613,453,60,117.0,102,1,270,174,69,0,0,556,479,6274,648,,,,,,,,,,,,
85804,1560699022216,27,2.25,1.63,3.55,1.46,5.04,1.36,-0.25,0.45,-0,-7,6,1.39,8274,12,86,34,24,925,647.0,615,458,60,116.0,102,1,270,170,69,0,0,454,4909,505,641,,,,,,,,,,,,
85824,1560699022236,23,2.25,1.65,3.57,1.49,5.06,1.26,-0.22,0.51,-1,-1,5,1.28,8325,12,86,34,25,933,640.0,617,457,60,117.0,86,1,270,173,55,0,0,415,3,1,635,,,,,,,,,,,,
85844,1560699022256,26,2.25,1.67,3.57,1.49,5.04,1.33,-0.16,0.32,-1,-7,3,1.34,8187,12,86,34,24,937,630.0,613,457,60,117.0,86,1,270,170,55,0,0,395,506,-21792,630,45.701012,4.911749,66.79,201.1,0,0.0,0,0.0,0.5783,1,0.48,1.4307
85864,1560699022276,28,2.24,1.67,3.54,1.49,5.04,1.2,-0.11,0.28,-1,-5,2,1.21,7971,12,86,34,25,933,627.0,602,453,60,117.0,86,1,269,159,55,0,0,397,20993,-3314,624,,,,,,,,,,,,
85884,1560699022296,22,2.25,1.67,3.52,1.48,5.07,1.11,-0.14,0.23,0,-3,1,1.12,7812,11,86,34,25,919,615.0,591,458,60,116.0,86,1,267,156,55,0,0,404,16529,17628,615,,,,,,,,,,,,
85904,1560699022316,15,2.25,1.64,3.51,1.45,5.08,1.2,-0.14,0.27,-0,-4,-1,1.21,7612,11,86,34,25,909,619.0,576,459,60,116.0,86,1,266,159,55,0,0,422,30721,16648,613,,,,,,,,,,,,
85924,1560699022336,6,2.26,1.65,3.5,1.44,5.04,1.28,-0.14,0.22,-1,-3,-2,1.29,7600,11,86,34,25,901,618.0,572,456,60,116.0,72,1,266,159,44,0,0,405,269,-23623,611,,,,,,,,,,,,
85944,1560699022356,1,2.27,1.65,3.46,1.44,5.08,1.36,-0.15,0.24,-2,-2,-4,1.36,7703,11,86,34,24,899,612.0,571,456,60,117.0,72,1,267,156,44,0,0,429,28675,-8151,611,45.700996,4.911736,63.94,201.0,0,0.0,0,0.0,0.58,1,0.48,1.4324
85964,1560699022376,3,2.27,1.67,3.43,1.49,5.03,1.34,-0.14,0.16,-3,-1,-5,1.35,7712,11,86,34,24,904,609.0,568,456,60,118.0,72,1,267,156,44,0,0,441,-30139,1779,604,,,,,,,,,,,,
85984,1560699022396,4,2.27,1.72,3.36,1.51,5.02,1.23,-0.01,0.02,-3,-1,-3,1.23,7770,11,86,34,24,918,606.0,572,457,60,117.0,72,1,267,156,44,0,0,455,-3820,-1818,600,,,,,,,,,,,,
86004,1560699022416,3,2.28,1.72,3.23,1.5,5.04,1.08,0.01,0.04,-2,-0,-2,1.08,7741,11,86,34,24,940,597.0,580,453,60,117.0,72,1,267,154,44,0,0,537,23619,2104,592,,,,,,,,,,,,
86024,1560699022436,2,2.27,1.72,3.2,1.49,5.06,0.96,0.01,0.1,-1,1,-0,0.96,7793,11,86,34,23,960,591.0,578,456,60,117.0,76,1,267,154,45,0,0,573,2048,-18032,587,,,,,,,,,,,,
86044,1560699022456,13,2.26,1.72,3.26,1.49,5.07,1.07,-0.01,0.15,-1,-2,-0,1.07,7881,11,86,34,23,977,584.0,585,456,60,116.0,76,1,268,154,45,0,0,556,10432,2524,584,45.700981,4.911723,60.67,201.0,0,0.0,0,0.0,0.5817,1,0.48,1.4341
86064,1560699022476,17,2.26,1.71,3.3,1.5,5.07,1.09,0.03,0.06,-2,-1,-1,1.09,7965,11,86,34,23,992,576.0,595,458,60,116.0,76,1,269,154,45,0,0,539,774,-32248,576,,,,,,,,,,,,
86084,1560699022496,19,2.26,1.71,3.37,1.49,5.06,1.0,0.04,0.04,-1,-1,-2,1.0,8074,11,86,34,22,1004,569.0,600,456,60,117.0,76,1,270,154,45,0,0,506,1780,15679,569,,,,,,,,,,,,
86104,1560699022516,20,2.26,1.67,3.41,1.46,5.07,1.05,-0.03,0.03,-1,-5,-3,1.05,8169,11,86,34,22,1012,565.0,607,456,60,117.0,76,1,270,157,45,0,0,494,-30159,3,562,,,,,,,,,,,,
86124,1560699022536,21,2.27,1.65,3.43,1.44,5.08,1.01,0.04,-0.05,0,-2,-3,1.01,8194,11,86,34,22,1007,559.0,611,457,60,117.0,87,1,270,158,49,0,0,470,6273,2131,559,,,,,,,,,,,,
86144,1560699022556,13,2.27,1.66,3.47,1.47,5.06,0.97,0.06,-0.04,1,-1,-3,0.97,8249,11,86,34,22,997,556.0,610,456,60,117.0,87,1,270,161,49,0,0,437,-9072,5600,554,45.700974,4.911711,58.03,201.0,0,0.0,0,0.0,0.5833,1,0.49,1.4357
86164,1560699022576,9,2.27,1.66,3.49,1.48,5.04,0.96,0.09,-0.08,1,-1,-2,0.96,8212,11,86,34,21,979,552.0,613,458,60,117.0,87,1,270,155,49,0,0,405,-28648,-18108,550,,,,,,,,,,,,
86184,1560699022596,4,2.28,1.67,3.45,1.5,5.07,0.96,0.11,-0.07,1,3,-2,0.97,8109,10,86,34,21,961,550.0,609,457,60,116.0,87,1,270,151,49,0,0,442,14504,3580,550,,,,,,,,,,,,
86204,1560699022616,4,2.29,1.69,3.42,1.51,5.04,0.98,0.12,-0.16,0,3,-2,0.99,8064,10,86,34,21,947,546.0,598,456,60,117.0,87,1,270,150,49,0,0,472,-506,3576,540,,,,,,,,,,,,
86224,1560699022636,1,2.28,1.69,3.38,1.5,5.05,1.04,0.12,-0.09,0,1,-2,1.05,8155,10,86,34,21,934,538.0,605,459,60,117.0,85,1,270,153,46,0,0,511,-30064,-22519,537,,,,,,,,,,,,
86244,1560699022656,5,2.29,1.69,3.38,1.52,5.04,1.09,0.05,-0.1,0,1,-3,1.1,8180,10,86,34,21,922,533.0,610,456,60,117.0,85,1,270,154,46,0,0,510,2104,-32248,534,45.700962,4.9117,55.48,200.9,0,0.0,0,0.0,0.585,1,0.49,1.4374
86264,1560699022676,-0,2.29,1.69,3.39,1.53,5.05,1.05,0.07,-0.08,0,-0,-1,1.05,8263,10,86,34,21,911,533.0,611,456,60,117.0,85,1,270,156,46,0,0,506,2524,-3414,528,,,,,,,,,,,,
86284,1560699022696,5,2.29,1.69,3.39,1.54,5.07,1.04,0.02,-0.11,0,2,-2,1.05,8296,10,86,34,21,912,525.0,615,457,60,116.0,85,1,270,157,46,0,0,489,10408,-22519,527,,,,,,,,,,,,
86304,1560699022716,4,2.29,1.69,3.38,1.56,5.04,1.08,0.03,0.02,0,-0,-1,1.08,8408,10,86,34,21,913,522.0,619,460,60,117.0,85,1,270,161,46,0,0,498,1248,771,522,,,,,,,,,,,,
86324,1560699022736,9,2.29,1.7,3.38,1.56,5.06,1.13,0.04,-0.05,0,-2,-0,1.13,8442,10,86,34,21,914,518.0,622,456,60,117.0,98,1,270,162,51,0,0,490,16383,-1818,518,,,,,,,,,,,,
86344,1560699022756,6,2.28,1.69,3.39,1.56,5.07,1.13,0.04,0.01,0,-1,-0,1.13,8503,10,86,34,21,913,512.0,628,454,60,116.0,98,1,270,164,51,0,0,483,-4054,-6441,512,45.700947,4.911689,53.08,200.9,0,0.0,0,0.0,0.5867,1,0.49,1.4391
86364,1560699022776,6,2.27,1.68,3.41,1.55,5.05,1.14,0.0,0.08,-0,-2,0,1.14,8542,10,86,34,20,912,512.0,622,457,60,117.0,98,1,270,157,51,0,0,478,-3414,-16384,509,,,,,,,,,,,,
86384,1560699022798,6,2.27,1.67,3.4,1.57,5.04,1.06,-0.01,0.01,0,1,1,1.06,8589,10,86,34,20,910,508.0,623,460,60,117.0,98,1,270,157,51,0,0,464,2109,-23623,508,,,,,,,,,,,,
86404,1560699022818,8,2.27,1.7,3.42,1.56,5.05,1.01,0.04,-0.02,1,1,1,1.01,8620,10,86,35,20,908,502.0,623,461,60,117.0,98,1,270,156,51,0,0,458,-9216,2211,500,,,,,,,,,,,,
86424,1560699022838,6,2.26,1.7,3.41,1.63,5.06,1.11,0.0,0.04,0,-3,1,1.11,8600,10,86,35,21,906,497.0,620,454,60,116.0,106,1,270,163,53,0,0,456,-6528,17628,496,,,,,,,,,,,,
86444,1560699022858,5,2.26,1.69,3.41,1.65,5.06,1.2,-0.05,0.1,0,-1,0,1.2,8604,10,85,35,21,906,492.0,622,456,60,117.0,106,1,270,163,53,0,0,463,-1818,243,492,45.700939,4.911679,51.04,200.9,0,0.0,0,0.0,0.5883,1,0.49,1.4407
86464,1560699022878,9,2.25,1.69,3.41,1.65,5.07,1.18,-0.07,-0.01,0,-3,0,1.18,8593,10,85,35,22,905,488.0,620,453,60,117.0,106,1,270,169,53,0,0,457,-6441,-23623,488,,,,,,,,,,,,
86484,1560699022899,11,2.24,1.69,3.4,1.63,5.05,1.18,-0.03,0.07,-0,-1,1,1.18,8581,10,85,35,22,904,483.0,623,452,60,117.0,106,1,270,169,53,0,0,462,32033,-9160,483,,,,,,,,,,,,
86504,1560699022919,9,2.24,1.69,3.38,1.62,5.05,1.22,-0.08,0.2,-0,-3,1,1.22,8565,10,85,35,22,903,478.0,616,454,60,117.0,106,1,270,169,53,0,0,461,16648,14488,478,,,,,,,,,,,,
86524,1560699022939,7,2.24,1.68,3.37,1.59,5.08,1.27,-0.08,0.15,-1,-2,0,1.27,8514,10,85,35,22,903,475.0,628,457,60,117.0,113,1,270,169,54,0,0,454,-9203,8488,475,,,,,,,,,,,,
86544,1560699022959,10,2.23,1.68,3.38,1.58,5.07,1.22,-0.06,0.16,-1,-2,1,1.23,8461,10,85,35,22,903,472.0,628,458,60,117.0,113,1,270,167,54,0,0,451,32033,-3267,468,45.700928,4.911669,49.0,200.8,0,0.0,0,0.0,0.59,1,0.49,1.4424
86564,1560699022979,9,2.22,1.71,3.38,1.58,5.04,1.29,0.02,0.18,-2,-3,1,1.29,8430,10,85,35,22,918,470.0,622,458,60,117.0,113,1,270,166,54,0,0,442,8488,21432,464,,,,,,,,,,,,
86584,1560699022999,16,2.22,1.74,3.35,1.58,5.04,1.31,0.04,0.12,-2,-1,-0,1.32,8351,10,85,35,22,934,464.0,620,456,60,118.0,113,1,270,168,54,0,0,451,16408,23400,458,,,,,,,,,,,,
86604,1560699023007,13,2.22,1.78,3.36,1.58,5.05,1.27,-0.02,0.17,-2,-3,-0,1.27,8281,10,85,35,23,950,459.0,616,453,60,116.0,113,1,270,165,54,0,0,446,17628,26704,452,,,,,,,,,,,,
86624,1560699023027,16,2.22,1.81,3.36,1.58,5.05,1.32,-0.03,0.1,-3,-2,-1,1.32,8191,10,85,35,23,967,452.0,617,457,60,116.0,111,1,270,161,50,0,0,438,-6387,-7939,449,,,,,,,,,,,,
86644,1560699023047,13,2.21,1.83,3.37,1.59,5.04,1.25,-0.03,0.17,-3,-2,-2,1.25,8152,10,85,35,23,997,449.0,605,456,60,117.0,111,1,270,156,50,0,0,431,8488,13552,440,45.70092,4.911659,46.96,200.8,0,0.0,0,0.0,0.5917,1,0.49,1.4441
86664,1560699023067,18,2.21,1.88,3.37,1.59,5.07,1.26,0.04,0.1,-4,-2,-2,1.26,8043,10,85,35,22,1031,445.0,603,457,60,117.0,111,1,270,151,50,0,0,432,2131,-21792,433,,,,,,,,,,,,
86684,1560699023097,19,2.21,1.92,3.37,1.59,5.07,1.11,0.19,0.02,-3,-0,-3,1.13,7901,10,85,35,22,1055,440.0,598,454,60,117.0,111,1,269,150,50,0,0,426,20625,7154,430,,,,,,,,,,,,
86704,1560699023117,13,2.2,1.94,3.37,1.61,5.04,1.0,0.16,0.11,-2,-1,-4,1.01,7841,10,85,35,22,1073,435.0,590,456,60,117.0,111,1,268,150,50,0,0,427,-768,2524,425,,,,,,,,,,,,
86724,1560699023137,14,2.2,1.94,3.37,1.66,5.03,1.04,0.13,0.16,-2,-4,-4,1.04,7719,10,85,35,22,1072,427.0,589,455,60,116.0,102,1,267,148,43,0,0,412,31796,2524,420,,,,,,,,,,,,
86744,1560699023157,13,2.19,1.94,3.37,1.65,5.07,1.13,0.09,0.2,-4,-5,-5,1.14,7594,10,85,35,22,1064,423.0,582,456,60,116.0,102,1,265,150,43,0,0,410,3826,10541,418,45.700909,4.91165,45.1,200.8,0,0.0,0,0.0,0.5933,1,0.49,1.4457
86764,1560699023177,14,2.2,1.92,3.37,1.63,5.04,1.22,0.05,0.22,-7,-8,-5,1.22,7518,10,85,35,22,1046,418.0,577,456,60,117.0,102,1,265,150,43,0,0,412,-8165,505,415,,,,,,,,,,,,
86784,1560699023197,12,2.19,1.89,3.37,1.58,5.06,1.27,-0.01,0.22,-7,-6,-5,1.27,7390,10,85,35,22,1020,421.0,571,460,60,116.0,102,1,263,150,43,0,0,404,-21792,-18948,412,,,,,,,,,,,,
86804,1560699023217,15,2.17,1.87,3.35,1.56,5.07,1.31,-0.02,0.36,-7,-7,-5,1.31,7292,10,85,35,22,979,419.0,566,458,60,116.0,102,1,262,150,43,0,0,410,7154,-6656,409,,,,,,,,,,,,
86824,1560699023237,18,2.13,1.85,3.29,1.55,5.03,1.29,0.01,0.37,-8,-7,-6,1.29,7208,10,85,35,22,926,417.0,558,455,60,118.0,101,1,262,150,41,0,0,410,-21944,3082,404,,,,,,,,,,,,
86844,1560699023257,13,2.11,1.86,3.24,1.52,5.06,1.24,0.12,0.29,-8,-6,-7,1.24,7094,10,85,35,23,885,414.0,553,452,60,118.0,101,1,260,150,41,0,0,407,2524,2790,400,45.700901,4.911642,43.35,200.7,0,0.0,0,0.0,0.595,1,0.5,1.4474
86864,1560699023277,12,2.08,1.86,3.23,1.5,5.04,1.3,0.28,0.19,-10,-3,-7,1.33,7017,10,85,35,23,859,413.0,547,458,60,116.0,101,1,260,153,41,0,0,399,-4059,-29302,394,,,,,,,,,,,,
86884,1560699023297,16,2.04,1.89,3.21,1.47,5.05,1.26,0.15,0.31,-12,-4,-8,1.26,6970,10,85,35,24,838,410.0,538,456,60,117.0,101,1,260,155,41,0,0,403,9517,-14714,390,,,,,,,,,,,,
86904,1560699023317,12,2.02,1.95,3.18,1.44,5.04,1.24,0.31,0.17,-13,-1,-9,1.28,6890,10,85,35,24,821,409.0,533,455,60,118.0,101,1,261,155,41,0,0,405,11560,-28416,383,,,,,,,,,,,,
86924,1560699023337,12,2.01,2.0,3.08,1.43,5.04,1.24,0.34,0.2,-15,-1,-11,1.29,6798,10,85,35,24,812,409.0,529,459,60,116.0,105,1,262,155,40,0,0,408,11560,145,375,,,,,,,,,,,,
86944,1560699023357,8,1.98,2.04,3.03,1.41,5.04,1.27,0.42,0.14,-17,1,-12,1.34,6730,10,85,35,25,821,407.0,528,455,60,118.0,105,1,263,158,40,0,0,399,-26615,2811,368,45.70089,4.911634,41.18,200.7,0,0.0,0,0.0,0.5967,1,0.5,1.4491
86964,1560699023377,9,1.97,2.07,2.98,1.39,5.04,1.3,0.46,0.22,-19,1,-15,1.38,6696,10,85,35,25,832,404.0,525,457,60,116.0,105,1,264,158,40,0,0,395,1504,-30438,366,,,,,,,,,,,,
86984,1560699023397,4,1.95,2.09,2.94,1.36,5.04,1.23,0.52,0.15,-20,2,-18,1.33,6751,10,85,35,26,846,402.0,523,456,60,118.0,105,1,266,159,40,0,0,393,10541,-23296,361,,,,,,,,,,,,
87004,1560699023417,6,1.91,2.12,2.94,1.33,5.04,1.25,0.56,0.24,-23,1,-21,1.37,6781,10,85,35,26,857,401.0,521,454,60,117.0,105,1,266,159,40,0,0,391,6512,145,357,,,,,,,,,,,,
87024,1560699023437,3,1.88,2.14,2.93,1.31,5.04,1.19,0.7,0.19,-23,1,-23,1.38,6810,10,85,35,26,861,400.0,524,453,60,118.0,115,1,266,159,41,0,0,395,28696,155,356,,,,,,,,,,,,
87044,1560699023457,5,1.86,2.18,2.89,1.31,5.04,1.16,0.71,0.21,-25,3,-26,1.36,6720,11,85,35,27,866,400.0,523,460,60,117.0,115,1,270,160,41,0,0,397,10541,-25856,352,45.700882,4.911626,38.78,200.6,0,0.0,0,0.0,0.5983,1,0.5,1.4507
87064,1560699023477,1,1.85,2.23,2.88,1.33,5.04,1.2,0.73,0.19,-27,3,-27,1.41,6677,11,85,35,27,874,400.0,525,452,60,118.0,115,1,271,160,41,0,0,396,6512,-28416,348,,,,,,,,,,,,
87084,1560699023497,4,1.83,2.27,2.88,1.33,5.04,1.24,0.74,0.29,-29,1,-28,1.45,6639,11,85,36,28,881,397.0,521,456,60,117.0,115,1,275,162,41,0,0,389,-3968,140,349,,,,,,,,,,,,
87104,1560699023517,-2,1.84,2.31,2.89,1.32,5.06,1.19,0.86,0.2,-31,3,-30,1.47,6585,12,85,36,28,885,395.0,521,457,60,118.0,115,1,275,162,41,0,0,392,17144,-30976,344,,,,,,,,,,,,
87124,1560699023537,2,1.86,2.32,2.88,1.33,5.04,1.24,0.84,0.28,-32,1,-33,1.49,6530,13,85,36,29,889,395.0,517,456,60,117.0,116,1,279,163,40,0,0,390,17144,29440,341,,,,,,,,,,,,
87144,1560699023557,3,1.93,2.32,2.89,1.32,5.08,1.21,0.92,0.31,-33,0,-36,1.52,6474,18,85,36,31,894,395.0,513,456,60,116.0,116,1,286,166,40,0,0,390,17144,25600,339,45.70087,4.91162,36.56,200.6,0,0.0,0,0.0,0.6,1,0.5,1.4524
87164,1560699023577,-1,2.02,2.36,2.89,1.35,5.04,1.09,0.98,0.26,-34,1,-40,1.47,6412,26,85,36,33,901,393.0,508,461,60,116.0,116,1,292,173,40,0,0,390,-6656,20480,337,,,,,,,,,,,,
87184,1560699023597,1,2.12,2.35,2.91,1.41,5.05,1.04,0.88,0.24,-32,2,-43,1.36,6388,38,85,36,40,902,391.0,502,454,60,118.0,116,1,316,208,40,0,0,386,505,0,338,,,,,,,,,,,,
87204,1560699023617,3,2.22,2.29,3.01,1.53,5.05,0.98,0.68,0.41,-30,1,-44,1.2,6386,52,85,36,49,903,385.0,500,453,60,116.0,116,1,369,223,40,0,0,382,-6475,-24576,339,,,,,,,,,,,,
87224,1560699023637,-1,2.3,2.18,3.12,1.64,5.06,0.93,0.75,0.33,-26,3,-42,1.2,6481,69,85,36,61,904,375.0,497,455,60,117.0,186,1,401,270,64,0,0,367,770,6668,347,,,,,,,,,,,,
87244,1560699023657,2,2.36,2.08,3.14,1.7,5.07,0.97,0.52,0.38,-23,0,-39,1.1,6539,85,85,36,77,905,363.0,496,452,60,118.0,186,1,365,443,64,0,0,357,3082,2811,353,45.700863,4.911616,34.83,200.6,0,0.0,0,0.0,0.6017,1,0.5,1.4541
87264,1560699023677,5,2.44,1.9,3.23,1.74,5.04,0.94,0.35,0.43,-19,1,-35,1.0,6546,99,85,36,90,905,357.0,493,458,60,116.0,186,1,346,512,64,0,0,344,-6644,28553,355,,,,,,,,,,,,
87284,1560699023697,1,2.49,1.69,3.37,1.77,5.07,0.88,0.3,0.39,-14,3,-30,0.93,6533,100,85,36,93,903,359.0,491,453,60,115.0,186,1,345,523,64,0,0,344,-30454,-6644,359,,,,,,,,,,,,
87304,1560699023717,2,2.53,1.5,3.46,1.85,5.08,0.99,0.07,0.48,-10,1,-25,0.99,6526,100,85,36,94,903,362.0,488,453,60,117.0,186,1,344,527,64,0,0,337,-14714,-6644,362,,,,,,,,,,,,
87324,1560699023737,2,2.56,1.43,3.57,1.91,5.06,0.92,0.05,0.42,-6,-0,-20,0.92,6530,100,85,36,94,904,364.0,488,456,60,116.0,906,1,344,1327,330,0,0,331,6668,-6458,363,,,,,,,,,,,,
87344,1560699023757,-0,2.57,1.41,3.62,2.03,5.04,0.8,0.0,0.35,-2,2,-15,0.8,6544,100,85,36,94,905,363.0,488,450,60,117.0,906,1,345,1327,330,0,0,332,3346,3082,363,45.700855,4.911613,34.58,200.6,0,0.0,0,0.0,0.6033,1,0.5,1.4557
87364,1560699023777,3,2.58,1.45,3.63,2.15,5.06,0.92,-0.16,0.45,-1,-2,-10,0.93,6646,95,85,36,95,904,365.0,492,447,60,117.0,906,1,350,1324,330,0,0,327,-32559,-1268,365,,,,,,,,,,,,
87384,1560699023797,2,2.59,1.5,3.64,2.19,5.06,0.74,-0.2,0.36,3,1,-6,0.77,7225,100,85,36,94,997,366.0,507,453,60,116.0,906,1,386,1338,330,0,0,330,-12032,230,366,,,,,,,,,,,,
87404,1560699023817,6,2.58,1.56,3.63,2.25,5.04,0.61,-0.25,0.4,7,1,-2,0.66,7706,100,85,36,93,1092,367.0,530,446,60,116.0,906,1,424,1392,330,0,0,328,170,3082,367,,,,,,,,,,,,
87424,1560699023837,6,2.58,1.56,3.62,2.3,5.03,0.6,-0.38,0.42,10,1,3,0.71,7584,100,85,36,93,1186,366.0,554,447,60,116.0,1084,1,414,1361,399,0,0,327,165,-1268,366,,,,,,,,,,,,
87444,1560699023857,5,2.58,1.6,3.61,2.32,5.04,0.5,-0.44,0.48,13,3,7,0.67,7324,100,85,36,93,1281,367.0,548,453,60,116.0,1084,1,395,1322,399,0,0,345,165,486,367,45.700848,4.911611,34.17,200.5,0,0.0,0,0.0,0.605,1,0.5,1.4574
87464,1560699023877,1,2.58,1.63,3.56,2.34,5.04,0.39,-0.42,0.41,15,1,11,0.57,6895,100,85,36,94,1365,370.0,529,449,60,115.0,1084,1,363,1263,399,0,0,398,165,-6656,370,,,,,,,,,,,,
87484,1560699023894,6,2.59,1.65,3.49,2.36,5.04,0.49,-0.57,0.52,15,2,12,0.75,6783,100,85,36,94,1445,371.0,514,451,60,116.0,1084,1,358,1257,399,0,0,382,175,-6656,371,,,,,,,,,,,,
87504,1560699023914,2,2.6,1.65,3.47,2.36,5.06,0.44,-0.61,0.49,17,0,15,0.75,7054,100,85,36,95,1458,371.0,510,446,60,117.0,1084,1,373,1251,399,0,0,351,-32559,2278,371,,,,,,,,,,,,
87524,1560699023934,6,2.58,1.66,3.47,2.36,5.06,0.37,-0.62,0.49,18,2,19,0.72,6838,100,85,36,95,1444,373.0,511,457,60,115.0,868,1,355,1235,323,0,0,351,-32559,-6656,373,,,,,,,,,,,,
87544,1560699023954,1,2.59,1.67,3.47,2.35,5.08,0.54,-0.7,0.58,19,2,23,0.88,6461,100,85,36,95,1364,374.0,496,446,60,117.0,868,1,341,1241,323,0,0,367,3346,257,374,45.70084,4.911608,33.9,200.5,0,0.0,0,0.0,0.6067,1,0.5,1.4591
87564,1560699023974,2,2.58,1.69,3.46,2.34,5.05,0.56,-0.74,0.68,19,0,25,0.93,6443,100,85,36,95,1259,374.0,478,452,60,116.0,868,1,340,1232,323,0,0,347,2560,486,374,,,,,,,,,,,,
87584,1560699023994,1,2.55,1.7,3.49,2.32,5.08,0.48,-0.62,0.62,19,-1,26,0.79,6850,100,85,36,95,1162,376.0,491,455,60,116.0,868,1,360,1208,323,0,0,340,13,-6656,376,,,,,,,,,,,,
87604,1560699024010,4,2.53,1.71,3.49,2.31,5.05,0.62,-0.68,0.75,19,-4,27,0.92,6691,100,85,36,95,1072,376.0,501,451,60,117.0,868,1,352,1204,323,0,0,346,3346,770,376,,,,,,,,,,,,
87624,1560699024030,2,2.52,1.75,3.47,2.3,5.04,0.63,-0.65,0.73,19,-5,26,0.91,6558,100,85,36,95,974,377.0,492,453,60,116.0,787,1,345,1198,297,0,0,347,2560,-6656,377,,,,,,,,,,,,
87644,1560699024050,2,2.51,1.79,3.46,2.29,5.04,0.57,-0.59,0.64,20,-4,27,0.82,6623,100,85,36,95,872,376.0,488,457,60,116.0,787,1,349,1184,297,0,0,339,3327,1,376,45.700829,4.911603,34.45,200.6,0,0.0,0,0.0,0.6083,1,0.5,1.4607
87664,1560699024070,6,2.5,1.79,3.46,2.27,5.04,0.61,-0.56,0.61,20,-5,28,0.83,6921,100,85,36,95,813,374.0,499,455,60,116.0,787,1,366,1165,297,0,0,343,3327,770,374,,,,,,,,,,,,
87684,1560699024096,3,2.5,1.79,3.46,2.26,5.05,0.69,-0.62,0.68,20,-4,28,0.93,6818,100,85,36,94,801,375.0,503,449,60,117.0,787,1,359,1159,297,0,0,347,3327,3,375,,,,,,,,,,,,
87704,1560699024116,6,2.49,1.79,3.45,2.26,5.07,0.6,-0.54,0.58,21,-3,29,0.81,6560,100,85,36,95,788,375.0,498,458,60,116.0,787,1,346,1155,297,0,0,349,6668,1,375,,,,,,,,,,,,
87724,1560699024136,2,2.49,1.79,3.43,2.26,5.04,0.64,-0.6,0.51,21,-0,31,0.88,6533,100,85,36,95,775,375.0,490,450,60,116.0,762,1,344,1148,286,0,0,348,-31206,-6656,375,,,,,,,,,,,,
87744,1560699024156,5,2.47,1.77,3.42,2.23,5.04,0.78,-0.65,0.64,20,-4,31,1.01,6739,100,85,36,95,768,373.0,490,447,60,117.0,762,1,354,1132,286,0,0,344,-14714,1,373,45.700825,4.911599,34.57,200.6,0,0.0,0,0.0,0.61,1,0.5,1.4624
87764,1560699024176,3,2.47,1.78,3.45,2.21,5.05,0.73,-0.59,0.62,21,-2,31,0.93,6825,100,85,36,95,767,375.0,505,452,60,116.0,762,1,359,1119,286,0,0,352,-10554,486,375,,,,,,,,,,,,
87784,1560699024198,3,2.47,1.8,3.46,2.19,5.06,0.73,-0.61,0.62,20,-4,30,0.95,6644,100,85,36,95,767,374.0,497,450,60,116.0,762,1,350,1112,286,0,0,352,-30438,1,373,,,,,,,,,,,,
87804,1560699024218,2,2.45,1.81,3.43,2.18,5.07,0.72,-0.54,0.57,20,-5,28,0.9,6492,100,85,36,95,769,375.0,492,458,60,116.0,762,1,342,1110,286,0,0,346,2811,-6656,375,,,,,,,,,,,,
87824,1560699024238,3,2.44,1.82,3.42,2.18,5.04,0.73,-0.6,0.58,21,-5,27,0.94,6658,100,85,36,95,771,373.0,487,453,60,117.0,742,1,350,1090,277,0,0,348,-1246,257,373,,,,,,,,,,,,
87844,1560699024258,2,2.44,1.81,3.41,2.17,5.04,0.73,-0.59,0.51,20,-4,27,0.93,6823,100,85,36,95,773,372.0,494,449,60,116.0,742,1,359,1079,277,0,0,346,-1246,3,372,45.700817,4.911592,34.85,200.6,0,0.0,0,0.0,0.6117,1,0.51,1.4641
87864,1560699024278,4,2.44,1.82,3.4,2.16,5.04,0.77,-0.62,0.58,20,-5,28,0.99,6744,100,85,36,95,777,372.0,496,453,60,116.0,742,1,355,1072,277,0,0,348,8841,0,372,,,,,,,,,,,,
87884,1560699024298,5,2.43,1.81,3.42,2.15,5.08,0.75,-0.54,0.53,20,-3,28,0.92,6585,100,85,36,95,784,370.0,492,454,60,115.0,742,1,347,1065,277,0,0,347,8841,0,370,,,,,,,,,,,,
87904,1560699024318,1,2.41,1.81,3.41,2.14,5.08,0.75,-0.59,0.52,20,-1,28,0.95,6602,100,85,36,95,791,372.0,486,448,60,116.0,742,1,348,1056,277,0,0,348,8841,-6656,369,,,,,,,,,,,,
87924,1560699024338,6,2.39,1.82,3.4,2.14,5.04,0.76,-0.53,0.5,18,-2,28,0.93,6761,100,85,36,95,796,369.0,495,452,60,116.0,723,1,359,1041,267,0,0,349,2811,486,370,,,,,,,,,,,,
87944,1560699024358,2,2.38,1.84,3.38,2.13,5.04,0.83,-0.55,0.57,18,-1,28,1.0,6941,100,85,36,95,801,369.0,503,456,60,117.0,723,1,365,1027,267,0,0,349,2811,0,369,45.700806,4.911586,35.41,200.6,0,0.0,0,0.0,0.6133,1,0.51,1.4657
87964,1560699024378,1,2.38,1.86,3.37,2.12,5.07,0.68,-0.44,0.57,17,-1,26,0.81,6893,100,85,36,95,806,368.0,507,448,60,115.0,723,1,363,1014,267,0,0,352,28553,0,368,,,,,,,,,,,,
87984,1560699024398,4,2.36,1.91,3.32,2.12,5.05,0.82,-0.52,0.69,16,-4,24,0.97,6698,100,85,36,95,810,368.0,502,456,60,117.0,723,1,352,1007,267,0,0,356,3183,230,368,,,,,,,,,,,,
88004,1560699024418,6,2.36,1.94,3.31,2.12,5.04,0.76,-0.37,0.58,16,-3,22,0.84,6510,100,85,36,95,810,367.0,496,451,60,116.0,723,1,343,1009,267,0,0,357,3302,230,367,,,,,,,,,,,,
88024,1560699024438,2,2.34,1.94,3.31,2.1,5.04,0.76,-0.41,0.53,16,-2,22,0.86,6560,100,85,36,95,808,367.0,481,450,60,116.0,672,1,346,998,246,0,0,353,-6644,0,367,,,,,,,,,,,,
88044,1560699024458,5,2.34,1.94,3.31,2.08,5.05,0.77,-0.46,0.55,14,-1,21,0.9,6720,100,85,36,95,801,366.0,485,455,60,117.0,672,1,354,980,246,0,0,354,-6644,3082,367,45.700802,4.911578,34.97,200.6,0,0.0,0,0.0,0.615,1,0.51,1.4674
88064,1560699024478,2,2.33,1.94,3.31,2.07,5.07,0.81,-0.43,0.49,14,0,22,0.92,6810,100,85,36,95,793,367.0,497,452,60,116.0,672,1,358,969,246,0,0,354,3302,-14707,367,,,,,,,,,,,,
88084,1560699024498,5,2.34,1.93,3.31,2.06,5.07,0.83,-0.46,0.59,13,-1,21,0.94,6710,100,85,36,95,786,365.0,502,453,60,116.0,672,1,353,962,246,0,0,356,2060,3082,365,,,,,,,,,,,,
88104,1560699024518,0,2.34,1.94,3.31,2.07,5.07,0.78,-0.36,0.48,13,-0,19,0.85,6613,100,85,36,95,779,363.0,500,453,60,117.0,672,1,348,957,246,0,0,355,3302,-6405,363,,,,,,,,,,,,
88124,1560699024538,4,2.33,1.95,3.32,2.06,5.05,0.84,-0.42,0.55,12,-0,18,0.94,6660,100,85,36,95,778,364.0,497,450,60,116.0,647,1,351,940,235,0,0,353,3302,2790,364,,,,,,,,,,,,
88144,1560699024558,1,2.32,1.95,3.31,2.06,5.04,0.73,-0.34,0.48,12,0,16,0.8,6970,100,85,36,94,775,363.0,500,452,60,117.0,647,1,367,925,235,0,0,355,2060,-6458,362,45.700794,4.911571,35.21,200.6,0,0.0,0,0.0,0.6167,1,0.51,1.4691
88164,1560699024578,5,2.33,1.95,3.32,2.06,5.04,0.82,-0.32,0.5,10,-1,14,0.88,6888,98,85,36,95,780,363.0,511,452,60,115.0,647,1,362,918,235,0,0,359,2060,2790,363,,,,,,,,,,,,
88184,1560699024598,1,2.33,1.97,3.29,2.05,5.07,0.89,-0.35,0.48,10,-1,14,0.95,6703,100,85,36,94,786,365.0,503,455,60,117.0,647,1,353,909,235,0,0,358,4104,0,365,,,,,,,,,,,,
