"Interval"|"ms"|0|0|1,"Utc"|"ms"|0|0|1,"FB_p"|"bar"|0|300|50,"Volant"|"F"|0.0|300.0|50,"xFR"|"mm"|0.0|5.0|50,"xRR"|"mm"|0.0|5.0|50,"xFL"|"mm"|0.0|5.0|50,"xRL"|"mm"|0.0|5.0|50,"AccelX"|"G"|-3.0|3.0|50,"AccelY"|"G"|-3.0|3.0|50,"AccelZ"|"G"|-3.0|3.0|50,"Yaw"|"Deg/Sec"|-120|120|50,"Pitch"|"Deg/Sec"|-120|120|50,"Roll"|"Deg/Sec"|-120|120|50,"Gsum"|"G"|0.0|3.0|50,"RPM"|""|0|14000|50,"TPS"|"%"|0|100|50,"WaterTemp"|"?C"|0|300|50,"AirTemp"|"?C"|-1000|1000|50,"MAP"|"KPa"|0|255|50,"Lambda"|""|0|1024|50,"WheelSpeed"|"MPH"|0.0|150.0|50,"OilPress"|"PSI"|0|150|50,"FuelPress"|"PSI"|0|150|50,"OilTemp"|"F"|0|300|50,"Battery"|"Volts"|0.0|20.0|50,"FuelCon"|"L/h"|-1000|1000|50,"Gear"|""|0|10|50,"Advance"|"Deg"|-360|360|50,"Injection"|"ms"|-1000|1000|50,"FuelCon"|"L/100km"|-1000|1000|50,"LC_But_Pres"|""|-1000|1000|50,"LC_Active"|""|-1000|1000|50,"RD_Speed"|""|-1000|1000|50,"RUD_Speed"|""|-1000|1000|50,"LD_Speed"|""|-1000|1000|50,"LUD_Speed"|""|-1000|1000|50,"Ana1"|"bar"|-1000.0|1000.0|50,"Latitude"|"Degrees"|-180.0|180.0|10,"Longitude"|"Degrees"|-180.0|180.0|10,"Speed"|"kph"|0.0|150.0|10,"Altitude"|"m"|0.0|4000.0|10,"LapCount"|""|0|0|10,"LapTime"|"Min"|0.0|0.0|10,"Sector"|""|0|0|10,"SectorTime"|"Min"|0.0|0.0|10,"ElapsedTime"|"Min"|0.0|0.0|10,"CurrentLap"|""|0|0|10,"Distance"|"km"|0.0|0.0|10,"SessionTime"|"Min"|0.0|0.0|10
42163,1561297088016,2,2.06,2.27,3.41,1.57,3.19,1.09,0.67,0.53,-19,-3,-13,1.28,7600,16,89,39,25,894,427.0,565,463,60,126.0,111,1,266,157,45,0,0,420,31796,-1562,396,181.28,,,,,,,,,,,,
42183,1561297088036,1,2.05,2.33,3.46,1.57,3.14,1.16,0.81,0.45,-20,-4,-15,1.41,7545,15,89,39,26,893,426.0,566,458,60,124.0,111,1,268,158,45,0,0,419,13552,-19019,393,-5.59,,,,,,,,,,,,
42203,1561297088056,2,2.05,2.34,3.48,1.57,3.09,1.2,0.87,0.45,-21,-5,-17,1.48,7533,17,89,39,27,893,426.0,559,461,60,125.0,115,1,272,159,45,0,0,421,-3856,-6524,390,181.28,,,,,,,,,,,,
42223,1561297088076,2,2.04,2.38,3.51,1.57,3.09,1.23,0.9,0.4,-21,-6,-18,1.52,7479,20,89,39,29,892,424.0,562,461,60,125.0,115,1,278,162,45,0,0,419,-4082,-6475,388,181.28,,,,,,,,,,,,
42243,1561297088101,1,2.05,2.37,3.52,1.56,3.1,1.29,1.0,0.39,-21,-6,-19,1.63,7488,22,89,39,31,892,420.0,563,458,60,125.0,115,1,286,165,45,0,0,420,-8165,3,385,-5.59,45.698776,4.909781,40.0,196.8,0,0.0,0,0.0,0.4123,1,0.27,0.704
42263,1561297088121,1,2.05,2.37,3.51,1.57,3.1,1.3,1.06,0.36,-22,-6,-21,1.67,7440,14,89,39,33,897,420.0,565,459,60,126.0,115,1,292,172,45,0,0,413,-8165,-18948,385,-5.59,,,,,,,,,,,,
42283,1561297088141,1,2.05,2.37,3.5,1.56,3.09,1.37,1.12,0.4,-24,-9,-22,1.77,7437,18,89,39,34,900,422.0,561,460,60,126.0,115,1,295,177,45,0,0,418,-3414,-6656,383,181.28,,,,,,,,,,,,
42303,1561297088161,-2,2.05,2.38,3.48,1.56,3.08,1.43,1.21,0.44,-24,-10,-23,1.88,7361,25,89,39,36,904,422.0,556,460,60,126.0,132,1,301,188,51,0,0,415,-8165,-6656,381,181.28,,,,,,,,,,,,
42323,1561297088181,-0,2.05,2.39,3.48,1.56,3.09,1.49,1.29,0.49,-24,-9,-24,1.97,7352,21,89,39,38,912,420.0,558,462,60,126.0,132,1,307,200,51,0,0,416,-8165,486,381,181.28,,,,,,,,,,,,
42343,1561297088201,-0,2.05,2.39,3.45,1.54,3.11,1.54,1.24,0.61,-25,-9,-26,1.98,7358,22,89,39,39,922,419.0,560,459,60,124.0,132,1,310,206,51,0,0,411,7154,-6656,378,414.87,45.698776,4.909794,39.37,196.8,0,0.0,0,0.0,0.414,1,0.28,0.7057
42363,1561297088221,2,2.05,2.38,3.4,1.53,3.1,1.59,1.18,0.69,-26,-6,-27,1.98,7431,13,89,39,40,936,419.0,553,457,60,126.0,132,1,317,207,51,0,0,412,-3414,3,379,414.87,,,,,,,,,,,,
42383,1561297088241,4,2.05,2.39,3.42,1.54,3.1,1.41,1.1,0.65,-27,-3,-29,1.79,7434,26,89,39,42,942,417.0,550,462,60,124.0,132,1,332,210,51,0,0,413,-21944,742,378,-5.59,,,,,,,,,,,,
42403,1561297088261,-3,2.05,2.41,3.39,1.54,3.09,1.22,1.06,0.62,-28,-3,-29,1.62,7485,27,89,39,43,956,416.0,556,461,60,126.0,156,1,340,212,59,0,0,413,18584,8200,377,414.87,,,,,,,,,,,,
42423,1561297088281,-0,2.04,2.42,3.4,1.55,3.1,1.14,0.98,0.62,-29,-3,-31,1.5,7509,27,89,39,43,975,416.0,557,462,60,125.0,156,1,340,213,59,0,0,409,18584,-6656,376,-5.59,,,,,,,,,,,,
42443,1561297088300,-0,2.05,2.41,3.4,1.54,3.09,1.16,0.94,0.67,-30,-0,-33,1.49,7563,23,89,39,45,1000,414.0,565,458,60,125.0,156,1,355,216,59,0,0,412,2524,1,375,414.87,45.698784,4.909805,38.47,196.9,0,0.0,0,0.0,0.4157,1,0.28,0.7074
42463,1561297088320,-1,2.06,2.41,3.42,1.54,3.1,1.14,0.97,0.68,-30,0,-32,1.49,7591,29,89,39,45,1023,415.0,561,461,60,126.0,156,1,355,216,59,0,0,411,13040,742,374,414.87,,,,,,,,,,,,
42483,1561297088340,0,2.04,2.4,3.44,1.55,3.09,1.16,1.01,0.67,-30,0,-32,1.54,7609,28,89,39,45,1036,413.0,568,457,60,125.0,156,1,355,216,59,0,0,412,-9166,-6656,373,414.87,,,,,,,,,,,,
42503,1561297088360,-0,2.06,2.41,3.41,1.55,3.09,1.25,1.07,0.77,-30,-2,-33,1.64,7640,23,89,39,46,1064,413.0,570,460,60,126.0,166,1,362,218,62,0,0,409,-9166,-6656,372,181.28,,,,,,,,,,,,
42523,1561297088380,0,2.04,2.42,3.4,1.55,3.1,1.32,1.11,0.78,-30,-3,-33,1.73,7684,25,89,39,47,1100,412.0,573,461,60,126.0,166,1,370,220,62,0,0,409,13040,-6656,374,181.28,,,,,,,,,,,,
42543,1561297088400,2,2.06,2.46,3.4,1.56,3.11,1.37,1.1,0.79,-29,-5,-34,1.76,7678,30,89,39,48,1108,410.0,576,461,60,126.0,166,1,372,225,62,0,0,407,9517,770,373,181.28,45.698792,4.909815,38.53,196.9,0,0.0,0,0.0,0.4173,1,0.28,0.709
42563,1561297088420,2,2.05,2.45,3.4,1.56,3.11,1.28,1.08,0.78,-29,-7,-33,1.67,7693,32,89,39,49,1122,410.0,578,463,60,125.0,166,1,375,231,62,0,0,404,9517,1,372,-5.59,,,,,,,,,,,,
42583,1561297088440,3,2.06,2.45,3.4,1.56,3.11,1.08,1.02,0.67,-29,-5,-32,1.49,7674,29,89,39,49,1130,410.0,573,458,60,124.0,166,1,375,231,62,0,0,407,9517,-6656,373,-5.59,,,,,,,,,,,,
42603,1561297088460,5,2.05,2.44,3.39,1.56,3.07,0.8,0.87,0.58,-30,-3,-33,1.18,7594,32,89,39,50,1140,410.0,577,467,60,125.0,185,1,378,162,69,0,0,412,13040,-3866,372,-5.59,,,,,,,,,,,,
42623,1561297088480,4,2.05,2.45,3.38,1.55,3.05,0.56,0.83,0.49,-30,-2,-32,1.0,7530,31,89,39,51,1142,412.0,568,458,60,125.0,185,1,381,241,69,0,0,409,13040,-6656,372,414.87,,,,,,,,,,,,
42643,1561297088502,4,2.06,2.44,3.37,1.54,3.03,0.42,0.78,0.44,-30,-0,-32,0.89,7408,33,89,39,52,1142,411.0,557,463,60,125.0,185,1,384,246,69,0,0,408,-4059,6384,374,-5.59,45.698799,4.909825,37.8,196.9,0,0.0,0,0.0,0.419,1,0.28,0.7107
42663,1561297088522,3,2.06,2.44,3.35,1.56,3.03,0.31,0.71,0.37,-29,1,-33,0.78,7358,25,89,39,54,1155,412.0,550,460,60,125.0,185,1,390,251,69,0,0,410,13040,-31744,375,181.28,,,,,,,,,,,,
42683,1561297088542,1,2.06,2.44,3.38,1.59,3.04,0.37,0.72,0.39,-29,-1,-33,0.81,7352,30,89,39,55,1174,412.0,547,461,60,126.0,185,1,396,262,69,0,0,410,13040,-19126,375,-5.59,,,,,,,,,,,,
42703,1561297088562,0,2.06,2.44,3.4,1.59,3.06,0.54,0.78,0.45,-28,-4,-33,0.95,7329,33,89,39,56,1197,411.0,543,459,60,125.0,194,1,402,268,73,0,0,406,-4059,-19126,375,-5.59,,,,,,,,,,,,
42723,1561297088582,1,2.06,2.44,3.37,1.6,3.07,0.69,0.84,0.5,-28,-5,-33,1.09,7347,34,89,39,56,1211,412.0,538,463,60,126.0,194,1,402,194,73,0,0,409,13040,8200,376,-5.59,,,,,,,,,,,,
42743,1561297088600,0,2.07,2.45,3.35,1.6,3.08,0.82,0.88,0.57,-28,-5,-33,1.2,7387,29,89,39,57,1242,411.0,542,460,60,126.0,194,1,408,274,73,0,0,409,-4059,742,375,181.28,45.698807,4.909833,38.29,196.9,0,0.0,0,0.0,0.4207,1,0.28,0.7124
42763,1561297088620,-0,2.09,2.44,3.35,1.6,3.06,0.94,0.94,0.63,-28,-6,-33,1.33,7425,30,89,39,58,1260,412.0,547,461,60,126.0,194,1,415,279,73,0,0,410,13040,-19126,374,181.28,,,,,,,,,,,,
42783,1561297088640,1,2.11,2.43,3.35,1.59,3.06,1.04,1.0,0.63,-28,-6,-33,1.44,7437,31,89,39,58,1279,410.0,547,458,60,126.0,194,1,415,279,73,0,0,409,9517,-6656,374,181.28,,,,,,,,,,,,
42803,1561297088660,-1,2.16,2.42,3.33,1.6,3.07,1.11,1.05,0.68,-27,-6,-33,1.53,7527,35,89,39,58,1284,410.0,556,462,60,126.0,211,1,416,280,79,0,0,408,9517,-19126,376,181.28,,,,,,,,,,,,
42823,1561297088680,-0,2.21,2.41,3.28,1.65,3.09,1.19,1.08,0.76,-26,-7,-33,1.61,7527,34,89,39,58,1295,409.0,561,461,60,126.0,211,1,416,280,79,0,0,410,11560,-31744,377,181.28,,,,,,,,,,,,
42843,1561297088702,0,2.25,2.38,3.22,1.72,3.09,1.28,1.06,0.86,-24,-7,-33,1.66,7557,28,89,39,58,1303,408.0,557,461,60,126.0,211,1,417,280,79,0,0,407,10392,17144,382,181.28,45.698814,4.909841,38.01,196.9,0,0.0,0,0.0,0.4223,1,0.28,0.714
42863,1561297088722,1,2.32,2.31,3.13,1.82,3.15,1.35,1.02,0.96,-21,-9,-31,1.69,7524,33,89,39,58,1307,406.0,559,462,60,126.0,211,1,416,286,79,0,0,405,2524,-32702,386,181.28,,,,,,,,,,,,
42883,1561297088742,-0,2.38,2.25,3.06,1.93,3.24,1.42,0.96,1.04,-18,-8,-31,1.71,7551,33,89,39,59,1309,404.0,556,463,60,126.0,211,1,424,280,79,0,0,407,1504,11545,393,181.28,,,,,,,,,,,,
42903,1561297088762,-0,2.44,2.18,2.97,2.06,3.33,1.48,0.82,1.1,-14,-9,-28,1.69,7503,35,89,39,59,1306,401.0,557,460,60,126.0,206,1,423,286,81,0,0,404,11545,11545,397,181.28,,,,,,,,,,,,
42923,1561297088782,0,2.51,2.1,2.87,2.14,3.42,1.53,0.68,1.19,-11,-10,-25,1.68,7512,24,89,39,59,1297,402.0,554,460,60,126.0,206,1,423,286,81,0,0,403,-3968,13040,402,181.28,,,,,,,,,,,,
42943,1561297088803,2,2.57,2.03,2.83,2.21,3.49,1.58,0.56,1.27,-6,-11,-22,1.68,7533,36,89,39,59,1288,405.0,552,456,60,126.0,206,1,423,286,81,0,0,399,-1818,-4059,407,181.28,45.698822,4.909848,38.08,196.9,0,0.0,0,0.0,0.424,1,0.28,0.7157
42963,1561297088823,1,2.65,1.99,2.81,2.29,3.56,1.62,0.43,1.31,-3,-11,-17,1.68,7615,33,89,39,59,1275,408.0,556,465,60,125.0,206,1,425,287,81,0,0,400,-1562,-4059,408,-5.59,,,,,,,,,,,,
42983,1561297088843,3,2.73,1.97,2.8,2.35,3.59,1.66,0.37,1.26,-1,-12,-13,1.7,7625,30,89,39,59,1266,409.0,559,461,60,126.0,206,1,425,287,81,0,0,399,-31744,-26615,409,-5.59,,,,,,,,,,,,
43003,1561297088863,4,2.81,1.98,2.79,2.37,3.61,1.49,0.22,1.17,1,-12,-11,1.5,7681,35,89,39,59,1246,407.0,560,467,60,124.0,202,1,426,287,83,0,0,404,-3866,18584,407,-5.59,,,,,,,,,,,,
43023,1561297088883,-0,2.88,1.98,2.8,2.37,3.69,1.17,0.14,0.98,3,-10,-6,1.18,7760,33,89,39,59,1237,405.0,562,465,60,125.0,202,1,427,288,83,0,0,418,-19019,-26615,405,-5.59,,,,,,,,,,,,
43043,1561297088902,1,2.93,1.98,2.79,2.38,3.73,1.09,0.02,0.92,5,-8,-3,1.09,7825,31,89,39,59,1231,401.0,568,466,60,126.0,202,1,429,289,83,0,0,426,8200,-9166,401,414.87,45.69883,4.909855,38.32,196.9,0,0.0,0,0.0,0.4257,1,0.28,0.7174
43063,1561297088922,3,2.96,1.95,2.79,2.38,3.75,1.13,-0.08,0.95,7,-8,-1,1.14,7955,33,89,39,58,1221,397.0,575,457,60,126.0,202,1,423,284,83,0,0,429,-6656,-3414,397,181.28,,,,,,,,,,,,
43083,1561297088942,-1,2.96,1.91,2.8,2.37,3.76,1.06,-0.17,0.89,9,-7,1,1.07,8002,32,89,39,57,1212,397.0,582,460,60,126.0,202,1,415,280,83,0,0,445,486,-9166,397,-5.59,,,,,,,,,,,,
43103,1561297088962,0,2.95,1.88,2.78,2.38,3.75,1.09,-0.24,0.84,11,-8,6,1.11,8130,37,89,39,56,1199,399.0,594,462,60,126.0,218,1,406,284,87,0,0,431,0,-3414,399,414.87,,,,,,,,,,,,
43123,1561297088982,5,2.91,1.88,2.78,2.38,3.73,1.0,-0.3,0.85,13,-5,11,1.05,8216,37,89,39,55,1194,402.0,596,459,60,126.0,218,1,398,200,87,0,0,425,230,31796,403,-5.59,,,,,,,,,,,,
43143,1561297088996,-0,2.89,1.91,2.78,2.38,3.68,0.99,-0.36,0.85,15,-5,15,1.06,8212,35,89,39,54,1181,406.0,603,465,60,125.0,218,1,390,274,87,0,0,439,0,19477,409,414.87,45.698837,4.909862,39.96,196.9,0,0.0,0,0.0,0.4273,1,0.28,0.719
43163,1561297089016,4,2.85,1.92,2.76,2.42,3.62,0.98,-0.46,0.87,18,-4,18,1.08,8194,22,89,39,53,1169,411.0,597,461,60,126.0,218,1,387,267,87,0,0,420,0,19477,411,181.28,,,,,,,,,,,,
43183,1561297089036,-0,2.81,1.92,2.7,2.43,3.61,0.86,-0.48,0.88,20,-3,19,0.99,8106,37,89,39,54,1149,414.0,591,464,60,125.0,218,1,390,266,87,0,0,440,257,-768,414,181.28,,,,,,,,,,,,
43203,1561297089056,3,2.77,1.92,2.66,2.46,3.61,0.85,-0.52,0.9,21,-4,21,1.0,8085,30,89,39,53,1139,418.0,591,457,60,126.0,190,1,387,258,79,0,0,455,1,19477,418,181.28,,,,,,,,,,,,
43223,1561297089076,4,2.74,1.92,2.61,2.45,3.64,0.84,-0.6,0.87,23,-5,23,1.03,8047,32,89,39,54,1131,421.0,587,463,60,125.0,190,1,390,190,79,0,0,434,742,-768,421,-5.59,,,,,,,,,,,,
43243,1561297089094,2,2.7,1.91,2.61,2.44,3.69,0.81,-0.68,0.85,24,-5,23,1.05,8047,35,89,39,54,1110,422.0,581,466,60,126.0,190,1,390,264,79,0,0,413,8200,21580,422,414.87,45.698849,4.909871,40.49,197.0,0,0.0,0,0.0,0.429,1,0.28,0.7207
43263,1561297089114,2,2.66,1.86,2.6,2.44,3.75,0.85,-0.74,0.82,26,-5,24,1.13,8043,29,89,39,54,1097,426.0,587,462,60,126.0,190,1,390,264,79,0,0,451,19125,5600,426,-5.59,,,,,,,,,,,,
43283,1561297089134,-1,2.61,1.82,2.62,2.44,3.79,0.85,-0.77,0.73,28,-4,26,1.14,8116,38,89,39,55,1089,430.0,588,465,60,124.0,190,1,398,271,79,0,0,465,240,19477,430,-5.59,,,,,,,,,,,,
43303,1561297089154,4,2.55,1.84,2.66,2.46,3.79,0.87,-0.8,0.7,28,-2,28,1.18,8234,42,89,39,55,1084,436.0,593,464,60,125.0,193,1,398,281,84,0,0,459,240,-7939,437,181.28,,,,,,,,,,,,
43323,1561297089174,3,2.53,1.83,2.71,2.47,3.79,0.8,-0.84,0.69,28,-1,30,1.16,8461,39,89,39,57,1073,434.0,606,460,60,125.0,193,1,414,296,84,0,0,462,-31744,5600,434,181.28,,,,,,,,,,,,
43343,1561297089202,2,2.47,1.85,2.78,2.46,3.78,0.72,-0.8,0.71,28,-1,32,1.08,8644,39,89,39,57,1067,433.0,616,466,60,126.0,193,1,409,302,84,0,0,469,-31744,23400,433,181.28,45.698856,4.909881,41.29,197.0,0,0.0,0,0.0,0.4307,1,0.29,0.7224
43363,1561297089222,1,2.44,1.92,2.83,2.44,3.7,0.66,-0.76,0.75,28,0,34,1.01,8761,43,89,39,57,1064,435.0,605,471,60,125.0,193,1,405,306,84,0,0,469,-1562,21432,433,181.28,,,,,,,,,,,,
43383,1561297089242,4,2.4,1.98,2.78,2.45,3.6,0.65,-0.74,0.71,28,0,35,0.98,8761,42,89,39,57,1061,435.0,432,466,60,126.0,193,1,405,306,84,0,0,436,6384,-18108,435,181.28,,,,,,,,,,,,
43403,1561297089262,1,2.35,2.05,2.68,2.45,3.5,0.64,-0.74,0.7,27,2,34,0.97,8542,47,89,39,58,1061,436.0,446,455,60,124.0,233,1,419,306,102,0,0,452,-8151,2524,436,-5.59,,,,,,,,,,,,
43423,1561297089282,4,2.29,2.11,2.63,2.45,3.38,0.64,-0.73,0.72,26,1,33,0.97,8333,35,89,39,58,1060,435.0,391,467,60,126.0,233,1,423,306,102,0,0,444,2524,2524,436,181.28,,,,,,,,,,,,
43443,1561297089301,1,2.24,2.14,2.64,2.44,3.35,0.63,-0.68,0.66,23,2,31,0.93,8109,50,89,39,61,1061,434.0,349,462,60,125.0,233,1,450,308,102,0,0,430,11560,2131,434,414.87,45.69886,4.909892,41.18,197.0,0,0.0,0,0.0,0.4323,1,0.29,0.724
43463,1561297089321,4,2.19,2.19,2.7,2.33,3.33,0.62,-0.53,0.69,19,1,30,0.82,8026,45,89,39,63,1062,430.0,356,456,60,126.0,233,1,450,319,102,0,0,440,-8165,21580,429,414.87,,,,,,,,,,,,
43483,1561297089341,-1,2.15,2.25,2.89,2.14,3.22,0.57,-0.38,0.68,15,-1,28,0.69,8085,54,89,39,67,1106,429.0,337,463,60,125.0,233,1,448,345,102,0,0,434,-3322,-28332,425,-5.59,,,,,,,,,,,,
43503,1561297089361,3,2.12,2.31,3.09,2.03,3.16,0.59,-0.28,0.75,10,-1,26,0.66,8138,57,89,39,69,1140,437.0,395,464,60,124.0,264,1,445,372,112,0,0,442,19477,26704,422,414.87,,,,,,,,,,,,
43523,1561297089381,-0,2.1,2.39,3.24,1.92,3.08,0.57,-0.19,0.73,5,-2,24,0.6,8322,36,89,39,72,1183,443.0,375,458,60,126.0,264,1,435,406,112,0,0,444,-18341,19477,421,-5.59,,,,,,,,,,,,
43543,1561297089401,3,2.1,2.46,3.32,1.82,3.03,0.57,0.03,0.65,2,-2,18,0.57,8530,65,89,39,74,1238,449.0,403,456,60,126.0,264,1,428,429,112,0,0,447,15649,-8985,421,181.28,45.698868,4.909904,42.69,197.0,0,0.0,0,0.0,0.434,1,0.29,0.7257
43563,1561297089421,3,2.09,2.53,3.35,1.81,3.03,0.59,0.03,0.73,-1,-3,12,0.59,8604,68,89,39,77,1260,452.0,439,456,60,124.0,264,1,424,462,112,0,0,454,-6387,3580,423,414.87,,,,,,,,,,,,
43583,1561297089441,2,2.08,2.57,3.35,1.83,3.03,0.71,-0.07,0.77,-3,-4,8,0.71,8773,65,89,39,80,1297,453.0,481,456,60,124.0,264,1,421,489,112,0,0,462,-8985,32033,424,-5.59,,,,,,,,,,,,
43603,1561297089461,4,2.06,2.6,3.35,1.84,3.0,0.77,-0.03,0.78,-6,-3,5,0.77,8890,59,89,39,80,1298,456.0,523,468,60,125.0,402,1,417,503,169,0,0,465,14488,-8985,422,181.28,,,,,,,,,,,,
43623,1561297089481,4,2.06,2.61,3.35,1.86,2.99,0.76,0.07,0.82,-8,-3,3,0.77,8932,56,89,39,81,1284,456.0,570,460,60,125.0,402,1,418,517,169,0,0,470,17628,3580,425,-5.59,,,,,,,,,,,,
43643,1561297089501,6,2.06,2.64,3.34,1.86,2.97,0.77,0.14,0.82,-10,-2,-0,0.78,8979,55,89,39,82,1277,461.0,597,460,60,125.0,402,1,417,531,169,0,0,474,2211,-1818,426,-5.59,45.698875,4.909916,42.96,197.0,0,0.0,0,0.0,0.4357,1,0.29,0.7274
43663,1561297089521,2,2.07,2.69,3.33,1.86,2.9,0.69,0.17,0.8,-11,-2,-4,0.71,9132,49,89,39,82,1275,464.0,613,457,60,125.0,402,1,417,531,169,0,0,477,16408,8488,426,-5.59,,,,,,,,,,,,
43683,1561297089541,5,2.09,2.7,3.31,1.87,2.9,0.78,0.09,0.91,-13,-4,-10,0.78,9155,67,89,39,82,1280,468.0,613,453,60,124.0,402,1,417,531,169,0,0,480,243,-1818,427,-5.59,,,,,,,,,,,,
43703,1561297089561,5,2.11,2.69,3.28,1.88,2.9,0.69,0.02,0.89,-15,-3,-12,0.69,9195,55,89,39,83,1294,471.0,629,453,60,125.0,428,1,418,531,184,0,0,498,32033,-22519,434,414.87,,,,,,,,,,,,
43723,1561297089581,0,2.12,2.69,3.24,1.9,2.9,0.63,0.21,0.86,-16,-2,-15,0.66,9356,63,89,39,83,1314,476.0,628,456,60,125.0,428,1,418,531,184,0,0,493,-23367,32033,438,181.28,,,,,,,,,,,,
43743,1561297089603,4,2.13,2.68,3.22,1.9,2.86,0.61,0.35,0.97,-18,-2,-16,0.7,9426,62,89,39,82,1332,480.0,636,451,60,125.0,428,1,417,531,184,0,0,503,3580,-9216,443,181.28,45.698883,4.909928,43.9,197.0,0,0.0,0,0.0,0.4373,1,0.29,0.729
43763,1561297089623,5,2.15,2.68,3.19,1.89,2.83,0.6,0.22,1.02,-20,-2,-18,0.64,9537,72,89,39,82,1351,485.0,637,452,60,124.0,428,1,416,532,184,0,0,509,-6441,-3856,447,-5.59,,,,,,,,,,,,
43783,1561297089643,4,2.17,2.67,3.19,1.89,2.82,0.48,0.37,0.97,-20,-0,-20,0.61,9600,76,89,39,82,1362,492.0,628,457,60,124.0,428,1,413,531,184,0,0,510,-32768,-3856,452,181.28,,,,,,,,,,,,
43803,1561297089663,5,2.19,2.67,3.18,1.9,2.83,0.47,0.48,0.97,-19,-2,-22,0.68,9730,59,89,39,82,1356,493.0,638,458,60,125.0,427,1,405,530,194,0,0,518,-6528,-28648,456,181.28,,,,,,,,,,,,
43823,1561297089683,3,2.21,2.67,3.13,1.98,2.87,0.47,0.52,1.07,-20,-2,-24,0.7,9910,71,89,39,82,1338,496.0,633,456,60,125.0,427,1,400,528,194,0,0,537,3,26178,464,181.28,,,,,,,,,,,,
43843,1561297089701,0,2.22,2.67,3.08,2.06,2.88,0.49,0.53,0.94,-20,-2,-23,0.72,9931,80,89,39,82,1314,497.0,643,460,60,124.0,427,1,399,528,194,0,0,543,-22519,1248,469,-5.59,45.698891,4.909939,45.72,197.0,0,0.0,0,0.0,0.439,1,0.29,0.7307
43863,1561297089721,6,2.22,2.68,3.06,2.05,2.86,0.48,0.65,0.99,-20,-3,-22,0.81,9989,64,89,39,82,1292,504.0,643,455,60,125.0,427,1,397,528,194,0,0,524,-32248,-3082,476,414.87,,,,,,,,,,,,
43883,1561297089741,4,2.23,2.68,3.05,2.07,2.84,0.47,0.74,1.07,-19,-3,-22,0.88,10048,90,89,39,83,1260,506.0,642,455,60,125.0,427,1,398,535,194,0,0,530,-28648,2104,481,414.87,,,,,,,,,,,,
43903,1561297089761,4,2.24,2.67,3.04,2.08,2.85,0.41,0.74,0.99,-17,-4,-21,0.85,10113,72,89,39,83,1220,511.0,635,456,60,125.0,419,1,401,535,203,0,0,540,-3856,10408,488,181.28,,,,,,,,,,,,
43923,1561297089781,1,2.24,2.67,3.02,2.1,2.87,0.37,0.71,0.93,-16,-4,-20,0.8,10140,85,89,39,84,1183,513.0,638,457,60,124.0,419,1,406,554,203,0,0,546,26178,2524,493,181.28,,,,,,,,,,,,
43943,1561297089799,1,2.23,2.66,3.02,2.12,2.95,0.37,0.59,1.04,-16,-3,-19,0.69,10190,97,89,39,84,1172,516.0,638,457,60,125.0,419,1,407,554,203,0,0,565,16383,-9072,503,181.28,45.698898,4.90995,48.04,197.0,0,0.0,0,0.0,0.4407,1,0.29,0.7324
43963,1561297089819,5,2.23,2.65,3.01,2.12,2.94,0.35,0.45,1.11,-16,-2,-20,0.57,10257,75,89,39,84,1163,523.0,623,453,60,125.0,419,1,412,554,203,0,0,548,-22519,-18032,509,181.28,,,,,,,,,,,,
43983,1561297089839,5,2.22,2.66,3.01,2.13,2.93,0.32,0.41,1.2,-15,-2,-19,0.52,10376,75,89,39,84,1150,529.0,643,460,60,125.0,419,1,421,572,203,0,0,548,-9072,14504,513,414.87,,,,,,,,,,,,
44003,1561297089859,4,2.24,2.66,3.01,2.13,2.92,0.33,0.41,1.28,-15,-3,-20,0.53,10422,80,90,39,84,1137,532.0,638,458,60,118.0,436,1,424,572,225,0,0,555,14504,2211,520,414.87,,,,,,,,,,,,
44023,1561297089879,3,2.24,2.64,3.02,2.13,2.93,0.31,0.46,1.31,-14,-4,-19,0.56,10563,82,89,39,84,1134,537.0,643,456,60,118.0,436,1,431,554,225,0,0,565,-30064,-2934,523,414.87,,,,,,,,,,,,
44043,1561297089901,6,2.24,2.63,3.0,2.13,2.94,0.3,0.38,1.27,-14,-3,-18,0.48,10599,62,89,39,85,1133,543.0,645,458,60,118.0,436,1,433,572,225,0,0,572,-3082,-22359,529,-5.59,45.69891,4.909961,50.98,197.1,0,0.0,0,0.0,0.4423,1,0.29,0.734
44063,1561297089921,1,2.25,2.64,2.96,2.15,2.94,0.33,0.34,1.31,-13,-2,-17,0.47,10702,84,89,39,85,1126,546.0,641,462,60,117.0,436,1,436,572,225,0,0,571,14504,-29984,535,181.28,,,,,,,,,,,,
44083,1561297089941,2,2.25,2.63,2.95,2.15,2.94,0.32,0.39,1.37,-12,-1,-17,0.5,10738,94,89,39,84,1118,554.0,645,456,60,118.0,436,1,436,554,225,0,0,574,2524,-30159,541,181.28,,,,,,,,,,,,
44103,1561297089961,4,2.26,2.63,2.94,2.18,2.93,0.28,0.36,1.25,-12,-2,-16,0.45,10831,94,89,39,84,1114,556.0,645,461,60,118.0,418,1,438,554,226,0,0,580,-22359,2048,545,181.28,,,,,,,,,,,,
44123,1561297089981,3,2.28,2.63,2.94,2.17,2.94,0.3,0.41,1.21,-11,-4,-14,0.51,10875,81,89,39,84,1109,561.0,641,460,60,118.0,418,1,441,554,226,0,0,589,-2934,15649,551,-5.59,,,,,,,,,,,,
44143,1561297089995,3,2.29,2.62,2.94,2.19,2.98,0.27,0.3,1.2,-11,-2,-15,0.41,10971,60,89,39,84,1096,568.0,642,458,60,118.0,418,1,442,554,226,0,0,590,-8186,2048,557,414.87,45.698921,4.909973,53.35,197.1,0,0.0,0,0.0,0.444,1,0.3,0.7357
44163,1561297090015,4,2.29,2.6,2.93,2.19,3.0,0.27,0.4,1.03,-9,-0,-14,0.48,11094,78,89,39,84,1081,568.0,648,459,60,118.0,418,1,443,554,226,0,0,601,-8186,243,563,181.28,,,,,,,,,,,,
44183,1561297090035,1,2.29,2.58,2.93,2.22,3.0,0.27,0.34,1.1,-8,-1,-12,0.44,11207,80,89,39,84,1073,574.0,646,458,60,118.0,418,1,442,554,226,0,0,595,774,208,569,-5.59,,,,,,,,,,,,
44203,1561297090055,5,2.29,2.58,2.92,2.24,3.02,0.2,0.33,1.03,-7,0,-10,0.38,11261,97,89,39,84,1067,577.0,647,458,60,119.0,410,1,441,554,235,0,0,605,1,-3820,577,181.28,,,,,,,,,,,,
44223,1561297090075,4,2.29,2.55,2.9,2.25,3.03,0.26,0.31,1.07,-7,1,-9,0.4,11370,91,89,39,84,1056,580.0,655,460,60,118.0,410,1,441,554,235,0,0,605,8488,19621,580,181.28,,,,,,,,,,,,
44243,1561297090101,2,2.29,2.55,2.89,2.25,3.06,0.28,0.34,1.05,-6,1,-7,0.44,11510,89,89,39,84,1044,588.0,655,453,60,119.0,410,1,440,554,235,0,0,621,208,19320,585,181.28,45.698933,4.909984,56.13,197.1,0,0.0,0,0.0,0.4457,1,0.3,0.7374
44263,1561297090121,4,2.28,2.55,2.86,2.26,3.06,0.22,0.2,1.09,-6,1,-6,0.3,11609,81,89,39,84,1037,590.0,653,463,60,119.0,410,1,440,538,235,0,0,622,-32504,19320,588,181.28,,,,,,,,,,,,
44283,1561297090141,4,2.27,2.54,2.84,2.29,3.07,0.26,0.13,1.18,-6,-1,-7,0.29,11689,78,89,39,83,1033,595.0,651,459,60,119.0,410,1,440,540,235,0,0,623,-16179,3395,595,414.87,,,,,,,,,,,,
44303,1561297090161,2,2.25,2.54,2.85,2.28,3.06,0.24,0.11,1.06,-6,-2,-7,0.26,11762,77,89,39,83,1013,601.0,651,460,60,119.0,401,1,440,541,240,0,0,631,243,-16046,600,-5.59,,,,,,,,,,,,
44323,1561297090181,3,2.26,2.54,2.85,2.27,3.05,0.23,0.19,1.01,-6,-4,-7,0.3,11777,70,89,39,83,998,606.0,651,460,60,119.0,401,1,440,543,240,0,0,630,17740,20993,603,-5.59,,,,,,,,,,,,
44343,1561297090201,4,2.25,2.54,2.88,2.24,3.05,0.26,0.3,1.08,-7,-5,-8,0.4,11859,71,89,39,83,980,614.0,655,461,60,119.0,401,1,440,545,240,0,0,638,16529,6208,606,181.28,45.698944,4.909995,58.58,197.1,0,0.0,0,0.0,0.4473,1,0.3,0.739
44363,1561297090221,2,2.26,2.55,2.88,2.24,3.05,0.23,0.39,1.03,-7,-5,-8,0.45,11965,73,89,39,83,963,620.0,658,453,60,120.0,401,1,440,548,240,0,0,641,19320,8958,610,181.28,,,,,,,,,,,,
44383,1561297090241,5,2.24,2.56,2.89,2.23,3.05,0.19,0.39,1.1,-7,-5,-8,0.43,12104,84,89,39,83,937,623.0,658,457,60,120.0,401,1,440,550,240,0,0,652,3395,24,616,181.28,,,,,,,,,,,,
44403,1561297090261,5,2.25,2.57,2.87,2.23,3.05,0.18,0.25,1.04,-8,-5,-9,0.31,12262,83,89,39,83,915,631.0,661,457,60,120.0,413,1,440,550,254,0,0,657,-14655,4909,616,-5.59,,,,,,,,,,,,
44423,1561297090281,7,2.25,2.57,2.88,2.23,3.04,0.18,0.2,1.05,-8,-4,-10,0.27,12343,80,89,39,83,905,631.0,658,457,60,119.0,413,1,440,550,254,0,0,664,-2580,-388,624,181.28,,,,,,,,,,,,
44443,1561297090300,3,2.26,2.57,2.89,2.21,3.0,0.23,0.14,1.14,-9,-5,-9,0.27,12409,88,89,39,83,900,639.0,663,460,60,120.0,413,1,440,550,254,0,0,660,6208,31988,627,181.28,45.698956,4.910008,60.98,197.2,0,0.0,0,0.0,0.449,1,0.3,0.7407
44463,1561297090320,5,2.26,2.58,2.91,2.21,3.0,0.2,0.26,1.09,-8,-4,-8,0.33,12475,83,89,39,83,889,643.0,666,456,60,120.0,413,1,440,550,254,0,0,671,11776,-3578,631,181.28,,,,,,,,,,,,
44483,1561297090340,5,2.26,2.58,2.92,2.21,2.98,0.19,0.26,0.92,-7,-5,-7,0.32,12550,81,89,39,83,874,647.0,657,456,60,120.0,413,1,440,550,254,0,0,673,-8429,-10344,634,-5.59,,,,,,,,,,,,
44503,1561297090360,2,2.27,2.58,2.91,2.21,3.01,0.21,0.13,0.95,-7,-4,-6,0.24,12600,93,89,39,83,862,650.0,660,456,60,120.0,411,1,440,550,262,0,0,680,-6006,31988,641,181.28,,,,,,,,,,,,
44523,1561297090380,6,2.27,2.57,2.89,2.2,3.04,0.22,0.2,1.02,-6,-1,-6,0.3,12677,94,89,39,83,852,656.0,661,456,60,120.0,411,1,440,550,262,0,0,688,31988,-10346,647,181.28,,,,,,,,,,,,
44543,1561297090401,-0,2.29,2.57,2.88,2.21,3.04,0.21,0.28,1.02,-6,-0,-5,0.35,12798,77,89,39,83,842,658.0,655,457,60,120.0,411,1,440,550,262,0,0,680,-10344,-10399,652,181.28,45.698971,4.91002,63.22,197.2,0,0.0,0,0.0,0.4507,1,0.3,0.7424
44563,1561297090421,0,2.29,2.57,2.9,2.23,3.03,0.21,0.23,0.94,-6,3,-6,0.31,12533,97,89,39,83,830,660.0,668,462,60,123.0,411,1,440,550,262,0,0,687,-27404,16599,655,414.87,,,,,,,,,,,,
44583,1561297090441,-0,2.28,2.55,2.91,2.22,3.06,0.32,0.23,0.95,-6,2,-5,0.39,11988,83,89,39,85,825,666.0,662,460,60,123.0,411,1,440,565,262,0,0,673,3543,-388,662,181.28,,,,,,,,,,,,
44603,1561297090461,-1,2.29,2.5,2.97,2.17,3.13,0.29,0.3,0.72,-5,3,-4,0.42,11638,77,89,39,85,825,665.0,659,461,60,122.0,390,1,440,574,258,0,0,669,3543,-2826,662,181.28,,,,,,,,,,,,
44623,1561297090481,-1,2.3,2.39,3.08,2.08,3.23,0.29,0.3,0.65,-3,8,-3,0.42,11439,97,89,39,86,837,666.0,658,463,60,123.0,390,1,441,591,258,0,0,665,1549,-26380,659,181.28,,,,,,,,,,,,
44643,1561297090502,4,2.3,2.34,3.11,2.05,3.36,0.32,0.3,0.59,-2,8,-4,0.44,11207,98,89,39,86,851,666.0,652,463,60,122.0,390,1,443,591,258,0,0,667,1549,8958,658,181.28,45.698982,4.910032,65.53,197.2,0,0.0,0,0.0,0.4523,1,0.3,0.7441
44663,1561297090522,5,2.29,2.34,3.04,2.09,3.37,0.42,0.24,0.73,-2,2,-4,0.49,10945,92,89,39,87,869,666.0,651,460,60,121.0,390,1,444,1048,258,0,0,671,1549,-26380,662,-5.59,,,,,,,,,,,,
44683,1561297090542,6,2.28,2.36,2.95,2.11,3.28,0.41,0.3,0.78,-3,5,-4,0.51,10405,91,89,39,88,890,666.0,647,455,60,120.0,390,1,427,973,258,0,0,753,1549,-2826,666,181.28,,,,,,,,,,,,
44703,1561297090562,4,2.29,2.43,2.84,2.11,3.14,0.41,0.36,0.73,-2,5,-2,0.55,10059,97,89,39,86,961,678.0,635,455,60,120.0,514,1,400,810,344,0,0,786,-2345,-10216,674,414.87,,,,,,,,,,,,
44723,1561297090582,3,2.29,2.47,2.73,2.16,3.0,0.42,0.3,0.63,-2,5,-6,0.52,10195,79,89,39,85,1068,682.0,645,460,60,121.0,514,1,411,708,344,0,0,702,-10344,-23490,679,181.28,,,,,,,,,,,,
44743,1561297090600,6,2.3,2.48,2.67,2.26,3.01,0.42,0.28,0.76,-1,3,-5,0.51,10096,99,89,39,85,1167,687.0,637,460,60,121.0,514,1,402,586,344,0,0,729,6208,-23490,682,181.28,45.698998,4.910045,66.07,197.2,0,0.0,0,0.0,0.454,1,0.31,0.7457
44763,1561297090620,3,2.28,2.52,2.64,2.29,3.0,0.45,0.23,0.86,-1,4,-1,0.51,9770,80,89,39,85,1233,691.0,635,460,60,121.0,514,1,406,569,344,0,0,760,1780,3462,687,414.87,,,,,,,,,,,,
44783,1561297090640,6,2.29,2.52,2.68,2.3,3.03,0.52,0.25,0.89,-1,0,-3,0.58,9659,72,89,39,85,1308,700.0,636,462,60,121.0,514,1,411,568,344,0,0,713,-2830,-2830,695,181.28,,,,,,,,,,,,
44803,1561297090660,1,2.3,2.54,2.8,2.29,3.09,0.55,0.26,0.86,-1,-3,-2,0.61,9694,97,89,39,85,1319,698.0,629,466,60,122.0,305,1,410,569,213,0,0,720,24,-2358,695,-5.59,,,,,,,,,,,,
44823,1561297090680,5,2.28,2.55,2.88,2.31,3.21,0.48,0.32,0.92,-0,-3,-2,0.58,9816,63,90,39,86,1325,703.0,635,451,60,122.0,305,1,405,570,213,0,0,725,-2830,1524,698,181.28,,,,,,,,,,,,
44843,1561297090702,4,2.28,2.55,2.96,2.32,3.27,0.51,0.28,0.89,-0,-4,-1,0.58,10000,71,90,39,85,1229,704.0,643,455,60,122.0,305,1,395,572,213,0,0,734,11069,1524,705,414.87,45.699013,4.910057,68.51,197.2,0,0.0,0,0.0,0.4557,1,0.31,0.7474
44863,1561297090722,2,2.29,2.54,2.97,2.3,3.28,0.46,0.33,0.72,-0,-3,-0,0.57,10118,89,89,39,85,1171,708.0,639,458,60,121.0,305,1,407,572,213,0,0,739,-3888,-2314,708,-5.59,,,,,,,,,,,,
44883,1561297090742,3,2.27,2.52,3.0,2.28,3.29,0.44,0.32,0.76,-0,-2,-1,0.54,10240,83,89,39,85,1096,716.0,643,457,60,122.0,305,1,412,572,213,0,0,763,16118,-10212,714,181.28,,,,,,,,,,,,
44903,1561297090762,3,2.28,2.5,2.97,2.28,3.29,0.41,0.25,0.8,-0,1,-0,0.48,10353,64,89,39,85,1020,719.0,644,461,60,122.0,312,1,420,572,224,0,0,764,-25858,-10214,717,181.28,,,,,,,,,,,,
44923,1561297090782,1,2.25,2.49,2.88,2.27,3.19,0.46,0.17,0.92,-1,2,-0,0.49,10527,91,89,39,85,1022,726.0,647,461,60,122.0,312,1,431,572,224,0,0,755,-4091,-3450,723,181.28,,,,,,,,,,,,
44943,1561297090802,2,2.28,2.51,2.83,2.29,3.08,0.46,0.1,0.99,-1,-0,-0,0.47,10434,87,89,39,85,1024,732.0,646,451,60,122.0,312,1,426,572,224,0,0,757,-2314,-10218,726,181.28,45.699028,4.91007,70.61,197.2,0,0.0,0,0.0,0.4573,1,0.31,0.749
44963,1561297090822,0,2.28,2.49,2.73,2.26,3.0,0.51,0.08,1.08,-1,2,-0,0.51,10336,95,89,39,85,1026,736.0,648,456,60,122.0,312,1,419,572,224,0,0,768,1037,-31066,733,181.28,,,,,,,,,,,,
44983,1561297090842,4,2.28,2.48,2.72,2.22,2.95,0.55,0.11,1.17,-1,1,-1,0.56,10212,89,89,39,85,1028,739.0,641,457,60,122.0,312,1,410,572,224,0,0,758,-13068,-3450,736,181.28,,,,,,,,,,,,
45003,1561297090862,5,2.27,2.47,2.72,2.21,2.98,0.48,0.17,1.18,-1,0,-1,0.51,10285,96,89,39,85,1028,744.0,636,457,60,122.0,300,1,415,572,222,0,0,759,-31066,-3450,741,414.87,,,,,,,,,,,,
45023,1561297090882,4,2.29,2.45,2.78,2.19,3.13,0.48,0.18,1.0,-2,1,-2,0.51,10347,78,89,39,85,1027,749.0,640,455,60,122.0,300,1,420,572,222,0,0,771,136,-23308,742,414.87,,,,,,,,,,,,
45043,1561297090896,4,2.29,2.45,2.79,2.18,3.11,0.4,0.24,0.94,-2,1,-3,0.47,10504,86,89,39,85,1024,753.0,644,458,60,121.0,300,1,431,572,222,0,0,768,-31068,-2344,749,181.28,45.699043,4.910084,72.94,197.2,0,0.0,0,0.0,0.459,1,0.31,0.7507
45063,1561297090916,6,2.28,2.47,2.83,2.19,3.09,0.41,0.27,0.85,-1,1,-2,0.49,10599,96,89,39,85,1023,753.0,640,463,60,122.0,300,1,433,572,222,0,0,771,-3450,-3450,747,181.28,,,,,,,,,,,,
45083,1561297090936,4,2.29,2.49,2.8,2.22,3.1,0.38,0.24,0.86,-2,1,-2,0.45,10702,95,89,39,85,1020,755.0,639,461,60,122.0,300,1,436,572,222,0,0,788,5876,-2826,751,414.87,,,,,,,,,,,,
45103,1561297090956,3,2.28,2.54,2.79,2.27,3.11,0.37,0.11,0.9,-2,-1,-3,0.39,10714,60,89,39,85,1016,759.0,645,453,60,122.0,306,1,436,572,232,0,0,789,5876,-13312,757,181.28,,,,,,,,,,,,
45123,1561297090976,2,2.3,2.56,2.82,2.28,3.11,0.31,0.1,0.94,-2,1,-4,0.33,10738,79,89,39,84,1008,764.0,648,460,60,122.0,306,1,436,554,232,0,0,797,-10216,-12152,760,181.28,,,,,,,,,,,,
45143,1561297090994,5,2.29,2.54,2.85,2.29,3.14,0.36,0.04,0.85,-1,2,-3,0.36,10744,95,89,39,84,1002,768.0,650,458,60,122.0,306,1,436,572,232,0,0,792,-2826,204,765,181.28,45.699059,4.910098,74.56,197.2,0,0.0,0,0.0,0.4607,1,0.31,0.7524
45163,1561297091014,3,2.28,2.53,2.86,2.29,3.15,0.37,0.06,0.83,-1,-0,-3,0.38,10819,94,89,39,84,994,772.0,643,464,60,122.0,306,1,438,554,232,0,0,801,7413,5344,770,-5.59,,,,,,,,,,,,
45183,1561297091034,1,2.29,2.52,2.94,2.27,3.2,0.33,0.12,0.85,-1,-1,-2,0.35,10958,94,89,39,84,990,776.0,645,458,60,122.0,306,1,441,554,232,0,0,811,-23308,-3450,776,-5.59,,,,,,,,,,,,
45203,1561297091054,6,2.29,2.52,2.94,2.27,3.18,0.38,0.0,0.97,-1,-2,-3,0.38,11009,67,89,39,84,983,778.0,643,454,60,122.0,296,1,443,554,230,0,0,809,-2426,-2358,776,181.28,,,,,,,,,,,,
45223,1561297091074,5,2.3,2.52,2.86,2.28,3.21,0.35,0.05,0.96,-1,-1,-4,0.36,11140,82,89,39,84,976,781.0,652,457,60,122.0,296,1,442,554,230,0,0,803,-31066,-2826,782,181.28,,,,,,,,,,,,
45243,1561297091102,3,2.29,2.51,2.79,2.28,3.16,0.31,0.09,1.0,-1,1,-4,0.32,11160,72,89,39,84,975,786.0,653,461,60,121.0,296,1,442,554,230,0,0,833,3544,-25858,785,181.28,45.699078,4.910111,76.76,197.2,0,0.0,0,0.0,0.4623,1,0.32,0.754
45263,1561297091122,5,2.29,2.53,2.83,2.28,3.11,0.27,0.12,0.89,-1,1,-3,0.29,11120,94,89,39,84,974,792.0,650,461,60,122.0,296,1,442,554,230,0,0,813,-2540,-2314,790,181.28,,,,,,,,,,,,
45283,1561297091142,4,2.29,2.51,2.82,2.27,3.12,0.27,0.14,0.86,-0,3,-3,0.31,11134,88,89,39,84,970,793.0,650,461,60,122.0,296,1,443,554,230,0,0,824,-7436,-3450,791,181.28,,,,,,,,,,,,
45303,1561297091162,5,2.29,2.5,2.82,2.25,3.12,0.3,0.07,0.85,-0,2,-2,0.3,11207,76,89,39,84,962,801.0,646,458,60,122.0,295,1,442,554,234,0,0,819,-13072,-2358,798,181.28,,,,,,,,,,,,
45323,1561297091182,3,2.3,2.5,2.82,2.26,3.13,0.25,0.11,0.84,-0,1,-4,0.28,11247,75,89,39,84,957,805.0,651,460,60,121.0,295,1,442,554,234,0,0,826,204,-30694,799,-5.59,,,,,,,,,,,,
45343,1561297091202,3,2.31,2.48,2.84,2.25,3.19,0.27,0.13,0.95,-1,-2,-4,0.3,11274,66,89,38,84,953,807.0,650,455,60,122.0,295,1,441,554,234,0,0,849,-23490,136,805,181.28,45.699093,4.910126,78.76,197.2,0,0.0,0,0.0,0.464,1,0.32,0.7557
45363,1561297091222,4,2.3,2.47,2.81,2.24,3.14,0.34,0.06,0.96,-1,-1,-5,0.34,11412,65,89,38,84,948,809.0,654,458,60,122.0,295,1,441,554,234,0,0,830,-31068,-3450,808,181.28,,,,,,,,,,,,
45383,1561297091242,6,2.29,2.48,2.8,2.25,3.15,0.43,0.16,0.81,0,-1,-4,0.46,11453,77,89,38,84,940,813.0,656,457,60,122.0,295,1,441,554,234,0,0,846,-25858,-10508,812,181.28,,,,,,,,,,,,
45403,1561297091262,4,2.3,2.47,2.81,2.24,3.17,0.39,0.14,0.84,0,2,-3,0.42,11467,79,89,38,84,938,819.0,652,457,60,122.0,295,1,441,554,241,0,0,847,-13580,-22796,816,-5.59,,,,,,,,,,,,
45423,1561297091282,3,2.3,2.47,2.8,2.24,3.17,0.39,0.14,0.87,0,2,-1,0.42,11460,74,89,38,84,938,823.0,653,458,60,121.0,295,1,440,554,241,0,0,852,-22796,-2826,820,-5.59,,,,,,,,,,,,
45443,1561297091299,1,2.31,2.47,2.82,2.26,3.15,0.43,0.06,0.81,1,2,-1,0.43,11531,90,89,38,84,933,825.0,658,457,60,122.0,295,1,440,535,241,0,0,840,-22796,-1578,825,181.28,45.699112,4.91014,80.17,197.2,0,0.0,0,0.0,0.4657,1,0.32,0.7574
45463,1561297091319,2,2.3,2.47,2.83,2.3,3.16,0.46,0.02,0.82,1,-1,-1,0.46,11574,95,89,38,83,922,828.0,660,459,60,122.0,295,1,440,537,241,0,0,851,-2830,-2570,826,181.28,,,,,,,,,,,,
45483,1561297091339,1,2.3,2.47,2.83,2.28,3.14,0.49,0.01,0.84,1,-1,-1,0.49,11638,80,89,38,83,913,830.0,660,459,60,122.0,295,1,440,539,241,0,0,857,-22796,-2766,827,181.28,,,,,,,,,,,,
45503,1561297091359,-1,2.3,2.46,2.83,2.25,3.17,0.53,0.09,0.76,1,-0,-1,0.53,11531,87,89,38,83,906,835.0,657,461,60,124.0,287,1,440,540,239,0,0,854,6790,-3335,834,414.87,,,,,,,,,,,,
45523,1561297091379,-0,2.29,2.45,2.87,2.26,3.25,0.54,-0.0,0.83,1,-1,-1,0.54,10984,97,89,38,85,899,841.0,657,464,60,124.0,287,1,443,572,239,0,0,863,-4096,-2766,838,181.28,,,,,,,,,,,,
45543,1561297091401,-1,2.3,2.44,2.92,2.23,3.27,0.64,-0.03,0.92,0,-3,-2,0.64,10659,84,89,38,87,885,836.0,655,458,60,124.0,287,1,437,609,239,0,0,833,-30694,-30694,837,181.28,45.699127,4.910155,82.22,197.2,0,0.0,0,0.0,0.4673,1,0.32,0.759
45563,1561297091421,-1,2.3,2.35,2.98,2.16,3.31,0.64,-0.07,0.92,0,-2,-3,0.64,10515,100,89,38,87,878,836.0,651,462,60,124.0,287,1,433,609,239,0,0,843,-30694,-30694,836,181.28,,,,,,,,,,,,
45583,1561297091441,7,2.29,2.3,3.0,2.12,3.35,0.68,-0.04,0.85,1,-2,-3,0.68,10302,100,89,38,88,875,836.0,649,460,60,124.0,287,1,419,628,239,0,0,836,-2830,-3344,836,181.28,,,,,,,,,,,,
45603,1561297091461,2,2.3,2.31,3.04,2.13,3.39,0.62,0.04,0.85,-0,-2,-3,0.62,10135,100,89,38,88,892,838.0,638,458,60,122.0,290,1,406,1121,243,0,0,832,-4096,-31066,833,-5.59,,,,,,,,,,,,
45623,1561297091481,5,2.3,2.3,3.04,2.13,3.34,0.64,0.09,0.93,0,1,-2,0.65,10032,88,89,38,88,971,836.0,646,454,60,121.0,290,1,399,1011,243,0,0,849,-4096,-3038,836,-5.59,,,,,,,,,,,,
45643,1561297091501,3,2.3,2.31,2.94,2.12,3.26,0.58,0.04,1.04,0,3,-1,0.59,10190,73,89,38,86,1046,840.0,640,454,60,122.0,290,1,409,846,243,0,0,861,-2830,-1580,838,181.28,45.699146,4.910171,83.08,197.2,0,0.0,0,0.0,0.469,1,0.32,0.7607
45663,1561297091521,5,2.3,2.32,2.87,2.15,3.18,0.5,0.04,1.12,1,4,-2,0.5,10113,93,89,38,85,1148,844.0,635,457,60,122.0,290,1,403,719,243,0,0,894,8838,4231,844,181.28,,,,,,,,,,,,
45683,1561297091541,4,2.29,2.36,2.76,2.21,3.12,0.43,0.11,1.21,0,3,-1,0.44,9894,89,89,38,85,1239,850.0,631,455,60,122.0,290,1,400,620,243,0,0,895,-3038,-10508,849,414.87,,,,,,,,,,,,
45703,1561297091561,0,2.3,2.4,2.75,2.21,3.08,0.42,0.02,1.08,0,5,-1,0.42,9842,76,89,38,85,1314,855.0,636,456,60,122.0,252,1,403,570,214,0,0,873,-2311,-2311,849,181.28,,,,,,,,,,,,
45723,1561297091581,2,2.31,2.4,2.73,2.22,3.08,0.44,-0.02,1.17,0,5,-2,0.44,9894,96,89,38,85,1421,853.0,635,462,60,122.0,252,1,400,555,214,0,0,875,-9995,-9995,852,181.28,,,,,,,,,,,,
45743,1561297091601,2,2.3,2.38,2.78,2.21,3.13,0.42,-0.01,1.17,-0,3,-1,0.42,9899,92,89,38,85,1441,858.0,633,460,60,122.0,252,1,400,571,214,0,0,885,-2311,-5120,855,-5.59,45.699165,4.910186,83.96,197.2,0,0.0,0,0.0,0.4707,1,0.33,0.7624
45763,1561297091621,1,2.31,2.36,2.89,2.19,3.15,0.46,-0.17,1.03,-1,3,-1,0.49,9994,73,89,38,85,1447,861.0,643,453,60,122.0,252,1,396,572,214,0,0,883,-1580,-1277,860,181.28,,,,,,,,,,,,
45783,1561297091641,3,2.32,2.37,2.95,2.16,3.29,0.4,-0.19,1.12,-0,3,-2,0.45,10140,98,89,38,85,1358,867.0,639,455,60,122.0,252,1,405,554,214,0,0,898,-3450,-3604,861,181.28,,,,,,,,,,,,
45803,1561297091661,4,2.31,2.39,2.91,2.2,3.28,0.37,-0.26,1.18,0,4,-2,0.46,10223,83,89,38,85,1304,868.0,648,455,60,122.0,254,1,411,572,220,0,0,893,-2574,-30778,867,181.28,,,,,,,,,,,,
45823,1561297091681,3,2.31,2.43,2.84,2.26,3.26,0.32,-0.21,1.11,0,3,0,0.38,10268,66,89,38,85,1189,869.0,639,457,60,122.0,254,1,414,572,220,0,0,912,-2574,3,867,-5.59,,,,,,,,,,,,
45843,1561297091701,2,2.32,2.44,2.81,2.26,3.21,0.31,-0.12,0.97,0,3,0,0.34,10268,92,89,38,85,1099,873.0,641,461,60,122.0,254,1,411,572,220,0,0,905,-9995,-2836,873,-5.59,45.699181,4.910201,85.66,197.3,0,0.0,0,0.0,0.4723,1,0.33,0.764
45863,1561297091721,2,2.32,2.43,2.79,2.27,3.22,0.33,-0.08,0.95,0,2,0,0.34,10195,92,89,38,85,1038,876.0,638,454,60,122.0,254,1,409,572,220,0,0,907,-10508,-30778,879,181.28,,,,,,,,,,,,
45883,1561297091741,4,2.32,2.43,2.81,2.27,3.22,0.39,-0.12,1.02,0,2,-0,0.41,10234,61,89,38,85,946,882.0,643,455,60,122.0,254,1,411,554,220,0,0,909,-779,-4876,880,181.28,,,,,,,,,,,,
45903,1561297091761,5,2.32,2.42,2.83,2.26,3.22,0.5,-0.1,1.08,1,-0,-0,0.51,10257,80,89,38,84,957,885.0,645,458,60,122.0,252,1,412,554,222,0,0,903,-1277,-4875,883,181.28,,,,,,,,,,,,
45923,1561297091781,4,2.31,2.4,2.82,2.24,3.26,0.53,-0.15,1.1,1,1,-1,0.55,10370,89,89,38,85,966,888.0,638,456,60,122.0,252,1,421,572,222,0,0,912,966,-4874,890,181.28,,,,,,,,,,,,
45943,1561297091801,3,2.32,2.4,2.82,2.25,3.24,0.53,-0.16,1.07,1,0,1,0.56,10382,71,89,38,84,978,894.0,638,455,60,122.0,252,1,421,554,222,0,0,922,-5120,-773,894,181.28,45.6992,4.910217,87.7,197.3,0,0.0,0,0.0,0.474,1,0.33,0.7657
45963,1561297091821,5,2.31,2.4,2.83,2.25,3.24,0.45,-0.13,1.05,1,-1,1,0.47,10439,41,89,38,82,989,897.0,637,460,60,122.0,252,1,425,528,222,0,0,927,-30778,-4874,892,-5.59,,,,,,,,,,,,
45983,1561297091841,4,2.31,2.41,2.79,2.25,3.23,0.5,-0.06,1.04,2,-0,-0,0.51,10451,56,89,38,75,988,899.0,632,462,60,122.0,252,1,427,409,222,0,0,920,1772,-4871,897,-5.59,,,,,,,,,,,,
46003,1561297091861,6,2.3,2.4,2.8,2.24,3.25,0.47,0.04,0.95,2,-1,-0,0.47,10353,35,89,38,65,988,900.0,637,456,60,123.0,200,1,432,421,180,0,0,924,-5120,218,896,-5.59,,,,,,,,,,,,
46023,1561297091881,5,2.3,2.4,2.85,2.25,3.26,0.5,-0.01,0.81,1,1,1,0.5,10234,5,89,38,54,984,904.0,640,458,60,122.0,200,1,400,316,180,0,0,922,-3348,-4873,898,181.28,,,,,,,,,,,,
46043,1561297091901,8,2.3,2.38,2.98,2.19,3.35,0.55,0.03,0.81,1,-2,2,0.55,9801,0,89,38,44,980,899.0,634,459,60,123.0,200,1,357,230,180,0,0,906,-5114,-4873,901,181.28,45.699219,4.910234,89.18,197.3,0,0.0,0,0.0,0.4757,1,0.33,0.7674
46063,1561297091921,10,2.29,2.34,3.04,2.14,3.41,0.7,0.01,0.88,1,-2,0,0.7,9576,0,89,38,38,977,899.0,635,464,60,123.0,200,1,317,210,180,0,0,902,-5120,4231,894,181.28,,,,,,,,,,,,
46083,1561297091941,9,2.3,2.22,3.1,2.09,3.42,0.71,-0.01,0.78,0,-2,0,0.71,9393,0,89,38,34,974,897.0,635,459,60,123.0,200,1,305,198,180,0,0,891,-5114,1772,897,181.28,,,,,,,,,,,,
46103,1561297091961,9,2.29,2.22,3.15,2.06,3.47,0.59,0.15,0.65,-0,-4,-1,0.61,9204,0,89,38,31,953,898.0,636,461,60,123.0,75,1,295,189,68,0,0,877,2028,2028,896,414.87,,,,,,,,,,,,
46123,1561297091981,10,2.29,2.19,3.19,2.0,3.49,0.6,0.1,0.56,-1,-2,0,0.6,9155,0,89,38,29,918,893.0,630,457,60,123.0,75,1,287,187,68,0,0,858,-14848,-31068,889,181.28,,,,,,,,,,,,
46143,1561297091996,14,2.3,2.16,3.12,1.99,3.46,0.6,0.09,0.56,-1,-5,0,0.61,9245,0,89,38,27,893,891.0,636,462,60,123.0,75,1,278,187,68,0,0,862,966,-31066,890,181.28,45.699238,4.91025,89.32,197.3,0,0.0,0,0.0,0.4773,1,0.34,0.769
46163,1561297092016,13,2.29,2.16,3.16,1.97,3.46,0.72,0.14,0.62,-1,-3,0,0.73,9272,0,89,38,26,868,885.0,631,458,60,123.0,75,1,274,186,68,0,0,855,-1277,-2426,881,181.28,,,,,,,,,,,,
46183,1561297092036,13,2.29,2.16,3.19,1.95,3.51,0.79,0.07,0.58,-1,-5,-2,0.8,9314,0,89,38,24,856,878.0,645,470,60,125.0,75,1,270,179,68,0,0,841,-1576,-3038,878,414.87,,,,,,,,,,,,
46203,1561297092056,13,2.28,2.16,3.19,1.95,3.52,0.76,0.13,0.57,-1,-3,-2,0.77,9323,0,89,38,23,845,870.0,634,458,60,124.0,72,1,270,174,63,0,0,848,-31066,136,870,181.28,,,,,,,,,,,,
46223,1561297092076,14,2.28,2.12,3.29,1.93,3.57,0.76,0.16,0.38,-1,-2,-3,0.78,9370,0,89,38,23,845,868.0,637,460,60,124.0,72,1,270,174,63,0,0,816,-2426,-4096,867,181.28,,,,,,,,,,,,
46243,1561297092101,13,2.3,2.04,3.34,1.88,3.6,0.83,0.11,0.47,-1,-2,-2,0.84,9314,0,89,38,22,858,869.0,633,466,60,122.0,72,1,270,168,63,0,0,800,-22795,-2830,867,181.28,45.699257,4.910266,88.64,197.4,0,0.0,0,0.0,0.479,1,0.34,0.7707
46263,1561297092121,16,2.3,2.06,3.34,1.87,3.61,0.87,-0.0,0.39,-1,-0,0,0.87,9168,0,89,38,21,870,866.0,641,462,60,122.0,72,1,270,162,63,0,0,802,-3450,-4096,863,181.28,,,,,,,,,,,,
46283,1561297092141,14,2.29,1.96,3.28,1.84,3.53,0.91,-0.03,0.54,-0,2,0,0.91,8992,0,89,38,21,882,863.0,635,465,60,122.0,72,1,270,233,63,0,0,827,-2570,-22796,863,-5.59,,,,,,,,,,,,
46303,1561297092161,16,2.3,1.92,3.18,1.78,3.44,1.02,0.0,0.45,-0,2,3,1.02,8790,0,89,38,20,885,861.0,632,460,60,122.0,81,1,270,205,71,0,0,854,-11019,-2311,858,181.28,,,,,,,,,,,,
46323,1561297092181,16,2.31,1.9,3.13,1.68,3.39,0.72,0.02,0.24,-1,4,0,0.72,8644,0,89,38,19,881,855.0,626,458,60,123.0,81,1,270,182,71,0,0,801,-2311,-13312,852,181.28,,,,,,,,,,,,
46343,1561297092203,20,2.29,1.88,3.05,1.67,3.42,0.79,0.06,0.03,-1,-0,-3,0.79,8806,0,90,38,19,871,846.0,627,456,60,122.0,81,1,270,168,71,0,0,834,-3450,-13068,847,414.87,45.699276,4.910283,86.39,197.4,0,0.0,0,0.0,0.4807,1,0.34,0.7724
46363,1561297092223,19,2.29,1.85,2.97,1.65,3.38,0.75,0.11,-0.02,-1,0,5,0.76,8749,0,89,38,19,851,841.0,627,461,60,123.0,81,1,270,153,71,0,0,807,-2574,-4096,838,414.87,,,,,,,,,,,,
46383,1561297092243,17,2.3,1.84,3.04,1.64,3.37,0.88,0.04,0.12,-2,-2,3,0.88,8794,0,89,38,18,841,837.0,618,460,60,123.0,81,1,270,144,71,0,0,816,-31066,-30694,832,-5.59,,,,,,,,,,,,
46403,1561297092263,17,2.31,1.84,3.16,1.64,3.42,0.98,0.0,0.14,-1,-2,0,0.98,8920,0,89,38,18,828,828.0,619,459,60,123.0,57,1,270,144,48,0,0,804,1037,204,826,-5.59,,,,,,,,,,,,
46423,1561297092283,16,2.3,1.83,3.21,1.64,3.55,1.08,-0.1,0.18,-0,-5,1,1.09,8920,0,89,38,18,813,820.0,624,462,60,122.0,57,1,270,144,48,0,0,768,-13580,-7436,820,-5.59,,,,,,,,,,,,
46443,1561297092300,20,2.28,1.82,3.26,1.64,3.62,1.16,-0.1,0.24,-1,-5,1,1.17,8967,0,90,38,18,805,816.0,625,457,60,123.0,57,1,270,144,48,0,0,746,1524,6389,818,-5.59,45.699295,4.910298,84.17,197.4,0,0.0,0,0.0,0.4823,1,0.34,0.774
46463,1561297092320,21,2.28,1.81,3.34,1.65,3.68,1.22,-0.2,0.26,-2,-5,-0,1.24,9040,0,90,38,18,797,813.0,622,462,60,123.0,57,1,270,144,48,0,0,682,-25858,-388,813,-5.59,,,,,,,,,,,,
46483,1561297092340,18,2.28,1.87,3.42,1.64,3.68,1.29,-0.19,0.16,-2,-4,1,1.3,9071,0,89,38,18,798,809.0,631,463,60,123.0,57,1,270,144,48,0,0,642,-3450,-27404,806,181.28,,,,,,,,,,,,
46503,1561297092360,20,2.27,1.91,3.41,1.65,3.6,1.36,-0.28,0.19,-2,-3,-0,1.39,8971,0,90,38,17,800,803.0,630,465,60,122.0,61,1,270,60,49,0,0,653,-2560,2024,800,-5.59,,,,,,,,,,,,
46523,1561297092380,22,2.27,1.92,3.34,1.66,3.57,1.4,-0.27,0.2,-2,-3,1,1.42,8786,0,89,38,17,809,801.0,630,462,60,123.0,61,1,270,138,49,0,0,685,-13072,3543,794,181.28,,,,,,,,,,,,
46543,1561297092402,20,2.28,1.9,3.27,1.66,3.58,1.39,-0.3,0.15,-3,-2,-2,1.42,8757,0,90,38,17,815,793.0,629,460,60,123.0,61,1,270,138,49,0,0,636,-2540,16599,782,414.87,45.699314,4.910313,81.22,197.4,0,0.0,0,0.0,0.484,1,0.35,0.7757
46563,1561297092422,19,2.28,1.86,3.3,1.62,3.56,1.22,-0.21,0.08,-3,-0,-2,1.24,8790,0,89,38,17,824,784.0,626,458,60,123.0,61,1,270,138,49,0,0,615,-2344,-2345,778,181.28,,,,,,,,,,,,
46583,1561297092442,25,2.28,1.85,3.3,1.6,3.53,1.15,-0.05,-0.02,-4,-2,-3,1.15,8794,0,89,38,17,831,785.0,621,463,60,123.0,61,1,270,138,49,0,0,633,-2344,-4876,777,414.87,,,,,,,,,,,,
46603,1561297092462,25,2.31,1.82,3.32,1.56,3.55,1.19,-0.02,0.02,-4,-1,-4,1.19,8761,0,90,38,17,848,782.0,627,460,60,123.0,58,1,270,138,45,0,0,647,-22795,506,770,414.87,,,,,,,,,,,,
46623,1561297092482,22,2.32,1.79,3.29,1.55,3.55,1.28,-0.06,0.11,-4,-2,-6,1.28,8640,0,90,38,17,858,776.0,619,462,60,122.0,58,1,270,138,45,0,0,632,-31068,3403,765,-5.59,,,,,,,,,,,,
46643,1561297092502,23,2.31,1.79,3.24,1.59,3.51,1.29,-0.08,0.04,-3,-2,-6,1.29,8499,3,90,38,18,867,767.0,618,461,60,123.0,58,1,270,144,45,0,0,645,-10216,-10346,761,181.28,45.699333,4.910327,78.75,197.4,0,0.0,0,0.0,0.4857,1,0.35,0.7774
46663,1561297092522,23,2.33,1.81,3.24,1.59,3.5,1.25,-0.02,0.04,-3,-1,-7,1.25,8461,0,90,38,18,872,754.0,613,459,60,122.0,58,1,270,143,45,0,0,633,-2574,-388,754,-5.59,,,,,,,,,,,,
46683,1561297092542,23,2.32,1.79,3.26,1.52,3.52,1.33,-0.08,0.06,-4,-1,-7,1.33,8561,0,90,38,19,886,751.0,612,462,60,123.0,58,1,270,149,45,0,0,640,136,3543,740,-5.59,,,,,,,,,,,,
46703,1561297092562,18,2.32,1.76,3.29,1.49,3.56,1.3,0.01,0.09,-3,0,-8,1.3,8585,0,90,38,19,903,745.0,618,462,60,123.0,64,1,270,149,48,0,0,657,-2826,506,739,181.28,,,,,,,,,,,,
46723,1561297092582,23,2.32,1.77,3.29,1.52,3.61,1.22,0.1,0.06,-2,1,-6,1.22,8593,0,90,38,19,908,740.0,622,460,60,123.0,64,1,270,149,48,0,0,631,-2356,17344,738,181.28,,,,,,,,,,,,
46743,1561297092602,22,2.31,1.78,3.32,1.56,3.62,1.3,0.04,0.06,-3,0,-5,1.3,8461,0,90,38,19,919,733.0,623,461,60,122.0,64,1,270,148,48,0,0,559,-22796,11566,731,181.28,45.699348,4.910342,75.3,197.5,0,0.0,0,0.0,0.4873,1,0.35,0.779
46763,1561297092622,23,2.31,1.79,3.28,1.58,3.53,1.32,0.09,0.08,-2,-0,-6,1.32,8259,0,90,38,19,931,724.0,612,463,60,123.0,64,1,270,145,48,0,0,570,31988,24845,724,414.87,,,,,,,,,,,,
46783,1561297092642,19,2.3,1.78,3.26,1.55,3.51,1.39,0.09,0.05,-2,-1,-4,1.39,8130,0,90,38,20,946,720.0,603,461,60,123.0,64,1,270,147,48,0,0,619,-2830,1780,712,181.28,,,,,,,,,,,,
46803,1561297092662,22,2.3,1.78,3.29,1.53,3.52,1.42,0.11,0.05,-2,-3,-4,1.42,8166,0,90,38,20,958,709.0,595,462,60,123.0,61,1,270,147,44,0,0,625,-12152,-3488,709,181.28,,,,,,,,,,,,
46823,1561297092682,19,2.3,1.78,3.32,1.52,3.56,1.4,0.11,0.09,-3,-2,-3,1.4,8166,0,90,38,20,965,708.0,594,461,60,123.0,61,1,270,71,44,0,0,619,-30694,17344,705,-5.59,,,,,,,,,,,,
46843,1561297092702,18,2.31,1.78,3.32,1.51,3.57,1.38,0.08,0.08,-3,-5,-3,1.38,8155,0,90,38,20,984,705.0,598,460,60,123.0,61,1,270,147,44,0,0,588,687,4956,700,181.28,45.699364,4.910355,72.16,197.5,0,0.0,0,0.0,0.489,1,0.35,0.7807
46863,1561297092722,17,2.32,1.77,3.31,1.51,3.58,1.16,0.1,0.01,-2,-2,-4,1.16,8074,0,90,38,20,996,699.0,593,461,60,124.0,61,1,270,146,44,0,0,602,6208,23619,693,414.87,,,,,,,,,,,,
46883,1561297092742,18,2.32,1.78,3.3,1.54,3.56,1.14,0.01,-0.05,-2,-3,-4,1.14,7985,0,90,38,20,1008,690.0,584,462,60,124.0,61,1,269,144,44,0,0,607,-2830,243,687,181.28,,,,,,,,,,,,
46903,1561297092762,17,2.33,1.78,3.31,1.56,3.56,1.18,0.04,-0.08,-2,-4,-2,1.18,7988,0,90,38,20,1020,686.0,583,465,60,124.0,62,1,269,144,43,0,0,563,-26562,3472,686,181.28,,,,,,,,,,,,
46923,1561297092782,17,2.34,1.77,3.29,1.54,3.56,1.01,0.01,-0.15,-2,-2,-2,1.01,7968,0,90,38,20,1038,681.0,583,462,60,123.0,62,1,269,144,43,0,0,566,-2345,208,677,181.28,,,,,,,,,,,,
46943,1561297092802,22,2.33,1.74,3.3,1.52,3.56,0.84,-0.05,-0.21,-1,-2,0,0.84,7855,0,90,38,20,1051,674.0,581,462,60,123.0,62,1,268,144,43,0,0,586,-3038,-23055,675,181.28,45.699379,4.910368,69.64,197.5,0,0.0,0,0.0,0.4907,1,0.35,0.7824
46963,1561297092822,16,2.32,1.74,3.29,1.53,3.57,0.96,-0.06,-0.14,-1,-3,1,0.96,7848,0,90,38,20,1066,669.0,583,458,60,122.0,62,1,268,201,43,0,0,575,-2345,30208,669,181.28,,,,,,,,,,,,
46983,1561297092842,17,2.31,1.74,3.29,1.53,3.59,1.07,-0.03,-0.08,-1,-4,-0,1.07,7881,0,90,38,19,1071,665.0,580,462,60,122.0,62,1,268,187,43,0,0,547,8958,-2934,661,181.28,,,,,,,,,,,,
47003,1561297092862,20,2.31,1.75,3.3,1.54,3.58,1.12,-0.03,-0.05,0,-6,1,1.12,7741,0,90,39,19,1075,658.0,581,461,60,121.0,79,1,267,170,53,0,0,542,-6006,-768,658,-5.59,,,,,,,,,,,,
47023,1561297092882,20,2.31,1.74,3.25,1.56,3.56,1.09,-0.01,-0.08,1,-8,-0,1.09,7656,0,90,39,18,1076,650.0,579,460,60,121.0,79,1,266,62,53,0,0,568,-8429,28675,650,-5.59,,,,,,,,,,,,
47043,1561297092902,20,2.31,1.71,3.25,1.56,3.59,1.0,-0.02,-0.14,2,-6,-1,1.0,7631,0,90,39,18,1074,644.0,573,462,60,122.0,79,1,266,146,53,0,0,558,-10251,19621,644,181.28,45.699394,4.91038,66.5,197.5,0,0.0,0,0.0,0.4923,1,0.36,0.784
47063,1561297092922,20,2.3,1.68,3.28,1.59,3.6,0.83,-0.03,-0.19,1,-3,-0,0.83,7662,0,90,39,18,1066,640.0,572,462,60,121.0,79,1,266,140,53,0,0,539,966,208,640,-5.59,,,,,,,,,,,,
47083,1561297092942,21,2.29,1.67,3.29,1.57,3.6,0.79,-0.09,-0.23,1,-3,2,0.8,7643,0,90,39,18,1037,635.0,571,461,60,121.0,79,1,266,140,53,0,0,538,-16883,-3210,635,414.87,,,,,,,,,,,,
47103,1561297092962,21,2.29,1.67,3.32,1.56,3.6,0.79,-0.13,-0.19,2,-2,3,0.8,7539,0,90,39,18,971,631.0,565,460,60,122.0,63,1,265,140,40,0,0,531,17336,-3210,630,414.87,,,,,,,,,,,,
47123,1561297092982,22,2.28,1.67,3.29,1.57,3.6,0.77,-0.17,-0.27,2,3,2,0.79,7443,3,90,39,18,921,626.0,555,461,60,121.0,63,1,264,140,40,0,0,527,16529,2216,627,414.87,,,,,,,,,,,,
47143,1561297092996,19,2.28,1.68,3.22,1.62,3.61,0.77,-0.3,-0.11,1,-2,1,0.82,7244,3,90,39,18,872,617.0,549,462,60,121.0,63,1,262,140,40,0,0,535,-3446,28675,617,181.28,45.69941,4.910392,63.9,197.5,0,0.0,0,0.0,0.494,1,0.36,0.7857
47163,1561297093016,17,2.26,1.68,3.21,1.63,3.65,0.81,-0.24,-0.13,1,-2,5,0.85,7156,0,90,39,18,838,612.0,536,462,60,120.0,63,1,261,62,40,0,0,501,30227,4956,612,-5.59,,,,,,,,,,,,
47183,1561297093036,15,2.28,1.68,3.24,1.61,3.61,0.93,-0.11,0.05,2,-9,3,0.94,7043,3,90,39,18,795,603.0,535,465,60,122.0,63,1,260,140,40,0,0,410,23619,10432,603,414.87,,,,,,,,,,,,
47203,1561297093056,22,2.27,1.67,3.3,1.56,3.6,1.04,-0.08,0.06,2,-11,1,1.04,7214,0,90,39,19,763,601.0,538,461,60,122.0,64,1,262,143,39,0,0,415,23619,10408,601,181.28,,,,,,,,,,,,
47223,1561297093076,20,2.28,1.66,3.32,1.54,3.62,0.93,-0.15,-0.05,2,-6,1,0.94,7287,3,90,39,19,768,595.0,537,459,60,121.0,64,1,262,143,39,0,0,373,-28648,8200,595,-5.59,,,,,,,,,,,,
47243,1561297093102,18,2.28,1.65,3.3,1.56,3.63,0.75,-0.16,-0.09,2,-3,3,0.76,7164,3,90,39,19,780,592.0,537,462,60,123.0,64,1,261,65,39,0,0,346,208,-14707,591,-5.59,45.699421,4.910403,61.1,197.5,0,0.0,0,0.0,0.4957,1,0.36,0.7874
47263,1561297093122,15,2.28,1.67,3.28,1.6,3.59,0.87,-0.11,0.01,2,-3,3,0.88,7017,0,90,39,19,804,586.0,535,463,60,123.0,64,1,260,143,39,0,0,327,10432,-26615,586,-5.59,,,,,,,,,,,,
47283,1561297093142,19,2.26,1.68,3.24,1.6,3.57,0.99,-0.19,0.01,2,-4,2,1.01,6865,0,90,39,19,820,581.0,526,463,60,124.0,64,1,259,141,39,0,0,334,774,-21872,579,414.87,,,,,,,,,,,,
47303,1561297093162,16,2.26,1.67,3.24,1.62,3.56,0.96,-0.14,-0.06,2,-3,2,0.97,6815,0,90,39,19,831,574.0,519,462,60,122.0,62,1,259,140,36,0,0,331,1780,-3856,574,-5.59,,,,,,,,,,,,
47323,1561297093182,19,2.25,1.67,3.25,1.57,3.57,1.06,-0.1,0.02,1,-5,3,1.07,6865,3,90,39,19,855,564.0,518,461,60,124.0,62,1,259,141,36,0,0,303,-23623,6193,565,181.28,,,,,,,,,,,,
47343,1561297093202,15,2.25,1.66,3.28,1.53,3.6,0.93,-0.12,-0.11,0,-1,2,0.93,6900,3,90,39,19,876,558.0,519,461,60,123.0,62,1,259,141,36,0,0,283,-32504,21580,556,-5.59,45.699432,4.910414,58.11,197.5,0,0.0,0,0.0,0.4973,1,0.36,0.789
47363,1561297093222,19,2.25,1.68,3.29,1.53,3.61,1.04,-0.1,-0.01,0,-4,1,1.04,6838,3,90,39,20,906,557.0,514,463,60,123.0,62,1,259,143,36,0,0,255,2216,1779,552,181.28,,,,,,,,,,,,
47383,1561297093242,16,2.25,1.69,3.26,1.53,3.6,0.93,-0.05,-0.1,-1,-4,-1,0.93,6672,3,90,39,20,916,554.0,511,462,60,122.0,62,1,259,142,36,0,0,252,-22263,-23367,546,414.87,,,,,,,,,,,,
47403,1561297093262,16,2.25,1.68,3.21,1.55,3.59,1.02,-0.11,-0.0,-2,-3,-3,1.03,6558,3,90,39,20,940,547.0,503,456,60,124.0,64,1,258,141,35,0,0,264,-22519,-32248,542,181.28,,,,,,,,,,,,
47423,1561297093282,14,2.25,1.68,3.24,1.55,3.6,1.06,-0.05,-0.01,-2,-3,-3,1.07,6585,0,90,39,20,960,542.0,498,461,60,123.0,64,1,258,141,35,0,0,223,-3082,-4054,531,-5.59,,,,,,,,,,,,
47443,1561297093301,15,2.25,1.68,3.28,1.52,3.59,1.04,-0.04,-0.04,-3,-2,-2,1.05,6663,0,90,39,20,989,539.0,502,463,60,124.0,64,1,259,142,35,0,0,197,1780,-3210,527,414.87,45.699448,4.910425,55.56,197.5,0,0.0,0,0.0,0.499,1,0.36,0.7907
47463,1561297093321,18,2.23,1.69,3.31,1.49,3.57,1.14,-0.01,0.06,-5,-1,-4,1.14,6576,0,90,40,21,998,535.0,499,459,60,124.0,64,1,260,144,35,0,0,191,6274,248,521,181.28,,,,,,,,,,,,
47483,1561297093341,13,2.24,1.7,3.3,1.5,3.55,1.14,0.1,-0.05,-5,2,-6,1.14,6414,3,90,40,21,1014,532.0,497,461,60,122.0,64,1,260,143,35,0,0,205,14504,-9216,515,-5.59,,,,,,,,,,,,
47503,1561297093361,14,2.24,1.72,3.26,1.49,3.51,1.22,0.1,-0.14,-6,1,-7,1.23,6351,3,90,40,21,1034,530.0,499,461,60,123.0,66,1,260,142,34,0,0,227,-9072,248,506,414.87,,,,,,,,,,,,
47523,1561297093381,15,2.25,1.82,3.25,1.49,3.5,1.27,0.1,-0.05,-8,-1,-8,1.27,6379,0,90,40,21,1049,524.0,492,461,60,124.0,66,1,260,142,34,0,0,235,-9212,3576,501,181.28,,,,,,,,,,,,
47543,1561297093399,15,2.26,1.85,3.28,1.48,3.5,1.25,0.19,-0.02,-9,-2,-10,1.26,6452,0,90,40,21,1058,519.0,492,463,60,123.0,66,1,260,143,34,0,0,231,16383,7154,492,-5.59,45.699459,4.910434,52.44,197.5,0,0.0,0,0.0,0.5007,1,0.37,0.7924
47563,1561297093419,13,2.27,1.85,3.28,1.47,3.5,1.27,0.23,-0.09,-9,1,-14,1.29,6438,3,90,40,21,1064,514.0,499,463,60,123.0,66,1,260,143,34,0,0,265,17136,17144,487,414.87,,,,,,,,,,,,
47583,1561297093439,12,2.29,1.83,3.26,1.47,3.5,1.33,0.26,-0.07,-10,2,-14,1.36,6351,0,90,40,22,1076,509.0,492,457,60,124.0,66,1,261,146,34,0,0,309,10994,7154,481,414.87,,,,,,,,,,,,
47603,1561297093459,12,2.31,1.82,3.26,1.47,3.49,1.31,0.21,-0.03,-11,2,-14,1.33,6368,3,90,40,22,1086,504.0,489,459,60,124.0,73,1,261,146,35,0,0,322,-32248,-3866,476,181.28,,,,,,,,,,,,
47623,1561297093479,16,2.32,1.82,3.29,1.46,3.47,1.28,0.24,-0.02,-12,0,-14,1.3,6452,3,90,40,22,1088,495.0,492,461,60,123.0,73,1,261,146,35,0,0,342,771,-14714,469,-5.59,,,,,,,,,,,,
47643,1561297093499,9,2.33,1.83,3.36,1.45,3.49,1.19,0.25,-0.01,-13,1,-16,1.22,6461,0,90,40,22,1082,491.0,497,462,60,123.0,73,1,261,146,35,0,0,362,248,23040,465,414.87,45.69947,4.910444,49.74,197.5,0,0.0,0,0.0,0.5023,1,0.37,0.794
47663,1561297093519,11,2.36,1.84,3.35,1.46,3.49,1.21,0.21,0.06,-13,2,-17,1.23,6390,3,90,40,22,1057,488.0,493,461,60,124.0,73,1,261,146,35,0,0,376,-1562,105,463,181.28,,,,,,,,,,,,
47683,1561297093539,14,2.36,1.85,3.32,1.46,3.49,1.19,0.23,0.01,-13,1,-17,1.22,6315,3,90,40,22,1016,482.0,488,458,60,123.0,73,1,261,146,35,0,0,379,-899,-31222,458,181.28,,,,,,,,,,,,
47703,1561297093559,13,2.38,1.84,3.28,1.48,3.49,1.23,0.3,0.02,-12,0,-16,1.27,6334,3,90,40,22,989,471.0,483,461,60,123.0,73,1,261,146,34,0,0,350,32033,2060,455,-5.59,,,,,,,,,,,,
47723,1561297093579,9,2.38,1.85,3.27,1.49,3.49,1.2,0.26,-0.0,-12,1,-13,1.22,6445,0,90,40,22,952,464.0,489,462,60,122.0,73,1,261,146,34,0,0,312,16408,-14707,449,-5.59,,,,,,,,,,,,
47743,1561297093600,9,2.4,1.85,3.29,1.48,3.49,1.14,0.3,0.06,-13,-0,-13,1.17,6483,3,90,40,22,900,458.0,491,463,60,123.0,73,1,261,146,34,0,0,323,17628,165,446,414.87,45.699478,4.910452,46.99,197.5,0,0.0,0,0.0,0.504,1,0.37,0.7957
47763,1561297093620,11,2.4,1.85,3.31,1.48,3.48,1.12,0.34,0.13,-12,0,-13,1.17,6449,0,90,40,22,845,456.0,492,462,60,123.0,73,1,261,69,34,0,0,373,-6387,-25856,444,-5.59,,,,,,,,,,,,
47783,1561297093640,7,2.4,1.85,3.31,1.48,3.47,1.1,0.36,0.06,-10,1,-12,1.16,6403,3,90,40,22,807,450.0,497,461,60,122.0,73,1,261,146,34,0,0,386,-3267,6668,440,181.28,,,,,,,,,,,,
47803,1561297093660,8,2.4,1.84,3.32,1.47,3.46,1.2,0.3,0.12,-9,-2,-12,1.23,6476,3,90,40,22,792,441.0,496,464,60,123.0,79,1,261,146,35,0,0,339,-18341,-31206,438,414.87,,,,,,,,,,,,
47823,1561297093680,9,2.4,1.82,3.3,1.47,3.46,1.12,0.33,0.13,-8,-2,-11,1.16,6524,3,90,40,22,780,437.0,496,461,60,123.0,79,1,261,146,35,0,0,331,19477,3183,437,181.28,,,,,,,,,,,,
47843,1561297093699,3,2.4,1.84,3.29,1.47,3.47,1.09,0.37,0.06,-7,-1,-9,1.15,6546,3,90,40,22,774,433.0,495,464,60,123.0,79,1,261,146,35,0,0,345,243,770,433,181.28,45.69949,4.91046,44.73,197.5,0,0.0,0,0.0,0.5057,1,0.37,0.7974
47863,1561297093719,0,2.41,1.83,3.28,1.47,3.47,1.17,0.3,0.14,-6,-2,-9,1.21,6597,3,90,40,22,777,429.0,501,461,60,123.0,79,1,261,147,35,0,0,352,31796,-1268,429,414.87,,,,,,,,,,,,
47883,1561297093739,1,2.41,1.83,3.29,1.48,3.48,1.07,0.3,0.13,-5,1,-7,1.11,6694,3,90,40,22,793,429.0,502,462,60,123.0,79,1,261,147,35,0,0,374,-3856,-31206,427,-5.59,,,,,,,,,,,,
47903,1561297093759,3,2.4,1.87,3.27,1.52,3.46,1.16,0.24,0.25,-4,0,-5,1.19,6764,3,90,40,22,813,426.0,511,462,60,123.0,86,1,260,148,37,0,0,372,-8165,-29302,426,414.87,,,,,,,,,,,,
47923,1561297093779,-0,2.41,1.91,3.26,1.57,3.46,1.04,0.19,0.22,-2,1,-4,1.06,6848,3,90,40,21,847,425.0,515,462,60,122.0,86,1,260,148,37,0,0,381,-26615,19125,425,-5.59,,,,,,,,,,,,
47943,1561297093799,3,2.42,1.94,3.26,1.64,3.46,1.12,0.29,0.22,-0,-1,-2,1.15,6906,3,90,40,21,862,419.0,522,465,60,123.0,86,1,260,146,37,0,0,395,-26615,6384,419,414.87,45.699497,4.910467,42.35,197.5,0,0.0,0,0.0,0.5073,1,0.37,0.799
47963,1561297093819,1,2.42,1.92,3.26,1.63,3.47,1.12,0.14,0.21,2,-0,-1,1.13,6978,3,90,40,21,880,418.0,525,460,60,123.0,86,1,260,146,37,0,0,395,10541,28696,419,414.87,,,,,,,,,,,,
47983,1561297093839,1,2.41,1.87,3.25,1.66,3.48,0.99,0.12,0.15,5,1,1,1.0,7064,3,90,40,21,896,416.0,526,461,60,123.0,86,1,261,147,37,0,0,390,28696,1,416,181.28,,,,,,,,,,,,
48003,1561297093859,0,2.39,1.84,3.16,1.76,3.48,1.1,0.17,0.22,6,-3,2,1.11,7181,3,90,40,20,919,414.0,529,466,60,124.0,93,1,261,144,39,0,0,382,-32702,-6656,414,181.28,,,,,,,,,,,,
48023,1561297093879,-0,2.38,1.81,3.07,1.85,3.5,1.19,0.15,0.27,7,-3,4,1.2,7239,0,90,40,20,937,410.0,535,461,60,123.0,93,1,262,144,39,0,0,383,505,10541,410,414.87,,,,,,,,,,,,
48043,1561297093899,6,2.35,1.77,3.07,1.86,3.52,1.17,0.03,0.28,6,-2,5,1.17,7338,0,90,40,20,945,406.0,542,463,60,122.0,93,1,263,144,39,0,0,384,-1562,-1818,406,414.87,45.699509,4.910474,40.91,197.6,0,0.0,0,0.0,0.509,1,0.37,0.8007
48063,1561297093919,4,2.33,1.77,3.1,1.85,3.53,1.15,-0.05,0.31,6,-3,6,1.15,7350,0,90,40,19,955,400.0,547,458,60,123.0,93,1,263,142,39,0,0,384,-6524,240,403,414.87,,,,,,,,,,,,
48083,1561297093939,4,2.31,1.78,3.17,1.85,3.55,0.89,-0.16,0.22,5,2,7,0.9,7341,0,90,40,19,960,399.0,550,461,60,122.0,93,1,263,142,39,0,0,384,-31744,240,398,414.87,,,,,,,,,,,,
48103,1561297093959,2,2.28,1.84,3.16,1.87,3.51,0.68,-0.18,0.11,4,5,8,0.7,7244,3,90,40,19,965,398.0,547,461,60,122.0,97,1,262,142,39,0,0,384,-31744,-19126,396,-5.59,,,,,,,,,,,,
48123,1561297093979,0,2.26,1.87,3.14,1.83,3.43,0.72,-0.16,0.13,4,3,7,0.74,7181,0,90,40,19,964,395.0,542,460,60,123.0,97,1,261,142,39,0,0,386,-6524,505,393,181.28,,,,,,,,,,,,
48143,1561297093995,-1,2.26,1.87,3.13,1.83,3.41,0.85,-0.04,0.26,4,1,7,0.85,7129,0,90,40,19,963,391.0,538,461,60,123.0,97,1,261,142,39,0,0,389,-1562,-19126,391,181.28,45.699516,4.91048,39.6,197.6,0,0.0,0,0.0,0.5107,1,0.37,0.8024
48163,1561297094015,3,2.25,1.87,3.13,1.81,3.41,0.97,-0.1,0.32,3,1,5,0.98,7075,3,90,40,19,962,392.0,539,460,60,123.0,97,1,260,142,39,0,0,382,1,19125,386,414.87,,,,,,,,,,,,
48183,1561297094035,-0,2.25,1.89,3.12,1.77,3.41,0.71,-0.1,0.16,2,4,4,0.72,7080,3,90,40,19,962,389.0,533,462,60,122.0,97,1,260,142,39,0,0,381,-6524,2278,383,-5.59,,,,,,,,,,,,
48203,1561297094055,-2,2.26,1.92,3.13,1.75,3.41,0.84,0.01,0.22,1,1,3,0.85,7070,0,90,40,19,963,387.0,535,461,60,124.0,99,1,260,142,38,0,0,380,240,1,381,181.28,,,,,,,,,,,,
48223,1561297094075,4,2.26,1.94,3.13,1.74,3.42,0.96,-0.01,0.35,-0,1,3,0.96,7043,1,90,40,19,963,386.0,536,460,60,123.0,99,1,260,142,38,0,0,380,-3866,3,377,181.28,,,,,,,,,,,,
48243,1561297094101,0,2.26,1.98,3.14,1.74,3.43,0.8,-0.06,0.22,-1,3,3,0.8,7035,6,90,40,20,963,384.0,532,461,60,123.0,99,1,260,144,38,0,0,375,-19019,3,377,414.87,45.699528,4.910487,38.36,197.6,0,0.0,0,0.0,0.5123,1,0.37,0.8041
48263,1561297094121,-2,2.24,2.0,3.14,1.76,3.39,0.68,0.07,0.14,-1,5,2,0.68,7017,7,90,40,21,963,385.0,529,461,60,123.0,99,1,260,147,38,0,0,375,19125,-6656,376,-5.59,,,,,,,,,,,,
48283,1561297094141,3,2.21,2.04,3.13,1.76,3.32,0.81,0.13,0.29,-2,1,2,0.82,6965,6,90,40,23,961,381.0,530,459,60,124.0,99,1,260,151,38,0,0,376,-992,0,373,181.28,,,,,,,,,,,,
48303,1561297094161,2,2.18,2.08,3.15,1.75,3.31,0.77,0.12,0.18,-3,2,1,0.78,6936,8,90,40,25,958,379.0,523,459,60,122.0,107,1,261,156,40,0,0,372,3,-6656,370,181.28,,,,,,,,,,,,
48323,1561297094181,0,2.16,2.06,3.17,1.63,3.3,0.84,0.22,0.23,-4,-1,0,0.86,6911,8,90,40,26,954,377.0,519,460,60,123.0,107,1,265,157,40,0,0,369,-6656,0,367,181.28,,,,,,,,,,,,
48343,1561297094201,3,2.15,2.05,3.2,1.55,3.25,0.87,0.23,0.29,-5,1,-2,0.9,6906,6,90,40,27,951,377.0,517,462,60,123.0,107,1,269,158,40,0,0,371,-6656,3082,367,414.87,45.699532,4.910493,37.22,197.6,0,0.0,0,0.0,0.514,1,0.37,0.8057
48363,1561297094221,-0,2.13,2.06,3.23,1.56,3.25,0.87,0.33,0.24,-5,1,-4,0.93,6893,14,90,40,27,949,379.0,516,460,60,122.0,107,1,270,158,40,0,0,373,8200,-29978,364,-5.59,,,,,,,,,,,,
48383,1561297094241,5,2.13,2.06,3.24,1.56,3.25,0.89,0.33,0.35,-7,0,-5,0.95,6873,9,90,40,29,942,380.0,516,458,60,124.0,107,1,278,160,40,0,0,375,-992,-6640,361,181.28,,,,,,,,,,,,
48403,1561297094261,0,2.12,2.09,3.24,1.55,3.26,0.85,0.3,0.21,-8,3,-7,0.9,6835,11,90,40,30,927,379.0,518,457,60,122.0,113,1,282,163,41,0,0,372,8200,-29302,360,-5.59,,,,,,,,,,,,
48423,1561297094281,5,2.12,2.14,3.24,1.55,3.26,0.83,0.29,0.32,-10,1,-9,0.88,6800,18,90,40,34,903,380.0,515,461,60,123.0,113,1,295,171,41,0,0,375,-992,-30454,357,181.28,,,,,,,,,,,,
48443,1561297094300,1,2.12,2.21,3.26,1.57,3.29,0.83,0.28,0.26,-11,3,-10,0.88,6788,11,90,40,37,888,379.0,513,461,60,123.0,113,1,304,193,41,0,0,374,8200,4104,355,-5.59,45.699543,4.910499,36.44,197.6,0,0.0,0,0.0,0.5157,1,0.38,0.8074
48463,1561297094320,2,2.11,2.27,3.26,1.59,3.26,0.84,0.35,0.31,-12,2,-11,0.92,6764,19,90,40,40,869,378.0,511,461,60,123.0,113,1,317,205,41,0,0,374,2278,2811,354,181.28,,,,,,,,,,,,
48483,1561297094340,-0,2.09,2.29,3.23,1.6,3.15,0.86,0.38,0.3,-13,1,-13,0.94,6737,20,90,40,43,859,379.0,513,462,60,122.0,113,1,338,210,41,0,0,371,8200,-6644,350,414.87,,,,,,,,,,,,
48503,1561297094360,5,2.06,2.3,3.22,1.59,3.12,0.97,0.49,0.35,-14,0,-13,1.09,6776,27,90,40,46,846,375.0,515,455,60,123.0,154,1,359,213,54,0,0,372,770,-1246,347,181.28,,,,,,,,,,,,
48523,1561297094380,0,2.04,2.29,3.26,1.57,3.13,0.83,0.5,0.33,-16,1,-14,0.97,6830,20,90,40,48,851,374.0,517,458,60,123.0,154,1,370,223,54,0,0,370,742,6870,347,414.87,,,,,,,,,,,,
48543,1561297094401,-1,2.03,2.29,3.29,1.54,3.12,0.91,0.55,0.39,-17,1,-16,1.06,6800,18,90,40,49,856,376.0,515,459,60,123.0,154,1,373,154,54,0,0,375,-6656,6870,344,-5.59,45.699551,4.910504,35.53,197.6,0,0.0,0,0.0,0.5173,1,0.38,0.809
48563,1561297094421,3,2.01,2.3,3.31,1.51,3.11,0.81,0.46,0.34,-19,2,-18,0.93,6773,19,90,40,51,882,376.0,514,457,60,123.0,154,1,379,237,54,0,0,375,-992,-14714,342,414.87,,,,,,,,,,,,
48583,1561297094441,1,2.02,2.32,3.33,1.5,3.11,0.93,0.58,0.42,-20,-1,-21,1.1,6764,22,90,40,53,899,379.0,514,458,60,122.0,154,1,385,242,54,0,0,374,8200,-31206,341,-5.59,,,,,,,,,,,,
48603,1561297094461,1,2.01,2.35,3.34,1.51,3.1,0.78,0.5,0.4,-22,2,-23,0.93,6808,31,90,40,54,922,379.0,510,458,60,123.0,185,1,388,252,63,0,0,375,8200,-31222,339,414.87,,,,,,,,,,,,
48623,1561297094481,0,2.0,2.39,3.38,1.5,3.12,0.91,0.58,0.48,-23,-1,-25,1.08,6805,28,90,40,55,934,378.0,509,454,60,123.0,185,1,391,184,63,0,0,377,2278,-6528,336,-5.59,,,,,,,,,,,,
48643,1561297094500,2,2.0,2.41,3.4,1.5,3.14,0.8,0.57,0.46,-24,1,-26,0.98,6808,33,90,40,56,995,377.0,514,458,60,124.0,185,1,395,260,63,0,0,372,-6656,3346,336,414.87,45.699558,4.910509,34.87,197.6,0,0.0,0,0.0,0.519,1,0.38,0.8107
48663,1561297094520,0,2.01,2.42,3.41,1.52,3.13,0.76,0.6,0.41,-25,1,-27,0.96,6923,32,90,40,57,1051,378.0,511,456,60,122.0,185,1,402,267,63,0,0,372,2278,3346,335,-5.59,,,,,,,,,,,,
48683,1561297094540,1,2.01,2.45,3.42,1.53,3.14,0.88,0.67,0.45,-26,1,-29,1.11,6944,26,90,40,57,1085,379.0,521,456,60,124.0,185,1,402,267,63,0,0,372,8200,-31222,335,181.28,,,,,,,,,,,,
48703,1561297094560,3,2.01,2.49,3.42,1.53,3.13,0.69,0.55,0.43,-28,1,-31,0.88,7040,20,90,41,57,1125,379.0,525,457,60,122.0,211,1,405,269,71,0,0,373,8200,13,334,181.28,,,,,,,,,,,,
48723,1561297094580,3,2.02,2.48,3.42,1.51,3.13,0.64,0.64,0.35,-28,1,-32,0.9,7115,17,90,41,58,1186,376.0,534,459,60,122.0,211,1,410,274,71,0,0,372,3,175,333,-5.59,,,,,,,,,,,,
48743,1561297094600,2,2.03,2.47,3.41,1.51,3.13,0.77,0.73,0.4,-28,-1,-33,1.06,7181,33,90,41,58,1224,376.0,529,455,60,124.0,211,1,411,274,71,0,0,370,3,-6528,333,181.28,45.69957,4.910512,34.61,197.7,0,0.0,0,0.0,0.5207,1,0.38,0.8124
48763,1561297094620,-0,2.06,2.46,3.39,1.51,3.12,0.81,0.77,0.49,-28,-1,-32,1.12,7178,34,90,41,58,1259,375.0,538,452,60,124.0,211,1,411,274,71,0,0,371,3,6870,335,181.28,,,,,,,,,,,,
48783,1561297094640,3,2.09,2.46,3.36,1.54,3.11,0.69,0.7,0.58,-27,1,-33,0.98,7121,31,90,41,58,1267,376.0,537,458,60,123.0,211,1,411,274,71,0,0,379,3,-6656,336,414.87,,,,,,,,,,,,
48803,1561297094660,2,2.12,2.46,3.29,1.6,3.09,0.63,0.73,0.56,-26,2,-33,0.96,7043,24,90,41,59,1276,377.0,531,457,60,122.0,221,1,415,279,75,0,0,375,-6656,-3968,338,181.28,,,,,,,,,,,,
48823,1561297094680,0,2.15,2.45,3.19,1.68,3.09,0.77,0.69,0.69,-25,-1,-34,1.03,6980,25,90,41,60,1281,376.0,527,455,60,123.0,221,1,418,278,75,0,0,376,3,3302,342,181.28,,,,,,,,,,,,
48843,1561297094700,3,2.17,2.42,3.13,1.71,3.09,0.69,0.63,0.66,-24,1,-33,0.93,6923,15,90,41,60,1279,374.0,518,455,60,124.0,221,1,415,281,75,0,0,375,742,-6405,346,414.87,45.699574,4.910514,34.4,197.7,0,0.0,0,0.0,0.5223,1,0.38,0.814
48863,1561297094720,-0,2.2,2.41,3.12,1.78,3.12,0.72,0.6,0.66,-23,0,-32,0.94,6898,23,90,41,61,1274,374.0,512,457,60,123.0,221,1,419,284,75,0,0,375,742,2790,351,-5.59,,,,,,,,,,,,
48883,1561297094740,2,2.24,2.4,3.09,1.87,3.14,0.69,0.61,0.73,-21,2,-31,0.92,6759,23,90,41,61,1264,373.0,509,456,60,124.0,221,1,413,278,75,0,0,370,-6656,0,355,181.28,,,,,,,,,,,,
48903,1561297094760,-2,2.27,2.37,3.07,1.92,3.22,0.73,0.54,0.66,-18,-0,-29,0.91,6766,17,91,41,63,1257,371.0,505,458,60,123.0,203,1,405,284,72,0,0,370,257,-6405,356,-5.59,,,,,,,,,,,,
48923,1561297094780,4,2.29,2.3,3.05,1.98,3.29,0.61,0.42,0.69,-18,1,-28,0.74,6798,14,91,41,63,1249,369.0,507,460,60,124.0,203,1,407,290,72,0,0,370,-6656,230,360,181.28,,,,,,,,,,,,
48943,1561297094800,2,2.32,2.24,3.05,2.02,3.31,0.61,0.36,0.61,-16,2,-25,0.71,6838,19,91,41,64,1245,368.0,509,455,60,123.0,203,1,404,296,72,0,0,369,-6656,-1268,362,181.28,45.699585,4.910515,35.05,197.6,0,0.0,0,0.0,0.524,1,0.38,0.8157
48963,1561297094820,1,2.33,2.19,3.05,2.06,3.29,0.69,0.31,0.65,-14,-1,-23,0.76,6870,19,91,41,64,1243,368.0,514,458,60,124.0,203,1,405,297,72,0,0,367,0,230,363,181.28,,,,,,,,,,,,
48983,1561297094840,4,2.35,2.14,3.03,2.09,3.3,0.66,0.29,0.65,-12,0,-20,0.72,6931,19,91,41,64,1237,366.0,509,459,60,122.0,203,1,408,299,72,0,0,367,230,1,366,-5.59,,,,,,,,,,,,
49003,1561297094860,0,2.36,2.11,3.01,2.16,3.28,0.77,0.2,0.66,-11,-0,-16,0.8,6970,24,91,41,64,1233,368.0,506,463,60,122.0,214,1,408,301,79,0,0,370,3082,3,368,-5.59,,,,,,,,,,,,
49023,1561297094880,5,2.36,2.08,3.01,2.18,3.27,0.77,0.13,0.76,-9,-1,-14,0.79,6967,17,91,41,64,1232,370.0,515,458,60,124.0,214,1,409,301,79,0,0,370,3082,3,370,181.28,,,,,,,,,,,,
49043,1561297094900,2,2.35,2.05,3.01,2.16,3.27,0.67,0.09,0.62,-7,-0,-11,0.68,7017,18,91,41,64,1229,373.0,515,458,60,123.0,214,1,411,302,79,0,0,368,3082,770,373,414.87,45.699593,4.910516,36.11,197.6,0,0.0,0,0.0,0.5257,1,0.38,0.8174
49063,1561297094920,-2,2.37,2.04,3.01,2.15,3.28,0.69,0.12,0.61,-5,1,-9,0.7,7014,19,91,41,64,1226,376.0,515,462,60,122.0,214,1,410,302,79,0,0,368,-6405,19125,376,-5.59,,,,,,,,,,,,
49083,1561297094940,5,2.36,2.03,2.99,2.14,3.3,0.83,0.09,0.74,-3,-1,-7,0.83,6965,14,91,41,64,1223,377.0,521,459,60,123.0,214,1,409,301,79,0,0,372,230,-992,377,414.87,,,,,,,,,,,,
49103,1561297094960,1,2.36,2.03,2.97,2.15,3.33,0.56,-0.03,0.57,-3,4,-6,0.56,6993,16,91,41,64,1222,379.0,519,459,60,123.0,209,1,410,301,79,0,0,374,0,-992,379,414.87,,,,,,,,,,,,
49123,1561297094980,1,2.35,2.06,2.96,2.16,3.34,0.66,-0.05,0.59,-2,0,-5,0.66,7030,20,91,41,64,1221,377.0,520,459,60,123.0,209,1,411,303,79,0,0,371,486,2278,376,-5.59,,,,,,,,,,,,
49143,1561297094994,0,2.34,2.12,2.94,2.17,3.4,0.79,-0.05,0.73,-2,-1,-5,0.8,7006,16,91,41,63,1222,376.0,519,460,60,124.0,209,1,415,298,79,0,0,372,486,-19019,374,181.28,45.699604,4.910517,36.59,197.6,0,0.0,0,0.0,0.5273,1,0.38,0.819
49163,1561297095014,2,2.34,2.15,2.95,2.15,3.47,0.6,-0.17,0.58,-3,1,-3,0.63,7064,19,91,41,62,1223,375.0,520,459,60,123.0,209,1,421,295,79,0,0,377,486,-18948,375,414.87,,,,,,,,,,,,
49183,1561297095034,2,2.33,2.18,2.94,2.12,3.44,0.43,-0.08,0.5,-3,2,-1,0.43,7094,18,91,41,61,1225,374.0,519,461,60,122.0,209,1,426,291,79,0,0,380,1,3,374,-5.59,,,,,,,,,,,,
49203,1561297095054,-1,2.33,2.19,2.95,2.09,3.37,0.59,0.04,0.65,-1,-3,-1,0.59,7172,23,91,41,61,1228,375.0,526,463,60,123.0,211,1,428,286,79,0,0,378,1,2278,375,-5.59,,,,,,,,,,,,
49223,1561297095074,1,2.31,2.18,2.92,2.07,3.3,0.73,0.1,0.78,-1,-6,-1,0.74,7239,21,91,41,59,1232,377.0,529,457,60,123.0,211,1,418,287,79,0,0,380,770,-6475,377,181.28,,,,,,,,,,,,
49243,1561297095102,-0,2.33,2.19,2.9,2.06,3.28,0.65,0.04,0.79,-0,-4,-0,0.65,7259,17,91,41,59,1237,379.0,539,458,60,124.0,211,1,418,281,79,0,0,385,770,-3866,379,414.87,45.699612,4.910519,36.93,197.7,0,0.0,0,0.0,0.529,1,0.38,0.8207
49263,1561297095122,4,2.33,2.19,2.89,2.04,3.28,0.39,-0.04,0.63,0,-1,-0,0.39,7267,22,91,41,58,1238,380.0,537,458,60,123.0,211,1,412,281,79,0,0,386,3,-992,380,414.87,,,,,,,,,,,,
49283,1561297095142,1,2.33,2.19,2.89,2.04,3.32,0.18,-0.15,0.52,0,1,-1,0.24,7222,17,91,41,58,1239,382.0,531,459,60,122.0,211,1,412,275,79,0,0,390,8200,-6524,382,181.28,,,,,,,,,,,,
49303,1561297095162,0,2.35,2.19,2.9,2.04,3.37,0.32,-0.04,0.57,1,-1,-1,0.32,7208,11,91,41,56,1235,383.0,532,459,60,123.0,193,1,401,193,74,0,0,394,19125,240,383,-5.59,,,,,,,,,,,,
49323,1561297095182,0,2.35,2.2,2.91,2.05,3.38,0.49,0.09,0.71,2,-4,-1,0.5,7217,20,91,41,54,1229,385.0,534,458,60,124.0,193,1,390,254,74,0,0,390,-6475,-6475,384,181.28,,,,,,,,,,,,
49343,1561297095202,1,2.33,2.22,2.91,2.05,3.4,0.64,0.11,0.79,2,-4,-1,0.65,7211,10,91,41,50,1221,386.0,534,460,60,123.0,193,1,378,233,74,0,0,390,-3866,-6524,387,181.28,45.699623,4.91052,37.53,197.7,0,0.0,0,0.0,0.5307,1,0.38,0.8224
49363,1561297095222,4,2.33,2.22,2.92,2.04,3.4,0.44,0.01,0.69,1,-1,0,0.44,7233,4,91,41,45,1208,387.0,533,458,60,124.0,193,1,355,217,74,0,0,390,-3866,-6524,387,414.87,,,,,,,,,,,,
49383,1561297095242,3,2.32,2.19,2.92,2.04,3.4,0.22,-0.09,0.58,1,1,1,0.24,7134,0,91,40,41,1189,388.0,535,460,60,123.0,193,1,325,207,74,0,0,387,240,-6656,388,181.28,,,,,,,,,,,,
49403,1561297095262,-2,2.32,2.17,2.94,2.03,3.38,0.4,-0.04,0.65,2,-2,1,0.4,7094,0,91,40,37,1159,389.0,533,460,60,123.0,138,1,304,193,54,0,0,389,240,-6524,389,-5.59,,,,,,,,,,,,
49423,1561297095282,3,2.3,2.16,2.96,2.02,3.35,0.57,0.04,0.71,2,-3,1,0.57,7051,0,91,40,35,1146,390.0,529,461,60,123.0,138,1,298,182,54,0,0,386,240,-1562,390,181.28,,,,,,,,,,,,
49443,1561297095301,2,2.29,2.17,2.99,2.03,3.33,0.49,-0.0,0.62,2,-0,0,0.49,6923,1,91,40,32,1125,389.0,528,462,60,123.0,138,1,290,171,54,0,0,386,-3866,-31744,389,414.87,45.699631,4.910521,39.31,197.7,0,0.0,0,0.0,0.5323,1,0.39,0.824
49463,1561297095321,4,2.28,2.16,3.01,2.02,3.34,0.51,0.04,0.63,3,0,1,0.51,6830,0,91,40,31,1104,388.0,522,457,60,124.0,138,1,286,163,54,0,0,387,-3866,-31744,387,181.28,,,,,,,,,,,,
49483,1561297095341,0,2.27,2.17,3.02,2.03,3.33,0.56,0.03,0.59,2,0,1,0.56,6730,0,91,40,29,1075,387.0,512,462,60,122.0,138,1,278,161,54,0,0,387,-3866,505,387,-5.59,,,,,,,,,,,,
49503,1561297095361,3,2.25,2.17,3.05,2.02,3.33,0.51,0.01,0.61,2,-0,0,0.51,6627,0,91,40,28,1055,388.0,503,458,60,123.0,103,1,275,160,40,0,0,384,240,-6475,385,181.28,,,,,,,,,,,,
49523,1561297095381,-1,2.23,2.17,3.03,2.0,3.34,0.48,0.04,0.53,1,2,1,0.48,6454,1,91,40,28,1045,387.0,496,460,60,123.0,103,1,276,160,40,0,0,387,240,240,386,-5.59,,,,,,,,,,,,
49543,1561297095401,-0,2.21,2.14,3.03,1.97,3.34,0.62,0.03,0.47,0,1,-0,0.62,6349,0,91,40,27,1017,387.0,492,460,60,122.0,103,1,273,158,40,0,0,382,240,8200,383,414.87,45.699642,4.910523,38.63,197.8,0,0.0,0,0.0,0.534,1,0.39,0.8257
49563,1561297095421,1,2.19,2.09,3.12,1.89,3.35,0.76,0.02,0.58,-2,-3,-0,0.76,6394,3,91,40,26,983,387.0,492,462,60,123.0,103,1,270,157,40,0,0,377,-3866,-1268,378,181.28,,,,,,,,,,,,
49583,1561297095441,6,2.16,2.07,3.25,1.83,3.35,0.77,0.12,0.55,-4,-3,-0,0.78,6458,3,91,40,26,954,386.0,491,460,60,124.0,103,1,269,157,40,0,0,366,-19019,2060,376,181.28,,,,,,,,,,,,
49603,1561297095461,1,2.15,2.07,3.33,1.79,3.32,0.67,0.12,0.39,-5,-1,0,0.68,6625,7,91,40,26,926,384.0,495,462,60,123.0,101,1,267,157,38,0,0,373,-19019,3302,372,414.87,,,,,,,,,,,,
49623,1561297095481,5,2.12,2.12,3.4,1.77,3.29,0.81,0.25,0.45,-6,-4,-1,0.85,6749,10,91,40,27,906,382.0,502,461,60,123.0,101,1,270,158,38,0,0,372,19125,-30454,367,181.28,,,,,,,,,,,,
49643,1561297095501,2,2.08,2.16,3.44,1.74,3.28,0.59,0.28,0.35,-8,-0,-2,0.65,6860,4,91,40,29,874,379.0,514,460,60,122.0,101,1,278,163,38,0,0,371,8200,-1246,362,414.87,45.69965,4.910524,37.8,197.8,0,0.0,0,0.0,0.5357,1,0.39,0.8274
49663,1561297095521,-2,2.08,2.17,3.47,1.72,3.27,0.72,0.41,0.34,-9,-1,-4,0.83,6929,11,91,40,32,866,380.0,523,457,60,122.0,101,1,290,90,38,0,0,374,-992,2811,358,-5.59,,,,,,,,,,,,
49683,1561297095541,2,2.06,2.2,3.49,1.72,3.23,0.8,0.49,0.41,-10,-0,-8,0.94,7006,20,91,40,35,861,383.0,525,461,60,124.0,101,1,298,182,38,0,0,376,-19126,-1246,355,181.28,,,,,,,,,,,,
49703,1561297095561,3,2.03,2.21,3.43,1.73,3.17,0.7,0.44,0.37,-12,1,-9,0.83,6996,22,91,40,37,862,383.0,529,461,60,122.0,137,1,304,193,49,0,0,381,-19126,3183,353,414.87,,,,,,,,,,,,
49723,1561297095581,0,2.01,2.23,3.36,1.7,3.09,0.83,0.6,0.4,-15,-0,-10,1.03,7014,16,91,40,40,867,383.0,528,460,60,123.0,137,1,317,205,49,0,0,383,-19126,-30454,351,-5.59,,,,,,,,,,,,
49743,1561297095601,-1,2.01,2.26,3.35,1.66,3.04,0.92,0.59,0.51,-17,-0,-12,1.09,7046,18,91,40,41,871,385.0,526,456,60,124.0,137,1,325,207,49,0,0,383,-6475,2811,349,181.28,45.699657,4.910526,36.57,197.8,0,0.0,0,0.0,0.5373,1,0.39,0.829
49763,1561297095621,4,2.0,2.34,3.37,1.65,3.03,0.67,0.53,0.45,-21,1,-14,0.85,7046,18,91,40,43,880,387.0,523,458,60,124.0,137,1,340,211,49,0,0,384,240,-30438,345,414.87,,,,,,,,,,,,
49783,1561297095641,2,2.0,2.42,3.41,1.66,3.02,0.73,0.58,0.49,-22,-1,-17,0.93,7070,29,91,40,44,884,387.0,526,458,60,122.0,137,1,347,213,49,0,0,386,240,6870,343,-5.59,,,,,,,,,,,,
49803,1561297095661,0,2.0,2.44,3.48,1.66,3.03,0.86,0.72,0.49,-23,-4,-20,1.12,7131,22,91,40,46,888,386.0,530,458,60,123.0,169,1,362,217,58,0,0,384,-3866,-31206,342,-5.59,,,,,,,,,,,,
49823,1561297095681,1,2.0,2.44,3.5,1.67,3.04,0.82,0.69,0.49,-25,-2,-22,1.07,7164,17,91,40,47,889,383.0,541,459,60,124.0,169,1,370,219,58,0,0,383,-19126,6870,341,414.87,,,,,,,,,,,,
49843,1561297095701,5,2.0,2.44,3.51,1.68,3.07,0.57,0.58,0.44,-27,0,-24,0.81,7233,17,91,40,48,885,382.0,541,460,60,122.0,169,1,372,224,58,0,0,380,19125,-31222,342,414.87,45.699669,4.910526,35.96,197.8,0,0.0,0,0.0,0.539,1,0.39,0.8307
49863,1561297095721,4,1.98,2.42,3.51,1.67,3.01,0.47,0.54,0.45,-28,1,-24,0.71,7236,29,91,40,49,883,381.0,538,468,60,122.0,169,1,375,228,58,0,0,378,-18948,6870,342,-5.59,,,,,,,,,,,,
49883,1561297095741,3,1.97,2.42,3.51,1.64,2.99,0.59,0.64,0.46,-28,-1,-25,0.87,7278,31,91,40,50,885,382.0,547,458,60,122.0,169,1,378,233,58,0,0,382,19125,4104,341,-5.59,,,,,,,,,,,,
49903,1561297095761,0,1.97,2.43,3.5,1.62,2.98,0.73,0.77,0.49,-29,-2,-26,1.06,7217,21,91,40,51,888,384.0,546,462,60,123.0,187,1,381,233,64,0,0,378,-19019,2278,342,-5.59,,,,,,,,,,,,
49923,1561297095781,-0,1.96,2.42,3.5,1.59,2.97,0.8,0.77,0.49,-30,-2,-28,1.11,7159,16,91,40,51,892,385.0,545,460,60,124.0,187,1,381,238,64,0,0,386,-6475,2524,343,181.28,,,,,,,,,,,,
49943,1561297095801,3,1.95,2.43,3.49,1.57,2.97,0.67,0.71,0.49,-31,1,-29,0.98,7200,19,91,40,52,909,389.0,543,461,60,124.0,187,1,384,244,64,0,0,385,-6524,-1562,340,414.87,45.699676,4.910525,35.66,197.8,0,0.0,0,0.0,0.5407,1,0.39,0.8324
49963,1561297095821,4,1.95,2.48,3.47,1.57,3.0,0.44,0.65,0.47,-32,3,-30,0.78,7214,31,91,40,53,927,389.0,542,459,60,123.0,187,1,387,248,64,0,0,386,-6524,486,340,414.87,,,,,,,,,,,,
49983,1561297095841,2,1.95,2.57,3.4,1.61,3.01,0.54,0.74,0.44,-32,2,-32,0.92,7172,20,91,40,53,958,391.0,540,460,60,122.0,187,1,387,248,64,0,0,385,505,-6656,339,-5.59,,,,,,,,,,,,
50003,1561297095861,0,1.95,2.61,3.37,1.63,3.05,0.69,0.86,0.55,-32,1,-34,1.1,7123,20,91,40,54,973,390.0,535,461,60,124.0,197,1,390,253,67,0,0,387,-1562,2278,339,181.28,,,,,,,,,,,,
50023,1561297095881,5,1.95,2.61,3.34,1.63,3.04,0.65,0.78,0.57,-34,2,-36,1.02,7070,14,91,40,54,1003,389.0,531,458,60,124.0,197,1,390,252,67,0,0,384,-6524,2278,341,181.28,,,,,,,,,,,,
50043,1561297095901,2,1.95,2.6,3.33,1.61,3.0,0.53,0.77,0.48,-34,4,-36,0.94,7064,16,91,40,55,1028,389.0,524,458,60,123.0,197,1,395,257,67,0,0,389,-6524,-29978,344,414.87,45.699688,4.910523,35.19,197.9,0,0.0,0,0.0,0.5423,1,0.39,0.834
50063,1561297095921,-0,1.97,2.6,3.34,1.59,2.92,0.68,0.9,0.54,-33,1,-37,1.12,7022,23,91,40,55,1065,390.0,523,460,60,122.0,197,1,394,257,67,0,0,386,-1562,486,344,-5.59,,,,,,,,,,,,
50083,1561297095941,5,1.97,2.59,3.34,1.6,2.94,0.64,0.9,0.61,-33,1,-38,1.1,6970,31,91,40,55,1079,389.0,524,456,60,124.0,197,1,393,257,67,0,0,388,-6524,257,343,181.28,,,,,,,,,,,,
50103,1561297095961,3,1.98,2.57,3.33,1.59,2.95,0.56,0.82,0.62,-34,0,-38,0.99,7006,30,91,40,56,1088,389.0,519,458,60,122.0,201,1,399,263,69,0,0,386,-6524,-29978,343,414.87,,,,,,,,,,,,
50123,1561297095981,-2,2.0,2.56,3.37,1.58,3.0,0.71,0.94,0.61,-33,-2,-38,1.18,7011,15,91,40,56,1103,388.0,520,459,60,123.0,201,1,399,263,69,0,0,386,-31744,4104,346,-5.59,,,,,,,,,,,,
50143,1561297095996,3,2.01,2.56,3.44,1.57,3.07,0.66,0.91,0.6,-34,-2,-39,1.13,6967,18,91,40,56,1121,391.0,525,462,60,124.0,201,1,398,262,69,0,0,387,505,240,345,181.28,45.699692,4.91052,35.85,197.9,0,0.0,0,0.0,0.544,1,0.39,0.8357
50163,1561297096016,2,2.0,2.56,3.45,1.59,3.07,0.49,0.91,0.51,-33,1,-39,1.04,7038,22,91,40,57,1122,392.0,523,462,60,123.0,201,1,404,269,69,0,0,386,1,6384,345,414.87,,,,,,,,,,,,
50183,1561297096036,3,1.99,2.57,3.37,1.65,3.08,0.65,0.99,0.57,-33,-2,-39,1.18,7115,33,91,40,57,1124,391.0,526,461,60,124.0,201,1,405,270,69,0,0,385,505,-10554,344,181.28,,,,,,,,,,,,
50203,1561297096056,-1,1.98,2.58,3.36,1.66,3.06,0.75,1.03,0.61,-32,-3,-39,1.28,7151,26,91,40,57,1132,389.0,531,457,60,123.0,210,1,405,270,73,0,0,388,-6524,-6640,345,-5.59,,,,,,,,,,,,
50223,1561297096076,4,1.98,2.57,3.37,1.64,3.03,0.62,1.03,0.63,-33,-0,-40,1.2,7175,27,91,40,57,1137,387.0,532,459,60,123.0,210,1,406,270,73,0,0,387,240,-6656,345,181.28,,,,,,,,,,,,
50243,1561297096101,3,1.98,2.55,3.38,1.6,3.03,0.53,0.95,0.56,-35,-0,-38,1.09,7107,17,91,40,57,1142,390.0,534,458,60,123.0,210,1,405,274,73,0,0,390,-1562,240,349,414.87,45.699703,4.910516,35.89,197.9,0,0.0,0,0.0,0.5457,1,0.39,0.8374
50263,1561297096121,1,1.99,2.54,3.41,1.59,2.95,0.63,1.06,0.5,-34,-1,-38,1.23,7129,19,91,40,58,1146,392.0,533,460,60,122.0,210,1,411,274,73,0,0,389,1,-1562,349,-5.59,,,,,,,,,,,,
50283,1561297096141,-1,2.0,2.55,3.41,1.59,2.94,0.76,1.15,0.59,-34,-5,-39,1.38,7200,18,91,40,58,1151,391.0,530,463,60,123.0,210,1,412,275,73,0,0,388,505,17144,348,181.28,,,,,,,,,,,,
50303,1561297096161,-2,2.0,2.54,3.41,1.59,2.99,0.79,1.18,0.66,-34,-5,-39,1.42,7301,24,91,40,58,1159,392.0,532,461,60,123.0,216,1,413,276,75,0,0,387,1,8200,347,181.28,,,,,,,,,,,,
50323,1561297096181,0,2.01,2.53,3.43,1.59,3.01,0.74,1.16,0.66,-34,-3,-38,1.37,7364,30,91,40,57,1162,391.0,538,458,60,124.0,216,1,408,276,75,0,0,390,505,486,350,181.28,,,,,,,,,,,,
50343,1561297096201,-0,2.01,2.53,3.44,1.61,3.01,0.63,1.01,0.65,-34,-1,-39,1.19,7355,30,91,40,57,1164,393.0,542,461,60,123.0,216,1,408,272,75,0,0,394,-6656,-4059,351,181.28,45.699711,4.91051,36.11,197.9,0,0.0,0,0.0,0.5473,1,0.4,0.839
50363,1561297096221,-1,2.02,2.54,3.45,1.63,3.0,0.55,0.92,0.68,-34,-0,-41,1.07,7488,21,91,40,57,1169,396.0,543,457,60,124.0,216,1,409,277,75,0,0,392,-32702,-9166,353,414.87,,,,,,,,,,,,
50383,1561297096241,-1,2.02,2.54,3.41,1.65,3.01,0.47,0.9,0.72,-34,1,-40,1.02,7594,30,91,40,57,1172,395.0,551,463,60,123.0,216,1,411,273,75,0,0,394,17144,-3968,351,414.87,,,,,,,,,,,,
50403,1561297096261,-1,2.02,2.54,3.31,1.65,2.99,0.48,0.91,0.75,-34,1,-39,1.03,7643,24,91,40,56,1175,395.0,559,458,60,124.0,224,1,404,269,79,0,0,401,17144,0,352,181.28,,,,,,,,,,,,
50423,1561297096281,0,2.01,2.56,3.29,1.64,2.95,0.57,0.94,0.77,-34,0,-40,1.1,7518,25,91,40,56,1177,397.0,567,461,60,124.0,224,1,403,268,79,0,0,402,-3968,-3866,356,181.28,,,,,,,,,,,,
50443,1561297096302,1,2.01,2.56,3.28,1.64,2.94,0.57,0.91,0.8,-34,1,-40,1.07,7422,25,91,40,56,1170,401.0,555,455,60,124.0,224,1,402,267,79,0,0,400,11545,-28332,358,414.87,45.699718,4.910503,36.11,197.9,0,0.0,0,0.0,0.549,1,0.4,0.8407
50463,1561297096322,-1,2.01,2.56,3.28,1.62,2.95,0.52,0.84,0.8,-34,1,-40,0.99,7425,27,91,40,57,1165,401.0,551,464,60,123.0,224,1,409,272,79,0,0,398,11545,505,360,181.28,,,,,,,,,,,,
50483,1561297096342,1,2.01,2.56,3.27,1.63,2.95,0.41,0.83,0.84,-34,2,-40,0.93,7449,20,91,40,57,1156,403.0,555,457,60,123.0,224,1,409,272,79,0,0,406,1504,770,360,414.87,,,,,,,,,,,,
50503,1561297096362,6,2.01,2.56,3.28,1.63,2.95,0.28,0.76,0.82,-35,2,-40,0.81,7367,15,91,40,57,1145,405.0,556,459,60,124.0,209,1,408,272,76,0,0,407,-9211,505,362,414.87,,,,,,,,,,,,
50523,1561297096382,3,2.01,2.57,3.29,1.63,2.96,0.2,0.69,0.7,-35,3,-40,0.72,7367,18,91,40,57,1133,406.0,548,461,60,122.0,209,1,408,272,76,0,0,408,-26615,2524,363,414.87,,,,,,,,,,,,
50543,1561297096402,4,2.01,2.57,3.32,1.63,2.96,0.14,0.64,0.69,-35,3,-40,0.65,7399,28,91,40,57,1108,405.0,547,463,60,123.0,209,1,408,276,76,0,0,406,-9211,2524,364,181.28,45.699726,4.910496,37.06,197.9,0,0.0,0,0.0,0.5507,1,0.4,0.8424
50563,1561297096422,3,2.0,2.56,3.35,1.61,2.98,0.11,0.57,0.71,-35,3,-39,0.58,7500,27,91,40,58,1098,406.0,553,462,60,122.0,209,1,416,277,76,0,0,407,2524,505,366,181.28,,,,,,,,,,,,
50583,1561297096442,-1,2.0,2.56,3.41,1.59,2.99,0.08,0.54,0.69,-35,3,-40,0.55,7575,33,91,40,57,1084,406.0,557,460,60,123.0,209,1,410,273,76,0,0,405,2524,-1818,367,414.87,,,,,,,,,,,,
50603,1561297096462,-1,2.0,2.56,3.4,1.61,2.98,0.04,0.47,0.67,-36,3,-41,0.47,7703,27,91,40,57,1074,410.0,560,460,60,122.0,215,1,412,275,79,0,0,406,9517,2524,368,414.87,,,,,,,,,,,,
50623,1561297096482,2,1.99,2.57,3.39,1.62,2.98,0.07,0.5,0.67,-35,3,-42,0.5,7770,37,91,40,56,1057,409.0,566,460,60,124.0,215,1,405,275,79,0,0,409,-4059,-21944,367,181.28,,,,,,,,,,,,
50643,1561297096502,3,1.98,2.57,3.38,1.65,2.98,0.22,0.64,0.68,-35,1,-40,0.68,7881,25,91,40,56,1049,412.0,572,458,60,123.0,215,1,406,271,79,0,0,410,13040,3826,367,181.28,45.699734,4.910487,37.8,197.9,0,0.0,0,0.0,0.5523,1,0.4,0.844
50663,1561297096522,2,1.98,2.57,3.38,1.64,2.98,0.25,0.74,0.68,-35,2,-39,0.78,7951,28,91,39,55,1046,413.0,576,461,60,122.0,215,1,398,268,79,0,0,412,-9166,-4059,370,-5.59,,,,,,,,,,,,
50683,1561297096542,-1,1.98,2.59,3.38,1.64,2.94,0.18,0.67,0.69,-36,4,-41,0.69,7911,32,91,39,55,1043,415.0,575,456,60,123.0,215,1,398,268,79,0,0,419,-26615,-3856,370,414.87,,,,,,,,,,,,
50703,1561297096562,3,1.99,2.58,3.38,1.63,2.94,0.25,0.76,0.71,-35,1,-41,0.8,7944,29,91,39,54,1039,417.0,585,461,60,123.0,215,1,390,268,80,0,0,419,-21944,2131,371,181.28,,,,,,,,,,,,
50723,1561297096582,4,1.99,2.59,3.35,1.63,2.93,0.38,0.88,0.67,-35,1,-41,0.96,7961,36,91,39,54,1037,419.0,588,461,60,123.0,215,1,390,263,80,0,0,420,7154,18584,372,-5.59,,,,,,,,,,,,
50743,1561297096602,-1,1.99,2.59,3.36,1.63,2.92,0.29,0.77,0.75,-36,3,-42,0.83,7924,36,91,39,54,1037,421.0,586,463,60,122.0,215,1,390,263,80,0,0,420,-21792,11545,374,414.87,45.699741,4.910477,38.12,197.9,0,0.0,0,0.0,0.554,1,0.4,0.8457
50763,1561297096622,1,1.98,2.59,3.38,1.63,2.93,0.2,0.76,0.7,-37,2,-41,0.79,7874,25,91,39,54,1033,422.0,580,457,60,123.0,215,1,390,262,80,0,0,429,-3414,8488,378,414.87,,,,,,,,,,,,
50783,1561297096642,4,1.99,2.6,3.39,1.63,2.93,0.33,0.87,0.64,-37,1,-41,0.93,7891,35,91,39,54,1017,425.0,581,459,60,123.0,215,1,390,262,80,0,0,433,-3856,21432,378,181.28,,,,,,,,,,,,
50803,1561297096662,1,1.99,2.6,3.4,1.63,2.93,0.34,0.92,0.56,-37,3,-41,0.98,8016,37,91,39,54,1007,427.0,581,459,60,123.0,208,1,390,264,79,0,0,426,31796,9517,378,181.28,,,,,,,,,,,,
50823,1561297096682,2,1.99,2.61,3.4,1.62,2.93,0.32,0.88,0.64,-37,0,-41,0.94,8081,28,91,39,54,994,428.0,591,461,60,122.0,208,1,390,258,79,0,0,430,13180,-3414,379,414.87,,,,,,,,,,,,
50843,1561297096702,4,1.99,2.6,3.41,1.63,2.93,0.38,0.99,0.58,-36,0,-41,1.06,8092,24,91,39,53,979,429.0,593,458,60,123.0,208,1,387,258,79,0,0,434,3635,-3267,380,181.28,45.699749,4.910467,39.12,197.9,0,0.0,0,0.0,0.5557,1,0.4,0.8474
50863,1561297096722,1,1.99,2.61,3.41,1.61,2.92,0.35,0.88,0.71,-37,2,-43,0.95,8166,34,91,39,52,966,430.0,596,461,60,122.0,208,1,384,260,79,0,0,431,3635,26704,382,414.87,,,,,,,,,,,,
50883,1561297096742,5,1.99,2.6,3.42,1.62,2.93,0.38,1.0,0.64,-37,-0,-42,1.07,8241,19,91,39,52,956,433.0,601,462,60,123.0,208,1,384,254,79,0,0,433,243,13552,385,414.87,,,,,,,,,,,,
50903,1561297096762,2,1.99,2.61,3.43,1.6,2.92,0.43,0.94,0.67,-37,0,-43,1.03,8234,34,91,39,52,956,433.0,598,462,60,123.0,205,1,384,247,79,0,0,437,243,-3267,386,181.28,,,,,,,,,,,,
50923,1561297096782,3,2.01,2.6,3.42,1.6,2.92,0.43,1.01,0.6,-37,2,-43,1.1,8198,28,91,39,51,956,435.0,602,458,60,123.0,205,1,381,246,79,0,0,442,5600,-26615,387,181.28,,,,,,,,,,,,
50943,1561297096802,1,2.02,2.61,3.42,1.59,2.93,0.44,0.94,0.67,-38,0,-42,1.04,8223,36,91,39,51,957,440.0,603,460,60,122.0,205,1,381,247,79,0,0,446,20625,-3856,387,-5.59,45.699753,4.910454,39.82,197.9,0,0.0,0,0.0,0.5573,1,0.4,0.849
50963,1561297096822,2,2.05,2.61,3.41,1.6,2.92,0.48,1.05,0.6,-38,3,-44,1.15,8263,35,91,39,50,958,439.0,609,461,60,123.0,205,1,378,241,79,0,0,445,-28332,19477,389,414.87,,,,,,,,,,,,
50983,1561297096842,-0,2.08,2.6,3.38,1.62,2.92,0.41,0.92,0.67,-38,1,-43,1.01,8227,22,91,39,50,960,441.0,602,458,60,122.0,205,1,378,241,79,0,0,448,23400,23400,392,-5.59,,,,,,,,,,,,
51003,1561297096862,3,2.12,2.6,3.36,1.64,2.93,0.44,0.98,0.65,-37,-0,-43,1.07,8241,33,91,39,50,965,440.0,608,458,60,123.0,190,1,378,241,75,0,0,444,20625,21580,395,181.28,,,,,,,,,,,,
51023,1561297096882,0,2.18,2.6,3.36,1.65,2.94,0.4,0.82,0.7,-36,3,-43,0.91,8241,36,91,39,50,978,440.0,604,462,60,122.0,190,1,378,241,75,0,0,442,26704,2131,399,-5.59,,,,,,,,,,,,
51043,1561297096902,4,2.23,2.59,3.32,1.7,3.0,0.4,0.85,0.7,-33,-0,-42,0.94,8278,18,91,39,50,988,438.0,606,460,60,123.0,190,1,378,241,75,0,0,441,21580,-7939,403,414.87,45.699757,4.910442,39.97,197.9,0,0.0,0,0.0,0.559,1,0.4,0.8507
51063,1561297096922,1,2.26,2.53,3.24,1.81,3.01,0.43,0.63,0.76,-31,1,-41,0.76,8263,29,91,39,52,999,436.0,611,462,60,123.0,190,1,384,247,75,0,0,442,5600,-768,409,181.28,,,,,,,,,,,,
51083,1561297096942,4,2.3,2.46,3.15,1.91,3.04,0.47,0.62,0.77,-28,0,-39,0.78,8191,33,91,39,53,1013,436.0,593,461,60,123.0,190,1,387,260,75,0,0,440,-7939,13180,414,181.28,,,,,,,,,,,,
51103,1561297096962,-1,2.34,2.45,3.05,2.01,3.09,0.43,0.56,0.81,-24,-1,-36,0.7,8116,32,91,39,57,1023,432.0,595,457,60,123.0,202,1,415,283,85,0,0,440,-3322,21580,421,181.28,,,,,,,,,,,,
51123,1561297096982,4,2.36,2.41,2.97,2.09,3.16,0.39,0.39,0.81,-21,1,-33,0.55,8099,56,91,39,63,1035,430.0,587,462,60,122.0,202,1,450,323,85,0,0,437,-3314,1779,427,181.28,,,,,,,,,,,,
51143,1561297096996,5,2.38,2.28,2.91,2.12,3.25,0.43,0.31,0.85,-18,-1,-30,0.53,8067,51,91,39,71,1040,429.0,583,461,60,123.0,202,1,444,381,85,0,0,433,1779,20625,429,-5.59,45.69976,4.910428,41.58,197.8,0,0.0,0,0.0,0.5607,1,0.4,0.8524
51163,1561297097016,2,2.39,2.14,2.9,2.13,3.31,0.42,0.19,0.88,-14,-1,-26,0.46,8057,51,91,39,78,1041,433.0,583,458,60,123.0,202,1,437,457,85,0,0,432,3635,26704,433,414.87,,,,,,,,,,,,
51183,1561297097036,5,2.4,2.12,2.89,2.18,3.37,0.44,0.13,0.8,-12,1,-22,0.46,8145,80,91,39,84,1053,439.0,575,454,60,123.0,202,1,436,520,85,0,0,437,31796,23400,439,181.28,,,,,,,,,,,,
51203,1561297097056,2,2.41,2.09,2.88,2.2,3.44,0.46,0.0,0.79,-10,0,-18,0.46,8227,72,91,39,87,1062,441.0,582,457,60,123.0,389,1,438,559,171,0,0,436,31796,-18341,441,-5.59,,,,,,,,,,,,
51223,1561297097076,0,2.42,2.08,2.89,2.2,3.45,0.45,0.03,0.76,-7,1,-16,0.46,8426,46,91,39,88,1074,441.0,586,460,60,123.0,389,1,436,592,171,0,0,439,-3314,16648,443,181.28,,,,,,,,,,,,
51243,1561297097102,2,2.41,2.09,2.88,2.25,3.47,0.34,0.05,0.77,-4,3,-13,0.34,8712,87,91,39,88,1081,443.0,599,453,60,122.0,389,1,427,600,171,0,0,452,1779,3571,443,-5.59,45.699764,4.910413,42.86,197.8,0,0.0,0,0.0,0.5623,1,0.4,0.854
51263,1561297097122,2,2.41,2.12,2.83,2.32,3.47,0.45,0.14,0.82,-2,3,-10,0.47,8958,52,91,39,87,1125,449.0,607,456,60,122.0,389,1,419,589,171,0,0,475,243,17628,449,414.87,,,,,,,,,,,,
51283,1561297097142,2,2.4,2.18,2.67,2.35,3.45,0.3,0.18,0.87,-0,5,-8,0.35,9062,61,91,39,86,1180,455.0,619,456,60,122.0,389,1,418,578,171,0,0,490,19477,-3210,455,181.28,,,,,,,,,,,,
51303,1561297097162,3,2.41,2.25,2.6,2.36,3.42,0.34,0.2,0.87,1,4,-5,0.4,9164,73,91,39,86,1242,458.0,627,457,60,123.0,440,1,418,589,201,0,0,471,-28332,-9203,457,181.28,,,,,,,,,,,,
51323,1561297097182,4,2.4,2.31,2.59,2.38,3.39,0.24,0.07,0.93,3,7,-2,0.25,9186,84,91,39,86,1288,461.0,618,462,60,122.0,440,1,418,578,201,0,0,481,21432,-1562,461,181.28,,,,,,,,,,,,
51343,1561297097202,3,2.4,2.33,2.59,2.37,3.34,0.34,-0.08,1.02,4,3,0,0.35,9075,54,91,39,87,1317,464.0,620,457,60,123.0,440,1,418,589,201,0,0,501,15649,-1818,465,181.28,45.699768,4.910399,43.55,197.8,0,0.0,0,0.0,0.564,1,0.41,0.8557
51363,1561297097222,4,2.4,2.34,2.59,2.38,3.34,0.4,-0.24,1.05,5,2,1,0.47,9101,72,91,39,87,1354,470.0,608,458,60,123.0,440,1,418,589,201,0,0,487,-26615,-6528,470,181.28,,,,,,,,,,,,
51383,1561297097242,4,2.41,2.33,2.59,2.38,3.35,0.36,-0.41,1.02,6,0,2,0.55,9150,54,91,39,86,1367,477.0,613,465,60,122.0,440,1,418,578,201,0,0,500,-23623,3,477,181.28,,,,,,,,,,,,
51403,1561297097262,5,2.4,2.33,2.6,2.4,3.36,0.46,-0.37,1.0,7,1,2,0.59,9272,61,91,39,86,1357,479.0,613,461,60,122.0,422,1,418,578,201,0,0,491,-3210,11560,481,-5.59,,,,,,,,,,,,
51423,1561297097282,3,2.41,2.33,2.62,2.44,3.38,0.29,-0.35,0.97,7,1,4,0.45,9375,54,91,39,86,1344,484.0,619,463,60,122.0,422,1,418,578,201,0,0,503,-3210,11560,484,-5.59,,,,,,,,,,,,
51443,1561297097301,4,2.41,2.33,2.64,2.45,3.37,0.21,-0.42,1.0,8,-1,5,0.47,9474,73,91,39,86,1322,488.0,623,460,60,122.0,422,1,418,578,201,0,0,510,-16384,26178,488,181.28,45.699772,4.910384,46.19,197.8,0,0.0,0,0.0,0.5657,1,0.41,0.8574
51463,1561297097321,1,2.43,2.31,2.64,2.44,3.39,0.37,-0.44,0.94,9,1,6,0.58,9659,69,91,39,86,1303,495.0,628,456,60,122.0,422,1,412,582,201,0,0,519,3576,15679,495,181.28,,,,,,,,,,,,
51483,1561297097341,4,2.43,2.28,2.61,2.44,3.38,0.36,-0.49,1.02,11,-0,7,0.6,9832,75,91,39,85,1289,499.0,616,462,60,121.0,422,1,403,570,201,0,0,521,32033,1341,499,-5.59,,,,,,,,,,,,
51503,1561297097361,3,2.41,2.26,2.58,2.44,3.38,0.35,-0.41,0.98,12,2,9,0.54,10037,95,91,39,85,1267,504.0,627,461,60,122.0,429,1,397,572,215,0,0,542,-1562,-9212,507,-5.59,,,,,,,,,,,,
51523,1561297097381,2,2.41,2.26,2.56,2.45,3.39,0.37,-0.39,0.87,13,1,11,0.54,10195,76,91,39,85,1246,513.0,614,453,60,122.0,429,1,409,572,215,0,0,544,-1818,1779,511,181.28,,,,,,,,,,,,
51543,1561297097401,3,2.4,2.31,2.58,2.44,3.45,0.28,-0.44,0.84,13,1,12,0.52,10290,65,91,39,84,1233,515.0,633,461,60,122.0,429,1,414,554,215,0,0,563,998,-3082,518,414.87,45.69978,4.910369,48.37,197.8,0,0.0,0,0.0,0.5673,1,0.41,0.859
51563,1561297097421,2,2.38,2.32,2.59,2.45,3.4,0.28,-0.56,0.85,14,0,12,0.63,10445,84,91,39,84,1225,522.0,623,463,60,122.0,429,1,426,554,215,0,0,550,3,-8188,522,181.28,,,,,,,,,,,,
51583,1561297097441,3,2.36,2.35,2.56,2.47,3.37,0.28,-0.48,0.92,14,0,11,0.56,10533,90,91,39,85,1204,526.0,638,453,60,122.0,429,1,431,572,215,0,0,549,15661,-22263,527,181.28,,,,,,,,,,,,
51603,1561297097461,3,2.36,2.35,2.55,2.51,3.31,0.32,-0.47,0.96,14,1,11,0.57,10629,32,91,39,85,1174,527.0,638,456,60,122.0,433,1,434,554,229,0,0,583,-28648,2104,532,181.28,,,,,,,,,,,,
51623,1561297097481,3,2.36,2.35,2.53,2.51,3.31,0.29,-0.52,1.02,14,-1,13,0.59,10653,91,91,39,85,1154,534.0,632,461,60,122.0,433,1,434,572,229,0,0,562,17136,1760,534,181.28,,,,,,,,,,,,
51643,1561297097501,4,2.36,2.36,2.55,2.49,3.32,0.31,-0.43,0.99,14,-0,12,0.52,10714,92,91,39,85,1133,538.0,623,453,60,122.0,433,1,436,572,229,0,0,583,10408,774,539,181.28,45.699783,4.910353,50.8,197.8,0,0.0,0,0.0,0.569,1,0.41,0.8607
51663,1561297097521,3,2.36,2.36,2.55,2.47,3.32,0.28,-0.43,0.99,14,-3,13,0.51,10726,63,91,39,84,1109,540.0,634,453,60,122.0,433,1,435,572,229,0,0,578,-28648,2048,540,181.28,,,,,,,,,,,,
51683,1561297097541,3,2.35,2.36,2.57,2.49,3.35,0.31,-0.55,1.09,14,-3,12,0.63,10825,50,91,39,84,1072,548.0,635,456,60,122.0,433,1,438,554,229,0,0,581,2104,-8186,548,181.28,,,,,,,,,,,,
51703,1561297097561,2,2.36,2.36,2.56,2.48,3.37,0.26,-0.45,1.02,13,-1,11,0.52,10939,34,91,39,84,1050,552.0,635,457,60,122.0,413,1,441,554,228,0,0,602,-8186,-1894,552,181.28,,,,,,,,,,,,
51723,1561297097581,5,2.36,2.37,2.57,2.48,3.36,0.29,-0.51,1.03,13,-1,11,0.59,11035,62,91,39,84,1042,556.0,648,459,60,122.0,413,1,443,554,228,0,0,582,-506,-16179,558,181.28,,,,,,,,,,,,
51743,1561297097603,3,2.36,2.41,2.56,2.49,3.29,0.28,-0.57,1.01,13,-2,11,0.64,11120,75,91,39,84,1031,563.0,655,458,60,122.0,413,1,442,554,228,0,0,567,6274,30227,563,181.28,45.699791,4.910337,53.4,197.7,0,0.0,0,0.0,0.5707,1,0.41,0.8624
51763,1561297097623,4,2.36,2.41,2.57,2.48,3.32,0.28,-0.55,1.02,12,-1,10,0.62,11167,75,91,39,84,1021,565.0,633,461,60,122.0,413,1,442,554,228,0,0,604,-22263,30227,571,181.28,,,,,,,,,,,,
51783,1561297097643,4,2.36,2.41,2.54,2.49,3.32,0.29,-0.68,1.04,12,-2,11,0.74,11234,74,91,39,84,1014,574.0,645,455,60,122.0,413,1,442,554,228,0,0,619,-23623,-3820,574,181.28,,,,,,,,,,,,
51803,1561297097663,6,2.36,2.41,2.57,2.5,3.32,0.27,-0.57,1.01,11,-4,10,0.63,11301,60,91,39,84,1012,577.0,636,455,60,122.0,410,1,441,554,236,0,0,598,-23623,-23055,577,181.28,,,,,,,,,,,,
51823,1561297097683,-1,2.37,2.4,2.57,2.49,3.32,0.27,-0.49,1.08,11,-5,9,0.56,11398,57,91,39,84,1010,581.0,649,457,60,122.0,410,1,441,554,236,0,0,605,-3190,3395,583,181.28,,,,,,,,,,,,
51843,1561297097701,-1,2.36,2.4,2.61,2.5,3.33,0.32,-0.49,1.13,11,-5,10,0.58,11481,66,91,39,83,1002,586.0,651,471,60,124.0,410,1,441,535,236,0,0,614,774,19320,586,414.87,45.699799,4.91032,56.23,197.7,0,0.0,0,0.0,0.5723,1,0.41,0.864
51863,1561297097721,-1,2.37,2.38,2.63,2.48,3.36,0.36,-0.5,1.11,11,-4,12,0.61,10831,56,91,39,86,995,592.0,654,461,60,124.0,410,1,440,572,236,0,0,617,10432,3403,592,181.28,,,,,,,,,,,,
51883,1561297097741,-2,2.37,2.36,2.69,2.47,3.43,0.47,-0.52,1.06,11,-5,11,0.71,10370,61,91,39,87,991,598.0,647,462,60,123.0,410,1,423,609,236,0,0,583,-25872,17740,596,181.28,,,,,,,,,,,,
51903,1561297097761,-0,2.35,2.3,2.73,2.43,3.48,0.51,-0.38,1.08,11,-7,10,0.64,10179,99,91,39,88,989,596.0,642,462,60,124.0,411,1,409,628,245,0,0,584,8488,3472,596,181.28,,,,,,,,,,,,
51923,1561297097781,3,2.35,2.22,2.81,2.37,3.5,0.54,-0.42,0.97,11,-5,10,0.68,10016,99,91,39,88,995,592.0,640,460,60,124.0,411,1,398,628,245,0,0,587,-12040,208,593,181.28,,,,,,,,,,,,
51943,1561297097801,4,2.34,2.2,2.89,2.32,3.57,0.56,-0.37,0.87,11,-2,10,0.67,9780,80,91,39,88,998,594.0,635,460,60,121.0,411,1,407,1101,245,0,0,582,-1894,-28648,594,-5.59,45.699806,4.910303,58.36,197.7,0,0.0,0,0.0,0.574,1,0.41,0.8657
51963,1561297097821,4,2.34,2.2,2.84,2.28,3.55,0.52,-0.32,0.88,9,-5,10,0.61,9750,98,91,39,88,1007,594.0,623,460,60,122.0,411,1,408,1017,245,0,0,589,208,4956,594,-5.59,,,,,,,,,,,,
51983,1561297097841,3,2.34,2.25,2.82,2.29,3.45,0.38,-0.27,0.95,9,1,10,0.46,9630,92,91,39,87,1011,598.0,632,466,60,121.0,411,1,414,862,245,0,0,679,3472,-10251,598,414.87,,,,,,,,,,,,
52003,1561297097861,5,2.34,2.38,2.69,2.36,3.3,0.31,-0.28,1.04,9,2,12,0.41,9422,100,91,39,86,1100,605.0,617,461,60,122.0,467,1,418,732,281,0,0,762,17344,-4091,605,181.28,,,,,,,,,,,,
52023,1561297097881,3,2.34,2.45,2.58,2.41,3.17,0.43,-0.29,1.1,9,-1,12,0.52,9566,61,91,39,86,1182,608.0,617,458,60,122.0,467,1,416,633,281,0,0,663,4956,24583,611,-5.59,,,,,,,,,,,,
52043,1561297097901,7,2.33,2.48,2.55,2.42,3.08,0.36,-0.22,1.16,8,1,11,0.42,9328,71,91,39,86,1238,615.0,616,461,60,122.0,467,1,418,578,281,0,0,643,17740,-3578,615,-5.59,45.699814,4.910286,58.66,197.7,0,0.0,0,0.0,0.5757,1,0.42,0.8674
52063,1561297097921,5,2.34,2.51,2.53,2.43,3.04,0.27,-0.1,1.13,9,-1,10,0.29,8992,64,91,39,87,1330,621.0,620,451,60,122.0,467,1,419,578,281,0,0,664,26688,-2345,621,414.87,,,,,,,,,,,,
52083,1561297097941,4,2.35,2.49,2.57,2.42,3.15,0.38,-0.1,1.09,9,0,7,0.39,8786,60,91,39,87,1322,627.0,611,457,60,122.0,467,1,424,578,281,0,0,664,30721,-2345,627,414.87,,,,,,,,,,,,
52103,1561297097961,5,2.35,2.46,2.6,2.45,3.32,0.45,-0.16,1.06,9,-1,7,0.48,8720,67,91,39,87,1307,630.0,596,451,60,122.0,310,1,426,589,195,0,0,685,17336,24583,630,-5.59,,,,,,,,,,,,
52123,1561297097981,3,2.35,2.43,2.64,2.45,3.41,0.41,-0.34,1.04,8,-2,7,0.53,8898,50,90,39,87,1255,633.0,608,463,60,123.0,310,1,421,589,195,0,0,668,20993,-2830,634,-5.59,,,,,,,,,,,,
52143,1561297097995,5,2.35,2.42,2.74,2.45,3.4,0.43,-0.44,1.06,7,-3,7,0.62,9132,53,90,39,86,1144,641.0,612,456,60,122.0,310,1,418,578,195,0,0,656,3,31988,641,-5.59,45.699825,4.910269,61.63,197.7,0,0.0,0,0.0,0.5773,1,0.42,0.869
52163,1561297098015,5,2.35,2.42,2.8,2.43,3.37,0.37,-0.4,1.05,7,-3,7,0.54,9245,50,90,39,86,1088,646.0,616,465,60,122.0,310,1,418,589,195,0,0,681,-2836,11576,646,181.28,,,,,,,,,,,,
52183,1561297098035,2,2.34,2.42,2.75,2.42,3.33,0.18,-0.34,1.0,8,1,7,0.39,9346,64,90,39,86,1014,653.0,617,459,60,122.0,310,1,418,578,195,0,0,680,-3584,3543,653,-5.59,,,,,,,,,,,,
52203,1561297098055,4,2.34,2.41,2.68,2.44,3.3,0.31,-0.41,1.1,9,-0,6,0.51,9393,58,90,39,86,989,657.0,627,460,60,122.0,314,1,418,578,206,0,0,695,479,12333,657,181.28,,,,,,,,,,,,
52223,1561297098075,3,2.35,2.4,2.59,2.5,3.31,0.46,-0.44,1.16,9,1,5,0.63,9389,37,90,39,82,1004,662.0,614,465,60,122.0,314,1,417,545,206,0,0,709,24583,6208,662,-5.59,,,,,,,,,,,,
52243,1561297098103,1,2.35,2.4,2.6,2.51,3.29,0.33,-0.45,1.08,8,-0,7,0.56,9389,27,90,39,74,1022,669.0,626,457,60,122.0,314,1,415,429,206,0,0,692,24583,11576,669,414.87,45.699833,4.910251,64.07,197.6,0,0.0,0,0.0,0.579,1,0.42,0.8707
52263,1561297098123,-1,2.34,2.4,2.61,2.47,3.29,0.27,-0.34,1.05,8,1,5,0.44,9309,18,90,39,65,1037,669.0,630,461,60,123.0,314,1,411,360,206,0,0,684,-2345,19188,669,181.28,,,,,,,,,,,,
52283,1561297098143,1,2.33,2.38,2.65,2.46,3.3,0.29,-0.33,0.97,8,1,6,0.44,9164,10,90,39,54,1049,674.0,628,457,60,122.0,314,1,400,305,206,0,0,682,3543,19188,674,181.28,,,,,,,,,,,,
52303,1561297098163,5,2.33,2.36,2.72,2.45,3.37,0.35,-0.19,0.91,8,-0,5,0.4,8848,2,90,39,44,1054,674.0,624,457,60,123.0,124,1,351,221,84,0,0,680,-3578,16599,675,181.28,,,,,,,,,,,,
52323,1561297098183,9,2.32,2.33,2.89,2.42,3.47,0.5,-0.22,0.88,7,-2,7,0.54,8593,3,90,39,37,1044,675.0,621,458,60,122.0,124,1,314,203,84,0,0,666,-3578,-388,674,414.87,,,,,,,,,,,,
52343,1561297098201,7,2.32,2.3,3.01,2.32,3.49,0.54,-0.2,0.79,6,-3,6,0.58,8381,0,90,39,33,1022,671.0,612,462,60,123.0,124,1,299,185,84,0,0,661,3543,-3578,670,181.28,45.699844,4.910233,66.52,197.6,0,0.0,0,0.0,0.5807,1,0.42,0.8724
52363,1561297098221,8,2.33,2.24,3.05,2.25,3.52,0.63,-0.21,0.78,7,-4,5,0.67,8162,0,90,39,30,995,668.0,605,462,60,124.0,124,1,286,171,84,0,0,655,-2345,-3578,668,181.28,,,,,,,,,,,,
52383,1561297098241,14,2.32,2.22,3.08,2.22,3.6,0.61,-0.17,0.71,6,-6,5,0.64,8002,3,90,39,28,977,667.0,589,460,60,124.0,124,1,278,161,84,0,0,644,-3038,-2345,667,181.28,,,,,,,,,,,,
52403,1561297098261,15,2.32,2.11,3.13,2.14,3.64,0.6,-0.2,0.61,5,-7,7,0.63,7914,0,90,39,27,944,661.0,578,459,60,124.0,71,1,275,159,47,0,0,611,-388,-5120,661,181.28,,,,,,,,,,,,
52423,1561297098281,15,2.32,2.03,3.17,2.05,3.64,0.73,-0.23,0.6,4,-6,7,0.77,7978,0,90,39,26,885,658.0,577,463,60,123.0,71,1,272,158,47,0,0,571,-3488,-1346,653,181.28,,,,,,,,,,,,
52443,1561297098302,16,2.33,2.0,3.2,1.98,3.64,0.8,-0.24,0.54,4,-7,7,0.83,8012,0,90,39,25,850,652.0,576,461,60,123.0,71,1,270,233,47,0,0,542,-8429,30227,652,181.28,45.699856,4.910214,66.51,197.6,0,0.0,0,0.0,0.5823,1,0.42,0.874
52463,1561297098322,19,2.31,1.97,3.19,1.95,3.63,0.68,-0.24,0.45,4,-7,7,0.72,7901,0,90,39,24,833,647.0,578,461,60,122.0,71,1,269,77,47,0,0,538,244,30721,647,-5.59,,,,,,,,,,,,
52483,1561297098342,18,2.31,1.95,3.19,1.93,3.61,0.69,-0.28,0.41,4,-6,7,0.74,7780,0,90,39,24,813,642.0,573,462,60,121.0,71,1,267,197,47,0,0,549,6208,19304,642,-5.59,,,,,,,,,,,,
52503,1561297098362,13,2.32,1.93,3.14,1.91,3.58,0.82,-0.28,0.41,4,-6,5,0.87,7799,0,90,39,23,806,636.0,570,457,60,121.0,87,1,267,180,56,0,0,553,-2836,269,636,-5.59,,,,,,,,,,,,
52523,1561297098382,16,2.32,1.89,3.16,1.87,3.58,0.94,-0.26,0.41,3,-5,5,0.98,7809,0,90,39,23,807,632.0,572,461,60,122.0,87,1,268,165,56,0,0,543,966,243,632,181.28,,,,,,,,,,,,
52543,1561297098403,15,2.32,1.85,3.17,1.82,3.59,0.97,-0.22,0.35,3,-7,7,0.99,7819,0,90,39,23,819,626.0,577,460,60,122.0,87,1,268,152,56,0,0,549,-16883,4956,626,181.28,45.699867,4.910197,64.17,197.6,0,0.0,0,0.0,0.584,1,0.42,0.8757
52563,1561297098423,18,2.31,1.84,3.17,1.81,3.59,0.84,-0.21,0.28,3,-5,6,0.86,7767,0,90,38,22,842,619.0,577,459,60,122.0,87,1,267,149,56,0,0,549,269,-16179,619,-5.59,,,,,,,,,,,,
52583,1561297098443,18,2.32,1.85,3.2,1.83,3.59,0.69,-0.22,0.24,2,-3,5,0.72,7709,0,90,38,22,858,613.0,572,462,60,121.0,87,1,267,72,56,0,0,552,28675,-12040,611,-5.59,,,,,,,,,,,,
52603,1561297098463,15,2.31,1.84,3.22,1.82,3.57,0.61,-0.27,0.19,2,-2,4,0.67,7712,0,90,38,22,881,607.0,569,459,60,122.0,70,1,267,149,43,0,0,563,-7939,1,607,414.87,,,,,,,,,,,,
52623,1561297098483,15,2.31,1.84,3.23,1.78,3.58,0.74,-0.28,0.14,2,-3,4,0.8,7674,0,90,38,22,883,603.0,565,461,60,122.0,70,1,266,149,43,0,0,573,-3210,-2934,603,414.87,,,,,,,,,,,,
52643,1561297098502,15,2.31,1.83,3.22,1.78,3.58,0.87,-0.25,0.13,2,-3,5,0.91,7678,0,90,38,22,887,599.0,559,459,60,121.0,70,1,266,149,43,0,0,557,3472,-22359,599,181.28,45.699875,4.91018,61.71,197.5,0,0.0,0,0.0,0.5857,1,0.43,0.8774
52663,1561297098522,15,2.31,1.81,3.23,1.78,3.58,0.99,-0.19,0.23,2,-3,6,1.0,7603,0,90,38,21,886,591.0,554,462,60,122.0,70,1,266,147,43,0,0,556,-12040,-8188,591,181.28,,,,,,,,,,,,
52683,1561297098542,14,2.31,1.79,3.25,1.78,3.6,1.09,-0.09,0.32,2,-3,7,1.09,7563,0,90,38,21,885,588.0,550,461,60,122.0,70,1,265,147,43,0,0,540,15649,-22359,588,414.87,,,,,,,,,,,,
52703,1561297098562,15,2.31,1.79,3.25,1.77,3.58,1.18,-0.08,0.34,2,-5,5,1.19,7431,0,90,38,21,880,584.0,550,460,60,122.0,70,1,264,147,41,0,0,533,-16384,2211,584,181.28,,,,,,,,,,,,
52723,1561297098582,14,2.32,1.78,3.25,1.77,3.55,1.27,-0.04,0.37,2,-5,4,1.27,7355,0,90,38,21,874,584.0,533,463,60,122.0,70,1,263,147,41,0,0,549,259,14504,578,181.28,,,,,,,,,,,,
52743,1561297098602,19,2.33,1.78,3.25,1.78,3.55,1.3,0.0,0.35,2,-4,5,1.3,7307,3,90,38,21,867,574.0,532,462,60,121.0,70,1,263,147,41,0,0,539,-2934,-32248,574,181.28,45.699886,4.910164,58.87,197.5,0,0.0,0,0.0,0.5873,1,0.43,0.879
52763,1561297098622,16,2.33,1.76,3.21,1.78,3.56,1.23,-0.07,0.28,2,-1,6,1.23,7304,3,90,38,21,857,567.0,532,462,60,121.0,70,1,263,147,41,0,0,526,-28648,-3082,566,414.87,,,,,,,,,,,,
52783,1561297098642,16,2.33,1.74,3.19,1.79,3.56,1.14,-0.2,0.21,2,-0,6,1.16,7225,3,90,38,21,854,562.0,535,460,60,122.0,70,1,262,147,41,0,0,527,-22263,-22519,562,-5.59,,,,,,,,,,,,
52803,1561297098662,15,2.31,1.72,3.18,1.77,3.55,0.98,-0.25,0.1,2,1,5,1.01,7183,3,90,38,20,850,559.0,529,463,60,121.0,69,1,262,144,39,0,0,523,-32248,-8186,559,-5.59,,,,,,,,,,,,
52823,1561297098682,14,2.31,1.7,3.17,1.75,3.56,1.09,-0.21,0.15,2,-3,5,1.11,7175,3,90,38,20,847,551.0,517,463,60,122.0,69,1,261,144,39,0,0,521,2524,1780,551,181.28,,,,,,,,,,,,
52843,1561297098702,18,2.31,1.69,3.2,1.75,3.59,1.18,-0.17,0.25,2,-1,6,1.19,7123,3,90,38,20,844,548.0,524,458,60,121.0,69,1,261,144,39,0,0,515,-2336,6274,545,414.87,45.699894,4.910148,56.12,197.5,0,0.0,0,0.0,0.589,1,0.43,0.8807
52863,1561297098722,16,2.3,1.69,3.18,1.76,3.58,1.05,-0.25,0.16,2,1,7,1.08,7062,3,90,38,20,843,540.0,519,461,60,121.0,69,1,260,144,39,0,0,500,-28648,-8187,540,-5.59,,,,,,,,,,,,
52883,1561297098742,11,2.29,1.69,3.16,1.76,3.59,0.97,-0.19,0.06,2,2,7,0.99,6957,3,90,38,20,843,538.0,512,459,60,122.0,69,1,259,144,39,0,0,510,-9072,-9072,538,-5.59,,,,,,,,,,,,
52903,1561297098762,15,2.29,1.72,3.16,1.77,3.56,1.08,-0.14,0.15,2,0,7,1.08,6853,3,90,38,20,848,529.0,515,460,60,123.0,69,1,259,144,37,0,0,505,2088,1341,529,414.87,,,,,,,,,,,,
52923,1561297098782,13,2.28,1.72,3.19,1.77,3.55,0.95,-0.15,0.04,1,1,7,0.96,6820,3,90,38,20,852,522.0,506,461,60,121.0,69,1,259,65,37,0,0,507,1341,26178,522,-5.59,,,,,,,,,,,,
52943,1561297098802,16,2.28,1.72,3.21,1.74,3.56,1.06,-0.04,0.18,1,-1,7,1.06,6833,3,90,38,20,858,516.0,501,461,60,123.0,69,1,259,143,37,0,0,495,-14,10408,515,181.28,45.699905,4.910134,53.32,197.5,0,0.0,0,0.0,0.5907,1,0.43,0.8824
52963,1561297098822,13,2.28,1.72,3.25,1.71,3.57,0.94,-0.06,0.11,0,-0,7,0.94,6798,3,90,38,20,862,513.0,502,461,60,122.0,69,1,259,143,37,0,0,486,26178,-32768,511,-5.59,,,,,,,,,,,,
52983,1561297098842,15,2.28,1.72,3.25,1.67,3.56,1.02,-0.06,0.24,-0,0,5,1.02,6667,3,90,38,20,874,510.0,502,460,60,122.0,69,1,259,142,37,0,0,493,-4054,1,505,181.28,,,,,,,,,,,,
53003,1561297098862,17,2.29,1.73,3.24,1.68,3.55,1.05,0.01,0.2,1,0,3,1.05,6562,3,90,38,21,883,507.0,496,458,60,122.0,69,1,260,67,35,0,0,497,-21872,248,502,-5.59,,,,,,,,,,,,
53023,1561297098882,12,2.3,1.73,3.23,1.68,3.55,1.07,-0.03,0.14,0,1,2,1.08,6514,3,90,38,21,893,501.0,495,464,60,122.0,69,1,260,144,35,0,0,485,11560,1,497,414.87,,,,,,,,,,,,
53043,1561297098902,15,2.3,1.76,3.23,1.69,3.55,1.1,-0.05,0.19,-1,-1,2,1.1,6496,3,90,38,21,898,494.0,491,460,60,122.0,69,1,260,144,35,0,0,475,998,10305,491,181.28,45.699913,4.91012,50.94,197.5,0,0.0,0,0.0,0.5923,1,0.43,0.884
53063,1561297098922,15,2.32,1.76,3.25,1.68,3.56,1.08,-0.05,0.15,-1,0,2,1.08,6485,3,90,38,21,913,489.0,491,458,60,122.0,69,1,260,144,35,0,0,469,505,8488,485,-5.59,,,,,,,,,,,,
53083,1561297098942,12,2.33,1.76,3.25,1.69,3.55,1.17,-0.04,0.06,0,0,2,1.17,6394,3,90,38,21,923,482.0,491,463,60,121.0,69,1,260,144,35,0,0,470,-899,-16384,481,414.87,,,,,,,,,,,,
53103,1561297098962,12,2.33,1.76,3.23,1.68,3.56,1.25,-0.13,0.15,1,-1,1,1.26,6315,0,90,38,21,937,479.0,487,462,60,123.0,71,1,260,143,34,0,0,464,-23367,30272,476,414.87,,,,,,,,,,,,
53123,1561297098982,13,2.33,1.74,3.2,1.66,3.56,1.24,-0.18,0.23,1,-3,-1,1.26,6239,0,90,38,21,944,476.0,485,462,60,122.0,71,1,260,143,34,0,0,455,-9203,30272,476,181.28,,,,,,,,,,,,
53143,1561297098996,13,2.33,1.73,3.12,1.67,3.57,1.26,-0.28,0.3,1,-10,-3,1.29,6117,3,90,38,22,958,473.0,478,464,60,123.0,71,1,262,145,34,0,0,450,32033,-9203,473,181.28,45.699924,4.910108,48.64,197.5,0,0.0,0,0.0,0.594,1,0.43,0.8857
53163,1561297099016,11,2.34,1.73,3.12,1.68,3.59,1.34,-0.22,0.35,1,-14,-0,1.35,6011,3,90,38,22,980,471.0,467,467,60,123.0,71,1,262,144,34,0,0,446,30272,6193,470,181.28,,,,,,,,,,,,
53183,1561297099036,12,2.33,1.73,3.15,1.68,3.61,1.2,-0.28,0.41,0,-12,-0,1.24,5890,3,90,38,22,991,464.0,461,462,60,123.0,71,1,260,144,34,0,0,365,-18108,-9211,464,414.87,,,,,,,,,,,,
53203,1561297099056,14,2.33,1.73,3.18,1.67,3.63,1.27,-0.38,0.41,0,-15,-0,1.32,6113,0,90,38,23,1002,458.0,465,461,60,123.0,71,1,264,149,33,0,0,346,2524,-768,458,181.28,,,,,,,,,,,,
53223,1561297099076,14,2.34,1.73,3.23,1.67,3.64,1.21,-0.34,0.42,0,-15,-1,1.26,6139,3,90,38,23,1020,453.0,465,462,60,123.0,71,1,264,149,33,0,0,277,8488,-1246,453,181.28,,,,,,,,,,,,
53243,1561297099102,13,2.35,1.73,3.19,1.7,3.61,1.15,-0.31,0.38,0,-14,-1,1.19,6099,3,90,38,23,1032,450.0,468,464,60,123.0,71,1,265,72,33,0,0,264,2131,-6405,447,-5.59,45.699928,4.910095,46.32,197.5,0,0.0,0,0.0,0.5957,1,0.44,0.8874
53263,1561297099122,15,2.35,1.72,3.16,1.7,3.59,1.09,-0.25,0.3,0,-14,-1,1.12,5975,3,90,38,23,1046,441.0,462,461,60,123.0,71,1,264,148,33,0,0,265,21580,-28332,441,181.28,,,,,,,,,,,,
53283,1561297099142,15,2.36,1.71,3.15,1.69,3.61,1.0,-0.22,0.31,0,-14,-1,1.03,5956,0,90,38,23,1055,438.0,455,460,60,123.0,71,1,264,148,33,0,0,246,-3314,-3414,438,-5.59,,,,,,,,,,,,
53303,1561297099162,15,2.38,1.68,3.15,1.68,3.64,0.87,-0.26,0.26,-0,-12,-1,0.91,6005,3,90,38,24,1060,431.0,456,460,60,123.0,76,1,267,148,33,0,0,218,31796,-26615,432,-5.59,,,,,,,,,,,,
53323,1561297099182,12,2.42,1.65,3.15,1.68,3.65,0.77,-0.26,0.26,-0,-13,-0,0.81,5961,3,90,38,24,1069,427.0,457,465,60,123.0,76,1,266,148,33,0,0,187,3826,-21792,427,-5.59,,,,,,,,,,,,
53343,1561297099203,10,2.45,1.65,3.15,1.73,3.65,0.73,-0.29,0.26,1,-12,-0,0.78,5819,0,90,38,24,1077,429.0,448,462,60,123.0,76,1,265,152,33,0,0,135,-21944,-3414,429,181.28,45.69994,4.910084,43.97,197.5,0,0.0,0,0.0,0.5973,1,0.44,0.889
53363,1561297099223,7,2.48,1.65,3.13,1.81,3.65,0.85,-0.37,0.31,3,-13,1,0.93,5668,0,90,38,24,1078,426.0,445,461,60,123.0,76,1,263,152,33,0,0,132,11560,-3414,426,414.87,,,,,,,,,,,,
53383,1561297099243,10,2.51,1.64,3.06,1.89,3.66,0.91,-0.37,0.28,6,-10,4,0.98,5513,0,90,38,25,1083,425.0,436,462,60,123.0,76,1,265,157,33,0,0,125,-8151,-3856,425,414.87,,,,,,,,,,,,
53403,1561297099263,6,2.51,1.63,3.01,1.96,3.66,0.82,-0.42,0.31,8,-9,6,0.92,5405,0,90,38,26,1090,425.0,424,468,60,122.0,75,1,266,157,32,0,0,125,6384,-3414,425,-5.59,,,,,,,,,,,,
53423,1561297099283,8,2.52,1.64,2.97,2.03,3.68,0.94,-0.43,0.32,10,-9,8,1.04,5247,0,90,38,27,1097,423.0,413,456,60,124.0,75,1,265,157,32,0,0,116,1,-21792,424,181.28,,,,,,,,,,,,
53443,1561297099301,9,2.52,1.62,2.96,2.11,3.68,0.92,-0.48,0.35,12,-9,9,1.04,5113,3,90,38,28,1100,423.0,407,464,60,124.0,75,1,265,157,32,0,0,122,-19019,-8165,423,181.28,45.699947,4.910073,41.55,197.5,0,0.0,0,0.0,0.599,1,0.44,0.8907
53463,1561297099321,6,2.52,1.61,2.96,2.14,3.71,0.87,-0.54,0.31,13,-8,12,1.02,4962,0,90,38,29,1106,422.0,400,461,60,123.0,75,1,262,156,32,0,0,121,19125,18584,422,414.87,,,,,,,,,,,,
53483,1561297099341,5,2.53,1.62,2.96,2.17,3.75,0.91,-0.57,0.34,16,-7,14,1.08,4837,0,90,39,30,1110,419.0,384,461,60,123.0,75,1,255,155,32,0,0,111,8200,-21944,419,414.87,,,,,,,,,,,,
53503,1561297099361,1,2.53,1.62,2.97,2.23,3.76,0.97,-0.6,0.32,18,-7,17,1.14,4683,0,90,39,31,1113,420.0,377,459,60,124.0,66,1,246,156,28,0,0,98,8200,-4059,420,181.28,,,,,,,,,,,,
53523,1561297099381,1,2.53,1.61,2.97,2.27,3.76,1.03,-0.59,0.32,20,-9,20,1.19,4557,0,90,39,32,1113,418.0,361,463,60,124.0,66,1,238,155,28,0,0,98,742,13040,419,414.87,,,,,,,,,,,,
53543,1561297099401,0,2.52,1.62,2.96,2.27,3.75,1.08,-0.61,0.38,22,-8,21,1.24,4413,0,90,39,32,1113,418.0,352,458,60,124.0,66,1,228,157,28,0,0,90,3,-21944,418,414.87,45.699955,4.910063,40.21,197.5,0,0.0,0,0.0,0.6007,1,0.44,0.8924
53563,1561297099421,5,2.53,1.62,2.93,2.27,3.74,1.05,-0.73,0.37,24,-5,21,1.28,4268,0,90,39,33,1067,417.0,340,457,60,123.0,66,1,224,159,28,0,0,97,3,-21944,417,181.28,,,,,,,,,,,,
53583,1561297099441,2,2.53,1.62,2.86,2.28,3.75,1.04,-0.79,0.33,24,-3,23,1.3,4104,0,90,39,33,1009,415.0,333,458,60,123.0,66,1,213,158,28,0,0,133,770,-9166,415,414.87,,,,,,,,,,,,
53603,1561297099461,-1,2.52,1.61,2.87,2.26,3.77,1.02,-0.85,0.33,23,-4,24,1.32,4047,0,90,39,34,964,413.0,321,461,60,122.0,58,1,217,160,24,0,0,167,-6656,-1818,411,-5.59,,,,,,,,,,,,
53623,1561297099481,0,2.49,1.6,2.89,2.21,3.78,1.07,-0.81,0.37,23,-5,25,1.34,4070,2,90,39,34,914,405.0,313,464,60,124.0,58,1,218,160,24,0,0,135,257,-6656,405,181.28,,,,,,,,,,,,
53643,1561297099503,0,2.47,1.59,2.95,2.18,3.78,1.07,-0.8,0.37,23,-5,26,1.33,4256,6,90,39,34,864,404.0,320,457,60,123.0,58,1,229,162,24,0,0,129,0,-6656,404,414.87,45.699963,4.910055,39.33,197.5,0,0.0,0,0.0,0.6023,1,0.44,0.894
53663,1561297099523,1,2.44,1.64,2.96,2.17,3.77,1.09,-0.77,0.37,23,-3,27,1.33,4360,10,90,39,35,797,401.0,322,460,60,122.0,58,1,243,166,24,0,0,129,0,-6475,401,181.28,,,,,,,,,,,,
53683,1561297099543,1,2.41,1.74,2.95,2.15,3.69,1.04,-0.75,0.29,22,-0,28,1.29,4422,13,90,39,36,760,395.0,329,461,60,123.0,58,1,253,170,24,0,0,92,230,-6475,395,181.28,,,,,,,,,,,,
53703,1561297099563,0,2.38,1.78,2.96,2.12,3.63,1.09,-0.73,0.32,22,-0,28,1.31,4502,14,90,39,38,744,391.0,331,461,60,122.0,73,1,269,103,29,0,0,99,-6405,3,391,-5.59,,,,,,,,,,,,
53723,1561297099583,0,2.34,1.79,2.96,2.08,3.62,1.12,-0.66,0.34,21,-0,28,1.3,4580,15,90,39,40,723,381.0,341,460,60,122.0,73,1,281,188,29,0,0,157,-1268,-14707,381,414.87,,,,,,,,,,,,
53743,1561297099601,-1,2.31,1.81,2.99,2.02,3.61,1.18,-0.61,0.36,19,-3,27,1.33,4721,16,90,39,42,697,376.0,346,455,60,124.0,73,1,291,198,29,0,0,207,2790,-6405,376,181.28,45.69997,4.910047,37.84,197.5,0,0.0,0,0.0,0.604,1,0.44,0.8957
53763,1561297099621,1,2.28,1.81,3.07,1.92,3.57,1.21,-0.47,0.29,16,-4,26,1.3,4792,19,90,39,44,697,371.0,350,462,60,124.0,73,1,297,204,29,0,0,252,-6458,-30438,368,181.28,,,,,,,,,,,,
53783,1561297099641,1,2.23,1.84,3.13,1.77,3.53,1.15,-0.34,0.28,15,-2,25,1.2,4949,16,90,39,47,697,364.0,357,458,60,123.0,73,1,304,138,29,0,0,317,-14707,-122,364,-5.59,,,,,,,,,,,,
53803,1561297099661,1,2.19,1.94,3.19,1.7,3.48,1.24,-0.3,0.26,12,-4,22,1.28,5086,22,90,39,50,705,360.0,365,464,60,123.0,114,1,308,224,41,0,0,351,-14707,-28416,359,414.87,,,,,,,,,,,,
53823,1561297099681,-1,2.17,2.02,3.24,1.63,3.45,1.2,-0.16,0.23,9,-4,19,1.21,5316,26,90,39,54,717,361.0,380,460,60,123.0,114,1,325,241,41,0,0,343,-6458,-32559,352,181.28,,,,,,,,,,,,
53843,1561297099701,-1,2.14,2.05,3.27,1.58,3.42,1.28,-0.2,0.3,7,-4,15,1.3,5608,26,90,39,57,725,359.0,402,464,60,123.0,114,1,349,248,41,0,0,347,-29302,-22016,347,414.87,45.699978,4.91004,36.18,197.5,0,0.0,0,0.0,0.6057,1,0.44,0.8974
53863,1561297099721,1,2.11,2.07,3.27,1.54,3.39,1.36,-0.2,0.33,5,-4,13,1.37,5920,28,90,39,59,735,361.0,426,458,60,123.0,114,1,375,248,41,0,0,345,-29302,4838,343,414.87,,,,,,,,,,,,
53883,1561297099741,-0,2.07,2.12,3.28,1.52,3.36,1.42,-0.18,0.39,3,-5,8,1.43,6214,21,90,39,60,760,359.0,451,463,60,123.0,114,1,389,254,41,0,0,347,-29302,-32559,339,414.87,,,,,,,,,,,,
53903,1561297099761,5,2.05,2.19,3.34,1.52,3.35,1.41,-0.04,0.41,0,-7,5,1.41,6499,19,90,39,60,778,358.0,468,459,60,123.0,185,1,399,192,62,0,0,343,-29978,-22016,335,-5.59,,,,,,,,,,,,
53923,1561297099781,2,2.02,2.26,3.36,1.51,3.29,1.22,0.01,0.31,-3,-3,2,1.22,6708,20,90,39,60,800,357.0,492,458,60,122.0,185,1,407,274,62,0,0,352,-6640,-23296,330,181.28,,,,,,,,,,,,
53943,1561297099801,4,2.0,2.33,3.36,1.51,3.22,1.3,0.2,0.44,-6,-5,-1,1.32,6751,22,90,39,60,812,360.0,500,461,60,123.0,185,1,409,276,62,0,0,357,-29302,170,326,-5.59,45.699986,4.910034,34.35,197.5,0,0.0,0,0.0,0.6073,1,0.44,0.899
53963,1561297099821,2,1.98,2.39,3.38,1.53,3.16,0.98,0.19,0.35,-10,-1,-5,1.0,6803,21,90,39,60,834,362.0,510,459,60,122.0,185,1,411,278,62,0,0,357,2790,160,323,414.87,,,,,,,,,,,,
53983,1561297099841,-0,1.96,2.42,3.45,1.53,3.12,1.09,0.35,0.38,-12,-4,-8,1.14,6860,16,90,39,60,849,364.0,512,461,60,122.0,185,1,413,208,62,0,0,358,-1268,-25856,322,-5.59,,,,,,,,,,,,
54003,1561297099861,4,1.97,2.43,3.48,1.53,3.09,1.0,0.38,0.43,-14,-2,-12,1.07,6957,27,90,39,60,865,362.0,515,462,60,122.0,231,1,417,284,74,0,0,358,2790,-27136,320,414.87,,,,,,,,,,,,
54023,1561297099881,2,1.95,2.43,3.47,1.54,3.07,0.74,0.4,0.36,-17,-1,-15,0.84,7046,30,90,39,60,869,362.0,525,459,60,122.0,231,1,420,287,74,0,0,358,2790,-30976,318,181.28,,,,,,,,,,,,
54043,1561297099901,1,1.94,2.44,3.47,1.55,3.06,0.86,0.54,0.35,-18,-2,-17,1.01,7140,23,90,39,60,898,361.0,529,462,60,123.0,231,1,421,288,74,0,0,357,-6458,140,318,-5.59,45.699993,4.910028,33.16,197.5,0,0.0,0,0.0,0.609,1,0.44,0.9007
54063,1561297099921,0,1.95,2.46,3.46,1.57,3.04,0.98,0.58,0.5,-20,-3,-19,1.13,7134,21,90,39,59,964,360.0,522,462,60,123.0,231,1,416,282,74,0,0,362,-14707,-6656,318,181.28,,,,,,,,,,,,
54083,1561297099941,3,1.95,2.47,3.45,1.56,2.99,0.68,0.52,0.44,-23,-1,-22,0.86,6975,27,90,39,60,1002,363.0,524,466,60,122.0,231,1,417,285,74,0,0,366,3082,-3414,319,414.87,,,,,,,,,,,,
54103,1561297099961,1,1.94,2.47,3.45,1.56,2.98,0.71,0.56,0.4,-24,-3,-25,0.9,6947,27,90,39,60,1059,367.0,517,462,60,122.0,228,1,418,284,73,0,0,364,0,-6656,319,-5.59,,,,,,,,,,,,
54123,1561297099981,1,1.94,2.46,3.43,1.62,2.98,0.84,0.6,0.53,-25,-4,-28,1.04,7043,23,90,39,60,1097,368.0,528,461,60,124.0,228,1,420,287,73,0,0,368,0,-29302,320,181.28,,,,,,,,,,,,
54143,1561297099997,3,1.94,2.46,3.43,1.64,2.97,0.63,0.53,0.5,-27,-1,-29,0.82,6929,19,90,39,60,1161,367.0,526,460,60,124.0,228,1,415,283,73,0,0,368,0,-29978,321,414.87,45.700001,4.91002,33.03,197.4,0,0.0,0,0.0,0.6107,1,0.45,0.9024
54163,1561297100017,0,1.94,2.46,3.43,1.57,2.97,0.77,0.59,0.57,-28,-5,-30,0.97,6858,24,90,39,61,1190,366.0,517,461,60,123.0,228,1,417,280,73,0,0,367,230,240,325,-5.59,,,,,,,,,,,,
54183,1561297100037,2,1.95,2.46,3.38,1.54,2.95,0.73,0.55,0.66,-30,-0,-33,0.91,6838,24,90,39,61,1197,370.0,515,458,60,124.0,228,1,417,284,73,0,0,371,486,486,325,414.87,,,,,,,,,,,,
54203,1561297100057,-0,1.95,2.46,3.36,1.56,2.97,0.64,0.56,0.66,-31,-2,-34,0.85,6833,19,90,39,61,1199,375.0,514,462,60,122.0,226,1,416,285,74,0,0,375,770,-31206,326,-5.59,,,,,,,,,,,,
54223,1561297100077,3,1.95,2.48,3.34,1.57,2.97,0.78,0.61,0.72,-32,-2,-35,0.99,6808,12,90,39,62,1198,378.0,510,461,60,124.0,226,1,411,288,74,0,0,374,2278,-30454,326,181.28,,,,,,,,,,,,
54243,1561297100101,-1,1.95,2.54,3.33,1.61,2.96,0.65,0.7,0.61,-32,-1,-35,0.95,6756,18,90,39,62,1194,376.0,506,463,60,122.0,226,1,409,285,74,0,0,375,3,1,328,-5.59,45.700008,4.910012,33.56,197.4,0,0.0,0,0.0,0.6123,1,0.45,0.904
54263,1561297100121,3,1.95,2.55,3.35,1.6,2.98,0.76,0.72,0.7,-32,-1,-37,1.05,6783,27,90,40,62,1189,376.0,505,457,60,124.0,226,1,410,285,74,0,0,376,3,486,329,181.28,,,,,,,,,,,,
54283,1561297100141,1,1.94,2.55,3.38,1.6,3.07,0.6,0.71,0.58,-33,0,-37,0.93,6771,19,90,40,63,1182,375.0,506,460,60,123.0,226,1,406,289,74,0,0,372,770,3082,330,-5.59,,,,,,,,,,,,
54303,1561297100161,5,1.96,2.54,3.42,1.58,3.09,0.74,0.68,0.68,-34,-3,-38,1.01,6820,20,90,40,63,1173,374.0,506,456,60,124.0,223,1,408,287,74,0,0,372,-6656,0,331,181.28,,,,,,,,,,,,
54323,1561297100181,1,1.96,2.54,3.39,1.59,3.01,0.48,0.67,0.55,-34,0,-38,0.82,6913,25,90,40,63,1167,376.0,506,456,60,123.0,223,1,412,295,74,0,0,372,2278,-1268,330,414.87,,,,,,,,,,,,
54343,1561297100203,-2,1.97,2.53,3.39,1.58,3.01,0.63,0.78,0.64,-33,-5,-38,1.0,6908,28,90,40,62,1168,376.0,507,446,60,124.0,223,1,416,290,74,0,0,373,2278,-6644,330,181.28,45.700008,4.910003,33.88,197.4,0,0.0,0,0.0,0.614,1,0.45,0.9057
54363,1561297100223,4,1.96,2.52,3.37,1.58,3.01,0.54,0.76,0.63,-35,-2,-38,0.93,6893,10,90,40,62,1167,377.0,513,450,60,124.0,223,1,415,289,74,0,0,375,-6656,3183,331,414.87,,,,,,,,,,,,
54383,1561297100243,0,1.97,2.53,3.36,1.59,2.98,0.49,0.78,0.55,-35,-2,-38,0.92,6939,22,90,40,62,1166,380.0,503,457,60,122.0,223,1,417,291,74,0,0,376,-992,-29978,334,-5.59,,,,,,,,,,,,
54403,1561297100263,1,1.97,2.52,3.36,1.58,2.98,0.64,0.89,0.63,-35,-3,-40,1.1,6962,24,90,40,62,1166,381.0,510,452,60,124.0,226,1,418,293,76,0,0,378,-18948,-19019,335,181.28,,,,,,,,,,,,
54423,1561297100283,3,1.98,2.51,3.37,1.58,2.99,0.52,0.86,0.59,-35,-1,-41,1.0,6988,20,90,40,62,1166,379.0,514,443,60,123.0,226,1,419,294,76,0,0,379,8200,-6656,333,414.87,,,,,,,,,,,,
54443,1561297100302,1,2.0,2.49,3.37,1.59,2.98,0.52,0.9,0.54,-35,-2,-40,1.04,7038,19,90,40,62,1166,381.0,515,454,60,123.0,226,1,420,224,76,0,0,381,-18948,-6656,335,-5.59,45.700016,4.909993,34.52,197.4,0,0.0,0,0.0,0.6157,1,0.45,0.9074
54463,1561297100322,0,2.01,2.49,3.41,1.59,2.98,0.67,0.94,0.58,-34,-4,-39,1.16,7072,21,90,40,62,1171,382.0,522,443,60,124.0,226,1,421,295,76,0,0,378,19125,8200,337,181.28,,,,,,,,,,,,
54483,1561297100342,4,2.04,2.49,3.41,1.66,3.0,0.5,0.88,0.61,-34,-2,-40,1.01,7094,29,90,40,61,1178,383.0,522,433,60,124.0,226,1,426,295,76,0,0,381,-19126,-1818,338,414.87,,,,,,,,,,,,
54503,1561297100362,3,2.05,2.48,3.4,1.73,3.01,0.38,0.81,0.61,-33,-1,-41,0.89,7167,24,90,40,61,1182,380.0,519,441,60,123.0,230,1,428,292,78,0,0,379,-992,-18948,339,181.28,,,,,,,,,,,,
54523,1561297100382,3,2.08,2.46,3.38,1.79,3.01,0.43,0.82,0.54,-32,-0,-41,0.93,7233,23,90,40,61,1188,379.0,526,451,60,122.0,230,1,429,293,78,0,0,378,8200,230,342,-5.59,,,,,,,,,,,,
54543,1561297100402,-0,2.09,2.47,3.34,1.87,3.01,0.59,0.88,0.59,-31,-2,-40,1.06,7164,12,90,39,61,1186,379.0,526,453,60,123.0,230,1,428,294,78,0,0,381,8200,2278,343,181.28,45.70002,4.909982,34.34,197.4,0,0.0,0,0.0,0.6173,1,0.45,0.909
54563,1561297100422,1,2.11,2.48,3.24,1.91,3.02,0.61,0.91,0.66,-30,-2,-40,1.09,7153,21,90,39,61,1182,379.0,524,453,60,123.0,230,1,427,294,78,0,0,382,8200,-19019,348,181.28,,,,,,,,,,,,
54583,1561297100442,4,2.14,2.47,3.13,1.97,3.02,0.43,0.81,0.68,-29,-1,-38,0.92,7102,31,90,39,61,1173,380.0,524,441,60,123.0,230,1,426,294,78,0,0,382,8200,0,352,414.87,,,,,,,,,,,,
54603,1561297100462,2,2.18,2.48,3.06,1.97,3.06,0.38,0.77,0.64,-27,-2,-36,0.86,7046,24,90,39,61,1164,380.0,517,459,60,122.0,221,1,425,293,78,0,0,382,2278,486,355,-5.59,,,,,,,,,,,,
54623,1561297100482,-0,2.22,2.47,3.04,1.95,3.15,0.51,0.68,0.69,-25,-3,-35,0.85,6954,16,90,39,61,1159,380.0,515,457,60,123.0,221,1,422,290,78,0,0,382,-992,2278,357,181.28,,,,,,,,,,,,
54643,1561297100496,2,2.28,2.44,3.01,1.94,3.26,0.44,0.52,0.68,-23,-3,-34,0.68,6883,18,90,39,61,1150,381.0,515,455,60,123.0,221,1,418,291,78,0,0,380,-18948,-6656,363,414.87,45.700024,4.90997,35.44,197.4,0,0.0,0,0.0,0.619,1,0.45,0.9107
54663,1561297100516,0,2.33,2.38,2.94,1.94,3.37,0.43,0.44,0.71,-20,-5,-32,0.62,6906,17,90,39,62,1151,380.0,508,451,60,123.0,221,1,415,292,78,0,0,380,-992,-6656,365,-5.59,,,,,,,,,,,,
