"Interval"|"ms"|0|0|1,"Utc"|"ms"|0|0|1,"FB_p"|"bar"|0|300|50,"Volant"|"F"|0.0|300.0|50,"xFR"|"mm"|0.0|5.0|50,"xRR"|"mm"|0.0|5.0|50,"xFL"|"mm"|0.0|5.0|50,"xRL"|"mm"|0.0|5.0|50,"AccelX"|"G"|-3.0|3.0|50,"AccelY"|"G"|-3.0|3.0|50,"AccelZ"|"G"|-3.0|3.0|50,"Yaw"|"Deg/Sec"|-120|120|50,"Pitch"|"Deg/Sec"|-120|120|50,"Roll"|"Deg/Sec"|-120|120|50,"Gsum"|"G"|0.0|3.0|50,"RPM"|""|0|14000|50,"TPS"|"%"|0|100|50,"WaterTemp"|"?C"|0|300|50,"AirTemp"|"?C"|-1000|1000|50,"MAP"|"KPa"|0|255|50,"Lambda"|""|0|1024|50,"WheelSpeed"|"MPH"|0.0|150.0|50,"OilPress"|"PSI"|0|150|50,"FuelPress"|"PSI"|0|150|50,"OilTemp"|"F"|0|300|50,"Battery"|"Volts"|0.0|20.0|50,"FuelCon"|"L/h"|-1000|1000|50,"Gear"|""|0|10|50,"Advance"|"Deg"|-360|360|50,"Injection"|"ms"|-1000|1000|50,"FuelCon"|"L/100km"|-1000|1000|50,"LC_But_Pres"|""|-1000|1000|50,"LC_Active"|""|-1000|1000|50,"RD_Speed"|""|-1000|1000|50,"RUD_Speed"|""|-1000|1000|50,"LD_Speed"|""|-1000|1000|50,"LUD_Speed"|""|-1000|1000|50,"Ana1"|"bar"|-1000.0|1000.0|50,"Latitude"|"Degrees"|-180.0|180.0|10,"Longitude"|"Degrees"|-180.0|180.0|10,"Speed"|"kph"|0.0|150.0|10,"Altitude"|"m"|0.0|4000.0|10,"LapCount"|""|0|0|10,"LapTime"|"Min"|0.0|0.0|10,"Sector"|""|0|0|10,"SectorTime"|"Min"|0.0|0.0|10,"ElapsedTime"|"Min"|0.0|0.0|10,"CurrentLap"|""|0|0|10,"Distance"|"km"|0.0|0.0|10,"SessionTime"|"Min"|0.0|0.0|10
3383,0,2,2.2,2.02,2.88,1.89,3.25,0.77,0.02,0.61,0,-1,0,0.77,0,0,100,39,98,506,0.0,123,371,60,123.0,0,1,0,0,0,0,0,0,250,250,0,181.28,,,,,,,,,,,,
3403,0,0,2.22,2.02,2.88,1.89,3.25,0.77,0.02,0.61,-0,-1,0,0.77,0,0,100,39,98,506,0.0,122,370,60,123.0,0,1,0,0,0,0,0,0,250,250,0,181.28,,,,,,,,,,,,
3423,0,2,2.21,2.01,2.88,1.89,3.24,0.77,0.02,0.61,-0,-1,0,0.77,0,0,100,39,98,507,0.0,122,368,60,123.0,0,1,0,0,0,0,0,0,250,250,0,181.28,,,,,,,,,,,,
3443,0,2,2.21,2.02,2.89,1.88,3.25,0.77,0.02,0.61,-1,-2,0,0.77,0,0,100,39,98,507,0.0,122,368,60,123.0,0,1,0,0,0,0,0,0,250,250,0,181.28,0.0,0.0,0.0,0.0,0,0.0,-1,0.0,0.0,0,0.0,0.0574
3463,0,0,2.21,2.02,2.88,1.88,3.24,0.77,0.02,0.61,-1,-2,0,0.77,0,0,100,39,98,507,0.0,122,367,60,123.0,0,1,0,0,0,0,0,0,250,250,0,181.28,,,,,,,,,,,,
3483,0,2,2.21,2.02,2.88,1.89,3.24,0.77,0.02,0.61,-1,-2,1,0.77,0,0,100,39,98,507,0.0,122,365,60,123.0,0,1,0,0,0,0,0,0,250,250,0,181.28,,,,,,,,,,,,
3503,0,0,2.21,2.02,2.88,1.88,3.24,0.77,0.02,0.61,-1,-2,1,0.77,0,0,100,39,98,507,0.0,122,365,60,123.0,0,1,0,0,0,0,0,0,250,250,0,181.28,,,,,,,,,,,,
3523,0,2,2.21,2.02,2.88,1.89,3.25,0.77,0.02,0.61,-1,-2,0,0.77,0,0,100,39,98,507,0.0,122,362,60,123.0,0,1,0,0,0,0,0,0,250,250,0,181.28,,,,,,,,,,,,
3543,0,3,2.21,2.02,2.89,1.9,3.25,0.77,0.02,0.61,-1,-2,0,0.77,0,0,100,39,98,507,0.0,122,362,60,123.0,0,1,0,0,0,0,0,0,250,250,0,181.28,0.0,0.0,0.0,0.0,0,0.0,-1,0.0,0.0,0,0.0,0.059
3563,0,2,2.21,2.02,2.88,1.9,3.25,0.77,0.02,0.61,-1,-2,0,0.77,0,0,100,39,98,507,0.0,122,362,60,123.0,0,1,0,0,0,0,0,0,250,250,0,181.28,,,,,,,,,,,,
3583,0,2,2.21,2.02,2.88,1.9,3.24,0.78,0.02,0.61,-0,-1,-0,0.78,0,0,100,39,98,507,0.0,122,361,60,123.0,0,1,0,0,0,0,0,0,250,250,0,181.28,,,,,,,,,,,,
3603,0,2,2.22,2.02,2.89,1.89,3.25,0.78,0.02,0.61,0,-1,-1,0.78,0,0,100,39,98,507,0.0,122,360,60,123.0,0,1,0,0,0,0,0,0,250,250,0,181.28,,,,,,,,,,,,
3623,0,2,2.21,2.02,2.88,1.89,3.24,0.77,0.02,0.61,0,-0,-1,0.77,0,0,100,39,98,507,0.0,122,360,60,123.0,0,1,0,0,0,0,0,0,250,250,0,181.28,,,,,,,,,,,,
3643,0,2,2.21,2.02,2.89,1.89,3.25,0.77,0.03,0.61,0,-0,-1,0.77,0,0,100,39,98,507,0.0,121,360,60,123.0,0,1,0,0,0,0,0,0,250,250,0,181.28,0.0,0.0,0.0,0.0,0,0.0,-1,0.0,0.0,0,0.0,0.0607
3663,0,1,2.22,2.02,2.88,1.89,3.24,0.77,0.02,0.61,0,-0,-1,0.77,0,0,100,39,98,507,0.0,121,357,60,123.0,0,1,0,0,0,0,0,0,250,250,0,181.28,,,,,,,,,,,,
3683,0,2,2.21,2.02,2.88,1.89,3.25,0.77,0.02,0.61,0,-0,-1,0.77,0,0,100,39,98,507,0.0,121,357,60,123.0,0,1,0,0,0,0,0,0,250,250,0,181.28,,,,,,,,,,,,
3703,0,0,2.21,2.02,2.89,1.88,3.25,0.77,0.02,0.61,0,-0,-0,0.77,0,0,100,39,98,507,0.0,121,357,60,123.0,0,1,0,0,0,0,0,0,250,250,0,181.28,,,,,,,,,,,,
3723,0,2,2.21,2.02,2.89,1.88,3.25,0.77,0.02,0.61,0,-0,-0,0.77,0,0,100,39,98,507,0.0,121,357,60,123.0,0,1,0,0,0,0,0,0,250,250,0,181.28,,,,,,,,,,,,
3743,0,0,2.21,2.02,2.89,1.9,3.25,0.77,0.02,0.62,0,-0,-0,0.77,0,0,100,39,98,507,0.0,121,355,60,123.0,0,1,0,0,0,0,0,0,250,250,0,181.28,0.0,0.0,0.0,0.0,0,0.0,-1,0.0,0.0,0,0.0,0.0624
3763,0,2,2.21,2.02,2.89,1.9,3.24,0.77,0.02,0.62,0,-0,-0,0.77,0,0,100,39,98,507,0.0,121,355,60,123.0,0,1,0,0,0,0,0,0,250,250,0,181.28,,,,,,,,,,,,
3783,0,2,2.21,2.02,2.88,1.89,3.25,0.77,0.02,0.62,0,-0,-0,0.77,0,0,100,39,98,507,0.0,121,354,60,123.0,0,1,0,0,0,0,0,0,250,250,0,181.28,,,,,,,,,,,,
3803,0,1,2.22,2.02,2.88,1.89,3.24,0.77,0.02,0.61,0,-0,-0,0.77,0,0,100,39,98,507,0.0,121,354,60,123.0,0,1,0,0,0,0,0,0,250,250,0,181.28,,,,,,,,,,,,
3823,0,2,2.21,2.02,2.88,1.89,3.24,0.77,0.02,0.62,0,-1,-0,0.77,0,0,100,39,98,507,0.0,121,352,60,123.0,0,1,0,0,0,0,0,0,250,250,0,181.28,,,,,,,,,,,,
3843,0,2,2.21,2.03,2.89,1.89,3.25,0.77,0.02,0.62,0,-0,-0,0.77,0,0,100,39,98,507,0.0,121,352,60,123.0,0,1,0,0,0,0,0,0,250,250,0,181.28,0.0,0.0,0.0,0.0,0,0.0,-1,0.0,0.0,0,0.0,0.064
3863,0,2,2.21,2.02,2.88,1.89,3.24,0.77,0.02,0.62,0,-0,-0,0.77,0,0,100,39,98,507,0.0,121,352,60,123.0,0,1,0,0,0,0,0,0,250,250,0,181.28,,,,,,,,,,,,
3883,0,2,2.21,2.02,2.89,1.89,3.24,0.77,0.02,0.62,0,-1,-0,0.77,0,0,100,39,98,507,0.0,121,352,60,123.0,0,1,0,0,0,0,0,0,250,250,0,181.28,,,,,,,,,,,,
3903,0,2,2.22,2.02,2.88,1.89,3.24,0.77,0.02,0.62,0,-1,-0,0.77,0,0,100,39,98,507,0.0,122,351,60,123.0,0,1,0,0,0,0,0,0,250,250,0,181.28,,,,,,,,,,,,
3923,0,1,2.21,2.02,2.88,1.89,3.25,0.77,0.02,0.62,0,-1,-0,0.77,0,0,100,39,98,508,0.0,122,349,60,123.0,0,1,0,0,0,0,0,0,250,250,0,181.28,,,,,,,,,,,,
3943,0,2,2.2,2.02,2.89,1.89,3.24,0.77,0.02,0.62,0,-1,-0,0.77,0,0,100,39,98,508,0.0,121,348,60,123.0,0,1,0,0,0,0,0,0,250,250,0,181.28,0.0,0.0,0.0,0.0,0,0.0,-1,0.0,0.0,0,0.0,0.0657
3963,0,2,2.21,2.02,2.89,1.89,3.24,0.77,0.02,0.62,0,-1,-0,0.77,0,0,100,39,98,508,0.0,121,348,60,123.0,0,1,0,0,0,0,0,0,250,250,0,181.28,,,,,,,,,,,,
3983,0,1,2.21,2.02,2.88,1.89,3.24,0.77,0.02,0.62,0,-1,-0,0.77,0,0,100,39,98,508,0.0,121,347,60,123.0,0,1,0,0,0,0,0,0,250,250,0,181.28,,,,,,,,,,,,
4003,0,0,2.21,2.02,2.89,1.89,3.24,0.77,0.02,0.62,0,-1,-0,0.77,0,0,100,39,98,507,0.0,121,346,60,123.0,0,1,0,0,0,0,0,0,250,250,0,181.28,,,,,,,,,,,,
4023,0,2,2.21,2.02,2.89,1.89,3.25,0.77,0.02,0.62,0,-1,-0,0.77,0,0,100,39,98,507,0.0,122,346,60,123.0,0,1,0,0,0,0,0,0,250,250,0,-5.59,,,,,,,,,,,,
4043,0,2,2.2,2.02,2.88,1.89,3.25,0.77,0.02,0.62,0,-1,-0,0.77,0,0,100,39,98,507,0.0,122,346,60,123.0,0,1,0,0,0,0,0,0,250,250,0,181.28,0.0,0.0,0.0,0.0,0,0.0,-1,0.0,0.0,0,0.0,0.0674
4063,0,1,2.21,2.02,2.89,1.89,3.24,0.77,0.02,0.62,0,-1,-0,0.77,0,0,100,39,98,507,0.0,122,346,60,123.0,0,1,0,0,0,0,0,0,250,250,0,181.28,,,,,,,,,,,,
4083,0,2,2.21,2.02,2.88,1.89,3.25,0.77,0.02,0.62,0,-1,-0,0.77,0,0,100,39,98,507,0.0,122,344,60,123.0,0,1,0,0,0,0,0,0,250,250,0,181.28,,,,,,,,,,,,
4103,0,0,2.21,2.02,2.89,1.88,3.25,0.77,0.02,0.62,0,-1,-0,0.77,0,0,100,39,98,507,0.0,121,343,60,123.0,0,1,0,0,0,0,0,0,250,250,0,181.28,,,,,,,,,,,,
4123,0,3,2.21,2.02,2.89,1.88,3.25,0.77,0.02,0.62,0,-1,-0,0.77,0,0,100,39,98,507,0.0,121,343,60,123.0,0,1,0,0,0,0,0,0,250,250,0,181.28,,,,,,,,,,,,
4143,0,1,2.2,2.02,2.89,1.89,3.24,0.77,0.02,0.62,0,-1,-0,0.77,0,0,100,39,98,507,0.0,121,343,60,123.0,0,1,0,0,0,0,0,0,250,250,0,181.28,0.0,0.0,0.0,0.0,0,0.0,-1,0.0,0.0,0,0.0,0.069
4163,0,1,2.22,2.02,2.89,1.89,3.25,0.77,0.02,0.62,0,-1,-0,0.77,0,0,100,39,98,507,0.0,121,342,60,123.0,0,1,0,0,0,0,0,0,250,250,0,181.28,,,,,,,,,,,,
4183,0,1,2.22,2.02,2.88,1.89,3.24,0.77,0.02,0.62,0,-1,-0,0.77,0,0,100,39,98,507,0.0,121,341,60,123.0,0,1,0,0,0,0,0,0,250,250,0,181.28,,,,,,,,,,,,
4203,0,1,2.22,2.02,2.89,1.89,3.24,0.77,0.02,0.62,0,-1,-0,0.77,0,0,100,39,98,507,0.0,121,341,60,123.0,0,1,0,0,0,0,0,0,250,250,0,181.28,,,,,,,,,,,,
4223,0,0,2.22,2.02,2.89,1.88,3.25,0.77,0.02,0.62,0,-1,-0,0.77,0,0,100,39,98,507,0.0,121,341,60,123.0,0,1,0,0,0,0,0,0,250,250,0,181.28,,,,,,,,,,,,
4243,0,2,2.21,2.02,2.89,1.89,3.24,0.77,0.02,0.62,0,-1,-0,0.78,0,0,100,39,98,507,0.0,121,341,60,123.0,0,1,0,0,0,0,0,0,250,250,0,181.28,0.0,0.0,0.0,0.0,0,0.0,-1,0.0,0.0,0,0.0,0.0707
4263,0,3,2.21,2.02,2.89,1.89,3.25,0.77,0.02,0.62,0,-1,-0,0.77,0,0,100,39,98,507,0.0,121,340,60,123.0,0,1,0,0,0,0,0,0,250,250,0,181.28,,,,,,,,,,,,
4283,0,3,2.21,2.02,2.89,1.89,3.24,0.77,0.02,0.62,0,-1,-0,0.77,0,0,100,39,98,507,0.0,121,338,60,123.0,0,1,0,0,0,0,0,0,250,250,0,181.28,,,,,,,,,,,,
4303,0,0,2.21,2.03,2.89,1.88,3.25,0.77,0.02,0.62,0,-1,-0,0.77,0,0,100,39,98,507,0.0,122,338,60,123.0,0,1,0,0,0,0,0,0,250,250,0,181.28,,,,,,,,,,,,
4323,0,1,2.21,2.02,2.89,1.89,3.24,0.77,0.02,0.62,0,-1,-0,0.77,0,0,100,39,98,507,0.0,122,338,60,123.0,0,1,0,0,0,0,0,0,250,250,0,181.28,,,,,,,,,,,,
4343,0,2,2.21,2.03,2.89,1.89,3.24,0.77,0.02,0.62,0,-1,-0,0.77,0,0,100,39,98,507,0.0,122,337,60,123.0,0,1,0,0,0,0,0,0,250,250,0,181.28,0.0,0.0,0.0,0.0,0,0.0,-1,0.0,0.0,0,0.0,0.0724
4363,0,2,2.22,2.03,2.89,1.89,3.25,0.77,0.02,0.62,0,-1,-0,0.77,0,0,100,39,98,507,0.0,122,336,60,123.0,0,1,0,0,0,0,0,0,250,250,0,181.28,,,,,,,,,,,,
4383,0,3,2.21,2.02,2.89,1.89,3.25,0.77,0.02,0.62,0,-1,-0,0.77,0,0,100,39,98,507,0.0,122,335,60,123.0,0,1,0,0,0,0,0,0,250,250,0,181.28,,,,,,,,,,,,
4403,0,3,2.21,2.02,2.89,1.88,3.25,0.77,0.02,0.62,0,-1,-0,0.77,0,0,100,39,98,507,0.0,122,335,60,123.0,0,1,0,0,0,0,0,0,250,250,0,181.28,,,,,,,,,,,,
4423,0,2,2.22,2.01,2.89,1.89,3.25,0.77,0.02,0.62,0,-1,-0,0.77,0,0,100,39,98,507,0.0,122,336,60,123.0,0,1,0,0,0,0,0,0,250,250,0,181.28,,,,,,,,,,,,
4443,0,1,2.21,2.02,2.88,1.89,3.24,0.77,0.02,0.62,0,-1,-0,0.77,0,0,100,39,98,507,0.0,122,336,60,123.0,0,1,0,0,0,0,0,0,250,250,0,181.28,0.0,0.0,0.0,0.0,0,0.0,-1,0.0,0.0,0,0.0,0.074
4463,0,0,2.22,2.02,2.88,1.89,3.24,0.77,0.02,0.62,0,-1,-0,0.77,0,0,100,39,98,507,0.0,122,336,60,123.0,0,1,0,0,0,0,0,0,250,250,0,181.28,,,,,,,,,,,,
4483,0,1,2.22,2.02,2.88,1.88,3.25,0.77,0.02,0.62,0,-1,-0,0.77,0,0,100,40,98,507,0.0,122,333,60,123.0,0,1,0,0,0,0,0,0,250,250,0,181.28,,,,,,,,,,,,
4503,0,0,2.21,2.02,2.88,1.88,3.24,0.77,0.02,0.61,0,-1,-0,0.77,0,0,100,40,98,507,0.0,121,333,60,123.0,0,1,0,0,0,0,0,0,250,250,0,181.28,,,,,,,,,,,,
4523,0,3,2.21,2.02,2.88,1.88,3.25,0.77,0.02,0.61,0,-1,-0,0.77,0,0,100,40,98,507,0.0,121,333,60,123.0,0,1,0,0,0,0,0,0,250,250,0,181.28,,,,,,,,,,,,
4543,0,0,2.21,2.02,2.89,1.89,3.24,0.77,0.02,0.61,0,-1,-0,0.77,0,0,100,40,98,507,0.0,121,333,60,123.0,0,1,0,0,0,0,0,0,250,250,0,181.28,0.0,0.0,0.0,0.0,0,0.0,-1,0.0,0.0,0,0.0,0.0757
4563,0,0,2.22,2.02,2.89,1.88,3.25,0.77,0.02,0.61,0,-1,-0,0.77,0,0,100,40,98,507,0.0,122,333,60,123.0,0,1,0,0,0,0,0,0,250,250,0,181.28,,,,,,,,,,,,
4583,0,1,2.2,2.02,2.89,1.89,3.24,0.77,0.02,0.61,0,-1,-0,0.77,0,0,100,40,98,507,0.0,122,331,60,123.0,0,1,0,0,0,0,0,0,250,250,0,181.28,,,,,,,,,,,,
4603,0,3,2.21,2.02,2.89,1.88,3.25,0.77,0.02,0.61,0,-1,-0,0.77,0,0,100,40,98,507,0.0,122,330,60,123.0,0,1,0,0,0,0,0,0,250,250,0,181.28,,,,,,,,,,,,
4623,0,2,2.22,2.02,2.89,1.89,3.25,0.77,0.02,0.61,0,-1,-0,0.77,0,0,100,40,98,507,0.0,122,330,60,123.0,0,1,0,0,0,0,0,0,250,250,0,181.28,,,,,,,,,,,,
4643,0,0,2.21,2.02,2.89,1.88,3.25,0.77,0.02,0.61,0,-1,-0,0.77,0,0,100,40,98,507,0.0,122,330,60,123.0,0,1,0,0,0,0,0,0,250,250,0,181.28,0.0,0.0,0.0,0.0,0,0.0,-1,0.0,0.0,0,0.0,0.0774
4663,0,1,2.22,2.02,2.88,1.89,3.24,0.77,0.02,0.61,0,-1,-0,0.77,0,0,100,40,98,507,0.0,122,330,60,123.0,0,1,0,0,0,0,0,0,250,250,0,181.28,,,,,,,,,,,,
4683,0,1,2.22,2.02,2.88,1.89,3.25,0.77,0.02,0.61,0,-1,-0,0.77,0,0,100,40,98,507,0.0,122,329,60,123.0,0,1,0,0,0,0,0,0,250,250,0,181.28,,,,,,,,,,,,
4703,0,2,2.2,2.02,2.88,1.89,3.24,0.77,0.02,0.61,0,-1,-0,0.77,0,0,100,40,98,507,0.0,122,328,60,123.0,0,1,0,0,0,0,0,0,250,250,0,181.28,,,,,,,,,,,,
4723,0,2,2.21,2.02,2.88,1.89,3.25,0.77,0.02,0.61,0,-1,-0,0.77,0,0,100,40,98,507,0.0,123,327,60,123.0,0,1,0,0,0,0,0,0,250,250,0,181.28,,,,,,,,,,,,
4743,0,2,2.21,2.02,2.89,1.89,3.24,0.77,0.02,0.61,0,-1,-0,0.77,0,0,100,40,98,507,0.0,123,327,60,123.0,0,1,0,0,0,0,0,0,250,250,0,181.28,0.0,0.0,0.0,0.0,0,0.0,-1,0.0,0.0,0,0.0,0.079
4763,0,2,2.21,2.01,2.88,1.89,3.24,0.77,0.02,0.61,0,-1,-0,0.77,0,0,100,40,98,507,0.0,123,327,60,123.0,0,1,0,0,0,0,0,0,250,250,0,181.28,,,,,,,,,,,,
4783,0,0,2.22,2.02,2.88,1.89,3.24,0.77,0.02,0.61,0,-1,-0,0.77,0,0,100,40,98,508,0.0,123,327,60,123.0,0,1,0,0,0,0,0,0,250,250,0,181.28,,,,,,,,,,,,
4803,0,2,2.22,2.01,2.89,1.89,3.25,0.77,0.02,0.61,0,-1,-0,0.77,0,0,100,40,98,508,0.0,123,327,60,123.0,0,1,0,0,0,0,0,0,250,250,0,181.28,,,,,,,,,,,,
4823,0,3,2.21,2.02,2.89,1.89,3.25,0.77,0.02,0.61,0,-1,-0,0.77,0,0,100,40,98,507,0.0,123,325,60,123.0,0,1,0,0,0,0,0,0,250,250,0,181.28,,,,,,,,,,,,
4843,0,2,2.22,2.02,2.88,1.89,3.24,0.77,0.02,0.61,0,-1,-0,0.77,0,0,100,40,98,507,0.0,123,325,60,123.0,0,1,0,0,0,0,0,0,250,250,0,181.28,0.0,0.0,0.0,0.0,0,0.0,-1,0.0,0.0,0,0.0,0.0807
4863,0,2,2.21,2.02,2.88,1.89,3.24,0.77,0.02,0.61,0,-1,-0,0.77,0,0,100,40,98,507,0.0,123,325,60,123.0,0,1,0,0,0,0,0,0,250,250,0,181.28,,,,,,,,,,,,
4883,0,1,2.21,2.02,2.88,1.89,3.25,0.77,0.02,0.61,0,-1,-0,0.77,0,0,100,40,98,507,0.0,123,325,60,123.0,0,1,0,0,0,0,0,0,250,250,0,181.28,,,,,,,,,,,,
4903,0,2,2.21,2.03,2.89,1.89,3.25,0.77,0.02,0.61,0,-1,-0,0.77,0,0,100,40,98,507,0.0,123,325,60,123.0,0,1,0,0,0,0,0,0,250,250,0,181.28,,,,,,,,,,,,
4923,0,1,2.22,2.02,2.88,1.89,3.24,0.77,0.02,0.61,0,-1,-0,0.77,0,0,100,40,98,507,0.0,123,324,60,123.0,0,1,0,0,0,0,0,0,250,250,0,181.28,,,,,,,,,,,,
4943,0,2,2.22,2.02,2.89,1.89,3.25,0.77,0.02,0.61,0,-1,-0,0.77,0,0,100,40,98,507,0.0,122,324,60,123.0,0,1,0,0,0,0,0,0,250,250,0,181.28,0.0,0.0,0.0,0.0,0,0.0,-1,0.0,0.0,0,0.0,0.0824
4963,0,2,2.21,2.02,2.89,1.89,3.25,0.77,0.02,0.61,0,-1,-0,0.77,0,0,100,40,98,507,0.0,122,322,60,123.0,0,1,0,0,0,0,0,0,250,250,0,181.28,,,,,,,,,,,,
4983,0,0,2.22,2.02,2.89,1.89,3.24,0.77,0.02,0.61,0,-1,-0,0.77,0,0,100,40,98,507,0.0,122,322,60,123.0,0,1,0,0,0,0,0,0,250,250,0,181.28,,,,,,,,,,,,
5003,0,2,2.21,2.02,2.89,1.88,3.25,0.77,0.02,0.61,0,-1,-0,0.77,0,0,100,40,98,507,0.0,122,322,60,123.0,0,1,0,0,0,0,0,0,250,250,0,181.28,,,,,,,,,,,,
5023,0,1,2.21,2.02,2.89,1.88,3.25,0.77,0.02,0.61,0,-1,-0,0.77,0,0,100,40,98,507,0.0,122,322,60,123.0,0,1,0,0,0,0,0,0,250,250,0,181.28,,,,,,,,,,,,
5043,0,1,2.21,2.02,2.89,1.89,3.25,0.77,0.02,0.61,0,-1,-0,0.77,0,0,100,40,98,507,0.0,122,322,60,123.0,0,1,0,0,0,0,0,0,250,250,0,181.28,0.0,0.0,0.0,0.0,0,0.0,-1,0.0,0.0,0,0.0,0.084
5063,0,3,2.21,2.02,2.89,1.89,3.25,0.77,0.02,0.61,0,-1,-0,0.77,0,0,100,40,98,507,0.0,122,321,60,123.0,0,1,0,0,0,0,0,0,250,250,0,181.28,,,,,,,,,,,,
5083,0,1,2.21,2.01,2.88,1.88,3.23,0.77,0.02,0.61,0,-1,-0,0.77,0,0,100,40,98,507,0.0,122,319,60,123.0,0,1,0,0,0,0,0,0,250,250,0,181.28,,,,,,,,,,,,
5103,0,1,2.22,2.02,2.89,1.89,3.25,0.77,0.02,0.61,0,-1,-0,0.77,0,0,100,40,98,507,0.0,122,319,60,123.0,0,1,0,0,0,0,0,0,250,250,0,181.28,,,,,,,,,,,,
5123,0,2,2.21,2.02,2.88,1.9,3.24,0.77,0.02,0.61,0,-1,-0,0.77,0,0,100,40,98,507,0.0,123,319,60,123.0,0,1,0,0,0,0,0,0,250,250,0,181.28,,,,,,,,,,,,
5143,0,2,2.21,2.02,2.89,1.88,3.25,0.77,0.02,0.61,0,-1,-0,0.77,0,0,100,40,98,507,0.0,123,319,60,123.0,0,1,0,0,0,0,0,0,250,250,0,181.28,0.0,0.0,0.0,0.0,0,0.0,-1,0.0,0.0,0,0.0,0.0857
5163,0,1,2.21,2.02,2.88,1.89,3.25,0.77,0.02,0.61,0,-1,-0,0.77,0,0,100,40,98,507,0.0,123,318,60,123.0,0,1,0,0,0,0,0,0,250,250,0,181.28,,,,,,,,,,,,
5183,0,3,2.2,2.02,2.88,1.89,3.25,0.77,0.02,0.61,0,-1,-0,0.77,0,0,100,40,98,507,0.0,123,317,60,123.0,0,1,0,0,0,0,0,0,250,250,0,181.28,,,,,,,,,,,,
5203,0,2,2.21,2.02,2.89,1.88,3.24,0.77,0.02,0.61,0,-1,-0,0.77,0,0,100,40,98,507,0.0,123,317,60,123.0,0,1,0,0,0,0,0,0,250,250,0,181.28,,,,,,,,,,,,
5223,0,2,2.2,2.02,2.88,1.89,3.24,0.77,0.02,0.61,0,-1,-0,0.77,0,0,100,40,98,507,0.0,123,317,60,123.0,0,1,0,0,0,0,0,0,250,250,0,181.28,,,,,,,,,,,,
5243,0,0,2.21,2.02,2.89,1.88,3.25,0.77,0.02,0.61,0,-1,-0,0.77,0,0,100,40,98,507,0.0,123,316,60,123.0,0,1,0,0,0,0,0,0,250,250,0,181.28,0.0,0.0,0.0,0.0,0,0.0,-1,0.0,0.0,0,0.0,0.0874
5263,0,2,2.21,2.02,2.88,1.89,3.25,0.77,0.02,0.61,0,-1,-0,0.77,0,0,100,40,98,507,0.0,123,316,60,123.0,0,1,0,0,0,0,0,0,250,250,0,181.28,,,,,,,,,,,,
5283,0,2,2.21,2.03,2.89,1.89,3.24,0.77,0.02,0.61,0,-1,-0,0.77,0,0,100,40,98,507,0.0,123,316,60,123.0,0,1,0,0,0,0,0,0,250,250,0,181.28,,,,,,,,,,,,
5303,0,1,2.21,2.03,2.89,1.89,3.25,0.77,0.02,0.61,0,-1,-0,0.77,0,0,100,40,98,507,0.0,123,316,60,123.0,0,1,0,0,0,0,0,0,250,250,0,181.28,,,,,,,,,,,,
5323,0,0,2.22,2.02,2.88,1.89,3.24,0.77,0.02,0.61,0,-1,-0,0.77,0,0,100,40,98,507,0.0,123,316,60,123.0,0,1,0,0,0,0,0,0,250,250,0,181.28,,,,,,,,,,,,
5343,0,1,2.2,2.02,2.89,1.89,3.24,0.77,0.02,0.61,0,-1,-0,0.77,0,0,100,40,98,507,0.0,123,315,60,123.0,0,1,0,0,0,0,0,0,250,250,0,181.28,0.0,0.0,0.0,0.0,0,0.0,-1,0.0,0.0,0,0.0,0.089
5363,0,3,2.21,2.02,2.88,1.89,3.24,0.77,0.02,0.61,0,-1,-0,0.77,0,0,100,40,98,507,0.0,123,314,60,123.0,0,1,0,0,0,0,0,0,250,250,0,181.28,,,,,,,,,,,,
5383,0,0,2.22,2.02,2.88,1.88,3.24,0.77,0.02,0.61,0,-1,-0,0.77,0,0,100,40,98,507,0.0,123,313,60,123.0,0,1,0,0,0,0,0,0,250,250,0,181.28,,,,,,,,,,,,
5403,0,1,2.22,2.02,2.88,1.89,3.24,0.77,0.02,0.61,0,-1,-0,0.77,0,0,100,40,98,507,0.0,123,313,60,123.0,0,1,0,0,0,0,0,0,250,250,0,181.28,,,,,,,,,,,,
5423,0,1,2.21,2.02,2.88,1.88,3.25,0.77,0.02,0.61,0,-1,-0,0.77,0,0,100,40,98,507,0.0,123,313,60,123.0,0,1,0,0,0,0,0,0,250,250,0,414.87,,,,,,,,,,,,
5443,0,2,2.21,2.02,2.89,1.89,3.24,0.77,0.02,0.61,0,-1,-0,0.77,0,0,100,40,98,507,0.0,123,313,60,123.0,0,1,0,0,0,0,0,0,250,250,0,181.28,0.0,0.0,0.0,0.0,0,0.0,-1,0.0,0.0,0,0.0,0.0907
5463,0,2,2.21,2.02,2.89,1.89,3.25,0.77,0.02,0.61,0,-1,-0,0.77,0,0,100,40,98,507,0.0,123,312,60,123.0,0,1,0,0,0,0,0,0,250,250,0,181.28,,,,,,,,,,,,
5483,0,2,2.21,2.02,2.89,1.89,3.24,0.77,0.02,0.61,0,-1,-0,0.77,0,0,100,40,98,507,0.0,123,312,60,123.0,0,1,0,0,0,0,0,0,250,250,0,181.28,,,,,,,,,,,,
5503,0,2,2.21,2.02,2.89,1.9,3.24,0.77,0.02,0.61,0,-1,-0,0.77,0,0,100,40,98,507,0.0,123,312,60,123.0,0,1,0,0,0,0,0,0,250,250,0,181.28,,,,,,,,,,,,
5523,0,2,2.21,2.02,2.88,1.89,3.25,0.77,0.02,0.61,0,-1,-0,0.77,0,0,100,40,98,507,0.0,123,311,60,123.0,0,1,0,0,0,0,0,0,250,250,0,181.28,,,,,,,,,,,,
5543,0,2,2.21,2.02,2.88,1.9,3.24,0.77,0.02,0.61,0,-1,-0,0.77,0,0,100,40,98,507,0.0,123,311,60,123.0,0,1,0,0,0,0,0,0,250,250,0,181.28,0.0,0.0,0.0,0.0,0,0.0,-1,0.0,0.0,0,0.0,0.0924
5563,0,2,2.21,2.03,2.89,1.89,3.24,0.77,0.02,0.61,0,-1,-0,0.77,0,0,100,40,98,507,0.0,123,311,60,123.0,0,1,0,0,0,0,0,0,250,250,0,181.28,,,,,,,,,,,,
5583,0,3,2.21,2.02,2.88,1.9,3.25,0.77,0.02,0.61,0,-1,-0,0.77,0,0,100,40,98,507,0.0,123,311,60,123.0,0,1,0,0,0,0,0,0,250,250,0,181.28,,,,,,,,,,,,
5603,0,2,2.22,2.02,2.89,1.89,3.25,0.77,0.02,0.61,0,-1,-0,0.77,0,0,100,40,98,507,0.0,123,311,60,123.0,0,1,0,0,0,0,0,0,250,250,0,181.28,,,,,,,,,,,,
5623,0,3,2.22,2.02,2.89,1.89,3.25,0.77,0.02,0.61,0,-1,-0,0.77,0,0,100,40,98,507,0.0,123,311,60,123.0,0,1,0,0,0,0,0,0,250,250,0,414.87,,,,,,,,,,,,
5643,0,2,2.21,2.02,2.89,1.89,3.24,0.77,0.02,0.61,0,-1,-0,0.77,0,0,100,40,98,507,0.0,123,311,60,123.0,0,1,0,0,0,0,0,0,250,250,0,181.28,0.0,0.0,0.0,0.0,0,0.0,-1,0.0,0.0,0,0.0,0.094
5663,0,2,2.21,2.02,2.89,1.9,3.25,0.77,0.02,0.61,0,-1,-0,0.77,0,0,100,40,98,507,0.0,123,310,60,123.0,0,1,0,0,0,0,0,0,250,250,0,181.28,,,,,,,,,,,,
5683,0,2,2.21,2.02,2.89,1.88,3.25,0.77,0.02,0.61,0,-1,-0,0.77,0,0,100,40,98,507,0.0,123,308,60,123.0,0,1,0,0,0,0,0,0,250,250,0,181.28,,,,,,,,,,,,
5703,0,2,2.21,2.02,2.88,1.89,3.24,0.77,0.02,0.61,0,-1,-0,0.77,0,0,100,40,98,507,0.0,123,308,60,123.0,0,1,0,0,0,0,0,0,250,250,0,181.28,,,,,,,,,,,,
5723,0,3,2.2,2.02,2.88,1.89,3.25,0.77,0.02,0.61,0,-1,-0,0.77,0,0,100,40,98,507,0.0,123,308,60,123.0,0,1,0,0,0,0,0,0,250,250,0,181.28,,,,,,,,,,,,
5743,0,2,2.21,2.02,2.89,1.88,3.25,0.77,0.02,0.61,0,-1,-0,0.77,0,0,100,40,98,507,0.0,122,308,60,123.0,0,1,0,0,0,0,0,0,250,250,0,181.28,0.0,0.0,0.0,0.0,0,0.0,-1,0.0,0.0,0,0.0,0.0957
5763,0,2,2.21,2.02,2.89,1.89,3.24,0.77,0.02,0.61,0,-1,-0,0.77,0,0,100,40,98,507,0.0,122,308,60,123.0,0,1,0,0,0,0,0,0,250,250,0,181.28,,,,,,,,,,,,
5783,0,3,2.22,2.02,2.89,1.89,3.25,0.77,0.02,0.61,0,-1,-0,0.77,0,0,100,40,98,507,0.0,122,308,60,123.0,0,1,0,0,0,0,0,0,250,250,0,181.28,,,,,,,,,,,,
5803,0,2,2.21,2.02,2.89,1.88,3.25,0.77,0.02,0.61,0,-1,-0,0.77,0,0,100,40,98,507,0.0,122,308,60,123.0,0,1,0,0,0,0,0,0,250,250,0,181.28,,,,,,,,,,,,
5823,0,0,2.22,2.02,2.88,1.88,3.25,0.77,0.02,0.61,0,-1,-0,0.77,0,0,100,40,98,507,0.0,122,308,60,123.0,0,1,0,0,0,0,0,0,250,250,0,181.28,,,,,,,,,,,,
5843,0,3,2.21,2.02,2.89,1.9,3.24,0.77,0.02,0.61,0,-1,-0,0.77,0,0,100,40,98,507,0.0,122,306,60,123.0,0,1,0,0,0,0,0,0,250,250,0,181.28,0.0,0.0,0.0,0.0,0,0.0,-1,0.0,0.0,0,0.0,0.0974
5863,0,1,2.21,2.02,2.88,1.89,3.24,0.77,0.02,0.61,0,-1,-0,0.77,0,0,100,40,98,507,0.0,122,306,60,123.0,0,1,0,0,0,0,0,0,250,250,0,181.28,,,,,,,,,,,,
5883,0,0,2.22,2.02,2.88,1.89,3.25,0.77,0.02,0.61,0,-1,-0,0.77,0,0,100,40,98,507,0.0,122,306,60,123.0,0,1,0,0,0,0,0,0,250,250,0,181.28,,,,,,,,,,,,
5903,0,2,2.2,2.01,2.88,1.88,3.23,0.77,0.02,0.61,0,-1,-0,0.77,0,0,100,40,98,507,0.0,122,306,60,123.0,0,1,0,0,0,0,0,0,250,250,0,181.28,,,,,,,,,,,,
5923,0,0,2.22,2.02,2.88,1.89,3.24,0.77,0.02,0.61,0,-1,-0,0.77,0,0,100,40,98,507,0.0,122,306,60,123.0,0,1,0,0,0,0,0,0,250,250,0,181.28,,,,,,,,,,,,
5943,0,2,2.2,2.02,2.89,1.89,3.25,0.77,0.02,0.61,0,-1,-0,0.77,0,0,100,40,98,507,0.0,122,306,60,123.0,0,1,0,0,0,0,0,0,250,250,0,181.28,0.0,0.0,0.0,0.0,0,0.0,-1,0.0,0.0,0,0.0,0.099
5963,0,2,2.21,2.02,2.9,1.9,3.24,0.77,0.02,0.61,0,-1,-0,0.77,0,0,100,40,98,507,0.0,122,306,60,123.0,0,1,0,0,0,0,0,0,250,250,0,181.28,,,,,,,,,,,,
5983,0,2,2.22,2.02,2.89,1.89,3.25,0.77,0.02,0.61,0,-1,-0,0.77,0,0,100,40,98,507,0.0,122,305,60,123.0,0,1,0,0,0,0,0,0,250,250,0,181.28,,,,,,,,,,,,
6003,0,1,2.22,2.02,2.88,1.89,3.24,0.77,0.02,0.61,0,-1,-0,0.77,0,0,100,40,98,507,0.0,122,303,60,123.0,0,1,0,0,0,0,0,0,250,250,0,181.28,,,,,,,,,,,,
6023,0,-0,2.22,2.02,2.88,1.89,3.25,0.77,0.02,0.62,0,-1,-0,0.77,0,0,100,40,98,507,0.0,122,303,60,123.0,0,1,0,0,0,0,0,0,250,250,0,181.28,,,,,,,,,,,,
6043,0,1,2.21,2.02,2.89,1.89,3.25,0.77,0.02,0.62,0,-1,-0,0.77,0,0,100,40,98,507,0.0,122,303,60,123.0,0,1,0,0,0,0,0,0,250,250,0,181.28,0.0,0.0,0.0,0.0,0,0.0,-1,0.0,0.0,0,0.0,0.1007
6063,0,-1,2.22,2.02,2.88,1.89,3.24,0.77,0.02,0.62,0,-1,-0,0.77,0,0,100,40,98,507,0.0,122,303,60,123.0,0,1,0,0,0,0,0,0,250,250,0,181.28,,,,,,,,,,,,
6083,0,0,2.21,2.02,2.88,1.89,3.24,0.77,0.02,0.62,0,-1,-0,0.77,0,0,100,40,98,507,0.0,122,302,60,123.0,0,1,0,0,0,0,0,0,250,250,0,181.28,,,,,,,,,,,,
6103,0,1,2.21,2.03,2.88,1.89,3.24,0.77,0.02,0.62,0,-1,-0,0.77,0,0,100,40,98,507,0.0,123,302,60,123.0,0,1,0,0,0,0,0,0,250,250,0,181.28,,,,,,,,,,,,
6123,0,1,2.21,2.02,2.89,1.88,3.25,0.77,0.02,0.62,0,-1,-0,0.77,0,0,100,40,98,507,0.0,123,302,60,123.0,0,1,0,0,0,0,0,0,250,250,0,181.28,,,,,,,,,,,,
6143,0,-0,2.21,2.02,2.89,1.9,3.24,0.77,0.02,0.62,0,-1,-0,0.77,0,0,100,40,98,507,0.0,123,302,60,123.0,0,1,0,0,0,0,0,0,250,250,0,-5.59,0.0,0.0,0.0,0.0,0,0.0,-1,0.0,0.0,0,0.0,0.1024
6163,0,-1,2.21,2.02,2.89,1.88,3.25,0.77,0.02,0.62,0,-1,-0,0.77,0,0,100,40,98,507,0.0,123,302,60,123.0,0,1,0,0,0,0,0,0,250,250,0,181.28,,,,,,,,,,,,
6183,0,1,2.21,2.02,2.89,1.89,3.25,0.77,0.02,0.62,0,-1,-0,0.77,0,0,100,40,98,507,0.0,123,300,60,123.0,0,1,0,0,0,0,0,0,250,250,0,-5.59,,,,,,,,,,,,
6203,0,-1,2.22,2.03,2.88,1.89,3.24,0.77,0.02,0.62,0,-1,-0,0.77,0,0,100,40,98,507,0.0,123,300,60,123.0,0,1,0,0,0,0,0,0,250,250,0,181.28,,,,,,,,,,,,
6223,0,-1,2.22,2.02,2.88,1.89,3.25,0.77,0.02,0.62,0,-1,-0,0.77,0,0,100,40,98,507,0.0,123,300,60,123.0,0,1,0,0,0,0,0,0,250,250,0,181.28,,,,,,,,,,,,
6243,0,0,2.21,2.02,2.88,1.89,3.25,0.77,0.02,0.62,0,-1,-0,0.77,0,0,100,40,98,507,0.0,123,300,60,123.0,0,1,0,0,0,0,0,0,250,250,0,181.28,0.0,0.0,0.0,0.0,0,0.0,-1,0.0,0.0,0,0.0,0.104
6263,0,-1,2.21,2.02,2.89,1.89,3.24,0.77,0.02,0.62,0,-1,-0,0.77,0,0,100,40,98,507,0.0,123,300,60,123.0,0,1,0,0,0,0,0,0,250,250,0,-5.59,,,,,,,,,,,,
6283,0,0,2.21,2.02,2.89,1.88,3.24,0.77,0.02,0.62,0,-1,-0,0.77,0,0,100,40,98,507,0.0,123,300,60,123.0,0,1,0,0,0,0,0,0,250,250,0,181.28,,,,,,,,,,,,
6303,0,-1,2.21,2.02,2.89,1.89,3.25,0.77,0.02,0.62,0,-1,-0,0.77,0,0,100,40,98,507,0.0,123,300,60,123.0,0,1,0,0,0,0,0,0,250,250,0,181.28,,,,,,,,,,,,
6323,0,0,2.22,2.02,2.88,1.88,3.25,0.77,0.02,0.62,0,-1,-0,0.77,0,0,100,40,98,507,0.0,123,299,60,123.0,0,1,0,0,0,0,0,0,250,250,0,181.28,,,,,,,,,,,,
6343,0,1,2.21,2.02,2.89,1.89,3.25,0.77,0.02,0.62,0,-1,-0,0.77,0,0,100,40,98,507,0.0,123,298,60,123.0,0,1,0,0,0,0,0,0,250,250,0,181.28,0.0,0.0,0.0,0.0,0,0.0,-1,0.0,0.0,0,0.0,0.1057
6363,0,0,2.21,2.02,2.89,1.89,3.24,0.77,0.02,0.62,0,-1,-0,0.77,0,0,100,40,98,507,0.0,123,297,60,123.0,0,1,0,0,0,0,0,0,250,250,0,181.28,,,,,,,,,,,,
6383,0,0,2.22,2.02,2.89,1.89,3.25,0.77,0.02,0.62,0,-1,-0,0.77,0,0,100,40,98,507,0.0,123,297,60,123.0,0,1,0,0,0,0,0,0,250,250,0,181.28,,,,,,,,,,,,
6403,0,-1,2.22,2.02,2.88,1.89,3.24,0.77,0.02,0.62,0,-1,-0,0.77,0,0,100,40,98,507,0.0,123,297,60,123.0,0,1,0,0,0,0,0,0,250,250,0,181.28,,,,,,,,,,,,
6423,0,-2,2.21,2.02,2.88,1.89,3.25,0.77,0.02,0.62,0,-1,-0,0.77,0,0,100,40,98,507,0.0,123,297,60,123.0,0,1,0,0,0,0,0,0,250,250,0,181.28,,,,,,,,,,,,
6443,0,0,2.21,2.02,2.88,1.89,3.24,0.77,0.02,0.62,0,-0,-0,0.77,0,0,100,40,98,507,0.0,123,297,60,123.0,0,1,0,0,0,0,0,0,250,250,0,181.28,0.0,0.0,0.0,0.0,0,0.0,-1,0.0,0.0,0,0.0,0.1074
6463,0,0,2.2,2.02,2.88,1.89,3.24,0.77,0.02,0.62,0,-0,-0,0.77,0,0,100,40,98,507,0.0,123,297,60,123.0,0,1,0,0,0,0,0,0,250,250,0,181.28,,,,,,,,,,,,
6483,0,1,2.21,2.02,2.89,1.89,3.25,0.77,0.02,0.62,0,-0,-0,0.77,0,0,100,40,98,507,0.0,123,297,60,123.0,0,1,0,0,0,0,0,0,250,250,0,181.28,,,,,,,,,,,,
6503,0,1,2.21,2.01,2.88,1.89,3.24,0.78,0.02,0.62,0,-0,-0,0.78,0,0,100,40,98,507,0.0,123,297,60,123.0,0,1,0,0,0,0,0,0,250,250,0,181.28,,,,,,,,,,,,
6523,0,-0,2.21,2.02,2.89,1.89,3.24,0.77,0.02,0.62,0,-0,-0,0.78,0,0,100,40,98,507,0.0,123,297,60,123.0,0,1,0,0,0,0,0,0,250,250,0,181.28,,,,,,,,,,,,
6543,0,-1,2.22,2.02,2.88,1.89,3.24,0.78,0.02,0.62,0,-0,-0,0.78,0,0,100,40,98,507,0.0,123,295,60,123.0,0,1,0,0,0,0,0,0,250,250,0,181.28,0.0,0.0,0.0,0.0,0,0.0,-1,0.0,0.0,0,0.0,0.109
6563,0,-0,2.21,2.02,2.89,1.89,3.24,0.78,0.02,0.62,0,-0,-0,0.78,0,0,100,40,98,507,0.0,123,295,60,123.0,0,1,0,0,0,0,0,0,250,250,0,181.28,,,,,,,,,,,,
6583,0,1,2.22,2.02,2.88,1.89,3.24,0.78,0.02,0.62,0,-0,-0,0.78,0,0,100,40,98,507,0.0,123,295,60,123.0,0,1,0,0,0,0,0,0,250,250,0,181.28,,,,,,,,,,,,
6603,0,-1,2.21,2.02,2.89,1.89,3.24,0.78,0.02,0.62,0,-1,-0,0.78,0,0,100,40,98,507,0.0,123,295,60,123.0,0,1,0,0,0,0,0,0,250,250,0,181.28,,,,,,,,,,,,
6623,0,1,2.2,2.02,2.88,1.89,3.24,0.78,0.02,0.62,0,-1,-0,0.78,0,0,100,40,98,507,0.0,123,295,60,123.0,0,1,0,0,0,0,0,0,250,250,0,181.28,,,,,,,,,,,,
6643,0,1,2.21,2.02,2.88,1.9,3.24,0.78,0.02,0.62,0,-1,-0,0.78,0,0,100,40,98,507,0.0,122,295,60,123.0,0,1,0,0,0,0,0,0,250,250,0,181.28,0.0,0.0,0.0,0.0,0,0.0,-1,0.0,0.0,0,0.0,0.1107
6663,0,1,2.2,2.02,2.88,1.89,3.25,0.77,0.02,0.62,0,-1,-0,0.78,0,0,100,40,98,507,0.0,122,295,60,123.0,0,1,0,0,0,0,0,0,250,250,0,181.28,,,,,,,,,,,,
6683,0,-1,2.21,2.02,2.89,1.89,3.24,0.77,0.02,0.62,0,-1,-0,0.77,0,0,100,40,98,507,0.0,122,295,60,123.0,0,1,0,0,0,0,0,0,250,250,0,181.28,,,,,,,,,,,,
6703,0,0,2.21,2.03,2.88,1.89,3.24,0.77,0.02,0.62,0,-1,-0,0.77,0,0,100,40,98,507,0.0,122,292,60,123.0,0,1,0,0,0,0,0,0,250,250,0,181.28,,,,,,,,,,,,
6723,0,1,2.22,2.02,2.88,1.89,3.24,0.77,0.02,0.62,0,-1,-0,0.77,0,0,100,40,98,507,0.0,122,292,60,123.0,0,1,0,0,0,0,0,0,250,250,0,181.28,,,,,,,,,,,,
6743,0,1,2.21,2.02,2.89,1.88,3.25,0.77,0.02,0.62,0,-1,-0,0.77,0,0,100,40,98,507,0.0,122,292,60,123.0,0,1,0,0,0,0,0,0,250,250,0,181.28,0.0,0.0,0.0,0.0,0,0.0,-1,0.0,0.0,0,0.0,0.1124
6763,0,-1,2.22,2.02,2.89,1.88,3.25,0.77,0.02,0.62,0,-1,-0,0.77,0,0,100,40,98,507,0.0,122,292,60,123.0,0,1,0,0,0,0,0,0,250,250,0,181.28,,,,,,,,,,,,
6783,0,1,2.21,2.02,2.89,1.89,3.25,0.77,0.02,0.61,0,-1,-0,0.77,0,0,100,40,98,507,0.0,122,292,60,123.0,0,1,0,0,0,0,0,0,250,250,0,181.28,,,,,,,,,,,,
6803,0,-1,2.22,2.02,2.89,1.89,3.24,0.77,0.02,0.61,0,-1,-0,0.77,0,0,100,40,98,507,0.0,122,292,60,123.0,0,1,0,0,0,0,0,0,250,250,0,181.28,,,,,,,,,,,,
6823,0,1,2.21,2.02,2.89,1.89,3.24,0.77,0.02,0.62,0,-1,-0,0.77,0,0,100,40,98,507,0.0,122,291,60,123.0,0,1,0,0,0,0,0,0,250,250,0,181.28,,,,,,,,,,,,
6843,0,1,2.21,2.03,2.89,1.9,3.24,0.77,0.02,0.61,0,-1,-0,0.77,0,0,100,40,98,507,0.0,122,291,60,123.0,0,1,0,0,0,0,0,0,250,250,0,181.28,0.0,0.0,0.0,0.0,0,0.0,-1,0.0,0.0,0,0.0,0.114
6863,0,1,2.21,2.02,2.88,1.89,3.25,0.77,0.02,0.61,0,-1,-0,0.77,0,0,100,40,98,507,0.0,122,291,60,123.0,0,1,0,0,0,0,0,0,250,250,0,181.28,,,,,,,,,,,,
6883,0,-0,2.21,2.02,2.89,1.89,3.24,0.77,0.02,0.61,0,-1,-0,0.77,0,0,100,40,98,507,0.0,122,291,60,123.0,0,1,0,0,0,0,0,0,250,250,0,181.28,,,,,,,,,,,,
6903,0,0,2.22,2.03,2.88,1.89,3.25,0.77,0.02,0.61,0,-1,-0,0.77,0,0,100,40,98,507,0.0,122,291,60,123.0,0,1,0,0,0,0,0,0,250,250,0,181.28,,,,,,,,,,,,
6923,0,1,2.21,2.02,2.88,1.89,3.25,0.77,0.02,0.61,0,-1,-0,0.77,0,0,100,40,98,507,0.0,122,290,60,123.0,0,1,0,0,0,0,0,0,250,250,0,181.28,,,,,,,,,,,,
6943,0,-0,2.22,2.02,2.88,1.89,3.24,0.77,0.02,0.61,0,-1,-0,0.77,0,0,100,40,98,507,0.0,122,290,60,123.0,0,1,0,0,0,0,0,0,250,250,0,181.28,0.0,0.0,0.0,0.0,0,0.0,-1,0.0,0.0,0,0.0,0.1157
6963,0,1,2.21,2.02,2.88,1.89,3.25,0.77,0.02,0.61,0,-1,-0,0.77,0,0,100,40,98,507,0.0,122,290,60,123.0,0,1,0,0,0,0,0,0,250,250,0,181.28,,,,,,,,,,,,
6983,0,1,2.21,2.02,2.88,1.89,3.24,0.77,0.02,0.61,0,-1,-0,0.77,0,0,100,40,98,507,0.0,122,290,60,123.0,0,1,0,0,0,0,0,0,250,250,0,181.28,,,,,,,,,,,,
7003,0,1,2.21,2.03,2.89,1.89,3.25,0.77,0.02,0.61,0,-1,-0,0.77,0,0,100,40,98,507,0.0,122,290,60,123.0,0,1,0,0,0,0,0,0,250,250,0,181.28,,,,,,,,,,,,
7023,0,-1,2.22,2.02,2.89,1.89,3.24,0.77,0.02,0.61,0,-1,-0,0.77,0,0,100,40,98,507,0.0,122,290,60,123.0,0,1,0,0,0,0,0,0,250,250,0,181.28,,,,,,,,,,,,
7043,0,1,2.21,2.02,2.88,1.89,3.25,0.77,0.02,0.61,0,-1,-0,0.77,0,0,100,40,98,507,0.0,122,290,60,123.0,0,1,0,0,0,0,0,0,250,250,0,181.28,0.0,0.0,0.0,0.0,0,0.0,-1,0.0,0.0,0,0.0,0.1174
7063,0,1,2.22,2.02,2.89,1.89,3.25,0.77,0.02,0.61,0,-1,-0,0.77,0,0,100,40,98,507,0.0,122,290,60,123.0,0,1,0,0,0,0,0,0,250,250,0,181.28,,,,,,,,,,,,
7083,0,-1,2.22,2.02,2.89,1.89,3.24,0.77,0.02,0.61,0,-1,-0,0.77,0,0,100,40,98,507,0.0,122,289,60,123.0,0,1,0,0,0,0,0,0,250,250,0,-5.59,,,,,,,,,,,,
7103,0,-1,2.21,2.02,2.88,1.88,3.24,0.77,0.02,0.61,0,-1,-0,0.77,0,0,100,40,98,507,0.0,122,288,60,123.0,0,1,0,0,0,0,0,0,250,250,0,181.28,,,,,,,,,,,,
7123,0,1,2.22,2.02,2.89,1.89,3.25,0.77,0.02,0.61,0,-1,-0,0.77,0,0,100,40,98,507,0.0,121,287,60,123.0,0,1,0,0,0,0,0,0,250,250,0,181.28,,,,,,,,,,,,
7143,0,1,2.2,2.02,2.89,1.89,3.25,0.77,0.02,0.61,0,-1,-0,0.77,0,0,100,40,98,507,0.0,121,287,60,123.0,0,1,0,0,0,0,0,0,250,250,0,181.28,0.0,0.0,0.0,0.0,0,0.0,-1,0.0,0.0,0,0.0,0.119
7163,0,-1,2.22,2.02,2.89,1.89,3.25,0.77,0.02,0.61,0,-1,-0,0.77,0,0,100,40,98,507,0.0,121,287,60,123.0,0,1,0,0,0,0,0,0,250,250,0,181.28,,,,,,,,,,,,
7183,0,1,2.21,2.02,2.88,1.89,3.24,0.77,0.02,0.61,0,-1,-0,0.77,0,0,100,40,98,507,0.0,121,287,60,123.0,0,1,0,0,0,0,0,0,250,250,0,181.28,,,,,,,,,,,,
7203,0,1,2.21,2.02,2.89,1.88,3.25,0.77,0.02,0.61,0,-1,-0,0.77,0,0,100,40,98,507,0.0,121,287,60,123.0,0,1,0,0,0,0,0,0,250,250,0,181.28,,,,,,,,,,,,
7223,0,1,2.21,2.02,2.88,1.9,3.24,0.77,0.02,0.61,0,-1,-0,0.77,0,0,100,40,98,507,0.0,122,287,60,123.0,0,1,0,0,0,0,0,0,250,250,0,181.28,,,,,,,,,,,,
7243,0,-1,2.22,2.02,2.89,1.88,3.25,0.77,0.02,0.61,0,-1,-0,0.77,0,0,100,40,98,507,0.0,122,287,60,123.0,0,1,0,0,0,0,0,0,250,250,0,181.28,0.0,0.0,0.0,0.0,0,0.0,-1,0.0,0.0,0,0.0,0.1207
7263,0,1,2.21,2.02,2.89,1.88,3.25,0.77,0.02,0.61,0,-1,-0,0.77,0,0,100,40,98,507,0.0,122,287,60,123.0,0,1,0,0,0,0,0,0,250,250,0,181.28,,,,,,,,,,,,
7283,0,1,2.21,2.02,2.88,1.89,3.25,0.77,0.02,0.61,0,-1,-0,0.77,0,0,100,40,98,507,0.0,122,286,60,123.0,0,1,0,0,0,0,0,0,250,250,0,181.28,,,,,,,,,,,,
7303,0,-1,2.22,2.02,2.89,1.88,3.25,0.77,0.02,0.61,0,-1,-0,0.77,0,0,100,40,98,507,0.0,122,286,60,123.0,0,1,0,0,0,0,0,0,250,250,0,181.28,,,,,,,,,,,,
7323,0,1,2.21,2.02,2.89,1.89,3.24,0.77,0.02,0.61,0,-1,-0,0.77,0,0,100,40,98,507,0.0,122,285,60,123.0,0,1,0,0,0,0,0,0,250,250,0,181.28,,,,,,,,,,,,
7343,0,-0,2.21,2.02,2.88,1.89,3.24,0.77,0.02,0.61,0,-1,-0,0.77,0,0,100,40,98,507,0.0,122,285,60,123.0,0,1,0,0,0,0,0,0,250,250,0,181.28,0.0,0.0,0.0,0.0,0,0.0,-1,0.0,0.0,0,0.0,0.1224
7363,0,1,2.21,2.02,2.89,1.88,3.25,0.77,0.02,0.61,0,-1,-0,0.77,0,0,100,40,98,507,0.0,122,284,60,123.0,0,1,0,0,0,0,0,0,250,250,0,181.28,,,,,,,,,,,,
7383,0,-1,2.22,2.02,2.89,1.88,3.25,0.77,0.02,0.61,0,-1,-0,0.77,0,0,100,40,98,507,0.0,122,284,60,123.0,0,1,0,0,0,0,0,0,250,250,0,181.28,,,,,,,,,,,,
7403,0,1,2.22,2.01,2.89,1.89,3.25,0.77,0.02,0.61,0,-1,-0,0.77,0,0,100,40,98,507,0.0,122,284,60,123.0,0,1,0,0,0,0,0,0,250,250,0,181.28,,,,,,,,,,,,
7423,0,1,2.21,2.02,2.89,1.89,3.25,0.77,0.02,0.61,0,-1,-0,0.77,0,0,100,40,98,507,0.0,122,284,60,123.0,0,1,0,0,0,0,0,0,250,250,0,181.28,,,,,,,,,,,,
7443,0,1,2.22,2.02,2.88,1.89,3.25,0.77,0.02,0.61,0,-1,-0,0.77,0,0,100,40,98,507,0.0,122,284,60,123.0,0,1,0,0,0,0,0,0,250,250,0,181.28,0.0,0.0,0.0,0.0,0,0.0,-1,0.0,0.0,0,0.0,0.124
7463,0,-0,2.22,2.02,2.89,1.89,3.25,0.77,0.02,0.61,0,-1,-0,0.77,0,0,100,40,98,507,0.0,122,284,60,123.0,0,1,0,0,0,0,0,0,250,250,0,181.28,,,,,,,,,,,,
7483,0,1,2.21,2.02,2.89,1.88,3.25,0.77,0.02,0.61,0,-1,-0,0.77,0,0,100,40,98,507,0.0,122,284,60,123.0,0,1,0,0,0,0,0,0,250,250,0,181.28,,,,,,,,,,,,
7503,0,1,2.21,2.03,2.89,1.9,3.24,0.77,0.02,0.61,0,-1,-0,0.77,0,0,100,40,98,507,0.0,122,283,60,123.0,0,1,0,0,0,0,0,0,250,250,0,181.28,,,,,,,,,,,,
7523,0,-0,2.21,2.02,2.89,1.88,3.25,0.77,0.02,0.61,0,-1,-0,0.77,0,0,100,40,98,507,0.0,122,283,60,123.0,0,1,0,0,0,0,0,0,250,250,0,181.28,,,,,,,,,,,,
7543,0,1,2.21,2.02,2.89,1.89,3.25,0.77,0.02,0.61,0,-1,-0,0.77,0,0,100,40,98,507,0.0,122,282,60,123.0,0,1,0,0,0,0,0,0,250,250,0,181.28,0.0,0.0,0.0,0.0,0,0.0,-1,0.0,0.0,0,0.0,0.1257
7563,0,1,2.21,2.02,2.89,1.88,3.25,0.77,0.02,0.61,0,-1,-0,0.77,0,0,100,40,98,507,0.0,122,281,60,123.0,0,1,0,0,0,0,0,0,250,250,0,181.28,,,,,,,,,,,,
7583,0,1,2.2,2.02,2.89,1.89,3.24,0.77,0.02,0.61,0,-1,-0,0.77,0,0,100,40,98,507,0.0,122,281,60,123.0,0,1,0,0,0,0,0,0,250,250,0,181.28,,,,,,,,,,,,
7603,0,1,2.21,2.02,2.89,1.89,3.25,0.77,0.02,0.61,0,-1,-0,0.77,0,0,100,40,98,507,0.0,122,281,60,123.0,0,1,0,0,0,0,0,0,250,250,0,181.28,,,,,,,,,,,,
7623,0,1,2.21,2.02,2.89,1.88,3.25,0.77,0.02,0.61,0,-1,-0,0.77,0,0,100,40,98,507,0.0,122,281,60,123.0,0,1,0,0,0,0,0,0,250,250,0,181.28,,,,,,,,,,,,
7643,0,1,2.22,2.02,2.89,1.89,3.25,0.77,0.02,0.61,0,-1,-0,0.77,0,0,100,40,98,507,0.0,122,281,60,123.0,0,1,0,0,0,0,0,0,250,250,0,181.28,0.0,0.0,0.0,0.0,0,0.0,-1,0.0,0.0,0,0.0,0.1274
7663,0,0,2.22,2.02,2.89,1.89,3.25,0.77,0.02,0.61,0,-1,-0,0.77,0,0,100,40,98,507,0.0,122,281,60,123.0,0,1,0,0,0,0,0,0,250,250,0,181.28,,,,,,,,,,,,
7683,0,0,2.21,2.03,2.88,1.9,3.24,0.77,0.02,0.61,0,-1,-0,0.77,0,0,100,40,98,507,0.0,122,281,60,123.0,0,1,0,0,0,0,0,0,250,250,0,181.28,,,,,,,,,,,,
7703,0,-1,2.22,2.02,2.88,1.89,3.25,0.77,0.02,0.61,0,-1,-0,0.77,0,0,100,40,98,507,0.0,122,281,60,123.0,0,1,0,0,0,0,0,0,250,250,0,181.28,,,,,,,,,,,,
7723,0,1,2.21,2.02,2.88,1.89,3.24,0.77,0.02,0.61,0,-1,-0,0.77,0,0,100,40,98,507,0.0,122,281,60,123.0,0,1,0,0,0,0,0,0,250,250,0,181.28,,,,,,,,,,,,
7743,0,-0,2.21,2.03,2.88,1.9,3.24,0.77,0.02,0.61,0,-1,-0,0.77,0,0,100,40,98,507,0.0,122,281,60,123.0,0,1,0,0,0,0,0,0,250,250,0,181.28,0.0,0.0,0.0,0.0,0,0.0,-1,0.0,0.0,0,0.0,0.129
7763,0,-0,2.21,2.02,2.89,1.89,3.24,0.77,0.02,0.61,0,-1,-0,0.77,0,0,100,40,98,507,0.0,122,281,60,123.0,0,1,0,0,0,0,0,0,250,250,0,181.28,,,,,,,,,,,,
7783,0,-1,2.22,2.02,2.89,1.88,3.25,0.77,0.02,0.61,0,-1,-0,0.77,0,0,100,40,98,507,0.0,121,281,60,123.0,0,1,0,0,0,0,0,0,250,250,0,181.28,,,,,,,,,,,,
7803,0,1,2.2,2.02,2.89,1.89,3.25,0.77,0.02,0.61,0,-1,-0,0.77,0,0,100,40,98,507,0.0,121,278,60,123.0,0,1,0,0,0,0,0,0,250,250,0,181.28,,,,,,,,,,,,
7823,0,1,2.21,2.02,2.89,1.88,3.25,0.77,0.02,0.61,0,-1,-0,0.77,0,0,100,40,98,507,0.0,121,278,60,123.0,0,1,0,0,0,0,0,0,250,250,0,181.28,,,,,,,,,,,,
7843,0,0,2.22,2.02,2.89,1.89,3.25,0.77,0.02,0.61,0,-1,-0,0.77,0,0,100,40,98,507,0.0,121,278,60,123.0,0,1,0,0,0,0,0,0,250,250,0,181.28,0.0,0.0,0.0,0.0,0,0.0,-1,0.0,0.0,0,0.0,0.1307
7863,0,-0,2.21,2.01,2.88,1.89,3.25,0.77,0.02,0.61,0,-1,-0,0.77,0,0,100,40,98,507,0.0,121,278,60,123.0,0,1,0,0,0,0,0,0,250,250,0,181.28,,,,,,,,,,,,
7883,0,1,2.21,2.02,2.89,1.89,3.24,0.77,0.02,0.61,0,-1,-0,0.77,0,0,100,40,98,507,0.0,121,278,60,123.0,0,1,0,0,0,0,0,0,250,250,0,181.28,,,,,,,,,,,,
7903,0,0,2.21,2.02,2.88,1.89,3.25,0.77,0.02,0.61,0,-1,-0,0.77,0,0,100,40,98,507,0.0,121,278,60,123.0,0,1,0,0,0,0,0,0,250,250,0,181.28,,,,,,,,,,,,
7923,0,1,2.22,2.02,2.88,1.89,3.25,0.77,0.02,0.61,0,-1,-0,0.77,0,0,100,40,98,507,0.0,121,278,60,123.0,0,1,0,0,0,0,0,0,250,250,0,181.28,,,,,,,,,,,,
7943,0,-0,2.21,2.02,2.88,1.9,3.24,0.77,0.02,0.61,0,-1,-0,0.77,0,0,100,40,98,507,0.0,121,278,60,123.0,0,1,0,0,0,0,0,0,250,250,0,181.28,0.0,0.0,0.0,0.0,0,0.0,-1,0.0,0.0,0,0.0,0.1324
7963,0,1,2.21,2.02,2.89,1.88,3.24,0.77,0.02,0.61,0,-1,-0,0.77,0,0,100,40,98,507,0.0,121,278,60,123.0,0,1,0,0,0,0,0,0,250,250,0,181.28,,,,,,,,,,,,
7983,0,1,2.21,2.02,2.88,1.88,3.24,0.77,0.02,0.61,0,-1,-0,0.77,0,0,100,40,98,507,0.0,121,278,60,123.0,0,1,0,0,0,0,0,0,250,250,0,181.28,,,,,,,,,,,,
8003,0,1,2.21,2.02,2.89,1.89,3.25,0.77,0.02,0.61,0,-1,-0,0.77,0,0,100,40,98,507,0.0,121,276,60,123.0,0,1,0,0,0,0,0,0,250,250,0,181.28,,,,,,,,,,,,
8023,0,1,2.22,2.01,2.89,1.89,3.25,0.77,0.02,0.61,0,-1,-0,0.77,0,0,100,40,98,507,0.0,121,276,60,123.0,0,1,0,0,0,0,0,0,250,250,0,181.28,,,,,,,,,,,,
8043,0,-0,2.22,2.02,2.89,1.88,3.25,0.77,0.02,0.61,0,-1,-0,0.77,0,0,100,40,98,508,0.0,121,276,60,123.0,0,1,0,0,0,0,0,0,250,250,0,181.28,0.0,0.0,0.0,0.0,0,0.0,-1,0.0,0.0,0,0.0,0.134
8063,0,1,2.22,2.03,2.88,1.9,3.24,0.77,0.02,0.61,0,-1,-0,0.77,0,0,100,40,98,508,0.0,121,276,60,123.0,0,1,0,0,0,0,0,0,250,250,0,181.28,,,,,,,,,,,,
8083,0,1,2.21,2.02,2.89,1.89,3.25,0.77,0.02,0.61,0,-1,-0,0.77,0,0,100,40,98,507,0.0,121,276,60,123.0,0,1,0,0,0,0,0,0,250,250,0,181.28,,,,,,,,,,,,
8103,0,1,2.21,2.03,2.89,1.89,3.24,0.77,0.02,0.61,0,-1,-0,0.77,0,0,100,40,98,507,0.0,121,276,60,123.0,0,1,0,0,0,0,0,0,250,250,0,-5.59,,,,,,,,,,,,
8123,0,1,2.21,2.02,2.88,1.89,3.24,0.77,0.02,0.61,0,-1,-0,0.77,0,0,100,40,98,507,0.0,121,275,60,123.0,0,1,0,0,0,0,0,0,250,250,0,181.28,,,,,,,,,,,,
8143,0,-0,2.22,2.02,2.88,1.89,3.24,0.77,0.02,0.61,0,-1,-0,0.77,0,0,100,40,98,507,0.0,122,275,60,123.0,0,1,0,0,0,0,0,0,250,250,0,181.28,0.0,0.0,0.0,0.0,0,0.0,-1,0.0,0.0,0,0.0,0.1357
8163,0,1,2.21,2.02,2.89,1.89,3.25,0.77,0.02,0.61,0,-1,-0,0.77,0,0,100,40,98,507,0.0,122,275,60,123.0,0,1,0,0,0,0,0,0,250,250,0,181.28,,,,,,,,,,,,
8183,0,2,2.21,2.02,2.88,1.89,3.24,0.77,0.02,0.61,0,-1,-0,0.77,0,0,100,40,98,507,0.0,122,275,60,123.0,0,1,0,0,0,0,0,0,250,250,0,181.28,,,,,,,,,,,,
8203,0,1,2.22,2.02,2.89,1.89,3.24,0.77,0.02,0.61,0,-1,-0,0.77,0,0,100,40,98,507,0.0,122,275,60,123.0,0,1,0,0,0,0,0,0,250,250,0,181.28,,,,,,,,,,,,
8223,0,-1,2.22,2.02,2.88,1.89,3.24,0.77,0.02,0.61,0,-1,-0,0.77,0,0,100,40,98,507,0.0,122,275,60,123.0,0,1,0,0,0,0,0,0,250,250,0,181.28,,,,,,,,,,,,
8243,0,1,2.21,2.02,2.89,1.89,3.24,0.77,0.02,0.61,0,-1,-0,0.77,0,0,100,40,98,507,0.0,122,275,60,123.0,0,1,0,0,0,0,0,0,250,250,0,181.28,0.0,0.0,0.0,0.0,0,0.0,-1,0.0,0.0,0,0.0,0.1374
8263,0,-1,2.21,2.02,2.89,1.89,3.25,0.77,0.02,0.61,0,-1,-0,0.77,0,0,100,40,98,507,0.0,122,273,60,123.0,0,1,0,0,0,0,0,0,250,250,0,181.28,,,,,,,,,,,,
8283,0,-0,2.22,2.02,2.88,1.89,3.24,0.77,0.02,0.61,0,-1,-0,0.77,0,0,100,40,98,507,0.0,122,273,60,123.0,0,1,0,0,0,0,0,0,250,250,0,181.28,,,,,,,,,,,,
8303,0,1,2.21,2.02,2.89,1.88,3.24,0.77,0.02,0.61,0,-1,-0,0.77,0,0,100,40,98,507,0.0,122,273,60,123.0,0,1,0,0,0,0,0,0,250,250,0,181.28,,,,,,,,,,,,
8323,0,0,2.21,2.03,2.89,1.89,3.25,0.77,0.02,0.61,0,-1,-0,0.77,0,0,100,40,98,507,0.0,122,273,60,123.0,0,1,0,0,0,0,0,0,250,250,0,181.28,,,,,,,,,,,,
8343,0,-1,2.21,2.02,2.88,1.88,3.24,0.77,0.02,0.62,0,-1,-0,0.77,0,0,100,40,98,507,0.0,122,273,60,123.0,0,1,0,0,0,0,0,0,250,250,0,181.28,0.0,0.0,0.0,0.0,0,0.0,-1,0.0,0.0,0,0.0,0.1391
8363,0,0,2.21,2.02,2.88,1.89,3.24,0.77,0.02,0.61,0,-1,-0,0.77,0,0,100,40,98,507,0.0,122,273,60,123.0,0,1,0,0,0,0,0,0,250,250,0,181.28,,,,,,,,,,,,
8383,0,1,2.21,2.02,2.88,1.89,3.24,0.77,0.02,0.61,0,-1,-0,0.77,0,0,100,40,98,507,0.0,122,273,60,123.0,0,1,0,0,0,0,0,0,250,250,0,181.28,,,,,,,,,,,,
8403,0,1,2.22,2.02,2.89,1.88,3.25,0.77,0.02,0.61,0,-1,-0,0.77,0,0,100,40,98,507,0.0,122,273,60,123.0,0,1,0,0,0,0,0,0,250,250,0,181.28,,,,,,,,,,,,
8423,0,1,2.21,2.02,2.89,1.88,3.25,0.77,0.02,0.61,0,-1,-0,0.77,0,0,100,40,98,507,0.0,122,273,60,123.0,0,1,0,0,0,0,0,0,250,250,0,181.28,,,,,,,,,,,,
8443,0,1,2.21,2.03,2.88,1.89,3.24,0.77,0.02,0.61,0,-1,-0,0.77,0,0,100,40,98,507,0.0,122,273,60,123.0,0,1,0,0,0,0,0,0,250,250,0,181.28,0.0,0.0,0.0,0.0,0,0.0,-1,0.0,0.0,0,0.0,0.1407
8463,0,-1,2.2,2.01,2.88,1.88,3.24,0.77,0.02,0.62,0,-1,-0,0.77,0,0,100,40,98,507,0.0,122,273,60,123.0,0,1,0,0,0,0,0,0,250,250,0,181.28,,,,,,,,,,,,
8483,0,1,2.21,2.01,2.88,1.89,3.24,0.77,0.02,0.62,0,-1,-0,0.77,0,0,100,40,98,507,0.0,122,273,60,123.0,0,1,0,0,0,0,0,0,250,250,0,181.28,,,,,,,,,,,,
8503,0,-1,2.22,2.02,2.88,1.89,3.25,0.77,0.02,0.62,0,-1,-0,0.77,0,0,100,40,98,507,0.0,122,271,60,123.0,0,1,0,0,0,0,0,0,250,250,0,181.28,,,,,,,,,,,,
8523,0,1,2.2,2.02,2.89,1.89,3.24,0.77,0.02,0.62,0,-1,-0,0.77,0,0,100,40,98,507,0.0,122,270,60,123.0,0,1,0,0,0,0,0,0,250,250,0,181.28,,,,,,,,,,,,
8543,0,1,2.21,2.02,2.89,1.89,3.25,0.77,0.02,0.62,0,-1,-0,0.77,0,0,100,40,98,507,0.0,122,270,60,123.0,0,1,0,0,0,0,0,0,250,250,0,181.28,0.0,0.0,0.0,0.0,0,0.0,-1,0.0,0.0,0,0.0,0.1424
8563,0,-1,2.22,2.02,2.89,1.89,3.24,0.77,0.02,0.62,0,-1,-0,0.77,0,0,100,40,98,507,0.0,122,270,60,123.0,0,1,0,0,0,0,0,0,250,250,0,181.28,,,,,,,,,,,,
8583,0,1,2.21,2.01,2.88,1.89,3.24,0.77,0.02,0.62,0,-1,-0,0.77,0,0,100,40,98,507,0.0,122,270,60,123.0,0,1,0,0,0,0,0,0,250,250,0,181.28,,,,,,,,,,,,
8603,0,1,2.21,2.02,2.89,1.88,3.25,0.78,0.02,0.61,0,-1,-0,0.78,0,0,100,40,98,507,0.0,122,270,60,123.0,0,1,0,0,0,0,0,0,250,250,0,181.28,,,,,,,,,,,,
8623,0,1,2.2,2.02,2.88,1.89,3.25,0.78,0.02,0.61,0,-1,-0,0.78,0,0,100,40,98,507,0.0,122,270,60,123.0,0,1,0,0,0,0,0,0,250,250,0,181.28,,,,,,,,,,,,
8643,0,-1,2.21,2.02,2.88,1.88,3.24,0.78,0.02,0.61,0,-1,-0,0.78,0,0,100,40,98,507,0.0,122,270,60,123.0,0,1,0,0,0,0,0,0,250,250,0,181.28,0.0,0.0,0.0,0.0,0,0.0,-1,0.0,0.0,0,0.0,0.144
8663,0,0,2.22,2.02,2.89,1.89,3.25,0.78,0.02,0.61,0,-1,-0,0.78,0,0,100,40,98,507,0.0,122,270,60,123.0,0,1,0,0,0,0,0,0,250,250,0,181.28,,,,,,,,,,,,
8683,0,-1,2.21,2.02,2.89,1.89,3.24,0.78,0.02,0.61,0,-1,-0,0.78,0,0,100,40,98,507,0.0,122,270,60,123.0,0,1,0,0,0,0,0,0,250,250,0,181.28,,,,,,,,,,,,
8703,1561296722220,1,2.21,2.03,2.89,1.88,3.24,0.78,0.02,0.61,0,-1,-0,0.78,0,0,100,40,98,507,0.0,122,270,60,123.0,0,1,0,0,0,0,0,0,250,250,0,181.28,,,,,,,,,,,,
8723,1561296722240,1,2.22,2.02,2.88,1.89,3.25,0.78,0.02,0.61,0,-1,-0,0.78,0,0,100,40,98,507,0.0,122,269,60,123.0,0,1,0,0,0,0,0,0,250,250,0,181.28,,,,,,,,,,,,
8743,1561296722260,-1,2.22,2.02,2.88,1.89,3.24,0.78,0.02,0.61,0,-1,-0,0.78,0,0,100,40,98,507,0.0,122,269,60,123.0,0,1,0,0,0,0,0,0,250,250,0,181.28,45.708328,4.912562,0.0,211.7,0,0.0,-1,0.0,0.0,0,0.0,0.1457
8763,1561296722280,0,2.21,2.03,2.89,1.89,3.25,0.78,0.02,0.61,0,-1,-0,0.78,0,0,100,40,98,507,0.0,122,268,60,123.0,0,1,0,0,0,0,0,0,250,250,0,181.28,,,,,,,,,,,,
8783,1561296722300,0,2.21,2.02,2.88,1.89,3.24,0.77,0.02,0.61,0,-1,-0,0.78,0,0,100,40,98,507,0.0,121,268,60,123.0,0,1,0,0,0,0,0,0,250,250,0,181.28,,,,,,,,,,,,
8803,1561296722320,-1,2.21,2.02,2.89,1.88,3.25,0.77,0.02,0.61,0,-1,-0,0.77,0,0,100,40,98,507,0.0,121,267,60,123.0,0,1,0,0,0,0,0,0,250,250,0,181.28,,,,,,,,,,,,
8823,1561296722340,0,2.22,2.02,2.89,1.89,3.25,0.77,0.02,0.61,0,-1,-0,0.77,0,0,100,40,98,507,0.0,121,267,60,123.0,0,1,0,0,0,0,0,0,250,250,0,181.28,,,,,,,,,,,,
8843,1561296722360,-0,2.21,2.02,2.89,1.89,3.25,0.78,0.02,0.61,0,-1,-0,0.78,0,1,100,40,98,507,0.0,121,267,60,123.0,0,1,0,0,0,0,0,0,250,250,0,181.28,45.708328,4.912562,0.0,211.7,0,0.0,-1,0.0,0.0,0,0.0,0.1474
8863,1561296722380,1,2.21,2.03,2.88,1.9,3.24,0.78,0.02,0.61,0,-1,-0,0.78,0,1,100,40,98,507,0.0,121,267,60,123.0,0,1,0,0,0,0,0,0,250,250,0,-5.59,,,,,,,,,,,,
8883,1561296722400,0,2.21,2.02,2.88,1.89,3.24,0.77,0.02,0.61,0,-1,-0,0.77,0,1,100,40,98,508,0.0,121,267,60,123.0,0,1,0,0,0,0,0,0,250,250,0,181.28,,,,,,,,,,,,
8903,1561296722420,0,2.21,2.03,2.89,1.88,3.24,0.77,0.02,0.61,0,-1,-0,0.77,0,1,100,40,98,507,0.0,121,267,60,123.0,0,1,0,0,0,0,0,0,250,250,0,181.28,,,,,,,,,,,,
8923,1561296722440,0,2.21,2.02,2.88,1.89,3.25,0.77,0.02,0.61,0,-1,-0,0.77,0,1,100,40,98,507,0.0,121,267,60,123.0,0,1,0,0,0,0,0,0,250,250,0,181.28,,,,,,,,,,,,
8943,1561296722460,-1,2.22,2.02,2.88,1.89,3.25,0.77,0.02,0.61,0,-1,-0,0.77,0,1,100,40,98,507,0.0,121,267,60,123.0,0,1,0,0,0,0,0,0,250,250,0,181.28,45.708328,4.912562,0.0,211.7,0,0.0,-1,0.0,0.0,0,0.0,0.149
8963,1561296722480,-0,2.2,2.02,2.89,1.89,3.24,0.77,0.02,0.62,0,-1,-0,0.77,0,1,100,40,98,507,0.0,121,267,60,123.0,0,1,0,0,0,0,0,0,250,250,0,181.28,,,,,,,,,,,,
8983,1561296722500,0,2.2,2.02,2.89,1.89,3.24,0.77,0.02,0.61,0,-1,-0,0.77,0,1,100,40,98,507,0.0,121,267,60,123.0,0,1,0,0,0,0,0,0,250,250,0,181.28,,,,,,,,,,,,
9003,1561296722520,-0,2.22,2.02,2.89,1.89,3.24,0.77,0.02,0.61,0,-1,-0,0.77,0,1,100,40,98,507,0.0,121,267,60,123.0,0,1,0,0,0,0,0,0,250,250,0,181.28,,,,,,,,,,,,
9023,1561296722540,-1,2.21,2.02,2.88,1.89,3.24,0.77,0.02,0.61,0,-1,-0,0.77,0,1,100,40,98,507,0.0,121,267,60,123.0,0,1,0,0,0,0,0,0,250,250,0,181.28,,,,,,,,,,,,
9043,1561296722560,0,2.21,2.02,2.89,1.88,3.24,0.77,0.02,0.61,0,-1,-0,0.77,0,1,100,40,98,507,0.0,121,266,60,123.0,0,1,0,0,0,0,0,0,250,250,0,181.28,45.708328,4.912562,0.0,211.7,0,0.0,-1,0.0,0.0,0,0.0,0.1507
9063,1561296722580,0,2.2,2.02,2.89,1.89,3.24,0.77,0.02,0.61,0,-1,-0,0.77,0,1,100,40,98,507,0.0,121,265,60,123.0,0,1,0,0,0,0,0,0,250,250,0,181.28,,,,,,,,,,,,
9083,1561296722600,-1,2.22,2.02,2.88,1.88,3.24,0.77,0.02,0.61,0,-1,-0,0.77,0,1,100,40,98,507,0.0,121,265,60,123.0,0,1,0,0,0,0,0,0,250,250,0,181.28,,,,,,,,,,,,
9103,1561296722620,0,2.22,2.02,2.89,1.89,3.25,0.77,0.02,0.61,0,-1,-0,0.77,0,1,100,40,98,507,0.0,121,265,60,123.0,0,1,0,0,0,0,0,0,250,250,0,181.28,,,,,,,,,,,,
9123,1561296722640,0,2.21,2.02,2.88,1.89,3.24,0.77,0.02,0.61,0,-1,-0,0.77,0,1,100,40,98,507,0.0,121,265,60,123.0,0,1,0,0,0,0,0,0,250,250,0,181.28,,,,,,,,,,,,
9143,1561296722660,0,2.21,2.02,2.89,1.89,3.24,0.77,0.02,0.61,0,-1,-0,0.77,0,1,100,40,98,507,0.0,121,265,60,123.0,0,1,0,0,0,0,0,0,250,250,0,181.28,45.708328,4.912562,0.0,211.7,0,0.0,-1,0.0,0.0,0,0.0,0.1524
9163,1561296722680,0,2.21,2.02,2.89,1.89,3.24,0.77,0.02,0.61,0,-1,-0,0.77,0,1,100,40,98,507,0.0,121,265,60,123.0,0,1,0,0,0,0,0,0,250,250,0,181.28,,,,,,,,,,,,
9183,1561296722700,0,2.21,2.01,2.88,1.89,3.24,0.77,0.02,0.61,0,-1,-0,0.77,0,1,100,40,98,507,0.0,121,265,60,123.0,0,1,0,0,0,0,0,0,250,250,0,181.28,,,,,,,,,,,,
9203,1561296722720,0,2.22,2.02,2.88,1.89,3.24,0.77,0.02,0.61,0,-1,-0,0.77,0,1,100,40,98,507,0.0,121,265,60,123.0,0,1,0,0,0,0,0,0,250,250,0,181.28,,,,,,,,,,,,
9223,1561296722740,0,2.21,2.01,2.89,1.89,3.24,0.77,0.02,0.61,0,-1,-0,0.77,0,1,100,40,98,507,0.0,121,265,60,123.0,0,1,0,0,0,0,0,0,250,250,0,181.28,,,,,,,,,,,,
9243,1561296722760,0,2.21,2.02,2.88,1.89,3.24,0.77,0.02,0.61,0,-1,-0,0.77,0,1,100,40,98,507,0.0,121,265,60,123.0,0,1,0,0,0,0,0,0,250,250,0,181.28,45.708328,4.912562,0.0,211.7,0,0.0,-1,0.0,0.0,0,0.0,0.154
9263,1561296722780,1,2.21,2.02,2.88,1.89,3.24,0.77,0.02,0.61,0,-1,-0,0.77,0,1,100,40,98,507,0.0,121,265,60,123.0,0,1,0,0,0,0,0,0,250,250,0,181.28,,,,,,,,,,,,
9283,1561296722800,-1,2.19,2.01,2.88,1.89,3.24,0.77,0.02,0.61,0,-1,-0,0.77,0,1,100,40,98,507,0.0,121,265,60,123.0,0,1,0,0,0,0,0,0,250,250,0,181.28,,,,,,,,,,,,
9303,1561296722820,-1,2.22,2.02,2.88,1.89,3.24,0.77,0.02,0.61,0,-1,-0,0.77,0,1,100,40,98,507,0.0,121,265,60,123.0,0,1,0,0,0,0,0,0,250,250,0,181.28,,,,,,,,,,,,
9323,1561296722840,0,2.21,2.02,2.88,1.89,3.24,0.77,0.02,0.61,0,-1,-0,0.77,0,1,100,40,98,507,0.0,121,265,60,123.0,0,1,0,0,0,0,0,0,250,250,0,181.28,,,,,,,,,,,,
9343,1561296722860,-1,2.22,2.03,2.88,1.89,3.24,0.77,0.02,0.61,0,-1,-0,0.77,0,1,100,40,98,507,0.0,121,265,60,123.0,0,1,0,0,0,0,0,0,250,250,0,181.28,45.708328,4.912562,0.0,211.7,0,0.0,-1,0.0,0.0,0,0.0,0.1557
9363,1561296722880,-1,2.21,2.02,2.88,1.89,3.24,0.77,0.02,0.61,0,-1,-0,0.77,0,1,100,40,98,507,0.0,121,263,60,123.0,0,1,0,0,0,0,0,0,250,250,0,181.28,,,,,,,,,,,,
9383,1561296722900,-1,2.22,2.02,2.89,1.89,3.25,0.77,0.02,0.61,0,-1,-0,0.77,0,1,100,40,98,507,0.0,121,263,60,123.0,0,1,0,0,0,0,0,0,250,250,0,181.28,,,,,,,,,,,,
9403,1561296722920,0,2.21,2.02,2.89,1.89,3.24,0.77,0.02,0.61,0,-1,-0,0.77,0,1,100,40,98,507,0.0,121,262,60,123.0,0,1,0,0,0,0,0,0,250,250,0,181.28,,,,,,,,,,,,
9423,1561296722940,1,2.21,2.02,2.89,1.89,3.25,0.77,0.02,0.61,0,-1,-0,0.77,0,1,100,40,98,507,0.0,121,262,60,123.0,0,1,0,0,0,0,0,0,250,250,0,181.28,,,,,,,,,,,,
9443,1561296722960,0,2.21,2.02,2.89,1.88,3.24,0.77,0.02,0.61,0,-1,-0,0.77,0,1,100,40,98,507,0.0,121,262,60,123.0,0,1,0,0,0,0,0,0,250,250,0,181.28,45.708328,4.912562,0.0,211.7,0,0.0,-1,0.0,0.0,0,0.0,0.1574
9463,1561296722980,-1,2.21,2.03,2.89,1.89,3.24,0.77,0.02,0.61,0,-1,-0,0.77,0,1,100,40,98,507,0.0,121,262,60,123.0,0,1,0,0,0,0,0,0,250,250,0,181.28,,,,,,,,,,,,
9483,1561296723000,0,2.21,2.03,2.89,1.89,3.25,0.77,0.02,0.61,0,-1,-0,0.77,0,1,100,40,98,507,0.0,121,262,60,123.0,0,1,0,0,0,0,0,0,250,250,0,181.28,,,,,,,,,,,,
9503,1561296723020,0,2.22,2.02,2.89,1.89,3.25,0.77,0.02,0.61,0,-1,-0,0.77,0,1,100,40,98,507,0.0,121,262,60,123.0,0,1,0,0,0,0,0,0,250,250,0,181.28,,,,,,,,,,,,
9523,1561296723040,-1,2.21,2.02,2.89,1.88,3.25,0.77,0.02,0.61,0,-1,-0,0.77,0,1,100,40,98,507,0.0,121,262,60,123.0,0,1,0,0,0,0,0,0,250,250,0,181.28,,,,,,,,,,,,
9543,1561296723060,-1,2.22,2.02,2.89,1.89,3.24,0.77,0.02,0.61,0,-1,-0,0.77,0,1,100,40,98,507,0.0,121,262,60,123.0,0,1,0,0,0,0,0,0,250,250,0,181.28,45.708328,4.912562,0.0,211.7,0,0.0,-1,0.0,0.0,0,0.0,0.159
9563,1561296723080,1,2.21,2.02,2.89,1.89,3.25,0.77,0.02,0.61,0,-1,-0,0.77,0,1,100,40,98,507,0.0,121,262,60,123.0,0,1,0,0,0,0,0,0,250,250,0,181.28,,,,,,,,,,,,
9583,1561296723100,-1,2.22,2.02,2.89,1.88,3.25,0.77,0.02,0.61,0,-1,-0,0.77,0,1,100,40,98,507,0.0,121,262,60,123.0,0,1,0,0,0,0,0,0,250,250,0,181.28,,,,,,,,,,,,
9603,1561296723120,-0,2.22,2.02,2.89,1.88,3.25,0.77,0.02,0.61,0,-1,-0,0.77,0,1,100,40,98,507,0.0,121,262,60,123.0,0,1,0,0,0,0,0,0,250,250,0,181.28,,,,,,,,,,,,
9623,1561296723140,0,2.21,2.01,2.88,1.89,3.25,0.77,0.02,0.61,0,-1,-0,0.77,0,1,100,40,98,507,0.0,121,261,60,123.0,0,1,0,0,0,0,0,0,250,250,0,181.28,,,,,,,,,,,,
9643,1561296723160,-0,2.21,2.01,2.88,1.89,3.24,0.77,0.02,0.61,0,-1,-0,0.77,0,1,100,40,98,507,0.0,122,260,60,123.0,0,1,0,0,0,0,0,0,250,250,0,181.28,45.708328,4.912562,0.0,211.7,0,0.0,-1,0.0,0.0,0,0.0,0.1607
9663,1561296723180,0,2.2,2.02,2.88,1.89,3.24,0.77,0.02,0.61,0,-1,-0,0.77,0,1,100,40,98,507,0.0,122,260,60,123.0,0,1,0,0,0,0,0,0,250,250,0,181.28,,,,,,,,,,,,
9683,1561296723200,-1,2.21,2.03,2.88,1.9,3.24,0.77,0.02,0.61,0,-1,-0,0.77,0,1,100,40,98,507,0.0,122,260,60,123.0,0,1,0,0,0,0,0,0,250,250,0,181.28,,,,,,,,,,,,
9703,1561296723220,0,2.21,2.02,2.89,1.88,3.25,0.77,0.02,0.61,0,-1,-0,0.77,0,1,100,40,98,507,0.0,122,260,60,123.0,0,1,0,0,0,0,0,0,250,250,0,181.28,,,,,,,,,,,,
9723,1561296723240,-2,2.22,2.02,2.89,1.88,3.25,0.77,0.02,0.61,0,-1,-0,0.77,0,1,100,40,98,507,0.0,122,260,60,123.0,0,1,0,0,0,0,0,0,250,250,0,181.28,,,,,,,,,,,,
9743,1561296723260,-1,2.21,2.02,2.89,1.88,3.25,0.77,0.02,0.61,0,-1,-0,0.77,0,1,100,40,98,507,0.0,122,260,60,123.0,0,1,0,0,0,0,0,0,250,250,0,181.28,45.708328,4.912562,0.0,211.7,0,0.0,-1,0.0,0.0,0,0.0,0.1624
9763,1561296723280,-1,2.22,2.02,2.88,1.89,3.24,0.77,0.02,0.61,0,-1,-0,0.77,0,1,100,40,98,507,0.0,122,260,60,123.0,0,1,0,0,0,0,0,0,250,250,0,181.28,,,,,,,,,,,,
9783,1561296723300,0,2.21,2.02,2.89,1.89,3.24,0.77,0.02,0.61,0,-1,-0,0.77,0,1,100,40,98,507,0.0,122,260,60,123.0,0,1,0,0,0,0,0,0,250,250,0,181.28,,,,,,,,,,,,
9803,1561296723320,0,2.21,2.01,2.89,1.89,3.24,0.77,0.02,0.61,0,-1,-0,0.77,0,1,100,40,98,507,0.0,122,260,60,123.0,0,1,0,0,0,0,0,0,250,250,0,181.28,,,,,,,,,,,,
9823,1561296723340,-2,2.22,2.02,2.88,1.89,3.24,0.77,0.02,0.61,0,-1,-0,0.77,0,1,100,40,98,507,0.0,122,260,60,123.0,0,1,0,0,0,0,0,0,250,250,0,181.28,,,,,,,,,,,,
9843,1561296723360,1,2.21,2.02,2.89,1.88,3.24,0.77,0.02,0.61,0,-1,-0,0.77,0,1,100,40,98,507,0.0,122,260,60,123.0,0,1,0,0,0,0,0,0,250,250,0,181.28,45.708328,4.912562,0.0,211.7,0,0.0,-1,0.0,0.0,0,0.0,0.164
9863,1561296723380,-2,2.21,2.02,2.88,1.88,3.25,0.77,0.02,0.61,0,-1,-0,0.77,0,1,100,40,98,507,0.0,121,260,60,123.0,0,1,0,0,0,0,0,0,250,250,0,181.28,,,,,,,,,,,,
9883,1561296723400,1,2.21,2.02,2.89,1.88,3.25,0.77,0.02,0.61,0,-1,-0,0.77,0,1,100,40,98,507,0.0,121,260,60,123.0,0,1,0,0,0,0,0,0,250,250,0,181.28,,,,,,,,,,,,
9903,1561296723420,0,2.22,2.02,2.89,1.89,3.25,0.77,0.02,0.61,0,-1,-0,0.77,0,1,100,40,98,507,0.0,121,260,60,123.0,0,1,0,0,0,0,0,0,250,250,0,181.28,,,,,,,,,,,,
9923,1561296723440,0,2.21,2.02,2.88,1.89,3.24,0.77,0.02,0.61,0,-1,-0,0.77,0,1,100,40,98,507,0.0,121,260,60,123.0,0,1,0,0,0,0,0,0,250,250,0,181.28,,,,,,,,,,,,
9943,1561296723460,0,2.21,2.03,2.89,1.89,3.25,0.77,0.02,0.61,0,-1,-0,0.77,0,1,100,40,98,507,0.0,121,260,60,123.0,0,1,0,0,0,0,0,0,250,250,0,181.28,45.708328,4.912562,0.0,211.7,0,0.0,-1,0.0,0.0,0,0.0,0.1657
9963,1561296723480,1,2.21,2.02,2.89,1.88,3.25,0.77,0.02,0.61,0,-1,-0,0.77,0,1,100,40,98,507,0.0,121,260,60,123.0,0,1,0,0,0,0,0,0,250,250,0,181.28,,,,,,,,,,,,
9983,1561296723500,0,2.21,2.03,2.89,1.89,3.24,0.77,0.02,0.61,0,-1,-0,0.77,0,1,100,40,98,507,0.0,121,257,60,123.0,0,1,0,0,0,0,0,0,250,250,0,181.28,,,,,,,,,,,,
10003,1561296723520,0,2.21,2.02,2.89,1.89,3.25,0.77,0.02,0.61,0,-1,-0,0.77,0,1,100,40,98,507,0.0,121,257,60,123.0,0,1,0,0,0,0,0,0,250,250,0,181.28,,,,,,,,,,,,
10023,1561296723540,-1,2.22,2.03,2.88,1.9,3.24,0.77,0.02,0.61,0,-1,-0,0.77,0,1,100,40,98,507,0.0,121,257,60,123.0,0,1,0,0,0,0,0,0,250,250,0,181.28,,,,,,,,,,,,
10043,1561296723560,-2,2.22,2.02,2.88,1.89,3.25,0.77,0.02,0.61,0,-1,-0,0.77,0,1,100,40,98,507,0.0,121,257,60,123.0,0,1,0,0,0,0,0,0,250,250,0,181.28,45.708328,4.912562,0.0,211.7,0,0.0,-1,0.0,0.0,0,0.0,0.1674
10063,1561296723580,-0,2.21,2.02,2.88,1.89,3.25,0.77,0.02,0.61,0,-1,-0,0.77,0,1,100,40,98,507,0.0,122,256,60,103.0,0,1,0,0,0,0,0,0,250,250,0,-5.59,,,,,,,,,,,,
10083,1561296723600,0,2.21,2.02,2.89,1.88,3.25,0.77,0.02,0.61,0,-0,-0,0.77,0,1,100,40,98,507,0.0,126,256,60,94.0,0,1,0,0,0,0,0,0,250,250,0,181.28,,,,,,,,,,,,
10103,1561296723620,-1,2.21,2.02,2.88,1.89,3.24,0.77,0.02,0.61,0,-0,-0,0.77,0,2,100,40,98,506,0.0,129,256,60,100.0,0,1,0,0,0,0,0,0,250,250,0,181.28,,,,,,,,,,,,
10123,1561296723640,-1,2.21,2.02,2.88,1.89,3.25,0.77,0.02,0.61,0,-0,-0,0.77,0,2,100,40,97,505,0.0,130,256,60,102.0,0,1,0,0,0,0,0,0,250,250,0,181.28,,,,,,,,,,,,
10143,1561296723660,-0,2.2,2.02,2.88,1.89,3.25,0.76,0.02,0.6,0,-0,-0,0.76,0,2,100,40,98,503,0.0,131,256,60,103.0,0,1,0,0,0,0,0,0,250,250,0,181.28,45.708328,4.912562,0.0,211.7,0,0.0,-1,0.0,0.0,0,0.0,0.169
10163,1561296723680,0,2.21,2.02,2.89,1.88,3.25,0.77,0.02,0.6,0,-1,-0,0.77,0,2,100,40,98,502,0.0,132,257,60,107.0,0,1,0,0,0,0,0,0,250,250,0,181.28,,,,,,,,,,,,
10183,1561296723700,-1,2.22,2.02,2.88,1.89,3.25,0.77,0.02,0.61,0,-1,-0,0.77,0,2,100,40,98,501,0.0,131,257,60,109.0,0,1,0,0,0,0,0,0,250,250,0,181.28,,,,,,,,,,,,
10203,1561296723720,-0,2.21,2.01,2.88,1.88,3.24,0.76,0.02,0.6,0,-0,-0,0.76,0,2,100,40,97,500,0.0,128,257,60,109.0,0,1,0,0,0,0,0,0,250,250,0,-5.59,,,,,,,,,,,,
10223,1561296723740,-2,2.21,2.02,2.88,1.88,3.24,0.77,0.02,0.6,0,-1,0,0.77,0,2,100,40,96,501,0.0,130,254,60,109.0,0,1,0,0,0,0,0,0,250,250,0,181.28,,,,,,,,,,,,
10243,1561296723760,-2,2.22,2.02,2.88,1.88,3.24,0.77,0.02,0.6,0,-1,0,0.78,0,2,100,40,98,501,0.0,130,255,60,107.0,0,1,0,0,0,0,0,0,250,250,0,181.28,45.708328,4.912562,0.0,211.7,0,0.0,-1,0.0,0.0,0,0.0,0.1707
10263,1561296723780,1,2.21,2.01,2.88,1.89,3.24,0.77,0.02,0.59,0,-1,0,0.77,0,2,100,40,98,501,0.0,130,255,60,110.0,0,1,0,0,0,0,0,0,250,250,0,181.28,,,,,,,,,,,,
10283,1561296723800,-2,2.22,2.02,2.88,1.89,3.24,0.77,0.02,0.59,0,-1,0,0.77,0,2,100,40,97,501,0.0,130,255,60,112.0,0,1,0,0,0,0,0,0,250,250,0,181.28,,,,,,,,,,,,
10303,1561296723820,-1,2.21,2.02,2.88,1.89,3.24,0.77,0.02,0.59,0,-1,-0,0.77,0,2,100,40,96,501,0.0,128,254,60,111.0,0,1,0,0,0,0,0,0,250,250,0,181.28,,,,,,,,,,,,
10323,1561296723840,-0,2.21,2.02,2.89,1.89,3.25,0.78,0.02,0.6,0,-1,-0,0.78,0,2,100,40,97,502,0.0,133,255,60,109.0,0,1,0,0,0,0,0,0,250,250,0,181.28,,,,,,,,,,,,
10343,1561296723860,0,2.2,2.01,2.88,1.89,3.24,0.77,0.02,0.6,0,-1,0,0.77,0,2,100,40,98,502,0.0,131,254,60,111.0,0,1,0,0,0,0,0,0,250,250,0,181.28,45.708328,4.912562,0.0,211.7,0,0.0,-1,0.0,0.0,0,0.0,0.1724
10363,1561296723880,-0,2.2,2.02,2.88,1.88,3.24,0.77,0.02,0.6,0,-1,-0,0.77,0,2,100,40,97,502,0.0,130,254,60,112.0,0,1,0,0,0,0,0,0,250,250,0,181.28,,,,,,,,,,,,
10383,1561296723900,-0,2.2,2.02,2.88,1.89,3.24,0.77,0.02,0.59,0,-1,-0,0.77,0,2,100,40,96,502,0.0,127,254,60,111.0,0,1,0,0,0,0,0,0,250,250,0,181.28,,,,,,,,,,,,
10403,1561296723920,1,2.21,2.02,2.88,1.89,3.24,0.77,0.03,0.6,0,-1,-0,0.78,0,2,100,40,98,502,0.0,131,254,60,111.0,0,1,0,0,0,0,0,0,250,250,0,181.28,,,,,,,,,,,,
10423,1561296723940,0,2.21,2.01,2.88,1.89,3.24,0.77,0.02,0.6,0,-0,-0,0.77,0,2,100,40,98,502,0.0,129,254,60,112.0,0,1,0,0,0,0,0,0,250,250,0,181.28,,,,,,,,,,,,
10443,1561296723960,-1,2.21,2.02,2.88,1.89,3.24,0.78,0.02,0.6,0,-0,-0,0.78,0,2,100,40,96,502,0.0,128,253,60,112.0,0,1,0,0,0,0,0,0,250,250,0,181.28,45.708328,4.912562,0.0,211.7,0,0.0,-1,0.0,0.0,0,0.0,0.174
10463,1561296723980,0,2.2,2.02,2.88,1.88,3.24,0.77,0.02,0.61,0,-1,-0,0.77,0,2,100,40,96,502,0.0,128,254,60,110.0,0,1,0,0,0,0,0,0,250,250,0,181.28,,,,,,,,,,,,
10483,1561296724000,-1,2.21,2.02,2.88,1.89,3.24,0.78,0.02,0.6,0,-1,0,0.78,0,2,100,40,98,502,0.0,126,253,60,111.0,0,1,0,0,0,0,0,0,250,250,0,181.28,,,,,,,,,,,,
10503,1561296724020,-0,2.21,2.01,2.88,1.89,3.24,0.78,0.02,0.6,0,-0,-0,0.78,0,2,100,40,97,502,0.0,127,253,60,112.0,0,1,0,0,0,0,0,0,250,250,0,181.28,,,,,,,,,,,,
10523,1561296724040,-1,2.21,2.02,2.88,1.88,3.24,0.78,0.02,0.61,0,-1,-0,0.78,0,2,100,40,96,502,0.0,128,253,60,111.0,0,1,0,0,0,0,0,0,250,250,0,-5.59,,,,,,,,,,,,
10543,1561296724060,-1,2.21,2.02,2.89,1.89,3.24,0.77,0.02,0.59,0,-0,0,0.77,0,2,100,40,97,502,0.0,130,253,60,110.0,0,1,0,0,0,0,0,0,250,250,0,181.28,45.708328,4.912562,0.0,211.7,0,0.0,-1,0.0,0.0,0,0.0,0.1757
10563,1561296724080,-0,2.21,2.01,2.88,1.89,3.24,0.77,0.02,0.6,0,-1,-0,0.77,0,2,100,40,98,502,0.0,129,252,60,111.0,0,1,0,0,0,0,0,0,250,250,0,181.28,,,,,,,,,,,,
10583,1561296724100,-1,2.21,2.02,2.88,1.89,3.25,0.77,0.02,0.6,0,-1,-0,0.77,0,2,100,40,97,502,0.0,128,252,60,113.0,0,1,0,0,0,0,0,0,250,250,0,181.28,,,,,,,,,,,,
10603,1561296724120,0,2.21,2.02,2.88,1.89,3.24,0.78,0.02,0.6,0,-1,-0,0.78,0,2,100,40,96,502,0.0,128,252,60,110.0,0,1,0,0,0,0,0,0,250,250,0,181.28,,,,,,,,,,,,
10623,1561296724140,0,2.21,2.02,2.89,1.88,3.25,0.78,0.03,0.6,0,-1,-0,0.78,0,2,100,40,98,502,0.0,131,252,60,110.0,0,1,0,0,0,0,0,0,250,250,0,181.28,,,,,,,,,,,,
10643,1561296724160,-1,2.22,2.02,2.88,1.89,3.24,0.77,0.03,0.6,0,-1,-0,0.77,0,2,100,40,97,502,0.0,130,252,60,112.0,0,1,0,0,0,0,0,0,250,250,0,181.28,45.708328,4.912562,0.0,211.7,0,0.0,-1,0.0,0.0,0,0.0,0.1774
10663,1561296724180,1,2.21,2.02,2.88,1.89,3.24,0.77,0.03,0.61,0,-1,-0,0.77,0,2,100,40,96,502,0.0,128,251,60,112.0,0,1,0,0,0,0,0,0,250,250,0,181.28,,,,,,,,,,,,
10683,1561296724200,1,2.21,2.02,2.88,1.89,3.25,0.78,0.02,0.62,0,-1,-0,0.78,118,2,100,40,97,502,0.0,130,252,60,107.0,0,1,400,418,0,0,0,0,250,250,0,181.28,,,,,,,,,,,,
10703,1561296724220,0,2.21,2.02,2.88,1.88,3.24,0.77,0.02,0.61,0,-1,-0,0.77,118,2,100,40,98,502,0.0,130,413,60,109.0,0,1,400,428,0,0,0,0,250,250,0,181.28,,,,,,,,,,,,
10723,1561296724240,0,2.2,2.02,2.89,1.89,3.24,0.77,0.02,0.61,0,-1,-0,0.77,118,2,100,40,97,502,0.0,128,455,60,110.0,0,1,400,418,0,0,0,0,250,250,0,181.28,,,,,,,,,,,,
10743,1561296724260,-1,2.21,2.02,2.89,1.88,3.25,0.77,0.02,0.63,0,-1,-0,0.77,405,2,100,40,96,502,0.0,130,457,60,109.0,0,1,152,411,0,0,0,0,250,250,0,181.28,45.708328,4.912562,0.0,211.7,0,0.0,-1,0.0,0.0,0,0.0,0.179
10763,1561296724280,0,2.21,2.02,2.89,1.88,3.25,0.77,0.02,0.63,0,-0,-0,0.77,405,2,100,40,98,502,0.0,128,458,60,108.0,0,1,400,428,6,0,0,0,250,250,0,181.28,,,,,,,,,,,,
10783,1561296724300,-1,2.22,2.02,2.89,1.88,3.25,0.76,0.02,0.62,0,-0,0,0.76,405,2,100,40,98,502,0.0,131,458,60,109.0,0,1,400,428,6,0,0,0,250,250,0,181.28,,,,,,,,,,,,
10803,1561296724320,0,2.21,2.02,2.89,1.89,3.24,0.76,0.02,0.61,0,-0,-0,0.76,405,3,100,40,96,502,0.0,130,458,60,110.0,0,1,400,411,6,0,0,0,250,250,0,181.28,,,,,,,,,,,,
10823,1561296724340,-0,2.2,2.02,2.88,1.89,3.24,0.76,0.02,0.63,0,-1,-0,0.76,421,3,100,40,96,502,0.0,128,457,60,107.0,0,1,400,411,6,0,0,0,250,250,0,181.28,,,,,,,,,,,,
10843,1561296724360,1,2.21,2.02,2.89,1.88,3.24,0.77,0.01,0.64,0,-0,0,0.77,421,4,100,40,98,502,0.0,131,459,60,109.0,0,1,400,428,6,0,0,0,250,250,0,181.28,45.708328,4.912562,0.0,211.7,0,0.0,-1,0.0,0.0,0,0.0,0.1807
10863,1561296724380,0,2.21,2.01,2.88,1.89,3.25,0.77,0.02,0.63,0,-1,-0,0.77,421,4,100,40,97,502,0.0,130,459,60,110.0,0,1,400,418,6,0,0,0,250,250,0,181.28,,,,,,,,,,,,
10883,1561296724400,1,2.21,2.03,2.88,1.89,3.24,0.76,0.01,0.64,0,-1,-0,0.76,407,5,100,40,96,502,0.0,130,458,60,110.0,0,1,400,411,6,0,0,0,250,250,0,181.28,,,,,,,,,,,,
10903,1561296724420,-0,2.21,2.02,2.88,1.89,3.24,0.78,0.01,0.64,0,-1,-0,0.78,407,5,100,40,97,502,0.0,131,457,60,108.0,0,1,400,418,6,0,0,0,250,250,0,181.28,,,,,,,,,,,,
10923,1561296724440,1,2.21,2.02,2.89,1.89,3.24,0.77,0.02,0.64,0,-1,-1,0.77,407,6,100,40,98,502,0.0,133,458,60,109.0,0,1,400,428,6,0,0,0,250,250,0,181.28,,,,,,,,,,,,
10943,1561296724460,0,2.2,2.02,2.88,1.88,3.24,0.77,0.01,0.64,0,-1,-0,0.77,407,6,100,40,97,502,0.0,131,458,60,110.0,0,1,166,418,6,0,0,0,250,250,0,181.28,45.708328,4.912562,0.0,211.7,0,0.0,-1,0.0,0.0,0,0.0,0.1824
10963,1561296724480,1,2.21,2.02,2.88,1.88,3.25,0.77,0.02,0.62,0,-1,-0,0.77,421,6,100,40,96,502,0.0,132,458,60,109.0,0,1,400,411,6,0,0,0,250,250,0,181.28,,,,,,,,,,,,
10983,1561296724500,0,2.2,2.02,2.88,1.89,3.25,0.77,0.02,0.62,0,-1,-1,0.77,421,6,100,40,98,503,0.0,134,458,60,109.0,0,1,180,428,6,0,0,0,250,250,0,181.28,,,,,,,,,,,,
11003,1561296724520,0,2.21,2.01,2.89,1.89,3.24,0.76,0.02,0.62,0,-1,-0,0.76,421,6,100,40,98,503,0.0,132,458,60,110.0,0,1,400,428,6,0,0,0,250,250,0,181.28,,,,,,,,,,,,
11023,1561296724540,-2,2.21,2.01,2.87,1.88,3.23,0.77,0.02,0.62,0,-1,-0,0.77,421,6,100,40,96,503,0.0,132,460,60,110.0,0,1,400,411,6,0,0,0,250,250,0,-5.59,,,,,,,,,,,,
11043,1561296724560,1,2.2,2.02,2.88,1.89,3.24,0.76,0.02,0.62,0,-0,-0,0.76,410,6,100,40,97,503,0.0,133,460,60,108.0,0,1,166,418,6,0,0,0,250,250,0,181.28,45.708328,4.912562,0.0,211.7,0,0.0,-1,0.0,0.0,0,0.0,0.184
11063,1561296724580,1,2.2,2.02,2.89,1.89,3.24,0.76,0.02,0.61,0,-1,-0,0.76,410,6,100,40,98,503,0.0,133,457,60,109.0,0,1,400,428,6,0,0,0,250,250,0,181.28,,,,,,,,,,,,
11083,1561296724600,1,2.21,2.02,2.88,1.89,3.24,0.77,0.02,0.61,0,-0,-0,0.77,410,6,100,40,97,503,0.0,132,460,60,110.0,0,1,400,418,6,0,0,0,250,250,0,181.28,,,,,,,,,,,,
11103,1561296724620,1,2.21,2.02,2.88,1.88,3.25,0.76,0.01,0.61,0,-1,0,0.76,414,6,100,40,96,503,0.0,132,459,60,109.0,0,1,152,411,6,0,0,0,250,250,0,181.28,,,,,,,,,,,,
11123,1561296724640,-0,2.21,2.01,2.88,1.89,3.24,0.76,0.03,0.6,0,-1,-0,0.76,414,6,100,40,98,503,0.0,135,458,60,108.0,0,1,400,428,6,0,0,0,250,250,0,181.28,,,,,,,,,,,,
11143,1561296724660,-0,2.21,2.02,2.89,1.89,3.24,0.77,0.02,0.59,0,-1,-0,0.77,414,7,100,40,98,503,0.0,133,458,60,109.0,0,1,400,428,6,0,0,0,250,250,0,181.28,45.708328,4.912562,0.0,211.7,0,0.0,-1,0.0,0.0,0,0.0,0.1857
11163,1561296724680,-1,2.22,2.02,2.88,1.88,3.24,0.77,0.02,0.59,0,-1,0,0.77,414,7,100,40,97,504,0.0,132,458,60,110.0,0,1,400,418,6,0,0,0,250,250,0,181.28,,,,,,,,,,,,
11183,1561296724700,0,2.2,2.02,2.89,1.89,3.24,0.78,0.03,0.58,0,-1,-0,0.78,416,7,100,40,96,504,0.0,133,458,60,107.0,0,1,400,411,6,0,0,0,250,250,0,181.28,,,,,,,,,,,,
11203,1561296724720,-1,2.22,2.02,2.89,1.88,3.25,0.78,0.02,0.6,0,-1,-0,0.78,416,7,100,40,98,504,0.0,134,458,60,108.0,0,1,400,428,6,0,0,0,250,250,0,181.28,,,,,,,,,,,,
11223,1561296724740,-1,2.21,2.02,2.88,1.89,3.24,0.78,0.02,0.61,0,-1,-0,0.78,416,7,100,40,98,504,0.0,133,459,60,110.0,0,1,400,428,6,0,0,0,250,250,0,181.28,,,,,,,,,,,,
11243,1561296724760,1,2.2,2.02,2.88,1.89,3.25,0.79,0.02,0.61,0,-1,-0,0.79,416,7,100,40,96,504,0.0,132,458,60,110.0,0,1,400,411,6,0,0,0,250,250,0,181.28,45.708328,4.912562,0.0,211.7,0,0.0,-1,0.0,0.0,0,0.0,0.1874
11263,1561296724780,0,2.2,2.02,2.88,1.89,3.24,0.78,0.02,0.61,0,-1,0,0.78,411,7,100,40,97,504,0.0,133,458,60,108.0,0,1,166,418,6,0,0,0,250,250,0,181.28,,,,,,,,,,,,
11283,1561296724800,-1,2.21,2.01,2.89,1.89,3.25,0.78,0.02,0.61,0,-1,-0,0.78,411,8,100,40,98,504,0.0,135,458,60,109.0,0,1,400,428,6,0,0,0,250,250,0,181.28,,,,,,,,,,,,
11303,1561296724820,0,2.21,2.01,2.88,1.88,3.25,0.78,0.02,0.62,0,-0,-0,0.78,411,7,100,40,97,504,0.0,133,458,60,110.0,0,1,400,418,6,0,0,0,250,250,0,181.28,,,,,,,,,,,,
11323,1561296724840,-1,2.21,2.03,2.88,1.89,3.25,0.77,0.02,0.61,0,-0,-0,0.77,414,7,100,40,96,504,0.0,132,460,60,107.0,0,1,400,411,6,0,0,0,250,250,0,-5.59,,,,,,,,,,,,
11343,1561296724860,0,2.2,2.02,2.89,1.89,3.24,0.77,0.02,0.62,0,-1,-1,0.77,414,8,100,40,98,504,0.0,136,458,60,107.0,0,1,400,428,6,0,0,0,250,250,0,181.28,45.708328,4.912562,0.0,211.7,0,0.0,-1,0.0,0.0,0,0.0,0.189
11363,1561296724880,0,2.21,2.02,2.89,1.88,3.25,0.77,0.02,0.62,0,-0,-0,0.77,414,7,100,40,98,504,0.0,136,458,60,109.0,0,1,400,428,6,0,0,0,250,250,0,181.28,,,,,,,,,,,,
11383,1561296724900,-0,2.21,2.02,2.89,1.88,3.24,0.79,0.02,0.61,0,-1,-0,0.79,414,8,100,40,97,504,0.0,133,458,60,109.0,0,1,400,418,6,0,0,0,250,250,0,181.28,,,,,,,,,,,,
11403,1561296724920,1,2.21,2.02,2.88,1.89,3.24,0.78,0.01,0.63,0,-1,-0,0.78,407,8,100,40,96,503,0.0,135,456,60,105.0,0,1,400,411,6,0,0,0,250,250,0,-5.59,,,,,,,,,,,,
11423,1561296724940,-1,2.21,2.02,2.88,1.89,3.24,0.78,0.01,0.62,0,-1,0,0.78,407,7,100,40,98,503,0.0,135,459,60,108.0,0,1,400,428,6,0,0,0,250,250,0,181.28,,,,,,,,,,,,
11443,1561296724960,0,2.21,2.02,2.88,1.89,3.24,0.78,0.02,0.61,0,-1,-0,0.78,407,7,100,40,97,504,0.0,133,458,60,109.0,0,1,166,418,6,0,0,0,250,250,0,181.28,45.708328,4.912562,0.0,211.7,0,0.0,-1,0.0,0.0,0,0.0,0.1907
11463,1561296724980,4,2.21,2.01,2.88,1.89,3.24,0.77,0.01,0.62,0,-1,-0,0.77,421,8,100,40,96,504,0.0,133,458,60,109.0,0,1,400,411,6,0,0,0,250,250,0,181.28,,,,,,,,,,,,
11483,1561296725000,0,2.2,2.02,2.88,1.89,3.25,0.77,0.01,0.62,0,-0,-0,0.77,421,7,100,40,97,504,0.0,133,459,60,107.0,0,1,166,418,6,0,0,0,250,250,0,181.28,,,,,,,,,,,,
11503,1561296725020,1,2.21,2.02,2.88,1.88,3.25,0.77,0.02,0.61,0,-1,-0,0.77,421,7,100,40,98,504,0.0,133,460,60,109.0,0,1,400,428,6,0,0,0,250,250,0,181.28,,,,,,,,,,,,
11523,1561296725040,-1,2.21,2.02,2.88,1.88,3.25,0.77,0.01,0.62,0,-0,-0,0.77,421,8,100,40,97,504,0.0,133,458,60,110.0,0,1,400,418,6,0,0,0,250,250,0,181.28,,,,,,,,,,,,
11543,1561296725060,0,2.2,2.02,2.88,1.89,3.24,0.77,0.02,0.6,0,-1,-0,0.77,426,7,100,40,96,504,0.0,136,457,60,106.0,0,1,400,411,6,0,0,0,250,250,0,-5.59,45.708328,4.912562,0.0,211.7,0,0.0,-1,0.0,0.0,0,0.0,0.1924
11563,1561296725080,-1,2.21,2.02,2.88,1.89,3.24,0.77,0.02,0.61,0,-1,-0,0.77,426,7,100,40,98,504,0.0,137,461,60,108.0,0,1,400,428,6,0,0,0,250,250,0,181.28,,,,,,,,,,,,
11583,1561296725100,0,2.2,2.02,2.88,1.89,3.24,0.77,0.01,0.61,0,-1,0,0.77,426,7,100,40,97,504,0.0,135,458,60,109.0,0,1,166,418,6,0,0,0,250,250,0,181.28,,,,,,,,,,,,
11603,1561296725120,4,2.21,2.01,2.88,1.89,3.24,0.78,0.02,0.61,0,-0,-0,0.78,426,7,100,40,96,504,0.0,135,460,60,109.0,0,1,400,411,6,0,0,0,250,250,0,181.28,,,,,,,,,,,,
11623,1561296725140,-0,2.21,2.02,2.88,1.89,3.24,0.77,0.02,0.6,0,-0,-0,0.77,420,7,100,40,97,504,0.0,133,456,60,107.0,0,1,166,418,6,0,0,0,250,250,0,181.28,,,,,,,,,,,,
11643,1561296725160,0,2.21,2.02,2.89,1.88,3.25,0.77,0.02,0.6,0,-1,-0,0.77,420,8,100,40,98,504,0.0,136,459,60,109.0,0,1,180,428,6,0,0,0,250,250,0,181.28,45.708328,4.912562,0.0,211.7,0,0.0,-1,0.0,0.0,0,0.0,0.194
11663,1561296725180,-1,2.21,2.02,2.88,1.88,3.24,0.77,0.01,0.6,0,-0,-0,0.77,420,8,100,40,97,504,0.0,132,458,60,110.0,0,1,400,418,6,0,0,0,250,250,0,181.28,,,,,,,,,,,,
11683,1561296725200,4,2.2,2.02,2.88,1.89,3.24,0.77,0.01,0.61,0,-0,-0,0.77,403,7,100,40,96,504,0.0,134,453,60,106.0,0,1,400,411,6,0,0,0,250,250,0,-5.59,,,,,,,,,,,,
11703,1561296725220,0,2.2,2.02,2.88,1.89,3.24,0.77,0.02,0.61,0,-0,-0,0.77,403,7,100,40,98,504,0.0,133,461,60,107.0,0,1,400,428,6,0,0,0,250,250,0,181.28,,,,,,,,,,,,
11723,1561296725240,1,2.21,2.02,2.89,1.88,3.24,0.77,0.01,0.61,0,-0,0,0.77,403,8,100,40,98,504,0.0,135,460,60,108.0,0,1,400,428,6,0,0,0,250,250,0,181.28,,,,,,,,,,,,
11743,1561296725260,4,2.21,2.02,2.88,1.89,3.24,0.77,0.02,0.6,0,-0,-0,0.77,403,7,100,40,96,505,0.0,135,458,60,109.0,0,1,400,411,6,0,0,0,250,250,0,181.28,45.708328,4.912562,0.0,211.7,0,0.0,-1,0.0,0.0,0,0.0,0.1957
11763,1561296725280,-0,2.21,2.02,2.88,1.89,3.24,0.78,0.02,0.61,0,-1,-0,0.78,426,7,100,40,97,504,0.0,135,461,60,105.0,0,1,400,418,6,0,0,0,250,250,0,181.28,,,,,,,,,,,,
11783,1561296725300,0,2.21,2.02,2.88,1.88,3.25,0.78,0.02,0.62,0,-0,-0,0.78,426,7,100,40,98,504,0.0,137,458,60,108.0,0,1,180,428,6,0,0,0,250,250,0,181.28,,,,,,,,,,,,
11803,1561296725320,-0,2.21,2.01,2.88,1.89,3.25,0.78,0.02,0.62,0,-1,-0,0.78,426,8,100,40,97,504,0.0,135,458,60,109.0,0,1,166,418,6,0,0,0,250,250,0,181.28,,,,,,,,,,,,
11823,1561296725340,4,2.21,2.02,2.88,1.89,3.24,0.77,0.02,0.62,0,-0,-0,0.78,430,10,100,40,96,505,0.0,133,458,60,106.0,0,1,400,411,6,0,0,0,250,250,0,-5.59,,,,,,,,,,,,
11843,1561296725360,0,2.2,2.02,2.88,1.89,3.25,0.77,0.02,0.62,0,-1,0,0.77,430,12,100,40,98,504,0.0,136,460,60,107.0,0,1,180,428,6,0,0,0,250,250,0,181.28,45.708328,4.912562,0.0,211.7,0,0.0,-1,0.0,0.0,0,0.0,0.1974
11863,1561296725380,1,2.21,2.02,2.88,1.89,3.24,0.77,0.02,0.63,0,-1,-1,0.77,430,14,100,40,98,504,0.0,133,458,60,109.0,0,1,400,428,6,0,0,0,250,250,0,181.28,,,,,,,,,,,,
11883,1561296725400,2,2.21,2.02,2.89,1.88,3.25,0.76,0.02,0.63,0,-1,-0,0.76,430,16,100,40,97,504,0.0,131,458,60,110.0,0,1,166,418,6,0,0,0,250,250,0,181.28,,,,,,,,,,,,
11903,1561296725420,0,2.2,2.02,2.88,1.88,3.25,0.78,0.02,0.62,0,-1,-0,0.78,429,19,100,40,97,504,0.0,134,463,60,105.0,0,1,166,418,6,0,0,0,250,250,0,414.87,,,,,,,,,,,,
11923,1561296725440,-1,2.22,2.02,2.89,1.89,3.25,0.78,0.02,0.62,0,-1,-0,0.78,429,22,100,40,98,504,0.0,135,458,60,108.0,0,1,180,428,6,0,0,0,250,250,0,181.28,,,,,,,,,,,,
11943,1561296725460,1,2.21,2.01,2.88,1.89,3.24,0.78,0.02,0.63,0,-1,-0,0.78,429,24,100,40,97,504,0.0,135,458,60,110.0,0,1,166,253,6,0,0,0,250,250,0,181.28,45.708328,4.912562,0.0,211.7,0,0.0,-1,0.0,0.0,0,0.0,0.199
11963,1561296725480,4,2.21,2.02,2.89,1.88,3.25,0.76,0.02,0.62,0,-1,-0,0.77,408,23,100,40,97,504,0.0,134,457,60,109.0,0,1,166,418,6,0,0,0,250,250,0,-5.59,,,,,,,,,,,,
11983,1561296725500,0,2.21,2.02,2.88,1.89,3.25,0.77,0.02,0.61,0,-1,-0,0.77,408,25,100,40,98,504,0.0,138,457,60,107.0,0,1,180,260,6,0,0,0,250,250,0,181.28,,,,,,,,,,,,
12003,1561296725520,0,2.21,2.02,2.89,1.89,3.24,0.77,0.02,0.61,0,-1,-0,0.77,408,28,100,40,98,504,0.0,137,458,60,108.0,0,1,180,260,6,0,0,0,250,250,0,181.28,,,,,,,,,,,,
12023,1561296725540,1,2.21,2.02,2.88,1.89,3.25,0.77,0.02,0.62,0,-1,-0,0.77,408,34,100,40,97,505,0.0,133,458,60,110.0,0,1,166,253,6,0,0,0,250,250,0,181.28,,,,,,,,,,,,
12043,1561296725560,0,2.21,2.02,2.88,1.88,3.25,0.77,0.03,0.59,0,-1,-0,0.77,426,33,100,40,98,504,0.0,135,456,60,105.0,0,1,180,428,6,0,0,0,250,250,0,-5.59,45.708328,4.912562,0.0,211.7,0,0.0,-1,0.0,0.0,0,0.0,0.2007
12063,1561296725580,1,2.21,2.02,2.89,1.89,3.24,0.77,0.03,0.62,0,-1,-1,0.77,426,43,100,40,98,504,0.0,137,458,60,107.0,0,1,180,428,6,0,0,0,250,250,0,181.28,,,,,,,,,,,,
12083,1561296725600,-0,2.21,2.02,2.89,1.89,3.24,0.77,0.02,0.61,0,-1,-0,0.77,426,49,100,40,98,504,0.0,135,459,60,109.0,0,1,180,428,6,0,0,0,250,250,0,181.28,,,,,,,,,,,,
12103,1561296725620,4,2.2,2.02,2.88,1.89,3.25,0.77,0.03,0.6,0,-0,-0,0.77,438,48,100,40,98,504,0.0,136,452,60,107.0,0,1,180,428,6,0,0,0,250,250,0,-5.59,,,,,,,,,,,,
12123,1561296725640,-0,2.21,2.02,2.89,1.89,3.24,0.76,0.02,0.61,0,-1,-0,0.76,438,5,100,40,98,504,0.0,139,460,60,107.0,0,1,400,428,6,0,0,0,250,250,0,181.28,,,,,,,,,,,,
12143,1561296725660,-0,2.21,2.02,2.89,1.89,3.25,0.77,0.03,0.61,0,-1,-0,0.77,438,3,100,40,98,504,0.0,136,458,60,108.0,0,1,400,428,6,0,0,0,250,250,0,181.28,45.708328,4.912562,0.0,211.7,0,0.0,-1,0.0,0.0,0,0.0,0.2024
12163,1561296725680,2,2.21,2.02,2.88,1.89,3.24,0.76,0.03,0.59,0,-0,-1,0.76,438,3,100,40,98,504,0.0,135,458,60,110.0,0,1,400,428,7,0,0,0,250,250,0,181.28,,,,,,,,,,,,
12183,1561296725700,-0,2.2,2.02,2.88,1.89,3.24,0.76,0.02,0.6,0,-1,-0,0.76,438,16,100,40,98,504,0.0,137,464,60,105.0,0,1,180,428,7,0,0,0,250,250,0,181.28,,,,,,,,,,,,
12203,1561296725720,1,2.2,2.02,2.89,1.89,3.24,0.76,0.03,0.61,0,-1,-1,0.76,438,18,100,40,98,504,0.0,140,458,60,107.0,0,1,180,428,7,0,0,0,250,250,0,181.28,,,,,,,,,,,,
12223,1561296725740,-1,2.21,2.01,2.89,1.89,3.24,0.75,0.02,0.62,0,-1,-0,0.75,438,46,100,40,98,504,0.0,138,458,60,109.0,0,1,180,428,7,0,0,0,250,250,0,181.28,,,,,,,,,,,,
12243,1561296725760,0,2.2,2.02,2.88,1.89,3.24,0.75,0.02,0.61,0,-0,-1,0.75,436,14,100,40,98,504,0.0,137,465,60,106.0,0,1,400,428,7,0,0,0,250,250,0,-5.59,45.708328,4.912562,0.0,211.7,0,0.0,-1,0.0,0.0,0,0.0,0.204
12263,1561296725780,0,2.21,2.01,2.89,1.88,3.24,0.75,0.02,0.6,0,-1,-0,0.75,436,23,100,40,98,503,0.0,139,457,60,107.0,0,1,180,428,7,0,0,0,250,250,0,181.28,,,,,,,,,,,,
12283,1561296725800,-1,2.21,2.01,2.89,1.89,3.24,0.76,0.03,0.61,0,-1,-1,0.76,436,32,100,40,98,503,0.0,136,459,60,109.0,0,1,180,428,7,0,0,0,250,250,0,181.28,,,,,,,,,,,,
12303,1561296725820,5,2.21,2.02,2.89,1.88,3.25,0.76,0.02,0.61,0,-1,-0,0.76,474,24,100,40,97,504,0.0,135,456,60,108.0,0,1,166,418,7,0,0,0,250,250,0,-5.59,,,,,,,,,,,,
12323,1561296725840,-1,2.21,2.02,2.88,1.89,3.24,0.77,0.03,0.59,0,-0,-0,0.77,474,20,100,40,98,504,0.0,138,457,60,107.0,0,1,180,428,7,0,0,0,250,250,0,181.28,,,,,,,,,,,,
12343,1561296725860,0,2.21,2.02,2.88,1.89,3.24,0.77,0.03,0.59,0,-1,-1,0.77,474,20,100,40,98,504,0.0,136,458,60,109.0,0,1,180,260,7,0,0,0,250,250,0,181.28,45.708328,4.912562,0.0,211.7,0,0.0,-1,0.0,0.0,0,0.0,0.2057
12363,1561296725880,5,2.21,2.02,2.89,1.88,3.25,0.77,0.03,0.6,0,-1,-0,0.77,474,20,100,40,97,504,0.0,134,458,60,110.0,0,1,166,253,7,0,0,0,250,250,0,181.28,,,,,,,,,,,,
12383,1561296725900,-2,2.22,2.02,2.89,1.89,3.24,0.77,0.02,0.6,0,-1,-0,0.77,474,21,100,40,97,504,0.0,137,455,60,108.0,0,1,166,253,7,0,0,0,250,250,0,181.28,,,,,,,,,,,,
12403,1561296725920,0,2.21,2.02,2.89,1.89,3.24,0.76,0.03,0.6,0,-1,-0,0.76,474,34,100,40,98,504,0.0,135,459,60,110.0,0,1,180,260,7,0,0,0,250,250,0,181.28,,,,,,,,,,,,
12423,1561296725940,-0,2.21,2.02,2.89,1.89,3.25,0.76,0.02,0.59,0,-0,-0,0.76,541,21,100,40,97,504,0.0,134,458,60,109.0,0,1,166,418,7,0,0,0,250,250,0,-5.59,,,,,,,,,,,,
12443,1561296725960,0,2.21,2.01,2.89,1.88,3.24,0.76,0.02,0.6,0,-1,-0,0.76,541,18,100,40,98,504,0.0,135,458,60,111.0,0,1,180,428,7,0,0,0,250,250,0,181.28,45.708328,4.912562,0.0,211.7,0,0.0,-1,0.0,0.0,0,0.0,0.2074
12463,1561296725980,0,2.2,2.02,2.88,1.89,3.24,0.77,0.02,0.59,0,-0,-0,0.77,541,91,100,40,98,504,0.0,133,460,60,111.0,0,1,180,428,8,0,0,0,250,250,0,181.28,,,,,,,,,,,,
12483,1561296726000,-1,2.21,2.02,2.88,1.88,3.24,0.76,0.02,0.6,0,-1,-0,0.76,544,33,100,40,98,504,0.0,132,462,60,108.0,0,1,180,428,8,0,0,0,250,250,0,-5.59,,,,,,,,,,,,
12503,1561296726020,0,2.2,2.02,2.89,1.88,3.24,0.76,0.02,0.62,0,-1,-0,0.76,544,100,100,40,98,504,0.0,134,458,60,110.0,0,1,180,428,8,0,0,0,250,250,0,181.28,,,,,,,,,,,,
12523,1561296726040,2,2.21,2.02,2.89,1.89,3.25,0.77,0.01,0.61,0,-0,0,0.77,544,3,100,40,98,504,0.0,131,458,60,111.0,0,1,400,428,8,0,0,0,250,250,0,181.28,,,,,,,,,,,,
12543,1561296726060,0,2.21,2.02,2.89,1.89,3.24,0.78,0.02,0.61,0,-1,-0,0.78,530,3,100,40,98,504,0.0,135,458,60,107.0,0,1,400,428,8,0,0,0,250,250,0,-5.59,45.708328,4.912562,0.0,211.7,0,0.0,-1,0.0,0.0,0,0.0,0.209
12563,1561296726080,0,2.21,2.02,2.89,1.88,3.25,0.77,0.01,0.62,0,-1,-1,0.77,530,3,100,40,98,504,0.0,134,461,60,111.0,0,1,400,428,8,0,0,0,250,250,0,181.28,,,,,,,,,,,,
12583,1561296726100,-2,2.22,2.02,2.89,1.88,3.24,0.76,0.01,0.62,0,-2,0,0.76,702,56,100,40,99,504,0.0,135,456,60,112.0,0,1,180,280,8,0,0,0,250,250,0,181.28,,,,,,,,,,,,
12603,1561296726120,4,2.21,2.03,2.89,1.89,3.24,0.78,0.02,0.61,0,-1,-1,0.78,1162,3,100,40,98,504,0.0,140,461,60,110.0,0,1,300,445,8,0,0,0,250,250,0,-5.59,,,,,,,,,,,,
12623,1561296726140,8,2.22,2.02,2.89,1.89,3.24,0.77,0.0,0.6,0,-1,-0,0.77,1162,8,100,40,97,503,0.0,140,461,60,111.0,0,1,300,434,8,0,0,0,250,250,0,-5.59,,,,,,,,,,,,
12643,1561296726160,6,2.22,2.02,2.89,1.89,3.24,0.77,0.02,0.6,0,-1,-0,0.77,1121,25,100,40,98,502,0.0,140,456,60,109.0,0,1,184,441,8,0,0,0,250,250,0,-5.59,45.708328,4.912562,0.0,211.7,0,0.0,-1,0.0,0.0,0,0.0,0.2107
12663,1561296726180,11,2.21,2.02,2.89,1.88,3.24,0.78,0.01,0.6,0,-1,-0,0.78,889,13,100,40,98,502,0.0,142,454,60,106.0,0,1,180,428,8,0,0,0,250,250,0,-5.59,,,,,,,,,,,,
12683,1561296726200,11,2.21,2.03,2.89,1.89,3.25,0.79,0.01,0.61,0,-1,-0,0.79,889,62,100,40,98,501,0.0,140,461,60,106.0,0,1,180,428,14,0,0,0,250,250,0,-5.59,,,,,,,,,,,,
12703,1561296726220,14,2.21,2.01,2.88,1.89,3.24,0.78,0.01,0.6,0,-1,-0,0.78,889,56,100,40,98,500,0.0,140,461,60,105.0,0,1,180,428,14,0,0,0,250,250,0,-5.59,,,,,,,,,,,,
12723,1561296726240,12,2.21,2.02,2.89,1.89,3.24,0.79,0.01,0.61,0,-1,-0,0.79,571,46,100,40,98,500,0.0,140,457,60,102.0,0,1,180,428,14,0,0,0,250,250,0,-5.59,,,,,,,,,,,,
12743,1561296726260,13,2.21,2.02,2.89,1.89,3.25,0.79,0.01,0.6,0,-1,0,0.79,571,45,100,40,98,500,0.0,140,460,60,102.0,0,1,180,260,14,0,0,0,250,250,0,181.28,45.708328,4.912562,0.0,211.7,0,0.0,-1,0.0,0.0,0,0.0,0.2124
12763,1561296726280,11,2.21,2.02,2.89,1.88,3.25,0.79,0.01,0.6,0,-1,-0,0.79,571,44,100,40,98,500,0.0,137,457,60,102.0,0,1,180,260,9,0,0,0,250,250,0,181.28,,,,,,,,,,,,
12783,1561296726300,9,2.21,2.02,2.89,1.88,3.25,0.77,-0.0,0.62,0,-1,-0,0.77,491,45,100,40,98,500,0.0,139,457,60,100.0,0,1,180,428,9,0,0,0,250,250,0,181.28,,,,,,,,,,,,
12803,1561296726320,10,2.21,2.02,2.89,1.89,3.24,0.76,0.01,0.63,0,-0,-0,0.76,491,44,100,40,98,500,0.0,143,457,60,90.0,0,1,180,428,9,0,0,0,250,250,0,181.28,,,,,,,,,,,,
12823,1561296726340,7,2.21,2.02,2.88,1.89,3.24,0.77,-0.01,0.58,0,1,0,0.77,491,26,100,40,98,500,0.0,143,456,60,96.0,0,1,180,428,9,0,0,0,250,250,0,181.28,,,,,,,,,,,,
12843,1561296726360,7,2.22,2.02,2.89,1.88,3.24,0.77,0.01,0.62,0,-1,-0,0.77,510,47,100,40,98,500,0.0,146,456,60,100.0,0,1,180,428,9,0,0,0,250,250,0,181.28,45.708328,4.912562,0.0,211.7,0,0.0,-1,0.0,0.0,0,0.0,0.214
12863,1561296726380,8,2.2,2.02,2.89,1.89,3.24,0.75,0.01,0.61,0,1,-0,0.75,510,57,100,40,98,500,0.0,151,456,60,103.0,0,1,180,260,9,0,0,0,250,250,0,181.28,,,,,,,,,,,,
12883,1561296726400,4,2.2,2.02,2.89,1.89,3.24,0.75,0.01,0.62,0,0,-0,0.75,711,68,100,40,98,500,0.0,146,455,60,106.0,0,1,180,428,8,0,0,0,250,250,0,181.28,,,,,,,,,,,,
12903,1561296726420,-1,2.21,2.02,2.89,1.89,3.24,0.76,0.01,0.62,0,1,-0,0.76,1064,9,100,40,97,500,0.0,145,457,60,109.0,0,1,169,425,8,0,0,0,250,250,0,181.28,,,,,,,,,,,,
12923,1561296726440,1,2.21,2.02,2.89,1.88,3.24,0.78,0.0,0.65,0,-0,-1,0.78,1503,22,100,40,97,500,0.0,143,456,60,110.0,0,1,197,466,8,0,0,0,250,250,0,-5.59,,,,,,,,,,,,
12943,1561296726460,-0,2.21,2.02,2.88,1.88,3.24,0.76,0.01,0.64,0,-0,-0,0.76,1712,53,100,40,97,500,0.0,146,456,60,111.0,0,1,205,483,8,0,0,0,250,250,0,-5.59,45.708328,4.912562,0.0,211.7,0,0.0,-1,0.0,0.0,0,0.0,0.2157
12963,1561296726480,-1,2.22,2.01,2.89,1.88,3.25,0.78,0.01,0.59,0,3,-0,0.78,1700,32,100,40,98,500,0.0,151,460,60,113.0,0,1,208,483,8,0,0,0,250,250,0,181.28,,,,,,,,,,,,
12983,1561296726500,4,2.21,2.02,2.89,1.88,3.24,0.74,0.02,0.55,0,0,-0,0.74,1875,80,100,40,99,500,0.0,152,463,60,114.0,0,1,218,533,32,0,0,0,250,250,0,181.28,,,,,,,,,,,,
13003,1561296726520,-1,2.21,2.02,2.89,1.89,3.25,0.79,0.02,0.64,0,-0,-1,0.79,2105,76,100,40,97,500,0.0,160,458,60,112.0,0,1,220,325,32,0,0,0,250,250,0,-5.59,,,,,,,,,,,,
13023,1561296726540,5,2.21,2.02,2.89,1.89,3.24,0.76,0.01,0.59,0,2,1,0.76,2068,35,100,40,98,500,0.0,165,463,60,120.0,0,1,222,535,32,0,0,0,250,250,0,181.28,,,,,,,,,,,,
13043,1561296726560,-2,2.22,2.02,2.88,1.89,3.24,0.77,0.04,0.65,-0,-2,-1,0.77,2443,53,100,40,97,500,0.0,172,457,60,119.0,0,1,232,346,32,0,0,0,250,250,0,-5.59,45.708328,4.912562,0.0,211.7,0,0.0,-1,0.0,0.0,0,0.0,0.2174
13063,1561296726580,0,2.21,2.02,2.89,1.89,3.24,0.8,-0.0,0.53,-0,0,1,0.8,2624,31,100,40,96,500,0.0,181,459,60,121.0,0,1,231,528,52,0,0,0,250,250,0,181.28,,,,,,,,,,,,
13083,1561296726600,-1,2.22,2.02,2.89,1.89,3.25,0.87,-0.03,0.5,-0,0,1,0.87,2920,3,100,40,93,500,0.0,190,457,60,121.0,0,1,225,491,52,0,0,0,250,250,0,181.28,,,,,,,,,,,,
13103,1561296726620,3,2.21,2.02,2.89,1.89,3.24,0.9,-0.01,0.49,-0,-1,1,0.9,3440,3,100,40,90,500,0.0,203,457,60,121.0,0,1,237,437,52,0,0,0,250,250,0,-5.59,,,,,,,,,,,,
13123,1561296726640,1,2.22,2.02,2.89,1.89,3.25,0.88,-0.0,0.4,0,1,1,0.88,3825,3,100,40,88,500,0.0,219,457,60,121.0,0,1,276,502,52,0,0,0,250,250,0,181.28,,,,,,,,,,,,
13143,1561296726660,-1,2.22,2.02,2.89,1.89,3.25,0.84,0.01,0.46,0,0,1,0.84,4230,5,100,40,86,500,0.0,242,457,60,121.0,0,1,293,543,52,0,0,0,250,250,0,181.28,45.708328,4.912562,0.0,211.7,0,0.0,-1,0.0,0.0,0,0.0,0.219
13163,1561296726680,1,2.22,2.03,2.89,1.89,3.24,0.84,0.02,0.51,0,1,1,0.84,4500,3,100,40,84,500,0.0,265,447,60,121.0,0,1,289,554,94,0,0,0,250,250,0,181.28,,,,,,,,,,,,
13183,1561296726700,3,2.21,2.02,2.9,1.88,3.25,0.84,0.04,0.61,1,1,1,0.84,4768,8,100,40,82,500,0.0,293,451,60,121.0,0,1,285,571,94,0,0,0,250,250,0,181.28,,,,,,,,,,,,
13203,1561296726720,-2,2.22,2.02,2.9,1.89,3.25,0.87,0.02,0.6,1,0,1,0.87,5062,12,100,40,81,500,0.0,325,460,60,121.0,0,1,285,553,94,0,0,0,250,250,0,-5.59,,,,,,,,,,,,
13223,1561296726740,2,2.21,2.02,2.9,1.88,3.25,0.9,0.05,0.62,1,0,1,0.9,5401,11,100,40,78,500,0.0,362,454,60,120.0,0,1,307,526,94,0,0,0,250,250,0,181.28,,,,,,,,,,,,
13243,1561296726760,2,2.22,2.03,2.89,1.89,3.25,0.77,0.06,0.5,1,1,1,0.77,5740,6,100,40,75,500,0.0,392,456,60,119.0,0,1,331,509,94,0,0,0,250,250,0,181.28,45.708328,4.912562,0.0,211.7,0,0.0,-1,0.0,0.0,0,0.0,0.2207
13263,1561296726780,2,2.21,2.02,2.9,1.89,3.24,0.62,0.08,0.5,0,1,0,0.63,6117,9,100,40,73,500,0.0,430,461,60,119.0,0,1,355,497,94,0,0,0,250,250,0,181.28,,,,,,,,,,,,
13283,1561296726800,1,2.21,2.03,2.9,1.89,3.24,0.44,0.17,0.38,0,3,0,0.47,6397,7,100,40,71,500,0.0,476,457,60,121.0,0,1,368,460,115,0,0,0,250,250,0,181.28,,,,,,,,,,,,
13303,1561296726820,-1,2.22,2.02,2.9,1.89,3.25,0.5,0.06,0.41,1,4,1,0.51,6494,0,99,40,69,500,0.0,507,457,60,122.0,0,1,373,422,115,0,0,0,250,250,0,-5.59,,,,,,,,,,,,
13323,1561296726840,5,2.21,2.03,2.91,1.89,3.25,0.62,0.04,0.49,1,-1,1,0.62,6710,9,99,40,67,500,0.0,528,460,60,120.0,0,1,387,400,115,0,0,0,250,250,0,181.28,,,,,,,,,,,,
13343,1561296726860,2,2.21,2.03,2.9,1.89,3.24,0.47,0.03,0.4,0,3,2,0.48,6870,8,99,40,65,500,0.0,547,459,60,122.0,0,1,401,400,115,0,0,0,250,250,0,-5.59,45.708328,4.912562,0.0,211.7,0,0.0,-1,0.0,0.0,0,0.0,0.2224
13363,1561296726880,1,2.21,2.02,2.9,1.89,3.25,0.57,0.03,0.49,1,-1,3,0.57,7131,13,100,40,64,500,0.0,565,460,60,121.0,0,1,415,395,115,0,0,0,250,250,0,414.87,,,,,,,,,,,,
13383,1561296726900,0,2.22,2.02,2.91,1.88,3.25,0.72,0.09,0.56,1,-0,3,0.72,7376,12,100,40,61,500,0.0,586,458,60,120.0,0,1,433,386,106,0,0,0,250,250,0,414.87,,,,,,,,,,,,
13403,1561296726920,-1,2.22,2.02,2.9,1.89,3.25,0.85,0.1,0.57,0,-0,3,0.85,7518,20,99,40,59,500,0.0,611,458,60,121.0,0,1,423,376,106,0,0,0,250,250,0,414.87,,,,,,,,,,,,
13423,1561296726940,1,2.21,2.02,2.9,1.89,3.25,0.97,0.1,0.59,0,-2,2,0.97,7706,21,99,40,57,500,0.0,620,462,60,121.0,0,1,412,362,106,0,0,0,250,250,0,414.87,,,,,,,,,,,,
13443,1561296726960,2,2.21,2.03,2.91,1.88,3.25,1.07,0.09,0.66,0,-3,3,1.08,7754,3,99,40,55,500,0.0,632,460,60,120.0,0,1,397,339,106,0,0,0,250,250,0,414.87,45.708328,4.912562,0.0,211.7,0,0.0,-1,0.0,0.0,0,0.0,0.224
13463,1561296726980,4,2.22,2.02,2.91,1.88,3.25,0.97,0.12,0.67,1,-2,2,0.98,7908,10,99,40,53,500,0.0,631,458,60,121.0,0,1,387,325,97,0,0,0,250,250,0,-5.59,,,,,,,,,,,,
13483,1561296727000,1,2.21,2.02,2.91,1.89,3.25,0.89,0.03,0.71,0,-2,0,0.89,7938,14,99,40,49,500,0.0,636,461,60,120.0,0,1,375,291,97,0,0,0,250,250,0,-5.59,,,,,,,,,,,,
13503,1561296727020,-1,2.22,2.02,2.9,1.89,3.25,0.99,-0.0,0.73,1,-3,2,0.99,7845,8,99,40,45,500,0.0,642,458,60,120.0,0,1,355,273,97,0,0,0,250,250,0,414.87,,,,,,,,,,,,
13523,1561296727040,1,2.21,2.03,2.9,1.89,3.25,1.09,0.03,0.71,1,-2,3,1.09,7709,7,99,40,42,500,0.0,638,456,60,122.0,0,1,332,266,97,0,0,0,250,250,0,414.87,,,,,,,,,,,,
13543,1561296727060,1,2.22,2.02,2.91,1.89,3.25,1.13,0.08,0.75,1,-2,-0,1.13,7485,3,99,40,41,500,0.0,632,458,60,122.0,0,1,325,259,97,0,0,0,250,250,0,181.28,45.708328,4.912562,0.0,211.7,0,0.0,-1,0.0,0.0,0,0.0,0.2257
13563,1561296727080,-0,2.22,2.03,2.9,1.89,3.25,1.2,0.11,0.82,1,-6,1,1.21,7292,4,99,40,41,500,0.0,629,460,60,122.0,0,1,325,259,71,0,0,0,250,250,0,414.87,,,,,,,,,,,,
13583,1561296727100,5,2.2,2.01,2.9,1.88,3.24,1.28,0.1,0.86,1,-7,3,1.29,7056,7,99,39,41,500,0.0,615,456,60,120.0,0,1,325,261,71,0,0,0,250,250,0,-5.59,,,,,,,,,,,,
13603,1561296727120,2,2.22,2.02,2.91,1.88,3.25,1.02,0.1,0.67,1,-1,2,1.03,6883,8,99,39,41,500,0.0,597,460,60,121.0,0,1,324,261,71,0,0,0,250,250,0,181.28,,,,,,,,,,,,
13623,1561296727140,5,2.21,2.02,2.9,1.88,3.25,0.99,0.09,0.65,1,-2,1,1.0,6686,6,99,39,42,500,0.0,577,461,60,120.0,0,1,331,261,71,0,0,0,250,250,0,414.87,,,,,,,,,,,,
13643,1561296727160,0,2.21,2.02,2.91,1.88,3.25,0.94,0.11,0.58,1,-1,1,0.94,6514,5,99,39,42,500,0.0,563,460,60,122.0,0,1,330,261,71,0,0,0,250,250,0,414.87,45.708328,4.912562,0.0,211.7,0,0.0,-1,0.0,0.0,0,0.0,0.2274
13663,1561296727180,1,2.22,2.02,2.91,1.88,3.25,0.98,0.03,0.68,1,-1,-0,0.98,6384,0,99,39,43,500,0.0,552,461,60,121.0,0,1,336,263,63,0,0,0,250,250,0,-5.59,,,,,,,,,,,,
13683,1561296727200,2,2.21,2.02,2.91,1.89,3.25,0.98,0.01,0.8,-0,-3,-1,0.98,6247,3,99,39,43,500,0.0,539,462,60,120.0,0,1,336,263,63,0,0,0,250,250,0,-5.59,,,,,,,,,,,,
13703,1561296727220,2,2.22,2.02,2.9,1.89,3.25,0.86,0.09,0.83,-0,-4,-1,0.86,6227,0,99,39,43,500,0.0,539,458,60,120.0,0,1,336,263,63,0,0,0,250,250,0,181.28,,,,,,,,,,,,
13723,1561296727240,3,2.22,2.02,2.91,1.89,3.25,0.73,0.19,0.74,0,-1,-0,0.75,6243,3,99,39,44,500,0.0,532,456,60,122.0,0,1,342,264,63,0,0,0,250,250,0,414.87,,,,,,,,,,,,
13743,1561296727260,-2,2.22,2.02,2.9,1.88,3.25,0.72,0.15,0.67,1,1,1,0.73,6223,0,99,39,44,500,0.0,530,455,60,122.0,0,1,342,264,63,0,0,0,250,250,0,181.28,45.708328,4.912562,0.0,211.7,0,0.0,-1,0.0,0.0,0,0.0,0.229
13763,1561296727280,-2,2.22,2.02,2.91,1.88,3.26,0.82,0.02,0.68,1,2,1,0.82,6186,1,99,39,44,500,0.0,530,460,60,122.0,0,1,341,264,63,0,0,0,250,250,0,-5.59,,,,,,,,,,,,
13783,1561296727300,-2,2.22,2.02,2.91,1.89,3.25,0.94,-0.12,0.75,1,0,1,0.94,6196,1,99,39,44,500,0.0,532,455,60,122.0,0,1,341,264,61,0,0,0,250,250,0,-5.59,,,,,,,,,,,,
13803,1561296727320,2,2.22,2.02,2.91,1.88,3.25,1.02,-0.17,0.81,1,-3,1,1.03,6155,4,99,39,44,500,0.0,529,462,60,120.0,0,1,341,264,61,0,0,0,250,250,0,-5.59,,,,,,,,,,,,
13823,1561296727340,3,2.21,2.02,2.91,1.89,3.24,1.04,-0.14,0.84,1,-7,2,1.05,6200,7,99,39,44,500,0.0,530,463,60,120.0,0,1,342,263,61,0,0,0,250,250,0,-5.59,,,,,,,,,,,,
13843,1561296727360,3,2.22,2.03,2.9,1.89,3.25,0.98,-0.07,0.77,0,-9,2,0.98,6141,6,99,39,45,500,0.0,532,462,60,120.0,0,1,348,264,61,0,0,0,250,250,0,181.28,45.708328,4.912562,0.0,211.7,0,0.0,-1,0.0,0.0,0,0.0,0.2307
13863,1561296727380,5,2.2,2.03,2.91,1.88,3.25,0.89,0.02,0.62,0,-9,3,0.89,6125,8,99,39,45,500,0.0,530,460,60,121.0,0,1,348,264,61,0,0,0,250,250,0,414.87,,,,,,,,,,,,
13883,1561296727400,4,2.22,2.02,2.91,1.89,3.25,0.73,0.12,0.47,0,-8,4,0.74,6181,8,99,39,45,500,0.0,525,461,60,120.0,0,1,348,263,61,0,0,0,250,250,0,414.87,,,,,,,,,,,,
13903,1561296727420,3,2.22,2.02,2.91,1.89,3.25,0.6,0.2,0.31,0,-5,5,0.64,6113,6,99,39,45,500,0.0,529,459,60,122.0,0,1,348,264,61,0,0,0,250,250,0,414.87,,,,,,,,,,,,
13923,1561296727440,-2,2.22,2.02,2.91,1.89,3.25,0.49,0.22,0.21,-0,-1,6,0.54,6171,8,99,39,46,500,0.0,524,460,60,122.0,0,1,354,263,61,0,0,0,250,250,0,181.28,,,,,,,,,,,,
13943,1561296727460,-0,2.22,2.02,2.91,1.89,3.26,0.48,0.15,0.24,-0,3,6,0.5,6214,7,100,39,46,500,0.0,526,457,60,122.0,0,1,355,263,61,0,0,0,250,250,0,181.28,45.708328,4.912562,0.0,211.7,0,0.0,-1,0.0,0.0,0,0.0,0.2324
13963,1561296727480,0,2.22,2.02,2.91,1.88,3.25,0.59,0.04,0.41,-0,4,6,0.59,6254,9,100,39,46,500,0.0,525,456,60,121.0,0,1,355,263,62,0,0,0,250,250,0,-5.59,,,,,,,,,,,,
13983,1561296727500,2,2.22,2.03,2.91,1.89,3.25,0.73,-0.03,0.56,-0,2,5,0.74,6300,8,100,39,46,500,0.0,534,460,60,120.0,0,1,356,262,62,0,0,0,250,250,0,-5.59,,,,,,,,,,,,
14003,1561296727520,3,2.22,2.02,2.9,1.89,3.26,0.84,0.04,0.66,0,-1,4,0.84,6340,8,100,39,46,500,0.0,538,458,60,121.0,0,1,356,262,62,0,0,0,250,250,0,414.87,,,,,,,,,,,,
14023,1561296727540,-0,2.21,2.03,2.91,1.89,3.25,0.68,0.16,0.51,0,-0,3,0.7,6386,7,100,39,46,500,0.0,546,460,60,122.0,0,1,356,260,62,0,0,0,250,250,0,181.28,,,,,,,,,,,,
14043,1561296727560,0,2.21,2.03,2.91,1.88,3.25,0.6,0.1,0.42,-0,3,3,0.61,6421,8,100,39,46,501,0.0,547,460,60,122.0,0,1,357,262,62,0,0,0,250,250,0,-5.59,45.708328,4.912562,0.0,211.7,0,0.0,-1,0.0,0.0,0,0.0,0.234
14063,1561296727580,4,2.2,2.03,2.91,1.89,3.25,0.73,0.03,0.54,-1,2,1,0.73,6528,7,100,39,46,500,0.0,547,461,60,120.0,0,1,358,260,62,0,0,0,250,250,0,-5.59,,,,,,,,,,,,
14083,1561296727600,-0,2.21,2.02,2.91,1.88,3.25,0.66,0.11,0.42,-0,2,0,0.67,6567,4,100,39,46,500,0.0,552,459,60,122.0,0,1,358,260,64,0,0,0,250,250,0,414.87,,,,,,,,,,,,
14103,1561296727620,0,2.21,2.03,2.91,1.88,3.25,0.68,0.06,0.43,-0,3,-1,0.69,6618,2,100,39,46,500,0.0,557,461,60,121.0,0,1,359,262,64,0,0,0,250,250,0,-5.59,,,,,,,,,,,,
14123,1561296727640,13,2.22,2.03,2.91,1.89,3.25,0.69,0.08,0.54,-0,2,-1,0.69,6665,3,100,39,46,500,0.0,565,462,60,120.0,0,1,359,260,64,0,0,0,250,250,0,414.87,,,,,,,,,,,,
14143,1561296727660,1,2.21,2.02,2.91,1.89,3.25,0.68,0.02,0.52,-0,3,-1,0.68,6691,3,100,39,45,500,0.0,574,457,60,122.0,0,1,352,258,64,0,0,0,250,250,0,-5.59,45.708328,4.912562,0.0,211.7,0,0.0,-1,0.0,0.0,0,0.0,0.2357
14163,1561296727680,-0,2.21,2.03,2.91,1.88,3.25,0.78,0.05,0.63,0,-2,0,0.78,6791,2,100,39,45,500,0.0,581,461,60,121.0,0,1,352,256,66,0,0,0,250,250,0,181.28,,,,,,,,,,,,
14183,1561296727700,0,2.22,2.02,2.9,1.88,3.24,0.66,0.02,0.51,-0,2,1,0.66,6840,6,100,39,45,500,0.0,582,458,60,121.0,0,1,353,255,66,0,0,0,250,250,0,-5.59,,,,,,,,,,,,
14203,1561296727720,-1,2.22,2.02,2.91,1.89,3.24,0.78,0.04,0.6,0,-2,2,0.78,6850,5,100,39,44,500,0.0,590,458,60,122.0,0,1,346,254,66,0,0,0,250,250,0,414.87,,,,,,,,,,,,
14223,1561296727740,3,2.21,2.03,2.91,1.89,3.25,0.75,0.05,0.57,-0,1,1,0.75,6900,7,100,39,43,500,0.0,595,461,60,121.0,0,1,339,252,66,0,0,0,250,250,0,-5.59,,,,,,,,,,,,
14243,1561296727760,1,2.21,2.02,2.91,1.88,3.25,0.65,0.03,0.46,0,1,0,0.65,6944,6,100,39,43,500,0.0,587,461,60,122.0,0,1,339,251,66,0,0,0,250,250,0,181.28,45.708328,4.912562,0.0,211.7,0,0.0,-1,0.0,0.0,0,0.0,0.2374
14263,1561296727780,2,2.21,2.02,2.91,1.88,3.25,0.78,0.08,0.61,0,-1,-0,0.79,6954,3,100,39,42,500,0.0,592,457,60,121.0,0,1,332,249,65,0,0,0,250,250,0,414.87,,,,,,,,,,,,
14283,1561296727800,1,2.22,2.02,2.9,1.88,3.25,0.74,-0.0,0.57,0,1,-1,0.74,6970,6,100,39,42,500,0.0,587,462,60,121.0,0,1,332,249,65,0,0,0,250,250,0,-5.59,,,,,,,,,,,,
14303,1561296727820,0,2.2,2.02,2.91,1.89,3.25,0.57,0.04,0.51,-0,1,-1,0.57,7014,0,100,39,41,500,0.0,588,458,60,122.0,0,1,325,247,65,0,0,0,250,250,0,181.28,,,,,,,,,,,,
14323,1561296727840,0,2.21,2.03,2.91,1.89,3.25,0.72,0.03,0.66,0,-2,0,0.72,7022,5,100,39,41,500,0.0,597,457,60,121.0,0,1,325,247,65,0,0,0,250,250,0,414.87,,,,,,,,,,,,
14343,1561296727860,2,2.21,2.02,2.91,1.88,3.25,0.58,-0.01,0.58,-0,2,0,0.58,7022,8,100,39,41,500,0.0,596,459,60,121.0,0,1,325,247,65,0,0,0,250,250,0,-5.59,45.708328,4.912562,0.0,211.7,0,0.0,-1,0.0,0.0,0,0.0,0.239
14363,1561296727880,-0,2.22,2.02,2.91,1.88,3.25,0.5,-0.0,0.5,0,1,-1,0.5,7033,6,100,39,40,500,0.0,595,458,60,122.0,0,1,317,245,65,0,0,0,250,250,0,414.87,,,,,,,,,,,,
14383,1561296727900,0,2.21,2.02,2.91,1.88,3.25,0.65,0.07,0.64,0,-1,-0,0.65,7030,7,100,39,40,500,0.0,605,459,60,122.0,0,1,317,245,65,0,0,0,250,250,0,414.87,,,,,,,,,,,,
14403,1561296727920,4,2.21,2.03,2.91,1.89,3.25,0.75,0.0,0.64,0,-2,-0,0.75,7009,4,100,39,40,500,0.0,602,458,60,121.0,0,1,317,245,65,0,0,0,250,250,0,-5.59,,,,,,,,,,,,
14423,1561296727940,0,2.22,2.02,2.92,1.88,3.26,0.5,0.01,0.49,-0,1,0,0.5,7027,4,100,39,39,500,0.0,601,460,60,122.0,0,1,310,243,65,0,0,0,250,250,0,181.28,,,,,,,,,,,,
14443,1561296727960,-1,2.22,2.02,2.91,1.88,3.25,0.66,0.05,0.58,0,-3,1,0.66,7004,4,100,39,39,500,0.0,599,458,60,120.0,0,1,310,243,65,0,0,0,250,250,0,-5.59,45.708328,4.912562,0.0,211.7,0,0.0,-1,0.0,0.0,0,0.0,0.2407
14463,1561296727980,4,2.21,2.02,2.91,1.88,3.25,0.66,0.03,0.57,-0,-0,1,0.66,7019,7,100,39,39,500,0.0,606,461,60,120.0,0,1,310,243,65,0,0,0,250,250,0,-5.59,,,,,,,,,,,,
14483,1561296728000,1,2.21,2.02,2.91,1.88,3.25,0.5,0.01,0.42,0,1,-0,0.5,6980,6,100,38,39,500,0.0,600,457,60,122.0,0,1,310,243,64,0,0,0,250,250,0,181.28,,,,,,,,,,,,
14503,1561296728020,-1,2.22,2.02,2.91,1.88,3.25,0.62,0.06,0.57,-0,-1,-1,0.63,6947,4,100,38,39,500,0.0,601,460,60,122.0,0,1,310,243,64,0,0,0,250,250,0,414.87,,,,,,,,,,,,
14523,1561296728040,3,2.21,2.03,2.91,1.89,3.25,0.73,-0.02,0.58,0,-2,-1,0.73,6918,6,99,38,39,500,0.0,588,459,60,121.0,0,1,310,245,64,0,0,0,250,250,0,-5.59,,,,,,,,,,,,
14543,1561296728060,-2,2.22,2.03,2.91,1.89,3.25,0.52,0.01,0.48,-0,-0,-0,0.52,6931,2,99,38,39,500,0.0,598,459,60,122.0,0,1,310,245,64,0,0,0,250,250,0,181.28,45.708328,4.912562,0.0,211.7,0,0.0,-1,0.0,0.0,0,0.0,0.2424
14563,1561296728080,3,2.22,2.03,2.91,1.88,3.25,0.67,0.02,0.59,0,-3,1,0.67,6855,4,99,38,39,500,0.0,591,458,60,121.0,0,1,310,245,64,0,0,0,250,250,0,181.28,,,,,,,,,,,,
14583,1561296728100,-0,2.21,2.03,2.91,1.88,3.26,0.42,0.0,0.51,-0,1,1,0.42,6828,7,99,38,39,500,0.0,582,461,60,122.0,0,1,310,245,63,0,0,0,250,250,0,181.28,,,,,,,,,,,,
14603,1561296728120,5,2.21,2.02,2.91,1.88,3.26,0.58,0.04,0.58,0,-2,1,0.58,6823,6,99,38,39,500,0.0,581,457,60,122.0,0,1,310,245,63,0,0,0,250,250,0,414.87,,,,,,,,,,,,
14623,1561296728140,0,2.22,2.02,2.91,1.88,3.26,0.47,0.02,0.45,0,-0,0,0.47,6828,7,99,38,39,500,0.0,578,461,60,122.0,0,1,310,245,63,0,0,0,250,250,0,181.28,,,,,,,,,,,,
14643,1561296728160,-1,2.22,2.02,2.91,1.89,3.25,0.54,0.08,0.59,0,-2,-1,0.54,6742,3,99,38,39,500,0.0,578,460,60,120.0,0,1,310,245,63,0,0,0,250,250,0,414.87,45.708328,4.912562,0.0,211.7,0,0.0,-1,0.0,0.0,0,0.0,0.244
14663,1561296728180,2,2.21,2.03,2.91,1.89,3.25,0.6,0.01,0.54,0,-0,-1,0.6,6720,2,99,38,39,500,0.0,576,456,60,122.0,0,1,310,245,63,0,0,0,250,250,0,181.28,,,,,,,,,,,,
14683,1561296728200,-0,2.22,2.03,2.91,1.88,3.25,0.65,0.02,0.58,0,-4,-0,0.65,6742,2,99,38,40,500,0.0,574,460,60,122.0,0,1,317,245,62,0,0,0,250,250,0,414.87,,,,,,,,,,,,
14703,1561296728220,2,2.22,2.02,2.91,1.89,3.25,0.56,-0.0,0.47,-0,-0,0,0.56,6722,5,99,38,40,500,0.0,569,459,60,122.0,0,1,317,245,62,0,0,0,250,250,0,181.28,,,,,,,,,,,,
14723,1561296728240,4,2.21,2.03,2.91,1.89,3.25,0.71,0.01,0.61,0,-5,1,0.71,6696,6,99,38,40,500,0.0,576,458,60,121.0,0,1,317,245,62,0,0,0,250,250,0,414.87,,,,,,,,,,,,
14743,1561296728260,-0,2.21,2.02,2.91,1.88,3.25,0.51,0.01,0.52,-0,-1,1,0.51,6696,6,99,38,40,500,0.0,578,461,60,122.0,0,1,317,245,62,0,0,0,250,250,0,181.28,45.708328,4.912562,0.0,211.7,0,0.0,-1,0.0,0.0,0,0.0,0.2457
14763,1561296728280,3,2.22,2.02,2.91,1.88,3.26,0.66,0.01,0.66,0,-3,-0,0.66,6718,7,99,38,40,500,0.0,588,460,60,121.0,0,1,317,247,63,0,0,0,250,250,0,181.28,,,,,,,,,,,,
14783,1561296728300,0,2.22,2.02,2.91,1.88,3.25,0.55,0.02,0.47,0,0,-1,0.55,6694,6,99,38,41,500,0.0,574,460,60,122.0,0,1,324,245,63,0,0,0,250,250,0,181.28,,,,,,,,,,,,
14803,1561296728320,2,2.22,2.02,2.91,1.88,3.25,0.68,0.01,0.62,-0,-1,-1,0.68,6672,1,99,38,41,500,0.0,580,463,60,120.0,0,1,324,247,63,0,0,0,250,250,0,-5.59,,,,,,,,,,,,
14823,1561296728340,-0,2.21,2.02,2.91,1.89,3.25,0.51,0.01,0.52,-0,2,-2,0.51,6679,3,99,38,41,500,0.0,576,457,60,122.0,0,1,324,247,63,0,0,0,250,250,0,181.28,,,,,,,,,,,,
14843,1561296728360,2,2.22,2.02,2.91,1.89,3.25,0.66,-0.03,0.63,0,-2,-1,0.66,6698,0,99,38,41,500,0.0,571,459,60,122.0,0,1,324,247,63,0,0,0,250,250,0,-5.59,45.708328,4.912562,0.0,211.7,0,0.0,-1,0.0,0.0,0,0.0,0.2474
14863,1561296728380,-2,2.22,2.02,2.91,1.88,3.25,0.45,-0.01,0.51,-0,-0,-0,0.45,6684,4,98,38,41,500,0.0,570,459,60,122.0,0,1,324,247,62,0,0,0,250,250,0,181.28,,,,,,,,,,,,
14883,1561296728400,3,2.21,2.02,2.91,1.89,3.25,0.61,-0.04,0.5,-0,-1,1,0.61,6696,6,98,38,41,500,0.0,571,458,60,121.0,0,1,324,247,62,0,0,0,250,250,0,-5.59,,,,,,,,,,,,
14903,1561296728420,-1,2.21,2.03,2.91,1.89,3.25,0.59,-0.0,0.57,0,-2,2,0.59,6682,5,98,38,41,500,0.0,574,459,60,122.0,0,1,324,247,62,0,0,0,250,250,0,414.87,,,,,,,,,,,,
14923,1561296728440,2,2.21,2.03,2.91,1.89,3.26,0.58,-0.02,0.52,-0,0,1,0.58,6651,8,98,38,41,500,0.0,577,462,60,121.0,0,1,324,247,62,0,0,0,250,250,0,-5.59,,,,,,,,,,,,
14943,1561296728460,-1,2.21,2.02,2.91,1.88,3.25,0.68,0.0,0.62,0,-1,0,0.68,6706,4,98,38,41,500,0.0,570,460,60,120.0,0,1,324,247,62,0,0,0,250,250,0,-5.59,45.708328,4.912562,0.0,211.7,0,0.0,-1,0.0,0.0,0,0.0,0.249
14963,1561296728480,2,2.21,2.02,2.91,1.88,3.25,0.61,-0.0,0.5,-0,1,-1,0.61,6710,5,98,38,41,500,0.0,573,461,60,121.0,0,1,324,247,62,0,0,0,250,250,0,-5.59,,,,,,,,,,,,
14983,1561296728500,4,2.22,2.02,2.92,1.88,3.25,0.67,0.02,0.62,-0,-0,-1,0.67,6684,3,98,38,41,500,0.0,573,458,60,121.0,0,1,324,247,62,0,0,0,250,250,0,414.87,,,,,,,,,,,,
15003,1561296728520,1,2.21,2.02,2.91,1.88,3.25,0.58,-0.03,0.53,-0,2,-1,0.58,6684,3,98,38,41,500,0.0,577,456,60,122.0,0,1,324,247,62,0,0,0,250,250,0,181.28,,,,,,,,,,,,
15023,1561296728540,5,2.21,2.02,2.91,1.88,3.25,0.72,-0.03,0.66,0,-3,-1,0.72,6734,2,98,38,42,500,0.0,575,462,60,121.0,0,1,331,247,62,0,0,0,250,250,0,414.87,,,,,,,,,,,,
15043,1561296728560,1,2.22,2.02,2.91,1.88,3.25,0.5,-0.03,0.48,-0,1,0,0.5,6720,4,98,38,41,500,0.0,585,458,60,123.0,0,1,324,247,62,0,0,0,250,250,0,181.28,45.708328,4.912562,0.0,211.7,0,0.0,-1,0.0,0.0,0,0.0,0.2507
15063,1561296728580,3,2.22,2.02,2.91,1.89,3.25,0.66,-0.02,0.63,0,-3,1,0.66,6747,6,98,38,41,500,0.0,584,457,60,121.0,0,1,324,247,63,0,0,0,250,250,0,181.28,,,,,,,,,,,,
15083,1561296728600,1,2.22,2.02,2.92,1.89,3.25,0.43,-0.01,0.55,-0,0,1,0.43,6764,7,98,38,41,500,0.0,586,460,60,122.0,0,1,324,247,63,0,0,0,250,250,0,181.28,,,,,,,,,,,,
15103,1561296728620,3,2.22,2.02,2.91,1.88,3.25,0.59,0.01,0.69,0,-2,0,0.59,6795,4,97,38,41,500,0.0,588,461,60,121.0,0,1,324,247,63,0,0,0,250,250,0,414.87,,,,,,,,,,,,
15123,1561296728640,0,2.22,2.03,2.91,1.89,3.25,0.45,-0.01,0.54,-0,1,-1,0.45,6825,4,97,38,41,500,0.0,587,458,60,122.0,0,1,324,247,63,0,0,0,250,250,0,181.28,,,,,,,,,,,,
15143,1561296728660,-0,2.21,2.02,2.92,1.88,3.25,0.6,0.02,0.68,-0,-1,-1,0.6,6800,0,97,38,41,500,0.0,589,459,60,122.0,0,1,324,247,63,0,0,0,250,250,0,414.87,45.708328,4.912562,0.0,211.7,0,0.0,-1,0.0,0.0,0,0.0,0.2524
15163,1561296728680,0,2.22,2.02,2.91,1.88,3.25,0.55,-0.05,0.6,-0,1,-2,0.55,6815,0,97,38,41,500,0.0,579,459,60,121.0,0,1,324,247,63,0,0,0,250,250,0,-5.59,,,,,,,,,,,,
15183,1561296728700,0,2.21,2.03,2.91,1.88,3.25,0.57,-0.01,0.65,-0,-1,-1,0.57,6855,0,97,38,40,500,0.0,581,460,60,122.0,0,1,317,247,63,0,0,0,250,250,0,414.87,,,,,,,,,,,,
15203,1561296728720,3,2.22,2.03,2.91,1.89,3.25,0.65,-0.04,0.59,0,0,1,0.65,6853,3,97,38,40,500,0.0,581,459,60,121.0,0,1,317,245,63,0,0,0,250,250,0,-5.59,,,,,,,,,,,,
15223,1561296728740,-2,2.22,2.02,2.91,1.88,3.25,0.57,-0.03,0.61,-0,-1,1,0.57,6848,3,96,38,40,500,0.0,587,458,60,122.0,0,1,317,245,63,0,0,0,250,250,0,414.87,,,,,,,,,,,,
15243,1561296728760,5,2.22,2.02,2.91,1.89,3.25,0.72,-0.02,0.63,-0,-1,1,0.72,6885,4,96,38,40,500,0.0,581,460,60,121.0,0,1,317,245,63,0,0,0,250,250,0,-5.59,45.708328,4.912562,0.0,211.7,0,0.0,-1,0.0,0.0,0,0.0,0.254
15263,1561296728780,-1,2.22,2.02,2.91,1.89,3.25,0.58,-0.05,0.49,-0,1,0,0.58,6860,5,96,38,40,500,0.0,588,460,60,122.0,0,1,317,245,63,0,0,0,250,250,0,414.87,,,,,,,,,,,,
15283,1561296728800,5,2.22,2.03,2.91,1.89,3.25,0.72,0.01,0.63,-0,-1,-0,0.73,6813,3,96,38,40,500,0.0,588,460,60,121.0,0,1,317,245,63,0,0,0,250,250,0,414.87,,,,,,,,,,,,
15303,1561296728820,2,2.21,2.02,2.91,1.89,3.25,0.63,-0.05,0.55,-0,1,-1,0.63,6835,3,96,38,40,500,0.0,587,457,60,122.0,0,1,317,245,63,0,0,0,250,250,0,181.28,,,,,,,,,,,,
15323,1561296728840,-1,2.22,2.03,2.91,1.89,3.25,0.72,-0.02,0.63,-0,-2,-0,0.72,6830,0,96,38,40,500,0.0,587,461,60,122.0,0,1,317,245,63,0,0,0,250,250,0,414.87,,,,,,,,,,,,
15343,1561296728860,2,2.22,2.03,2.91,1.89,3.25,0.68,-0.03,0.52,-0,1,0,0.68,6848,5,96,38,40,500,0.0,591,460,60,122.0,0,1,317,245,63,0,0,0,250,250,0,181.28,45.708328,4.912562,0.0,211.7,0,0.0,-1,0.0,0.0,0,0.0,0.2557
15363,1561296728880,1,2.21,2.02,2.91,1.89,3.25,0.72,-0.01,0.61,0,-2,1,0.72,6793,6,96,38,40,500,0.0,598,458,60,122.0,0,1,317,245,63,0,0,0,250,250,0,414.87,,,,,,,,,,,,
15383,1561296728900,3,2.21,2.03,2.91,1.89,3.25,0.72,-0.0,0.59,-0,-0,0,0.72,6798,5,95,38,40,500,0.0,592,461,60,122.0,0,1,317,245,63,0,0,0,250,250,0,-5.59,,,,,,,,,,,,
15403,1561296728920,0,2.21,2.02,2.91,1.88,3.25,0.67,0.01,0.56,0,-0,-1,0.67,6805,3,95,38,40,500,0.0,590,457,60,123.0,0,1,317,245,63,0,0,0,250,250,0,181.28,,,,,,,,,,,,
15423,1561296728940,2,2.22,2.02,2.91,1.88,3.25,0.77,0.02,0.62,-0,-1,-1,0.77,6773,1,95,38,40,500,0.0,588,460,60,121.0,0,1,317,243,63,0,0,0,250,250,0,-5.59,,,,,,,,,,,,
15443,1561296728960,-2,2.21,2.02,2.91,1.88,3.25,0.58,0.02,0.59,-0,2,-1,0.59,6732,3,95,38,40,500,0.0,582,461,60,122.0,0,1,317,243,63,0,0,0,250,250,0,181.28,45.708328,4.912562,0.0,211.7,0,0.0,-1,0.0,0.0,0,0.0,0.2574
15463,1561296728980,4,2.21,2.03,2.91,1.88,3.24,0.73,-0.01,0.65,0,-2,-0,0.73,6783,1,95,38,40,500,0.0,578,460,60,120.0,0,1,317,243,62,0,0,0,250,250,0,-5.59,,,,,,,,,,,,
15483,1561296729000,-0,2.21,2.03,2.91,1.89,3.24,0.5,0.01,0.51,-0,1,0,0.5,6766,3,94,38,40,500,0.0,578,459,60,122.0,0,1,317,242,62,0,0,0,250,250,0,181.28,,,,,,,,,,,,
15503,1561296729020,4,2.22,2.02,2.91,1.88,3.25,0.65,-0.0,0.59,0,-2,1,0.65,6710,5,94,38,40,500,0.0,580,460,60,122.0,0,1,317,242,62,0,0,0,250,250,0,-5.59,,,,,,,,,,,,
15523,1561296729040,-2,2.22,2.02,2.91,1.89,3.25,0.52,0.03,0.56,0,-1,1,0.52,6710,5,94,38,40,500,0.0,581,459,60,122.0,0,1,317,241,62,0,0,0,250,250,0,181.28,,,,,,,,,,,,
15543,1561296729060,3,2.22,2.03,2.91,1.89,3.25,0.64,0.02,0.59,-0,-1,1,0.64,6722,7,94,38,40,500,0.0,578,461,60,121.0,0,1,317,241,62,0,0,0,250,250,0,-5.59,45.708328,4.912562,0.0,211.7,0,0.0,-1,0.0,0.0,0,0.0,0.259
15563,1561296729080,-2,2.22,2.02,2.91,1.88,3.25,0.59,0.04,0.54,0,0,-0,0.6,6710,6,94,38,40,500,0.0,576,458,60,123.0,0,1,317,240,61,0,0,0,250,250,0,181.28,,,,,,,,,,,,
15583,1561296729100,3,2.21,2.02,2.91,1.89,3.25,0.66,0.04,0.56,0,0,-1,0.66,6694,6,94,38,40,501,0.0,571,460,60,121.0,0,1,317,240,61,0,0,0,250,250,0,-5.59,,,,,,,,,,,,
15603,1561296729120,1,2.21,2.03,2.92,1.89,3.26,0.6,0.06,0.62,-0,1,-1,0.6,6696,3,94,38,40,501,0.0,575,462,60,121.0,0,1,317,238,61,0,0,0,250,250,0,181.28,,,,,,,,,,,,
15623,1561296729140,0,2.22,2.02,2.91,1.88,3.25,0.69,-0.0,0.64,0,0,-1,0.69,6691,0,93,38,41,501,0.0,575,458,60,121.0,0,1,324,241,61,0,0,0,250,250,0,-5.59,,,,,,,,,,,,
15643,1561296729160,-1,2.21,2.02,2.92,1.88,3.25,0.7,0.02,0.67,0,-3,-1,0.7,6742,2,93,38,41,501,0.0,581,460,60,122.0,0,1,324,241,61,0,0,0,250,250,0,414.87,45.708328,4.912562,0.0,211.7,0,0.0,-1,0.0,0.0,0,0.0,0.2607
15663,1561296729180,2,2.21,2.02,2.91,1.89,3.25,0.65,0.02,0.54,0,0,0,0.65,6761,4,93,38,41,500,0.0,592,458,60,121.0,0,1,324,241,61,0,0,0,250,250,0,-5.59,,,,,,,,,,,,
15683,1561296729200,-2,2.22,2.02,2.92,1.89,3.26,0.79,0.02,0.67,0,-3,1,0.79,6764,5,93,38,41,500,0.0,587,461,60,122.0,0,1,324,241,61,0,0,0,250,250,0,414.87,,,,,,,,,,,,
15703,1561296729220,2,2.21,2.03,2.91,1.88,3.25,0.68,0.03,0.61,-0,0,0,0.68,6778,7,92,38,41,500,0.0,590,460,60,121.0,0,1,324,241,61,0,0,0,250,250,0,-5.59,,,,,,,,,,,,
15723,1561296729240,0,2.21,2.02,2.92,1.88,3.25,0.73,0.05,0.68,0,-0,-0,0.73,6803,4,92,38,40,500,0.0,587,459,60,122.0,0,1,317,238,61,0,0,0,250,250,0,414.87,,,,,,,,,,,,
15743,1561296729260,3,2.21,2.03,2.91,1.89,3.25,0.74,0.06,0.6,0,-0,-1,0.74,6813,5,92,38,41,500,0.0,586,459,60,122.0,0,1,324,241,61,0,0,0,250,250,0,181.28,45.708328,4.912562,0.0,211.7,0,0.0,-1,0.0,0.0,0,0.0,0.2624
15763,1561296729280,-0,2.22,2.02,2.92,1.89,3.25,0.66,0.07,0.65,0,1,-1,0.66,6805,3,92,38,40,500,0.0,586,459,60,123.0,0,1,317,238,61,0,0,0,250,250,0,181.28,,,,,,,,,,,,
15783,1561296729300,3,2.22,2.02,2.92,1.88,3.25,0.79,0.03,0.67,0,-2,-1,0.79,6815,2,92,38,40,500,0.0,580,458,60,121.0,0,1,317,241,61,0,0,0,250,250,0,-5.59,,,,,,,,,,,,
15803,1561296729320,-3,2.22,2.02,2.91,1.89,3.25,0.58,0.03,0.57,0,0,-0,0.58,6838,2,92,38,40,500,0.0,581,461,60,122.0,0,1,317,238,61,0,0,0,250,250,0,181.28,,,,,,,,,,,,
15823,1561296729340,4,2.22,2.02,2.92,1.89,3.26,0.72,0.03,0.63,1,-3,1,0.72,6830,5,91,38,40,500,0.0,586,457,60,121.0,0,1,317,238,61,0,0,0,250,250,0,-5.59,,,,,,,,,,,,
15843,1561296729360,1,2.21,2.03,2.91,1.89,3.25,0.47,0.02,0.57,-0,0,1,0.47,6823,6,91,38,40,500,0.0,587,460,60,122.0,0,1,317,238,61,0,0,0,250,250,0,181.28,45.708328,4.912562,0.0,211.7,0,0.0,-1,0.0,0.0,0,0.0,0.264
15863,1561296729380,3,2.21,2.02,2.92,1.89,3.24,0.63,0.05,0.68,0,-3,1,0.63,6858,6,91,38,40,500,0.0,584,460,60,122.0,0,1,317,238,61,0,0,0,250,250,0,414.87,,,,,,,,,,,,
15883,1561296729400,1,2.22,2.02,2.91,1.89,3.26,0.46,0.03,0.52,0,-0,0,0.46,6863,6,91,38,40,500,0.0,589,460,60,122.0,0,1,317,238,61,0,0,0,250,250,0,-5.59,,,,,,,,,,,,
15903,1561296729420,0,2.21,2.03,2.91,1.89,3.25,0.58,0.06,0.66,0,-0,-1,0.58,6805,0,91,38,40,500,0.0,590,460,60,122.0,0,1,317,238,61,0,0,0,250,250,0,414.87,,,,,,,,,,,,
15923,1561296729440,3,2.21,2.03,2.92,1.89,3.25,0.61,-0.0,0.62,0,-1,-1,0.61,6791,0,90,38,40,500,0.0,586,458,60,122.0,0,1,317,238,61,0,0,0,250,250,0,-5.59,,,,,,,,,,,,
15943,1561296729460,0,2.21,2.03,2.92,1.89,3.25,0.59,0.03,0.64,0,-1,-1,0.59,6843,2,90,38,40,500,0.0,591,460,60,123.0,0,1,317,238,61,0,0,0,250,250,0,181.28,45.708328,4.912562,0.0,211.7,0,0.0,-1,0.0,0.0,0,0.0,0.2657
15963,1561296729480,4,2.21,2.03,2.91,1.89,3.25,0.7,0.01,0.58,0,-2,0,0.7,6795,5,90,38,40,500,0.0,587,458,60,121.0,0,1,317,238,61,0,0,0,250,250,0,-5.59,,,,,,,,,,,,
15983,1561296729500,0,2.22,2.02,2.92,1.88,3.25,0.62,0.02,0.63,0,-1,1,0.62,6815,5,90,38,40,500,0.0,592,458,60,122.0,0,1,317,238,61,0,0,0,250,250,0,414.87,,,,,,,,,,,,
16003,1561296729520,4,2.22,2.02,2.92,1.88,3.25,0.73,0.02,0.64,0,-2,0,0.73,6803,7,90,38,40,500,0.0,592,461,60,122.0,0,1,317,238,61,0,0,0,250,250,0,-5.59,,,,,,,,,,,,
16023,1561296729540,-1,2.22,2.02,2.91,1.88,3.25,0.62,0.0,0.52,0,0,-1,0.62,6828,6,90,38,40,500,0.0,586,459,60,122.0,0,1,317,238,61,0,0,0,250,250,0,181.28,,,,,,,,,,,,
16043,1561296729560,4,2.22,2.02,2.91,1.88,3.25,0.76,0.04,0.65,0,-2,-0,0.76,6803,1,89,38,40,500,0.0,586,460,60,121.0,0,1,317,238,61,0,0,0,250,250,0,181.28,45.708328,4.912562,0.0,211.7,0,0.0,-1,0.0,0.0,0,0.0,0.2674
16063,1561296729580,0,2.22,2.03,2.91,1.89,3.25,0.57,0.0,0.57,-0,1,-1,0.57,6803,0,89,38,40,500,0.0,590,459,60,122.0,0,1,317,238,61,0,0,0,250,250,0,-5.59,,,,,,,,,,,,
16083,1561296729600,4,2.21,2.03,2.91,1.89,3.25,0.72,0.01,0.71,0,-4,-1,0.72,6810,0,89,38,40,500,0.0,581,461,60,121.0,0,1,317,238,61,0,0,0,250,250,0,414.87,,,,,,,,,,,,
16103,1561296729620,1,2.21,2.02,2.91,1.88,3.25,0.5,-0.0,0.52,-0,1,0,0.5,6833,5,89,38,40,500,0.0,585,460,60,122.0,0,1,317,238,61,0,0,0,250,250,0,-5.59,,,,,,,,,,,,
16123,1561296729640,0,2.21,2.02,2.92,1.88,3.25,0.65,0.03,0.65,0,-4,1,0.65,6815,6,89,38,39,500,0.0,587,458,60,122.0,0,1,310,237,61,0,0,0,250,250,0,414.87,,,,,,,,,,,,
16143,1561296729660,1,2.21,2.02,2.9,1.87,3.24,0.49,0.02,0.57,-0,-1,1,0.49,6843,8,89,38,40,500,0.0,585,462,60,121.0,0,1,317,237,61,0,0,0,250,250,0,-5.59,45.708328,4.912562,0.0,211.7,0,0.0,-1,0.0,0.0,0,0.0,0.269
16163,1561296729680,-0,2.21,2.03,2.92,1.89,3.25,0.58,0.05,0.63,0,-1,-0,0.58,6838,6,89,38,40,500,0.0,582,460,60,122.0,0,1,317,237,61,0,0,0,250,250,0,181.28,,,,,,,,,,,,
16183,1561296729700,4,2.22,2.03,2.91,1.89,3.25,0.63,0.07,0.59,0,-1,-1,0.63,6835,0,88,38,40,500,0.0,593,461,60,121.0,0,1,317,237,61,0,0,0,250,250,0,-5.59,,,,,,,,,,,,
16203,1561296729720,-2,2.22,2.02,2.91,1.89,3.25,0.48,0.07,0.58,0,2,-2,0.49,6833,3,88,38,40,500,0.0,591,457,60,122.0,0,1,317,237,61,0,0,0,250,250,0,181.28,,,,,,,,,,,,
16223,1561296729740,5,2.21,2.02,2.91,1.89,3.25,0.64,0.04,0.67,0,-3,-1,0.64,6843,0,88,38,40,500,0.0,588,461,60,122.0,0,1,317,236,61,0,0,0,250,250,0,-5.59,,,,,,,,,,,,
16243,1561296729760,1,2.21,2.02,2.92,1.88,3.24,0.38,0.03,0.5,-0,2,-0,0.38,6838,2,88,38,39,500,0.0,592,458,60,123.0,0,1,310,234,61,0,0,0,250,250,0,-5.59,45.708328,4.912562,0.0,211.7,0,0.0,-1,0.0,0.0,0,0.0,0.2707
16263,1561296729780,-4,2.2,2.02,2.92,1.89,3.25,0.54,0.04,0.64,0,-3,1,0.54,6823,4,88,38,39,500,0.0,605,457,60,122.0,0,1,310,236,61,0,0,0,250,250,0,414.87,,,,,,,,,,,,
16283,1561296729800,2,2.22,2.02,2.92,1.88,3.25,0.34,0.02,0.56,-0,0,1,0.34,6823,6,88,38,39,500,0.0,598,459,60,122.0,0,1,310,234,61,0,0,0,250,250,0,181.28,,,,,,,,,,,,
16303,1561296729820,-0,2.21,2.02,2.91,1.88,3.25,0.5,0.06,0.64,0,-1,0,0.51,6868,4,88,38,39,500,0.0,594,460,60,122.0,0,1,310,233,61,0,0,0,250,250,0,414.87,,,,,,,,,,,,
16323,1561296729840,3,2.2,2.02,2.92,1.89,3.25,0.47,0.06,0.55,0,-1,-0,0.47,6870,4,87,38,40,500,0.0,586,460,60,122.0,0,1,317,233,61,0,0,0,250,250,0,-5.59,,,,,,,,,,,,
16343,1561296729860,0,2.21,2.02,2.92,1.88,3.25,0.4,0.08,0.63,-0,1,-1,0.41,6848,2,87,38,39,500,0.0,590,460,60,122.0,0,1,310,233,61,0,0,0,250,250,0,181.28,45.708328,4.912562,0.0,211.7,0,0.0,-1,0.0,0.0,0,0.0,0.2724
16363,1561296729880,3,2.23,2.02,2.91,1.88,3.26,0.56,0.04,0.7,0,-3,-1,0.57,6845,1,87,38,39,500,0.0,582,461,60,120.0,0,1,310,234,60,0,0,0,250,250,0,-5.59,,,,,,,,,,,,
16383,1561296729900,-0,2.23,2.02,2.92,1.88,3.25,0.35,0.04,0.57,-0,1,-0,0.35,6865,1,87,38,39,500,0.0,583,460,60,122.0,0,1,310,233,60,0,0,0,250,250,0,181.28,,,,,,,,,,,,
16403,1561296729920,5,2.22,2.03,2.92,1.89,3.26,0.52,0.04,0.67,0,-3,1,0.52,6835,5,87,38,39,500,0.0,586,458,60,121.0,0,1,310,232,60,0,0,0,250,250,0,414.87,,,,,,,,,,,,
16423,1561296729940,1,2.23,2.03,2.91,1.89,3.25,0.3,0.03,0.59,-0,0,0,0.3,6830,5,87,38,39,500,0.0,587,461,60,122.0,0,1,310,232,60,0,0,0,250,250,0,-5.59,,,,,,,,,,,,
16443,1561296729960,1,2.22,2.02,2.92,1.89,3.25,0.47,0.06,0.69,0,-2,-0,0.48,6860,4,86,38,39,500,0.0,587,460,60,122.0,0,1,310,232,60,0,0,0,250,250,0,414.87,45.708328,4.912562,0.0,211.7,0,0.0,-1,0.0,0.0,0,0.0,0.274
16463,1561296729980,3,2.23,2.02,2.92,1.88,3.25,0.41,0.04,0.6,0,-0,-1,0.42,6840,5,86,38,39,500,0.0,588,461,60,121.0,0,1,310,232,60,0,0,0,250,250,0,-5.59,,,,,,,,,,,,
16483,1561296730000,-0,2.22,2.03,2.91,1.89,3.25,0.44,0.06,0.67,0,1,-2,0.44,6835,0,86,38,39,500,0.0,589,460,60,121.0,0,1,310,231,59,0,0,0,250,250,0,181.28,,,,,,,,,,,,
16503,1561296730020,3,2.23,2.03,2.92,1.88,3.26,0.59,0.01,0.69,0,-2,-1,0.59,6855,0,86,38,39,500,0.0,589,460,60,121.0,0,1,310,231,59,0,0,0,250,250,0,-5.59,,,,,,,,,,,,
16523,1561296730040,1,2.22,2.03,2.92,1.89,3.26,0.42,0.02,0.57,-0,1,-0,0.42,6880,2,86,38,39,500,0.0,590,458,60,122.0,0,1,310,229,59,0,0,0,250,250,0,181.28,,,,,,,,,,,,
16543,1561296730060,5,2.22,2.03,2.92,1.88,3.26,0.58,0.02,0.67,0,-3,1,0.58,6810,2,86,38,39,500,0.0,592,458,60,121.0,0,1,310,229,59,0,0,0,250,250,0,181.28,45.708328,4.912562,0.0,211.7,0,0.0,-1,0.0,0.0,0,0.0,0.2757
16563,1561296730080,1,2.23,2.02,2.92,1.88,3.25,0.39,0.0,0.61,-0,-0,1,0.39,6850,4,86,38,39,500,0.0,597,460,60,123.0,0,1,310,228,59,0,0,0,250,250,0,-5.59,,,,,,,,,,,,
16583,1561296730100,-1,2.22,2.03,2.92,1.88,3.26,0.55,0.05,0.69,0,-2,0,0.55,6873,4,85,38,39,500,0.0,589,461,60,122.0,0,1,310,228,59,0,0,0,250,250,0,181.28,,,,,,,,,,,,
16603,1561296730120,3,2.22,2.02,2.92,1.89,3.25,0.47,0.03,0.59,0,-0,-1,0.47,6900,6,85,38,39,500,0.0,595,461,60,122.0,0,1,310,227,59,0,0,0,250,250,0,-5.59,,,,,,,,,,,,
16623,1561296730140,0,2.22,2.03,2.92,1.88,3.25,0.48,0.04,0.69,0,1,-1,0.48,6863,0,85,38,39,500,0.0,599,458,60,123.0,0,1,310,227,59,0,0,0,250,250,0,181.28,,,,,,,,,,,,
16643,1561296730160,4,2.22,2.02,2.92,1.89,3.25,0.63,-0.01,0.69,0,-3,-1,0.63,6888,4,85,38,39,500,0.0,591,460,60,121.0,0,1,310,226,59,0,0,0,250,250,0,-5.59,45.708328,4.912562,0.0,211.7,0,0.0,-1,0.0,0.0,0,0.0,0.2774
16663,1561296730180,2,2.22,2.03,2.92,1.88,3.24,0.41,-0.01,0.54,-0,1,-1,0.41,6903,4,85,38,39,500,0.0,591,460,60,122.0,0,1,310,226,59,0,0,0,250,250,0,181.28,,,,,,,,,,,,
16683,1561296730200,1,2.22,2.03,2.92,1.88,3.26,0.57,-0.01,0.66,0,-3,0,0.57,6880,4,85,38,39,500,0.0,601,457,60,122.0,0,1,310,224,59,0,0,0,250,250,0,414.87,,,,,,,,,,,,
16703,1561296730220,2,2.21,2.02,2.91,1.88,3.25,0.41,-0.02,0.58,-0,0,-0,0.41,6873,8,84,38,39,500,0.0,587,461,60,123.0,0,1,310,224,59,0,0,0,250,250,0,-5.59,,,,,,,,,,,,
16723,1561296730240,-2,2.23,2.02,2.92,1.89,3.25,0.5,0.03,0.64,0,-0,-1,0.5,6898,4,84,38,39,500,0.0,588,460,60,124.0,0,1,310,224,59,0,0,0,250,250,0,414.87,,,,,,,,,,,,
16743,1561296730260,4,2.22,2.02,2.91,1.89,3.25,0.65,0.07,0.77,0,-2,-0,0.66,6913,6,84,38,39,500,0.0,590,461,60,124.0,0,1,310,223,59,0,0,0,250,250,0,-5.59,45.708328,4.912562,0.0,211.7,0,0.0,-1,0.0,0.0,0,0.0,0.279
16763,1561296730280,-1,2.23,2.02,2.92,1.88,3.26,0.51,0.06,0.74,0,1,-1,0.51,6880,3,84,38,39,500,0.0,586,457,60,124.0,0,1,310,223,58,0,0,0,250,250,0,181.28,,,,,,,,,,,,
16783,1561296730300,1,2.22,2.02,2.92,1.88,3.24,0.66,0.06,0.81,0,-3,-0,0.66,6921,0,84,38,39,500,0.0,590,461,60,123.0,0,1,310,222,58,0,0,0,250,250,0,414.87,,,,,,,,,,,,
16803,1561296730320,2,2.22,2.02,2.92,1.88,3.25,0.79,0.05,0.76,0,0,1,0.79,6926,4,84,38,39,500,0.0,592,459,60,124.0,0,1,310,222,58,0,0,0,250,250,0,-5.59,,,,,,,,,,,,
16823,1561296730340,-0,2.23,2.02,2.92,1.88,3.25,0.62,0.03,0.75,0,-2,1,0.62,6890,4,84,38,39,500,0.0,601,458,60,125.0,0,1,310,221,58,0,0,0,250,250,0,181.28,,,,,,,,,,,,
16843,1561296730360,5,2.22,2.03,2.91,1.89,3.25,0.76,0.07,0.83,0,-2,0,0.76,6913,6,83,38,39,500,0.0,601,460,60,124.0,0,1,310,221,58,0,0,0,250,250,0,-5.59,45.708328,4.912562,0.0,211.7,0,0.0,-1,0.0,0.0,0,0.0,0.2807
16863,1561296730380,2,2.22,2.02,2.92,1.88,3.26,0.64,0.04,0.71,0,-0,-0,0.64,6926,7,83,38,39,500,0.0,599,460,60,124.0,0,1,310,219,57,0,0,0,250,250,0,181.28,,,,,,,,,,,,
16883,1561296730400,0,2.22,2.03,2.92,1.88,3.24,0.61,0.06,0.8,0,-1,-1,0.62,6923,4,83,38,39,500,0.0,612,458,60,124.0,0,1,310,219,57,0,0,0,250,250,0,414.87,,,,,,,,,,,,
16903,1561296730420,3,2.22,2.02,2.91,1.89,3.25,0.75,0.02,0.82,0,-1,-1,0.75,6913,5,83,38,39,500,0.0,600,460,60,123.0,0,1,310,218,57,0,0,0,250,250,0,-5.59,,,,,,,,,,,,
16923,1561296730440,-1,2.23,2.02,2.92,1.89,3.24,0.51,0.01,0.65,-0,1,-1,0.51,6941,2,83,38,39,500,0.0,595,460,60,125.0,0,1,310,218,57,0,0,0,250,250,0,181.28,,,,,,,,,,,,
16943,1561296730460,5,2.22,2.02,2.91,1.88,3.25,0.66,0.03,0.74,0,-3,0,0.66,6931,4,83,38,39,500,0.0,592,458,60,123.0,0,1,310,217,57,0,0,0,250,250,0,181.28,45.708328,4.912562,0.0,211.7,0,0.0,-1,0.0,0.0,0,0.0,0.2824
16963,1561296730480,2,2.22,2.03,2.92,1.89,3.25,0.6,0.03,0.68,-0,1,0,0.6,6923,4,83,38,39,500,0.0,591,459,60,124.0,0,1,310,210,57,0,0,0,250,250,0,-5.59,,,,,,,,,,,,
16983,1561296730500,0,2.23,2.03,2.91,1.89,3.25,0.55,0.01,0.62,0,-1,-0,0.55,6972,5,83,38,38,500,0.0,586,461,60,125.0,0,1,307,210,57,0,0,0,250,250,0,414.87,,,,,,,,,,,,
17003,1561296730520,5,2.22,2.03,2.92,1.88,3.25,0.69,0.06,0.75,0,-2,-0,0.69,6934,7,82,38,39,500,0.0,594,461,60,123.0,0,1,310,216,57,0,0,0,250,250,0,-5.59,,,,,,,,,,,,
17023,1561296730540,-1,2.22,2.03,2.92,1.88,3.25,0.63,0.01,0.69,0,1,-1,0.63,6947,5,82,38,38,500,0.0,590,462,60,125.0,0,1,307,209,57,0,0,0,250,250,0,181.28,,,,,,,,,,,,
17043,1561296730560,-0,2.22,2.02,2.92,1.89,3.24,0.57,0.05,0.7,0,-3,-0,0.58,6805,3,82,38,38,501,0.0,595,461,60,125.0,0,1,307,208,57,0,0,0,250,250,0,181.28,45.708328,4.912562,0.0,211.7,0,0.0,-1,0.0,0.0,0,0.0,0.284
17063,1561296730580,-0,2.23,2.02,2.92,1.88,3.25,0.63,0.01,0.65,-0,1,0,0.63,6639,3,82,38,38,502,0.0,584,460,60,125.0,0,1,307,208,57,0,0,0,250,250,0,181.28,,,,,,,,,,,,
17083,1561296730600,0,2.22,2.03,2.92,1.89,3.25,0.77,0.0,0.78,0,-2,1,0.77,6403,7,82,38,39,503,0.0,567,458,60,126.0,0,1,310,213,52,0,0,0,250,250,0,181.28,,,,,,,,,,,,
17103,1561296730620,-0,2.22,2.02,2.92,1.88,3.25,0.72,0.09,0.76,1,-4,1,0.73,6231,8,82,38,40,504,0.0,553,460,60,126.0,0,1,316,214,52,0,0,0,250,250,0,-5.59,,,,,,,,,,,,
17123,1561296730640,4,2.22,2.03,2.92,1.88,3.25,0.67,0.17,0.63,1,-3,1,0.69,6054,8,82,38,40,505,0.0,534,460,60,124.0,0,1,316,332,52,0,0,0,250,250,0,181.28,,,,,,,,,,,,
17143,1561296730660,4,2.22,2.03,2.92,1.88,3.26,0.61,0.22,0.5,1,-3,1,0.65,5883,9,82,38,41,505,0.0,517,463,60,124.0,0,1,319,304,52,0,0,0,250,250,0,181.28,45.708328,4.912562,0.0,211.7,0,0.0,-1,0.0,0.0,0,0.0,0.2857
17163,1561296730680,4,2.22,2.03,2.92,1.89,3.25,0.54,0.26,0.37,2,-3,1,0.6,6000,8,81,38,42,504,0.0,519,462,60,124.0,0,1,328,281,64,0,0,0,250,250,0,414.87,,,,,,,,,,,,
17183,1561296730700,4,2.23,2.03,2.92,1.89,3.26,0.51,0.31,0.23,2,-2,1,0.6,6058,7,81,38,43,503,0.0,529,463,60,124.0,0,1,335,254,64,0,0,0,250,250,0,181.28,,,,,,,,,,,,
17203,1561296730720,5,2.22,2.03,2.92,1.88,3.25,0.48,0.36,0.14,2,-2,1,0.6,5967,7,81,38,43,502,0.0,523,461,60,124.0,0,1,333,226,64,0,0,0,250,250,0,414.87,,,,,,,,,,,,
17223,1561296730740,2,2.23,2.03,2.91,1.89,3.26,0.46,0.39,0.06,2,-2,1,0.6,5978,8,81,38,44,501,0.0,508,460,60,123.0,0,1,339,213,64,0,0,0,250,250,0,-5.59,,,,,,,,,,,,
17243,1561296730760,4,2.22,2.02,2.92,1.89,3.25,0.45,0.42,-0.01,3,-3,1,0.62,6009,8,81,38,44,500,0.0,513,460,60,123.0,0,1,341,214,64,0,0,0,250,250,0,-5.59,45.708328,4.912562,0.0,211.7,0,0.0,-1,0.0,0.0,0,0.0,0.2874
17263,1561296730780,3,2.23,2.03,2.91,1.89,3.25,0.42,0.44,-0.07,3,-2,1,0.61,6032,8,81,38,45,500,0.0,519,463,60,123.0,0,1,347,215,64,0,0,0,250,250,0,414.87,,,,,,,,,,,,
17283,1561296730800,4,2.22,2.03,2.92,1.88,3.25,0.38,0.46,-0.13,3,-2,1,0.59,6097,7,80,38,45,500,0.0,523,463,60,123.0,0,1,347,214,49,0,0,0,250,250,0,414.87,,,,,,,,,,,,
17303,1561296730820,-1,2.22,2.02,2.92,1.88,3.25,0.34,0.43,-0.18,2,0,1,0.55,6127,7,80,38,45,500,0.0,525,460,60,123.0,0,1,348,214,49,0,0,0,250,250,0,181.28,,,,,,,,,,,,
17323,1561296730840,-0,2.22,2.02,2.92,1.89,3.25,0.31,0.36,-0.23,2,2,1,0.47,6198,5,80,38,45,500,0.0,525,463,60,124.0,0,1,348,213,49,0,0,0,250,250,0,181.28,,,,,,,,,,,,
17343,1561296730860,0,2.22,2.02,2.91,1.88,3.25,0.33,0.24,-0.18,1,3,0,0.41,6250,6,80,38,45,501,0.0,529,460,60,124.0,0,1,349,214,49,0,0,0,250,250,0,-5.59,45.708328,4.912562,0.0,211.7,0,0.0,-1,0.0,0.0,0,0.0,0.2891
17363,1561296730880,0,2.23,2.02,2.92,1.89,3.26,0.39,0.15,-0.04,-0,2,-1,0.41,6315,5,80,38,45,501,0.0,536,460,60,124.0,0,1,349,213,51,0,0,0,250,250,0,-5.59,,,,,,,,,,,,
17383,1561296730900,3,2.23,2.03,2.92,1.88,3.26,0.41,0.19,-0.01,0,2,-2,0.46,6381,7,80,38,44,501,0.0,539,460,60,123.0,0,1,343,213,51,0,0,0,250,250,0,181.28,,,,,,,,,,,,
17403,1561296730920,0,2.21,2.02,2.92,1.89,3.25,0.45,0.22,-0.11,1,3,-1,0.5,6427,2,80,38,44,501,0.0,542,461,60,123.0,0,1,343,212,51,0,0,0,250,250,0,414.87,,,,,,,,,,,,
17423,1561296730940,1,2.22,2.03,2.92,1.88,3.25,0.55,0.16,0.0,1,2,-2,0.57,6452,0,80,38,44,501,0.0,545,459,60,124.0,0,1,343,137,51,0,0,0,250,250,0,-5.59,,,,,,,,,,,,
17443,1561296730960,3,2.22,2.03,2.91,1.88,3.25,0.53,0.12,0.17,0,-1,-1,0.54,6474,0,80,38,44,501,0.0,548,460,60,123.0,0,1,343,137,51,0,0,0,250,250,0,-5.59,45.708328,4.912562,0.0,211.7,0,0.0,-1,0.0,0.0,0,0.0,0.2907
17463,1561296730980,1,2.21,2.03,2.92,1.89,3.25,0.42,0.17,0.16,0,2,-1,0.45,6467,3,80,38,44,500,0.0,553,457,60,125.0,0,1,343,212,52,0,0,0,250,250,0,414.87,,,,,,,,,,,,
17483,1561296731000,-1,2.22,2.03,2.91,1.89,3.25,0.58,0.09,0.26,1,2,-1,0.58,6487,0,80,38,44,501,0.0,560,457,60,125.0,0,1,343,212,52,0,0,0,250,250,0,181.28,,,,,,,,,,,,
17503,1561296731020,3,2.21,2.02,2.92,1.88,3.25,0.68,0.06,0.4,1,-3,0,0.68,6553,5,80,38,44,501,0.0,555,461,60,123.0,0,1,344,137,52,0,0,0,250,250,0,-5.59,,,,,,,,,,,,
17523,1561296731040,-2,2.22,2.03,2.92,1.88,3.25,0.5,0.09,0.25,0,-1,1,0.51,6553,4,79,38,43,501,0.0,565,461,60,124.0,0,1,337,212,52,0,0,0,250,250,0,414.87,,,,,,,,,,,,
17543,1561296731060,2,2.23,2.02,2.92,1.88,3.25,0.66,0.06,0.31,1,-0,2,0.66,6588,6,79,38,43,500,0.0,563,458,60,124.0,0,1,337,136,52,0,0,0,250,250,0,-5.59,45.708328,4.912562,0.0,211.7,0,0.0,-1,0.0,0.0,0,0.0,0.2924
17563,1561296731080,5,2.22,2.03,2.92,1.89,3.25,0.71,0.08,0.42,1,-3,2,0.72,6592,8,79,38,43,500,0.0,565,458,60,123.0,0,1,337,211,52,0,0,0,250,250,0,414.87,,,,,,,,,,,,
17583,1561296731100,-2,2.22,2.02,2.92,1.88,3.26,0.59,0.1,0.38,0,-0,2,0.6,6613,8,79,38,43,500,0.0,563,460,60,125.0,0,1,338,211,52,0,0,0,250,250,0,181.28,,,,,,,,,,,,
17603,1561296731120,2,2.23,2.02,2.92,1.89,3.25,0.7,0.06,0.5,0,-1,1,0.71,6611,9,79,38,42,500,0.0,558,461,60,123.0,0,1,331,211,52,0,0,0,250,250,0,-5.59,,,,,,,,,,,,
17623,1561296731140,-1,2.22,2.02,2.92,1.88,3.25,0.63,0.09,0.38,1,0,-0,0.64,6656,7,79,38,42,500,0.0,558,459,60,125.0,0,1,331,209,52,0,0,0,250,250,0,181.28,,,,,,,,,,,,
17643,1561296731160,3,2.22,2.02,2.91,1.89,3.25,0.72,0.06,0.48,0,0,-1,0.72,6677,1,79,38,42,501,0.0,568,461,60,124.0,0,1,331,134,52,0,0,0,250,250,0,-5.59,45.708328,4.912562,0.0,211.7,0,0.0,-1,0.0,0.0,0,0.0,0.294
17663,1561296731180,0,2.22,2.03,2.92,1.89,3.25,0.61,0.1,0.51,0,1,-1,0.61,6660,3,79,38,42,500,0.0,567,461,60,123.0,0,1,331,209,52,0,0,0,250,250,0,414.87,,,,,,,,,,,,
17683,1561296731200,2,2.23,2.02,2.92,1.88,3.25,0.74,0.03,0.54,0,2,-1,0.74,6677,1,79,38,42,501,0.0,565,459,60,124.0,0,1,331,134,52,0,0,0,250,250,0,-5.59,,,,,,,,,,,,
17703,1561296731220,-1,2.22,2.03,2.92,1.88,3.25,0.67,0.04,0.56,0,-3,-1,0.67,6706,2,79,38,42,501,0.0,568,462,60,124.0,0,1,331,209,52,0,0,0,250,250,0,414.87,,,,,,,,,,,,
