"Interval"|"ms"|0|0|1,"Utc"|"ms"|0|0|1,"FB_p"|"bar"|0|300|50,"Volant"|"F"|0.0|300.0|50,"xFR"|"mm"|0.0|5.0|50,"xRR"|"mm"|0.0|5.0|50,"xFL"|"mm"|0.0|5.0|50,"xRL"|"mm"|0.0|5.0|50,"AccelX"|"G"|-3.0|3.0|50,"AccelY"|"G"|-3.0|3.0|50,"AccelZ"|"G"|-3.0|3.0|50,"Yaw"|"Deg/Sec"|-120|120|50,"Pitch"|"Deg/Sec"|-120|120|50,"Roll"|"Deg/Sec"|-120|120|50,"Gsum"|"G"|0.0|3.0|50,"RPM"|""|0|14000|50,"TPS"|"%"|0|100|50,"WaterTemp"|"?C"|0|300|50,"AirTemp"|"?C"|-1000|1000|50,"MAP"|"KPa"|0|255|50,"Lambda"|""|0|1024|50,"WheelSpeed"|"MPH"|0.0|150.0|50,"OilPress"|"PSI"|0|150|50,"FuelPress"|"PSI"|0|150|50,"OilTemp"|"F"|0|300|50,"Battery"|"Volts"|0.0|20.0|50,"FuelCon"|"L/h"|-1000|1000|50,"Gear"|""|0|10|50,"Advance"|"Deg"|-360|360|50,"Injection"|"ms"|-1000|1000|50,"FuelCon"|"L/100km"|-1000|1000|50,"LC_But_Pres"|""|-1000|1000|50,"LC_Active"|""|-1000|1000|50,"RD_Speed"|""|-1000|1000|50,"RUD_Speed"|""|-1000|1000|50,"LD_Speed"|""|-1000|1000|50,"LUD_Speed"|""|-1000|1000|50,"Ana1"|"bar"|-1000.0|1000.0|50,"Latitude"|"Degrees"|-180.0|180.0|10,"Longitude"|"Degrees"|-180.0|180.0|10,"Speed"|"kph"|0.0|150.0|10,"Altitude"|"m"|0.0|4000.0|10,"LapCount"|""|0|0|10,"LapTime"|"Min"|0.0|0.0|10,"Sector"|""|0|0|10,"SectorTime"|"Min"|0.0|0.0|10,"ElapsedTime"|"Min"|0.0|0.0|10,"CurrentLap"|""|0|0|10,"Distance"|"km"|0.0|0.0|10,"SessionTime"|"Min"|0.0|0.0|10
4923,0,-0,1.5,2.1,3.08,1.82,3.32,0.77,0.06,0.61,-0,-2,-17,0.77,0,0,101,42,98,507,0.0,121,219,60,124.0,0,1,0,0,0,0,0,0,250,250,0,181.28,,,,,,,,,,,,
4943,0,2,1.5,2.09,3.08,1.82,3.33,0.77,0.06,0.61,-0,-2,-15,0.77,0,0,101,42,98,507,0.0,121,219,60,124.0,0,1,0,0,0,0,0,0,250,250,0,181.28,0.0,0.0,0.0,0.0,0,0.0,-1,0.0,0.0,0,0.0,0.0824
4963,0,1,1.5,2.1,3.08,1.81,3.33,0.77,0.06,0.61,-1,-2,-14,0.78,0,1,101,42,98,507,0.0,121,219,60,124.0,0,1,0,0,0,0,0,0,250,250,0,181.28,,,,,,,,,,,,
4983,0,2,1.49,2.1,3.08,1.81,3.33,0.77,0.06,0.61,-1,-3,-12,0.78,0,0,101,42,98,507,0.0,121,219,60,124.0,0,1,0,0,0,0,0,0,250,250,0,181.28,,,,,,,,,,,,
5003,0,1,1.49,2.1,3.08,1.82,3.32,0.78,0.06,0.61,-1,-3,-11,0.78,0,1,101,42,98,507,0.0,121,216,60,123.0,0,1,0,0,0,0,0,0,250,250,0,181.28,,,,,,,,,,,,
5023,0,1,1.5,2.1,3.07,1.81,3.33,0.78,0.06,0.61,-1,-3,-10,0.78,0,0,101,42,98,507,0.0,121,216,60,124.0,0,1,0,0,0,0,0,0,250,250,0,181.28,,,,,,,,,,,,
5043,0,2,1.5,2.1,3.08,1.82,3.33,0.78,0.06,0.61,-1,-2,-9,0.78,0,0,101,42,98,507,0.0,121,216,60,124.0,0,1,0,0,0,0,0,0,250,250,0,181.28,0.0,0.0,0.0,0.0,0,0.0,-1,0.0,0.0,0,0.0,0.084
5063,0,2,1.49,2.1,3.08,1.82,3.33,0.78,0.07,0.61,-1,-2,-8,0.78,0,0,101,42,98,507,0.0,121,216,60,124.0,0,1,0,0,0,0,0,0,250,250,0,181.28,,,,,,,,,,,,
5083,0,2,1.5,2.1,3.08,1.82,3.33,0.78,0.07,0.61,-1,-1,-7,0.78,0,0,101,42,98,507,0.0,121,216,60,124.0,0,1,0,0,0,0,0,0,250,250,0,181.28,,,,,,,,,,,,
5103,0,2,1.5,2.1,3.08,1.82,3.33,0.78,0.07,0.61,-0,-1,-7,0.78,0,0,101,42,98,507,0.0,121,216,60,124.0,0,1,0,0,0,0,0,0,250,250,0,181.28,,,,,,,,,,,,
5123,0,0,1.5,2.1,3.08,1.82,3.33,0.78,0.07,0.61,0,-1,-6,0.78,0,0,101,42,98,507,0.0,121,216,60,124.0,0,1,0,0,0,0,0,0,250,250,0,181.28,,,,,,,,,,,,
5143,0,2,1.5,2.1,3.08,1.81,3.34,0.78,0.06,0.6,0,-0,-6,0.78,0,0,101,42,98,507,0.0,121,214,60,124.0,0,1,0,0,0,0,0,0,250,250,0,181.28,0.0,0.0,0.0,0.0,0,0.0,-1,0.0,0.0,0,0.0,0.0857
5163,0,2,1.5,2.1,3.08,1.83,3.33,0.77,0.07,0.6,0,-0,-5,0.77,0,0,101,42,98,507,0.0,121,213,60,123.0,0,1,0,0,0,0,0,0,250,250,0,181.28,,,,,,,,,,,,
5183,0,1,1.5,2.1,3.08,1.82,3.33,0.78,0.06,0.6,0,-0,-4,0.78,0,0,101,42,98,507,0.0,121,213,60,124.0,0,1,0,0,0,0,0,0,250,250,0,181.28,,,,,,,,,,,,
5203,0,2,1.49,2.1,3.08,1.81,3.33,0.77,0.07,0.6,0,-0,-4,0.78,0,0,101,42,98,507,0.0,121,213,60,124.0,0,1,0,0,0,0,0,0,250,250,0,181.28,,,,,,,,,,,,
5223,0,2,1.49,2.1,3.08,1.82,3.32,0.78,0.06,0.6,0,-0,-4,0.78,0,0,101,42,98,507,0.0,121,213,60,124.0,0,1,0,0,0,0,0,0,250,250,0,181.28,,,,,,,,,,,,
5243,0,2,1.5,2.1,3.07,1.82,3.33,0.78,0.06,0.61,0,-0,-3,0.78,0,0,101,42,98,507,0.0,121,213,60,124.0,0,1,0,0,0,0,0,0,250,250,0,181.28,0.0,0.0,0.0,0.0,0,0.0,-1,0.0,0.0,0,0.0,0.0874
5263,0,2,1.49,2.11,3.08,1.82,3.33,0.78,0.06,0.61,0,-0,-3,0.78,0,0,101,42,98,507,0.0,121,213,60,124.0,0,1,0,0,0,0,0,0,250,250,0,181.28,,,,,,,,,,,,
5283,0,2,1.49,2.1,3.08,1.82,3.32,0.77,0.06,0.61,0,-0,-3,0.77,0,0,101,42,98,507,0.0,121,211,60,124.0,0,1,0,0,0,0,0,0,250,250,0,181.28,,,,,,,,,,,,
5303,0,2,1.49,2.1,3.07,1.83,3.33,0.77,0.06,0.6,0,-0,-2,0.77,0,0,101,42,98,507,0.0,121,211,60,124.0,0,1,0,0,0,0,0,0,250,250,0,181.28,,,,,,,,,,,,
5323,0,2,1.49,2.1,3.08,1.82,3.33,0.77,0.06,0.61,0,-0,-2,0.77,0,0,101,42,98,507,0.0,121,211,60,123.0,0,1,0,0,0,0,0,0,250,250,0,181.28,,,,,,,,,,,,
5343,0,2,1.49,2.09,3.07,1.81,3.33,0.77,0.06,0.6,0,-0,-2,0.77,0,0,101,42,98,507,0.0,121,211,60,123.0,0,1,0,0,0,0,0,0,250,250,0,181.28,0.0,0.0,0.0,0.0,0,0.0,-1,0.0,0.0,0,0.0,0.089
5363,0,2,1.49,2.1,3.08,1.82,3.32,0.77,0.06,0.6,0,-0,-2,0.77,0,0,101,42,98,507,0.0,121,211,60,123.0,0,1,0,0,0,0,0,0,250,250,0,181.28,,,,,,,,,,,,
5383,0,2,1.49,2.1,3.08,1.81,3.33,0.77,0.06,0.61,0,-0,-2,0.77,0,0,101,42,98,507,0.0,121,211,60,124.0,0,1,0,0,0,0,0,0,250,250,0,181.28,,,,,,,,,,,,
5403,0,2,1.49,2.1,3.08,1.82,3.33,0.77,0.06,0.61,0,-0,-1,0.77,0,0,101,42,98,507,0.0,121,211,60,124.0,0,1,0,0,0,0,0,0,250,250,0,181.28,,,,,,,,,,,,
5423,0,2,1.49,2.1,3.08,1.82,3.33,0.77,0.06,0.61,0,-0,-1,0.77,0,0,101,42,98,507,0.0,121,211,60,124.0,0,1,0,0,0,0,0,0,250,250,0,181.28,,,,,,,,,,,,
5443,0,2,1.49,2.1,3.08,1.82,3.32,0.77,0.06,0.61,0,-1,-1,0.77,0,0,101,42,98,507,0.0,121,210,60,124.0,0,1,0,0,0,0,0,0,250,250,0,181.28,0.0,0.0,0.0,0.0,0,0.0,-1,0.0,0.0,0,0.0,0.0907
5463,0,2,1.49,2.1,3.08,1.81,3.33,0.77,0.06,0.61,0,-1,-1,0.77,0,0,101,42,98,507,0.0,121,208,60,124.0,0,1,0,0,0,0,0,0,250,250,0,181.28,,,,,,,,,,,,
5483,0,2,1.5,2.09,3.07,1.82,3.32,0.77,0.06,0.61,0,-1,-1,0.77,0,0,101,42,98,507,0.0,121,208,60,124.0,0,1,0,0,0,0,0,0,250,250,0,181.28,,,,,,,,,,,,
5503,0,2,1.49,2.1,3.07,1.83,3.33,0.77,0.06,0.61,0,-1,-1,0.77,0,0,101,42,98,507,0.0,121,208,60,123.0,0,1,0,0,0,0,0,0,250,250,0,181.28,,,,,,,,,,,,
5523,0,2,1.49,2.1,3.08,1.81,3.33,0.77,0.06,0.61,0,-1,-1,0.77,0,0,101,42,98,507,0.0,121,208,60,124.0,0,1,0,0,0,0,0,0,250,250,0,181.28,,,,,,,,,,,,
5543,0,-0,1.5,2.1,3.08,1.82,3.32,0.77,0.06,0.61,0,-1,-1,0.78,0,0,101,42,98,507,0.0,121,208,60,124.0,0,1,0,0,0,0,0,0,250,250,0,181.28,0.0,0.0,0.0,0.0,0,0.0,-1,0.0,0.0,0,0.0,0.0924
5563,0,2,1.49,2.1,3.07,1.82,3.33,0.77,0.06,0.61,0,-1,-1,0.78,0,0,101,42,98,507,0.0,121,208,60,124.0,0,1,0,0,0,0,0,0,250,250,0,181.28,,,,,,,,,,,,
5583,0,2,1.5,2.1,3.08,1.82,3.33,0.77,0.06,0.61,0,-1,-1,0.78,0,0,101,42,98,507,0.0,121,208,60,124.0,0,1,0,0,0,0,0,0,250,250,0,181.28,,,,,,,,,,,,
5603,0,2,1.5,2.09,3.08,1.82,3.33,0.78,0.06,0.61,0,-1,-1,0.78,0,0,101,42,98,507,0.0,121,207,60,124.0,0,1,0,0,0,0,0,0,250,250,0,-5.59,,,,,,,,,,,,
5623,0,2,1.49,2.1,3.07,1.82,3.32,0.78,0.06,0.61,-0,-1,-1,0.78,0,0,101,42,98,507,0.0,121,206,60,124.0,0,1,0,0,0,0,0,0,250,250,0,181.28,,,,,,,,,,,,
5643,0,2,1.49,2.1,3.07,1.82,3.33,0.78,0.06,0.61,-0,-1,-1,0.78,0,0,101,42,98,507,0.0,121,205,60,124.0,0,1,0,0,0,0,0,0,250,250,0,181.28,0.0,0.0,0.0,0.0,0,0.0,-1,0.0,0.0,0,0.0,0.094
5663,0,0,1.5,2.1,3.08,1.82,3.32,0.78,0.06,0.61,-0,-1,-1,0.78,0,0,101,42,98,507,0.0,121,205,60,124.0,0,1,0,0,0,0,0,0,250,250,0,181.28,,,,,,,,,,,,
5683,0,0,1.5,2.1,3.08,1.82,3.33,0.78,0.06,0.61,-0,-1,-0,0.78,0,0,101,42,98,508,0.0,121,205,60,124.0,0,1,0,0,0,0,0,0,250,250,0,181.28,,,,,,,,,,,,
5703,0,1,1.5,2.1,3.08,1.82,3.33,0.78,0.06,0.61,-0,-1,-0,0.78,0,0,101,42,98,507,0.0,121,205,60,124.0,0,1,0,0,0,0,0,0,250,250,0,181.28,,,,,,,,,,,,
5723,0,0,1.5,2.1,3.07,1.82,3.33,0.78,0.06,0.61,-0,-1,-0,0.78,0,0,101,42,98,507,0.0,121,205,60,124.0,0,1,0,0,0,0,0,0,250,250,0,181.28,,,,,,,,,,,,
5743,0,2,1.49,2.1,3.08,1.82,3.33,0.78,0.06,0.61,-0,-1,-0,0.78,0,0,101,42,98,507,0.0,121,205,60,124.0,0,1,0,0,0,0,0,0,250,250,0,181.28,0.0,0.0,0.0,0.0,0,0.0,-1,0.0,0.0,0,0.0,0.0957
5763,0,2,1.49,2.1,3.08,1.82,3.33,0.78,0.06,0.61,-0,-1,-0,0.78,0,0,101,42,98,507,0.0,121,205,60,124.0,0,1,0,0,0,0,0,0,250,250,0,181.28,,,,,,,,,,,,
5783,0,2,1.5,2.1,3.08,1.82,3.33,0.78,0.06,0.61,-0,-1,-0,0.78,0,0,101,42,98,507,0.0,121,205,60,124.0,0,1,0,0,0,0,0,0,250,250,0,181.28,,,,,,,,,,,,
5803,0,2,1.49,2.1,3.08,1.82,3.33,0.78,0.06,0.61,-0,-1,-0,0.78,0,0,101,42,98,507,0.0,121,203,60,124.0,0,1,0,0,0,0,0,0,250,250,0,181.28,,,,,,,,,,,,
5823,0,1,1.5,2.1,3.07,1.82,3.33,0.78,0.06,0.61,-0,-1,-0,0.78,0,0,101,42,98,507,0.0,121,202,60,124.0,0,1,0,0,0,0,0,0,250,250,0,181.28,,,,,,,,,,,,
5843,0,2,1.5,2.1,3.08,1.83,3.33,0.78,0.06,0.61,-0,-1,-0,0.78,0,0,101,42,98,507,0.0,121,202,60,124.0,0,1,0,0,0,0,0,0,250,250,0,181.28,0.0,0.0,0.0,0.0,0,0.0,-1,0.0,0.0,0,0.0,0.0974
5863,0,2,1.5,2.1,3.08,1.82,3.33,0.78,0.06,0.61,-0,-1,-0,0.78,0,0,101,42,98,507,0.0,121,202,60,124.0,0,1,0,0,0,0,0,0,250,250,0,181.28,,,,,,,,,,,,
5883,0,-0,1.5,2.1,3.08,1.82,3.33,0.78,0.06,0.61,-0,-1,-0,0.78,0,0,101,42,98,507,0.0,121,202,60,124.0,0,1,0,0,0,0,0,0,250,250,0,181.28,,,,,,,,,,,,
5903,0,2,1.49,2.1,3.07,1.82,3.32,0.78,0.06,0.61,-0,-1,-0,0.78,0,0,101,42,98,507,0.0,121,202,60,124.0,0,1,0,0,0,0,0,0,250,250,0,181.28,,,,,,,,,,,,
5923,0,2,1.49,2.1,3.08,1.82,3.33,0.78,0.06,0.61,-0,-1,-0,0.78,0,0,101,42,98,507,0.0,121,202,60,124.0,0,1,0,0,0,0,0,0,250,250,0,-5.59,,,,,,,,,,,,
5943,0,1,1.5,2.1,3.07,1.82,3.33,0.78,0.06,0.61,-0,-0,-0,0.78,0,0,101,42,98,507,0.0,121,202,60,124.0,0,1,0,0,0,0,0,0,250,250,0,181.28,0.0,0.0,0.0,0.0,0,0.0,-1,0.0,0.0,0,0.0,0.099
5963,0,2,1.49,2.1,3.08,1.81,3.32,0.78,0.06,0.61,-0,-0,-0,0.78,0,0,101,42,98,507,0.0,121,202,60,124.0,0,1,0,0,0,0,0,0,250,250,0,181.28,,,,,,,,,,,,
5983,0,2,1.5,2.1,3.07,1.81,3.33,0.78,0.06,0.61,-0,-1,-0,0.78,0,0,101,42,98,507,0.0,121,200,60,124.0,0,1,0,0,0,0,0,0,250,250,0,181.28,,,,,,,,,,,,
6003,0,0,1.5,2.1,3.07,1.81,3.32,0.78,0.06,0.61,-0,-0,0,0.78,0,0,101,42,98,507,0.0,121,200,60,124.0,0,1,0,0,0,0,0,0,250,250,0,181.28,,,,,,,,,,,,
6023,0,1,1.49,2.09,3.08,1.82,3.33,0.78,0.06,0.61,-0,-0,0,0.78,0,0,101,42,98,507,0.0,121,200,60,124.0,0,1,0,0,0,0,0,0,250,250,0,181.28,,,,,,,,,,,,
6043,0,0,1.5,2.1,3.08,1.81,3.33,0.77,0.06,0.61,-0,-0,0,0.78,0,0,101,42,98,507,0.0,121,200,60,124.0,0,1,0,0,0,0,0,0,250,250,0,181.28,0.0,0.0,0.0,0.0,0,0.0,-1,0.0,0.0,0,0.0,0.1007
6063,0,2,1.5,2.1,3.07,1.82,3.32,0.78,0.06,0.61,-0,-0,-0,0.78,0,0,101,42,98,507,0.0,121,200,60,124.0,0,1,0,0,0,0,0,0,250,250,0,181.28,,,,,,,,,,,,
6083,0,2,1.5,2.09,3.08,1.81,3.33,0.78,0.06,0.61,-0,-0,-0,0.78,0,0,101,42,98,507,0.0,121,199,60,124.0,0,1,0,0,0,0,0,0,250,250,0,181.28,,,,,,,,,,,,
6103,0,1,1.5,2.1,3.07,1.82,3.33,0.78,0.06,0.61,-0,-1,-0,0.78,0,0,101,42,98,507,0.0,121,199,60,124.0,0,1,0,0,0,0,0,0,250,250,0,181.28,,,,,,,,,,,,
6123,0,2,1.49,2.1,3.08,1.81,3.33,0.78,0.06,0.61,-0,-1,-0,0.78,0,0,101,42,98,507,0.0,121,199,60,124.0,0,1,0,0,0,0,0,0,250,250,0,181.28,,,,,,,,,,,,
6143,0,2,1.49,2.1,3.08,1.81,3.33,0.78,0.06,0.61,-0,-1,-0,0.78,0,0,101,42,98,507,0.0,121,199,60,124.0,0,1,0,0,0,0,0,0,250,250,0,181.28,0.0,0.0,0.0,0.0,0,0.0,-1,0.0,0.0,0,0.0,0.1024
6163,0,-0,1.5,2.1,3.07,1.81,3.33,0.78,0.06,0.61,-0,-0,-0,0.78,0,0,101,42,98,507,0.0,121,199,60,124.0,0,1,0,0,0,0,0,0,250,250,0,181.28,,,,,,,,,,,,
6183,0,2,1.5,2.1,3.08,1.82,3.32,0.78,0.06,0.61,-0,-0,-0,0.78,0,0,101,42,98,507,0.0,121,199,60,123.0,0,1,0,0,0,0,0,0,250,250,0,181.28,,,,,,,,,,,,
6203,0,0,1.5,2.1,3.08,1.82,3.32,0.78,0.06,0.61,-0,-1,-0,0.78,0,0,101,42,98,507,0.0,121,198,60,123.0,0,1,0,0,0,0,0,0,250,250,0,181.28,,,,,,,,,,,,
6223,0,0,1.5,2.1,3.07,1.82,3.33,0.78,0.06,0.61,-0,-1,-0,0.78,0,0,101,42,98,507,0.0,121,197,60,124.0,0,1,0,0,0,0,0,0,250,250,0,181.28,,,,,,,,,,,,
6243,0,0,1.5,2.1,3.08,1.81,3.33,0.77,0.07,0.61,-0,-1,-0,0.78,0,0,101,42,98,507,0.0,121,197,60,124.0,0,1,0,0,0,0,0,0,250,250,0,181.28,0.0,0.0,0.0,0.0,0,0.0,-1,0.0,0.0,0,0.0,0.104
6263,0,1,1.5,2.1,3.08,1.82,3.33,0.77,0.07,0.61,-0,-1,-0,0.78,0,0,101,42,98,507,0.0,121,197,60,124.0,0,1,0,0,0,0,0,0,250,250,0,181.28,,,,,,,,,,,,
6283,0,0,1.5,2.1,3.08,1.82,3.33,0.77,0.06,0.61,-0,-1,-0,0.78,0,0,101,42,98,507,0.0,121,197,60,124.0,0,1,0,0,0,0,0,0,250,250,0,181.28,,,,,,,,,,,,
6303,0,1,1.5,2.1,3.08,1.82,3.33,0.77,0.06,0.61,-0,-1,-0,0.78,0,0,101,42,98,507,0.0,121,197,60,124.0,0,1,0,0,0,0,0,0,250,250,0,181.28,,,,,,,,,,,,
6323,0,0,1.5,2.1,3.08,1.82,3.32,0.77,0.06,0.61,-0,-1,-0,0.78,0,0,101,42,98,507,0.0,121,197,60,124.0,0,1,0,0,0,0,0,0,250,250,0,181.28,,,,,,,,,,,,
6343,0,2,1.49,2.1,3.08,1.81,3.34,0.77,0.06,0.61,-0,-1,-0,0.78,0,0,101,42,98,507,0.0,121,197,60,123.0,0,1,0,0,0,0,0,0,250,250,0,181.28,0.0,0.0,0.0,0.0,0,0.0,-1,0.0,0.0,0,0.0,0.1057
6363,0,2,1.49,2.1,3.08,1.82,3.33,0.77,0.06,0.61,-0,-1,-0,0.78,0,0,101,42,98,507,0.0,121,197,60,124.0,0,1,0,0,0,0,0,0,250,250,0,181.28,,,,,,,,,,,,
6383,0,2,1.51,2.1,3.08,1.82,3.34,0.77,0.06,0.61,-0,-1,-0,0.78,0,0,101,42,98,507,0.0,121,197,60,123.0,0,1,0,0,0,0,0,0,250,250,0,181.28,,,,,,,,,,,,
6403,0,2,1.49,2.1,3.08,1.82,3.33,0.77,0.06,0.61,-0,-1,-0,0.78,0,0,101,42,98,507,0.0,121,197,60,124.0,0,1,0,0,0,0,0,0,250,250,0,181.28,,,,,,,,,,,,
6423,0,3,1.49,2.1,3.08,1.81,3.32,0.77,0.06,0.61,-0,-1,-0,0.78,0,0,101,42,98,507,0.0,121,196,60,124.0,0,1,0,0,0,0,0,0,250,250,0,181.28,,,,,,,,,,,,
6443,0,3,1.49,2.1,3.07,1.82,3.33,0.77,0.06,0.61,-0,-1,-0,0.77,0,0,101,42,98,507,0.0,121,194,60,124.0,0,1,0,0,0,0,0,0,250,250,0,181.28,0.0,0.0,0.0,0.0,0,0.0,-1,0.0,0.0,0,0.0,0.1074
6463,0,2,1.5,2.1,3.07,1.82,3.33,0.77,0.06,0.61,-0,-1,-0,0.78,0,0,101,42,98,507,0.0,121,194,60,124.0,0,1,0,0,0,0,0,0,250,250,0,181.28,,,,,,,,,,,,
6483,0,1,1.5,2.1,3.08,1.82,3.32,0.77,0.06,0.61,-0,-1,-0,0.78,0,0,101,42,98,507,0.0,121,194,60,124.0,0,1,0,0,0,0,0,0,250,250,0,181.28,,,,,,,,,,,,
6503,0,1,1.5,2.1,3.08,1.82,3.33,0.77,0.06,0.61,-0,-1,-0,0.78,0,0,101,42,98,507,0.0,121,194,60,124.0,0,1,0,0,0,0,0,0,250,250,0,181.28,,,,,,,,,,,,
6523,0,3,1.49,2.09,3.07,1.8,3.32,0.77,0.06,0.61,-0,-1,-0,0.78,0,0,101,42,98,508,0.0,121,194,60,123.0,0,1,0,0,0,0,0,0,250,250,0,181.28,,,,,,,,,,,,
6543,0,3,1.5,2.09,3.08,1.82,3.33,0.77,0.06,0.61,-0,-1,-0,0.78,0,0,101,42,98,508,0.0,121,194,60,123.0,0,1,0,0,0,0,0,0,250,250,0,181.28,0.0,0.0,0.0,0.0,0,0.0,-1,0.0,0.0,0,0.0,0.109
6563,0,3,1.5,2.09,3.08,1.82,3.33,0.77,0.06,0.61,-0,-1,-0,0.78,0,0,101,42,98,507,0.0,121,194,60,123.0,0,1,0,0,0,0,0,0,250,250,0,181.28,,,,,,,,,,,,
6583,0,2,1.5,2.09,3.08,1.81,3.33,0.77,0.06,0.61,0,-1,-0,0.77,0,0,101,42,98,507,0.0,121,194,60,123.0,0,1,0,0,0,0,0,0,250,250,0,181.28,,,,,,,,,,,,
6603,0,3,1.49,2.09,3.07,1.81,3.33,0.77,0.06,0.61,-0,-1,-0,0.78,0,0,101,42,98,507,0.0,121,194,60,124.0,0,1,0,0,0,0,0,0,250,250,0,181.28,,,,,,,,,,,,
6623,0,2,1.5,2.1,3.08,1.81,3.33,0.77,0.06,0.61,-0,-1,-0,0.78,0,0,101,42,98,507,0.0,121,194,60,124.0,0,1,0,0,0,0,0,0,250,250,0,181.28,,,,,,,,,,,,
6643,0,1,1.5,2.1,3.08,1.81,3.33,0.77,0.06,0.61,-0,-1,-0,0.78,0,0,101,42,98,507,0.0,121,194,60,124.0,0,1,0,0,0,0,0,0,250,250,0,-5.59,0.0,0.0,0.0,0.0,0,0.0,-1,0.0,0.0,0,0.0,0.1107
6663,0,1,1.5,2.1,3.07,1.81,3.32,0.77,0.06,0.61,-0,-1,-0,0.78,0,0,101,42,98,507,0.0,121,194,60,124.0,0,1,0,0,0,0,0,0,250,250,0,181.28,,,,,,,,,,,,
6683,0,3,1.49,2.1,3.08,1.81,3.33,0.77,0.06,0.61,0,-1,-0,0.77,0,0,101,42,98,507,0.0,121,194,60,123.0,0,1,0,0,0,0,0,0,250,250,0,181.28,,,,,,,,,,,,
6703,0,0,1.5,2.1,3.08,1.81,3.33,0.77,0.06,0.61,0,-1,-0,0.77,0,0,101,42,98,507,0.0,121,193,60,123.0,0,1,0,0,0,0,0,0,250,250,0,181.28,,,,,,,,,,,,
6723,0,3,1.5,2.1,3.07,1.82,3.33,0.77,0.06,0.61,0,-1,-0,0.77,0,0,101,42,98,507,0.0,121,192,60,123.0,0,1,0,0,0,0,0,0,250,250,0,181.28,,,,,,,,,,,,
6743,0,2,1.49,2.1,3.08,1.82,3.33,0.77,0.06,0.61,0,-1,-0,0.77,0,0,101,42,98,507,0.0,121,192,60,124.0,0,1,0,0,0,0,0,0,250,250,0,181.28,0.0,0.0,0.0,0.0,0,0.0,-1,0.0,0.0,0,0.0,0.1124
6763,0,2,1.49,2.1,3.08,1.82,3.32,0.77,0.06,0.61,-0,-1,-0,0.77,0,0,101,42,98,507,0.0,121,192,60,124.0,0,1,0,0,0,0,0,0,250,250,0,181.28,,,,,,,,,,,,
6783,0,2,1.49,2.1,3.07,1.81,3.33,0.77,0.06,0.61,-0,-1,-0,0.78,0,0,101,42,98,507,0.0,121,192,60,124.0,0,1,0,0,0,0,0,0,250,250,0,181.28,,,,,,,,,,,,
6803,0,3,1.49,2.1,3.08,1.81,3.33,0.77,0.06,0.61,-0,-1,-0,0.78,0,0,101,42,98,507,0.0,121,191,60,124.0,0,1,0,0,0,0,0,0,250,250,0,181.28,,,,,,,,,,,,
6823,0,2,1.5,2.1,3.08,1.82,3.33,0.77,0.06,0.61,-0,-1,-0,0.78,0,0,101,42,98,507,0.0,121,191,60,124.0,0,1,0,0,0,0,0,0,250,250,0,181.28,,,,,,,,,,,,
6843,0,3,1.49,2.1,3.07,1.83,3.33,0.77,0.06,0.61,-0,-1,-0,0.78,0,0,101,42,98,507,0.0,121,191,60,124.0,0,1,0,0,0,0,0,0,250,250,0,181.28,0.0,0.0,0.0,0.0,0,0.0,-1,0.0,0.0,0,0.0,0.114
6863,0,3,1.5,2.1,3.08,1.81,3.33,0.77,0.06,0.61,-0,-1,-0,0.78,0,0,101,42,98,507,0.0,121,191,60,124.0,0,1,0,0,0,0,0,0,250,250,0,181.28,,,,,,,,,,,,
6883,0,2,1.5,2.09,3.08,1.82,3.33,0.77,0.06,0.61,-0,-1,-0,0.78,0,0,101,42,98,507,0.0,121,191,60,124.0,0,1,0,0,0,0,0,0,250,250,0,181.28,,,,,,,,,,,,
6903,0,2,1.49,2.1,3.08,1.82,3.33,0.77,0.06,0.61,-0,-1,-0,0.78,0,0,101,42,98,507,0.0,121,191,60,124.0,0,1,0,0,0,0,0,0,250,250,0,181.28,,,,,,,,,,,,
6923,0,2,1.49,2.1,3.08,1.82,3.33,0.78,0.06,0.61,-0,-1,-0,0.78,0,0,101,42,98,507,0.0,121,191,60,124.0,0,1,0,0,0,0,0,0,250,250,0,181.28,,,,,,,,,,,,
6943,0,3,1.5,2.1,3.08,1.81,3.33,0.77,0.06,0.61,-0,-1,-0,0.78,0,0,101,42,98,507,0.0,121,189,60,124.0,0,1,0,0,0,0,0,0,250,250,0,181.28,0.0,0.0,0.0,0.0,0,0.0,-1,0.0,0.0,0,0.0,0.1157
6963,0,2,1.5,2.1,3.08,1.82,3.33,0.77,0.06,0.61,-0,-1,-0,0.78,0,0,101,42,98,507,0.0,121,189,60,124.0,0,1,0,0,0,0,0,0,250,250,0,181.28,,,,,,,,,,,,
6983,0,2,1.5,2.1,3.08,1.82,3.34,0.77,0.06,0.61,-0,-1,-0,0.78,0,0,101,42,98,507,0.0,121,189,60,124.0,0,1,0,0,0,0,0,0,250,250,0,181.28,,,,,,,,,,,,
7003,0,2,1.49,2.1,3.08,1.82,3.33,0.78,0.06,0.61,-0,-1,-0,0.78,0,0,101,42,98,507,0.0,121,189,60,124.0,0,1,0,0,0,0,0,0,250,250,0,181.28,,,,,,,,,,,,
7023,0,3,1.49,2.1,3.08,1.81,3.34,0.78,0.06,0.61,-0,-1,-0,0.78,0,0,101,42,98,507,0.0,121,189,60,124.0,0,1,0,0,0,0,0,0,250,250,0,181.28,,,,,,,,,,,,
7043,0,1,1.5,2.1,3.08,1.82,3.33,0.78,0.06,0.61,-0,-1,-0,0.78,0,0,101,42,98,507,0.0,121,189,60,124.0,0,1,0,0,0,0,0,0,250,250,0,181.28,0.0,0.0,0.0,0.0,0,0.0,-1,0.0,0.0,0,0.0,0.1174
7063,0,2,1.5,2.1,3.08,1.82,3.33,0.78,0.06,0.61,-0,-1,-0,0.78,0,0,101,42,98,507,0.0,121,189,60,124.0,0,1,0,0,0,0,0,0,250,250,0,181.28,,,,,,,,,,,,
7083,0,2,1.49,2.1,3.08,1.82,3.33,0.78,0.06,0.61,-0,-1,-0,0.78,0,0,101,42,98,507,0.0,121,189,60,124.0,0,1,0,0,0,0,0,0,250,250,0,181.28,,,,,,,,,,,,
7103,0,2,1.49,2.1,3.08,1.83,3.32,0.78,0.06,0.61,-0,-1,-0,0.78,0,3,101,42,98,507,0.0,121,189,60,124.0,0,1,0,0,0,0,0,0,250,250,0,181.28,,,,,,,,,,,,
7123,0,2,1.5,2.1,3.08,1.82,3.33,0.78,0.06,0.61,-0,-1,-0,0.78,0,3,101,42,98,507,0.0,121,189,60,124.0,0,1,0,0,0,0,0,0,250,250,0,-5.59,,,,,,,,,,,,
7143,0,1,1.5,2.1,3.08,1.82,3.32,0.78,0.06,0.61,-0,-1,-0,0.78,0,3,101,42,98,507,0.0,121,189,60,124.0,0,1,0,0,0,0,0,0,250,250,0,181.28,0.0,0.0,0.0,0.0,0,0.0,-1,0.0,0.0,0,0.0,0.119
7163,0,2,1.5,2.09,3.08,1.81,3.33,0.78,0.06,0.61,-0,-1,-0,0.78,0,3,101,42,98,507,0.0,121,189,60,124.0,0,1,0,0,0,0,0,0,250,250,0,181.28,,,,,,,,,,,,
7183,0,2,1.49,2.1,3.08,1.82,3.32,0.78,0.06,0.61,-0,-1,-0,0.78,0,3,101,42,98,507,0.0,121,189,60,124.0,0,1,0,0,0,0,0,0,250,250,0,181.28,,,,,,,,,,,,
7203,0,1,1.5,2.1,3.07,1.82,3.32,0.78,0.06,0.61,-0,-1,-0,0.78,0,3,101,42,98,507,0.0,121,189,60,124.0,0,1,0,0,0,0,0,0,250,250,0,181.28,,,,,,,,,,,,
7223,0,3,1.49,2.1,3.08,1.81,3.33,0.78,0.06,0.61,-0,-1,-0,0.78,0,3,101,42,98,507,0.0,121,188,60,124.0,0,1,0,0,0,0,0,0,250,250,0,181.28,,,,,,,,,,,,
7243,0,2,1.49,2.1,3.07,1.82,3.32,0.78,0.06,0.61,-0,-1,-0,0.78,0,3,101,42,98,507,0.0,121,188,60,124.0,0,1,0,0,0,0,0,0,250,250,0,181.28,0.0,0.0,0.0,0.0,0,0.0,-1,0.0,0.0,0,0.0,0.1207
7263,0,2,1.5,2.1,3.07,1.82,3.32,0.78,0.06,0.61,-0,-1,-0,0.78,0,3,101,42,98,507,0.0,121,187,60,124.0,0,1,0,0,0,0,0,0,250,250,0,181.28,,,,,,,,,,,,
7283,0,0,1.5,2.1,3.08,1.82,3.32,0.78,0.06,0.61,-0,-1,-0,0.78,0,3,101,42,98,507,0.0,121,186,60,124.0,0,1,0,0,0,0,0,0,250,250,0,181.28,,,,,,,,,,,,
7303,0,1,1.49,2.1,3.08,1.81,3.32,0.78,0.06,0.61,-0,-1,-0,0.78,0,3,101,42,98,507,0.0,121,186,60,124.0,0,1,0,0,0,0,0,0,250,250,0,181.28,,,,,,,,,,,,
7323,0,2,1.5,2.1,3.07,1.82,3.33,0.78,0.06,0.61,-0,-1,-0,0.78,0,3,101,42,98,507,0.0,121,186,60,124.0,0,1,0,0,0,0,0,0,250,250,0,181.28,,,,,,,,,,,,
7343,0,1,1.47,2.09,3.08,1.82,3.33,0.78,0.06,0.61,-0,-1,-0,0.78,0,3,101,42,98,507,0.0,121,186,60,124.0,0,1,0,0,0,0,0,0,250,250,0,181.28,0.0,0.0,0.0,0.0,0,0.0,-1,0.0,0.0,0,0.0,0.1224
7363,0,2,1.5,2.09,3.07,1.81,3.32,0.78,0.06,0.61,-0,-1,-0,0.78,0,3,101,42,98,508,0.0,121,186,60,124.0,0,1,0,0,0,0,0,0,250,250,0,181.28,,,,,,,,,,,,
7383,0,2,1.49,2.1,3.07,1.82,3.33,0.78,0.06,0.61,-0,-1,-0,0.78,0,3,101,42,98,508,0.0,121,186,60,124.0,0,1,0,0,0,0,0,0,250,250,0,181.28,,,,,,,,,,,,
7403,0,1,1.5,2.1,3.07,1.82,3.32,0.78,0.06,0.61,-0,-1,-0,0.78,0,3,101,42,98,508,0.0,121,186,60,124.0,0,1,0,0,0,0,0,0,250,250,0,181.28,,,,,,,,,,,,
7423,0,2,1.5,2.1,3.08,1.82,3.33,0.78,0.06,0.61,-0,-1,-0,0.78,0,3,101,42,98,507,0.0,121,186,60,124.0,0,1,0,0,0,0,0,0,250,250,0,181.28,,,,,,,,,,,,
7443,0,0,1.5,2.1,3.08,1.81,3.33,0.78,0.06,0.61,-0,-1,-0,0.78,0,3,101,42,98,507,0.0,121,186,60,124.0,0,1,0,0,0,0,0,0,250,250,0,181.28,0.0,0.0,0.0,0.0,0,0.0,-1,0.0,0.0,0,0.0,0.124
7463,0,0,1.5,2.1,3.08,1.82,3.32,0.78,0.06,0.61,-0,-1,-0,0.78,0,3,101,42,98,507,0.0,121,186,60,124.0,0,1,0,0,0,0,0,0,250,250,0,181.28,,,,,,,,,,,,
7483,0,2,1.49,2.1,3.08,1.82,3.33,0.78,0.06,0.61,-0,-1,-0,0.78,0,3,101,42,98,507,0.0,121,186,60,124.0,0,1,0,0,0,0,0,0,250,250,0,181.28,,,,,,,,,,,,
7503,0,1,1.5,2.1,3.08,1.82,3.33,0.78,0.06,0.61,-0,-1,-0,0.78,0,3,101,42,98,507,0.0,121,186,60,124.0,0,1,0,0,0,0,0,0,250,250,0,181.28,,,,,,,,,,,,
7523,0,2,1.5,2.11,3.07,1.82,3.33,0.78,0.06,0.61,-0,-1,-0,0.78,0,3,101,42,98,507,0.0,121,185,60,124.0,0,1,0,0,0,0,0,0,250,250,0,181.28,,,,,,,,,,,,
7543,0,0,1.5,2.1,3.08,1.82,3.33,0.78,0.06,0.61,-0,-1,-0,0.78,0,3,101,42,98,507,0.0,121,184,60,124.0,0,1,0,0,0,0,0,0,250,250,0,181.28,0.0,0.0,0.0,0.0,0,0.0,-1,0.0,0.0,0,0.0,0.1257
7563,0,3,1.5,2.1,3.08,1.81,3.33,0.78,0.06,0.61,-0,-1,-0,0.78,0,3,101,42,98,507,0.0,121,183,60,124.0,0,1,0,0,0,0,0,0,250,250,0,181.28,,,,,,,,,,,,
7583,0,3,1.49,2.1,3.08,1.82,3.33,0.78,0.06,0.61,0,-1,-0,0.78,0,3,101,42,98,507,0.0,121,183,60,124.0,0,1,0,0,0,0,0,0,250,250,0,181.28,,,,,,,,,,,,
7603,0,2,1.49,2.1,3.08,1.81,3.33,0.77,0.06,0.61,0,-0,-0,0.78,0,3,101,42,98,507,0.0,121,183,60,124.0,0,1,0,0,0,0,0,0,250,250,0,181.28,,,,,,,,,,,,
7623,0,2,1.49,2.1,3.08,1.81,3.33,0.77,0.06,0.61,-0,-0,-0,0.78,0,3,101,42,98,507,0.0,121,183,60,124.0,0,1,0,0,0,0,0,0,250,250,0,181.28,,,,,,,,,,,,
7643,0,2,1.5,2.1,3.08,1.82,3.33,0.77,0.06,0.61,-0,-0,-0,0.78,0,3,101,42,98,507,0.0,120,183,60,124.0,0,1,0,0,0,0,0,0,250,250,0,181.28,0.0,0.0,0.0,0.0,0,0.0,-1,0.0,0.0,0,0.0,0.1274
7663,0,1,1.49,2.1,3.08,1.81,3.33,0.77,0.06,0.61,-0,-0,-0,0.77,0,3,101,42,98,507,0.0,121,183,60,124.0,0,1,0,0,0,0,0,0,250,250,0,181.28,,,,,,,,,,,,
7683,0,2,1.5,2.1,3.08,1.82,3.33,0.77,0.06,0.61,-0,-0,-0,0.78,0,3,101,42,98,507,0.0,121,183,60,124.0,0,1,0,0,0,0,0,0,250,250,0,181.28,,,,,,,,,,,,
7703,0,2,1.5,2.09,3.08,1.82,3.33,0.77,0.06,0.61,-0,-0,-0,0.77,0,3,101,42,98,507,0.0,121,183,60,124.0,0,1,0,0,0,0,0,0,250,250,0,181.28,,,,,,,,,,,,
7723,0,2,1.5,2.1,3.07,1.82,3.33,0.77,0.06,0.61,-0,-0,-0,0.77,0,3,101,42,98,507,0.0,121,183,60,124.0,0,1,0,0,0,0,0,0,250,250,0,181.28,,,,,,,,,,,,
7743,0,3,1.5,2.09,3.08,1.81,3.33,0.77,0.06,0.61,-0,-0,-0,0.78,0,3,101,42,98,507,0.0,121,183,60,124.0,0,1,0,0,0,0,0,0,250,250,0,181.28,0.0,0.0,0.0,0.0,0,0.0,-1,0.0,0.0,0,0.0,0.129
7763,0,2,1.5,2.1,3.08,1.81,3.33,0.77,0.06,0.61,-0,-0,-0,0.78,0,3,101,42,98,507,0.0,121,183,60,124.0,0,1,0,0,0,0,0,0,250,250,0,181.28,,,,,,,,,,,,
7783,0,3,1.49,2.1,3.08,1.82,3.33,0.77,0.06,0.61,-0,-1,-0,0.77,0,3,101,42,98,507,0.0,121,183,60,124.0,0,1,0,0,0,0,0,0,250,250,0,181.28,,,,,,,,,,,,
7803,0,2,1.5,2.1,3.08,1.83,3.33,0.77,0.06,0.61,-0,-1,-0,0.77,0,3,101,42,98,507,0.0,121,183,60,124.0,0,1,0,0,0,0,0,0,250,250,0,181.28,,,,,,,,,,,,
7823,0,2,1.49,2.09,3.07,1.82,3.33,0.77,0.06,0.61,-0,-1,-0,0.77,0,3,101,42,98,507,0.0,121,183,60,124.0,0,1,0,0,0,0,0,0,250,250,0,181.28,,,,,,,,,,,,
7843,0,2,1.5,2.09,3.08,1.82,3.33,0.77,0.06,0.61,-0,-1,-0,0.77,0,3,101,42,98,507,0.0,121,183,60,124.0,0,1,0,0,0,0,0,0,250,250,0,181.28,0.0,0.0,0.0,0.0,0,0.0,-1,0.0,0.0,0,0.0,0.1307
7863,0,2,1.49,2.1,3.08,1.82,3.32,0.77,0.06,0.61,-0,-1,-0,0.77,0,3,101,42,98,507,0.0,121,183,60,124.0,0,1,0,0,0,0,0,0,250,250,0,181.28,,,,,,,,,,,,
7883,0,0,1.5,2.1,3.07,1.82,3.33,0.77,0.06,0.61,-0,-1,-0,0.77,0,3,101,42,98,507,0.0,121,182,60,123.0,0,1,0,0,0,0,0,0,250,250,0,181.28,,,,,,,,,,,,
7903,0,2,1.5,2.1,3.08,1.82,3.33,0.77,0.06,0.61,-0,-1,-0,0.77,0,3,101,42,98,507,0.0,121,181,60,123.0,0,1,0,0,0,0,0,0,250,250,0,181.28,,,,,,,,,,,,
7923,0,1,1.49,2.1,3.08,1.82,3.33,0.77,0.06,0.61,-0,-1,-0,0.77,0,3,101,42,98,507,0.0,121,181,60,123.0,0,1,0,0,0,0,0,0,250,250,0,181.28,,,,,,,,,,,,
7943,0,3,1.49,2.09,3.07,1.81,3.33,0.77,0.06,0.61,-0,-1,-0,0.77,0,3,101,42,98,507,0.0,121,180,60,124.0,0,1,0,0,0,0,0,0,250,250,0,181.28,0.0,0.0,0.0,0.0,0,0.0,-1,0.0,0.0,0,0.0,0.1324
7963,0,0,1.5,2.1,3.08,1.82,3.33,0.77,0.06,0.61,-0,-1,-0,0.77,0,3,101,42,98,507,0.0,121,180,60,124.0,0,1,0,0,0,0,0,0,250,250,0,181.28,,,,,,,,,,,,
7983,0,1,1.5,2.1,3.07,1.81,3.33,0.77,0.06,0.61,-0,-1,-0,0.77,0,3,101,42,98,507,0.0,121,180,60,124.0,0,1,0,0,0,0,0,0,250,250,0,181.28,,,,,,,,,,,,
8003,0,2,1.5,2.09,3.08,1.82,3.33,0.77,0.06,0.61,-0,-1,-0,0.77,0,3,101,42,98,507,0.0,121,180,60,124.0,0,1,0,0,0,0,0,0,250,250,0,181.28,,,,,,,,,,,,
8023,0,2,1.49,2.1,3.08,1.82,3.33,0.77,0.06,0.61,-0,-1,-0,0.77,0,3,101,42,98,507,0.0,121,180,60,124.0,0,1,0,0,0,0,0,0,250,250,0,181.28,,,,,,,,,,,,
8043,0,2,1.49,2.1,3.08,1.82,3.32,0.77,0.06,0.61,-0,-1,-0,0.78,0,3,101,42,98,507,0.0,121,180,60,124.0,0,1,0,0,0,0,0,0,250,250,0,181.28,0.0,0.0,0.0,0.0,0,0.0,-1,0.0,0.0,0,0.0,0.134
8063,0,2,1.5,2.1,3.07,1.82,3.32,0.77,0.06,0.61,-0,-1,-0,0.78,0,3,101,42,98,507,0.0,121,180,60,123.0,0,1,0,0,0,0,0,0,250,250,0,181.28,,,,,,,,,,,,
8083,0,1,1.49,2.1,3.08,1.82,3.32,0.77,0.06,0.61,-0,-1,-0,0.78,0,3,101,42,98,507,0.0,121,180,60,124.0,0,1,0,0,0,0,0,0,250,250,0,181.28,,,,,,,,,,,,
8103,0,2,1.5,2.09,3.08,1.81,3.33,0.77,0.06,0.61,-0,-1,-0,0.78,0,3,101,42,98,507,0.0,121,180,60,124.0,0,1,0,0,0,0,0,0,250,250,0,181.28,,,,,,,,,,,,
8123,0,2,1.49,2.1,3.07,1.83,3.33,0.77,0.06,0.61,-0,-1,-0,0.78,0,3,101,42,98,507,0.0,121,180,60,124.0,0,1,0,0,0,0,0,0,250,250,0,181.28,,,,,,,,,,,,
8143,0,1,1.5,2.1,3.08,1.82,3.32,0.77,0.06,0.61,-0,-1,-0,0.78,0,3,101,42,98,507,0.0,121,180,60,124.0,0,1,0,0,0,0,0,0,250,250,0,181.28,0.0,0.0,0.0,0.0,0,0.0,-1,0.0,0.0,0,0.0,0.1357
8163,0,1,1.5,2.1,3.08,1.83,3.33,0.77,0.06,0.61,-0,-1,-0,0.78,0,3,101,42,98,507,0.0,121,180,60,124.0,0,1,0,0,0,0,0,0,250,250,0,181.28,,,,,,,,,,,,
8183,0,0,1.5,2.1,3.08,1.81,3.34,0.77,0.06,0.61,-0,-1,-0,0.78,0,3,101,42,98,507,0.0,121,180,60,124.0,0,1,0,0,0,0,0,0,250,250,0,181.28,,,,,,,,,,,,
8203,0,2,1.49,2.1,3.08,1.81,3.33,0.77,0.06,0.61,-0,-1,-0,0.78,0,3,101,42,98,507,0.0,121,179,60,124.0,0,1,0,0,0,0,0,0,250,250,0,181.28,,,,,,,,,,,,
8223,0,1,1.5,2.1,3.07,1.82,3.33,0.77,0.06,0.61,-0,-1,-0,0.78,0,3,101,42,98,507,0.0,121,179,60,123.0,0,1,0,0,0,0,0,0,250,250,0,181.28,,,,,,,,,,,,
8243,0,2,1.49,2.1,3.08,1.83,3.33,0.77,0.06,0.61,-0,-1,-0,0.78,0,3,101,42,98,507,0.0,121,179,60,124.0,0,1,0,0,0,0,0,0,250,250,0,181.28,0.0,0.0,0.0,0.0,0,0.0,-1,0.0,0.0,0,0.0,0.1374
8263,0,1,1.5,2.1,3.08,1.81,3.33,0.77,0.06,0.61,-0,-1,-0,0.78,0,3,101,42,98,507,0.0,121,178,60,124.0,0,1,0,0,0,0,0,0,250,250,0,181.28,,,,,,,,,,,,
8283,0,1,1.5,2.1,3.07,1.82,3.33,0.77,0.06,0.61,-0,-1,-0,0.78,0,3,101,42,98,507,0.0,121,178,60,124.0,0,1,0,0,0,0,0,0,250,250,0,181.28,,,,,,,,,,,,
8303,0,1,1.5,2.1,3.07,1.82,3.33,0.77,0.06,0.61,-0,-1,-0,0.78,0,3,101,42,98,507,0.0,121,178,60,124.0,0,1,0,0,0,0,0,0,250,250,0,181.28,,,,,,,,,,,,
8323,0,1,1.51,2.1,3.08,1.81,3.33,0.77,0.06,0.61,-0,-1,-0,0.78,0,3,101,42,98,507,0.0,121,178,60,124.0,0,1,0,0,0,0,0,0,250,250,0,181.28,,,,,,,,,,,,
8343,0,2,1.49,2.1,3.08,1.82,3.33,0.77,0.06,0.61,-0,-1,-0,0.78,0,3,101,42,98,507,0.0,121,177,60,124.0,0,1,0,0,0,0,0,0,250,250,0,181.28,0.0,0.0,0.0,0.0,0,0.0,-1,0.0,0.0,0,0.0,0.1391
8363,0,0,1.5,2.1,3.08,1.82,3.32,0.77,0.06,0.61,-0,-1,-0,0.78,0,3,101,42,98,507,0.0,121,178,60,124.0,0,1,0,0,0,0,0,0,250,250,0,181.28,,,,,,,,,,,,
8383,0,1,1.5,2.1,3.08,1.81,3.33,0.78,0.06,0.61,-0,-1,-0,0.78,0,3,101,42,98,507,0.0,121,178,60,124.0,0,1,0,0,0,0,0,0,250,250,0,181.28,,,,,,,,,,,,
8403,0,2,1.49,2.1,3.08,1.81,3.33,0.78,0.06,0.61,-0,-1,-0,0.78,0,3,101,42,98,507,0.0,121,178,60,124.0,0,1,0,0,0,0,0,0,250,250,0,-5.59,,,,,,,,,,,,
8423,0,2,1.49,2.1,3.08,1.81,3.33,0.78,0.06,0.61,-0,-1,-0,0.78,0,3,101,42,98,507,0.0,121,178,60,123.0,0,1,0,0,0,0,0,0,250,250,0,181.28,,,,,,,,,,,,
8443,0,3,1.49,2.1,3.08,1.83,3.33,0.78,0.06,0.61,-0,-1,-0,0.78,0,3,101,42,98,507,0.0,121,178,60,124.0,0,1,0,0,0,0,0,0,250,250,0,181.28,0.0,0.0,0.0,0.0,0,0.0,-1,0.0,0.0,0,0.0,0.1407
8463,0,2,1.49,2.1,3.08,1.82,3.32,0.78,0.06,0.61,-0,-1,-0,0.78,0,3,101,42,98,507,0.0,121,178,60,124.0,0,1,0,0,0,0,0,0,250,250,0,181.28,,,,,,,,,,,,
8483,0,3,1.49,2.1,3.08,1.81,3.33,0.78,0.06,0.61,-0,-1,-0,0.78,0,3,101,42,98,507,0.0,121,178,60,124.0,0,1,0,0,0,0,0,0,250,250,0,181.28,,,,,,,,,,,,
8503,0,1,1.5,2.1,3.07,1.82,3.33,0.78,0.06,0.61,-0,-1,-0,0.78,0,3,101,42,98,507,0.0,121,178,60,124.0,0,1,0,0,0,0,0,0,250,250,0,181.28,,,,,,,,,,,,
8523,0,3,1.49,2.1,3.07,1.82,3.33,0.78,0.06,0.61,-0,-1,-0,0.78,0,3,101,42,98,507,0.0,121,178,60,123.0,0,1,0,0,0,0,0,0,250,250,0,181.28,,,,,,,,,,,,
8543,0,2,1.5,2.09,3.08,1.82,3.33,0.78,0.06,0.61,-0,-1,-0,0.78,0,3,101,42,98,507,0.0,121,178,60,123.0,0,1,0,0,0,0,0,0,250,250,0,181.28,0.0,0.0,0.0,0.0,0,0.0,-1,0.0,0.0,0,0.0,0.1424
8563,0,2,1.49,2.1,3.08,1.81,3.33,0.78,0.06,0.61,-0,-1,-0,0.78,0,3,101,42,98,507,0.0,121,178,60,123.0,0,1,0,0,0,0,0,0,250,250,0,181.28,,,,,,,,,,,,
8583,0,2,1.49,2.1,3.08,1.81,3.32,0.78,0.06,0.61,-0,-1,-0,0.78,0,3,101,42,98,507,0.0,121,178,60,123.0,0,1,0,0,0,0,0,0,250,250,0,181.28,,,,,,,,,,,,
8603,0,0,1.5,2.1,3.07,1.82,3.32,0.77,0.06,0.61,-0,-1,-0,0.78,0,3,101,42,98,507,0.0,121,178,60,123.0,0,1,0,0,0,0,0,0,250,250,0,181.28,,,,,,,,,,,,
8623,0,2,1.49,2.09,3.08,1.82,3.33,0.77,0.06,0.61,-0,-1,-0,0.78,0,3,101,42,98,507,0.0,121,178,60,123.0,0,1,0,0,0,0,0,0,250,250,0,181.28,,,,,,,,,,,,
8643,0,3,1.49,2.09,3.07,1.82,3.33,0.78,0.06,0.61,-0,-1,-0,0.78,0,3,101,42,98,507,0.0,121,178,60,123.0,0,1,0,0,0,0,0,0,250,250,0,181.28,0.0,0.0,0.0,0.0,0,0.0,-1,0.0,0.0,0,0.0,0.144
8663,0,0,1.49,2.1,3.08,1.81,3.33,0.78,0.06,0.61,-0,-1,-0,0.78,0,3,101,42,98,507,0.0,121,178,60,123.0,0,1,0,0,0,0,0,0,250,250,0,181.28,,,,,,,,,,,,
8683,0,2,1.5,2.1,3.07,1.82,3.33,0.78,0.06,0.61,-0,-1,-0,0.78,0,3,101,42,98,507,0.0,121,178,60,123.0,0,1,0,0,0,0,0,0,250,250,0,181.28,,,,,,,,,,,,
8703,0,0,1.5,2.1,3.08,1.82,3.33,0.78,0.06,0.61,-0,-1,-0,0.78,0,3,101,42,98,507,0.0,121,175,60,123.0,0,1,0,0,0,0,0,0,250,250,0,181.28,,,,,,,,,,,,
8723,0,2,1.49,2.1,3.08,1.81,3.33,0.78,0.06,0.61,-0,-1,-0,0.78,0,3,101,42,98,507,0.0,121,175,60,123.0,0,1,0,0,0,0,0,0,250,250,0,181.28,,,,,,,,,,,,
8743,0,3,1.49,2.09,3.07,1.81,3.33,0.78,0.06,0.61,-0,-1,-0,0.78,0,3,101,42,98,507,0.0,121,175,60,123.0,0,1,0,0,0,0,0,0,250,250,0,181.28,0.0,0.0,0.0,0.0,0,0.0,-1,0.0,0.0,0,0.0,0.1457
8763,0,2,1.49,2.1,3.08,1.82,3.33,0.78,0.06,0.61,-0,-1,-0,0.78,0,3,101,42,98,507,0.0,121,175,60,123.0,0,1,0,0,0,0,0,0,250,250,0,181.28,,,,,,,,,,,,
8783,0,2,1.49,2.1,3.07,1.81,3.32,0.78,0.06,0.61,-0,-1,-0,0.78,0,3,101,42,98,507,0.0,121,175,60,123.0,0,1,0,0,0,0,0,0,250,250,0,181.28,,,,,,,,,,,,
8803,0,2,1.5,2.1,3.07,1.82,3.32,0.78,0.06,0.61,-0,-1,-0,0.78,0,3,101,42,98,507,0.0,123,175,60,113.0,0,1,0,0,0,0,0,0,250,250,0,181.28,,,,,,,,,,,,
8823,0,2,1.49,2.09,3.07,1.81,3.33,0.79,0.06,0.62,-0,-1,-0,0.79,0,3,101,42,98,506,0.0,125,175,60,93.0,0,1,0,0,0,0,0,0,250,250,0,181.28,,,,,,,,,,,,
8843,0,1,1.5,2.1,3.07,1.81,3.33,0.79,0.06,0.63,-0,-1,-0,0.79,0,3,101,42,98,505,0.0,129,175,60,101.0,0,1,0,0,0,0,0,0,250,250,0,181.28,0.0,0.0,0.0,0.0,0,0.0,-1,0.0,0.0,0,0.0,0.1474
8863,0,2,1.49,2.1,3.07,1.82,3.32,0.79,0.06,0.63,-0,-1,-0,0.79,0,3,101,42,98,504,0.0,132,175,60,103.0,0,1,0,0,0,0,0,0,250,250,0,181.28,,,,,,,,,,,,
8883,0,2,1.5,2.09,3.08,1.82,3.33,0.79,0.06,0.63,-0,-1,-1,0.79,0,3,101,42,98,503,0.0,130,175,60,106.0,0,1,0,0,0,0,0,0,250,250,0,181.28,,,,,,,,,,,,
8903,0,1,1.5,2.1,3.07,1.81,3.33,0.78,0.06,0.63,-0,-1,-1,0.79,0,3,101,42,98,502,0.0,131,175,60,107.0,0,1,0,0,0,0,0,0,250,250,0,181.28,,,,,,,,,,,,
8923,0,2,1.49,2.1,3.07,1.82,3.32,0.78,0.06,0.63,-0,-1,-0,0.78,0,3,101,42,97,502,0.0,132,175,60,107.0,0,1,0,0,0,0,0,0,250,250,0,181.28,,,,,,,,,,,,
8943,0,2,1.49,2.1,3.08,1.82,3.33,0.78,0.06,0.62,-0,-1,-0,0.78,0,3,101,42,96,501,0.0,131,174,60,107.0,0,1,0,0,0,0,0,0,250,250,0,181.28,0.0,0.0,0.0,0.0,0,0.0,-1,0.0,0.0,0,0.0,0.149
8963,0,2,1.5,2.09,3.07,1.81,3.33,0.78,0.06,0.62,-0,-1,-1,0.78,0,3,101,42,98,501,0.0,133,173,60,105.0,0,1,0,0,0,0,0,0,250,250,0,181.28,,,,,,,,,,,,
8983,0,1,1.5,2.1,3.07,1.81,3.33,0.78,0.06,0.62,-0,-1,-0,0.78,0,3,101,42,98,502,0.0,134,173,60,109.0,0,1,0,0,0,0,0,0,250,250,0,181.28,,,,,,,,,,,,
9003,0,2,1.5,2.1,3.08,1.82,3.32,0.78,0.06,0.62,-0,-0,-0,0.79,0,3,101,42,97,502,0.0,131,173,60,111.0,0,1,0,0,0,0,0,0,250,250,0,181.28,,,,,,,,,,,,
9023,0,2,1.49,2.1,3.08,1.81,3.33,0.77,0.06,0.61,-0,-0,-0,0.78,0,3,101,42,96,502,0.0,130,173,60,111.0,0,1,0,0,0,0,0,0,250,250,0,181.28,,,,,,,,,,,,
9043,0,2,1.49,2.1,3.07,1.82,3.32,0.77,0.06,0.61,-0,-0,-0,0.77,0,3,101,42,97,502,0.0,134,173,60,108.0,0,1,0,0,0,0,0,0,250,250,0,181.28,0.0,0.0,0.0,0.0,0,0.0,-1,0.0,0.0,0,0.0,0.1507
9063,0,2,1.49,2.1,3.07,1.82,3.33,0.77,0.06,0.62,-0,-1,-0,0.77,0,3,101,42,98,502,0.0,134,173,60,110.0,0,1,0,0,0,0,0,0,250,250,0,181.28,,,,,,,,,,,,
9083,0,1,1.49,2.09,3.07,1.82,3.32,0.77,0.06,0.62,0,-0,-0,0.77,0,3,101,42,97,502,0.0,132,173,60,112.0,0,1,0,0,0,0,0,0,250,250,0,-5.59,,,,,,,,,,,,
9103,0,1,1.5,2.1,3.07,1.82,3.32,0.77,0.06,0.62,-0,-0,-0,0.77,0,3,101,42,96,502,0.0,131,173,60,112.0,0,1,0,0,0,0,0,0,250,250,0,181.28,,,,,,,,,,,,
9123,0,0,1.5,2.1,3.08,1.81,3.33,0.77,0.06,0.62,-0,-1,-0,0.77,0,3,101,42,97,502,0.0,131,173,60,109.0,0,1,0,0,0,0,0,0,250,250,0,181.28,,,,,,,,,,,,
9143,0,2,1.49,2.09,3.08,1.82,3.32,0.77,0.07,0.62,-0,-0,-0,0.77,0,0,101,42,98,502,0.0,132,173,60,111.0,0,1,0,0,0,0,0,0,250,250,0,181.28,0.0,0.0,0.0,0.0,0,0.0,-1,0.0,0.0,0,0.0,0.1524
9163,0,0,1.5,2.1,3.07,1.81,3.32,0.79,0.06,0.64,-0,-1,-0,0.79,0,0,101,42,97,502,0.0,128,173,60,112.0,0,1,0,0,0,0,0,0,250,250,0,181.28,,,,,,,,,,,,
9183,0,2,1.49,2.1,3.08,1.81,3.32,0.79,0.06,0.64,-0,-1,-0,0.79,0,3,101,42,96,502,0.0,131,173,60,112.0,0,1,0,0,0,0,0,0,250,250,0,181.28,,,,,,,,,,,,
9203,0,2,1.49,2.09,3.08,1.82,3.32,0.79,0.06,0.64,-0,-1,-0,0.79,0,3,101,42,98,502,0.0,128,173,60,111.0,0,1,0,0,0,0,0,0,250,250,0,181.28,,,,,,,,,,,,
9223,0,2,1.5,2.1,3.07,1.82,3.32,0.78,0.06,0.63,-0,-1,-1,0.78,0,3,101,42,98,502,0.0,128,172,60,112.0,0,1,0,0,0,0,0,0,250,250,0,181.28,,,,,,,,,,,,
9243,0,3,1.49,2.1,3.08,1.81,3.32,0.78,0.06,0.63,-0,-1,-0,0.79,0,3,101,42,97,502,0.0,126,173,60,112.0,0,1,0,0,0,0,0,0,250,250,0,181.28,0.0,0.0,0.0,0.0,0,0.0,-1,0.0,0.0,0,0.0,0.154
9263,0,2,1.49,2.09,3.08,1.81,3.33,0.78,0.06,0.64,-0,-1,-0,0.78,0,3,101,42,96,502,0.0,127,173,60,110.0,0,1,0,0,0,0,0,0,250,250,0,181.28,,,,,,,,,,,,
9283,0,2,1.49,2.1,3.07,1.81,3.33,0.78,0.06,0.62,-0,-0,-0,0.78,0,3,101,42,98,502,0.0,131,173,60,110.0,0,1,0,0,0,0,0,0,250,250,0,181.28,,,,,,,,,,,,
9303,0,0,1.5,2.1,3.07,1.81,3.32,0.77,0.06,0.61,-0,-0,-1,0.77,0,3,101,42,97,502,0.0,128,173,60,112.0,0,1,0,0,0,0,0,0,250,250,0,181.28,,,,,,,,,,,,
9323,0,2,1.49,2.09,3.08,1.81,3.32,0.77,0.06,0.62,-0,-1,-1,0.77,0,3,101,42,96,502,0.0,128,173,60,111.0,0,1,0,0,0,0,0,0,250,250,0,181.28,,,,,,,,,,,,
9343,0,0,1.5,2.1,3.08,1.82,3.32,0.77,0.06,0.62,-0,-0,-1,0.77,0,3,101,42,97,502,0.0,131,173,60,110.0,0,1,0,0,0,0,0,0,250,250,0,181.28,0.0,0.0,0.0,0.0,0,0.0,-1,0.0,0.0,0,0.0,0.1557
9363,0,2,1.49,2.09,3.07,1.82,3.32,0.77,0.06,0.62,-0,-1,-0,0.77,0,3,101,42,98,502,0.0,131,173,60,111.0,0,1,0,0,0,0,0,0,250,250,0,181.28,,,,,,,,,,,,
9383,0,3,1.49,2.1,3.08,1.82,3.32,0.78,0.07,0.61,-0,-0,-1,0.78,0,3,101,42,97,502,0.0,127,173,60,113.0,0,1,0,0,0,0,0,0,250,250,0,181.28,,,,,,,,,,,,
9403,0,1,1.49,2.1,3.08,1.82,3.32,0.78,0.06,0.6,-0,-0,-1,0.78,0,3,101,42,96,502,0.0,127,173,60,110.0,0,1,0,0,0,0,0,0,250,250,0,181.28,,,,,,,,,,,,
9423,0,0,1.5,2.1,3.07,1.82,3.32,0.77,0.06,0.6,-0,-0,-1,0.78,0,3,101,42,98,502,0.0,128,171,60,110.0,0,1,0,0,0,0,0,0,250,250,0,181.28,,,,,,,,,,,,
9443,0,1,1.5,2.11,3.07,1.83,3.33,0.78,0.06,0.61,-0,-0,-0,0.78,0,3,101,42,98,502,0.0,129,170,60,112.0,0,1,0,0,0,0,0,0,250,250,0,181.28,0.0,0.0,0.0,0.0,0,0.0,-1,0.0,0.0,0,0.0,0.1574
9463,0,3,1.49,2.1,3.07,1.82,3.32,0.77,0.06,0.6,-0,-0,-0,0.78,0,3,101,42,96,502,0.0,127,170,60,112.0,0,1,0,0,0,0,0,0,250,250,0,181.28,,,,,,,,,,,,
9483,0,1,1.5,2.1,3.07,1.82,3.33,0.78,0.07,0.59,-0,-0,-1,0.78,119,3,101,42,97,502,0.0,131,170,60,106.0,0,1,400,414,0,0,0,0,250,250,0,181.28,,,,,,,,,,,,
9503,0,2,1.49,2.1,3.08,1.82,3.33,0.78,0.06,0.59,-0,-1,-0,0.78,119,3,101,42,98,502,0.0,130,352,60,109.0,0,1,400,423,0,0,0,0,250,250,0,181.28,,,,,,,,,,,,
9523,0,1,1.5,2.1,3.08,1.81,3.33,0.79,0.07,0.59,0,-0,-0,0.79,119,3,101,42,97,502,0.0,127,453,60,111.0,0,1,400,414,0,0,0,0,250,250,0,181.28,,,,,,,,,,,,
9543,0,2,1.49,2.1,3.08,1.81,3.33,0.77,0.07,0.6,-0,-0,-0,0.77,402,3,101,42,96,502,0.0,127,466,60,109.0,0,1,400,407,0,0,0,0,250,250,0,181.28,0.0,0.0,0.0,0.0,0,0.0,-1,0.0,0.0,0,0.0,0.159
9563,0,3,1.49,2.1,3.08,1.81,3.33,0.77,0.07,0.59,-0,-0,0,0.77,402,3,101,42,98,502,0.0,131,463,60,107.0,0,1,400,423,6,0,0,0,250,250,0,181.28,,,,,,,,,,,,
9583,0,1,1.49,2.09,3.08,1.82,3.32,0.77,0.06,0.59,-0,-0,-0,0.78,402,3,101,42,98,502,0.0,131,464,60,109.0,0,1,400,423,6,0,0,0,250,250,0,181.28,,,,,,,,,,,,
9603,0,2,1.5,2.1,3.07,1.82,3.32,0.78,0.06,0.6,0,-0,0,0.78,402,3,101,42,97,503,0.0,129,462,60,110.0,0,1,166,414,6,0,0,0,250,250,0,181.28,,,,,,,,,,,,
9623,0,1,1.49,2.1,3.07,1.82,3.33,0.78,0.07,0.59,0,-0,-0,0.78,423,3,101,42,96,503,0.0,133,462,60,107.0,0,1,400,407,6,0,0,0,250,250,0,181.28,,,,,,,,,,,,
9643,0,1,1.49,2.1,3.08,1.81,3.32,0.77,0.06,0.59,0,-0,0,0.78,423,3,101,42,98,503,0.0,131,462,60,108.0,0,1,400,423,6,0,0,0,250,250,0,181.28,0.0,0.0,0.0,0.0,0,0.0,-1,0.0,0.0,0,0.0,0.1607
9663,0,0,1.49,2.1,3.08,1.82,3.32,0.78,0.06,0.61,0,-0,0,0.78,423,3,101,42,97,503,0.0,132,465,60,110.0,0,1,400,423,6,0,0,0,250,250,0,181.28,,,,,,,,,,,,
9683,0,-0,1.5,2.09,3.07,1.82,3.32,0.78,0.06,0.6,0,-0,1,0.78,423,3,101,42,96,503,0.0,128,464,60,110.0,0,1,152,407,6,0,0,0,250,250,0,181.28,,,,,,,,,,,,
9703,0,-1,1.49,2.1,3.08,1.82,3.33,0.78,0.06,0.6,0,-0,0,0.78,408,3,101,42,97,503,0.0,133,464,60,108.0,0,1,400,414,6,0,0,0,250,250,0,181.28,,,,,,,,,,,,
9723,0,-2,1.5,2.09,3.08,1.81,3.33,0.78,0.06,0.6,0,-1,0,0.78,408,0,101,42,98,503,0.0,133,462,60,109.0,0,1,400,423,6,0,0,0,250,250,0,181.28,,,,,,,,,,,,
9743,0,-1,1.5,2.09,3.08,1.81,3.33,0.79,0.06,0.6,0,-1,0,0.8,408,3,101,42,97,503,0.0,130,464,60,110.0,0,1,400,414,6,0,0,0,250,250,0,181.28,0.0,0.0,0.0,0.0,0,0.0,-1,0.0,0.0,0,0.0,0.1624
9763,0,-0,1.5,2.09,3.07,1.82,3.32,0.79,0.06,0.61,0,-1,-0,0.79,420,3,101,42,96,503,0.0,131,464,60,109.0,0,1,400,407,6,0,0,0,250,250,0,181.28,,,,,,,,,,,,
9783,0,0,1.49,2.1,3.08,1.82,3.32,0.78,0.06,0.61,0,-1,0,0.79,420,3,101,42,98,504,0.0,130,463,60,108.0,0,1,400,423,6,0,0,0,250,250,0,181.28,,,,,,,,,,,,
9803,0,-2,1.5,2.09,3.07,1.81,3.33,0.78,0.06,0.61,0,-1,-0,0.79,420,3,101,42,98,503,0.0,131,463,60,110.0,0,1,400,423,6,0,0,0,250,250,0,181.28,,,,,,,,,,,,
9823,0,1,1.49,2.1,3.08,1.81,3.33,0.78,0.06,0.61,0,-1,-0,0.78,420,0,101,42,97,504,0.0,130,464,60,109.0,0,1,400,414,6,0,0,0,250,250,0,181.28,,,,,,,,,,,,
9843,0,0,1.49,2.1,3.07,1.82,3.32,0.78,0.06,0.61,0,-1,0,0.79,402,3,101,42,96,504,0.0,132,463,60,107.0,0,1,400,407,6,0,0,0,250,250,0,181.28,0.0,0.0,0.0,0.0,0,0.0,-1,0.0,0.0,0,0.0,0.164
9863,0,1,1.49,2.09,3.07,1.82,3.32,0.78,0.06,0.6,0,-1,-0,0.79,402,3,101,42,98,504,0.0,135,463,60,108.0,0,1,400,423,6,0,0,0,250,250,0,181.28,,,,,,,,,,,,
9883,0,0,1.49,2.1,3.08,1.81,3.33,0.78,0.07,0.59,0,-1,0,0.78,402,3,101,42,97,504,0.0,133,463,60,109.0,0,1,400,414,6,0,0,0,250,250,0,181.28,,,,,,,,,,,,
9903,0,-0,1.49,2.09,3.07,1.82,3.33,0.78,0.06,0.6,0,-1,-0,0.78,424,3,101,42,96,504,0.0,132,465,60,109.0,0,1,400,407,6,0,0,0,250,250,0,181.28,,,,,,,,,,,,
9923,0,-0,1.5,2.09,3.08,1.82,3.33,0.78,0.07,0.61,0,-1,-0,0.79,424,3,101,42,97,504,0.0,136,463,60,107.0,0,1,400,414,6,0,0,0,250,250,0,181.28,,,,,,,,,,,,
9943,0,0,1.49,2.09,3.08,1.82,3.32,0.78,0.07,0.61,0,-1,-0,0.78,424,3,101,42,98,504,0.0,136,462,60,109.0,0,1,400,423,6,0,0,0,250,250,0,181.28,0.0,0.0,0.0,0.0,0,0.0,-1,0.0,0.0,0,0.0,0.1657
9963,0,1,1.49,2.1,3.08,1.81,3.33,0.79,0.07,0.6,0,-1,-0,0.79,424,3,101,42,97,504,0.0,130,464,60,110.0,0,1,400,414,6,0,0,0,250,250,0,181.28,,,,,,,,,,,,
9983,0,1,1.49,2.1,3.08,1.81,3.32,0.79,0.07,0.61,0,-1,-1,0.79,401,0,101,42,96,504,0.0,133,464,60,107.0,0,1,400,407,6,0,0,0,250,250,0,181.28,,,,,,,,,,,,
10003,0,0,1.49,2.1,3.07,1.82,3.32,0.78,0.06,0.61,0,-1,-0,0.78,401,3,101,42,98,504,0.0,134,466,60,107.0,0,1,400,423,6,0,0,0,250,250,0,181.28,,,,,,,,,,,,
10023,0,0,1.49,2.1,3.07,1.82,3.33,0.78,0.06,0.62,0,-0,-0,0.79,401,3,101,42,98,504,0.0,133,463,60,109.0,0,1,400,423,6,0,0,0,250,250,0,181.28,,,,,,,,,,,,
10043,0,0,1.5,2.09,3.08,1.81,3.33,0.78,0.07,0.61,0,-0,-0,0.78,401,3,101,42,96,504,0.0,133,464,60,109.0,0,1,400,407,6,0,0,0,250,250,0,181.28,0.0,0.0,0.0,0.0,0,0.0,-1,0.0,0.0,0,0.0,0.1674
10063,0,-1,1.5,2.1,3.08,1.81,3.33,0.78,0.06,0.6,0,-1,-0,0.78,425,0,101,42,97,505,0.0,137,464,60,107.0,0,1,400,414,6,0,0,0,250,250,0,181.28,,,,,,,,,,,,
10083,0,0,1.49,2.1,3.08,1.82,3.33,0.78,0.06,0.6,0,-0,-0,0.78,425,3,101,42,98,505,0.0,136,464,60,108.0,0,1,400,423,6,0,0,0,250,250,0,181.28,,,,,,,,,,,,
10103,0,-0,1.49,2.1,3.08,1.82,3.33,0.78,0.06,0.61,-0,-1,0,0.78,425,3,101,42,97,505,0.0,132,463,60,110.0,0,1,400,414,6,0,0,0,250,250,0,181.28,,,,,,,,,,,,
10123,0,-1,1.5,2.1,3.08,1.81,3.33,0.77,0.07,0.59,0,0,0,0.78,397,3,101,42,97,505,0.0,131,463,60,108.0,0,1,400,414,6,0,0,0,250,250,0,181.28,,,,,,,,,,,,
10143,0,0,1.5,2.1,3.08,1.82,3.32,0.78,0.06,0.58,0,-0,0,0.78,397,3,101,42,98,505,0.0,137,465,60,106.0,0,1,400,423,6,0,0,0,250,250,0,181.28,0.0,0.0,0.0,0.0,0,0.0,-1,0.0,0.0,0,0.0,0.169
10163,0,0,1.49,2.1,3.07,1.82,3.33,0.78,0.07,0.59,-0,-1,-0,0.78,397,3,101,42,98,505,0.0,135,464,60,108.0,0,1,400,423,6,0,0,0,250,250,0,181.28,,,,,,,,,,,,
10183,0,-1,1.5,2.1,3.08,1.82,3.33,0.78,0.05,0.61,-0,-0,1,0.78,397,3,101,42,98,505,0.0,132,462,60,110.0,0,1,400,423,6,0,0,0,250,250,0,181.28,,,,,,,,,,,,
10203,0,0,1.49,2.1,3.07,1.81,3.32,0.78,0.06,0.61,-0,-0,0,0.78,428,3,101,42,98,505,0.0,133,466,60,107.0,0,1,400,423,6,0,0,0,250,250,0,181.28,,,,,,,,,,,,
10223,0,-1,1.5,2.1,3.08,1.82,3.32,0.77,0.06,0.61,-0,-1,0,0.78,428,3,101,42,98,505,0.0,136,464,60,108.0,0,1,400,423,6,0,0,0,250,250,0,181.28,,,,,,,,,,,,
10243,0,1,1.49,2.1,3.07,1.81,3.33,0.77,0.06,0.6,-0,-0,0,0.77,428,3,101,42,98,506,0.0,135,464,60,109.0,0,1,400,423,6,0,0,0,250,250,0,181.28,0.0,0.0,0.0,0.0,0,0.0,-1,0.0,0.0,0,0.0,0.1707
10263,0,-1,1.5,2.1,3.08,1.81,3.33,0.77,0.05,0.62,-0,-0,1,0.77,428,3,101,42,98,506,0.0,133,466,60,109.0,0,1,400,423,6,0,0,0,250,250,0,181.28,,,,,,,,,,,,
10283,0,0,1.49,2.1,3.08,1.81,3.33,0.78,0.06,0.61,0,-0,1,0.78,407,3,101,42,98,506,0.0,136,462,60,107.0,0,1,400,423,6,0,0,0,250,250,0,181.28,,,,,,,,,,,,
10303,0,0,1.49,2.1,3.08,1.82,3.33,0.77,0.05,0.6,0,-0,1,0.78,407,3,101,42,98,505,0.0,138,463,60,108.0,0,1,400,423,6,0,0,0,250,250,0,181.28,,,,,,,,,,,,
10323,0,1,1.49,2.1,3.08,1.82,3.32,0.78,0.06,0.6,0,-0,0,0.78,407,3,101,42,98,505,0.0,133,466,60,110.0,0,1,400,423,6,0,0,0,250,250,0,181.28,,,,,,,,,,,,
10343,0,-0,1.49,2.1,3.08,1.82,3.32,0.78,0.05,0.62,-0,-1,0,0.78,421,3,101,42,98,505,0.0,133,463,60,109.0,0,1,400,423,6,0,0,0,250,250,0,181.28,0.0,0.0,0.0,0.0,0,0.0,-1,0.0,0.0,0,0.0,0.1724
10363,0,1,1.49,2.1,3.08,1.82,3.33,0.78,0.05,0.62,-0,-0,0,0.78,421,3,101,42,98,505,0.0,132,463,60,108.0,0,1,400,423,6,0,0,0,250,250,0,181.28,,,,,,,,,,,,
10383,0,-1,1.5,2.1,3.07,1.81,3.33,0.78,0.06,0.62,-0,-0,0,0.78,421,3,101,42,98,505,0.0,134,462,60,109.0,0,1,400,423,6,0,0,0,250,250,0,181.28,,,,,,,,,,,,
10403,0,4,1.49,2.09,3.08,1.81,3.32,0.78,0.05,0.62,-0,-1,-0,0.78,421,3,101,42,98,506,0.0,132,467,60,109.0,0,1,400,423,6,0,0,0,250,250,0,181.28,,,,,,,,,,,,
10423,0,1,1.49,2.1,3.08,1.81,3.33,0.78,0.05,0.63,0,-1,0,0.79,402,3,101,42,98,505,0.0,135,460,60,105.0,0,1,400,423,6,0,0,0,250,250,0,-5.59,,,,,,,,,,,,
10443,0,0,1.49,2.1,3.07,1.82,3.32,0.78,0.06,0.62,0,-0,-0,0.79,402,3,101,42,98,505,0.0,138,464,60,107.0,0,1,400,423,6,0,0,0,250,250,0,181.28,0.0,0.0,0.0,0.0,0,0.0,-1,0.0,0.0,0,0.0,0.174
10463,0,5,1.49,2.09,3.07,1.81,3.32,0.78,0.06,0.62,0,-1,0,0.78,402,3,101,42,98,505,0.0,136,463,60,109.0,0,1,400,423,6,0,0,0,250,250,0,181.28,,,,,,,,,,,,
10483,0,-2,1.5,2.1,3.07,1.82,3.32,0.77,0.06,0.61,0,-0,-1,0.77,457,3,101,42,98,504,0.0,135,456,60,106.0,0,1,400,423,6,0,0,0,250,250,0,-5.59,,,,,,,,,,,,
10503,0,-1,1.5,2.1,3.07,1.82,3.33,0.77,0.05,0.61,0,-1,0,0.77,457,3,101,42,98,504,0.0,136,467,60,107.0,0,1,400,423,6,0,0,0,250,250,0,181.28,,,,,,,,,,,,
10523,0,4,1.5,2.1,3.07,1.81,3.33,0.78,0.06,0.6,0,-0,-0,0.78,457,3,101,42,98,504,0.0,137,462,60,109.0,0,1,180,423,6,0,0,0,250,250,0,181.28,,,,,,,,,,,,
10543,0,0,1.5,2.1,3.07,1.82,3.32,0.79,0.06,0.62,0,-1,0,0.79,500,3,101,42,98,504,0.0,133,456,60,107.0,0,1,400,423,6,0,0,0,250,250,0,-5.59,0.0,0.0,0.0,0.0,0,0.0,-1,0.0,0.0,0,0.0,0.1757
10563,0,-1,1.5,2.1,3.07,1.82,3.32,0.78,0.07,0.61,0,-1,-1,0.78,500,3,101,42,98,504,0.0,138,466,60,108.0,0,1,400,423,7,0,0,0,250,250,0,181.28,,,,,,,,,,,,
10583,0,-0,1.5,2.09,3.08,1.82,3.33,0.78,0.06,0.63,0,-1,0,0.78,500,25,101,42,98,505,0.0,136,462,60,110.0,0,1,400,423,7,0,0,0,250,250,0,181.28,,,,,,,,,,,,
10603,0,-1,1.5,2.09,3.08,1.81,3.33,0.78,0.07,0.61,0,-1,-0,0.78,586,44,101,42,98,505,0.0,132,462,60,110.0,0,1,180,423,7,0,0,0,250,250,0,181.28,,,,,,,,,,,,
10623,0,0,1.49,2.1,3.08,1.81,3.33,0.77,0.06,0.64,0,-1,0,0.78,586,14,101,42,98,505,0.0,133,465,60,113.0,0,1,400,423,7,0,0,0,250,250,0,181.28,,,,,,,,,,,,
10643,0,4,1.49,2.1,3.08,1.82,3.33,0.77,0.05,0.64,-0,-1,0,0.78,817,3,101,42,98,505,0.0,132,466,60,113.0,0,1,400,423,7,0,0,0,250,250,0,181.28,0.0,0.0,0.0,0.0,0,0.0,-1,0.0,0.0,0,0.0,0.1774
10663,0,4,1.49,2.1,3.07,1.81,3.32,0.77,0.05,0.62,-0,-0,0,0.77,1117,3,101,42,98,504,0.0,132,470,60,111.0,0,1,184,436,7,0,0,0,250,250,0,-5.59,,,,,,,,,,,,
10683,0,8,1.49,2.1,3.08,1.81,3.33,0.76,0.05,0.62,-0,-1,0,0.76,980,3,101,42,98,503,0.0,134,462,60,111.0,0,1,360,414,18,0,0,0,250,250,0,-5.59,,,,,,,,,,,,
10703,0,10,1.49,2.1,3.08,1.81,3.33,0.76,0.06,0.61,-0,-0,-0,0.76,980,3,101,42,98,502,0.0,134,466,60,109.0,0,1,360,423,18,0,0,0,250,250,0,-5.59,,,,,,,,,,,,
10723,0,11,1.49,2.1,3.08,1.82,3.32,0.76,0.06,0.61,-0,-0,-0,0.76,980,3,101,42,98,502,0.0,135,463,60,107.0,0,1,360,423,18,0,0,0,250,250,0,-5.59,,,,,,,,,,,,
10743,0,11,1.5,2.09,3.07,1.82,3.32,0.77,0.06,0.59,-0,-0,0,0.77,707,3,101,42,98,501,0.0,134,462,60,105.0,0,1,400,423,18,0,0,0,250,250,0,-5.59,0.0,0.0,0.0,0.0,0,0.0,-1,0.0,0.0,0,0.0,0.179
10763,0,14,1.49,2.1,3.07,1.81,3.33,0.77,0.06,0.58,-0,-0,-0,0.77,707,3,101,42,98,500,0.0,134,466,60,105.0,0,1,400,423,11,0,0,0,250,250,0,181.28,,,,,,,,,,,,
10783,0,12,1.5,2.1,3.07,1.82,3.33,0.77,0.06,0.6,-0,-1,0,0.77,554,3,101,42,98,500,0.0,134,460,60,103.0,0,1,400,423,11,0,0,0,250,250,0,-5.59,,,,,,,,,,,,
10803,0,14,1.49,2.09,3.08,1.82,3.32,0.77,0.06,0.58,-0,0,-0,0.77,554,3,101,42,98,500,0.0,135,464,60,101.0,0,1,400,423,11,0,0,0,250,250,0,181.28,,,,,,,,,,,,
10823,0,11,1.49,2.1,3.08,1.81,3.33,0.78,0.06,0.59,-0,-1,0,0.78,554,3,101,42,98,500,0.0,133,464,60,102.0,0,1,400,423,11,0,0,0,250,250,0,181.28,,,,,,,,,,,,
10843,0,9,1.5,2.1,3.07,1.82,3.32,0.74,0.06,0.61,-0,0,-0,0.75,554,3,101,42,98,500,0.0,132,466,60,103.0,0,1,400,423,11,0,0,0,250,250,0,414.87,0.0,0.0,0.0,0.0,0,0.0,-1,0.0,0.0,0,0.0,0.1807
10863,0,9,1.49,2.09,3.08,1.81,3.33,0.75,0.04,0.57,-0,0,1,0.75,457,3,101,42,98,500,0.0,137,462,60,91.0,0,1,400,423,7,0,0,0,250,250,0,181.28,,,,,,,,,,,,
10883,0,10,1.49,2.1,3.07,1.82,3.32,0.75,0.07,0.6,-0,0,-1,0.75,457,7,101,42,98,500,0.0,140,462,60,94.0,0,1,400,423,7,0,0,0,250,250,0,181.28,,,,,,,,,,,,
10903,0,7,1.49,2.1,3.07,1.82,3.33,0.73,0.06,0.62,-0,-1,-0,0.74,517,10,101,42,98,500,0.0,142,461,60,99.0,0,1,400,423,7,0,0,0,250,250,0,414.87,,,,,,,,,,,,
10923,0,5,1.5,2.1,3.07,1.81,3.33,0.75,0.06,0.58,-0,0,-1,0.75,517,0,101,42,98,500,0.0,143,462,60,103.0,0,1,400,423,7,0,0,0,250,250,0,181.28,,,,,,,,,,,,
10943,0,8,1.49,2.1,3.08,1.82,3.32,0.74,0.07,0.6,-0,-1,-0,0.74,854,6,101,42,98,500,0.0,143,462,60,105.0,0,1,400,423,7,0,0,0,250,250,0,181.28,0.0,0.0,0.0,0.0,0,0.0,-1,0.0,0.0,0,0.0,0.1824
10963,0,11,1.49,2.1,3.08,1.81,3.33,0.74,0.08,0.6,-0,-1,-2,0.75,1292,11,101,42,97,500,0.0,141,462,60,107.0,0,1,300,441,7,0,0,0,250,250,0,414.87,,,,,,,,,,,,
10983,0,7,1.5,2.09,3.07,1.82,3.33,0.73,0.09,0.65,-1,-4,-2,0.73,1706,21,101,42,97,500,0.0,142,461,60,106.0,0,1,205,477,21,0,0,0,250,250,0,-5.59,,,,,,,,,,,,
11003,0,4,1.49,2.1,3.07,1.82,3.32,0.75,0.07,0.6,-1,-2,-2,0.75,1913,67,101,42,98,500,0.0,143,471,60,109.0,0,1,216,514,21,0,0,0,250,250,0,181.28,,,,,,,,,,,,
11023,0,4,1.49,2.1,3.07,1.82,3.32,0.73,0.06,0.6,-0,-1,-2,0.73,1847,69,101,42,98,500,0.0,147,463,60,111.0,0,1,213,510,21,0,0,0,250,250,0,414.87,,,,,,,,,,,,
11043,0,0,1.49,2.1,3.08,1.81,3.33,0.7,0.09,0.56,-0,-3,-1,0.71,2035,68,101,42,97,500,0.0,150,458,60,113.0,0,1,217,321,21,0,0,0,250,250,0,-5.59,0.0,0.0,0.0,0.0,0,0.0,-1,0.0,0.0,0,0.0,0.184
11063,0,5,1.49,2.1,3.08,1.81,3.32,0.75,0.09,0.56,0,1,-3,0.75,2177,68,101,42,98,500,0.0,153,468,60,121.0,0,1,227,540,44,0,0,0,250,250,0,414.87,,,,,,,,,,,,
11083,0,-0,1.49,2.1,3.08,1.82,3.33,0.73,0.1,0.65,0,-5,-1,0.74,2424,64,101,42,97,500,0.0,157,465,60,122.0,0,1,231,536,44,0,0,0,250,250,0,181.28,,,,,,,,,,,,
11103,0,0,1.49,2.09,3.08,1.82,3.33,0.78,0.07,0.48,0,-3,-0,0.79,2653,68,101,42,97,500,0.0,167,460,60,120.0,0,1,235,353,44,0,0,0,250,250,0,-5.59,,,,,,,,,,,,
11123,0,1,1.5,2.09,3.08,1.81,3.33,0.78,0.04,0.45,-0,-3,-1,0.79,2789,61,101,42,97,500,0.0,173,462,60,122.0,0,1,236,554,44,0,0,0,250,250,0,181.28,,,,,,,,,,,,
11143,0,-1,1.5,2.1,3.08,1.81,3.33,0.8,0.03,0.47,-0,-5,1,0.8,3299,60,101,42,96,500,0.0,179,455,60,120.0,0,1,237,552,44,0,0,0,250,250,0,-5.59,0.0,0.0,0.0,0.0,0,0.0,-1,0.0,0.0,0,0.0,0.1857
11163,0,2,1.49,2.1,3.07,1.81,3.33,0.8,0.05,0.43,-0,-2,0,0.8,3720,53,101,42,95,500,0.0,187,465,60,122.0,0,1,265,563,79,0,0,0,250,250,0,181.28,,,,,,,,,,,,
11183,0,1,1.5,2.1,3.07,1.82,3.33,0.78,0.08,0.42,1,-1,-0,0.78,4209,51,101,42,93,500,0.0,206,456,60,122.0,0,1,295,582,79,0,0,0,250,250,0,181.28,,,,,,,,,,,,
11203,0,4,1.49,2.1,3.08,1.82,3.32,0.78,0.07,0.45,1,-1,-1,0.78,4523,43,101,42,91,500,0.0,227,454,60,121.0,0,1,289,589,79,0,0,0,250,250,0,181.28,,,,,,,,,,,,
11223,0,-0,1.5,2.1,3.08,1.82,3.32,0.78,0.09,0.52,2,-2,-0,0.79,4842,41,101,42,88,500,0.0,254,458,60,122.0,0,1,284,597,79,0,0,0,250,250,0,181.28,,,,,,,,,,,,
11243,0,1,1.49,2.1,3.08,1.82,3.33,0.73,0.04,0.49,1,-1,-2,0.74,5221,35,101,42,85,500,0.0,288,465,60,121.0,0,1,292,599,79,0,0,0,250,250,0,-5.59,0.0,0.0,0.0,0.0,0,0.0,-1,0.0,0.0,0,0.0,0.1874
11263,0,0,1.5,2.1,3.08,1.82,3.33,0.79,0.03,0.37,0,-1,-1,0.79,5714,22,101,42,81,500,0.0,326,458,60,122.0,0,1,326,578,125,0,0,0,250,250,0,181.28,,,,,,,,,,,,
11283,0,1,1.5,2.1,3.07,1.82,3.32,0.71,0.0,0.29,-0,1,-2,0.71,6200,18,101,42,79,500,0.0,376,457,60,122.0,0,1,353,582,125,0,0,0,250,250,0,181.28,,,,,,,,,,,,
11303,0,5,1.49,2.1,3.07,1.82,3.32,0.84,-0.01,0.39,-0,-0,-2,0.84,6606,19,101,42,77,500,0.0,432,462,60,121.0,0,1,367,573,125,0,0,0,250,250,0,-5.59,,,,,,,,,,,,
11323,0,2,1.5,2.1,3.07,1.83,3.33,0.78,-0.05,0.35,-0,-0,-3,0.78,6793,30,101,42,75,500,0.0,483,462,60,122.0,0,1,376,544,125,0,0,0,250,250,0,181.28,,,,,,,,,,,,
11343,0,0,1.5,2.1,3.07,1.82,3.33,0.82,0.04,0.39,-0,0,-3,0.82,6998,24,101,42,73,500,0.0,526,462,60,121.0,0,1,385,510,125,0,0,0,250,250,0,-5.59,0.0,0.0,0.0,0.0,0,0.0,-1,0.0,0.0,0,0.0,0.189
11363,0,-0,1.5,2.1,3.08,1.82,3.33,0.94,0.02,0.38,-0,-2,-4,0.94,7253,28,101,42,71,500,0.0,548,463,60,121.0,0,1,402,301,129,0,0,0,250,250,0,-5.59,,,,,,,,,,,,
11383,0,1,1.5,2.1,3.08,1.82,3.33,0.96,-0.07,0.42,-0,-2,-4,0.96,7506,39,101,42,69,500,0.0,578,465,60,121.0,0,1,422,452,129,0,0,0,250,250,0,-5.59,,,,,,,,,,,,
11403,0,4,1.5,2.1,3.07,1.83,3.33,1.01,-0.04,0.44,0,-3,-2,1.01,7901,40,101,42,66,500,0.0,597,464,60,121.0,0,1,445,445,129,0,0,0,250,250,0,181.28,,,,,,,,,,,,
11423,0,3,1.49,2.1,3.07,1.81,3.33,0.97,-0.04,0.45,-0,-5,-0,0.97,8259,26,101,42,63,500,0.0,631,465,60,122.0,0,1,446,422,129,0,0,0,250,250,0,181.28,,,,,,,,,,,,
11443,0,0,1.5,2.1,3.07,1.82,3.32,0.88,0.04,0.43,0,-1,-1,0.88,8720,35,101,42,58,500,0.0,648,457,60,122.0,0,1,411,397,129,0,0,0,250,250,0,414.87,0.0,0.0,0.0,0.0,0,0.0,-1,0.0,0.0,0,0.0,0.1907
11463,0,2,1.5,2.1,3.07,1.82,3.32,0.8,0.16,0.48,-0,-2,-3,0.82,9110,31,101,42,54,500,0.0,649,466,60,121.0,0,1,400,377,130,0,0,0,250,250,0,-5.59,,,,,,,,,,,,
11483,0,3,1.49,2.1,3.07,1.82,3.33,0.81,0.09,0.51,-0,-2,-1,0.82,9407,36,101,42,51,500,0.0,651,460,60,122.0,0,1,390,347,130,0,0,0,250,250,0,181.28,,,,,,,,,,,,
11503,0,2,1.49,2.1,3.07,1.81,3.33,0.81,0.11,0.42,-0,-2,-1,0.81,9630,24,101,42,49,500,0.0,658,461,60,122.0,0,1,385,322,130,0,0,0,250,250,0,-5.59,,,,,,,,,,,,
11523,0,4,1.49,2.1,3.07,1.82,3.32,0.72,0.13,0.41,0,-0,-1,0.73,9725,30,101,42,45,500,0.0,662,460,60,122.0,0,1,365,290,130,0,0,0,250,250,0,181.28,,,,,,,,,,,,
11543,0,5,1.49,2.1,3.07,1.82,3.32,0.85,0.01,0.44,-0,-2,-1,0.85,9537,24,101,42,42,500,0.0,658,462,60,122.0,0,1,342,273,130,0,0,0,250,250,0,181.28,0.0,0.0,0.0,0.0,0,0.0,-1,0.0,0.0,0,0.0,0.1924
11563,0,0,1.49,2.1,3.07,1.82,3.33,0.84,0.08,0.55,0,-2,-2,0.84,9323,17,101,42,39,500,0.0,661,464,60,121.0,0,1,320,259,91,0,0,0,250,250,0,-5.59,,,,,,,,,,,,
11583,0,-1,1.5,2.1,3.07,1.82,3.32,0.86,0.09,0.54,0,-1,-0,0.87,9115,19,101,42,37,500,0.0,656,457,60,121.0,0,1,314,248,91,0,0,0,250,250,0,-5.59,,,,,,,,,,,,
11603,0,4,1.5,2.1,3.07,1.82,3.33,0.9,0.1,0.57,0,-3,-2,0.91,8903,13,101,42,35,500,0.0,650,461,60,121.0,0,1,308,238,91,0,0,0,250,250,0,-5.59,,,,,,,,,,,,
11623,0,2,1.5,2.1,3.06,1.83,3.32,0.99,0.0,0.59,0,-3,-1,0.99,8696,19,101,42,34,500,0.0,647,459,60,122.0,0,1,305,234,91,0,0,0,250,250,0,-5.59,,,,,,,,,,,,
11643,0,1,1.5,2.09,3.07,1.82,3.33,0.87,-0.02,0.58,-0,-2,-1,0.87,8484,17,101,41,34,500,0.0,637,462,60,122.0,0,1,304,227,91,0,0,0,250,250,0,181.28,0.0,0.0,0.0,0.0,0,0.0,-1,0.0,0.0,0,0.0,0.194
11663,0,2,1.5,2.1,3.06,1.82,3.32,0.97,-0.01,0.61,-0,-4,-1,0.97,8267,18,101,41,33,500,0.0,637,462,60,121.0,0,1,297,215,67,0,0,0,250,250,0,-5.59,,,,,,,,,,,,
11683,0,5,1.5,2.1,3.06,1.82,3.32,0.85,-0.03,0.55,-0,-2,-1,0.85,8054,20,101,41,33,500,0.0,630,464,60,123.0,0,1,293,214,67,0,0,0,250,250,0,181.28,,,,,,,,,,,,
11703,0,0,1.5,2.1,3.07,1.82,3.33,0.75,-0.05,0.57,-1,-2,-2,0.76,7884,20,101,41,34,500,0.0,629,465,60,122.0,0,1,295,204,67,0,0,0,250,250,0,-5.59,,,,,,,,,,,,
11723,0,1,1.49,2.1,3.07,1.81,3.32,0.75,-0.15,0.6,-1,-2,-1,0.77,7674,21,101,41,34,500,0.0,630,463,60,122.0,0,1,295,211,67,0,0,0,250,250,0,181.28,,,,,,,,,,,,
11743,0,-2,1.5,2.09,3.07,1.82,3.32,0.79,-0.16,0.55,-1,-2,-2,0.8,7533,19,101,41,34,500,0.0,627,465,60,122.0,0,1,295,204,67,0,0,0,250,250,0,-5.59,0.0,0.0,0.0,0.0,0,0.0,-1,0.0,0.0,0,0.0,0.1957
11763,0,4,1.5,2.09,3.07,1.81,3.32,0.65,-0.2,0.54,-1,-0,-2,0.68,7321,16,101,41,33,500,0.0,610,464,60,122.0,0,1,292,204,67,0,0,0,250,250,0,-5.59,,,,,,,,,,,,
11783,0,3,1.49,2.09,3.06,1.81,3.32,0.54,-0.21,0.48,-1,-1,0,0.58,7142,15,101,41,33,500,0.0,601,463,60,123.0,0,1,292,204,56,0,0,0,250,250,0,181.28,,,,,,,,,,,,
11803,0,-0,1.5,2.1,3.07,1.81,3.33,0.66,-0.07,0.55,-1,-0,-1,0.67,6908,9,101,41,33,500,0.0,591,460,60,121.0,0,1,292,204,56,0,0,0,250,250,0,414.87,,,,,,,,,,,,
11823,0,2,1.49,2.09,3.06,1.82,3.32,0.69,-0.1,0.48,-1,1,-4,0.69,6737,8,101,41,32,500,0.0,570,464,60,123.0,0,1,290,196,56,0,0,0,250,250,0,-5.59,,,,,,,,,,,,
11843,0,5,1.49,2.1,3.07,1.81,3.33,0.82,-0.11,0.56,-0,-3,-4,0.83,6539,9,101,41,32,500,0.0,555,467,60,122.0,0,1,290,196,56,0,0,0,250,250,0,414.87,0.0,0.0,0.0,0.0,0,0.0,-1,0.0,0.0,0,0.0,0.1974
11863,0,-0,1.5,2.1,3.06,1.81,3.32,0.72,-0.07,0.56,-1,-4,-1,0.72,6390,12,101,41,32,500,0.0,542,463,60,123.0,0,1,290,196,56,0,0,0,250,250,0,181.28,,,,,,,,,,,,
11883,0,-1,1.49,2.1,3.06,1.82,3.32,0.57,-0.03,0.43,-1,-0,1,0.57,6281,9,101,41,32,500,0.0,525,459,60,123.0,0,1,290,196,47,0,0,0,250,250,0,181.28,,,,,,,,,,,,
11903,0,-0,1.49,2.1,3.07,1.81,3.33,0.61,-0.03,0.42,-1,2,0,0.61,6155,5,101,41,32,500,0.0,524,466,60,122.0,0,1,290,196,47,0,0,0,250,250,0,-5.59,,,,,,,,,,,,
11923,0,-0,1.49,2.1,3.07,1.81,3.32,0.73,-0.07,0.49,-1,3,-1,0.73,6013,6,101,41,33,500,0.0,511,463,60,122.0,0,1,292,195,47,0,0,0,250,250,0,-5.59,,,,,,,,,,,,
11943,0,2,1.5,2.09,3.07,1.81,3.33,0.81,-0.07,0.42,-2,4,-1,0.81,5870,3,101,41,33,501,0.0,507,465,60,122.0,0,1,290,199,47,0,0,0,250,250,0,181.28,0.0,0.0,0.0,0.0,0,0.0,-1,0.0,0.0,0,0.0,0.199
11963,0,3,1.49,2.1,3.07,1.81,3.33,0.91,-0.09,0.43,-2,5,-0,0.92,5712,4,101,41,34,501,0.0,497,464,60,123.0,0,1,290,197,42,0,0,0,250,250,0,181.28,,,,,,,,,,,,
11983,0,0,1.49,2.1,3.07,1.82,3.33,0.83,-0.06,0.44,-3,5,1,0.84,5558,4,101,41,34,501,0.0,483,463,60,121.0,0,1,287,203,42,0,0,0,250,250,0,181.28,,,,,,,,,,,,
12003,0,5,1.49,2.1,3.06,1.82,3.32,0.76,-0.05,0.37,-2,4,0,0.76,5441,7,101,41,35,501,0.0,476,464,60,122.0,0,1,289,209,42,0,0,0,250,250,0,-5.59,,,,,,,,,,,,
12023,0,-1,1.5,2.1,3.07,1.82,3.32,0.87,-0.07,0.46,-1,3,0,0.87,5292,9,101,41,36,501,0.0,465,463,60,123.0,0,1,290,215,42,0,0,0,250,250,0,181.28,,,,,,,,,,,,
12043,0,4,1.5,2.11,3.06,1.83,3.32,0.77,-0.08,0.48,-2,3,0,0.77,5206,7,101,41,37,501,0.0,456,475,60,121.0,0,1,294,231,42,0,0,0,250,250,0,-5.59,0.0,0.0,0.0,0.0,0,0.0,-1,0.0,0.0,0,0.0,0.2007
12063,0,-2,1.5,2.1,3.06,1.82,3.33,0.84,-0.09,0.48,-1,2,0,0.85,5139,8,101,41,39,501,0.0,442,456,60,123.0,0,1,301,230,44,0,0,0,250,250,0,414.87,,,,,,,,,,,,
12083,0,0,1.5,2.1,3.06,1.82,3.33,0.83,-0.08,0.46,-2,1,0,0.83,4997,11,101,41,40,501,0.0,432,467,60,123.0,0,1,299,238,44,0,0,0,250,250,0,-5.59,,,,,,,,,,,,
12103,0,3,1.49,2.1,3.06,1.82,3.32,0.81,-0.1,0.48,-2,2,-0,0.82,4857,10,101,41,41,501,0.0,422,463,60,121.0,0,1,294,238,44,0,0,0,250,250,0,-5.59,,,,,,,,,,,,
12123,0,5,1.5,2.09,3.07,1.82,3.33,0.83,-0.1,0.53,-2,3,0,0.83,4791,14,101,41,42,501,0.0,410,464,60,121.0,0,1,293,235,44,0,0,0,250,250,0,181.28,,,,,,,,,,,,
12143,0,6,1.49,2.1,3.06,1.82,3.32,0.8,-0.06,0.61,-1,2,-0,0.8,4678,15,101,41,43,501,0.0,404,456,60,123.0,0,1,291,235,44,0,0,0,250,250,0,414.87,0.0,0.0,0.0,0.0,0,0.0,-1,0.0,0.0,0,0.0,0.2024
12163,0,4,1.5,2.1,3.07,1.81,3.33,0.77,-0.01,0.69,-0,2,-1,0.77,4594,14,101,41,44,501,0.0,391,458,60,123.0,0,1,291,231,40,0,0,0,250,250,0,181.28,,,,,,,,,,,,
12183,0,4,1.5,2.1,3.07,1.82,3.32,0.78,0.06,0.71,1,2,-1,0.78,4482,15,101,41,45,500,0.0,381,458,60,123.0,0,1,291,231,40,0,0,0,250,250,0,181.28,,,,,,,,,,,,
12203,0,3,1.5,2.1,3.06,1.83,3.32,0.74,0.1,0.76,2,2,-1,0.75,4386,15,101,41,45,501,0.0,370,459,60,123.0,0,1,289,232,40,0,0,0,250,250,0,181.28,,,,,,,,,,,,
12223,0,2,1.5,2.1,3.06,1.83,3.32,0.74,0.15,0.85,2,3,-2,0.75,4299,15,101,41,46,501,0.0,367,456,60,123.0,0,1,291,232,40,0,0,0,250,250,0,181.28,,,,,,,,,,,,
12243,0,-1,1.5,2.1,3.06,1.83,3.32,0.72,0.1,0.85,2,2,-2,0.73,4228,15,101,41,47,501,0.0,359,463,60,122.0,0,1,294,236,40,0,0,0,250,250,0,181.28,0.0,0.0,0.0,0.0,0,0.0,-1,0.0,0.0,0,0.0,0.204
12263,0,0,1.49,2.1,3.06,1.82,3.32,0.73,0.09,0.8,1,0,-2,0.74,4205,16,101,41,48,501,0.0,347,465,60,123.0,0,1,293,239,40,0,0,0,250,250,0,-5.59,,,,,,,,,,,,
12283,0,5,1.49,2.1,3.06,1.82,3.32,0.75,0.07,0.79,0,-0,-2,0.75,4149,16,101,41,49,502,0.0,346,472,60,123.0,0,1,294,241,37,0,0,0,250,250,0,181.28,,,,,,,,,,,,
12303,0,1,1.5,2.1,3.06,1.82,3.32,0.74,0.12,0.82,1,1,-2,0.75,4114,16,101,41,49,502,0.0,342,460,60,123.0,0,1,293,241,37,0,0,0,250,250,0,181.28,,,,,,,,,,,,
12323,0,-0,1.5,2.09,3.07,1.82,3.32,0.73,0.12,0.81,1,1,-3,0.74,4156,17,101,41,50,502,0.0,343,458,60,122.0,0,1,295,247,37,0,0,0,250,250,0,181.28,,,,,,,,,,,,
12343,0,0,1.5,2.09,3.06,1.82,3.32,0.75,0.08,0.75,0,-1,-2,0.75,4155,15,101,41,51,502,0.0,341,471,60,123.0,0,1,295,251,37,0,0,0,250,250,0,-5.59,0.0,0.0,0.0,0.0,0,0.0,-1,0.0,0.0,0,0.0,0.2057
12363,0,-1,1.49,2.1,3.06,1.82,3.31,0.77,0.07,0.72,-0,-1,-2,0.77,4140,16,101,41,52,502,0.0,345,470,60,124.0,0,1,296,250,37,0,0,0,250,250,0,181.28,,,,,,,,,,,,
12383,0,3,1.5,2.1,3.07,1.82,3.32,0.74,0.1,0.7,1,1,-1,0.75,4204,17,101,41,52,502,0.0,343,466,60,124.0,0,1,296,257,40,0,0,0,250,250,0,181.28,,,,,,,,,,,,
12403,0,0,1.5,2.1,3.06,1.82,3.32,0.74,0.12,0.67,2,1,-1,0.75,4201,16,101,41,52,502,0.0,349,455,60,123.0,0,1,296,257,40,0,0,0,250,250,0,181.28,,,,,,,,,,,,
12423,0,-1,1.49,2.09,3.06,1.82,3.33,0.74,0.1,0.63,1,1,-2,0.74,4224,15,101,41,53,502,0.0,352,463,60,121.0,0,1,297,263,40,0,0,0,250,250,0,-5.59,,,,,,,,,,,,
12443,0,-0,1.5,2.1,3.06,1.83,3.32,0.72,0.07,0.62,-0,-1,-1,0.73,4267,16,101,41,53,502,0.0,349,468,60,123.0,0,1,297,263,40,0,0,0,250,250,0,-5.59,0.0,0.0,0.0,0.0,0,0.0,-1,0.0,0.0,0,0.0,0.2074
12463,0,-0,1.49,2.1,3.06,1.82,3.32,0.79,0.05,0.61,-1,-3,-0,0.79,4257,16,101,41,54,502,0.0,350,468,60,123.0,0,1,298,266,42,0,0,0,250,250,0,-5.59,,,,,,,,,,,,
12483,0,0,1.49,2.1,3.06,1.83,3.32,0.84,0.03,0.61,-1,-3,-1,0.84,4308,16,101,41,54,502,0.0,348,469,60,123.0,0,1,298,268,42,0,0,0,250,250,0,181.28,,,,,,,,,,,,
12503,0,0,1.5,2.1,3.06,1.83,3.32,0.82,0.04,0.63,-0,-3,-1,0.82,4372,16,101,41,54,502,0.0,359,472,60,124.0,0,1,298,268,42,0,0,0,250,250,0,181.28,,,,,,,,,,,,
12523,0,4,1.5,2.1,3.07,1.82,3.32,0.78,0.09,0.64,1,-1,-1,0.78,4408,16,101,41,54,502,0.0,358,465,60,124.0,0,1,298,265,42,0,0,0,250,250,0,181.28,,,,,,,,,,,,
12543,0,3,1.5,2.1,3.07,1.81,3.33,0.73,0.14,0.7,2,-1,-0,0.74,4456,16,101,41,54,502,0.0,365,460,60,124.0,0,1,298,269,42,0,0,0,250,250,0,181.28,0.0,0.0,0.0,0.0,0,0.0,-1,0.0,0.0,0,0.0,0.209
12563,0,5,1.49,2.1,3.06,1.81,3.32,0.68,0.17,0.78,2,-0,-2,0.7,4477,16,101,41,54,502,0.0,372,461,60,124.0,0,1,298,269,42,0,0,0,250,250,0,181.28,,,,,,,,,,,,
12583,0,4,1.5,2.1,3.06,1.83,3.32,0.68,0.22,0.86,3,0,-2,0.71,4503,17,101,41,54,502,0.0,370,458,60,124.0,0,1,298,270,45,0,0,0,250,250,0,181.28,,,,,,,,,,,,
12603,0,4,1.5,2.1,3.06,1.82,3.32,0.69,0.28,0.88,4,0,-3,0.74,4495,17,101,41,55,502,0.0,371,463,60,124.0,0,1,298,269,45,0,0,0,250,250,0,181.28,,,,,,,,,,,,
12623,0,0,1.49,2.1,3.06,1.82,3.32,0.66,0.33,0.93,5,-0,-2,0.74,4545,16,101,41,55,502,0.0,374,460,60,123.0,0,1,298,270,45,0,0,0,250,250,0,181.28,,,,,,,,,,,,
12643,0,-1,1.5,2.1,3.06,1.83,3.32,0.65,0.35,1.0,5,-1,-4,0.74,4553,17,101,41,54,502,0.0,381,448,60,123.0,0,1,298,270,45,0,0,0,250,250,0,181.28,0.0,0.0,0.0,0.0,0,0.0,-1,0.0,0.0,0,0.0,0.2107
12663,0,-1,1.5,2.1,3.06,1.82,3.32,0.66,0.35,1.0,6,-1,-3,0.75,4602,17,101,41,55,502,0.0,379,465,60,124.0,0,1,298,272,47,0,0,0,250,250,0,181.28,,,,,,,,,,,,
12683,0,-1,1.5,2.1,3.07,1.82,3.32,0.67,0.32,0.92,5,-1,-3,0.74,4605,16,101,41,55,502,0.0,379,468,60,124.0,0,1,298,277,47,0,0,0,250,250,0,-5.59,,,,,,,,,,,,
12703,0,0,1.49,2.1,3.07,1.81,3.33,0.67,0.28,0.89,5,-1,-3,0.73,4601,13,101,41,54,502,0.0,383,471,60,124.0,0,1,298,272,47,0,0,0,250,250,0,181.28,,,,,,,,,,,,
12723,0,0,1.49,2.1,3.06,1.82,3.33,0.71,0.22,0.82,5,-1,-3,0.75,4644,11,101,41,53,502,0.0,384,474,60,123.0,0,1,299,266,47,0,0,0,250,250,0,-5.59,,,,,,,,,,,,
12743,0,-0,1.49,2.1,3.06,1.82,3.32,0.75,0.18,0.7,4,-1,-2,0.77,4594,11,101,41,52,501,0.0,383,468,60,123.0,0,1,299,263,47,0,0,0,250,250,0,-5.59,0.0,0.0,0.0,0.0,0,0.0,-1,0.0,0.0,0,0.0,0.2124
12763,0,-1,1.5,2.1,3.06,1.83,3.32,0.79,0.13,0.63,2,-1,-1,0.8,4544,10,101,41,51,501,0.0,380,471,60,123.0,0,1,298,257,47,0,0,0,250,250,0,-5.59,,,,,,,,,,,,
12783,0,-1,1.5,2.1,3.07,1.82,3.32,0.82,0.1,0.63,1,-3,-1,0.83,4527,10,101,41,50,501,0.0,380,469,60,122.0,0,1,298,252,44,0,0,0,250,250,0,-5.59,,,,,,,,,,,,
12803,0,0,1.5,2.1,3.06,1.83,3.32,0.87,0.05,0.56,0,-4,-1,0.87,4447,11,101,41,49,501,0.0,377,476,60,123.0,0,1,297,246,44,0,0,0,250,250,0,181.28,,,,,,,,,,,,
12823,0,-1,1.49,2.1,3.07,1.82,3.33,0.91,0.02,0.51,-1,-5,0,0.91,4428,10,101,41,49,501,0.0,373,473,60,123.0,0,1,296,246,44,0,0,0,250,250,0,-5.59,,,,,,,,,,,,
12843,0,-1,1.5,2.1,3.06,1.83,3.32,0.98,-0.02,0.46,-1,-4,1,0.98,4338,10,101,41,48,502,0.0,367,470,60,123.0,0,1,295,238,44,0,0,0,250,250,0,181.28,0.0,0.0,0.0,0.0,0,0.0,-1,0.0,0.0,0,0.0,0.214
12863,0,5,1.5,2.1,3.06,1.81,3.32,0.93,-0.01,0.49,-0,-3,1,0.93,4267,10,101,41,47,502,0.0,361,462,60,124.0,0,1,294,234,44,0,0,0,250,250,0,181.28,,,,,,,,,,,,
12883,0,1,1.5,2.1,3.07,1.82,3.33,0.88,0.02,0.57,1,-1,0,0.88,4238,10,101,41,47,502,0.0,356,462,60,124.0,0,1,294,233,37,0,0,0,250,250,0,181.28,,,,,,,,,,,,
12903,0,1,1.49,2.1,3.07,1.81,3.33,0.86,0.04,0.61,1,-2,0,0.86,4171,10,101,41,46,502,0.0,352,459,60,121.0,0,1,288,232,37,0,0,0,250,250,0,414.87,,,,,,,,,,,,
12923,0,-1,1.5,2.1,3.07,1.82,3.32,0.85,0.01,0.57,-0,-4,-0,0.85,4139,11,101,41,47,502,0.0,348,463,60,122.0,0,1,292,231,37,0,0,0,250,250,0,-5.59,,,,,,,,,,,,
12943,0,5,1.49,2.1,3.06,1.82,3.32,0.87,0.02,0.56,-1,-4,0,0.87,4130,10,101,41,47,502,0.0,348,467,60,124.0,0,1,292,231,37,0,0,0,250,250,0,181.28,0.0,0.0,0.0,0.0,0,0.0,-1,0.0,0.0,0,0.0,0.2157
12963,0,2,1.5,2.1,3.06,1.82,3.32,0.85,0.05,0.63,0,-2,-0,0.85,4053,10,101,41,47,502,0.0,343,468,60,124.0,0,1,291,224,34,0,0,0,250,250,0,181.28,,,,,,,,,,,,
12983,0,-0,1.49,2.1,3.06,1.81,3.32,0.82,0.04,0.63,0,-3,-2,0.82,4008,10,101,41,47,502,0.0,341,462,60,122.0,0,1,291,228,34,0,0,0,250,250,0,-5.59,,,,,,,,,,,,
13003,0,1,1.49,2.1,3.06,1.82,3.32,0.84,0.06,0.62,-1,-4,-0,0.84,4027,10,101,41,47,502,0.0,336,468,60,124.0,0,1,291,228,34,0,0,0,250,250,0,181.28,,,,,,,,,,,,
13023,0,1,1.49,2.1,3.06,1.82,3.32,0.81,0.07,0.66,-0,-3,-1,0.82,3972,10,101,41,47,502,0.0,338,469,60,124.0,0,1,288,227,34,0,0,0,250,250,0,181.28,,,,,,,,,,,,
13043,0,-0,1.49,2.1,3.07,1.81,3.33,0.8,0.03,0.65,-0,-4,-2,0.8,3921,10,101,41,47,502,0.0,331,463,60,121.0,0,1,282,227,34,0,0,0,250,250,0,-5.59,0.0,0.0,0.0,0.0,0,0.0,-1,0.0,0.0,0,0.0,0.2174
13063,0,4,1.49,2.09,3.06,1.82,3.32,0.81,0.03,0.66,-1,-4,-1,0.81,3938,11,101,41,47,503,0.0,333,466,60,124.0,0,1,284,225,33,0,0,0,250,250,0,181.28,,,,,,,,,,,,
13083,0,-0,1.49,2.1,3.06,1.82,3.32,0.81,0.08,0.7,-0,-4,-2,0.82,3865,11,101,41,47,502,0.0,331,463,60,122.0,0,1,277,224,33,0,0,0,250,250,0,181.28,,,,,,,,,,,,
13103,0,3,1.49,2.1,3.06,1.82,3.32,0.8,0.06,0.65,-1,-4,-2,0.81,3844,10,101,41,47,502,0.0,328,463,60,123.0,0,1,275,223,33,0,0,0,250,250,0,-5.59,,,,,,,,,,,,
13123,0,-1,1.5,2.1,3.06,1.83,3.32,0.78,0.08,0.67,-0,-3,-2,0.79,3824,10,101,41,47,503,0.0,325,462,60,123.0,0,1,273,228,33,0,0,0,250,250,0,181.28,,,,,,,,,,,,
13143,0,5,1.49,2.09,3.06,1.82,3.32,0.79,0.04,0.6,-1,-4,-1,0.79,3799,10,101,41,48,502,0.0,322,465,60,122.0,0,1,270,227,33,0,0,0,250,250,0,-5.59,0.0,0.0,0.0,0.0,0,0.0,-1,0.0,0.0,0,0.0,0.219
13163,0,0,1.5,2.1,3.06,1.82,3.32,0.76,0.06,0.6,-0,-2,-1,0.76,3713,10,101,41,48,502,0.0,318,465,60,123.0,0,1,261,225,33,0,0,0,250,250,0,181.28,,,,,,,,,,,,
13183,0,2,1.5,2.1,3.06,1.82,3.32,0.76,0.03,0.52,-0,-2,-0,0.76,3694,7,101,41,49,502,0.0,316,464,60,123.0,0,1,259,229,31,0,0,0,250,250,0,-5.59,,,,,,,,,,,,
13203,0,-0,1.49,2.1,3.06,1.82,3.32,0.74,0.03,0.52,-0,-3,-1,0.74,3568,11,101,41,50,502,0.0,308,464,60,122.0,0,1,246,232,31,0,0,0,250,250,0,181.28,,,,,,,,,,,,
13223,0,-0,1.49,2.1,3.06,1.81,3.32,0.73,0.04,0.65,-0,-2,-2,0.73,3463,11,101,41,51,503,0.0,302,470,60,124.0,0,1,233,228,31,0,0,0,250,250,0,181.28,,,,,,,,,,,,
13243,0,0,1.5,2.1,3.07,1.82,3.33,0.73,0.03,0.58,-0,0,-1,0.73,3368,11,101,41,52,502,0.0,292,466,60,123.0,0,1,216,234,31,0,0,0,250,250,0,181.28,0.0,0.0,0.0,0.0,0,0.0,-1,0.0,0.0,0,0.0,0.2207
13263,0,2,1.49,2.1,3.07,1.81,3.32,0.79,0.01,0.5,-0,-1,-0,0.79,3268,11,101,41,53,503,0.0,288,465,60,122.0,0,1,198,234,31,0,0,0,250,250,0,-5.59,,,,,,,,,,,,
13283,0,3,1.5,2.1,3.07,1.81,3.33,0.8,0.02,0.46,-0,-2,-1,0.8,3256,11,101,41,53,502,0.0,283,466,60,122.0,0,1,196,240,28,0,0,0,250,250,0,181.28,,,,,,,,,,,,
13303,0,4,1.5,2.1,3.06,1.82,3.32,0.79,0.01,0.51,-0,-3,-0,0.8,3213,11,101,41,54,503,0.0,281,462,60,122.0,0,1,188,237,28,0,0,0,250,250,0,181.28,,,,,,,,,,,,
13323,0,5,1.5,2.1,3.07,1.82,3.33,0.8,0.0,0.59,-0,-4,-1,0.8,3077,10,101,41,55,503,0.0,272,463,60,124.0,0,1,163,236,28,0,0,0,250,250,0,181.28,,,,,,,,,,,,
13343,0,3,1.5,2.1,3.07,1.82,3.33,0.79,0.0,0.67,-0,-5,0,0.79,2948,11,101,41,55,503,0.0,262,466,60,124.0,0,1,298,233,28,0,0,0,250,250,0,181.28,0.0,0.0,0.0,0.0,0,0.0,-1,0.0,0.0,0,0.0,0.2224
13363,0,1,1.49,2.1,3.07,1.81,3.33,0.81,0.02,0.66,-0,-7,1,0.81,2907,11,101,41,56,503,0.0,258,461,60,123.0,0,1,298,237,26,0,0,0,250,250,0,181.28,,,,,,,,,,,,
13383,0,2,1.48,2.1,3.06,1.82,3.32,0.84,0.03,0.62,-0,-8,2,0.84,2887,11,101,41,57,503,0.0,256,464,60,122.0,0,1,298,241,26,0,0,0,250,250,0,181.28,,,,,,,,,,,,
13403,0,-1,1.5,2.1,3.06,1.82,3.33,0.88,0.03,0.54,-0,-7,2,0.88,2870,11,101,41,58,503,0.0,253,462,60,122.0,0,1,298,246,26,0,0,0,250,250,0,-5.59,,,,,,,,,,,,
13423,0,-2,1.5,2.1,3.07,1.82,3.33,0.89,0.01,0.48,-0,-5,2,0.89,2840,11,101,41,58,503,0.0,256,467,60,122.0,0,1,125,251,26,0,0,0,250,250,0,-5.59,,,,,,,,,,,,
13443,0,-2,1.5,2.1,3.06,1.82,3.32,0.88,0.01,0.43,0,-3,1,0.88,2837,11,101,41,59,503,0.0,251,463,60,123.0,0,1,125,250,26,0,0,0,250,250,0,-5.59,0.0,0.0,0.0,0.0,0,0.0,-1,0.0,0.0,0,0.0,0.224
13463,0,-2,1.5,2.1,3.06,1.82,3.32,0.85,0.01,0.43,0,-1,1,0.85,2814,12,101,41,60,503,0.0,251,466,60,124.0,0,1,297,255,27,0,0,0,250,250,0,181.28,,,,,,,,,,,,
13483,0,-2,1.5,2.1,3.06,1.82,3.33,0.83,0.01,0.48,0,1,1,0.83,2888,11,101,41,60,503,0.0,252,464,60,124.0,0,1,297,256,27,0,0,0,250,250,0,181.28,,,,,,,,,,,,
13503,0,0,1.49,2.1,3.07,1.81,3.33,0.8,0.01,0.51,0,2,-0,0.8,2945,11,101,41,60,503,0.0,254,466,60,124.0,0,1,297,257,27,0,0,0,250,250,0,181.28,,,,,,,,,,,,
13523,0,-1,1.5,2.1,3.07,1.82,3.32,0.79,0.03,0.53,0,3,0,0.79,2950,11,101,41,60,503,0.0,256,466,60,124.0,0,1,297,257,27,0,0,0,250,250,0,181.28,,,,,,,,,,,,
13543,0,-1,1.5,2.1,3.07,1.82,3.33,0.76,0.03,0.55,0,4,-1,0.76,2983,11,100,41,60,503,0.0,257,468,60,124.0,0,1,295,259,27,0,0,0,250,250,0,181.28,0.0,0.0,0.0,0.0,0,0.0,-1,0.0,0.0,0,0.0,0.2257
13563,0,0,1.49,2.1,3.06,1.82,3.33,0.76,0.03,0.55,0,5,-1,0.76,3078,11,100,41,61,503,0.0,261,466,60,124.0,0,1,164,269,31,0,0,0,250,250,0,181.28,,,,,,,,,,,,
13583,0,-1,1.5,2.1,3.06,1.82,3.32,0.74,0.04,0.48,-0,6,-1,0.74,3131,11,100,41,61,503,0.0,266,465,60,124.0,0,1,173,272,31,0,0,0,250,250,0,181.28,,,,,,,,,,,,
13603,0,0,1.49,2.1,3.06,1.82,3.32,0.74,0.04,0.39,-0,6,-0,0.75,3164,11,100,41,61,503,0.0,268,462,60,124.0,0,1,179,273,31,0,0,0,250,250,0,181.28,,,,,,,,,,,,
13623,0,-0,1.49,2.1,3.06,1.82,3.32,0.77,0.01,0.32,-0,6,0,0.77,3120,10,100,41,61,503,0.0,271,463,60,124.0,0,1,171,271,31,0,0,0,250,250,0,181.28,,,,,,,,,,,,
13643,0,0,1.49,2.1,3.07,1.81,3.33,0.81,-0.01,0.29,-0,5,0,0.81,3086,10,100,41,61,503,0.0,269,463,60,122.0,0,1,165,269,31,0,0,0,250,250,0,-5.59,0.0,0.0,0.0,0.0,0,0.0,-1,0.0,0.0,0,0.0,0.2274
13663,0,1,1.49,2.1,3.06,1.82,3.32,0.85,-0.01,0.25,-0,3,1,0.85,3123,11,100,41,61,503,0.0,270,461,60,122.0,0,1,172,271,31,0,0,0,250,250,0,-5.59,,,,,,,,,,,,
13683,0,3,1.49,2.1,3.06,1.82,3.32,0.87,0.01,0.22,-0,1,1,0.87,3097,11,100,41,61,503,0.0,270,461,60,122.0,0,1,167,269,32,0,0,0,250,250,0,181.28,,,,,,,,,,,,
13703,0,4,1.49,2.1,3.06,1.81,3.33,0.86,0.01,0.24,0,-1,2,0.86,3082,11,100,41,61,503,0.0,268,464,60,123.0,0,1,164,269,32,0,0,0,250,250,0,181.28,,,,,,,,,,,,
13723,0,4,1.49,2.1,3.07,1.81,3.33,0.84,0.03,0.25,-0,-2,1,0.84,3090,11,100,41,61,503,0.0,269,462,60,123.0,0,1,166,269,32,0,0,0,250,250,0,181.28,,,,,,,,,,,,
13743,0,0,1.5,2.1,3.07,1.82,3.33,0.83,0.03,0.38,-0,-4,1,0.83,3110,10,100,41,61,503,0.0,265,462,60,123.0,0,1,169,271,32,0,0,0,250,250,0,181.28,0.0,0.0,0.0,0.0,0,0.0,-1,0.0,0.0,0,0.0,0.229
13763,0,-0,1.49,2.1,3.06,1.82,3.33,0.8,0.04,0.53,-0,-3,0,0.8,3152,10,100,41,61,503,0.0,271,468,60,124.0,0,1,177,273,32,0,0,0,250,250,0,181.28,,,,,,,,,,,,
13783,0,-2,1.5,2.1,3.06,1.82,3.32,0.77,0.06,0.62,0,-2,-0,0.78,3162,11,100,41,62,503,0.0,270,468,60,124.0,0,1,179,273,32,0,0,0,250,250,0,181.28,,,,,,,,,,,,
13803,0,-0,1.49,2.1,3.06,1.82,3.32,0.76,0.06,0.67,0,-0,-0,0.77,3169,11,100,41,62,503,0.0,271,466,60,124.0,0,1,181,276,32,0,0,0,250,250,0,181.28,,,,,,,,,,,,
13823,0,0,1.5,2.09,3.06,1.82,3.32,0.75,0.08,0.65,0,2,-1,0.75,3166,12,99,41,62,503,0.0,273,466,60,124.0,0,1,180,276,32,0,0,0,250,250,0,181.28,,,,,,,,,,,,
13843,0,-2,1.5,2.1,3.06,1.82,3.32,0.75,0.07,0.54,0,2,1,0.75,3176,11,99,41,62,503,0.0,271,464,60,123.0,0,1,182,277,32,0,0,0,250,250,0,-5.59,0.0,0.0,0.0,0.0,0,0.0,-1,0.0,0.0,0,0.0,0.2307
13863,0,1,1.49,2.1,3.06,1.82,3.33,0.77,0.04,0.48,-0,1,1,0.77,3174,11,99,41,62,503,0.0,275,464,60,122.0,0,1,182,276,32,0,0,0,250,250,0,-5.59,,,,,,,,,,,,
13883,0,2,1.5,2.1,3.06,1.82,3.33,0.79,0.03,0.45,-0,-0,1,0.8,3189,11,99,41,62,503,0.0,274,460,60,121.0,0,1,184,277,33,0,0,0,250,250,0,-5.59,,,,,,,,,,,,
13903,0,5,1.49,2.1,3.07,1.81,3.33,0.82,0.04,0.46,-0,-2,1,0.82,3174,11,99,41,62,503,0.0,274,462,60,123.0,0,1,181,276,33,0,0,0,250,250,0,181.28,,,,,,,,,,,,
13923,0,-1,1.5,2.1,3.07,1.82,3.32,0.81,0.05,0.57,0,-3,0,0.81,3165,12,99,41,62,503,0.0,273,464,60,124.0,0,1,180,276,33,0,0,0,250,250,0,181.28,,,,,,,,,,,,
13943,0,-0,1.49,2.1,3.07,1.82,3.32,0.79,0.06,0.65,0,-2,0,0.8,3170,11,99,41,62,503,0.0,270,464,60,124.0,0,1,181,276,33,0,0,0,250,250,0,181.28,0.0,0.0,0.0,0.0,0,0.0,-1,0.0,0.0,0,0.0,0.2324
13963,0,0,1.5,2.1,3.07,1.82,3.32,0.78,0.08,0.69,0,-1,-1,0.79,3172,11,99,41,62,503,0.0,272,470,60,124.0,0,1,181,276,33,0,0,0,250,250,0,181.28,,,,,,,,,,,,
13983,0,0,1.5,2.09,3.07,1.82,3.33,0.76,0.08,0.67,-0,0,-0,0.76,3201,12,99,41,62,503,0.0,273,468,60,124.0,0,1,186,278,33,0,0,0,250,250,0,181.28,,,,,,,,,,,,
14003,0,0,1.5,2.1,3.07,1.81,3.32,0.75,0.06,0.59,-0,2,-0,0.76,3201,11,98,41,62,503,0.0,275,465,60,124.0,0,1,186,278,33,0,0,0,250,250,0,181.28,,,,,,,,,,,,
14023,0,-1,1.5,2.1,3.07,1.81,3.33,0.76,0.05,0.53,-0,1,-0,0.77,3175,11,98,41,62,503,0.0,279,459,60,122.0,0,1,182,277,33,0,0,0,250,250,0,-5.59,,,,,,,,,,,,
14043,0,1,1.5,2.1,3.06,1.82,3.32,0.8,0.04,0.48,-0,-0,1,0.8,3181,11,98,41,62,503,0.0,274,465,60,123.0,0,1,182,277,33,0,0,0,250,250,0,-5.59,0.0,0.0,0.0,0.0,0,0.0,-1,0.0,0.0,0,0.0,0.234
14063,0,4,1.49,2.1,3.06,1.82,3.33,0.82,0.05,0.48,0,-2,0,0.82,3180,11,98,41,62,503,0.0,276,462,60,123.0,0,1,182,277,33,0,0,0,250,250,0,181.28,,,,,,,,,,,,
14083,0,-1,1.5,2.1,3.06,1.82,3.33,0.81,0.04,0.56,0,-3,0,0.81,3166,12,98,41,62,503,0.0,270,463,60,124.0,0,1,180,276,33,0,0,0,250,250,0,181.28,,,,,,,,,,,,
14103,0,0,1.5,2.1,3.06,1.82,3.32,0.77,0.05,0.66,-0,-3,-1,0.77,3183,11,98,41,62,503,0.0,275,466,60,124.0,0,1,183,277,33,0,0,0,250,250,0,181.28,,,,,,,,,,,,
14123,0,0,1.5,2.09,3.06,1.82,3.33,0.76,0.07,0.72,0,-2,-1,0.77,3183,12,98,41,62,503,0.0,271,467,60,124.0,0,1,183,277,33,0,0,0,250,250,0,181.28,,,,,,,,,,,,
14143,0,0,1.5,2.09,3.07,1.82,3.33,0.76,0.07,0.73,0,-0,-0,0.76,3177,11,98,41,63,503,0.0,273,466,60,124.0,0,1,183,281,33,0,0,0,250,250,0,181.28,0.0,0.0,0.0,0.0,0,0.0,-1,0.0,0.0,0,0.0,0.2357
14163,0,-1,1.5,2.1,3.07,1.81,3.33,0.74,0.08,0.68,0,1,-1,0.75,3188,11,98,41,63,503,0.0,273,467,60,124.0,0,1,185,281,33,0,0,0,250,250,0,181.28,,,,,,,,,,,,
14183,0,-0,1.5,2.1,3.07,1.82,3.33,0.77,0.05,0.59,0,1,1,0.78,3221,11,98,41,63,503,0.0,276,462,60,123.0,0,1,187,282,33,0,0,0,250,250,0,-5.59,,,,,,,,,,,,
14203,0,1,1.5,2.1,3.05,1.8,3.32,0.8,0.03,0.52,-0,0,1,0.8,3182,10,98,41,63,503,0.0,277,461,60,122.0,0,1,184,281,33,0,0,0,250,250,0,-5.59,,,,,,,,,,,,
14223,0,5,1.49,2.1,3.06,1.82,3.32,0.79,0.04,0.5,-0,-1,1,0.79,3191,11,98,41,62,503,0.0,275,461,60,123.0,0,1,184,281,33,0,0,0,250,250,0,181.28,,,,,,,,,,,,
14243,0,-0,1.49,2.1,3.06,1.81,3.32,0.79,0.05,0.56,-0,-2,1,0.79,3218,11,98,41,62,503,0.0,276,465,60,124.0,0,1,189,282,33,0,0,0,250,250,0,181.28,0.0,0.0,0.0,0.0,0,0.0,-1,0.0,0.0,0,0.0,0.2374
14263,0,-0,1.5,2.1,3.06,1.82,3.32,0.79,0.07,0.67,0,-2,-0,0.8,3227,11,98,41,63,503,0.0,275,467,60,124.0,0,1,191,284,34,0,0,0,250,250,0,181.28,,,,,,,,,,,,
14283,0,-0,1.5,2.1,3.07,1.82,3.33,0.77,0.07,0.66,0,-0,-0,0.78,3250,12,97,41,63,503,0.0,276,471,60,124.0,0,1,196,285,34,0,0,0,250,250,0,181.28,,,,,,,,,,,,
14303,0,-2,1.49,2.1,3.07,1.81,3.33,0.76,0.07,0.59,-0,1,0,0.76,3234,10,97,41,63,503,0.0,278,461,60,124.0,0,1,193,284,34,0,0,0,250,250,0,181.28,,,,,,,,,,,,
14323,0,1,1.5,2.1,3.06,1.82,3.32,0.78,0.06,0.53,0,0,0,0.78,3239,11,97,41,63,503,0.0,277,461,60,122.0,0,1,197,284,34,0,0,0,250,250,0,-5.59,,,,,,,,,,,,
14343,0,5,1.5,2.09,3.06,1.81,3.32,0.77,0.04,0.52,0,-1,1,0.77,3280,11,97,41,63,503,0.0,281,460,60,122.0,0,1,201,286,34,0,0,0,250,250,0,181.28,0.0,0.0,0.0,0.0,0,0.0,-1,0.0,0.0,0,0.0,0.239
14363,0,1,1.5,2.09,3.06,1.82,3.32,0.76,0.05,0.6,-0,-2,-0,0.76,3265,11,97,41,63,503,0.0,281,464,60,123.0,0,1,198,285,34,0,0,0,250,250,0,181.28,,,,,,,,,,,,
14383,0,0,1.49,2.1,3.06,1.82,3.32,0.76,0.07,0.68,0,-1,-1,0.76,3222,11,97,41,63,503,0.0,278,468,60,124.0,0,1,190,282,35,0,0,0,250,250,0,181.28,,,,,,,,,,,,
14403,0,-1,1.5,2.1,3.06,1.82,3.32,0.75,0.07,0.68,0,-0,-0,0.75,3236,11,97,41,64,503,0.0,281,467,60,124.0,0,1,194,284,35,0,0,0,250,250,0,181.28,,,,,,,,,,,,
14423,0,-2,1.5,2.1,3.07,1.81,3.33,0.75,0.07,0.61,-0,1,-0,0.75,3274,11,97,41,64,503,0.0,279,464,60,124.0,0,1,200,289,35,0,0,0,250,250,0,181.28,,,,,,,,,,,,
14443,0,2,1.5,2.1,3.06,1.82,3.32,0.8,0.04,0.56,-0,0,1,0.8,3245,11,96,41,63,503,0.0,285,462,60,122.0,0,1,195,290,35,0,0,0,250,250,0,-5.59,0.0,0.0,0.0,0.0,0,0.0,-1,0.0,0.0,0,0.0,0.2407
14463,0,4,1.5,2.1,3.06,1.82,3.32,0.81,0.04,0.53,-0,-2,1,0.81,3206,10,96,41,63,503,0.0,276,460,60,123.0,0,1,189,286,34,0,0,0,250,250,0,181.28,,,,,,,,,,,,
14483,0,-2,1.5,2.1,3.06,1.81,3.32,0.78,0.05,0.57,-0,-2,0,0.79,3210,11,96,41,64,503,0.0,278,461,60,124.0,0,1,189,286,34,0,0,0,250,250,0,181.28,,,,,,,,,,,,
14503,0,0,1.5,2.1,3.06,1.81,3.32,0.78,0.06,0.66,-0,-2,0,0.78,3264,11,96,41,64,503,0.0,275,466,60,124.0,0,1,199,289,34,0,0,0,250,250,0,181.28,,,,,,,,,,,,
14523,0,-2,1.5,2.1,3.06,1.82,3.32,0.75,0.07,0.65,-0,-0,-1,0.75,3267,11,96,41,64,503,0.0,280,471,60,124.0,0,1,199,289,34,0,0,0,250,250,0,181.28,,,,,,,,,,,,
14543,0,0,1.49,2.1,3.07,1.81,3.32,0.73,0.07,0.6,-0,1,-0,0.74,3222,11,96,41,64,503,0.0,280,463,60,124.0,0,1,191,286,34,0,0,0,250,250,0,181.28,0.0,0.0,0.0,0.0,0,0.0,-1,0.0,0.0,0,0.0,0.2424
14563,0,2,1.49,2.1,3.06,1.82,3.32,0.79,0.04,0.54,-0,0,0,0.79,3218,10,96,41,64,503,0.0,277,463,60,124.0,0,1,191,286,34,0,0,0,250,250,0,-5.59,,,,,,,,,,,,
14583,0,3,1.5,2.1,3.06,1.83,3.32,0.79,0.05,0.5,-0,-1,-0,0.79,3283,10,96,41,64,503,0.0,284,462,60,122.0,0,1,202,290,34,0,0,0,250,250,0,181.28,,,,,,,,,,,,
14603,0,0,1.5,2.1,3.07,1.81,3.33,0.78,0.05,0.55,-0,-2,-0,0.78,3236,11,96,41,64,503,0.0,276,460,60,123.0,0,1,194,288,34,0,0,0,250,250,0,181.28,,,,,,,,,,,,
14623,0,-1,1.5,2.1,3.07,1.82,3.33,0.78,0.05,0.64,-0,-2,-1,0.78,3201,10,96,41,64,503,0.0,281,468,60,124.0,0,1,188,285,34,0,0,0,250,250,0,181.28,,,,,,,,,,,,
14643,0,0,1.49,2.1,3.07,1.81,3.33,0.76,0.06,0.66,-0,-1,-1,0.76,3249,12,96,41,65,503,0.0,276,468,60,124.0,0,1,196,286,34,0,0,0,250,250,0,181.28,0.0,0.0,0.0,0.0,0,0.0,-1,0.0,0.0,0,0.0,0.244
14663,0,0,1.49,2.1,3.06,1.82,3.33,0.74,0.07,0.6,-0,1,-0,0.75,3278,11,95,41,64,503,0.0,283,466,60,124.0,0,1,201,292,36,0,0,0,250,250,0,181.28,,,,,,,,,,,,
14683,0,1,1.49,2.1,3.06,1.82,3.32,0.77,0.05,0.54,-0,1,-0,0.78,3247,11,95,41,64,503,0.0,279,462,60,124.0,0,1,196,286,36,0,0,0,250,250,0,-5.59,,,,,,,,,,,,
14703,0,4,1.5,2.1,3.06,1.82,3.32,0.82,0.03,0.51,-0,-1,0,0.82,3204,10,95,41,64,503,0.0,280,460,60,122.0,0,1,188,283,36,0,0,0,250,250,0,-5.59,,,,,,,,,,,,
14723,0,1,1.5,2.1,3.07,1.82,3.33,0.81,0.04,0.52,-0,-2,0,0.81,3247,11,95,41,64,503,0.0,278,461,60,122.0,0,1,196,284,36,0,0,0,250,250,0,181.28,,,,,,,,,,,,
14743,0,-0,1.49,2.1,3.07,1.82,3.32,0.79,0.06,0.63,-0,-2,-1,0.79,3258,10,95,41,64,503,0.0,278,468,60,124.0,0,1,198,286,36,0,0,0,250,250,0,181.28,0.0,0.0,0.0,0.0,0,0.0,-1,0.0,0.0,0,0.0,0.2457
14763,0,-0,1.5,2.11,3.07,1.82,3.33,0.79,0.07,0.68,-0,-1,-0,0.79,3250,12,95,41,64,503,0.0,280,466,60,124.0,0,1,197,286,36,0,0,0,250,250,0,181.28,,,,,,,,,,,,
14783,0,-0,1.49,2.1,3.07,1.82,3.33,0.75,0.09,0.62,-0,0,-0,0.75,3251,10,95,41,65,503,0.0,279,463,60,124.0,0,1,197,289,35,0,0,0,250,250,0,414.87,,,,,,,,,,,,
14803,0,2,1.49,2.11,3.06,1.82,3.33,0.79,0.07,0.56,-0,0,0,0.79,3279,11,94,41,64,503,0.0,283,462,60,124.0,0,1,201,289,35,0,0,0,250,250,0,-5.59,,,,,,,,,,,,
14823,0,5,1.49,2.1,3.06,1.83,3.32,0.8,0.06,0.52,-0,-1,1,0.8,3284,10,94,41,64,503,0.0,283,458,60,122.0,0,1,202,285,35,0,0,0,250,250,0,181.28,,,,,,,,,,,,
14843,1561296049614,-0,1.49,2.1,3.06,1.81,3.32,0.78,0.07,0.58,-0,-2,-0,0.78,3281,10,94,41,64,503,0.0,281,462,60,123.0,0,1,201,285,35,0,0,0,250,250,0,181.28,45.700256,4.909431,0.0,195.9,0,0.0,-1,0.0,0.0,0,0.0,0.2474
14863,1561296049634,-2,1.5,2.1,3.06,1.83,3.32,0.8,0.08,0.66,-0,-1,-1,0.8,3314,12,94,41,64,503,0.0,281,470,60,124.0,0,1,207,287,36,0,0,0,250,250,0,181.28,,,,,,,,,,,,
14883,1561296049654,-1,1.5,2.1,3.06,1.82,3.33,0.78,0.08,0.61,0,-0,0,0.78,3329,10,94,41,64,503,0.0,284,469,60,124.0,0,1,210,288,36,0,0,0,250,250,0,181.28,,,,,,,,,,,,
14903,1561296049674,2,1.5,2.1,3.06,1.82,3.32,0.78,0.07,0.54,-0,0,-0,0.79,3263,10,94,41,65,503,0.0,283,463,60,123.0,0,1,199,286,36,0,0,0,250,250,0,-5.59,,,,,,,,,,,,
14923,1561296049694,5,1.49,2.1,3.07,1.81,3.33,0.83,0.05,0.53,-0,-2,1,0.83,3315,10,94,41,64,503,0.0,285,461,60,122.0,0,1,207,289,36,0,0,0,250,250,0,-5.59,,,,,,,,,,,,
14943,1561296049708,-1,1.49,2.1,3.06,1.82,3.32,0.8,0.07,0.58,-0,-2,0,0.81,3356,11,94,41,64,503,0.0,285,463,60,124.0,0,1,214,287,36,0,0,0,250,250,0,181.28,45.700268,4.909367,0.0,195.0,0,0.0,-1,0.0,0.0,0,0.0,0.249
14963,1561296049728,0,1.5,2.1,3.06,1.82,3.33,0.81,0.08,0.67,0,-1,-1,0.81,3309,10,94,41,65,503,0.0,287,467,60,124.0,0,1,207,285,36,0,0,0,250,250,0,181.28,,,,,,,,,,,,
14983,1561296049748,-2,1.5,2.1,3.06,1.82,3.32,0.78,0.08,0.63,-0,0,-0,0.78,3298,11,94,41,65,503,0.0,282,465,60,124.0,0,1,205,286,36,0,0,0,250,250,0,181.28,,,,,,,,,,,,
15003,1561296049768,4,1.49,2.1,3.06,1.82,3.33,0.81,0.08,0.56,-0,-1,1,0.82,3379,10,94,41,65,503,0.0,290,463,60,123.0,0,1,226,290,36,0,0,0,250,250,0,-5.59,,,,,,,,,,,,
15023,1561296049788,0,1.49,2.1,3.06,1.83,3.32,0.79,0.09,0.62,-0,-1,-0,0.8,3424,10,93,41,64,503,0.0,292,458,60,123.0,0,1,226,288,36,0,0,0,250,250,0,181.28,,,,,,,,,,,,
15043,1561296049810,-0,1.49,2.09,3.06,1.82,3.33,0.79,0.11,0.68,0,-0,-1,0.79,3390,12,93,41,65,503,0.0,291,468,60,124.0,0,1,221,287,36,0,0,0,250,250,0,181.28,45.700268,4.909365,0.0,198.9,0,0.0,-1,0.0,0.0,0,0.0,0.2507
15063,1561296049830,2,1.49,2.1,3.06,1.82,3.33,0.79,0.09,0.58,0,0,0,0.8,3414,10,93,41,64,503,0.0,293,462,60,123.0,0,1,224,288,37,0,0,0,250,250,0,-5.59,,,,,,,,,,,,
15083,1561296049850,-1,1.5,2.1,3.06,1.81,3.33,0.81,0.08,0.54,0,-1,1,0.81,3436,11,93,41,64,503,0.0,295,460,60,122.0,0,1,228,290,37,0,0,0,250,250,0,181.28,,,,,,,,,,,,
15103,1561296049870,-0,1.5,2.1,3.06,1.82,3.33,0.78,0.1,0.65,0,-1,-0,0.78,3391,11,93,41,64,503,0.0,291,467,60,124.0,0,1,220,287,37,0,0,0,250,250,0,181.28,,,,,,,,,,,,
15123,1561296049890,-0,1.49,2.1,3.07,1.81,3.33,0.78,0.09,0.64,0,0,0,0.78,3414,12,93,41,64,503,0.0,290,470,60,124.0,0,1,224,288,37,0,0,0,250,250,0,181.28,,,,,,,,,,,,
15143,1561296049910,3,1.49,2.1,3.07,1.82,3.33,0.8,0.09,0.57,0,-1,1,0.81,3538,10,92,41,64,503,0.0,300,461,60,122.0,0,1,243,295,37,0,0,0,250,250,0,-5.59,45.700268,4.909364,0.0,200.6,0,0.0,-1,0.0,0.0,0,0.0,0.2524
15163,1561296049930,-1,1.49,2.1,3.07,1.82,3.32,0.77,0.11,0.66,0,-1,-0,0.78,3518,10,92,41,63,503,0.0,300,462,60,124.0,0,1,241,293,37,0,0,0,250,250,0,181.28,,,,,,,,,,,,
15183,1561296049950,-0,1.5,2.1,3.07,1.82,3.33,0.77,0.11,0.68,0,0,-1,0.78,3458,12,92,41,64,503,0.0,296,468,60,124.0,0,1,232,290,38,0,0,0,250,250,0,181.28,,,,,,,,,,,,
15203,1561296049970,5,1.49,2.11,3.06,1.82,3.33,0.81,0.09,0.61,0,-1,1,0.81,3521,10,92,41,63,503,0.0,300,464,60,123.0,0,1,242,291,38,0,0,0,250,250,0,-5.59,,,,,,,,,,,,
15223,1561296049990,-1,1.5,2.1,3.07,1.81,3.33,0.79,0.11,0.66,0,-1,0,0.8,3533,10,92,41,63,503,0.0,300,464,60,124.0,0,1,243,290,38,0,0,0,250,250,0,181.28,,,,,,,,,,,,
15243,1561296050010,-1,1.5,2.1,3.07,1.81,3.33,0.77,0.11,0.66,0,0,-0,0.77,3459,10,92,41,63,503,0.0,297,471,60,124.0,0,1,232,287,38,0,0,0,250,250,0,181.28,45.700268,4.909362,0.0,201.8,0,0.0,-1,0.0,0.0,0,0.0,0.254
15263,1561296050030,5,1.49,2.1,3.06,1.82,3.33,0.8,0.09,0.61,0,-1,-0,0.81,3527,11,92,41,63,503,0.0,301,459,60,122.0,0,1,242,290,38,0,0,0,250,250,0,-5.59,,,,,,,,,,,,
15283,1561296050050,-0,1.5,2.1,3.07,1.82,3.33,0.78,0.12,0.64,0,-0,-0,0.79,3562,11,92,41,63,503,0.0,300,462,60,124.0,0,1,246,291,38,0,0,0,250,250,0,181.28,,,,,,,,,,,,
15303,1561296050070,3,1.5,2.1,3.06,1.82,3.33,0.78,0.1,0.58,0,0,1,0.78,3594,10,92,41,63,503,0.0,307,465,60,124.0,0,1,249,292,38,0,0,0,250,250,0,181.28,,,,,,,,,,,,
15323,1561296050090,0,1.5,2.1,3.07,1.82,3.33,0.79,0.08,0.55,0,-1,1,0.79,3546,11,92,41,63,503,0.0,303,461,60,123.0,0,1,244,291,38,0,0,0,250,250,0,181.28,,,,,,,,,,,,
15343,1561296050109,-1,1.51,2.1,3.06,1.83,3.33,0.78,0.11,0.64,0,-0,-1,0.79,3578,11,91,41,63,503,0.0,306,471,60,124.0,0,1,247,292,38,0,0,0,250,250,0,181.28,45.700268,4.909362,0.0,200.2,0,0.0,-1,0.0,0.0,0,0.0,0.2557
15363,1561296050129,3,1.5,2.1,3.07,1.81,3.32,0.8,0.09,0.57,0,-1,0,0.81,3587,12,91,41,63,503,0.0,304,467,60,123.0,0,1,248,292,38,0,0,0,250,250,0,-5.59,,,,,,,,,,,,
15383,1561296050149,-1,1.5,2.1,3.07,1.82,3.32,0.78,0.11,0.56,0,-0,0,0.79,3576,11,91,41,62,502,0.0,308,461,60,124.0,0,1,247,290,39,0,0,0,250,250,0,181.28,,,,,,,,,,,,
15403,1561296050169,3,1.5,2.1,3.06,1.82,3.33,0.78,0.1,0.57,0,-0,1,0.78,3623,11,91,41,62,502,0.0,307,472,60,124.0,0,1,252,290,39,0,0,0,250,250,0,181.28,,,,,,,,,,,,
15423,1561296050189,-0,1.51,2.1,3.07,1.82,3.33,0.78,0.07,0.58,0,-0,0,0.79,3680,10,91,41,62,503,0.0,310,460,60,123.0,0,1,258,292,39,0,0,0,250,250,0,181.28,,,,,,,,,,,,
15443,1561296050207,-0,1.5,2.1,3.07,1.81,3.33,0.77,0.09,0.65,-0,-0,-1,0.78,3634,10,91,41,61,503,0.0,310,467,60,124.0,0,1,253,288,39,0,0,0,250,250,0,181.28,45.700268,4.909362,0.0,199.3,0,0.0,-1,0.0,0.0,0,0.0,0.2574
15463,1561296050227,-0,1.5,2.1,3.06,1.82,3.33,0.8,0.07,0.62,0,-1,-1,0.8,3722,12,91,41,61,503,0.0,313,458,60,122.0,0,1,262,290,40,0,0,0,250,250,0,181.28,,,,,,,,,,,,
15483,1561296050247,1,1.5,2.1,3.07,1.81,3.32,0.8,0.09,0.67,0,-1,-1,0.8,3741,11,91,41,61,503,0.0,316,468,60,124.0,0,1,264,291,40,0,0,0,250,250,0,181.28,,,,,,,,,,,,
15503,1561296050267,0,1.5,2.1,3.06,1.83,3.32,0.84,0.08,0.62,0,-1,-0,0.85,3630,6,91,41,60,503,0.0,315,465,60,123.0,0,1,254,282,40,0,0,0,250,250,0,-5.59,,,,,,,,,,,,
15523,1561296050287,-1,1.51,2.1,3.06,1.82,3.32,0.83,0.09,0.64,0,-0,-0,0.83,3756,8,90,41,60,503,0.0,313,465,60,124.0,0,1,267,286,40,0,0,0,250,250,0,181.28,,,,,,,,,,,,
15543,1561296050309,0,1.5,2.1,3.07,1.81,3.33,0.81,0.07,0.61,1,-1,0,0.82,3774,11,90,41,60,503,0.0,325,461,60,122.0,0,1,268,287,40,0,0,0,250,250,0,-5.59,45.700268,4.909363,0.0,198.6,0,0.0,-1,0.0,0.0,0,0.0,0.259
15563,1561296050329,-0,1.51,2.1,3.06,1.81,3.33,0.77,0.09,0.65,0,0,-0,0.78,3712,7,90,41,59,503,0.0,318,463,60,124.0,0,1,262,278,40,0,0,0,250,250,0,181.28,,,,,,,,,,,,
15583,1561296050349,-2,1.51,2.1,3.06,1.82,3.32,0.76,0.06,0.66,0,-1,-1,0.76,3873,11,90,41,59,502,0.0,320,465,60,122.0,0,1,280,285,39,0,0,0,250,250,0,-5.59,,,,,,,,,,,,
15603,1561296050369,-0,1.5,2.1,3.06,1.81,3.32,0.77,0.05,0.63,-1,-1,-1,0.77,3953,12,90,41,58,503,0.0,331,462,60,124.0,0,1,289,281,39,0,0,0,250,250,0,181.28,,,,,,,,,,,,
15623,1561296050389,-0,1.49,2.1,3.06,1.82,3.32,0.76,0.09,0.67,0,-1,-1,0.76,3791,11,90,41,57,503,0.0,329,468,60,124.0,0,1,272,270,39,0,0,0,250,250,0,181.28,,,,,,,,,,,,
15643,1561296050409,0,1.51,2.1,3.06,1.82,3.32,0.75,0.09,0.67,-0,-1,-1,0.76,3675,11,90,41,57,504,0.0,321,462,60,124.0,0,1,259,266,39,0,0,0,250,250,0,181.28,45.700268,4.909363,0.0,198.6,0,0.0,-1,0.0,0.0,0,0.0,0.2607
15663,1561296050419,-1,1.5,2.1,3.06,1.83,3.32,0.76,0.07,0.6,0,-2,-0,0.77,3492,11,90,41,57,505,0.0,311,468,60,124.0,0,1,238,260,34,0,0,0,250,250,0,181.28,,,,,,,,,,,,
15683,1561296050439,-1,1.5,2.1,3.06,1.82,3.33,0.76,0.08,0.64,0,-2,-1,0.77,3368,10,90,41,58,505,0.0,303,471,60,124.0,0,1,216,260,34,0,0,0,250,250,0,181.28,,,,,,,,,,,,
15703,1561296050459,-1,1.5,2.1,3.06,1.81,3.32,0.76,0.1,0.77,0,-2,-2,0.77,3237,12,90,41,58,505,0.0,286,462,60,124.0,0,1,192,402,34,0,0,0,250,250,0,181.28,,,,,,,,,,,,
15723,1561296050479,-1,1.5,2.1,3.06,1.82,3.32,0.74,0.09,0.73,0,-0,-1,0.74,3256,12,89,41,60,505,0.0,284,471,60,124.0,0,1,196,375,34,0,0,0,250,250,0,181.28,,,,,,,,,,,,
15743,1561296050509,-1,1.51,2.1,3.07,1.82,3.33,0.77,0.06,0.63,0,0,-1,0.78,3250,11,89,41,60,504,0.0,282,458,60,124.0,0,1,195,348,34,0,0,0,250,250,0,181.28,45.700268,4.909363,0.0,197.7,0,0.0,-1,0.0,0.0,0,0.0,0.2624
15763,1561296050529,5,1.5,2.1,3.06,1.82,3.32,0.78,0.05,0.6,0,-1,-1,0.78,3380,11,89,41,61,504,0.0,287,457,60,122.0,0,1,218,324,41,0,0,0,250,250,0,-5.59,,,,,,,,,,,,
15783,1561296050549,0,1.5,2.09,3.06,1.82,3.33,0.78,0.08,0.69,0,-1,-1,0.78,3425,10,89,41,61,504,0.0,291,462,60,124.0,0,1,226,290,41,0,0,0,250,250,0,181.28,,,,,,,,,,,,
15803,1561296050569,0,1.5,2.1,3.07,1.82,3.33,0.79,0.07,0.72,0,-0,-1,0.79,3306,12,89,41,61,503,0.0,288,472,60,124.0,0,1,205,273,41,0,0,0,250,250,0,181.28,,,,,,,,,,,,
15823,1561296050589,0,1.51,2.09,3.07,1.82,3.33,0.75,0.08,0.68,0,1,-2,0.75,3198,12,89,41,62,503,0.0,283,465,60,124.0,0,1,185,270,41,0,0,0,250,250,0,181.28,,,,,,,,,,,,
15843,1561296050607,-0,1.5,2.1,3.07,1.82,3.32,0.76,0.07,0.58,0,2,-0,0.77,3200,11,89,41,62,503,0.0,279,462,60,124.0,0,1,186,271,41,0,0,0,250,250,0,181.28,45.700268,4.909363,0.0,197.7,0,0.0,-1,0.0,0.0,0,0.0,0.264
15863,1561296050627,-1,1.51,2.1,3.07,1.82,3.32,0.79,0.05,0.51,-0,2,-0,0.79,3220,11,89,41,63,503,0.0,283,466,60,123.0,0,1,190,275,41,0,0,0,250,250,0,-5.59,,,,,,,,,,,,
15883,1561296050647,2,1.5,2.1,3.07,1.82,3.32,0.81,0.04,0.45,-0,0,1,0.81,3136,10,89,41,63,503,0.0,278,461,60,122.0,0,1,176,271,33,0,0,0,250,250,0,-5.59,,,,,,,,,,,,
15903,1561296050667,3,1.5,2.1,3.07,1.82,3.32,0.85,0.05,0.42,0,-2,1,0.85,3075,10,89,41,63,503,0.0,276,464,60,122.0,0,1,165,268,33,0,0,0,250,250,0,181.28,,,,,,,,,,,,
15923,1561296050687,4,1.5,2.1,3.06,1.82,3.32,0.83,0.07,0.47,0,-3,1,0.83,3110,11,89,41,63,503,0.0,273,464,60,122.0,0,1,171,270,33,0,0,0,250,250,0,-5.59,,,,,,,,,,,,
15943,1561296050707,3,1.51,2.1,3.07,1.82,3.32,0.84,0.07,0.56,0,-5,1,0.84,3126,12,89,41,63,503,0.0,271,460,60,124.0,0,1,174,271,33,0,0,0,250,250,0,-5.59,45.700268,4.909363,0.0,197.7,0,0.0,-1,0.0,0.0,0,0.0,0.2657
15963,1561296050727,0,1.5,2.1,3.06,1.83,3.32,0.8,0.08,0.69,0,-5,-0,0.81,3109,11,89,41,63,503,0.0,271,464,60,124.0,0,1,171,270,33,0,0,0,250,250,0,181.28,,,,,,,,,,,,
15983,1561296050747,-1,1.5,2.1,3.07,1.81,3.32,0.78,0.1,0.78,0,-5,-0,0.79,3101,11,88,41,64,503,0.0,267,465,60,124.0,0,1,171,273,31,0,0,0,250,250,0,181.28,,,,,,,,,,,,
16003,1561296050767,0,1.5,2.1,3.07,1.81,3.33,0.78,0.12,0.79,0,-4,-2,0.79,3167,12,88,41,64,503,0.0,273,469,60,124.0,0,1,182,274,31,0,0,0,250,250,0,181.28,,,,,,,,,,,,
16023,1561296050787,-1,1.51,2.1,3.07,1.82,3.33,0.75,0.11,0.76,-0,-2,-1,0.76,3176,10,88,41,64,504,0.0,273,468,60,124.0,0,1,184,275,31,0,0,0,250,250,0,181.28,,,,,,,,,,,,
16043,1561296050807,0,1.5,2.1,3.06,1.82,3.32,0.75,0.1,0.67,-0,-0,-1,0.75,3159,12,88,41,64,504,0.0,273,468,60,124.0,0,1,181,274,31,0,0,0,250,250,0,181.28,45.700268,4.909363,0.0,197.7,0,0.0,-1,0.0,0.0,0,0.0,0.2674
16063,1561296050827,0,1.5,2.09,3.06,1.82,3.33,0.76,0.08,0.6,-0,0,-1,0.77,3171,11,88,41,64,504,0.0,278,465,60,123.0,0,1,183,274,32,0,0,0,250,250,0,-5.59,,,,,,,,,,,,
16083,1561296050847,1,1.5,2.1,3.07,1.82,3.33,0.79,0.07,0.54,-0,-0,0,0.79,3194,10,88,41,64,503,0.0,276,465,60,124.0,0,1,190,275,32,0,0,0,250,250,0,-5.59,,,,,,,,,,,,
16103,1561296050867,3,1.5,2.1,3.07,1.81,3.33,0.79,0.08,0.55,-0,-2,-0,0.8,3208,10,88,41,64,503,0.0,282,461,60,122.0,0,1,189,277,32,0,0,0,250,250,0,-5.59,,,,,,,,,,,,
16123,1561296050887,0,1.5,2.09,3.06,1.82,3.33,0.79,0.08,0.65,-0,-3,-0,0.79,3199,11,88,41,64,503,0.0,276,462,60,124.0,0,1,187,275,32,0,0,0,250,250,0,181.28,,,,,,,,,,,,
16143,1561296050908,-1,1.51,2.1,3.06,1.82,3.32,0.8,0.08,0.73,-0,-3,-1,0.8,3245,11,88,41,64,503,0.0,280,466,60,124.0,0,1,196,278,32,0,0,0,250,250,0,181.28,45.700268,4.909363,0.0,197.7,0,0.0,-1,0.0,0.0,0,0.0,0.269
16163,1561296050928,-2,1.51,2.1,3.07,1.81,3.33,0.77,0.09,0.73,-0,-2,-1,0.78,3279,11,88,41,64,503,0.0,281,468,60,124.0,0,1,201,280,34,0,0,0,250,250,0,181.28,,,,,,,,,,,,
16183,1561296050948,0,1.51,2.1,3.06,1.82,3.32,0.78,0.08,0.64,0,-0,-0,0.79,3284,10,88,41,64,503,0.0,282,463,60,124.0,0,1,202,280,34,0,0,0,250,250,0,181.28,,,,,,,,,,,,
16203,1561296050968,4,1.5,2.1,3.06,1.81,3.33,0.8,0.06,0.61,0,-1,0,0.81,3295,10,88,41,64,503,0.0,287,463,60,122.0,0,1,204,279,34,0,0,0,250,250,0,-5.59,,,,,,,,,,,,
16223,1561296050988,-1,1.5,2.1,3.06,1.82,3.32,0.76,0.07,0.67,-0,-2,-0,0.76,3322,10,87,41,64,503,0.0,283,461,60,123.0,0,1,208,280,34,0,0,0,250,250,0,181.28,,,,,,,,,,,,
16243,1561296051007,-2,1.5,2.1,3.07,1.81,3.33,0.77,0.09,0.74,-0,-2,-0,0.78,3310,11,87,41,64,503,0.0,286,466,60,124.0,0,1,206,280,34,0,0,0,250,250,0,181.28,45.700268,4.909363,0.0,197.7,0,0.0,-1,0.0,0.0,0,0.0,0.2707
16263,1561296051027,-1,1.5,2.1,3.06,1.83,3.32,0.74,0.1,0.68,-0,-1,-1,0.74,3307,10,87,41,64,503,0.0,283,470,60,124.0,0,1,206,280,34,0,0,0,250,250,0,181.28,,,,,,,,,,,,
16283,1561296051047,1,1.5,2.1,3.07,1.82,3.33,0.77,0.08,0.63,0,0,-0,0.77,3319,11,87,41,64,503,0.0,288,462,60,124.0,0,1,208,280,35,0,0,0,250,250,0,-5.59,,,,,,,,,,,,
16303,1561296051067,3,1.5,2.1,3.06,1.81,3.33,0.78,0.07,0.57,0,-1,1,0.78,3336,10,87,41,64,503,0.0,285,462,60,123.0,0,1,211,281,35,0,0,0,250,250,0,-5.59,,,,,,,,,,,,
16323,1561296051087,-1,1.49,2.1,3.07,1.82,3.32,0.74,0.09,0.67,-0,-2,-0,0.74,3344,10,87,41,64,503,0.0,287,462,60,123.0,0,1,212,281,35,0,0,0,250,250,0,181.28,,,,,,,,,,,,
16343,1561296051107,0,1.5,2.09,3.06,1.81,3.33,0.74,0.09,0.72,0,-1,-1,0.74,3345,12,87,41,64,503,0.0,285,466,60,124.0,0,1,213,281,35,0,0,0,250,250,0,181.28,45.700268,4.909363,0.0,197.7,0,0.0,-1,0.0,0.0,0,0.0,0.2724
16363,1561296051127,-0,1.5,2.1,3.07,1.82,3.33,0.73,0.09,0.61,0,0,-0,0.74,3360,10,87,41,64,503,0.0,286,466,60,124.0,0,1,215,282,35,0,0,0,250,250,0,181.28,,,,,,,,,,,,
16383,1561296051147,2,1.49,2.1,3.06,1.81,3.32,0.77,0.07,0.56,0,-1,0,0.77,3350,10,87,41,64,503,0.0,290,460,60,122.0,0,1,214,281,35,0,0,0,250,250,0,-5.59,,,,,,,,,,,,
16403,1561296051167,-1,1.5,2.1,3.06,1.82,3.32,0.73,0.08,0.62,0,-2,-0,0.74,3348,10,87,41,64,503,0.0,286,461,60,124.0,0,1,213,280,35,0,0,0,250,250,0,181.28,,,,,,,,,,,,
16423,1561296051187,0,1.49,2.1,3.06,1.82,3.32,0.75,0.09,0.71,0,-1,-0,0.75,3336,11,87,41,64,503,0.0,288,466,60,124.0,0,1,211,280,35,0,0,0,250,250,0,181.28,,,,,,,,,,,,
16443,1561296051206,-0,1.49,2.1,3.06,1.82,3.32,0.72,0.09,0.64,0,-0,-1,0.73,3338,10,87,41,64,503,0.0,285,470,60,124.0,0,1,211,280,35,0,0,0,250,250,0,181.28,45.700268,4.909363,0.0,197.7,0,0.0,-1,0.0,0.0,0,0.0,0.274
16463,1561296051226,3,1.49,2.1,3.06,1.82,3.33,0.76,0.08,0.57,0,-0,-0,0.76,3365,11,86,41,64,503,0.0,291,459,60,123.0,0,1,216,280,35,0,0,0,250,250,0,-5.59,,,,,,,,,,,,
16483,1561296051246,0,1.5,2.1,3.07,1.82,3.33,0.74,0.07,0.59,0,-1,0,0.74,3377,11,86,41,64,503,0.0,290,462,60,122.0,0,1,218,282,35,0,0,0,250,250,0,-5.59,,,,,,,,,,,,
16503,1561296051266,-0,1.5,2.1,3.06,1.82,3.33,0.74,0.08,0.68,0,-1,-0,0.74,3379,10,86,41,64,503,0.0,290,468,60,124.0,0,1,218,282,35,0,0,0,250,250,0,181.28,,,,,,,,,,,,
16523,1561296051286,-0,1.5,2.09,3.07,1.82,3.33,0.72,0.08,0.67,-0,-0,-1,0.72,3368,11,86,41,65,503,0.0,287,469,60,124.0,0,1,217,284,35,0,0,0,250,250,0,181.28,,,,,,,,,,,,
16543,1561296051306,1,1.5,2.1,3.07,1.82,3.32,0.77,0.06,0.59,0,-0,1,0.77,3380,10,86,41,64,503,0.0,289,460,60,123.0,0,1,221,280,35,0,0,0,250,250,0,-5.59,45.700268,4.909363,0.0,197.7,0,0.0,-1,0.0,0.0,0,0.0,0.2757
16563,1561296051326,-1,1.5,2.1,3.06,1.82,3.33,0.75,0.07,0.62,0,-1,0,0.75,3420,10,86,41,64,503,0.0,293,462,60,123.0,0,1,225,282,35,0,0,0,250,250,0,181.28,,,,,,,,,,,,
16583,1561296051346,0,1.5,2.1,3.06,1.83,3.32,0.74,0.09,0.71,0,-1,-1,0.74,3388,10,86,41,64,503,0.0,287,469,60,124.0,0,1,220,280,36,0,0,0,250,250,0,181.28,,,,,,,,,,,,
16603,1561296051366,0,1.5,2.1,3.07,1.82,3.33,0.73,0.07,0.64,0,0,-0,0.74,3371,12,86,41,64,503,0.0,292,466,60,124.0,0,1,217,279,36,0,0,0,250,250,0,181.28,,,,,,,,,,,,
16623,1561296051386,5,1.49,2.1,3.07,1.81,3.33,0.78,0.05,0.6,0,-1,1,0.78,3478,11,86,41,64,503,0.0,293,462,60,122.0,0,1,236,284,36,0,0,0,250,250,0,-5.59,,,,,,,,,,,,
16643,1561296051406,-1,1.5,2.1,3.07,1.82,3.33,0.74,0.07,0.69,0,-1,-1,0.74,3487,11,86,41,64,503,0.0,297,461,60,124.0,0,1,237,284,36,0,0,0,250,250,0,181.28,45.700268,4.909363,0.0,197.7,0,0.0,-1,0.0,0.0,0,0.0,0.2774
16663,1561296051420,-0,1.5,2.1,3.07,1.82,3.33,0.74,0.08,0.67,0,-0,-0,0.75,3460,12,86,41,64,503,0.0,292,467,60,124.0,0,1,232,283,37,0,0,0,250,250,0,181.28,,,,,,,,,,,,
16683,1561296051440,5,1.5,2.1,3.07,1.82,3.34,0.78,0.06,0.6,0,-1,1,0.78,3480,11,86,41,64,503,0.0,300,463,60,123.0,0,1,241,284,37,0,0,0,250,250,0,-5.59,,,,,,,,,,,,
16703,1561296051460,-1,1.5,2.1,3.07,1.81,3.33,0.78,0.08,0.67,0,-1,0,0.78,3502,11,86,41,64,503,0.0,296,459,60,123.0,0,1,240,284,37,0,0,0,250,250,0,181.28,,,,,,,,,,,,
16723,1561296051480,-1,1.5,2.1,3.07,1.82,3.32,0.75,0.07,0.65,0,-0,-1,0.75,3470,11,85,41,64,503,0.0,293,471,60,124.0,0,1,234,281,37,0,0,0,250,250,0,181.28,,,,,,,,,,,,
16743,1561296051508,3,1.5,2.1,3.06,1.82,3.32,0.8,0.06,0.61,0,-1,-0,0.8,3551,12,85,41,64,503,0.0,301,463,60,123.0,0,1,245,286,37,0,0,0,250,250,0,-5.59,45.700268,4.909363,0.0,197.7,0,0.0,-1,0.0,0.0,0,0.0,0.279
16763,1561296051528,0,1.49,2.1,3.07,1.82,3.32,0.77,0.08,0.64,0,-0,-0,0.78,3576,11,85,41,63,503,0.0,299,462,60,124.0,0,1,247,284,38,0,0,0,250,250,0,181.28,,,,,,,,,,,,
16783,1561296051548,2,1.5,2.1,3.06,1.81,3.32,0.81,0.06,0.59,0,0,0,0.81,3566,11,85,41,64,503,0.0,306,472,60,124.0,0,1,246,286,38,0,0,0,250,250,0,181.28,,,,,,,,,,,,
16803,1561296051568,-2,1.5,2.1,3.06,1.82,3.32,0.79,0.07,0.57,0,-1,0,0.8,3602,11,85,41,63,503,0.0,302,459,60,123.0,0,1,250,283,38,0,0,0,250,250,0,181.28,,,,,,,,,,,,
16823,1561296051588,-0,1.5,2.1,3.06,1.82,3.33,0.78,0.07,0.64,0,0,-1,0.78,3648,12,85,41,63,503,0.0,309,467,60,124.0,0,1,255,284,38,0,0,0,250,250,0,181.28,,,,,,,,,,,,
16843,1561296051608,0,1.49,2.1,3.06,1.81,3.32,0.82,0.04,0.58,0,-2,-0,0.82,3640,12,85,41,62,503,0.0,309,458,60,122.0,0,1,254,281,38,0,0,0,250,250,0,-5.59,45.700268,4.909363,0.0,197.7,0,0.0,-1,0.0,0.0,0,0.0,0.2807
16863,1561296051628,-1,1.5,2.1,3.06,1.82,3.32,0.81,0.07,0.61,0,0,-0,0.81,3661,11,85,41,62,503,0.0,308,462,60,124.0,0,1,256,281,38,0,0,0,250,250,0,181.28,,,,,,,,,,,,
16883,1561296051648,5,1.49,2.1,3.07,1.81,3.33,0.86,0.07,0.56,0,-1,1,0.86,3706,12,85,41,62,503,0.0,314,463,60,123.0,0,1,263,281,39,0,0,0,250,250,0,-5.59,,,,,,,,,,,,
16903,1561296051668,0,1.49,2.1,3.06,1.82,3.32,0.84,0.09,0.6,1,1,0,0.85,3729,10,85,41,61,503,0.0,316,461,60,124.0,0,1,263,278,39,0,0,0,250,250,0,181.28,,,,,,,,,,,,
16923,1561296051688,-0,1.49,2.09,3.06,1.82,3.32,0.83,0.09,0.57,0,-1,0,0.84,3736,10,84,41,61,503,0.0,312,464,60,125.0,0,1,268,279,39,0,0,0,250,250,0,-5.59,,,,,,,,,,,,
16943,1561296051708,-2,1.5,2.1,3.06,1.82,3.32,0.8,0.11,0.58,1,0,0,0.81,3869,8,84,41,60,503,0.0,325,462,60,126.0,0,1,278,278,39,0,0,0,250,250,0,181.28,45.700268,4.909363,0.0,197.7,0,0.0,-1,0.0,0.0,0,0.0,0.2824
16963,1561296051728,-1,1.49,2.1,3.07,1.82,3.33,0.8,0.08,0.61,1,-1,-1,0.8,3832,12,84,41,59,503,0.0,325,463,60,124.0,0,1,275,276,39,0,0,0,250,250,0,-5.59,,,,,,,,,,,,
16983,1561296051748,4,1.5,2.1,3.06,1.82,3.32,0.79,0.05,0.65,-0,-1,-0,0.79,3832,10,84,41,59,503,0.0,324,467,60,127.0,0,1,275,269,39,0,0,0,250,250,0,181.28,,,,,,,,,,,,
17003,1561296051768,-1,1.5,2.1,3.06,1.83,3.32,0.79,0.1,0.7,1,-1,-1,0.79,4075,11,84,41,58,503,0.0,332,462,60,125.0,0,1,294,270,39,0,0,0,250,250,0,181.28,,,,,,,,,,,,
17023,1561296051788,1,1.49,2.1,3.06,1.81,3.32,0.79,0.08,0.66,0,-2,-1,0.79,4053,12,84,41,57,503,0.0,343,465,60,125.0,0,1,295,263,39,0,0,0,250,250,0,-5.59,,,,,,,,,,,,
17043,1561296051806,5,1.5,2.09,3.06,1.82,3.32,0.8,0.06,0.66,-0,-3,-1,0.81,3986,12,84,41,56,503,0.0,335,469,60,126.0,0,1,294,256,39,0,0,0,250,250,0,181.28,45.700268,4.909363,0.0,197.7,0,0.0,-1,0.0,0.0,0,0.0,0.284
17063,1561296051826,0,1.5,2.1,3.05,1.82,3.32,0.77,0.09,0.7,0,-2,-2,0.77,4160,12,84,41,56,503,0.0,347,460,60,126.0,0,1,296,257,39,0,0,0,250,250,0,181.28,,,,,,,,,,,,
17083,1561296051846,-0,1.49,2.1,3.06,1.83,3.32,0.76,0.1,0.73,1,-1,-2,0.76,4123,12,84,41,55,502,0.0,347,459,60,125.0,0,1,297,251,40,0,0,0,250,250,0,181.28,,,,,,,,,,,,
17103,1561296051866,-1,1.49,2.1,3.06,1.82,3.32,0.75,0.06,0.66,-0,-2,-2,0.75,4126,12,84,41,55,502,0.0,350,464,60,126.0,0,1,297,250,40,0,0,0,250,250,0,-5.59,,,,,,,,,,,,
17123,1561296051886,-1,1.5,2.1,3.07,1.82,3.33,0.8,0.04,0.62,-1,-3,-1,0.8,4205,7,84,41,54,502,0.0,357,470,60,126.0,0,1,298,246,40,0,0,0,250,250,0,181.28,,,,,,,,,,,,
17143,1561296051906,3,1.5,2.1,3.07,1.82,3.32,0.79,0.05,0.65,-0,-2,-0,0.79,4164,10,84,41,54,503,0.0,350,468,60,127.0,0,1,298,245,40,0,0,0,250,250,0,181.28,45.700268,4.909363,0.0,197.7,0,0.0,-1,0.0,0.0,0,0.0,0.2857
17163,1561296051926,1,1.49,2.1,3.07,1.82,3.32,0.76,0.09,0.71,1,-0,-1,0.77,4182,11,84,41,53,503,0.0,353,460,60,126.0,0,1,297,242,38,0,0,0,250,250,0,181.28,,,,,,,,,,,,
17183,1561296051946,1,1.5,2.1,3.06,1.82,3.32,0.76,0.05,0.67,1,0,-0,0.76,4128,8,83,41,53,503,0.0,355,466,60,125.0,0,1,297,239,38,0,0,0,250,250,0,-5.59,,,,,,,,,,,,
17203,1561296051966,-0,1.49,2.11,3.06,1.82,3.33,0.81,0.05,0.63,-0,-2,1,0.81,4106,10,83,41,53,503,0.0,350,465,60,126.0,0,1,297,239,38,0,0,0,250,250,0,-5.59,,,,,,,,,,,,
17223,1561296051986,2,1.5,2.1,3.06,1.82,3.33,0.8,0.08,0.66,-0,-1,1,0.81,4129,12,83,41,53,503,0.0,343,471,60,127.0,0,1,297,235,38,0,0,0,250,250,0,181.28,,,,,,,,,,,,
17243,1561296052000,-1,1.5,2.09,3.07,1.82,3.33,0.79,0.12,0.7,1,1,0,0.8,4074,12,83,41,52,503,0.0,353,458,60,126.0,0,1,296,232,38,0,0,0,250,250,0,181.28,45.700268,4.909364,0.0,195.2,0,0.0,-1,0.0,0.0,0,0.0,0.2874
17263,1561296052020,-1,1.5,2.1,3.07,1.82,3.33,0.76,0.08,0.64,0,-1,0,0.76,4124,12,83,41,52,502,0.0,346,463,60,124.0,0,1,296,233,38,0,0,0,250,250,0,-5.59,,,,,,,,,,,,
17283,1561296052040,1,1.5,2.1,3.07,1.81,3.33,0.8,0.07,0.6,-1,-2,0,0.8,4114,12,83,41,52,503,0.0,346,466,60,126.0,0,1,296,233,36,0,0,0,250,250,0,181.28,,,,,,,,,,,,
17303,1561296052060,3,1.5,2.1,3.06,1.82,3.32,0.76,0.09,0.6,0,-0,0,0.77,4054,11,83,41,52,503,0.0,346,466,60,126.0,0,1,296,232,36,0,0,0,250,250,0,181.28,,,,,,,,,,,,
17323,1561296052080,0,1.5,2.1,3.06,1.83,3.32,0.75,0.09,0.63,1,-0,-0,0.76,4121,13,83,41,51,503,0.0,347,458,60,125.0,0,1,295,232,36,0,0,0,250,250,0,181.28,,,,,,,,,,,,
17343,1561296052106,0,1.49,2.1,3.07,1.81,3.33,0.77,0.07,0.56,-1,-2,-1,0.77,4092,13,83,41,52,503,0.0,342,463,60,126.0,0,1,296,231,36,0,0,0,250,250,0,181.28,45.700268,4.909364,0.0,195.2,0,0.0,-1,0.0,0.0,0,0.0,0.2891
17363,1561296052126,4,1.49,2.1,3.07,1.82,3.32,0.76,0.04,0.57,-1,-1,-1,0.76,4040,11,83,41,52,503,0.0,346,469,60,126.0,0,1,296,226,36,0,0,0,250,250,0,181.28,,,,,,,,,,,,
17383,1561296052146,-0,1.49,2.1,3.07,1.82,3.32,0.78,0.08,0.65,0,-1,-1,0.78,4071,12,83,41,51,503,0.0,344,462,60,126.0,0,1,295,226,35,0,0,0,250,250,0,181.28,,,,,,,,,,,,
17403,1561296052166,-0,1.5,2.09,3.06,1.82,3.32,0.78,0.06,0.58,-0,-2,-2,0.78,3990,12,83,41,51,503,0.0,339,460,60,124.0,0,1,287,228,35,0,0,0,250,250,0,-5.59,,,,,,,,,,,,
17423,1561296052186,4,1.49,2.1,3.06,1.82,3.32,0.76,0.03,0.6,-1,-2,-2,0.76,3974,12,83,41,51,503,0.0,336,468,60,126.0,0,1,291,224,35,0,0,0,250,250,0,181.28,,,,,,,,,,,,
17443,1561296052205,-0,1.5,2.1,3.06,1.82,3.33,0.76,0.08,0.66,0,-2,-2,0.77,4027,12,83,41,51,502,0.0,338,461,60,124.0,0,1,295,225,35,0,0,0,250,250,0,181.28,45.700268,4.909364,0.0,195.2,0,0.0,-1,0.0,0.0,0,0.0,0.2907
17463,1561296052225,-1,1.5,2.1,3.06,1.83,3.32,0.78,0.06,0.58,-0,-3,-3,0.78,3928,12,83,41,51,502,0.0,336,461,60,125.0,0,1,286,221,32,0,0,0,250,250,0,-5.59,,,,,,,,,,,,
17483,1561296052245,2,1.49,2.1,3.07,1.81,3.32,0.74,0.06,0.59,-0,-2,-2,0.75,3920,11,82,41,51,502,0.0,330,463,60,127.0,0,1,285,221,32,0,0,0,250,250,0,181.28,,,,,,,,,,,,
17503,1561296052265,-0,1.49,2.1,3.06,1.82,3.32,0.75,0.07,0.62,0,-3,-3,0.76,3954,12,82,41,51,502,0.0,340,462,60,125.0,0,1,289,223,32,0,0,0,250,250,0,414.87,,,,,,,,,,,,
17523,1561296052285,3,1.49,2.09,3.06,1.81,3.33,0.76,0.07,0.59,-1,-2,-2,0.77,3845,12,82,41,51,503,0.0,328,464,60,127.0,0,1,277,219,32,0,0,0,250,250,0,181.28,,,,,,,,,,,,
17543,1561296052305,-0,1.49,2.1,3.06,1.82,3.32,0.75,0.1,0.6,0,-1,-2,0.75,3882,12,82,41,51,503,0.0,332,463,60,125.0,0,1,281,219,32,0,0,0,250,250,0,181.28,45.700268,4.909364,0.0,195.2,0,0.0,-1,0.0,0.0,0,0.0,0.2924
17563,1561296052325,-1,1.5,2.1,3.07,1.83,3.32,0.75,0.07,0.55,-0,-3,-2,0.75,3909,11,82,41,52,503,0.0,330,462,60,125.0,0,1,285,224,33,0,0,0,250,250,0,-5.59,,,,,,,,,,,,
17583,1561296052345,0,1.5,2.1,3.06,1.82,3.32,0.73,0.08,0.55,-0,-1,-1,0.73,3782,10,82,41,52,503,0.0,328,463,60,126.0,0,1,270,217,33,0,0,0,250,250,0,181.28,,,,,,,,,,,,
17603,1561296052365,0,1.49,2.1,3.06,1.82,3.33,0.75,0.05,0.51,-0,-1,-1,0.75,3794,6,82,41,52,503,0.0,322,464,60,125.0,0,1,272,221,33,0,0,0,250,250,0,-5.59,,,,,,,,,,,,
17623,1561296052385,-2,1.5,2.1,3.06,1.82,3.32,0.74,0.08,0.54,-0,0,-1,0.74,3827,9,82,41,53,503,0.0,322,462,60,126.0,0,1,276,221,33,0,0,0,250,250,0,181.28,,,,,,,,,,,,
17643,1561296052407,-1,1.49,2.1,3.06,1.81,3.32,0.76,0.08,0.52,0,-1,-0,0.77,3714,12,82,41,53,503,0.0,320,465,60,124.0,0,1,263,223,33,0,0,0,250,250,0,-5.59,45.700268,4.909364,0.0,195.2,0,0.0,-1,0.0,0.0,0,0.0,0.294
17663,1561296052427,-2,1.5,2.1,3.06,1.82,3.32,0.73,0.11,0.59,0,0,-1,0.74,3680,11,82,41,53,503,0.0,317,461,60,126.0,0,1,259,222,33,0,0,0,250,250,0,181.28,,,,,,,,,,,,
17683,1561296052447,4,1.49,2.09,3.06,1.82,3.32,0.75,0.1,0.55,-0,-1,-1,0.76,3684,12,82,41,54,503,0.0,313,467,60,125.0,0,1,261,227,30,0,0,0,250,250,0,-5.59,,,,,,,,,,,,
17703,1561296052467,-0,1.49,2.09,3.06,1.82,3.32,0.72,0.11,0.54,0,-1,-1,0.72,3583,12,82,41,54,503,0.0,313,460,60,125.0,0,1,249,224,30,0,0,0,250,250,0,181.28,,,,,,,,,,,,
17723,1561296052487,-0,1.5,2.1,3.06,1.82,3.32,0.71,0.1,0.61,-0,1,-0,0.72,3490,8,82,41,55,503,0.0,301,468,60,127.0,0,1,238,226,30,0,0,0,250,250,0,181.28,,,,,,,,,,,,
17743,1561296052507,3,1.49,2.1,3.06,1.82,3.32,0.76,0.08,0.55,-0,0,-0,0.76,3464,12,82,41,56,503,0.0,299,463,60,126.0,0,1,233,229,30,0,0,0,250,250,0,-5.59,45.700268,4.909364,0.0,195.2,0,0.0,-1,0.0,0.0,0,0.0,0.2957
17763,1561296052527,0,1.5,2.1,3.07,1.81,3.33,0.75,0.1,0.54,0,-2,-1,0.76,3386,12,82,41,57,503,0.0,297,462,60,124.0,0,1,219,230,29,0,0,0,250,250,0,-5.59,,,,,,,,,,,,
17783,1561296052547,0,1.5,2.1,3.06,1.83,3.32,0.75,0.11,0.64,0,-1,-1,0.76,3314,13,81,41,57,503,0.0,290,466,60,126.0,0,1,206,227,29,0,0,0,250,250,0,181.28,,,,,,,,,,,,
17803,1561296052567,1,1.49,2.1,3.07,1.81,3.33,0.75,0.1,0.72,-0,-0,-1,0.75,3300,11,81,41,58,503,0.0,289,465,60,127.0,0,1,204,231,29,0,0,0,250,250,0,181.28,,,,,,,,,,,,
17823,1561296052587,-2,1.5,2.1,3.06,1.82,3.32,0.72,0.11,0.67,-0,1,-1,0.73,3308,12,81,41,59,503,0.0,283,468,60,127.0,0,1,205,234,29,0,0,0,250,250,0,181.28,,,,,,,,,,,,
17843,1561296052607,-1,1.5,2.1,3.07,1.81,3.33,0.76,0.08,0.57,-0,1,0,0.76,3266,12,81,41,60,504,0.0,286,463,60,124.0,0,1,191,236,29,0,0,0,250,250,0,-5.59,45.700268,4.909364,0.0,195.2,0,0.0,-1,0.0,0.0,0,0.0,0.2974
17863,1561296052627,2,1.5,2.1,3.06,1.82,3.32,0.77,0.07,0.51,-0,-1,0,0.78,3231,11,81,41,60,504,0.0,281,462,60,124.0,0,1,191,235,29,0,0,0,250,250,0,-5.59,,,,,,,,,,,,
17883,1561296052647,3,1.5,2.1,3.06,1.82,3.33,0.77,0.08,0.52,-0,-2,0,0.77,3180,11,81,41,61,503,0.0,277,462,60,126.0,0,1,182,237,28,0,0,0,250,250,0,181.28,,,,,,,,,,,,
17903,1561296052667,0,1.5,2.1,3.07,1.83,3.33,0.78,0.07,0.6,-0,-3,0,0.78,3155,12,81,41,61,503,0.0,274,462,60,126.0,0,1,177,236,28,0,0,0,250,250,0,181.28,,,,,,,,,,,,
17923,1561296052687,-1,1.5,2.09,3.06,1.82,3.33,0.77,0.1,0.73,0,-3,-1,0.77,3167,12,81,41,62,504,0.0,272,468,60,126.0,0,1,180,238,28,0,0,0,250,250,0,181.28,,,,,,,,,,,,
17943,1561296052707,0,1.49,2.1,3.07,1.81,3.33,0.74,0.12,0.79,0,-2,-1,0.75,3137,12,81,41,63,504,0.0,272,465,60,126.0,0,1,176,237,28,0,0,0,250,250,0,181.28,45.700268,4.909364,0.0,195.2,0,0.0,-1,0.0,0.0,0,0.0,0.299
17963,1561296052727,0,1.49,2.1,3.06,1.83,3.32,0.73,0.13,0.83,0,-1,-1,0.74,3103,12,81,41,63,503,0.0,268,469,60,127.0,0,1,170,239,28,0,0,0,250,250,0,181.28,,,,,,,,,,,,
17983,1561296052747,-0,1.5,2.1,3.06,1.82,3.33,0.7,0.12,0.8,0,1,-1,0.71,3148,12,81,41,63,503,0.0,270,466,60,127.0,0,1,178,239,28,0,0,0,250,250,0,181.28,,,,,,,,,,,,
18003,1561296052767,0,1.49,2.1,3.06,1.81,3.33,0.72,0.08,0.7,-0,2,-1,0.73,3211,11,81,41,63,503,0.0,275,465,60,127.0,0,1,188,242,28,0,0,0,250,250,0,181.28,,,,,,,,,,,,
18023,1561296052787,2,1.49,2.1,3.06,1.82,3.33,0.74,0.08,0.63,0,1,-0,0.75,3225,11,81,41,63,504,0.0,276,462,60,124.0,0,1,191,243,28,0,0,0,250,250,0,-5.59,,,,,,,,,,,,
18043,1561296052807,2,1.5,2.1,3.07,1.81,3.33,0.76,0.06,0.56,0,-0,0,0.77,3214,11,81,41,63,503,0.0,280,461,60,125.0,0,1,189,242,28,0,0,0,250,250,0,181.28,45.700268,4.909364,0.0,195.2,0,0.0,-1,0.0,0.0,0,0.0,0.3007
18063,1561296052827,-1,1.49,2.1,3.06,1.82,3.32,0.76,0.06,0.59,-0,-2,-0,0.76,3221,11,80,41,63,503,0.0,275,465,60,126.0,0,1,190,242,29,0,0,0,250,250,0,181.28,,,,,,,,,,,,
18083,1561296052847,-1,1.5,2.1,3.06,1.82,3.32,0.76,0.09,0.68,0,-2,-1,0.76,3251,12,80,41,64,504,0.0,278,464,60,126.0,0,1,197,245,29,0,0,0,250,250,0,181.28,,,,,,,,,,,,
18103,1561296052867,0,1.49,2.1,3.07,1.82,3.32,0.76,0.08,0.71,0,-0,-1,0.76,3262,12,80,41,64,503,0.0,278,468,60,127.0,0,1,198,245,29,0,0,0,250,250,0,181.28,,,,,,,,,,,,
18123,1561296052887,0,1.49,2.1,3.07,1.82,3.32,0.74,0.09,0.67,-0,1,-1,0.74,3240,12,80,41,64,503,0.0,280,464,60,127.0,0,1,195,244,29,0,0,0,250,250,0,181.28,,,,,,,,,,,,
18143,1561296052907,3,1.49,2.1,3.07,1.81,3.33,0.79,0.07,0.59,-0,0,0,0.79,3261,12,80,41,64,503,0.0,282,462,60,126.0,0,1,198,245,29,0,0,0,250,250,0,-5.59,45.700268,4.909364,0.0,195.2,0,0.0,-1,0.0,0.0,0,0.0,0.3024
18163,1561296052927,5,1.5,2.09,3.07,1.82,3.33,0.8,0.06,0.54,-0,-1,0,0.8,3294,11,80,41,64,503,0.0,284,462,60,124.0,0,1,204,245,29,0,0,0,250,250,0,414.87,,,,,,,,,,,,
18183,1561296052947,-2,1.5,2.1,3.07,1.81,3.33,0.77,0.07,0.62,-0,-2,-0,0.77,3294,11,80,41,64,503,0.0,281,466,60,126.0,0,1,204,245,30,0,0,0,250,250,0,181.28,,,,,,,,,,,,
18203,1561296052967,-0,1.49,2.1,3.06,1.81,3.33,0.77,0.08,0.7,0,-0,-0,0.77,3290,11,80,41,64,504,0.0,278,470,60,126.0,0,1,203,245,30,0,0,0,250,250,0,181.28,,,,,,,,,,,,
18223,1561296052987,-0,1.49,2.1,3.06,1.82,3.33,0.73,0.08,0.63,-0,1,-0,0.74,3306,10,80,41,65,504,0.0,285,467,60,126.0,0,1,206,249,30,0,0,0,250,250,0,181.28,,,,,,,,,,,,
18243,1561296052999,2,1.5,2.1,3.06,1.81,3.32,0.77,0.08,0.56,0,-0,0,0.77,3381,12,80,41,64,504,0.0,285,463,60,124.0,0,1,218,251,30,0,0,0,250,250,0,-5.59,45.700268,4.909364,0.0,195.2,0,0.0,-1,0.0,0.0,0,0.0,0.304
18263,1561296053019,0,1.5,2.1,3.06,1.82,3.32,0.75,0.06,0.57,0,-1,1,0.75,3371,11,80,41,64,503,0.0,290,461,60,126.0,0,1,217,246,30,0,0,0,250,250,0,181.28,,,,,,,,,,,,
18283,1561296053039,-2,1.5,2.1,3.06,1.82,3.32,0.74,0.08,0.67,-0,-0,-0,0.75,3393,10,80,41,65,504,0.0,288,469,60,127.0,0,1,221,247,31,0,0,0,250,250,0,181.28,,,,,,,,,,,,
18303,1561296053059,1,1.5,2.1,3.06,1.81,3.33,0.72,0.07,0.61,-0,0,-0,0.72,3439,12,80,41,65,504,0.0,292,465,60,126.0,0,1,229,251,31,0,0,0,250,250,0,181.28,,,,,,,,,,,,
18323,1561296053079,-1,1.5,2.1,3.06,1.82,3.33,0.75,0.06,0.53,-0,-1,0,0.75,3485,11,80,41,64,504,0.0,296,459,60,124.0,0,1,237,252,31,0,0,0,250,250,0,181.28,,,,,,,,,,,,
18343,1561296053105,-0,1.49,2.1,3.06,1.82,3.33,0.74,0.07,0.6,0,0,0,0.75,3474,11,80,41,65,504,0.0,295,466,60,127.0,0,1,235,248,31,0,0,0,250,250,0,414.87,45.700268,4.909364,0.0,195.2,0,0.0,-1,0.0,0.0,0,0.0,0.3057
18363,1561296053125,2,1.49,2.09,3.07,1.82,3.33,0.73,0.05,0.58,-0,-0,-0,0.73,3498,12,80,41,65,503,0.0,295,463,60,127.0,0,1,239,252,33,0,0,0,250,250,0,181.28,,,,,,,,,,,,
18383,1561296053145,-1,1.49,2.1,3.07,1.82,3.33,0.74,0.04,0.57,-0,-2,-0,0.74,3606,11,80,41,64,503,0.0,302,464,60,126.0,0,1,250,182,33,0,0,0,250,250,0,181.28,,,,,,,,,,,,
18403,1561296053165,0,1.49,2.1,3.06,1.82,3.33,0.75,0.07,0.62,-0,-0,-0,0.75,3587,12,80,41,65,503,0.0,303,465,60,127.0,0,1,249,253,33,0,0,0,250,250,0,181.28,,,,,,,,,,,,
18423,1561296053185,-2,1.49,2.1,3.06,1.82,3.32,0.77,0.04,0.54,-0,-1,1,0.77,3634,11,80,41,64,504,0.0,305,461,60,125.0,0,1,253,184,33,0,0,0,250,250,0,-5.59,,,,,,,,,,,,
18443,1561296053204,-0,1.48,2.11,3.06,1.82,3.32,0.77,0.08,0.58,0,0,0,0.77,3686,8,80,41,63,503,0.0,310,461,60,126.0,0,1,258,254,33,0,0,0,250,250,0,181.28,45.700268,4.909364,0.0,195.2,0,0.0,-1,0.0,0.0,0,0.0,0.3074
18463,1561296053224,-0,1.49,2.1,3.07,1.82,3.33,0.76,0.08,0.53,-0,-1,0,0.76,3701,12,80,41,63,503,0.0,310,466,60,125.0,0,1,260,255,35,0,0,0,250,250,0,-5.59,,,,,,,,,,,,
18483,1561296053244,0,1.48,2.1,3.07,1.81,3.33,0.75,0.11,0.59,0,0,-0,0.76,3814,8,80,41,63,504,0.0,319,462,60,127.0,0,1,273,255,35,0,0,0,250,250,0,181.28,,,,,,,,,,,,
18503,1561296053264,1,1.47,2.09,3.06,1.82,3.31,0.74,0.08,0.59,-0,-1,-0,0.75,3886,12,80,41,62,503,0.0,321,463,60,125.0,0,1,279,185,35,0,0,0,250,250,0,-5.59,,,,,,,,,,,,
18523,1561296053284,4,1.48,2.1,3.06,1.82,3.32,0.75,0.08,0.62,-1,-2,-0,0.75,3909,11,80,41,61,504,0.0,325,467,60,127.0,0,1,281,254,35,0,0,0,250,250,0,181.28,,,,,,,,,,,,
18543,1561296053305,1,1.48,2.1,3.07,1.81,3.33,0.73,0.11,0.69,1,-1,-2,0.74,4085,11,80,41,60,503,0.0,335,466,60,127.0,0,1,292,252,35,0,0,0,250,250,0,181.28,45.700268,4.909364,0.0,195.2,0,0.0,-1,0.0,0.0,0,0.0,0.309
18563,1561296053325,-1,1.49,2.1,3.07,1.82,3.33,0.7,0.05,0.66,-0,-1,-2,0.7,4136,12,80,41,59,503,0.0,347,463,60,125.0,0,1,293,175,35,0,0,0,250,250,0,-5.59,,,,,,,,,,,,
18583,1561296053345,-1,1.48,2.1,3.07,1.82,3.32,0.72,0.04,0.62,-2,-3,-1,0.72,4162,13,80,41,59,503,0.0,344,470,60,126.0,0,1,293,248,38,0,0,0,250,250,0,181.28,,,,,,,,,,,,
18603,1561296053365,1,1.48,2.1,3.06,1.83,3.32,0.75,0.06,0.57,-2,-4,-0,0.75,4259,12,80,41,58,503,0.0,356,471,60,126.0,0,1,295,244,38,0,0,0,250,250,0,181.28,,,,,,,,,,,,
18623,1561296053385,3,1.49,2.1,3.06,1.82,3.32,0.77,0.14,0.57,-0,-3,0,0.78,4264,12,80,41,57,503,0.0,356,470,60,127.0,0,1,296,239,38,0,0,0,250,250,0,181.28,,,,,,,,,,,,
18643,1561296053404,4,1.48,2.1,3.06,1.82,3.32,0.77,0.18,0.65,2,-1,0,0.79,4329,12,80,41,57,503,0.0,357,462,60,127.0,0,1,296,235,38,0,0,0,250,250,0,181.28,45.700268,4.909364,0.0,195.2,0,0.0,-1,0.0,0.0,0,0.0,0.3107
18663,1561296053424,2,1.49,2.1,3.06,1.82,3.33,0.74,0.18,0.73,2,0,-1,0.76,4338,12,79,41,56,503,0.0,364,456,60,126.0,0,1,297,162,38,0,0,0,250,250,0,181.28,,,,,,,,,,,,
18683,1561296053444,2,1.49,2.1,3.07,1.82,3.33,0.72,0.12,0.74,2,1,-2,0.72,4355,12,79,41,55,502,0.0,362,455,60,126.0,0,1,298,157,38,0,0,0,250,250,0,414.87,,,,,,,,,,,,
18703,1561296053464,-0,1.49,2.1,3.06,1.81,3.33,0.68,0.06,0.7,1,1,-2,0.69,4422,13,79,41,55,503,0.0,373,463,60,125.0,0,1,298,231,38,0,0,0,250,250,0,181.28,,,,,,,,,,,,
18723,1561296053484,0,1.48,2.1,3.07,1.82,3.32,0.67,0.04,0.6,0,0,-1,0.67,4406,12,79,41,54,503,0.0,370,462,60,125.0,0,1,298,231,38,0,0,0,250,250,0,181.28,,,,,,,,,,,,
18743,1561296053504,1,1.48,2.1,3.06,1.82,3.33,0.7,0.02,0.55,-1,-1,-1,0.7,4415,12,79,41,54,502,0.0,376,462,60,124.0,0,1,298,154,38,0,0,0,250,250,0,-5.59,45.700268,4.909364,0.0,195.2,0,0.0,-1,0.0,0.0,0,0.0,0.3124
18763,1561296053524,-1,1.49,2.1,3.06,1.83,3.32,0.69,0.01,0.59,-2,-1,-1,0.69,4494,11,79,41,54,502,0.0,381,460,60,124.0,0,1,298,154,38,0,0,0,250,250,0,-5.59,,,,,,,,,,,,
18783,1561296053544,0,1.49,2.09,3.06,1.82,3.32,0.67,0.0,0.59,-3,-1,-1,0.67,4447,12,79,41,54,502,0.0,377,466,60,124.0,0,1,298,154,38,0,0,0,250,250,0,-5.59,,,,,,,,,,,,
18803,1561296053564,1,1.48,2.1,3.06,1.81,3.33,0.68,-0.03,0.54,-4,-2,1,0.68,4448,13,79,41,53,502,0.0,373,471,60,126.0,0,1,297,150,38,0,0,0,250,250,0,-5.59,,,,,,,,,,,,
18823,1561296053584,-0,1.48,2.09,3.06,1.82,3.32,0.68,-0.03,0.47,-5,-2,2,0.68,4509,12,79,41,53,502,0.0,380,468,60,124.0,0,1,297,150,38,0,0,0,250,250,0,-5.59,,,,,,,,,,,,
18843,1561296053604,-1,1.49,2.1,3.06,1.81,3.33,0.69,-0.06,0.48,-6,-2,2,0.69,4450,12,79,41,53,502,0.0,382,463,60,124.0,0,1,297,150,38,0,0,0,250,250,0,-5.59,45.700268,4.909364,0.0,195.2,0,0.0,-1,0.0,0.0,0,0.0,0.314
18863,1561296053624,-1,1.48,2.1,3.06,1.82,3.32,0.71,-0.05,0.48,-6,-4,3,0.71,4451,13,79,41,53,502,0.0,376,465,60,125.0,0,1,297,150,37,0,0,0,250,250,0,-5.59,,,,,,,,,,,,
18883,1561296053644,-2,1.49,2.1,3.06,1.82,3.32,0.74,-0.09,0.45,-7,-4,3,0.74,4451,13,79,41,53,502,0.0,373,475,60,125.0,0,1,297,150,37,0,0,0,250,250,0,-5.59,,,,,,,,,,,,
18903,1561296053664,-2,1.49,2.1,3.06,1.81,3.33,0.75,-0.09,0.39,-7,-5,4,0.75,4437,13,79,41,53,503,0.0,378,466,60,126.0,0,1,297,224,37,0,0,0,250,250,0,-5.59,,,,,,,,,,,,
18923,1561296053684,0,1.48,2.1,3.06,1.82,3.32,0.79,-0.12,0.38,-7,-4,4,0.8,4487,12,79,41,52,503,0.0,373,465,60,126.0,0,1,297,146,37,0,0,0,250,250,0,-5.59,,,,,,,,,,,,
18943,1561296053704,-0,1.48,2.1,3.06,1.81,3.32,0.82,-0.14,0.43,-7,-5,4,0.83,4438,12,79,41,52,503,0.0,375,471,60,126.0,0,1,297,146,37,0,0,0,250,250,0,-5.59,45.700268,4.909364,0.0,195.2,0,0.0,-1,0.0,0.0,0,0.0,0.3157
18963,1561296053724,-1,1.49,2.1,3.06,1.83,3.32,0.85,-0.12,0.45,-7,-5,3,0.86,4419,13,79,41,52,503,0.0,369,470,60,126.0,0,1,297,220,37,0,0,0,250,250,0,181.28,,,,,,,,,,,,
18983,1561296053744,-2,1.49,2.1,3.07,1.81,3.33,0.86,-0.09,0.4,-6,-6,4,0.87,4473,12,79,41,52,503,0.0,381,472,60,126.0,0,1,297,220,36,0,0,0,250,250,0,181.28,,,,,,,,,,,,
19003,1561296053764,-1,1.48,2.1,3.06,1.82,3.32,0.89,-0.05,0.38,-5,-5,3,0.89,4431,13,79,41,52,503,0.0,375,470,60,127.0,0,1,297,220,36,0,0,0,250,250,0,181.28,,,,,,,,,,,,
19023,1561296053784,-0,1.49,2.1,3.06,1.82,3.32,0.86,-0.0,0.45,-4,-6,4,0.86,4488,12,79,41,52,503,0.0,374,461,60,126.0,0,1,297,220,36,0,0,0,250,250,0,181.28,,,,,,,,,,,,
19043,1561296053804,-2,1.49,2.1,3.06,1.82,3.33,0.85,0.06,0.48,-3,-5,2,0.85,4502,14,79,41,52,503,0.0,383,465,60,127.0,0,1,298,221,36,0,0,0,250,250,0,181.28,45.700268,4.909364,0.0,195.2,0,0.0,-1,0.0,0.0,0,0.0,0.3174
19063,1561296053824,0,1.49,2.1,3.06,1.82,3.32,0.83,0.11,0.44,-2,-5,3,0.84,4491,13,79,41,52,503,0.0,380,473,60,127.0,0,1,297,220,37,0,0,0,250,250,0,181.28,,,,,,,,,,,,
19083,1561296053844,0,1.48,2.1,3.07,1.81,3.33,0.83,0.17,0.41,-2,-4,3,0.85,4522,12,79,41,52,503,0.0,379,471,60,127.0,0,1,298,221,37,0,0,0,250,250,0,181.28,,,,,,,,,,,,
19103,1561296053864,-1,1.49,2.1,3.07,1.82,3.32,0.82,0.2,0.47,-1,-4,3,0.84,4493,12,79,41,52,503,0.0,380,460,60,127.0,0,1,297,220,37,0,0,0,250,250,0,181.28,,,,,,,,,,,,
19123,1561296053884,0,1.48,2.1,3.06,1.82,3.32,0.81,0.24,0.52,-0,-3,2,0.85,4471,12,79,41,52,502,0.0,376,471,60,127.0,0,1,297,220,37,0,0,0,250,250,0,181.28,,,,,,,,,,,,
19143,1561296053904,-0,1.49,2.1,3.06,1.82,3.33,0.84,0.27,0.5,0,-4,2,0.88,4525,13,79,41,52,503,0.0,389,474,60,127.0,0,1,298,221,37,0,0,0,250,250,0,181.28,45.700268,4.909364,0.0,195.2,0,0.0,-1,0.0,0.0,0,0.0,0.3191
19163,1561296053924,-1,1.49,2.1,3.06,1.83,3.32,0.86,0.29,0.47,1,-4,2,0.91,4474,12,79,41,52,503,0.0,376,468,60,126.0,0,1,297,220,37,0,0,0,250,250,0,181.28,,,,,,,,,,,,
19183,1561296053944,-1,1.49,2.1,3.06,1.82,3.33,0.83,0.31,0.53,1,-5,2,0.89,4531,12,79,41,52,503,0.0,379,461,60,126.0,0,1,298,221,37,0,0,0,250,250,0,181.28,,,,,,,,,,,,
19203,1561296053964,-1,1.48,2.1,3.06,1.81,3.33,0.82,0.32,0.55,1,-4,1,0.88,4520,14,79,41,52,503,0.0,383,471,60,126.0,0,1,298,221,37,0,0,0,250,250,0,181.28,,,,,,,,,,,,
19223,1561296053984,0,1.49,2.1,3.06,1.82,3.33,0.81,0.33,0.49,2,-5,2,0.87,4519,13,79,41,52,503,0.0,383,474,60,126.0,0,1,298,221,37,0,0,0,250,250,0,181.28,,,,,,,,,,,,
19243,1561296053998,-1,1.49,2.1,3.07,1.82,3.32,0.82,0.34,0.44,2,-4,2,0.89,4535,14,79,41,52,503,0.0,383,466,60,126.0,0,1,298,221,37,0,0,0,250,250,0,181.28,45.700268,4.909364,0.0,195.2,0,0.0,-1,0.0,0.0,0,0.0,0.3207
19263,1561296054018,0,1.48,2.1,3.06,1.83,3.32,0.81,0.32,0.46,1,-4,2,0.87,4497,14,79,41,52,503,0.0,379,464,60,127.0,0,1,297,220,37,0,0,0,250,250,0,414.87,,,,,,,,,,,,
19283,1561296054038,-1,1.49,2.1,3.07,1.82,3.32,0.82,0.31,0.48,1,-4,1,0.88,4489,13,79,41,52,503,0.0,382,473,60,126.0,0,1,297,220,37,0,0,0,250,250,0,181.28,,,,,,,,,,,,
19303,1561296054058,-1,1.49,2.1,3.06,1.82,3.33,0.84,0.3,0.44,1,-5,2,0.89,4548,13,79,41,52,503,0.0,385,471,60,126.0,0,1,298,147,37,0,0,0,250,250,0,-5.59,,,,,,,,,,,,
19323,1561296054078,1,1.48,2.09,3.06,1.82,3.32,0.84,0.26,0.4,1,-5,2,0.88,4502,14,79,41,52,503,0.0,380,466,60,126.0,0,1,298,147,37,0,0,0,250,250,0,-5.59,,,,,,,,,,,,
19343,1561296054104,1,1.48,2.09,3.05,1.82,3.33,0.84,0.22,0.45,0,-5,2,0.87,4545,13,79,41,53,503,0.0,382,466,60,126.0,0,1,298,224,37,0,0,0,250,250,0,181.28,45.700268,4.909364,0.0,195.2,0,0.0,-1,0.0,0.0,0,0.0,0.3224
19363,1561296054124,-1,1.49,2.1,3.06,1.82,3.32,0.86,0.18,0.44,-0,-5,1,0.88,4541,15,79,41,52,503,0.0,380,470,60,126.0,0,1,298,147,38,0,0,0,250,250,0,-5.59,,,,,,,,,,,,
19383,1561296054144,-2,1.49,2.1,3.06,1.81,3.32,0.87,0.15,0.37,-1,-5,3,0.88,4526,14,79,41,52,503,0.0,387,472,60,127.0,0,1,298,221,38,0,0,0,250,250,0,-5.59,,,,,,,,,,,,
19403,1561296054164,-2,1.48,2.09,3.06,1.82,3.33,0.89,0.1,0.37,-2,-5,3,0.89,4568,14,79,41,53,503,0.0,382,464,60,126.0,0,1,298,151,38,0,0,0,250,250,0,-5.59,,,,,,,,,,,,
19423,1561296054184,0,1.48,2.1,3.06,1.81,3.33,0.9,0.06,0.4,-3,-5,3,0.9,4562,16,79,41,53,502,0.0,388,468,60,125.0,0,1,298,151,38,0,0,0,250,250,0,-5.59,,,,,,,,,,,,
19443,1561296054203,0,1.49,2.09,3.05,1.83,3.32,0.91,0.02,0.36,-3,-4,4,0.91,4534,15,79,41,53,502,0.0,389,467,60,125.0,0,1,298,151,38,0,0,0,250,250,0,-5.59,45.700268,4.909364,0.0,195.2,0,0.0,-1,0.0,0.0,0,0.0,0.324
19463,1561296054223,0,1.49,2.1,3.06,1.82,3.33,0.88,0.01,0.3,-4,-4,4,0.88,4559,14,79,41,52,502,0.0,388,473,60,126.0,0,1,298,224,38,0,0,0,250,250,0,-5.59,,,,,,,,,,,,
19483,1561296054243,0,1.49,2.1,3.06,1.83,3.32,0.85,-0.02,0.32,-5,-3,4,0.85,4539,15,79,41,53,502,0.0,386,461,60,124.0,0,1,298,151,38,0,0,0,250,250,0,-5.59,,,,,,,,,,,,
19503,1561296054263,1,1.49,2.1,3.07,1.82,3.33,0.82,-0.03,0.38,-6,-3,4,0.82,4589,15,79,41,53,502,0.0,384,465,60,124.0,0,1,299,151,38,0,0,0,250,250,0,-5.59,,,,,,,,,,,,
19523,1561296054283,2,1.48,2.1,3.06,1.82,3.32,0.81,-0.05,0.34,-6,-2,4,0.81,4569,15,79,41,53,502,0.0,394,468,60,125.0,0,1,298,224,38,0,0,0,250,250,0,181.28,,,,,,,,,,,,
