"Interval"|"ms"|0|0|1,"Utc"|"ms"|0|0|1,"FB_p"|"bar"|0|300|50,"Volant"|"F"|0.0|300.0|50,"xFR"|"mm"|0.0|5.0|50,"xRR"|"mm"|0.0|5.0|50,"xFL"|"mm"|0.0|5.0|50,"xRL"|"mm"|0.0|5.0|50,"AccelX"|"G"|-3.0|3.0|50,"AccelY"|"G"|-3.0|3.0|50,"AccelZ"|"G"|-3.0|3.0|50,"Yaw"|"Deg/Sec"|-120|120|50,"Pitch"|"Deg/Sec"|-120|120|50,"Roll"|"Deg/Sec"|-120|120|50,"Gsum"|"G"|0.0|3.0|50,"RPM"|""|0|14000|50,"TPS"|"%"|0|100|50,"WaterTemp"|"?C"|0|300|50,"AirTemp"|"?C"|-1000|1000|50,"MAP"|"KPa"|0|255|50,"Lambda"|""|0|1024|50,"WheelSpeed"|"MPH"|0.0|150.0|50,"OilPress"|"PSI"|0|150|50,"FuelPress"|"PSI"|0|150|50,"OilTemp"|"F"|0|300|50,"Battery"|"Volts"|0.0|20.0|50,"FuelCon"|"L/h"|-1000|1000|50,"Gear"|""|0|10|50,"Advance"|"Deg"|-360|360|50,"Injection"|"ms"|-1000|1000|50,"FuelCon"|"L/100km"|-1000|1000|50,"LC_But_Pres"|""|-1000|1000|50,"LC_Active"|""|-1000|1000|50,"RD_Speed"|""|-1000|1000|50,"RUD_Speed"|""|-1000|1000|50,"LD_Speed"|""|-1000|1000|50,"LUD_Speed"|""|-1000|1000|50,"Ana1"|"bar"|-1000.0|1000.0|50,"Latitude"|"Degrees"|-180.0|180.0|10,"Longitude"|"Degrees"|-180.0|180.0|10,"Speed"|"kph"|0.0|150.0|10,"Altitude"|"m"|0.0|4000.0|10,"LapCount"|""|0|0|10,"LapTime"|"Min"|0.0|0.0|10,"Sector"|""|0|0|10,"SectorTime"|"Min"|0.0|0.0|10,"ElapsedTime"|"Min"|0.0|0.0|10,"CurrentLap"|""|0|0|10,"Distance"|"km"|0.0|0.0|10,"SessionTime"|"Min"|0.0|0.0|10
255163,1561295643440,-2,2.03,2.47,3.54,1.52,3.08,0.88,0.8,0.36,-23,-2,-22,1.19,5166,0,88,39,33,762,426.0,413,465,60,122.0,83,1,277,164,32,0,0,419,13552,28553,380,414.87,,,,,,,,,,,,
255183,1561295643460,4,2.04,2.48,3.52,1.52,3.09,0.94,0.88,0.35,-24,-2,-25,1.29,5115,3,88,39,34,771,425.0,408,460,60,123.0,83,1,280,170,32,0,0,416,-3856,-10554,379,414.87,,,,,,,,,,,,
255203,1561295643480,1,2.05,2.47,3.5,1.53,3.08,0.82,0.94,0.33,-25,-1,-26,1.24,5110,12,88,39,36,779,421.0,407,460,60,122.0,83,1,288,182,32,0,0,411,-21792,2811,376,-5.59,,,,,,,,,,,,
255223,1561295643502,2,2.08,2.46,3.5,1.53,3.13,0.92,0.92,0.28,-25,-3,-27,1.3,5158,31,88,39,40,788,417.0,405,461,60,123.0,83,1,302,202,32,0,0,406,-21944,-29978,374,181.28,,,,,,,,,,,,
255243,1561295643522,-0,2.11,2.46,3.5,1.54,3.15,0.79,0.93,0.33,-26,-1,-29,1.22,5233,43,88,39,49,799,414.0,407,457,60,124.0,83,1,317,221,32,0,0,404,2524,-6644,374,181.28,45.698845,4.90987,39.73,196.0,4,0.805,0,0.0,0.4217,5,0.27,4.254
255263,1561295643542,5,2.15,2.45,3.47,1.54,3.16,0.89,0.89,0.23,-26,-3,-30,1.26,5370,50,88,39,59,799,412.0,411,453,60,124.0,131,1,328,252,49,0,0,408,-4059,-14707,376,414.87,,,,,,,,,,,,
255283,1561295643562,1,2.19,2.42,3.4,1.56,3.16,0.95,0.82,0.4,-24,-2,-32,1.25,5488,33,88,39,68,802,412.0,416,470,60,123.0,131,1,320,308,49,0,0,407,9517,-6656,376,181.28,,,,,,,,,,,,
255303,1561295643582,-0,2.25,2.39,3.32,1.62,3.16,0.75,0.78,0.46,-23,1,-30,1.08,5548,52,88,39,76,803,405.0,422,463,60,122.0,131,1,317,382,49,0,0,406,-9211,8200,378,-5.59,,,,,,,,,,,,
255323,1561295643602,4,2.3,2.34,3.25,1.73,3.15,0.77,0.72,0.34,-21,0,-30,1.05,5513,45,88,39,79,803,403.0,421,449,60,125.0,131,1,314,419,49,0,0,401,-8151,-18948,380,181.28,,,,,,,,,,,,
255343,1561295643622,3,2.33,2.26,3.17,1.8,3.19,0.83,0.67,0.39,-19,-1,-29,1.06,5539,43,88,39,83,803,397.0,423,455,60,124.0,131,1,314,458,49,0,0,396,-3968,-18948,385,181.28,45.698837,4.909862,38.58,196.1,4,0.805,0,0.0,0.4233,5,0.27,4.2557
255363,1561295643642,1,2.37,2.11,3.13,1.79,3.3,0.79,0.52,0.45,-15,-1,-28,0.95,5674,53,88,40,86,802,389.0,427,468,60,123.0,255,1,317,465,98,0,0,368,-6524,486,384,-5.59,,,,,,,,,,,,
255383,1561295643662,2,2.4,1.95,3.12,1.8,3.42,0.74,0.38,0.53,-11,-0,-25,0.83,5935,71,88,40,89,811,383.0,434,462,60,124.0,255,1,318,479,98,0,0,378,19125,-18948,383,-5.59,,,,,,,,,,,,
255403,1561295643682,4,2.43,1.77,3.1,1.8,3.58,0.82,0.25,0.61,-8,-1,-24,0.86,6247,57,88,40,92,820,384.0,448,458,60,124.0,255,1,330,493,98,0,0,345,3,0,384,-5.59,,,,,,,,,,,,
255423,1561295643702,4,2.45,1.69,3.09,1.83,3.61,0.73,0.23,0.52,-6,-0,-18,0.77,6805,79,88,40,94,827,385.0,477,457,60,125.0,255,1,359,512,98,0,0,349,1,1,385,414.87,,,,,,,,,,,,
255443,1561295643722,2,2.45,1.68,3.07,1.87,3.62,0.77,0.18,0.57,-3,-0,-15,0.79,7102,77,88,40,94,836,384.0,502,463,60,124.0,255,1,376,518,98,0,0,362,486,1,384,181.28,45.698826,4.909856,38.24,196.1,4,0.805,0,0.0,0.425,5,0.27,4.2574
255463,1561295643742,2,2.46,1.7,3.01,1.96,3.62,0.9,0.14,0.71,-1,-0,-14,0.91,7402,48,88,40,94,906,385.0,520,463,60,124.0,381,1,400,536,147,0,0,363,230,-18948,385,-5.59,,,,,,,,,,,,
255483,1561295643762,3,2.47,1.72,2.95,2.04,3.63,1.01,0.08,0.7,1,0,-10,1.01,7855,64,88,40,93,987,385.0,538,462,60,124.0,381,1,435,557,147,0,0,367,-6405,-6475,385,-5.59,,,,,,,,,,,,
255503,1561295643782,1,2.48,1.72,2.9,2.1,3.61,1.11,0.02,0.71,3,-4,-5,1.11,8385,69,88,40,91,1061,384.0,572,455,60,124.0,381,1,439,608,147,0,0,362,-1268,19125,384,181.28,,,,,,,,,,,,
255523,1561295643802,3,2.49,1.74,2.84,2.15,3.58,0.94,-0.13,0.64,4,1,-2,0.95,8932,95,88,40,89,1133,384.0,602,457,60,123.0,381,1,420,606,147,0,0,368,2790,-3866,384,181.28,,,,,,,,,,,,
255543,1561295643822,1,2.5,1.84,2.77,2.23,3.53,0.89,-0.18,0.7,6,-1,2,0.91,8971,69,88,40,87,1201,388.0,611,459,60,124.0,381,1,419,584,147,0,0,437,-6405,-26615,388,181.28,45.698818,4.909849,37.51,196.1,4,0.805,0,0.0,0.4267,5,0.27,4.259
255563,1561295643842,1,2.49,1.95,2.67,2.28,3.42,0.77,-0.1,0.72,7,1,6,0.77,8737,70,88,40,87,1269,396.0,610,456,60,123.0,492,1,426,584,195,0,0,556,-6656,-6387,396,-5.59,,,,,,,,,,,,
255583,1561295643862,5,2.5,2.04,2.63,2.29,3.33,0.76,-0.1,0.85,10,1,10,0.77,8616,65,88,40,88,1294,404.0,612,451,60,123.0,492,1,430,584,195,0,0,473,257,-23623,404,-5.59,,,,,,,,,,,,
255603,1561295643882,4,2.51,2.11,2.6,2.36,3.28,0.79,-0.2,0.85,12,2,10,0.81,8585,57,88,40,88,1289,411.0,613,463,60,124.0,492,1,431,595,195,0,0,385,3,8488,411,181.28,,,,,,,,,,,,
255623,1561295643901,-1,2.51,2.15,2.55,2.43,3.29,0.68,-0.28,0.9,15,1,11,0.74,8389,56,88,40,88,1290,416.0,601,468,60,124.0,492,1,437,582,195,0,0,440,-18948,23400,416,181.28,,,,,,,,,,,,
255643,1561295643921,4,2.52,2.15,2.48,2.47,3.31,0.68,-0.34,0.97,17,1,13,0.76,8314,59,88,40,88,1294,423.0,595,452,60,124.0,492,1,439,574,195,0,0,517,-6475,2524,423,-5.59,45.698811,4.909841,37.27,196.1,4,0.805,0,0.0,0.4283,5,0.27,4.2607
255663,1561295643941,2,2.52,2.17,2.47,2.5,3.39,0.63,-0.38,0.91,18,1,14,0.73,8314,85,88,40,89,1300,427.0,588,458,60,124.0,427,1,440,584,182,0,0,441,-6524,-6387,427,181.28,,,,,,,,,,,,
255683,1561295643961,5,2.52,2.19,2.49,2.55,3.47,0.61,-0.43,0.93,19,1,17,0.74,8389,63,88,40,89,1308,430.0,581,458,60,124.0,427,1,438,592,182,0,0,420,-6524,2524,430,-5.59,,,,,,,,,,,,
255703,1561295643981,1,2.53,2.2,2.53,2.57,3.49,0.53,-0.4,0.9,20,1,18,0.66,8445,37,88,40,88,1313,434.0,590,466,60,124.0,427,1,435,599,182,0,0,467,-32702,-8985,434,181.28,,,,,,,,,,,,
255723,1561295643997,2,2.52,2.2,2.53,2.57,3.5,0.48,-0.51,0.92,21,2,17,0.71,8561,66,88,40,88,1315,438.0,578,464,60,124.0,427,1,432,606,182,0,0,480,10541,-18108,438,181.28,,,,,,,,,,,,
255743,1561295644017,3,2.52,2.17,2.52,2.57,3.53,0.35,-0.58,0.94,22,2,21,0.67,8761,47,88,40,87,1313,443.0,595,458,60,123.0,427,1,425,584,182,0,0,457,-26615,6193,443,181.28,45.698803,4.909833,39.77,196.1,4,0.805,0,0.0,0.43,5,0.27,4.2624
255763,1561295644037,2,2.52,2.15,2.49,2.56,3.56,0.44,-0.51,0.99,23,2,21,0.67,8954,65,88,40,87,1306,447.0,603,453,60,123.0,440,1,419,584,197,0,0,470,11560,-16384,447,-5.59,,,,,,,,,,,,
255783,1561295644057,1,2.52,2.15,2.5,2.58,3.52,0.33,-0.5,0.98,23,2,24,0.6,8992,57,88,40,86,1296,451.0,616,465,60,124.0,440,1,419,573,197,0,0,485,13040,8488,451,-5.59,,,,,,,,,,,,
255803,1561295644077,2,2.52,2.15,2.5,2.59,3.52,0.35,-0.47,0.97,24,2,24,0.59,9084,55,88,40,86,1285,456.0,616,462,60,123.0,440,1,418,584,197,0,0,479,-26615,-10483,457,181.28,,,,,,,,,,,,
255823,1561295644101,3,2.5,2.16,2.5,2.6,3.52,0.16,-0.44,0.99,24,3,27,0.47,9164,61,88,40,86,1274,461.0,608,461,60,123.0,440,1,418,573,197,0,0,504,-21944,3,461,181.28,,,,,,,,,,,,
255843,1561295644121,5,2.48,2.16,2.52,2.59,3.52,0.32,-0.42,1.02,25,-0,27,0.53,9314,72,88,40,86,1270,467.0,598,457,60,123.0,440,1,418,573,197,0,0,487,3826,6274,467,-5.59,45.698795,4.909823,42.54,196.0,4,0.805,0,0.0,0.4317,5,0.27,4.264
255863,1561295644141,5,2.44,2.17,2.52,2.58,3.53,0.35,-0.58,0.98,26,1,28,0.68,9422,70,88,40,86,1264,470.0,615,462,60,124.0,437,1,418,573,205,0,0,499,-3322,6274,470,181.28,,,,,,,,,,,,
255883,1561295644161,1,2.43,2.16,2.52,2.58,3.52,0.25,-0.62,1.08,26,2,29,0.67,9590,86,88,40,86,1256,475.0,537,465,60,123.0,437,1,415,574,205,0,0,524,19477,-4054,475,-5.59,,,,,,,,,,,,
255903,1561295644181,4,2.41,2.17,2.51,2.59,3.49,0.25,-0.67,1.16,26,1,29,0.71,9755,62,88,40,86,1251,478.0,581,453,60,124.0,437,1,407,564,205,0,0,516,26704,1341,478,181.28,,,,,,,,,,,,
255923,1561295644203,3,2.39,2.19,2.49,2.59,3.46,0.33,-0.6,1.14,25,1,30,0.68,9821,54,88,40,85,1248,481.0,491,461,60,123.0,437,1,404,565,205,0,0,509,10305,-9072,482,-5.59,,,,,,,,,,,,
255943,1561295644223,0,2.39,2.2,2.51,2.58,3.44,0.29,-0.67,1.12,24,1,29,0.74,9889,69,88,40,84,1242,486.0,501,458,60,123.0,437,1,401,550,205,0,0,533,14488,-8186,486,181.28,45.698788,4.909812,44.18,196.0,4,0.805,0,0.0,0.4333,5,0.27,4.2657
255963,1561295644243,5,2.39,2.2,2.53,2.59,3.35,0.27,-0.61,1.17,24,0,29,0.66,10048,21,88,40,82,1225,487.0,544,461,60,123.0,410,1,399,523,201,0,0,526,6193,-8962,487,414.87,,,,,,,,,,,,
255983,1561295644263,3,2.39,2.19,2.53,2.58,3.34,0.27,-0.62,1.11,24,1,29,0.68,10091,43,88,40,79,1209,494.0,477,463,60,123.0,410,1,402,500,201,0,0,533,10432,-8186,496,-5.59,,,,,,,,,,,,
256003,1561295644283,3,2.39,2.18,2.51,2.59,3.34,0.22,-0.7,1.09,23,2,28,0.73,10091,49,88,40,74,1194,500.0,520,459,60,124.0,410,1,403,464,201,0,0,565,3576,-22519,500,181.28,,,,,,,,,,,,
256023,1561295644303,5,2.39,2.19,2.51,2.59,3.33,0.19,-0.77,1.17,22,2,26,0.79,10135,22,88,40,69,1177,502.0,558,457,60,124.0,410,1,407,434,201,0,0,553,2212,2104,502,181.28,,,,,,,,,,,,
256043,1561295644323,2,2.39,2.18,2.51,2.58,3.32,0.16,-0.7,1.19,21,2,27,0.72,10080,32,88,40,63,1152,508.0,621,460,60,123.0,410,1,412,393,201,0,0,515,-10483,-8962,508,181.28,45.69878,4.9098,46.63,196.0,4,0.805,0,0.0,0.435,5,0.27,4.2674
256063,1561295644343,3,2.38,2.19,2.51,2.57,3.35,0.18,-0.73,1.07,20,2,24,0.75,9957,32,88,40,60,1127,513.0,632,458,60,124.0,271,1,408,356,139,0,0,532,-32768,-22519,513,-5.59,,,,,,,,,,,,
256083,1561295644363,3,2.39,2.19,2.52,2.54,3.41,0.13,-0.78,1.16,19,1,23,0.79,9852,2,88,40,57,1117,515.0,626,461,60,123.0,271,1,404,330,139,0,0,571,-22519,-32248,515,181.28,,,,,,,,,,,,
256103,1561295644383,2,2.38,2.2,2.52,2.52,3.47,0.21,-0.65,1.06,19,1,23,0.69,9847,21,88,40,56,1105,519.0,631,462,60,124.0,271,1,403,323,139,0,0,526,-28648,-22519,519,181.28,,,,,,,,,,,,
256123,1561295644403,4,2.4,2.19,2.53,2.49,3.51,0.31,-0.66,1.06,18,-1,20,0.73,9821,41,88,40,54,1065,522.0,634,459,60,124.0,271,1,400,310,139,0,0,526,10994,-2336,522,181.28,,,,,,,,,,,,
256143,1561295644423,3,2.41,2.18,2.56,2.48,3.52,0.35,-0.55,1.08,17,-2,21,0.65,9873,9,88,40,51,1026,522.0,632,458,60,123.0,271,1,391,289,139,0,0,526,17136,-22519,522,181.28,45.698772,4.909786,49.18,195.9,4,0.805,0,0.0,0.4367,5,0.28,4.2691
256163,1561295644443,1,2.41,2.18,2.62,2.45,3.47,0.48,-0.56,1.08,16,-2,20,0.74,9842,22,88,40,48,997,523.0,633,459,60,124.0,182,1,382,248,96,0,0,528,-3482,1780,523,181.28,,,,,,,,,,,,
256183,1561295644463,1,2.43,2.16,2.68,2.44,3.47,0.45,-0.49,1.06,16,-2,19,0.67,9654,22,88,40,43,969,527.0,638,461,60,124.0,182,1,350,224,96,0,0,526,15679,-28648,527,181.28,,,,,,,,,,,,
256203,1561295644483,2,2.43,2.14,2.73,2.44,3.46,0.43,-0.53,0.99,16,-2,19,0.68,9403,6,88,40,39,918,530.0,636,463,60,124.0,182,1,320,211,96,0,0,521,15679,-30064,530,181.28,,,,,,,,,,,,
256223,1561295644501,4,2.44,2.1,2.79,2.44,3.47,0.59,-0.64,1.0,16,-6,18,0.87,9186,19,88,40,36,867,531.0,627,453,60,124.0,182,1,311,200,96,0,0,510,26178,2524,530,181.28,,,,,,,,,,,,
256243,1561295644521,2,2.44,2.0,2.81,2.43,3.52,0.68,-0.7,0.98,16,-7,19,0.98,8967,9,88,40,34,839,530.0,627,454,60,125.0,182,1,305,192,96,0,0,513,-4054,-22519,532,414.87,45.698765,4.909771,51.07,195.9,4,0.805,0,0.0,0.4383,5,0.28,4.2707
256263,1561295644541,2,2.43,1.96,2.85,2.41,3.56,0.73,-0.79,0.97,16,-8,18,1.08,8745,16,88,40,32,817,533.0,623,464,60,124.0,116,1,300,185,62,0,0,509,-4054,-22519,533,181.28,,,,,,,,,,,,
256283,1561295644561,-1,2.45,1.93,2.86,2.39,3.57,0.65,-0.83,0.91,17,-6,19,1.05,8546,9,88,40,32,794,534.0,617,456,60,123.0,116,1,300,185,62,0,0,506,-4054,-28648,534,-5.59,,,,,,,,,,,,
256303,1561295644581,3,2.47,1.88,2.87,2.39,3.61,0.79,-0.85,0.89,17,-9,18,1.16,8468,8,88,40,31,771,535.0,615,462,60,124.0,116,1,294,183,62,0,0,490,10994,-14,535,181.28,,,,,,,,,,,,
256323,1561295644601,2,2.48,1.81,2.88,2.38,3.67,0.79,-0.85,0.84,18,-8,21,1.16,8503,14,88,40,31,764,529.0,613,461,60,124.0,116,1,295,185,62,0,0,479,-32248,-21872,529,181.28,,,,,,,,,,,,
256343,1561295644621,0,2.49,1.72,2.89,2.36,3.74,0.7,-0.87,0.77,18,-6,20,1.11,8549,16,88,40,30,763,530.0,612,461,60,124.0,116,1,291,185,62,0,0,465,10408,3,530,414.87,45.698757,4.909756,51.95,195.9,4,0.805,0,0.0,0.44,5,0.28,4.2724
256363,1561295644641,6,2.5,1.61,2.87,2.33,3.76,0.75,-0.88,0.74,20,-4,23,1.15,8596,18,88,40,31,779,529.0,608,460,60,123.0,113,1,295,185,60,0,0,458,771,-3856,529,-5.59,,,,,,,,,,,,
256383,1561295644661,2,2.51,1.55,2.88,2.33,3.77,0.75,-0.86,0.67,21,-4,24,1.14,8573,9,88,39,31,801,528.0,615,463,60,124.0,113,1,295,186,60,0,0,457,-6528,3,528,181.28,,,,,,,,,,,,
256403,1561295644681,1,2.51,1.52,2.86,2.33,3.76,0.8,-0.93,0.61,22,-3,25,1.23,8624,19,88,39,31,824,530.0,614,462,60,124.0,113,1,295,186,60,0,0,445,1,15661,530,181.28,,,,,,,,,,,,
256423,1561295644699,1,2.51,1.52,2.85,2.34,3.75,0.66,-0.95,0.6,22,-3,28,1.16,8656,15,88,39,32,847,524.0,615,459,60,124.0,113,1,300,186,60,0,0,440,-10483,3,524,414.87,,,,,,,,,,,,
256443,1561295644719,6,2.51,1.52,2.86,2.35,3.76,0.8,-0.88,0.58,24,-4,30,1.19,8700,17,88,39,32,883,521.0,616,456,60,123.0,113,1,300,186,60,0,0,445,10305,771,519,-5.59,45.698753,4.90974,51.27,195.9,4,0.805,0,0.0,0.4417,5,0.28,4.274
256463,1561295644739,3,2.51,1.52,2.85,2.36,3.75,0.91,-0.84,0.51,25,-2,32,1.24,8786,17,88,39,33,923,517.0,616,460,60,124.0,119,1,302,189,62,0,0,442,-9203,-9216,515,181.28,,,,,,,,,,,,
256483,1561295644759,3,2.5,1.51,2.82,2.35,3.77,0.92,-0.91,0.49,25,-3,31,1.3,8836,23,88,39,33,952,515.0,611,459,60,124.0,119,1,302,189,62,0,0,447,8488,3,515,-5.59,,,,,,,,,,,,
256503,1561295644779,4,2.5,1.49,2.8,2.35,3.78,1.03,-1.01,0.49,27,-2,32,1.44,8836,15,88,39,33,969,510.0,605,460,60,125.0,119,1,302,189,62,0,0,436,243,2524,510,181.28,,,,,,,,,,,,
256523,1561295644801,3,2.48,1.49,2.8,2.35,3.79,0.88,-1.1,0.45,26,-1,32,1.41,8840,23,88,39,34,987,507.0,573,458,60,124.0,119,1,305,193,62,0,0,432,30272,2524,507,181.28,,,,,,,,,,,,
256543,1561295644821,1,2.48,1.5,2.82,2.34,3.79,0.83,-1.14,0.43,26,-1,34,1.41,8844,21,88,39,35,1006,508.0,543,468,60,124.0,119,1,308,196,62,0,0,424,16408,3,508,181.28,45.698746,4.909724,50.02,195.9,4,0.805,0,0.0,0.4433,5,0.28,4.2757
256563,1561295644841,3,2.45,1.56,2.81,2.35,3.79,0.79,-1.09,0.43,27,-0,35,1.34,8894,24,88,39,38,1016,506.0,507,460,60,124.0,134,1,317,207,68,0,0,423,30272,15661,506,181.28,,,,,,,,,,,,
256583,1561295644861,3,2.43,1.63,2.79,2.35,3.79,0.69,-1.05,0.47,26,-1,36,1.26,8949,31,88,39,41,1017,501.0,402,466,60,124.0,134,1,332,214,68,0,0,439,16408,15661,501,414.87,,,,,,,,,,,,
256603,1561295644881,2,2.42,1.63,2.78,2.33,3.79,0.7,-0.94,0.46,26,-1,35,1.18,8988,40,88,39,45,1010,499.0,396,452,60,124.0,134,1,357,224,68,0,0,453,-3210,2109,499,414.87,,,,,,,,,,,,
256623,1561295644902,1,2.41,1.63,2.75,2.33,3.79,0.58,-0.87,0.46,26,0,36,1.05,9053,43,88,39,48,995,497.0,384,457,60,124.0,134,1,375,239,68,0,0,461,30272,-22519,497,414.87,,,,,,,,,,,,
256643,1561295644922,2,2.39,1.64,2.73,2.34,3.78,0.62,-0.82,0.43,24,-1,35,1.03,9101,52,88,39,52,978,492.0,412,453,60,124.0,134,1,392,268,68,0,0,466,243,-6656,494,414.87,45.698738,4.909708,48.65,195.9,4,0.805,0,0.0,0.445,5,0.28,4.2774
256663,1561295644942,1,2.4,1.63,2.74,2.32,3.72,0.51,-0.75,0.4,23,0,35,0.91,9075,53,88,39,55,960,491.0,428,461,60,124.0,200,1,400,296,98,0,0,473,10432,-6528,491,181.28,,,,,,,,,,,,
256683,1561295644962,2,2.39,1.63,2.77,2.28,3.68,0.51,-0.67,0.42,21,-0,33,0.85,9014,65,88,39,61,949,490.0,483,459,60,124.0,200,1,396,342,98,0,0,471,3576,1,490,181.28,,,,,,,,,,,,
256703,1561295644982,3,2.38,1.67,2.79,2.27,3.63,0.47,-0.61,0.41,20,2,33,0.77,9014,40,88,39,69,945,488.0,509,464,60,124.0,200,1,413,373,98,0,0,472,-9203,-6656,488,181.28,,,,,,,,,,,,
256723,1561295644996,2,2.39,1.73,2.78,2.25,3.53,0.44,-0.63,0.44,17,-0,30,0.76,9005,56,88,39,76,945,487.0,550,449,60,124.0,200,1,413,448,98,0,0,482,-17956,3580,486,181.28,,,,,,,,,,,,
256743,1561295645016,2,2.39,1.73,2.8,2.21,3.5,0.32,-0.55,0.42,16,3,30,0.63,8831,67,88,39,82,958,485.0,581,465,60,124.0,200,1,421,531,98,0,0,473,-9203,-6441,485,181.28,45.698738,4.909692,47.78,195.9,4,0.805,0,0.0,0.4467,5,0.28,4.279
256763,1561295645036,0,2.39,1.74,2.79,2.16,3.51,0.4,-0.38,0.45,16,2,29,0.55,8890,70,88,39,85,991,485.0,587,463,60,124.0,388,1,421,566,189,0,0,476,-9203,-899,485,414.87,,,,,,,,,,,,
256783,1561295645056,2,2.41,1.77,2.77,2.14,3.45,0.31,-0.27,0.47,15,4,28,0.42,9159,73,88,39,85,1085,487.0,601,462,60,124.0,388,1,418,566,189,0,0,472,3576,-10483,487,414.87,,,,,,,,,,,,
256803,1561295645076,5,2.41,1.79,2.77,2.14,3.42,0.33,-0.32,0.53,15,2,25,0.46,9508,71,88,39,84,1176,485.0,612,453,60,124.0,388,1,418,556,189,0,0,472,-1923,-10483,484,181.28,,,,,,,,,,,,
256823,1561295645102,3,2.41,1.79,2.79,2.13,3.46,0.46,-0.25,0.5,15,2,27,0.52,9873,65,88,39,84,1257,485.0,621,457,60,123.0,388,1,401,570,189,0,0,468,32033,-1562,485,-5.59,,,,,,,,,,,,
256843,1561295645122,2,2.42,1.76,2.82,2.1,3.5,0.54,-0.34,0.42,15,4,25,0.63,10168,83,88,39,83,1337,487.0,625,461,60,124.0,388,1,406,535,189,0,0,477,8488,-899,487,-5.59,45.698734,4.909675,47.87,195.9,4,0.805,0,0.0,0.4483,5,0.29,4.2807
256863,1561295645142,2,2.43,1.76,2.75,2.09,3.48,0.42,-0.47,0.55,15,4,23,0.63,10302,64,88,39,83,1418,488.0,639,464,60,124.0,428,1,415,535,209,0,0,495,-1923,11560,491,181.28,,,,,,,,,,,,
256883,1561295645162,6,2.42,1.81,2.64,2.14,3.38,0.29,-0.61,0.66,15,7,23,0.68,10162,47,88,39,83,1498,495.0,640,456,60,124.0,428,1,406,535,209,0,0,561,10305,17136,496,181.28,,,,,,,,,,,,
256903,1561295645182,3,2.43,1.95,2.57,2.23,3.3,0.29,-0.59,0.67,15,8,23,0.66,10016,69,88,39,82,1498,499.0,632,458,60,123.0,428,1,397,528,209,0,0,565,8488,-22519,504,-5.59,,,,,,,,,,,,
256923,1561295645202,2,2.44,2.06,2.49,2.3,3.27,0.22,-0.63,0.68,14,8,21,0.67,9978,15,88,39,75,1494,506.0,636,450,60,124.0,428,1,396,472,209,0,0,512,-6441,2088,506,181.28,,,,,,,,,,,,
256943,1561295645222,3,2.45,2.11,2.48,2.33,3.27,0.18,-0.66,0.81,14,10,22,0.68,9811,20,88,39,65,1466,512.0,640,455,60,124.0,428,1,407,393,209,0,0,518,-1562,-30064,512,414.87,45.698734,4.909658,47.46,195.9,4,0.805,0,0.0,0.45,5,0.29,4.2824
256963,1561295645242,2,2.45,2.14,2.48,2.34,3.24,0.25,-0.66,0.76,15,6,21,0.71,9704,34,88,39,58,1438,514.0,636,465,60,124.0,251,1,406,336,129,0,0,527,998,-22519,514,-5.59,,,,,,,,,,,,
256983,1561295645262,3,2.45,2.16,2.48,2.35,3.29,0.32,-0.52,0.79,16,4,21,0.61,9625,20,88,39,53,1410,516.0,635,452,60,124.0,251,1,397,312,129,0,0,530,-9216,-30064,516,414.87,,,,,,,,,,,,
257003,1561295645282,5,2.45,2.13,2.53,2.35,3.42,0.46,-0.58,0.76,16,2,20,0.74,9571,28,88,39,51,1383,518.0,630,458,60,124.0,251,1,391,279,129,0,0,542,2524,10408,518,181.28,,,,,,,,,,,,
257023,1561295645302,3,2.46,2.07,2.63,2.36,3.5,0.46,-0.46,0.76,17,2,20,0.66,9595,34,88,39,49,1325,521.0,623,460,60,124.0,251,1,385,258,129,0,0,533,11560,2104,521,181.28,,,,,,,,,,,,
257043,1561295645322,3,2.46,2.04,2.69,2.34,3.55,0.43,-0.55,0.79,16,1,20,0.7,9699,18,88,39,47,1269,525.0,635,459,60,124.0,251,1,380,238,129,0,0,513,15661,-32248,525,181.28,45.69873,4.909641,48.94,195.9,4,0.805,0,0.0,0.4517,5,0.29,4.284
257063,1561295645342,1,2.46,2.01,2.74,2.33,3.55,0.44,-0.6,0.73,17,1,21,0.74,9750,20,88,39,43,1237,527.0,633,461,60,124.0,163,1,350,230,86,0,0,515,-32248,-28648,527,-5.59,,,,,,,,,,,,
257083,1561295645362,5,2.46,2.0,2.76,2.32,3.55,0.43,-0.69,0.74,18,1,20,0.82,9654,4,88,39,38,1208,527.0,638,462,60,124.0,163,1,317,210,86,0,0,515,6274,-32248,527,181.28,,,,,,,,,,,,
257103,1561295645382,11,2.46,2.01,2.74,2.33,3.56,0.54,-0.69,0.78,18,1,20,0.88,9375,1,88,39,33,1137,530.0,631,457,60,124.0,163,1,302,195,86,0,0,509,2109,2524,530,181.28,,,,,,,,,,,,
257123,1561295645402,13,2.45,2.01,2.73,2.32,3.59,0.61,-0.59,0.72,18,-0,20,0.85,9141,0,88,39,30,1063,525.0,627,463,60,124.0,163,1,291,187,86,0,0,494,248,2524,525,-5.59,,,,,,,,,,,,
257143,1561295645422,12,2.46,1.96,2.73,2.29,3.61,0.73,-0.57,0.7,20,-0,20,0.93,8907,1,88,39,27,1012,519.0,628,459,60,124.0,163,1,278,186,86,0,0,482,-6441,-8187,518,181.28,45.69873,4.909623,51.42,195.9,4,0.805,0,0.0,0.4533,5,0.29,4.2857
257163,1561295645442,10,2.46,1.74,2.75,2.23,3.7,0.84,-0.59,0.7,20,-3,20,1.03,8688,2,88,39,26,969,519.0,620,461,60,124.0,117,1,274,186,61,0,0,473,505,-8187,517,181.28,,,,,,,,,,,,
257183,1561295645462,13,2.46,1.63,2.79,2.21,3.74,0.78,-0.62,0.62,20,-1,23,1.0,8453,3,88,39,25,919,516.0,615,460,60,125.0,117,1,270,183,61,0,0,449,-6656,26178,515,414.87,,,,,,,,,,,,
257203,1561295645482,12,2.45,1.61,2.86,2.16,3.76,0.91,-0.6,0.62,21,-3,21,1.09,8245,2,88,39,24,867,517.0,611,461,60,124.0,117,1,270,166,61,0,0,434,-10483,-3856,517,-5.59,,,,,,,,,,,,
257223,1561295645500,13,2.46,1.56,2.86,2.14,3.78,0.8,-0.62,0.54,21,1,21,1.02,8023,0,88,39,23,848,516.0,602,463,60,124.0,117,1,270,155,61,0,0,390,-899,10994,516,414.87,,,,,,,,,,,,
257243,1561295645520,15,2.45,1.55,2.9,2.13,3.78,0.73,-0.6,0.44,22,2,24,0.95,7874,0,88,39,23,840,515.0,593,461,60,124.0,117,1,268,152,61,0,0,332,2212,6274,515,414.87,45.698727,4.909605,51.21,195.9,4,0.805,0,0.0,0.455,5,0.29,4.2874
257263,1561295645540,10,2.46,1.61,2.85,2.14,3.77,0.82,-0.61,0.36,23,4,24,1.02,7665,0,88,39,22,843,511.0,585,462,60,125.0,85,1,266,149,44,0,0,306,3576,17136,511,181.28,,,,,,,,,,,,
257283,1561295645560,15,2.45,1.63,2.78,2.17,3.78,0.91,-0.64,0.34,23,6,24,1.11,7494,2,88,39,22,849,504.0,572,462,60,124.0,85,1,264,149,44,0,0,285,14488,-32248,504,181.28,,,,,,,,,,,,
257303,1561295645580,14,2.46,1.6,2.82,2.19,3.78,0.95,-0.71,0.34,22,7,25,1.18,7270,3,88,39,22,860,500.0,557,461,60,125.0,85,1,262,147,44,0,0,256,-7939,15661,500,181.28,,,,,,,,,,,,
257323,1561295645602,11,2.45,1.58,2.85,2.09,3.78,0.66,-0.73,0.22,22,8,27,0.98,7072,0,88,39,21,874,497.0,551,461,60,123.0,85,1,260,147,44,0,0,190,8488,998,497,-5.59,,,,,,,,,,,,
257343,1561295645622,15,2.43,1.56,2.8,2.05,3.78,0.76,-0.71,0.39,23,5,27,1.04,6898,0,88,39,21,888,499.0,543,464,60,124.0,85,1,260,145,44,0,0,165,30272,-6528,499,181.28,45.698727,4.909587,49.69,195.9,4,0.805,0,0.0,0.4567,5,0.29,4.2891
257363,1561295645642,10,2.43,1.55,2.8,2.07,3.77,0.82,-0.65,0.23,22,9,26,1.05,6634,3,88,39,21,902,495.0,531,463,60,125.0,72,1,260,144,36,0,0,151,2211,-32768,489,414.87,,,,,,,,,,,,
257383,1561295645662,12,2.42,1.57,2.84,2.06,3.73,0.78,-0.7,0.28,21,7,24,1.05,6343,0,88,39,21,909,488.0,515,461,60,125.0,72,1,260,143,36,0,0,140,-23623,505,488,181.28,,,,,,,,,,,,
257403,1561295645682,12,2.41,1.56,2.85,2.07,3.72,0.67,-0.77,0.4,20,7,23,1.02,6044,0,88,39,21,909,486.0,495,460,60,124.0,72,1,260,141,36,0,0,240,10305,-899,486,181.28,,,,,,,,,,,,
257423,1561295645702,12,2.42,1.55,2.85,2.06,3.71,0.7,-0.86,0.54,19,3,24,1.11,5857,0,88,39,22,907,481.0,477,460,60,126.0,72,1,260,144,36,0,0,250,15649,10305,480,181.28,,,,,,,,,,,,
257443,1561295645722,14,2.42,1.57,2.88,2.06,3.61,0.84,-0.89,0.54,19,1,24,1.22,5669,0,88,39,22,901,475.0,463,464,60,125.0,72,1,258,144,36,0,0,231,10305,2212,475,414.87,45.69873,4.90957,48.26,195.9,4,0.805,0,0.0,0.4583,5,0.29,4.2907
257463,1561295645742,14,2.41,1.56,2.91,2.07,3.58,0.96,-0.83,0.45,20,-0,23,1.26,5504,0,88,39,23,897,470.0,441,465,60,124.0,65,1,260,148,31,0,0,292,-7939,17628,470,181.28,,,,,,,,,,,,
257483,1561295645762,13,2.42,1.53,2.96,2.04,3.69,0.95,-0.77,0.43,19,1,24,1.22,5496,0,88,39,24,892,461.0,412,463,60,124.0,65,1,261,152,31,0,0,268,-28332,18584,460,-5.59,,,,,,,,,,,,
257503,1561295645782,13,2.41,1.51,3.07,1.95,3.77,0.97,-0.8,0.4,18,-1,21,1.26,5590,3,88,39,25,887,459.0,410,460,60,126.0,65,1,265,152,31,0,0,210,-768,-768,459,181.28,,,,,,,,,,,,
257523,1561295645802,16,2.4,1.52,3.12,1.9,3.77,1.06,-0.69,0.27,19,2,23,1.27,5453,0,88,39,25,882,458.0,400,467,60,123.0,65,1,264,157,31,0,0,148,-3322,20625,458,-5.59,,,,,,,,,,,,
257543,1561295645822,14,2.39,1.56,3.03,1.9,3.77,0.88,-0.67,0.26,18,2,22,1.1,5310,3,88,39,26,879,453.0,385,468,60,124.0,65,1,264,80,31,0,0,105,-3322,-8985,453,-5.59,45.69873,4.909553,46.6,195.9,4,0.805,0,0.0,0.46,5,0.3,4.2924
257563,1561295645842,13,2.37,1.64,3.01,1.94,3.77,0.99,-0.65,0.19,18,0,20,1.19,5122,3,88,39,27,879,448.0,384,460,60,123.0,66,1,264,157,30,0,0,105,-8165,16648,443,181.28,,,,,,,,,,,,
257583,1561295645862,14,2.36,1.65,3.04,2.01,3.79,1.03,-0.71,0.27,17,-2,22,1.25,4988,0,88,39,28,881,441.0,385,462,60,125.0,66,1,263,156,30,0,0,66,-26615,20625,441,181.28,,,,,,,,,,,,
257603,1561295645882,17,2.33,1.67,3.07,1.99,3.78,0.98,-0.64,0.32,15,-2,25,1.17,4831,0,88,39,29,884,437.0,381,467,60,124.0,66,1,254,78,30,0,0,66,3826,1779,437,-5.59,,,,,,,,,,,,
257623,1561295645901,17,2.33,1.72,3.12,1.95,3.74,0.94,-0.57,0.24,13,-1,22,1.1,4627,0,88,39,30,888,431.0,376,460,60,124.0,66,1,241,77,30,0,0,66,18584,3635,431,-5.59,,,,,,,,,,,,
257643,1561295645921,18,2.3,1.74,3.12,1.91,3.65,0.93,-0.55,0.27,13,0,21,1.08,4448,0,88,39,31,892,424.0,367,462,60,123.0,66,1,230,155,30,0,0,66,7154,1779,424,-5.59,45.698734,4.909537,44.61,195.9,4,0.805,0,0.0,0.4617,5,0.3,4.2941
257663,1561295645941,21,2.29,1.72,3.09,1.88,3.6,0.9,-0.53,0.32,11,0,19,1.05,4325,0,88,39,32,896,421.0,356,461,60,124.0,59,1,222,80,25,0,0,28,9517,-21792,421,-5.59,,,,,,,,,,,,
257683,1561295645961,16,2.29,1.69,3.11,1.82,3.56,0.98,-0.52,0.3,9,-3,19,1.11,4174,0,88,39,33,906,413.0,348,468,60,126.0,59,1,218,159,25,0,0,133,10392,-3414,410,181.28,,,,,,,,,,,,
257703,1561295645981,18,2.26,1.65,3.11,1.6,3.57,1.09,-0.43,0.33,8,-4,16,1.17,4021,0,88,39,33,913,409.0,332,456,60,124.0,59,1,208,158,25,0,0,156,10392,-26615,407,181.28,,,,,,,,,,,,
257723,1561295645997,19,2.25,1.63,3.13,1.43,3.59,1.13,-0.35,0.25,6,1,14,1.18,3945,0,88,39,34,919,409.0,326,462,60,124.0,59,1,209,159,25,0,0,160,11560,-3866,402,-5.59,,,,,,,,,,,,
257743,1561295646017,18,2.21,1.69,3.15,1.38,3.57,1.1,-0.24,0.23,4,-2,10,1.12,3997,0,88,39,34,926,405.0,317,463,60,126.0,59,1,213,159,25,0,0,125,-9211,28160,391,181.28,45.698734,4.909522,42.54,195.9,4,0.805,0,0.0,0.4633,5,0.3,4.2957
257763,1561295646037,18,2.19,1.8,3.18,1.35,3.58,1.19,-0.17,0.15,2,-1,9,1.2,4038,0,88,39,34,937,402.0,315,464,60,125.0,62,1,216,160,24,0,0,91,10541,10686,381,181.28,,,,,,,,,,,,
257783,1561295646057,18,2.16,1.93,3.21,1.35,3.54,1.18,-0.07,0.14,0,1,4,1.19,3910,3,88,39,35,950,397.0,312,462,60,124.0,62,1,215,161,24,0,0,118,-3968,150,365,-5.59,,,,,,,,,,,,
257803,1561295646077,14,2.14,2.01,3.23,1.34,3.54,1.21,-0.01,0.06,-3,-1,1,1.21,3903,0,88,39,35,956,394.0,308,460,60,126.0,62,1,214,161,24,0,0,156,-1818,-22016,355,181.28,,,,,,,,,,,,
257823,1561295646101,20,2.11,2.07,3.27,1.32,3.54,1.25,0.03,0.11,-7,-1,-1,1.25,4015,0,88,39,35,962,389.0,306,461,60,124.0,62,1,222,84,24,0,0,150,-6524,-1281,344,-5.59,,,,,,,,,,,,
257843,1561295646121,13,2.11,2.12,3.33,1.32,3.45,1.24,0.12,0.05,-10,1,-6,1.24,4047,0,88,39,36,974,388.0,307,463,60,124.0,62,1,231,86,24,0,0,164,-31744,-1532,332,-5.59,45.698738,4.909507,39.53,195.8,4,0.805,0,0.0,0.465,5,0.3,4.2974
257863,1561295646141,7,2.11,2.15,3.37,1.31,3.37,1.28,0.21,-0.01,-12,-2,-9,1.3,3974,0,88,39,36,985,383.0,310,465,60,126.0,72,1,226,162,24,0,0,310,-19126,16384,328,181.28,,,,,,,,,,,,
257883,1561295646161,3,2.11,2.16,3.43,1.28,3.37,1.28,0.35,0.02,-15,-5,-12,1.32,4057,0,88,39,36,990,377.0,308,459,60,124.0,72,1,231,163,24,0,0,285,-6656,-1480,322,181.28,,,,,,,,,,,,
257903,1561295646181,5,2.12,2.16,3.51,1.25,3.37,1.29,0.4,0.1,-17,-5,-17,1.35,4190,0,88,39,36,995,376.0,312,459,60,124.0,72,1,239,166,24,0,0,308,3,250,325,-5.59,,,,,,,,,,,,
257923,1561295646201,4,2.13,2.2,3.52,1.26,3.38,1.18,0.42,0.1,-19,-2,-22,1.25,4274,3,88,39,37,1005,375.0,315,465,60,124.0,72,1,254,170,24,0,0,288,770,250,320,-5.59,,,,,,,,,,,,
257943,1561295646221,1,2.13,2.26,3.53,1.28,3.39,1.0,0.48,0.14,-22,0,-25,1.11,4361,3,88,39,37,1015,375.0,319,472,60,126.0,72,1,255,172,24,0,0,303,770,250,317,181.28,45.698738,4.909494,36.31,195.8,4,0.805,0,0.0,0.4667,5,0.3,4.299
257963,1561295646241,-1,2.14,2.32,3.52,1.32,3.37,0.97,0.55,0.1,-25,1,-29,1.11,4275,0,88,39,37,1021,372.0,322,465,60,126.0,85,1,250,170,27,0,0,345,257,250,315,181.28,,,,,,,,,,,,
257983,1561295646261,0,2.15,2.37,3.52,1.33,3.3,0.96,0.59,0.04,-28,-2,-30,1.12,4253,0,88,39,37,1026,368.0,325,461,60,126.0,85,1,249,167,27,0,0,347,0,-1,311,181.28,,,,,,,,,,,,
258003,1561295646281,0,2.17,2.43,3.52,1.32,3.27,1.02,0.67,0.04,-30,-3,-32,1.22,4311,0,88,39,37,981,362.0,327,463,60,125.0,85,1,252,171,27,0,0,323,2790,5140,309,181.28,,,,,,,,,,,,
258023,1561295646301,-1,2.18,2.46,3.52,1.31,3.24,1.05,0.74,0.11,-30,-6,-33,1.29,4384,0,88,39,37,931,358.0,331,461,60,126.0,85,1,256,173,27,0,0,334,-29978,-1,305,181.28,,,,,,,,,,,,
258043,1561295646321,0,2.21,2.46,3.52,1.31,3.24,1.07,0.76,0.18,-30,-6,-34,1.31,4358,0,88,39,37,877,354.0,331,464,60,125.0,85,1,255,172,27,0,0,342,3302,-1482,305,181.28,45.698738,4.909482,33.59,195.8,4,0.805,0,0.0,0.4683,5,0.3,4.3007
258063,1561295646341,5,2.23,2.45,3.5,1.32,3.24,1.03,0.7,0.23,-29,-4,-35,1.25,4284,0,88,39,37,823,354.0,332,466,60,124.0,88,1,251,93,27,0,0,351,3302,14312,306,-5.59,,,,,,,,,,,,
258083,1561295646361,2,2.26,2.44,3.44,1.33,3.23,0.92,0.7,0.26,-29,-3,-37,1.15,4222,0,88,39,38,767,350.0,330,458,60,124.0,88,1,254,94,27,0,0,344,-30454,-1,306,-5.59,,,,,,,,,,,,
258103,1561295646381,-0,2.29,2.42,3.41,1.33,3.23,0.87,0.67,0.3,-29,-2,-36,1.1,4149,0,88,39,37,710,342.0,327,450,60,125.0,88,1,243,167,27,0,0,318,-31206,250,306,181.28,,,,,,,,,,,,
258123,1561295646401,0,2.32,2.4,3.4,1.33,3.28,0.89,0.73,0.24,-27,-4,-37,1.15,4218,0,88,39,37,690,338.0,327,461,60,125.0,88,1,247,169,27,0,0,296,3346,-1,306,181.28,,,,,,,,,,,,
258143,1561295646421,-0,2.36,2.29,3.37,1.32,3.36,0.99,0.73,0.19,-25,-6,-37,1.23,4319,3,88,39,37,688,331.0,329,458,60,125.0,88,1,252,172,27,0,0,289,-12032,-2560,303,181.28,45.698738,4.90947,32.11,195.8,4,0.805,0,0.0,0.47,5,0.3,4.3024
258163,1561295646441,-1,2.4,2.14,3.3,1.32,3.41,1.05,0.72,0.19,-23,-8,-34,1.28,4424,3,88,39,37,700,329.0,330,453,60,125.0,91,1,259,174,28,0,0,263,165,250,305,181.28,,,,,,,,,,,,
258183,1561295646461,-0,2.43,2.11,3.26,1.36,3.41,1.11,0.66,0.22,-21,-8,-31,1.29,4525,1,88,39,38,719,324.0,333,455,60,126.0,91,1,270,180,28,0,0,240,160,2414,303,181.28,,,,,,,,,,,,
258203,1561295646481,-2,2.48,2.1,3.24,1.41,3.4,1.12,0.67,0.26,-19,-9,-28,1.31,4644,3,88,39,38,739,317.0,339,453,60,124.0,91,1,276,183,28,0,0,259,-30976,-1,305,181.28,,,,,,,,,,,,
258223,1561295646503,2,2.5,2.09,3.24,1.45,3.37,1.07,0.7,0.25,-16,-9,-25,1.28,4734,3,88,39,39,760,307.0,347,453,60,125.0,91,1,286,186,28,0,0,290,30720,-1527,304,181.28,,,,,,,,,,,,
258243,1561295646523,5,2.52,2.06,3.23,1.46,3.37,0.89,0.61,0.36,-13,-5,-22,1.08,4854,2,88,39,39,786,307.0,352,462,60,126.0,91,1,292,195,28,0,0,283,25600,23040,306,181.28,45.698738,4.909459,30.98,195.8,4,0.805,0,0.0,0.4717,5,0.3,4.304
258263,1561295646543,-0,2.52,2.01,3.25,1.5,3.39,1.0,0.5,0.35,-9,-4,-18,1.12,4998,4,88,39,39,815,309.0,364,456,60,123.0,120,1,299,124,37,0,0,281,0,0,309,-5.59,,,,,,,,,,,,
258283,1561295646563,3,2.52,1.93,3.23,1.59,3.43,1.03,0.53,0.38,-4,-6,-13,1.15,5093,6,88,39,40,834,311.0,370,457,60,125.0,120,1,301,202,37,0,0,275,250,10686,311,181.28,,,,,,,,,,,,
258303,1561295646583,0,2.53,1.89,3.22,1.71,3.49,0.91,0.41,0.38,-0,-2,-11,1.0,5203,14,88,39,42,842,311.0,377,457,60,124.0,120,1,307,131,37,0,0,271,250,20480,310,-5.59,,,,,,,,,,,,
258323,1561295646601,1,2.54,1.84,3.16,1.86,3.53,1.02,0.37,0.3,4,-3,-8,1.09,5328,27,88,39,45,848,308.0,385,460,60,125.0,120,1,318,211,37,0,0,270,30208,0,308,414.87,,,,,,,,,,,,
258343,1561295646621,1,2.53,1.8,3.02,1.98,3.52,0.94,0.21,0.37,6,-1,-4,0.97,5508,31,87,39,51,854,304.0,394,460,60,123.0,120,1,337,232,37,0,0,274,2414,24320,304,-5.59,45.698738,4.909448,29.81,195.8,4,0.805,0,0.0,0.4733,5,0.3,4.3057
258363,1561295646641,-0,2.54,1.79,2.98,2.07,3.53,0.84,0.09,0.49,7,-1,-1,0.84,5630,24,87,39,55,857,302.0,403,457,60,125.0,172,1,352,172,52,0,0,271,250,85,301,-5.59,,,,,,,,,,,,
258383,1561295646661,-0,2.55,1.79,2.98,2.11,3.55,0.74,-0.03,0.54,8,-0,1,0.74,5779,28,87,39,58,854,301.0,413,460,60,126.0,172,1,363,249,52,0,0,271,-1281,100,301,181.28,,,,,,,,,,,,
258403,1561295646681,-1,2.58,1.8,2.98,2.14,3.57,0.73,-0.15,0.59,10,-2,4,0.74,5886,21,87,39,60,850,300.0,423,458,60,126.0,172,1,372,248,52,0,0,271,-1281,24320,300,181.28,,,,,,,,,,,,
258423,1561295646701,-1,2.58,1.79,2.95,2.16,3.57,0.75,-0.25,0.6,12,-2,6,0.79,5958,24,87,39,61,846,299.0,430,460,60,125.0,172,1,377,245,52,0,0,270,250,90,298,414.87,,,,,,,,,,,,
258443,1561295646721,-2,2.62,1.8,2.91,2.17,3.59,0.76,-0.3,0.62,13,-4,9,0.82,6040,20,87,39,62,844,300.0,440,459,60,125.0,172,1,379,254,52,0,0,267,-1281,90,300,181.28,45.698738,4.909437,29.23,195.8,4,0.805,0,0.0,0.475,5,0.3,4.3074
258463,1561295646741,-2,2.65,1.81,2.88,2.19,3.61,0.69,-0.37,0.6,15,-4,12,0.78,6111,24,87,39,62,842,301.0,446,461,60,125.0,196,1,382,257,59,0,0,267,-1,24320,301,181.28,,,,,,,,,,,,
258483,1561295646761,-1,2.65,1.85,2.83,2.18,3.64,0.61,-0.45,0.62,17,-3,14,0.76,6050,22,87,39,63,841,301.0,447,460,60,125.0,196,1,377,262,59,0,0,284,-1,25600,300,181.28,,,,,,,,,,,,
258503,1561295646781,-1,2.66,1.83,2.77,2.18,3.67,0.65,-0.52,0.7,19,-4,16,0.83,5870,19,87,39,64,844,303.0,448,456,60,125.0,196,1,360,263,59,0,0,330,-1,115,303,181.28,,,,,,,,,,,,
258523,1561295646801,5,2.66,1.83,2.71,2.18,3.67,0.7,-0.53,0.7,20,-4,19,0.88,5676,22,87,39,65,847,308.0,439,455,60,126.0,196,1,343,282,59,0,0,359,-1281,29440,308,181.28,,,,,,,,,,,,
258543,1561295646821,3,2.66,1.88,2.72,2.19,3.67,0.8,-0.47,0.59,22,-5,21,0.93,5686,24,87,39,66,852,308.0,432,462,60,123.0,196,1,340,290,59,0,0,320,-1281,110,309,414.87,45.698738,4.909427,28.37,195.8,4,0.805,0,0.0,0.4767,5,0.31,4.3091
258563,1561295646841,1,2.66,1.92,2.73,2.19,3.68,0.75,-0.49,0.51,23,-4,22,0.9,5709,24,87,39,67,865,307.0,426,460,60,124.0,208,1,339,297,64,0,0,277,250,115,307,-5.59,,,,,,,,,,,,
258583,1561295646861,-1,2.67,1.93,2.74,2.18,3.67,0.66,-0.55,0.57,23,-2,22,0.86,5669,24,87,39,68,906,308.0,431,463,60,124.0,208,1,333,306,64,0,0,288,250,30720,308,-5.59,,,,,,,,,,,,
258603,1561295646881,-0,2.67,1.94,2.72,2.19,3.66,0.66,-0.62,0.65,24,-3,23,0.9,5592,21,87,39,68,945,311.0,426,448,60,126.0,208,1,327,307,64,0,0,308,-1527,32000,311,181.28,,,,,,,,,,,,
258623,1561295646900,2,2.68,1.94,2.72,2.18,3.68,0.78,-0.6,0.61,25,-4,24,0.98,5661,25,87,39,69,980,310.0,420,463,60,123.0,208,1,332,318,64,0,0,314,250,115,310,414.87,,,,,,,,,,,,
258643,1561295646920,2,2.68,1.93,2.74,2.17,3.7,0.79,-0.56,0.55,26,-3,25,0.97,5704,22,87,40,69,1020,310.0,422,459,60,123.0,208,1,335,245,64,0,0,292,250,30720,310,-5.59,45.698738,4.909417,29.15,195.7,4,0.805,0,0.0,0.4783,5,0.31,4.3107
258663,1561295646940,1,2.68,1.92,2.75,2.16,3.72,0.77,-0.61,0.55,27,-3,25,0.99,5732,21,87,40,70,1084,311.0,428,471,60,124.0,219,1,336,316,68,0,0,290,250,125,311,-5.59,,,,,,,,,,,,
258683,1561295646960,-0,2.69,1.9,2.71,2.15,3.72,0.73,-0.71,0.67,28,-1,27,1.02,5742,17,87,40,69,1146,314.0,428,458,60,125.0,219,1,337,316,68,0,0,316,30208,-32256,314,-5.59,,,,,,,,,,,,
258703,1561295646980,-1,2.69,1.9,2.67,2.12,3.69,0.71,-0.78,0.72,28,-0,28,1.05,5815,13,87,40,69,1172,317.0,428,456,60,125.0,219,1,343,316,68,0,0,314,30208,-30976,317,181.28,,,,,,,,,,,,
258723,1561295646996,0,2.7,1.9,2.66,2.12,3.68,0.71,-0.8,0.76,30,2,30,1.07,5857,14,87,40,68,1199,319.0,429,457,60,125.0,219,1,347,302,68,0,0,292,30208,140,319,181.28,,,,,,,,,,,,
258743,1561295647016,1,2.7,1.89,2.66,2.13,3.68,0.76,-0.77,0.69,31,3,32,1.08,5848,17,87,40,68,1213,319.0,430,456,60,125.0,219,1,346,302,68,0,0,307,-1534,-28416,319,414.87,45.698738,4.909406,29.59,195.7,4,0.805,0,0.0,0.48,5,0.31,4.3124
258763,1561295647036,5,2.71,1.89,2.67,2.15,3.69,0.84,-0.74,0.61,32,4,33,1.12,5861,13,87,40,68,1226,320.0,430,459,60,124.0,209,1,347,302,67,0,0,342,630,-28416,320,181.28,,,,,,,,,,,,
258783,1561295647056,4,2.72,1.9,2.7,2.19,3.72,0.89,-0.71,0.53,32,3,35,1.14,5898,15,87,40,68,1214,321.0,430,458,60,123.0,209,1,350,302,67,0,0,335,250,140,321,-5.59,,,,,,,,,,,,
258803,1561295647076,4,2.75,1.9,2.72,2.22,3.71,0.9,-0.63,0.42,33,3,36,1.09,6011,14,87,40,67,1200,321.0,437,461,60,125.0,209,1,362,292,67,0,0,300,30208,150,321,414.87,,,,,,,,,,,,
258823,1561295647102,4,2.76,1.9,2.71,2.22,3.72,0.9,-0.63,0.34,34,5,37,1.1,6017,14,87,40,67,1187,322.0,439,457,60,124.0,209,1,362,292,67,0,0,287,-1534,-27136,322,414.87,,,,,,,,,,,,
258843,1561295647122,4,2.76,1.91,2.68,2.23,3.72,0.86,-0.57,0.38,35,5,37,1.03,5959,10,87,40,66,1174,324.0,442,456,60,125.0,209,1,361,284,67,0,0,344,250,155,324,414.87,45.698742,4.909395,30.01,195.7,4,0.805,0,0.0,0.4817,5,0.31,4.3141
258863,1561295647142,3,2.75,1.89,2.68,2.25,3.71,0.84,-0.56,0.36,37,7,36,1.01,5931,16,87,40,66,1171,324.0,445,461,60,123.0,197,1,359,285,64,0,0,343,-1534,145,325,-5.59,,,,,,,,,,,,
258883,1561295647162,3,2.74,1.88,2.68,2.24,3.72,0.84,-0.6,0.29,38,7,37,1.03,6013,16,87,40,66,1170,325.0,446,458,60,124.0,197,1,365,283,64,0,0,311,630,155,325,414.87,,,,,,,,,,,,
258903,1561295647182,5,2.72,1.85,2.68,2.23,3.72,0.86,-0.6,0.27,39,7,37,1.05,6034,19,87,40,66,1174,328.0,446,464,60,123.0,197,1,366,284,64,0,0,293,630,-24576,328,-5.59,,,,,,,,,,,,
258923,1561295647202,4,2.69,1.84,2.67,2.23,3.71,0.9,-0.56,0.27,40,7,38,1.06,5939,18,87,40,66,1179,329.0,446,457,60,125.0,197,1,360,285,64,0,0,320,1886,165,329,414.87,,,,,,,,,,,,
258943,1561295647222,3,2.66,1.85,2.67,2.22,3.71,0.86,-0.51,0.29,41,9,38,1.0,5935,15,87,40,67,1185,329.0,448,460,60,124.0,197,1,357,293,64,0,0,348,24064,-24576,329,414.87,45.698746,4.909385,30.41,195.6,4,0.805,0,0.0,0.4833,5,0.31,4.3157
258963,1561295647242,3,2.62,1.85,2.69,2.2,3.71,0.79,-0.47,0.28,41,9,38,0.92,6013,17,87,40,67,1191,328.0,451,455,60,124.0,201,1,362,292,66,0,0,328,250,-23296,328,414.87,,,,,,,,,,,,
258983,1561295647262,4,2.59,1.91,2.72,2.2,3.72,0.76,-0.44,0.14,40,11,40,0.88,6081,14,87,40,68,1202,326.0,456,466,60,123.0,201,1,360,301,66,0,0,296,-16896,-24576,326,181.28,,,,,,,,,,,,
259003,1561295647282,4,2.57,1.98,2.75,2.2,3.71,0.76,-0.38,0.13,39,11,39,0.85,6077,13,87,40,69,1215,325.0,455,462,60,124.0,201,1,359,317,66,0,0,316,41,165,325,181.28,,,,,,,,,,,,
259023,1561295647302,5,2.52,2.05,2.75,2.2,3.69,0.82,-0.32,0.11,37,10,39,0.88,5988,19,87,40,71,1224,324.0,456,457,60,125.0,201,1,354,347,66,0,0,342,20480,160,324,414.87,,,,,,,,,,,,
259043,1561295647322,4,2.49,2.07,2.74,2.19,3.61,0.9,-0.23,0.07,35,11,39,0.92,5984,23,87,40,73,1230,324.0,451,453,60,124.0,201,1,350,377,66,0,0,304,23040,150,324,414.87,45.69875,4.909374,30.87,195.6,4,0.805,0,0.0,0.485,5,0.31,4.3174
259063,1561295647342,5,2.44,2.12,2.74,2.16,3.52,0.82,-0.14,0.04,33,11,38,0.83,5954,29,87,40,75,1241,323.0,443,461,60,123.0,273,1,346,406,88,0,0,305,24320,160,323,414.87,,,,,,,,,,,,
259083,1561295647362,5,2.38,2.2,2.75,2.15,3.45,0.76,-0.12,0.01,30,11,37,0.76,6009,25,87,40,76,1254,320.0,442,461,60,123.0,273,1,348,425,88,0,0,306,25600,-25856,320,414.87,,,,,,,,,,,,
259103,1561295647382,-1,2.35,2.23,2.79,2.11,3.4,0.72,-0.09,0.01,27,10,35,0.73,6028,24,87,40,77,1264,319.0,442,457,60,123.0,273,1,348,430,88,0,0,314,110,150,319,181.28,,,,,,,,,,,,
259123,1561295647402,1,2.31,2.27,2.8,2.06,3.35,0.7,0.0,0.04,23,9,32,0.7,6083,19,87,40,78,1271,318.0,448,455,60,125.0,273,1,349,436,88,0,0,325,32000,-24576,318,181.28,,,,,,,,,,,,
259143,1561295647422,-0,2.27,2.32,2.81,2.02,3.24,0.65,0.03,0.11,20,10,29,0.65,6113,23,87,40,79,1280,316.0,452,458,60,125.0,273,1,349,442,88,0,0,324,-29696,-24576,316,181.28,45.698753,4.909365,30.75,195.6,4,0.805,0,0.0,0.4867,5,0.31,4.319
259163,1561295647442,1,2.23,2.34,2.82,2.0,3.16,0.58,0.02,0.17,17,11,26,0.58,6151,41,87,40,80,1290,320.0,453,454,60,125.0,324,1,350,449,103,0,0,326,150,160,317,181.28,,,,,,,,,,,,
259183,1561295647462,1,2.21,2.38,2.86,1.99,3.11,0.58,0.02,0.25,14,12,23,0.58,6169,25,87,40,80,1297,324.0,456,459,60,125.0,324,1,351,449,103,0,0,330,160,-20736,318,181.28,,,,,,,,,,,,
259203,1561295647482,2,2.17,2.42,2.92,1.98,3.1,0.6,0.03,0.39,11,10,19,0.6,6161,33,87,40,81,1299,329.0,458,458,60,124.0,324,1,350,455,103,0,0,336,-20736,-12032,318,-5.59,,,,,,,,,,,,
259223,1561295647502,2,2.16,2.44,2.95,1.97,3.1,0.58,0.08,0.47,10,9,16,0.58,6129,26,87,40,82,1294,334.0,460,461,60,124.0,324,1,348,460,103,0,0,337,4838,-20736,320,-5.59,,,,,,,,,,,,
259243,1561295647522,4,2.15,2.48,3.02,1.98,3.11,0.61,0.12,0.59,8,7,13,0.62,6196,27,87,40,83,1279,336.0,463,458,60,124.0,324,1,349,403,103,0,0,340,13,-6528,321,-5.59,45.698757,4.909355,31.36,195.6,4,0.805,0,0.0,0.4883,5,0.31,4.3207
259263,1561295647542,-0,2.15,2.51,3.09,1.98,3.15,0.68,0.21,0.6,7,5,10,0.71,6330,49,87,40,83,1263,339.0,467,464,60,124.0,346,1,354,468,111,0,0,344,-122,3346,320,-5.59,,,,,,,,,,,,
259283,1561295647562,0,2.14,2.51,3.11,1.98,3.16,0.59,0.27,0.46,5,7,7,0.65,6425,39,87,39,83,1245,341.0,473,455,60,124.0,346,1,357,475,111,0,0,345,-14714,13,322,414.87,,,,,,,,,,,,
259303,1561295647582,4,2.15,2.51,3.11,1.97,3.16,0.69,0.21,0.59,2,5,4,0.72,6512,36,87,39,83,1224,346.0,481,461,60,124.0,346,1,360,410,111,0,0,351,-30438,3327,324,-5.59,,,,,,,,,,,,
259323,1561295647602,1,2.15,2.51,3.1,1.98,3.15,0.56,0.27,0.6,1,4,2,0.62,6597,31,87,39,84,1200,347.0,487,459,60,124.0,346,1,361,483,111,0,0,351,8841,4104,328,181.28,,,,,,,,,,,,
259343,1561295647622,1,2.16,2.5,3.05,1.99,3.12,0.56,0.32,0.57,-0,6,-0,0.64,6670,31,87,39,84,1178,349.0,493,461,60,125.0,346,1,365,484,111,0,0,354,-30454,6870,331,181.28,45.698761,4.909345,32.3,195.5,4,0.805,0,0.0,0.49,5,0.31,4.3224
259363,1561295647642,-0,2.15,2.49,3.01,1.98,3.09,0.55,0.28,0.68,-1,2,-3,0.61,6730,31,87,39,84,1171,352.0,497,460,60,124.0,372,1,368,486,124,0,0,355,3183,-6644,333,-5.59,,,,,,,,,,,,
259383,1561295647662,4,2.16,2.49,2.98,1.99,3.08,0.57,0.3,0.66,-2,3,-4,0.64,6808,27,87,39,84,1161,354.0,500,456,60,125.0,372,1,370,488,124,0,0,358,3302,-29978,338,181.28,,,,,,,,,,,,
259403,1561295647682,0,2.15,2.49,2.98,1.99,3.09,0.47,0.28,0.66,-3,2,-5,0.55,6858,29,87,39,84,1146,359.0,503,461,60,124.0,372,1,372,489,124,0,0,364,-29302,0,340,-5.59,,,,,,,,,,,,
259423,1561295647702,2,2.16,2.48,2.99,2.0,3.09,0.63,0.34,0.76,-4,0,-5,0.71,6898,30,87,39,84,1132,361.0,505,456,60,125.0,372,1,373,489,124,0,0,369,3082,8200,345,181.28,,,,,,,,,,,,
259443,1561295647722,1,2.15,2.48,2.99,1.99,3.08,0.37,0.37,0.58,-5,4,-6,0.52,6988,31,87,39,84,1123,365.0,505,458,60,124.0,372,1,377,491,124,0,0,374,-6405,2278,350,414.87,45.698765,4.909335,33.27,195.5,4,0.805,0,0.0,0.4917,5,0.31,4.324
259463,1561295647742,1,2.16,2.47,2.98,2.0,3.09,0.53,0.4,0.65,-6,-1,-7,0.66,7033,29,87,39,84,1110,370.0,509,453,60,123.0,369,1,379,492,130,0,0,379,486,8200,352,181.28,,,,,,,,,,,,
259483,1561295647762,5,2.15,2.48,2.97,2.0,3.09,0.68,0.43,0.78,-6,-0,-9,0.81,7070,34,87,39,84,1085,373.0,515,458,60,124.0,369,1,382,493,130,0,0,382,-6656,-6656,356,-5.59,,,,,,,,,,,,
259503,1561295647782,4,2.17,2.46,2.97,2.0,3.09,0.42,0.39,0.67,-7,4,-10,0.57,7153,25,87,39,83,1059,377.0,514,455,60,125.0,369,1,387,488,130,0,0,383,-6656,-19019,361,414.87,,,,,,,,,,,,
259523,1561295647802,3,2.18,2.47,2.97,2.0,3.08,0.21,0.31,0.64,-8,2,-11,0.37,7200,22,87,39,83,1043,381.0,517,457,60,123.0,369,1,389,489,130,0,0,384,-18948,-1562,364,414.87,,,,,,,,,,,,
259543,1561295647822,1,2.17,2.47,2.98,2.01,3.09,0.32,0.29,0.77,-9,-0,-12,0.43,7315,28,87,39,83,1026,384.0,527,460,60,124.0,369,1,396,490,130,0,0,390,-19019,1,367,414.87,45.698769,4.909324,34.86,195.5,4,0.805,0,0.0,0.4933,5,0.31,4.3257
259563,1561295647842,1,2.19,2.47,2.98,2.0,3.1,0.49,0.29,0.85,-9,-3,-13,0.57,7393,27,87,39,82,989,388.0,532,458,60,123.0,363,1,402,482,134,0,0,396,-31744,505,370,181.28,,,,,,,,,,,,
259583,1561295647862,3,2.2,2.47,2.98,2.01,3.1,0.64,0.3,0.93,-9,-4,-14,0.71,7518,25,87,39,79,952,392.0,534,458,60,124.0,363,1,410,461,134,0,0,397,1,1504,375,181.28,,,,,,,,,,,,
259603,1561295647882,3,2.21,2.48,2.97,2.02,3.1,0.78,0.35,0.99,-9,-5,-14,0.85,7545,14,87,39,74,930,395.0,540,460,60,124.0,363,1,415,414,134,0,0,402,17144,-9211,379,-5.59,,,,,,,,,,,,
259623,1561295647901,1,2.22,2.48,2.97,2.02,3.11,0.85,0.41,0.98,-8,-7,-14,0.94,7503,13,87,39,67,909,398.0,550,460,60,123.0,363,1,424,341,134,0,0,406,6384,10392,382,181.28,,,,,,,,,,,,
259643,1561295647921,-0,2.23,2.48,2.94,2.01,3.12,0.96,0.41,1.08,-7,-8,-14,1.05,7253,6,87,39,62,888,399.0,548,460,60,124.0,363,1,427,300,134,0,0,405,28696,6512,388,-5.59,45.698772,4.909312,36.77,195.4,4,0.805,0,0.0,0.495,5,0.31,4.3274
259663,1561295647941,5,2.24,2.45,2.94,2.01,3.16,0.96,0.43,1.06,-7,-7,-14,1.05,7083,6,87,39,56,868,402.0,538,460,60,124.0,187,1,400,259,73,0,0,402,10541,6512,392,-5.59,,,,,,,,,,,,
259683,1561295647961,2,2.26,2.42,2.96,2.0,3.25,0.96,0.37,0.96,-7,-6,-15,1.03,6996,7,87,39,51,863,401.0,530,453,60,125.0,187,1,380,239,73,0,0,399,11545,6384,391,181.28,,,,,,,,,,,,
259703,1561295647981,-0,2.26,2.38,3.01,1.98,3.29,0.9,0.37,0.94,-7,-7,-14,0.97,6936,10,87,39,48,864,401.0,525,461,60,123.0,187,1,371,224,73,0,0,400,11545,-32702,389,181.28,,,,,,,,,,,,
259723,1561295647995,4,2.27,2.35,3.04,1.98,3.34,0.95,0.37,0.96,-6,-6,-14,1.01,6926,5,87,39,45,849,402.0,524,461,60,124.0,187,1,354,215,73,0,0,402,10541,-6524,389,181.28,,,,,,,,,,,,
259743,1561295648015,1,2.28,2.33,3.07,1.97,3.38,0.81,0.29,0.9,-7,-5,-12,0.87,6820,2,87,39,42,833,402.0,523,461,60,125.0,187,1,331,210,73,0,0,402,11545,-6524,390,414.87,45.698776,4.909299,38.58,195.4,4,0.805,0,0.0,0.4967,5,0.32,4.3291
259763,1561295648035,3,2.29,2.31,3.08,1.96,3.38,0.82,0.3,0.89,-7,-5,-11,0.87,6749,4,87,39,41,815,403.0,522,458,60,124.0,135,1,324,207,53,0,0,403,11545,-1562,393,-5.59,,,,,,,,,,,,
259783,1561295648055,1,2.3,2.29,3.06,1.97,3.36,0.86,0.23,0.81,-5,-4,-11,0.89,6609,5,87,39,39,799,401.0,515,462,60,124.0,135,1,310,206,53,0,0,399,11545,-6656,395,414.87,,,,,,,,,,,,
259803,1561295648075,2,2.32,2.25,3.05,1.95,3.37,0.92,0.19,0.85,-5,-5,-11,0.94,6569,4,87,39,38,780,399.0,510,460,60,125.0,135,1,307,200,53,0,0,391,28696,505,395,181.28,,,,,,,,,,,,
259823,1561295648097,5,2.32,2.18,3.05,1.96,3.38,0.84,0.16,0.77,-4,-3,-11,0.85,6644,10,86,39,37,762,394.0,510,458,60,123.0,135,1,304,194,53,0,0,377,-1818,19125,392,-5.59,,,,,,,,,,,,
259843,1561295648117,1,2.35,2.13,3.07,1.95,3.42,0.93,0.08,0.72,-3,-4,-11,0.93,6793,10,86,39,36,756,389.0,514,460,60,125.0,135,1,301,188,53,0,0,379,-6524,-19126,387,181.28,45.69878,4.909286,38.96,195.4,4,0.805,0,0.0,0.4983,5,0.32,4.3307
259863,1561295648137,-1,2.38,2.04,3.11,1.96,3.49,0.79,0.08,0.63,-3,-2,-9,0.79,6916,3,87,39,35,755,388.0,520,461,60,123.0,120,1,298,183,47,0,0,370,240,257,388,-5.59,,,,,,,,,,,,
259883,1561295648157,4,2.41,1.95,3.14,1.96,3.52,0.91,0.03,0.7,-1,-4,-7,0.91,7014,4,87,39,34,761,387.0,525,462,60,125.0,120,1,295,101,47,0,0,366,-6475,742,387,-5.59,,,,,,,,,,,,
259903,1561295648177,1,2.47,1.91,3.11,1.97,3.52,0.75,-0.07,0.59,0,0,-3,0.76,7126,4,87,39,33,770,388.0,532,464,60,125.0,120,1,292,172,47,0,0,369,8200,3,388,181.28,,,,,,,,,,,,
259923,1561295648201,1,2.52,1.87,3.05,2.0,3.52,0.71,-0.14,0.49,3,1,-2,0.73,7131,5,87,39,32,779,393.0,538,458,60,124.0,120,1,290,167,47,0,0,373,3,2278,393,-5.59,,,,,,,,,,,,
259943,1561295648221,0,2.55,1.8,2.97,2.05,3.54,0.73,-0.14,0.55,6,3,-1,0.74,7115,6,87,39,31,788,392.0,539,463,60,124.0,120,1,285,165,47,0,0,370,-6656,-6475,392,-5.59,45.698784,4.909273,38.62,195.3,4,0.805,0,0.0,0.5,5,0.32,4.3324
259963,1561295648241,4,2.59,1.76,2.86,2.13,3.55,0.85,-0.19,0.57,8,1,1,0.87,7075,1,87,39,31,802,394.0,537,461,60,125.0,111,1,285,165,44,0,0,364,0,-1562,394,181.28,,,,,,,,,,,,
259983,1561295648261,0,2.62,1.73,2.85,2.18,3.63,0.83,-0.3,0.51,11,1,4,0.88,7006,1,87,38,30,822,393.0,537,458,60,125.0,111,1,281,164,44,0,0,359,2790,-1562,393,414.87,,,,,,,,,,,,
260003,1561295648281,0,2.62,1.71,2.83,2.24,3.67,0.78,-0.42,0.55,13,-0,10,0.89,6965,4,87,38,30,835,393.0,531,461,60,123.0,111,1,281,164,44,0,0,354,4104,-31744,393,-5.59,,,,,,,,,,,,
260023,1561295648301,3,2.63,1.69,2.8,2.29,3.72,0.77,-0.45,0.59,15,-0,13,0.89,6908,2,87,38,29,844,393.0,533,463,60,125.0,111,1,277,164,44,0,0,354,3302,-6475,393,414.87,,,,,,,,,,,,
260043,1561295648321,-0,2.62,1.66,2.8,2.33,3.78,0.89,-0.48,0.47,18,2,13,1.02,6825,3,87,38,30,851,391.0,526,460,60,124.0,111,1,282,164,44,0,0,345,28553,-19019,391,414.87,45.698788,4.90926,37.67,195.3,4,0.805,0,0.0,0.5017,5,0.32,4.3341
260063,1561295648341,1,2.63,1.66,2.82,2.37,3.79,0.71,-0.59,0.55,19,3,14,0.93,6764,4,87,38,30,855,392.0,526,463,60,126.0,107,1,282,87,42,0,0,341,28553,-19126,392,-5.59,,,,,,,,,,,,
260083,1561295648361,-1,2.63,1.67,2.81,2.37,3.79,0.79,-0.63,0.42,21,3,17,1.01,6715,5,87,38,30,856,390.0,519,460,60,124.0,107,1,282,164,42,0,0,334,8841,-19126,391,414.87,,,,,,,,,,,,
260103,1561295648381,3,2.62,1.66,2.82,2.37,3.79,0.78,-0.72,0.56,22,-2,21,1.06,6677,4,87,38,30,850,390.0,520,463,60,125.0,107,1,282,164,42,0,0,334,-1246,8200,390,181.28,,,,,,,,,,,,
260123,1561295648401,0,2.61,1.66,2.82,2.36,3.79,0.81,-0.68,0.56,24,-2,25,1.06,6599,1,86,38,31,849,389.0,510,462,60,123.0,107,1,286,165,42,0,0,333,6870,8200,387,-5.59,,,,,,,,,,,,
260143,1561295648421,1,2.6,1.66,2.82,2.34,3.79,0.88,-0.71,0.53,25,-2,27,1.13,6585,0,86,38,31,850,386.0,510,462,60,126.0,107,1,286,165,42,0,0,323,-10554,-6656,386,181.28,45.698792,4.909248,37.5,195.3,4,0.805,0,0.0,0.5033,5,0.32,4.3357
260163,1561295648441,4,2.56,1.66,2.82,2.32,3.78,0.85,-0.75,0.53,26,1,29,1.14,6578,3,86,38,32,853,386.0,514,462,60,124.0,106,1,290,167,41,0,0,321,6668,-18948,384,-5.59,,,,,,,,,,,,
260183,1561295648461,0,2.55,1.67,2.83,2.33,3.78,0.94,-0.66,0.46,26,2,30,1.15,6553,2,86,38,32,860,383.0,512,463,60,124.0,106,1,290,167,41,0,0,328,6668,-992,383,414.87,,,,,,,,,,,,
260203,1561295648481,1,2.53,1.67,2.83,2.3,3.74,0.87,-0.69,0.45,25,2,30,1.11,6512,2,86,38,32,866,382.0,506,463,60,125.0,106,1,290,167,41,0,0,329,6668,-6656,382,181.28,,,,,,,,,,,,
260223,1561295648501,4,2.49,1.69,2.84,2.26,3.7,0.83,-0.68,0.38,25,2,30,1.08,6542,4,86,38,33,870,379.0,507,462,60,124.0,106,1,292,172,41,0,0,334,6668,-6656,379,-5.59,,,,,,,,,,,,
260243,1561295648521,-1,2.48,1.73,2.85,2.23,3.67,0.89,-0.61,0.28,25,2,29,1.08,6551,4,86,38,33,873,374.0,458,460,60,124.0,106,1,292,172,41,0,0,331,6668,-6405,374,414.87,45.698799,4.909236,36.79,195.3,4,0.805,0,0.0,0.505,5,0.32,4.3374
260263,1561295648541,3,2.45,1.76,2.86,2.19,3.65,0.79,-0.63,0.37,24,0,27,1.01,6581,7,86,38,34,868,369.0,369,460,60,125.0,116,1,295,177,43,0,0,335,-14714,-1268,369,181.28,,,,,,,,,,,,
260283,1561295648561,-1,2.43,1.76,2.87,2.17,3.61,0.74,-0.56,0.35,23,1,27,0.93,6623,7,86,38,34,866,365.0,403,464,60,124.0,116,1,295,177,43,0,0,341,-31206,-6458,365,181.28,,,,,,,,,,,,
260303,1561295648581,-0,2.41,1.79,2.87,2.14,3.57,0.86,-0.54,0.37,22,-2,27,1.01,6613,5,86,38,35,862,364.0,421,461,60,126.0,116,1,298,183,43,0,0,341,-14714,-6458,362,181.28,,,,,,,,,,,,
260323,1561295648601,4,2.36,1.84,2.88,2.12,3.5,0.87,-0.45,0.46,21,-3,27,0.98,6602,7,86,38,36,858,361.0,404,461,60,124.0,116,1,301,112,43,0,0,341,-14714,-29978,361,-5.59,,,,,,,,,,,,
260343,1561295648621,1,2.33,1.86,2.9,2.09,3.48,0.92,-0.42,0.43,19,-2,26,1.02,6581,4,86,38,37,859,356.0,400,457,60,124.0,116,1,304,194,43,0,0,341,-10554,4104,356,414.87,45.698799,4.909225,35.83,195.2,4,0.805,0,0.0,0.5067,5,0.32,4.339
260363,1561295648641,2,2.29,1.92,2.94,2.06,3.44,0.92,-0.33,0.44,17,-1,26,0.98,6576,5,86,38,39,857,355.0,389,458,60,125.0,144,1,310,206,51,0,0,344,6870,-6644,355,181.28,,,,,,,,,,,,
260383,1561295648661,-1,2.26,1.99,3.0,2.02,3.37,0.94,-0.29,0.45,14,-0,24,0.98,6618,12,86,38,42,854,352.0,399,463,60,124.0,144,1,331,209,51,0,0,346,8841,-30454,352,-5.59,,,,,,,,,,,,
260403,1561295648681,2,2.22,2.08,3.07,1.99,3.3,0.88,-0.2,0.42,11,-0,21,0.9,6625,13,86,38,44,850,349.0,395,460,60,125.0,144,1,345,213,51,0,0,347,2811,-1246,348,181.28,,,,,,,,,,,,
260423,1561295648701,4,2.19,2.12,3.16,1.96,3.26,0.95,-0.06,0.45,9,-2,19,0.95,6641,18,86,38,47,846,352.0,416,460,60,124.0,144,1,366,218,51,0,0,350,3183,-1246,345,-5.59,,,,,,,,,,,,
260443,1561295648721,1,2.15,2.16,3.17,1.93,3.22,0.85,-0.08,0.44,7,0,16,0.85,6670,18,86,38,49,843,353.0,449,461,60,125.0,144,1,372,228,51,0,0,353,3302,-14714,343,414.87,45.698807,4.909216,34.56,195.3,4,0.805,0,0.0,0.5083,5,0.32,4.3407
260463,1561295648741,4,2.12,2.22,3.25,1.91,3.2,0.92,0.05,0.47,4,-2,14,0.92,6718,18,86,38,53,835,353.0,463,462,60,124.0,181,1,385,243,62,0,0,353,-6644,-31206,340,-5.59,,,,,,,,,,,,
260483,1561295648761,2,2.07,2.28,3.33,1.89,3.17,0.78,0.07,0.41,1,-0,11,0.78,6791,22,86,38,56,830,356.0,487,458,60,125.0,181,1,395,262,62,0,0,356,4104,13,337,414.87,,,,,,,,,,,,
260503,1561295648781,-1,2.06,2.31,3.36,1.85,3.17,0.9,0.26,0.41,-1,-4,10,0.94,6883,25,86,38,59,826,357.0,495,462,60,124.0,181,1,409,204,62,0,0,356,-6640,4838,335,-5.59,,,,,,,,,,,,
260523,1561295648801,4,2.02,2.34,3.36,1.83,3.16,0.76,0.19,0.44,-4,-1,8,0.78,6926,26,86,38,62,822,359.0,503,456,60,125.0,181,1,416,293,62,0,0,357,-29302,-32559,332,414.87,,,,,,,,,,,,
260543,1561295648821,2,2.01,2.37,3.39,1.8,3.15,0.74,0.29,0.47,-7,-2,4,0.79,7059,21,86,38,64,830,362.0,512,461,60,125.0,181,1,413,306,62,0,0,361,2790,-12032,330,414.87,45.698814,4.909206,34.48,195.2,4,0.805,0,0.0,0.51,5,0.32,4.3424
260563,1561295648841,0,2.01,2.41,3.42,1.79,3.15,0.87,0.45,0.45,-9,-2,-1,0.98,7118,24,86,38,65,836,363.0,518,459,60,124.0,251,1,411,239,83,0,0,363,3082,-20736,329,-5.59,,,,,,,,,,,,
260583,1561295648861,5,2.0,2.45,3.42,1.78,3.13,0.81,0.47,0.49,-12,-0,-4,0.93,7107,15,86,38,67,845,365.0,523,462,60,124.0,251,1,402,316,83,0,0,362,-6405,4104,329,181.28,,,,,,,,,,,,
260603,1561295648881,3,2.0,2.5,3.37,1.79,3.09,0.61,0.47,0.42,-14,0,-6,0.77,7038,22,86,38,67,855,369.0,529,458,60,125.0,251,1,399,318,83,0,0,369,-6656,-18948,328,181.28,,,,,,,,,,,,
260623,1561295648901,0,2.01,2.51,3.33,1.79,3.06,0.75,0.51,0.53,-15,-2,-10,0.9,6962,18,86,38,68,896,370.0,525,466,60,124.0,251,1,390,321,83,0,0,373,486,-6475,331,181.28,,,,,,,,,,,,
260643,1561295648921,5,2.0,2.53,3.31,1.79,3.03,0.74,0.52,0.58,-17,-1,-13,0.91,6947,24,86,38,69,945,369.0,521,457,60,124.0,251,1,389,263,83,0,0,376,257,-29302,332,-5.59,45.698818,4.909197,33.62,195.2,4,0.805,0,0.0,0.5117,5,0.32,4.344
260663,1561295648941,2,2.01,2.52,3.29,1.79,3.0,0.55,0.5,0.58,-19,1,-15,0.75,6890,27,86,38,69,989,372.0,518,460,60,125.0,271,1,387,348,90,0,0,372,1,-1268,333,414.87,,,,,,,,,,,,
260683,1561295648961,1,2.0,2.52,3.28,1.79,2.99,0.7,0.55,0.67,-19,-2,-17,0.89,6835,24,86,38,71,1028,374.0,515,460,60,123.0,271,1,382,363,90,0,0,373,742,257,335,-5.59,,,,,,,,,,,,
260703,1561295648981,3,2.01,2.52,3.28,1.78,3.0,0.52,0.53,0.65,-21,0,-19,0.75,6865,25,86,38,71,1082,374.0,514,458,60,125.0,271,1,383,363,90,0,0,373,742,-6656,337,181.28,,,,,,,,,,,,
260723,1561295648996,-0,2.04,2.52,3.31,1.78,3.01,0.66,0.54,0.65,-21,-3,-21,0.85,6972,21,86,38,71,1140,376.0,518,465,60,124.0,271,1,387,365,90,0,0,375,3,2278,341,-5.59,,,,,,,,,,,,
260743,1561295649016,2,2.05,2.52,3.31,1.78,3.02,0.76,0.63,0.62,-21,-5,-22,0.98,7072,27,86,38,71,1176,377.0,516,461,60,124.0,271,1,392,367,90,0,0,374,-6656,19125,341,-5.59,45.698822,4.909186,33.93,195.2,4,0.805,0,0.0,0.5133,5,0.33,4.3457
260763,1561295649036,5,2.08,2.52,3.3,1.8,3.03,0.54,0.58,0.64,-22,-2,-23,0.79,7200,20,86,38,71,1194,379.0,521,462,60,125.0,296,1,399,371,101,0,0,375,8200,-6656,343,181.28,,,,,,,,,,,,
260783,1561295649056,3,2.12,2.51,3.26,1.82,3.06,0.39,0.49,0.69,-22,-2,-24,0.63,7321,17,86,38,70,1204,378.0,530,457,60,125.0,296,1,408,372,101,0,0,384,2278,19125,347,181.28,,,,,,,,,,,,
260803,1561295649076,2,2.16,2.5,3.18,1.89,3.06,0.41,0.46,0.74,-21,-2,-24,0.61,7304,25,86,38,70,1210,381.0,534,458,60,123.0,296,1,407,360,101,0,0,386,-18948,-3866,350,414.87,,,,,,,,,,,,
260823,1561295649102,2,2.19,2.5,3.08,1.96,3.05,0.57,0.43,0.86,-20,-5,-26,0.71,7292,21,86,38,70,1207,381.0,532,457,60,124.0,296,1,406,359,101,0,0,386,-18948,-18948,355,414.87,,,,,,,,,,,,
260843,1561295649122,-0,2.24,2.48,3.02,2.03,3.06,0.71,0.42,0.97,-18,-6,-25,0.83,7205,23,86,38,70,1195,382.0,523,464,60,123.0,296,1,401,357,101,0,0,388,19125,-6475,361,-5.59,45.698826,4.909175,34.79,195.2,4,0.805,0,0.0,0.515,5,0.33,4.3474
260863,1561295649142,1,2.27,2.47,2.97,2.1,3.08,0.65,0.41,0.97,-17,-4,-23,0.77,7145,14,86,38,69,1173,383.0,528,462,60,124.0,254,1,399,340,93,0,0,389,-19019,-6475,367,-5.59,,,,,,,,,,,,
260883,1561295649162,5,2.32,2.43,2.92,2.16,3.15,0.38,0.28,0.9,-16,-1,-22,0.47,7102,16,86,38,67,1142,385.0,523,461,60,125.0,254,1,402,321,93,0,0,388,-19126,-19019,374,181.28,,,,,,,,,,,,
260903,1561295649182,2,2.36,2.41,2.91,2.25,3.23,0.43,0.19,0.85,-13,-3,-22,0.47,7056,13,86,38,64,1116,382.0,515,460,60,123.0,254,1,413,310,93,0,0,388,19125,-31744,376,414.87,,,,,,,,,,,,
260923,1561295649202,-1,2.43,2.36,2.91,2.29,3.33,0.56,0.15,0.96,-10,-4,-21,0.57,7107,21,86,38,62,1096,381.0,521,460,60,124.0,254,1,422,298,93,0,0,385,-992,240,381,-5.59,,,,,,,,,,,,
260943,1561295649222,5,2.47,2.26,2.91,2.32,3.46,0.69,0.06,1.01,-7,-6,-19,0.7,7151,13,86,38,60,1074,385.0,517,461,60,124.0,254,1,421,288,93,0,0,383,2278,240,385,-5.59,45.698833,4.909164,36.29,195.2,4,0.805,0,0.0,0.5167,5,0.33,4.3491
260963,1561295649242,3,2.53,2.15,2.9,2.33,3.54,0.47,-0.12,0.88,-5,-3,-15,0.49,7217,7,86,38,57,1051,389.0,514,460,60,125.0,192,1,406,273,75,0,0,384,-6656,1,389,414.87,,,,,,,,,,,,
260983,1561295649262,4,2.54,1.92,2.85,2.21,3.61,0.23,-0.26,0.76,-1,-1,-11,0.34,7338,8,86,38,56,1032,393.0,529,462,60,125.0,192,1,402,268,75,0,0,385,770,-1818,393,181.28,,,,,,,,,,,,
261003,1561295649282,4,2.56,1.68,2.76,2.17,3.72,0.32,-0.32,0.8,3,-1,-9,0.45,7393,10,86,38,54,1029,400.0,533,461,60,123.0,192,1,390,257,75,0,0,391,2278,2524,400,181.28,,,,,,,,,,,,
261023,1561295649302,3,2.55,1.65,2.68,2.24,3.72,0.49,-0.32,0.85,5,-3,-7,0.58,7494,6,86,38,53,1023,405.0,532,457,60,124.0,192,1,387,252,75,0,0,407,-6656,-8151,404,414.87,,,,,,,,,,,,
261043,1561295649322,4,2.56,1.67,2.69,2.28,3.73,0.51,-0.39,0.86,7,-2,-2,0.65,7569,24,86,38,52,1013,408.0,538,462,60,123.0,192,1,384,247,75,0,0,419,770,11560,408,181.28,45.698837,4.909151,37.99,195.2,4,0.805,0,0.0,0.5183,5,0.33,4.3507
261063,1561295649342,5,2.57,1.68,2.71,2.33,3.76,0.37,-0.42,0.85,9,-1,4,0.56,7678,18,86,38,51,1003,409.0,553,462,60,125.0,173,1,381,242,71,0,0,399,-6656,11560,409,181.28,,,,,,,,,,,,
261083,1561295649362,1,2.56,1.7,2.72,2.38,3.75,0.3,-0.44,0.82,11,1,6,0.53,7722,13,86,38,50,996,407.0,561,462,60,125.0,173,1,378,238,71,0,0,392,742,-4059,407,181.28,,,,,,,,,,,,
261103,1561295649382,1,2.56,1.77,2.72,2.41,3.74,0.22,-0.48,0.74,12,5,7,0.53,7725,10,86,38,49,984,410.0,566,455,60,125.0,173,1,375,232,71,0,0,433,742,-26615,410,181.28,,,,,,,,,,,,
261123,1561295649402,1,2.55,1.84,2.67,2.43,3.57,0.37,-0.49,0.67,14,5,11,0.62,7706,22,86,38,49,954,411.0,566,462,60,124.0,173,1,375,232,71,0,0,414,-6656,13040,411,-5.59,,,,,,,,,,,,
261143,1561295649422,2,2.56,1.87,2.53,2.45,3.35,0.54,-0.51,0.68,15,2,15,0.74,7754,18,86,38,49,924,408.0,565,460,60,123.0,173,1,375,232,71,0,0,388,-6656,13040,408,-5.59,45.698837,4.909139,38.52,195.1,4,0.805,0,0.0,0.52,5,0.33,4.3524
261163,1561295649442,1,2.56,1.87,2.51,2.43,3.36,0.69,-0.53,0.78,16,-1,14,0.86,7681,31,86,38,50,901,407.0,563,462,60,124.0,169,1,378,237,69,0,0,394,742,11560,407,414.87,,,,,,,,,,,,
261183,1561295649462,2,2.54,1.86,2.58,2.42,3.48,0.79,-0.5,0.9,18,-3,14,0.94,7533,3,86,38,53,874,410.0,555,462,60,124.0,169,1,387,253,69,0,0,423,-6656,9517,409,414.87,,,,,,,,,,,,
261203,1561295649482,2,2.53,1.84,2.61,2.42,3.6,0.89,-0.51,0.99,19,-7,19,1.02,7566,20,86,38,57,835,409.0,552,460,60,124.0,169,1,410,275,69,0,0,445,-992,10392,409,414.87,,,,,,,,,,,,
261223,1561295649498,5,2.51,1.84,2.65,2.4,3.7,0.89,-0.49,0.97,19,-8,21,1.01,7687,28,86,38,60,797,411.0,553,458,60,125.0,169,1,433,293,69,0,0,424,19125,9517,411,414.87,,,,,,,,,,,,
261243,1561295649518,1,2.51,1.85,2.76,2.39,3.73,0.77,-0.52,0.92,19,-7,20,0.93,7861,18,86,38,64,780,413.0,560,461,60,125.0,169,1,444,324,69,0,0,399,-19126,-3414,413,181.28,45.698845,4.909126,39.58,195.1,4,0.805,0,0.0,0.5217,5,0.33,4.3541
261263,1561295649538,3,2.51,1.86,2.84,2.38,3.73,0.74,-0.6,0.86,19,-6,22,0.95,7938,43,86,38,69,765,413.0,566,459,60,125.0,259,1,445,368,107,0,0,410,-6475,-9166,413,-5.59,,,,,,,,,,,,
261283,1561295649558,4,2.51,1.9,2.85,2.37,3.73,0.74,-0.59,0.87,20,-7,24,0.95,7982,40,86,38,77,760,415.0,578,461,60,124.0,259,1,436,446,107,0,0,438,-3866,-3414,416,414.87,,,,,,,,,,,,
261303,1561295649578,-1,2.52,1.94,2.83,2.4,3.63,0.7,-0.59,0.88,20,-6,22,0.92,8050,35,86,37,82,755,418.0,577,462,60,124.0,259,1,437,496,107,0,0,421,240,-4082,418,181.28,,,,,,,,,,,,
261323,1561295649600,5,2.52,1.96,2.78,2.42,3.57,0.69,-0.64,0.88,21,-4,24,0.94,8184,47,86,37,84,765,420.0,575,458,60,124.0,259,1,435,534,107,0,0,408,505,-4082,420,-5.59,,,,,,,,,,,,
261343,1561295649620,-0,2.53,1.97,2.69,2.43,3.54,0.68,-0.59,0.86,22,-5,27,0.9,8278,38,86,37,84,776,424.0,592,457,60,124.0,259,1,433,548,107,0,0,436,1,-7939,424,181.28,45.698849,4.909114,39.88,195.1,4,0.805,0,0.0,0.5233,5,0.33,4.3557
261363,1561295649640,4,2.54,1.98,2.59,2.46,3.46,0.7,-0.62,0.9,23,-4,24,0.93,8419,57,86,37,84,837,427.0,596,446,60,123.0,407,1,431,552,174,0,0,451,17144,19477,430,-5.59,,,,,,,,,,,,
261383,1561295649660,4,2.53,1.97,2.52,2.46,3.47,0.66,-0.65,0.94,23,-4,26,0.93,8445,29,86,37,84,900,431.0,592,466,60,124.0,407,1,430,555,174,0,0,455,6384,2131,431,181.28,,,,,,,,,,,,
261403,1561295649680,-0,2.52,1.96,2.47,2.45,3.46,0.64,-0.65,0.98,24,-5,26,0.91,8553,58,86,37,83,955,436.0,593,457,60,123.0,407,1,427,480,174,0,0,465,-8151,15649,436,-5.59,,,,,,,,,,,,
261423,1561295649700,5,2.49,1.97,2.46,2.45,3.47,0.62,-0.68,1.08,24,-2,27,0.92,8668,46,86,37,83,1007,441.0,597,460,60,124.0,407,1,425,550,174,0,0,463,-26615,-6387,441,-5.59,,,,,,,,,,,,
261443,1561295649720,5,2.45,2.03,2.46,2.44,3.49,0.7,-0.67,1.15,24,-5,27,0.97,8704,41,86,37,82,1077,446.0,607,458,60,124.0,407,1,423,535,174,0,0,473,-4059,6193,446,-5.59,45.698856,4.909103,40.98,195.1,4,0.805,0,0.0,0.525,5,0.33,4.3574
261463,1561295649740,3,2.41,2.09,2.49,2.44,3.48,0.7,-0.76,1.11,22,-2,27,1.03,8798,45,86,37,82,1151,448.0,603,463,60,124.0,399,1,422,535,179,0,0,464,-21944,10432,449,181.28,,,,,,,,,,,,
261483,1561295649760,5,2.38,1.94,2.53,2.43,3.4,0.8,-0.79,1.17,21,-4,28,1.13,8865,37,86,37,83,1186,458.0,610,451,60,124.0,399,1,421,550,179,0,0,464,13552,-9203,458,181.28,,,,,,,,,,,,
261503,1561295649780,6,2.35,1.97,2.59,2.31,3.28,0.8,-0.77,1.08,19,-3,28,1.11,8903,42,86,37,81,1208,461.0,608,466,60,124.0,399,1,418,535,179,0,0,472,5600,505,461,181.28,,,,,,,,,,,,
261523,1561295649800,3,2.34,2.15,2.56,2.3,3.2,0.73,-0.78,0.96,19,-2,26,1.07,8903,56,86,37,81,1223,464.0,621,466,60,124.0,399,1,418,535,179,0,0,459,21432,-23367,464,181.28,,,,,,,,,,,,
261543,1561295649820,5,2.3,2.35,2.54,2.43,3.17,0.68,-0.79,0.93,18,-2,23,1.04,8903,52,86,37,82,1235,460.0,610,457,60,124.0,399,1,419,535,179,0,0,474,10305,8488,460,181.28,45.698864,4.909092,42.42,195.1,4,0.805,0,0.0,0.5267,5,0.33,4.359
261563,1561295649840,3,2.27,2.45,2.58,2.53,3.18,0.56,-0.69,0.93,16,-2,24,0.89,8928,35,86,37,82,1234,463.0,616,450,60,123.0,389,1,419,535,180,0,0,488,10305,2212,463,181.28,,,,,,,,,,,,
261583,1561295649860,4,2.25,2.53,2.74,2.58,3.18,0.53,-0.56,0.83,13,-3,22,0.77,9049,51,86,37,83,1225,465.0,618,451,60,123.0,389,1,418,550,180,0,0,486,16648,998,465,181.28,,,,,,,,,,,,
261603,1561295649880,5,2.23,2.61,2.6,2.54,3.18,0.53,-0.6,0.87,9,-5,22,0.8,9159,46,86,37,82,1217,466.0,617,458,60,124.0,389,1,417,535,180,0,0,491,2211,-899,466,181.28,,,,,,,,,,,,
261623,1561295649900,5,2.21,2.75,2.62,2.51,2.97,0.46,-0.63,0.8,7,-4,20,0.78,9209,69,86,37,82,1209,469.0,612,463,60,124.0,389,1,417,535,180,0,0,485,10432,-1818,465,181.28,,,,,,,,,,,,
261643,1561295649920,2,2.21,2.78,2.81,2.47,2.94,0.62,-0.55,0.88,6,-9,15,0.82,9263,67,86,37,82,1206,476.0,627,458,60,124.0,389,1,417,535,180,0,0,492,-23367,-4054,464,-5.59,45.698872,4.90908,45.09,195.1,4,0.805,0,0.0,0.5283,5,0.34,4.3607
261663,1561295649940,4,2.21,2.75,3.06,2.44,3.19,0.47,-0.46,0.83,5,-8,13,0.66,9441,42,86,37,82,1208,479.0,613,461,60,123.0,405,1,417,535,190,0,0,537,10305,17136,469,-5.59,,,,,,,,,,,,
261683,1561295649960,5,2.21,2.74,3.15,2.43,3.4,0.39,-0.44,0.82,3,-9,8,0.59,9730,33,86,37,82,1207,486.0,628,456,60,124.0,405,1,407,523,190,0,0,536,-1562,16383,472,181.28,,,,,,,,,,,,
261703,1561295649980,3,2.22,2.72,3.21,2.41,3.48,0.29,-0.29,0.75,0,-7,8,0.41,10064,53,86,37,81,1202,488.0,627,460,60,123.0,405,1,400,524,190,0,0,529,1,2088,475,-5.59,,,,,,,,,,,,
261723,1561295649995,5,2.22,2.74,3.27,2.39,3.38,0.27,-0.24,0.69,-2,-8,5,0.36,10212,76,86,37,81,1196,495.0,633,464,60,123.0,405,1,410,524,190,0,0,521,3,-25872,478,181.28,,,,,,,,,,,,
261743,1561295650015,4,2.22,2.77,3.3,2.38,3.34,0.21,-0.2,0.7,-3,-6,2,0.29,10474,65,86,37,81,1189,503.0,643,457,60,123.0,405,1,428,524,190,0,0,548,11560,2048,479,-5.59,45.698879,4.909069,48.07,195.1,4,0.805,0,0.0,0.53,5,0.34,4.3624
261763,1561295650035,4,2.21,2.77,3.21,2.38,3.25,0.23,0.02,0.73,-4,-6,1,0.24,10714,27,86,37,81,1177,506.0,647,460,60,123.0,442,1,435,524,213,0,0,560,-28648,-2934,481,181.28,,,,,,,,,,,,
261783,1561295650055,2,2.22,2.75,3.12,2.38,3.15,0.28,0.07,0.74,-7,-6,-0,0.29,10806,45,86,37,81,1159,511.0,645,459,60,124.0,442,1,437,524,213,0,0,570,-3856,2088,486,-5.59,,,,,,,,,,,,
261803,1561295650075,2,2.22,2.73,3.07,2.35,3.04,0.3,0.08,0.86,-9,-5,-2,0.31,10800,40,86,37,79,1142,519.0,646,453,60,123.0,442,1,438,509,213,0,0,571,-8187,-18357,492,414.87,,,,,,,,,,,,
261823,1561295650101,2,2.24,2.72,3.02,2.31,2.87,0.31,0.22,0.87,-10,-3,-3,0.38,10788,58,86,37,74,1130,523.0,641,457,60,124.0,442,1,441,481,213,0,0,555,-22519,208,496,181.28,,,,,,,,,,,,
261843,1561295650121,3,2.25,2.7,3.01,2.24,2.78,0.29,0.17,0.9,-12,-3,-7,0.34,10800,35,86,37,69,1115,529.0,644,457,60,123.0,442,1,446,452,213,0,0,569,-9072,-28648,504,181.28,45.698891,4.909057,49.21,195.1,4,0.805,0,0.0,0.5317,5,0.34,4.364
261863,1561295650141,4,2.26,2.67,3.0,2.2,2.76,0.34,0.36,0.89,-11,-4,-7,0.49,10510,31,86,37,61,1095,537.0,635,458,60,124.0,315,1,450,392,161,0,0,584,-28648,-23623,512,181.28,,,,,,,,,,,,
261883,1561295650161,2,2.26,2.64,3.0,2.17,2.76,0.37,0.33,0.85,-12,-2,-8,0.49,10212,18,86,37,53,1078,540.0,636,457,60,124.0,315,1,397,308,161,0,0,563,-3082,-30159,521,181.28,,,,,,,,,,,,
261903,1561295650181,6,2.27,2.64,3.0,2.18,2.75,0.4,0.46,0.95,-12,-4,-7,0.61,9786,8,86,37,45,1070,541.0,633,456,60,124.0,315,1,365,234,161,0,0,558,-2336,-2336,527,181.28,,,,,,,,,,,,
261923,1561295650201,6,2.28,2.61,3.06,2.15,2.8,0.51,0.48,0.94,-11,-3,-8,0.69,9319,0,86,37,38,1054,540.0,623,462,60,124.0,315,1,317,210,161,0,0,546,-8186,-8186,528,181.28,,,,,,,,,,,,
261943,1561295650221,10,2.28,2.55,3.15,2.05,2.89,0.66,0.34,0.99,-10,-6,-8,0.74,9027,0,86,37,34,1015,534.0,621,457,60,124.0,315,1,305,194,161,0,0,534,-32248,-22519,528,181.28,45.698898,4.909043,50.96,195.1,4,0.805,0,0.0,0.5333,5,0.34,4.3657
261963,1561295650241,11,2.29,2.42,3.16,1.94,3.08,0.77,0.33,0.97,-8,-6,-8,0.84,8802,0,86,37,31,978,532.0,623,459,60,124.0,117,1,295,187,62,0,0,533,14504,2088,528,414.87,,,,,,,,,,,,
261983,1561295650261,13,2.29,2.31,3.17,1.92,3.24,0.78,0.36,0.81,-6,-4,-9,0.86,8565,3,86,37,29,947,528.0,611,460,60,125.0,117,1,287,187,62,0,0,526,-28648,10408,523,414.87,,,,,,,,,,,,
262003,1561295650281,16,2.3,2.17,3.2,1.89,3.48,0.79,0.3,0.65,-4,-4,-7,0.85,8438,3,86,37,27,913,523.0,615,463,60,123.0,117,1,278,185,62,0,0,491,-22519,-28648,523,-5.59,,,,,,,,,,,,
262023,1561295650301,15,2.32,1.96,3.26,1.82,3.66,0.91,0.29,0.63,-3,-7,-10,0.96,8480,3,86,37,26,867,519.0,614,458,60,125.0,117,1,274,185,62,0,0,425,1341,16648,519,181.28,,,,,,,,,,,,
262043,1561295650321,27,2.32,1.79,3.24,1.75,3.68,0.86,0.16,0.56,-3,-3,-8,0.87,8385,0,86,37,24,822,519.0,612,461,60,124.0,117,1,270,175,62,0,0,402,16383,17628,516,414.87,45.698906,4.909029,52.85,195.1,4,0.805,0,0.0,0.535,5,0.34,4.3674
262063,1561295650341,15,2.32,1.7,3.18,1.72,3.61,0.94,0.16,0.57,-2,-2,-8,0.95,8212,0,86,37,24,808,516.0,606,462,60,124.0,101,1,270,166,52,0,0,414,16383,2109,513,-5.59,,,,,,,,,,,,
262083,1561295650361,17,2.32,1.67,3.14,1.71,3.55,0.96,0.11,0.52,-3,-2,-8,0.97,8152,0,86,37,23,795,510.0,601,460,60,124.0,101,1,270,159,52,0,0,417,-4054,1,509,414.87,,,,,,,,,,,,
262103,1561295650381,13,2.33,1.65,3.13,1.71,3.54,1.03,0.11,0.52,-3,-2,-6,1.04,8194,0,86,37,23,801,502.0,601,462,60,125.0,101,1,270,161,52,0,0,401,15661,10432,502,181.28,,,,,,,,,,,,
262123,1561295650401,19,2.32,1.62,3.17,1.7,3.49,1.08,0.13,0.4,-3,1,-6,1.08,8212,0,86,37,23,808,497.0,605,458,60,124.0,101,1,270,162,52,0,0,423,-9216,-26615,495,414.87,,,,,,,,,,,,
262143,1561295650421,14,2.33,1.62,3.21,1.69,3.45,1.15,0.13,0.38,-2,-1,-4,1.16,8177,0,86,37,22,829,490.0,603,461,60,125.0,101,1,270,156,52,0,0,461,505,-21792,487,181.28,45.698917,4.909014,50.74,195.0,4,0.805,0,0.0,0.5367,5,0.34,4.3691
262163,1561295650441,17,2.32,1.62,3.21,1.69,3.45,1.24,0.12,0.31,-2,-1,-3,1.24,8177,0,86,37,22,850,482.0,604,462,60,123.0,99,1,270,156,48,0,0,442,2212,13552,482,-5.59,,,,,,,,,,,,
262183,1561295650461,15,2.32,1.62,3.21,1.7,3.44,1.22,0.07,0.26,-1,-1,-3,1.22,8177,0,86,37,22,864,477.0,612,458,60,124.0,99,1,270,156,48,0,0,427,-1923,-26615,477,414.87,,,,,,,,,,,,
262203,1561295650481,13,2.33,1.62,3.25,1.69,3.46,1.3,0.05,0.26,-1,-1,-0,1.3,8148,0,86,37,22,879,473.0,603,462,60,124.0,99,1,270,155,48,0,0,430,30272,5600,469,-5.59,,,,,,,,,,,,
262223,1561295650501,11,2.35,1.63,3.27,1.72,3.51,1.2,0.03,0.21,-1,-3,-0,1.2,8116,3,86,37,21,878,466.0,602,460,60,125.0,99,1,270,151,48,0,0,417,17628,-3414,466,181.28,,,,,,,,,,,,
262243,1561295650521,13,2.36,1.65,3.29,1.72,3.53,1.24,-0.02,0.25,-0,-4,0,1.24,8047,0,86,37,21,872,460.0,595,464,60,125.0,99,1,270,149,48,0,0,431,3571,13180,460,181.28,45.698921,4.909001,48.16,195.0,4,0.805,0,0.0,0.5383,5,0.34,4.3707
262263,1561295650541,14,2.36,1.65,3.29,1.72,3.56,1.23,-0.07,0.29,0,-2,2,1.23,7928,0,87,37,21,861,455.0,592,462,60,124.0,96,1,269,70,44,0,0,438,8488,13552,455,-5.59,,,,,,,,,,,,
262283,1561295650561,14,2.37,1.65,3.29,1.72,3.63,1.19,-0.04,0.26,2,-3,3,1.19,7822,3,87,37,21,850,453.0,584,461,60,124.0,96,1,268,150,44,0,0,397,21432,-3414,453,414.87,,,,,,,,,,,,
262303,1561295650581,12,2.39,1.63,3.22,1.72,3.64,1.08,-0.12,0.18,3,-1,4,1.08,7716,0,87,37,21,844,450.0,572,460,60,124.0,96,1,267,148,44,0,0,400,19477,-28332,450,414.87,,,,,,,,,,,,
262323,1561295650601,15,2.4,1.62,3.17,1.73,3.65,0.99,-0.22,0.13,4,0,4,1.02,7581,0,87,37,21,839,448.0,558,462,60,125.0,96,1,265,148,44,0,0,388,243,21580,448,181.28,,,,,,,,,,,,
262343,1561295650621,12,2.4,1.61,3.13,1.74,3.66,0.84,-0.32,0.07,4,2,7,0.9,7530,0,87,37,21,833,444.0,552,461,60,125.0,96,1,265,148,44,0,0,372,13180,-3322,444,181.28,45.698929,4.908988,45.94,195.0,4,0.805,0,0.0,0.54,5,0.35,4.3724
262363,1561295650641,12,2.4,1.61,3.13,1.8,3.69,0.72,-0.41,0.0,4,4,8,0.83,7411,0,87,37,21,828,443.0,555,462,60,125.0,93,1,264,148,41,0,0,342,-4082,1779,440,181.28,,,,,,,,,,,,
262383,1561295650661,9,2.4,1.62,3.12,1.86,3.68,0.67,-0.5,-0.03,5,5,7,0.84,7281,0,87,37,21,826,438.0,550,461,60,125.0,93,1,262,148,41,0,0,333,-21792,1779,438,414.87,,,,,,,,,,,,
262403,1561295650681,6,2.4,1.67,3.11,1.87,3.64,0.69,-0.42,0.06,6,4,9,0.81,7075,3,87,37,20,825,435.0,534,462,60,124.0,93,1,260,145,41,0,0,343,18584,13180,435,414.87,,,,,,,,,,,,
262423,1561295650701,8,2.4,1.67,3.1,1.87,3.63,0.83,-0.34,0.14,7,-0,10,0.89,6983,3,87,37,20,826,431.0,529,461,60,125.0,93,1,259,144,41,0,0,386,13040,-21944,430,181.28,,,,,,,,,,,,
262443,1561295650721,4,2.41,1.67,3.09,1.86,3.64,0.84,-0.37,-0.03,7,-1,11,0.92,7011,3,87,37,20,827,422.0,530,460,60,125.0,93,1,260,145,41,0,0,384,11560,11545,422,181.28,45.698936,4.908976,43.13,195.0,4,0.805,0,0.0,0.5417,5,0.35,4.3741
262463,1561295650741,1,2.4,1.66,3.09,1.84,3.63,0.87,-0.41,0.07,8,-1,9,0.96,7059,3,87,37,20,829,419.0,529,462,60,124.0,90,1,260,145,38,0,0,384,2524,-26615,419,414.87,,,,,,,,,,,,
262483,1561295650761,1,2.4,1.65,3.1,1.84,3.66,0.96,-0.33,0.21,8,-0,8,1.02,7113,3,87,37,20,830,418.0,526,462,60,124.0,90,1,261,145,38,0,0,379,1504,1,418,-5.59,,,,,,,,,,,,
262503,1561295650781,3,2.41,1.65,3.09,1.84,3.66,1.07,-0.4,0.21,8,-4,10,1.14,7151,3,87,37,20,833,413.0,525,463,60,125.0,90,1,261,145,38,0,0,371,10541,-6524,413,414.87,,,,,,,,,,,,
262523,1561295650801,1,2.41,1.65,3.11,1.81,3.67,0.92,-0.48,0.08,8,-3,12,1.04,7153,3,87,37,19,837,411.0,529,458,60,125.0,90,1,261,145,38,0,0,379,28696,-6524,411,181.28,,,,,,,,,,,,
262543,1561295650821,1,2.42,1.65,3.11,1.82,3.64,0.85,-0.45,0.16,8,-1,14,0.96,7186,3,87,37,19,841,410.0,533,463,60,124.0,90,1,261,145,38,0,0,386,6384,-6475,410,414.87,45.698944,4.908965,41.62,195.0,4,0.805,0,0.0,0.5433,5,0.35,4.3757
262563,1561295650841,-1,2.42,1.65,3.08,1.82,3.6,0.97,-0.3,0.27,9,-0,13,1.01,7189,0,87,37,19,842,408.0,537,462,60,123.0,93,1,261,143,38,0,0,384,-32702,-1818,408,-5.59,,,,,,,,,,,,
262583,1561295650861,-1,2.46,1.65,3.07,1.83,3.58,1.07,-0.28,0.29,10,1,11,1.11,7217,0,87,37,19,848,406.0,530,458,60,125.0,93,1,262,143,38,0,0,384,505,-6524,406,181.28,,,,,,,,,,,,
262603,1561295650881,5,2.48,1.67,3.03,1.91,3.56,1.06,-0.39,0.15,11,-1,11,1.13,7259,3,87,37,19,858,402.0,535,462,60,125.0,93,1,262,143,38,0,0,382,240,-6524,402,181.28,,,,,,,,,,,,
262623,1561295650900,3,2.5,1.68,3.01,1.97,3.6,0.88,-0.55,0.05,12,0,13,1.04,7242,3,87,37,19,867,400.0,536,461,60,125.0,93,1,262,143,38,0,0,376,-18948,-31744,400,414.87,,,,,,,,,,,,
262643,1561295650920,4,2.52,1.66,3.01,2.0,3.67,0.78,-0.58,0.17,13,0,16,0.97,7231,0,87,37,19,874,397.0,540,463,60,124.0,93,1,262,143,38,0,0,370,-6656,-1562,397,414.87,45.698952,4.908954,39.72,195.0,4,0.805,0,0.0,0.545,5,0.35,4.3774
262663,1561295650940,-1,2.53,1.64,2.99,2.04,3.68,0.87,-0.53,0.34,15,0,17,1.02,7145,0,87,37,19,887,399.0,543,461,60,124.0,95,1,261,143,38,0,0,368,742,1,399,-5.59,,,,,,,,,,,,
262683,1561295650960,0,2.53,1.63,2.94,2.06,3.68,0.89,-0.53,0.42,16,2,16,1.03,7078,0,87,37,19,904,400.0,544,461,60,124.0,95,1,260,143,38,0,0,365,486,-6524,400,-5.59,,,,,,,,,,,,
262703,1561295650980,2,2.53,1.63,2.9,2.07,3.68,0.97,-0.62,0.36,16,-0,17,1.15,7017,0,87,37,19,919,397.0,542,461,60,124.0,95,1,260,143,38,0,0,362,0,505,397,414.87,,,,,,,,,,,,
262723,1561295650994,0,2.51,1.63,2.86,2.04,3.67,0.88,-0.66,0.35,17,-1,20,1.1,6929,0,87,37,19,928,395.0,535,461,60,124.0,95,1,259,142,38,0,0,358,-6405,-1562,395,414.87,,,,,,,,,,,,
262743,1561295651014,3,2.53,1.62,2.89,2.06,3.69,0.99,-0.67,0.47,19,-4,23,1.19,6888,0,87,37,20,940,392.0,532,462,60,125.0,95,1,259,144,38,0,0,356,3082,-6475,392,181.28,45.698956,4.908945,38.27,195.0,4,0.805,0,0.0,0.5467,5,0.35,4.379
262763,1561295651034,-0,2.53,1.61,2.93,2.07,3.71,0.99,-0.64,0.54,19,-3,22,1.17,6863,0,87,37,20,959,390.0,529,463,60,124.0,94,1,259,144,37,0,0,351,-6458,-18948,392,414.87,,,,,,,,,,,,
262783,1561295651054,5,2.53,1.61,2.93,2.07,3.74,0.95,-0.68,0.61,20,0,22,1.17,6828,0,87,37,20,975,391.0,525,462,60,124.0,94,1,259,143,37,0,0,346,-14707,19125,392,-5.59,,,,,,,,,,,,
262803,1561295651074,-0,2.54,1.62,2.93,2.07,3.75,0.98,-0.68,0.48,20,1,22,1.19,6759,0,87,37,20,984,391.0,523,465,60,125.0,94,1,259,143,37,0,0,344,-29978,-3866,391,181.28,,,,,,,,,,,,
262823,1561295651100,4,2.56,1.61,2.93,2.09,3.73,0.92,-0.66,0.39,21,2,23,1.13,6725,1,87,37,20,994,389.0,519,463,60,124.0,94,1,259,143,37,0,0,349,4104,-6656,388,-5.59,,,,,,,,,,,,
262843,1561295651120,1,2.6,1.61,2.91,2.09,3.73,0.95,-0.71,0.44,22,-1,25,1.18,6710,0,87,37,21,1012,385.0,516,461,60,126.0,94,1,260,146,37,0,0,345,-6644,-6656,385,181.28,45.698967,4.908936,37.57,195.0,4,0.805,0,0.0,0.5483,5,0.35,4.3807
262863,1561295651140,5,2.61,1.6,2.91,2.11,3.72,0.96,-0.71,0.43,23,-2,27,1.19,6701,0,87,37,21,1028,384.0,513,461,60,125.0,93,1,260,68,36,0,0,341,2811,742,384,-5.59,,,,,,,,,,,,
262883,1561295651160,0,2.64,1.59,2.9,2.11,3.74,1.0,-0.75,0.45,25,-2,30,1.25,6677,3,87,37,21,1036,382.0,516,461,60,125.0,93,1,260,145,36,0,0,338,-30438,770,383,414.87,,,,,,,,,,,,
262903,1561295651180,3,2.66,1.56,2.88,2.12,3.74,1.03,-0.83,0.53,26,-1,32,1.33,6656,0,87,37,21,1046,381.0,516,458,60,124.0,93,1,260,145,36,0,0,331,-31206,1,382,181.28,,,,,,,,,,,,
262923,1561295651200,-0,2.66,1.54,2.85,2.13,3.74,1.07,-0.78,0.49,27,-0,33,1.32,6625,1,87,37,21,1061,381.0,516,464,60,124.0,93,1,260,145,36,0,0,332,-31222,-6656,382,414.87,,,,,,,,,,,,
262943,1561295651220,2,2.68,1.51,2.83,2.14,3.74,0.99,-0.88,0.51,28,1,33,1.32,6576,1,87,37,21,1076,383.0,508,460,60,125.0,93,1,260,145,36,0,0,328,13,-6656,383,181.28,45.698975,4.908928,36.18,194.9,4,0.805,0,0.0,0.55,5,0.35,4.3824
262963,1561295651240,4,2.69,1.52,2.83,2.18,3.77,1.06,-0.83,0.45,30,4,34,1.35,6503,0,87,37,22,1082,379.0,507,461,60,124.0,94,1,261,147,36,0,0,326,-6528,742,379,-5.59,,,,,,,,,,,,
262983,1561295651260,0,2.69,1.52,2.84,2.18,3.78,1.09,-0.85,0.38,32,4,33,1.38,6447,0,87,37,22,1090,378.0,503,466,60,124.0,94,1,261,69,36,0,0,319,175,0,378,-5.59,,,,,,,,,,,,
263003,1561295651280,1,2.7,1.52,2.84,2.21,3.79,0.97,-0.96,0.45,32,4,34,1.36,6379,2,87,37,22,1097,376.0,503,464,60,126.0,94,1,261,147,36,0,0,317,-20736,230,376,181.28,,,,,,,,,,,,
263023,1561295651300,4,2.71,1.52,2.86,2.22,3.8,0.86,-0.98,0.43,33,3,36,1.31,6315,1,87,37,23,1105,376.0,444,458,60,125.0,94,1,263,150,36,0,0,308,165,230,376,181.28,,,,,,,,,,,,
263043,1561295651320,3,2.71,1.52,2.87,2.25,3.8,0.89,-0.95,0.3,33,3,39,1.3,6254,2,87,37,23,1107,375.0,400,466,60,124.0,94,1,264,150,36,0,0,300,-23296,230,375,-5.59,45.698982,4.908922,35.31,194.9,4,0.805,0,0.0,0.5517,5,0.35,4.384
263063,1561295651340,3,2.72,1.52,2.86,2.24,3.8,0.96,-0.9,0.24,35,3,41,1.32,6161,0,87,37,23,1110,373.0,369,461,60,124.0,93,1,264,150,35,0,0,293,-24576,-6405,373,-5.59,,,,,,,,,,,,
263083,1561295651360,3,2.73,1.53,2.84,2.24,3.8,1.02,-0.86,0.2,36,2,43,1.34,6075,0,87,37,24,1111,373.0,367,462,60,124.0,93,1,267,154,35,0,0,292,150,2790,374,181.28,,,,,,,,,,,,
263103,1561295651380,3,2.74,1.53,2.81,2.25,3.8,1.12,-0.82,0.16,37,1,44,1.39,6023,0,87,37,24,1111,372.0,389,461,60,124.0,93,1,267,153,35,0,0,300,140,-14707,368,181.28,,,,,,,,,,,,
263123,1561295651400,3,2.74,1.52,2.81,2.24,3.8,1.21,-0.81,0.14,39,1,45,1.46,6009,3,87,37,24,1110,366.0,339,461,60,124.0,93,1,267,75,35,0,0,293,135,-29302,366,-5.59,,,,,,,,,,,,
263143,1561295651420,5,2.73,1.51,2.82,2.24,3.8,1.29,-0.8,0.12,39,0,46,1.52,6000,1,87,37,25,1109,364.0,332,462,60,124.0,93,1,270,158,35,0,0,274,135,2060,364,-5.59,45.69899,4.908916,33.87,194.9,4,0.805,0,0.0,0.5533,5,0.35,4.3857
263163,1561295651440,3,2.73,1.5,2.82,2.25,3.8,1.37,-0.81,0.06,41,1,48,1.59,5933,0,87,37,25,1106,363.0,329,462,60,124.0,96,1,269,158,35,0,0,256,-32256,4104,363,181.28,,,,,,,,,,,,
263183,1561295651460,2,2.72,1.5,2.82,2.24,3.8,1.34,-0.84,0.02,43,4,48,1.58,5813,0,87,37,25,1101,363.0,327,462,60,124.0,96,1,267,158,35,0,0,246,-32256,-29302,363,-5.59,,,,,,,,,,,,
263203,1561295651480,0,2.72,1.51,2.81,2.24,3.8,1.22,-0.96,0.11,42,3,49,1.55,5662,0,87,37,26,1098,363.0,302,459,60,124.0,96,1,268,158,35,0,0,244,32000,-6640,364,-5.59,,,,,,,,,,,,
263223,1561295651500,4,2.72,1.56,2.81,2.24,3.8,1.2,-1.05,0.25,42,2,50,1.6,5514,4,87,37,26,1094,363.0,295,462,60,125.0,96,1,267,159,35,0,0,244,32000,-29978,363,414.87,,,,,,,,,,,,
263243,1561295651520,-1,2.72,1.59,2.79,2.24,3.8,1.28,-1.01,0.13,43,1,49,1.63,5375,5,87,37,28,1087,362.0,285,461,60,124.0,96,1,269,159,35,0,0,261,120,28553,362,414.87,45.698998,4.908913,33.08,194.9,4,0.805,0,0.0,0.555,5,0.35,4.3874
263263,1561295651540,0,2.7,1.59,2.79,2.22,3.8,1.13,-1.08,0.25,42,0,48,1.57,5358,5,87,37,29,1078,358.0,272,464,60,125.0,89,1,271,159,32,0,0,264,29440,6668,358,181.28,,,,,,,,,,,,
263283,1561295651560,3,2.68,1.57,2.81,2.22,3.8,1.22,-1.04,0.19,43,-1,49,1.6,5426,3,87,37,29,1070,355.0,262,458,60,123.0,89,1,272,160,32,0,0,240,28160,6668,352,181.28,,,,,,,,,,,,
263303,1561295651580,-1,2.65,1.57,2.83,2.21,3.8,1.17,-0.98,0.22,42,-0,49,1.53,5458,2,87,37,30,1064,350.0,265,464,60,124.0,89,1,274,160,32,0,0,218,105,6668,350,-5.59,,,,,,,,,,,,
263323,1561295651600,4,2.59,1.57,2.87,2.19,3.8,1.16,-0.99,0.34,42,-0,49,1.53,5387,0,87,37,31,1055,350.0,270,465,60,126.0,89,1,275,160,32,0,0,188,26880,2811,350,181.28,,,,,,,,,,,,
263343,1561295651620,1,2.54,1.67,2.88,2.18,3.8,1.11,-0.94,0.33,40,-0,50,1.45,5221,3,87,37,32,1047,349.0,270,458,60,123.0,89,1,274,82,32,0,0,184,28160,-31206,349,-5.59,45.699005,4.90891,32.74,194.9,4,0.805,0,0.0,0.5567,5,0.36,4.389
263363,1561295651640,3,2.5,1.8,2.89,2.16,3.75,1.2,-0.87,0.37,39,-0,49,1.48,5111,5,87,37,33,1042,347.0,283,460,60,126.0,89,1,276,165,31,0,0,191,29440,-31206,346,181.28,,,,,,,,,,,,
263383,1561295651660,1,2.46,1.9,2.88,2.13,3.61,1.08,-0.81,0.37,37,3,46,1.35,4972,6,87,37,34,1039,341.0,282,467,60,124.0,89,1,276,170,31,0,0,288,115,4838,341,-5.59,,,,,,,,,,,,
263403,1561295651680,-1,2.41,1.91,2.86,2.1,3.54,1.13,-0.83,0.33,35,1,45,1.4,4908,7,87,38,35,1019,337.0,276,460,60,124.0,89,1,276,97,31,0,0,297,30720,-24576,333,-5.59,,,,,,,,,,,,
263423,1561295651700,2,2.36,1.92,2.9,1.99,3.53,1.22,-0.67,0.4,32,-3,43,1.39,4940,5,87,38,36,981,325.0,284,456,60,126.0,89,1,283,180,31,0,0,294,29440,-30976,325,181.28,,,,,,,,,,,,
263443,1561295651720,-0,2.32,1.91,3.0,1.85,3.5,1.14,-0.59,0.36,29,-1,40,1.28,5078,7,87,38,37,944,315.0,296,463,60,125.0,89,1,291,188,31,0,0,297,29440,29440,315,181.28,45.699017,4.90891,31.78,194.9,4,0.805,0,0.0,0.5583,5,0.36,4.3907
263463,1561295651740,0,2.26,1.92,3.15,1.71,3.47,1.23,-0.57,0.36,25,-2,38,1.35,5168,5,87,38,37,909,312.0,311,457,60,123.0,114,1,293,194,36,0,0,299,110,1886,312,181.28,,,,,,,,,,,,
263483,1561295651760,1,2.19,1.96,3.25,1.61,3.44,1.06,-0.42,0.36,21,-3,34,1.14,5292,7,87,38,39,867,308.0,321,462,60,125.0,114,1,302,195,36,0,0,298,115,80,308,181.28,,,,,,,,,,,,
263503,1561295651780,2,2.13,2.02,3.31,1.56,3.39,1.16,-0.27,0.31,19,-5,30,1.19,5395,7,87,38,39,819,307.0,331,460,60,123.0,114,1,303,203,36,0,0,298,30720,250,302,181.28,,,,,,,,,,,,
263523,1561295651800,1,2.08,2.09,3.36,1.51,3.35,1.05,-0.16,0.32,14,0,26,1.06,5482,10,87,38,40,780,307.0,347,459,60,124.0,114,1,307,128,36,0,0,301,30720,250,297,-5.59,,,,,,,,,,,,
263543,1561295651820,1,2.02,2.15,3.37,1.49,3.29,0.85,-0.05,0.27,10,-0,22,0.85,5562,9,87,38,41,767,308.0,360,455,60,125.0,114,1,312,206,36,0,0,302,32000,-16896,291,181.28,45.69902,4.90891,30.73,194.9,4,0.805,0,0.0,0.56,5,0.36,4.3924
263563,1561295651840,4,1.98,2.22,3.38,1.5,3.29,0.97,0.04,0.25,7,-3,18,0.97,5577,8,87,38,41,754,309.0,371,464,60,124.0,149,1,312,207,43,0,0,301,32000,250,283,181.28,,,,,,,,,,,,
263583,1561295651860,0,1.95,2.27,3.39,1.51,3.26,1.04,0.15,0.21,5,-1,13,1.05,5555,7,87,38,43,747,309.0,379,466,60,124.0,149,1,320,209,43,0,0,305,32000,-1527,280,-5.59,,,,,,,,,,,,
263603,1561295651880,0,1.92,2.32,3.42,1.51,3.2,0.91,0.24,0.3,0,1,7,0.94,5555,9,87,38,45,741,310.0,386,456,60,126.0,149,1,327,210,43,0,0,306,125,28160,276,181.28,,,,,,,,,,,,
263623,1561295651900,5,1.91,2.36,3.45,1.5,3.16,0.91,0.26,0.29,-4,-1,2,0.94,5548,15,87,38,45,745,312.0,385,457,60,126.0,149,1,327,213,43,0,0,309,130,-1281,273,181.28,,,,,,,,,,,,
263643,1561295651920,2,1.91,2.39,3.45,1.5,3.14,1.02,0.35,0.28,-7,-2,-2,1.08,5474,15,87,38,47,753,310.0,385,471,60,123.0,149,1,331,215,43,0,0,306,-30976,-1281,272,-5.59,45.699028,4.90891,29.25,194.9,4,0.805,0,0.0,0.5617,5,0.36,4.3941
263663,1561295651940,-1,1.91,2.39,3.45,1.5,3.12,0.89,0.43,0.27,-10,1,-6,0.99,5456,10,87,38,48,773,313.0,380,469,60,124.0,166,1,331,219,45,0,0,309,-30976,-1,271,-5.59,,,,,,,,,,,,
263683,1561295651960,3,1.9,2.4,3.45,1.52,3.12,0.88,0.49,0.3,-12,-2,-11,1.01,5403,11,87,38,50,793,312.0,385,456,60,126.0,166,1,329,223,45,0,0,307,130,-1,269,181.28,,,,,,,,,,,,
263703,1561295651980,0,1.9,2.4,3.46,1.52,3.11,0.91,0.53,0.31,-15,-1,-12,1.05,5380,10,87,38,53,810,312.0,387,466,60,124.0,166,1,327,238,45,0,0,306,130,-1,268,-5.59,,,,,,,,,,,,
263723,1561295651995,5,1.91,2.38,3.46,1.51,3.11,0.86,0.56,0.26,-17,-1,-16,1.03,5343,25,87,38,56,824,311.0,387,462,60,126.0,166,1,327,245,45,0,0,305,-32256,-1,267,181.28,,,,,,,,,,,,
263743,1561295652015,-0,1.91,2.36,3.47,1.51,3.11,0.94,0.57,0.39,-18,-2,-18,1.1,5400,22,87,38,60,838,311.0,390,464,60,123.0,166,1,331,254,45,0,0,303,-32256,-1,267,181.28,45.699036,4.908909,28.65,194.9,4,0.805,0,0.0,0.5633,5,0.36,4.3957
263763,1561295652035,-0,1.91,2.35,3.48,1.52,3.1,0.81,0.6,0.39,-21,-1,-20,1.0,5409,28,87,38,63,852,311.0,395,456,60,125.0,199,1,326,263,53,0,0,304,-32256,-1,266,181.28,,,,,,,,,,,,
263783,1561295652055,3,1.9,2.35,3.47,1.53,3.1,0.88,0.65,0.37,-22,-3,-23,1.09,5422,30,87,38,65,848,310.0,398,467,60,124.0,199,1,322,285,53,0,0,305,125,-1,266,414.87,,,,,,,,,,,,
263803,1561295652075,1,1.9,2.35,3.45,1.53,3.11,0.91,0.63,0.46,-23,-1,-25,1.11,5471,27,87,38,68,846,310.0,401,467,60,124.0,199,1,317,308,53,0,0,304,125,-1,266,-5.59,,,,,,,,,,,,
263823,1561295652101,0,1.91,2.33,3.44,1.52,3.11,0.76,0.68,0.48,-24,0,-28,1.02,5495,24,87,38,70,845,309.0,403,454,60,126.0,199,1,319,328,53,0,0,302,32000,-1,266,414.87,,,,,,,,,,,,
263843,1561295652121,2,1.91,2.34,3.43,1.55,3.11,0.85,0.64,0.46,-26,-2,-29,1.06,5587,22,87,38,73,842,310.0,405,457,60,125.0,199,1,323,362,53,0,0,303,32000,-41,264,414.87,45.699043,4.908907,28.6,194.9,4,0.805,0,0.0,0.565,5,0.36,4.3974
263863,1561295652141,2,1.9,2.34,3.42,1.56,3.11,0.92,0.67,0.43,-27,-3,-30,1.14,5632,23,87,38,76,844,308.0,404,463,60,123.0,316,1,323,330,84,0,0,302,120,-1,265,-5.59,,,,,,,,,,,,
263883,1561295652161,1,1.91,2.34,3.41,1.57,3.11,0.86,0.73,0.5,-27,-1,-30,1.13,5718,22,87,38,78,846,307.0,410,466,60,124.0,316,1,328,422,84,0,0,305,30720,-1,264,-5.59,,,,,,,,,,,,
263903,1561295652181,1,1.9,2.34,3.41,1.55,3.12,0.8,0.74,0.59,-28,-1,-33,1.09,5808,19,87,38,78,860,307.0,416,461,60,124.0,316,1,334,427,84,0,0,302,115,-1,263,-5.59,,,,,,,,,,,,
263923,1561295652201,1,1.91,2.34,3.4,1.55,3.12,0.81,0.78,0.7,-28,1,-33,1.12,5998,21,87,38,78,873,308.0,422,454,60,125.0,316,1,346,438,84,0,0,303,120,-1,265,-5.59,,,,,,,,,,,,
263943,1561295652221,2,1.91,2.35,3.36,1.54,3.1,0.83,0.81,0.77,-29,1,-35,1.16,6115,18,87,38,78,884,309.0,430,452,60,125.0,316,1,350,372,84,0,0,304,32000,29440,265,-5.59,45.699051,4.908905,28.07,194.9,4,0.805,0,0.0,0.5667,5,0.36,4.399
263963,1561295652241,2,1.92,2.39,3.3,1.56,3.04,0.82,0.85,0.84,-29,1,-36,1.18,6155,18,87,38,78,898,313.0,436,455,60,124.0,385,1,352,373,103,0,0,311,-30976,-29978,267,-5.59,,,,,,,,,,,,
263983,1561295652261,5,1.92,2.42,3.26,1.57,2.99,0.8,0.89,0.83,-29,2,-37,1.19,6268,20,87,38,78,943,315.0,445,458,60,124.0,385,1,355,442,103,0,0,314,-29696,-30454,270,-5.59,,,,,,,,,,,,
264003,1561295652281,0,1.92,2.47,3.23,1.64,2.96,0.85,0.89,0.79,-29,1,-38,1.23,6264,21,87,38,78,991,318.0,450,458,60,124.0,385,1,355,442,103,0,0,321,145,115,272,414.87,,,,,,,,,,,,
264023,1561295652301,0,1.92,2.51,3.19,1.7,2.97,0.8,0.87,0.72,-30,2,-39,1.18,6131,14,87,38,78,1029,320.0,454,450,60,124.0,385,1,351,440,103,0,0,329,150,32000,275,181.28,,,,,,,,,,,,
264043,1561295652321,1,1.92,2.55,3.16,1.76,2.95,0.79,0.83,0.59,-32,1,-39,1.14,5948,20,87,38,78,1065,325.0,450,441,60,124.0,385,1,343,441,103,0,0,332,165,-30438,279,414.87,45.699055,4.908901,27.96,194.9,4,0.805,0,0.0,0.5683,5,0.36,4.4007
264063,1561295652341,4,1.93,2.58,3.17,1.79,2.95,0.86,0.77,0.45,-32,-0,-39,1.16,5918,21,87,38,79,1098,327.0,441,451,60,126.0,347,1,340,440,98,0,0,332,-22016,155,284,414.87,,,,,,,,,,,,
264083,1561295652361,5,1.94,2.58,3.19,1.79,2.95,0.9,0.73,0.38,-33,-2,-39,1.16,5961,22,87,38,79,1130,330.0,437,451,60,123.0,347,1,343,442,98,0,0,331,175,120,286,-5.59,,,,,,,,,,,,
264103,1561295652381,5,1.95,2.58,3.22,1.79,2.96,0.98,0.75,0.33,-32,-4,-39,1.23,6042,20,87,38,79,1138,331.0,436,424,60,125.0,347,1,347,445,98,0,0,334,-12032,175,290,414.87,,,,,,,,,,,,
264123,1561295652401,0,1.95,2.58,3.23,1.77,2.97,0.97,0.73,0.3,-33,-6,-39,1.21,6179,25,87,38,79,1134,333.0,441,430,60,126.0,347,1,352,447,98,0,0,331,-6528,-122,291,414.87,,,,,,,,,,,,
264143,1561295652421,1,1.96,2.57,3.25,1.77,2.97,0.9,0.72,0.34,-34,-6,-40,1.15,6315,19,87,38,78,1127,336.0,448,420,60,125.0,347,1,357,449,98,0,0,332,13,-23296,294,181.28,45.699062,4.908897,28.96,194.9,4,0.805,0,0.0,0.57,5,0.36,4.4024
264163,1561295652441,3,1.98,2.55,3.24,1.77,2.98,0.84,0.7,0.49,-34,-6,-40,1.09,6371,24,87,38,79,1119,338.0,455,408,60,125.0,366,1,358,381,108,0,0,338,-31222,2560,297,-5.59,,,,,,,,,,,,
264183,1561295652461,5,1.99,2.56,3.24,1.76,2.97,0.75,0.77,0.54,-33,-4,-39,1.07,6399,33,87,38,79,1114,340.0,462,412,60,124.0,366,1,359,449,108,0,0,343,3327,8841,298,-5.59,,,,,,,,,,,,
264203,1561295652481,0,2.01,2.54,3.22,1.77,2.97,0.78,0.73,0.48,-32,-3,-40,1.07,6371,28,87,38,78,1110,340.0,468,432,60,125.0,366,1,359,443,108,0,0,341,3327,3346,301,414.87,,,,,,,,,,,,
264223,1561295652501,0,2.03,2.54,3.2,1.78,2.97,0.76,0.76,0.51,-31,-3,-40,1.07,6410,32,87,38,77,1102,343.0,467,447,60,126.0,366,1,361,438,108,0,0,342,-14714,3346,305,181.28,,,,,,,,,,,,
264243,1561295652521,4,2.05,2.53,3.18,1.81,2.97,0.72,0.74,0.62,-31,-5,-39,1.03,6397,29,87,39,75,1094,344.0,468,433,60,125.0,366,1,363,416,108,0,0,346,-14714,2560,308,-5.59,45.69907,4.908891,30.87,194.9,4,0.805,0,0.0,0.5717,5,0.36,4.404
264263,1561295652541,1,2.07,2.52,3.17,1.84,2.97,0.6,0.74,0.67,-31,-4,-39,0.96,6427,20,87,39,73,1089,344.0,463,415,60,124.0,302,1,366,386,94,0,0,348,-10554,-14714,313,-5.59,,,,,,,,,,,,
264283,1561295652561,-0,2.1,2.5,3.16,1.87,2.97,0.64,0.74,0.6,-30,-3,-38,0.98,6427,15,87,39,70,1086,346.0,466,452,60,125.0,302,1,370,340,94,0,0,347,-30438,-14714,318,414.87,,,,,,,,,,,,
264303,1561295652581,4,2.13,2.48,3.16,1.9,3.01,0.68,0.7,0.68,-28,-5,-37,0.98,6414,9,87,38,67,1082,347.0,464,453,60,126.0,302,1,376,304,94,0,0,346,-1246,8841,320,181.28,,,,,,,,,,,,
264323,1561295652601,4,2.16,2.46,3.16,1.93,3.06,0.7,0.6,0.78,-26,-9,-36,0.92,6416,5,87,38,63,1080,347.0,464,456,60,124.0,302,1,391,203,94,0,0,349,8841,6668,323,-5.59,,,,,,,,,,,,
264343,1561295652621,0,2.19,2.43,3.15,1.95,3.08,0.64,0.58,0.76,-25,-7,-34,0.86,6364,1,87,38,58,1082,348.0,467,452,60,124.0,302,1,391,259,94,0,0,350,-1246,-1246,327,414.87,45.699078,4.908884,31.73,194.9,4,0.805,0,0.0,0.5733,5,0.36,4.4057
264363,1561295652641,-2,2.23,2.38,3.12,1.95,3.1,0.63,0.48,0.66,-24,-5,-32,0.79,6360,1,87,38,53,1085,349.0,468,451,60,126.0,184,1,382,248,61,0,0,348,8841,6870,331,414.87,,,,,,,,,,,,
264383,1561295652661,0,2.26,2.35,3.09,1.99,3.14,0.58,0.43,0.67,-22,-3,-30,0.72,6315,0,87,38,49,1083,347.0,470,457,60,125.0,184,1,369,227,61,0,0,346,8841,-10554,335,181.28,,,,,,,,,,,,
264403,1561295652681,2,2.29,2.28,3.06,2.03,3.2,0.6,0.35,0.72,-19,-3,-29,0.69,6194,1,87,38,45,1078,346.0,472,456,60,125.0,184,1,348,137,61,0,0,345,-30438,6668,336,-5.59,,,,,,,,,,,,
264423,1561295652701,1,2.32,2.21,3.05,2.06,3.26,0.6,0.27,0.79,-17,-3,-27,0.66,6062,0,87,38,43,1075,343.0,470,454,60,125.0,184,1,335,210,61,0,0,348,-10554,3327,339,-5.59,,,,,,,,,,,,
264443,1561295652721,2,2.34,2.16,3.04,2.08,3.32,0.47,0.19,0.87,-16,-3,-25,0.51,5963,0,87,38,41,1069,342.0,466,455,60,124.0,184,1,321,207,61,0,0,342,-31206,3327,340,-5.59,45.699081,4.908877,33.03,195.0,4,0.805,0,0.0,0.575,5,0.36,4.4074
264463,1561295652741,-1,2.37,2.12,3.05,2.07,3.37,0.35,0.11,0.89,-14,-2,-23,0.36,5813,0,87,38,39,1060,342.0,464,456,60,126.0,132,1,308,205,45,0,0,340,3327,6668,342,181.28,,,,,,,,,,,,
264483,1561295652761,-0,2.4,2.08,3.05,2.08,3.4,0.39,0.02,0.87,-11,-3,-21,0.39,5662,3,87,38,38,1047,343.0,454,457,60,126.0,132,1,302,192,45,0,0,337,-31222,-14714,342,181.28,,,,,,,,,,,,
264503,1561295652781,3,2.42,2.05,3.05,2.09,3.43,0.55,0.01,0.86,-9,-4,-17,0.55,5506,3,87,38,37,1038,345.0,443,455,60,125.0,132,1,297,191,45,0,0,336,13,-14714,345,414.87,,,,,,,,,,,,
264523,1561295652801,-1,2.45,2.01,3.04,2.1,3.44,0.49,-0.04,0.83,-7,-1,-15,0.49,5419,3,87,38,37,1034,346.0,435,455,60,124.0,132,1,296,190,45,0,0,331,4838,-31206,346,-5.59,,,,,,,,,,,,
264543,1561295652821,4,2.48,1.91,3.05,2.08,3.47,0.56,-0.08,0.79,-4,-4,-13,0.57,5447,0,87,38,36,1025,346.0,427,461,60,126.0,132,1,292,184,45,0,0,321,175,175,344,181.28,45.699089,4.908869,33.33,195.0,4,0.805,0,0.0,0.5767,5,0.37,4.409
264563,1561295652841,1,2.51,1.81,3.05,2.08,3.52,0.7,-0.13,0.68,-1,-2,-8,0.71,5519,0,87,38,36,1005,343.0,422,462,60,124.0,110,1,294,185,38,0,0,313,160,-20736,343,181.28,,,,,,,,,,,,
264583,1561295652861,-1,2.54,1.75,3.04,2.08,3.59,0.56,-0.19,0.72,1,-1,-6,0.59,5615,0,87,38,35,986,341.0,424,457,60,124.0,110,1,292,180,38,0,0,307,150,170,341,-5.59,,,,,,,,,,,,
264603,1561295652881,-0,2.55,1.69,3.05,2.08,3.65,0.45,-0.28,0.72,2,-1,-3,0.53,5693,0,87,38,34,971,340.0,427,453,60,125.0,110,1,289,175,38,0,0,306,135,165,341,181.28,,,,,,,,,,,,
264623,1561295652901,-1,2.59,1.66,3.04,2.08,3.68,0.55,-0.36,0.65,4,-2,-1,0.66,5788,0,87,38,33,957,340.0,432,460,60,125.0,110,1,288,169,38,0,0,299,-32256,-22016,340,181.28,,,,,,,,,,,,
264643,1561295652921,-2,2.61,1.65,3.03,2.08,3.71,0.69,-0.42,0.6,7,-4,2,0.81,5870,3,87,38,32,942,337.0,437,463,60,124.0,110,1,287,165,38,0,0,295,32000,160,337,414.87,45.699097,4.908861,33.42,195.1,4,0.805,0,0.0,0.5783,5,0.37,4.4107
264663,1561295652941,-1,2.62,1.64,3.03,2.09,3.73,0.83,-0.44,0.48,10,-4,6,0.94,5909,3,87,38,31,929,337.0,444,465,60,124.0,109,1,285,164,37,0,0,293,29440,-23296,337,414.87,,,,,,,,,,,,
264683,1561295652961,5,2.65,1.64,2.99,2.12,3.75,0.95,-0.46,0.37,13,-4,9,1.05,5903,3,87,38,30,930,337.0,450,462,60,124.0,109,1,282,163,37,0,0,291,26880,-22016,337,414.87,,,,,,,,,,,,
264703,1561295652981,4,2.66,1.64,2.97,2.12,3.77,1.05,-0.48,0.32,16,-4,11,1.16,5857,3,87,38,30,931,336.0,452,460,60,124.0,109,1,281,162,37,0,0,287,25600,170,335,-5.59,,,,,,,,,,,,
264723,1561295652994,1,2.69,1.64,2.93,2.13,3.76,1.12,-0.49,0.3,19,-3,14,1.22,5781,3,87,38,29,940,334.0,452,461,60,124.0,109,1,277,161,37,0,0,289,85,170,334,-5.59,,,,,,,,,,,,
264743,1561295653014,-0,2.7,1.63,2.9,2.13,3.76,1.05,-0.57,0.35,21,-2,16,1.19,5728,3,87,38,29,950,333.0,448,461,60,124.0,109,1,275,161,37,0,0,287,80,-20736,333,-5.59,45.6991,4.908854,31.9,195.1,4,0.805,0,0.0,0.58,5,0.37,4.4124
264763,1561295653034,-1,2.71,1.64,2.86,2.14,3.76,0.93,-0.68,0.46,22,-2,18,1.15,5644,0,87,38,29,958,334.0,446,455,60,125.0,101,1,275,160,34,0,0,282,0,-23296,334,181.28,,,,,,,,,,,,
264783,1561295653054,2,2.72,1.64,2.87,2.14,3.76,1.02,-0.7,0.39,24,-3,21,1.24,5570,3,87,38,29,964,332.0,442,459,60,124.0,101,1,274,159,34,0,0,279,0,-23296,332,414.87,,,,,,,,,,,,
264803,1561295653074,1,2.72,1.64,2.87,2.13,3.78,1.0,-0.66,0.31,25,-2,24,1.2,5513,3,87,38,29,972,331.0,435,463,60,124.0,101,1,273,159,34,0,0,272,250,-25856,331,-5.59,,,,,,,,,,,,
264823,1561295653100,1,2.72,1.63,2.87,2.13,3.79,0.96,-0.72,0.45,27,-2,25,1.21,5464,0,87,38,30,979,329.0,430,466,60,126.0,101,1,274,159,34,0,0,266,1886,-25856,329,181.28,,,,,,,,,,,,
264843,1561295653120,3,2.71,1.64,2.88,2.13,3.79,1.03,-0.7,0.37,28,-2,28,1.24,5422,1,87,38,30,981,329.0,418,458,60,124.0,101,1,274,159,34,0,0,261,24064,-29696,328,414.87,45.699108,4.908848,30.43,195.1,4,0.805,0,0.0,0.5817,5,0.37,4.4141
264863,1561295653140,-1,2.72,1.64,2.88,2.14,3.79,0.94,-0.68,0.32,29,-2,30,1.16,5369,4,87,38,33,981,328.0,358,458,60,124.0,98,1,280,166,32,0,0,259,250,140,328,-5.59,,,,,,,,,,,,
264883,1561295653160,3,2.72,1.64,2.89,2.15,3.79,1.04,-0.71,0.37,31,-3,31,1.26,5347,8,87,38,36,988,324.0,369,462,60,125.0,98,1,291,183,32,0,0,257,30208,140,325,414.87,,,,,,,,,,,,
264903,1561295653180,1,2.72,1.64,2.88,2.16,3.79,1.02,-0.71,0.3,32,-1,33,1.24,5397,22,87,38,41,997,322.0,336,464,60,124.0,98,1,308,205,32,0,0,260,-1527,130,322,-5.59,,,,,,,,,,,,
264923,1561295653202,0,2.73,1.64,2.88,2.16,3.78,0.91,-0.8,0.37,32,-1,35,1.21,5425,17,87,38,47,1005,321.0,322,456,60,125.0,98,1,328,215,32,0,0,262,28160,125,321,181.28,,,,,,,,,,,,
264943,1561295653222,4,2.72,1.64,2.88,2.15,3.77,1.02,-0.75,0.34,34,-2,37,1.26,5461,22,87,38,51,1011,320.0,319,463,60,124.0,98,1,334,231,32,0,0,263,28160,-32256,320,414.87,45.699116,4.908843,29.71,195.2,4,0.805,0,0.0,0.5833,5,0.37,4.4157
264963,1561295653242,3,2.72,1.64,2.87,2.15,3.76,1.07,-0.73,0.25,35,1,38,1.3,5580,16,87,38,56,1021,318.0,341,461,60,123.0,163,1,347,173,52,0,0,264,-1281,125,318,-5.59,,,,,,,,,,,,
264983,1561295653262,0,2.72,1.65,2.85,2.15,3.73,1.02,-0.85,0.28,36,2,39,1.33,5666,16,87,38,60,1032,318.0,323,463,60,124.0,163,1,353,250,52,0,0,261,-1,-30976,318,-5.59,,,,,,,,,,,,
265003,1561295653282,1,2.72,1.64,2.84,2.16,3.71,0.97,-0.94,0.37,35,1,40,1.35,5744,19,87,38,63,1037,318.0,340,451,60,125.0,163,1,354,258,52,0,0,263,-1,32000,318,181.28,,,,,,,,,,,,
265023,1561295653302,-1,2.72,1.64,2.85,2.15,3.7,0.98,-0.91,0.37,35,-1,41,1.34,5810,17,87,38,64,1038,315.0,356,458,60,125.0,163,1,355,272,52,0,0,264,-1,125,315,181.28,,,,,,,,,,,,
265043,1561295653322,-0,2.73,1.64,2.85,2.16,3.69,0.99,-0.82,0.33,35,-2,41,1.29,5892,16,87,38,66,1033,316.0,364,461,60,125.0,163,1,356,288,52,0,0,263,-1,32000,316,414.87,45.699123,4.90884,28.63,195.2,4,0.805,0,0.0,0.585,5,0.37,4.4174
265063,1561295653342,-0,2.73,1.69,2.85,2.17,3.69,0.94,-0.74,0.33,36,-2,40,1.2,6017,13,87,38,66,1027,316.0,383,465,60,125.0,202,1,365,285,64,0,0,262,-1,115,315,414.87,,,,,,,,,,,,
265083,1561295653362,-2,2.73,1.69,2.86,2.19,3.69,0.84,-0.66,0.32,35,-3,40,1.07,6165,15,87,38,66,1019,314.0,397,461,60,124.0,202,1,371,290,64,0,0,263,-1,32000,314,414.87,,,,,,,,,,,,
265103,1561295653382,-1,2.72,1.7,2.84,2.24,3.68,0.85,-0.72,0.37,35,-3,41,1.11,6194,16,87,38,66,1009,315.0,416,458,60,125.0,202,1,372,290,64,0,0,279,-1,130,314,181.28,,,,,,,,,,,,
265123,1561295653402,-0,2.71,1.71,2.83,2.24,3.67,0.84,-0.74,0.37,34,-3,42,1.12,6065,13,87,38,66,995,318.0,425,459,60,125.0,202,1,367,287,64,0,0,357,-1,140,318,-5.59,,,,,,,,,,,,
265143,1561295653422,-0,2.7,1.74,2.77,2.29,3.64,0.84,-0.74,0.44,34,-4,43,1.12,5952,15,87,38,67,979,319.0,429,455,60,125.0,202,1,358,222,64,0,0,357,-1,140,319,-5.59,45.699131,4.908838,28.24,195.2,4,0.805,0,0.0,0.5867,5,0.37,4.4191
265163,1561295653442,0,2.68,1.78,2.76,2.32,3.61,0.85,-0.75,0.47,33,-4,43,1.14,5965,15,87,38,67,967,318.0,435,456,60,125.0,207,1,359,295,66,0,0,281,250,150,318,181.28,,,,,,,,,,,,
265183,1561295653462,-1,2.66,1.8,2.76,2.31,3.6,0.83,-0.69,0.5,32,-4,44,1.08,5852,15,87,38,67,958,318.0,437,461,60,126.0,207,1,350,296,66,0,0,291,2414,-28416,318,181.28,,,,,,,,,,,,
265203,1561295653482,5,2.62,1.83,2.76,2.3,3.57,0.9,-0.63,0.55,32,-5,43,1.1,5718,13,87,38,67,964,321.0,432,455,60,125.0,207,1,340,297,66,0,0,311,630,-28416,321,414.87,,,,,,,,,,,,
265223,1561295653502,1,2.58,1.87,2.74,2.28,3.57,0.88,-0.6,0.51,32,-4,43,1.06,5656,11,87,38,67,988,319.0,426,462,60,124.0,207,1,335,298,66,0,0,313,24064,140,319,181.28,,,,,,,,,,,,
265243,1561295653522,1,2.55,1.89,2.82,2.26,3.58,0.8,-0.56,0.51,31,-5,41,0.97,5664,12,87,38,68,1013,318.0,425,468,60,124.0,207,1,333,306,66,0,0,299,-1529,-29696,318,-5.59,45.699135,4.908836,28.62,195.2,4,0.805,0,0.0,0.5883,5,0.37,4.4207
265263,1561295653542,-2,2.5,1.96,2.9,2.24,3.56,0.77,-0.56,0.59,30,-4,41,0.95,5693,11,87,38,68,1044,318.0,423,460,60,125.0,207,1,335,306,66,0,0,289,-16896,-28416,318,181.28,,,,,,,,,,,,
265283,1561295653562,-2,2.44,2.02,2.89,2.2,3.48,0.84,-0.51,0.64,29,-4,40,0.98,5686,7,87,38,68,1081,317.0,423,456,60,125.0,207,1,334,306,66,0,0,291,0,-29696,317,414.87,,,,,,,,,,,,
265303,1561295653582,4,2.38,2.12,2.93,2.18,3.42,0.96,-0.44,0.64,26,-4,39,1.05,5723,7,87,38,68,1127,315.0,422,460,60,125.0,207,1,337,306,66,0,0,295,80,-28416,315,181.28,,,,,,,,,,,,
265323,1561295653602,4,2.32,2.21,2.96,2.15,3.33,0.96,-0.34,0.63,24,-4,38,1.02,5767,8,87,38,68,1166,314.0,426,460,60,124.0,207,1,340,306,66,0,0,297,90,135,314,-5.59,,,,,,,,,,,,
265343,1561295653622,3,2.26,2.29,2.97,2.1,3.28,0.96,-0.2,0.71,21,-5,37,0.98,5797,12,87,38,68,1182,310.0,426,460,60,123.0,207,1,342,305,66,0,0,303,25600,-29696,310,-5.59,45.699142,4.908836,28.94,195.3,4,0.805,0,0.0,0.59,5,0.37,4.4224
265363,1561295653642,1,2.22,2.35,2.97,2.05,3.23,0.94,-0.09,0.75,19,-6,34,0.94,5846,8,87,38,67,1193,308.0,428,465,60,124.0,209,1,349,296,65,0,0,310,30720,-30976,308,-5.59,,,,,,,,,,,,
265383,1561295653662,-1,2.18,2.4,2.98,2.02,3.14,0.94,0.04,0.83,16,-8,31,0.94,5859,13,87,38,67,1194,309.0,432,463,60,125.0,209,1,351,296,65,0,0,314,32000,-32256,304,-5.59,,,,,,,,,,,,
265403,1561295653682,-1,2.14,2.43,3.02,1.98,3.12,0.92,0.13,0.89,13,-8,26,0.93,5868,17,87,38,66,1192,314.0,436,455,60,125.0,209,1,354,288,65,0,0,317,135,130,302,414.87,,,,,,,,,,,,
265423,1561295653702,1,2.09,2.45,3.07,1.96,3.11,0.92,0.19,0.92,11,-8,22,0.94,5859,15,86,38,66,1177,317.0,438,458,60,125.0,209,1,354,288,65,0,0,322,-28416,125,301,181.28,,,,,,,,,,,,
265443,1561295653722,-1,2.07,2.47,3.17,1.91,3.1,0.95,0.27,0.88,8,-9,17,0.98,5888,12,86,38,66,1159,320.0,436,460,60,126.0,209,1,356,288,65,0,0,324,150,120,301,181.28,45.699154,4.908837,29.89,195.3,4,0.805,0,0.0,0.5917,5,0.37,4.424
265463,1561295653742,-0,2.05,2.5,3.26,1.87,3.1,0.98,0.29,0.86,6,-9,13,1.02,5956,19,86,38,65,1138,324.0,435,460,60,125.0,212,1,364,286,64,0,0,325,160,-29696,301,414.87,,,,,,,,,,,,
265483,1561295653762,-1,2.05,2.52,3.26,1.86,3.1,0.96,0.31,0.79,3,-9,10,1.01,5996,15,86,38,65,1117,326.0,437,457,60,124.0,212,1,367,278,64,0,0,326,165,32000,301,414.87,,,,,,,,,,,,
265503,1561295653782,-0,2.04,2.54,3.27,1.85,3.11,0.9,0.3,0.71,1,-7,5,0.95,6030,15,86,38,64,1111,329.0,445,458,60,125.0,212,1,373,277,64,0,0,328,-20736,150,301,414.87,,,,,,,,,,,,
265523,1561295653802,-0,2.03,2.54,3.26,1.86,3.11,0.95,0.31,0.66,-1,-7,1,1.0,6117,14,86,38,64,1105,331.0,447,461,60,126.0,212,1,376,273,64,0,0,328,-12032,-23296,301,181.28,,,,,,,,,,,,
265543,1561295653822,1,2.02,2.54,3.25,1.85,3.11,0.94,0.36,0.62,-3,-7,-2,1.01,6186,11,87,38,64,1101,332.0,455,456,60,125.0,212,1,378,275,64,0,0,333,-32559,-25856,302,181.28,45.699158,4.908837,30.33,195.3,4,0.805,0,0.0,0.5933,5,0.37,4.4257
265563,1561295653842,2,2.0,2.55,3.23,1.86,3.12,0.81,0.42,0.61,-4,-7,-6,0.91,6194,12,87,38,64,1099,334.0,455,462,60,125.0,211,1,379,202,64,0,0,334,-6528,155,305,-5.59,,,,,,,,,,,,
265583,1561295653862,3,2.0,2.54,3.21,1.86,3.11,0.71,0.46,0.68,-7,-7,-8,0.84,6155,13,87,38,64,1101,337.0,457,463,60,124.0,211,1,377,267,64,0,0,337,2560,150,303,-5.59,,,,,,,,,,,,
265603,1561295653882,2,1.99,2.53,3.19,1.85,3.11,0.69,0.53,0.74,-8,-7,-10,0.87,6117,12,87,38,64,1104,339.0,460,468,60,124.0,211,1,376,274,64,0,0,340,-122,145,305,-5.59,,,,,,,,,,,,
265623,1561295653901,5,1.98,2.53,3.19,1.85,3.08,0.65,0.59,0.82,-11,-7,-12,0.88,6111,15,87,38,63,1106,341.0,462,460,60,124.0,211,1,379,265,64,0,0,339,6668,-27136,305,-5.59,,,,,,,,,,,,
265643,1561295653921,5,1.97,2.53,3.2,1.83,3.08,0.63,0.63,0.82,-13,-7,-14,0.89,6107,17,86,38,63,1107,342.0,458,466,60,124.0,211,1,379,265,64,0,0,340,-31206,-27136,306,-5.59,45.699169,4.908836,31.02,195.4,4,0.805,0,0.0,0.595,5,0.38,4.4274
265663,1561295653941,5,1.96,2.53,3.23,1.83,3.07,0.72,0.64,0.84,-15,-8,-15,0.96,6093,10,86,38,63,1107,345.0,461,462,60,124.0,199,1,378,264,61,0,0,340,6870,-25856,306,-5.59,,,,,,,,,,,,
265683,1561295653961,4,1.96,2.53,3.28,1.81,3.08,0.83,0.66,0.87,-17,-9,-17,1.06,6071,11,86,38,63,1106,345.0,461,458,60,124.0,199,1,378,263,61,0,0,342,6870,145,307,414.87,,,,,,,,,,,,
265703,1561295653981,-0,1.96,2.53,3.31,1.8,3.07,0.93,0.64,0.82,-19,-9,-18,1.13,6145,14,86,38,63,1107,345.0,460,462,60,123.0,199,1,380,266,61,0,0,343,6870,125,305,181.28,,,,,,,,,,,,
265723,1561295653995,-2,1.95,2.53,3.33,1.78,3.07,0.94,0.61,0.74,-21,-8,-20,1.12,6194,11,86,38,63,1106,347.0,464,456,60,124.0,199,1,382,268,61,0,0,346,2811,140,306,414.87,,,,,,,,,,,,
265743,1561295654015,1,1.93,2.52,3.33,1.76,3.08,1.0,0.63,0.75,-22,-8,-24,1.18,6270,10,86,38,63,1106,348.0,468,461,60,126.0,199,1,385,271,61,0,0,346,-1246,-27136,307,181.28,45.699177,4.908835,32.0,195.4,4,0.805,0,0.0,0.5967,5,0.38,4.429
265763,1561295654035,3,1.93,2.53,3.33,1.75,3.07,0.88,0.7,0.67,-23,-6,-27,1.12,6283,11,86,38,63,1106,350.0,472,460,60,125.0,212,1,386,272,65,0,0,346,-30454,145,307,-5.59,,,,,,,,,,,,
265783,1561295654055,4,1.91,2.54,3.32,1.75,3.07,0.83,0.77,0.68,-24,-6,-28,1.13,6308,10,86,38,63,1114,351.0,474,464,60,124.0,212,1,387,272,65,0,0,348,28553,-22016,307,-5.59,,,,,,,,,,,,
265803,1561295654075,-0,1.91,2.54,3.33,1.73,3.07,0.88,0.78,0.65,-25,-6,-29,1.18,6300,13,86,38,62,1124,351.0,476,456,60,124.0,212,1,390,266,65,0,0,349,28553,-23296,306,414.87,,,,,,,,,,,,
265823,1561295654101,-2,1.88,2.54,3.33,1.72,3.07,0.93,0.75,0.58,-27,-6,-31,1.19,6313,15,86,38,62,1132,351.0,480,458,60,125.0,212,1,391,266,65,0,0,350,28553,-22016,307,414.87,,,,,,,,,,,,
265843,1561295654121,-1,1.89,2.54,3.35,1.72,3.06,0.93,0.79,0.55,-29,-7,-33,1.22,6325,19,86,38,62,1139,354.0,483,459,60,125.0,212,1,391,267,65,0,0,348,3302,13,307,181.28,45.699181,4.908832,32.16,195.4,4,0.805,0,0.0,0.5983,5,0.38,4.4307
265863,1561295654141,3,1.87,2.55,3.4,1.71,3.07,0.78,0.83,0.57,-30,-5,-33,1.14,6364,17,86,38,62,1147,354.0,485,460,60,125.0,208,1,393,269,64,0,0,348,-6644,-122,307,-5.59,,,,,,,,,,,,
265883,1561295654161,-0,1.88,2.55,3.42,1.71,3.07,0.81,0.91,0.62,-30,-5,-36,1.21,6436,16,86,38,62,1157,354.0,487,460,60,124.0,208,1,396,271,64,0,0,353,3302,-32559,306,-5.59,,,,,,,,,,,,
265903,1561295654181,-1,1.88,2.55,3.41,1.7,3.07,0.76,0.82,0.56,-31,-5,-37,1.12,6472,21,86,38,61,1162,354.0,492,460,60,126.0,208,1,401,267,64,0,0,350,3302,4838,305,414.87,,,,,,,,,,,,
265923,1561295654201,3,1.88,2.54,3.4,1.68,3.06,0.81,0.92,0.55,-33,-6,-38,1.23,6478,20,86,38,61,1161,356.0,492,460,60,126.0,208,1,401,267,64,0,0,355,4104,-122,307,-5.59,,,,,,,,,,,,
265943,1561295654221,1,1.87,2.54,3.4,1.68,3.03,0.75,1.0,0.55,-33,-3,-39,1.25,6544,20,86,38,60,1162,360.0,493,459,60,124.0,208,1,401,266,64,0,0,352,-6640,8841,308,181.28,45.699192,4.908829,32.46,195.4,4,0.805,0,0.0,0.6,5,0.38,4.4324
265963,1561295654241,1,1.88,2.54,3.4,1.67,3.02,0.77,0.91,0.51,-35,-3,-40,1.19,6572,16,86,38,59,1164,358.0,495,458,60,125.0,214,1,399,266,66,0,0,354,-29978,-6640,307,181.28,,,,,,,,,,,,
265983,1561295654261,5,1.87,2.54,3.4,1.67,3.0,0.9,0.97,0.52,-35,-7,-41,1.32,6637,12,86,38,58,1166,358.0,498,462,60,124.0,214,1,399,266,66,0,0,354,-29978,2060,307,-5.59,,,,,,,,,,,,
266003,1561295654281,0,1.88,2.54,3.41,1.66,3.0,0.74,0.95,0.5,-36,-5,-41,1.2,6694,9,86,38,56,1166,357.0,502,457,60,124.0,214,1,394,264,66,0,0,352,-6640,-29978,308,181.28,,,,,,,,,,,,
266023,1561295654299,3,1.89,2.53,3.43,1.65,3.01,0.87,0.99,0.56,-37,-7,-43,1.32,6744,11,86,38,55,1166,358.0,505,454,60,125.0,214,1,391,183,66,0,0,354,-29302,-6405,308,-5.59,,,,,,,,,,,,
266043,1561295654319,1,1.89,2.54,3.45,1.65,3.01,0.65,0.93,0.53,-38,-5,-44,1.14,6793,14,86,38,54,1166,361.0,509,456,60,125.0,214,1,388,254,66,0,0,358,-6458,-6405,309,414.87,45.699196,4.908824,32.49,195.5,4,0.805,0,0.0,0.6017,5,0.38,4.4341
266063,1561295654339,5,1.9,2.54,3.46,1.65,3.01,0.79,1.03,0.56,-38,-6,-45,1.3,6820,12,86,38,53,1164,363.0,513,461,60,124.0,204,1,385,248,63,0,0,361,3082,-18948,308,-5.59,,,,,,,,,,,,
266083,1561295654359,1,1.91,2.54,3.43,1.66,3.01,0.57,0.96,0.53,-39,-4,-46,1.12,6830,8,86,38,52,1162,363.0,519,460,60,126.0,204,1,382,243,63,0,0,359,3082,-29978,308,181.28,,,,,,,,,,,,
266103,1561295654379,1,1.91,2.53,3.38,1.67,3.01,0.72,1.04,0.65,-39,-6,-46,1.26,6798,10,86,38,51,1155,364.0,520,461,60,124.0,204,1,379,239,63,0,0,360,-1268,6668,309,-5.59,,,,,,,,,,,,
266123,1561295654401,1,1.92,2.54,3.37,1.68,2.99,0.66,1.0,0.61,-39,-3,-46,1.2,6696,16,86,38,50,1141,363.0,520,458,60,125.0,204,1,375,233,63,0,0,364,3082,2811,312,181.28,,,,,,,,,,,,
266143,1561295654421,4,1.94,2.55,3.36,1.68,2.97,0.67,1.03,0.65,-39,-5,-46,1.23,6602,17,86,38,50,1128,363.0,515,460,60,125.0,204,1,375,233,63,0,0,362,3082,230,313,181.28,45.699204,4.908818,32.47,195.5,4,0.805,0,0.0,0.6033,5,0.38,4.4357
266163,1561295654441,-2,1.95,2.54,3.36,1.67,2.96,0.67,1.07,0.6,-39,-4,-45,1.26,6521,14,86,38,50,1116,362.0,512,458,60,124.0,180,1,374,233,57,0,0,359,2790,3183,313,414.87,,,,,,,,,,,,
266183,1561295654461,-0,2.0,2.53,3.37,1.67,2.95,0.73,0.96,0.66,-39,-4,-46,1.21,6503,11,86,38,50,1097,362.0,508,458,60,125.0,180,1,374,233,57,0,0,357,2790,3327,316,181.28,,,,,,,,,,,,
266203,1561295654481,3,2.04,2.5,3.37,1.65,2.99,0.73,0.99,0.65,-37,-4,-45,1.23,6494,14,86,38,50,1055,363.0,503,459,60,124.0,180,1,374,233,57,0,0,358,3082,3327,318,-5.59,,,,,,,,,,,,
266223,1561295654501,-2,2.1,2.47,3.36,1.66,3.04,0.73,0.95,0.64,-36,-4,-44,1.2,6524,14,86,38,50,1017,363.0,500,462,60,123.0,180,1,374,233,57,0,0,359,2790,3327,321,414.87,,,,,,,,,,,,
266243,1561295654521,1,2.15,2.44,3.31,1.72,3.08,0.59,0.91,0.62,-34,-2,-44,1.08,6510,11,86,38,50,987,359.0,498,461,60,126.0,180,1,374,233,57,0,0,355,-29302,2560,323,181.28,45.699211,4.908812,32.95,195.5,4,0.805,0,0.0,0.605,5,0.38,4.4374
266263,1561295654541,4,2.21,2.41,3.21,1.84,3.13,0.68,0.85,0.65,-32,-1,-43,1.09,6505,9,86,37,50,955,358.0,498,458,60,124.0,174,1,373,234,57,0,0,354,-29978,-32559,326,-5.59,,,,,,,,,,,,
266283,1561295654561,1,2.28,2.38,3.13,1.95,3.19,0.72,0.79,0.69,-28,-1,-41,1.07,6452,12,86,37,49,914,353.0,499,459,60,125.0,174,1,370,234,57,0,0,356,-6644,-122,331,414.87,,,,,,,,,,,,
266303,1561295654581,0,2.34,2.34,3.05,2.05,3.24,0.69,0.65,0.63,-25,-2,-39,0.94,6416,14,86,37,49,874,351.0,495,460,60,125.0,174,1,370,228,57,0,0,354,2811,-31222,334,181.28,,,,,,,,,,,,
266323,1561295654603,3,2.4,2.27,2.98,2.11,3.32,0.55,0.54,0.64,-23,-2,-36,0.77,6405,12,86,37,50,863,347.0,493,461,60,125.0,174,1,373,158,57,0,0,348,8841,6870,339,-5.59,,,,,,,,,,,,
266343,1561295654623,9,2.47,2.21,2.92,2.16,3.39,0.52,0.42,0.64,-19,0,-32,0.67,6438,7,86,37,49,853,344.0,490,461,60,124.0,174,1,370,228,57,0,0,344,-14714,-30454,344,-5.59,45.699215,4.908804,33.04,195.5,4,0.805,0,0.0,0.6067,5,0.38,4.4391
266363,1561295654643,-1,2.53,2.11,2.86,2.21,3.46,0.67,0.35,0.7,-14,-1,-28,0.76,6441,5,86,37,48,847,348.0,491,460,60,125.0,155,1,367,224,54,0,0,340,13,-30454,348,414.87,,,,,,,,,,,,
266383,1561295654663,2,2.6,2.04,2.85,2.24,3.52,0.61,0.2,0.68,-10,-2,-24,0.64,6438,5,86,37,47,840,351.0,493,459,60,126.0,155,1,364,219,54,0,0,339,3346,-30454,351,181.28,,,,,,,,,,,,
266403,1561295654683,4,2.68,1.93,2.82,2.25,3.61,0.6,0.07,0.75,-6,-3,-20,0.61,6423,2,86,37,46,842,352.0,494,467,60,124.0,155,1,356,217,54,0,0,339,-12032,3302,353,-5.59,,,,,,,,,,,,
266423,1561295654703,-2,2.74,1.86,2.79,2.26,3.7,0.67,-0.04,0.75,-3,-2,-15,0.67,6394,1,86,37,44,847,353.0,492,463,60,124.0,155,1,343,215,54,0,0,336,175,-29302,353,414.87,,,,,,,,,,,,
266443,1561295654723,-0,2.79,1.81,2.79,2.29,3.75,0.77,-0.08,0.65,1,-1,-9,0.77,6392,0,86,37,43,857,354.0,488,461,60,126.0,155,1,336,212,54,0,0,334,165,2060,354,181.28,45.699223,4.908796,33.84,195.5,4,0.805,0,0.0,0.6083,5,0.38,4.4407
266463,1561295654743,1,2.85,1.79,2.81,2.32,3.78,0.7,-0.21,0.63,4,0,-6,0.73,6384,6,86,37,42,866,352.0,488,460,60,125.0,144,1,329,211,51,0,0,336,-24576,-29978,352,-5.59,,,,,,,,,,,,
266483,1561295654763,5,2.89,1.78,2.83,2.32,3.79,0.69,-0.35,0.72,7,1,-1,0.78,6332,3,86,37,41,872,352.0,490,462,60,124.0,144,1,323,209,51,0,0,331,-27136,-29302,352,-5.59,,,,,,,,,,,,
266503,1561295654783,6,2.92,1.78,2.83,2.32,3.79,0.69,-0.35,0.62,9,2,3,0.78,6321,1,86,37,40,880,353.0,493,465,60,124.0,144,1,316,208,51,0,0,329,145,4104,353,414.87,,,,,,,,,,,,
266523,1561295654801,-0,2.94,1.78,2.82,2.32,3.79,0.79,-0.32,0.46,12,3,7,0.85,6258,3,86,37,40,890,353.0,487,464,60,124.0,144,1,316,208,51,0,0,329,-29696,-6644,353,181.28,,,,,,,,,,,,
266543,1561295654821,-0,2.94,1.79,2.82,2.33,3.78,0.85,-0.38,0.37,14,3,9,0.93,6231,2,86,37,39,898,352.0,484,462,60,126.0,144,1,310,207,51,0,0,322,-30976,4104,352,181.28,45.69923,4.908788,34.11,195.5,4,0.805,0,0.0,0.61,5,0.38,4.4424
266563,1561295654841,-1,2.95,1.77,2.81,2.32,3.79,0.8,-0.5,0.34,16,5,12,0.95,6155,5,86,37,39,901,352.0,482,461,60,125.0,136,1,310,207,48,0,0,316,-32256,-30454,352,181.28,,,,,,,,,,,,
266583,1561295654861,0,2.95,1.74,2.79,2.31,3.78,0.73,-0.65,0.38,18,5,14,0.98,6089,8,86,37,39,903,351.0,471,462,60,125.0,136,1,310,207,48,0,0,313,32000,28553,351,181.28,,,,,,,,,,,,
266603,1561295654881,-1,2.94,1.71,2.78,2.3,3.78,0.76,-0.76,0.38,20,3,18,1.08,6036,9,86,37,39,900,353.0,467,458,60,125.0,136,1,310,207,48,0,0,308,30720,3302,353,181.28,,,,,,,,,,,,
266623,1561295654902,0,2.95,1.68,2.78,2.31,3.8,0.77,-0.88,0.36,21,2,21,1.17,5926,7,86,37,39,895,353.0,460,457,60,125.0,136,1,309,206,48,0,0,303,110,2060,352,181.28,,,,,,,,,,,,
266643,1561295654922,-0,2.94,1.63,2.79,2.31,3.8,0.84,-0.9,0.38,23,-1,25,1.23,5852,7,86,37,39,889,354.0,456,458,60,125.0,136,1,308,206,48,0,0,305,28160,3183,354,181.28,45.699234,4.908781,33.44,195.5,4,0.805,0,0.0,0.6117,5,0.38,4.444
266663,1561295654942,5,2.93,1.62,2.79,2.32,3.8,0.96,-0.85,0.36,24,-2,29,1.28,5771,8,86,37,39,883,355.0,446,456,60,124.0,123,1,307,205,44,0,0,306,105,-30454,355,181.28,,,,,,,,,,,,
266683,1561295654962,1,2.95,1.62,2.8,2.32,3.8,0.95,-0.84,0.28,28,-1,31,1.27,5652,6,86,37,40,873,355.0,443,468,60,124.0,123,1,310,206,44,0,0,308,25600,28553,352,414.87,,,,,,,,,,,,
266703,1561295654982,-1,2.95,1.63,2.82,2.33,3.8,0.85,-0.96,0.36,30,0,33,1.28,5552,4,86,37,42,863,353.0,438,468,60,124.0,123,1,315,208,44,0,0,309,24320,8841,353,-5.59,,,,,,,,,,,,
266723,1561295654994,-1,2.95,1.63,2.82,2.33,3.8,0.97,-0.97,0.38,31,-4,37,1.37,5456,3,86,37,43,853,351.0,429,463,60,125.0,123,1,317,210,44,0,0,302,90,-10554,351,181.28,,,,,,,,,,,,
266743,1561295655014,1,2.94,1.61,2.83,2.32,3.81,1.03,-0.97,0.3,33,-4,38,1.42,5503,0,86,37,44,846,349.0,359,459,60,125.0,123,1,321,213,44,0,0,272,23040,-6528,349,181.28,45.699245,4.908775,32.19,195.6,4,0.805,0,0.0,0.6133,5,0.39,4.4457
266763,1561295655034,1,2.92,1.59,2.83,2.33,3.81,0.96,-1.07,0.31,36,-3,40,1.44,5639,11,86,37,47,840,344.0,306,462,60,124.0,130,1,340,217,45,0,0,231,0,-122,344,-5.59,,,,,,,,,,,,
266783,1561295655054,-1,2.92,1.55,2.81,2.33,3.8,0.97,-1.15,0.34,37,-4,43,1.5,5659,21,86,37,52,834,346.0,298,466,60,125.0,130,1,350,234,45,0,0,216,0,2811,346,181.28,,,,,,,,,,,,
266803,1561295655074,-1,2.91,1.53,2.8,2.33,3.81,1.07,-1.12,0.34,38,-5,46,1.55,5737,23,86,37,61,830,347.0,316,462,60,125.0,130,1,358,252,45,0,0,213,10686,-14714,347,414.87,,,,,,,,,,,,
266823,1561295655100,-1,2.88,1.54,2.79,2.33,3.8,1.16,-1.03,0.28,39,-5,48,1.55,5892,30,86,37,74,829,348.0,298,458,60,125.0,130,1,343,379,45,0,0,216,41,-10554,348,414.87,,,,,,,,,,,,
266843,1561295655120,-0,2.87,1.54,2.79,2.34,3.8,1.18,-1.01,0.25,40,-4,49,1.55,5912,48,86,37,88,831,347.0,272,459,60,125.0,130,1,320,484,45,0,0,222,-1529,13,347,181.28,45.699253,4.908771,31.45,195.6,4,0.805,0,0.0,0.615,5,0.39,4.4474
266863,1561295655140,5,2.84,1.55,2.8,2.33,3.8,1.09,-0.98,0.21,42,-2,48,1.47,5804,53,86,37,94,839,345.0,259,458,60,125.0,316,1,309,497,109,0,0,230,-1529,3327,345,414.87,,,,,,,,,,,,
266883,1561295655160,2,2.82,1.55,2.79,2.33,3.8,0.95,-1.04,0.19,45,0,48,1.41,5714,43,86,37,95,846,344.0,251,461,60,124.0,316,1,306,497,109,0,0,265,-1529,13,344,-5.59,,,,,,,,,,,,
266903,1561295655180,1,2.77,1.55,2.78,2.33,3.8,0.91,-1.14,0.27,46,-0,50,1.46,5709,44,86,37,95,852,344.0,242,460,60,124.0,316,1,305,426,109,0,0,280,-1529,13,344,-5.59,,,,,,,,,,,,
266923,1561295655202,-1,2.73,1.54,2.77,2.34,3.8,0.97,-1.16,0.36,45,-3,53,1.51,5712,59,86,37,95,864,344.0,236,459,60,125.0,316,1,306,497,109,0,0,283,-1529,2560,344,181.28,,,,,,,,,,,,
266943,1561295655222,-1,2.66,1.55,2.77,2.33,3.8,1.04,-1.07,0.34,44,-6,54,1.49,5824,62,86,37,95,879,343.0,228,463,60,125.0,316,1,310,499,109,0,0,286,-1529,4838,343,414.87,45.699257,4.908767,30.48,195.7,4,0.805,0,0.0,0.6167,5,0.39,4.449
266963,1561295655242,0,2.61,1.62,2.78,2.33,3.78,1.07,-0.98,0.32,42,-6,55,1.45,5924,61,86,37,95,892,341.0,223,463,60,125.0,328,1,314,500,112,0,0,287,-1529,-32559,341,414.87,,,,,,,,,,,,
266983,1561295655262,1,2.55,1.72,2.81,2.3,3.7,1.01,-0.88,0.3,40,-6,53,1.34,6121,49,86,37,95,901,337.0,216,465,60,124.0,328,1,323,503,112,0,0,287,0,4838,336,414.87,,,,,,,,,,,,
267003,1561295655282,5,2.51,1.85,2.81,2.27,3.61,0.99,-0.84,0.39,38,-5,52,1.29,6294,42,86,37,95,944,334.0,214,463,60,125.0,328,1,332,507,112,0,0,300,20480,4838,334,181.28,,,,,,,,,,,,
267023,1561295655302,4,2.48,1.98,2.78,2.27,3.54,1.02,-0.82,0.38,36,-5,52,1.31,6416,35,86,37,95,1043,331.0,215,461,60,124.0,328,1,338,510,112,0,0,324,24320,-12032,331,-5.59,,,,,,,,,,,,
267043,1561295655322,2,2.44,2.11,2.76,2.26,3.45,0.97,-0.81,0.39,33,-5,50,1.26,6294,42,86,37,95,1141,330.0,217,457,60,123.0,328,1,332,507,112,0,0,344,110,-12032,330,-5.59,45.699268,4.908766,30.03,195.7,4,0.805,0,0.0,0.6183,5,0.39,4.4507
267063,1561295655342,1,2.4,2.21,2.76,2.24,3.35,0.97,-0.68,0.37,30,-4,47,1.18,6308,30,86,37,95,1233,327.0,226,456,60,124.0,368,1,332,508,121,0,0,326,30720,-20736,327,414.87,,,,,,,,,,,,
267083,1561295655362,1,2.36,2.3,2.78,2.23,3.26,0.92,-0.59,0.36,28,-2,44,1.09,6190,31,86,37,95,1319,327.0,233,458,60,125.0,368,1,326,505,121,0,0,326,130,-32559,327,414.87,,,,,,,,,,,,
267103,1561295655382,-1,2.32,2.37,2.82,2.17,3.2,0.87,-0.49,0.32,26,-2,41,1.0,6087,28,86,37,95,1385,329.0,240,456,60,125.0,368,1,321,503,121,0,0,329,145,-32559,329,414.87,,,,,,,,,,,,
267123,1561295655402,1,2.27,2.42,2.87,2.12,3.16,0.83,-0.42,0.31,23,-2,37,0.93,6036,35,86,37,95,1438,327.0,253,457,60,125.0,368,1,318,502,121,0,0,332,-24576,-32559,327,181.28,,,,,,,,,,,,
267143,1561295655422,1,2.24,2.43,2.95,2.1,3.15,0.87,-0.33,0.35,21,-4,33,0.93,6046,38,86,37,95,1411,328.0,267,457,60,126.0,368,1,319,502,121,0,0,335,170,-12032,326,414.87,45.699276,4.908766,30.05,195.7,4,0.805,0,0.0,0.62,5,0.39,4.4524
267163,1561295655442,2,2.22,2.44,3.02,2.06,3.16,0.95,-0.22,0.38,18,-6,29,0.97,6206,25,86,37,95,1383,331.0,287,462,60,125.0,357,1,327,505,117,0,0,334,-12032,175,327,181.28,,,,,,,,,,,,
267183,1561295655462,4,2.2,2.43,3.08,2.01,3.16,0.94,-0.13,0.54,16,-8,26,0.95,6368,40,86,37,95,1350,335.0,307,462,60,124.0,357,1,336,509,117,0,0,339,3346,-6528,327,-5.59,,,,,,,,,,,,
267203,1561295655482,0,2.18,2.44,3.09,1.99,3.16,0.85,-0.03,0.56,13,-6,23,0.85,6438,27,86,37,95,1317,337.0,325,457,60,124.0,357,1,339,511,117,0,0,346,3327,-32559,327,414.87,,,,,,,,,,,,
267223,1561295655502,2,2.18,2.47,3.09,1.98,3.17,0.87,0.04,0.59,10,-4,19,0.87,6560,40,86,37,95,1309,343.0,346,457,60,125.0,357,1,346,514,117,0,0,345,-14714,-14714,329,181.28,,,,,,,,,,,,
267243,1561295655522,1,2.17,2.5,3.08,1.99,3.14,0.84,0.07,0.67,9,-4,16,0.84,6630,39,86,37,95,1302,347.0,366,463,60,123.0,357,1,349,516,117,0,0,353,8841,8841,331,-5.59,45.69928,4.908766,31.93,195.7,4,0.805,0,0.0,0.6217,5,0.39,4.4541
267263,1561295655542,1,2.17,2.53,3.06,1.99,3.08,0.74,0.15,0.59,6,-1,13,0.75,6689,53,86,37,95,1296,350.0,387,456,60,125.0,391,1,352,517,130,0,0,359,28553,-30454,334,181.28,,,,,,,,,,,,
267283,1561295655562,-1,2.18,2.54,3.04,1.99,3.06,0.78,0.17,0.72,5,-3,10,0.8,6788,57,86,37,95,1289,353.0,401,460,60,124.0,391,1,357,520,130,0,0,360,-6644,-29978,337,-5.59,,,,,,,,,,,,
267303,1561295655582,4,2.17,2.54,3.03,2.0,3.05,0.71,0.33,0.66,4,-0,7,0.78,6873,53,86,37,95,1289,356.0,413,457,60,124.0,391,1,362,521,130,0,0,363,4104,-6405,339,414.87,,,,,,,,,,,,
267323,1561295655602,2,2.17,2.55,3.02,2.0,3.06,0.6,0.33,0.63,2,-0,5,0.69,7019,42,86,37,95,1289,359.0,418,462,60,123.0,391,1,370,525,130,0,0,367,-29302,3,342,-5.59,,,,,,,,,,,,
267343,1561295655622,1,2.16,2.55,3.01,2.01,3.05,0.74,0.36,0.77,1,-4,3,0.83,7094,50,86,37,95,1272,365.0,428,458,60,124.0,391,1,376,528,130,0,0,373,-6405,2278,349,181.28,45.699291,4.908766,33.32,195.8,4,0.805,0,0.0,0.6233,5,0.39,4.4557
267363,1561295655642,-0,2.16,2.55,2.98,2.01,3.05,0.66,0.44,0.77,-0,-2,1,0.79,7181,46,86,37,94,1256,369.0,443,455,60,124.0,414,1,383,534,145,0,0,384,-6656,8200,353,-5.59,,,,,,,,,,,,
267383,1561295655662,3,2.15,2.55,2.96,2.02,3.05,0.4,0.45,0.71,-1,1,-0,0.6,7292,34,86,37,94,1238,375.0,463,456,60,125.0,414,1,391,540,145,0,0,385,770,-31744,357,181.28,,,,,,,,,,,,
267403,1561295655682,5,2.14,2.55,2.94,2.04,3.05,0.16,0.44,0.57,-3,4,-1,0.47,7350,43,86,37,94,1221,379.0,483,458,60,124.0,414,1,396,543,145,0,0,390,8200,-3866,362,181.28,,,,,,,,,,,,
267423,1561295655702,5,2.13,2.55,2.94,2.07,3.03,0.05,0.46,0.57,-4,3,-3,0.46,7431,44,86,37,94,1168,385.0,491,461,60,124.0,414,1,402,547,145,0,0,398,-6475,10541,366,414.87,,,,,,,,,,,,
267443,1561295655722,5,2.1,2.55,2.95,2.06,2.99,-0.01,0.43,0.7,-6,2,-4,0.43,7506,43,86,37,93,1113,390.0,496,457,60,125.0,414,1,408,550,145,0,0,404,-1562,11560,369,414.87,45.699299,4.908766,35.35,195.8,4,0.805,0,0.0,0.625,5,0.39,4.4574
267463,1561295655742,5,2.09,2.55,2.99,2.04,2.98,-0.04,0.47,0.71,-8,3,-6,0.47,7668,39,86,37,93,1070,396.0,508,463,60,124.0,431,1,421,557,160,0,0,405,-32702,2524,371,181.28,,,,,,,,,,,,
267483,1561295655762,-1,2.09,2.56,3.03,2.05,2.96,-0.12,0.46,0.75,-9,4,-8,0.48,7805,33,86,37,92,1031,401.0,521,461,60,124.0,431,1,432,563,160,0,0,414,11545,-3314,375,414.87,,,,,,,,,,,,
267503,1561295655782,4,2.08,2.58,3.05,2.05,2.94,0.04,0.45,0.78,-11,3,-10,0.46,8043,49,86,37,91,986,407.0,533,451,60,124.0,431,1,448,575,160,0,0,418,9517,-768,379,-5.59,,,,,,,,,,,,
267523,1561295655802,1,2.08,2.58,3.08,2.04,2.93,0.02,0.44,0.79,-13,4,-11,0.44,8296,24,86,37,91,937,416.0,539,460,60,123.0,431,1,441,608,160,0,0,431,18584,19477,383,181.28,,,,,,,,,,,,
267543,1561295655822,5,2.08,2.59,3.1,2.05,2.91,0.07,0.56,0.83,-14,1,-13,0.56,8534,22,86,37,89,914,421.0,555,457,60,123.0,431,1,434,613,160,0,0,439,-21792,-6387,388,-5.59,45.699306,4.908764,37.23,195.8,4,0.805,0,0.0,0.6267,5,0.39,4.4591
267563,1561295655842,5,2.08,2.59,3.09,2.06,2.88,0.16,0.52,0.85,-16,1,-16,0.54,8656,60,86,37,88,903,427.0,565,468,60,124.0,516,1,429,606,202,0,0,460,31796,-16384,391,181.28,,,,,,,,,,,,
267583,1561295655862,4,2.1,2.61,3.09,2.1,2.85,0.25,0.34,0.96,-19,-1,-19,0.42,8844,7,86,37,87,891,433.0,581,465,60,124.0,516,1,423,606,202,0,0,475,-768,16408,394,181.28,,,,,,,,,,,,
267603,1561295655882,5,2.09,2.62,3.09,2.12,2.8,0.22,0.25,0.86,-20,1,-20,0.33,8971,64,86,37,87,880,441.0,591,454,60,123.0,516,1,419,594,202,0,0,467,26704,10432,402,181.28,,,,,,,,,,,,
