"Interval"|"ms"|0|0|1,"Utc"|"ms"|0|0|1,"FB_p"|"bar"|0|300|50,"Volant"|"F"|0.0|300.0|50,"xFR"|"mm"|0.0|5.0|50,"xRR"|"mm"|0.0|5.0|50,"xFL"|"mm"|0.0|5.0|50,"xRL"|"mm"|0.0|5.0|50,"AccelX"|"G"|-3.0|3.0|50,"AccelY"|"G"|-3.0|3.0|50,"AccelZ"|"G"|-3.0|3.0|50,"Yaw"|"Deg/Sec"|-120|120|50,"Pitch"|"Deg/Sec"|-120|120|50,"Roll"|"Deg/Sec"|-120|120|50,"Gsum"|"G"|0.0|3.0|50,"RPM"|""|0|14000|50,"TPS"|"%"|0|100|50,"WaterTemp"|"?C"|0|300|50,"AirTemp"|"?C"|-1000|1000|50,"MAP"|"KPa"|0|255|50,"Lambda"|""|0|1024|50,"WheelSpeed"|"MPH"|0.0|150.0|50,"OilPress"|"PSI"|0|150|50,"FuelPress"|"PSI"|0|150|50,"OilTemp"|"F"|0|300|50,"Battery"|"Volts"|0.0|20.0|50,"FuelCon"|"L/h"|-1000|1000|50,"Gear"|""|0|10|50,"Advance"|"Deg"|-360|360|50,"Injection"|"ms"|-1000|1000|50,"FuelCon"|"L/100km"|-1000|1000|50,"LC_But_Pres"|""|-1000|1000|50,"LC_Active"|""|-1000|1000|50,"RD_Speed"|""|-1000|1000|50,"RUD_Speed"|""|-1000|1000|50,"LD_Speed"|""|-1000|1000|50,"LUD_Speed"|""|-1000|1000|50,"Ana1"|"bar"|-1000.0|1000.0|50,"Latitude"|"Degrees"|-180.0|180.0|10,"Longitude"|"Degrees"|-180.0|180.0|10,"Speed"|"kph"|0.0|150.0|10,"Altitude"|"m"|0.0|4000.0|10,"LapCount"|""|0|0|10,"LapTime"|"Min"|0.0|0.0|10,"Sector"|""|0|0|10,"SectorTime"|"Min"|0.0|0.0|10,"ElapsedTime"|"Min"|0.0|0.0|10,"CurrentLap"|""|0|0|10,"Distance"|"km"|0.0|0.0|10,"SessionTime"|"Min"|0.0|0.0|10
350464,1564237742822,1,2.73,0.99,0.35,1.34,0.99,0.68,-1.1,0.34,31,-1,32,1.3,7506,14,92,40,31,869,465.0,340,465,60,123.0,98,1,286,164,46,0,0,337,-21944,-18108,465,-5.59,,,,,,,,,,,,
350484,1564237742842,0,2.73,0.98,0.35,1.34,0.99,0.66,-1.15,0.31,32,0,33,1.32,7473,17,92,40,31,863,460.0,320,466,60,123.0,98,1,286,164,46,0,0,319,-26615,-18108,460,-5.59,,,,,,,,,,,,
350504,1564237742862,1,2.71,0.99,0.35,1.34,0.99,0.59,-1.19,0.3,33,2,37,1.32,7473,37,92,40,36,859,460.0,295,463,60,123.0,98,1,301,182,46,0,0,316,-9166,2211,460,-5.59,,,,,,,,,,,,
350524,1564237742882,0,2.72,0.98,0.35,1.34,1.0,0.52,-1.19,0.38,34,2,38,1.3,7449,57,92,40,45,859,460.0,308,462,60,124.0,98,1,355,213,46,0,0,316,13040,-23623,460,-5.59,,,,,,,,,,,,
350544,1564237742902,1,2.7,0.99,0.35,1.34,1.0,0.52,-1.27,0.31,34,2,39,1.37,7416,77,92,40,59,859,458.0,313,463,60,124.0,145,1,421,283,67,0,0,313,-4059,17628,458,-5.59,44.680557,10.016782,44.0,179.5,0,0.0,-1,0.0,0.0,0,2.16,5.8424
350564,1564237742922,-0,2.7,0.99,0.35,1.35,0.99,0.58,-1.34,0.33,33,3,40,1.46,7304,98,92,40,78,859,457.0,299,466,60,124.0,145,1,398,441,67,0,0,313,10392,17628,457,-5.59,,,,,,,,,,,,
350584,1564237742942,1,2.67,0.98,0.35,1.35,0.99,0.6,-1.39,0.36,34,4,41,1.51,7225,100,92,40,89,859,458.0,293,464,60,123.0,145,1,390,523,67,0,0,317,9517,14488,455,-5.59,,,,,,,,,,,,
350604,1564237742962,0,2.66,0.98,0.35,1.35,0.99,0.67,-1.34,0.39,34,3,43,1.5,7145,100,92,41,92,858,457.0,285,467,60,122.0,145,1,382,525,67,0,0,319,11560,-9160,457,-5.59,,,,,,,,,,,,
350624,1564237742982,3,2.64,0.98,0.35,1.35,0.99,0.68,-1.26,0.35,35,3,44,1.43,7194,100,92,41,92,862,455.0,277,462,60,122.0,145,1,386,527,67,0,0,319,10392,-9160,454,-5.59,,,,,,,,,,,,
350644,1564237742996,2,2.63,0.98,0.35,1.34,0.99,0.67,-1.31,0.29,35,3,44,1.47,7309,100,92,41,92,883,453.0,275,464,60,123.0,317,1,395,533,145,0,0,319,-26615,-26615,453,-5.59,44.68055,10.016782,43.63,179.5,0,0.0,-1,0.0,0.0,0,2.16,5.8441
350664,1564237743016,2,2.62,0.98,0.35,1.34,1.0,0.67,-1.31,0.25,35,3,45,1.47,7566,100,92,41,93,910,454.0,264,465,60,123.0,317,1,413,542,145,0,0,316,-26615,8488,453,-5.59,,,,,,,,,,,,
350684,1564237743036,3,2.59,0.98,0.35,1.34,0.98,0.67,-1.31,0.22,36,2,45,1.48,8002,100,92,41,92,932,453.0,259,466,60,122.0,317,1,448,562,145,0,0,324,2524,3571,453,-5.59,,,,,,,,,,,,
350704,1564237743056,2,2.59,0.98,0.35,1.34,0.99,0.76,-1.27,0.23,34,1,45,1.48,8561,100,92,41,89,974,451.0,256,464,60,123.0,317,1,433,617,145,0,0,326,2524,-3267,449,-5.59,,,,,,,,,,,,
350724,1564237743076,2,2.57,0.98,0.35,1.34,0.99,0.81,-1.31,0.38,33,2,45,1.54,9079,100,92,41,87,1076,450.0,256,467,60,123.0,317,1,418,595,145,0,0,397,-26615,14488,450,-5.59,,,,,,,,,,,,
350744,1564237743101,3,2.56,0.98,0.35,1.35,0.99,0.78,-1.3,0.35,33,3,45,1.52,9218,100,92,41,87,1153,450.0,252,462,60,123.0,450,1,418,573,202,0,0,598,11560,16408,450,-5.59,44.680534,10.016779,43.23,179.5,0,0.0,-1,0.0,0.0,0,2.16,5.8457
350764,1564237743121,-1,2.54,0.97,0.35,1.34,0.99,0.86,-1.22,0.15,32,5,47,1.49,9527,100,92,41,86,1235,456.0,253,470,60,122.0,450,1,415,575,202,0,0,635,10392,-8985,456,-5.59,,,,,,,,,,,,
350784,1564237743141,2,2.53,0.98,0.35,1.34,1.0,0.92,-1.27,0.22,30,4,46,1.57,9936,100,92,41,86,1325,450.0,259,461,60,122.0,450,1,399,663,202,0,0,618,11560,-9160,450,-5.59,,,,,,,,,,,,
350804,1564237743161,3,2.51,0.98,0.35,1.34,0.99,0.86,-1.34,0.4,30,4,43,1.59,10410,96,92,41,85,1359,447.0,268,462,60,121.0,450,1,424,649,202,0,0,531,13040,2524,447,-5.59,,,,,,,,,,,,
350824,1564237743181,1,2.48,0.97,0.35,1.33,0.98,0.79,-1.3,0.44,29,6,43,1.53,10510,68,92,41,85,1384,450.0,273,467,60,122.0,450,1,431,567,202,0,0,526,18584,505,450,-5.59,,,,,,,,,,,,
350844,1564237743201,2,2.45,0.98,0.35,1.33,0.99,0.68,-1.22,0.5,28,8,44,1.4,10324,100,92,41,84,1357,464.0,279,461,60,121.0,494,1,417,489,225,0,0,587,-3414,-23623,464,-5.59,44.680527,10.016776,42.77,179.5,0,0.0,-1,0.0,0.0,0,2.16,5.8474
350864,1564237743221,0,2.43,0.98,0.35,1.33,1.0,0.58,-1.24,0.59,27,10,45,1.37,10257,100,92,41,85,1310,468.0,298,460,60,121.0,494,1,413,644,225,0,0,535,13180,1010,468,-5.59,,,,,,,,,,,,
350884,1564237743241,1,2.41,0.97,0.35,1.33,1.0,0.47,-1.11,0.73,27,8,40,1.21,10330,77,92,41,85,1240,472.0,311,457,60,121.0,494,1,418,552,225,0,0,466,5600,6274,472,-5.59,,,,,,,,,,,,
350904,1564237743261,3,2.41,0.97,0.34,1.33,0.99,0.58,-1.0,0.85,28,4,37,1.16,10069,100,92,41,85,1183,476.0,336,465,60,122.0,494,1,400,654,225,0,0,586,8488,2524,476,-5.59,,,,,,,,,,,,
350924,1564237743281,2,2.39,0.97,0.35,1.34,0.99,0.62,-0.94,0.96,28,2,35,1.12,9858,99,92,41,85,1176,484.0,363,462,60,122.0,494,1,402,506,225,0,0,630,10305,1248,484,-5.59,,,,,,,,,,,,
350944,1564237743302,1,2.37,0.97,0.35,1.34,0.99,0.58,-0.99,1.06,27,3,33,1.14,9920,99,92,41,85,1167,487.0,393,466,60,122.0,489,1,399,619,237,0,0,505,15649,15679,487,-5.59,44.680515,10.016771,44.01,179.5,0,0.0,-1,0.0,0.0,0,2.16,5.8491
350964,1564237743322,2,2.34,0.98,0.35,1.33,0.98,0.65,-0.91,0.99,24,2,33,1.11,9915,52,92,41,84,1147,489.0,422,465,60,121.0,489,1,399,534,237,0,0,499,-9160,-32504,489,-5.59,,,,,,,,,,,,
350984,1564237743342,2,2.32,0.97,0.34,1.34,0.99,0.49,-0.93,1.04,23,2,31,1.05,9832,61,92,41,78,1122,496.0,448,470,60,122.0,489,1,403,575,237,0,0,540,-9203,-2934,495,-5.59,,,,,,,,,,,,
351004,1564237743362,2,2.3,0.97,0.35,1.33,0.99,0.47,-0.91,1.02,21,0,29,1.03,9801,38,92,41,67,1100,494.0,462,467,60,122.0,489,1,405,402,237,0,0,524,-10483,-3082,496,-5.59,,,,,,,,,,,,
351024,1564237743382,2,2.27,0.98,0.34,1.34,0.99,0.38,-0.77,0.97,20,2,28,0.86,9775,18,92,41,57,1089,499.0,476,470,60,123.0,489,1,405,328,237,0,0,535,-1818,-22519,499,-5.59,,,,,,,,,,,,
351044,1564237743401,2,2.23,0.97,0.35,1.33,0.99,0.37,-0.66,0.86,17,4,25,0.75,9546,9,92,41,47,1066,502.0,487,467,60,122.0,201,1,380,233,101,0,0,526,2524,2524,502,-5.59,44.680508,10.016765,47.5,179.5,0,0.0,-1,0.0,0.0,0,2.16,5.8507
351064,1564237743421,3,2.21,0.97,0.34,1.33,0.98,0.5,-0.55,0.89,14,0,22,0.74,9141,8,92,41,41,1052,507.0,495,468,60,122.0,201,1,333,214,101,0,0,513,-21872,-8187,503,-5.59,,,,,,,,,,,,
351084,1564237743441,3,2.18,0.97,0.34,1.31,0.99,0.62,-0.35,0.77,11,1,20,0.71,8962,7,92,41,37,1040,511.0,508,466,60,123.0,201,1,314,201,101,0,0,513,-3856,26178,500,-5.59,,,,,,,,,,,,
351104,1564237743461,2,2.14,0.95,0.33,1.31,0.97,0.76,-0.16,0.82,7,-3,17,0.78,8852,7,92,41,34,1036,514.0,526,468,60,122.0,201,1,305,192,101,0,0,513,-3482,-22519,496,-5.59,,,,,,,,,,,,
351124,1564237743481,3,2.11,0.95,0.32,1.3,0.96,0.89,-0.15,0.78,2,-4,13,0.9,8680,22,92,41,33,1015,516.0,534,465,60,123.0,201,1,302,188,101,0,0,519,16383,-6528,492,-5.59,,,,,,,,,,,,
351144,1564237743501,-2,2.07,0.94,0.33,1.27,0.97,0.91,-0.12,0.71,-2,-4,10,0.92,8468,42,92,41,38,995,519.0,539,463,60,122.0,128,1,316,204,63,0,0,518,-8187,-32768,489,-5.59,44.680492,10.016758,49.88,179.4,0,0.0,-1,0.0,0.0,0,2.16,5.8524
351164,1564237743521,3,2.04,0.94,0.32,1.28,0.95,0.87,0.09,0.75,-6,-3,7,0.88,8400,44,92,41,46,966,521.0,548,462,60,122.0,128,1,363,219,63,0,0,523,-9212,-6656,487,-5.59,,,,,,,,,,,,
351184,1564237743541,1,2.04,0.94,0.31,1.28,0.95,0.99,0.21,0.64,-9,-5,3,1.01,8620,49,92,41,52,949,523.0,547,466,60,124.0,128,1,385,260,63,0,0,513,-22519,2211,484,-5.59,,,,,,,,,,,,
351204,1564237743561,2,2.01,0.95,0.32,1.28,0.95,1.04,0.13,0.69,-12,-8,-1,1.05,9106,46,92,41,55,922,519.0,564,467,60,123.0,128,1,400,300,63,0,0,512,-8187,-3414,481,-5.59,,,,,,,,,,,,
351224,1564237743581,3,2.0,0.94,0.32,1.28,0.95,1.14,0.14,0.74,-15,-5,-7,1.15,9464,0,92,41,56,905,517.0,590,465,60,123.0,128,1,403,247,63,0,0,520,15679,-9211,477,-5.59,,,,,,,,,,,,
351244,1564237743601,0,2.01,0.94,0.33,1.28,0.95,1.18,0.32,0.65,-16,-6,-10,1.22,9816,53,92,41,57,890,519.0,601,459,60,122.0,245,1,404,261,117,0,0,519,-8187,-8151,476,-5.59,44.680485,10.01675,49.57,179.4,0,0.0,-1,0.0,0.0,0,2.16,5.8541
351264,1564237743621,-1,2.01,0.94,0.32,1.28,0.96,1.26,0.28,0.78,-19,-7,-14,1.3,10069,53,92,41,56,891,521.0,623,463,60,123.0,245,1,404,364,117,0,0,525,-9212,-26615,474,-5.59,,,,,,,,,,,,
351284,1564237743641,3,2.0,0.95,0.33,1.28,0.96,1.26,0.22,0.88,-21,-7,-18,1.28,10212,27,92,41,56,890,518.0,634,463,60,123.0,245,1,407,330,117,0,0,521,1341,32033,474,-5.59,,,,,,,,,,,,
351304,1564237743661,2,2.0,0.95,0.32,1.29,0.96,1.27,0.27,0.85,-23,-5,-23,1.3,10206,52,92,41,56,886,521.0,644,466,60,122.0,245,1,407,375,117,0,0,529,-9212,3,473,-5.59,,,,,,,,,,,,
351324,1564237743681,1,2.01,0.94,0.33,1.29,0.97,1.11,0.44,0.64,-23,-6,-23,1.19,10336,53,92,41,57,880,520.0,647,466,60,123.0,245,1,415,376,117,0,0,522,1248,-2830,470,-5.59,,,,,,,,,,,,
351344,1564237743701,3,1.99,0.95,0.32,1.29,0.96,0.98,0.6,0.45,-23,-3,-25,1.15,10629,54,92,41,57,876,514.0,648,468,60,121.0,317,1,421,374,149,0,0,521,-3482,17336,467,-5.59,44.68047,10.016745,48.04,179.4,0,0.0,-1,0.0,0.0,0,2.17,5.8557
351364,1564237743721,3,2.0,0.95,0.33,1.29,0.97,0.95,0.59,0.3,-24,-5,-27,1.12,10806,56,92,41,60,877,511.0,653,464,60,123.0,317,1,442,394,149,0,0,514,-3856,-8186,469,-5.59,,,,,,,,,,,,
351384,1564237743741,3,2.0,0.95,0.33,1.28,0.96,0.95,0.62,0.47,-25,-6,-29,1.13,10971,72,92,41,64,886,508.0,653,463,60,123.0,317,1,450,464,149,0,0,529,-3414,-32504,467,-5.59,,,,,,,,,,,,
351404,1564237743761,2,2.02,0.95,0.33,1.29,0.96,0.91,0.53,0.61,-25,-3,-32,1.06,10875,81,92,41,70,895,512.0,652,466,60,122.0,317,1,447,496,149,0,0,555,17136,-23055,467,-5.59,,,,,,,,,,,,
351424,1564237743781,3,2.03,0.95,0.33,1.29,0.97,0.82,0.68,0.46,-26,-4,-32,1.06,10856,92,92,41,77,913,519.0,648,469,60,122.0,317,1,440,521,149,0,0,569,-9212,5344,470,-5.59,,,,,,,,,,,,
351444,1564237743803,3,2.04,0.95,0.32,1.3,0.96,0.81,0.53,0.61,-27,-5,-35,0.97,10888,97,92,41,81,924,526.0,644,465,60,121.0,472,1,440,541,222,0,0,575,-32248,-2934,472,-5.59,44.680462,10.01674,48.19,179.4,0,0.0,-1,0.0,0.0,0,2.17,5.8574
351464,1564237743823,1,2.06,0.95,0.33,1.29,0.97,0.86,0.6,0.74,-30,-3,-36,1.05,10863,89,92,41,83,939,534.0,648,467,60,122.0,472,1,438,616,222,0,0,570,-32248,1267,477,-5.59,,,,,,,,,,,,
351484,1564237743843,2,2.06,0.95,0.33,1.29,0.96,0.83,0.74,0.69,-31,-4,-36,1.12,10863,90,92,41,86,954,537.0,643,463,60,122.0,472,1,441,686,222,0,0,555,-30064,6273,477,-5.59,,,,,,,,,,,,
351504,1564237743863,3,2.07,0.95,0.33,1.3,0.96,0.94,0.6,0.82,-33,-4,-38,1.11,9337,84,92,41,88,955,533.0,635,438,60,122.0,472,1,418,698,222,0,0,543,2104,-9212,477,-5.59,,,,,,,,,,,,
351524,1564237743883,3,2.09,0.94,0.32,1.3,0.96,0.95,0.72,0.7,-32,-5,-36,1.19,9222,86,92,41,89,961,530.0,630,445,60,123.0,472,1,418,711,222,0,0,530,2524,-22519,474,-5.59,,,,,,,,,,,,
351544,1564237743901,0,2.1,0.95,0.33,1.29,0.97,0.81,0.85,0.43,-31,-7,-33,1.18,9847,100,92,41,86,1029,528.0,630,442,60,122.0,518,1,403,667,247,0,0,532,-28648,-22519,474,-5.59,44.680447,10.016738,48.84,179.4,0,0.0,-1,0.0,0.0,0,2.17,5.8591
351564,1564237743921,2,2.1,0.94,0.33,1.3,0.96,0.84,0.89,0.53,-29,-7,-34,1.23,10469,100,92,41,85,1085,527.0,637,443,60,122.0,518,1,428,635,247,0,0,530,6274,-8187,474,-5.59,,,,,,,,,,,,
351584,1564237743941,3,2.11,0.95,0.33,1.29,0.96,0.78,0.95,0.56,-28,-7,-35,1.23,10788,100,92,41,84,1126,530.0,650,422,60,122.0,518,1,437,595,247,0,0,545,2524,5344,481,-5.59,,,,,,,,,,,,
351604,1564237743961,2,2.13,0.95,0.33,1.3,0.97,0.71,1.03,0.52,-27,-6,-36,1.25,11140,99,92,41,84,1202,535.0,650,396,60,123.0,518,1,442,642,247,0,0,556,-30064,-8429,492,-5.59,,,,,,,,,,,,
351624,1564237743981,4,2.15,0.96,0.33,1.3,0.97,0.75,0.8,0.66,-28,-4,-39,1.1,11453,100,92,41,84,1288,539.0,665,387,60,122.0,518,1,441,642,247,0,0,555,-2934,-14655,494,-5.59,,,,,,,,,,,,
351644,1564237743995,1,2.18,0.95,0.33,1.3,0.97,0.69,0.85,0.47,-28,-6,-39,1.1,11588,0,92,41,83,1353,542.0,658,437,60,122.0,557,1,440,519,276,0,0,576,-3082,-28648,496,-5.59,44.680435,10.016736,50.24,179.4,0,0.0,-1,0.0,0.0,0,2.17,5.8607
351664,1564237744015,2,2.18,0.95,0.33,1.3,0.97,0.58,0.96,0.48,-28,-6,-37,1.13,11667,48,92,41,83,1394,546.0,667,467,60,121.0,557,1,440,627,276,0,0,598,2524,17740,504,-5.59,,,,,,,,,,,,
351684,1564237744035,2,2.2,0.97,0.33,1.31,0.97,0.65,0.79,0.63,-28,-4,-39,1.03,11667,0,92,41,85,1422,551.0,655,463,60,122.0,557,1,440,555,276,0,0,601,6274,1010,507,-5.59,,,,,,,,,,,,
351704,1564237744055,3,2.22,0.95,0.34,1.31,0.98,0.79,0.64,0.76,-29,-5,-39,1.01,637,98,92,41,87,1388,554.0,646,456,60,122.0,557,1,90,298,276,0,0,569,-9072,-2336,508,-5.59,,,,,,,,,,,,
351724,1564237744075,1,2.23,0.96,0.34,1.31,0.97,0.7,0.69,0.75,-28,-7,-36,0.98,9503,98,92,41,88,1344,547.0,645,461,60,123.0,557,1,419,677,276,0,0,556,-22519,-2934,514,-5.59,,,,,,,,,,,,
351744,1564237744102,2,2.24,0.96,0.33,1.31,0.97,0.62,0.77,0.63,-26,-6,-34,0.99,9412,86,92,41,88,1275,545.0,632,425,60,122.0,461,1,418,595,239,0,0,549,-8962,-32248,519,-5.59,44.680424,10.016736,50.74,179.4,0,0.0,-1,0.0,0.0,0,2.17,5.8624
351764,1564237744122,-1,2.24,0.96,0.33,1.3,0.97,0.64,0.7,0.67,-23,-7,-34,0.95,9858,71,92,41,87,1199,543.0,637,406,60,122.0,461,1,403,581,239,0,0,547,1779,2088,523,-5.59,,,,,,,,,,,,
351784,1564237744142,2,2.25,0.96,0.33,1.31,0.97,0.64,0.64,0.75,-20,-10,-33,0.91,10439,100,92,41,85,1179,542.0,637,381,60,123.0,461,1,426,649,239,0,0,543,-3082,-22519,528,-5.59,,,,,,,,,,,,
351804,1564237744162,1,2.25,0.97,0.33,1.32,0.98,0.73,0.54,0.88,-18,-7,-32,0.91,10945,100,92,41,84,1179,543.0,650,389,60,122.0,461,1,441,609,239,0,0,548,-2336,2524,531,-5.59,,,,,,,,,,,,
351824,1564237744182,2,2.26,0.97,0.33,1.32,0.97,0.66,0.69,0.67,-16,-6,-28,0.95,11187,100,92,41,84,1230,547.0,652,395,60,123.0,461,1,442,595,239,0,0,564,2104,-8186,538,-5.59,,,,,,,,,,,,
351844,1564237744200,0,2.25,0.97,0.34,1.33,0.97,0.67,0.45,0.8,-15,-3,-27,0.81,11207,48,92,41,84,1307,554.0,655,441,60,122.0,420,1,442,549,227,0,0,577,2524,243,541,-5.59,44.680408,10.016738,52.86,179.3,0,0.0,-1,0.0,0.0,0,2.17,5.8641
351864,1564237744220,3,2.26,0.97,0.34,1.33,0.98,0.6,0.53,0.66,-15,1,-25,0.8,11247,100,92,41,84,1347,560.0,658,458,60,122.0,420,1,442,638,227,0,0,586,-28648,-4035,547,-5.59,,,,,,,,,,,,
351884,1564237744240,-0,2.25,0.98,0.34,1.32,0.98,0.64,0.47,0.79,-13,0,-25,0.79,11227,97,92,41,84,1361,567.0,656,455,60,122.0,420,1,442,624,227,0,0,585,-30159,-25872,554,-5.59,,,,,,,,,,,,
351904,1564237744260,2,2.26,0.97,0.34,1.32,0.99,0.56,0.5,0.8,-13,1,-22,0.75,11055,97,92,41,84,1343,572.0,656,461,60,122.0,420,1,443,605,227,0,0,598,-8188,2048,559,-5.59,,,,,,,,,,,,
351924,1564237744280,3,2.26,0.97,0.34,1.33,0.98,0.51,0.39,0.86,-12,1,-22,0.64,10920,99,92,41,84,1272,576.0,649,454,60,120.0,420,1,440,586,227,0,0,601,774,-7939,565,-5.59,,,,,,,,,,,,
351944,1564237744300,1,2.26,0.97,0.33,1.33,0.98,0.6,0.2,0.97,-12,1,-21,0.64,10958,98,92,41,84,1195,577.0,646,461,60,120.0,419,1,441,572,239,0,0,597,30208,6273,568,-5.59,44.680397,10.016741,53.42,179.3,0,0.0,-1,0.0,0.0,0,2.17,5.8657
351964,1564237744320,2,2.27,0.98,0.34,1.33,0.99,0.57,0.38,0.95,-11,-1,-18,0.69,10997,99,92,41,84,1135,579.0,646,458,60,122.0,419,1,443,553,239,0,0,600,243,-768,573,-5.59,,,,,,,,,,,,
351984,1564237744340,2,2.28,0.97,0.34,1.33,0.98,0.48,0.26,0.78,-10,-1,-19,0.55,11160,99,92,41,84,1075,585.0,648,459,60,122.0,419,1,442,549,239,0,0,603,-25872,-13043,577,-5.59,,,,,,,,,,,,
352004,1564237744360,2,2.27,0.98,0.34,1.32,0.98,0.5,0.33,0.9,-9,-1,-18,0.61,11391,99,92,41,84,1056,588.0,651,461,60,123.0,419,1,441,549,239,0,0,614,208,-30139,582,-5.59,,,,,,,,,,,,
352024,1564237744380,-0,2.28,0.97,0.34,1.33,0.98,0.54,0.3,0.84,-9,-1,-17,0.62,11609,99,92,41,83,1025,595.0,660,460,60,122.0,419,1,440,534,239,0,0,615,-16179,28675,588,-5.59,,,,,,,,,,,,
352044,1564237744402,4,2.29,0.97,0.34,1.33,0.99,0.53,0.43,0.79,-9,-3,-15,0.68,11777,99,92,41,83,1006,597.0,659,461,60,121.0,402,1,440,538,238,0,0,621,4956,-14655,593,-5.59,44.680382,10.016744,56.33,179.3,0,0.0,-1,0.0,0.0,0,2.18,5.8674
352064,1564237744422,4,2.3,0.98,0.34,1.34,0.98,0.44,0.5,0.79,-8,-2,-13,0.66,11889,90,92,41,83,990,603.0,658,455,60,120.0,402,1,440,541,238,0,0,632,-7939,966,597,-5.59,,,,,,,,,,,,
352084,1564237744442,7,2.31,0.98,0.34,1.34,0.98,0.39,0.54,0.83,-7,-1,-12,0.66,11927,72,92,41,80,989,607.0,662,461,60,121.0,402,1,440,514,238,0,0,636,19621,-2580,599,-5.59,,,,,,,,,,,,
352104,1564237744462,6,2.33,0.98,0.33,1.34,0.98,0.31,0.46,0.94,-6,-1,-11,0.55,11837,54,92,41,72,973,610.0,658,457,60,121.0,402,1,440,464,238,0,0,633,1010,3395,603,-5.59,,,,,,,,,,,,
352124,1564237744482,6,2.34,0.97,0.35,1.33,0.99,0.28,0.21,1.05,-6,-1,-10,0.35,11624,36,92,40,64,956,611.0,658,463,60,120.0,402,1,440,415,238,0,0,635,1010,20993,608,-5.59,,,,,,,,,,,,
352144,1564237744502,10,2.33,0.98,0.34,1.34,0.98,0.28,-0.01,0.89,-5,-2,-10,0.28,11234,20,92,40,54,927,614.0,645,462,60,122.0,265,1,400,329,162,0,0,628,28675,3395,610,-5.59,44.68037,10.016748,58.71,179.3,0,0.0,-1,0.0,0.0,0,2.18,5.8691
352164,1564237744522,11,2.35,0.98,0.34,1.33,0.99,0.45,-0.03,1.0,-3,-2,-9,0.45,10838,9,92,40,46,911,609.0,638,466,60,122.0,265,1,372,243,162,0,0,617,-30139,30721,608,-5.59,,,,,,,,,,,,
352184,1564237744542,15,2.36,0.98,0.33,1.34,0.99,0.56,0.11,0.92,-1,-4,-7,0.57,10545,6,92,40,41,884,602.0,636,464,60,122.0,265,1,335,221,162,0,0,596,-768,-3446,602,-5.59,,,,,,,,,,,,
352204,1564237744562,18,2.36,0.97,0.34,1.34,0.99,0.63,0.23,0.73,0,-7,-5,0.67,10307,5,92,40,38,840,601.0,632,470,60,122.0,265,1,317,213,162,0,0,583,23619,-16179,602,-5.59,,,,,,,,,,,,
352224,1564237744582,20,2.37,0.98,0.34,1.33,0.99,0.69,0.15,0.68,1,-9,-4,0.7,10140,5,92,40,35,818,599.0,628,462,60,122.0,265,1,308,209,162,0,0,547,17344,6273,598,-5.59,,,,,,,,,,,,
352244,1564237744600,23,2.37,0.98,0.34,1.33,1.0,0.66,-0.03,0.67,2,-7,-4,0.67,9994,5,92,40,34,802,599.0,629,469,60,122.0,131,1,305,205,79,0,0,493,-13043,-32504,599,-5.59,44.680351,10.016752,61.18,179.2,0,0.0,-1,0.0,0.0,0,2.18,5.8707
352264,1564237744620,20,2.38,0.98,0.34,1.34,1.0,0.69,0.06,0.57,2,-4,-3,0.69,9760,0,92,40,33,797,597.0,631,466,60,122.0,131,1,302,201,79,0,0,434,3472,-32504,597,-5.59,,,,,,,,,,,,
352284,1564237744640,22,2.38,0.98,0.34,1.34,0.99,0.7,-0.07,0.61,3,-5,-2,0.71,9585,0,92,40,31,800,596.0,633,463,60,122.0,131,1,295,194,79,0,0,372,-28648,4956,596,-5.59,,,,,,,,,,,,
352304,1564237744660,22,2.37,0.98,0.34,1.34,0.99,0.84,-0.06,0.52,3,-2,-2,0.84,9412,0,92,40,30,808,594.0,629,468,60,123.0,131,1,291,190,79,0,0,363,-12040,-12040,593,-5.59,,,,,,,,,,,,
352324,1564237744680,17,2.37,0.98,0.33,1.34,0.98,0.95,0.0,0.48,4,-3,-1,0.95,9231,6,92,40,29,824,588.0,623,463,60,122.0,131,1,287,187,79,0,0,438,243,15649,588,-5.59,,,,,,,,,,,,
352344,1564237744700,14,2.37,0.98,0.33,1.34,0.99,0.88,0.08,0.44,5,-1,0,0.89,9036,4,92,40,28,834,584.0,620,461,60,122.0,107,1,282,185,63,0,0,499,-29984,10432,580,-5.59,44.68034,10.016756,59.74,179.2,0,0.0,-1,0.0,0.0,0,2.18,5.8724
352364,1564237744720,15,2.38,0.98,0.34,1.34,0.98,0.93,0.08,0.4,7,-0,0,0.93,8869,0,92,40,27,838,579.0,628,463,60,122.0,107,1,278,185,63,0,0,545,1780,-16384,579,-5.59,,,,,,,,,,,,
352384,1564237744740,17,2.38,0.98,0.33,1.34,0.99,0.95,0.09,0.34,7,-1,2,0.95,8753,0,92,40,26,841,571.0,615,468,60,123.0,107,1,274,185,63,0,0,507,-23623,-28648,570,-5.59,,,,,,,,,,,,
352404,1564237744760,17,2.39,0.98,0.33,1.34,0.98,0.99,0.13,0.36,7,-2,4,0.99,8827,5,92,40,25,829,563.0,630,463,60,122.0,107,1,270,185,63,0,0,488,-22263,2524,562,-5.59,,,,,,,,,,,,
352424,1564237744780,16,2.39,0.98,0.33,1.34,0.98,1.04,0.15,0.44,7,-1,3,1.05,8831,5,92,40,25,812,560.0,620,469,60,123.0,107,1,270,185,63,0,0,425,-9072,11560,560,-5.59,,,,,,,,,,,,
352444,1564237744802,15,2.4,0.98,0.34,1.34,0.99,1.13,0.05,0.44,7,-3,3,1.14,8773,0,92,40,24,795,557.0,622,465,60,122.0,111,1,270,178,62,0,0,385,-8962,998,557,-5.59,44.680325,10.016759,57.64,179.2,0,0.0,-1,0.0,0.0,0,2.18,5.8741
352464,1564237744822,15,2.41,0.98,0.34,1.35,0.99,1.08,-0.09,0.37,8,-1,4,1.09,8577,0,92,40,24,772,552.0,621,462,60,122.0,111,1,270,178,62,0,0,364,-8186,2104,552,-5.59,,,,,,,,,,,,
352484,1564237744842,16,2.42,0.98,0.34,1.34,0.98,1.02,-0.16,0.29,9,-1,4,1.03,8442,0,92,40,25,762,552.0,623,465,60,123.0,111,1,270,181,62,0,0,340,-30064,-9072,552,-5.59,,,,,,,,,,,,
352504,1564237744862,12,2.43,0.98,0.34,1.34,0.99,1.12,-0.2,0.3,10,-2,5,1.14,8238,4,92,40,25,752,550.0,605,466,60,123.0,111,1,270,170,62,0,0,329,-22519,2524,550,-5.59,,,,,,,,,,,,
352524,1564237744882,14,2.42,0.98,0.34,1.34,0.99,1.06,-0.22,0.25,11,-0,6,1.09,8029,6,92,40,25,754,545.0,586,466,60,123.0,111,1,270,157,62,0,0,332,2088,-8962,545,-5.59,,,,,,,,,,,,
352544,1564237744902,13,2.42,0.98,0.34,1.35,0.99,1.12,-0.26,0.19,11,-1,8,1.15,7825,5,92,40,25,756,542.0,514,461,60,122.0,86,1,268,156,47,0,0,343,16383,-28648,542,-5.59,44.680309,10.016762,55.17,179.2,0,0.0,-1,0.0,0.0,0,2.18,5.8757
352564,1564237744922,12,2.43,0.98,0.34,1.35,0.99,1.18,-0.32,0.15,11,-2,9,1.22,7760,5,92,40,25,769,533.0,482,467,60,123.0,86,1,267,157,47,0,0,329,17136,1248,532,-5.59,,,,,,,,,,,,
352584,1564237744942,14,2.44,0.98,0.34,1.34,0.99,1.25,-0.27,0.17,12,-2,8,1.28,7678,5,92,40,25,779,526.0,483,465,60,122.0,86,1,266,156,47,0,0,278,-28648,2524,526,-5.59,,,,,,,,,,,,
352604,1564237744962,12,2.44,0.99,0.34,1.34,1.0,1.26,-0.36,0.28,12,-3,9,1.31,7575,5,92,40,25,813,527.0,423,467,60,123.0,86,1,265,156,47,0,0,224,6274,6274,527,-5.59,,,,,,,,,,,,
352624,1564237744982,11,2.44,0.99,0.34,1.34,0.99,1.27,-0.47,0.4,12,-4,11,1.35,7373,6,92,40,25,835,524.0,418,465,60,122.0,86,1,263,156,47,0,0,193,6274,-28648,524,-5.59,,,,,,,,,,,,
352644,1564237744994,11,2.44,0.98,0.34,1.34,1.0,1.33,-0.5,0.5,12,-4,12,1.42,7217,6,92,40,25,858,526.0,373,465,60,123.0,81,1,262,156,43,0,0,161,2109,10408,526,-5.59,44.680298,10.016765,53.24,179.2,0,0.0,-1,0.0,0.0,0,2.19,5.8774
352664,1564237745014,14,2.43,0.99,0.34,1.35,0.99,1.32,-0.52,0.57,13,-6,12,1.42,7004,5,92,40,26,874,520.0,385,468,60,121.0,81,1,264,157,43,0,0,121,-22519,-9212,520,-5.59,,,,,,,,,,,,
352684,1564237745034,11,2.43,0.99,0.34,1.35,0.99,1.27,-0.51,0.49,14,-2,11,1.37,6691,5,93,40,26,892,519.0,379,463,60,123.0,81,1,267,157,43,0,0,109,998,2088,519,-5.59,,,,,,,,,,,,
352704,1564237745054,12,2.43,0.99,0.34,1.34,0.99,1.27,-0.6,0.39,14,-2,13,1.41,6345,5,92,40,27,921,517.0,373,468,60,122.0,81,1,273,158,43,0,0,296,-6528,15679,517,-5.59,,,,,,,,,,,,
352724,1564237745074,12,2.43,0.98,0.34,1.35,0.99,1.14,-0.66,0.36,16,-1,16,1.32,6175,5,92,40,28,930,512.0,388,463,60,122.0,81,1,278,160,43,0,0,344,1,-14,512,-5.59,,,,,,,,,,,,
352744,1564237745101,12,2.44,0.98,0.34,1.35,0.99,1.01,-0.55,0.3,17,4,16,1.15,6097,4,92,40,29,935,504.0,387,465,60,122.0,72,1,281,85,37,0,0,347,3580,11560,504,-5.59,44.680286,10.016767,51.07,179.2,0,0.0,-1,0.0,0.0,0,2.19,5.8791
352764,1564237745121,13,2.43,0.98,0.34,1.35,0.99,0.9,-0.48,0.34,17,6,15,1.02,6071,5,92,40,29,945,498.0,389,464,60,122.0,72,1,281,161,37,0,0,269,8488,32033,495,-5.59,,,,,,,,,,,,
352784,1564237745141,14,2.44,0.98,0.34,1.33,0.99,0.77,-0.47,0.34,16,4,15,0.91,6237,5,92,40,30,961,497.0,401,464,60,123.0,72,1,283,163,37,0,0,243,3576,-10483,496,-5.59,,,,,,,,,,,,
352804,1564237745161,13,2.46,0.98,0.34,1.35,0.98,0.84,-0.49,0.3,15,3,15,0.97,6287,5,92,40,30,968,485.0,416,463,60,123.0,72,1,283,164,37,0,0,201,32033,-9203,485,-5.59,,,,,,,,,,,,
352824,1564237745181,10,2.47,0.98,0.34,1.35,0.98,0.96,-0.5,0.22,16,2,16,1.08,6192,5,92,40,31,974,493.0,427,467,60,124.0,72,1,287,164,37,0,0,137,-1923,1,493,-5.59,,,,,,,,,,,,
352844,1564237745201,13,2.48,0.98,0.34,1.35,0.99,1.06,-0.44,0.28,17,-1,16,1.15,6040,5,92,40,32,982,489.0,432,463,60,123.0,77,1,290,166,38,0,0,137,-3210,1,489,-5.59,44.680271,10.016767,49.42,179.1,0,0.0,-1,0.0,0.0,0,2.19,5.8807
352864,1564237745221,12,2.5,0.99,0.34,1.34,1.0,1.16,-0.48,0.3,18,-5,18,1.26,5864,0,92,40,33,992,490.0,420,463,60,123.0,77,1,285,93,38,0,0,137,6193,-6656,492,-5.59,,,,,,,,,,,,
352884,1564237745241,13,2.49,0.99,0.34,1.34,0.99,1.25,-0.5,0.28,19,-3,19,1.34,5555,0,93,40,34,999,489.0,402,461,60,122.0,77,1,271,173,38,0,0,39,17628,-32768,489,-5.59,,,,,,,,,,,,
352904,1564237745261,12,2.49,0.99,0.34,1.35,1.0,1.14,-0.55,0.29,20,2,20,1.27,5219,5,92,40,36,1004,484.0,388,466,60,123.0,77,1,257,182,38,0,0,110,-6387,-10483,484,-5.59,,,,,,,,,,,,
352924,1564237745281,12,2.49,0.98,0.34,1.34,1.0,1.23,-0.57,0.3,20,-3,21,1.35,5025,6,92,40,37,978,481.0,383,464,60,121.0,77,1,248,193,38,0,0,173,21432,8488,481,-5.59,,,,,,,,,,,,
352944,1564237745301,9,2.48,0.98,0.35,1.34,0.99,1.19,-0.6,0.26,20,-0,23,1.34,4921,6,93,40,39,950,474.0,362,461,60,124.0,77,1,242,197,37,0,0,187,19477,10305,475,-5.59,44.68026,10.016767,47.56,179.1,0,0.0,-1,0.0,0.0,0,2.19,5.8824
352964,1564237745321,6,2.49,0.98,0.34,1.34,0.99,1.27,-0.63,0.23,20,1,23,1.42,4847,5,93,40,41,912,469.0,345,460,60,124.0,77,1,240,198,37,0,0,227,243,-26615,469,-5.59,,,,,,,,,,,,
352984,1564237745341,2,2.48,0.98,0.34,1.34,0.99,1.32,-0.67,0.34,20,-5,25,1.48,4885,5,92,40,42,861,457.0,351,465,60,122.0,77,1,245,200,37,0,0,197,243,2524,457,-5.59,,,,,,,,,,,,
353004,1564237745361,2,2.47,0.98,0.34,1.34,0.99,1.35,-0.68,0.27,19,-6,24,1.51,5037,6,92,40,43,832,461.0,353,461,60,122.0,77,1,262,206,37,0,0,161,-7939,20625,461,-5.59,,,,,,,,,,,,
353024,1564237745381,1,2.45,0.98,0.34,1.35,0.99,1.2,-0.68,0.24,18,-1,26,1.38,5115,4,93,40,45,793,459.0,352,464,60,123.0,77,1,274,208,37,0,0,118,-768,23400,459,-5.59,,,,,,,,,,,,
353044,1564237745401,2,2.43,0.98,0.33,1.34,0.99,1.25,-0.69,0.34,17,-3,27,1.43,5108,5,92,40,45,764,458.0,360,464,60,120.0,87,1,273,210,40,0,0,118,-7939,-26615,458,-5.59,44.680248,10.016766,46.13,179.2,0,0.0,-1,0.0,0.0,0,2.19,5.8841
353064,1564237745421,-0,2.41,0.98,0.34,1.35,0.99,1.16,-0.66,0.28,17,-1,28,1.33,5033,6,93,40,45,766,458.0,361,464,60,124.0,87,1,266,210,40,0,0,61,-3322,2524,458,-5.59,,,,,,,,,,,,
353084,1564237745441,-0,2.4,0.98,0.34,1.34,0.99,1.1,-0.62,0.35,17,-0,26,1.26,4942,5,93,40,46,774,454.0,362,464,60,123.0,87,1,260,210,40,0,0,106,3635,-26615,454,-5.59,,,,,,,,,,,,
353104,1564237745461,0,2.39,0.98,0.33,1.35,0.98,1.19,-0.63,0.27,17,-1,24,1.35,4993,4,92,40,46,786,446.0,364,462,60,122.0,87,1,266,211,40,0,0,186,-3856,-3414,446,-5.59,,,,,,,,,,,,
353124,1564237745481,-0,2.38,0.98,0.33,1.34,0.98,1.15,-0.54,0.18,16,-1,25,1.27,5099,5,93,40,47,797,439.0,363,460,60,123.0,87,1,278,214,40,0,0,217,-4082,19477,439,-5.59,,,,,,,,,,,,
353144,1564237745501,-0,2.39,0.97,0.34,1.34,0.99,1.13,-0.48,0.17,15,-2,25,1.23,5233,6,93,40,47,807,436.0,367,465,60,122.0,95,1,290,217,42,0,0,246,-3414,-4059,434,-5.59,44.680237,10.016764,44.17,179.2,0,0.0,-1,0.0,0.0,0,2.19,5.8857
353164,1564237745521,-0,2.38,0.98,0.34,1.34,0.99,1.15,-0.41,0.06,14,-0,25,1.22,5337,11,93,40,47,811,429.0,374,462,60,122.0,95,1,300,214,42,0,0,246,7154,-21944,429,-5.59,,,,,,,,,,,,
353184,1564237745541,2,2.38,0.98,0.33,1.34,0.99,1.14,-0.41,0.15,13,-1,22,1.21,5524,17,92,40,49,809,427.0,380,465,60,121.0,95,1,324,222,42,0,0,312,-26615,28696,427,-5.59,,,,,,,,,,,,
353204,1564237745561,0,2.38,0.98,0.33,1.33,0.99,1.01,-0.46,0.14,13,1,21,1.11,5733,31,93,40,53,803,423.0,384,464,60,123.0,95,1,357,241,42,0,0,351,13040,17144,421,-5.59,,,,,,,,,,,,
353224,1564237745581,0,2.37,0.98,0.34,1.33,0.99,0.91,-0.55,0.12,12,2,21,1.07,5984,39,93,40,59,790,419.0,394,466,60,121.0,95,1,384,247,42,0,0,385,10392,1,419,-5.59,,,,,,,,,,,,
353244,1564237745601,2,2.33,0.98,0.33,1.34,0.98,0.88,-0.54,0.17,12,3,20,1.03,6456,15,92,40,66,780,416.0,411,464,60,122.0,147,1,381,339,62,0,0,392,-9211,6384,416,-5.59,44.680229,10.016762,42.73,179.2,0,0.0,-1,0.0,0.0,0,2.19,5.8874
353264,1564237745621,-0,2.32,0.98,0.33,1.34,0.98,0.9,-0.4,0.18,11,2,19,0.99,6808,60,93,40,73,776,413.0,433,463,60,123.0,147,1,379,447,62,0,0,397,-9211,-32702,413,-5.59,,,,,,,,,,,,
353284,1564237745641,-0,2.29,0.98,0.33,1.33,0.98,0.93,-0.48,0.25,10,0,17,1.04,7104,64,93,40,79,773,408.0,461,460,60,123.0,147,1,386,518,62,0,0,397,10541,-3866,408,-5.59,,,,,,,,,,,,
353304,1564237745661,-1,2.28,0.97,0.33,1.32,0.97,1.04,-0.38,0.23,8,-0,16,1.1,7512,67,92,40,82,779,404.0,483,462,60,120.0,147,1,409,536,62,0,0,390,10541,-6524,404,-5.59,,,,,,,,,,,,
353324,1564237745681,0,2.26,0.97,0.33,1.32,0.98,1.08,-0.31,0.27,5,-0,14,1.12,7958,67,92,40,82,787,400.0,507,464,60,120.0,147,1,435,540,62,0,0,397,6512,505,399,-5.59,,,,,,,,,,,,
353344,1564237745702,2,2.24,0.97,0.33,1.31,0.98,0.96,-0.25,0.2,4,2,13,1.0,8411,65,93,40,80,811,404.0,532,461,60,122.0,425,1,429,431,169,0,0,404,1504,28696,398,-5.59,44.680218,10.016759,40.57,179.2,0,0.0,-1,0.0,0.0,0,2.19,5.8891
353364,1564237745722,3,2.21,0.97,0.33,1.31,0.98,1.05,-0.11,0.21,3,3,12,1.06,9018,24,92,40,74,835,403.0,575,468,60,122.0,425,1,413,435,169,0,0,405,1504,28696,397,-5.59,,,,,,,,,,,,
353384,1564237745742,-0,2.19,0.96,0.32,1.3,0.97,0.92,0.1,0.16,2,8,10,0.93,9488,0,92,40,66,855,406.0,605,466,60,121.0,425,1,414,366,169,0,0,412,2524,2524,394,-5.59,,,,,,,,,,,,
353404,1564237745762,1,2.16,0.97,0.33,1.3,0.97,0.79,0.24,0.24,-0,7,7,0.83,9356,0,92,40,58,867,412.0,631,468,60,122.0,425,1,404,329,169,0,0,447,13040,15649,395,-5.59,,,,,,,,,,,,
353424,1564237745782,1,2.15,0.97,0.32,1.31,0.98,0.69,0.14,0.42,-3,11,3,0.71,8928,0,92,40,51,913,422.0,627,466,60,123.0,425,1,386,271,169,0,0,484,-3414,-8186,400,-5.59,,,,,,,,,,,,
353444,1564237745801,0,2.12,0.97,0.33,1.32,0.98,0.62,0.12,0.57,-5,12,0,0.63,8596,0,92,40,46,973,428.0,617,461,60,122.0,197,1,363,222,79,0,0,456,-3314,-23623,402,-5.59,44.68021,10.016756,39.14,179.2,0,0.0,-1,0.0,0.0,0,2.2,5.8907
353464,1564237745821,2,2.09,0.97,0.33,1.32,0.97,0.59,0.29,0.63,-6,11,-1,0.66,8184,12,93,40,42,1004,431.0,595,464,60,123.0,197,1,334,234,79,0,0,453,1779,-28332,402,-5.59,,,,,,,,,,,,
353484,1564237745841,-1,2.07,0.97,0.33,1.31,0.98,0.49,0.36,0.61,-7,10,-2,0.61,7958,10,93,40,40,1028,437.0,575,462,60,122.0,197,1,317,226,79,0,0,451,19477,19477,407,181.28,,,,,,,,,,,,
353504,1564237745861,3,2.04,0.97,0.33,1.31,0.97,0.44,0.53,0.43,-7,9,-3,0.68,7275,9,93,40,39,1057,432.0,554,463,60,121.0,197,1,310,220,79,0,0,441,-3322,3635,407,-5.59,,,,,,,,,,,,
353524,1564237745881,2,2.02,0.96,0.32,1.3,0.97,0.4,0.66,0.3,-8,8,-4,0.77,7214,8,93,40,38,1079,429.0,537,464,60,123.0,197,1,307,205,79,0,0,433,3635,13040,404,-5.59,,,,,,,,,,,,
353544,1564237745901,1,2.01,0.95,0.32,1.31,0.96,0.48,0.7,0.32,-9,5,-7,0.85,7170,7,93,40,37,1070,425.0,530,467,60,124.0,136,1,304,202,55,0,0,432,-3856,6512,403,-5.59,44.680199,10.016754,40.45,179.2,0,0.0,-1,0.0,0.0,0,2.2,5.8924
353564,1564237745921,-0,2.03,0.96,0.32,1.3,0.95,0.46,0.57,0.43,-11,2,-10,0.73,7121,1,93,40,36,1060,431.0,530,466,60,123.0,136,1,301,193,55,0,0,431,1779,28696,403,-5.59,,,,,,,,,,,,
353584,1564237745941,3,2.03,0.96,0.32,1.3,0.96,0.54,0.61,0.36,-13,1,-12,0.82,7038,8,93,40,36,1050,436.0,524,464,60,122.0,136,1,301,190,55,0,0,434,5600,-32702,401,-5.59,,,,,,,,,,,,
353604,1564237745961,4,2.03,0.96,0.32,1.31,0.96,0.5,0.73,0.23,-15,2,-13,0.89,7017,9,93,40,35,1040,437.0,523,465,60,124.0,136,1,298,183,55,0,0,435,19477,-6475,398,-5.59,,,,,,,,,,,,
353624,1564237745981,2,2.03,0.96,0.31,1.31,0.96,0.62,0.77,0.25,-17,0,-16,0.99,7038,0,93,40,35,1037,441.0,516,466,60,122.0,136,1,298,178,55,0,0,431,26704,257,398,-5.59,,,,,,,,,,,,
353644,1564237745995,4,2.03,0.96,0.32,1.31,0.96,0.71,0.81,0.3,-20,0,-19,1.08,7189,0,93,40,34,1039,439.0,516,464,60,122.0,118,1,295,176,47,0,0,425,-28332,2811,395,-5.59,44.680187,10.016752,42.13,179.3,0,0.0,-1,0.0,0.0,0,2.2,5.8941
353664,1564237746015,2,2.02,0.96,0.32,1.3,0.96,0.68,0.93,0.24,-21,0,-22,1.15,7307,7,93,40,34,1033,438.0,520,466,60,124.0,118,1,295,176,47,0,0,427,21580,6870,392,-5.59,,,,,,,,,,,,
353684,1564237746035,1,2.01,0.95,0.32,1.3,0.97,0.7,0.9,0.21,-23,-1,-25,1.15,7419,9,93,40,33,1029,435.0,525,465,60,123.0,118,1,292,171,47,0,0,427,5600,-29978,388,-5.59,,,,,,,,,,,,
353704,1564237746055,2,2.0,0.96,0.32,1.31,0.97,0.74,1.01,0.13,-24,-1,-26,1.25,7476,9,93,40,33,1020,431.0,536,465,60,123.0,118,1,292,166,47,0,0,427,1779,-14707,385,-5.59,,,,,,,,,,,,
353724,1564237746075,2,2.01,0.96,0.32,1.31,0.96,0.62,1.11,-0.03,-25,1,-27,1.28,7521,9,93,40,32,1013,432.0,531,461,60,123.0,118,1,290,166,47,0,0,425,-3322,-1268,382,-5.59,,,,,,,,,,,,
353744,1564237746102,1,2.02,0.95,0.32,1.31,0.97,0.62,1.2,-0.07,-26,3,-30,1.35,7464,9,93,40,32,987,428.0,529,462,60,124.0,122,1,290,164,47,0,0,427,-3322,-6405,381,-5.59,44.680176,10.016751,40.21,179.3,0,0.0,-1,0.0,0.0,0,2.2,5.8957
353764,1564237746122,1,2.04,0.96,0.32,1.31,0.96,0.6,1.27,-0.09,-26,2,-34,1.4,7458,4,93,40,31,962,428.0,530,464,60,124.0,122,1,286,161,47,0,0,428,13180,-6405,381,-5.59,,,,,,,,,,,,
353784,1564237746142,1,2.06,0.96,0.32,1.3,0.97,0.58,1.27,-0.07,-26,2,-36,1.4,7347,9,93,40,31,925,426.0,535,453,60,124.0,122,1,286,164,47,0,0,423,13552,-6656,379,-5.59,,,,,,,,,,,,
353804,1564237746162,1,2.07,0.97,0.32,1.31,0.96,0.54,1.32,-0.11,-26,4,-36,1.43,7332,9,93,40,31,905,423.0,530,460,60,124.0,122,1,286,88,47,0,0,420,3826,770,379,-5.59,,,,,,,,,,,,
353824,1564237746182,-2,2.08,0.96,0.32,1.31,0.97,0.63,1.27,-0.1,-26,3,-35,1.42,7290,9,93,40,31,879,420.0,529,455,60,125.0,122,1,286,164,47,0,0,416,7154,-6656,378,-5.59,,,,,,,,,,,,
353844,1564237746200,-0,2.08,0.96,0.32,1.31,0.97,0.66,1.13,0.05,-26,2,-36,1.31,7301,5,93,40,30,845,415.0,529,447,60,124.0,119,1,282,164,45,0,0,410,-26615,257,379,-5.59,44.680168,10.016751,39.34,179.3,0,0.0,-1,0.0,0.0,0,2.2,5.8974
353864,1564237746220,-0,2.08,0.97,0.32,1.32,0.96,0.78,1.01,0.16,-27,-0,-37,1.27,7267,17,93,40,32,832,412.0,531,451,60,123.0,119,1,290,182,45,0,0,406,13040,0,377,-5.59,,,,,,,,,,,,
353884,1564237746240,2,2.08,0.97,0.32,1.31,0.97,0.79,1.02,0.11,-27,-0,-36,1.29,7312,34,93,40,36,831,409.0,533,453,60,124.0,119,1,301,112,45,0,0,404,11560,486,376,-5.59,,,,,,,,,,,,
353904,1564237746260,3,2.06,0.97,0.32,1.31,0.97,0.66,1.02,0.08,-27,2,-36,1.21,7367,48,93,40,45,830,409.0,535,453,60,123.0,119,1,355,236,45,0,0,406,11560,742,376,-5.59,,,,,,,,,,,,
353924,1564237746280,1,2.05,0.96,0.32,1.31,0.97,0.59,1.12,0.03,-27,2,-35,1.26,7364,66,93,40,57,828,407.0,536,459,60,124.0,119,1,408,303,45,0,0,407,10392,0,375,-5.59,,,,,,,,,,,,
353944,1564237746300,2,2.02,0.96,0.32,1.31,0.96,0.51,1.21,-0.01,-26,3,-36,1.31,7413,82,93,40,73,825,410.0,538,447,60,123.0,266,1,408,459,100,0,0,407,9517,257,373,-5.59,44.680157,10.016754,38.28,179.3,0,0.0,-1,0.0,0.0,0,2.2,5.8991
353964,1564237746320,2,2.02,0.96,0.32,1.31,0.96,0.48,1.19,-0.01,-26,4,-36,1.29,7341,93,93,40,86,824,410.0,537,442,60,123.0,266,1,398,586,100,0,0,410,9517,0,371,-5.59,,,,,,,,,,,,
353984,1564237746340,0,2.03,0.96,0.32,1.31,0.96,0.55,1.25,-0.0,-27,3,-35,1.36,7338,98,93,40,91,823,410.0,537,432,60,123.0,266,1,398,611,100,0,0,406,9517,486,368,-5.59,,,,,,,,,,,,
354004,1564237746360,1,2.03,0.96,0.33,1.31,0.96,0.67,1.25,0.02,-28,3,-35,1.42,7458,97,93,40,92,825,409.0,527,441,60,123.0,266,1,406,602,100,0,0,407,11560,0,369,-5.59,,,,,,,,,,,,
354024,1564237746380,1,2.03,0.96,0.32,1.3,0.97,0.7,1.29,0.11,-28,2,-37,1.47,7776,96,93,40,92,826,409.0,532,431,60,124.0,266,1,430,608,100,0,0,404,11560,230,368,-5.59,,,,,,,,,,,,
354044,1564237746400,1,2.04,0.96,0.32,1.3,0.97,0.6,1.32,0.1,-28,3,-37,1.45,8396,95,93,40,91,829,409.0,550,411,60,122.0,504,1,438,655,185,0,0,407,10392,230,367,-5.59,44.680149,10.016757,38.2,179.3,0,0.0,-1,0.0,0.0,0,2.2,5.9007
354064,1564237746420,0,2.05,0.96,0.31,1.31,0.97,0.54,1.39,0.15,-27,2,-34,1.49,9062,91,93,40,88,874,407.0,575,397,60,123.0,504,1,418,579,185,0,0,410,2524,1,366,-5.59,,,,,,,,,,,,
354084,1564237746440,2,2.04,0.96,0.32,1.3,0.96,0.48,1.44,0.18,-27,4,-36,1.51,9177,86,93,40,86,979,409.0,607,392,60,120.0,504,1,418,671,185,0,0,431,11560,-16384,370,-5.59,,,,,,,,,,,,
354104,1564237746460,1,2.04,0.96,0.32,1.31,0.96,0.45,1.45,0.23,-27,5,-37,1.51,9177,64,93,40,88,1081,419.0,601,430,60,122.0,504,1,418,579,185,0,0,454,7154,-32248,374,-5.59,,,,,,,,,,,,
354124,1564237746480,1,2.04,0.96,0.32,1.31,0.97,0.32,1.37,0.25,-28,8,-36,1.41,7868,46,93,40,91,1156,424.0,583,433,60,122.0,504,1,438,648,185,0,0,427,-4082,-3314,374,-5.59,,,,,,,,,,,,
354144,1564237746502,-2,2.05,0.96,0.32,1.31,0.97,0.39,1.33,0.25,-29,5,-36,1.39,7533,54,93,40,92,1273,420.0,561,411,60,122.0,413,1,411,633,156,0,0,422,-8165,-31744,378,-5.59,44.680141,10.016761,37.57,179.4,0,0.0,-1,0.0,0.0,0,2.2,5.9024
354164,1564237746522,-1,2.04,0.96,0.33,1.31,0.96,0.4,1.17,0.41,-30,4,-37,1.24,7408,7,93,40,92,1323,418.0,546,419,60,122.0,413,1,402,536,156,0,0,419,18584,6384,378,-5.59,,,,,,,,,,,,
354184,1564237746542,1,2.04,0.96,0.32,1.3,0.97,0.47,1.09,0.36,-30,5,-37,1.19,7643,0,93,40,92,1389,416.0,533,424,60,122.0,413,1,420,486,156,0,0,416,18584,-3968,377,-5.59,,,,,,,,,,,,
354204,1564237746562,1,2.02,0.95,0.32,1.31,0.96,0.62,0.94,0.52,-31,2,-37,1.13,7841,98,93,40,92,1353,415.0,541,396,60,123.0,413,1,435,650,156,0,0,417,-26615,-4059,380,-5.59,,,,,,,,,,,,
354224,1564237746582,3,2.01,0.96,0.32,1.3,0.96,0.72,0.97,0.61,-30,0,-36,1.21,8102,87,93,40,91,1327,416.0,553,373,60,124.0,413,1,447,558,156,0,0,415,18584,21580,381,-5.59,,,,,,,,,,,,
354244,1564237746600,-0,2.02,0.95,0.32,1.31,0.96,0.67,0.86,0.54,-31,0,-37,1.09,8600,99,93,40,90,1332,419.0,558,343,60,122.0,577,1,433,700,221,0,0,432,7154,14488,383,-5.59,44.68013,10.016767,38.72,179.4,0,0.0,-1,0.0,0.0,0,2.2,5.9041
354264,1564237746620,1,2.01,0.96,0.32,1.31,0.97,0.55,0.95,0.61,-31,1,-39,1.1,8954,56,93,40,87,1337,426.0,584,317,60,123.0,577,1,419,568,221,0,0,441,13552,6193,385,-5.59,,,,,,,,,,,,
354284,1564237746640,1,2.02,0.95,0.32,1.31,0.97,0.3,1.05,0.66,-31,5,-39,1.1,9031,0,93,40,87,1378,433.0,602,295,60,122.0,577,1,418,568,221,0,0,461,243,32033,388,-5.59,,,,,,,,,,,,
354304,1564237746660,0,2.01,0.95,0.32,1.31,0.97,0.16,1.15,0.77,-32,6,-40,1.16,8600,0,93,40,87,1414,442.0,603,299,60,122.0,577,1,430,584,221,0,0,464,20625,-9203,390,-5.59,,,,,,,,,,,,
354324,1564237746680,1,2.01,0.96,0.32,1.31,0.97,0.28,1.2,0.86,-32,6,-40,1.23,8285,83,93,40,87,1404,446.0,583,332,60,124.0,577,1,438,651,221,0,0,461,16648,23400,392,-5.59,,,,,,,,,,,,
354344,1564237746700,-1,2.0,0.95,0.33,1.31,0.97,0.17,1.28,0.78,-33,6,-40,1.29,8241,77,93,40,87,1396,446.0,572,346,60,123.0,508,1,439,632,201,0,0,459,16648,-3414,398,-5.59,44.680122,10.016773,39.13,179.4,0,0.0,-1,0.0,0.0,0,2.21,5.9057
354364,1564237746720,3,1.99,0.96,0.32,1.32,0.97,0.27,1.36,0.73,-33,5,-39,1.38,8378,77,93,40,85,1344,446.0,570,333,60,124.0,508,1,433,614,201,0,0,457,16648,243,400,-5.59,,,,,,,,,,,,
354384,1564237746740,0,1.99,0.95,0.32,1.31,0.96,0.31,1.16,0.79,-34,4,-40,1.2,8573,12,93,40,84,1306,446.0,583,308,60,124.0,508,1,428,640,201,0,0,461,16648,3580,399,-5.59,,,,,,,,,,,,
354404,1564237746760,-1,1.97,0.96,0.32,1.31,0.97,0.21,1.21,0.8,-33,3,-42,1.23,8786,80,93,40,83,1291,448.0,590,293,60,123.0,508,1,423,627,201,0,0,465,3571,8488,397,-5.59,,,,,,,,,,,,
354424,1564237746780,-1,1.95,0.95,0.33,1.3,0.97,0.02,1.29,0.67,-32,4,-41,1.29,8882,79,93,40,82,1288,451.0,603,282,60,124.0,508,1,420,597,201,0,0,474,3571,-23623,397,-5.59,,,,,,,,,,,,
354444,1564237746802,-0,1.94,0.95,0.32,1.31,0.96,0.05,1.36,0.66,-31,3,-41,1.36,8865,73,93,40,82,1325,453.0,615,263,60,123.0,480,1,420,583,192,0,0,475,-9160,-6528,406,-5.59,44.680115,10.016781,41.13,179.3,0,0.0,-1,0.0,0.0,0,2.21,5.9074
354464,1564237746822,2,1.93,0.96,0.33,1.31,0.96,0.1,1.38,0.62,-31,3,-40,1.38,8794,79,93,40,81,1372,461.0,611,277,60,123.0,480,1,420,555,192,0,0,478,2211,-6441,409,-5.59,,,,,,,,,,,,
354484,1564237746842,4,1.91,0.95,0.32,1.31,0.97,0.29,1.26,0.65,-32,0,-41,1.29,8790,57,93,40,81,1387,464.0,618,325,60,124.0,480,1,421,598,192,0,0,477,16408,3571,410,-5.59,,,,,,,,,,,,
354504,1564237746862,2,1.91,0.96,0.32,1.32,0.96,0.45,1.04,0.73,-33,-0,-42,1.13,8737,0,93,40,81,1408,463.0,602,367,60,123.0,480,1,422,512,192,0,0,477,6193,-1562,410,-5.59,,,,,,,,,,,,
354524,1564237746882,2,1.91,0.95,0.32,1.3,0.97,0.48,0.88,0.82,-34,-1,-44,1.0,9014,58,93,40,81,1391,464.0,615,376,60,124.0,480,1,416,594,192,0,0,476,16408,-1562,411,-5.59,,,,,,,,,,,,
354544,1564237746902,1,1.91,0.95,0.33,1.3,0.97,0.63,0.71,0.93,-36,-3,-46,0.95,9195,72,93,40,80,1361,467.0,615,400,60,123.0,501,1,416,512,207,0,0,481,30272,-899,415,-5.59,44.680107,10.01679,42.37,179.3,0,0.0,-1,0.0,0.0,0,2.21,5.9091
354564,1564237746922,3,1.92,0.95,0.32,1.3,0.96,0.74,0.55,1.04,-37,-3,-47,0.92,9384,27,93,40,80,1350,471.0,626,425,60,123.0,501,1,416,486,207,0,0,487,32033,26178,417,-5.59,,,,,,,,,,,,
354584,1564237746942,1,1.92,0.96,0.32,1.31,0.97,0.58,0.7,0.83,-36,-0,-45,0.9,9605,78,93,40,79,1342,476.0,628,436,60,122.0,501,1,412,565,207,0,0,500,-23367,6274,419,-5.59,,,,,,,,,,,,
354604,1564237746962,3,1.93,0.96,0.32,1.31,0.96,0.72,0.7,0.95,-37,-2,-47,1.01,9770,76,93,40,79,1351,477.0,634,442,60,123.0,501,1,406,559,207,0,0,505,10305,2524,420,-5.59,,,,,,,,,,,,
354624,1564237746982,2,1.94,0.95,0.32,1.31,0.96,0.59,0.83,0.85,-37,-2,-48,1.02,9837,73,93,40,78,1380,482.0,638,454,60,122.0,501,1,403,534,207,0,0,535,-899,2088,421,-5.59,,,,,,,,,,,,
354644,1564237746994,1,1.94,0.95,0.33,1.31,0.96,0.74,0.8,0.96,-37,-2,-50,1.09,9915,19,93,40,77,1376,488.0,636,457,60,123.0,416,1,400,418,175,0,0,530,1,17136,421,-5.59,44.6801,10.016802,43.76,179.2,0,0.0,-1,0.0,0.0,0,2.21,5.9107
354664,1564237747014,1,1.95,0.96,0.32,1.31,0.96,0.62,0.89,0.92,-37,-4,-50,1.09,9915,30,93,40,75,1349,490.0,635,460,60,121.0,416,1,399,533,175,0,0,531,-1818,-22519,422,-5.59,,,,,,,,,,,,
354684,1564237747034,1,1.95,0.95,0.32,1.31,0.97,0.42,1.01,0.85,-38,-1,-48,1.09,8765,43,93,40,75,1316,491.0,627,463,60,122.0,416,1,421,790,175,0,0,512,-32768,8488,421,-5.59,,,,,,,,,,,,
354704,1564237747054,2,1.94,0.95,0.31,1.3,0.97,0.46,1.11,0.74,-37,-0,-46,1.2,8419,60,93,40,75,1272,490.0,612,451,60,123.0,416,1,429,764,175,0,0,497,-1818,6193,421,-5.59,,,,,,,,,,,,
354724,1564237747074,0,1.95,0.95,0.32,1.31,0.96,0.59,0.96,0.86,-37,-5,-47,1.13,8526,62,93,40,74,1243,483.0,595,451,60,123.0,416,1,428,506,175,0,0,492,3580,243,421,-5.59,,,,,,,,,,,,
354744,1564237747101,2,1.95,0.95,0.32,1.31,0.96,0.69,0.91,0.94,-37,-5,-48,1.14,9031,53,93,40,73,1220,482.0,606,463,60,123.0,390,1,413,473,164,0,0,492,-899,-3210,420,-5.59,44.680092,10.016813,45.15,179.2,0,0.0,-1,0.0,0.0,0,2.21,5.9124
354764,1564237747121,1,1.96,0.96,0.32,1.3,0.97,0.82,0.67,1.05,-36,-7,-51,1.06,9522,65,93,40,70,1218,484.0,621,467,60,123.0,390,1,416,459,164,0,0,488,-10483,16648,424,-5.59,,,,,,,,,,,,
354784,1564237747141,2,1.98,0.95,0.32,1.3,0.97,0.79,0.77,0.99,-36,-7,-51,1.1,9952,65,93,40,69,1234,487.0,636,457,60,122.0,390,1,398,360,164,0,0,492,505,2088,436,-5.59,,,,,,,,,,,,
354804,1564237747161,1,2.01,0.95,0.31,1.3,0.96,0.68,0.89,0.84,-37,-7,-51,1.12,10190,45,93,40,67,1276,495.0,641,469,60,123.0,390,1,415,421,164,0,0,514,771,-25872,442,-5.59,,,,,,,,,,,,
354824,1564237747181,-0,2.03,0.96,0.32,1.31,0.97,0.8,0.81,0.96,-38,-5,-52,1.14,10405,23,93,40,66,1316,502.0,641,461,60,123.0,390,1,436,407,164,0,0,516,15661,8488,444,-5.59,,,,,,,,,,,,
354844,1564237747201,-1,2.04,0.95,0.31,1.3,0.96,0.83,0.86,1.06,-38,-4,-52,1.19,10605,0,93,40,66,1373,504.0,650,459,60,123.0,378,1,445,422,168,0,0,524,15661,-18032,444,-5.59,44.680088,10.016827,45.45,179.1,0,0.0,-1,0.0,0.0,0,2.21,5.9141
354864,1564237747221,1,2.04,0.96,0.32,1.31,0.97,0.74,0.87,1.01,-39,0,-53,1.14,10551,61,93,40,66,1405,504.0,660,462,60,123.0,378,1,445,485,168,0,0,534,2109,-28648,447,-5.59,,,,,,,,,,,,
354884,1564237747241,1,2.06,0.95,0.32,1.3,0.97,0.87,0.76,1.11,-40,1,-55,1.16,10551,0,93,40,67,1412,509.0,645,468,60,122.0,378,1,444,430,168,0,0,548,10994,6273,445,-5.59,,,,,,,,,,,,
354904,1564237747261,1,2.05,0.96,0.32,1.31,0.96,0.65,0.88,0.96,-40,1,-54,1.09,763,8,93,40,69,1368,513.0,641,467,60,122.0,378,1,118,442,168,0,0,539,-4054,6274,444,-5.59,,,,,,,,,,,,
354924,1564237747281,1,2.05,0.96,0.32,1.3,0.96,0.68,0.71,1.06,-40,1,-52,0.98,8975,34,93,40,70,1323,509.0,638,454,60,122.0,378,1,414,688,168,0,0,523,10994,8488,442,-5.59,,,,,,,,,,,,
354944,1564237747302,0,2.05,0.95,0.32,1.31,0.97,0.82,0.55,1.12,-39,2,-52,0.98,9106,37,93,40,71,1248,507.0,621,460,60,122.0,541,1,413,704,239,0,0,512,-21872,998,444,-5.59,44.68008,10.016841,45.74,179.1,0,0.0,-1,0.0,0.0,0,2.21,5.9157
354964,1564237747322,1,2.06,0.96,0.32,1.3,0.97,0.91,0.4,1.2,-38,-0,-51,0.99,9498,67,93,40,71,1173,502.0,623,467,60,122.0,541,1,415,694,239,0,0,503,15661,-8187,439,-5.59,,,,,,,,,,,,
354984,1564237747342,1,2.06,0.95,0.31,1.31,0.96,0.71,0.56,0.95,-35,0,-51,0.91,9873,69,93,40,71,1165,501.0,635,463,60,123.0,541,1,401,731,239,0,0,512,11560,-2934,440,-5.59,,,,,,,,,,,,
355004,1564237747362,-0,2.07,0.95,0.32,1.3,0.97,0.64,0.65,0.78,-34,-2,-51,0.92,10319,73,93,40,71,1172,502.0,650,465,60,123.0,541,1,423,731,239,0,0,513,15661,-32504,440,-5.59,,,,,,,,,,,,
355024,1564237747382,1,2.07,0.96,0.32,1.3,0.97,0.73,0.58,0.81,-32,-1,-52,0.93,10557,42,93,40,72,1241,507.0,647,465,60,122.0,541,1,439,826,239,0,0,534,-21872,15649,440,-5.59,,,,,,,,,,,,
355044,1564237747399,3,2.08,0.96,0.32,1.3,0.97,0.73,0.72,0.88,-32,-2,-54,1.02,10782,74,93,40,73,1291,512.0,651,468,60,121.0,765,1,441,848,342,0,0,556,16383,-4035,465,-5.59,44.680077,10.016856,47.75,179.0,0,0.0,-1,0.0,0.0,0,2.21,5.9174
355064,1564237747419,2,2.09,0.96,0.32,1.31,0.97,0.63,0.85,0.64,-33,0,-53,1.06,10732,59,93,40,73,1253,523.0,645,465,60,121.0,765,1,441,848,342,0,0,556,-22519,-22519,470,-5.59,,,,,,,,,,,,
355084,1564237747439,2,2.1,0.96,0.32,1.31,0.96,0.48,0.95,0.56,-35,3,-51,1.07,10370,69,93,40,74,1220,525.0,646,464,60,121.0,765,1,424,817,342,0,0,553,2088,2211,468,-5.59,,,,,,,,,,,,
355104,1564237747459,1,2.12,0.96,0.31,1.31,0.96,0.41,1.05,0.49,-36,7,-51,1.13,9899,20,93,40,75,1120,528.0,642,462,60,122.0,765,1,400,782,342,0,0,548,-28648,2211,473,-5.59,,,,,,,,,,,,
355124,1564237747479,2,2.14,0.95,0.32,1.3,0.97,0.57,0.92,0.64,-36,8,-49,1.08,9561,0,94,40,77,1044,528.0,625,468,60,122.0,765,1,414,819,342,0,0,543,-28648,998,470,-5.59,,,,,,,,,,,,
355144,1564237747501,3,2.17,0.95,0.32,1.31,0.97,0.59,0.91,0.72,-36,3,-49,1.08,9254,79,94,40,81,932,524.0,625,453,60,122.0,672,1,416,918,316,0,0,527,10408,2524,470,-5.59,44.680073,10.016873,47.99,179.1,0,0.0,-1,0.0,0.0,0,2.22,5.9191
355164,1564237747521,3,2.19,0.96,0.31,1.31,0.96,0.69,1.02,0.59,-34,1,-48,1.23,9088,81,94,40,84,818,517.0,611,463,60,122.0,672,1,418,1022,316,0,0,521,15679,771,468,-5.59,,,,,,,,,,,,
355184,1564237747541,4,2.21,0.96,0.32,1.3,0.97,0.6,1.12,0.4,-30,-1,-46,1.27,9049,93,94,40,87,778,513.0,605,463,60,123.0,672,1,418,1036,316,0,0,516,26178,-1818,469,-5.59,,,,,,,,,,,,
355204,1564237747561,4,2.23,0.96,0.32,1.3,0.97,0.63,1.21,0.36,-27,-5,-45,1.36,9027,99,94,40,88,765,513.0,595,464,60,122.0,672,1,418,1032,316,0,0,515,26178,-32768,491,-5.59,,,,,,,,,,,,
355224,1564237747581,2,2.24,0.96,0.32,1.31,0.97,0.62,1.29,0.29,-24,-6,-43,1.43,8915,76,94,40,88,770,511.0,597,465,60,122.0,672,1,421,1110,316,0,0,513,-3856,-1818,492,-5.59,,,,,,,,,,,,
355244,1564237747601,3,2.24,0.97,0.32,1.32,0.98,0.76,1.31,0.28,-23,-9,-41,1.52,8937,34,94,40,88,778,513.0,591,466,60,122.0,770,1,420,600,380,0,0,511,26178,771,495,-5.59,44.680073,10.01689,49.84,179.1,0,0.0,-1,0.0,0.0,0,2.22,5.9207
355264,1564237747621,2,2.25,0.97,0.32,1.32,0.97,0.89,1.23,0.21,-21,-8,-40,1.52,8932,0,94,40,88,800,513.0,602,461,60,123.0,770,1,420,606,380,0,0,515,26178,771,496,-5.59,,,,,,,,,,,,
355284,1564237747641,2,2.26,0.97,0.32,1.32,0.98,1.0,1.19,0.26,-21,-8,-38,1.56,9241,100,94,40,88,817,513.0,610,457,60,123.0,770,1,418,692,380,0,0,508,-3856,-22519,498,-5.59,,,,,,,,,,,,
355304,1564237747661,1,2.26,0.97,0.32,1.32,0.97,0.92,1.2,0.24,-19,-6,-33,1.51,9946,95,94,40,86,843,512.0,628,466,60,122.0,770,1,399,676,380,0,0,511,17136,-32248,499,-5.59,,,,,,,,,,,,
355324,1564237747681,1,2.26,0.97,0.32,1.33,0.98,0.82,1.22,0.16,-18,-4,-31,1.47,10647,100,94,40,85,864,510.0,644,461,60,122.0,770,1,434,625,380,0,0,514,10994,-3414,500,-5.59,,,,,,,,,,,,
355344,1564237747701,2,2.26,0.97,0.32,1.33,0.98,0.86,1.24,-0.04,-17,-5,-27,1.5,11160,27,94,40,84,868,509.0,653,463,60,122.0,506,1,442,567,253,0,0,508,-4054,-9216,497,-5.59,44.680073,10.016908,49.36,179.0,0,0.0,-1,0.0,0.0,0,2.22,5.9224
355364,1564237747721,2,2.25,0.97,0.33,1.33,0.97,0.87,1.26,0.16,-16,-6,-25,1.53,11496,0,94,40,84,866,513.0,650,467,60,122.0,506,1,441,549,253,0,0,538,17136,14504,501,-5.59,,,,,,,,,,,,
355384,1564237747741,2,2.26,0.98,0.32,1.33,0.97,0.81,0.96,0.34,-15,-3,-26,1.26,11301,7,94,40,83,848,520.0,654,467,60,121.0,506,1,441,621,253,0,0,588,2524,30227,510,-5.59,,,,,,,,,,,,
355404,1564237747761,-0,2.26,0.97,0.32,1.32,0.98,0.77,1.06,0.41,-14,2,-25,1.31,11042,0,94,40,84,833,527.0,640,461,60,122.0,506,1,443,549,253,0,0,617,14504,24583,518,-5.59,,,,,,,,,,,,
355424,1564237747781,2,2.25,0.97,0.33,1.33,0.97,0.71,0.85,0.51,-14,2,-23,1.1,11003,95,94,40,84,815,537.0,652,458,60,121.0,506,1,443,638,253,0,0,571,-2934,2524,524,-5.59,,,,,,,,,,,,
355444,1564237747801,1,2.26,0.98,0.32,1.33,0.97,0.75,0.72,0.66,-14,2,-23,1.04,10990,100,94,40,84,797,542.0,643,469,60,122.0,500,1,442,624,264,0,0,580,-3082,-29984,529,-5.59,44.680073,10.016925,49.56,179.0,0,0.0,-1,0.0,0.0,0,2.22,5.9241
355464,1564237747821,1,2.26,0.97,0.33,1.32,0.97,0.61,0.72,0.67,-13,1,-22,0.94,9780,95,94,40,86,780,546.0,630,457,60,121.0,500,1,406,640,264,0,0,569,2524,-8186,536,-5.59,,,,,,,,,,,,
355484,1564237747841,3,2.27,0.97,0.32,1.33,0.98,0.63,0.67,0.78,-13,-1,-22,0.92,9709,100,94,40,86,773,548.0,617,454,60,122.0,500,1,409,622,264,0,0,565,14504,-28648,537,-5.59,,,,,,,,,,,,
355504,1564237747861,2,2.29,0.97,0.32,1.33,0.97,0.77,0.55,0.78,-13,-3,-21,0.94,10168,98,94,40,85,772,550.0,635,458,60,123.0,500,1,407,596,264,0,0,556,14504,-9072,538,-5.59,,,,,,,,,,,,
355524,1564237747881,2,2.32,0.97,0.33,1.32,0.98,0.64,0.33,0.84,-11,-5,-20,0.72,10659,100,94,40,84,779,550.0,645,465,60,122.0,500,1,434,576,264,0,0,563,-32248,6273,543,-5.59,,,,,,,,,,,,
355544,1564237747901,4,2.34,0.97,0.32,1.32,0.98,0.75,0.11,0.95,-10,-4,-20,0.76,11101,100,94,40,84,803,550.0,642,467,60,120.0,417,1,442,549,227,0,0,569,-32248,-16384,546,-5.59,44.680073,10.016943,52.96,178.9,0,0.0,-1,0.0,0.0,0,2.22,5.9257
355564,1564237747921,2,2.36,0.97,0.32,1.32,0.98,0.58,0.23,0.77,-7,-2,-17,0.63,11384,88,94,40,84,848,555.0,651,462,60,121.0,417,1,441,534,227,0,0,611,-9072,23619,556,-5.59,,,,,,,,,,,,
355584,1564237747941,1,2.38,0.98,0.32,1.33,0.98,0.53,0.28,0.89,-6,-2,-17,0.6,11517,0,94,40,84,890,560.0,649,465,60,121.0,417,1,440,549,227,0,0,620,-28648,5344,563,-5.59,,,,,,,,,,,,
355604,1564237747961,3,2.38,0.97,0.32,1.32,0.98,0.49,0.05,0.93,-5,0,-15,0.49,11667,0,94,40,83,927,570.0,641,461,60,122.0,417,1,440,522,227,0,0,602,-30159,28675,570,-5.59,,,,,,,,,,,,
355624,1564237747981,1,2.38,0.97,0.33,1.32,0.98,0.48,-0.15,0.73,-3,1,-13,0.5,11674,43,94,40,83,958,578.0,648,460,60,121.0,417,1,440,627,227,0,0,611,-3190,-768,580,-5.59,,,,,,,,,,,,
355644,1564237747995,2,2.38,0.97,0.32,1.34,0.98,0.43,-0.15,0.6,-1,2,-10,0.46,11602,100,94,40,83,961,586.0,648,461,60,122.0,467,1,440,615,273,0,0,617,1760,269,586,-5.59,44.680073,10.016962,54.85,178.8,0,0.0,-1,0.0,0.0,0,2.22,5.9274
355664,1564237748015,0,2.41,0.98,0.32,1.33,0.98,0.5,-0.12,0.74,0,1,-10,0.51,11467,98,94,40,83,957,588.0,654,459,60,122.0,467,1,441,594,273,0,0,625,-3210,269,592,-5.59,,,,,,,,,,,,
355684,1564237748035,3,2.43,0.97,0.33,1.33,0.98,0.58,-0.23,0.86,2,1,-9,0.62,11398,91,94,40,83,916,595.0,636,460,60,122.0,467,1,441,531,273,0,0,629,-16384,269,595,-5.59,,,,,,,,,,,,
355704,1564237748055,3,2.46,0.98,0.32,1.33,0.98,0.52,-0.17,0.86,3,1,-6,0.55,11377,0,94,40,81,890,597.0,641,465,60,122.0,467,1,441,509,273,0,0,621,-4035,-16883,597,-5.59,,,,,,,,,,,,
355724,1564237748075,5,2.48,0.98,0.33,1.33,0.99,0.46,-0.36,0.93,4,-2,-4,0.58,11481,55,94,40,73,852,601.0,641,465,60,122.0,467,1,441,533,273,0,0,630,208,-18357,604,-5.59,,,,,,,,,,,,
355744,1564237748102,3,2.5,0.97,0.33,1.33,0.99,0.43,-0.17,0.7,6,-5,-1,0.46,11439,0,94,39,64,812,606.0,660,471,60,122.0,314,1,442,417,190,0,0,622,10432,966,606,-5.59,44.680073,10.016982,57.22,178.8,0,0.0,-1,0.0,0.0,0,2.22,5.9291
355764,1564237748122,2,2.51,0.97,0.33,1.33,0.99,0.55,-0.25,0.83,6,-4,-2,0.61,11187,27,94,39,56,808,606.0,647,467,60,122.0,314,1,413,397,190,0,0,622,30208,-28304,611,-5.59,,,,,,,,,,,,
355784,1564237748142,5,2.5,0.98,0.32,1.33,0.98,0.46,-0.07,0.54,7,-3,3,0.46,10831,18,94,39,49,802,610.0,642,468,60,122.0,314,1,385,294,190,0,0,615,259,16529,609,-5.59,,,,,,,,,,,,
355804,1564237748162,5,2.5,0.97,0.32,1.33,0.98,0.47,-0.19,0.42,8,-5,7,0.51,10593,13,95,39,45,800,604.0,647,468,60,122.0,314,1,365,253,190,0,0,588,-3210,19621,604,-5.59,,,,,,,,,,,,
355824,1564237748182,9,2.5,0.98,0.33,1.33,0.98,0.48,-0.3,0.52,10,-7,10,0.57,10439,10,94,39,41,798,606.0,639,467,60,122.0,314,1,335,231,190,0,0,563,1760,19621,606,-5.59,,,,,,,,,,,,
355844,1564237748200,12,2.5,0.98,0.32,1.34,0.98,0.43,-0.28,0.46,12,-6,13,0.52,10206,8,94,39,38,803,605.0,633,468,60,122.0,141,1,317,218,86,0,0,529,1780,19621,603,-5.59,44.680073,10.017002,60.11,178.7,0,0.0,-1,0.0,0.0,0,2.23,5.9307
355864,1564237748220,18,2.49,0.99,0.32,1.34,0.99,0.51,-0.15,0.31,14,-8,15,0.54,10037,8,95,39,36,808,605.0,627,465,60,123.0,141,1,311,210,86,0,0,493,-22263,-7939,605,-5.59,,,,,,,,,,,,
355884,1564237748240,17,2.49,0.98,0.33,1.34,0.98,0.64,-0.3,0.4,16,-8,15,0.71,9884,8,95,39,34,819,601.0,632,463,60,122.0,141,1,305,208,86,0,0,430,1780,-7939,601,-5.59,,,,,,,,,,,,
355904,1564237748260,16,2.5,0.98,0.32,1.33,0.98,0.63,-0.38,0.36,18,-7,17,0.74,9704,8,95,39,33,828,600.0,628,468,60,123.0,141,1,302,202,86,0,0,378,-22263,23619,599,-5.59,,,,,,,,,,,,
355924,1564237748280,17,2.48,0.98,0.32,1.33,0.99,0.76,-0.51,0.46,20,-8,19,0.91,9450,8,95,39,32,833,601.0,618,473,60,122.0,141,1,300,196,86,0,0,336,2104,4956,601,-5.59,,,,,,,,,,,,
355944,1564237748302,16,2.47,0.98,0.33,1.33,0.99,0.83,-0.57,0.39,21,-5,20,1.01,9173,4,95,39,31,840,600.0,617,467,60,122.0,113,1,295,188,68,0,0,292,-22519,-7939,595,-5.59,44.680069,10.017023,59.39,178.7,0,0.0,-1,0.0,0.0,0,2.23,5.9324
355964,1564237748322,17,2.45,0.98,0.33,1.33,0.98,0.95,-0.61,0.3,22,-3,21,1.12,8688,0,95,39,30,838,598.0,602,466,60,123.0,113,1,291,182,68,0,0,404,-2934,-13043,596,-5.59,,,,,,,,,,,,
355984,1564237748342,15,2.43,0.98,0.32,1.34,0.98,0.98,-0.7,0.23,23,-3,24,1.2,8344,6,95,39,28,836,591.0,535,465,60,123.0,113,1,281,177,68,0,0,410,6274,6273,591,-5.59,,,,,,,,,,,,
356004,1564237748362,16,2.43,0.98,0.32,1.33,0.98,1.08,-0.76,0.26,22,-2,26,1.32,8184,8,95,39,28,828,586.0,411,466,60,123.0,113,1,279,170,68,0,0,353,2524,-16384,584,-5.59,,,,,,,,,,,,
356024,1564237748382,15,2.41,0.98,0.32,1.33,0.98,1.04,-0.78,0.18,21,-1,27,1.3,7965,8,95,39,29,821,581.0,347,467,60,123.0,113,1,281,162,68,0,0,309,-21872,243,581,-5.59,,,,,,,,,,,,
356044,1564237748400,19,2.39,0.97,0.32,1.34,0.98,1.11,-0.77,0.12,21,-1,29,1.35,7728,8,95,39,29,807,577.0,324,467,60,122.0,82,1,280,162,48,0,0,261,-32248,1267,577,-5.59,44.680069,10.017043,57.85,178.6,0,0.0,-1,0.0,0.0,0,2.23,5.9341
356064,1564237748420,18,2.38,0.98,0.33,1.33,0.99,1.16,-0.79,0.17,20,-1,31,1.4,7554,8,95,39,29,787,571.0,302,465,60,122.0,82,1,279,162,48,0,0,189,-9212,6273,571,-5.59,,,,,,,,,,,,
356084,1564237748440,20,2.37,0.99,0.32,1.33,0.98,1.12,-0.79,0.21,20,-0,30,1.38,7309,8,95,39,29,782,563.0,290,465,60,122.0,82,1,278,162,48,0,0,133,16383,-22263,563,-5.59,,,,,,,,,,,,
356104,1564237748460,18,2.37,0.98,0.32,1.34,0.97,1.09,-0.77,0.13,20,2,31,1.34,7027,8,95,39,29,773,558.0,301,466,60,122.0,82,1,277,161,48,0,0,133,1341,-18032,559,-5.59,,,,,,,,,,,,
356124,1564237748480,17,2.36,0.98,0.33,1.34,0.98,0.97,-0.77,0.04,21,3,31,1.24,6537,8,95,39,29,772,558.0,322,466,60,122.0,82,1,279,162,48,0,0,206,-14,2524,555,-5.59,,,,,,,,,,,,
356144,1564237748500,20,2.36,0.98,0.32,1.34,0.98,1.08,-0.75,0.03,21,3,30,1.31,6325,8,95,39,29,771,547.0,320,460,60,121.0,70,1,280,162,39,0,0,249,-21872,-32248,547,-5.59,44.680065,10.017063,56.19,178.6,0,0.0,-1,0.0,0.0,0,2.23,5.9357
356164,1564237748520,22,2.36,0.98,0.33,1.34,0.98,1.17,-0.81,0.02,19,-1,28,1.42,6177,7,95,39,31,774,539.0,306,463,60,123.0,70,1,287,164,39,0,0,198,248,-506,539,-5.59,,,,,,,,,,,,
356184,1564237748540,22,2.36,0.98,0.32,1.33,0.99,1.18,-0.9,-0.02,18,-5,27,1.48,6042,7,95,39,31,781,533.0,290,462,60,123.0,70,1,287,165,39,0,0,153,11560,2524,533,-5.59,,,,,,,,,,,,
356204,1564237748560,24,2.34,0.98,0.33,1.33,0.99,1.21,-0.92,0.02,16,-7,27,1.52,5948,8,95,39,32,796,524.0,279,465,60,124.0,70,1,287,166,39,0,0,153,11560,-28648,524,-5.59,,,,,,,,,,,,
356224,1564237748580,24,2.32,0.98,0.32,1.33,0.98,1.28,-0.86,0.06,14,-12,26,1.54,5795,8,95,39,33,812,521.0,278,464,60,123.0,70,1,281,169,39,0,0,153,3,2524,519,-5.59,,,,,,,,,,,,
356244,1564237748600,28,2.28,0.98,0.32,1.34,0.98,1.35,-0.81,0.07,12,-11,25,1.58,5617,8,95,39,35,822,513.0,292,463,60,121.0,71,1,277,180,37,0,0,153,11560,-3856,513,-5.59,44.680061,10.017081,54.0,178.6,0,0.0,-1,0.0,0.0,0,2.23,5.9374
356264,1564237748620,26,2.25,0.98,0.32,1.33,0.97,1.38,-0.71,0.09,9,-8,26,1.55,5358,8,95,39,37,832,508.0,290,464,60,120.0,71,1,267,183,37,0,0,153,-9216,17136,508,-5.59,,,,,,,,,,,,
356284,1564237748640,29,2.21,0.98,0.32,1.32,0.96,1.37,-0.63,0.06,6,-8,26,1.51,4890,8,95,39,39,848,500.0,278,463,60,119.0,71,1,240,197,37,0,0,29,-9216,3,500,-5.59,,,,,,,,,,,,
356304,1564237748660,30,2.18,0.96,0.31,1.31,0.96,1.32,-0.52,-0.05,3,-5,24,1.42,4679,8,95,39,41,873,491.0,278,464,60,123.0,71,1,224,194,37,0,0,90,248,10432,480,-5.59,,,,,,,,,,,,
356324,1564237748680,30,2.16,0.95,0.31,1.29,0.96,1.32,-0.43,-0.14,2,-3,20,1.39,4557,8,95,39,42,893,481.0,275,460,60,123.0,71,1,214,193,37,0,0,157,32033,17628,460,-5.59,,,,,,,,,,,,
356344,1564237748700,29,2.14,0.95,0.3,1.28,0.95,1.34,-0.36,-0.16,1,-3,16,1.38,4456,6,95,39,43,909,480.0,268,461,60,122.0,72,1,206,193,33,0,0,205,8488,5600,453,-5.59,44.680058,10.017099,51.11,178.6,0,0.0,-1,0.0,0.0,0,2.23,5.9391
356364,1564237748720,31,2.13,0.94,0.3,1.28,0.94,1.31,-0.26,-0.2,-1,-4,13,1.33,4515,0,95,39,45,927,471.0,259,461,60,123.0,72,1,215,200,33,0,0,182,32033,-29978,440,-5.59,,,,,,,,,,,,
356384,1564237748740,33,2.1,0.95,0.3,1.28,0.94,1.28,-0.2,-0.14,-4,-6,9,1.3,4565,0,95,39,46,952,471.0,253,460,60,121.0,72,1,222,201,33,0,0,134,32033,-214,442,181.28,,,,,,,,,,,,
356404,1564237748760,33,2.09,0.95,0.29,1.29,0.94,1.25,-0.13,-0.15,-8,-3,6,1.26,4460,0,95,39,47,966,472.0,257,460,60,123.0,72,1,213,205,33,0,0,109,-16384,19456,425,-5.59,,,,,,,,,,,,
356424,1564237748780,29,2.08,0.95,0.3,1.29,0.95,1.23,-0.01,-0.31,-10,-3,2,1.23,4317,0,95,39,48,971,468.0,262,462,60,123.0,72,1,199,202,33,0,0,122,-16384,-1,407,-5.59,,,,,,,,,,,,
356444,1564237748802,20,2.07,0.95,0.3,1.29,0.95,1.21,0.13,-0.31,-13,-2,-2,1.22,3814,8,95,39,48,972,465.0,264,469,60,123.0,80,1,159,196,32,0,0,307,30272,3072,399,-5.59,44.680054,10.017117,47.91,178.6,0,0.0,-1,0.0,0.0,0,2.23,5.9407
356464,1564237748822,16,2.06,0.95,0.3,1.29,0.96,1.26,0.21,-0.28,-15,2,-8,1.28,3737,0,95,39,50,969,461.0,262,460,60,124.0,80,1,157,198,32,0,0,409,2211,-1,387,-5.59,,,,,,,,,,,,
356484,1564237748842,9,2.04,0.95,0.3,1.28,0.94,1.34,0.32,-0.18,-20,4,-13,1.37,3664,0,96,39,51,965,456.0,265,465,60,121.0,80,1,155,130,32,0,0,2107,14488,-1,396,-5.59,,,,,,,,,,,,
356504,1564237748862,11,2.03,0.95,0.3,1.29,0.95,1.38,0.37,-0.19,-22,3,-15,1.43,3738,0,95,39,52,957,1636.0,263,458,60,123.0,80,1,158,210,32,0,0,2535,-1542,13874,1636,-5.59,,,,,,,,,,,,
356524,1564237748882,7,2.03,0.95,0.29,1.28,0.94,1.41,0.49,-0.17,-24,-0,-18,1.49,4000,0,96,39,52,950,1636.0,267,466,60,122.0,80,1,168,216,32,0,0,2535,-1542,-1,1636,-5.59,,,,,,,,,,,,
356544,1564237748902,6,2.01,0.95,0.3,1.28,0.95,1.34,0.54,-0.07,-27,-3,-21,1.44,4067,0,96,39,53,948,1636.0,268,462,60,124.0,22,1,177,245,36,0,0,2535,-1542,-22528,1636,-5.59,44.68005,10.017131,43.6,178.6,0,0.0,-1,0.0,0.0,0,2.24,5.9424
356564,1564237748922,3,2.01,0.95,0.3,1.28,0.95,1.29,0.6,0.06,-29,-1,-26,1.42,4222,0,96,39,53,947,1636.0,269,458,60,125.0,22,1,197,245,36,0,0,2535,-1542,-22528,1636,-5.59,,,,,,,,,,,,
356584,1564237748942,2,2.0,0.95,0.3,1.29,0.94,1.26,0.64,0.09,-32,-0,-31,1.42,4134,0,95,39,53,953,434.0,276,460,60,124.0,22,1,185,237,36,0,0,2535,-768,-22528,28,-5.59,,,,,,,,,,,,
356604,1564237748962,0,1.98,0.95,0.3,1.28,0.96,1.19,0.68,0.04,-34,3,-34,1.37,4167,0,95,39,53,956,439.0,278,468,60,122.0,22,1,189,236,36,0,0,2535,-28332,-22528,370,-5.59,,,,,,,,,,,,
356624,1564237748982,-0,1.96,0.94,0.28,1.29,0.95,1.18,0.75,0.01,-35,3,-36,1.39,4139,0,96,39,54,955,440.0,279,468,60,124.0,22,1,188,151,36,0,0,2535,20625,-22528,375,-5.59,,,,,,,,,,,,
356644,1564237748994,-2,1.96,0.95,0.3,1.29,0.96,1.18,0.8,0.14,-37,-1,-39,1.43,4058,0,96,39,54,954,436.0,280,463,60,123.0,93,1,177,230,35,0,0,432,5600,-22528,375,-5.59,44.68005,10.017146,41.1,178.6,0,0.0,-1,0.0,0.0,0,2.24,5.9441
356664,1564237749014,1,1.95,0.95,0.3,1.29,0.95,1.09,0.87,0.19,-37,0,-41,1.4,4160,0,95,39,54,949,432.0,283,458,60,123.0,93,1,190,151,35,0,0,427,3635,-22528,374,-5.59,,,,,,,,,,,,
356684,1564237749034,-1,1.92,0.94,0.3,1.29,0.94,1.11,0.93,0.15,-37,2,-42,1.45,4121,0,96,39,54,944,426.0,280,467,60,123.0,93,1,185,226,35,0,0,424,13552,-22528,371,-5.59,,,,,,,,,,,,
356704,1564237749054,-0,1.9,0.95,0.3,1.28,0.95,1.12,0.94,0.16,-38,0,-44,1.46,4109,0,95,39,54,921,419.0,275,466,60,123.0,93,1,184,226,35,0,0,417,7154,-22528,369,-5.59,,,,,,,,,,,,
356724,1564237749074,-2,1.89,0.95,0.3,1.29,0.95,1.1,1.0,0.25,-39,-3,-45,1.48,4273,0,95,39,56,907,415.0,274,451,60,125.0,93,1,204,236,35,0,0,411,-26615,-1,368,-5.59,,,,,,,,,,,,
356744,1564237749099,-2,1.89,0.95,0.31,1.3,0.95,1.06,1.0,0.32,-39,-5,-46,1.46,4287,0,95,39,59,893,412.0,270,445,60,125.0,106,1,204,176,39,0,0,404,-4059,-1,364,-5.59,44.680046,10.017159,39.18,178.5,0,0.0,-1,0.0,0.0,0,2.24,5.9457
356764,1564237749119,3,1.88,0.95,0.3,1.3,0.95,1.0,1.03,0.31,-40,-4,-47,1.43,4400,0,95,39,66,877,409.0,271,433,60,125.0,106,1,220,283,39,0,0,410,11560,-1,361,-5.59,,,,,,,,,,,,
356784,1564237749139,2,1.89,0.95,0.3,1.3,0.95,1.0,1.04,0.29,-40,-2,-47,1.45,4506,0,95,39,73,864,407.0,273,453,60,124.0,106,1,233,320,39,0,0,414,-26615,1018,357,-5.59,,,,,,,,,,,,
356804,1564237749159,2,1.88,0.95,0.3,1.29,0.95,0.99,1.04,0.27,-41,-1,-48,1.43,4523,0,95,39,81,852,411.0,271,443,60,125.0,106,1,238,395,39,0,0,409,-4059,1018,355,-5.59,,,,,,,,,,,,
356824,1564237749179,-2,1.89,0.95,0.3,1.29,0.96,1.0,1.07,0.32,-41,-3,-48,1.46,4619,0,95,39,88,851,404.0,270,440,60,124.0,106,1,261,446,39,0,0,413,1504,1018,354,-5.59,,,,,,,,,,,,
356844,1564237749201,-2,1.89,0.95,0.3,1.29,0.95,1.0,1.12,0.33,-41,-3,-48,1.5,4669,0,95,39,93,851,402.0,272,448,60,124.0,241,1,283,533,85,0,0,409,10541,-1,351,-5.59,44.680046,10.017173,38.2,178.5,0,0.0,-1,0.0,0.0,0,2.24,5.9474
356864,1564237749221,-0,1.9,0.95,0.3,1.29,0.95,0.97,1.15,0.39,-42,-4,-49,1.51,4665,0,95,39,95,855,402.0,278,454,60,125.0,241,1,291,584,85,0,0,404,10541,2048,349,-5.59,,,,,,,,,,,,
356884,1564237749241,-0,1.93,0.95,0.3,1.3,0.95,1.0,1.14,0.35,-42,-6,-51,1.51,4728,0,95,39,96,860,396.0,276,449,60,124.0,241,1,297,586,85,0,0,400,-32702,-1,345,-5.59,,,,,,,,,,,,
356904,1564237749261,2,1.97,0.95,0.3,1.29,0.95,1.0,1.11,0.26,-42,-5,-52,1.49,4955,0,95,39,96,864,399.0,285,431,60,122.0,241,1,306,614,85,0,0,401,28696,-1,345,-5.59,,,,,,,,,,,,
356924,1564237749281,-0,2.01,0.95,0.3,1.29,0.96,0.96,1.11,0.32,-42,-3,-52,1.47,5231,14,95,39,95,868,398.0,292,443,60,124.0,241,1,310,678,85,0,0,395,-32702,-1,342,-5.59,,,,,,,,,,,,
356944,1564237749301,-1,2.04,0.95,0.31,1.29,0.96,1.03,1.1,0.23,-42,-4,-54,1.51,5671,84,95,39,95,909,397.0,308,441,60,124.0,397,1,314,648,136,0,0,394,-3968,-1,343,-5.59,44.68005,10.017186,37.36,178.5,0,0.0,-1,0.0,0.0,0,2.24,5.9491
356964,1564237749321,-1,2.06,0.95,0.31,1.29,0.95,1.13,1.15,0.41,-43,-3,-55,1.61,6131,0,95,39,94,940,394.0,327,441,60,123.0,397,1,323,525,136,0,0,395,-1818,-1480,340,-5.59,,,,,,,,,,,,
356984,1564237749341,-0,2.07,0.95,0.3,1.29,0.95,1.16,1.12,0.5,-44,-4,-55,1.61,6637,0,95,39,94,978,395.0,347,448,60,124.0,397,1,350,457,136,0,0,395,-1818,10318,338,-5.59,,,,,,,,,,,,
357004,1564237749361,-0,2.05,0.95,0.3,1.3,0.95,1.11,1.19,0.41,-43,-3,-55,1.62,7070,4,95,39,94,1023,390.0,376,443,60,124.0,397,1,374,524,136,0,0,393,-1562,-214,339,-5.59,,,,,,,,,,,,
357024,1564237749381,-2,2.07,0.95,0.3,1.29,0.96,1.1,1.2,0.42,-43,-3,-55,1.63,7536,48,95,39,94,1063,388.0,406,441,60,123.0,397,1,410,640,136,0,0,392,-31744,-1,336,-5.59,,,,,,,,,,,,
357044,1564237749401,0,2.09,0.94,0.31,1.29,0.96,1.08,1.29,0.51,-42,-2,-55,1.68,7901,8,95,39,92,1118,389.0,444,440,60,123.0,479,1,440,564,161,0,0,401,-1562,505,335,-5.59,44.68005,10.017199,36.28,178.5,0,0.0,-1,0.0,0.0,0,2.24,5.9507
357064,1564237749421,4,2.12,0.95,0.3,1.29,0.96,1.02,1.34,0.52,-42,0,-55,1.68,8198,0,95,39,91,1159,392.0,475,460,60,123.0,479,1,441,587,161,0,0,412,1,-22519,335,-5.59,,,,,,,,,,,,
357084,1564237749441,1,2.2,0.96,0.31,1.3,0.96,0.93,1.39,0.53,-41,-1,-54,1.68,8704,0,95,39,89,1172,394.0,510,456,60,124.0,479,1,428,611,161,0,0,420,-1818,-23367,336,-5.59,,,,,,,,,,,,
357104,1564237749461,3,2.27,0.96,0.31,1.31,0.96,0.84,1.36,0.47,-40,-0,-56,1.59,9036,37,95,39,87,1172,395.0,538,430,60,123.0,479,1,418,690,161,0,0,456,17144,-18108,341,-5.59,,,,,,,,,,,,
357124,1564237749481,1,2.36,0.96,0.31,1.31,0.98,0.8,1.22,0.43,-38,1,-57,1.46,8688,94,95,39,88,1159,398.0,560,424,60,123.0,479,1,428,693,161,0,0,497,6384,-3210,347,-5.59,,,,,,,,,,,,
357144,1564237749501,0,2.44,0.96,0.32,1.32,0.98,0.78,1.12,0.52,-35,2,-56,1.37,8252,0,95,40,88,1137,397.0,566,451,60,122.0,541,1,440,567,190,0,0,488,-3968,243,356,-5.59,44.680054,10.017211,35.82,178.5,0,0.0,-1,0.0,0.0,0,2.24,5.9524
357164,1564237749521,2,2.49,0.96,0.32,1.32,0.97,0.84,1.15,0.54,-33,4,-51,1.43,7914,30,95,40,89,1106,395.0,567,454,60,122.0,541,1,441,639,190,0,0,421,17144,-3414,366,-5.59,,,,,,,,,,,,
357184,1564237749541,3,2.51,0.97,0.32,1.32,0.98,0.71,1.11,0.67,-30,1,-46,1.31,7725,63,95,40,86,1091,387.0,555,453,60,123.0,541,1,423,600,190,0,0,405,240,-28332,379,-5.59,,,,,,,,,,,,
357204,1564237749561,2,2.54,0.97,0.31,1.32,0.97,0.54,0.99,0.65,-25,3,-41,1.13,7938,8,95,40,82,1096,388.0,548,448,60,122.0,541,1,434,470,190,0,0,408,-6475,-8165,388,-5.59,,,,,,,,,,,,
357224,1564237749581,1,2.53,0.97,0.32,1.33,0.97,0.56,0.82,0.76,-20,3,-37,0.99,8095,0,95,40,78,1119,398.0,550,460,60,124.0,541,1,436,452,190,0,0,414,-19126,3826,398,-5.59,,,,,,,,,,,,
357244,1564237749601,2,2.55,0.97,0.32,1.33,0.97,0.49,0.69,0.68,-13,2,-34,0.84,8113,59,95,40,75,1154,410.0,551,460,60,122.0,335,1,438,496,136,0,0,459,-6475,-3314,410,-5.59,44.680058,10.017222,37.05,178.5,0,0.0,-1,0.0,0.0,0,2.24,5.9541
357264,1564237749621,0,2.58,0.98,0.32,1.32,0.97,0.49,0.58,0.7,-7,2,-29,0.76,8145,26,95,40,75,1199,417.0,553,457,60,122.0,335,1,437,418,136,0,0,473,-31744,13180,417,-5.59,,,,,,,,,,,,
357284,1564237749641,2,2.6,0.97,0.32,1.33,0.98,0.45,0.49,0.76,-2,1,-22,0.67,8256,12,95,40,72,1294,424.0,558,453,60,123.0,335,1,437,465,136,0,0,453,-6524,21580,424,-5.59,,,,,,,,,,,,
357304,1564237749661,-0,2.64,0.97,0.31,1.32,0.98,0.51,0.37,0.71,2,1,-16,0.63,8359,57,95,40,71,1353,429.0,562,460,60,123.0,335,1,435,450,136,0,0,432,-1562,-18341,429,-5.59,,,,,,,,,,,,
357324,1564237749681,3,2.65,0.97,0.32,1.33,0.98,0.46,0.26,0.78,5,1,-12,0.53,8359,38,95,40,69,1395,432.0,562,457,60,123.0,335,1,437,366,136,0,0,460,-1562,8488,432,-5.59,,,,,,,,,,,,
357344,1564237749702,1,2.67,0.98,0.32,1.33,0.97,0.61,0.14,0.82,8,-0,-6,0.62,8457,21,95,40,69,1406,433.0,567,463,60,122.0,270,1,434,368,117,0,0,452,505,14488,435,-5.59,44.680065,10.017234,39.51,178.4,0,0.0,-1,0.0,0.0,0,2.24,5.9557
357364,1564237749722,-0,2.68,0.98,0.32,1.33,0.98,0.5,0.04,0.78,11,1,-2,0.5,8503,13,95,39,68,1368,437.0,572,458,60,123.0,270,1,434,373,117,0,0,460,-1818,-9160,437,-5.59,,,,,,,,,,,,
357384,1564237749742,1,2.68,0.97,0.32,1.33,0.98,0.43,-0.03,0.72,13,-0,2,0.43,8526,56,95,39,67,1302,441.0,575,456,60,123.0,270,1,434,421,117,0,0,474,17144,-23623,441,-5.59,,,,,,,,,,,,
357404,1564237749762,2,2.68,0.97,0.32,1.33,0.98,0.58,-0.04,0.77,15,-2,6,0.58,8684,57,95,39,66,1224,443.0,581,466,60,123.0,270,1,427,414,117,0,0,454,-32702,6193,443,-5.59,,,,,,,,,,,,
357424,1564237749782,0,2.67,0.97,0.32,1.33,0.97,0.71,-0.17,0.79,17,-1,10,0.73,8790,57,94,39,66,1168,444.0,582,457,60,122.0,270,1,419,399,117,0,0,462,6384,10432,444,-5.59,,,,,,,,,,,,
357444,1564237749801,1,2.68,0.97,0.32,1.34,0.98,0.68,-0.26,0.8,18,0,13,0.73,8877,54,94,39,65,1105,445.0,596,462,60,123.0,290,1,414,385,129,0,0,495,6512,-1923,446,-5.59,44.680069,10.017246,41.67,178.4,0,0.0,-1,0.0,0.0,0,2.25,5.9574
357464,1564237749821,-0,2.68,0.98,0.32,1.32,0.97,0.61,-0.43,0.72,20,2,17,0.74,9010,56,94,39,65,1045,449.0,592,463,60,122.0,290,1,405,374,129,0,0,481,11545,-1923,449,-5.59,,,,,,,,,,,,
357484,1564237749841,-0,2.68,0.97,0.32,1.33,0.98,0.62,-0.55,0.74,21,2,21,0.83,9079,43,94,39,64,1057,451.0,604,461,60,122.0,290,1,404,355,129,0,0,474,-8151,8488,452,-5.59,,,,,,,,,,,,
357504,1564237749861,1,2.68,0.98,0.31,1.33,0.98,0.58,-0.68,0.75,23,4,23,0.89,9137,49,94,39,64,1078,455.0,596,462,60,122.0,290,1,405,410,129,0,0,496,2524,32033,455,-5.59,,,,,,,,,,,,
357524,1564237749881,0,2.69,0.97,0.32,1.33,0.98,0.57,-0.75,0.72,25,5,24,0.94,9177,37,94,39,63,1098,454.0,609,461,60,123.0,290,1,405,351,129,0,0,502,-4059,-1818,454,-5.59,,,,,,,,,,,,
357544,1564237749901,2,2.67,0.97,0.32,1.32,0.98,0.68,-0.85,0.73,26,5,25,1.09,9222,39,94,39,63,1113,459.0,607,463,60,123.0,260,1,406,405,119,0,0,485,13040,1,459,-5.59,44.680073,10.01726,43.09,178.4,0,0.0,-1,0.0,0.0,0,2.25,5.9591
357564,1564237749921,3,2.69,0.97,0.32,1.33,0.99,0.75,-0.79,0.66,27,4,28,1.09,9245,20,95,39,62,1117,461.0,555,470,60,123.0,260,1,405,351,119,0,0,502,-26615,998,461,-5.59,,,,,,,,,,,,
357584,1564237749941,3,2.68,0.98,0.32,1.33,0.99,0.81,-0.7,0.72,28,2,29,1.07,9319,55,94,39,62,1123,464.0,537,462,60,123.0,260,1,407,405,119,0,0,508,18584,771,464,-5.59,,,,,,,,,,,,
357604,1564237749961,-1,2.68,0.97,0.32,1.33,0.98,0.72,-0.77,0.85,29,3,29,1.06,9407,53,94,39,62,1127,467.0,513,458,60,122.0,260,1,410,388,119,0,0,492,-3414,-32248,467,-5.59,,,,,,,,,,,,
357624,1564237749981,2,2.66,0.97,0.32,1.34,0.98,0.62,-0.82,0.95,30,2,32,1.03,9455,57,94,39,62,1133,469.0,514,458,60,122.0,260,1,412,380,119,0,0,513,-3414,6274,471,-5.59,,,,,,,,,,,,
357644,1564237749995,1,2.68,0.97,0.32,1.33,0.99,0.66,-0.83,0.8,31,3,33,1.06,9517,50,94,39,61,1134,474.0,517,458,60,122.0,284,1,414,368,134,0,0,529,-21792,10994,474,-5.59,44.680077,10.017274,44.4,178.3,0,0.0,-1,0.0,0.0,0,2.25,5.9607
357664,1564237750015,1,2.66,0.98,0.32,1.33,0.98,0.79,-0.95,0.78,32,2,35,1.24,9669,39,94,39,59,1132,475.0,525,462,60,122.0,284,1,409,330,134,0,0,512,3826,10994,475,-5.59,,,,,,,,,,,,
357684,1564237750035,3,2.66,0.97,0.32,1.33,0.99,0.77,-1.01,0.9,32,3,36,1.27,9715,44,94,39,57,1122,475.0,546,468,60,122.0,284,1,405,330,134,0,0,512,-3856,2524,474,-5.59,,,,,,,,,,,,
357704,1564237750055,-1,2.67,0.97,0.32,1.33,0.99,0.72,-1.02,1.01,33,3,36,1.25,9689,43,94,39,56,1107,479.0,475,467,60,122.0,284,1,403,365,134,0,0,528,-3856,16383,479,-5.59,,,,,,,,,,,,
357724,1564237750075,2,2.66,0.98,0.32,1.34,0.99,0.66,-1.0,1.04,34,2,38,1.2,9704,24,94,39,55,1094,479.0,410,457,60,123.0,284,1,401,312,134,0,0,515,13180,10408,479,-5.59,,,,,,,,,,,,
357744,1564237750094,1,2.66,0.98,0.32,1.33,0.98,0.59,-1.04,1.02,35,2,39,1.19,9679,23,94,39,54,1084,479.0,441,464,60,122.0,233,1,400,358,112,0,0,522,31796,10408,479,-5.59,44.68008,10.017289,45.28,178.4,0,0.0,-1,0.0,0.0,0,2.25,5.9624
357764,1564237750114,2,2.65,0.98,0.32,1.33,0.98,0.66,-1.08,0.9,35,1,40,1.27,9725,40,94,39,53,1053,479.0,383,462,60,123.0,233,1,397,341,112,0,0,529,13180,6274,479,-5.59,,,,,,,,,,,,
357784,1564237750134,-1,2.66,0.97,0.32,1.33,0.99,0.61,-1.11,0.79,35,1,40,1.26,9755,38,94,39,53,1032,481.0,398,462,60,123.0,233,1,397,333,112,0,0,530,3635,15679,481,-5.59,,,,,,,,,,,,
357804,1564237750154,3,2.64,0.98,0.32,1.32,0.98,0.69,-1.19,0.8,34,-1,41,1.38,9745,44,94,39,52,1014,479.0,408,462,60,121.0,233,1,394,314,112,0,0,531,-3314,17136,480,-5.59,,,,,,,,,,,,
357824,1564237750174,-0,2.63,0.98,0.31,1.34,0.99,0.6,-1.2,0.91,34,-0,41,1.34,9832,44,94,39,52,997,479.0,370,467,60,123.0,233,1,394,307,112,0,0,527,-3322,-3856,479,-5.59,,,,,,,,,,,,
357844,1564237750200,1,2.6,0.98,0.32,1.33,0.99,0.7,-1.18,1.0,33,0,41,1.37,9863,44,94,39,51,975,482.0,360,465,60,121.0,232,1,391,302,112,0,0,525,19477,-9072,482,-5.59,44.680084,10.017305,46.42,178.4,0,0.0,-1,0.0,0.0,0,2.25,5.9641
357864,1564237750220,0,2.54,0.97,0.32,1.33,0.98,0.65,-1.21,1.06,35,0,41,1.38,9858,43,94,39,51,940,490.0,403,465,60,122.0,232,1,391,283,112,0,0,525,21580,-9212,490,-5.59,,,,,,,,,,,,
357884,1564237750240,3,2.5,0.97,0.31,1.33,0.99,0.6,-1.19,1.02,35,0,42,1.33,9868,18,94,39,51,922,490.0,384,463,60,123.0,232,1,391,266,112,0,0,525,26704,2104,489,-5.59,,,,,,,,,,,,
357904,1564237750260,2,2.46,0.97,0.32,1.33,0.98,0.65,-1.21,1.12,36,1,41,1.37,9894,21,94,39,51,911,494.0,423,472,60,122.0,232,1,391,281,112,0,0,538,-18341,-32248,494,-5.59,,,,,,,,,,,,
357924,1564237750280,-1,2.43,0.97,0.31,1.33,0.98,0.58,-1.2,0.98,36,1,43,1.33,9910,39,94,39,51,886,495.0,388,468,60,123.0,232,1,391,322,112,0,0,539,2131,10408,495,-5.59,,,,,,,,,,,,
357944,1564237750300,3,2.39,0.97,0.32,1.32,0.98,0.63,-1.21,0.95,35,1,44,1.36,9899,36,94,39,50,870,494.0,373,464,60,122.0,242,1,388,304,120,0,0,530,16648,10408,494,-5.59,44.680084,10.017322,46.86,178.4,0,0.0,-1,0.0,0.0,0,2.25,5.9657
357964,1564237750320,1,2.34,0.97,0.32,1.32,0.98,0.54,-1.22,0.9,35,3,45,1.33,9910,34,94,39,48,856,495.0,358,463,60,121.0,242,1,382,274,120,0,0,522,-6387,-22519,495,-5.59,,,,,,,,,,,,
357984,1564237750340,3,2.27,0.97,0.32,1.33,0.98,0.62,-1.13,0.74,33,2,45,1.29,9821,31,94,39,45,848,497.0,349,462,60,123.0,242,1,365,250,120,0,0,521,2524,-32248,494,-5.59,,,,,,,,,,,,
358004,1564237750360,-0,2.22,0.97,0.31,1.33,0.98,0.63,-1.09,0.73,32,2,44,1.27,9635,25,94,39,43,842,495.0,347,466,60,121.0,242,1,350,235,120,0,0,530,6193,10408,492,-5.59,,,,,,,,,,,,
358024,1564237750380,0,2.17,0.96,0.31,1.32,0.98,0.68,-1.06,0.69,29,2,42,1.26,9498,23,94,39,42,836,490.0,342,462,60,122.0,242,1,342,225,120,0,0,514,243,1248,490,-5.59,,,,,,,,,,,,
358044,1564237750400,2,2.11,0.96,0.31,1.31,0.97,0.73,-0.97,0.6,25,0,39,1.21,9403,18,94,39,40,836,487.0,349,463,60,123.0,161,1,327,139,79,0,0,498,-17956,2109,487,-5.59,44.680084,10.017339,47.44,178.5,0,0.0,-1,0.0,0.0,0,2.25,5.9674
358064,1564237750420,-0,2.05,0.94,0.3,1.28,0.96,0.71,-0.86,0.52,21,-1,35,1.12,9250,19,94,39,39,838,483.0,360,467,60,122.0,161,1,320,211,79,0,0,499,-6441,3,480,-5.59,,,,,,,,,,,,
358084,1564237750440,-0,2.0,0.94,0.29,1.26,0.94,0.68,-0.76,0.48,16,-1,30,1.02,9071,27,94,39,39,836,494.0,375,464,60,122.0,161,1,320,236,79,0,0,501,998,248,476,-5.59,,,,,,,,,,,,
358104,1564237750460,-2,1.95,0.92,0.29,1.25,0.95,0.59,-0.68,0.55,10,-2,26,0.9,8898,27,94,39,39,828,499.0,384,466,60,123.0,161,1,320,232,79,0,0,499,-22519,16648,468,-5.59,,,,,,,,,,,,
358124,1564237750480,2,1.91,0.92,0.28,1.25,0.93,0.53,-0.53,0.44,3,-2,22,0.75,8753,27,94,39,39,820,504.0,387,466,60,123.0,161,1,320,135,79,0,0,504,-32248,12552,462,-5.59,,,,,,,,,,,,
358144,1564237750502,1,1.88,0.91,0.28,1.23,0.92,0.49,-0.28,0.35,-4,-3,18,0.56,8720,28,94,39,39,810,507.0,412,464,60,123.0,160,1,320,135,74,0,0,508,-21872,6193,456,-5.59,44.680084,10.017355,47.89,178.6,0,0.0,-1,0.0,0.0,0,2.25,5.9691
358164,1564237750522,2,1.85,0.91,0.28,1.23,0.92,0.64,-0.14,0.44,-11,-4,10,0.65,8692,26,94,39,40,800,508.0,432,464,60,123.0,160,1,326,222,74,0,0,507,-28648,-6387,451,-5.59,,,,,,,,,,,,
358184,1564237750542,2,1.84,0.9,0.28,1.23,0.93,0.72,-0.18,0.56,-17,-5,2,0.74,8644,21,94,39,40,790,503.0,451,460,60,122.0,160,1,326,218,74,0,0,507,2109,-26615,449,-5.59,,,,,,,,,,,,
358204,1564237750562,3,1.82,0.91,0.28,1.24,0.92,0.72,-0.15,0.69,-20,-4,-4,0.73,8676,18,94,39,40,782,498.0,457,462,60,122.0,160,1,326,238,74,0,0,506,2524,26704,436,-5.59,,,,,,,,,,,,
358224,1564237750582,9,1.82,0.92,0.27,1.25,0.92,0.66,-0.01,0.54,-23,-3,-8,0.67,8704,28,94,39,40,781,490.0,472,463,60,123.0,160,1,326,237,74,0,0,501,-1818,1779,423,-5.59,,,,,,,,,,,,
358244,1564237750600,9,1.82,0.92,0.28,1.25,0.93,0.64,0.19,0.34,-24,-5,-11,0.67,8700,0,94,39,40,782,484.0,493,464,60,124.0,185,1,326,208,77,0,0,498,-10483,3826,405,-5.59,44.680084,10.017371,47.3,178.7,0,0.0,-1,0.0,0.0,0,2.26,5.9707
358264,1564237750620,7,1.82,0.93,0.28,1.25,0.93,0.69,0.36,0.2,-27,-4,-15,0.78,8761,23,94,39,40,783,481.0,507,465,60,124.0,185,1,326,238,77,0,0,492,32033,1504,389,-5.59,,,,,,,,,,,,
358284,1564237750640,5,1.83,0.93,0.28,1.26,0.93,0.83,0.46,0.28,-29,-3,-21,0.95,8794,18,94,39,40,785,477.0,516,456,60,122.0,185,1,326,234,77,0,0,493,2212,-31744,380,-5.59,,,,,,,,,,,,
358304,1564237750660,3,1.82,0.93,0.28,1.26,0.93,0.79,0.58,0.31,-30,-3,-26,0.98,8811,0,94,39,40,786,478.0,534,458,60,122.0,185,1,326,137,77,0,0,492,16648,-6524,375,-5.59,,,,,,,,,,,,
358324,1564237750680,0,1.83,0.92,0.29,1.26,0.94,0.81,0.58,0.4,-32,-2,-29,1.0,8720,28,94,39,40,786,478.0,553,466,60,123.0,185,1,326,137,77,0,0,494,16648,8488,374,-5.59,,,,,,,,,,,,
358344,1564237750702,3,1.81,0.93,0.29,1.27,0.94,0.8,0.68,0.41,-32,-3,-32,1.04,8680,29,94,39,41,781,481.0,568,461,60,122.0,204,1,332,139,77,0,0,486,-23367,11560,379,-5.59,44.680084,10.017388,45.59,178.8,0,0.0,-1,0.0,0.0,0,2.26,5.9724
358364,1564237750722,2,1.8,0.92,0.29,1.25,0.94,0.68,0.81,0.28,-33,-2,-34,1.06,8765,29,94,39,41,774,475.0,577,471,60,123.0,204,1,332,230,77,0,0,484,-17956,15661,381,-5.59,,,,,,,,,,,,
358384,1564237750742,1,1.83,0.93,0.29,1.26,0.94,0.75,0.93,0.17,-33,-2,-36,1.2,8848,29,93,39,41,768,468.0,595,462,60,123.0,204,1,332,226,77,0,0,484,-16384,771,386,-5.59,,,,,,,,,,,,
358404,1564237750762,2,1.83,0.93,0.29,1.26,0.94,0.78,0.99,0.14,-33,-1,-39,1.26,8937,29,93,39,41,760,467.0,597,466,60,124.0,204,1,332,222,77,0,0,483,243,-22519,400,-5.59,,,,,,,,,,,,
358424,1564237750782,2,1.86,0.92,0.29,1.26,0.94,0.9,1.03,0.12,-35,-2,-41,1.37,9031,42,93,39,42,754,465.0,606,461,60,123.0,204,1,338,221,77,0,0,481,30272,248,405,-5.59,,,,,,,,,,,,
358444,1564237750802,1,1.88,0.93,0.29,1.26,0.94,0.9,1.13,-0.01,-36,-1,-42,1.44,9168,57,93,39,48,750,465.0,607,468,60,124.0,192,1,376,273,78,0,0,473,16408,2211,408,-5.59,44.680084,10.017405,44.69,178.9,0,0.0,-1,0.0,0.0,0,2.26,5.9741
358464,1564237750822,-0,1.92,0.93,0.29,1.26,0.94,0.96,1.21,-0.21,-37,-3,-40,1.55,9272,76,93,39,57,751,460.0,625,459,60,122.0,192,1,402,359,78,0,0,472,-23623,243,413,-5.59,,,,,,,,,,,,
358484,1564237750842,-0,1.98,0.93,0.28,1.27,0.94,0.77,1.29,-0.31,-37,1,-38,1.51,9282,94,93,39,70,756,465.0,616,458,60,122.0,192,1,414,424,78,0,0,472,30272,21432,413,-5.59,,,,,,,,,,,,
358504,1564237750862,1,2.04,0.93,0.29,1.26,0.94,0.8,1.3,-0.08,-37,2,-39,1.53,9191,100,93,39,80,767,466.0,622,454,60,122.0,192,1,416,437,78,0,0,480,-3210,2524,412,-5.59,,,,,,,,,,,,
358524,1564237750882,1,2.12,0.94,0.29,1.27,0.94,0.86,1.07,0.12,-37,1,-42,1.37,9186,100,93,39,85,781,466.0,618,442,60,122.0,192,1,418,502,78,0,0,479,-3210,-32504,416,-5.59,,,,,,,,,,,,
358544,1564237750902,1,2.19,0.93,0.29,1.27,0.94,0.87,0.98,0.3,-36,0,-45,1.31,9576,100,93,39,85,799,466.0,632,430,60,123.0,501,1,415,591,210,0,0,469,16408,-6528,423,-5.59,44.680088,10.017419,43.46,178.9,0,0.0,-1,0.0,0.0,0,2.26,5.9757
358564,1564237750922,-1,2.25,0.94,0.3,1.28,0.95,0.78,1.04,0.08,-34,-1,-45,1.3,9842,100,93,39,85,828,464.0,636,433,60,121.0,501,1,403,574,210,0,0,491,16408,32033,428,-5.59,,,,,,,,,,,,
358584,1564237750942,2,2.27,0.95,0.3,1.28,0.95,0.81,0.96,0.2,-32,-2,-45,1.26,9925,100,93,39,85,913,466.0,646,432,60,120.0,501,1,399,571,210,0,0,503,-3210,-28648,431,-5.59,,,,,,,,,,,,
358604,1564237750962,2,2.27,0.95,0.3,1.29,0.95,0.79,0.94,0.37,-29,-0,-44,1.23,9989,100,93,39,84,1055,467.0,644,434,60,121.0,501,1,396,554,210,0,0,554,243,6274,440,-5.59,,,,,,,,,,,,
358624,1564237750982,1,2.26,0.95,0.3,1.29,0.96,0.61,0.93,0.27,-27,0,-42,1.11,10005,100,93,39,84,1132,471.0,644,451,60,121.0,501,1,395,554,210,0,0,536,32033,32033,445,-5.59,,,,,,,,,,,,
358644,1564237750994,2,2.23,0.95,0.31,1.3,0.96,0.75,0.9,0.42,-27,2,-38,1.17,9760,34,93,39,85,1232,472.0,637,452,60,121.0,474,1,407,666,214,0,0,506,-9203,6274,453,-5.59,44.680092,10.017434,43.28,178.9,0,0.0,-1,0.0,0.0,0,2.26,5.9774
358664,1564237751014,1,2.22,0.95,0.3,1.3,0.96,0.69,0.95,0.39,-27,-0,-35,1.18,9610,100,93,39,85,1320,478.0,638,447,60,121.0,474,1,413,660,214,0,0,507,16648,-30159,458,-5.59,,,,,,,,,,,,
358684,1564237751034,2,2.18,0.96,0.31,1.3,0.97,0.64,0.81,0.55,-26,1,-33,1.03,9625,100,93,39,85,1368,484.0,628,428,60,121.0,474,1,413,646,214,0,0,514,-10483,-28648,458,-5.59,,,,,,,,,,,,
358704,1564237751054,2,2.18,0.96,0.31,1.3,0.97,0.55,0.74,0.46,-23,3,-33,0.92,9590,100,93,39,85,1365,487.0,634,418,60,122.0,474,1,414,631,214,0,0,520,-6656,-6528,455,-5.59,,,,,,,,,,,,
358724,1564237751074,1,2.17,0.96,0.3,1.3,0.97,0.49,0.87,0.49,-21,1,-29,1.0,9532,99,93,39,85,1319,494.0,633,421,60,122.0,474,1,417,610,214,0,0,525,-6528,6274,460,-5.59,,,,,,,,,,,,
358744,1564237751099,2,2.15,0.96,0.31,1.3,0.96,0.58,0.69,0.64,-21,0,-30,0.9,9493,38,93,39,85,1288,498.0,632,402,60,122.0,430,1,418,566,200,0,0,524,2524,-9212,477,-5.59,44.680092,10.017448,45.14,178.9,0,0.0,-1,0.0,0.0,0,2.26,5.9791
358764,1564237751119,-1,2.16,0.96,0.31,1.31,0.97,0.57,0.59,0.56,-22,-0,-29,0.82,9517,0,93,39,85,1239,503.0,635,398,60,123.0,430,1,417,563,200,0,0,520,2109,-22519,481,-5.59,,,,,,,,,,,,
358784,1564237751139,1,2.14,0.96,0.31,1.3,0.96,0.56,0.72,0.59,-20,-1,-27,0.91,9709,24,92,39,86,1228,509.0,628,397,60,123.0,430,1,409,553,200,0,0,526,10994,17136,484,-5.59,,,,,,,,,,,,
358804,1564237751159,1,2.15,0.95,0.31,1.3,0.96,0.47,0.68,0.62,-20,-0,-27,0.83,9821,38,93,39,85,1225,515.0,635,432,60,123.0,430,1,404,668,200,0,0,528,-14,-8187,492,-5.59,,,,,,,,,,,,
358824,1564237751179,1,2.16,0.96,0.3,1.3,0.96,0.51,0.72,0.72,-19,-1,-26,0.88,10016,73,93,39,85,1220,517.0,635,418,60,122.0,430,1,396,670,200,0,0,531,15679,14504,494,-5.59,,,,,,,,,,,,
358844,1564237751201,2,2.15,0.95,0.31,1.31,0.97,0.26,0.82,0.56,-18,2,-24,0.86,10273,4,93,39,84,1216,522.0,633,406,60,122.0,433,1,413,572,215,0,0,540,2524,6274,497,-5.59,44.6801,10.017464,48.34,179.0,0,0.0,-1,0.0,0.0,0,2.26,5.9807
358864,1564237751221,-0,2.16,0.96,0.3,1.3,0.96,0.15,0.84,0.47,-18,3,-24,0.86,10279,43,92,39,85,1211,526.0,638,369,60,122.0,433,1,412,557,215,0,0,544,-32248,-22359,501,-5.59,,,,,,,,,,,,
358884,1564237751241,2,2.15,0.95,0.31,1.3,0.97,0.23,0.76,0.52,-19,1,-24,0.8,10262,31,92,39,84,1206,532.0,636,345,60,123.0,433,1,414,539,215,0,0,549,14504,-28648,505,-5.59,,,,,,,,,,,,
358904,1564237751261,3,2.15,0.96,0.3,1.31,0.96,0.41,0.71,0.66,-19,1,-26,0.82,10223,0,93,39,85,1195,535.0,632,313,60,122.0,433,1,411,572,215,0,0,556,6274,-8186,507,-5.59,,,,,,,,,,,,
358924,1564237751281,1,2.14,0.95,0.31,1.3,0.97,0.56,0.65,0.79,-20,-0,-26,0.86,10080,0,92,39,85,1174,539.0,638,305,60,123.0,433,1,401,572,215,0,0,558,1780,2524,513,-5.59,,,,,,,,,,,,
358944,1564237751303,2,2.14,0.96,0.31,1.3,0.97,0.44,0.64,0.76,-20,-1,-25,0.77,10053,100,92,39,85,1155,544.0,642,305,60,122.0,493,1,399,665,254,0,0,553,1779,2104,516,-5.59,44.680107,10.017479,50.01,179.0,0,0.0,-1,0.0,0.0,0,2.26,5.9824
358964,1564237751323,1,2.14,0.96,0.3,1.3,0.96,0.54,0.68,0.82,-21,1,-26,0.87,10151,73,92,39,85,1138,543.0,640,374,60,122.0,493,1,406,557,254,0,0,553,-22519,2104,518,-5.59,,,,,,,,,,,,
358984,1564237751343,-1,2.15,0.96,0.3,1.3,0.97,0.69,0.75,0.88,-21,-3,-26,1.02,10445,13,92,39,84,1138,547.0,639,391,60,123.0,493,1,431,648,254,0,0,562,-22519,2524,520,-5.59,,,,,,,,,,,,
359004,1564237751363,2,2.15,0.95,0.3,1.31,0.96,0.66,0.82,0.85,-21,-1,-26,1.05,10689,0,92,39,84,1153,548.0,650,391,60,123.0,493,1,434,554,254,0,0,563,14504,-29984,523,-5.59,,,,,,,,,,,,
359024,1564237751383,1,2.15,0.95,0.31,1.31,0.96,0.66,0.83,0.72,-22,0,-26,1.06,10844,100,92,39,84,1169,554.0,648,423,60,122.0,493,1,440,639,254,0,0,571,-22359,19621,525,-5.59,,,,,,,,,,,,
359044,1564237751401,2,2.15,0.95,0.3,1.3,0.97,0.57,0.87,0.64,-22,-2,-26,1.04,11107,100,92,39,84,1201,560.0,653,443,60,122.0,496,1,442,620,261,0,0,576,-18032,-16179,528,-5.59,44.680111,10.017493,52.37,179.0,0,0.0,-1,0.0,0.0,0,2.27,5.9841
359064,1564237751421,1,2.15,0.96,0.29,1.31,0.96,0.64,0.88,0.77,-23,-2,-27,1.09,11329,100,92,39,84,1227,565.0,652,440,60,122.0,496,1,441,606,261,0,0,587,-30159,-2934,531,-5.59,,,,,,,,,,,,
359084,1564237751441,2,2.14,0.96,0.3,1.31,0.97,0.6,0.85,0.59,-23,-1,-27,1.05,11343,98,92,39,84,1233,569.0,657,455,60,122.0,496,1,441,648,261,0,0,596,1267,269,536,-5.59,,,,,,,,,,,,
359104,1564237751461,3,2.14,0.96,0.3,1.31,0.96,0.66,0.7,0.73,-24,1,-28,0.96,834,35,92,39,86,1230,573.0,650,458,60,122.0,496,1,90,185,261,0,0,590,1760,259,538,-5.59,,,,,,,,,,,,
359124,1564237751481,2,2.14,0.96,0.3,1.31,0.97,0.64,0.78,0.6,-24,1,-29,1.0,9978,0,92,39,86,1203,572.0,646,463,60,123.0,496,1,397,590,261,0,0,579,-8188,-22359,539,-5.59,,,,,,,,,,,,
359144,1564237751501,1,2.14,0.95,0.3,1.29,0.96,0.78,0.73,0.71,-25,-1,-29,1.06,9904,83,92,39,87,1172,568.0,643,455,60,122.0,495,1,401,588,267,0,0,573,-8186,-22519,539,-5.59,44.680122,10.017509,52.6,179.0,0,0.0,-1,0.0,0.0,0,2.27,5.9857
359164,1564237751521,3,2.14,0.95,0.3,1.3,0.95,0.9,0.68,0.84,-25,-3,-28,1.13,10439,0,92,39,85,1154,571.0,646,453,60,123.0,495,1,426,575,267,0,0,570,1267,2524,541,-5.59,,,,,,,,,,,,
359184,1564237751541,3,2.14,0.94,0.29,1.29,0.95,0.88,0.81,0.95,-24,-4,-29,1.2,11048,100,92,39,84,1140,571.0,659,445,60,122.0,495,1,443,670,267,0,0,571,-29984,-22519,540,-5.59,,,,,,,,,,,,
359204,1564237751561,6,2.14,0.95,0.29,1.3,0.96,0.93,0.85,0.74,-24,-3,-30,1.26,11496,100,92,39,84,1147,570.0,667,445,60,122.0,495,1,441,489,267,0,0,584,-3190,2048,539,-5.59,,,,,,,,,,,,
359224,1564237751581,5,2.14,0.95,0.29,1.3,0.96,0.93,0.8,0.78,-25,-4,-31,1.23,11718,100,92,39,83,1156,576.0,670,455,60,121.0,495,1,440,594,267,0,0,597,1,6208,540,-5.59,,,,,,,,,,,,
359244,1564237751601,4,2.15,0.96,0.3,1.3,0.96,0.85,0.7,0.9,-26,-3,-32,1.1,11919,96,92,39,83,1194,583.0,667,453,60,122.0,490,1,440,584,265,0,0,610,15649,-10348,541,-5.59,44.68013,10.017524,54.8,179.0,0,0.0,-1,0.0,0.0,0,2.27,5.9874
359264,1564237751621,3,2.14,0.96,0.3,1.3,0.96,0.77,0.65,1.01,-27,-0,-33,1.0,12050,64,92,39,83,1240,589.0,670,458,60,122.0,490,1,440,644,265,0,0,620,6273,-16179,543,-5.59,,,,,,,,,,,,
359284,1564237751641,2,2.15,0.95,0.3,1.3,0.96,0.68,0.64,1.1,-27,0,-34,0.94,11988,28,92,39,83,1263,594.0,667,454,60,122.0,490,1,440,534,265,0,0,632,-13043,1010,552,-5.59,,,,,,,,,,,,
359304,1564237751661,3,2.16,0.95,0.3,1.31,0.96,0.68,0.6,1.19,-28,2,-34,0.91,11988,83,92,39,82,1281,597.0,665,467,60,122.0,490,1,440,626,265,0,0,636,30227,-3038,557,-5.59,,,,,,,,,,,,
359324,1564237751681,3,2.17,0.95,0.3,1.3,0.96,0.65,0.74,0.98,-28,1,-31,0.99,10695,83,92,39,84,1242,600.0,657,460,60,123.0,490,1,433,629,265,0,0,618,-3210,-7939,557,-5.59,,,,,,,,,,,,
359344,1564237751701,1,2.16,0.96,0.29,1.31,0.95,0.51,0.87,0.7,-27,-1,-30,1.01,10504,83,92,39,84,1188,596.0,658,456,60,122.0,450,1,430,489,251,0,0,604,-16179,1760,555,-5.59,44.680141,10.017537,54.69,179.0,0,0.0,-1,0.0,0.0,0,2.27,5.9891
359364,1564237751721,2,2.17,0.95,0.3,1.29,0.96,0.43,0.96,0.5,-26,-2,-29,1.05,10533,50,92,39,85,1111,592.0,653,466,60,122.0,450,1,432,670,251,0,0,590,-28648,-8186,554,-5.59,,,,,,,,,,,,
359384,1564237751741,3,2.16,0.95,0.29,1.3,0.95,0.47,1.02,0.37,-24,-2,-29,1.12,11174,87,92,39,83,1026,590.0,660,462,60,122.0,450,1,442,621,251,0,0,591,-32504,1267,559,-5.59,,,,,,,,,,,,
359404,1564237751761,3,2.17,0.94,0.29,1.29,0.96,0.49,0.93,0.53,-23,-3,-29,1.05,11682,89,92,39,82,1029,588.0,661,458,60,122.0,450,1,440,596,251,0,0,596,6273,2048,565,-5.59,,,,,,,,,,,,
359424,1564237751781,2,2.18,0.95,0.29,1.3,0.96,0.44,0.78,0.68,-23,-4,-30,0.9,11912,90,91,39,81,1031,597.0,665,464,60,121.0,450,1,440,577,251,0,0,610,23619,6208,570,-5.59,,,,,,,,,,,,
359444,1564237751799,1,2.18,0.95,0.3,1.31,0.96,0.36,0.62,0.81,-23,-2,-32,0.72,12199,88,91,39,80,1120,603.0,670,466,60,122.0,456,1,440,551,260,0,0,625,5344,16599,570,-5.59,44.680149,10.01755,56.81,179.0,0,0.0,-1,0.0,0.0,0,2.27,5.9907
359464,1564237751819,3,2.18,0.95,0.3,1.3,0.96,0.34,0.53,0.92,-23,-2,-33,0.63,12409,0,92,39,80,1185,608.0,669,464,60,121.0,456,1,440,532,260,0,0,638,17740,-1346,575,-5.59,,,,,,,,,,,,
359484,1564237751839,3,2.18,0.95,0.3,1.3,0.97,0.38,0.61,0.91,-24,-2,-30,0.72,12400,25,91,39,80,1214,614.0,670,462,60,122.0,456,1,440,509,260,0,0,640,16529,3403,577,-5.59,,,,,,,,,,,,
359504,1564237751859,1,2.18,0.96,0.3,1.3,0.97,0.43,0.66,0.8,-24,-4,-30,0.79,12319,83,91,39,80,1226,617.0,674,468,60,122.0,456,1,440,611,260,0,0,647,3403,31988,582,-5.59,,,,,,,,,,,,
359524,1564237751879,1,2.18,0.96,0.3,1.3,0.97,0.47,0.79,0.6,-25,-6,-28,0.92,11785,82,91,39,81,1170,620.0,672,462,60,121.0,456,1,440,597,260,0,0,641,-18357,-3578,585,-5.59,,,,,,,,,,,,
359544,1564237751899,3,2.18,0.96,0.3,1.3,0.96,0.51,0.77,0.74,-25,-4,-28,0.92,11343,83,92,39,82,1091,622.0,664,473,60,122.0,431,1,442,581,254,0,0,638,17336,19621,590,-5.59,44.68016,10.017563,57.29,179.0,0,0.0,-1,0.0,0.0,0,2.27,5.9924
359564,1564237751919,3,2.19,0.95,0.31,1.3,0.97,0.47,0.76,0.47,-24,-7,-26,0.9,11200,68,91,39,81,987,621.0,661,463,60,122.0,431,1,443,555,254,0,0,632,-18357,28675,588,-5.59,,,,,,,,,,,,
359584,1564237751939,6,2.17,0.95,0.3,1.3,0.95,0.59,0.89,0.61,-23,-11,-26,1.07,11538,19,91,39,78,922,618.0,657,466,60,122.0,431,1,440,577,254,0,0,621,269,-3820,593,-5.59,,,,,,,,,,,,
359604,1564237751959,12,2.18,0.95,0.3,1.3,0.96,0.68,0.82,0.72,-23,-11,-26,1.06,11867,67,91,39,72,874,614.0,663,475,60,122.0,431,1,440,537,254,0,0,626,3403,-18357,583,-5.59,,,,,,,,,,,,
359624,1564237751979,12,2.2,0.95,0.3,1.31,0.96,0.74,0.79,0.64,-22,-11,-26,1.08,12011,60,91,39,68,869,617.0,669,467,60,122.0,431,1,440,497,254,0,0,627,3403,244,574,-5.59,,,,,,,,,,,,
359644,1564237751993,12,2.2,0.95,0.3,1.3,0.96,0.82,0.72,0.61,-21,-9,-26,1.09,11844,52,91,39,63,893,618.0,667,471,60,122.0,370,1,440,444,212,0,0,637,269,8958,575,-5.59,44.680172,10.017574,59.51,179.1,0,0.0,-1,0.0,0.0,0,2.28,5.9941
359664,1564237752013,11,2.2,0.96,0.3,1.31,0.96,0.86,0.55,0.43,-21,-6,-26,1.02,11581,44,91,39,59,916,622.0,664,466,60,122.0,370,1,428,411,212,0,0,636,17336,17336,583,-5.59,,,,,,,,,,,,
359684,1564237752033,10,2.19,0.96,0.3,1.3,0.96,0.75,0.7,0.33,-20,-2,-26,1.02,11214,17,91,39,56,959,621.0,655,461,60,122.0,370,1,413,402,212,0,0,625,-18357,-23055,588,-5.59,,,,,,,,,,,,
359704,1564237752053,9,2.2,0.96,0.3,1.31,0.97,0.85,0.49,0.33,-21,-2,-27,0.98,10901,6,91,39,54,986,618.0,655,461,60,122.0,370,1,400,330,212,0,0,619,269,-28648,590,-5.59,,,,,,,,,,,,
359724,1564237752073,7,2.19,0.96,0.3,1.31,0.96,0.96,0.56,0.49,-21,-2,-27,1.11,10744,0,91,39,53,1000,615.0,655,460,60,122.0,370,1,397,314,212,0,0,616,26688,208,588,-5.59,,,,,,,,,,,,
359744,1564237752100,9,2.19,0.96,0.3,1.31,0.96,1.0,0.57,0.59,-21,-3,-27,1.15,10515,7,91,39,52,989,614.0,655,466,60,123.0,237,1,394,344,139,0,0,609,16529,2048,583,-5.59,44.680187,10.017585,60.05,179.1,0,0.0,-1,0.0,0.0,0,2.28,5.9957
359764,1564237752120,11,2.2,0.96,0.3,1.3,0.97,1.1,0.61,0.59,-21,-4,-27,1.26,10359,36,91,39,51,967,610.0,650,463,60,122.0,237,1,391,337,139,0,0,612,17740,259,581,-5.59,,,,,,,,,,,,
359784,1564237752140,15,2.2,0.95,0.3,1.31,0.96,1.19,0.58,0.73,-21,-4,-28,1.33,10129,36,91,39,51,909,611.0,646,464,60,123.0,237,1,391,312,139,0,0,603,-23055,-3190,577,-5.59,,,,,,,,,,,,
359804,1564237752160,15,2.2,0.96,0.3,1.31,0.96,1.2,0.41,0.81,-21,-5,-28,1.27,10026,0,91,39,51,883,601.0,645,467,60,122.0,237,1,391,276,139,0,0,589,243,-22359,573,-5.59,,,,,,,,,,,,
359824,1564237752180,14,2.21,0.96,0.29,1.31,0.96,1.18,0.54,0.58,-21,-3,-27,1.3,10032,31,91,39,51,855,597.0,643,465,60,123.0,237,1,391,320,139,0,0,576,23619,-14,568,-5.59,,,,,,,,,,,,
359844,1564237752196,19,2.2,0.96,0.3,1.31,0.96,1.26,0.55,0.68,-20,-6,-27,1.38,10016,34,91,39,51,842,591.0,646,466,60,123.0,190,1,391,283,107,0,0,572,6273,10432,561,-5.59,44.680199,10.017595,59.24,179.1,0,0.0,-1,0.0,0.0,0,2.28,5.9974
359864,1564237752216,18,2.21,0.96,0.3,1.31,0.96,1.19,0.54,0.69,-20,-5,-28,1.31,9931,34,91,39,50,859,585.0,648,463,60,123.0,190,1,388,272,107,0,0,570,-1894,3571,559,-5.59,,,,,,,,,,,,
359884,1564237752236,20,2.21,0.96,0.3,1.3,0.96,1.28,0.67,0.55,-20,-4,-28,1.44,9816,35,91,39,50,875,584.0,646,461,60,123.0,190,1,388,271,107,0,0,578,-4035,-6441,555,-5.59,,,,,,,,,,,,
359904,1564237752256,17,2.21,0.96,0.3,1.3,0.96,1.27,0.55,0.65,-20,-5,-27,1.38,9664,2,91,39,49,907,576.0,648,465,60,122.0,190,1,385,259,107,0,0,573,1,-32248,546,-5.59,,,,,,,,,,,,
359924,1564237752276,15,2.21,0.96,0.3,1.31,0.96,1.26,0.64,0.54,-20,-1,-27,1.42,9858,26,91,39,48,922,570.0,653,463,60,123.0,190,1,382,177,107,0,0,559,-3190,11560,545,-5.59,,,,,,,,,,,,
359944,1564237752300,16,2.21,0.96,0.3,1.31,0.96,1.34,0.51,0.59,-20,-2,-27,1.43,10129,30,91,39,46,930,567.0,650,466,60,123.0,191,1,372,269,104,0,0,557,-2934,8488,540,-5.59,44.68021,10.017604,57.08,179.2,0,0.0,-1,0.0,0.0,0,2.28,5.9991
359964,1564237752320,15,2.2,0.96,0.3,1.3,0.96,1.28,0.39,0.66,-20,0,-27,1.34,10146,29,91,39,43,941,564.0,646,462,60,122.0,191,1,350,251,104,0,0,562,12552,16648,537,-5.59,,,,,,,,,,,,
359984,1564237752340,12,2.2,0.96,0.29,1.3,0.96,1.24,0.39,0.51,-20,-1,-27,1.3,10212,29,91,38,42,949,560.0,637,467,60,123.0,191,1,342,242,104,0,0,554,-28648,-4054,530,-5.59,,,,,,,,,,,,
360004,1564237752360,10,2.18,0.96,0.3,1.3,0.97,1.27,0.52,0.41,-21,-2,-25,1.38,10162,2,91,38,41,958,557.0,643,467,60,123.0,191,1,335,222,104,0,0,558,-22263,-28648,528,-5.59,,,,,,,,,,,,
360024,1564237752380,10,2.17,0.95,0.3,1.31,0.96,1.35,0.59,0.52,-21,-0,-25,1.47,10118,3,91,38,41,959,554.0,645,462,60,122.0,191,1,335,217,104,0,0,556,2524,6274,525,-5.59,,,,,,,,,,,,
360044,1564237752400,7,2.19,0.96,0.3,1.31,0.97,1.33,0.64,0.59,-21,-2,-25,1.47,10016,24,91,38,40,946,553.0,644,463,60,122.0,158,1,327,245,83,0,0,553,-9072,-22519,524,-5.59,44.680225,10.017612,54.68,179.2,0,0.0,-1,0.0,0.0,0,2.28,6.0007
360064,1564237752420,6,2.19,0.96,0.3,1.31,0.96,1.22,0.73,0.48,-21,-0,-25,1.43,9832,29,91,38,41,913,553.0,646,468,60,122.0,158,1,335,243,83,0,0,551,6274,1248,523,-5.59,,,,,,,,,,,,
360084,1564237752440,6,2.2,0.96,0.29,1.31,0.96,1.3,0.67,0.59,-21,-2,-25,1.47,9669,29,91,38,41,880,551.0,643,464,60,123.0,158,1,335,237,83,0,0,549,14504,1341,522,-5.59,,,,,,,,,,,,
360104,1564237752460,5,2.19,0.96,0.3,1.3,0.96,1.21,0.68,0.54,-21,-3,-25,1.39,9674,28,91,38,41,854,545.0,643,464,60,123.0,158,1,335,232,83,0,0,545,-506,26178,520,-5.59,,,,,,,,,,,,
360124,1564237752480,7,2.2,0.96,0.3,1.31,0.96,1.28,0.57,0.58,-20,-0,-25,1.4,9750,5,91,38,40,820,544.0,642,468,60,122.0,158,1,327,217,83,0,0,541,-506,1248,520,-5.59,,,,,,,,,,,,
360144,1564237752500,4,2.2,0.96,0.3,1.32,0.96,1.17,0.59,0.43,-20,-2,-25,1.31,9811,7,91,38,39,789,542.0,646,468,60,123.0,148,1,320,217,77,0,0,541,-3082,-4054,515,-5.59,44.680237,10.017618,53.15,179.2,0,0.0,-1,0.0,0.0,0,2.28,6.0024
360164,1564237752520,7,2.19,0.96,0.3,1.31,0.97,1.22,0.57,0.49,-19,-1,-24,1.34,9868,3,91,38,38,771,540.0,644,466,60,123.0,148,1,317,212,77,0,0,533,-8186,26178,515,-5.59,,,,,,,,,,,,
360184,1564237752540,5,2.19,0.96,0.3,1.31,0.97,0.95,0.6,0.36,-19,-0,-23,1.13,9989,0,91,38,38,780,537.0,638,469,60,119.0,148,1,317,208,77,0,0,539,6274,-3856,513,-5.59,,,,,,,,,,,,
360204,1564237752560,6,2.18,0.96,0.3,1.31,0.96,1.03,0.74,0.22,-18,0,-22,1.27,10037,29,91,38,38,787,535.0,641,460,60,122.0,148,1,317,238,77,0,0,532,-28648,10994,511,-5.59,,,,,,,,,,,,
360224,1564237752580,6,2.17,0.96,0.3,1.31,0.96,1.03,0.68,0.36,-18,-2,-22,1.24,10037,0,91,38,37,794,533.0,644,464,60,122.0,148,1,314,212,77,0,0,537,2104,17136,508,-5.59,,,,,,,,,,,,
360244,1564237752600,6,2.17,0.96,0.3,1.31,0.97,0.84,0.66,0.27,-18,1,-23,1.07,10113,17,91,38,37,798,533.0,642,467,60,122.0,159,1,314,212,81,0,0,528,-32248,-3414,507,-5.59,44.680248,10.017623,52.29,179.2,0,0.0,-1,0.0,0.0,0,2.28,6.0041
360264,1564237752620,7,2.16,0.96,0.29,1.31,0.96,0.84,0.78,0.09,-18,1,-22,1.15,10140,15,91,38,37,796,533.0,649,468,60,122.0,159,1,314,235,81,0,0,530,2104,11560,503,-5.59,,,,,,,,,,,,
360284,1564237752640,8,2.14,0.96,0.3,1.31,0.96,0.89,0.84,0.15,-19,-0,-21,1.22,10080,7,91,38,37,793,533.0,650,465,60,122.0,159,1,314,212,81,0,0,531,2104,15661,501,-5.59,,,,,,,,,,,,
360304,1564237752660,8,2.13,0.96,0.3,1.32,0.96,0.91,0.75,0.21,-20,3,-23,1.18,10107,27,91,38,38,797,533.0,646,470,60,123.0,159,1,317,238,81,0,0,534,2104,771,497,-5.59,,,,,,,,,,,,
360324,1564237752680,7,2.12,0.96,0.3,1.31,0.96,0.83,0.79,0.15,-20,2,-23,1.15,10021,28,91,38,38,802,528.0,646,468,60,123.0,159,1,317,234,81,0,0,531,-28648,-9216,492,-5.59,,,,,,,,,,,,
360344,1564237752700,8,2.12,0.96,0.3,1.31,0.96,0.87,0.81,0.26,-21,2,-24,1.19,9915,27,91,38,37,812,528.0,645,468,60,123.0,176,1,314,226,87,0,0,535,-28648,15679,492,-5.59,44.680264,10.017628,51.32,179.2,0,0.0,-1,0.0,0.0,0,2.29,6.0057
360364,1564237752720,6,2.12,0.96,0.3,1.31,0.96,0.84,0.85,0.26,-21,4,-25,1.19,9806,28,91,38,37,819,529.0,637,470,60,122.0,176,1,314,223,87,0,0,533,-9072,6274,488,-5.59,,,,,,,,,,,,
360384,1564237752740,8,2.1,0.95,0.3,1.31,0.97,0.83,0.88,0.28,-22,3,-25,1.21,9720,28,91,38,37,829,527.0,642,466,60,123.0,176,1,314,218,87,0,0,533,6274,16383,485,-5.59,,,,,,,,,,,,
360404,1564237752760,8,2.09,0.95,0.3,1.31,0.97,0.74,0.99,0.19,-22,3,-24,1.23,9650,27,91,38,37,835,527.0,637,459,60,122.0,176,1,314,212,87,0,0,532,-32248,-32248,485,-5.59,,,,,,,,,,,,
360424,1564237752780,8,2.09,0.96,0.3,1.31,0.96,0.85,0.91,0.26,-23,3,-26,1.25,9630,29,91,38,37,837,525.0,632,465,60,123.0,176,1,314,209,87,0,0,525,10408,17136,476,-5.59,,,,,,,,,,,,
360444,1564237752800,7,2.07,0.96,0.3,1.31,0.96,0.83,1.02,0.17,-23,2,-27,1.32,9654,28,91,38,37,836,521.0,635,462,60,123.0,159,1,314,209,76,0,0,524,-22519,17136,471,-5.59,44.680275,10.017631,50.44,179.2,0,0.0,-1,0.0,0.0,0,2.29,6.0074
360464,1564237752820,8,2.05,0.95,0.3,1.3,0.96,0.95,0.85,0.31,-24,2,-29,1.28,9635,28,91,38,37,834,520.0,637,462,60,123.0,159,1,314,209,76,0,0,526,2524,2109,476,-5.59,,,,,,,,,,,,
360484,1564237752840,8,2.03,0.96,0.3,1.31,0.97,0.88,0.96,0.27,-25,2,-29,1.3,9615,20,91,38,37,832,521.0,652,465,60,123.0,159,1,314,209,76,0,0,523,1248,-28648,466,-5.59,,,,,,,,,,,,
360504,1564237752860,8,2.02,0.95,0.29,1.31,0.97,0.83,1.03,0.3,-25,2,-29,1.32,9551,7,91,38,37,832,518.0,642,459,60,123.0,159,1,314,209,76,0,0,519,1341,-32248,455,-5.59,,,,,,,,,,,,
360524,1564237752880,10,2.0,0.95,0.3,1.3,0.97,0.91,0.98,0.39,-26,1,-32,1.34,9546,28,91,38,37,832,515.0,638,464,60,123.0,159,1,314,229,76,0,0,521,-14,2524,449,-5.59,,,,,,,,,,,,
360544,1564237752900,10,1.97,0.95,0.3,1.31,0.96,0.88,1.08,0.24,-27,1,-31,1.39,9571,28,91,38,37,843,514.0,648,461,60,122.0,187,1,314,227,83,0,0,522,17136,-21872,438,-5.59,44.68029,10.017632,50.15,179.2,0,0.0,-1,0.0,0.0,0,2.29,6.0091
360564,1564237752920,11,1.95,0.96,0.3,1.31,0.96,0.95,0.97,0.33,-28,1,-33,1.36,9561,28,91,38,37,854,510.0,638,461,60,123.0,187,1,314,223,83,0,0,520,-4054,-4054,428,-5.59,,,,,,,,,,,,
360584,1564237752940,14,1.94,0.95,0.3,1.31,0.96,0.97,1.0,0.32,-29,-0,-35,1.39,9537,25,91,38,37,873,508.0,641,463,60,123.0,187,1,314,218,83,0,0,515,-3414,10994,418,-5.59,,,,,,,,,,,,
360604,1564237752960,13,1.94,0.95,0.3,1.31,0.97,0.92,1.1,0.12,-29,-1,-35,1.43,9517,28,91,38,37,884,502.0,640,458,60,122.0,187,1,314,214,83,0,0,510,15661,3,409,-5.59,,,,,,,,,,,,
360624,1564237752980,16,1.91,0.96,0.3,1.32,0.96,1.02,0.92,0.31,-30,-2,-38,1.37,9493,28,91,38,37,904,496.0,635,461,60,123.0,187,1,314,208,83,0,0,510,3,-3856,387,-5.59,,,,,,,,,,,,
360644,1564237752994,18,1.92,0.96,0.3,1.31,0.96,1.07,0.94,0.33,-31,-2,-39,1.43,9469,27,91,38,37,916,489.0,635,462,60,123.0,198,1,314,207,75,0,0,510,-6656,26178,374,-5.59,44.680302,10.017632,48.65,179.2,0,0.0,-1,0.0,0.0,0,2.29,6.0107
360664,1564237753014,15,1.92,0.96,0.3,1.31,0.97,0.96,1.05,0.16,-31,-0,-39,1.42,9479,27,91,38,37,928,490.0,635,469,60,122.0,198,1,314,207,75,0,0,509,-6656,2109,358,-5.59,,,,,,,,,,,,
360684,1564237753034,17,1.91,0.95,0.3,1.31,0.96,1.05,0.92,0.25,-32,-2,-42,1.39,9455,28,91,38,37,929,484.0,638,462,60,123.0,198,1,314,207,75,0,0,502,-10483,6274,335,-5.59,,,,,,,,,,,,
360704,1564237753054,14,1.91,0.95,0.3,1.31,0.96,1.15,0.91,0.35,-33,-3,-44,1.46,9407,28,91,38,37,928,484.0,637,462,60,123.0,198,1,314,207,75,0,0,499,-10483,2109,322,-5.59,,,,,,,,,,,,
360724,1564237753074,9,1.9,0.95,0.29,1.31,0.96,1.06,1.02,0.16,-32,-2,-43,1.47,9370,28,91,38,37,926,483.0,641,465,60,124.0,198,1,314,207,75,0,0,497,-899,-4054,308,-5.59,,,,,,,,,,,,
360744,1564237753099,3,1.91,0.95,0.31,1.31,0.96,0.84,1.12,0.03,-32,-1,-42,1.4,9305,29,91,38,37,922,484.0,640,462,60,122.0,236,1,314,206,73,0,0,494,-6441,2109,315,-5.59,44.680313,10.017632,47.42,179.1,0,0.0,-1,0.0,0.0,0,2.29,6.0124
360764,1564237753119,1,1.92,0.95,0.31,1.31,0.96,0.89,0.95,0.15,-33,-0,-43,1.3,9259,28,91,38,37,919,490.0,635,464,60,123.0,236,1,314,206,73,0,0,499,-1818,998,342,-5.59,,,,,,,,,,,,
360784,1564237753139,2,1.92,0.95,0.3,1.31,0.97,0.95,0.71,0.33,-35,1,-46,1.18,9222,28,91,38,37,918,490.0,633,460,60,123.0,236,1,314,205,73,0,0,501,-1818,2524,381,-5.59,,,,,,,,,,,,
360804,1564237753159,2,1.92,0.95,0.3,1.3,0.97,1.03,0.69,0.42,-36,1,-48,1.24,9204,28,91,38,37,926,488.0,629,468,60,124.0,236,1,314,205,73,0,0,498,1,-32768,395,-5.59,,,,,,,,,,,,
360824,1564237753179,2,1.92,0.95,0.3,1.3,0.97,1.08,0.82,0.35,-36,-0,-47,1.36,9177,29,91,38,37,931,487.0,632,464,60,123.0,236,1,314,208,73,0,0,493,-6441,-6656,418,-5.59,,,,,,,,,,,,
360844,1564237753199,3,1.91,0.95,0.3,1.31,0.96,0.9,0.94,0.13,-35,1,-44,1.3,9128,28,91,38,37,943,487.0,628,464,60,123.0,169,1,314,207,72,0,0,492,505,505,427,-5.59,44.680325,10.017629,45.84,179.1,0,0.0,-1,0.0,0.0,0,2.29,6.0141
360864,1564237753219,-2,1.92,0.96,0.31,1.3,0.97,0.81,1.05,-0.05,-35,-0,-42,1.33,9115,28,91,38,38,952,484.0,628,460,60,123.0,169,1,317,207,72,0,0,491,-10483,248,429,-5.59,,,,,,,,,,,,
360884,1564237753239,-0,1.92,0.95,0.3,1.31,0.97,0.6,1.15,-0.1,-33,1,-41,1.29,9164,28,91,38,38,968,480.0,626,450,60,123.0,169,1,317,207,72,0,0,490,8488,-32248,431,-5.59,,,,,,,,,,,,
360904,1564237753259,0,1.91,0.96,0.3,1.3,0.97,0.54,1.22,-0.01,-32,0,-43,1.33,9182,29,91,38,38,984,479.0,630,448,60,123.0,169,1,317,208,72,0,0,484,32033,3,433,-5.59,,,,,,,,,,,,
360924,1564237753279,0,1.91,0.93,0.3,1.3,0.96,0.53,1.04,0.11,-32,1,-44,1.16,9218,28,90,38,38,988,477.0,635,456,60,123.0,169,1,317,208,72,0,0,489,2212,6274,435,-5.59,,,,,,,,,,,,
360944,1564237753299,2,1.91,0.95,0.31,1.3,0.97,0.59,0.81,0.28,-32,-0,-46,1.0,9227,21,90,38,38,995,482.0,633,447,60,122.0,165,1,317,208,72,0,0,486,-899,8488,434,-5.59,44.680332,10.017624,45.37,179.1,0,0.0,-1,0.0,0.0,0,2.29,6.0157
360964,1564237753319,2,1.92,0.95,0.3,1.3,0.97,0.73,0.63,0.41,-34,1,-47,0.96,9195,15,90,38,38,1018,479.0,635,454,60,123.0,165,1,317,204,72,0,0,488,8488,16408,436,-5.59,,,,,,,,,,,,
360984,1564237753339,3,1.93,0.95,0.3,1.31,0.97,0.79,0.6,0.39,-35,1,-47,0.99,9097,24,91,38,38,1031,482.0,635,448,60,123.0,165,1,317,229,72,0,0,487,-899,248,437,-5.59,,,,,,,,,,,,
361004,1564237753359,2,1.95,0.96,0.3,1.31,0.96,0.91,0.7,0.22,-35,-1,-46,1.15,9049,23,91,38,38,1047,483.0,626,457,60,124.0,165,1,317,232,72,0,0,488,3580,-21872,436,-5.59,,,,,,,,,,,,
361024,1564237753379,1,1.97,0.95,0.31,1.31,0.96,0.96,0.81,0.12,-34,-3,-45,1.26,9075,39,90,38,40,1060,481.0,623,453,60,124.0,165,1,326,234,72,0,0,484,32033,1,437,-5.59,,,,,,,,,,,,
361044,1564237753399,2,1.98,0.96,0.3,1.31,0.97,1.01,0.93,0.03,-34,-5,-43,1.37,9106,53,90,38,45,1074,480.0,624,451,60,124.0,185,1,359,245,81,0,0,485,10305,10432,437,-5.59,44.680347,10.017618,45.27,179.0,0,0.0,-1,0.0,0.0,0,2.3,6.0174
361064,1564237753419,2,2.0,0.95,0.3,1.31,0.97,0.94,1.04,-0.06,-33,-4,-42,1.4,9036,67,90,38,53,1085,485.0,627,432,60,123.0,185,1,395,296,81,0,0,487,-6441,-9203,437,-5.59,,,,,,,,,,,,
361084,1564237753439,3,2.01,0.95,0.3,1.31,0.97,0.91,1.14,-0.05,-33,-4,-42,1.46,8915,77,90,38,64,1088,485.0,621,426,60,123.0,185,1,410,402,81,0,0,488,-6441,-23367,439,-5.59,,,,,,,,,,,,
361104,1564237753459,1,2.03,0.96,0.3,1.3,0.96,0.92,1.23,-0.07,-33,-4,-42,1.53,8827,40,90,38,76,1090,486.0,615,436,60,123.0,185,1,418,436,81,0,0,487,-10483,17628,439,-5.59,,,,,,,,,,,,
361124,1564237753479,2,2.04,0.95,0.3,1.31,0.97,1.03,1.07,0.02,-33,-6,-43,1.49,8827,83,90,38,84,1095,484.0,609,447,60,123.0,185,1,422,651,81,0,0,483,-10483,-9160,438,-5.59,,,,,,,,,,,,
361144,1564237753499,1,2.06,0.95,0.31,1.31,0.97,1.1,0.97,0.06,-33,-6,-44,1.47,8882,100,90,38,86,1098,484.0,611,431,60,122.0,498,1,421,514,219,0,0,484,-10483,-9160,437,-5.59,44.680355,10.017612,45.37,179.0,0,0.0,-1,0.0,0.0,0,2.3,6.0191
361164,1564237753519,2,2.08,0.95,0.3,1.31,0.97,1.19,0.72,0.22,-33,-5,-45,1.39,9245,100,90,38,86,1103,482.0,618,438,60,123.0,498,1,418,662,219,0,0,483,-899,-18108,439,-5.59,,,,,,,,,,,,
361184,1564237753539,3,2.12,0.96,0.3,1.31,0.97,1.16,0.74,0.24,-32,-3,-45,1.37,9566,100,90,38,86,1106,482.0,633,450,60,123.0,498,1,416,648,219,0,0,489,-10483,-14,442,-5.59,,,,,,,,,,,,
361204,1564237753559,2,2.19,0.96,0.3,1.31,0.97,0.98,0.87,0.1,-30,-3,-44,1.31,9894,100,90,38,85,1172,484.0,636,459,60,122.0,498,1,400,620,219,0,0,500,-10483,1780,448,-5.59,,,,,,,,,,,,
361224,1564237753579,1,2.24,0.96,0.3,1.32,0.98,0.82,0.84,0.12,-28,-4,-44,1.17,10257,70,90,38,84,1238,489.0,636,461,60,122.0,498,1,412,539,219,0,0,516,-6656,-8186,452,-5.59,,,,,,,,,,,,
361244,1564237753599,1,2.29,0.96,0.31,1.32,0.98,0.76,0.93,0.16,-25,-2,-42,1.2,10347,0,90,38,85,1299,491.0,647,470,60,122.0,461,1,417,557,210,0,0,550,248,-3414,460,-5.59,44.680366,10.017603,45.25,179.0,0,0.0,-1,0.0,0.0,0,2.3,6.0207
361264,1564237753619,2,2.33,0.96,0.3,1.33,0.97,0.74,0.98,0.25,-23,0,-39,1.22,10330,57,90,38,85,1360,492.0,646,470,60,121.0,461,1,418,644,210,0,0,553,771,-32248,468,-5.59,,,,,,,,,,,,
361284,1564237753639,-0,2.36,0.97,0.31,1.32,0.97,0.59,1.01,0.3,-21,3,-36,1.17,9610,100,90,38,86,1365,496.0,633,453,60,121.0,461,1,414,661,210,0,0,539,3,2524,479,-5.59,,,,,,,,,,,,
361304,1564237753659,2,2.37,0.96,0.3,1.32,0.98,0.46,0.9,0.34,-19,6,-33,1.01,9053,100,90,39,87,1373,493.0,627,458,60,122.0,461,1,418,670,210,0,0,507,-6528,10994,489,-5.59,,,,,,,,,,,,
361324,1564237753679,1,2.38,0.97,0.32,1.33,0.99,0.38,0.69,0.35,-17,5,-31,0.79,8856,97,90,39,88,1333,492.0,607,461,60,122.0,461,1,423,667,210,0,0,505,-32768,10994,491,-5.59,,,,,,,,,,,,
361344,1564237753700,0,2.38,0.97,0.31,1.33,0.98,0.43,0.46,0.41,-14,2,-30,0.63,9305,100,90,39,86,1291,492.0,611,458,60,122.0,447,1,418,627,220,0,0,498,248,15661,492,-5.59,44.680374,10.017592,46.62,178.9,0,0.0,-1,0.0,0.0,0,2.3,6.0224
361364,1564237753720,3,2.39,0.97,0.31,1.33,0.99,0.59,0.32,0.55,-11,-0,-28,0.67,9745,100,90,39,86,1272,495.0,621,460,60,121.0,447,1,408,620,220,0,0,505,-1818,-3414,495,-5.59,,,,,,,,,,,,
361384,1564237753740,1,2.4,0.97,0.31,1.33,0.99,0.62,0.21,0.69,-8,-0,-26,0.66,10102,100,90,39,85,1272,503.0,633,466,60,122.0,447,1,402,586,220,0,0,527,771,15679,503,-5.59,,,,,,,,,,,,
361404,1564237753760,-0,2.41,0.97,0.31,1.33,0.99,0.52,0.06,0.64,-6,0,-23,0.52,9878,100,90,39,85,1299,511.0,635,466,60,122.0,447,1,397,571,220,0,0,572,-9216,14504,511,-5.59,,,,,,,,,,,,
361424,1564237753780,3,2.41,0.97,0.31,1.33,0.99,0.64,-0.09,0.72,-4,2,-20,0.64,9755,100,90,39,86,1369,516.0,628,462,60,122.0,447,1,407,584,220,0,0,554,2524,6274,516,-5.59,,,,,,,,,,,,
361444,1564237753799,1,2.42,0.98,0.31,1.33,0.98,0.48,-0.12,0.57,-2,5,-15,0.49,9664,100,90,39,87,1389,519.0,625,462,60,122.0,416,1,412,596,216,0,0,503,10408,-9212,519,-5.59,44.680382,10.017581,49.63,178.9,0,0.0,-1,0.0,0.0,0,2.3,6.0241
361464,1564237753819,3,2.43,0.98,0.31,1.33,0.98,0.54,-0.16,0.56,0,4,-12,0.57,10026,100,90,39,86,1406,522.0,625,460,60,122.0,416,1,397,572,216,0,0,513,11560,-22519,522,-5.59,,,,,,,,,,,,
361484,1564237753839,3,2.43,0.97,0.31,1.33,0.99,0.53,-0.34,0.62,2,6,-10,0.63,10364,96,90,39,85,1383,521.0,625,463,60,121.0,416,1,421,572,216,0,0,530,6274,-28648,521,-5.59,,,,,,,,,,,,
361504,1564237753859,2,2.44,0.97,0.31,1.33,0.99,0.52,-0.51,0.76,4,6,-9,0.73,10434,100,90,39,85,1351,526.0,628,461,60,122.0,416,1,426,572,216,0,0,571,10994,-28648,526,-5.59,,,,,,,,,,,,
361524,1564237753879,1,2.43,0.97,0.31,1.33,0.99,0.58,-0.66,0.88,4,6,-7,0.87,10575,100,90,39,84,1322,532.0,637,459,60,122.0,416,1,431,554,216,0,0,574,10994,2104,532,-5.59,,,,,,,,,,,,
361544,1564237753899,0,2.43,0.97,0.31,1.33,0.99,0.55,-0.79,0.99,5,8,-5,0.96,10647,88,90,39,84,1313,533.0,639,468,60,121.0,414,1,433,539,222,0,0,549,26178,1780,533,-5.59,44.680389,10.01757,50.27,178.8,0,0.0,-1,0.0,0.0,0,2.3,6.0257
361564,1564237753919,3,2.42,0.97,0.31,1.34,0.99,0.52,-0.89,1.05,6,8,-3,1.03,10296,9,90,39,85,1316,541.0,633,460,60,122.0,414,1,416,670,222,0,0,561,16383,-23623,541,-5.59,,,,,,,,,,,,
361584,1564237753939,3,2.42,0.98,0.31,1.33,0.99,0.43,-0.9,1.01,7,8,-1,1.0,9679,100,90,39,87,1349,541.0,630,473,60,122.0,414,1,411,678,222,0,0,542,-22519,2524,541,-5.59,,,,,,,,,,,,
361604,1564237753959,2,2.42,0.98,0.31,1.33,0.99,0.42,-0.85,0.89,7,7,1,0.95,9605,100,90,39,87,1372,541.0,622,463,60,121.0,414,1,415,671,222,0,0,532,-22519,-22519,541,-5.59,,,,,,,,,,,,
361624,1564237753979,3,2.41,0.97,0.31,1.33,0.99,0.57,-0.83,0.82,7,4,2,1.01,9735,100,90,39,87,1371,538.0,623,467,60,122.0,414,1,409,660,222,0,0,528,-32248,1779,538,-5.59,,,,,,,,,,,,
361644,1564237753993,1,2.41,0.97,0.31,1.33,0.99,0.66,-0.94,0.91,7,-0,3,1.15,10434,100,90,39,85,1362,538.0,632,461,60,120.0,455,1,426,508,246,0,0,532,-22519,-506,538,-5.59,44.680405,10.017558,52.09,178.8,0,0.0,-1,0.0,0.0,0,2.3,6.0274
361664,1564237754013,-0,2.41,0.97,0.31,1.33,0.99,0.59,-1.04,1.01,8,2,3,1.2,10888,100,90,39,85,1328,542.0,638,465,60,120.0,455,1,441,596,246,0,0,553,2088,-22519,542,-5.59,,,,,,,,,,,,
361684,1564237754033,1,2.41,0.97,0.31,1.34,0.98,0.69,-0.75,0.95,8,2,6,1.02,11207,100,90,39,84,1306,545.0,647,467,60,121.0,455,1,442,558,246,0,0,624,2524,259,545,-5.59,,,,,,,,,,,,
361704,1564237754053,-1,2.41,0.97,0.31,1.33,0.98,0.65,-0.87,0.97,8,2,6,1.09,11467,100,90,39,84,1312,552.0,652,469,60,121.0,455,1,441,554,246,0,0,622,2104,2048,552,-5.59,,,,,,,,,,,,
361724,1564237754073,3,2.4,0.98,0.31,1.34,0.98,0.58,-0.8,0.91,9,5,8,0.99,11631,83,90,39,83,1321,558.0,656,471,60,122.0,455,1,440,524,246,0,0,577,-30064,30227,558,-5.59,,,,,,,,,,,,
361744,1564237754100,2,2.41,0.97,0.31,1.33,0.98,0.51,-0.59,1.01,11,10,10,0.78,11545,89,90,39,83,1374,565.0,653,460,60,121.0,410,1,440,521,230,0,0,586,-506,19304,565,-5.59,44.680412,10.017549,53.25,178.7,0,0.0,-1,0.0,0.0,0,2.3,6.0291
361764,1564237754120,-0,2.41,0.97,0.31,1.34,0.98,0.57,-0.73,1.11,12,12,9,0.93,11343,99,90,39,83,1390,570.0,655,458,60,121.0,410,1,441,616,230,0,0,633,14504,-7939,574,-5.59,,,,,,,,,,,,
361784,1564237754140,3,2.4,0.97,0.31,1.33,0.98,0.53,-0.67,0.8,13,10,11,0.85,11268,74,90,39,83,1337,578.0,657,462,60,121.0,410,1,441,521,230,0,0,631,-9072,1010,578,-5.59,,,,,,,,,,,,
361804,1564237754160,2,2.4,0.97,0.31,1.33,0.98,0.57,-0.77,0.91,13,8,11,0.96,11322,59,90,39,83,1305,578.0,656,459,60,122.0,410,1,441,648,230,0,0,587,2216,-28304,580,-5.59,,,,,,,,,,,,
361824,1564237754180,2,2.39,0.97,0.31,1.34,0.98,0.52,-0.67,0.79,12,6,12,0.85,11329,64,90,39,84,1221,585.0,653,466,60,121.0,410,1,441,554,230,0,0,610,2211,-28304,585,-5.59,,,,,,,,,,,,
361844,1564237754200,2,2.39,0.97,0.3,1.33,0.98,0.46,-0.8,0.9,12,6,12,0.92,11343,100,90,39,83,1115,587.0,658,468,60,121.0,472,1,441,621,276,0,0,611,-8188,19304,591,-5.59,44.680424,10.017538,54.51,178.6,0,0.0,-1,0.0,0.0,0,2.31,6.0307
361864,1564237754220,3,2.39,0.96,0.31,1.34,0.99,0.41,-0.77,0.65,12,4,12,0.87,11425,93,90,39,83,1028,591.0,651,467,60,121.0,472,1,441,539,276,0,0,618,-8188,-16883,591,-5.59,,,,,,,,,,,,
361884,1564237754240,1,2.39,0.97,0.31,1.34,0.98,0.5,-0.49,0.72,12,2,14,0.7,11588,100,90,39,83,959,596.0,653,466,60,121.0,472,1,440,537,276,0,0,625,30208,269,598,-5.59,,,,,,,,,,,,
361904,1564237754260,2,2.38,0.96,0.31,1.34,0.98,0.58,-0.56,0.84,12,-0,14,0.81,11762,100,90,39,83,958,600.0,650,468,60,121.0,472,1,440,542,276,0,0,636,-4035,20993,600,-5.59,,,,,,,,,,,,
361924,1564237754280,2,2.37,0.97,0.3,1.34,0.98,0.65,-0.71,0.92,11,0,14,0.96,11897,100,90,39,83,954,608.0,667,468,60,121.0,472,1,440,546,276,0,0,640,2048,-2836,608,-5.59,,,,,,,,,,,,
361944,1564237754300,2,2.38,0.97,0.31,1.34,0.98,0.68,-0.83,0.86,10,1,13,1.07,12034,100,90,39,83,948,612.0,667,464,60,122.0,411,1,440,550,249,0,0,624,17344,11566,610,-5.59,44.680435,10.017528,57.49,178.6,0,0.0,-1,0.0,0.0,0,2.31,6.0324
361964,1564237754320,2,2.38,0.97,0.31,1.33,0.98,0.73,-0.95,0.85,10,2,12,1.2,12112,100,90,39,83,939,614.0,665,467,60,121.0,411,1,440,550,249,0,0,641,23619,-30207,614,-5.59,,,,,,,,,,,,
361984,1564237754340,2,2.37,0.97,0.31,1.33,0.98,0.82,-1.02,0.96,10,3,11,1.31,12175,100,90,39,83,932,621.0,658,466,60,121.0,411,1,440,550,249,0,0,653,-7939,4909,621,-5.59,,,,,,,,,,,,
362004,1564237754360,2,2.37,0.97,0.31,1.34,0.98,0.89,-0.95,1.06,10,4,11,1.3,12159,98,90,39,83,922,626.0,652,468,60,120.0,411,1,440,634,249,0,0,652,-30139,-30207,626,-5.59,,,,,,,,,,,,
362024,1564237754380,3,2.37,0.97,0.31,1.33,0.99,0.93,-0.7,1.15,10,5,14,1.16,12183,80,90,39,83,909,629.0,662,466,60,121.0,411,1,440,550,249,0,0,661,19304,-26380,630,-5.59,,,,,,,,,,,,
362044,1564237754400,2,2.38,0.97,0.31,1.34,0.98,0.89,-0.43,1.12,10,3,15,0.99,12230,100,90,39,83,888,634.0,662,469,60,120.0,462,1,440,644,292,0,0,650,-18357,-388,634,-5.59,44.680447,10.017518,59.93,178.5,0,0.0,-1,0.0,0.0,0,2.31,6.0341
362064,1564237754420,2,2.37,0.97,0.31,1.34,0.98,0.83,-0.21,1.04,10,1,16,0.85,12238,100,90,39,83,878,638.0,650,460,60,120.0,462,1,440,634,292,0,0,664,-18357,-388,637,-5.59,,,,,,,,,,,,
362084,1564237754440,2,2.38,0.97,0.31,1.33,0.99,0.76,-0.25,1.02,9,0,15,0.8,12278,100,90,39,83,868,641.0,662,470,60,121.0,462,1,440,644,292,0,0,650,-16046,-10344,641,-5.59,,,,,,,,,,,,
362104,1564237754460,3,2.37,0.96,0.31,1.34,0.98,0.69,-0.43,1.03,8,1,13,0.81,12409,100,90,39,83,849,644.0,661,467,60,120.0,462,1,440,625,292,0,0,672,-2836,-26380,646,-5.59,,,,,,,,,,,,
362124,1564237754480,3,2.37,0.97,0.31,1.34,0.99,0.6,-0.58,1.13,8,1,12,0.84,12392,100,90,39,83,835,647.0,664,466,60,121.0,462,1,440,606,292,0,0,668,-10251,-388,649,-5.59,,,,,,,,,,,,
362144,1564237754502,1,2.37,0.97,0.31,1.34,0.98,0.58,-0.54,1.15,7,-0,13,0.79,12491,99,90,39,83,823,651.0,660,466,60,121.0,432,1,440,587,281,0,0,669,-3584,3543,655,-5.59,44.680462,10.017508,62.26,178.5,0,0.0,-1,0.0,0.0,0,2.31,6.0357
362164,1564237754522,1,2.38,0.97,0.31,1.33,0.99,0.6,-0.47,0.97,8,-2,14,0.76,12626,100,90,39,83,813,655.0,673,460,60,120.0,432,1,440,568,281,0,0,676,11776,-3578,655,-5.59,,,,,,,,,,,,
362184,1564237754542,3,2.38,0.97,0.31,1.34,0.99,0.57,-0.44,1.07,8,-2,13,0.72,12634,100,90,39,83,802,659.0,671,463,60,120.0,432,1,440,550,281,0,0,678,4909,-10344,658,-5.59,,,,,,,,,,,,
362204,1564237754562,1,2.38,0.97,0.31,1.33,0.98,0.66,-0.57,1.05,8,-4,12,0.87,12651,100,90,39,83,788,659.0,673,460,60,120.0,432,1,440,550,281,0,0,679,24583,-10344,665,-5.59,,,,,,,,,,,,
362224,1564237754582,2,2.39,0.97,0.31,1.34,0.98,0.6,-0.46,1.04,8,-5,13,0.76,12860,100,90,39,83,777,668.0,670,465,60,120.0,432,1,440,550,281,0,0,683,24583,3543,668,-5.59,,,,,,,,,,,,
362244,1564237754602,2,2.38,0.98,0.31,1.34,0.99,0.61,-0.58,1.09,8,-4,12,0.85,12966,95,90,39,83,773,672.0,670,465,60,121.0,403,1,440,550,269,0,0,688,8958,6208,672,-5.59,44.680477,10.017498,64.03,178.5,0,0.0,-1,0.0,0.0,0,2.31,6.0374
362264,1564237754622,2,2.39,0.97,0.31,1.34,0.99,0.64,-0.32,0.97,8,-5,14,0.72,13011,100,90,39,83,765,673.0,669,470,60,121.0,403,1,440,550,269,0,0,699,-3038,11576,673,-5.59,,,,,,,,,,,,
362284,1564237754642,3,2.39,0.97,0.31,1.33,0.99,0.6,-0.49,1.07,8,-4,13,0.78,13066,100,90,39,83,759,677.0,673,466,60,120.0,403,1,440,550,269,0,0,702,-27404,6208,677,-5.59,,,,,,,,,,,,
362304,1564237754662,2,2.38,0.97,0.31,1.33,0.99,0.57,-0.39,1.01,8,-3,13,0.69,13139,100,90,39,83,756,678.0,671,462,60,121.0,403,1,440,550,269,0,0,701,-2830,-3584,683,-5.59,,,,,,,,,,,,
362324,1564237754682,2,2.39,0.97,0.31,1.34,0.99,0.64,-0.48,1.08,8,-3,12,0.8,13130,100,90,39,83,755,685.0,677,461,60,121.0,403,1,440,550,269,0,0,705,-3038,16599,684,-5.59,,,,,,,,,,,,
362344,1564237754702,1,2.39,0.97,0.31,1.34,0.98,0.57,-0.39,1.02,8,-2,13,0.69,13241,96,90,39,83,754,687.0,681,462,60,121.0,398,1,440,550,274,0,0,705,-10344,-13072,687,-5.59,44.680492,10.017488,65.84,178.5,0,0.0,-1,0.0,0.0,0,2.31,6.0391
362364,1564237754722,4,2.39,0.98,0.31,1.34,0.99,0.6,-0.32,1.06,9,-1,14,0.69,13232,86,90,39,83,753,690.0,677,464,60,120.0,398,1,440,629,274,0,0,719,-26892,-13312,693,-5.59,,,,,,,,,,,,
362384,1564237754742,5,2.38,0.97,0.3,1.33,0.99,0.57,-0.49,1.14,8,1,12,0.75,13260,76,90,39,80,752,695.0,671,473,60,120.0,398,1,440,586,274,0,0,707,16118,16118,695,-5.59,,,,,,,,,,,,
362404,1564237754762,6,2.38,0.97,0.31,1.34,0.99,0.56,-0.44,1.01,9,1,13,0.72,13075,67,90,39,76,751,695.0,673,465,60,121.0,398,1,440,536,274,0,0,712,16118,-12152,695,-5.59,,,,,,,,,,,,
362424,1564237754782,6,2.38,0.97,0.31,1.33,0.99,0.66,-0.44,1.05,9,-2,13,0.79,12643,60,90,39,71,751,699.0,672,457,60,120.0,398,1,440,476,274,0,0,702,-10344,-3584,695,-5.59,,,,,,,,,,,,
362444,1564237754802,4,2.38,0.97,0.3,1.33,0.99,0.73,-0.59,0.94,8,-4,12,0.94,12500,56,90,39,66,751,698.0,675,456,60,120.0,306,1,440,436,214,0,0,688,-2345,6208,698,-5.59,44.680508,10.017479,67.3,178.5,0,0.0,-1,0.0,0.0,0,2.32,6.0407
362464,1564237754822,5,2.38,0.97,0.31,1.33,0.98,0.7,-0.58,0.95,9,-3,13,0.91,12343,51,90,39,63,751,694.0,667,465,60,121.0,306,1,440,411,214,0,0,680,-2345,24845,693,-5.59,,,,,,,,,,,,
362484,1564237754842,6,2.39,0.97,0.31,1.33,0.99,0.65,-0.41,0.94,9,-3,13,0.77,12207,45,90,39,59,752,692.0,668,468,60,121.0,306,1,428,391,214,0,0,667,-2345,24,693,-5.59,,,,,,,,,,,,
362504,1564237754862,6,2.39,0.97,0.3,1.33,0.98,0.6,-0.23,0.84,9,-2,14,0.64,12120,43,90,39,57,755,691.0,663,467,60,121.0,306,1,417,367,214,0,0,661,-10346,-10399,691,-5.59,,,,,,,,,,,,
362524,1564237754882,7,2.38,0.97,0.3,1.34,0.98,0.5,-0.05,0.75,10,-1,15,0.51,11957,42,90,39,54,768,691.0,661,467,60,121.0,306,1,400,348,214,0,0,668,-10344,-2345,691,-5.59,,,,,,,,,,,,
362544,1564237754902,6,2.38,0.97,0.31,1.34,0.98,0.45,0.11,0.73,10,3,16,0.46,11822,42,90,39,53,784,692.0,660,470,60,121.0,221,1,397,325,153,0,0,664,-10344,11576,692,-5.59,44.680523,10.01747,68.68,178.5,0,0.0,-1,0.0,0.0,0,2.32,6.0424
362564,1564237754922,6,2.38,0.98,0.31,1.32,0.99,0.48,0.17,0.78,10,4,16,0.51,11667,40,90,39,53,796,689.0,657,468,60,122.0,221,1,397,321,153,0,0,655,-388,16118,689,-5.59,,,,,,,,,,,,
362584,1564237754942,5,2.37,0.98,0.31,1.33,0.98,0.58,-0.02,0.8,11,2,13,0.58,11602,40,90,39,53,813,685.0,658,467,60,122.0,221,1,397,321,153,0,0,622,-2830,24583,685,-5.59,,,,,,,,,,,,
362604,1564237754962,3,2.36,0.97,0.3,1.33,0.98,0.69,-0.18,0.53,10,0,14,0.72,11638,41,90,39,53,832,684.0,661,464,60,121.0,221,1,397,321,153,0,0,602,-2826,4909,682,-5.59,,,,,,,,,,,,
362624,1564237754982,4,2.36,0.98,0.3,1.34,0.98,0.73,-0.13,0.34,9,-1,15,0.74,11617,41,90,39,53,855,679.0,668,465,60,121.0,221,1,397,321,153,0,0,589,-2826,-2830,681,-5.59,,,,,,,,,,,,
362644,1564237754996,3,2.36,0.98,0.3,1.33,0.98,0.79,-0.13,0.4,9,-2,16,0.8,11631,40,90,39,52,867,677.0,663,463,60,121.0,198,1,394,308,135,0,0,604,-10348,11566,677,-5.59,44.680538,10.017463,67.99,178.5,0,0.0,-1,0.0,0.0,0,2.32,6.0441
362664,1564237755016,2,2.33,0.97,0.29,1.33,0.97,0.88,-0.25,0.56,9,-4,15,0.91,11609,39,90,39,52,883,677.0,663,465,60,120.0,198,1,394,308,135,0,0,598,-3038,24583,677,-5.59,,,,,,,,,,,,
362684,1564237755036,4,2.34,0.97,0.31,1.34,0.97,0.95,-0.25,0.33,8,-1,14,0.98,11602,38,90,39,52,900,674.0,658,463,60,122.0,198,1,394,308,135,0,0,618,-388,31988,674,-5.59,,,,,,,,,,,,
362704,1564237755056,2,2.34,0.97,0.3,1.33,0.98,0.93,-0.08,0.29,8,-2,15,0.93,11588,38,90,39,52,914,666.0,658,461,60,120.0,198,1,394,307,135,0,0,639,-3488,-8429,664,-5.59,,,,,,,,,,,,
362724,1564237755076,3,2.32,0.98,0.31,1.34,0.98,0.94,-0.27,0.45,8,-1,13,0.98,11559,38,90,38,52,918,660.0,660,465,60,121.0,198,1,394,307,135,0,0,637,-3488,-2836,659,-5.59,,,,,,,,,,,,
362744,1564237755101,-0,2.32,0.97,0.3,1.33,0.98,0.96,-0.44,0.37,6,-1,11,1.05,11588,37,90,38,52,922,654.0,661,467,60,121.0,196,1,394,307,129,0,0,636,-6006,4909,655,-5.59,44.680553,10.017455,66.33,178.5,0,0.0,-1,0.0,0.0,0,2.32,6.0457
362764,1564237755121,3,2.31,0.97,0.3,1.34,0.98,1.01,-0.2,0.31,5,-5,13,1.03,11588,37,91,38,51,928,651.0,658,467,60,121.0,196,1,391,295,129,0,0,635,-6006,506,649,-5.59,,,,,,,,,,,,
362784,1564237755141,1,2.31,0.97,0.3,1.33,0.99,1.06,0.02,0.34,4,-5,14,1.06,11617,38,91,38,51,933,647.0,658,468,60,121.0,196,1,391,296,129,0,0,635,4909,-18357,651,-5.59,,,,,,,,,,,,
362804,1564237755161,2,2.31,0.97,0.3,1.33,0.98,1.16,-0.02,0.5,3,-4,12,1.16,11653,37,91,38,51,933,646.0,659,472,60,120.0,196,1,391,298,129,0,0,623,244,20993,644,-5.59,,,,,,,,,,,,
362824,1564237755181,-0,2.32,0.97,0.31,1.33,0.97,1.2,-0.21,0.41,1,-1,10,1.22,11807,37,91,38,50,933,643.0,660,470,60,120.0,196,1,388,287,129,0,0,626,244,-16883,641,-5.59,,,,,,,,,,,,
362844,1564237755201,0,2.31,0.98,0.31,1.32,0.98,1.19,-0.36,0.25,0,1,8,1.25,11882,23,91,38,50,944,639.0,658,466,60,121.0,199,1,388,281,128,0,0,629,6208,19304,640,-5.59,44.680569,10.017449,64.52,178.5,0,0.0,-1,0.0,0.0,0,2.32,6.0474
362864,1564237755221,-0,2.32,0.97,0.31,1.32,0.98,1.18,-0.41,0.13,-0,0,7,1.25,11957,31,91,38,49,960,638.0,661,472,60,121.0,199,1,385,271,128,0,0,631,-10251,3395,637,-5.59,,,,,,,,,,,,
