"Interval"|"ms"|0|0|1,"Utc"|"ms"|0|0|1,"FB_p"|"bar"|0|300|50,"Volant"|"F"|0.0|300.0|50,"xFR"|"mm"|0.0|5.0|50,"xRR"|"mm"|0.0|5.0|50,"xFL"|"mm"|0.0|5.0|50,"xRL"|"mm"|0.0|5.0|50,"AccelX"|"G"|-3.0|3.0|50,"AccelY"|"G"|-3.0|3.0|50,"AccelZ"|"G"|-3.0|3.0|50,"Yaw"|"Deg/Sec"|-120|120|50,"Pitch"|"Deg/Sec"|-120|120|50,"Roll"|"Deg/Sec"|-120|120|50,"Gsum"|"G"|0.0|3.0|50,"RPM"|""|0|14000|50,"TPS"|"%"|0|100|50,"WaterTemp"|"?C"|0|300|50,"AirTemp"|"?C"|-1000|1000|50,"MAP"|"KPa"|0|255|50,"Lambda"|""|0|1024|50,"WheelSpeed"|"MPH"|0.0|150.0|50,"OilPress"|"PSI"|0|150|50,"FuelPress"|"PSI"|0|150|50,"OilTemp"|"F"|0|300|50,"Battery"|"Volts"|0.0|20.0|50,"FuelCon"|"L/h"|-1000|1000|50,"Gear"|""|0|10|50,"Advance"|"Deg"|-360|360|50,"Injection"|"ms"|-1000|1000|50,"FuelCon"|"L/100km"|-1000|1000|50,"LC_But_Pres"|""|-1000|1000|50,"LC_Active"|""|-1000|1000|50,"RD_Speed"|""|-1000|1000|50,"RUD_Speed"|""|-1000|1000|50,"LD_Speed"|""|-1000|1000|50,"LUD_Speed"|""|-1000|1000|50,"Ana1"|"bar"|-1000.0|1000.0|50,"Latitude"|"Degrees"|-180.0|180.0|10,"Longitude"|"Degrees"|-180.0|180.0|10,"Speed"|"kph"|0.0|150.0|10,"Altitude"|"m"|0.0|4000.0|10,"LapCount"|""|0|0|10,"LapTime"|"Min"|0.0|0.0|10,"Sector"|""|0|0|10,"SectorTime"|"Min"|0.0|0.0|10,"ElapsedTime"|"Min"|0.0|0.0|10,"CurrentLap"|""|0|0|10,"Distance"|"km"|0.0|0.0|10,"SessionTime"|"Min"|0.0|0.0|10
330963,1564236549296,-1,1.46,0.9,0.27,1.31,0.98,0.88,0.89,0.33,-29,-1,-40,1.26,7924,24,87,39,41,915,399.0,633,466,60,127.0,170,1,325,208,63,0,0,433,28696,-8165,366,-5.59,,,,,,,,,,,,
330983,1564236549316,-0,1.44,0.9,0.27,1.31,0.98,0.83,1.0,0.25,-29,-2,-39,1.31,7914,23,87,39,41,919,397.0,632,464,60,127.0,170,1,325,209,63,0,0,428,-3968,-3856,362,-5.59,,,,,,,,,,,,
331003,1564236549336,1,1.46,0.9,0.26,1.31,0.97,0.7,1.09,0.25,-28,-1,-40,1.3,7934,22,87,39,41,920,398.0,632,462,60,127.0,171,1,325,209,62,0,0,430,6384,2524,361,-5.59,,,,,,,,,,,,
331023,1564236549356,-0,1.46,0.9,0.27,1.31,0.98,0.75,1.01,0.3,-29,0,-41,1.26,7891,24,87,39,41,919,396.0,638,462,60,128.0,171,1,325,209,62,0,0,428,-32702,10392,360,-5.59,,,,,,,,,,,,
331043,1564236549376,-0,1.44,0.9,0.27,1.32,0.97,0.88,1.0,0.32,-30,-1,-40,1.33,7901,24,87,39,42,917,395.0,637,466,60,128.0,171,1,332,211,62,0,0,426,17144,-9166,357,-5.59,44.681313,10.016888,40.92,180.0,0,0.0,-1,0.0,0.0,0,2.03,5.5174
331063,1564236549396,-1,1.45,0.9,0.27,1.32,0.97,0.79,1.04,0.36,-30,-2,-40,1.31,7851,24,87,39,42,914,393.0,631,465,60,127.0,171,1,332,211,62,0,0,425,-6656,-21792,354,-5.59,,,,,,,,,,,,
331083,1564236549416,1,1.46,0.91,0.27,1.32,0.98,0.67,1.07,0.31,-30,-1,-41,1.26,7799,24,87,39,42,911,389.0,632,464,60,126.0,171,1,332,211,62,0,0,423,-6524,18584,354,-5.59,,,,,,,,,,,,
331103,1564236549436,4,1.45,0.9,0.27,1.32,0.98,0.71,1.0,0.26,-30,-0,-40,1.23,7819,23,87,39,42,911,385.0,632,465,60,128.0,177,1,332,211,63,0,0,423,-6475,11560,353,-5.59,,,,,,,,,,,,
331123,1564236549456,-1,1.44,0.9,0.27,1.31,0.96,0.84,0.9,0.3,-30,-1,-40,1.23,7741,23,87,39,43,913,385.0,629,466,60,128.0,177,1,340,213,63,0,0,420,-6475,-4059,352,-5.59,,,,,,,,,,,,
331143,1564236549476,0,1.46,0.91,0.28,1.31,0.98,0.96,0.88,0.36,-31,-1,-39,1.3,7703,24,87,39,43,917,384.0,627,468,60,127.0,177,1,340,213,63,0,0,417,-19019,2524,349,-5.59,44.681301,10.016885,40.16,180.0,0,0.0,-1,0.0,0.0,0,2.04,5.5191
331163,1564236549496,-0,1.47,0.91,0.28,1.32,0.98,0.97,0.93,0.4,-31,-2,-40,1.34,7747,24,87,39,44,921,382.0,628,467,60,128.0,177,1,347,213,63,0,0,414,19125,-26615,347,-5.59,,,,,,,,,,,,
331183,1564236549516,0,1.48,0.9,0.27,1.31,0.98,0.84,0.96,0.4,-31,-2,-42,1.28,7700,24,87,39,43,933,385.0,631,467,60,128.0,177,1,340,214,63,0,0,415,-6475,9517,348,-5.59,,,,,,,,,,,,
331203,1564236549536,2,1.49,0.91,0.27,1.32,0.98,0.73,1.01,0.33,-31,-2,-42,1.25,7712,22,87,39,43,945,389.0,631,465,60,127.0,178,1,340,214,62,0,0,416,-6524,-32702,347,-5.59,,,,,,,,,,,,
331223,1564236549556,2,1.52,0.91,0.27,1.32,0.98,0.65,0.99,0.29,-31,-1,-42,1.18,7640,24,87,39,44,954,387.0,628,465,60,128.0,178,1,347,214,62,0,0,413,240,-9166,348,-5.59,,,,,,,,,,,,
331243,1564236549576,1,1.53,0.91,0.28,1.32,0.98,0.65,0.95,0.26,-32,1,-41,1.15,7618,24,87,39,44,959,390.0,629,463,60,128.0,178,1,347,214,62,0,0,416,-1562,18584,346,-5.59,44.681294,10.016883,39.26,180.0,0,0.0,-1,0.0,0.0,0,2.04,5.5207
331263,1564236549596,3,1.58,0.9,0.28,1.32,0.99,0.76,0.93,0.28,-32,0,-42,1.2,7609,23,87,39,44,968,390.0,628,465,60,128.0,178,1,347,214,62,0,0,409,-1562,-26615,346,-5.59,,,,,,,,,,,,
331283,1564236549616,3,1.63,0.91,0.28,1.32,0.98,0.87,0.83,0.28,-32,1,-44,1.21,7578,23,87,39,45,982,390.0,631,467,60,128.0,178,1,355,214,62,0,0,408,-1562,6512,347,-5.59,,,,,,,,,,,,
331303,1564236549636,3,1.7,0.91,0.28,1.33,0.98,0.94,0.81,0.29,-32,2,-43,1.24,7557,23,87,39,44,989,391.0,625,465,60,128.0,178,1,347,214,62,0,0,409,505,1504,349,-5.59,,,,,,,,,,,,
331323,1564236549656,-1,1.82,0.91,0.28,1.32,0.99,1.0,0.7,0.38,-33,1,-43,1.22,7588,23,87,39,45,995,399.0,628,463,60,128.0,178,1,355,214,62,0,0,405,28696,11560,354,-5.59,,,,,,,,,,,,
331343,1564236549676,-1,1.95,0.91,0.28,1.33,0.98,1.07,0.71,0.46,-34,-1,-44,1.28,7551,23,87,39,45,999,405.0,626,465,60,128.0,178,1,355,216,62,0,0,407,-9211,1504,359,-5.59,44.681282,10.016883,38.57,180.0,0,0.0,-1,0.0,0.0,0,2.04,5.5224
331363,1564236549696,-2,2.08,0.92,0.27,1.33,1.0,1.12,0.65,0.56,-35,-1,-46,1.29,7618,23,87,39,45,1007,411.0,626,467,60,127.0,178,1,355,214,62,0,0,408,-4059,-6656,361,-5.59,,,,,,,,,,,,
331383,1564236549716,-1,2.2,0.93,0.28,1.35,0.99,1.07,0.63,0.59,-34,-1,-45,1.25,7569,23,87,39,45,1011,409.0,625,463,60,128.0,178,1,355,216,62,0,0,408,9517,-19126,363,-5.59,,,,,,,,,,,,
331403,1564236549736,-2,2.29,0.94,0.29,1.37,1.01,1.03,0.56,0.65,-31,-1,-45,1.17,7515,23,87,39,45,1013,405.0,624,465,60,127.0,169,1,355,216,62,0,0,406,-8151,1,368,-5.59,,,,,,,,,,,,
331423,1564236549756,-1,2.35,0.95,0.3,1.38,1.02,1.09,0.41,0.78,-28,-2,-43,1.16,7402,23,87,39,45,1017,400.0,619,466,60,127.0,169,1,355,216,62,0,0,403,28696,-19126,377,-5.59,,,,,,,,,,,,
331443,1564236549776,1,2.44,0.97,0.31,1.39,1.04,1.12,0.25,0.83,-24,-0,-40,1.15,7338,23,87,39,45,1025,388.0,618,466,60,127.0,169,1,355,216,62,0,0,399,-31744,1,385,-5.59,44.681274,10.016884,38.13,180.0,0,0.0,-1,0.0,0.0,0,2.04,5.524
331463,1564236549797,4,2.53,0.97,0.32,1.41,1.05,1.12,0.17,0.79,-19,-0,-37,1.14,7217,22,87,39,46,1034,388.0,613,463,60,128.0,169,1,362,218,62,0,0,391,-31744,-6656,390,-5.59,,,,,,,,,,,,
331483,1564236549817,2,2.62,0.99,0.33,1.42,1.06,1.07,0.16,0.76,-14,-0,-33,1.08,7186,23,87,39,46,1039,391.0,608,463,60,127.0,169,1,362,218,62,0,0,389,-18948,28696,392,-5.59,,,,,,,,,,,,
331503,1564236549837,-0,2.7,0.99,0.33,1.43,1.06,1.03,0.05,0.68,-10,-1,-29,1.03,7159,23,87,39,47,1044,392.0,604,461,60,128.0,150,1,370,220,59,0,0,384,2278,28696,392,-5.59,,,,,,,,,,,,
331523,1564236549857,-2,2.8,0.99,0.33,1.43,1.06,1.06,-0.12,0.77,-7,-2,-24,1.07,7211,23,87,39,47,1054,392.0,606,465,60,125.0,150,1,370,220,59,0,0,383,742,28696,392,-5.59,,,,,,,,,,,,
331543,1564236549877,2,2.87,0.99,0.33,1.43,1.06,1.09,-0.18,0.85,-4,0,-16,1.11,7244,22,87,39,47,1060,390.0,609,465,60,127.0,150,1,370,220,59,0,0,384,0,10541,389,-5.59,44.681263,10.016887,37.88,180.0,0,0.0,-1,0.0,0.0,0,2.04,5.5257
331563,1564236549896,3,2.93,0.98,0.33,1.43,1.06,1.01,-0.17,0.85,-0,3,-10,1.03,7261,22,87,39,47,1061,388.0,611,460,60,129.0,150,1,370,220,59,0,0,393,2790,6384,387,-5.59,,,,,,,,,,,,
331583,1564236549916,3,0.33,0.96,0.31,1.41,1.04,0.92,-0.22,0.8,3,4,-5,0.95,7347,22,87,39,47,1063,388.0,612,463,60,127.0,150,1,370,220,59,0,0,397,-29302,-3968,387,-5.59,,,,,,,,,,,,
331603,1564236549936,1,0.35,0.95,0.31,1.4,1.03,0.89,-0.25,0.74,7,5,-0,0.93,7393,22,87,39,47,1067,386.0,613,465,60,128.0,160,1,370,220,62,0,0,398,28553,6512,387,-5.59,,,,,,,,,,,,
331623,1564236549956,2,0.35,0.94,0.32,1.39,1.03,0.86,-0.34,0.68,10,6,3,0.92,7500,22,87,39,47,1071,385.0,616,465,60,128.0,160,1,370,220,62,0,0,399,-30454,6512,386,-5.59,,,,,,,,,,,,
331643,1564236549976,2,0.36,0.94,0.31,1.39,1.03,0.87,-0.42,0.63,12,6,7,0.96,7566,23,87,39,47,1072,387.0,621,464,60,127.0,160,1,370,220,62,0,0,398,-30438,17144,387,-5.59,44.681255,10.016889,38.5,179.9,0,0.0,-1,0.0,0.0,0,2.04,5.5274
331663,1564236549996,1,0.38,0.94,0.31,1.4,1.02,0.85,-0.48,0.58,15,6,11,0.98,7668,22,87,39,46,1074,384.0,621,464,60,128.0,160,1,362,218,62,0,0,407,-10554,17144,384,-5.59,,,,,,,,,,,,
331683,1564236550010,0,0.39,0.94,0.31,1.4,1.03,0.86,-0.5,0.55,17,5,15,0.99,7693,23,87,39,46,1078,383.0,619,464,60,127.0,160,1,362,218,62,0,0,414,-14714,-6656,383,-5.59,,,,,,,,,,,,
331703,1564236550030,-1,0.42,0.94,0.31,1.4,1.02,0.91,-0.53,0.52,19,4,19,1.05,7783,23,87,39,46,1081,382.0,623,464,60,128.0,167,1,362,216,64,0,0,429,-122,6512,382,-5.59,,,,,,,,,,,,
331723,1564236550050,1,0.46,0.94,0.31,1.39,1.02,0.91,-0.61,0.57,21,4,21,1.09,7825,23,87,39,45,1082,378.0,624,462,60,127.0,167,1,355,218,64,0,0,435,13,-32702,378,-5.59,,,,,,,,,,,,
331743,1564236550070,0,0.5,0.94,0.31,1.39,1.03,0.91,-0.68,0.51,23,4,24,1.14,7815,23,87,39,45,1083,376.0,623,463,60,127.0,167,1,355,216,64,0,0,442,-6528,17144,376,-5.59,44.681244,10.016891,38.13,180.0,0,0.0,-1,0.0,0.0,0,2.04,5.529
331763,1564236550095,2,0.51,0.95,0.31,1.39,1.03,0.91,-0.7,0.43,25,3,26,1.15,7828,17,87,39,45,1080,373.0,628,463,60,128.0,167,1,355,216,64,0,0,452,-20736,-1818,373,-5.59,,,,,,,,,,,,
331783,1564236550115,-1,0.53,0.95,0.31,1.4,1.03,0.94,-0.72,0.38,27,2,29,1.19,7838,23,87,39,45,1077,369.0,625,463,60,127.0,167,1,355,216,64,0,0,457,160,-6656,369,-5.59,,,,,,,,,,,,
331803,1564236550135,-1,0.54,0.94,0.31,1.39,1.03,0.92,-0.79,0.39,28,1,31,1.21,7884,16,87,39,45,1074,365.0,496,465,60,128.0,173,1,355,216,64,0,0,451,150,-31744,365,-5.59,,,,,,,,,,,,
331823,1564236550155,2,0.53,0.95,0.31,1.39,1.03,0.86,-0.86,0.41,30,2,32,1.22,7965,17,87,39,44,1069,364.0,394,463,60,126.0,173,1,347,214,64,0,0,456,145,-31744,363,-5.59,,,,,,,,,,,,
331843,1564236550175,3,0.53,0.94,0.31,1.4,1.03,0.88,-0.9,0.41,31,1,34,1.26,7982,16,87,39,43,1060,364.0,341,461,60,128.0,173,1,340,213,64,0,0,462,145,-1562,364,-5.59,44.681236,10.016892,37.44,179.9,0,0.0,-1,0.0,0.0,0,2.04,5.5307
331863,1564236550195,-0,0.53,0.94,0.31,1.39,1.03,0.87,-0.93,0.47,32,1,35,1.28,8012,14,87,39,43,1053,362.0,323,463,60,128.0,173,1,340,213,64,0,0,471,140,-3866,362,-5.59,,,,,,,,,,,,
331883,1564236550215,2,0.53,0.94,0.31,1.39,1.03,0.85,-0.98,0.45,33,1,36,1.29,8033,16,87,39,43,1046,361.0,321,465,60,127.0,173,1,340,213,64,0,0,478,-29696,-18948,361,-5.59,,,,,,,,,,,,
331903,1564236550235,1,0.52,0.95,0.31,1.4,1.03,0.85,-0.99,0.44,34,1,37,1.3,8009,16,87,39,43,1041,361.0,296,462,60,128.0,180,1,340,213,65,0,0,483,-29696,-19126,361,-5.59,,,,,,,,,,,,
331923,1564236550255,-1,0.53,0.94,0.32,1.39,1.03,0.85,-1.03,0.42,35,1,39,1.34,8033,21,87,39,43,1030,360.0,302,463,60,127.0,180,1,340,211,65,0,0,485,130,-992,360,-5.59,,,,,,,,,,,,
331943,1564236550275,2,0.51,0.94,0.31,1.4,1.02,0.81,-1.09,0.35,36,-0,39,1.36,8092,19,87,39,42,1023,359.0,298,462,60,128.0,180,1,333,213,65,0,0,489,125,742,359,-5.59,44.681225,10.016892,36.55,179.9,0,0.0,-1,0.0,0.0,0,2.04,5.5324
331963,1564236550295,-0,0.52,0.94,0.32,1.4,1.02,0.89,-1.08,0.35,37,-0,40,1.4,8092,16,87,39,42,1013,358.0,296,466,60,128.0,180,1,333,211,65,0,0,490,120,-18948,358,-5.59,,,,,,,,,,,,
331983,1564236550315,2,0.52,0.94,0.31,1.4,1.03,0.87,-1.12,0.27,38,-0,42,1.42,8130,22,87,39,42,1010,356.0,297,467,60,128.0,180,1,333,212,65,0,0,494,30720,742,355,-5.59,,,,,,,,,,,,
332003,1564236550335,-0,0.53,0.94,0.32,1.39,1.03,0.91,-1.08,0.31,39,1,42,1.41,8184,20,87,39,41,1003,354.0,298,463,60,128.0,180,1,327,211,64,0,0,499,110,-6656,353,-5.59,,,,,,,,,,,,
332023,1564236550355,-1,0.54,0.94,0.31,1.4,1.02,0.9,-1.13,0.3,40,1,44,1.45,8212,21,87,39,41,998,352.0,307,463,60,128.0,180,1,328,211,64,0,0,501,28160,1,352,-5.59,,,,,,,,,,,,
332043,1564236550375,3,0.53,0.94,0.31,1.4,1.03,0.9,-1.09,0.3,40,1,46,1.41,8184,23,87,39,41,994,350.0,338,462,60,128.0,180,1,327,211,64,0,0,507,26880,-6656,350,-5.59,44.681221,10.01689,36.12,179.9,0,0.0,-1,0.0,0.0,0,2.05,5.534
332063,1564236550395,0,0.53,0.94,0.31,1.4,1.02,0.91,-1.09,0.33,40,-0,47,1.42,8191,23,87,39,41,994,349.0,327,466,60,127.0,180,1,327,211,64,0,0,513,25600,486,347,-5.59,,,,,,,,,,,,
332083,1564236550415,3,0.52,0.94,0.31,1.39,1.03,0.89,-1.07,0.35,41,0,48,1.4,8234,24,87,39,41,985,347.0,321,465,60,128.0,180,1,328,211,64,0,0,517,95,230,347,-5.59,,,,,,,,,,,,
332103,1564236550435,1,0.51,0.95,0.32,1.4,1.03,0.93,-1.09,0.31,41,-1,49,1.43,8220,24,87,39,41,976,346.0,312,465,60,127.0,187,1,328,211,65,0,0,522,25600,0,346,-5.59,,,,,,,,,,,,
332123,1564236550455,3,0.52,0.94,0.31,1.4,1.02,0.92,-1.1,0.3,42,-2,49,1.43,8249,24,87,39,40,961,346.0,306,465,60,127.0,187,1,321,209,65,0,0,519,23040,-6405,346,-5.59,,,,,,,,,,,,
332143,1564236550475,0,0.5,0.94,0.31,1.4,1.03,0.95,-1.16,0.32,42,-1,50,1.5,8292,20,87,39,40,953,343.0,306,466,60,126.0,187,1,321,209,65,0,0,527,23040,-6458,343,-5.59,44.68121,10.016887,35.08,179.8,0,0.0,-1,0.0,0.0,0,2.05,5.5357
332163,1564236550495,2,0.46,0.94,0.32,1.4,1.02,0.94,-1.18,0.33,42,-1,50,1.51,8311,23,87,39,40,939,343.0,312,463,60,127.0,187,1,322,209,65,0,0,524,80,-6458,343,-5.59,,,,,,,,,,,,
332183,1564236550515,-0,0.44,0.94,0.31,1.39,1.04,1.0,-1.2,0.32,42,-1,51,1.56,8348,24,87,39,40,928,342.0,310,464,60,126.0,187,1,322,210,65,0,0,531,80,3302,343,-5.59,,,,,,,,,,,,
332203,1564236550535,-1,0.39,0.94,0.31,1.4,1.03,1.01,-1.19,0.36,43,-1,52,1.56,8325,19,87,39,40,923,344.0,306,465,60,127.0,192,1,322,209,66,0,0,537,20480,3302,344,-5.59,,,,,,,,,,,,
332223,1564236550555,1,0.33,0.95,0.31,1.4,1.03,0.95,-1.23,0.35,43,-2,53,1.55,8322,21,87,39,40,924,347.0,302,466,60,126.0,192,1,322,232,66,0,0,543,85,-6644,347,-5.59,,,,,,,,,,,,
332243,1564236550575,-2,2.89,0.97,0.33,1.41,1.05,1.01,-1.23,0.42,43,-2,53,1.59,8370,24,87,39,40,925,349.0,303,466,60,128.0,192,1,323,229,66,0,0,550,85,-30454,350,-5.59,44.681202,10.016883,34.45,179.8,0,0.0,-1,0.0,0.0,0,2.05,5.5374
332263,1564236550597,2,2.78,0.97,0.33,1.41,1.05,0.86,-1.27,0.4,43,-2,54,1.53,8411,24,87,39,40,926,351.0,293,464,60,126.0,192,1,324,226,66,0,0,549,24320,3183,351,-5.59,,,,,,,,,,,,
332283,1564236550617,-0,2.66,0.97,0.32,1.41,1.05,0.98,-1.21,0.41,43,-2,55,1.56,8426,24,87,39,40,927,355.0,297,465,60,128.0,192,1,325,223,66,0,0,551,95,2811,355,-5.59,,,,,,,,,,,,
332303,1564236550637,-1,2.53,0.97,0.32,1.42,1.05,0.97,-1.13,0.47,42,0,56,1.48,8453,23,87,39,40,926,355.0,297,465,60,127.0,199,1,325,219,71,0,0,555,25600,-6644,355,-5.59,,,,,,,,,,,,
332323,1564236550657,3,2.44,0.96,0.32,1.4,1.04,0.88,-1.09,0.43,38,2,57,1.4,8488,24,87,39,40,927,351.0,307,465,60,127.0,199,1,325,215,71,0,0,552,100,2811,349,-5.59,,,,,,,,,,,,
332343,1564236550677,1,2.37,0.96,0.32,1.38,1.05,0.88,-0.97,0.42,34,4,55,1.32,8488,25,87,39,40,928,345.0,326,465,60,126.0,199,1,325,211,71,0,0,488,125,-30454,345,-5.59,44.681194,10.016877,33.26,179.8,0,0.0,-1,0.0,0.0,0,2.05,5.5391
332363,1564236550695,1,2.33,0.94,0.31,1.37,1.04,0.81,-0.8,0.46,30,6,54,1.14,8278,11,87,39,39,929,341.0,340,463,60,125.0,199,1,315,209,71,0,0,388,-27136,-6656,341,-5.59,,,,,,,,,,,,
332383,1564236550715,-0,2.25,0.92,0.3,1.33,1.0,0.78,-0.66,0.55,27,7,51,1.03,7668,25,87,39,41,930,345.0,357,463,60,126.0,199,1,325,231,71,0,0,362,-6528,15649,345,-5.59,,,,,,,,,,,,
332403,1564236550735,-2,2.19,0.91,0.28,1.3,0.99,0.64,-0.52,0.64,24,6,46,0.83,7557,25,87,39,42,931,347.0,367,462,60,127.0,187,1,332,231,65,0,0,383,6870,3826,347,-5.59,,,,,,,,,,,,
332423,1564236550755,1,2.11,0.89,0.27,1.27,0.96,0.55,-0.43,0.77,21,3,40,0.69,7557,26,87,39,45,929,352.0,367,460,60,128.0,187,1,355,141,65,0,0,364,3183,-29302,346,-5.59,,,,,,,,,,,,
332443,1564236550775,-2,2.04,0.87,0.26,1.25,0.96,0.51,-0.26,0.81,18,-0,34,0.57,5740,26,87,39,48,925,355.0,370,462,60,127.0,187,1,339,235,65,0,0,361,2060,-1246,346,-5.59,44.681187,10.01687,33.28,179.8,0,0.0,-1,0.0,0.0,0,2.05,5.5407
332463,1564236550795,-2,1.96,0.86,0.25,1.24,0.94,0.57,-0.15,0.61,13,-5,30,0.59,5598,25,87,39,52,918,355.0,362,460,60,128.0,187,1,342,252,65,0,0,352,28553,2811,342,-5.59,,,,,,,,,,,,
332483,1564236550815,3,1.88,0.86,0.25,1.24,0.95,0.72,-0.07,0.58,9,-7,25,0.72,5690,26,87,39,56,915,351.0,356,467,60,127.0,187,1,355,261,65,0,0,355,28553,6668,336,-5.59,,,,,,,,,,,,
332503,1564236550835,1,1.82,0.86,0.25,1.24,0.94,0.64,0.09,0.61,7,-9,20,0.64,5699,26,87,39,59,910,351.0,351,466,60,127.0,165,1,352,175,56,0,0,359,28553,4838,334,-5.59,,,,,,,,,,,,
332523,1564236550855,-1,1.76,0.87,0.24,1.25,0.95,0.65,0.18,0.49,4,-8,16,0.68,5755,29,87,39,62,905,355.0,348,467,60,128.0,165,1,352,264,56,0,0,360,2060,3346,331,-5.59,,,,,,,,,,,,
332543,1564236550875,0,1.72,0.87,0.25,1.26,0.94,0.57,0.27,0.37,1,-10,11,0.63,5912,10,87,39,64,903,354.0,335,468,60,128.0,165,1,362,256,56,0,0,357,2060,-28416,328,-5.59,44.681183,10.016862,33.15,179.7,0,0.0,-1,0.0,0.0,0,2.05,5.5424
332563,1564236550897,2,1.69,0.87,0.25,1.25,0.95,0.46,0.38,0.38,-1,-8,3,0.6,6169,31,87,39,64,904,354.0,332,467,60,128.0,165,1,378,308,56,0,0,355,3302,41,324,-5.59,,,,,,,,,,,,
332583,1564236550917,3,1.65,0.87,0.25,1.26,0.93,0.57,0.5,0.32,-4,-7,-3,0.76,6463,31,87,39,64,922,355.0,345,470,60,128.0,165,1,389,212,56,0,0,362,2060,28160,321,-5.59,,,,,,,,,,,,
332603,1564236550937,-0,1.6,0.87,0.24,1.26,0.94,0.63,0.62,0.25,-8,-8,-7,0.89,6569,31,87,39,64,948,358.0,363,461,60,129.0,244,1,393,318,78,0,0,362,-29978,24064,315,-5.59,,,,,,,,,,,,
332623,1564236550957,3,1.56,0.87,0.25,1.25,0.94,0.68,0.57,0.33,-13,-7,-11,0.89,6646,30,87,39,64,964,354.0,378,467,60,129.0,244,1,396,317,78,0,0,361,3302,-30976,312,-5.59,,,,,,,,,,,,
332643,1564236550977,-1,1.52,0.87,0.24,1.25,0.94,0.66,0.72,0.29,-15,-5,-16,0.98,6776,32,87,39,64,990,353.0,403,465,60,128.0,244,1,402,315,78,0,0,360,-6644,135,306,-5.59,44.681179,10.016853,34.28,179.7,0,0.0,-1,0.0,0.0,0,2.05,5.5441
332663,1564236550997,1,1.47,0.86,0.24,1.25,0.93,0.79,0.76,0.38,-19,-7,-20,1.1,6898,24,87,39,64,1008,348.0,430,467,60,128.0,244,1,406,297,78,0,0,359,-1246,120,303,-5.59,,,,,,,,,,,,
332683,1564236551009,3,1.43,0.86,0.24,1.26,0.94,0.87,0.78,0.36,-21,-6,-23,1.17,7113,32,87,39,64,1031,347.0,457,464,60,128.0,244,1,414,307,78,0,0,357,-14714,125,298,-5.59,,,,,,,,,,,,
332703,1564236551029,1,1.4,0.87,0.24,1.26,0.93,0.74,0.85,0.29,-22,-4,-25,1.13,7181,32,87,39,63,1045,342.0,493,463,60,129.0,282,1,421,304,84,0,0,361,-31206,-6475,294,-5.59,,,,,,,,,,,,
332723,1564236551049,1,1.38,0.87,0.24,1.27,0.93,0.73,0.89,0.27,-24,-4,-30,1.15,7167,31,87,39,63,1046,339.0,515,468,60,127.0,282,1,421,303,84,0,0,360,-122,3571,290,-5.59,,,,,,,,,,,,
332743,1564236551069,-1,1.37,0.87,0.24,1.27,0.93,0.8,0.87,0.33,-27,-5,-34,1.18,7219,32,87,39,63,1062,337.0,532,466,60,127.0,282,1,422,300,84,0,0,355,2560,15649,289,-5.59,44.681171,10.016847,33.48,179.7,0,0.0,-1,0.0,0.0,0,2.05,5.5457
332763,1564236551096,-2,1.37,0.87,0.24,1.26,0.94,0.92,0.79,0.35,-29,-6,-36,1.21,7355,32,87,39,62,1085,333.0,547,470,60,128.0,282,1,430,301,84,0,0,355,-6528,31796,286,-5.59,,,,,,,,,,,,
332783,1564236551116,-1,1.38,0.86,0.24,1.26,0.94,1.01,0.73,0.38,-30,-6,-39,1.24,7551,32,87,39,61,1104,331.0,564,457,60,129.0,282,1,438,298,84,0,0,351,175,3635,284,-5.59,,,,,,,,,,,,
332803,1564236551136,-0,1.39,0.87,0.25,1.26,0.94,1.07,0.77,0.45,-32,-6,-39,1.32,7612,32,87,39,60,1127,330.0,586,462,60,127.0,300,1,432,292,85,0,0,357,175,31796,283,-5.59,,,,,,,,,,,,
332823,1564236551156,-0,1.4,0.88,0.25,1.27,0.94,1.07,0.7,0.57,-33,-6,-43,1.28,7563,32,87,39,60,1134,332.0,593,467,60,128.0,300,1,431,293,85,0,0,362,-32559,5600,281,-5.59,,,,,,,,,,,,
332843,1564236551176,-1,1.42,0.87,0.25,1.27,0.94,1.11,0.78,0.6,-35,-7,-46,1.35,7551,33,87,39,59,1139,332.0,601,463,60,127.0,300,1,424,286,85,0,0,366,-32559,3635,281,-5.59,44.681164,10.016841,31.85,179.7,0,0.0,-1,0.0,0.0,0,2.05,5.5474
332863,1564236551196,-2,1.43,0.87,0.25,1.27,0.95,1.08,0.73,0.65,-37,-5,-48,1.3,7476,33,87,39,59,1133,337.0,609,448,60,126.0,300,1,422,285,85,0,0,371,2560,-8151,282,-5.59,,,,,,,,,,,,
332883,1564236551216,-1,1.44,0.88,0.26,1.26,0.94,1.1,0.78,0.73,-39,-6,-49,1.35,7284,33,87,39,59,1115,339.0,608,455,60,127.0,300,1,418,283,85,0,0,381,-122,-6656,282,-5.59,,,,,,,,,,,,
332903,1564236551236,2,1.45,0.87,0.25,1.28,0.94,1.0,0.8,0.75,-40,-5,-50,1.28,7264,32,88,39,60,1102,343.0,598,451,60,130.0,279,1,424,283,79,0,0,380,-14714,-992,284,181.28,,,,,,,,,,,,
332923,1564236551256,1,1.46,0.87,0.26,1.26,0.94,0.94,0.9,0.75,-41,-4,-52,1.31,6397,33,87,39,61,1090,343.0,586,466,60,128.0,279,1,398,263,79,0,0,372,-14714,-1246,285,-5.59,,,,,,,,,,,,
332943,1564236551276,2,1.47,0.87,0.25,1.27,0.94,0.96,0.99,0.65,-42,-3,-51,1.38,6097,31,87,39,63,1080,343.0,566,452,60,127.0,279,1,379,264,79,0,0,364,-14714,175,286,-5.59,44.681156,10.016836,31.21,179.6,0,0.0,-1,0.0,0.0,0,2.05,5.549
332963,1564236551296,3,1.45,0.88,0.25,1.27,0.94,0.93,1.02,0.55,-42,-3,-49,1.38,5961,15,87,39,64,1081,339.0,550,437,60,128.0,279,1,367,278,79,0,0,356,-122,-31222,288,-5.59,,,,,,,,,,,,
332983,1564236551316,3,1.46,0.87,0.25,1.28,0.94,0.91,1.08,0.43,-41,-2,-48,1.41,5992,33,87,39,66,1081,337.0,537,428,60,128.0,279,1,364,323,79,0,0,352,13,170,288,-5.59,,,,,,,,,,,,
333003,1564236551336,2,1.48,0.88,0.25,1.28,0.94,0.89,1.09,0.35,-41,-1,-48,1.41,6091,40,87,39,68,1079,334.0,528,420,60,127.0,261,1,361,357,75,0,0,347,4838,155,287,-5.59,,,,,,,,,,,,
333023,1564236551356,-1,1.5,0.87,0.26,1.27,0.95,0.95,1.06,0.3,-41,-1,-48,1.43,6235,0,87,39,71,1078,335.0,524,418,60,128.0,261,1,362,344,75,0,0,345,3346,165,288,-5.59,,,,,,,,,,,,
333043,1564236551376,1,1.52,0.87,0.26,1.27,0.94,1.01,1.03,0.23,-41,-3,-49,1.44,6373,46,87,39,74,1077,336.0,525,425,60,129.0,261,1,363,461,75,0,0,350,13,3346,288,-5.59,44.681148,10.016833,31.13,179.6,0,0.0,-1,0.0,0.0,0,2.05,5.5507
333063,1564236551397,2,1.56,0.88,0.26,1.28,0.94,1.02,1.08,0.24,-41,-3,-49,1.49,6508,48,87,39,76,1093,337.0,532,421,60,130.0,261,1,364,365,75,0,0,346,2560,-10554,288,-5.59,,,,,,,,,,,,
333083,1564236551417,-2,1.63,0.88,0.26,1.28,0.94,1.01,1.11,0.23,-41,-3,-50,1.5,6737,50,87,39,77,1176,342.0,539,421,60,129.0,261,1,372,495,75,0,0,347,-31206,2060,289,-5.59,,,,,,,,,,,,
333103,1564236551437,3,1.68,0.88,0.26,1.28,0.94,1.03,1.09,0.25,-42,-2,-52,1.5,6957,52,87,39,79,1243,344.0,551,432,60,128.0,447,1,378,503,129,0,0,348,-10554,230,290,-5.59,,,,,,,,,,,,
333123,1564236551457,3,1.74,0.88,0.26,1.28,0.94,1.04,1.02,0.37,-43,-2,-53,1.46,7217,58,87,39,79,1293,348.0,561,440,60,128.0,447,1,392,498,129,0,0,350,-1246,230,290,-5.59,,,,,,,,,,,,
333143,1564236551477,3,1.81,0.88,0.26,1.28,0.95,0.94,1.12,0.34,-43,-2,-53,1.46,7396,52,87,39,81,1354,351.0,571,435,60,128.0,447,1,402,407,129,0,0,353,3183,-19019,292,-5.59,44.681145,10.016831,32.06,179.5,0,0.0,-1,0.0,0.0,0,2.06,5.5524
333163,1564236551496,-0,1.88,0.88,0.27,1.27,0.95,0.83,1.04,0.39,-44,0,-55,1.33,7464,65,87,39,82,1388,356.0,582,452,60,129.0,447,1,406,416,129,0,0,367,4104,18584,294,-5.59,,,,,,,,,,,,
333183,1564236551516,1,1.94,0.89,0.28,1.29,0.95,0.84,1.11,0.43,-43,0,-56,1.39,7078,66,88,39,83,1423,361.0,590,452,60,128.0,447,1,382,556,129,0,0,376,-6458,-9166,297,-5.59,,,,,,,,,,,,
333203,1564236551536,3,2.0,0.89,0.28,1.29,0.96,0.83,1.09,0.55,-43,1,-56,1.37,6710,32,87,39,85,1381,366.0,585,451,60,127.0,493,1,364,480,147,0,0,374,230,2560,300,-5.59,,,,,,,,,,,,
333223,1564236551556,-1,2.04,0.89,0.28,1.3,0.96,0.79,1.16,0.56,-42,2,-55,1.4,6401,67,87,39,86,1352,364.0,564,460,60,127.0,493,1,350,420,147,0,0,367,-1268,-25856,304,-5.59,,,,,,,,,,,,
333243,1564236551576,-1,2.07,0.9,0.27,1.3,0.96,0.81,1.07,0.65,-41,-1,-54,1.34,6336,67,87,39,87,1280,360.0,546,456,60,128.0,493,1,344,557,147,0,0,363,-29302,6870,312,-5.59,44.681133,10.01683,30.92,179.5,0,0.0,-1,0.0,0.0,0,2.06,5.554
333263,1564236551596,3,2.11,0.9,0.27,1.31,0.96,0.7,0.95,0.68,-39,-2,-54,1.18,6438,67,87,39,89,1207,357.0,536,457,60,128.0,493,1,344,557,147,0,0,359,-6640,-31206,314,-5.59,,,,,,,,,,,,
333283,1564236551616,0,2.15,0.91,0.28,1.31,0.96,0.67,0.94,0.68,-36,-2,-52,1.16,6715,67,87,39,89,1167,353.0,539,460,60,127.0,493,1,358,564,147,0,0,357,-6644,3183,324,-5.59,,,,,,,,,,,,
333303,1564236551636,2,2.2,0.91,0.29,1.32,0.97,0.71,0.8,0.78,-33,-3,-50,1.07,6873,71,87,39,89,1128,353.0,543,456,60,128.0,437,1,367,561,143,0,0,359,-6644,230,329,-5.59,,,,,,,,,,,,
333323,1564236551656,1,2.25,0.93,0.3,1.35,0.98,0.64,0.8,0.79,-29,-1,-47,1.02,7046,75,87,39,90,1145,355.0,552,458,60,127.0,437,1,375,562,143,0,0,362,2060,0,336,-5.59,,,,,,,,,,,,
333343,1564236551676,1,2.3,0.95,0.31,1.38,1.01,0.51,0.71,0.85,-26,-0,-45,0.87,7164,78,87,39,91,1162,356.0,565,460,60,126.0,437,1,384,559,143,0,0,367,4104,0,341,-5.59,44.681126,10.016832,31.22,179.5,0,0.0,-1,0.0,0.0,0,2.06,5.5557
333363,1564236551696,-1,2.35,0.97,0.33,1.41,1.03,0.52,0.53,0.95,-23,0,-42,0.74,7181,83,87,39,92,1212,359.0,574,449,60,127.0,437,1,383,616,143,0,0,375,-29302,257,350,-5.59,,,,,,,,,,,,
333383,1564236551716,3,2.38,0.99,0.34,1.42,1.04,0.51,0.36,1.05,-20,1,-38,0.62,7142,90,87,39,92,1267,361.0,581,456,60,127.0,437,1,382,606,143,0,0,381,-6458,2278,360,-5.59,,,,,,,,,,,,
333403,1564236551736,1,2.42,0.99,0.34,1.44,1.05,0.49,0.36,1.02,-17,1,-33,0.6,7151,94,87,39,93,1263,365.0,577,458,60,127.0,450,1,381,597,163,0,0,382,2790,-3866,368,-5.59,,,,,,,,,,,,
333423,1564236551756,0,2.45,0.99,0.35,1.42,1.06,0.44,0.32,1.01,-14,1,-30,0.55,7118,100,87,39,94,1257,373.0,573,460,60,126.0,450,1,378,461,163,0,0,385,3082,-1562,373,-5.59,,,,,,,,,,,,
333443,1564236551776,-0,2.46,0.99,0.35,1.43,1.05,0.51,0.19,1.11,-13,-2,-26,0.54,7159,100,87,39,94,1210,379.0,576,457,60,127.0,450,1,381,573,163,0,0,389,0,-31744,379,-5.59,44.681118,10.016834,33.3,179.5,0,0.0,-1,0.0,0.0,0,2.06,5.5574
333463,1564236551796,3,2.48,0.99,0.35,1.44,1.06,0.61,0.11,1.15,-10,-3,-23,0.62,7244,89,87,39,94,1148,385.0,581,460,60,127.0,450,1,388,623,163,0,0,389,257,-32702,385,-5.59,,,,,,,,,,,,
333483,1564236551816,3,2.49,0.99,0.35,1.43,1.06,0.64,0.0,1.12,-7,-2,-20,0.64,7364,100,87,39,93,1049,390.0,575,461,60,127.0,450,1,398,621,163,0,0,402,770,11545,390,-5.59,,,,,,,,,,,,
333503,1564236551836,-1,2.49,0.99,0.35,1.44,1.06,0.65,-0.05,1.03,-5,-2,-15,0.65,7606,100,87,39,93,988,394.0,579,457,60,127.0,452,1,416,625,177,0,0,412,3,10392,394,-5.59,,,,,,,,,,,,
333523,1564236551856,-1,2.48,0.99,0.35,1.43,1.07,0.75,-0.17,1.05,-3,-3,-11,0.77,7815,100,87,39,92,950,397.0,593,459,60,127.0,452,1,433,621,177,0,0,414,-992,-26615,397,-5.59,,,,,,,,,,,,
333543,1564236551876,2,2.47,0.99,0.35,1.43,1.06,0.65,-0.21,1.12,-2,-2,-7,0.69,8113,100,87,39,91,930,403.0,610,463,60,126.0,452,1,446,515,177,0,0,429,-19126,-8165,406,-5.59,44.68111,10.016838,35.41,179.4,0,0.0,-1,0.0,0.0,0,2.06,5.5591
333563,1564236551892,0,2.45,0.97,0.35,1.43,1.05,0.74,-0.27,1.15,-0,-2,-5,0.79,8378,100,87,39,89,913,412.0,627,459,60,126.0,452,1,438,638,177,0,0,439,-31744,243,412,-5.59,,,,,,,,,,,,
333583,1564236551912,0,2.44,0.98,0.35,1.42,1.05,0.55,-0.35,1.15,2,0,-2,0.65,8596,100,87,39,88,901,418.0,631,461,60,127.0,452,1,431,637,177,0,0,433,-6656,-8985,418,-5.59,,,,,,,,,,,,
333603,1564236551932,3,2.45,0.97,0.34,1.42,1.05,0.4,-0.31,1.2,3,2,2,0.51,8712,100,87,39,88,904,423.0,635,460,60,126.0,478,1,427,599,201,0,0,457,6512,-18108,423,-5.59,,,,,,,,,,,,
333623,1564236551952,3,2.46,0.97,0.34,1.41,1.04,0.48,-0.33,1.27,5,1,4,0.59,8769,100,87,39,87,910,429.0,627,460,60,126.0,478,1,425,589,201,0,0,474,-26615,12552,433,-5.59,,,,,,,,,,,,
333643,1564236551972,2,2.48,0.97,0.34,1.42,1.05,0.55,-0.36,1.22,6,-1,6,0.66,8790,100,87,39,87,914,438.0,632,456,60,126.0,478,1,423,589,201,0,0,460,13040,8488,438,-5.59,44.681103,10.01684,37.59,179.4,0,0.0,-1,0.0,0.0,0,2.06,5.5607
333663,1564236551992,1,2.49,0.97,0.34,1.43,1.05,0.59,-0.4,1.17,8,-1,8,0.72,1733,99,87,39,87,915,444.0,627,464,60,126.0,478,1,130,266,201,0,0,468,-21944,10432,444,-5.59,,,,,,,,,,,,
333683,1564236552008,2,2.5,0.98,0.34,1.43,1.04,0.67,-0.45,1.12,9,-0,8,0.8,7999,100,87,39,89,913,447.0,615,457,60,125.0,478,1,447,554,201,0,0,468,-21792,6193,450,-5.59,,,,,,,,,,,,
333703,1564236552028,3,2.53,0.98,0.34,1.43,1.06,0.61,-0.49,1.07,10,-2,8,0.79,8145,100,87,39,90,906,451.0,620,461,60,127.0,374,1,446,581,168,0,0,444,3826,14488,451,-5.59,,,,,,,,,,,,
333723,1564236552048,2,2.55,0.98,0.35,1.43,1.06,0.68,-0.48,1.08,11,-5,10,0.83,8573,99,87,39,89,926,451.0,620,461,60,125.0,374,1,433,611,168,0,0,446,-4082,17628,451,-5.59,,,,,,,,,,,,
333743,1564236552068,3,2.54,0.98,0.35,1.43,1.06,0.76,-0.51,1.06,13,-7,11,0.91,8932,100,87,39,87,948,454.0,618,461,60,126.0,374,1,420,600,168,0,0,486,3635,30272,454,-5.59,44.681091,10.016843,39.83,179.4,0,0.0,-1,0.0,0.0,0,2.06,5.5624
333763,1564236552095,3,2.54,0.98,0.35,1.43,1.06,0.79,-0.46,1.03,14,-7,14,0.91,9441,100,87,39,86,980,460.0,637,466,60,126.0,374,1,418,578,168,0,0,522,243,-1923,460,-5.59,,,,,,,,,,,,
333783,1564236552115,2,2.53,0.99,0.35,1.43,1.06,0.76,-0.52,1.07,15,-6,17,0.92,9791,100,87,39,86,1024,468.0,649,462,60,126.0,374,1,406,586,168,0,0,538,243,-32768,468,-5.59,,,,,,,,,,,,
333803,1564236552135,0,2.5,0.98,0.35,1.43,1.07,0.6,-0.57,1.16,16,-3,19,0.83,10069,97,87,39,85,1055,475.0,650,457,60,126.0,456,1,400,572,214,0,0,539,19477,1248,475,-5.59,,,,,,,,,,,,
333823,1564236552155,1,2.48,0.98,0.35,1.43,1.07,0.54,-0.57,1.13,18,-0,23,0.79,10285,97,87,39,85,1076,485.0,651,461,60,127.0,456,1,415,572,214,0,0,532,23400,-28648,485,-5.59,,,,,,,,,,,,
333843,1564236552175,1,2.46,0.98,0.35,1.43,1.07,0.59,-0.5,1.13,19,1,25,0.77,10324,99,87,39,85,1096,491.0,660,460,60,126.0,456,1,418,554,214,0,0,517,2131,2104,491,-5.59,44.681084,10.016845,43.24,179.4,0,0.0,-1,0.0,0.0,0,2.06,5.5641
333863,1564236552197,3,2.44,0.99,0.35,1.43,1.06,0.64,-0.5,1.16,21,2,26,0.81,10262,100,87,39,85,1088,495.0,648,458,60,127.0,456,1,413,572,214,0,0,560,-6387,6274,495,-5.59,,,,,,,,,,,,
333883,1564236552217,3,2.43,0.99,0.35,1.43,1.07,0.61,-0.45,1.24,22,2,26,0.76,10234,88,87,39,85,1068,499.0,648,461,60,127.0,456,1,411,670,214,0,0,563,17628,-30064,499,-5.59,,,,,,,,,,,,
333903,1564236552237,2,2.42,0.99,0.35,1.43,1.06,0.56,-0.55,1.16,23,2,26,0.78,10157,68,87,39,85,1048,504.0,644,458,60,127.0,509,1,406,557,256,0,0,544,12552,-32248,504,-5.59,,,,,,,,,,,,
333923,1564236552257,1,2.43,0.99,0.35,1.44,1.06,0.54,-0.6,1.05,23,1,27,0.8,10179,0,87,39,84,1020,507.0,650,456,60,126.0,509,1,407,554,256,0,0,544,30272,2216,507,-5.59,,,,,,,,,,,,
333943,1564236552277,3,2.43,0.98,0.35,1.43,1.07,0.53,-0.61,1.0,22,-2,28,0.8,10201,52,87,39,85,1006,509.0,650,463,60,128.0,509,1,409,670,256,0,0,561,8488,-32248,512,-5.59,44.681068,10.016846,44.96,179.4,0,0.0,-1,0.0,0.0,0,2.06,5.5657
333963,1564236552295,3,2.43,0.98,0.35,1.43,1.07,0.5,-0.53,1.01,22,-3,29,0.72,10273,81,87,39,85,989,515.0,652,466,60,127.0,509,1,414,665,256,0,0,545,16648,-30159,515,-5.59,,,,,,,,,,,,
333983,1564236552315,3,2.43,0.98,0.35,1.44,1.06,0.51,-0.56,1.06,22,-3,28,0.76,10486,81,87,39,84,973,521.0,660,455,60,126.0,509,1,429,554,256,0,0,561,-1562,-22359,521,-5.59,,,,,,,,,,,,
334003,1564236552335,-3,2.42,0.98,0.35,1.44,1.06,0.49,-0.49,0.97,22,-3,28,0.69,10629,96,87,39,84,958,523.0,662,463,60,126.0,498,1,435,648,260,0,0,577,-32768,12552,523,-5.59,,,,,,,,,,,,
334023,1564236552355,2,2.43,0.99,0.35,1.43,1.07,0.43,-0.45,0.77,22,-4,30,0.62,10856,99,87,39,84,961,529.0,660,466,60,126.0,498,1,438,634,260,0,0,577,-22519,774,529,-5.59,,,,,,,,,,,,
334043,1564236552375,3,2.42,0.98,0.35,1.44,1.06,0.49,-0.53,0.82,23,-3,29,0.73,11068,100,87,39,84,961,537.0,660,469,60,127.0,498,1,443,615,260,0,0,589,15661,243,537,-5.59,44.681061,10.016846,47.36,179.3,0,0.0,-1,0.0,0.0,0,2.07,5.5674
334063,1564236552395,1,2.41,0.98,0.35,1.44,1.06,0.44,-0.6,0.9,24,-2,29,0.74,11127,100,87,39,84,948,539.0,656,465,60,127.0,498,1,442,596,260,0,0,580,10994,-3210,539,-5.59,,,,,,,,,,,,
334083,1564236552415,2,2.41,0.99,0.35,1.43,1.07,0.45,-0.59,0.81,23,-3,30,0.74,11207,77,87,39,84,938,547.0,668,462,60,126.0,498,1,442,539,260,0,0,608,-4054,2048,548,-5.59,,,,,,,,,,,,
334103,1564236552435,0,2.41,0.99,0.35,1.44,1.07,0.5,-0.62,0.93,24,-1,29,0.79,11281,51,87,39,84,928,551.0,672,457,60,127.0,498,1,441,539,273,0,0,601,26178,243,550,-5.59,,,,,,,,,,,,
334123,1564236552455,1,2.41,0.98,0.35,1.43,1.06,0.47,-0.67,0.93,24,-1,30,0.82,11308,12,87,39,84,910,556.0,668,465,60,127.0,498,1,441,539,273,0,0,589,1248,17740,556,-5.59,,,,,,,,,,,,
334143,1564236552475,1,2.4,0.98,0.35,1.43,1.07,0.47,-0.66,0.98,24,-1,29,0.81,11281,79,87,39,84,894,561.0,615,463,60,127.0,498,1,441,535,273,0,0,612,-32248,-7939,561,-5.59,44.681046,10.016845,50.28,179.3,0,0.0,-1,0.0,0.0,0,2.07,5.569
334163,1564236552495,-1,2.39,0.99,0.35,1.44,1.07,0.48,-0.79,1.06,24,-1,28,0.93,11315,80,87,39,84,872,565.0,588,463,60,127.0,498,1,441,539,273,0,0,613,-22519,-30139,567,-5.59,,,,,,,,,,,,
334183,1564236552515,-2,2.38,0.98,0.35,1.43,1.07,0.49,-0.76,1.0,23,-2,28,0.9,11160,77,88,39,83,861,569.0,619,462,60,129.0,498,1,442,521,273,0,0,620,-2934,-7939,569,-5.59,,,,,,,,,,,,
334203,1564236552535,-2,2.38,0.98,0.35,1.43,1.07,0.48,-0.69,0.92,22,-3,27,0.84,10498,81,88,39,86,854,575.0,589,461,60,128.0,397,1,431,575,228,0,0,577,1780,243,575,-5.59,,,,,,,,,,,,
334223,1564236552555,-1,2.36,0.99,0.35,1.44,1.06,0.61,-0.74,0.89,21,-6,24,0.96,10140,69,88,39,87,850,572.0,566,458,60,126.0,397,1,406,546,228,0,0,557,-22519,10432,572,-5.59,,,,,,,,,,,,
334243,1564236552575,-1,2.35,0.98,0.35,1.43,1.06,0.57,-0.78,0.94,20,-7,21,0.96,9842,100,88,39,87,846,569.0,615,461,60,127.0,397,1,404,695,228,0,0,557,-32248,-30159,569,-5.59,44.681034,10.016843,52.61,179.3,0,0.0,-1,0.0,0.0,0,2.07,5.5707
334263,1564236552595,1,2.34,0.98,0.34,1.43,1.06,0.6,-0.74,0.89,18,-8,21,0.95,9669,100,88,39,87,850,566.0,536,462,60,127.0,397,1,411,688,228,0,0,553,2524,774,566,-5.59,,,,,,,,,,,,
334283,1564236552615,1,2.32,0.98,0.34,1.43,1.07,0.6,-0.61,0.8,15,-6,21,0.86,9605,100,87,39,88,852,565.0,595,460,60,124.0,397,1,415,1157,228,0,0,551,-22263,-29984,565,-5.59,,,,,,,,,,,,
334303,1564236552635,3,2.32,0.98,0.35,1.43,1.06,0.74,-0.58,0.61,11,-9,25,0.94,9920,100,87,39,87,945,563.0,618,459,60,124.0,691,1,400,1004,390,0,0,559,-23623,12552,563,-5.59,,,,,,,,,,,,
334323,1564236552655,2,2.31,0.98,0.35,1.43,1.05,0.58,-0.46,0.64,9,-4,24,0.74,9832,100,87,39,85,1076,566.0,646,466,60,127.0,691,1,403,815,390,0,0,675,-2934,-30207,569,-5.59,,,,,,,,,,,,
334343,1564236552675,2,2.31,0.99,0.34,1.43,1.05,0.67,-0.43,0.61,8,-3,24,0.8,9522,100,87,39,85,1153,575.0,646,460,60,126.0,691,1,417,503,390,0,0,698,774,-3888,575,-5.59,44.681023,10.016839,55.63,179.3,0,0.0,-1,0.0,0.0,0,2.07,5.5724
334363,1564236552695,0,2.31,0.96,0.33,1.4,1.04,0.72,-0.47,0.52,7,-1,21,0.86,9605,100,87,39,85,1255,582.0,583,466,60,126.0,691,1,414,587,390,0,0,640,-4035,-30207,582,-5.59,,,,,,,,,,,,
334383,1564236552715,0,2.32,0.96,0.32,1.39,1.03,0.59,-0.39,0.66,6,-2,20,0.71,9375,100,87,39,86,1340,589.0,549,455,60,126.0,691,1,418,578,390,0,0,644,2048,20993,589,-5.59,,,,,,,,,,,,
334403,1564236552735,2,2.3,0.96,0.32,1.38,1.02,0.58,-0.36,0.79,5,-3,16,0.68,9137,100,87,39,86,1421,594.0,496,463,60,126.0,333,1,418,578,197,0,0,611,-13043,-16046,592,-5.59,,,,,,,,,,,,
334423,1564236552755,-0,2.31,0.95,0.31,1.38,1.01,0.43,-0.4,0.82,4,-1,15,0.59,8844,100,87,39,87,1440,597.0,516,461,60,126.0,333,1,423,578,197,0,0,646,-13043,479,597,-5.59,,,,,,,,,,,,
334443,1564236552775,2,2.3,0.95,0.31,1.37,1.02,0.35,-0.37,0.79,4,-2,12,0.51,8640,100,87,39,87,1419,606.0,552,461,60,125.0,333,1,428,589,197,0,0,631,-768,771,606,-5.59,44.681004,10.016834,55.85,179.3,0,0.0,-1,0.0,0.0,0,2.07,5.574
334463,1564236552795,2,2.29,0.95,0.32,1.37,1.02,0.28,-0.27,0.85,4,-3,12,0.39,8585,100,87,39,87,1343,607.0,593,461,60,126.0,333,1,430,589,197,0,0,649,-3446,4909,608,-5.59,,,,,,,,,,,,
334483,1564236552815,1,2.28,0.95,0.31,1.38,1.02,0.37,-0.29,0.84,3,-3,10,0.47,8581,100,87,39,87,1217,613.0,609,458,60,127.0,333,1,429,589,197,0,0,643,-28304,16599,611,-5.59,,,,,,,,,,,,
334503,1564236552835,0,2.26,0.95,0.31,1.37,1.02,0.44,-0.32,0.78,2,-3,9,0.54,8704,100,87,39,87,1133,619.0,631,461,60,127.0,315,1,426,589,193,0,0,642,30721,-8429,615,-5.59,,,,,,,,,,,,
334523,1564236552855,-0,2.28,0.95,0.32,1.37,1.02,0.21,-0.18,0.74,2,-2,8,0.27,8819,100,87,39,87,1073,623.0,633,461,60,126.0,315,1,423,589,193,0,0,652,3395,24583,619,-5.59,,,,,,,,,,,,
334543,1564236552875,1,2.28,0.95,0.31,1.38,1.02,0.06,-0.14,0.81,2,0,6,0.15,8962,99,87,39,86,988,628.0,642,461,60,127.0,315,1,419,589,193,0,0,654,771,24583,623,-5.59,44.680992,10.016829,57.92,179.3,0,0.0,-1,0.0,0.0,0,2.07,5.5757
334563,1564236552897,0,2.28,0.95,0.31,1.38,1.03,-0.14,0.03,0.78,2,2,6,0.15,9036,100,87,39,86,942,635.0,644,460,60,126.0,315,1,418,578,193,0,0,666,-4876,3543,627,-5.59,,,,,,,,,,,,
334583,1564236552917,0,2.28,0.96,0.32,1.39,1.02,-0.25,0.04,0.9,2,4,4,0.26,9062,99,87,39,87,917,638.0,647,457,60,127.0,315,1,418,578,193,0,0,668,16599,-388,635,-5.59,,,,,,,,,,,,
334603,1564236552937,1,2.28,0.96,0.32,1.4,1.03,-0.41,0.1,0.9,2,5,3,0.42,8984,100,87,39,86,941,644.0,640,465,60,127.0,320,1,419,589,203,0,0,664,11776,-26380,639,-5.59,,,,,,,,,,,,
334623,1564236552957,1,2.29,0.97,0.32,1.39,1.03,-0.5,0.09,1.01,2,7,2,0.5,9023,100,87,39,87,959,649.0,642,458,60,127.0,320,1,418,578,203,0,0,664,-30207,-26380,643,-5.59,,,,,,,,,,,,
334643,1564236552977,1,2.29,0.96,0.32,1.4,1.02,-0.59,0.05,1.06,3,9,2,0.6,9101,100,87,39,87,987,653.0,640,461,60,127.0,320,1,418,589,203,0,0,668,-3488,3543,646,-5.59,44.680977,10.016824,60.99,179.3,0,0.0,-1,0.0,0.0,0,2.07,5.5774
334663,1564236552997,2,2.29,0.96,0.32,1.39,1.03,-0.42,-0.03,1.15,2,8,-0,0.42,9200,100,87,39,86,1013,655.0,643,460,60,127.0,320,1,418,578,203,0,0,680,31988,-10346,651,-5.59,,,,,,,,,,,,
334683,1564236553009,2,2.28,0.96,0.32,1.39,1.03,-0.2,-0.09,1.19,1,7,-1,0.22,9309,100,87,39,86,1022,661.0,641,463,60,126.0,320,1,418,578,203,0,0,677,-2345,-10346,655,-5.59,,,,,,,,,,,,
334703,1564236553029,2,2.28,0.96,0.32,1.39,1.03,-0.06,-0.01,1.1,1,4,-2,0.06,9389,100,87,39,86,1027,665.0,646,462,60,127.0,310,1,418,578,204,0,0,694,-10348,11576,658,-5.59,,,,,,,,,,,,
334723,1564236553049,0,2.28,0.97,0.32,1.39,1.03,-0.03,0.03,1.07,0,2,-2,0.05,9460,100,87,39,86,1033,668.0,642,460,60,127.0,310,1,418,578,204,0,0,693,-2830,24,665,-5.59,,,,,,,,,,,,
334743,1564236553069,2,2.28,0.96,0.32,1.39,1.04,0.01,-0.1,1.11,-0,3,-2,0.1,9517,100,87,39,86,1034,675.0,655,458,60,126.0,310,1,418,578,204,0,0,702,-2345,15647,666,-5.59,44.680965,10.016818,62.36,179.3,0,0.0,-1,0.0,0.0,0,2.08,5.5791
334763,1564236553092,2,2.29,0.96,0.32,1.39,1.02,-0.03,-0.02,1.03,-0,4,-3,0.03,9551,100,87,39,85,1029,676.0,651,459,60,126.0,310,1,416,567,204,0,0,707,-2826,15647,675,-5.59,,,,,,,,,,,,
334783,1564236553112,-0,2.29,0.96,0.32,1.39,1.03,-0.05,0.13,0.94,-0,4,-2,0.14,9600,100,87,39,85,1023,683.0,651,459,60,126.0,310,1,414,567,204,0,0,712,-26562,-23490,680,-5.59,,,,,,,,,,,,
334803,1564236553132,3,2.29,0.96,0.32,1.4,1.02,0.03,0.05,0.9,-1,1,-4,0.06,9674,100,87,39,85,1010,685.0,652,461,60,127.0,307,1,410,568,208,0,0,713,16599,16118,680,-5.59,,,,,,,,,,,,
334823,1564236553152,1,2.27,0.96,0.32,1.39,1.02,0.12,0.12,0.96,-2,1,-4,0.17,9730,100,87,39,85,1002,692.0,648,462,60,126.0,307,1,408,505,208,0,0,713,14342,-3450,684,-5.59,,,,,,,,,,,,
334843,1564236553172,3,2.26,0.96,0.32,1.4,1.02,0.24,-0.03,0.96,-3,-0,-4,0.24,9775,99,87,39,85,995,695.0,655,466,60,127.0,307,1,407,569,208,0,0,725,-10448,-388,692,-5.59,44.680946,10.016812,64.47,179.3,0,0.0,-1,0.0,0.0,0,2.08,5.5807
334863,1564236553196,1,2.26,0.96,0.32,1.39,1.02,0.23,0.06,1.06,-3,3,-5,0.24,9827,100,87,38,85,986,699.0,654,457,60,127.0,307,1,403,555,208,0,0,720,-2830,-2830,696,-5.59,,,,,,,,,,,,
334883,1564236553216,3,2.26,0.96,0.31,1.38,1.02,0.3,0.02,0.96,-3,-0,-4,0.3,9920,100,87,38,85,977,701.0,651,463,60,126.0,307,1,397,571,208,0,0,727,19188,-2358,698,-5.59,,,,,,,,,,,,
334903,1564236553236,3,2.26,0.95,0.31,1.36,1.02,0.32,0.09,0.99,-3,2,-5,0.33,10026,100,87,38,85,965,709.0,658,457,60,126.0,309,1,397,572,216,0,0,731,-3888,-2830,699,-5.59,,,,,,,,,,,,
334923,1564236553256,0,2.27,0.95,0.3,1.36,1.01,0.23,0.06,1.09,-3,3,-6,0.24,10037,100,87,38,84,960,714.0,656,462,60,126.0,309,1,397,554,216,0,0,745,204,-2830,707,-5.59,,,,,,,,,,,,
334943,1564236553276,1,2.25,0.95,0.3,1.36,1.01,0.25,-0.01,1.08,-4,2,-7,0.25,10086,80,87,38,83,954,720.0,655,465,60,127.0,309,1,400,535,216,0,0,744,-3450,6790,712,-5.59,44.680931,10.016807,66.81,179.3,0,0.0,-1,0.0,0.0,0,2.08,5.5824
334963,1564236553294,2,2.26,0.94,0.3,1.34,1.0,0.42,-0.02,0.95,-4,2,-7,0.42,10091,56,87,38,76,947,722.0,663,465,60,127.0,309,1,400,489,216,0,0,744,-388,-22796,714,-5.59,,,,,,,,,,,,
334983,1564236553314,0,2.28,0.93,0.3,1.34,1.01,0.37,0.02,1.06,-4,2,-7,0.37,10032,36,87,38,66,943,728.0,660,462,60,127.0,309,1,402,411,216,0,0,747,-2830,-22796,717,-5.59,,,,,,,,,,,,
335003,1564236553334,0,2.27,0.93,0.29,1.35,1.0,0.44,0.0,1.08,-5,2,-8,0.44,9968,24,87,38,56,943,727.0,661,462,60,126.0,195,1,402,336,141,0,0,746,-2358,-2314,720,-5.59,,,,,,,,,,,,
335023,1564236553354,2,2.27,0.94,0.3,1.34,1.01,0.54,-0.06,1.0,-5,1,-8,0.54,9775,22,87,38,49,942,732.0,678,463,60,127.0,195,1,385,260,141,0,0,743,-2826,-2826,724,181.28,,,,,,,,,,,,
335043,1564236553374,4,2.28,0.94,0.3,1.35,1.0,0.56,0.02,0.91,-5,1,-8,0.56,9541,21,87,38,45,940,732.0,661,463,60,127.0,195,1,365,231,141,0,0,739,-2358,-4091,725,-5.59,44.680916,10.016801,69.07,179.3,0,0.0,-1,0.0,0.0,0,2.08,5.5841
335063,1564236553394,-0,2.28,0.94,0.3,1.36,1.0,0.46,0.16,0.92,-4,-1,-7,0.49,9375,22,87,38,43,937,731.0,656,462,60,128.0,195,1,348,222,141,0,0,731,-2314,-2826,725,-5.59,,,,,,,,,,,,
335083,1564236553414,1,2.27,0.95,0.3,1.37,1.01,0.37,0.09,0.93,-4,1,-9,0.38,9159,21,87,38,41,935,735.0,648,459,60,127.0,195,1,333,140,141,0,0,733,-2314,-13580,723,-5.59,,,,,,,,,,,,
335103,1564236553434,1,2.28,0.95,0.31,1.38,1.01,0.22,0.07,0.83,-4,2,-8,0.23,8949,21,87,38,41,927,735.0,646,468,60,128.0,102,1,332,214,74,0,0,722,-31066,-4091,727,-5.59,,,,,,,,,,,,
335123,1564236553454,5,2.27,0.95,0.31,1.38,1.01,0.13,0.01,0.73,-4,4,-9,0.13,8819,18,87,38,40,907,732.0,645,460,60,128.0,102,1,326,212,74,0,0,720,-2826,-13312,722,-5.59,,,,,,,,,,,,
335143,1564236553474,8,2.28,0.95,0.31,1.38,1.01,0.06,0.1,0.77,-4,5,-9,0.11,8815,11,87,38,37,873,726.0,645,462,60,128.0,102,1,314,203,74,0,0,712,-4091,204,715,-5.59,44.680897,10.016795,71.1,179.3,0,0.0,-1,0.0,0.0,0,2.08,5.5857
335163,1564236553494,9,2.28,0.94,0.31,1.37,1.02,0.04,0.19,0.8,-4,4,-9,0.2,8836,8,87,38,34,855,723.0,646,462,60,127.0,102,1,305,193,74,0,0,707,-25858,16599,712,-5.59,,,,,,,,,,,,
335183,1564236553514,8,2.28,0.95,0.3,1.37,1.01,0.04,0.32,0.81,-4,3,-8,0.32,8877,7,87,38,32,832,721.0,646,460,60,127.0,102,1,300,186,74,0,0,701,31988,11576,714,-5.59,,,,,,,,,,,,
335203,1564236553534,6,2.28,0.95,0.3,1.37,1.01,0.09,0.43,0.82,-4,3,-9,0.44,8903,6,87,38,30,818,716.0,647,459,60,126.0,87,1,291,186,62,0,0,698,16118,-10399,712,-5.59,,,,,,,,,,,,
335223,1564236553554,4,2.28,0.95,0.3,1.37,1.01,0.21,0.49,0.77,-4,-1,-9,0.54,8903,6,87,38,29,811,714.0,650,462,60,126.0,87,1,287,186,62,0,0,689,204,19188,705,-5.59,,,,,,,,,,,,
335243,1564236553574,2,2.28,0.94,0.3,1.37,1.01,0.36,0.54,0.68,-5,-0,-8,0.65,8928,5,88,38,27,827,710.0,646,457,60,128.0,87,1,278,186,62,0,0,693,204,11576,702,-5.59,44.680882,10.01679,72.17,179.3,0,0.0,-1,0.0,0.0,0,2.09,5.5874
335263,1564236553594,1,2.29,0.95,0.3,1.37,1.01,0.53,0.55,0.67,-5,-2,-8,0.77,8954,5,88,38,26,840,705.0,645,456,60,129.0,87,1,274,186,62,0,0,687,-20693,-2830,701,-5.59,,,,,,,,,,,,
335283,1564236553614,0,2.29,0.95,0.3,1.37,1.01,0.68,0.55,0.65,-5,-3,-8,0.87,8971,5,88,38,25,863,704.0,643,458,60,127.0,87,1,270,186,62,0,0,691,11069,-2830,700,-5.59,,,,,,,,,,,,
335303,1564236553634,1,2.28,0.95,0.3,1.38,1.01,0.81,0.54,0.62,-5,-7,-8,0.97,8979,5,88,38,25,881,700.0,642,458,60,126.0,90,1,270,186,63,0,0,688,-2830,-3584,695,-5.59,,,,,,,,,,,,
335323,1564236553654,4,2.28,0.95,0.3,1.38,1.01,0.93,0.57,0.53,-5,-7,-8,1.09,8992,5,88,38,24,887,698.0,642,456,60,127.0,90,1,270,179,63,0,0,678,24,16599,691,-5.59,,,,,,,,,,,,
335343,1564236553674,5,2.29,0.95,0.31,1.38,1.01,1.04,0.56,0.53,-5,-9,-7,1.18,9018,5,87,38,25,888,697.0,651,462,60,126.0,90,1,270,261,63,0,0,681,11576,-3584,690,-5.59,44.680866,10.016786,70.86,179.3,0,0.0,-1,0.0,0.0,0,2.09,5.589
335363,1564236553696,6,2.28,0.96,0.31,1.38,1.02,1.14,0.6,0.48,-6,-10,-7,1.29,9031,5,87,38,24,884,692.0,649,462,60,125.0,90,1,270,240,63,0,0,666,14342,-26380,684,-5.59,,,,,,,,,,,,
335383,1564236553716,5,2.29,0.96,0.3,1.38,1.02,1.23,0.62,0.46,-6,-12,-7,1.37,9027,0,87,38,24,880,686.0,651,462,60,125.0,90,1,270,221,63,0,0,669,16599,-3578,680,-5.59,,,,,,,,,,,,
335403,1564236553736,6,2.28,0.96,0.31,1.37,1.01,1.31,0.71,0.43,-6,-12,-7,1.49,9031,0,87,38,24,873,685.0,648,460,60,124.0,105,1,270,200,72,0,0,665,-10399,-10344,678,-5.59,,,,,,,,,,,,
335423,1564236553756,9,2.28,0.96,0.3,1.38,1.01,1.34,0.74,0.39,-6,-13,-5,1.53,9023,0,87,38,24,868,681.0,650,468,60,126.0,105,1,270,180,72,0,0,664,-26562,-2345,674,-5.59,,,,,,,,,,,,
335443,1564236553776,10,2.28,0.96,0.31,1.37,1.01,1.34,0.75,0.38,-6,-12,-6,1.54,8997,0,87,38,23,865,677.0,653,461,60,125.0,105,1,270,174,72,0,0,663,-26892,31988,668,-5.59,44.680847,10.016781,69.09,179.3,0,0.0,-1,0.0,0.0,0,2.09,5.5907
335463,1564236553796,12,2.28,0.96,0.31,1.38,1.01,1.34,0.8,0.41,-6,-14,-5,1.55,8924,0,87,38,23,865,671.0,651,465,60,126.0,105,1,270,174,72,0,0,658,8958,-3488,666,-5.59,,,,,,,,,,,,
335483,1564236553816,12,2.28,0.96,0.31,1.38,1.02,1.4,0.8,0.42,-6,-14,-6,1.61,8848,0,87,38,23,868,668.0,648,467,60,126.0,105,1,270,174,72,0,0,656,-2830,24583,659,-5.59,,,,,,,,,,,,
335503,1564236553836,11,2.28,0.95,0.31,1.38,1.02,1.46,0.76,0.39,-6,-15,-6,1.64,8790,0,87,38,23,875,664.0,646,466,60,126.0,88,1,270,174,58,0,0,650,1549,24583,654,-5.59,,,,,,,,,,,,
335523,1564236553856,11,2.28,0.96,0.3,1.38,1.01,1.52,0.71,0.3,-6,-14,-6,1.67,8773,0,87,38,23,883,661.0,645,466,60,126.0,88,1,270,174,58,0,0,645,-3038,-2830,652,-5.59,,,,,,,,,,,,
335543,1564236553876,11,2.28,0.96,0.3,1.38,1.02,1.52,0.59,0.22,-6,-11,-6,1.64,8724,0,87,38,24,901,658.0,642,467,60,126.0,88,1,270,179,58,0,0,632,31988,6208,649,-5.59,44.680828,10.016778,67.55,179.4,0,0.0,-1,0.0,0.0,0,2.09,5.5924
335563,1564236553896,16,2.28,0.95,0.3,1.37,1.02,1.37,0.51,0.2,-5,-9,-7,1.46,8648,0,87,38,24,910,650.0,641,463,60,125.0,88,1,270,103,58,0,0,636,2024,-2580,640,-5.59,,,,,,,,,,,,
335583,1564236553916,13,2.29,0.96,0.31,1.38,1.02,1.36,0.54,0.21,-5,-7,-8,1.46,8577,0,87,38,24,918,650.0,642,462,60,124.0,88,1,270,179,58,0,0,631,-8429,-4876,635,-5.59,,,,,,,,,,,,
335603,1564236553936,13,2.29,0.95,0.31,1.38,1.02,1.42,0.52,0.17,-5,-8,-7,1.52,8491,0,87,38,25,927,641.0,640,462,60,126.0,91,1,270,186,58,0,0,625,-2830,-18357,632,-5.59,,,,,,,,,,,,
335623,1564236553956,16,2.28,0.95,0.31,1.37,1.02,1.27,0.46,0.15,-5,-6,-7,1.36,8415,0,87,38,25,931,638.0,643,462,60,126.0,91,1,270,104,58,0,0,620,16599,30721,629,-5.59,,,,,,,,,,,,
335643,1564236553976,13,2.29,0.95,0.3,1.38,1.01,1.35,0.45,0.2,-5,-7,-7,1.42,8333,0,87,38,25,935,632.0,640,466,60,127.0,91,1,270,176,58,0,0,619,3,5344,625,-5.59,44.680813,10.016774,66.1,179.4,0,0.0,-1,0.0,0.0,0,2.09,5.594
335663,1564236553992,14,2.31,0.95,0.3,1.37,1.02,1.28,0.44,0.1,-4,-6,-8,1.36,8278,0,87,38,25,931,628.0,638,467,60,127.0,91,1,270,173,58,0,0,612,-16046,-28304,619,-5.59,,,,,,,,,,,,
335683,1564236554012,12,2.32,0.95,0.3,1.38,1.01,1.35,0.4,0.14,-4,-7,-8,1.41,8209,0,87,38,26,930,624.0,637,464,60,126.0,91,1,273,169,58,0,0,602,-16883,-28304,617,-5.59,,,,,,,,,,,,
335703,1564236554032,14,2.32,0.96,0.31,1.39,1.02,1.29,0.4,0.06,-4,-5,-7,1.35,8127,0,87,38,26,931,622.0,636,466,60,127.0,84,1,273,165,52,0,0,598,-18357,243,614,-5.59,,,,,,,,,,,,
335723,1564236554052,12,2.32,0.96,0.31,1.39,1.03,1.36,0.4,0.11,-3,-6,-6,1.42,8113,0,87,38,26,934,614.0,633,467,60,125.0,84,1,273,163,52,0,0,589,28675,-13043,610,-5.59,,,,,,,,,,,,
335743,1564236554072,13,2.32,0.97,0.31,1.39,1.03,1.26,0.34,0.08,-3,-5,-6,1.3,8064,0,87,38,26,937,610.0,634,465,60,126.0,84,1,273,161,52,0,0,585,17740,-12040,604,-5.59,44.680798,10.016771,64.25,179.4,0,0.0,-1,0.0,0.0,0,2.1,5.5957
335763,1564236554097,16,2.32,0.97,0.32,1.41,1.03,1.25,0.33,0.11,-3,-5,-6,1.29,7951,0,87,38,26,942,603.0,632,466,60,127.0,84,1,272,158,52,0,0,573,-7939,-3210,603,-5.59,,,,,,,,,,,,
335783,1564236554117,11,2.32,0.97,0.32,1.41,1.04,1.31,0.3,0.05,-3,-5,-4,1.34,7871,0,87,38,26,947,602.0,627,463,60,127.0,84,1,271,158,52,0,0,584,30227,-16179,600,-5.59,,,,,,,,,,,,
335803,1564236554137,12,2.33,0.97,0.32,1.41,1.04,1.35,0.26,0.09,-3,-5,-4,1.38,7815,0,87,38,26,952,597.0,628,466,60,126.0,77,1,271,158,46,0,0,587,23619,-25872,593,-5.59,,,,,,,,,,,,
335823,1564236554157,14,2.31,0.98,0.33,1.4,1.04,1.31,0.27,0.12,-2,-5,-4,1.34,7809,0,87,38,26,953,590.0,628,463,60,126.0,77,1,271,158,46,0,0,575,2048,1760,588,-5.59,,,,,,,,,,,,
335843,1564236554177,14,2.32,0.98,0.33,1.41,1.03,1.25,0.28,0.12,-1,-4,-5,1.28,7822,0,87,38,25,954,583.0,626,465,60,126.0,77,1,268,157,46,0,0,563,15649,-30159,580,-5.59,44.680782,10.016768,62.14,179.4,0,0.0,-1,0.0,0.0,0,2.1,5.5974
335863,1564236554197,16,2.32,0.98,0.33,1.41,1.04,1.2,0.24,0.05,-1,-3,-4,1.22,7712,0,87,38,25,953,578.0,631,462,60,127.0,77,1,267,157,46,0,0,563,-3210,1267,578,-5.59,,,,,,,,,,,,
335883,1564236554217,14,2.32,0.98,0.32,1.42,1.04,1.2,0.17,0.02,-1,-2,-3,1.21,7646,0,87,38,25,952,576.0,628,465,60,126.0,77,1,266,157,46,0,0,563,1,-28648,575,-5.59,,,,,,,,,,,,
335903,1564236554237,16,2.3,0.98,0.32,1.42,1.04,1.28,0.16,0.01,-2,-3,-2,1.29,7554,0,87,38,25,950,572.0,622,463,60,127.0,78,1,265,157,45,0,0,556,-8188,-32504,568,-5.59,,,,,,,,,,,,
335923,1564236554257,18,2.31,0.98,0.33,1.42,1.04,1.35,0.18,0.06,-2,-4,-2,1.36,7512,0,87,38,25,949,567.0,623,464,60,126.0,78,1,264,157,45,0,0,555,1780,-22359,564,-5.59,,,,,,,,,,,,
335943,1564236554277,17,2.32,0.98,0.33,1.42,1.05,1.33,0.19,0.07,-2,-3,-2,1.34,7464,0,87,38,25,953,558.0,621,463,60,127.0,78,1,264,157,45,0,0,544,-32504,-3082,563,-5.59,44.680767,10.016766,59.9,179.4,0,0.0,-1,0.0,0.0,0,2.1,5.5991
335963,1564236554297,16,2.33,0.98,0.33,1.42,1.04,1.33,0.13,0.08,-2,-2,-1,1.34,7437,0,87,38,25,958,555.0,620,466,60,126.0,78,1,264,157,45,0,0,539,2524,2524,555,-5.59,,,,,,,,,,,,
335983,1564236554317,14,2.33,0.98,0.33,1.41,1.04,1.35,0.15,0.06,-1,-3,-0,1.36,7338,0,87,38,25,966,552.0,613,462,60,127.0,78,1,263,157,45,0,0,544,-28648,2524,552,-5.59,,,,,,,,,,,,
336003,1564236554337,11,2.34,0.98,0.33,1.42,1.05,1.31,0.21,-0.02,-1,-2,-1,1.32,7315,0,87,38,25,973,549.0,612,463,60,127.0,78,1,263,157,43,0,0,541,2524,-9072,549,-5.59,,,,,,,,,,,,
336023,1564236554357,12,2.34,0.98,0.33,1.42,1.05,1.27,0.19,-0.05,-0,-1,-1,1.29,7273,0,87,38,25,985,546.0,612,463,60,126.0,78,1,262,157,43,0,0,535,-3082,-32248,546,-5.59,,,,,,,,,,,,
336043,1564236554377,10,2.33,0.98,0.33,1.43,1.04,1.27,0.16,-0.05,-0,-1,0,1.28,7287,0,87,38,25,1004,540.0,611,464,60,126.0,78,1,262,157,43,0,0,523,-2934,-9072,540,-5.59,44.680752,10.016764,57.56,179.4,0,0.0,-1,0.0,0.0,0,2.1,5.6007
336063,1564236554397,9,2.32,0.99,0.33,1.43,1.05,1.25,0.13,0.01,0,-0,1,1.26,7208,0,87,38,25,1011,539.0,607,464,60,125.0,78,1,262,157,43,0,0,524,-32248,2104,539,-5.59,,,,,,,,,,,,
336083,1564236554417,7,2.32,0.98,0.32,1.42,1.05,1.28,0.1,0.04,-0,-2,1,1.28,7181,0,87,38,26,1020,536.0,606,462,60,125.0,78,1,265,157,43,0,0,528,-32248,6274,536,-5.59,,,,,,,,,,,,
336103,1564236554437,3,2.32,0.98,0.33,1.42,1.05,1.24,0.15,0.05,-0,-1,1,1.25,7121,0,87,38,26,1022,536.0,606,465,60,126.0,78,1,265,158,42,0,0,529,-32248,2524,533,-5.59,,,,,,,,,,,,
336123,1564236554457,1,2.31,0.99,0.33,1.43,1.05,1.16,0.18,0.06,0,-0,1,1.18,7043,0,87,38,26,1021,533.0,601,463,60,125.0,78,1,264,158,42,0,0,526,-32248,2524,533,-5.59,,,,,,,,,,,,
336143,1564236554477,-1,2.31,0.98,0.33,1.42,1.05,1.14,0.15,0.08,-0,1,1,1.15,7075,0,87,38,26,1016,531.0,601,464,60,124.0,78,1,264,158,42,0,0,524,-22519,6274,529,-5.59,44.680737,10.016762,55.4,179.4,0,0.0,-1,0.0,0.0,0,2.1,5.6024
336163,1564236554497,2,2.32,0.98,0.33,1.43,1.05,1.16,0.09,0.14,-1,-0,1,1.16,7107,0,87,38,26,1007,529.0,602,462,60,126.0,78,1,265,158,42,0,0,526,2088,2524,528,-5.59,,,,,,,,,,,,
336183,1564236554517,1,2.31,0.98,0.33,1.42,1.04,1.16,0.12,0.12,-1,-1,1,1.17,7131,0,87,38,26,980,527.0,603,463,60,126.0,78,1,265,158,42,0,0,526,-32248,-3482,524,-5.59,,,,,,,,,,,,
336203,1564236554537,2,2.31,0.97,0.33,1.42,1.04,1.07,0.12,0.11,-0,1,0,1.07,7156,0,87,38,26,954,525.0,608,464,60,126.0,80,1,265,158,42,0,0,522,10408,16383,523,-5.59,,,,,,,,,,,,
336223,1564236554557,-2,2.31,0.98,0.33,1.42,1.04,1.1,0.07,0.17,-0,0,0,1.1,7088,0,87,38,27,940,525.0,607,465,60,124.0,80,1,268,159,42,0,0,524,2088,-22519,523,-5.59,,,,,,,,,,,,
336243,1564236554577,3,2.3,0.98,0.33,1.42,1.05,1.14,0.03,0.25,-0,-1,0,1.14,7046,0,87,38,27,920,524.0,602,463,60,124.0,80,1,268,158,42,0,0,519,2524,10408,522,-5.59,44.680725,10.016759,53.29,179.5,0,0.0,-1,0.0,0.0,0,2.1,5.6041
336263,1564236554598,2,2.3,0.97,0.33,1.42,1.05,1.11,0.11,0.24,0,-0,1,1.11,7033,0,87,38,27,901,522.0,598,463,60,126.0,80,1,268,159,42,0,0,521,2524,2524,521,-5.59,,,,,,,,,,,,
336283,1564236554618,-2,2.29,0.98,0.33,1.41,1.05,1.0,0.14,0.28,0,1,0,1.01,6983,0,87,38,27,886,521.0,597,466,60,124.0,80,1,269,159,42,0,0,516,-8187,15679,519,-5.59,,,,,,,,,,,,
336303,1564236554638,3,2.27,0.99,0.33,1.42,1.05,1.1,0.12,0.3,-1,-2,1,1.1,6954,0,87,38,27,874,518.0,595,466,60,124.0,81,1,269,159,42,0,0,516,1341,17136,516,-5.59,,,,,,,,,,,,
336323,1564236554658,1,2.25,0.98,0.32,1.42,1.05,1.05,0.17,0.22,-1,0,0,1.06,6978,0,87,38,27,870,520.0,595,462,60,126.0,81,1,269,159,42,0,0,512,1248,17136,514,-5.59,,,,,,,,,,,,
336343,1564236554678,-1,2.23,0.98,0.33,1.42,1.04,1.04,0.15,0.22,-3,0,0,1.06,6978,0,87,38,27,868,518.0,589,466,60,125.0,81,1,269,159,42,0,0,512,1341,16383,512,-5.59,44.68071,10.016757,52.14,179.5,0,0.0,-1,0.0,0.0,0,2.1,5.6057
336363,1564236554697,3,2.19,0.97,0.32,1.4,1.03,1.06,0.21,0.24,-5,0,-1,1.08,6970,0,87,38,27,869,516.0,592,463,60,126.0,81,1,269,159,42,0,0,516,16383,6274,507,-5.59,,,,,,,,,,,,
336383,1564236554717,-1,2.16,0.96,0.31,1.38,1.02,1.09,0.37,0.2,-7,0,-2,1.15,6970,0,87,38,27,870,521.0,588,464,60,125.0,81,1,269,159,42,0,0,515,-9212,2109,502,-5.59,,,,,,,,,,,,
336403,1564236554737,0,2.13,0.94,0.3,1.36,1.0,1.02,0.4,0.25,-9,-0,-4,1.09,6916,0,87,38,28,874,520.0,585,470,60,126.0,81,1,273,159,41,0,0,522,1248,-9216,497,-5.59,,,,,,,,,,,,
336423,1564236554757,0,2.12,0.93,0.3,1.34,0.99,1.09,0.45,0.26,-11,-2,-6,1.18,6873,0,87,38,27,877,524.0,587,460,60,127.0,81,1,270,159,41,0,0,521,10408,-6528,496,-5.59,,,,,,,,,,,,
336443,1564236554777,1,2.11,0.93,0.29,1.33,1.0,1.08,0.57,0.27,-13,-1,-7,1.22,6845,0,87,38,28,881,525.0,586,465,60,126.0,81,1,274,161,41,0,0,523,2088,1,494,-5.59,44.680698,10.016755,51.43,179.5,0,0.0,-1,0.0,0.0,0,2.11,5.6074
336463,1564236554795,3,2.1,0.92,0.29,1.32,0.99,1.08,0.59,0.27,-15,-1,-8,1.23,6835,0,88,38,28,885,524.0,583,461,60,128.0,81,1,274,161,41,0,0,520,10408,3580,488,-5.59,,,,,,,,,,,,
336483,1564236554815,4,2.1,0.92,0.28,1.33,0.98,1.12,0.73,0.31,-16,-1,-11,1.33,6835,0,88,38,28,887,521.0,578,460,60,128.0,81,1,274,161,41,0,0,517,-9212,-9203,480,-5.59,,,,,,,,,,,,
336503,1564236554835,3,2.07,0.91,0.28,1.33,0.98,1.08,0.75,0.37,-17,-1,-15,1.31,6656,0,87,38,28,889,517.0,575,464,60,128.0,8,1,275,161,4,0,0,510,15679,10432,476,-5.59,,,,,,,,,,,,
336523,1564236554855,2,2.09,0.92,0.29,1.33,0.99,1.09,0.79,0.35,-18,-1,-17,1.35,6691,0,87,38,29,889,516.0,574,465,60,126.0,8,1,278,162,4,0,0,517,16383,-8985,474,-5.59,,,,,,,,,,,,
336543,1564236554875,-0,2.1,0.92,0.29,1.33,0.99,1.06,0.78,0.35,-20,-1,-19,1.31,6592,0,87,38,29,890,516.0,570,463,60,127.0,8,1,279,162,4,0,0,513,16383,17628,477,-5.59,44.680687,10.016753,50.62,179.5,0,0.0,-1,0.0,0.0,0,2.11,5.609
336563,1564236554897,2,2.09,0.92,0.28,1.33,0.99,1.0,0.79,0.42,-21,-1,-21,1.27,6501,0,87,38,30,890,518.0,566,463,60,127.0,8,1,282,164,4,0,0,511,1341,12552,476,-5.59,,,,,,,,,,,,
336583,1564236554917,-1,2.09,0.93,0.29,1.34,0.99,0.99,0.92,0.4,-22,-0,-23,1.35,6494,0,87,38,30,889,517.0,563,465,60,126.0,8,1,283,87,4,0,0,509,15679,6193,474,-5.59,,,,,,,,,,,,
336603,1564236554937,1,2.09,0.93,0.28,1.34,0.98,1.04,0.92,0.42,-23,-1,-24,1.39,6521,0,87,38,30,890,512.0,561,464,60,127.0,84,1,282,87,40,0,0,510,17136,-3267,474,-5.59,,,,,,,,,,,,
336623,1564236554957,1,2.1,0.92,0.29,1.34,0.98,1.07,0.89,0.48,-24,-2,-26,1.39,6558,0,87,38,30,892,508.0,561,463,60,126.0,84,1,282,164,40,0,0,504,-3414,10305,471,-5.59,,,,,,,,,,,,
336643,1564236554977,-2,2.1,0.92,0.29,1.34,0.98,1.03,1.0,0.37,-24,-2,-27,1.43,6565,0,87,38,31,893,511.0,563,464,60,126.0,84,1,286,88,40,0,0,506,-3856,2131,471,-5.59,44.680672,10.016752,49.87,179.5,0,0.0,-1,0.0,0.0,0,2.11,5.6107
336663,1564236554991,1,2.09,0.92,0.28,1.34,0.98,1.01,0.98,0.36,-25,-2,-28,1.41,6519,0,87,39,31,896,510.0,563,462,60,128.0,84,1,286,165,40,0,0,507,-4054,-18341,467,-5.59,,,,,,,,,,,,
336683,1564236555011,1,2.08,0.93,0.29,1.33,0.98,1.02,0.98,0.38,-26,-1,-29,1.42,6427,0,87,39,31,900,511.0,557,464,60,127.0,84,1,286,88,40,0,0,506,-3856,15649,466,-5.59,,,,,,,,,,,,
336703,1564236555031,2,2.09,0.92,0.29,1.34,0.98,0.93,1.09,0.39,-27,0,-30,1.43,6306,0,87,39,31,905,509.0,553,462,60,126.0,83,1,286,165,39,0,0,509,10994,30272,465,-5.59,,,,,,,,,,,,
336723,1564236555051,-2,2.1,0.93,0.29,1.34,0.99,0.95,1.05,0.3,-27,-0,-32,1.42,6260,0,87,39,31,908,506.0,551,459,60,128.0,83,1,286,167,39,0,0,493,-28648,-28332,465,-5.59,,,,,,,,,,,,
336743,1564236555071,-2,2.1,0.93,0.28,1.33,0.98,1.06,1.11,0.41,-27,-8,-34,1.53,6229,3,87,39,32,912,496.0,550,462,60,129.0,83,1,290,167,39,0,0,497,771,-6656,462,-5.59,44.68066,10.016752,48.78,179.5,0,0.0,-1,0.0,0.0,0,2.11,5.6124
336763,1564236555094,1,2.1,0.92,0.29,1.34,0.98,0.9,1.04,0.31,-27,-10,-36,1.37,6555,5,87,39,32,919,496.0,549,465,60,127.0,83,1,290,167,39,0,0,478,-9216,1,458,-5.59,,,,,,,,,,,,
336783,1564236555114,0,2.09,0.93,0.29,1.34,0.99,0.91,1.14,0.18,-26,-5,-35,1.46,6658,5,87,39,32,926,496.0,555,464,60,128.0,83,1,290,167,39,0,0,465,3,3327,454,-5.59,,,,,,,,,,,,
336803,1564236555134,2,2.1,0.93,0.29,1.34,0.99,0.94,1.01,0.23,-28,-5,-36,1.38,6825,6,87,39,32,931,496.0,568,463,60,128.0,92,1,290,167,42,0,0,471,3,170,452,-5.59,,,,,,,,,,,,
336823,1564236555154,0,2.1,0.93,0.29,1.34,0.99,1.01,1.08,0.21,-29,-6,-38,1.48,6993,6,87,39,32,934,492.0,581,465,60,128.0,92,1,290,167,42,0,0,469,-32768,30720,447,-5.59,,,,,,,,,,,,
336843,1564236555174,0,2.11,0.94,0.29,1.34,0.99,0.96,1.02,0.31,-30,-6,-39,1.41,7137,6,87,39,31,934,493.0,594,465,60,128.0,92,1,285,165,42,0,0,468,-6528,28160,445,-5.59,44.680649,10.016754,47.47,179.5,0,0.0,-1,0.0,0.0,0,2.11,5.614
336863,1564236555196,-1,2.13,0.94,0.29,1.34,0.99,1.02,1.04,0.33,-31,-5,-40,1.46,7253,6,87,39,31,932,488.0,606,465,60,128.0,92,1,286,165,42,0,0,470,505,-1529,441,-5.59,,,,,,,,,,,,
336883,1564236555216,3,2.15,0.93,0.29,1.35,0.99,0.98,1.0,0.32,-31,-2,-40,1.4,7290,6,87,39,30,929,488.0,613,461,60,129.0,92,1,282,164,42,0,0,473,1,24064,439,-5.59,,,,,,,,,,,,
336903,1564236555236,0,2.2,0.93,0.29,1.35,0.98,0.99,0.95,0.29,-31,-3,-41,1.37,7315,6,87,39,29,924,485.0,617,463,60,129.0,102,1,278,162,45,0,0,478,-6441,125,438,-5.59,,,,,,,,,,,,
336923,1564236555256,1,2.22,0.93,0.3,1.35,0.99,0.95,1.0,0.24,-30,-4,-41,1.38,7315,5,87,39,29,916,480.0,620,462,60,127.0,102,1,278,162,45,0,0,461,10305,-29302,436,-5.59,,,,,,,,,,,,
336943,1564236555276,1,2.25,0.94,0.3,1.35,1.0,0.85,0.91,0.2,-28,-2,-41,1.25,7449,6,87,39,29,907,471.0,621,467,60,127.0,102,1,278,162,45,0,0,442,32033,770,436,-5.59,44.680637,10.016758,46.71,179.5,0,0.0,-1,0.0,0.0,0,2.11,5.6157
336963,1564236555294,2,2.28,0.94,0.3,1.36,1.0,0.74,0.87,0.15,-26,-2,-40,1.14,7554,8,87,39,28,901,463.0,625,461,60,128.0,102,1,275,161,45,0,0,436,6193,-8151,435,-5.59,,,,,,,,,,,,
336983,1564236555314,2,2.33,0.94,0.3,1.36,1.01,0.66,0.89,0.16,-23,-1,-38,1.11,7700,8,87,39,28,898,457.0,630,463,60,128.0,102,1,276,84,45,0,0,417,-9160,-9166,433,-5.59,,,,,,,,,,,,
337003,1564236555334,-1,2.37,0.95,0.31,1.38,1.01,0.69,0.82,0.13,-21,-1,-37,1.07,7802,12,87,39,29,888,451.0,628,465,60,128.0,108,1,280,162,47,0,0,406,3571,-3414,435,-5.59,,,,,,,,,,,,
337023,1564236555354,1,2.42,0.96,0.31,1.39,1.02,0.8,0.73,0.17,-19,-0,-33,1.09,7911,12,87,39,29,881,447.0,632,466,60,126.0,108,1,281,162,47,0,0,422,10305,-4082,434,-5.59,,,,,,,,,,,,
337043,1564236555374,2,2.46,0.97,0.32,1.4,1.04,0.75,0.59,0.25,-17,0,-29,0.96,8040,13,87,39,29,873,442.0,635,465,60,128.0,108,1,281,165,47,0,0,428,-28332,-3314,442,-5.59,44.680626,10.016762,44.97,179.5,0,0.0,-1,0.0,0.0,0,2.11,5.6174
337063,1564236555397,-1,2.5,0.98,0.32,1.41,1.04,0.8,0.5,0.29,-13,-1,-26,0.94,8092,11,87,39,29,870,442.0,636,465,60,128.0,108,1,282,166,47,0,0,422,1779,1779,442,-5.59,,,,,,,,,,,,
337083,1564236555417,1,2.53,0.99,0.34,1.42,1.06,0.78,0.43,0.26,-8,-1,-22,0.89,8187,13,87,39,29,865,444.0,634,463,60,127.0,108,1,283,171,47,0,0,418,-3856,19477,445,-5.59,,,,,,,,,,,,
337103,1564236555437,0,2.54,1.0,0.34,1.43,1.06,0.78,0.23,0.3,-3,-0,-18,0.81,8223,13,87,39,29,864,447.0,637,466,60,127.0,119,1,283,172,53,0,0,415,-3414,23400,447,-5.59,,,,,,,,,,,,
337123,1564236555457,1,2.55,1.0,0.34,1.43,1.06,0.85,0.1,0.37,1,-2,-14,0.85,8191,13,87,39,29,864,449.0,636,462,60,126.0,119,1,283,171,53,0,0,416,-9166,10305,451,-5.59,,,,,,,,,,,,
337143,1564236555477,3,2.54,1.0,0.34,1.44,1.06,0.81,-0.06,0.4,5,-0,-9,0.81,8106,13,87,39,29,866,452.0,633,466,60,128.0,119,1,282,167,53,0,0,411,13040,-3267,452,-5.59,44.680614,10.016767,44.0,179.5,0,0.0,-1,0.0,0.0,0,2.12,5.6191
337163,1564236555496,0,2.55,0.99,0.34,1.43,1.07,0.92,-0.21,0.36,8,3,-3,0.94,8023,13,87,39,29,872,451.0,631,466,60,127.0,119,1,281,165,53,0,0,409,-4059,8488,448,-5.59,,,,,,,,,,,,
337183,1564236555516,1,2.55,1.0,0.34,1.44,1.06,0.88,-0.32,0.42,10,6,3,0.93,7975,13,87,39,29,876,447.0,628,465,60,127.0,119,1,281,162,53,0,0,410,-4059,3571,447,-5.59,,,,,,,,,,,,
337203,1564236555536,3,2.54,0.99,0.34,1.44,1.05,0.86,-0.4,0.44,11,7,6,0.95,7878,1,87,39,29,880,446.0,634,466,60,128.0,107,1,280,159,48,0,0,409,9517,26704,446,-5.59,,,,,,,,,,,,
337223,1564236555556,-2,2.55,0.99,0.34,1.42,1.06,0.88,-0.47,0.42,13,7,10,1.0,7832,7,87,39,30,884,444.0,632,466,60,128.0,107,1,283,164,48,0,0,400,11560,26704,443,-5.59,,,,,,,,,,,,
337243,1564236555576,-1,2.55,0.98,0.34,1.42,1.05,0.88,-0.5,0.44,13,5,12,1.01,7747,0,87,39,30,891,440.0,628,466,60,128.0,107,1,283,161,48,0,0,388,11560,20625,440,-5.59,44.680607,10.016773,43.21,179.4,0,0.0,-1,0.0,0.0,0,2.12,5.6207
337263,1564236555596,-1,2.56,0.98,0.33,1.42,1.06,0.9,-0.53,0.41,14,2,14,1.04,7706,14,87,39,31,904,440.0,625,467,60,127.0,107,1,286,165,48,0,0,382,-26615,26704,439,-5.59,,,,,,,,,,,,
337283,1564236555616,0,2.55,0.98,0.34,1.42,1.05,0.88,-0.6,0.48,15,2,16,1.06,7693,14,87,39,31,911,440.0,625,466,60,126.0,107,1,286,165,48,0,0,379,2524,21580,440,-5.59,,,,,,,,,,,,
337303,1564236555636,1,2.54,0.98,0.34,1.43,1.05,0.88,-0.67,0.47,16,2,18,1.1,7615,14,87,39,31,921,440.0,625,465,60,128.0,108,1,286,165,48,0,0,376,-26615,2131,440,-5.59,,,,,,,,,,,,
337323,1564236555656,2,2.55,0.98,0.34,1.42,1.05,0.83,-0.76,0.44,17,3,20,1.12,7581,13,87,39,31,926,441.0,621,465,60,126.0,108,1,286,165,48,0,0,375,-26615,20625,440,-5.59,,,,,,,,,,,,
337343,1564236555676,1,2.55,0.99,0.33,1.43,1.05,0.8,-0.85,0.45,18,3,20,1.17,7536,14,87,39,32,934,441.0,621,466,60,126.0,108,1,290,167,48,0,0,394,2524,-768,441,-5.59,44.680595,10.016778,42.94,179.4,0,0.0,-1,0.0,0.0,0,2.12,5.6224
337363,1564236555696,3,2.55,0.98,0.34,1.42,1.06,0.78,-0.87,0.42,19,2,22,1.16,7563,13,87,39,32,940,438.0,620,462,60,127.0,108,1,290,167,48,0,0,397,1504,-768,437,-5.59,,,,,,,,,,,,
337383,1564236555716,3,2.56,0.98,0.34,1.42,1.06,0.74,-0.9,0.44,21,2,23,1.17,7631,14,87,39,33,941,435.0,620,464,60,128.0,108,1,292,172,48,0,0,391,10541,13552,435,-5.59,,,,,,,,,,,,
337403,1564236555736,3,2.57,0.98,0.34,1.42,1.05,0.8,-0.87,0.48,22,2,24,1.18,7716,16,87,39,33,940,433.0,621,463,60,127.0,115,1,292,172,50,0,0,382,6384,243,433,-5.59,,,,,,,,,,,,
337423,1564236555756,-2,2.57,0.97,0.33,1.41,1.06,0.86,-0.83,0.43,22,2,26,1.19,7728,17,87,39,34,933,433.0,625,464,60,128.0,115,1,295,172,50,0,0,379,-32702,-768,432,-5.59,,,,,,,,,,,,
337443,1564236555776,-0,2.57,0.98,0.33,1.42,1.05,0.87,-0.82,0.42,23,2,27,1.2,7760,16,87,39,35,929,433.0,624,465,60,127.0,115,1,298,177,50,0,0,377,-32702,243,433,-5.59,44.680588,10.016782,42.1,179.5,0,0.0,-1,0.0,0.0,0,2.12,5.6241
337463,1564236555796,1,2.57,0.98,0.34,1.41,1.06,0.85,-0.84,0.41,24,2,28,1.19,7728,10,87,39,35,920,434.0,532,465,60,126.0,115,1,298,183,50,0,0,384,17144,1779,434,-5.59,,,,,,,,,,,,
337483,1564236555816,2,2.58,0.98,0.33,1.42,1.05,0.83,-0.9,0.44,25,2,29,1.23,7703,15,87,39,36,912,434.0,407,466,60,127.0,115,1,301,189,50,0,0,391,-1818,5600,433,-5.59,,,,,,,,,,,,
337503,1564236555836,2,2.58,0.98,0.33,1.42,1.05,0.83,-0.94,0.43,25,2,30,1.25,7703,14,87,39,36,905,432.0,380,465,60,127.0,126,1,301,189,55,0,0,392,-1818,3635,432,-5.59,,,,,,,,,,,,
337523,1564236555856,2,2.59,0.98,0.33,1.42,1.05,0.82,-0.95,0.4,27,1,31,1.26,7687,9,87,39,36,896,431.0,431,464,60,128.0,126,1,301,185,55,0,0,390,-6656,31796,431,-5.59,,,,,,,,,,,,
337543,1564236555876,3,2.59,0.98,0.33,1.42,1.05,0.83,-0.94,0.4,28,1,32,1.26,7700,13,87,39,37,893,431.0,411,462,60,128.0,126,1,304,195,55,0,0,386,1,-3314,431,-5.59,44.680572,10.016785,41.7,179.4,0,0.0,-1,0.0,0.0,0,2.12,5.6257
337563,1564236555896,-0,2.6,0.98,0.34,1.41,1.06,0.88,-0.9,0.4,28,0,33,1.25,7671,21,87,39,38,891,429.0,412,463,60,128.0,126,1,307,201,55,0,0,388,-31744,-4082,429,-5.59,,,,,,,,,,,,
337583,1564236555916,-0,2.6,0.98,0.34,1.41,1.06,0.88,-0.9,0.4,29,1,34,1.26,7706,26,87,39,40,890,430.0,377,463,60,127.0,126,1,317,232,55,0,0,389,-31744,3635,430,-5.59,,,,,,,,,,,,
337603,1564236555936,0,2.61,0.98,0.34,1.42,1.05,0.9,-0.94,0.44,29,0,34,1.3,7738,30,87,39,43,891,430.0,352,465,60,126.0,156,1,340,235,67,0,0,382,240,13180,429,-5.59,,,,,,,,,,,,
337623,1564236555956,2,2.61,0.98,0.34,1.42,1.05,0.87,-0.99,0.46,29,0,35,1.32,7802,35,87,39,46,893,428.0,388,462,60,127.0,156,1,362,237,67,0,0,388,-3866,31796,428,-5.59,,,,,,,,,,,,
337643,1564236555976,3,2.62,0.98,0.34,1.41,1.06,0.84,-1.03,0.43,30,0,36,1.33,7921,38,87,39,50,895,428.0,357,463,60,127.0,156,1,378,250,67,0,0,390,240,1779,428,-5.59,44.680565,10.016787,41.41,179.4,0,0.0,-1,0.0,0.0,0,2.12,5.6274
337663,1564236555996,-2,2.64,0.98,0.34,1.42,1.06,0.92,-1.03,0.4,30,-1,37,1.38,7968,39,87,39,53,898,425.0,382,462,60,128.0,156,1,387,271,67,0,0,387,-6475,-3856,425,-5.59,,,,,,,,,,,,
337683,1564236556009,1,2.64,0.98,0.34,1.42,1.06,0.9,-1.06,0.43,31,-2,37,1.39,8088,41,87,39,56,902,427.0,353,461,60,126.0,156,1,407,203,67,0,0,386,-6475,31796,426,-5.59,,,,,,,,,,,,
337703,1564236556029,-0,2.63,0.98,0.34,1.42,1.06,0.89,-1.07,0.48,31,-0,37,1.39,8120,44,87,39,58,904,426.0,344,464,60,128.0,208,1,424,298,89,0,0,386,19125,13180,426,-5.59,,,,,,,,,,,,
337723,1564236556049,2,2.63,0.98,0.33,1.42,1.05,0.94,-1.05,0.43,31,-3,39,1.41,8256,18,87,39,61,906,425.0,325,465,60,126.0,208,1,448,302,89,0,0,398,-992,-3322,425,-5.59,,,,,,,,,,,,
337743,1564236556069,0,2.63,0.98,0.33,1.42,1.05,0.86,-1.07,0.4,32,-2,40,1.37,8234,51,87,39,61,924,426.0,333,460,60,128.0,208,1,449,371,89,0,0,432,-18948,13552,426,-5.59,44.680553,10.016788,40.95,179.4,0,0.0,-1,0.0,0.0,0,2.12,5.6291
337763,1564236556095,1,2.63,0.98,0.34,1.43,1.06,0.87,-1.07,0.37,33,-2,41,1.38,8263,52,87,39,63,937,427.0,341,463,60,128.0,208,1,447,365,89,0,0,477,-992,-3314,427,-5.59,,,,,,,,,,,,
337783,1564236556115,-1,2.64,0.98,0.34,1.42,1.05,0.84,-1.07,0.43,34,-1,40,1.36,8404,52,87,39,63,953,428.0,329,461,60,127.0,208,1,444,376,89,0,0,486,-18948,-4082,428,-5.59,,,,,,,,,,,,
337803,1564236556135,1,2.64,0.98,0.34,1.42,1.06,0.78,-1.07,0.4,34,-0,41,1.32,8534,52,87,39,63,969,425.0,338,464,60,127.0,277,1,440,272,118,0,0,476,-18948,-3856,425,-5.59,,,,,,,,,,,,
337823,1564236556155,2,2.64,0.98,0.34,1.43,1.05,0.87,-1.01,0.35,34,-3,43,1.33,8656,51,87,39,63,1040,425.0,329,463,60,126.0,277,1,430,361,118,0,0,471,-18948,13180,425,-5.59,,,,,,,,,,,,
337843,1564236556175,1,2.64,0.98,0.34,1.42,1.06,0.85,-1.02,0.4,35,-2,43,1.33,8704,53,87,39,62,1091,428.0,327,464,60,128.0,277,1,426,355,118,0,0,481,-992,1779,428,-5.59,44.680546,10.016786,40.1,179.4,0,0.0,-1,0.0,0.0,0,2.12,5.6307
337863,1564236556198,1,2.64,0.98,0.34,1.43,1.06,0.83,-1.04,0.48,36,-2,43,1.33,8720,51,87,39,62,1149,430.0,340,465,60,127.0,277,1,424,347,118,0,0,496,19125,19477,430,-5.59,,,,,,,,,,,,
337883,1564236556218,0,2.63,0.99,0.34,1.43,1.06,0.8,-1.1,0.49,37,-2,43,1.36,8749,51,87,39,61,1214,433.0,355,465,60,128.0,277,1,422,393,118,0,0,507,8200,23400,432,-5.59,,,,,,,,,,,,
337903,1564236556238,1,2.64,0.99,0.34,1.43,1.05,0.75,-1.1,0.53,37,-1,44,1.33,8660,53,87,39,62,1259,432.0,345,465,60,127.0,255,1,430,268,110,0,0,497,-18948,21580,432,-5.59,,,,,,,,,,,,
337923,1564236556258,2,2.61,0.98,0.34,1.43,1.07,0.75,-1.1,0.64,38,-2,45,1.34,8757,49,87,39,62,1336,434.0,355,462,60,126.0,255,1,421,393,110,0,0,475,-19019,19477,434,-5.59,,,,,,,,,,,,
337943,1564236556278,0,2.6,0.99,0.34,1.43,1.07,0.79,-1.07,0.67,37,-2,44,1.33,8733,54,87,39,61,1360,437.0,384,465,60,126.0,255,1,423,387,110,0,0,480,-6475,2131,437,-5.59,44.680534,10.016784,40.28,179.3,0,0.0,-1,0.0,0.0,0,2.12,5.6324
337963,1564236556297,1,2.55,0.99,0.34,1.43,1.06,0.76,-1.03,0.64,37,-0,45,1.28,8753,47,87,39,62,1368,440.0,408,466,60,127.0,255,1,421,270,110,0,0,504,-31744,-3267,440,-5.59,,,,,,,,,,,,
337983,1564236556317,0,2.5,0.99,0.34,1.43,1.06,0.69,-0.98,0.62,36,1,45,1.2,8757,54,87,39,62,1380,441.0,442,463,60,128.0,255,1,421,341,110,0,0,507,505,17628,440,-5.59,,,,,,,,,,,,
338003,1564236556337,-1,2.47,0.99,0.34,1.43,1.06,0.66,-1.03,0.68,36,1,45,1.22,8790,49,87,39,63,1386,440.0,466,462,60,127.0,256,1,418,342,113,0,0,464,-3968,3571,440,-5.59,,,,,,,,,,,,
338023,1564236556357,2,2.43,0.99,0.34,1.42,1.06,0.61,-1.01,0.74,35,2,45,1.18,8749,54,87,39,62,1390,439.0,495,465,60,127.0,256,1,422,387,113,0,0,448,6512,2524,439,-5.59,,,,,,,,,,,,
338043,1564236556377,2,2.39,0.98,0.34,1.42,1.06,0.62,-0.92,0.8,33,2,45,1.11,8684,54,87,39,62,1388,439.0,505,463,60,127.0,256,1,426,379,113,0,0,453,-9211,17628,440,-5.59,44.680527,10.01678,40.8,179.4,0,0.0,-1,0.0,0.0,0,2.13,5.634
338063,1564236556397,-0,2.35,0.98,0.34,1.42,1.06,0.64,-0.81,0.73,30,1,43,1.03,8600,50,87,39,63,1383,440.0,514,461,60,127.0,256,1,434,344,113,0,0,451,-26615,-6387,440,-5.59,,,,,,,,,,,,
338083,1564236556417,0,2.31,0.98,0.33,1.42,1.05,0.5,-0.75,0.75,28,1,39,0.9,8374,55,87,39,63,1370,441.0,528,462,60,127.0,256,1,445,343,113,0,0,450,-4082,17628,440,-5.59,,,,,,,,,,,,
338103,1564236556437,-0,2.3,0.97,0.33,1.41,1.04,0.57,-0.65,0.87,24,-0,37,0.86,8289,55,87,39,64,1362,440.0,541,461,60,127.0,244,1,446,339,108,0,0,449,-3314,-6387,440,-5.59,,,,,,,,,,,,
338123,1564236556457,3,2.26,0.97,0.33,1.4,1.05,0.47,-0.55,0.82,21,0,34,0.73,8238,54,87,39,66,1351,440.0,547,464,60,128.0,244,1,444,352,108,0,0,453,-28332,-6387,440,-5.59,,,,,,,,,,,,
338143,1564236556477,1,2.24,0.95,0.32,1.39,1.03,0.59,-0.43,0.78,17,-3,31,0.73,8249,52,87,39,67,1339,442.0,533,460,60,127.0,244,1,443,359,108,0,0,448,23400,2524,437,-5.59,44.680515,10.016775,41.38,179.4,0,0.0,-1,0.0,0.0,0,2.13,5.6357
338163,1564236556497,-2,2.22,0.94,0.31,1.35,1.02,0.52,-0.34,0.7,14,-5,28,0.62,8300,53,87,39,67,1313,446.0,546,463,60,127.0,244,1,442,368,108,0,0,452,16648,-6387,438,-5.59,,,,,,,,,,,,
338183,1564236556517,2,2.19,0.92,0.29,1.31,0.99,0.64,-0.27,0.67,10,-7,25,0.69,8378,52,87,39,67,1298,450.0,553,462,60,127.0,244,1,439,364,108,0,0,456,-3267,15649,437,-5.59,,,,,,,,,,,,
338203,1564236556537,-1,2.2,0.9,0.28,1.28,0.98,0.64,-0.19,0.67,7,-6,20,0.67,8534,54,87,39,67,1286,453.0,574,464,60,128.0,264,1,433,367,116,0,0,457,-8985,17628,438,-5.59,,,,,,,,,,,,
338223,1564236556557,1,2.18,0.9,0.27,1.28,0.97,0.6,-0.05,0.61,6,-6,17,0.6,8604,50,87,39,66,1268,457.0,596,464,60,129.0,264,1,431,418,116,0,0,460,-9160,2211,441,-5.59,,,,,,,,,,,,
338243,1564236556577,2,2.18,0.9,0.27,1.28,0.97,0.69,0.04,0.57,4,-5,14,0.69,8608,56,87,39,65,1254,460.0,613,462,60,127.0,264,1,432,402,116,0,0,464,-23623,14488,442,-5.59,44.680508,10.016768,43.05,179.4,0,0.0,-1,0.0,0.0,0,2.13,5.6374
338263,1564236556597,1,2.16,0.9,0.27,1.28,0.97,0.76,0.02,0.65,2,-6,10,0.76,8733,56,87,39,64,1237,462.0,625,465,60,128.0,264,1,423,281,116,0,0,463,12552,17628,443,-5.59,,,,,,,,,,,,
338283,1564236556617,0,2.14,0.9,0.27,1.28,0.98,0.85,-0.06,0.65,-0,-5,6,0.85,8865,56,87,39,64,1231,465.0,633,466,60,128.0,264,1,413,384,116,0,0,469,30272,243,443,-5.59,,,,,,,,,,,,
338303,1564236556637,1,2.11,0.89,0.27,1.28,0.97,0.97,-0.08,0.69,-3,-4,3,0.97,8924,57,87,39,63,1227,465.0,641,468,60,127.0,284,1,407,370,126,0,0,472,30272,8488,444,-5.59,,,,,,,,,,,,
338323,1564236556657,0,2.08,0.9,0.27,1.29,0.96,0.99,-0.05,0.82,-4,-2,0,0.99,8886,56,87,39,63,1237,470.0,640,463,60,128.0,284,1,410,362,126,0,0,476,8488,3580,446,-5.59,,,,,,,,,,,,
338343,1564236556677,2,2.06,0.89,0.26,1.29,0.97,1.06,-0.04,0.78,-6,-2,-3,1.06,8907,54,87,39,63,1242,473.0,645,465,60,128.0,284,1,409,354,126,0,0,479,3576,771,446,-5.59,44.680496,10.016762,44.01,179.4,0,0.0,-1,0.0,0.0,0,2.13,5.639
338363,1564236556693,1,2.04,0.89,0.27,1.28,0.97,0.97,0.08,0.9,-8,-3,-7,0.98,8958,53,87,39,63,1255,476.0,644,467,60,128.0,284,1,405,350,126,0,0,479,-23367,3576,446,-5.59,,,,,,,,,,,,
338383,1564236556713,-0,2.05,0.89,0.27,1.28,0.95,1.0,0.13,0.96,-9,-4,-10,1.01,9031,54,87,39,62,1269,478.0,645,467,60,128.0,284,1,399,351,126,0,0,485,16648,-6441,446,-5.59,,,,,,,,,,,,
338403,1564236556733,1,2.04,0.89,0.26,1.27,0.96,0.99,0.14,0.98,-11,-4,-14,1.0,9027,57,87,39,63,1270,481.0,646,463,60,128.0,268,1,400,351,120,0,0,484,32033,-6528,447,-5.59,,,,,,,,,,,,
338423,1564236556753,1,2.04,0.89,0.26,1.28,0.95,1.03,0.11,1.02,-14,-6,-16,1.03,9075,56,87,39,63,1271,483.0,645,467,60,128.0,268,1,402,351,120,0,0,492,3580,11560,450,-5.59,,,,,,,,,,,,
338443,1564236556773,2,2.04,0.89,0.26,1.29,0.96,1.09,0.06,0.96,-16,-5,-20,1.09,9182,56,87,39,62,1255,484.0,640,468,60,128.0,268,1,405,346,120,0,0,490,-10483,-899,449,-5.59,44.680489,10.016754,44.0,179.4,0,0.0,-1,0.0,0.0,0,2.13,5.6407
338463,1564236556797,2,2.04,0.89,0.26,1.28,0.96,1.17,0.11,0.88,-17,-7,-22,1.18,9375,42,87,39,62,1244,489.0,647,460,60,127.0,268,1,409,338,120,0,0,496,505,-21872,448,-5.59,,,,,,,,,,,,
338483,1564236556817,-1,2.03,0.89,0.26,1.27,0.96,1.14,0.26,0.84,-19,-7,-24,1.17,9403,57,87,39,62,1236,490.0,646,468,60,128.0,268,1,410,393,120,0,0,497,-1818,-22519,450,-5.59,,,,,,,,,,,,
338503,1564236556837,1,2.05,0.89,0.26,1.28,0.95,0.98,0.42,0.82,-20,-5,-25,1.07,9493,56,87,39,62,1223,494.0,646,466,60,128.0,265,1,413,399,120,0,0,502,998,-3414,450,-5.59,,,,,,,,,,,,
338523,1564236556857,3,2.04,0.89,0.26,1.28,0.96,0.97,0.45,0.8,-21,-4,-27,1.07,9576,56,87,39,62,1225,496.0,651,457,60,127.0,265,1,414,397,120,0,0,505,3,-9216,453,-5.59,,,,,,,,,,,,
338543,1564236556877,0,2.05,0.89,0.26,1.28,0.96,0.89,0.61,0.81,-22,-4,-27,1.08,9571,54,87,39,61,1226,498.0,653,458,60,128.0,265,1,414,380,120,0,0,507,2524,15679,455,-5.59,44.680477,10.016749,45.3,179.4,0,0.0,-1,0.0,0.0,0,2.13,5.6424
338563,1564236556897,0,2.05,0.89,0.26,1.27,0.96,0.95,0.64,0.88,-23,-6,-29,1.14,9580,58,87,39,61,1220,500.0,656,466,60,128.0,265,1,413,372,120,0,0,512,10408,2088,455,-5.59,,,,,,,,,,,,
338583,1564236556917,0,2.06,0.88,0.26,1.28,0.96,0.95,0.64,0.88,-25,-6,-30,1.14,9640,58,87,39,61,1216,503.0,653,466,60,127.0,265,1,413,364,120,0,0,513,-32248,-22519,457,-5.59,,,,,,,,,,,,
338603,1564236556937,2,2.07,0.89,0.26,1.27,0.96,0.87,0.78,0.87,-25,-4,-29,1.17,9689,58,87,39,61,1206,505.0,656,461,60,128.0,288,1,413,362,132,0,0,517,6274,10408,458,-5.59,,,,,,,,,,,,
338623,1564236556957,3,2.07,0.88,0.26,1.29,0.96,0.76,0.75,0.78,-25,-4,-31,1.06,9704,57,87,39,61,1200,507.0,655,462,60,128.0,288,1,413,353,132,0,0,517,-21872,-32248,461,-5.59,,,,,,,,,,,,
338643,1564236556977,1,2.08,0.88,0.26,1.29,0.95,0.68,0.87,0.73,-25,-4,-32,1.11,9689,43,87,39,61,1179,511.0,652,463,60,128.0,288,1,413,343,132,0,0,523,-3856,1779,461,-5.59,44.680466,10.016744,45.93,179.4,0,0.0,-1,0.0,0.0,0,2.13,5.6441
338663,1564236556997,1,2.11,0.89,0.26,1.28,0.96,0.68,0.82,0.66,-26,-4,-33,1.06,9842,58,87,39,60,1161,511.0,656,449,60,127.0,288,1,409,361,132,0,0,519,-3856,-4054,468,-5.59,,,,,,,,,,,,
338683,1564236557010,2,2.11,0.9,0.26,1.29,0.95,0.73,0.94,0.73,-26,-5,-33,1.19,9904,59,88,39,60,1153,512.0,655,455,60,127.0,288,1,408,357,132,0,0,527,17136,2088,471,-5.59,,,,,,,,,,,,
338703,1564236557030,-1,2.13,0.89,0.26,1.29,0.96,0.7,0.94,0.74,-26,-4,-34,1.17,9894,58,87,39,60,1143,516.0,662,455,60,127.0,282,1,409,356,133,0,0,528,16383,2524,473,-5.59,,,,,,,,,,,,
338723,1564236557050,2,2.13,0.9,0.26,1.3,0.96,0.81,0.96,0.78,-27,-5,-34,1.25,9952,58,87,39,60,1124,520.0,661,458,60,128.0,282,1,408,359,133,0,0,535,1248,15679,478,-5.59,,,,,,,,,,,,
338743,1564236557070,2,2.14,0.9,0.27,1.29,0.96,0.76,0.97,0.88,-27,-4,-34,1.24,9994,58,87,39,60,1112,522.0,655,457,60,128.0,282,1,408,361,133,0,0,536,2524,2524,481,-5.59,44.680454,10.016739,47.02,179.4,0,0.0,-1,0.0,0.0,0,2.13,5.6457
338763,1564236557092,-0,2.14,0.9,0.27,1.29,0.96,0.84,0.92,0.88,-27,-6,-33,1.25,9936,59,87,39,60,1101,522.0,660,458,60,127.0,282,1,408,360,133,0,0,534,2524,-28648,486,-5.59,,,,,,,,,,,,
338783,1564236557112,1,2.14,0.9,0.27,1.3,0.96,0.93,0.98,0.96,-26,-7,-33,1.35,9936,59,87,39,60,1096,522.0,658,447,60,128.0,282,1,408,359,133,0,0,535,2524,-22519,487,-5.59,,,,,,,,,,,,
338803,1564236557132,2,2.15,0.91,0.27,1.29,0.96,0.79,0.96,0.95,-26,-7,-33,1.24,9984,58,88,39,60,1088,524.0,660,452,60,128.0,275,1,408,361,135,0,0,538,10408,-8962,493,-5.59,,,,,,,,,,,,
338823,1564236557152,-1,2.17,0.9,0.27,1.3,0.97,0.91,0.9,0.95,-25,-7,-32,1.29,10005,58,88,39,60,1083,528.0,660,462,60,128.0,275,1,407,362,135,0,0,539,-28648,-32248,495,-5.59,,,,,,,,,,,,
338843,1564236557172,2,2.16,0.91,0.27,1.31,0.97,1.02,0.94,1.04,-25,-8,-32,1.39,10037,59,88,39,60,1079,530.0,662,440,60,128.0,275,1,412,362,135,0,0,540,-9072,2524,502,-5.59,44.680443,10.016737,48.17,179.5,0,0.0,-1,0.0,0.0,0,2.14,5.6474
338863,1564236557196,2,2.17,0.9,0.26,1.31,0.98,0.89,0.91,1.08,-24,-8,-32,1.27,10102,59,88,39,60,1079,533.0,656,443,60,128.0,275,1,414,364,135,0,0,541,-9072,-30064,504,-5.59,,,,,,,,,,,,
338883,1564236557216,0,2.16,0.91,0.27,1.31,0.98,0.92,0.9,1.08,-23,-5,-31,1.28,10069,59,87,39,60,1075,536.0,659,454,60,128.0,275,1,412,363,135,0,0,549,-28648,1780,510,-5.59,,,,,,,,,,,,
338903,1564236557236,-1,2.17,0.91,0.28,1.32,0.97,1.03,0.95,1.06,-23,-9,-30,1.4,10113,59,87,39,60,1068,537.0,660,455,60,128.0,272,1,418,364,139,0,0,547,-2934,-2934,512,-5.59,,,,,,,,,,,,
338923,1564236557256,2,2.16,0.91,0.27,1.32,0.97,1.01,1.04,1.14,-22,-8,-29,1.45,10201,59,88,39,60,1061,540.0,661,461,60,127.0,272,1,421,366,139,0,0,547,-8186,-32248,518,-5.59,,,,,,,,,,,,
338943,1564236557276,3,2.16,0.92,0.28,1.33,0.97,0.87,1.03,1.08,-22,-6,-28,1.35,10240,58,87,39,60,1057,542.0,659,457,60,127.0,272,1,424,366,139,0,0,551,-3082,2216,517,-5.59,44.680428,10.016736,49.87,179.5,0,0.0,-1,0.0,0.0,0,2.14,5.649
338963,1564236557296,2,2.16,0.92,0.28,1.33,0.98,0.68,0.99,0.98,-21,-5,-28,1.2,10359,58,88,39,61,1052,544.0,666,456,60,127.0,272,1,438,377,139,0,0,555,-506,2104,522,-5.59,,,,,,,,,,,,
338983,1564236557316,2,2.17,0.92,0.28,1.33,0.98,0.55,0.89,0.96,-20,-4,-28,1.04,10359,59,87,38,61,1046,548.0,665,458,60,127.0,272,1,438,377,139,0,0,555,14504,-28648,525,-5.59,,,,,,,,,,,,
339003,1564236557336,1,2.17,0.92,0.28,1.33,0.98,0.53,0.79,0.93,-20,-3,-29,0.95,10434,58,87,38,61,1044,550.0,667,461,60,127.0,283,1,444,378,149,0,0,556,-32248,2216,525,-5.59,,,,,,,,,,,,
339023,1564236557356,2,2.16,0.92,0.28,1.33,0.98,0.52,0.83,0.84,-20,-2,-28,0.98,10439,58,88,38,61,1045,554.0,666,459,60,127.0,283,1,444,378,149,0,0,559,2524,-22359,529,-5.59,,,,,,,,,,,,
339043,1564236557376,0,2.17,0.92,0.28,1.33,0.98,0.44,0.95,0.75,-19,-1,-27,1.05,10533,58,88,38,61,1044,556.0,665,458,60,128.0,283,1,450,379,149,0,0,563,-22359,2524,530,-5.59,44.680416,10.016736,51.43,179.4,0,0.0,-1,0.0,0.0,0,2.14,5.6507
339063,1564236557398,1,2.17,0.92,0.28,1.33,0.99,0.33,0.9,0.65,-19,-3,-27,0.96,10533,59,88,38,61,1041,559.0,657,456,60,127.0,283,1,450,380,149,0,0,562,-32504,1760,532,-5.59,,,,,,,,,,,,
339083,1564236557418,2,2.17,0.93,0.28,1.33,0.98,0.31,0.88,0.63,-19,-0,-27,0.93,10617,58,88,38,61,1038,559.0,657,457,60,128.0,283,1,450,391,149,0,0,570,6273,-18032,532,-5.59,,,,,,,,,,,,
339103,1564236557438,2,2.18,0.93,0.28,1.33,0.99,0.33,0.93,0.54,-19,-0,-27,0.98,10605,59,88,38,62,1033,563.0,660,458,60,127.0,292,1,450,391,156,0,0,567,2211,-25872,537,-5.59,,,,,,,,,,,,
339123,1564236557458,3,2.19,0.92,0.28,1.34,0.98,0.26,0.81,0.59,-19,-2,-28,0.85,10708,59,88,38,62,1029,561.0,661,457,60,127.0,292,1,450,392,156,0,0,571,-23623,1267,542,-5.59,,,,,,,,,,,,
339143,1564236557478,4,2.2,0.93,0.28,1.34,0.98,0.3,0.53,0.73,-19,-1,-28,0.61,10738,59,88,38,62,1018,565.0,666,461,60,128.0,292,1,450,392,156,0,0,574,-30159,243,542,-5.59,44.680405,10.016737,52.46,179.4,0,0.0,-1,0.0,0.0,0,2.14,5.6524
339163,1564236557498,0,2.22,0.92,0.29,1.33,0.98,0.43,0.62,0.84,-17,-0,-27,0.75,10856,59,88,38,62,1012,568.0,664,461,60,128.0,292,1,450,394,156,0,0,576,-8186,15649,548,-5.59,,,,,,,,,,,,
339183,1564236557518,2,2.23,0.92,0.28,1.33,0.99,0.43,0.68,0.77,-16,-2,-26,0.8,10907,57,88,38,62,1006,572.0,665,462,60,127.0,292,1,450,395,156,0,0,581,-29984,30208,551,-5.59,,,,,,,,,,,,
339203,1564236557538,1,2.23,0.93,0.28,1.34,0.99,0.34,0.76,0.64,-16,-3,-25,0.84,10863,43,88,38,59,997,572.0,667,460,60,127.0,288,1,435,370,159,0,0,584,-8188,1,556,-5.59,,,,,,,,,,,,
339223,1564236557558,1,2.24,0.92,0.28,1.33,0.99,0.38,0.54,0.77,-15,-0,-26,0.66,10856,27,88,38,53,985,573.0,669,460,60,127.0,288,1,397,316,159,0,0,581,774,-16384,560,-5.59,,,,,,,,,,,,
339243,1564236557578,3,2.24,0.92,0.28,1.35,0.98,0.51,0.33,0.89,-15,-1,-25,0.61,10629,15,88,38,46,975,576.0,660,461,60,127.0,288,1,372,241,159,0,0,585,1,1760,563,-5.59,44.680389,10.016739,53.88,179.4,0,0.0,-1,0.0,0.0,0,2.14,5.654
339263,1564236557598,2,2.24,0.93,0.28,1.35,0.99,0.57,0.25,0.96,-15,-3,-25,0.62,10307,7,88,38,41,967,577.0,660,462,60,128.0,288,1,335,222,159,0,0,578,30208,-3190,561,-5.59,,,,,,,,,,,,
339283,1564236557618,1,2.24,0.92,0.28,1.35,0.99,0.5,0.32,0.85,-14,-3,-23,0.59,9984,6,88,38,37,959,576.0,656,460,60,127.0,288,1,314,211,159,0,0,575,1,-2934,562,-5.59,,,,,,,,,,,,
339303,1564236557638,3,2.25,0.94,0.28,1.36,0.99,0.61,0.35,0.74,-14,-5,-22,0.7,9796,3,88,38,34,937,574.0,651,467,60,128.0,139,1,305,205,78,0,0,577,774,6273,561,-5.59,,,,,,,,,,,,
339323,1564236557658,1,2.26,0.94,0.3,1.37,1.0,0.56,0.36,0.77,-13,-4,-22,0.66,9610,0,87,38,32,909,572.0,652,463,60,127.0,139,1,300,198,78,0,0,574,259,-18032,561,-5.59,,,,,,,,,,,,
339343,1564236557678,2,2.26,0.95,0.3,1.39,1.0,0.62,0.2,0.72,-13,-4,-21,0.65,9445,0,87,38,31,898,575.0,653,467,60,127.0,139,1,295,192,78,0,0,572,259,2216,561,-5.59,44.680378,10.016742,55.15,179.5,0,0.0,-1,0.0,0.0,0,2.14,5.6557
339363,1564236557698,8,2.27,0.95,0.31,1.39,1.01,0.74,0.26,0.69,-12,-6,-20,0.79,9333,0,88,38,29,880,572.0,648,463,60,127.0,139,1,287,190,78,0,0,549,-8188,6274,561,-5.59,,,,,,,,,,,,
339383,1564236557718,9,2.28,0.96,0.31,1.39,1.02,0.83,0.37,0.63,-11,-7,-19,0.91,9375,0,88,38,29,871,564.0,653,467,60,127.0,139,1,287,190,78,0,0,523,-2934,-28648,551,-5.59,,,,,,,,,,,,
339403,1564236557738,10,2.29,0.95,0.31,1.39,1.01,0.81,0.27,0.67,-11,-6,-20,0.85,9398,0,88,38,28,856,564.0,653,463,60,128.0,122,1,282,189,67,0,0,504,12552,1341,548,-5.59,,,,,,,,,,,,
339423,1564236557758,8,2.3,0.96,0.31,1.39,1.02,0.77,0.18,0.64,-10,-6,-20,0.79,9407,0,88,38,27,859,560.0,651,469,60,128.0,122,1,278,188,67,0,0,477,-32504,-32768,545,-5.59,,,,,,,,,,,,
339443,1564236557778,8,2.31,0.96,0.3,1.39,1.01,0.9,0.23,0.58,-10,-6,-19,0.93,9309,0,88,38,26,861,557.0,650,468,60,128.0,122,1,274,186,67,0,0,494,-32504,11560,543,-5.59,44.680363,10.016746,56.15,179.4,0,0.0,-1,0.0,0.0,0,2.14,5.6574
339463,1564236557799,9,2.3,0.96,0.3,1.4,1.02,1.01,0.39,0.5,-10,-4,-17,1.09,9236,0,88,38,26,866,557.0,645,462,60,127.0,122,1,274,186,67,0,0,527,2216,6274,542,-5.59,,,,,,,,,,,,
339483,1564236557819,6,2.32,0.96,0.3,1.39,1.02,0.95,0.52,0.42,-10,-3,-15,1.08,9222,0,88,38,25,870,551.0,643,463,60,127.0,122,1,270,186,67,0,0,521,6274,-28648,538,-5.59,,,,,,,,,,,,
339503,1564236557839,7,2.32,0.96,0.31,1.39,1.02,0.85,0.43,0.46,-9,-1,-15,0.95,9250,0,88,38,25,872,544.0,645,461,60,128.0,119,1,270,186,64,0,0,523,-8186,-9212,533,-5.59,,,,,,,,,,,,
339523,1564236557859,7,2.34,0.96,0.31,1.4,1.02,0.74,0.31,0.43,-8,1,-14,0.8,9254,0,88,38,24,873,536.0,651,461,60,127.0,119,1,270,179,64,0,0,516,-28648,-3856,529,-5.59,,,,,,,,,,,,
339543,1564236557879,9,2.37,0.96,0.31,1.4,1.02,0.81,0.31,0.34,-7,0,-14,0.87,9291,0,88,38,24,861,527.0,654,460,60,128.0,119,1,270,179,64,0,0,506,6274,-28648,523,-5.59,44.680347,10.016749,55.78,179.5,0,0.0,-1,0.0,0.0,0,2.15,5.659
339563,1564236557898,10,2.38,0.96,0.32,1.4,1.02,0.93,0.28,0.35,-5,-3,-12,0.98,9272,0,88,38,24,852,522.0,655,468,60,128.0,119,1,270,179,64,0,0,487,-9212,15661,522,-5.59,,,,,,,,,,,,
339583,1564236557918,9,2.4,0.97,0.31,1.41,1.02,1.04,0.37,0.34,-3,-2,-12,1.11,9245,0,88,38,24,836,517.0,656,460,60,127.0,119,1,270,179,64,0,0,468,15679,6274,520,-5.59,,,,,,,,,,,,
339603,1564236557938,8,2.4,0.98,0.32,1.42,1.04,1.03,0.4,0.37,-1,-4,-9,1.11,9159,0,88,38,24,825,517.0,657,465,60,127.0,119,1,270,174,62,0,0,469,-3856,10408,514,-5.59,,,,,,,,,,,,
339623,1564236557958,8,2.4,0.98,0.33,1.42,1.04,0.95,0.31,0.41,0,-1,-9,1.0,9053,0,88,38,23,811,515.0,650,462,60,127.0,119,1,270,174,62,0,0,466,-28648,-21872,515,-5.59,,,,,,,,,,,,
339643,1564236557978,8,2.41,0.98,0.33,1.43,1.05,0.79,0.24,0.4,2,-1,-7,0.82,8937,0,88,38,23,792,511.0,650,468,60,128.0,119,1,270,174,62,0,0,458,10408,6274,511,-5.59,44.680336,10.016754,53.31,179.4,0,0.0,-1,0.0,0.0,0,2.15,5.6607
339663,1564236557998,8,2.41,0.99,0.33,1.44,1.05,0.76,0.22,0.36,3,1,-6,0.79,8823,0,88,38,23,788,509.0,643,463,60,127.0,119,1,270,174,62,0,0,451,-9216,11560,509,-5.59,,,,,,,,,,,,
339683,1564236558010,4,2.44,0.99,0.33,1.43,1.06,0.8,0.21,0.44,5,0,-4,0.83,8720,0,88,38,23,787,507.0,640,461,60,126.0,119,1,270,174,62,0,0,445,998,3,507,-5.59,,,,,,,,,,,,
339703,1564236558030,2,2.44,1.0,0.34,1.43,1.05,0.89,0.19,0.4,6,0,-2,0.91,8692,0,88,38,23,790,506.0,640,466,60,128.0,111,1,270,174,57,0,0,434,-1818,505,506,-5.59,,,,,,,,,,,,
339723,1564236558050,1,2.46,0.99,0.33,1.44,1.05,0.95,0.0,0.35,7,1,-1,0.95,8620,0,88,38,23,800,502.0,639,467,60,127.0,111,1,270,174,57,0,0,420,505,15661,502,-5.59,,,,,,,,,,,,
339743,1564236558070,1,2.47,0.99,0.34,1.43,1.06,0.84,-0.13,0.27,9,1,1,0.85,8530,0,88,38,24,806,502.0,638,461,60,127.0,111,1,270,179,57,0,0,426,32033,-22519,502,-5.59,44.680325,10.016759,51.6,179.4,0,0.0,-1,0.0,0.0,0,2.15,5.6624
339763,1564236558097,-0,2.48,1.0,0.34,1.43,1.06,0.9,-0.16,0.34,10,-0,2,0.92,8476,0,88,38,24,817,502.0,640,462,60,128.0,111,1,270,178,57,0,0,429,16648,-9216,502,-5.59,,,,,,,,,,,,
339783,1564236558117,-1,2.48,0.99,0.34,1.44,1.05,0.9,-0.23,0.3,11,-0,5,0.93,8430,0,88,38,25,831,500.0,635,462,60,128.0,111,1,270,181,57,0,0,416,3576,998,499,-5.59,,,,,,,,,,,,
339803,1564236558137,2,2.47,1.0,0.34,1.44,1.05,0.85,-0.24,0.23,12,-1,7,0.88,8419,0,88,38,25,843,497.0,637,465,60,127.0,112,1,270,181,56,0,0,406,-1923,-10483,497,-5.59,,,,,,,,,,,,
339823,1564236558157,0,2.48,0.99,0.34,1.43,1.05,0.95,-0.3,0.29,13,-2,9,1.0,8411,0,88,38,25,857,496.0,633,466,60,128.0,112,1,270,104,56,0,0,404,10432,1,496,-5.59,,,,,,,,,,,,
339843,1564236558177,2,2.49,0.99,0.33,1.44,1.05,0.85,-0.42,0.25,14,-0,11,0.94,8344,0,88,38,25,865,491.0,636,465,60,127.0,112,1,270,177,56,0,0,396,-3210,-6441,491,-5.59,44.680309,10.016764,49.76,179.4,0,0.0,-1,0.0,0.0,0,2.15,5.6641
339863,1564236558197,1,2.5,0.99,0.34,1.43,1.05,0.88,-0.46,0.32,14,-1,11,0.99,8259,6,88,38,25,879,491.0,576,463,60,126.0,112,1,270,172,56,0,0,391,16408,-1562,491,-5.59,,,,,,,,,,,,
339883,1564236558217,3,2.51,0.99,0.34,1.44,1.05,0.81,-0.56,0.27,15,-1,13,0.98,8134,6,88,38,25,891,490.0,543,463,60,127.0,112,1,270,88,56,0,0,391,12552,505,489,-5.59,,,,,,,,,,,,
339903,1564236558237,-0,2.53,0.99,0.33,1.43,1.05,0.88,-0.58,0.29,16,-1,14,1.05,8064,6,88,38,26,908,489.0,538,465,60,126.0,102,1,272,160,50,0,0,376,-18108,-6441,490,-5.59,,,,,,,,,,,,
339923,1564236558257,1,2.52,0.99,0.34,1.44,1.05,0.86,-0.61,0.33,17,1,16,1.06,7938,6,88,38,25,917,489.0,535,465,60,127.0,102,1,269,158,50,0,0,362,-9160,505,489,-5.59,,,,,,,,,,,,
339943,1564236558277,1,2.54,0.99,0.34,1.44,1.06,0.84,-0.66,0.35,18,1,18,1.07,7799,6,88,38,25,924,488.0,533,463,60,126.0,102,1,267,158,50,0,0,354,-9160,-6441,488,-5.59,44.680302,10.016767,48.59,179.4,0,0.0,-1,0.0,0.0,0,2.15,5.6657
339963,1564236558297,3,2.53,0.99,0.34,1.44,1.05,0.83,-0.69,0.35,19,1,19,1.08,7712,6,88,38,26,938,486.0,561,463,60,128.0,102,1,270,158,50,0,0,344,-8985,505,486,-5.59,,,,,,,,,,,,
339983,1564236558317,2,2.54,0.99,0.34,1.43,1.06,0.83,-0.73,0.32,21,2,20,1.11,7591,6,88,38,26,952,486.0,568,462,60,128.0,102,1,268,157,50,0,0,334,-8985,505,484,-5.59,,,,,,,,,,,,
340003,1564236558337,2,2.54,0.99,0.34,1.43,1.06,0.78,-0.76,0.35,22,3,22,1.09,7518,6,88,38,25,956,483.0,584,461,60,128.0,92,1,265,158,45,0,0,309,3571,-10483,483,-5.59,,,,,,,,,,,,
340023,1564236558357,2,2.54,0.99,0.34,1.43,1.05,0.76,-0.75,0.33,22,3,24,1.07,7381,4,88,38,25,963,483.0,582,465,60,128.0,92,1,263,157,45,0,0,301,15649,-10483,483,-5.59,,,,,,,,,,,,
340043,1564236558377,0,2.54,0.98,0.34,1.43,1.05,0.73,-0.74,0.31,23,4,25,1.04,7295,0,88,38,25,968,484.0,483,462,60,128.0,92,1,262,158,45,0,0,295,16648,8488,482,-5.59,44.68029,10.016769,47.69,179.4,0,0.0,-1,0.0,0.0,0,2.15,5.6674
340063,1564236558397,0,2.54,0.99,0.34,1.42,1.05,0.66,-0.81,0.31,24,4,25,1.05,7142,2,88,38,26,974,479.0,401,466,60,126.0,92,1,265,158,45,0,0,302,21432,2212,479,-5.59,,,,,,,,,,,,
340083,1564236558417,-2,2.55,0.98,0.33,1.43,1.05,0.72,-0.85,0.31,25,3,25,1.12,7086,0,88,38,26,976,478.0,377,462,60,126.0,92,1,264,158,45,0,0,300,2131,10305,478,-5.59,,,,,,,,,,,,
340103,1564236558437,2,2.54,0.98,0.34,1.43,1.05,0.84,-0.86,0.33,25,4,26,1.2,7067,7,88,38,27,977,479.0,422,463,60,127.0,88,1,268,159,42,0,0,300,16648,2212,479,-5.59,,,,,,,,,,,,
340123,1564236558457,0,2.54,0.99,0.34,1.42,1.05,0.88,-0.82,0.34,25,3,28,1.2,7070,7,88,38,27,966,476.0,378,462,60,128.0,88,1,268,159,42,0,0,274,26704,3576,476,-5.59,,,,,,,,,,,,
340143,1564236558477,-1,2.53,0.98,0.34,1.43,1.05,0.85,-0.87,0.38,26,5,28,1.22,7056,3,88,38,28,959,476.0,338,465,60,126.0,88,1,272,161,42,0,0,252,26704,-17956,476,-5.59,44.680275,10.016771,46.7,179.4,0,0.0,-1,0.0,0.0,0,2.15,5.6691
340163,1564236558497,2,2.53,0.99,0.34,1.44,1.05,0.93,-0.87,0.44,26,6,30,1.28,6944,4,88,38,28,949,477.0,322,464,60,126.0,88,1,273,161,42,0,0,248,20625,-17956,479,-5.59,,,,,,,,,,,,
340183,1564236558517,0,2.53,0.99,0.34,1.43,1.05,0.89,-0.84,0.43,26,8,30,1.22,6818,7,88,38,29,938,479.0,302,464,60,126.0,88,1,278,162,42,0,0,253,21580,-17956,479,-5.59,,,,,,,,,,,,
340203,1564236558537,3,2.53,0.99,0.34,1.42,1.06,0.91,-0.9,0.43,27,8,32,1.28,6747,8,88,38,29,908,475.0,325,463,60,126.0,85,1,278,162,41,0,0,268,19477,3576,475,-5.59,,,,,,,,,,,,
340223,1564236558557,-1,2.53,0.98,0.34,1.44,1.05,1.0,-0.88,0.37,27,7,32,1.33,6718,8,88,39,30,890,473.0,312,461,60,128.0,85,1,282,164,41,0,0,355,-768,-3210,471,-5.59,,,,,,,,,,,,
340243,1564236558577,1,2.53,0.98,0.34,1.43,1.06,1.02,-0.98,0.45,27,5,31,1.41,6744,8,88,39,31,871,458.0,317,460,60,125.0,85,1,286,165,41,0,0,392,31796,2524,458,-5.59,44.680267,10.016771,45.83,179.4,0,0.0,-1,0.0,0.0,0,2.16,5.6707
340263,1564236558598,1,2.52,0.99,0.34,1.43,1.06,1.06,-0.94,0.44,26,3,31,1.42,6949,10,88,39,31,861,455.0,327,462,60,126.0,85,1,285,88,41,0,0,399,3826,10305,455,-5.59,,,,,,,,,,,,
340283,1564236558618,-1,2.51,0.98,0.34,1.44,1.05,1.02,-0.98,0.45,26,2,31,1.41,7104,11,88,39,32,850,449.0,312,468,60,126.0,85,1,290,167,41,0,0,353,-3414,19477,449,-5.59,,,,,,,,,,,,
340303,1564236558638,-0,2.47,0.99,0.34,1.44,1.05,1.1,-0.91,0.41,24,0,32,1.43,7233,15,88,39,33,841,450.0,325,464,60,126.0,100,1,292,172,45,0,0,330,7154,-768,451,-5.59,,,,,,,,,,,,
340323,1564236558658,1,2.46,0.99,0.34,1.44,1.05,1.11,-0.82,0.41,23,0,33,1.38,7309,15,88,39,34,840,450.0,348,462,60,127.0,100,1,295,177,45,0,0,308,-8165,20625,450,-5.59,,,,,,,,,,,,
340343,1564236558678,3,2.44,0.99,0.34,1.44,1.05,1.02,-0.76,0.44,22,2,33,1.27,7335,16,88,39,35,842,450.0,363,463,60,127.0,100,1,298,177,45,0,0,312,-8165,8488,448,-5.59,44.680252,10.01677,44.33,179.4,0,0.0,-1,0.0,0.0,0,2.16,5.6724
340363,1564236558697,1,2.43,0.99,0.34,1.43,1.06,0.93,-0.71,0.38,22,1,33,1.17,7281,15,88,39,35,845,448.0,379,464,60,127.0,100,1,298,183,45,0,0,385,-8165,16648,448,-5.59,,,,,,,,,,,,
340383,1564236558717,1,2.43,0.99,0.34,1.44,1.05,0.91,-0.74,0.34,22,1,30,1.17,7402,15,88,39,35,847,443.0,362,464,60,128.0,100,1,298,183,45,0,0,412,-21944,3635,442,-5.59,,,,,,,,,,,,
340403,1564236558737,2,2.43,0.99,0.34,1.44,1.06,0.88,-0.73,0.31,21,1,29,1.14,7545,15,88,39,36,847,433.0,390,461,60,128.0,120,1,301,189,53,0,0,396,-9166,-3414,433,-5.59,,,,,,,,,,,,
340423,1564236558757,3,2.43,0.99,0.34,1.44,1.05,0.87,-0.7,0.32,20,1,28,1.12,7751,16,88,39,35,846,430.0,403,462,60,128.0,120,1,298,183,53,0,0,404,2524,3826,430,-5.59,,,,,,,,,,,,
340443,1564236558777,-1,2.43,0.99,0.34,1.43,1.06,0.91,-0.69,0.32,19,-1,27,1.14,7864,16,88,39,35,844,427.0,408,465,60,128.0,120,1,298,183,53,0,0,404,9517,-3414,426,-5.59,44.680244,10.016768,43.87,179.5,0,0.0,-1,0.0,0.0,0,2.16,5.674
340463,1564236558797,1,2.42,0.99,0.34,1.44,1.05,0.94,-0.65,0.28,17,-1,26,1.14,7941,15,88,39,35,840,423.0,444,463,60,127.0,120,1,298,183,53,0,0,404,10392,-4082,423,-5.59,,,,,,,,,,,,
340483,1564236558817,2,2.41,0.99,0.34,1.43,1.06,0.82,-0.61,0.27,17,-1,25,1.03,8005,16,88,39,35,838,425.0,477,465,60,128.0,120,1,298,184,53,0,0,410,-26615,-3856,425,-5.59,,,,,,,,,,,,
340503,1564236558837,-2,2.38,0.99,0.34,1.43,1.06,0.89,-0.57,0.31,16,-1,25,1.06,7938,15,88,39,35,835,425.0,501,462,60,127.0,129,1,298,183,55,0,0,409,11560,13552,425,-5.59,,,,,,,,,,,,
340523,1564236558857,1,2.34,0.99,0.34,1.43,1.06,1.0,-0.52,0.35,14,-1,25,1.13,7904,16,88,39,35,835,424.0,513,464,60,127.0,129,1,298,183,55,0,0,406,11560,-3856,424,-5.59,,,,,,,,,,,,
340543,1564236558877,2,2.29,0.99,0.34,1.44,1.05,1.03,-0.51,0.31,13,-1,23,1.14,7881,16,88,39,35,834,421.0,534,465,60,127.0,129,1,298,183,55,0,0,408,-4059,7154,421,-5.59,44.680229,10.016765,42.62,179.5,0,0.0,-1,0.0,0.0,0,2.16,5.6757
340563,1564236558895,3,2.24,0.99,0.34,1.43,1.05,0.99,-0.43,0.36,11,-2,21,1.08,7838,16,88,39,35,835,417.0,550,464,60,128.0,129,1,298,183,55,0,0,414,13040,-21792,417,-5.59,,,,,,,,,,,,
340583,1564236558915,-2,2.18,0.99,0.33,1.42,1.04,0.99,-0.27,0.38,8,-2,19,1.03,7841,16,88,39,35,839,414.0,569,463,60,127.0,129,1,298,183,55,0,0,412,-9166,-26615,414,-5.59,,,,,,,,,,,,
340603,1564236558935,-0,2.11,0.96,0.32,1.39,1.02,1.04,-0.1,0.46,4,-3,17,1.05,7770,16,88,39,35,841,414.0,585,461,60,128.0,132,1,298,183,54,0,0,414,2524,9517,409,-5.59,,,,,,,,,,,,
340623,1564236558955,0,2.08,0.94,0.3,1.33,1.01,1.08,-0.02,0.52,1,-3,14,1.08,7731,17,88,39,35,847,420.0,601,463,60,127.0,132,1,298,189,54,0,0,422,-3414,-9211,403,-5.59,,,,,,,,,,,,
340643,1564236558975,1,2.02,0.91,0.29,1.31,0.98,1.12,0.06,0.51,-2,-3,10,1.12,7735,16,88,39,36,850,420.0,603,464,60,128.0,132,1,301,189,54,0,0,422,3826,11545,399,-5.59,44.680222,10.016762,41.72,179.5,0,0.0,-1,0.0,0.0,0,2.16,5.6774
340663,1564236558995,2,2.0,0.91,0.28,1.3,0.98,1.06,0.17,0.46,-5,-2,7,1.08,7649,18,88,39,36,852,424.0,609,462,60,126.0,132,1,301,189,54,0,0,425,-4082,10541,395,-5.59,,,,,,,,,,,,
340683,1564236559007,2,1.99,0.9,0.27,1.29,0.96,1.0,0.34,0.36,-7,-1,4,1.05,7621,17,88,39,36,858,425.0,608,462,60,128.0,132,1,301,210,54,0,0,424,-3856,-6656,391,-5.59,,,,,,,,,,,,
340703,1564236559027,2,1.99,0.9,0.27,1.3,0.96,0.94,0.49,0.33,-9,-2,-0,1.06,7548,16,88,39,36,865,423.0,603,462,60,128.0,138,1,301,189,54,0,0,425,-3856,240,388,-5.59,,,,,,,,,,,,
340723,1564236559047,2,1.99,0.9,0.27,1.3,0.97,0.83,0.63,0.26,-11,-0,-4,1.05,7533,17,88,39,37,871,426.0,598,462,60,128.0,138,1,304,195,54,0,0,423,13552,-31744,386,-5.59,,,,,,,,,,,,
340743,1564236559067,2,1.99,0.9,0.27,1.3,0.97,0.75,0.69,0.2,-13,1,-8,1.02,7494,18,88,39,37,875,423.0,602,463,60,128.0,138,1,304,194,54,0,0,424,3826,-3866,383,-5.59,44.68021,10.016758,40.78,179.6,0,0.0,-1,0.0,0.0,0,2.16,5.679
340763,1564236559092,2,2.0,0.9,0.27,1.3,0.96,0.7,0.82,0.18,-14,2,-11,1.08,7488,18,88,39,38,879,424.0,595,463,60,128.0,138,1,307,194,54,0,0,425,-4082,-19126,382,-5.59,,,,,,,,,,,,
340783,1564236559112,2,2.0,0.9,0.27,1.29,0.97,0.65,0.9,0.21,-16,2,-14,1.11,7452,30,88,39,40,883,424.0,602,463,60,129.0,138,1,317,206,54,0,0,424,-4082,-19019,382,-5.59,,,,,,,,,,,,
340803,1564236559132,1,2.01,0.9,0.27,1.3,0.96,0.62,1.01,0.11,-17,2,-18,1.19,7509,38,88,39,45,884,422.0,604,462,60,129.0,155,1,355,214,59,0,0,420,-3414,8200,378,-5.59,,,,,,,,,,,,
340823,1564236559152,2,2.01,0.91,0.27,1.3,0.96,0.58,1.07,0.03,-19,3,-19,1.22,7530,44,88,39,52,883,424.0,605,463,60,129.0,155,1,384,236,59,0,0,420,-4082,3,379,-5.59,,,,,,,,,,,,
340843,1564236559172,1,2.04,0.9,0.28,1.3,0.97,0.54,1.16,-0.01,-20,3,-22,1.27,7536,62,88,39,61,882,423.0,608,464,60,128.0,155,1,437,332,59,0,0,422,3826,-18948,379,-5.59,44.680202,10.016754,39.95,179.6,0,0.0,-1,0.0,0.0,0,2.16,5.6807
340863,1564236559194,3,2.06,0.91,0.27,1.3,0.97,0.54,1.19,-0.04,-21,2,-25,1.31,7488,71,88,39,70,883,422.0,611,465,60,128.0,155,1,417,410,59,0,0,419,-3414,3,377,-5.59,,,,,,,,,,,,
340883,1564236559214,1,2.09,0.91,0.27,1.3,0.98,0.51,1.21,-0.1,-21,3,-26,1.31,7497,74,88,39,79,884,420.0,607,462,60,129.0,155,1,409,393,59,0,0,417,-8165,-6656,376,-5.59,,,,,,,,,,,,
340903,1564236559234,2,2.11,0.91,0.28,1.31,0.98,0.5,1.24,-0.17,-21,1,-28,1.34,7482,77,88,39,85,886,418.0,607,463,60,128.0,402,1,406,439,152,0,0,418,-3414,770,377,-5.59,,,,,,,,,,,,
340923,1564236559254,3,2.11,0.92,0.28,1.31,0.98,0.47,1.29,-0.21,-22,1,-28,1.38,7649,80,88,39,88,899,416.0,603,462,60,128.0,402,1,420,565,152,0,0,414,18584,-6656,378,-5.59,,,,,,,,,,,,
340943,1564236559274,1,2.11,0.92,0.28,1.31,0.98,0.58,1.19,-0.17,-23,1,-29,1.33,7988,80,88,39,88,922,415.0,607,464,60,128.0,402,1,445,571,152,0,0,410,2524,-6656,378,-5.59,44.680191,10.016752,39.13,179.6,0,0.0,-1,0.0,0.0,0,2.16,5.6824
340963,1564236559294,1,2.11,0.92,0.28,1.32,0.98,0.51,1.18,-0.06,-23,1,-30,1.29,8573,79,88,39,86,953,413.0,623,467,60,127.0,402,1,430,592,152,0,0,408,-9166,2278,379,-5.59,,,,,,,,,,,,
340983,1564236559314,-0,2.12,0.92,0.28,1.32,0.98,0.3,1.27,0.02,-22,1,-30,1.3,9071,80,88,39,83,982,412.0,636,465,60,126.0,402,1,418,545,152,0,0,418,13040,-8151,380,-5.59,,,,,,,,,,,,
341003,1564236559334,3,2.11,0.93,0.29,1.33,0.98,0.11,1.28,0.18,-22,4,-30,1.29,9182,80,88,39,81,1028,416.0,644,464,60,127.0,486,1,416,531,185,0,0,435,18584,-6528,385,-5.59,,,,,,,,,,,,
341023,1564236559354,2,2.12,0.94,0.29,1.33,1.0,-0.1,1.31,0.2,-22,8,-31,1.31,9191,81,88,39,81,1105,422.0,642,476,60,125.0,486,1,416,531,185,0,0,468,-3414,-3082,389,-5.59,,,,,,,,,,,,
341043,1564236559374,2,2.14,0.93,0.3,1.34,0.99,0.02,1.29,0.38,-22,8,-32,1.29,9191,79,88,39,84,1178,427.0,635,462,60,126.0,486,1,418,556,185,0,0,455,-3314,-3414,393,-5.59,44.680183,10.016751,38.82,179.6,0,0.0,-1,0.0,0.0,0,2.16,5.6841
341063,1564236559396,2,2.13,0.93,0.28,1.34,0.99,0.13,1.2,0.52,-23,7,-31,1.21,9191,80,88,39,87,1226,431.0,624,460,60,126.0,486,1,418,589,185,0,0,441,1779,13040,396,-5.59,,,,,,,,,,,,
341083,1564236559416,-1,2.14,0.93,0.28,1.33,0.99,0.3,1.19,0.57,-23,5,-29,1.23,7164,79,88,39,89,1273,429.0,607,450,60,128.0,486,1,385,532,185,0,0,435,3635,2524,399,-5.59,,,,,,,,,,,,
341103,1564236559436,1,2.12,0.92,0.28,1.33,0.98,0.4,1.08,0.58,-24,2,-28,1.15,6957,81,89,39,90,1314,424.0,586,456,60,128.0,353,1,369,524,141,0,0,425,-4082,28696,399,-5.59,,,,,,,,,,,,
341123,1564236559456,1,2.1,0.91,0.28,1.32,0.98,0.4,1.16,0.51,-22,1,-28,1.23,6858,81,88,39,91,1355,421.0,576,457,60,128.0,353,1,364,520,141,0,0,425,-21792,6512,397,-5.59,,,,,,,,,,,,
341143,1564236559476,-0,2.05,0.91,0.28,1.33,0.97,0.46,1.1,0.53,-23,-1,-28,1.19,6805,81,88,39,91,1348,423.0,569,458,60,127.0,353,1,361,519,141,0,0,424,3826,17144,398,-5.59,44.680172,10.016751,38.6,179.6,0,0.0,-1,0.0,0.0,0,2.17,5.6857
341163,1564236559496,1,2.02,0.91,0.28,1.33,0.98,0.46,1.06,0.46,-24,-2,-28,1.15,6880,76,88,39,90,1341,424.0,567,433,60,128.0,353,1,365,521,141,0,0,426,-4082,-1818,397,-5.59,,,,,,,,,,,,
341183,1564236559516,1,1.98,0.92,0.27,1.33,0.97,0.48,1.02,0.39,-25,-1,-28,1.12,7048,69,88,39,89,1354,427.0,562,405,60,127.0,353,1,376,521,141,0,0,421,3635,19125,395,-5.59,,,,,,,,,,,,
341203,1564236559536,1,1.93,0.91,0.27,1.31,0.97,0.63,0.94,0.55,-27,-2,-29,1.13,7443,5,89,39,87,1380,428.0,568,437,60,127.0,359,1,405,513,141,0,0,422,13180,-6656,392,-5.59,,,,,,,,,,,,
341223,1564236559556,3,1.88,0.9,0.27,1.31,0.96,0.71,1.0,0.57,-28,-2,-31,1.22,7995,67,88,39,86,1400,428.0,582,461,60,124.0,359,1,441,605,141,0,0,421,13180,-6405,386,-5.59,,,,,,,,,,,,
341243,1564236559576,3,1.86,0.9,0.27,1.31,0.96,0.84,0.82,0.55,-31,-4,-32,1.17,8668,67,88,39,80,1434,428.0,613,452,60,128.0,359,1,423,566,141,0,0,428,3635,770,382,-5.59,44.680164,10.016753,40.31,179.6,0,0.0,-1,0.0,0.0,0,2.17,5.6874
341263,1564236559596,3,1.82,0.91,0.27,1.32,0.97,0.96,0.61,0.54,-34,-4,-34,1.13,9309,60,88,39,76,1463,428.0,635,435,60,128.0,359,1,414,380,141,0,0,429,13180,-6475,381,-5.59,,,,,,,,,,,,
341283,1564236559616,1,1.8,0.9,0.27,1.3,0.96,0.93,0.73,0.49,-35,-5,-35,1.19,9709,63,88,39,72,1491,426.0,651,380,60,127.0,359,1,408,488,141,0,0,435,13552,11560,377,-5.59,,,,,,,,,,,,
341303,1564236559636,2,1.81,0.89,0.27,1.31,0.96,1.0,0.86,0.49,-36,-2,-39,1.32,9709,65,88,39,70,1498,429.0,651,412,60,127.0,456,1,408,478,172,0,0,464,-768,-3210,374,-5.59,,,,,,,,,,,,
341323,1564236559656,2,1.8,0.91,0.27,1.31,0.96,1.05,0.58,0.63,-38,-1,-42,1.2,9115,66,89,39,70,1498,440.0,650,445,60,127.0,456,1,413,510,172,0,0,473,20625,1010,375,-5.59,,,,,,,,,,,,
341343,1564236559676,2,1.81,0.91,0.27,1.32,0.96,1.15,0.41,0.73,-39,-3,-45,1.22,9071,67,88,39,71,1443,438.0,646,458,60,127.0,456,1,413,516,172,0,0,442,21580,-8186,374,-5.59,44.680153,10.016755,39.94,179.6,0,0.0,-1,0.0,0.0,0,2.17,5.6891
341363,1564236559696,1,1.82,0.9,0.27,1.31,0.96,1.23,0.37,0.74,-40,-5,-45,1.29,9346,67,88,39,71,1360,430.0,652,448,60,128.0,456,1,415,503,172,0,0,447,1779,1,373,-5.59,,,,,,,,,,,,
341383,1564236559716,1,1.85,0.91,0.27,1.32,0.97,1.11,0.54,0.72,-40,-3,-45,1.23,9417,66,89,39,70,1255,434.0,653,455,60,128.0,456,1,415,482,172,0,0,474,-768,771,374,-5.59,,,,,,,,,,,,
341403,1564236559736,2,1.92,0.91,0.27,1.32,0.98,0.87,0.69,0.61,-39,-3,-48,1.11,9314,66,89,39,70,1193,436.0,647,458,60,128.0,457,1,414,460,171,0,0,510,5600,6274,374,-5.59,,,,,,,,,,,,
341423,1564236559756,3,1.98,0.92,0.28,1.33,0.97,0.89,0.52,0.74,-40,-3,-51,1.03,9389,67,89,39,69,1131,445.0,655,457,60,128.0,457,1,415,451,171,0,0,517,2131,-1562,373,-5.59,,,,,,,,,,,,
341443,1564236559776,1,2.05,0.91,0.27,1.33,0.97,1.0,0.44,0.83,-41,-4,-53,1.09,9455,67,89,39,69,1111,447.0,650,457,60,128.0,457,1,415,442,171,0,0,503,10305,10432,378,-5.59,44.680145,10.016759,38.85,179.6,0,0.0,-1,0.0,0.0,0,2.17,5.6907
341463,1564236559796,0,2.11,0.91,0.27,1.32,0.98,0.79,0.6,0.86,-42,-2,-52,0.99,9384,67,89,39,69,1118,452.0,651,452,60,127.0,457,1,415,433,171,0,0,494,-6387,-32248,387,-5.59,,,,,,,,,,,,
341483,1564236559816,0,2.16,0.92,0.28,1.32,0.98,0.72,0.65,0.9,-43,-1,-53,0.97,9412,67,89,39,69,1188,457.0,650,460,60,128.0,457,1,415,424,171,0,0,493,-9160,-30064,394,-5.59,,,,,,,,,,,,
341503,1564236559836,2,2.17,0.92,0.27,1.33,0.97,0.82,0.39,0.99,-44,-4,-54,0.91,9455,66,89,39,69,1217,459.0,653,464,60,128.0,387,1,415,415,153,0,0,501,17628,-28648,395,-5.59,,,,,,,,,,,,
341523,1564236559856,0,2.21,0.93,0.27,1.34,0.97,0.74,0.47,0.95,-43,-4,-53,0.87,9431,67,89,39,69,1252,460.0,648,456,60,128.0,387,1,415,403,153,0,0,511,-23623,-1562,395,-5.59,,,,,,,,,,,,
341543,1564236559876,-0,2.21,0.92,0.28,1.33,0.97,0.58,0.63,0.92,-42,-3,-53,0.85,9365,68,89,39,70,1260,461.0,646,454,60,128.0,387,1,415,404,153,0,0,507,-18108,26178,398,-5.59,44.680134,10.016764,38.97,179.6,0,0.0,-1,0.0,0.0,0,2.17,5.6924
341563,1564236559896,2,2.2,0.92,0.28,1.33,0.97,0.61,0.61,1.02,-42,-3,-53,0.86,9356,68,89,39,70,1232,461.0,651,458,60,128.0,387,1,415,395,153,0,0,511,2211,-3414,411,-5.59,,,,,,,,,,,,
341583,1564236559916,2,2.2,0.92,0.28,1.33,0.97,0.74,0.37,1.1,-42,-5,-52,0.83,9360,68,89,39,70,1197,463.0,645,457,60,127.0,387,1,415,392,153,0,0,502,6193,-32768,416,-5.59,,,,,,,,,,,,
341603,1564236559936,-0,2.17,0.92,0.27,1.33,0.97,0.73,0.53,1.01,-41,-5,-49,0.9,9389,68,89,39,70,1177,467.0,651,455,60,127.0,332,1,415,392,139,0,0,494,243,-4054,421,-5.59,,,,,,,,,,,,
341623,1564236559956,1,2.16,0.92,0.27,1.33,0.97,0.66,0.68,1.02,-40,-3,-47,0.95,9384,67,89,39,70,1156,471.0,642,468,60,128.0,332,1,415,392,139,0,0,507,32033,11560,426,-5.59,,,,,,,,,,,,
341643,1564236559976,3,2.16,0.92,0.27,1.34,0.97,0.6,0.61,1.06,-40,-4,-47,0.86,9384,69,89,39,70,1158,471.0,650,455,60,128.0,332,1,415,392,139,0,0,498,-1923,-3482,427,-5.59,44.680126,10.016768,40.95,179.5,0,0.0,-1,0.0,0.0,0,2.17,5.694
341663,1564236559996,2,2.15,0.92,0.27,1.33,0.98,0.72,0.5,1.01,-39,-3,-47,0.88,9360,69,89,39,70,1162,472.0,651,457,60,127.0,332,1,415,448,139,0,0,506,-1923,1248,424,-5.59,,,,,,,,,,,,
341683,1564236560008,1,2.16,0.91,0.28,1.32,0.98,0.68,0.65,1.0,-37,-5,-45,0.94,9479,68,89,39,71,1178,477.0,648,457,60,128.0,332,1,415,438,139,0,0,505,2212,-6656,423,-5.59,,,,,,,,,,,,
341703,1564236560028,1,2.16,0.92,0.28,1.32,0.98,0.71,0.75,1.1,-36,-3,-45,1.03,9576,69,89,39,70,1191,478.0,651,457,60,128.0,378,1,412,437,161,0,0,508,16648,15661,426,-5.59,,,,,,,,,,,,
341723,1564236560048,1,2.15,0.92,0.27,1.34,0.97,0.69,0.62,1.11,-35,-4,-45,0.93,9664,66,89,39,69,1203,481.0,645,461,60,127.0,378,1,410,427,161,0,0,516,32033,2524,423,-5.59,,,,,,,,,,,,
341743,1564236560068,0,2.16,0.92,0.28,1.33,0.97,0.64,0.76,1.09,-34,-3,-44,0.99,9821,52,89,39,66,1211,485.0,652,453,60,127.0,378,1,406,412,161,0,0,516,-6441,998,425,-5.59,44.680119,10.016776,43.0,179.5,0,0.0,-1,0.0,0.0,0,2.17,5.6957
341763,1564236560095,-1,2.14,0.92,0.28,1.33,0.98,0.57,0.75,1.01,-33,-1,-43,0.94,9821,42,89,39,60,1217,487.0,656,466,60,128.0,378,1,409,404,161,0,0,525,505,-8187,425,-5.59,,,,,,,,,,,,
341783,1564236560115,2,2.13,0.92,0.27,1.33,0.97,0.5,0.84,0.99,-33,-2,-44,0.98,9745,38,89,39,55,1221,492.0,651,463,60,127.0,378,1,401,356,161,0,0,529,-6656,-18032,424,-5.59,,,,,,,,,,,,
341803,1564236560135,-0,2.11,0.92,0.28,1.33,0.98,0.54,0.85,0.89,-32,-0,-43,1.01,9760,38,89,39,52,1215,494.0,657,463,60,128.0,288,1,394,318,122,0,0,523,3,-14,422,-5.59,,,,,,,,,,,,
341823,1564236560155,2,2.08,0.92,0.27,1.33,0.98,0.57,0.96,0.98,-32,-3,-41,1.12,9684,37,89,39,50,1200,495.0,652,467,60,128.0,288,1,388,289,122,0,0,524,771,6274,423,-5.59,,,,,,,,,,,,
341843,1564236560175,2,2.04,0.93,0.28,1.33,0.97,0.69,0.81,1.04,-32,-3,-41,1.06,9556,38,89,39,49,1173,499.0,657,465,60,127.0,288,1,385,267,122,0,0,521,-22519,-28648,423,-5.59,44.680111,10.016784,44.38,179.4,0,0.0,-1,0.0,0.0,0,2.17,5.6974
341863,1564236560197,1,2.02,0.92,0.27,1.33,0.98,0.61,0.93,0.98,-31,-2,-40,1.11,9460,37,89,39,48,1137,501.0,651,460,60,127.0,288,1,382,170,122,0,0,518,11560,16383,425,-5.59,,,,,,,,,,,,
341883,1564236560217,1,1.99,0.93,0.27,1.34,0.97,0.5,1.01,0.97,-31,-2,-39,1.13,9455,38,89,39,47,1106,500.0,651,466,60,128.0,288,1,379,234,122,0,0,515,10408,-22519,431,-5.59,,,,,,,,,,,,
341903,1564236560237,3,1.94,0.93,0.28,1.34,0.97,0.66,0.87,0.91,-31,-4,-40,1.09,9498,40,89,39,47,1063,499.0,649,460,60,126.0,193,1,379,234,84,0,0,518,-22519,17136,435,-5.59,,,,,,,,,,,,
341923,1564236560257,-1,1.92,0.92,0.28,1.34,0.97,0.69,0.99,0.82,-30,-4,-39,1.2,9541,40,89,39,47,1008,500.0,646,462,60,128.0,193,1,380,235,84,0,0,514,11560,10408,438,-5.59,,,,,,,,,,,,
341943,1564236560277,2,1.89,0.92,0.28,1.33,0.98,0.63,0.99,0.74,-30,-3,-40,1.18,9635,36,89,39,48,968,499.0,648,461,60,128.0,193,1,382,247,84,0,0,514,10408,771,441,-5.59,44.6801,10.016795,46.5,179.4,0,0.0,-1,0.0,0.0,0,2.17,5.699
341963,1564236560295,-1,1.88,0.92,0.28,1.33,0.98,0.65,0.96,0.63,-29,-2,-41,1.16,9645,40,89,39,47,930,502.0,648,460,60,127.0,193,1,380,247,84,0,0,515,15661,-3414,450,-5.59,,,,,,,,,,,,
341983,1564236560315,3,1.88,0.92,0.29,1.34,0.97,0.55,1.07,0.63,-29,-2,-40,1.2,9640,40,89,39,48,911,503.0,651,468,60,128.0,193,1,382,237,84,0,0,518,2109,14504,456,-5.59,,,,,,,,,,,,
342003,1564236560335,-1,1.88,0.92,0.28,1.34,0.98,0.7,1.03,0.63,-30,-2,-40,1.25,9720,40,89,39,47,886,506.0,653,463,60,127.0,198,1,380,248,91,0,0,521,-28648,17136,459,-5.59,,,,,,,,,,,,
342023,1564236560355,1,1.88,0.93,0.28,1.34,0.98,0.64,1.13,0.64,-30,-3,-40,1.3,9725,40,89,39,48,866,507.0,659,464,60,128.0,198,1,382,248,91,0,0,523,-21872,10408,461,-5.59,,,,,,,,,,,,
342043,1564236560375,-1,1.88,0.92,0.28,1.34,0.98,0.78,0.98,0.68,-30,-3,-42,1.25,9730,40,89,39,48,869,509.0,662,466,60,128.0,198,1,382,248,91,0,0,519,10994,-8186,463,-5.59,44.680092,10.016809,47.91,179.3,0,0.0,-1,0.0,0.0,0,2.18,5.7007
342063,1564236560397,1,1.88,0.93,0.28,1.35,0.98,0.66,1.09,0.66,-31,-3,-42,1.27,9796,40,89,39,47,873,509.0,656,460,60,128.0,198,1,380,240,91,0,0,520,-3856,15661,464,-5.59,,,,,,,,,,,,
342083,1564236560417,1,1.87,0.93,0.29,1.34,0.98,0.76,0.99,0.68,-31,-2,-42,1.25,9842,41,89,39,48,877,512.0,660,470,60,128.0,198,1,382,250,91,0,0,524,17136,-14,464,-5.59,,,,,,,,,,,,
342103,1564236560437,1,1.88,0.93,0.29,1.34,0.98,0.62,1.09,0.7,-31,-0,-43,1.25,9811,48,89,39,49,881,512.0,657,456,60,127.0,198,1,385,261,92,0,0,527,-3856,-3082,465,-5.59,,,,,,,,,,,,
342123,1564236560457,-0,1.89,0.93,0.28,1.35,0.98,0.66,1.14,0.69,-31,1,-44,1.32,9811,53,89,39,52,882,511.0,661,467,60,128.0,198,1,394,328,92,0,0,525,10994,2524,466,-5.59,,,,,,,,,,,,
342143,1564236560477,3,1.9,0.93,0.28,1.35,0.99,0.63,1.17,0.73,-32,-1,-44,1.33,9868,58,89,39,55,881,509.0,658,465,60,128.0,198,1,401,354,92,0,0,527,15679,-32248,466,-5.59,44.680088,10.016822,48.3,179.3,0,0.0,-1,0.0,0.0,0,2.18,5.7024
342163,1564236560497,1,1.91,0.92,0.28,1.34,0.98,0.47,1.19,0.62,-31,2,-44,1.28,9984,62,89,39,58,887,515.0,663,462,60,128.0,198,1,405,375,92,0,0,528,26178,2524,465,-5.59,,,,,,,,,,,,
342183,1564236560517,-1,1.92,0.92,0.28,1.34,0.98,0.62,1.24,0.63,-31,1,-44,1.38,10032,54,89,39,61,892,512.0,660,465,60,127.0,198,1,411,371,92,0,0,527,-3482,2524,467,-5.59,,,,,,,,,,,,
342203,1564236560537,2,1.96,0.93,0.29,1.34,0.99,0.53,1.2,0.62,-31,1,-45,1.31,10102,65,89,39,63,901,518.0,662,463,60,127.0,356,1,418,441,167,0,0,537,15679,1780,468,-5.59,,,,,,,,,,,,
342223,1564236560557,3,1.98,0.93,0.29,1.35,0.98,0.68,1.11,0.72,-31,2,-45,1.3,10234,66,89,39,64,907,523.0,683,458,60,128.0,356,1,424,444,167,0,0,535,2524,2524,470,-5.59,,,,,,,,,,,,
342243,1564236560577,3,2.0,0.93,0.29,1.35,0.98,0.53,1.08,0.66,-32,2,-45,1.2,10285,69,89,38,66,919,526.0,662,465,60,127.0,356,1,425,443,167,0,0,551,-9072,2104,473,-5.59,44.68008,10.016836,48.33,179.3,0,0.0,-1,0.0,0.0,0,2.18,5.7041
342263,1564236560595,2,2.03,0.93,0.28,1.35,0.98,0.5,1.06,0.63,-32,3,-47,1.17,10393,69,89,38,67,943,531.0,665,460,60,127.0,356,1,434,454,167,0,0,549,14504,-23623,475,-5.59,,,,,,,,,,,,
342283,1564236560615,0,2.06,0.93,0.29,1.35,0.98,0.41,1.15,0.57,-32,5,-46,1.22,10422,69,89,38,68,954,532.0,662,465,60,127.0,356,1,435,450,167,0,0,555,14504,-32248,478,-5.59,,,,,,,,,,,,
342303,1564236560635,1,2.08,0.93,0.29,1.34,0.99,0.4,1.18,0.56,-32,4,-45,1.25,10515,70,89,38,69,970,537.0,665,461,60,127.0,372,1,442,448,179,0,0,563,-30064,-22263,485,-5.59,,,,,,,,,,,,
342323,1564236560655,1,2.08,0.94,0.29,1.35,0.99,0.36,1.17,0.47,-33,6,-45,1.22,10498,70,89,38,69,988,542.0,651,463,60,127.0,372,1,441,447,179,0,0,563,-3082,-3190,488,-5.59,,,,,,,,,,,,
342343,1564236560675,0,2.09,0.93,0.29,1.36,0.98,0.38,1.21,0.53,-33,5,-46,1.27,10587,70,89,38,70,1004,541.0,651,467,60,127.0,372,1,442,453,179,0,0,566,-2336,-16384,489,-5.59,44.680073,10.016852,48.7,179.2,0,0.0,-1,0.0,0.0,0,2.18,5.7057
342363,1564236560697,3,2.11,0.94,0.29,1.36,0.99,0.34,1.2,0.57,-33,6,-45,1.25,10641,69,89,38,70,1022,546.0,657,462,60,127.0,372,1,442,453,179,0,0,569,2524,-2934,491,-5.59,,,,,,,,,,,,
342383,1564236560717,3,2.11,0.94,0.29,1.36,0.99,0.46,1.11,0.71,-32,5,-46,1.2,10757,70,89,38,70,1034,546.0,665,461,60,128.0,372,1,444,453,179,0,0,573,-22519,-29984,490,-5.59,,,,,,,,,,,,
342403,1564236560737,-1,2.11,0.93,0.29,1.35,0.99,0.55,1.17,0.84,-32,4,-45,1.29,10744,70,89,38,70,1044,546.0,662,462,60,127.0,377,1,444,453,185,0,0,575,2524,259,490,-5.59,,,,,,,,,,,,
342423,1564236560757,1,2.12,0.93,0.29,1.36,0.99,0.48,1.15,0.73,-31,3,-45,1.25,10769,71,89,39,70,1056,551.0,657,466,60,127.0,377,1,444,458,185,0,0,584,6274,-3210,493,-5.59,,,,,,,,,,,,
342443,1564236560777,2,2.12,0.93,0.29,1.36,0.99,0.5,1.14,0.76,-31,5,-45,1.24,10825,70,89,39,71,1061,552.0,658,462,60,127.0,377,1,444,458,185,0,0,580,-28648,-4035,495,-5.59,44.680073,10.016869,49.9,179.2,0,0.0,-1,0.0,0.0,0,2.18,5.7074
342463,1564236560797,1,2.13,0.94,0.29,1.36,0.99,0.49,1.08,0.75,-31,5,-43,1.19,10825,68,89,38,71,1062,556.0,654,465,60,127.0,377,1,444,458,185,0,0,582,6273,-1894,494,-5.59,,,,,,,,,,,,
342483,1564236560817,3,2.12,0.94,0.29,1.35,0.99,0.63,1.03,0.87,-30,2,-43,1.21,10964,69,89,38,71,1060,561.0,668,458,60,127.0,377,1,447,458,185,0,0,584,-18032,-16179,494,-5.59,,,,,,,,,,,,
342503,1564236560837,1,2.14,0.94,0.29,1.35,0.98,0.51,1.12,0.8,-29,1,-43,1.23,11081,70,89,38,71,1054,561.0,663,462,60,127.0,385,1,448,458,191,0,0,589,-18032,1267,493,-5.59,,,,,,,,,,,,
342523,1564236560857,3,2.17,0.94,0.29,1.36,0.99,0.5,1.05,0.8,-29,4,-43,1.17,11088,71,89,38,71,1047,567.0,659,465,60,127.0,385,1,448,458,191,0,0,599,-2934,-32504,493,-5.59,,,,,,,,,,,,
342543,1564236560877,-0,2.19,0.94,0.29,1.35,0.99,0.5,1.15,0.69,-28,5,-42,1.25,11174,70,89,38,71,1042,572.0,663,466,60,127.0,385,1,446,458,191,0,0,600,-8188,-28304,496,-5.59,44.680069,10.016886,51.38,179.2,0,0.0,-1,0.0,0.0,0,2.18,5.7091
342563,1564236560895,2,2.2,0.93,0.29,1.36,0.99,0.52,1.15,0.82,-28,1,-42,1.27,11247,68,89,38,71,1032,573.0,652,467,60,127.0,385,1,445,458,191,0,0,597,774,30227,513,-5.59,,,,,,,,,,,,
342583,1564236560915,1,2.22,0.94,0.29,1.36,0.99,0.53,1.14,0.84,-27,3,-41,1.26,11261,55,89,38,66,1012,577.0,661,465,60,127.0,385,1,444,435,191,0,0,600,30208,23619,523,-5.59,,,,,,,,,,,,
342603,1564236560935,2,2.23,0.94,0.29,1.36,0.99,0.46,1.1,0.81,-26,-0,-38,1.19,11220,47,89,39,62,998,578.0,665,463,60,127.0,333,1,446,401,176,0,0,602,1,243,534,-5.59,,,,,,,,,,,,
342623,1564236560955,1,2.23,0.94,0.29,1.35,0.99,0.54,1.19,0.93,-25,0,-37,1.3,11167,37,89,38,57,988,578.0,660,461,60,127.0,333,1,420,358,176,0,0,607,-3210,17344,547,-5.59,,,,,,,,,,,,
342643,1564236560975,0,2.25,0.94,0.29,1.35,1.0,0.41,1.24,0.68,-23,-0,-35,1.31,10971,29,89,38,51,981,581.0,658,462,60,127.0,333,1,391,293,176,0,0,600,10432,30227,558,-5.59,44.680069,10.016904,53.49,179.1,0,0.0,-1,0.0,0.0,0,2.18,5.7107
342663,1564236560995,3,2.25,0.94,0.29,1.36,0.99,0.38,1.03,0.71,-21,1,-32,1.1,10593,18,89,38,46,959,583.0,655,468,60,127.0,333,1,372,241,176,0,0,592,10432,10432,563,-5.59,,,,,,,,,,,,
342683,1564236561010,6,2.26,0.95,0.29,1.36,1.0,0.4,0.99,0.67,-19,1,-30,1.07,10262,10,89,38,42,935,577.0,648,470,60,126.0,333,1,342,226,176,0,0,583,30208,-30159,565,-5.59,,,,,,,,,,,,
342703,1564236561030,10,2.27,0.95,0.29,1.37,0.99,0.57,1.05,0.66,-17,-3,-29,1.19,10037,7,89,38,38,926,575.0,650,464,60,127.0,147,1,317,213,83,0,0,575,774,-30159,561,-5.59,,,,,,,,,,,,
342723,1564236561050,8,2.29,0.95,0.3,1.37,1.0,0.6,0.84,0.7,-14,-3,-29,1.03,9775,6,89,38,35,914,569.0,638,468,60,126.0,147,1,308,209,83,0,0,572,-29984,2216,557,-5.59,,,,,,,,,,,,
342743,1564236561070,9,2.29,0.96,0.31,1.39,1.02,0.74,0.83,0.66,-12,-5,-28,1.11,9585,0,89,38,33,877,570.0,635,466,60,127.0,147,1,302,199,83,0,0,563,-29984,-22263,561,-5.59,44.680065,10.016923,54.93,179.1,0,0.0,-1,0.0,0.0,0,2.19,5.7124
342763,1564236561096,9,2.3,0.97,0.31,1.4,1.03,0.66,0.84,0.63,-11,-2,-25,1.07,9412,0,89,38,32,855,567.0,637,468,60,127.0,147,1,300,118,83,0,0,553,-29984,-28648,561,-5.59,,,,,,,,,,,,
342783,1564236561116,7,2.3,0.98,0.32,1.42,1.03,0.73,0.62,0.57,-11,-2,-24,0.96,9309,0,89,38,31,837,566.0,643,467,60,127.0,147,1,295,191,83,0,0,536,-2934,1780,560,-5.59,,,,,,,,,,,,
342803,1564236561136,8,2.31,0.98,0.33,1.42,1.05,0.81,0.45,0.49,-11,-3,-22,0.92,9323,0,89,38,29,820,564.0,644,468,60,128.0,118,1,287,189,66,0,0,490,2211,-21872,553,-5.59,,,,,,,,,,,,
342823,1564236561156,10,2.31,0.98,0.33,1.43,1.05,0.91,0.54,0.44,-10,-4,-21,1.05,9346,0,89,38,28,825,556.0,648,468,60,127.0,118,1,282,188,66,0,0,514,-22359,-32768,555,-5.59,,,,,,,,,,,,
342843,1564236561176,9,2.3,0.99,0.33,1.44,1.05,1.0,0.6,0.44,-9,-4,-19,1.16,9314,0,89,38,27,828,555.0,648,462,60,126.0,118,1,278,188,66,0,0,500,-22263,-3414,548,-5.59,44.680065,10.016943,56.67,179.0,0,0.0,-1,0.0,0.0,0,2.19,5.714
342863,1564236561196,5,2.3,0.98,0.33,1.43,1.05,1.0,0.48,0.43,-9,-1,-18,1.11,9323,0,89,38,27,850,553.0,647,460,60,127.0,118,1,278,187,66,0,0,495,2104,10408,546,-5.59,,,,,,,,,,,,
342883,1564236561216,8,2.28,1.0,0.33,1.43,1.05,0.99,0.35,0.36,-9,-2,-16,1.05,9356,0,89,38,26,866,547.0,646,469,60,127.0,118,1,274,187,66,0,0,529,2524,17136,541,-5.59,,,,,,,,,,,,
342903,1564236561236,10,2.27,0.99,0.33,1.44,1.04,1.03,0.42,0.33,-9,-1,-16,1.11,9375,0,89,38,26,872,540.0,647,466,60,128.0,123,1,274,187,66,0,0,518,-8186,2109,532,-5.59,,,,,,,,,,,,
342923,1564236561256,9,2.28,0.98,0.33,1.43,1.05,1.13,0.46,0.39,-8,-3,-14,1.22,9431,0,89,38,25,873,535.0,646,462,60,127.0,123,1,270,186,66,0,0,506,6274,-28648,530,-5.59,,,,,,,,,,,,
342943,1564236561276,6,2.3,0.98,0.33,1.42,1.03,1.0,0.34,0.37,-8,-2,-13,1.05,9426,0,89,38,25,858,529.0,649,462,60,127.0,123,1,270,186,66,0,0,495,-9072,3,523,-5.59,44.680065,10.016962,55.74,178.9,0,0.0,-1,0.0,0.0,0,2.19,5.7157
342963,1564236561296,7,2.33,0.97,0.32,1.42,1.03,1.04,0.25,0.27,-7,-1,-12,1.07,9370,0,89,38,25,832,529.0,650,466,60,128.0,123,1,270,186,66,0,0,502,-9072,-22519,520,-5.59,,,,,,,,,,,,
342983,1564236561316,7,2.38,0.98,0.32,1.4,1.03,1.14,0.24,0.27,-7,0,-12,1.17,9305,0,89,38,24,812,524.0,650,466,60,128.0,123,1,270,179,66,0,0,490,10408,-22519,519,-5.59,,,,,,,,,,,,
343003,1564236561336,7,2.44,0.98,0.32,1.42,1.03,1.23,0.3,0.26,-5,-0,-11,1.26,9173,0,89,38,24,780,516.0,648,463,60,127.0,120,1,270,179,62,0,0,488,-3482,-6528,516,-5.59,,,,,,,,,,,,
343023,1564236561356,7,2.49,0.98,0.33,1.42,1.05,1.19,0.37,0.32,-3,-3,-10,1.24,9084,0,89,38,23,769,514.0,647,466,60,126.0,120,1,270,174,62,0,0,474,-3414,3,514,-5.59,,,,,,,,,,,,
343043,1564236561376,7,2.54,1.0,0.33,1.44,1.05,1.15,0.28,0.39,-0,-4,-9,1.18,9040,0,89,38,23,766,513.0,636,468,60,127.0,120,1,270,174,62,0,0,466,3,10408,513,-5.59,44.680069,10.016982,53.53,178.9,0,0.0,-1,0.0,0.0,0,2.19,5.7174
343063,1564236561396,7,2.58,0.99,0.34,1.44,1.06,1.11,0.3,0.41,2,-5,-5,1.15,8877,0,89,38,23,767,511.0,640,469,60,127.0,120,1,270,174,62,0,0,415,248,-3856,511,-5.59,,,,,,,,,,,,
343083,1564236561416,6,2.6,1.0,0.34,1.45,1.06,1.2,0.27,0.45,4,-6,-2,1.23,8696,0,89,38,23,771,515.0,637,467,60,126.0,120,1,270,174,62,0,0,395,32033,-3482,515,-5.59,,,,,,,,,,,,
343103,1564236561436,6,2.6,1.01,0.34,1.45,1.06,1.29,0.12,0.4,7,-4,2,1.29,8561,0,89,38,23,777,516.0,628,467,60,128.0,111,1,270,174,57,0,0,376,-899,16383,516,-5.59,,,,,,,,,,,,
343123,1564236561456,6,2.61,1.01,0.34,1.46,1.06,1.18,-0.05,0.33,11,-4,6,1.18,8351,0,89,38,24,786,514.0,601,465,60,127.0,111,1,270,172,57,0,0,362,-9203,17136,514,-5.59,,,,,,,,,,,,
343143,1564236561476,2,2.6,1.0,0.34,1.44,1.06,1.22,-0.12,0.33,14,-4,9,1.22,8141,0,89,38,24,799,517.0,598,463,60,128.0,111,1,270,161,57,0,0,332,8488,15679,517,-5.59,44.680069,10.017,51.36,178.8,0,0.0,-1,0.0,0.0,0,2.19,5.719
343163,1564236561492,2,2.6,0.99,0.34,1.45,1.06,1.16,-0.31,0.17,16,-1,13,1.2,7911,0,89,38,25,821,515.0,558,465,60,127.0,111,1,269,157,57,0,0,309,-16384,16383,515,-5.59,,,,,,,,,,,,
343183,1564236561512,1,2.61,0.99,0.34,1.43,1.06,1.12,-0.41,0.21,18,1,16,1.19,7741,0,89,38,25,831,513.0,559,464,60,127.0,111,1,267,157,57,0,0,278,-3210,-3482,515,-5.59,,,,,,,,,,,,
343203,1564236561532,0,2.61,0.99,0.34,1.43,1.05,1.07,-0.57,0.2,20,2,19,1.21,7518,0,89,38,25,840,509.0,506,466,60,127.0,88,1,265,157,45,0,0,255,-3210,-3414,510,-5.59,,,,,,,,,,,,
343223,1564236561552,-0,2.61,0.99,0.34,1.44,1.05,1.04,-0.66,0.18,21,3,21,1.23,7344,0,89,38,25,855,506.0,495,465,60,127.0,88,1,263,157,45,0,0,244,30272,-4054,506,-5.59,,,,,,,,,,,,
343243,1564236561572,0,2.6,0.98,0.34,1.43,1.05,0.98,-0.79,0.2,22,3,23,1.26,7175,0,89,38,25,866,505.0,416,465,60,128.0,88,1,261,157,45,0,0,222,30272,-3856,506,-5.59,44.680069,10.017018,50.21,178.8,0,0.0,-1,0.0,0.0,0,2.19,5.7207
343263,1564236561596,1,2.6,0.99,0.34,1.43,1.05,1.08,-0.88,0.19,23,1,26,1.4,6936,0,89,38,25,878,505.0,366,465,60,117.0,88,1,261,80,45,0,0,204,30272,-28648,506,-5.59,,,,,,,,,,,,
343283,1564236561616,0,2.6,0.99,0.33,1.43,1.05,0.99,-0.86,0.3,25,4,26,1.31,6720,0,89,38,26,884,506.0,371,465,60,116.0,88,1,266,158,45,0,0,201,-18108,-32248,506,-5.59,,,,,,,,,,,,
343303,1564236561636,-1,2.61,0.99,0.33,1.43,1.05,1.05,-0.93,0.28,25,2,29,1.4,6521,0,89,38,26,893,506.0,340,462,60,119.0,77,1,268,158,39,0,0,220,17628,-28648,506,-5.59,,,,,,,,,,,,
343323,1564236561656,1,2.6,0.99,0.33,1.43,1.05,0.96,-0.95,0.32,26,1,31,1.35,6364,0,89,38,27,901,503.0,313,463,60,119.0,77,1,273,159,39,0,0,224,17628,11560,503,-5.59,,,,,,,,,,,,
343343,1564236561676,1,2.6,0.98,0.34,1.43,1.05,0.87,-0.95,0.4,28,4,32,1.29,6216,0,89,38,28,908,502.0,316,461,60,118.0,77,1,278,159,39,0,0,226,14488,3,502,-5.59,44.680069,10.017035,48.98,178.8,0,0.0,-1,0.0,0.0,0,2.19,5.7224
343363,1564236561696,0,2.61,0.99,0.34,1.43,1.06,0.88,-0.97,0.45,29,6,33,1.31,6034,0,89,38,28,912,503.0,300,462,60,117.0,77,1,278,161,39,0,0,225,14488,-32248,503,-5.59,,,,,,,,,,,,
343383,1564236561716,2,2.59,0.99,0.34,1.44,1.05,0.92,-0.97,0.49,31,8,34,1.33,5916,0,89,38,29,917,499.0,290,462,60,118.0,77,1,276,162,39,0,0,231,-26615,11560,498,-5.59,,,,,,,,,,,,
343403,1564236561736,1,2.59,0.99,0.34,1.43,1.06,0.88,-0.97,0.56,32,8,34,1.31,5848,0,89,38,30,927,499.0,280,462,60,120.0,72,1,275,162,36,0,0,219,2524,505,498,-5.59,,,,,,,,,,,,
343423,1564236561756,2,2.58,0.99,0.34,1.43,1.06,0.75,-0.98,0.55,32,8,34,1.23,5894,0,89,38,31,936,493.0,271,463,60,120.0,72,1,281,163,36,0,0,190,-3267,8488,492,-5.59,,,,,,,,,,,,
