"Interval"|"ms"|0|0|1,"Utc"|"ms"|0|0|1,"FB_p"|"bar"|0|300|50,"Volant"|"F"|0.0|300.0|50,"xFR"|"mm"|0.0|5.0|50,"xRR"|"mm"|0.0|5.0|50,"xFL"|"mm"|0.0|5.0|50,"xRL"|"mm"|0.0|5.0|50,"AccelX"|"G"|-3.0|3.0|50,"AccelY"|"G"|-3.0|3.0|50,"AccelZ"|"G"|-3.0|3.0|50,"Yaw"|"Deg/Sec"|-120|120|50,"Pitch"|"Deg/Sec"|-120|120|50,"Roll"|"Deg/Sec"|-120|120|50,"Gsum"|"G"|0.0|3.0|50,"RPM"|""|0|14000|50,"TPS"|"%"|0|100|50,"WaterTemp"|"?C"|0|300|50,"AirTemp"|"?C"|-1000|1000|50,"MAP"|"KPa"|0|255|50,"Lambda"|""|0|1024|50,"WheelSpeed"|"MPH"|0.0|150.0|50,"OilPress"|"PSI"|0|150|50,"FuelPress"|"PSI"|0|150|50,"OilTemp"|"F"|0|300|50,"Battery"|"Volts"|0.0|20.0|50,"FuelCon"|"L/h"|-1000|1000|50,"Gear"|""|0|10|50,"Advance"|"Deg"|-360|360|50,"Injection"|"ms"|-1000|1000|50,"FuelCon"|"L/100km"|-1000|1000|50,"LC_But_Pres"|""|-1000|1000|50,"LC_Active"|""|-1000|1000|50,"RD_Speed"|""|-1000|1000|50,"RUD_Speed"|""|-1000|1000|50,"LD_Speed"|""|-1000|1000|50,"LUD_Speed"|""|-1000|1000|50,"Ana1"|"bar"|-1000.0|1000.0|50,"Latitude"|"Degrees"|-180.0|180.0|10,"Longitude"|"Degrees"|-180.0|180.0|10,"Speed"|"kph"|0.0|150.0|10,"Altitude"|"m"|0.0|4000.0|10,"LapCount"|""|0|0|10,"LapTime"|"Min"|0.0|0.0|10,"Sector"|""|0|0|10,"SectorTime"|"Min"|0.0|0.0|10,"ElapsedTime"|"Min"|0.0|0.0|10,"CurrentLap"|""|0|0|10,"Distance"|"km"|0.0|0.0|10,"SessionTime"|"Min"|0.0|0.0|10
47403,1564322752648,4,2.26,1.36,0.6,2.31,1.92,0.69,0.01,0.44,0,4,-27,0.69,4450,19,40,27,68,875,0.0,589,465,60,131.0,0,1,227,322,55,0,0,0,250,250,0,-5.59,,,,,,,,,,,,
47423,1564322752668,4,2.27,1.36,0.59,2.31,1.92,0.66,0.01,0.46,-0,5,-25,0.66,4401,19,40,27,68,876,0.0,589,460,60,131.0,0,1,223,321,53,0,0,0,250,250,0,-5.59,,,,,,,,,,,,
47443,1564322752688,2,2.26,1.36,0.59,2.31,1.92,0.65,0.03,0.45,0,5,-24,0.65,4441,19,40,27,68,875,0.0,589,455,60,130.0,0,1,227,321,53,0,0,0,250,250,0,-5.59,44.68095,10.01946,0.0,181.5,0,0.0,-1,0.0,0.0,0,0.0,0.7907
47463,1564322752709,1,2.27,1.36,0.59,2.32,1.92,0.65,0.04,0.44,0,6,-23,0.65,4444,19,40,27,68,873,0.0,588,462,60,130.0,0,1,227,315,53,0,0,0,250,250,0,-5.59,,,,,,,,,,,,
47483,1564322752729,0,2.27,1.36,0.59,2.31,1.92,0.65,0.03,0.43,0,6,-21,0.65,4476,19,40,27,67,871,0.0,588,455,60,130.0,0,1,227,316,53,0,0,0,250,250,0,-5.59,,,,,,,,,,,,
47503,1564322752749,1,2.26,1.35,0.6,2.32,1.92,0.64,0.03,0.44,0,6,-20,0.64,4458,19,40,27,68,869,0.0,590,459,60,130.0,0,1,228,316,53,0,0,0,250,250,0,-5.59,,,,,,,,,,,,
47523,1564322752769,-1,2.26,1.36,0.6,2.32,1.91,0.65,0.04,0.46,0,5,-18,0.66,4470,19,40,27,68,868,0.0,586,456,60,130.0,0,1,229,322,53,0,0,0,250,250,0,-5.59,,,,,,,,,,,,
47543,1564322752789,-2,2.27,1.36,0.59,2.31,1.92,0.67,0.05,0.47,0,5,-17,0.67,4428,19,40,27,68,868,0.0,586,456,60,130.0,0,1,225,321,53,0,0,0,250,250,0,-5.59,44.68095,10.01946,0.0,181.5,0,0.0,-1,0.0,0.0,0,0.0,0.7924
47563,1564322752809,-0,2.27,1.35,0.6,2.32,1.92,0.72,0.05,0.46,0,6,-15,0.72,4414,19,40,27,68,868,0.0,586,454,60,130.0,0,1,224,321,53,0,0,0,250,250,0,-5.59,,,,,,,,,,,,
47583,1564322752829,-2,2.26,1.36,0.6,2.32,1.91,0.77,0.04,0.44,-0,6,-13,0.77,4454,19,40,27,68,868,0.0,587,462,60,131.0,0,1,228,322,53,0,0,0,250,250,0,-5.59,,,,,,,,,,,,
47603,1564322752849,-0,2.27,1.35,0.6,2.31,1.92,0.83,0.03,0.46,-0,4,-11,0.83,4439,19,40,27,67,869,0.0,585,456,60,130.0,0,1,224,321,53,0,0,0,250,250,0,-5.59,,,,,,,,,,,,
47623,1564322752869,-1,2.26,1.36,0.6,2.31,1.92,0.88,0.03,0.47,-0,3,-10,0.88,4479,19,40,27,67,869,0.0,584,457,60,129.0,0,1,228,322,54,0,0,0,250,250,0,-5.59,,,,,,,,,,,,
47643,1564322752895,-1,2.26,1.36,0.6,2.32,1.93,0.91,0.04,0.46,-0,2,-8,0.91,4423,19,40,27,68,869,0.0,590,466,60,128.0,0,1,225,321,54,0,0,0,250,250,0,-5.59,44.68095,10.01946,0.0,181.5,0,0.0,-1,0.0,0.0,0,0.0,0.794
47663,1564322752915,-1,2.27,1.35,0.6,2.31,1.93,0.94,0.02,0.46,-0,1,-7,0.94,4471,19,40,27,68,869,0.0,592,468,60,128.0,0,1,229,322,54,0,0,0,250,250,0,-5.59,,,,,,,,,,,,
47683,1564322752935,-3,2.26,1.33,0.59,2.32,1.91,0.96,-0.01,0.47,-0,-1,-5,0.96,4402,19,40,27,68,869,0.0,591,463,60,129.0,0,1,223,321,54,0,0,0,250,250,0,-5.59,,,,,,,,,,,,
47703,1564322752955,-1,2.27,1.36,0.6,2.32,1.92,0.98,-0.0,0.5,-0,-2,-4,0.98,4434,19,40,27,68,869,0.0,587,464,60,128.0,0,1,226,321,54,0,0,0,250,250,0,-5.59,,,,,,,,,,,,
47723,1564322752975,-1,2.27,1.35,0.6,2.31,1.92,0.98,-0.0,0.54,-0,-3,-3,0.98,4427,19,40,27,68,870,0.0,590,465,60,128.0,0,1,225,321,53,0,0,0,250,250,0,-5.59,,,,,,,,,,,,
47743,1564322752995,-1,2.26,1.35,0.59,2.31,1.93,0.95,0.02,0.55,-0,-3,-2,0.95,4471,19,40,27,68,871,0.0,591,465,60,129.0,0,1,229,322,53,0,0,0,250,250,0,-5.59,44.68095,10.01946,0.0,181.5,0,0.0,-1,0.0,0.0,0,0.0,0.7957
47763,1564322753007,-1,2.26,1.36,0.6,2.31,1.92,0.95,0.03,0.59,0,-3,-2,0.95,4481,19,40,27,68,873,0.0,588,464,60,130.0,0,1,229,322,53,0,0,0,250,250,0,-5.59,,,,,,,,,,,,
47783,1564322753027,-2,2.27,1.35,0.6,2.31,1.92,0.95,0.03,0.62,0,-3,-2,0.96,4470,19,40,27,68,875,0.0,591,465,60,129.0,0,1,229,321,53,0,0,0,250,250,0,-5.59,,,,,,,,,,,,
47803,1564322753047,-1,2.26,1.35,0.6,2.31,1.93,0.96,0.05,0.63,0,-3,-2,0.96,4466,19,40,27,68,876,0.0,587,467,60,130.0,0,1,229,322,53,0,0,0,250,250,0,-5.59,,,,,,,,,,,,
47823,1564322753067,-2,2.27,1.36,0.59,2.31,1.93,0.95,0.05,0.64,0,-3,-1,0.95,4445,19,40,27,68,876,0.0,588,466,60,130.0,0,1,227,321,53,0,0,0,250,250,0,-5.59,,,,,,,,,,,,
47843,1564322753095,0,2.26,1.36,0.6,2.32,1.92,0.92,0.03,0.65,0,-3,-1,0.92,4435,19,40,27,68,875,0.0,588,466,60,130.0,0,1,226,321,53,0,0,0,250,250,0,-5.59,44.68095,10.01946,0.0,181.5,0,0.0,-1,0.0,0.0,0,0.0,0.7974
47863,1564322753115,-2,2.27,1.36,0.6,2.31,1.92,0.89,0.02,0.64,-0,-2,-1,0.89,4447,19,40,27,68,873,0.0,588,466,60,129.0,0,1,227,321,53,0,0,0,250,250,0,-5.59,,,,,,,,,,,,
47883,1564322753135,-2,2.27,1.36,0.6,2.32,1.93,0.84,0.03,0.62,-0,-0,-1,0.84,4487,19,40,27,68,871,0.0,591,463,60,131.0,0,1,230,322,53,0,0,0,250,250,0,-5.59,,,,,,,,,,,,
47903,1564322753155,-2,2.27,1.36,0.6,2.31,1.92,0.83,0.02,0.58,-0,1,-2,0.83,4443,19,40,27,68,868,0.0,587,470,60,130.0,0,1,227,321,53,0,0,0,250,250,0,-5.59,,,,,,,,,,,,
47923,1564322753175,-2,2.27,1.36,0.6,2.32,1.92,0.8,0.03,0.56,-0,3,-2,0.81,4488,19,40,27,68,866,0.0,590,465,60,131.0,0,1,230,322,54,0,0,0,250,250,0,-5.59,,,,,,,,,,,,
47943,1564322753195,2,2.27,1.36,0.61,2.31,1.92,0.79,0.01,0.54,-0,4,-2,0.79,4493,19,40,27,68,865,0.0,591,461,60,130.0,0,1,231,322,54,0,0,0,250,250,0,-5.59,44.68095,10.01946,0.0,181.5,0,0.0,-1,0.0,0.0,0,0.0,0.799
47963,1564322753215,2,2.28,1.36,0.61,2.31,1.93,0.78,-0.0,0.53,-0,4,-2,0.78,4481,19,40,27,68,865,0.0,588,470,60,130.0,0,1,230,322,54,0,0,0,250,250,0,-5.59,,,,,,,,,,,,
47983,1564322753235,-2,2.26,1.36,0.6,2.31,1.93,0.77,-0.01,0.51,-0,4,-2,0.77,4501,19,40,27,68,865,0.0,590,468,60,130.0,0,1,232,323,54,0,0,0,250,250,0,-5.59,,,,,,,,,,,,
48003,1564322753255,-1,2.26,1.36,0.6,2.31,1.92,0.75,-0.0,0.51,-0,4,-2,0.75,4503,19,40,27,68,865,0.0,588,466,60,131.0,0,1,232,323,54,0,0,0,250,250,0,-5.59,,,,,,,,,,,,
48023,1564322753275,-1,2.26,1.36,0.6,2.31,1.92,0.72,-0.0,0.51,-0,5,-3,0.72,4506,19,40,27,68,866,0.0,592,468,60,130.0,0,1,232,323,55,0,0,0,250,250,0,-5.59,,,,,,,,,,,,
48043,1564322753295,-3,2.27,1.36,0.61,2.31,1.93,0.66,0.01,0.5,-0,6,-2,0.66,4544,19,40,27,68,868,0.0,590,467,60,131.0,0,1,235,323,55,0,0,0,250,250,0,-5.59,44.68095,10.01946,0.0,181.5,0,0.0,-1,0.0,0.0,0,0.0,0.8007
48063,1564322753315,-2,2.27,1.36,0.61,2.32,1.92,0.66,0.02,0.47,-0,7,-3,0.66,4512,19,40,27,68,871,0.0,588,463,60,130.0,0,1,233,323,55,0,0,0,250,250,0,181.28,,,,,,,,,,,,
48083,1564322753335,-0,2.26,1.36,0.61,2.32,1.93,0.66,0.02,0.46,-0,8,-2,0.66,4552,19,40,27,68,874,0.0,590,467,60,131.0,0,1,236,324,55,0,0,0,250,250,0,-5.59,,,,,,,,,,,,
48103,1564322753355,-1,2.27,1.35,0.61,2.32,1.93,0.69,0.01,0.47,-0,7,-3,0.69,4597,19,40,27,68,877,0.0,591,468,60,130.0,0,1,240,324,55,0,0,0,250,250,0,-5.59,,,,,,,,,,,,
48123,1564322753375,-2,2.26,1.36,0.61,2.32,1.93,0.71,0.01,0.48,-0,6,-2,0.71,4566,19,40,27,69,879,0.0,593,468,60,129.0,0,1,237,328,56,0,0,0,250,250,0,-5.59,,,,,,,,,,,,
48143,1564322753395,-1,2.26,1.36,0.61,2.32,1.93,0.74,0.01,0.51,-0,5,-1,0.74,4579,19,40,27,68,881,0.0,591,465,60,130.0,0,1,239,324,56,0,0,0,250,250,0,-5.59,44.68095,10.01946,0.0,181.5,0,0.0,-1,0.0,0.0,0,0.0,0.8024
48163,1564322753415,-3,2.27,1.36,0.61,2.31,1.93,0.76,0.01,0.54,-0,3,0,0.76,4585,19,40,27,68,883,0.0,590,463,60,128.0,0,1,239,324,56,0,0,0,250,250,0,-5.59,,,,,,,,,,,,
48183,1564322753435,-1,2.26,1.36,0.61,2.32,1.93,0.79,-0.01,0.57,-0,1,1,0.79,4592,19,40,27,68,884,0.0,594,464,60,129.0,0,1,239,324,56,0,0,0,250,250,0,-5.59,,,,,,,,,,,,
48203,1564322753455,-1,2.27,1.35,0.61,2.31,1.93,0.82,-0.0,0.58,-0,0,2,0.82,4578,19,40,27,68,884,0.0,592,463,60,128.0,0,1,238,324,56,0,0,0,250,250,0,-5.59,,,,,,,,,,,,
48223,1564322753475,-2,2.28,1.36,0.61,2.32,1.93,0.85,-0.02,0.59,-1,0,2,0.85,4602,19,40,27,68,884,0.0,592,456,60,130.0,0,1,240,325,56,0,0,0,250,250,0,-5.59,,,,,,,,,,,,
48243,1564322753491,1,2.26,1.36,0.61,2.32,1.93,0.88,-0.03,0.6,-1,1,2,0.88,4586,19,40,27,68,885,0.0,591,455,60,130.0,0,1,239,324,56,0,0,0,250,250,0,-5.59,44.68095,10.01946,0.0,181.5,0,0.0,-1,0.0,0.0,0,0.0,0.8041
48263,1564322753511,-0,2.26,1.36,0.62,2.32,1.92,0.9,-0.04,0.59,-1,2,3,0.9,4629,19,40,27,68,884,0.0,593,457,60,130.0,0,1,242,325,56,0,0,0,250,250,0,-5.59,,,,,,,,,,,,
48283,1564322753531,1,2.27,1.36,0.61,2.32,1.93,0.92,-0.04,0.6,-1,2,2,0.92,4608,19,40,27,68,884,0.0,593,456,60,131.0,0,1,241,325,56,0,0,0,250,250,0,-5.59,,,,,,,,,,,,
48303,1564322753551,3,2.27,1.36,0.62,2.32,1.93,0.89,-0.05,0.59,-1,3,1,0.89,4619,19,40,27,68,883,0.0,592,453,60,130.0,0,1,241,325,56,0,0,0,250,250,0,-5.59,,,,,,,,,,,,
48323,1564322753571,3,2.26,1.36,0.62,2.32,1.93,0.87,-0.02,0.64,-1,3,1,0.87,4589,19,40,27,68,881,0.0,592,455,60,131.0,0,1,239,324,56,0,0,0,250,250,0,-5.59,,,,,,,,,,,,
48343,1564322753591,2,2.27,1.36,0.61,2.31,1.93,0.83,0.01,0.67,-1,3,-0,0.83,4638,19,40,27,68,880,0.0,593,467,60,131.0,0,1,243,325,56,0,0,0,250,250,0,-5.59,44.68095,10.01946,0.0,181.5,0,0.0,-1,0.0,0.0,0,0.0,0.8057
48363,1564322753611,-3,2.27,1.36,0.62,2.31,1.94,0.79,0.01,0.67,-1,2,-1,0.79,4623,19,40,27,68,879,0.0,592,471,60,130.0,0,1,242,325,56,0,0,0,250,250,0,-5.59,,,,,,,,,,,,
48383,1564322753631,-1,2.27,1.36,0.61,2.32,1.92,0.75,0.01,0.65,-1,2,-1,0.75,4673,19,40,27,68,879,0.0,593,469,60,129.0,0,1,246,326,56,0,0,0,250,250,0,-5.59,,,,,,,,,,,,
48403,1564322753651,-1,2.26,1.36,0.62,2.31,1.93,0.78,0.02,0.62,-1,1,-0,0.78,4703,19,40,27,68,879,0.0,592,465,60,129.0,0,1,249,327,56,0,0,0,250,250,0,-5.59,,,,,,,,,,,,
48423,1564322753671,-1,2.27,1.36,0.62,2.31,1.93,0.81,0.01,0.62,-1,0,1,0.81,4737,19,40,27,68,879,0.0,595,464,60,128.0,0,1,251,327,58,0,0,0,250,250,0,-5.59,,,,,,,,,,,,
48443,1564322753692,1,2.27,1.36,0.62,2.32,1.93,0.81,-0.01,0.6,-0,1,1,0.81,4720,19,40,27,68,880,0.0,593,461,60,129.0,0,1,250,327,58,0,0,0,250,250,0,-5.59,44.68095,10.01946,0.0,181.5,0,0.0,-1,0.0,0.0,0,0.0,0.8074
48463,1564322753712,2,2.27,1.36,0.62,2.32,1.93,0.82,0.0,0.57,-0,2,0,0.82,4703,19,40,27,68,881,0.0,590,458,60,130.0,0,1,249,327,58,0,0,0,250,250,0,-5.59,,,,,,,,,,,,
48483,1564322753732,4,2.26,1.37,0.62,2.32,1.94,0.83,0.02,0.55,-0,3,-0,0.83,4724,19,40,27,68,884,0.0,593,461,60,131.0,0,1,250,327,58,0,0,0,250,250,0,-5.59,,,,,,,,,,,,
48503,1564322753752,-3,2.26,1.36,0.62,2.31,1.94,0.81,0.03,0.58,-0,3,-1,0.81,4716,19,40,27,68,885,0.0,595,469,60,130.0,0,1,250,327,58,0,0,0,250,250,0,-5.59,,,,,,,,,,,,
48523,1564322753772,-2,2.27,1.37,0.62,2.32,1.93,0.81,0.03,0.57,-0,2,-1,0.81,4737,19,40,27,68,887,0.0,595,467,60,130.0,0,1,251,327,58,0,0,0,250,250,0,-5.59,,,,,,,,,,,,
48543,1564322753794,-3,2.27,1.36,0.62,2.32,1.93,0.85,0.04,0.58,-0,0,-0,0.85,4755,19,40,27,68,887,0.0,594,461,60,128.0,0,1,253,327,58,0,0,0,250,250,0,-5.59,44.68095,10.01946,0.0,181.5,0,0.0,-1,0.0,0.0,0,0.0,0.809
48563,1564322753814,-0,2.27,1.36,0.62,2.32,1.94,0.86,0.03,0.56,-0,0,1,0.87,4744,19,40,27,68,885,0.0,591,457,60,128.0,0,1,252,327,58,0,0,0,250,250,0,-5.59,,,,,,,,,,,,
48583,1564322753834,2,2.27,1.36,0.62,2.33,1.93,0.86,0.02,0.53,-0,1,0,0.86,4752,19,40,27,68,883,0.0,592,457,60,131.0,0,1,253,328,58,0,0,0,250,250,0,-5.59,,,,,,,,,,,,
48603,1564322753854,3,2.27,1.36,0.62,2.33,1.93,0.84,0.04,0.56,-0,1,-0,0.84,4725,19,40,27,68,880,0.0,589,463,60,131.0,0,1,250,327,58,0,0,0,250,250,0,-5.59,,,,,,,,,,,,
48623,1564322753874,-2,2.27,1.37,0.62,2.32,1.93,0.81,0.06,0.62,-0,1,-1,0.81,4728,19,40,27,68,876,0.0,590,467,60,130.0,0,1,251,327,58,0,0,0,250,250,0,-5.59,,,,,,,,,,,,
48643,1564322753896,-1,2.26,1.36,0.62,2.32,1.93,0.78,0.05,0.65,-0,0,-1,0.79,4674,19,40,27,68,872,0.0,590,467,60,130.0,0,1,246,326,58,0,0,0,250,250,0,-5.59,44.68095,10.01946,0.0,181.5,0,0.0,-1,0.0,0.0,0,0.0,0.8107
48663,1564322753916,-0,2.26,1.36,0.62,2.32,1.94,0.76,0.05,0.64,-0,-0,-1,0.76,4693,19,40,27,68,869,0.0,590,469,60,130.0,0,1,248,327,58,0,0,0,250,250,0,-5.59,,,,,,,,,,,,
48683,1564322753936,-0,2.27,1.36,0.62,2.32,1.94,0.78,0.06,0.61,-0,-1,0,0.78,4689,19,40,27,68,868,0.0,592,467,60,128.0,0,1,247,326,58,0,0,0,250,250,0,-5.59,,,,,,,,,,,,
48703,1564322753956,-1,2.26,1.36,0.63,2.32,1.93,0.78,0.03,0.61,-0,-1,1,0.78,4685,19,40,27,68,868,0.0,597,464,60,128.0,0,1,247,326,58,0,0,0,250,250,0,-5.59,,,,,,,,,,,,
48723,1564322753976,-1,2.26,1.36,0.63,2.32,1.94,0.81,0.01,0.58,-0,0,1,0.81,4674,19,40,27,67,867,0.0,594,455,60,130.0,0,1,245,326,58,0,0,0,250,250,0,-5.59,,,,,,,,,,,,
48743,1564322753996,3,2.27,1.36,0.63,2.32,1.94,0.81,0.02,0.58,-0,2,0,0.81,4686,19,40,27,68,867,0.0,595,459,60,130.0,0,1,247,326,58,0,0,0,250,250,0,-5.59,44.68095,10.01946,0.0,181.5,0,0.0,-1,0.0,0.0,0,0.0,0.8124
48763,1564322754010,3,2.27,1.36,0.62,2.32,1.94,0.81,0.02,0.55,-0,3,-0,0.81,4728,19,40,27,68,866,0.0,594,462,60,131.0,0,1,251,327,58,0,0,0,250,250,0,-5.59,,,,,,,,,,,,
48783,1564322754030,-1,2.26,1.36,0.62,2.33,1.93,0.79,0.03,0.57,-0,3,-1,0.79,4699,19,40,27,68,866,0.0,594,470,60,130.0,0,1,248,326,58,0,0,0,250,250,0,-5.59,,,,,,,,,,,,
48803,1564322754050,-3,2.28,1.36,0.62,2.32,1.93,0.79,0.04,0.56,-0,2,-1,0.79,4724,19,40,27,68,865,0.0,595,466,60,130.0,0,1,250,327,58,0,0,0,250,250,0,-5.59,,,,,,,,,,,,
48823,1564322754070,-1,2.26,1.35,0.62,2.32,1.93,0.82,0.03,0.58,-0,0,-1,0.83,4700,19,40,27,68,864,0.0,592,470,60,129.0,0,1,248,327,58,0,0,0,250,250,0,-5.59,,,,,,,,,,,,
48843,1564322754092,-1,2.27,1.36,0.63,2.32,1.94,0.85,0.02,0.59,-0,-1,1,0.85,4702,19,40,27,68,865,0.0,591,460,60,127.0,0,1,248,327,58,0,0,0,250,250,0,-5.59,44.68095,10.01946,0.0,181.5,0,0.0,-1,0.0,0.0,0,0.0,0.814
48863,1564322754112,1,2.26,1.37,0.63,2.33,1.94,0.85,0.02,0.57,-0,-2,1,0.85,4708,19,40,27,68,865,0.0,592,460,60,128.0,0,1,249,327,58,0,0,0,250,250,0,-5.59,,,,,,,,,,,,
48883,1564322754132,2,2.26,1.36,0.63,2.33,1.93,0.84,0.03,0.6,-0,-2,0,0.84,4705,19,40,27,68,865,0.0,591,455,60,131.0,0,1,249,320,58,0,0,0,250,250,0,-5.59,,,,,,,,,,,,
48903,1564322754152,5,2.26,1.37,0.62,2.33,1.93,0.81,0.04,0.63,0,-0,-0,0.81,4739,19,40,27,68,865,0.0,590,458,60,130.0,0,1,252,327,58,0,0,0,250,250,0,-5.59,,,,,,,,,,,,
48923,1564322754172,-2,2.26,1.37,0.63,2.33,1.94,0.79,0.04,0.67,-0,0,-1,0.79,4716,19,40,27,68,865,0.0,592,461,60,130.0,0,1,250,327,58,0,0,0,250,250,0,-5.59,,,,,,,,,,,,
48943,1564322754196,-2,2.27,1.36,0.63,2.32,1.93,0.79,0.03,0.66,-0,-1,-1,0.79,4774,19,40,27,68,864,0.0,596,468,60,130.0,0,1,255,328,58,0,0,0,250,250,0,-5.59,44.68095,10.01946,0.0,181.5,0,0.0,-1,0.0,0.0,0,0.0,0.8157
48963,1564322754216,-1,2.26,1.36,0.63,2.32,1.94,0.81,0.01,0.63,-0,-2,-0,0.81,4774,19,40,27,68,863,0.0,596,463,60,127.0,0,1,255,328,58,0,0,0,250,250,0,-5.59,,,,,,,,,,,,
48983,1564322754236,1,2.26,1.36,0.63,2.33,1.93,0.8,-0.02,0.61,-0,-2,1,0.8,4757,19,40,27,68,862,0.0,591,458,60,130.0,0,1,253,328,58,0,0,0,250,250,0,-5.59,,,,,,,,,,,,
49003,1564322754256,2,2.26,1.36,0.63,2.33,1.94,0.8,-0.01,0.63,-0,-1,1,0.81,4754,19,40,27,68,863,0.0,589,458,60,130.0,0,1,253,328,58,0,0,0,250,250,0,-5.59,,,,,,,,,,,,
49023,1564322754276,5,2.26,1.37,0.63,2.32,1.93,0.78,0.02,0.65,0,1,-0,0.78,4737,19,40,27,68,862,0.0,589,458,60,130.0,0,1,251,327,59,0,0,0,250,250,0,-5.59,,,,,,,,,,,,
49043,1564322754298,-2,2.27,1.36,0.63,2.32,1.94,0.74,0.04,0.64,0,2,-1,0.74,4756,19,40,27,68,862,0.0,587,462,60,131.0,0,1,253,328,59,0,0,0,250,250,0,-5.59,44.68095,10.01946,0.0,181.5,0,0.0,-1,0.0,0.0,0,0.0,0.8174
49063,1564322754318,-2,2.27,1.37,0.63,2.33,1.94,0.77,0.06,0.61,0,2,-1,0.78,4734,19,41,27,68,861,0.0,597,472,60,128.0,0,1,253,327,59,0,0,0,250,250,0,-5.59,,,,,,,,,,,,
49083,1564322754338,-1,2.27,1.36,0.63,2.32,1.94,0.8,0.02,0.6,-0,1,0,0.8,4696,19,41,27,68,860,0.0,592,461,60,128.0,0,1,248,327,59,0,0,0,250,250,0,-5.59,,,,,,,,,,,,
49103,1564322754358,-0,2.26,1.36,0.63,2.32,1.93,0.81,-0.0,0.57,-0,0,1,0.81,4734,19,41,27,68,859,0.0,594,457,60,129.0,0,1,251,327,59,0,0,0,250,250,0,-5.59,,,,,,,,,,,,
49123,1564322754378,2,2.27,1.37,0.63,2.33,1.93,0.81,0.0,0.55,-0,1,0,0.81,4736,19,41,27,68,856,0.0,595,457,60,129.0,0,1,251,327,58,0,0,0,250,250,0,-5.59,,,,,,,,,,,,
49143,1564322754398,4,2.26,1.37,0.63,2.33,1.94,0.8,0.0,0.56,0,1,-0,0.8,4746,19,41,27,68,852,0.0,594,456,60,130.0,0,1,252,327,58,0,0,0,250,250,0,-5.59,44.68095,10.01946,0.0,181.5,0,0.0,-1,0.0,0.0,0,0.0,0.819
49163,1564322754418,-2,2.27,1.36,0.63,2.33,1.94,0.79,-0.0,0.55,-0,1,-1,0.79,4744,19,41,27,68,848,0.0,594,465,60,131.0,0,1,252,327,58,0,0,0,250,250,0,-5.59,,,,,,,,,,,,
49183,1564322754438,0,2.27,1.37,0.63,2.33,1.94,0.8,0.01,0.56,-0,0,-1,0.8,4740,19,41,27,68,844,0.0,594,461,60,129.0,0,1,252,327,58,0,0,0,250,250,0,-5.59,,,,,,,,,,,,
49203,1564322754458,-3,2.28,1.36,0.63,2.33,1.93,0.85,-0.01,0.62,-0,-2,-0,0.85,4750,19,41,27,68,842,0.0,592,464,60,128.0,0,1,253,327,58,0,0,0,250,250,0,-5.59,,,,,,,,,,,,
49223,1564322754478,-0,2.27,1.36,0.63,2.32,1.94,0.86,-0.02,0.63,-0,-3,0,0.86,4731,19,41,27,68,841,0.0,594,464,60,129.0,0,1,251,327,59,0,0,0,250,250,0,-5.59,,,,,,,,,,,,
49243,1564322754498,2,2.26,1.36,0.63,2.33,1.93,0.86,-0.01,0.59,-0,-3,1,0.86,4742,19,41,27,68,842,0.0,594,458,60,130.0,0,1,252,327,59,0,0,0,250,250,0,-5.59,44.68095,10.01946,0.0,181.5,0,0.0,-1,0.0,0.0,0,0.0,0.8207
49263,1564322754518,2,2.27,1.37,0.63,2.33,1.94,0.83,0.01,0.63,0,-2,1,0.83,4730,19,41,27,68,844,0.0,593,458,60,130.0,0,1,251,327,59,0,0,0,250,250,0,-5.59,,,,,,,,,,,,
49283,1564322754538,5,2.26,1.37,0.63,2.32,1.94,0.78,0.03,0.65,0,0,-0,0.78,4719,19,41,27,68,847,0.0,593,465,60,131.0,0,1,250,327,59,0,0,0,250,250,0,-5.59,,,,,,,,,,,,
49303,1564322754558,-2,2.27,1.36,0.63,2.32,1.95,0.75,0.03,0.66,0,1,-1,0.75,4667,19,41,27,68,849,0.0,592,462,60,130.0,0,1,246,326,59,0,0,0,250,250,0,-5.59,,,,,,,,,,,,
49323,1564322754578,-2,2.25,1.36,0.63,2.32,1.94,0.71,0.02,0.63,0,1,-1,0.71,4705,19,41,27,68,849,0.0,595,467,60,130.0,0,1,249,327,58,0,0,0,250,250,0,-5.59,,,,,,,,,,,,
49343,1564322754598,-1,2.26,1.37,0.63,2.32,1.94,0.76,0.03,0.62,-0,1,-1,0.76,4716,19,41,27,68,848,0.0,595,470,60,129.0,0,1,252,327,58,0,0,0,250,250,0,-5.59,44.68095,10.01946,0.0,181.5,0,0.0,-1,0.0,0.0,0,0.0,0.8224
49363,1564322754618,-1,2.26,1.37,0.63,2.33,1.94,0.78,-0.01,0.61,-0,1,0,0.78,4700,19,41,27,68,848,0.0,591,463,60,128.0,0,1,248,327,58,0,0,0,250,250,0,-5.59,,,,,,,,,,,,
49383,1564322754638,1,2.27,1.37,0.63,2.32,1.94,0.8,-0.01,0.58,-0,1,1,0.8,4724,19,41,27,68,848,0.0,588,455,60,129.0,0,1,250,327,58,0,0,0,250,250,0,-5.59,,,,,,,,,,,,
49403,1564322754658,4,2.27,1.36,0.63,2.33,1.94,0.8,0.02,0.55,0,1,-0,0.8,4743,19,41,27,68,848,0.0,592,463,60,130.0,0,1,252,327,58,0,0,0,250,250,0,-5.59,,,,,,,,,,,,
49423,1564322754678,3,2.27,1.37,0.63,2.33,1.94,0.77,0.02,0.58,0,1,-1,0.77,4743,19,41,27,68,848,0.0,592,464,60,131.0,0,1,252,327,58,0,0,0,250,250,0,-5.59,,,,,,,,,,,,
49443,1564322754697,-2,2.28,1.36,0.64,2.32,1.95,0.77,0.02,0.57,0,1,-2,0.77,4692,19,41,27,68,848,0.0,593,469,60,130.0,0,1,248,326,58,0,0,0,250,250,0,-5.59,44.68095,10.01946,0.0,181.5,0,0.0,-1,0.0,0.0,0,0.0,0.824
49463,1564322754717,-1,2.26,1.36,0.63,2.33,1.94,0.78,0.03,0.6,-0,-0,-1,0.78,4708,19,41,27,68,847,0.0,589,466,60,130.0,0,1,249,327,58,0,0,0,250,250,0,-5.59,,,,,,,,,,,,
49483,1564322754737,-0,2.26,1.37,0.63,2.33,1.94,0.81,0.01,0.65,-0,-3,-1,0.81,4693,19,41,27,68,846,0.0,596,466,60,128.0,0,1,248,326,58,0,0,0,250,250,0,-5.59,,,,,,,,,,,,
49503,1564322754757,-1,2.27,1.36,0.63,2.33,1.94,0.84,0.0,0.67,-0,-4,0,0.84,4702,19,41,27,68,845,0.0,596,467,60,128.0,0,1,248,327,58,0,0,0,250,250,0,-5.59,,,,,,,,,,,,
49523,1564322754777,2,2.27,1.36,0.64,2.33,1.94,0.81,-0.02,0.63,-0,-3,1,0.81,4731,19,41,27,68,844,0.0,595,459,60,128.0,0,1,251,327,58,0,0,0,250,250,0,-5.59,,,,,,,,,,,,
49543,1564322754797,2,2.27,1.36,0.63,2.33,1.94,0.79,0.01,0.64,0,-2,0,0.79,4743,19,41,27,68,845,0.0,593,458,60,131.0,0,1,252,327,58,0,0,0,250,250,0,-5.59,44.68095,10.01946,0.0,181.5,0,0.0,-1,0.0,0.0,0,0.0,0.8257
49563,1564322754817,3,2.25,1.37,0.63,2.33,1.94,0.76,0.03,0.68,0,0,-0,0.76,4716,19,41,27,68,846,0.0,592,458,60,131.0,0,1,250,327,58,0,0,0,250,250,0,-5.59,,,,,,,,,,,,
49583,1564322754837,-1,2.26,1.37,0.63,2.34,1.94,0.75,0.03,0.7,0,1,-1,0.75,4703,19,41,27,68,848,0.0,594,468,60,131.0,0,1,249,327,58,0,0,0,250,250,0,-5.59,,,,,,,,,,,,
49603,1564322754857,-2,2.27,1.36,0.63,2.33,1.93,0.74,0.03,0.68,0,-0,-1,0.74,4768,19,41,27,68,850,0.0,595,466,60,131.0,0,1,254,328,58,0,0,0,250,250,0,-5.59,,,,,,,,,,,,
49623,1564322754877,-1,2.26,1.37,0.63,2.33,1.94,0.79,0.0,0.65,-0,-1,-0,0.79,4739,19,41,27,68,852,0.0,593,463,60,128.0,0,1,252,327,58,0,0,0,250,250,0,-5.59,,,,,,,,,,,,
49643,1564322754897,0,2.26,1.37,0.63,2.33,1.94,0.78,-0.05,0.61,-0,-1,1,0.78,4778,19,41,27,68,855,0.0,595,457,60,130.0,0,1,255,328,58,0,0,0,250,250,0,-5.59,44.68095,10.01946,0.0,181.5,0,0.0,-1,0.0,0.0,0,0.0,0.8274
49663,1564322754917,3,2.27,1.37,0.63,2.34,1.94,0.78,-0.03,0.6,-0,0,1,0.78,4774,19,41,27,68,856,0.0,594,458,60,131.0,0,1,255,328,58,0,0,0,250,250,0,-5.59,,,,,,,,,,,,
49683,1564322754937,3,2.27,1.36,0.64,2.33,1.95,0.74,0.01,0.63,0,2,-0,0.74,4763,19,41,27,68,857,0.0,595,461,60,131.0,0,1,254,328,58,0,0,0,250,250,0,-5.59,,,,,,,,,,,,
49703,1564322754957,-2,2.26,1.36,0.63,2.33,1.94,0.7,0.03,0.64,0,2,-1,0.7,4752,19,41,27,68,855,0.0,596,470,60,129.0,0,1,253,328,58,0,0,0,250,250,0,-5.59,,,,,,,,,,,,
49723,1564322754977,-1,2.27,1.37,0.63,2.34,1.94,0.73,0.05,0.58,-0,2,-1,0.73,4703,19,41,27,68,852,0.0,594,470,60,129.0,0,1,249,327,58,0,0,0,250,250,0,-5.59,,,,,,,,,,,,
49743,1564322754997,-0,2.27,1.36,0.63,2.32,1.95,0.75,0.02,0.58,-0,1,0,0.75,4722,19,41,27,68,850,0.0,594,467,60,130.0,0,1,250,327,58,0,0,0,250,250,0,-5.59,44.68095,10.01946,0.0,181.5,0,0.0,-1,0.0,0.0,0,0.0,0.829
49763,1564322755009,-1,2.27,1.37,0.63,2.34,1.95,0.78,0.02,0.56,-0,1,1,0.78,4718,19,41,27,68,847,0.0,591,457,60,130.0,0,1,250,327,58,0,0,0,250,250,0,-5.59,,,,,,,,,,,,
49783,1564322755029,2,2.26,1.37,0.63,2.33,1.94,0.77,0.04,0.54,0,2,1,0.78,4701,19,41,27,68,847,0.0,590,462,60,130.0,0,1,248,327,58,0,0,0,250,250,0,-5.59,,,,,,,,,,,,
49803,1564322755049,4,2.26,1.37,0.63,2.33,1.94,0.75,0.05,0.52,0,3,0,0.76,4773,19,41,27,68,846,0.0,593,462,60,131.0,0,1,254,328,58,0,0,0,250,250,0,-5.59,,,,,,,,,,,,
49823,1564322755069,-1,2.27,1.37,0.63,2.34,1.94,0.72,0.05,0.53,0,4,-1,0.73,4740,19,41,27,68,847,0.0,591,465,60,130.0,0,1,252,327,58,0,0,0,250,250,0,-5.59,,,,,,,,,,,,
49843,1564322755095,-1,2.27,1.36,0.63,2.33,1.94,0.72,0.05,0.51,0,4,-1,0.73,4764,19,41,27,68,849,0.0,593,463,60,129.0,0,1,254,328,58,0,0,0,250,250,0,-5.59,44.68095,10.01946,0.0,181.5,0,0.0,-1,0.0,0.0,0,0.0,0.8307
49863,1564322755115,-1,2.27,1.37,0.63,2.34,1.94,0.76,0.05,0.54,-0,2,-0,0.77,4733,19,41,27,68,850,0.0,596,462,60,128.0,0,1,251,327,58,0,0,0,250,250,0,-5.59,,,,,,,,,,,,
49883,1564322755135,1,2.27,1.36,0.63,2.33,1.95,0.79,0.04,0.55,-0,2,1,0.79,4714,19,41,27,68,852,0.0,595,463,60,130.0,0,1,249,327,58,0,0,0,250,250,0,-5.59,,,,,,,,,,,,
49903,1564322755155,2,2.26,1.37,0.63,2.34,1.94,0.8,0.05,0.51,0,2,0,0.81,4730,19,41,27,68,853,0.0,590,457,60,130.0,0,1,251,327,58,0,0,0,250,250,0,-5.59,,,,,,,,,,,,
49923,1564322755175,5,2.26,1.37,0.63,2.34,1.94,0.8,0.06,0.54,0,2,-1,0.8,4721,19,41,27,68,853,0.0,590,460,60,130.0,0,1,250,327,58,0,0,0,250,250,0,-5.59,,,,,,,,,,,,
49943,1564322755197,0,2.26,1.37,0.64,2.32,1.94,0.77,0.08,0.56,0,3,-1,0.78,4762,19,41,27,68,853,0.0,589,461,60,131.0,0,1,254,328,58,0,0,0,250,250,0,-5.59,44.68095,10.01946,0.0,181.5,0,0.0,-1,0.0,0.0,0,0.0,0.8324
49963,1564322755217,-1,2.27,1.37,0.63,2.33,1.95,0.77,0.08,0.56,0,2,-2,0.77,4738,19,41,27,69,853,0.0,593,468,60,130.0,0,1,251,332,58,0,0,0,250,250,0,-5.59,,,,,,,,,,,,
49983,1564322755237,0,2.27,1.36,0.63,2.33,1.94,0.78,0.05,0.58,-0,0,-1,0.79,4736,19,41,27,68,853,0.0,592,466,60,130.0,0,1,250,327,58,0,0,0,250,250,0,-5.59,,,,,,,,,,,,
50003,1564322755257,-1,2.27,1.37,0.64,2.33,1.94,0.8,0.03,0.61,-0,-1,0,0.8,4712,19,41,27,68,852,0.0,593,466,60,129.0,0,1,249,327,58,0,0,0,250,250,0,-5.59,,,,,,,,,,,,
50023,1564322755277,2,2.27,1.37,0.63,2.34,1.94,0.81,-0.01,0.62,-0,-2,1,0.81,4692,19,41,27,68,852,0.0,595,453,60,130.0,0,1,248,326,58,0,0,0,250,250,0,-5.59,,,,,,,,,,,,
50043,1564322755297,3,2.26,1.36,0.64,2.34,1.94,0.81,-0.01,0.59,-0,-2,1,0.81,4668,19,41,27,68,852,0.0,595,459,60,130.0,0,1,246,326,58,0,0,0,250,250,0,-5.59,44.68095,10.01946,0.0,181.5,0,0.0,-1,0.0,0.0,0,0.0,0.834
50063,1564322755317,4,2.27,1.37,0.63,2.34,1.94,0.81,0.02,0.61,-0,-1,0,0.81,4649,19,41,27,68,852,0.0,594,460,60,130.0,0,1,244,325,58,0,0,0,250,250,0,-5.59,,,,,,,,,,,,
50083,1564322755337,3,2.27,1.37,0.63,2.33,1.94,0.78,0.03,0.61,0,1,-0,0.78,4681,19,41,27,68,852,0.0,592,462,60,131.0,0,1,247,326,58,0,0,0,250,250,0,-5.59,,,,,,,,,,,,
50103,1564322755357,-0,2.27,1.37,0.64,2.33,1.94,0.75,0.05,0.61,0,2,-1,0.75,4719,19,41,27,68,851,0.0,592,464,60,130.0,0,1,250,327,58,0,0,0,250,250,0,-5.59,,,,,,,,,,,,
50123,1564322755377,-2,2.28,1.36,0.64,2.33,1.95,0.75,0.06,0.6,-0,1,-1,0.76,4721,19,41,27,68,849,0.0,594,467,60,130.0,0,1,251,327,58,0,0,0,250,250,0,-5.59,,,,,,,,,,,,
50143,1564322755397,-1,2.27,1.37,0.63,2.34,1.94,0.8,0.05,0.61,-0,1,-0,0.8,4716,19,41,27,68,847,0.0,594,464,60,128.0,0,1,250,327,58,0,0,0,250,250,0,-5.59,44.68095,10.01946,0.0,181.5,0,0.0,-1,0.0,0.0,0,0.0,0.8357
50163,1564322755417,2,2.26,1.36,0.63,2.34,1.94,0.85,0.05,0.62,-0,-1,1,0.85,4681,19,41,27,68,845,0.0,593,463,60,128.0,0,1,247,326,58,0,0,0,250,250,0,-5.59,,,,,,,,,,,,
50183,1564322755437,1,2.27,1.37,0.63,2.33,1.95,0.86,0.04,0.57,-0,-0,1,0.86,4689,19,41,27,68,845,0.0,589,456,60,130.0,0,1,247,324,58,0,0,0,250,250,0,-5.59,,,,,,,,,,,,
50203,1564322755457,3,2.27,1.37,0.64,2.33,1.95,0.86,0.04,0.56,0,0,0,0.86,4678,19,41,27,68,845,0.0,588,456,60,130.0,0,1,246,324,58,0,0,0,250,250,0,-5.59,,,,,,,,,,,,
50223,1564322755477,5,2.26,1.37,0.64,2.33,1.95,0.84,0.06,0.56,0,2,-1,0.85,4726,19,41,27,68,847,0.0,590,457,60,129.0,0,1,250,325,57,0,0,0,250,250,0,-5.59,,,,,,,,,,,,
50243,1564322755497,-1,2.24,1.36,0.64,2.32,1.94,0.83,0.06,0.59,0,2,-2,0.83,4737,19,41,27,68,849,0.0,595,467,60,130.0,0,1,251,325,57,0,0,0,250,250,0,-5.59,44.68095,10.01946,0.0,181.5,0,0.0,-1,0.0,0.0,0,0.0,0.8374
50263,1564322755517,1,2.27,1.37,0.64,2.34,1.94,0.82,0.08,0.58,0,1,-1,0.82,4748,19,41,27,68,851,0.0,592,467,60,130.0,0,1,252,325,57,0,0,0,250,250,0,-5.59,,,,,,,,,,,,
50283,1564322755537,1,2.27,1.36,0.63,2.33,1.95,0.85,0.08,0.59,-0,-0,-1,0.85,4784,19,41,27,68,853,0.0,596,463,60,129.0,0,1,255,326,57,0,0,0,250,250,0,-5.59,,,,,,,,,,,,
50303,1564322755557,2,2.26,1.37,0.64,2.33,1.94,0.87,0.03,0.59,-0,-1,0,0.87,4768,19,41,27,68,855,0.0,595,461,60,128.0,0,1,254,326,57,0,0,0,250,250,0,-5.59,,,,,,,,,,,,
50323,1564322755577,4,2.26,1.38,0.63,2.34,1.94,0.86,0.02,0.56,-0,-1,-0,0.86,4800,19,41,27,68,855,0.0,594,463,60,130.0,0,1,257,327,59,0,0,0,250,250,0,-5.59,,,,,,,,,,,,
50343,1564322755597,6,2.27,1.36,0.63,2.33,1.95,0.82,0.04,0.58,0,-0,-1,0.82,4816,19,41,27,68,855,0.0,592,466,60,130.0,0,1,258,327,59,0,0,0,250,250,0,-5.59,44.68095,10.01946,0.0,181.5,0,0.0,-1,0.0,0.0,0,0.0,0.839
50363,1564322755617,-1,2.27,1.37,0.64,2.33,1.94,0.79,0.06,0.61,0,-1,-1,0.8,4805,19,41,27,68,855,0.0,593,468,60,130.0,0,1,257,327,59,0,0,0,250,250,0,-5.59,,,,,,,,,,,,
50383,1564322755637,0,2.27,1.37,0.64,2.33,1.95,0.84,0.08,0.59,-0,-2,-0,0.84,4801,19,41,27,68,855,0.0,596,465,60,128.0,0,1,257,327,59,0,0,0,250,250,0,-5.59,,,,,,,,,,,,
50403,1564322755657,1,2.26,1.37,0.64,2.33,1.95,0.85,0.02,0.6,-0,-4,1,0.86,4800,19,41,27,68,856,0.0,599,457,60,128.0,0,1,257,327,59,0,0,0,250,250,0,-5.59,,,,,,,,,,,,
50423,1564322755677,4,2.26,1.37,0.64,2.34,1.95,0.84,0.0,0.58,-0,-3,1,0.84,4773,19,41,27,68,856,0.0,596,463,60,130.0,0,1,254,326,59,0,0,0,250,250,0,-5.59,,,,,,,,,,,,
50443,1564322755696,5,2.26,1.36,0.64,2.33,1.95,0.81,0.03,0.6,-0,-1,-0,0.81,4752,19,41,27,68,856,0.0,595,462,60,130.0,0,1,253,326,59,0,0,0,250,250,0,-5.59,44.68095,10.01946,0.0,181.5,0,0.0,-1,0.0,0.0,0,0.0,0.8407
50463,1564322755716,-1,2.26,1.37,0.64,2.33,1.95,0.77,0.05,0.65,0,-0,-1,0.77,4734,19,41,27,68,856,0.0,593,467,60,131.0,0,1,251,325,59,0,0,0,250,250,0,-5.59,,,,,,,,,,,,
50483,1564322755736,-0,2.26,1.37,0.63,2.34,1.95,0.76,0.08,0.62,0,-0,-1,0.76,4736,19,41,27,68,855,0.0,594,469,60,130.0,0,1,251,325,59,0,0,0,250,250,0,-5.59,,,,,,,,,,,,
50503,1564322755756,-1,2.27,1.37,0.64,2.33,1.95,0.79,0.09,0.62,-0,-1,0,0.79,4726,19,41,27,68,854,0.0,595,462,60,128.0,0,1,250,325,59,0,0,0,250,250,0,-5.59,,,,,,,,,,,,
50523,1564322755776,1,2.26,1.37,0.64,2.34,1.94,0.8,0.05,0.61,-0,-1,1,0.8,4746,19,41,27,68,850,0.0,591,457,60,130.0,0,1,252,325,58,0,0,0,250,250,0,-5.59,,,,,,,,,,,,
50543,1564322755796,4,2.25,1.37,0.63,2.34,1.95,0.81,0.04,0.57,0,-0,1,0.81,4736,19,41,27,68,848,0.0,593,460,60,130.0,0,1,251,325,58,0,0,0,250,250,0,-5.59,44.68095,10.01946,0.0,181.5,0,0.0,-1,0.0,0.0,0,0.0,0.8424
50563,1564322755816,5,2.27,1.36,0.64,2.33,1.95,0.8,0.04,0.54,0,1,0,0.8,4763,19,41,27,68,846,0.0,594,459,60,130.0,0,1,254,326,58,0,0,0,250,250,0,-5.59,,,,,,,,,,,,
50583,1564322755836,-1,2.27,1.37,0.64,2.33,1.95,0.75,0.06,0.56,0,2,-1,0.76,4794,19,41,27,68,844,0.0,594,463,60,131.0,0,1,256,326,58,0,0,0,250,250,0,-5.59,,,,,,,,,,,,
50603,1564322755856,-1,2.27,1.37,0.64,2.33,1.94,0.76,0.07,0.53,-0,2,-0,0.77,4802,19,41,27,68,842,0.0,597,467,60,129.0,0,1,257,326,58,0,0,0,250,250,0,-5.59,,,,,,,,,,,,
50623,1564322755876,0,2.26,1.37,0.64,2.34,1.95,0.82,0.04,0.55,-0,1,1,0.82,4796,19,41,27,68,841,0.0,595,465,60,129.0,0,1,256,326,59,0,0,0,250,250,0,-5.59,,,,,,,,,,,,
50643,1564322755896,2,2.27,1.37,0.64,2.33,1.95,0.84,0.03,0.52,-0,1,1,0.84,4795,19,41,27,68,842,0.0,592,464,60,131.0,0,1,256,326,59,0,0,0,250,250,0,-5.59,44.68095,10.01946,0.0,181.5,0,0.0,-1,0.0,0.0,0,0.0,0.844
50663,1564322755916,6,2.27,1.37,0.64,2.34,1.94,0.83,0.02,0.47,0,2,0,0.83,4773,19,41,27,68,843,0.0,592,461,60,130.0,0,1,254,326,59,0,0,0,250,250,0,-5.59,,,,,,,,,,,,
50683,1564322755936,-0,2.26,1.37,0.63,2.34,1.95,0.8,0.05,0.51,0,4,-1,0.8,4773,19,41,27,68,844,0.0,591,465,60,131.0,0,1,254,326,59,0,0,0,250,250,0,-5.59,,,,,,,,,,,,
50703,1564322755956,-1,2.27,1.37,0.64,2.34,1.94,0.81,0.05,0.51,0,3,-1,0.81,4760,19,41,27,68,845,0.0,596,466,60,130.0,0,1,250,326,59,0,0,0,250,250,0,-5.59,,,,,,,,,,,,
50723,1564322755976,-1,2.28,1.37,0.64,2.33,1.95,0.85,0.04,0.55,-0,1,-0,0.85,4762,19,41,27,68,845,0.0,596,463,60,128.0,0,1,254,326,58,0,0,0,250,250,0,-5.59,,,,,,,,,,,,
50743,1564322755996,1,2.26,1.38,0.63,2.33,1.94,0.89,0.03,0.58,-0,-1,1,0.89,4725,19,41,27,68,845,0.0,594,462,60,130.0,0,1,250,325,58,0,0,0,250,250,0,-5.59,44.68095,10.01946,0.0,181.5,0,0.0,-1,0.0,0.0,0,0.0,0.8457
50763,1564322756006,4,2.26,1.37,0.63,2.33,1.95,0.88,0.01,0.54,0,-1,1,0.88,4737,19,41,27,68,844,0.0,591,457,60,130.0,0,1,251,325,58,0,0,0,250,250,0,-5.59,,,,,,,,,,,,
50783,1564322756026,5,2.27,1.37,0.64,2.33,1.95,0.86,0.01,0.56,0,-1,-0,0.86,4743,19,41,27,68,844,0.0,591,461,60,131.0,0,1,252,325,58,0,0,0,250,250,0,-5.59,,,,,,,,,,,,
50803,1564322756046,-1,2.26,1.37,0.64,2.32,1.95,0.82,0.04,0.6,0,0,-1,0.82,4720,19,41,27,68,844,0.0,590,460,60,130.0,0,1,250,325,58,0,0,0,250,250,0,-5.59,,,,,,,,,,,,
50823,1564322756066,2,2.26,1.37,0.63,2.33,1.95,0.78,0.05,0.65,-0,-1,-1,0.79,4703,19,41,27,69,843,0.0,592,469,60,130.0,0,1,249,329,58,0,0,0,250,250,0,-5.59,,,,,,,,,,,,
50843,1564322756096,-1,2.27,1.37,0.64,2.33,1.94,0.76,0.04,0.66,-0,-2,-1,0.76,4711,19,41,27,68,841,0.0,592,469,60,130.0,0,1,251,325,58,0,0,0,250,250,0,-5.59,44.68095,10.01946,0.0,181.5,0,0.0,-1,0.0,0.0,0,0.0,0.8474
50863,1564322756116,0,2.26,1.37,0.63,2.33,1.94,0.78,0.05,0.67,-0,-3,-0,0.78,4725,19,41,27,68,839,0.0,595,463,60,128.0,0,1,250,325,58,0,0,0,250,250,0,-5.59,,,,,,,,,,,,
50883,1564322756136,2,2.26,1.37,0.63,2.33,1.94,0.79,-0.01,0.66,-0,-3,1,0.79,4725,19,41,27,68,838,0.0,595,454,60,130.0,0,1,250,325,58,0,0,0,250,250,0,-5.59,,,,,,,,,,,,
50903,1564322756156,3,2.26,1.38,0.63,2.33,1.94,0.82,-0.01,0.61,-0,-1,1,0.82,4713,19,41,27,68,836,0.0,593,462,60,130.0,0,1,249,325,58,0,0,0,250,250,0,-5.59,,,,,,,,,,,,
50923,1564322756176,5,2.27,1.37,0.64,2.33,1.94,0.79,0.02,0.6,0,1,-0,0.79,4738,19,41,27,68,835,0.0,595,461,60,130.0,0,1,251,325,58,0,0,0,250,250,0,-5.59,,,,,,,,,,,,
50943,1564322756196,0,2.26,1.37,0.64,2.32,1.95,0.76,0.03,0.62,0,2,-1,0.76,4777,19,41,27,68,834,0.0,595,468,60,131.0,0,1,255,326,58,0,0,0,250,250,0,-5.59,44.68095,10.01946,0.0,181.5,0,0.0,-1,0.0,0.0,0,0.0,0.849
50963,1564322756216,-0,2.26,1.37,0.64,2.33,1.94,0.77,0.04,0.59,0,2,-1,0.77,4743,19,41,27,68,833,0.0,595,466,60,130.0,0,1,252,325,58,0,0,0,250,250,0,-5.59,,,,,,,,,,,,
50983,1564322756236,0,2.26,1.37,0.63,2.33,1.94,0.78,0.05,0.58,-0,1,0,0.78,4721,19,41,27,68,834,0.0,592,459,60,128.0,0,1,250,329,58,0,0,0,250,250,0,-5.59,,,,,,,,,,,,
51003,1564322756256,0,2.26,1.37,0.63,2.33,1.95,0.83,0.03,0.61,-0,-1,1,0.83,4669,19,41,27,69,835,0.0,590,463,60,130.0,0,1,246,328,58,0,0,0,250,250,0,-5.59,,,,,,,,,,,,
51023,1564322756276,1,2.27,1.37,0.64,2.33,1.94,0.87,0.02,0.61,-0,-2,1,0.87,4642,19,41,27,68,836,0.0,590,462,60,128.0,0,1,243,323,57,0,0,0,250,250,0,-5.59,,,,,,,,,,,,
51043,1564322756296,3,2.26,1.37,0.63,2.33,1.94,0.87,0.01,0.59,0,-2,1,0.87,4628,19,41,27,68,838,0.0,589,453,60,130.0,0,1,242,323,57,0,0,0,250,250,0,-5.59,44.68095,10.01946,0.0,181.5,0,0.0,-1,0.0,0.0,0,0.0,0.8507
51063,1564322756316,4,2.26,1.37,0.63,2.33,1.94,0.86,0.02,0.6,0,-1,1,0.86,4647,19,41,27,68,838,0.0,588,456,60,130.0,0,1,244,323,57,0,0,0,250,250,0,-5.59,,,,,,,,,,,,
51083,1564322756336,5,2.27,1.37,0.63,2.32,1.95,0.82,0.04,0.6,0,1,0,0.82,4656,19,41,27,68,839,0.0,591,465,60,130.0,0,1,245,324,57,0,0,0,250,250,0,-5.59,,,,,,,,,,,,
51103,1564322756356,0,2.26,1.38,0.63,2.33,1.94,0.78,0.06,0.61,0,2,-1,0.78,4663,19,41,27,68,838,0.0,588,461,60,130.0,0,1,245,324,57,0,0,0,250,250,0,-5.59,,,,,,,,,,,,
51123,1564322756376,0,2.27,1.38,0.63,2.32,1.94,0.75,0.07,0.62,0,2,-1,0.76,4699,19,41,27,68,837,0.0,593,466,60,131.0,0,1,248,324,57,0,0,0,250,250,0,-5.59,,,,,,,,,,,,
51143,1564322756396,1,2.27,1.37,0.63,2.32,1.94,0.77,0.09,0.57,-0,2,-1,0.78,4698,19,42,27,68,835,0.0,596,466,60,129.0,0,1,248,325,57,0,0,0,250,250,0,-5.59,44.68095,10.01946,0.0,181.5,0,0.0,-1,0.0,0.0,0,0.0,0.8524
51163,1564322756416,0,2.26,1.37,0.64,2.32,1.94,0.79,0.08,0.57,-0,1,-0,0.79,4689,19,42,27,68,836,0.0,593,459,60,128.0,0,1,247,324,57,0,0,0,250,250,0,-5.59,,,,,,,,,,,,
51183,1564322756436,2,2.27,1.37,0.64,2.33,1.94,0.83,0.05,0.59,-0,0,0,0.83,4754,19,42,27,68,838,0.0,592,460,60,130.0,0,1,253,326,57,0,0,0,250,250,0,-5.59,,,,,,,,,,,,
51203,1564322756456,4,2.26,1.37,0.63,2.33,1.94,0.84,0.09,0.57,0,1,-0,0.84,4760,19,42,27,68,841,0.0,590,458,60,130.0,0,1,253,326,57,0,0,0,250,250,0,-5.59,,,,,,,,,,,,
51223,1564322756476,3,2.27,1.37,0.64,2.33,1.94,0.8,0.09,0.6,0,1,-1,0.81,4777,19,42,27,68,844,0.0,591,461,60,130.0,0,1,255,326,58,0,0,0,250,250,0,-5.59,,,,,,,,,,,,
51243,1564322756498,0,2.27,1.37,0.64,2.32,1.94,0.8,0.1,0.57,0,1,-1,0.8,4806,19,42,27,68,847,0.0,595,468,60,130.0,0,1,257,327,58,0,0,0,250,250,0,-5.59,44.68095,10.01946,0.0,181.5,0,0.0,-1,0.0,0.0,0,0.0,0.854
51263,1564322756518,0,2.27,1.37,0.63,2.33,1.95,0.82,0.09,0.57,0,-0,-1,0.82,4773,19,42,27,69,850,0.0,595,465,60,129.0,0,1,254,330,58,0,0,0,250,250,0,-5.59,,,,,,,,,,,,
51283,1564322756538,-0,2.27,1.37,0.63,2.33,1.94,0.87,0.05,0.57,0,-2,0,0.87,4773,19,42,27,69,852,0.0,596,465,60,129.0,0,1,254,330,58,0,0,0,250,250,0,-5.59,,,,,,,,,,,,
51303,1564322756558,2,2.27,1.38,0.63,2.33,1.94,0.87,0.04,0.53,0,-3,0,0.87,4744,19,42,27,68,852,0.0,596,458,60,131.0,0,1,252,325,58,0,0,0,250,250,0,-5.59,,,,,,,,,,,,
51323,1564322756578,3,2.27,1.37,0.63,2.32,1.94,0.84,0.03,0.55,0,-3,-1,0.84,4737,19,42,27,68,852,0.0,595,457,60,130.0,0,1,251,325,59,0,0,0,250,250,0,-5.59,,,,,,,,,,,,
51343,1564322756598,3,2.27,1.37,0.63,2.33,1.94,0.82,0.04,0.58,0,-2,-1,0.82,4719,19,42,27,69,852,0.0,595,466,60,130.0,0,1,250,325,59,0,0,0,250,250,0,-5.59,44.68095,10.01946,0.0,181.5,0,0.0,-1,0.0,0.0,0,0.0,0.8557
51363,1564322756618,0,2.27,1.37,0.63,2.32,1.95,0.8,0.05,0.62,0,-1,-1,0.8,4692,19,42,27,69,852,0.0,592,467,60,131.0,0,1,248,324,59,0,0,0,250,250,0,-5.59,,,,,,,,,,,,
51383,1564322756638,-2,2.27,1.37,0.64,2.32,1.94,0.81,0.04,0.65,-0,-3,-2,0.81,4675,19,42,27,68,852,0.0,595,463,60,131.0,0,1,246,324,59,0,0,0,250,250,0,-5.59,,,,,,,,,,,,
51403,1564322756658,1,2.27,1.37,0.64,2.32,1.94,0.83,0.03,0.66,-0,-4,-1,0.83,4721,19,42,27,68,852,0.0,593,462,60,128.0,0,1,250,325,59,0,0,0,250,250,0,-5.59,,,,,,,,,,,,
51423,1564322756678,1,2.27,1.37,0.63,2.33,1.94,0.84,-0.0,0.63,-0,-4,0,0.84,4705,19,42,27,68,850,0.0,592,466,60,128.0,0,1,249,325,57,0,0,0,250,250,0,-5.59,,,,,,,,,,,,
51443,1564322756697,3,2.26,1.37,0.63,2.32,1.94,0.84,-0.01,0.62,-0,-3,1,0.84,4694,19,42,27,68,849,0.0,593,461,60,131.0,0,1,248,328,57,0,0,0,250,250,0,-5.59,44.68095,10.01946,0.0,181.5,0,0.0,-1,0.0,0.0,0,0.0,0.8574
51463,1564322756717,5,2.27,1.37,0.63,2.33,1.95,0.82,0.01,0.62,-0,-2,1,0.82,4695,19,42,27,68,848,0.0,591,460,60,131.0,0,1,248,324,57,0,0,0,250,250,0,-5.59,,,,,,,,,,,,
51483,1564322756737,3,2.27,1.37,0.64,2.33,1.94,0.78,0.04,0.65,0,-0,-1,0.78,4683,19,42,27,68,846,0.0,591,462,60,131.0,0,1,247,324,57,0,0,0,250,250,0,-5.59,,,,,,,,,,,,
51503,1564322756757,-1,2.27,1.38,0.63,2.34,1.94,0.74,0.04,0.64,0,1,-1,0.74,4688,19,42,27,68,846,0.0,595,466,60,131.0,0,1,247,324,57,0,0,0,250,250,0,-5.59,,,,,,,,,,,,
51523,1564322756777,1,2.26,1.37,0.63,2.33,1.94,0.75,0.07,0.58,0,1,-2,0.75,4721,19,42,27,69,845,0.0,594,471,60,130.0,0,1,250,329,57,0,0,0,250,250,0,-5.59,,,,,,,,,,,,
51543,1564322756797,-0,2.27,1.38,0.63,2.34,1.94,0.78,0.05,0.58,-0,1,-1,0.78,4744,19,42,27,69,846,0.0,595,464,60,128.0,0,1,249,329,57,0,0,0,250,250,0,-5.59,44.68095,10.01946,0.0,181.5,0,0.0,-1,0.0,0.0,0,0.0,0.859
51563,1564322756817,-0,2.26,1.38,0.63,2.33,1.94,0.82,0.02,0.59,-0,-1,0,0.82,4764,19,42,27,68,848,0.0,595,460,60,128.0,0,1,254,326,57,0,0,0,250,250,0,-5.59,,,,,,,,,,,,
51583,1564322756837,4,2.26,1.38,0.63,2.33,1.94,0.83,0.01,0.54,0,-1,0,0.83,4750,19,42,27,68,849,0.0,593,457,60,129.0,0,1,253,326,57,0,0,0,250,250,0,-5.59,,,,,,,,,,,,
51603,1564322756857,5,2.27,1.37,0.63,2.33,1.94,0.81,0.0,0.54,0,-1,-0,0.81,4749,19,42,27,68,850,0.0,591,455,60,130.0,0,1,252,325,57,0,0,0,250,250,0,-5.59,,,,,,,,,,,,
51623,1564322756877,0,2.26,1.38,0.63,2.32,1.95,0.8,0.02,0.58,0,-0,-1,0.8,4757,19,42,27,68,850,0.0,590,467,60,131.0,0,1,253,326,58,0,0,0,250,250,0,-5.59,,,,,,,,,,,,
51643,1564322756897,0,2.27,1.37,0.63,2.33,1.95,0.79,0.02,0.59,-0,-1,-1,0.8,4743,19,42,27,68,850,0.0,590,468,60,130.0,0,1,252,325,58,0,0,0,250,250,0,-5.59,44.68095,10.01946,0.0,181.5,0,0.0,-1,0.0,0.0,0,0.0,0.8607
51663,1564322756917,0,2.26,1.37,0.63,2.33,1.94,0.82,0.02,0.62,-0,-3,-1,0.82,4699,19,42,27,68,848,0.0,595,462,60,129.0,0,1,250,324,58,0,0,0,250,250,0,-5.59,,,,,,,,,,,,
51683,1564322756937,0,2.27,1.37,0.63,2.33,1.95,0.85,0.01,0.65,-0,-4,0,0.85,4708,19,42,27,68,847,0.0,594,465,60,129.0,0,1,249,325,58,0,0,0,250,250,0,-5.59,,,,,,,,,,,,
51703,1564322756957,0,2.27,1.37,0.63,2.33,1.94,0.83,-0.02,0.61,-0,-4,1,0.83,4664,19,42,27,68,846,0.0,594,465,60,129.0,0,1,245,324,58,0,0,0,250,250,0,-5.59,,,,,,,,,,,,
51723,1564322756977,4,2.26,1.37,0.64,2.33,1.94,0.83,-0.02,0.61,-0,-4,1,0.83,4707,19,42,27,68,845,0.0,595,458,60,130.0,0,1,249,325,56,0,0,0,250,250,0,-5.59,,,,,,,,,,,,
51743,1564322756997,4,2.27,1.37,0.63,2.33,1.95,0.8,0.01,0.6,0,-2,1,0.8,4703,19,42,27,68,845,0.0,594,460,60,130.0,0,1,249,325,56,0,0,0,250,250,0,-5.59,44.68095,10.01946,0.0,181.5,0,0.0,-1,0.0,0.0,0,0.0,0.8624
51763,1564322757009,3,2.27,1.37,0.64,2.33,1.94,0.77,0.02,0.65,0,0,-1,0.77,4719,19,42,27,68,844,0.0,596,460,60,131.0,0,1,250,325,56,0,0,0,250,250,0,-5.59,,,,,,,,,,,,
51783,1564322757029,-1,2.27,1.37,0.64,2.33,1.95,0.74,0.03,0.63,0,1,-1,0.74,4724,19,42,27,68,844,0.0,593,470,60,131.0,0,1,250,325,56,0,0,0,250,250,0,-5.59,,,,,,,,,,,,
51803,1564322757049,-2,2.26,1.38,0.64,2.32,1.95,0.78,0.05,0.6,-0,0,-1,0.78,4722,19,42,27,68,844,0.0,593,468,60,131.0,0,1,250,325,56,0,0,0,250,250,0,-5.59,,,,,,,,,,,,
51823,1564322757069,1,2.26,1.37,0.63,2.33,1.95,0.81,0.02,0.59,-0,-1,0,0.81,4731,19,42,27,69,845,0.0,594,467,60,129.0,0,1,251,329,58,0,0,0,250,250,0,-5.59,,,,,,,,,,,,
51843,1564322757097,1,2.26,1.38,0.64,2.34,1.94,0.84,-0.0,0.57,-0,-2,1,0.84,4720,19,42,27,68,846,0.0,591,456,60,129.0,0,1,250,325,58,0,0,0,250,250,0,-5.59,44.68095,10.01946,0.0,181.5,0,0.0,-1,0.0,0.0,0,0.0,0.864
51863,1564322757117,4,2.25,1.37,0.63,2.33,1.94,0.83,-0.0,0.54,0,-2,1,0.83,4699,19,42,27,68,848,0.0,591,457,60,130.0,0,1,248,324,58,0,0,0,250,250,0,-5.59,,,,,,,,,,,,
51883,1564322757137,4,2.27,1.38,0.63,2.33,1.95,0.8,-0.0,0.57,0,-1,0,0.8,4758,19,42,27,68,849,0.0,593,461,60,131.0,0,1,253,326,58,0,0,0,250,250,0,-5.59,,,,,,,,,,,,
51903,1564322757157,0,2.27,1.37,0.64,2.33,1.95,0.78,0.03,0.61,0,-1,-1,0.78,4693,19,42,27,68,849,0.0,590,461,60,131.0,0,1,248,324,58,0,0,0,250,250,0,-5.59,,,,,,,,,,,,
51923,1564322757177,0,2.27,1.37,0.64,2.34,1.95,0.76,0.05,0.61,0,-1,-1,0.76,4699,19,42,27,68,849,0.0,593,460,60,130.0,0,1,248,324,58,0,0,0,250,250,0,-5.59,,,,,,,,,,,,
51943,1564322757197,1,2.27,1.38,0.63,2.33,1.95,0.77,0.04,0.63,-0,-2,-1,0.77,4695,19,42,27,68,848,0.0,595,467,60,129.0,0,1,248,328,58,0,0,0,250,250,0,-5.59,44.68095,10.01946,0.0,181.5,0,0.0,-1,0.0,0.0,0,0.0,0.8657
51963,1564322757217,-0,2.26,1.37,0.64,2.33,1.94,0.8,0.04,0.64,-0,-2,0,0.8,4683,19,42,27,68,847,0.0,593,462,60,128.0,0,1,247,328,58,0,0,0,250,250,0,-5.59,,,,,,,,,,,,
51983,1564322757237,-1,2.27,1.37,0.64,2.32,1.95,0.81,0.01,0.62,-0,-2,1,0.81,4634,19,42,27,69,845,0.0,594,466,60,128.0,0,1,243,327,58,0,0,0,250,250,0,-5.59,,,,,,,,,,,,
52003,1564322757257,0,2.26,1.38,0.64,2.33,1.95,0.83,0.0,0.61,-0,-2,1,0.83,4642,19,42,27,68,842,0.0,588,456,60,130.0,0,1,243,323,58,0,0,0,250,250,0,-5.59,,,,,,,,,,,,
52023,1564322757277,2,2.26,1.38,0.64,2.32,1.95,0.84,0.01,0.57,0,-1,1,0.84,4649,19,42,27,68,839,0.0,592,457,60,130.0,0,1,244,323,57,0,0,0,250,250,0,-5.59,,,,,,,,,,,,
52043,1564322757297,3,2.27,1.38,0.63,2.34,1.95,0.85,0.04,0.54,0,-1,0,0.85,4659,19,42,27,68,837,0.0,590,458,60,130.0,0,1,245,324,57,0,0,0,250,250,0,-5.59,44.68095,10.01946,0.0,181.5,0,0.0,-1,0.0,0.0,0,0.0,0.8674
52063,1564322757317,4,2.27,1.38,0.64,2.33,1.95,0.81,0.03,0.58,0,0,-1,0.81,4651,19,42,27,68,835,0.0,586,460,60,131.0,0,1,244,324,57,0,0,0,250,250,0,-5.59,,,,,,,,,,,,
52083,1564322757337,2,2.27,1.38,0.64,2.33,1.95,0.79,0.04,0.6,0,0,-2,0.79,4656,19,42,27,68,834,0.0,589,464,60,131.0,0,1,245,324,57,0,0,0,250,250,0,-5.59,,,,,,,,,,,,
52103,1564322757357,-2,2.28,1.37,0.64,2.34,1.94,0.74,0.04,0.61,0,0,-2,0.74,4638,19,42,27,68,833,0.0,590,468,60,130.0,0,1,243,323,57,0,0,0,250,250,0,-5.59,,,,,,,,,,,,
52123,1564322757377,-2,2.27,1.38,0.64,2.33,1.96,0.74,0.04,0.63,-0,-0,-2,0.74,4621,19,42,27,68,834,0.0,590,467,60,132.0,0,1,242,323,56,0,0,0,250,250,0,-5.59,,,,,,,,,,,,
52143,1564322757397,1,2.25,1.37,0.63,2.33,1.95,0.75,0.02,0.63,-0,-1,-2,0.75,4623,19,42,27,68,836,0.0,592,464,60,130.0,0,1,242,323,56,0,0,0,250,250,0,-5.59,44.68095,10.01946,0.0,181.5,0,0.0,-1,0.0,0.0,0,0.0,0.869
52163,1564322757417,-2,2.27,1.37,0.63,2.32,1.94,0.8,0.02,0.61,-0,-2,-1,0.8,4683,19,42,27,68,841,0.0,594,466,60,129.0,0,1,247,324,56,0,0,0,250,250,0,-5.59,,,,,,,,,,,,
52183,1564322757437,-1,2.27,1.37,0.64,2.33,1.95,0.82,-0.02,0.61,-0,-2,0,0.82,4674,19,42,27,68,846,0.0,596,461,60,129.0,0,1,246,328,56,0,0,0,250,250,0,-5.59,,,,,,,,,,,,
52203,1564322757457,3,2.26,1.38,0.64,2.34,1.95,0.84,-0.02,0.58,-0,-2,1,0.84,4700,19,42,27,68,850,0.0,593,457,60,130.0,0,1,248,325,56,0,0,0,250,250,0,-5.59,,,,,,,,,,,,
52223,1564322757477,4,2.26,1.38,0.64,2.32,1.96,0.82,-0.01,0.55,0,-2,0,0.82,4696,19,42,27,68,854,0.0,593,460,60,130.0,0,1,248,324,58,0,0,0,250,250,0,-5.59,,,,,,,,,,,,
52243,1564322757497,6,2.26,1.38,0.64,2.32,1.95,0.8,-0.01,0.58,0,-1,-1,0.8,4701,19,42,27,68,857,0.0,592,458,60,131.0,0,1,248,325,58,0,0,0,250,250,0,-5.59,44.68095,10.01946,0.0,181.5,0,0.0,-1,0.0,0.0,0,0.0,0.8707
52263,1564322757517,1,2.26,1.38,0.64,2.34,1.94,0.78,0.0,0.61,-0,-1,-1,0.78,4667,19,42,27,68,860,0.0,592,461,60,130.0,0,1,246,324,58,0,0,0,250,250,0,-5.59,,,,,,,,,,,,
52283,1564322757537,-2,2.27,1.38,0.64,2.33,1.95,0.76,0.0,0.64,-0,-1,-1,0.76,4695,19,42,27,69,860,0.0,595,465,60,131.0,0,1,248,324,58,0,0,0,250,250,0,-5.59,,,,,,,,,,,,
52303,1564322757557,1,2.26,1.37,0.64,2.33,1.96,0.78,0.01,0.67,-0,-3,-1,0.78,4686,19,42,27,68,859,0.0,593,466,60,131.0,0,1,247,325,58,0,0,0,250,250,0,-5.59,,,,,,,,,,,,
52323,1564322757577,-1,2.27,1.38,0.64,2.33,1.95,0.81,0.02,0.68,-0,-4,-0,0.81,4728,19,42,27,68,855,0.0,592,466,60,128.0,0,1,251,325,58,0,0,0,250,250,0,-5.59,,,,,,,,,,,,
52343,1564322757597,2,2.27,1.37,0.64,2.33,1.96,0.82,-0.02,0.66,-0,-5,0,0.82,4711,19,42,27,68,851,0.0,591,455,60,129.0,0,1,249,325,58,0,0,0,250,250,0,-5.59,44.68095,10.01946,0.0,181.5,0,0.0,-1,0.0,0.0,0,0.0,0.8724
52363,1564322757617,2,2.27,1.38,0.64,2.34,1.95,0.8,-0.03,0.64,-0,-3,1,0.8,4698,19,42,27,68,848,0.0,587,461,60,131.0,0,1,248,324,58,0,0,0,250,250,0,-5.59,,,,,,,,,,,,
52383,1564322757637,4,2.27,1.38,0.64,2.34,1.95,0.79,-0.01,0.61,-0,-1,0,0.79,4695,19,42,27,68,844,0.0,591,461,60,130.0,0,1,248,324,58,0,0,0,250,250,0,-5.59,,,,,,,,,,,,
52403,1564322757657,4,2.28,1.37,0.64,2.33,1.96,0.76,0.01,0.62,-0,1,-1,0.76,4687,19,42,27,68,844,0.0,588,460,60,131.0,0,1,247,324,58,0,0,0,250,250,0,-5.59,,,,,,,,,,,,
52423,1564322757677,-1,2.27,1.38,0.64,2.33,1.95,0.74,0.02,0.62,-0,1,-1,0.74,4691,19,42,27,69,844,0.0,592,468,60,130.0,0,1,248,324,57,0,0,0,250,250,0,-5.59,,,,,,,,,,,,
52443,1564322757696,1,2.27,1.37,0.64,2.33,1.96,0.76,0.04,0.57,-0,0,-1,0.77,4694,19,42,27,68,847,0.0,596,467,60,130.0,0,1,247,324,57,0,0,0,250,250,0,-5.59,44.68095,10.01946,0.0,181.5,0,0.0,-1,0.0,0.0,0,0.0,0.874
52463,1564322757716,1,2.27,1.38,0.64,2.34,1.95,0.78,0.03,0.58,-0,-1,0,0.78,4713,19,42,27,69,850,0.0,594,467,60,130.0,0,1,248,329,57,0,0,0,250,250,0,-5.59,,,,,,,,,,,,
52483,1564322757736,1,2.27,1.38,0.64,2.34,1.95,0.83,-0.0,0.62,-0,-3,1,0.83,4686,19,42,27,68,853,0.0,595,459,60,128.0,0,1,247,324,57,0,0,0,250,250,0,-5.59,,,,,,,,,,,,
52503,1564322757756,1,2.27,1.37,0.64,2.33,1.95,0.86,-0.01,0.61,-0,-5,1,0.86,4681,19,42,27,68,855,0.0,595,462,60,128.0,0,1,247,324,57,0,0,0,250,250,0,-5.59,,,,,,,,,,,,
52523,1564322757776,2,2.27,1.37,0.64,2.34,1.95,0.84,-0.01,0.6,0,-4,1,0.84,4692,19,42,27,68,855,0.0,592,461,60,131.0,0,1,248,324,57,0,0,0,250,250,0,-5.59,,,,,,,,,,,,
52543,1564322757796,6,2.27,1.38,0.64,2.34,1.95,0.83,0.0,0.64,0,-3,1,0.83,4724,19,42,27,68,854,0.0,592,461,60,131.0,0,1,250,325,57,0,0,0,250,250,0,-5.59,44.68095,10.01946,0.0,181.5,0,0.0,-1,0.0,0.0,0,0.0,0.8757
52563,1564322757816,1,2.26,1.38,0.64,2.34,1.96,0.77,0.02,0.66,0,-1,0,0.77,4721,19,42,27,68,852,0.0,591,466,60,131.0,0,1,250,325,57,0,0,0,250,250,0,-5.59,,,,,,,,,,,,
52583,1564322757836,2,2.26,1.38,0.64,2.34,1.95,0.74,0.02,0.69,-0,-1,-1,0.74,4714,19,42,27,68,850,0.0,592,466,60,130.0,0,1,249,325,57,0,0,0,250,250,0,-5.59,,,,,,,,,,,,
52603,1564322757856,-2,2.27,1.38,0.64,2.32,1.95,0.74,0.03,0.68,-0,-2,-1,0.74,4722,19,42,27,68,848,0.0,596,468,60,129.0,0,1,250,329,57,0,0,0,250,250,0,-5.59,,,,,,,,,,,,
52623,1564322757876,0,2.27,1.38,0.64,2.33,1.96,0.79,0.01,0.66,-0,-2,0,0.79,4751,19,42,27,69,847,0.0,596,468,60,129.0,0,1,253,330,58,0,0,0,250,250,0,-5.59,,,,,,,,,,,,
52643,1564322757896,1,2.27,1.38,0.64,2.34,1.95,0.8,-0.03,0.61,-0,-1,1,0.8,4708,19,42,27,68,849,0.0,596,460,60,128.0,0,1,249,325,58,0,0,0,250,250,0,-5.59,44.68095,10.01946,0.0,181.5,0,0.0,-1,0.0,0.0,0,0.0,0.8774
52663,1564322757916,3,2.26,1.38,0.65,2.33,1.95,0.81,-0.02,0.6,-0,-0,1,0.81,4725,19,42,27,68,850,0.0,595,461,60,130.0,0,1,250,325,58,0,0,0,250,250,0,-5.59,,,,,,,,,,,,
52683,1564322757936,6,2.26,1.37,0.63,2.33,1.96,0.8,0.02,0.59,0,1,-1,0.8,4718,19,42,27,68,852,0.0,592,458,60,130.0,0,1,250,325,58,0,0,0,250,250,0,-5.59,,,,,,,,,,,,
52703,1564322757956,1,2.26,1.38,0.64,2.34,1.95,0.78,0.03,0.62,0,2,-1,0.78,4730,19,42,27,69,854,0.0,596,468,60,131.0,0,1,251,325,58,0,0,0,250,250,0,-5.59,,,,,,,,,,,,
52723,1564322757976,-0,2.27,1.38,0.63,2.33,1.95,0.77,0.05,0.57,0,1,-1,0.78,4721,19,42,27,69,856,0.0,595,468,60,131.0,0,1,250,325,58,0,0,0,250,250,0,-5.59,,,,,,,,,,,,
52743,1564322757996,-1,2.26,1.38,0.64,2.32,1.96,0.79,0.05,0.61,-0,-1,0,0.79,4665,19,42,27,69,857,0.0,592,465,60,129.0,0,1,244,328,58,0,0,0,250,250,0,-5.59,44.68095,10.01946,0.0,181.5,0,0.0,-1,0.0,0.0,0,0.0,0.879
52763,1564322758008,-2,2.27,1.38,0.64,2.33,1.95,0.82,0.01,0.66,-0,-3,1,0.82,4700,19,42,27,68,857,0.0,591,461,60,128.0,0,1,248,329,58,0,0,0,250,250,0,-5.59,,,,,,,,,,,,
52783,1564322758028,1,2.26,1.38,0.64,2.33,1.95,0.85,0.01,0.68,-0,-5,1,0.85,4699,19,42,27,68,857,0.0,592,462,60,129.0,0,1,248,324,58,0,0,0,250,250,0,-5.59,,,,,,,,,,,,
52803,1564322758048,-0,2.26,1.37,0.62,2.32,1.95,0.85,-0.01,0.63,-0,-5,2,0.85,4689,19,42,27,68,855,0.0,591,456,60,130.0,0,1,247,324,58,0,0,0,250,250,0,-5.59,,,,,,,,,,,,
52823,1564322758068,3,2.27,1.38,0.64,2.34,1.95,0.83,0.01,0.64,0,-3,1,0.83,4679,19,42,27,68,853,0.0,589,459,60,130.0,0,1,247,324,57,0,0,0,250,250,0,-5.59,,,,,,,,,,,,
52843,1564322758096,3,2.27,1.38,0.64,2.33,1.95,0.8,0.04,0.66,0,-1,1,0.8,4667,19,42,27,68,851,0.0,587,463,60,131.0,0,1,246,324,57,0,0,0,250,250,0,-5.59,44.68095,10.01946,0.0,181.5,0,0.0,-1,0.0,0.0,0,0.0,0.8807
52863,1564322758116,1,2.27,1.38,0.64,2.34,1.95,0.76,0.04,0.67,0,0,-1,0.77,4694,19,42,27,68,850,0.0,590,460,60,131.0,0,1,248,324,57,0,0,0,250,250,0,-5.59,,,,,,,,,,,,
52883,1564322758136,-0,2.26,1.38,0.64,2.33,1.95,0.73,0.06,0.66,0,0,-1,0.73,4694,19,42,27,69,848,0.0,591,466,60,131.0,0,1,248,324,57,0,0,0,250,250,0,-5.59,,,,,,,,,,,,
52903,1564322758156,-2,2.27,1.38,0.64,2.34,1.95,0.76,0.08,0.63,0,0,-1,0.77,4746,19,42,27,69,845,0.0,595,468,60,130.0,0,1,252,329,57,0,0,0,250,250,0,-5.59,,,,,,,,,,,,
52923,1564322758176,-2,2.28,1.38,0.63,2.33,1.96,0.79,0.04,0.63,-0,-0,1,0.79,4711,19,42,27,68,844,0.0,595,458,60,128.0,0,1,249,325,58,0,0,0,250,250,0,-5.59,,,,,,,,,,,,
52943,1564322758196,3,2.27,1.38,0.64,2.33,1.95,0.83,0.02,0.61,0,-0,1,0.83,4744,19,42,27,68,843,0.0,594,458,60,128.0,0,1,252,325,58,0,0,0,250,250,0,-5.59,44.68095,10.01946,0.0,181.5,0,0.0,-1,0.0,0.0,0,0.0,0.8824
52963,1564322758216,4,2.26,1.38,0.64,2.33,1.96,0.83,0.02,0.57,0,0,-0,0.83,4696,19,42,27,68,843,0.0,593,462,60,130.0,0,1,248,324,58,0,0,0,250,250,0,-5.59,,,,,,,,,,,,
52983,1564322758236,6,2.27,1.38,0.64,2.33,1.95,0.82,0.01,0.59,0,1,-1,0.82,4731,19,42,27,68,843,0.0,592,457,60,130.0,0,1,251,325,58,0,0,0,250,250,0,-5.59,,,,,,,,,,,,
53003,1564322758256,-1,2.27,1.38,0.64,2.33,1.96,0.79,0.02,0.61,0,1,-2,0.79,4724,19,42,27,68,844,0.0,592,461,60,131.0,0,1,250,325,58,0,0,0,250,250,0,-5.59,,,,,,,,,,,,
53023,1564322758276,0,2.26,1.38,0.64,2.34,1.95,0.78,0.04,0.59,0,-0,-1,0.78,4685,19,42,27,69,844,0.0,593,468,60,130.0,0,1,247,328,57,0,0,0,250,250,0,-5.59,,,,,,,,,,,,
53043,1564322758296,1,2.27,1.37,0.63,2.33,1.96,0.8,0.04,0.63,-0,-2,-1,0.8,4651,19,42,27,69,845,0.0,593,467,60,129.0,0,1,244,328,57,0,0,0,250,250,0,-5.59,44.68095,10.01946,0.0,181.5,0,0.0,-1,0.0,0.0,0,0.0,0.884
53063,1564322758316,-1,2.27,1.38,0.64,2.33,1.96,0.81,0.02,0.67,-0,-4,0,0.81,4647,19,42,27,68,846,0.0,593,462,60,128.0,0,1,244,327,57,0,0,0,250,250,0,-5.59,,,,,,,,,,,,
53083,1564322758336,-0,2.27,1.38,0.64,2.33,1.95,0.83,-0.01,0.68,-0,-5,1,0.83,4673,19,42,27,68,847,0.0,594,458,60,129.0,0,1,246,324,57,0,0,0,250,250,0,-5.59,,,,,,,,,,,,
53103,1564322758356,2,2.26,1.38,0.64,2.34,1.95,0.83,-0.03,0.66,-0,-5,2,0.83,4664,19,42,27,68,847,0.0,592,460,60,130.0,0,1,245,328,57,0,0,0,250,250,0,-5.59,,,,,,,,,,,,
53123,1564322758376,4,2.26,1.38,0.64,2.34,1.95,0.84,-0.03,0.63,0,-4,2,0.84,4656,19,42,27,68,848,0.0,592,457,60,130.0,0,1,245,324,57,0,0,0,250,250,0,-5.59,,,,,,,,,,,,
53143,1564322758396,5,2.27,1.38,0.64,2.34,1.96,0.85,0.01,0.6,0,-1,1,0.85,4669,19,42,27,68,847,0.0,593,461,60,130.0,0,1,246,324,57,0,0,0,250,250,0,-5.59,44.68095,10.01946,0.0,181.5,0,0.0,-1,0.0,0.0,0,0.0,0.8857
53163,1564322758416,2,2.27,1.38,0.64,2.34,1.95,0.82,0.01,0.59,0,0,-0,0.82,4700,19,42,27,68,846,0.0,593,460,60,131.0,0,1,248,325,57,0,0,0,250,250,0,-5.59,,,,,,,,,,,,
53183,1564322758436,1,2.26,1.38,0.64,2.33,1.95,0.8,0.02,0.59,0,1,-1,0.8,4716,19,42,27,68,845,0.0,595,469,60,130.0,0,1,250,325,57,0,0,0,250,250,0,-5.59,,,,,,,,,,,,
53203,1564322758456,-0,2.26,1.38,0.64,2.34,1.95,0.8,0.02,0.57,-0,0,-1,0.8,4749,19,42,27,68,844,0.0,593,467,60,130.0,0,1,252,325,57,0,0,0,250,250,0,-5.59,,,,,,,,,,,,
53223,1564322758476,0,2.27,1.37,0.64,2.33,1.96,0.83,-0.0,0.6,-0,-1,0,0.83,4736,19,42,27,68,844,0.0,597,465,60,129.0,0,1,251,325,58,0,0,0,250,250,0,-5.59,,,,,,,,,,,,
53243,1564322758496,2,2.26,1.38,0.64,2.33,1.96,0.87,-0.02,0.61,-0,-2,1,0.87,4698,19,42,27,68,844,0.0,590,458,60,130.0,0,1,248,324,58,0,0,0,250,250,0,-5.59,44.68095,10.01946,0.0,181.5,0,0.0,-1,0.0,0.0,0,0.0,0.8874
53263,1564322758516,2,2.27,1.38,0.64,2.33,1.96,0.87,-0.01,0.59,0,-2,1,0.87,4715,19,42,27,68,845,0.0,589,456,60,131.0,0,1,250,325,58,0,0,0,250,250,0,-5.59,,,,,,,,,,,,
53283,1564322758536,3,2.26,1.38,0.64,2.34,1.96,0.87,0.01,0.61,0,-2,-0,0.87,4681,19,42,27,68,845,0.0,589,462,60,131.0,0,1,247,324,58,0,0,0,250,250,0,-5.59,,,,,,,,,,,,
53303,1564322758556,5,2.27,1.38,0.64,2.34,1.96,0.84,0.03,0.62,0,-1,-1,0.84,4675,19,42,27,69,846,0.0,589,465,60,131.0,0,1,246,324,58,0,0,0,250,250,0,-5.59,,,,,,,,,,,,
53323,1564322758576,1,2.27,1.37,0.63,2.33,1.95,0.8,0.02,0.65,-0,-1,-2,0.81,4658,19,43,27,68,847,0.0,589,460,60,131.0,0,1,245,324,57,0,0,0,250,250,0,-5.59,,,,,,,,,,,,
53343,1564322758596,0,2.26,1.38,0.64,2.34,1.95,0.75,0.04,0.66,-0,-1,-1,0.75,4675,19,43,27,68,847,0.0,594,469,60,130.0,0,1,246,324,57,0,0,0,250,250,0,-5.59,44.68095,10.01946,0.0,181.5,0,0.0,-1,0.0,0.0,0,0.0,0.889
53363,1564322758616,-1,2.27,1.38,0.64,2.34,1.95,0.75,0.05,0.63,-0,-2,-1,0.75,4679,19,43,27,68,847,0.0,593,468,60,129.0,0,1,247,322,57,0,0,0,250,250,0,-5.59,,,,,,,,,,,,
53383,1564322758636,-2,2.27,1.38,0.64,2.34,1.95,0.76,0.04,0.62,-0,-2,-0,0.76,4689,19,43,27,69,847,0.0,595,466,60,129.0,0,1,247,326,57,0,0,0,250,250,0,-5.59,,,,,,,,,,,,
53403,1564322758656,-2,2.28,1.38,0.64,2.33,1.96,0.79,0.01,0.63,-0,-2,1,0.79,4652,19,43,27,68,847,0.0,594,458,60,129.0,0,1,244,322,57,0,0,0,250,250,0,-5.59,,,,,,,,,,,,
53423,1564322758676,-0,2.28,1.38,0.63,2.34,1.95,0.83,0.02,0.61,-0,-2,1,0.83,4654,19,43,27,68,847,0.0,596,459,60,128.0,0,1,244,322,56,0,0,0,250,250,0,-5.59,,,,,,,,,,,,
53443,1564322758697,4,2.27,1.38,0.64,2.33,1.96,0.85,0.04,0.58,0,-1,0,0.85,4709,19,43,27,68,848,0.0,594,461,60,131.0,0,1,249,323,56,0,0,0,250,250,0,-5.59,44.68095,10.01946,0.0,181.5,0,0.0,-1,0.0,0.0,0,0.0,0.8907
53463,1564322758717,4,2.26,1.38,0.64,2.34,1.95,0.85,0.05,0.58,0,0,-1,0.86,4679,19,43,27,68,847,0.0,591,464,60,131.0,0,1,247,322,56,0,0,0,250,250,0,-5.59,,,,,,,,,,,,
53483,1564322758737,-0,2.27,1.38,0.64,2.33,1.96,0.82,0.06,0.6,0,1,-1,0.82,4740,19,43,27,68,846,0.0,596,462,60,131.0,0,1,252,323,56,0,0,0,250,250,0,-5.59,,,,,,,,,,,,
53503,1564322758757,-2,2.28,1.38,0.64,2.34,1.95,0.8,0.06,0.61,-0,1,-2,0.8,4744,19,43,27,69,845,0.0,594,466,60,130.0,0,1,252,327,56,0,0,0,250,250,0,-5.59,,,,,,,,,,,,
53523,1564322758777,-0,2.26,1.38,0.64,2.33,1.95,0.8,0.03,0.62,-0,-0,-1,0.8,4721,19,43,27,69,844,0.0,594,466,60,129.0,0,1,250,327,57,0,0,0,250,250,0,-5.59,,,,,,,,,,,,
53543,1564322758797,0,2.26,1.38,0.64,2.34,1.95,0.82,0.03,0.6,-0,-1,0,0.82,4720,19,43,27,69,845,0.0,593,465,60,129.0,0,1,250,327,57,0,0,0,250,250,0,-5.59,44.68095,10.01946,0.0,181.5,0,0.0,-1,0.0,0.0,0,0.0,0.8924
53563,1564322758817,1,2.27,1.38,0.64,2.34,1.95,0.85,0.01,0.61,-0,-2,0,0.85,4738,19,43,27,68,846,0.0,591,456,60,130.0,0,1,251,323,57,0,0,0,250,250,0,-5.59,,,,,,,,,,,,
53583,1564322758837,3,2.27,1.39,0.63,2.34,1.95,0.83,0.02,0.63,0,-1,-0,0.83,4749,19,43,27,68,848,0.0,594,459,60,130.0,0,1,252,323,57,0,0,0,250,250,0,-5.59,,,,,,,,,,,,
53603,1564322758857,0,2.26,1.38,0.64,2.34,1.95,0.79,0.01,0.67,0,-1,-1,0.79,4748,19,43,27,68,850,0.0,595,462,60,131.0,0,1,252,323,57,0,0,0,250,250,0,-5.59,,,,,,,,,,,,
53623,1564322758877,1,2.26,1.38,0.65,2.34,1.96,0.75,0.01,0.68,0,-1,-1,0.75,4715,19,43,27,68,851,0.0,593,467,60,130.0,0,1,250,323,57,0,0,0,250,250,0,-5.59,,,,,,,,,,,,
53643,1564322758897,1,2.26,1.38,0.65,2.34,1.96,0.76,0.01,0.67,-0,-2,-1,0.76,4705,19,43,27,68,852,0.0,595,469,60,131.0,0,1,249,323,57,0,0,0,250,250,0,-5.59,44.68095,10.01946,0.0,181.5,0,0.0,-1,0.0,0.0,0,0.0,0.894
53663,1564322758917,-0,2.26,1.38,0.65,2.33,1.96,0.77,-0.02,0.68,-0,-3,1,0.77,4724,19,43,27,68,852,0.0,594,464,60,128.0,0,1,250,323,57,0,0,0,250,250,0,-5.59,,,,,,,,,,,,
53683,1564322758937,0,2.26,1.38,0.65,2.33,1.96,0.78,-0.02,0.64,-0,-3,1,0.78,4709,19,43,27,68,852,0.0,593,460,60,128.0,0,1,249,323,57,0,0,0,250,250,0,-5.59,,,,,,,,,,,,
53703,1564322758957,2,2.26,1.38,0.65,2.34,1.96,0.79,0.01,0.61,0,-2,1,0.79,4689,19,43,27,68,851,0.0,592,464,60,130.0,0,1,247,326,57,0,0,0,250,250,0,-5.59,,,,,,,,,,,,
53723,1564322758977,3,2.27,1.38,0.65,2.34,1.96,0.77,0.01,0.58,0,-0,1,0.77,4660,20,43,27,68,850,0.0,586,457,60,131.0,0,1,245,322,58,0,0,0,250,250,0,-5.59,,,,,,,,,,,,
53743,1564322758997,3,2.27,1.39,0.66,2.33,1.96,0.75,0.03,0.6,0,1,-1,0.75,4667,19,43,27,68,850,0.0,590,467,60,131.0,0,1,246,322,58,0,0,0,250,250,0,-5.59,44.68095,10.01946,0.0,181.5,0,0.0,-1,0.0,0.0,0,0.0,0.8957
53763,1564322759009,-0,2.27,1.38,0.66,2.34,1.95,0.75,0.04,0.59,0,2,-1,0.75,4668,19,43,27,68,849,0.0,588,464,60,131.0,0,1,246,322,58,0,0,0,250,250,0,-5.59,,,,,,,,,,,,
53783,1564322759029,-0,2.28,1.38,0.65,2.34,1.96,0.77,0.04,0.57,-0,1,-2,0.77,4679,19,43,27,69,848,0.0,593,469,60,130.0,0,1,247,326,58,0,0,0,250,250,0,-5.59,,,,,,,,,,,,
53803,1564322759049,-1,2.27,1.38,0.66,2.33,1.96,0.77,0.02,0.61,-0,0,-1,0.77,4667,19,43,27,68,846,0.0,591,464,60,130.0,0,1,246,322,58,0,0,0,250,250,0,-5.59,,,,,,,,,,,,
53823,1564322759069,1,2.26,1.38,0.66,2.33,1.96,0.81,0.01,0.63,-0,-1,-1,0.81,4675,19,43,27,69,845,0.0,590,472,60,130.0,0,1,246,326,57,0,0,0,250,250,0,-5.59,,,,,,,,,,,,
53843,1564322759097,0,2.26,1.39,0.66,2.34,1.96,0.84,-0.01,0.65,-0,-3,0,0.84,4657,19,43,27,68,845,0.0,595,459,60,129.0,0,1,245,322,57,0,0,0,250,250,0,-5.59,44.68095,10.01946,0.0,181.5,0,0.0,-1,0.0,0.0,0,0.0,0.8974
53863,1564322759117,-0,2.27,1.38,0.66,2.33,1.96,0.85,-0.01,0.61,-0,-4,1,0.85,4696,19,43,27,68,844,0.0,596,462,60,128.0,0,1,248,322,57,0,0,0,250,250,0,-5.59,,,,,,,,,,,,
53883,1564322759137,1,2.26,1.39,0.66,2.33,1.97,0.85,0.02,0.58,0,-4,1,0.85,4716,19,43,27,68,843,0.0,593,457,60,131.0,0,1,250,323,57,0,0,0,250,250,0,-5.59,,,,,,,,,,,,
53903,1564322759157,5,2.27,1.39,0.65,2.34,1.96,0.81,0.02,0.62,0,-2,0,0.81,4708,20,43,27,68,842,0.0,595,456,60,130.0,0,1,249,323,57,0,0,0,250,250,0,-5.59,,,,,,,,,,,,
53923,1564322759177,-1,2.28,1.38,0.66,2.34,1.97,0.78,0.03,0.65,0,-2,-1,0.78,4709,19,43,27,68,841,0.0,593,462,60,131.0,0,1,249,323,57,0,0,0,250,250,0,-5.59,,,,,,,,,,,,
53943,1564322759197,1,2.26,1.38,0.66,2.33,1.96,0.77,0.03,0.64,-0,-1,-1,0.77,4693,20,43,27,69,840,0.0,593,467,60,130.0,0,1,248,326,57,0,0,0,250,250,0,-5.59,44.68095,10.01946,0.0,181.5,0,0.0,-1,0.0,0.0,0,0.0,0.899
53963,1564322759217,1,2.26,1.38,0.66,2.33,1.97,0.76,0.02,0.67,-0,-2,-0,0.76,4720,19,43,27,68,841,0.0,593,466,60,130.0,0,1,250,322,57,0,0,0,250,250,0,-5.59,,,,,,,,,,,,
53983,1564322759237,-2,2.28,1.38,0.66,2.34,1.96,0.79,0.01,0.68,-0,-3,0,0.79,4713,19,43,27,68,842,0.0,591,465,60,128.0,0,1,249,323,57,0,0,0,250,250,0,-5.59,,,,,,,,,,,,
54003,1564322759257,0,2.28,1.38,0.67,2.33,1.97,0.79,0.0,0.63,-0,-3,1,0.79,4734,19,43,27,68,845,0.0,593,459,60,129.0,0,1,251,323,57,0,0,0,250,250,0,-5.59,,,,,,,,,,,,
54023,1564322759277,3,2.28,1.38,0.66,2.34,1.95,0.81,0.02,0.61,-0,-2,1,0.81,4706,19,43,27,68,847,0.0,592,458,60,130.0,0,1,249,323,57,0,0,0,250,250,0,-5.59,,,,,,,,,,,,
54043,1564322759297,5,2.27,1.39,0.66,2.33,1.96,0.78,0.04,0.62,0,-0,1,0.79,4731,19,43,27,68,849,0.0,591,457,60,130.0,0,1,251,323,57,0,0,0,250,250,0,-5.59,44.68095,10.01946,0.0,181.5,0,0.0,-1,0.0,0.0,0,0.0,0.9007
54063,1564322759317,1,2.27,1.39,0.66,2.34,1.96,0.75,0.05,0.65,0,1,-1,0.75,4746,19,43,27,68,850,0.0,596,463,60,131.0,0,1,252,323,57,0,0,0,250,250,0,-5.59,,,,,,,,,,,,
54083,1564322759337,0,2.28,1.38,0.66,2.34,1.96,0.74,0.05,0.62,0,1,-1,0.74,4742,19,43,27,69,850,0.0,593,462,60,131.0,0,1,252,327,57,0,0,0,250,250,0,-5.59,,,,,,,,,,,,
54103,1564322759357,1,2.27,1.39,0.67,2.33,1.96,0.77,0.04,0.62,0,-0,-1,0.77,4700,19,43,27,69,848,0.0,595,468,60,129.0,0,1,248,327,57,0,0,0,250,250,0,-5.59,,,,,,,,,,,,
54123,1564322759377,-1,2.28,1.39,0.66,2.34,1.97,0.8,0.01,0.63,-0,-1,1,0.8,4705,19,43,27,69,847,0.0,596,464,60,129.0,0,1,249,327,57,0,0,0,250,250,0,-5.59,,,,,,,,,,,,
54143,1564322759397,2,2.27,1.38,0.67,2.34,1.96,0.81,0.02,0.61,-0,-2,1,0.81,4685,19,43,27,68,846,0.0,592,462,60,128.0,0,1,247,322,57,0,0,0,250,250,0,-5.59,44.68095,10.01946,0.0,181.5,0,0.0,-1,0.0,0.0,0,0.0,0.9024
54163,1564322759417,2,2.27,1.39,0.67,2.33,1.96,0.82,0.03,0.6,0,-2,0,0.82,4683,19,43,27,68,845,0.0,588,455,60,130.0,0,1,247,322,57,0,0,0,250,250,0,-5.59,,,,,,,,,,,,
54183,1564322759437,3,2.28,1.38,0.67,2.34,1.95,0.8,0.03,0.61,0,-1,-0,0.81,4673,19,43,27,68,845,0.0,591,459,60,130.0,0,1,246,322,57,0,0,0,250,250,0,-5.59,,,,,,,,,,,,
54203,1564322759457,4,2.28,1.39,0.66,2.34,1.97,0.78,0.04,0.64,0,-0,-1,0.78,4688,20,43,27,69,843,0.0,588,464,60,132.0,0,1,247,322,57,0,0,0,250,250,0,-5.59,,,,,,,,,,,,
54223,1564322759477,0,2.27,1.38,0.67,2.34,1.96,0.76,0.04,0.65,0,0,-1,0.76,4696,19,43,27,69,840,0.0,588,468,60,132.0,0,1,248,322,57,0,0,0,250,250,0,-5.59,,,,,,,,,,,,
54243,1564322759497,0,2.27,1.38,0.67,2.34,1.97,0.76,0.04,0.66,-0,-1,-1,0.76,4700,19,43,27,68,837,0.0,589,462,60,130.0,0,1,248,323,57,0,0,0,250,250,0,-5.59,44.68095,10.01946,0.0,181.5,0,0.0,-1,0.0,0.0,0,0.0,0.904
54263,1564322759517,-2,2.28,1.38,0.67,2.34,1.97,0.78,0.02,0.66,-0,-2,-0,0.78,4728,19,43,27,69,834,0.0,597,467,60,129.0,0,1,251,327,57,0,0,0,250,250,0,-5.59,,,,,,,,,,,,
54283,1564322759537,1,2.27,1.38,0.67,2.34,1.96,0.79,-0.0,0.62,-0,-1,0,0.79,4691,19,43,27,69,834,0.0,596,462,60,129.0,0,1,248,326,57,0,0,0,250,250,0,-5.59,,,,,,,,,,,,
54303,1564322759557,0,2.27,1.38,0.67,2.35,1.96,0.81,0.0,0.6,0,-1,1,0.81,4695,20,43,27,68,834,0.0,593,458,60,130.0,0,1,248,322,57,0,0,0,250,250,0,-5.59,,,,,,,,,,,,
54323,1564322759577,4,2.27,1.39,0.67,2.33,1.97,0.82,0.03,0.59,0,-0,-0,0.82,4701,20,43,27,68,836,0.0,595,459,60,130.0,0,1,248,323,58,0,0,0,250,250,0,-5.59,,,,,,,,,,,,
54343,1564322759597,3,2.28,1.38,0.67,2.33,1.97,0.79,0.05,0.61,0,1,-1,0.8,4702,19,43,27,68,839,0.0,594,457,60,131.0,0,1,248,323,58,0,0,0,250,250,0,-5.59,44.68095,10.01946,0.0,181.5,0,0.0,-1,0.0,0.0,0,0.0,0.9057
54363,1564322759617,0,2.27,1.39,0.67,2.33,1.96,0.78,0.04,0.65,0,1,-1,0.78,4689,20,43,27,68,842,0.0,593,461,60,131.0,0,1,247,322,58,0,0,0,250,250,0,-5.59,,,,,,,,,,,,
54383,1564322759637,0,2.27,1.39,0.67,2.33,1.96,0.78,0.05,0.63,0,0,-1,0.78,4672,20,43,27,69,845,0.0,594,471,60,132.0,0,1,246,326,58,0,0,0,250,250,0,-5.59,,,,,,,,,,,,
54403,1564322759657,-0,2.28,1.38,0.67,2.34,1.97,0.76,0.05,0.65,-0,-1,-1,0.76,4643,19,43,27,68,846,0.0,591,463,60,130.0,0,1,244,325,58,0,0,0,250,250,0,-5.59,,,,,,,,,,,,
54423,1564322759677,1,2.28,1.38,0.67,2.34,1.96,0.77,0.01,0.68,-0,-2,-0,0.77,4686,19,43,27,68,846,0.0,592,465,60,129.0,0,1,247,322,57,0,0,0,250,250,0,-5.59,,,,,,,,,,,,
54443,1564322759698,-2,2.27,1.38,0.67,2.34,1.96,0.8,0.0,0.68,-0,-3,0,0.8,4669,19,43,27,68,846,0.0,592,461,60,128.0,0,1,246,326,57,0,0,0,250,250,0,-5.59,44.68095,10.01946,0.0,181.5,0,0.0,-1,0.0,0.0,0,0.0,0.9074
54463,1564322759718,1,2.28,1.39,0.67,2.34,1.97,0.79,-0.0,0.62,-0,-2,1,0.79,4642,19,43,27,68,846,0.0,591,458,60,130.0,0,1,243,321,57,0,0,0,250,250,0,-5.59,,,,,,,,,,,,
54483,1564322759738,2,2.28,1.38,0.68,2.34,1.97,0.81,0.02,0.6,0,-1,1,0.81,4673,20,43,27,68,845,0.0,590,456,60,130.0,0,1,246,322,57,0,0,0,250,250,0,-5.59,,,,,,,,,,,,
54503,1564322759758,3,2.28,1.39,0.68,2.34,1.96,0.8,0.05,0.58,0,1,-0,0.8,4694,20,43,27,68,844,0.0,588,460,60,130.0,0,1,248,322,57,0,0,0,250,250,0,-5.59,,,,,,,,,,,,
54523,1564322759778,5,2.27,1.39,0.67,2.33,1.97,0.79,0.06,0.58,0,2,-1,0.79,4699,19,43,27,68,842,0.0,590,457,60,130.0,0,1,248,322,58,0,0,0,250,250,0,-5.59,,,,,,,,,,,,
54543,1564322759796,-3,2.28,1.38,0.67,2.33,1.97,0.78,0.06,0.6,0,1,-2,0.78,4702,19,43,27,69,839,0.0,594,467,60,131.0,0,1,248,323,58,0,0,0,250,250,0,-5.59,44.68095,10.01946,0.0,181.5,0,0.0,-1,0.0,0.0,0,0.0,0.909
54563,1564322759816,0,2.27,1.39,0.68,2.34,1.97,0.79,0.05,0.57,0,0,-1,0.79,4706,19,43,27,69,836,0.0,594,467,60,130.0,0,1,249,327,58,0,0,0,250,250,0,-5.59,,,,,,,,,,,,
54583,1564322759836,0,2.28,1.39,0.67,2.35,1.96,0.79,0.04,0.61,-0,-2,0,0.79,4683,19,43,27,69,834,0.0,595,464,60,129.0,0,1,247,326,58,0,0,0,250,250,0,-5.59,,,,,,,,,,,,
54603,1564322759856,-1,2.27,1.39,0.67,2.34,1.97,0.8,0.0,0.65,-0,-3,0,0.8,4699,19,43,27,68,833,0.0,595,465,60,129.0,0,1,248,322,58,0,0,0,250,250,0,-5.59,,,,,,,,,,,,
54623,1564322759876,-0,2.27,1.39,0.68,2.34,1.97,0.81,-0.01,0.61,-0,-3,1,0.81,4713,19,43,27,68,832,0.0,596,464,60,131.0,0,1,249,327,57,0,0,0,250,250,0,-5.59,,,,,,,,,,,,
54643,1564322759898,3,2.27,1.39,0.68,2.35,1.96,0.81,0.02,0.55,-0,-2,1,0.81,4698,19,43,27,68,832,0.0,590,456,60,131.0,0,1,248,322,57,0,0,0,250,250,0,-5.59,44.68095,10.01946,0.0,181.5,0,0.0,-1,0.0,0.0,0,0.0,0.9107
54663,1564322759918,4,2.27,1.39,0.68,2.34,1.96,0.79,0.03,0.57,0,-0,0,0.79,4700,19,43,27,68,833,0.0,587,462,60,131.0,0,1,248,323,57,0,0,0,250,250,0,-5.59,,,,,,,,,,,,
54683,1564322759938,0,2.27,1.39,0.68,2.34,1.96,0.76,0.05,0.59,0,2,-0,0.76,4689,19,43,27,68,835,0.0,590,458,60,132.0,0,1,247,322,57,0,0,0,250,250,0,-5.59,,,,,,,,,,,,
54703,1564322759958,-2,2.28,1.39,0.68,2.35,1.96,0.76,0.05,0.59,-0,2,-2,0.76,4676,20,43,27,69,837,0.0,591,467,60,131.0,0,1,246,326,57,0,0,0,250,250,0,-5.59,,,,,,,,,,,,
54723,1564322759978,1,2.27,1.39,0.68,2.33,1.97,0.77,0.04,0.59,-0,1,-1,0.77,4699,19,43,27,69,840,0.0,591,468,60,131.0,0,1,248,322,57,0,0,0,250,250,0,-5.59,,,,,,,,,,,,
54743,1564322759998,-2,2.28,1.39,0.68,2.33,1.97,0.79,0.03,0.6,-0,-0,-0,0.8,4682,19,43,27,69,841,0.0,594,465,60,129.0,0,1,247,326,57,0,0,0,250,250,0,-5.59,44.68095,10.01946,0.0,181.5,0,0.0,-1,0.0,0.0,0,0.0,0.9124
54763,1564322760010,-0,2.27,1.38,0.68,2.35,1.97,0.81,0.0,0.63,-0,-2,1,0.81,4644,20,43,27,68,842,0.0,593,457,60,129.0,0,1,244,321,57,0,0,0,250,250,0,-5.59,,,,,,,,,,,,
54783,1564322760030,-0,2.28,1.39,0.68,2.34,1.96,0.83,-0.01,0.61,-0,-3,1,0.83,4682,19,43,27,68,843,0.0,595,462,60,130.0,0,1,247,322,57,0,0,0,250,250,0,-5.59,,,,,,,,,,,,
54803,1564322760050,2,2.27,1.39,0.68,2.35,1.96,0.84,0.0,0.58,-0,-3,1,0.84,4693,19,43,27,68,844,0.0,595,456,60,131.0,0,1,248,322,57,0,0,0,250,250,0,-5.59,,,,,,,,,,,,
54823,1564322760070,4,2.28,1.39,0.69,2.34,1.97,0.83,0.0,0.58,0,-2,0,0.83,4687,20,43,27,68,844,0.0,592,453,60,131.0,0,1,247,322,57,0,0,0,250,250,0,-5.59,,,,,,,,,,,,
54843,1564322760098,3,2.28,1.39,0.68,2.34,1.96,0.79,0.01,0.63,0,-1,-0,0.79,4666,20,43,27,68,843,0.0,595,462,60,131.0,0,1,245,322,57,0,0,0,250,250,0,-5.59,44.68095,10.01946,0.0,181.5,0,0.0,-1,0.0,0.0,0,0.0,0.914
54863,1564322760118,-1,2.28,1.39,0.68,2.34,1.97,0.76,0.03,0.63,-0,0,-0,0.76,4721,20,43,27,68,843,0.0,593,464,60,132.0,0,1,250,323,57,0,0,0,250,250,0,-5.59,,,,,,,,,,,,
54883,1564322760138,-1,2.28,1.39,0.68,2.34,1.97,0.76,0.04,0.62,-0,-1,-1,0.76,4742,19,43,27,69,843,0.0,596,467,60,131.0,0,1,252,323,57,0,0,0,250,250,0,-5.59,,,,,,,,,,,,
54903,1564322760158,1,2.27,1.39,0.68,2.34,1.97,0.79,0.03,0.64,-0,-1,-0,0.79,4750,19,43,27,69,844,0.0,595,468,60,129.0,0,1,253,328,57,0,0,0,250,250,0,-5.59,,,,,,,,,,,,
54923,1564322760178,1,2.28,1.39,0.68,2.35,1.97,0.8,0.02,0.61,-0,-1,0,0.8,4694,19,43,27,68,845,0.0,590,456,60,130.0,0,1,248,326,58,0,0,0,250,250,0,-5.59,,,,,,,,,,,,
54943,1564322760198,2,2.27,1.39,0.68,2.34,1.96,0.83,0.02,0.57,-0,-0,0,0.83,4679,20,43,27,68,846,0.0,591,458,60,130.0,0,1,247,326,58,0,0,0,250,250,0,-5.59,44.68095,10.01946,0.0,181.5,0,0.0,-1,0.0,0.0,0,0.0,0.9157
54963,1564322760218,5,2.27,1.39,0.69,2.35,1.97,0.83,0.05,0.54,0,1,-0,0.83,4692,20,43,27,68,847,0.0,592,462,60,131.0,0,1,248,322,58,0,0,0,250,250,0,-5.59,,,,,,,,,,,,
54983,1564322760238,5,2.27,1.39,0.69,2.34,1.97,0.81,0.07,0.55,0,2,-1,0.82,4714,20,43,27,69,847,0.0,593,462,60,131.0,0,1,249,323,58,0,0,0,250,250,0,-5.59,,,,,,,,,,,,
55003,1564322760258,-1,2.28,1.39,0.68,2.34,1.97,0.8,0.06,0.59,0,2,-2,0.8,4727,20,43,27,68,846,0.0,592,462,60,130.0,0,1,251,323,58,0,0,0,250,250,0,-5.59,,,,,,,,,,,,
55023,1564322760278,0,2.27,1.39,0.68,2.34,1.97,0.81,0.06,0.56,0,0,-1,0.81,4711,19,43,27,69,844,0.0,594,470,60,130.0,0,1,249,327,57,0,0,0,250,250,0,-5.59,,,,,,,,,,,,
55043,1564322760298,-0,2.27,1.38,0.69,2.34,1.97,0.79,0.09,0.61,-0,-1,0,0.8,4683,19,43,27,69,842,0.0,595,463,60,129.0,0,1,247,326,57,0,0,0,250,250,0,-5.59,44.68095,10.01946,0.0,181.5,0,0.0,-1,0.0,0.0,0,0.0,0.9174
55063,1564322760318,-0,2.27,1.39,0.69,2.34,1.97,0.81,0.05,0.7,-0,-3,-0,0.81,4731,19,43,27,68,841,0.0,597,462,60,129.0,0,1,251,323,57,0,0,0,250,250,0,-5.59,,,,,,,,,,,,
55083,1564322760338,3,2.27,1.39,0.69,2.34,1.97,0.83,0.04,0.66,-0,-2,0,0.83,4762,20,43,27,68,840,0.0,592,458,60,130.0,0,1,254,324,57,0,0,0,250,250,0,-5.59,,,,,,,,,,,,
55103,1564322760358,4,2.28,1.38,0.69,2.34,1.97,0.82,0.04,0.65,-0,-1,-0,0.82,4739,20,43,27,68,840,0.0,593,461,60,130.0,0,1,252,323,57,0,0,0,250,250,0,-5.59,,,,,,,,,,,,
55123,1564322760378,4,2.26,1.39,0.69,2.34,1.97,0.79,0.05,0.68,0,0,-1,0.79,4701,20,43,27,69,840,0.0,588,466,60,132.0,0,1,248,323,58,0,0,0,250,250,0,-5.59,,,,,,,,,,,,
55143,1564322760398,0,2.27,1.39,0.69,2.34,1.96,0.75,0.06,0.67,-0,1,-1,0.75,4725,20,43,27,69,841,0.0,591,467,60,131.0,0,1,250,327,58,0,0,0,250,250,0,-5.59,44.68095,10.01946,0.0,181.5,0,0.0,-1,0.0,0.0,0,0.0,0.919
55163,1564322760418,0,2.28,1.38,0.68,2.35,1.97,0.76,0.06,0.65,-0,0,-2,0.76,4680,19,43,27,69,842,0.0,592,468,60,131.0,0,1,247,326,58,0,0,0,250,250,0,-5.59,,,,,,,,,,,,
55183,1564322760438,-0,2.27,1.39,0.69,2.35,1.97,0.78,0.03,0.65,-0,-1,-1,0.78,4674,19,43,27,69,843,0.0,596,471,60,128.0,0,1,246,326,58,0,0,0,250,250,0,-5.59,,,,,,,,,,,,
55203,1564322760458,-2,2.28,1.39,0.69,2.34,1.97,0.82,0.02,0.65,-0,-1,-0,0.82,4701,19,43,27,69,845,0.0,596,462,60,128.0,0,1,248,327,58,0,0,0,250,250,0,-5.59,,,,,,,,,,,,
55223,1564322760478,1,2.27,1.39,0.69,2.34,1.97,0.86,0.02,0.63,-0,-1,0,0.86,4701,20,43,27,68,846,0.0,595,460,60,128.0,0,1,248,323,57,0,0,0,250,250,0,-5.59,,,,,,,,,,,,
55243,1564322760498,3,2.28,1.39,0.68,2.35,1.97,0.86,0.04,0.59,0,-0,-1,0.86,4739,20,43,27,68,846,0.0,595,460,60,131.0,0,1,252,323,57,0,0,0,250,250,0,-5.59,44.68095,10.01946,0.0,181.5,0,0.0,-1,0.0,0.0,0,0.0,0.9207
55263,1564322760518,3,2.28,1.39,0.68,2.35,1.98,0.84,0.05,0.62,0,0,-2,0.84,4740,20,43,27,68,846,0.0,596,463,60,132.0,0,1,252,323,57,0,0,0,250,250,0,-5.59,,,,,,,,,,,,
55283,1564322760538,-2,2.28,1.39,0.69,2.34,1.98,0.78,0.03,0.66,-0,-1,-1,0.78,4725,20,44,27,69,847,0.0,593,466,60,131.0,0,1,250,327,57,0,0,0,250,250,0,-5.59,,,,,,,,,,,,
55303,1564322760558,-2,2.28,1.39,0.69,2.35,1.96,0.76,0.05,0.64,-0,-2,-1,0.76,4724,19,43,27,69,847,0.0,593,470,60,130.0,0,1,250,327,57,0,0,0,250,250,0,-5.59,,,,,,,,,,,,
55323,1564322760578,-0,2.28,1.39,0.69,2.35,1.97,0.77,0.04,0.62,-0,-4,-0,0.77,4728,19,44,27,68,847,0.0,594,463,60,128.0,0,1,251,327,58,0,0,0,250,250,0,-5.59,,,,,,,,,,,,
55343,1564322760598,-0,2.27,1.39,0.69,2.34,1.97,0.79,0.0,0.61,-0,-5,0,0.79,4770,19,43,27,68,847,0.0,591,461,60,130.0,0,1,254,324,58,0,0,0,250,250,0,-5.59,44.68095,10.01946,0.0,181.5,0,0.0,-1,0.0,0.0,0,0.0,0.9224
55363,1564322760618,3,2.27,1.39,0.69,2.33,1.96,0.81,-0.0,0.54,-0,-4,-0,0.81,4761,20,43,27,68,848,0.0,592,457,60,130.0,0,1,253,324,58,0,0,0,250,250,0,-5.59,,,,,,,,,,,,
55383,1564322760638,5,2.28,1.38,0.7,2.34,1.97,0.8,0.01,0.52,-0,-2,-0,0.8,4784,20,44,27,68,848,0.0,590,455,60,131.0,0,1,255,324,58,0,0,0,250,250,0,-5.59,,,,,,,,,,,,
55403,1564322760658,0,2.27,1.39,0.7,2.34,1.97,0.76,0.02,0.54,-0,-2,-1,0.76,4748,20,44,27,69,848,0.0,594,468,60,130.0,0,1,252,327,58,0,0,0,250,250,0,-5.59,,,,,,,,,,,,
55423,1564322760678,-0,2.27,1.39,0.7,2.35,1.96,0.75,0.02,0.53,-0,-2,-0,0.75,4719,20,44,27,69,848,0.0,596,466,60,130.0,0,1,250,323,57,0,0,0,250,250,0,-5.59,,,,,,,,,,,,
55443,1564322760697,-1,2.27,1.39,0.7,2.34,1.97,0.77,0.01,0.55,-0,-3,-0,0.77,4708,20,44,27,69,848,0.0,595,468,60,129.0,0,1,249,327,57,0,0,0,250,250,0,-5.59,44.68095,10.01946,0.0,181.5,0,0.0,-1,0.0,0.0,0,0.0,0.924
55463,1564322760717,0,2.27,1.38,0.7,2.35,1.97,0.81,0.0,0.55,-0,-2,1,0.81,4688,20,44,27,68,847,0.0,594,462,60,129.0,0,1,247,326,57,0,0,0,250,250,0,-5.59,,,,,,,,,,,,
55483,1564322760737,0,2.28,1.39,0.7,2.34,1.98,0.84,0.01,0.5,-0,-2,1,0.84,4699,20,44,27,69,848,0.0,591,461,60,130.0,0,1,248,326,57,0,0,0,250,250,0,-5.59,,,,,,,,,,,,
55503,1564322760757,4,2.28,1.39,0.71,2.34,1.97,0.85,0.03,0.49,0,-2,0,0.85,4715,20,44,27,68,847,0.0,588,458,60,131.0,0,1,250,323,57,0,0,0,250,250,0,-5.59,,,,,,,,,,,,
55523,1564322760777,4,2.28,1.39,0.7,2.35,1.97,0.83,0.05,0.5,0,0,-1,0.83,4707,20,44,27,68,845,0.0,591,460,60,131.0,0,1,249,323,58,0,0,0,250,250,0,-5.59,,,,,,,,,,,,
55543,1564322760795,-1,2.27,1.39,0.7,2.34,1.98,0.8,0.04,0.51,0,1,-2,0.8,4696,20,44,27,68,842,0.0,589,463,60,131.0,0,1,248,322,58,0,0,0,250,250,0,-5.59,44.68095,10.01946,0.0,181.5,0,0.0,-1,0.0,0.0,0,0.0,0.9257
55563,1564322760815,1,2.28,1.39,0.71,2.35,1.97,0.75,0.04,0.51,-0,0,-1,0.75,4705,19,44,27,69,839,0.0,591,470,60,130.0,0,1,249,327,58,0,0,0,250,250,0,-5.59,,,,,,,,,,,,
55583,1564322760835,-1,2.28,1.39,0.71,2.34,1.98,0.76,0.04,0.5,-0,-0,-1,0.77,4712,20,44,27,69,837,0.0,592,464,60,130.0,0,1,250,327,58,0,0,0,250,250,0,-5.59,,,,,,,,,,,,
55603,1564322760855,0,2.27,1.39,0.71,2.35,1.97,0.79,0.03,0.55,-0,-2,1,0.79,4700,20,44,27,68,836,0.0,595,461,60,129.0,0,1,248,327,58,0,0,0,250,250,0,-5.59,,,,,,,,,,,,
55623,1564322760875,3,2.27,1.39,0.71,2.35,1.97,0.82,0.0,0.59,-0,-2,1,0.82,4772,20,44,27,68,836,0.0,597,458,60,130.0,0,1,254,324,58,0,0,0,250,250,0,-5.59,,,,,,,,,,,,
55643,1564322760897,4,2.28,1.38,0.71,2.34,1.98,0.84,0.01,0.57,-0,-2,1,0.84,4783,20,44,27,68,838,0.0,597,458,60,130.0,0,1,255,324,58,0,0,0,250,250,0,-5.59,44.68095,10.01946,0.0,181.5,0,0.0,-1,0.0,0.0,0,0.0,0.9274
55663,1564322760917,1,2.27,1.39,0.72,2.34,1.98,0.83,-0.0,0.62,-0,-2,-0,0.83,4777,20,44,27,68,840,0.0,594,462,60,131.0,0,1,255,324,58,0,0,0,250,250,0,-5.59,,,,,,,,,,,,
55683,1564322760937,-1,2.28,1.39,0.72,2.34,1.98,0.8,-0.01,0.63,-0,-3,-1,0.8,4772,20,44,27,69,842,0.0,596,467,60,131.0,0,1,254,324,58,0,0,0,250,250,0,-5.59,,,,,,,,,,,,
55703,1564322760957,-0,2.27,1.4,0.72,2.35,1.98,0.79,-0.0,0.64,-0,-4,1,0.79,4691,20,44,27,69,844,0.0,594,469,60,130.0,0,1,248,326,58,0,0,0,250,250,0,-5.59,,,,,,,,,,,,
55723,1564322760977,1,2.27,1.39,0.72,2.34,1.98,0.8,-0.02,0.68,-0,-5,1,0.8,4722,20,44,27,68,844,0.0,592,463,60,128.0,0,1,250,327,57,0,0,0,250,250,0,-5.59,,,,,,,,,,,,
55743,1564322760997,1,2.27,1.39,0.72,2.35,1.97,0.83,-0.03,0.66,-0,-5,1,0.83,4701,20,44,27,68,845,0.0,592,455,60,130.0,0,1,248,323,57,0,0,0,250,250,0,-5.59,44.68095,10.01946,0.0,181.5,0,0.0,-1,0.0,0.0,0,0.0,0.929
55763,1564322761009,4,2.27,1.39,0.72,2.35,1.97,0.81,-0.02,0.62,-0,-4,1,0.82,4702,20,44,27,68,846,0.0,591,462,60,130.0,0,1,248,327,57,0,0,0,250,250,0,-5.59,,,,,,,,,,,,
55783,1564322761029,5,2.27,1.39,0.73,2.34,1.98,0.81,0.0,0.64,-0,-3,1,0.81,4733,20,44,27,69,846,0.0,593,460,60,132.0,0,1,251,323,57,0,0,0,250,250,0,-5.59,,,,,,,,,,,,
55803,1564322761049,0,2.27,1.38,0.72,2.34,1.97,0.78,0.02,0.66,-0,-1,-0,0.78,4732,20,44,27,68,846,0.0,593,465,60,131.0,0,1,251,323,57,0,0,0,250,250,0,-5.59,,,,,,,,,,,,
55823,1564322761069,-1,2.28,1.39,0.72,2.34,1.98,0.75,0.01,0.68,-0,-2,-0,0.75,4725,20,44,27,69,846,0.0,594,466,60,130.0,0,1,250,327,58,0,0,0,250,250,0,-5.59,,,,,,,,,,,,
55843,1564322761097,-1,2.27,1.39,0.73,2.36,1.97,0.73,0.01,0.68,-0,-2,0,0.73,4727,20,44,27,69,847,0.0,596,467,60,129.0,0,1,251,327,58,0,0,0,250,250,0,-5.59,44.68095,10.01946,0.0,181.5,0,0.0,-1,0.0,0.0,0,0.0,0.9307
55863,1564322761117,0,2.27,1.39,0.73,2.34,1.98,0.75,0.01,0.65,-0,-2,1,0.75,4709,20,44,27,69,848,0.0,595,467,60,129.0,0,1,249,327,58,0,0,0,250,250,0,-5.59,,,,,,,,,,,,
55883,1564322761137,1,2.28,1.39,0.73,2.35,1.98,0.76,-0.0,0.63,-0,-2,1,0.76,4730,20,44,27,68,849,0.0,591,455,60,130.0,0,1,251,323,58,0,0,0,250,250,0,-5.59,,,,,,,,,,,,
55903,1564322761157,2,2.28,1.39,0.72,2.35,1.97,0.78,0.01,0.59,-0,-1,1,0.78,4708,20,44,27,68,850,0.0,591,458,60,130.0,0,1,249,323,58,0,0,0,250,250,0,-5.59,,,,,,,,,,,,
55923,1564322761177,5,2.27,1.4,0.74,2.34,1.99,0.75,0.02,0.61,-0,1,0,0.75,4691,20,44,27,68,848,0.0,590,462,60,132.0,0,1,248,322,58,0,0,0,250,250,0,-5.59,,,,,,,,,,,,
55943,1564322761197,0,2.27,1.39,0.73,2.35,1.97,0.72,0.03,0.61,0,1,-0,0.72,4718,20,44,27,68,846,0.0,591,467,60,131.0,0,1,250,323,58,0,0,0,250,250,0,-5.59,44.68095,10.01946,0.0,181.5,0,0.0,-1,0.0,0.0,0,0.0,0.9324
55963,1564322761217,-1,2.27,1.39,0.74,2.34,1.98,0.73,0.05,0.57,0,1,-1,0.73,4681,20,44,27,69,843,0.0,594,472,60,130.0,0,1,247,326,58,0,0,0,250,250,0,-5.59,,,,,,,,,,,,
55983,1564322761237,-2,2.28,1.4,0.73,2.36,1.97,0.74,0.04,0.56,-0,1,0,0.74,4732,20,44,27,69,840,0.0,596,464,60,129.0,0,1,251,327,58,0,0,0,250,250,0,-5.59,,,,,,,,,,,,
56003,1564322761257,0,2.26,1.39,0.73,2.35,1.97,0.76,0.01,0.55,-0,1,1,0.76,4715,20,44,27,68,838,0.0,597,460,60,129.0,0,1,250,323,58,0,0,0,250,250,0,-5.59,,,,,,,,,,,,
56023,1564322761277,2,2.28,1.4,0.74,2.35,1.98,0.8,0.03,0.53,0,2,1,0.81,4731,20,44,27,68,837,0.0,595,463,60,130.0,0,1,251,327,57,0,0,0,250,250,0,-5.59,,,,,,,,,,,,
56043,1564322761297,5,2.27,1.39,0.73,2.35,1.98,0.82,0.03,0.53,0,2,0,0.82,4770,20,44,27,68,838,0.0,593,456,60,131.0,0,1,254,324,57,0,0,0,250,250,0,-5.59,44.68095,10.01946,0.0,181.5,0,0.0,-1,0.0,0.0,0,0.0,0.934
56063,1564322761317,0,2.28,1.39,0.73,2.34,1.98,0.79,0.02,0.53,0,2,-1,0.79,4713,20,44,27,68,840,0.0,595,467,60,131.0,0,1,249,323,57,0,0,0,250,250,0,-5.59,,,,,,,,,,,,
56083,1564322761337,-1,2.28,1.39,0.74,2.34,1.98,0.77,0.03,0.49,0,2,-1,0.77,4770,20,44,27,69,843,0.0,594,466,60,130.0,0,1,254,328,57,0,0,0,250,250,0,-5.59,,,,,,,,,,,,
56103,1564322761357,-1,2.27,1.39,0.75,2.35,1.97,0.79,0.01,0.5,-0,1,-1,0.79,4772,20,44,27,69,846,0.0,595,466,60,129.0,0,1,254,328,57,0,0,0,250,250,0,-5.59,,,,,,,,,,,,
56123,1564322761377,0,2.27,1.4,0.74,2.34,1.98,0.83,0.0,0.5,-0,1,1,0.83,4757,20,44,27,68,847,0.0,594,465,60,129.0,0,1,253,328,58,0,0,0,250,250,0,-5.59,,,,,,,,,,,,
56143,1564322761397,4,2.27,1.39,0.74,2.35,1.98,0.85,0.02,0.47,0,1,1,0.85,4761,20,44,27,68,849,0.0,594,455,60,130.0,0,1,253,324,58,0,0,0,250,250,0,-5.59,44.68095,10.01946,0.0,181.5,0,0.0,-1,0.0,0.0,0,0.0,0.9357
56163,1564322761417,4,2.28,1.39,0.75,2.35,1.98,0.83,0.03,0.51,0,1,-1,0.83,4728,20,44,27,68,849,0.0,595,462,60,132.0,0,1,251,323,58,0,0,0,250,250,0,-5.59,,,,,,,,,,,,
56183,1564322761437,1,2.27,1.4,0.75,2.35,1.98,0.8,0.03,0.52,0,2,-1,0.8,4742,20,44,27,69,850,0.0,595,465,60,131.0,0,1,252,323,58,0,0,0,250,250,0,-5.59,,,,,,,,,,,,
56203,1564322761457,-1,2.28,1.4,0.75,2.35,1.97,0.8,0.02,0.53,-0,1,-2,0.8,4711,20,44,27,69,849,0.0,594,465,60,130.0,0,1,249,327,58,0,0,0,250,250,0,-5.59,,,,,,,,,,,,
56223,1564322761477,-1,2.28,1.4,0.75,2.34,1.98,0.81,0.0,0.56,-0,-1,-1,0.81,4685,20,44,27,69,849,0.0,595,467,60,129.0,0,1,247,326,57,0,0,0,250,250,0,-5.59,,,,,,,,,,,,
56243,1564322761497,-0,2.27,1.39,0.75,2.36,1.98,0.82,-0.01,0.57,-0,-2,-0,0.82,4713,20,44,27,69,846,0.0,593,470,60,129.0,0,1,249,327,57,0,0,0,250,250,0,-5.59,44.68095,10.01946,0.0,181.5,0,0.0,-1,0.0,0.0,0,0.0,0.9374
56263,1564322761517,0,2.27,1.4,0.75,2.35,1.98,0.83,-0.03,0.56,-0,-2,1,0.83,4709,20,44,27,68,843,0.0,591,457,60,130.0,0,1,249,327,57,0,0,0,250,250,0,-5.59,,,,,,,,,,,,
56283,1564322761537,3,2.28,1.39,0.75,2.35,1.98,0.84,-0.02,0.55,-0,-2,1,0.84,4709,20,44,27,68,840,0.0,591,463,60,130.0,0,1,249,327,57,0,0,0,250,250,0,-5.59,,,,,,,,,,,,
56303,1564322761557,4,2.28,1.39,0.75,2.35,1.98,0.83,0.02,0.55,0,-0,0,0.83,4660,20,44,27,68,838,0.0,588,458,60,131.0,0,1,245,322,57,0,0,0,250,250,0,-5.59,,,,,,,,,,,,
56323,1564322761577,4,2.27,1.4,0.75,2.35,1.98,0.8,0.02,0.57,0,1,-0,0.8,4673,20,44,27,68,836,0.0,588,457,60,130.0,0,1,246,322,57,0,0,0,250,250,0,-5.59,,,,,,,,,,,,
56343,1564322761597,0,2.27,1.39,0.75,2.35,1.98,0.76,0.03,0.56,0,2,-1,0.77,4687,20,44,27,68,834,0.0,587,463,60,131.0,0,1,247,322,57,0,0,0,250,250,0,-5.59,44.68095,10.01946,0.0,181.5,0,0.0,-1,0.0,0.0,0,0.0,0.939
56363,1564322761617,0,2.27,1.4,0.74,2.35,1.98,0.77,0.04,0.54,-0,2,-1,0.77,4716,20,44,27,69,832,0.0,596,467,60,130.0,0,1,250,327,57,0,0,0,250,250,0,-5.59,,,,,,,,,,,,
56383,1564322761637,-1,2.27,1.4,0.76,2.34,1.98,0.8,0.01,0.56,-0,1,-1,0.8,4727,20,44,27,69,833,0.0,594,468,60,129.0,0,1,249,327,57,0,0,0,250,250,0,-5.59,,,,,,,,,,,,
56403,1564322761657,1,2.27,1.39,0.75,2.34,1.98,0.84,0.01,0.56,-0,-0,0,0.84,4694,20,44,27,69,833,0.0,594,465,60,128.0,0,1,248,326,57,0,0,0,250,250,0,-5.59,,,,,,,,,,,,
56423,1564322761677,1,2.27,1.4,0.75,2.35,1.98,0.86,0.01,0.53,0,-1,1,0.86,4693,20,44,27,68,833,0.0,593,457,60,130.0,0,1,248,322,57,0,0,0,250,250,0,-5.59,,,,,,,,,,,,
56443,1564322761696,3,2.27,1.4,0.76,2.34,1.98,0.87,0.03,0.56,0,-1,0,0.87,4707,20,44,27,68,833,0.0,593,456,60,130.0,0,1,249,323,57,0,0,0,250,250,0,-5.59,44.68095,10.01946,0.0,181.5,0,0.0,-1,0.0,0.0,0,0.0,0.9407
56463,1564322761716,4,2.27,1.4,0.76,2.35,1.98,0.84,0.04,0.59,0,-0,-1,0.84,4708,20,44,27,68,832,0.0,593,463,60,132.0,0,1,249,323,57,0,0,0,250,250,0,-5.59,,,,,,,,,,,,
56483,1564322761736,-1,2.28,1.4,0.75,2.34,1.98,0.8,0.02,0.63,0,0,-1,0.8,4720,20,44,27,68,832,0.0,595,461,60,132.0,0,1,250,323,57,0,0,0,250,250,0,-5.59,,,,,,,,,,,,
56503,1564322761756,-0,2.28,1.4,0.76,2.35,1.98,0.76,0.02,0.63,0,-1,-1,0.76,4657,20,44,27,69,833,0.0,593,463,60,131.0,0,1,245,326,57,0,0,0,250,250,0,-5.59,,,,,,,,,,,,
56523,1564322761776,0,2.27,1.4,0.76,2.34,1.99,0.76,0.04,0.62,-0,-1,-1,0.76,4635,20,44,27,69,834,0.0,593,470,60,130.0,0,1,243,325,57,0,0,0,250,250,0,-5.59,,,,,,,,,,,,
56543,1564322761796,-1,2.28,1.4,0.75,2.35,1.99,0.76,0.02,0.64,-0,-2,-0,0.76,4612,20,44,27,69,836,0.0,592,465,60,129.0,0,1,241,325,57,0,0,0,250,250,0,-5.59,44.68095,10.01946,0.0,181.5,0,0.0,-1,0.0,0.0,0,0.0,0.9424
56563,1564322761816,-1,2.27,1.4,0.76,2.35,1.98,0.77,0.0,0.66,-0,-2,0,0.77,4627,20,44,27,69,839,0.0,591,465,60,129.0,0,1,242,325,57,0,0,0,250,250,0,-5.59,,,,,,,,,,,,
56583,1564322761836,2,2.27,1.4,0.77,2.34,1.99,0.8,0.01,0.64,-0,-2,1,0.8,4591,20,44,27,68,842,0.0,592,461,60,128.0,0,1,239,324,57,0,0,0,250,250,0,-5.59,,,,,,,,,,,,
56603,1564322761856,1,2.27,1.4,0.76,2.35,1.98,0.83,0.01,0.61,0,-2,2,0.83,4621,20,44,27,69,845,0.0,591,462,60,129.0,0,1,242,325,57,0,0,0,250,250,0,-5.59,,,,,,,,,,,,
56623,1564322761876,-1,2.28,1.4,0.76,2.34,1.99,0.87,0.02,0.61,0,-3,1,0.87,4577,20,44,27,68,846,0.0,590,458,60,128.0,0,1,238,319,56,0,0,0,250,250,0,-5.59,,,,,,,,,,,,
56643,1564322761896,1,2.27,1.4,0.76,2.36,1.98,0.89,0.02,0.6,0,-3,1,0.89,4618,20,44,27,68,846,0.0,590,455,60,130.0,0,1,241,321,56,0,0,0,250,250,0,-5.59,44.68095,10.01946,0.0,181.5,0,0.0,-1,0.0,0.0,0,0.0,0.944
56663,1564322761916,4,2.27,1.39,0.76,2.35,1.99,0.88,0.03,0.58,0,-3,1,0.88,4614,20,44,27,68,848,0.0,589,457,60,130.0,0,1,241,321,56,0,0,0,250,250,0,-5.59,,,,,,,,,,,,
56683,1564322761936,3,2.28,1.4,0.75,2.35,1.99,0.86,0.02,0.6,0,-2,0,0.86,4636,20,44,27,68,850,0.0,591,453,60,131.0,0,1,243,321,56,0,0,0,250,250,0,-5.59,,,,,,,,,,,,
56703,1564322761956,4,2.28,1.4,0.76,2.35,1.98,0.83,0.03,0.62,0,-1,-0,0.83,4614,20,44,27,69,851,0.0,588,464,60,131.0,0,1,241,321,56,0,0,0,250,250,0,-5.59,,,,,,,,,,,,
56723,1564322761976,-2,2.28,1.4,0.76,2.35,1.98,0.78,0.04,0.62,0,1,-1,0.78,4661,20,44,27,68,852,0.0,590,464,60,131.0,0,1,245,322,57,0,0,0,250,250,0,-5.59,,,,,,,,,,,,
56743,1564322761996,-1,2.28,1.4,0.76,2.35,1.98,0.77,0.05,0.62,-0,2,-2,0.77,4661,20,44,27,68,854,0.0,592,460,60,131.0,0,1,245,322,57,0,0,0,250,250,0,-5.59,44.68095,10.01946,0.0,181.5,0,0.0,-1,0.0,0.0,0,0.0,0.9457
56763,1564322762010,-1,2.28,1.39,0.76,2.35,1.98,0.76,0.03,0.61,-0,1,-1,0.76,4711,20,44,27,69,855,0.0,596,470,60,130.0,0,1,249,327,57,0,0,0,250,250,0,-5.59,,,,,,,,,,,,
56783,1564322762030,-1,2.27,1.4,0.76,2.36,1.98,0.78,0.02,0.6,-0,0,-1,0.78,4652,20,44,27,69,855,0.0,594,471,60,130.0,0,1,244,326,57,0,0,0,250,250,0,-5.59,,,,,,,,,,,,
56803,1564322762050,1,2.27,1.4,0.77,2.35,1.98,0.82,0.0,0.62,-0,-1,1,0.82,4671,20,44,27,68,855,0.0,592,456,60,129.0,0,1,246,326,57,0,0,0,250,250,0,-5.59,,,,,,,,,,,,
56823,1564322762070,1,2.27,1.4,0.77,2.35,1.98,0.85,0.01,0.6,0,-2,1,0.85,4686,20,44,27,68,855,0.0,595,463,60,128.0,0,1,247,326,58,0,0,0,250,250,0,-5.59,,,,,,,,,,,,
56843,1564322762096,2,2.28,1.39,0.77,2.35,1.97,0.86,0.02,0.59,0,-2,0,0.86,4712,20,44,27,68,855,0.0,594,462,60,130.0,0,1,249,323,58,0,0,0,250,250,0,-5.59,44.68095,10.01946,0.0,181.5,0,0.0,-1,0.0,0.0,0,0.0,0.9474
56863,1564322762116,5,2.27,1.4,0.77,2.35,1.99,0.83,0.01,0.61,0,-1,-0,0.83,4686,20,44,27,68,854,0.0,587,458,60,132.0,0,1,247,322,58,0,0,0,250,250,0,-5.59,,,,,,,,,,,,
56883,1564322762136,0,2.28,1.4,0.76,2.35,1.98,0.8,0.02,0.65,0,-1,-1,0.8,4702,20,44,27,68,853,0.0,590,464,60,131.0,0,1,248,323,58,0,0,0,250,250,0,-5.59,,,,,,,,,,,,
56903,1564322762156,-1,2.27,1.4,0.77,2.35,1.98,0.77,0.02,0.65,-0,-1,-1,0.77,4703,20,44,27,69,851,0.0,591,468,60,131.0,0,1,249,327,58,0,0,0,250,250,0,-5.59,,,,,,,,,,,,
56923,1564322762176,-0,2.27,1.4,0.77,2.35,1.98,0.76,0.03,0.67,-0,-2,-1,0.76,4678,20,44,27,69,848,0.0,593,470,60,129.0,0,1,248,326,57,0,0,0,250,250,0,-5.59,,,,,,,,,,,,
56943,1564322762198,-0,2.27,1.4,0.77,2.34,1.98,0.77,0.02,0.69,-0,-2,-0,0.77,4675,20,44,27,68,846,0.0,594,467,60,129.0,0,1,246,322,57,0,0,0,250,250,0,-5.59,44.68095,10.01946,0.0,181.5,0,0.0,-1,0.0,0.0,0,0.0,0.949
56963,1564322762218,0,2.28,1.4,0.76,2.35,1.98,0.79,0.01,0.65,-0,-2,1,0.79,4707,20,44,27,69,844,0.0,593,467,60,129.0,0,1,249,327,57,0,0,0,250,250,0,-5.59,,,,,,,,,,,,
56983,1564322762238,1,2.27,1.4,0.76,2.36,1.98,0.82,-0.0,0.61,-0,-2,1,0.82,4665,20,44,27,68,845,0.0,593,458,60,128.0,0,1,245,326,57,0,0,0,250,250,0,-5.59,,,,,,,,,,,,
57003,1564322762258,4,2.27,1.4,0.77,2.34,1.98,0.84,0.02,0.58,0,-1,1,0.84,4691,20,44,27,68,847,0.0,594,457,60,130.0,0,1,248,322,57,0,0,0,250,250,0,-5.59,,,,,,,,,,,,
57023,1564322762278,4,2.27,1.4,0.77,2.35,1.98,0.83,0.05,0.56,0,1,-1,0.83,4634,20,44,27,68,850,0.0,592,459,60,132.0,0,1,243,321,57,0,0,0,250,250,0,-5.59,,,,,,,,,,,,
57043,1564322762298,4,2.27,1.4,0.77,2.35,1.98,0.81,0.03,0.58,0,1,-1,0.81,4645,20,44,27,68,853,0.0,593,457,60,131.0,0,1,244,321,57,0,0,0,250,250,0,-5.59,44.68095,10.01946,0.0,181.5,0,0.0,-1,0.0,0.0,0,0.0,0.9507
57063,1564322762318,-1,2.27,1.4,0.77,2.35,1.97,0.79,0.03,0.59,0,1,-2,0.8,4679,20,44,27,68,855,0.0,592,465,60,131.0,0,1,247,322,57,0,0,0,250,250,0,-5.59,,,,,,,,,,,,
57083,1564322762338,-0,2.28,1.4,0.76,2.35,1.98,0.78,0.03,0.59,-0,0,-1,0.79,4687,20,44,27,69,856,0.0,594,468,60,130.0,0,1,247,326,57,0,0,0,250,250,0,-5.59,,,,,,,,,,,,
57103,1564322762358,-3,2.27,1.39,0.76,2.34,1.98,0.78,0.02,0.61,-0,-1,-1,0.78,4647,20,44,27,69,856,0.0,593,465,60,129.0,0,1,244,325,57,0,0,0,250,250,0,-5.59,,,,,,,,,,,,
57123,1564322762378,-1,2.28,1.4,0.76,2.36,1.98,0.78,0.0,0.64,-0,-3,-0,0.78,4700,20,44,27,68,854,0.0,592,466,60,129.0,0,1,248,327,57,0,0,0,250,250,0,-5.59,,,,,,,,,,,,
57143,1564322762398,0,2.27,1.4,0.76,2.35,1.98,0.79,-0.01,0.61,-0,-3,1,0.79,4721,20,44,27,68,852,0.0,592,456,60,130.0,0,1,250,323,57,0,0,0,250,250,0,-5.59,44.68095,10.01946,0.0,181.5,0,0.0,-1,0.0,0.0,0,0.0,0.9524
57163,1564322762418,4,2.27,1.4,0.76,2.35,1.97,0.8,-0.01,0.6,-0,-3,1,0.8,4742,20,44,27,68,851,0.0,593,462,60,130.0,0,1,252,327,57,0,0,0,250,250,0,-5.59,,,,,,,,,,,,
57183,1564322762438,3,2.27,1.4,0.76,2.35,1.98,0.8,0.01,0.6,-0,-1,1,0.8,4696,20,44,27,68,850,0.0,590,461,60,132.0,0,1,248,322,57,0,0,0,250,250,0,-5.59,,,,,,,,,,,,
57203,1564322762458,6,2.28,1.4,0.76,2.35,1.99,0.77,0.03,0.61,-0,1,-0,0.77,4666,20,44,27,68,850,0.0,590,459,60,131.0,0,1,245,322,57,0,0,0,250,250,0,-5.59,,,,,,,,,,,,
57223,1564322762478,-1,2.28,1.4,0.76,2.35,1.98,0.73,0.04,0.61,-0,1,-1,0.73,4698,20,44,27,68,849,0.0,587,463,60,131.0,0,1,248,322,58,0,0,0,250,250,0,-5.59,,,,,,,,,,,,
57243,1564322762498,-0,2.28,1.4,0.76,2.35,1.98,0.75,0.04,0.57,-0,1,-1,0.75,4660,20,44,27,69,849,0.0,594,472,60,130.0,0,1,245,326,58,0,0,0,250,250,0,-5.59,44.68095,10.01946,0.0,181.5,0,0.0,-1,0.0,0.0,0,0.0,0.954
57263,1564322762518,-2,2.28,1.4,0.76,2.35,1.98,0.75,0.03,0.58,-0,1,-0,0.75,4696,20,44,27,69,848,0.0,594,466,60,130.0,0,1,248,326,58,0,0,0,250,250,0,-5.59,,,,,,,,,,,,
57283,1564322762538,-0,2.28,1.4,0.76,2.35,1.99,0.78,-0.0,0.63,-0,-1,1,0.78,4652,20,44,27,69,848,0.0,594,463,60,128.0,0,1,244,326,58,0,0,0,250,250,0,-5.59,,,,,,,,,,,,
57303,1564322762558,-1,2.27,1.4,0.75,2.35,1.97,0.82,0.01,0.65,-0,-2,1,0.82,4627,20,44,27,69,848,0.0,593,468,60,129.0,0,1,242,325,58,0,0,0,250,250,0,-5.59,,,,,,,,,,,,
57323,1564322762578,1,2.27,1.4,0.76,2.35,1.99,0.83,0.01,0.62,-0,-2,1,0.83,4683,20,44,27,68,849,0.0,594,462,60,130.0,0,1,247,326,57,0,0,0,250,250,0,-5.59,,,,,,,,,,,,
57343,1564322762598,3,2.26,1.4,0.76,2.34,1.98,0.83,0.01,0.61,-0,-3,1,0.83,4664,20,44,27,68,850,0.0,592,455,60,130.0,0,1,245,322,57,0,0,0,250,250,0,-5.59,44.68095,10.01946,0.0,181.5,0,0.0,-1,0.0,0.0,0,0.0,0.9557
57363,1564322762618,4,2.28,1.41,0.76,2.35,1.99,0.83,0.02,0.62,0,-1,1,0.83,4687,20,44,27,69,850,0.0,594,462,60,132.0,0,1,247,322,57,0,0,0,250,250,0,-5.59,,,,,,,,,,,,
57383,1564322762638,3,2.28,1.4,0.76,2.35,1.98,0.8,0.04,0.62,0,-0,0,0.8,4630,20,44,27,68,851,0.0,592,458,60,131.0,0,1,242,321,57,0,0,0,250,250,0,-5.59,,,,,,,,,,,,
57403,1564322762658,0,2.27,1.4,0.76,2.35,1.98,0.75,0.04,0.64,0,0,-1,0.75,4661,20,44,27,69,850,0.0,593,467,60,131.0,0,1,245,322,57,0,0,0,250,250,0,-5.59,,,,,,,,,,,,
57423,1564322762678,0,2.27,1.4,0.76,2.35,1.97,0.75,0.06,0.61,0,1,-1,0.75,4626,20,44,27,68,849,0.0,592,469,60,131.0,0,1,242,321,56,0,0,0,250,250,0,-5.59,,,,,,,,,,,,
57443,1564322762697,-1,2.27,1.4,0.76,2.34,1.98,0.76,0.06,0.59,-0,0,-1,0.76,4689,20,44,27,68,847,0.0,594,462,60,129.0,0,1,247,322,56,0,0,0,250,250,0,-5.59,44.68095,10.01946,0.0,181.5,0,0.0,-1,0.0,0.0,0,0.0,0.9574
57463,1564322762717,-1,2.27,1.41,0.76,2.35,1.98,0.78,0.03,0.61,-0,-1,-0,0.78,4656,20,44,27,69,846,0.0,593,465,60,129.0,0,1,245,326,56,0,0,0,250,250,0,-5.59,,,,,,,,,,,,
57483,1564322762737,-1,2.28,1.4,0.76,2.36,1.99,0.82,0.03,0.63,0,-1,1,0.82,4663,20,44,27,68,844,0.0,591,462,60,129.0,0,1,245,326,56,0,0,0,250,250,0,-5.59,,,,,,,,,,,,
57503,1564322762757,0,2.28,1.4,0.76,2.35,1.98,0.84,0.03,0.58,0,-1,1,0.84,4700,20,44,27,68,843,0.0,591,456,60,130.0,0,1,248,323,56,0,0,0,250,250,0,-5.59,,,,,,,,,,,,
57523,1564322762777,4,2.27,1.39,0.75,2.35,1.99,0.88,0.04,0.59,0,-1,0,0.88,4663,20,44,27,68,844,0.0,590,453,60,130.0,0,1,245,322,58,0,0,0,250,250,0,-5.59,,,,,,,,,,,,
57543,1564322762797,4,2.28,1.4,0.75,2.35,1.99,0.86,0.06,0.61,0,0,-1,0.86,4712,20,44,27,68,844,0.0,590,459,60,132.0,0,1,249,323,58,0,0,0,250,250,0,-5.59,44.68095,10.01946,0.0,181.5,0,0.0,-1,0.0,0.0,0,0.0,0.959
57563,1564322762817,0,2.27,1.4,0.75,2.36,1.98,0.83,0.05,0.62,0,1,-2,0.83,4732,20,44,27,69,845,0.0,595,461,60,131.0,0,1,251,323,58,0,0,0,250,250,0,-5.59,,,,,,,,,,,,
57583,1564322762837,1,2.27,1.4,0.75,2.36,1.98,0.8,0.04,0.61,0,-0,-1,0.8,4714,20,44,27,69,846,0.0,592,468,60,131.0,0,1,249,323,58,0,0,0,250,250,0,-5.59,,,,,,,,,,,,
57603,1564322762857,-0,2.27,1.4,0.75,2.35,1.98,0.81,0.04,0.61,0,-1,-1,0.81,4708,20,44,27,69,847,0.0,596,471,60,131.0,0,1,249,327,58,0,0,0,250,250,0,-5.59,,,,,,,,,,,,
57623,1564322762877,1,2.27,1.4,0.76,2.36,1.98,0.8,0.02,0.64,-0,-3,0,0.8,4698,20,44,27,68,849,0.0,595,459,60,128.0,0,1,248,322,57,0,0,0,250,250,0,-5.59,,,,,,,,,,,,
57643,1564322762897,1,2.28,1.41,0.75,2.36,1.98,0.82,-0.01,0.66,-0,-3,1,0.82,4718,20,44,27,68,851,0.0,593,462,60,128.0,0,1,250,327,57,0,0,0,250,250,0,-5.59,44.68095,10.01946,0.0,181.5,0,0.0,-1,0.0,0.0,0,0.0,0.9607
57663,1564322762917,3,2.28,1.4,0.76,2.35,1.99,0.83,0.01,0.64,0,-3,0,0.83,4671,20,44,27,68,854,0.0,592,464,60,130.0,0,1,246,326,57,0,0,0,250,250,0,-5.59,,,,,,,,,,,,
57683,1564322762937,4,2.27,1.4,0.75,2.36,1.98,0.83,0.02,0.62,0,-2,0,0.83,4671,20,44,27,68,856,0.0,589,453,60,131.0,0,1,246,322,57,0,0,0,250,250,0,-5.59,,,,,,,,,,,,
57703,1564322762957,2,2.28,1.41,0.76,2.35,1.99,0.81,0.02,0.63,0,-1,-0,0.81,4629,20,44,27,68,856,0.0,588,461,60,132.0,0,1,242,321,57,0,0,0,250,250,0,-5.59,,,,,,,,,,,,
57723,1564322762977,1,2.28,1.4,0.76,2.35,1.99,0.77,0.04,0.63,0,1,-1,0.77,4668,20,44,27,68,857,0.0,590,466,60,131.0,0,1,246,322,58,0,0,0,250,250,0,-5.59,,,,,,,,,,,,
57743,1564322762997,-1,2.28,1.41,0.75,2.36,1.98,0.75,0.04,0.63,-0,1,-2,0.75,4660,20,45,27,69,857,0.0,589,466,60,130.0,0,1,245,323,58,0,0,0,250,250,0,-5.59,44.68095,10.01946,0.0,181.5,0,0.0,-1,0.0,0.0,0,0.0,0.9624
57763,1564322763009,0,2.27,1.4,0.75,2.36,1.98,0.74,0.04,0.61,-0,0,-2,0.74,4661,20,45,27,69,857,0.0,591,470,60,130.0,0,1,245,319,58,0,0,0,250,250,0,-5.59,,,,,,,,,,,,
57783,1564322763029,-1,2.28,1.4,0.76,2.35,1.98,0.76,0.03,0.6,-0,0,-1,0.76,4623,20,44,27,69,857,0.0,595,470,60,129.0,0,1,242,326,58,0,0,0,250,250,0,-5.59,,,,,,,,,,,,
57803,1564322763049,-3,2.26,1.4,0.75,2.35,1.98,0.75,0.03,0.61,-0,-1,1,0.75,4608,20,45,27,69,855,0.0,592,463,60,129.0,0,1,241,322,58,0,0,0,250,250,0,-5.59,,,,,,,,,,,,
57823,1564322763069,-1,2.28,1.4,0.75,2.35,1.99,0.78,0.01,0.65,-0,-2,1,0.78,4631,20,45,27,69,853,0.0,594,466,60,129.0,0,1,243,322,56,0,0,0,250,250,0,-5.59,,,,,,,,,,,,
57843,1564322763097,0,2.28,1.4,0.75,2.35,1.98,0.81,0.02,0.64,-0,-3,1,0.81,4641,20,45,27,68,850,0.0,592,458,60,130.0,0,1,243,318,56,0,0,0,250,250,0,-5.59,44.68095,10.01946,0.0,181.5,0,0.0,-1,0.0,0.0,0,0.0,0.964
57863,1564322763117,-0,2.28,1.4,0.74,2.35,1.98,0.82,0.02,0.61,-0,-3,2,0.82,4622,20,45,27,68,849,0.0,593,450,60,130.0,0,1,242,318,56,0,0,0,250,250,0,-5.59,,,,,,,,,,,,
57883,1564322763137,3,2.27,1.41,0.75,2.35,1.98,0.83,0.03,0.62,0,-2,1,0.83,4650,20,45,27,68,845,0.0,592,458,60,130.0,0,1,244,319,56,0,0,0,250,250,0,-5.59,,,,,,,,,,,,
57903,1564322763157,4,2.27,1.4,0.76,2.35,1.98,0.82,0.05,0.63,0,-0,1,0.82,4634,20,45,27,68,841,0.0,591,462,60,132.0,0,1,243,318,56,0,0,0,250,250,0,-5.59,,,,,,,,,,,,
57923,1564322763177,1,2.27,1.4,0.75,2.35,1.97,0.79,0.07,0.6,0,1,-0,0.8,4633,20,45,27,68,838,0.0,591,460,60,132.0,0,1,243,318,57,0,0,0,250,250,0,-5.59,,,,,,,,,,,,
57943,1564322763197,0,2.28,1.4,0.75,2.35,1.98,0.76,0.07,0.62,0,2,-1,0.77,4682,20,45,27,68,836,0.0,593,460,60,132.0,0,1,247,319,57,0,0,0,250,250,0,-5.59,44.68095,10.01946,0.0,181.5,0,0.0,-1,0.0,0.0,0,0.0,0.9657
57963,1564322763217,-1,2.28,1.4,0.75,2.35,1.99,0.76,0.07,0.59,0,2,-2,0.76,4665,20,45,27,69,835,0.0,595,472,60,130.0,0,1,245,323,57,0,0,0,250,250,0,-5.59,,,,,,,,,,,,
57983,1564322763237,-0,2.27,1.41,0.75,2.35,1.99,0.76,0.08,0.58,0,2,-1,0.77,4725,20,45,27,69,835,0.0,596,466,60,130.0,0,1,250,324,57,0,0,0,250,250,0,-5.59,,,,,,,,,,,,
58003,1564322763257,1,2.27,1.41,0.75,2.35,1.98,0.79,0.04,0.58,-0,1,0,0.79,4746,20,45,27,68,835,0.0,592,461,60,129.0,0,1,252,324,57,0,0,0,250,250,0,-5.59,,,,,,,,,,,,
58023,1564322763277,3,2.27,1.4,0.75,2.36,1.98,0.82,0.04,0.56,0,1,1,0.82,4699,20,45,27,69,837,0.0,593,465,60,128.0,0,1,248,323,58,0,0,0,250,250,0,-5.59,,,,,,,,,,,,
58043,1564322763297,4,2.27,1.41,0.75,2.35,1.98,0.84,0.06,0.53,0,2,0,0.84,4727,20,45,27,69,839,0.0,592,461,60,131.0,0,1,251,324,58,0,0,0,250,250,0,-5.59,44.68095,10.01946,0.0,181.5,0,0.0,-1,0.0,0.0,0,0.0,0.9674
58063,1564322763317,5,2.28,1.4,0.75,2.35,1.99,0.84,0.07,0.55,0,3,-1,0.84,4693,20,45,27,69,842,0.0,590,463,60,131.0,0,1,248,319,58,0,0,0,250,250,0,-5.59,,,,,,,,,,,,
58083,1564322763337,0,2.27,1.41,0.76,2.35,1.98,0.8,0.07,0.56,0,3,-2,0.81,4714,20,45,27,68,845,0.0,590,463,60,131.0,0,1,249,320,58,0,0,0,250,250,0,-5.59,,,,,,,,,,,,
58103,1564322763357,-0,2.28,1.41,0.75,2.36,1.98,0.79,0.06,0.58,-0,1,-2,0.8,4707,20,45,27,69,847,0.0,593,468,60,130.0,0,1,249,324,58,0,0,0,250,250,0,-5.59,,,,,,,,,,,,
58123,1564322763377,-2,2.28,1.4,0.75,2.35,1.98,0.79,0.03,0.59,-0,0,-1,0.79,4725,20,45,27,69,848,0.0,595,468,60,130.0,0,1,249,324,57,0,0,0,250,250,0,-5.59,,,,,,,,,,,,
58143,1564322763397,-1,2.28,1.4,0.75,2.36,1.98,0.8,0.02,0.61,-0,-1,0,0.8,4718,20,45,27,68,848,0.0,596,463,60,129.0,0,1,250,324,57,0,0,0,250,250,0,-5.59,44.68095,10.01946,0.0,181.5,0,0.0,-1,0.0,0.0,0,0.0,0.969
58163,1564322763417,-0,2.28,1.4,0.75,2.35,1.99,0.81,-0.01,0.61,-0,-2,0,0.81,4699,20,45,27,68,849,0.0,592,455,60,130.0,0,1,248,319,57,0,0,0,250,250,0,-5.59,,,,,,,,,,,,
58183,1564322763437,1,2.27,1.41,0.75,2.34,1.98,0.82,-0.0,0.59,0,-1,0,0.82,4689,20,45,27,68,847,0.0,595,458,60,131.0,0,1,247,319,57,0,0,0,250,250,0,-5.59,,,,,,,,,,,,
58203,1564322763457,4,2.28,1.4,0.75,2.35,1.99,0.83,0.03,0.6,0,-1,-0,0.83,4694,20,45,27,69,846,0.0,591,459,60,132.0,0,1,248,319,57,0,0,0,250,250,0,-5.59,,,,,,,,,,,,
58223,1564322763477,4,2.28,1.4,0.75,2.35,1.98,0.81,0.02,0.61,0,-0,-1,0.81,4646,20,45,27,69,845,0.0,591,465,60,131.0,0,1,244,322,57,0,0,0,250,250,0,-5.59,,,,,,,,,,,,
58243,1564322763497,-0,2.27,1.41,0.75,2.36,1.98,0.77,0.02,0.61,0,1,-2,0.77,4663,20,45,27,68,844,0.0,594,468,60,131.0,0,1,245,319,57,0,0,0,250,250,0,-5.59,44.68095,10.01946,0.0,181.5,0,0.0,-1,0.0,0.0,0,0.0,0.9707
58263,1564322763517,1,2.27,1.41,0.76,2.34,1.99,0.76,0.04,0.58,0,1,-2,0.76,4659,20,45,27,69,845,0.0,592,466,60,131.0,0,1,245,323,57,0,0,0,250,250,0,-5.59,,,,,,,,,,,,
58283,1564322763537,0,2.28,1.4,0.75,2.35,1.98,0.77,0.03,0.57,-0,0,-1,0.77,4688,20,45,27,69,846,0.0,595,467,60,130.0,0,1,247,323,57,0,0,0,250,250,0,-5.59,,,,,,,,,,,,
58303,1564322763557,1,2.27,1.41,0.74,2.36,1.98,0.78,0.01,0.57,-0,0,0,0.78,4646,20,45,27,69,847,0.0,592,467,60,130.0,0,1,244,322,57,0,0,0,250,250,0,-5.59,,,,,,,,,,,,
58323,1564322763577,0,2.28,1.4,0.75,2.36,1.98,0.8,-0.0,0.59,-0,-0,1,0.8,4652,20,45,27,68,847,0.0,591,457,60,130.0,0,1,244,323,56,0,0,0,250,250,0,-5.59,,,,,,,,,,,,
58343,1564322763597,1,2.27,1.41,0.75,2.36,1.98,0.83,0.02,0.61,-0,-1,1,0.83,4663,20,45,27,68,847,0.0,592,453,60,130.0,0,1,245,319,56,0,0,0,250,250,0,-5.59,44.68095,10.01946,0.0,181.5,0,0.0,-1,0.0,0.0,0,0.0,0.9724
58363,1564322763617,2,2.28,1.41,0.74,2.35,1.98,0.83,0.02,0.62,0,-1,0,0.83,4699,20,45,27,68,847,0.0,591,462,60,131.0,0,1,248,319,56,0,0,0,250,250,0,-5.59,,,,,,,,,,,,
58383,1564322763637,3,2.27,1.4,0.75,2.35,1.99,0.79,0.03,0.64,0,-1,-0,0.79,4709,20,45,27,68,847,0.0,595,461,60,132.0,0,1,249,320,56,0,0,0,250,250,0,-5.59,,,,,,,,,,,,
58403,1564322763657,-0,2.28,1.41,0.74,2.36,1.98,0.73,0.04,0.66,0,-1,-0,0.74,4685,20,45,27,68,846,0.0,592,458,60,131.0,0,1,247,319,56,0,0,0,250,250,0,-5.59,,,,,,,,,,,,
58423,1564322763677,0,2.28,1.41,0.74,2.35,1.98,0.73,0.04,0.64,0,-1,-1,0.73,4681,20,45,27,68,846,0.0,592,466,60,131.0,0,1,247,319,57,0,0,0,250,250,0,-5.59,,,,,,,,,,,,
58443,1564322763696,0,2.27,1.4,0.74,2.36,1.98,0.73,0.03,0.64,-0,-1,-0,0.73,4683,20,45,27,69,846,0.0,595,467,60,129.0,0,1,246,323,57,0,0,0,250,250,0,-5.59,44.68095,10.01946,0.0,181.5,0,0.0,-1,0.0,0.0,0,0.0,0.974
58463,1564322763716,-1,2.27,1.41,0.74,2.36,1.98,0.75,0.02,0.65,0,-1,-0,0.75,4705,20,45,27,69,849,0.0,595,467,60,130.0,0,1,249,323,57,0,0,0,250,250,0,-5.59,,,,,,,,,,,,
58483,1564322763736,-1,2.27,1.4,0.74,2.35,1.98,0.79,0.03,0.61,0,-1,1,0.79,4661,20,45,27,68,853,0.0,593,460,60,129.0,0,1,245,323,57,0,0,0,250,250,0,-5.59,,,,,,,,,,,,
58503,1564322763756,0,2.28,1.41,0.74,2.35,1.98,0.82,0.05,0.58,0,-1,1,0.82,4686,20,45,27,68,856,0.0,593,460,60,129.0,0,1,247,323,57,0,0,0,250,250,0,-5.59,,,,,,,,,,,,
58523,1564322763776,1,2.28,1.4,0.73,2.35,1.98,0.82,0.08,0.57,0,-1,0,0.83,4647,20,45,27,68,860,0.0,588,461,60,131.0,0,1,244,318,57,0,0,0,250,250,0,-5.59,,,,,,,,,,,,
58543,1564322763796,3,2.27,1.4,0.74,2.36,1.98,0.8,0.09,0.59,0,0,-1,0.81,4714,20,45,27,68,861,0.0,589,462,60,132.0,0,1,249,320,57,0,0,0,250,250,0,-5.59,44.68095,10.01946,0.0,181.5,0,0.0,-1,0.0,0.0,0,0.0,0.9757
58563,1564322763816,-0,2.27,1.41,0.73,2.36,1.97,0.79,0.07,0.61,0,1,-2,0.79,4748,20,45,27,69,861,0.0,593,465,60,131.0,0,1,252,320,57,0,0,0,250,250,0,-5.59,,,,,,,,,,,,
58583,1564322763836,-2,2.27,1.4,0.74,2.35,1.98,0.79,0.05,0.6,0,-1,-1,0.79,4754,20,45,27,69,859,0.0,592,466,60,130.0,0,1,253,325,57,0,0,0,250,250,0,-5.59,,,,,,,,,,,,
58603,1564322763856,-2,2.28,1.41,0.74,2.36,1.98,0.82,0.03,0.59,-0,-1,-0,0.82,4754,20,45,27,69,856,0.0,598,466,60,129.0,0,1,253,325,57,0,0,0,250,250,0,-5.59,,,,,,,,,,,,
58623,1564322763876,-0,2.26,1.4,0.73,2.36,1.97,0.85,-0.0,0.58,-0,-3,1,0.85,4705,20,45,27,69,853,0.0,594,466,60,129.0,0,1,249,324,57,0,0,0,250,250,0,-5.59,,,,,,,,,,,,
58643,1564322763896,2,2.27,1.4,0.74,2.35,1.98,0.85,0.01,0.57,0,-3,1,0.85,4757,20,45,27,68,851,0.0,598,460,60,130.0,0,1,253,321,57,0,0,0,250,250,0,-5.59,44.68095,10.01946,0.0,181.5,0,0.0,-1,0.0,0.0,0,0.0,0.9774
58663,1564322763916,3,2.27,1.4,0.73,2.35,1.99,0.83,0.04,0.6,0,-2,-0,0.83,4769,20,45,27,68,851,0.0,596,456,60,132.0,0,1,254,321,57,0,0,0,250,250,0,-5.59,,,,,,,,,,,,
58683,1564322763936,-2,2.27,1.4,0.74,2.35,1.97,0.78,0.04,0.63,0,-2,-0,0.78,4783,20,45,27,68,851,0.0,594,462,60,131.0,0,1,255,321,57,0,0,0,250,250,0,-5.59,,,,,,,,,,,,
58703,1564322763956,-1,2.27,1.4,0.74,2.36,1.97,0.78,0.05,0.6,0,-2,-0,0.78,4750,20,45,27,69,851,0.0,593,471,60,130.0,0,1,253,325,57,0,0,0,250,250,0,-5.59,,,,,,,,,,,,
58723,1564322763976,-2,2.27,1.41,0.73,2.36,1.98,0.78,0.03,0.61,-0,-3,1,0.78,4722,20,45,27,68,850,0.0,594,467,60,130.0,0,1,250,321,58,0,0,0,250,250,0,-5.59,,,,,,,,,,,,
58743,1564322763996,-2,2.27,1.4,0.74,2.36,1.97,0.82,-0.0,0.61,-0,-3,1,0.82,4749,20,45,27,68,849,0.0,594,463,60,130.0,0,1,252,324,58,0,0,0,250,250,0,-5.59,44.68095,10.01946,0.0,181.5,0,0.0,-1,0.0,0.0,0,0.0,0.979
58763,1564322764010,2,2.28,1.4,0.74,2.36,1.98,0.83,0.02,0.59,0,-3,1,0.83,4755,20,45,27,68,848,0.0,595,457,60,130.0,0,1,253,321,58,0,0,0,250,250,0,-5.59,,,,,,,,,,,,
58783,1564322764030,4,2.28,1.41,0.73,2.36,1.98,0.81,0.02,0.6,0,-3,-0,0.81,4739,20,45,27,69,847,0.0,591,462,60,132.0,0,1,252,320,58,0,0,0,250,250,0,-5.59,,,,,,,,,,,,
58803,1564322764050,-2,2.28,1.4,0.74,2.36,1.97,0.77,0.02,0.63,0,-2,-1,0.77,4733,20,45,27,69,846,0.0,594,467,60,131.0,0,1,251,324,58,0,0,0,250,250,0,-5.59,,,,,,,,,,,,
58823,1564322764070,-0,2.27,1.41,0.73,2.35,1.97,0.75,0.01,0.63,0,-2,-0,0.75,4714,20,45,27,69,846,0.0,596,468,60,131.0,0,1,249,324,57,0,0,0,250,250,0,-5.59,,,,,,,,,,,,
58843,1564322764098,-1,2.27,1.41,0.73,2.36,1.98,0.74,0.01,0.66,-0,-2,-0,0.74,4682,20,45,27,69,847,0.0,593,467,60,131.0,0,1,247,323,57,0,0,0,250,250,0,-5.59,44.680935,10.019468,2.16,179.0,0,0.0,-1,0.0,0.0,0,0.0,0.9807
58863,1564322764118,-0,2.27,1.41,0.73,2.35,1.98,0.76,-0.0,0.67,-0,-3,0,0.76,4692,20,45,27,69,847,0.0,595,470,60,129.0,0,1,248,323,57,0,0,0,250,250,0,-5.59,,,,,,,,,,,,
58883,1564322764138,-1,2.28,1.41,0.73,2.36,1.97,0.77,-0.01,0.6,-0,-2,1,0.77,4726,20,45,27,69,848,0.0,594,463,60,129.0,0,1,250,324,57,0,0,0,250,250,0,-5.59,,,,,,,,,,,,
58903,1564322764158,1,2.28,1.4,0.73,2.35,1.98,0.8,0.01,0.61,-0,-1,1,0.8,4687,20,45,27,68,849,0.0,592,457,60,130.0,0,1,247,319,57,0,0,0,250,250,0,-5.59,,,,,,,,,,,,
58923,1564322764178,2,2.28,1.41,0.73,2.36,1.98,0.78,0.04,0.61,0,0,1,0.78,4731,20,45,27,68,849,0.0,590,460,60,132.0,0,1,251,320,58,0,0,0,250,250,0,-5.59,,,,,,,,,,,,
58943,1564322764198,3,2.28,1.41,0.73,2.36,1.97,0.75,0.05,0.63,0,1,-1,0.75,4676,20,45,27,68,848,0.0,588,460,60,132.0,0,1,246,319,58,0,0,0,250,250,0,-5.59,44.680935,10.019468,0.0,179.0,0,0.0,-1,0.0,0.0,0,0.0,0.9824
58963,1564322764218,-2,2.28,1.41,0.73,2.35,1.98,0.73,0.04,0.6,0,1,-1,0.73,4705,20,45,27,68,846,0.0,592,463,60,131.0,0,1,249,320,58,0,0,0,250,250,0,-5.59,,,,,,,,,,,,
58983,1564322764238,-2,2.27,1.41,0.73,2.35,1.98,0.76,0.05,0.57,0,1,-1,0.76,4694,20,45,27,69,843,0.0,594,470,60,130.0,0,1,245,323,58,0,0,0,250,250,0,-5.59,,,,,,,,,,,,
59003,1564322764258,-2,2.28,1.41,0.72,2.36,1.98,0.78,0.03,0.59,-0,-0,-0,0.78,4673,20,45,27,69,840,0.0,592,463,60,129.0,0,1,244,323,58,0,0,0,250,250,0,-5.59,,,,,,,,,,,,
59023,1564322764278,-1,2.27,1.4,0.73,2.35,1.98,0.83,-0.01,0.64,-0,-2,1,0.83,4660,20,45,27,69,839,0.0,595,462,60,128.0,0,1,245,323,56,0,0,0,250,250,0,-5.59,,,,,,,,,,,,
59043,1564322764298,-0,2.27,1.41,0.72,2.36,1.98,0.87,-0.0,0.63,-0,-4,1,0.87,4638,20,45,27,68,838,0.0,592,457,60,130.0,0,1,243,322,56,0,0,0,250,250,0,-5.59,44.680935,10.019468,0.0,179.0,0,0.0,-1,0.0,0.0,0,0.0,0.984
59063,1564322764318,-1,2.28,1.41,0.73,2.36,1.97,0.87,0.02,0.61,-0,-4,1,0.87,4669,20,45,27,68,838,0.0,595,460,60,128.0,0,1,246,319,56,0,0,0,250,250,0,-5.59,,,,,,,,,,,,
59083,1564322764338,3,2.27,1.4,0.72,2.35,1.98,0.86,0.02,0.62,0,-4,1,0.86,4657,20,45,27,68,840,0.0,593,456,60,131.0,0,1,245,319,56,0,0,0,250,250,0,-5.59,,,,,,,,,,,,
59103,1564322764358,3,2.28,1.4,0.73,2.36,1.98,0.82,0.04,0.65,0,-2,1,0.83,4676,20,45,27,68,842,0.0,595,458,60,130.0,0,1,246,319,56,0,0,0,250,250,0,-5.59,,,,,,,,,,,,
59123,1564322764378,5,2.27,1.41,0.73,2.35,1.98,0.78,0.04,0.66,0,-0,-0,0.79,4659,20,45,27,68,845,0.0,595,458,60,132.0,0,1,245,319,56,0,0,0,250,250,0,-5.59,,,,,,,,,,,,
59143,1564322764398,-1,2.27,1.41,0.73,2.35,1.99,0.73,0.05,0.65,0,0,-0,0.73,4685,20,45,27,68,847,0.0,592,468,60,131.0,0,1,247,319,56,0,0,0,250,250,0,-5.59,44.680935,10.019468,0.0,179.0,0,0.0,-1,0.0,0.0,0,0.0,0.9857
59163,1564322764418,-1,2.27,1.4,0.72,2.37,1.99,0.74,0.06,0.61,0,1,-1,0.75,4675,20,45,27,69,848,0.0,592,469,60,131.0,0,1,246,319,56,0,0,0,250,250,0,-5.59,,,,,,,,,,,,
59183,1564322764438,-1,2.27,1.41,0.72,2.36,1.98,0.77,0.04,0.61,-0,0,-0,0.77,4719,20,45,27,68,849,0.0,595,465,60,129.0,0,1,250,324,56,0,0,0,250,250,0,-5.59,,,,,,,,,,,,
59203,1564322764458,-1,2.27,1.41,0.72,2.36,1.98,0.81,0.0,0.62,-0,-0,1,0.81,4739,20,45,27,69,851,0.0,592,465,60,129.0,0,1,252,324,56,0,0,0,250,250,0,-5.59,,,,,,,,,,,,
59223,1564322764478,2,2.28,1.4,0.72,2.35,1.98,0.84,0.03,0.57,0,-1,0,0.84,4766,20,45,27,69,853,0.0,593,465,60,130.0,0,1,254,325,58,0,0,0,250,250,0,-5.59,,,,,,,,,,,,
59243,1564322764498,4,2.26,1.41,0.72,2.36,1.97,0.83,0.04,0.58,0,-1,-1,0.83,4778,20,45,27,68,854,0.0,593,460,60,132.0,0,1,255,321,58,0,0,0,250,250,0,-5.59,44.680935,10.019468,0.0,179.0,0,0.0,-1,0.0,0.0,0,0.0,0.9874
59263,1564322764518,-2,2.28,1.41,0.72,2.36,1.97,0.79,0.03,0.6,0,-0,-1,0.79,4756,20,45,27,69,854,0.0,595,467,60,131.0,0,1,253,321,58,0,0,0,250,250,0,-5.59,,,,,,,,,,,,
59283,1564322764538,-2,2.28,1.41,0.71,2.37,1.98,0.78,0.03,0.59,-0,-0,-1,0.78,4746,20,45,27,69,854,0.0,596,467,60,130.0,0,1,252,324,58,0,0,0,250,250,0,-5.59,,,,,,,,,,,,
59303,1564322764558,-3,2.28,1.41,0.72,2.36,1.98,0.8,0.02,0.63,-0,-2,-0,0.8,4736,20,45,27,69,854,0.0,595,466,60,129.0,0,1,251,324,58,0,0,0,250,250,0,-5.59,,,,,,,,,,,,
59323,1564322764578,-1,2.27,1.41,0.72,2.36,1.98,0.84,0.01,0.64,-0,-3,0,0.84,4739,20,45,27,68,853,0.0,596,464,60,130.0,0,1,252,320,57,0,0,0,250,250,0,-5.59,,,,,,,,,,,,
59343,1564322764598,3,2.27,1.41,0.72,2.35,1.98,0.85,0.02,0.61,-0,-3,0,0.85,4740,20,45,27,68,853,0.0,595,458,60,130.0,0,1,252,320,57,0,0,0,250,250,0,-5.59,44.680935,10.019468,0.0,179.0,0,0.0,-1,0.0,0.0,0,0.0,0.989
59363,1564322764618,3,2.27,1.41,0.72,2.36,1.98,0.85,0.03,0.64,0,-3,0,0.85,4758,20,45,27,68,850,0.0,590,458,60,132.0,0,1,253,321,57,0,0,0,250,250,0,-5.59,,,,,,,,,,,,
59383,1564322764638,-1,2.28,1.4,0.72,2.36,1.98,0.79,0.03,0.67,-0,-1,-0,0.79,4744,20,45,27,68,847,0.0,594,465,60,132.0,0,1,252,320,57,0,0,0,250,250,0,-5.59,,,,,,,,,,,,
59403,1564322764658,-1,2.27,1.41,0.72,2.35,1.98,0.76,0.03,0.68,-0,-1,-1,0.77,4761,20,45,27,69,844,0.0,595,466,60,130.0,0,1,253,325,57,0,0,0,250,250,0,181.28,,,,,,,,,,,,
59423,1564322764678,-1,2.27,1.4,0.72,2.36,1.98,0.78,0.03,0.66,-0,-1,-0,0.78,4823,20,45,27,68,841,0.0,596,465,60,130.0,0,1,259,322,58,0,0,0,250,250,0,-5.59,,,,,,,,,,,,
59443,1564322764697,1,2.27,1.41,0.71,2.36,1.98,0.8,0.02,0.61,-0,-0,0,0.8,4789,20,45,27,68,839,0.0,598,463,60,128.0,0,1,256,321,58,0,0,0,250,250,0,-5.59,44.680935,10.019468,0.0,179.0,0,0.0,-1,0.0,0.0,0,0.0,0.9907
59463,1564322764717,3,2.27,1.41,0.72,2.36,1.98,0.82,0.04,0.61,-0,-0,0,0.82,4772,20,45,27,68,838,0.0,592,456,60,131.0,0,1,254,321,58,0,0,0,250,250,0,-5.59,,,,,,,,,,,,
59483,1564322764737,-2,2.28,1.41,0.72,2.36,1.97,0.78,0.06,0.62,0,2,-0,0.78,4781,20,45,27,69,838,0.0,593,464,60,131.0,0,1,255,321,58,0,0,0,250,250,0,-5.59,,,,,,,,,,,,
59503,1564322764757,-0,2.27,1.41,0.72,2.36,1.97,0.75,0.05,0.63,-0,2,-1,0.75,4766,20,45,27,69,839,0.0,593,468,60,130.0,0,1,254,325,58,0,0,0,250,250,0,-5.59,,,,,,,,,,,,
59523,1564322764777,-2,2.28,1.41,0.72,2.36,1.97,0.76,0.04,0.62,-0,2,-0,0.76,4803,20,45,27,69,839,0.0,595,467,60,130.0,0,1,257,326,58,0,0,0,250,250,0,-5.59,,,,,,,,,,,,
59543,1564322764797,-2,2.27,1.41,0.72,2.36,1.97,0.79,0.02,0.59,-0,2,0,0.79,4754,20,45,27,68,838,0.0,598,462,60,130.0,0,1,253,325,58,0,0,0,250,250,0,-5.59,44.680935,10.019468,0.0,179.0,0,0.0,-1,0.0,0.0,0,0.0,0.9924
59563,1564322764817,2,2.27,1.41,0.72,2.36,1.97,0.82,0.03,0.59,0,2,0,0.82,4774,20,45,27,68,837,0.0,595,457,60,131.0,0,1,255,321,58,0,0,0,250,250,0,-5.59,,,,,,,,,,,,
59583,1564322764837,3,2.28,1.4,0.72,2.36,1.98,0.81,0.06,0.6,0,2,-1,0.81,4780,20,45,27,68,835,0.0,595,463,60,132.0,0,1,255,321,58,0,0,0,250,250,0,-5.59,,,,,,,,,,,,
59603,1564322764857,-1,2.27,1.41,0.72,2.35,1.98,0.77,0.04,0.63,0,3,-1,0.77,4778,20,45,27,69,833,0.0,595,465,60,131.0,0,1,255,325,58,0,0,0,250,250,0,-5.59,,,,,,,,,,,,
59623,1564322764877,-3,2.27,1.4,0.71,2.36,1.98,0.75,0.02,0.62,-0,2,-1,0.75,4769,20,45,27,69,830,0.0,595,471,60,129.0,0,1,254,326,58,0,0,0,250,250,0,-5.59,,,,,,,,,,,,
59643,1564322764897,-1,2.28,1.41,0.72,2.35,1.98,0.79,0.01,0.61,-0,2,-0,0.79,4761,20,45,27,69,829,0.0,594,467,60,128.0,0,1,253,325,58,0,0,0,250,250,0,-5.59,44.680935,10.019468,0.0,179.0,0,0.0,-1,0.0,0.0,0,0.0,0.994
59663,1564322764917,-1,2.28,1.41,0.72,2.36,1.98,0.83,-0.01,0.6,-0,0,1,0.83,4745,20,45,27,68,828,0.0,592,458,60,129.0,0,1,252,320,58,0,0,0,250,250,0,-5.59,,,,,,,,,,,,
59683,1564322764937,4,2.27,1.4,0.71,2.35,1.98,0.85,0.02,0.59,0,-0,-0,0.85,4786,20,45,27,68,829,0.0,591,458,60,130.0,0,1,256,321,58,0,0,0,250,250,0,-5.59,,,,,,,,,,,,
59703,1564322764957,-1,2.28,1.41,0.71,2.35,1.98,0.81,0.03,0.63,-0,0,-1,0.81,4778,20,45,27,68,831,0.0,593,456,60,132.0,0,1,255,321,58,0,0,0,250,250,0,-5.59,,,,,,,,,,,,
59723,1564322764977,-2,2.27,1.41,0.72,2.35,1.98,0.74,0.01,0.66,-0,-0,-1,0.74,4774,20,45,27,69,832,0.0,596,470,60,131.0,0,1,255,325,58,0,0,0,250,250,0,-5.59,,,,,,,,,,,,
59743,1564322764997,0,2.27,1.4,0.72,2.36,1.98,0.74,0.02,0.63,-0,-0,-1,0.74,4727,20,45,27,69,834,0.0,596,468,60,130.0,0,1,252,324,58,0,0,0,250,250,0,-5.59,44.680935,10.019468,0.0,179.0,0,0.0,-1,0.0,0.0,0,0.0,0.9957
59763,1564322765009,-2,2.28,1.41,0.71,2.37,1.98,0.75,-0.01,0.63,-0,-1,1,0.75,4720,20,45,27,68,834,0.0,594,461,60,129.0,0,1,250,324,58,0,0,0,250,250,0,-5.59,,,,,,,,,,,,
59783,1564322765029,2,2.27,1.4,0.71,2.36,1.97,0.79,-0.01,0.63,-0,-2,1,0.79,4720,20,45,27,68,832,0.0,590,458,60,130.0,0,1,250,320,58,0,0,0,250,250,0,-5.59,,,,,,,,,,,,
59803,1564322765049,1,2.28,1.41,0.72,2.36,1.97,0.83,0.02,0.6,-0,-1,1,0.83,4703,20,45,27,69,831,0.0,592,462,60,132.0,0,1,249,324,58,0,0,0,250,250,0,-5.59,,,,,,,,,,,,
59823,1564322765069,5,2.27,1.41,0.72,2.35,1.98,0.81,0.02,0.59,0,-0,0,0.81,4712,20,45,27,69,827,0.0,590,462,60,131.0,0,1,249,320,58,0,0,0,250,250,0,-5.59,,,,,,,,,,,,
59843,1564322765097,-0,2.27,1.41,0.72,2.36,1.97,0.77,0.03,0.59,0,1,-1,0.77,4707,20,45,27,69,824,0.0,591,470,60,131.0,0,1,249,324,58,0,0,0,250,250,0,-5.59,44.680935,10.019468,0.0,179.0,0,0.0,-1,0.0,0.0,0,0.0,0.9974
59863,1564322765117,-1,2.28,1.4,0.71,2.36,1.98,0.75,0.03,0.57,-0,1,-1,0.75,4711,20,45,27,69,822,0.0,591,464,60,130.0,0,1,249,324,58,0,0,0,250,250,0,-5.59,,,,,,,,,,,,
59883,1564322765137,-1,2.27,1.41,0.71,2.36,1.98,0.77,0.02,0.59,-0,0,-1,0.77,4672,20,45,27,69,820,0.0,595,465,60,130.0,0,1,246,323,58,0,0,0,250,250,0,-5.59,,,,,,,,,,,,
59903,1564322765157,-1,2.28,1.4,0.71,2.36,1.98,0.81,-0.0,0.6,-0,-0,1,0.81,4679,20,45,27,69,821,0.0,595,466,60,129.0,0,1,247,323,58,0,0,0,250,250,0,-5.59,,,,,,,,,,,,
59923,1564322765177,1,2.28,1.41,0.71,2.36,1.98,0.85,0.0,0.6,-0,-1,1,0.85,4695,20,45,27,69,822,0.0,596,463,60,128.0,0,1,248,323,57,0,0,0,250,250,0,-5.59,,,,,,,,,,,,
59943,1564322765197,2,2.27,1.41,0.71,2.37,1.98,0.88,0.01,0.6,0,-2,1,0.88,4695,20,45,27,68,826,0.0,592,453,60,131.0,0,1,248,319,57,0,0,0,250,250,0,-5.59,44.680935,10.019468,0.0,179.0,0,0.0,-1,0.0,0.0,0,0.0,0.999
59963,1564322765217,3,2.27,1.41,0.71,2.37,1.97,0.88,0.03,0.6,0,-2,-0,0.88,4714,20,45,27,68,829,0.0,596,460,60,130.0,0,1,249,320,57,0,0,0,250,250,0,-5.59,,,,,,,,,,,,
59983,1564322765237,3,2.28,1.4,0.71,2.36,1.98,0.84,0.03,0.63,0,-1,-1,0.84,4679,20,45,27,69,831,0.0,595,463,60,131.0,0,1,247,319,57,0,0,0,250,250,0,-5.59,,,,,,,,,,,,
60003,1564322765257,-1,2.27,1.41,0.72,2.35,1.98,0.76,0.02,0.68,-0,-1,-1,0.76,4700,20,45,27,68,833,0.0,593,460,60,131.0,0,1,248,320,57,0,0,0,250,250,0,-5.59,,,,,,,,,,,,
60023,1564322765277,-1,2.27,1.41,0.72,2.35,1.98,0.73,0.03,0.66,-0,-1,-1,0.73,4659,20,45,27,68,837,0.0,594,464,60,130.0,0,1,245,319,56,0,0,0,250,250,0,-5.59,,,,,,,,,,,,
60043,1564322765297,-1,2.27,1.41,0.71,2.36,1.98,0.71,0.04,0.65,-0,-1,-0,0.71,4713,20,45,27,68,841,0.0,593,466,60,129.0,0,1,249,324,56,0,0,0,250,250,0,-5.59,44.680935,10.019468,0.0,179.0,0,0.0,-1,0.0,0.0,0,0.0,1.0007
60063,1564322765317,-3,2.28,1.41,0.71,2.36,1.97,0.74,-0.0,0.67,-0,-2,0,0.74,4722,20,45,27,68,843,0.0,593,462,60,129.0,0,1,250,324,56,0,0,0,250,250,0,-5.59,,,,,,,,,,,,
60083,1564322765337,1,2.27,1.41,0.71,2.35,1.98,0.79,-0.0,0.63,-0,-2,1,0.79,4718,20,45,27,68,845,0.0,594,463,60,129.0,0,1,250,320,56,0,0,0,250,250,0,-5.59,,,,,,,,,,,,
60103,1564322765357,3,2.28,1.41,0.71,2.35,1.98,0.81,0.03,0.6,0,-1,0,0.82,4743,20,45,27,68,849,0.0,592,456,60,131.0,0,1,252,320,56,0,0,0,250,250,0,-5.59,,,,,,,,,,,,
60123,1564322765377,-2,2.26,1.4,0.7,2.35,1.98,0.81,0.04,0.63,0,-1,-1,0.81,4757,20,45,27,68,852,0.0,594,463,60,132.0,0,1,253,321,58,0,0,0,250,250,0,-5.59,,,,,,,,,,,,
60143,1564322765397,-1,2.27,1.4,0.71,2.35,1.97,0.76,0.04,0.62,0,0,-1,0.76,4756,20,46,27,69,853,0.0,596,469,60,131.0,0,1,253,325,58,0,0,0,250,250,0,-5.59,44.680935,10.019468,0.0,179.0,0,0.0,-1,0.0,0.0,0,0.0,1.0024
60163,1564322765417,-1,2.28,1.4,0.71,2.34,1.97,0.77,0.04,0.62,-0,-0,-1,0.77,4733,20,46,27,69,854,0.0,596,467,60,130.0,0,1,251,324,58,0,0,0,250,250,0,181.28,,,,,,,,,,,,
60183,1564322765437,-1,2.28,1.4,0.71,2.34,1.97,0.81,0.02,0.61,-0,-1,0,0.81,4718,20,46,27,69,855,0.0,594,464,60,128.0,0,1,250,324,58,0,0,0,250,250,0,-5.59,,,,,,,,,,,,
60203,1564322765457,1,2.27,1.4,0.71,2.34,1.97,0.84,0.02,0.6,-0,-1,1,0.84,4750,20,46,27,69,857,0.0,594,462,60,129.0,0,1,253,325,58,0,0,0,250,250,0,-5.59,,,,,,,,,,,,
60223,1564322765477,3,2.28,1.4,0.71,2.34,1.97,0.86,0.02,0.61,0,-2,-0,0.86,4744,20,46,27,68,858,0.0,590,456,60,130.0,0,1,252,320,58,0,0,0,250,250,0,-5.59,,,,,,,,,,,,
60243,1564322765497,4,2.27,1.41,0.7,2.34,1.96,0.85,0.04,0.62,0,-2,-1,0.85,4744,20,46,27,69,859,0.0,590,461,60,131.0,0,1,252,320,58,0,0,0,250,250,0,-5.59,44.680935,10.019468,0.0,179.0,0,0.0,-1,0.0,0.0,0,0.0,1.0041
60263,1564322765517,0,2.27,1.4,0.7,2.33,1.96,0.79,0.02,0.65,-0,-1,-1,0.79,4730,20,46,27,69,858,0.0,590,462,60,132.0,0,1,251,320,58,0,0,0,250,250,0,-5.59,,,,,,,,,,,,
60283,1564322765537,-1,2.27,1.4,0.7,2.33,1.96,0.73,0.01,0.67,-0,-1,-1,0.73,4658,20,46,27,69,857,0.0,593,471,60,130.0,0,1,245,323,58,0,0,0,250,250,0,-5.59,,,,,,,,,,,,
60303,1564322765557,-2,2.28,1.4,0.71,2.34,1.96,0.72,0.03,0.65,-0,-1,-1,0.72,4686,20,46,27,69,855,0.0,595,468,60,130.0,0,1,247,322,58,0,0,0,250,250,0,-5.59,,,,,,,,,,,,
60323,1564322765577,-1,2.28,1.4,0.7,2.33,1.96,0.72,0.02,0.65,-0,-2,0,0.72,4683,20,46,27,69,853,0.0,593,462,60,128.0,0,1,247,323,57,0,0,0,250,250,0,-5.59,,,,,,,,,,,,
60343,1564322765595,-1,2.27,1.4,0.7,2.32,1.96,0.75,-0.01,0.66,-0,-2,1,0.75,4685,20,46,27,69,850,0.0,596,461,60,130.0,0,1,247,323,57,0,0,0,250,250,0,-5.59,44.680935,10.019468,0.0,179.0,0,0.0,-1,0.0,0.0,0,0.0,1.0057
60363,1564322765615,-0,2.28,1.4,0.7,2.33,1.97,0.81,0.0,0.62,-0,-2,1,0.81,4657,20,46,27,68,846,0.0,592,456,60,130.0,0,1,245,323,57,0,0,0,250,250,0,-5.59,,,,,,,,,,,,
60383,1564322765635,4,2.27,1.4,0.69,2.33,1.96,0.84,0.04,0.59,0,-2,1,0.84,4687,20,46,27,68,843,0.0,594,456,60,131.0,0,1,247,319,57,0,0,0,250,250,0,-5.59,,,,,,,,,,,,
60403,1564322765655,2,2.28,1.4,0.7,2.33,1.96,0.85,0.05,0.6,0,-1,-1,0.85,4683,20,46,27,69,840,0.0,593,464,60,131.0,0,1,247,319,57,0,0,0,250,250,0,-5.59,,,,,,,,,,,,
60423,1564322765675,0,2.27,1.4,0.7,2.33,1.97,0.8,0.05,0.63,-0,-0,-2,0.8,4737,20,46,27,69,838,0.0,594,462,60,131.0,0,1,251,320,57,0,0,0,250,250,0,-5.59,,,,,,,,,,,,
60443,1564322765696,-2,2.28,1.4,0.69,2.33,1.96,0.77,0.03,0.63,-0,-0,-1,0.77,4763,20,46,27,69,836,0.0,595,461,60,131.0,0,1,254,321,57,0,0,0,250,250,0,-5.59,44.680935,10.019468,0.0,179.0,0,0.0,-1,0.0,0.0,0,0.0,1.0074
60463,1564322765716,-2,2.27,1.4,0.7,2.32,1.96,0.77,0.02,0.63,-0,-1,-0,0.77,4779,20,46,27,69,834,0.0,598,467,60,129.0,0,1,255,325,57,0,0,0,250,250,0,-5.59,,,,,,,,,,,,
60483,1564322765736,-2,2.25,1.4,0.69,2.33,1.96,0.79,0.0,0.63,-0,-2,0,0.79,4754,20,46,27,68,835,0.0,593,462,60,130.0,0,1,253,325,57,0,0,0,250,250,0,-5.59,,,,,,,,,,,,
60503,1564322765756,3,2.27,1.4,0.7,2.34,1.95,0.82,-0.0,0.63,-0,-2,-0,0.82,4740,20,46,27,68,836,0.0,593,454,60,131.0,0,1,252,320,57,0,0,0,250,250,0,-5.59,,,,,,,,,,,,
60523,1564322765776,3,2.27,1.4,0.69,2.33,1.96,0.83,0.02,0.62,0,-2,-1,0.83,4733,20,46,27,69,838,0.0,593,464,60,131.0,0,1,251,320,57,0,0,0,250,250,0,-5.59,,,,,,,,,,,,
60543,1564322765796,-1,2.26,1.4,0.69,2.33,1.96,0.78,0.03,0.64,-0,-1,-1,0.79,4707,20,46,27,69,840,0.0,593,463,60,131.0,0,1,249,320,57,0,0,0,250,250,0,-5.59,44.680935,10.019468,0.0,179.0,0,0.0,-1,0.0,0.0,0,0.0,1.0091
60563,1564322765816,-1,2.27,1.41,0.7,2.33,1.95,0.72,0.03,0.65,-0,-1,-1,0.72,4702,20,46,27,69,842,0.0,595,470,60,131.0,0,1,248,324,57,0,0,0,250,250,0,-5.59,,,,,,,,,,,,
60583,1564322765836,-1,2.27,1.4,0.7,2.32,1.96,0.7,0.03,0.63,-0,-1,-1,0.71,4699,20,46,27,68,842,0.0,593,470,60,130.0,0,1,248,319,57,0,0,0,250,250,0,-5.59,,,,,,,,,,,,
60603,1564322765856,-0,2.28,1.41,0.69,2.33,1.96,0.7,0.02,0.64,-0,-1,0,0.7,4699,20,46,27,69,841,0.0,595,461,60,129.0,0,1,248,323,57,0,0,0,250,250,0,-5.59,,,,,,,,,,,,
60623,1564322765876,1,2.27,1.4,0.7,2.33,1.96,0.73,0.0,0.64,-0,-1,1,0.73,4694,20,46,27,68,840,0.0,592,459,60,130.0,0,1,248,323,56,0,0,0,250,250,0,-5.59,,,,,,,,,,,,
60643,1564322765898,2,2.27,1.41,0.7,2.33,1.96,0.79,0.03,0.61,-0,-0,0,0.79,4686,20,46,27,68,837,0.0,592,458,60,130.0,0,1,247,323,56,0,0,0,250,250,0,-5.59,44.680935,10.019468,0.0,179.0,0,0.0,-1,0.0,0.0,0,0.0,1.0107
60663,1564322765918,3,2.26,1.41,0.7,2.33,1.96,0.82,0.07,0.58,0,0,-0,0.83,4728,20,46,27,69,836,0.0,593,461,60,132.0,0,1,251,320,56,0,0,0,250,250,0,-5.59,,,,,,,,,,,,
60683,1564322765938,0,2.27,1.41,0.7,2.33,1.97,0.82,0.07,0.62,0,0,-2,0.82,4705,20,46,27,68,836,0.0,588,461,60,132.0,0,1,249,320,56,0,0,0,250,250,0,-5.59,,,,,,,,,,,,
60703,1564322765958,-0,2.27,1.4,0.69,2.33,1.96,0.79,0.06,0.6,-0,1,-2,0.79,4751,20,46,27,69,837,0.0,591,462,60,131.0,0,1,253,325,56,0,0,0,250,250,0,-5.59,,,,,,,,,,,,
60723,1564322765978,1,2.27,1.4,0.69,2.33,1.96,0.78,0.04,0.6,-0,-0,-1,0.78,4779,20,46,27,69,840,0.0,597,466,60,130.0,0,1,255,325,58,0,0,0,250,250,0,-5.59,,,,,,,,,,,,
60743,1564322765998,1,2.27,1.4,0.7,2.33,1.97,0.84,0.04,0.58,-0,-1,0,0.84,4777,20,46,27,69,843,0.0,595,461,60,129.0,0,1,255,325,58,0,0,0,250,250,0,-5.59,44.680935,10.019468,0.0,179.0,0,0.0,-1,0.0,0.0,0,0.0,1.0124
60763,1564322766010,3,2.27,1.41,0.7,2.34,1.97,0.87,0.06,0.57,-0,-2,0,0.87,4750,20,46,27,68,846,0.0,596,461,60,130.0,0,1,253,325,58,0,0,0,250,250,0,-5.59,,,,,,,,,,,,
60783,1564322766030,5,2.27,1.41,0.7,2.33,1.96,0.86,0.07,0.61,0,-2,-1,0.86,4737,20,46,27,68,849,0.0,592,461,60,132.0,0,1,251,320,58,0,0,0,250,250,0,-5.59,,,,,,,,,,,,
60803,1564322766050,0,2.27,1.41,0.7,2.32,1.97,0.81,0.06,0.61,-0,-2,-1,0.82,4751,20,46,27,69,849,0.0,595,464,60,131.0,0,1,253,321,58,0,0,0,250,250,0,-5.59,,,,,,,,,,,,
60823,1564322766070,-1,2.28,1.4,0.7,2.33,1.96,0.8,0.05,0.61,-0,-2,-1,0.8,4743,20,46,27,69,848,0.0,595,468,60,131.0,0,1,252,324,58,0,0,0,250,250,0,-5.59,,,,,,,,,,,,
60843,1564322766098,-1,2.28,1.4,0.7,2.34,1.97,0.81,0.04,0.62,-0,-3,-1,0.81,4705,20,46,27,69,847,0.0,592,468,60,130.0,0,1,249,324,58,0,0,0,250,250,0,-5.59,44.680935,10.019468,0.0,179.0,0,0.0,-1,0.0,0.0,0,0.0,1.0141
60863,1564322766118,1,2.28,1.41,0.7,2.34,1.96,0.82,0.03,0.61,-0,-3,0,0.82,4731,20,46,27,69,845,0.0,595,467,60,130.0,0,1,251,324,58,0,0,0,250,250,0,-5.59,,,,,,,,,,,,
60883,1564322766138,1,2.27,1.41,0.71,2.33,1.96,0.84,0.02,0.59,-0,-4,1,0.84,4706,20,46,27,68,844,0.0,594,455,60,130.0,0,1,249,320,58,0,0,0,250,250,0,-5.59,,,,,,,,,,,,
60903,1564322766158,2,2.28,1.41,0.7,2.34,1.97,0.85,0.05,0.57,-0,-3,1,0.85,4691,20,46,27,69,843,0.0,592,458,60,130.0,0,1,248,323,58,0,0,0,250,250,0,-5.59,,,,,,,,,,,,
60923,1564322766178,5,2.26,1.4,0.7,2.33,1.96,0.82,0.08,0.57,-0,-1,0,0.82,4652,20,46,27,68,841,0.0,592,457,60,131.0,0,1,244,319,57,0,0,0,250,250,0,-5.59,,,,,,,,,,,,
60943,1564322766198,5,2.26,1.41,0.7,2.34,1.97,0.77,0.06,0.59,0,0,-0,0.77,4671,20,46,27,69,839,0.0,592,463,60,132.0,0,1,246,319,57,0,0,0,250,250,0,-5.59,44.680935,10.019468,0.0,179.0,0,0.0,-1,0.0,0.0,0,0.0,1.0157
