"Interval"|"ms"|0|0|1,"Utc"|"ms"|0|0|1,"FB_p"|"bar"|0|300|50,"Volant"|"F"|0.0|300.0|50,"xFR"|"mm"|0.0|5.0|50,"xRR"|"mm"|0.0|5.0|50,"xFL"|"mm"|0.0|5.0|50,"xRL"|"mm"|0.0|5.0|50,"AccelX"|"G"|-3.0|3.0|50,"AccelY"|"G"|-3.0|3.0|50,"AccelZ"|"G"|-3.0|3.0|50,"Yaw"|"Deg/Sec"|-120|120|50,"Pitch"|"Deg/Sec"|-120|120|50,"Roll"|"Deg/Sec"|-120|120|50,"Gsum"|"G"|0.0|3.0|50,"RPM"|""|0|14000|50,"TPS"|"%"|0|100|50,"WaterTemp"|"?C"|0|300|50,"AirTemp"|"?C"|-1000|1000|50,"MAP"|"KPa"|0|255|50,"Lambda"|""|0|1024|50,"WheelSpeed"|"MPH"|0.0|150.0|50,"OilPress"|"PSI"|0|150|50,"FuelPress"|"PSI"|0|150|50,"OilTemp"|"F"|0|300|50,"Battery"|"Volts"|0.0|20.0|50,"FuelCon"|"L/h"|-1000|1000|50,"Gear"|""|0|10|50,"Advance"|"Deg"|-360|360|50,"Injection"|"ms"|-1000|1000|50,"FuelCon"|"L/100km"|-1000|1000|50,"LC_But_Pres"|""|-1000|1000|50,"LC_Active"|""|-1000|1000|50,"RD_Speed"|""|-1000|1000|50,"RUD_Speed"|""|-1000|1000|50,"LD_Speed"|""|-1000|1000|50,"LUD_Speed"|""|-1000|1000|50,"Ana1"|"bar"|-1000.0|1000.0|50,"Latitude"|"Degrees"|-180.0|180.0|10,"Longitude"|"Degrees"|-180.0|180.0|10,"Speed"|"kph"|0.0|150.0|10,"Altitude"|"m"|0.0|4000.0|10,"LapCount"|""|0|0|10,"LapTime"|"Min"|0.0|0.0|10,"Sector"|""|0|0|10,"SectorTime"|"Min"|0.0|0.0|10,"ElapsedTime"|"Min"|0.0|0.0|10,"CurrentLap"|""|0|0|10,"Distance"|"km"|0.0|0.0|10,"SessionTime"|"Min"|0.0|0.0|10
142964,1564237535312,9,1.84,0.98,0.38,1.3,0.97,1.07,0.98,0.28,-32,-1,-41,1.45,7855,1,87,41,44,857,417.0,631,463,60,128.0,185,1,347,236,63,0,0,425,-21944,3826,344,-5.59,,,,,,,,,,,,
142984,1564237535332,10,1.85,0.98,0.38,1.31,0.98,1.0,1.08,0.21,-32,-2,-40,1.48,7884,4,86,41,44,865,414.0,623,461,60,129.0,204,1,347,234,70,0,0,423,2524,1779,342,-5.59,,,,,,,,,,,,
143004,1564237535352,11,1.84,0.98,0.38,1.31,0.97,0.91,1.16,0.14,-32,-2,-42,1.47,7861,10,87,41,44,877,410.0,621,463,60,129.0,204,1,347,239,70,0,0,418,9517,-8165,330,-5.59,,,,,,,,,,,,
143024,1564237535372,7,1.85,0.98,0.38,1.31,0.97,0.92,1.04,0.22,-32,-1,-44,1.39,7891,8,87,41,44,891,407.0,620,462,60,128.0,204,1,347,236,70,0,0,419,-26615,-8165,331,-5.59,,,,,,,,,,,,
143044,1564237535392,3,1.84,0.98,0.38,1.31,0.97,1.02,1.04,0.31,-33,-0,-45,1.46,7864,17,87,41,45,899,409.0,619,463,60,128.0,204,1,355,232,70,0,0,416,9517,-3856,342,-5.59,44.681316,10.016898,40.3,180.1,0,0.0,-1,0.0,0.0,0,0.43,2.3841
143064,1564237535405,0,1.84,0.97,0.38,1.3,0.97,1.02,1.08,0.33,-34,-2,-47,1.48,7841,10,86,41,44,905,410.0,624,463,60,129.0,204,1,347,236,70,0,0,418,-9166,3826,343,-5.59,,,,,,,,,,,,
143084,1564237535425,3,1.84,0.98,0.37,1.31,0.97,0.92,1.11,0.31,-35,-3,-49,1.44,7861,0,87,41,45,911,412.0,621,462,60,128.0,202,1,355,209,70,0,0,419,13040,7154,350,-5.59,,,,,,,,,,,,
143104,1564237535445,2,1.85,0.97,0.38,1.3,0.97,0.85,0.99,0.31,-35,-2,-48,1.31,7799,0,87,41,45,916,415.0,620,461,60,128.0,202,1,355,215,70,0,0,418,-26615,18584,360,-5.59,,,,,,,,,,,,
143124,1564237535465,0,1.86,0.98,0.38,1.3,0.97,0.91,0.99,0.37,-36,-0,-47,1.34,7776,7,86,41,45,918,415.0,623,462,60,127.0,202,1,355,240,70,0,0,419,-26615,-4059,362,-5.59,,,,,,,,,,,,
143144,1564237535499,-1,1.9,0.98,0.37,1.3,0.98,1.02,0.97,0.49,-36,-2,-48,1.41,7776,6,87,41,45,918,413.0,626,461,60,128.0,202,1,355,210,70,0,0,416,13040,-4082,362,-5.59,44.681297,10.016892,37.67,180.0,0,0.0,-1,0.0,0.0,0,0.43,2.3857
143164,1564237535519,3,1.93,0.98,0.37,1.31,0.97,1.01,1.07,0.49,-36,-2,-49,1.47,7760,0,87,41,45,916,411.0,623,464,60,129.0,202,1,355,210,70,0,0,415,9517,-3414,361,-5.59,,,,,,,,,,,,
143184,1564237535539,2,1.97,0.98,0.37,1.31,0.98,0.85,1.17,0.42,-35,-4,-48,1.44,7789,0,87,41,45,915,411.0,623,461,60,129.0,171,1,355,215,62,0,0,415,-4059,11545,363,-5.59,,,,,,,,,,,,
143204,1564237535559,3,2.01,0.98,0.37,1.31,0.97,0.69,1.22,0.34,-34,-3,-49,1.4,7706,13,86,41,45,913,415.0,620,458,60,128.0,171,1,355,240,62,0,0,416,-26615,13040,365,-5.59,,,,,,,,,,,,
143224,1564237535579,3,2.06,0.98,0.38,1.31,0.97,0.56,1.13,0.3,-34,-2,-48,1.27,7631,22,87,41,46,912,414.0,619,463,60,128.0,171,1,362,236,62,0,0,415,2524,13180,366,-5.59,,,,,,,,,,,,
143244,1564237535593,4,2.12,0.98,0.38,1.32,0.98,0.56,0.99,0.32,-33,0,-47,1.14,7684,23,86,41,46,914,415.0,620,462,60,128.0,171,1,362,236,62,0,0,411,-26615,9517,367,-5.59,44.68129,10.016891,37.51,180.0,0,0.0,-1,0.0,0.0,0,0.43,2.3874
143264,1564237535613,-0,2.18,0.98,0.38,1.32,0.97,0.62,0.84,0.47,-31,0,-47,1.04,7628,12,87,41,46,920,411.0,615,465,60,129.0,171,1,362,217,62,0,0,411,-9166,-31744,370,-5.59,,,,,,,,,,,,
143284,1564237535633,1,2.23,0.99,0.38,1.32,0.97,0.71,0.74,0.56,-28,1,-47,1.03,7588,22,86,41,46,926,409.0,614,461,60,128.0,188,1,362,241,70,0,0,409,9517,-9211,374,-5.59,,,,,,,,,,,,
143304,1564237535653,1,2.28,0.99,0.38,1.31,0.98,0.8,0.61,0.64,-25,2,-44,1.0,7530,21,86,41,46,933,405.0,612,465,60,128.0,188,1,362,217,70,0,0,405,-9211,11545,379,-5.59,,,,,,,,,,,,
143324,1564237535673,0,2.33,0.99,0.39,1.32,0.99,0.9,0.48,0.71,-22,2,-42,1.02,7494,23,86,41,46,942,403.0,607,465,60,128.0,188,1,362,217,70,0,0,404,-8151,-1562,385,-5.59,,,,,,,,,,,,
143344,1564237535693,4,2.36,1.0,0.38,1.32,0.98,0.92,0.36,0.73,-19,2,-39,0.99,7402,21,86,41,47,954,398.0,601,461,60,128.0,188,1,370,219,70,0,0,401,6384,-3968,390,-5.59,44.68129,10.016891,37.51,180.0,0,0.0,-1,0.0,0.0,0,0.43,2.3891
143364,1564237535705,5,2.38,1.0,0.38,1.33,0.99,0.93,0.34,0.72,-15,3,-35,0.99,7370,23,86,41,47,963,397.0,601,462,60,128.0,188,1,370,246,70,0,0,401,-3968,6512,395,-5.59,,,,,,,,,,,,
143384,1564237535725,3,2.41,1.0,0.38,1.32,0.98,0.85,0.33,0.67,-12,4,-32,0.91,7361,22,86,41,48,968,397.0,595,463,60,127.0,172,1,372,242,68,0,0,394,-1818,-3968,397,-5.59,,,,,,,,,,,,
143404,1564237535745,3,2.44,0.99,0.39,1.32,0.98,0.77,0.34,0.61,-9,4,-27,0.84,7352,23,86,41,48,972,398.0,596,462,60,129.0,172,1,372,245,68,0,0,394,1,28696,398,-5.59,,,,,,,,,,,,
143424,1564237535765,2,2.47,1.0,0.38,1.32,0.98,0.71,0.28,0.57,-6,3,-23,0.77,7419,23,86,41,48,977,400.0,599,465,60,128.0,172,1,372,242,68,0,0,393,-6524,6512,400,-5.59,,,,,,,,,,,,
143444,1564237535801,1,2.51,0.99,0.39,1.33,0.98,0.61,0.23,0.53,-3,3,-19,0.65,7449,23,86,41,48,980,402.0,602,459,60,129.0,172,1,372,232,68,0,0,392,240,11545,402,-5.59,44.681271,10.016893,38.97,180.0,0,0.0,-1,0.0,0.0,0,0.44,2.3907
143464,1564237535821,3,2.53,1.0,0.38,1.32,0.98,0.49,0.11,0.53,-1,3,-17,0.5,7503,23,86,41,48,979,404.0,605,462,60,129.0,172,1,372,235,68,0,0,393,-6475,-8151,404,-5.59,,,,,,,,,,,,
143484,1564237535841,2,2.55,1.0,0.39,1.33,0.98,0.45,0.04,0.47,2,4,-12,0.46,7509,23,86,41,48,980,407.0,603,463,60,128.0,163,1,372,225,66,0,0,397,-19019,1504,407,-5.59,,,,,,,,,,,,
143504,1564237535861,2,2.58,1.0,0.39,1.32,0.99,0.43,-0.04,0.47,4,5,-7,0.44,7584,23,86,41,48,983,409.0,603,463,60,129.0,163,1,372,223,66,0,0,405,-6475,-4059,409,-5.59,,,,,,,,,,,,
143524,1564237535881,1,2.59,0.99,0.39,1.33,0.98,0.42,-0.1,0.41,6,5,-3,0.43,7600,23,86,41,48,987,412.0,607,462,60,128.0,163,1,372,219,66,0,0,399,-18948,11560,412,-5.59,,,,,,,,,,,,
143544,1564237535901,3,2.62,0.99,0.39,1.33,0.99,0.44,-0.17,0.42,8,5,-1,0.47,7668,22,86,41,48,990,412.0,607,463,60,127.0,163,1,372,219,66,0,0,405,-18948,10392,412,-5.59,44.681271,10.016893,38.97,180.0,0,0.0,-1,0.0,0.0,0,0.44,2.3924
143564,1564237535910,-1,2.62,1.0,0.38,1.32,0.98,0.49,-0.31,0.43,11,5,3,0.58,7693,23,86,41,47,993,412.0,612,462,60,128.0,163,1,370,219,66,0,0,420,8200,-4059,412,-5.59,,,,,,,,,,,,
143584,1564237535930,-1,2.63,0.99,0.38,1.32,0.99,0.56,-0.36,0.45,13,3,8,0.66,7716,23,86,41,47,991,414.0,612,463,60,128.0,152,1,370,219,63,0,0,420,2278,18584,415,-5.59,,,,,,,,,,,,
143604,1564237535950,1,2.63,0.99,0.38,1.33,0.99,0.59,-0.42,0.52,15,1,10,0.72,7789,23,86,41,47,990,416.0,616,465,60,128.0,152,1,370,219,63,0,0,411,-6656,13040,415,-5.59,,,,,,,,,,,,
143624,1564237535970,1,2.64,0.99,0.38,1.32,0.99,0.56,-0.48,0.51,17,1,12,0.74,7809,23,86,41,46,985,418.0,613,463,60,129.0,152,1,362,217,63,0,0,418,742,-21792,418,-5.59,,,,,,,,,,,,
143644,1564237535990,3,2.64,0.99,0.38,1.33,0.99,0.58,-0.54,0.46,18,1,17,0.79,7881,23,86,41,46,980,418.0,614,464,60,128.0,152,1,362,217,63,0,0,427,3,-21944,418,-5.59,44.681263,10.016895,39.53,180.0,0,0.0,-1,0.0,0.0,0,0.44,2.3941
143664,1564237536002,-1,2.66,0.99,0.39,1.32,0.99,0.69,-0.53,0.47,20,1,20,0.87,7931,23,86,41,46,977,420.0,619,465,60,128.0,152,1,362,217,63,0,0,422,770,-3414,420,-5.59,,,,,,,,,,,,
143684,1564237536022,-0,2.66,0.99,0.38,1.32,1.0,0.72,-0.59,0.48,22,-1,21,0.93,7904,23,86,41,45,974,418.0,618,462,60,129.0,155,1,355,215,65,0,0,422,770,7154,420,-5.59,,,,,,,,,,,,
143704,1564237536042,3,2.65,1.0,0.39,1.32,1.0,0.69,-0.66,0.48,23,-0,25,0.95,7928,23,86,41,45,977,420.0,625,465,60,128.0,155,1,355,215,65,0,0,434,770,-3414,420,-5.59,,,,,,,,,,,,
143724,1564237536062,0,2.65,0.99,0.38,1.33,0.99,0.76,-0.67,0.46,25,-1,27,1.02,7958,14,86,41,45,979,421.0,623,465,60,128.0,155,1,355,210,65,0,0,431,-6656,-8165,421,-5.59,,,,,,,,,,,,
143744,1564237536098,-0,2.67,1.0,0.39,1.32,0.99,0.78,-0.77,0.52,26,-2,27,1.1,7941,15,86,41,45,982,421.0,625,463,60,127.0,155,1,355,215,65,0,0,428,770,-4082,421,-5.59,44.681244,10.016894,39.55,179.9,0,0.0,-1,0.0,0.0,0,0.44,2.3957
143764,1564237536118,2,2.65,1.0,0.39,1.33,0.99,0.73,-0.84,0.5,27,-1,31,1.11,7965,16,86,41,44,985,421.0,625,465,60,129.0,155,1,347,213,65,0,0,428,-6656,13180,423,-5.59,,,,,,,,,,,,
143784,1564237536138,-1,2.66,1.0,0.38,1.33,0.99,0.72,-0.85,0.46,28,-1,34,1.12,7982,10,86,41,44,986,423.0,500,463,60,128.0,151,1,347,209,64,0,0,432,-6656,-4082,423,-5.59,,,,,,,,,,,,
143804,1564237536158,0,2.66,0.99,0.39,1.33,0.99,0.76,-0.93,0.45,29,1,34,1.2,7958,19,86,41,44,986,424.0,483,463,60,127.0,151,1,347,236,64,0,0,434,742,-4082,424,-5.59,,,,,,,,,,,,
143824,1564237536178,4,2.65,1.0,0.39,1.33,0.99,0.73,-0.98,0.39,30,1,37,1.22,8002,23,86,41,44,986,423.0,463,462,60,128.0,151,1,347,235,64,0,0,430,742,3826,423,-5.59,,,,,,,,,,,,
143844,1564237536198,-1,2.65,1.0,0.39,1.32,0.99,0.74,-0.98,0.41,31,1,37,1.23,7985,23,86,41,44,985,425.0,407,466,60,128.0,151,1,347,238,64,0,0,441,770,31796,422,-5.59,44.681244,10.016894,39.55,179.9,0,0.0,-1,0.0,0.0,0,0.44,2.3974
143864,1564237536210,1,2.66,1.0,0.38,1.33,0.99,0.77,-1.04,0.44,32,0,37,1.29,8023,24,86,41,43,984,423.0,412,461,60,128.0,151,1,340,235,64,0,0,444,770,-21792,423,-5.59,,,,,,,,,,,,
143884,1564237536230,2,2.66,0.99,0.39,1.32,0.99,0.71,-1.08,0.42,33,1,39,1.29,8088,24,86,41,43,983,424.0,363,462,60,128.0,167,1,340,230,71,0,0,441,742,7154,424,-5.59,,,,,,,,,,,,
143904,1564237536250,1,2.66,0.99,0.39,1.32,1.0,0.84,-1.07,0.46,32,-0,41,1.36,8102,24,86,41,43,980,422.0,342,463,60,127.0,167,1,341,227,71,0,0,444,742,-3856,422,-5.59,,,,,,,,,,,,
143924,1564237536270,2,2.65,1.0,0.38,1.34,0.99,0.78,-1.1,0.46,33,-1,39,1.35,8152,23,86,41,42,977,423.0,328,462,60,128.0,167,1,334,223,71,0,0,447,-6656,-3314,421,-5.59,,,,,,,,,,,,
143944,1564237536290,-1,2.64,1.0,0.39,1.33,1.0,0.9,-1.15,0.43,33,-2,42,1.46,8187,24,86,41,42,975,422.0,311,465,60,127.0,167,1,334,218,71,0,0,455,1,-4082,422,-5.59,44.681232,10.016893,40.07,180.0,0,0.0,-1,0.0,0.0,0,0.44,2.3991
143964,1564237536302,3,2.62,0.99,0.39,1.33,0.98,0.82,-1.11,0.46,33,-3,43,1.38,8238,24,86,41,42,974,423.0,313,467,60,128.0,167,1,335,215,71,0,0,455,-6656,-21792,423,-5.59,,,,,,,,,,,,
143984,1564237536322,1,2.58,0.99,0.38,1.33,0.99,0.88,-1.14,0.47,33,-2,42,1.44,8220,24,86,41,42,967,423.0,315,462,60,127.0,155,1,335,212,66,0,0,455,742,-3414,423,-5.59,,,,,,,,,,,,
144004,1564237536342,2,2.54,0.99,0.39,1.33,1.0,0.79,-1.11,0.45,33,-2,45,1.36,8223,24,86,41,41,959,425.0,370,464,60,128.0,155,1,328,212,66,0,0,444,742,-21792,425,-5.59,,,,,,,,,,,,
144024,1564237536362,2,2.49,0.99,0.39,1.32,0.99,0.76,-1.03,0.48,32,-0,45,1.28,8202,24,86,41,41,952,422.0,359,466,60,128.0,155,1,328,210,66,0,0,429,-6656,13180,422,-5.59,,,,,,,,,,,,
144044,1564237536398,5,2.45,1.0,0.39,1.32,0.99,0.83,-0.96,0.54,31,0,44,1.27,8067,24,86,41,41,945,420.0,339,462,60,127.0,155,1,325,210,66,0,0,421,-6656,-3322,420,-5.59,44.681213,10.016883,40.24,180.0,0,0.0,-1,0.0,0.0,0,0.44,2.4007
144064,1564237536418,4,2.44,0.99,0.39,1.33,0.99,0.82,-0.97,0.53,29,-0,43,1.27,7871,21,86,41,41,940,419.0,325,463,60,128.0,155,1,325,210,66,0,0,410,19125,13552,419,-5.59,,,,,,,,,,,,
144084,1564237536438,5,2.42,1.0,0.38,1.33,0.98,0.73,-0.95,0.5,27,-1,42,1.2,7678,14,86,41,40,936,417.0,316,462,60,129.0,147,1,317,206,62,0,0,404,240,3826,417,-5.59,,,,,,,,,,,,
144104,1564237536458,2,2.4,0.99,0.38,1.33,0.98,0.81,-0.89,0.52,24,-2,38,1.2,7381,11,86,41,39,936,414.0,306,459,60,129.0,147,1,310,204,62,0,0,404,-1562,7154,414,-5.59,,,,,,,,,,,,
144124,1564237536478,1,2.39,0.99,0.38,1.31,0.99,0.89,-0.85,0.62,21,-2,37,1.23,7225,9,86,41,37,939,411.0,300,460,60,129.0,147,1,304,199,62,0,0,400,-6656,13040,411,-5.59,,,,,,,,,,,,
144144,1564237536498,4,2.37,0.98,0.38,1.31,0.99,0.99,-0.79,0.6,19,-3,36,1.27,7142,9,86,41,37,942,407.0,303,462,60,128.0,147,1,304,193,62,0,0,393,17144,9517,407,-5.59,44.681213,10.016883,40.24,180.0,0,0.0,-1,0.0,0.0,0,0.44,2.4024
144164,1564237536510,2,2.33,0.99,0.38,1.3,0.97,0.89,-0.61,0.51,18,-3,33,1.08,7110,9,86,41,36,947,405.0,320,462,60,128.0,147,1,301,187,62,0,0,394,-1818,1504,405,-5.59,,,,,,,,,,,,
144184,1564237536530,2,2.31,0.98,0.37,1.3,0.98,0.82,-0.52,0.47,16,-4,30,0.97,7091,9,86,41,36,950,402.0,317,462,60,128.0,123,1,301,187,50,0,0,391,-1818,11545,402,-5.59,,,,,,,,,,,,
144204,1564237536550,5,2.28,0.99,0.38,1.31,0.97,0.92,-0.46,0.53,14,-4,28,1.03,7030,9,86,41,35,952,401.0,335,462,60,128.0,123,1,298,187,50,0,0,393,-32702,11545,401,-5.59,,,,,,,,,,,,
144224,1564237536570,2,2.28,0.98,0.37,1.31,0.98,0.85,-0.33,0.45,12,-2,26,0.91,6980,8,86,41,35,950,400.0,351,464,60,128.0,123,1,298,182,50,0,0,397,-32702,1504,400,-5.59,,,,,,,,,,,,
144244,1564237536590,-1,2.26,0.99,0.38,1.31,0.98,0.81,-0.22,0.44,11,-2,22,0.84,6939,8,86,41,35,943,398.0,375,462,60,128.0,123,1,298,182,50,0,0,397,6384,17144,398,-5.59,44.681202,10.016877,40.37,180.0,0,0.0,-1,0.0,0.0,0,0.44,2.4041
144264,1564237536600,3,2.24,0.98,0.38,1.31,0.99,0.93,-0.21,0.52,9,-3,20,0.95,6875,0,86,41,35,935,400.0,398,460,60,128.0,123,1,298,182,50,0,0,400,6384,-1818,395,-5.59,,,,,,,,,,,,
144284,1564237536620,-1,2.21,0.99,0.38,1.31,0.98,0.83,-0.05,0.39,8,-1,18,0.83,6853,0,86,41,35,927,400.0,417,461,60,128.0,118,1,298,182,47,0,0,397,11545,-1818,394,-5.59,,,,,,,,,,,,
144304,1564237536640,0,2.15,0.98,0.38,1.31,0.98,0.88,0.03,0.37,5,-2,16,0.88,6936,0,86,41,35,917,399.0,430,461,60,129.0,118,1,298,178,47,0,0,394,28696,-6475,391,-5.59,,,,,,,,,,,,
144324,1564237536660,3,2.1,0.98,0.37,1.3,0.97,0.95,0.14,0.38,3,-2,13,0.96,7078,9,86,41,35,901,397.0,441,463,60,127.0,118,1,298,200,47,0,0,386,-3968,8200,385,-5.59,,,,,,,,,,,,
144344,1564237536696,2,2.05,0.97,0.37,1.3,0.97,0.88,0.25,0.29,0,-0,11,0.92,7267,8,86,41,35,885,396.0,451,462,60,128.0,118,1,298,198,47,0,0,387,-32702,770,378,-5.59,44.681187,10.016863,39.03,180.0,0,0.0,-1,0.0,0.0,0,0.45,2.4057
144364,1564237536716,1,2.01,0.98,0.37,1.3,0.96,0.78,0.35,0.28,-2,0,7,0.86,7332,9,86,41,34,877,398.0,451,462,60,128.0,118,1,295,188,47,0,0,392,6384,-6656,373,-5.59,,,,,,,,,,,,
144384,1564237536736,0,1.99,0.98,0.37,1.31,0.97,0.72,0.52,0.21,-5,2,3,0.88,7352,8,86,41,33,868,399.0,461,460,60,129.0,139,1,292,181,52,0,0,398,28696,-6405,370,-5.59,,,,,,,,,,,,
144404,1564237536756,0,1.95,0.98,0.38,1.3,0.97,0.65,0.67,0.11,-8,1,-1,0.93,7364,1,86,41,33,857,402.0,480,462,60,129.0,139,1,292,179,52,0,0,403,10541,230,368,-5.59,,,,,,,,,,,,
144424,1564237536776,-2,1.92,0.97,0.37,1.29,0.97,0.67,0.75,0.09,-11,1,-4,1.01,7298,0,86,41,33,848,404.0,507,461,60,130.0,139,1,292,176,52,0,0,403,1504,-14707,363,-5.59,,,,,,,,,,,,
144444,1564237536796,-0,1.9,0.97,0.38,1.3,0.98,0.73,0.77,0.18,-14,-0,-9,1.06,7267,7,86,41,33,846,403.0,524,461,60,130.0,139,1,292,188,52,0,0,402,-8151,3082,361,-5.59,44.681187,10.016863,39.03,180.0,0,0.0,-1,0.0,0.0,0,0.45,2.4074
144464,1564237536808,3,1.89,0.97,0.37,1.3,0.98,0.8,0.76,0.22,-16,-0,-13,1.1,7178,10,86,41,33,844,403.0,538,457,60,129.0,139,1,292,185,52,0,0,402,-8151,-29978,358,-5.59,,,,,,,,,,,,
144484,1564237536828,0,1.89,0.97,0.37,1.3,0.98,0.75,0.89,0.16,-17,1,-15,1.16,7131,14,86,41,34,842,401.0,545,463,60,128.0,139,1,295,189,50,0,0,400,28696,-6640,358,-5.59,,,,,,,,,,,,
144504,1564237536848,-2,1.88,0.97,0.37,1.3,0.98,0.68,1.0,0.09,-19,0,-17,1.21,7099,0,86,41,38,841,399.0,548,462,60,129.0,139,1,307,189,50,0,0,399,28696,4104,355,-5.59,,,,,,,,,,,,
144524,1564237536868,-0,1.88,0.98,0.37,1.31,0.97,0.75,0.95,0.19,-21,-1,-20,1.21,7062,0,86,41,46,840,399.0,553,461,60,129.0,139,1,362,215,50,0,0,399,28696,4104,355,-5.59,,,,,,,,,,,,
144544,1564237536888,2,1.89,0.97,0.37,1.3,0.97,0.84,0.95,0.31,-23,-1,-24,1.26,7140,67,86,41,59,841,397.0,562,462,60,128.0,139,1,416,318,50,0,0,804,-3968,3183,352,-5.59,44.681179,10.016856,38.07,180.0,0,0.0,-1,0.0,0.0,0,0.45,2.4091
144564,1564237536904,0,1.88,0.97,0.37,1.3,0.97,0.74,1.05,0.22,-24,-1,-27,1.29,7134,91,86,41,76,842,398.0,561,462,60,128.0,139,1,388,491,50,0,0,391,6384,2811,352,-5.59,,,,,,,,,,,,
144584,1564237536924,-1,1.87,0.98,0.37,1.3,0.97,0.7,1.07,0.18,-25,-1,-30,1.28,7091,100,86,41,89,843,399.0,560,460,60,129.0,404,1,380,578,142,0,0,396,28696,8841,351,-5.59,,,,,,,,,,,,
144604,1564237536944,3,1.87,0.97,0.38,1.3,0.97,0.83,1.0,0.25,-28,-2,-31,1.31,7046,100,86,41,92,843,397.0,560,465,60,128.0,404,1,374,608,142,0,0,397,-3968,2811,350,-5.59,,,,,,,,,,,,
144624,1564237536964,1,1.88,0.97,0.38,1.3,0.98,0.88,0.94,0.34,-29,-1,-32,1.29,7153,77,86,41,92,844,399.0,553,461,60,128.0,404,1,382,526,142,0,0,395,28696,6870,348,-5.59,,,,,,,,,,,,
144644,1564237536995,1,1.87,0.97,0.38,1.3,0.97,0.92,0.94,0.36,-30,-1,-35,1.32,7461,96,86,41,93,865,399.0,555,451,60,129.0,404,1,405,629,142,0,0,395,28696,8841,346,-5.59,44.681164,10.016847,36.35,180.0,0,0.0,-1,0.0,0.0,0,0.45,2.4107
144664,1564237537015,1,1.88,0.97,0.37,1.3,0.97,1.03,0.95,0.49,-32,-3,-39,1.4,7868,94,86,41,92,886,397.0,567,464,60,128.0,404,1,437,652,142,0,0,394,-3968,-10554,345,-5.59,,,,,,,,,,,,
144684,1564237537035,3,1.88,0.97,0.37,1.31,0.97,1.06,0.88,0.49,-33,-1,-42,1.38,8408,44,86,41,90,908,396.0,588,461,60,129.0,478,1,439,590,165,0,0,402,-32702,3082,344,-5.59,,,,,,,,,,,,
144704,1564237537055,-1,1.88,0.97,0.38,1.3,0.98,0.9,0.94,0.48,-34,1,-42,1.3,8733,82,86,41,88,929,399.0,613,460,60,128.0,478,1,426,711,165,0,0,413,28696,1,344,-5.59,,,,,,,,,,,,
144724,1564237537075,1,1.9,0.98,0.37,1.31,0.97,0.81,0.96,0.63,-35,3,-44,1.25,8997,100,86,41,87,1000,405.0,636,458,60,128.0,478,1,419,674,165,0,0,439,-9211,-28648,345,-5.59,,,,,,,,,,,,
144744,1564237537095,1,1.93,0.97,0.37,1.3,0.98,0.71,0.86,0.69,-36,5,-48,1.11,9259,100,86,41,87,1089,410.0,638,463,60,129.0,478,1,418,659,165,0,0,440,13040,2109,346,-5.59,44.681164,10.016847,36.35,180.0,0,0.0,-1,0.0,0.0,0,0.45,2.4124
144764,1564237537109,4,1.96,0.98,0.37,1.31,0.97,0.75,0.72,0.61,-37,3,-51,1.04,9370,100,86,41,86,1162,416.0,645,467,60,128.0,478,1,418,632,165,0,0,495,18584,-17956,347,-5.59,,,,,,,,,,,,
144784,1564237537129,3,2.02,0.98,0.37,1.31,0.97,0.84,0.7,0.52,-39,3,-53,1.09,9323,100,85,41,86,1229,423.0,646,465,60,127.0,637,1,418,612,223,0,0,526,3826,-9216,349,-5.59,,,,,,,,,,,,
144804,1564237537149,2,2.06,0.98,0.37,1.31,0.98,0.66,0.83,0.67,-40,3,-53,1.06,9412,99,85,41,86,1258,430.0,644,464,60,128.0,637,1,418,666,223,0,0,504,-3314,6274,352,-5.59,,,,,,,,,,,,
144824,1564237537169,3,2.11,0.97,0.38,1.3,0.97,0.59,0.91,0.8,-41,3,-54,1.08,9484,100,85,41,86,1273,431.0,648,459,60,128.0,637,1,418,651,223,0,0,502,1779,-4054,358,-5.59,,,,,,,,,,,,
144844,1564237537189,-1,2.17,0.98,0.37,1.31,0.97,0.58,0.84,0.62,-42,2,-54,1.02,9566,100,85,41,86,1255,432.0,643,465,60,128.0,637,1,414,638,223,0,0,518,-3322,-32248,362,-5.59,44.681152,10.016843,35.51,179.9,0,0.0,-1,0.0,0.0,0,0.45,2.4141
144864,1564237537201,3,2.22,0.99,0.38,1.31,0.98,0.66,0.88,0.75,-43,-1,-56,1.11,9730,100,85,41,85,1203,438.0,650,465,60,128.0,637,1,408,628,223,0,0,523,21580,10408,361,-5.59,,,,,,,,,,,,
144884,1564237537221,2,2.28,0.99,0.38,1.32,0.97,0.58,0.65,0.67,-43,-1,-57,0.87,9889,97,85,41,85,1151,441.0,656,467,60,128.0,620,1,401,600,224,0,0,539,26704,-32248,361,-5.59,,,,,,,,,,,,
144904,1564237537241,2,2.35,0.98,0.38,1.32,0.98,0.65,0.64,0.68,-43,-3,-57,0.91,10032,97,85,41,85,1099,443.0,653,462,60,128.0,620,1,397,581,224,0,0,546,-18341,2104,361,-5.59,,,,,,,,,,,,
144924,1564237537261,3,2.4,0.99,0.38,1.32,0.98,0.71,0.78,0.78,-42,-4,-57,1.05,10212,100,85,41,84,1071,444.0,658,460,60,128.0,620,1,409,549,224,0,0,553,-18341,6274,385,-5.59,,,,,,,,,,,,
144944,1564237537297,4,2.45,0.99,0.38,1.31,0.98,0.75,0.9,0.9,-41,-4,-55,1.17,10313,98,85,41,85,1071,447.0,655,463,60,127.0,620,1,417,567,224,0,0,555,10305,-2336,398,-5.59,44.681137,10.016842,39.57,179.9,0,0.0,-1,0.0,0.0,0,0.45,2.4157
144964,1564237537317,4,2.51,0.99,0.37,1.32,0.98,0.64,0.82,1.01,-39,-3,-52,1.04,10347,100,85,41,85,1070,446.0,655,462,60,127.0,620,1,421,567,224,0,0,553,16648,-22263,406,-5.59,,,,,,,,,,,,
144984,1564237537337,3,2.54,0.98,0.38,1.32,0.99,0.67,0.75,1.09,-37,-2,-49,1.01,10439,100,85,41,85,1067,446.0,664,466,60,127.0,546,1,426,567,222,0,0,542,16648,-18032,416,-5.59,,,,,,,,,,,,
145004,1564237537357,3,2.55,0.99,0.38,1.32,0.98,0.69,0.61,1.18,-34,-3,-46,0.92,10533,100,85,41,85,1065,447.0,661,458,60,128.0,546,1,431,659,222,0,0,555,10305,-32504,426,-5.59,,,,,,,,,,,,
145024,1564237537377,3,2.54,0.98,0.38,1.32,0.98,0.69,0.68,1.26,-31,-3,-42,0.97,10416,100,85,41,85,1063,450.0,656,466,60,128.0,546,1,425,640,222,0,0,571,-3267,-8962,435,-5.59,,,,,,,,,,,,
145044,1564237537397,3,2.55,0.98,0.38,1.32,0.99,0.61,0.69,1.27,-28,-1,-37,0.92,10492,100,85,41,85,1064,452.0,653,465,60,128.0,546,1,430,625,222,0,0,547,-6387,-28648,451,-5.59,44.681137,10.016842,39.57,179.9,0,0.0,-1,0.0,0.0,0,0.45,2.4174
145064,1564237537409,3,2.53,0.99,0.38,1.32,0.98,0.49,0.63,1.31,-23,1,-32,0.8,10445,99,85,41,85,1069,460.0,662,461,60,128.0,546,1,427,610,222,0,0,553,-26615,1780,460,-5.59,,,,,,,,,,,,
145084,1564237537429,2,2.52,0.99,0.38,1.32,0.98,0.42,0.41,1.38,-19,2,-29,0.59,10359,98,85,41,85,1073,469.0,658,460,60,127.0,520,1,421,591,239,0,0,562,-18108,-32248,469,-5.59,,,,,,,,,,,,
145104,1564237537449,2,2.5,0.99,0.38,1.32,0.99,0.37,0.21,1.41,-15,1,-25,0.42,10336,100,85,41,85,1080,477.0,654,465,60,128.0,520,1,419,576,239,0,0,563,-23623,-3082,478,-5.59,,,,,,,,,,,,
145124,1564237537469,1,2.45,0.99,0.38,1.32,0.98,0.36,0.16,1.4,-11,1,-20,0.4,10257,100,85,41,85,1080,488.0,650,463,60,128.0,520,1,413,567,239,0,0,553,243,-506,488,-5.59,,,,,,,,,,,,
145144,1564237537489,4,2.41,0.98,0.38,1.32,0.99,0.47,0.19,1.3,-8,1,-15,0.51,10229,100,85,41,85,1068,496.0,654,458,60,128.0,520,1,411,549,239,0,0,542,8488,-2934,496,-5.59,44.681122,10.016843,42.46,179.9,0,0.0,-1,0.0,0.0,0,0.45,2.4191
145164,1564237537503,4,2.36,0.99,0.38,1.32,0.98,0.48,0.33,1.37,-5,-2,-10,0.58,10129,100,85,41,85,1055,501.0,652,467,60,127.0,520,1,404,567,239,0,0,538,-23367,2524,501,-5.59,,,,,,,,,,,,
145184,1564237537523,0,2.34,0.99,0.38,1.32,0.98,0.27,0.32,1.21,-2,-1,-7,0.42,10026,100,85,41,85,1036,507.0,650,467,60,128.0,432,1,400,567,218,0,0,553,-10483,-8962,507,-5.59,,,,,,,,,,,,
145204,1564237537543,-0,2.36,0.99,0.38,1.32,0.99,0.27,0.16,1.21,-0,-1,-7,0.31,10069,100,85,41,85,1020,508.0,650,465,60,128.0,432,1,400,567,218,0,0,544,-1818,1779,509,-5.59,,,,,,,,,,,,
145224,1564237537563,3,2.43,0.99,0.38,1.32,0.99,0.34,0.23,1.21,1,-5,-4,0.42,10069,100,85,41,85,1008,511.0,653,463,60,128.0,432,1,400,567,218,0,0,550,-9216,2524,513,-5.59,,,,,,,,,,,,
145244,1564237537597,1,2.49,0.99,0.39,1.33,0.98,0.29,0.13,1.17,4,-4,-4,0.31,10135,100,85,41,85,997,517.0,651,467,60,128.0,432,1,408,567,218,0,0,552,6274,-2336,517,-5.59,44.681103,10.016847,48.69,179.9,0,0.0,-1,0.0,0.0,0,0.46,2.4207
145264,1564237537617,2,2.54,1.0,0.38,1.32,0.99,0.25,-0.08,1.11,6,-2,-4,0.27,10273,100,85,41,85,1003,523.0,650,461,60,127.0,432,1,414,567,218,0,0,553,-3414,-8962,523,-5.59,,,,,,,,,,,,
145284,1564237537637,4,2.57,0.99,0.38,1.33,0.99,0.19,-0.27,1.17,8,-3,-2,0.33,10341,99,85,41,85,1010,531.0,652,462,60,127.0,409,1,424,567,214,0,0,578,-21872,-28648,531,-5.59,,,,,,,,,,,,
145304,1564237537657,2,2.54,0.99,0.38,1.32,0.98,0.21,-0.41,1.25,10,1,-1,0.46,10569,100,85,41,85,1016,534.0,649,463,60,127.0,409,1,432,567,214,0,0,568,10994,-9072,534,-5.59,,,,,,,,,,,,
145324,1564237537677,3,2.49,0.99,0.38,1.33,0.99,0.24,-0.52,1.32,12,3,0,0.57,10671,100,85,41,84,1022,541.0,652,463,60,128.0,409,1,434,549,214,0,0,559,17136,774,541,-5.59,,,,,,,,,,,,
145344,1564237537693,1,2.44,0.98,0.38,1.32,0.99,0.31,-0.5,1.39,14,6,3,0.59,10800,100,85,41,84,1021,551.0,651,465,60,126.0,409,1,437,549,214,0,0,586,16383,259,551,-5.59,44.681091,10.016849,51.57,179.9,0,0.0,-1,0.0,0.0,0,0.46,2.4224
145364,1564237537713,1,2.38,0.99,0.38,1.31,0.99,0.31,-0.52,1.2,15,6,7,0.61,10971,100,85,41,84,1021,558.0,658,463,60,127.0,409,1,442,549,214,0,0,595,10408,15649,557,-5.59,,,,,,,,,,,,
145384,1564237537733,4,2.37,0.98,0.38,1.32,0.99,0.33,-0.59,1.28,15,6,8,0.67,11029,100,85,41,84,1012,560.0,664,462,60,127.0,411,1,443,549,229,0,0,586,2524,-32504,560,-5.59,,,,,,,,,,,,
145404,1564237537753,3,2.38,0.98,0.37,1.31,0.98,0.36,-0.55,1.22,14,4,11,0.65,11120,100,85,41,84,1003,563.0,658,466,60,127.0,411,1,442,549,229,0,0,582,1780,3472,563,-5.59,,,,,,,,,,,,
145424,1564237537773,2,2.4,0.98,0.37,1.31,0.98,0.42,-0.66,1.2,14,4,10,0.78,11214,100,85,41,84,994,563.0,663,466,60,127.0,411,1,442,549,229,0,0,579,2524,-3446,567,-5.59,,,,,,,,,,,,
145444,1564237537793,2,2.41,0.98,0.38,1.32,0.98,0.38,-0.64,1.27,15,3,10,0.74,11227,100,85,41,84,985,569.0,661,467,60,127.0,411,1,441,549,229,0,0,614,-32248,-3210,569,-5.59,44.681091,10.016849,51.57,179.9,0,0.0,-1,0.0,0.0,0,0.46,2.4241
145464,1564237537805,4,2.43,0.98,0.38,1.32,0.99,0.41,-0.73,1.32,15,3,10,0.83,11301,100,85,41,84,976,575.0,660,464,60,127.0,411,1,441,549,229,0,0,623,2524,5344,575,-5.59,,,,,,,,,,,,
145484,1564237537825,2,2.43,0.98,0.38,1.32,0.99,0.41,-0.6,1.21,14,1,12,0.73,11405,100,85,41,84,965,578.0,667,462,60,126.0,411,1,441,549,236,0,0,622,-32504,-23055,580,-5.59,,,,,,,,,,,,
145504,1564237537845,1,2.42,0.98,0.38,1.31,0.98,0.39,-0.55,1.25,14,3,13,0.68,11517,100,85,41,84,963,585.0,667,461,60,127.0,411,1,441,531,236,0,0,598,-28648,26688,585,-5.59,,,,,,,,,,,,
145524,1564237537865,3,2.42,0.98,0.38,1.33,0.98,0.42,-0.67,1.32,14,3,13,0.79,11552,100,85,41,83,962,588.0,653,461,60,127.0,411,1,440,532,236,0,0,614,1780,17336,588,-5.59,,,,,,,,,,,,
145544,1564237537902,3,2.42,0.99,0.38,1.32,0.98,0.39,-0.65,1.18,15,2,14,0.76,11609,100,85,41,83,955,593.0,657,463,60,126.0,411,1,440,534,236,0,0,630,774,-16883,596,-5.59,44.681065,10.016851,56.16,179.9,0,0.0,-1,0.0,0.0,0,0.46,2.4257
145564,1564237537922,1,2.44,0.98,0.38,1.32,0.99,0.33,-0.54,1.04,16,1,15,0.63,11653,100,85,41,83,948,600.0,656,466,60,128.0,411,1,440,535,236,0,0,627,774,-16046,600,-5.59,,,,,,,,,,,,
145584,1564237537942,2,2.44,0.98,0.38,1.32,0.99,0.26,-0.46,1.09,17,1,16,0.53,11755,100,85,41,83,940,603.0,661,464,60,127.0,394,1,440,537,237,0,0,645,-3210,966,604,-5.59,,,,,,,,,,,,
145604,1564237537962,2,2.44,0.98,0.38,1.32,0.99,0.13,-0.45,1.08,17,1,17,0.47,11867,98,85,41,83,934,609.0,665,466,60,127.0,394,1,440,541,237,0,0,639,-16384,-2836,609,-5.59,,,,,,,,,,,,
145624,1564237537982,3,2.44,0.98,0.38,1.33,0.99,0.01,-0.41,1.02,18,2,18,0.41,11965,100,85,41,83,918,612.0,656,466,60,126.0,394,1,440,543,237,0,0,631,2048,-3038,612,-5.59,,,,,,,,,,,,
145644,1564237537992,3,2.43,0.99,0.38,1.33,0.98,-0.07,-0.32,1.04,19,3,18,0.33,12050,100,85,41,83,900,621.0,671,466,60,127.0,394,1,440,545,237,0,0,653,3472,16599,621,-5.59,44.681049,10.016851,58.52,179.9,0,0.0,-1,0.0,0.0,0,0.46,2.4274
145664,1564237538012,4,2.42,0.99,0.38,1.33,0.98,-0.14,-0.24,1.11,20,4,19,0.28,12128,100,85,41,83,887,622.0,671,467,60,126.0,394,1,440,545,237,0,0,648,-16179,4909,624,-5.59,,,,,,,,,,,,
145684,1564237538032,4,2.41,0.98,0.38,1.32,0.99,-0.11,-0.25,0.95,20,3,20,0.28,12207,100,85,41,83,876,627.0,668,466,60,127.0,402,1,440,545,251,0,0,654,30227,11776,628,-5.59,,,,,,,,,,,,
145704,1564237538052,4,2.41,0.99,0.38,1.32,0.99,-0.03,-0.43,0.99,19,3,19,0.43,12311,100,85,41,83,858,631.0,678,468,60,127.0,402,1,440,545,251,0,0,650,-7939,31988,631,-5.59,,,,,,,,,,,,
145724,1564237538072,2,2.4,0.99,0.39,1.32,0.99,0.1,-0.52,1.09,19,4,19,0.53,12359,100,85,41,83,837,634.0,669,467,60,127.0,402,1,440,545,251,0,0,663,1010,-388,634,-5.59,,,,,,,,,,,,
145744,1564237538092,3,2.4,0.98,0.39,1.32,1.0,0.06,-0.45,1.0,18,4,19,0.45,12409,100,85,41,83,821,640.0,679,459,60,127.0,402,1,440,545,251,0,0,653,269,3543,640,-5.59,44.681049,10.016851,58.52,179.9,0,0.0,-1,0.0,0.0,0,0.46,2.4291
145764,1564237538106,2,2.4,0.99,0.38,1.32,0.99,0.09,-0.35,0.96,17,2,19,0.36,12400,100,85,41,83,811,643.0,681,463,60,127.0,402,1,440,545,251,0,0,676,19320,31988,643,-5.59,,,,,,,,,,,,
145784,1564237538126,1,2.39,0.99,0.39,1.32,0.99,0.23,-0.46,0.95,16,0,19,0.52,12433,100,85,41,83,798,648.0,679,460,60,127.0,399,1,440,545,257,0,0,674,3395,3543,648,-5.59,,,,,,,,,,,,
145804,1564237538146,-0,2.4,0.99,0.38,1.33,0.99,0.23,-0.59,1.02,16,0,19,0.63,12525,100,85,41,83,783,648.0,681,457,60,127.0,399,1,440,545,257,0,0,667,966,-2345,648,-5.59,,,,,,,,,,,,
145824,1564237538166,1,2.39,0.98,0.38,1.33,1.0,0.19,-0.59,1.06,16,-0,18,0.62,12311,100,86,41,83,774,654.0,674,458,60,130.0,399,1,440,536,257,0,0,665,-2836,-26892,654,-5.59,,,,,,,,,,,,
145844,1564237538202,-1,2.4,0.99,0.38,1.33,0.99,0.25,-0.72,1.12,15,-1,17,0.76,11762,100,86,41,84,772,654.0,668,456,60,129.0,399,1,440,555,257,0,0,655,16599,31988,654,-5.59,44.681019,10.016849,63.08,179.9,0,0.0,-1,0.0,0.0,0,0.46,2.4307
145864,1564237538222,0,2.39,0.99,0.38,1.32,0.99,0.37,-0.65,0.81,14,-7,17,0.75,11405,100,86,41,85,770,654.0,657,458,60,128.0,399,1,441,567,257,0,0,646,16599,-30207,654,-5.59,,,,,,,,,,,,
145884,1564237538242,-2,2.39,0.99,0.39,1.32,0.99,0.54,-0.75,0.92,14,-6,15,0.92,11268,100,86,41,85,767,654.0,630,458,60,129.0,373,1,443,567,244,0,0,646,24,-30207,654,-5.59,,,,,,,,,,,,
145904,1564237538262,2,2.38,0.98,0.39,1.32,1.0,0.51,-0.56,0.68,13,-6,17,0.76,11016,100,86,41,86,765,651.0,655,457,60,128.0,373,1,445,585,244,0,0,642,-3584,8958,651,-5.59,,,,,,,,,,,,
145924,1564237538282,3,2.37,1.0,0.38,1.33,0.99,0.42,-0.5,0.42,12,-8,22,0.65,10806,100,86,41,87,765,653.0,666,458,60,127.0,373,1,440,1049,244,0,0,646,-3584,-6006,653,-5.59,,,,,,,,,,,,
145944,1564237538298,2,2.37,0.98,0.39,1.32,0.99,0.35,-0.52,0.58,12,-2,19,0.63,10557,100,85,41,87,812,654.0,661,462,60,125.0,373,1,434,944,244,0,0,644,4909,6208,654,-5.59,44.681004,10.016845,64.57,179.9,0,0.0,-1,0.0,0.0,0,0.47,2.4324
145964,1564237538318,4,2.36,0.99,0.38,1.32,0.99,0.44,-0.47,0.72,11,1,20,0.64,10069,100,85,41,86,929,663.0,656,465,60,125.0,373,1,400,812,244,0,0,820,-6006,-31066,663,-5.59,,,,,,,,,,,,
145984,1564237538338,2,2.37,0.99,0.38,1.32,0.99,0.45,-0.41,0.8,12,2,20,0.61,10000,100,85,41,85,1045,673.0,654,463,60,126.0,442,1,395,711,295,0,0,745,-3488,-13068,670,-5.59,,,,,,,,,,,,
146004,1564237538358,1,2.36,0.98,0.38,1.32,1.0,0.47,-0.5,0.81,12,4,19,0.69,10059,100,86,41,85,1163,677.0,651,465,60,127.0,442,1,396,591,295,0,0,675,-26380,204,677,-5.59,,,,,,,,,,,,
146024,1564237538378,1,2.36,0.99,0.39,1.32,0.99,0.47,-0.48,0.92,13,5,17,0.67,9704,100,86,41,85,1274,678.0,643,459,60,128.0,442,1,409,563,295,0,0,714,3543,204,678,-5.59,,,,,,,,,,,,
146044,1564237538398,4,2.35,0.98,0.38,1.33,0.99,0.48,-0.46,0.91,12,3,16,0.67,9436,100,86,41,86,1366,683.0,640,455,60,128.0,442,1,418,561,295,0,0,729,1549,-12152,683,-5.59,44.681004,10.016845,64.57,179.9,0,0.0,-1,0.0,0.0,0,0.47,2.4341
146064,1564237538410,2,2.36,0.99,0.38,1.33,0.98,0.63,-0.47,0.62,11,-1,15,0.79,9422,100,86,41,85,1441,685.0,634,463,60,126.0,442,1,418,561,295,0,0,706,-2345,-13312,689,-5.59,,,,,,,,,,,,
146084,1564237538430,2,2.35,0.99,0.38,1.32,0.99,0.68,-0.5,0.54,10,-3,14,0.84,9541,100,86,41,86,1415,688.0,646,458,60,127.0,295,1,417,562,204,0,0,707,-2345,204,688,-5.59,,,,,,,,,,,,
146104,1564237538450,-0,2.35,0.99,0.38,1.32,0.99,0.62,-0.45,0.69,9,-2,14,0.76,9709,88,86,41,85,1374,690.0,647,463,60,127.0,295,1,409,677,204,0,0,722,16599,-3450,690,-5.59,,,,,,,,,,,,
146124,1564237538470,2,2.36,0.99,0.38,1.32,0.99,0.65,-0.38,0.78,8,-2,13,0.76,9863,100,85,40,85,1279,693.0,656,462,60,127.0,295,1,402,652,204,0,0,720,24,1524,694,-5.59,,,,,,,,,,,,
146144,1564237538490,1,2.35,0.99,0.38,1.32,0.98,0.47,-0.42,0.9,8,-0,11,0.63,10000,100,86,40,85,1184,701.0,657,462,60,127.0,295,1,398,640,204,0,0,718,-2830,-2314,701,-5.59,44.680984,10.016841,64.85,179.9,0,0.0,-1,0.0,0.0,0,0.47,2.4357
146164,1564237538505,0,2.34,0.98,0.38,1.33,0.98,0.43,-0.37,0.9,8,1,10,0.57,10113,100,86,40,85,1114,706.0,655,463,60,127.0,295,1,403,625,204,0,0,744,24,-2826,706,-5.59,,,,,,,,,,,,
146184,1564237538525,3,2.34,0.99,0.38,1.32,1.0,0.53,-0.3,0.98,7,0,11,0.61,10091,100,86,40,85,1044,710.0,651,462,60,127.0,337,1,402,605,238,0,0,735,19188,-22796,711,-5.59,,,,,,,,,,,,
146204,1564237538545,3,2.35,0.98,0.38,1.32,0.99,0.53,-0.3,1.01,8,1,10,0.61,10091,100,86,40,84,982,717.0,651,460,60,127.0,337,1,401,591,238,0,0,744,687,136,715,-5.59,,,,,,,,,,,,
146224,1564237538565,-0,2.34,0.99,0.38,1.32,1.0,0.51,-0.42,0.97,7,2,8,0.65,10064,100,86,40,85,918,720.0,651,463,60,128.0,337,1,396,576,238,0,0,744,-3888,-2314,720,-5.59,,,,,,,,,,,,
146244,1564237538600,4,2.34,0.99,0.38,1.32,0.98,0.59,-0.39,0.95,6,-0,9,0.7,10026,100,86,40,84,923,721.0,649,458,60,127.0,337,1,396,567,238,0,0,743,204,-30694,721,-5.59,44.680954,10.01683,69.47,179.9,0,0.0,-1,0.0,0.0,0,0.47,2.4374
146264,1564237538620,3,2.32,0.99,0.38,1.31,0.99,0.73,-0.38,0.96,6,-2,8,0.83,10096,100,86,40,84,930,724.0,651,463,60,127.0,337,1,401,567,238,0,0,743,-23490,-23308,724,-5.59,,,,,,,,,,,,
146284,1564237538640,2,2.32,0.98,0.37,1.32,0.99,0.67,-0.53,0.92,5,-2,6,0.86,10140,100,86,40,84,931,727.0,651,466,60,128.0,288,1,402,549,210,0,0,752,-25858,-31068,729,-5.59,,,,,,,,,,,,
146304,1564237538660,3,2.31,0.98,0.37,1.32,0.98,0.54,-0.46,0.9,4,-1,6,0.71,10184,100,86,40,85,932,731.0,656,462,60,127.0,288,1,408,567,210,0,0,751,-13580,-4096,731,-5.59,,,,,,,,,,,,
146324,1564237538680,2,2.32,0.99,0.38,1.32,0.99,0.5,-0.26,0.8,4,-2,6,0.56,10324,100,86,40,84,927,734.0,664,460,60,127.0,288,1,417,549,210,0,0,764,-22796,-30694,734,-5.59,,,,,,,,,,,,
146344,1564237538694,1,2.32,0.99,0.38,1.32,0.99,0.41,-0.06,0.68,4,-3,7,0.42,10399,100,86,40,84,921,738.0,661,458,60,128.0,288,1,423,549,210,0,0,759,-2830,-10218,739,-5.59,44.680939,10.016825,71.94,179.9,0,0.0,-1,0.0,0.0,0,0.47,2.4391
146364,1564237538714,1,2.33,0.99,0.38,1.32,0.99,0.39,0.1,0.63,4,-2,7,0.4,10504,100,86,40,84,924,741.0,665,461,60,128.0,288,1,430,549,210,0,0,771,-2314,-2344,745,-5.59,,,,,,,,,,,,
146384,1564237538734,1,2.33,0.99,0.37,1.32,0.98,0.44,0.27,0.54,5,-2,7,0.52,10486,100,86,40,84,927,746.0,663,460,60,128.0,292,1,429,549,218,0,0,771,-2826,5876,746,-5.59,,,,,,,,,,,,
146404,1564237538754,2,2.32,0.99,0.38,1.31,0.99,0.4,0.44,0.37,5,-3,8,0.6,10563,100,86,40,84,936,748.0,667,462,60,128.0,292,1,431,549,218,0,0,779,136,-2830,748,-5.59,,,,,,,,,,,,
146424,1564237538774,2,2.32,0.99,0.38,1.32,0.98,0.31,0.55,0.23,5,-3,9,0.63,10551,100,86,40,84,946,756.0,662,463,60,128.0,292,1,431,549,218,0,0,777,-3450,7413,754,-5.59,,,,,,,,,,,,
146444,1564237538794,2,2.32,0.99,0.38,1.32,0.98,0.28,0.56,0.23,5,-2,8,0.62,10635,100,86,40,84,957,756.0,658,463,60,128.0,292,1,433,549,218,0,0,777,-22795,-2574,760,-5.59,44.680939,10.016825,71.94,179.9,0,0.0,-1,0.0,0.0,0,0.48,2.4407
146464,1564237538808,2,2.31,0.99,0.38,1.32,0.99,0.21,0.52,0.16,5,-3,8,0.56,10599,100,86,40,84,967,763.0,660,463,60,128.0,292,1,432,549,218,0,0,788,-3038,-10216,762,-5.59,,,,,,,,,,,,
146484,1564237538828,3,2.31,0.98,0.38,1.32,0.99,0.22,0.31,0.34,4,-2,5,0.38,10708,100,86,40,84,970,763.0,662,464,60,128.0,290,1,435,549,221,0,0,790,6389,11277,762,-5.59,,,,,,,,,,,,
146504,1564237538848,2,2.32,0.99,0.38,1.31,0.99,0.31,0.08,0.5,3,0,3,0.32,10757,100,86,40,84,970,768.0,667,458,60,127.0,290,1,436,549,221,0,0,797,-2826,-1566,768,-5.59,,,,,,,,,,,,
146524,1564237538868,2,2.32,0.98,0.38,1.32,0.99,0.39,0.1,0.61,3,-0,3,0.4,10775,100,86,40,84,974,772.0,665,466,60,127.0,290,1,437,549,221,0,0,793,7413,-7436,772,-5.59,,,,,,,,,,,,
146544,1564237538888,1,2.31,0.99,0.38,1.32,0.98,0.37,0.24,0.57,3,-1,5,0.44,10875,81,86,40,83,980,774.0,671,463,60,127.0,290,1,438,531,221,0,0,800,-3368,-30694,774,-5.59,44.68092,10.016818,73.63,179.9,0,0.0,-1,0.0,0.0,0,0.48,2.4424
146564,1564237538901,3,2.3,0.98,0.37,1.32,0.99,0.31,0.34,0.35,2,-2,5,0.46,10888,57,86,40,77,985,781.0,674,465,60,127.0,290,1,441,485,221,0,0,806,-31066,-2830,781,-5.59,,,,,,,,,,,,
146584,1564237538921,9,2.3,0.99,0.38,1.32,0.98,0.35,0.11,0.52,2,-1,2,0.37,10907,38,86,40,67,991,782.0,671,458,60,128.0,249,1,449,440,195,0,0,803,-2826,-2560,782,-5.59,,,,,,,,,,,,
146604,1564237538941,14,2.29,0.99,0.38,1.32,0.99,0.46,-0.1,0.66,1,0,-0,0.47,10677,24,86,40,58,994,780.0,668,460,60,128.0,249,1,428,355,195,0,0,800,-22795,-2560,780,-5.59,,,,,,,,,,,,
146624,1564237538961,18,2.29,0.99,0.37,1.32,0.99,0.57,-0.21,0.65,0,-2,-1,0.6,10364,12,86,40,49,996,776.0,662,465,60,127.0,249,1,385,274,195,0,0,794,-23308,6905,776,-5.59,,,,,,,,,,,,
146644,1564237538997,19,2.29,0.99,0.37,1.31,0.99,0.56,-0.1,0.63,-0,-4,-1,0.57,10064,10,86,40,43,995,772.0,662,462,60,127.0,249,1,350,231,195,0,0,776,-10212,-22795,769,-5.59,44.680885,10.016805,76.92,179.9,0,0.0,-1,0.0,0.0,0,0.48,2.4441
146664,1564237539017,21,2.28,0.99,0.37,1.32,0.98,0.71,-0.13,0.64,-1,-6,-2,0.72,9884,9,86,40,40,991,770.0,660,461,60,127.0,249,1,327,216,195,0,0,766,-2570,13016,763,-5.59,,,,,,,,,,,,
146684,1564237539037,18,2.27,0.98,0.37,1.3,0.98,0.69,-0.05,0.54,-2,-6,-2,0.69,9699,9,86,40,38,971,766.0,655,465,60,127.0,103,1,317,209,79,0,0,759,-2826,136,762,-5.59,,,,,,,,,,,,
146704,1564237539057,20,2.28,0.98,0.36,1.31,0.97,0.62,-0.01,0.38,-2,-3,-2,0.62,9441,1,86,40,36,933,770.0,656,461,60,127.0,103,1,311,202,79,0,0,756,-2570,-13068,757,-5.59,,,,,,,,,,,,
146724,1564237539077,20,2.28,0.98,0.37,1.3,0.98,0.7,-0.0,0.36,-3,-5,-2,0.7,9282,2,86,40,35,898,769.0,653,465,60,128.0,103,1,308,199,79,0,0,746,-2344,-2314,756,-5.59,,,,,,,,,,,,
146744,1564237539091,20,2.28,0.98,0.37,1.3,0.98,0.83,-0.0,0.47,-4,-4,-2,0.83,9241,0,86,40,33,865,765.0,651,468,60,128.0,103,1,302,192,79,0,0,726,-2344,-23490,754,-5.59,44.680866,10.016799,77.46,180.0,0,0.0,-1,0.0,0.0,0,0.48,2.4457
146764,1564237539111,14,2.29,0.98,0.37,1.3,0.97,0.91,0.09,0.39,-4,-3,-3,0.92,9295,8,86,40,32,838,755.0,650,468,60,127.0,103,1,300,190,79,0,0,728,-31066,-388,746,-5.59,,,,,,,,,,,,
146784,1564237539131,5,2.28,0.98,0.37,1.3,0.98,0.86,0.13,0.27,-4,-3,-4,0.87,9365,10,86,40,31,819,753.0,648,463,60,126.0,89,1,295,191,67,0,0,721,-31068,204,742,-5.59,,,,,,,,,,,,
146804,1564237539151,0,2.28,0.98,0.37,1.31,0.97,0.88,0.06,0.29,-5,-2,-5,0.88,9379,8,86,40,30,807,755.0,651,462,60,128.0,89,1,291,191,67,0,0,708,-3344,-23490,740,-5.59,,,,,,,,,,,,
146824,1564237539171,4,2.28,0.98,0.37,1.3,0.97,0.96,0.1,0.33,-5,0,-5,0.97,9407,2,86,40,30,821,749.0,650,463,60,128.0,89,1,291,190,67,0,0,728,-3344,-25858,742,-5.59,,,,,,,,,,,,
146844,1564237539191,6,2.28,0.99,0.36,1.31,0.97,1.02,0.24,0.29,-5,1,-5,1.05,9417,0,86,40,29,832,743.0,651,465,60,127.0,89,1,287,189,67,0,0,728,-22796,-2830,736,-5.59,44.680866,10.016799,77.46,180.0,0,0.0,-1,0.0,0.0,0,0.48,2.4474
146864,1564237539207,5,2.29,0.98,0.37,1.31,0.97,1.0,0.2,0.25,-5,0,-6,1.02,9403,9,86,40,28,834,741.0,650,461,60,127.0,89,1,282,189,67,0,0,724,-2356,-13312,729,-5.59,,,,,,,,,,,,
146884,1564237539227,11,2.29,0.98,0.37,1.31,0.98,1.0,0.11,0.23,-5,0,-7,1.01,9436,7,86,40,28,834,735.0,653,466,60,127.0,91,1,282,188,67,0,0,721,3462,-25858,726,-5.59,,,,,,,,,,,,
146904,1564237539247,17,2.29,0.99,0.37,1.31,0.97,1.07,0.2,0.2,-4,-1,-7,1.09,9455,6,86,40,28,823,726.0,655,460,60,127.0,91,1,282,188,67,0,0,705,-13580,-2560,718,-5.59,,,,,,,,,,,,
146924,1564237539267,15,2.29,0.98,0.36,1.31,0.98,1.03,0.25,0.1,-3,-3,-6,1.06,9508,8,86,40,27,812,715.0,656,463,60,128.0,91,1,278,208,67,0,0,693,-31068,16599,711,-5.59,,,,,,,,,,,,
146944,1564237539304,15,2.3,0.99,0.36,1.31,0.97,1.02,0.14,0.11,-3,-3,-7,1.03,9469,9,86,40,27,800,714.0,657,463,60,127.0,91,1,278,205,67,0,0,673,204,6208,709,-5.59,44.680828,10.016786,72.52,180.0,0,0.0,-1,0.0,0.0,0,0.49,2.4491
146964,1564237539324,19,2.28,0.98,0.37,1.31,0.97,1.08,0.11,0.21,-3,-3,-7,1.09,9351,9,86,40,27,788,710.0,653,462,60,127.0,91,1,278,201,67,0,0,679,-3888,6208,705,-5.59,,,,,,,,,,,,
146984,1564237539344,19,2.29,0.99,0.37,1.32,0.98,1.18,0.14,0.25,-4,-3,-7,1.18,9227,9,86,40,27,786,707.0,650,465,60,127.0,99,1,278,197,70,0,0,681,-20693,6208,700,-5.59,,,,,,,,,,,,
147004,1564237539364,17,2.3,0.99,0.37,1.32,0.98,1.26,0.2,0.19,-4,-3,-7,1.28,9097,9,86,40,26,787,701.0,642,463,60,129.0,99,1,274,192,70,0,0,671,24,-2830,693,-5.59,,,,,,,,,,,,
147024,1564237539384,17,2.29,0.99,0.37,1.31,0.98,1.34,0.3,0.18,-4,-4,-7,1.37,9027,9,86,40,26,798,697.0,641,461,60,129.0,99,1,274,189,70,0,0,671,12333,-10348,688,-5.59,,,,,,,,,,,,
147044,1564237539399,11,2.29,0.99,0.37,1.31,0.98,1.41,0.36,0.17,-4,-4,-6,1.45,8954,7,86,40,25,809,693.0,638,463,60,129.0,99,1,270,186,70,0,0,669,11576,-2830,681,-5.59,44.680809,10.01678,70.49,180.0,0,0.0,-1,0.0,0.0,0,0.49,2.4507
147064,1564237539419,3,2.29,0.98,0.37,1.31,0.97,1.43,0.42,0.21,-4,-5,-6,1.49,8945,8,86,40,25,821,690.0,638,464,60,128.0,99,1,270,185,70,0,0,662,-2830,-26380,682,-5.59,,,,,,,,,,,,
147084,1564237539439,5,2.28,0.99,0.37,1.31,0.98,1.49,0.42,0.24,-5,-5,-7,1.55,8920,9,86,40,25,833,688.0,638,460,60,128.0,91,1,270,185,62,0,0,654,16599,-2345,679,-5.59,,,,,,,,,,,,
147104,1564237539459,2,2.29,0.99,0.37,1.3,0.98,1.55,0.42,0.33,-5,-4,-8,1.6,8937,10,86,40,26,856,682.0,644,459,60,127.0,91,1,274,280,62,0,0,664,-10344,31988,677,-5.59,,,,,,,,,,,,
147124,1564237539479,3,2.28,0.99,0.37,1.32,0.98,1.59,0.43,0.38,-6,-5,-7,1.65,9079,9,86,40,26,877,683.0,647,464,60,126.0,91,1,274,260,62,0,0,664,3543,-3578,671,-5.59,,,,,,,,,,,,
147144,1564237539491,3,2.29,0.99,0.37,1.31,0.99,1.64,0.45,0.43,-6,-5,-7,1.7,9057,9,86,40,25,887,678.0,651,466,60,126.0,91,1,270,238,62,0,0,667,-2345,-3578,669,-5.59,44.680794,10.016776,67.46,180.0,0,0.0,-1,0.0,0.0,0,0.49,2.4524
147164,1564237539511,1,2.3,0.98,0.37,1.31,0.98,1.67,0.43,0.43,-6,-6,-8,1.73,8984,9,86,40,24,896,676.0,647,465,60,127.0,91,1,270,208,62,0,0,660,-2826,-27404,671,-5.59,,,,,,,,,,,,
147184,1564237539531,3,2.3,0.99,0.36,1.32,0.98,1.71,0.41,0.45,-5,-7,-8,1.76,8997,9,86,40,25,900,669.0,645,467,60,126.0,103,1,270,196,69,0,0,668,31988,-26380,666,-5.59,,,,,,,,,,,,
147204,1564237539551,2,2.29,0.99,0.37,1.32,0.99,1.74,0.41,0.47,-5,-7,-8,1.79,8979,9,86,40,26,903,670.0,645,462,60,127.0,103,1,274,185,69,0,0,652,-388,24583,662,-5.59,,,,,,,,,,,,
147224,1564237539571,3,2.3,0.98,0.37,1.32,0.99,1.77,0.36,0.51,-5,-8,-9,1.8,8941,8,86,40,26,899,665.0,645,463,60,127.0,103,1,274,185,69,0,0,653,3543,24583,661,-5.59,,,,,,,,,,,,
147244,1564237539591,11,2.28,0.99,0.37,1.32,0.98,1.79,0.36,0.48,-5,-7,-8,1.83,8886,8,86,40,26,893,665.0,642,462,60,127.0,103,1,274,185,69,0,0,654,3543,-2826,661,-5.59,44.680794,10.016776,67.46,180.0,0,0.0,-1,0.0,0.0,0,0.49,2.4541
147264,1564237539607,22,2.28,0.99,0.37,1.32,0.98,1.74,0.3,0.49,-5,-6,-9,1.76,8840,8,86,40,27,873,657.0,642,467,60,127.0,103,1,278,185,69,0,0,653,8958,-2830,651,-5.59,,,,,,,,,,,,
147284,1564237539627,26,2.27,0.99,0.37,1.31,0.98,1.58,0.32,0.4,-4,-6,-9,1.62,8802,8,86,40,27,851,648.0,641,462,60,126.0,95,1,278,185,62,0,0,634,4909,-2836,638,-5.59,,,,,,,,,,,,
147304,1564237539647,29,2.27,0.99,0.37,1.32,0.98,1.52,0.39,0.34,-5,-7,-9,1.56,8688,0,86,40,27,833,641.0,640,463,60,126.0,95,1,278,181,62,0,0,620,-3584,17336,633,-5.59,,,,,,,,,,,,
147324,1564237539667,26,2.26,0.99,0.37,1.31,0.98,1.57,0.31,0.32,-6,-9,-9,1.6,8499,5,86,40,27,817,636.0,640,466,60,127.0,95,1,278,184,62,0,0,609,-2580,269,626,-5.59,,,,,,,,,,,,
147344,1564237539703,28,2.26,0.99,0.37,1.32,0.98,1.6,0.19,0.37,-6,-10,-10,1.61,8285,5,86,40,28,821,636.0,633,465,60,127.0,95,1,280,174,62,0,0,601,-2580,-3210,621,-5.59,44.680763,10.016768,65.01,180.0,0,0.0,-1,0.0,0.0,0,0.49,2.4557
147364,1564237539723,24,2.26,1.0,0.37,1.31,0.97,1.39,0.19,0.34,-6,-5,-11,1.41,8106,8,86,40,28,831,630.0,633,462,60,127.0,95,1,279,167,62,0,0,589,966,208,618,-5.59,,,,,,,,,,,,
147384,1564237539743,25,2.27,0.99,0.37,1.32,0.98,1.31,0.22,0.28,-6,-2,-14,1.33,7988,7,86,40,28,852,623.0,627,467,60,128.0,46,1,278,160,50,0,0,3520,3395,12552,609,-5.59,,,,,,,,,,,,
147404,1564237539763,26,2.27,0.99,0.37,1.31,0.98,1.29,0.21,0.21,-6,-2,-13,1.31,8095,6,86,40,28,880,623.0,631,460,60,128.0,46,1,279,164,50,0,0,3520,3395,3826,607,-5.59,,,,,,,,,,,,
147424,1564237539783,23,2.29,0.99,0.37,1.32,0.99,1.3,0.24,0.18,-7,-2,-13,1.32,7921,6,86,40,29,922,619.0,631,464,60,128.0,46,1,281,160,50,0,0,3520,30721,-21944,599,-5.59,,,,,,,,,,,,
147444,1564237539799,20,2.3,0.98,0.37,1.31,0.99,1.37,0.26,0.17,-8,-2,-13,1.39,7884,5,86,40,28,969,611.0,628,463,60,128.0,46,1,277,161,50,0,0,3520,1010,-3414,595,-5.59,44.680748,10.016764,62.5,180.1,0,0.0,-1,0.0,0.0,0,0.5,2.4574
147464,1564237539819,19,2.3,0.98,0.37,1.31,0.98,1.34,0.22,0.17,-8,-1,-14,1.36,7861,7,86,40,28,1003,603.0,628,463,60,128.0,46,1,277,160,50,0,0,3520,-7939,-9166,586,-5.59,,,,,,,,,,,,
147484,1564237539839,16,2.31,0.98,0.37,1.31,0.98,1.28,0.2,0.17,-9,0,-16,1.3,7891,7,86,40,28,1022,599.0,623,463,60,128.0,80,1,277,160,47,0,0,3520,30227,-26615,581,-5.59,,,,,,,,,,,,
147504,1564237539859,12,2.31,0.99,0.37,1.31,0.98,1.25,0.17,0.11,-10,0,-15,1.26,7783,8,86,40,28,1044,599.0,618,463,60,127.0,80,1,276,160,47,0,0,389,30227,21580,576,-5.59,,,,,,,,,,,,
147524,1564237539879,11,2.31,0.99,0.36,1.32,0.98,1.25,0.16,0.11,-11,-1,-16,1.26,7697,7,86,40,28,1069,594.0,616,466,60,127.0,80,1,276,160,47,0,0,432,3472,21432,570,-5.59,,,,,,,,,,,,
147544,1564237539892,8,2.32,0.99,0.37,1.32,0.97,1.32,0.24,0.16,-11,-2,-17,1.34,7786,8,86,40,27,1085,589.0,622,462,60,128.0,80,1,273,160,47,0,0,448,2048,-6524,566,-5.59,44.680729,10.016761,59.68,180.0,0,0.0,-1,0.0,0.0,0,0.5,2.4591
147564,1564237539912,7,2.31,0.99,0.37,1.31,0.98,1.33,0.28,0.2,-12,-1,-17,1.36,7812,7,86,40,27,1091,581.0,625,465,60,128.0,80,1,274,160,47,0,0,435,8488,770,561,-5.59,,,,,,,,,,,,
147584,1564237539932,10,2.3,0.98,0.37,1.31,0.98,1.3,0.3,0.13,-13,-2,-18,1.33,7809,7,86,40,27,1088,579.0,623,463,60,129.0,84,1,274,160,47,0,0,440,243,-8151,555,-5.59,,,,,,,,,,,,
147604,1564237539952,8,2.3,0.98,0.36,1.31,0.98,1.28,0.27,0.07,-15,-1,-18,1.31,7822,7,86,40,27,1075,574.0,624,463,60,128.0,84,1,274,158,47,0,0,444,259,3635,551,-5.59,,,,,,,,,,,,
147624,1564237539972,6,2.31,0.99,0.37,1.31,0.97,1.29,0.29,0.07,-16,-2,-18,1.32,7864,8,86,40,27,1061,570.0,626,464,60,128.0,84,1,274,158,47,0,0,439,-3190,-9166,545,-5.59,,,,,,,,,,,,
147644,1564237539992,6,2.34,0.99,0.37,1.31,0.99,1.23,0.41,0.08,-16,-1,-18,1.3,7968,4,86,40,27,1043,567.0,624,463,60,129.0,84,1,275,158,47,0,0,464,1780,230,540,-5.59,44.680729,10.016761,59.68,180.0,0,0.0,-1,0.0,0.0,0,0.5,2.4607
147664,1564237540006,7,2.37,0.99,0.37,1.31,0.98,1.17,0.48,0.13,-16,0,-20,1.26,7951,8,86,40,26,1018,563.0,625,462,60,129.0,84,1,272,158,47,0,0,508,2211,-14714,537,-5.59,,,,,,,,,,,,
147684,1564237540026,4,2.41,0.99,0.36,1.32,0.97,1.19,0.52,0.09,-15,-0,-19,1.3,7968,6,86,40,27,983,558.0,630,463,60,128.0,88,1,275,158,47,0,0,521,-32504,-10554,535,-5.59,,,,,,,,,,,,
147704,1564237540046,5,2.43,0.99,0.37,1.32,0.98,1.12,0.55,0.16,-14,-0,-19,1.25,8029,7,86,40,26,951,555.0,627,463,60,128.0,88,1,272,159,47,0,0,512,-22263,4838,533,-5.59,,,,,,,,,,,,
147724,1564237540066,5,2.46,0.99,0.37,1.31,0.99,1.13,0.52,0.15,-12,0,-17,1.24,8016,8,86,40,26,933,548.0,625,464,60,128.0,88,1,272,157,47,0,0,504,-506,8841,533,-5.59,,,,,,,,,,,,
147744,1564237540103,3,2.48,0.99,0.37,1.32,0.98,1.19,0.56,0.2,-10,-0,-16,1.32,8002,7,86,40,26,914,539.0,624,463,60,128.0,88,1,272,159,47,0,0,501,-30064,-3866,531,-5.59,44.680706,10.016756,54.28,180.0,0,0.0,-1,0.0,0.0,0,0.5,2.4624
147764,1564237540123,5,2.47,1.0,0.37,1.33,0.99,1.11,0.56,0.17,-7,-1,-14,1.24,8106,7,86,40,26,891,531.0,631,463,60,128.0,88,1,273,163,47,0,0,460,2524,243,531,-5.59,,,,,,,,,,,,
147784,1564237540143,3,2.43,0.99,0.37,1.32,0.99,1.16,0.49,0.12,-5,-1,-10,1.26,8202,7,86,40,26,872,530.0,627,463,60,127.0,92,1,273,168,49,0,0,436,-22519,-32768,529,-5.59,,,,,,,,,,,,
147804,1564237540163,6,2.39,0.99,0.37,1.33,0.98,1.05,0.55,0.12,-4,0,-7,1.19,8256,7,86,40,25,867,530.0,633,466,60,129.0,92,1,270,171,49,0,0,441,16383,-899,526,-5.59,,,,,,,,,,,,
147824,1564237540183,5,2.35,0.99,0.37,1.32,0.99,1.15,0.52,0.18,-3,-2,-5,1.26,8385,7,86,40,25,863,525.0,636,465,60,127.0,92,1,270,179,49,0,0,488,-4054,12552,525,-5.59,,,,,,,,,,,,
147844,1564237540198,3,2.3,0.99,0.37,1.31,0.99,1.13,0.51,0.18,-2,-2,-3,1.24,8488,5,86,40,25,860,525.0,642,465,60,128.0,92,1,270,184,49,0,0,471,-21872,2524,520,-5.59,44.680687,10.016755,52.55,180.0,0,0.0,-1,0.0,0.0,0,0.5,2.4641
147864,1564237540218,7,2.25,0.99,0.37,1.31,0.98,1.07,0.51,0.14,-2,-1,-2,1.18,8546,7,86,40,25,856,518.0,641,461,60,128.0,92,1,270,185,49,0,0,469,-32248,3576,516,-5.59,,,,,,,,,,,,
147884,1564237540238,7,2.21,0.99,0.36,1.31,0.97,1.13,0.58,0.09,-2,-1,-2,1.27,8608,8,86,40,25,857,508.0,643,461,60,128.0,114,1,270,185,59,0,0,473,11560,-16384,509,-5.59,,,,,,,,,,,,
147904,1564237540258,4,2.19,0.98,0.37,1.3,0.97,1.22,0.5,0.1,-3,-1,-2,1.32,8600,7,86,40,25,858,501.0,641,464,60,128.0,114,1,270,178,59,0,0,483,10408,12552,501,-5.59,,,,,,,,,,,,
147924,1564237540278,5,2.16,0.98,0.36,1.31,0.97,1.15,0.43,0.09,-4,0,-3,1.23,8632,7,86,40,25,863,501.0,642,462,60,128.0,114,1,270,185,59,0,0,476,11560,-899,492,-5.59,,,,,,,,,,,,
147944,1564237540298,8,2.13,0.99,0.36,1.31,0.97,1.08,0.58,0.02,-6,2,-4,1.22,8648,7,86,40,25,867,502.0,640,463,60,128.0,114,1,270,185,59,0,0,484,15661,-16384,486,-5.59,44.680687,10.016755,52.55,180.0,0,0.0,-1,0.0,0.0,0,0.5,2.4657
147964,1564237540310,6,2.12,0.98,0.36,1.3,0.97,1.12,0.66,0.02,-8,1,-6,1.3,8688,8,86,40,25,870,500.0,638,462,60,128.0,114,1,270,185,59,0,0,478,10408,-16384,475,-5.59,,,,,,,,,,,,
147984,1564237540330,3,2.12,0.98,0.36,1.3,0.97,1.21,0.7,0.04,-10,-0,-7,1.4,8700,7,86,40,26,873,499.0,641,463,60,128.0,128,1,274,185,61,0,0,483,-22519,3571,471,-5.59,,,,,,,,,,,,
148004,1564237540350,3,2.12,0.97,0.36,1.3,0.98,1.23,0.59,0.06,-12,-1,-10,1.36,8737,2,86,40,26,880,499.0,648,463,60,128.0,128,1,274,185,61,0,0,483,-9216,-18341,465,-5.59,,,,,,,,,,,,
148024,1564237540370,-2,2.13,0.98,0.36,1.31,0.97,1.15,0.62,0.03,-14,-1,-13,1.31,8724,6,86,40,27,887,495.0,642,466,60,128.0,128,1,278,185,61,0,0,487,998,19477,463,-5.59,,,,,,,,,,,,
148044,1564237540390,1,2.13,0.98,0.37,1.3,0.98,1.05,0.76,0.06,-14,0,-14,1.29,8672,0,86,40,27,892,494.0,644,465,60,128.0,128,1,278,185,61,0,0,484,998,13552,460,-5.59,44.680679,10.016754,50.36,180.0,0,0.0,-1,0.0,0.0,0,0.51,2.4674
148064,1564237540406,2,2.12,0.98,0.36,1.31,0.98,1.13,0.85,0.06,-16,-1,-15,1.41,8581,5,86,40,27,896,492.0,641,458,60,127.0,128,1,278,185,61,0,0,488,-32768,-3322,457,-5.59,,,,,,,,,,,,
148084,1564237540426,0,2.11,0.98,0.36,1.31,0.97,1.09,0.66,-0.05,-17,-1,-17,1.28,8476,5,86,40,27,915,490.0,641,465,60,129.0,129,1,278,183,59,0,0,481,-1818,5600,457,-5.59,,,,,,,,,,,,
148104,1564237540446,3,2.12,0.98,0.37,1.31,0.98,1.05,0.73,0.09,-18,1,-20,1.28,8434,1,86,40,28,935,487.0,641,462,60,128.0,129,1,282,181,59,0,0,482,1,13180,454,-5.59,,,,,,,,,,,,
148124,1564237540466,1,2.13,0.98,0.36,1.31,0.97,1.1,0.74,0.12,-18,0,-21,1.32,8393,0,86,41,28,952,487.0,638,464,60,128.0,129,1,281,180,59,0,0,476,505,13180,452,-5.59,,,,,,,,,,,,
148144,1564237540502,0,2.11,0.98,0.36,1.31,0.97,0.99,0.74,0.04,-19,0,-22,1.23,8426,3,86,41,28,968,481.0,637,463,60,128.0,129,1,282,180,59,0,0,471,32033,3635,449,-5.59,44.680653,10.016754,46.71,180.1,0,0.0,-1,0.0,0.0,0,0.51,2.4691
148164,1564237540522,2,2.11,0.98,0.37,1.31,0.97,1.03,0.82,0.11,-20,-0,-24,1.32,8419,3,86,41,28,995,478.0,638,461,60,128.0,129,1,282,180,59,0,0,465,16648,243,447,-5.59,,,,,,,,,,,,
148184,1564237540542,-1,2.12,0.98,0.37,1.3,0.98,1.06,0.66,0.11,-20,-1,-25,1.25,8370,5,86,41,28,1027,476.0,633,464,60,128.0,125,1,282,177,56,0,0,466,-23367,31796,445,-5.59,,,,,,,,,,,,
148204,1564237540562,2,2.12,0.98,0.36,1.31,0.98,1.03,0.74,0.21,-20,-1,-26,1.27,8355,0,86,41,27,1048,473.0,637,462,60,129.0,125,1,277,177,56,0,0,463,3576,3635,442,-5.59,,,,,,,,,,,,
148224,1564237540582,-0,2.13,0.98,0.37,1.31,0.97,1.07,0.77,0.17,-21,-1,-26,1.32,8381,7,86,41,27,1064,473.0,632,465,60,128.0,125,1,277,177,56,0,0,464,8488,13180,441,-5.59,,,,,,,,,,,,
148244,1564237540598,4,2.12,0.98,0.36,1.32,0.98,0.96,0.85,0.13,-21,-0,-26,1.29,8366,2,86,41,27,1078,470.0,632,462,60,128.0,125,1,277,176,56,0,0,465,8488,3826,438,-5.59,44.680645,10.016757,45.53,180.1,0,0.0,-1,0.0,0.0,0,0.51,2.4707
148264,1564237540618,2,2.12,0.98,0.37,1.31,0.97,1.03,0.87,0.18,-21,-1,-28,1.35,8337,3,86,41,26,1092,468.0,630,462,60,128.0,125,1,273,174,56,0,0,459,-16384,13180,435,-5.59,,,,,,,,,,,,
148284,1564237540638,2,2.11,0.99,0.37,1.32,0.98,0.95,0.77,0.07,-22,-0,-28,1.23,8278,7,86,41,26,1098,466.0,632,465,60,129.0,123,1,273,172,54,0,0,458,-3210,31796,435,-5.59,,,,,,,,,,,,
148304,1564237540658,0,2.13,0.98,0.36,1.31,0.98,1.03,0.77,0.24,-22,-2,-29,1.29,8270,3,86,41,26,1095,464.0,636,462,60,127.0,123,1,273,172,54,0,0,459,16408,13552,433,-5.59,,,,,,,,,,,,
148324,1564237540678,2,2.12,0.98,0.37,1.31,0.98,0.99,0.68,0.22,-22,-1,-30,1.2,8274,6,86,41,25,1078,463.0,640,465,60,128.0,123,1,270,172,54,0,0,461,12552,3826,432,-5.59,,,,,,,,,,,,
148344,1564237540692,-0,2.13,0.98,0.36,1.31,0.97,1.08,0.74,0.34,-22,-2,-30,1.31,8230,8,87,41,25,1051,463.0,635,462,60,128.0,123,1,270,169,54,0,0,454,6193,3826,430,-5.59,44.68063,10.016759,44.08,180.1,0,0.0,-1,0.0,0.0,0,0.51,2.4724
148364,1564237540712,2,2.14,0.98,0.37,1.31,0.98,1.0,0.73,0.32,-21,-1,-31,1.24,8173,6,87,41,25,1026,459.0,640,464,60,128.0,123,1,270,166,54,0,0,454,-18108,3826,426,-5.59,,,,,,,,,,,,
148384,1564237540732,1,2.15,0.98,0.37,1.31,0.98,1.06,0.72,0.38,-22,-1,-31,1.28,8130,4,87,41,26,1001,457.0,638,461,60,128.0,119,1,273,166,51,0,0,447,-9160,3826,425,-5.59,,,,,,,,,,,,
148404,1564237540752,3,2.17,0.98,0.37,1.32,0.98,0.99,0.78,0.37,-21,-1,-30,1.26,8152,9,87,41,25,973,454.0,631,462,60,128.0,119,1,270,166,51,0,0,451,2524,-21792,426,-5.59,,,,,,,,,,,,
148424,1564237540772,1,2.2,0.98,0.37,1.31,0.98,1.06,0.71,0.41,-20,-3,-31,1.28,8092,3,87,41,26,940,454.0,633,464,60,127.0,119,1,273,161,51,0,0,445,2524,-8165,423,-5.59,,,,,,,,,,,,
148444,1564237540792,3,2.23,0.99,0.36,1.31,0.98,1.11,0.74,0.44,-19,-3,-30,1.34,8061,8,87,41,26,915,450.0,630,466,60,128.0,119,1,273,160,51,0,0,445,-3267,-3414,423,-5.59,44.68063,10.016759,44.08,180.1,0,0.0,-1,0.0,0.0,0,0.51,2.4741
148464,1564237540808,4,2.26,0.99,0.37,1.31,0.99,1.01,0.67,0.36,-18,-2,-29,1.22,8064,9,87,41,26,906,445.0,627,461,60,128.0,119,1,273,160,51,0,0,441,2131,18584,425,-5.59,,,,,,,,,,,,
148484,1564237540828,1,2.29,0.99,0.37,1.31,0.99,1.11,0.59,0.41,-16,-3,-28,1.26,8040,5,86,41,26,897,442.0,625,465,60,127.0,113,1,272,157,48,0,0,433,20625,-8165,424,-5.59,,,,,,,,,,,,
148504,1564237540848,2,2.33,0.99,0.37,1.32,0.99,1.14,0.56,0.43,-14,-3,-27,1.27,7958,9,86,41,26,887,438.0,621,464,60,128.0,113,1,272,157,48,0,0,434,21580,-3414,423,-5.59,,,,,,,,,,,,
148524,1564237540868,3,2.36,0.99,0.37,1.32,0.99,1.03,0.46,0.43,-12,-3,-26,1.13,7955,9,87,41,26,880,431.0,624,463,60,128.0,113,1,272,157,48,0,0,429,1779,-3414,425,-5.59,,,,,,,,,,,,
148544,1564237540888,3,2.38,0.99,0.38,1.33,0.98,1.03,0.46,0.39,-10,-3,-23,1.13,7874,9,87,41,27,879,428.0,623,462,60,128.0,113,1,274,158,48,0,0,420,-3314,-21792,426,-5.59,44.680622,10.016764,43.36,180.1,0,0.0,-1,0.0,0.0,0,0.51,2.4757
148564,1564237540904,2,2.4,0.99,0.37,1.32,0.98,1.09,0.42,0.41,-8,-3,-21,1.17,7845,9,86,41,27,879,427.0,624,464,60,127.0,113,1,274,158,48,0,0,416,-4082,13552,427,-5.59,,,,,,,,,,,,
148584,1564237540924,2,2.43,0.99,0.38,1.33,0.99,1.08,0.29,0.46,-6,-3,-19,1.12,7828,10,87,41,27,879,428.0,625,461,60,128.0,110,1,274,158,47,0,0,417,3826,13552,428,-5.59,,,,,,,,,,,,
148604,1564237540944,2,2.45,0.99,0.37,1.32,0.99,1.04,0.16,0.44,-4,-1,-15,1.06,7789,10,87,41,27,879,428.0,623,463,60,129.0,110,1,273,158,47,0,0,413,-21944,-4082,428,-5.59,,,,,,,,,,,,
148624,1564237540964,3,2.48,0.98,0.37,1.32,1.0,1.04,0.1,0.4,-2,-1,-13,1.04,7799,10,87,41,27,879,428.0,622,465,60,129.0,110,1,273,158,47,0,0,407,13040,3826,428,-5.59,,,,,,,,,,,,
148644,1564237540999,3,2.5,0.99,0.37,1.33,0.99,1.01,0.0,0.34,0,-2,-10,1.01,7776,10,87,41,27,879,429.0,618,463,60,129.0,110,1,273,158,47,0,0,407,-4059,31796,427,-5.59,44.680603,10.016774,42.13,180.1,0,0.0,-1,0.0,0.0,0,0.51,2.4774
148664,1564237541019,-2,2.52,1.0,0.38,1.32,1.0,1.0,-0.07,0.31,3,-2,-6,1.0,7722,10,86,41,27,879,428.0,617,463,60,128.0,110,1,273,160,47,0,0,403,-9211,-4082,428,-5.59,,,,,,,,,,,,
148684,1564237541039,-0,2.54,0.99,0.38,1.32,0.99,1.07,-0.1,0.38,5,-3,-3,1.07,7728,11,87,41,28,879,429.0,617,465,60,128.0,106,1,276,160,46,0,0,400,-8151,31796,429,-5.59,,,,,,,,,,,,
148704,1564237541059,1,2.55,1.0,0.37,1.33,0.99,1.07,-0.22,0.39,7,-3,-1,1.09,7697,10,87,41,28,880,429.0,611,463,60,129.0,106,1,276,160,46,0,0,392,10541,13552,427,-5.59,,,,,,,,,,,,
148724,1564237541079,1,2.57,0.99,0.38,1.33,1.0,1.03,-0.26,0.44,9,-3,3,1.06,7681,10,87,41,28,881,431.0,610,465,60,129.0,106,1,276,160,46,0,0,391,6384,13180,431,-5.59,,,,,,,,,,,,
148744,1564237541093,0,2.58,1.0,0.37,1.33,0.99,1.0,-0.34,0.41,11,-1,7,1.06,7609,10,87,41,28,883,429.0,607,463,60,129.0,106,1,276,160,46,0,0,388,6384,3635,429,-5.59,44.680592,10.016779,41.36,180.1,0,0.0,-1,0.0,0.0,0,0.51,2.4791
148764,1564237541113,1,2.6,1.0,0.37,1.33,1.0,0.95,-0.4,0.42,12,-1,9,1.03,7578,10,87,41,28,886,429.0,610,463,60,130.0,106,1,275,160,46,0,0,383,17144,3826,429,-5.59,,,,,,,,,,,,
148784,1564237541133,0,2.61,0.99,0.38,1.32,1.0,0.93,-0.51,0.4,14,-1,11,1.07,7509,10,87,41,28,889,426.0,605,462,60,130.0,105,1,275,160,45,0,0,377,-6656,-8165,426,-5.59,,,,,,,,,,,,
148804,1564237541153,0,2.64,0.99,0.37,1.32,0.99,0.91,-0.59,0.4,16,-0,15,1.09,7497,10,87,41,29,892,426.0,607,463,60,128.0,105,1,278,161,45,0,0,381,505,3826,426,-5.59,,,,,,,,,,,,
148824,1564237541173,1,2.65,0.99,0.37,1.33,1.0,0.88,-0.68,0.43,18,0,19,1.11,7440,9,87,41,29,898,427.0,602,462,60,128.0,105,1,278,161,45,0,0,374,-31744,-4082,427,-5.59,,,,,,,,,,,,
148844,1564237541193,-0,2.66,1.0,0.38,1.33,1.0,0.89,-0.76,0.5,19,-1,19,1.17,7422,9,87,41,29,903,427.0,600,462,60,129.0,105,1,278,161,45,0,0,362,240,3635,424,-5.59,44.680592,10.016779,41.36,180.1,0,0.0,-1,0.0,0.0,0,0.52,2.4807
148864,1564237541209,-1,2.67,1.0,0.38,1.33,0.99,0.92,-0.88,0.55,21,-1,20,1.27,7381,9,87,41,29,906,424.0,597,461,60,128.0,105,1,278,161,45,0,0,357,-19126,-3414,424,-5.59,,,,,,,,,,,,
148884,1564237541229,0,2.66,1.0,0.38,1.32,1.0,0.94,-0.98,0.58,22,-1,25,1.36,7327,10,87,41,30,908,424.0,596,463,60,129.0,105,1,282,163,45,0,0,352,19125,3826,424,-5.59,,,,,,,,,,,,
148904,1564237541249,4,2.67,0.99,0.38,1.33,1.0,0.98,-0.93,0.56,24,-2,28,1.36,7225,9,87,41,30,909,427.0,592,461,60,127.0,105,1,282,163,45,0,0,353,-18948,-8165,427,-5.59,,,,,,,,,,,,
148924,1564237541269,1,2.66,1.0,0.38,1.33,0.99,0.99,-0.89,0.51,26,-3,27,1.33,7178,10,87,41,30,910,425.0,586,461,60,128.0,105,1,281,163,45,0,0,348,-992,3826,425,-5.59,,,,,,,,,,,,
148944,1564237541289,1,2.66,1.0,0.38,1.34,0.99,0.98,-0.94,0.45,28,-3,29,1.36,7110,10,87,41,31,909,425.0,555,464,60,128.0,105,1,285,164,45,0,0,345,-6656,3826,425,-5.59,44.680584,10.016783,40.63,180.1,0,0.0,-1,0.0,0.0,0,0.52,2.4824
148964,1564237541305,-0,2.66,1.0,0.38,1.32,1.0,1.0,-1.01,0.45,29,-2,32,1.42,7038,10,87,41,31,907,424.0,431,462,60,128.0,105,1,285,164,45,0,0,339,3,-3414,424,-5.59,,,,,,,,,,,,
148984,1564237541325,1,2.67,0.99,0.38,1.33,1.0,1.02,-1.01,0.42,30,-2,35,1.43,7011,11,87,41,31,904,423.0,399,460,60,129.0,101,1,285,166,43,0,0,328,-6656,-8165,421,-5.59,,,,,,,,,,,,
149004,1564237541345,-1,2.67,1.0,0.38,1.34,0.99,0.96,-1.02,0.36,31,-1,37,1.4,6985,14,87,41,32,900,422.0,352,463,60,128.0,101,1,290,166,43,0,0,320,1,7154,422,-5.59,,,,,,,,,,,,
149024,1564237541365,2,2.67,0.99,0.38,1.33,1.0,1.02,-1.06,0.41,31,-4,37,1.47,6895,21,87,41,34,898,420.0,316,460,60,128.0,101,1,295,176,43,0,0,316,257,13040,420,-5.59,,,,,,,,,,,,
149044,1564237541385,0,2.66,1.0,0.37,1.33,0.99,1.0,-1.02,0.34,32,-3,38,1.43,6893,32,87,41,38,896,420.0,304,465,60,128.0,101,1,307,199,43,0,0,313,257,-4059,420,-5.59,44.680569,10.016785,40.48,180.2,0,0.0,-1,0.0,0.0,0,0.52,2.4841
149064,1564237541401,-1,2.66,1.0,0.38,1.33,0.99,0.97,-1.08,0.35,33,-2,38,1.45,6903,45,87,41,45,894,419.0,315,460,60,129.0,101,1,354,214,43,0,0,313,486,-26615,417,-5.59,,,,,,,,,,,,
149084,1564237541421,2,2.67,1.0,0.38,1.33,0.99,1.02,-1.1,0.32,33,-4,39,1.5,6900,61,87,41,56,893,417.0,288,462,60,128.0,139,1,397,262,58,0,0,315,486,-9166,417,-5.59,,,,,,,,,,,,
149104,1564237541441,-1,2.65,0.99,0.38,1.33,1.0,0.97,-1.17,0.32,34,-3,40,1.52,6873,74,87,41,69,894,416.0,284,464,60,127.0,139,1,386,317,58,0,0,310,0,-4059,416,-5.59,,,,,,,,,,,,
149124,1564237541461,2,2.64,0.99,0.38,1.33,1.0,1.02,-1.21,0.34,34,-3,41,1.58,6805,90,87,41,83,895,415.0,285,465,60,130.0,139,1,371,472,58,0,0,312,0,13040,415,-5.59,,,,,,,,,,,,
149144,1564237541499,1,2.62,1.0,0.38,1.33,1.0,0.9,-1.18,0.35,34,-1,42,1.48,6708,98,87,41,91,898,415.0,297,463,60,128.0,139,1,355,512,58,0,0,307,230,-9166,415,-5.59,44.68055,10.016786,39.58,180.2,0,0.0,-1,0.0,0.0,0,0.52,2.4857
149164,1564237541519,1,2.6,0.97,0.37,1.34,0.99,1.01,-1.13,0.31,34,-4,43,1.52,6595,100,87,41,93,900,414.0,288,462,60,127.0,139,1,348,514,58,0,0,308,230,-9166,414,-5.59,,,,,,,,,,,,
149184,1564237541539,4,2.59,1.01,0.38,1.34,0.99,0.94,-1.18,0.41,33,-3,44,1.51,6567,100,87,42,93,903,413.0,281,462,60,128.0,309,1,347,514,128,0,0,307,230,-26615,412,-5.59,,,,,,,,,,,,
149204,1564237541559,0,2.58,1.0,0.38,1.33,0.99,0.91,-1.13,0.33,33,-2,44,1.45,6592,100,87,42,93,905,413.0,280,467,60,128.0,309,1,348,514,128,0,0,308,0,-26615,413,-5.59,,,,,,,,,,,,
149224,1564237541579,3,2.57,1.0,0.38,1.33,1.0,0.99,-1.09,0.35,32,-3,44,1.47,6682,100,87,42,93,954,408.0,290,461,60,127.0,309,1,353,515,128,0,0,304,0,10541,408,-5.59,,,,,,,,,,,,
149244,1564237541593,1,2.56,1.0,0.38,1.32,0.99,0.93,-1.08,0.31,31,-1,45,1.42,6800,100,87,42,94,1050,407.0,288,462,60,127.0,309,1,359,517,128,0,0,303,0,1504,407,-5.59,44.680542,10.016784,39.28,180.2,0,0.0,-1,0.0,0.0,0,0.52,2.4874
149264,1564237541613,1,2.55,0.99,0.38,1.33,0.99,0.95,-1.13,0.37,30,-1,44,1.48,7033,100,87,42,94,1145,407.0,283,462,60,128.0,309,1,371,519,128,0,0,320,0,-8151,407,-5.59,,,,,,,,,,,,
149284,1564237541633,0,2.56,0.99,0.38,1.34,0.99,0.93,-1.08,0.48,30,-1,43,1.43,7491,100,87,42,93,1240,405.0,283,462,60,128.0,348,1,407,539,141,0,0,367,0,-8151,405,-5.59,,,,,,,,,,,,
149304,1564237541653,-1,2.55,1.0,0.37,1.33,1.0,0.91,-1.1,0.49,29,-1,42,1.43,7975,100,87,42,92,1333,402.0,282,460,60,128.0,348,1,446,560,141,0,0,363,0,2524,401,-5.59,,,,,,,,,,,,
149324,1564237541673,1,2.53,0.99,0.37,1.33,0.99,0.69,-1.02,0.44,29,1,42,1.23,8644,100,87,42,89,1427,401.0,284,461,60,128.0,348,1,430,617,141,0,0,366,230,6512,399,-5.59,,,,,,,,,,,,
149344,1564237541693,1,2.52,1.0,0.38,1.33,0.99,0.6,-1.04,0.51,28,4,43,1.2,9088,100,87,42,87,1498,401.0,305,466,60,128.0,348,1,418,584,141,0,0,396,0,13040,401,-5.59,44.680542,10.016784,39.28,180.2,0,0.0,-1,0.0,0.0,0,0.52,2.4891
149364,1564237541710,0,2.5,0.99,0.38,1.33,0.99,0.4,-0.98,0.63,27,6,42,1.06,9084,100,87,42,87,1498,408.0,318,461,60,127.0,348,1,418,573,141,0,0,537,770,5600,408,-5.59,,,,,,,,,,,,
149384,1564237541730,-0,2.45,0.99,0.37,1.32,0.99,0.35,-0.94,0.75,27,6,42,1.0,9053,100,87,42,87,1476,417.0,327,461,60,127.0,485,1,418,584,198,0,0,547,2278,-899,417,-5.59,,,,,,,,,,,,
149404,1564237541750,3,2.44,0.99,0.37,1.33,0.99,0.3,-0.96,0.81,27,7,41,1.01,9141,100,87,42,87,1417,423.0,350,465,60,127.0,485,1,418,573,198,0,0,427,-6475,-3210,423,-5.59,,,,,,,,,,,,
149424,1564237541770,3,2.42,0.99,0.38,1.32,0.99,0.23,-0.9,0.81,27,8,40,0.93,9115,100,87,42,86,1358,426.0,384,472,60,127.0,485,1,418,573,198,0,0,425,1,32033,429,-5.59,,,,,,,,,,,,
149444,1564237541790,3,2.38,0.99,0.37,1.33,0.98,0.29,-0.89,0.77,27,8,36,0.94,940,100,87,42,89,1299,432.0,412,465,60,127.0,485,1,90,266,198,0,0,500,28696,14488,432,-5.59,44.680531,10.016781,38.55,180.2,0,0.0,-1,0.0,0.0,0,0.52,2.4907
149464,1564237541803,3,2.36,1.0,0.37,1.33,0.99,0.32,-0.84,0.6,27,5,35,0.9,7183,100,87,42,92,1244,433.0,432,461,60,127.0,485,1,385,527,198,0,0,440,1504,20625,433,-5.59,,,,,,,,,,,,
149484,1564237541823,1,2.33,0.99,0.37,1.32,0.99,0.33,-0.84,0.62,24,2,33,0.91,7078,100,87,42,93,1198,427.0,445,458,60,129.0,324,1,376,521,140,0,0,410,-9211,31796,428,-5.59,,,,,,,,,,,,
149504,1564237541843,1,2.3,0.99,0.37,1.31,0.98,0.33,-0.78,0.66,20,-1,30,0.84,7181,100,87,42,92,1161,418.0,458,460,60,128.0,324,1,385,527,140,0,0,410,9517,7154,418,-5.59,,,,,,,,,,,,
149524,1564237541863,1,2.26,0.98,0.36,1.3,0.97,0.37,-0.69,0.66,16,-3,27,0.78,7470,100,87,42,93,1174,414.0,465,463,60,127.0,324,1,406,538,140,0,0,412,-4059,-21944,414,-5.59,,,,,,,,,,,,
149544,1564237541902,3,2.24,0.98,0.36,1.3,0.97,0.32,-0.51,0.59,13,-3,26,0.6,7838,100,87,42,92,1196,416.0,465,463,60,128.0,324,1,435,556,140,0,0,413,7154,-3414,416,-5.59,44.680512,10.016771,41.78,180.2,0,0.0,-1,0.0,0.0,0,0.52,2.4924
149564,1564237541922,4,2.23,0.98,0.36,1.3,0.97,0.2,-0.38,0.5,10,-4,24,0.43,8534,100,87,42,90,1255,423.0,480,463,60,127.0,324,1,435,617,140,0,0,421,3826,18584,416,-5.59,,,,,,,,,,,,
149584,1564237541942,1,2.23,0.98,0.36,1.3,0.97,0.04,-0.15,0.42,8,-1,22,0.15,9173,98,87,42,87,1314,426.0,494,462,60,127.0,489,1,418,584,203,0,0,426,13552,-3414,416,-5.59,,,,,,,,,,,,
149604,1564237541962,2,2.26,0.99,0.36,1.31,0.97,0.04,-0.07,0.57,7,0,19,0.08,9484,100,87,42,86,1359,429.0,526,458,60,127.0,489,1,418,573,203,0,0,445,3635,16408,417,-5.59,,,,,,,,,,,,
149624,1564237541982,0,2.27,0.98,0.37,1.31,0.98,0.13,-0.23,0.69,5,4,15,0.27,9522,98,87,42,86,1405,440.0,556,472,60,127.0,489,1,418,573,203,0,0,480,20625,-28648,424,-5.59,,,,,,,,,,,,
149644,1564237541992,1,2.27,0.99,0.36,1.31,0.97,0.29,-0.3,0.75,4,3,11,0.42,8314,86,87,42,88,1400,446.0,582,456,60,128.0,489,1,439,684,203,0,0,468,16648,-16384,431,-5.59,44.680504,10.016766,41.84,180.3,0,0.0,-1,0.0,0.0,0,0.52,2.4941
149664,1564237542012,1,2.27,0.98,0.37,1.31,0.98,0.32,-0.14,0.65,3,1,8,0.35,7822,100,87,42,90,1396,449.0,583,458,60,129.0,489,1,436,646,203,0,0,458,15649,26704,435,-5.59,,,,,,,,,,,,
149684,1564237542032,1,2.26,0.99,0.36,1.31,0.97,0.34,0.01,0.57,2,-0,8,0.34,7588,57,87,42,91,1348,447.0,582,458,60,128.0,360,1,417,635,157,0,0,451,10305,20625,436,-5.59,,,,,,,,,,,,
149704,1564237542052,3,2.23,0.99,0.36,1.31,0.97,0.33,0.09,0.55,3,-1,6,0.34,7554,98,87,42,92,1298,442.0,578,460,60,128.0,360,1,413,629,157,0,0,443,26704,-7939,434,-5.59,,,,,,,,,,,,
149724,1564237542072,2,2.2,0.98,0.36,1.31,0.97,0.43,0.16,0.49,1,-2,3,0.46,7968,61,87,42,91,1297,440.0,581,460,60,128.0,360,1,447,669,157,0,0,443,20625,-768,434,-5.59,,,,,,,,,,,,
149744,1564237542092,1,2.18,0.99,0.36,1.31,0.97,0.59,0.06,0.59,-1,-2,1,0.6,8624,97,87,42,89,1297,440.0,597,456,60,128.0,360,1,431,719,157,0,0,447,20625,-768,433,-5.59,44.680504,10.016766,41.84,180.3,0,0.0,-1,0.0,0.0,0,0.53,2.4957
149764,1564237542106,3,2.17,0.98,0.36,1.31,0.97,0.58,0.16,0.54,-3,1,-0,0.6,9263,94,87,42,86,1335,447.0,626,466,60,128.0,360,1,418,664,157,0,0,446,10305,26704,433,-5.59,,,,,,,,,,,,
149784,1564237542126,1,2.15,0.97,0.37,1.3,0.98,0.53,0.29,0.52,-5,2,-0,0.6,9674,97,87,42,86,1385,453.0,640,465,60,127.0,533,1,411,641,231,0,0,471,-8985,-6441,435,-5.59,,,,,,,,,,,,
149804,1564237542146,3,2.16,0.98,0.37,1.31,0.98,0.4,0.26,0.58,-7,3,-4,0.48,9811,91,87,42,85,1435,464.0,653,461,60,128.0,533,1,404,613,231,0,0,485,16408,-22519,438,-5.59,,,,,,,,,,,,
149824,1564237542166,-1,2.16,0.98,0.36,1.31,0.97,0.52,0.44,0.72,-9,2,-5,0.68,9915,89,86,42,85,1486,472.0,652,468,60,127.0,533,1,399,595,231,0,0,506,-1923,6274,442,-5.59,,,,,,,,,,,,
149844,1564237542202,1,2.15,0.98,0.37,1.31,0.98,0.56,0.27,0.85,-10,6,-7,0.62,9445,92,87,42,86,1498,478.0,644,467,60,127.0,533,1,418,587,231,0,0,508,16648,6193,445,-5.59,44.680485,10.016754,43.26,180.4,0,0.0,-1,0.0,0.0,0,0.53,2.4974
149864,1564237542222,2,2.15,0.99,0.36,1.31,0.98,0.59,0.44,0.81,-12,3,-9,0.74,9445,92,87,42,87,1498,481.0,644,466,60,127.0,533,1,418,584,231,0,0,498,32033,-17956,452,-5.59,,,,,,,,,,,,
149884,1564237542242,3,2.14,0.98,0.36,1.3,0.98,0.52,0.5,0.7,-12,0,-10,0.72,7982,94,87,42,89,1451,482.0,621,463,60,128.0,462,1,446,549,209,0,0,489,-899,3576,454,-5.59,,,,,,,,,,,,
149904,1564237542262,0,2.13,0.98,0.35,1.3,0.96,0.67,0.33,0.73,-13,-1,-11,0.75,7888,90,87,42,91,1387,478.0,610,465,60,127.0,462,1,440,553,209,0,0,478,16648,-6387,454,-5.59,,,,,,,,,,,,
149924,1564237542282,3,2.13,0.97,0.35,1.3,0.96,0.54,0.45,0.63,-13,-2,-12,0.7,8256,94,87,42,90,1323,475.0,622,458,60,128.0,462,1,443,588,209,0,0,474,-17956,-9160,452,-5.59,,,,,,,,,,,,
149944,1564237542298,0,2.12,0.96,0.35,1.3,0.96,0.34,0.6,0.6,-13,-1,-12,0.69,8836,32,87,42,88,1260,476.0,621,462,60,127.0,462,1,423,579,209,0,0,476,2212,-18108,453,-5.59,44.680473,10.016749,45.45,180.4,0,0.0,-1,0.0,0.0,0,0.53,2.4991
149964,1564237542318,2,2.12,0.98,0.35,1.3,0.97,0.38,0.64,0.65,-14,-2,-14,0.74,9436,100,87,42,87,1243,480.0,638,463,60,128.0,462,1,418,525,209,0,0,477,8488,-23623,452,-5.59,,,,,,,,,,,,
149984,1564237542338,2,2.13,0.97,0.35,1.29,0.97,0.37,0.66,0.78,-15,-3,-16,0.76,9994,94,87,42,85,1243,482.0,651,469,60,128.0,541,1,402,660,244,0,0,487,-899,10432,453,-5.59,,,,,,,,,,,,
150004,1564237542358,3,2.12,0.97,0.35,1.3,0.97,0.21,0.61,0.86,-16,2,-18,0.64,10382,97,87,42,85,1274,488.0,660,466,60,128.0,541,1,422,664,244,0,0,507,248,-28648,457,-5.59,,,,,,,,,,,,
150024,1564237542378,1,2.12,0.97,0.36,1.3,0.97,0.25,0.45,0.95,-18,5,-20,0.51,10504,100,87,42,85,1337,499.0,662,467,60,128.0,541,1,431,644,244,0,0,528,11560,3472,459,-5.59,,,,,,,,,,,,
150044,1564237542392,3,2.12,0.98,0.36,1.3,0.97,0.33,0.51,1.05,-20,3,-23,0.61,10665,59,87,42,85,1365,504.0,660,467,60,127.0,541,1,435,552,244,0,0,543,-32248,-22519,461,-5.59,44.680462,10.016746,45.67,180.4,0,0.0,-1,0.0,0.0,0,0.53,2.5007
150064,1564237542412,2,2.13,0.97,0.36,1.3,0.98,0.21,0.64,1.14,-21,6,-24,0.68,10569,94,87,42,85,1365,512.0,655,463,60,127.0,541,1,432,659,244,0,0,548,17136,-3856,467,-5.59,,,,,,,,,,,,
150084,1564237542432,1,2.13,0.98,0.36,1.31,0.97,0.33,0.54,1.23,-22,3,-25,0.63,10569,97,87,42,86,1335,519.0,657,462,60,127.0,561,1,433,665,262,0,0,552,-8187,243,472,-5.59,,,,,,,,,,,,
150104,1564237542452,-0,2.12,0.98,0.35,1.31,0.97,0.24,0.68,1.09,-21,2,-23,0.72,8827,95,87,42,88,1271,517.0,640,464,60,128.0,561,1,424,661,262,0,0,532,15679,2524,468,-5.59,,,,,,,,,,,,
150124,1564237542472,1,2.14,0.97,0.36,1.29,0.97,0.27,0.81,0.9,-20,0,-22,0.86,8542,95,87,42,89,1198,514.0,632,460,60,128.0,561,1,434,646,262,0,0,518,-3482,248,466,-5.59,,,,,,,,,,,,
150144,1564237542492,2,2.13,0.96,0.35,1.29,0.97,0.44,0.62,0.91,-21,-3,-24,0.76,8426,93,87,42,88,1116,509.0,631,463,60,129.0,561,1,436,621,262,0,0,510,10994,-899,466,-5.59,44.680462,10.016746,45.67,180.4,0,0.0,-1,0.0,0.0,0,0.53,2.5024
150164,1564237542508,2,2.14,0.97,0.35,1.28,0.95,0.53,0.49,0.9,-20,-5,-27,0.72,8806,96,87,42,88,1052,509.0,631,465,60,128.0,561,1,424,627,262,0,0,512,10994,-1818,477,-5.59,,,,,,,,,,,,
150184,1564237542528,0,2.15,0.97,0.35,1.28,0.97,0.54,0.64,0.75,-20,-5,-27,0.83,9474,96,87,42,86,1032,511.0,639,463,60,128.0,427,1,418,577,205,0,0,510,-3856,8488,483,-5.59,,,,,,,,,,,,
150204,1564237542548,1,2.16,0.98,0.35,1.3,0.96,0.36,0.77,0.67,-20,-6,-27,0.85,10135,96,87,42,85,1051,515.0,658,464,60,126.0,427,1,405,567,205,0,0,518,-14,8488,484,-5.59,,,,,,,,,,,,
150224,1564237542568,2,2.16,0.97,0.36,1.29,0.98,0.33,0.72,0.44,-21,-3,-27,0.79,10659,87,87,42,84,1115,517.0,662,462,60,128.0,427,1,434,534,205,0,0,517,15679,3580,483,-5.59,,,,,,,,,,,,
150244,1564237542602,4,2.16,0.98,0.36,1.29,0.97,0.4,0.65,0.6,-22,-7,-29,0.76,10977,93,87,42,84,1182,521.0,667,465,60,127.0,427,1,442,633,205,0,0,539,-9212,-9072,490,-5.59,44.680439,10.016741,48.79,180.5,0,0.0,-1,0.0,0.0,0,0.53,2.5041
150264,1564237542622,1,2.16,0.97,0.36,1.31,0.97,0.33,0.76,0.65,-23,-3,-28,0.82,11003,93,87,42,83,1265,530.0,664,465,60,128.0,427,1,442,614,205,0,0,551,2524,-4876,492,-5.59,,,,,,,,,,,,
150284,1564237542642,1,2.17,0.98,0.36,1.3,0.97,0.25,0.83,0.51,-23,-2,-27,0.87,11055,90,87,42,84,1331,531.0,666,460,60,127.0,500,1,443,595,246,0,0,567,-22519,1,494,-5.59,,,,,,,,,,,,
150304,1564237542662,2,2.18,0.97,0.36,1.3,0.98,0.39,0.65,0.66,-22,-2,-28,0.76,10952,92,87,42,84,1342,536.0,665,462,60,128.0,500,1,441,581,246,0,0,580,-28648,-2934,499,-5.59,,,,,,,,,,,,
150324,1564237542682,1,2.18,0.97,0.36,1.3,0.97,0.39,0.65,0.79,-22,-1,-29,0.76,10813,89,87,42,84,1337,544.0,661,466,60,128.0,500,1,438,563,246,0,0,581,-506,-32504,507,-5.59,,,,,,,,,,,,
150344,1564237542698,1,2.19,0.98,0.36,1.3,0.97,0.44,0.5,0.85,-22,-0,-29,0.66,9699,90,87,42,86,1266,545.0,655,468,60,127.0,500,1,410,578,246,0,0,574,-506,-3210,508,-5.59,44.680428,10.016739,49.35,180.5,0,0.0,-1,0.0,0.0,0,0.53,2.5057
150364,1564237542718,3,2.19,0.98,0.35,1.31,0.97,0.52,0.65,0.74,-21,-4,-29,0.84,9407,92,87,42,87,1191,546.0,652,457,60,128.0,500,1,418,584,246,0,0,557,2524,-32248,513,-5.59,,,,,,,,,,,,
150384,1564237542738,2,2.19,0.97,0.35,1.3,0.97,0.51,0.74,0.65,-20,-6,-28,0.9,9398,92,87,41,87,1103,543.0,648,462,60,127.0,409,1,418,584,209,0,0,545,1779,6274,520,-5.59,,,,,,,,,,,,
150404,1564237542758,2,2.19,0.98,0.35,1.29,0.97,0.43,0.81,0.59,-19,-7,-27,0.92,9894,91,87,41,86,1014,543.0,650,460,60,127.0,409,1,401,583,209,0,0,545,1779,-28648,521,-5.59,,,,,,,,,,,,
150424,1564237542778,1,2.2,0.97,0.36,1.3,0.96,0.31,0.81,0.48,-17,-6,-25,0.86,10581,72,87,41,84,998,544.0,665,459,60,128.0,409,1,432,534,209,0,0,546,1779,6274,523,-5.59,,,,,,,,,,,,
150444,1564237542798,5,2.21,0.98,0.36,1.29,0.97,0.39,0.67,0.63,-17,-2,-27,0.77,11003,75,87,41,80,992,544.0,662,467,60,128.0,409,1,443,588,209,0,0,552,2524,-28648,524,-5.59,44.680428,10.016739,49.35,180.5,0,0.0,-1,0.0,0.0,0,0.53,2.5074
150464,1564237542810,3,2.21,0.98,0.36,1.3,0.97,0.33,0.69,0.44,-17,-1,-26,0.76,11234,58,87,41,73,1053,552.0,662,468,60,127.0,409,1,445,464,209,0,0,575,-28648,17336,531,-5.59,,,,,,,,,,,,
150484,1564237542830,2,2.23,0.98,0.36,1.31,0.97,0.37,0.71,0.59,-17,-1,-27,0.8,11336,42,87,41,64,1115,560.0,671,467,60,127.0,363,1,444,419,194,0,0,587,-28648,23619,535,-5.59,,,,,,,,,,,,
150504,1564237542850,0,2.21,0.98,0.36,1.31,0.98,0.37,0.84,0.49,-17,1,-26,0.92,11055,24,87,41,55,1192,563.0,668,463,60,128.0,363,1,407,337,194,0,0,584,1780,-30159,540,-5.59,,,,,,,,,,,,
150524,1564237542870,2,2.22,0.98,0.36,1.3,0.98,0.54,0.78,0.5,-17,0,-25,0.94,10370,14,87,41,48,1270,570.0,666,466,60,127.0,363,1,382,253,194,0,0,586,-3190,-8186,545,-5.59,,,,,,,,,,,,
150544,1564237542890,-1,2.22,0.99,0.35,1.32,0.97,0.5,0.9,0.49,-16,-2,-23,1.03,9775,10,87,41,43,1255,566.0,652,462,60,128.0,363,1,350,225,194,0,0,579,-2934,6273,549,-5.59,44.680412,10.01674,52.81,180.5,0,0.0,-1,0.0,0.0,0,0.54,2.5091
150564,1564237542903,2,2.22,0.98,0.35,1.31,0.96,0.41,0.87,0.5,-14,-3,-23,0.96,9441,9,87,41,40,1240,563.0,648,464,60,128.0,363,1,327,213,194,0,0,565,-30159,2104,549,-5.59,,,,,,,,,,,,
150584,1564237542923,10,2.23,0.98,0.35,1.3,0.97,0.49,0.58,0.43,-13,-3,-24,0.76,9245,9,87,41,37,1155,563.0,648,461,60,127.0,137,1,314,203,75,0,0,561,2211,6274,545,-5.59,,,,,,,,,,,,
150604,1564237542943,17,2.22,0.98,0.36,1.3,0.97,0.63,0.37,0.51,-13,-6,-25,0.73,9040,8,87,41,35,1061,557.0,644,462,60,128.0,137,1,308,195,75,0,0,559,2216,-506,542,-5.59,,,,,,,,,,,,
150624,1564237542963,19,2.23,0.98,0.35,1.31,0.96,0.76,0.27,0.43,-12,-6,-25,0.8,8907,9,87,41,33,965,552.0,641,457,60,126.0,137,1,302,188,75,0,0,525,14504,26178,532,-5.59,,,,,,,,,,,,
150644,1564237542995,17,2.23,0.98,0.35,1.3,0.97,0.77,0.24,0.36,-12,-5,-23,0.81,8915,5,87,41,31,869,547.0,640,460,60,128.0,137,1,295,185,75,0,0,459,2104,26704,529,-5.59,44.680389,10.016744,55.12,180.6,0,0.0,-1,0.0,0.0,0,0.54,2.5107
150664,1564237543015,19,2.24,0.98,0.35,1.31,0.97,0.69,0.22,0.31,-12,-5,-23,0.72,8757,8,87,41,30,843,549.0,640,462,60,128.0,137,1,291,185,75,0,0,427,2104,28696,530,-5.59,,,,,,,,,,,,
150684,1564237543035,15,2.24,0.99,0.36,1.31,0.98,0.78,0.27,0.31,-13,-3,-23,0.82,8549,8,87,41,29,841,551.0,635,461,60,128.0,115,1,287,185,61,0,0,424,6274,-1818,526,181.28,,,,,,,,,,,,
150704,1564237543055,13,2.25,0.99,0.36,1.31,0.96,0.73,0.33,0.24,-14,1,-24,0.8,8333,7,87,41,29,853,550.0,632,464,60,128.0,115,1,284,176,61,0,0,441,-32248,-26615,525,181.28,,,,,,,,,,,,
150724,1564237543075,8,2.26,0.99,0.36,1.31,0.98,0.86,0.37,0.25,-15,1,-22,0.94,8113,8,87,41,29,868,547.0,634,461,60,127.0,115,1,282,166,61,0,0,522,2524,-26615,520,-5.59,,,,,,,,,,,,
150744,1564237543091,8,2.27,0.98,0.35,1.31,0.98,0.83,0.47,0.24,-15,-1,-22,0.95,7955,8,87,41,29,885,541.0,631,462,60,127.0,115,1,281,161,61,0,0,537,-2336,-3856,513,-5.59,44.68037,10.016746,53.7,180.6,0,0.0,-1,0.0,0.0,0,0.54,2.5124
150764,1564237543111,7,2.28,0.99,0.35,1.31,0.97,0.68,0.48,0.12,-13,1,-21,0.84,7851,8,87,41,29,903,530.0,626,461,60,128.0,115,1,280,161,61,0,0,511,2524,8488,513,-5.59,,,,,,,,,,,,
150784,1564237543131,2,2.29,0.98,0.35,1.31,0.97,0.77,0.46,0.1,-11,1,-20,0.9,7894,7,87,41,30,907,523.0,618,464,60,127.0,93,1,283,163,48,0,0,515,-22519,14488,510,-5.59,,,,,,,,,,,,
150804,1564237543151,2,2.31,0.99,0.35,1.32,0.98,0.81,0.48,0.2,-9,-0,-19,0.94,7908,6,87,41,30,906,519.0,623,462,60,127.0,93,1,284,163,48,0,0,463,-8187,-1923,511,-5.59,,,,,,,,,,,,
150824,1564237543171,2,2.3,0.99,0.36,1.31,0.98,0.79,0.39,0.22,-8,-2,-21,0.89,7948,8,87,41,31,896,516.0,622,462,60,127.0,93,1,287,179,48,0,0,453,16383,-6656,507,-5.59,,,,,,,,,,,,
150844,1564237543191,4,2.31,0.99,0.36,1.31,0.97,0.77,0.4,0.18,-8,-0,-19,0.87,7961,8,87,41,30,878,514.0,623,463,60,129.0,93,1,284,178,48,0,0,454,-3482,3576,507,-5.59,44.68037,10.016746,53.7,180.6,0,0.0,-1,0.0,0.0,0,0.54,2.5141
150864,1564237543203,-1,2.32,0.99,0.36,1.31,0.98,0.9,0.39,0.27,-8,2,-18,0.98,8016,8,87,41,31,860,512.0,622,462,60,128.0,93,1,287,174,48,0,0,477,17136,-23367,503,-5.59,,,,,,,,,,,,
150884,1564237543223,2,2.33,0.99,0.36,1.31,0.98,0.81,0.31,0.24,-7,1,-17,0.86,7982,8,87,41,30,842,506.0,628,466,60,128.0,102,1,284,173,52,0,0,489,-28648,8488,499,-5.59,,,,,,,,,,,,
150904,1564237543243,3,2.34,0.99,0.35,1.32,0.97,0.82,0.28,0.24,-6,3,-17,0.86,8057,8,87,41,31,833,502.0,626,464,60,128.0,102,1,287,172,52,0,0,481,15661,2212,498,-5.59,,,,,,,,,,,,
150924,1564237543263,1,2.36,0.99,0.36,1.32,0.98,0.85,0.3,0.33,-5,2,-16,0.9,8081,6,87,41,31,832,500.0,626,463,60,128.0,102,1,288,169,52,0,0,480,-22519,32033,496,-5.59,,,,,,,,,,,,
150944,1564237543301,4,2.36,0.99,0.36,1.32,0.99,0.85,0.21,0.34,-3,4,-15,0.88,8061,8,87,41,30,835,496.0,628,463,60,129.0,102,1,285,168,52,0,0,467,3,-17956,494,-5.59,44.680347,10.016752,49.5,180.6,0,0.0,-1,0.0,0.0,0,0.54,2.5157
150964,1564237543321,1,2.38,1.0,0.35,1.32,0.98,0.95,0.22,0.34,-1,4,-14,0.98,8134,8,87,41,30,842,492.0,630,463,60,127.0,102,1,285,169,52,0,0,476,-6656,-6441,492,-5.59,,,,,,,,,,,,
150984,1564237543341,4,2.38,0.99,0.36,1.32,0.99,0.91,0.18,0.36,-0,3,-13,0.93,8141,9,87,41,30,848,488.0,628,463,60,128.0,105,1,285,169,52,0,0,467,-1562,2212,488,-5.59,,,,,,,,,,,,
151004,1564237543361,1,2.37,0.99,0.36,1.32,0.98,0.98,0.11,0.31,1,3,-11,0.99,8159,8,87,41,30,854,486.0,631,463,60,128.0,105,1,286,170,52,0,0,468,32033,2212,486,-5.59,,,,,,,,,,,,
151024,1564237543381,2,2.37,1.0,0.36,1.33,0.98,0.99,0.16,0.32,1,2,-9,1.01,8166,8,87,41,30,864,482.0,632,463,60,128.0,105,1,286,170,52,0,0,467,2212,-9203,484,-5.59,,,,,,,,,,,,
151044,1564237543391,-0,2.37,0.99,0.36,1.32,0.98,1.06,0.08,0.37,1,0,-8,1.07,8238,9,87,41,30,878,482.0,630,462,60,128.0,105,1,287,173,52,0,0,464,-17956,-16384,482,-5.59,44.680336,10.016756,48.56,180.6,0,0.0,-1,0.0,0.0,0,0.54,2.5174
151064,1564237543411,2,2.36,0.99,0.36,1.33,0.98,1.06,0.13,0.32,1,0,-7,1.06,8259,9,87,41,30,890,477.0,634,464,60,128.0,105,1,287,174,52,0,0,460,-1923,6193,477,-5.59,,,,,,,,,,,,
151084,1564237543431,0,2.37,0.99,0.36,1.32,0.98,1.07,0.07,0.25,2,1,-5,1.08,8267,8,87,41,30,898,473.0,630,465,60,128.0,113,1,287,174,54,0,0,457,8488,17628,473,-5.59,,,,,,,,,,,,
151104,1564237543451,3,2.37,0.99,0.36,1.32,0.98,1.04,0.03,0.28,2,0,-4,1.04,8289,8,87,41,29,908,470.0,631,464,60,127.0,113,1,284,175,54,0,0,454,243,-9160,470,-5.59,,,,,,,,,,,,
151124,1564237543471,2,2.38,1.0,0.36,1.33,0.98,1.11,0.06,0.31,2,0,-5,1.12,8359,8,87,41,30,930,467.0,632,465,60,128.0,113,1,288,177,54,0,0,450,12552,17628,467,-5.59,,,,,,,,,,,,
151144,1564237543491,6,2.38,0.99,0.36,1.33,0.98,0.99,0.02,0.21,3,1,-3,0.99,8385,8,87,41,29,950,466.0,634,466,60,129.0,113,1,285,179,54,0,0,448,-18108,-6387,464,-5.59,44.680336,10.016756,48.56,180.6,0,0.0,-1,0.0,0.0,0,0.54,2.5191
151164,1564237543503,3,2.38,1.0,0.36,1.32,0.98,1.1,0.02,0.3,3,-1,-2,1.1,8415,8,87,41,29,965,460.0,633,462,60,127.0,113,1,286,179,54,0,0,447,14488,15649,460,-5.59,,,,,,,,,,,,
151184,1564237543523,3,2.38,0.99,0.35,1.32,0.98,1.06,-0.1,0.33,3,-0,-2,1.06,8385,8,87,41,29,982,458.0,630,465,60,128.0,122,1,285,179,56,0,0,442,2524,2131,457,-5.59,,,,,,,,,,,,
151204,1564237543543,2,2.39,0.99,0.36,1.33,0.98,1.05,-0.12,0.27,3,-1,-1,1.05,8340,8,87,41,29,1010,456.0,634,464,60,127.0,122,1,284,178,56,0,0,438,-3267,-18341,456,-5.59,,,,,,,,,,,,
151224,1564237543563,0,2.4,0.99,0.36,1.32,0.98,1.05,-0.14,0.31,4,1,-1,1.06,8303,8,87,41,29,1038,455.0,632,465,60,128.0,122,1,284,176,56,0,0,443,16648,3571,456,-5.59,,,,,,,,,,,,
151244,1564237543599,2,2.43,0.99,0.36,1.32,0.99,1.02,-0.1,0.31,5,0,-0,1.03,8238,8,87,41,29,1052,453.0,632,463,60,128.0,122,1,283,172,56,0,0,436,16648,15649,453,-5.59,44.680313,10.016764,45.38,180.6,0,0.0,-1,0.0,0.0,0,0.55,2.5207
151264,1564237543619,4,2.44,0.99,0.36,1.32,0.98,1.02,-0.12,0.27,7,1,1,1.02,8162,8,87,41,29,1067,451.0,626,462,60,128.0,122,1,283,169,56,0,0,438,-28332,16648,452,-5.59,,,,,,,,,,,,
151284,1564237543639,-1,2.45,1.0,0.36,1.33,0.98,1.04,-0.13,0.26,8,1,2,1.05,8134,9,87,41,29,1085,449.0,627,462,60,127.0,115,1,282,168,52,0,0,431,19477,23400,449,-5.59,,,,,,,,,,,,
151304,1564237543659,2,2.48,0.99,0.36,1.32,0.98,1.0,-0.15,0.23,9,1,3,1.01,8155,9,87,41,28,1103,448.0,622,463,60,129.0,115,1,279,168,52,0,0,425,-3322,20625,448,-5.59,,,,,,,,,,,,
151324,1564237543679,0,2.49,0.99,0.35,1.33,0.98,1.08,-0.16,0.24,10,-1,5,1.09,8088,9,87,41,29,1107,446.0,622,463,60,128.0,115,1,282,164,52,0,0,418,31796,23400,446,-5.59,,,,,,,,,,,,
151344,1564237543691,1,2.49,0.99,0.36,1.32,0.98,1.07,-0.17,0.24,11,-1,7,1.08,8026,9,87,41,28,1112,448.0,620,465,60,129.0,115,1,278,161,52,0,0,417,-4082,20625,448,-5.59,44.680302,10.016766,44.23,180.6,0,0.0,-1,0.0,0.0,0,0.55,2.5224
151364,1564237543711,3,2.5,0.99,0.36,1.33,0.99,1.06,-0.24,0.27,12,-1,8,1.08,8023,9,87,41,28,1114,448.0,621,462,60,129.0,115,1,278,160,52,0,0,411,-3414,-18341,448,-5.59,,,,,,,,,,,,
151384,1564237543731,-2,2.49,1.0,0.36,1.33,0.99,1.1,-0.3,0.29,13,-1,10,1.14,7931,9,87,41,28,1116,445.0,618,465,60,128.0,107,1,278,158,48,0,0,407,-8165,-28332,445,-5.59,,,,,,,,,,,,
151404,1564237543751,-2,2.49,0.99,0.35,1.32,0.99,1.1,-0.36,0.3,14,-2,10,1.15,7848,9,87,41,28,1114,445.0,616,462,60,128.0,107,1,277,158,48,0,0,402,-3414,-28332,445,-5.59,,,,,,,,,,,,
151424,1564237543771,2,2.47,1.0,0.36,1.32,0.99,1.08,-0.39,0.25,14,-1,13,1.15,7819,9,87,41,27,1112,444.0,617,464,60,128.0,107,1,274,158,48,0,0,396,18584,20625,444,-5.59,,,,,,,,,,,,
151444,1564237543791,2,2.46,0.99,0.36,1.32,0.99,1.03,-0.4,0.27,14,-1,15,1.11,7747,9,87,41,27,1099,443.0,616,463,60,129.0,107,1,273,158,48,0,0,391,-26615,5600,442,-5.59,44.680302,10.016766,44.23,180.6,0,0.0,-1,0.0,0.0,0,0.55,2.5241
151464,1564237543807,3,2.44,0.99,0.36,1.33,0.98,0.96,-0.43,0.27,14,-1,13,1.05,7738,9,87,41,27,1086,438.0,616,463,60,128.0,107,1,273,158,48,0,0,396,-26615,-768,438,-5.59,,,,,,,,,,,,
151484,1564237543827,1,2.44,1.0,0.36,1.33,0.98,0.96,-0.44,0.22,14,0,15,1.06,7697,9,87,41,27,1074,436.0,615,463,60,127.0,104,1,272,158,46,0,0,400,-26615,243,436,-5.59,,,,,,,,,,,,
151504,1564237543847,-2,2.43,0.99,0.36,1.33,0.98,1.01,-0.46,0.19,14,-0,18,1.11,7681,9,87,41,27,1063,435.0,614,464,60,128.0,104,1,272,158,46,0,0,400,2524,-3314,432,-5.59,,,,,,,,,,,,
151524,1564237543867,0,2.42,0.99,0.36,1.33,0.98,1.06,-0.42,0.24,13,-1,18,1.14,7709,9,88,41,27,1035,430.0,614,462,60,127.0,104,1,273,158,46,0,0,404,-9166,-3856,430,-5.59,,,,,,,,,,,,
151544,1564237543900,-1,2.43,1.0,0.36,1.32,0.98,1.11,-0.37,0.31,13,-2,15,1.17,7700,9,88,41,27,1007,427.0,611,464,60,127.0,104,1,273,158,46,0,0,402,-4059,-3856,427,-5.59,44.680283,10.016769,42.0,180.6,0,0.0,-1,0.0,0.0,0,0.55,2.5257
151564,1564237543920,2,2.43,1.0,0.36,1.32,0.99,1.07,-0.38,0.28,13,-3,15,1.14,7738,9,88,41,27,987,424.0,613,462,60,127.0,104,1,273,158,46,0,0,407,10392,7154,422,-5.59,,,,,,,,,,,,
151584,1564237543940,1,2.45,0.99,0.36,1.33,0.99,0.95,-0.39,0.25,12,-2,15,1.02,7712,9,88,41,27,969,424.0,610,462,60,128.0,109,1,273,158,46,0,0,402,-26615,-9166,424,-5.59,,,,,,,,,,,,
151604,1564237543960,2,2.47,1.0,0.36,1.33,0.99,0.89,-0.38,0.22,13,-2,14,0.97,7738,9,88,41,27,946,419.0,612,464,60,128.0,109,1,273,158,46,0,0,401,-9211,18584,419,-5.59,,,,,,,,,,,,
151624,1564237543980,2,2.49,0.99,0.36,1.33,0.99,0.85,-0.48,0.22,15,-0,14,0.98,7703,8,88,41,27,921,422.0,538,465,60,128.0,109,1,273,158,46,0,0,401,-9211,18584,422,-5.59,,,,,,,,,,,,
151644,1564237543992,3,2.51,1.0,0.36,1.33,0.98,0.93,-0.42,0.25,16,0,15,1.02,7653,8,88,41,27,907,420.0,528,464,60,128.0,109,1,272,158,46,0,0,402,-8151,-21944,421,-5.59,44.680271,10.01677,41.34,180.6,0,0.0,-1,0.0,0.0,0,0.55,2.5274
151664,1564237544012,4,2.51,1.0,0.36,1.33,0.98,1.01,-0.46,0.24,17,-0,15,1.11,7609,8,88,41,27,900,423.0,510,463,60,127.0,109,1,272,160,46,0,0,398,10541,-8165,423,-5.59,,,,,,,,,,,,
151684,1564237544032,-1,2.52,0.99,0.36,1.33,0.99,1.03,-0.49,0.33,18,1,16,1.14,7554,8,88,41,28,890,421.0,535,463,60,128.0,108,1,275,158,46,0,0,392,6384,-26615,421,-5.59,,,,,,,,,,,,
151704,1564237544052,0,2.51,1.0,0.36,1.33,0.99,1.06,-0.57,0.4,18,3,18,1.2,7548,9,88,41,27,879,421.0,560,464,60,127.0,108,1,272,160,46,0,0,386,17144,-8165,421,-5.59,,,,,,,,,,,,
151724,1564237544072,-2,2.52,1.0,0.35,1.32,0.99,1.08,-0.53,0.42,19,3,19,1.2,7509,9,88,41,28,872,422.0,571,466,60,128.0,108,1,275,160,46,0,0,379,-1818,-21792,420,-5.59,,,,,,,,,,,,
151744,1564237544092,3,2.51,1.0,0.36,1.33,0.99,1.12,-0.56,0.46,19,1,19,1.25,7494,9,88,41,28,868,420.0,578,464,60,128.0,108,1,275,160,46,0,0,381,1,-21944,420,-5.59,44.680271,10.01677,41.34,180.6,0,0.0,-1,0.0,0.0,0,0.55,2.5291
151764,1564237544104,3,2.53,0.99,0.36,1.33,0.99,1.16,-0.56,0.45,20,3,20,1.29,7431,9,88,41,28,865,418.0,585,461,60,127.0,108,1,275,160,46,0,0,386,-1562,7154,418,-5.59,,,,,,,,,,,,
151784,1564237544124,3,2.53,1.0,0.36,1.34,0.99,1.16,-0.6,0.45,20,3,21,1.3,7437,9,88,41,28,862,417.0,587,462,60,127.0,107,1,275,160,45,0,0,384,-6524,11560,417,-5.59,,,,,,,,,,,,
151804,1564237544144,2,2.52,0.99,0.36,1.33,0.99,1.17,-0.61,0.44,20,2,23,1.32,7387,9,88,41,28,861,412.0,591,463,60,127.0,107,1,274,160,45,0,0,382,-19019,-21944,410,-5.59,,,,,,,,,,,,
151824,1564237544164,2,2.52,1.0,0.37,1.32,0.99,1.15,-0.55,0.44,20,2,24,1.27,7373,9,88,41,29,862,410.0,591,462,60,128.0,107,1,278,160,45,0,0,378,19125,-26615,407,-5.59,,,,,,,,,,,,
151844,1564237544200,1,2.52,1.0,0.37,1.32,0.99,1.06,-0.56,0.37,20,2,23,1.2,7390,9,88,41,29,863,407.0,588,463,60,129.0,107,1,278,161,45,0,0,374,-6656,2524,407,-5.59,44.680248,10.01677,39.83,180.6,0,0.0,-1,0.0,0.0,0,0.55,2.5307
151864,1564237544220,0,2.52,0.99,0.36,1.33,0.98,0.98,-0.52,0.31,21,2,24,1.11,7327,9,88,41,29,864,407.0,586,465,60,128.0,107,1,278,161,45,0,0,373,2278,1504,407,-5.59,,,,,,,,,,,,
151884,1564237544240,-1,2.52,1.0,0.36,1.33,0.98,0.93,-0.54,0.33,21,3,26,1.07,7295,9,88,41,29,864,408.0,586,463,60,128.0,108,1,278,161,44,0,0,374,2278,11545,408,-5.59,,,,,,,,,,,,
151904,1564237544260,-1,2.53,1.0,0.36,1.34,0.98,0.93,-0.58,0.39,21,3,27,1.1,7214,10,88,41,29,864,407.0,583,462,60,129.0,108,1,278,161,44,0,0,373,2278,10541,407,-5.59,,,,,,,,,,,,
151924,1564237544280,3,2.52,1.0,0.36,1.34,0.99,1.02,-0.59,0.41,21,3,26,1.18,7194,10,88,41,30,863,407.0,576,467,60,127.0,108,1,281,163,44,0,0,373,3,1504,407,-5.59,,,,,,,,,,,,
151944,1564237544292,3,2.52,1.0,0.36,1.34,0.98,1.0,-0.63,0.4,21,1,26,1.18,7145,10,88,41,30,863,405.0,573,464,60,127.0,108,1,281,163,44,0,0,371,770,28696,405,-5.59,44.680241,10.016768,38.96,180.7,0,0.0,-1,0.0,0.0,0,0.55,2.5324
151964,1564237544312,-0,2.5,1.0,0.36,1.33,0.98,0.94,-0.64,0.33,21,3,28,1.14,7134,10,88,41,30,862,402.0,575,465,60,128.0,108,1,281,163,44,0,0,364,257,-3968,402,-5.59,,,,,,,,,,,,
151984,1564237544332,0,2.49,0.99,0.36,1.33,0.98,0.92,-0.67,0.43,21,2,28,1.14,7134,10,88,41,30,861,401.0,578,462,60,128.0,109,1,281,163,44,0,0,366,486,6384,400,-5.59,,,,,,,,,,,,
152004,1564237544352,3,2.46,1.0,0.36,1.34,0.98,1.03,-0.68,0.51,20,-1,27,1.23,7126,20,88,41,32,861,397.0,575,460,60,128.0,109,1,290,166,44,0,0,365,-6656,505,398,-5.59,,,,,,,,,,,,
152024,1564237544372,2,2.42,0.99,0.36,1.33,0.98,1.08,-0.62,0.48,19,0,26,1.25,7148,31,88,41,36,862,394.0,572,463,60,126.0,109,1,301,187,44,0,0,366,0,-1562,394,-5.59,,,,,,,,,,,,
152044,1564237544392,0,2.4,1.0,0.37,1.33,0.99,1.0,-0.55,0.42,18,1,27,1.14,7167,41,88,41,43,863,394.0,572,463,60,128.0,109,1,340,209,44,0,0,369,-6656,-6656,393,-5.59,44.680241,10.016768,38.96,180.7,0,0.0,-1,0.0,0.0,0,0.55,2.5341
152064,1564237544408,-2,2.35,0.99,0.36,1.32,0.98,0.98,-0.58,0.39,16,0,27,1.14,7151,50,88,41,51,864,392.0,572,462,60,129.0,109,1,381,233,44,0,0,369,486,-6475,389,-5.59,,,,,,,,,,,,
152084,1564237544428,0,2.32,0.99,0.36,1.33,0.97,1.01,-0.59,0.55,14,-0,25,1.17,7178,58,88,41,60,865,387.0,570,462,60,128.0,172,1,422,286,67,0,0,374,1,-31744,387,-5.59,,,,,,,,,,,,
152104,1564237544448,2,2.28,0.99,0.35,1.32,0.98,1.06,-0.51,0.51,12,-0,25,1.18,7131,63,88,41,68,867,385.0,571,461,60,127.0,172,1,399,320,67,0,0,374,-6656,-6524,385,-5.59,,,,,,,,,,,,
152124,1564237544468,2,2.26,0.99,0.36,1.3,0.97,0.94,-0.37,0.38,11,1,23,1.01,7083,66,88,41,75,868,383.0,565,461,60,127.0,172,1,387,406,67,0,0,376,-6656,-19126,382,-5.59,,,,,,,,,,,,
152144,1564237544502,-1,2.24,0.98,0.35,1.29,0.97,0.95,-0.36,0.44,9,-1,21,1.01,7025,66,88,41,80,868,379.0,559,463,60,128.0,172,1,381,455,67,0,0,380,-6656,-6656,376,-5.59,44.680225,10.016764,37.96,180.8,0,0.0,-1,0.0,0.0,0,0.56,2.5357
152164,1564237544522,3,2.22,0.97,0.35,1.29,0.97,1.03,-0.31,0.52,7,-0,18,1.07,6944,67,88,41,83,868,377.0,556,462,60,127.0,172,1,376,481,67,0,0,378,-6656,770,374,-5.59,,,,,,,,,,,,
152184,1564237544542,1,2.2,0.97,0.35,1.29,0.96,0.97,-0.16,0.43,5,2,16,0.98,6949,64,88,41,84,891,377.0,552,463,60,127.0,340,1,375,486,127,0,0,378,-6656,-6656,373,-5.59,,,,,,,,,,,,
152204,1564237544562,0,2.19,0.97,0.35,1.29,0.96,0.91,-0.08,0.46,3,1,12,0.91,7086,5,88,41,86,913,380.0,560,460,60,129.0,340,1,381,487,127,0,0,381,-992,0,370,-5.59,,,,,,,,,,,,
152224,1564237544582,0,2.17,0.97,0.35,1.29,0.96,1.01,-0.08,0.51,0,-1,9,1.01,7350,69,88,41,86,935,381.0,563,459,60,129.0,340,1,398,582,127,0,0,379,-18948,-6656,367,-5.59,,,,,,,,,,,,
152244,1564237544596,3,2.15,0.98,0.35,1.29,0.96,0.97,0.01,0.53,-2,-1,7,0.97,7690,68,88,41,86,957,383.0,574,461,60,128.0,340,1,421,599,127,0,0,380,-19126,0,365,-5.59,44.680214,10.016761,37.09,180.8,0,0.0,-1,0.0,0.0,0,0.56,2.5374
152264,1564237544616,1,2.14,0.98,0.34,1.3,0.96,1.02,-0.03,0.58,-4,-3,5,1.02,8152,66,88,41,84,1058,383.0,599,458,60,129.0,340,1,436,603,127,0,0,381,-19019,230,363,-5.59,,,,,,,,,,,,
152284,1564237544636,0,2.13,0.98,0.35,1.29,0.96,1.01,-0.0,0.72,-5,-1,1,1.01,8778,51,88,41,77,1159,382.0,631,461,60,128.0,534,1,419,522,194,0,0,385,-19019,-6405,361,-5.59,,,,,,,,,,,,
152304,1564237544656,1,2.13,0.98,0.35,1.3,0.97,1.05,-0.06,0.85,-7,1,-2,1.05,8945,36,88,41,67,1242,388.0,636,458,60,127.0,534,1,414,406,194,0,0,405,-31744,13180,364,-5.59,,,,,,,,,,,,
152324,1564237544676,1,2.12,0.99,0.35,1.31,0.97,0.93,-0.02,0.84,-8,2,-5,0.93,8688,23,88,41,58,1321,394.0,648,464,60,128.0,534,1,413,343,194,0,0,469,-32702,-28648,367,-5.59,,,,,,,,,,,,
152344,1564237544696,1,2.13,0.99,0.36,1.31,0.97,0.84,0.05,0.88,-9,3,-8,0.84,8522,9,88,41,50,1335,404.0,633,461,60,127.0,534,1,378,257,194,0,0,487,1504,-26615,372,-5.59,44.680214,10.016761,37.09,180.8,0,0.0,-1,0.0,0.0,0,0.56,2.5391
152364,1564237544706,3,2.12,0.98,0.35,1.32,0.97,0.69,0.1,0.9,-11,6,-10,0.7,8333,6,88,42,43,1347,411.0,641,463,60,128.0,534,1,343,224,194,0,0,436,-4059,6384,376,-5.59,,,,,,,,,,,,
152384,1564237544726,-1,2.12,0.99,0.36,1.31,0.97,0.66,0.13,0.9,-12,6,-10,0.67,7786,5,88,42,40,1300,413.0,622,461,60,128.0,178,1,317,209,67,0,0,431,-9166,-3322,379,-5.59,,,,,,,,,,,,
152404,1564237544746,-0,2.11,0.99,0.35,1.32,0.96,0.62,0.19,0.86,-13,5,-11,0.65,7786,5,88,42,37,1235,414.0,600,461,60,130.0,178,1,304,194,67,0,0,427,2524,243,382,-5.59,,,,,,,,,,,,
152424,1564237544766,-1,2.11,0.98,0.35,1.3,0.97,0.63,0.24,0.75,-14,4,-13,0.67,6954,5,88,42,36,1147,412.0,577,460,60,130.0,178,1,301,187,67,0,0,416,13040,1,388,-5.59,,,,,,,,,,,,
152444,1564237544786,0,2.09,0.98,0.35,1.29,0.95,0.7,0.23,0.75,-15,1,-14,0.74,6850,5,88,42,36,1051,413.0,566,466,60,128.0,178,1,301,187,67,0,0,413,9517,240,387,-5.59,44.680206,10.016759,36.26,180.8,0,0.0,-1,0.0,0.0,0,0.56,2.5407
152464,1564237544802,-2,2.1,0.97,0.35,1.29,0.97,0.65,0.36,0.7,-15,-0,-16,0.74,6786,6,88,42,35,1005,407.0,557,466,60,128.0,178,1,298,182,67,0,0,412,-26615,-3866,384,-5.59,,,,,,,,,,,,
152484,1564237544822,-1,2.08,0.98,0.34,1.29,0.96,0.75,0.35,0.67,-16,-3,-17,0.83,6689,6,88,42,35,977,410.0,554,461,60,129.0,119,1,298,182,46,0,0,410,9517,-19126,385,-5.59,,,,,,,,,,,,
152504,1564237544842,3,2.09,0.98,0.35,1.3,0.97,0.64,0.42,0.58,-17,-2,-18,0.76,6562,6,88,42,34,947,415.0,547,465,60,128.0,119,1,295,176,46,0,0,411,-26615,-19126,385,-5.59,,,,,,,,,,,,
152524,1564237544862,-0,2.09,0.98,0.35,1.3,0.96,0.7,0.53,0.49,-18,-2,-19,0.88,6530,6,88,41,34,916,418.0,535,465,60,129.0,119,1,295,176,46,0,0,413,-3414,770,384,-5.59,,,,,,,,,,,,
152544,1564237544897,2,2.07,0.98,0.34,1.3,0.96,0.72,0.6,0.4,-19,-3,-20,0.94,6634,6,88,41,34,900,417.0,538,463,60,129.0,119,1,295,176,46,0,0,395,-21944,230,382,-5.59,44.680187,10.016754,39.24,180.9,0,0.0,-1,0.0,0.0,0,0.56,2.5424
152564,1564237544917,-1,2.07,0.98,0.34,1.3,0.96,0.68,0.72,0.37,-20,-0,-21,0.99,6725,6,88,41,34,898,412.0,541,465,60,129.0,119,1,295,176,46,0,0,403,13040,-14707,378,-5.59,,,,,,,,,,,,
152584,1564237544937,3,2.05,0.98,0.34,1.3,0.96,0.74,0.65,0.4,-21,-1,-23,0.99,6895,0,88,41,33,897,411.0,548,462,60,128.0,118,1,292,171,45,0,0,398,-4059,-14707,375,-5.59,,,,,,,,,,,,
152604,1564237544957,1,2.04,0.97,0.34,1.3,0.96,0.74,0.61,0.41,-22,-2,-25,0.96,7091,9,88,41,33,899,406.0,556,463,60,127.0,118,1,292,171,45,0,0,391,2524,-29978,373,-5.59,,,,,,,,,,,,
152624,1564237544977,2,2.02,0.97,0.34,1.3,0.96,0.72,0.67,0.33,-22,-1,-27,0.98,7181,3,88,41,33,901,404.0,566,462,60,128.0,118,1,292,171,45,0,0,394,1504,-29978,369,-5.59,,,,,,,,,,,,
152644,1564237544997,-0,2.0,0.98,0.34,1.3,0.96,0.77,0.76,0.31,-23,-1,-28,1.08,7217,12,88,41,33,904,402.0,571,460,60,129.0,118,1,292,171,45,0,0,399,10541,-6640,366,-5.59,44.680187,10.016754,39.24,180.9,0,0.0,-1,0.0,0.0,0,0.56,2.5441
152664,1564237545007,-0,2.0,0.98,0.35,1.3,0.96,0.83,0.83,0.35,-25,-2,-29,1.18,7281,12,88,41,33,903,405.0,573,456,60,130.0,118,1,292,171,45,0,0,399,1504,-29302,363,-5.59,,,,,,,,,,,,
152684,1564237545027,-1,2.01,0.98,0.35,1.3,0.97,0.91,0.8,0.43,-27,-1,-31,1.21,7228,12,88,41,33,898,404.0,578,456,60,129.0,129,1,292,171,47,0,0,399,1504,-14707,360,-5.59,,,,,,,,,,,,
152704,1564237545047,3,2.02,0.98,0.34,1.31,0.97,0.91,0.67,0.5,-28,-0,-33,1.12,7225,12,88,41,33,893,404.0,581,460,60,128.0,129,1,292,176,47,0,0,398,-9211,-6640,361,-5.59,,,,,,,,,,,,
152724,1564237545067,1,2.04,0.98,0.35,1.31,0.96,0.88,0.74,0.48,-28,0,-34,1.15,7153,12,88,41,34,885,405.0,576,458,60,128.0,129,1,295,176,47,0,0,399,-9211,-29302,358,-5.59,,,,,,,,,,,,
152744,1564237545101,0,2.07,0.98,0.35,1.31,0.97,0.85,0.83,0.41,-27,0,-34,1.18,7096,12,88,41,34,874,400.0,578,451,60,129.0,129,1,295,176,47,0,0,397,6512,-6644,357,-5.59,44.680168,10.016754,37.04,180.9,0,0.0,-1,0.0,0.0,0,0.56,2.5457
152764,1564237545121,3,2.07,0.97,0.35,1.3,0.97,0.91,0.74,0.44,-28,-1,-35,1.17,7078,12,88,41,34,858,398.0,578,464,60,129.0,129,1,295,176,47,0,0,397,6384,-29978,359,-5.59,,,,,,,,,,,,
152784,1564237545141,0,2.08,0.98,0.35,1.31,0.96,0.88,0.7,0.53,-27,-0,-36,1.13,7033,12,88,41,34,844,395.0,575,457,60,127.0,130,1,295,182,47,0,0,397,17144,-6640,359,-5.59,,,,,,,,,,,,
152804,1564237545161,1,2.08,0.98,0.35,1.31,0.96,0.87,0.78,0.43,-27,1,-35,1.17,6996,12,88,41,35,835,393.0,573,461,60,129.0,130,1,298,182,47,0,0,392,-6656,3302,359,-5.59,,,,,,,,,,,,
152824,1564237545181,2,2.09,0.97,0.35,1.3,0.97,0.88,0.71,0.55,-27,0,-36,1.13,6980,12,88,41,35,826,394.0,576,455,60,130.0,130,1,298,182,47,0,0,391,-1818,-14707,360,-5.59,,,,,,,,,,,,
152844,1564237545195,1,2.08,0.98,0.35,1.3,0.97,0.91,0.71,0.51,-27,1,-35,1.16,6913,16,88,41,36,816,391.0,570,459,60,128.0,130,1,301,208,47,0,0,390,505,2060,357,-5.59,44.680157,10.016755,36.43,180.9,0,0.0,-1,0.0,0.0,0,0.56,2.5474
152864,1564237545215,-0,2.06,0.97,0.35,1.31,0.96,0.86,0.78,0.5,-27,1,-35,1.16,6898,31,88,41,38,808,391.0,567,458,60,129.0,130,1,307,220,47,0,0,390,505,2060,358,-5.59,,,,,,,,,,,,
152884,1564237545235,3,2.04,0.98,0.35,1.31,0.96,0.95,0.71,0.52,-27,0,-34,1.18,6954,52,88,41,47,807,390.0,567,457,60,129.0,165,1,369,237,59,0,0,390,-1562,4104,358,-5.59,,,,,,,,,,,,
152904,1564237545255,2,2.03,0.98,0.35,1.31,0.97,0.9,0.78,0.49,-27,0,-34,1.19,7022,71,88,41,60,807,388.0,566,460,60,129.0,165,1,419,316,59,0,0,386,-31744,2060,355,-5.59,,,,,,,,,,,,
152924,1564237545275,-0,2.03,0.98,0.34,1.3,0.97,0.88,0.81,0.42,-28,0,-34,1.2,7004,94,88,41,78,808,388.0,567,457,60,129.0,165,1,381,509,59,0,0,386,-31744,-6640,353,-5.59,,,,,,,,,,,,
152944,1564237545295,1,2.03,0.98,0.35,1.3,0.97,0.91,0.7,0.49,-29,-0,-36,1.15,6972,100,88,41,89,810,389.0,562,460,60,128.0,165,1,371,586,59,0,0,389,-6524,28553,353,-5.59,44.680157,10.016755,36.43,180.9,0,0.0,-1,0.0,0.0,0,0.56,2.5491
152964,1564237545307,2,2.01,0.98,0.35,1.3,0.97,0.9,0.84,0.42,-29,1,-35,1.23,6878,98,88,41,93,812,391.0,557,456,60,128.0,165,1,363,578,59,0,0,389,505,-30454,351,-5.59,,,,,,,,,,,,
152984,1564237545327,0,2.0,0.98,0.35,1.31,0.97,0.9,0.78,0.46,-30,-1,-36,1.19,6898,100,88,41,92,817,390.0,555,457,60,129.0,430,1,365,568,151,0,0,388,-1562,-30454,350,-5.59,,,,,,,,,,,,
153004,1564237545347,3,2.01,0.98,0.35,1.3,0.96,1.0,0.68,0.5,-31,-1,-38,1.21,7118,100,88,41,93,836,390.0,556,460,60,128.0,430,1,379,567,151,0,0,389,-1562,8841,349,-5.59,,,,,,,,,,,,
153024,1564237545367,0,2.0,0.97,0.35,1.3,0.97,1.07,0.69,0.55,-31,0,-38,1.28,7437,100,88,41,93,855,390.0,559,459,60,128.0,430,1,403,567,151,0,0,388,-1562,-30438,348,-5.59,,,,,,,,,,,,
153044,1564237545403,3,1.99,0.98,0.35,1.31,0.97,1.1,0.82,0.59,-32,-3,-38,1.37,7958,100,88,41,93,872,390.0,576,458,60,128.0,430,1,443,546,151,0,0,391,-1562,-1246,347,-5.59,44.680141,10.016763,35.65,180.9,0,0.0,-1,0.0,0.0,0,0.57,2.5507
153064,1564237545423,1,2.0,0.98,0.35,1.31,0.97,1.05,0.86,0.69,-32,-1,-40,1.36,8480,100,88,41,90,889,387.0,613,453,60,130.0,430,1,437,720,151,0,0,388,240,4104,345,-5.59,,,,,,,,,,,,
153084,1564237545443,2,1.99,0.97,0.35,1.31,0.96,1.14,0.6,0.73,-34,0,-43,1.29,8757,100,88,41,88,998,392.0,627,456,60,129.0,677,1,425,692,235,0,0,405,1,-3210,348,-5.59,,,,,,,,,,,,
153104,1564237545463,2,1.99,0.98,0.35,1.3,0.96,1.11,0.49,0.73,-34,2,-45,1.21,8873,100,88,41,87,1108,400.0,635,460,60,128.0,677,1,422,664,235,0,0,446,6512,-28648,351,-5.59,,,,,,,,,,,,
153124,1564237545483,0,2.0,0.97,0.35,1.3,0.96,1.2,0.27,0.71,-36,2,-46,1.23,9049,100,88,41,87,1200,407.0,637,455,60,127.0,677,1,418,649,235,0,0,456,-26615,10305,353,-5.59,,,,,,,,,,,,
153144,1564237545495,3,2.0,0.98,0.35,1.31,0.97,1.21,0.18,0.71,-37,3,-47,1.22,9124,100,88,41,87,1291,413.0,643,456,60,128.0,677,1,418,634,235,0,0,483,-26615,-3322,356,-5.59,44.680134,10.016768,35.2,180.9,0,0.0,-1,0.0,0.0,0,0.57,2.5524
153164,1564237545515,2,2.0,0.98,0.35,1.31,0.97,1.29,-0.04,0.82,-39,2,-50,1.29,8979,100,88,41,87,1321,420.0,634,459,60,128.0,677,1,419,619,235,0,0,484,-8165,-4054,358,-5.59,,,,,,,,,,,,
153184,1564237545535,-0,2.01,0.98,0.35,1.31,0.96,1.34,-0.11,0.85,-40,2,-51,1.34,8932,100,88,41,87,1350,426.0,640,460,60,129.0,568,1,420,604,204,0,0,480,13552,-3482,360,-5.59,,,,,,,,,,,,
153204,1564237545555,2,2.01,0.97,0.35,1.31,0.96,1.41,-0.3,0.89,-42,1,-53,1.44,8997,100,88,41,86,1309,426.0,634,463,60,128.0,568,1,419,589,204,0,0,484,13552,21580,362,-5.59,,,,,,,,,,,,
153224,1564237545575,3,2.03,0.98,0.35,1.31,0.96,1.39,-0.42,0.95,-43,-1,-54,1.45,8907,100,88,41,87,1245,430.0,641,460,60,128.0,568,1,421,584,204,0,0,492,1779,-6656,363,-5.59,,,,,,,,,,,,
153244,1564237545595,1,2.05,0.97,0.35,1.3,0.97,1.45,-0.58,1.02,-44,-1,-55,1.56,8967,100,88,41,87,1184,436.0,635,459,60,128.0,568,1,419,584,204,0,0,493,5600,-30064,362,-5.59,44.680134,10.016768,35.2,180.9,0,0.0,-1,0.0,0.0,0,0.57,2.5541
153264,1564237545609,2,2.06,0.97,0.35,1.3,0.97,1.39,-0.55,1.02,-45,-2,-56,1.5,9209,100,88,41,86,1123,440.0,646,462,60,129.0,568,1,418,573,204,0,0,495,20625,-899,360,-5.59,,,,,,,,,,,,
153284,1564237545629,-0,2.08,0.98,0.35,1.3,0.96,1.27,-0.3,0.87,-45,-2,-55,1.31,9389,100,88,41,86,1108,445.0,645,465,60,128.0,559,1,418,573,202,0,0,501,2131,3580,360,-5.59,,,,,,,,,,,,
153304,1564237545649,2,2.11,0.97,0.34,1.3,0.97,1.22,-0.17,0.94,-45,-4,-56,1.23,9455,100,88,41,86,1110,447.0,649,461,60,128.0,559,1,418,573,202,0,0,507,10305,2104,361,-5.59,,,,,,,,,,,,
153324,1564237545669,2,2.14,0.98,0.34,1.31,0.96,1.11,-0.2,0.99,-45,-2,-58,1.13,9650,100,89,41,86,1120,455.0,646,464,60,128.0,559,1,412,576,202,0,0,512,-26615,-32248,360,-5.59,,,,,,,,,,,,
153344,1564237545703,3,2.18,0.98,0.35,1.31,0.96,1.07,-0.01,0.95,-45,-3,-57,1.07,9842,100,88,41,85,1132,456.0,653,461,60,127.0,559,1,403,565,202,0,0,518,14488,16648,363,-5.59,44.680119,10.016781,40.49,181.0,0,0.0,-1,0.0,0.0,0,0.57,2.5557
153364,1564237545723,1,2.23,0.96,0.34,1.31,0.97,0.77,0.02,0.8,-44,-1,-57,0.77,9920,86,88,41,84,1142,463.0,651,460,60,129.0,559,1,399,549,202,0,0,523,6193,-3082,390,-5.59,,,,,,,,,,,,
153384,1564237545743,3,2.28,0.97,0.35,1.3,0.97,0.77,0.11,0.87,-44,-2,-57,0.78,10053,66,88,41,78,1151,467.0,650,456,60,127.0,507,1,399,492,200,0,0,536,-16384,774,402,-5.59,,,,,,,,,,,,
153404,1564237545763,2,2.32,0.98,0.35,1.31,0.98,0.84,0.17,0.98,-43,-0,-58,0.86,10129,53,88,41,70,1159,469.0,661,460,60,127.0,507,1,407,446,200,0,0,536,10432,16383,406,-5.59,,,,,,,,,,,,
153424,1564237545783,1,2.34,0.98,0.35,1.3,0.97,0.7,0.22,0.9,-41,0,-57,0.73,10096,45,88,41,64,1166,469.0,662,459,60,128.0,507,1,411,393,200,0,0,540,10432,-21872,418,-5.59,,,,,,,,,,,,
153444,1564237545795,2,2.36,0.98,0.35,1.31,0.97,0.63,0.15,1.0,-40,1,-54,0.65,10096,44,88,41,60,1168,473.0,655,466,60,127.0,507,1,413,360,200,0,0,548,3576,1760,424,-5.59,44.680111,10.016789,42.57,181.0,0,0.0,-1,0.0,0.0,0,0.57,2.5574
153464,1564237545815,2,2.36,0.98,0.35,1.31,0.97,0.77,0.07,0.99,-40,1,-53,0.77,9300,44,88,41,60,1165,471.0,647,461,60,128.0,507,1,405,334,200,0,0,517,32033,2212,430,-5.59,,,,,,,,,,,,
153484,1564237545835,3,2.35,0.98,0.35,1.31,0.97,0.87,0.2,0.93,-38,-2,-49,0.89,9245,44,89,41,59,1155,466.0,638,457,60,127.0,266,1,402,328,115,0,0,488,243,-17956,436,-5.59,,,,,,,,,,,,
153504,1564237545855,0,2.33,0.98,0.35,1.3,0.97,0.58,0.38,0.81,-34,-0,-45,0.69,9291,39,89,41,57,1136,467.0,644,455,60,127.0,266,1,402,322,115,0,0,494,243,-9212,443,-5.59,,,,,,,,,,,,
153524,1564237545875,1,2.31,0.98,0.35,1.31,0.97,0.56,0.53,0.82,-31,-1,-42,0.77,9356,44,89,41,56,1117,470.0,641,458,60,128.0,266,1,402,358,115,0,0,499,8488,2524,446,-5.59,,,,,,,,,,,,
153544,1564237545895,3,2.28,0.97,0.35,1.31,0.97,0.69,0.29,0.94,-29,-0,-40,0.75,9417,37,89,41,55,1100,469.0,641,461,60,128.0,266,1,401,311,115,0,0,500,10432,32033,451,-5.59,44.680111,10.016789,42.57,181.0,0,0.0,-1,0.0,0.0,0,0.57,2.5591
153564,1564237545906,4,2.24,0.98,0.34,1.31,0.97,0.71,0.34,0.87,-28,1,-38,0.78,9389,46,89,41,54,1094,471.0,648,457,60,127.0,266,1,400,310,115,0,0,502,32033,-21872,458,-5.59,,,,,,,,,,,,
153584,1564237545926,0,2.19,0.97,0.35,1.3,0.98,0.57,0.51,0.73,-25,1,-32,0.77,9365,46,89,41,54,1099,474.0,645,464,60,128.0,235,1,400,234,108,0,0,496,-23367,6274,460,-5.59,,,,,,,,,,,,
153604,1564237545946,1,2.15,0.98,0.35,1.31,0.97,0.48,0.66,0.76,-23,2,-29,0.81,9305,45,89,41,54,1107,477.0,650,459,60,128.0,235,1,400,337,108,0,0,493,2212,998,462,-5.59,,,,,,,,,,,,
153624,1564237545966,1,2.11,0.98,0.34,1.31,0.97,0.37,0.62,0.86,-21,1,-29,0.72,9236,45,89,41,54,1129,481.0,645,458,60,129.0,235,1,400,327,108,0,0,495,32033,248,463,-5.59,,,,,,,,,,,,
153644,1564237545998,2,2.08,0.98,0.35,1.3,0.97,0.52,0.42,0.95,-20,2,-30,0.67,9195,43,89,41,54,1130,485.0,651,455,60,128.0,235,1,400,318,108,0,0,504,-1562,248,465,-5.59,44.680092,10.016813,46.29,181.0,0,0.0,-1,0.0,0.0,0,0.57,2.5607
153664,1564237546018,3,2.05,0.97,0.35,1.3,0.97,0.64,0.23,0.99,-20,2,-30,0.68,9177,44,89,41,54,1106,487.0,648,463,60,129.0,235,1,400,318,108,0,0,500,1,-32768,468,-5.59,,,,,,,,,,,,
153684,1564237546038,2,2.04,0.97,0.35,1.3,0.97,0.78,0.18,0.97,-20,1,-31,0.8,9186,45,89,41,54,1077,492.0,649,464,60,128.0,228,1,400,303,107,0,0,504,-32768,-6528,469,-5.59,,,,,,,,,,,,
153704,1564237546058,1,2.03,0.98,0.35,1.3,0.96,0.84,0.24,0.83,-21,1,-31,0.87,9213,44,89,41,54,1031,497.0,642,463,60,128.0,228,1,400,299,107,0,0,504,-9216,-9216,469,-5.59,,,,,,,,,,,,
153724,1564237546078,1,2.02,0.97,0.34,1.3,0.97,0.62,0.42,0.54,-20,2,-29,0.75,9309,45,89,41,54,988,499.0,646,458,60,127.0,228,1,400,302,107,0,0,507,-22519,-22519,472,-5.59,,,,,,,,,,,,
153744,1564237546098,3,2.02,0.98,0.34,1.31,0.96,0.65,0.42,0.59,-21,1,-30,0.77,9422,45,89,41,54,950,503.0,649,459,60,129.0,228,1,400,306,107,0,0,508,2109,11560,471,-5.59,44.680092,10.016813,46.29,181.0,0,0.0,-1,0.0,0.0,0,0.57,2.5624
153764,1564237546108,3,2.02,0.98,0.34,1.3,0.96,0.78,0.37,0.7,-22,1,-32,0.87,9541,45,89,41,54,919,508.0,647,457,60,128.0,228,1,400,310,107,0,0,516,10994,-3414,471,-5.59,,,,,,,,,,,,
153784,1564237546128,2,2.02,0.98,0.34,1.3,0.96,0.77,0.46,0.71,-23,0,-32,0.9,9699,45,89,41,53,925,510.0,651,459,60,128.0,238,1,397,299,112,0,0,513,10994,17136,469,-5.59,,,,,,,,,,,,
153804,1564237546148,2,2.02,0.98,0.34,1.3,0.97,0.8,0.38,0.83,-25,2,-33,0.88,9760,45,89,41,53,930,510.0,654,463,60,128.0,238,1,397,299,112,0,0,522,10994,16383,473,-5.59,,,,,,,,,,,,
153824,1564237546168,2,2.01,0.97,0.34,1.31,0.96,0.7,0.54,0.8,-25,3,-33,0.89,9760,42,89,41,53,929,514.0,656,457,60,128.0,238,1,397,299,112,0,0,521,-14,-32248,472,-5.59,,,,,,,,,,,,
153844,1564237546188,-1,2.02,0.98,0.34,1.3,0.96,0.65,0.58,0.74,-25,2,-35,0.87,9791,37,89,41,51,928,515.0,663,460,60,128.0,238,1,391,278,112,0,0,524,-14,6274,474,-5.59,44.680088,10.016827,47.63,181.0,0,0.0,-1,0.0,0.0,0,0.57,2.5641
153864,1564237546200,2,2.01,0.97,0.35,1.3,0.97,0.58,0.72,0.75,-25,1,-34,0.93,9811,35,89,41,50,920,515.0,655,467,60,128.0,238,1,388,306,112,0,0,523,16383,6274,474,-5.59,,,,,,,,,,,,
153884,1564237546220,1,2.01,0.97,0.34,1.3,0.96,0.57,0.84,0.67,-25,2,-36,1.02,9821,36,89,41,49,912,519.0,656,465,60,129.0,228,1,385,276,108,0,0,528,2524,10408,474,-5.59,,,,,,,,,,,,
153904,1564237546240,1,2.02,0.97,0.34,1.3,0.96,0.67,0.96,0.74,-26,-1,-35,1.17,9709,37,89,41,48,897,521.0,651,457,60,128.0,228,1,382,268,108,0,0,524,1341,-8187,477,-5.59,,,,,,,,,,,,
153924,1564237546260,5,2.01,0.98,0.34,1.3,0.96,0.72,0.87,0.83,-27,0,-38,1.13,9664,37,89,41,47,883,520.0,649,459,60,128.0,228,1,380,251,108,0,0,528,2088,26178,475,-5.59,,,,,,,,,,,,
153944,1564237546296,6,2.0,0.97,0.34,1.3,0.96,0.77,0.97,0.73,-28,-0,-38,1.24,9674,36,89,41,47,875,524.0,649,462,60,127.0,228,1,380,246,108,0,0,525,1248,14504,475,-5.59,44.680073,10.016855,48.5,180.9,0,0.0,-1,0.0,0.0,0,0.58,2.5657
153964,1564237546316,8,2.01,0.97,0.34,1.3,0.97,0.84,0.81,0.85,-29,-0,-40,1.17,9720,35,89,41,47,868,518.0,649,467,60,129.0,228,1,380,239,108,0,0,521,1341,16383,467,-5.59,,,,,,,,,,,,
153984,1564237546336,5,2.01,0.98,0.35,1.31,0.96,0.78,0.93,0.74,-28,1,-40,1.22,9760,36,89,41,46,853,518.0,655,466,60,129.0,188,1,372,235,88,0,0,521,15679,-3482,463,-5.59,,,,,,,,,,,,
154004,1564237546356,8,2.01,0.98,0.34,1.31,0.97,0.78,0.94,0.73,-29,0,-41,1.22,9740,36,89,41,46,837,518.0,650,461,60,128.0,188,1,372,233,88,0,0,522,1341,6274,465,-5.59,,,,,,,,,,,,
154024,1564237546376,7,2.0,0.97,0.34,1.31,0.96,0.65,1.05,0.62,-29,1,-41,1.24,9780,25,89,41,46,828,519.0,654,460,60,128.0,188,1,372,229,88,0,0,523,-9212,2524,463,-5.59,,,,,,,,,,,,
154044,1564237546396,8,2.01,0.98,0.34,1.3,0.96,0.73,0.99,0.59,-30,1,-42,1.23,9791,34,89,41,46,819,520.0,654,468,60,128.0,188,1,372,234,88,0,0,523,15679,-28648,463,-5.59,44.680073,10.016855,48.5,180.9,0,0.0,-1,0.0,0.0,0,0.58,2.5674
154064,1564237546406,7,2.02,0.98,0.34,1.31,0.96,0.77,1.09,0.62,-30,-1,-42,1.34,9780,28,89,41,45,811,517.0,655,464,60,128.0,188,1,365,234,88,0,0,523,17136,-9072,453,-5.59,,,,,,,,,,,,
154084,1564237546426,2,2.02,0.98,0.34,1.29,0.97,0.81,1.12,0.63,-31,1,-42,1.38,9796,36,89,41,45,803,512.0,652,465,60,128.0,216,1,365,256,98,0,0,519,16383,-4054,453,-5.59,,,,,,,,,,,,
154104,1564237546446,5,2.01,0.97,0.34,1.3,0.97,0.93,1.12,0.71,-32,-1,-42,1.46,9750,36,89,41,45,801,517.0,650,456,60,128.0,216,1,365,251,98,0,0,523,-8187,-8187,460,-5.59,,,,,,,,,,,,
154124,1564237546466,4,2.01,0.97,0.35,1.3,0.97,0.91,1.08,0.72,-32,-1,-42,1.42,9730,32,89,40,45,802,516.0,653,469,60,129.0,216,1,365,246,98,0,0,518,1341,6274,460,-5.59,,,,,,,,,,,,
154144,1564237546504,2,2.01,0.97,0.35,1.29,0.97,0.85,1.18,0.59,-31,2,-41,1.45,9674,34,89,40,45,802,520.0,653,466,60,128.0,216,1,365,240,98,0,0,523,15679,2524,464,-5.59,44.680069,10.016888,48.38,180.8,0,0.0,-1,0.0,0.0,0,0.58,2.5691
154164,1564237546524,2,2.01,0.98,0.34,1.3,0.97,0.84,1.21,0.58,-31,0,-42,1.47,9704,30,89,40,45,802,517.0,652,462,60,128.0,216,1,365,236,98,0,0,520,1341,1341,466,-5.59,,,,,,,,,,,,
154184,1564237546544,3,2.02,0.98,0.34,1.31,0.96,0.72,1.29,0.6,-31,1,-42,1.48,9770,31,89,40,45,800,516.0,651,468,60,128.0,184,1,365,232,86,0,0,519,15679,-32248,468,-5.59,,,,,,,,,,,,
154204,1564237546564,2,2.01,0.98,0.34,1.3,0.96,0.8,1.24,0.62,-30,0,-44,1.48,9816,36,89,40,45,799,518.0,658,466,60,128.0,184,1,365,232,86,0,0,525,15679,-9212,467,-5.59,,,,,,,,,,,,
154224,1564237546584,1,2.02,0.98,0.35,1.3,0.97,0.81,1.28,0.71,-30,-2,-43,1.51,9801,30,89,40,45,800,518.0,658,467,60,128.0,184,1,365,232,86,0,0,527,15679,11560,466,-5.59,,,,,,,,,,,,
154244,1564237546594,1,2.01,0.98,0.34,1.3,0.96,0.88,1.31,0.65,-30,0,-43,1.58,9750,27,89,40,45,802,519.0,656,458,60,128.0,184,1,365,231,86,0,0,525,-8187,1341,465,-5.59,44.680065,10.016904,48.34,180.7,0,0.0,-1,0.0,0.0,0,0.58,2.5707
154264,1564237546614,5,2.03,0.97,0.34,1.3,0.97,0.96,1.26,0.7,-31,-2,-42,1.58,9770,28,89,40,45,804,516.0,658,458,60,127.0,184,1,365,231,86,0,0,523,16383,14504,470,-5.59,,,,,,,,,,,,
154284,1564237546634,4,2.01,0.98,0.34,1.29,0.96,0.89,1.2,0.71,-30,-1,-43,1.49,9760,31,89,40,44,808,518.0,654,466,60,129.0,175,1,357,228,83,0,0,525,1341,2524,470,-5.59,,,,,,,,,,,,
154304,1564237546654,5,2.04,0.98,0.34,1.3,0.96,0.9,1.18,0.65,-30,0,-43,1.49,9715,26,89,40,43,816,513.0,653,465,60,128.0,175,1,350,224,83,0,0,521,26178,26178,468,-5.59,,,,,,,,,,,,
154324,1564237546674,8,2.06,0.97,0.34,1.3,0.97,0.88,1.18,0.69,-29,0,-42,1.47,9659,29,89,40,42,828,514.0,651,464,60,128.0,175,1,342,246,83,0,0,517,26178,10408,465,-5.59,,,,,,,,,,,,
154344,1564237546694,6,2.08,0.97,0.34,1.31,0.97,0.76,1.26,0.54,-28,-1,-40,1.47,9674,30,89,40,42,837,514.0,647,461,60,128.0,175,1,342,242,83,0,0,518,-3482,2088,460,-5.59,44.680065,10.016904,48.34,180.7,0,0.0,-1,0.0,0.0,0,0.58,2.5724
154364,1564237546708,8,2.09,0.98,0.34,1.31,0.96,0.89,1.08,0.68,-29,-1,-42,1.39,9650,26,89,40,41,845,515.0,649,463,60,129.0,175,1,335,234,83,0,0,519,-14,-4054,468,-5.59,,,,,,,,,,,,
154384,1564237546728,3,2.11,0.98,0.34,1.31,0.96,0.81,1.17,0.56,-29,-2,-41,1.42,9532,31,89,40,41,853,517.0,646,462,60,128.0,181,1,335,227,85,0,0,521,15679,10994,470,-5.59,,,,,,,,,,,,
154404,1564237546748,5,2.13,0.98,0.34,1.31,0.97,0.82,1.14,0.58,-28,-0,-39,1.41,9488,26,89,40,41,862,516.0,642,456,60,128.0,181,1,334,222,85,0,0,515,16383,26178,471,-5.59,,,,,,,,,,,,
154424,1564237546768,6,2.16,0.98,0.34,1.3,0.97,0.89,0.97,0.67,-28,-1,-40,1.32,9488,22,89,40,41,868,513.0,646,455,60,128.0,181,1,334,216,85,0,0,515,26178,15661,468,-5.59,,,,,,,,,,,,
154444,1564237546802,4,2.19,0.98,0.34,1.31,0.97,0.8,1.08,0.51,-25,-1,-38,1.34,9498,27,89,40,40,869,513.0,647,467,60,128.0,181,1,327,213,85,0,0,511,26178,-28648,477,-5.59,44.680065,10.016937,48.59,180.6,0,0.0,-1,0.0,0.0,0,0.58,2.5741
154464,1564237546822,4,2.23,0.99,0.35,1.31,0.97,0.78,0.96,0.57,-24,-1,-39,1.23,9508,30,89,40,40,868,512.0,652,462,60,128.0,181,1,327,214,85,0,0,510,17136,-21872,477,-5.59,,,,,,,,,,,,
154484,1564237546842,6,2.26,0.99,0.35,1.32,0.97,0.86,0.81,0.69,-22,-0,-39,1.18,9508,17,89,40,40,863,509.0,649,468,60,129.0,159,1,327,214,76,0,0,512,10994,-32768,482,-5.59,,,,,,,,,,,,
154504,1564237546862,3,2.29,0.99,0.35,1.31,0.98,0.84,0.87,0.54,-20,1,-34,1.2,9436,30,89,40,40,857,507.0,642,463,60,127.0,159,1,327,235,76,0,0,507,-21872,-9216,487,-5.59,,,,,,,,,,,,
154524,1564237546882,4,2.31,0.99,0.35,1.32,0.97,0.82,0.81,0.55,-18,1,-32,1.15,9393,31,89,40,40,850,505.0,641,467,60,128.0,159,1,327,231,76,0,0,508,6274,6274,492,-5.59,,,,,,,,,,,,
154544,1564237546895,3,2.35,0.99,0.34,1.32,0.98,0.77,0.53,0.69,-16,1,-31,0.93,9337,29,89,40,40,846,504.0,643,462,60,127.0,159,1,327,227,76,0,0,501,15661,-28648,494,-5.59,44.680065,10.016955,48.73,180.6,0,0.0,-1,0.0,0.0,0,0.58,2.5757
154564,1564237546915,5,2.36,0.99,0.35,1.32,0.97,0.84,0.45,0.67,-14,2,-29,0.96,9314,28,89,40,40,846,500.0,644,460,60,127.0,159,1,327,222,76,0,0,507,15661,11560,496,-5.59,,,,,,,,,,,,
154584,1564237546935,5,2.37,0.99,0.35,1.33,0.98,0.96,0.46,0.62,-11,-1,-26,1.07,9272,29,89,40,40,847,498.0,644,461,60,128.0,156,1,326,218,78,0,0,496,2524,10994,497,-5.59,,,,,,,,,,,,
154604,1564237546955,3,2.37,0.99,0.35,1.32,0.98,0.91,0.45,0.57,-9,0,-23,1.01,9333,30,89,40,40,854,501.0,642,456,60,127.0,156,1,327,214,78,0,0,499,-9216,15661,501,-5.59,,,,,,,,,,,,
154624,1564237546975,3,2.38,0.99,0.34,1.32,0.98,0.82,0.31,0.61,-8,0,-20,0.88,9351,30,89,40,40,861,500.0,642,465,60,128.0,156,1,327,213,78,0,0,498,998,11560,500,-5.59,,,,,,,,,,,,
154644,1564237546995,4,2.37,0.99,0.35,1.33,0.98,0.84,0.11,0.65,-7,0,-18,0.85,9351,29,89,40,40,867,501.0,651,459,60,128.0,156,1,327,213,78,0,0,501,771,11560,501,-5.59,44.680065,10.016955,48.73,180.6,0,0.0,-1,0.0,0.0,0,0.59,2.5774
154664,1564237547003,5,2.39,0.99,0.35,1.32,0.99,0.89,0.11,0.62,-6,-0,-15,0.9,9393,29,89,40,39,873,500.0,648,466,60,128.0,156,1,320,211,78,0,0,494,-32768,-22519,499,-5.59,,,,,,,,,,,,
154684,1564237547023,-0,2.41,0.99,0.35,1.32,0.99,0.87,0.21,0.58,-4,0,-12,0.9,9407,28,89,40,39,873,501.0,648,473,60,128.0,150,1,320,211,75,0,0,498,998,15661,501,-5.59,,,,,,,,,,,,
154704,1564237547043,2,2.43,0.99,0.35,1.33,0.98,0.81,0.08,0.57,-2,1,-10,0.81,9351,29,89,40,39,872,502.0,648,459,60,127.0,150,1,320,211,75,0,0,497,998,6274,502,-5.59,,,,,,,,,,,,
154724,1564237547063,3,2.45,0.99,0.35,1.32,0.99,0.85,-0.12,0.55,-1,1,-8,0.86,9375,29,89,40,39,870,505.0,639,469,60,128.0,150,1,320,211,75,0,0,504,-32768,-28648,505,-5.59,,,,,,,,,,,,
154744,1564237547099,5,2.48,0.99,0.36,1.32,0.98,0.89,-0.09,0.55,1,0,-6,0.89,9398,29,89,40,39,868,504.0,643,465,60,128.0,150,1,320,211,75,0,0,498,-6528,-21872,504,-5.59,44.680069,10.01699,49.29,180.5,0,0.0,-1,0.0,0.0,0,0.59,2.5791
154764,1564237547119,2,2.51,1.0,0.35,1.33,0.98,0.86,-0.11,0.5,3,-1,-4,0.87,9450,29,89,40,39,866,507.0,643,466,60,128.0,150,1,320,211,75,0,0,502,1,15661,507,-5.59,,,,,,,,,,,,
154784,1564237547139,4,2.53,1.0,0.35,1.33,0.99,0.85,-0.29,0.56,5,-1,-2,0.9,9455,29,89,40,39,864,505.0,641,461,60,127.0,148,1,320,211,75,0,0,503,-6441,-21872,505,-5.59,,,,,,,,,,,,
154804,1564237547159,3,2.58,1.0,0.35,1.33,0.99,0.89,-0.36,0.51,6,-1,1,0.96,9455,29,89,40,39,863,506.0,645,461,60,128.0,148,1,320,211,75,0,0,502,3580,2109,508,-5.59,,,,,,,,,,,,
154824,1564237547179,2,2.59,0.99,0.36,1.33,0.98,0.88,-0.29,0.48,8,-1,4,0.93,9436,29,89,40,39,862,507.0,648,465,60,128.0,148,1,320,211,75,0,0,502,-899,10994,507,-5.59,,,,,,,,,,,,
154844,1564237547191,1,2.61,0.99,0.36,1.33,0.98,0.91,-0.46,0.54,10,-1,6,1.02,9455,28,89,40,39,863,507.0,642,465,60,127.0,148,1,320,211,75,0,0,505,10305,10994,509,-5.59,44.680069,10.017007,49.28,180.5,0,0.0,-1,0.0,0.0,0,0.59,2.5807
154864,1564237547211,5,2.61,0.99,0.35,1.33,0.98,0.95,-0.55,0.57,12,-2,7,1.09,9474,28,89,40,39,864,510.0,643,466,60,127.0,148,1,320,208,75,0,0,499,2212,1341,508,-5.59,,,,,,,,,,,,
154884,1564237547231,3,2.6,1.0,0.36,1.33,0.99,0.94,-0.51,0.54,14,-2,10,1.07,9479,29,89,40,38,866,511.0,648,463,60,128.0,145,1,317,208,74,0,0,506,-9203,-3482,511,-5.59,,,,,,,,,,,,
154904,1564237547251,6,2.6,1.0,0.35,1.34,0.99,0.88,-0.66,0.57,15,-2,13,1.1,9522,28,89,40,38,869,510.0,646,467,60,127.0,145,1,317,209,74,0,0,520,10432,-3414,510,-5.59,,,,,,,,,,,,
154924,1564237547271,7,2.6,1.0,0.36,1.32,0.99,0.92,-0.66,0.51,17,-0,15,1.13,9571,29,89,40,38,870,507.0,646,468,60,128.0,145,1,317,209,74,0,0,516,-3210,26178,507,-5.59,,,,,,,,,,,,
154944,1564237547291,4,2.6,1.0,0.35,1.33,0.98,0.96,-0.72,0.55,18,-2,18,1.2,9580,29,89,40,38,871,508.0,645,462,60,127.0,145,1,317,209,74,0,0,500,30272,17136,508,-5.59,44.680069,10.017007,49.28,180.5,0,0.0,-1,0.0,0.0,0,0.59,2.5824
154964,1564237547307,8,2.59,1.0,0.35,1.33,0.98,0.94,-0.84,0.58,19,0,20,1.26,9566,0,89,40,38,878,505.0,647,461,60,128.0,145,1,317,205,74,0,0,511,12552,-3414,505,-5.59,,,,,,,,,,,,
154984,1564237547327,8,2.59,0.99,0.35,1.33,0.99,0.91,-0.78,0.52,20,1,21,1.2,9537,27,89,40,38,886,501.0,648,463,60,128.0,148,1,317,233,75,0,0,524,12552,-3856,501,-5.59,,,,,,,,,,,,
155004,1564237547347,11,2.58,1.0,0.35,1.32,0.98,0.89,-0.89,0.52,22,-2,22,1.26,9566,29,89,40,38,893,503.0,646,468,60,127.0,148,1,317,229,75,0,0,510,-8985,-3414,499,-5.59,,,,,,,,,,,,
155024,1564237547367,13,2.59,1.0,0.35,1.33,0.99,1.0,-0.98,0.54,23,-0,23,1.4,9537,28,89,40,38,899,499.0,532,460,60,128.0,148,1,317,225,75,0,0,500,15649,15661,499,-5.59,,,,,,,,,,,,
155044,1564237547401,17,2.57,1.0,0.35,1.32,0.98,1.02,-0.92,0.52,23,-3,25,1.38,9474,28,89,40,37,908,498.0,413,467,60,128.0,148,1,314,220,75,0,0,504,26704,10408,494,-5.59,44.680069,10.017042,48.55,180.5,0,0.0,-1,0.0,0.0,0,0.59,2.5841
155064,1564237547421,16,2.57,0.99,0.35,1.32,0.99,0.93,-0.9,0.46,24,-1,27,1.3,9342,27,89,40,37,917,493.0,367,468,60,128.0,148,1,314,212,75,0,0,510,-3414,10408,493,-5.59,,,,,,,,,,,,
155084,1564237547441,17,2.56,0.99,0.34,1.33,0.98,0.94,-0.98,0.41,24,1,30,1.36,9272,27,89,40,37,923,489.0,338,457,60,128.0,152,1,314,207,75,0,0,497,1504,2524,489,-5.59,,,,,,,,,,,,
155104,1564237547461,19,2.55,1.0,0.35,1.34,0.98,0.83,-1.04,0.49,24,0,31,1.33,9200,27,89,40,37,926,486.0,330,461,60,128.0,152,1,314,203,75,0,0,490,-8151,-6528,486,-5.59,,,,,,,,,,,,
155124,1564237547481,18,2.53,1.0,0.35,1.33,0.98,0.84,-1.04,0.41,25,2,31,1.34,9101,26,89,40,37,927,488.0,345,465,60,129.0,152,1,314,202,75,0,0,485,11560,248,486,-5.59,,,,,,,,,,,,
155144,1564237547497,18,2.53,1.0,0.35,1.34,0.99,0.93,-1.12,0.34,26,1,32,1.45,8992,26,89,40,37,926,480.0,319,466,60,129.0,152,1,314,201,75,0,0,486,2524,505,480,-5.59,44.680069,10.017058,47.64,180.5,0,0.0,-1,0.0,0.0,0,0.59,2.5857
155164,1564237547517,19,2.51,1.0,0.35,1.33,0.99,0.95,-1.14,0.32,27,2,34,1.48,8907,26,89,40,37,924,480.0,310,465,60,129.0,152,1,314,201,75,0,0,476,10392,3580,480,-5.59,,,,,,,,,,,,
155184,1564237547537,19,2.49,0.99,0.35,1.33,0.99,0.91,-1.16,0.36,27,3,35,1.47,8823,26,89,40,37,921,477.0,307,458,60,127.0,139,1,314,201,67,0,0,467,18584,16648,477,-5.59,,,,,,,,,,,,
155204,1564237547557,13,2.48,0.99,0.35,1.32,0.98,0.85,-1.16,0.38,27,3,35,1.44,8733,26,89,40,37,916,472.0,298,465,60,128.0,139,1,314,201,67,0,0,475,10392,2212,472,-5.59,,,,,,,,,,,,
155224,1564237547577,21,2.45,0.99,0.35,1.33,0.98,0.85,-1.07,0.4,27,2,35,1.36,8688,26,89,40,38,910,465.0,302,462,60,127.0,139,1,317,205,67,0,0,467,28696,243,465,-5.59,,,,,,,,,,,,
155244,1564237547597,17,2.41,1.0,0.35,1.33,0.99,0.97,-1.05,0.4,25,1,34,1.42,8684,26,89,40,38,906,462.0,300,462,60,128.0,139,1,317,205,67,0,0,462,-6656,6193,459,-5.59,44.680069,10.017058,47.64,180.5,0,0.0,-1,0.0,0.0,0,0.59,2.5874
155264,1564237547607,14,2.36,0.99,0.35,1.33,0.98,0.97,-1.05,0.38,24,0,35,1.43,8660,26,89,40,38,905,459.0,303,463,60,128.0,139,1,317,205,67,0,0,460,18584,2524,459,-5.59,,,,,,,,,,,,
155284,1564237547627,18,2.31,0.99,0.35,1.33,0.97,0.85,-0.94,0.35,22,1,35,1.27,8585,26,89,40,39,910,453.0,313,461,60,127.0,147,1,320,209,67,0,0,464,3826,-9160,452,-5.59,,,,,,,,,,,,
155304,1564237547647,18,2.27,0.99,0.35,1.33,0.98,0.94,-0.87,0.4,20,1,33,1.28,8534,25,89,40,39,924,450.0,310,463,60,127.0,147,1,320,209,67,0,0,456,3826,14488,450,-5.59,,,,,,,,,,,,
155324,1564237547667,15,2.25,0.99,0.35,1.31,0.97,0.9,-0.81,0.32,18,2,30,1.22,8426,25,89,40,39,939,444.0,311,465,60,129.0,147,1,318,208,67,0,0,435,13552,-3267,444,-5.59,,,,,,,,,,,,
155344,1564237547687,18,2.24,0.99,0.34,1.31,0.98,0.93,-0.72,0.33,15,1,28,1.18,8325,25,89,40,40,955,436.0,319,464,60,128.0,147,1,322,208,67,0,0,443,13552,-18341,434,-5.59,44.680065,10.017075,46.31,180.5,0,0.0,-1,0.0,0.0,0,0.59,2.5891
155364,1564237547703,17,2.22,0.98,0.34,1.3,0.96,0.93,-0.58,0.35,12,2,25,1.1,8216,25,89,40,40,966,429.0,314,462,60,128.0,147,1,320,208,67,0,0,443,13180,5600,429,-5.59,,,,,,,,,,,,
155384,1564237547723,19,2.23,0.97,0.34,1.29,0.97,1.0,-0.52,0.39,9,1,22,1.13,8085,22,89,40,41,972,429.0,310,464,60,128.0,150,1,325,209,64,0,0,440,1779,-3314,422,-5.59,,,,,,,,,,,,
155404,1564237547743,20,2.23,0.97,0.34,1.3,0.96,0.95,-0.46,0.32,7,2,19,1.06,7921,17,89,40,40,975,431.0,309,462,60,128.0,150,1,317,206,64,0,0,436,1779,-3314,414,-5.59,,,,,,,,,,,,
155424,1564237547763,20,2.24,0.98,0.34,1.3,0.96,0.91,-0.39,0.31,5,1,16,0.99,7868,13,89,40,39,965,430.0,312,462,60,128.0,150,1,310,205,64,0,0,432,-3314,-21792,411,-5.59,,,,,,,,,,,,
