"Interval"|"ms"|0|0|1,"Utc"|"ms"|0|0|1,"FB_p"|"bar"|0|300|50,"Volant"|"F"|0.0|300.0|50,"xFR"|"mm"|0.0|5.0|50,"xRR"|"mm"|0.0|5.0|50,"xFL"|"mm"|0.0|5.0|50,"xRL"|"mm"|0.0|5.0|50,"AccelX"|"G"|-3.0|3.0|50,"AccelY"|"G"|-3.0|3.0|50,"AccelZ"|"G"|-3.0|3.0|50,"Yaw"|"Deg/Sec"|-120|120|50,"Pitch"|"Deg/Sec"|-120|120|50,"Roll"|"Deg/Sec"|-120|120|50,"Gsum"|"G"|0.0|3.0|50,"RPM"|""|0|14000|50,"TPS"|"%"|0|100|50,"WaterTemp"|"?C"|0|300|50,"AirTemp"|"?C"|-1000|1000|50,"MAP"|"KPa"|0|255|50,"Lambda"|""|0|1024|50,"WheelSpeed"|"MPH"|0.0|150.0|50,"OilPress"|"PSI"|0|150|50,"FuelPress"|"PSI"|0|150|50,"OilTemp"|"F"|0|300|50,"Battery"|"Volts"|0.0|20.0|50,"FuelCon"|"L/h"|-1000|1000|50,"Gear"|""|0|10|50,"Advance"|"Deg"|-360|360|50,"Injection"|"ms"|-1000|1000|50,"FuelCon"|"L/100km"|-1000|1000|50,"LC_But_Pres"|""|-1000|1000|50,"LC_Active"|""|-1000|1000|50,"RD_Speed"|""|-1000|1000|50,"RUD_Speed"|""|-1000|1000|50,"LD_Speed"|""|-1000|1000|50,"LUD_Speed"|""|-1000|1000|50,"Ana1"|"bar"|-1000.0|1000.0|50,"Latitude"|"Degrees"|-180.0|180.0|10,"Longitude"|"Degrees"|-180.0|180.0|10,"Speed"|"kph"|0.0|150.0|10,"Altitude"|"m"|0.0|4000.0|10,"LapCount"|""|0|0|10,"LapTime"|"Min"|0.0|0.0|10,"Sector"|""|0|0|10,"SectorTime"|"Min"|0.0|0.0|10,"ElapsedTime"|"Min"|0.0|0.0|10,"CurrentLap"|""|0|0|10,"Distance"|"km"|0.0|0.0|10,"SessionTime"|"Min"|0.0|0.0|10
171663,1564236389989,2,2.4,1.07,0.43,1.51,1.13,0.54,-0.81,1.11,28,3,31,0.98,11852,95,78,37,83,997,562.0,659,468,60,127.0,511,1,440,639,285,0,0,649,-28648,11776,560,-5.59,,,,,,,,,,,,
171683,1564236390001,2,2.37,1.07,0.44,1.51,1.13,0.58,-0.86,1.19,30,3,32,1.03,12167,98,78,37,83,998,564.0,657,465,60,128.0,511,1,440,626,285,0,0,614,-21872,11776,564,-5.59,,,,,,,,,,,,
171703,1564236390021,1,2.33,1.07,0.44,1.5,1.13,0.62,-0.81,1.26,31,2,34,1.02,12270,96,78,37,82,997,566.0,654,461,60,127.0,511,1,440,628,285,0,0,668,-3482,4909,566,-5.59,,,,,,,,,,,,
171723,1564236390041,2,2.3,1.07,0.43,1.5,1.13,0.6,-0.72,1.34,32,1,37,0.94,12368,97,78,37,82,996,570.0,574,462,60,127.0,511,1,440,610,285,0,0,692,26178,-2830,571,-5.59,,,,,,,,,,,,
171743,1564236390061,4,2.25,1.07,0.43,1.5,1.12,0.61,-0.67,1.22,32,-1,39,0.91,12541,95,78,37,83,994,572.0,597,461,60,127.0,511,1,440,597,285,0,0,664,26178,-10348,572,-5.59,44.680401,10.017554,52.46,180.6,0,0.0,-1,0.0,0.0,0,0.67,2.8624
171763,1564236390081,0,2.22,1.06,0.44,1.5,1.13,0.66,-0.8,1.16,32,-0,40,1.04,12609,97,78,37,83,990,572.0,544,466,60,126.0,496,1,440,583,284,0,0,643,-9212,-2345,575,-5.59,,,,,,,,,,,,
171783,1564236390109,4,2.18,1.06,0.43,1.5,1.13,0.65,-0.84,1.0,33,-1,42,1.06,12617,96,78,37,82,958,577.0,558,461,60,127.0,496,1,440,550,284,0,0,691,2524,-2345,577,-5.59,,,,,,,,,,,,
171803,1564236390129,1,2.13,1.06,0.43,1.51,1.12,0.55,-0.81,0.95,33,1,41,0.97,12583,96,78,37,83,924,578.0,611,466,60,127.0,496,1,440,555,284,0,0,690,-32248,-3578,578,-5.59,,,,,,,,,,,,
171823,1564236390149,3,2.1,1.06,0.43,1.5,1.12,0.56,-0.79,1.05,33,3,40,0.97,12703,97,78,37,83,891,577.0,530,467,60,127.0,496,1,440,555,284,0,0,662,-2336,-10399,577,-5.59,,,,,,,,,,,,
171843,1564236390169,0,2.07,1.06,0.43,1.49,1.12,0.57,-0.65,0.78,31,0,39,0.87,12746,93,78,37,83,868,577.0,498,467,60,127.0,496,1,440,546,284,0,0,684,-8962,-26892,577,-5.59,44.680408,10.017544,53.64,180.6,0,0.0,-1,0.0,0.0,0,0.67,2.864
171863,1564236390189,2,2.06,1.06,0.43,1.5,1.12,0.59,-0.74,0.9,29,1,37,0.95,12772,95,78,37,83,835,577.0,556,473,60,127.0,464,1,440,546,269,0,0,683,2104,-2830,577,-5.59,,,,,,,,,,,,
171883,1564236390209,-0,2.05,1.06,0.43,1.49,1.12,0.54,-0.66,0.98,27,1,36,0.85,12851,97,78,37,83,792,575.0,573,469,60,127.0,464,1,440,555,269,0,0,679,-23623,-26892,575,-5.59,,,,,,,,,,,,
171903,1564236390229,3,2.05,1.05,0.43,1.49,1.12,0.5,-0.57,1.08,25,2,33,0.75,12824,80,78,37,83,779,577.0,547,467,60,127.0,464,1,440,540,269,0,0,687,-3190,-26562,578,-5.59,,,,,,,,,,,,
171923,1564236390249,2,2.08,1.05,0.42,1.49,1.12,0.56,-0.64,1.02,22,0,30,0.85,12833,99,78,37,83,775,581.0,525,466,60,127.0,464,1,440,635,269,0,0,688,30208,11576,581,-5.59,,,,,,,,,,,,
171943,1564236390269,5,2.11,1.06,0.43,1.49,1.11,0.43,-0.65,0.96,19,-0,28,0.78,12781,96,78,37,83,770,581.0,506,462,60,127.0,464,1,440,621,269,0,0,699,-16384,-26562,580,-5.59,44.680424,10.017535,55.43,180.5,0,0.0,-1,0.0,0.0,0,0.67,2.8657
171963,1564236390291,3,2.16,1.05,0.42,1.49,1.12,0.36,-0.73,1.02,18,1,23,0.82,12877,99,78,37,83,768,585.0,520,463,60,127.0,512,1,440,602,299,0,0,670,-25872,3543,583,-5.59,,,,,,,,,,,,
171983,1564236390311,3,2.21,1.06,0.43,1.5,1.11,0.36,-0.66,0.97,16,1,21,0.75,12860,99,78,37,83,765,589.0,521,468,60,127.0,512,1,440,583,299,0,0,693,-12040,-2345,588,-5.59,,,,,,,,,,,,
172003,1564236390331,3,2.23,1.06,0.43,1.5,1.12,0.36,-0.74,1.07,15,2,19,0.82,12755,98,78,37,83,765,592.0,529,470,60,126.0,512,1,440,559,299,0,0,698,-32504,-26380,592,-5.59,,,,,,,,,,,,
172023,1564236390351,2,2.26,1.05,0.43,1.5,1.12,0.37,-0.79,1.03,14,3,18,0.88,12798,99,78,37,83,765,597.0,572,469,60,127.0,512,1,440,555,299,0,0,683,-13043,8958,599,-5.59,,,,,,,,,,,,
172043,1564236390371,4,2.28,1.06,0.43,1.5,1.13,0.37,-0.75,1.09,12,5,17,0.84,12833,96,78,37,82,762,603.0,546,468,60,127.0,512,1,440,546,299,0,0,663,-13043,14342,603,-5.59,44.680435,10.017527,56.68,180.5,0,0.0,-1,0.0,0.0,0,0.67,2.8674
172063,1564236390391,1,2.3,1.06,0.43,1.49,1.13,0.51,-0.87,1.11,11,4,15,1.01,12789,86,78,37,82,760,609.0,577,466,60,126.0,441,1,440,546,266,0,0,714,23619,-10348,609,-5.59,,,,,,,,,,,,
172083,1564236390411,2,2.32,1.05,0.43,1.49,1.13,0.4,-0.77,1.1,11,4,15,0.87,12694,90,78,37,82,757,611.0,526,455,60,126.0,441,1,440,629,266,0,0,684,243,-26380,611,-5.59,,,,,,,,,,,,
172103,1564236390431,-0,2.35,1.05,0.43,1.49,1.13,0.48,-0.89,1.19,10,3,14,1.01,12634,62,78,37,83,756,616.0,519,463,60,127.0,441,1,440,540,266,0,0,670,-3210,-2830,617,-5.59,,,,,,,,,,,,
172123,1564236390451,3,2.35,1.06,0.43,1.49,1.13,0.42,-0.79,1.07,9,4,13,0.89,12634,84,78,37,83,758,620.0,551,467,60,127.0,441,1,440,650,266,0,0,659,17740,-10344,620,-5.59,,,,,,,,,,,,
172143,1564236390471,3,2.36,1.06,0.43,1.49,1.13,0.46,-0.78,0.97,7,1,12,0.91,12567,75,78,37,82,761,624.0,565,466,60,127.0,441,1,440,532,266,0,0,672,28675,-10346,624,-5.59,44.680447,10.017519,58.12,180.5,0,0.0,-1,0.0,0.0,0,0.67,2.869
172163,1564236390491,0,2.35,1.06,0.43,1.49,1.12,0.49,-0.84,1.07,7,1,11,0.97,12516,100,78,37,82,765,631.0,618,465,60,126.0,487,1,440,620,304,0,0,684,19304,-10346,631,-5.59,,,,,,,,,,,,
172183,1564236390511,3,2.35,1.07,0.43,1.49,1.12,0.42,-0.78,1.05,5,-0,11,0.88,12475,100,78,37,82,769,637.0,647,468,60,126.0,487,1,440,601,304,0,0,674,19320,-3038,637,-5.59,,,,,,,,,,,,
172203,1564236390531,5,2.35,1.06,0.43,1.49,1.13,0.41,-0.76,0.9,4,-2,11,0.86,12483,100,78,37,82,770,637.0,654,469,60,127.0,487,1,440,583,304,0,0,660,506,16118,638,-5.59,,,,,,,,,,,,
172223,1564236390551,1,2.35,1.06,0.43,1.5,1.12,0.48,-0.73,1.0,4,-3,10,0.87,12384,100,78,37,83,771,641.0,663,470,60,126.0,487,1,440,574,304,0,0,663,-4876,8958,643,-5.59,,,,,,,,,,,,
172243,1564236390571,1,2.35,1.06,0.43,1.49,1.13,0.49,-0.61,1.08,4,-2,9,0.79,12450,100,78,37,83,767,645.0,667,467,60,127.0,487,1,440,555,304,0,0,672,-3584,-26380,645,-5.59,44.680466,10.017512,59.82,180.6,0,0.0,-1,0.0,0.0,0,0.68,2.8707
172263,1564236390591,3,2.36,1.06,0.43,1.5,1.12,0.57,-0.66,0.99,4,-3,8,0.87,12600,100,78,37,82,764,650.0,682,465,60,125.0,406,1,440,546,263,0,0,669,-2830,-3578,649,-5.59,,,,,,,,,,,,
172283,1564236390611,1,2.35,1.06,0.43,1.5,1.12,0.64,-0.76,1.03,3,-3,7,1.0,12651,100,78,37,83,757,653.0,687,462,60,127.0,406,1,440,555,263,0,0,679,11566,-2345,652,-5.59,,,,,,,,,,,,
172303,1564236390631,4,2.35,1.06,0.43,1.49,1.11,0.52,-0.63,0.92,3,-3,9,0.82,12737,100,78,37,83,753,657.0,691,462,60,127.0,406,1,440,546,263,0,0,679,-30207,-10346,655,-5.59,,,,,,,,,,,,
172323,1564236390651,1,2.35,1.06,0.43,1.49,1.12,0.53,-0.61,1.03,3,-2,7,0.81,12729,100,78,37,83,751,662.0,691,466,60,127.0,406,1,440,555,263,0,0,685,-2830,14342,659,-5.59,,,,,,,,,,,,
172343,1564236390671,3,2.32,1.07,0.43,1.5,1.13,0.54,-0.47,0.82,3,-1,8,0.72,12763,100,78,37,83,748,661.0,687,465,60,127.0,406,1,440,555,263,0,0,683,-2830,-10344,665,-5.59,44.680481,10.017507,62.73,180.6,0,0.0,-1,0.0,0.0,0,0.68,2.8724
172363,1564236390691,-2,2.31,1.06,0.43,1.49,1.12,0.6,-0.53,0.92,1,-4,9,0.8,12816,100,78,37,83,749,666.0,691,468,60,127.0,403,1,440,555,269,0,0,682,-26380,16599,666,-5.59,,,,,,,,,,,,
172383,1564236390711,0,2.28,1.06,0.43,1.48,1.12,0.64,-0.49,0.85,1,-4,9,0.8,12351,100,79,37,83,751,670.0,683,468,60,130.0,403,1,440,555,269,0,0,692,3543,24845,670,-5.59,,,,,,,,,,,,
172403,1564236390731,-0,2.27,1.05,0.42,1.47,1.11,0.69,-0.41,0.66,-0,-3,9,0.8,11927,100,79,37,84,755,670.0,677,465,60,131.0,403,1,440,569,269,0,0,669,-388,-10346,667,-5.59,,,,,,,,,,,,
172423,1564236390751,-1,2.27,1.03,0.41,1.45,1.11,0.7,-0.34,0.73,-2,-4,8,0.78,11689,100,79,37,84,760,667.0,675,465,60,130.0,403,1,440,582,269,0,0,677,3543,-388,668,-5.59,,,,,,,,,,,,
172443,1564236390771,-2,2.26,1.03,0.4,1.43,1.09,0.67,-0.46,0.82,-3,-6,7,0.81,11545,100,79,37,85,775,666.0,668,463,60,131.0,403,1,440,577,269,0,0,665,1549,-2826,661,-5.59,44.680492,10.017501,64.28,180.6,0,0.0,-1,0.0,0.0,0,0.68,2.8741
172463,1564236390791,3,2.26,1.01,0.39,1.41,1.07,0.68,-0.28,0.6,-4,-6,7,0.74,11301,100,79,37,85,792,668.0,671,461,60,130.0,376,1,441,1069,251,0,0,675,-2830,-2345,661,-5.59,,,,,,,,,,,,
172483,1564236390811,4,2.26,1.01,0.38,1.39,1.05,0.76,-0.35,0.64,-5,-6,6,0.84,11081,100,78,37,86,805,671.0,672,455,60,126.0,376,1,445,527,251,0,0,683,8958,-388,664,-5.59,,,,,,,,,,,,
172503,1564236390831,0,2.26,1.0,0.38,1.38,1.05,0.63,-0.17,0.6,-5,-2,6,0.65,10515,100,78,37,87,815,678.0,671,466,60,126.0,376,1,433,925,251,0,0,706,-10346,-12152,665,-5.59,,,,,,,,,,,,
172523,1564236390851,2,2.27,1.0,0.37,1.37,1.04,0.67,-0.06,0.68,-6,-2,4,0.67,10064,100,78,37,86,903,679.0,664,463,60,128.0,376,1,400,792,251,0,0,706,-2345,31988,669,-5.59,,,,,,,,,,,,
172543,1564236390871,3,2.27,0.98,0.37,1.36,1.04,0.68,0.05,0.68,-7,-1,4,0.68,10422,100,78,37,85,1048,690.0,664,463,60,128.0,376,1,425,666,251,0,0,698,-2830,12333,673,-5.59,44.680512,10.017496,65.78,180.7,0,0.0,-1,0.0,0.0,0,0.68,2.8757
172563,1564236390891,1,2.28,0.97,0.35,1.33,1.03,0.73,0.07,0.75,-7,0,3,0.73,10324,100,78,37,85,1128,689.0,663,466,60,129.0,377,1,418,577,254,0,0,736,14342,1524,673,-5.59,,,,,,,,,,,,
172583,1564236390910,1,2.28,0.97,0.35,1.34,1.03,0.59,0.16,0.86,-7,3,-0,0.62,10026,100,78,37,85,1259,695.0,665,456,60,129.0,377,1,397,559,254,0,0,751,-10448,-22795,676,-5.59,,,,,,,,,,,,
172603,1564236390930,3,2.28,0.98,0.36,1.35,1.03,0.59,0.13,0.87,-7,1,-2,0.6,9931,100,78,37,84,1272,697.0,658,462,60,127.0,377,1,399,559,254,0,0,733,6208,-22795,683,-5.59,,,,,,,,,,,,
172623,1564236390950,3,2.28,0.99,0.36,1.37,1.03,0.67,0.11,0.73,-7,4,-2,0.68,9978,98,78,37,84,1281,697.0,655,456,60,129.0,377,1,397,559,254,0,0,747,-3584,1524,685,-5.59,,,,,,,,,,,,
172643,1564236390970,1,2.28,0.98,0.36,1.36,1.03,0.55,0.09,0.83,-6,2,-2,0.56,10000,91,78,37,84,1218,706.0,662,459,60,128.0,377,1,395,559,254,0,0,741,687,-2356,694,-5.59,44.680527,10.017491,66.36,180.8,0,0.0,-1,0.0,0.0,0,0.68,2.8774
172663,1564236390990,2,2.28,0.98,0.36,1.35,1.03,0.56,0.1,0.88,-6,2,-3,0.57,10016,80,78,37,82,1147,705.0,661,461,60,128.0,306,1,397,532,212,0,0,744,-12152,-4096,694,-5.59,,,,,,,,,,,,
172683,1564236391002,1,2.28,0.97,0.36,1.35,1.03,0.68,0.09,0.8,-6,2,-4,0.68,10096,64,78,37,77,1033,710.0,660,467,60,128.0,306,1,406,493,212,0,0,742,-3888,-23308,701,-5.59,,,,,,,,,,,,
172703,1564236391022,1,2.28,0.97,0.35,1.34,1.03,0.61,0.09,0.92,-6,4,-4,0.62,10179,48,78,37,69,968,716.0,671,465,60,129.0,306,1,412,448,212,0,0,754,-2560,-31066,708,-5.59,,,,,,,,,,,,
172723,1564236391042,1,2.28,0.97,0.35,1.34,1.02,0.66,0.09,0.97,-6,4,-5,0.67,10075,30,78,37,60,924,717.0,660,463,60,126.0,306,1,412,374,212,0,0,733,-23490,-2314,709,-5.59,,,,,,,,,,,,
172743,1564236391062,6,2.28,0.97,0.35,1.34,1.03,0.8,0.01,0.86,-7,1,-5,0.8,9863,11,78,37,51,933,721.0,659,466,60,128.0,306,1,391,283,212,0,0,744,-23490,-3580,714,-5.59,44.680546,10.017487,68.03,180.8,0,0.0,-1,0.0,0.0,0,0.68,2.879
172763,1564236391082,6,2.27,0.97,0.35,1.35,1.02,0.75,0.15,0.95,-7,1,-5,0.76,9503,5,78,37,43,939,719.0,658,465,60,129.0,136,1,350,226,97,0,0,734,-3450,-13580,710,-5.59,,,,,,,,,,,,
172783,1564236391110,7,2.28,0.97,0.35,1.35,1.04,0.6,0.15,0.89,-5,-1,-4,0.62,9132,5,79,37,37,954,716.0,646,461,60,130.0,136,1,314,208,97,0,0,721,204,-3888,710,-5.59,,,,,,,,,,,,
172803,1564236391130,11,2.28,0.98,0.35,1.35,1.03,0.52,0.08,0.84,-4,-1,-4,0.53,8915,0,79,37,35,962,716.0,643,463,60,130.0,136,1,308,197,97,0,0,715,16118,-12152,709,-5.59,,,,,,,,,,,,
172823,1564236391150,13,2.28,0.99,0.37,1.39,1.04,0.34,0.2,0.81,-3,-2,-4,0.39,8692,0,79,37,33,966,715.0,638,458,60,129.0,136,1,302,190,97,0,0,703,-13312,6658,703,-5.59,,,,,,,,,,,,
172843,1564236391170,13,2.28,1.0,0.37,1.41,1.05,0.37,0.28,0.82,-4,-3,-6,0.47,8491,0,79,37,31,955,709.0,638,457,60,130.0,136,1,294,186,97,0,0,695,-12152,12333,703,-5.59,44.680561,10.01748,70.19,180.8,0,0.0,-1,0.0,0.0,0,0.69,2.8807
172863,1564236391190,12,2.29,1.01,0.37,1.42,1.07,0.38,0.19,0.76,-3,1,-4,0.43,8267,0,79,37,30,935,706.0,635,457,60,128.0,82,1,287,268,58,0,0,697,6658,-2830,697,-5.59,,,,,,,,,,,,
172883,1564236391210,15,2.29,1.02,0.37,1.42,1.05,0.44,0.28,0.79,-4,-6,-4,0.52,8120,0,78,37,31,918,2038.0,640,463,60,126.0,82,1,288,93,58,0,0,9117,-4876,-1894,2038,-5.59,,,,,,,,,,,,
172903,1564236391230,13,2.29,1.0,0.37,1.42,1.06,0.55,0.19,0.66,-4,-6,-10,0.58,8325,0,78,37,30,892,2038.0,638,466,60,127.0,82,1,288,230,58,0,0,9117,-4876,-30159,2038,-5.59,,,,,,,,,,,,
172923,1564236391250,15,2.28,1.02,0.37,1.43,1.05,0.6,0.23,0.54,-5,-12,-9,0.64,8303,0,78,37,29,869,2038.0,643,462,60,128.0,82,1,284,212,58,0,0,9117,-26562,-3082,2038,-5.59,,,,,,,,,,,,
172943,1564236391270,12,2.27,1.01,0.37,1.42,1.05,0.73,0.23,0.42,-6,-10,-9,0.76,8400,0,78,37,29,856,684.0,637,463,60,128.0,82,1,286,196,58,0,0,9117,24845,-9212,672,-5.59,44.680576,10.017474,71.44,180.9,0,0.0,-1,0.0,0.0,0,0.69,2.8824
172963,1564236391290,17,2.28,1.01,0.37,1.42,1.05,0.73,0.16,0.3,-7,-8,-8,0.75,8329,0,78,37,29,851,683.0,641,462,60,128.0,91,1,284,178,61,0,0,9117,24845,32033,668,-5.59,,,,,,,,,,,,
172983,1564236391310,14,2.29,1.02,0.37,1.43,1.06,0.86,0.18,0.31,-8,-11,-8,0.88,8453,0,78,37,28,861,683.0,640,468,60,127.0,91,1,282,184,61,0,0,9117,-10344,-16384,663,-5.59,,,,,,,,,,,,
173003,1564236391330,16,2.28,1.02,0.38,1.43,1.07,0.86,0.13,0.25,-9,-8,-9,0.87,8400,0,78,37,27,874,679.0,642,466,60,128.0,91,1,278,181,61,0,0,9117,-2345,8488,658,-5.59,,,,,,,,,,,,
173023,1564236391350,12,2.28,1.02,0.38,1.44,1.07,0.89,0.23,0.24,-10,-7,-11,0.92,8366,0,78,37,27,886,669.0,641,465,60,127.0,91,1,277,178,61,0,0,433,31988,31796,650,-5.59,,,,,,,,,,,,
173043,1564236391370,13,2.28,1.02,0.38,1.44,1.07,0.96,0.27,0.15,-11,-5,-11,1.0,8245,0,78,37,27,898,670.0,641,467,60,127.0,91,1,276,173,61,0,0,436,-388,243,645,-5.59,44.680595,10.017467,69.92,180.9,0,0.0,-1,0.0,0.0,0,0.69,2.884
173063,1564236391391,16,2.28,1.01,0.38,1.42,1.07,0.94,0.35,0.18,-13,-7,-12,1.0,8085,0,78,37,27,896,666.0,641,467,60,127.0,83,1,276,165,54,0,0,466,-27404,15649,636,-5.59,,,,,,,,,,,,
173083,1564236391411,18,2.27,1.01,0.37,1.41,1.06,0.89,0.37,0.08,-14,-5,-14,0.97,8088,0,78,37,27,894,661.0,635,466,60,127.0,83,1,276,87,54,0,0,447,-2345,5600,628,-5.59,,,,,,,,,,,,
173103,1564236391431,14,2.29,1.0,0.36,1.4,1.06,1.01,0.42,0.09,-16,-4,-15,1.09,8057,0,78,37,27,883,660.0,638,466,60,129.0,83,1,276,163,54,0,0,411,8958,6512,620,-5.59,,,,,,,,,,,,
173123,1564236391451,13,2.3,1.0,0.36,1.4,1.05,0.97,0.5,0.08,-17,-5,-17,1.09,7888,0,78,37,27,870,655.0,635,467,60,127.0,83,1,274,160,54,0,0,471,24583,240,613,-5.59,,,,,,,,,,,,
173143,1564236391471,16,2.34,1.0,0.37,1.4,1.05,0.95,0.52,0.06,-18,-3,-20,1.08,7780,0,78,37,27,863,653.0,630,468,60,127.0,83,1,273,162,54,0,0,504,2024,-6475,612,-5.59,44.680611,10.017459,67.01,180.9,0,0.0,-1,0.0,0.0,0,0.69,2.8857
173163,1564236391491,17,2.36,1.01,0.36,1.4,1.04,1.01,0.49,-0.05,-19,-2,-23,1.12,7744,0,78,37,27,854,647.0,632,467,60,128.0,76,1,273,160,47,0,0,471,244,0,605,-5.59,,,,,,,,,,,,
173183,1564236391510,15,2.4,1.01,0.36,1.41,1.05,1.03,0.49,-0.06,-19,-2,-24,1.14,7760,0,78,37,27,845,639.0,634,464,60,129.0,76,1,273,160,47,0,0,445,6208,3302,599,-5.59,,,,,,,,,,,,
173203,1564236391530,13,2.44,1.01,0.37,1.42,1.07,1.12,0.47,0.07,-20,-1,-25,1.22,7637,0,78,37,27,839,634.0,632,466,60,128.0,76,1,272,160,47,0,0,458,3,-1268,595,-5.59,,,,,,,,,,,,
173223,1564236391550,8,2.47,1.02,0.38,1.43,1.07,1.18,0.42,0.15,-20,-2,-26,1.25,7566,0,78,37,27,840,627.0,629,465,60,129.0,76,1,272,160,47,0,0,457,20993,0,594,-5.59,,,,,,,,,,,,
173243,1564236391570,5,2.5,1.02,0.38,1.44,1.06,1.26,0.43,0.22,-21,-3,-27,1.33,7506,0,78,37,27,843,624.0,630,467,60,128.0,76,1,272,159,47,0,0,422,-16883,2278,594,-5.59,44.680626,10.017453,64.74,181.0,0,0.0,-1,0.0,0.0,0,0.69,2.8874
173263,1564236391590,3,2.54,1.03,0.38,1.43,1.07,1.27,0.37,0.3,-21,-2,-27,1.33,7491,0,78,37,27,849,622.0,630,466,60,128.0,75,1,271,159,45,0,0,399,17336,-1818,593,-5.59,,,,,,,,,,,,
173283,1564236391610,3,2.57,1.03,0.39,1.45,1.08,1.35,0.29,0.4,-20,-1,-27,1.38,7393,0,78,37,26,853,614.0,625,465,60,129.0,75,1,266,159,45,0,0,400,26688,-8165,590,-5.59,,,,,,,,,,,,
173303,1564236391630,2,2.61,1.04,0.39,1.45,1.08,1.35,0.26,0.44,-20,-3,-27,1.37,7402,0,78,37,26,858,604.0,625,468,60,129.0,75,1,267,159,45,0,0,407,5344,2524,589,-5.59,,,,,,,,,,,,
173323,1564236391650,4,2.61,1.04,0.39,1.46,1.08,1.42,0.25,0.43,-18,-2,-26,1.44,7411,0,78,37,26,863,599.0,628,464,60,129.0,75,1,267,159,45,0,0,408,30227,11545,589,-5.59,,,,,,,,,,,,
173343,1564236391670,4,2.61,1.04,0.4,1.46,1.08,1.38,0.24,0.45,-16,-2,-22,1.4,7452,0,78,37,26,871,595.0,628,466,60,128.0,75,1,267,81,45,0,0,406,3472,18584,589,-5.59,44.680641,10.017446,61.89,181.0,0,0.0,-1,0.0,0.0,0,0.7,2.889
173363,1564236391690,4,2.59,1.04,0.39,1.46,1.08,1.41,0.21,0.51,-15,-1,-19,1.42,7464,0,78,37,26,882,588.0,627,465,60,129.0,75,1,267,159,44,0,0,397,208,11560,585,-5.59,,,,,,,,,,,,
173383,1564236391710,3,2.56,1.04,0.39,1.46,1.08,1.41,0.2,0.47,-14,-0,-17,1.43,7503,0,78,37,26,890,585.0,630,466,60,128.0,75,1,268,159,44,0,0,414,-4035,10541,585,-5.59,,,,,,,,,,,,
173403,1564236391730,3,2.54,1.03,0.39,1.45,1.09,1.46,0.27,0.42,-12,1,-15,1.48,7506,0,78,37,26,899,584.0,630,463,60,128.0,75,1,268,159,44,0,0,425,-3210,-32702,580,-5.59,,,,,,,,,,,,
173423,1564236391750,3,2.52,1.03,0.39,1.45,1.08,1.45,0.24,0.45,-10,1,-11,1.47,7566,0,78,37,25,911,580.0,630,465,60,129.0,75,1,265,159,44,0,0,416,774,2524,580,-5.59,,,,,,,,,,,,
173443,1564236391770,4,2.51,1.03,0.38,1.43,1.07,1.37,0.23,0.48,-9,2,-8,1.39,7578,0,78,37,25,927,577.0,631,465,60,128.0,75,1,265,158,44,0,0,420,-8188,13552,577,-5.59,44.680656,10.017439,59.61,181.1,0,0.0,-1,0.0,0.0,0,0.7,2.8907
173463,1564236391792,1,2.51,1.02,0.38,1.43,1.07,1.43,0.23,0.57,-7,1,-8,1.45,7640,0,78,37,26,943,570.0,633,466,60,128.0,78,1,269,158,45,0,0,444,-2934,-4082,570,-5.59,,,,,,,,,,,,
173483,1564236391812,7,2.48,1.02,0.38,1.42,1.07,1.49,0.25,0.62,-6,-2,-7,1.51,7649,0,78,37,25,950,566.0,633,465,60,128.0,78,1,266,158,45,0,0,430,6273,-28332,566,-5.59,,,,,,,,,,,,
173503,1564236391832,7,2.46,1.03,0.39,1.43,1.08,1.43,0.28,0.62,-5,-3,-3,1.46,7735,0,78,37,25,967,560.0,632,467,60,128.0,78,1,267,158,45,0,0,418,-28648,5600,560,-5.59,,,,,,,,,,,,
173523,1564236391852,8,2.42,1.02,0.39,1.44,1.08,1.31,0.37,0.51,-4,-2,-1,1.36,7783,0,78,37,25,993,553.0,630,468,60,127.0,78,1,267,158,45,0,0,427,-8962,1504,553,-5.59,,,,,,,,,,,,
173543,1564236391872,7,2.37,1.02,0.39,1.43,1.07,1.22,0.4,0.37,-3,-2,-1,1.28,7773,0,78,37,25,1005,549.0,636,467,60,128.0,78,1,267,80,45,0,0,424,-506,-19019,549,-5.59,44.680668,10.017431,58.57,181.1,0,0.0,-1,0.0,0.0,0,0.7,2.8924
173563,1564236391891,8,2.36,1.02,0.38,1.43,1.07,1.24,0.41,0.33,-3,-0,-1,1.31,7738,0,78,37,25,1019,545.0,633,466,60,129.0,84,1,267,158,46,0,0,448,-8962,-6656,544,-5.59,,,,,,,,,,,,
173583,1564236391911,10,2.36,1.02,0.38,1.43,1.06,1.31,0.43,0.39,-3,-0,-0,1.38,7674,0,78,37,24,1035,541.0,632,465,60,129.0,84,1,266,155,46,0,0,494,-2336,-6656,538,-5.59,,,,,,,,,,,,
173603,1564236391931,6,2.36,1.01,0.38,1.42,1.06,1.36,0.43,0.41,-3,-3,0,1.43,7741,0,78,37,25,1048,536.0,632,466,60,129.0,84,1,267,158,46,0,0,487,-28648,2811,533,-5.59,,,,,,,,,,,,
173623,1564236391951,10,2.35,1.02,0.38,1.43,1.06,1.34,0.44,0.41,-2,-3,-0,1.41,7754,0,78,37,24,1063,530.0,634,465,60,128.0,84,1,267,155,46,0,0,500,2524,140,528,-5.59,,,,,,,,,,,,
173643,1564236391971,12,2.33,1.02,0.38,1.44,1.07,1.28,0.48,0.35,-1,-2,-0,1.37,7681,0,78,37,25,1067,523.0,634,469,60,127.0,84,1,266,158,46,0,0,496,-22519,-23296,522,-5.59,44.680683,10.017424,56.36,181.2,0,0.0,-1,0.0,0.0,0,0.7,2.8941
173663,1564236391991,12,2.29,1.02,0.38,1.43,1.08,1.23,0.5,0.29,-1,-2,-1,1.32,7659,0,78,37,24,1072,521.0,633,468,60,127.0,86,1,266,155,45,0,0,487,-9212,-31222,519,-5.59,,,,,,,,,,,,
173683,1564236392005,13,2.24,1.03,0.38,1.44,1.07,1.1,0.56,0.15,-2,-1,-0,1.24,7612,0,78,37,24,1077,516.0,634,465,60,128.0,86,1,266,158,45,0,0,484,16383,4838,510,-5.59,,,,,,,,,,,,
173703,1564236392025,11,2.21,1.02,0.38,1.43,1.07,1.06,0.59,0.09,-2,-0,0,1.21,7628,0,78,37,24,1077,513.0,632,466,60,129.0,86,1,266,158,45,0,0,489,26178,145,504,-5.59,,,,,,,,,,,,
173723,1564236392045,13,2.21,1.02,0.37,1.43,1.06,1.05,0.62,0.04,-3,1,0,1.22,7563,0,78,37,24,1076,514.0,632,466,60,130.0,86,1,265,158,45,0,0,507,-3482,0,497,-5.59,,,,,,,,,,,,
173743,1564236392065,9,2.21,1.01,0.37,1.41,1.05,1.09,0.65,0.07,-3,1,-3,1.27,7467,0,78,37,24,1071,513.0,631,469,60,129.0,86,1,264,158,45,0,0,508,26178,-1,494,-5.59,44.680695,10.017415,54.43,181.2,0,0.0,-1,0.0,0.0,0,0.7,2.8957
173763,1564236392091,7,2.25,1.01,0.37,1.4,1.06,1.08,0.69,0.02,-3,2,-5,1.28,7321,0,78,37,24,1067,512.0,628,463,60,129.0,89,1,263,158,44,0,0,509,17136,-41,494,-5.59,,,,,,,,,,,,
173783,1564236392111,8,2.28,1.01,0.37,1.41,1.06,1.06,0.64,-0.08,-3,4,-6,1.23,7189,0,78,37,25,1061,509.0,625,467,60,127.0,89,1,261,158,44,0,0,507,10994,-23296,490,-5.59,,,,,,,,,,,,
173803,1564236392131,6,2.3,1.01,0.37,1.42,1.06,1.08,0.57,-0.08,-3,2,-7,1.22,7137,0,78,37,25,1057,504.0,622,464,60,127.0,89,1,261,158,44,0,0,477,15661,2790,485,-5.59,,,,,,,,,,,,
173823,1564236392151,10,2.3,1.02,0.38,1.43,1.08,1.09,0.43,0.04,-4,1,-8,1.17,7170,0,78,37,25,1050,492.0,623,467,60,128.0,89,1,261,80,44,0,0,435,-6528,-19126,482,-5.59,,,,,,,,,,,,
173843,1564236392171,7,2.29,1.03,0.39,1.44,1.09,1.19,0.41,0.07,-4,-1,-8,1.26,7312,0,79,37,25,1024,490.0,628,463,60,128.0,89,1,263,158,44,0,0,398,-1818,3635,479,-5.59,44.680706,10.017406,51.74,181.2,0,0.0,-1,0.0,0.0,0,0.7,2.8974
173863,1564236392193,5,2.26,1.04,0.39,1.45,1.09,1.24,0.43,0.06,-4,0,-8,1.31,7408,0,78,37,25,1010,484.0,628,463,60,127.0,89,1,264,158,43,0,0,379,-10483,13552,476,-5.59,,,,,,,,,,,,
173883,1564236392213,4,2.24,1.04,0.4,1.45,1.09,1.19,0.47,0.04,-5,1,-8,1.28,7476,0,78,37,25,993,481.0,631,465,60,127.0,89,1,264,158,43,0,0,413,32033,11545,475,-5.59,,,,,,,,,,,,
173903,1564236392233,2,2.22,1.03,0.4,1.46,1.09,1.17,0.48,-0.03,-6,2,-7,1.27,7515,0,78,37,25,960,483.0,630,466,60,128.0,89,1,265,158,43,0,0,431,3580,257,471,-5.59,,,,,,,,,,,,
173923,1564236392253,3,2.21,1.03,0.38,1.45,1.08,1.2,0.52,-0.1,-7,1,-7,1.31,7606,0,78,37,25,924,481.0,634,467,60,129.0,89,1,266,158,43,0,0,450,32033,2524,466,-5.59,,,,,,,,,,,,
173943,1564236392273,1,2.2,1.01,0.37,1.41,1.06,1.23,0.5,-0.12,-7,2,-7,1.33,7609,0,79,37,25,869,476.0,634,466,60,129.0,89,1,266,158,43,0,0,448,-23367,-18341,461,-5.59,44.680717,10.017398,49.63,181.2,0,0.0,-1,0.0,0.0,0,0.7,2.899
173963,1564236392291,-0,2.18,1.0,0.37,1.39,1.05,1.28,0.49,-0.04,-8,3,-8,1.37,7722,0,79,37,25,839,475.0,633,463,60,129.0,98,1,267,155,45,0,0,453,-9203,2524,456,-5.59,,,,,,,,,,,,
173983,1564236392311,-0,2.17,0.99,0.36,1.39,1.05,1.32,0.54,0.04,-10,3,-8,1.42,7751,0,79,37,24,816,471.0,633,463,60,130.0,98,1,267,158,45,0,0,455,32033,8488,453,-5.59,,,,,,,,,,,,
174003,1564236392331,-1,2.15,0.99,0.36,1.39,1.05,1.25,0.58,0.03,-11,1,-10,1.38,7825,0,79,37,25,807,469.0,635,464,60,128.0,98,1,268,158,45,0,0,450,10432,19477,448,-5.59,,,,,,,,,,,,
174023,1564236392351,1,2.14,0.99,0.36,1.39,1.05,1.16,0.61,-0.01,-12,1,-10,1.31,7921,0,78,37,24,796,468.0,636,468,60,128.0,98,1,269,155,45,0,0,449,-16384,-3322,444,-5.59,,,,,,,,,,,,
174043,1564236392371,0,2.13,1.0,0.36,1.4,1.05,1.19,0.54,-0.01,-13,2,-10,1.31,7971,0,79,37,24,820,466.0,637,464,60,129.0,98,1,269,155,45,0,0,454,-3210,13180,442,-5.59,44.680729,10.017389,47.61,181.2,0,0.0,-1,0.0,0.0,0,0.71,2.9007
174063,1564236392391,-0,2.13,0.99,0.37,1.4,1.05,1.17,0.56,0.05,-14,0,-11,1.3,8029,0,78,37,24,841,463.0,636,466,60,128.0,107,1,270,154,47,0,0,451,12552,-26615,436,-5.59,,,,,,,,,,,,
174083,1564236392411,2,2.13,0.99,0.37,1.39,1.05,1.09,0.54,0.0,-15,1,-15,1.21,8099,0,78,37,23,858,463.0,638,464,60,127.0,107,1,270,156,47,0,0,445,6193,10392,433,-5.59,,,,,,,,,,,,
174103,1564236392431,-2,2.13,1.0,0.37,1.39,1.06,1.16,0.47,0.08,-16,0,-16,1.25,8071,0,79,37,23,881,458.0,640,465,60,129.0,107,1,270,156,47,0,0,449,17628,-4059,430,-5.59,,,,,,,,,,,,
174123,1564236392451,2,2.13,1.0,0.36,1.4,1.05,1.07,0.56,0.07,-17,0,-16,1.21,8047,0,79,37,23,889,457.0,638,466,60,129.0,107,1,270,156,47,0,0,447,-9160,-26615,426,-5.59,,,,,,,,,,,,
174143,1564236392471,1,2.13,1.0,0.37,1.4,1.05,1.05,0.57,0.01,-18,0,-18,1.2,8061,0,79,37,23,893,456.0,641,465,60,129.0,107,1,270,155,47,0,0,446,2524,-9166,426,-5.59,44.68074,10.017381,45.86,181.2,0,0.0,-1,0.0,0.0,0,0.71,2.9024
174163,1564236392491,-1,2.13,1.0,0.37,1.4,1.05,1.06,0.59,0.09,-19,0,-19,1.21,8012,0,79,37,23,896,454.0,640,462,60,128.0,108,1,270,153,46,0,0,442,2524,13040,423,-5.59,,,,,,,,,,,,
174183,1564236392511,2,2.13,1.01,0.37,1.41,1.06,0.99,0.66,0.06,-19,0,-19,1.19,7968,0,79,37,23,898,450.0,640,467,60,127.0,108,1,269,153,46,0,0,442,3571,10392,421,-5.59,,,,,,,,,,,,
174203,1564236392531,1,2.14,1.0,0.37,1.41,1.05,0.99,0.65,0.09,-19,-1,-21,1.19,7958,0,79,37,23,899,447.0,639,466,60,129.0,108,1,269,153,46,0,0,443,10305,10392,418,-5.59,,,,,,,,,,,,
174223,1564236392551,-1,2.15,1.01,0.37,1.41,1.05,1.07,0.59,0.24,-20,-0,-23,1.22,7898,0,79,37,23,900,446.0,636,462,60,129.0,108,1,268,153,46,0,0,439,10305,13040,416,-5.59,,,,,,,,,,,,
174243,1564236392571,1,2.16,1.0,0.37,1.41,1.06,1.02,0.55,0.28,-20,-0,-24,1.16,7855,0,79,37,23,900,442.0,640,470,60,127.0,108,1,268,153,46,0,0,438,23400,18584,415,-5.59,44.680748,10.017371,44.05,181.2,0,0.0,-1,0.0,0.0,0,0.71,2.904
174263,1564236392591,1,2.18,1.0,0.37,1.41,1.06,0.95,0.54,0.23,-19,-1,-24,1.09,7835,0,79,37,23,901,442.0,638,466,60,128.0,108,1,268,153,45,0,0,429,23400,-4059,416,-5.59,,,,,,,,,,,,
174283,1564236392611,2,2.19,1.01,0.38,1.41,1.07,0.93,0.59,0.19,-19,-0,-24,1.1,7773,0,79,37,23,901,438.0,636,467,60,127.0,108,1,267,153,45,0,0,427,21580,-26615,413,-5.59,,,,,,,,,,,,
174303,1564236392631,2,2.19,1.02,0.37,1.42,1.07,1.04,0.56,0.23,-18,-1,-24,1.18,7767,0,79,37,23,902,434.0,636,466,60,128.0,108,1,267,153,45,0,0,421,-768,2524,412,-5.59,,,,,,,,,,,,
174323,1564236392651,-0,2.2,1.01,0.38,1.43,1.07,1.06,0.53,0.28,-18,-2,-24,1.18,7725,6,79,37,24,904,432.0,635,465,60,128.0,108,1,267,155,45,0,0,422,-3322,1504,411,-5.59,,,,,,,,,,,,
174343,1564236392671,-1,2.21,1.02,0.38,1.43,1.07,1.09,0.5,0.34,-18,0,-24,1.2,7703,7,79,37,24,908,430.0,633,466,60,128.0,108,1,267,155,45,0,0,418,-3314,11560,411,-5.59,44.680756,10.017362,42.92,181.2,0,0.0,-1,0.0,0.0,0,0.71,2.9057
174363,1564236392693,1,2.22,1.02,0.38,1.43,1.07,1.06,0.48,0.39,-17,-2,-23,1.17,7681,8,79,37,25,910,427.0,632,469,60,127.0,110,1,266,155,45,0,0,418,31796,-9211,409,-5.59,,,,,,,,,,,,
174383,1564236392713,-1,2.24,1.02,0.38,1.43,1.08,0.97,0.48,0.38,-16,-3,-24,1.08,7643,8,79,37,25,912,423.0,633,463,60,127.0,110,1,266,158,45,0,0,414,3826,-8151,407,-5.59,,,,,,,,,,,,
174403,1564236392733,1,2.26,1.03,0.39,1.44,1.09,0.94,0.41,0.31,-15,-2,-24,1.03,7637,8,79,37,25,916,421.0,632,467,60,128.0,110,1,266,158,45,0,0,408,-8165,-26615,407,-5.59,,,,,,,,,,,,
174423,1564236392753,1,2.29,1.03,0.39,1.46,1.09,0.87,0.46,0.21,-14,-0,-21,0.99,7600,8,79,37,25,921,418.0,631,466,60,128.0,110,1,266,158,45,0,0,407,-3414,2524,404,-5.59,,,,,,,,,,,,
174443,1564236392773,2,2.34,1.04,0.4,1.46,1.1,0.85,0.48,0.19,-12,-0,-19,0.97,7597,8,79,37,25,924,415.0,631,465,60,128.0,110,1,265,159,45,0,0,404,-26615,6512,405,-5.59,44.680763,10.017351,41.63,181.2,0,0.0,-1,0.0,0.0,0,0.71,2.9074
174463,1564236392793,2,2.37,1.05,0.41,1.47,1.11,0.8,0.44,0.18,-10,1,-19,0.91,7551,8,79,37,26,925,412.0,633,465,60,128.0,111,1,268,159,45,0,0,404,13040,1504,406,-5.59,,,,,,,,,,,,
174483,1564236392813,2,2.41,1.05,0.41,1.48,1.11,0.79,0.35,0.22,-8,1,-19,0.87,7545,8,79,37,26,926,407.0,630,465,60,128.0,111,1,268,159,45,0,0,401,-26615,2524,407,-5.59,,,,,,,,,,,,
174503,1564236392833,3,2.44,1.06,0.41,1.49,1.12,0.76,0.23,0.22,-5,2,-16,0.8,7479,13,79,37,27,925,409.0,632,465,60,127.0,111,1,271,160,45,0,0,394,-8151,-9211,409,-5.59,,,,,,,,,,,,
174523,1564236392853,2,2.47,1.07,0.42,1.49,1.13,0.82,0.19,0.23,-3,1,-13,0.85,7497,20,79,37,29,924,410.0,630,466,60,129.0,111,1,278,163,45,0,0,393,-32702,10541,410,-5.59,,,,,,,,,,,,
174543,1564236392873,3,2.51,1.08,0.42,1.5,1.14,0.83,0.16,0.23,0,1,-10,0.85,7476,29,79,37,32,922,410.0,631,464,60,127.0,111,1,290,168,45,0,0,393,-6656,10392,410,-5.59,44.680771,10.017341,40.99,181.2,0,0.0,-1,0.0,0.0,0,0.71,2.909
174563,1564236392893,4,2.54,1.07,0.42,1.51,1.13,0.86,0.09,0.25,2,1,-8,0.87,7554,41,79,37,38,916,410.0,632,463,60,127.0,119,1,307,202,49,0,0,390,-6524,2524,410,-5.59,,,,,,,,,,,,
174583,1564236392910,3,2.57,1.08,0.42,1.51,1.13,0.88,-0.02,0.26,5,2,-5,0.88,7584,53,79,37,47,906,411.0,630,464,60,128.0,119,1,370,222,49,0,0,388,240,-4059,411,-5.59,,,,,,,,,,,,
174603,1564236392930,3,2.59,1.07,0.43,1.51,1.13,0.98,-0.14,0.29,7,0,-1,0.99,7625,60,79,37,57,900,411.0,632,465,60,129.0,119,1,411,273,49,0,0,381,19125,13040,411,-5.59,,,,,,,,,,,,
174623,1564236392950,-0,2.61,1.07,0.43,1.5,1.15,1.01,-0.19,0.29,9,-0,3,1.02,7578,62,79,38,64,896,414.0,632,463,60,128.0,119,1,433,317,49,0,0,382,19125,-9166,414,-5.59,,,,,,,,,,,,
174643,1564236392970,1,2.62,1.07,0.43,1.51,1.14,0.95,-0.25,0.32,11,1,6,0.99,7539,62,79,38,70,889,413.0,632,466,60,128.0,119,1,420,366,49,0,0,379,8200,2524,413,-5.59,44.680778,10.01733,40.11,181.1,0,0.0,-1,0.0,0.0,0,0.71,2.9107
174663,1564236392990,0,2.62,1.07,0.43,1.51,1.13,0.9,-0.34,0.39,13,2,9,0.96,7419,63,79,38,74,883,414.0,629,466,60,129.0,257,1,407,413,107,0,0,377,-6656,-3414,414,-5.59,,,,,,,,,,,,
174683,1564236393005,1,2.62,1.07,0.43,1.5,1.13,0.91,-0.41,0.42,15,2,13,0.99,7361,63,79,38,77,879,414.0,627,465,60,128.0,257,1,401,438,107,0,0,377,770,-21944,414,-5.59,,,,,,,,,,,,
174703,1564236393025,3,2.61,1.08,0.42,1.5,1.14,0.9,-0.38,0.36,16,2,15,0.98,7318,62,79,38,78,879,414.0,623,465,60,129.0,257,1,399,453,107,0,0,373,-6656,2524,414,-5.59,,,,,,,,,,,,
174723,1564236393045,2,2.6,1.07,0.43,1.5,1.14,0.86,-0.4,0.38,17,1,18,0.95,7458,62,79,38,79,897,412.0,625,466,60,127.0,257,1,407,461,107,0,0,373,1,10392,412,-5.59,,,,,,,,,,,,
174743,1564236393065,1,2.59,1.07,0.43,1.51,1.13,0.81,-0.4,0.33,18,-0,20,0.9,7530,60,79,38,80,997,411.0,623,462,60,129.0,257,1,410,468,107,0,0,371,1,18584,411,-5.59,44.680786,10.01732,39.8,181.1,0,0.0,-1,0.0,0.0,0,0.71,2.9124
174763,1564236393092,-0,2.56,1.07,0.43,1.5,1.13,0.89,-0.46,0.27,19,-1,23,1.0,7845,61,79,38,80,1057,411.0,629,465,60,128.0,328,1,428,470,135,0,0,372,1,-9211,411,-5.59,,,,,,,,,,,,
174783,1564236393112,1,2.52,1.07,0.43,1.5,1.13,0.93,-0.51,0.34,19,-3,24,1.06,8180,61,79,38,78,1137,410.0,635,466,60,127.0,328,1,433,462,135,0,0,374,-6656,-26615,408,-5.59,,,,,,,,,,,,
174803,1564236393132,-0,2.49,1.07,0.42,1.51,1.13,0.94,-0.53,0.38,19,-1,25,1.08,8488,61,79,38,75,1243,406.0,638,462,60,128.0,328,1,428,437,135,0,0,377,770,2524,406,-5.59,,,,,,,,,,,,
174823,1564236393152,3,2.46,1.06,0.42,1.5,1.14,0.79,-0.61,0.36,19,1,28,1.0,8640,61,79,38,73,1317,406.0,643,463,60,127.0,328,1,425,420,135,0,0,414,-6656,-8165,406,-5.59,,,,,,,,,,,,
174843,1564236393172,3,2.44,1.06,0.42,1.5,1.13,0.74,-0.58,0.5,18,4,30,0.94,8530,61,79,38,71,1423,409.0,641,464,60,127.0,328,1,430,401,135,0,0,503,-19126,-3322,409,-5.59,44.68079,10.017311,39.08,181.1,0,0.0,-1,0.0,0.0,0,0.72,2.9141
174863,1564236393192,1,2.44,1.07,0.42,1.5,1.13,0.74,-0.52,0.64,17,5,30,0.91,8472,47,79,38,70,1437,412.0,638,463,60,128.0,320,1,433,321,132,0,0,442,-31744,23400,412,-5.59,,,,,,,,,,,,
174883,1564236393212,1,2.47,1.06,0.42,1.5,1.12,0.62,-0.54,0.63,17,4,29,0.82,8249,47,79,38,71,1456,421.0,522,465,60,128.0,320,1,439,458,132,0,0,414,-6656,21432,421,-5.59,,,,,,,,,,,,
174903,1564236393232,-0,2.49,1.06,0.42,1.49,1.12,0.67,-0.56,0.66,17,4,29,0.87,7965,61,79,38,72,1438,424.0,493,463,60,128.0,320,1,442,456,132,0,0,428,6512,-18341,424,-5.59,,,,,,,,,,,,
174923,1564236393252,1,2.54,1.07,0.42,1.49,1.12,0.7,-0.62,0.71,18,2,28,0.94,7858,61,79,38,75,1414,429.0,443,465,60,127.0,320,1,431,480,132,0,0,431,-8151,23400,429,-5.59,,,,,,,,,,,,
174943,1564236393272,1,2.61,1.07,0.42,1.5,1.12,0.67,-0.69,0.73,19,1,26,0.96,7881,61,79,38,77,1376,429.0,466,462,60,127.0,320,1,431,493,132,0,0,432,10541,-18341,429,-5.59,44.680801,10.017303,38.8,181.1,0,0.0,-1,0.0,0.0,0,0.72,2.9157
174963,1564236393292,3,2.66,1.06,0.41,1.49,1.12,0.62,-0.71,0.74,19,2,25,0.94,8005,62,79,38,77,1340,429.0,543,462,60,128.0,337,1,438,492,145,0,0,446,-8151,21432,429,-5.59,,,,,,,,,,,,
174983,1564236393310,1,2.72,1.06,0.42,1.49,1.14,0.66,-0.73,0.7,19,0,27,0.99,8259,62,79,38,77,1318,428.0,610,463,60,128.0,337,1,432,386,145,0,0,459,11545,21580,428,-5.59,,,,,,,,,,,,
175003,1564236393330,-0,2.76,1.07,0.42,1.49,1.13,0.61,-0.79,0.74,20,1,26,0.99,8553,63,79,38,75,1288,429.0,635,467,60,128.0,337,1,426,455,145,0,0,464,28696,21432,429,-5.59,,,,,,,,,,,,
175023,1564236393350,2,2.8,1.07,0.42,1.5,1.13,0.53,-0.84,0.66,21,1,28,1.0,8749,50,79,38,73,1289,431.0,640,464,60,128.0,337,1,422,409,145,0,0,444,28696,3571,434,-5.59,,,,,,,,,,,,
175043,1564236393370,2,2.81,1.07,0.42,1.5,1.12,0.54,-0.86,0.74,23,1,30,1.02,8782,64,79,38,72,1297,438.0,619,461,60,127.0,337,1,421,458,145,0,0,508,6384,17628,438,-5.59,44.680805,10.017295,39.96,181.1,0,0.0,-1,0.0,0.0,0,0.72,2.9174
175063,1564236393392,2,2.82,1.07,0.42,1.49,1.13,0.63,-0.85,0.74,23,1,31,1.05,8954,64,79,38,70,1280,443.0,583,467,60,128.0,345,1,415,322,151,0,0,512,6512,2211,443,-5.59,,,,,,,,,,,,
175083,1564236393412,2,2.82,1.06,0.43,1.49,1.13,0.65,-0.85,0.79,24,1,33,1.06,9141,65,79,38,69,1257,442.0,625,461,60,127.0,345,1,413,418,151,0,0,472,11545,243,442,-5.59,,,,,,,,,,,,
175103,1564236393432,3,2.8,1.06,0.42,1.49,1.13,0.69,-0.87,0.75,25,1,35,1.11,9191,57,79,38,70,1220,445.0,641,462,60,128.0,345,1,414,409,151,0,0,487,1504,8488,445,-5.59,,,,,,,,,,,,
175123,1564236393452,1,2.78,1.06,0.42,1.5,1.13,0.59,-0.89,0.88,27,1,37,1.07,9191,29,79,38,69,1195,450.0,637,461,60,128.0,345,1,414,439,151,0,0,500,-9211,505,450,-5.59,,,,,,,,,,,,
175143,1564236393472,0,2.77,1.06,0.42,1.49,1.13,0.5,-0.96,0.98,28,2,38,1.08,9168,0,79,38,69,1167,456.0,633,457,60,127.0,345,1,414,382,151,0,0,499,1504,-6441,456,-5.59,44.680817,10.017287,41.8,181.1,0,0.0,-1,0.0,0.0,0,0.72,2.919
175163,1564236393492,-0,2.73,1.07,0.42,1.5,1.13,0.45,-1.02,1.02,29,2,39,1.11,9128,0,79,38,69,1136,459.0,647,468,60,128.0,290,1,413,382,132,0,0,491,10392,771,460,-5.59,,,,,,,,,,,,
175183,1564236393512,1,2.68,1.06,0.42,1.5,1.13,0.33,-1.01,1.11,30,1,39,1.07,9079,0,79,38,69,1132,463.0,642,463,60,128.0,290,1,413,382,132,0,0,473,-4059,-32768,463,-5.59,,,,,,,,,,,,
175203,1564236393532,1,2.62,1.07,0.43,1.49,1.13,0.34,-1.06,1.08,32,1,39,1.11,9057,0,79,38,69,1138,469.0,641,463,60,128.0,290,1,413,382,132,0,0,491,-26615,-1818,469,-5.59,,,,,,,,,,,,
175223,1564236393552,1,2.56,1.06,0.42,1.49,1.14,0.31,-1.07,1.09,33,1,38,1.11,9071,0,79,38,69,1147,471.0,642,464,60,128.0,290,1,413,392,132,0,0,515,7154,-6528,474,-5.59,,,,,,,,,,,,
175243,1564236393572,1,2.49,1.07,0.42,1.5,1.13,0.37,-1.08,1.01,33,1,38,1.14,9141,0,79,38,69,1152,475.0,645,464,60,128.0,290,1,413,392,132,0,0,484,-3414,505,475,-5.59,44.680824,10.017281,42.57,181.1,0,0.0,-1,0.0,0.0,0,0.72,2.9207
175263,1564236393592,2,2.44,1.06,0.42,1.49,1.13,0.4,-1.04,0.96,32,1,39,1.11,9245,0,79,38,69,1157,476.0,616,463,60,127.0,280,1,414,382,133,0,0,484,3635,-32768,476,-5.59,,,,,,,,,,,,
175283,1564236393612,1,2.38,1.06,0.42,1.49,1.12,0.5,-0.96,0.85,31,1,40,1.09,9356,0,79,38,69,1158,476.0,641,466,60,128.0,280,1,415,382,133,0,0,514,5600,-6528,476,-5.59,,,,,,,,,,,,
175303,1564236393632,-0,2.37,1.06,0.42,1.5,1.13,0.5,-0.99,0.88,29,1,40,1.11,9498,0,79,38,69,1166,477.0,627,467,60,128.0,280,1,415,382,133,0,0,478,26704,6274,477,-5.59,,,,,,,,,,,,
175323,1564236393652,1,2.35,1.06,0.42,1.48,1.13,0.45,-0.98,0.98,28,2,38,1.08,9522,0,79,38,68,1187,476.0,576,463,60,128.0,280,1,414,375,133,0,0,499,-6387,771,476,-5.59,,,,,,,,,,,,
175343,1564236393672,2,2.36,1.06,0.42,1.49,1.13,0.45,-0.98,0.95,27,3,34,1.07,9479,60,79,38,67,1198,479.0,575,468,60,128.0,280,1,414,423,133,0,0,528,-18108,771,479,-5.59,44.680836,10.017275,43.94,181.1,0,0.0,-1,0.0,0.0,0,0.72,2.9224
175363,1564236393692,-1,2.37,1.06,0.42,1.49,1.13,0.46,-0.94,0.85,25,2,34,1.05,9488,60,79,38,65,1217,480.0,542,464,60,128.0,313,1,414,404,150,0,0,511,16408,11560,480,-5.59,,,,,,,,,,,,
175383,1564236393712,2,2.39,1.06,0.42,1.5,1.13,0.46,-1.0,0.96,22,2,31,1.1,9508,50,79,38,64,1223,482.0,579,463,60,127.0,313,1,414,346,150,0,0,490,8488,-32248,482,-5.59,,,,,,,,,,,,
175403,1564236393732,3,2.41,1.06,0.42,1.49,1.14,0.53,-0.93,0.95,21,2,28,1.07,9393,16,79,38,63,1225,484.0,590,461,60,127.0,313,1,411,351,150,0,0,497,3576,-4054,486,-5.59,,,,,,,,,,,,
175423,1564236393752,2,2.44,1.06,0.42,1.5,1.13,0.49,-0.84,0.91,20,0,28,0.97,9291,0,79,38,63,1220,488.0,541,458,60,128.0,313,1,408,351,150,0,0,505,-17956,6274,493,-5.59,,,,,,,,,,,,
175443,1564236393772,-1,2.46,1.06,0.42,1.49,1.14,0.48,-0.88,0.96,19,-2,27,1.0,9259,35,79,38,63,1210,496.0,475,458,60,127.0,313,1,407,396,150,0,0,505,8488,-28648,496,-5.59,44.680847,10.01727,45.08,181.0,0,0.0,-1,0.0,0.0,0,0.72,2.924
175463,1564236393793,1,2.46,1.06,0.43,1.5,1.13,0.4,-0.9,1.06,18,-3,25,0.99,9286,58,79,38,63,1193,499.0,443,461,60,127.0,242,1,408,399,120,0,0,511,3580,17136,499,-5.59,,,,,,,,,,,,
175483,1564236393813,2,2.45,1.06,0.42,1.5,1.13,0.4,-0.86,0.98,17,-4,24,0.95,9455,57,79,38,62,1159,503.0,437,461,60,127.0,242,1,412,385,120,0,0,502,-10483,26178,503,-5.59,,,,,,,,,,,,
175503,1564236393833,0,2.43,1.07,0.43,1.49,1.13,0.5,-0.78,0.83,17,-4,24,0.93,9571,58,79,38,62,1139,506.0,505,464,60,127.0,242,1,414,383,120,0,0,512,1,16383,506,-5.59,,,,,,,,,,,,
175523,1564236393853,-0,2.42,1.06,0.43,1.49,1.14,0.57,-0.79,0.85,16,-4,25,0.97,9720,58,79,38,61,1128,508.0,568,458,60,128.0,242,1,412,375,120,0,0,522,1,26178,508,-5.59,,,,,,,,,,,,
175543,1564236393873,-1,2.4,1.06,0.42,1.48,1.12,0.52,-0.75,0.86,16,-2,25,0.91,9827,56,79,38,61,1111,512.0,639,462,60,128.0,242,1,411,374,120,0,0,521,248,2088,512,-5.59,44.680859,10.017266,46.55,181.0,0,0.0,-1,0.0,0.0,0,0.72,2.9257
175563,1564236393891,2,2.4,1.05,0.42,1.48,1.14,0.6,-0.74,0.87,15,-1,24,0.96,9915,53,79,38,60,1100,516.0,643,465,60,128.0,273,1,408,363,140,0,0,523,3,-32248,512,-5.59,,,,,,,,,,,,
175583,1564236393911,1,2.4,1.05,0.42,1.48,1.13,0.49,-0.74,0.98,14,1,22,0.89,9989,41,79,38,57,1085,515.0,653,462,60,127.0,273,1,404,337,140,0,0,533,10408,-22519,516,-5.59,,,,,,,,,,,,
175603,1564236393931,2,2.43,1.05,0.42,1.48,1.13,0.5,-0.68,0.95,13,1,22,0.85,9915,28,79,38,52,1084,518.0,651,462,60,127.0,273,1,394,292,140,0,0,526,-28648,-22519,518,-5.59,,,,,,,,,,,,
175623,1564236393951,1,2.46,1.05,0.42,1.48,1.13,0.46,-0.63,1.05,13,1,20,0.78,9760,17,79,38,47,1080,522.0,653,462,60,128.0,273,1,380,240,140,0,0,536,10994,-32248,522,-5.59,,,,,,,,,,,,
175643,1564236393971,3,2.5,1.05,0.42,1.49,1.12,0.48,-0.63,0.96,13,-1,19,0.79,9551,11,79,38,43,1063,523.0,653,468,60,128.0,273,1,350,224,140,0,0,526,-21872,-28648,523,-5.59,44.68087,10.017264,48.62,181.0,0,0.0,-1,0.0,0.0,0,0.72,2.9274
175663,1564236393991,-0,2.55,1.06,0.42,1.49,1.12,0.51,-0.62,0.8,13,-3,20,0.8,9346,12,79,38,39,1041,526.0,651,462,60,128.0,151,1,320,212,79,0,0,518,-32248,6274,526,-5.59,,,,,,,,,,,,
175683,1564236394005,-1,2.59,1.04,0.42,1.49,1.13,0.47,-0.7,0.74,14,-5,19,0.84,9128,17,79,38,37,1028,525.0,653,457,60,128.0,151,1,314,204,79,0,0,506,2109,2524,526,-5.59,,,,,,,,,,,,
175703,1564236394025,-1,2.65,1.06,0.42,1.48,1.13,0.39,-0.8,0.74,16,-5,21,0.89,8928,16,79,38,36,1003,526.0,648,465,60,129.0,151,1,311,200,79,0,0,503,2524,14504,526,-5.59,,,,,,,,,,,,
175723,1564236394045,2,2.69,1.06,0.42,1.49,1.14,0.34,-0.86,0.69,17,-5,23,0.92,8704,16,79,38,36,965,525.0,646,463,60,128.0,151,1,311,200,79,0,0,499,-9216,6274,525,-5.59,,,,,,,,,,,,
175743,1564236394065,1,2.71,1.07,0.42,1.49,1.13,0.44,-0.83,0.69,19,-4,25,0.94,8499,17,79,38,35,936,529.0,638,463,60,127.0,151,1,307,195,79,0,0,496,-6528,-32248,529,-5.59,44.680885,10.017262,49.82,181.0,0,0.0,-1,0.0,0.0,0,0.73,2.929
175763,1564236394091,-0,2.73,1.07,0.42,1.49,1.13,0.51,-0.84,0.61,21,-5,26,0.99,8370,17,79,38,36,907,527.0,638,466,60,129.0,117,1,308,197,62,0,0,470,-1818,15679,527,-5.59,,,,,,,,,,,,
175783,1564236394111,2,2.73,1.06,0.42,1.49,1.13,0.55,-0.86,0.53,22,-6,27,1.02,8370,17,79,38,36,890,523.0,640,468,60,128.0,117,1,308,197,62,0,0,415,3580,1248,523,-5.59,,,,,,,,,,,,
175803,1564236394131,1,2.74,1.07,0.42,1.49,1.13,0.69,-0.9,0.53,23,-6,29,1.14,8411,17,79,38,36,866,520.0,637,466,60,128.0,117,1,308,198,62,0,0,382,3580,-8187,520,-5.59,,,,,,,,,,,,
175823,1564236394151,3,2.73,1.06,0.42,1.49,1.13,0.64,-0.98,0.5,25,-5,30,1.17,8337,3,79,38,37,851,520.0,637,462,60,126.0,117,1,310,201,62,0,0,349,16648,1248,520,-5.59,,,,,,,,,,,,
175843,1564236394171,0,2.71,1.06,0.42,1.49,1.13,0.72,-1.04,0.53,26,-4,32,1.26,8187,17,79,37,37,850,520.0,633,466,60,129.0,117,1,307,220,62,0,0,334,-23367,2088,520,-5.59,44.680897,10.017261,51.55,181.0,0,0.0,-1,0.0,0.0,0,0.73,2.9307
175863,1564236394191,3,2.7,1.06,0.43,1.49,1.13,0.64,-1.06,0.52,28,-2,33,1.24,7975,0,79,37,37,854,519.0,636,467,60,127.0,128,1,304,213,67,0,0,328,-9203,1248,519,-5.59,,,,,,,,,,,,
175883,1564236394211,3,2.68,1.07,0.42,1.49,1.13,0.69,-1.1,0.54,29,-1,35,1.29,7832,0,79,37,37,865,520.0,632,466,60,129.0,128,1,304,211,67,0,0,327,3576,-8187,520,-5.59,,,,,,,,,,,,
175903,1564236394231,2,2.66,1.06,0.42,1.49,1.13,0.71,-1.11,0.52,30,-0,36,1.32,7649,0,79,37,37,880,522.0,628,465,60,128.0,128,1,304,207,67,0,0,322,32033,16383,522,-5.59,,,,,,,,,,,,
175923,1564236394251,-1,2.64,1.06,0.42,1.49,1.13,0.78,-1.12,0.52,30,-1,38,1.36,7575,0,79,37,38,893,519.0,585,465,60,129.0,128,1,307,125,67,0,0,297,32033,-3482,519,-5.59,,,,,,,,,,,,
175943,1564236394271,-0,2.63,1.06,0.42,1.49,1.13,0.84,-1.08,0.49,30,-1,39,1.37,7470,4,79,37,38,905,513.0,477,465,60,130.0,128,1,307,207,67,0,0,279,10432,17136,513,-5.59,44.680904,10.01726,50.74,181.0,0,0.0,-1,0.0,0.0,0,0.73,2.9324
175963,1564236394291,3,2.62,1.07,0.42,1.5,1.13,0.83,-1.05,0.46,30,-1,41,1.34,7434,1,79,37,38,921,511.0,416,466,60,128.0,113,1,307,204,58,0,0,266,-16384,-14,511,-5.59,,,,,,,,,,,,
175983,1564236394311,3,2.6,1.07,0.42,1.49,1.13,0.81,-1.02,0.45,30,-1,42,1.31,7344,15,79,37,39,937,511.0,374,463,60,129.0,113,1,310,229,58,0,0,261,6193,26178,511,-5.59,,,,,,,,,,,,
176003,1564236394331,2,2.59,1.07,0.42,1.5,1.13,0.82,-0.98,0.37,31,-2,42,1.27,7315,20,79,37,40,947,513.0,349,466,60,130.0,113,1,317,228,58,0,0,262,-16384,-21872,513,-5.59,,,,,,,,,,,,
176023,1564236394351,1,2.57,1.06,0.43,1.49,1.13,0.82,-1.01,0.34,32,-1,41,1.3,7301,22,79,37,41,951,509.0,375,465,60,127.0,113,1,325,226,58,0,0,262,6193,-4054,509,-5.59,,,,,,,,,,,,
176043,1564236394371,1,2.54,1.07,0.42,1.49,1.13,0.81,-1.08,0.34,32,-1,41,1.35,7270,29,79,37,42,954,508.0,375,467,60,127.0,113,1,332,226,58,0,0,260,6193,-14,508,-5.59,44.68092,10.017261,49.67,181.0,0,0.0,-1,0.0,0.0,0,0.73,2.9341
176063,1564236394391,-2,2.52,1.07,0.42,1.48,1.13,0.83,-1.17,0.39,32,-0,41,1.43,7295,22,79,37,46,957,506.0,347,467,60,127.0,122,1,362,215,62,0,0,260,-23623,-28648,508,-5.59,,,,,,,,,,,,
176083,1564236394411,-2,2.5,1.06,0.42,1.49,1.12,0.83,-1.23,0.43,31,0,42,1.49,7350,27,79,37,51,955,507.0,329,467,60,127.0,122,1,381,232,62,0,0,258,6193,-32248,503,-5.59,,,,,,,,,,,,
176103,1564236394431,-1,2.48,1.06,0.42,1.49,1.13,0.84,-1.24,0.45,30,-0,41,1.5,7491,45,79,37,56,953,502.0,318,465,60,127.0,122,1,403,300,62,0,0,263,30272,10408,504,-5.59,,,,,,,,,,,,
176123,1564236394451,-1,2.48,1.06,0.42,1.49,1.13,0.84,-1.25,0.5,29,-1,41,1.51,7703,44,79,37,61,936,503.0,322,466,60,127.0,122,1,442,338,62,0,0,267,-16384,-22519,503,-5.59,,,,,,,,,,,,
176143,1564236394471,1,2.48,1.06,0.42,1.49,1.12,0.84,-1.26,0.53,28,-1,40,1.51,7864,48,79,37,66,913,497.0,333,462,60,127.0,122,1,444,391,62,0,0,273,30272,6274,497,-5.59,44.680931,10.017262,49.06,180.9,0,0.0,-1,0.0,0.0,0,0.73,2.9357
176163,1564236394491,3,2.47,1.07,0.42,1.48,1.13,0.85,-1.25,0.52,28,-0,39,1.51,8019,39,79,37,70,892,497.0,325,463,60,128.0,242,1,447,373,121,0,0,285,16408,2524,497,-5.59,,,,,,,,,,,,
176183,1564236394511,2,2.48,1.06,0.42,1.49,1.12,0.91,-1.22,0.48,26,-1,38,1.52,8245,57,79,37,73,876,495.0,319,462,60,129.0,242,1,437,344,121,0,0,338,243,2524,496,-5.59,,,,,,,,,,,,
176203,1564236394531,-0,2.49,1.06,0.42,1.49,1.13,0.91,-1.14,0.5,25,-1,37,1.46,8292,44,79,37,75,861,495.0,313,463,60,128.0,242,1,433,504,121,0,0,433,243,248,493,-5.59,,,,,,,,,,,,
176223,1564236394551,1,2.48,1.06,0.42,1.49,1.12,0.93,-1.13,0.5,24,-2,37,1.47,8569,66,79,37,76,850,490.0,311,468,60,128.0,242,1,425,518,121,0,0,469,-16384,248,490,-5.59,,,,,,,,,,,,
176243,1564236394571,2,2.49,1.06,0.42,1.49,1.12,0.97,-1.16,0.53,23,-2,35,1.51,8861,70,79,37,76,844,492.0,307,464,60,128.0,242,1,417,522,121,0,0,466,30272,-32768,492,-5.59,44.680946,10.017266,48.41,180.9,0,0.0,-1,0.0,0.0,0,0.73,2.9374
176263,1564236394592,3,2.49,1.05,0.42,1.49,1.12,1.04,-1.05,0.4,22,-3,35,1.48,9291,70,79,37,77,854,492.0,302,467,60,128.0,371,1,414,466,183,0,0,468,-16384,2524,492,-5.59,,,,,,,,,,,,
176283,1564236394612,1,2.49,1.06,0.42,1.48,1.12,0.98,-1.01,0.43,22,-2,35,1.4,9725,70,79,37,77,904,493.0,312,463,60,128.0,371,1,407,467,183,0,0,469,16408,998,493,-5.59,,,,,,,,,,,,
176303,1564236394632,0,2.5,1.06,0.42,1.48,1.12,0.93,-0.97,0.3,22,-3,35,1.34,9973,76,79,37,75,955,493.0,323,471,60,128.0,371,1,397,476,183,0,0,502,-3210,2109,496,-5.59,,,,,,,,,,,,
176323,1564236394652,2,2.51,1.06,0.42,1.49,1.13,0.9,-0.96,0.47,23,-0,34,1.32,10075,76,79,37,75,1020,497.0,345,460,60,127.0,371,1,402,479,183,0,0,553,10432,-3856,497,-5.59,,,,,,,,,,,,
176343,1564236394672,0,2.52,1.06,0.42,1.49,1.12,0.83,-0.94,0.45,23,2,34,1.26,10091,76,79,37,74,1093,501.0,348,465,60,127.0,371,1,403,472,183,0,0,569,-9203,1341,501,-5.59,44.680954,10.017272,48.22,180.9,0,0.0,-1,0.0,0.0,0,0.73,2.939
176363,1564236394691,1,2.52,1.06,0.42,1.48,1.13,0.78,-0.95,0.37,23,1,35,1.23,10151,73,79,37,74,1146,508.0,389,463,60,127.0,359,1,407,473,181,0,0,529,-9203,2088,508,-5.59,,,,,,,,,,,,
176383,1564236394711,1,2.53,1.06,0.42,1.48,1.13,0.76,-0.89,0.32,24,1,35,1.17,10075,66,79,37,75,1180,510.0,393,467,60,128.0,359,1,402,460,181,0,0,511,16648,-3082,510,-5.59,,,,,,,,,,,,
176403,1564236394731,1,2.53,1.06,0.42,1.48,1.13,0.7,-0.85,0.49,24,3,34,1.1,9852,44,79,38,75,1216,514.0,421,468,60,128.0,359,1,402,444,181,0,0,548,16648,1780,514,-5.59,,,,,,,,,,,,
176423,1564236394751,3,2.54,1.06,0.42,1.48,1.13,0.65,-0.87,0.4,24,2,34,1.08,9837,28,79,38,75,1208,515.0,437,467,60,127.0,359,1,402,451,181,0,0,537,8488,6274,515,-5.59,,,,,,,,,,,,
176443,1564236394771,2,2.55,1.06,0.42,1.49,1.12,0.66,-0.88,0.53,25,1,34,1.1,9899,38,79,38,75,1195,517.0,471,473,60,128.0,359,1,400,544,181,0,0,514,-10483,-32248,517,-5.59,44.680965,10.01728,47.73,180.8,0,0.0,-1,0.0,0.0,0,0.74,2.9407
176463,1564236394791,-0,2.57,1.06,0.42,1.48,1.13,0.59,-0.88,0.5,25,1,34,1.05,9904,61,79,38,75,1190,519.0,507,467,60,127.0,389,1,400,541,202,0,0,555,505,6274,519,-5.59,,,,,,,,,,,,
176483,1564236394809,3,2.57,1.06,0.42,1.48,1.12,0.65,-0.85,0.35,25,-2,34,1.06,10113,72,79,38,75,1183,521.0,543,465,60,127.0,389,1,404,542,202,0,0,552,248,1780,521,-5.59,,,,,,,,,,,,
176503,1564236394829,3,2.57,1.06,0.41,1.48,1.13,0.6,-0.91,0.51,25,-2,33,1.09,10313,70,79,38,74,1186,527.0,575,462,60,127.0,389,1,419,544,202,0,0,539,-6528,6274,527,-5.59,,,,,,,,,,,,
176523,1564236394849,1,2.57,1.06,0.42,1.48,1.13,0.58,-0.94,0.66,25,-2,31,1.1,10469,71,79,38,72,1189,530.0,624,465,60,128.0,389,1,437,462,202,0,0,562,998,-32504,530,-5.59,,,,,,,,,,,,
176543,1564236394869,3,2.55,1.06,0.42,1.49,1.13,0.56,-1.0,0.79,26,-0,31,1.14,10611,70,79,38,71,1185,535.0,644,467,60,128.0,389,1,440,458,202,0,0,567,771,-29984,535,-5.59,44.680977,10.017286,49.25,180.8,0,0.0,-1,0.0,0.0,0,0.74,2.9424
176563,1564236394889,2,2.56,1.06,0.42,1.48,1.13,0.56,-1.0,0.87,27,0,31,1.15,10647,68,79,38,70,1180,539.0,657,463,60,128.0,345,1,443,453,185,0,0,564,3,-8188,540,-5.59,,,,,,,,,,,,
176583,1564236394910,1,2.55,1.06,0.42,1.49,1.12,0.53,-1.03,0.88,28,0,31,1.16,10738,66,79,38,70,1175,544.0,655,468,60,127.0,345,1,443,453,185,0,0,567,10408,259,542,-5.59,,,,,,,,,,,,
176603,1564236394930,-0,2.56,1.06,0.42,1.48,1.13,0.63,-0.95,0.84,28,-1,32,1.14,10775,65,79,38,70,1162,549.0,656,463,60,126.0,345,1,444,448,185,0,0,583,-32248,-8188,549,-5.59,,,,,,,,,,,,
176623,1564236394950,-0,2.55,1.06,0.42,1.49,1.12,0.57,-0.94,0.71,29,-0,34,1.09,10775,26,79,38,70,1136,549.0,662,464,60,127.0,345,1,444,441,185,0,0,579,-21872,-4035,549,-5.59,,,,,,,,,,,,
176643,1564236394970,2,2.56,1.06,0.42,1.48,1.13,0.55,-0.98,0.74,30,-1,34,1.12,10850,23,79,38,70,1116,552.0,668,463,60,128.0,345,1,446,436,185,0,0,576,-21872,15649,552,-5.59,44.680988,10.017296,50.95,180.8,0,0.0,-1,0.0,0.0,0,0.74,2.9441
176663,1564236394990,1,2.56,1.06,0.42,1.48,1.13,0.59,-1.06,0.84,30,-1,35,1.21,10844,46,79,38,69,1090,553.0,666,461,60,127.0,393,1,447,453,217,0,0,599,-28648,-12040,553,-5.59,,,,,,,,,,,,
176683,1564236395004,0,2.55,1.06,0.42,1.48,1.13,0.58,-1.08,0.84,31,-0,35,1.22,10952,54,79,38,70,1076,559.0,663,467,60,126.0,393,1,448,453,217,0,0,584,-3414,8488,559,-5.59,,,,,,,,,,,,
176703,1564236395024,2,2.55,1.05,0.42,1.49,1.12,0.61,-0.97,0.73,31,-3,37,1.15,11101,45,79,38,69,1049,560.0,653,463,60,127.0,393,1,448,436,217,0,0,576,26178,-3210,560,-5.59,,,,,,,,,,,,
176723,1564236395044,2,2.54,1.06,0.42,1.48,1.13,0.61,-1.07,0.86,32,-2,37,1.23,11114,38,79,38,69,1028,563.0,636,468,60,127.0,393,1,447,436,217,0,0,616,15679,6273,566,-5.59,,,,,,,,,,,,
176743,1564236395064,0,2.54,1.06,0.42,1.48,1.12,0.55,-0.94,0.73,32,-1,39,1.09,11214,49,79,38,68,1026,567.0,634,464,60,126.0,393,1,446,443,217,0,0,609,-9212,-3446,567,-5.59,44.681,10.017306,52.49,180.8,0,0.0,-1,0.0,0.0,0,0.74,2.9457
176763,1564236395084,3,2.56,1.06,0.42,1.49,1.12,0.58,-1.04,0.86,33,1,38,1.19,11343,61,79,38,66,1024,567.0,569,459,60,127.0,333,1,444,493,189,0,0,601,-8187,-3820,567,-5.59,,,,,,,,,,,,
176783,1564236395110,1,2.55,1.06,0.42,1.47,1.12,0.52,-0.98,0.7,33,-0,40,1.12,11343,57,79,38,63,1010,571.0,562,463,60,127.0,333,1,444,455,189,0,0,604,-9212,17740,571,-5.59,,,,,,,,,,,,
176803,1564236395130,0,2.55,1.06,0.42,1.48,1.13,0.56,-1.05,0.76,34,0,39,1.19,11308,49,79,38,60,988,574.0,524,461,60,127.0,333,1,437,426,189,0,0,612,2524,243,574,-5.59,,,,,,,,,,,,
176823,1564236395150,0,2.55,1.06,0.41,1.48,1.12,0.55,-1.04,0.65,34,-1,40,1.17,11174,18,79,38,59,972,572.0,495,462,60,127.0,333,1,433,366,189,0,0,614,2088,5344,576,-5.59,,,,,,,,,,,,
176843,1564236395170,3,2.54,1.06,0.42,1.48,1.12,0.58,-1.13,0.78,35,-1,39,1.27,11227,42,79,38,58,960,574.0,522,462,60,127.0,333,1,426,421,189,0,0,595,2088,-7939,574,-5.59,44.681007,10.017319,54.04,180.7,0,0.0,-1,0.0,0.0,0,0.74,2.9474
176863,1564236395192,1,2.54,1.06,0.42,1.47,1.13,0.61,-1.03,0.62,35,-2,42,1.2,11214,35,79,38,58,929,574.0,491,468,60,126.0,266,1,426,367,153,0,0,602,6274,-768,574,-5.59,,,,,,,,,,,,
176883,1564236395212,3,2.52,1.05,0.41,1.48,1.13,0.61,-1.12,0.75,35,0,40,1.28,11167,49,79,38,58,893,575.0,460,466,60,127.0,266,1,426,415,153,0,0,603,6274,243,575,-5.59,,,,,,,,,,,,
176903,1564236395232,2,2.5,1.06,0.42,1.48,1.12,0.62,-1.04,0.64,35,1,42,1.21,11174,44,79,37,57,861,575.0,431,466,60,127.0,266,1,420,417,153,0,0,606,-28648,243,575,-5.59,,,,,,,,,,,,
176923,1564236395252,4,2.49,1.05,0.42,1.49,1.13,0.63,-1.13,0.76,34,-0,42,1.29,11220,55,79,37,57,841,578.0,416,465,60,128.0,266,1,420,417,153,0,0,609,-9072,30227,575,-5.59,,,,,,,,,,,,
176943,1564236395272,2,2.46,1.06,0.42,1.48,1.13,0.63,-1.06,0.68,34,-2,44,1.24,11295,49,79,37,57,824,575.0,408,463,60,127.0,266,1,419,361,153,0,0,601,-22519,243,575,-5.59,44.681019,10.017331,55.53,180.7,0,0.0,-1,0.0,0.0,0,0.74,2.949
176963,1564236395292,2,2.45,1.06,0.42,1.48,1.12,0.64,-1.15,0.81,34,-2,42,1.32,11281,54,79,37,57,800,576.0,406,466,60,127.0,270,1,419,361,155,0,0,604,2104,243,576,-5.59,,,,,,,,,,,,
176983,1564236395310,3,2.43,1.05,0.42,1.49,1.13,0.57,-1.1,0.66,35,-3,42,1.24,11247,54,79,37,58,784,578.0,422,466,60,127.0,270,1,426,428,155,0,0,600,2104,-3446,578,-5.59,,,,,,,,,,,,
177003,1564236395330,3,2.39,1.05,0.42,1.48,1.13,0.65,-1.19,0.78,35,-3,40,1.35,11315,58,79,37,59,779,579.0,425,474,60,127.0,270,1,432,431,155,0,0,614,14504,30227,578,-5.59,,,,,,,,,,,,
177023,1564236395350,1,2.35,1.06,0.42,1.48,1.12,0.72,-1.08,0.63,34,-4,42,1.3,11391,62,79,37,61,775,582.0,422,468,60,127.0,270,1,443,441,155,0,0,629,-32248,17344,582,-5.59,,,,,,,,,,,,
177043,1564236395370,1,2.31,1.05,0.42,1.47,1.13,0.7,-1.09,0.76,32,-1,42,1.3,11481,74,79,37,65,768,576.0,414,465,60,128.0,270,1,440,458,155,0,0,640,-2934,17344,576,-5.59,44.681026,10.017345,55.87,180.7,0,0.0,-1,0.0,0.0,0,0.74,2.9507
177063,1564236395393,3,2.27,1.05,0.42,1.48,1.12,0.73,-1.13,0.87,30,1,41,1.34,11704,83,79,37,70,763,575.0,431,466,60,127.0,351,1,440,475,203,0,0,643,-3082,-768,575,-5.59,,,,,,,,,,,,
177083,1564236395413,3,2.24,1.05,0.42,1.48,1.12,0.7,-1.16,0.91,28,2,40,1.36,11912,91,79,37,76,761,578.0,417,463,60,127.0,351,1,440,490,203,0,0,606,-22519,19320,578,-5.59,,,,,,,,,,,,
177103,1564236395433,2,2.26,1.05,0.42,1.48,1.12,0.68,-1.21,0.98,27,4,37,1.39,12011,76,79,37,79,762,577.0,410,467,60,127.0,351,1,440,502,203,0,0,638,-9072,506,579,-5.59,,,,,,,,,,,,
177123,1564236395453,3,2.25,1.05,0.42,1.47,1.13,0.69,-1.27,1.02,26,6,34,1.44,12026,93,79,37,81,764,580.0,411,464,60,127.0,351,1,440,616,203,0,0,662,-32504,-2580,580,-5.59,,,,,,,,,,,,
177143,1564236395473,1,2.25,1.05,0.42,1.48,1.12,0.69,-1.32,1.12,24,7,31,1.49,12073,92,79,37,81,766,581.0,401,466,60,127.0,351,1,440,598,203,0,0,638,2211,6208,580,-5.59,44.681038,10.017362,56.01,180.7,0,0.0,-1,0.0,0.0,0,0.75,2.9524
177163,1564236395492,-0,2.28,1.05,0.41,1.48,1.12,0.69,-1.35,1.2,22,9,27,1.52,12050,80,79,37,82,770,582.0,397,463,60,127.0,468,1,440,545,272,0,0,621,-8188,479,582,-5.59,,,,,,,,,,,,
177183,1564236395512,-0,2.28,1.05,0.42,1.47,1.13,0.76,-1.38,1.28,20,10,24,1.58,11980,84,79,37,81,778,585.0,420,465,60,127.0,468,1,440,611,272,0,0,650,243,4909,588,-5.59,,,,,,,,,,,,
177203,1564236395532,1,2.29,1.05,0.41,1.47,1.13,0.79,-1.44,1.35,18,11,21,1.65,11927,71,79,37,82,785,589.0,431,463,60,127.0,468,1,440,629,272,0,0,636,15649,-2836,589,-5.59,,,,,,,,,,,,
177223,1564236395552,3,2.29,1.05,0.42,1.48,1.12,0.81,-1.47,1.41,15,11,18,1.68,11867,77,79,37,82,794,591.0,472,472,60,128.0,468,1,440,628,272,0,0,630,208,244,595,-5.59,,,,,,,,,,,,
177243,1564236395572,3,2.31,1.05,0.41,1.47,1.13,0.79,-1.47,1.47,13,11,16,1.67,11814,70,79,37,82,801,596.0,512,463,60,127.0,468,1,440,525,272,0,0,632,-13043,11776,598,-5.59,44.681046,10.017379,56.22,180.7,0,0.0,-1,0.0,0.0,0,0.75,2.9541
177263,1564236395592,2,2.33,1.05,0.41,1.47,1.13,0.67,-1.41,1.34,10,10,15,1.56,11792,94,79,37,82,804,604.0,524,470,60,128.0,403,1,440,630,241,0,0,634,5344,-5120,602,-5.59,,,,,,,,,,,,
177283,1564236395612,2,2.34,1.05,0.41,1.47,1.12,0.51,-1.23,1.18,8,8,15,1.33,11792,94,79,37,82,803,607.0,550,459,60,126.0,403,1,440,612,241,0,0,633,19621,-30207,607,-5.59,,,,,,,,,,,,
177303,1564236395632,1,2.36,1.05,0.41,1.47,1.12,0.4,-1.04,1.11,8,6,14,1.11,11807,92,79,37,82,803,611.0,544,460,60,127.0,403,1,440,594,241,0,0,640,-30139,771,611,-5.59,,,,,,,,,,,,
177323,1564236395652,2,2.35,1.04,0.41,1.46,1.12,0.29,-0.84,1.04,7,4,15,0.88,11889,94,79,37,82,797,617.0,583,462,60,127.0,403,1,440,578,241,0,0,636,26688,244,617,-5.59,,,,,,,,,,,,
177343,1564236395672,2,2.37,1.05,0.42,1.47,1.12,0.18,-0.66,1.06,7,3,15,0.69,11980,94,79,37,82,789,622.0,633,461,60,127.0,403,1,440,562,241,0,0,644,30721,-3488,622,-5.59,44.681053,10.017396,57.63,180.6,0,0.0,-1,0.0,0.0,0,0.75,2.9557
177363,1564236395692,2,2.37,1.05,0.41,1.48,1.13,0.1,-0.56,1.02,8,3,14,0.57,12073,94,79,37,82,785,629.0,658,461,60,127.0,406,1,440,545,254,0,0,643,3395,-3488,631,-5.59,,,,,,,,,,,,
177383,1564236395712,3,2.37,1.05,0.41,1.47,1.12,0.04,-0.44,1.0,8,2,14,0.44,12191,93,79,37,82,779,635.0,670,463,60,127.0,406,1,440,545,254,0,0,662,20993,-2826,633,-5.59,,,,,,,,,,,,
177403,1564236395732,3,2.38,1.06,0.41,1.48,1.13,-0.04,-0.35,0.94,9,3,14,0.35,12319,93,79,37,82,780,639.0,677,462,60,128.0,406,1,440,545,254,0,0,653,-14655,-3488,641,-5.59,,,,,,,,,,,,
177423,1564236395752,-1,2.38,1.05,0.41,1.47,1.13,0.03,-0.46,1.04,9,4,12,0.46,12384,96,79,37,82,781,645.0,677,459,60,128.0,406,1,440,545,254,0,0,662,3,-3038,645,-5.59,,,,,,,,,,,,
177443,1564236395772,-2,2.39,1.05,0.42,1.48,1.12,0.11,-0.54,1.14,9,7,10,0.55,11897,95,80,37,83,781,648.0,667,461,60,130.0,406,1,440,552,254,0,0,651,6208,-2345,648,-5.59,44.681061,10.017415,60.23,180.7,0,0.0,-1,0.0,0.0,0,0.75,2.9574
177463,1564236395792,-1,2.38,1.05,0.41,1.48,1.12,0.16,-0.51,1.05,9,5,11,0.53,11384,85,79,37,85,782,651.0,666,456,60,130.0,376,1,441,577,245,0,0,650,6208,8958,647,-5.59,,,,,,,,,,,,
177483,1564236395812,-1,2.38,1.06,0.42,1.48,1.13,0.27,-0.47,1.09,9,3,10,0.54,11088,100,79,37,86,783,648.0,665,458,60,130.0,376,1,445,688,245,0,0,640,-10251,-3038,648,-5.59,,,,,,,,,,,,
177503,1564236395832,-1,2.38,1.05,0.42,1.47,1.13,0.27,-0.36,0.78,10,-0,11,0.45,10913,100,79,37,86,783,647.0,661,457,60,130.0,376,1,442,673,245,0,0,634,-2836,2024,647,-5.59,,,,,,,,,,,,
177523,1564236395852,1,2.39,1.05,0.42,1.47,1.13,0.34,-0.37,0.83,11,-2,11,0.5,10617,100,79,37,87,818,649.0,660,463,60,128.0,376,1,436,1248,245,0,0,637,-2836,244,649,-5.59,,,,,,,,,,,,
177543,1564236395872,1,2.37,1.05,0.42,1.47,1.13,0.34,-0.35,0.8,11,1,12,0.49,9978,100,79,37,87,852,650.0,660,457,60,126.0,376,1,398,1099,245,0,0,740,244,-3584,650,-5.59,44.681065,10.017435,62.13,180.7,0,0.0,-1,0.0,0.0,0,0.75,2.959
177563,1564236395891,4,2.37,1.05,0.41,1.48,1.13,0.37,-0.37,0.78,10,4,13,0.52,9684,100,79,37,86,885,660.0,657,465,60,127.0,591,1,410,916,388,0,0,811,244,-2826,662,-5.59,,,,,,,,,,,,
177583,1564236395911,1,2.37,1.05,0.41,1.48,1.13,0.41,-0.46,0.88,11,5,13,0.62,9973,100,79,37,85,919,666.0,650,463,60,127.0,591,1,397,765,388,0,0,701,-8429,16599,669,-5.59,,,,,,,,,,,,
177603,1564236395931,2,2.37,1.05,0.41,1.47,1.13,0.43,-0.45,0.85,11,6,13,0.62,9989,100,79,37,84,1041,666.0,652,464,60,127.0,591,1,396,635,388,0,0,690,-3488,-20693,669,-5.59,,,,,,,,,,,,
177623,1564236395951,2,2.37,1.05,0.42,1.47,1.13,0.45,-0.41,0.96,11,7,13,0.61,9679,100,79,37,85,1128,673.0,650,456,60,126.0,591,1,410,505,388,0,0,725,8958,-13072,673,-5.59,,,,,,,,,,,,
177643,1564236395971,2,2.37,1.05,0.41,1.47,1.12,0.52,-0.41,1.01,11,6,13,0.66,9412,100,79,37,85,1216,681.0,647,466,60,128.0,591,1,418,571,388,0,0,720,-2345,-13312,681,-5.59,44.681068,10.017456,64.0,180.7,0,0.0,-1,0.0,0.0,0,0.75,2.9607
177663,1564236395991,1,2.37,1.05,0.41,1.48,1.12,0.48,-0.35,0.85,11,4,14,0.6,9403,98,79,37,85,1316,679.0,648,455,60,128.0,301,1,418,669,204,0,0,695,-10348,-12152,678,-5.59,,,,,,,,,,,,
177683,1564236396005,2,2.37,1.05,0.41,1.47,1.13,0.47,-0.42,0.86,10,1,14,0.63,9441,95,79,37,86,1296,682.0,652,452,60,128.0,301,1,418,514,204,0,0,696,-3578,-13072,683,-5.59,,,,,,,,,,,,
177703,1564236396025,2,2.38,1.05,0.42,1.47,1.13,0.45,-0.48,0.97,9,0,11,0.66,9620,100,79,37,85,1261,685.0,649,462,60,127.0,301,1,413,655,204,0,0,713,-26380,204,685,-5.59,,,,,,,,,,,,
177723,1564236396045,0,2.37,1.05,0.42,1.47,1.13,0.42,-0.45,0.98,9,-0,11,0.62,9780,100,79,37,85,1200,689.0,655,458,60,127.0,301,1,406,644,204,0,0,721,-26562,-13312,689,-5.59,,,,,,,,,,,,
177743,1564236396065,3,2.36,1.06,0.41,1.48,1.13,0.34,-0.36,0.94,8,-1,11,0.5,9946,100,79,37,85,1091,694.0,656,462,60,128.0,301,1,398,631,204,0,0,738,3543,1524,696,-5.59,44.681076,10.017477,64.47,180.7,0,0.0,-1,0.0,0.0,0,0.76,2.9624
177763,1564236396091,2,2.36,1.06,0.42,1.47,1.13,0.3,-0.31,1.04,8,-1,11,0.43,10032,100,79,37,85,998,699.0,659,459,60,128.0,341,1,397,592,237,0,0,721,24,1524,699,-5.59,,,,,,,,,,,,
177783,1564236396111,1,2.35,1.05,0.42,1.47,1.13,0.15,-0.38,1.14,8,2,10,0.41,10048,100,79,37,84,913,705.0,656,461,60,127.0,341,1,398,489,237,0,0,729,12333,3462,705,-5.59,,,,,,,,,,,,
177803,1564236396131,2,2.35,1.05,0.42,1.47,1.13,0.16,-0.32,1.14,8,1,9,0.36,10005,100,79,37,84,881,711.0,655,462,60,128.0,341,1,397,563,237,0,0,733,-2830,3462,712,-5.59,,,,,,,,,,,,
177823,1564236396151,2,2.35,1.05,0.41,1.48,1.13,0.19,-0.27,1.2,8,1,10,0.33,9904,100,79,37,84,910,716.0,650,465,60,128.0,341,1,400,559,237,0,0,740,6658,-31066,715,-5.59,,,,,,,,,,,,
177843,1564236396171,1,2.35,1.06,0.41,1.47,1.13,0.12,-0.32,1.28,8,1,8,0.34,9910,100,79,37,84,923,718.0,650,454,60,128.0,341,1,400,559,237,0,0,734,-13072,6790,718,-5.59,44.681084,10.017499,67.57,180.7,0,0.0,-1,0.0,0.0,0,0.76,2.9641
177863,1564236396193,3,2.34,1.05,0.41,1.48,1.12,0.16,-0.27,1.18,7,-1,8,0.31,10000,100,79,37,84,929,721.0,652,465,60,127.0,291,1,395,559,210,0,0,738,-13072,-2826,720,-5.59,,,,,,,,,,,,
177883,1564236396213,1,2.35,1.05,0.41,1.48,1.12,0.11,-0.23,1.2,6,-2,8,0.26,10053,100,79,37,84,926,724.0,653,459,60,127.0,291,1,398,559,210,0,0,749,-31068,-2826,724,-5.59,,,,,,,,,,,,
177903,1564236396233,2,2.34,1.06,0.42,1.47,1.13,0.01,-0.22,1.28,6,-2,6,0.22,10162,100,79,37,84,908,724.0,658,457,60,128.0,291,1,406,559,210,0,0,752,-25858,-23308,727,-5.59,,,,,,,,,,,,
177923,1564236396253,0,2.33,1.05,0.41,1.48,1.12,0.07,-0.15,1.15,6,-2,7,0.17,10251,100,79,37,84,906,731.0,657,459,60,127.0,291,1,412,559,210,0,0,746,-2830,-22795,731,-5.59,,,,,,,,,,,,
177943,1564236396273,1,2.35,1.05,0.41,1.47,1.13,0.24,-0.14,1.01,5,-2,7,0.28,10341,100,79,37,84,912,735.0,657,466,60,127.0,291,1,418,559,210,0,0,759,-2358,6389,735,-5.59,44.681088,10.017522,69.3,180.7,0,0.0,-1,0.0,0.0,0,0.76,2.9657
177963,1564236396291,1,2.36,1.05,0.41,1.47,1.11,0.41,-0.12,1.07,5,-3,7,0.42,10364,100,79,37,84,925,738.0,662,462,60,128.0,299,1,420,559,219,0,0,761,3462,-2344,739,-5.59,,,,,,,,,,,,
177983,1564236396311,2,2.36,1.05,0.4,1.47,1.12,0.46,-0.1,1.16,5,-5,7,0.47,10359,100,79,37,84,941,742.0,659,460,60,127.0,299,1,420,559,219,0,0,759,-13068,-2344,742,-5.59,,,,,,,,,,,,
178003,1564236396331,3,2.36,1.05,0.4,1.48,1.12,0.4,-0.14,1.12,5,-3,7,0.42,10439,100,79,37,84,966,749.0,658,464,60,128.0,299,1,425,559,219,0,0,766,-2356,-3368,749,-5.59,,,,,,,,,,,,
178023,1564236396351,2,2.36,1.05,0.4,1.47,1.12,0.37,-0.21,1.13,5,-2,6,0.42,10410,95,79,37,84,981,750.0,660,464,60,127.0,299,1,423,559,219,0,0,771,-2826,6389,752,-5.59,,,,,,,,,,,,
178043,1564236396371,3,2.36,1.04,0.39,1.47,1.13,0.34,-0.39,1.21,5,-0,5,0.51,10498,86,79,37,83,995,756.0,662,461,60,128.0,299,1,428,540,219,0,0,785,-30694,5876,756,-5.59,44.681095,10.017546,71.5,180.7,0,0.0,-1,0.0,0.0,0,0.76,2.9674
178063,1564236396391,3,2.36,1.05,0.39,1.48,1.12,0.46,-0.48,1.29,5,-1,4,0.67,10569,78,79,37,80,994,756.0,661,467,60,127.0,281,1,431,517,213,0,0,778,-23308,-31066,759,-5.59,,,,,,,,,,,,
178083,1564236396411,1,2.36,1.05,0.39,1.47,1.12,0.36,-0.58,1.33,5,-1,4,0.68,10635,73,79,37,76,993,763.0,665,462,60,127.0,281,1,434,486,213,0,0,783,-2574,-31066,761,-5.59,,,,,,,,,,,,
178103,1564236396431,4,2.36,1.05,0.38,1.47,1.12,0.46,-0.63,1.35,5,1,4,0.78,10683,68,79,37,73,992,766.0,664,466,60,127.0,281,1,439,472,213,0,0,778,-22795,-10218,766,-5.59,,,,,,,,,,,,
178123,1564236396451,-1,2.37,1.05,0.38,1.47,1.12,0.58,-0.49,1.34,5,0,4,0.76,10599,62,79,37,70,992,770.0,663,460,60,127.0,281,1,442,457,213,0,0,781,-10218,6389,770,-5.59,,,,,,,,,,,,
178143,1564236396471,-0,2.36,1.05,0.39,1.47,1.12,0.68,-0.42,1.08,5,-2,6,0.8,10599,51,79,37,66,992,769.0,664,458,60,127.0,281,1,446,428,213,0,0,788,13016,-2574,769,-5.59,44.681099,10.01757,73.38,180.7,0,0.0,-1,0.0,0.0,0,0.76,2.969
178163,1564236396491,1,2.35,1.06,0.38,1.47,1.12,0.67,-0.27,0.95,5,-4,7,0.72,10527,39,79,37,61,987,773.0,667,463,60,127.0,217,1,450,383,168,0,0,789,-2826,-10216,773,-5.59,,,,,,,,,,,,
178183,1564236396511,3,2.36,1.05,0.38,1.47,1.11,0.81,-0.15,0.8,5,-7,7,0.82,10451,27,79,37,55,979,773.0,665,468,60,127.0,217,1,406,331,168,0,0,779,-10216,-2426,773,-5.59,,,,,,,,,,,,
178203,1564236396531,8,2.36,1.05,0.38,1.47,1.12,0.92,-0.22,0.8,5,-10,6,0.94,10113,16,79,37,49,967,769.0,664,465,60,127.0,217,1,385,266,168,0,0,773,13016,6389,769,-5.59,,,,,,,,,,,,
178223,1564236396551,8,2.35,1.05,0.38,1.48,1.11,0.96,-0.34,0.85,4,-9,5,1.02,9889,8,79,37,43,958,769.0,657,465,60,128.0,217,1,350,232,168,0,0,760,6389,-10216,769,-5.59,,,,,,,,,,,,
178243,1564236396571,7,2.35,1.05,0.39,1.46,1.11,1.02,-0.28,0.81,4,-10,6,1.06,9694,6,79,37,39,950,766.0,657,464,60,127.0,217,1,320,215,168,0,0,755,13016,-3038,766,-5.59,44.681103,10.017595,75.16,180.8,0,0.0,-1,0.0,0.0,0,0.77,2.9707
178263,1564236396591,8,2.35,1.05,0.38,1.47,1.11,1.0,-0.28,0.81,4,-9,6,1.04,9503,6,79,37,36,910,765.0,660,463,60,128.0,100,1,311,207,77,0,0,750,-3038,-2344,768,-5.59,,,,,,,,,,,,
178283,1564236396611,7,2.35,1.05,0.39,1.47,1.11,0.9,-0.4,0.75,4,-7,6,0.98,9342,6,79,37,34,887,766.0,658,466,60,128.0,100,1,305,199,77,0,0,740,5876,-10214,766,-5.59,,,,,,,,,,,,
178303,1564236396631,10,2.36,1.05,0.38,1.47,1.12,1.01,-0.41,0.66,3,-5,5,1.09,9245,5,79,37,33,859,763.0,657,464,60,128.0,100,1,302,195,77,0,0,722,-31066,-2314,761,-5.59,,,,,,,,,,,,
178323,1564236396651,7,2.36,1.06,0.38,1.47,1.12,1.11,-0.35,0.62,3,-6,5,1.16,9300,0,79,37,31,843,759.0,656,470,60,128.0,100,1,295,192,77,0,0,724,-31068,1037,759,-5.59,,,,,,,,,,,,
178343,1564236396671,6,2.35,1.06,0.38,1.47,1.11,1.07,-0.28,0.63,4,-6,5,1.1,9323,0,79,37,29,842,755.0,650,456,60,129.0,100,1,287,190,77,0,0,729,6790,-30694,755,-5.59,44.681107,10.017622,76.52,180.8,0,0.0,-1,0.0,0.0,0,0.77,2.9724
178363,1564236396691,7,2.36,1.05,0.38,1.48,1.11,1.02,-0.37,0.59,3,-4,5,1.09,9333,0,79,37,28,841,749.0,649,456,60,129.0,89,1,282,189,67,0,0,724,6790,-2356,749,-5.59,,,,,,,,,,,,
178383,1564236396711,7,2.35,1.05,0.39,1.46,1.12,1.1,-0.4,0.48,3,-3,6,1.17,9360,0,79,37,27,857,745.0,648,461,60,129.0,89,1,278,189,67,0,0,718,-2826,31988,745,-5.59,,,,,,,,,,,,
178403,1564236396731,6,2.36,1.05,0.38,1.47,1.12,1.12,-0.3,0.4,3,-4,6,1.16,9407,0,79,37,26,881,742.0,650,457,60,128.0,89,1,274,188,67,0,0,718,-3580,-23490,739,-5.59,,,,,,,,,,,,
178423,1564236396751,7,2.36,1.05,0.39,1.46,1.12,1.09,-0.29,0.43,3,-4,5,1.13,9431,0,79,37,26,887,739.0,651,462,60,128.0,89,1,274,294,67,0,0,716,-2314,31988,739,-5.59,,,,,,,,,,,,
178443,1564236396771,5,2.36,1.05,0.38,1.47,1.1,1.1,-0.32,0.42,4,-3,4,1.14,9441,0,79,37,26,894,735.0,658,468,60,127.0,89,1,274,272,67,0,0,705,-13580,-31068,731,-5.59,44.681114,10.017648,75.87,180.8,0,0.0,-1,0.0,0.0,0,0.77,2.974
178463,1564236396791,6,2.36,1.05,0.38,1.47,1.11,1.12,-0.28,0.34,3,-3,6,1.16,9445,0,79,37,25,883,731.0,657,465,60,126.0,129,1,270,250,95,0,0,712,-2830,-3888,731,-5.59,,,,,,,,,,,,
178483,1564236396811,7,2.36,1.05,0.38,1.47,1.11,1.08,-0.18,0.38,4,-2,5,1.1,9426,0,79,37,25,863,723.0,658,463,60,125.0,129,1,270,227,95,0,0,702,-25858,-2830,723,-5.59,,,,,,,,,,,,
178503,1564236396831,4,2.36,1.05,0.38,1.47,1.11,1.07,-0.26,0.41,4,-2,4,1.1,9431,0,79,37,25,846,721.0,660,470,60,126.0,129,1,270,110,95,0,0,700,16118,15647,727,-5.59,,,,,,,,,,,,
178523,1564236396851,4,2.37,1.05,0.39,1.47,1.12,1.07,-0.29,0.37,4,-0,4,1.1,9436,0,79,37,25,822,718.0,658,467,60,126.0,129,1,270,187,95,0,0,697,16118,-30694,718,-5.59,,,,,,,,,,,,
178543,1564236396871,5,2.36,1.05,0.38,1.46,1.11,1.11,-0.19,0.27,4,-1,4,1.13,9469,0,79,37,25,808,715.0,659,469,60,127.0,129,1,270,187,95,0,0,696,-13072,15647,716,-5.59,44.681118,10.017673,73.86,180.7,0,0.0,-1,0.0,0.0,0,0.77,2.9757
178563,1564236396891,3,2.37,1.05,0.38,1.47,1.12,1.07,-0.16,0.34,4,-3,5,1.09,9464,0,79,37,24,798,711.0,656,467,60,126.0,89,1,270,180,64,0,0,696,687,8010,711,-5.59,,,,,,,,,,,,
178583,1564236396910,5,2.36,1.06,0.38,1.46,1.12,1.09,-0.23,0.33,4,-1,4,1.11,9460,0,79,37,24,799,711.0,657,467,60,127.0,89,1,270,180,64,0,0,695,-2830,-3584,706,-5.59,,,,,,,,,,,,
178603,1564236396930,7,2.35,1.05,0.39,1.47,1.11,1.14,-0.19,0.25,5,-3,3,1.16,9398,0,79,37,24,801,705.0,656,464,60,127.0,89,1,270,180,64,0,0,690,-2830,-10399,705,-5.59,,,,,,,,,,,,
178623,1564236396950,6,2.37,1.05,0.39,1.47,1.12,1.06,-0.1,0.29,5,-2,4,1.07,9346,0,79,37,24,807,699.0,657,470,60,127.0,89,1,270,180,64,0,0,682,24,-3584,700,-5.59,,,,,,,,,,,,
178643,1564236396970,5,2.36,1.06,0.39,1.46,1.12,1.05,-0.17,0.3,5,-0,4,1.06,9286,0,79,37,24,819,700.0,652,466,60,127.0,89,1,270,180,64,0,0,679,-10448,3543,700,-5.59,44.681122,10.017698,71.77,180.7,0,0.0,-1,0.0,0.0,0,0.77,2.9774
178663,1564236396990,5,2.36,1.05,0.38,1.47,1.12,0.92,-0.25,0.28,5,2,4,0.96,9213,0,79,37,24,826,697.0,655,469,60,127.0,90,1,270,180,63,0,0,684,-3584,-2826,697,-5.59,,,,,,,,,,,,
178683,1564236397010,8,2.37,1.06,0.38,1.48,1.11,0.97,-0.27,0.17,5,1,4,1.01,9159,0,79,37,23,835,692.0,657,468,60,127.0,90,1,270,175,63,0,0,677,6208,-10344,692,-5.59,,,,,,,,,,,,
178703,1564236397008,8,2.36,1.06,0.38,1.48,1.12,1.08,-0.29,0.14,4,-1,6,1.11,9132,0,79,37,23,837,688.0,655,468,60,126.0,90,1,270,175,63,0,0,667,-26562,3543,690,-5.59,,,,,,,,,,,,
178723,1564236397028,10,2.37,1.05,0.38,1.47,1.12,1.17,-0.24,0.08,4,-1,6,1.19,9128,0,79,37,23,835,686.0,655,465,60,127.0,90,1,270,175,63,0,0,673,-26892,1549,686,-5.59,,,,,,,,,,,,
178743,1564236397048,10,2.36,1.05,0.39,1.47,1.11,1.26,-0.21,0.12,4,-5,5,1.27,9057,0,79,37,22,834,681.0,653,467,60,127.0,90,1,270,169,63,0,0,657,-26380,-3578,681,-5.59,44.681126,10.017722,70.0,180.7,0,0.0,-1,0.0,0.0,0,0.78,2.979
178763,1564236397096,12,2.37,1.05,0.38,1.48,1.12,1.33,-0.15,0.15,5,-5,6,1.34,8992,0,79,37,23,833,678.0,652,466,60,126.0,83,1,270,169,57,0,0,655,1549,-388,677,-5.59,,,,,,,,,,,,
178783,1564236397116,10,2.37,1.05,0.39,1.47,1.11,1.4,-0.17,0.22,4,-6,7,1.41,8890,0,79,37,22,834,674.0,647,464,60,126.0,83,1,270,169,57,0,0,641,1549,3543,674,-5.59,,,,,,,,,,,,
178803,1564236397136,11,2.37,1.06,0.38,1.48,1.11,1.46,-0.15,0.23,5,-6,7,1.47,8782,0,79,37,23,835,671.0,647,464,60,127.0,83,1,270,97,57,0,0,632,-10344,-10348,671,-5.59,,,,,,,,,,,,
178823,1564236397156,11,2.37,1.06,0.39,1.47,1.12,1.49,-0.21,0.17,5,-5,7,1.5,8692,0,79,37,23,844,667.0,644,463,60,127.0,83,1,270,175,57,0,0,632,-3038,8958,667,-5.59,,,,,,,,,,,,
178843,1564236397176,10,2.38,1.06,0.38,1.47,1.11,1.39,-0.28,0.08,5,-4,7,1.41,8640,0,79,37,24,853,665.0,642,467,60,126.0,83,1,270,180,57,0,0,632,-6006,-2830,665,-5.59,44.681129,10.017747,68.37,180.7,0,0.0,-1,0.0,0.0,0,0.78,2.9807
178863,1564236397198,17,2.38,1.05,0.39,1.48,1.12,1.32,-0.24,0.08,6,-3,7,1.34,8608,0,79,37,24,867,655.0,642,463,60,126.0,89,1,270,180,59,0,0,626,4909,-6006,657,-5.59,,,,,,,,,,,,
178883,1564236397218,17,2.38,1.06,0.39,1.48,1.11,1.39,-0.26,0.12,6,-4,8,1.41,8581,0,79,37,24,878,650.0,643,466,60,126.0,89,1,270,180,59,0,0,610,-3584,11566,650,-5.59,,,,,,,,,,,,
178903,1564236397238,15,2.37,1.06,0.39,1.47,1.12,1.34,-0.29,0.1,6,-2,8,1.37,8534,0,79,37,24,889,647.0,642,466,60,127.0,89,1,270,187,59,0,0,596,-4876,16599,647,-5.59,,,,,,,,,,,,
178923,1564236397258,18,2.36,1.05,0.39,1.48,1.11,1.21,-0.24,0.04,6,-2,8,1.23,8366,0,79,37,25,916,645.0,642,466,60,126.0,89,1,270,178,59,0,0,589,-5120,16599,641,-5.59,,,,,,,,,,,,
178943,1564236397278,16,2.35,1.05,0.39,1.48,1.11,1.29,-0.2,0.09,6,-1,8,1.3,8194,0,79,37,25,931,639.0,642,467,60,127.0,89,1,270,169,59,0,0,605,-1346,-18357,639,-5.59,44.681133,10.01777,66.64,180.7,0,0.0,-1,0.0,0.0,0,0.78,2.9824
178963,1564236397298,17,2.34,1.06,0.38,1.48,1.12,1.26,-0.21,0.08,6,-0,9,1.28,8106,0,79,37,25,942,633.0,636,466,60,125.0,80,1,270,86,51,0,0,598,-16883,269,633,-5.59,,,,,,,,,,,,
178983,1564236397294,15,2.33,1.05,0.39,1.47,1.11,1.28,-0.19,0.07,6,-1,10,1.29,8120,0,79,37,25,962,624.0,640,466,60,127.0,80,1,270,165,51,0,0,582,269,-30139,624,-5.59,,,,,,,,,,,,
179003,1564236397314,17,2.34,1.04,0.38,1.47,1.12,1.33,-0.17,0.07,5,-2,10,1.34,8106,0,79,37,25,985,618.0,635,465,60,126.0,80,1,270,163,51,0,0,585,1010,4956,618,-5.59,,,,,,,,,,,,
179023,1564236397334,18,2.33,1.05,0.39,1.46,1.11,1.25,-0.14,-0.01,5,-1,9,1.26,8033,0,79,37,25,1002,612.0,632,467,60,125.0,80,1,270,159,51,0,0,581,1010,243,612,-5.59,,,,,,,,,,,,
179043,1564236397354,16,2.33,1.05,0.38,1.46,1.11,1.28,-0.12,-0.04,4,-1,9,1.28,7975,0,79,37,25,1016,607.0,636,466,60,127.0,80,1,269,158,51,0,0,577,-768,2048,607,-5.59,44.681137,10.017792,64.39,180.7,0,0.0,-1,0.0,0.0,0,0.78,2.984
179063,1564236397374,15,2.34,1.05,0.38,1.46,1.11,1.33,-0.13,-0.02,4,-1,9,1.33,7841,0,79,37,25,1027,600.0,631,468,60,126.0,77,1,268,158,47,0,0,578,30227,-13043,600,-5.59,,,,,,,,,,,,
179083,1564236397400,15,2.34,1.05,0.38,1.46,1.1,1.33,-0.15,0.02,4,-0,9,1.34,7763,0,79,37,25,1037,596.0,631,466,60,127.0,77,1,267,158,47,0,0,570,17344,-3210,595,-5.59,,,,,,,,,,,,
179103,1564236397420,15,2.35,1.04,0.38,1.46,1.11,1.28,-0.14,-0.02,3,-0,8,1.29,7747,0,79,37,25,1049,594.0,628,467,60,128.0,77,1,267,158,47,0,0,560,6273,-8188,594,-5.59,,,,,,,,,,,,
179123,1564236397440,16,2.37,1.05,0.38,1.47,1.11,1.22,-0.11,-0.1,4,1,7,1.22,7678,0,79,37,25,1052,590.0,630,465,60,128.0,77,1,266,158,47,0,0,559,-1894,1760,589,-5.59,,,,,,,,,,,,
179143,1564236397460,18,2.37,1.05,0.38,1.46,1.1,1.18,-0.11,-0.13,4,2,7,1.19,7646,0,79,37,25,1054,583.0,630,466,60,127.0,77,1,266,158,47,0,0,560,243,1780,583,-5.59,44.681137,10.017815,61.99,180.8,0,0.0,-1,0.0,0.0,0,0.78,2.9857
179163,1564236397480,16,2.39,1.05,0.37,1.47,1.11,1.17,-0.15,-0.1,4,1,8,1.18,7572,0,79,38,25,1055,581.0,627,465,60,127.0,77,1,265,157,45,0,0,551,30208,-3190,581,-5.59,,,,,,,,,,,,
179183,1564236397502,15,2.38,1.05,0.38,1.46,1.11,1.18,-0.12,-0.1,5,1,8,1.19,7539,0,79,38,25,1056,579.0,627,466,60,127.0,77,1,265,157,45,0,0,544,1760,-2934,579,-5.59,,,,,,,,,,,,
179203,1564236397522,13,2.38,1.05,0.39,1.46,1.11,1.22,-0.1,-0.05,5,1,7,1.22,7476,0,79,38,25,1056,574.0,627,463,60,127.0,77,1,264,157,45,0,0,542,1780,12552,575,-5.59,,,,,,,,,,,,
179223,1564236397542,15,2.38,1.05,0.39,1.47,1.11,1.19,-0.09,0.0,6,2,6,1.19,7488,0,79,38,25,1055,571.0,628,465,60,127.0,77,1,264,157,45,0,0,547,-18032,-18032,571,-5.59,,,,,,,,,,,,
179243,1564236397562,14,2.38,1.06,0.39,1.46,1.12,1.16,-0.16,-0.04,7,3,8,1.17,7461,0,79,38,25,1061,568.0,624,466,60,128.0,77,1,264,157,45,0,0,543,2524,2216,568,-5.59,44.681141,10.017836,59.61,180.8,0,0.0,-1,0.0,0.0,0,0.79,2.9874
179263,1564236397582,13,2.37,1.06,0.39,1.47,1.11,1.17,-0.14,-0.04,7,1,9,1.18,7446,0,79,38,25,1065,562.0,625,463,60,127.0,77,1,264,157,44,0,0,529,-28648,-22263,562,-5.59,,,,,,,,,,,,
179283,1564236397606,12,2.37,1.05,0.39,1.48,1.11,1.15,-0.09,-0.05,7,2,8,1.15,7355,0,79,38,25,1069,559.0,625,465,60,128.0,77,1,263,157,44,0,0,530,2104,2524,559,-5.59,,,,,,,,,,,,
179303,1564236397626,8,2.37,1.06,0.38,1.48,1.11,1.13,-0.06,-0.09,8,1,9,1.13,7312,0,79,38,25,1075,556.0,621,465,60,126.0,77,1,263,157,44,0,0,526,2104,-9072,556,-5.59,,,,,,,,,,,,
179323,1564236397646,6,2.36,1.05,0.39,1.47,1.1,1.11,-0.03,-0.12,7,3,10,1.11,7247,0,79,38,25,1076,555.0,623,467,60,126.0,77,1,262,157,44,0,0,524,2524,2104,554,-5.59,,,,,,,,,,,,
179343,1564236397666,7,2.34,1.05,0.38,1.47,1.11,1.08,-0.01,-0.1,7,4,10,1.08,7239,0,79,38,25,1075,549.0,619,467,60,126.0,77,1,262,157,44,0,0,534,-8186,-2934,549,-5.59,44.681145,10.017856,57.34,180.8,0,0.0,-1,0.0,0.0,0,0.79,2.989
179363,1564236397686,6,2.34,1.05,0.39,1.46,1.12,1.09,-0.05,0.01,7,1,9,1.1,7183,0,79,38,25,1068,545.0,622,465,60,126.0,78,1,261,157,43,0,0,531,-8186,1779,545,-5.59,,,,,,,,,,,,
179383,1564236397708,6,2.33,1.05,0.38,1.47,1.1,1.1,-0.05,0.08,6,2,8,1.1,7004,0,79,38,25,1061,545.0,620,462,60,127.0,78,1,260,157,43,0,0,539,-8186,-506,545,-5.59,,,,,,,,,,,,
179403,1564236397728,4,2.33,1.05,0.38,1.47,1.11,1.15,0.02,-0.01,6,4,8,1.15,6900,0,79,38,26,1046,542.0,618,466,60,126.0,78,1,265,81,43,0,0,525,-8186,-8186,542,-5.59,,,,,,,,,,,,
179423,1564236397748,9,2.33,1.06,0.38,1.47,1.11,1.2,0.02,0.03,5,1,9,1.2,6813,0,79,38,26,1021,535.0,615,464,60,127.0,78,1,266,158,43,0,0,465,2524,505,532,-5.59,,,,,,,,,,,,
179443,1564236397768,6,2.34,1.05,0.38,1.46,1.11,1.23,0.0,0.03,4,-2,7,1.23,7083,0,79,38,26,1007,530.0,619,463,60,128.0,78,1,264,159,43,0,0,495,-28648,1248,530,-5.59,44.681145,10.017876,55.12,180.8,0,0.0,-1,0.0,0.0,0,0.79,2.9907
179463,1564236397794,6,2.33,1.05,0.38,1.47,1.1,1.13,-0.01,0.05,5,-1,4,1.13,7080,0,79,38,27,997,523.0,619,468,60,126.0,79,1,268,82,42,0,0,478,2524,-8985,522,-5.59,,,,,,,,,,,,
179483,1564236397814,6,2.35,1.05,0.38,1.46,1.11,1.16,0.01,-0.03,5,-3,5,1.16,7264,0,79,38,27,979,522.0,621,467,60,127.0,79,1,270,159,42,0,0,465,1341,3580,519,-5.59,,,,,,,,,,,,
179503,1564236397834,6,2.35,1.05,0.37,1.46,1.1,1.23,-0.03,0.02,4,-3,4,1.23,7307,0,79,38,27,953,517.0,622,468,60,128.0,79,1,270,159,42,0,0,459,16383,32033,512,-5.59,,,,,,,,,,,,
179523,1564236397854,9,2.35,1.05,0.37,1.46,1.11,1.28,-0.01,0.13,4,-3,2,1.28,7413,0,79,38,27,944,511.0,628,464,60,128.0,79,1,271,159,42,0,0,458,-4054,6193,506,-5.59,,,,,,,,,,,,
179543,1564236397874,9,2.34,1.06,0.38,1.47,1.1,1.3,-0.11,0.18,3,-3,3,1.31,7542,0,79,38,26,936,505.0,627,464,60,128.0,79,1,268,158,42,0,0,464,-32248,243,505,-5.59,44.681145,10.017895,53.49,180.8,0,0.0,-1,0.0,0.0,0,0.79,2.9924
179563,1564236397895,8,2.34,1.05,0.38,1.47,1.1,1.38,-0.07,0.2,2,-4,5,1.38,7588,0,79,38,26,925,501.0,626,467,60,128.0,88,1,268,158,45,0,0,430,11560,-3322,501,-5.59,,,,,,,,,,,,
179583,1564236397915,9,2.34,1.05,0.38,1.47,1.11,1.44,0.01,0.25,2,-5,4,1.44,7706,0,79,38,25,916,496.0,630,466,60,128.0,88,1,267,80,45,0,0,445,771,20625,496,-5.59,,,,,,,,,,,,
179603,1564236397935,11,2.33,1.05,0.38,1.47,1.11,1.44,0.04,0.29,2,-3,3,1.44,7786,0,79,38,25,910,491.0,632,469,60,127.0,88,1,267,157,45,0,0,429,248,10392,491,-5.59,,,,,,,,,,,,
179623,1564236397955,11,2.33,1.05,0.38,1.46,1.11,1.39,0.0,0.23,2,-3,3,1.39,7802,0,79,38,25,907,489.0,631,467,60,128.0,88,1,268,157,45,0,0,418,-1562,1779,486,-5.59,,,,,,,,,,,,
179643,1564236397975,12,2.32,1.05,0.38,1.47,1.11,1.27,-0.01,0.15,2,-3,3,1.27,7812,0,79,38,25,904,482.0,635,467,60,128.0,88,1,268,157,45,0,0,410,-899,-3267,482,-5.59,44.681145,10.017914,51.77,180.8,0,0.0,-1,0.0,0.0,0,0.79,2.994
179663,1564236397995,7,2.33,1.05,0.38,1.46,1.11,1.28,0.0,0.14,2,-3,2,1.28,7878,0,79,38,24,899,476.0,635,467,60,128.0,95,1,268,154,46,0,0,425,-9203,-3322,476,-5.59,,,,,,,,,,,,
179683,1564236398015,9,2.32,1.05,0.38,1.46,1.1,1.29,-0.01,0.11,2,-2,1,1.29,7908,0,79,38,24,896,473.0,633,468,60,128.0,95,1,269,154,46,0,0,441,3576,-21944,470,-5.59,,,,,,,,,,,,
179703,1564236398009,9,2.34,1.05,0.38,1.46,1.1,1.19,-0.01,0.07,2,-1,2,1.19,7961,0,79,38,24,894,469.0,636,466,60,127.0,95,1,269,154,46,0,0,422,-3210,-3314,469,-5.59,,,,,,,,,,,,
179723,1564236398029,9,2.34,1.05,0.38,1.46,1.11,1.16,0.04,0.08,2,-1,2,1.16,8029,0,79,38,23,893,461.0,638,468,60,128.0,95,1,270,155,46,0,0,429,2211,13552,461,-5.59,,,,,,,,,,,,
179743,1564236398049,9,2.35,1.05,0.38,1.46,1.1,1.22,0.05,0.1,2,-1,1,1.22,8009,0,79,38,24,893,459.0,638,468,60,127.0,95,1,270,152,46,0,0,424,17628,-3414,459,-5.59,44.681145,10.017931,49.27,180.8,0,0.0,-1,0.0,0.0,0,0.79,2.9957
179763,1564236398097,12,2.35,1.05,0.38,1.47,1.11,1.17,-0.0,0.07,2,-1,1,1.17,7971,0,79,38,23,895,454.0,637,468,60,127.0,100,1,269,154,46,0,0,421,-6387,26704,454,-5.59,,,,,,,,,,,,
179783,1564236398117,11,2.35,1.05,0.38,1.47,1.11,1.21,-0.05,0.1,2,-0,1,1.21,7978,0,79,38,23,897,450.0,638,467,60,129.0,100,1,269,152,46,0,0,433,-3267,3635,449,-5.59,,,,,,,,,,,,
179803,1564236398137,13,2.35,1.05,0.38,1.47,1.1,1.25,-0.08,0.13,2,-2,1,1.26,7951,0,79,38,23,900,444.0,633,464,60,129.0,100,1,269,152,46,0,0,431,-18341,-3414,444,-5.59,,,,,,,,,,,,
179823,1564236398157,15,2.34,1.05,0.38,1.47,1.11,1.19,-0.07,0.09,2,-1,1,1.2,7948,0,79,38,23,906,440.0,634,467,60,127.0,100,1,269,152,46,0,0,421,19477,-21792,440,-5.59,,,,,,,,,,,,
179843,1564236398177,15,2.34,1.05,0.38,1.47,1.1,1.15,-0.09,0.1,2,0,-0,1.16,7918,0,79,38,23,911,435.0,636,467,60,128.0,100,1,269,152,46,0,0,417,-3314,-8165,432,-5.59,44.681145,10.017948,46.89,180.8,0,0.0,-1,0.0,0.0,0,0.79,2.9974
179863,1564236398197,13,2.34,1.05,0.37,1.46,1.1,1.19,-0.11,0.13,2,-0,1,1.19,7825,0,79,38,23,914,429.0,632,465,60,128.0,104,1,268,152,45,0,0,421,3635,7154,429,-5.59,,,,,,,,,,,,
179883,1564236398195,12,2.34,1.05,0.38,1.47,1.11,1.26,-0.1,0.13,2,-1,1,1.26,7770,0,79,38,23,915,426.0,633,465,60,128.0,104,1,267,152,45,0,0,414,13552,7154,426,-5.59,,,,,,,,,,,,
179903,1564236398215,13,2.33,1.05,0.38,1.46,1.1,1.25,-0.04,0.13,2,-1,-0,1.25,7684,0,79,38,23,912,422.0,631,467,60,126.0,104,1,266,152,45,0,0,410,-21792,-9166,422,-5.59,,,,,,,,,,,,
179923,1564236398235,14,2.33,1.05,0.38,1.46,1.1,1.23,-0.04,0.11,2,-1,-1,1.23,7606,0,79,38,24,908,418.0,631,466,60,127.0,104,1,266,154,45,0,0,410,18584,-4059,416,-5.59,,,,,,,,,,,,
179943,1564236398255,13,2.34,1.05,0.38,1.46,1.11,1.14,-0.03,0.04,3,-0,1,1.14,7566,0,79,38,23,902,412.0,629,463,60,128.0,104,1,265,154,45,0,0,404,13040,1504,412,-5.59,44.681148,10.017964,44.61,180.8,0,0.0,-1,0.0,0.0,0,0.8,2.9991
179963,1564236398275,13,2.33,1.05,0.38,1.46,1.11,1.05,-0.01,0.01,3,1,2,1.05,7488,0,79,38,24,895,409.0,632,465,60,127.0,106,1,264,154,44,0,0,396,-9211,1,409,-5.59,,,,,,,,,,,,
179983,1564236398297,13,2.33,1.05,0.38,1.46,1.1,1.0,-0.01,-0.01,3,1,0,1.0,7419,0,79,38,24,891,401.0,630,468,60,127.0,106,1,264,154,44,0,0,394,11545,17144,401,-5.59,,,,,,,,,,,,
180003,1564236398317,16,2.34,1.04,0.38,1.47,1.11,1.0,-0.02,-0.03,3,2,0,1.0,7307,0,79,38,24,888,398.0,626,465,60,128.0,106,1,263,154,44,0,0,395,6384,1,398,-5.59,,,,,,,,,,,,
180023,1564236398337,14,2.34,1.04,0.38,1.46,1.11,1.02,-0.05,0.04,3,1,1,1.02,7253,0,79,38,25,891,394.0,624,469,60,127.0,106,1,262,154,44,0,0,385,-1818,-31744,393,-5.59,,,,,,,,,,,,
180043,1564236398357,16,2.33,1.05,0.38,1.46,1.11,1.09,-0.04,0.1,2,-0,1,1.09,7181,0,79,38,25,895,390.0,623,463,60,128.0,106,1,261,157,44,0,0,381,-1562,-6475,388,-5.59,44.681148,10.01798,42.32,180.8,0,0.0,-1,0.0,0.0,0,0.8,3.0007
180063,1564236398377,18,2.33,1.05,0.38,1.47,1.11,1.12,-0.01,0.09,2,-0,1,1.12,7056,0,79,38,25,902,387.0,623,461,60,128.0,108,1,260,80,42,0,0,382,-6475,-992,387,-5.59,,,,,,,,,,,,
180083,1564236398401,17,2.33,1.06,0.38,1.47,1.1,1.06,0.01,0.01,2,1,2,1.06,6996,0,79,38,25,911,383.0,617,463,60,127.0,108,1,261,157,42,0,0,376,-992,3,383,-5.59,,,,,,,,,,,,
180103,1564236398421,15,2.33,1.05,0.37,1.47,1.1,1.04,0.01,0.05,2,1,3,1.04,6941,0,79,38,26,919,377.0,618,462,60,129.0,108,1,265,158,42,0,0,370,-6656,-6656,377,-5.59,,,,,,,,,,,,
180123,1564236398441,18,2.32,1.04,0.38,1.47,1.1,1.04,0.07,0.0,2,-0,3,1.04,6830,0,79,38,26,926,373.0,615,463,60,127.0,108,1,266,158,42,0,0,366,486,3082,373,-5.59,,,,,,,,,,,,
180143,1564236398461,17,2.32,1.04,0.37,1.47,1.1,1.0,0.11,-0.0,2,0,3,1.01,6754,0,79,38,27,928,371.0,614,465,60,128.0,108,1,270,82,42,0,0,361,-6405,-6458,371,-5.59,44.681148,10.017994,40.28,180.8,0,0.0,-1,0.0,0.0,0,0.8,3.0024
180163,1564236398481,17,2.32,1.05,0.38,1.46,1.11,1.09,0.11,-0.01,2,-0,3,1.1,6670,0,79,38,27,929,365.0,613,465,60,127.0,107,1,271,159,40,0,0,360,2790,-29978,365,-5.59,,,,,,,,,,,,
180183,1564236398501,18,2.33,1.05,0.38,1.47,1.1,1.09,0.08,0.0,2,-1,3,1.1,6578,0,79,38,27,925,363.0,613,465,60,128.0,107,1,272,159,40,0,0,352,-29302,28553,363,-5.59,,,,,,,,,,,,
180203,1564236398521,16,2.33,1.05,0.38,1.47,1.11,1.08,0.14,-0.04,3,1,2,1.09,6485,0,79,38,28,917,356.0,609,462,60,127.0,107,1,276,161,40,0,0,350,-6644,2811,356,-5.59,,,,,,,,,,,,
180223,1564236398541,15,2.32,1.05,0.38,1.46,1.11,1.17,0.08,-0.06,2,0,3,1.17,6438,0,79,38,28,910,352.0,608,463,60,128.0,107,1,276,84,40,0,0,345,2811,-30454,352,-5.59,,,,,,,,,,,,
180243,1564236398561,16,2.32,1.05,0.38,1.47,1.1,1.15,0.04,-0.03,2,-0,4,1.15,6360,0,79,38,29,902,351.0,607,463,60,128.0,107,1,280,162,40,0,0,341,8841,-10554,348,-5.59,44.681148,10.018007,38.34,180.8,0,0.0,-1,0.0,0.0,0,0.8,3.0041
180263,1564236398581,17,2.32,1.04,0.38,1.46,1.11,1.18,0.08,0.09,2,-1,2,1.18,6296,0,79,38,30,896,345.0,605,464,60,128.0,112,1,283,164,39,0,0,339,-14714,-31222,345,-5.59,,,,,,,,,,,,
180283,1564236398607,12,2.32,1.06,0.38,1.46,1.11,1.16,0.11,0.06,1,-1,1,1.16,6262,0,79,38,30,892,339.0,602,465,60,128.0,112,1,283,164,39,0,0,331,-122,175,339,-5.59,,,,,,,,,,,,
180303,1564236398627,8,2.31,1.05,0.38,1.47,1.11,1.22,0.08,0.07,0,-0,1,1.22,6204,0,79,38,31,890,337.0,597,463,60,127.0,112,1,286,165,39,0,0,328,13,175,335,-5.59,,,,,,,,,,,,
180323,1564236398647,1,2.31,1.05,0.38,1.46,1.11,1.27,0.01,0.1,-1,-1,1,1.27,6137,0,79,38,31,891,336.0,593,461,60,128.0,112,1,287,165,39,0,0,327,13,175,336,-5.59,,,,,,,,,,,,
180343,1564236398667,-0,2.31,1.05,0.38,1.47,1.1,1.29,-0.04,0.11,-1,-1,1,1.29,6062,0,79,38,32,893,335.0,594,460,60,127.0,112,1,290,167,39,0,0,332,-6528,-20736,334,-5.59,44.681152,10.01802,35.62,180.8,0,0.0,-1,0.0,0.0,0,0.8,3.0057
180363,1564236398687,-1,2.32,1.05,0.38,1.46,1.11,1.27,-0.08,0.11,-1,-2,1,1.27,6023,0,79,38,32,897,333.0,588,461,60,129.0,113,1,290,167,38,0,0,328,-6528,-22016,333,-5.59,,,,,,,,,,,,
180383,1564236398707,0,2.32,1.05,0.38,1.46,1.11,1.28,-0.12,0.14,-1,-2,0,1.29,6013,0,79,38,33,903,331.0,585,460,60,128.0,113,1,292,172,38,0,0,328,-12032,165,331,-5.59,,,,,,,,,,,,
180403,1564236398727,1,2.33,1.05,0.38,1.47,1.1,1.29,-0.18,0.16,-1,-5,0,1.31,6044,0,79,38,33,909,329.0,584,458,60,129.0,113,1,292,172,38,0,0,325,-20736,160,329,-5.59,,,,,,,,,,,,
180423,1564236398747,1,2.36,1.05,0.38,1.47,1.1,1.21,-0.24,0.17,-1,-6,-1,1.24,6113,0,79,38,33,912,326.0,586,462,60,128.0,113,1,292,177,38,0,0,322,-24576,-27136,326,-5.59,,,,,,,,,,,,
180443,1564236398767,1,2.39,1.05,0.38,1.47,1.11,1.08,-0.27,0.18,0,-4,-0,1.11,6115,0,79,38,33,913,324.0,592,460,60,128.0,113,1,292,172,38,0,0,319,155,150,324,-5.59,44.681152,10.018032,33.68,180.8,0,0.0,-1,0.0,0.0,0,0.8,3.0074
180463,1564236398793,-0,2.44,1.05,0.38,1.47,1.1,0.96,-0.31,0.22,2,-3,0,1.01,6087,0,79,38,33,915,325.0,590,461,60,129.0,120,1,292,172,39,0,0,317,-28416,-25856,325,-5.59,,,,,,,,,,,,
180483,1564236398813,1,2.47,1.05,0.38,1.47,1.11,0.81,-0.33,0.29,3,-1,1,0.88,6052,0,79,39,34,915,324.0,587,462,60,128.0,120,1,295,177,39,0,0,316,-29696,160,324,-5.59,,,,,,,,,,,,
180503,1564236398833,2,2.5,1.06,0.38,1.47,1.11,0.7,-0.34,0.37,5,2,2,0.77,5982,0,79,38,34,915,326.0,583,462,60,128.0,120,1,294,177,39,0,0,313,130,-23296,326,-5.59,,,,,,,,,,,,
180523,1564236398853,0,2.53,1.05,0.39,1.47,1.11,0.61,-0.38,0.45,7,4,3,0.72,5888,0,79,38,35,915,328.0,581,462,60,128.0,120,1,292,105,39,0,0,311,125,-22016,328,-5.59,,,,,,,,,,,,
180543,1564236398873,-0,2.56,1.06,0.38,1.47,1.11,0.56,-0.44,0.5,9,3,4,0.71,5813,0,79,39,35,914,329.0,572,462,60,127.0,120,1,287,187,39,0,0,305,120,160,329,-5.59,44.681152,10.018044,32.41,180.8,0,0.0,-1,0.0,0.0,0,0.8,3.009
180563,1564236398894,0,2.59,1.06,0.38,1.48,1.11,0.67,-0.47,0.45,10,0,7,0.82,5790,0,79,39,36,913,331.0,566,462,60,128.0,121,1,289,186,40,0,0,298,115,-20736,331,-5.59,,,,,,,,,,,,
180583,1564236398914,-2,2.64,1.06,0.39,1.47,1.11,0.8,-0.51,0.41,12,-4,9,0.95,5772,0,79,39,37,911,329.0,563,462,60,127.0,121,1,290,192,40,0,0,298,105,160,329,-5.59,,,,,,,,,,,,
180603,1564236398934,1,2.66,1.06,0.39,1.47,1.11,0.92,-0.58,0.46,14,-6,10,1.09,5753,0,79,39,37,909,330.0,562,463,60,127.0,121,1,290,192,40,0,0,292,95,-24576,329,-5.59,,,,,,,,,,,,
180623,1564236398954,3,2.69,1.06,0.39,1.47,1.11,0.87,-0.53,0.55,16,-4,13,1.02,5760,0,79,39,38,906,329.0,563,461,60,127.0,121,1,292,192,40,0,0,280,85,160,329,-5.59,,,,,,,,,,,,
180643,1564236398974,2,2.71,1.06,0.39,1.47,1.12,0.7,-0.56,0.59,19,-1,16,0.9,5704,0,79,39,38,902,330.0,558,463,60,128.0,121,1,289,198,40,0,0,271,0,165,331,-5.59,44.681152,10.018055,31.64,180.8,0,0.0,-1,0.0,0.0,0,0.8,3.0107
180663,1564236398994,-0,2.73,1.05,0.38,1.47,1.11,0.69,-0.67,0.57,21,0,19,0.96,5625,0,79,39,38,899,332.0,553,463,60,128.0,126,1,284,198,42,0,0,270,0,170,332,-5.59,,,,,,,,,,,,
180683,1564236399014,-0,2.75,1.06,0.38,1.47,1.11,0.82,-0.76,0.5,21,0,23,1.12,5548,0,79,39,39,896,332.0,553,465,60,126.0,126,1,282,203,42,0,0,268,41,165,332,-5.59,,,,,,,,,,,,
180703,1564236399034,0,2.79,1.05,0.39,1.47,1.11,0.81,-0.76,0.53,24,2,25,1.11,5472,0,79,39,40,894,334.0,541,463,60,128.0,126,1,282,204,42,0,0,268,-1529,-20736,334,-5.59,,,,,,,,,,,,
180723,1564236399054,-1,2.82,1.05,0.39,1.46,1.12,0.78,-0.84,0.49,26,2,28,1.15,5383,0,79,39,41,891,329.0,533,462,60,128.0,126,1,280,205,42,0,0,270,250,-23296,329,-5.59,,,,,,,,,,,,
180743,1564236399074,2,2.85,1.05,0.39,1.46,1.11,0.89,-0.84,0.48,27,1,30,1.23,5334,0,79,39,42,890,328.0,523,467,60,127.0,126,1,281,207,42,0,0,261,630,-27136,328,-5.59,44.681152,10.018065,31.2,180.8,0,0.0,-1,0.0,0.0,0,0.8,3.0124
180763,1564236399094,-1,2.9,1.05,0.38,1.46,1.12,0.78,-0.91,0.44,30,-0,32,1.2,5334,0,79,39,42,890,324.0,515,464,60,128.0,125,1,281,207,41,0,0,240,250,150,324,-5.59,,,,,,,,,,,,
180783,1564236399114,-0,2.93,1.05,0.38,1.46,1.12,0.87,-0.92,0.41,31,-2,33,1.26,5337,0,79,39,43,891,323.0,512,463,60,126.0,125,1,285,209,41,0,0,223,2414,-27136,323,-5.59,,,,,,,,,,,,
180803,1564236399134,-0,2.94,1.05,0.38,1.47,1.11,0.85,-0.94,0.36,35,-3,35,1.27,5240,0,79,39,44,894,325.0,507,460,60,130.0,125,1,280,209,41,0,0,222,28160,-24576,325,-5.59,,,,,,,,,,,,
180823,1564236399154,4,2.96,1.06,0.39,1.47,1.12,0.96,-0.99,0.33,36,-5,38,1.38,5086,0,79,39,45,898,326.0,502,468,60,127.0,125,1,271,211,41,0,0,220,-1,150,326,-5.59,,,,,,,,,,,,
180843,1564236399174,-1,2.96,1.06,0.38,1.47,1.12,0.89,-1.04,0.36,39,-7,40,1.37,4965,0,79,39,45,902,328.0,496,462,60,128.0,125,1,261,210,41,0,0,220,-1,150,328,-5.59,44.681152,10.018077,30.83,180.8,0,0.0,-1,0.0,0.0,0,0.8,3.0141
180863,1564236399194,-2,2.93,1.05,0.39,1.47,1.11,0.93,-1.07,0.31,41,-8,42,1.42,4896,0,79,39,46,906,327.0,480,463,60,129.0,118,1,256,210,39,0,0,219,-1,-29696,330,-5.59,,,,,,,,,,,,
180883,1564236399192,2,2.9,1.05,0.39,1.48,1.12,1.01,-1.08,0.3,44,-10,45,1.48,4801,0,79,39,47,913,329.0,453,465,60,128.0,118,1,249,211,39,0,0,218,-1,-25856,329,-5.59,,,,,,,,,,,,
180903,1564236399212,3,2.87,1.06,0.39,1.48,1.12,1.0,-1.08,0.29,45,-10,46,1.47,4752,0,79,39,48,918,329.0,371,465,60,128.0,118,1,246,213,39,0,0,208,-1,-28416,329,-5.59,,,,,,,,,,,,
180923,1564236399232,4,2.83,1.06,0.39,1.48,1.12,0.92,-1.09,0.33,46,-9,48,1.43,4784,5,79,39,48,922,328.0,314,465,60,127.0,118,1,250,213,39,0,0,195,-1,135,328,-5.59,,,,,,,,,,,,
180943,1564236399252,-1,2.81,1.06,0.39,1.47,1.11,0.84,-1.12,0.36,46,-6,49,1.4,4696,8,79,39,49,925,326.0,283,465,60,127.0,118,1,244,214,39,0,0,176,-1,-29696,326,-5.59,44.681148,10.018087,30.48,180.8,0,0.0,-1,0.0,0.0,0,0.81,3.0157
180963,1564236399272,-1,2.8,1.06,0.39,1.46,1.12,0.85,-1.14,0.33,47,-5,51,1.42,4626,12,79,39,50,921,326.0,256,466,60,128.0,116,1,239,217,38,0,0,173,-1,-27136,326,-5.59,,,,,,,,,,,,
180983,1564236399296,-2,2.8,1.05,0.39,1.47,1.12,0.85,-1.17,0.3,47,-5,54,1.45,4556,14,79,39,51,915,324.0,235,460,60,129.0,116,1,233,219,38,0,0,171,-1,135,324,-5.59,,,,,,,,,,,,
181003,1564236399316,-1,2.78,1.05,0.39,1.46,1.12,0.87,-1.17,0.26,47,-5,55,1.46,4553,15,79,39,53,908,323.0,232,456,60,130.0,116,1,239,223,38,0,0,168,-1,-29696,323,-5.59,,,,,,,,,,,,
181023,1564236399336,-1,2.76,1.06,0.39,1.47,1.12,0.87,-1.15,0.25,47,-5,57,1.44,4474,15,79,39,54,902,321.0,225,461,60,128.0,116,1,232,229,38,0,0,169,-1,-30976,321,-5.59,,,,,,,,,,,,
181043,1564236399356,-1,2.74,1.05,0.39,1.47,1.13,0.86,-1.16,0.19,47,-5,59,1.45,4500,15,79,39,56,894,320.0,227,464,60,129.0,116,1,232,234,38,0,0,168,-1,32000,320,-5.59,44.681148,10.018098,29.72,180.9,0,0.0,-1,0.0,0.0,0,0.81,3.0174
181063,1564236399376,-0,2.71,1.06,0.39,1.47,1.11,0.86,-1.18,0.16,47,-5,60,1.46,4512,15,79,39,57,887,317.0,225,463,60,129.0,128,1,232,239,41,0,0,168,-41,30720,317,-5.59,,,,,,,,,,,,
181083,1564236399401,-2,2.7,1.06,0.39,1.47,1.12,0.86,-1.17,0.13,46,-4,60,1.45,4479,15,79,39,57,888,314.0,218,459,60,128.0,128,1,228,242,41,0,0,164,-1,30720,314,-5.59,,,,,,,,,,,,
181103,1564236399421,-1,2.7,1.05,0.39,1.47,1.11,0.85,-1.14,0.14,45,-4,61,1.43,4520,15,79,39,58,888,310.0,213,460,60,128.0,128,1,231,247,41,0,0,164,-1,29440,310,-5.59,,,,,,,,,,,,
181123,1564236399441,-0,2.7,1.05,0.38,1.47,1.12,0.88,-1.15,0.13,44,-4,61,1.45,4524,15,79,39,59,887,309.0,207,464,60,129.0,128,1,229,247,41,0,0,162,-1,105,306,-5.59,,,,,,,,,,,,
181143,1564236399461,-0,2.7,1.05,0.38,1.47,1.12,0.9,-1.13,0.13,43,-5,59,1.45,4510,15,80,39,59,885,304.0,202,458,60,129.0,128,1,228,251,41,0,0,208,-1,100,304,-5.59,44.681145,10.018106,28.77,180.9,0,0.0,-1,0.0,0.0,0,0.81,3.019
181163,1564236399481,-1,2.7,1.06,0.39,1.47,1.12,0.93,-1.08,0.16,42,-6,58,1.43,4576,14,80,39,60,883,301.0,195,462,60,129.0,144,1,233,256,44,0,0,260,-1,95,301,-5.59,,,,,,,,,,,,
181183,1564236399500,-2,2.7,1.06,0.38,1.47,1.12,1.0,-1.01,0.19,41,-7,58,1.43,4657,16,79,39,61,880,300.0,188,458,60,129.0,144,1,238,257,44,0,0,251,-1,21760,297,-5.59,,,,,,,,,,,,
181203,1564236399520,2,2.7,1.05,0.39,1.46,1.12,1.03,-0.97,0.19,39,-9,56,1.41,4880,26,79,39,63,878,294.0,187,467,60,128.0,144,1,267,275,44,0,0,245,-41,-16896,294,-5.59,,,,,,,,,,,,
181223,1564236399540,0,2.7,1.05,0.38,1.47,1.12,0.9,-0.9,0.23,38,-9,54,1.27,5149,36,79,39,67,879,292.0,185,462,60,127.0,144,1,287,304,44,0,0,240,14337,250,292,-5.59,,,,,,,,,,,,
181243,1564236399560,0,2.71,1.06,0.38,1.47,1.12,0.98,-0.83,0.29,37,-7,53,1.28,5247,46,79,39,73,878,292.0,185,465,60,130.0,144,1,294,347,44,0,0,240,14337,250,292,-5.59,44.681141,10.018114,28.13,180.9,0,0.0,-1,0.0,0.0,0,0.81,3.0207
181263,1564236399580,-1,2.7,1.05,0.38,1.47,1.11,0.88,-0.84,0.3,37,-6,53,1.21,5329,51,79,39,79,881,295.0,185,462,60,127.0,249,1,299,409,73,0,0,244,506,0,295,-5.59,,,,,,,,,,,,
181283,1564236399604,3,2.7,1.05,0.38,1.47,1.12,0.96,-0.76,0.3,36,-5,52,1.22,5322,53,79,39,83,886,296.0,188,469,60,128.0,249,1,297,454,73,0,0,250,14337,80,296,-5.59,,,,,,,,,,,,
181303,1564236399624,-2,2.7,1.06,0.38,1.46,1.11,0.83,-0.77,0.3,38,-1,51,1.13,5411,53,79,39,85,892,295.0,193,464,60,129.0,249,1,305,463,73,0,0,253,506,0,295,-5.59,,,,,,,,,,,,
181323,1564236399644,-0,2.7,1.05,0.39,1.47,1.12,0.91,-0.75,0.32,36,-2,49,1.18,5436,52,79,39,85,900,295.0,200,466,60,126.0,249,1,306,395,73,0,0,252,-1,0,295,-5.59,,,,,,,,,,,,
181343,1564236399664,3,2.71,1.05,0.37,1.46,1.12,0.91,-0.74,0.37,37,-1,48,1.17,5495,53,79,39,85,906,293.0,206,463,60,130.0,249,1,309,464,73,0,0,250,-1,10686,293,-5.59,44.681137,10.018122,28.05,180.9,0,0.0,-1,0.0,0.0,0,0.81,3.0224
181363,1564236399684,1,2.71,1.06,0.38,1.47,1.12,0.86,-0.8,0.35,37,-1,48,1.17,5570,53,79,39,85,930,292.0,209,464,60,129.0,331,1,314,465,97,0,0,249,10818,0,292,-5.59,,,,,,,,,,,,
181383,1564236399706,-1,2.72,1.05,0.39,1.47,1.12,0.91,-0.77,0.34,36,-3,48,1.2,5639,52,79,39,85,951,291.0,220,467,60,126.0,331,1,317,466,97,0,0,248,16896,0,291,-5.59,,,,,,,,,,,,
181403,1564236399726,4,2.73,1.05,0.39,1.47,1.12,0.95,-0.74,0.37,35,-2,47,1.2,5709,53,79,39,85,976,291.0,235,466,60,128.0,331,1,321,400,97,0,0,256,10818,41,291,-5.59,,,,,,,,,,,,
181423,1564236399746,2,2.75,1.06,0.39,1.47,1.12,0.88,-0.71,0.43,36,-0,46,1.13,5647,52,79,39,84,997,294.0,251,466,60,129.0,331,1,319,463,97,0,0,297,-214,80,294,-5.59,,,,,,,,,,,,
181443,1564236399766,1,2.75,1.06,0.38,1.47,1.11,0.86,-0.79,0.48,37,-0,46,1.16,5700,53,79,39,84,1050,296.0,272,464,60,129.0,331,1,321,465,97,0,0,332,-1,85,296,-5.59,44.681129,10.018128,26.36,180.9,0,0.0,-1,0.0,0.0,0,0.81,3.024
181463,1564236399786,0,2.77,1.05,0.39,1.46,1.12,0.83,-0.85,0.51,36,-1,48,1.18,5842,52,79,39,84,1121,297.0,295,461,60,129.0,337,1,330,467,100,0,0,309,-1,21760,297,-5.59,,,,,,,,,,,,
181483,1564236399810,-2,2.79,1.06,0.38,1.46,1.12,0.83,-0.88,0.49,36,-2,48,1.21,5952,51,79,39,84,1167,299.0,318,464,60,129.0,337,1,336,401,100,0,0,281,-1281,26880,302,-5.59,,,,,,,,,,,,
181503,1564236399830,-2,2.79,1.06,0.39,1.46,1.12,0.88,-0.89,0.46,36,-4,49,1.25,5998,52,79,39,84,1216,305.0,343,461,60,126.0,337,1,339,468,100,0,0,327,-41,120,305,-5.59,,,,,,,,,,,,
181523,1564236399850,-1,2.81,1.05,0.39,1.47,1.12,0.91,-0.89,0.48,36,-5,51,1.28,5992,53,79,39,84,1261,310.0,370,461,60,129.0,337,1,339,468,100,0,0,348,-1,120,310,-5.59,,,,,,,,,,,,
181543,1564236399870,-1,2.83,1.05,0.38,1.47,1.12,0.92,-0.89,0.45,36,-7,52,1.28,6040,51,79,39,84,1300,314.0,396,462,60,127.0,337,1,341,403,100,0,0,310,-1,135,314,-5.59,44.681126,10.018134,26.89,180.9,0,0.0,-1,0.0,0.0,0,0.81,3.0257
181563,1564236399891,-1,2.83,1.05,0.39,1.47,1.12,0.93,-0.91,0.44,37,-9,53,1.3,5963,28,79,39,84,1331,317.0,422,462,60,128.0,340,1,337,545,107,0,0,288,-1,155,317,-5.59,,,,,,,,,,,,
181583,1564236399911,-1,2.83,1.05,0.39,1.47,1.12,0.95,-0.9,0.44,37,-10,54,1.31,5781,53,79,39,84,1323,320.0,424,461,60,127.0,340,1,327,539,107,0,0,344,-1,-24576,319,-5.59,,,,,,,,,,,,
181603,1564236399931,-0,2.83,1.06,0.39,1.47,1.13,0.93,-0.89,0.48,36,-10,53,1.28,5767,54,79,39,84,1297,321.0,428,462,60,128.0,340,1,326,530,107,0,0,349,-1281,155,321,-5.59,,,,,,,,,,,,
181623,1564236399951,-0,2.84,1.05,0.39,1.47,1.12,0.86,-0.85,0.51,36,-7,51,1.21,5883,30,79,39,84,1268,323.0,434,463,60,127.0,340,1,333,400,107,0,0,287,28160,160,320,-5.59,,,,,,,,,,,,
181643,1564236399971,0,2.84,1.05,0.39,1.46,1.13,0.82,-0.82,0.58,36,-6,49,1.16,6127,51,79,39,84,1222,321.0,438,466,60,127.0,340,1,344,549,107,0,0,315,30208,160,321,-5.59,44.681122,10.018139,27.43,180.9,0,0.0,-1,0.0,0.0,0,0.81,3.0274
181663,1564236399993,-1,2.83,1.05,0.39,1.46,1.12,0.81,-0.75,0.64,36,-5,48,1.11,6254,55,79,39,84,1194,325.0,454,460,60,127.0,393,1,348,546,127,0,0,382,250,165,325,-5.59,,,,,,,,,,,,
181683,1564236400013,2,2.82,1.05,0.39,1.47,1.13,0.88,-0.74,0.61,35,-6,49,1.15,6454,54,79,39,84,1173,329.0,479,465,60,129.0,393,1,356,544,127,0,0,367,24064,170,329,-5.59,,,,,,,,,,,,
181703,1564236400033,2,2.82,1.05,0.39,1.47,1.13,0.87,-0.83,0.63,37,-6,49,1.21,6609,52,79,39,83,1141,331.0,513,466,60,128.0,393,1,364,534,127,0,0,348,1886,13,331,-5.59,,,,,,,,,,,,
181723,1564236400053,0,2.82,1.05,0.39,1.47,1.12,0.82,-0.78,0.72,37,-6,49,1.13,6734,50,79,39,83,1121,335.0,545,463,60,128.0,393,1,368,525,127,0,0,343,250,6668,335,-5.59,,,,,,,,,,,,
181743,1564236400073,2,2.81,1.05,0.39,1.47,1.13,0.76,-0.89,0.73,39,-4,50,1.17,6773,51,79,39,83,1123,342.0,567,466,60,128.0,393,1,370,518,127,0,0,367,250,2060,342,-5.59,44.681114,10.018143,29.37,180.9,0,0.0,-1,0.0,0.0,0,0.81,3.0291
181763,1564236400093,1,2.79,1.05,0.39,1.48,1.12,0.75,-0.85,0.72,40,-3,51,1.13,6825,49,79,39,82,1121,347.0,526,464,60,129.0,388,1,372,511,133,0,0,374,10686,-29978,347,-5.59,,,,,,,,,,,,
181783,1564236400113,0,2.78,1.05,0.39,1.46,1.13,0.73,-0.93,0.72,42,-2,51,1.18,6840,33,79,39,82,1109,353.0,455,463,60,128.0,388,1,373,464,133,0,0,358,0,-6458,353,-5.59,,,,,,,,,,,,
181803,1564236400133,2,2.78,1.06,0.39,1.47,1.12,0.74,-0.93,0.69,42,-2,52,1.19,6820,45,79,39,80,1096,353.0,445,461,60,128.0,388,1,373,542,133,0,0,353,20480,-6656,353,-5.59,,,,,,,,,,,,
181823,1564236400153,-0,2.77,1.05,0.39,1.47,1.13,0.73,-1.02,0.73,44,-1,53,1.26,6798,34,79,39,79,1085,357.0,419,458,60,128.0,388,1,373,526,133,0,0,370,21760,0,357,-5.59,,,,,,,,,,,,
181843,1564236400173,3,2.76,1.05,0.39,1.47,1.13,0.82,-0.99,0.74,45,-2,54,1.29,6813,36,79,39,77,1066,359.0,443,466,60,129.0,388,1,374,510,133,0,0,381,23040,257,361,-5.59,44.681103,10.018146,30.56,180.9,0,0.0,-1,0.0,0.0,0,0.81,3.0307
181863,1564236400197,-0,2.76,1.05,0.39,1.46,1.13,0.72,-1.08,0.76,46,-1,54,1.3,6803,33,79,39,75,1028,361.0,423,464,60,128.0,360,1,376,475,130,0,0,368,25600,1,361,-5.59,,,,,,,,,,,,
181883,1564236400217,3,2.75,1.06,0.39,1.47,1.12,0.76,-1.06,0.73,46,-3,54,1.31,6810,30,79,39,72,1002,362.0,459,462,60,129.0,360,1,380,418,130,0,0,359,100,-6405,362,-5.59,,,,,,,,,,,,
181903,1564236400237,-0,2.74,1.05,0.39,1.47,1.12,0.67,-1.08,0.71,47,-3,54,1.27,6778,28,79,39,70,976,364.0,408,467,60,128.0,360,1,383,362,130,0,0,378,28160,-1268,364,-5.59,,,,,,,,,,,,
181923,1564236400257,4,2.7,1.06,0.39,1.47,1.12,0.78,-1.09,0.65,47,-4,55,1.34,6803,27,79,39,67,954,365.0,365,469,60,129.0,360,1,390,240,130,0,0,389,115,1,365,-5.59,,,,,,,,,,,,
181943,1564236400277,-0,2.66,1.05,0.38,1.47,1.12,0.78,-1.08,0.69,47,-4,54,1.33,6906,26,79,39,66,917,364.0,350,468,60,128.0,360,1,397,325,130,0,0,389,29440,-6405,364,-5.59,44.681099,10.018148,32.02,180.9,0,0.0,-1,0.0,0.0,0,0.81,3.0324
181963,1564236400297,-2,2.62,1.06,0.39,1.47,1.13,0.85,-1.15,0.67,47,-5,54,1.43,7056,27,79,39,64,876,363.0,374,466,60,128.0,233,1,413,317,85,0,0,395,120,-6458,363,-5.59,,,,,,,,,,,,
181983,1564236400293,2,2.58,1.05,0.39,1.47,1.12,0.91,-1.08,0.65,45,-5,55,1.41,7164,27,79,39,62,844,361.0,360,465,60,129.0,233,1,425,305,85,0,0,401,-32256,4104,361,-5.59,,,,,,,,,,,,
182003,1564236400313,4,2.54,1.06,0.39,1.47,1.12,0.84,-1.02,0.66,43,-3,54,1.32,7178,27,79,39,60,825,359.0,386,463,60,129.0,233,1,422,294,85,0,0,408,-30976,-29978,359,-5.59,,,,,,,,,,,,
182023,1564236400333,1,2.52,1.05,0.39,1.47,1.12,0.81,-1.0,0.63,41,-2,53,1.29,7275,27,79,39,59,806,357.0,362,464,60,128.0,233,1,419,289,85,0,0,421,145,4104,356,-5.59,,,,,,,,,,,,
182043,1564236400353,0,2.5,1.05,0.38,1.47,1.12,0.8,-1.0,0.63,38,-1,52,1.28,7309,27,79,39,58,774,356.0,342,466,60,126.0,233,1,414,284,85,0,0,425,155,-6640,355,-5.59,44.681088,10.018149,33.23,180.9,0,0.0,-1,0.0,0.0,0,0.81,3.034
182063,1564236400373,0,2.49,1.04,0.38,1.46,1.12,0.77,-1.01,0.7,36,1,49,1.27,7307,27,79,39,58,764,353.0,338,468,60,128.0,216,1,413,277,77,0,0,377,-20736,-14707,353,-5.59,,,,,,,,,,,,
182083,1564236400395,-1,2.49,1.05,0.38,1.46,1.12,0.73,-0.98,0.81,34,2,46,1.22,7145,27,79,39,57,758,355.0,348,466,60,129.0,216,1,405,272,77,0,0,347,4838,-6405,355,-5.59,,,,,,,,,,,,
182103,1564236400415,3,2.48,1.05,0.38,1.47,1.12,0.69,-0.84,0.85,31,4,44,1.09,6845,26,79,39,57,755,361.0,338,460,60,129.0,216,1,401,267,77,0,0,366,-122,0,361,-5.59,,,,,,,,,,,,
182123,1564236400435,-1,2.48,1.05,0.38,1.47,1.11,0.66,-0.84,0.88,30,6,42,1.07,6572,25,79,39,58,754,362.0,326,466,60,130.0,216,1,397,264,77,0,0,360,6668,486,362,-5.59,,,,,,,,,,,,
182143,1564236400455,-2,2.51,1.05,0.38,1.47,1.12,0.7,-0.69,0.9,28,4,39,0.99,6364,25,79,39,59,755,363.0,317,464,60,128.0,216,1,393,259,77,0,0,353,-30438,-6405,363,-5.59,44.681084,10.018149,32.81,180.9,0,0.0,-1,0.0,0.0,0,0.82,3.0357
182163,1564236400475,1,2.52,1.05,0.38,1.47,1.12,0.71,-0.65,0.85,26,1,36,0.96,6308,25,80,39,59,761,364.0,311,463,60,129.0,167,1,391,257,61,0,0,350,-30438,-6405,364,-5.59,,,,,,,,,,,,
182183,1564236400499,3,2.53,1.05,0.38,1.47,1.12,0.69,-0.71,0.83,26,0,35,0.99,6386,24,80,39,60,768,364.0,303,463,60,128.0,167,1,395,261,61,0,0,344,6668,-1268,364,-5.59,,,,,,,,,,,,
182203,1564236400519,-0,2.56,1.05,0.38,1.47,1.12,0.62,-0.7,0.76,28,0,32,0.94,6467,26,79,39,60,773,366.0,308,463,60,129.0,167,1,398,265,61,0,0,343,6668,-6405,366,-5.59,,,,,,,,,,,,
182223,1564236400539,-0,2.57,1.05,0.39,1.47,1.12,0.62,-0.64,0.82,27,-1,31,0.89,6572,26,79,39,60,778,367.0,321,460,60,128.0,167,1,402,269,61,0,0,340,-122,0,368,-5.59,,,,,,,,,,,,
182243,1564236400559,3,2.57,1.05,0.39,1.46,1.12,0.66,-0.76,0.79,27,-1,31,1.01,6672,26,79,39,60,780,369.0,336,462,60,128.0,167,1,406,273,61,0,0,343,-122,-6656,369,-5.59,44.681072,10.018147,33.48,180.9,0,0.0,-1,0.0,0.0,0,0.82,3.0374
182263,1564236400579,-1,2.57,1.05,0.39,1.47,1.12,0.6,-0.7,0.81,28,1,31,0.93,6838,26,79,39,60,785,370.0,361,470,60,126.0,186,1,413,277,69,0,0,343,-31222,0,370,-5.59,,,,,,,,,,,,
182283,1564236400599,-1,2.55,1.05,0.39,1.46,1.12,0.7,-0.77,0.79,28,-0,32,1.04,6947,26,79,39,59,795,372.0,388,462,60,129.0,186,1,411,279,69,0,0,347,-31222,-6656,372,-5.59,,,,,,,,,,,,
182303,1564236400619,2,2.53,1.05,0.39,1.46,1.12,0.65,-0.7,0.75,27,1,32,0.96,7035,25,79,39,58,804,374.0,417,462,60,129.0,186,1,409,281,69,0,0,364,2560,1,374,-5.59,,,,,,,,,,,,
182323,1564236400639,0,2.48,1.05,0.39,1.46,1.12,0.66,-0.7,0.71,26,1,33,0.97,7091,23,79,39,58,808,374.0,438,467,60,128.0,186,1,410,275,69,0,0,382,3327,770,374,-5.59,,,,,,,,,,,,
182343,1564236400659,0,2.43,1.05,0.38,1.47,1.11,0.71,-0.72,0.69,25,2,33,1.01,7096,23,79,39,58,823,373.0,462,465,60,128.0,186,1,410,271,69,0,0,377,-31206,-6656,373,-5.59,44.681065,10.018145,35.32,180.9,0,0.0,-1,0.0,0.0,0,0.82,3.0391
182363,1564236400679,2,2.39,1.05,0.38,1.46,1.13,0.66,-0.62,0.78,23,1,32,0.9,7033,25,80,39,57,856,371.0,479,464,60,129.0,195,1,404,271,73,0,0,357,8841,2278,371,-5.59,,,,,,,,,,,,
182383,1564236400703,-1,2.34,1.05,0.38,1.46,1.11,0.56,-0.45,0.8,20,-0,31,0.72,6962,26,79,39,57,888,369.0,479,467,60,128.0,195,1,403,270,73,0,0,368,-6644,742,369,-5.59,,,,,,,,,,,,
182403,1564236400723,0,2.29,1.04,0.38,1.45,1.11,0.59,-0.47,0.72,16,0,31,0.75,6863,25,79,39,57,923,368.0,494,466,60,129.0,195,1,401,268,73,0,0,373,-6458,257,368,-5.59,,,,,,,,,,,,
182423,1564236400743,2,2.25,1.04,0.37,1.44,1.1,0.57,-0.32,0.66,12,-0,29,0.66,6781,26,79,39,57,940,366.0,511,465,60,127.0,195,1,399,266,73,0,0,369,-1268,486,366,-5.59,,,,,,,,,,,,
182443,1564236400763,-1,2.22,1.02,0.35,1.4,1.08,0.6,-0.24,0.62,10,-2,25,0.64,6764,24,80,38,58,956,368.0,529,466,60,129.0,195,1,402,270,73,0,0,372,0,-6656,362,-5.59,44.681057,10.018142,35.77,180.9,0,0.0,-1,0.0,0.0,0,0.82,3.0407
182463,1564236400783,2,2.17,1.0,0.34,1.38,1.07,0.64,-0.1,0.59,7,-4,21,0.65,6835,25,79,39,57,970,370.0,555,461,60,128.0,190,1,400,271,69,0,0,373,486,-6405,362,-5.59,,,,,,,,,,,,
182483,1564236400805,-2,2.15,0.99,0.35,1.37,1.06,0.67,-0.01,0.59,5,-3,18,0.67,6900,26,79,39,58,959,374.0,568,468,60,129.0,190,1,406,268,69,0,0,375,742,230,361,-5.59,,,,,,,,,,,,
182503,1564236400825,3,2.11,0.99,0.35,1.36,1.05,0.65,0.03,0.61,3,-4,14,0.65,6954,26,79,39,57,946,376.0,588,461,60,130.0,190,1,403,195,69,0,0,376,3,-6656,361,-5.59,,,,,,,,,,,,
182523,1564236400845,1,2.08,0.99,0.35,1.36,1.05,0.73,0.23,0.65,1,-4,10,0.76,7014,25,79,39,57,932,379.0,600,459,60,128.0,190,1,404,307,69,0,0,381,8200,0,359,-5.59,,,,,,,,,,,,
182543,1564236400865,-2,2.07,0.98,0.34,1.35,1.04,0.77,0.25,0.73,-1,-3,6,0.81,7051,1,79,38,58,919,381.0,609,467,60,128.0,190,1,410,265,69,0,0,384,-18948,0,357,-5.59,44.681046,10.018138,35.6,181.0,0,0.0,-1,0.0,0.0,0,0.82,3.0424
182563,1564236400885,0,2.05,0.98,0.35,1.36,1.05,0.84,0.26,0.73,-4,-4,3,0.88,7078,26,79,38,57,916,384.0,611,457,60,129.0,201,1,405,307,72,0,0,387,-3866,-1268,357,-5.59,,,,,,,,,,,,
182583,1564236400906,3,2.05,0.98,0.35,1.36,1.04,0.79,0.38,0.68,-6,-3,-0,0.88,7123,27,79,38,57,913,387.0,613,462,60,128.0,201,1,405,304,72,0,0,387,-31744,-1268,356,-5.59,,,,,,,,,,,,
182603,1564236400926,1,2.05,0.98,0.35,1.36,1.05,0.75,0.54,0.61,-7,-2,-4,0.93,7080,27,79,38,57,907,388.0,618,463,60,128.0,201,1,405,297,72,0,0,389,-6524,257,356,-5.59,,,,,,,,,,,,
182623,1564236400946,-2,2.05,0.99,0.34,1.36,1.05,0.76,0.53,0.7,-9,-2,-8,0.92,7091,27,79,38,57,900,391.0,616,463,60,128.0,201,1,405,293,72,0,0,391,505,-6656,356,-5.59,,,,,,,,,,,,
182643,1564236400966,3,2.03,0.99,0.35,1.37,1.06,0.82,0.46,0.71,-12,-3,-10,0.94,7107,21,80,38,57,896,392.0,618,461,60,129.0,201,1,405,291,72,0,0,390,1,257,358,-5.59,44.681042,10.018134,36.28,181.0,0,0.0,-1,0.0,0.0,0,0.82,3.044
182663,1564236400986,2,2.01,0.99,0.35,1.37,1.06,0.73,0.55,0.58,-12,-1,-12,0.92,7102,27,80,38,57,892,392.0,621,464,60,128.0,209,1,405,285,75,0,0,393,1,486,357,-5.59,,,,,,,,,,,,
182683,1564236401005,0,1.96,0.99,0.35,1.37,1.05,0.77,0.64,0.59,-14,-2,-15,1.0,7145,27,79,38,57,896,392.0,618,461,60,127.0,209,1,405,198,75,0,0,396,1,-6656,357,-5.59,,,,,,,,,,,,
182703,1564236401025,-0,1.9,0.98,0.35,1.37,1.05,0.82,0.66,0.64,-16,-1,-18,1.05,7137,23,79,38,57,900,394.0,617,463,60,130.0,209,1,405,271,75,0,0,393,-1818,-6656,357,-5.59,,,,,,,,,,,,
182723,1564236401045,3,1.84,0.99,0.34,1.37,1.04,0.87,0.64,0.63,-18,-2,-20,1.08,7102,28,80,38,56,907,395.0,620,461,60,129.0,209,1,400,192,75,0,0,397,17144,3,355,-5.59,,,,,,,,,,,,
182743,1564236401065,2,1.77,0.98,0.35,1.35,1.05,0.84,0.78,0.54,-20,-2,-21,1.14,7194,27,79,38,56,915,394.0,618,463,60,128.0,209,1,401,266,75,0,0,395,-1818,1,353,-5.59,44.68103,10.01813,36.06,181.0,0,0.0,-1,0.0,0.0,0,0.82,3.0457
182763,1564236401085,1,1.71,0.98,0.35,1.37,1.04,0.78,0.9,0.5,-21,-1,-23,1.19,7233,27,79,38,56,923,393.0,621,461,60,129.0,203,1,401,267,72,0,0,396,-6656,770,350,-5.59,,,,,,,,,,,,
182783,1564236401106,-1,1.67,0.98,0.34,1.37,1.04,0.85,0.91,0.48,-23,-3,-26,1.24,7217,27,79,38,56,929,393.0,620,466,60,128.0,203,1,401,266,72,0,0,395,-6656,-19126,347,-5.59,,,,,,,,,,,,
182803,1564236401126,-1,1.61,0.98,0.34,1.37,1.04,0.93,0.9,0.5,-26,-4,-27,1.29,7275,27,79,38,56,926,388.0,620,463,60,128.0,203,1,401,267,72,0,0,395,-31744,-3866,346,-5.59,,,,,,,,,,,,
182823,1564236401146,-0,1.58,0.98,0.34,1.36,1.04,0.94,0.82,0.53,-28,-4,-31,1.24,7347,27,80,38,55,923,385.0,622,468,60,130.0,203,1,396,262,72,0,0,396,-6475,-32702,341,-5.59,,,,,,,,,,,,
182843,1564236401166,0,1.55,0.97,0.34,1.36,1.03,0.99,0.76,0.53,-30,-4,-34,1.25,7500,26,80,38,55,911,382.0,625,467,60,129.0,203,1,396,259,72,0,0,396,19125,10392,337,-5.59,44.681023,10.018128,36.12,181.0,0,0.0,-1,0.0,0.0,0,0.82,3.0474
182863,1564236401186,-0,1.53,0.97,0.34,1.35,1.04,1.06,0.73,0.57,-32,-4,-35,1.29,7591,19,79,38,54,899,380.0,632,465,60,129.0,222,1,390,293,75,0,0,397,-992,10541,335,-5.59,,,,,,,,,,,,
182883,1564236401206,-1,1.53,0.98,0.33,1.36,1.04,1.12,0.69,0.65,-33,-5,-38,1.31,7693,27,80,38,53,889,379.0,628,467,60,129.0,222,1,387,283,75,0,0,396,-18948,13040,333,-5.59,,,,,,,,,,,,
182903,1564236401226,1,1.54,0.98,0.34,1.37,1.04,1.17,0.73,0.7,-34,-6,-41,1.38,7728,26,79,38,53,881,380.0,627,468,60,128.0,222,1,387,278,75,0,0,398,-992,-3414,331,-5.59,,,,,,,,,,,,
182923,1564236401246,0,1.56,0.97,0.35,1.36,1.03,1.18,0.78,0.67,-35,-5,-43,1.41,7709,26,79,38,51,874,382.0,628,464,60,128.0,222,1,381,267,75,0,0,400,8200,9517,330,-5.59,,,,,,,,,,,,
182943,1564236401266,1,1.59,0.97,0.34,1.36,1.04,1.11,0.9,0.64,-36,-5,-44,1.43,7659,26,79,38,51,865,381.0,630,466,60,128.0,222,1,381,256,75,0,0,402,-18948,11560,329,-5.59,44.681011,10.018126,36.32,181.0,0,0.0,-1,0.0,0.0,0,0.82,3.0491
182963,1564236401286,2,1.61,0.97,0.34,1.36,1.04,1.05,1.01,0.57,-36,-4,-44,1.46,7512,26,79,38,51,860,383.0,629,466,60,129.0,222,1,381,250,73,0,0,402,-19126,-1818,329,-5.59,,,,,,,,,,,,
182983,1564236401308,2,1.64,0.97,0.35,1.36,1.04,0.89,1.11,0.53,-36,-2,-46,1.43,7437,26,80,38,51,859,385.0,625,465,60,128.0,222,1,381,247,73,0,0,401,-6475,11545,329,-5.59,,,,,,,,,,,,
183003,1564236401328,-0,1.66,0.97,0.34,1.36,1.03,0.83,1.2,0.53,-36,-2,-48,1.46,7309,26,79,38,51,854,387.0,626,462,60,128.0,222,1,381,242,73,0,0,399,240,17144,332,-5.59,,,,,,,,,,,,
183023,1564236401348,1,1.66,0.98,0.35,1.37,1.03,0.95,1.23,0.57,-37,-3,-47,1.56,7250,26,79,38,52,850,387.0,622,466,60,128.0,222,1,384,245,73,0,0,402,240,-3866,333,-5.59,,,,,,,,,,,,
183043,1564236401368,-0,1.66,0.98,0.34,1.37,1.03,1.01,1.25,0.63,-38,-3,-47,1.6,7253,26,79,38,52,842,387.0,618,458,60,129.0,222,1,384,245,73,0,0,397,240,-19019,333,-5.59,44.681004,10.018126,35.69,181.0,0,0.0,-1,0.0,0.0,0,0.82,3.0507
183063,1564236401388,2,1.65,0.97,0.34,1.36,1.04,0.98,1.13,0.63,-39,-5,-49,1.5,7205,26,79,38,52,838,385.0,622,460,60,129.0,200,1,384,245,67,0,0,393,-6475,-3968,334,-5.59,,,,,,,,,,,,
183083,1564236401408,3,1.65,0.97,0.34,1.36,1.03,0.94,1.13,0.56,-39,-5,-50,1.47,7256,26,79,38,53,830,384.0,622,462,60,130.0,200,1,387,250,67,0,0,390,-19019,-8151,334,-5.59,,,,,,,,,,,,
183103,1564236401428,3,1.65,0.97,0.34,1.37,1.03,0.83,1.22,0.46,-39,-3,-50,1.47,7315,25,79,38,53,816,386.0,627,456,60,129.0,200,1,387,251,67,0,0,392,-3866,-1818,334,-5.59,,,,,,,,,,,,
183123,1564236401448,1,1.66,0.98,0.34,1.37,1.03,0.74,1.3,0.39,-38,-2,-49,1.49,7422,26,79,38,53,809,384.0,626,451,60,129.0,200,1,387,252,67,0,0,391,-19019,-1562,334,-5.59,,,,,,,,,,,,
183143,1564236401468,2,1.66,0.98,0.34,1.37,1.04,0.72,1.34,0.36,-38,-2,-50,1.52,7467,26,79,38,52,802,385.0,627,456,60,129.0,200,1,384,252,67,0,0,395,-6475,11560,333,-5.59,44.680996,10.018128,35.65,181.0,0,0.0,-1,0.0,0.0,0,0.82,3.0524
183163,1564236401488,2,1.67,0.98,0.34,1.37,1.04,0.65,1.41,0.35,-38,-1,-52,1.55,7545,26,79,38,53,800,387.0,626,463,60,128.0,210,1,387,253,70,0,0,397,240,1504,332,-5.59,,,,,,,,,,,,
183183,1564236401510,2,1.68,0.98,0.34,1.37,1.04,0.55,1.46,0.29,-38,-0,-53,1.56,7563,27,80,38,52,798,388.0,634,455,60,128.0,210,1,384,247,70,0,0,397,-31744,-3968,331,-5.59,,,,,,,,,,,,
183203,1564236401530,3,1.71,0.98,0.34,1.36,1.04,0.46,1.52,0.23,-38,1,-52,1.58,7560,27,79,38,52,800,389.0,630,457,60,129.0,210,1,384,247,70,0,0,396,-6524,-32702,331,-5.59,,,,,,,,,,,,
183223,1564236401550,2,1.73,0.98,0.34,1.37,1.04,0.42,1.49,0.21,-39,2,-52,1.55,7452,29,79,38,51,804,390.0,628,456,60,129.0,210,1,381,246,70,0,0,398,-1562,1,331,-5.59,,,,,,,,,,,,
183243,1564236401570,1,1.77,0.98,0.34,1.36,1.04,0.43,1.54,0.21,-39,1,-53,1.6,7367,35,79,38,54,809,391.0,623,465,60,128.0,210,1,390,257,70,0,0,398,505,1504,333,-5.59,44.680984,10.018131,35.42,181.0,0,0.0,-1,0.0,0.0,0,0.83,3.054
183263,1564236401590,2,1.8,0.98,0.34,1.36,1.04,0.37,1.59,0.24,-38,2,-54,1.63,7332,39,79,38,57,819,392.0,623,461,60,127.0,213,1,408,274,71,0,0,400,1,-32702,332,-5.59,,,,,,,,,,,,
183283,1564236401610,1,1.86,0.98,0.34,1.37,1.05,0.48,1.51,0.28,-39,1,-53,1.59,7384,44,79,38,60,829,392.0,623,460,60,129.0,213,1,426,290,71,0,0,396,1,-6475,334,-5.59,,,,,,,,,,,,
183303,1564236401630,-1,1.92,0.98,0.35,1.37,1.05,0.57,1.56,0.34,-39,0,-53,1.66,7402,45,79,38,64,835,394.0,623,460,60,128.0,213,1,426,314,71,0,0,394,-1818,-6524,338,-5.59,,,,,,,,,,,,
183323,1564236401650,-1,1.98,0.99,0.34,1.38,1.04,0.54,1.44,0.46,-39,-1,-55,1.54,7452,46,79,38,67,840,396.0,623,467,60,129.0,213,1,421,327,71,0,0,402,-32702,9517,341,-5.59,,,,,,,,,,,,
183343,1564236401670,1,2.06,0.99,0.34,1.38,1.05,0.66,1.33,0.52,-39,-3,-55,1.49,7554,46,79,38,68,846,399.0,631,461,60,129.0,213,1,423,342,71,0,0,399,28696,6512,342,-5.59,44.680977,10.018136,34.78,181.0,0,0.0,-1,0.0,0.0,0,0.83,3.0557
183363,1564236401690,-0,2.1,0.99,0.35,1.38,1.06,0.72,1.19,0.56,-38,-3,-54,1.39,7560,47,79,38,69,853,400.0,628,460,60,127.0,286,1,423,354,98,0,0,402,-3968,-6475,346,-5.59,,,,,,,,,,,,
183383,1564236401710,1,2.15,1.0,0.35,1.4,1.06,0.76,1.19,0.63,-36,-3,-54,1.42,7545,48,79,38,70,854,398.0,626,461,60,126.0,286,1,421,367,98,0,0,402,-3968,-6656,352,-5.59,,,,,,,,,,,,
183403,1564236401730,1,2.17,1.0,0.36,1.4,1.06,0.69,1.12,0.77,-34,-2,-52,1.31,7554,48,79,38,71,861,396.0,626,459,60,127.0,286,1,420,378,98,0,0,403,17144,-18948,359,-5.59,,,,,,,,,,,,
183423,1564236401750,1,2.19,1.01,0.36,1.41,1.07,0.7,1.08,0.87,-32,-1,-50,1.29,7390,43,79,38,72,878,396.0,624,458,60,127.0,286,1,409,388,98,0,0,406,-6656,-6524,368,-5.59,,,,,,,,,,,,
183443,1564236401770,1,2.2,1.01,0.37,1.42,1.07,0.71,0.96,0.91,-30,-1,-47,1.19,7327,46,79,38,73,908,394.0,625,465,60,128.0,286,1,405,399,98,0,0,401,-1818,-8151,373,-5.59,44.680969,10.018143,34.71,180.9,0,0.0,-1,0.0,0.0,0,0.83,3.0574
183463,1564236401790,-1,2.22,1.02,0.37,1.43,1.08,0.76,0.85,0.95,-28,-2,-45,1.14,7344,52,79,38,74,930,395.0,621,459,60,128.0,294,1,402,412,110,0,0,399,17144,-6656,379,-5.59,,,,,,,,,,,,
183483,1564236401810,1,2.22,1.02,0.38,1.43,1.09,0.87,0.7,1.0,-26,-3,-43,1.11,7358,59,79,38,77,955,396.0,621,464,60,130.0,294,1,401,438,110,0,0,401,-32702,-32702,383,-5.59,,,,,,,,,,,,
183503,1564236401830,-0,2.24,1.03,0.38,1.44,1.09,0.86,0.57,1.02,-24,-4,-41,1.04,7482,68,79,38,80,981,396.0,625,458,60,128.0,294,1,407,468,110,0,0,402,-32702,6384,383,-5.59,,,,,,,,,,,,
183523,1564236401850,-1,2.26,1.03,0.38,1.45,1.09,0.91,0.49,0.99,-23,-5,-38,1.04,7569,75,79,38,85,1024,399.0,627,458,60,128.0,294,1,412,500,110,0,0,404,28696,6512,387,-5.59,,,,,,,,,,,,
183543,1564236401870,-0,2.28,1.04,0.39,1.46,1.1,0.95,0.38,1.08,-21,-5,-35,1.03,7697,81,79,38,88,1033,400.0,627,461,60,130.0,294,1,424,526,110,0,0,408,6512,11560,391,-5.59,44.680965,10.018149,36.43,180.9,0,0.0,-1,0.0,0.0,0,0.83,3.0591
183563,1564236401891,2,2.28,1.04,0.39,1.46,1.1,0.82,0.44,1.11,-20,-7,-32,0.93,7796,87,79,38,90,1045,406.0,626,461,60,129.0,410,1,437,558,160,0,0,412,2524,7154,395,-5.59,,,,,,,,,,,,
183583,1564236401911,4,2.29,1.04,0.39,1.47,1.1,0.73,0.42,1.12,-18,-6,-30,0.84,7988,93,79,38,91,1047,406.0,626,462,60,127.0,410,1,448,565,160,0,0,415,2524,-21792,403,-5.59,,,,,,,,,,,,
183603,1564236401931,0,2.3,1.05,0.39,1.47,1.1,0.78,0.44,1.17,-16,-5,-27,0.9,8230,100,79,38,90,1048,409.0,634,459,60,129.0,410,1,444,591,160,0,0,423,11560,243,408,-5.59,,,,,,,,,,,,
183623,1564236401951,3,2.29,1.04,0.39,1.46,1.11,0.67,0.54,1.24,-14,-4,-23,0.86,8430,99,79,38,89,1040,415.0,630,461,60,127.0,410,1,436,602,160,0,0,435,18584,21580,414,-5.59,,,,,,,,,,,,
183643,1564236401971,1,2.28,1.04,0.39,1.46,1.11,0.7,0.59,1.24,-13,-4,-22,0.92,8542,100,79,38,88,1028,423.0,637,459,60,128.0,410,1,433,600,160,0,0,444,3826,3571,420,-5.59,44.680958,10.018159,38.33,180.9,0,0.0,-1,0.0,0.0,0,0.83,3.0607
183663,1564236401991,1,2.27,1.04,0.39,1.46,1.11,0.79,0.43,1.31,-12,-2,-20,0.9,8561,100,80,38,87,1024,428.0,632,460,60,129.0,461,1,431,600,194,0,0,459,13180,2524,425,-5.59,,,,,,,,,,,,
183683,1564236402007,-1,2.26,1.04,0.39,1.46,1.1,0.66,0.46,1.32,-11,-2,-18,0.8,8577,100,79,38,88,1022,434.0,640,458,60,129.0,461,1,432,589,194,0,0,459,-768,12552,431,-5.59,,,,,,,,,,,,
183703,1564236402027,2,2.25,1.04,0.39,1.46,1.11,0.63,0.47,1.39,-10,-0,-17,0.79,8557,100,79,38,87,1028,442.0,630,455,60,128.0,461,1,431,680,194,0,0,468,23400,16408,436,-5.59,,,,,,,,,,,,
183723,1564236402047,2,2.25,1.03,0.39,1.45,1.1,0.69,0.51,1.45,-10,-1,-15,0.86,8684,100,79,38,87,1041,447.0,635,458,60,128.0,461,1,427,665,194,0,0,468,10305,8488,439,-5.59,,,,,,,,,,,,
183743,1564236402067,1,2.24,1.03,0.38,1.44,1.09,0.71,0.36,1.32,-11,-3,-16,0.79,8848,100,79,38,86,1048,453.0,636,461,60,128.0,461,1,422,655,194,0,0,476,-8985,-17956,444,-5.59,44.680946,10.018167,39.91,180.9,0,0.0,-1,0.0,0.0,0,0.83,3.0624
183763,1564236402087,2,2.24,1.03,0.38,1.44,1.08,0.84,0.2,1.27,-11,-2,-15,0.86,9027,100,79,38,86,1056,458.0,634,463,60,128.0,492,1,418,639,219,0,0,479,17628,-1818,451,-5.59,,,,,,,,,,,,
183783,1564236402107,2,2.24,1.02,0.38,1.44,1.08,0.96,0.1,1.14,-11,-3,-15,0.96,9200,100,79,38,86,1056,464.0,641,463,60,129.0,492,1,418,607,219,0,0,488,16408,505,454,-5.59,,,,,,,,,,,,
183803,1564236402127,3,2.25,1.02,0.38,1.43,1.09,1.06,0.15,1.09,-11,-5,-15,1.07,9337,100,79,38,86,1054,471.0,640,464,60,129.0,492,1,418,597,219,0,0,499,32033,11560,458,-5.59,,,,,,,,,,,,
183823,1564236402147,-1,2.27,1.03,0.37,1.44,1.09,0.78,0.33,1.04,-10,-5,-14,0.85,9469,100,80,38,86,1044,478.0,640,460,60,128.0,492,1,418,578,219,0,0,511,16648,-3414,466,-5.59,,,,,,,,,,,,
183843,1564236402167,-0,2.28,1.03,0.38,1.44,1.09,0.72,0.28,1.13,-9,-5,-14,0.77,9571,100,80,38,86,1032,484.0,649,463,60,128.0,492,1,415,580,219,0,0,510,-10483,26178,472,-5.59,44.680943,10.018177,42.67,180.8,0,0.0,-1,0.0,0.0,0,0.83,3.064
183863,1564236402187,-2,2.28,1.03,0.38,1.44,1.08,0.8,0.28,1.18,-10,-5,-14,0.85,9236,100,80,38,85,1024,487.0,635,456,60,130.0,438,1,418,566,207,0,0,523,505,17136,479,-5.59,,,,,,,,,,,,
183883,1564236402205,-2,2.29,1.03,0.38,1.45,1.08,0.92,0.31,1.08,-9,-6,-14,0.97,8672,100,80,38,87,1019,493.0,626,459,60,129.0,438,1,427,589,207,0,0,501,-6528,-9216,485,-5.59,,,,,,,,,,,,
183903,1564236402225,-0,2.29,1.03,0.37,1.45,1.09,0.93,0.21,0.87,-9,-7,-13,0.96,8238,100,80,38,89,1013,494.0,620,460,60,128.0,438,1,442,581,207,0,0,497,998,-1818,485,-5.59,,,,,,,,,,,,
183923,1564236402245,-1,2.31,1.03,0.37,1.44,1.08,0.99,0.17,0.94,-9,-9,-11,1.0,8081,100,80,38,90,1009,491.0,612,456,60,130.0,438,1,448,573,207,0,0,495,248,3580,486,-5.59,,,,,,,,,,,,
183943,1564236402265,-1,2.32,1.03,0.38,1.44,1.1,0.86,0.12,0.9,-8,-8,-13,0.87,7861,100,80,38,91,1008,491.0,617,461,60,128.0,438,1,438,560,207,0,0,490,248,-1818,486,-5.59,44.680931,10.018188,45.73,180.8,0,0.0,-1,0.0,0.0,0,0.83,3.0657
183963,1564236402285,1,2.33,1.03,0.38,1.45,1.1,0.77,0.16,0.74,-6,-7,-12,0.78,7649,100,79,38,92,1012,492.0,620,466,60,127.0,617,1,420,941,300,0,0,503,248,771,488,-5.59,,,,,,,,,,,,
183983,1564236402309,2,2.33,1.04,0.39,1.45,1.1,0.68,0.16,0.74,-5,-5,-11,0.7,7324,100,79,38,92,1046,494.0,620,463,60,127.0,617,1,396,824,300,0,0,543,998,1341,496,-5.59,,,,,,,,,,,,
184003,1564236402329,0,2.33,1.04,0.39,1.46,1.11,0.57,0.17,0.81,-4,-2,-11,0.59,7083,100,79,38,93,1126,502.0,611,465,60,128.0,617,1,376,717,300,0,0,526,15661,6274,504,-5.59,,,,,,,,,,,,
184023,1564236402349,0,2.33,1.04,0.38,1.46,1.1,0.6,0.1,0.84,-4,-1,-9,0.61,7192,100,79,38,93,1204,508.0,610,460,60,130.0,617,1,384,630,300,0,0,517,-21872,-32248,505,-5.59,,,,,,,,,,,,
184043,1564236402369,4,2.32,1.04,0.39,1.47,1.1,0.62,0.06,0.94,-4,-1,-7,0.62,7203,100,80,38,93,1299,510.0,612,462,60,130.0,617,1,385,541,300,0,0,526,-4054,-9072,510,-5.59,44.680923,10.018199,48.18,180.7,0,0.0,-1,0.0,0.0,0,0.83,3.0674
184063,1564236402389,1,2.34,1.04,0.38,1.47,1.1,0.6,0.05,0.96,-3,0,-6,0.6,7123,100,79,38,93,1375,514.0,608,460,60,129.0,280,1,379,527,144,0,0,525,-3482,-9072,513,-5.59,,,,,,,,,,,,
184083,1564236402407,1,2.34,1.04,0.38,1.46,1.11,0.56,0.14,0.9,-1,0,-6,0.57,7129,100,79,38,94,1433,515.0,607,464,60,128.0,280,1,379,527,144,0,0,526,-14,10408,515,-5.59,,,,,,,,,,,,
184103,1564236402427,-0,2.35,1.05,0.39,1.46,1.1,0.53,0.1,0.94,-1,-1,-5,0.54,7167,100,79,38,94,1498,519.0,613,464,60,128.0,280,1,382,529,144,0,0,535,16383,6274,519,-5.59,,,,,,,,,,,,
184123,1564236402447,-0,2.35,1.04,0.39,1.46,1.1,0.61,0.02,1.01,-1,-2,-5,0.61,7256,100,79,38,93,1498,522.0,619,460,60,129.0,280,1,389,534,144,0,0,536,1341,-30064,522,-5.59,,,,,,,,,,,,
184143,1564236402467,3,2.35,1.04,0.39,1.46,1.11,0.65,-0.03,1.04,-1,-3,-4,0.65,7413,100,79,38,93,1476,523.0,618,462,60,128.0,280,1,401,541,144,0,0,542,-22519,2524,523,-5.59,44.680916,10.018211,49.06,180.7,0,0.0,-1,0.0,0.0,0,0.84,3.0691
184163,1564236402487,0,2.35,1.04,0.39,1.46,1.1,0.67,-0.13,1.07,-1,-3,-2,0.68,7524,100,79,38,93,1375,529.0,618,463,60,128.0,288,1,410,480,152,0,0,553,-28648,2104,529,-5.59,,,,,,,,,,,,
