"Interval"|"ms"|0|0|1,"Utc"|"ms"|0|0|1,"FB_p"|"bar"|0|300|50,"Volant"|"F"|0.0|300.0|50,"xFR"|"mm"|0.0|5.0|50,"xRR"|"mm"|0.0|5.0|50,"xFL"|"mm"|0.0|5.0|50,"xRL"|"mm"|0.0|5.0|50,"AccelX"|"G"|-3.0|3.0|50,"AccelY"|"G"|-3.0|3.0|50,"AccelZ"|"G"|-3.0|3.0|50,"Yaw"|"Deg/Sec"|-120|120|50,"Pitch"|"Deg/Sec"|-120|120|50,"Roll"|"Deg/Sec"|-120|120|50,"Gsum"|"G"|0.0|3.0|50,"RPM"|""|0|14000|50,"TPS"|"%"|0|100|50,"WaterTemp"|"?C"|0|300|50,"AirTemp"|"?C"|-1000|1000|50,"MAP"|"KPa"|0|255|50,"Lambda"|""|0|1024|50,"WheelSpeed"|"MPH"|0.0|150.0|50,"OilPress"|"PSI"|0|150|50,"FuelPress"|"PSI"|0|150|50,"OilTemp"|"F"|0|300|50,"Battery"|"Volts"|0.0|20.0|50,"FuelCon"|"L/h"|-1000|1000|50,"Gear"|""|0|10|50,"Advance"|"Deg"|-360|360|50,"Injection"|"ms"|-1000|1000|50,"FuelCon"|"L/100km"|-1000|1000|50,"LC_But_Pres"|""|-1000|1000|50,"LC_Active"|""|-1000|1000|50,"RD_Speed"|""|-1000|1000|50,"RUD_Speed"|""|-1000|1000|50,"LD_Speed"|""|-1000|1000|50,"LUD_Speed"|""|-1000|1000|50,"Ana1"|"bar"|-1000.0|1000.0|50,"Latitude"|"Degrees"|-180.0|180.0|10,"Longitude"|"Degrees"|-180.0|180.0|10,"Speed"|"kph"|0.0|150.0|10,"Altitude"|"m"|0.0|4000.0|10,"LapCount"|""|0|0|10,"LapTime"|"Min"|0.0|0.0|10,"Sector"|""|0|0|10,"SectorTime"|"Min"|0.0|0.0|10,"ElapsedTime"|"Min"|0.0|0.0|10,"CurrentLap"|""|0|0|10,"Distance"|"km"|0.0|0.0|10,"SessionTime"|"Min"|0.0|0.0|10
149563,1564214532247,17,2.3,1.1,0.61,1.42,1.16,0.73,0.06,-0.01,1,2,-0,0.73,8445,16,92,36,30,880,613.0,641,463,60,124.0,96,1,290,183,59,0,0,619,-28304,3,612,-5.59,,,,,,,,,,,,
149583,1564214532267,16,2.31,1.09,0.61,1.42,1.15,0.82,0.02,-0.04,0,2,-1,0.82,8408,16,92,36,30,897,612.0,643,463,60,123.0,96,1,290,182,59,0,0,613,17740,30721,603,-5.59,,,,,,,,,,,,
149603,1564214532287,18,2.33,1.1,0.6,1.42,1.16,0.74,-0.0,-0.07,1,2,-1,0.74,8366,16,92,36,30,912,601.0,632,467,60,124.0,96,1,289,180,59,0,0,620,243,26688,596,-5.59,,,,,,,,,,,,
149623,1564214532307,16,2.33,1.09,0.61,1.42,1.15,0.87,0.02,0.02,1,1,-2,0.87,8348,16,92,36,31,928,597.0,649,464,60,123.0,96,1,292,102,59,0,0,608,23619,3403,591,-5.59,,,,,,,,,,,,
149643,1564214532327,18,2.33,1.09,0.61,1.42,1.16,0.81,-0.01,0.02,1,1,-2,0.81,8348,16,92,36,31,935,597.0,645,468,60,124.0,95,1,292,179,56,0,0,603,17344,1010,591,-5.59,44.680702,10.022168,63.25,179.6,0,0.0,-1,0.0,0.0,0,0.56,2.4941
149663,1564214532347,16,2.32,1.1,0.61,1.42,1.15,0.92,0.01,0.07,1,0,-1,0.92,8318,16,92,36,30,942,591.0,634,466,60,124.0,95,1,288,178,56,0,0,596,-32504,17740,594,-5.59,,,,,,,,,,,,
149683,1564214532367,17,2.33,1.1,0.61,1.42,1.16,0.88,0.03,-0.01,1,1,-1,0.88,8245,16,92,36,31,937,586.0,630,465,60,124.0,95,1,290,176,56,0,0,588,-4035,-23055,586,-5.59,,,,,,,,,,,,
149703,1564214532387,13,2.33,1.09,0.61,1.42,1.15,0.96,0.05,0.02,1,-1,-1,0.96,8212,16,92,36,31,929,578.0,632,466,60,124.0,95,1,290,175,56,0,0,593,30208,30227,577,-5.59,,,,,,,,,,,,
149723,1564214532407,15,2.32,1.09,0.61,1.43,1.16,0.93,-0.01,-0.06,1,0,-0,0.93,8202,16,93,37,31,918,576.0,628,463,60,126.0,95,1,290,175,56,0,0,582,-8188,17344,576,-5.59,,,,,,,,,,,,
149743,1564214532427,12,2.32,1.09,0.61,1.42,1.16,0.94,-0.03,-0.03,1,-0,0,0.94,8016,16,92,37,31,909,573.0,627,460,60,126.0,93,1,287,166,54,0,0,577,1760,-4035,571,181.28,44.680702,10.02219,60.92,179.5,0,0.0,-1,0.0,0.0,0,0.56,2.4957
149763,1564214532447,14,2.3,1.1,0.61,1.43,1.16,1.05,-0.08,0.01,1,-1,1,1.05,7809,16,93,37,31,905,570.0,619,458,60,125.0,93,1,286,166,54,0,0,578,-29984,-1894,570,-5.59,,,,,,,,,,,,
149783,1564214532467,14,2.31,1.09,0.61,1.42,1.16,1.14,-0.13,0.06,0,-2,-0,1.15,7646,16,93,37,32,903,570.0,616,461,60,125.0,93,1,290,168,54,0,0,569,-29984,243,564,181.28,,,,,,,,,,,,
149803,1564214532487,15,2.3,1.09,0.6,1.42,1.15,1.1,-0.09,0.15,-0,-1,-1,1.1,7434,16,93,37,33,904,557.0,608,461,60,123.0,93,1,292,173,54,0,0,570,6274,774,553,-5.59,,,,,,,,,,,,
149823,1564214532507,15,2.31,1.1,0.61,1.42,1.16,1.07,-0.11,0.0,-1,-1,-1,1.08,7275,16,92,37,34,906,557.0,605,467,60,123.0,134,1,295,265,73,0,0,564,2216,-3210,544,-5.59,,,,,,,,,,,,
149843,1564214532527,18,2.31,1.09,0.6,1.42,1.16,1.08,0.1,-0.14,0,2,-1,1.08,7214,16,92,37,35,909,551.0,615,462,60,122.0,134,1,298,256,73,0,0,543,14504,-22519,551,-5.59,44.680702,10.02221,58.64,179.5,0,0.0,-1,0.0,0.0,0,0.56,2.4974
149863,1564214532547,15,2.3,1.1,0.61,1.42,1.15,1.07,0.11,-0.21,0,-0,-0,1.07,7656,16,92,37,35,911,551.0,623,466,60,122.0,134,1,298,234,73,0,0,543,6274,6274,545,-5.59,,,,,,,,,,,,
149883,1564214532567,14,2.3,1.1,0.61,1.42,1.15,1.12,0.1,-0.1,-0,1,-0,1.13,7744,16,92,37,35,934,541.0,615,463,60,123.0,134,1,298,214,73,0,0,543,-2336,26704,539,-5.59,,,,,,,,,,,,
149903,1564214532587,14,2.32,1.09,0.61,1.42,1.15,1.1,0.09,-0.03,-1,3,-1,1.11,7948,16,92,37,35,963,534.0,627,467,60,124.0,134,1,298,193,73,0,0,543,-32248,6512,530,-5.59,,,,,,,,,,,,
149923,1564214532607,17,2.31,1.1,0.61,1.41,1.16,1.13,0.07,-0.17,-1,2,-2,1.13,7971,16,92,37,35,991,531.0,626,463,60,124.0,134,1,298,184,73,0,0,393,-22519,20625,524,-5.59,,,,,,,,,,,,
149943,1564214532627,14,2.31,1.09,0.6,1.42,1.16,1.21,0.09,-0.06,-1,2,-2,1.22,7982,16,92,37,35,1016,526.0,628,464,60,124.0,106,1,298,184,56,0,0,426,-32248,17136,518,-5.59,44.680702,10.02223,56.29,179.5,0,0.0,-1,0.0,0.0,0,0.57,2.499
149963,1564214532647,16,2.31,1.09,0.61,1.42,1.16,1.18,0.14,-0.12,-1,2,-2,1.19,8155,16,92,37,35,1082,520.0,625,463,60,124.0,106,1,301,188,56,0,0,437,1248,-9216,511,-5.59,,,,,,,,,,,,
149983,1564214532667,14,2.31,1.09,0.6,1.42,1.16,1.25,0.14,-0.0,-2,1,-3,1.26,8426,16,92,37,34,1175,514.0,640,467,60,123.0,106,1,303,191,56,0,0,468,-3482,-18108,506,-5.59,,,,,,,,,,,,
150003,1564214532687,12,2.31,1.09,0.62,1.42,1.15,1.28,0.06,-0.0,-2,2,-3,1.28,8546,16,92,37,33,1255,507.0,635,465,60,123.0,106,1,302,190,56,0,0,459,-21872,-21792,503,-5.59,,,,,,,,,,,,
150023,1564214532707,10,2.31,1.1,0.61,1.41,1.16,1.19,0.04,-0.08,-2,2,-3,1.19,8632,16,92,37,32,1321,505.0,640,466,60,123.0,122,1,300,187,61,0,0,436,6274,-768,498,-5.59,,,,,,,,,,,,
150043,1564214532727,13,2.31,1.1,0.6,1.42,1.15,1.12,0.15,-0.05,-2,2,-2,1.13,8608,16,92,37,32,1340,494.0,649,465,60,123.0,122,1,300,187,61,0,0,447,998,771,492,-5.59,44.680702,10.02225,53.36,179.4,0,0.0,-1,0.0,0.0,0,0.57,2.5007
150063,1564214532747,12,2.31,1.1,0.61,1.42,1.15,1.19,0.22,-0.04,-2,1,-3,1.21,8664,16,92,37,31,1308,491.0,656,462,60,123.0,122,1,295,187,61,0,0,485,248,-22519,483,-5.59,,,,,,,,,,,,
150083,1564214532767,12,2.31,1.09,0.6,1.41,1.15,1.27,0.32,-0.08,-1,0,-3,1.31,8848,16,92,37,31,1255,490.0,657,466,60,122.0,122,1,295,187,61,0,0,484,-6441,32033,480,-5.59,,,,,,,,,,,,
150103,1564214532787,11,2.32,1.09,0.61,1.42,1.15,1.35,0.34,-0.05,-1,-1,-2,1.39,9031,16,92,37,30,1158,479.0,656,461,60,122.0,122,1,291,187,61,0,0,480,10305,10432,479,-5.59,,,,,,,,,,,,
150123,1564214532809,14,2.31,1.09,0.6,1.42,1.16,1.41,0.37,0.02,0,-2,-2,1.46,9115,16,92,37,29,1063,478.0,652,470,60,123.0,135,1,287,188,65,0,0,461,-17956,-1923,478,-5.59,,,,,,,,,,,,
150143,1564214532829,12,2.32,1.09,0.6,1.42,1.15,1.48,0.45,0.03,1,-1,-1,1.54,9119,16,92,37,29,973,472.0,654,461,60,123.0,135,1,287,188,65,0,0,469,8488,-23367,472,-5.59,44.680702,10.022268,50.63,179.4,0,0.0,-1,0.0,0.0,0,0.57,2.5024
150163,1564214532849,10,2.32,1.1,0.61,1.42,1.15,1.49,0.5,0.09,1,1,-0,1.57,9062,16,92,37,29,905,470.0,658,466,60,122.0,135,1,287,187,65,0,0,463,2211,-6441,470,-5.59,,,,,,,,,,,,
150183,1564214532869,10,2.33,1.1,0.6,1.42,1.15,1.53,0.56,0.18,2,1,1,1.63,9005,16,92,37,28,911,466.0,646,463,60,124.0,135,1,282,187,65,0,0,466,16408,3580,462,-5.59,,,,,,,,,,,,
150203,1564214532889,8,2.33,1.09,0.61,1.42,1.15,1.57,0.63,0.3,2,2,1,1.69,8954,16,92,37,28,920,461.0,638,466,60,124.0,135,1,282,187,65,0,0,474,-23623,32033,461,-5.59,,,,,,,,,,,,
150223,1564214532909,9,2.33,1.1,0.61,1.43,1.15,1.62,0.67,0.36,2,-1,1,1.75,8898,16,92,37,28,935,461.0,643,463,60,124.0,136,1,282,187,63,0,0,464,17628,2212,461,-5.59,,,,,,,,,,,,
150243,1564214532929,8,2.34,1.09,0.61,1.43,1.15,1.66,0.67,0.34,3,-2,1,1.79,8823,16,92,37,28,949,460.0,650,466,60,124.0,136,1,282,187,63,0,0,464,14488,10432,460,-5.59,44.680698,10.022285,48.0,179.4,0,0.0,-1,0.0,0.0,0,0.57,2.504
150263,1564214532949,9,2.33,1.1,0.61,1.41,1.16,1.69,0.59,0.32,2,-4,1,1.79,8778,16,92,37,28,957,456.0,653,461,60,122.0,136,1,282,187,63,0,0,466,-6387,-3210,456,-5.59,,,,,,,,,,,,
150283,1564214532969,7,2.33,1.09,0.61,1.42,1.16,1.61,0.43,0.28,2,-3,2,1.67,8749,16,92,37,29,964,455.0,646,467,60,124.0,136,1,287,187,63,0,0,455,15649,16408,455,-5.59,,,,,,,,,,,,
150303,1564214532989,7,2.32,1.1,0.61,1.43,1.16,1.57,0.31,0.29,2,-3,2,1.6,8684,16,92,37,28,967,450.0,645,467,60,124.0,136,1,282,187,63,0,0,449,16648,12552,450,-5.59,,,,,,,,,,,,
150323,1564214532999,9,2.32,1.09,0.61,1.42,1.16,1.51,0.32,0.34,2,-1,2,1.55,8632,16,92,37,29,970,451.0,638,470,60,124.0,135,1,287,187,61,0,0,454,16648,12552,451,-5.59,,,,,,,,,,,,
150343,1564214533019,7,2.32,1.09,0.61,1.43,1.16,1.56,0.29,0.36,1,-2,2,1.59,8573,16,92,37,29,965,447.0,646,465,60,123.0,135,1,287,187,61,0,0,449,21432,17628,445,-5.59,44.680698,10.022302,46.44,179.4,0,0.0,-1,0.0,0.0,0,0.57,2.5057
150363,1564214533039,5,2.31,1.09,0.61,1.42,1.16,1.44,0.23,0.3,1,-1,2,1.45,8491,16,92,37,29,960,445.0,637,467,60,124.0,135,1,286,186,61,0,0,454,23400,-8985,445,-5.59,,,,,,,,,,,,
150383,1564214533059,9,2.3,1.1,0.61,1.43,1.16,1.4,0.23,0.35,1,0,2,1.42,8430,16,92,37,29,960,442.0,633,463,60,125.0,135,1,286,183,61,0,0,450,23400,-26615,440,-5.59,,,,,,,,,,,,
150403,1564214533079,5,2.31,1.09,0.61,1.42,1.16,1.43,0.25,0.42,1,-2,2,1.46,8378,16,92,37,30,959,439.0,649,465,60,123.0,135,1,289,181,61,0,0,448,5600,-3267,439,-5.59,,,,,,,,,,,,
150423,1564214533107,6,2.31,1.1,0.61,1.42,1.16,1.28,0.2,0.38,1,-2,2,1.29,8374,16,92,37,30,964,437.0,643,463,60,124.0,135,1,289,180,61,0,0,447,-768,2131,437,-5.59,,,,,,,,,,,,
150443,1564214533127,4,2.32,1.1,0.6,1.43,1.16,1.31,0.12,0.34,1,-2,1,1.32,8322,16,92,37,30,969,435.0,637,466,60,124.0,130,1,288,178,57,0,0,444,-7939,21432,434,-5.59,44.680698,10.022318,45.15,179.3,0,0.0,-1,0.0,0.0,0,0.57,2.5074
150463,1564214533147,7,2.31,1.1,0.61,1.43,1.15,1.22,0.08,0.34,1,-1,2,1.22,8238,16,92,37,30,966,433.0,633,465,60,123.0,130,1,287,176,57,0,0,441,-3322,23400,432,-5.59,,,,,,,,,,,,
150483,1564214533167,4,2.32,1.09,0.61,1.43,1.16,1.25,0.11,0.38,1,-1,2,1.25,8194,16,92,37,31,964,432.0,637,463,60,124.0,130,1,289,174,57,0,0,442,-3322,-18341,432,-5.59,,,,,,,,,,,,
150503,1564214533187,6,2.32,1.09,0.61,1.42,1.16,1.14,0.11,0.45,1,-1,1,1.15,8180,16,92,37,31,957,431.0,624,464,60,124.0,130,1,289,174,57,0,0,440,-3314,16648,431,-5.59,,,,,,,,,,,,
150523,1564214533208,3,2.32,1.09,0.6,1.42,1.16,1.13,0.14,0.35,1,-1,1,1.14,8127,16,92,37,32,950,430.0,640,463,60,124.0,130,1,292,95,57,0,0,438,3635,26704,429,-5.59,,,,,,,,,,,,
150543,1564214533228,5,2.33,1.09,0.61,1.43,1.16,1.1,0.11,0.34,1,0,1,1.11,8071,16,92,37,32,938,427.0,634,463,60,124.0,123,1,291,170,53,0,0,437,-4082,21580,427,-5.59,44.680698,10.022334,44.05,179.3,0,0.0,-1,0.0,0.0,0,0.57,2.509
150563,1564214533248,6,2.32,1.09,0.61,1.42,1.16,1.02,0.11,0.33,2,0,1,1.03,8043,16,92,37,32,927,425.0,642,467,60,124.0,123,1,290,169,53,0,0,433,-3414,-28332,427,-5.59,,,,,,,,,,,,
150583,1564214533268,2,2.33,1.1,0.61,1.41,1.16,1.0,0.11,0.27,1,1,2,1.01,7995,16,92,37,32,920,423.0,636,466,60,123.0,123,1,290,173,53,0,0,429,3826,21580,423,-5.59,,,,,,,,,,,,
150603,1564214533288,4,2.33,1.08,0.61,1.43,1.15,1.01,0.11,0.3,1,1,0,1.02,7924,16,92,37,33,916,423.0,633,464,60,124.0,123,1,292,173,53,0,0,430,-21792,21580,423,-5.59,,,,,,,,,,,,
150623,1564214533308,3,2.33,1.1,0.61,1.43,1.16,1.0,0.1,0.34,1,1,1,1.0,7908,16,92,37,33,910,421.0,630,465,60,124.0,121,1,292,173,51,0,0,428,7154,3635,421,-5.59,,,,,,,,,,,,
150643,1564214533328,4,2.33,1.09,0.6,1.42,1.15,0.95,0.12,0.27,1,2,1,0.96,7841,16,92,37,34,904,421.0,633,467,60,124.0,121,1,295,173,51,0,0,427,-21944,13180,419,-5.59,44.680698,10.022349,43.09,179.3,0,0.0,-1,0.0,0.0,0,0.57,2.5107
150663,1564214533348,2,2.33,1.09,0.61,1.42,1.16,0.96,0.14,0.29,1,2,0,0.97,7812,16,92,37,34,901,419.0,628,461,60,124.0,121,1,295,178,51,0,0,425,-3414,-4082,419,-5.59,,,,,,,,,,,,
150683,1564214533368,2,2.32,1.09,0.61,1.42,1.16,0.93,0.08,0.27,1,2,0,0.94,7802,16,92,37,34,899,416.0,631,466,60,123.0,121,1,295,178,51,0,0,424,2524,31796,416,-5.59,,,,,,,,,,,,
150703,1564214533388,3,2.31,1.09,0.61,1.42,1.15,0.93,0.06,0.28,2,1,1,0.93,7770,16,92,37,34,895,416.0,622,462,60,125.0,121,1,295,178,51,0,0,419,-4059,-3856,416,-5.59,,,,,,,,,,,,
150723,1564214533408,4,2.31,1.1,0.61,1.43,1.16,0.87,0.06,0.26,2,1,0,0.88,7770,16,92,37,35,888,412.0,622,462,60,124.0,121,1,298,184,51,0,0,417,13040,13552,412,-5.59,,,,,,,,,,,,
150743,1564214533428,3,2.32,1.09,0.61,1.42,1.16,0.84,0.06,0.17,2,0,0,0.84,7776,16,92,37,35,884,410.0,627,467,60,123.0,131,1,298,184,54,0,0,416,9517,-3856,411,-5.59,44.680698,10.022364,42.16,179.2,0,0.0,-1,0.0,0.0,0,0.58,2.5124
150763,1564214533448,6,2.31,1.09,0.61,1.43,1.15,0.88,0.02,0.16,1,1,2,0.88,7731,16,92,37,35,880,410.0,629,466,60,123.0,131,1,298,184,54,0,0,413,11560,-21792,409,-5.59,,,,,,,,,,,,
150783,1564214533468,3,2.31,1.09,0.61,1.42,1.16,0.94,-0.0,0.28,1,2,1,0.94,7783,16,92,37,35,874,408.0,623,465,60,124.0,131,1,298,184,54,0,0,412,2524,-3414,408,-5.59,,,,,,,,,,,,
150803,1564214533488,5,2.29,1.1,0.61,1.42,1.16,1.01,-0.03,0.4,0,1,-1,1.01,7738,16,92,37,36,866,406.0,626,464,60,125.0,131,1,301,190,54,0,0,412,1504,-4059,403,-5.59,,,,,,,,,,,,
150823,1564214533508,5,2.3,1.09,0.61,1.42,1.16,1.03,-0.01,0.41,0,1,-0,1.03,7773,16,92,37,36,861,402.0,625,464,60,125.0,135,1,301,184,54,0,0,409,10541,-4059,400,-5.59,,,,,,,,,,,,
150843,1564214533528,6,2.29,1.1,0.6,1.43,1.16,1.0,0.03,0.37,0,0,-0,1.0,7712,16,92,37,35,858,400.0,621,462,60,125.0,135,1,298,184,54,0,0,407,28696,-26615,400,-5.59,44.680698,10.022379,41.58,179.2,0,0.0,-1,0.0,0.0,0,0.58,2.514
150863,1564214533548,8,2.29,1.1,0.61,1.42,1.16,0.89,0.04,0.31,1,0,-2,0.89,7703,16,92,37,36,856,399.0,638,467,60,123.0,135,1,301,190,54,0,0,406,28696,11560,398,-5.59,,,,,,,,,,,,
150883,1564214533568,7,2.29,1.09,0.61,1.42,1.16,0.83,0.0,0.21,1,1,-1,0.83,7712,16,92,37,36,855,397.0,631,466,60,123.0,135,1,301,190,54,0,0,407,-3968,-26615,396,-5.59,,,,,,,,,,,,
150903,1564214533588,8,2.29,1.09,0.61,1.42,1.16,0.88,0.02,0.16,1,1,1,0.88,7681,16,92,37,36,855,395.0,631,462,60,124.0,135,1,301,190,54,0,0,399,-6656,10541,395,-5.59,,,,,,,,,,,,
150923,1564214533610,4,2.29,1.09,0.61,1.43,1.16,0.97,0.01,0.21,0,1,0,0.97,7684,16,92,37,36,856,393.0,631,464,60,122.0,135,1,301,190,54,0,0,401,-6656,28696,392,-5.59,,,,,,,,,,,,
150943,1564214533630,6,2.28,1.1,0.61,1.43,1.16,1.04,-0.05,0.28,-0,1,-1,1.04,7653,16,92,37,36,857,389.0,629,465,60,124.0,140,1,301,190,55,0,0,400,-31744,28696,389,-5.59,44.680695,10.022393,40.38,179.2,0,0.0,-1,0.0,0.0,0,0.58,2.5157
150963,1564214533650,5,2.28,1.09,0.61,1.42,1.16,1.08,-0.06,0.31,-1,1,-0,1.08,7656,16,92,37,36,857,390.0,618,462,60,125.0,140,1,301,190,55,0,0,396,-1562,-3968,388,-5.59,,,,,,,,,,,,
150983,1564214533670,7,2.28,1.09,0.61,1.42,1.16,1.11,-0.08,0.37,-1,-1,-0,1.11,7600,16,92,37,36,857,386.0,618,466,60,125.0,140,1,301,190,55,0,0,396,-3866,-6656,384,-5.59,,,,,,,,,,,,
151003,1564214533690,6,2.28,1.09,0.61,1.42,1.16,1.12,-0.04,0.42,-2,-2,-2,1.12,7640,16,91,37,36,855,383.0,626,460,60,124.0,140,1,301,190,55,0,0,392,-19126,-1562,380,-5.59,,,,,,,,,,,,
151023,1564214533708,7,2.28,1.09,0.61,1.42,1.16,1.12,0.04,0.43,-2,-3,-3,1.12,7603,16,92,37,36,854,383.0,618,464,60,124.0,143,1,301,190,54,0,0,390,-19126,505,376,-5.59,,,,,,,,,,,,
151043,1564214533728,7,2.28,1.09,0.61,1.42,1.16,1.06,0.15,0.38,-2,-3,-3,1.07,7625,16,92,37,37,854,380.0,629,466,60,123.0,143,1,304,190,54,0,0,388,-992,-6475,375,-5.59,44.680695,10.022408,39.54,179.2,0,0.0,-1,0.0,0.0,0,0.58,2.5174
151063,1564214533748,10,2.27,1.1,0.61,1.42,1.16,0.94,0.17,0.32,-2,-2,-3,0.96,7566,16,92,37,37,853,378.0,618,464,60,124.0,143,1,304,196,54,0,0,387,2278,19125,374,-5.59,,,,,,,,,,,,
151083,1564214533768,8,2.28,1.1,0.61,1.42,1.16,0.82,0.2,0.29,-2,-2,-5,0.84,7491,16,91,37,37,854,378.0,632,466,60,123.0,143,1,304,196,54,0,0,389,3,-3866,372,-5.59,,,,,,,,,,,,
151103,1564214533788,7,2.28,1.09,0.61,1.42,1.16,0.77,0.24,0.28,-2,-2,-5,0.81,7355,16,92,37,37,854,375.0,607,465,60,124.0,143,1,304,195,54,0,0,389,3,-6475,369,-5.59,,,,,,,,,,,,
151123,1564214533808,4,2.27,1.09,0.61,1.42,1.15,0.81,0.23,0.4,-3,-4,-5,0.85,7225,16,92,37,38,856,374.0,617,466,60,124.0,149,1,307,201,55,0,0,388,742,-6475,366,-5.59,,,,,,,,,,,,
151143,1564214533828,8,2.28,1.09,0.61,1.42,1.16,0.93,0.16,0.42,-3,-5,-4,0.95,7033,16,92,38,38,858,371.0,591,462,60,125.0,149,1,307,200,55,0,0,385,257,8200,369,-5.59,44.680695,10.022421,38.16,179.2,0,0.0,-1,0.0,0.0,0,0.58,2.5191
151163,1564214533848,9,2.27,1.09,0.61,1.42,1.15,0.89,0.18,0.34,-3,-2,-5,0.9,6906,16,92,38,39,860,370.0,594,465,60,123.0,149,1,310,206,55,0,0,379,486,-19126,367,-5.59,,,,,,,,,,,,
151183,1564214533868,10,2.27,1.09,0.61,1.42,1.15,0.96,0.06,0.33,-4,-5,-5,0.96,6880,16,91,38,39,862,370.0,576,462,60,124.0,149,1,310,206,55,0,0,380,486,-992,365,-5.59,,,,,,,,,,,,
151203,1564214533888,10,2.26,1.1,0.61,1.42,1.15,0.94,0.07,0.32,-3,-3,-6,0.94,6850,16,92,38,40,864,367.0,591,462,60,124.0,149,1,317,207,55,0,0,374,0,-6656,363,-5.59,,,,,,,,,,,,
151223,1564214533908,7,2.27,1.09,0.61,1.42,1.15,0.95,0.02,0.3,-4,-4,-5,0.95,6855,16,92,38,40,867,365.0,582,467,60,123.0,147,1,317,207,53,0,0,372,-6405,257,360,-5.59,,,,,,,,,,,,
151243,1564214533928,11,2.26,1.09,0.61,1.43,1.16,0.99,-0.02,0.37,-4,-3,-4,0.99,6878,16,91,38,41,867,363.0,573,461,60,125.0,147,1,324,209,53,0,0,371,3082,-1268,359,-5.59,44.680695,10.022434,37.71,179.1,0,0.0,-1,0.0,0.0,0,0.58,2.5207
151263,1564214533948,7,2.27,1.1,0.61,1.42,1.15,0.95,0.03,0.35,-3,-2,-5,0.95,6888,16,92,38,41,868,360.0,577,468,60,123.0,147,1,324,209,53,0,0,369,-14707,-1268,355,-5.59,,,,,,,,,,,,
151283,1564214533968,12,2.26,1.1,0.61,1.43,1.15,1.03,-0.01,0.45,-4,-4,-5,1.03,6880,16,91,38,41,873,357.0,573,465,60,124.0,147,1,324,209,53,0,0,364,-6640,-1268,353,-5.59,,,,,,,,,,,,
151303,1564214533988,9,2.27,1.1,0.61,1.42,1.15,1.0,0.07,0.37,-3,-2,-6,1.0,6913,16,91,38,42,877,355.0,575,468,60,123.0,147,1,332,210,53,0,0,363,3183,2790,349,-5.59,,,,,,,,,,,,
151323,1564214534000,10,2.28,1.09,0.61,1.43,1.15,1.02,0.02,0.4,-3,-2,-5,1.02,6900,16,92,38,42,881,350.0,578,466,60,124.0,147,1,332,209,53,0,0,360,-30454,4104,348,-5.59,,,,,,,,,,,,
151343,1564214534020,10,2.27,1.09,0.61,1.42,1.15,1.07,0.03,0.45,-3,-3,-5,1.07,6815,16,91,38,42,885,348.0,563,461,60,125.0,158,1,331,210,55,0,0,360,-1246,-29302,343,-5.59,44.680695,10.022448,36.47,179.1,0,0.0,-1,0.0,0.0,0,0.58,2.5224
151363,1564214534040,11,2.28,1.09,0.6,1.42,1.16,1.03,0.03,0.47,-3,-1,-5,1.03,6734,16,91,38,42,890,347.0,568,467,60,123.0,158,1,331,209,55,0,0,355,8841,-29978,343,-5.59,,,,,,,,,,,,
151383,1564214534060,9,2.27,1.09,0.61,1.43,1.15,1.06,0.1,0.44,-3,-1,-4,1.07,6660,16,91,38,42,898,348.0,568,461,60,123.0,158,1,331,209,55,0,0,357,-1246,3302,342,-5.59,,,,,,,,,,,,
151403,1564214534080,12,2.27,1.09,0.6,1.42,1.16,0.97,0.03,0.48,-3,-2,-4,0.97,6569,15,91,38,43,900,346.0,565,466,60,124.0,158,1,337,211,55,0,0,357,-30438,3183,339,-5.59,,,,,,,,,,,,
151423,1564214534108,11,2.27,1.09,0.61,1.43,1.15,0.96,0.1,0.48,-3,-1,-5,0.97,6505,15,92,38,44,903,343.0,572,466,60,123.0,158,1,343,211,55,0,0,353,-14714,2060,338,-5.59,,,,,,,,,,,,
151443,1564214534128,10,2.27,1.09,0.6,1.42,1.16,1.04,0.14,0.37,-3,-2,-5,1.05,6441,15,91,38,44,909,342.0,563,464,60,125.0,153,1,343,212,52,0,0,348,-31206,-1246,335,-5.59,44.680695,10.02246,35.31,179.1,0,0.0,-1,0.0,0.0,0,0.58,2.524
151463,1564214534148,11,2.27,1.1,0.61,1.43,1.15,1.04,0.08,0.36,-3,-3,-3,1.05,6394,15,91,38,44,915,338.0,539,464,60,125.0,153,1,343,211,52,0,0,346,-31222,8841,334,-5.59,,,,,,,,,,,,
151483,1564214534168,12,2.28,1.09,0.61,1.42,1.16,0.94,0.07,0.38,-3,-3,-3,0.94,6390,15,91,38,45,920,335.0,547,467,60,123.0,153,1,350,213,52,0,0,341,3346,6870,330,-5.59,,,,,,,,,,,,
151503,1564214534188,10,2.27,1.1,0.61,1.43,1.16,1.0,0.08,0.4,-3,-2,-5,1.0,6381,15,91,38,45,925,333.0,543,466,60,123.0,153,1,349,213,52,0,0,340,-6528,-10554,328,-5.59,,,,,,,,,,,,
151523,1564214534207,10,2.27,1.1,0.61,1.43,1.16,1.03,0.16,0.27,-2,-1,-5,1.04,6364,15,91,38,45,932,330.0,545,462,60,123.0,156,1,349,213,51,0,0,341,175,-31206,326,-5.59,,,,,,,,,,,,
151543,1564214534227,10,2.29,1.09,0.61,1.43,1.16,1.01,0.13,0.23,-2,-1,-3,1.02,6347,15,91,38,46,939,329.0,533,463,60,125.0,156,1,356,213,51,0,0,335,-20736,3346,320,-5.59,44.680695,10.022472,34.38,179.0,0,0.0,-1,0.0,0.0,0,0.58,2.5257
151563,1564214534247,11,2.28,1.1,0.61,1.42,1.16,0.97,0.09,0.28,-3,-1,-3,0.97,6308,15,91,38,46,944,326.0,533,465,60,123.0,156,1,356,214,51,0,0,335,165,-32559,320,-5.59,,,,,,,,,,,,
151583,1564214534267,12,2.29,1.1,0.61,1.42,1.15,0.96,0.06,0.38,-3,-1,-3,0.96,6264,15,91,38,46,949,325.0,530,466,60,123.0,156,1,355,214,51,0,0,332,-23296,175,319,-5.59,,,,,,,,,,,,
151603,1564214534287,15,2.28,1.09,0.6,1.42,1.16,1.04,0.05,0.43,-3,-1,-4,1.04,6169,15,91,38,47,957,321.0,523,466,60,123.0,156,1,361,215,51,0,0,331,-25856,175,318,-5.59,,,,,,,,,,,,
151623,1564214534307,15,2.28,1.09,0.61,1.43,1.15,1.11,0.04,0.43,-3,-2,-4,1.11,6099,15,91,38,47,965,320.0,517,464,60,124.0,156,1,360,215,49,0,0,327,150,175,313,-5.59,,,,,,,,,,,,
151643,1564214534327,10,2.29,1.1,0.6,1.43,1.15,1.15,0.04,0.42,-3,-4,-6,1.15,6064,15,91,38,47,971,316.0,508,462,60,125.0,156,1,360,215,49,0,0,324,140,-23296,313,-5.59,44.680695,10.022483,33.08,179.0,0,0.0,-1,0.0,0.0,0,0.59,2.5274
151663,1564214534347,11,2.29,1.09,0.61,1.42,1.16,1.19,0.02,0.41,-3,-5,-7,1.19,6028,15,91,38,48,976,314.0,513,465,60,123.0,156,1,363,220,49,0,0,322,135,170,311,-5.59,,,,,,,,,,,,
151683,1564214534367,14,2.3,1.09,0.61,1.42,1.16,1.25,-0.0,0.42,-3,-6,-7,1.25,5963,15,91,38,48,984,310.0,507,466,60,123.0,156,1,359,220,49,0,0,322,125,160,308,-5.59,,,,,,,,,,,,
151703,1564214534387,14,2.3,1.09,0.61,1.42,1.16,1.3,0.0,0.42,-3,-8,-8,1.3,5952,15,91,38,48,992,308.0,497,461,60,124.0,156,1,358,226,49,0,0,319,120,-28416,302,-5.59,,,,,,,,,,,,
151723,1564214534409,15,2.3,1.1,0.61,1.42,1.16,1.35,0.02,0.43,-3,-9,-8,1.35,5926,15,91,38,49,999,307.0,501,461,60,124.0,165,1,359,225,50,0,0,317,30720,-29696,302,-5.59,,,,,,,,,,,,
151743,1564214534429,14,2.31,1.09,0.61,1.43,1.16,1.35,0.04,0.47,-2,-10,-8,1.35,5866,15,91,38,49,1003,306.0,501,463,60,123.0,165,1,354,230,50,0,0,311,115,135,302,-5.59,44.680695,10.022494,32.07,179.0,0,0.0,-1,0.0,0.0,0,0.59,2.529
151763,1564214534449,12,2.31,1.1,0.61,1.42,1.15,1.31,0.04,0.57,-3,-9,-7,1.31,5812,15,91,38,50,1009,303.0,498,460,60,123.0,165,1,353,230,50,0,0,313,28160,32000,299,-5.59,,,,,,,,,,,,
151783,1564214534469,10,2.31,1.1,0.61,1.43,1.16,1.29,0.02,0.63,-3,-9,-6,1.29,5799,15,91,38,51,1015,301.0,483,466,60,124.0,165,1,355,230,50,0,0,310,26880,32000,298,-5.59,,,,,,,,,,,,
151803,1564214534489,10,2.29,1.09,0.61,1.42,1.15,1.29,0.06,0.5,-3,-9,-5,1.29,5721,15,91,38,51,1020,299.0,474,465,60,124.0,165,1,348,234,50,0,0,308,24320,115,295,-5.59,,,,,,,,,,,,
151823,1564214534507,14,2.29,1.1,0.61,1.43,1.16,1.33,0.09,0.42,-3,-8,-5,1.34,5681,15,91,38,52,1021,296.0,471,464,60,123.0,175,1,349,238,51,0,0,304,90,29440,292,-5.59,,,,,,,,,,,,
151843,1564214534527,13,2.3,1.09,0.61,1.42,1.16,1.33,0.09,0.42,-2,-8,-6,1.33,5592,15,91,38,53,1021,295.0,478,462,60,124.0,175,1,346,241,51,0,0,301,23040,29440,291,-5.59,44.680695,10.022506,30.78,179.0,0,0.0,-1,0.0,0.0,0,0.59,2.5307
151863,1564214534547,11,2.31,1.09,0.61,1.42,1.17,1.21,0.05,0.43,-2,-6,-5,1.21,5540,15,91,38,54,1019,291.0,469,464,60,123.0,175,1,345,244,51,0,0,298,20480,26880,288,-5.59,,,,,,,,,,,,
151883,1564214534567,12,2.29,1.1,0.61,1.43,1.16,1.23,0.05,0.31,-2,-7,-4,1.23,5492,15,91,38,55,1016,289.0,451,461,60,124.0,175,1,339,244,51,0,0,296,41,95,286,-5.59,,,,,,,,,,,,
151903,1564214534587,13,2.29,1.1,0.61,1.43,1.17,1.27,0.07,0.36,-2,-6,-5,1.27,5444,15,91,38,56,1012,284.0,461,462,60,124.0,175,1,333,246,51,0,0,292,250,23040,282,-5.59,,,,,,,,,,,,
151923,1564214534607,11,2.29,1.09,0.6,1.42,1.17,1.16,0.05,0.36,-1,-5,-4,1.16,5464,15,91,38,57,1006,282.0,458,467,60,123.0,182,1,332,248,51,0,0,289,1886,0,279,-5.59,,,,,,,,,,,,
151943,1564214534627,11,2.3,1.1,0.61,1.43,1.17,1.21,0.07,0.28,-2,-5,-4,1.21,5437,15,91,38,57,995,281.0,448,459,60,124.0,182,1,330,248,51,0,0,288,24064,0,279,-5.59,44.680695,10.022516,29.98,179.0,0,0.0,-1,0.0,0.0,0,0.59,2.5324
151963,1564214534647,10,2.29,1.09,0.61,1.43,1.16,1.11,0.1,0.37,-1,-3,-3,1.12,5392,15,91,38,58,984,279.0,455,461,60,123.0,182,1,323,250,51,0,0,287,-1534,41,276,-5.59,,,,,,,,,,,,
151983,1564214534667,10,2.29,1.1,0.61,1.42,1.16,1.14,0.11,0.24,-1,-4,-3,1.15,5329,15,91,38,58,976,277.0,442,463,60,124.0,182,1,316,250,51,0,0,285,30208,1886,273,-5.59,,,,,,,,,,,,
152003,1564214534687,4,2.3,1.09,0.61,1.43,1.16,1.08,0.12,0.38,-1,-3,-3,1.08,5255,15,91,38,59,964,275.0,438,464,60,122.0,182,1,306,253,51,0,0,282,-1527,250,272,-5.59,,,,,,,,,,,,
152023,1564214534707,8,2.29,1.1,0.61,1.43,1.16,1.1,0.1,0.26,-1,-2,-3,1.11,5222,15,91,38,60,944,274.0,446,461,60,124.0,184,1,300,256,50,0,0,281,2414,630,271,-5.59,,,,,,,,,,,,
152043,1564214534727,2,2.29,1.09,0.6,1.42,1.17,1.05,0.04,0.42,-1,-2,-3,1.05,5149,15,91,38,61,924,272.0,441,468,60,122.0,184,1,288,262,50,0,0,280,250,-1534,270,-5.59,44.680695,10.022527,28.43,178.9,0,0.0,-1,0.0,0.0,0,0.59,2.534
152063,1564214534747,3,2.3,1.1,0.61,1.43,1.16,1.07,0.05,0.36,-1,-3,-3,1.07,5106,15,91,38,61,912,272.0,421,458,60,124.0,184,1,283,262,50,0,0,279,250,24064,271,-5.59,,,,,,,,,,,,
152083,1564214534767,2,2.3,1.1,0.6,1.42,1.16,0.99,0.09,0.3,-1,-1,-2,1.0,5092,15,91,38,62,901,270.0,435,467,60,123.0,184,1,281,270,50,0,0,276,-1,630,269,-5.59,,,,,,,,,,,,
152103,1564214534787,1,2.29,1.1,0.61,1.43,1.17,1.05,0.13,0.34,-1,-2,-3,1.05,5111,15,91,38,62,884,268.0,420,463,60,123.0,184,1,284,269,50,0,0,275,-1,-1527,267,-5.59,,,,,,,,,,,,
152123,1564214534809,2,2.3,1.09,0.61,1.43,1.16,1.04,0.12,0.32,-1,-4,-2,1.04,5088,15,91,38,63,868,267.0,419,463,60,124.0,199,1,281,276,53,0,0,273,-1,28160,266,-5.59,,,,,,,,,,,,
152143,1564214534829,-0,2.3,1.1,0.61,1.43,1.17,0.98,0.04,0.42,-1,-1,-2,0.98,5103,15,91,38,64,862,269.0,434,465,60,123.0,199,1,283,282,53,0,0,270,-1,28160,266,-5.59,44.680695,10.022536,27.54,178.9,0,0.0,-1,0.0,0.0,0,0.59,2.5357
152163,1564214534849,2,2.3,1.09,0.62,1.42,1.16,0.99,0.06,0.49,-1,-1,-3,0.99,5165,15,91,38,64,858,268.0,421,461,60,123.0,199,1,289,282,53,0,0,274,-1,-1281,267,-5.59,,,,,,,,,,,,
152183,1564214534869,-1,2.31,1.09,0.61,1.43,1.16,0.93,0.02,0.46,-1,-1,-2,0.93,5185,15,91,38,64,858,269.0,430,466,60,123.0,199,1,292,282,53,0,0,275,-1,2414,267,-5.59,,,,,,,,,,,,
152203,1564214534889,1,2.31,1.1,0.61,1.43,1.16,0.92,0.1,0.56,-1,-3,-3,0.92,5172,15,91,38,64,859,268.0,425,460,60,123.0,199,1,290,282,53,0,0,275,-1,250,267,-5.59,,,,,,,,,,,,
152223,1564214534909,-0,2.31,1.09,0.61,1.43,1.17,0.83,0.08,0.42,-1,-1,-1,0.84,5178,15,91,38,64,865,267.0,428,466,60,124.0,199,1,290,209,53,0,0,274,-1,28160,266,-5.59,,,,,,,,,,,,
152243,1564214534929,-2,2.32,1.1,0.61,1.42,1.17,0.86,0.13,0.56,-0,-2,-2,0.87,5159,15,91,38,64,871,267.0,431,463,60,124.0,206,1,289,282,55,0,0,275,-1,-1527,267,-5.59,44.680695,10.022546,26.91,178.9,0,0.0,-1,0.0,0.0,0,0.59,2.5374
152263,1564214534949,4,2.32,1.1,0.62,1.42,1.17,0.81,0.13,0.46,-0,-1,-1,0.82,5149,15,91,38,65,883,269.0,425,467,60,124.0,206,1,287,290,55,0,0,276,-1,250,268,-5.59,,,,,,,,,,,,
152283,1564214534969,-1,2.33,1.1,0.61,1.43,1.16,0.81,0.07,0.57,-0,1,-0,0.81,5114,15,91,38,64,894,270.0,430,462,60,124.0,206,1,284,290,55,0,0,276,-1,-1534,270,-5.59,,,,,,,,,,,,
152303,1564214534989,3,2.32,1.1,0.61,1.43,1.16,0.84,0.05,0.63,-0,-1,-2,0.84,5136,15,91,38,65,902,269.0,422,461,60,124.0,206,1,286,282,55,0,0,276,-1,630,269,-5.59,,,,,,,,,,,,
152323,1564214535001,0,2.32,1.1,0.61,1.42,1.17,0.78,-0.01,0.57,-0,-0,0,0.78,5149,15,91,38,65,907,269.0,427,466,60,122.0,208,1,287,290,56,0,0,276,-1,-1534,269,-5.59,,,,,,,,,,,,
152343,1564214535021,1,2.32,1.1,0.62,1.43,1.16,0.81,0.11,0.67,0,-2,-1,0.82,5153,15,91,38,65,913,270.0,418,458,60,123.0,208,1,287,282,56,0,0,275,-1,-1534,270,-5.59,44.680695,10.022555,26.77,178.9,0,0.0,-1,0.0,0.0,0,0.59,2.5391
152363,1564214535041,-1,2.33,1.1,0.62,1.43,1.17,0.71,0.07,0.51,0,1,0,0.72,5185,15,91,38,65,919,270.0,428,466,60,124.0,208,1,290,289,56,0,0,277,-1,-1534,270,-5.59,,,,,,,,,,,,
152383,1564214535061,-0,2.33,1.1,0.61,1.43,1.16,0.76,0.13,0.62,1,-1,-0,0.77,5191,15,91,38,65,920,270.0,431,461,60,123.0,208,1,291,289,56,0,0,275,-1,30208,270,-5.59,,,,,,,,,,,,
152403,1564214535081,0,2.32,1.1,0.62,1.42,1.17,0.71,0.07,0.51,1,0,1,0.71,5195,15,91,38,65,921,271.0,440,466,60,124.0,208,1,292,289,56,0,0,276,-1,-1534,270,-5.59,,,,,,,,,,,,
152423,1564214535109,0,2.32,1.09,0.61,1.43,1.16,0.75,0.12,0.59,1,0,1,0.76,5214,15,91,38,65,919,271.0,437,462,60,123.0,210,1,293,288,57,0,0,276,-1,250,271,-5.59,,,,,,,,,,,,
152443,1564214535129,0,2.32,1.09,0.61,1.43,1.16,0.73,0.1,0.47,1,1,1,0.74,5243,15,91,38,64,918,271.0,437,465,60,124.0,210,1,297,281,57,0,0,277,-1,24064,271,-5.59,44.680695,10.022564,26.99,178.9,0,0.0,-1,0.0,0.0,0,0.59,2.5407
152463,1564214535149,-1,2.33,1.1,0.61,1.43,1.16,0.77,0.13,0.58,1,-1,1,0.78,5228,15,91,38,64,916,272.0,438,461,60,123.0,210,1,295,281,57,0,0,278,-1,30208,272,-5.59,,,,,,,,,,,,
152483,1564214535169,2,2.34,1.1,0.61,1.42,1.17,0.76,0.13,0.48,1,-0,2,0.77,5188,15,91,38,65,915,273.0,437,466,60,123.0,210,1,291,289,57,0,0,279,-1281,-1534,273,-5.59,,,,,,,,,,,,
152503,1564214535189,-2,2.34,1.1,0.62,1.42,1.17,0.82,0.09,0.57,1,0,2,0.82,5173,15,91,38,64,912,273.0,436,459,60,123.0,210,1,290,282,57,0,0,279,250,250,273,-5.59,,,,,,,,,,,,
152523,1564214535210,4,2.33,1.1,0.62,1.42,1.17,0.84,0.03,0.49,0,-2,1,0.84,5192,15,91,38,64,908,272.0,421,462,60,125.0,210,1,292,282,57,0,0,279,-1281,250,272,-5.59,,,,,,,,,,,,
152543,1564214535230,-1,2.33,1.1,0.62,1.43,1.15,0.79,0.03,0.5,1,0,2,0.79,5199,15,91,38,64,905,272.0,443,463,60,123.0,202,1,292,289,55,0,0,278,-1281,-1534,272,-5.59,44.680695,10.022573,27.19,178.9,0,0.0,-1,0.0,0.0,0,0.59,2.5424
152563,1564214535250,4,2.34,1.11,0.61,1.43,1.16,0.83,0.0,0.54,1,-2,1,0.83,5182,15,91,38,65,904,272.0,423,461,60,125.0,202,1,290,282,55,0,0,277,-1281,630,272,-5.59,,,,,,,,,,,,
152583,1564214535270,2,2.35,1.1,0.62,1.42,1.17,0.77,-0.03,0.55,1,1,3,0.77,5228,15,91,38,64,901,273.0,440,463,60,123.0,202,1,295,288,55,0,0,276,-1,30208,273,-5.59,,,,,,,,,,,,
152603,1564214535290,6,2.35,1.1,0.62,1.43,1.17,0.8,-0.05,0.59,1,-0,2,0.8,5262,15,91,38,64,896,272.0,429,460,60,124.0,202,1,299,280,55,0,0,276,-1,-1534,272,-5.59,,,,,,,,,,,,
152623,1564214535308,2,2.36,1.1,0.62,1.42,1.16,0.74,-0.13,0.61,1,1,2,0.75,5277,15,91,38,64,893,272.0,443,463,60,123.0,209,1,300,288,57,0,0,277,-1,630,271,-5.59,,,,,,,,,,,,
152643,1564214535328,8,2.36,1.1,0.62,1.43,1.16,0.76,-0.1,0.59,2,-0,1,0.77,5225,15,91,38,64,890,271.0,426,459,60,123.0,209,1,295,281,57,0,0,276,-1,-1534,271,-5.59,44.680698,10.022583,27.44,178.9,0,0.0,-1,0.0,0.0,0,0.59,2.544
152663,1564214535348,4,2.37,1.1,0.62,1.43,1.16,0.71,-0.14,0.53,2,2,2,0.72,5168,15,91,38,64,887,271.0,435,462,60,123.0,209,1,290,282,57,0,0,275,-1,30208,271,-5.59,,,,,,,,,,,,
152683,1564214535368,8,2.37,1.09,0.62,1.43,1.17,0.8,-0.12,0.54,2,-1,1,0.81,5152,15,91,38,64,884,269.0,428,462,60,125.0,209,1,288,282,57,0,0,276,-1,250,269,-5.59,,,,,,,,,,,,
152703,1564214535388,5,2.37,1.1,0.62,1.42,1.16,0.72,-0.11,0.46,2,2,2,0.73,5127,15,91,38,65,882,268.0,425,465,60,124.0,209,1,285,290,57,0,0,273,-1,250,268,-5.59,,,,,,,,,,,,
152723,1564214535408,6,2.37,1.09,0.61,1.44,1.16,0.8,-0.11,0.52,3,2,2,0.81,5062,15,91,38,65,881,268.0,428,466,60,123.0,209,1,278,291,57,0,0,271,-1,2414,268,-5.59,,,,,,,,,,,,
152743,1564214535428,8,2.36,1.1,0.62,1.43,1.17,0.85,-0.13,0.5,3,1,3,0.86,5037,15,91,38,65,881,265.0,415,462,60,124.0,205,1,276,291,55,0,0,270,-1,250,265,-5.59,44.680698,10.022593,26.99,178.9,0,0.0,-1,0.0,0.0,0,0.59,2.5457
152763,1564214535448,7,2.37,1.1,0.62,1.43,1.16,0.8,-0.1,0.5,3,2,4,0.8,5005,15,91,38,66,878,264.0,417,467,60,124.0,205,1,275,298,55,0,0,269,-41,250,264,-5.59,,,,,,,,,,,,
152783,1564214535468,7,2.37,1.1,0.62,1.43,1.16,0.88,-0.1,0.57,3,-1,3,0.89,5000,15,91,38,65,876,263.0,411,456,60,124.0,205,1,273,291,55,0,0,265,14337,-1281,263,-5.59,,,,,,,,,,,,
152803,1564214535488,9,2.38,1.1,0.62,1.43,1.17,0.91,-0.1,0.45,3,-1,4,0.92,4985,15,91,38,66,874,261.0,412,461,60,123.0,205,1,271,297,55,0,0,263,506,-1,261,-5.59,,,,,,,,,,,,
152823,1564214535508,6,2.39,1.1,0.62,1.43,1.17,0.81,-0.09,0.43,3,1,4,0.82,4972,15,91,38,66,873,260.0,422,467,60,123.0,215,1,270,297,56,0,0,262,-1281,-1,260,-5.59,,,,,,,,,,,,
152843,1564214535528,8,2.39,1.1,0.61,1.43,1.16,0.85,-0.11,0.46,3,1,4,0.86,4909,15,91,38,66,871,259.0,409,461,60,123.0,215,1,265,297,56,0,0,260,-1,-1,259,-5.59,44.680698,10.022602,26.84,178.8,0,0.0,-1,0.0,0.0,0,0.59,2.5474
152863,1564214535548,6,2.39,1.1,0.61,1.43,1.16,0.88,-0.1,0.44,4,-1,4,0.89,4879,15,91,38,67,869,256.0,396,458,60,124.0,215,1,262,296,56,0,0,260,-214,-1,256,-5.59,,,,,,,,,,,,
152883,1564214535568,8,2.39,1.1,0.61,1.43,1.17,0.89,-0.1,0.41,4,-1,5,0.9,4831,15,91,38,67,871,255.0,393,461,60,125.0,215,1,258,302,56,0,0,258,10818,-1,255,181.28,,,,,,,,,,,,
152903,1564214535588,10,2.39,1.1,0.61,1.44,1.16,0.82,-0.12,0.42,4,1,5,0.83,4813,15,91,38,67,871,254.0,413,466,60,123.0,215,1,257,302,56,0,0,255,-1494,-1,254,-5.59,,,,,,,,,,,,
152923,1564214535608,7,2.38,1.1,0.61,1.44,1.17,0.82,-0.14,0.42,4,2,4,0.83,4768,15,91,38,67,868,252.0,404,465,60,123.0,214,1,253,301,54,0,0,255,10812,-41,252,-5.59,,,,,,,,,,,,
152943,1564214535628,5,2.4,1.1,0.62,1.44,1.16,0.83,-0.16,0.45,4,1,4,0.84,4734,15,91,38,67,866,251.0,393,466,60,122.0,214,1,250,300,54,0,0,251,15360,506,251,-5.59,44.680698,10.022612,25.99,178.8,0,0.0,-1,0.0,0.0,0,0.6,2.549
152963,1564214535648,4,2.4,1.1,0.62,1.43,1.17,0.86,-0.16,0.51,4,-0,5,0.87,4730,15,91,38,67,863,249.0,384,461,60,125.0,214,1,250,300,54,0,0,249,23482,-10440,249,-5.59,,,,,,,,,,,,
152983,1564214535668,5,2.4,1.1,0.62,1.43,1.16,0.86,-0.15,0.51,5,-1,5,0.87,4707,15,91,38,67,860,248.0,376,460,60,125.0,214,1,248,300,54,0,0,248,-17920,506,248,-5.59,,,,,,,,,,,,
153003,1564214535688,6,2.41,1.1,0.62,1.43,1.16,0.86,-0.12,0.47,5,-1,6,0.87,4685,15,91,38,67,855,247.0,381,459,60,125.0,214,1,246,299,54,0,0,247,250,-1281,246,-5.59,,,,,,,,,,,,
153023,1564214535710,7,2.42,1.1,0.61,1.44,1.16,0.88,-0.13,0.45,5,-1,6,0.89,4660,15,91,38,68,849,245.0,378,461,60,125.0,214,1,245,299,54,0,0,244,13468,-1,245,-5.59,,,,,,,,,,,,
153043,1564214535730,8,2.42,1.1,0.62,1.44,1.17,0.88,-0.13,0.39,5,0,6,0.89,4647,15,91,38,67,846,245.0,389,463,60,124.0,220,1,243,299,54,0,0,242,250,16896,245,-5.59,44.680698,10.02262,24.96,178.8,0,0.0,-1,0.0,0.0,0,0.6,2.5507
153063,1564214535750,7,2.44,1.1,0.62,1.43,1.17,0.9,-0.12,0.37,5,2,7,0.9,4626,15,91,38,67,842,244.0,383,465,60,124.0,220,1,241,298,54,0,0,242,-1483,-1,244,-5.59,,,,,,,,,,,,
153083,1564214535770,6,2.44,1.1,0.62,1.43,1.16,0.88,-0.17,0.4,5,3,7,0.9,4553,15,91,38,67,837,245.0,382,465,60,123.0,220,1,234,297,54,0,0,241,13602,16896,245,-5.59,,,,,,,,,,,,
153103,1564214535790,7,2.44,1.1,0.62,1.43,1.16,0.86,-0.2,0.43,6,5,7,0.88,4535,15,91,38,67,833,242.0,380,463,60,123.0,220,1,232,296,54,0,0,241,8704,-1494,242,-5.59,,,,,,,,,,,,
153123,1564214535810,8,2.45,1.1,0.62,1.44,1.17,0.83,-0.2,0.42,6,6,7,0.85,4522,15,91,38,67,831,242.0,372,465,60,123.0,206,1,231,296,50,0,0,237,-1494,10812,242,-5.59,,,,,,,,,,,,
153143,1564214535830,5,2.47,1.1,0.62,1.43,1.16,0.81,-0.19,0.38,7,6,8,0.83,4468,15,91,38,67,829,242.0,374,468,60,123.0,206,1,227,296,50,0,0,237,10824,16896,242,-5.59,44.680695,10.022629,24.41,178.8,0,0.0,-1,0.0,0.0,0,0.6,2.5524
153163,1564214535850,7,2.47,1.1,0.62,1.44,1.16,0.83,-0.21,0.39,7,6,8,0.85,4447,15,91,38,67,827,241.0,371,468,60,124.0,206,1,225,295,50,0,0,235,250,15360,241,181.28,,,,,,,,,,,,
153183,1564214535870,6,2.48,1.1,0.62,1.43,1.17,0.84,-0.21,0.39,8,6,8,0.87,4476,15,91,38,67,825,241.0,369,465,60,123.0,206,1,227,296,50,0,0,230,-1496,-1494,239,-5.59,,,,,,,,,,,,
153203,1564214535890,6,2.49,1.1,0.61,1.44,1.17,0.87,-0.21,0.36,8,7,9,0.9,4438,15,91,38,67,823,240.0,369,468,60,124.0,206,1,224,295,50,0,0,231,19968,250,240,-5.59,,,,,,,,,,,,
153223,1564214535910,6,2.49,1.09,0.61,1.44,1.16,0.88,-0.19,0.35,9,7,10,0.9,4434,15,91,38,67,822,238.0,366,468,60,124.0,206,1,226,295,50,0,0,228,-1530,15360,238,-5.59,,,,,,,,,,,,
153243,1564214535930,5,2.5,1.1,0.62,1.43,1.16,0.9,-0.19,0.3,9,7,11,0.92,4399,15,91,38,67,823,237.0,375,468,60,124.0,210,1,221,295,50,0,0,228,15360,-1445,237,-5.59,44.680695,10.022637,23.8,178.8,0,0.0,-1,0.0,0.0,0,0.6,2.554
153263,1564214535950,4,2.51,1.11,0.62,1.43,1.16,0.93,-0.21,0.29,9,6,13,0.95,4392,15,91,38,67,824,236.0,366,469,60,124.0,210,1,220,294,50,0,0,225,250,23482,236,-5.59,,,,,,,,,,,,
153283,1564214535970,3,2.54,1.09,0.62,1.43,1.17,0.93,-0.22,0.29,10,5,13,0.96,4416,15,91,38,67,826,235.0,362,465,60,124.0,210,1,222,295,50,0,0,224,-1532,13468,235,-5.59,,,,,,,,,,,,
153303,1564214535990,3,2.54,1.1,0.62,1.43,1.16,0.96,-0.22,0.31,10,4,14,0.98,4344,15,91,38,67,828,235.0,356,462,60,125.0,210,1,216,293,50,0,0,224,1210,250,235,-5.59,,,,,,,,,,,,
153323,1564214536002,3,2.55,1.1,0.62,1.43,1.17,0.91,-0.22,0.31,11,3,15,0.94,4346,15,91,38,67,830,235.0,346,462,60,125.0,210,1,217,293,50,0,0,224,-17920,-1445,235,-5.59,,,,,,,,,,,,
153343,1564214536022,2,2.57,1.09,0.61,1.43,1.17,0.92,-0.23,0.36,11,2,15,0.95,4337,15,91,38,67,831,236.0,348,456,60,124.0,204,1,216,293,48,0,0,223,250,13468,236,-5.59,44.680695,10.022646,23.37,178.8,0,0.0,-1,0.0,0.0,0,0.6,2.5557
153363,1564214536042,5,2.58,1.09,0.62,1.44,1.17,0.91,-0.23,0.37,12,2,16,0.94,4267,15,91,38,67,831,235.0,343,460,60,124.0,204,1,210,292,48,0,0,222,-1532,250,235,-5.59,,,,,,,,,,,,
153383,1564214536062,4,2.58,1.1,0.61,1.44,1.16,0.89,-0.26,0.4,13,2,16,0.93,4261,15,91,38,67,829,236.0,353,455,60,124.0,204,1,209,292,48,0,0,219,-1532,13468,236,-5.59,,,,,,,,,,,,
153403,1564214536082,1,2.58,1.1,0.61,1.43,1.16,0.88,-0.26,0.42,13,3,16,0.92,4275,15,91,38,67,827,236.0,357,466,60,123.0,204,1,211,292,48,0,0,219,1088,13468,236,-5.59,,,,,,,,,,,,
153423,1564214536106,0,2.58,1.1,0.62,1.43,1.17,0.89,-0.26,0.44,14,3,18,0.93,4239,15,91,38,67,824,236.0,348,466,60,124.0,194,1,208,291,46,0,0,218,16384,250,236,-5.59,,,,,,,,,,,,
153443,1564214536126,-1,2.57,1.1,0.62,1.43,1.17,0.89,-0.28,0.45,14,2,19,0.94,4254,15,92,38,67,821,235.0,340,463,60,125.0,194,1,209,292,46,0,0,217,250,250,235,181.28,44.680695,10.022654,22.75,178.8,0,0.0,-1,0.0,0.0,0,0.6,2.5574
153463,1564214536146,-1,2.58,1.1,0.62,1.43,1.16,0.88,-0.27,0.44,14,1,20,0.93,4281,15,91,38,68,819,235.0,342,460,60,124.0,194,1,213,225,46,0,0,219,250,13468,235,-5.59,,,,,,,,,,,,
153483,1564214536166,0,2.58,1.1,0.61,1.43,1.16,0.89,-0.28,0.44,15,0,20,0.93,4240,15,91,38,67,819,235.0,341,457,60,124.0,194,1,208,291,46,0,0,216,250,-1484,235,-5.59,,,,,,,,,,,,
153503,1564214536186,2,2.58,1.1,0.61,1.43,1.17,0.84,-0.3,0.46,15,1,19,0.9,4281,15,91,38,67,821,234.0,348,451,60,124.0,194,1,211,292,46,0,0,216,-1533,-25600,234,-5.59,,,,,,,,,,,,
153523,1564214536209,2,2.57,1.1,0.62,1.43,1.17,0.85,-0.3,0.5,15,2,19,0.9,4261,15,91,38,67,823,234.0,358,460,60,122.0,205,1,209,298,48,0,0,215,-1533,250,234,-5.59,,,,,,,,,,,,
153543,1564214536229,-2,2.58,1.1,0.62,1.44,1.16,0.87,-0.31,0.48,15,2,20,0.93,4243,15,91,38,68,826,234.0,346,470,60,124.0,205,1,210,298,48,0,0,217,-1533,13468,234,-5.59,44.680691,10.022661,22.67,178.8,0,0.0,-1,0.0,0.0,0,0.6,2.5591
153563,1564214536249,-1,2.56,1.09,0.61,1.42,1.16,0.85,-0.32,0.5,15,1,21,0.91,4277,15,91,38,68,833,234.0,345,464,60,125.0,205,1,213,298,48,0,0,218,-1533,250,234,-5.59,,,,,,,,,,,,
153583,1564214536269,1,2.58,1.09,0.61,1.44,1.16,0.85,-0.31,0.47,16,-1,22,0.91,4222,15,91,38,68,844,234.0,342,466,60,125.0,205,1,208,297,48,0,0,216,250,250,234,-5.59,,,,,,,,,,,,
153603,1564214536289,0,2.6,1.09,0.62,1.43,1.17,0.86,-0.3,0.49,16,-1,22,0.91,4249,15,91,38,68,855,233.0,341,457,60,125.0,205,1,210,291,48,0,0,218,250,-1483,233,-5.59,,,,,,,,,,,,
153623,1564214536309,2,2.6,1.1,0.61,1.44,1.17,0.83,-0.32,0.51,16,-0,21,0.89,4249,15,91,38,67,863,234.0,345,457,60,124.0,196,1,208,291,46,0,0,216,250,13468,234,-5.59,,,,,,,,,,,,
153643,1564214536329,1,2.6,1.1,0.61,1.43,1.16,0.85,-0.31,0.49,17,2,21,0.9,4212,15,91,38,67,874,235.0,350,460,60,122.0,196,1,205,297,46,0,0,215,250,-1484,235,-5.59,44.680691,10.022669,22.49,178.8,0,0.0,-1,0.0,0.0,0,0.6,2.5607
153663,1564214536349,-2,2.62,1.1,0.62,1.43,1.16,0.87,-0.31,0.49,17,2,22,0.92,4230,15,91,38,68,891,236.0,348,466,60,124.0,196,1,209,297,46,0,0,215,-1533,250,236,-5.59,,,,,,,,,,,,
153683,1564214536369,-1,2.62,1.1,0.61,1.43,1.16,0.85,-0.33,0.47,17,1,24,0.92,4251,15,92,38,68,908,237.0,341,463,60,125.0,196,1,211,298,46,0,0,215,966,-1484,237,181.28,,,,,,,,,,,,
153703,1564214536389,1,2.63,1.09,0.62,1.44,1.17,0.88,-0.35,0.51,18,-1,25,0.95,4218,15,91,38,68,916,237.0,342,462,60,124.0,196,1,208,297,46,0,0,215,-1533,-17920,237,-5.59,,,,,,,,,,,,
153723,1564214536409,4,2.63,1.1,0.62,1.43,1.17,0.86,-0.37,0.53,18,-2,24,0.94,4246,15,91,37,68,926,237.0,342,459,60,124.0,196,1,210,299,46,0,0,214,-14848,-1484,236,-5.59,,,,,,,,,,,,
153743,1564214536429,3,2.63,1.09,0.61,1.43,1.17,0.83,-0.38,0.53,18,-0,24,0.92,4267,15,91,37,68,938,236.0,347,456,60,124.0,203,1,212,300,48,0,0,213,250,250,236,-5.59,44.680691,10.022676,22.83,178.8,0,0.0,-1,0.0,0.0,0,0.6,2.5624
153763,1564214536449,1,2.63,1.09,0.62,1.44,1.17,0.84,-0.37,0.5,19,1,23,0.92,4222,15,91,37,68,949,235.0,352,467,60,123.0,203,1,208,299,48,0,0,212,250,13468,235,-5.59,,,,,,,,,,,,
153783,1564214536469,-0,2.63,1.1,0.62,1.43,1.17,0.87,-0.36,0.49,19,1,25,0.94,4237,15,92,37,68,952,236.0,347,467,60,124.0,203,1,209,224,48,0,0,213,250,-25600,236,-5.59,,,,,,,,,,,,
153803,1564214536489,1,2.62,1.1,0.62,1.44,1.17,0.87,-0.35,0.48,19,0,26,0.94,4250,15,92,37,68,954,236.0,341,462,60,125.0,203,1,211,300,48,0,0,213,250,250,236,-5.59,,,,,,,,,,,,
153823,1564214536509,2,2.62,1.1,0.62,1.44,1.16,0.86,-0.36,0.5,19,-2,27,0.93,4222,15,92,37,68,960,235.0,336,457,60,124.0,200,1,208,299,47,0,0,212,-1482,-25600,235,-5.59,,,,,,,,,,,,
153843,1564214536529,3,2.63,1.1,0.62,1.43,1.17,0.86,-0.39,0.5,19,-1,26,0.95,4222,15,91,37,68,966,234.0,350,457,60,124.0,200,1,208,299,47,0,0,213,-1482,250,234,-5.59,44.680687,10.022683,22.69,178.7,0,0.0,-1,0.0,0.0,0,0.6,2.564
153863,1564214536549,1,2.62,1.1,0.62,1.44,1.16,0.89,-0.4,0.51,19,-0,26,0.97,4160,15,91,37,68,970,232.0,348,456,60,123.0,200,1,203,298,47,0,0,212,-1482,13602,232,-5.59,,,,,,,,,,,,
153883,1564214536569,2,2.61,1.1,0.62,1.43,1.16,0.89,-0.39,0.49,19,-0,27,0.97,4164,15,92,37,68,974,232.0,348,468,60,124.0,200,1,204,298,47,0,0,213,-1482,8704,232,-5.59,,,,,,,,,,,,
153903,1564214536589,2,2.62,1.1,0.61,1.43,1.17,0.87,-0.36,0.47,19,-1,27,0.94,4145,15,92,37,68,978,234.0,334,470,60,125.0,200,1,202,297,47,0,0,212,-1482,-1483,234,181.28,,,,,,,,,,,,
153923,1564214536609,8,2.62,1.1,0.62,1.44,1.17,0.88,-0.32,0.48,19,-3,26,0.94,4119,15,92,37,68,982,231.0,330,457,60,124.0,199,1,199,297,46,0,0,208,13964,-1483,231,-5.59,,,,,,,,,,,,
153943,1564214536629,6,2.62,1.1,0.62,1.44,1.16,0.89,-0.32,0.5,20,-2,26,0.95,4151,15,91,37,68,983,230.0,342,459,60,123.0,199,1,202,298,46,0,0,209,250,250,230,-5.59,44.680687,10.022691,22.28,178.7,0,0.0,-1,0.0,0.0,0,0.6,2.5657
153963,1564214536649,4,2.62,1.1,0.62,1.44,1.17,0.91,-0.33,0.5,20,-1,26,0.97,4133,15,92,37,68,984,228.0,340,469,60,125.0,199,1,201,297,46,0,0,206,-1482,-1494,228,-5.59,,,,,,,,,,,,
153983,1564214536669,4,2.62,1.1,0.62,1.43,1.16,0.89,-0.36,0.5,20,-2,27,0.96,4101,15,92,37,68,984,228.0,326,461,60,124.0,199,1,198,297,46,0,0,205,12800,250,228,181.28,,,,,,,,,,,,
154003,1564214536689,8,2.62,1.1,0.62,1.43,1.17,0.89,-0.34,0.49,20,-2,26,0.95,4111,15,91,37,68,984,226.0,336,460,60,124.0,199,1,199,222,46,0,0,206,250,-1494,226,-5.59,,,,,,,,,,,,
154023,1564214536709,4,2.62,1.09,0.62,1.43,1.17,0.91,-0.33,0.46,20,-1,26,0.97,4054,15,92,37,68,983,224.0,341,470,60,122.0,199,1,194,221,46,0,0,204,-1480,18432,224,-5.59,,,,,,,,,,,,
154043,1564214536729,4,2.62,1.1,0.62,1.44,1.16,0.91,-0.34,0.47,20,-1,27,0.97,4069,15,92,37,68,983,224.0,326,467,60,125.0,200,1,195,296,45,0,0,204,14412,10318,224,181.28,44.680683,10.022696,22.1,178.7,0,0.0,-1,0.0,0.0,0,0.6,2.5674
154063,1564214536749,8,2.62,1.11,0.62,1.43,1.17,0.92,-0.34,0.48,20,-1,27,0.98,4027,15,92,37,68,985,222.0,326,463,60,125.0,200,1,192,295,45,0,0,204,14412,10318,222,-5.59,,,,,,,,,,,,
154083,1564214536769,3,2.62,1.1,0.62,1.43,1.17,0.9,-0.34,0.47,20,1,26,0.96,3985,15,91,37,68,987,223.0,328,453,60,123.0,200,1,189,294,45,0,0,202,14412,10318,224,-5.59,,,,,,,,,,,,
154103,1564214536789,3,2.63,1.1,0.62,1.44,1.17,0.9,-0.34,0.49,20,-0,27,0.96,4007,15,92,37,68,990,223.0,330,471,60,125.0,200,1,190,295,45,0,0,201,250,250,223,-5.59,,,,,,,,,,,,
154123,1564214536810,5,2.63,1.1,0.62,1.44,1.16,0.87,-0.35,0.48,20,-1,27,0.94,4002,15,92,37,68,993,221.0,321,455,60,124.0,199,1,190,295,44,0,0,203,250,-1530,221,-5.59,,,,,,,,,,,,
154143,1564214536830,-1,2.64,1.1,0.62,1.43,1.16,0.84,-0.34,0.45,20,1,27,0.91,3934,15,91,37,68,999,222.0,331,463,60,124.0,199,1,188,291,44,0,0,203,-1481,250,222,-5.59,44.680679,10.022703,21.54,178.6,0,0.0,-1,0.0,0.0,0,0.6,2.5691
154163,1564214536850,-1,2.64,1.1,0.61,1.43,1.17,0.86,-0.33,0.49,21,-0,27,0.93,3960,15,92,37,68,1005,222.0,319,470,60,125.0,199,1,189,217,44,0,0,204,-1481,19968,222,-5.59,,,,,,,,,,,,
154183,1564214536870,4,2.63,1.1,0.62,1.44,1.17,0.87,-0.35,0.51,20,-0,27,0.94,3991,15,92,37,68,1009,221.0,321,458,60,125.0,199,1,189,294,44,0,0,203,19456,-1496,221,-5.59,,,,,,,,,,,,
154203,1564214536890,-0,2.63,1.1,0.62,1.44,1.17,0.88,-0.36,0.54,20,0,27,0.95,3941,15,92,37,68,1013,221.0,327,455,60,123.0,199,1,188,291,44,0,0,201,19456,19968,221,-5.59,,,,,,,,,,,,
154223,1564214536909,0,2.63,1.1,0.62,1.43,1.16,0.87,-0.38,0.55,20,-1,27,0.94,3988,15,92,37,68,1017,220.0,326,472,60,126.0,200,1,189,294,44,0,0,199,250,1596,222,181.28,,,,,,,,,,,,
154243,1564214536929,2,2.64,1.1,0.62,1.44,1.17,0.86,-0.36,0.55,21,-1,26,0.94,3981,15,92,37,68,1022,222.0,322,456,60,124.0,200,1,189,293,44,0,0,198,-1481,-1496,222,-5.59,44.680676,10.02271,21.03,178.6,0,0.0,-1,0.0,0.0,0,0.6,2.5707
154263,1564214536949,-1,2.65,1.1,0.62,1.44,1.16,0.87,-0.36,0.55,21,-0,27,0.94,3951,15,92,37,68,1025,223.0,330,464,60,123.0,200,1,189,291,44,0,0,199,250,250,223,-5.59,,,,,,,,,,,,
154283,1564214536969,0,2.66,1.1,0.61,1.44,1.16,0.86,-0.37,0.56,21,-1,28,0.93,3998,15,92,37,68,1028,224.0,317,471,60,125.0,200,1,189,294,44,0,0,201,19456,-1496,224,181.28,,,,,,,,,,,,
154303,1564214536989,3,2.67,1.1,0.62,1.44,1.16,0.85,-0.38,0.57,21,-0,27,0.94,4044,15,92,37,68,1031,223.0,329,458,60,124.0,200,1,193,220,44,0,0,201,-1481,10318,223,-5.59,,,,,,,,,,,,
154323,1564214537001,-1,2.68,1.1,0.62,1.43,1.17,0.86,-0.39,0.57,21,0,27,0.94,3985,15,92,37,68,1036,223.0,336,465,60,124.0,200,1,189,295,44,0,0,201,250,10318,223,-5.59,,,,,,,,,,,,
154343,1564214537021,-1,2.69,1.1,0.62,1.44,1.16,0.86,-0.41,0.6,21,-1,28,0.95,3986,15,92,37,68,1040,223.0,320,464,60,125.0,197,1,189,294,44,0,0,202,250,19968,223,181.28,44.680672,10.022716,21.1,178.5,0,0.0,-1,0.0,0.0,0,0.6,2.5724
154363,1564214537041,3,2.68,1.09,0.61,1.44,1.17,0.82,-0.41,0.57,22,-1,27,0.91,4005,15,92,37,68,1042,223.0,320,455,60,124.0,197,1,190,295,44,0,0,205,-1481,10318,224,-5.59,,,,,,,,,,,,
154383,1564214537061,-2,2.67,1.1,0.61,1.43,1.17,0.82,-0.39,0.55,22,0,27,0.91,3980,15,92,37,68,1047,225.0,335,462,60,123.0,197,1,189,293,44,0,0,205,250,10318,225,-5.59,,,,,,,,,,,,
154403,1564214537091,0,2.67,1.1,0.62,1.43,1.16,0.84,-0.38,0.57,22,-1,28,0.92,4003,15,92,37,68,1054,224.0,326,471,60,125.0,197,1,190,295,44,0,0,202,250,18432,224,181.28,,,,,,,,,,,,
154423,1564214537111,3,2.67,1.09,0.62,1.44,1.17,0.83,-0.37,0.58,22,-0,28,0.9,4048,15,92,37,68,1060,225.0,323,457,60,125.0,200,1,194,295,45,0,0,202,250,10318,225,-5.59,,,,,,,,,,,,
154443,1564214537131,-0,2.67,1.1,0.62,1.44,1.16,0.85,-0.35,0.56,23,1,28,0.92,3993,15,92,37,68,1065,225.0,337,456,60,123.0,200,1,189,294,45,0,0,200,250,-1494,225,-5.59,44.680668,10.022721,21.49,178.5,0,0.0,-1,0.0,0.0,0,0.61,2.574
154463,1564214537151,0,2.67,1.1,0.62,1.43,1.17,0.86,-0.37,0.55,23,1,29,0.93,4046,15,92,37,68,1069,225.0,327,470,60,125.0,200,1,193,295,45,0,0,200,250,10824,225,181.28,,,,,,,,,,,,
154483,1564214537171,4,2.67,1.1,0.62,1.43,1.17,0.84,-0.36,0.55,23,0,29,0.92,4050,15,92,37,68,1069,226.0,330,455,60,124.0,200,1,194,296,45,0,0,202,250,10824,226,-5.59,,,,,,,,,,,,
154503,1564214537191,-0,2.68,1.1,0.62,1.44,1.17,0.82,-0.36,0.53,23,2,29,0.9,3975,15,91,37,68,1070,225.0,330,455,60,123.0,200,1,189,293,45,0,0,204,250,250,225,-5.59,,,,,,,,,,,,
154523,1564214537208,-1,2.68,1.1,0.61,1.43,1.18,0.85,-0.36,0.55,23,1,30,0.92,3992,15,92,37,68,1066,225.0,322,471,60,125.0,195,1,189,294,44,0,0,200,19456,18432,224,181.28,,,,,,,,,,,,
154543,1564214537228,2,2.68,1.1,0.62,1.43,1.16,0.85,-0.34,0.56,23,1,30,0.91,4035,15,92,37,68,1062,226.0,324,456,60,124.0,195,1,192,295,44,0,0,200,250,250,226,-5.59,44.680668,10.022726,20.95,178.5,0,0.0,-1,0.0,0.0,0,0.61,2.5757
154563,1564214537248,-1,2.68,1.1,0.62,1.43,1.17,0.83,-0.34,0.55,23,1,29,0.9,3964,15,92,37,68,1058,225.0,330,463,60,123.0,195,1,189,292,44,0,0,200,250,10318,225,-5.59,,,,,,,,,,,,
154583,1564214537268,1,2.67,1.1,0.61,1.44,1.16,0.84,-0.35,0.55,24,1,30,0.91,3961,15,92,37,68,1054,226.0,318,470,60,125.0,195,1,189,292,44,0,0,201,250,-1496,226,181.28,,,,,,,,,,,,
154603,1564214537288,4,2.67,1.1,0.62,1.43,1.17,0.84,-0.35,0.54,24,0,30,0.91,4043,15,92,37,68,1053,226.0,327,454,60,125.0,195,1,193,295,44,0,0,201,250,18432,226,-5.59,,,,,,,,,,,,
154623,1564214537308,0,2.68,1.09,0.61,1.43,1.17,0.82,-0.35,0.52,24,1,30,0.9,4001,15,92,37,68,1052,227.0,332,457,60,123.0,195,1,190,295,44,0,0,202,250,10318,227,-5.59,,,,,,,,,,,,
154643,1564214537328,-1,2.67,1.1,0.62,1.43,1.16,0.85,-0.36,0.55,24,1,30,0.92,3967,15,92,37,68,1050,227.0,328,472,60,124.0,193,1,189,293,44,0,0,200,19456,-1496,227,-5.59,44.68066,10.022731,21.2,178.4,0,0.0,-1,0.0,0.0,0,0.61,2.5774
154663,1564214537348,4,2.68,1.1,0.62,1.44,1.17,0.85,-0.36,0.55,24,0,30,0.93,4026,15,92,37,68,1047,227.0,323,462,60,125.0,193,1,192,295,44,0,0,201,250,18432,227,-5.59,,,,,,,,,,,,
154683,1564214537368,-1,2.68,1.1,0.62,1.44,1.17,0.84,-0.36,0.55,24,2,30,0.92,4047,15,92,37,68,1046,227.0,336,462,60,123.0,193,1,193,295,44,0,0,199,250,250,227,-5.59,,,,,,,,,,,,
154703,1564214537388,-0,2.68,1.1,0.62,1.44,1.16,0.87,-0.39,0.54,25,0,31,0.96,3974,15,92,37,68,1044,226.0,331,470,60,124.0,193,1,189,293,44,0,0,198,14326,18432,226,-5.59,,,,,,,,,,,,
154723,1564214537408,4,2.69,1.1,0.62,1.44,1.17,0.86,-0.38,0.55,24,-0,31,0.94,4010,15,92,37,68,1045,225.0,325,455,60,124.0,195,1,190,295,44,0,0,199,-1481,250,225,-5.59,,,,,,,,,,,,
154743,1564214537428,0,2.68,1.1,0.62,1.44,1.17,0.84,-0.39,0.55,24,1,31,0.93,4047,15,92,37,68,1047,225.0,333,462,60,123.0,195,1,193,295,44,0,0,203,-1481,250,225,-5.59,44.680656,10.022736,20.2,178.4,0,0.0,-1,0.0,0.0,0,0.61,2.5791
154763,1564214537448,-1,2.71,1.1,0.62,1.43,1.17,0.86,-0.4,0.55,24,1,31,0.95,3977,15,92,37,68,1049,227.0,330,468,60,124.0,195,1,189,293,44,0,0,208,250,10824,227,-5.59,,,,,,,,,,,,
154783,1564214537468,4,2.71,1.1,0.62,1.44,1.16,0.83,-0.39,0.57,24,-0,31,0.92,3964,15,92,37,68,1052,226.0,321,456,60,124.0,195,1,189,292,44,0,0,201,19456,18432,226,-5.59,,,,,,,,,,,,
154803,1564214537488,1,2.73,1.1,0.61,1.44,1.17,0.82,-0.41,0.55,24,1,31,0.92,4121,15,92,37,68,1056,225.0,335,460,60,124.0,195,1,200,297,44,0,0,198,250,-1496,225,-5.59,,,,,,,,,,,,
154823,1564214537510,-1,2.73,1.1,0.61,1.44,1.17,0.84,-0.43,0.57,25,1,32,0.94,4054,15,92,37,68,1060,226.0,335,470,60,125.0,195,1,194,221,44,0,0,199,-1481,250,226,-5.59,,,,,,,,,,,,
154843,1564214537530,-0,2.72,1.1,0.62,1.44,1.17,0.83,-0.43,0.59,25,0,33,0.93,3992,15,92,37,68,1062,227.0,321,468,60,125.0,199,1,189,294,45,0,0,200,-1481,10824,227,-5.59,44.680653,10.022739,20.82,178.3,0,0.0,-1,0.0,0.0,0,0.61,2.5807
154863,1564214537550,2,2.72,1.1,0.62,1.43,1.18,0.8,-0.44,0.59,25,2,32,0.92,4069,15,92,37,68,1063,228.0,327,453,60,124.0,199,1,195,296,45,0,0,201,250,18432,228,-5.59,,,,,,,,,,,,
154883,1564214537570,-0,2.72,1.1,0.62,1.44,1.17,0.82,-0.43,0.56,25,2,33,0.93,3985,15,92,37,68,1064,230.0,334,463,60,123.0,199,1,189,295,45,0,0,201,-1481,10824,230,-5.59,,,,,,,,,,,,
154903,1564214537591,-1,2.72,1.1,0.62,1.44,1.17,0.78,-0.45,0.57,25,0,33,0.9,3970,15,92,37,68,1065,228.0,323,469,60,125.0,199,1,189,293,45,0,0,198,250,18432,228,181.28,,,,,,,,,,,,
154923,1564214537611,0,2.74,1.1,0.62,1.43,1.18,0.75,-0.46,0.56,26,2,33,0.88,4027,15,92,37,68,1066,228.0,323,455,60,124.0,197,1,192,295,45,0,0,198,14326,10824,227,-5.59,,,,,,,,,,,,
154943,1564214537631,-2,2.76,1.1,0.62,1.44,1.17,0.77,-0.44,0.57,26,2,34,0.89,3973,15,92,37,68,1067,229.0,335,463,60,123.0,197,1,189,294,45,0,0,199,-1481,250,229,-5.59,44.680649,10.022742,21.0,178.3,0,0.0,-1,0.0,0.0,0,0.61,2.5824
154963,1564214537651,0,2.78,1.1,0.62,1.43,1.17,0.75,-0.45,0.56,27,0,34,0.88,3947,15,92,37,68,1066,230.0,318,463,60,125.0,197,1,188,291,45,0,0,198,250,250,230,181.28,,,,,,,,,,,,
154983,1564214537671,-0,2.81,1.1,0.62,1.43,1.17,0.71,-0.46,0.5,26,0,35,0.84,4011,15,92,37,68,1065,230.0,332,452,60,124.0,197,1,190,295,45,0,0,197,14326,250,230,-5.59,,,,,,,,,,,,
155003,1564214537691,-2,2.83,1.1,0.62,1.44,1.16,0.73,-0.45,0.49,27,-0,36,0.85,3996,15,92,37,68,1064,230.0,323,471,60,124.0,197,1,189,293,45,0,0,194,-1281,18432,226,-5.59,,,,,,,,,,,,
155023,1564214537710,-0,2.83,1.1,0.62,1.43,1.17,0.79,-0.39,0.54,28,-1,38,0.88,3977,15,92,37,68,1063,229.0,323,460,60,124.0,197,1,189,293,45,0,0,196,-1,10824,229,-5.59,,,,,,,,,,,,
155043,1564214537730,1,2.84,1.09,0.62,1.44,1.17,0.71,-0.4,0.57,28,-0,36,0.81,4025,15,92,37,68,1059,232.0,330,458,60,121.0,192,1,192,220,44,0,0,196,-1281,8704,232,-5.59,44.680641,10.022745,21.58,178.2,0,0.0,-1,0.0,0.0,0,0.61,2.584
155063,1564214537750,-1,2.84,1.1,0.61,1.44,1.17,0.74,-0.45,0.56,29,-3,34,0.86,3970,15,92,37,68,1055,231.0,328,466,60,124.0,192,1,189,293,44,0,0,198,-1,10824,231,-5.59,,,,,,,,,,,,
155083,1564214537770,3,2.82,1.11,0.61,1.44,1.17,0.77,-0.47,0.61,30,-5,35,0.9,3964,15,92,37,68,1051,228.0,320,467,60,124.0,192,1,189,292,44,0,0,193,-2560,18432,228,-5.59,,,,,,,,,,,,
155103,1564214537790,1,2.79,1.1,0.62,1.44,1.17,0.75,-0.43,0.55,30,-3,36,0.87,3970,15,92,37,68,1048,229.0,326,454,60,123.0,192,1,189,293,44,0,0,195,-1281,10824,229,-5.59,,,,,,,,,,,,
155123,1564214537810,0,2.77,1.11,0.62,1.44,1.17,0.81,-0.45,0.55,30,-5,37,0.92,3946,15,92,37,68,1046,231.0,321,469,60,124.0,186,1,188,291,43,0,0,196,-2560,250,231,181.28,,,,,,,,,,,,
155143,1564214537830,6,2.77,1.11,0.62,1.43,1.18,0.81,-0.48,0.57,29,-4,37,0.94,3961,15,92,37,68,1043,230.0,322,462,60,125.0,186,1,189,292,43,0,0,194,-1,18432,230,-5.59,44.680637,10.022747,21.69,178.2,0,0.0,-1,0.0,0.0,0,0.61,2.5857
155163,1564214537850,1,2.77,1.1,0.62,1.43,1.17,0.79,-0.48,0.52,29,-2,37,0.92,4023,15,92,37,68,1043,229.0,331,460,60,123.0,186,1,191,295,43,0,0,193,-2560,-1496,229,-5.59,,,,,,,,,,,,
155183,1564214537870,4,2.76,1.1,0.62,1.43,1.17,0.79,-0.5,0.54,28,-3,37,0.93,3979,15,92,37,68,1044,229.0,325,470,60,125.0,186,1,189,293,43,0,0,195,250,10824,228,-5.59,,,,,,,,,,,,
155203,1564214537890,5,2.77,1.1,0.61,1.43,1.17,0.79,-0.48,0.51,27,-4,37,0.93,3970,15,92,37,68,1045,227.0,323,460,60,124.0,186,1,189,293,43,0,0,199,-2560,-1496,227,-5.59,,,,,,,,,,,,
155223,1564214537910,2,2.76,1.1,0.62,1.43,1.16,0.76,-0.45,0.47,28,-2,37,0.88,4004,15,92,37,68,1047,223.0,329,455,60,122.0,197,1,190,295,44,0,0,198,-1281,250,223,-5.59,,,,,,,,,,,,
155243,1564214537930,4,2.76,1.1,0.62,1.43,1.16,0.8,-0.43,0.53,28,-3,36,0.9,3935,15,92,37,68,1048,224.0,328,476,60,125.0,197,1,188,291,44,0,0,193,-1281,250,224,181.28,44.68063,10.022749,21.44,178.2,0,0.0,-1,0.0,0.0,0,0.61,2.5874
155263,1564214537950,6,2.76,1.1,0.61,1.43,1.17,0.82,-0.43,0.58,28,-2,35,0.93,3938,15,92,37,68,1048,225.0,321,450,60,123.0,197,1,188,291,44,0,0,197,250,10318,225,-5.59,,,,,,,,,,,,
155283,1564214537970,5,2.75,1.1,0.61,1.43,1.17,0.8,-0.43,0.5,28,-1,36,0.91,3985,15,92,37,68,1048,224.0,327,465,60,123.0,197,1,189,293,44,0,0,218,-1,10318,224,-5.59,,,,,,,,,,,,
155303,1564214537990,5,2.75,1.11,0.61,1.44,1.16,0.8,-0.42,0.53,28,-2,38,0.91,3984,15,92,37,68,1047,221.0,318,467,60,124.0,197,1,189,294,44,0,0,212,-1,-1530,221,-5.59,,,,,,,,,,,,
155323,1564214538002,6,2.76,1.11,0.62,1.43,1.17,0.79,-0.4,0.5,29,-1,36,0.89,4018,15,92,37,68,1046,222.0,328,456,60,124.0,197,1,191,295,44,0,0,199,-1,19968,222,-5.59,,,,,,,,,,,,
155343,1564214538022,3,2.76,1.1,0.62,1.43,1.17,0.82,-0.42,0.47,28,2,37,0.92,4054,15,92,37,68,1046,221.0,332,469,60,123.0,198,1,194,296,44,0,0,188,-1,1596,221,-5.59,44.680626,10.022751,21.36,178.2,0,0.0,-1,0.0,0.0,0,0.61,2.5891
155363,1564214538042,1,2.77,1.1,0.62,1.44,1.17,0.83,-0.46,0.54,28,2,37,0.95,3977,15,92,37,68,1045,223.0,330,472,60,124.0,198,1,189,293,44,0,0,194,-1,-1530,223,181.28,,,,,,,,,,,,
155383,1564214538062,4,2.77,1.11,0.62,1.43,1.17,0.83,-0.43,0.52,28,3,36,0.93,3910,15,92,37,68,1038,217.0,318,455,60,123.0,198,1,188,289,44,0,0,189,-1,250,217,-5.59,,,,,,,,,,,,
155403,1564214538082,3,2.76,1.11,0.62,1.43,1.18,0.87,-0.46,0.55,28,-1,36,0.99,3873,15,92,37,68,1033,216.0,325,466,60,123.0,198,1,186,287,44,0,0,189,-1,-1532,216,-5.59,,,,,,,,,,,,
155423,1564214538104,4,2.76,1.1,0.62,1.44,1.18,0.82,-0.46,0.57,29,-2,34,0.94,3778,15,92,37,68,1027,215.0,307,464,60,125.0,186,1,185,281,40,0,0,198,-1,-17920,215,-5.59,,,,,,,,,,,,
155443,1564214538124,0,2.76,1.11,0.62,1.44,1.17,0.85,-0.5,0.5,28,-3,34,0.98,3751,15,92,37,68,1021,218.0,314,468,60,125.0,186,1,185,279,40,0,0,211,-1,250,218,-5.59,44.680622,10.022751,20.5,178.3,0,0.0,-1,0.0,0.0,0,0.61,2.5907
155463,1564214538144,4,2.75,1.11,0.62,1.44,1.16,0.84,-0.51,0.5,27,-0,36,0.98,3832,15,92,37,68,1017,220.0,307,461,60,124.0,186,1,186,284,40,0,0,237,-1,250,220,-5.59,,,,,,,,,,,,
155483,1564214538164,-2,2.76,1.1,0.62,1.44,1.17,0.83,-0.48,0.42,27,2,35,0.96,3959,15,92,37,68,1013,221.0,325,465,60,123.0,186,1,189,292,40,0,0,199,-1,1210,221,-5.59,,,,,,,,,,,,
155503,1564214538184,-1,2.75,1.11,0.62,1.44,1.17,0.87,-0.46,0.41,27,0,36,0.99,4014,15,92,37,68,1015,222.0,317,468,60,123.0,186,1,191,295,40,0,0,183,-1,250,222,-5.59,,,,,,,,,,,,
155523,1564214538207,2,2.76,1.1,0.62,1.44,1.18,0.85,-0.46,0.45,27,1,36,0.97,4030,15,92,37,68,1016,221.0,326,459,60,125.0,203,1,192,295,45,0,0,185,-1,1596,221,-5.59,,,,,,,,,,,,
155543,1564214538227,-1,2.76,1.11,0.62,1.44,1.18,0.84,-0.44,0.42,28,3,35,0.95,4030,15,92,37,68,1016,221.0,335,458,60,123.0,203,1,192,295,45,0,0,186,-1,15360,221,-5.59,44.680614,10.022751,20.23,178.3,0,0.0,-1,0.0,0.0,0,0.61,2.5924
155563,1564214538247,-1,2.76,1.11,0.62,1.44,1.17,0.9,-0.48,0.53,28,2,37,1.02,3969,15,92,37,68,1017,219.0,326,470,60,124.0,203,1,189,293,45,0,0,189,-1,1596,219,-5.59,,,,,,,,,,,,
155583,1564214538267,-1,2.77,1.11,0.62,1.43,1.18,0.86,-0.48,0.57,28,4,36,0.98,3861,15,92,37,68,1015,220.0,321,458,60,125.0,203,1,187,286,45,0,0,196,-1,1596,223,-5.59,,,,,,,,,,,,
155603,1564214538287,-0,2.78,1.1,0.62,1.43,1.17,0.83,-0.47,0.53,28,4,37,0.96,3863,15,92,37,68,1014,226.0,317,471,60,125.0,203,1,187,286,45,0,0,194,-1,19968,226,-5.59,,,,,,,,,,,,
155623,1564214538309,1,2.79,1.1,0.62,1.44,1.16,0.83,-0.46,0.54,29,4,37,0.95,3861,15,92,37,68,1016,224.0,312,457,60,124.0,183,1,187,286,41,0,0,195,-1,-1530,224,-5.59,,,,,,,,,,,,
155643,1564214538329,-2,2.79,1.11,0.62,1.43,1.17,0.81,-0.47,0.51,29,5,36,0.94,3822,15,92,37,68,1019,225.0,320,463,60,123.0,183,1,186,209,41,0,0,194,-1,10318,225,-5.59,44.680611,10.02275,20.19,178.2,0,0.0,-1,0.0,0.0,0,0.61,2.594
155663,1564214538349,3,2.79,1.11,0.62,1.44,1.17,0.84,-0.47,0.5,30,5,37,0.97,3849,15,92,37,68,1022,226.0,310,463,60,124.0,183,1,186,285,41,0,0,195,-1,19968,227,181.28,,,,,,,,,,,,
155683,1564214538369,-1,2.78,1.1,0.62,1.43,1.17,0.83,-0.49,0.52,29,7,37,0.96,3877,15,92,37,68,1026,228.0,316,451,60,124.0,183,1,187,287,41,0,0,195,-1,-1496,228,-5.59,,,,,,,,,,,,
155703,1564214538391,-0,2.78,1.11,0.62,1.43,1.17,0.86,-0.49,0.52,29,6,38,1.0,3907,15,92,37,68,1029,228.0,318,466,60,124.0,183,1,188,289,41,0,0,191,-1,-1496,228,-5.59,,,,,,,,,,,,
155723,1564214538411,3,2.77,1.1,0.62,1.44,1.17,0.88,-0.52,0.54,28,5,38,1.02,4002,15,92,37,68,1031,225.0,320,457,60,125.0,195,1,190,295,44,0,0,192,-1,19968,225,-5.59,,,,,,,,,,,,
155743,1564214538431,-0,2.76,1.1,0.61,1.43,1.17,0.87,-0.48,0.52,28,7,39,0.99,3974,15,92,37,68,1031,225.0,327,452,60,124.0,195,1,189,293,44,0,0,192,-1,-1530,223,-5.59,44.680607,10.022749,20.27,178.2,0,0.0,-1,0.0,0.0,0,0.61,2.5957
155763,1564214538451,-1,2.75,1.1,0.61,1.43,1.17,0.88,-0.49,0.57,27,4,39,1.01,3969,15,92,37,68,1030,223.0,328,470,60,125.0,195,1,189,293,44,0,0,193,-1281,18432,223,-5.59,,,,,,,,,,,,
155783,1564214538471,1,2.75,1.11,0.62,1.43,1.17,0.85,-0.47,0.56,27,5,37,0.98,3967,15,92,37,68,1028,224.0,324,453,60,125.0,195,1,189,293,44,0,0,199,-1281,19968,224,-5.59,,,,,,,,,,,,
155803,1564214538491,-1,2.74,1.11,0.61,1.44,1.17,0.87,-0.48,0.56,26,6,38,0.99,3914,15,92,37,68,1027,224.0,328,458,60,123.0,195,1,188,289,44,0,0,211,-2560,10318,224,-5.59,,,,,,,,,,,,
155823,1564214538511,-2,2.74,1.1,0.61,1.43,1.16,0.9,-0.46,0.55,25,3,39,1.01,3920,15,92,37,68,1028,224.0,318,468,60,125.0,191,1,188,290,43,0,0,215,250,10318,224,181.28,,,,,,,,,,,,
155843,1564214538531,2,2.73,1.1,0.61,1.43,1.17,0.84,-0.45,0.55,25,3,38,0.95,4054,15,92,37,68,1028,223.0,328,452,60,126.0,191,1,194,221,43,0,0,198,250,19968,223,-5.59,44.680603,10.022747,20.46,178.2,0,0.0,-1,0.0,0.0,0,0.61,2.5974
155863,1564214538551,-1,2.74,1.11,0.61,1.43,1.16,0.81,-0.43,0.52,24,5,37,0.92,4027,15,92,37,68,1030,224.0,340,470,60,124.0,191,1,192,295,43,0,0,195,250,10318,224,-5.59,,,,,,,,,,,,
155883,1564214538571,-2,2.73,1.1,0.62,1.43,1.16,0.84,-0.41,0.52,25,4,38,0.94,3994,15,92,37,68,1032,223.0,326,471,60,125.0,191,1,189,294,43,0,0,195,-2560,250,223,181.28,,,,,,,,,,,,
155903,1564214538591,2,2.73,1.1,0.61,1.44,1.17,0.85,-0.37,0.55,26,2,37,0.92,4040,15,92,37,68,1033,223.0,330,459,60,125.0,191,1,193,295,43,0,0,196,250,19968,223,-5.59,,,,,,,,,,,,
155923,1564214538609,-0,2.73,1.1,0.61,1.43,1.16,0.84,-0.34,0.5,27,1,35,0.91,3959,15,92,37,68,1035,223.0,335,453,60,123.0,192,1,189,292,43,0,0,195,250,10318,223,-5.59,,,,,,,,,,,,
155943,1564214538629,-0,2.73,1.1,0.61,1.43,1.17,0.85,-0.39,0.52,28,0,36,0.93,3895,15,92,37,68,1035,224.0,322,471,60,125.0,192,1,187,288,43,0,0,196,-1,-1530,224,181.28,44.680595,10.022744,20.86,178.2,0,0.0,-1,0.0,0.0,0,0.61,2.5991
155963,1564214538649,0,2.74,1.1,0.62,1.43,1.17,0.78,-0.39,0.54,29,1,34,0.88,3926,15,92,37,68,1033,224.0,325,452,60,124.0,192,1,188,290,43,0,0,200,-1,-1530,225,-5.59,,,,,,,,,,,,
155983,1564214538669,0,2.75,1.1,0.61,1.43,1.17,0.81,-0.43,0.51,29,-1,34,0.91,3915,15,92,37,68,1032,227.0,326,467,60,123.0,192,1,188,289,43,0,0,210,250,-1496,227,-5.59,,,,,,,,,,,,
156003,1564214538691,3,2.75,1.11,0.61,1.43,1.17,0.78,-0.48,0.55,29,-0,35,0.92,3944,15,92,37,68,1030,226.0,316,458,60,124.0,192,1,188,291,43,0,0,229,-1281,19968,226,-5.59,,,,,,,,,,,,
156023,1564214538711,2,2.76,1.11,0.61,1.43,1.17,0.77,-0.48,0.57,29,1,34,0.91,4082,15,92,37,68,1028,227.0,333,460,60,122.0,198,1,196,296,45,0,0,203,250,250,227,-5.59,,,,,,,,,,,,
156043,1564214538731,-1,2.78,1.11,0.61,1.43,1.17,0.76,-0.48,0.5,29,1,34,0.9,4092,15,92,36,68,1027,228.0,331,465,60,123.0,198,1,197,296,45,0,0,192,-1281,-1496,228,-5.59,44.680588,10.022741,21.31,178.3,0,0.0,-1,0.0,0.0,0,0.61,2.6007
156063,1564214538751,-0,2.79,1.11,0.61,1.44,1.17,0.79,-0.48,0.49,29,0,36,0.92,4091,15,92,36,68,1025,227.0,328,465,60,124.0,198,1,197,296,45,0,0,190,-1,10318,227,181.28,,,,,,,,,,,,
156083,1564214538771,4,2.78,1.11,0.62,1.43,1.17,0.83,-0.46,0.52,29,-0,36,0.95,4129,15,92,36,68,1025,226.0,332,459,60,126.0,198,1,200,297,45,0,0,193,-1,-1496,226,-5.59,,,,,,,,,,,,
156103,1564214538791,-1,2.79,1.11,0.61,1.44,1.17,0.82,-0.44,0.51,29,0,36,0.93,4021,15,92,36,68,1023,226.0,340,455,60,124.0,198,1,191,295,45,0,0,199,-1,-1496,226,-5.59,,,,,,,,,,,,
156123,1564214538811,-1,2.77,1.08,0.61,1.44,1.17,0.83,-0.45,0.52,29,-1,37,0.95,3968,15,92,36,68,1017,227.0,327,471,60,124.0,193,1,189,293,44,0,0,207,-1,18432,226,-5.59,,,,,,,,,,,,
156143,1564214538831,3,2.78,1.11,0.62,1.44,1.17,0.83,-0.46,0.51,29,-2,36,0.95,3979,15,92,36,68,1012,226.0,323,461,60,125.0,193,1,189,293,44,0,0,221,-1,250,226,181.28,44.680588,10.022738,21.1,178.3,0,0.0,-1,0.0,0.0,0,0.62,2.6024
156163,1564214538851,-0,2.78,1.1,0.62,1.43,1.17,0.8,-0.47,0.48,29,1,36,0.93,4024,15,92,36,68,1007,226.0,333,456,60,123.0,193,1,192,295,44,0,0,218,-1281,-1496,226,-5.59,,,,,,,,,,,,
156183,1564214538871,-1,2.77,1.11,0.62,1.43,1.17,0.83,-0.41,0.5,29,1,38,0.92,4052,15,92,36,68,1003,227.0,328,467,60,125.0,193,1,194,221,44,0,0,209,-1,-1496,227,-5.59,,,,,,,,,,,,
156203,1564214538891,-2,2.75,1.1,0.62,1.44,1.17,0.81,-0.37,0.57,29,1,37,0.89,4084,15,92,36,68,1002,228.0,328,464,60,124.0,193,1,197,296,44,0,0,196,250,19968,228,-5.59,,,,,,,,,,,,
156223,1564214538909,3,2.74,1.11,0.61,1.43,1.17,0.81,-0.37,0.56,29,2,35,0.89,4095,15,92,36,68,1002,228.0,336,457,60,123.0,201,1,197,296,46,0,0,197,-2560,250,228,-5.59,,,,,,,,,,,,
156243,1564214538929,-0,2.74,1.1,0.61,1.44,1.17,0.86,-0.37,0.5,28,2,36,0.94,4052,15,92,36,68,1007,226.0,337,466,60,123.0,201,1,191,296,46,0,0,196,-1281,18432,226,-5.59,44.680584,10.022734,21.07,178.3,0,0.0,-1,0.0,0.0,0,0.62,2.604
156263,1564214538949,-0,2.74,1.11,0.62,1.44,1.16,0.82,-0.38,0.52,29,0,37,0.9,3973,15,92,36,68,1009,225.0,322,461,60,126.0,201,1,189,293,46,0,0,195,-1281,250,225,181.28,,,,,,,,,,,,
156283,1564214538969,1,2.72,1.1,0.61,1.43,1.17,0.78,-0.36,0.55,29,1,35,0.86,3970,15,92,36,68,1004,225.0,327,452,60,126.0,201,1,189,293,46,0,0,196,250,18432,225,-5.59,,,,,,,,,,,,
156303,1564214538989,-1,2.73,1.11,0.61,1.44,1.17,0.79,-0.38,0.55,29,2,35,0.88,3936,15,92,36,68,999,226.0,323,473,60,125.0,201,1,188,291,46,0,0,200,-2560,-1496,226,-5.59,,,,,,,,,,,,
156323,1564214539009,3,2.72,1.11,0.61,1.43,1.17,0.83,-0.39,0.57,29,0,35,0.91,3939,15,92,36,68,990,229.0,319,466,60,125.0,187,1,188,291,43,0,0,206,14326,250,229,-5.59,,,,,,,,,,,,
156343,1564214539003,-0,2.73,1.1,0.61,1.43,1.17,0.81,-0.4,0.59,28,2,35,0.91,3977,15,92,36,68,981,229.0,327,451,60,124.0,187,1,189,293,43,0,0,199,-1481,10824,229,-5.59,44.680576,10.022729,20.88,178.3,0,0.0,-1,0.0,0.0,0,0.62,2.6057
156363,1564214539023,-2,2.74,1.1,0.61,1.43,1.16,0.83,-0.4,0.58,28,2,35,0.92,3967,15,92,36,68,976,230.0,323,473,60,125.0,187,1,189,293,43,0,0,197,250,-1494,230,181.28,,,,,,,,,,,,
156383,1564214539043,3,2.73,1.1,0.61,1.44,1.17,0.82,-0.4,0.56,28,1,35,0.91,3981,15,92,36,68,970,230.0,321,451,60,125.0,187,1,189,293,43,0,0,196,-1481,250,230,-5.59,,,,,,,,,,,,
156403,1564214539095,-2,2.73,1.11,0.62,1.43,1.17,0.79,-0.39,0.56,29,2,35,0.88,4054,15,92,36,68,973,228.0,340,463,60,123.0,187,1,194,296,43,0,0,196,14326,250,228,-5.59,,,,,,,,,,,,
156423,1564214539115,-2,2.74,1.11,0.61,1.44,1.17,0.8,-0.4,0.59,29,2,34,0.89,4034,15,92,36,68,977,228.0,327,470,60,124.0,187,1,192,220,43,0,0,198,-1481,250,228,-5.59,,,,,,,,,,,,
156443,1564214539135,-1,2.73,1.1,0.61,1.44,1.17,0.82,-0.41,0.55,29,2,35,0.92,4069,15,92,36,68,983,229.0,325,466,60,125.0,197,1,195,296,45,0,0,203,-1481,-1494,229,-5.59,44.680572,10.022724,21.46,178.3,0,0.0,-1,0.0,0.0,0,0.62,2.6074
156463,1564214539155,2,2.74,1.1,0.61,1.44,1.17,0.8,-0.39,0.56,28,3,35,0.89,4092,15,92,36,68,989,230.0,335,452,60,125.0,197,1,197,296,45,0,0,219,250,10824,230,-5.59,,,,,,,,,,,,
156483,1564214539175,-1,2.73,1.1,0.61,1.44,1.17,0.82,-0.38,0.57,28,2,34,0.9,4088,15,92,36,68,992,228.0,341,462,60,123.0,197,1,197,296,45,0,0,202,-1481,250,228,-5.59,,,,,,,,,,,,
156503,1564214539195,-0,2.74,1.11,0.62,1.43,1.16,0.81,-0.4,0.57,28,1,35,0.9,4122,15,92,36,68,995,228.0,332,470,60,125.0,197,1,200,297,45,0,0,196,19456,18432,228,-5.59,,,,,,,,,,,,
156523,1564214539205,3,2.74,1.1,0.62,1.44,1.17,0.83,-0.39,0.59,29,-0,36,0.92,4110,15,92,36,68,1002,229.0,331,461,60,126.0,200,1,199,297,46,0,0,200,250,18432,229,-5.59,,,,,,,,,,,,
156543,1564214539225,1,2.74,1.11,0.61,1.44,1.17,0.82,-0.39,0.58,29,0,35,0.91,4041,15,92,36,68,1009,230.0,342,456,60,124.0,200,1,193,295,46,0,0,201,250,8704,230,-5.59,44.680569,10.022718,21.0,178.3,0,0.0,-1,0.0,0.0,0,0.62,2.6091
156563,1564214539245,-2,2.74,1.11,0.61,1.44,1.17,0.85,-0.4,0.55,29,-0,35,0.94,4041,15,92,36,68,1014,231.0,329,472,60,124.0,200,1,193,220,46,0,0,211,-1481,-1494,231,-5.59,,,,,,,,,,,,
156583,1564214539265,-2,2.73,1.1,0.62,1.43,1.16,0.85,-0.43,0.55,29,-1,36,0.96,4055,15,92,36,68,1019,232.0,332,462,60,125.0,200,1,194,296,46,0,0,211,-1481,250,232,181.28,,,,,,,,,,,,
156603,1564214539296,2,2.73,1.11,0.61,1.44,1.17,0.84,-0.43,0.52,28,-0,36,0.95,4056,15,92,36,68,1022,232.0,335,449,60,124.0,200,1,194,296,46,0,0,209,250,-1483,232,-5.59,,,,,,,,,,,,
156623,1564214539316,-2,2.75,1.1,0.61,1.44,1.16,0.82,-0.43,0.53,28,1,36,0.93,4087,15,92,36,68,1024,231.0,336,466,60,124.0,200,1,197,296,46,0,0,199,19456,13602,230,-5.59,,,,,,,,,,,,
156643,1564214539336,-1,2.73,1.11,0.61,1.44,1.16,0.83,-0.42,0.54,28,-1,36,0.93,4122,15,92,36,68,1022,230.0,335,470,60,125.0,195,1,200,297,45,0,0,200,19456,250,230,-5.59,44.680569,10.022712,21.24,178.2,0,0.0,-1,0.0,0.0,0,0.62,2.6107
156663,1564214539356,1,2.74,1.11,0.62,1.43,1.17,0.85,-0.42,0.55,28,-2,36,0.95,4094,15,92,36,68,1020,230.0,333,460,60,126.0,195,1,197,296,45,0,0,204,14412,-1494,230,-5.59,,,,,,,,,,,,
156683,1564214539376,0,2.74,1.11,0.61,1.44,1.17,0.83,-0.43,0.55,28,-1,36,0.94,4080,15,92,36,68,1014,230.0,337,456,60,123.0,195,1,196,296,45,0,0,209,14412,13602,230,-5.59,,,,,,,,,,,,
156703,1564214539396,-2,2.74,1.1,0.62,1.44,1.16,0.85,-0.45,0.53,28,-1,36,0.96,4139,15,92,36,68,1007,231.0,343,468,60,124.0,195,1,201,297,45,0,0,216,14412,13602,231,-5.59,,,,,,,,,,,,
156723,1564214539406,-2,2.74,1.1,0.62,1.43,1.17,0.84,-0.43,0.5,28,-2,37,0.94,4158,15,92,36,68,1002,231.0,338,470,60,125.0,203,1,203,298,47,0,0,204,14412,-1494,231,181.28,,,,,,,,,,,,
156743,1564214539426,-2,2.74,1.11,0.61,1.44,1.17,0.83,-0.42,0.55,28,-3,36,0.93,4130,15,92,36,68,998,231.0,337,457,60,125.0,203,1,200,297,47,0,0,200,14412,250,231,-5.59,44.680565,10.022707,21.41,178.2,0,0.0,-1,0.0,0.0,0,0.62,2.6124
156763,1564214539446,2,2.73,1.11,0.61,1.44,1.17,0.8,-0.42,0.52,28,-1,35,0.9,4173,15,92,36,68,995,231.0,347,462,60,125.0,203,1,204,298,47,0,0,203,14412,250,231,-5.59,,,,,,,,,,,,
156783,1564214539466,-1,2.72,1.11,0.62,1.44,1.17,0.81,-0.43,0.5,29,1,35,0.92,4119,15,92,36,68,994,233.0,345,468,60,123.0,203,1,199,297,47,0,0,209,14412,13602,233,-5.59,,,,,,,,,,,,
156803,1564214539486,-1,2.73,1.11,0.62,1.44,1.17,0.83,-0.43,0.53,29,0,36,0.94,4068,15,92,36,68,994,234.0,332,466,60,124.0,203,1,195,221,47,0,0,221,250,13602,234,-5.59,,,,,,,,,,,,
156823,1564214539500,-0,2.71,1.11,0.61,1.44,1.17,0.85,-0.42,0.56,29,-2,36,0.95,4151,15,92,36,68,995,233.0,335,460,60,126.0,203,1,202,298,47,0,0,202,250,250,233,-5.59,,,,,,,,,,,,
156843,1564214539520,2,2.7,1.11,0.62,1.44,1.17,0.81,-0.4,0.59,29,-1,35,0.91,4150,15,92,36,68,997,233.0,339,451,60,124.0,197,1,202,298,46,0,0,205,-1480,13602,233,-5.59,44.680561,10.0227,21.13,178.3,0,0.0,-1,0.0,0.0,0,0.62,2.614
156863,1564214539540,-2,2.7,1.11,0.61,1.44,1.18,0.82,-0.38,0.57,29,2,34,0.9,4125,15,92,36,68,998,232.0,342,463,60,123.0,197,1,200,297,46,0,0,203,-1480,250,232,-5.59,,,,,,,,,,,,
156883,1564214539560,-2,2.68,1.11,0.62,1.44,1.17,0.83,-0.38,0.56,29,1,34,0.91,4143,15,92,36,69,998,233.0,339,467,60,125.0,197,1,202,299,46,0,0,203,250,-1483,233,181.28,,,,,,,,,,,,
156903,1564214539580,-1,2.68,1.11,0.61,1.45,1.17,0.8,-0.37,0.55,29,-1,35,0.88,4142,15,92,36,68,997,233.0,333,458,60,125.0,197,1,201,297,46,0,0,209,250,-1483,233,-5.59,,,,,,,,,,,,
156923,1564214539610,2,2.66,1.1,0.61,1.44,1.17,0.8,-0.39,0.55,28,0,34,0.89,4091,15,92,36,68,995,233.0,343,457,60,124.0,193,1,197,296,45,0,0,212,12800,-1483,233,-5.59,,,,,,,,,,,,
156943,1564214539630,-2,2.66,1.1,0.62,1.44,1.16,0.82,-0.4,0.57,28,1,33,0.91,4148,15,92,36,68,992,233.0,341,465,60,123.0,193,1,202,222,45,0,0,207,-1482,-1483,233,-5.59,44.680557,10.022693,21.41,178.3,0,0.0,-1,0.0,0.0,0,0.62,2.6157
156963,1564214539650,-1,2.65,1.1,0.61,1.43,1.17,0.85,-0.38,0.56,27,0,35,0.93,4169,15,92,36,69,988,232.0,335,466,60,125.0,193,1,204,300,45,0,0,208,-1482,-25600,232,-5.59,,,,,,,,,,,,
156983,1564214539670,-2,2.64,1.1,0.62,1.43,1.17,0.84,-0.35,0.6,27,-2,35,0.91,4114,15,92,36,68,986,232.0,331,466,60,125.0,193,1,199,297,45,0,0,206,250,13602,232,-5.59,,,,,,,,,,,,
157003,1564214539690,2,2.64,1.1,0.61,1.44,1.17,0.81,-0.33,0.6,26,-2,33,0.87,4188,15,92,36,68,983,232.0,340,456,60,125.0,193,1,205,298,45,0,0,207,-1482,250,231,-5.59,,,,,,,,,,,,
157023,1564214539702,-0,2.63,1.11,0.61,1.44,1.16,0.8,-0.34,0.62,26,-0,31,0.87,4168,15,92,36,68,979,231.0,352,457,60,124.0,203,1,204,298,47,0,0,211,250,8704,231,-5.59,,,,,,,,,,,,
157043,1564214539722,-1,2.62,1.11,0.61,1.44,1.17,0.8,-0.34,0.61,26,0,31,0.86,4128,15,92,36,69,977,231.0,340,473,60,124.0,203,1,202,299,47,0,0,215,13964,13602,231,-5.59,44.680557,10.022687,22.04,178.3,0,0.0,-1,0.0,0.0,0,0.62,2.6174
157063,1564214539742,-1,2.61,1.11,0.61,1.44,1.17,0.81,-0.33,0.63,25,-1,32,0.87,4193,15,92,36,69,976,232.0,339,462,60,125.0,203,1,206,301,47,0,0,215,13964,13602,232,-5.59,,,,,,,,,,,,
157083,1564214539762,-2,2.61,1.1,0.61,1.44,1.16,0.82,-0.34,0.64,25,-2,31,0.88,4216,15,92,36,68,975,232.0,343,455,60,126.0,203,1,208,224,47,0,0,212,13964,13602,232,-5.59,,,,,,,,,,,,
157103,1564214539792,2,2.6,1.11,0.61,1.44,1.16,0.83,-0.32,0.65,25,-1,30,0.89,4164,15,92,36,68,975,232.0,349,456,60,124.0,203,1,203,298,47,0,0,211,-1482,13468,231,-5.59,,,,,,,,,,,,
157123,1564214539812,-1,2.6,1.1,0.61,1.43,1.17,0.82,-0.32,0.62,24,0,28,0.88,4229,15,92,36,68,974,232.0,345,460,60,123.0,203,1,209,224,47,0,0,211,13964,250,232,-5.59,,,,,,,,,,,,
157143,1564214539832,-1,2.59,1.1,0.61,1.44,1.16,0.8,-0.31,0.59,24,0,29,0.86,4218,15,92,36,69,974,231.0,348,469,60,125.0,202,1,208,302,47,0,0,212,13964,8704,231,-5.59,44.680553,10.022679,22.05,178.3,0,0.0,-1,0.0,0.0,0,0.62,2.6191
157163,1564214539852,-0,2.59,1.1,0.62,1.43,1.17,0.8,-0.3,0.59,24,-2,29,0.85,4158,15,92,36,69,974,232.0,341,468,60,126.0,202,1,203,300,47,0,0,215,13964,8704,232,181.28,,,,,,,,,,,,
157183,1564214539872,-1,2.59,1.11,0.61,1.43,1.16,0.8,-0.32,0.62,23,-3,28,0.86,4226,15,92,36,69,973,232.0,342,459,60,126.0,202,1,208,299,47,0,0,218,250,250,232,-5.59,,,,,,,,,,,,
157203,1564214539892,3,2.58,1.1,0.61,1.44,1.16,0.78,-0.31,0.59,23,-2,27,0.84,4193,15,92,36,68,973,232.0,347,454,60,124.0,202,1,206,298,47,0,0,218,-14848,13468,233,-5.59,,,,,,,,,,,,
157223,1564214539906,1,2.58,1.11,0.61,1.44,1.17,0.79,-0.3,0.59,22,-1,26,0.84,4203,15,92,36,68,974,232.0,348,461,60,123.0,206,1,207,302,48,0,0,215,966,-1483,232,-5.59,,,,,,,,,,,,
157243,1564214539926,-2,2.59,1.11,0.61,1.44,1.17,0.78,-0.31,0.59,22,-0,26,0.84,4280,15,92,36,69,974,232.0,352,468,60,124.0,206,1,214,303,48,0,0,215,-14848,250,232,-5.59,44.680553,10.022672,22.22,178.3,0,0.0,-1,0.0,0.0,0,0.62,2.6207
157263,1564214539946,-0,2.58,1.1,0.62,1.43,1.16,0.78,-0.29,0.6,22,-1,26,0.84,4244,15,92,36,69,973,233.0,346,463,60,125.0,206,1,210,302,48,0,0,213,966,13468,233,-5.59,,,,,,,,,,,,
157283,1564214539966,-2,2.57,1.1,0.62,1.44,1.16,0.8,-0.3,0.58,22,-2,27,0.85,4244,15,92,36,69,972,233.0,349,456,60,126.0,206,1,210,299,48,0,0,215,-1533,13468,233,181.28,,,,,,,,,,,,
157303,1564214539992,-1,2.57,1.11,0.61,1.44,1.17,0.79,-0.3,0.61,22,-2,26,0.84,4277,15,92,36,68,971,234.0,348,455,60,125.0,206,1,213,300,48,0,0,219,-1533,250,234,-5.59,,,,,,,,,,,,
157323,1564214540012,3,2.57,1.1,0.62,1.44,1.17,0.8,-0.29,0.62,21,-1,25,0.85,4223,15,92,36,68,970,235.0,357,452,60,123.0,206,1,208,224,48,0,0,219,-1533,13468,235,-5.59,,,,,,,,,,,,
157343,1564214540032,1,2.57,1.1,0.61,1.44,1.16,0.81,-0.32,0.65,21,-1,24,0.87,4278,15,92,36,68,967,234.0,357,461,60,122.0,200,1,213,300,47,0,0,219,250,23482,234,-5.59,44.68055,10.022664,22.11,178.3,0,0.0,-1,0.0,0.0,0,0.62,2.6224
157363,1564214540052,-1,2.55,1.11,0.61,1.44,1.17,0.81,-0.32,0.62,20,0,24,0.87,4269,15,92,36,68,964,233.0,357,470,60,123.0,200,1,212,300,47,0,0,219,-1533,-25600,233,-5.59,,,,,,,,,,,,
157383,1564214540072,-0,2.54,1.11,0.62,1.44,1.16,0.81,-0.29,0.59,20,-0,25,0.86,4251,15,92,36,69,961,234.0,349,468,60,124.0,200,1,211,303,47,0,0,218,16384,13468,234,-5.59,,,,,,,,,,,,
157403,1564214540092,-0,2.52,1.11,0.61,1.44,1.16,0.82,-0.25,0.6,20,-2,25,0.85,4317,15,92,36,69,960,234.0,347,464,60,126.0,200,1,216,304,47,0,0,217,16384,250,234,181.28,,,,,,,,,,,,
157423,1564214540106,-0,2.51,1.1,0.62,1.44,1.17,0.82,-0.23,0.59,19,-3,25,0.85,4303,15,92,36,68,955,234.0,353,460,60,126.0,209,1,215,301,49,0,0,219,250,13468,234,-5.59,,,,,,,,,,,,
157443,1564214540126,-1,2.48,1.11,0.61,1.44,1.16,0.83,-0.19,0.61,19,-3,24,0.85,4267,15,92,36,68,950,235.0,351,460,60,125.0,209,1,212,225,49,0,0,220,16384,-17920,235,-5.59,44.68055,10.022656,22.53,178.3,0,0.0,-1,0.0,0.0,0,0.62,2.6241
157463,1564214540146,4,2.47,1.1,0.61,1.44,1.16,0.84,-0.19,0.61,18,-3,23,0.86,4310,15,92,36,68,946,234.0,364,460,60,123.0,209,1,216,304,49,0,0,221,-1532,250,234,-5.59,,,,,,,,,,,,
157483,1564214540166,1,2.45,1.1,0.61,1.44,1.16,0.83,-0.2,0.63,17,-2,21,0.85,4254,15,92,36,68,943,233.0,360,455,60,123.0,209,1,211,300,49,0,0,222,-1532,13468,233,-5.59,,,,,,,,,,,,
157503,1564214540196,-1,2.44,1.1,0.61,1.43,1.16,0.83,-0.19,0.61,17,-0,21,0.85,4304,15,92,36,68,936,233.0,356,468,60,124.0,209,1,215,301,49,0,0,223,-17920,250,233,-5.59,,,,,,,,,,,,
157523,1564214540216,-0,2.42,1.1,0.61,1.43,1.16,0.82,-0.19,0.57,16,-0,21,0.84,4297,15,92,36,69,927,232.0,351,468,60,124.0,211,1,214,303,49,0,0,225,1210,13468,232,-5.59,,,,,,,,,,,,
157543,1564214540236,-2,2.41,1.09,0.62,1.43,1.17,0.83,-0.15,0.59,15,-2,21,0.84,4266,15,92,36,69,921,232.0,346,465,60,125.0,211,1,212,300,49,0,0,224,-1532,250,232,181.28,44.68055,10.022648,22.35,178.3,0,0.0,-1,0.0,0.0,0,0.62,2.6257
157563,1564214540256,-1,2.4,1.1,0.61,1.43,1.16,0.84,-0.11,0.6,14,-5,20,0.84,4319,15,92,36,69,915,230.0,353,457,60,125.0,211,1,216,304,49,0,0,225,-1532,-1483,230,-5.59,,,,,,,,,,,,
157583,1564214540276,-1,2.38,1.1,0.61,1.42,1.16,0.85,-0.09,0.65,13,-6,19,0.85,4319,15,92,36,68,906,231.0,352,462,60,125.0,211,1,216,301,49,0,0,227,250,-25600,231,-5.59,,,,,,,,,,,,
157603,1564214540296,-1,2.38,1.1,0.61,1.43,1.16,0.84,-0.1,0.66,13,-6,17,0.85,4389,15,92,36,69,896,230.0,363,462,60,125.0,211,1,222,230,49,0,0,226,250,13602,230,-5.59,,,,,,,,,,,,
157623,1564214540309,3,2.38,1.09,0.6,1.42,1.16,0.8,-0.1,0.65,12,-5,16,0.8,4343,15,92,36,68,888,230.0,362,460,60,123.0,213,1,218,301,49,0,0,226,15360,13602,230,-5.59,,,,,,,,,,,,
157643,1564214540329,3,2.37,1.1,0.61,1.42,1.16,0.78,-0.08,0.65,11,-3,15,0.78,4366,15,92,36,68,882,230.0,363,471,60,123.0,213,1,220,302,49,0,0,228,250,-1483,230,-5.59,44.68055,10.02264,22.99,178.4,0,0.0,-1,0.0,0.0,0,0.62,2.6274
157663,1564214540349,0,2.38,1.09,0.61,1.42,1.16,0.75,-0.07,0.63,11,-1,14,0.75,4380,16,92,36,68,875,230.0,364,465,60,123.0,213,1,221,302,49,0,0,231,-1530,250,230,-5.59,,,,,,,,,,,,
157683,1564214540369,-0,2.38,1.09,0.61,1.42,1.16,0.78,-0.07,0.57,10,0,13,0.78,4299,16,92,36,68,867,231.0,362,468,60,123.0,213,1,215,301,49,0,0,232,250,-25600,230,-5.59,,,,,,,,,,,,
157703,1564214540389,-2,2.39,1.09,0.61,1.42,1.15,0.79,-0.06,0.54,10,1,14,0.79,4347,16,92,36,68,862,231.0,361,466,60,124.0,213,1,219,301,49,0,0,229,-1530,250,231,-5.59,,,,,,,,,,,,
157723,1564214540399,-0,2.38,1.1,0.61,1.43,1.16,0.81,-0.07,0.54,9,-1,14,0.81,4382,16,92,36,68,860,231.0,356,460,60,125.0,216,1,222,302,50,0,0,230,-1530,-25600,231,-5.59,,,,,,,,,,,,
157743,1564214540419,-1,2.39,1.09,0.61,1.43,1.16,0.79,-0.07,0.55,9,-2,13,0.79,4311,16,92,36,68,857,232.0,359,458,60,126.0,216,1,216,301,50,0,0,230,-1530,-25600,232,-5.59,44.68055,10.022632,23.05,178.4,0,0.0,-1,0.0,0.0,0,0.62,2.629
157763,1564214540439,-1,2.39,1.09,0.61,1.42,1.16,0.81,-0.06,0.6,9,-4,13,0.81,4412,16,92,36,69,853,232.0,355,460,60,125.0,216,1,224,231,50,0,0,231,-1530,-25600,232,-5.59,,,,,,,,,,,,
157783,1564214540459,0,2.38,1.1,0.61,1.43,1.16,0.84,-0.03,0.63,8,-4,12,0.84,4420,16,92,36,68,851,232.0,361,461,60,125.0,216,1,225,303,50,0,0,232,19968,250,233,-5.59,,,,,,,,,,,,
157803,1564214540491,-2,2.39,1.09,0.61,1.43,1.16,0.83,-0.04,0.7,7,-5,12,0.83,4381,16,92,36,68,849,233.0,353,456,60,125.0,216,1,222,302,50,0,0,234,10318,-1484,233,-5.59,,,,,,,,,,,,
157823,1564214540511,-1,2.38,1.09,0.61,1.43,1.16,0.83,-0.02,0.74,7,-6,11,0.83,4472,16,92,36,69,847,234.0,359,459,60,125.0,217,1,229,304,51,0,0,234,250,-1484,234,-5.59,,,,,,,,,,,,
157843,1564214540531,-1,2.38,1.1,0.61,1.43,1.15,0.83,0.01,0.79,7,-6,9,0.83,4397,16,92,36,68,844,233.0,369,456,60,124.0,217,1,223,302,51,0,0,236,10318,250,233,-5.59,44.68055,10.022624,22.17,178.4,0,0.0,-1,0.0,0.0,0,0.63,2.6307
157863,1564214540551,-3,2.37,1.09,0.61,1.43,1.16,0.84,0.0,0.78,6,-5,8,0.84,4425,16,92,36,68,842,234.0,368,461,60,123.0,217,1,225,303,51,0,0,233,-1496,250,234,-5.59,,,,,,,,,,,,
157883,1564214540571,4,2.37,1.09,0.61,1.42,1.17,0.81,-0.01,0.77,6,-4,8,0.81,4451,16,92,36,68,840,233.0,370,455,60,124.0,217,1,227,304,51,0,0,236,250,-1484,234,-5.59,,,,,,,,,,,,
157903,1564214540591,3,2.37,1.09,0.61,1.42,1.17,0.78,-0.01,0.68,6,-3,7,0.78,4386,16,92,36,68,838,234.0,371,457,60,124.0,217,1,222,302,51,0,0,234,10318,250,234,-5.59,,,,,,,,,,,,
157923,1564214540601,2,2.37,1.1,0.6,1.42,1.16,0.76,-0.02,0.67,6,-1,7,0.76,4392,16,92,36,68,835,234.0,369,459,60,123.0,213,1,222,305,50,0,0,235,18432,13468,234,-5.59,,,,,,,,,,,,
157943,1564214540621,1,2.36,1.09,0.61,1.42,1.16,0.77,-0.01,0.68,5,-1,7,0.77,4396,17,92,36,69,831,233.0,366,466,60,123.0,213,1,223,305,50,0,0,234,-1496,-17920,233,-5.59,44.68055,10.022616,22.95,178.4,0,0.0,-1,0.0,0.0,0,0.63,2.6324
157963,1564214540641,2,2.36,1.1,0.61,1.43,1.16,0.78,-0.02,0.61,6,1,7,0.78,4373,17,92,36,68,829,234.0,360,467,60,123.0,213,1,221,302,50,0,0,233,-1496,-1484,234,-5.59,,,,,,,,,,,,
157983,1564214540661,2,2.35,1.1,0.61,1.42,1.16,0.82,-0.0,0.56,5,1,7,0.82,4481,17,92,36,69,827,234.0,371,468,60,124.0,213,1,230,307,50,0,0,234,-1496,13468,233,-5.59,,,,,,,,,,,,
158003,1564214540693,1,2.35,1.1,0.61,1.42,1.16,0.8,-0.0,0.51,5,2,7,0.8,4454,17,92,36,69,824,234.0,365,464,60,125.0,213,1,228,232,50,0,0,234,-1496,250,234,-5.59,,,,,,,,,,,,
158023,1564214540713,0,2.36,1.1,0.61,1.43,1.16,0.83,-0.02,0.48,5,3,7,0.83,4441,17,92,36,68,822,234.0,369,470,60,123.0,217,1,230,303,51,0,0,235,250,13468,234,-5.59,,,,,,,,,,,,
158043,1564214540733,1,2.35,1.1,0.61,1.43,1.17,0.83,-0.0,0.43,5,3,7,0.83,4499,17,92,36,69,822,234.0,374,466,60,124.0,217,1,231,307,51,0,0,235,250,250,234,-5.59,44.68055,10.022608,22.99,178.4,0,0.0,-1,0.0,0.0,0,0.63,2.634
158063,1564214540753,0,2.36,1.09,0.61,1.42,1.16,0.85,-0.01,0.41,5,3,8,0.85,4460,17,92,36,69,822,233.0,365,466,60,125.0,217,1,228,307,51,0,0,237,18432,250,233,181.28,,,,,,,,,,,,
158083,1564214540773,-1,2.35,1.09,0.61,1.43,1.16,0.88,-0.01,0.38,4,3,8,0.88,4452,17,92,36,69,821,234.0,366,461,60,125.0,217,1,227,307,51,0,0,237,18432,-1484,234,-5.59,,,,,,,,,,,,
158103,1564214540793,-2,2.36,1.09,0.61,1.43,1.16,0.89,-0.04,0.36,4,2,8,0.89,4444,17,92,36,69,821,235.0,362,462,60,125.0,217,1,227,306,51,0,0,238,10824,-1484,235,181.28,,,,,,,,,,,,
158123,1564214540804,-1,2.35,1.09,0.62,1.43,1.16,0.89,-0.06,0.36,4,0,8,0.89,4478,17,92,36,69,820,235.0,369,461,60,124.0,217,1,230,307,51,0,0,236,10824,23482,235,-5.59,,,,,,,,,,,,
158143,1564214540824,0,2.36,1.09,0.61,1.43,1.16,0.82,-0.05,0.32,4,1,8,0.82,4452,17,92,36,69,819,234.0,362,462,60,125.0,221,1,227,307,52,0,0,242,-1494,250,234,-5.59,44.68055,10.0226,23.44,178.4,0,0.0,-1,0.0,0.0,0,0.63,2.6357
158163,1564214540844,-1,2.35,1.09,0.61,1.43,1.16,0.79,-0.07,0.34,3,1,8,0.79,4451,18,92,36,69,818,233.0,368,468,60,125.0,221,1,227,307,52,0,0,239,-1494,250,233,-5.59,,,,,,,,,,,,
158183,1564214540864,-2,2.36,1.09,0.61,1.43,1.17,0.79,-0.04,0.39,3,1,8,0.79,4491,18,92,36,69,816,233.0,374,463,60,125.0,221,1,231,307,52,0,0,242,250,-1484,233,-5.59,,,,,,,,,,,,
158203,1564214540895,-1,2.34,1.09,0.61,1.43,1.16,0.82,-0.03,0.47,2,2,8,0.82,4539,18,92,36,69,816,235.0,373,466,60,125.0,221,1,235,308,52,0,0,240,13602,23482,235,-5.59,,,,,,,,,,,,
158223,1564214540915,-1,2.34,1.1,0.61,1.42,1.16,0.84,-0.01,0.53,2,2,8,0.84,4553,18,92,36,69,816,236.0,378,465,60,124.0,224,1,236,309,53,0,0,241,8704,23482,236,-5.59,,,,,,,,,,,,
158243,1564214540935,0,2.33,1.09,0.61,1.43,1.16,0.86,0.02,0.54,3,1,8,0.86,4550,18,92,36,69,816,236.0,378,463,60,124.0,224,1,236,309,53,0,0,239,250,-1445,236,-5.59,44.68055,10.022592,23.39,178.4,0,0.0,-1,0.0,0.0,0,0.63,2.6374
158263,1564214540955,-1,2.34,1.09,0.61,1.42,1.16,0.87,-0.02,0.55,3,-1,8,0.87,4521,18,92,36,70,816,237.0,374,462,60,126.0,224,1,233,312,53,0,0,238,10824,-1445,237,181.28,,,,,,,,,,,,
158283,1564214540975,-1,2.33,1.09,0.61,1.43,1.15,0.87,-0.02,0.49,3,-1,8,0.87,4531,18,92,36,70,816,237.0,375,466,60,124.0,224,1,234,312,53,0,0,239,-1494,-1445,237,-5.59,,,,,,,,,,,,
158303,1564214540995,1,2.32,1.09,0.61,1.42,1.16,0.87,-0.03,0.47,3,1,7,0.87,4471,18,92,36,70,817,237.0,366,466,60,126.0,224,1,229,311,53,0,0,242,8704,10812,237,-5.59,,,,,,,,,,,,
158323,1564214541001,-0,2.32,1.09,0.61,1.42,1.16,0.86,-0.04,0.44,2,1,7,0.86,4496,18,92,36,70,817,238.0,370,466,60,124.0,224,1,231,311,53,0,0,243,-1483,250,238,-5.59,,,,,,,,,,,,
158343,1564214541021,-1,2.31,1.09,0.61,1.42,1.16,0.87,-0.05,0.43,2,1,7,0.88,4495,18,92,36,70,818,237.0,370,463,60,126.0,222,1,231,311,53,0,0,242,-1483,15360,237,-5.59,44.68055,10.022583,23.5,178.3,0,0.0,-1,0.0,0.0,0,0.63,2.639
158363,1564214541041,1,2.31,1.1,0.61,1.43,1.16,0.88,-0.07,0.42,2,1,7,0.88,4542,18,92,36,70,819,237.0,375,469,60,124.0,222,1,235,312,53,0,0,242,-1483,250,237,-5.59,,,,,,,,,,,,
158383,1564214541061,-0,2.32,1.09,0.6,1.43,1.16,0.88,-0.06,0.37,2,2,6,0.89,4589,18,92,36,70,820,235.0,381,466,60,124.0,222,1,239,314,53,0,0,242,13602,-17920,235,-5.59,,,,,,,,,,,,
158403,1564214541093,1,2.32,1.09,0.61,1.42,1.16,0.89,-0.06,0.33,2,3,6,0.9,4560,19,92,36,70,823,237.0,378,462,60,124.0,222,1,235,313,53,0,0,243,-1483,250,237,-5.59,,,,,,,,,,,,
158423,1564214541113,2,2.31,1.08,0.6,1.43,1.15,0.88,-0.06,0.33,1,4,5,0.88,4585,19,92,36,70,827,237.0,387,465,60,123.0,227,1,239,314,54,0,0,245,250,-17920,238,-5.59,,,,,,,,,,,,
158443,1564214541133,3,2.31,1.1,0.61,1.43,1.16,0.89,-0.07,0.32,1,5,5,0.89,4547,19,92,36,70,831,238.0,382,465,60,123.0,227,1,235,312,54,0,0,245,13468,10812,238,-5.59,44.68055,10.022575,23.52,178.3,0,0.0,-1,0.0,0.0,0,0.63,2.6407
158463,1564214541153,1,2.32,1.1,0.61,1.42,1.16,0.9,-0.07,0.33,1,5,5,0.9,4577,19,92,36,70,835,238.0,377,464,60,123.0,227,1,238,312,54,0,0,244,-25600,15360,238,-5.59,,,,,,,,,,,,
158483,1564214541173,4,2.32,1.1,0.6,1.43,1.15,0.9,-0.07,0.35,1,5,4,0.9,4563,19,92,36,70,838,237.0,380,466,60,123.0,227,1,237,313,54,0,0,243,250,15360,237,-5.59,,,,,,,,,,,,
158503,1564214541193,2,2.31,1.09,0.61,1.43,1.16,0.85,-0.06,0.33,1,5,3,0.85,4545,19,92,36,70,842,239.0,375,463,60,123.0,227,1,235,312,54,0,0,242,250,15360,239,-5.59,,,,,,,,,,,,
158523,1564214541200,3,2.31,1.09,0.61,1.43,1.16,0.81,-0.05,0.3,1,6,3,0.81,4578,19,92,36,70,843,238.0,384,468,60,123.0,227,1,238,314,54,0,0,245,-25600,10812,238,-5.59,,,,,,,,,,,,
158543,1564214541220,-0,2.32,1.09,0.61,1.43,1.16,0.79,-0.06,0.34,1,6,3,0.79,4566,19,92,36,70,843,240.0,380,465,60,122.0,226,1,237,238,54,0,0,245,-1484,23482,240,-5.59,44.68055,10.022567,24.11,178.3,0,0.0,-1,0.0,0.0,0,0.63,2.6424
158563,1564214541240,-1,2.31,1.09,0.61,1.43,1.16,0.77,-0.04,0.4,1,5,3,0.77,4578,19,92,36,70,841,240.0,377,458,60,124.0,226,1,238,318,54,0,0,246,-1484,15360,240,-5.59,,,,,,,,,,,,
158583,1564214541260,-0,2.31,1.09,0.61,1.42,1.15,0.79,0.0,0.45,1,3,2,0.79,4641,19,92,36,70,838,240.0,386,455,60,125.0,226,1,243,315,54,0,0,247,-1484,10812,240,-5.59,,,,,,,,,,,,
158603,1564214541280,-2,2.31,1.09,0.61,1.42,1.16,0.79,0.03,0.52,1,1,2,0.79,4636,19,92,36,71,836,239.0,382,457,60,123.0,226,1,243,319,54,0,0,246,-1484,-1494,239,181.28,,,,,,,,,,,,
158623,1564214541310,-1,2.31,1.09,0.61,1.42,1.16,0.81,0.05,0.55,1,-1,1,0.81,4665,19,92,36,71,833,240.0,384,462,60,125.0,229,1,245,316,55,0,0,246,250,250,240,-5.59,,,,,,,,,,,,
158643,1564214541330,-0,2.31,1.1,0.61,1.42,1.16,0.79,0.08,0.56,1,-2,2,0.8,4630,19,92,36,71,831,241.0,377,458,60,125.0,229,1,243,319,55,0,0,246,250,250,241,-5.59,44.68055,10.022557,24.16,178.3,0,0.0,-1,0.0,0.0,0,0.63,2.6441
158663,1564214541350,0,2.3,1.09,0.61,1.43,1.15,0.79,0.07,0.56,1,-1,2,0.79,4610,19,92,36,71,828,241.0,382,463,60,126.0,229,1,241,319,55,0,0,249,-17920,-1494,241,-5.59,,,,,,,,,,,,
158683,1564214541370,1,2.31,1.09,0.61,1.42,1.15,0.8,0.03,0.56,1,-1,2,0.8,4675,19,92,36,71,827,242.0,385,462,60,126.0,229,1,246,320,55,0,0,249,23482,16896,242,-5.59,,,,,,,,,,,,
158703,1564214541390,2,2.31,1.1,0.6,1.43,1.16,0.8,0.01,0.5,0,1,2,0.8,4678,19,92,36,71,827,242.0,385,466,60,124.0,229,1,246,320,55,0,0,249,-17920,250,242,-5.59,,,,,,,,,,,,
158723,1564214541402,2,2.31,1.1,0.61,1.43,1.16,0.8,0.01,0.49,0,2,2,0.8,4714,19,92,36,71,827,242.0,391,467,60,124.0,229,1,246,320,55,0,0,250,-17920,10818,242,-5.59,,,,,,,,,,,,
158743,1564214541422,-2,2.32,1.09,0.61,1.42,1.16,0.77,0.01,0.51,1,1,2,0.77,4687,19,92,36,71,828,243.0,394,461,60,124.0,235,1,247,320,57,0,0,250,-1445,-214,243,-5.59,44.68055,10.02255,24.18,178.2,0,0.0,-1,0.0,0.0,0,0.63,2.6457
158763,1564214541442,-1,2.3,1.09,0.6,1.43,1.16,0.75,0.03,0.54,0,1,2,0.75,4666,19,92,36,71,829,244.0,388,459,60,124.0,235,1,245,320,57,0,0,252,-1445,16896,244,-5.59,,,,,,,,,,,,
158783,1564214541462,-1,2.3,1.09,0.61,1.43,1.16,0.76,0.06,0.56,0,0,2,0.77,4678,19,92,36,71,830,245.0,384,458,60,125.0,235,1,246,320,57,0,0,251,250,-214,245,-5.59,,,,,,,,,,,,
158803,1564214541482,-1,2.31,1.09,0.61,1.43,1.15,0.79,0.1,0.6,1,-1,1,0.8,4667,19,92,36,71,831,245.0,382,458,60,125.0,235,1,246,320,57,0,0,251,15360,10818,245,-5.59,,,,,,,,,,,,
158823,1564214541510,-1,2.31,1.09,0.61,1.43,1.16,0.79,0.1,0.59,1,-2,1,0.8,4686,19,92,36,71,832,246.0,383,467,60,125.0,229,1,247,320,56,0,0,252,10812,-1,244,181.28,,,,,,,,,,,,
158843,1564214541530,2,2.3,1.1,0.61,1.42,1.16,0.79,0.12,0.53,0,-0,2,0.8,4699,19,92,36,71,833,245.0,388,464,60,125.0,229,1,248,320,56,0,0,253,15360,-1,244,-5.59,44.68055,10.022541,24.36,178.2,0,0.0,-1,0.0,0.0,0,0.63,2.6474
158863,1564214541550,1,2.31,1.09,0.61,1.42,1.16,0.81,0.11,0.51,1,1,2,0.81,4745,19,92,36,71,834,246.0,389,463,60,124.0,229,1,255,322,56,0,0,251,15360,-1,246,-5.59,,,,,,,,,,,,
158883,1564214541570,-1,2.31,1.09,0.61,1.42,1.16,0.77,0.1,0.54,1,2,1,0.77,4767,19,92,36,71,834,246.0,400,465,60,123.0,229,1,254,323,56,0,0,252,10812,-214,245,-5.59,,,,,,,,,,,,
158903,1564214541590,-1,2.31,1.09,0.61,1.43,1.16,0.79,0.11,0.59,1,1,0,0.8,4802,19,92,36,71,833,247.0,400,462,60,125.0,229,1,257,324,56,0,0,255,-1494,-1,247,-5.59,,,,,,,,,,,,
158923,1564214541604,-0,2.3,1.09,0.61,1.42,1.15,0.78,0.12,0.64,1,-0,0,0.79,4749,19,92,36,71,832,247.0,397,460,60,125.0,229,1,252,322,56,0,0,256,250,-1,247,-5.59,,,,,,,,,,,,
158943,1564214541624,1,2.3,1.1,0.61,1.43,1.15,0.81,0.13,0.64,0,-0,1,0.82,4779,19,92,36,72,831,247.0,396,466,60,125.0,234,1,256,323,58,0,0,254,-1494,-1281,247,-5.59,44.68055,10.022532,24.64,178.2,0,0.0,-1,0.0,0.0,0,0.63,2.649
158963,1564214541644,2,2.3,1.09,0.6,1.42,1.16,0.8,0.09,0.61,0,-0,1,0.8,4739,19,92,36,72,829,249.0,391,467,60,124.0,234,1,252,325,58,0,0,255,250,-1,249,-5.59,,,,,,,,,,,,
158983,1564214541664,3,2.3,1.1,0.61,1.43,1.16,0.74,0.07,0.52,1,2,1,0.74,4696,19,92,36,72,829,249.0,392,468,60,124.0,234,1,249,325,58,0,0,255,250,-1281,249,-5.59,,,,,,,,,,,,
159003,1564214541692,-0,2.3,1.08,0.6,1.43,1.15,0.73,0.06,0.51,1,2,0,0.73,4712,20,92,36,71,830,249.0,394,462,60,123.0,234,1,249,325,58,0,0,256,250,506,249,-5.59,,,,,,,,,,,,
159023,1564214541712,-1,2.31,1.09,0.6,1.43,1.15,0.72,0.05,0.6,1,1,0,0.72,4769,20,92,36,71,831,249.0,392,458,60,124.0,233,1,254,323,58,0,0,256,16896,-1,248,-5.59,,,,,,,,,,,,
159043,1564214541732,-2,2.31,1.09,0.61,1.43,1.15,0.77,0.07,0.66,1,-0,-0,0.77,4832,20,92,36,72,832,250.0,400,460,60,125.0,233,1,260,324,58,0,0,257,10818,506,250,-5.59,44.680553,10.022523,24.68,178.2,0,0.0,-1,0.0,0.0,0,0.63,2.6507
159063,1564214541752,2,2.31,1.09,0.61,1.42,1.15,0.79,0.04,0.65,1,-1,0,0.79,4838,20,92,36,72,832,250.0,396,458,60,124.0,233,1,260,324,58,0,0,258,10818,506,250,-5.59,,,,,,,,,,,,
159083,1564214541772,3,2.31,1.09,0.6,1.43,1.16,0.75,0.04,0.56,1,1,1,0.75,4852,20,92,36,72,830,250.0,407,468,60,124.0,233,1,262,329,58,0,0,256,10818,-10440,250,-5.59,,,,,,,,,,,,
159103,1564214541792,-2,2.32,1.09,0.6,1.43,1.15,0.73,0.03,0.62,1,1,-0,0.73,4856,20,92,36,72,828,250.0,414,462,60,123.0,233,1,262,329,58,0,0,258,10818,-1281,250,-5.59,,,,,,,,,,,,
159123,1564214541806,-2,2.32,1.09,0.6,1.43,1.16,0.74,0.0,0.69,1,-1,-1,0.74,4833,20,92,36,71,825,250.0,405,459,60,124.0,233,1,259,249,58,0,0,258,10818,-41,249,-5.59,,,,,,,,,,,,
159143,1564214541826,-0,2.32,1.09,0.61,1.43,1.16,0.78,0.02,0.67,0,-1,-0,0.78,4807,20,92,36,72,819,251.0,401,464,60,125.0,236,1,258,328,59,0,0,260,-214,-41,250,181.28,44.680553,10.022514,24.84,178.2,0,0.0,-1,0.0,0.0,0,0.63,2.6524
159163,1564214541846,2,2.32,1.09,0.61,1.42,1.16,0.8,-0.0,0.65,0,-1,0,0.8,4778,20,92,36,72,812,251.0,403,466,60,124.0,236,1,256,327,59,0,0,258,-1,-1,250,-5.59,,,,,,,,,,,,
159183,1564214541866,3,2.32,1.09,0.61,1.43,1.16,0.79,-0.01,0.58,0,1,0,0.79,4770,20,92,36,72,808,252.0,403,467,60,123.0,236,1,255,326,59,0,0,258,-214,14337,251,-5.59,,,,,,,,,,,,
159203,1564214541894,-1,2.31,1.1,0.6,1.43,1.15,0.79,-0.02,0.62,0,1,-0,0.79,4837,20,92,36,71,805,252.0,411,458,60,124.0,236,1,260,328,59,0,0,258,-214,-41,251,-5.59,,,,,,,,,,,,
159223,1564214541914,-2,2.32,1.09,0.61,1.43,1.15,0.79,-0.0,0.67,1,-2,-1,0.79,4801,20,92,36,72,801,251.0,396,462,60,125.0,235,1,257,328,59,0,0,258,-214,-1,251,-5.59,,,,,,,,,,,,
159243,1564214541934,0,2.31,1.09,0.61,1.43,1.16,0.82,-0.0,0.64,1,-1,-0,0.82,4857,20,92,36,72,798,253.0,397,465,60,124.0,235,1,262,329,59,0,0,258,-1,-41,253,-5.59,44.680553,10.022506,25.3,178.2,0,0.0,-1,0.0,0.0,0,0.63,2.654
159263,1564214541954,3,2.31,1.09,0.61,1.43,1.16,0.79,-0.01,0.59,1,-0,0,0.79,4871,20,92,36,72,796,253.0,401,464,60,124.0,235,1,263,329,59,0,0,260,-1,-1,251,-5.59,,,,,,,,,,,,
159283,1564214541974,-2,2.3,1.09,0.61,1.43,1.16,0.75,-0.01,0.61,1,1,-0,0.75,4886,20,92,36,72,796,253.0,405,463,60,123.0,235,1,264,330,59,0,0,258,-1,-1,253,-5.59,,,,,,,,,,,,
159303,1564214541994,-1,2.3,1.1,0.61,1.43,1.16,0.79,0.03,0.67,1,-1,-1,0.79,4912,20,92,36,72,797,253.0,415,462,60,124.0,235,1,266,331,59,0,0,260,-1,-1,253,-5.59,,,,,,,,,,,,
159323,1564214542002,2,2.29,1.1,0.61,1.43,1.16,0.78,0.06,0.6,1,-2,-0,0.79,4880,20,92,36,72,798,253.0,407,459,60,125.0,235,1,264,325,59,0,0,258,-1,-1,253,-5.59,,,,,,,,,,,,
159343,1564214542022,3,2.29,1.09,0.61,1.44,1.15,0.73,0.01,0.55,1,-0,-1,0.73,4871,20,92,36,72,799,256.0,405,467,60,125.0,241,1,263,329,61,0,0,260,-1,-1,256,-5.59,44.680553,10.022496,25.45,178.2,0,0.0,-1,0.0,0.0,0,0.64,2.6557
159363,1564214542042,-2,2.31,1.1,0.6,1.43,1.15,0.78,0.05,0.6,1,1,-1,0.79,4858,20,92,36,72,800,255.0,411,462,60,124.0,241,1,262,329,61,0,0,264,-1281,-41,255,-5.59,,,,,,,,,,,,
159383,1564214542062,-1,2.3,1.09,0.61,1.43,1.16,0.82,0.05,0.6,1,-2,-1,0.82,4847,20,92,36,72,800,256.0,400,459,60,125.0,241,1,261,328,61,0,0,264,506,-1,256,-5.59,,,,,,,,,,,,
159403,1564214542092,1,2.3,1.1,0.61,1.43,1.16,0.85,0.04,0.56,1,-2,-1,0.85,4852,20,91,36,72,801,257.0,402,463,60,124.0,241,1,262,329,61,0,0,262,14337,-1,256,-5.59,,,,,,,,,,,,
159423,1564214542112,4,2.3,1.1,0.61,1.43,1.17,0.78,0.06,0.49,1,-1,-0,0.78,4879,20,91,36,72,800,255.0,413,467,60,124.0,239,1,263,330,61,0,0,261,-1281,-1,255,-5.59,,,,,,,,,,,,
159443,1564214542132,-0,2.31,1.1,0.61,1.43,1.17,0.8,0.03,0.61,1,-2,-2,0.8,4866,20,91,36,72,799,255.0,412,462,60,123.0,239,1,263,329,61,0,0,261,-1,-1,255,-5.59,44.680553,10.022488,25.52,178.2,0,0.0,-1,0.0,0.0,0,0.64,2.6574
159463,1564214542152,-1,2.32,1.1,0.6,1.43,1.16,0.83,0.02,0.59,1,-2,-2,0.83,4956,20,92,36,72,797,254.0,410,460,60,124.0,239,1,270,332,61,0,0,263,-1,-1,254,-5.59,,,,,,,,,,,,
159483,1564214542172,2,2.31,1.1,0.61,1.43,1.15,0.79,0.02,0.51,1,-2,-1,0.79,4964,20,92,36,72,795,256.0,413,460,60,124.0,239,1,271,327,61,0,0,262,-1281,-1,256,-5.59,,,,,,,,,,,,
159503,1564214542192,-0,2.31,1.09,0.6,1.43,1.17,0.74,0.0,0.58,1,0,-0,0.74,4952,20,91,36,72,793,257.0,420,462,60,122.0,239,1,270,333,61,0,0,263,506,-1,256,-5.59,,,,,,,,,,,,
159523,1564214542203,-2,2.31,1.09,0.61,1.43,1.16,0.77,0.03,0.67,0,-1,-1,0.77,4985,20,91,36,71,790,257.0,418,460,60,124.0,239,1,272,254,61,0,0,264,14337,-1,256,-5.59,,,,,,,,,,,,
159543,1564214542223,2,2.32,1.09,0.61,1.43,1.16,0.8,0.02,0.56,0,-2,-1,0.8,4972,20,91,36,71,790,258.0,416,462,60,125.0,242,1,271,327,62,0,0,264,-10440,-1,256,-5.59,44.680553,10.022478,25.72,178.2,0,0.0,-1,0.0,0.0,0,0.64,2.659
159563,1564214542243,-0,2.3,1.1,0.61,1.43,1.15,0.73,0.02,0.59,0,-0,-1,0.73,4945,20,91,36,71,789,258.0,422,463,60,123.0,242,1,269,331,62,0,0,266,-10440,-1,258,-5.59,,,,,,,,,,,,
159583,1564214542263,-1,2.3,1.1,0.61,1.43,1.15,0.8,0.05,0.63,1,-1,-2,0.8,4943,20,91,36,71,788,259.0,414,459,60,123.0,242,1,269,326,62,0,0,264,-10440,-1,257,-5.59,,,,,,,,,,,,
159603,1564214542291,-1,2.31,1.1,0.61,1.43,1.17,0.85,0.01,0.6,0,-3,-1,0.85,4922,20,92,36,71,790,258.0,407,460,60,124.0,242,1,267,326,62,0,0,267,-10440,-1,258,-5.59,,,,,,,,,,,,
159623,1564214542311,3,2.3,1.1,0.6,1.44,1.16,0.79,0.0,0.56,0,-1,-0,0.79,4936,20,91,36,72,792,259.0,415,468,60,124.0,235,1,268,331,61,0,0,266,-10440,-1,259,-5.59,,,,,,,,,,,,
159643,1564214542331,-0,2.3,1.1,0.61,1.42,1.16,0.82,-0.02,0.67,0,-1,-1,0.82,4949,20,91,36,72,794,260.0,415,466,60,123.0,235,1,269,331,61,0,0,266,-41,-1,260,-5.59,44.680553,10.022469,25.78,178.2,0,0.0,-1,0.0,0.0,0,0.64,2.6607
159663,1564214542351,-2,2.3,1.09,0.61,1.42,1.16,0.84,0.0,0.65,1,-4,-1,0.84,4959,20,91,36,71,795,260.0,418,461,60,125.0,235,1,270,327,61,0,0,266,-41,-1,260,-5.59,,,,,,,,,,,,
159683,1564214542371,3,2.29,1.1,0.6,1.42,1.16,0.78,0.01,0.53,0,-3,-0,0.78,4993,20,91,36,71,796,259.0,409,462,60,125.0,235,1,273,328,61,0,0,266,-10440,-1,259,-5.59,,,,,,,,,,,,
159703,1564214542391,-1,2.29,1.1,0.61,1.44,1.17,0.82,0.04,0.61,1,-2,-1,0.83,5038,20,91,36,71,797,259.0,420,463,60,123.0,235,1,277,330,61,0,0,265,-10440,-1,259,-5.59,,,,,,,,,,,,
159723,1564214542407,1,2.3,1.1,0.61,1.43,1.16,0.83,0.03,0.61,1,-3,-1,0.83,5051,20,91,36,71,797,260.0,427,458,60,125.0,242,1,278,330,63,0,0,266,-1,-1,260,-5.59,,,,,,,,,,,,
159743,1564214542427,3,2.3,1.09,0.61,1.44,1.17,0.79,-0.0,0.56,0,-1,0,0.79,5044,20,91,36,71,798,261.0,421,463,60,124.0,242,1,277,330,63,0,0,270,-1,-1,260,-5.59,44.680553,10.022459,26.14,178.2,0,0.0,-1,0.0,0.0,0,0.64,2.6624
159763,1564214542447,-2,2.3,1.1,0.61,1.43,1.16,0.83,0.04,0.69,0,-1,-1,0.83,5055,20,91,36,71,798,263.0,423,462,60,123.0,242,1,278,256,63,0,0,270,-1,-1,261,-5.59,,,,,,,,,,,,
159783,1564214542467,2,2.29,1.1,0.61,1.43,1.16,0.86,0.01,0.61,0,-3,-2,0.86,5049,20,91,36,70,798,263.0,420,462,60,124.0,242,1,278,325,63,0,0,273,-1,-1,260,-5.59,,,,,,,,,,,,
159803,1564214542493,-2,2.3,1.1,0.61,1.43,1.17,0.76,0.01,0.58,0,0,-0,0.76,5092,20,91,36,71,801,263.0,421,468,60,124.0,242,1,281,325,63,0,0,269,-1,-1,262,-5.59,,,,,,,,,,,,
159823,1564214542513,-2,2.29,1.1,0.61,1.43,1.17,0.81,0.08,0.62,0,-0,-2,0.81,5038,20,91,36,70,804,264.0,427,461,60,123.0,242,1,277,325,63,0,0,273,-1,-1,262,-5.59,,,,,,,,,,,,
159843,1564214542533,0,2.3,1.1,0.61,1.44,1.16,0.83,0.03,0.54,-0,-3,-1,0.83,5000,20,91,36,71,807,264.0,421,463,60,125.0,237,1,274,325,62,0,0,273,-1,28160,262,-5.59,44.680553,10.02245,25.89,178.2,0,0.0,-1,0.0,0.0,0,0.64,2.6641
159863,1564214542553,-0,2.3,1.09,0.61,1.43,1.16,0.72,-0.01,0.54,-0,-0,0,0.72,4990,20,91,36,71,810,264.0,420,466,60,123.0,237,1,273,329,62,0,0,270,-1,-1,261,-5.59,,,,,,,,,,,,
159883,1564214542573,-2,2.3,1.1,0.61,1.43,1.17,0.76,0.06,0.65,0,-2,-2,0.76,5028,20,91,36,70,814,262.0,423,464,60,123.0,237,1,276,325,62,0,0,269,-1,-1,262,-5.59,,,,,,,,,,,,
159903,1564214542593,2,2.3,1.09,0.61,1.43,1.17,0.76,0.03,0.52,-0,-2,-1,0.77,5033,21,91,36,71,818,264.0,422,463,60,125.0,237,1,276,325,62,0,0,270,-1,-1,261,-5.59,,,,,,,,,,,,
159923,1564214542605,-1,2.29,1.09,0.61,1.43,1.16,0.74,0.02,0.58,-0,-0,-1,0.74,5053,21,91,36,71,819,265.0,423,469,60,124.0,241,1,278,330,63,0,0,271,-1,-1,262,-5.59,,,,,,,,,,,,
159943,1564214542625,-0,2.3,1.1,0.61,1.43,1.17,0.83,0.02,0.6,0,-2,-2,0.83,5111,21,91,36,70,820,264.0,427,462,60,124.0,241,1,283,325,63,0,0,271,-1,-1,263,-5.59,44.680553,10.022441,26.28,178.2,0,0.0,-1,0.0,0.0,0,0.64,2.6657
159963,1564214542645,-1,2.3,1.1,0.61,1.44,1.16,0.76,0.03,0.57,0,-2,-1,0.76,5121,21,91,36,70,819,263.0,431,461,60,124.0,241,1,284,251,63,0,0,272,-1,28160,263,-5.59,,,,,,,,,,,,
159983,1564214542665,-0,2.29,1.1,0.61,1.44,1.16,0.77,0.05,0.67,1,-2,-2,0.77,5081,21,91,36,70,818,264.0,431,463,60,123.0,241,1,280,325,63,0,0,270,-1,250,264,-5.59,,,,,,,,,,,,
160003,1564214542693,3,2.29,1.1,0.61,1.44,1.16,0.82,0.03,0.56,1,-3,-2,0.82,5120,21,91,36,70,816,264.0,422,460,60,125.0,241,1,284,325,63,0,0,272,-1,-1281,264,-5.59,,,,,,,,,,,,
160023,1564214542713,-0,2.3,1.1,0.61,1.44,1.16,0.78,-0.02,0.7,1,-3,-1,0.78,5095,21,91,36,70,813,264.0,433,468,60,122.0,241,1,281,325,63,0,0,272,-1,28160,264,-5.59,,,,,,,,,,,,
160043,1564214542733,0,2.3,1.1,0.61,1.44,1.16,0.77,0.03,0.69,0,-3,-2,0.77,5073,21,91,36,70,811,265.0,422,460,60,124.0,234,1,280,325,62,0,0,274,-1,2414,265,-5.59,44.680557,10.022431,26.68,178.1,0,0.0,-1,0.0,0.0,0,0.64,2.6674
160063,1564214542753,3,2.3,1.09,0.61,1.43,1.16,0.7,0.01,0.55,-0,-1,-1,0.7,5107,21,91,36,70,808,267.0,422,466,60,125.0,234,1,282,325,62,0,0,274,-1,30208,267,-5.59,,,,,,,,,,,,
160083,1564214542773,-1,2.31,1.1,0.61,1.44,1.17,0.7,0.05,0.63,-0,-1,-1,0.71,5084,21,91,36,70,807,267.0,437,458,60,123.0,234,1,281,325,62,0,0,275,-1,250,267,-5.59,,,,,,,,,,,,
160103,1564214542793,1,2.32,1.1,0.61,1.44,1.16,0.69,0.05,0.6,-1,-1,-2,0.69,5081,21,91,36,70,808,269.0,420,463,60,123.0,234,1,280,325,62,0,0,275,-1,28160,266,181.28,,,,,,,,,,,,
160123,1564214542805,-1,2.32,1.09,0.61,1.44,1.16,0.67,0.01,0.64,-1,2,-1,0.67,5149,21,91,36,70,806,269.0,430,466,60,124.0,234,1,286,252,62,0,0,275,-1,250,268,-5.59,,,,,,,,,,,,
160143,1564214542825,2,2.32,1.1,0.61,1.44,1.16,0.75,0.02,0.73,-0,-0,-2,0.75,5149,21,91,36,70,805,268.0,430,458,60,124.0,235,1,286,326,63,0,0,275,-1,-1527,267,-5.59,44.680557,10.022422,26.86,178.1,0,0.0,-1,0.0,0.0,0,0.64,2.669
160163,1564214542845,-2,2.33,1.1,0.61,1.43,1.16,0.72,0.01,0.68,-0,0,1,0.72,5182,21,91,36,70,803,269.0,431,466,60,122.0,235,1,289,326,63,0,0,274,-1,-1534,269,-5.59,,,,,,,,,,,,
160183,1564214542865,0,2.32,1.1,0.61,1.43,1.17,0.75,0.07,0.77,0,-2,-0,0.75,5218,21,91,36,69,801,269.0,431,457,60,124.0,235,1,292,320,63,0,0,278,-1,250,269,-5.59,,,,,,,,,,,,
160203,1564214542893,0,2.32,1.09,0.61,1.44,1.17,0.69,0.06,0.64,1,0,1,0.69,5243,21,91,36,70,799,270.0,442,466,60,123.0,235,1,292,327,63,0,0,274,-1,630,270,-5.59,,,,,,,,,,,,
160223,1564214542913,0,2.31,1.1,0.61,1.44,1.16,0.75,0.1,0.72,1,-2,0,0.76,5228,21,91,36,69,794,270.0,441,458,60,123.0,233,1,293,320,63,0,0,277,-1,630,271,-5.59,,,,,,,,,,,,
160243,1564214542933,-0,2.3,1.1,0.61,1.43,1.16,0.71,0.03,0.56,0,-1,1,0.71,5195,21,91,36,70,790,271.0,437,467,60,124.0,233,1,290,321,63,0,0,277,-1,-1534,271,-5.59,44.680557,10.022412,27.03,178.1,0,0.0,-1,0.0,0.0,0,0.64,2.6707
160263,1564214542953,-1,2.31,1.09,0.61,1.43,1.16,0.73,0.09,0.67,1,1,2,0.74,5153,21,91,36,69,787,271.0,436,462,60,123.0,233,1,286,320,63,0,0,280,-1,30208,271,-5.59,,,,,,,,,,,,
160283,1564214542973,3,2.31,1.1,0.61,1.43,1.16,0.74,0.09,0.56,1,2,1,0.75,5114,21,91,36,69,785,272.0,431,461,60,124.0,233,1,283,320,63,0,0,277,250,-1534,272,-5.59,,,,,,,,,,,,
160303,1564214542993,-1,2.3,1.1,0.61,1.43,1.16,0.75,0.03,0.68,1,1,1,0.75,5182,21,91,36,69,782,273.0,437,463,60,122.0,233,1,289,326,63,0,0,278,-1281,250,273,-5.59,,,,,,,,,,,,
160323,1564214543001,2,2.3,1.1,0.61,1.44,1.17,0.78,0.02,0.67,0,1,-0,0.78,5145,21,91,36,69,781,272.0,431,461,60,123.0,227,1,286,320,62,0,0,279,250,630,272,-5.59,,,,,,,,,,,,
160343,1564214543021,-2,2.32,1.1,0.61,1.43,1.17,0.75,-0.07,0.63,0,3,2,0.75,5212,21,91,36,70,782,272.0,445,468,60,124.0,227,1,291,326,62,0,0,279,250,250,271,-5.59,44.680557,10.022402,27.18,178.1,0,0.0,-1,0.0,0.0,0,0.64,2.6724
160363,1564214543041,2,2.31,1.1,0.61,1.43,1.17,0.8,-0.01,0.65,-0,2,1,0.8,5196,21,91,36,69,782,271.0,440,461,60,124.0,227,1,290,321,62,0,0,278,-1281,-1529,271,-5.59,,,,,,,,,,,,
160383,1564214543061,-1,2.32,1.1,0.61,1.44,1.16,0.76,-0.07,0.6,-0,4,3,0.77,5233,21,91,36,69,780,272.0,443,466,60,123.0,227,1,298,320,62,0,0,278,-1281,-1534,272,-5.59,,,,,,,,,,,,
160403,1564214543081,3,2.31,1.1,0.61,1.44,1.16,0.76,-0.04,0.66,-0,2,2,0.76,5338,21,91,36,69,778,272.0,440,462,60,124.0,227,1,302,320,62,0,0,280,-1,1886,272,-5.59,,,,,,,,,,,,
160423,1564214543109,-1,2.31,1.1,0.61,1.43,1.16,0.75,-0.03,0.67,0,4,2,0.75,5361,21,91,36,68,775,271.0,451,463,60,123.0,227,1,304,320,62,0,0,277,-1281,-1534,271,-5.59,,,,,,,,,,,,
160443,1564214543129,3,2.31,1.1,0.61,1.43,1.17,0.75,0.01,0.66,-0,2,1,0.75,5334,21,91,36,68,773,274.0,445,463,60,123.0,232,1,302,237,63,0,0,280,2414,-1529,274,-5.59,44.680557,10.022393,26.97,178.1,0,0.0,-1,0.0,0.0,0,0.64,2.674
160463,1564214543149,-1,2.3,1.09,0.61,1.44,1.16,0.8,0.02,0.76,0,1,0,0.8,5272,21,90,36,68,770,274.0,450,464,60,122.0,232,1,296,313,63,0,0,284,2414,1886,273,-5.59,,,,,,,,,,,,
160483,1564214543169,4,2.29,1.1,0.61,1.44,1.17,0.8,0.01,0.67,0,-1,-1,0.8,5163,21,91,36,69,769,274.0,427,461,60,123.0,232,1,287,314,63,0,0,283,28160,1886,274,-5.59,,,,,,,,,,,,
160503,1564214543189,-1,2.29,1.1,0.61,1.44,1.17,0.8,-0.02,0.69,1,1,-0,0.8,5136,21,91,36,69,770,274.0,441,465,60,123.0,232,1,285,245,63,0,0,282,2414,250,272,-5.59,,,,,,,,,,,,
160523,1564214543204,2,2.29,1.1,0.62,1.43,1.17,0.87,0.0,0.71,1,-1,-1,0.87,5134,21,91,36,69,769,273.0,437,458,60,125.0,232,1,285,320,63,0,0,280,250,-1529,273,-5.59,,,,,,,,,,,,
160543,1564214543224,-1,2.29,1.1,0.62,1.43,1.17,0.79,-0.05,0.62,1,1,0,0.79,5152,21,91,36,69,768,274.0,431,466,60,123.0,227,1,286,320,62,0,0,281,28160,630,274,-5.59,44.680557,10.022383,27.44,178.0,0,0.0,-1,0.0,0.0,0,0.64,2.6757
160563,1564214543244,1,2.29,1.1,0.61,1.44,1.16,0.83,-0.01,0.74,0,-1,-0,0.83,5191,21,91,36,69,765,274.0,430,461,60,124.0,227,1,290,321,62,0,0,280,28160,630,274,-5.59,,,,,,,,,,,,
160583,1564214543264,0,2.29,1.1,0.61,1.44,1.16,0.76,-0.01,0.6,-0,-0,-0,0.76,5243,21,91,36,70,762,274.0,436,464,60,124.0,227,1,295,327,62,0,0,280,2414,1886,273,-5.59,,,,,,,,,,,,
160603,1564214543284,1,2.28,1.1,0.61,1.43,1.16,0.86,0.04,0.69,-0,-3,-1,0.86,5298,21,91,36,69,758,274.0,438,459,60,123.0,227,1,299,321,62,0,0,281,2414,-1529,272,-5.59,,,,,,,,,,,,
160623,1564214543310,0,2.28,1.1,0.61,1.43,1.16,0.76,-0.01,0.62,-1,-3,-1,0.76,5334,21,90,36,69,757,275.0,448,466,60,123.0,235,1,302,320,64,0,0,282,-1527,24064,272,-5.59,,,,,,,,,,,,
160643,1564214543330,3,2.28,1.1,0.61,1.43,1.17,0.84,0.03,0.64,-1,-4,-1,0.84,5352,21,91,35,68,753,275.0,451,460,60,123.0,235,1,303,312,64,0,0,282,-1527,1886,272,-5.59,44.680557,10.022373,27.85,178.0,0,0.0,-1,0.0,0.0,0,0.64,2.6774
160663,1564214543350,-0,2.28,1.1,0.61,1.44,1.16,0.81,-0.0,0.63,-1,-1,-2,0.81,5387,21,90,36,68,754,275.0,461,462,60,123.0,235,1,306,312,64,0,0,283,-1527,-1534,273,-5.59,,,,,,,,,,,,
160683,1564214543370,-0,2.29,1.09,0.61,1.44,1.17,0.76,-0.02,0.55,-1,-2,-1,0.76,5397,21,91,36,68,755,275.0,448,461,60,125.0,235,1,307,312,64,0,0,284,-1527,-1529,275,-5.59,,,,,,,,,,,,
160703,1564214543390,-1,2.29,1.1,0.61,1.44,1.17,0.84,0.01,0.66,-1,-2,-1,0.84,5337,21,90,35,67,755,275.0,451,461,60,125.0,235,1,303,312,64,0,0,283,-1527,41,275,-5.59,,,,,,,,,,,,
160723,1564214543398,1,2.28,1.09,0.62,1.43,1.17,0.79,0.03,0.61,-1,-1,-0,0.79,5280,21,91,36,68,757,278.0,447,467,60,124.0,223,1,297,313,62,0,0,287,630,41,277,-5.59,,,,,,,,,,,,
160743,1564214543418,-1,2.29,1.1,0.61,1.43,1.17,0.87,0.05,0.67,-1,-1,-1,0.87,5172,21,90,35,68,756,279.0,439,463,60,123.0,223,1,288,314,62,0,0,287,-1534,250,278,-5.59,44.680557,10.022364,27.45,178.0,0,0.0,-1,0.0,0.0,0,0.65,2.679
160763,1564214543438,2,2.28,1.1,0.61,1.43,1.17,0.85,0.03,0.54,-1,-1,-1,0.85,5159,21,91,35,68,757,278.0,431,458,60,124.0,223,1,287,314,62,0,0,285,630,24064,278,-5.59,,,,,,,,,,,,
160783,1564214543458,-1,2.28,1.1,0.61,1.43,1.17,0.87,0.01,0.68,-1,-2,-0,0.87,5215,21,90,35,69,758,277.0,440,463,60,123.0,223,1,292,320,62,0,0,284,30208,-16896,275,-5.59,,,,,,,,,,,,
160803,1564214543478,3,2.29,1.1,0.61,1.44,1.17,0.84,-0.01,0.65,-2,-1,-1,0.84,5249,21,91,35,69,759,277.0,432,462,60,123.0,223,1,294,320,62,0,0,283,30208,24064,276,-5.59,,,,,,,,,,,,
160823,1564214543510,-1,2.29,1.1,0.62,1.43,1.17,0.86,-0.01,0.65,-1,0,-1,0.86,5307,21,90,35,69,759,277.0,453,467,60,123.0,231,1,299,320,64,0,0,285,30208,-1529,276,-5.59,,,,,,,,,,,,
160843,1564214543530,0,2.3,1.1,0.62,1.43,1.17,0.82,0.0,0.6,-2,-1,-1,0.82,5351,21,90,35,69,760,277.0,443,463,60,124.0,231,1,303,312,64,0,0,284,30208,10686,276,-5.59,44.680557,10.022353,27.96,177.9,0,0.0,-1,0.0,0.0,0,0.65,2.6807
160863,1564214543550,1,2.3,1.1,0.62,1.43,1.17,0.94,0.03,0.66,-2,-1,-1,0.94,5387,21,90,35,68,759,277.0,453,462,60,123.0,231,1,306,321,64,0,0,284,630,1886,276,-5.59,,,,,,,,,,,,
160883,1564214543570,0,2.3,1.1,0.62,1.44,1.16,0.82,-0.03,0.6,-1,1,0,0.82,5397,21,90,35,68,759,277.0,448,463,60,125.0,231,1,307,312,64,0,0,284,30208,1886,277,-5.59,,,,,,,,,,,,
160903,1564214543590,3,2.31,1.09,0.61,1.43,1.18,0.82,0.0,0.63,-1,0,-0,0.82,5458,21,90,35,68,759,276.0,457,462,60,124.0,231,1,312,311,64,0,0,284,250,-16896,276,-5.59,,,,,,,,,,,,
160923,1564214543600,-1,2.31,1.1,0.62,1.44,1.16,0.83,0.03,0.72,-1,0,-0,0.83,5441,21,90,35,67,757,276.0,464,461,60,124.0,231,1,313,303,64,0,0,284,250,10686,276,-5.59,,,,,,,,,,,,
160943,1564214543620,-1,2.3,1.1,0.62,1.44,1.16,0.77,-0.0,0.65,-1,0,0,0.77,5389,21,90,35,67,757,277.0,448,463,60,124.0,224,1,308,304,62,0,0,285,30208,41,279,-5.59,44.680557,10.022344,27.88,177.9,0,0.0,-1,0.0,0.0,0,0.65,2.6824
160963,1564214543640,0,2.31,1.1,0.61,1.44,1.16,0.81,0.05,0.7,-1,-1,-0,0.82,5240,21,90,35,67,754,278.0,453,459,60,124.0,224,1,295,305,62,0,0,286,630,0,278,-5.59,,,,,,,,,,,,
160983,1564214543660,3,2.3,1.1,0.61,1.44,1.17,0.81,0.07,0.54,-1,-1,0,0.81,5161,21,90,35,68,754,280.0,441,469,60,123.0,224,1,287,314,62,0,0,286,-1534,41,280,-5.59,,,,,,,,,,,,
161003,1564214543692,-1,2.3,1.09,0.61,1.44,1.16,0.83,0.01,0.59,-1,-1,1,0.83,5108,21,90,35,68,753,280.0,437,457,60,123.0,224,1,283,314,62,0,0,286,630,-16896,280,-5.59,,,,,,,,,,,,
161023,1564214543712,3,2.3,1.1,0.61,1.44,1.17,0.84,0.01,0.51,-1,-1,-0,0.84,5159,21,90,35,69,751,279.0,432,463,60,124.0,218,1,287,314,61,0,0,286,630,0,279,-5.59,,,,,,,,,,,,
161043,1564214543732,-1,2.29,1.1,0.61,1.44,1.17,0.85,0.01,0.52,-1,0,1,0.85,5283,21,90,35,69,749,280.0,443,461,60,123.0,218,1,297,321,61,0,0,285,-1534,41,280,-5.59,44.680557,10.022333,27.97,177.8,0,0.0,-1,0.0,0.0,0,0.65,2.6841
161063,1564214543752,4,2.3,1.1,0.6,1.43,1.17,0.81,0.0,0.55,-1,-0,1,0.81,5316,22,90,35,69,747,279.0,440,462,60,124.0,218,1,300,312,61,0,0,286,-1534,0,279,-5.59,,,,,,,,,,,,
161083,1564214543772,1,2.3,1.1,0.61,1.44,1.17,0.86,0.01,0.58,-1,-0,1,0.86,5384,22,90,35,68,745,279.0,451,461,60,124.0,218,1,306,312,61,0,0,283,-1534,10686,278,-5.59,,,,,,,,,,,,
161103,1564214543792,0,2.29,1.1,0.61,1.44,1.17,0.82,0.01,0.56,-1,0,1,0.82,5431,22,90,35,68,746,278.0,464,463,60,124.0,218,1,310,311,61,0,0,286,630,-16896,278,-5.59,,,,,,,,,,,,
161123,1564214543802,3,2.29,1.1,0.62,1.44,1.17,0.88,0.02,0.57,-1,0,1,0.88,5521,22,90,35,67,748,280.0,465,464,60,124.0,225,1,319,302,63,0,0,283,-1534,10686,280,-5.59,,,,,,,,,,,,
161143,1564214543822,2,2.31,1.1,0.61,1.44,1.17,0.85,0.01,0.61,-1,1,0,0.85,5622,22,90,35,67,752,279.0,471,462,60,123.0,225,1,328,301,63,0,0,284,630,250,279,-5.59,44.680557,10.022324,28.0,177.8,0,0.0,-1,0.0,0.0,0,0.65,2.6857
161163,1564214543842,1,2.3,1.1,0.61,1.44,1.17,0.71,0.02,0.63,-1,2,-0,0.71,5685,22,90,35,66,757,278.0,473,463,60,124.0,225,1,336,292,63,0,0,288,30208,41,278,-5.59,,,,,,,,,,,,
161183,1564214543862,-1,2.3,1.1,0.61,1.44,1.16,0.64,-0.02,0.61,-1,1,-1,0.64,5598,22,90,35,65,760,280.0,476,466,60,123.0,225,1,330,286,63,0,0,291,250,80,279,-5.59,,,,,,,,,,,,
161203,1564214543894,1,2.3,1.1,0.62,1.44,1.17,0.76,0.03,0.68,-1,-1,-1,0.76,5452,22,90,35,65,763,281.0,466,461,60,124.0,225,1,316,287,63,0,0,292,24064,85,281,-5.59,,,,,,,,,,,,
161223,1564214543914,-0,2.3,1.1,0.61,1.44,1.17,0.63,0.03,0.55,-1,1,0,0.63,5240,22,90,35,66,763,283.0,456,465,60,124.0,212,1,296,298,60,0,0,292,1886,21760,283,-5.59,,,,,,,,,,,,
161243,1564214543934,-2,2.28,1.09,0.61,1.43,1.17,0.68,0.07,0.64,-0,-1,-1,0.68,5106,22,90,35,66,761,284.0,445,461,60,124.0,212,1,283,299,60,0,0,292,1886,20480,284,-5.59,44.680561,10.022314,27.87,177.8,0,0.0,-1,0.0,0.0,0,0.65,2.6874
161263,1564214543954,2,2.31,1.1,0.62,1.44,1.17,0.7,0.02,0.54,-1,-1,-1,0.7,5026,22,90,35,68,759,283.0,420,464,60,125.0,212,1,276,240,60,0,0,288,1886,0,283,-5.59,,,,,,,,,,,,
161283,1564214543974,-1,2.29,1.1,0.62,1.44,1.16,0.68,-0.01,0.63,-0,0,0,0.68,5097,22,90,35,68,753,284.0,428,466,60,123.0,212,1,282,315,60,0,0,288,250,80,283,-5.59,,,,,,,,,,,,
161303,1564214543994,1,2.31,1.1,0.61,1.44,1.17,0.72,0.02,0.67,-1,0,-1,0.72,5153,22,90,35,68,749,285.0,434,460,60,125.0,212,1,286,314,60,0,0,290,-16896,20480,282,181.28,,,,,,,,,,,,
161323,1564214544000,-1,2.3,1.1,0.61,1.44,1.17,0.71,-0.06,0.65,-1,-0,-0,0.72,5228,22,90,35,69,748,284.0,431,467,60,124.0,212,1,293,320,60,0,0,290,250,20480,284,-5.59,,,,,,,,,,,,
161343,1564214544020,4,2.3,1.1,0.62,1.45,1.17,0.74,-0.03,0.64,-1,-1,-2,0.74,5269,22,90,35,69,747,284.0,434,461,60,124.0,221,1,296,320,63,0,0,290,250,0,282,-5.59,44.680561,10.022304,28.37,177.8,0,0.0,-1,0.0,0.0,0,0.65,2.689
161363,1564214544040,1,2.3,1.1,0.61,1.44,1.17,0.74,-0.08,0.59,-0,1,-1,0.74,5370,22,90,35,69,750,283.0,450,463,60,123.0,221,1,305,321,63,0,0,291,250,0,282,-5.59,,,,,,,,,,,,
161383,1564214544060,-1,2.3,1.1,0.62,1.44,1.16,0.71,-0.09,0.59,-0,-0,-1,0.71,5460,22,90,35,69,754,283.0,455,466,60,124.0,221,1,312,321,63,0,0,288,1886,10686,283,-5.59,,,,,,,,,,,,
161403,1564214544092,2,2.3,1.1,0.62,1.44,1.17,0.83,-0.06,0.56,-1,-1,-0,0.83,5578,22,90,35,68,759,283.0,462,460,60,124.0,221,1,322,310,63,0,0,287,1886,0,283,-5.59,,,,,,,,,,,,
161423,1564214544112,3,2.3,1.1,0.61,1.44,1.17,0.85,-0.03,0.57,-0,0,-0,0.85,5737,22,90,35,67,763,283.0,479,459,60,123.0,221,1,338,299,63,0,0,288,24064,0,281,-5.59,,,,,,,,,,,,
161443,1564214544132,2,2.3,1.11,0.61,1.45,1.17,0.83,-0.0,0.58,0,2,-1,0.83,5874,22,90,35,66,764,282.0,493,466,60,124.0,229,1,353,215,65,0,0,290,24064,0,282,-5.59,44.680561,10.022294,28.47,177.7,0,0.0,-1,0.0,0.0,0,0.65,2.6907
161463,1564214544152,3,2.3,1.1,0.61,1.44,1.17,0.84,-0.01,0.63,0,3,-1,0.84,6067,22,90,35,64,766,282.0,506,461,60,123.0,229,1,374,273,65,0,0,288,1886,0,281,-5.59,,,,,,,,,,,,
161483,1564214544172,-2,2.3,1.1,0.62,1.43,1.17,0.94,0.04,0.6,0,4,-1,0.94,6237,22,90,35,62,762,282.0,518,460,60,124.0,229,1,388,272,65,0,0,287,1886,10686,280,-5.59,,,,,,,,,,,,
161503,1564214544192,1,2.29,1.1,0.61,1.44,1.17,0.94,0.09,0.57,1,2,-0,0.95,6379,22,90,35,61,758,282.0,530,461,60,125.0,229,1,397,264,65,0,0,290,1886,0,281,-5.59,,,,,,,,,,,,
161523,1564214544199,3,2.3,1.11,0.61,1.45,1.17,0.87,0.04,0.62,1,2,-1,0.87,6572,22,90,35,60,753,282.0,540,465,60,125.0,238,1,402,271,67,0,0,288,1886,0,281,-5.59,,,,,,,,,,,,
161543,1564214544219,-0,2.3,1.1,0.61,1.45,1.17,0.9,0.07,0.59,1,3,-1,0.9,6660,23,90,35,59,748,281.0,561,462,60,124.0,238,1,402,272,67,0,0,286,24064,0,281,-5.59,44.680561,10.022284,28.29,177.7,0,0.0,-1,0.0,0.0,0,0.65,2.6924
161563,1564214544239,-1,2.3,1.1,0.62,1.44,1.18,0.89,0.01,0.65,1,1,-1,0.89,6788,23,90,35,58,746,282.0,556,465,60,124.0,238,1,402,272,67,0,0,287,24064,-16896,282,-5.59,,,,,,,,,,,,
161583,1564214544259,0,2.3,1.1,0.62,1.44,1.17,0.9,0.07,0.61,1,3,-2,0.9,6880,23,90,35,56,745,281.0,576,463,60,124.0,238,1,397,270,67,0,0,288,250,10686,281,-5.59,,,,,,,,,,,,
161603,1564214544291,-2,2.31,1.1,0.61,1.44,1.18,0.86,0.02,0.59,1,3,-2,0.86,6843,23,90,35,56,744,282.0,571,463,60,124.0,238,1,397,260,67,0,0,287,24064,0,281,-5.59,,,,,,,,,,,,
161623,1564214544311,2,2.31,1.1,0.61,1.44,1.18,0.92,0.01,0.61,0,2,-2,0.92,6944,23,90,35,55,745,280.0,569,463,60,124.0,238,1,393,261,67,0,0,287,250,41,280,-5.59,,,,,,,,,,,,
161643,1564214544331,0,2.31,1.1,0.62,1.44,1.18,0.84,0.08,0.53,1,2,-1,0.84,6939,23,90,35,54,746,279.0,575,468,60,124.0,242,1,389,256,68,0,0,286,-1534,0,279,-5.59,44.680561,10.022274,28.43,177.6,0,0.0,-1,0.0,0.0,0,0.65,2.6941
161663,1564214544351,0,2.31,1.1,0.62,1.44,1.17,0.83,0.05,0.61,1,2,-1,0.83,6965,23,90,35,53,747,279.0,581,463,60,125.0,242,1,386,250,68,0,0,288,630,20480,280,-5.59,,,,,,,,,,,,
161683,1564214544371,2,2.31,1.1,0.61,1.44,1.18,0.91,0.07,0.58,0,1,-0,0.91,6952,23,90,35,53,749,279.0,577,460,60,124.0,242,1,386,250,68,0,0,287,-1534,0,278,-5.59,,,,,,,,,,,,
161703,1564214544391,-2,2.3,1.1,0.62,1.44,1.18,0.77,0.07,0.58,1,2,-2,0.77,6991,23,90,35,52,751,279.0,583,463,60,124.0,242,1,383,245,68,0,0,283,-1534,10686,278,-5.59,,,,,,,,,,,,
161723,1564214544401,-0,2.3,1.11,0.62,1.45,1.18,0.87,0.01,0.55,0,1,-2,0.87,6996,23,90,35,52,751,280.0,583,465,60,124.0,233,1,383,245,65,0,0,284,-1534,41,278,-5.59,,,,,,,,,,,,
161743,1564214544421,2,2.3,1.11,0.62,1.44,1.17,0.85,0.04,0.52,0,1,-1,0.85,6939,23,90,35,51,751,278.0,588,461,60,123.0,233,1,380,240,65,0,0,285,630,-16896,278,-5.59,44.680561,10.022264,27.91,177.6,0,0.0,-1,0.0,0.0,0,0.65,2.6957
161763,1564214544441,0,2.3,1.1,0.62,1.44,1.17,0.8,0.06,0.5,0,2,-1,0.8,7011,23,90,35,52,751,278.0,585,468,60,124.0,233,1,384,246,65,0,0,284,630,41,278,-5.59,,,,,,,,,,,,
161783,1564214544461,0,2.3,1.1,0.62,1.43,1.17,0.86,-0.02,0.62,0,1,-1,0.86,6988,23,90,35,51,750,278.0,592,463,60,124.0,233,1,380,240,65,0,0,283,630,-1529,278,-5.59,,,,,,,,,,,,
161803,1564214544493,2,2.31,1.1,0.62,1.44,1.17,0.88,0.03,0.52,0,0,-1,0.88,6929,23,90,35,51,750,277.0,599,465,60,124.0,233,1,380,240,65,0,0,284,30208,-1529,276,-5.59,,,,,,,,,,,,
161823,1564214544513,-2,2.32,1.1,0.62,1.44,1.18,0.78,0.01,0.53,1,1,-2,0.78,6970,23,90,35,51,749,277.0,587,466,60,123.0,227,1,380,240,63,0,0,282,30208,-16896,277,-5.59,,,,,,,,,,,,
161843,1564214544533,3,2.32,1.1,0.62,1.44,1.17,0.86,-0.01,0.54,0,1,-1,0.86,6939,23,90,35,50,749,277.0,580,462,60,124.0,227,1,377,235,63,0,0,283,250,-1529,277,-5.59,44.680561,10.022255,27.95,177.6,0,0.0,-1,0.0,0.0,0,0.65,2.6974
161863,1564214544553,0,2.32,1.1,0.62,1.44,1.17,0.8,-0.01,0.51,1,2,-1,0.8,6996,23,90,35,51,750,276.0,590,467,60,123.0,227,1,380,240,63,0,0,285,-1527,-16896,275,-5.59,,,,,,,,,,,,
161883,1564214544573,-1,2.32,1.11,0.62,1.44,1.17,0.77,-0.03,0.58,1,2,-2,0.77,6996,23,90,35,51,751,277.0,576,466,60,125.0,227,1,380,240,63,0,0,282,-1527,10686,277,-5.59,,,,,,,,,,,,
161903,1564214544593,1,2.32,1.1,0.62,1.44,1.18,0.86,-0.12,0.65,0,1,-1,0.86,7056,23,90,35,50,752,276.0,591,462,60,125.0,227,1,378,236,63,0,0,280,250,1886,275,-5.59,,,,,,,,,,,,
161923,1564214544601,2,2.33,1.1,0.62,1.44,1.17,0.83,-0.03,0.58,1,1,-1,0.83,7019,23,90,35,50,754,275.0,596,466,60,123.0,225,1,378,236,62,0,0,282,-1527,24064,275,-5.59,,,,,,,,,,,,
161943,1564214544621,-0,2.33,1.11,0.62,1.44,1.17,0.76,-0.01,0.56,1,1,-1,0.76,7067,22,90,35,50,756,276.0,582,466,60,123.0,225,1,378,236,62,0,0,283,-1527,250,276,-5.59,44.680561,10.022244,27.58,177.6,0,0.0,-1,0.0,0.0,0,0.65,2.699
161963,1564214544641,-1,2.34,1.11,0.61,1.44,1.17,0.89,-0.04,0.61,1,1,-1,0.89,7056,22,90,35,50,758,275.0,586,460,60,124.0,225,1,378,236,62,0,0,279,-1527,-1529,276,-5.59,,,,,,,,,,,,
161983,1564214544661,1,2.33,1.1,0.61,1.44,1.17,0.85,-0.03,0.65,1,1,-0,0.85,7086,22,90,35,50,759,275.0,595,463,60,124.0,225,1,378,236,62,0,0,280,28160,24064,275,-5.59,,,,,,,,,,,,
162003,1564214544693,-0,2.33,1.1,0.62,1.45,1.17,0.79,0.04,0.52,2,2,1,0.79,7151,22,90,35,50,759,275.0,596,466,60,123.0,225,1,378,236,62,0,0,279,28160,250,275,-5.59,,,,,,,,,,,,
162023,1564214544713,-0,2.33,1.1,0.61,1.44,1.17,0.77,0.09,0.51,2,2,0,0.77,7186,22,90,35,50,757,275.0,600,467,60,124.0,225,1,378,236,62,0,0,279,250,-1529,275,-5.59,,,,,,,,,,,,
162043,1564214544733,-1,2.32,1.1,0.61,1.45,1.17,0.81,-0.0,0.48,2,0,0,0.81,7217,22,90,35,49,756,275.0,601,463,60,124.0,232,1,375,231,64,0,0,280,250,24064,275,-5.59,44.680561,10.022235,27.62,177.5,0,0.0,-1,0.0,0.0,0,0.66,2.7007
162063,1564214544753,-0,2.32,1.1,0.61,1.43,1.17,0.87,-0.04,0.48,1,0,0,0.87,7309,22,90,35,48,754,275.0,607,462,60,124.0,232,1,372,227,64,0,0,280,250,250,275,-5.59,,,,,,,,,,,,
162083,1564214544773,2,2.33,1.1,0.61,1.44,1.17,0.84,-0.01,0.51,1,-0,1,0.84,7267,22,90,35,48,751,274.0,616,463,60,123.0,232,1,372,227,64,0,0,282,28160,-1529,274,-5.59,,,,,,,,,,,,
162103,1564214544793,1,2.33,1.11,0.62,1.44,1.18,0.76,0.0,0.47,1,1,2,0.76,7338,21,90,35,48,748,274.0,611,465,60,124.0,232,1,372,227,64,0,0,276,-1281,24064,274,-5.59,,,,,,,,,,,,
162123,1564214544802,3,2.33,1.1,0.61,1.44,1.18,0.73,0.11,0.46,2,1,2,0.74,7378,21,89,35,48,745,274.0,625,467,60,123.0,232,1,372,227,64,0,0,276,-1281,24064,274,-5.59,,,,,,,,,,,,
162143,1564214544822,2,2.32,1.1,0.61,1.45,1.17,0.68,0.16,0.43,3,2,1,0.7,7390,21,89,35,47,744,273.0,613,466,60,123.0,229,1,370,222,63,0,0,277,-1281,1886,274,-5.59,44.680561,10.022225,27.09,177.5,0,0.0,-1,0.0,0.0,0,0.66,2.7024
162163,1564214544842,2,2.32,1.11,0.61,1.45,1.17,0.64,0.17,0.37,3,3,1,0.66,7428,21,90,35,47,743,273.0,620,468,60,123.0,229,1,370,222,63,0,0,277,250,30208,273,-5.59,,,,,,,,,,,,
162183,1564214544862,2,2.33,1.11,0.61,1.45,1.17,0.61,0.24,0.31,3,3,2,0.65,7488,21,90,35,46,742,273.0,618,467,60,123.0,229,1,362,220,63,0,0,276,-1,-1534,273,-5.59,,,,,,,,,,,,
162203,1564214544893,0,2.32,1.1,0.62,1.45,1.16,0.52,0.24,0.36,4,2,1,0.58,7497,21,90,35,46,741,272.0,617,463,60,123.0,229,1,362,220,63,0,0,275,-1,-1534,272,-5.59,,,,,,,,,,,,
162223,1564214544913,2,2.31,1.11,0.62,1.45,1.16,0.45,0.27,0.38,4,4,-0,0.53,7503,21,90,35,46,742,272.0,616,467,60,123.0,227,1,362,220,62,0,0,278,-1,250,272,-5.59,,,,,,,,,,,,
