"Interval"|"ms"|0|0|1,"Utc"|"ms"|0|0|1,"FB_p"|"bar"|0|300|50,"Volant"|"F"|0.0|300.0|50,"xFR"|"mm"|0.0|5.0|50,"xRR"|"mm"|0.0|5.0|50,"xFL"|"mm"|0.0|5.0|50,"xRL"|"mm"|0.0|5.0|50,"AccelX"|"G"|-3.0|3.0|50,"AccelY"|"G"|-3.0|3.0|50,"AccelZ"|"G"|-3.0|3.0|50,"Yaw"|"Deg/Sec"|-120|120|50,"Pitch"|"Deg/Sec"|-120|120|50,"Roll"|"Deg/Sec"|-120|120|50,"Gsum"|"G"|0.0|3.0|50,"RPM"|""|0|14000|50,"TPS"|"%"|0|100|50,"WaterTemp"|"?C"|0|300|50,"AirTemp"|"?C"|-1000|1000|50,"MAP"|"KPa"|0|255|50,"Lambda"|""|0|1024|50,"WheelSpeed"|"MPH"|0.0|150.0|50,"OilPress"|"PSI"|0|150|50,"FuelPress"|"PSI"|0|150|50,"OilTemp"|"F"|0|300|50,"Battery"|"Volts"|0.0|20.0|50,"FuelCon"|"L/h"|-1000|1000|50,"Gear"|""|0|10|50,"Advance"|"Deg"|-360|360|50,"Injection"|"ms"|-1000|1000|50,"FuelCon"|"L/100km"|-1000|1000|50,"LC_But_Pres"|""|-1000|1000|50,"LC_Active"|""|-1000|1000|50,"RD_Speed"|""|-1000|1000|50,"RUD_Speed"|""|-1000|1000|50,"LD_Speed"|""|-1000|1000|50,"LUD_Speed"|""|-1000|1000|50,"Ana1"|"bar"|-1000.0|1000.0|50,"Latitude"|"Degrees"|-180.0|180.0|10,"Longitude"|"Degrees"|-180.0|180.0|10,"Speed"|"kph"|0.0|150.0|10,"Altitude"|"m"|0.0|4000.0|10,"LapCount"|""|0|0|10,"LapTime"|"Min"|0.0|0.0|10,"Sector"|""|0|0|10,"SectorTime"|"Min"|0.0|0.0|10,"ElapsedTime"|"Min"|0.0|0.0|10,"CurrentLap"|""|0|0|10,"Distance"|"km"|0.0|0.0|10,"SessionTime"|"Min"|0.0|0.0|10
286463,1564236504795,1,2.54,0.99,0.34,1.44,1.08,0.83,-0.4,0.57,14,3,5,0.92,7104,19,88,35,45,835,525.0,617,453,60,128.0,109,1,355,218,58,0,0,528,998,2088,525,-5.59,,,,,,,,,,,,
286483,1564236504815,-2,2.56,0.99,0.34,1.43,1.09,0.92,-0.5,0.57,15,1,8,1.05,7113,19,88,35,45,840,522.0,615,460,60,126.0,110,1,355,218,58,0,0,530,-6528,2088,522,-5.59,,,,,,,,,,,,
286503,1564236504835,-1,2.55,0.99,0.35,1.43,1.09,0.93,-0.5,0.55,15,1,10,1.06,7200,19,88,35,45,847,523.0,612,460,60,126.0,110,1,355,218,58,0,0,538,-32768,-28648,523,-5.59,,,,,,,,,,,,
286523,1564236504855,4,2.54,1.0,0.34,1.44,1.08,0.89,-0.5,0.57,16,1,13,1.02,7233,20,88,35,45,851,519.0,612,462,60,128.0,110,1,355,141,58,0,0,535,-32768,2088,519,-5.59,,,,,,,,,,,,
286543,1564236504875,0,2.55,0.99,0.34,1.43,1.09,0.83,-0.49,0.48,17,0,15,0.97,7273,20,88,35,45,859,523.0,614,461,60,129.0,110,1,355,218,58,0,0,530,-32768,2088,523,-5.59,44.681335,10.021049,50.84,175.7,0,0.0,-1,0.0,0.0,0,1.68,4.7757
286563,1564236504895,1,2.53,0.99,0.35,1.43,1.08,0.79,-0.56,0.45,19,1,16,0.97,7312,20,88,35,45,869,523.0,613,461,60,128.0,110,1,355,216,58,0,0,539,248,2088,525,-5.59,,,,,,,,,,,,
286583,1564236504915,1,2.52,0.99,0.34,1.43,1.09,0.81,-0.67,0.5,20,2,17,1.05,7259,20,88,35,44,873,526.0,608,461,60,128.0,114,1,347,218,60,0,0,528,248,-22519,526,-5.59,,,,,,,,,,,,
286603,1564236504935,-1,2.5,0.99,0.34,1.44,1.08,0.85,-0.72,0.54,21,2,19,1.11,7231,20,88,35,44,878,526.0,607,461,60,128.0,114,1,347,216,60,0,0,537,-1818,-22519,527,-5.59,,,,,,,,,,,,
286623,1564236504955,4,2.49,1.0,0.33,1.43,1.08,0.84,-0.77,0.53,22,2,20,1.14,7137,20,88,35,45,882,528.0,610,463,60,126.0,114,1,355,216,60,0,0,524,-32768,6274,526,-5.59,,,,,,,,,,,,
286643,1564236504975,2,2.48,0.99,0.33,1.44,1.08,0.84,-0.74,0.5,22,1,21,1.12,7070,19,88,35,45,892,523.0,612,463,60,127.0,114,1,355,218,60,0,0,514,-6528,-9072,525,-5.59,44.681343,10.021033,50.54,175.7,0,0.0,-1,0.0,0.0,0,1.68,4.7774
286663,1564236504995,-1,2.47,0.99,0.33,1.44,1.08,0.78,-0.79,0.48,22,1,21,1.11,7040,20,88,35,45,897,523.0,608,460,60,128.0,114,1,355,218,60,0,0,515,-6528,-32248,524,-5.59,,,,,,,,,,,,
286683,1564236505007,-1,2.46,0.99,0.34,1.43,1.06,0.83,-0.81,0.52,22,0,22,1.16,6985,20,88,35,45,900,522.0,524,464,60,127.0,108,1,354,217,57,0,0,517,3,2088,523,-5.59,,,,,,,,,,,,
286703,1564236505027,2,2.44,0.99,0.34,1.43,1.08,0.81,-0.74,0.53,21,1,22,1.09,6972,20,88,35,45,904,521.0,435,459,60,127.0,108,1,354,217,57,0,0,509,771,-9212,521,-5.59,,,,,,,,,,,,
286723,1564236505047,-2,2.43,0.99,0.33,1.43,1.07,0.77,-0.75,0.56,20,2,23,1.08,7014,20,88,35,45,907,521.0,377,462,60,127.0,108,1,355,220,57,0,0,508,-9216,-32248,520,-5.59,,,,,,,,,,,,
286743,1564236505067,-0,2.4,0.99,0.33,1.43,1.07,0.81,-0.79,0.55,19,1,23,1.14,6996,20,88,35,46,909,519.0,384,464,60,127.0,108,1,361,219,57,0,0,506,2524,1248,519,-5.59,44.681347,10.021019,50.38,175.7,0,0.0,-1,0.0,0.0,0,1.68,4.779
286763,1564236505087,2,2.38,0.98,0.33,1.43,1.07,0.83,-0.68,0.5,18,1,24,1.07,6975,20,88,35,46,908,518.0,356,466,60,126.0,108,1,361,219,57,0,0,507,10408,1248,519,-5.59,,,,,,,,,,,,
286783,1564236505110,0,2.36,0.99,0.33,1.42,1.07,0.75,-0.66,0.5,17,1,22,1.0,6993,20,88,35,46,908,518.0,351,461,60,127.0,110,1,361,219,57,0,0,510,11560,-8187,517,-5.59,,,,,,,,,,,,
286803,1564236505130,3,2.34,0.98,0.33,1.43,1.07,0.82,-0.65,0.47,16,0,22,1.04,6965,20,88,35,46,908,516.0,353,460,60,127.0,110,1,361,219,57,0,0,509,2109,-3482,517,-5.59,,,,,,,,,,,,
286823,1564236505150,1,2.3,0.98,0.33,1.42,1.07,0.79,-0.51,0.52,14,0,20,0.94,6931,20,88,35,46,909,515.0,333,459,60,128.0,110,1,361,219,57,0,0,510,-32248,-14,513,-5.59,,,,,,,,,,,,
286843,1564236505170,-1,2.26,0.98,0.32,1.41,1.08,0.79,-0.47,0.53,12,1,19,0.92,6934,21,88,35,46,910,513.0,337,460,60,128.0,110,1,361,221,57,0,0,512,-28648,16383,510,-5.59,44.681358,10.021005,50.49,175.8,0,0.0,-1,0.0,0.0,0,1.68,4.7807
286863,1564236505192,3,2.22,0.98,0.32,1.4,1.05,0.86,-0.44,0.55,9,1,18,0.96,6921,21,88,35,47,913,510.0,355,458,60,127.0,110,1,369,221,57,0,0,514,-4054,-3856,508,-5.59,,,,,,,,,,,,
286883,1564236505212,0,2.19,0.96,0.31,1.38,1.05,0.8,-0.24,0.63,6,1,16,0.83,6929,21,88,35,47,924,511.0,340,460,60,128.0,114,1,369,221,58,0,0,514,17136,10994,506,-5.59,,,,,,,,,,,,
286903,1564236505232,-1,2.15,0.94,0.3,1.35,1.03,0.83,-0.21,0.58,3,-0,14,0.86,6978,21,88,35,47,933,514.0,369,457,60,128.0,114,1,369,221,58,0,0,516,26178,-21872,502,-5.59,,,,,,,,,,,,
286923,1564236505252,2,2.13,0.93,0.29,1.33,1.02,0.85,-0.07,0.6,0,-1,10,0.86,6993,21,88,35,47,939,518.0,365,462,60,128.0,114,1,369,221,58,0,0,520,1248,-4054,499,-5.59,,,,,,,,,,,,
286943,1564236505272,-1,2.1,0.92,0.29,1.31,1.01,0.82,0.08,0.52,-2,-2,6,0.82,6985,21,88,35,47,948,519.0,400,463,60,128.0,114,1,369,221,58,0,0,519,-8187,11560,495,-5.59,44.681362,10.020991,50.4,175.8,0,0.0,-1,0.0,0.0,0,1.68,4.7824
286963,1564236505294,0,2.08,0.91,0.28,1.31,1.0,0.81,0.17,0.5,-5,-2,3,0.83,6967,11,88,35,47,961,522.0,416,448,60,127.0,114,1,369,216,58,0,0,524,-8187,6274,493,-5.59,,,,,,,,,,,,
286983,1564236505314,2,2.04,0.91,0.28,1.3,1.0,0.84,0.29,0.5,-8,-2,0,0.89,6944,15,88,35,47,975,522.0,451,442,60,127.0,131,1,369,144,65,0,0,525,-22519,-28648,491,-5.59,,,,,,,,,,,,
287003,1564236505334,-2,2.03,0.91,0.28,1.31,0.99,0.78,0.46,0.44,-9,-1,-3,0.91,6929,21,88,35,47,983,521.0,479,413,60,128.0,131,1,369,243,65,0,0,523,2524,771,489,-5.59,,,,,,,,,,,,
287023,1564236505354,2,2.02,0.9,0.28,1.31,1.0,0.85,0.43,0.52,-12,-3,-7,0.95,6970,22,88,35,48,987,519.0,506,448,60,127.0,131,1,371,149,65,0,0,526,2524,2524,487,-5.59,,,,,,,,,,,,
287043,1564236505374,1,2.01,0.91,0.27,1.31,0.99,0.81,0.52,0.42,-13,-2,-9,0.96,6967,22,88,35,48,996,521.0,529,453,60,129.0,131,1,371,149,65,0,0,525,-9212,-22519,485,-5.59,44.681374,10.020979,50.12,175.8,0,0.0,-1,0.0,0.0,0,1.68,4.784
287063,1564236505394,-1,2.0,0.92,0.27,1.32,1.0,0.78,0.65,0.4,-15,-1,-12,1.01,6967,20,88,35,48,1005,519.0,550,448,60,129.0,131,1,371,255,65,0,0,528,15679,15661,484,-5.59,,,,,,,,,,,,
287083,1564236505414,2,2.0,0.91,0.28,1.31,1.0,0.83,0.61,0.5,-17,-2,-16,1.03,7006,11,88,36,48,1008,522.0,558,455,60,127.0,136,1,372,222,66,0,0,524,2524,15661,482,-5.59,,,,,,,,,,,,
287103,1564236505434,1,1.99,0.91,0.28,1.31,1.0,0.75,0.74,0.46,-18,-1,-17,1.05,7017,21,88,35,48,1010,520.0,572,460,60,128.0,136,1,372,254,66,0,0,521,1341,2109,481,-5.59,,,,,,,,,,,,
287123,1564236505454,-1,1.99,0.92,0.27,1.32,0.99,0.72,0.86,0.4,-19,-0,-20,1.12,6978,22,88,35,48,1012,520.0,586,457,60,128.0,136,1,371,249,66,0,0,525,-9212,11560,479,-5.59,,,,,,,,,,,,
287143,1564236505474,2,1.99,0.91,0.28,1.31,1.0,0.82,0.82,0.41,-21,-2,-21,1.16,6975,22,88,36,48,1013,520.0,593,458,60,127.0,136,1,371,246,66,0,0,525,1248,-21872,480,-5.59,44.681381,10.020966,49.72,175.8,0,0.0,-1,0.0,0.0,0,1.69,4.7857
287163,1564236505494,1,1.99,0.92,0.28,1.32,1.0,0.75,0.89,0.33,-21,-1,-23,1.16,6975,22,88,35,48,1013,518.0,600,456,60,128.0,136,1,371,149,66,0,0,521,16383,10994,478,-5.59,,,,,,,,,,,,
287183,1564236505514,-1,1.99,0.92,0.27,1.32,1.0,0.73,0.97,0.36,-22,-1,-25,1.22,6957,21,88,36,48,1012,517.0,603,452,60,127.0,131,1,371,239,63,0,0,521,15679,-28648,477,-5.59,,,,,,,,,,,,
287203,1564236505534,2,1.99,0.91,0.27,1.31,1.0,0.81,0.92,0.43,-24,-2,-26,1.23,6993,21,88,35,48,1001,518.0,607,462,60,127.0,131,1,371,236,63,0,0,522,-8187,15661,477,-5.59,,,,,,,,,,,,
287223,1564236505554,1,1.99,0.92,0.28,1.32,1.0,0.77,1.03,0.32,-25,-1,-27,1.29,6975,13,88,35,48,995,519.0,611,456,60,129.0,131,1,371,233,63,0,0,519,15679,-32248,476,-5.59,,,,,,,,,,,,
287243,1564236505574,-1,1.99,0.91,0.27,1.32,1.0,0.76,1.07,0.4,-26,-2,-29,1.31,6929,22,88,35,48,983,520.0,611,453,60,128.0,131,1,371,252,63,0,0,524,-8187,-3414,477,-5.59,44.681389,10.020952,49.54,175.8,0,0.0,-1,0.0,0.0,0,1.69,4.7874
287263,1564236505594,1,1.99,0.91,0.28,1.31,1.0,0.86,1.05,0.38,-27,-3,-30,1.35,6923,22,88,35,49,974,518.0,607,460,60,127.0,131,1,374,249,63,0,0,520,15679,-32248,476,-5.59,,,,,,,,,,,,
287283,1564236505614,0,1.99,0.92,0.29,1.32,1.0,0.75,1.14,0.3,-26,-1,-31,1.36,7004,22,88,35,48,965,516.0,609,457,60,128.0,138,1,372,247,66,0,0,518,-14,10994,474,-5.59,,,,,,,,,,,,
287303,1564236505634,-0,1.99,0.92,0.28,1.33,1.0,0.87,1.14,0.38,-27,-3,-32,1.44,7009,22,88,36,48,953,515.0,611,452,60,127.0,138,1,372,150,66,0,0,520,-3482,2109,472,-5.59,,,,,,,,,,,,
287323,1564236505654,1,2.0,0.92,0.28,1.32,1.0,0.89,1.08,0.42,-28,-3,-34,1.4,7019,22,88,35,49,947,514.0,611,457,60,128.0,138,1,375,244,66,0,0,514,26178,-3414,473,-5.59,,,,,,,,,,,,
287343,1564236505674,1,1.98,0.92,0.28,1.32,1.0,0.83,1.17,0.34,-28,-2,-35,1.44,6998,22,88,35,48,944,515.0,613,458,60,128.0,138,1,371,236,66,0,0,515,-14,-14,473,-5.59,44.681396,10.020938,49.13,175.9,0,0.0,-1,0.0,0.0,0,1.69,4.7891
287363,1564236505694,0,1.98,0.92,0.27,1.33,1.0,0.85,1.12,0.44,-29,-3,-35,1.41,6939,22,88,35,49,943,513.0,605,460,60,127.0,138,1,374,154,66,0,0,520,26178,-14,471,-5.59,,,,,,,,,,,,
287383,1564236505714,1,1.98,0.92,0.28,1.32,1.0,0.87,1.14,0.42,-30,-3,-36,1.44,6941,22,88,35,49,943,512.0,605,461,60,128.0,131,1,374,233,62,0,0,516,17136,1341,470,-5.59,,,,,,,,,,,,
287403,1564236505734,-1,1.98,0.92,0.29,1.32,1.0,0.79,1.23,0.39,-29,-3,-36,1.46,6983,2,88,35,49,947,512.0,607,456,60,128.0,131,1,374,225,62,0,0,514,17136,15661,468,-5.59,,,,,,,,,,,,
287423,1564236505754,2,1.99,0.92,0.28,1.33,1.0,0.84,1.19,0.44,-30,-4,-37,1.46,6985,22,88,35,49,949,509.0,612,459,60,127.0,131,1,374,260,62,0,0,518,10994,10994,470,-5.59,,,,,,,,,,,,
287443,1564236505774,-0,2.0,0.92,0.28,1.33,1.0,0.8,1.17,0.42,-30,-4,-38,1.41,6965,22,88,35,49,953,514.0,615,460,60,127.0,131,1,374,257,62,0,0,516,-3482,16383,469,-5.59,44.6814,10.020923,48.26,175.9,0,0.0,-1,0.0,0.0,0,1.69,4.7907
287463,1564236505795,-1,1.98,0.91,0.28,1.33,1.0,0.76,1.25,0.34,-30,-3,-38,1.46,6991,22,88,35,49,957,510.0,612,459,60,127.0,131,1,374,254,62,0,0,515,-4054,-32248,469,-5.59,,,,,,,,,,,,
287483,1564236505815,2,1.99,0.92,0.28,1.33,1.0,0.82,1.12,0.45,-31,-4,-40,1.39,6957,23,88,35,49,960,511.0,611,462,60,127.0,140,1,374,249,66,0,0,514,-3856,-21872,469,-5.59,,,,,,,,,,,,
287503,1564236505835,-0,1.99,0.92,0.28,1.33,1.01,0.75,1.18,0.36,-31,-2,-39,1.4,6947,23,88,35,49,960,511.0,613,460,60,127.0,140,1,374,246,66,0,0,512,-3856,-3482,469,-5.59,,,,,,,,,,,,
287523,1564236505855,-2,1.98,0.92,0.29,1.33,1.0,0.69,1.25,0.4,-30,-3,-40,1.43,6988,23,88,35,49,963,510.0,612,458,60,128.0,140,1,374,243,66,0,0,517,-4054,-14,468,-5.59,,,,,,,,,,,,
287543,1564236505875,2,1.99,0.92,0.28,1.34,1.01,0.81,1.21,0.42,-31,-3,-39,1.46,6978,23,88,36,49,966,509.0,610,462,60,126.0,140,1,374,239,66,0,0,510,10994,6274,468,-5.59,44.681408,10.020907,48.21,175.9,0,0.0,-1,0.0,0.0,0,1.69,4.7924
287563,1564236505894,1,1.99,0.92,0.28,1.33,1.01,0.72,1.28,0.4,-31,-2,-39,1.47,6954,23,88,35,49,968,509.0,613,460,60,128.0,140,1,374,236,66,0,0,516,10994,-3414,466,-5.59,,,,,,,,,,,,
287583,1564236505914,-0,1.99,0.93,0.28,1.33,1.01,0.73,1.34,0.39,-31,-2,-40,1.53,6921,23,88,36,49,971,508.0,611,461,60,128.0,133,1,374,233,62,0,0,511,10994,-3482,469,-5.59,,,,,,,,,,,,
287603,1564236505934,2,1.98,0.92,0.28,1.33,1.01,0.77,1.25,0.36,-32,-4,-40,1.47,6921,23,88,35,49,973,508.0,609,462,60,127.0,133,1,374,230,62,0,0,514,10994,1248,464,-5.59,,,,,,,,,,,,
287623,1564236505954,-1,1.99,0.92,0.29,1.33,1.01,0.68,1.33,0.28,-30,-1,-41,1.49,6885,23,88,36,49,974,508.0,613,461,60,128.0,133,1,374,230,62,0,0,511,-21872,-4054,465,-5.59,,,,,,,,,,,,
287643,1564236505974,-0,2.0,0.92,0.29,1.33,1.01,0.81,1.16,0.41,-32,-4,-42,1.42,6978,23,88,36,50,974,508.0,612,466,60,126.0,133,1,377,235,62,0,0,511,-3414,2109,464,-5.59,44.681412,10.020891,47.79,175.9,0,0.0,-1,0.0,0.0,0,1.69,4.7941
287663,1564236505994,2,1.99,0.93,0.29,1.33,1.01,0.78,1.13,0.37,-31,-2,-41,1.37,6993,23,88,36,50,971,507.0,616,462,60,127.0,133,1,377,235,62,0,0,511,-21872,-32768,463,-5.59,,,,,,,,,,,,
287683,1564236506007,-0,1.99,0.93,0.29,1.34,1.0,0.74,1.21,0.36,-31,-1,-40,1.42,6898,23,88,35,50,970,509.0,622,460,60,127.0,133,1,377,235,62,0,0,511,10994,15661,465,-5.59,,,,,,,,,,,,
287703,1564236506027,2,1.99,0.93,0.28,1.35,1.01,0.83,1.11,0.48,-32,-1,-41,1.39,6850,23,88,36,50,969,507.0,611,463,60,127.0,133,1,377,235,62,0,0,510,-21872,17136,464,-5.59,,,,,,,,,,,,
287723,1564236506047,0,1.99,0.93,0.29,1.34,1.01,0.81,1.2,0.41,-31,-1,-42,1.45,6855,23,88,36,50,968,507.0,612,462,60,128.0,133,1,377,235,62,0,0,512,-21872,6274,465,-5.59,,,,,,,,,,,,
287743,1564236506067,2,2.0,0.92,0.29,1.34,1.01,0.84,1.11,0.55,-32,-3,-42,1.4,6833,23,88,36,51,968,505.0,604,466,60,127.0,133,1,379,235,62,0,0,510,6274,-22519,464,-5.59,44.681416,10.020875,47.66,175.9,0,0.0,-1,0.0,0.0,0,1.69,4.7957
287763,1564236506093,-0,2.01,0.93,0.29,1.34,1.02,0.79,1.17,0.47,-31,-1,-43,1.41,6865,23,88,36,51,970,505.0,608,464,60,128.0,133,1,380,235,62,0,0,511,6274,-6528,465,-5.59,,,,,,,,,,,,
287783,1564236506113,-0,2.0,0.93,0.29,1.35,1.02,0.78,1.14,0.52,-31,-2,-42,1.38,6880,23,88,36,51,978,506.0,607,460,60,127.0,133,1,380,240,62,0,0,509,-28648,-28648,463,-5.59,,,,,,,,,,,,
287803,1564236506133,1,2.0,0.93,0.29,1.34,1.02,0.85,1.09,0.52,-31,-2,-41,1.38,6860,23,88,36,51,984,505.0,605,466,60,127.0,133,1,380,240,62,0,0,507,6274,-3414,463,-5.59,,,,,,,,,,,,
287823,1564236506153,0,2.0,0.93,0.29,1.35,1.01,0.8,1.15,0.52,-31,-2,-41,1.4,6853,23,88,36,51,988,505.0,608,462,60,128.0,133,1,380,270,62,0,0,509,6274,1,465,-5.59,,,,,,,,,,,,
287843,1564236506173,3,2.0,0.93,0.29,1.35,1.01,0.84,1.06,0.56,-32,-3,-42,1.35,6858,24,88,36,51,994,507.0,607,462,60,126.0,133,1,380,267,62,0,0,511,-3414,998,464,-5.59,44.681416,10.020858,47.48,175.9,0,0.0,-1,0.0,0.0,0,1.7,4.7974
287863,1564236506195,0,2.01,0.93,0.29,1.34,1.02,0.82,1.16,0.51,-31,-1,-41,1.42,6838,24,88,36,51,1001,506.0,605,464,60,128.0,133,1,380,164,62,0,0,507,-28648,11560,464,-5.59,,,,,,,,,,,,
287883,1564236506215,1,2.02,0.93,0.29,1.35,1.02,0.84,1.05,0.63,-32,-3,-43,1.34,6825,24,88,36,51,1009,502.0,606,460,60,126.0,144,1,379,259,67,0,0,511,15661,-6528,463,-5.59,,,,,,,,,,,,
287903,1564236506235,0,2.01,0.94,0.29,1.35,1.02,0.81,1.15,0.54,-30,-2,-42,1.41,6828,24,88,36,52,1011,505.0,604,465,60,128.0,144,1,382,169,67,0,0,506,6274,-32248,463,-5.59,,,,,,,,,,,,
287923,1564236506255,-1,2.02,0.93,0.3,1.36,1.01,0.82,1.11,0.66,-31,-3,-42,1.38,6868,24,88,36,52,1013,504.0,610,463,60,127.0,144,1,383,258,67,0,0,507,-32248,-21872,463,-5.59,,,,,,,,,,,,
287943,1564236506275,2,2.02,0.93,0.29,1.35,1.02,0.89,1.08,0.61,-31,-2,-41,1.4,6875,24,88,36,52,1014,505.0,606,464,60,126.0,144,1,383,254,67,0,0,508,6274,-9216,464,-5.59,44.681416,10.020841,47.11,175.9,0,0.0,-1,0.0,0.0,0,1.7,4.799
287963,1564236506293,-0,2.02,0.93,0.29,1.35,1.01,0.84,1.12,0.62,-30,-1,-41,1.4,6818,24,88,36,52,1015,507.0,611,459,60,127.0,144,1,382,249,67,0,0,509,-21872,-32248,464,-5.59,,,,,,,,,,,,
287983,1564236506313,3,2.04,0.94,0.29,1.36,1.02,0.91,1.05,0.67,-31,-2,-42,1.39,6843,24,88,36,52,1014,504.0,603,467,60,127.0,137,1,383,246,64,0,0,504,-32248,15661,466,-5.59,,,,,,,,,,,,
288003,1564236506333,-1,2.06,0.94,0.3,1.35,1.02,0.88,1.12,0.62,-30,-1,-42,1.42,6868,24,88,36,52,1012,505.0,606,461,60,127.0,137,1,383,245,64,0,0,509,-21872,1,463,-5.59,,,,,,,,,,,,
288023,1564236506353,3,2.09,0.94,0.3,1.36,1.02,0.9,1.01,0.74,-30,-2,-43,1.36,6835,24,88,36,52,1003,507.0,603,463,60,127.0,137,1,383,245,64,0,0,508,-21872,1,465,-5.59,,,,,,,,,,,,
288043,1564236506373,-1,2.13,0.94,0.3,1.35,1.03,0.83,1.08,0.68,-29,-0,-42,1.36,6795,22,88,35,52,997,505.0,605,460,60,128.0,137,1,382,169,64,0,0,508,6274,-32768,463,-5.59,44.681416,10.020824,47.27,175.9,0,0.0,-1,0.0,0.0,0,1.7,4.8007
288063,1564236506393,1,2.19,0.94,0.3,1.37,1.02,0.83,0.97,0.71,-29,-0,-42,1.28,6766,24,88,36,53,989,507.0,598,468,60,127.0,137,1,385,250,64,0,0,509,-21872,-9216,467,-5.59,,,,,,,,,,,,
288083,1564236506413,-1,2.26,0.94,0.3,1.36,1.03,0.78,0.99,0.67,-26,0,-41,1.26,6756,25,88,36,53,983,503.0,597,463,60,128.0,137,1,385,250,64,0,0,509,2109,-6656,470,-5.59,,,,,,,,,,,,
288103,1564236506433,3,2.32,0.95,0.31,1.38,1.04,0.7,0.86,0.67,-24,0,-40,1.11,6725,25,88,36,53,972,497.0,595,464,60,127.0,137,1,385,250,64,0,0,505,-9216,505,474,-5.59,,,,,,,,,,,,
288123,1564236506453,-1,2.39,0.97,0.31,1.4,1.04,0.72,0.87,0.64,-21,0,-38,1.13,6713,25,88,36,53,967,494.0,595,463,60,127.0,137,1,385,250,64,0,0,499,998,-1562,480,-5.59,,,,,,,,,,,,
288143,1564236506473,4,2.44,0.97,0.33,1.42,1.07,0.69,0.69,0.74,-17,-0,-36,0.98,6713,16,88,36,53,964,491.0,593,466,60,126.0,137,1,385,256,64,0,0,492,-1818,3,486,-5.59,44.681416,10.020807,47.44,175.9,0,0.0,-1,0.0,0.0,0,1.7,4.8024
288163,1564236506493,-2,2.49,0.99,0.34,1.42,1.08,0.68,0.61,0.73,-13,1,-32,0.91,6703,25,88,36,54,964,491.0,589,462,60,127.0,137,1,388,289,64,0,0,489,-1562,2524,491,-5.59,,,,,,,,,,,,
288183,1564236506513,2,2.52,0.99,0.35,1.44,1.08,0.7,0.39,0.72,-9,-0,-28,0.8,6727,24,88,36,54,969,494.0,586,468,60,126.0,146,1,388,284,72,0,0,494,-899,-22519,497,-5.59,,,,,,,,,,,,
288203,1564236506533,-2,2.54,1.0,0.35,1.45,1.08,0.65,0.3,0.66,-5,2,-24,0.72,6720,22,88,36,54,978,499.0,588,463,60,128.0,146,1,388,280,72,0,0,491,8488,-32248,501,-5.59,,,,,,,,,,,,
288223,1564236506553,3,2.55,1.0,0.35,1.45,1.09,0.76,0.14,0.69,-3,-0,-19,0.77,6749,22,88,36,54,984,501.0,586,470,60,127.0,146,1,388,277,72,0,0,490,-23367,-32248,501,-5.59,,,,,,,,,,,,
288243,1564236506573,-0,2.58,1.0,0.35,1.44,1.08,0.67,0.1,0.82,1,2,-14,0.68,6820,21,88,36,53,992,506.0,593,461,60,128.0,146,1,385,174,72,0,0,503,-9203,-21872,506,-5.59,44.681412,10.020791,47.72,175.9,0,0.0,-1,0.0,0.0,0,1.7,4.804
288263,1564236506595,3,2.58,1.0,0.35,1.44,1.08,0.78,-0.05,0.71,4,3,-8,0.78,6838,21,88,36,53,1000,505.0,588,466,60,127.0,146,1,386,174,72,0,0,496,3576,-21872,505,-5.59,,,,,,,,,,,,
288283,1564236506615,1,2.59,0.99,0.35,1.44,1.08,0.73,-0.1,0.72,6,4,-4,0.74,6870,21,88,36,52,1008,507.0,600,461,60,128.0,134,1,383,253,68,0,0,504,8488,-4054,507,-5.59,,,,,,,,,,,,
288303,1564236506635,-1,2.59,0.99,0.35,1.44,1.08,0.74,-0.24,0.69,9,4,0,0.77,6913,21,88,36,52,1012,507.0,596,465,60,128.0,134,1,383,249,68,0,0,514,10432,10994,507,-5.59,,,,,,,,,,,,
288323,1564236506655,2,2.59,0.99,0.34,1.44,1.08,0.79,-0.32,0.67,10,4,5,0.85,6959,21,88,36,52,1011,505.0,596,467,60,126.0,134,1,383,245,68,0,0,513,8488,17136,505,-5.59,,,,,,,,,,,,
288343,1564236506675,1,2.59,0.99,0.34,1.44,1.08,0.74,-0.4,0.66,13,4,7,0.84,6962,3,88,36,51,1001,507.0,597,463,60,128.0,134,1,380,235,68,0,0,521,10432,-28648,507,-5.59,44.681408,10.020775,48.3,175.9,0,0.0,-1,0.0,0.0,0,1.7,4.8057
288363,1564236506693,-1,2.6,0.99,0.35,1.44,1.08,0.76,-0.52,0.68,15,3,10,0.93,7017,13,88,36,51,989,507.0,598,470,60,126.0,134,1,381,241,68,0,0,539,30272,10994,505,-5.59,,,,,,,,,,,,
288383,1564236506713,1,2.6,0.99,0.35,1.44,1.08,0.79,-0.5,0.62,16,2,14,0.94,7072,10,88,36,51,974,506.0,604,466,60,126.0,120,1,381,267,61,0,0,535,-3210,-3414,505,-5.59,,,,,,,,,,,,
288403,1564236506733,2,2.59,0.99,0.35,1.44,1.08,0.7,-0.57,0.63,18,2,16,0.9,7126,0,88,36,50,960,505.0,607,465,60,128.0,120,1,378,262,61,0,0,532,30272,-28648,505,-5.59,,,,,,,,,,,,
288423,1564236506753,-0,2.59,0.99,0.34,1.44,1.08,0.72,-0.72,0.65,20,2,18,1.02,7205,14,88,36,50,939,505.0,607,463,60,128.0,120,1,378,264,61,0,0,538,6193,-32248,505,-5.59,,,,,,,,,,,,
288443,1564236506773,-2,2.6,0.99,0.32,1.43,1.08,0.77,-0.82,0.65,21,2,21,1.13,7203,7,88,36,49,922,507.0,611,464,60,129.0,120,1,375,259,61,0,0,552,30272,-3414,507,-5.59,44.681404,10.020759,48.42,175.9,0,0.0,-1,0.0,0.0,0,1.7,4.8074
288463,1564236506795,3,2.58,1.0,0.33,1.45,1.08,0.85,-0.82,0.59,22,0,24,1.18,7189,9,88,36,49,911,507.0,612,466,60,126.0,120,1,375,256,61,0,0,563,12552,-32248,507,-5.59,,,,,,,,,,,,
288483,1564236506815,1,2.59,0.99,0.33,1.44,1.09,0.89,-0.8,0.52,23,0,25,1.2,7250,21,88,36,49,910,505.0,612,465,60,128.0,139,1,375,258,71,0,0,563,-23623,-3856,505,-5.59,,,,,,,,,,,,
288503,1564236506835,3,2.58,0.99,0.33,1.44,1.08,0.83,-0.89,0.52,24,1,26,1.22,7275,21,88,36,49,907,505.0,589,465,60,128.0,139,1,375,155,71,0,0,560,-23623,6274,505,-5.59,,,,,,,,,,,,
288523,1564236506855,1,2.56,0.99,0.33,1.45,1.08,0.82,-0.95,0.53,25,1,28,1.26,7329,21,88,36,48,907,503.0,463,468,60,128.0,139,1,372,247,71,0,0,570,2211,-3414,503,-5.59,,,,,,,,,,,,
288543,1564236506875,1,2.54,0.99,0.33,1.43,1.09,0.77,-1.03,0.58,26,1,29,1.29,7335,21,88,36,48,907,503.0,393,465,60,127.0,139,1,372,243,71,0,0,575,-23623,-32248,503,-5.59,44.6814,10.020741,48.68,175.9,0,0.0,-1,0.0,0.0,0,1.7,4.8091
288563,1564236506895,0,2.53,0.99,0.33,1.44,1.08,0.75,-1.1,0.68,26,1,30,1.34,7364,21,88,36,47,910,502.0,350,465,60,128.0,139,1,370,145,71,0,0,579,2211,6274,503,-5.59,,,,,,,,,,,,
288583,1564236506915,-0,2.51,0.99,0.33,1.44,1.08,0.79,-1.09,0.74,26,1,31,1.35,7350,21,88,36,47,910,505.0,339,467,60,125.0,131,1,370,150,66,0,0,584,6193,10994,505,-5.59,,,,,,,,,,,,
288603,1564236506935,-0,2.46,0.99,0.33,1.44,1.08,0.85,-1.14,0.71,26,0,31,1.42,7413,21,88,36,47,900,504.0,315,465,60,127.0,131,1,370,227,66,0,0,576,2211,6274,504,-5.59,,,,,,,,,,,,
288623,1564236506955,-1,2.45,0.99,0.34,1.44,1.08,0.87,-1.1,0.67,25,1,32,1.4,7399,9,88,36,47,894,501.0,307,461,60,126.0,131,1,370,223,66,0,0,571,6193,6274,501,-5.59,,,,,,,,,,,,
288643,1564236506975,0,2.42,0.99,0.33,1.44,1.08,0.88,-1.03,0.65,24,0,32,1.36,7364,13,88,36,46,883,498.0,294,466,60,127.0,131,1,362,220,66,0,0,550,10432,-28648,498,-5.59,44.6814,10.020724,48.62,175.9,0,0.0,-1,0.0,0.0,0,1.71,4.8107
288663,1564236506995,2,2.39,0.99,0.33,1.44,1.07,0.9,-0.92,0.62,22,0,31,1.28,7126,18,88,36,47,868,498.0,293,466,60,126.0,131,1,370,220,66,0,0,513,-9203,26178,498,-5.59,,,,,,,,,,,,
288683,1564236507006,-1,2.36,0.99,0.33,1.44,1.08,0.8,-0.83,0.67,20,2,30,1.16,6858,16,88,36,46,856,499.0,290,460,60,127.0,118,1,360,219,59,0,0,526,2212,16383,500,-5.59,,,,,,,,,,,,
288703,1564236507026,2,2.35,0.99,0.33,1.44,1.07,0.85,-0.89,0.58,18,-1,27,1.23,6627,9,88,36,45,840,502.0,291,464,60,126.0,118,1,351,216,59,0,0,491,8488,-3482,501,-5.59,,,,,,,,,,,,
288723,1564236507046,-1,2.36,0.98,0.32,1.42,1.06,0.83,-0.86,0.43,17,-0,26,1.2,6472,6,88,36,43,833,496.0,282,460,60,127.0,118,1,337,214,59,0,0,488,-6441,-21872,497,-5.59,,,,,,,,,,,,
288743,1564236507066,-0,2.35,0.97,0.32,1.42,1.06,0.88,-0.73,0.42,15,-0,25,1.14,6434,0,88,36,42,829,494.0,279,460,60,128.0,118,1,330,211,59,0,0,486,-6441,-9216,494,-5.59,44.6814,10.020707,48.5,175.9,0,0.0,-1,0.0,0.0,0,1.71,4.8124
288763,1564236507092,2,2.35,0.98,0.32,1.42,1.06,0.95,-0.75,0.44,13,-3,23,1.21,6408,0,88,36,41,824,491.0,281,463,60,126.0,118,1,323,133,59,0,0,486,-10483,-1818,491,-5.59,,,,,,,,,,,,
288783,1564236507112,2,2.36,0.98,0.32,1.41,1.06,0.82,-0.76,0.5,12,-2,22,1.11,6360,0,88,36,40,817,493.0,292,463,60,126.0,101,1,316,131,50,0,0,481,3580,-6528,491,-5.59,,,,,,,,,,,,
288803,1564236507132,2,2.36,0.97,0.32,1.42,1.05,0.71,-0.62,0.47,12,0,20,0.94,6302,0,88,36,38,817,492.0,295,460,60,126.0,101,1,307,207,50,0,0,487,-6441,248,493,-5.59,,,,,,,,,,,,
288823,1564236507152,-1,2.35,0.98,0.32,1.42,1.05,0.79,-0.5,0.48,12,1,20,0.94,6239,0,88,36,38,817,496.0,306,462,60,128.0,101,1,307,201,50,0,0,485,-1562,3,496,-5.59,,,,,,,,,,,,
288843,1564236507172,-0,2.34,0.98,0.32,1.41,1.06,0.91,-0.43,0.47,11,-0,19,1.01,6169,0,88,36,38,817,493.0,319,465,60,127.0,101,1,307,195,50,0,0,485,-1562,15661,493,-5.59,44.6814,10.020691,48.58,175.9,0,0.0,-1,0.0,0.0,0,1.71,4.8141
288863,1564236507194,-0,2.34,0.98,0.31,1.42,1.05,1.02,-0.35,0.41,9,-3,18,1.08,6099,0,88,36,37,816,492.0,317,465,60,127.0,101,1,304,195,50,0,0,482,3580,-6441,492,-5.59,,,,,,,,,,,,
288883,1564236507214,2,2.33,0.98,0.31,1.42,1.05,1.12,-0.38,0.38,8,-6,18,1.19,6155,0,88,36,37,815,488.0,332,462,60,127.0,91,1,304,195,45,0,0,476,-899,-899,488,-5.59,,,,,,,,,,,,
288903,1564236507234,4,2.31,0.98,0.32,1.42,1.05,1.12,-0.34,0.37,7,-8,17,1.17,6283,0,88,36,37,815,484.0,346,465,60,128.0,91,1,304,195,45,0,0,471,10305,3576,481,-5.59,,,,,,,,,,,,
288923,1564236507254,7,2.31,0.97,0.31,1.41,1.06,1.04,-0.32,0.46,7,-7,14,1.09,6463,0,88,36,36,813,480.0,370,461,60,127.0,91,1,301,189,45,0,0,471,2212,32033,480,-5.59,,,,,,,,,,,,
288943,1564236507274,1,2.31,0.97,0.32,1.42,1.05,1.05,-0.23,0.38,6,-6,13,1.08,6558,0,88,36,35,810,476.0,395,462,60,127.0,91,1,298,184,45,0,0,469,-9203,-3210,475,-5.59,44.681404,10.020674,48.71,176.0,0,0.0,-1,0.0,0.0,0,1.71,4.8157
288963,1564236507294,6,2.3,0.98,0.31,1.41,1.06,1.07,-0.21,0.34,5,-7,12,1.09,6526,0,88,36,35,808,475.0,416,465,60,127.0,91,1,298,184,45,0,0,469,3576,30272,474,-5.59,,,,,,,,,,,,
288983,1564236507314,4,2.28,0.98,0.31,1.41,1.06,1.0,-0.2,0.34,4,-5,11,1.02,6465,0,88,36,34,807,473.0,427,465,60,126.0,94,1,295,184,45,0,0,470,-1923,3576,473,-5.59,,,,,,,,,,,,
289003,1564236507334,3,2.28,0.97,0.32,1.4,1.06,1.02,-0.11,0.37,3,-3,11,1.03,6377,0,88,36,34,808,473.0,435,465,60,128.0,94,1,295,178,45,0,0,473,3576,3576,471,-5.59,,,,,,,,,,,,
289023,1564236507354,3,2.29,0.97,0.31,1.4,1.05,1.03,-0.15,0.34,1,-4,8,1.04,6300,0,88,35,34,809,474.0,432,467,60,126.0,94,1,295,178,45,0,0,469,-9203,30272,470,-5.59,,,,,,,,,,,,
289043,1564236507374,5,2.27,0.97,0.31,1.4,1.04,0.99,-0.14,0.31,1,-2,7,1.0,6239,0,88,35,34,811,471.0,436,465,60,127.0,94,1,295,178,45,0,0,472,32033,8488,468,-5.59,44.681404,10.020657,48.01,176.0,0,0.0,-1,0.0,0.0,0,1.71,4.8174
289063,1564236507395,7,2.27,0.97,0.31,1.39,1.05,0.93,-0.14,0.36,0,-1,7,0.94,6233,0,88,35,34,813,470.0,447,464,60,127.0,94,1,295,178,45,0,0,467,8488,2211,462,-5.59,,,,,,,,,,,,
289083,1564236507415,6,2.26,0.97,0.3,1.4,1.04,0.85,0.01,0.32,1,0,5,0.85,6252,0,88,35,34,819,467.0,466,459,60,128.0,90,1,295,178,42,0,0,462,243,14488,459,-5.59,,,,,,,,,,,,
289103,1564236507435,3,2.26,0.97,0.31,1.41,1.04,0.88,0.04,0.32,1,0,4,0.88,6285,0,88,35,34,825,465.0,483,463,60,127.0,90,1,295,178,42,0,0,457,12552,-9160,457,-5.59,,,,,,,,,,,,
289123,1564236507455,3,2.27,0.97,0.31,1.41,1.04,0.97,0.09,0.31,-0,-1,3,0.98,6254,0,88,35,34,830,460.0,492,463,60,128.0,90,1,295,178,42,0,0,460,-23623,-18108,455,-5.59,,,,,,,,,,,,
289143,1564236507475,3,2.26,0.97,0.31,1.4,1.05,1.01,0.09,0.27,-2,-3,3,1.02,6227,0,88,35,34,833,461.0,502,467,60,127.0,90,1,295,178,42,0,0,458,2211,16648,454,-5.59,44.681408,10.02064,46.88,176.1,0,0.0,-1,0.0,0.0,0,1.71,4.819
289163,1564236507494,4,2.26,0.96,0.31,1.41,1.05,1.01,-0.03,0.3,-3,-3,2,1.01,6159,0,88,35,34,837,462.0,510,466,60,127.0,90,1,295,178,42,0,0,455,12552,3571,453,-5.59,,,,,,,,,,,,
289183,1564236507514,4,2.25,0.96,0.31,1.4,1.05,0.96,-0.1,0.35,-4,-4,1,0.97,6101,0,88,35,34,839,458.0,511,470,60,126.0,90,1,295,178,41,0,0,457,17628,16648,452,-5.59,,,,,,,,,,,,
289203,1564236507534,3,2.26,0.97,0.31,1.4,1.05,0.88,-0.09,0.44,-4,-4,-0,0.89,6046,0,88,35,34,839,458.0,513,465,60,126.0,90,1,295,178,41,0,0,457,14488,16648,451,-5.59,,,,,,,,,,,,
289223,1564236507554,4,2.28,0.97,0.31,1.4,1.05,0.79,-0.1,0.48,-4,-2,-1,0.8,5975,0,88,35,34,837,456.0,515,462,60,127.0,90,1,293,178,41,0,0,454,14488,8488,448,181.28,,,,,,,,,,,,
289243,1564236507574,4,2.28,0.97,0.31,1.41,1.05,0.75,-0.17,0.52,-3,-1,-2,0.77,5885,0,88,35,35,838,453.0,517,464,60,126.0,90,1,292,182,41,0,0,453,-8985,15649,449,-5.59,44.681408,10.020624,45.86,176.1,0,0.0,-1,0.0,0.0,0,1.71,4.8207
289263,1564236507594,3,2.29,0.98,0.31,1.42,1.06,0.73,-0.2,0.51,-4,-2,-2,0.76,5826,0,88,35,35,841,452.0,516,466,60,127.0,90,1,285,182,41,0,0,453,-6387,8488,445,-5.59,,,,,,,,,,,,
289283,1564236507614,3,2.29,0.98,0.31,1.41,1.05,0.82,-0.15,0.51,-4,-4,-2,0.84,5676,0,88,35,36,845,448.0,508,466,60,127.0,87,1,282,187,39,0,0,445,8488,2131,446,-5.59,,,,,,,,,,,,
289303,1564236507634,5,2.29,0.98,0.32,1.42,1.06,0.88,-0.13,0.54,-4,-5,-2,0.89,5519,0,88,35,37,851,447.0,505,462,60,127.0,87,1,276,192,39,0,0,447,10305,21432,444,-5.59,,,,,,,,,,,,
289323,1564236507654,3,2.29,0.98,0.32,1.42,1.06,0.78,-0.17,0.55,-3,-2,-2,0.8,5384,0,88,35,38,856,446.0,496,466,60,126.0,87,1,269,196,39,0,0,445,16648,-28332,444,-5.59,,,,,,,,,,,,
289343,1564236507674,6,2.29,0.98,0.32,1.42,1.06,0.86,-0.14,0.62,-4,-5,-3,0.87,5222,0,88,35,39,863,445.0,489,463,60,127.0,87,1,263,203,39,0,0,445,2131,20625,445,-5.59,44.681412,10.020608,44.82,176.1,0,0.0,-1,0.0,0.0,0,1.71,4.8224
289363,1564236507694,2,2.29,0.98,0.32,1.42,1.06,0.78,-0.15,0.55,-4,-2,-3,0.8,5074,0,88,35,40,869,445.0,481,468,60,127.0,87,1,256,205,39,0,0,151,2131,26704,441,-5.59,,,,,,,,,,,,
289383,1564236507714,3,2.3,0.98,0.31,1.42,1.06,0.84,-0.09,0.62,-4,-2,-3,0.84,4989,0,88,35,41,873,442.0,470,461,60,127.0,88,1,253,206,39,0,0,438,23400,2131,440,-5.59,,,,,,,,,,,,
289403,1564236507734,3,2.3,0.98,0.33,1.43,1.06,0.89,-0.06,0.5,-4,-4,-3,0.89,4863,0,88,35,43,875,440.0,457,460,60,128.0,88,1,246,203,39,0,0,438,20625,5600,436,-5.59,,,,,,,,,,,,
289423,1564236507754,7,2.29,0.97,0.32,1.43,1.06,0.87,-0.06,0.47,-4,-3,-3,0.87,4762,0,88,35,44,876,442.0,449,462,60,128.0,88,1,238,204,39,0,0,440,23400,-768,436,-5.59,,,,,,,,,,,,
289443,1564236507774,6,2.28,0.98,0.32,1.44,1.07,0.86,-0.05,0.46,-4,-2,-2,0.86,4644,0,88,35,45,878,439.0,441,464,60,128.0,88,1,228,204,39,0,0,440,20625,243,435,-5.59,44.681412,10.020592,44.29,176.2,0,0.0,-1,0.0,0.0,0,1.72,4.824
289463,1564236507794,3,2.28,0.98,0.32,1.43,1.07,0.82,-0.04,0.49,-4,-1,-3,0.82,4565,0,88,35,46,880,439.0,429,452,60,128.0,88,1,222,205,39,0,0,436,-28332,1779,434,-5.59,,,,,,,,,,,,
289483,1564236507814,1,2.29,0.98,0.33,1.43,1.06,0.81,-0.03,0.47,-4,-1,-3,0.81,4495,0,88,36,46,884,438.0,420,460,60,128.0,80,1,214,203,35,0,0,436,5600,-3314,432,-5.59,,,,,,,,,,,,
289503,1564236507834,4,2.28,0.98,0.32,1.43,1.07,0.8,-0.02,0.48,-4,-0,-3,0.8,4363,0,89,36,46,890,434.0,408,459,60,127.0,80,1,201,200,35,0,0,438,-768,13180,431,-5.59,,,,,,,,,,,,
289523,1564236507854,2,2.28,0.98,0.33,1.42,1.06,0.81,0.0,0.44,-4,1,-3,0.81,4206,0,89,36,47,897,431.0,400,462,60,127.0,80,1,186,197,35,0,0,434,1779,3635,430,-5.59,,,,,,,,,,,,
289543,1564236507874,2,2.28,0.98,0.32,1.42,1.06,0.82,0.0,0.46,-4,1,-4,0.82,4063,0,89,36,47,903,432.0,387,460,60,127.0,80,1,171,198,35,0,0,435,-3322,3635,427,-5.59,44.681416,10.020576,43.68,176.2,0,0.0,-1,0.0,0.0,0,1.72,4.8257
289563,1564236507894,7,2.28,0.98,0.33,1.43,1.07,0.82,-0.01,0.46,-4,-1,-4,0.82,3958,0,89,36,48,907,432.0,379,463,60,125.0,80,1,163,123,35,0,0,432,-3322,-8165,427,-5.59,,,,,,,,,,,,
289583,1564236507914,4,2.27,0.97,0.32,1.43,1.07,0.88,0.03,0.35,-4,-0,-3,0.88,3968,0,88,36,48,895,431.0,369,466,60,128.0,103,1,164,285,44,0,0,423,1779,-3414,426,-5.59,,,,,,,,,,,,
289603,1564236507934,5,2.27,0.99,0.32,1.42,1.07,0.86,0.06,0.45,-4,-5,-2,0.86,4093,0,88,36,49,884,427.0,367,455,60,127.0,103,1,176,264,44,0,0,409,31796,13040,419,-5.59,,,,,,,,,,,,
289623,1564236507954,8,2.29,0.98,0.32,1.42,1.07,0.84,0.06,0.45,-4,-4,-4,0.84,3951,0,88,36,49,868,425.0,365,466,60,126.0,103,1,164,242,44,0,0,425,3826,2524,417,-5.59,,,,,,,,,,,,
289643,1564236507974,4,2.28,0.98,0.32,1.42,1.07,0.85,0.06,0.39,-4,-0,-4,0.85,3898,0,88,36,49,857,422.0,358,464,60,128.0,103,1,162,125,44,0,0,420,-3414,-26615,416,-5.59,44.681416,10.020562,43.28,176.2,0,0.0,-1,0.0,0.0,0,1.72,4.8274
289663,1564236507994,5,2.27,0.98,0.32,1.43,1.06,0.86,0.05,0.45,-4,-2,-4,0.86,3905,0,88,36,50,841,421.0,356,456,60,126.0,103,1,163,207,44,0,0,425,-21792,31796,416,-5.59,,,,,,,,,,,,
289683,1564236508007,5,2.27,0.98,0.32,1.43,1.07,0.9,0.08,0.38,-4,-0,-4,0.91,3834,0,88,36,50,829,421.0,348,470,60,128.0,72,1,161,205,30,0,0,424,-21792,18584,415,-5.59,,,,,,,,,,,,
289703,1564236508027,5,2.27,0.99,0.32,1.43,1.07,0.92,0.09,0.43,-5,-3,-4,0.92,3725,0,88,36,50,832,420.0,345,453,60,126.0,72,1,157,203,30,0,0,421,7154,-9166,412,-5.59,,,,,,,,,,,,
289723,1564236508047,4,2.28,0.98,0.32,1.42,1.07,0.91,0.14,0.38,-5,-1,-5,0.92,3733,0,88,36,51,838,419.0,337,470,60,128.0,72,1,157,208,30,0,0,416,7154,9517,411,-5.59,,,,,,,,,,,,
289743,1564236508067,5,2.28,0.98,0.33,1.42,1.07,0.91,0.12,0.39,-5,-2,-4,0.92,3689,0,88,36,52,862,416.0,335,455,60,126.0,72,1,156,211,30,0,0,413,18584,10392,410,-5.59,44.681416,10.020547,42.37,176.2,0,0.0,-1,0.0,0.0,0,1.72,4.8291
289763,1564236508093,5,2.27,0.98,0.32,1.43,1.06,0.96,0.12,0.39,-4,-1,-4,0.97,3606,0,89,36,53,880,414.0,331,466,60,128.0,72,1,153,137,30,0,0,411,2524,-26615,408,-5.59,,,,,,,,,,,,
289783,1564236508113,7,2.27,0.99,0.32,1.42,1.07,0.98,0.13,0.41,-5,-3,-5,0.99,3554,0,89,36,54,903,411.0,325,461,60,127.0,69,1,152,141,28,0,0,402,-4059,6512,405,-5.59,,,,,,,,,,,,
289803,1564236508133,4,2.27,0.98,0.33,1.43,1.07,0.99,0.11,0.4,-5,-4,-5,0.99,3495,0,88,36,54,930,408.0,322,461,60,128.0,69,1,0,217,28,0,0,408,-26615,-9211,402,-5.59,,,,,,,,,,,,
289823,1564236508153,5,2.27,0.99,0.32,1.43,1.06,0.95,0.13,0.36,-5,-1,-6,0.96,3415,0,89,36,56,970,408.0,316,472,60,128.0,69,1,0,221,28,0,0,406,-26615,11545,399,-5.59,,,,,,,,,,,,
289843,1564236508173,4,2.27,0.98,0.33,1.42,1.07,0.95,0.13,0.35,-5,0,-6,0.96,3357,0,89,36,57,1010,405.0,311,458,60,129.0,69,1,150,228,28,0,0,402,-9211,-8151,398,-5.59,44.681419,10.020532,41.21,176.2,0,0.0,-1,0.0,0.0,0,1.72,4.8307
289863,1564236508195,4,2.28,0.98,0.33,1.43,1.06,0.94,0.12,0.36,-5,-1,-5,0.95,3267,0,89,36,57,1025,404.0,308,461,60,127.0,69,1,0,228,28,0,0,404,1504,28696,396,-5.59,,,,,,,,,,,,
289883,1564236508215,5,2.27,0.98,0.33,1.43,1.07,0.96,0.14,0.35,-5,-4,-4,0.97,3154,0,89,36,58,1047,402.0,308,460,60,127.0,70,1,0,233,28,0,0,403,10541,28696,395,-5.59,,,,,,,,,,,,
289903,1564236508235,6,2.28,0.99,0.33,1.42,1.08,0.95,0.16,0.36,-5,-6,-6,0.97,3051,0,88,36,59,1051,402.0,301,463,60,126.0,70,1,150,237,28,0,0,399,10541,-6656,393,-5.59,,,,,,,,,,,,
289923,1564236508255,7,2.28,0.99,0.32,1.43,1.07,0.97,0.13,0.33,-5,-9,-5,0.98,2945,0,88,36,60,1058,397.0,296,465,60,125.0,70,1,0,241,28,0,0,398,-3968,-1818,392,-5.59,,,,,,,,,,,,
289943,1564236508275,6,2.27,0.98,0.32,1.42,1.08,0.98,0.11,0.34,-5,-12,-2,0.98,2854,0,89,36,62,1052,396.0,288,466,60,127.0,70,1,153,246,28,0,0,395,-32702,505,390,-5.59,44.681419,10.020517,40.53,176.3,0,0.0,-1,0.0,0.0,0,1.72,4.8324
289963,1564236508295,4,2.28,0.99,0.33,1.43,1.08,0.96,0.11,0.38,-5,-13,-2,0.97,2824,0,89,36,62,1040,393.0,279,458,60,129.0,70,1,0,248,28,0,0,394,-6656,-6524,389,-5.59,,,,,,,,,,,,
289983,1564236508315,5,2.28,0.99,0.32,1.43,1.07,0.91,0.12,0.44,-5,-12,-3,0.91,2752,0,89,36,63,1017,392.0,273,462,60,128.0,66,1,0,251,26,0,0,390,1,-31744,386,-5.59,,,,,,,,,,,,
290003,1564236508335,5,2.27,0.99,0.32,1.43,1.07,0.92,0.14,0.41,-5,-7,-5,0.93,2628,0,89,36,64,1002,392.0,270,468,60,128.0,66,1,156,254,26,0,0,388,1,-19126,384,-5.59,,,,,,,,,,,,
290023,1564236508355,4,2.28,0.99,0.32,1.43,1.07,0.96,0.14,0.3,-5,-5,-4,0.97,2506,0,88,36,65,986,390.0,265,460,60,125.0,66,1,155,257,26,0,0,387,-1562,-6475,383,-5.59,,,,,,,,,,,,
290043,1564236508375,5,2.28,0.98,0.32,1.43,1.07,0.94,0.15,0.29,-5,-6,-5,0.96,2441,0,89,36,67,981,389.0,256,461,60,128.0,66,1,158,263,26,0,0,389,-6524,2278,383,181.28,44.681419,10.020504,39.69,176.3,0,0.0,-1,0.0,0.0,0,1.72,4.8341
290063,1564236508395,5,2.28,0.99,0.33,1.43,1.07,0.93,0.16,0.34,-5,-6,-6,0.94,2329,0,88,36,68,974,387.0,252,462,60,127.0,66,1,160,266,26,0,0,384,240,8200,380,-5.59,,,,,,,,,,,,
290083,1564236508415,5,2.27,0.99,0.33,1.43,1.07,0.94,0.13,0.31,-5,-5,-5,0.95,2279,0,89,36,70,967,385.0,243,457,60,128.0,60,1,155,263,23,0,0,383,-6475,8200,380,-5.59,,,,,,,,,,,,
290103,1564236508435,2,2.28,0.99,0.33,1.42,1.08,0.92,0.14,0.35,-5,-3,-6,0.93,2187,0,88,36,71,963,383.0,239,461,60,128.0,60,1,153,262,23,0,0,383,-19126,2278,376,-5.59,,,,,,,,,,,,
290123,1564236508455,2,2.27,0.99,0.32,1.42,1.07,0.95,0.14,0.32,-5,-4,-5,0.96,2116,0,89,36,73,963,381.0,232,461,60,129.0,60,1,148,260,23,0,0,381,-18948,-6656,375,-5.59,,,,,,,,,,,,
290143,1564236508475,4,2.27,0.99,0.33,1.42,1.07,0.94,0.16,0.33,-5,-4,-4,0.95,1934,0,89,36,73,964,379.0,228,465,60,127.0,60,1,148,259,23,0,0,376,8200,742,373,-5.59,44.681419,10.020491,38.66,176.3,0,0.0,-1,0.0,0.0,0,1.72,4.8357
290163,1564236508495,4,2.27,0.98,0.32,1.42,1.07,0.96,0.18,0.32,-5,-4,-5,0.97,1846,0,88,36,75,964,379.0,221,462,60,126.0,60,1,143,256,23,0,0,375,8200,-6656,372,-5.59,,,,,,,,,,,,
290183,1564236508515,3,2.27,0.99,0.32,1.43,1.07,0.93,0.17,0.34,-5,-5,-6,0.95,1786,0,89,36,76,964,375.0,215,469,60,129.0,45,1,0,254,17,0,0,375,770,486,370,-5.59,,,,,,,,,,,,
290203,1564236508535,1,2.28,0.99,0.32,1.43,1.07,0.93,0.15,0.32,-5,-3,-6,0.95,1712,0,89,36,78,965,374.0,209,462,60,127.0,45,1,138,256,17,0,0,373,742,3082,369,-5.59,,,,,,,,,,,,
290223,1564236508555,1,2.27,0.98,0.32,1.42,1.08,0.93,0.16,0.34,-5,-3,-5,0.95,1615,0,89,36,80,964,375.0,202,462,60,127.0,45,1,0,258,17,0,0,373,742,0,370,-5.59,,,,,,,,,,,,
290243,1564236508575,0,2.27,0.99,0.32,1.42,1.07,0.92,0.15,0.38,-5,-2,-5,0.93,1498,0,89,36,81,963,374.0,198,460,60,127.0,45,1,0,261,17,0,0,373,-6656,-6405,369,-5.59,44.681419,10.020477,37.7,176.3,0,0.0,-1,0.0,0.0,0,1.73,4.8374
290263,1564236508595,0,2.27,0.99,0.33,1.42,1.07,0.92,0.15,0.43,-5,-2,-5,0.94,1380,0,89,36,82,961,373.0,194,461,60,128.0,45,1,0,262,17,0,0,374,-6656,0,367,-5.59,,,,,,,,,,,,
290283,1564236508615,0,2.26,0.98,0.32,1.43,1.07,0.91,0.14,0.46,-5,-2,-5,0.92,1289,0,89,36,83,960,373.0,189,468,60,128.0,35,1,113,264,13,0,0,376,-6656,230,367,-5.59,,,,,,,,,,,,
290303,1564236508635,0,2.27,0.98,0.33,1.43,1.07,0.91,0.15,0.47,-5,-2,-5,0.93,1221,0,89,36,84,959,372.0,184,458,60,126.0,35,1,0,265,13,0,0,372,1,-6656,366,-5.59,,,,,,,,,,,,
290323,1564236508655,3,2.27,0.98,0.33,1.42,1.07,0.89,0.14,0.47,-5,-3,-5,0.9,1221,0,89,36,86,957,372.0,179,462,60,126.0,35,1,0,267,13,0,0,372,1,-6405,365,-5.59,,,,,,,,,,,,
290343,1564236508675,-2,2.28,0.98,0.33,1.43,1.07,0.89,0.14,0.44,-5,-2,-5,0.9,1135,0,89,36,88,953,370.0,173,463,60,128.0,35,1,100,269,13,0,0,372,486,-6405,366,-5.59,44.681423,10.020464,37.13,176.3,0,0.0,-1,0.0,0.0,0,1.73,4.839
290363,1564236508695,-1,2.27,0.98,0.33,1.42,1.07,0.89,0.16,0.42,-4,-2,-5,0.9,1013,0,88,36,87,952,370.0,176,468,60,123.0,35,1,38,268,13,0,0,369,486,-1268,365,-5.59,,,,,,,,,,,,
290383,1564236508715,0,2.28,0.99,0.32,1.43,1.07,0.87,0.17,0.45,-4,-3,-5,0.88,1013,0,89,36,90,950,371.0,168,458,60,127.0,27,1,91,271,10,0,0,371,486,-6405,365,-5.59,,,,,,,,,,,,
290403,1564236508735,-1,2.28,0.98,0.33,1.42,1.07,0.86,0.16,0.47,-4,-2,-6,0.87,856,0,89,36,90,947,371.0,165,462,60,126.0,27,1,90,271,10,0,0,371,257,-6656,364,-5.59,,,,,,,,,,,,
290423,1564236508755,-1,2.28,0.98,0.33,1.42,1.06,0.87,0.16,0.47,-4,-2,-6,0.88,856,0,89,36,93,945,369.0,161,461,60,126.0,27,1,131,292,10,0,0,369,-6656,3082,364,-5.59,,,,,,,,,,,,
290443,1564236508775,0,2.26,0.99,0.33,1.42,1.07,0.87,0.16,0.48,-4,-2,-6,0.88,856,0,89,36,92,944,370.0,160,470,60,124.0,27,1,105,284,10,0,0,369,486,3082,363,-5.59,44.681423,10.020452,36.4,176.3,0,0.0,-1,0.0,0.0,0,1.73,4.8407
290463,1564236508795,-0,2.27,0.98,0.32,1.43,1.07,0.87,0.16,0.47,-5,-2,-6,0.89,565,0,89,36,92,943,368.0,153,460,60,126.0,27,1,163,284,10,0,0,368,0,2790,363,-5.59,,,,,,,,,,,,
290483,1564236508815,-1,2.27,0.98,0.33,1.43,1.07,0.86,0.16,0.48,-5,-2,-6,0.87,565,0,89,36,95,941,368.0,145,459,60,126.0,16,1,176,231,6,0,0,367,0,3082,362,-5.59,,,,,,,,,,,,
290503,1564236508835,-2,2.28,0.98,0.33,1.42,1.08,0.86,0.16,0.47,-5,-2,-6,0.88,565,0,89,36,96,938,367.0,140,463,60,126.0,16,1,176,314,6,0,0,369,0,-1268,362,-5.59,,,,,,,,,,,,
290523,1564236508855,-0,2.27,0.99,0.33,1.42,1.07,0.88,0.16,0.46,-5,-2,-6,0.89,565,0,89,36,97,937,369.0,138,461,60,126.0,16,1,186,321,6,0,0,367,0,3082,361,-5.59,,,,,,,,,,,,
290543,1564236508875,-0,2.27,0.99,0.33,1.43,1.07,0.87,0.17,0.48,-5,-2,-6,0.88,565,9,89,36,97,935,368.0,134,461,60,126.0,16,1,186,562,6,0,0,366,0,-14707,361,-5.59,44.681423,10.020438,36.19,176.3,0,0.0,-1,0.0,0.0,0,1.73,4.8424
290563,1564236508895,-0,2.27,0.98,0.32,1.43,1.07,0.86,0.16,0.47,-4,-1,-6,0.88,565,27,89,36,97,931,367.0,131,460,60,126.0,16,1,186,246,6,0,0,366,0,-14707,361,-5.59,,,,,,,,,,,,
290583,1564236508915,-1,2.26,0.98,0.32,1.42,1.07,0.87,0.17,0.47,-4,-1,-6,0.88,565,44,89,36,97,929,365.0,128,461,60,126.0,30,1,186,562,11,0,0,366,-6405,0,360,-5.59,,,,,,,,,,,,
290603,1564236508935,0,2.27,0.98,0.33,1.42,1.08,0.85,0.16,0.46,-5,-1,-6,0.87,565,58,89,36,97,926,366.0,128,458,60,126.0,30,1,186,562,11,0,0,368,230,2790,360,-5.59,,,,,,,,,,,,
290623,1564236508955,-0,2.26,0.98,0.32,1.43,1.07,0.85,0.15,0.46,-5,-1,-6,0.87,565,74,89,37,97,924,364.0,126,462,60,126.0,30,1,186,246,11,0,0,365,-1268,230,359,-5.59,,,,,,,,,,,,
290643,1564236508975,0,2.26,0.99,0.32,1.43,1.07,0.84,0.16,0.45,-5,-1,-6,0.85,565,91,89,37,97,922,365.0,126,461,60,125.0,30,1,186,562,11,0,0,365,-6405,-6458,359,-5.59,44.681423,10.020426,36.08,176.4,0,0.0,-1,0.0,0.0,0,1.73,4.844
290663,1564236508995,-0,2.28,0.98,0.32,1.42,1.07,0.83,0.16,0.45,-5,-1,-6,0.84,565,96,89,37,97,918,365.0,125,460,60,126.0,30,1,186,246,11,0,0,365,-6405,-29302,358,-5.59,,,,,,,,,,,,
290683,1564236509007,0,2.27,0.98,0.33,1.42,1.08,0.82,0.15,0.45,-5,-1,-6,0.83,565,96,89,37,97,918,365.0,123,461,60,125.0,30,1,186,562,11,0,0,364,-6405,-29978,358,-5.59,,,,,,,,,,,,
290703,1564236509027,-1,2.27,0.98,0.33,1.41,1.07,0.82,0.16,0.44,-5,-0,-6,0.83,565,96,89,37,97,916,364.0,123,461,60,125.0,30,1,186,246,11,0,0,364,-1268,-6640,358,-5.59,,,,,,,,,,,,
290723,1564236509047,-1,2.28,0.98,0.33,1.42,1.07,0.81,0.17,0.46,-5,-0,-6,0.83,565,93,89,37,97,915,365.0,123,459,60,125.0,30,1,186,562,11,0,0,364,-6405,4104,358,-5.59,,,,,,,,,,,,
290743,1564236509067,0,2.28,0.98,0.32,1.42,1.07,0.82,0.16,0.49,-5,-0,-6,0.83,565,65,89,37,97,913,362.0,123,461,60,125.0,30,1,186,562,11,0,0,366,2790,-14707,357,-5.59,44.681423,10.020412,35.9,176.4,0,0.0,-1,0.0,0.0,0,1.73,4.8457
290763,1564236509094,-1,2.29,0.99,0.32,1.43,1.07,0.84,0.15,0.49,-4,0,-6,0.85,565,30,89,37,97,912,362.0,122,460,60,125.0,30,1,186,562,11,0,0,361,2790,-1268,357,-5.59,,,,,,,,,,,,
290783,1564236509114,-1,2.29,0.98,0.33,1.42,1.07,0.85,0.15,0.48,-4,-0,-6,0.86,565,0,89,37,97,911,362.0,121,458,60,125.0,30,1,189,562,11,0,0,363,2790,2790,358,-5.59,,,,,,,,,,,,
290803,1564236509134,-0,2.3,0.98,0.33,1.42,1.08,0.85,0.14,0.49,-4,0,-5,0.86,565,0,89,37,97,910,362.0,121,461,60,125.0,30,1,189,246,11,0,0,362,2790,-6640,357,-5.59,,,,,,,,,,,,
290823,1564236509154,-1,2.31,0.98,0.33,1.42,1.07,0.83,0.14,0.48,-4,0,-5,0.84,565,0,89,37,97,909,361.0,121,458,60,125.0,30,1,189,562,11,0,0,362,-6458,-6640,358,-5.59,,,,,,,,,,,,
290843,1564236509174,-0,2.32,0.98,0.33,1.43,1.08,0.82,0.13,0.49,-4,0,-5,0.83,565,0,89,37,97,145,360.0,120,462,60,125.0,30,1,0,0,11,0,0,0,250,250,0,-5.59,44.681419,10.020401,35.71,176.4,0,0.0,-1,0.0,0.0,0,1.73,4.8474
290863,1564236509194,-2,2.31,0.99,0.33,1.42,1.08,0.82,0.12,0.49,-3,1,-5,0.83,0,0,89,37,97,565,358.0,120,460,60,125.0,0,1,0,0,0,0,0,359,-29978,-29978,358,-5.59,,,,,,,,,,,,
290883,1564236509214,-0,2.31,0.98,0.33,1.42,1.08,0.82,0.13,0.48,-3,1,-4,0.83,0,0,89,37,97,630,359.0,120,462,60,125.0,0,1,0,0,0,0,0,359,-29302,-29978,357,-5.59,,,,,,,,,,,,
290903,1564236509234,-2,2.32,0.99,0.33,1.42,1.08,0.81,0.12,0.48,-3,1,-4,0.82,0,0,89,37,97,695,358.0,120,462,60,125.0,0,1,0,0,0,0,0,358,-6640,-29978,358,-5.59,,,,,,,,,,,,
290923,1564236509254,-1,2.32,0.98,0.33,1.43,1.08,0.81,0.12,0.48,-3,0,-4,0.82,0,8,89,37,97,759,357.0,119,461,60,125.0,0,1,0,0,0,0,0,358,-6640,2060,357,-5.59,,,,,,,,,,,,
290943,1564236509274,-1,2.33,0.99,0.33,1.43,1.07,0.84,0.12,0.48,-3,0,-4,0.84,0,20,89,37,97,825,357.0,119,461,60,126.0,0,1,0,0,0,0,0,361,-6640,4104,356,-5.59,44.681419,10.020388,35.51,176.4,0,0.0,-1,0.0,0.0,0,1.73,4.849
290963,1564236509294,-1,2.32,0.99,0.33,1.43,1.08,0.84,0.11,0.48,-2,0,-4,0.85,0,36,89,37,97,889,357.0,119,460,60,125.0,0,1,0,0,0,0,0,355,-6640,-29978,355,-5.59,,,,,,,,,,,,
290983,1564236509314,-2,2.29,0.98,0.33,1.42,1.08,0.83,0.1,0.49,-2,0,-3,0.84,0,51,89,37,97,905,356.0,119,461,60,125.0,0,1,0,0,0,0,0,355,4104,-29978,355,-5.59,,,,,,,,,,,,
291003,1564236509334,-0,2.3,0.99,0.33,1.43,1.08,0.82,0.09,0.47,-2,0,-3,0.83,0,64,89,37,97,905,355.0,119,460,60,125.0,0,1,0,0,0,0,0,355,2060,-6644,354,-5.59,,,,,,,,,,,,
291023,1564236509354,-1,2.3,0.98,0.33,1.43,1.08,0.81,0.08,0.48,-2,0,-3,0.82,0,76,89,37,97,905,355.0,119,462,60,125.0,0,1,0,0,0,0,0,353,2060,3302,355,-5.59,,,,,,,,,,,,
291043,1564236509374,-0,2.3,0.98,0.33,1.43,1.08,0.8,0.08,0.48,-2,-0,-3,0.8,0,87,89,37,97,905,356.0,118,462,60,125.0,0,1,0,0,0,0,0,357,4104,3183,354,-5.59,44.681419,10.020375,35.38,176.4,0,0.0,-1,0.0,0.0,0,1.73,4.8507
291063,1564236509394,-1,2.3,0.99,0.33,1.42,1.08,0.79,0.06,0.49,-2,0,-3,0.8,0,93,89,37,97,904,356.0,119,462,60,125.0,0,1,0,0,0,0,0,354,2060,-6644,354,-5.59,,,,,,,,,,,,
291083,1564236509414,0,2.3,0.98,0.33,1.43,1.08,0.81,0.07,0.48,-2,0,-3,0.82,0,94,89,37,97,904,355.0,118,462,60,125.0,0,1,0,0,0,0,0,356,2060,-29978,353,-5.59,,,,,,,,,,,,
291103,1564236509434,-1,2.31,0.99,0.33,1.43,1.09,0.82,0.08,0.5,-2,-0,-3,0.83,0,94,89,37,97,903,355.0,118,461,60,125.0,0,1,0,0,0,0,0,356,2060,-29978,353,-5.59,,,,,,,,,,,,
291123,1564236509454,1,2.3,0.99,0.33,1.42,1.08,0.83,0.08,0.51,-2,-1,-3,0.84,0,94,89,37,97,903,354.0,118,461,60,125.0,0,1,0,0,0,0,0,355,3302,-30454,352,-5.59,,,,,,,,,,,,
291143,1564236509474,3,2.3,0.98,0.34,1.43,1.08,0.84,0.08,0.5,-2,-1,-3,0.84,0,94,89,37,97,903,353.0,118,460,60,125.0,0,1,0,0,0,0,0,351,3183,3183,349,-5.59,44.681419,10.020363,34.95,176.5,0,0.0,-1,0.0,0.0,0,1.73,4.8524
291163,1564236509494,6,2.3,0.98,0.33,1.43,1.08,0.86,0.08,0.47,-2,-1,-3,0.86,0,94,89,37,97,903,350.0,118,458,60,125.0,0,1,0,0,0,0,0,351,-30454,8841,347,-5.59,,,,,,,,,,,,
291183,1564236509514,7,2.3,0.99,0.33,1.44,1.08,0.86,0.09,0.44,-2,-1,-3,0.87,0,87,89,37,97,903,350.0,118,461,60,125.0,0,1,0,0,0,0,0,347,-30454,-30438,348,-5.59,,,,,,,,,,,,
291203,1564236509534,8,2.29,0.99,0.33,1.44,1.08,0.86,0.08,0.42,-2,-1,-3,0.87,0,73,89,37,97,904,346.0,119,458,60,124.0,0,1,0,0,0,0,0,344,8841,-30438,345,-5.59,,,,,,,,,,,,
291223,1564236509554,8,2.3,0.99,0.33,1.43,1.08,0.89,0.08,0.41,-2,-1,-2,0.89,0,58,89,37,97,904,345.0,118,462,60,124.0,0,1,0,0,0,0,0,343,6870,6668,343,-5.59,,,,,,,,,,,,
291243,1564236509574,9,2.31,0.99,0.33,1.43,1.09,0.89,0.09,0.4,-1,-1,-2,0.9,0,45,89,37,97,904,341.0,118,460,60,124.0,0,1,0,0,0,0,0,340,3327,-31222,341,-5.59,44.681419,10.02035,35.15,176.5,0,0.0,-1,0.0,0.0,0,1.74,4.8541
291263,1564236509594,10,2.3,0.98,0.33,1.43,1.08,0.91,0.08,0.4,-1,-1,-2,0.92,0,36,89,37,97,904,338.0,118,458,60,125.0,0,1,0,0,0,0,0,338,2560,3327,336,-5.59,,,,,,,,,,,,
291283,1564236509614,11,2.3,0.99,0.33,1.44,1.08,0.94,0.09,0.38,-1,-1,-2,0.94,0,30,89,37,97,905,335.0,118,460,60,125.0,0,1,0,0,0,0,0,337,3346,4838,334,-5.59,,,,,,,,,,,,
291303,1564236509634,10,2.3,0.99,0.33,1.43,1.08,0.95,0.07,0.37,-1,-2,-2,0.95,0,26,89,37,97,905,333.0,118,460,60,124.0,0,1,0,0,0,0,0,329,-6528,-12032,331,-5.59,,,,,,,,,,,,
291323,1564236509654,10,2.31,0.99,0.34,1.43,1.09,0.97,0.06,0.36,-1,-2,-2,0.97,0,23,89,37,97,906,331.0,118,461,60,125.0,0,1,0,0,0,0,0,327,-12032,-12032,328,-5.59,,,,,,,,,,,,
291343,1564236509674,10,2.3,0.99,0.34,1.43,1.08,0.96,0.06,0.36,-2,-2,-2,0.97,0,18,89,37,97,906,326.0,118,461,60,125.0,0,1,0,0,0,0,0,325,165,-23296,324,-5.59,44.681419,10.020338,34.44,176.5,0,0.0,-1,0.0,0.0,0,1.74,4.8557
291363,1564236509694,10,2.31,0.99,0.34,1.43,1.08,0.97,0.07,0.33,-1,-2,-2,0.97,0,13,89,37,97,907,326.0,118,460,60,125.0,0,1,0,0,0,0,0,325,165,-22016,322,-5.59,,,,,,,,,,,,
291383,1564236509714,10,2.31,0.99,0.34,1.43,1.09,1.0,0.08,0.32,-1,-2,-2,1.0,0,7,89,37,97,908,322.0,118,461,60,124.0,0,1,0,0,0,0,0,319,155,-25856,321,-5.59,,,,,,,,,,,,
291403,1564236509734,11,2.31,0.98,0.33,1.44,1.08,1.0,0.08,0.32,-1,-1,-2,1.0,0,5,89,37,97,909,319.0,118,461,60,124.0,0,1,0,0,0,0,0,317,-27136,-28416,318,-5.59,,,,,,,,,,,,
291423,1564236509754,9,2.32,0.99,0.33,1.43,1.08,1.01,0.07,0.3,-1,-1,-2,1.01,0,0,89,37,97,910,315.0,118,459,60,124.0,0,1,0,0,0,0,0,312,-29696,-29696,315,-5.59,,,,,,,,,,,,
291443,1564236509774,10,2.31,0.99,0.34,1.43,1.08,1.02,0.07,0.31,-1,-0,-2,1.02,0,0,89,37,97,911,312.0,118,460,60,125.0,0,1,0,0,0,0,0,311,130,130,311,-5.59,44.681416,10.020327,33.59,176.5,0,0.0,-1,0.0,0.0,0,1.74,4.8574
291463,1564236509795,10,2.3,0.99,0.33,1.44,1.08,1.02,0.07,0.3,-1,-0,-2,1.02,0,0,89,37,97,912,310.0,118,461,60,124.0,0,1,0,0,0,0,0,310,125,125,309,-5.59,,,,,,,,,,,,
291483,1564236509815,10,2.31,0.98,0.33,1.43,1.09,1.04,0.07,0.3,-1,-1,-2,1.04,0,0,89,37,97,914,307.0,118,461,60,124.0,0,1,0,0,0,0,0,306,30720,110,306,-5.59,,,,,,,,,,,,
291503,1564236509835,10,2.3,0.99,0.33,1.44,1.08,1.03,0.06,0.3,-1,-1,-1,1.03,0,0,89,37,97,914,305.0,118,461,60,124.0,0,1,0,0,0,0,0,305,29440,105,304,-5.59,,,,,,,,,,,,
291523,1564236509855,9,2.31,0.99,0.33,1.44,1.08,1.01,0.06,0.28,-1,-1,-1,1.02,0,0,89,37,97,915,303.0,118,461,60,125.0,0,1,0,0,0,0,0,301,26880,105,301,-5.59,,,,,,,,,,,,
291543,1564236509875,9,2.31,0.99,0.33,1.44,1.09,1.01,0.07,0.28,-1,-1,-1,1.02,0,0,89,37,97,916,299.0,118,461,60,124.0,0,1,0,0,0,0,0,300,25600,24320,298,-5.59,44.681416,10.020315,32.11,176.6,0,0.0,-1,0.0,0.0,0,1.74,4.859
291563,1564236509894,8,2.31,0.99,0.34,1.43,1.09,1.02,0.07,0.28,-1,-1,-1,1.02,0,0,89,37,97,917,297.0,118,461,60,124.0,0,1,0,0,0,0,0,295,24320,21760,297,-5.59,,,,,,,,,,,,
291583,1564236509914,6,2.32,0.99,0.34,1.43,1.09,1.02,0.07,0.29,-1,-1,-1,1.02,0,0,89,37,97,918,297.0,118,461,60,124.0,0,1,0,0,0,0,0,292,24320,80,294,-5.59,,,,,,,,,,,,
291603,1564236509934,5,2.31,0.99,0.34,1.43,1.08,1.02,0.07,0.29,-1,-1,-1,1.02,0,0,89,37,97,919,293.0,118,462,60,124.0,0,1,0,0,0,0,0,292,21760,21760,293,-5.59,,,,,,,,,,,,
291623,1564236509954,6,2.31,0.99,0.34,1.43,1.09,1.02,0.07,0.3,-1,-0,-1,1.02,0,0,89,37,97,920,290.0,118,461,60,124.0,0,1,0,0,0,0,0,289,0,0,290,-5.59,,,,,,,,,,,,
291643,1564236509974,5,2.31,0.99,0.33,1.43,1.09,1.02,0.07,0.31,-1,-1,-1,1.03,0,0,89,37,97,922,288.0,118,463,60,124.0,0,1,0,0,0,0,0,289,0,-16896,288,-5.59,44.681416,10.020304,30.57,176.6,0,0.0,-1,0.0,0.0,0,1.74,4.8607
291663,1564236509994,6,2.31,0.99,0.33,1.44,1.08,1.02,0.07,0.31,-1,-1,-1,1.03,0,0,89,37,97,923,287.0,118,461,60,124.0,0,1,0,0,0,0,0,287,41,0,285,-5.59,,,,,,,,,,,,
291683,1564236510005,3,2.31,0.99,0.34,1.43,1.08,1.01,0.06,0.33,-1,-2,-1,1.01,0,0,89,37,97,924,285.0,119,463,60,124.0,0,1,0,0,0,0,0,284,-16896,41,284,-5.59,,,,,,,,,,,,
291703,1564236510025,2,2.31,0.99,0.34,1.43,1.09,0.98,0.05,0.35,-1,-1,-1,0.98,0,0,89,37,97,925,285.0,118,461,60,124.0,0,1,0,0,0,0,0,281,-16896,-1529,283,-5.59,,,,,,,,,,,,
291723,1564236510045,0,2.31,0.99,0.33,1.44,1.08,0.96,0.06,0.37,-1,-0,-0,0.97,0,0,89,37,97,926,284.0,118,461,60,124.0,0,1,0,0,0,0,0,281,250,1886,284,-5.59,,,,,,,,,,,,
291743,1564236510065,0,2.31,0.99,0.34,1.42,1.09,0.96,0.06,0.4,-1,-0,-1,0.97,0,0,89,37,97,927,283.0,118,461,60,124.0,0,1,0,0,0,0,0,284,-1529,24064,283,-5.59,44.681416,10.020294,29.28,176.6,0,0.0,-1,0.0,0.0,0,1.74,4.8624
291763,1564236510093,-0,2.3,0.99,0.33,1.44,1.09,0.95,0.05,0.43,-1,-0,-1,0.95,0,0,89,37,97,927,284.0,118,458,60,124.0,0,1,0,0,0,0,0,283,250,1886,282,-5.59,,,,,,,,,,,,
291783,1564236510113,-0,2.3,0.99,0.33,1.43,1.08,0.93,0.05,0.44,-1,0,-1,0.93,0,0,89,37,97,928,283.0,118,461,60,124.0,0,1,0,0,0,0,0,283,1886,-1534,282,-5.59,,,,,,,,,,,,
291803,1564236510133,-1,2.3,0.99,0.33,1.43,1.08,0.92,0.06,0.45,-1,1,-1,0.92,0,0,89,37,97,930,282.0,118,460,60,124.0,0,1,0,0,0,0,0,282,1886,1886,282,-5.59,,,,,,,,,,,,
291823,1564236510153,-0,2.32,0.98,0.33,1.43,1.09,0.89,0.05,0.46,-1,1,-1,0.9,0,0,89,37,97,931,281.0,118,459,60,124.0,0,1,0,0,0,0,0,281,24064,250,280,-5.59,,,,,,,,,,,,
291843,1564236510173,0,2.31,0.98,0.33,1.43,1.08,0.9,0.05,0.45,-1,1,-1,0.9,0,0,89,37,97,932,280.0,118,460,60,124.0,0,1,0,0,0,0,0,282,250,250,280,-5.59,44.681416,10.020284,28.43,176.6,0,0.0,-1,0.0,0.0,0,1.74,4.864
291863,1564236510193,-2,2.31,0.99,0.34,1.42,1.08,0.89,0.04,0.45,-1,0,-1,0.89,0,0,89,37,97,933,280.0,119,460,60,124.0,0,1,0,0,0,0,0,280,250,-1529,280,-5.59,,,,,,,,,,,,
291883,1564236510213,-1,2.31,0.99,0.33,1.44,1.08,0.88,0.04,0.46,-1,-0,-1,0.88,0,0,89,37,97,935,280.0,118,460,60,124.0,0,1,0,0,0,0,0,283,250,-1529,280,-5.59,,,,,,,,,,,,
291903,1564236510233,-0,2.3,0.99,0.33,1.43,1.08,0.86,0.04,0.45,-1,0,-1,0.86,0,0,89,37,97,936,280.0,118,460,60,123.0,0,1,0,0,0,0,0,279,250,250,280,-5.59,,,,,,,,,,,,
291923,1564236510253,-1,2.31,0.99,0.33,1.43,1.09,0.86,0.05,0.46,-1,0,-1,0.86,0,0,89,37,97,936,280.0,118,458,60,124.0,0,1,0,0,0,0,0,279,250,250,279,-5.59,,,,,,,,,,,,
291943,1564236510273,0,2.31,0.98,0.33,1.43,1.09,0.86,0.05,0.47,-1,0,-1,0.86,0,0,89,37,97,936,280.0,118,460,60,124.0,0,1,0,0,0,0,0,280,250,630,279,-5.59,44.681416,10.020274,27.81,176.7,0,0.0,-1,0.0,0.0,0,1.74,4.8657
291963,1564236510293,-2,2.31,0.99,0.34,1.44,1.08,0.86,0.05,0.46,-1,0,-1,0.86,0,0,89,37,97,938,279.0,118,461,60,124.0,0,1,0,0,0,0,0,280,-1534,630,279,-5.59,,,,,,,,,,,,
291983,1564236510313,-2,2.31,0.98,0.34,1.42,1.09,0.85,0.03,0.47,-1,0,-1,0.85,0,0,89,37,97,939,279.0,118,460,60,124.0,0,1,0,0,0,0,0,278,-1534,30208,278,-5.59,,,,,,,,,,,,
292003,1564236510333,-1,2.31,0.99,0.34,1.43,1.08,0.85,0.04,0.46,-0,0,-1,0.85,0,0,89,37,97,940,278.0,118,460,60,124.0,0,1,0,0,0,0,0,279,630,-1534,278,-5.59,,,,,,,,,,,,
292023,1564236510353,-1,2.32,0.99,0.33,1.42,1.08,0.84,0.04,0.46,-1,-0,-1,0.84,0,0,89,37,97,941,278.0,118,460,60,124.0,0,1,0,0,0,0,0,278,630,30208,277,-5.59,,,,,,,,,,,,
292043,1564236510373,-0,2.31,0.98,0.33,1.43,1.08,0.84,0.03,0.47,-1,0,-1,0.84,0,0,89,37,97,942,277.0,118,461,60,124.0,0,1,0,0,0,0,0,277,30208,2414,278,-5.59,44.681412,10.020264,27.64,176.7,0,0.0,-1,0.0,0.0,0,1.74,4.8674
292063,1564236510395,0,2.31,0.99,0.33,1.44,1.08,0.85,0.04,0.47,-1,0,-1,0.85,0,0,89,37,97,944,277.0,119,460,60,124.0,0,1,0,0,0,0,0,278,250,630,277,-5.59,,,,,,,,,,,,
292083,1564236510415,0,2.32,0.99,0.33,1.43,1.08,0.84,0.03,0.48,-1,0,-1,0.84,0,0,89,37,97,944,276.0,118,460,60,124.0,0,1,0,0,0,0,0,278,250,-1527,276,-5.59,,,,,,,,,,,,
292103,1564236510435,1,2.31,0.99,0.33,1.43,1.08,0.85,0.03,0.49,-1,-0,-1,0.85,0,0,89,37,97,945,275.0,118,461,60,124.0,0,1,0,0,0,0,0,276,-1527,30208,275,-5.59,,,,,,,,,,,,
292123,1564236510455,2,2.32,0.98,0.33,1.43,1.08,0.84,0.03,0.5,-1,-0,-1,0.84,0,0,89,37,97,946,275.0,118,461,60,124.0,0,1,0,0,0,0,0,274,2414,2414,275,-5.59,,,,,,,,,,,,
292143,1564236510475,1,2.32,0.98,0.33,1.43,1.08,0.84,0.04,0.51,-1,-0,-1,0.84,0,0,89,37,97,947,274.0,118,461,60,124.0,0,1,0,0,0,0,0,272,2414,28160,273,-5.59,44.681412,10.020254,27.56,176.7,0,0.0,-1,0.0,0.0,0,1.74,4.869
292163,1564236510493,1,2.32,0.99,0.33,1.43,1.08,0.85,0.03,0.49,-1,0,-1,0.85,0,0,89,37,97,948,274.0,118,462,60,123.0,0,1,0,0,0,0,0,274,2414,-1281,273,-5.59,,,,,,,,,,,,
292183,1564236510513,2,2.32,0.98,0.33,1.43,1.08,0.86,0.03,0.47,-1,0,-1,0.86,0,0,89,37,97,948,273.0,118,460,60,123.0,0,1,0,0,0,0,0,272,28160,250,271,-5.59,,,,,,,,,,,,
292203,1564236510533,1,2.32,0.99,0.34,1.42,1.08,0.85,0.04,0.47,-1,-0,-1,0.86,0,0,89,37,97,950,272.0,118,462,60,124.0,0,1,0,0,0,0,0,269,250,-1,272,-5.59,,,,,,,,,,,,
292223,1564236510553,2,2.32,0.99,0.34,1.42,1.08,0.85,0.03,0.47,-1,0,-1,0.85,0,0,89,37,97,951,271.0,118,462,60,123.0,0,1,0,0,0,0,0,269,-1,-1,270,-5.59,,,,,,,,,,,,
292243,1564236510573,2,2.31,0.99,0.33,1.43,1.08,0.87,0.03,0.46,-1,1,-1,0.87,0,0,89,37,97,952,270.0,118,460,60,124.0,0,1,0,0,0,0,0,268,-1,-1,270,-5.59,44.681412,10.020245,27.41,176.8,0,0.0,-1,0.0,0.0,0,1.74,4.8707
292263,1564236510595,2,2.32,0.98,0.34,1.43,1.08,0.87,0.03,0.45,-0,1,-0,0.87,0,0,89,37,97,952,268.0,118,462,60,124.0,0,1,0,0,0,0,0,265,-1,-1,268,-5.59,,,,,,,,,,,,
292283,1564236510615,1,2.32,0.98,0.34,1.43,1.08,0.87,0.03,0.45,-0,1,-0,0.87,0,0,89,37,97,954,265.0,118,461,60,124.0,0,1,0,0,0,0,0,266,-1,-1,265,-5.59,,,,,,,,,,,,
292303,1564236510635,1,2.33,0.99,0.34,1.43,1.08,0.88,0.02,0.45,-1,1,-0,0.88,0,0,89,37,97,955,265.0,118,461,60,123.0,0,1,0,0,0,0,0,264,-1,-1,264,-5.59,,,,,,,,,,,,
292323,1564236510655,2,2.32,0.98,0.34,1.43,1.08,0.88,0.02,0.45,-1,-0,-0,0.88,0,0,89,37,97,955,263.0,118,461,60,124.0,0,1,0,0,0,0,0,262,-1,-1,263,-5.59,,,,,,,,,,,,
292343,1564236510675,2,2.32,0.98,0.33,1.43,1.08,0.88,0.02,0.46,-1,0,-0,0.88,0,0,89,37,97,956,263.0,118,461,60,124.0,0,1,0,0,0,0,0,261,-1,-1,262,-5.59,44.681412,10.020235,26.96,176.8,0,0.0,-1,0.0,0.0,0,1.74,4.8724
292363,1564236510695,1,2.33,0.98,0.33,1.43,1.08,0.88,0.02,0.44,-1,-0,-0,0.88,0,0,89,37,97,957,262.0,118,461,60,124.0,0,1,0,0,0,0,0,260,-1,-41,262,-5.59,,,,,,,,,,,,
292383,1564236510715,1,2.33,0.98,0.33,1.42,1.09,0.88,0.02,0.42,-1,-0,-0,0.88,0,0,89,37,97,958,261.0,118,458,60,124.0,0,1,0,0,0,0,0,261,-1,-1,260,-5.59,,,,,,,,,,,,
292403,1564236510735,2,2.33,0.99,0.33,1.43,1.08,0.88,0.02,0.42,-1,0,-1,0.88,0,0,89,37,97,959,260.0,118,458,60,124.0,0,1,0,0,0,0,0,259,-1,-10440,259,-5.59,,,,,,,,,,,,
292423,1564236510755,2,2.32,0.99,0.34,1.42,1.08,0.89,0.02,0.42,-0,0,-0,0.89,0,0,89,37,97,959,258.0,118,461,60,124.0,0,1,0,0,0,0,0,255,-10440,-1,258,-5.59,,,,,,,,,,,,
292443,1564236510775,2,2.33,0.99,0.33,1.43,1.08,0.9,0.02,0.43,-0,-0,-0,0.9,0,0,89,37,97,960,258.0,118,460,60,124.0,0,1,0,0,0,0,0,255,-10440,506,258,-5.59,44.681408,10.020226,26.56,176.8,0,0.0,-1,0.0,0.0,0,1.75,4.8741
292463,1564236510795,2,2.33,0.99,0.33,1.43,1.08,0.9,0.03,0.43,-0,0,-0,0.9,0,0,89,37,97,961,256.0,118,461,60,124.0,0,1,0,0,0,0,0,254,506,506,256,-5.59,,,,,,,,,,,,
292483,1564236510815,2,2.33,0.98,0.34,1.43,1.09,0.9,0.01,0.43,-0,1,-1,0.9,0,0,89,37,97,962,254.0,118,460,60,124.0,0,1,0,0,0,0,0,252,-1,-1,254,-5.59,,,,,,,,,,,,
292503,1564236510835,2,2.32,0.99,0.33,1.43,1.08,0.9,0.02,0.41,-0,1,-0,0.9,0,0,89,37,97,962,253.0,118,461,60,124.0,0,1,0,0,0,0,0,252,-1,-1,253,-5.59,,,,,,,,,,,,
292523,1564236510855,1,2.33,0.98,0.33,1.43,1.09,0.9,0.02,0.41,-0,1,-0,0.9,0,0,89,37,97,963,253.0,118,459,60,124.0,0,1,0,0,0,0,0,251,-214,10818,253,-5.59,,,,,,,,,,,,
292543,1564236510875,2,2.33,0.99,0.33,1.43,1.08,0.89,0.02,0.42,-0,1,0,0.89,0,0,89,37,97,964,251.0,118,461,60,123.0,0,1,0,0,0,0,0,251,-214,-1,251,-5.59,44.681408,10.020217,25.86,176.8,0,0.0,-1,0.0,0.0,0,1.75,4.8757
292563,1564236510895,2,2.33,0.99,0.33,1.44,1.08,0.89,0.02,0.42,-0,1,0,0.89,0,0,89,37,97,965,250.0,118,458,60,123.0,0,1,0,0,0,0,0,251,10818,-214,250,-5.59,,,,,,,,,,,,
292583,1564236510915,2,2.32,0.98,0.33,1.43,1.08,0.89,0.02,0.41,-0,1,0,0.89,0,0,89,37,97,965,250.0,118,462,60,124.0,0,1,0,0,0,0,0,246,16896,16896,250,-5.59,,,,,,,,,,,,
292603,1564236510935,0,2.33,0.98,0.33,1.43,1.09,0.9,0.02,0.42,-0,0,0,0.9,0,0,89,37,97,966,248.0,118,461,60,124.0,0,1,0,0,0,0,0,246,250,-1494,248,-5.59,,,,,,,,,,,,
292623,1564236510955,2,2.33,0.98,0.34,1.42,1.09,0.88,0.02,0.44,-0,0,0,0.88,0,0,89,37,97,967,247.0,118,462,60,123.0,0,1,0,0,0,0,0,246,-1494,15360,246,-5.59,,,,,,,,,,,,
292643,1564236510975,2,2.33,0.99,0.33,1.43,1.08,0.89,0.02,0.44,-0,1,-0,0.89,0,0,89,37,97,967,246.0,118,460,60,124.0,0,1,0,0,0,0,0,245,10812,15360,246,-5.59,44.681408,10.020208,25.08,176.8,0,0.0,-1,0.0,0.0,0,1.75,4.8774
292663,1564236510995,2,2.32,0.99,0.34,1.43,1.08,0.9,0.03,0.43,-0,0,-0,0.9,0,0,89,37,97,968,245.0,118,461,60,124.0,0,1,0,0,0,0,0,244,15360,15360,245,-5.59,,,,,,,,,,,,
292683,1564236511006,2,2.32,0.99,0.34,1.42,1.09,0.9,0.03,0.44,0,-1,0,0.9,0,0,89,37,97,968,244.0,118,462,60,124.0,0,1,0,0,0,0,0,241,250,23482,244,-5.59,,,,,,,,,,,,
292703,1564236511026,1,2.32,0.99,0.34,1.43,1.08,0.9,0.03,0.45,0,-1,0,0.9,0,0,89,37,97,969,243.0,118,462,60,124.0,0,1,0,0,0,0,0,240,23482,-17920,243,-5.59,,,,,,,,,,,,
292723,1564236511046,2,2.32,0.98,0.33,1.43,1.08,0.9,0.03,0.45,0,-1,-0,0.9,0,0,89,37,97,970,241.0,118,461,60,123.0,0,1,0,0,0,0,0,239,250,-17920,241,-5.59,,,,,,,,,,,,
292743,1564236511066,0,2.32,0.99,0.34,1.42,1.09,0.9,0.03,0.46,0,-1,0,0.9,0,0,89,37,97,971,240.0,118,462,60,124.0,0,1,0,0,0,0,0,239,250,13468,240,-5.59,44.681408,10.0202,24.53,176.8,0,0.0,-1,0.0,0.0,0,1.75,4.8791
292763,1564236511094,2,2.32,0.99,0.34,1.42,1.09,0.89,0.02,0.46,0,-1,-0,0.89,0,0,89,37,97,971,239.0,118,461,60,124.0,0,1,0,0,0,0,0,238,-1484,13468,239,-5.59,,,,,,,,,,,,
292783,1564236511114,1,2.33,0.99,0.33,1.43,1.09,0.89,0.05,0.44,0,-0,0,0.89,0,0,89,37,97,972,238.0,118,461,60,124.0,0,1,0,0,0,0,0,237,-25600,-17920,238,-5.59,,,,,,,,,,,,
292803,1564236511134,0,2.33,0.98,0.33,1.43,1.09,0.9,0.04,0.43,0,-0,0,0.9,0,0,89,37,97,972,238.0,118,462,60,124.0,0,1,0,0,0,0,0,235,250,250,238,-5.59,,,,,,,,,,,,
292823,1564236511154,0,2.34,0.99,0.34,1.43,1.08,0.89,0.04,0.45,0,-1,1,0.89,0,0,89,37,97,973,235.0,118,461,60,124.0,0,1,0,0,0,0,0,233,-1483,-1483,235,-5.59,,,,,,,,,,,,
292843,1564236511174,2,2.32,0.99,0.34,1.42,1.08,0.89,0.04,0.45,0,-1,0,0.89,0,0,89,37,97,973,234.0,118,461,60,124.0,0,1,0,0,0,0,0,235,13602,13602,234,-5.59,44.681408,10.020191,24.08,176.9,0,0.0,-1,0.0,0.0,0,1.75,4.8807
292863,1564236511194,2,2.32,0.98,0.33,1.44,1.08,0.89,0.04,0.46,0,-1,0,0.89,0,0,89,37,97,974,233.0,118,461,60,124.0,0,1,0,0,0,0,0,231,8704,-1494,233,-5.59,,,,,,,,,,,,
292883,1564236511214,2,2.33,0.98,0.34,1.43,1.09,0.89,0.04,0.45,0,-0,0,0.89,0,0,89,37,97,975,232.0,118,460,60,123.0,0,1,0,0,0,0,0,232,250,-1494,232,-5.59,,,,,,,,,,,,
292903,1564236511234,1,2.33,0.99,0.33,1.44,1.08,0.88,0.04,0.45,0,-0,0,0.89,0,0,89,37,97,975,231.0,118,462,60,123.0,0,1,0,0,0,0,0,230,-1494,-1494,231,-5.59,,,,,,,,,,,,
292923,1564236511254,2,2.32,0.99,0.34,1.43,1.08,0.89,0.04,0.47,0,-1,0,0.9,0,0,89,37,97,976,230.0,118,460,60,123.0,0,1,0,0,0,0,0,228,10824,18432,230,-5.59,,,,,,,,,,,,
292943,1564236511274,2,2.33,0.99,0.33,1.43,1.08,0.88,0.04,0.47,0,-1,0,0.89,0,0,89,37,97,977,230.0,118,460,60,123.0,0,1,0,0,0,0,0,228,10824,10824,229,-5.59,44.681408,10.020183,23.49,176.9,0,0.0,-1,0.0,0.0,0,1.75,4.8824
292963,1564236511294,2,2.33,0.98,0.34,1.43,1.09,0.9,0.04,0.47,0,-1,0,0.9,0,0,89,37,97,977,229.0,118,461,60,124.0,0,1,0,0,0,0,0,227,250,18432,229,-5.59,,,,,,,,,,,,
292983,1564236511314,2,2.32,0.99,0.34,1.44,1.08,0.89,0.03,0.48,0,-1,0,0.89,0,0,89,37,97,977,226.0,118,458,60,123.0,0,1,0,0,0,0,0,224,10318,250,226,-5.59,,,,,,,,,,,,
293003,1564236511334,1,2.33,0.98,0.34,1.43,1.09,0.89,0.03,0.47,0,-1,0,0.89,0,0,89,37,97,978,226.0,118,460,60,123.0,0,1,0,0,0,0,0,225,19968,19968,226,-5.59,,,,,,,,,,,,
293023,1564236511354,1,2.33,0.99,0.33,1.43,1.08,0.89,0.04,0.46,0,-1,0,0.89,0,0,89,37,97,978,224.0,118,460,60,123.0,0,1,0,0,0,0,0,223,250,250,224,-5.59,,,,,,,,,,,,
293043,1564236511374,2,2.32,0.99,0.34,1.42,1.08,0.89,0.05,0.48,0,-1,0,0.89,0,0,89,37,97,979,223.0,118,462,60,123.0,0,1,0,0,0,0,0,222,-1530,-1530,223,-5.59,44.681404,10.020175,23.09,176.9,0,0.0,-1,0.0,0.0,0,1.75,4.884
293063,1564236511395,0,2.33,0.98,0.34,1.43,1.09,0.89,0.04,0.47,0,-1,-0,0.89,0,0,89,37,97,979,222.0,118,460,60,123.0,0,1,0,0,0,0,0,222,1596,-1530,222,-5.59,,,,,,,,,,,,
293083,1564236511415,2,2.31,0.98,0.33,1.43,1.09,0.89,0.04,0.47,0,-1,0,0.89,0,0,89,37,97,980,221.0,118,461,60,123.0,0,1,0,0,0,0,0,221,15360,250,220,-5.59,,,,,,,,,,,,
293103,1564236511435,0,2.32,0.99,0.34,1.44,1.08,0.89,0.04,0.47,0,-2,-0,0.89,0,0,89,37,97,981,221.0,118,461,60,123.0,0,1,0,0,0,0,0,221,15360,-17920,220,-5.59,,,,,,,,,,,,
293123,1564236511455,2,2.31,0.98,0.34,1.43,1.08,0.89,0.04,0.46,-0,-1,0,0.89,0,0,89,37,97,982,219.0,118,461,60,123.0,0,1,0,0,0,0,0,217,-1532,250,219,-5.59,,,,,,,,,,,,
293143,1564236511475,2,2.31,0.98,0.34,1.43,1.08,0.89,0.04,0.46,0,-0,0,0.89,0,0,89,37,97,982,217.0,118,461,60,123.0,0,1,0,0,0,0,0,218,-17920,1088,217,-5.59,44.681404,10.020167,22.58,176.9,0,0.0,-1,0.0,0.0,0,1.75,4.8857
293163,1564236511494,1,2.32,0.98,0.34,1.43,1.08,0.9,0.04,0.46,0,-1,0,0.9,0,0,89,37,97,983,217.0,118,461,60,123.0,0,1,0,0,0,0,0,215,-17920,-1532,216,-5.59,,,,,,,,,,,,
293183,1564236511514,0,2.32,0.99,0.34,1.43,1.09,0.89,0.05,0.47,0,-1,0,0.89,0,0,89,37,97,984,216.0,118,461,60,123.0,0,1,0,0,0,0,0,214,250,1088,216,-5.59,,,,,,,,,,,,
293203,1564236511534,2,2.31,0.98,0.34,1.43,1.09,0.88,0.05,0.48,0,-0,0,0.89,0,0,89,37,97,984,214.0,118,462,60,123.0,0,1,0,0,0,0,0,215,1088,16384,214,-5.59,,,,,,,,,,,,
293223,1564236511554,1,2.31,0.98,0.34,1.43,1.08,0.89,0.05,0.47,0,0,0,0.89,0,0,89,37,97,985,214.0,118,459,60,122.0,0,1,0,0,0,0,0,212,1088,-1533,214,-5.59,,,,,,,,,,,,
293243,1564236511574,1,2.31,0.98,0.34,1.42,1.08,0.9,0.03,0.46,0,-1,0,0.9,0,0,89,37,97,985,213.0,118,460,60,121.0,0,1,0,0,0,0,0,210,250,1088,213,-5.59,44.681404,10.02016,21.68,176.9,0,0.0,-1,0.0,0.0,0,1.75,4.8874
293263,1564236511594,2,2.3,0.99,0.33,1.43,1.08,0.88,0.04,0.47,0,-1,-0,0.88,0,0,89,37,97,986,210.0,118,458,60,113.0,0,1,0,0,0,0,0,210,-14848,-1533,210,-5.59,,,,,,,,,,,,
293283,1564236511614,2,2.31,0.98,0.33,1.43,1.08,0.92,0.05,0.46,0,1,-1,0.92,0,0,89,37,97,987,210.0,118,458,60,114.0,0,1,0,0,0,0,0,210,-14848,1088,210,-5.59,,,,,,,,,,,,
293303,1564236511634,2,2.31,0.98,0.33,1.43,1.08,0.9,0.05,0.48,-0,-2,-1,0.9,0,0,89,37,97,987,210.0,118,458,60,114.0,0,1,0,0,0,0,0,209,250,13964,210,-5.59,,,,,,,,,,,,
293323,1564236511654,2,2.31,0.99,0.34,1.43,1.08,0.89,0.03,0.46,-0,-3,-1,0.89,0,0,89,37,97,987,208.0,118,461,60,114.0,0,1,0,0,0,0,0,207,250,-14848,208,-5.59,,,,,,,,,,,,
293343,1564236511674,1,2.31,0.98,0.33,1.42,1.09,0.9,0.04,0.45,-0,-1,-1,0.9,0,0,89,37,97,988,206.0,118,460,60,114.0,0,1,0,0,0,0,0,206,13964,-29696,206,-5.59,44.681404,10.020152,21.34,176.9,0,0.0,-1,0.0,0.0,0,1.75,4.889
293363,1564236511694,2,2.31,0.98,0.34,1.42,1.09,0.92,0.05,0.42,-0,-2,-0,0.92,0,0,89,37,97,988,205.0,118,461,60,114.0,0,1,0,0,0,0,0,204,-29696,13964,204,-5.59,,,,,,,,,,,,
293383,1564236511714,2,2.31,0.98,0.33,1.42,1.08,0.9,0.04,0.45,-0,-2,0,0.9,0,0,89,37,97,989,204.0,118,460,60,115.0,0,1,0,0,0,0,0,201,250,12800,203,-5.59,,,,,,,,,,,,
293403,1564236511734,2,2.31,0.98,0.34,1.43,1.09,0.9,0.05,0.45,-0,-0,-0,0.9,0,0,89,37,97,990,202.0,118,460,60,115.0,0,1,0,0,0,0,0,202,13874,13874,202,-5.59,,,,,,,,,,,,
293423,1564236511754,2,2.3,0.99,0.33,1.43,1.08,0.92,0.05,0.44,-0,-0,-0,0.92,0,0,89,37,97,990,202.0,118,458,60,115.0,0,1,0,0,0,0,0,202,13874,-1480,201,-5.59,,,,,,,,,,,,
293443,1564236511774,1,2.32,0.98,0.34,1.43,1.08,0.91,0.05,0.46,-0,-1,-0,0.91,0,0,89,37,97,992,201.0,118,460,60,115.0,0,1,0,0,0,0,0,200,12800,14412,199,-5.59,44.681404,10.020144,20.75,176.9,0,0.0,-1,0.0,0.0,0,1.75,4.8907
293463,1564236511794,2,2.31,0.98,0.33,1.43,1.08,0.9,0.05,0.46,-0,-1,-1,0.9,0,0,89,37,97,993,199.0,118,461,60,116.0,0,1,0,0,0,0,0,198,-1480,-1480,199,-5.59,,,,,,,,,,,,
293483,1564236511814,1,2.32,0.98,0.33,1.43,1.08,0.92,0.05,0.45,-0,-0,-1,0.92,0,0,89,37,97,993,197.0,118,461,60,116.0,0,1,0,0,0,0,0,197,19456,19456,197,-5.59,,,,,,,,,,,,
293503,1564236511834,1,2.31,0.99,0.33,1.43,1.08,0.91,0.05,0.43,-0,-0,-0,0.92,0,0,89,37,97,994,197.0,118,462,60,116.0,0,1,0,0,0,0,0,195,19456,14326,197,-5.59,,,,,,,,,,,,
293523,1564236511854,2,2.31,0.99,0.33,1.43,1.09,0.9,0.05,0.43,-0,-0,-0,0.9,0,0,89,37,97,995,195.0,118,461,60,117.0,0,1,0,0,0,0,0,195,-1481,250,195,-5.59,,,,,,,,,,,,
293543,1564236511874,-0,2.3,0.98,0.33,1.42,1.08,0.9,0.05,0.43,-0,-0,-0,0.9,0,0,89,37,97,996,195.0,118,461,60,116.0,0,1,0,0,0,0,0,192,-1481,250,194,-5.59,44.681404,10.020138,20.25,176.9,0,0.0,-1,0.0,0.0,0,1.75,4.8924
293563,1564236511894,2,2.31,0.98,0.34,1.43,1.09,0.91,0.04,0.44,-0,0,-0,0.91,0,0,89,37,97,996,193.0,118,461,60,117.0,0,1,0,0,0,0,0,192,250,-2560,193,-5.59,,,,,,,,,,,,
293583,1564236511914,2,2.31,0.98,0.34,1.43,1.08,0.91,0.03,0.44,-0,1,-0,0.91,0,0,89,37,97,997,192.0,118,460,60,117.0,0,1,0,0,0,0,0,191,250,-2560,191,-5.59,,,,,,,,,,,,
293603,1564236511934,1,2.31,0.98,0.34,1.43,1.09,0.9,0.04,0.45,-0,1,-0,0.9,0,0,89,37,97,998,190.0,118,459,60,117.0,0,1,0,0,0,0,0,191,-1,-1,190,-5.59,,,,,,,,,,,,
293623,1564236511954,2,2.31,0.98,0.33,1.42,1.08,0.92,0.04,0.44,-0,1,-0,0.92,0,0,89,37,97,998,190.0,118,462,60,117.0,0,1,0,0,0,0,0,190,-1,-1,189,-5.59,,,,,,,,,,,,
293643,1564236511974,1,2.31,0.99,0.33,1.43,1.08,0.91,0.04,0.44,-0,0,-0,0.91,0,0,89,37,97,999,188.0,118,461,60,117.0,0,1,0,0,0,0,0,188,-1,-1,187,-5.59,44.681404,10.02013,19.66,176.9,0,0.0,-1,0.0,0.0,0,1.75,4.8941
293663,1564236511994,1,2.31,0.98,0.34,1.43,1.08,0.9,0.04,0.46,-0,0,-0,0.9,0,0,89,37,97,1000,187.0,118,461,60,117.0,0,1,0,0,0,0,0,186,-1,-1,187,-5.59,,,,,,,,,,,,
293683,1564236512007,1,2.3,0.99,0.34,1.42,1.09,0.89,0.03,0.46,-0,0,-0,0.89,0,0,89,37,97,1001,186.0,118,461,60,118.0,0,1,0,0,0,0,0,185,-1,-1,186,-5.59,,,,,,,,,,,,
293703,1564236512027,-0,2.31,0.99,0.34,1.43,1.07,0.88,0.04,0.45,-0,1,-0,0.88,0,0,89,37,97,1002,186.0,118,461,60,118.0,0,1,0,0,0,0,0,185,-1,-1,186,-5.59,,,,,,,,,,,,
293723,1564236512047,1,2.31,0.98,0.34,1.43,1.08,0.88,0.04,0.47,-0,1,-0,0.88,0,0,89,37,97,1003,185.0,118,460,60,118.0,0,1,0,0,0,0,0,184,-1,-1,184,-5.59,,,,,,,,,,,,
293743,1564236512067,-0,2.3,0.99,0.34,1.42,1.09,0.88,0.03,0.47,-0,-0,-0,0.88,0,0,89,37,97,1004,184.0,118,460,60,118.0,0,1,0,0,0,0,0,184,-1,-1,183,-5.59,44.681404,10.020124,18.92,176.9,0,0.0,-1,0.0,0.0,0,1.75,4.8957
293763,1564236512093,2,2.3,0.99,0.34,1.42,1.09,0.88,0.03,0.48,-0,-0,-0,0.88,0,0,89,37,97,1005,183.0,118,461,60,118.0,0,1,0,0,0,0,0,183,-1,-1,183,-5.59,,,,,,,,,,,,
293783,1564236512113,0,2.31,0.99,0.33,1.43,1.09,0.89,0.04,0.48,-0,0,-0,0.89,0,0,89,37,97,1007,182.0,118,458,60,118.0,0,1,0,0,0,0,0,182,-1,-1,181,-5.59,,,,,,,,,,,,
293803,1564236512133,1,2.31,0.98,0.34,1.43,1.08,0.88,0.03,0.48,-0,0,-1,0.88,0,0,89,37,97,1007,181.0,118,461,60,117.0,0,1,0,0,0,0,0,181,-1,-1,181,-5.59,,,,,,,,,,,,
293823,1564236512153,1,2.31,0.99,0.33,1.43,1.08,0.87,0.03,0.46,-0,0,-0,0.87,0,0,89,37,97,1007,182.0,118,461,60,118.0,0,1,0,0,0,0,0,181,-1,-1,179,-5.59,,,,,,,,,,,,
293843,1564236512173,1,2.3,0.99,0.34,1.42,1.08,0.88,0.04,0.48,-0,0,-1,0.88,0,0,89,37,97,1008,180.0,118,458,60,118.0,0,1,0,0,0,0,0,180,-1,-236,179,-5.59,44.6814,10.020118,18.44,176.9,0,0.0,-1,0.0,0.0,0,1.75,4.8974
293863,1564236512195,1,2.31,0.98,0.33,1.43,1.08,0.88,0.04,0.48,-0,0,-1,0.88,0,0,89,37,97,1009,179.0,118,456,60,120.0,0,1,0,0,0,0,0,178,-236,5134,179,-5.59,,,,,,,,,,,,
293883,1564236512215,1,2.31,0.98,0.33,1.42,1.08,0.88,0.04,0.48,-0,0,-1,0.88,0,0,89,37,97,1010,178.0,118,442,60,120.0,0,1,0,0,0,0,0,176,3584,250,178,-5.59,,,,,,,,,,,,
293903,1564236512235,1,2.3,0.98,0.33,1.42,1.09,0.88,0.04,0.48,-0,-1,-1,0.89,0,0,89,37,97,1011,177.0,118,406,60,120.0,0,1,0,0,0,0,0,176,3584,5134,176,-5.59,,,,,,,,,,,,
293923,1564236512255,1,2.31,0.98,0.34,1.43,1.08,0.88,0.03,0.47,-0,-1,-1,0.88,0,0,89,37,97,1013,176.0,118,393,60,120.0,0,1,0,0,0,0,0,176,250,-1495,176,-5.59,,,,,,,,,,,,
293943,1564236512275,1,2.29,0.98,0.33,1.42,1.08,0.88,0.04,0.47,-0,-0,-1,0.88,0,0,89,37,97,1014,175.0,118,386,60,120.0,0,1,0,0,0,0,0,176,-1495,-1495,174,-5.59,44.6814,10.020111,17.99,176.9,0,0.0,-1,0.0,0.0,0,1.75,4.899
293963,1564236512293,-0,2.3,0.98,0.34,1.43,1.08,0.87,0.04,0.47,-0,0,-1,0.88,0,0,89,37,97,1015,174.0,118,382,60,120.0,0,1,0,0,0,0,0,175,10620,250,174,-5.59,,,,,,,,,,,,
293983,1564236512313,1,2.29,0.99,0.34,1.43,1.09,0.88,0.04,0.46,-1,0,-1,0.88,0,0,89,37,97,1015,174.0,118,379,60,120.0,0,1,0,0,0,0,0,173,10620,31744,173,-5.59,,,,,,,,,,,,
294003,1564236512333,1,2.3,0.98,0.34,1.43,1.08,0.88,0.05,0.45,-1,-0,-1,0.89,0,0,89,37,97,1016,173.0,118,376,60,120.0,0,1,0,0,0,0,0,172,31744,-1281,171,-5.59,,,,,,,,,,,,
294023,1564236512353,1,2.29,0.98,0.33,1.43,1.08,0.89,0.05,0.46,-1,-0,-1,0.89,0,0,89,37,97,1018,173.0,118,376,60,120.0,0,1,0,0,0,0,0,172,31744,-1281,171,-5.59,,,,,,,,,,,,
294043,1564236512373,2,2.29,0.99,0.34,1.43,1.08,0.89,0.06,0.46,-1,-1,-1,0.89,0,0,89,37,97,1019,172.0,118,373,60,120.0,0,1,0,0,0,0,0,170,250,-1,170,-5.59,44.6814,10.020105,17.47,177.0,0,0.0,-1,0.0,0.0,0,1.75,4.9007
294063,1564236512393,1,2.29,0.98,0.33,1.43,1.08,0.88,0.05,0.44,-1,-0,-1,0.88,0,0,89,37,97,1019,170.0,118,373,60,121.0,0,1,0,0,0,0,0,170,-1,-253,169,-5.59,,,,,,,,,,,,
294083,1564236512413,0,2.3,0.98,0.34,1.43,1.09,0.88,0.05,0.43,-1,0,-1,0.88,0,0,89,37,97,1021,169.0,118,371,60,120.0,0,1,0,0,0,0,0,169,-1,-1,168,-5.59,,,,,,,,,,,,
294103,1564236512433,0,2.3,0.98,0.34,1.43,1.08,0.87,0.05,0.44,-1,1,-1,0.87,0,0,89,37,97,1022,169.0,118,371,60,121.0,0,1,0,0,0,0,0,167,-1,888,167,-5.59,,,,,,,,,,,,
294123,1564236512453,1,2.29,0.98,0.34,1.43,1.08,0.88,0.06,0.42,-1,0,-1,0.88,0,0,89,37,97,1022,167.0,118,370,60,120.0,0,1,0,0,0,0,0,166,-253,30720,165,-5.59,,,,,,,,,,,,
294143,1564236512473,0,2.3,0.98,0.34,1.42,1.09,0.89,0.04,0.43,-1,1,-1,0.89,0,0,89,37,97,1023,166.0,118,368,60,120.0,0,1,0,0,0,0,0,166,888,-1494,165,-5.59,44.6814,10.0201,17.18,177.0,0,0.0,-1,0.0,0.0,0,1.76,4.9024
294163,1564236512493,1,2.29,0.99,0.34,1.42,1.08,0.9,0.04,0.43,-1,1,-1,0.9,0,0,89,37,97,1023,165.0,118,368,60,121.0,0,1,0,0,0,0,0,164,30720,-1494,164,-5.59,,,,,,,,,,,,
294183,1564236512513,-0,2.28,0.98,0.33,1.43,1.07,0.9,0.06,0.42,-0,1,-1,0.9,0,0,89,37,97,1024,165.0,118,368,60,121.0,0,1,0,0,0,0,0,163,30720,-1494,164,-5.59,,,,,,,,,,,,
294203,1564236512533,2,2.29,0.98,0.34,1.43,1.07,0.91,0.05,0.45,-1,1,-1,0.91,0,0,89,37,97,1025,164.0,118,366,60,121.0,0,1,0,0,0,0,0,163,250,3072,161,-5.59,,,,,,,,,,,,
294223,1564236512553,2,2.28,0.99,0.34,1.43,1.08,0.91,0.05,0.44,-1,1,-1,0.91,0,0,89,37,97,1026,162.0,118,366,60,121.0,0,1,0,0,0,0,0,162,10764,-1281,160,-5.59,,,,,,,,,,,,
294243,1564236512573,0,2.29,0.98,0.34,1.43,1.07,0.91,0.05,0.43,-1,1,-2,0.91,0,0,89,37,97,1027,160.0,118,366,60,121.0,0,1,0,0,0,0,0,160,250,-1,160,-5.59,44.6814,10.020093,16.74,177.0,0,0.0,-1,0.0,0.0,0,1.76,4.904
294263,1564236512593,0,2.29,0.98,0.34,1.43,1.09,0.91,0.04,0.44,-1,1,-1,0.91,0,0,89,37,97,1029,160.0,118,365,60,120.0,0,1,0,0,0,0,0,159,250,-1281,158,-5.59,,,,,,,,,,,,
294283,1564236512613,1,2.29,0.99,0.33,1.43,1.08,0.9,0.05,0.44,-1,0,-1,0.9,0,0,89,37,97,1030,158.0,118,365,60,121.0,0,1,0,0,0,0,0,158,-1,-165,156,-5.59,,,,,,,,,,,,
294303,1564236512633,0,2.3,0.98,0.34,1.43,1.08,0.89,0.04,0.45,-1,0,-2,0.89,0,0,89,37,97,1031,157.0,118,364,60,121.0,0,1,0,0,0,0,0,157,-1,23460,155,-5.59,,,,,,,,,,,,
294323,1564236512653,2,2.29,0.99,0.34,1.43,1.08,0.89,0.04,0.45,-1,-0,-1,0.89,0,0,89,37,97,1032,156.0,118,363,60,121.0,0,1,0,0,0,0,0,156,-1,-165,154,-5.59,,,,,,,,,,,,
294343,1564236512673,1,2.29,0.98,0.33,1.43,1.08,0.89,0.04,0.45,-1,-0,-1,0.89,0,0,89,37,97,1033,155.0,118,362,60,121.0,0,1,0,0,0,0,0,155,-165,23460,153,-5.59,44.6814,10.020087,16.01,177.0,0,0.0,-1,0.0,0.0,0,1.76,4.9057
294363,1564236512695,0,2.27,0.98,0.34,1.42,1.08,0.89,0.04,0.45,-1,-0,-2,0.89,0,0,89,37,97,1034,154.0,118,362,60,121.0,0,1,0,0,0,0,0,153,23460,250,152,-5.59,,,,,,,,,,,,
294383,1564236512715,2,2.29,0.98,0.33,1.42,1.08,0.88,0.05,0.45,-2,-0,-2,0.89,0,0,89,37,97,1035,153.0,118,362,60,121.0,0,1,0,0,0,0,0,152,-23552,-1,151,-5.59,,,,,,,,,,,,
294403,1564236512735,0,2.3,0.98,0.34,1.42,1.08,0.89,0.05,0.44,-1,-0,-2,0.89,0,0,89,37,97,1036,152.0,118,362,60,121.0,0,1,0,0,0,0,0,152,250,-1,149,-5.59,,,,,,,,,,,,
294423,1564236512755,0,2.29,0.98,0.34,1.42,1.07,0.89,0.04,0.43,-1,-1,-2,0.89,0,0,89,37,97,1037,150.0,118,362,60,121.0,0,1,0,0,0,0,0,150,-1,-1,149,-5.59,,,,,,,,,,,,
294443,1564236512775,-0,2.31,0.98,0.34,1.43,1.07,0.89,0.04,0.44,-1,-1,-1,0.89,0,0,89,37,97,1038,150.0,118,362,60,121.0,0,1,0,0,0,0,0,148,-1,-1,148,-5.59,44.6814,10.020082,15.43,177.1,0,0.0,-1,0.0,0.0,0,1.76,4.9074
294463,1564236512795,2,2.31,0.98,0.33,1.43,1.08,0.89,0.04,0.44,-1,-0,-2,0.89,0,0,89,37,97,1039,148.0,118,361,60,121.0,0,1,0,0,0,0,0,148,-1,-1,147,-5.59,,,,,,,,,,,,
294483,1564236512815,0,2.32,0.98,0.34,1.43,1.08,0.87,0.04,0.44,-1,-0,-2,0.87,0,0,89,37,97,1039,148.0,118,360,60,121.0,0,1,0,0,0,0,0,147,-1,-1,146,-5.59,,,,,,,,,,,,
294503,1564236512835,1,2.32,0.99,0.34,1.42,1.08,0.88,0.04,0.47,-1,0,-2,0.89,0,0,89,37,97,1040,147.0,118,360,60,120.0,0,1,0,0,0,0,0,146,-1,-1,146,-5.59,,,,,,,,,,,,
294523,1564236512855,-0,2.34,0.98,0.34,1.43,1.08,0.89,0.03,0.45,-1,0,-2,0.89,0,0,89,37,97,1041,146.0,118,360,60,120.0,0,1,0,0,0,0,0,145,-1,-1,146,-5.59,,,,,,,,,,,,
294543,1564236512875,1,2.33,0.98,0.34,1.43,1.07,0.89,0.04,0.45,-0,0,-3,0.89,0,0,89,37,97,1041,145.0,118,357,60,120.0,0,1,0,0,0,0,0,145,-1,-236,145,-5.59,44.6814,10.020076,15.16,177.1,0,0.0,-1,0.0,0.0,0,1.76,4.909
294563,1564236512895,1,2.34,0.99,0.34,1.42,1.08,0.95,0.03,0.42,-0,-0,-2,0.95,0,0,89,38,97,1042,143.0,118,356,60,121.0,0,1,0,0,0,0,0,142,5140,250,143,-5.59,,,,,,,,,,,,
294583,1564236512915,1,2.34,0.99,0.34,1.43,1.08,0.92,0.02,0.46,-0,-2,-2,0.92,0,0,89,38,97,1043,140.0,118,358,60,121.0,0,1,0,0,0,0,0,137,-1281,-1281,140,-5.59,,,,,,,,,,,,
294603,1564236512935,1,2.35,0.99,0.34,1.43,1.07,0.9,0.01,0.47,0,-1,-2,0.9,0,0,89,38,97,1045,140.0,118,357,60,121.0,0,1,0,0,0,0,0,138,-1,-1,140,-5.59,,,,,,,,,,,,
294623,1564236512955,1,2.35,0.99,0.34,1.43,1.07,0.9,0.01,0.45,0,-1,-2,0.9,0,0,89,38,97,1046,139.0,118,357,60,121.0,0,1,0,0,0,0,0,137,-1,250,139,-5.59,,,,,,,,,,,,
294643,1564236512975,1,2.35,0.99,0.34,1.42,1.08,0.9,0.0,0.45,0,-1,-1,0.9,0,0,89,38,97,1047,139.0,118,356,60,121.0,0,1,0,0,0,0,0,136,-1,-1,139,-5.59,44.6814,10.020071,14.35,177.1,0,0.0,-1,0.0,0.0,0,1.76,4.9107
294663,1564236512995,1,2.35,0.99,0.34,1.43,1.07,0.88,0.01,0.45,0,0,-1,0.88,0,0,89,38,97,1048,138.0,118,355,60,121.0,0,1,0,0,0,0,0,136,-1,-1281,138,-5.59,,,,,,,,,,,,
294683,1564236513008,-0,2.36,0.99,0.34,1.42,1.08,0.86,0.01,0.46,1,0,-1,0.86,0,0,89,38,97,1049,137.0,118,355,60,121.0,0,1,0,0,0,0,0,135,-1,-1,137,-5.59,,,,,,,,,,,,
294703,1564236513028,1,2.35,0.99,0.34,1.43,1.08,0.87,0.01,0.46,1,1,-0,0.87,0,0,89,38,97,1049,136.0,118,355,60,121.0,0,1,0,0,0,0,0,134,-1,-1,136,-5.59,,,,,,,,,,,,
294723,1564236513048,1,2.37,0.98,0.34,1.43,1.08,0.87,0.01,0.47,1,0,0,0.87,0,0,89,38,97,1049,135.0,118,355,60,121.0,0,1,0,0,0,0,0,133,-1,-1,135,-5.59,,,,,,,,,,,,
294743,1564236513068,0,2.36,0.99,0.34,1.42,1.08,0.86,0.01,0.46,1,-0,0,0.86,0,0,89,38,97,1050,134.0,118,355,60,121.0,0,1,0,0,0,0,0,132,-1,-1,134,-5.59,44.6814,10.020066,14.04,177.1,0,0.0,-1,0.0,0.0,0,1.76,4.9124
294763,1564236513094,1,2.37,0.98,0.34,1.43,1.08,0.86,0.01,0.46,1,-0,1,0.86,0,0,89,38,97,1052,133.0,118,355,60,122.0,0,1,0,0,0,0,0,130,-1,-1,133,-5.59,,,,,,,,,,,,
294783,1564236513114,1,2.37,0.99,0.34,1.44,1.08,0.86,0.01,0.46,1,-0,1,0.86,0,0,89,38,97,1053,133.0,118,355,60,121.0,0,1,0,0,0,0,0,130,-1,-1,133,-5.59,,,,,,,,,,,,
294803,1564236513134,1,2.37,0.99,0.34,1.42,1.08,0.86,0.02,0.46,1,-1,1,0.87,0,0,89,38,97,1054,131.0,118,354,60,122.0,0,1,0,0,0,0,0,127,-1,-1,131,-5.59,,,,,,,,,,,,
294823,1564236513154,1,2.37,0.98,0.34,1.43,1.08,0.87,0.02,0.47,1,-1,1,0.87,0,0,89,38,97,1055,130.0,118,354,60,121.0,0,1,0,0,0,0,0,127,-1,-1,130,-5.59,,,,,,,,,,,,
294843,1564236513174,2,2.37,0.98,0.34,1.43,1.08,0.87,0.01,0.47,1,-1,1,0.87,0,0,89,38,97,1056,129.0,118,353,60,121.0,0,1,0,0,0,0,0,126,-202,-1,129,-5.59,44.6814,10.020061,13.28,177.2,0,0.0,-1,0.0,0.0,0,1.76,4.9141
294863,1564236513194,2,2.37,0.98,0.34,1.43,1.08,0.89,0.02,0.46,1,-0,1,0.89,0,0,89,38,97,1057,128.0,118,352,60,121.0,0,1,0,0,0,0,0,124,13868,-1,128,-5.59,,,,,,,,,,,,
294883,1564236513214,3,2.37,0.99,0.34,1.44,1.08,0.9,0.02,0.46,1,-0,1,0.9,0,0,89,38,97,1058,127.0,118,352,60,121.0,0,1,0,0,0,0,0,123,11264,11264,127,-5.59,,,,,,,,,,,,
294903,1564236513234,3,2.37,0.99,0.34,1.43,1.08,0.9,0.01,0.46,1,-1,1,0.9,0,0,89,38,97,1059,124.0,118,352,60,121.0,0,1,0,0,0,0,0,123,-1482,250,124,-5.59,,,,,,,,,,,,
294923,1564236513254,1,2.38,0.98,0.34,1.43,1.08,0.9,0.01,0.47,1,-1,1,0.9,0,0,89,38,97,1060,123.0,118,352,60,121.0,0,1,0,0,0,0,0,122,9728,-1482,123,-5.59,,,,,,,,,,,,
294943,1564236513274,2,2.37,0.98,0.34,1.43,1.08,0.89,0.01,0.46,1,-1,1,0.89,0,0,89,38,97,1061,122.0,118,352,60,121.0,0,1,0,0,0,0,0,120,250,13862,122,-5.59,44.6814,10.020057,13.08,177.2,0,0.0,-1,0.0,0.0,0,1.76,4.9157
294963,1564236513294,2,2.38,0.99,0.34,1.44,1.08,0.89,0.01,0.46,1,-1,1,0.89,0,0,89,38,97,1062,120.0,118,352,60,121.0,0,1,0,0,0,0,0,118,13856,9728,120,-5.59,,,,,,,,,,,,
294983,1564236513314,3,2.37,0.98,0.34,1.43,1.08,0.89,0.02,0.45,1,-1,1,0.89,0,0,89,38,97,1063,119.0,118,352,60,121.0,0,1,0,0,0,0,0,117,250,13856,119,-5.59,,,,,,,,,,,,
295003,1564236513334,3,2.37,0.99,0.34,1.43,1.07,0.9,0.02,0.44,2,-1,2,0.9,0,0,89,38,97,1064,117.0,118,352,60,121.0,0,1,0,0,0,0,0,115,-1482,13856,117,-5.59,,,,,,,,,,,,
295023,1564236513354,3,2.38,0.99,0.33,1.43,1.07,0.91,0.02,0.45,2,-1,2,0.91,0,0,89,38,97,1065,117.0,118,352,60,121.0,0,1,0,0,0,0,0,113,-1482,-1482,116,-5.59,,,,,,,,,,,,
295043,1564236513374,3,2.37,0.98,0.34,1.43,1.07,0.91,0.02,0.45,2,-1,2,0.91,0,0,89,38,97,1065,116.0,118,351,60,121.0,0,1,0,0,0,0,0,112,6656,13850,116,-5.59,44.6814,10.020053,12.48,177.2,0,0.0,-1,0.0,0.0,0,1.76,4.9174
295063,1564236513394,2,2.38,0.99,0.33,1.43,1.08,0.91,0.01,0.43,2,-0,2,0.91,0,0,89,38,97,1066,114.0,118,349,60,121.0,0,1,0,0,0,0,0,110,250,13850,114,-5.59,,,,,,,,,,,,
295083,1564236513414,2,2.38,0.99,0.34,1.43,1.08,0.91,0.02,0.42,2,-1,2,0.91,0,0,89,38,97,1067,113.0,118,349,60,121.0,0,1,0,0,0,0,0,110,13844,6656,113,-5.59,,,,,,,,,,,,
295103,1564236513434,2,2.38,0.99,0.34,1.43,1.08,0.9,0.02,0.42,2,-1,2,0.9,0,0,89,38,97,1068,111.0,118,349,60,121.0,0,1,0,0,0,0,0,109,250,13844,111,-5.59,,,,,,,,,,,,
295123,1564236513454,1,2.39,0.99,0.33,1.43,1.08,0.91,0.02,0.42,2,-1,2,0.91,0,0,89,38,97,1069,110.0,118,349,60,121.0,0,1,0,0,0,0,0,107,-1482,13844,110,-5.59,,,,,,,,,,,,
295143,1564236513474,2,2.38,0.99,0.34,1.43,1.08,0.9,0.01,0.42,2,-1,2,0.9,0,0,89,38,97,1070,109.0,118,349,60,121.0,0,1,0,0,0,0,0,105,3584,250,109,-5.59,44.6814,10.020048,11.88,177.2,0,0.0,-1,0.0,0.0,0,1.76,4.9191
295163,1564236513494,2,2.38,0.98,0.34,1.43,1.08,0.89,0.02,0.42,2,-1,2,0.89,0,0,89,38,97,1071,109.0,118,348,60,121.0,0,1,0,0,0,0,0,104,3584,250,107,-5.59,,,,,,,,,,,,
295183,1564236513514,1,2.39,0.97,0.34,1.43,1.07,0.9,0.01,0.41,2,-1,2,0.9,0,0,89,38,97,1072,107.0,118,348,60,121.0,0,1,0,0,0,0,0,104,250,250,107,-5.59,,,,,,,,,,,,
295203,1564236513534,1,2.39,0.99,0.34,1.44,1.08,0.9,0.02,0.42,2,-1,2,0.9,0,0,89,38,97,1072,106.0,118,347,60,121.0,0,1,0,0,0,0,0,102,13832,13838,106,-5.59,,,,,,,,,,,,
295223,1564236513554,1,2.38,0.99,0.34,1.43,1.08,0.9,0.01,0.42,2,-1,2,0.9,0,0,89,38,97,1073,104.0,118,346,60,121.0,0,1,0,0,0,0,0,102,2048,3584,104,-5.59,,,,,,,,,,,,
295243,1564236513574,-0,2.39,0.98,0.34,1.43,1.07,0.9,0.02,0.43,2,-1,2,0.9,0,0,89,38,97,1074,103.0,118,346,60,121.0,0,1,0,0,0,0,0,100,2048,-1482,103,-5.59,44.6814,10.020045,10.98,177.2,0,0.0,-1,0.0,0.0,0,1.76,4.9207
295263,1564236513594,1,2.38,0.98,0.34,1.43,1.07,0.9,0.01,0.44,2,-1,2,0.9,0,0,89,38,97,1075,103.0,118,346,60,121.0,0,1,0,0,0,0,0,100,250,13832,102,-5.59,,,,,,,,,,,,
295283,1564236513614,-0,2.39,0.98,0.33,1.43,1.08,0.89,0.01,0.44,2,-0,2,0.89,0,0,89,38,97,1076,102.0,118,346,60,121.0,0,1,0,0,0,0,0,100,-1483,13832,102,-5.59,,,,,,,,,,,,
295303,1564236513634,1,2.38,0.99,0.34,1.43,1.08,0.89,0.01,0.44,2,-0,2,0.89,0,0,89,38,97,1077,101.0,118,343,60,121.0,0,1,0,0,0,0,0,98,13736,2048,101,-5.59,,,,,,,,,,,,
295323,1564236513654,-0,2.39,0.98,0.34,1.43,1.07,0.89,0.02,0.43,2,-0,2,0.89,0,0,89,38,97,1078,100.0,118,342,60,121.0,0,1,0,0,0,0,0,97,13736,250,100,-5.59,,,,,,,,,,,,
295343,1564236513674,0,2.37,0.98,0.34,1.43,1.07,0.89,0.03,0.44,2,-0,3,0.89,0,0,89,38,97,1079,99.0,118,342,60,120.0,0,1,0,0,0,0,0,95,-22528,13736,99,-5.59,44.6814,10.020041,10.36,177.2,0,0.0,-1,0.0,0.0,0,1.76,4.9224
295363,1564236513694,-0,2.38,0.98,0.34,1.43,1.08,0.89,0.02,0.45,2,-1,2,0.89,0,0,89,38,97,1079,99.0,118,341,60,121.0,0,1,0,0,0,0,0,95,250,13736,99,-5.59,,,,,,,,,,,,
295383,1564236513714,1,2.38,0.99,0.34,1.43,1.07,0.89,0.02,0.45,2,-1,2,0.9,0,0,89,38,97,1080,97.0,118,341,60,121.0,0,1,0,0,0,0,0,94,14312,-22528,97,-5.59,,,,,,,,,,,,
295403,1564236513734,1,2.37,0.99,0.34,1.44,1.08,0.89,0.03,0.45,2,-1,2,0.89,0,0,89,38,97,1081,96.0,118,341,60,121.0,0,1,0,0,0,0,0,93,14312,250,96,-5.59,,,,,,,,,,,,
295423,1564236513754,1,2.37,0.99,0.34,1.43,1.08,0.89,0.03,0.45,2,-1,2,0.89,0,0,89,38,97,1081,94.0,118,341,60,121.0,0,1,0,0,0,0,0,93,250,14312,94,-5.59,,,,,,,,,,,,
295443,1564236513774,0,2.37,0.98,0.34,1.43,1.08,0.9,0.03,0.44,2,-1,2,0.9,0,0,89,38,97,1082,94.0,118,341,60,121.0,0,1,0,0,0,0,0,91,-1481,14312,94,-5.59,44.6814,10.020038,9.95,177.3,0,0.0,-1,0.0,0.0,0,1.76,4.924
295463,1564236513795,1,2.36,0.98,0.34,1.43,1.08,0.89,0.03,0.45,2,-1,2,0.89,0,0,89,38,97,1083,93.0,118,341,60,121.0,0,1,0,0,0,0,0,91,14298,250,93,-5.59,,,,,,,,,,,,
295483,1564236513815,1,2.35,0.99,0.34,1.43,1.08,0.89,0.03,0.45,2,-0,2,0.89,0,0,89,38,97,1084,92.0,118,341,60,121.0,0,1,0,0,0,0,0,90,14298,-1481,92,-5.59,,,,,,,,,,,,
295503,1564236513835,1,2.35,0.98,0.34,1.43,1.08,0.89,0.03,0.45,2,-0,2,0.89,0,0,89,38,97,1085,92.0,118,341,60,121.0,0,1,0,0,0,0,0,90,-9728,-1481,92,-5.59,,,,,,,,,,,,
295523,1564236513855,-0,2.35,0.98,0.34,1.43,1.07,0.89,0.04,0.44,2,-0,2,0.89,0,0,89,38,97,1085,91.0,118,341,60,121.0,0,1,0,0,0,0,0,88,-9728,14298,91,-5.59,,,,,,,,,,,,
295543,1564236513875,-1,2.34,0.98,0.34,1.43,1.08,0.89,0.04,0.45,1,0,2,0.89,0,0,89,38,97,1086,89.0,118,341,60,121.0,0,1,0,0,0,0,0,87,-9728,-9728,89,-5.59,44.6814,10.020035,9.43,177.3,0,0.0,-1,0.0,0.0,0,1.76,4.9257
295563,1564236513894,0,2.33,0.98,0.34,1.43,1.08,0.89,0.05,0.45,1,0,2,0.89,0,0,89,38,97,1087,89.0,118,341,60,121.0,0,1,0,0,0,0,0,87,-1481,250,89,-5.59,,,,,,,,,,,,
295583,1564236513914,1,2.32,0.98,0.34,1.43,1.08,0.89,0.06,0.45,1,-0,2,0.89,0,0,89,38,97,1088,87.0,118,339,60,121.0,0,1,0,0,0,0,0,86,14284,250,87,-5.59,,,,,,,,,,,,
295603,1564236513934,1,2.31,0.98,0.34,1.43,1.08,0.89,0.06,0.46,1,-0,1,0.89,0,0,89,38,97,1089,86.0,118,338,60,121.0,0,1,0,0,0,0,0,86,14284,14284,86,-5.59,,,,,,,,,,,,
295623,1564236513954,1,2.3,0.98,0.34,1.43,1.08,0.89,0.06,0.46,1,-0,1,0.89,0,0,89,38,97,1090,86.0,118,338,60,121.0,0,1,0,0,0,0,0,86,-13312,-13312,86,-5.59,,,,,,,,,,,,
295643,1564236513974,-1,2.3,0.98,0.34,1.43,1.07,0.88,0.06,0.46,1,-0,1,0.89,0,0,89,38,97,1091,85.0,118,338,60,121.0,0,1,0,0,0,0,0,84,250,-13312,85,-5.59,44.6814,10.020031,9.05,177.3,0,0.0,-1,0.0,0.0,0,1.76,4.9274
295663,1564236513994,-1,2.29,0.98,0.34,1.43,1.08,0.88,0.06,0.47,1,-1,1,0.88,0,0,89,38,97,1092,84.0,118,338,60,121.0,0,1,0,0,0,0,0,84,250,-1481,84,-5.59,,,,,,,,,,,,
295683,1564236514007,-0,2.27,0.98,0.34,1.42,1.07,0.89,0.06,0.47,0,-1,1,0.89,0,0,89,38,97,1093,84.0,118,338,60,120.0,0,1,0,0,0,0,0,84,250,-1481,84,-5.59,,,,,,,,,,,,
295703,1564236514027,0,2.27,0.98,0.34,1.43,1.08,0.88,0.06,0.47,0,-1,1,0.88,0,0,89,38,97,1093,84.0,118,338,60,120.0,0,1,0,0,0,0,0,83,250,14270,82,-5.59,,,,,,,,,,,,
295723,1564236514047,-1,2.28,0.98,0.34,1.43,1.08,0.88,0.06,0.48,0,-0,0,0.88,0,0,89,38,97,1094,83.0,118,338,60,121.0,0,1,0,0,0,0,0,83,-1481,-16896,81,-5.59,,,,,,,,,,,,
295743,1564236514067,0,2.27,0.98,0.34,1.43,1.08,0.88,0.06,0.48,0,-0,0,0.88,0,0,89,38,97,1095,82.0,118,338,60,121.0,0,1,0,0,0,0,0,82,14270,-16896,81,-5.59,44.6814,10.020028,8.34,177.3,0,0.0,-1,0.0,0.0,0,1.76,4.929
295763,1564236514087,-1,2.27,0.98,0.34,1.43,1.07,0.87,0.06,0.48,0,-0,-0,0.87,0,0,89,38,97,1095,82.0,118,338,60,121.0,0,1,0,0,0,0,0,81,14270,250,80,-5.59,,,,,,,,,,,,
295783,1564236514109,-0,2.27,0.98,0.34,1.42,1.07,0.86,0.06,0.49,0,-0,-0,0.86,0,0,89,38,97,1096,81.0,118,338,60,121.0,0,1,0,0,0,0,0,81,-16896,-1481,79,-5.59,,,,,,,,,,,,
295803,1564236514129,-0,2.27,0.98,0.34,1.43,1.07,0.86,0.06,0.49,0,-0,-1,0.86,0,0,89,38,97,1097,80.0,118,336,60,121.0,0,1,0,0,0,0,0,80,250,-1481,79,-5.59,,,,,,,,,,,,
295823,1564236514149,0,2.27,0.97,0.34,1.43,1.07,0.87,0.05,0.49,-0,-1,-1,0.87,0,0,89,38,97,1098,80.0,118,336,60,121.0,0,1,0,0,0,0,0,80,250,-1481,78,-5.59,,,,,,,,,,,,
295843,1564236514169,0,2.28,0.98,0.34,1.42,1.08,0.86,0.04,0.5,-0,-1,-1,0.87,0,0,89,38,97,1099,79.0,118,336,60,121.0,0,1,0,0,0,0,0,80,-1481,-1481,78,-5.59,44.6814,10.020025,8.14,177.3,0,0.0,-1,0.0,0.0,0,1.76,4.9307
295863,1564236514195,-2,2.28,0.98,0.34,1.43,1.08,0.86,0.04,0.49,-0,-0,-1,0.87,0,0,89,38,97,1099,79.0,118,335,60,120.0,0,1,0,0,0,0,0,78,-1481,-20480,77,-5.59,,,,,,,,,,,,
295883,1564236514215,-0,2.28,0.98,0.34,1.43,1.07,0.86,0.04,0.5,-0,-0,-1,0.86,0,0,89,38,97,1100,78.0,118,335,60,121.0,0,1,0,0,0,0,0,78,14256,-20480,77,-5.59,,,,,,,,,,,,
295903,1564236514235,-0,2.29,0.98,0.34,1.42,1.08,0.86,0.05,0.5,-0,-0,-1,0.86,0,0,89,38,97,1101,77.0,118,335,60,121.0,0,1,0,0,0,0,0,78,-20480,-20480,76,-5.59,,,,,,,,,,,,
295923,1564236514255,-0,2.3,0.98,0.34,1.43,1.08,0.86,0.04,0.5,-1,-0,-1,0.86,0,0,89,38,97,1101,77.0,118,335,60,121.0,0,1,0,0,0,0,0,77,-20480,250,76,-5.59,,,,,,,,,,,,
295943,1564236514275,-1,2.29,0.98,0.33,1.42,1.07,0.86,0.04,0.5,-1,-0,-1,0.86,0,0,89,38,97,1102,76.0,118,335,60,121.0,0,1,0,0,0,0,0,77,250,250,76,-5.59,44.6814,10.020022,7.96,177.3,0,0.0,-1,0.0,0.0,0,1.76,4.9324
295963,1564236514293,-1,2.32,0.98,0.33,1.42,1.08,0.86,0.04,0.51,-1,-1,-1,0.86,0,0,89,38,97,1103,76.0,118,335,60,120.0,0,1,0,0,0,0,0,76,250,14242,75,-5.59,,,,,,,,,,,,
295983,1564236514313,-0,2.33,0.98,0.34,1.42,1.08,0.85,0.03,0.5,-1,-1,-1,0.86,0,0,89,38,97,1104,75.0,118,335,60,121.0,0,1,0,0,0,0,0,76,-1481,14242,75,-5.59,,,,,,,,,,,,
296003,1564236514333,-0,2.34,0.99,0.34,1.43,1.07,0.85,0.03,0.51,-1,-1,-1,0.85,0,0,89,38,97,1105,74.0,118,335,60,121.0,0,1,0,0,0,0,0,74,14242,14242,74,-5.59,,,,,,,,,,,,
296023,1564236514353,-1,2.34,0.99,0.34,1.42,1.08,0.85,0.03,0.5,-1,-1,-1,0.85,0,0,89,38,97,1106,74.0,118,333,60,121.0,0,1,0,0,0,0,0,74,14242,14242,73,-5.59,,,,,,,,,,,,
296043,1564236514373,-1,2.35,0.98,0.34,1.43,1.07,0.85,0.03,0.51,-0,-1,-1,0.85,0,0,89,38,97,1107,73.0,118,333,60,121.0,0,1,0,0,0,0,0,73,-24064,14242,73,-5.59,44.681396,10.02002,7.58,177.4,0,0.0,-1,0.0,0.0,0,1.76,4.9341
296063,1564236514393,-0,2.34,0.99,0.34,1.43,1.07,0.84,0.03,0.51,-0,-1,-1,0.84,0,0,89,38,97,1108,73.0,118,333,60,121.0,0,1,0,0,0,0,0,72,-24064,-24064,73,-5.59,,,,,,,,,,,,
296083,1564236514413,-1,2.35,0.98,0.34,1.42,1.08,0.84,0.02,0.51,-0,-1,-1,0.84,0,0,89,38,97,1109,73.0,118,332,60,122.0,0,1,0,0,0,0,0,72,250,-24064,73,-5.59,,,,,,,,,,,,
296103,1564236514433,1,2.34,0.98,0.34,1.42,1.07,0.83,0.02,0.51,-0,-1,-1,0.83,0,0,89,38,97,1109,72.0,118,332,60,121.0,0,1,0,0,0,0,0,72,250,-1481,72,-5.59,,,,,,,,,,,,
296123,1564236514453,0,2.35,0.98,0.34,1.42,1.08,0.84,0.02,0.51,-0,-0,-1,0.84,0,0,89,38,97,1110,72.0,118,332,60,121.0,0,1,0,0,0,0,0,72,-1481,-1481,72,-5.59,,,,,,,,,,,,
296143,1564236514473,-1,2.36,0.98,0.34,1.42,1.08,0.84,0.02,0.51,-0,-0,-0,0.84,0,0,89,38,97,1111,71.0,118,332,60,121.0,0,1,0,0,0,0,0,70,-1481,250,71,-5.59,44.681396,10.020017,7.47,177.4,0,0.0,-1,0.0,0.0,0,1.76,4.9357
296163,1564236514495,-2,2.34,0.98,0.34,1.42,1.08,0.84,0.02,0.51,-0,-1,-0,0.84,0,0,89,38,97,1111,71.0,118,332,60,121.0,0,1,0,0,0,0,0,70,14228,250,71,-5.59,,,,,,,,,,,,
296183,1564236514515,-0,2.34,0.98,0.34,1.43,1.08,0.84,0.02,0.51,-0,-1,-0,0.84,0,0,89,38,97,1112,70.0,118,332,60,120.0,0,1,0,0,0,0,0,69,-27648,14228,70,-5.59,,,,,,,,,,,,
296203,1564236514535,-1,2.36,0.98,0.34,1.43,1.08,0.83,0.02,0.51,-0,-1,-0,0.83,0,0,89,38,97,1112,70.0,118,330,60,121.0,0,1,0,0,0,0,0,69,-27648,-27648,70,-5.59,,,,,,,,,,,,
296223,1564236514555,-0,2.34,0.98,0.34,1.43,1.07,0.84,0.03,0.51,-0,-0,0,0.84,0,0,89,38,97,1113,69.0,118,330,60,121.0,0,1,0,0,0,0,0,69,250,-27648,69,-5.59,,,,,,,,,,,,
296243,1564236514575,0,2.34,0.98,0.34,1.42,1.08,0.84,0.03,0.51,-0,-1,0,0.84,0,0,89,38,97,1114,68.0,118,330,60,121.0,0,1,0,0,0,0,0,69,250,250,68,-5.59,44.681396,10.020015,7.48,177.4,0,0.0,-1,0.0,0.0,0,1.76,4.9374
296263,1564236514596,-1,2.35,0.98,0.34,1.43,1.08,0.83,0.03,0.51,-0,-1,-0,0.83,0,0,89,38,97,1114,68.0,118,330,60,121.0,0,1,0,0,0,0,0,68,250,250,68,-5.59,,,,,,,,,,,,
296283,1564236514616,-0,2.34,0.99,0.34,1.43,1.08,0.83,0.03,0.5,0,-0,0,0.83,0,0,89,38,97,1115,68.0,118,330,60,121.0,0,1,0,0,0,0,0,68,250,250,68,-5.59,,,,,,,,,,,,
296303,1564236514636,-2,2.35,0.99,0.34,1.43,1.07,0.83,0.02,0.5,0,-0,0,0.83,0,0,89,38,97,1116,68.0,118,330,60,121.0,0,1,0,0,0,0,0,67,-1482,250,68,-5.59,,,,,,,,,,,,
296323,1564236514656,-0,2.34,0.98,0.34,1.43,1.08,0.83,0.03,0.5,0,-0,0,0.83,0,0,89,38,97,1117,67.0,118,330,60,121.0,0,1,0,0,0,0,0,67,-1482,-1482,67,-5.59,,,,,,,,,,,,
296343,1564236514676,-2,2.34,0.98,0.34,1.42,1.08,0.83,0.03,0.51,0,-0,0,0.83,0,0,89,38,97,1118,67.0,118,330,60,121.0,0,1,0,0,0,0,0,66,14054,-1482,67,-5.59,44.681396,10.020011,7.66,177.4,0,0.0,-1,0.0,0.0,0,1.76,4.9391
296363,1564236514695,-0,2.33,0.98,0.34,1.42,1.08,0.83,0.03,0.52,0,-0,0,0.83,0,0,89,38,97,1118,66.0,118,330,60,121.0,0,1,0,0,0,0,0,66,14054,14054,66,-5.59,,,,,,,,,,,,
296383,1564236514715,-1,2.32,0.98,0.34,1.42,1.08,0.83,0.03,0.53,0,-0,0,0.83,0,0,89,38,97,1119,66.0,118,330,60,121.0,0,1,0,0,0,0,0,65,-6656,14054,66,-5.59,,,,,,,,,,,,
296403,1564236514735,-0,2.33,0.99,0.34,1.43,1.07,0.83,0.03,0.53,0,-0,0,0.83,0,0,89,38,97,1119,65.0,118,330,60,121.0,0,1,0,0,0,0,0,64,-6656,-6656,65,-5.59,,,,,,,,,,,,
296423,1564236514755,-2,2.34,0.98,0.34,1.42,1.08,0.83,0.03,0.52,0,-0,0,0.83,0,0,89,38,97,1120,65.0,118,327,60,121.0,0,1,0,0,0,0,0,64,250,-6656,65,-5.59,,,,,,,,,,,,
296443,1564236514775,0,2.33,0.98,0.34,1.42,1.08,0.82,0.03,0.52,0,-0,0,0.83,0,0,89,38,97,1120,64.0,118,327,60,121.0,0,1,0,0,0,0,0,64,250,250,64,-5.59,44.681396,10.020009,6.8,177.4,0,0.0,-1,0.0,0.0,0,1.76,4.9407
296463,1564236514793,0,2.33,0.98,0.33,1.43,1.08,0.83,0.03,0.51,0,-0,0,0.83,0,0,89,38,97,1122,64.0,118,328,60,121.0,0,1,0,0,0,0,0,63,-1281,250,64,-5.59,,,,,,,,,,,,
296483,1564236514813,-0,2.33,0.99,0.34,1.43,1.08,0.82,0.03,0.51,0,-0,0,0.82,0,0,89,38,97,1123,63.0,118,327,60,121.0,0,1,0,0,0,0,0,63,-1281,-1281,63,-5.59,,,,,,,,,,,,
296503,1564236514833,-2,2.34,0.98,0.34,1.43,1.07,0.83,0.03,0.51,0,-0,0,0.83,0,0,89,38,97,1124,63.0,118,327,60,121.0,0,1,0,0,0,0,0,63,-1,-1281,63,-5.59,,,,,,,,,,,,
296523,1564236514853,-0,2.33,0.98,0.34,1.43,1.08,0.83,0.03,0.51,0,-0,0,0.83,0,0,89,38,97,1125,62.0,118,327,60,120.0,0,1,0,0,0,0,0,63,-1,-1,62,-5.59,,,,,,,,,,,,
296543,1564236514873,-0,2.33,0.97,0.34,1.43,1.08,0.84,0.03,0.51,0,-0,0,0.84,0,0,89,38,97,1126,62.0,118,327,60,121.0,0,1,0,0,0,0,0,62,-1,-1,62,-5.59,44.681396,10.020006,6.5,177.4,0,0.0,-1,0.0,0.0,0,1.76,4.9424
296563,1564236514895,-0,2.34,0.98,0.34,1.43,1.08,0.83,0.03,0.51,0,-1,0,0.84,0,0,89,38,97,1126,61.0,118,327,60,121.0,0,1,0,0,0,0,0,62,-1,-1,61,-5.59,,,,,,,,,,,,
296583,1564236514915,-2,2.34,0.98,0.34,1.43,1.07,0.83,0.03,0.51,0,-1,0,0.83,0,0,89,38,97,1127,61.0,118,327,60,121.0,0,1,0,0,0,0,0,60,-1,-1,61,-5.59,,,,,,,,,,,,
296603,1564236514935,-0,2.33,0.99,0.34,1.43,1.07,0.83,0.03,0.52,0,-1,0,0.83,0,0,89,38,97,1127,61.0,118,327,60,121.0,0,1,0,0,0,0,0,60,-1,-1,61,-5.59,,,,,,,,,,,,
296623,1564236514955,-1,2.33,0.99,0.34,1.42,1.08,0.83,0.03,0.52,0,-0,0,0.83,0,0,89,38,97,1127,60.0,118,326,60,121.0,0,1,0,0,0,0,0,60,-1,-1,60,-5.59,,,,,,,,,,,,
296643,1564236514975,-1,2.34,0.99,0.34,1.43,1.08,0.83,0.03,0.52,0,-0,0,0.83,0,0,89,38,97,1128,60.0,118,325,60,121.0,0,1,0,0,0,0,0,60,-1,-1,60,-5.59,44.681396,10.020005,6.4,177.4,0,0.0,-1,0.0,0.0,0,1.76,4.944
296663,1564236514995,0,2.33,0.99,0.34,1.42,1.08,0.83,0.03,0.51,0,-0,0,0.83,0,0,89,38,97,1129,59.0,118,325,60,121.0,0,1,0,0,0,0,0,59,-1,-1,59,-5.59,,,,,,,,,,,,
296683,1564236515008,-0,2.33,0.99,0.34,1.43,1.08,0.83,0.03,0.51,0,-0,0,0.83,0,0,89,38,97,1129,59.0,118,325,60,121.0,0,1,0,0,0,0,0,59,-1,-1,59,-5.59,,,,,,,,,,,,
296703,1564236515028,-1,2.33,0.98,0.34,1.43,1.08,0.83,0.03,0.51,0,-0,0,0.84,0,0,89,38,97,1130,58.0,118,325,60,121.0,0,1,0,0,0,0,0,58,-1,-1,58,-5.59,,,,,,,,,,,,
296723,1564236515048,0,2.33,0.99,0.34,1.42,1.09,0.84,0.03,0.52,0,-0,0,0.84,0,0,89,38,97,1132,58.0,118,325,60,121.0,0,1,0,0,0,0,0,58,-1,-1,58,-5.59,,,,,,,,,,,,
296743,1564236515068,0,2.33,0.99,0.34,1.43,1.08,0.84,0.03,0.52,0,-0,-0,0.84,0,0,89,38,97,1132,57.0,118,324,60,121.0,0,1,0,0,0,0,0,58,-1,-1,57,-5.59,44.6814,10.020002,6.09,177.4,0,0.0,-1,0.0,0.0,0,1.76,4.9457
296763,1564236515094,-0,2.33,0.99,0.34,1.43,1.08,0.84,0.03,0.52,0,-0,-0,0.84,0,0,89,38,97,1133,57.0,118,324,60,122.0,0,1,0,0,0,0,0,56,-1,-1,57,-5.59,,,,,,,,,,,,
296783,1564236515114,-0,2.33,0.99,0.34,1.43,1.08,0.84,0.03,0.51,0,-0,0,0.84,0,0,89,38,97,1133,57.0,118,324,60,121.0,0,1,0,0,0,0,0,56,-1,-1,57,-5.59,,,,,,,,,,,,
296803,1564236515134,-1,2.34,0.98,0.34,1.43,1.09,0.84,0.03,0.51,0,-0,0,0.84,0,0,89,38,97,1134,56.0,118,324,60,121.0,0,1,0,0,0,0,0,55,-1,-1,56,-5.59,,,,,,,,,,,,
296823,1564236515154,-0,2.33,0.99,0.34,1.43,1.08,0.83,0.04,0.51,0,-0,-0,0.84,0,0,89,38,97,1135,56.0,118,323,60,121.0,0,1,0,0,0,0,0,55,-1,-1,56,-5.59,,,,,,,,,,,,
296843,1564236515174,0,2.34,0.98,0.34,1.43,1.08,0.83,0.04,0.51,0,-0,0,0.83,0,0,89,38,97,1136,55.0,118,323,60,121.0,0,1,0,0,0,0,0,54,-1,-1,55,-5.59,44.6814,10.02,6.67,177.4,0,0.0,-1,0.0,0.0,0,1.76,4.9474
296863,1564236515196,-0,2.33,0.99,0.34,1.43,1.08,0.84,0.04,0.51,0,-0,0,0.84,0,0,89,38,97,1136,55.0,118,322,60,121.0,0,1,0,0,0,0,0,54,-1,-1,55,-5.59,,,,,,,,,,,,
296883,1564236515216,0,2.33,0.99,0.34,1.44,1.08,0.84,0.03,0.51,0,-0,0,0.84,0,0,89,38,97,1137,54.0,118,322,60,121.0,0,1,0,0,0,0,0,54,-1,-1,54,-5.59,,,,,,,,,,,,
296903,1564236515236,-1,2.33,0.98,0.35,1.43,1.08,0.84,0.03,0.51,0,-0,0,0.84,0,0,89,38,97,1138,54.0,118,322,60,121.0,0,1,0,0,0,0,0,53,-1,-1,54,-5.59,,,,,,,,,,,,
296923,1564236515256,-1,2.33,0.99,0.34,1.43,1.07,0.85,0.03,0.51,0,-1,0,0.85,0,0,89,38,97,1138,54.0,118,321,60,121.0,0,1,0,0,0,0,0,53,-1,-1,54,-5.59,,,,,,,,,,,,
296943,1564236515276,0,2.32,0.99,0.34,1.43,1.08,0.84,0.03,0.52,0,-1,0,0.84,0,0,89,38,97,1139,53.0,118,322,60,121.0,0,1,0,0,0,0,0,52,-1,-1,53,-5.59,44.6814,10.019999,5.81,177.4,0,0.0,-1,0.0,0.0,0,1.76,4.949
296963,1564236515296,-0,2.33,0.98,0.34,1.43,1.08,0.84,0.03,0.52,0,-1,0,0.84,0,0,89,38,97,1140,53.0,118,322,60,121.0,0,1,0,0,0,0,0,52,-1,-1,53,-5.59,,,,,,,,,,,,
296983,1564236515316,-1,2.32,0.99,0.34,1.43,1.08,0.83,0.03,0.52,0,-0,0,0.84,0,0,89,38,97,1141,52.0,118,322,60,121.0,0,1,0,0,0,0,0,52,-1,-1,51,-5.59,,,,,,,,,,,,
297003,1564236515336,0,2.32,0.99,0.34,1.42,1.08,0.83,0.03,0.52,0,-0,0,0.83,0,0,89,38,97,1141,52.0,118,322,60,121.0,0,1,0,0,0,0,0,51,-1,-1,51,-5.59,,,,,,,,,,,,
297023,1564236515356,-0,2.31,0.98,0.34,1.43,1.08,0.84,0.04,0.51,0,-0,-0,0.84,0,0,89,38,97,1142,51.0,118,322,60,121.0,0,1,0,0,0,0,0,51,-1,-1,51,-5.59,,,,,,,,,,,,
297043,1564236515376,-0,2.32,0.98,0.34,1.43,1.08,0.84,0.03,0.51,0,-0,0,0.84,0,0,89,38,97,1143,50.0,118,321,60,121.0,0,1,0,0,0,0,0,50,-1,-1,50,-5.59,44.6814,10.019997,5.51,177.4,0,0.0,-1,0.0,0.0,0,1.76,4.9507
297063,1564236515396,0,2.31,0.99,0.35,1.43,1.08,0.84,0.03,0.52,0,-1,0,0.84,0,0,89,38,97,1144,50.0,118,321,60,121.0,0,1,0,0,0,0,0,50,-1,-1,50,-5.59,,,,,,,,,,,,
297083,1564236515416,0,2.32,0.98,0.34,1.43,1.08,0.83,0.04,0.52,0,-0,0,0.84,0,0,89,38,97,1144,49.0,118,320,60,121.0,0,1,0,0,0,0,0,50,-1,-1,49,-5.59,,,,,,,,,,,,
297103,1564236515436,0,2.32,0.99,0.34,1.43,1.08,0.84,0.04,0.52,0,-0,-0,0.84,0,0,89,38,97,1144,49.0,118,319,60,121.0,0,1,0,0,0,0,0,48,-1,-1,49,-5.59,,,,,,,,,,,,
297123,1564236515456,-0,2.31,0.99,0.34,1.43,1.08,0.84,0.04,0.51,0,-0,-0,0.84,0,0,89,38,97,1145,49.0,118,319,60,121.0,0,1,0,0,0,0,0,48,-1,-1,49,-5.59,,,,,,,,,,,,
297143,1564236515476,0,2.31,0.98,0.34,1.43,1.08,0.84,0.03,0.51,0,-1,-0,0.84,0,0,89,38,97,1146,48.0,118,319,60,121.0,0,1,0,0,0,0,0,48,-1,-1,47,-5.59,44.681396,10.019996,5.61,177.5,0,0.0,-1,0.0,0.0,0,1.76,4.9524
297163,1564236515496,-1,2.32,0.98,0.34,1.42,1.09,0.84,0.04,0.5,0,-0,-0,0.84,0,0,89,38,97,1147,48.0,118,319,60,121.0,0,1,0,0,0,0,0,47,-1,-1,47,-5.59,,,,,,,,,,,,
297183,1564236515516,0,2.31,0.98,0.34,1.43,1.08,0.84,0.04,0.5,0,-0,-0,0.84,0,0,89,38,97,1147,47.0,118,319,60,121.0,0,1,0,0,0,0,0,47,-1,-1,47,-5.59,,,,,,,,,,,,
297203,1564236515536,0,2.31,0.98,0.34,1.42,1.08,0.84,0.04,0.5,0,-0,-0,0.84,0,0,89,38,97,1148,46.0,118,319,60,121.0,0,1,0,0,0,0,0,47,-1,-1,46,-5.59,,,,,,,,,,,,
297223,1564236515556,-0,2.31,0.97,0.34,1.43,1.08,0.84,0.04,0.5,-0,-0,-0,0.84,0,0,89,38,97,1149,46.0,118,319,60,121.0,0,1,0,0,0,0,0,45,-1,-1,46,-5.59,,,,,,,,,,,,
297243,1564236515576,0,2.31,0.98,0.34,1.43,1.08,0.84,0.04,0.5,0,-1,-0,0.84,0,0,89,38,97,1149,46.0,118,319,60,121.0,0,1,0,0,0,0,0,45,-1,-1,46,-5.59,44.6814,10.019994,5.3,177.4,0,0.0,-1,0.0,0.0,0,1.76,4.9541
297263,1564236515596,0,2.32,0.98,0.34,1.43,1.08,0.84,0.04,0.5,0,-1,-0,0.85,0,0,89,38,97,1149,45.0,118,318,60,121.0,0,1,0,0,0,0,0,45,-1,-1,44,-5.59,,,,,,,,,,,,
297283,1564236515616,-1,2.32,0.98,0.34,1.43,1.09,0.85,0.04,0.5,0,-1,-0,0.85,0,0,89,38,97,1150,45.0,118,318,60,121.0,0,1,0,0,0,0,0,43,-1,-1,44,-5.59,,,,,,,,,,,,
297303,1564236515636,-0,2.32,0.99,0.34,1.43,1.09,0.85,0.03,0.49,0,-1,-0,0.85,0,0,89,38,97,1151,44.0,118,318,60,121.0,0,1,0,0,0,0,0,43,-235,-1,44,-5.59,,,,,,,,,,,,
297323,1564236515656,2,2.31,0.99,0.34,1.42,1.08,0.85,0.03,0.49,0,-1,-0,0.85,0,0,89,38,97,1151,43.0,118,317,60,121.0,0,1,0,0,0,0,0,43,-235,5470,42,-5.59,,,,,,,,,,,,
297343,1564236515676,0,2.32,0.98,0.34,1.43,1.09,0.86,0.03,0.48,0,-1,-0,0.86,0,0,89,38,97,1152,43.0,118,316,60,120.0,0,1,0,0,0,0,0,42,-235,5470,42,-5.59,44.6814,10.019991,5.96,177.5,0,0.0,-1,0.0,0.0,0,1.76,4.9557
297363,1564236515696,2,2.31,0.98,0.34,1.43,1.08,0.86,0.03,0.48,0,-1,-0,0.86,0,0,89,38,97,1153,42.0,118,316,60,121.0,0,1,0,0,0,0,0,42,24067,5470,42,-5.59,,,,,,,,,,,,
297383,1564236515716,2,2.31,0.99,0.34,1.43,1.08,0.86,0.03,0.47,0,-1,-0,0.86,0,0,89,38,97,1154,41.0,118,316,60,121.0,0,1,0,0,0,0,0,42,24067,-1281,39,-5.59,,,,,,,,,,,,
297403,1564236515736,1,2.33,0.99,0.34,1.44,1.08,0.87,0.03,0.46,0,-1,-0,0.87,0,0,89,38,97,1155,41.0,118,316,60,121.0,0,1,0,0,0,0,0,38,24067,-1281,39,-5.59,,,,,,,,,,,,
297423,1564236515756,1,2.32,0.98,0.34,1.43,1.08,0.87,0.04,0.46,0,-1,-0,0.87,0,0,89,38,97,1155,39.0,118,316,60,121.0,0,1,0,0,0,0,0,38,-1,-1281,39,-5.59,,,,,,,,,,,,
297443,1564236515776,2,2.32,0.98,0.34,1.43,1.08,0.87,0.04,0.46,0,-1,-0,0.87,0,0,89,38,97,1155,39.0,118,316,60,121.0,0,1,0,0,0,0,0,38,-1,-1281,39,-5.59,44.6814,10.01999,5.44,177.5,0,0.0,-1,0.0,0.0,0,1.76,4.9574
297463,1564236515796,1,2.32,0.98,0.35,1.43,1.08,0.87,0.04,0.46,0,-1,-0,0.87,0,0,89,38,97,1156,37.0,118,316,60,121.0,0,1,0,0,0,0,0,38,-1,-1,36,-5.59,,,,,,,,,,,,
297483,1564236515816,2,2.31,0.99,0.34,1.43,1.08,0.88,0.03,0.46,0,-1,-0,0.88,0,0,89,38,97,1156,37.0,118,316,60,121.0,0,1,0,0,0,0,0,34,-1,-1,36,-5.59,,,,,,,,,,,,
297503,1564236515836,1,2.31,0.99,0.34,1.43,1.08,0.88,0.03,0.46,0,-1,-0,0.88,0,0,89,38,97,1157,36.0,118,316,60,121.0,0,1,0,0,0,0,0,34,-1,-1,36,-5.59,,,,,,,,,,,,
297523,1564236515856,2,2.31,0.99,0.35,1.43,1.08,0.88,0.03,0.45,0,-1,-0,0.88,0,0,89,38,97,1158,36.0,118,314,60,121.0,0,1,0,0,0,0,0,34,-1,-1,36,-5.59,,,,,,,,,,,,
297543,1564236515876,0,2.32,0.98,0.34,1.43,1.09,0.88,0.03,0.45,0,-1,-0,0.88,0,0,89,38,97,1158,33.0,118,314,60,121.0,0,1,0,0,0,0,0,34,-1,-1,31,-5.59,44.6814,10.019988,5.28,177.5,0,0.0,-1,0.0,0.0,0,1.76,4.9591
297563,1564236515896,1,2.33,0.98,0.35,1.43,1.09,0.88,0.03,0.45,0,-1,-0,0.88,0,0,89,38,97,1159,33.0,118,313,60,121.0,0,1,0,0,0,0,0,30,-1,-1,31,-5.59,,,,,,,,,,,,
297583,1564236515916,2,2.31,0.99,0.35,1.42,1.08,0.88,0.03,0.45,0,-0,-0,0.88,0,0,89,38,97,1159,33.0,118,314,60,121.0,0,1,0,0,0,0,0,30,-1,-1,31,-5.59,,,,,,,,,,,,
297603,1564236515936,0,2.32,0.98,0.35,1.43,1.08,0.89,0.03,0.45,-0,-0,-0,0.89,0,0,89,38,97,1159,31.0,118,314,60,121.0,0,1,0,0,0,0,0,30,-1,-1,31,-5.59,,,,,,,,,,,,
297623,1564236515956,2,2.31,0.99,0.34,1.43,1.08,0.89,0.03,0.45,0,-1,-0,0.89,0,0,89,38,97,1160,31.0,118,313,60,121.0,0,1,0,0,0,0,0,30,-1,-1,31,-5.59,,,,,,,,,,,,
297643,1564236515976,0,2.31,0.98,0.35,1.43,1.08,0.89,0.03,0.45,-0,-1,-0,0.89,0,0,89,38,97,1160,28.0,118,313,60,121.0,0,1,0,0,0,0,0,30,-1,5442,26,-5.59,44.6814,10.019986,5.14,177.5,0,0.0,-1,0.0,0.0,0,1.76,4.9607
297663,1564236515996,2,2.31,0.98,0.34,1.42,1.09,0.89,0.03,0.45,-0,-1,-0,0.89,0,0,89,38,97,1161,28.0,118,313,60,121.0,0,1,0,0,0,0,0,24,-1,5442,26,-5.59,,,,,,,,,,,,
297683,1564236516009,2,2.31,0.99,0.34,1.43,1.08,0.89,0.03,0.45,-0,-0,-0,0.89,0,0,89,38,97,1162,28.0,118,313,60,121.0,0,1,0,0,0,0,0,24,-1,5442,26,-5.59,,,,,,,,,,,,
297703,1564236516029,1,2.31,0.98,0.33,1.43,1.08,0.89,0.03,0.44,-0,-0,-0,0.89,0,0,89,38,97,1163,26.0,118,313,60,121.0,0,1,0,0,0,0,0,24,-1281,5442,26,-5.59,,,,,,,,,,,,
297723,1564236516049,2,2.31,0.99,0.34,1.43,1.08,0.89,0.03,0.44,-0,-1,-0,0.89,0,0,89,38,97,1164,26.0,118,313,60,121.0,0,1,0,0,0,0,0,24,-1281,5442,26,-5.59,,,,,,,,,,,,
297743,1564236516069,1,2.32,0.98,0.34,1.43,1.08,0.89,0.03,0.44,-0,-1,-0,0.89,0,0,89,38,97,1164,26.0,118,313,60,121.0,0,1,0,0,0,0,0,24,-1281,5442,26,-5.59,44.6814,10.019985,5.13,177.6,0,0.0,-1,0.0,0.0,0,1.76,4.9624
297763,1564236516095,3,2.32,0.98,0.34,1.43,1.08,0.89,0.03,0.44,-0,-1,-0,0.89,0,0,89,38,97,1164,23.0,118,312,60,121.0,0,1,0,0,0,0,0,24,-1281,-235,20,-5.59,,,,,,,,,,,,
297783,1564236516115,3,2.31,0.99,0.34,1.42,1.08,0.9,0.03,0.43,-0,-1,-0,0.9,0,0,89,38,97,1165,23.0,118,312,60,121.0,0,1,0,0,0,0,0,24,-1281,-235,20,-5.59,,,,,,,,,,,,
297803,1564236516135,4,2.32,0.98,0.34,1.42,1.08,0.9,0.03,0.43,-0,-1,-0,0.9,0,0,89,38,97,1165,23.0,118,312,60,121.0,0,1,0,0,0,0,0,24,-1281,-235,20,-5.59,,,,,,,,,,,,
297823,1564236516155,4,2.31,0.98,0.34,1.43,1.08,0.91,0.03,0.42,-0,-1,-0,0.91,0,0,89,38,97,1165,23.0,118,311,60,121.0,0,1,0,0,0,0,0,17,-1281,-235,20,-5.59,,,,,,,,,,,,
297843,1564236516175,3,2.32,0.98,0.35,1.43,1.07,0.91,0.03,0.42,-0,-1,-0,0.91,0,0,89,38,97,1166,23.0,118,311,60,121.0,0,1,0,0,0,0,0,17,-1281,-235,20,-5.59,44.6814,10.019983,5.1,177.6,0,0.0,-1,0.0,0.0,0,1.76,4.964
297863,1564236516198,4,2.32,0.99,0.34,1.43,1.08,0.92,0.03,0.41,-0,-1,-0,0.92,0,0,89,38,97,1166,23.0,118,311,60,120.0,0,1,0,0,0,0,0,17,-1281,-235,20,-5.59,,,,,,,,,,,,
297883,1564236516218,3,2.32,0.99,0.35,1.43,1.09,0.92,0.03,0.41,-0,-1,-0,0.92,0,0,89,38,97,1167,23.0,118,311,60,120.0,0,1,0,0,0,0,0,17,-1281,-235,20,-5.59,,,,,,,,,,,,
297903,1564236516238,5,2.32,0.99,0.34,1.43,1.08,0.92,0.03,0.4,-0,-1,-0,0.93,0,0,89,38,97,1168,23.0,118,311,60,120.0,0,1,0,0,0,0,0,17,-1281,-235,20,-5.59,,,,,,,,,,,,
297923,1564236516258,5,2.32,0.98,0.34,1.43,1.09,0.93,0.03,0.4,-0,-1,-0,0.93,0,0,89,38,97,1169,23.0,118,311,60,121.0,0,1,0,0,0,0,0,17,-1281,-235,20,-5.59,,,,,,,,,,,,
297943,1564236516278,5,2.31,0.98,0.34,1.43,1.08,0.93,0.03,0.4,-0,-1,-0,0.93,0,0,89,38,97,1169,23.0,118,311,60,121.0,0,1,0,0,0,0,0,17,-1281,-235,20,-5.59,44.6814,10.019981,5.16,177.6,0,0.0,-1,0.0,0.0,0,1.76,4.9657
297963,1564236516295,3,2.33,0.98,0.34,1.43,1.09,0.92,0.03,0.42,-0,-0,-0,0.92,0,0,89,38,97,1170,23.0,118,311,60,121.0,0,1,0,0,0,0,0,17,-1281,-235,20,-5.59,,,,,,,,,,,,
297983,1564236516315,3,2.32,0.98,0.35,1.43,1.08,0.9,0.03,0.43,-0,-0,-0,0.9,0,0,89,38,97,1170,23.0,118,311,60,120.0,0,1,0,0,0,0,0,17,-1281,-235,20,-5.59,,,,,,,,,,,,
298003,1564236516335,5,2.32,0.98,0.34,1.43,1.09,0.89,0.03,0.45,-0,0,-0,0.89,0,0,89,38,97,1170,23.0,118,311,60,120.0,0,1,0,0,0,0,0,17,-1281,-235,20,-5.59,,,,,,,,,,,,
298023,1564236516355,4,2.32,0.98,0.34,1.43,1.09,0.88,0.03,0.47,-0,0,-0,0.88,0,0,89,38,97,1170,23.0,118,311,60,120.0,0,1,0,0,0,0,0,17,-1281,-235,20,-5.59,,,,,,,,,,,,
298043,1564236516375,4,2.32,0.99,0.34,1.43,1.08,0.87,0.03,0.48,-0,0,-0,0.87,0,0,89,38,97,1171,23.0,118,310,60,120.0,0,1,0,0,0,0,0,17,-1281,-235,20,-5.59,44.6814,10.01998,3.03,177.6,0,0.0,-1,0.0,0.0,0,1.76,4.9674
298063,1564236516397,3,2.32,0.98,0.34,1.43,1.08,0.86,0.03,0.49,-0,0,-0,0.86,0,0,89,38,97,1171,23.0,118,308,60,120.0,0,1,0,0,0,0,0,17,-1281,-235,20,-5.59,,,,,,,,,,,,
298083,1564236516417,4,2.32,1.0,0.35,1.43,1.08,0.85,0.03,0.5,-0,0,-0,0.85,0,0,89,38,97,1171,23.0,118,308,60,120.0,0,1,0,0,0,0,0,17,-1281,-235,20,-5.59,,,,,,,,,,,,
298103,1564236516437,4,2.31,0.99,0.35,1.43,1.08,0.84,0.03,0.51,-0,0,-0,0.84,0,0,89,38,97,1172,23.0,118,309,60,120.0,0,1,0,0,0,0,0,17,-1281,-235,20,-5.59,,,,,,,,,,,,
298123,1564236516457,4,2.31,0.98,0.34,1.43,1.08,0.84,0.03,0.52,-0,-0,-0,0.84,0,0,89,38,97,1172,23.0,118,308,60,120.0,0,1,0,0,0,0,0,17,-1281,-235,20,-5.59,,,,,,,,,,,,
298143,1564236516477,4,2.31,0.99,0.34,1.43,1.08,0.83,0.03,0.52,-0,-0,-0,0.83,0,0,89,38,97,1172,23.0,118,308,60,120.0,0,1,0,0,0,0,0,17,-1281,-235,20,-5.59,44.681396,10.019979,0.0,177.6,0,0.0,-1,0.0,0.0,0,1.76,4.969
298163,1564236516497,4,2.31,0.99,0.34,1.43,1.08,0.83,0.03,0.52,-0,-0,-0,0.83,0,0,89,38,97,1172,23.0,118,308,60,120.0,0,1,0,0,0,0,0,17,-1281,-235,20,-5.59,,,,,,,,,,,,
298183,1564236516517,3,2.31,0.98,0.35,1.43,1.08,0.83,0.03,0.53,-0,-0,-0,0.83,0,0,89,38,97,1173,23.0,118,308,60,120.0,0,1,0,0,0,0,0,17,-1281,-235,20,-5.59,,,,,,,,,,,,
298203,1564236516537,4,2.32,0.99,0.34,1.43,1.08,0.83,0.03,0.53,-0,-0,-0,0.83,0,0,89,38,97,1174,20.0,118,308,60,120.0,0,1,0,0,0,0,0,17,250,-235,20,-5.59,,,,,,,,,,,,
298223,1564236516557,4,2.32,0.98,0.34,1.43,1.08,0.82,0.03,0.53,-0,-0,-0,0.82,0,0,89,38,97,1174,20.0,118,308,60,120.0,0,1,0,0,0,0,0,17,250,-235,20,-5.59,,,,,,,,,,,,
298243,1564236516577,4,2.31,0.97,0.34,1.43,1.08,0.82,0.03,0.54,-0,-0,-0,0.82,0,0,89,38,97,1175,20.0,118,308,60,120.0,0,1,0,0,0,0,0,17,250,-235,20,-5.59,44.681396,10.019979,0.0,177.7,0,0.0,-1,0.0,0.0,0,1.76,4.9707
298263,1564236516597,2,2.32,0.98,0.35,1.43,1.07,0.82,0.03,0.54,-0,-0,-0,0.82,0,0,89,38,97,1176,0.0,118,308,60,120.0,0,1,0,0,0,0,0,17,250,250,0,-5.59,,,,,,,,,,,,
298283,1564236516617,4,2.32,0.99,0.34,1.43,1.09,0.81,0.03,0.55,-0,-0,-0,0.81,0,0,89,38,97,1176,0.0,118,308,60,120.0,0,1,0,0,0,0,0,17,250,250,0,-5.59,,,,,,,,,,,,
298303,1564236516637,4,2.31,0.99,0.35,1.43,1.08,0.81,0.03,0.55,-0,-0,-0,0.81,0,0,89,38,97,1176,0.0,118,308,60,120.0,0,1,0,0,0,0,0,17,250,250,0,-5.59,,,,,,,,,,,,
298323,1564236516657,3,2.32,0.98,0.34,1.42,1.08,0.81,0.03,0.55,-0,-0,-0,0.81,0,0,89,38,97,1176,0.0,118,307,60,120.0,0,1,0,0,0,0,0,0,250,250,0,-5.59,,,,,,,,,,,,
298343,1564236516677,4,2.31,0.99,0.34,1.42,1.08,0.81,0.03,0.55,-0,-0,-0,0.81,0,0,89,38,97,1177,0.0,118,306,60,120.0,0,1,0,0,0,0,0,0,250,250,0,-5.59,44.681396,10.019978,0.0,177.7,0,0.0,-1,0.0,0.0,0,1.76,4.9724
298363,1564236516697,4,2.32,0.99,0.35,1.43,1.09,0.81,0.03,0.55,-0,-0,-0,0.81,0,0,89,38,97,1177,0.0,118,306,60,120.0,0,1,0,0,0,0,0,0,250,250,0,-5.59,,,,,,,,,,,,
298383,1564236516717,4,2.32,0.98,0.34,1.43,1.08,0.81,0.03,0.56,-0,-0,-0,0.81,0,0,89,38,97,1178,0.0,118,306,60,120.0,0,1,0,0,0,0,0,0,250,250,0,-5.59,,,,,,,,,,,,
298403,1564236516737,4,2.32,0.98,0.34,1.43,1.08,0.81,0.03,0.56,-0,-0,-0,0.81,0,0,89,38,97,1178,0.0,118,305,60,120.0,0,1,0,0,0,0,0,0,250,250,0,-5.59,,,,,,,,,,,,
298423,1564236516757,2,2.32,0.98,0.35,1.42,1.09,0.81,0.03,0.56,-0,-0,-0,0.81,0,0,89,38,97,1179,0.0,118,305,60,120.0,0,1,0,0,0,0,0,0,250,250,0,-5.59,,,,,,,,,,,,
298443,1564236516777,4,2.31,0.99,0.34,1.43,1.09,0.81,0.03,0.56,-0,-0,-0,0.81,0,0,89,38,97,1179,0.0,117,305,60,120.0,0,1,0,0,0,0,0,0,250,250,0,-5.59,44.681396,10.019978,0.0,177.7,0,0.0,-1,0.0,0.0,0,1.76,4.974
298463,1564236516797,4,2.31,0.98,0.35,1.43,1.09,0.8,0.03,0.56,-0,-0,-0,0.81,0,0,89,38,97,1179,0.0,118,305,60,120.0,0,1,0,0,0,0,0,0,250,250,0,-5.59,,,,,,,,,,,,
298483,1564236516817,4,2.31,0.99,0.35,1.43,1.08,0.8,0.03,0.56,-0,-0,-0,0.8,0,0,89,38,97,1179,0.0,118,305,60,120.0,0,1,0,0,0,0,0,0,250,250,0,-5.59,,,,,,,,,,,,
298503,1564236516837,4,2.31,0.99,0.34,1.43,1.08,0.8,0.03,0.57,-0,-0,-0,0.8,0,0,89,38,97,1179,0.0,118,305,60,120.0,0,1,0,0,0,0,0,0,250,250,0,-5.59,,,,,,,,,,,,
298523,1564236516857,4,2.32,0.98,0.35,1.43,1.09,0.8,0.03,0.57,-0,-1,-0,0.8,0,0,89,38,97,1180,0.0,118,305,60,120.0,0,1,0,0,0,0,0,0,250,250,0,-5.59,,,,,,,,,,,,
298543,1564236516877,4,2.31,0.99,0.34,1.43,1.09,0.8,0.03,0.57,-0,-1,-0,0.8,0,0,89,38,97,1181,0.0,118,305,60,120.0,0,1,0,0,0,0,0,0,250,250,0,-5.59,44.681396,10.019978,0.0,177.7,0,0.0,-1,0.0,0.0,0,1.76,4.9757
298563,1564236516897,3,2.32,0.98,0.34,1.43,1.09,0.8,0.03,0.57,-0,-1,-0,0.8,0,0,89,38,97,1181,0.0,118,305,60,120.0,0,1,0,0,0,0,0,0,250,250,0,-5.59,,,,,,,,,,,,
298583,1564236516917,4,2.31,0.98,0.34,1.44,1.08,0.8,0.03,0.57,-0,-1,-0,0.8,0,0,89,38,97,1182,0.0,118,303,60,120.0,0,1,0,0,0,0,0,0,250,250,0,-5.59,,,,,,,,,,,,
298603,1564236516937,4,2.33,0.99,0.34,1.43,1.08,0.8,0.03,0.57,-0,-1,-0,0.8,0,0,89,38,97,1182,0.0,117,303,60,120.0,0,1,0,0,0,0,0,0,250,250,0,-5.59,,,,,,,,,,,,
298623,1564236516957,5,2.32,0.99,0.35,1.43,1.08,0.8,0.03,0.57,-0,-1,-0,0.8,0,0,89,38,97,1182,0.0,118,303,60,120.0,0,1,0,0,0,0,0,0,250,250,0,-5.59,,,,,,,,,,,,
298643,1564236516977,3,2.32,0.98,0.34,1.43,1.09,0.8,0.03,0.57,-0,-1,-0,0.8,0,0,89,38,97,1183,0.0,118,303,60,120.0,0,1,0,0,0,0,0,0,250,250,0,-5.59,44.681396,10.019977,0.0,177.7,0,0.0,-1,0.0,0.0,0,1.76,4.9774
298663,1564236516997,2,2.31,0.98,0.34,1.42,1.08,0.8,0.03,0.57,-0,-1,-0,0.8,0,0,89,38,97,1183,0.0,118,303,60,120.0,0,1,0,0,0,0,0,0,250,250,0,-5.59,,,,,,,,,,,,
298683,1564236517009,5,2.31,0.99,0.34,1.43,1.08,0.8,0.03,0.57,-0,-1,-0,0.8,0,0,89,38,97,1183,0.0,118,303,60,120.0,0,1,0,0,0,0,0,0,250,250,0,-5.59,,,,,,,,,,,,
298703,1564236517029,4,2.32,0.98,0.35,1.43,1.09,0.8,0.03,0.57,-0,-1,-0,0.8,0,0,89,38,97,1184,0.0,118,303,60,120.0,0,1,0,0,0,0,0,0,250,250,0,-5.59,,,,,,,,,,,,
298723,1564236517049,5,2.32,0.98,0.35,1.43,1.09,0.8,0.03,0.57,-0,-1,-0,0.8,0,0,89,38,97,1184,0.0,118,303,60,120.0,0,1,0,0,0,0,0,0,250,250,0,-5.59,,,,,,,,,,,,
298743,1564236517069,5,2.31,0.99,0.35,1.42,1.09,0.8,0.03,0.57,0,-1,-0,0.8,0,0,89,38,97,1184,0.0,118,303,60,120.0,0,1,0,0,0,0,0,0,250,250,0,-5.59,44.681396,10.019977,0.0,177.7,0,0.0,-1,0.0,0.0,0,1.76,4.9791
298763,1564236517094,5,2.31,0.99,0.34,1.43,1.08,0.8,0.03,0.57,0,-1,-0,0.8,0,0,89,38,97,1185,0.0,118,302,60,120.0,0,1,0,0,0,0,0,0,250,250,0,-5.59,,,,,,,,,,,,
298783,1564236517114,5,2.31,0.99,0.35,1.43,1.08,0.8,0.03,0.57,0,-1,-0,0.8,0,0,89,38,97,1185,0.0,118,301,60,120.0,0,1,0,0,0,0,0,0,250,250,0,-5.59,,,,,,,,,,,,
298803,1564236517134,3,2.32,0.98,0.35,1.43,1.08,0.8,0.03,0.57,0,-1,-0,0.8,0,0,89,38,97,1185,0.0,118,301,60,120.0,0,1,0,0,0,0,0,0,250,250,0,-5.59,,,,,,,,,,,,
298823,1564236517154,3,2.31,0.99,0.34,1.43,1.08,0.8,0.03,0.57,0,-1,-0,0.8,0,0,89,38,97,1186,0.0,118,301,60,120.0,0,1,0,0,0,0,0,0,250,250,0,-5.59,,,,,,,,,,,,
298843,1564236517174,2,2.31,0.99,0.34,1.43,1.08,0.8,0.03,0.57,0,-1,-0,0.8,0,0,89,38,97,1186,0.0,118,301,60,120.0,0,1,0,0,0,0,0,0,250,250,0,-5.59,44.681396,10.019977,0.0,177.7,0,0.0,-1,0.0,0.0,0,1.76,4.9807
298863,1564236517196,-0,2.32,0.98,0.34,1.43,1.08,0.8,0.03,0.57,0,-1,-0,0.8,0,0,89,38,97,1187,0.0,118,301,60,120.0,0,1,0,0,0,0,0,0,250,250,0,-5.59,,,,,,,,,,,,
298883,1564236517216,0,2.31,0.98,0.34,1.43,1.08,0.8,0.03,0.57,-0,-1,-0,0.8,0,0,89,38,97,1187,0.0,118,301,60,120.0,0,1,0,0,0,0,0,0,250,250,0,-5.59,,,,,,,,,,,,
298903,1564236517236,-1,2.32,0.99,0.34,1.43,1.08,0.8,0.03,0.57,-0,-1,-0,0.8,0,0,89,38,97,1187,0.0,118,301,60,120.0,0,1,0,0,0,0,0,0,250,250,0,-5.59,,,,,,,,,,,,
298923,1564236517256,-1,2.31,0.98,0.34,1.42,1.08,0.8,0.03,0.57,-0,-1,-0,0.8,0,0,89,38,97,1188,0.0,118,301,60,120.0,0,1,0,0,0,0,0,0,250,250,0,-5.59,,,,,,,,,,,,
298943,1564236517276,-2,2.32,0.98,0.35,1.43,1.07,0.8,0.03,0.57,0,-1,-0,0.8,0,0,89,38,97,1188,0.0,118,300,60,120.0,0,1,0,0,0,0,0,0,250,250,0,-5.59,44.681396,10.019977,0.0,177.7,0,0.0,-1,0.0,0.0,0,1.76,4.9824
298963,1564236517296,-0,2.31,0.98,0.34,1.43,1.08,0.8,0.03,0.57,-0,-1,-0,0.8,0,0,89,38,97,1189,0.0,118,300,60,120.0,0,1,0,0,0,0,0,0,250,250,0,-5.59,,,,,,,,,,,,
298983,1564236517316,-1,2.31,0.97,0.34,1.43,1.08,0.8,0.03,0.57,-0,-1,-0,0.8,0,0,89,38,97,1189,0.0,118,300,60,120.0,0,1,0,0,0,0,0,0,250,250,0,-5.59,,,,,,,,,,,,
299003,1564236517336,-1,2.32,0.98,0.34,1.43,1.08,0.8,0.03,0.57,-0,-1,-0,0.8,0,0,89,38,97,1189,0.0,118,300,60,120.0,0,1,0,0,0,0,0,0,250,250,0,-5.59,,,,,,,,,,,,
299023,1564236517356,-0,2.32,0.98,0.34,1.43,1.08,0.8,0.03,0.57,-0,-1,-0,0.8,0,0,89,38,97,1190,0.0,118,300,60,120.0,0,1,0,0,0,0,0,0,250,250,0,-5.59,,,,,,,,,,,,
299043,1564236517376,-2,2.31,0.98,0.35,1.42,1.09,0.8,0.03,0.57,-0,-1,-0,0.8,0,0,89,38,97,1190,0.0,118,300,60,120.0,0,1,0,0,0,0,0,0,250,250,0,-5.59,44.681396,10.019977,0.0,177.7,0,0.0,-1,0.0,0.0,0,1.76,4.984
299063,1564236517396,-2,2.32,0.98,0.35,1.43,1.08,0.8,0.03,0.57,-0,-1,-0,0.8,0,0,89,38,97,1190,0.0,118,300,60,120.0,0,1,0,0,0,0,0,0,250,250,0,-5.59,,,,,,,,,,,,
299083,1564236517416,-1,2.32,0.99,0.34,1.43,1.08,0.8,0.03,0.57,-0,-1,-0,0.8,0,0,89,38,97,1191,0.0,118,300,60,120.0,0,1,0,0,0,0,0,0,250,250,0,-5.59,,,,,,,,,,,,
299103,1564236517436,-0,2.31,0.98,0.35,1.43,1.08,0.8,0.03,0.57,-0,-1,-0,0.8,0,0,89,38,97,1191,0.0,118,300,60,120.0,0,1,0,0,0,0,0,0,250,250,0,-5.59,,,,,,,,,,,,
299123,1564236517456,-0,2.31,0.98,0.34,1.43,1.09,0.8,0.03,0.57,-0,-1,-0,0.8,0,0,89,38,97,1191,0.0,118,300,60,120.0,0,1,0,0,0,0,0,0,250,250,0,-5.59,,,,,,,,,,,,
299143,1564236517476,-2,2.32,0.98,0.34,1.42,1.08,0.8,0.03,0.57,-0,-1,-0,0.8,0,0,89,38,97,1191,0.0,118,300,60,120.0,0,1,0,0,0,0,0,0,250,250,0,-5.59,44.681396,10.019977,0.0,177.7,0,0.0,-1,0.0,0.0,0,1.76,4.9857
299163,1564236517496,-1,2.32,0.98,0.35,1.42,1.08,0.8,0.03,0.57,-0,-1,-0,0.8,0,0,89,38,97,1192,0.0,118,297,60,120.0,0,1,0,0,0,0,0,0,250,250,0,-5.59,,,,,,,,,,,,
299183,1564236517516,-2,2.31,0.98,0.35,1.42,1.09,0.8,0.03,0.57,-0,-1,-0,0.8,0,0,89,38,97,1192,0.0,118,297,60,120.0,0,1,0,0,0,0,0,0,250,250,0,-5.59,,,,,,,,,,,,
299203,1564236517536,-0,2.32,0.98,0.35,1.42,1.09,0.8,0.03,0.57,-0,-1,-0,0.8,0,0,89,38,97,1192,0.0,118,298,60,120.0,0,1,0,0,0,0,0,0,250,250,0,-5.59,,,,,,,,,,,,
299223,1564236517556,-2,2.32,0.98,0.34,1.42,1.09,0.8,0.03,0.56,-0,-1,-0,0.8,0,0,89,38,97,1193,0.0,118,297,60,120.0,0,1,0,0,0,0,0,0,250,250,0,-5.59,,,,,,,,,,,,
299243,1564236517576,-0,2.31,0.98,0.35,1.43,1.08,0.8,0.03,0.56,-0,-1,-0,0.8,0,0,89,38,97,1193,0.0,118,297,60,120.0,0,1,0,0,0,0,0,0,250,250,0,-5.59,44.681396,10.019977,0.0,177.7,0,0.0,-1,0.0,0.0,0,1.76,4.9874
299263,1564236517596,-0,2.31,0.98,0.35,1.42,1.09,0.8,0.03,0.56,-0,-1,-0,0.8,0,0,89,38,97,1194,0.0,118,297,60,120.0,0,1,0,0,0,0,0,0,250,250,0,-5.59,,,,,,,,,,,,
299283,1564236517616,-0,2.32,0.98,0.35,1.42,1.08,0.8,0.03,0.56,-0,-1,-0,0.8,0,0,89,38,97,1194,0.0,118,297,60,120.0,0,1,0,0,0,0,0,0,250,250,0,-5.59,,,,,,,,,,,,
299303,1564236517636,-1,2.32,0.98,0.35,1.43,1.08,0.8,0.03,0.56,-0,-1,-0,0.8,0,0,89,38,97,1194,0.0,118,297,60,120.0,0,1,0,0,0,0,0,0,250,250,0,-5.59,,,,,,,,,,,,
299323,1564236517656,-1,2.32,0.98,0.34,1.43,1.08,0.8,0.03,0.56,-0,-1,-0,0.8,0,0,89,38,97,1194,0.0,118,297,60,121.0,0,1,0,0,0,0,0,0,250,250,0,-5.59,,,,,,,,,,,,
299343,1564236517676,-1,2.32,0.98,0.35,1.43,1.08,0.8,0.03,0.56,-0,-0,-0,0.8,0,0,89,38,97,1195,0.0,118,297,60,121.0,0,1,0,0,0,0,0,0,250,250,0,-5.59,44.681396,10.019977,0.0,177.7,0,0.0,-1,0.0,0.0,0,1.76,4.989
299363,1564236517696,-0,2.32,0.98,0.35,1.43,1.08,0.8,0.03,0.56,-0,-0,-0,0.8,0,0,89,38,97,1195,0.0,118,296,60,121.0,0,1,0,0,0,0,0,0,250,250,0,-5.59,,,,,,,,,,,,
299383,1564236517716,-1,2.32,0.98,0.35,1.43,1.09,0.8,0.03,0.56,-0,-0,-0,0.8,0,0,89,38,97,1196,0.0,118,296,60,121.0,0,1,0,0,0,0,0,0,250,250,0,-5.59,,,,,,,,,,,,
299403,1564236517736,-1,2.32,0.98,0.35,1.42,1.08,0.8,0.03,0.56,-0,-0,-0,0.8,0,0,89,38,97,1196,0.0,118,295,60,121.0,0,1,0,0,0,0,0,0,250,250,0,-5.59,,,,,,,,,,,,
299423,1564236517756,-2,2.32,0.98,0.35,1.43,1.09,0.8,0.03,0.56,-0,-0,-0,0.8,0,0,89,38,97,1197,0.0,118,295,60,121.0,0,1,0,0,0,0,0,0,250,250,0,-5.59,,,,,,,,,,,,
299443,1564236517776,-1,2.32,0.98,0.35,1.42,1.09,0.8,0.03,0.56,-0,-1,-0,0.8,0,0,89,38,97,1197,0.0,118,295,60,121.0,0,1,0,0,0,0,0,0,250,250,0,-5.59,44.681396,10.019977,0.0,177.7,0,0.0,-1,0.0,0.0,0,1.76,4.9907
299463,1564236517793,-0,2.31,0.98,0.35,1.42,1.08,0.8,0.03,0.56,-0,-1,-0,0.8,0,0,89,38,97,1197,0.0,118,295,60,121.0,0,1,0,0,0,0,0,0,250,250,0,-5.59,,,,,,,,,,,,
299483,1564236517813,-0,2.31,0.99,0.35,1.43,1.09,0.8,0.03,0.56,-0,-1,-0,0.8,0,0,89,38,97,1197,0.0,118,295,60,121.0,0,1,0,0,0,0,0,0,250,250,0,-5.59,,,,,,,,,,,,
299503,1564236517833,0,2.32,0.98,0.34,1.44,1.08,0.8,0.03,0.56,-0,-1,-0,0.8,0,0,89,38,97,1198,0.0,118,295,60,121.0,0,1,0,0,0,0,0,0,250,250,0,-5.59,,,,,,,,,,,,
299523,1564236517853,-0,2.31,0.98,0.34,1.43,1.09,0.8,0.03,0.56,-0,-1,-0,0.8,0,0,89,38,97,1198,0.0,118,295,60,121.0,0,1,0,0,0,0,0,0,250,250,0,-5.59,,,,,,,,,,,,
299543,1564236517873,-1,2.32,0.98,0.34,1.43,1.08,0.8,0.03,0.57,-0,-1,-0,0.8,0,0,89,38,97,1198,0.0,118,295,60,121.0,0,1,0,0,0,0,0,0,250,250,0,-5.59,44.681396,10.019977,1.86,177.8,0,0.0,-1,0.0,0.0,0,1.76,4.9924
299563,1564236517893,-1,2.32,0.98,0.34,1.42,1.09,0.8,0.03,0.57,-0,-1,-0,0.8,0,0,89,38,97,1198,0.0,118,295,60,121.0,0,1,0,0,0,0,0,0,250,250,0,-5.59,,,,,,,,,,,,
299583,1564236517910,-1,2.32,0.98,0.35,1.43,1.09,0.8,0.03,0.57,-0,-0,-0,0.8,0,0,89,38,97,1199,0.0,118,295,60,121.0,0,1,0,0,0,0,0,0,250,250,0,-5.59,,,,,,,,,,,,
299603,1564236517930,-2,2.32,0.98,0.34,1.43,1.07,0.8,0.03,0.57,-0,-0,-0,0.8,0,0,89,38,97,1199,0.0,118,295,60,121.0,0,1,0,0,0,0,0,0,250,250,0,-5.59,,,,,,,,,,,,
299623,1564236517950,-2,2.32,0.98,0.34,1.42,1.09,0.8,0.03,0.57,-0,-0,-0,0.8,0,0,89,38,97,1199,0.0,118,295,60,121.0,0,1,0,0,0,0,0,0,250,250,0,-5.59,,,,,,,,,,,,
299643,1564236517970,-2,2.32,0.98,0.35,1.42,1.09,0.8,0.03,0.57,-0,-0,-0,0.8,0,0,89,38,97,1199,0.0,118,295,60,121.0,0,1,0,0,0,0,0,0,250,250,0,-5.59,44.681396,10.019977,0.0,177.8,0,0.0,-1,0.0,0.0,0,1.76,4.994
299663,1564236517990,-1,2.31,0.98,0.34,1.43,1.08,0.8,0.03,0.57,-0,-0,-0,0.8,0,0,89,38,97,1199,0.0,118,295,60,121.0,0,1,0,0,0,0,0,0,250,250,0,-5.59,,,,,,,,,,,,
299683,1564236518009,-1,2.32,0.98,0.35,1.42,1.08,0.8,0.03,0.57,-0,-0,-0,0.8,0,0,89,38,97,1199,0.0,118,295,60,122.0,0,1,0,0,0,0,0,0,250,250,0,-5.59,,,,,,,,,,,,
299703,1564236518029,-2,2.32,0.98,0.35,1.42,1.09,0.8,0.03,0.57,-0,-0,-0,0.8,0,0,89,38,97,1199,0.0,118,295,60,122.0,0,1,0,0,0,0,0,0,250,250,0,-5.59,,,,,,,,,,,,
299723,1564236518049,-2,2.32,0.98,0.35,1.43,1.08,0.8,0.03,0.57,-0,-0,-0,0.8,0,0,89,38,97,1200,0.0,118,293,60,122.0,0,1,0,0,0,0,0,0,250,250,0,-5.59,,,,,,,,,,,,
