"Interval"|"ms"|0|0|1,"Utc"|"ms"|0|0|1,"AccelX"|"G"|-3.0|3.0|50,"AccelY"|"G"|-3.0|3.0|50,"AccelZ"|"G"|-3.0|3.0|50,"Yaw"|"Deg/Sec"|-120|120|50,"Pitch"|"Deg/Sec"|-120|120|50,"Roll"|"Deg/Sec"|-120|120|50,"RPM"|""|0|14000|50,"TPS"|"%"|0|100|50,"WaterTemp"|"?C"|0|300|50,"AirTemp"|"?C"|-1000|1000|50,"MAP"|"KPa"|0|255|50,"Lambda"|""|0|1024|50,"WheelSpeed"|"MPH"|0.0|150.0|50,"OilPress"|"PSI"|0|150|50,"FuelPress"|"PSI"|0|150|50,"OilTemp"|"F"|0|300|50,"Battery"|"Volts"|0.0|20.0|50,"FuelCon"|"L/h"|-1000|1000|50,"Gear"|""|0|10|50,"Advance"|"Deg"|-360|360|50,"Injection"|"ms"|-1000|1000|50,"FuelCon"|"L/100km"|-1000|1000|50,"LC_But_Pres"|""|-1000|1000|50,"LC_Active"|""|-1000|1000|50,"RD_Speed"|""|-1000|1000|50,"RUD_Speed"|""|-1000|1000|50,"LD_Speed"|""|-1000|1000|50,"LUD_Speed"|""|-1000|1000|50,"Latitude"|"Degrees"|-180.0|180.0|10,"Longitude"|"Degrees"|-180.0|180.0|10,"Speed"|"MPH"|0.0|150.0|10,"Altitude"|"ft"|0.0|4000.0|10,"Distance"|"mi"|0.0|0.0|10
51564,1558278131226,0.96,-0.15,0.43,0,-2,6,4312,0,73,27,45,502,0.0,424,463,60,120.0,0,1,303,369,76,0,0,0,250,250,0,,,,,
51584,1558278131246,0.93,-0.21,0.28,0,0,4,4142,0,73,27,45,502,0.0,397,466,60,120.0,0,1,299,110,57,0,0,0,250,250,0,,,,,
51604,1558278131266,0.91,-0.14,0.44,0,-1,1,3982,0,73,27,43,503,0.0,384,454,60,119.0,0,1,301,356,57,0,0,0,250,250,0,,,,,
51624,1558278131286,0.86,-0.15,0.51,0,-2,1,3865,0,73,27,43,503,0.0,370,457,60,119.0,0,1,286,354,57,0,0,0,250,250,0,,,,,
51644,1558278131308,0.87,-0.09,0.6,0,-4,-1,3681,0,73,27,42,503,0.0,354,457,60,120.0,0,1,264,344,57,0,0,0,250,250,0,45.699841,4.910074,0.0,679.2,0.0
51664,1558278131328,0.82,-0.09,0.57,0,-4,0,3557,0,73,27,42,503,0.0,343,461,60,120.0,0,1,247,343,57,0,0,0,250,250,0,,,,,
51684,1558278131348,0.82,-0.07,0.61,0,-3,-0,3368,0,73,27,42,503,0.0,327,453,60,118.0,0,1,240,98,41,0,0,0,250,250,0,,,,,
51704,1558278131368,0.82,-0.05,0.67,0,-3,-0,3236,0,73,27,43,503,0.0,309,455,60,117.0,0,1,240,321,41,0,0,0,250,250,0,,,,,
51724,1558278131388,0.79,-0.02,0.72,0,-4,-2,3099,0,73,27,44,503,0.0,292,459,60,120.0,0,1,240,313,41,0,0,0,250,250,0,,,,,
51744,1558278131408,0.77,-0.01,0.77,0,-6,-4,2956,0,73,27,45,504,0.0,289,456,60,119.0,0,1,240,308,41,0,0,0,250,250,0,45.699841,4.910074,0.0,679.2,0.0
51764,1558278131428,0.72,-0.0,0.81,0,-7,-5,2806,0,73,27,46,504,0.0,271,454,60,119.0,0,1,240,313,41,0,0,0,250,250,0,,,,,
51784,1558278131448,0.65,0.02,0.8,0,-6,-6,2723,0,73,27,46,504,0.0,276,458,60,119.0,0,1,240,94,32,0,0,0,250,250,0,,,,,
51804,1558278131468,0.67,0.03,0.75,0,-4,-5,2554,0,73,27,47,504,0.0,246,458,60,120.0,0,1,240,96,32,0,0,0,250,250,0,,,,,
51824,1558278131488,0.69,0.01,0.74,0,-5,-5,2374,0,73,27,47,504,0.0,238,457,60,120.0,0,1,287,315,32,0,0,0,250,250,0,,,,,
51844,1558278131508,0.69,0.01,0.74,0,-4,-4,2280,0,73,27,49,505,0.0,235,460,60,120.0,0,1,287,327,32,0,0,0,250,250,0,45.699841,4.910074,0.0,679.2,0.0
51864,1558278131528,0.72,0.02,0.68,0,-3,-5,2077,0,72,27,50,504,0.0,221,450,60,117.0,0,1,287,330,32,0,0,0,250,250,0,,,,,
51884,1558278131548,0.7,-0.0,0.71,0,-4,-3,1969,9,72,27,54,504,0.0,200,463,60,120.0,0,1,240,111,25,0,0,0,250,250,0,,,,,
51904,1558278131568,0.73,0.01,0.64,0,-3,-4,1854,33,72,27,63,505,0.0,199,461,60,120.0,0,1,240,146,25,0,0,0,250,250,0,,,,,
51924,1558278131588,0.73,-0.0,0.67,0,-3,-3,1725,55,72,27,77,505,0.0,188,461,60,120.0,0,1,240,447,25,0,0,0,250,250,0,,,,,
51944,1558278131608,0.75,0.01,0.63,0,-3,-3,1591,63,72,27,90,505,0.0,176,457,60,120.0,0,1,240,684,25,0,0,0,250,250,0,45.699841,4.910074,0.0,679.2,0.0
51964,1558278131628,0.75,0.0,0.61,0,-4,-2,1444,64,72,27,96,505,0.0,165,461,60,120.0,0,1,228,708,25,0,0,0,250,250,0,,,,,
51984,1558278131648,0.75,0.01,0.59,0,-3,-2,1279,64,72,27,97,505,0.0,155,462,60,120.0,0,1,194,213,34,0,0,0,250,250,0,,,,,
52004,1558278131668,0.75,0.0,0.62,0,-2,-1,1100,64,72,27,97,505,0.0,155,462,60,118.0,0,1,157,698,34,0,0,0,250,250,0,,,,,
52024,1558278131688,0.76,0.01,0.6,0,-2,-1,1100,64,72,27,97,505,0.0,148,459,60,119.0,0,1,157,210,34,0,0,0,250,250,0,,,,,
52044,1558278131708,0.75,0.01,0.63,0,-2,-1,892,64,72,27,97,505,0.0,140,459,60,118.0,0,1,137,692,34,0,0,0,250,250,0,45.699841,4.910074,0.0,679.2,0.0
52064,1558278131728,0.77,0.01,0.6,0,-1,-2,892,48,72,27,97,506,0.0,142,458,60,119.0,0,1,137,692,34,0,0,0,250,250,0,,,,,
52084,1558278131748,0.75,0.01,0.62,0,-2,-1,867,21,72,27,97,506,0.0,148,458,60,120.0,0,1,137,690,22,0,0,0,250,250,0,,,,,
52104,1558278131768,0.77,0.02,0.57,0,-1,-1,1207,0,72,27,95,505,0.0,160,456,60,119.0,0,1,300,690,22,0,0,0,250,250,0,,,,,
52124,1558278131788,0.76,0.01,0.6,0,0,-1,1479,0,72,27,94,505,0.0,174,455,60,120.0,0,1,300,691,22,0,0,0,250,250,0,,,,,
52144,1558278131808,0.79,0.01,0.58,0,1,-1,1662,0,72,27,92,505,0.0,174,462,60,120.0,0,1,300,702,22,0,0,0,250,250,0,45.699841,4.910074,0.0,679.2,0.0
52164,1558278131828,0.78,0.0,0.59,0,1,-0,1537,0,72,27,90,505,0.0,171,458,60,120.0,0,1,300,665,22,0,0,0,250,250,0,,,,,
52184,1558278131848,0.78,0.01,0.56,0,1,-1,1391,0,72,27,89,504,0.0,162,458,60,120.0,0,1,300,636,33,0,0,0,250,250,0,,,,,
52204,1558278131868,0.78,0.01,0.59,0,1,-0,1221,0,72,27,88,504,0.0,158,458,60,119.0,0,1,300,614,33,0,0,0,250,250,0,,,,,
52224,1558278131888,0.79,0.01,0.61,0,1,-1,1269,0,71,27,88,504,0.0,165,453,60,118.0,0,1,300,614,33,0,0,0,250,250,0,,,,,
52244,1558278131908,0.78,0.01,0.64,0,-1,-1,1454,0,71,27,88,504,0.0,175,458,60,117.0,0,1,300,632,33,0,0,0,250,250,0,45.699841,4.910074,0.0,679.2,0.0
52264,1558278131928,0.78,0.02,0.63,0,-1,-1,1454,0,71,27,88,505,0.0,170,455,60,118.0,0,1,300,632,33,0,0,0,250,250,0,,,,,
52284,1558278131948,0.78,0.02,0.62,0,-1,-1,1299,0,71,27,89,506,0.0,157,460,60,120.0,0,1,300,632,31,0,0,0,250,250,0,,,,,
52304,1558278131968,0.78,0.02,0.62,0,-1,-1,1118,0,71,27,88,506,0.0,150,461,60,119.0,0,1,300,610,31,0,0,0,250,250,0,,,,,
52324,1558278131988,0.8,0.02,0.62,0,-1,-1,1118,0,71,27,89,506,0.0,145,454,60,116.0,0,1,300,630,31,0,0,0,250,250,0,,,,,
52344,1558278132003,0.79,0.02,0.62,0,-0,-1,902,0,71,27,91,506,0.0,135,459,60,118.0,0,1,300,201,31,0,0,0,250,250,0,45.699841,4.910074,0.0,679.2,0.0
52364,1558278132023,0.8,0.02,0.62,0,-1,-1,902,2,71,27,92,506,0.0,140,453,60,115.0,0,1,300,202,31,0,0,0,250,250,0,,,,,
52384,1558278132043,0.79,0.02,0.62,0,-1,-1,733,26,71,27,94,506,0.0,133,457,60,118.0,0,1,137,687,18,0,0,0,250,250,0,,,,,
52404,1558278132063,0.79,0.01,0.63,0,-1,-1,733,52,71,27,97,506,0.0,132,458,60,117.0,0,1,137,697,18,0,0,0,250,250,0,,,,,
52424,1558278132083,0.78,0.01,0.63,0,-1,-1,566,64,71,27,97,506,0.0,128,458,60,117.0,0,1,137,697,18,0,0,0,250,250,0,,,,,
52444,1558278132107,0.79,0.01,0.62,0,-1,-1,566,64,71,27,97,506,0.0,120,458,60,117.0,0,1,137,697,18,0,0,0,250,250,0,45.699841,4.910074,0.0,679.2,0.0
52464,1558278132127,0.79,0.01,0.61,0,-2,-0,566,64,71,27,97,506,0.0,111,458,60,117.0,0,1,137,697,18,0,0,0,250,250,0,,,,,
52484,1558278132147,0.8,0.01,0.59,0,-1,-1,566,64,71,27,97,506,0.0,115,458,60,117.0,0,1,137,697,14,0,0,0,250,250,0,,,,,
52504,1558278132167,0.79,0.01,0.62,0,-1,-0,566,64,71,27,97,507,0.0,113,458,60,117.0,0,1,137,617,14,0,0,0,250,250,0,,,,,
52524,1558278132187,0.8,0.01,0.61,0,-1,-0,566,64,71,27,97,507,0.0,116,458,60,117.0,0,1,137,697,14,0,0,0,250,250,0,,,,,
52544,1558278132207,0.79,0.02,0.61,0,-0,-0,566,49,71,27,97,507,0.0,116,458,60,117.0,0,1,137,697,14,0,0,0,250,250,0,45.699841,4.910074,0.0,679.2,0.0
52564,1558278132227,0.79,0.02,0.6,0,-0,-0,566,18,71,27,98,507,0.0,116,458,60,117.0,0,1,137,702,14,0,0,0,250,250,0,,,,,
52584,1558278132247,0.79,0.02,0.61,0,-0,-0,566,0,71,27,98,507,0.0,115,458,60,117.0,0,1,300,702,14,0,0,0,250,250,0,,,,,
52604,1558278132267,0.8,0.02,0.61,1,-0,-0,566,0,70,27,98,507,0.0,116,458,60,117.0,0,1,300,210,14,0,0,0,250,250,0,,,,,
52624,1558278132287,0.8,0.02,0.6,1,-0,-0,566,0,70,27,97,507,0.0,116,458,60,117.0,0,1,300,208,14,0,0,0,250,250,0,,,,,
52644,1558278132309,0.8,0.02,0.6,1,-0,-0,566,0,70,27,97,507,0.0,116,458,60,117.0,0,1,300,208,14,0,0,0,250,250,0,45.699841,4.910074,0.0,679.2,0.0
52664,1558278132329,0.8,0.02,0.61,1,0,-0,566,0,70,27,97,507,0.0,116,458,60,117.0,0,1,300,697,14,0,0,0,250,250,0,,,,,
52684,1558278132349,0.79,0.02,0.61,1,0,-0,566,0,70,27,97,507,0.0,116,458,60,117.0,0,1,300,697,14,0,0,0,250,250,0,,,,,
52704,1558278132369,0.79,0.02,0.6,1,0,0,566,0,70,27,97,507,0.0,116,458,60,117.0,0,1,300,208,14,0,0,0,250,250,0,,,,,
52724,1558278132389,0.79,0.02,0.6,1,0,0,566,0,70,27,97,507,0.0,116,458,60,117.0,0,1,300,208,14,0,0,0,250,250,0,,,,,
52744,1558278132409,0.79,0.01,0.6,1,0,0,566,0,70,27,97,507,0.0,116,458,60,117.0,0,1,300,208,14,0,0,0,250,250,0,45.699841,4.910074,0.0,679.2,0.0
52764,1558278132429,0.8,0.01,0.6,1,0,0,566,0,70,27,97,507,0.0,116,458,60,117.0,0,1,300,697,14,0,0,0,250,250,0,,,,,
52784,1558278132449,0.8,0.01,0.6,0,-0,0,566,0,70,27,97,507,0.0,116,458,60,117.0,0,1,300,697,14,0,0,0,250,250,0,,,,,
52804,1558278132469,0.8,0.02,0.6,0,-0,0,0,0,70,27,97,500,0.0,116,458,60,117.0,0,1,0,0,0,0,0,0,250,250,0,,,,,
52824,1558278132489,0.8,0.02,0.6,0,-0,0,0,0,70,27,97,502,0.0,116,458,60,117.0,0,1,0,0,0,0,0,0,250,250,0,,,,,
52844,1558278132509,0.8,0.01,0.6,0,-0,0,0,0,70,27,97,503,0.0,116,458,60,117.0,0,1,0,0,0,0,0,0,250,250,0,45.699841,4.910074,0.0,679.2,0.0
52864,1558278132529,0.8,0.01,0.6,0,-0,0,0,0,70,27,97,504,0.0,116,458,60,117.0,0,1,0,0,0,0,0,0,250,250,0,,,,,
52884,1558278132549,0.8,0.01,0.6,0,-0,0,0,0,70,28,97,505,0.0,116,458,60,117.0,0,1,0,0,0,0,0,0,250,250,0,,,,,
52904,1558278132569,0.8,0.01,0.6,0,-0,0,0,0,70,28,97,507,0.0,116,458,60,117.0,0,1,0,0,0,0,0,0,250,250,0,,,,,
52924,1558278132589,0.8,0.01,0.6,0,-1,-0,0,0,70,28,97,507,0.0,116,458,60,117.0,0,1,0,0,0,0,0,0,250,250,0,,,,,
52944,1558278132609,0.8,0.01,0.6,0,-1,-0,0,0,70,28,97,507,0.0,116,458,60,117.0,0,1,0,0,0,0,0,0,250,250,0,45.699841,4.910074,0.0,679.2,0.0
52964,1558278132629,0.8,0.01,0.6,0,-1,0,0,0,70,28,97,507,0.0,116,458,60,117.0,0,1,0,0,0,0,0,0,250,250,0,,,,,
52984,1558278132649,0.8,0.01,0.6,0,-1,0,0,0,70,28,97,507,0.0,116,458,60,117.0,0,1,0,0,0,0,0,0,250,250,0,,,,,
53004,1558278132669,0.8,0.01,0.6,0,-1,-0,0,0,70,28,97,507,0.0,116,458,60,117.0,0,1,0,0,0,0,0,0,250,250,0,,,,,
53024,1558278132689,0.8,0.01,0.6,0,-1,-0,0,0,70,28,97,507,0.0,116,458,60,117.0,0,1,0,0,0,0,0,0,250,250,0,,,,,
53044,1558278132709,0.8,0.01,0.6,0,-1,-0,0,0,70,28,97,507,0.0,116,458,60,117.0,0,1,0,0,0,0,0,0,250,250,0,45.699841,4.910074,0.0,679.2,0.0
53064,1558278132729,0.8,0.01,0.6,0,-1,-0,0,0,70,28,97,507,0.0,116,458,60,117.0,0,1,0,0,0,0,0,0,250,250,0,,,,,
53084,1558278132749,0.8,0.01,0.6,0,-1,-0,0,0,70,28,97,507,0.0,116,458,60,117.0,0,1,0,0,0,0,0,0,250,250,0,,,,,
53104,1558278132769,0.8,0.01,0.6,0,-1,-0,0,0,70,28,97,507,0.0,116,458,60,117.0,0,1,0,0,0,0,0,0,250,250,0,,,,,
53124,1558278132789,0.8,0.01,0.6,0,-1,-0,0,0,70,28,97,507,0.0,116,458,60,117.0,0,1,0,0,0,0,0,0,250,250,0,,,,,
53144,1558278132809,0.8,0.01,0.6,0,-1,-0,0,0,70,28,97,507,0.0,116,458,60,117.0,0,1,0,0,0,0,0,0,250,250,0,45.699841,4.910074,0.0,679.2,0.0
53164,1558278132829,0.8,0.01,0.6,0,-1,-0,0,0,70,28,97,507,0.0,115,458,60,117.0,0,1,0,0,0,0,0,0,250,250,0,,,,,
53184,1558278132849,0.8,0.01,0.6,0,-1,-0,0,0,70,28,97,507,0.0,116,458,60,117.0,0,1,0,0,0,0,0,0,250,250,0,,,,,
53204,1558278132869,0.8,0.01,0.6,0,-1,-0,0,0,70,28,97,507,0.0,115,458,60,117.0,0,1,0,0,0,0,0,0,250,250,0,,,,,
53224,1558278132889,0.8,0.01,0.6,0,-1,-0,0,0,70,28,97,507,0.0,115,458,60,117.0,0,1,0,0,0,0,0,0,250,250,0,,,,,
53244,1558278132909,0.8,0.01,0.6,0,-1,-0,0,0,70,28,97,507,0.0,116,458,60,117.0,0,1,0,0,0,0,0,0,250,250,0,45.699841,4.910074,0.0,679.2,0.0
53264,1558278132929,0.8,0.01,0.6,0,-1,-0,0,0,70,28,97,507,0.0,116,458,60,117.0,0,1,0,0,0,0,0,0,250,250,0,,,,,
53284,1558278132949,0.8,0.02,0.6,0,-1,0,0,0,70,28,97,507,0.0,116,458,60,117.0,0,1,0,0,0,0,0,0,250,250,0,,,,,
53304,1558278132969,0.8,0.02,0.6,0,-1,-0,0,0,70,28,97,507,0.0,116,458,60,117.0,0,1,0,0,0,0,0,0,250,250,0,,,,,
53324,1558278132989,0.8,0.02,0.6,0,-1,-0,0,0,70,28,97,507,0.0,116,458,60,117.0,0,1,0,0,0,0,0,0,250,250,0,,,,,
53344,1558278133003,0.8,0.01,0.6,0,-1,-0,0,0,70,28,97,507,0.0,116,458,60,117.0,0,1,0,0,0,0,0,0,250,250,0,45.699841,4.910074,0.0,679.2,0.0
53364,1558278133023,0.8,0.02,0.6,0,-1,-0,0,0,70,28,97,507,0.0,116,458,60,117.0,0,1,0,0,0,0,0,0,250,250,0,,,,,
53384,1558278133043,0.8,0.02,0.6,0,-1,-0,0,0,70,28,97,507,0.0,116,458,60,117.0,0,1,0,0,0,0,0,0,250,250,0,,,,,
53404,1558278133063,0.8,0.02,0.6,0,-1,-0,0,0,70,28,97,507,0.0,116,458,60,117.0,0,1,0,0,0,0,0,0,250,250,0,,,,,
53424,1558278133083,0.8,0.02,0.6,0,-1,-0,0,0,70,28,97,507,0.0,116,458,60,117.0,0,1,0,0,0,0,0,0,250,250,0,,,,,
53444,1558278133108,0.8,0.02,0.6,0,-1,-0,0,0,70,28,97,507,0.0,116,458,60,117.0,0,1,0,0,0,0,0,0,250,250,0,45.699841,4.910074,0.0,679.2,0.0
53464,1558278133128,0.8,0.02,0.6,0,-1,-0,0,0,70,28,97,507,0.0,116,457,60,117.0,0,1,0,0,0,0,0,0,250,250,0,,,,,
53484,1558278133148,0.8,0.02,0.6,0,-1,-0,0,0,70,28,97,507,0.0,116,458,60,117.0,0,1,0,0,0,0,0,0,250,250,0,,,,,
53504,1558278133168,0.8,0.01,0.6,0,-1,-0,0,0,70,28,97,507,0.0,116,458,60,117.0,0,1,0,0,0,0,0,0,250,250,0,,,,,
53524,1558278133188,0.8,0.02,0.6,0,-1,-0,0,0,70,28,97,507,0.0,116,457,60,117.0,0,1,0,0,0,0,0,0,250,250,0,,,,,
53544,1558278133208,0.8,0.02,0.6,0,-1,-0,0,0,70,28,97,507,0.0,116,458,60,117.0,0,1,0,0,0,0,0,0,250,250,0,45.699841,4.910074,0.0,679.2,0.0
53564,1558278133228,0.8,0.02,0.6,0,-1,-0,0,0,70,28,97,507,0.0,116,458,60,117.0,0,1,0,0,0,0,0,0,250,250,0,,,,,
53584,1558278133248,0.8,0.02,0.6,0,-1,-0,0,0,70,28,97,507,0.0,116,458,60,117.0,0,1,0,0,0,0,0,0,250,250,0,,,,,
53604,1558278133268,0.8,0.02,0.6,0,-1,-0,0,0,70,28,97,507,0.0,116,458,60,117.0,0,1,0,0,0,0,0,0,250,250,0,,,,,
53624,1558278133288,0.8,0.02,0.6,0,-1,-0,0,0,70,28,97,507,0.0,116,458,60,117.0,0,1,0,0,0,0,0,0,250,250,0,,,,,
53644,1558278133308,0.8,0.02,0.6,0,-1,-0,0,0,70,28,97,507,0.0,116,458,60,117.0,0,1,0,0,0,0,0,0,250,250,0,45.699841,4.910074,0.0,679.2,0.0
53664,1558278133328,0.8,0.02,0.6,0,-1,-0,0,0,70,28,97,507,0.0,116,458,60,117.0,0,1,0,0,0,0,0,0,250,250,0,,,,,
53684,1558278133348,0.8,0.02,0.59,0,-1,-0,0,0,70,28,97,507,0.0,116,458,60,117.0,0,1,0,0,0,0,0,0,250,250,0,,,,,
53704,1558278133368,0.8,0.02,0.6,0,-1,-0,0,0,70,28,97,507,0.0,116,458,60,117.0,0,1,0,0,0,0,0,0,250,250,0,,,,,
53724,1558278133388,0.8,0.02,0.6,0,-1,-0,0,0,70,28,97,507,0.0,116,458,60,117.0,0,1,0,0,0,0,0,0,250,250,0,,,,,
53744,1558278133408,0.8,0.02,0.59,0,-1,-0,0,0,70,28,97,507,0.0,116,458,60,117.0,0,1,0,0,0,0,0,0,250,250,0,45.699841,4.910074,0.0,679.2,0.0
53764,1558278133428,0.8,0.02,0.59,0,-1,-0,0,0,70,28,97,507,0.0,116,458,60,117.0,0,1,0,0,0,0,0,0,250,250,0,,,,,
53784,1558278133448,0.8,0.02,0.6,0,-1,-0,0,0,70,28,97,507,0.0,116,458,60,117.0,0,1,0,0,0,0,0,0,250,250,0,,,,,
53804,1558278133468,0.8,0.02,0.6,0,-1,-0,0,0,70,28,97,507,0.0,116,458,60,117.0,0,1,0,0,0,0,0,0,250,250,0,,,,,
53824,1558278133488,0.8,0.02,0.6,0,-1,-0,0,0,69,28,97,507,0.0,116,458,60,117.0,0,1,0,0,0,0,0,0,250,250,0,,,,,
53844,1558278133508,0.8,0.02,0.6,0,-1,-0,0,0,69,28,97,507,0.0,116,458,60,117.0,0,1,0,0,0,0,0,0,250,250,0,45.699841,4.910074,0.0,679.2,0.0
53864,1558278133528,0.8,0.02,0.6,0,-1,-0,0,0,69,28,97,507,0.0,116,458,60,117.0,0,1,0,0,0,0,0,0,250,250,0,,,,,
53884,1558278133548,0.8,0.02,0.6,0,-1,-0,0,0,69,28,97,507,0.0,116,458,60,117.0,0,1,0,0,0,0,0,0,250,250,0,,,,,
53904,1558278133568,0.8,0.02,0.6,0,-1,-0,0,0,69,28,97,507,0.0,116,458,60,117.0,0,1,0,0,0,0,0,0,250,250,0,,,,,
53924,1558278133588,0.8,0.02,0.59,0,-1,-0,0,0,69,28,97,507,0.0,116,458,60,117.0,0,1,0,0,0,0,0,0,250,250,0,,,,,
53944,1558278133609,0.8,0.02,0.59,0,-1,-0,0,0,69,28,97,507,0.0,116,458,60,117.0,0,1,0,0,0,0,0,0,250,250,0,45.699841,4.910074,0.0,679.2,0.0
53964,1558278133629,0.8,0.02,0.59,0,-1,-0,0,0,69,28,97,507,0.0,116,458,60,117.0,0,1,0,0,0,0,0,0,250,250,0,,,,,
53984,1558278133649,0.8,0.02,0.6,0,-1,-0,0,0,69,28,97,507,0.0,116,458,60,117.0,0,1,0,0,0,0,0,0,250,250,0,,,,,
54004,1558278133669,0.8,0.02,0.59,0,-1,-0,0,0,69,28,97,507,0.0,116,458,60,117.0,0,1,0,0,0,0,0,0,250,250,0,,,,,
54024,1558278133689,0.8,0.02,0.59,0,-1,-0,0,0,69,28,97,507,0.0,115,458,60,117.0,0,1,0,0,0,0,0,0,250,250,0,,,,,
54044,1558278133708,0.8,0.02,0.6,0,-1,-0,0,0,69,28,97,507,0.0,116,458,60,117.0,0,1,0,0,0,0,0,0,250,250,0,45.699841,4.910074,0.0,679.2,0.0
54064,1558278133728,0.8,0.02,0.59,0,-1,-0,0,0,69,28,97,507,0.0,116,458,60,117.0,0,1,0,0,0,0,0,0,250,250,0,,,,,
54084,1558278133748,0.8,0.02,0.59,0,-1,-0,0,0,69,28,97,507,0.0,116,458,60,117.0,0,1,0,0,0,0,0,0,250,250,0,,,,,
54104,1558278133768,0.8,0.01,0.59,0,-1,-0,0,0,69,28,97,507,0.0,116,458,60,117.0,0,1,0,0,0,0,0,0,250,250,0,,,,,
54124,1558278133788,0.8,0.02,0.6,0,-1,-0,0,0,69,28,97,507,0.0,116,458,60,117.0,0,1,0,0,0,0,0,0,250,250,0,,,,,
54144,1558278133808,0.8,0.02,0.6,0,-1,-0,0,0,69,28,97,507,0.0,116,458,60,117.0,0,1,0,0,0,0,0,0,250,250,0,45.699841,4.910074,0.0,679.2,0.0
54164,1558278133828,0.8,0.02,0.6,0,-1,-0,0,0,69,28,97,507,0.0,116,458,60,117.0,0,1,0,0,0,0,0,0,250,250,0,,,,,
54184,1558278133848,0.8,0.02,0.6,0,-1,-0,0,0,69,28,97,507,0.0,116,458,60,117.0,0,1,0,0,0,0,0,0,250,250,0,,,,,
54204,1558278133868,0.8,0.02,0.6,0,-1,-0,0,0,69,28,97,507,0.0,116,458,60,117.0,0,1,0,0,0,0,0,0,250,250,0,,,,,
54224,1558278133888,0.8,0.02,0.6,0,-1,-0,0,0,69,28,97,507,0.0,116,458,60,117.0,0,1,0,0,0,0,0,0,250,250,0,,,,,
54244,1558278133908,0.8,0.02,0.6,0,-1,-0,0,0,69,28,97,507,0.0,116,458,60,117.0,0,1,0,0,0,0,0,0,250,250,0,45.699841,4.910074,0.0,679.2,0.0
54264,1558278133928,0.8,0.02,0.6,0,-1,-0,0,0,69,28,97,507,0.0,116,458,60,117.0,0,1,0,0,0,0,0,0,250,250,0,,,,,
54284,1558278133948,0.8,0.01,0.59,0,-1,-0,0,0,69,28,97,507,0.0,116,458,60,117.0,0,1,0,0,0,0,0,0,250,250,0,,,,,
54304,1558278133968,0.8,0.01,0.6,0,-1,-0,0,0,69,28,97,507,0.0,116,458,60,117.0,0,1,0,0,0,0,0,0,250,250,0,,,,,
54324,1558278133988,0.8,0.02,0.59,0,-1,-0,0,0,69,28,97,507,0.0,116,458,60,117.0,0,1,0,0,0,0,0,0,250,250,0,,,,,
54344,1558278134002,0.8,0.01,0.59,0,-1,-0,0,0,69,28,97,507,0.0,116,458,60,117.0,0,1,0,0,0,0,0,0,250,250,0,45.699841,4.910074,0.0,679.2,0.0
54364,1558278134022,0.8,0.01,0.6,0,-1,-0,0,0,69,28,97,507,0.0,116,458,60,117.0,0,1,0,0,0,0,0,0,250,250,0,,,,,
54384,1558278134042,0.8,0.01,0.6,0,-1,-0,0,0,69,28,97,507,0.0,116,458,60,117.0,0,1,0,0,0,0,0,0,250,250,0,,,,,
54404,1558278134062,0.8,0.02,0.6,0,-1,-0,0,0,69,28,97,507,0.0,116,458,60,117.0,0,1,0,0,0,0,0,0,250,250,0,,,,,
54424,1558278134082,0.8,0.02,0.6,0,-1,-0,0,0,69,28,97,507,0.0,116,458,60,117.0,0,1,0,0,0,0,0,0,250,250,0,,,,,
54444,1558278134107,0.8,0.01,0.6,0,-1,-0,0,0,69,28,97,507,0.0,116,458,60,117.0,0,1,0,0,0,0,0,0,250,250,0,45.699841,4.910074,0.0,679.2,0.0
54464,1558278134127,0.8,0.01,0.59,0,-1,-0,0,0,69,28,97,507,0.0,116,458,60,117.0,0,1,0,0,0,0,0,0,250,250,0,,,,,
54484,1558278134147,0.8,0.02,0.59,0,-1,-0,0,0,69,28,97,507,0.0,116,458,60,117.0,0,1,0,0,0,0,0,0,250,250,0,,,,,
54504,1558278134167,0.8,0.02,0.6,0,-1,-0,0,0,69,28,97,507,0.0,116,458,60,117.0,0,1,0,0,0,0,0,0,250,250,0,,,,,
54524,1558278134187,0.8,0.02,0.59,0,-1,-0,0,0,69,28,97,507,0.0,116,458,60,117.0,0,1,0,0,0,0,0,0,250,250,0,,,,,
54544,1558278134207,0.8,0.02,0.59,0,-1,-0,0,0,69,28,97,507,0.0,116,458,60,117.0,0,1,0,0,0,0,0,0,250,250,0,45.699841,4.910074,0.0,679.2,0.0
54564,1558278134227,0.8,0.02,0.59,0,-1,-0,0,0,69,28,97,507,0.0,116,458,60,117.0,0,1,0,0,0,0,0,0,250,250,0,,,,,
54584,1558278134247,0.8,0.02,0.6,0,-1,-0,0,0,69,28,97,507,0.0,116,458,60,117.0,0,1,0,0,0,0,0,0,250,250,0,,,,,
54604,1558278134267,0.8,0.02,0.59,0,-1,-0,0,0,69,28,97,507,0.0,116,458,60,117.0,0,1,0,0,0,0,0,0,250,250,0,,,,,
54624,1558278134287,0.8,0.02,0.59,0,-1,-0,0,0,69,28,97,507,0.0,115,458,60,117.0,0,1,0,0,0,0,0,0,250,250,0,,,,,
54644,1558278134309,0.8,0.02,0.59,0,-1,-0,0,0,69,28,97,507,0.0,115,458,60,117.0,0,1,0,0,0,0,0,0,250,250,0,45.699841,4.910074,0.0,679.2,0.0
54664,1558278134329,0.8,0.02,0.6,0,-1,-0,0,0,69,28,97,507,0.0,116,458,60,117.0,0,1,0,0,0,0,0,0,250,250,0,,,,,
54684,1558278134349,0.8,0.01,0.6,0,-1,-0,0,0,69,28,97,507,0.0,115,458,60,117.0,0,1,0,0,0,0,0,0,250,250,0,,,,,
54704,1558278134369,0.8,0.01,0.6,0,-1,-0,0,0,69,28,97,507,0.0,116,458,60,117.0,0,1,0,0,0,0,0,0,250,250,0,,,,,
54724,1558278134389,0.8,0.01,0.6,0,-1,-0,0,0,69,28,97,507,0.0,116,458,60,117.0,0,1,0,0,0,0,0,0,250,250,0,,,,,
54744,1558278134409,0.8,0.02,0.6,0,-1,-0,0,0,69,28,97,507,0.0,115,458,60,117.0,0,1,0,0,0,0,0,0,250,250,0,45.699841,4.910074,0.0,679.2,0.0
54764,1558278134429,0.8,0.02,0.6,0,-1,-0,0,0,69,28,97,507,0.0,116,458,60,117.0,0,1,0,0,0,0,0,0,250,250,0,,,,,
54784,1558278134449,0.8,0.02,0.6,0,-1,-0,0,0,69,28,97,507,0.0,116,458,60,117.0,0,1,0,0,0,0,0,0,250,250,0,,,,,
54804,1558278134469,0.8,0.01,0.6,0,-1,-0,0,0,69,28,97,507,0.0,116,458,60,117.0,0,1,0,0,0,0,0,0,250,250,0,,,,,
54824,1558278134489,0.8,0.01,0.6,0,-1,-0,0,0,69,28,97,507,0.0,116,458,60,117.0,0,1,0,0,0,0,0,0,250,250,0,,,,,
54844,1558278134507,0.8,0.02,0.6,0,-1,-0,0,0,69,28,97,507,0.0,116,458,60,117.0,0,1,0,0,0,0,0,0,250,250,0,45.699841,4.910074,0.0,679.2,0.0
54864,1558278134527,0.8,0.01,0.6,0,-1,-0,0,0,69,28,97,507,0.0,116,458,60,117.0,0,1,0,0,0,0,0,0,250,250,0,,,,,
54884,1558278134547,0.8,0.01,0.6,0,-1,-0,0,0,69,28,97,507,0.0,116,458,60,117.0,0,1,0,0,0,0,0,0,250,250,0,,,,,
54904,1558278134567,0.8,0.01,0.6,0,-1,-0,0,0,69,28,97,507,0.0,116,458,60,117.0,0,1,0,0,0,0,0,0,250,250,0,,,,,
54924,1558278134587,0.8,0.02,0.6,0,-1,-0,0,0,69,28,97,507,0.0,116,458,60,117.0,0,1,0,0,0,0,0,0,250,250,0,,,,,
54944,1558278134609,0.8,0.02,0.6,0,-1,-0,0,0,69,28,97,507,0.0,116,458,60,117.0,0,1,0,0,0,0,0,0,250,250,0,45.699841,4.910074,0.0,679.2,0.0
54964,1558278134629,0.8,0.01,0.6,0,-1,-0,0,0,69,28,97,507,0.0,116,458,60,117.0,0,1,0,0,0,0,0,0,250,250,0,,,,,
54984,1558278134649,0.8,0.01,0.6,0,-1,-0,0,0,69,28,97,507,0.0,116,458,60,117.0,0,1,0,0,0,0,0,0,250,250,0,,,,,
55004,1558278134669,0.8,0.01,0.6,0,-1,-0,0,0,69,28,97,507,0.0,116,458,60,117.0,0,1,0,0,0,0,0,0,250,250,0,,,,,
55024,1558278134689,0.8,0.02,0.6,0,-1,-0,0,0,69,28,97,507,0.0,116,458,60,117.0,0,1,0,0,0,0,0,0,250,250,0,,,,,
55044,1558278134709,0.8,0.02,0.6,0,-1,-0,0,0,69,28,97,507,0.0,116,458,60,117.0,0,1,0,0,0,0,0,0,250,250,0,45.699841,4.910074,0.0,679.2,0.0
55064,1558278134729,0.8,0.02,0.6,0,-1,-0,0,0,69,28,97,507,0.0,116,458,60,117.0,0,1,0,0,0,0,0,0,250,250,0,,,,,
55084,1558278134749,0.8,0.02,0.6,0,-1,-0,0,0,69,28,97,507,0.0,116,458,60,117.0,0,1,0,0,0,0,0,0,250,250,0,,,,,
55104,1558278134769,0.8,0.02,0.6,0,-1,-0,0,0,69,28,97,507,0.0,116,458,60,117.0,0,1,0,0,0,0,0,0,250,250,0,,,,,
55124,1558278134789,0.8,0.02,0.6,0,-1,-0,0,0,69,28,97,507,0.0,116,458,60,117.0,0,1,0,0,0,0,0,0,250,250,0,,,,,
55144,1558278134809,0.8,0.02,0.6,0,-1,-0,0,0,69,28,97,507,0.0,116,458,60,117.0,0,1,0,0,0,0,0,0,250,250,0,45.699841,4.910074,0.0,679.2,0.0
55164,1558278134829,0.8,0.01,0.6,0,-1,-0,0,0,69,28,97,507,0.0,116,458,60,117.0,0,1,0,0,0,0,0,0,250,250,0,,,,,
55184,1558278134849,0.8,0.02,0.59,0,-1,-0,0,0,69,28,97,507,0.0,116,458,60,117.0,0,1,0,0,0,0,0,0,250,250,0,,,,,
55204,1558278134869,0.8,0.02,0.59,0,-1,-0,0,0,69,28,97,507,0.0,116,458,60,117.0,0,1,0,0,0,0,0,0,250,250,0,,,,,
55224,1558278134889,0.8,0.02,0.6,0,-1,-0,0,0,69,28,97,506,0.0,116,458,60,117.0,0,1,0,0,0,0,0,0,250,250,0,,,,,
55244,1558278134909,0.8,0.02,0.6,0,-1,-0,0,0,69,28,97,505,0.0,115,458,60,118.0,0,1,0,0,0,0,0,0,250,250,0,45.699841,4.910074,0.0,679.2,0.0
55264,1558278134929,0.8,0.02,0.6,0,-1,-0,0,0,69,28,97,505,0.0,116,458,60,118.0,0,1,0,0,0,0,0,0,250,250,0,,,,,
55284,1558278134949,0.8,0.02,0.6,0,-1,-0,0,0,69,28,97,504,0.0,116,458,60,117.0,0,1,0,0,0,0,0,0,250,250,0,,,,,
55304,1558278134969,0.8,0.02,0.6,0,-1,-0,0,0,69,28,97,503,0.0,116,458,60,117.0,0,1,0,0,0,0,0,0,250,250,0,,,,,
55324,1558278134989,0.8,0.02,0.6,0,-1,-0,0,0,69,28,97,503,0.0,115,458,60,117.0,0,1,0,0,0,0,0,0,250,250,0,,,,,
55344,1558278135003,0.8,0.02,0.6,0,-1,-0,0,0,69,28,97,506,0.0,116,458,60,117.0,0,1,0,0,0,0,0,0,250,250,0,45.699841,4.910074,0.0,679.2,0.0
55364,1558278135023,0.8,0.02,0.6,0,-1,-0,0,0,69,28,97,520,0.0,116,458,60,117.0,0,1,0,0,0,0,0,0,250,250,0,,,,,
55384,1558278135043,0.8,0.02,0.6,0,-1,-0,0,0,69,28,97,534,0.0,116,458,60,117.0,0,1,0,0,0,0,0,0,250,250,0,,,,,
55404,1558278135063,0.8,0.02,0.6,0,-1,-0,0,0,69,28,97,548,0.0,116,458,60,117.0,0,1,0,0,0,0,0,0,250,250,0,,,,,
55424,1558278135083,0.8,0.02,0.6,0,-1,-0,0,0,69,28,97,561,0.0,116,458,60,117.0,0,1,0,0,0,0,0,0,250,250,0,,,,,
55444,1558278135108,0.8,0.02,0.6,0,-1,-0,0,0,69,28,97,575,0.0,116,457,60,118.0,0,1,0,0,0,0,0,0,250,250,0,45.699841,4.910074,0.0,679.2,0.0
55464,1558278135128,0.8,0.02,0.6,0,-1,-0,0,0,69,28,97,589,0.0,115,458,60,117.0,0,1,0,0,0,0,0,0,250,250,0,,,,,
55484,1558278135148,0.8,0.02,0.6,0,-1,-0,0,0,69,28,97,590,0.0,116,458,60,117.0,0,1,0,0,0,0,0,0,250,250,0,,,,,
55504,1558278135168,0.8,0.02,0.6,0,-1,-0,0,0,69,28,97,590,0.0,116,458,60,117.0,0,1,0,0,0,0,0,0,250,250,0,,,,,
55524,1558278135188,0.8,0.02,0.6,0,-1,-0,0,0,69,28,97,590,0.0,116,458,60,117.0,0,1,0,0,0,0,0,0,250,250,0,,,,,
55544,1558278135209,0.8,0.02,0.6,0,-1,-0,0,0,69,28,97,590,0.0,116,458,60,117.0,0,1,0,0,0,0,0,0,250,250,0,45.699841,4.910074,0.0,679.2,0.0
55564,1558278135229,0.8,0.02,0.6,0,-1,-0,0,0,69,28,97,590,0.0,116,458,60,117.0,0,1,0,0,0,0,0,0,250,250,0,,,,,
55584,1558278135249,0.8,0.02,0.6,0,-1,-0,0,0,69,28,97,589,0.0,116,458,60,118.0,0,1,0,0,0,0,0,0,250,250,0,,,,,
55604,1558278135269,0.8,0.02,0.6,0,-1,-0,0,0,69,28,97,589,0.0,116,458,60,117.0,0,1,0,0,0,0,0,0,250,250,0,,,,,
55624,1558278135289,0.8,0.02,0.6,0,-1,-0,0,0,69,28,97,589,0.0,115,458,60,117.0,0,1,0,0,0,0,0,0,250,250,0,,,,,
55644,1558278135308,0.8,0.02,0.6,0,-1,-0,0,0,69,28,97,589,0.0,115,458,60,117.0,0,1,0,0,0,0,0,0,250,250,0,45.699841,4.910074,0.0,679.2,0.0
55664,1558278135328,0.8,0.02,0.6,0,-1,-0,0,0,69,28,97,589,0.0,116,458,60,117.0,0,1,0,0,0,0,0,0,250,250,0,,,,,
55684,1558278135348,0.8,0.02,0.6,0,-1,-0,0,0,69,28,97,590,0.0,116,458,60,117.0,0,1,0,0,0,0,0,0,250,250,0,,,,,
55704,1558278135368,0.8,0.02,0.6,0,-1,-0,0,0,69,28,97,590,0.0,115,458,60,117.0,0,1,0,0,0,0,0,0,250,250,0,,,,,
55724,1558278135388,0.8,0.02,0.6,0,-1,-0,0,0,69,28,97,590,0.0,116,458,60,117.0,0,1,0,0,0,0,0,0,250,250,0,,,,,
55744,1558278135408,0.8,0.02,0.6,0,-1,-0,0,0,69,28,97,590,0.0,116,458,60,117.0,0,1,0,0,0,0,0,0,250,250,0,45.699841,4.910074,0.0,679.2,0.0
55764,1558278135428,0.8,0.02,0.6,0,-1,-0,0,0,69,28,97,590,0.0,116,458,60,118.0,0,1,0,0,0,0,0,0,250,250,0,,,,,
55784,1558278135448,0.8,0.02,0.6,0,-1,-0,0,0,69,28,97,590,0.0,116,457,60,117.0,0,1,0,0,0,0,0,0,250,250,0,,,,,
55804,1558278135468,0.8,0.02,0.6,0,-1,-0,0,0,69,28,97,590,0.0,115,454,60,119.0,0,1,0,0,0,0,0,0,250,250,0,,,,,
55824,1558278135488,0.8,0.01,0.6,0,-1,-0,0,0,69,28,97,590,0.0,116,437,60,119.0,0,1,0,0,0,0,0,0,250,250,0,,,,,
55844,1558278135508,0.8,0.01,0.6,0,-1,-0,0,0,69,28,97,590,0.0,116,392,60,119.0,0,1,0,0,0,0,0,0,250,250,0,45.699841,4.910074,0.0,679.2,0.0
55864,1558278135528,0.8,0.02,0.6,0,-1,-0,0,0,69,28,97,590,0.0,115,374,60,119.0,0,1,0,0,0,0,0,0,250,250,0,,,,,
55884,1558278135548,0.8,0.02,0.6,0,-1,-0,0,0,69,28,97,590,0.0,115,363,60,119.0,0,1,0,0,0,0,0,0,250,250,0,,,,,
55904,1558278135568,0.8,0.02,0.6,0,-1,-0,0,0,69,28,97,590,0.0,115,355,60,119.0,0,1,0,0,0,0,0,0,250,250,0,,,,,
55924,1558278135588,0.8,0.02,0.6,0,-1,-0,0,0,69,28,97,590,0.0,115,347,60,119.0,0,1,0,0,0,0,0,0,250,250,0,,,,,
55944,1558278135608,0.8,0.02,0.6,0,-1,-0,0,0,69,28,97,590,0.0,116,341,60,119.0,0,1,0,0,0,0,0,0,250,250,0,45.699841,4.910074,0.0,679.2,0.0
55964,1558278135628,0.8,0.02,0.6,0,-1,-0,0,0,69,28,97,590,0.0,116,335,60,119.0,0,1,0,0,0,0,0,0,250,250,0,,,,,
55984,1558278135648,0.8,0.02,0.6,0,-1,-0,0,0,69,28,97,591,0.0,116,330,60,119.0,0,1,0,0,0,0,0,0,250,250,0,,,,,
56004,1558278135668,0.8,0.02,0.6,0,-1,-0,0,0,69,28,97,591,0.0,116,325,60,119.0,0,1,0,0,0,0,0,0,250,250,0,,,,,
56024,1558278135688,0.8,0.02,0.6,0,-1,-0,0,0,69,28,97,591,0.0,115,319,60,119.0,0,1,0,0,0,0,0,0,250,250,0,,,,,
56044,1558278135708,0.8,0.02,0.6,0,-1,-0,0,0,69,28,97,591,0.0,115,316,60,119.0,0,1,0,0,0,0,0,0,250,250,0,45.699841,4.910074,0.0,679.2,0.0
56064,1558278135728,0.8,0.02,0.6,0,-1,-0,0,0,69,28,97,591,0.0,116,312,60,119.0,0,1,0,0,0,0,0,0,250,250,0,,,,,
56084,1558278135748,0.8,0.02,0.6,0,-1,-0,0,0,69,28,97,591,0.0,116,308,60,119.0,0,1,0,0,0,0,0,0,250,250,0,,,,,
56104,1558278135768,0.8,0.02,0.6,0,-1,-0,0,0,69,28,97,591,0.0,115,306,60,119.0,0,1,0,0,0,0,0,0,250,250,0,,,,,
56124,1558278135788,0.8,0.02,0.6,0,-1,-0,0,0,69,28,97,591,0.0,116,301,60,119.0,0,1,0,0,0,0,0,0,250,250,0,,,,,
56144,1558278135808,0.8,0.02,0.6,0,-1,-0,0,0,69,28,97,592,0.0,115,297,60,119.0,0,1,0,0,0,0,0,0,250,250,0,45.699841,4.910074,0.0,679.2,0.0
56164,1558278135828,0.8,0.01,0.6,0,-1,-0,0,0,69,28,97,592,0.0,116,295,60,119.0,0,1,0,0,0,0,0,0,250,250,0,,,,,
56184,1558278135848,0.8,0.02,0.6,0,-1,-0,0,0,69,28,97,592,0.0,115,292,60,119.0,0,1,0,0,0,0,0,0,250,250,0,,,,,
56204,1558278135868,0.8,0.02,0.6,0,-1,-0,0,0,69,28,97,592,0.0,115,290,60,119.0,0,1,0,0,0,0,0,0,250,250,0,,,,,
56224,1558278135888,0.8,0.02,0.6,0,-1,-0,0,0,69,28,97,592,0.0,115,287,60,119.0,0,1,0,0,0,0,0,0,250,250,0,,,,,
56244,1558278135908,0.8,0.02,0.6,0,-1,-0,0,0,69,28,97,592,0.0,115,284,60,119.0,0,1,0,0,0,0,0,0,250,250,0,45.699841,4.910074,0.0,679.2,0.0
56264,1558278135928,0.8,0.02,0.6,0,-1,-0,0,0,69,28,97,592,0.0,116,281,60,119.0,0,1,0,0,0,0,0,0,250,250,0,,,,,
56284,1558278135948,0.8,0.02,0.6,0,-1,-0,0,0,69,28,97,592,0.0,116,281,60,120.0,0,1,0,0,0,0,0,0,250,250,0,,,,,
56304,1558278135968,0.8,0.02,0.6,0,-1,-0,0,0,69,28,97,592,0.0,116,278,60,120.0,0,1,0,0,0,0,0,0,250,250,0,,,,,
56324,1558278135988,0.8,0.02,0.6,0,-1,-0,0,0,69,28,97,592,0.0,115,276,60,119.0,0,1,0,0,0,0,0,0,250,250,0,,,,,
56344,1558278136000,0.8,0.02,0.6,0,-1,-0,0,0,69,28,97,592,0.0,116,273,60,119.0,0,1,0,0,0,0,0,0,250,250,0,45.699841,4.910074,0.0,679.2,0.0
56364,1558278136020,0.8,0.02,0.6,0,-1,-0,0,0,69,28,97,593,0.0,116,270,60,119.0,0,1,0,0,0,0,0,0,250,250,0,,,,,
56384,1558278136040,0.8,0.02,0.6,0,-1,-0,0,0,69,28,97,593,0.0,116,270,60,119.0,0,1,0,0,0,0,0,0,250,250,0,,,,,
56404,1558278136060,0.8,0.02,0.6,0,-1,-0,0,0,69,28,97,593,0.0,115,267,60,119.0,0,1,0,0,0,0,0,0,250,250,0,,,,,
56424,1558278136080,0.8,0.02,0.6,0,-1,-0,0,0,69,28,97,593,0.0,115,265,60,119.0,0,1,0,0,0,0,0,0,250,250,0,,,,,
56444,1558278136109,0.8,0.02,0.6,0,-1,-0,0,0,69,28,97,593,0.0,115,265,60,119.0,0,1,0,0,0,0,0,0,250,250,0,45.699841,4.910074,0.0,679.2,0.0
56464,1558278136129,0.8,0.01,0.6,0,-1,-0,0,0,69,28,97,593,0.0,115,262,60,120.0,0,1,0,0,0,0,0,0,250,250,0,,,,,
56484,1558278136149,0.8,0.01,0.6,0,-1,-0,0,0,69,28,97,593,0.0,115,262,60,119.0,0,1,0,0,0,0,0,0,250,250,0,,,,,
56504,1558278136169,0.8,0.01,0.6,0,-1,-0,0,0,69,28,97,593,0.0,115,260,60,119.0,0,1,0,0,0,0,0,0,250,250,0,,,,,
56524,1558278136189,0.8,0.01,0.6,0,-1,-0,0,0,69,28,97,594,0.0,115,260,60,119.0,0,1,0,0,0,0,0,0,250,250,0,,,,,
56544,1558278136209,0.8,0.01,0.6,0,-1,-0,0,0,69,28,97,594,0.0,116,257,60,119.0,0,1,0,0,0,0,0,0,250,250,0,45.699841,4.910074,0.0,679.2,0.0
56564,1558278136229,0.8,0.01,0.6,0,-1,-0,0,0,69,28,97,594,0.0,116,255,60,119.0,0,1,0,0,0,0,0,0,250,250,0,,,,,
56584,1558278136249,0.8,0.01,0.6,0,-1,-0,0,0,69,28,97,594,0.0,116,254,60,119.0,0,1,0,0,0,0,0,0,250,250,0,,,,,
56604,1558278136269,0.8,0.01,0.6,0,-1,-0,0,0,69,28,97,594,0.0,115,253,60,120.0,0,1,0,0,0,0,0,0,250,250,0,,,,,
56624,1558278136289,0.8,0.01,0.6,0,-1,-0,0,0,69,28,97,594,0.0,115,251,60,120.0,0,1,0,0,0,0,0,0,250,250,0,,,,,
56644,1558278136309,0.8,0.01,0.6,0,-1,-0,0,0,69,28,97,594,0.0,116,251,60,120.0,0,1,0,0,0,0,0,0,250,250,0,45.699841,4.910074,0.0,679.2,0.0
56664,1558278136329,0.8,0.01,0.6,0,-1,-0,0,0,69,28,97,594,0.0,116,248,60,120.0,0,1,0,0,0,0,0,0,250,250,0,,,,,
56684,1558278136349,0.8,0.01,0.6,0,-1,-0,0,0,69,28,97,595,0.0,116,248,60,120.0,0,1,0,0,0,0,0,0,250,250,0,,,,,
56704,1558278136369,0.8,0.01,0.6,0,-1,-0,0,0,69,28,97,595,0.0,116,246,60,119.0,0,1,0,0,0,0,0,0,250,250,0,,,,,
56724,1558278136389,0.8,0.01,0.6,0,-1,-0,0,0,69,28,97,595,0.0,116,246,60,119.0,0,1,0,0,0,0,0,0,250,250,0,,,,,
56744,1558278136409,0.8,0.01,0.59,0,-1,-0,0,0,69,28,97,595,0.0,115,243,60,119.0,0,1,0,0,0,0,0,0,250,250,0,45.699841,4.910074,0.0,679.2,0.0
56764,1558278136429,0.8,0.01,0.59,0,-1,-0,0,0,69,28,97,595,0.0,115,243,60,120.0,0,1,0,0,0,0,0,0,250,250,0,,,,,
56784,1558278136449,0.8,0.01,0.59,0,-1,-0,0,0,69,28,97,595,0.0,115,243,60,120.0,0,1,0,0,0,0,0,0,250,250,0,,,,,
56804,1558278136469,0.8,0.02,0.6,0,-1,-0,0,0,69,28,97,595,0.0,116,241,60,120.0,0,1,0,0,0,0,0,0,250,250,0,,,,,
56824,1558278136489,0.8,0.02,0.6,0,-1,-0,0,0,69,28,97,595,0.0,115,240,60,120.0,0,1,0,0,0,0,0,0,250,250,0,,,,,
56844,1558278136509,0.8,0.02,0.6,0,-1,-0,0,0,69,28,97,596,0.0,116,240,60,120.0,0,1,0,0,0,0,0,0,250,250,0,45.699841,4.910074,0.0,679.2,0.0
56864,1558278136529,0.8,0.01,0.6,0,-1,-0,0,0,69,28,97,596,0.0,115,238,60,119.0,0,1,0,0,0,0,0,0,250,250,0,,,,,
56884,1558278136549,0.8,0.01,0.6,0,-1,-0,0,0,69,28,97,596,0.0,116,237,60,119.0,0,1,0,0,0,0,0,0,250,250,0,,,,,
56904,1558278136569,0.8,0.01,0.6,0,-1,-0,0,0,69,28,97,596,0.0,115,237,60,119.0,0,1,0,0,0,0,0,0,250,250,0,,,,,
56924,1558278136589,0.8,0.01,0.6,0,-1,-0,0,0,69,28,97,596,0.0,115,235,60,119.0,0,1,0,0,0,0,0,0,250,250,0,,,,,
56944,1558278136609,0.8,0.01,0.6,0,-1,-0,0,0,69,28,97,596,0.0,115,235,60,120.0,0,1,0,0,0,0,0,0,250,250,0,45.699841,4.910074,0.0,679.2,0.0
56964,1558278136629,0.8,0.01,0.6,0,-1,-0,0,0,69,28,97,596,0.0,116,233,60,120.0,0,1,0,0,0,0,0,0,250,250,0,,,,,
56984,1558278136649,0.8,0.01,0.6,0,-1,-0,0,0,69,28,97,596,0.0,115,232,60,120.0,0,1,0,0,0,0,0,0,250,250,0,,,,,
57004,1558278136669,0.8,0.02,0.6,0,-1,-0,0,0,69,28,97,597,0.0,115,232,60,120.0,0,1,0,0,0,0,0,0,250,250,0,,,,,
57024,1558278136689,0.8,0.01,0.6,0,-1,-0,0,0,69,28,97,597,0.0,116,232,60,120.0,0,1,0,0,0,0,0,0,250,250,0,,,,,
57044,1558278136709,0.8,0.01,0.6,0,-1,-0,0,0,69,28,97,597,0.0,116,230,60,119.0,0,1,0,0,0,0,0,0,250,250,0,45.699841,4.910074,0.0,679.2,0.0
57064,1558278136729,0.8,0.01,0.6,0,-1,-0,0,0,69,28,97,597,0.0,116,230,60,119.0,0,1,0,0,0,0,0,0,250,250,0,,,,,
57084,1558278136749,0.8,0.01,0.6,0,-1,-0,0,0,69,28,97,597,0.0,116,230,60,119.0,0,1,0,0,0,0,0,0,250,250,0,,,,,
57104,1558278136769,0.8,0.01,0.6,0,-1,-0,0,0,69,28,97,597,0.0,116,227,60,120.0,0,1,0,0,0,0,0,0,250,250,0,,,,,
57124,1558278136789,0.8,0.01,0.6,0,-1,-0,0,0,69,28,97,597,0.0,115,227,60,120.0,0,1,0,0,0,0,0,0,250,250,0,,,,,
57144,1558278136810,0.8,0.01,0.6,0,-1,-0,0,0,69,28,97,597,0.0,116,227,60,120.0,0,1,0,0,0,0,0,0,250,250,0,45.699841,4.910074,0.0,679.2,0.0
57164,1558278136830,0.8,0.01,0.6,0,-1,-0,0,0,69,28,97,597,0.0,116,227,60,120.0,0,1,0,0,0,0,0,0,250,250,0,,,,,
57184,1558278136850,0.8,0.01,0.6,0,-1,-0,0,0,69,28,97,598,0.0,116,224,60,120.0,0,1,0,0,0,0,0,0,250,250,0,,,,,
57204,1558278136870,0.8,0.01,0.6,0,-1,-0,0,0,69,28,97,598,0.0,115,224,60,120.0,0,1,0,0,0,0,0,0,250,250,0,,,,,
57224,1558278136890,0.8,0.02,0.6,0,-1,-0,0,0,69,28,97,598,0.0,116,224,60,119.0,0,1,0,0,0,0,0,0,250,250,0,,,,,
57244,1558278136909,0.8,0.02,0.6,0,-1,-0,0,0,69,28,97,599,0.0,116,223,60,119.0,0,1,0,0,0,0,0,0,250,250,0,45.699841,4.910074,0.0,679.2,0.0
57264,1558278136929,0.8,0.02,0.6,0,-1,-0,0,0,69,28,97,599,0.0,115,221,60,119.0,0,1,0,0,0,0,0,0,250,250,0,,,,,
57284,1558278136949,0.8,0.02,0.6,0,-1,-0,0,0,69,28,97,599,0.0,115,221,60,120.0,0,1,0,0,0,0,0,0,250,250,0,,,,,
57304,1558278136969,0.8,0.02,0.6,0,-1,-0,0,0,69,28,97,599,0.0,115,221,60,120.0,0,1,0,0,0,0,0,0,250,250,0,,,,,
57324,1558278136989,0.8,0.02,0.6,0,-1,-0,0,0,69,28,97,599,0.0,116,221,60,120.0,0,1,0,0,0,0,0,0,250,250,0,,,,,
57344,1558278137003,0.8,0.02,0.6,0,-1,-0,0,0,69,28,97,599,0.0,115,219,60,120.0,0,1,0,0,0,0,0,0,250,250,0,45.699841,4.910074,0.0,679.2,0.0
57364,1558278137023,0.8,0.01,0.6,0,-1,-0,0,0,69,28,97,599,0.0,115,219,60,120.0,0,1,0,0,0,0,0,0,250,250,0,,,,,
57384,1558278137043,0.8,0.02,0.6,0,-1,-0,0,0,69,28,97,599,0.0,115,218,60,119.0,0,1,0,0,0,0,0,0,250,250,0,,,,,
57404,1558278137063,0.8,0.02,0.6,0,-1,-0,0,0,69,28,97,600,0.0,116,218,60,119.0,0,1,0,0,0,0,0,0,250,250,0,,,,,
57424,1558278137083,0.8,0.02,0.6,0,-1,-0,0,0,69,28,97,600,0.0,115,217,60,119.0,0,1,0,0,0,0,0,0,250,250,0,,,,,
57444,1558278137108,0.8,0.01,0.6,0,-1,-0,0,0,69,28,97,600,0.0,115,216,60,120.0,0,1,0,0,0,0,0,0,250,250,0,45.699841,4.910074,0.0,679.2,0.0
57464,1558278137128,0.8,0.01,0.6,0,-1,-0,0,0,69,28,97,600,0.0,115,216,60,120.0,0,1,0,0,0,0,0,0,250,250,0,,,,,
57484,1558278137148,0.8,0.01,0.6,0,-1,-0,0,0,69,28,97,600,0.0,116,216,60,113.0,0,1,0,0,0,0,0,0,250,250,0,,,,,
57504,1558278137168,0.8,0.01,0.61,0,-1,-0,0,0,69,28,97,600,0.0,116,216,60,82.0,0,1,0,0,0,0,0,0,250,250,0,,,,,
57524,1558278137188,0.8,0.01,0.62,0,-0,0,0,0,69,28,97,600,0.0,124,214,60,89.0,0,1,0,0,0,0,0,0,250,250,0,,,,,
57544,1558278137208,0.8,0.01,0.62,0,-0,0,0,0,69,28,96,601,0.0,128,213,60,93.0,0,1,0,0,0,0,0,0,250,250,0,45.699841,4.910074,0.0,679.2,0.0
57564,1558278137228,0.8,0.01,0.61,0,-0,0,0,0,69,28,96,600,0.0,126,213,60,95.0,0,1,0,0,0,0,0,0,250,250,0,,,,,
57584,1558278137248,0.81,0.01,0.61,0,0,0,0,0,69,28,97,600,0.0,125,213,60,94.0,0,1,0,0,0,0,0,0,250,250,0,,,,,
57604,1558278137268,0.81,0.01,0.61,0,0,0,0,0,69,28,97,599,0.0,126,213,60,98.0,0,1,0,0,0,0,0,0,250,250,0,,,,,
57624,1558278137288,0.8,0.01,0.61,0,0,1,0,0,69,28,97,599,0.0,126,211,60,103.0,0,1,0,0,0,0,0,0,250,250,0,,,,,
57644,1558278137308,0.81,0.01,0.6,0,0,0,0,0,69,28,96,591,0.0,126,211,60,103.0,0,1,0,0,0,0,0,0,250,250,0,45.699841,4.910074,0.0,679.2,0.0
57664,1558278137328,0.82,0.01,0.59,0,0,0,0,0,69,28,95,575,0.0,128,211,60,103.0,0,1,0,0,0,0,0,0,250,250,0,,,,,
57684,1558278137348,0.82,0.0,0.6,0,0,0,0,0,69,28,97,560,0.0,126,211,60,103.0,0,1,0,0,0,0,0,0,250,250,0,,,,,
57704,1558278137368,0.82,0.0,0.62,0,-0,1,0,0,69,28,97,545,0.0,126,211,60,105.0,0,1,0,0,0,0,0,0,250,250,0,,,,,
57724,1558278137388,0.81,0.0,0.62,0,-0,1,0,0,69,28,96,530,0.0,126,209,60,106.0,0,1,0,0,0,0,0,0,250,250,0,,,,,
57744,1558278137408,0.8,0.01,0.61,0,-0,1,0,0,69,28,95,514,0.0,126,208,60,105.0,0,1,0,0,0,0,0,0,250,250,0,45.699841,4.910074,0.0,679.2,0.0
57764,1558278137428,0.8,0.01,0.59,0,-0,0,0,0,69,28,97,503,0.0,125,208,60,105.0,0,1,0,0,0,0,0,0,250,250,0,,,,,
57784,1558278137448,0.8,0.01,0.59,0,-0,0,0,0,69,28,96,503,0.0,126,208,60,107.0,0,1,0,0,0,0,0,0,250,250,0,,,,,
57804,1558278137468,0.8,0.01,0.6,0,-0,-0,0,0,69,28,95,503,0.0,126,208,60,106.0,0,1,0,0,0,0,0,0,250,250,0,,,,,
57824,1558278137488,0.8,0.01,0.61,0,-0,-0,0,0,69,28,96,503,0.0,126,206,60,105.0,0,1,0,0,0,0,0,0,250,250,0,,,,,
57844,1558278137508,0.81,0.0,0.63,0,-0,0,0,0,69,28,97,503,0.0,125,206,60,107.0,0,1,0,0,0,0,0,0,250,250,0,45.699841,4.910074,0.0,679.2,0.0
57864,1558278137528,0.81,0.0,0.63,0,-0,0,0,0,69,28,96,503,0.0,126,205,60,108.0,0,1,0,0,0,0,0,0,250,250,0,,,,,
57884,1558278137548,0.81,0.0,0.62,0,-0,0,0,0,69,28,95,503,0.0,126,205,60,105.0,0,1,0,0,0,0,0,0,250,250,0,,,,,
57904,1558278137568,0.81,0.01,0.62,0,-1,0,0,0,69,28,97,503,0.0,125,205,60,106.0,0,1,0,0,0,0,0,0,250,250,0,,,,,
57924,1558278137588,0.81,0.01,0.62,0,-1,0,0,0,69,28,96,504,0.0,127,205,60,107.0,0,1,0,0,0,0,0,0,250,250,0,,,,,
57944,1558278137610,0.81,0.01,0.62,0,-1,-0,0,0,69,28,95,504,0.0,126,205,60,106.0,0,1,0,0,0,0,0,0,250,250,0,45.699841,4.910074,0.0,679.2,0.0
57964,1558278137630,0.8,0.01,0.62,0,-1,-1,0,0,69,28,97,504,0.0,126,203,60,105.0,0,1,0,0,0,0,0,0,250,250,0,,,,,
57984,1558278137650,0.8,0.01,0.63,0,-1,-1,0,0,69,28,97,505,0.0,127,203,60,107.0,0,1,0,0,0,0,0,0,250,250,0,,,,,
58004,1558278137670,0.81,0.01,0.63,0,-0,-1,0,0,69,28,95,505,0.0,128,202,60,108.0,0,1,0,0,0,0,0,0,250,250,0,,,,,
58024,1558278137690,0.81,0.01,0.64,0,-1,-0,126,0,69,28,96,505,0.0,126,202,60,102.0,0,1,300,334,0,0,0,0,250,250,0,,,,,
58044,1558278137708,0.8,0.01,0.63,0,-1,0,126,0,69,28,97,505,0.0,126,374,60,105.0,0,1,300,335,0,0,0,0,250,250,0,45.699841,4.910074,0.0,679.2,0.0
58064,1558278137728,0.81,0.01,0.62,0,-1,0,126,0,69,28,95,505,0.0,128,453,60,106.0,0,1,300,333,0,0,0,0,250,250,0,,,,,
58084,1558278137748,0.8,0.01,0.63,0,-0,0,469,0,69,28,95,505,0.0,127,455,60,104.0,0,1,300,333,0,0,0,0,250,250,0,,,,,
58104,1558278137768,0.81,0.01,0.62,0,-0,1,469,0,69,28,97,505,0.0,126,455,60,104.0,0,1,300,335,5,0,0,0,250,250,0,,,,,
58124,1558278137788,0.8,0.02,0.62,0,-0,1,469,0,69,28,96,505,0.0,126,455,60,106.0,0,1,300,207,5,0,0,0,250,250,0,,,,,
58144,1558278137808,0.81,0.01,0.61,0,0,1,460,0,69,28,95,505,0.0,126,456,60,104.0,0,1,300,333,5,0,0,0,250,250,0,45.699841,4.910074,0.0,679.2,0.0
58164,1558278137828,0.8,0.01,0.63,0,0,1,460,0,69,28,97,505,0.0,126,455,60,104.0,0,1,300,208,5,0,0,0,250,250,0,,,,,
58184,1558278137848,0.81,0.01,0.62,0,0,1,460,0,69,28,96,505,0.0,128,455,60,105.0,0,1,300,334,5,0,0,0,250,250,0,,,,,
58204,1558278137868,0.8,0.02,0.61,0,-0,1,465,0,69,28,95,505,0.0,126,455,60,104.0,0,1,300,206,5,0,0,0,250,250,0,,,,,
58224,1558278137888,0.8,0.02,0.6,0,-0,1,465,0,69,28,97,505,0.0,125,455,60,104.0,0,1,300,335,5,0,0,0,250,250,0,,,,,
58244,1558278137908,0.8,0.01,0.6,0,-0,1,465,0,69,28,97,505,0.0,127,456,60,105.0,0,1,300,335,5,0,0,0,250,250,0,45.699841,4.910074,0.0,679.2,0.0
58264,1558278137928,0.8,0.01,0.61,0,0,1,467,0,69,28,95,505,0.0,128,455,60,106.0,0,1,300,333,5,0,0,0,250,250,0,,,,,
58284,1558278137948,0.81,0.02,0.61,0,-0,1,467,0,69,28,96,505,0.0,126,456,60,103.0,0,1,300,207,5,0,0,0,250,250,0,,,,,
58304,1558278137968,0.8,0.02,0.6,0,-0,1,467,0,69,28,97,505,0.0,126,455,60,105.0,0,1,300,335,5,0,0,0,250,250,0,,,,,
58324,1558278137988,0.81,0.02,0.58,0,-1,1,467,0,69,28,95,505,0.0,126,455,60,106.0,0,1,300,206,5,0,0,0,250,250,0,,,,,
58344,1558278138004,0.79,0.02,0.6,0,-1,1,467,0,69,28,96,505,0.0,127,456,60,104.0,0,1,300,334,5,0,0,0,250,250,0,45.699841,4.910074,0.0,679.2,0.0
58364,1558278138024,0.8,0.02,0.59,0,-0,1,467,0,69,28,97,505,0.0,127,455,60,105.0,0,1,300,208,5,0,0,0,250,250,0,,,,,
58384,1558278138044,0.79,0.02,0.58,0,-1,1,467,0,69,28,95,505,0.0,127,455,60,106.0,0,1,300,333,5,0,0,0,250,250,0,,,,,
58404,1558278138064,0.79,0.02,0.57,0,-0,0,459,0,69,28,95,505,0.0,127,455,60,103.0,0,1,300,206,5,0,0,0,250,250,0,,,,,
58424,1558278138084,0.79,0.02,0.58,0,-0,1,459,0,69,28,97,505,0.0,126,455,60,104.0,0,1,300,335,5,0,0,0,250,250,0,,,,,
58444,1558278138109,0.79,0.02,0.57,0,0,1,459,0,69,28,96,505,0.0,128,456,60,105.0,0,1,300,334,5,0,0,0,250,250,0,45.699841,4.910074,0.0,679.2,0.0
58464,1558278138129,0.8,0.03,0.57,0,-0,1,463,0,69,28,95,505,0.0,126,455,60,103.0,0,1,300,333,5,0,0,0,250,250,0,,,,,
58484,1558278138149,0.79,0.03,0.56,0,-0,0,463,0,69,28,97,505,0.0,126,455,60,103.0,0,1,300,208,5,0,0,0,250,250,0,,,,,
58504,1558278138169,0.8,0.02,0.57,0,-1,0,463,0,69,28,96,505,0.0,127,456,60,105.0,0,1,300,334,5,0,0,0,250,250,0,,,,,
58524,1558278138189,0.79,0.02,0.59,0,-0,0,471,0,69,28,95,505,0.0,126,456,60,104.0,0,1,300,206,5,0,0,0,250,250,0,,,,,
58544,1558278138209,0.8,0.02,0.57,0,-0,1,471,0,69,28,97,505,0.0,125,456,60,103.0,0,1,300,335,5,0,0,0,250,250,0,45.699841,4.910074,0.0,679.2,0.0
58564,1558278138229,0.79,0.03,0.57,0,-1,0,471,0,69,29,97,505,0.0,126,455,60,105.0,0,1,300,208,5,0,0,0,250,250,0,,,,,
58584,1558278138249,0.8,0.03,0.56,0,-1,0,471,0,69,29,95,505,0.0,126,455,60,106.0,0,1,300,333,5,0,0,0,250,250,0,,,,,
58604,1558278138269,0.79,0.03,0.57,0,-1,-0,464,0,69,29,96,505,0.0,127,455,60,103.0,0,1,300,207,5,0,0,0,250,250,0,,,,,
58624,1558278138289,0.79,0.03,0.56,0,-1,-0,464,0,69,29,97,505,0.0,127,455,60,104.0,0,1,300,335,5,0,0,0,250,250,0,,,,,
58644,1558278138309,0.79,0.03,0.56,0,-1,-0,464,0,69,29,95,505,0.0,127,456,60,106.0,0,1,300,333,5,0,0,0,250,250,0,45.699841,4.910074,0.0,679.2,0.0
58664,1558278138329,0.79,0.03,0.56,0,-1,-0,460,0,69,29,95,505,0.0,126,455,60,103.0,0,1,300,333,5,0,0,0,250,250,0,,,,,
58684,1558278138349,0.79,0.03,0.56,0,-1,0,460,0,69,29,97,505,0.0,126,455,60,104.0,0,1,300,208,5,0,0,0,250,250,0,,,,,
58704,1558278138369,0.78,0.03,0.56,0,-0,0,460,0,69,29,96,505,0.0,128,456,60,105.0,0,1,300,334,5,0,0,0,250,250,0,,,,,
58724,1558278138389,0.79,0.04,0.54,0,-1,-0,465,0,69,29,95,505,0.0,126,455,60,104.0,0,1,300,206,5,0,0,0,250,250,0,,,,,
58744,1558278138410,0.78,0.03,0.55,0,-1,-1,465,0,69,29,97,505,0.0,126,455,60,103.0,0,1,300,335,5,0,0,0,250,250,0,45.699841,4.910074,0.0,679.2,0.0
58764,1558278138430,0.79,0.03,0.56,0,-1,-1,465,0,69,29,96,505,0.0,128,456,60,105.0,0,1,300,207,5,0,0,0,250,250,0,,,,,
58784,1558278138450,0.78,0.02,0.58,0,-1,-0,471,0,69,29,95,505,0.0,126,456,60,104.0,0,1,300,333,5,0,0,0,250,250,0,,,,,
58804,1558278138470,0.79,0.02,0.55,0,-1,-0,471,0,69,29,97,505,0.0,125,455,60,103.0,0,1,300,208,5,0,0,0,250,250,0,,,,,
58824,1558278138490,0.79,0.02,0.56,0,-1,-1,471,0,69,29,97,505,0.0,128,455,60,105.0,0,1,300,335,5,0,0,0,250,250,0,,,,,
58844,1558278138509,0.79,0.03,0.56,0,-1,-1,464,0,69,29,95,505,0.0,127,455,60,105.0,0,1,300,333,5,0,0,0,250,250,0,45.699841,4.910074,0.0,679.2,0.0
58864,1558278138529,0.79,0.02,0.56,0,-1,-1,464,0,69,29,96,504,0.0,126,456,60,102.0,0,1,300,334,5,0,0,0,250,250,0,,,,,
58884,1558278138549,0.79,0.03,0.56,0,-2,-2,464,0,69,29,97,504,0.0,129,455,60,104.0,0,1,300,208,5,0,0,0,250,250,0,,,,,
58904,1558278138569,0.8,0.03,0.55,0,-2,-2,464,0,69,29,95,504,0.0,127,456,60,105.0,0,1,300,333,5,0,0,0,250,250,0,,,,,
58924,1558278138589,0.79,0.03,0.58,0,-2,-2,460,0,69,29,96,504,0.0,126,455,60,103.0,0,1,300,207,5,0,0,0,250,250,0,,,,,
58944,1558278138609,0.79,0.03,0.56,0,-2,-1,460,0,69,29,97,504,0.0,129,455,60,103.0,0,1,300,335,5,0,0,0,250,250,0,45.699841,4.910074,0.0,679.2,0.0
58964,1558278138629,0.78,0.03,0.56,0,-2,-1,460,0,69,29,96,504,0.0,128,456,60,105.0,0,1,300,207,5,0,0,0,250,250,0,,,,,
58984,1558278138649,0.79,0.03,0.54,0,-1,-2,464,0,69,29,95,504,0.0,127,456,60,101.0,0,1,300,333,5,0,0,0,250,250,0,,,,,
59004,1558278138669,0.79,0.03,0.56,0,-2,-2,464,0,69,29,97,504,0.0,127,456,60,103.0,0,1,300,208,5,0,0,0,250,250,0,,,,,
59024,1558278138689,0.8,0.03,0.57,0,-2,-1,464,0,69,29,96,504,0.0,128,455,60,105.0,0,1,300,207,5,0,0,0,250,250,0,,,,,
59044,1558278138709,0.79,0.02,0.58,0,-2,-1,483,0,69,29,95,504,0.0,126,455,60,101.0,0,1,300,333,5,0,0,0,250,250,0,45.699841,4.910074,0.0,679.2,0.0
59064,1558278138729,0.78,0.03,0.56,0,-2,-1,483,0,69,29,97,504,0.0,125,456,60,104.0,0,1,300,208,5,0,0,0,250,250,0,,,,,
59084,1558278138749,0.79,0.02,0.56,0,-2,-1,483,0,69,29,96,504,0.0,128,455,60,105.0,0,1,300,334,5,0,0,0,250,250,0,,,,,
59104,1558278138769,0.78,0.02,0.58,0,-2,-1,471,0,69,29,95,504,0.0,128,460,60,102.0,0,1,300,206,5,0,0,0,250,250,0,,,,,
59124,1558278138789,0.79,0.02,0.56,0,-2,-1,471,0,69,29,97,504,0.0,126,456,60,104.0,0,1,300,335,5,0,0,0,250,250,0,,,,,
59144,1558278138809,0.79,0.02,0.57,0,-2,-2,471,0,69,29,96,504,0.0,128,456,60,115.0,0,1,300,207,5,0,0,0,250,250,0,45.699841,4.910074,0.0,679.2,0.0
59164,1558278138829,0.81,0.02,0.56,0,-2,-2,459,0,69,29,95,504,0.0,126,452,60,115.0,0,1,300,333,5,0,0,0,250,250,0,,,,,
59184,1558278138849,0.79,0.01,0.58,0,-2,-1,459,0,69,29,96,504,0.0,121,457,60,116.0,0,1,300,207,5,0,0,0,250,250,0,,,,,
59204,1558278138869,0.79,0.02,0.57,0,-2,-1,459,0,69,29,97,504,0.0,125,458,60,116.0,0,1,300,335,5,0,0,0,250,250,0,,,,,
59224,1558278138889,0.79,0.01,0.56,0,-2,-1,459,0,69,29,96,505,0.0,126,457,60,116.0,0,1,300,207,5,0,0,0,250,250,0,,,,,
59244,1558278138909,0.79,0.02,0.56,0,-2,-1,375,0,69,29,95,505,0.0,122,462,60,116.0,0,1,300,333,5,0,0,0,250,250,0,45.699841,4.910074,0.0,679.2,0.0
59264,1558278138929,0.78,0.02,0.55,0,-2,-1,375,0,69,29,96,504,0.0,121,458,60,113.0,0,1,300,207,5,0,0,0,250,250,0,,,,,
59284,1558278138949,0.78,0.03,0.53,0,-2,-2,375,0,69,29,98,504,0.0,117,458,60,116.0,0,1,300,338,5,0,0,0,250,250,0,,,,,
59304,1558278138969,0.79,0.03,0.53,0,-2,-2,375,0,69,29,97,505,0.0,117,458,60,116.0,0,1,300,335,4,0,0,0,250,250,0,,,,,
59324,1558278138989,0.79,0.03,0.54,0,-2,-2,375,0,69,29,97,505,0.0,124,458,60,116.0,0,1,300,208,4,0,0,0,250,250,0,,,,,
59344,1558278139003,0.79,0.03,0.55,0,-2,-2,375,0,69,29,96,505,0.0,123,458,60,116.0,0,1,300,334,4,0,0,0,250,250,0,45.699841,4.910074,0.0,679.2,0.0
59364,1558278139023,0.79,0.03,0.55,0,-2,-2,375,0,69,29,95,505,0.0,121,456,60,116.0,0,1,300,206,4,0,0,0,250,250,0,,,,,
59384,1558278139043,0.79,0.02,0.57,0,-2,-1,230,0,69,29,95,505,0.0,115,457,60,113.0,0,1,300,333,4,0,0,0,250,250,0,,,,,
59404,1558278139063,0.79,0.02,0.58,0,-2,-1,230,0,69,29,96,504,0.0,115,457,60,113.0,0,1,300,207,2,0,0,0,250,250,0,,,,,
59424,1558278139083,0.79,0.02,0.58,0,-1,-0,230,0,69,29,96,503,0.0,115,458,60,113.0,0,1,300,334,2,0,0,0,250,250,0,,,,,
59444,1558278139108,0.8,0.02,0.57,0,-1,-0,230,0,69,29,97,502,0.0,115,457,60,113.0,0,1,300,335,2,0,0,0,250,250,0,45.699841,4.910074,0.0,679.2,0.0
59464,1558278139128,0.79,0.02,0.57,0,-1,-0,230,0,69,29,97,501,0.0,116,458,60,113.0,0,1,300,335,2,0,0,0,250,250,0,,,,,
59484,1558278139148,0.79,0.02,0.57,0,-1,-0,230,0,69,29,97,500,0.0,116,458,60,113.0,0,1,300,208,2,0,0,0,250,250,0,,,,,
59504,1558278139168,0.79,0.02,0.58,0,-1,-0,230,0,69,29,97,500,0.0,116,458,60,113.0,0,1,300,335,2,0,0,0,250,250,0,,,,,
59524,1558278139188,0.8,0.02,0.57,0,-1,-0,230,0,69,29,97,500,0.0,116,458,60,113.0,0,1,300,208,2,0,0,0,250,250,0,,,,,
59544,1558278139210,0.8,0.02,0.57,0,-1,0,230,0,69,29,97,500,0.0,116,458,60,113.0,0,1,300,335,2,0,0,0,250,250,0,45.699841,4.910074,0.0,679.2,0.0
59564,1558278139230,0.8,0.02,0.57,0,-1,0,230,0,69,29,97,500,0.0,116,458,60,113.0,0,1,300,208,2,0,0,0,250,250,0,,,,,
59584,1558278139250,0.8,0.02,0.57,0,-1,0,230,0,69,29,97,500,0.0,116,458,60,113.0,0,1,300,335,2,0,0,0,250,250,0,,,,,
59604,1558278139270,0.8,0.02,0.57,0,-1,0,230,0,69,29,97,500,0.0,116,457,60,113.0,0,1,300,208,2,0,0,0,250,250,0,,,,,
59624,1558278139290,0.8,0.02,0.58,0,-1,0,230,0,69,29,97,500,0.0,116,458,60,113.0,0,1,300,335,2,0,0,0,250,250,0,,,,,
59644,1558278139308,0.8,0.02,0.58,0,-1,0,0,0,69,29,97,500,0.0,116,458,60,116.0,0,1,0,0,0,0,0,0,250,250,0,45.699841,4.910074,0.0,679.2,0.0
59664,1558278139328,0.8,0.02,0.58,0,-1,0,0,0,69,29,97,501,0.0,116,458,60,116.0,0,1,0,0,0,0,0,0,250,250,0,,,,,
59684,1558278139348,0.8,0.02,0.58,0,-1,0,0,0,69,29,97,502,0.0,116,458,60,116.0,0,1,0,0,0,0,0,0,250,250,0,,,,,
59704,1558278139368,0.8,0.02,0.58,0,-1,0,0,0,69,29,97,503,0.0,116,458,60,116.0,0,1,0,0,0,0,0,0,250,250,0,,,,,
59724,1558278139388,0.8,0.02,0.59,0,-1,0,0,0,69,29,97,504,0.0,116,458,60,116.0,0,1,0,0,0,0,0,0,250,250,0,,,,,
59744,1558278139408,0.8,0.02,0.59,0,-1,0,0,0,69,29,97,506,0.0,116,458,60,116.0,0,1,0,0,0,0,0,0,250,250,0,45.699841,4.910074,0.0,679.2,0.0
59764,1558278139428,0.8,0.02,0.59,0,-1,-0,0,0,69,29,97,506,0.0,116,457,60,116.0,0,1,0,0,0,0,0,0,250,250,0,,,,,
59784,1558278139448,0.8,0.02,0.59,0,-1,-0,0,0,69,29,97,506,0.0,116,458,60,116.0,0,1,0,0,0,0,0,0,250,250,0,,,,,
59804,1558278139468,0.8,0.02,0.59,0,-1,-0,0,0,69,29,97,506,0.0,116,458,60,116.0,0,1,0,0,0,0,0,0,250,250,0,,,,,
59824,1558278139488,0.8,0.02,0.59,0,-1,-0,0,0,69,29,97,506,0.0,116,458,60,116.0,0,1,0,0,0,0,0,0,250,250,0,,,,,
59844,1558278139508,0.8,0.02,0.59,0,-1,-0,0,0,69,29,97,506,0.0,116,458,60,116.0,0,1,0,0,0,0,0,0,250,250,0,45.699841,4.910074,0.0,679.2,0.0
59864,1558278139528,0.8,0.02,0.59,0,-1,-0,0,0,69,29,97,506,0.0,116,458,60,116.0,0,1,0,0,0,0,0,0,250,250,0,,,,,
59884,1558278139548,0.8,0.02,0.59,0,-1,-0,0,0,69,29,97,506,0.0,116,458,60,117.0,0,1,0,0,0,0,0,0,250,250,0,,,,,
59904,1558278139568,0.8,0.02,0.59,0,-1,-0,0,0,69,29,97,506,0.0,116,458,60,116.0,0,1,0,0,0,0,0,0,250,250,0,,,,,
59924,1558278139588,0.8,0.02,0.59,0,-1,-0,0,0,69,29,97,506,0.0,116,458,60,116.0,0,1,0,0,0,0,0,0,250,250,0,,,,,
59944,1558278139608,0.8,0.02,0.59,0,-1,-0,0,0,69,29,97,506,0.0,116,458,60,116.0,0,1,0,0,0,0,0,0,250,250,0,45.699841,4.910074,0.0,679.2,0.0
59964,1558278139628,0.8,0.02,0.59,0,-1,-0,0,0,69,29,97,506,0.0,116,458,60,116.0,0,1,0,0,0,0,0,0,250,250,0,,,,,
59984,1558278139648,0.8,0.02,0.59,0,-1,-0,0,0,69,29,97,506,0.0,116,458,60,116.0,0,1,0,0,0,0,0,0,250,250,0,,,,,
60004,1558278139668,0.8,0.02,0.59,0,-1,-0,0,0,69,29,97,506,0.0,116,458,60,117.0,0,1,0,0,0,0,0,0,250,250,0,,,,,
60024,1558278139688,0.8,0.02,0.59,0,-1,-0,0,0,69,29,97,506,0.0,116,458,60,117.0,0,1,0,0,0,0,0,0,250,250,0,,,,,
60044,1558278139708,0.8,0.02,0.59,0,-1,-0,0,0,69,29,97,505,0.0,116,458,60,117.0,0,1,0,0,0,0,0,0,250,250,0,45.699841,4.910074,0.0,679.2,0.0
60064,1558278139728,0.8,0.02,0.59,0,-1,-0,0,0,69,29,97,505,0.0,116,458,60,117.0,0,1,0,0,0,0,0,0,250,250,0,,,,,
60084,1558278139748,0.8,0.02,0.59,0,-1,-0,0,0,69,29,97,505,0.0,116,458,60,117.0,0,1,0,0,0,0,0,0,250,250,0,,,,,
60104,1558278139768,0.8,0.02,0.59,0,-1,-0,0,0,69,29,97,506,0.0,116,458,60,117.0,0,1,0,0,0,0,0,0,250,250,0,,,,,
60124,1558278139788,0.8,0.02,0.59,0,-1,-0,0,0,69,29,97,506,0.0,116,457,60,116.0,0,1,0,0,0,0,0,0,250,250,0,,,,,
60144,1558278139808,0.8,0.01,0.59,0,-1,-0,0,0,69,29,97,506,0.0,116,458,60,116.0,0,1,0,0,0,0,0,0,250,250,0,45.699841,4.910074,0.0,679.2,0.0
60164,1558278139828,0.8,0.02,0.59,0,-1,-0,0,0,69,29,97,506,0.0,116,458,60,116.0,0,1,0,0,0,0,0,0,250,250,0,,,,,
60184,1558278139848,0.8,0.02,0.59,0,-1,-0,0,0,69,29,97,506,0.0,116,458,60,117.0,0,1,0,0,0,0,0,0,250,250,0,,,,,
60204,1558278139868,0.8,0.02,0.6,0,-1,-0,0,0,69,29,97,506,0.0,116,458,60,117.0,0,1,0,0,0,0,0,0,250,250,0,,,,,
60224,1558278139888,0.8,0.02,0.59,0,-1,-0,0,0,69,29,97,506,0.0,116,458,60,117.0,0,1,0,0,0,0,0,0,250,250,0,,,,,
60244,1558278139908,0.8,0.02,0.59,0,-1,-0,0,0,69,29,97,506,0.0,116,458,60,117.0,0,1,0,0,0,0,0,0,250,250,0,45.699841,4.910074,0.0,679.2,0.0
60264,1558278139928,0.8,0.02,0.59,0,-1,-0,0,0,69,29,97,506,0.0,116,458,60,117.0,0,1,0,0,0,0,0,0,250,250,0,,,,,
60284,1558278139948,0.8,0.02,0.6,0,-1,-0,0,0,69,29,97,506,0.0,116,458,60,117.0,0,1,0,0,0,0,0,0,250,250,0,,,,,
60304,1558278139968,0.8,0.02,0.6,0,-1,-0,0,0,69,29,97,506,0.0,116,458,60,117.0,0,1,0,0,0,0,0,0,250,250,0,,,,,
60324,1558278139988,0.8,0.02,0.6,0,-1,-0,0,0,69,29,97,506,0.0,116,458,60,116.0,0,1,0,0,0,0,0,0,250,250,0,,,,,
60344,1558278140003,0.8,0.02,0.6,0,-1,-0,0,0,69,29,97,506,0.0,116,458,60,116.0,0,1,0,0,0,0,0,0,250,250,0,45.699841,4.910074,0.0,679.2,0.0
60364,1558278140023,0.8,0.02,0.6,0,-1,-0,0,0,69,29,97,506,0.0,116,457,60,117.0,0,1,0,0,0,0,0,0,250,250,0,,,,,
60384,1558278140043,0.8,0.02,0.6,0,-1,-0,0,0,69,29,97,506,0.0,116,458,60,117.0,0,1,0,0,0,0,0,0,250,250,0,,,,,
60404,1558278140063,0.8,0.02,0.6,0,-1,-0,0,0,69,29,97,506,0.0,116,458,60,117.0,0,1,0,0,0,0,0,0,250,250,0,,,,,
60424,1558278140083,0.8,0.02,0.6,0,-1,-0,0,0,69,29,97,506,0.0,116,458,60,117.0,0,1,0,0,0,0,0,0,250,250,0,,,,,
60444,1558278140109,0.8,0.02,0.6,0,-1,-0,0,0,69,29,97,506,0.0,116,458,60,116.0,0,1,0,0,0,0,0,0,250,250,0,45.699841,4.910074,0.0,679.2,0.0
60464,1558278140129,0.8,0.02,0.6,0,-1,-0,0,0,69,29,97,506,0.0,116,458,60,116.0,0,1,0,0,0,0,0,0,250,250,0,,,,,
60484,1558278140149,0.8,0.02,0.6,0,-1,-0,0,0,69,29,97,506,0.0,116,458,60,117.0,0,1,0,0,0,0,0,0,250,250,0,,,,,
60504,1558278140169,0.8,0.02,0.6,0,-1,-0,0,0,69,29,97,506,0.0,116,458,60,116.0,0,1,0,0,0,0,0,0,250,250,0,,,,,
60524,1558278140189,0.8,0.02,0.59,0,-1,-0,0,0,69,29,97,506,0.0,116,458,60,117.0,0,1,0,0,0,0,0,0,250,250,0,,,,,
60544,1558278140209,0.8,0.02,0.59,0,-1,-0,0,0,69,29,97,506,0.0,116,458,60,117.0,0,1,0,0,0,0,0,0,250,250,0,45.699841,4.910074,0.0,679.2,0.0
60564,1558278140229,0.8,0.02,0.59,0,-1,-0,0,0,69,29,97,506,0.0,116,458,60,117.0,0,1,0,0,0,0,0,0,250,250,0,,,,,
60584,1558278140249,0.8,0.02,0.59,0,-1,-0,0,0,69,29,97,506,0.0,116,458,60,117.0,0,1,0,0,0,0,0,0,250,250,0,,,,,
60604,1558278140269,0.8,0.02,0.59,0,-1,-0,0,0,69,29,97,506,0.0,116,458,60,117.0,0,1,0,0,0,0,0,0,250,250,0,,,,,
60624,1558278140289,0.8,0.02,0.59,0,-1,-0,0,0,69,29,97,506,0.0,116,458,60,117.0,0,1,0,0,0,0,0,0,250,250,0,,,,,
60644,1558278140309,0.8,0.01,0.59,0,-1,-0,0,0,69,29,97,506,0.0,116,458,60,117.0,0,1,0,0,0,0,0,0,250,250,0,45.699841,4.910074,0.0,679.2,0.0
60664,1558278140329,0.8,0.02,0.59,0,-1,-0,0,0,69,29,97,506,0.0,116,458,60,117.0,0,1,0,0,0,0,0,0,250,250,0,,,,,
60684,1558278140349,0.8,0.02,0.6,0,-1,-0,0,0,69,29,97,506,0.0,116,458,60,117.0,0,1,0,0,0,0,0,0,250,250,0,,,,,
60704,1558278140369,0.8,0.02,0.6,0,-1,-0,0,0,69,29,97,506,0.0,116,458,60,117.0,0,1,0,0,0,0,0,0,250,250,0,,,,,
60724,1558278140389,0.8,0.02,0.59,0,-1,-0,0,0,69,29,97,506,0.0,116,458,60,117.0,0,1,0,0,0,0,0,0,250,250,0,,,,,
60744,1558278140409,0.8,0.02,0.6,0,-1,-0,0,0,69,29,97,506,0.0,116,458,60,117.0,0,1,0,0,0,0,0,0,250,250,0,45.699841,4.910074,0.0,679.2,0.0
60764,1558278140429,0.8,0.01,0.59,0,-1,-0,0,0,69,29,97,506,0.0,116,458,60,117.0,0,1,0,0,0,0,0,0,250,250,0,,,,,
60784,1558278140449,0.8,0.01,0.6,0,-1,0,0,0,69,29,97,506,0.0,116,458,60,117.0,0,1,0,0,0,0,0,0,250,250,0,,,,,
60804,1558278140469,0.8,0.01,0.6,0,-1,0,0,0,69,29,97,506,0.0,116,458,60,117.0,0,1,0,0,0,0,0,0,250,250,0,,,,,
60824,1558278140489,0.8,0.01,0.6,0,-1,0,0,0,69,29,97,506,0.0,116,458,60,117.0,0,1,0,0,0,0,0,0,250,250,0,,,,,
60844,1558278140509,0.8,0.01,0.6,0,-1,0,0,0,69,29,97,506,0.0,116,458,60,117.0,0,1,0,0,0,0,0,0,250,250,0,45.699841,4.910074,0.0,679.2,0.0
60864,1558278140529,0.8,0.01,0.6,0,-1,0,0,0,69,29,97,506,0.0,116,458,60,117.0,0,1,0,0,0,0,0,0,250,250,0,,,,,
60884,1558278140549,0.8,0.02,0.6,0,-1,0,0,0,69,29,97,506,0.0,116,458,60,117.0,0,1,0,0,0,0,0,0,250,250,0,,,,,
60904,1558278140569,0.8,0.02,0.6,0,-1,0,0,0,69,29,97,506,0.0,116,458,60,117.0,0,1,0,0,0,0,0,0,250,250,0,,,,,
60924,1558278140589,0.8,0.02,0.6,0,-1,0,0,0,69,29,97,506,0.0,116,458,60,117.0,0,1,0,0,0,0,0,0,250,250,0,,,,,
60944,1558278140609,0.8,0.02,0.59,0,-1,0,0,0,69,29,97,506,0.0,116,458,60,117.0,0,1,0,0,0,0,0,0,250,250,0,45.699841,4.910074,0.0,679.2,0.0
60964,1558278140629,0.8,0.02,0.59,0,-1,-0,0,0,69,29,97,506,0.0,116,458,60,117.0,0,1,0,0,0,0,0,0,250,250,0,,,,,
60984,1558278140649,0.8,0.02,0.59,0,-1,-0,0,0,69,29,97,506,0.0,116,458,60,117.0,0,1,0,0,0,0,0,0,250,250,0,,,,,
61004,1558278140669,0.8,0.02,0.59,0,-1,-0,0,0,69,29,97,506,0.0,116,458,60,117.0,0,1,0,0,0,0,0,0,250,250,0,,,,,
61024,1558278140689,0.8,0.02,0.59,0,-1,-0,0,0,69,29,97,506,0.0,116,458,60,117.0,0,1,0,0,0,0,0,0,250,250,0,,,,,
61044,1558278140709,0.8,0.02,0.59,0,-1,-0,0,0,69,29,97,506,0.0,116,458,60,117.0,0,1,0,0,0,0,0,0,250,250,0,45.699841,4.910074,0.0,679.2,0.0
61064,1558278140729,0.8,0.02,0.59,0,-1,-0,0,0,69,29,97,506,0.0,116,458,60,117.0,0,1,0,0,0,0,0,0,250,250,0,,,,,
61084,1558278140749,0.8,0.02,0.59,0,-1,-0,0,0,69,29,97,506,0.0,116,458,60,117.0,0,1,0,0,0,0,0,0,250,250,0,,,,,
61104,1558278140769,0.8,0.02,0.59,0,-1,-0,0,0,69,29,97,506,0.0,116,458,60,117.0,0,1,0,0,0,0,0,0,250,250,0,,,,,
61124,1558278140789,0.8,0.02,0.59,0,-1,-0,0,0,69,29,97,506,0.0,116,458,60,117.0,0,1,0,0,0,0,0,0,250,250,0,,,,,
61144,1558278140805,0.8,0.02,0.59,0,-1,-0,0,0,69,29,97,506,0.0,116,458,60,117.0,0,1,0,0,0,0,0,0,250,250,0,45.699841,4.910074,0.0,679.2,0.0
61164,1558278140825,0.8,0.02,0.59,0,-1,-0,0,0,69,29,97,506,0.0,116,458,60,117.0,0,1,0,0,0,0,0,0,250,250,0,,,,,
61184,1558278140845,0.8,0.02,0.59,0,-1,-0,0,0,69,29,97,506,0.0,116,458,60,117.0,0,1,0,0,0,0,0,0,250,250,0,,,,,
61204,1558278140865,0.8,0.02,0.59,0,-1,-0,0,0,69,29,97,506,0.0,116,458,60,117.0,0,1,0,0,0,0,0,0,250,250,0,,,,,
61224,1558278140885,0.8,0.02,0.59,0,-1,-0,0,0,69,29,97,506,0.0,116,458,60,117.0,0,1,0,0,0,0,0,0,250,250,0,,,,,
61244,1558278140909,0.8,0.02,0.6,0,-1,-0,0,0,69,29,97,506,0.0,116,458,60,117.0,0,1,0,0,0,0,0,0,250,250,0,45.699841,4.910074,0.0,679.2,0.0
61264,1558278140929,0.8,0.02,0.6,0,-1,-0,0,0,69,29,97,506,0.0,116,458,60,117.0,0,1,0,0,0,0,0,0,250,250,0,,,,,
61284,1558278140949,0.8,0.02,0.6,0,-1,-0,0,0,69,29,97,506,0.0,116,458,60,117.0,0,1,0,0,0,0,0,0,250,250,0,,,,,
61304,1558278140969,0.8,0.02,0.6,0,-1,-0,0,0,69,29,97,506,0.0,116,458,60,117.0,0,1,0,0,0,0,0,0,250,250,0,,,,,
61324,1558278140989,0.8,0.02,0.6,0,-1,-0,0,0,69,29,97,506,0.0,116,458,60,116.0,0,1,0,0,0,0,0,0,250,250,0,,,,,
61344,1558278141003,0.8,0.02,0.6,0,-1,-0,0,0,69,29,97,506,0.0,116,458,60,117.0,0,1,0,0,0,0,0,0,250,250,0,45.699841,4.910074,0.0,679.2,0.0
61364,1558278141023,0.8,0.02,0.6,0,-1,-0,0,0,69,29,97,506,0.0,116,458,60,117.0,0,1,0,0,0,0,0,0,250,250,0,,,,,
61384,1558278141043,0.8,0.02,0.6,0,-1,-0,0,0,69,29,97,506,0.0,116,458,60,117.0,0,1,0,0,0,0,0,0,250,250,0,,,,,
61404,1558278141063,0.8,0.02,0.6,0,-1,-0,0,0,69,29,97,506,0.0,116,458,60,117.0,0,1,0,0,0,0,0,0,250,250,0,,,,,
61424,1558278141083,0.8,0.02,0.6,0,-1,-0,0,0,69,29,97,506,0.0,116,458,60,117.0,0,1,0,0,0,0,0,0,250,250,0,,,,,
61444,1558278141108,0.8,0.02,0.6,0,-1,-0,0,0,69,29,97,506,0.0,116,458,60,117.0,0,1,0,0,0,0,0,0,250,250,0,45.699841,4.910074,0.0,679.2,0.0
61464,1558278141128,0.8,0.02,0.6,0,-1,-0,0,0,69,29,97,506,0.0,116,458,60,117.0,0,1,0,0,0,0,0,0,250,250,0,,,,,
61484,1558278141148,0.8,0.02,0.6,0,-1,-0,0,0,69,29,97,506,0.0,116,458,60,116.0,0,1,0,0,0,0,0,0,250,250,0,,,,,
61504,1558278141168,0.8,0.02,0.6,0,-1,-0,0,0,69,29,97,506,0.0,116,458,60,117.0,0,1,0,0,0,0,0,0,250,250,0,,,,,
61524,1558278141188,0.8,0.02,0.59,0,-1,-0,0,0,69,29,97,506,0.0,116,458,60,117.0,0,1,0,0,0,0,0,0,250,250,0,,,,,
61544,1558278141208,0.8,0.02,0.59,0,-1,-0,0,0,69,29,97,506,0.0,116,458,60,117.0,0,1,0,0,0,0,0,0,250,250,0,45.699841,4.910074,0.0,679.2,0.0
61564,1558278141228,0.8,0.02,0.59,0,-1,-0,0,0,69,29,97,506,0.0,116,458,60,117.0,0,1,0,0,0,0,0,0,250,250,0,,,,,
61584,1558278141248,0.8,0.02,0.6,0,-1,-0,0,0,69,29,97,506,0.0,116,458,60,117.0,0,1,0,0,0,0,0,0,250,250,0,,,,,
61604,1558278141268,0.8,0.02,0.6,0,-1,-0,0,0,69,29,97,506,0.0,116,458,60,117.0,0,1,0,0,0,0,0,0,250,250,0,,,,,
61624,1558278141288,0.8,0.02,0.6,0,-1,-0,0,0,69,29,97,506,0.0,116,458,60,117.0,0,1,0,0,0,0,0,0,250,250,0,,,,,
61644,1558278141308,0.8,0.02,0.6,0,-1,-0,0,0,69,29,97,506,0.0,116,458,60,117.0,0,1,0,0,0,0,0,0,250,250,0,45.699841,4.910074,0.0,679.2,0.0
61664,1558278141328,0.8,0.02,0.59,0,-1,-0,0,0,69,29,97,506,0.0,116,458,60,117.0,0,1,0,0,0,0,0,0,250,250,0,,,,,
61684,1558278141348,0.8,0.02,0.6,0,-1,-0,0,0,69,29,97,506,0.0,116,458,60,117.0,0,1,0,0,0,0,0,0,250,250,0,,,,,
61704,1558278141368,0.8,0.02,0.59,0,-1,-0,0,0,69,29,97,506,0.0,116,458,60,117.0,0,1,0,0,0,0,0,0,250,250,0,,,,,
61724,1558278141388,0.8,0.01,0.59,0,-1,-0,0,0,69,29,97,506,0.0,116,458,60,117.0,0,1,0,0,0,0,0,0,250,250,0,,,,,
61744,1558278141408,0.8,0.01,0.59,0,-1,-0,0,0,69,29,97,506,0.0,116,458,60,117.0,0,1,0,0,0,0,0,0,250,250,0,45.699841,4.910074,0.0,679.2,0.0
61764,1558278141428,0.8,0.01,0.6,0,-1,-0,0,0,69,29,97,506,0.0,116,458,60,117.0,0,1,0,0,0,0,0,0,250,250,0,,,,,
61784,1558278141448,0.8,0.02,0.6,0,-1,-0,0,0,69,29,97,506,0.0,115,458,60,117.0,0,1,0,0,0,0,0,0,250,250,0,,,,,
61804,1558278141468,0.8,0.02,0.6,0,-1,-0,0,0,69,29,97,506,0.0,116,458,60,117.0,0,1,0,0,0,0,0,0,250,250,0,,,,,
61824,1558278141488,0.8,0.02,0.59,0,-1,-0,0,0,69,29,97,506,0.0,116,458,60,117.0,0,1,0,0,0,0,0,0,250,250,0,,,,,
61844,1558278141508,0.8,0.02,0.59,0,-1,-0,0,0,69,29,97,506,0.0,116,458,60,117.0,0,1,0,0,0,0,0,0,250,250,0,45.699841,4.910074,0.0,679.2,0.0
61864,1558278141528,0.8,0.02,0.59,0,-1,-0,0,0,69,29,97,506,0.0,116,458,60,117.0,0,1,0,0,0,0,0,0,250,250,0,,,,,
61884,1558278141548,0.8,0.01,0.6,0,-1,-0,0,0,69,29,97,506,0.0,116,458,60,117.0,0,1,0,0,0,0,0,0,250,250,0,,,,,
61904,1558278141568,0.8,0.01,0.6,0,-1,-0,0,0,69,29,97,506,0.0,116,458,60,117.0,0,1,0,0,0,0,0,0,250,250,0,,,,,
61924,1558278141588,0.8,0.02,0.6,0,-1,-0,0,0,69,29,97,506,0.0,116,458,60,117.0,0,1,0,0,0,0,0,0,250,250,0,,,,,
61944,1558278141610,0.8,0.02,0.59,0,-1,-0,0,0,69,29,97,506,0.0,116,457,60,117.0,0,1,0,0,0,0,0,0,250,250,0,45.699841,4.910074,0.0,679.2,0.0
61964,1558278141630,0.8,0.02,0.6,0,-1,-0,0,0,69,29,97,506,0.0,116,458,60,117.0,0,1,0,0,0,0,0,0,250,250,0,,,,,
61984,1558278141650,0.8,0.02,0.6,0,-1,-0,0,0,69,29,97,506,0.0,115,458,60,117.0,0,1,0,0,0,0,0,0,250,250,0,,,,,
62004,1558278141670,0.8,0.02,0.6,0,-1,-0,0,0,69,29,97,506,0.0,116,458,60,117.0,0,1,0,0,0,0,0,0,250,250,0,,,,,
62024,1558278141690,0.8,0.01,0.6,0,-1,-0,0,0,69,29,97,506,0.0,116,458,60,117.0,0,1,0,0,0,0,0,0,250,250,0,,,,,
62044,1558278141708,0.8,0.01,0.6,0,-1,-0,0,0,69,29,97,506,0.0,116,458,60,117.0,0,1,0,0,0,0,0,0,250,250,0,45.699841,4.910074,0.0,679.2,0.0
62064,1558278141728,0.8,0.01,0.6,0,-1,-0,0,0,69,29,97,506,0.0,116,458,60,117.0,0,1,0,0,0,0,0,0,250,250,0,,,,,
62084,1558278141748,0.8,0.01,0.6,0,-1,-0,0,0,69,29,97,506,0.0,115,458,60,117.0,0,1,0,0,0,0,0,0,250,250,0,,,,,
62104,1558278141768,0.8,0.01,0.6,0,-1,-0,0,0,69,29,97,506,0.0,116,458,60,117.0,0,1,0,0,0,0,0,0,250,250,0,,,,,
62124,1558278141788,0.8,0.02,0.6,0,-1,-0,0,0,69,29,97,506,0.0,115,458,60,117.0,0,1,0,0,0,0,0,0,250,250,0,,,,,
62144,1558278141808,0.8,0.02,0.6,0,-1,-0,0,0,69,29,97,506,0.0,116,458,60,117.0,0,1,0,0,0,0,0,0,250,250,0,45.699841,4.910074,0.0,679.2,0.0
62164,1558278141828,0.8,0.01,0.6,0,-1,-0,0,0,69,29,97,506,0.0,116,458,60,117.0,0,1,0,0,0,0,0,0,250,250,0,,,,,
62184,1558278141848,0.8,0.01,0.6,0,-1,-0,0,0,69,29,97,506,0.0,116,458,60,117.0,0,1,0,0,0,0,0,0,250,250,0,,,,,
62204,1558278141868,0.8,0.01,0.6,0,-1,-0,0,0,69,29,97,506,0.0,116,457,60,117.0,0,1,0,0,0,0,0,0,250,250,0,,,,,
62224,1558278141888,0.8,0.01,0.6,0,-1,-0,0,0,69,29,97,506,0.0,116,458,60,117.0,0,1,0,0,0,0,0,0,250,250,0,,,,,
62244,1558278141910,0.8,0.01,0.6,0,-1,-0,0,0,69,29,97,506,0.0,116,458,60,117.0,0,1,0,0,0,0,0,0,250,250,0,45.699841,4.910074,0.0,679.2,0.0
62264,1558278141930,0.8,0.01,0.6,0,-1,-0,0,0,69,29,97,506,0.0,116,458,60,117.0,0,1,0,0,0,0,0,0,250,250,0,,,,,
62284,1558278141950,0.8,0.01,0.6,0,-1,-0,0,0,69,29,97,506,0.0,116,458,60,117.0,0,1,0,0,0,0,0,0,250,250,0,,,,,
62304,1558278141970,0.8,0.01,0.6,0,-1,-0,0,0,69,29,97,506,0.0,116,458,60,117.0,0,1,0,0,0,0,0,0,250,250,0,,,,,
62324,1558278141990,0.8,0.01,0.6,0,-1,-0,0,0,69,29,97,506,0.0,116,458,60,117.0,0,1,0,0,0,0,0,0,250,250,0,,,,,
62344,1558278142004,0.8,0.01,0.6,0,-1,-0,0,0,69,29,97,506,0.0,116,458,60,117.0,0,1,0,0,0,0,0,0,250,250,0,45.699841,4.910074,0.0,679.2,0.0
62364,1558278142024,0.8,0.01,0.6,0,-1,-0,0,0,69,29,97,506,0.0,116,458,60,117.0,0,1,0,0,0,0,0,0,250,250,0,,,,,
62384,1558278142044,0.8,0.01,0.6,0,-1,-0,0,0,69,29,97,506,0.0,116,458,60,117.0,0,1,0,0,0,0,0,0,250,250,0,,,,,
62404,1558278142064,0.8,0.01,0.6,0,-1,-0,0,0,69,29,97,506,0.0,116,458,60,117.0,0,1,0,0,0,0,0,0,250,250,0,,,,,
62424,1558278142084,0.8,0.01,0.6,0,-1,-0,0,0,69,29,97,506,0.0,116,458,60,117.0,0,1,0,0,0,0,0,0,250,250,0,,,,,
62444,1558278142109,0.8,0.01,0.6,0,-1,-0,0,0,69,29,97,506,0.0,116,458,60,117.0,0,1,0,0,0,0,0,0,250,250,0,45.699841,4.910074,0.0,679.2,0.0
62464,1558278142129,0.8,0.01,0.6,0,-1,-0,0,0,69,29,97,506,0.0,116,458,60,117.0,0,1,0,0,0,0,0,0,250,250,0,,,,,
62484,1558278142149,0.8,0.01,0.6,0,-1,-0,0,0,69,29,97,506,0.0,115,458,60,117.0,0,1,0,0,0,0,0,0,250,250,0,,,,,
62504,1558278142169,0.8,0.01,0.6,0,-1,-0,0,0,69,29,97,506,0.0,116,458,60,117.0,0,1,0,0,0,0,0,0,250,250,0,,,,,
62524,1558278142189,0.8,0.01,0.6,0,-1,-0,0,0,69,29,97,506,0.0,116,458,60,117.0,0,1,0,0,0,0,0,0,250,250,0,,,,,
62544,1558278142209,0.8,0.01,0.6,0,-1,-0,0,0,69,29,97,506,0.0,116,458,60,117.0,0,1,0,0,0,0,0,0,250,250,0,45.699841,4.910074,0.0,679.2,0.0
62564,1558278142229,0.8,0.01,0.6,0,-1,-0,0,0,69,29,97,506,0.0,116,458,60,117.0,0,1,0,0,0,0,0,0,250,250,0,,,,,
62584,1558278142249,0.8,0.01,0.6,0,-1,-0,0,0,69,29,97,506,0.0,115,458,60,117.0,0,1,0,0,0,0,0,0,250,250,0,,,,,
62604,1558278142269,0.8,0.01,0.6,0,-1,-0,0,0,69,29,97,506,0.0,116,457,60,117.0,0,1,0,0,0,0,0,0,250,250,0,,,,,
62624,1558278142289,0.8,0.01,0.6,0,-1,-0,0,0,69,29,97,506,0.0,115,458,60,117.0,0,1,0,0,0,0,0,0,250,250,0,,,,,
62644,1558278142307,0.8,0.01,0.6,0,-1,-0,0,0,69,29,97,506,0.0,115,450,60,119.0,0,1,0,0,0,0,0,0,250,250,0,45.699841,4.910074,0.0,679.2,0.0
62664,1558278142327,0.8,0.01,0.6,0,-1,-0,0,0,69,29,97,506,0.0,116,402,60,119.0,0,1,0,0,0,0,0,0,250,250,0,,,,,
62684,1558278142347,0.8,0.02,0.6,0,-1,-0,0,0,69,29,97,506,0.0,116,343,60,119.0,0,1,0,0,0,0,0,0,250,250,0,,,,,
62704,1558278142367,0.8,0.01,0.6,0,-1,-0,0,0,69,29,97,507,0.0,115,313,60,119.0,0,1,0,0,0,0,0,0,250,250,0,,,,,
62724,1558278142387,0.8,0.01,0.6,0,-1,-0,0,0,69,29,97,507,0.0,115,291,60,119.0,0,1,0,0,0,0,0,0,250,250,0,,,,,
62744,1558278142409,0.8,0.01,0.6,0,-1,-0,0,0,69,29,97,507,0.0,116,274,60,119.0,0,1,0,0,0,0,0,0,250,250,0,45.699841,4.910074,0.0,679.2,0.0
62764,1558278142429,0.8,0.02,0.6,0,-1,-0,0,0,69,29,97,507,0.0,115,261,60,119.0,0,1,0,0,0,0,0,0,250,250,0,,,,,
62784,1558278142449,0.8,0.01,0.6,0,-1,-0,0,0,69,29,97,506,0.0,115,250,60,119.0,0,1,0,0,0,0,0,0,250,250,0,,,,,
62804,1558278142469,0.8,0.01,0.6,0,-1,-0,0,0,69,29,97,506,0.0,115,242,60,119.0,0,1,0,0,0,0,0,0,250,250,0,,,,,
62824,1558278142489,0.8,0.01,0.6,0,-1,-0,0,0,69,29,97,507,0.0,116,235,60,119.0,0,1,0,0,0,0,0,0,250,250,0,,,,,
62844,1558278142509,0.8,0.01,0.6,0,-1,-0,0,0,69,29,97,507,0.0,116,227,60,119.0,0,1,0,0,0,0,0,0,250,250,0,45.699841,4.910074,0.0,679.2,0.0
62864,1558278142529,0.8,0.01,0.6,0,-1,-0,0,0,69,29,97,507,0.0,116,221,60,119.0,0,1,0,0,0,0,0,0,250,250,0,,,,,
62884,1558278142549,0.8,0.01,0.6,0,-1,-0,0,0,69,29,97,507,0.0,115,216,60,119.0,0,1,0,0,0,0,0,0,250,250,0,,,,,
62904,1558278142569,0.8,0.02,0.6,0,-1,-0,0,0,69,29,97,507,0.0,116,211,60,119.0,0,1,0,0,0,0,0,0,250,250,0,,,,,
62924,1558278142589,0.8,0.02,0.6,0,-1,-0,0,0,69,29,97,507,0.0,116,207,60,119.0,0,1,0,0,0,0,0,0,250,250,0,,,,,
62944,1558278142609,0.8,0.02,0.6,0,-1,-0,0,0,69,29,97,507,0.0,115,203,60,119.0,0,1,0,0,0,0,0,0,250,250,0,45.699841,4.910074,0.0,679.2,0.0
62964,1558278142629,0.8,0.02,0.6,0,-1,-0,0,0,69,29,97,507,0.0,115,200,60,119.0,0,1,0,0,0,0,0,0,250,250,0,,,,,
62984,1558278142649,0.8,0.02,0.6,0,-1,-0,0,0,69,29,97,507,0.0,116,197,60,119.0,0,1,0,0,0,0,0,0,250,250,0,,,,,
63004,1558278142669,0.8,0.02,0.6,0,-1,-0,0,0,69,29,97,507,0.0,115,194,60,119.0,0,1,0,0,0,0,0,0,250,250,0,,,,,
63024,1558278142689,0.8,0.02,0.6,0,-1,-0,0,0,69,29,97,507,0.0,115,189,60,119.0,0,1,0,0,0,0,0,0,250,250,0,,,,,
63044,1558278142709,0.8,0.02,0.6,0,-1,-0,0,0,69,29,97,507,0.0,116,188,60,119.0,0,1,0,0,0,0,0,0,250,250,0,45.699841,4.910074,0.0,679.2,0.0
63064,1558278142729,0.8,0.02,0.6,0,-1,-0,0,0,69,29,97,507,0.0,116,185,60,118.0,0,1,0,0,0,0,0,0,250,250,0,,,,,
63084,1558278142749,0.8,0.02,0.6,0,-1,-0,0,0,69,29,97,507,0.0,115,183,60,119.0,0,1,0,0,0,0,0,0,250,250,0,,,,,
63104,1558278142769,0.8,0.02,0.6,0,-1,-0,0,0,69,29,97,507,0.0,116,180,60,119.0,0,1,0,0,0,0,0,0,250,250,0,,,,,
63124,1558278142789,0.8,0.02,0.6,0,-1,-0,0,0,69,29,97,507,0.0,115,178,60,119.0,0,1,0,0,0,0,0,0,250,250,0,,,,,
63144,1558278142809,0.8,0.02,0.6,0,-1,-0,0,0,69,29,97,507,0.0,116,175,60,119.0,0,1,0,0,0,0,0,0,250,250,0,45.699841,4.910074,0.0,679.2,0.0
63164,1558278142829,0.8,0.02,0.6,0,-1,-0,0,0,69,29,97,506,0.0,116,175,60,119.0,0,1,0,0,0,0,0,0,250,250,0,,,,,
63184,1558278142849,0.8,0.02,0.6,0,-1,-0,0,0,69,29,97,506,0.0,116,173,60,119.0,0,1,0,0,0,0,0,0,250,250,0,,,,,
63204,1558278142869,0.8,0.01,0.6,0,-1,-0,0,0,69,29,97,507,0.0,116,170,60,119.0,0,1,0,0,0,0,0,0,250,250,0,,,,,
63224,1558278142889,0.8,0.01,0.6,0,-1,-0,0,0,69,29,97,507,0.0,116,170,60,119.0,0,1,0,0,0,0,0,0,250,250,0,,,,,
63244,1558278142909,0.8,0.01,0.6,0,-1,-0,0,0,69,29,97,507,0.0,115,167,60,119.0,0,1,0,0,0,0,0,0,250,250,0,45.699841,4.910074,0.0,679.2,0.0
63264,1558278142929,0.8,0.01,0.6,0,-1,-0,0,0,69,29,97,506,0.0,116,167,60,119.0,0,1,0,0,0,0,0,0,250,250,0,,,,,
63284,1558278142949,0.8,0.01,0.6,0,-1,-0,0,0,69,29,97,506,0.0,116,164,60,119.0,0,1,0,0,0,0,0,0,250,250,0,,,,,
63304,1558278142969,0.8,0.01,0.6,0,-1,-0,0,0,69,29,97,506,0.0,115,164,60,119.0,0,1,0,0,0,0,0,0,250,250,0,,,,,
63324,1558278142989,0.8,0.01,0.6,0,-1,-0,0,0,69,29,97,507,0.0,115,161,60,119.0,0,1,0,0,0,0,0,0,250,250,0,,,,,
63344,1558278143003,0.8,0.01,0.6,0,-1,-0,0,0,69,29,97,507,0.0,116,161,60,119.0,0,1,0,0,0,0,0,0,250,250,0,45.699841,4.910074,0.0,679.2,0.0
63364,1558278143023,0.8,0.01,0.6,0,-1,-0,0,0,69,29,97,507,0.0,115,158,60,119.0,0,1,0,0,0,0,0,0,250,250,0,,,,,
63384,1558278143043,0.8,0.01,0.6,0,-1,-0,0,0,69,29,97,507,0.0,115,158,60,119.0,0,1,0,0,0,0,0,0,250,250,0,,,,,
63404,1558278143063,0.8,0.01,0.6,0,-1,-0,0,0,69,29,97,507,0.0,115,156,60,119.0,0,1,0,0,0,0,0,0,250,250,0,,,,,
63424,1558278143083,0.8,0.01,0.6,0,-1,-0,0,0,69,29,97,506,0.0,115,155,60,119.0,0,1,0,0,0,0,0,0,250,250,0,,,,,
63444,1558278143100,0.8,0.01,0.6,0,-1,-0,0,0,69,29,97,506,0.0,116,155,60,119.0,0,1,0,0,0,0,0,0,250,250,0,45.699841,4.910074,0.0,679.2,0.0
63464,1558278143120,0.8,0.01,0.6,0,-1,-0,0,0,69,29,97,506,0.0,115,153,60,119.0,0,1,0,0,0,0,0,0,250,250,0,,,,,
63484,1558278143140,0.8,0.01,0.6,0,-1,-0,0,0,69,29,97,506,0.0,115,153,60,119.0,0,1,0,0,0,0,0,0,250,250,0,,,,,
63504,1558278143160,0.8,0.01,0.6,0,-1,-0,0,0,69,29,97,506,0.0,115,153,60,119.0,0,1,0,0,0,0,0,0,250,250,0,,,,,
63524,1558278143180,0.8,0.01,0.6,0,-1,-0,0,0,69,29,97,506,0.0,115,150,60,119.0,0,1,0,0,0,0,0,0,250,250,0,,,,,
63544,1558278143209,0.8,0.01,0.6,0,-1,-0,0,0,69,29,97,506,0.0,115,150,60,119.0,0,1,0,0,0,0,0,0,250,250,0,45.699841,4.910074,0.0,679.2,0.0
63564,1558278143229,0.8,0.01,0.6,0,-1,-0,0,0,69,29,97,506,0.0,116,150,60,119.0,0,1,0,0,0,0,0,0,250,250,0,,,,,
63584,1558278143249,0.8,0.01,0.6,0,-1,-0,0,0,69,29,97,506,0.0,116,148,60,119.0,0,1,0,0,0,0,0,0,250,250,0,,,,,
63604,1558278143269,0.8,0.01,0.6,0,-1,-0,0,0,69,29,97,506,0.0,116,148,60,119.0,0,1,0,0,0,0,0,0,250,250,0,,,,,
63624,1558278143289,0.8,0.02,0.6,0,-1,-0,0,0,69,29,97,505,0.0,116,148,60,119.0,0,1,0,0,0,0,0,0,250,250,0,,,,,
63644,1558278143308,0.8,0.01,0.6,0,-1,-0,0,0,69,29,97,505,0.0,115,145,60,119.0,0,1,0,0,0,0,0,0,250,250,0,45.699841,4.910074,0.0,679.2,0.0
63664,1558278143328,0.8,0.01,0.6,0,-1,-0,0,0,69,29,97,506,0.0,116,145,60,119.0,0,1,0,0,0,0,0,0,250,250,0,,,,,
63684,1558278143348,0.8,0.01,0.6,0,-1,-0,0,0,69,29,97,506,0.0,115,145,60,119.0,0,1,0,0,0,0,0,0,250,250,0,,,,,
63704,1558278143368,0.8,0.01,0.6,0,-1,-0,0,0,69,29,97,506,0.0,115,145,60,119.0,0,1,0,0,0,0,0,0,250,250,0,,,,,
63724,1558278143388,0.8,0.01,0.6,0,-1,-0,0,0,69,29,97,506,0.0,116,143,60,119.0,0,1,0,0,0,0,0,0,250,250,0,,,,,
63744,1558278143408,0.8,0.02,0.6,0,-1,-0,0,0,69,29,97,506,0.0,115,142,60,119.0,0,1,0,0,0,0,0,0,250,250,0,45.699841,4.910074,0.0,679.2,0.0
63764,1558278143428,0.8,0.01,0.6,0,-1,-0,0,0,69,29,97,506,0.0,115,142,60,119.0,0,1,0,0,0,0,0,0,250,250,0,,,,,
63784,1558278143448,0.8,0.02,0.6,0,-1,-0,0,0,69,29,97,506,0.0,115,142,60,118.0,0,1,0,0,0,0,0,0,250,250,0,,,,,
63804,1558278143468,0.8,0.02,0.6,0,-1,-0,0,0,69,29,97,506,0.0,116,140,60,119.0,0,1,0,0,0,0,0,0,250,250,0,,,,,
63824,1558278143488,0.8,0.02,0.6,0,-1,-0,0,0,69,29,97,506,0.0,116,140,60,119.0,0,1,0,0,0,0,0,0,250,250,0,,,,,
63844,1558278143508,0.8,0.02,0.6,0,-1,-0,0,0,69,29,97,506,0.0,116,140,60,119.0,0,1,0,0,0,0,0,0,250,250,0,45.699841,4.910074,0.0,679.2,0.0
63864,1558278143528,0.8,0.02,0.6,0,-1,-0,0,0,69,29,97,506,0.0,115,140,60,119.0,0,1,0,0,0,0,0,0,250,250,0,,,,,
63884,1558278143548,0.8,0.02,0.6,0,-1,-0,0,0,69,29,97,506,0.0,116,140,60,119.0,0,1,0,0,0,0,0,0,250,250,0,,,,,
63904,1558278143568,0.8,0.02,0.6,0,-1,-0,0,0,69,29,97,506,0.0,116,140,60,119.0,0,1,0,0,0,0,0,0,250,250,0,,,,,
63924,1558278143588,0.8,0.02,0.6,0,-1,-0,0,0,69,29,97,506,0.0,116,137,60,119.0,0,1,0,0,0,0,0,0,250,250,0,,,,,
63944,1558278143608,0.8,0.02,0.6,0,-1,-0,0,0,69,29,97,506,0.0,115,137,60,119.0,0,1,0,0,0,0,0,0,250,250,0,45.699841,4.910074,0.0,679.2,0.0
63964,1558278143628,0.8,0.02,0.6,0,-1,-0,0,0,69,29,97,506,0.0,115,136,60,119.0,0,1,0,0,0,0,0,0,250,250,0,,,,,
63984,1558278143648,0.8,0.02,0.6,0,-1,-0,0,0,69,29,97,506,0.0,115,136,60,119.0,0,1,0,0,0,0,0,0,250,250,0,,,,,
64004,1558278143668,0.8,0.01,0.6,0,-1,-0,0,0,69,29,97,506,0.0,116,136,60,119.0,0,1,0,0,0,0,0,0,250,250,0,,,,,
64024,1558278143688,0.8,0.01,0.6,0,-1,-0,0,0,69,29,97,506,0.0,116,134,60,119.0,0,1,0,0,0,0,0,0,250,250,0,,,,,
64044,1558278143708,0.8,0.01,0.6,0,-1,-0,0,0,69,29,97,506,0.0,116,134,60,119.0,0,1,0,0,0,0,0,0,250,250,0,45.699841,4.910074,0.0,679.2,0.0
64064,1558278143728,0.8,0.01,0.6,0,-1,-0,0,0,69,29,97,506,0.0,115,134,60,119.0,0,1,0,0,0,0,0,0,250,250,0,,,,,
64084,1558278143748,0.8,0.02,0.6,0,-1,-0,0,0,69,29,97,506,0.0,116,134,60,119.0,0,1,0,0,0,0,0,0,250,250,0,,,,,
64104,1558278143768,0.8,0.02,0.6,0,-1,-0,0,0,69,29,97,506,0.0,115,134,60,119.0,0,1,0,0,0,0,0,0,250,250,0,,,,,
64124,1558278143788,0.8,0.02,0.6,0,-1,-0,0,0,69,29,97,506,0.0,116,134,60,119.0,0,1,0,0,0,0,0,0,250,250,0,,,,,
64144,1558278143808,0.8,0.02,0.6,0,-1,-0,0,0,69,29,97,506,0.0,115,132,60,119.0,0,1,0,0,0,0,0,0,250,250,0,45.699841,4.910074,0.0,679.2,0.0
64164,1558278143828,0.8,0.02,0.6,0,-1,-0,0,0,69,29,97,506,0.0,115,132,60,119.0,0,1,0,0,0,0,0,0,250,250,0,,,,,
64184,1558278143848,0.8,0.02,0.6,0,-1,-0,0,0,69,29,97,506,0.0,116,131,60,119.0,0,1,0,0,0,0,0,0,250,250,0,,,,,
64204,1558278143868,0.8,0.02,0.6,0,-1,-0,0,0,69,29,97,506,0.0,116,131,60,119.0,0,1,0,0,0,0,0,0,250,250,0,,,,,
64224,1558278143888,0.8,0.02,0.6,0,-1,-0,0,0,69,29,97,506,0.0,115,131,60,119.0,0,1,0,0,0,0,0,0,250,250,0,,,,,
64244,1558278143908,0.8,0.02,0.6,0,-1,-0,0,0,69,29,97,506,0.0,116,131,60,119.0,0,1,0,0,0,0,0,0,250,250,0,45.699841,4.910074,0.0,679.2,0.0
64264,1558278143928,0.8,0.02,0.6,0,-1,-0,0,0,69,29,97,506,0.0,115,131,60,119.0,0,1,0,0,0,0,0,0,250,250,0,,,,,
64284,1558278143948,0.8,0.02,0.6,0,-1,-0,0,0,69,29,97,506,0.0,116,131,60,119.0,0,1,0,0,0,0,0,0,250,250,0,,,,,
64304,1558278143968,0.8,0.02,0.6,0,-1,-0,0,0,69,29,97,506,0.0,116,131,60,119.0,0,1,0,0,0,0,0,0,250,250,0,,,,,
64324,1558278143988,0.8,0.02,0.6,0,-1,-0,0,0,69,29,97,506,0.0,116,128,60,119.0,0,1,0,0,0,0,0,0,250,250,0,,,,,
64344,1558278144004,0.8,0.02,0.6,0,-1,-0,0,0,69,29,97,506,0.0,116,128,60,119.0,0,1,0,0,0,0,0,0,250,250,0,45.699841,4.910074,0.0,679.2,0.0
64364,1558278144024,0.8,0.02,0.6,0,-1,-0,0,0,69,29,97,506,0.0,116,128,60,119.0,0,1,0,0,0,0,0,0,250,250,0,,,,,
64384,1558278144044,0.8,0.02,0.6,0,-1,-0,0,0,69,29,97,506,0.0,116,128,60,119.0,0,1,0,0,0,0,0,0,250,250,0,,,,,
64404,1558278144064,0.8,0.02,0.6,0,-1,-0,0,0,69,29,97,506,0.0,115,128,60,119.0,0,1,0,0,0,0,0,0,250,250,0,,,,,
64424,1558278144084,0.8,0.02,0.6,0,-1,-0,0,0,69,29,97,506,0.0,116,128,60,119.0,0,1,0,0,0,0,0,0,250,250,0,,,,,
64444,1558278144107,0.8,0.02,0.6,0,-1,-0,0,0,69,29,97,506,0.0,115,128,60,119.0,0,1,0,0,0,0,0,0,250,250,0,45.699841,4.910074,0.0,679.2,0.0
64464,1558278144127,0.8,0.02,0.6,0,-1,-0,0,0,69,29,97,506,0.0,115,127,60,119.0,0,1,0,0,0,0,0,0,250,250,0,,,,,
64484,1558278144147,0.8,0.02,0.6,0,-1,-0,0,0,69,29,97,506,0.0,115,127,60,119.0,0,1,0,0,0,0,0,0,250,250,0,,,,,
64504,1558278144167,0.8,0.02,0.6,0,-1,-0,0,0,69,29,97,506,0.0,116,126,60,119.0,0,1,0,0,0,0,0,0,250,250,0,,,,,
64524,1558278144187,0.8,0.02,0.6,0,-1,-0,0,0,69,29,97,506,0.0,115,126,60,119.0,0,1,0,0,0,0,0,0,250,250,0,,,,,
64544,1558278144207,0.8,0.02,0.6,0,-1,-0,0,0,69,29,97,506,0.0,116,126,60,119.0,0,1,0,0,0,0,0,0,250,250,0,45.699841,4.910074,0.0,679.2,0.0
64564,1558278144227,0.8,0.02,0.6,0,-1,-0,0,0,69,29,97,506,0.0,116,126,60,119.0,0,1,0,0,0,0,0,0,250,250,0,,,,,
64584,1558278144247,0.8,0.02,0.6,0,-1,-0,0,0,69,29,97,506,0.0,115,126,60,119.0,0,1,0,0,0,0,0,0,250,250,0,,,,,
64604,1558278144267,0.8,0.02,0.6,0,-1,-0,0,0,69,29,97,506,0.0,115,126,60,119.0,0,1,0,0,0,0,0,0,250,250,0,,,,,
64624,1558278144287,0.8,0.02,0.6,0,-1,-0,0,0,69,29,97,506,0.0,115,126,60,119.0,0,1,0,0,0,0,0,0,250,250,0,,,,,
64644,1558278144307,0.8,0.02,0.6,0,-1,-0,0,0,69,29,97,506,0.0,115,126,60,119.0,0,1,0,0,0,0,0,0,250,250,0,45.699841,4.910074,0.0,679.2,0.0
64664,1558278144327,0.8,0.02,0.6,0,-1,-0,0,0,69,29,97,506,0.0,115,126,60,119.0,0,1,0,0,0,0,0,0,250,250,0,,,,,
64684,1558278144347,0.8,0.02,0.6,0,-1,-0,0,0,69,29,97,506,0.0,116,124,60,119.0,0,1,0,0,0,0,0,0,250,250,0,,,,,
64704,1558278144367,0.8,0.02,0.6,0,-1,-0,0,0,69,29,97,506,0.0,116,123,60,119.0,0,1,0,0,0,0,0,0,250,250,0,,,,,
64724,1558278144387,0.8,0.02,0.6,0,-1,-0,0,0,69,29,97,506,0.0,116,123,60,119.0,0,1,0,0,0,0,0,0,250,250,0,,,,,
64744,1558278144409,0.8,0.02,0.6,0,-1,-0,0,0,69,29,97,506,0.0,116,123,60,119.0,0,1,0,0,0,0,0,0,250,250,0,45.699841,4.910074,0.0,679.2,0.0
64764,1558278144429,0.8,0.02,0.6,0,-1,-0,0,0,69,29,97,506,0.0,115,123,60,119.0,0,1,0,0,0,0,0,0,250,250,0,,,,,
64784,1558278144449,0.8,0.02,0.6,0,-1,-0,0,0,69,29,97,506,0.0,116,123,60,119.0,0,1,0,0,0,0,0,0,250,250,0,,,,,
64804,1558278144469,0.8,0.02,0.6,0,-1,-0,0,0,69,29,97,506,0.0,116,123,60,119.0,0,1,0,0,0,0,0,0,250,250,0,,,,,
64824,1558278144489,0.8,0.02,0.6,0,-1,-0,0,0,69,29,97,506,0.0,116,122,60,119.0,0,1,0,0,0,0,0,0,250,250,0,,,,,
64844,1558278144507,0.8,0.02,0.6,0,-1,-0,0,0,69,29,97,506,0.0,116,122,60,119.0,0,1,0,0,0,0,0,0,250,250,0,45.699841,4.910074,0.0,679.2,0.0
64864,1558278144527,0.8,0.02,0.6,0,-1,-0,0,0,69,29,97,506,0.0,115,122,60,119.0,0,1,0,0,0,0,0,0,250,250,0,,,,,
64884,1558278144547,0.8,0.02,0.6,0,-1,-0,0,0,69,29,97,506,0.0,116,122,60,119.0,0,1,0,0,0,0,0,0,250,250,0,,,,,
64904,1558278144567,0.8,0.02,0.6,0,-1,-0,0,0,69,29,97,506,0.0,115,122,60,119.0,0,1,0,0,0,0,0,0,250,250,0,,,,,
64924,1558278144587,0.8,0.02,0.6,0,-1,-0,0,0,69,29,97,505,0.0,115,122,60,119.0,0,1,0,0,0,0,0,0,250,250,0,,,,,
64944,1558278144607,0.8,0.02,0.6,0,-1,-0,0,0,69,29,97,525,0.0,116,122,60,119.0,0,1,0,0,0,0,0,0,250,250,0,45.699841,4.910074,0.0,679.2,0.0
64964,1558278144627,0.8,0.02,0.6,0,-1,-0,0,0,69,29,97,546,0.0,115,121,60,119.0,0,1,0,0,0,0,0,0,250,250,0,,,,,
64984,1558278144647,0.8,0.02,0.6,0,-1,-0,0,0,69,29,97,566,0.0,116,121,60,119.0,0,1,0,0,0,0,0,0,250,250,0,,,,,
65004,1558278144667,0.8,0.02,0.6,0,-1,-0,0,0,69,29,97,586,0.0,115,121,60,119.0,0,1,0,0,0,0,0,0,250,250,0,,,,,
65024,1558278144687,0.8,0.02,0.6,0,-1,-0,0,0,69,29,97,607,0.0,115,121,60,119.0,0,1,0,0,0,0,0,0,250,250,0,,,,,
65044,1558278144709,0.8,0.02,0.6,0,-1,-0,0,0,69,29,97,627,0.0,115,121,60,119.0,0,1,0,0,0,0,0,0,250,250,0,45.699841,4.910074,0.0,679.2,0.0
65064,1558278144729,0.8,0.02,0.6,0,-1,-0,0,0,69,29,97,633,0.0,115,121,60,119.0,0,1,0,0,0,0,0,0,250,250,0,,,,,
65084,1558278144749,0.8,0.02,0.59,0,-1,-0,0,0,69,29,97,633,0.0,116,121,60,119.0,0,1,0,0,0,0,0,0,250,250,0,,,,,
65104,1558278144769,0.8,0.02,0.59,0,-1,-0,0,0,69,29,97,634,0.0,115,121,60,119.0,0,1,0,0,0,0,0,0,250,250,0,,,,,
65124,1558278144789,0.8,0.02,0.59,0,-1,-0,0,0,69,29,97,634,0.0,115,120,60,119.0,0,1,0,0,0,0,0,0,250,250,0,,,,,
65144,1558278144809,0.8,0.02,0.6,0,-1,-0,0,0,69,29,97,634,0.0,115,120,60,119.0,0,1,0,0,0,0,0,0,250,250,0,45.699841,4.910074,0.0,679.2,0.0
65164,1558278144829,0.8,0.01,0.6,0,-1,-0,0,0,69,29,97,634,0.0,115,120,60,119.0,0,1,0,0,0,0,0,0,250,250,0,,,,,
65184,1558278144849,0.8,0.01,0.59,0,-1,-0,0,0,69,29,97,634,0.0,115,120,60,119.0,0,1,0,0,0,0,0,0,250,250,0,,,,,
65204,1558278144869,0.8,0.01,0.59,0,-1,-0,0,0,69,29,97,634,0.0,115,120,60,119.0,0,1,0,0,0,0,0,0,250,250,0,,,,,
65224,1558278144889,0.8,0.02,0.6,0,-1,-0,0,0,69,29,97,635,0.0,115,120,60,119.0,0,1,0,0,0,0,0,0,250,250,0,,,,,
65244,1558278144909,0.8,0.02,0.6,0,-1,-0,0,0,69,29,97,635,0.0,115,120,60,119.0,0,1,0,0,0,0,0,0,250,250,0,45.699841,4.910074,0.0,679.2,0.0
65264,1558278144929,0.8,0.02,0.59,0,-1,-0,0,0,69,29,97,635,0.0,115,118,60,119.0,0,1,0,0,0,0,0,0,250,250,0,,,,,
65284,1558278144949,0.8,0.02,0.59,0,-1,-0,0,0,69,29,97,635,0.0,115,118,60,119.0,0,1,0,0,0,0,0,0,250,250,0,,,,,
65304,1558278144969,0.8,0.02,0.59,0,-1,-0,0,0,69,29,97,635,0.0,115,118,60,119.0,0,1,0,0,0,0,0,0,250,250,0,,,,,
65324,1558278144989,0.8,0.02,0.59,0,-1,-0,0,0,69,29,97,635,0.0,115,118,60,119.0,0,1,0,0,0,0,0,0,250,250,0,,,,,
65344,1558278145003,0.8,0.02,0.59,0,-1,-0,0,0,69,29,97,636,0.0,116,118,60,119.0,0,1,0,0,0,0,0,0,250,250,0,45.699841,4.910074,0.0,679.2,0.0
65364,1558278145023,0.8,0.02,0.59,0,-1,-0,0,0,69,29,97,636,0.0,115,118,60,119.0,0,1,0,0,0,0,0,0,250,250,0,,,,,
65384,1558278145043,0.8,0.02,0.59,0,-1,-0,0,0,69,29,97,636,0.0,115,118,60,119.0,0,1,0,0,0,0,0,0,250,250,0,,,,,
65404,1558278145063,0.8,0.02,0.59,0,-1,-0,0,0,69,29,97,636,0.0,116,117,60,119.0,0,1,0,0,0,0,0,0,250,250,0,,,,,
65424,1558278145083,0.8,0.02,0.59,0,-1,-0,0,0,69,29,97,636,0.0,115,117,60,119.0,0,1,0,0,0,0,0,0,250,250,0,,,,,
65444,1558278145108,0.8,0.02,0.59,0,-1,-0,0,0,69,29,97,636,0.0,116,117,60,119.0,0,1,0,0,0,0,0,0,250,250,0,45.699841,4.910074,0.0,679.2,0.0
65464,1558278145128,0.8,0.02,0.59,0,-1,-0,0,0,69,29,97,636,0.0,116,117,60,119.0,0,1,0,0,0,0,0,0,250,250,0,,,,,
65484,1558278145148,0.8,0.02,0.6,0,-1,-0,0,0,69,29,97,636,0.0,116,117,60,119.0,0,1,0,0,0,0,0,0,250,250,0,,,,,
65504,1558278145168,0.8,0.02,0.6,0,-1,-0,0,0,69,29,97,637,0.0,116,117,60,119.0,0,1,0,0,0,0,0,0,250,250,0,,,,,
65524,1558278145188,0.8,0.02,0.59,0,-1,-0,0,0,69,29,97,637,0.0,116,117,60,119.0,0,1,0,0,0,0,0,0,250,250,0,,,,,
65544,1558278145208,0.8,0.02,0.6,0,-1,-0,0,0,69,29,97,637,0.0,115,117,60,119.0,0,1,0,0,0,0,0,0,250,250,0,45.699841,4.910074,0.0,679.2,0.0
65564,1558278145228,0.8,0.02,0.6,0,-1,-0,0,0,69,29,97,637,0.0,115,117,60,119.0,0,1,0,0,0,0,0,0,250,250,0,,,,,
65584,1558278145248,0.8,0.02,0.6,0,-1,-0,0,0,69,29,97,637,0.0,115,117,60,119.0,0,1,0,0,0,0,0,0,250,250,0,,,,,
65604,1558278145268,0.8,0.02,0.6,0,-1,-0,0,0,69,29,97,637,0.0,115,116,60,119.0,0,1,0,0,0,0,0,0,250,250,0,,,,,
65624,1558278145288,0.8,0.02,0.6,0,-1,-0,0,0,69,29,97,637,0.0,116,116,60,119.0,0,1,0,0,0,0,0,0,250,250,0,,,,,
65644,1558278145308,0.8,0.02,0.6,0,-1,-0,0,0,69,29,97,637,0.0,115,116,60,119.0,0,1,0,0,0,0,0,0,250,250,0,45.699841,4.910074,0.0,679.2,0.0
65664,1558278145328,0.8,0.02,0.6,0,-1,-0,0,0,69,29,97,637,0.0,115,116,60,119.0,0,1,0,0,0,0,0,0,250,250,0,,,,,
65684,1558278145348,0.8,0.02,0.6,0,-1,-0,0,0,69,29,97,637,0.0,115,116,60,119.0,0,1,0,0,0,0,0,0,250,250,0,,,,,
65704,1558278145368,0.8,0.02,0.6,0,-1,-0,0,0,69,29,97,637,0.0,116,116,60,119.0,0,1,0,0,0,0,0,0,250,250,0,,,,,
65724,1558278145388,0.8,0.02,0.6,0,-1,-0,0,0,69,29,97,637,0.0,115,116,60,119.0,0,1,0,0,0,0,0,0,250,250,0,,,,,
65744,1558278145408,0.8,0.02,0.6,0,-1,-0,0,0,69,29,97,637,0.0,116,115,60,119.0,0,1,0,0,0,0,0,0,250,250,0,45.699841,4.910074,0.0,679.2,0.0
65764,1558278145428,0.8,0.02,0.6,0,-1,-0,0,0,69,29,97,637,0.0,116,116,60,119.0,0,1,0,0,0,0,0,0,250,250,0,,,,,
65784,1558278145448,0.8,0.02,0.6,0,-1,-0,0,0,69,29,97,638,0.0,115,116,60,119.0,0,1,0,0,0,0,0,0,250,250,0,,,,,
65804,1558278145468,0.8,0.02,0.6,0,-1,-0,0,0,69,29,97,638,0.0,116,115,60,119.0,0,1,0,0,0,0,0,0,250,250,0,,,,,
65824,1558278145488,0.8,0.02,0.6,0,-1,-0,0,0,69,29,97,638,0.0,115,115,60,119.0,0,1,0,0,0,0,0,0,250,250,0,,,,,
65844,1558278145508,0.8,0.02,0.6,0,-1,-0,0,0,69,29,97,638,0.0,115,115,60,119.0,0,1,0,0,0,0,0,0,250,250,0,45.699841,4.910074,0.0,679.2,0.0
65864,1558278145528,0.8,0.02,0.6,0,-1,-0,0,0,69,29,97,638,0.0,115,115,60,119.0,0,1,0,0,0,0,0,0,250,250,0,,,,,
65884,1558278145548,0.8,0.02,0.6,0,-1,-0,0,0,69,29,97,638,0.0,115,115,60,119.0,0,1,0,0,0,0,0,0,250,250,0,,,,,
65904,1558278145568,0.8,0.02,0.6,0,-1,-0,0,0,69,29,97,638,0.0,115,115,60,119.0,0,1,0,0,0,0,0,0,250,250,0,,,,,
65924,1558278145588,0.8,0.02,0.6,0,-1,-0,0,0,69,29,97,638,0.0,115,115,60,119.0,0,1,0,0,0,0,0,0,250,250,0,,,,,
65944,1558278145605,0.8,0.02,0.6,0,-1,-0,0,0,69,29,97,639,0.0,115,115,60,119.0,0,1,0,0,0,0,0,0,250,250,0,45.699841,4.910074,0.0,679.2,0.0
65964,1558278145625,0.8,0.02,0.6,0,-1,-0,0,0,69,29,97,639,0.0,115,115,60,119.0,0,1,0,0,0,0,0,0,250,250,0,,,,,
65984,1558278145645,0.8,0.02,0.6,0,-1,-0,0,0,69,29,97,639,0.0,116,115,60,119.0,0,1,0,0,0,0,0,0,250,250,0,,,,,
66004,1558278145665,0.8,0.02,0.6,0,-1,-0,0,0,69,29,97,639,0.0,116,115,60,119.0,0,1,0,0,0,0,0,0,250,250,0,,,,,
66024,1558278145685,0.8,0.02,0.6,0,-1,-0,0,0,69,29,97,639,0.0,116,115,60,119.0,0,1,0,0,0,0,0,0,250,250,0,,,,,
66044,1558278145708,0.8,0.02,0.6,0,-1,-0,0,0,69,29,97,639,0.0,116,115,60,119.0,0,1,0,0,0,0,0,0,250,250,0,45.699841,4.910074,0.0,679.2,0.0
66064,1558278145728,0.8,0.02,0.6,0,-1,-0,0,0,69,29,97,639,0.0,116,115,60,119.0,0,1,0,0,0,0,0,0,250,250,0,,,,,
66084,1558278145748,0.8,0.02,0.6,0,-1,-0,0,0,69,29,97,639,0.0,116,115,60,119.0,0,1,0,0,0,0,0,0,250,250,0,,,,,
66104,1558278145768,0.8,0.02,0.6,0,-1,-0,0,0,69,29,97,640,0.0,115,115,60,119.0,0,1,0,0,0,0,0,0,250,250,0,,,,,
66124,1558278145788,0.8,0.02,0.6,0,-1,-0,0,0,69,29,97,640,0.0,115,114,60,119.0,0,1,0,0,0,0,0,0,250,250,0,,,,,
66144,1558278145808,0.8,0.02,0.6,0,-1,-0,0,0,69,29,97,640,0.0,116,114,60,119.0,0,1,0,0,0,0,0,0,250,250,0,45.699841,4.910074,0.0,679.2,0.0
66164,1558278145828,0.8,0.02,0.6,0,-1,-0,0,0,69,29,97,640,0.0,116,114,60,119.0,0,1,0,0,0,0,0,0,250,250,0,,,,,
66184,1558278145848,0.8,0.02,0.6,0,-1,-0,0,0,69,29,97,640,0.0,115,114,60,119.0,0,1,0,0,0,0,0,0,250,250,0,,,,,
66204,1558278145868,0.8,0.02,0.6,0,-1,-0,0,0,69,29,97,640,0.0,116,113,60,119.0,0,1,0,0,0,0,0,0,250,250,0,,,,,
66224,1558278145888,0.8,0.02,0.6,0,-1,-0,0,0,69,29,97,640,0.0,116,113,60,119.0,0,1,0,0,0,0,0,0,250,250,0,,,,,
66244,1558278145908,0.8,0.02,0.6,0,-1,-0,0,0,69,29,97,640,0.0,116,113,60,119.0,0,1,0,0,0,0,0,0,250,250,0,45.699841,4.910074,0.0,679.2,0.0
66264,1558278145928,0.8,0.02,0.6,0,-1,-0,0,0,69,29,97,641,0.0,115,112,60,119.0,0,1,0,0,0,0,0,0,250,250,0,,,,,
66284,1558278145948,0.8,0.02,0.6,0,-1,-0,0,0,69,29,97,641,0.0,116,113,60,119.0,0,1,0,0,0,0,0,0,250,250,0,,,,,
66304,1558278145968,0.8,0.02,0.6,0,-1,-0,0,0,69,29,97,641,0.0,115,113,60,119.0,0,1,0,0,0,0,0,0,250,250,0,,,,,
66324,1558278145988,0.8,0.02,0.6,0,-1,-0,0,0,69,29,97,641,0.0,116,112,60,119.0,0,1,0,0,0,0,0,0,250,250,0,,,,,
66344,1558278146002,0.8,0.02,0.6,0,-1,-0,0,0,69,29,97,641,0.0,116,112,60,119.0,0,1,0,0,0,0,0,0,250,250,0,45.699841,4.910074,0.0,679.2,0.0
66364,1558278146022,0.8,0.02,0.6,0,-1,-0,0,0,69,29,97,641,0.0,115,112,60,119.0,0,1,0,0,0,0,0,0,250,250,0,,,,,
66384,1558278146042,0.8,0.02,0.6,0,-1,-0,0,0,69,29,97,641,0.0,115,112,60,119.0,0,1,0,0,0,0,0,0,250,250,0,,,,,
66404,1558278146062,0.8,0.02,0.6,0,-1,-0,0,0,69,29,97,641,0.0,116,112,60,119.0,0,1,0,0,0,0,0,0,250,250,0,,,,,
66424,1558278146082,0.8,0.02,0.6,0,-1,-0,0,0,69,29,97,641,0.0,115,112,60,119.0,0,1,0,0,0,0,0,0,250,250,0,,,,,
66444,1558278146109,0.8,0.02,0.6,0,-1,-0,0,0,69,29,97,641,0.0,115,112,60,119.0,0,1,0,0,0,0,0,0,250,250,0,45.699841,4.910074,0.0,679.2,0.0
66464,1558278146129,0.8,0.02,0.59,0,-1,-0,0,0,69,29,97,641,0.0,116,112,60,119.0,0,1,0,0,0,0,0,0,250,250,0,,,,,
66484,1558278146149,0.8,0.02,0.59,0,-1,-0,0,0,69,29,97,642,0.0,115,112,60,119.0,0,1,0,0,0,0,0,0,250,250,0,,,,,
66504,1558278146169,0.8,0.02,0.6,0,-1,-0,0,0,69,29,97,642,0.0,115,112,60,119.0,0,1,0,0,0,0,0,0,250,250,0,,,,,
66524,1558278146189,0.8,0.02,0.6,0,-1,-0,0,0,69,29,97,642,0.0,116,112,60,119.0,0,1,0,0,0,0,0,0,250,250,0,,,,,
66544,1558278146209,0.8,0.02,0.6,0,-1,-0,0,0,69,29,97,642,0.0,115,112,60,119.0,0,1,0,0,0,0,0,0,250,250,0,45.699841,4.910074,0.0,679.2,0.0
66564,1558278146229,0.8,0.02,0.6,0,-1,-0,0,0,69,29,97,642,0.0,116,112,60,119.0,0,1,0,0,0,0,0,0,250,250,0,,,,,
66584,1558278146249,0.8,0.02,0.6,0,-1,-0,0,0,69,29,97,642,0.0,116,112,60,119.0,0,1,0,0,0,0,0,0,250,250,0,,,,,
66604,1558278146269,0.8,0.02,0.6,0,-1,-0,0,0,69,29,97,642,0.0,116,112,60,119.0,0,1,0,0,0,0,0,0,250,250,0,,,,,
66624,1558278146289,0.8,0.02,0.6,0,-1,-0,0,0,69,29,97,642,0.0,115,112,60,119.0,0,1,0,0,0,0,0,0,250,250,0,,,,,
66644,1558278146309,0.8,0.02,0.6,0,-1,-0,0,0,69,29,97,643,0.0,115,112,60,119.0,0,1,0,0,0,0,0,0,250,250,0,45.699841,4.910074,0.0,679.2,0.0
66664,1558278146329,0.8,0.02,0.6,0,-1,-0,0,0,69,29,97,643,0.0,116,112,60,119.0,0,1,0,0,0,0,0,0,250,250,0,,,,,
66684,1558278146349,0.8,0.02,0.6,0,-1,-0,0,0,69,29,97,643,0.0,116,112,60,119.0,0,1,0,0,0,0,0,0,250,250,0,,,,,
66704,1558278146369,0.8,0.02,0.59,0,-1,-0,0,0,69,29,97,643,0.0,115,112,60,119.0,0,1,0,0,0,0,0,0,250,250,0,,,,,
66724,1558278146389,0.8,0.02,0.6,0,-1,-0,0,0,69,29,97,643,0.0,115,112,60,119.0,0,1,0,0,0,0,0,0,250,250,0,,,,,
66744,1558278146410,0.8,0.02,0.6,0,-1,-0,0,0,69,29,97,643,0.0,115,111,60,119.0,0,1,0,0,0,0,0,0,250,250,0,45.699841,4.910074,0.0,679.2,0.0
66764,1558278146430,0.8,0.02,0.6,0,-1,-0,0,0,69,29,97,643,0.0,116,111,60,119.0,0,1,0,0,0,0,0,0,250,250,0,,,,,
66784,1558278146450,0.8,0.02,0.6,0,-1,-0,0,0,69,29,97,643,0.0,115,111,60,119.0,0,1,0,0,0,0,0,0,250,250,0,,,,,
66804,1558278146470,0.8,0.02,0.6,0,-1,-0,0,0,69,29,97,643,0.0,115,111,60,119.0,0,1,0,0,0,0,0,0,250,250,0,,,,,
66824,1558278146490,0.8,0.02,0.6,0,-1,-0,0,0,69,29,97,644,0.0,116,111,60,119.0,0,1,0,0,0,0,0,0,250,250,0,,,,,
66844,1558278146509,0.8,0.02,0.6,0,-1,-0,0,0,69,29,97,644,0.0,116,111,60,119.0,0,1,0,0,0,0,0,0,250,250,0,45.699841,4.910074,0.0,679.2,0.0
66864,1558278146529,0.8,0.02,0.6,0,-1,-0,0,0,69,29,97,644,0.0,116,111,60,119.0,0,1,0,0,0,0,0,0,250,250,0,,,,,
66884,1558278146549,0.8,0.02,0.6,0,-1,-0,0,0,69,29,97,644,0.0,116,111,60,119.0,0,1,0,0,0,0,0,0,250,250,0,,,,,
66904,1558278146569,0.8,0.02,0.6,0,-1,-0,0,0,69,29,97,644,0.0,116,111,60,119.0,0,1,0,0,0,0,0,0,250,250,0,,,,,
66924,1558278146589,0.8,0.02,0.6,0,-1,-0,0,0,69,29,97,644,0.0,116,111,60,119.0,0,1,0,0,0,0,0,0,250,250,0,,,,,
66944,1558278146609,0.8,0.02,0.6,0,-1,-0,0,0,69,29,97,644,0.0,115,111,60,119.0,0,1,0,0,0,0,0,0,250,250,0,45.699841,4.910074,0.0,679.2,0.0
66964,1558278146629,0.8,0.02,0.6,0,-1,-0,0,0,69,29,97,644,0.0,115,111,60,119.0,0,1,0,0,0,0,0,0,250,250,0,,,,,
66984,1558278146649,0.8,0.02,0.6,0,-1,-0,0,0,69,29,97,645,0.0,115,111,60,119.0,0,1,0,0,0,0,0,0,250,250,0,,,,,
67004,1558278146669,0.8,0.02,0.59,0,-1,-0,0,0,69,29,97,645,0.0,116,111,60,119.0,0,1,0,0,0,0,0,0,250,250,0,,,,,
67024,1558278146689,0.8,0.02,0.59,0,-1,-0,0,0,69,29,97,645,0.0,116,111,60,119.0,0,1,0,0,0,0,0,0,250,250,0,,,,,
67044,1558278146709,0.8,0.02,0.59,0,-1,-0,0,0,69,29,97,645,0.0,115,111,60,119.0,0,1,0,0,0,0,0,0,250,250,0,45.699841,4.910074,0.0,679.2,0.0
67064,1558278146729,0.8,0.02,0.59,0,-1,-0,0,0,69,29,97,645,0.0,116,111,60,119.0,0,1,0,0,0,0,0,0,250,250,0,,,,,
67084,1558278146749,0.8,0.02,0.6,0,-1,-0,0,0,69,29,97,645,0.0,115,111,60,119.0,0,1,0,0,0,0,0,0,250,250,0,,,,,
67104,1558278146769,0.8,0.02,0.6,0,-1,-0,0,0,69,29,97,645,0.0,115,111,60,119.0,0,1,0,0,0,0,0,0,250,250,0,,,,,
67124,1558278146789,0.8,0.02,0.6,0,-1,-0,0,0,69,29,97,645,0.0,116,110,60,119.0,0,1,0,0,0,0,0,0,250,250,0,,,,,
67144,1558278146809,0.8,0.02,0.6,0,-1,-0,0,0,69,29,97,646,0.0,116,110,60,119.0,0,1,0,0,0,0,0,0,250,250,0,45.699841,4.910074,0.0,679.2,0.0
67164,1558278146829,0.8,0.02,0.6,0,-1,-0,0,0,69,29,97,646,0.0,116,110,60,119.0,0,1,0,0,0,0,0,0,250,250,0,,,,,
67184,1558278146849,0.8,0.02,0.59,0,-1,-0,0,0,69,29,97,646,0.0,115,110,60,119.0,0,1,0,0,0,0,0,0,250,250,0,,,,,
67204,1558278146869,0.8,0.02,0.59,0,-1,-0,0,0,69,29,97,646,0.0,116,110,60,119.0,0,1,0,0,0,0,0,0,250,250,0,,,,,
67224,1558278146889,0.8,0.02,0.59,0,-1,-0,0,0,69,29,97,646,0.0,116,110,60,119.0,0,1,0,0,0,0,0,0,250,250,0,,,,,
67244,1558278146909,0.8,0.02,0.59,0,-1,-0,0,0,69,29,97,646,0.0,115,110,60,119.0,0,1,0,0,0,0,0,0,250,250,0,45.699841,4.910074,0.0,679.2,0.0
67264,1558278146929,0.8,0.02,0.6,0,-1,-0,0,0,69,29,97,646,0.0,116,110,60,119.0,0,1,0,0,0,0,0,0,250,250,0,,,,,
67284,1558278146949,0.8,0.02,0.6,0,-1,-0,0,0,69,29,97,646,0.0,115,110,60,119.0,0,1,0,0,0,0,0,0,250,250,0,,,,,
67304,1558278146969,0.8,0.02,0.6,0,-1,-0,0,0,69,29,97,646,0.0,115,110,60,119.0,0,1,0,0,0,0,0,0,250,250,0,,,,,
67324,1558278146989,0.8,0.02,0.6,0,-1,-0,0,0,69,29,97,646,0.0,115,110,60,119.0,0,1,0,0,0,0,0,0,250,250,0,,,,,
67344,1558278147003,0.8,0.02,0.6,0,-1,-0,0,0,69,29,97,647,0.0,115,110,60,119.0,0,1,0,0,0,0,0,0,250,250,0,45.699841,4.910074,0.0,679.2,0.0
67364,1558278147023,0.8,0.02,0.59,0,-1,-0,0,0,69,29,97,647,0.0,115,110,60,119.0,0,1,0,0,0,0,0,0,250,250,0,,,,,
67384,1558278147043,0.8,0.02,0.59,0,-1,-0,0,0,69,29,97,647,0.0,116,110,60,119.0,0,1,0,0,0,0,0,0,250,250,0,,,,,
67404,1558278147063,0.8,0.02,0.59,0,-1,-0,0,0,69,29,97,647,0.0,115,110,60,119.0,0,1,0,0,0,0,0,0,250,250,0,,,,,
67424,1558278147083,0.8,0.02,0.59,0,-1,-0,0,0,69,29,97,647,0.0,115,110,60,119.0,0,1,0,0,0,0,0,0,250,250,0,,,,,
67444,1558278147108,0.8,0.02,0.6,0,-1,-0,0,0,69,29,97,647,0.0,116,110,60,119.0,0,1,0,0,0,0,0,0,250,250,0,45.699841,4.910074,0.0,679.2,0.0
67464,1558278147128,0.8,0.02,0.6,0,-1,-0,0,0,69,29,97,647,0.0,115,110,60,119.0,0,1,0,0,0,0,0,0,250,250,0,,,,,
67484,1558278147148,0.8,0.02,0.6,0,-1,-0,0,0,69,29,97,647,0.0,116,110,60,119.0,0,1,0,0,0,0,0,0,250,250,0,,,,,
67504,1558278147168,0.8,0.02,0.6,0,-1,-0,0,0,69,29,97,647,0.0,116,110,60,119.0,0,1,0,0,0,0,0,0,250,250,0,,,,,
67524,1558278147188,0.8,0.02,0.6,0,-1,-0,0,0,69,29,97,648,0.0,115,110,60,119.0,0,1,0,0,0,0,0,0,250,250,0,,,,,
67544,1558278147210,0.8,0.02,0.6,0,-1,-0,0,0,69,29,97,648,0.0,115,110,60,119.0,0,1,0,0,0,0,0,0,250,250,0,45.699841,4.910074,0.0,679.2,0.0
67564,1558278147230,0.8,0.02,0.6,0,-1,-0,0,0,69,29,97,648,0.0,116,110,60,119.0,0,1,0,0,0,0,0,0,250,250,0,,,,,
67584,1558278147250,0.8,0.02,0.6,0,-1,-0,0,0,69,29,97,648,0.0,115,110,60,119.0,0,1,0,0,0,0,0,0,250,250,0,,,,,
67604,1558278147270,0.8,0.02,0.6,0,-1,-0,0,0,69,29,97,648,0.0,116,110,60,119.0,0,1,0,0,0,0,0,0,250,250,0,,,,,
67624,1558278147290,0.8,0.02,0.6,0,-1,-0,0,0,69,29,97,648,0.0,115,110,60,119.0,0,1,0,0,0,0,0,0,250,250,0,,,,,
67644,1558278147308,0.8,0.02,0.6,0,-1,-0,0,0,69,29,97,648,0.0,115,109,60,119.0,0,1,0,0,0,0,0,0,250,250,0,45.699841,4.910074,0.0,679.2,0.0
67664,1558278147328,0.8,0.02,0.6,0,-1,-0,0,0,69,29,97,648,0.0,116,109,60,119.0,0,1,0,0,0,0,0,0,250,250,0,,,,,
67684,1558278147348,0.8,0.02,0.6,0,-1,-0,0,0,69,29,97,649,0.0,115,109,60,119.0,0,1,0,0,0,0,0,0,250,250,0,,,,,
67704,1558278147368,0.8,0.02,0.6,0,-1,-0,0,0,69,29,97,649,0.0,115,108,60,119.0,0,1,0,0,0,0,0,0,250,250,0,,,,,
67724,1558278147388,0.8,0.02,0.6,0,-1,-0,0,0,69,29,97,649,0.0,116,108,60,119.0,0,1,0,0,0,0,0,0,250,250,0,,,,,
67744,1558278147408,0.8,0.02,0.6,0,-1,-0,0,0,69,29,97,649,0.0,115,108,60,119.0,0,1,0,0,0,0,0,0,250,250,0,45.699841,4.910074,0.0,679.2,0.0
67764,1558278147428,0.8,0.02,0.6,0,-1,-0,0,0,69,29,97,649,0.0,115,108,60,119.0,0,1,0,0,0,0,0,0,250,250,0,,,,,
67784,1558278147448,0.8,0.02,0.59,0,-1,-0,0,0,69,29,97,649,0.0,115,108,60,119.0,0,1,0,0,0,0,0,0,250,250,0,,,,,
67804,1558278147468,0.8,0.02,0.59,0,-1,-0,0,0,69,29,97,649,0.0,116,108,60,119.0,0,1,0,0,0,0,0,0,250,250,0,,,,,
67824,1558278147488,0.8,0.02,0.59,0,-1,-0,0,0,69,29,97,649,0.0,116,108,60,119.0,0,1,0,0,0,0,0,0,250,250,0,,,,,
67844,1558278147508,0.8,0.02,0.59,0,-1,-0,0,0,69,29,97,649,0.0,115,107,60,119.0,0,1,0,0,0,0,0,0,250,250,0,45.699841,4.910074,0.0,679.2,0.0
67864,1558278147528,0.8,0.02,0.59,0,-1,-0,0,0,69,29,97,649,0.0,115,107,60,119.0,0,1,0,0,0,0,0,0,250,250,0,,,,,
67884,1558278147548,0.8,0.02,0.6,0,-1,-0,0,0,69,29,97,649,0.0,115,107,60,119.0,0,1,0,0,0,0,0,0,250,250,0,,,,,
67904,1558278147568,0.8,0.02,0.6,0,-1,-0,0,0,69,29,97,649,0.0,116,107,60,119.0,0,1,0,0,0,0,0,0,250,250,0,,,,,
67924,1558278147588,0.8,0.02,0.6,0,-1,-0,0,0,69,29,97,649,0.0,116,107,60,119.0,0,1,0,0,0,0,0,0,250,250,0,,,,,
67944,1558278147608,0.8,0.02,0.59,0,-1,-0,0,0,69,29,97,649,0.0,116,107,60,119.0,0,1,0,0,0,0,0,0,250,250,0,45.699841,4.910074,0.0,679.2,0.0
67964,1558278147628,0.8,0.02,0.59,0,-1,-0,0,0,69,29,97,650,0.0,116,107,60,119.0,0,1,0,0,0,0,0,0,250,250,0,,,,,
67984,1558278147648,0.8,0.02,0.59,0,-1,-0,0,0,69,29,97,650,0.0,116,107,60,119.0,0,1,0,0,0,0,0,0,250,250,0,,,,,
68004,1558278147668,0.8,0.02,0.59,0,-1,-0,0,0,69,29,97,650,0.0,115,107,60,119.0,0,1,0,0,0,0,0,0,250,250,0,,,,,
68024,1558278147688,0.8,0.02,0.59,0,-1,-0,0,0,69,29,97,650,0.0,115,107,60,119.0,0,1,0,0,0,0,0,0,250,250,0,,,,,
68044,1558278147708,0.8,0.02,0.59,0,-1,-0,0,0,69,29,97,650,0.0,116,107,60,119.0,0,1,0,0,0,0,0,0,250,250,0,45.699841,4.910074,0.0,679.2,0.0
68064,1558278147728,0.8,0.02,0.6,0,-1,-0,0,0,69,29,97,650,0.0,116,107,60,119.0,0,1,0,0,0,0,0,0,250,250,0,,,,,
68084,1558278147748,0.8,0.02,0.59,0,-1,-0,0,0,69,29,97,650,0.0,116,107,60,119.0,0,1,0,0,0,0,0,0,250,250,0,,,,,
68104,1558278147768,0.8,0.02,0.6,0,-1,-0,0,0,69,29,97,650,0.0,116,107,60,119.0,0,1,0,0,0,0,0,0,250,250,0,,,,,
68124,1558278147788,0.8,0.02,0.59,0,-1,-0,0,0,69,29,97,650,0.0,116,107,60,119.0,0,1,0,0,0,0,0,0,250,250,0,,,,,
68144,1558278147810,0.8,0.02,0.59,0,-1,-0,0,0,69,29,97,650,0.0,115,107,60,119.0,0,1,0,0,0,0,0,0,250,250,0,45.699841,4.910074,0.0,679.2,0.0
68164,1558278147830,0.8,0.02,0.59,0,-1,-0,0,0,69,29,97,650,0.0,115,107,60,119.0,0,1,0,0,0,0,0,0,250,250,0,,,,,
68184,1558278147850,0.8,0.02,0.59,0,-1,-0,0,0,69,29,97,650,0.0,115,107,60,119.0,0,1,0,0,0,0,0,0,250,250,0,,,,,
68204,1558278147870,0.8,0.02,0.59,0,-1,-0,0,0,69,29,97,650,0.0,116,107,60,119.0,0,1,0,0,0,0,0,0,250,250,0,,,,,
68224,1558278147890,0.8,0.02,0.59,0,-1,-0,0,0,69,29,97,650,0.0,116,107,60,119.0,0,1,0,0,0,0,0,0,250,250,0,,,,,
68244,1558278147910,0.8,0.02,0.59,0,-1,-0,0,0,69,29,97,650,0.0,116,107,60,119.0,0,1,0,0,0,0,0,0,250,250,0,45.699841,4.910074,0.0,679.2,0.0
68264,1558278147930,0.8,0.02,0.59,0,-1,-0,0,0,69,29,97,650,0.0,116,107,60,119.0,0,1,0,0,0,0,0,0,250,250,0,,,,,
68284,1558278147950,0.8,0.02,0.59,0,-1,-0,0,0,69,29,97,650,0.0,115,107,60,119.0,0,1,0,0,0,0,0,0,250,250,0,,,,,
68304,1558278147970,0.8,0.02,0.59,0,-1,-0,0,0,69,29,97,651,0.0,116,107,60,119.0,0,1,0,0,0,0,0,0,250,250,0,,,,,
68324,1558278147990,0.8,0.01,0.59,0,-1,-0,0,0,69,29,97,651,0.0,115,107,60,119.0,0,1,0,0,0,0,0,0,250,250,0,,,,,
68344,1558278148004,0.8,0.01,0.59,0,-1,-0,0,0,69,29,97,651,0.0,115,107,60,119.0,0,1,0,0,0,0,0,0,250,250,0,45.699841,4.910074,0.0,679.2,0.0
68364,1558278148024,0.8,0.01,0.59,0,-1,-0,0,0,69,29,97,651,0.0,116,107,60,119.0,0,1,0,0,0,0,0,0,250,250,0,,,,,
68384,1558278148044,0.8,0.01,0.6,0,-1,-0,0,0,69,29,97,651,0.0,115,107,60,119.0,0,1,0,0,0,0,0,0,250,250,0,,,,,
68404,1558278148064,0.8,0.01,0.6,0,-1,-0,0,0,69,29,97,652,0.0,115,107,60,119.0,0,1,0,0,0,0,0,0,250,250,0,,,,,
68424,1558278148084,0.8,0.01,0.6,0,-1,-0,0,0,69,29,97,652,0.0,116,107,60,119.0,0,1,0,0,0,0,0,0,250,250,0,,,,,
68444,1558278148109,0.8,0.02,0.6,0,-1,-0,0,0,69,29,97,652,0.0,115,107,60,119.0,0,1,0,0,0,0,0,0,250,250,0,45.699841,4.910074,0.0,679.2,0.0
68464,1558278148129,0.8,0.02,0.6,0,-1,-0,0,0,69,29,97,652,0.0,116,107,60,119.0,0,1,0,0,0,0,0,0,250,250,0,,,,,
68484,1558278148149,0.8,0.02,0.6,0,-1,-0,0,0,69,29,97,652,0.0,116,107,60,119.0,0,1,0,0,0,0,0,0,250,250,0,,,,,
68504,1558278148169,0.8,0.02,0.6,0,-1,-0,0,0,69,29,97,652,0.0,116,107,60,119.0,0,1,0,0,0,0,0,0,250,250,0,,,,,
68524,1558278148189,0.8,0.02,0.6,0,-1,-0,0,0,69,29,97,652,0.0,115,107,60,119.0,0,1,0,0,0,0,0,0,250,250,0,,,,,
68544,1558278148209,0.8,0.02,0.6,0,-1,-0,0,0,69,29,97,652,0.0,115,107,60,119.0,0,1,0,0,0,0,0,0,250,250,0,45.699841,4.910074,0.0,679.2,0.0
68564,1558278148229,0.8,0.02,0.6,0,-1,-0,0,0,69,29,97,652,0.0,115,107,60,119.0,0,1,0,0,0,0,0,0,250,250,0,,,,,
68584,1558278148249,0.8,0.02,0.6,0,-1,-0,0,0,69,29,97,652,0.0,115,107,60,119.0,0,1,0,0,0,0,0,0,250,250,0,,,,,
68604,1558278148269,0.8,0.02,0.6,0,-1,-0,0,0,69,29,97,652,0.0,115,107,60,119.0,0,1,0,0,0,0,0,0,250,250,0,,,,,
68624,1558278148289,0.8,0.02,0.6,0,-1,-0,0,0,69,29,97,652,0.0,115,107,60,119.0,0,1,0,0,0,0,0,0,250,250,0,,,,,
68644,1558278148309,0.8,0.02,0.6,0,-1,-0,0,0,69,29,97,652,0.0,115,107,60,119.0,0,1,0,0,0,0,0,0,250,250,0,45.699841,4.910074,0.0,679.2,0.0
68664,1558278148329,0.8,0.02,0.6,0,-1,-0,0,0,69,29,97,652,0.0,116,107,60,119.0,0,1,0,0,0,0,0,0,250,250,0,,,,,
68684,1558278148349,0.8,0.02,0.6,0,-1,-0,0,0,69,29,97,653,0.0,115,107,60,119.0,0,1,0,0,0,0,0,0,250,250,0,,,,,
68704,1558278148369,0.8,0.02,0.6,0,-1,-0,0,0,69,29,97,653,0.0,115,107,60,119.0,0,1,0,0,0,0,0,0,250,250,0,,,,,
68724,1558278148389,0.8,0.02,0.6,0,-1,-0,0,0,69,29,97,653,0.0,115,107,60,119.0,0,1,0,0,0,0,0,0,250,250,0,,,,,
68744,1558278148409,0.8,0.02,0.6,0,-1,-0,0,0,69,29,97,653,0.0,115,107,60,119.0,0,1,0,0,0,0,0,0,250,250,0,45.699841,4.910074,0.0,679.2,0.0
68764,1558278148429,0.8,0.02,0.6,0,-1,-0,0,0,69,29,97,653,0.0,115,107,60,119.0,0,1,0,0,0,0,0,0,250,250,0,,,,,
68784,1558278148449,0.8,0.02,0.6,0,-1,-0,0,0,69,29,97,653,0.0,115,107,60,119.0,0,1,0,0,0,0,0,0,250,250,0,,,,,
68804,1558278148469,0.8,0.02,0.6,0,-1,-0,0,0,69,29,97,653,0.0,116,107,60,119.0,0,1,0,0,0,0,0,0,250,250,0,,,,,
68824,1558278148489,0.8,0.02,0.6,0,-1,-0,0,0,69,29,97,653,0.0,116,107,60,119.0,0,1,0,0,0,0,0,0,250,250,0,,,,,
68844,1558278148509,0.8,0.02,0.6,0,-1,-0,0,0,69,29,97,653,0.0,116,107,60,119.0,0,1,0,0,0,0,0,0,250,250,0,45.699841,4.910074,0.0,679.2,0.0
68864,1558278148529,0.8,0.02,0.6,0,-1,-0,0,0,69,29,97,653,0.0,116,107,60,119.0,0,1,0,0,0,0,0,0,250,250,0,,,,,
68884,1558278148549,0.8,0.02,0.6,0,-1,-0,0,0,69,29,97,653,0.0,116,107,60,119.0,0,1,0,0,0,0,0,0,250,250,0,,,,,
68904,1558278148569,0.8,0.02,0.6,0,-1,-0,0,0,69,29,97,654,0.0,116,107,60,119.0,0,1,0,0,0,0,0,0,250,250,0,,,,,
68924,1558278148589,0.8,0.02,0.6,0,-1,-0,0,0,69,29,97,654,0.0,115,107,60,119.0,0,1,0,0,0,0,0,0,250,250,0,,,,,
68944,1558278148609,0.8,0.02,0.6,0,-1,-0,0,0,69,29,97,654,0.0,115,107,60,119.0,0,1,0,0,0,0,0,0,250,250,0,45.699841,4.910074,0.0,679.2,0.0
68964,1558278148629,0.8,0.02,0.6,0,-1,-0,0,0,69,29,97,654,0.0,115,107,60,119.0,0,1,0,0,0,0,0,0,250,250,0,,,,,
68984,1558278148649,0.8,0.02,0.6,0,-1,-0,0,0,69,29,97,654,0.0,115,107,60,119.0,0,1,0,0,0,0,0,0,250,250,0,,,,,
69004,1558278148669,0.8,0.02,0.6,0,-1,-0,0,0,69,29,97,654,0.0,116,107,60,119.0,0,1,0,0,0,0,0,0,250,250,0,,,,,
69024,1558278148689,0.8,0.02,0.6,0,-1,-0,0,0,69,29,97,654,0.0,115,107,60,119.0,0,1,0,0,0,0,0,0,250,250,0,,,,,
69044,1558278148709,0.8,0.02,0.6,0,-1,-0,0,0,69,29,97,654,0.0,116,107,60,119.0,0,1,0,0,0,0,0,0,250,250,0,45.699841,4.910074,0.0,679.2,0.0
69064,1558278148729,0.8,0.02,0.6,0,-1,-0,0,0,69,29,97,654,0.0,116,107,60,119.0,0,1,0,0,0,0,0,0,250,250,0,,,,,
69084,1558278148749,0.8,0.02,0.6,0,-1,-0,0,0,69,29,97,654,0.0,115,106,60,119.0,0,1,0,0,0,0,0,0,250,250,0,,,,,
69104,1558278148769,0.8,0.02,0.6,0,-1,-0,0,0,69,29,97,654,0.0,115,106,60,119.0,0,1,0,0,0,0,0,0,250,250,0,,,,,
69124,1558278148789,0.8,0.02,0.6,0,-1,-0,0,0,69,29,97,654,0.0,115,106,60,119.0,0,1,0,0,0,0,0,0,250,250,0,,,,,
69144,1558278148810,0.8,0.02,0.6,0,-1,-0,0,0,69,29,97,654,0.0,115,106,60,119.0,0,1,0,0,0,0,0,0,250,250,0,45.699841,4.910074,0.0,679.2,0.0
69164,1558278148830,0.8,0.02,0.6,0,-1,-0,0,0,69,29,97,654,0.0,116,106,60,119.0,0,1,0,0,0,0,0,0,250,250,0,,,,,
69184,1558278148850,0.8,0.02,0.6,0,-1,-0,0,0,69,29,97,654,0.0,116,106,60,119.0,0,1,0,0,0,0,0,0,250,250,0,,,,,
69204,1558278148870,0.8,0.02,0.6,0,-1,-0,0,0,69,29,97,654,0.0,115,106,60,119.0,0,1,0,0,0,0,0,0,250,250,0,,,,,
69224,1558278148890,0.8,0.02,0.6,0,-1,-0,0,0,69,29,97,655,0.0,115,106,60,119.0,0,1,0,0,0,0,0,0,250,250,0,,,,,
69244,1558278148909,0.8,0.02,0.6,0,-1,-0,0,0,69,29,97,655,0.0,115,106,60,119.0,0,1,0,0,0,0,0,0,250,250,0,45.699841,4.910074,0.0,679.2,0.0
69264,1558278148929,0.8,0.02,0.6,0,-1,-0,0,0,69,29,97,655,0.0,116,106,60,119.0,0,1,0,0,0,0,0,0,250,250,0,,,,,
69284,1558278148949,0.8,0.01,0.6,0,-1,-0,0,0,69,29,97,655,0.0,115,105,60,119.0,0,1,0,0,0,0,0,0,250,250,0,,,,,
69304,1558278148969,0.8,0.01,0.6,0,-1,-0,0,0,69,29,97,655,0.0,115,105,60,119.0,0,1,0,0,0,0,0,0,250,250,0,,,,,
69324,1558278148989,0.8,0.02,0.6,0,-1,-0,0,0,69,29,97,655,0.0,115,105,60,119.0,0,1,0,0,0,0,0,0,250,250,0,,,,,
69344,1558278149003,0.8,0.02,0.6,0,-1,-0,0,0,69,29,97,655,0.0,115,105,60,119.0,0,1,0,0,0,0,0,0,250,250,0,45.699841,4.910074,0.0,679.2,0.0
69364,1558278149023,0.8,0.02,0.6,0,-1,-0,0,0,69,29,97,655,0.0,116,105,60,119.0,0,1,0,0,0,0,0,0,250,250,0,,,,,
69384,1558278149043,0.8,0.01,0.6,0,-1,-0,0,0,69,29,97,656,0.0,115,105,60,119.0,0,1,0,0,0,0,0,0,250,250,0,,,,,
69404,1558278149063,0.8,0.01,0.6,0,-1,-0,0,0,69,29,97,656,0.0,116,105,60,119.0,0,1,0,0,0,0,0,0,250,250,0,,,,,
69424,1558278149083,0.8,0.01,0.6,0,-1,-0,0,0,69,29,97,656,0.0,116,105,60,119.0,0,1,0,0,0,0,0,0,250,250,0,,,,,
69444,1558278149108,0.8,0.01,0.6,0,-1,-0,0,0,69,29,97,655,0.0,115,105,60,119.0,0,1,0,0,0,0,0,0,250,250,0,45.699841,4.910074,0.0,679.2,0.0
69464,1558278149128,0.8,0.02,0.6,0,-1,-0,0,0,69,29,97,655,0.0,115,105,60,119.0,0,1,0,0,0,0,0,0,250,250,0,,,,,
69484,1558278149148,0.8,0.01,0.6,0,-1,-0,0,0,69,29,97,655,0.0,115,105,60,119.0,0,1,0,0,0,0,0,0,250,250,0,,,,,
69504,1558278149168,0.8,0.02,0.6,0,-1,-0,0,0,69,29,97,655,0.0,115,105,60,119.0,0,1,0,0,0,0,0,0,250,250,0,,,,,
69524,1558278149188,0.8,0.02,0.6,0,-1,-0,0,0,69,29,97,655,0.0,115,105,60,119.0,0,1,0,0,0,0,0,0,250,250,0,,,,,
69544,1558278149208,0.8,0.02,0.6,0,-1,-0,0,0,69,29,97,655,0.0,115,105,60,119.0,0,1,0,0,0,0,0,0,250,250,0,45.699841,4.910074,0.0,679.2,0.0
69564,1558278149228,0.8,0.02,0.6,0,-1,-0,0,0,69,29,97,655,0.0,115,105,60,119.0,0,1,0,0,0,0,0,0,250,250,0,,,,,
69584,1558278149248,0.8,0.02,0.6,0,-1,-0,0,0,69,29,97,655,0.0,116,105,60,119.0,0,1,0,0,0,0,0,0,250,250,0,,,,,
69604,1558278149268,0.8,0.01,0.6,0,-1,-0,0,0,69,29,97,655,0.0,115,105,60,119.0,0,1,0,0,0,0,0,0,250,250,0,,,,,
69624,1558278149288,0.8,0.01,0.6,0,-1,-0,0,0,69,29,97,655,0.0,116,105,60,119.0,0,1,0,0,0,0,0,0,250,250,0,,,,,
69644,1558278149308,0.8,0.01,0.6,0,-1,-0,0,0,69,29,97,655,0.0,115,105,60,119.0,0,1,0,0,0,0,0,0,250,250,0,45.699841,4.910074,0.0,679.2,0.0
69664,1558278149328,0.8,0.02,0.6,0,-1,-0,0,0,69,29,97,655,0.0,115,105,60,119.0,0,1,0,0,0,0,0,0,250,250,0,,,,,
69684,1558278149348,0.8,0.02,0.6,0,-1,-0,0,0,69,29,97,656,0.0,116,105,60,119.0,0,1,0,0,0,0,0,0,250,250,0,,,,,
69704,1558278149368,0.8,0.02,0.6,0,-1,-0,0,0,69,29,97,656,0.0,115,105,60,119.0,0,1,0,0,0,0,0,0,250,250,0,,,,,
69724,1558278149388,0.8,0.02,0.6,0,-1,-0,0,0,69,29,97,656,0.0,115,105,60,119.0,0,1,0,0,0,0,0,0,250,250,0,,,,,
69744,1558278149408,0.8,0.02,0.6,0,-1,-0,0,0,69,29,97,656,0.0,115,105,60,119.0,0,1,0,0,0,0,0,0,250,250,0,45.699841,4.910074,0.0,679.2,0.0
69764,1558278149428,0.8,0.02,0.6,0,-1,-0,0,0,69,29,97,656,0.0,116,105,60,119.0,0,1,0,0,0,0,0,0,250,250,0,,,,,
69784,1558278149448,0.8,0.02,0.6,0,-1,-0,0,0,69,29,97,656,0.0,116,105,60,119.0,0,1,0,0,0,0,0,0,250,250,0,,,,,
69804,1558278149468,0.8,0.02,0.6,0,-1,-0,0,0,69,29,97,656,0.0,115,105,60,119.0,0,1,0,0,0,0,0,0,250,250,0,,,,,
69824,1558278149488,0.8,0.02,0.6,0,-1,-0,0,0,69,29,97,656,0.0,115,105,60,119.0,0,1,0,0,0,0,0,0,250,250,0,,,,,
69844,1558278149508,0.8,0.02,0.6,0,-1,-0,0,0,69,29,97,656,0.0,115,105,60,119.0,0,1,0,0,0,0,0,0,250,250,0,45.699841,4.910074,0.0,679.2,0.0
69864,1558278149528,0.8,0.02,0.6,0,-1,-0,0,0,69,29,97,656,0.0,116,105,60,119.0,0,1,0,0,0,0,0,0,250,250,0,,,,,
69884,1558278149548,0.8,0.02,0.6,0,-1,-0,0,0,69,29,97,656,0.0,115,105,60,119.0,0,1,0,0,0,0,0,0,250,250,0,,,,,
69904,1558278149568,0.8,0.02,0.6,0,-1,-0,0,0,69,29,97,656,0.0,116,105,60,119.0,0,1,0,0,0,0,0,0,250,250,0,,,,,
69924,1558278149588,0.8,0.02,0.6,0,-1,-0,0,0,69,29,97,656,0.0,116,105,60,119.0,0,1,0,0,0,0,0,0,250,250,0,,,,,
69944,1558278149610,0.8,0.02,0.6,0,-1,-0,0,0,69,29,97,656,0.0,116,105,60,119.0,0,1,0,0,0,0,0,0,250,250,0,45.699841,4.910074,0.0,679.2,0.0
69964,1558278149630,0.8,0.02,0.6,0,-1,-0,0,0,69,29,97,657,0.0,115,105,60,119.0,0,1,0,0,0,0,0,0,250,250,0,,,,,
69984,1558278149650,0.8,0.02,0.6,0,-1,-0,0,0,69,30,97,657,0.0,115,105,60,119.0,0,1,0,0,0,0,0,0,250,250,0,,,,,
70004,1558278149670,0.8,0.02,0.6,0,-1,-0,0,0,69,29,97,657,0.0,115,105,60,119.0,0,1,0,0,0,0,0,0,250,250,0,,,,,
70024,1558278149690,0.8,0.02,0.6,0,-1,-0,0,0,69,30,97,657,0.0,115,105,60,119.0,0,1,0,0,0,0,0,0,250,250,0,,,,,
70044,1558278149708,0.8,0.02,0.6,0,-1,-0,0,0,69,30,97,657,0.0,116,105,60,119.0,0,1,0,0,0,0,0,0,250,250,0,45.699841,4.910074,0.0,679.2,0.0
70064,1558278149728,0.8,0.02,0.6,0,-1,-0,0,0,69,30,97,658,0.0,116,105,60,119.0,0,1,0,0,0,0,0,0,250,250,0,,,,,
70084,1558278149748,0.8,0.02,0.6,0,-1,-0,0,0,69,30,97,658,0.0,116,105,60,119.0,0,1,0,0,0,0,0,0,250,250,0,,,,,
70104,1558278149768,0.8,0.02,0.6,0,-1,-0,0,0,69,30,97,658,0.0,116,105,60,119.0,0,1,0,0,0,0,0,0,250,250,0,,,,,
70124,1558278149788,0.8,0.02,0.6,0,-1,-0,0,0,69,30,97,658,0.0,116,105,60,119.0,0,1,0,0,0,0,0,0,250,250,0,,,,,
70144,1558278149810,0.8,0.02,0.6,0,-1,-0,0,0,69,30,97,658,0.0,115,105,60,119.0,0,1,0,0,0,0,0,0,250,250,0,45.699841,4.910074,0.0,679.2,0.0
70164,1558278149830,0.8,0.02,0.6,0,-1,-0,0,0,69,30,97,658,0.0,116,105,60,119.0,0,1,0,0,0,0,0,0,250,250,0,,,,,
70184,1558278149850,0.8,0.02,0.6,0,-1,-0,0,0,69,30,97,658,0.0,115,105,60,119.0,0,1,0,0,0,0,0,0,250,250,0,,,,,
70204,1558278149870,0.8,0.02,0.6,0,-1,-0,0,0,69,30,97,658,0.0,115,105,60,119.0,0,1,0,0,0,0,0,0,250,250,0,,,,,
70224,1558278149890,0.8,0.02,0.6,0,-1,-0,0,0,69,30,97,658,0.0,116,105,60,119.0,0,1,0,0,0,0,0,0,250,250,0,,,,,
70244,1558278149910,0.8,0.02,0.6,0,-1,-0,0,0,69,30,97,658,0.0,115,105,60,119.0,0,1,0,0,0,0,0,0,250,250,0,45.699841,4.910074,0.0,679.2,0.0
70264,1558278149930,0.8,0.02,0.6,0,-1,-0,0,0,69,30,97,658,0.0,115,105,60,119.0,0,1,0,0,0,0,0,0,250,250,0,,,,,
70284,1558278149950,0.8,0.02,0.6,0,-1,-0,0,0,69,30,97,658,0.0,116,105,60,119.0,0,1,0,0,0,0,0,0,250,250,0,,,,,
70304,1558278149970,0.8,0.02,0.6,0,-1,-0,0,0,69,30,97,658,0.0,116,105,60,119.0,0,1,0,0,0,0,0,0,250,250,0,,,,,
70324,1558278149990,0.8,0.02,0.6,0,-1,-0,0,0,69,30,97,658,0.0,116,105,60,119.0,0,1,0,0,0,0,0,0,250,250,0,,,,,
70344,1558278150004,0.8,0.02,0.6,0,-1,-0,0,0,69,30,97,658,0.0,115,105,60,119.0,0,1,0,0,0,0,0,0,250,250,0,45.699841,4.910074,0.0,679.2,0.0
70364,1558278150024,0.8,0.01,0.6,0,-1,-0,0,0,69,30,97,658,0.0,115,105,60,119.0,0,1,0,0,0,0,0,0,250,250,0,,,,,
70384,1558278150044,0.8,0.01,0.6,0,-1,-0,0,0,69,30,97,658,0.0,116,105,60,119.0,0,1,0,0,0,0,0,0,250,250,0,,,,,
70404,1558278150064,0.8,0.01,0.6,0,-1,-0,0,0,69,30,97,658,0.0,116,105,60,119.0,0,1,0,0,0,0,0,0,250,250,0,,,,,
70424,1558278150084,0.8,0.01,0.6,0,-1,-0,0,0,69,30,97,659,0.0,115,105,60,119.0,0,1,0,0,0,0,0,0,250,250,0,,,,,
70444,1558278150109,0.8,0.02,0.6,0,-1,-0,0,0,69,30,97,659,0.0,116,105,60,119.0,0,1,0,0,0,0,0,0,250,250,0,45.699841,4.910074,0.0,679.2,0.0
70464,1558278150129,0.8,0.02,0.6,0,-1,-0,0,0,69,30,97,659,0.0,115,105,60,119.0,0,1,0,0,0,0,0,0,250,250,0,,,,,
70484,1558278150149,0.8,0.02,0.6,0,-1,-0,0,0,69,30,97,658,0.0,115,105,60,119.0,0,1,0,0,0,0,0,0,250,250,0,,,,,
70504,1558278150169,0.8,0.01,0.6,0,-1,-0,0,0,69,30,97,658,0.0,116,105,60,119.0,0,1,0,0,0,0,0,0,250,250,0,,,,,
70524,1558278150189,0.8,0.01,0.6,0,-1,-0,0,0,69,30,97,658,0.0,115,105,60,120.0,0,1,0,0,0,0,0,0,250,250,0,,,,,
70544,1558278150209,0.8,0.02,0.6,0,-1,-0,0,0,69,30,97,658,0.0,115,105,60,119.0,0,1,0,0,0,0,0,0,250,250,0,45.699841,4.910074,0.0,679.2,0.0
70564,1558278150229,0.8,0.02,0.6,0,-1,-0,0,0,69,30,97,659,0.0,116,105,60,119.0,0,1,0,0,0,0,0,0,250,250,0,,,,,
70584,1558278150249,0.8,0.02,0.6,0,-1,-0,0,0,69,30,97,659,0.0,115,105,60,119.0,0,1,0,0,0,0,0,0,250,250,0,,,,,
70604,1558278150269,0.8,0.02,0.6,0,-1,-0,0,0,69,30,97,659,0.0,116,105,60,119.0,0,1,0,0,0,0,0,0,250,250,0,,,,,
70624,1558278150289,0.8,0.01,0.6,0,-1,-0,0,0,69,30,97,659,0.0,115,105,60,119.0,0,1,0,0,0,0,0,0,250,250,0,,,,,
70644,1558278150309,0.8,0.02,0.6,0,-1,-0,0,0,69,30,97,658,0.0,115,105,60,119.0,0,1,0,0,0,0,0,0,250,250,0,45.699841,4.910074,0.0,679.2,0.0
70664,1558278150329,0.8,0.02,0.6,0,-1,-0,0,0,69,30,97,658,0.0,115,105,60,119.0,0,1,0,0,0,0,0,0,250,250,0,,,,,
70684,1558278150349,0.8,0.02,0.6,0,-1,-0,0,0,69,30,97,658,0.0,115,105,60,119.0,0,1,0,0,0,0,0,0,250,250,0,,,,,
70704,1558278150369,0.8,0.02,0.6,0,-1,-0,0,0,69,30,97,658,0.0,116,105,60,119.0,0,1,0,0,0,0,0,0,250,250,0,,,,,
70724,1558278150389,0.8,0.02,0.6,0,-1,-0,0,0,69,30,97,658,0.0,116,105,60,119.0,0,1,0,0,0,0,0,0,250,250,0,,,,,
70744,1558278150406,0.8,0.01,0.6,0,-1,-0,0,0,69,30,97,658,0.0,115,105,60,119.0,0,1,0,0,0,0,0,0,250,250,0,45.699841,4.910074,0.0,679.2,0.0
70764,1558278150426,0.8,0.02,0.6,0,-1,-0,0,0,69,30,97,659,0.0,115,105,60,119.0,0,1,0,0,0,0,0,0,250,250,0,,,,,
70784,1558278150446,0.8,0.02,0.6,0,-1,-0,0,0,69,30,97,659,0.0,116,105,60,119.0,0,1,0,0,0,0,0,0,250,250,0,,,,,
70804,1558278150466,0.8,0.01,0.6,0,-1,-0,0,0,69,30,97,659,0.0,115,105,60,119.0,0,1,0,0,0,0,0,0,250,250,0,,,,,
70824,1558278150486,0.8,0.01,0.6,0,-1,-0,0,0,69,30,97,658,0.0,115,104,60,119.0,0,1,0,0,0,0,0,0,250,250,0,,,,,
70844,1558278150509,0.8,0.01,0.6,0,-1,-0,0,0,69,30,97,659,0.0,115,105,60,119.0,0,1,0,0,0,0,0,0,250,250,0,45.699841,4.910074,0.0,679.2,0.0
70864,1558278150529,0.8,0.02,0.6,0,-1,-0,0,0,69,30,97,659,0.0,115,105,60,119.0,0,1,0,0,0,0,0,0,250,250,0,,,,,
70884,1558278150549,0.8,0.02,0.6,0,-1,-0,0,0,69,30,97,659,0.0,115,105,60,119.0,0,1,0,0,0,0,0,0,250,250,0,,,,,
70904,1558278150569,0.8,0.01,0.6,0,-1,-0,0,0,69,30,97,659,0.0,115,105,60,119.0,0,1,0,0,0,0,0,0,250,250,0,,,,,
70924,1558278150589,0.8,0.02,0.6,0,-1,-0,0,0,69,30,97,659,0.0,116,105,60,119.0,0,1,0,0,0,0,0,0,250,250,0,,,,,
70944,1558278150609,0.8,0.01,0.6,0,-1,-0,0,0,69,30,97,660,0.0,115,105,60,119.0,0,1,0,0,0,0,0,0,250,250,0,45.699841,4.910074,0.0,679.2,0.0
70964,1558278150629,0.8,0.02,0.6,0,-1,-0,0,0,69,30,97,660,0.0,115,105,60,119.0,0,1,0,0,0,0,0,0,250,250,0,,,,,
70984,1558278150649,0.8,0.02,0.6,0,-1,-0,0,0,69,30,97,660,0.0,115,105,60,119.0,0,1,0,0,0,0,0,0,250,250,0,,,,,
71004,1558278150669,0.8,0.02,0.6,0,-1,-0,0,0,69,30,97,660,0.0,115,105,60,119.0,0,1,0,0,0,0,0,0,250,250,0,,,,,
71024,1558278150689,0.8,0.02,0.6,0,-1,-0,0,0,69,30,97,659,0.0,115,105,60,119.0,0,1,0,0,0,0,0,0,250,250,0,,,,,
71044,1558278150709,0.8,0.01,0.6,0,-1,-0,0,0,69,30,97,659,0.0,115,105,60,119.0,0,1,0,0,0,0,0,0,250,250,0,45.699841,4.910074,0.0,679.2,0.0
71064,1558278150729,0.8,0.02,0.6,0,-1,-0,0,0,69,30,97,659,0.0,115,105,60,119.0,0,1,0,0,0,0,0,0,250,250,0,,,,,
71084,1558278150749,0.8,0.02,0.6,0,-1,-0,0,0,69,30,97,660,0.0,115,105,60,119.0,0,1,0,0,0,0,0,0,250,250,0,,,,,
71104,1558278150769,0.8,0.01,0.6,0,-1,-0,0,0,69,30,97,660,0.0,115,105,60,119.0,0,1,0,0,0,0,0,0,250,250,0,,,,,
71124,1558278150789,0.8,0.01,0.6,0,-1,-0,0,0,69,30,97,660,0.0,115,105,60,119.0,0,1,0,0,0,0,0,0,250,250,0,,,,,
71144,1558278150809,0.8,0.02,0.6,0,-1,-0,0,0,69,30,97,660,0.0,115,105,60,119.0,0,1,0,0,0,0,0,0,250,250,0,45.699841,4.910074,0.0,679.2,0.0
71164,1558278150829,0.8,0.02,0.6,0,-1,-0,0,0,69,30,97,660,0.0,115,105,60,119.0,0,1,0,0,0,0,0,0,250,250,0,,,,,
71184,1558278150849,0.8,0.02,0.6,0,-1,-0,0,0,69,30,97,660,0.0,115,105,60,119.0,0,1,0,0,0,0,0,0,250,250,0,,,,,
71204,1558278150869,0.8,0.02,0.6,0,-1,-0,0,0,69,30,97,660,0.0,115,105,60,119.0,0,1,0,0,0,0,0,0,250,250,0,,,,,
71224,1558278150889,0.8,0.02,0.6,0,-1,-0,0,0,69,30,97,660,0.0,116,105,60,119.0,0,1,0,0,0,0,0,0,250,250,0,,,,,
71244,1558278150909,0.8,0.02,0.6,0,-1,-0,0,0,69,30,97,660,0.0,115,105,60,119.0,0,1,0,0,0,0,0,0,250,250,0,45.699841,4.910074,0.0,679.2,0.0
71264,1558278150929,0.8,0.02,0.6,0,-1,-0,0,0,69,30,97,660,0.0,115,105,60,119.0,0,1,0,0,0,0,0,0,250,250,0,,,,,
71284,1558278150949,0.8,0.02,0.6,0,-1,-0,0,0,69,30,97,660,0.0,115,105,60,119.0,0,1,0,0,0,0,0,0,250,250,0,,,,,
71304,1558278150969,0.8,0.02,0.6,0,-1,-0,0,0,69,30,97,660,0.0,115,105,60,119.0,0,1,0,0,0,0,0,0,250,250,0,,,,,
71324,1558278150989,0.8,0.02,0.6,0,-1,-0,0,0,69,30,97,660,0.0,115,105,60,119.0,0,1,0,0,0,0,0,0,250,250,0,,,,,
71344,1558278151003,0.8,0.02,0.6,0,-1,-0,0,0,69,30,97,660,0.0,115,105,60,119.0,0,1,0,0,0,0,0,0,250,250,0,45.699841,4.910074,0.0,679.2,0.0
71364,1558278151023,0.8,0.02,0.6,0,-1,-0,0,0,69,30,97,660,0.0,115,105,60,119.0,0,1,0,0,0,0,0,0,250,250,0,,,,,
71384,1558278151043,0.8,0.02,0.6,0,-1,-0,0,0,69,30,97,660,0.0,115,105,60,119.0,0,1,0,0,0,0,0,0,250,250,0,,,,,
71404,1558278151063,0.8,0.02,0.6,0,-1,-0,0,0,69,30,97,660,0.0,116,105,60,119.0,0,1,0,0,0,0,0,0,250,250,0,,,,,
71424,1558278151083,0.8,0.02,0.59,0,-1,-0,0,0,69,30,97,661,0.0,115,105,60,119.0,0,1,0,0,0,0,0,0,250,250,0,,,,,
71444,1558278151108,0.8,0.02,0.59,0,-1,-0,0,0,69,30,97,661,0.0,115,105,60,119.0,0,1,0,0,0,0,0,0,250,250,0,45.699841,4.910074,0.0,679.2,0.0
71464,1558278151128,0.8,0.02,0.59,0,-1,-0,0,0,69,30,97,661,0.0,116,105,60,119.0,0,1,0,0,0,0,0,0,250,250,0,,,,,
71484,1558278151148,0.8,0.02,0.59,0,-1,-0,0,0,69,30,97,661,0.0,115,105,60,119.0,0,1,0,0,0,0,0,0,250,250,0,,,,,
71504,1558278151168,0.8,0.02,0.59,0,-1,-0,0,0,69,30,97,660,0.0,115,105,60,119.0,0,1,0,0,0,0,0,0,250,250,0,,,,,
71524,1558278151188,0.8,0.02,0.59,0,-1,-0,0,0,69,30,97,660,0.0,115,105,60,119.0,0,1,0,0,0,0,0,0,250,250,0,,,,,
71544,1558278151210,0.8,0.02,0.59,0,-1,-0,0,0,69,30,97,660,0.0,115,105,60,120.0,0,1,0,0,0,0,0,0,250,250,0,45.699841,4.910074,0.0,679.2,0.0
71564,1558278151230,0.8,0.02,0.59,0,-1,-0,0,0,69,30,97,660,0.0,115,105,60,119.0,0,1,0,0,0,0,0,0,250,250,0,,,,,
71584,1558278151250,0.8,0.02,0.59,0,-1,-0,0,0,69,30,97,660,0.0,115,105,60,119.0,0,1,0,0,0,0,0,0,250,250,0,,,,,
71604,1558278151270,0.8,0.02,0.59,0,-1,-0,0,0,69,30,97,660,0.0,116,105,60,119.0,0,1,0,0,0,0,0,0,250,250,0,,,,,
71624,1558278151290,0.8,0.02,0.59,0,-1,-0,0,0,69,30,97,661,0.0,115,105,60,119.0,0,1,0,0,0,0,0,0,250,250,0,,,,,
71644,1558278151308,0.8,0.02,0.59,0,-1,-0,0,0,69,30,97,661,0.0,115,105,60,119.0,0,1,0,0,0,0,0,0,250,250,0,45.699841,4.910074,0.0,679.2,0.0
71664,1558278151328,0.8,0.02,0.59,0,-1,-0,0,0,69,30,97,660,0.0,115,105,60,119.0,0,1,0,0,0,0,0,0,250,250,0,,,,,
71684,1558278151348,0.8,0.02,0.59,0,-1,-0,0,0,69,30,97,660,0.0,115,105,60,119.0,0,1,0,0,0,0,0,0,250,250,0,,,,,
71704,1558278151368,0.8,0.02,0.59,0,-1,-0,0,0,69,30,97,660,0.0,115,105,60,119.0,0,1,0,0,0,0,0,0,250,250,0,,,,,
71724,1558278151388,0.8,0.02,0.59,0,-1,-0,0,0,69,30,97,660,0.0,115,105,60,120.0,0,1,0,0,0,0,0,0,250,250,0,,,,,
71744,1558278151408,0.8,0.02,0.59,0,-1,-0,0,0,69,30,97,661,0.0,116,105,60,119.0,0,1,0,0,0,0,0,0,250,250,0,45.699841,4.910074,0.0,679.2,0.0
71764,1558278151428,0.8,0.02,0.59,0,-1,-0,0,0,69,30,97,661,0.0,115,105,60,119.0,0,1,0,0,0,0,0,0,250,250,0,,,,,
71784,1558278151448,0.8,0.02,0.59,0,-1,-0,0,0,69,30,97,661,0.0,115,105,60,119.0,0,1,0,0,0,0,0,0,250,250,0,,,,,
71804,1558278151468,0.8,0.02,0.6,0,-1,-0,0,0,69,30,97,661,0.0,115,105,60,119.0,0,1,0,0,0,0,0,0,250,250,0,,,,,
71824,1558278151488,0.8,0.01,0.6,0,-1,-0,0,0,69,30,97,661,0.0,115,105,60,119.0,0,1,0,0,0,0,0,0,250,250,0,,,,,
71844,1558278151508,0.8,0.02,0.59,0,-1,-0,0,0,69,30,97,661,0.0,115,105,60,119.0,0,1,0,0,0,0,0,0,250,250,0,45.699841,4.910074,0.0,679.2,0.0
71864,1558278151528,0.8,0.02,0.59,0,-1,-0,0,0,69,30,97,661,0.0,115,105,60,119.0,0,1,0,0,0,0,0,0,250,250,0,,,,,
71884,1558278151548,0.8,0.02,0.59,0,-1,-0,0,0,69,30,97,661,0.0,115,105,60,120.0,0,1,0,0,0,0,0,0,250,250,0,,,,,
71904,1558278151568,0.8,0.02,0.59,0,-1,-0,0,0,69,30,97,661,0.0,115,105,60,120.0,0,1,0,0,0,0,0,0,250,250,0,,,,,
