"Interval"|"ms"|0|0|1,"Utc"|"ms"|0|0|1,"Brake_F"|"Bar"|0|2000|10,"Brake_R"|"Bar"|0|2000|10,"Height_RF"|"mm"|0|255|10,"Height_LF"|"mm"|0|255|10,"Height_LR"|"mm"|0|80|10,"Height_RR"|"mm"|0|255|10,"Steering"|"deg"|-100|100|10,"AccelX"|"G"|-3.0|3.0|50,"AccelY"|"G"|-3.0|3.0|50,"AccelZ"|"G"|-3.0|3.0|50,"Yaw"|"Deg/Sec"|-120|120|50,"Pitch"|"Deg/Sec"|-120|120|50,"Roll"|"Deg/Sec"|-120|120|50,"Gsum"|"G"|0.0|3.0|50,"Log_Button"|""|0.0|10.0|10,"WaterTemp"|"C"|0|150|50,"RPM"|"tr/min"|0|14000|50,"TPS"|"%"|0|100|50,"AirTemp"|"C"|0|150|50,"MAP"|"KPa"|0|100|50,"Lambda"|""|0.5|1.5|50,"SpeedDTA"|"kph"|0.0|250.0|50,"OilPress"|"KPa"|0|1500|50,"FuelPressur"|"Bar"|0.0|10.0|50,"Batterie"|"V"|0.0|20.0|50,"ConsoKm"|"L/100km"|0.0|200.0|50,"Gear"|""|0|6|50,"AdvIgnition"|"Deg"|-20.0|70.0|50,"Injection"|"ms"|0.0|10.0|50,"ConsoHr"|"L/Hr"|0.0|10000.0|50,"LC_But_Pres"|""|0|1|50,"LC_Active"|""|0|1|50,"TractionOn"|""|0|1|50,"TractionWet"|""|0|1|50,"FanOn"|""|0|1|50,"RD_Speed"|"km/h"|-30|250|50,"RUD_Speed"|"km/h"|-30|250|50,"LD_Speed"|"km/h"|-30|250|50,"LUD_Speed"|"km/h"|-30|250|50,"Latitude"|"Degrees"|-180.0|180.0|10,"Longitude"|"Degrees"|-180.0|180.0|10,"Speed"|"kph"|0.0|150.0|10,"Altitude"|"m"|0.0|4000.0|10,"GPSSats"|""|0|20|10,"GPSQual"|""|0|5|10,"GPSDOP"|""|0.0|20.0|10,"LapCount"|""|0|0|10,"LapTime"|"Min"|0.0|0.0|10,"Sector"|""|0|0|10,"SectorTime"|"Min"|0.0|0.0|10,"PredTime"|"Min"|0.0|0.0|5,"ElapsedTime"|"Min"|0.0|0.0|10,"CurrentLap"|""|0|0|10,"Distance"|"km"|0.0|0.0|10,"SessionTime"|"Min"|0.0|0.0|10
32063,1625652219947,,,,,,,,0.03,0.02,1.92,0,2,6,0.04,,70,5530,8,29,57,0.631,0.0,578,4.71,13.3,0.0,1,32.9,2.53,6.5,0,0,0,1,0,0,250,250,0,,,,,,,,,,,,,,,,
32083,1625652219967,,,,,,,,-0.06,-0.0,1.76,0,2,5,0.06,,70,5537,8,29,58,0.623,0.0,575,4.82,13.5,0.0,1,33.2,1.4,6.5,0,0,0,1,0,0,250,250,0,,,,,,,,,,,,,,,,
32103,1625652219987,,,,,,,,0.07,0.02,1.95,0,-7,-2,0.07,,70,5524,8,29,58,0.614,0.0,578,4.78,13.5,0.0,1,33.2,2.54,6.4,0,0,0,1,0,0,250,250,0,,,,,,,,,,,,,,,,
32123,1625652219997,,,,,,,,0.05,0.01,2.03,0,1,3,0.05,,70,5517,8,29,58,0.606,0.0,575,4.71,13.3,0.0,1,33.2,2.54,6.4,0,0,0,1,0,0,250,250,0,,,,,,,,,,,,,,,,
32143,1625652220017,0,0,48,49,33,32,1,-0.04,0.0,1.86,0,3,5,0.04,1,70,5535,8,29,58,0.598,0.0,571,4.77,13.3,0.0,1,33.2,2.53,6.4,0,0,0,1,0,0,250,250,0,52.961891,6.522978,0.0,35.2,10,3,2.5,0,0.0,-1,0.0,,0.0,0,0.0,0.5357
32163,1625652220037,,,,,,,,0.1,0.01,2.04,-0,-5,-3,0.1,,70,5513,8,29,58,0.592,0.0,571,4.81,13.5,0.0,1,33.2,2.55,6.4,0,0,0,1,0,0,250,250,0,,,,,,,,,,,,,,,,
32183,1625652220057,,,,,,,,0.11,-0.01,2.2,0,-0,0,0.11,,70,5555,8,29,58,0.582,0.0,576,4.73,13.4,0.0,1,33.2,2.52,6.4,0,0,0,1,0,0,250,250,0,,,,,,,,,,,,,,,,
32203,1625652220077,,,,,,,,-0.05,-0.03,2.02,0,5,4,0.05,,70,5503,8,29,58,0.578,0.0,566,4.82,13.4,0.0,1,33.2,1.42,6.4,0,0,0,1,0,0,250,250,0,,,,,,,,,,,,,,,,
32223,1625652220107,,,,,,,,0.05,-0.01,2.18,1,-6,-3,0.05,,70,5588,8,29,58,0.57,0.0,570,4.81,13.5,0.0,1,33.2,2.5,6.4,0,0,0,1,0,0,250,250,0,,,,,,,,,,,,,,,,
32243,1625652220127,1,0,48,49,32,32,1,0.15,0.0,2.33,1,-7,-4,0.15,1,70,5555,8,29,58,0.56,0.0,581,4.8,13.5,0.0,1,33.2,2.52,6.4,0,0,0,1,0,0,250,250,0,52.961891,6.522978,0.0,35.2,10,3,1.8,0,0.0,-1,0.0,0.0,0.0,0,0.0,0.5374
32263,1625652220147,,,,,,,,0.0,-0.02,2.14,1,2,4,0.02,,70,5565,8,29,58,0.553,0.0,578,4.78,13.3,0.0,1,33.2,1.38,6.4,0,0,0,1,0,0,250,250,0,,,,,,,,,,,,,,,,
32283,1625652220167,,,,,,,,-0.02,-0.04,1.96,1,-1,2,0.04,,70,5580,8,29,58,0.542,0.0,568,4.81,13.4,0.0,1,33.2,2.5,6.4,0,0,0,1,0,0,250,250,0,,,,,,,,,,,,,,,,
32303,1625652220187,,,,,,,,0.12,0.01,2.13,1,-9,-4,0.12,,70,5580,8,29,58,0.531,0.0,572,4.85,13.5,0.0,1,33.2,2.5,6.4,0,0,0,1,0,0,250,250,0,,,,,,,,,,,,,,,,
32323,1625652220208,,,,,,,,0.1,-0.01,2.15,1,-2,2,0.1,,70,5605,8,29,58,0.528,0.0,587,4.72,13.2,0.0,1,33.2,1.35,6.4,0,0,0,1,0,0,250,250,0,,,,,,,,,,,,,,,,
32343,1625652220228,0,-1,48,49,33,32,1,-0.02,-0.02,1.97,1,2,6,0.03,1,70,5570,8,29,58,0.525,0.0,580,4.78,13.3,0.0,1,33.2,1.38,6.4,0,0,0,1,0,0,250,250,0,52.961891,6.522978,0.0,35.2,10,3,1.8,0,0.0,-1,0.0,,0.0,0,0.0,0.539
32363,1625652220248,,,,,,,,0.05,-0.03,2.14,1,-6,-1,0.06,,70,5608,8,29,58,0.522,0.0,575,4.85,13.6,0.0,1,33.2,1.35,6.4,0,0,0,1,0,0,250,250,0,,,,,,,,,,,,,,,,
32383,1625652220268,,,,,,,,0.14,-0.02,2.29,1,-9,-4,0.14,,70,5583,8,29,58,0.519,0.0,585,4.81,13.5,0.0,1,33.2,2.5,6.4,0,0,0,1,0,0,250,250,0,,,,,,,,,,,,,,,,
32403,1625652220288,,,,,,,,0.05,-0.0,2.1,1,-1,2,0.05,,70,5607,8,29,58,0.517,0.0,578,4.73,13.2,0.0,1,33.2,2.48,6.4,0,0,0,1,0,0,250,250,0,,,,,,,,,,,,,,,,
32423,1625652220306,,,,,,,,-0.03,0.01,1.93,1,0,3,0.03,,70,5595,8,29,58,0.513,0.0,572,4.75,13.3,0.0,1,33.2,2.49,6.4,0,0,0,1,0,0,250,250,0,,,,,,,,,,,,,,,,
32443,1625652220326,0,1,48,49,33,32,0,0.09,0.01,2.1,1,-7,-4,0.09,1,70,5615,8,29,58,0.512,0.0,577,4.81,13.5,0.0,1,33.2,1.35,6.4,0,0,0,1,0,0,250,250,0,52.961891,6.522978,0.0,35.2,10,3,2.0,0,0.0,-1,0.0,0.0,0.0,0,0.0,0.5407
32463,1625652220346,,,,,,,,0.14,0.02,2.26,0,-6,-4,0.14,,70,5632,8,29,58,0.509,0.0,587,4.79,13.5,0.0,1,33.2,2.47,6.4,0,0,0,1,0,0,250,250,0,,,,,,,,,,,,,,,,
32483,1625652220366,,,,,,,,0.03,0.0,2.07,1,1,3,0.03,,70,5627,8,29,58,0.506,0.0,587,4.76,13.3,0.0,1,33.2,1.34,6.4,0,0,0,1,0,0,250,250,0,,,,,,,,,,,,,,,,
32503,1625652220386,,,,,,,,-0.07,-0.01,1.9,1,2,4,0.07,,70,5666,8,29,58,0.503,0.0,581,4.82,13.4,0.0,1,33.2,2.44,6.4,0,0,0,1,0,0,250,250,0,,,,,,,,,,,,,,,,
32523,1625652220406,,,,,,,,0.04,0.01,2.07,1,-7,-4,0.04,,70,5634,8,29,57,0.5,0.0,580,4.83,13.5,0.0,1,33.0,2.47,6.4,0,0,0,1,0,0,250,250,0,,,,,,,,,,,,,,,,
32543,1625652220426,0,2,48,49,33,32,1,0.13,0.0,2.23,1,-9,-6,0.13,0,70,5668,8,29,57,0.5,0.0,586,4.8,13.5,0.0,1,33.0,2.45,6.4,0,0,0,1,0,0,250,250,0,52.961891,6.522978,0.0,35.2,10,3,2.0,0,0.0,-1,0.0,,0.0,0,0.0,0.5424
32563,1625652220446,,,,,,,,0.05,0.0,2.04,1,-2,0,0.05,,70,5627,8,29,57,0.5,0.0,588,4.76,13.4,0.0,1,33.0,2.47,6.4,0,0,0,1,0,0,250,250,0,,,,,,,,,,,,,,,,
32583,1625652220466,,,,,,,,-0.05,-0.02,1.87,1,3,4,0.06,,70,5681,8,29,57,0.5,0.0,584,4.75,13.3,0.0,1,33.0,1.31,6.3,0,0,0,1,0,0,250,250,0,,,,,,,,,,,,,,,,
32603,1625652220486,,,,,,,,0.01,-0.0,2.05,1,-0,0,0.01,,70,5640,8,29,58,0.5,0.0,578,4.82,13.4,0.0,1,33.2,2.47,6.3,0,0,0,1,0,0,250,250,0,,,,,,,,,,,,,,,,
32623,1625652220506,,,,,,,,0.12,0.0,2.21,1,-7,-5,0.12,,70,5681,8,29,57,0.5,0.0,587,4.76,13.5,0.0,1,33.0,2.44,6.3,0,0,0,1,0,0,250,250,0,,,,,,,,,,,,,,,,
32643,1625652220526,1,1,48,49,32,32,1,0.1,0.02,2.33,1,-4,-3,0.1,0,70,5661,8,29,57,0.5,0.0,590,4.73,13.3,0.0,1,33.0,2.46,6.3,0,0,0,1,0,0,250,250,0,52.961891,6.522978,0.0,35.2,10,3,2.0,0,0.0,-1,0.0,0.0,0.0,0,0.0,0.544
32663,1625652220546,,,,,,,,-0.03,0.0,2.13,1,2,4,0.03,,70,5678,8,29,57,0.5,0.0,585,4.73,13.3,0.0,1,33.0,1.31,6.3,0,0,0,1,0,0,250,250,0,,,,,,,,,,,,,,,,
32683,1625652220566,,,,,,,,-0.07,-0.0,1.95,1,3,3,0.07,,70,5692,8,29,57,0.5,0.0,585,4.85,13.5,0.0,1,33.0,2.43,6.4,0,0,0,1,0,0,250,250,0,,,,,,,,,,,,,,,,
32703,1625652220586,,,,,,,,0.02,-0.01,2.12,0,-2,-4,0.03,,70,5721,8,29,57,0.5,0.0,588,4.82,13.5,0.0,1,33.0,2.41,6.4,0,0,0,1,0,0,250,250,0,,,,,,,,,,,,,,,,
32723,1625652220606,,,,,,,,0.1,-0.01,2.28,0,-6,-7,0.1,,70,5723,8,29,57,0.5,0.0,595,4.76,13.5,0.0,1,33.0,2.41,6.4,0,0,0,1,0,0,250,250,0,,,,,,,,,,,,,,,,
32743,1625652220626,1,2,48,49,33,32,0,0.1,0.0,2.41,0,-4,-5,0.1,0,70,5728,8,29,57,0.5,0.0,586,4.79,13.5,0.0,1,33.0,2.41,6.4,0,0,0,1,0,0,250,250,0,52.961891,6.522978,0.0,35.2,10,3,1.8,0,0.0,-1,0.0,,0.0,0,0.0,0.5457
32763,1625652220646,,,,,,,,-0.0,0.02,2.21,0,1,0,0.02,,70,5712,8,29,57,0.5,0.0,589,4.76,13.3,0.0,1,33.0,1.29,6.4,0,0,0,1,0,0,250,250,0,,,,,,,,,,,,,,,,
32783,1625652220666,,,,,,,,-0.06,0.03,2.02,0,5,3,0.07,,70,5711,8,29,57,0.5,0.0,595,4.76,13.3,0.0,1,33.0,2.42,6.4,0,0,0,1,0,0,250,250,0,,,,,,,,,,,,,,,,
32803,1625652220686,,,,,,,,0.02,0.03,2.19,-0,-0,-2,0.03,,70,5707,8,29,57,0.5,0.0,591,4.81,13.4,0.0,1,33.0,1.29,6.4,0,0,0,1,0,0,250,250,0,,,,,,,,,,,,,,,,
32823,1625652220706,,,,,,,,0.13,0.03,2.34,-0,-7,-6,0.13,,70,5699,8,29,57,0.5,0.0,587,4.79,13.5,0.0,1,33.0,2.43,6.4,0,0,0,1,0,0,250,250,0,,,,,,,,,,,,,,,,
32843,1625652220726,-1,2,48,49,33,32,2,0.12,0.01,2.48,0,-6,-6,0.12,0,70,5702,8,29,57,0.5,0.0,591,4.79,13.5,0.0,1,33.0,2.43,6.4,0,0,0,1,0,0,250,250,0,52.961891,6.522978,0.0,35.2,10,3,1.8,0,0.0,-1,0.0,0.0,0.0,0,0.0,0.5474
32863,1625652220746,,,,,,,,-0.01,-0.02,2.27,0,0,0,0.02,,70,5674,8,29,57,0.5,0.0,594,4.76,13.3,0.0,1,33.0,1.32,6.4,0,0,0,1,0,0,250,250,0,,,,,,,,,,,,,,,,
32883,1625652220766,,,,,,,,-0.09,-0.01,2.08,-0,4,3,0.09,,70,5656,8,29,57,0.5,0.0,588,4.81,13.4,0.0,1,33.0,2.46,6.4,0,0,0,1,0,0,250,250,0,,,,,,,,,,,,,,,,
32903,1625652220786,,,,,,,,0.02,-0.01,2.24,-0,-3,-4,0.03,,70,5685,8,29,57,0.5,0.0,586,4.83,13.5,0.0,1,33.0,1.31,6.4,0,0,0,1,0,0,250,250,0,,,,,,,,,,,,,,,,
32923,1625652220806,,,,,,,,0.12,-0.02,2.39,-0,-8,-7,0.12,,70,5669,8,29,57,0.5,0.0,583,4.8,13.5,0.0,1,33.0,2.45,6.4,0,0,0,1,0,0,250,250,0,,,,,,,,,,,,,,,,
32943,1625652220826,0,3,48,49,33,32,-0,0.08,-0.02,2.19,0,-4,-4,0.08,0,70,5674,8,29,57,0.5,0.0,591,4.74,13.2,0.0,1,33.0,1.32,6.4,0,0,0,1,0,0,250,250,0,52.961891,6.522978,0.0,35.2,10,3,1.8,0,0.0,-1,0.0,,0.0,0,0.0,0.549
32963,1625652220846,,,,,,,,-0.04,-0.04,2.0,0,2,2,0.05,,70,5671,8,29,57,0.5,0.0,586,4.75,13.2,0.0,1,33.0,2.45,6.4,0,0,0,1,0,0,250,250,0,,,,,,,,,,,,,,,,
32983,1625652220866,,,,,,,,-0.01,-0.03,1.84,0,1,-1,0.03,,70,5650,8,29,57,0.5,0.0,577,4.82,13.5,0.0,1,33.0,1.33,6.4,0,0,0,1,0,0,250,250,0,,,,,,,,,,,,,,,,
33003,1625652220886,,,,,,,,0.11,-0.01,2.02,0,-7,-6,0.11,,70,5640,8,29,57,0.5,0.0,585,4.79,13.5,0.0,1,33.0,2.47,6.4,0,0,0,1,0,0,250,250,0,,,,,,,,,,,,,,,,
33023,1625652220906,,,,,,,,0.1,0.01,2.18,0,-6,-5,0.1,,70,5618,8,29,57,0.5,0.0,590,4.79,13.5,0.0,1,32.9,2.48,6.4,0,0,0,1,0,0,250,250,0,,,,,,,,,,,,,,,,
33043,1625652220926,0,0,48,49,32,32,1,-0.03,0.0,2.0,0,1,2,0.03,0,70,5617,8,29,57,0.5,0.0,588,4.71,13.2,0.0,1,32.9,2.49,6.4,0,0,0,1,0,0,250,250,0,52.961891,6.522978,0.0,35.2,10,3,1.8,0,0.0,-1,0.0,0.0,0.0,0,0.0,0.5507
33063,1625652220946,,,,,,,,-0.0,-0.03,1.87,-0,3,1,0.03,,70,5613,8,29,57,0.5,0.0,574,4.83,13.5,0.0,1,32.9,2.49,6.4,0,0,0,1,0,0,250,250,0,,,,,,,,,,,,,,,,
33083,1625652220966,,,,,,,,0.11,-0.02,2.04,-0,-6,-5,0.11,,70,5573,8,29,57,0.5,0.0,579,4.82,13.6,0.0,1,32.9,2.52,6.5,0,0,0,1,0,0,250,250,0,,,,,,,,,,,,,,,,
33103,1625652220986,,,,,,,,0.05,-0.01,1.87,-0,-0,-2,0.05,,70,5602,8,29,57,0.5,0.0,589,4.72,13.2,0.0,1,32.9,1.37,6.5,0,0,0,1,0,0,250,250,0,,,,,,,,,,,,,,,,
33123,1625652220998,,,,,,,,-0.04,-0.0,1.72,-0,5,3,0.04,,70,5562,8,29,57,0.5,0.0,575,4.78,13.2,0.0,1,32.9,1.4,6.5,0,0,0,1,0,0,250,250,0,,,,,,,,,,,,,,,,
33143,1625652221018,0,1,48,49,33,32,1,0.09,-0.0,1.91,-0,-3,-3,0.09,0,70,5563,8,29,57,0.5,0.0,568,4.81,13.5,0.0,1,32.9,2.52,6.5,0,0,0,1,0,0,250,250,0,52.961891,6.522978,0.0,35.2,10,3,1.8,0,0.0,-1,0.0,,0.0,0,0.0,0.5524
33163,1625652221038,,,,,,,,0.12,0.01,2.08,-0,-6,-5,0.12,,70,5545,8,29,57,0.5,0.0,584,4.73,13.4,0.0,1,32.9,1.4,6.5,0,0,0,1,0,0,250,250,0,,,,,,,,,,,,,,,,
33183,1625652221058,,,,,,,,-0.04,-0.01,1.91,0,2,3,0.04,,70,5539,8,29,57,0.5,0.0,577,4.72,13.2,0.0,1,32.9,2.54,6.5,0,0,0,1,0,0,250,250,0,,,,,,,,,,,,,,,,
33203,1625652221078,,,,,,,,0.04,-0.02,2.04,0,0,1,0.05,,70,5534,8,29,58,0.5,0.0,571,4.78,13.4,0.0,1,33.2,2.53,6.5,0,0,0,1,0,0,250,250,0,,,,,,,,,,,,,,,,
33223,1625652221106,,,,,,,,0.12,0.01,2.2,0,-7,-4,0.12,,70,5488,8,29,57,0.5,0.0,572,4.74,13.4,0.0,1,32.9,1.44,6.5,0,0,0,1,0,0,250,250,0,,,,,,,,,,,,,,,,
33243,1625652221126,0,2,48,49,33,32,0,-0.04,-0.03,2.02,0,2,4,0.05,0,70,5544,8,29,58,0.5,0.0,577,4.75,13.3,0.0,1,33.2,1.4,6.5,0,0,0,1,0,0,250,250,0,52.961891,6.522978,0.0,35.2,10,3,1.8,0,0.0,-1,0.0,0.0,0.0,0,0.0,0.5541
33263,1625652221146,,,,,,,,0.03,-0.05,1.85,-0,2,2,0.05,,70,5480,8,29,58,0.5,0.0,566,4.81,13.4,0.0,1,33.1,2.57,6.5,0,0,0,1,0,0,250,250,0,,,,,,,,,,,,,,,,
33283,1625652221166,,,,,,,,0.11,0.0,2.03,-1,-6,-4,0.11,,70,5503,8,29,58,0.5,0.0,565,4.74,13.4,0.0,1,33.2,2.55,6.5,0,0,0,1,0,0,250,250,0,,,,,,,,,,,,,,,,
33303,1625652221186,,,,,,,,0.06,0.01,2.02,-0,4,5,0.06,,70,5456,8,29,58,0.5,0.0,574,4.74,13.3,0.0,1,33.1,2.58,6.5,0,0,0,1,0,0,250,250,0,,,,,,,,,,,,,,,,
33323,1625652221206,,,,,,,,-0.03,-0.02,1.85,-0,1,1,0.03,,70,5490,8,29,58,0.5,0.0,570,4.81,13.5,0.0,1,33.1,2.56,6.5,0,0,0,1,0,0,250,250,0,,,,,,,,,,,,,,,,
33343,1625652221226,0,3,48,49,32,32,0,0.12,0.01,2.03,-0,-5,-4,0.12,0,70,5480,8,29,58,0.5,0.0,572,4.72,13.4,0.0,1,33.1,1.44,6.5,0,0,0,1,0,0,250,250,0,52.961891,6.522978,0.0,35.2,10,3,1.8,0,0.0,-1,0.0,,0.0,0,0.0,0.5557
33363,1625652221246,,,,,,,,0.02,0.02,1.86,-0,4,6,0.03,,70,5469,8,29,58,0.5,0.0,567,4.75,13.2,0.0,1,33.1,2.57,6.5,0,0,0,1,0,0,250,250,0,,,,,,,,,,,,,,,,
33383,1625652221266,,,,,,,,-0.02,-0.0,1.71,-0,-2,1,0.02,,70,5490,8,29,58,0.5,0.0,562,4.85,13.5,0.0,1,33.1,2.56,6.5,0,0,0,1,0,0,250,250,0,,,,,,,,,,,,,,,,
33403,1625652221286,,,,,,,,0.12,0.03,1.9,-0,-5,-2,0.12,,70,5453,8,29,58,0.5,0.0,565,4.71,13.5,0.0,1,33.1,2.59,6.5,0,0,0,1,0,0,250,250,0,,,,,,,,,,,,,,,,
33423,1625652221305,,,,,,,,-0.02,-0.0,1.74,0,3,6,0.02,,70,5477,8,29,58,0.5,0.0,561,4.79,13.4,0.0,1,33.1,2.57,6.5,0,0,0,1,0,0,250,250,0,,,,,,,,,,,,,,,,
33443,1625652221325,1,1,48,49,32,32,1,0.01,-0.04,1.59,-0,-4,0,0.04,0,70,5431,8,29,58,0.5,0.0,561,4.84,13.5,0.0,1,33.1,2.6,6.5,0,0,0,1,0,0,250,250,0,52.961876,6.522994,0.0,31.5,10,3,1.5,0,0.0,-1,0.0,0.0,0.0,0,0.0,0.5574
33463,1625652221345,,,,,,,,0.1,0.02,1.79,0,-2,0,0.1,,70,5508,8,29,58,0.5,0.0,571,4.71,13.3,0.0,1,33.2,2.55,6.5,0,0,0,1,0,0,250,250,0,,,,,,,,,,,,,,,,
33483,1625652221365,,,,,,,,-0.07,-0.02,1.64,0,4,6,0.07,,70,5436,8,29,58,0.5,0.0,561,4.76,13.3,0.0,1,33.1,2.6,6.5,0,0,0,1,0,0,250,250,0,,,,,,,,,,,,,,,,
33503,1625652221385,,,,,,,,0.05,-0.02,1.84,-1,-5,-3,0.05,,70,5482,8,29,58,0.5,0.0,565,4.8,13.5,0.0,1,33.1,1.44,6.5,0,0,0,1,0,0,250,250,0,,,,,,,,,,,,,,,,
33523,1625652221405,,,,,,,,0.08,0.02,2.02,-0,1,2,0.08,,70,5431,8,29,58,0.5,0.0,575,4.77,13.4,0.0,1,33.1,1.47,6.5,0,0,0,1,0,0,250,250,0,,,,,,,,,,,,,,,,
33543,1625652221425,0,0,48,50,33,32,2,-0.05,-0.04,1.85,-0,4,5,0.07,0,70,5453,8,29,58,0.5,0.0,566,4.77,13.4,0.0,1,33.1,2.59,6.5,0,0,0,1,0,0,250,250,0,52.961876,6.522994,0.0,31.5,10,3,1.5,0,0.0,-1,0.0,,0.0,0,0.0,0.559
33563,1625652221445,,,,,,,,0.08,-0.03,2.03,-1,-6,-3,0.09,,70,5442,8,29,58,0.5,0.0,568,4.81,13.6,0.0,1,33.1,2.59,6.5,0,0,0,1,0,0,250,250,0,,,,,,,,,,,,,,,,
33583,1625652221465,,,,,,,,0.02,-0.0,1.93,-0,4,5,0.02,,70,5431,8,29,58,0.5,0.0,563,4.72,13.2,0.0,1,33.1,2.6,6.5,0,0,0,1,0,0,250,250,0,,,,,,,,,,,,,,,,
33603,1625652221485,,,,,,,,-0.02,-0.02,1.77,-0,0,2,0.03,,70,5458,8,29,58,0.5,0.0,561,4.84,13.5,0.0,1,33.1,2.58,6.5,0,0,0,1,0,0,250,250,0,,,,,,,,,,,,,,,,
33623,1625652221505,,,,,,,,0.11,0.02,1.96,-0,-3,-1,0.11,,70,5411,8,29,59,0.5,0.0,558,4.79,13.5,0.0,1,33.4,2.6,6.5,0,0,0,1,0,0,250,250,0,,,,,,,,,,,,,,,,
33643,1625652221525,-1,2,48,50,33,32,2,-0.05,-0.0,1.79,-0,5,7,0.05,0,70,5450,8,29,59,0.5,0.0,563,4.75,13.3,0.0,1,33.4,2.57,6.5,0,0,0,1,0,0,250,250,0,52.961876,6.522994,0.0,31.5,10,3,1.5,0,0.0,-1,0.0,0.0,0.0,0,0.0,0.5607
33663,1625652221545,,,,,,,,0.04,-0.03,1.91,-0,-5,-1,0.05,,70,5408,8,29,59,0.5,0.0,564,4.85,13.5,0.0,1,33.4,2.61,6.5,0,0,0,1,0,0,250,250,0,,,,,,,,,,,,,,,,
33683,1625652221565,,,,,,,,0.07,0.01,2.09,-0,1,3,0.07,,70,5453,8,29,59,0.5,0.0,567,4.75,13.2,0.0,1,33.4,2.58,6.5,0,0,0,1,0,0,250,250,0,,,,,,,,,,,,,,,,
33703,1625652221585,,,,,,,,-0.04,-0.05,1.91,-0,4,4,0.06,,70,5415,8,29,59,0.5,0.0,555,4.76,13.4,0.0,1,33.4,1.47,6.5,0,0,0,1,0,0,250,250,0,,,,,,,,,,,,,,,,
33723,1625652221605,,,,,,,,0.13,-0.01,2.09,-1,-7,-4,0.13,,70,5445,8,29,59,0.5,0.0,563,4.75,13.4,0.0,1,33.4,2.58,6.5,0,0,0,1,0,0,250,250,0,,,,,,,,,,,,,,,,
33743,1625652221625,-1,2,48,49,33,32,1,0.02,-0.0,1.91,-0,2,5,0.02,0,70,5409,8,29,59,0.5,0.0,573,4.71,13.2,0.0,1,33.4,2.6,6.5,0,0,0,1,0,0,250,250,0,52.961876,6.522994,0.0,31.5,10,3,1.5,0,0.0,-1,0.0,,0.0,0,0.0,0.5624
33763,1625652221645,,,,,,,,0.02,-0.06,1.75,0,-3,-1,0.06,,70,5420,8,29,59,0.5,0.0,553,4.85,13.6,0.0,1,33.4,2.6,6.5,0,0,0,1,0,0,250,250,0,,,,,,,,,,,,,,,,
33783,1625652221665,,,,,,,,0.1,0.0,1.94,0,-3,-2,0.1,,70,5401,8,29,59,0.5,0.0,562,4.76,13.5,0.0,1,33.4,2.61,6.5,0,0,0,1,0,0,250,250,0,,,,,,,,,,,,,,,,
33803,1625652221685,,,,,,,,-0.04,-0.04,1.78,1,3,4,0.06,,70,5403,8,29,59,0.5,0.0,555,4.82,13.5,0.0,1,33.4,2.61,6.5,0,0,0,1,0,0,250,250,0,,,,,,,,,,,,,,,,
33823,1625652221705,,,,,,,,0.11,-0.03,1.96,0,-9,-6,0.11,,70,5431,8,29,59,0.5,0.0,557,4.83,13.5,0.0,1,33.4,2.59,6.5,0,0,0,1,0,0,250,250,0,,,,,,,,,,,,,,,,
33843,1625652221725,0,2,48,50,33,32,1,0.04,-0.04,1.9,1,-0,1,0.06,0,70,5383,8,29,59,0.5,0.0,551,4.76,13.3,0.0,1,33.4,2.62,6.5,0,0,0,1,0,0,250,250,0,52.961876,6.522994,0.0,31.5,10,3,1.5,0,0.0,-1,0.0,0.0,0.0,0,0.0,0.564
33863,1625652221745,,,,,,,,-0.01,-0.06,1.74,-0,-0,-1,0.06,,70,5461,8,29,59,0.5,0.0,561,4.76,13.5,0.0,1,33.4,1.44,6.5,0,0,0,1,0,0,250,250,0,,,,,,,,,,,,,,,,
33883,1625652221765,,,,,,,,0.11,-0.01,1.93,-0,-5,-5,0.11,,70,5415,8,29,59,0.5,0.0,573,4.8,13.5,0.0,1,33.4,2.6,6.5,0,0,0,1,0,0,250,250,0,,,,,,,,,,,,,,,,
33903,1625652221785,,,,,,,,-0.06,-0.05,1.77,0,4,3,0.08,,70,5430,8,29,59,0.5,0.0,556,4.8,13.3,0.0,1,33.4,1.46,6.5,0,0,0,1,0,0,250,250,0,,,,,,,,,,,,,,,,
33923,1625652221807,,,,,,,,0.05,-0.04,1.96,-1,-1,-2,0.07,,70,5414,8,29,59,0.5,0.0,557,4.84,13.5,0.0,1,33.4,2.6,6.5,0,0,0,1,0,0,250,250,0,,,,,,,,,,,,,,,,
33943,1625652221827,-1,3,48,49,33,32,1,0.06,0.01,2.13,-1,5,1,0.06,0,70,5452,8,29,59,0.5,0.0,563,4.73,13.4,0.0,1,33.4,2.58,6.5,0,0,0,1,0,0,250,250,0,52.961876,6.522994,0.0,31.5,10,3,1.5,0,0.0,-1,0.0,,0.0,0,0.0,0.5657
33963,1625652221847,,,,,,,,-0.05,-0.05,1.95,-0,8,5,0.07,,70,5445,8,29,59,0.5,0.0,563,4.79,13.4,0.0,1,33.4,2.58,6.5,0,0,0,1,0,0,250,250,0,,,,,,,,,,,,,,,,
33983,1625652221867,,,,,,,,0.11,-0.01,2.12,-0,-3,-3,0.11,,70,5420,8,29,59,0.5,0.0,558,4.73,13.4,0.0,1,33.4,2.6,6.5,0,0,0,1,0,0,250,250,0,,,,,,,,,,,,,,,,
34003,1625652221887,,,,,,,,0.01,-0.01,1.94,-0,6,5,0.02,,70,5458,8,29,59,0.5,0.0,566,4.76,13.3,0.0,1,33.4,1.44,6.5,0,0,0,1,0,0,250,250,0,,,,,,,,,,,,,,,,
34023,1625652221907,,,,,,,,0.01,-0.04,1.78,-0,2,2,0.05,,70,5426,8,29,59,0.5,0.0,562,4.85,13.5,0.0,1,33.4,2.59,6.5,0,0,0,1,0,0,250,250,0,,,,,,,,,,,,,,,,
34043,1625652221927,1,2,48,49,33,32,1,0.11,0.01,1.96,-0,-3,-1,0.11,0,70,5476,8,29,59,0.5,0.0,557,4.78,13.5,0.0,1,33.4,2.56,6.5,0,0,0,1,0,0,250,250,0,52.961876,6.522994,0.0,31.5,10,3,1.5,0,0.0,-1,0.0,0.0,0.0,0,0.0,0.5674
34063,1625652221947,,,,,,,,-0.05,-0.01,1.8,0,5,7,0.06,,70,5408,8,29,59,0.5,0.0,562,4.71,13.2,0.0,1,33.4,2.6,6.5,0,0,0,1,0,0,250,250,0,,,,,,,,,,,,,,,,
34083,1625652221967,,,,,,,,0.06,-0.03,1.98,0,-4,-0,0.07,,70,5456,8,29,59,0.5,0.0,562,4.82,13.5,0.0,1,33.4,2.57,6.4,0,0,0,1,0,0,250,250,0,,,,,,,,,,,,,,,,
34103,1625652221987,,,,,,,,0.08,0.0,2.15,0,-1,1,0.08,,70,5426,8,29,59,0.502,0.0,568,4.75,13.4,0.0,1,33.4,2.59,6.4,0,0,0,1,0,0,250,250,0,,,,,,,,,,,,,,,,
34123,1625652221997,,,,,,,,-0.03,-0.05,1.97,0,3,3,0.06,,70,5441,8,29,59,0.503,0.0,551,4.83,13.5,0.0,1,33.4,2.58,6.4,0,0,0,1,0,0,250,250,0,,,,,,,,,,,,,,,,
34143,1625652222017,1,2,48,48,32,32,0,0.13,0.01,2.14,-0,-6,-5,0.13,0,70,5408,8,29,59,0.505,0.0,557,4.85,13.5,0.0,1,33.4,2.6,6.4,0,0,0,1,0,0,250,250,0,52.961876,6.522994,0.0,31.5,10,3,1.5,0,0.0,-1,0.0,,0.0,0,0.0,0.569
34163,1625652222037,,,,,,,,0.02,0.01,1.96,-0,4,3,0.02,,70,5437,8,29,59,0.506,0.0,566,4.71,13.2,0.0,1,33.4,2.59,6.4,0,0,0,1,0,0,250,250,0,,,,,,,,,,,,,,,,
34183,1625652222057,,,,,,,,0.03,-0.05,1.8,-0,-0,1,0.06,,70,5411,8,29,59,0.506,0.0,552,4.78,13.5,0.0,1,33.4,1.47,6.4,0,0,0,1,0,0,250,250,0,,,,,,,,,,,,,,,,
34203,1625652222077,,,,,,,,0.1,0.02,1.98,-0,-3,-2,0.1,,70,5417,8,29,59,0.508,0.0,561,4.77,13.5,0.0,1,33.4,2.6,6.5,0,0,0,1,0,0,250,250,0,,,,,,,,,,,,,,,,
34223,1625652222107,,,,,,,,-0.02,-0.04,1.81,-0,3,4,0.04,,70,5411,8,29,59,0.509,0.0,561,4.78,13.3,0.0,1,33.4,1.47,6.5,0,0,0,1,0,0,250,250,0,,,,,,,,,,,,,,,,
34243,1625652222127,1,0,48,49,32,32,1,0.13,0.0,2.0,-1,-7,-3,0.13,0,70,5397,8,29,59,0.511,0.0,560,4.83,13.5,0.0,1,33.4,2.61,6.5,0,0,0,1,0,0,250,250,0,52.961876,6.522994,0.0,31.5,10,3,1.5,0,0.0,-1,0.0,0.0,0.0,0,0.0,0.5707
34263,1625652222147,,,,,,,,0.04,-0.03,1.83,-1,3,3,0.06,,70,5414,8,29,60,0.512,0.0,560,4.71,13.3,0.0,1,33.7,2.59,6.5,0,0,0,1,0,0,250,250,0,,,,,,,,,,,,,,,,
34283,1625652222167,,,,,,,,0.03,-0.07,1.68,-1,2,2,0.07,,70,5384,8,29,60,0.513,0.0,561,4.82,13.5,0.0,1,33.7,1.48,6.5,0,0,0,1,0,0,250,250,0,,,,,,,,,,,,,,,,
34303,1625652222187,,,,,,,,0.1,0.01,1.87,-1,-2,-2,0.1,,70,5420,8,29,60,0.515,0.0,561,4.73,13.3,0.0,1,33.7,2.59,6.5,0,0,0,1,0,0,250,250,0,,,,,,,,,,,,,,,,
34323,1625652222207,,,,,,,,-0.03,-0.07,1.71,-0,5,5,0.08,,70,5360,8,29,60,0.516,0.0,552,4.8,13.5,0.0,1,33.7,1.49,6.5,0,0,0,1,0,0,250,250,0,,,,,,,,,,,,,,,,
34343,1625652222227,1,2,48,48,33,32,0,0.12,-0.03,1.9,-1,-9,-4,0.13,0,70,5391,8,29,60,0.516,0.0,557,4.78,13.5,0.0,1,33.7,2.6,6.5,0,0,0,1,0,0,250,250,0,52.961876,6.522994,0.0,31.5,10,3,1.5,0,0.0,-1,0.0,,0.0,0,0.0,0.5724
34363,1625652222247,,,,,,,,0.01,-0.03,1.74,-0,1,4,0.03,,70,5352,8,29,60,0.514,0.0,563,4.73,13.3,0.0,1,33.7,1.5,6.5,0,0,0,1,0,0,250,250,0,,,,,,,,,,,,,,,,
34383,1625652222267,,,,,,,,0.06,-0.08,1.6,-1,-1,2,0.1,,70,5398,8,29,60,0.513,0.0,553,4.83,13.5,0.0,1,33.7,2.6,6.5,0,0,0,1,0,0,250,250,0,,,,,,,,,,,,,,,,
34403,1625652222287,,,,,,,,0.09,-0.02,1.8,-1,-0,2,0.09,,71,5380,8,29,60,0.511,0.0,557,4.73,13.5,0.0,1,33.7,1.48,6.5,0,0,0,1,0,0,250,250,0,,,,,,,,,,,,,,,,
34423,1625652222306,,,,,,,,-0.0,-0.09,1.65,-1,4,4,0.09,,71,5361,8,29,60,0.51,0.0,556,4.77,13.4,0.0,1,33.7,1.49,6.5,0,0,0,1,0,0,250,250,0,,,,,,,,,,,,,,,,
34443,1625652222326,0,1,48,49,33,32,0,0.15,-0.01,1.84,-1,-8,-5,0.15,0,71,5381,8,29,60,0.508,0.0,562,4.76,13.5,0.0,1,33.7,1.48,6.5,0,0,0,1,0,0,250,250,0,52.961876,6.522994,0.0,31.5,10,3,1.5,0,0.0,-1,0.0,0.0,0.0,0,0.0,0.574
34463,1625652222346,,,,,,,,-0.01,-0.04,1.69,-1,2,4,0.04,,71,5337,8,29,60,0.507,0.0,550,4.78,13.4,0.0,1,33.7,1.5,6.5,0,0,0,1,0,0,250,250,0,,,,,,,,,,,,,,,,
34483,1625652222366,,,,,,,,0.12,-0.03,1.88,-1,-2,-2,0.12,,71,5378,8,29,60,0.506,0.0,554,4.81,13.5,0.0,1,33.7,2.61,6.5,0,0,0,1,0,0,250,250,0,,,,,,,,,,,,,,,,
34503,1625652222386,,,,,,,,0.05,-0.05,1.94,-1,5,3,0.07,,71,5347,8,29,60,0.504,0.0,558,4.73,13.3,0.0,1,33.7,2.63,6.5,0,0,0,1,0,0,250,250,0,,,,,,,,,,,,,,,,
34523,1625652222402,,,,,,,,0.04,-0.06,1.77,-1,5,2,0.07,,71,5384,8,29,60,0.504,0.0,539,4.88,13.6,0.0,1,33.7,2.61,6.5,0,0,0,1,0,0,250,250,0,,,,,,,,,,,,,,,,
34543,1625652222422,0,3,48,49,33,32,-0,0.08,0.0,1.96,-1,1,-1,0.08,0,71,5328,8,29,60,0.503,0.0,554,4.8,13.5,0.0,1,33.7,2.65,6.5,0,0,0,1,0,0,250,250,0,52.961876,6.522994,0.0,31.5,10,3,1.5,0,0.0,-1,0.0,,0.0,0,0.0,0.5757
34563,1625652222442,,,,,,,,-0.02,-0.07,1.8,-1,6,4,0.07,,71,5364,8,29,60,0.501,0.0,556,4.76,13.4,0.0,1,33.7,2.62,6.5,0,0,0,1,0,0,250,250,0,,,,,,,,,,,,,,,,
34583,1625652222462,,,,,,,,0.12,0.0,1.98,-1,-5,-4,0.12,,71,5329,8,29,60,0.5,0.0,562,4.75,13.4,0.0,1,33.7,2.64,6.5,0,0,0,1,0,0,250,250,0,,,,,,,,,,,,,,,,
34603,1625652222482,,,,,,,,-0.03,-0.02,1.81,-1,4,5,0.04,,71,5349,8,29,60,0.502,0.0,547,4.75,13.2,0.0,1,33.7,1.5,6.5,0,0,0,1,0,0,250,250,0,,,,,,,,,,,,,,,,
34623,1625652222506,,,,,,,,0.11,-0.0,2.0,-0,-6,-4,0.11,,71,5344,8,29,60,0.503,0.0,556,4.82,13.5,0.0,1,33.7,2.63,6.5,0,0,0,1,0,0,250,250,0,,,,,,,,,,,,,,,,
34643,1625652222526,1,2,48,50,33,32,1,0.01,-0.03,1.83,-0,2,2,0.03,0,71,5328,8,29,60,0.505,0.0,551,4.75,13.2,0.0,1,33.7,2.65,6.5,0,0,0,1,0,0,250,250,0,52.961876,6.522994,0.0,31.5,10,3,1.5,0,0.0,-1,0.0,0.0,0.0,0,0.0,0.5774
34663,1625652222546,,,,,,,,0.07,-0.06,1.68,0,-3,-1,0.09,,71,5381,8,29,60,0.507,0.0,548,4.82,13.5,0.0,1,33.7,2.61,6.5,0,0,0,1,0,0,250,250,0,,,,,,,,,,,,,,,,
34683,1625652222566,,,,,,,,0.06,-0.03,1.87,0,-4,-2,0.07,,71,5319,8,29,60,0.507,0.0,556,4.77,13.4,0.0,1,33.7,1.52,6.5,0,0,0,1,0,0,250,250,0,,,,,,,,,,,,,,,,
34703,1625652222586,,,,,,,,-0.0,-0.06,1.71,0,1,1,0.06,,71,5400,8,29,60,0.51,0.0,556,4.78,13.4,0.0,1,33.7,1.47,6.5,0,0,0,1,0,0,250,250,0,,,,,,,,,,,,,,,,
34723,1625652222607,,,,,,,,0.11,0.01,1.9,-0,-11,-7,0.11,,71,5392,8,29,60,0.511,0.0,560,4.76,13.4,0.0,1,33.7,1.47,6.5,0,0,0,1,0,0,250,250,0,,,,,,,,,,,,,,,,
34743,1625652222627,0,2,48,50,33,32,1,-0.06,-0.04,1.74,0,-0,3,0.07,0,71,5448,8,29,60,0.513,0.0,556,4.72,13.2,0.0,1,33.7,2.58,6.5,0,0,0,1,0,0,250,250,0,52.961876,6.522994,0.0,31.5,10,3,1.5,0,0.0,-1,0.0,,0.0,0,0.0,0.579
34763,1625652222647,,,,,,,,0.05,-0.03,1.93,0,-7,-2,0.06,,71,5452,8,29,60,0.514,0.0,566,4.85,13.6,0.0,1,33.7,2.57,6.5,0,0,0,1,0,0,250,250,0,,,,,,,,,,,,,,,,
34783,1625652222667,,,,,,,,0.07,-0.0,2.1,0,-7,-3,0.07,,71,5458,8,29,60,0.516,0.0,570,4.72,13.3,0.0,1,33.7,2.56,6.5,0,0,0,1,0,0,250,250,0,,,,,,,,,,,,,,,,
34803,1625652222687,,,,,,,,-0.03,-0.03,1.93,0,0,3,0.05,,71,5484,8,29,60,0.518,0.0,564,4.72,13.3,0.0,1,33.7,2.55,6.4,0,0,0,1,0,0,250,250,0,,,,,,,,,,,,,,,,
34823,1625652222706,,,,,,,,0.13,-0.0,2.1,-1,-5,-4,0.13,,71,5452,8,29,60,0.519,0.0,558,4.8,13.5,0.0,1,33.7,1.44,6.4,0,0,0,1,0,0,250,250,0,,,,,,,,,,,,,,,,
34843,1625652222726,-1,1,48,49,32,32,1,0.07,-0.03,1.97,-1,1,-1,0.08,0,71,5492,8,29,60,0.521,0.0,570,4.72,13.4,0.0,1,33.7,2.54,6.4,0,0,0,1,0,0,250,250,0,52.961876,6.522994,0.0,31.5,10,3,1.8,0,0.0,-1,0.0,0.0,0.0,0,0.0,0.5807
34863,1625652222746,,,,,,,,-0.02,-0.05,1.8,-1,4,2,0.05,,71,5458,8,29,60,0.522,0.0,557,4.81,13.5,0.0,1,33.7,2.56,6.4,0,0,0,1,0,0,250,250,0,,,,,,,,,,,,,,,,
34883,1625652222766,,,,,,,,0.13,-0.0,1.99,-0,-9,-7,0.13,,71,5529,8,29,60,0.522,0.0,560,4.83,13.5,0.0,1,33.7,2.53,6.4,0,0,0,1,0,0,250,250,0,,,,,,,,,,,,,,,,
34903,1625652222786,,,,,,,,0.05,-0.03,1.82,-0,-2,-3,0.06,,71,5501,8,29,59,0.524,0.0,576,4.72,13.2,0.0,1,33.4,2.54,6.4,0,0,0,1,0,0,250,250,0,,,,,,,,,,,,,,,,
34923,1625652222806,,,,,,,,-0.04,-0.04,1.67,-0,3,1,0.06,,71,5547,8,29,59,0.524,0.0,570,4.76,13.3,0.0,1,33.4,2.51,6.4,0,0,0,1,0,0,250,250,0,,,,,,,,,,,,,,,,
34943,1625652222826,-1,2,48,49,33,32,1,0.08,-0.01,1.86,-0,-3,-6,0.08,0,71,5570,8,29,59,0.525,0.0,570,4.8,13.6,0.0,1,33.4,2.5,6.4,0,0,0,1,0,0,250,250,0,52.961876,6.522994,0.0,31.5,10,3,1.8,0,0.0,-1,0.0,,0.0,0,0.0,0.5824
34963,1625652222846,,,,,,,,0.09,0.0,2.04,-0,-4,-6,0.09,,71,5563,8,29,59,0.526,0.0,577,4.73,13.3,0.0,1,33.4,2.5,6.4,0,0,0,1,0,0,250,250,0,,,,,,,,,,,,,,,,
34983,1625652222866,,,,,,,,-0.04,-0.01,1.87,-0,3,1,0.04,,71,5634,8,29,59,0.526,0.0,583,4.73,13.2,0.0,1,33.5,2.45,6.3,0,0,0,1,0,0,250,250,0,,,,,,,,,,,,,,,,
35003,1625652222886,,,,,,,,-0.02,-0.04,1.71,-1,6,0,0.05,,71,5593,8,29,59,0.527,0.0,580,4.78,13.4,0.0,1,33.4,2.48,6.3,0,0,0,1,0,0,250,250,0,,,,,,,,,,,,,,,,
35023,1625652222906,,,,,,,,0.09,-0.03,1.9,-1,-3,-5,0.1,,71,5644,8,29,59,0.528,0.0,577,4.85,13.6,0.0,1,33.5,2.46,6.3,0,0,0,1,0,0,250,250,0,,,,,,,,,,,,,,,,
35043,1625652222926,0,3,48,49,33,32,1,0.09,-0.03,2.07,-0,-3,-5,0.1,0,71,5635,8,29,58,0.529,0.0,584,4.72,13.4,0.0,1,33.2,2.46,6.3,0,0,0,1,0,0,250,250,0,52.961876,6.522994,0.0,31.5,10,3,1.8,0,0.0,-1,0.0,0.0,0.0,0,0.0,0.584
35063,1625652222946,,,,,,,,-0.02,-0.01,1.9,-0,3,1,0.03,,71,5693,8,29,58,0.531,0.0,588,4.73,13.3,0.0,1,33.2,2.42,6.3,0,0,0,1,0,0,250,250,0,,,,,,,,,,,,,,,,
35083,1625652222966,,,,,,,,-0.06,-0.02,1.74,-0,5,2,0.06,,71,5685,8,29,58,0.533,0.0,581,4.8,13.4,0.0,1,33.2,1.3,6.3,0,0,0,1,0,0,250,250,0,,,,,,,,,,,,,,,,
35103,1625652222986,,,,,,,,0.05,-0.03,1.93,-0,-0,-2,0.06,,71,5669,8,29,58,0.536,0.0,581,4.83,13.5,0.0,1,33.2,2.44,6.4,0,0,0,1,0,0,250,250,0,,,,,,,,,,,,,,,,
35123,1625652222998,,,,,,,,0.12,-0.04,2.1,-0,-5,-5,0.13,,71,5669,8,29,58,0.542,0.0,583,4.82,13.5,0.0,1,33.2,2.44,6.4,0,0,0,1,0,0,250,250,0,,,,,,,,,,,,,,,,
35143,1625652223018,0,3,48,49,33,32,-0,0.03,-0.05,1.92,0,1,-0,0.06,0,71,5656,8,29,58,0.545,0.0,589,4.75,13.4,0.0,1,33.2,2.45,6.4,0,0,0,1,0,0,250,250,0,52.961876,6.522994,0.0,31.5,10,3,1.8,0,0.0,-1,0.0,,0.0,0,0.0,0.5857
35163,1625652223038,,,,,,,,-0.07,-0.06,1.76,0,6,5,0.1,,71,5669,8,29,58,0.547,0.0,584,4.78,13.4,0.0,1,33.2,2.44,6.4,0,0,0,1,0,0,250,250,0,,,,,,,,,,,,,,,,
35183,1625652223058,,,,,,,,-0.16,-0.07,1.61,0,5,4,0.17,,71,5662,8,29,58,0.551,0.0,579,4.83,13.5,0.0,1,33.2,1.31,6.4,0,0,0,1,0,0,250,250,0,,,,,,,,,,,,,,,,
35203,1625652223078,,,,,,,,-0.05,-0.05,1.81,-0,-3,-3,0.07,,71,5668,8,29,57,0.555,0.0,584,4.79,13.5,0.0,1,33.0,1.32,6.4,0,0,0,1,0,0,250,250,0,,,,,,,,,,,,,,,,
35223,1625652223106,,,,,,,,0.06,-0.05,1.99,-0,-2,-2,0.08,,71,5647,8,29,57,0.559,0.0,597,4.71,13.3,0.0,1,33.0,2.47,6.4,0,0,0,1,0,0,250,250,0,,,,,,,,,,,,,,,,
35243,1625652223126,-1,0,48,49,32,32,1,0.02,-0.04,1.83,0,5,4,0.05,0,71,5666,8,29,57,0.564,0.0,595,4.7,13.3,0.0,1,33.0,2.44,6.4,0,0,0,1,0,0,250,250,0,52.961876,6.522994,0.0,31.5,10,3,1.8,0,0.0,-1,0.0,0.0,0.0,0,0.0,0.5874
35263,1625652223146,,,,,,,,-0.09,-0.07,1.68,0,7,5,0.12,,71,5607,8,29,58,0.567,0.0,573,4.81,13.5,0.0,1,33.2,2.48,6.4,0,0,0,1,0,0,250,250,0,,,,,,,,,,,,,,,,
35283,1625652223166,,,,,,,,-0.01,-0.05,1.87,-0,-2,-1,0.05,,71,5610,8,29,58,0.57,0.0,573,4.86,13.5,0.0,1,33.2,2.49,6.4,0,0,0,1,0,0,250,250,0,,,,,,,,,,,,,,,,
35303,1625652223186,,,,,,,,0.09,-0.03,2.05,-0,0,-0,0.1,,71,5607,8,29,57,0.573,0.0,588,4.72,13.3,0.0,1,32.9,2.49,6.4,0,0,0,1,0,0,250,250,0,,,,,,,,,,,,,,,,
35323,1625652223206,,,,,,,,0.0,-0.02,1.88,-0,7,6,0.02,,71,5568,8,29,57,0.576,0.0,575,4.78,13.4,0.0,1,32.9,2.52,6.4,0,0,0,1,0,0,250,250,0,,,,,,,,,,,,,,,,
35343,1625652223226,0,1,48,49,32,32,1,-0.08,-0.03,1.72,-1,6,3,0.09,0,71,5602,8,29,58,0.573,0.0,574,4.81,13.4,0.0,1,33.2,2.49,6.4,0,0,0,1,0,0,250,250,0,52.961876,6.522994,0.0,31.5,10,3,1.5,0,0.0,-1,0.0,,0.0,0,0.0,0.589
35363,1625652223246,,,,,,,,0.05,-0.01,1.91,-1,-2,-3,0.06,,71,5517,8,29,57,0.57,0.0,583,4.81,13.6,0.0,1,32.9,2.55,6.4,0,0,0,1,0,0,250,250,0,,,,,,,,,,,,,,,,
35383,1625652223266,,,,,,,,0.05,-0.03,2.08,-1,5,4,0.06,,71,5560,8,29,57,0.566,0.0,576,4.73,13.4,0.0,1,32.9,2.51,6.4,0,0,0,1,0,0,250,250,0,,,,,,,,,,,,,,,,
35403,1625652223286,,,,,,,,-0.05,-0.04,1.91,-0,6,5,0.07,,71,5527,8,29,58,0.574,0.0,566,4.8,13.5,0.0,1,33.2,1.41,6.4,0,0,0,1,0,0,250,250,0,,,,,,,,,,,,,,,,
35423,1625652223305,,,,,,,,0.08,-0.04,2.08,0,-7,-4,0.09,,71,5544,8,29,57,0.593,0.0,570,4.8,13.5,0.0,1,32.9,1.41,6.4,0,0,0,1,0,0,250,250,0,,,,,,,,,,,,,,,,
35443,1625652223325,1,1,48,49,33,32,0,0.11,-0.03,2.24,0,-0,0,0.12,0,71,5511,8,29,58,0.614,0.0,585,4.72,13.2,0.0,1,33.2,2.55,6.4,0,0,0,1,0,0,250,250,0,52.961876,6.522994,0.0,31.5,10,3,1.5,0,0.0,-1,0.0,0.0,0.0,0,0.0,0.5907
35463,1625652223345,,,,,,,,-0.05,-0.03,2.05,0,4,4,0.06,,71,5513,8,29,58,0.633,0.0,573,4.75,13.4,0.0,1,33.2,1.42,6.4,0,0,0,1,0,0,250,250,0,,,,,,,,,,,,,,,,
35483,1625652223365,,,,,,,,0.03,-0.03,2.22,-0,-4,-5,0.05,,71,5562,8,29,58,0.652,0.0,571,4.82,13.5,0.0,1,33.2,2.51,6.4,0,0,0,1,0,0,250,250,0,,,,,,,,,,,,,,,,
35503,1625652223385,,,,,,,,0.12,-0.0,2.36,-0,-1,-3,0.12,,71,5501,8,29,57,0.677,0.0,571,4.75,13.5,0.0,1,32.9,2.55,6.4,0,0,0,1,0,0,250,250,0,,,,,,,,,,,,,,,,
35523,1625652223407,,,,,,,,-0.03,-0.04,2.17,-0,6,3,0.06,,71,5545,8,29,58,0.692,0.0,571,4.74,13.4,0.0,1,33.2,1.39,6.4,0,0,0,1,0,0,250,250,0,,,,,,,,,,,,,,,,
35543,1625652223427,-0,2,48,49,33,32,1,0.03,-0.05,1.99,-2,2,-2,0.06,0,71,5480,8,29,58,0.709,0.0,568,4.78,13.5,0.0,1,33.1,1.44,6.4,0,0,0,1,0,0,250,250,0,52.961876,6.522994,0.0,31.5,10,3,1.5,0,0.0,-1,0.0,,0.0,0,0.0,0.5924
35563,1625652223447,,,,,,,,0.12,-0.0,2.15,-1,2,-3,0.12,,71,5560,8,29,58,0.728,0.0,570,4.74,13.3,0.0,1,33.2,2.51,6.4,0,0,0,1,0,0,250,250,0,,,,,,,,,,,,,,,,
35583,1625652223467,,,,,,,,-0.02,-0.01,1.97,-1,8,4,0.03,,71,5482,8,29,58,0.758,0.0,574,4.78,13.4,0.0,1,33.1,2.57,6.5,0,0,0,1,0,0,250,250,0,,,,,,,,,,,,,,,,
35603,1625652223487,,,,,,,,-0.0,-0.05,1.81,-1,2,-1,0.05,,71,5504,8,29,58,0.793,0.0,566,4.84,13.5,0.0,1,33.2,2.55,6.5,0,0,0,1,0,0,250,250,0,,,,,,,,,,,,,,,,
35623,1625652223505,,,,,,,,0.11,-0.01,1.99,-1,-1,-3,0.11,,71,5498,8,29,58,0.821,0.0,566,4.82,13.5,0.0,1,33.1,2.56,6.5,0,0,0,1,0,0,250,250,0,,,,,,,,,,,,,,,,
35643,1625652223525,-1,2,48,50,32,32,1,-0.04,-0.01,1.82,-1,7,5,0.04,0,71,5477,8,29,58,0.841,0.0,560,4.78,13.4,0.0,1,33.1,1.44,6.5,0,0,0,1,0,0,250,250,0,52.961876,6.522994,0.0,31.5,10,3,1.5,0,0.0,-1,0.0,0.0,0.0,0,0.0,0.594
35663,1625652223545,,,,,,,,0.02,-0.04,1.67,-1,-2,-1,0.05,,71,5464,8,29,58,0.852,0.0,565,4.83,13.5,0.0,1,33.1,2.58,6.5,0,0,0,1,0,0,250,250,0,,,,,,,,,,,,,,,,
35683,1625652223565,,,,,,,,0.08,-0.01,1.87,-1,-1,-1,0.08,,71,5434,8,29,58,0.858,0.0,569,4.76,13.3,0.0,1,33.1,1.47,6.5,0,0,0,1,0,0,250,250,0,,,,,,,,,,,,,,,,
35703,1625652223585,,,,,,,,-0.08,-0.03,1.71,-0,4,4,0.09,,71,5430,8,29,58,0.866,0.0,556,4.82,13.5,0.0,1,33.1,2.6,6.5,0,0,0,1,0,0,250,250,0,,,,,,,,,,,,,,,,
35723,1625652223605,,,,,,,,0.06,-0.02,1.9,-0,-7,-5,0.07,,71,5364,8,29,58,0.877,0.0,563,4.85,13.5,0.0,1,33.1,2.64,6.5,0,0,0,1,0,0,250,250,0,,,,,,,,,,,,,,,,
35743,1625652223625,0,3,48,49,33,32,-0,-0.02,-0.03,1.74,-0,3,3,0.03,0,71,5361,8,29,59,0.884,0.0,552,4.75,13.3,0.0,1,33.4,1.5,6.5,0,0,0,1,0,0,250,250,0,52.961876,6.522994,0.0,31.5,10,3,1.5,0,0.0,-1,0.0,,0.0,0,0.0,0.5957
35763,1625652223645,,,,,,,,0.03,-0.05,1.6,-0,-1,-2,0.06,,71,5307,8,29,59,0.892,0.0,547,4.83,13.5,0.0,1,33.4,2.67,6.5,0,0,0,1,0,0,250,250,0,,,,,,,,,,,,,,,,
35783,1625652223665,,,,,,,,0.03,-0.01,1.8,-0,4,1,0.03,,71,5284,8,29,59,0.898,0.0,554,4.74,13.3,0.0,1,33.4,2.68,6.5,0,0,0,1,0,0,250,250,0,,,,,,,,,,,,,,,,
35803,1625652223685,,,,,,,,0.01,-0.08,1.65,-0,1,-0,0.09,,71,5238,8,29,59,0.905,0.0,553,4.88,13.5,0.0,1,33.4,2.71,6.5,0,0,0,1,0,0,250,250,0,,,,,,,,,,,,,,,,
35823,1625652223705,,,,,,,,0.0,-0.03,1.84,0,4,1,0.03,,71,5230,8,29,59,0.909,0.0,542,4.73,13.3,0.0,1,33.4,2.72,6.5,0,0,0,1,0,0,250,250,0,,,,,,,,,,,,,,,,
35843,1625652223725,0,1,48,49,33,32,1,0.03,-0.1,1.69,-0,2,-1,0.1,0,71,5168,8,29,60,0.909,0.0,535,4.83,13.5,0.0,1,33.7,2.76,6.5,0,0,0,1,0,0,250,250,0,52.961876,6.522994,0.0,31.5,10,3,1.5,0,0.0,-1,0.0,0.0,0.0,0,0.0,0.5974
35863,1625652223745,,,,,,,,-0.03,-0.07,1.88,-0,7,3,0.07,,71,5170,8,29,60,0.91,0.0,542,4.73,13.2,0.0,1,33.7,2.75,6.5,0,0,0,1,0,0,250,250,0,,,,,,,,,,,,,,,,
35883,1625652223765,,,,,,,,0.06,-0.07,1.88,-1,3,-3,0.09,,71,5122,8,29,60,0.909,0.0,532,4.78,13.5,0.0,1,33.6,2.78,6.6,0,0,0,1,0,0,250,250,0,,,,,,,,,,,,,,,,
35903,1625652223785,,,,,,,,-0.01,-0.05,1.72,-0,9,4,0.05,,71,5097,8,29,60,0.907,0.0,523,4.74,13.4,0.0,1,33.6,2.79,6.6,0,0,0,1,0,0,250,250,0,,,,,,,,,,,,,,,,
35923,1625652223805,,,,,,,,0.04,-0.01,1.91,-1,3,-1,0.04,,71,5077,8,29,60,0.906,0.0,537,4.72,13.2,0.0,1,33.6,2.81,6.6,0,0,0,1,0,0,250,250,0,,,,,,,,,,,,,,,,
35943,1625652223825,-0,3,48,49,33,32,1,0.05,-0.07,1.75,-1,4,0,0.09,0,71,5059,8,29,61,0.902,0.0,516,4.8,13.5,0.0,1,34.0,2.82,6.6,0,0,0,1,0,0,250,250,0,52.961876,6.522994,0.0,31.5,10,3,1.5,0,0.0,-1,0.0,,0.0,0,0.0,0.599
35963,1625652223845,,,,,,,,-0.02,-0.04,1.94,-0,6,2,0.04,,71,5043,8,29,60,0.901,0.0,519,4.72,13.2,0.0,1,33.6,2.8,6.6,0,0,0,1,0,0,250,250,0,,,,,,,,,,,,,,,,
35983,1625652223865,,,,,,,,0.05,-0.03,2.11,-1,1,-2,0.06,,71,5068,8,29,60,0.899,0.0,525,4.76,13.4,0.0,1,33.6,2.79,6.6,0,0,0,1,0,0,250,250,0,,,,,,,,,,,,,,,,
36003,1625652223885,,,,,,,,0.03,-0.07,1.93,-0,4,1,0.08,,71,5006,8,29,61,0.898,0.0,513,4.8,13.5,0.0,1,34.0,1.7,6.5,0,0,0,1,0,0,250,250,0,,,,,,,,,,,,,,,,
36023,1625652223907,,,,,,,,-0.02,-0.05,2.11,-0,4,1,0.05,,71,5004,8,29,61,0.897,0.0,513,4.75,13.2,0.0,1,34.0,1.7,6.5,0,0,0,1,0,0,250,250,0,,,,,,,,,,,,,,,,
36043,1625652223927,0,1,48,49,33,32,1,0.06,-0.04,2.26,-0,1,-2,0.07,0,71,4992,8,29,61,0.896,0.0,515,4.85,13.5,0.0,1,33.8,2.82,6.5,0,0,0,1,0,0,250,250,0,52.961876,6.522994,0.0,31.5,10,3,1.5,0,0.0,-1,0.0,0.0,0.0,0,0.0,0.6007
36063,1625652223947,,,,,,,,0.04,-0.07,2.07,-0,4,2,0.08,,71,5025,8,29,61,0.895,0.0,508,4.8,13.5,0.0,1,34.0,1.69,6.5,0,0,0,1,0,0,250,250,0,,,,,,,,,,,,,,,,
36083,1625652223967,,,,,,,,-0.0,-0.03,2.23,-0,4,1,0.03,,71,5014,8,29,61,0.898,0.0,515,4.73,13.2,0.0,1,34.0,2.83,6.5,0,0,0,1,0,0,250,250,0,,,,,,,,,,,,,,,,
36103,1625652223987,,,,,,,,0.07,-0.02,2.21,-0,0,-2,0.07,,71,5037,8,29,61,0.898,0.0,520,4.78,13.4,0.0,1,34.0,1.68,6.5,0,0,0,1,0,0,250,250,0,,,,,,,,,,,,,,,,
36123,1625652223997,,,,,,,,0.02,-0.03,2.03,-0,5,3,0.03,,71,5075,8,29,61,0.899,0.0,513,4.81,13.4,0.0,1,34.0,1.66,6.5,0,0,0,1,0,0,250,250,0,,,,,,,,,,,,,,,,
36143,1625652224017,1,1,48,49,32,32,1,0.03,-0.0,2.19,-0,0,-1,0.03,0,71,5092,8,29,61,0.899,0.0,524,4.78,13.4,0.0,1,34.0,1.65,6.5,0,0,0,1,0,0,250,250,0,52.961876,6.522994,0.0,31.5,10,3,1.5,0,0.0,-1,0.0,,0.0,0,0.0,0.6024
36163,1625652224037,,,,,,,,0.05,-0.06,2.01,-0,1,-0,0.08,,71,5142,8,29,61,0.9,0.0,532,4.84,13.5,0.0,1,34.0,1.61,6.5,0,0,0,1,0,0,250,250,0,,,,,,,,,,,,,,,,
36183,1625652224057,,,,,,,,-0.03,-0.03,2.18,0,3,2,0.04,,71,5129,8,29,61,0.9,0.0,525,4.76,13.4,0.0,1,34.0,2.75,6.5,0,0,0,1,0,0,250,250,0,,,,,,,,,,,,,,,,
36203,1625652224077,,,,,,,,0.07,-0.03,2.31,-0,-2,-3,0.08,,71,5153,8,29,61,0.901,0.0,530,4.86,13.5,0.0,1,34.0,2.74,6.5,0,0,0,1,0,0,250,250,0,,,,,,,,,,,,,,,,
36223,1625652224105,,,,,,,,0.0,-0.03,2.12,0,4,4,0.03,,71,5169,8,29,61,0.901,0.0,535,4.75,13.3,0.0,1,34.0,2.73,6.5,0,0,0,1,0,0,250,250,0,,,,,,,,,,,,,,,,
36243,1625652224125,0,3,48,49,33,32,0,0.08,0.03,2.27,0,-4,-3,0.09,0,71,5159,8,29,61,0.901,0.0,529,4.73,13.4,0.0,1,34.0,2.73,6.5,0,0,0,1,0,0,250,250,0,52.961876,6.522994,0.0,31.5,10,3,1.5,0,0.0,-1,0.0,0.0,0.0,0,0.0,0.604
36263,1625652224145,,,,,,,,0.01,-0.03,2.08,0,2,3,0.04,,71,5155,8,29,61,0.901,0.0,532,4.76,13.5,0.0,1,34.0,2.74,6.5,0,0,0,1,0,0,250,250,0,,,,,,,,,,,,,,,,
36283,1625652224165,,,,,,,,0.03,-0.0,2.24,-0,-2,-1,0.03,,71,5051,8,29,61,0.903,0.0,541,4.8,13.5,0.0,1,34.0,2.8,6.5,0,0,0,1,0,0,250,250,0,,,,,,,,,,,,,,,,
36303,1625652224185,,,,,,,,0.06,-0.03,2.05,-0,-3,-2,0.07,,71,4922,8,29,61,0.904,0.0,514,4.83,13.5,0.0,1,32.9,1.67,6.5,0,0,0,1,0,0,250,250,0,,,,,,,,,,,,,,,,
36323,1625652224207,,,,,,,,0.22,-0.03,1.88,0,-1,-0,0.22,,71,4789,8,29,62,0.905,0.0,497,4.78,13.5,0.0,1,31.5,2.8,6.5,0,0,0,1,0,0,250,250,0,,,,,,,,,,,,,,,,
36343,1625652224227,0,1,49,51,32,31,1,0.18,-0.07,1.73,0,5,3,0.2,0,71,4650,8,29,62,0.906,0.0,480,4.8,13.6,0.0,1,29.6,2.74,6.5,0,0,0,1,0,0,250,250,0,52.961876,6.522994,0.0,31.5,10,3,1.5,0,0.0,-1,0.0,,0.0,0,0.0,0.6057
36363,1625652224247,,,,,,,,0.11,0.02,1.58,0,7,6,0.11,,71,4569,7,29,61,0.906,0.0,456,4.79,13.5,0.0,1,28.3,2.67,6.5,0,0,0,1,0,0,250,250,0,,,,,,,,,,,,,,,,
36383,1625652224267,,,,,,,,0.12,0.0,1.45,0,7,8,0.12,,71,4713,7,29,61,0.907,0.0,471,4.78,13.3,0.0,1,30.2,1.59,5.8,0,0,0,1,0,0,250,250,0,,,,,,,,,,,,,,,,
36403,1625652224287,,,,,,,,0.16,0.05,1.64,0,5,6,0.17,,71,4813,8,29,61,0.908,0.0,486,4.81,13.4,0.0,1,31.5,2.76,5.8,0,0,0,1,0,0,250,250,0,,,,,,,,,,,,,,,,
36423,1625652224306,,,,,,,,0.25,0.1,1.64,0,4,5,0.27,,71,4815,9,29,61,0.909,0.0,488,4.79,13.4,0.0,1,31.5,2.76,5.8,0,0,0,1,0,0,250,250,0,,,,,,,,,,,,,,,,
36443,1625652224326,0,2,48,50,33,32,1,0.3,0.09,1.61,0,0,2,0.31,0,71,4742,9,29,62,0.91,0.0,483,4.79,13.6,0.0,1,30.8,2.78,5.8,0,0,0,1,0,0,250,250,0,52.961876,6.522994,0.0,31.5,10,3,1.6,0,0.0,-1,0.0,0.0,0.0,0,0.0,0.6074
36463,1625652224346,,,,,,,,0.15,0.06,1.48,0,3,4,0.16,,71,4707,9,29,63,0.913,0.0,466,4.78,13.5,0.0,1,30.6,2.81,5.8,0,0,0,1,0,0,250,250,0,,,,,,,,,,,,,,,,
36483,1625652224366,,,,,,,,0.14,0.05,1.36,0,4,5,0.15,,71,4687,9,29,63,0.92,0.0,467,4.78,13.6,0.0,1,30.4,1.67,5.8,0,0,0,1,0,0,250,250,0,,,,,,,,,,,,,,,,
36503,1625652224386,,,,,,,,0.09,0.03,1.24,0,6,7,0.1,,71,4733,9,29,63,0.928,0.0,476,4.76,13.3,0.0,1,31.0,1.69,6.0,0,0,0,1,0,0,250,250,0,,,,,,,,,,,,,,,,
36523,1625652224406,,,,,,,,0.0,0.03,1.47,0,7,5,0.03,,72,4785,9,29,63,0.936,0.0,471,4.76,13.3,0.0,1,31.7,2.85,6.0,0,0,0,1,0,0,250,250,0,,,,,,,,,,,,,,,,
36543,1625652224426,1,3,47,50,32,31,1,0.02,0.08,1.68,-0,3,2,0.08,0,72,4831,9,29,63,0.943,0.0,487,4.82,13.5,0.0,1,32.3,2.86,6.0,0,0,0,1,0,0,250,250,0,52.961876,6.522994,0.0,31.5,10,3,1.6,0,0.0,-1,0.0,,0.0,0,0.0,0.609
36563,1625652224446,,,,,,,,0.07,0.03,1.54,-0,4,3,0.08,,72,4907,9,29,64,0.947,0.0,491,4.76,13.6,0.0,1,33.6,2.89,6.0,0,0,0,1,0,0,250,250,0,,,,,,,,,,,,,,,,
36583,1625652224466,,,,,,,,0.03,0.03,1.41,0,7,6,0.05,,72,4927,9,29,65,0.952,0.0,491,4.76,13.5,0.0,1,34.2,3.0,6.8,0,0,0,1,0,0,250,250,0,,,,,,,,,,,,,,,,
36603,1625652224486,,,,,,,,0.01,0.06,1.63,-0,4,3,0.06,,72,4935,9,29,64,0.96,0.0,511,4.79,13.4,0.0,1,34.0,2.95,6.8,0,0,0,1,0,0,250,250,0,,,,,,,,,,,,,,,,
36623,1625652224506,,,,,,,,0.07,0.03,1.69,-0,2,1,0.07,,72,4968,9,29,65,0.966,0.0,507,4.84,13.6,0.0,1,34.7,3.02,6.8,0,0,0,1,0,0,250,250,0,,,,,,,,,,,,,,,,
36643,1625652224526,-1,2,47,50,32,31,1,0.06,-0.02,1.54,0,5,4,0.06,0,72,4982,9,29,65,0.971,0.0,505,4.81,13.4,0.0,1,34.9,1.9,6.8,0,0,0,1,0,0,250,250,0,52.961876,6.522994,0.0,31.5,10,3,1.6,0,0.0,-1,0.0,0.0,0.0,0,0.0,0.6107
36663,1625652224546,,,,,,,,0.01,-0.01,1.75,-0,3,3,0.01,,72,5001,9,29,65,0.978,0.0,514,4.73,13.3,0.0,1,35.2,1.91,6.8,0,0,0,1,0,0,250,250,0,,,,,,,,,,,,,,,,
36683,1625652224566,,,,,,,,0.08,0.01,1.94,-0,-0,-1,0.08,,72,5081,9,29,65,0.984,0.0,510,4.78,13.6,0.0,1,35.2,3.02,6.8,0,0,0,1,0,0,250,250,0,,,,,,,,,,,,,,,,
36703,1625652224586,,,,,,,,-0.0,-0.02,1.77,0,5,5,0.02,,72,5142,9,29,65,0.991,0.0,517,4.75,13.5,0.0,1,35.2,3.01,7.1,0,0,0,1,0,0,250,250,0,,,,,,,,,,,,,,,,
36723,1625652224606,,,,,,,,0.1,0.04,1.96,-0,-3,-2,0.1,,72,5252,9,29,65,0.983,0.0,532,4.84,13.6,0.0,1,35.2,2.99,7.1,0,0,0,1,0,0,250,250,0,,,,,,,,,,,,,,,,
36743,1625652224604,0,1,48,50,32,31,-0,-0.02,-0.01,1.8,0,5,7,0.02,0,72,5325,9,29,65,0.976,0.0,541,4.78,13.5,0.0,1,35.1,1.86,7.1,0,0,0,1,0,0,250,250,0,52.961876,6.522994,0.0,31.5,10,3,1.6,0,0.0,-1,0.0,,0.0,0,0.0,0.6124
36763,1625652224624,,,,,,,,0.12,0.02,1.98,-0,-4,-2,0.13,,72,5441,9,29,65,0.966,0.0,545,4.86,13.6,0.0,1,35.0,2.96,7.1,0,0,0,1,0,0,250,250,0,,,,,,,,,,,,,,,,
36783,1625652224644,,,,,,,,0.08,0.01,1.85,-0,2,1,0.08,,72,5519,9,29,64,0.958,0.0,565,4.72,13.4,0.0,1,34.8,2.83,7.2,0,0,0,1,0,0,250,250,0,,,,,,,,,,,,,,,,
36803,1625652224664,,,,,,,,-0.01,-0.01,1.7,0,7,5,0.02,,72,5557,9,29,64,0.952,0.0,565,4.78,13.3,0.0,1,34.8,1.7,7.2,0,0,0,1,0,0,250,250,0,,,,,,,,,,,,,,,,
36823,1625652224706,,,,,,,,0.1,-0.01,1.89,-0,1,-2,0.1,,72,5639,9,29,64,0.942,0.0,562,4.81,13.5,0.0,1,34.7,2.81,7.2,0,0,0,1,0,0,250,250,0,,,,,,,,,,,,,,,,
36843,1625652224726,-1,2,48,50,31,31,1,0.16,-0.03,2.06,-0,-4,-5,0.16,0,72,5704,9,29,63,0.935,0.0,574,4.83,13.6,0.0,1,34.5,2.65,7.2,0,0,0,1,0,0,250,250,0,52.961876,6.522994,0.0,31.5,10,3,1.6,0,0.0,-1,0.0,0.0,0.0,0,0.0,0.614
36863,1625652224746,,,,,,,,0.14,-0.03,1.89,-0,-2,-4,0.14,,72,5799,9,29,63,0.928,0.0,590,4.78,13.5,0.0,1,34.4,2.61,7.2,0,0,0,1,0,0,250,250,0,,,,,,,,,,,,,,,,
36883,1625652224766,,,,,,,,0.09,-0.02,1.73,-0,1,-1,0.09,,72,5916,9,29,62,0.922,0.0,598,4.74,13.3,0.0,1,34.2,1.28,7.2,0,0,0,1,0,0,250,250,0,,,,,,,,,,,,,,,,
36903,1625652224786,,,,,,,,0.05,0.01,1.59,0,3,1,0.05,,72,6003,9,29,62,0.915,0.0,603,4.76,13.3,0.0,1,34.3,2.36,6.6,0,0,0,1,0,0,250,250,0,,,,,,,,,,,,,,,,
36923,1625652224806,,,,,,,,0.08,0.03,1.46,0,4,2,0.08,,72,6129,9,29,61,0.906,0.0,613,4.77,13.5,0.0,1,34.6,2.23,6.6,0,0,0,1,0,0,250,250,0,,,,,,,,,,,,,,,,
36943,1625652224826,-1,2,48,50,32,31,1,0.14,0.03,1.67,0,2,0,0.14,0,72,6229,9,29,60,0.9,0.0,628,4.75,13.4,0.0,1,34.7,2.26,6.6,0,0,0,1,0,0,250,250,0,52.961876,6.522994,0.0,31.5,10,3,1.6,0,0.0,-1,0.0,,0.0,0,0.0,0.6157
36963,1625652224846,,,,,,,,0.19,0.01,1.86,0,-2,-3,0.19,,72,6330,9,29,59,0.897,0.0,632,4.78,13.6,0.0,1,34.8,2.28,6.6,0,0,0,1,0,0,250,250,0,,,,,,,,,,,,,,,,
36983,1625652224866,,,,,,,,0.12,0.02,1.71,0,0,-1,0.12,,72,6421,9,29,58,0.896,0.0,638,4.8,13.5,0.0,1,34.9,2.29,6.8,0,0,0,1,0,0,250,250,0,,,,,,,,,,,,,,,,
37003,1625652224886,,,,,,,,0.18,0.03,1.9,0,1,0,0.18,,72,6560,9,29,56,0.897,0.0,645,4.77,13.4,0.0,1,34.9,2.28,6.8,0,0,0,1,0,0,250,250,0,,,,,,,,,,,,,,,,
37023,1625652224906,,,,,,,,0.15,0.01,1.74,0,-2,-3,0.15,,72,6602,9,29,55,0.896,0.0,647,4.76,13.6,0.0,1,34.8,1.14,6.8,0,0,0,1,0,0,250,250,0,,,,,,,,,,,,,,,,
37043,1625652224926,0,1,47,50,32,31,1,0.19,0.03,1.82,0,0,-0,0.19,0,72,6863,9,29,54,0.896,0.0,654,4.76,13.4,0.0,1,35.4,2.25,6.8,0,0,0,1,0,0,250,250,0,52.961876,6.522994,0.0,31.5,10,3,1.6,0,0.0,-1,0.0,0.0,0.0,0,0.0,0.6174
37063,1625652224946,,,,,,,,0.1,-0.01,1.67,0,1,-0,0.1,,72,6983,9,29,53,0.898,0.0,650,4.81,13.5,0.0,1,35.4,2.24,6.8,0,0,0,1,0,0,250,250,0,,,,,,,,,,,,,,,,
37083,1625652224966,,,,,,,,0.11,-0.01,1.86,-0,-2,-3,0.11,,72,7102,9,29,52,0.898,0.0,655,4.86,13.6,0.0,1,35.3,1.13,6.8,0,0,0,1,0,0,250,250,0,,,,,,,,,,,,,,,,
37103,1625652224986,,,,,,,,0.15,-0.04,2.04,-0,-2,-2,0.15,,72,7219,9,29,51,0.897,0.0,663,4.75,13.3,0.0,1,35.2,2.28,7.4,0,0,0,1,0,0,250,250,0,,,,,,,,,,,,,,,,
37123,1625652224998,,,,,,,,0.18,-0.03,2.15,-0,-1,-1,0.18,,72,7338,9,29,50,0.895,0.0,660,4.71,13.4,0.0,1,35.2,2.29,7.4,0,0,0,1,0,0,250,250,0,,,,,,,,,,,,,,,,
37143,1625652225018,0,1,47,50,32,31,1,0.2,0.01,2.26,-0,1,1,0.2,0,72,7440,9,29,49,0.893,0.0,656,4.84,13.3,0.0,1,35.2,1.17,7.4,0,0,0,1,0,0,250,250,0,52.961876,6.522994,0.0,31.5,10,3,1.6,0,0.0,-1,0.0,,0.0,0,0.0,0.6191
37163,1625652225038,,,,,,,,0.22,-0.03,2.3,-0,2,3,0.22,,72,7500,9,29,48,0.891,0.0,658,4.76,13.3,0.0,1,35.2,2.3,7.4,0,0,0,1,0,0,250,250,0,,,,,,,,,,,,,,,,
37183,1625652225058,,,,,,,,0.24,-0.07,2.32,-0,3,3,0.25,,72,7554,9,29,47,0.889,0.0,658,4.73,13.3,0.0,1,35.1,1.17,7.4,0,0,0,1,0,0,250,250,0,,,,,,,,,,,,,,,,
37203,1625652225078,,,,,,,,0.27,-0.09,2.46,-0,3,3,0.28,,72,7600,9,29,46,0.886,0.0,665,4.73,13.4,0.0,1,34.7,2.3,8.0,0,0,0,1,0,0,250,250,0,,,,,,,,,,,,,,,,
37223,1625652225102,,,,,,,,0.3,-0.08,2.59,-0,2,2,0.31,,72,7628,9,29,45,0.885,0.0,667,4.68,13.4,0.0,1,34.3,2.3,8.0,0,0,0,1,0,0,250,250,0,,,,,,,,,,,,,,,,
37243,1625652225122,0,0,48,50,32,30,1,0.31,-0.09,2.71,-0,0,-0,0.33,0,72,7625,9,29,44,0.885,0.0,664,4.72,13.5,0.0,1,33.7,2.3,8.0,0,0,0,1,0,0,250,250,0,52.961876,6.522994,0.0,31.5,10,3,1.6,0,0.0,-1,0.0,0.0,0.0,0,0.0,0.6207
37263,1625652225142,,,,,,,,0.28,-0.11,2.59,-0,-1,-2,0.3,,72,7656,9,29,43,0.884,0.0,663,4.75,13.5,0.0,1,33.2,2.31,8.0,0,0,0,1,0,0,250,250,0,,,,,,,,,,,,,,,,
37283,1625652225162,,,,,,,,0.23,-0.09,2.38,-0,-3,-4,0.24,,72,7646,9,29,42,0.883,0.0,663,4.75,13.5,0.0,1,32.6,2.3,8.1,0,0,0,1,0,0,250,250,0,,,,,,,,,,,,,,,,
37303,1625652225182,,,,,,,,0.15,-0.08,2.18,-0,-3,-5,0.17,,72,7693,9,29,42,0.882,0.0,667,4.91,13.5,0.0,1,32.7,1.17,8.1,0,0,0,1,0,0,250,250,0,,,,,,,,,,,,,,,,
37323,1625652225202,,,,,,,,0.1,-0.02,2.0,-0,-2,-4,0.1,,72,7678,9,29,41,0.88,0.0,665,4.84,13.5,0.0,1,32.1,2.3,8.1,0,0,0,1,0,0,250,250,0,,,,,,,,,,,,,,,,
37343,1625652225222,0,2,48,50,32,31,0,0.07,0.04,1.83,-0,-0,-1,0.08,0,72,7653,9,29,41,0.878,0.0,666,4.83,13.5,0.0,1,32.1,2.3,8.1,0,0,0,1,0,0,250,250,0,52.961876,6.522994,0.0,31.5,10,3,1.6,0,0.0,-1,0.0,,0.0,0,0.0,0.6224
37363,1625652225242,,,,,,,,0.07,0.05,1.68,0,2,3,0.08,,72,7612,9,29,40,0.875,0.0,664,4.82,13.3,0.0,1,31.5,2.3,8.1,0,0,0,1,0,0,250,250,0,,,,,,,,,,,,,,,,
37383,1625652225262,,,,,,,,0.08,-0.02,1.67,0,4,5,0.08,,72,7597,9,29,40,0.875,0.0,663,4.77,13.3,0.0,1,31.5,2.3,8.1,0,0,0,1,0,0,250,250,0,,,,,,,,,,,,,,,,
37403,1625652225203,,,,,,,,0.11,-0.06,1.62,0,5,6,0.12,,72,7542,9,29,40,0.873,0.0,660,4.82,13.5,0.0,1,31.5,1.17,8.1,0,0,0,1,0,0,250,250,0,,,,,,,,,,,,,,,,
37423,1625652225299,,,,,,,,0.14,-0.05,1.76,0,6,7,0.15,,72,7515,8,29,39,0.873,0.0,659,4.84,13.4,0.0,1,31.0,2.3,8.1,0,0,0,1,0,0,250,250,0,,,,,,,,,,,,,,,,
37443,1625652225319,0,1,48,50,32,30,2,0.16,-0.01,1.8,0,7,8,0.16,0,72,7440,7,29,38,0.871,0.0,666,4.73,13.3,0.0,1,30.7,2.3,8.1,0,0,0,1,0,0,250,250,0,52.961876,6.522994,0.0,31.5,10,3,1.6,0,0.0,-1,0.0,0.0,0.0,0,0.0,0.624
37463,1625652225339,,,,,,,,0.14,-0.04,1.65,0,8,10,0.15,,72,7393,7,28,38,0.871,0.0,656,4.79,13.5,0.0,1,30.7,2.24,8.1,0,0,0,1,0,0,250,250,0,,,,,,,,,,,,,,,,
37483,1625652225359,,,,,,,,0.1,-0.03,1.51,0,9,11,0.1,,72,7364,7,28,37,0.869,0.0,657,4.74,13.4,0.0,1,30.4,1.06,8.1,0,0,0,1,0,0,250,250,0,,,,,,,,,,,,,,,,
37503,1625652225379,,,,,,,,0.05,0.01,1.39,0,9,11,0.05,,72,7312,7,28,37,0.869,0.0,657,4.83,13.5,0.0,1,30.4,2.19,7.4,0,0,0,1,0,0,250,250,0,,,,,,,,,,,,,,,,
37523,1625652225405,,,,,,,,0.04,-0.01,1.27,0,7,8,0.04,,72,7217,7,28,37,0.868,0.0,657,4.82,13.5,0.0,1,30.4,1.06,7.4,0,0,0,1,0,0,250,250,0,,,,,,,,,,,,,,,,
37543,1625652225425,-0,2,48,48,32,31,1,0.08,-0.0,1.5,-0,4,5,0.08,0,72,7148,7,28,36,0.866,0.0,662,4.71,13.4,0.0,1,30.1,1.01,7.4,0,0,0,1,0,0,250,250,0,52.961876,6.522994,0.0,31.5,10,3,1.5,0,0.0,-1,0.0,,0.0,0,0.0,0.6257
37563,1625652225445,,,,,,,,0.1,-0.02,1.52,-0,6,7,0.1,,72,7062,7,28,36,0.865,0.0,656,4.71,13.3,0.0,1,30.1,2.14,7.4,0,0,0,1,0,0,250,250,0,,,,,,,,,,,,,,,,
37583,1625652225465,,,,,,,,0.03,-0.02,1.39,-0,6,7,0.04,,72,7022,7,28,36,0.864,0.0,660,4.8,13.5,0.0,1,30.1,2.14,6.9,0,0,0,1,0,0,250,250,0,,,,,,,,,,,,,,,,
37603,1625652225485,,,,,,,,0.08,-0.05,1.61,-0,3,4,0.1,,72,6941,7,28,36,0.864,0.0,661,4.73,13.6,0.0,1,30.0,2.14,6.9,0,0,0,1,0,0,250,250,0,,,,,,,,,,,,,,,,
37623,1625652225503,,,,,,,,0.04,0.01,1.47,-0,5,6,0.04,,72,6878,7,28,36,0.865,0.0,657,4.75,13.3,0.0,1,29.9,2.14,6.9,0,0,0,1,0,0,250,250,0,,,,,,,,,,,,,,,,
37643,1625652225523,0,0,47,50,32,30,2,0.06,-0.05,1.64,-0,2,3,0.08,0,72,6791,7,28,36,0.867,0.0,650,4.85,13.5,0.0,1,29.8,1.01,6.9,0,0,0,1,0,0,250,250,0,52.961876,6.522994,0.0,31.5,10,3,1.5,0,0.0,-1,0.0,0.0,0.0,0,0.0,0.6274
37663,1625652225543,,,,,,,,0.03,-0.0,1.5,-0,5,6,0.03,,72,6691,7,28,37,0.869,0.0,645,4.8,13.4,0.0,1,30.0,1.06,6.9,0,0,0,1,0,0,250,250,0,,,,,,,,,,,,,,,,
37683,1625652225563,,,,,,,,0.09,-0.02,1.71,-0,1,2,0.09,,72,6620,7,28,37,0.872,0.0,639,4.8,13.6,0.0,1,29.9,2.19,6.7,0,0,0,1,0,0,250,250,0,,,,,,,,,,,,,,,,
37703,1625652225583,,,,,,,,-0.03,-0.03,1.56,-0,3,4,0.04,,72,6544,7,28,37,0.873,0.0,636,4.76,13.4,0.0,1,29.9,1.06,6.7,0,0,0,1,0,0,250,250,0,,,,,,,,,,,,,,,,
37723,1625652225601,,,,,,,,0.02,-0.03,1.71,-0,5,5,0.04,,72,6399,7,28,37,0.876,0.0,645,4.73,13.4,0.0,1,29.7,2.19,6.7,0,0,0,1,0,0,250,250,0,,,,,,,,,,,,,,,,
37743,1625652225621,1,1,47,50,31,31,1,0.12,-0.03,1.9,0,0,3,0.12,0,72,6296,7,28,37,0.878,0.0,644,4.76,13.6,0.0,1,29.6,2.19,6.7,0,0,0,1,0,0,250,250,0,52.961876,6.522994,0.0,31.5,10,3,1.5,0,0.0,-1,0.0,,0.0,0,0.0,0.629
37763,1625652225641,,,,,,,,0.17,-0.02,2.08,0,-4,-1,0.18,,72,6153,7,28,37,0.882,0.0,632,4.81,13.6,0.0,1,29.4,2.19,6.7,0,0,0,1,0,0,250,250,0,,,,,,,,,,,,,,,,
37783,1625652225661,,,,,,,,0.23,-0.01,2.24,0,-8,-4,0.23,,72,5978,7,28,38,0.883,0.0,620,4.78,13.6,0.0,1,29.5,2.25,6.7,0,0,0,1,0,0,250,250,0,,,,,,,,,,,,,,,,
37803,1625652225681,,,,,,,,0.31,-0.0,2.38,0,-11,-7,0.31,,72,5803,7,28,39,0.887,0.0,607,4.81,13.6,0.0,1,29.3,2.37,6.2,0,0,0,1,0,0,250,250,0,,,,,,,,,,,,,,,,
37823,1625652225701,,,,,,,,0.29,0.01,2.52,0,-7,-4,0.29,,72,5622,7,28,40,0.89,0.0,603,4.77,13.2,0.0,1,29.0,1.31,6.2,0,0,0,1,0,0,250,250,0,,,,,,,,,,,,,,,,
37843,1625652225721,-1,2,48,50,32,31,2,0.15,-0.03,2.31,0,-2,0,0.15,0,72,5487,7,28,41,0.892,0.0,581,4.75,13.4,0.0,1,28.8,2.49,6.2,0,0,0,1,0,0,250,250,0,52.961876,6.522994,0.0,31.5,10,3,1.5,0,0.0,-1,0.0,0.0,0.0,0,0.0,0.6307
37863,1625652225741,,,,,,,,0.27,-0.01,2.45,0,-15,-8,0.27,,72,5314,7,28,42,0.895,0.0,561,4.86,13.6,0.0,1,28.8,2.57,6.2,0,0,0,1,0,0,250,250,0,,,,,,,,,,,,,,,,
37883,1625652225761,,,,,,,,0.15,-0.01,2.24,0,-5,1,0.15,,72,5193,7,28,44,0.897,0.0,553,4.78,13.5,0.0,1,29.1,1.53,6.2,0,0,0,1,0,0,250,250,0,,,,,,,,,,,,,,,,
37903,1625652225781,,,,,,,,0.23,0.03,2.39,0,-11,-5,0.23,,72,5045,7,28,44,0.901,0.0,538,4.82,13.5,0.0,1,28.8,2.72,6.4,0,0,0,1,0,0,250,250,0,,,,,,,,,,,,,,,,
37923,1625652225802,,,,,,,,0.23,-0.03,2.19,0,-8,-3,0.23,,72,4914,7,28,45,0.902,0.0,514,4.82,13.6,0.0,1,27.9,2.71,6.4,0,0,0,1,0,0,250,250,0,,,,,,,,,,,,,,,,
37943,1625652225822,1,0,48,50,32,31,1,0.18,0.01,2.01,0,-5,-0,0.18,0,72,4821,7,28,46,0.906,0.0,508,4.78,13.5,0.0,1,27.1,2.69,6.4,0,0,0,1,0,0,250,250,0,52.961876,6.522994,0.0,31.5,10,3,1.6,0,0.0,-1,0.0,,0.0,0,0.0,0.6324
37963,1625652225842,,,,,,,,0.12,-0.0,2.17,0,-4,-0,0.12,,72,4767,7,28,47,0.909,0.0,497,4.77,13.3,0.0,1,26.3,1.53,6.4,0,0,0,1,0,0,250,250,0,,,,,,,,,,,,,,,,
37983,1625652225862,,,,,,,,0.08,0.02,2.32,0,-5,-2,0.08,,72,4586,7,28,48,0.913,0.0,478,4.78,13.3,0.0,1,24.8,2.59,5.5,0,0,0,1,0,0,250,250,0,,,,,,,,,,,,,,,,
38003,1625652225882,,,,,,,,0.05,0.02,2.46,0,-5,-2,0.05,,72,4496,7,28,48,0.916,0.0,466,4.78,13.3,0.0,1,23.7,2.54,5.5,0,0,0,1,0,0,250,250,0,,,,,,,,,,,,,,,,
38023,1625652225905,,,,,,,,0.02,0.02,2.59,0,-5,-2,0.03,,72,4484,7,28,49,0.921,0.0,446,4.83,13.4,0.0,1,23.9,1.4,5.5,0,0,0,1,0,0,250,250,0,,,,,,,,,,,,,,,,
38043,1625652225925,1,0,48,50,32,31,2,0.0,0.03,2.69,0,-5,-2,0.03,0,72,4366,7,28,50,0.926,0.0,446,4.75,13.3,0.0,1,22.7,1.34,5.5,0,0,0,1,0,0,250,250,0,52.961876,6.522994,0.0,31.5,10,3,1.6,0,0.0,-1,0.0,0.0,0.0,0,0.0,0.634
38063,1625652225945,,,,,,,,-0.02,0.01,2.56,0,-5,-1,0.02,,72,4337,7,28,51,0.932,0.0,431,4.78,13.4,0.0,1,22.6,1.32,5.5,0,0,0,1,0,0,250,250,0,,,,,,,,,,,,,,,,
38083,1625652225965,,,,,,,,-0.01,-0.01,2.35,0,-4,-0,0.01,,72,4240,7,28,52,0.94,0.0,417,4.81,13.5,0.0,1,21.7,2.39,4.6,0,0,0,1,0,0,250,250,0,,,,,,,,,,,,,,,,
38103,1625652225985,,,,,,,,0.01,-0.04,2.15,0,-2,0,0.04,,72,4268,7,28,52,0.949,0.0,420,4.78,13.6,0.0,1,22.0,2.41,4.6,0,0,0,1,0,0,250,250,0,,,,,,,,,,,,,,,,
38123,1625652226005,,,,,,,,0.04,-0.03,2.02,0,-2,-0,0.05,,72,4193,7,28,53,0.965,0.0,411,4.8,13.6,0.0,1,21.4,2.35,4.6,0,0,0,1,0,0,250,250,0,,,,,,,,,,,,,,,,
38143,1625652226025,1,2,47,50,32,31,1,0.03,-0.01,2.18,0,-3,-1,0.03,0,72,4208,7,28,53,0.974,0.0,415,4.78,13.4,0.0,1,21.6,2.36,4.6,0,0,0,1,0,0,250,250,0,52.961876,6.522994,0.0,31.5,10,3,1.6,0,0.0,-1,0.0,,0.0,0,0.0,0.6357
38163,1625652225993,,,,,,,,0.01,0.02,2.25,0,-4,-1,0.02,,72,4174,7,28,54,0.989,0.0,410,4.76,13.3,0.0,1,21.4,2.33,4.6,0,0,0,1,0,0,250,250,0,,,,,,,,,,,,,,,,
38183,1625652226013,,,,,,,,0.02,0.02,2.06,0,-3,-0,0.03,,72,4082,7,28,55,0.999,0.0,405,4.8,13.6,0.0,1,20.5,1.16,4.6,0,0,0,1,0,0,250,250,0,,,,,,,,,,,,,,,,
38203,1625652226033,,,,,,,,0.04,0.02,1.89,-0,-2,-0,0.04,,72,4157,7,28,55,1.011,0.0,401,4.77,13.5,0.0,1,21.4,2.34,4.3,0,0,0,1,0,0,250,250,0,,,,,,,,,,,,,,,,
38223,1625652226053,,,,,,,,0.04,0.03,1.99,-0,-2,-1,0.05,,72,4166,7,28,55,1.024,0.0,416,4.76,13.3,0.0,1,21.5,2.34,4.3,0,0,0,1,0,0,250,250,0,,,,,,,,,,,,,,,,
38243,1625652226073,-0,2,47,50,32,31,1,0.02,0.04,2.1,-0,-3,-1,0.04,0,72,4099,7,28,56,1.038,0.0,403,4.75,13.3,0.0,1,20.9,2.34,4.3,0,0,0,1,0,0,250,250,0,52.961876,6.522994,0.0,31.5,10,3,1.6,0,0.0,-1,0.0,0.0,0.0,0,0.0,0.6374
38263,1625652226093,,,,,,,,0.01,0.02,1.92,-0,-2,-0,0.02,,72,4174,7,28,57,1.046,0.0,402,4.83,13.6,0.0,1,22.1,2.41,4.3,0,0,0,1,0,0,250,250,0,,,,,,,,,,,,,,,,
38283,1625652226113,,,,,,,,0.03,-0.02,1.76,-0,-1,0,0.03,,72,4223,7,28,57,1.048,0.0,408,4.82,13.6,0.0,1,22.7,2.44,4.7,0,0,0,1,0,0,250,250,0,,,,,,,,,,,,,,,,
38303,1625652226105,,,,,,,,0.06,-0.03,1.65,0,-1,-0,0.06,,72,4224,7,28,57,1.05,0.0,407,4.8,13.6,0.0,1,22.8,2.44,4.7,0,0,0,1,0,0,250,250,0,,,,,,,,,,,,,,,,
38323,1625652226201,,,,,,,,0.07,-0.03,1.84,-0,-2,-1,0.07,,72,4322,7,28,57,1.051,0.0,418,4.74,13.4,0.0,1,24.0,1.36,4.7,0,0,0,1,0,0,250,250,0,,,,,,,,,,,,,,,,
38343,1625652226221,-0,2,47,50,32,30,2,0.06,0.0,2.02,-0,-3,-2,0.06,0,72,4319,7,28,57,1.052,0.0,419,4.76,13.3,0.0,1,23.9,2.49,4.7,0,0,0,1,0,0,250,250,0,52.961876,6.522994,0.0,31.5,10,3,1.6,0,0.0,-1,0.0,,0.0,0,0.0,0.639
38363,1625652226241,,,,,,,,0.02,0.03,2.19,-0,-4,-3,0.04,,72,4368,7,28,58,1.041,0.0,430,4.8,13.4,0.0,1,24.9,1.4,4.7,0,0,0,1,0,0,250,250,0,,,,,,,,,,,,,,,,
38383,1625652226261,,,,,,,,-0.0,0.04,2.3,-0,-4,-3,0.04,,72,4398,7,28,58,1.03,0.0,423,4.75,13.3,0.0,1,25.2,1.42,4.7,0,0,0,1,0,0,250,250,0,,,,,,,,,,,,,,,,
38403,1625652226281,,,,,,,,-0.03,0.03,2.18,-0,-3,-2,0.04,,72,4385,7,28,58,1.016,0.0,432,4.81,13.4,0.0,1,25.3,2.54,5.2,0,0,0,1,0,0,250,250,0,,,,,,,,,,,,,,,,
38423,1625652226301,,,,,,,,-0.06,0.02,2.0,-0,-2,-0,0.06,,72,4448,7,28,58,1.004,0.0,431,4.81,13.4,0.0,1,26.0,2.59,5.2,0,0,0,1,0,0,250,250,0,,,,,,,,,,,,,,,,
38443,1625652226304,-0,2,48,50,32,31,1,-0.08,0.04,1.83,-0,-1,0,0.09,0,72,4481,7,28,59,0.994,0.0,432,4.8,13.5,0.0,1,26.6,1.47,5.2,0,0,0,1,0,0,250,250,0,52.961876,6.522994,0.0,31.5,10,3,1.5,0,0.0,-1,0.0,0.0,0.0,0,0.0,0.6407
38463,1625652226324,,,,,,,,-0.11,0.03,1.68,0,1,2,0.11,,72,4476,7,28,59,0.978,0.0,440,4.83,13.5,0.0,1,26.5,2.6,5.2,0,0,0,1,0,0,250,250,0,,,,,,,,,,,,,,,,
38483,1625652226344,,,,,,,,-0.12,0.03,1.54,0,2,3,0.13,,72,4514,7,28,59,0.965,0.0,440,4.81,13.4,0.0,1,27.0,2.63,5.5,0,0,0,1,0,0,250,250,0,,,,,,,,,,,,,,,,
38503,1625652226364,,,,,,,,-0.14,0.02,1.42,0,2,3,0.14,,72,4542,7,28,59,0.956,0.0,448,4.79,13.5,0.0,1,27.4,1.51,5.5,0,0,0,1,0,0,250,250,0,,,,,,,,,,,,,,,,
38523,1625652226406,,,,,,,,-0.17,0.03,1.4,0,3,3,0.17,,72,4593,7,28,59,0.944,0.0,457,4.83,13.4,0.0,1,28.0,2.65,5.5,0,0,0,1,0,0,250,250,0,,,,,,,,,,,,,,,,
38543,1625652226426,1,0,48,50,31,31,1,-0.19,0.03,1.58,0,2,2,0.19,0,72,4614,7,28,59,0.939,0.0,447,4.8,13.4,0.0,1,28.3,1.54,5.5,0,0,0,1,0,0,250,250,0,52.961876,6.522994,0.0,31.5,10,3,1.5,0,0.0,-1,0.0,,0.0,0,0.0,0.6424
38563,1625652226446,,,,,,,,-0.2,0.04,1.78,0,1,1,0.21,,72,4643,7,28,59,0.93,0.0,465,4.79,13.3,0.0,1,28.7,2.68,5.5,0,0,0,1,0,0,250,250,0,,,,,,,,,,,,,,,,
38583,1625652226466,,,,,,,,-0.18,0.05,1.96,-0,-1,-0,0.19,,72,4671,7,28,59,0.924,0.0,457,4.73,13.5,0.0,1,29.0,1.56,5.5,0,0,0,1,0,0,250,250,0,,,,,,,,,,,,,,,,
38603,1625652226486,,,,,,,,-0.13,0.06,2.13,-0,-3,-1,0.14,,72,4681,7,28,59,0.921,0.0,467,4.76,13.6,0.0,1,29.2,2.7,5.8,0,0,0,1,0,0,250,250,0,,,,,,,,,,,,,,,,
38623,1625652226502,,,,,,,,-0.06,0.03,1.95,-0,-3,-2,0.07,,72,4720,7,28,59,0.92,0.0,471,4.8,13.6,0.0,1,29.7,2.72,5.8,0,0,0,1,0,0,250,250,0,,,,,,,,,,,,,,,,
38643,1625652226522,-0,2,48,50,32,31,1,-0.04,0.01,1.79,-0,-1,0,0.04,0,72,4736,7,28,59,0.92,0.0,465,4.82,13.6,0.0,1,29.9,2.73,5.8,0,0,0,1,0,0,250,250,0,52.961876,6.522994,0.0,31.5,10,3,1.5,0,0.0,-1,0.0,0.0,0.0,0,0.0,0.644
38663,1625652226542,,,,,,,,-0.03,0.03,1.64,0,1,2,0.04,,72,4678,7,28,59,0.919,0.0,473,4.82,13.6,0.0,1,29.1,2.7,5.8,0,0,0,1,0,0,250,250,0,,,,,,,,,,,,,,,,
38683,1625652226562,,,,,,,,-0.06,0.04,1.5,0,2,3,0.07,,72,4682,7,28,59,0.921,0.0,461,4.76,13.4,0.0,1,28.9,2.7,5.8,0,0,0,1,0,0,250,250,0,,,,,,,,,,,,,,,,
38703,1625652226582,,,,,,,,-0.1,0.05,1.5,0,2,3,0.11,,72,4627,7,28,59,0.923,0.0,462,4.82,13.3,0.0,1,28.5,1.55,5.8,0,0,0,1,0,0,250,250,0,,,,,,,,,,,,,,,,
38723,1625652226602,,,,,,,,-0.13,0.06,1.71,-0,0,1,0.14,,72,4668,7,28,58,0.925,0.0,466,4.8,13.3,0.0,1,28.7,2.69,5.8,0,0,0,1,0,0,250,250,0,,,,,,,,,,,,,,,,
38743,1625652226622,-0,4,47,50,32,30,1,-0.13,0.07,1.9,-0,-1,-0,0.14,0,72,4671,7,28,58,0.927,0.0,466,4.79,13.5,0.0,1,28.7,2.69,5.8,0,0,0,1,0,0,250,250,0,52.961876,6.522994,0.0,31.5,10,3,1.5,0,0.0,-1,0.0,,0.0,0,0.0,0.6457
38763,1625652226642,,,,,,,,-0.09,0.08,2.07,-0,-4,-2,0.12,,72,4696,7,28,58,0.929,0.0,473,4.77,13.5,0.0,1,29.1,2.71,5.8,0,0,0,1,0,0,250,250,0,,,,,,,,,,,,,,,,
38783,1625652226662,,,,,,,,-0.04,0.07,1.98,-0,-4,-2,0.09,,72,4678,7,28,59,0.932,0.0,469,4.78,13.6,0.0,1,29.1,2.7,5.8,0,0,0,1,0,0,250,250,0,,,,,,,,,,,,,,,,
38803,1625652226682,,,,,,,,0.01,0.03,1.82,-0,-2,-1,0.03,,72,4718,7,29,59,0.936,0.0,465,4.82,13.6,0.0,1,29.7,2.72,5.8,0,0,0,1,0,0,250,250,0,,,,,,,,,,,,,,,,
38823,1625652226700,,,,,,,,-0.0,0.03,1.66,0,0,1,0.03,,72,4732,7,29,59,0.939,0.0,471,4.78,13.5,0.0,1,29.8,1.6,5.8,0,0,0,1,0,0,250,250,0,,,,,,,,,,,,,,,,
38843,1625652226720,1,0,48,50,32,30,1,-0.03,0.04,1.52,0,1,2,0.05,0,72,4693,7,29,59,0.94,0.0,470,4.76,13.4,0.0,1,29.3,2.7,5.8,0,0,0,1,0,0,250,250,0,52.961876,6.522994,0.0,31.5,10,3,1.6,0,0.0,-1,0.0,0.0,0.0,0,0.0,0.6474
38863,1625652226740,,,,,,,,-0.06,0.04,1.73,0,1,2,0.07,,72,4675,7,29,59,0.941,0.0,472,4.76,13.4,0.0,1,29.1,2.69,5.8,0,0,0,1,0,0,250,250,0,,,,,,,,,,,,,,,,
38883,1625652226760,,,,,,,,-0.09,0.04,1.92,0,1,1,0.1,,72,4629,7,29,59,0.941,0.0,474,4.78,13.4,0.0,1,28.5,1.55,5.8,0,0,0,1,0,0,250,250,0,,,,,,,,,,,,,,,,
38903,1625652226780,,,,,,,,-0.05,0.04,2.09,-0,-2,-1,0.06,,72,4663,7,29,59,0.941,0.0,463,4.82,13.3,0.0,1,28.9,2.69,5.7,0,0,0,1,0,0,250,250,0,,,,,,,,,,,,,,,,
38923,1625652226802,,,,,,,,0.01,0.01,1.97,-0,-4,-2,0.02,,72,4708,7,29,59,0.939,0.0,473,4.76,13.6,0.0,1,29.5,2.71,5.7,0,0,0,1,0,0,250,250,0,,,,,,,,,,,,,,,,
38943,1625652226822,1,2,47,50,32,31,1,0.04,-0.02,1.8,-0,-4,-2,0.04,0,72,4709,7,29,59,0.936,0.0,468,4.8,13.6,0.0,1,29.5,2.72,5.7,0,0,0,1,0,0,250,250,0,52.961876,6.522994,0.0,31.5,10,3,1.6,0,0.0,-1,0.0,,0.0,0,0.0,0.649
38963,1625652226842,,,,,,,,0.04,-0.03,1.65,-0,-2,-1,0.05,,72,4713,7,29,59,0.931,0.0,471,4.76,13.6,0.0,1,29.6,2.72,5.7,0,0,0,1,0,0,250,250,0,,,,,,,,,,,,,,,,
38983,1625652226862,,,,,,,,0.01,-0.0,1.52,0,-0,1,0.01,,72,4696,7,29,59,0.926,0.0,466,4.81,13.5,0.0,1,29.4,2.71,5.8,0,0,0,1,0,0,250,250,0,,,,,,,,,,,,,,,,
39003,1625652226882,,,,,,,,-0.03,0.02,1.47,0,1,2,0.04,,73,4652,7,29,59,0.923,0.0,460,4.76,13.5,0.0,1,28.8,1.56,5.8,0,0,0,1,0,0,250,250,0,,,,,,,,,,,,,,,,
39023,1625652226906,,,,,,,,-0.07,0.01,1.68,0,2,3,0.07,,72,4707,7,29,59,0.917,0.0,476,4.76,13.4,0.0,1,29.5,2.69,5.8,0,0,0,1,0,0,250,250,0,,,,,,,,,,,,,,,,
39043,1625652226926,1,0,48,50,32,30,2,-0.07,0.03,1.88,0,1,2,0.07,0,73,4679,7,29,59,0.915,0.0,470,4.76,13.4,0.0,1,29.1,1.57,5.8,0,0,0,1,0,0,250,250,0,52.961876,6.522994,0.0,31.5,10,3,1.6,0,0.0,-1,0.0,0.0,0.0,0,0.0,0.6507
39063,1625652226946,,,,,,,,-0.05,0.04,2.05,-0,-0,0,0.07,,73,4615,7,29,59,0.909,0.0,466,4.77,13.4,0.0,1,28.3,2.67,5.8,0,0,0,1,0,0,250,250,0,,,,,,,,,,,,,,,,
39083,1625652226966,,,,,,,,-0.0,0.05,2.2,-0,-3,-1,0.05,,73,4654,7,29,59,0.906,0.0,471,4.81,13.3,0.0,1,28.8,2.69,5.7,0,0,0,1,0,0,250,250,0,,,,,,,,,,,,,,,,
39103,1625652226986,,,,,,,,0.04,0.03,2.08,-0,-4,-2,0.05,,72,4587,7,29,59,0.902,0.0,453,4.76,13.6,0.0,1,27.9,2.65,5.7,0,0,0,1,0,0,250,250,0,,,,,,,,,,,,,,,,
39123,1625652226998,,,,,,,,0.07,0.02,1.91,-0,-4,-3,0.08,,73,4614,8,29,59,0.9,0.0,470,4.82,13.6,0.0,1,28.3,2.67,5.7,0,0,0,1,0,0,250,250,0,,,,,,,,,,,,,,,,
39143,1625652227018,1,2,47,50,32,31,1,0.1,-0.01,1.75,-0,-4,-3,0.1,0,73,4597,8,29,59,0.896,0.0,461,4.77,13.6,0.0,1,28.1,2.66,5.7,0,0,0,1,0,0,250,250,0,52.961876,6.522994,0.0,31.5,10,3,1.6,0,0.0,-1,0.0,,0.0,0,0.0,0.6524
39163,1625652227038,,,,,,,,0.1,-0.04,1.6,-0,-3,-2,0.11,,73,4620,8,29,59,0.894,0.0,453,4.81,13.6,0.0,1,28.4,2.67,5.7,0,0,0,1,0,0,250,250,0,,,,,,,,,,,,,,,,
39183,1625652227058,,,,,,,,0.09,-0.04,1.47,-0,-2,-1,0.1,,73,4633,8,29,60,0.893,0.0,467,4.89,13.6,0.0,1,28.8,2.68,5.7,0,0,0,1,0,0,250,250,0,,,,,,,,,,,,,,,,
39203,1625652227078,,,,,,,,0.07,-0.03,1.35,-0,0,1,0.08,,73,4614,8,29,60,0.893,0.0,452,4.82,13.6,0.0,1,28.6,2.67,5.7,0,0,0,1,0,0,250,250,0,,,,,,,,,,,,,,,,
39223,1625652227106,,,,,,,,0.03,-0.02,1.23,0,2,2,0.04,,73,4646,8,29,60,0.893,0.0,457,4.8,13.6,0.0,1,29.0,1.55,5.7,0,0,0,1,0,0,250,250,0,,,,,,,,,,,,,,,,
39243,1625652227126,0,1,47,50,32,30,2,-0.01,0.01,1.35,0,3,3,0.01,0,73,4636,8,29,60,0.892,0.0,456,4.79,13.5,0.0,1,28.9,2.68,5.7,0,0,0,1,0,0,250,250,0,52.961876,6.522994,0.0,31.5,10,3,1.6,0,0.0,-1,0.0,0.0,0.0,0,0.0,0.654
39263,1625652227146,,,,,,,,-0.03,0.01,1.57,0,2,2,0.03,,73,4679,8,29,60,0.892,0.0,458,4.8,13.3,0.0,1,29.4,1.57,5.7,0,0,0,1,0,0,250,250,0,,,,,,,,,,,,,,,,
39283,1625652227166,,,,,,,,-0.02,0.02,1.77,-0,1,1,0.03,,73,4664,8,29,60,0.891,0.0,478,4.81,13.4,0.0,1,29.2,1.56,5.8,0,0,0,1,0,0,250,250,0,,,,,,,,,,,,,,,,
39303,1625652227186,,,,,,,,0.01,0.03,1.95,-0,-1,-1,0.03,,73,4644,8,29,60,0.891,0.0,464,4.76,13.5,0.0,1,29.0,1.55,5.8,0,0,0,1,0,0,250,250,0,,,,,,,,,,,,,,,,
39323,1625652227202,,,,,,,,0.06,0.02,1.89,-0,-3,-2,0.06,,73,4654,8,29,60,0.89,0.0,460,4.76,13.6,0.0,1,29.1,2.69,5.8,0,0,0,1,0,0,250,250,0,,,,,,,,,,,,,,,,
39343,1625652227222,0,1,48,50,32,31,0,0.11,-0.01,1.74,-0,-3,-2,0.11,0,73,4661,8,29,61,0.889,0.0,462,4.78,13.6,0.0,1,29.5,2.69,5.8,0,0,0,1,0,0,250,250,0,52.961876,6.522994,0.0,31.5,10,3,1.6,0,0.0,-1,0.0,,0.0,0,0.0,0.6557
39363,1625652227242,,,,,,,,0.12,-0.02,1.59,-0,-2,-2,0.12,,73,4647,8,29,61,0.887,0.0,452,4.8,13.6,0.0,1,29.3,2.69,5.8,0,0,0,1,0,0,250,250,0,,,,,,,,,,,,,,,,
39383,1625652227262,,,,,,,,0.12,-0.01,1.46,-0,-0,-0,0.12,,73,4628,8,29,61,0.886,0.0,461,4.8,13.6,0.0,1,29.1,2.68,5.8,0,0,0,1,0,0,250,250,0,,,,,,,,,,,,,,,,
39403,1625652227282,,,,,,,,0.12,-0.02,1.34,-0,1,1,0.12,,73,4642,8,29,61,0.885,0.0,453,4.82,13.5,0.0,1,29.3,1.56,5.7,0,0,0,1,0,0,250,250,0,,,,,,,,,,,,,,,,
39423,1625652227305,,,,,,,,0.08,-0.0,1.22,0,2,2,0.08,,73,4614,8,29,61,0.884,0.0,453,4.75,13.6,0.0,1,28.9,2.68,5.7,0,0,0,1,0,0,250,250,0,,,,,,,,,,,,,,,,
39443,1625652227325,1,2,47,50,32,31,1,0.04,0.01,1.13,0,4,4,0.04,0,73,4584,8,29,61,0.883,0.0,456,4.78,13.5,0.0,1,28.5,2.67,5.7,0,0,0,1,0,0,250,250,0,52.961876,6.522994,0.0,31.5,10,3,1.6,0,0.0,-1,0.0,0.0,0.0,0,0.0,0.6574
39463,1625652227345,,,,,,,,0.0,0.02,1.29,0,4,4,0.02,,73,4622,8,29,61,0.883,0.0,451,4.82,13.4,0.0,1,29.0,1.56,5.7,0,0,0,1,0,0,250,250,0,,,,,,,,,,,,,,,,
39483,1625652227365,,,,,,,,-0.03,0.03,1.52,0,4,4,0.04,,73,4619,8,29,61,0.882,0.0,455,4.8,13.5,0.0,1,29.0,2.68,5.7,0,0,0,1,0,0,250,250,0,,,,,,,,,,,,,,,,
39503,1625652227385,,,,,,,,-0.04,0.04,1.72,-0,3,2,0.05,,73,4657,8,29,61,0.881,0.0,458,4.79,13.4,0.0,1,29.5,1.57,5.7,0,0,0,1,0,0,250,250,0,,,,,,,,,,,,,,,,
39523,1625652227407,,,,,,,,-0.0,0.04,1.91,-0,0,0,0.04,,73,4649,8,29,61,0.882,0.0,462,4.78,13.5,0.0,1,29.4,2.7,5.7,0,0,0,1,0,0,250,250,0,,,,,,,,,,,,,,,,
39543,1625652227427,0,1,48,50,32,31,1,0.06,0.03,1.94,-0,-2,-1,0.07,0,73,4665,8,29,61,0.882,0.0,480,4.79,13.6,0.0,1,29.6,2.7,5.7,0,0,0,1,0,0,250,250,0,52.961876,6.522994,0.0,31.5,10,3,1.6,0,0.0,-1,0.0,,0.0,0,0.0,0.659
39563,1625652227447,,,,,,,,0.11,0.0,1.78,-0,-3,-2,0.11,,73,4641,8,29,62,0.883,0.0,460,4.8,13.6,0.0,1,29.4,2.69,5.7,0,0,0,1,0,0,250,250,0,,,,,,,,,,,,,,,,
39583,1625652227467,,,,,,,,0.14,-0.04,1.63,-0,-2,-1,0.14,,73,4651,8,29,62,0.883,0.0,463,4.77,13.6,0.0,1,29.6,1.61,5.7,0,0,0,1,0,0,250,250,0,,,,,,,,,,,,,,,,
39603,1625652227487,,,,,,,,0.15,-0.06,1.5,-0,-1,-0,0.16,,73,4593,8,29,62,0.884,0.0,457,4.79,13.6,0.0,1,28.8,2.71,5.9,0,0,0,1,0,0,250,250,0,,,,,,,,,,,,,,,,
39623,1625652227503,,,,,,,,0.15,-0.06,1.37,-0,0,1,0.16,,73,4567,8,29,62,0.886,0.0,446,4.79,13.6,0.0,1,28.5,2.7,5.9,0,0,0,1,0,0,250,250,0,,,,,,,,,,,,,,,,
39643,1625652227523,0,2,48,50,32,30,2,0.14,-0.06,1.26,0,2,2,0.15,0,73,4552,8,29,62,0.887,0.0,453,4.75,13.6,0.0,1,28.3,2.7,5.9,0,0,0,1,0,0,250,250,0,52.961876,6.522994,0.0,31.5,10,3,1.6,0,0.0,-1,0.0,0.0,0.0,0,0.0,0.6607
39663,1625652227543,,,,,,,,0.14,-0.07,1.15,0,3,2,0.15,,73,4472,8,29,62,0.888,0.0,438,4.76,13.6,0.0,1,27.2,2.67,5.9,0,0,0,1,0,0,250,250,0,,,,,,,,,,,,,,,,
39683,1625652227563,,,,,,,,0.14,-0.09,1.05,0,4,3,0.16,,73,4536,8,29,63,0.889,0.0,446,4.77,13.6,0.0,1,28.4,2.74,5.7,0,0,0,1,0,0,250,250,0,,,,,,,,,,,,,,,,
39703,1625652227583,,,,,,,,0.13,-0.09,0.97,0,5,4,0.16,,73,4486,8,29,63,0.89,0.0,445,4.76,13.6,0.0,1,27.7,1.59,5.7,0,0,0,1,0,8,250,250,0,,,,,,,,,,,,,,,,
39723,1625652227601,,,,,,,,0.13,-0.1,0.89,0,6,4,0.16,,73,4469,8,29,63,0.891,0.0,435,4.8,13.6,0.0,1,27.5,2.72,5.7,0,0,0,1,0,8,250,250,0,,,,,,,,,,,,,,,,
39743,1625652227621,0,1,48,50,32,31,0,0.14,-0.11,0.81,0,6,5,0.18,0,73,4493,8,29,64,0.892,0.9,438,4.83,13.6,0.0,1,28.1,2.73,5.7,0,0,0,1,0,8,250,250,9,52.961876,6.522994,0.0,31.5,10,3,1.5,0,0.0,-1,0.0,,0.0,0,0.0,0.6624
39763,1625652227641,,,,,,,,0.15,-0.13,0.74,0,6,5,0.2,,73,4443,8,29,64,0.892,0.9,430,4.76,13.6,0.0,1,27.4,2.75,5.7,0,0,0,1,0,8,250,250,9,,,,,,,,,,,,,,,,
39783,1625652227661,,,,,,,,0.16,-0.14,0.68,0,7,5,0.21,,73,4448,8,29,64,0.892,1.1,436,4.83,13.6,0.0,1,27.5,2.75,5.7,0,0,0,1,0,8,-235,-235,9,,,,,,,,,,,,,,,,
39803,1625652227681,,,,,,,,0.19,-0.15,0.62,0,7,4,0.24,,73,4447,8,29,64,0.891,1.1,433,4.76,13.6,0.0,1,27.5,2.75,5.6,0,0,0,1,0,8,-235,-235,9,,,,,,,,,,,,,,,,
39823,1625652227701,,,,,,,,0.21,-0.16,0.57,0,6,4,0.26,,73,4420,8,29,64,0.89,1.1,433,4.8,13.6,0.0,1,27.1,2.74,5.6,0,0,0,1,0,8,-235,-235,9,,,,,,,,,,,,,,,,
39843,1625652227721,-1,2,48,50,32,31,2,0.24,-0.17,0.52,0,5,3,0.29,0,73,4447,8,29,65,0.889,1.1,435,4.82,13.6,0.0,1,27.7,2.8,5.6,0,0,0,1,0,8,-235,-235,9,52.961876,6.522994,0.0,31.5,10,3,1.5,0,0.0,-1,0.0,0.0,0.0,0,0.0,0.664
39863,1625652227741,,,,,,,,0.26,-0.15,0.51,0,4,2,0.31,,73,4455,8,29,65,0.888,1.1,436,4.74,13.5,0.0,1,27.8,2.8,5.6,0,0,0,1,0,14,-235,-235,9,,,,,,,,,,,,,,,,
39883,1625652227761,,,,,,,,0.29,-0.14,0.65,0,3,1,0.32,,73,4434,8,29,65,0.886,1.5,441,4.76,13.6,0.0,1,27.5,2.79,5.6,0,0,0,1,0,14,-235,-235,15,,,,,,,,,,,,,,,,
39903,1625652227781,,,,,,,,0.3,-0.13,0.82,0,2,-0,0.33,,73,4457,8,29,65,0.886,1.5,428,4.82,13.6,0.0,1,27.8,2.8,5.7,0,0,0,1,0,14,-235,-235,15,,,,,,,,,,,,,,,,
39923,1625652227803,,,,,,,,0.31,-0.11,1.05,0,0,-1,0.33,,73,4401,8,29,65,0.886,1.6,442,4.75,13.4,0.0,1,27.1,2.78,5.7,0,0,0,1,0,14,1018,9731,15,,,,,,,,,,,,,,,,
39943,1625652227823,-1,1,48,50,31,31,1,0.31,-0.09,1.3,0,-2,-2,0.32,0,73,4437,8,29,65,0.885,1.6,440,4.77,13.5,0.0,1,27.6,2.8,5.7,0,0,0,1,0,14,1018,9731,15,52.961876,6.522994,0.0,31.5,10,3,1.5,0,0.0,-1,0.0,,0.0,0,0.0,0.6657
39963,1625652227843,,,,,,,,0.3,-0.05,1.52,-0,-3,-3,0.3,,73,4426,8,29,65,0.884,1.6,436,4.77,13.3,0.0,1,27.4,1.66,5.7,0,0,0,1,0,14,1018,9731,15,,,,,,,,,,,,,,,,
39983,1625652227863,,,,,,,,0.27,-0.02,1.73,-0,-3,-3,0.27,,73,4377,9,29,66,0.884,1.6,434,4.78,13.4,0.0,1,27.0,2.81,5.7,0,0,0,1,0,19,1018,9731,15,,,,,,,,,,,,,,,,
40003,1625652227883,,,,,,,,0.25,-0.0,1.92,-0,-4,-3,0.25,,73,4411,8,29,66,0.885,1.9,425,4.82,13.4,0.0,1,27.5,2.83,5.6,0,0,0,1,0,19,1018,9731,19,,,,,,,,,,,,,,,,
40023,1625652227907,,,,,,,,0.22,-0.0,1.89,-0,-3,-3,0.22,,73,4316,8,29,66,0.887,2.0,430,4.8,13.4,0.0,1,26.2,2.81,5.6,0,0,0,1,0,19,-1,9731,19,,,,,,,,,,,,,,,,
40043,1625652227927,-0,2,48,50,32,31,1,0.19,-0.01,1.74,-0,-2,-1,0.19,0,73,4313,9,29,66,0.888,2.0,413,4.82,13.5,0.0,1,26.2,2.79,5.6,0,0,0,1,0,19,-1,-1,19,52.961864,6.523003,1.71,42.4,10,3,1.6,0,0.0,-1,0.0,0.0,0.0,0,0.0,0.6674
40063,1625652227947,,,,,,,,0.17,-0.02,1.59,0,0,0,0.17,,73,4352,8,29,67,0.889,2.0,424,4.83,13.6,0.0,1,27.0,2.81,5.6,0,0,0,1,0,19,-1,-1,19,,,,,,,,,,,,,,,,
40083,1625652227967,,,,,,,,0.19,-0.04,1.46,0,1,1,0.19,,73,4282,9,29,67,0.894,2.0,422,4.76,13.6,0.0,1,26.0,2.81,5.5,0,0,0,1,0,23,-1,-1,19,,,,,,,,,,,,,,,,
40103,1625652227987,,,,,,,,0.22,-0.04,1.42,0,1,-0,0.22,,73,4243,8,29,67,0.9,2.3,414,4.8,13.6,0.0,1,25.5,2.8,5.5,0,0,0,1,0,23,-1,-1,23,,,,,,,,,,,,,,,,
40123,1625652227997,,,,,,,,0.23,-0.02,1.63,0,-1,-1,0.23,,73,4236,8,29,67,0.904,2.5,417,4.77,13.5,0.0,1,25.4,2.79,5.5,0,0,0,1,0,23,16899,5442,23,,,,,,,,,,,,,,,,
40143,1625652228017,-1,1,48,50,32,31,1,0.22,0.01,1.83,-0,-2,-2,0.22,0,73,4190,9,29,67,0.908,2.5,407,4.73,13.3,0.0,1,24.8,2.77,5.5,0,0,0,1,0,23,16899,5442,23,52.961864,6.523004,1.83,42.5,10,3,1.6,0,0.0,-1,0.0,,0.0,0,0.0,0.669
40163,1625652228037,,,,,,,,0.21,-0.0,1.68,0,-1,-1,0.21,,73,4158,9,29,67,0.912,2.5,408,4.78,13.5,0.0,1,24.3,1.63,5.5,0,0,0,1,0,29,16899,5442,23,,,,,,,,,,,,,,,,
40183,1625652228057,,,,,,,,0.21,-0.03,1.54,0,-0,-0,0.21,,73,4140,9,29,67,0.918,3.0,397,4.81,13.6,179.3,1,24.1,2.75,5.2,0,0,0,1,0,29,-1,5442,29,,,,,,,,,,,,,,,,
40203,1625652228077,,,,,,,,0.23,-0.04,1.62,0,-0,-1,0.23,,73,4145,9,29,67,0.924,3.0,405,4.79,13.6,179.3,1,24.1,2.75,5.2,0,0,0,1,0,29,-1,-1,29,,,,,,,,,,,,,,,,
40223,1625652228107,,,,,,,,0.23,-0.03,1.82,0,-2,-2,0.23,,73,4157,9,29,67,0.929,3.0,402,4.73,13.4,179.3,1,24.3,2.76,5.2,0,0,0,1,0,33,-1,-1,29,,,,,,,,,,,,,,,,
40243,1625652228127,1,2,48,51,32,31,0,0.22,-0.03,1.66,0,-2,-1,0.22,0,73,4129,9,29,67,0.933,3.4,404,4.83,13.6,179.3,1,23.9,1.61,5.2,0,0,0,1,0,33,-1,-1,34,52.961864,6.523006,2.49,42.7,10,3,1.6,0,0.0,-1,0.0,0.0,0.0,0,0.0,0.6707
40263,1625652228147,,,,,,,,0.22,-0.05,1.53,0,-0,-0,0.22,,73,4126,9,29,67,0.937,3.5,398,4.78,13.6,179.3,1,23.9,2.74,5.2,0,0,0,1,0,33,-1,-1,34,,,,,,,,,,,,,,,,
40283,1625652228167,,,,,,,,0.22,-0.05,1.52,0,-0,-0,0.23,,73,4104,9,29,67,0.943,3.5,396,4.8,13.6,150.0,1,23.6,2.73,5.1,0,0,0,1,0,38,-1,-1,34,,,,,,,,,,,,,,,,
40303,1625652228187,,,,,,,,0.22,-0.02,1.72,0,-1,-1,0.22,,73,4115,9,29,67,0.946,3.9,401,4.78,13.3,150.0,1,23.7,2.74,5.1,0,0,0,1,0,38,-1281,-1,39,,,,,,,,,,,,,,,,
40323,1625652228207,,,,,,,,0.22,-0.01,1.58,0,-1,-0,0.22,,73,4112,9,29,68,0.949,3.9,395,4.81,13.5,150.0,1,24.0,2.79,5.1,0,0,0,1,0,38,-1281,1018,39,,,,,,,,,,,,,,,,
40343,1625652228227,-0,3,48,49,32,31,1,0.22,-0.01,1.45,0,-0,0,0.22,0,73,4074,9,29,68,0.951,3.9,392,4.83,13.6,150.0,1,23.5,2.77,5.1,0,0,0,1,0,42,-1281,1018,39,52.961864,6.523006,3.25,42.8,10,3,1.6,0,0.0,-1,0.0,,0.0,0,0.0,0.6724
40363,1625652228247,,,,,,,,0.22,0.0,1.63,0,-0,-0,0.22,,73,4064,9,29,68,0.952,4.4,397,4.77,13.4,150.0,1,23.3,2.76,5.1,0,0,0,1,0,42,-1,-1,43,,,,,,,,,,,,,,,,
40383,1625652228267,,,,,,,,0.22,0.03,1.67,0,-1,-0,0.22,,73,4041,9,29,68,0.954,4.4,402,4.77,13.4,118.6,1,23.0,2.76,5.1,0,0,0,1,0,46,-1,-1,43,,,,,,,,,,,,,,,,
40403,1625652228287,,,,,,,,0.22,0.02,1.53,0,-1,0,0.23,,73,4026,9,29,69,0.953,4.7,384,4.82,13.6,118.6,1,23.0,2.73,5.1,0,0,0,1,0,46,-1,-1,47,,,,,,,,,,,,,,,,
40423,1625652228307,,,,,,,,0.22,0.02,1.57,0,0,0,0.22,,73,3980,9,29,69,0.952,4.7,396,4.78,13.6,118.6,1,22.5,2.73,5.1,0,0,0,1,0,46,-1,-1,47,,,,,,,,,,,,,,,,
40443,1625652228310,0,1,48,51,32,31,2,0.23,0.04,1.59,0,-1,0,0.23,0,73,3952,9,29,69,0.951,5.0,380,4.78,13.5,118.6,1,0.0,2.73,5.1,0,0,0,1,0,50,-1,-1,50,52.961864,6.523009,3.7,42.9,10,3,1.6,0,0.0,-1,0.0,0.0,0.0,0,0.0,0.674
40463,1625652228330,,,,,,,,0.23,0.04,1.46,0,-0,0,0.23,,73,3835,9,29,70,0.95,5.1,381,4.78,13.6,118.6,1,0.0,2.73,5.1,0,0,0,1,0,50,-1,-1,50,,,,,,,,,,,,,,,,
40483,1625652228350,,,,,,,,0.22,0.02,1.45,0,-0,1,0.22,,73,3642,9,29,71,0.946,5.4,359,4.83,13.6,118.6,1,0.0,2.75,5.1,0,0,0,1,0,53,-1,-1,54,,,,,,,,,,,,,,,,
40503,1625652228370,,,,,,,,0.23,0.01,1.45,0,-0,0,0.23,,73,3282,9,29,72,0.941,5.4,347,4.72,13.4,85.1,1,0.0,2.8,4.6,0,0,0,1,0,53,-1,-1,54,,,,,,,,,,,,,,,,
40523,1625652228390,,,,,,,,0.23,0.02,1.44,0,-0,0,0.23,,73,3073,9,29,73,0.935,5.6,322,4.8,13.4,85.1,1,19.0,2.84,4.6,0,0,0,1,0,56,-1,-1,56,,,,,,,,,,,,,,,,
40543,1625652228410,-1,1,48,49,32,31,1,0.25,0.02,1.49,0,-1,0,0.25,0,73,2863,9,29,74,0.931,5.7,307,4.76,13.3,85.1,1,0.0,2.85,4.6,0,0,0,1,0,56,-1,-1,56,52.961864,6.523009,3.7,42.9,10,3,1.6,0,0.0,-1,0.0,,0.0,0,0.0,0.6757
40563,1625652228430,,,,,,,,0.26,0.02,1.43,0,-1,0,0.26,,73,2750,9,29,76,0.926,5.9,290,4.76,13.5,85.1,1,-0.4,2.9,4.6,0,0,0,1,0,59,-1,-1,59,,,,,,,,,,,,,,,,
40583,1625652228450,,,,,,,,0.25,0.03,1.32,0,-1,0,0.25,,73,2599,9,29,77,0.919,6.0,269,4.78,13.6,59.3,1,15.1,2.92,3.5,0,0,0,1,0,59,-1,-1,59,,,,,,,,,,,,,,,,
40603,1625652228406,,,,,,,,0.22,0.03,1.31,0,-1,0,0.22,,73,2517,8,29,78,0.915,6.1,265,4.81,13.6,59.3,1,14.0,2.94,3.5,0,0,0,1,0,61,-1,-1,61,,,,,,,,,,,,,,,,
40623,1625652228498,,,,,,,,0.21,0.03,1.32,0,-1,0,0.21,,73,2456,9,29,80,0.91,6.1,258,4.8,13.5,59.3,1,13.5,2.99,3.5,0,0,0,1,0,62,-1,-1,61,,,,,,,,,,,,,,,,
40643,1625652228518,0,1,48,51,32,31,1,0.19,0.03,1.3,0,-1,0,0.2,0,73,2284,8,29,81,0.905,6.2,243,4.77,13.6,59.3,1,13.3,3.01,3.5,0,0,0,1,0,62,-1,-1,62,52.961864,6.523013,5.05,42.9,10,3,1.8,0,0.0,-1,0.0,0.0,0.0,0,0.0,0.6774
40663,1625652228538,,,,,,,,0.19,0.03,1.24,0,-1,0,0.19,,73,2187,9,29,83,0.902,6.2,236,4.8,13.6,59.3,1,-0.4,3.06,3.5,0,0,0,1,0,63,-1,-1,62,,,,,,,,,,,,,,,,
40683,1625652228558,,,,,,,,0.17,0.03,1.21,0,-1,1,0.17,,73,2023,8,29,83,0.899,6.2,230,4.8,13.2,59.3,1,-0.4,3.06,3.5,0,0,0,1,0,63,-1,-1281,62,,,,,,,,,,,,,,,,
40703,1625652228578,,,,,,,,0.15,0.02,1.2,0,-1,0,0.15,,73,1945,8,29,85,0.895,6.2,220,4.79,13.6,45.1,1,15.8,3.1,2.8,0,0,0,1,0,63,-1,-1281,62,,,,,,,,,,,,,,,,
40723,1625652228604,,,,,,,,0.14,0.02,1.18,0,-1,0,0.15,,73,1868,8,29,87,0.892,6.3,213,4.81,13.6,45.1,1,18.7,3.14,2.8,0,0,0,1,0,63,-1281,-1281,63,,,,,,,,,,,,,,,,
40743,1625652228624,-0,3,48,51,32,31,1,0.14,0.01,1.18,0,-1,0,0.14,0,73,1798,8,29,88,0.892,6.3,207,4.8,13.6,45.1,1,-0.4,3.16,2.8,0,0,0,1,0,63,-1281,-1281,62,52.961864,6.523016,5.85,42.8,10,3,1.8,0,0.0,-1,0.0,,0.0,0,0.0,0.6791
40763,1625652228644,,,,,,,,0.13,0.01,1.15,0,-1,0,0.13,,73,1774,8,29,89,0.893,6.3,205,4.73,13.3,45.1,1,-0.4,3.18,2.8,0,0,0,1,0,63,-1281,-1281,62,,,,,,,,,,,,,,,,
40783,1625652228664,,,,,,,,0.11,0.0,1.15,0,-1,0,0.11,,73,1736,8,29,90,0.894,6.3,200,4.82,13.4,40.3,1,23.0,3.18,2.5,0,0,0,1,0,63,-1281,-1281,62,,,,,,,,,,,,,,,,
40803,1625652228684,,,,,,,,0.1,0.01,1.16,0,-1,0,0.1,,73,1641,8,29,90,0.896,6.2,194,4.8,13.5,40.3,1,23.0,3.21,2.5,0,0,0,1,0,63,-1,-1281,62,,,,,,,,,,,,,,,,
40823,1625652228704,,,,,,,,0.09,0.01,1.17,0,-1,0,0.09,,73,1534,8,29,91,0.898,6.2,189,4.81,13.5,40.3,1,-0.4,3.21,2.5,0,0,0,1,0,63,-1,-1,62,,,,,,,,,,,,,,,,
40843,1625652228724,1,0,48,51,32,31,2,0.09,0.0,1.16,0,-1,0,0.09,0,73,1420,8,29,92,0.9,6.2,184,4.79,13.5,40.3,1,25.0,3.21,2.5,0,0,0,1,0,62,-1,-1,62,52.961864,6.523018,5.92,42.7,10,3,1.8,0,0.0,-1,0.0,0.0,0.0,0,0.0,0.6807
40863,1625652228744,,,,,,,,0.07,0.0,1.12,0,-1,0,0.07,,73,1412,8,29,92,0.901,6.2,180,4.79,13.2,40.3,1,-0.4,3.21,2.5,0,0,0,1,0,62,-1,-1,62,,,,,,,,,,,,,,,,
40883,1625652228764,,,,,,,,0.06,0.0,1.11,0,-1,0,0.06,,73,1539,8,29,93,0.904,6.2,180,4.8,13.2,35.4,1,-0.4,3.21,2.2,0,0,0,1,0,62,-1,-1,62,,,,,,,,,,,,,,,,
40903,1625652228784,,,,,,,,0.05,0.0,1.14,0,-1,0,0.05,,73,1572,9,29,93,0.907,6.1,180,4.82,13.3,35.4,1,-0.4,3.21,2.2,0,0,0,1,0,62,-1,-1,61,,,,,,,,,,,,,,,,
40923,1625652228804,,,,,,,,0.04,0.01,1.14,0,-1,0,0.04,,73,1547,9,29,94,0.911,6.1,179,4.8,13.4,35.4,1,-0.4,3.21,2.2,0,0,0,1,0,62,-1,-1,61,,,,,,,,,,,,,,,,
40943,1625652228824,0,1,48,51,32,30,1,0.03,0.0,1.13,0,-1,-0,0.03,0,73,1572,10,29,94,0.914,6.2,182,4.81,13.5,35.4,1,28.5,3.21,2.2,0,0,0,1,0,62,-1,-1,62,52.961864,6.523021,5.89,42.6,10,3,1.8,0,0.0,-1,0.0,,0.0,0,0.0,0.6824
40963,1625652228844,,,,,,,,0.03,0.01,1.14,0,-1,-0,0.03,,73,1478,10,29,95,0.918,6.2,180,4.79,13.5,35.4,1,-0.2,3.21,2.2,0,0,0,1,0,61,-1,-1,62,,,,,,,,,,,,,,,,
40983,1625652228864,,,,,,,,0.02,0.01,1.14,0,-1,-0,0.02,,73,1500,10,29,95,0.921,6.1,178,4.78,13.5,36.6,1,-0.2,3.21,2.2,0,0,0,1,0,61,-1,-1,60,,,,,,,,,,,,,,,,
41003,1625652228884,,,,,,,,0.01,0.01,1.12,0,-1,-0,0.01,,73,1590,10,29,96,0.923,6.1,180,4.81,13.6,36.6,1,-0.2,3.21,2.2,0,0,0,1,0,61,-1,-1,60,,,,,,,,,,,,,,,,
41023,1625652228908,,,,,,,,0.0,0.01,1.11,0,-1,-0,0.01,,73,1607,10,29,96,0.924,6.0,182,4.79,13.6,36.6,1,-0.2,3.21,2.2,0,0,0,1,0,61,-1,-1,60,,,,,,,,,,,,,,,,
41043,1625652228928,0,1,48,51,32,31,2,0.0,0.01,1.11,0,-1,-0,0.01,0,73,1646,10,29,96,0.925,6.0,184,4.79,13.6,36.6,1,-0.2,3.21,2.2,0,0,0,1,0,61,-1,-1,60,52.961864,6.523024,5.87,42.5,10,3,1.8,0,0.0,-1,0.0,0.0,0.0,0,0.0,0.684
41063,1625652228948,,,,,,,,0.0,0.0,1.08,0,-1,-0,0.0,,73,1652,10,29,96,0.928,6.1,187,4.8,13.6,36.6,1,-0.2,3.21,2.2,0,0,0,1,0,60,-1,-1,60,,,,,,,,,,,,,,,,
41083,1625652228968,,,,,,,,0.01,0.0,1.07,0,-1,-0,0.01,,73,1619,10,29,96,0.93,6.1,188,4.81,13.5,40.0,1,31.2,3.21,2.4,0,0,0,1,0,60,-1,-1,60,,,,,,,,,,,,,,,,
41103,1625652228988,,,,,,,,0.01,0.0,1.08,0,-1,-0,0.01,,73,1647,10,29,96,0.933,6.1,188,4.77,13.6,40.0,1,-0.2,3.21,2.4,0,0,0,1,0,60,-1,-1,60,,,,,,,,,,,,,,,,
41123,1625652229000,,,,,,,,0.01,0.01,1.06,0,-1,-0,0.01,,73,1620,10,29,96,0.935,6.1,189,4.8,13.5,40.0,1,-0.2,3.21,2.4,0,0,0,1,0,60,-1,-1,59,,,,,,,,,,,,,,,,
41143,1625652229020,0,1,48,51,32,30,2,0.01,0.01,1.03,0,-1,-0,0.01,0,73,1743,10,29,96,0.938,6.0,191,4.74,13.4,40.0,1,-0.2,3.21,2.4,0,0,0,1,0,60,-1,-1,59,52.961864,6.523026,4.93,42.5,10,3,1.8,0,0.0,-1,0.0,,0.0,0,0.0,0.6857
41163,1625652229040,,,,,,,,0.0,0.01,1.05,0,-1,-0,0.01,,73,1723,10,29,96,0.941,5.9,189,4.8,13.5,40.0,1,31.2,3.21,2.4,0,0,0,1,0,60,-1,-1,59,,,,,,,,,,,,,,,,
41183,1625652229060,,,,,,,,-0.0,0.01,1.03,0,-0,0,0.01,,73,1752,10,29,96,0.942,5.9,189,4.8,13.6,44.0,1,31.2,3.21,2.6,0,0,0,1,0,59,-1,-1,59,,,,,,,,,,,,,,,,
41203,1625652229080,,,,,,,,0.0,0.0,1.04,0,-1,-0,0.0,,73,1691,10,29,96,0.944,5.9,190,4.82,13.6,44.0,1,-0.1,3.21,2.6,0,0,0,1,0,59,-1,-1,59,,,,,,,,,,,,,,,,
41223,1625652229108,,,,,,,,0.0,0.0,1.03,0,-1,0,0.0,,73,1701,10,29,96,0.945,5.9,194,4.8,13.6,44.0,1,-0.1,3.21,2.6,0,0,0,1,0,59,-1,-1,59,,,,,,,,,,,,,,,,
41243,1625652229128,0,1,48,51,32,31,1,0.01,0.0,1.03,0,-1,-0,0.01,0,73,1828,10,29,96,0.946,5.9,197,4.79,13.6,44.0,1,-0.1,3.21,2.6,0,0,0,1,0,59,-1,-1,58,52.961864,6.523028,4.83,42.8,10,3,1.8,0,0.0,-1,0.0,0.0,0.0,0,0.0,0.6874
41263,1625652229148,,,,,,,,0.0,0.0,1.06,0,-0,-0,0.0,,73,1961,10,29,96,0.947,5.9,198,4.81,13.4,44.0,1,31.2,3.21,2.6,0,0,0,1,0,59,-1,-1,58,,,,,,,,,,,,,,,,
41283,1625652229168,,,,,,,,-0.0,-0.0,1.03,0,-0,0,0.0,,73,1940,10,29,96,0.949,5.9,200,4.8,13.6,44.0,1,-0.1,3.21,2.6,0,0,0,1,0,59,-1,-1,59,,,,,,,,,,,,,,,,
41303,1625652229188,,,,,,,,0.01,-0.0,1.01,0,-1,0,0.01,,73,1918,10,29,96,0.949,5.9,206,4.8,13.6,47.4,1,-0.1,3.21,2.8,0,0,0,1,0,2074,-1,-1,59,,,,,,,,,,,,,,,,
41323,1625652229208,,,,,,,,0.01,-0.01,1.0,0,-0,0,0.01,,73,1923,10,29,95,0.949,5.8,207,4.75,13.4,47.4,1,-0.1,3.21,2.8,0,0,0,1,0,2074,-1,-1,57,,,,,,,,,,,,,,,,
41343,1625652229228,-0,4,48,51,31,31,1,0.0,-0.0,1.02,0,-0,-0,0.0,0,73,1990,10,29,96,0.948,5.8,205,4.81,13.6,47.4,1,-0.1,3.21,2.8,0,0,0,1,0,60,-1,-1,57,52.961864,6.523031,5.52,42.7,10,3,1.8,0,0.0,-1,0.0,,0.0,0,0.0,0.689
41363,1625652229248,,,,,,,,0.0,-0.0,1.01,0,-1,0,0.0,,73,2052,10,29,95,0.948,5.8,210,4.78,13.6,47.4,1,-0.2,3.21,2.8,0,0,0,1,0,60,-1,-1,58,,,,,,,,,,,,,,,,
41383,1625652229268,,,,,,,,-0.0,0.01,1.03,0,-0,0,0.01,,73,2151,10,29,94,0.947,5.8,212,4.79,13.3,53.4,1,-0.2,3.21,3.1,0,0,0,1,0,58,-1,-1,58,,,,,,,,,,,,,,,,
41403,1625652229288,,,,,,,,0.0,0.01,1.01,0,-0,0,0.01,,73,2091,10,29,95,0.948,5.7,211,4.83,13.6,53.4,1,-0.2,3.21,3.1,0,0,0,1,0,58,-1,-1,57,,,,,,,,,,,,,,,,
41423,1625652229307,,,,,,,,-0.01,0.0,0.98,0,-1,0,0.01,,73,2213,11,29,94,0.947,5.7,217,4.77,13.4,53.4,1,-0.2,3.21,3.1,0,0,0,1,0,57,-1,-1,57,,,,,,,,,,,,,,,,
41443,1625652229327,-1,2,48,50,32,31,2,-0.0,-0.01,0.98,0,-1,0,0.01,0,73,2233,15,29,95,0.948,5.7,215,4.81,13.6,53.4,1,29.8,3.21,3.1,0,0,0,1,0,57,-1,-1,57,52.961864,6.523033,5.41,43.0,10,3,1.8,0,0.0,-1,0.0,0.0,0.0,0,0.0,0.6907
41463,1625652229347,,,,,,,,-0.01,-0.01,0.98,0,-1,0,0.01,,73,2316,20,29,95,0.951,5.7,223,4.82,13.2,53.4,1,29.8,3.21,3.1,0,0,0,1,0,58,-1,-1,57,,,,,,,,,,,,,,,,
41483,1625652229367,,,,,,,,0.0,-0.01,0.97,0,-1,0,0.02,,73,2290,22,29,97,0.955,5.7,223,4.83,13.6,53.4,1,32.6,3.21,3.1,0,0,0,1,0,58,-1,-1,57,,,,,,,,,,,,,,,,
41503,1625652229387,,,,,,,,-0.01,-0.01,0.98,0,-1,0,0.02,,73,2293,22,29,97,0.96,5.7,226,4.81,13.6,59.6,1,32.6,5.27,3.4,0,0,0,1,0,57,-1,-1,57,,,,,,,,,,,,,,,,
41523,1625652229407,,,,,,,,-0.01,-0.02,0.99,0,-1,0,0.02,,73,2628,22,29,97,0.964,5.6,237,4.75,13.4,59.6,1,32.0,5.27,3.4,0,0,0,1,0,57,-1,-1,56,,,,,,,,,,,,,,,,
41543,1625652229427,0,3,48,51,32,31,1,0.01,-0.01,0.96,0,-1,0,0.01,0,73,2768,22,29,97,0.969,5.6,244,4.82,13.6,59.6,1,31.3,2.37,3.4,0,0,0,1,0,56,-1,-1,56,52.961864,6.523036,4.59,43.3,10,3,1.8,0,0.0,-1,0.0,,0.0,0,0.0,0.6924
41563,1625652229447,,,,,,,,0.01,-0.02,0.88,0,-1,1,0.03,,73,2853,22,29,96,0.978,5.5,257,4.81,13.6,59.6,1,30.0,5.9,3.4,0,0,0,1,0,56,-1,-1,55,,,,,,,,,,,,,,,,
41583,1625652229467,,,,,,,,0.02,-0.03,0.87,0,-1,1,0.04,,73,3109,22,29,96,0.988,5.5,278,4.75,13.6,167.2,1,29.5,6.41,9.2,0,0,0,1,0,56,-1,-1,55,,,,,,,,,,,,,,,,
41603,1625652229487,,,,,,,,0.01,-0.01,0.98,0,-1,1,0.01,,73,3419,21,29,95,0.994,5.6,294,4.76,13.4,167.2,1,28.7,3.01,9.2,0,0,0,1,0,56,-1,-1,56,,,,,,,,,,,,,,,,
41623,1625652229505,,,,,,,,0.04,-0.02,0.9,0,-2,1,0.04,,73,3705,19,29,95,1.003,5.6,324,4.81,13.6,167.2,1,30.3,7.01,9.2,0,0,0,1,0,56,-1,-1,56,,,,,,,,,,,,,,,,
41643,1625652229525,1,1,48,51,32,31,3,0.07,-0.03,1.01,0,-2,-0,0.07,0,73,4214,17,29,93,1.015,5.5,358,4.78,13.4,167.2,1,33.1,6.81,9.2,0,0,0,1,0,56,-1,-1,54,52.961864,6.523038,4.68,43.2,10,3,1.8,0,0.0,-1,0.0,0.0,0.0,0,0.0,0.694
41663,1625652229545,,,,,,,,0.13,-0.0,1.26,0,-4,-2,0.13,,73,4641,15,29,91,1.025,5.5,411,4.8,13.4,167.2,1,37.5,6.14,9.2,0,0,0,1,0,55,-1,-1,54,,,,,,,,,,,,,,,,
41683,1625652229565,,,,,,,,0.14,-0.07,1.16,0,-2,-1,0.16,,73,5030,13,29,89,1.039,5.5,464,4.72,13.6,250.9,1,42.4,5.94,13.8,0,0,0,1,0,55,-1,-1,55,,,,,,,,,,,,,,,,
41703,1625652229585,,,,,,,,0.17,-0.01,1.39,0,-3,-2,0.17,,73,5547,11,29,86,1.053,5.5,519,4.74,13.4,250.9,1,40.1,6.91,13.8,0,0,0,1,0,55,-1,-1,55,,,,,,,,,,,,,,,,
41723,1625652229603,,,,,,,,0.12,-0.05,1.28,1,3,4,0.12,,73,6044,8,29,82,1.089,5.4,571,4.77,13.4,250.9,1,38.3,7.17,13.8,0,0,0,1,0,55,-1,-1,54,,,,,,,,,,,,,,,,
41743,1625652229623,1,1,48,50,32,31,4,0.19,-0.07,1.5,1,0,2,0.2,0,73,6465,7,29,77,1.11,5.5,614,4.73,13.4,250.9,1,39.9,6.49,13.8,0,0,0,1,0,55,-1,-1,54,52.961861,6.523039,4.72,43.4,10,3,1.8,0,0.0,-1,0.0,,0.0,0,0.0,0.6957
41763,1625652229643,,,,,,,,0.12,-0.05,1.38,1,-0,1,0.13,,73,6546,7,29,72,1.145,5.5,637,4.77,13.5,250.9,1,39.2,5.94,13.8,0,0,0,1,0,55,-1,-1,54,,,,,,,,,,,,,,,,
41783,1625652229663,,,,,,,,0.06,0.01,1.26,1,3,4,0.06,,73,6366,7,29,68,1.16,5.4,640,4.75,13.3,292.5,1,37.7,5.36,15.8,0,0,0,1,0,55,-1,-1,54,,,,,,,,,,,,,,,,
41803,1625652229683,,,,,,,,0.12,0.02,1.49,1,3,5,0.13,,74,6332,7,29,65,1.158,5.4,633,4.77,13.5,292.5,1,36.4,4.33,15.8,0,0,0,1,0,55,-1,-1,53,,,,,,,,,,,,,,,,
41823,1625652229703,,,,,,,,0.2,-0.02,1.7,1,-1,1,0.2,,73,6270,7,29,62,1.157,5.4,629,4.81,13.6,292.5,1,35.4,3.43,15.8,0,0,0,1,0,54,-1,-1,53,,,,,,,,,,,,,,,,
41843,1625652229723,1,1,48,51,32,31,6,0.23,-0.05,1.89,1,-5,-2,0.23,0,73,6161,7,29,60,1.155,5.4,623,4.82,13.6,292.5,1,34.4,3.07,15.8,0,0,0,1,0,54,-1,-1,53,52.961861,6.523041,5.17,43.3,10,3,1.8,0,0.0,-1,0.0,0.0,0.0,0,0.0,0.6974
41863,1625652229743,,,,,,,,0.25,-0.04,1.99,1,-7,-4,0.25,,73,6091,7,29,58,1.154,5.4,626,4.87,13.7,292.5,1,33.7,3.03,15.8,0,0,0,1,0,54,-1,-1,53,,,,,,,,,,,,,,,,
41883,1625652229763,,,,,,,,0.26,-0.04,2.06,1,-9,-7,0.27,,73,5994,7,29,57,1.144,5.4,618,4.84,13.7,292.5,1,33.1,3.01,15.8,0,0,0,1,0,54,-1,-1,53,,,,,,,,,,,,,,,,
41903,1625652229783,,,,,,,,0.3,-0.04,2.23,1,-12,-11,0.3,,73,5859,7,29,56,1.131,5.3,603,4.86,13.6,156.6,1,32.8,3.16,8.3,0,0,0,1,0,53,-1,-1,52,,,,,,,,,,,,,,,,
41923,1625652229804,,,,,,,,0.35,-0.02,2.37,1,-15,-13,0.35,,73,5700,7,29,55,1.121,5.3,596,4.83,13.6,156.6,1,32.5,3.32,8.3,0,0,0,1,0,53,-1,-1,52,,,,,,,,,,,,,,,,
41943,1625652229824,-0,2,48,51,32,31,8,0.26,-0.0,2.17,1,-9,-8,0.26,0,74,5527,7,29,55,1.11,5.3,590,4.75,13.4,156.6,1,32.4,3.49,8.3,0,0,0,1,0,53,-1,-1,52,52.961861,6.523043,4.58,43.0,10,3,1.8,0,0.0,-1,0.0,,0.0,0,0.0,0.699
41963,1625652229844,,,,,,,,0.19,-0.05,1.99,1,-7,-8,0.2,,74,5395,7,29,55,1.086,5.3,564,4.85,13.6,156.6,1,32.3,3.61,8.3,0,0,0,1,0,53,-1,-1,52,,,,,,,,,,,,,,,,
41983,1625652229864,,,,,,,,0.21,0.02,2.16,1,-12,-11,0.21,,74,5219,7,29,55,1.05,5.3,551,4.81,13.5,175.0,1,32.2,3.77,9.1,0,0,0,1,0,53,-1,-1,52,,,,,,,,,,,,,,,,
42003,1625652229884,,,,,,,,0.2,-0.06,1.98,1,-6,-8,0.21,,74,5088,7,29,55,1.019,5.3,537,4.78,13.5,175.0,1,32.1,3.9,9.1,0,0,0,1,0,52,-1,-1,52,,,,,,,,,,,,,,,,
42023,1625652229907,,,,,,,,0.14,-0.04,2.15,1,-5,-7,0.15,,74,4923,7,29,56,0.992,5.3,525,4.69,13.3,175.0,1,31.4,3.88,9.1,0,0,0,1,0,52,-1,-1,51,,,,,,,,,,,,,,,,
42043,1625652229927,-0,2,48,50,32,31,9,0.13,-0.03,2.3,1,-8,-9,0.13,0,74,4790,7,29,56,0.991,5.3,502,4.76,13.3,175.0,1,29.7,3.67,9.1,0,0,0,1,0,52,-1,-1,51,52.961861,6.523045,4.86,42.8,10,3,1.8,0,0.0,-1,0.0,0.0,0.0,0,0.0,0.7007
42063,1625652229947,,,,,,,,0.15,0.0,2.44,1,-9,-9,0.15,,74,4650,7,29,56,0.99,5.3,486,4.8,13.6,175.0,1,27.9,3.5,9.1,0,0,0,1,0,52,-1,-1,51,,,,,,,,,,,,,,,,
42083,1625652229967,,,,,,,,0.16,-0.0,2.47,1,-9,-10,0.16,,74,4513,7,29,57,0.99,5.2,451,4.8,13.6,137.2,1,26.5,3.35,7.0,0,0,0,1,0,52,-1,-1,51,,,,,,,,,,,,,,,,
42103,1625652229987,,,,,,,,0.16,0.0,2.5,1,-9,-10,0.16,,74,4399,7,29,57,0.99,5.2,442,4.79,13.6,137.2,1,25.0,3.24,7.0,0,0,0,1,0,52,-1,-1,51,,,,,,,,,,,,,,,,
42123,1625652229999,,,,,,,,0.15,0.0,2.62,1,-9,-9,0.15,,74,4310,7,29,57,0.993,5.2,441,4.82,13.5,137.2,1,23.8,3.16,7.0,0,0,0,1,0,51,-1,-1,50,,,,,,,,,,,,,,,,
42143,1625652230019,0,2,48,51,32,31,9,0.12,0.01,2.59,1,-9,-8,0.12,0,73,4211,7,29,58,1.0,5.2,417,4.79,13.3,137.2,1,22.4,1.3,7.0,0,0,0,1,0,51,-1,-1,50,52.961864,6.523046,5.54,42.6,10,3,2.5,0,0.0,-1,0.0,,0.0,0,0.0,0.7024
42163,1625652230039,,,,,,,,0.11,-0.0,2.37,1,-8,-7,0.11,,74,4112,7,29,59,1.007,5.1,412,4.8,13.6,137.2,1,21.8,3.05,7.0,0,0,0,1,0,51,-1,-1,50,,,,,,,,,,,,,,,,
42183,1625652230059,,,,,,,,0.11,-0.01,2.2,1,-6,-6,0.11,,74,3987,7,29,59,1.015,5.1,388,4.8,13.6,108.0,1,20.2,2.96,5.4,0,0,0,1,0,51,-1,-1,50,,,,,,,,,,,,,,,,
42203,1625652230079,,,,,,,,0.09,-0.0,2.28,1,-6,-6,0.09,,74,3933,7,29,59,1.025,5.1,396,4.78,13.5,108.0,1,0.0,3.0,5.4,0,0,0,1,0,51,-1,-1,50,,,,,,,,,,,,,,,,
42223,1625652230109,,,,,,,,0.11,-0.03,2.09,1,-6,-5,0.11,,74,3824,7,29,61,1.039,5.1,371,4.8,13.6,108.0,1,18.8,3.03,5.4,0,0,0,1,0,51,-1,-1,49,,,,,,,,,,,,,,,,
42243,1625652230129,0,1,48,51,32,31,9,0.07,-0.05,2.03,1,-4,-5,0.09,0,74,3670,8,29,62,1.049,5.1,379,4.73,13.4,108.0,1,17.3,3.16,5.4,0,0,0,1,0,51,-1,-1,49,52.961861,6.523048,4.14,42.7,10,3,2.5,0,0.0,-1,0.0,0.0,0.0,0,0.0,0.704
42263,1625652230149,,,,,,,,0.07,-0.02,1.93,1,-4,-4,0.08,,74,3555,9,29,63,1.057,5.0,351,4.82,13.6,108.0,1,0.0,3.2,5.4,0,0,0,1,0,50,-1,-1,49,,,,,,,,,,,,,,,,
42283,1625652230169,,,,,,,,0.07,-0.03,1.78,1,-4,-4,0.07,,74,3440,9,29,65,1.073,5.0,347,4.77,13.6,85.7,1,16.4,2.66,4.2,0,0,0,1,0,50,-1,-1,49,,,,,,,,,,,,,,,,
42303,1625652230189,,,,,,,,0.06,-0.03,1.71,1,-4,-3,0.07,,74,3322,10,29,67,1.084,5.0,330,4.81,13.6,85.7,1,0.0,2.71,4.2,0,0,0,1,0,50,-1,-1,48,,,,,,,,,,,,,,,,
42323,1625652230207,,,,,,,,0.07,-0.03,1.69,1,-4,-3,0.08,,74,3133,10,29,69,1.1,5.0,326,4.75,13.4,85.7,1,0.0,2.75,4.2,0,0,0,1,0,50,-1,-1,48,,,,,,,,,,,,,,,,
42343,1625652230227,-1,3,48,51,32,31,10,0.08,-0.02,1.64,1,-4,-3,0.08,0,74,3013,11,29,70,1.109,5.0,312,4.76,13.5,85.7,1,0.0,2.78,4.2,0,0,0,1,0,50,-1,-1,48,52.961861,6.52305,4.53,42.5,10,3,1.8,0,0.0,-1,0.0,,0.0,0,0.0,0.7057
42363,1625652230247,,,,,,,,0.08,-0.03,1.6,1,-4,-3,0.09,,74,2901,11,29,73,1.121,5.0,296,4.76,13.4,85.7,1,0.0,2.83,4.2,0,0,0,1,0,50,-1,-1,49,,,,,,,,,,,,,,,,
42383,1625652230267,,,,,,,,0.09,-0.03,1.55,1,-4,-3,0.09,,74,2867,12,29,75,1.134,4.9,291,4.81,13.6,77.5,1,18.0,2.87,3.8,0,0,0,1,0,50,-1,-1,49,,,,,,,,,,,,,,,,
42403,1625652230287,,,,,,,,0.09,-0.04,1.43,1,-5,-2,0.1,,74,2846,12,29,77,1.142,4.9,281,4.81,13.6,77.5,1,0.0,2.93,3.8,0,0,0,1,0,49,-1,-1,48,,,,,,,,,,,,,,,,
42423,1625652230308,,,,,,,,0.08,-0.05,1.35,1,-5,-2,0.09,,74,2797,15,29,80,1.153,4.9,275,4.82,13.6,77.5,1,18.1,2.99,3.8,0,0,0,1,0,49,-1,-1,48,,,,,,,,,,,,,,,,
42443,1625652230328,-1,2,48,51,32,31,11,0.06,-0.04,1.36,1,-4,-2,0.07,0,74,2740,18,29,83,1.158,4.9,277,4.76,13.6,77.5,1,17.5,1.98,3.8,0,0,0,1,0,49,-1,-1,47,52.961861,6.523052,4.08,42.8,10,3,1.8,0,0.0,-1,0.0,0.0,0.0,0,0.0,0.7074
42463,1625652230348,,,,,,,,0.03,-0.03,1.34,2,-3,-1,0.05,,74,2769,19,29,86,1.155,4.9,272,4.78,13.5,77.5,1,20.6,5.21,3.8,0,0,0,1,0,49,-1,-1,47,,,,,,,,,,,,,,,,
42483,1625652230368,,,,,,,,0.03,-0.02,1.29,2,-2,-1,0.03,,74,3022,19,29,89,1.151,4.9,285,4.83,13.6,161.7,1,24.6,5.47,7.6,0,0,0,1,0,49,-1,-1,47,,,,,,,,,,,,,,,,
42503,1625652230388,,,,,,,,0.03,-0.02,1.29,2,-2,-1,0.04,,74,3268,20,29,90,1.149,4.9,301,4.82,13.6,161.7,1,25.0,6.1,7.6,0,0,0,1,0,49,-1,-1,47,,,,,,,,,,,,,,,,
42523,1625652230408,,,,,,,,0.02,-0.01,1.28,2,-2,-1,0.02,,74,3504,20,29,91,1.145,4.8,320,4.76,13.6,161.7,1,25.7,6.71,7.6,0,0,0,1,0,49,-1,-1,47,,,,,,,,,,,,,,,,
42543,1625652230428,1,0,48,51,32,31,11,0.03,-0.0,1.23,2,-2,-1,0.03,0,74,3865,20,29,92,1.132,4.8,353,4.75,13.6,161.7,1,28.6,6.7,7.6,0,0,0,1,0,48,-1,-1,46,52.961861,6.523054,4.26,43.0,10,3,1.8,0,0.0,-1,0.0,,0.0,0,0.0,0.709
42563,1625652230448,,,,,,,,0.02,0.02,1.46,2,-2,-2,0.02,,74,4212,20,29,92,1.116,4.8,379,4.81,13.5,161.7,1,32.2,6.53,7.6,0,0,0,1,0,48,-1,-1,46,,,,,,,,,,,,,,,,
42583,1625652230468,,,,,,,,0.0,0.03,1.67,1,-4,-3,0.03,,74,4587,20,29,91,1.106,4.7,413,4.81,13.4,161.7,1,36.8,6.19,7.6,0,0,0,1,0,48,-1,-1,46,,,,,,,,,,,,,,,,
42603,1625652230488,,,,,,,,0.07,0.05,1.87,1,-7,-6,0.08,,74,4922,20,29,90,1.091,4.7,466,4.83,13.5,284.7,1,41.5,5.91,13.1,0,0,0,1,0,48,-1,-1,46,,,,,,,,,,,,,,,,
42623,1625652230506,,,,,,,,-0.06,0.01,1.71,2,2,2,0.06,,74,5316,20,29,89,1.068,4.7,512,4.76,13.5,284.7,1,41.6,2.89,13.1,0,0,0,1,0,48,-1,-1,46,,,,,,,,,,,,,,,,
42643,1625652230526,-0,2,48,51,32,31,10,-0.17,0.0,1.57,2,-3,-0,0.17,0,74,5864,20,29,87,1.044,4.7,562,4.76,13.6,284.7,1,39.5,7.59,13.1,0,0,0,1,0,47,-1,-1,46,52.961861,6.523056,4.56,43.2,10,3,1.8,0,0.0,-1,0.0,0.0,0.0,0,0.0,0.7107
42663,1625652230546,,,,,,,,-0.17,0.03,1.52,2,-0,2,0.17,,74,6494,19,29,85,1.013,4.7,613,4.73,13.4,284.7,1,42.7,7.15,13.1,0,0,0,1,0,47,-1,-1,46,,,,,,,,,,,,,,,,
42683,1625652230566,,,,,,,,-0.12,-0.01,1.61,2,-2,-1,0.12,,74,6833,19,29,83,0.992,4.7,638,4.75,13.6,443.4,1,44.3,6.46,20.4,0,0,0,1,0,47,-1,-1,46,,,,,,,,,,,,,,,,
42703,1625652230586,,,,,,,,-0.1,-0.04,1.49,2,1,2,0.11,,74,6803,17,29,80,0.978,4.7,649,4.74,13.4,443.4,1,43.1,6.31,20.4,0,0,0,1,0,47,-1,-1,45,,,,,,,,,,,,,,,,
42723,1625652230606,,,,,,,,-0.13,-0.03,1.36,2,-1,1,0.13,,74,7035,16,29,77,0.969,4.5,649,4.74,13.6,443.4,1,43.3,6.06,20.4,0,0,0,1,0,47,-1,-1,45,,,,,,,,,,,,,,,,
42743,1625652230626,-1,2,48,51,32,31,11,-0.12,-0.03,1.37,2,-2,-1,0.13,0,74,7315,15,29,75,0.955,4.5,652,4.82,13.6,443.4,1,41.5,6.05,20.4,0,0,0,1,0,47,-1,-1,45,52.961861,6.523058,4.08,43.5,10,3,1.8,0,0.0,-1,0.0,,0.0,0,0.0,0.7124
42763,1625652230646,,,,,,,,-0.08,-0.05,1.51,2,-3,-3,0.09,,74,7287,13,29,72,0.938,4.5,659,4.72,13.6,443.4,1,41.0,5.66,20.4,0,0,0,1,0,47,-1,-1,45,,,,,,,,,,,,,,,,
42783,1625652230666,,,,,,,,-0.01,-0.02,1.72,2,-3,-2,0.03,,74,7217,13,29,69,0.929,4.7,664,4.76,13.5,391.1,1,40.4,5.26,17.6,0,0,0,1,0,46,-1,-1,45,,,,,,,,,,,,,,,,
42803,1625652230686,,,,,,,,0.02,-0.04,1.81,2,-1,-0,0.04,,74,7284,13,29,67,0.92,4.7,658,4.8,13.4,391.1,1,39.8,4.9,17.6,0,0,0,1,0,46,-1,-1,45,,,,,,,,,,,,,,,,
42823,1625652230706,,,,,,,,-0.04,-0.04,1.66,2,1,1,0.05,,74,7192,13,29,65,0.911,4.6,654,4.78,13.4,391.1,1,39.5,4.37,17.6,0,0,0,1,0,46,-1,-1,45,,,,,,,,,,,,,,,,
42843,1625652230726,1,2,47,51,32,31,11,-0.05,-0.04,1.59,2,-2,-1,0.07,0,74,7022,13,29,63,0.902,4.6,653,4.82,13.6,391.1,1,38.9,3.87,17.6,0,0,0,1,0,46,-1,-1,45,52.961861,6.52306,4.5,43.3,10,3,1.8,0,0.0,-1,0.0,0.0,0.0,0,0.0,0.714
42863,1625652230746,,,,,,,,0.01,-0.01,1.79,2,-1,-1,0.01,,74,7040,13,29,62,0.9,4.6,647,4.7,13.5,391.1,1,38.6,3.61,17.6,0,0,0,1,0,46,-1,-1,45,,,,,,,,,,,,,,,,
42883,1625652230766,,,,,,,,-0.01,0.04,1.64,2,1,2,0.04,,74,7072,12,29,61,0.899,4.6,655,4.81,13.6,242.2,1,38.3,3.35,10.9,0,0,0,1,0,46,-1,-1,45,,,,,,,,,,,,,,,,
42903,1625652230786,,,,,,,,-0.07,0.01,1.5,2,1,2,0.07,,74,7194,12,29,60,0.898,4.6,654,4.78,13.6,242.2,1,37.9,3.26,10.9,0,0,0,1,0,46,-1,-1,44,,,,,,,,,,,,,,,,
42923,1625652230806,,,,,,,,-0.05,0.02,1.62,2,-2,-1,0.05,,74,7115,12,29,60,0.897,4.7,651,4.8,13.6,242.2,1,37.9,3.17,10.9,0,0,0,1,0,46,-1,-1,44,,,,,,,,,,,,,,,,
42943,1625652230826,1,1,48,51,32,31,11,0.01,-0.01,1.82,2,-1,-0,0.01,0,74,7091,12,29,59,0.896,4.7,662,4.68,13.5,242.2,1,37.6,3.13,10.9,0,0,0,1,0,46,-1,-1,45,52.961861,6.523062,3.94,43.7,10,3,2.0,0,0.0,-1,0.0,,0.0,0,0.0,0.7157
42963,1625652230846,,,,,,,,-0.02,0.03,1.67,2,1,2,0.03,,74,7148,12,29,58,0.896,4.6,652,4.85,13.5,242.2,1,37.3,3.06,10.9,0,0,0,1,0,46,-1,-1,45,,,,,,,,,,,,,,,,
42983,1625652230866,,,,,,,,-0.06,0.02,1.53,2,2,3,0.07,,74,7200,12,29,58,0.896,4.6,660,4.81,13.5,224.4,1,37.3,3.04,10.1,0,0,0,1,0,46,-1,-1,45,,,,,,,,,,,,,,,,
43003,1625652230886,,,,,,,,-0.05,-0.03,1.47,2,-1,-0,0.06,,74,7102,12,29,57,0.896,4.6,654,4.85,13.6,224.4,1,36.9,2.94,10.1,0,0,0,1,0,46,-1,-1,44,,,,,,,,,,,,,,,,
43023,1625652230910,,,,,,,,0.01,-0.03,1.68,2,-1,-0,0.03,,74,7096,12,29,57,0.891,4.6,653,4.75,13.4,224.4,1,36.9,2.92,10.1,0,0,0,1,0,46,-1,-1,44,,,,,,,,,,,,,,,,
43043,1625652230930,0,3,48,51,32,31,11,0.02,-0.04,1.54,2,2,2,0.04,0,74,7192,12,29,57,0.886,4.6,664,4.72,13.4,224.4,1,37.0,2.89,10.1,0,0,0,1,0,46,-1,-1,45,52.961857,6.523064,4.31,44.0,10,3,2.0,0,0.0,-1,0.0,0.0,0.0,0,0.0,0.7174
43063,1625652230950,,,,,,,,-0.03,0.0,1.41,2,2,3,0.03,,74,7219,12,29,56,0.883,4.7,656,4.9,13.6,224.4,1,36.7,2.36,10.1,0,0,0,1,0,46,-1,-1,45,,,,,,,,,,,,,,,,
43083,1625652230970,,,,,,,,-0.07,-0.0,1.3,2,2,3,0.07,,74,7309,12,29,56,0.878,4.7,661,4.84,13.6,177.7,1,36.7,2.38,8.0,0,0,0,1,0,46,-1,-1,45,,,,,,,,,,,,,,,,
43103,1625652230990,,,,,,,,-0.12,-0.04,1.19,2,1,1,0.12,,74,7364,12,29,56,0.876,4.7,658,4.81,13.6,177.7,1,36.8,2.35,8.0,0,0,0,1,0,46,-1,-1,45,,,,,,,,,,,,,,,,
43123,1625652231000,,,,,,,,-0.14,-0.02,1.13,2,-1,-1,0.14,,74,7428,12,29,55,0.875,4.7,662,4.7,13.6,177.7,1,36.6,1.23,8.0,0,0,0,1,0,46,-1,-1,45,,,,,,,,,,,,,,,,
43143,1625652231020,-1,2,48,51,31,31,11,-0.14,-0.02,1.09,2,-2,-2,0.14,0,74,7440,13,29,55,0.874,4.7,665,4.7,13.5,177.7,1,36.6,2.37,8.0,0,0,0,1,0,46,-1,-1,45,52.961857,6.523066,4.41,43.9,10,3,1.8,0,0.0,-1,0.0,,0.0,0,0.0,0.719
43163,1625652231040,,,,,,,,-0.13,-0.03,1.02,2,-3,-3,0.13,,74,7509,13,29,54,0.873,4.7,663,4.71,13.5,177.7,1,36.5,2.36,8.0,0,0,0,1,0,46,-1,-1,45,,,,,,,,,,,,,,,,
43183,1625652231060,,,,,,,,-0.15,-0.03,0.94,2,-4,-5,0.16,,74,7600,13,29,54,0.869,4.7,666,4.81,13.6,177.7,1,36.6,2.38,8.0,0,0,0,1,0,47,-1,-1,45,,,,,,,,,,,,,,,,
43203,1625652231080,,,,,,,,-0.2,-0.02,0.86,2,-4,-5,0.2,,74,7646,13,29,54,0.861,4.7,665,4.8,13.6,184.4,1,36.6,2.38,8.3,0,0,0,1,0,47,-1,-1,45,,,,,,,,,,,,,,,,
43223,1625652231108,,,,,,,,-0.24,0.04,0.79,2,-2,-1,0.25,,74,7754,13,29,53,0.857,4.7,671,4.78,13.5,184.4,1,36.6,2.4,8.3,0,0,0,1,0,47,-1,-1,45,,,,,,,,,,,,,,,,
43243,1625652231128,1,0,48,51,32,31,11,-0.19,0.03,0.81,2,0,2,0.2,0,74,7871,13,29,52,0.848,4.7,679,4.81,13.4,184.4,1,36.6,2.42,8.3,0,0,0,1,0,47,-1,-1,45,52.961857,6.523067,4.59,43.7,10,3,2.5,0,0.0,-1,0.0,0.0,0.0,0,0.0,0.7207
43263,1625652231148,,,,,,,,-0.12,0.01,1.08,2,-2,-0,0.13,,74,7948,13,29,51,0.843,4.7,668,4.76,13.6,184.4,1,36.8,2.43,8.3,0,0,0,1,0,47,-1,-1,45,,,,,,,,,,,,,,,,
43283,1625652231168,,,,,,,,-0.15,0.07,0.99,2,-2,-0,0.17,,74,8074,12,29,50,0.841,4.7,676,4.74,13.6,206.6,1,36.9,2.5,9.3,0,0,0,1,0,47,-1,-1,45,,,,,,,,,,,,,,,,
43303,1625652231188,,,,,,,,-0.11,0.07,1.04,2,-0,2,0.13,,74,8241,12,29,49,0.837,4.8,681,4.85,13.4,206.6,1,37.0,2.67,9.3,0,0,0,1,0,47,-1,-1,46,,,,,,,,,,,,,,,,
43323,1625652231210,,,,,,,,-0.1,0.07,0.95,2,-1,1,0.12,,74,8366,12,29,47,0.835,4.8,675,4.82,13.5,206.6,1,36.8,2.77,9.3,0,0,0,1,0,48,-1,-1,46,,,,,,,,,,,,,,,,
43343,1625652231230,-1,2,48,51,31,31,12,-0.1,0.04,1.21,2,-2,-3,0.11,0,74,8522,10,29,45,0.831,4.8,677,4.81,13.5,206.6,1,35.7,2.88,9.3,0,0,0,1,0,48,-1,-1,46,52.961857,6.52307,4.79,43.6,10,3,2.5,0,0.0,-1,0.0,,0.0,0,0.0,0.7224
43363,1625652231250,,,,,,,,-0.08,-0.01,1.15,2,-1,0,0.08,,74,8549,8,29,42,0.828,4.8,675,4.77,13.4,206.6,1,33.8,2.81,9.3,0,0,0,1,0,48,-1,-1,46,,,,,,,,,,,,,,,,
43383,1625652231270,,,,,,,,-0.07,0.07,1.05,2,-1,3,0.1,,74,8526,7,29,39,0.825,4.8,680,4.73,13.5,234.7,1,32.0,2.75,10.8,0,0,0,1,0,48,-1,-1,46,,,,,,,,,,,,,,,,
43403,1625652231290,,,,,,,,-0.07,0.06,1.3,2,-1,-1,0.09,,74,8442,7,29,38,0.822,4.8,682,4.83,13.4,234.7,1,31.5,2.64,10.8,0,0,0,1,0,49,-1,-1,47,,,,,,,,,,,,,,,,
43423,1625652231309,,,,,,,,-0.07,0.05,1.19,2,0,2,0.09,,74,8194,7,29,35,0.82,4.8,675,4.82,13.5,234.7,1,30.1,2.33,10.8,0,0,0,1,0,49,-1,-1,47,,,,,,,,,,,,,,,,
43443,1625652231329,-1,2,48,51,32,31,13,-0.01,0.02,1.42,2,-2,-1,0.02,0,74,7941,7,29,35,0.819,4.9,669,4.82,13.4,234.7,1,29.8,2.1,10.8,0,0,0,1,0,49,-1,-1,47,52.961857,6.523073,4.75,43.9,10,3,2.5,0,0.0,-1,0.0,0.0,0.0,0,0.0,0.724
43463,1625652231349,,,,,,,,0.03,0.03,1.64,2,-4,-5,0.04,,74,7678,7,29,35,0.82,4.9,673,4.66,13.4,234.7,1,29.8,2.1,10.8,0,0,0,1,0,49,-1,-1,47,,,,,,,,,,,,,,,,
43483,1625652231369,,,,,,,,0.06,0.05,1.81,2,-5,-7,0.08,,74,7416,7,29,35,0.82,4.9,658,4.7,13.5,234.7,1,29.8,2.1,10.8,0,0,0,1,0,49,-1,-1,47,,,,,,,,,,,,,,,,
43503,1625652231389,,,,,,,,0.1,0.04,1.87,2,-5,-6,0.11,,74,7145,7,29,36,0.821,4.9,658,4.73,13.5,153.1,1,30.1,2.14,7.2,0,0,0,1,0,50,-1,-1,48,,,,,,,,,,,,,,,,
43523,1625652231410,,,,,,,,0.02,0.07,1.72,2,-3,-4,0.07,,74,6929,7,29,36,0.822,4.9,645,4.8,13.6,153.1,1,30.0,2.14,7.2,0,0,0,1,0,50,-1,-1,48,,,,,,,,,,,,,,,,
43543,1625652231430,-0,2,48,51,32,31,14,0.11,0.07,1.91,2,-5,-6,0.12,0,74,6663,7,29,36,0.824,5.0,644,4.82,13.6,153.1,1,29.7,2.14,7.2,0,0,0,1,0,50,-1,-1,48,52.961857,6.523075,4.77,44.1,10,3,2.5,0,0.0,-1,0.0,,0.0,0,0.0,0.7257
43563,1625652231450,,,,,,,,0.05,0.05,1.75,2,-6,-6,0.07,,74,6465,7,29,37,0.825,5.0,643,4.8,13.6,153.1,1,29.8,2.19,7.2,0,0,0,1,0,50,-1,-1,48,,,,,,,,,,,,,,,,
43583,1625652231470,,,,,,,,-0.05,0.08,1.6,2,-1,-2,0.09,,74,6300,7,29,37,0.827,5.0,642,4.8,13.4,131.2,1,29.6,2.19,6.3,0,0,0,1,0,50,-1,-1,48,,,,,,,,,,,,,,,,
43603,1625652231490,,,,,,,,-0.07,0.11,1.47,2,3,1,0.13,,74,6123,7,29,37,0.832,5.0,638,4.75,13.4,131.2,1,29.4,2.19,6.3,0,0,0,1,0,50,-1,-1,48,,,,,,,,,,,,,,,,
43623,1625652231505,,,,,,,,-0.09,0.13,1.35,2,7,4,0.16,,74,5905,7,29,38,0.842,5.0,626,4.73,13.4,131.2,1,29.2,2.28,6.3,0,0,0,1,0,50,-1,-1,48,,,,,,,,,,,,,,,,
43643,1625652231525,-1,2,48,51,32,31,15,-0.18,0.12,1.23,2,11,9,0.21,0,74,5740,7,29,39,0.847,5.0,601,4.77,13.4,131.2,1,29.1,1.26,6.3,0,0,0,1,0,51,-1,-1,49,52.961857,6.523078,5.35,44.3,10,3,2.5,0,0.0,-1,0.0,0.0,0.0,0,0.0,0.7274
43663,1625652231545,,,,,,,,-0.13,0.08,1.2,2,8,5,0.15,,74,5521,7,29,40,0.857,5.0,582,4.81,13.6,131.2,1,28.8,2.47,6.3,0,0,0,1,0,51,-1,-1,49,,,,,,,,,,,,,,,,
43683,1625652231565,,,,,,,,-0.07,0.1,1.43,2,7,4,0.13,,74,5301,7,29,41,0.87,5.0,568,4.72,13.5,131.2,1,28.5,2.57,6.3,0,0,0,1,0,51,-1,-1,48,,,,,,,,,,,,,,,,
43703,1625652231585,,,,,,,,-0.09,0.03,1.31,2,9,6,0.09,,74,5138,7,29,43,0.892,5.0,534,4.8,13.6,131.2,1,28.7,2.67,6.3,0,0,0,1,0,51,-1,-1,48,,,,,,,,,,,,,,,,
43723,1625652231605,,,,,,,,-0.13,0.07,1.54,2,9,6,0.14,,74,4978,7,28,44,0.906,5.1,526,4.8,13.5,131.2,1,27.7,2.72,6.3,0,0,0,1,0,51,-1,-1,48,,,,,,,,,,,,,,,,
43743,1625652231625,0,1,48,51,32,31,15,-0.11,0.07,1.74,2,5,3,0.13,0,74,4750,7,28,44,0.923,5.1,513,4.76,13.3,131.2,1,25.8,2.61,6.3,0,0,0,1,0,51,-1,-1,48,52.961857,6.52308,5.34,44.5,10,3,2.5,0,0.0,-1,0.0,,0.0,0,0.0,0.729
43763,1625652231645,,,,,,,,-0.07,0.1,1.93,2,3,1,0.12,,74,4608,7,28,45,0.944,5.1,475,4.8,13.4,131.2,1,24.3,2.56,6.3,0,0,0,1,0,51,-1,-1,48,,,,,,,,,,,,,,,,
43783,1625652231665,,,,,,,,-0.03,0.09,2.04,2,1,-0,0.1,,74,4479,7,28,46,0.966,5.1,461,4.73,13.4,106.1,1,23.0,2.51,5.2,0,0,0,1,0,51,-1,-1,49,,,,,,,,,,,,,,,,
43803,1625652231685,,,,,,,,-0.02,0.1,2.21,2,-0,-1,0.1,,74,4361,7,28,47,0.986,5.1,436,4.76,13.5,106.1,1,21.9,2.47,5.2,0,0,0,1,0,51,-1,-1,49,,,,,,,,,,,,,,,,
43823,1625652231705,,,,,,,,-0.03,0.11,2.24,2,-1,-1,0.12,,74,4194,7,28,48,1.007,5.0,425,4.75,13.3,106.1,1,20.1,2.38,5.2,0,0,0,1,0,52,-1,-1,49,,,,,,,,,,,,,,,,
43843,1625652231725,0,1,48,51,32,31,16,-0.02,0.09,2.06,2,-1,-1,0.09,0,74,4102,7,28,49,1.028,5.0,408,4.8,13.6,106.1,1,19.2,2.32,5.2,0,0,0,1,0,52,-1,-1,49,52.961857,6.523083,5.79,44.8,10,3,1.8,0,0.0,-1,0.0,0.0,0.0,0,0.0,0.7307
43863,1625652231745,,,,,,,,-0.02,0.08,1.88,2,0,-0,0.08,,74,3939,7,28,50,1.044,5.2,389,4.81,13.6,106.1,1,17.8,2.26,5.2,0,0,0,1,0,52,-1,-1,49,,,,,,,,,,,,,,,,
43883,1625652231765,,,,,,,,-0.03,0.1,1.95,2,-0,-1,0.1,,74,3858,7,28,52,1.061,5.2,391,4.8,13.4,81.6,1,0.0,2.25,4.0,0,0,0,1,0,52,-1,-1,49,,,,,,,,,,,,,,,,
43903,1625652231785,,,,,,,,-0.02,0.1,1.78,2,0,-0,0.1,,74,3731,7,28,53,1.077,5.2,373,4.78,13.7,81.6,1,0.0,2.26,4.0,0,0,0,1,0,52,-1,-1,49,,,,,,,,,,,,,,,,
43923,1625652231805,,,,,,,,-0.02,0.09,1.73,2,-0,-0,0.1,,74,3587,8,28,55,1.09,5.2,365,4.78,13.6,81.6,1,0.0,2.34,4.0,0,0,0,1,0,52,-1,-1,50,,,,,,,,,,,,,,,,
43943,1625652231825,0,2,48,51,32,31,15,-0.02,0.1,1.72,2,0,0,0.1,0,74,3377,8,28,57,1.093,5.2,347,4.78,13.3,81.6,1,0.0,2.42,4.0,0,0,0,1,0,52,-1,-1,50,52.961857,6.523085,5.69,44.7,10,3,2.5,0,0.0,-1,0.0,,0.0,0,0.0,0.7324
43963,1625652231845,,,,,,,,-0.02,0.09,1.68,2,0,-0,0.09,,74,3228,8,28,58,1.097,5.2,326,4.86,13.6,81.6,1,0.0,2.46,4.0,0,0,0,1,0,52,-1,-1,50,,,,,,,,,,,,,,,,
43983,1625652231865,,,,,,,,-0.03,0.09,1.63,2,0,-0,0.1,,74,3075,8,28,60,1.102,5.2,312,4.85,13.6,72.0,1,0.0,2.53,3.6,0,0,0,1,0,52,-1,-1,50,,,,,,,,,,,,,,,,
44003,1625652231885,,,,,,,,-0.04,0.09,1.59,2,1,-0,0.1,,74,2921,8,28,61,1.108,5.2,297,4.8,13.5,72.0,1,0.0,2.56,3.6,0,0,0,1,0,52,-1,-1,50,,,,,,,,,,,,,,,,
44023,1625652231909,,,,,,,,-0.04,0.09,1.54,2,1,-0,0.1,,74,2786,9,28,63,1.111,5.2,290,4.71,13.4,72.0,1,-0.4,2.6,3.6,0,0,0,1,0,52,-1,-1,50,,,,,,,,,,,,,,,,
44043,1625652231929,0,1,48,51,32,31,15,-0.02,0.08,1.56,2,1,-0,0.08,0,74,2663,9,28,66,1.113,5.2,282,4.77,13.5,72.0,1,-0.4,2.67,3.6,0,0,0,1,0,52,-1,-1,50,52.961857,6.523088,5.65,44.6,10,3,2.5,0,0.0,-1,0.0,0.0,0.0,0,0.01,0.734
44063,1625652231949,,,,,,,,-0.01,0.07,1.46,3,0,-0,0.07,,74,2591,9,28,68,1.115,5.2,265,4.8,13.6,72.0,1,16.2,2.71,3.6,0,0,0,1,0,52,-1,-1,50,,,,,,,,,,,,,,,,
44083,1625652231969,,,,,,,,-0.02,0.06,1.43,3,0,-0,0.07,,74,2465,9,28,69,1.117,5.2,261,4.82,13.6,72.0,1,-0.4,2.73,3.6,0,0,0,1,0,52,-1,-1,50,,,,,,,,,,,,,,,,
44103,1625652231989,,,,,,,,-0.01,0.07,1.42,3,0,-0,0.07,,74,2422,9,28,72,1.119,5.2,254,4.8,13.6,62.0,1,-0.4,2.8,3.1,0,0,0,1,0,52,-1,-1,50,,,,,,,,,,,,,,,,
44123,1625652231997,,,,,,,,-0.02,0.07,1.38,3,0,-0,0.07,,74,2254,9,29,74,1.121,5.3,238,4.77,13.6,62.0,1,-0.4,2.82,3.1,0,0,0,1,0,52,-1,-1,50,,,,,,,,,,,,,,,,
44143,1625652232017,0,2,48,51,32,31,15,-0.01,0.06,1.33,3,0,-0,0.06,0,74,2145,10,29,76,1.123,5.3,232,4.79,13.6,62.0,1,-0.4,2.9,3.1,0,0,0,1,0,52,-1,-1,50,52.961853,6.52309,5.28,44.7,10,3,2.0,0,0.0,-1,0.0,,0.0,0,0.01,0.7357
44163,1625652232037,,,,,,,,0.0,0.05,1.29,3,0,-0,0.05,,74,1920,12,29,78,1.124,5.3,227,4.74,13.4,62.0,1,-0.4,2.94,3.1,0,0,0,1,0,52,-1,-1,50,,,,,,,,,,,,,,,,
44183,1625652232057,,,,,,,,-0.0,0.05,1.29,3,0,-0,0.05,,74,1818,12,29,81,1.122,5.3,212,4.8,13.5,50.0,1,-0.4,3.01,2.5,0,0,0,1,0,52,-1,-1,50,,,,,,,,,,,,,,,,
44203,1625652232091,,,,,,,,0.0,0.05,1.27,3,0,-0,0.05,,74,1688,12,29,85,1.122,5.2,198,4.8,13.6,50.0,1,15.8,3.08,2.5,0,0,0,1,0,53,-1,-1,50,,,,,,,,,,,,,,,,
44223,1625652232111,,,,,,,,0.0,0.04,1.25,3,0,-0,0.04,,74,1554,13,29,87,1.121,5.2,191,4.8,13.6,50.0,1,18.7,3.14,2.5,0,0,0,1,0,53,-1,-1,50,,,,,,,,,,,,,,,,
44243,1625652232131,0,2,48,51,32,31,16,0.0,0.04,1.25,3,0,-0,0.04,0,74,1446,13,29,90,1.119,5.3,183,4.8,13.6,50.0,1,22.5,3.18,2.5,0,0,0,1,0,53,-1,-1,50,52.961853,6.523093,5.22,44.5,10,3,2.0,0,0.0,-1,0.0,0.0,0.0,0,0.01,0.7374
44263,1625652232151,,,,,,,,-0.0,0.03,1.22,3,-0,-0,0.03,,74,1409,13,29,92,1.115,5.3,180,4.78,13.5,50.0,1,24.9,3.21,2.5,0,0,0,1,0,53,-1,-1,50,,,,,,,,,,,,,,,,
44283,1625652232171,,,,,,,,-0.01,0.03,1.17,3,-0,-0,0.03,,74,1370,15,29,93,1.11,5.2,178,4.81,13.5,39.2,1,26.0,3.21,2.0,0,0,0,1,0,53,-1,-1,51,,,,,,,,,,,,,,,,
44303,1625652232191,,,,,,,,0.0,0.03,1.17,3,-0,-0,0.03,,74,1337,19,29,95,1.107,5.2,173,4.73,13.2,39.2,1,28.4,2.09,2.0,0,0,0,1,0,53,-1,-1,51,,,,,,,,,,,,,,,,
44323,1625652232210,,,,,,,,0.0,0.03,1.14,3,0,-0,0.03,,74,1369,22,29,97,1.102,5.2,173,4.75,13.2,39.2,1,31.5,2.09,2.0,0,0,0,1,0,53,-1,-1,50,,,,,,,,,,,,,,,,
44343,1625652232230,-0,3,48,51,32,31,16,0.01,0.03,1.14,3,0,-0,0.03,0,74,1369,24,29,98,1.096,5.3,173,4.8,13.4,39.2,1,32.9,2.09,2.0,0,0,0,1,0,53,-1,-1,50,52.961853,6.523095,5.08,44.4,10,3,2.0,0,0.0,-1,0.0,,0.0,0,0.01,0.739
44363,1625652232250,,,,,,,,0.02,0.03,1.11,3,0,0,0.03,,74,1718,25,29,98,1.091,5.3,179,4.75,13.2,39.2,1,34.0,5.27,2.0,0,0,0,1,0,53,-1,-1,51,,,,,,,,,,,,,,,,
44383,1625652232270,,,,,,,,0.01,0.03,1.12,3,0,0,0.03,,74,1972,26,29,99,1.086,5.2,190,4.81,13.6,39.2,1,34.0,5.27,2.0,0,0,0,1,0,53,-1,-1,51,,,,,,,,,,,,,,,,
44403,1625652232290,,,,,,,,0.01,0.02,1.12,3,0,-0,0.02,,74,2276,26,29,99,1.081,5.2,203,4.8,13.6,94.1,1,34.0,5.2,4.8,0,0,0,1,0,53,-1,-1,50,,,,,,,,,,,,,,,,
44423,1625652232308,,,,,,,,0.01,0.02,1.11,3,0,-0,0.02,,74,2398,27,29,99,1.077,5.3,220,4.81,13.7,94.1,1,34.0,5.2,4.8,0,0,0,1,0,53,-1,-1,50,,,,,,,,,,,,,,,,
44443,1625652232328,1,2,48,51,32,31,16,0.01,0.02,1.17,3,0,-0,0.02,0,74,2813,28,29,98,1.074,5.3,241,4.83,13.7,94.1,1,32.2,5.84,4.8,0,0,0,1,0,53,-1,-1,50,52.961853,6.523097,5.22,44.4,10,3,2.0,0,0.0,-1,0.0,0.0,0.0,0,0.01,0.7407
44463,1625652232348,,,,,,,,0.01,0.0,1.13,3,1,-0,0.01,,74,3190,30,29,98,1.07,5.2,267,4.82,13.6,94.1,1,31.0,6.66,4.8,0,0,0,1,0,52,-1,-1,50,,,,,,,,,,,,,,,,
44483,1625652232368,,,,,,,,0.0,-0.01,1.17,3,1,-0,0.01,,74,3594,31,29,97,1.067,5.2,304,4.78,13.6,224.0,1,31.0,7.08,11.2,0,0,0,1,0,52,-1,-1,50,,,,,,,,,,,,,,,,
44503,1625652232388,,,,,,,,0.03,0.0,1.09,3,0,-0,0.03,,74,3800,31,29,97,1.057,5.2,328,4.8,13.6,224.0,1,32.9,6.97,11.2,0,0,0,1,0,53,-1,-1,50,,,,,,,,,,,,,,,,
44523,1625652232406,,,,,,,,0.04,0.01,1.33,3,-1,-1,0.05,,74,4327,31,29,97,1.049,5.2,373,4.8,13.5,224.0,1,37.3,6.68,11.2,0,0,0,1,0,53,-1,-1,50,,,,,,,,,,,,,,,,
44543,1625652232426,-0,2,48,51,32,31,17,0.11,-0.03,1.22,3,-4,-3,0.11,0,74,4802,31,29,96,1.04,5.2,420,4.78,13.6,224.0,1,41.0,6.13,11.2,0,0,0,1,0,53,-1,-1,50,52.961853,6.5231,5.09,44.4,10,3,2.0,0,0.0,-1,0.0,,0.0,0,0.01,0.7424
44563,1625652232446,,,,,,,,0.0,0.01,1.12,3,4,4,0.01,,74,5186,31,29,96,1.032,5.2,482,4.74,13.6,224.0,1,42.3,6.26,11.2,0,0,0,1,0,52,-1,-1,50,,,,,,,,,,,,,,,,
44583,1625652232466,,,,,,,,0.07,-0.06,1.02,3,-7,-2,0.09,,74,5617,30,29,94,1.022,5.2,541,4.77,13.6,360.0,1,40.9,6.93,18.0,0,0,0,1,0,52,-1,-1,50,,,,,,,,,,,,,,,,
44603,1625652232486,,,,,,,,0.09,-0.07,1.27,3,-9,-4,0.11,,74,6179,26,29,93,1.013,5.2,584,4.76,13.6,360.0,1,41.5,3.91,18.0,0,0,0,1,0,52,-1,-1,50,,,,,,,,,,,,,,,,
44623,1625652232508,,,,,,,,0.07,-0.04,1.17,3,-5,-0,0.08,,74,6853,20,29,89,1.003,5.2,637,4.78,13.4,360.0,1,47.8,5.81,18.0,0,0,0,1,0,52,-1,-1,50,,,,,,,,,,,,,,,,
44643,1625652232528,0,1,48,51,32,31,16,0.01,-0.07,1.07,3,-3,1,0.07,0,74,7332,15,29,85,0.995,5.2,644,4.79,13.6,360.0,1,43.1,5.66,18.0,0,0,0,1,0,52,-1,-1,50,52.961853,6.523102,5.01,44.4,10,3,2.0,0,0.0,-1,0.0,0.0,0.0,0,0.01,0.7441
44663,1625652232548,,,,,,,,-0.02,-0.07,0.98,3,-2,3,0.07,,75,7560,10,29,79,0.994,5.2,662,4.84,13.5,360.0,1,40.5,5.34,18.0,0,0,0,1,0,52,-1,-1,50,,,,,,,,,,,,,,,,
44683,1625652232568,,,,,,,,-0.01,-0.04,1.04,3,0,5,0.04,,75,7738,7,29,72,0.996,5.1,661,4.79,13.4,332.0,1,39.5,2.73,16.6,0,0,0,1,0,52,-1,-1,50,,,,,,,,,,,,,,,,
44703,1625652232588,,,,,,,,0.05,-0.04,1.29,3,-0,4,0.06,,75,7934,7,29,66,0.997,5.1,670,4.83,13.5,332.0,1,38.3,3.85,16.6,0,0,0,1,0,52,-1,-1,50,,,,,,,,,,,,,,,,
44723,1625652232608,,,,,,,,0.02,-0.02,1.18,3,-2,0,0.03,,75,8067,7,29,61,0.999,5.2,670,4.76,13.6,332.0,1,38.6,2.81,16.6,0,0,0,1,0,52,-1,-1,49,,,,,,,,,,,,,,,,
44743,1625652232628,-1,2,48,51,32,31,17,0.02,0.04,1.08,3,-1,4,0.04,0,75,8057,7,29,55,0.995,5.2,672,4.87,13.6,332.0,1,37.4,1.42,16.6,0,0,0,1,0,52,-1,-1,49,52.961853,6.523105,4.92,44.6,10,3,2.0,0,0.0,-1,0.0,,0.0,0,0.01,0.7457
44763,1625652232648,,,,,,,,-0.01,0.02,1.14,2,-2,-0,0.02,,75,8381,7,29,50,0.99,5.2,676,4.78,13.6,332.0,1,37.5,2.89,16.6,0,0,0,1,0,52,-1,-1,49,,,,,,,,,,,,,,,,
44783,1625652232668,,,,,,,,0.03,-0.03,1.28,3,-2,-1,0.04,,75,8604,7,29,47,0.986,5.2,684,4.7,13.5,238.7,1,37.0,2.94,11.7,0,0,0,1,0,52,-1,-1,49,,,,,,,,,,,,,,,,
44803,1625652232688,,,,,,,,0.05,-0.01,1.17,3,0,4,0.05,,75,8632,7,29,43,0.982,5.2,683,4.76,13.6,238.7,1,34.5,2.86,11.7,0,0,0,1,0,52,-1,-1,49,,,,,,,,,,,,,,,,
44823,1625652232708,,,,,,,,0.03,0.02,1.08,3,-0,3,0.04,,75,8644,7,30,41,0.973,5.1,682,4.78,13.6,238.7,1,33.2,2.77,11.7,0,0,0,1,0,52,-1,-1,50,,,,,,,,,,,,,,,,
44843,1625652232728,0,1,48,51,32,31,16,0.04,-0.01,1.32,3,-2,-1,0.04,0,75,8408,7,30,39,0.961,5.1,682,4.81,13.4,238.7,1,31.8,2.64,11.7,0,0,0,1,0,52,-1,-1,50,52.961853,6.523108,5.19,44.6,10,3,2.0,0,0.0,-1,0.0,0.0,0.0,0,0.01,0.7474
44863,1625652232748,,,,,,,,0.01,-0.03,1.21,3,-1,1,0.03,,75,8173,7,29,38,0.95,5.2,672,4.78,13.5,238.7,1,30.9,2.41,11.7,0,0,0,1,0,52,-1,-1,49,,,,,,,,,,,,,,,,
44883,1625652232768,,,,,,,,0.05,-0.08,1.43,3,0,2,0.1,,75,7888,7,29,37,0.939,5.2,678,4.81,13.4,163.2,1,30.4,2.19,8.0,0,0,0,1,0,52,-1,-1,49,,,,,,,,,,,,,,,,
44903,1625652232788,,,,,,,,0.12,-0.14,1.64,3,-2,-1,0.18,,75,7649,7,29,37,0.924,5.2,664,4.75,13.5,163.2,1,30.4,2.19,8.0,0,0,0,1,0,52,-1,-1,49,,,,,,,,,,,,,,,,
44923,1625652232808,,,,,,,,0.16,-0.09,1.84,3,-3,-3,0.19,,75,7408,7,29,38,0.902,5.2,667,4.76,13.5,163.2,1,30.7,2.24,8.0,0,0,0,1,0,52,-1,-1,50,,,,,,,,,,,,,,,,
44943,1625652232828,1,0,48,51,31,31,19,0.17,-0.08,1.87,3,-2,-1,0.19,0,75,7167,7,29,38,0.881,5.2,649,4.81,13.4,163.2,1,30.7,2.24,8.0,0,0,0,1,0,53,-1,-1,50,52.961853,6.52311,5.14,44.6,10,3,2.0,0,0.0,-1,0.0,,0.0,0,0.01,0.749
44963,1625652232848,,,,,,,,0.1,-0.07,1.72,3,-2,-1,0.12,,75,6967,7,29,38,0.86,5.2,649,4.88,13.7,163.2,1,30.6,2.24,8.0,0,0,0,1,0,53,-1,-1,50,,,,,,,,,,,,,,,,
44983,1625652232868,,,,,,,,0.16,-0.08,1.91,3,-1,-1,0.18,,75,6713,7,29,39,0.846,5.3,655,4.75,13.4,142.0,1,30.6,2.3,7.1,0,0,0,1,0,52,-1,-1,50,,,,,,,,,,,,,,,,
45003,1625652232888,,,,,,,,0.11,-0.09,1.75,3,-4,-3,0.14,,75,6517,7,29,39,0.845,5.3,637,4.8,13.6,142.0,1,30.4,2.3,7.1,0,0,0,1,0,52,-1,-1,50,,,,,,,,,,,,,,,,
45023,1625652232908,,,,,,,,0.02,-0.03,1.6,3,0,1,0.03,,75,6325,7,29,39,0.843,5.3,637,4.78,13.4,142.0,1,30.1,2.3,7.1,0,0,0,1,0,52,-1,-1,50,,,,,,,,,,,,,,,,
45043,1625652232928,0,3,48,51,32,31,19,0.04,0.02,1.64,3,3,3,0.04,0,75,6212,7,29,39,0.843,5.2,631,4.78,13.5,142.0,1,30.0,2.3,7.1,0,0,0,1,0,52,-1,-1,49,52.961853,6.523112,5.14,44.5,10,3,2.0,0,0.0,-1,0.0,0.0,0.0,0,0.01,0.7507
45063,1625652232948,,,,,,,,0.09,0.01,1.84,3,4,4,0.09,,75,6064,7,29,39,0.849,5.2,631,4.73,13.5,142.0,1,29.8,2.3,7.1,0,0,0,1,0,52,-1,-1,49,,,,,,,,,,,,,,,,
45083,1625652232968,,,,,,,,0.1,0.03,1.95,3,7,6,0.11,,75,5863,7,29,40,0.868,5.2,613,4.7,13.4,128.5,1,29.5,2.35,6.3,0,0,0,1,0,52,-1,-1,49,,,,,,,,,,,,,,,,
45103,1625652232988,,,,,,,,0.01,0.06,1.78,3,10,10,0.06,,75,5712,7,29,41,0.886,5.2,597,4.77,13.4,128.5,1,29.5,2.41,6.3,0,0,0,1,0,52,-1,-1,50,,,,,,,,,,,,,,,,
45123,1625652233001,,,,,,,,0.03,0.04,1.63,3,5,5,0.04,,75,5511,7,29,42,0.904,5.3,580,4.8,13.6,128.5,1,29.2,2.5,6.3,0,0,0,1,0,52,-1,-1,50,,,,,,,,,,,,,,,,
45143,1625652233021,-1,2,48,51,32,31,19,0.09,0.08,1.83,3,3,4,0.12,0,75,5310,7,29,43,0.923,5.3,561,4.74,13.6,128.5,1,29.0,2.6,6.3,0,0,0,1,0,52,-1,-1,49,52.961853,6.523114,5.25,44.5,10,3,2.0,0,0.0,-1,0.0,,0.0,0,0.01,0.7524
45163,1625652233041,,,,,,,,0.02,0.03,1.68,3,7,6,0.03,,75,5158,7,29,44,0.948,5.3,543,4.78,13.6,128.5,1,29.0,2.68,6.3,0,0,0,1,0,52,-1,-1,49,,,,,,,,,,,,,,,,
45183,1625652233061,,,,,,,,0.0,0.07,1.87,3,7,5,0.07,,75,4960,7,29,45,0.973,5.3,537,4.76,13.3,128.5,1,28.5,2.76,6.3,0,0,0,1,0,52,-1,-1,50,,,,,,,,,,,,,,,,
45203,1625652233081,,,,,,,,0.05,0.07,1.96,3,2,2,0.08,,75,4812,7,29,46,0.997,5.2,503,4.84,13.6,124.0,1,27.0,2.69,6.2,0,0,0,1,0,52,-1,-1,50,,,,,,,,,,,,,,,,
45223,1625652233108,,,,,,,,0.1,0.06,1.8,3,1,1,0.12,,75,4691,7,29,46,1.022,5.2,486,4.81,13.6,124.0,1,25.5,2.64,6.2,0,0,0,1,0,52,-1,-1,50,,,,,,,,,,,,,,,,
45243,1625652233128,0,2,48,51,32,31,19,0.15,0.01,1.65,3,1,1,0.15,0,75,4588,7,29,48,1.039,5.2,465,4.8,13.6,124.0,1,24.8,2.59,6.2,0,0,0,1,0,52,-1,-1,49,52.961853,6.523116,4.17,44.4,10,3,1.6,0,0.0,-1,0.0,0.0,0.0,0,0.01,0.754
45263,1625652233148,,,,,,,,0.18,-0.0,1.51,3,1,1,0.18,,75,4441,7,29,48,1.058,5.2,440,4.81,13.7,124.0,1,23.0,2.51,6.2,0,0,0,1,0,52,-1,-1,49,,,,,,,,,,,,,,,,
45283,1625652233168,,,,,,,,0.2,0.01,1.42,3,1,1,0.2,,75,4338,7,29,49,1.076,5.2,438,4.81,13.6,100.0,1,22.1,2.45,4.9,0,0,0,1,0,52,-1,-1,49,,,,,,,,,,,,,,,,
45303,1625652233188,,,,,,,,0.19,0.03,1.63,3,0,-0,0.19,,75,4185,7,29,50,1.094,5.1,419,4.78,13.5,100.0,1,20.5,2.36,4.9,0,0,0,1,0,52,-1,-1,49,,,,,,,,,,,,,,,,
45323,1625652233208,,,,,,,,0.16,0.06,1.69,3,-0,0,0.17,,75,4132,7,29,51,1.1,5.1,409,4.8,13.5,100.0,1,20.1,2.32,4.9,0,0,0,1,0,52,-1,-1,49,,,,,,,,,,,,,,,,
45343,1625652233228,-1,2,48,51,32,31,19,0.14,0.04,1.55,3,1,1,0.15,0,75,4129,7,29,52,1.105,5.2,400,4.84,13.7,100.0,1,20.3,2.32,4.9,0,0,0,1,0,52,-1,-1,49,52.961853,6.523118,4.53,44.4,10,3,1.6,0,0.0,-1,0.0,,0.0,0,0.01,0.7557
45363,1625652233248,,,,,,,,0.13,0.03,1.46,3,1,1,0.13,,75,3952,7,29,52,1.111,5.2,397,4.79,13.6,100.0,1,0.0,2.25,4.9,0,0,0,1,0,52,-1,-1,49,,,,,,,,,,,,,,,,
45383,1625652233268,,,,,,,,0.11,0.05,1.5,3,1,1,0.12,,75,3879,7,29,54,1.119,5.1,376,4.81,13.5,100.0,1,0.0,2.24,4.9,0,0,0,1,0,52,-1,-1,49,,,,,,,,,,,,,,,,
45403,1625652233288,,,,,,,,0.11,0.05,1.46,3,1,1,0.12,,75,3701,7,29,55,1.12,5.1,371,4.83,13.6,81.6,1,16.7,2.31,4.0,0,0,0,1,0,52,-1,-1,49,,,,,,,,,,,,,,,,
45423,1625652233309,,,,,,,,0.1,0.03,1.37,3,1,1,0.11,,75,3566,7,29,57,1.12,5.2,348,4.8,13.6,81.6,1,0.0,2.41,4.0,0,0,0,1,0,52,-1,-1,50,,,,,,,,,,,,,,,,
45443,1625652233329,1,2,48,51,32,31,18,0.1,0.02,1.42,3,1,1,0.11,0,75,3352,7,29,58,1.117,5.2,346,4.75,13.4,81.6,1,0.0,2.49,4.0,0,0,0,1,0,52,-1,-1,50,52.961853,6.52312,5.01,44.4,10,3,2.0,0,0.0,-1,0.0,0.0,0.0,0,0.01,0.7574
45463,1625652233349,,,,,,,,0.1,0.04,1.41,3,1,1,0.1,,75,3211,7,29,60,1.115,5.2,325,4.79,13.4,81.6,1,0.0,2.53,4.0,0,0,0,1,0,52,-1,-1,49,,,,,,,,,,,,,,,,
45483,1625652233369,,,,,,,,0.09,0.04,1.39,3,1,1,0.1,,75,3063,7,29,61,1.114,5.2,320,4.8,13.4,73.4,1,0.0,2.57,3.6,0,0,0,1,0,52,-1,-1,49,,,,,,,,,,,,,,,,
45503,1625652233389,,,,,,,,0.1,0.04,1.39,3,1,1,0.1,,75,2921,7,29,62,1.114,5.2,298,4.73,13.4,73.4,1,0.0,2.58,3.6,0,0,0,1,0,52,-1,-1,50,,,,,,,,,,,,,,,,
45523,1625652233407,,,,,,,,0.11,0.04,1.41,3,1,0,0.11,,75,2801,7,29,64,1.112,5.2,289,4.76,13.5,73.4,1,0.0,2.62,3.6,0,0,0,1,0,52,-1,-1,50,,,,,,,,,,,,,,,,
45543,1625652233427,-1,2,48,51,32,31,19,0.12,0.03,1.37,3,0,1,0.12,0,75,2751,7,29,65,1.111,5.2,281,4.82,13.6,73.4,1,-0.4,2.65,3.6,0,0,0,1,0,52,-1,-1,50,52.961853,6.523122,4.66,44.5,10,3,2.0,0,0.0,-1,0.0,,0.0,0,0.01,0.759
45563,1625652233447,,,,,,,,0.13,0.03,1.27,3,-0,0,0.13,,75,2610,7,29,67,1.11,5.2,265,4.78,13.6,73.4,1,16.1,2.68,3.6,0,0,0,1,0,52,-1,-1,49,,,,,,,,,,,,,,,,
45583,1625652233467,,,,,,,,0.1,0.02,1.27,3,0,0,0.11,,75,2454,7,29,68,1.108,5.2,257,4.88,13.4,73.4,1,-0.4,2.71,3.6,0,0,0,1,0,52,-1,-1,49,,,,,,,,,,,,,,,,
45603,1625652233487,,,,,,,,0.11,0.02,1.26,3,0,0,0.11,,75,2364,8,29,70,1.105,5.2,250,4.78,13.6,61.2,1,-0.4,2.75,3.0,0,0,0,1,0,52,-1,-1,50,,,,,,,,,,,,,,,,
45623,1625652233507,,,,,,,,0.1,0.02,1.25,3,0,0,0.1,,75,2150,9,29,72,1.103,5.2,236,4.8,13.3,61.2,1,-0.4,2.8,3.0,0,0,0,1,0,52,-1,-1,50,,,,,,,,,,,,,,,,
45643,1625652233527,0,2,48,51,32,31,19,0.09,0.01,1.23,3,0,0,0.09,0,75,2036,9,29,75,1.097,5.2,223,4.83,13.6,61.2,1,-0.4,2.85,3.0,0,0,0,1,0,52,-1,-1,50,52.961849,6.523124,4.89,44.6,10,3,2.0,0,0.0,-1,0.0,0.0,0.0,0,0.01,0.7607
45663,1625652233547,,,,,,,,0.09,0.01,1.2,3,0,0,0.09,,75,1916,9,29,77,1.091,5.2,217,4.8,13.6,61.2,1,-0.4,2.92,3.0,0,0,0,1,0,52,-1,-1,50,,,,,,,,,,,,,,,,
45683,1625652233567,,,,,,,,0.09,0.01,1.19,3,-0,0,0.09,,75,1799,9,29,80,1.084,5.2,209,4.8,13.6,48.0,1,-0.4,2.99,2.4,0,0,0,1,0,53,-1,-1,50,,,,,,,,,,,,,,,,
45703,1625652233587,,,,,,,,0.09,0.01,1.18,3,-0,0,0.09,,75,1653,9,29,82,1.079,5.2,196,4.8,13.6,48.0,1,-0.4,3.03,2.4,0,0,0,1,0,53,-1,-1,50,,,,,,,,,,,,,,,,
45723,1625652233609,,,,,,,,0.09,0.01,1.18,3,-0,0,0.09,,75,1498,9,29,84,1.072,5.3,185,4.79,13.6,48.0,1,-0.4,1.95,2.4,0,0,0,1,0,53,-1,-1,50,,,,,,,,,,,,,,,,
45743,1625652233629,-1,2,48,51,32,31,19,0.09,0.0,1.15,3,-0,0,0.09,0,75,1375,11,29,87,1.063,5.3,180,4.8,13.5,48.0,1,-0.1,2.02,2.4,0,0,0,1,0,53,-1,-1,51,52.961849,6.523125,4.9,44.5,10,3,1.7,0,0.0,-1,0.0,,0.0,0,0.01,0.7624
45763,1625652233649,,,,,,,,0.08,-0.0,1.13,3,-0,0,0.08,,75,1301,13,29,89,1.055,5.3,175,4.8,13.5,48.0,1,19.9,3.18,2.4,0,0,0,1,0,53,-1,-1,51,,,,,,,,,,,,,,,,
45783,1625652233669,,,,,,,,0.08,0.0,1.14,3,-0,0,0.08,,75,1133,16,29,91,1.047,5.3,168,4.81,13.4,32.0,1,21.3,3.21,1.6,0,0,0,1,0,53,-1,-1,50,,,,,,,,,,,,,,,,
45803,1625652233689,,,,,,,,0.08,-0.0,1.13,3,-0,0,0.08,,75,1133,18,29,95,1.04,5.3,160,4.81,13.4,32.0,1,26.8,2.09,1.6,0,0,0,1,0,53,-1,-1,50,,,,,,,,,,,,,,,,
45823,1625652233709,,,,,,,,0.07,0.0,1.11,3,-0,-0,0.07,,75,963,21,29,97,1.034,5.2,155,4.8,13.2,32.0,1,28.6,2.09,1.6,0,0,0,1,0,53,-1,-1,50,,,,,,,,,,,,,,,,
45843,1625652233729,0,2,48,51,32,31,18,0.07,0.01,1.09,3,-0,0,0.07,0,75,963,26,29,99,1.027,5.2,148,4.77,13.2,32.0,1,30.0,2.09,1.6,0,0,0,1,0,53,-1,-1,50,52.961849,6.523128,4.86,44.9,10,3,1.7,0,0.0,-1,0.0,0.0,0.0,0,0.01,0.764
45863,1625652233749,,,,,,,,0.06,-0.0,1.08,3,0,0,0.06,,75,728,29,29,100,1.021,5.4,142,4.8,13.2,32.0,1,30.0,5.27,1.6,0,0,0,1,0,54,-1,-1,50,,,,,,,,,,,,,,,,
45883,1625652233769,,,,,,,,0.06,0.0,1.07,3,0,0,0.06,,75,728,30,29,100,1.016,5.4,135,4.8,13.3,32.0,1,30.0,5.27,1.7,0,0,0,1,0,54,-1,-1,51,,,,,,,,,,,,,,,,
45903,1625652233789,,,,,,,,0.06,0.01,1.07,3,0,0,0.06,,75,630,30,29,100,1.014,5.3,138,4.8,13.2,33.3,1,30.0,5.27,1.7,0,0,0,1,0,53,-1,-1,51,,,,,,,,,,,,,,,,
45923,1625652233809,,,,,,,,0.05,0.0,1.05,3,0,0,0.05,,75,630,30,29,100,1.013,5.3,140,4.79,13.4,33.3,1,30.0,5.27,1.7,0,0,0,1,0,53,-1,-1,50,,,,,,,,,,,,,,,,
45943,1625652233829,0,2,48,51,32,31,18,0.05,-0.0,1.05,3,0,0,0.05,0,75,862,30,29,100,1.011,5.2,143,4.8,13.2,33.3,1,30.0,5.27,1.7,0,0,0,1,0,52,-1,-1,50,52.961849,6.523131,4.73,45.3,10,3,1.7,0,0.0,-1,0.0,,0.0,0,0.01,0.7657
45963,1625652233849,,,,,,,,0.04,-0.01,1.04,3,-0,0,0.04,,75,1010,30,29,99,1.009,5.2,140,4.78,13.2,33.3,1,30.0,2.09,1.7,0,0,0,1,0,52,-1,-1,50,,,,,,,,,,,,,,,,
45983,1625652233869,,,,,,,,0.04,-0.01,1.02,3,0,0,0.04,,75,1436,30,29,99,1.009,5.2,150,4.8,13.3,33.3,1,33.4,2.09,1.7,0,0,0,1,0,52,-1,-1,50,,,,,,,,,,,,,,,,
46003,1625652233889,,,,,,,,0.03,-0.01,1.02,3,0,0,0.03,,75,1729,30,29,99,1.007,5.2,162,4.75,13.2,68.0,1,34.0,5.14,3.4,0,0,0,1,0,52,-1,-1,49,,,,,,,,,,,,,,,,
46023,1625652233909,,,,,,,,0.07,0.0,1.03,3,1,0,0.07,,75,1929,30,29,99,1.003,5.2,175,4.78,13.0,68.0,1,34.0,2.09,3.4,0,0,0,1,0,53,-1,-1,49,,,,,,,,,,,,,,,,
46043,1625652233929,-1,2,48,51,32,31,18,0.06,-0.0,1.03,3,0,0,0.06,0,75,2064,30,30,98,0.997,5.1,183,4.72,12.5,68.0,1,34.0,5.04,3.4,0,0,0,1,0,53,-1,-1,49,52.961849,6.523132,4.85,45.1,10,3,1.7,0,0.0,-1,0.0,0.0,0.0,0,0.01,0.7674
46063,1625652233949,,,,,,,,0.05,0.01,1.11,3,0,0,0.05,,76,2118,30,30,98,0.987,5.1,186,4.71,12.3,68.0,1,34.0,4.98,3.4,0,0,0,1,0,53,-1,-1,50,,,,,,,,,,,,,,,,
46083,1625652233969,,,,,,,,0.04,0.01,1.07,3,0,-0,0.04,,76,2633,29,30,98,0.978,5.3,210,4.66,12.5,68.0,1,33.3,2.24,3.4,0,0,0,1,0,53,-1,-1,50,,,,,,,,,,,,,,,,
46103,1625652233989,,,,,,,,0.06,0.01,1.08,3,0,-0,0.06,,75,3006,25,30,98,0.974,5.3,243,4.72,13.2,126.0,1,31.0,5.91,6.3,0,0,0,1,0,53,-1,-1,50,,,,,,,,,,,,,,,,
46123,1625652234001,,,,,,,,0.09,0.0,1.07,3,-0,-0,0.09,,75,3252,18,30,96,0.972,5.3,279,4.77,13.5,126.0,1,29.5,2.87,6.3,0,0,0,1,0,52,-1,-1,50,,,,,,,,,,,,,,,,
46143,1625652234021,-1,3,48,51,32,31,17,0.09,0.02,1.02,3,-1,-0,0.09,0,75,3489,11,30,94,0.967,5.3,301,4.83,13.6,126.0,1,0.0,6.35,6.3,0,0,0,1,0,52,-1,-1,51,52.961849,6.523135,4.69,45.3,10,3,1.7,0,0.0,-1,0.0,,0.0,0,0.01,0.769
46163,1625652234041,,,,,,,,0.05,0.02,1.13,3,-1,-0,0.05,,75,3691,7,30,91,0.963,5.5,335,4.75,13.6,126.0,1,0.0,6.02,6.3,0,0,0,1,0,54,-1,-1,51,,,,,,,,,,,,,,,,
46183,1625652234061,,,,,,,,0.03,0.0,1.03,3,0,1,0.03,,75,4170,7,30,89,0.957,5.5,371,4.79,13.6,200.0,1,29.7,5.41,10.4,0,0,0,1,0,54,-1,-1,52,,,,,,,,,,,,,,,,
