"Interval"|"ms"|0|0|1,"Utc"|"ms"|0|0|1,"Brake_F"|"Bar"|0|2000|10,"Brake_R"|"Bar"|0|2000|10,"Height_RF"|"mm"|0|255|10,"Height_LF"|"mm"|0|255|10,"Height_LR"|"mm"|0|80|10,"Height_RR"|"mm"|0|255|10,"Steering"|"deg"|-100|100|10,"AccelX"|"G"|-3.0|3.0|50,"AccelY"|"G"|-3.0|3.0|50,"AccelZ"|"G"|-3.0|3.0|50,"Yaw"|"Deg/Sec"|-120|120|50,"Pitch"|"Deg/Sec"|-120|120|50,"Roll"|"Deg/Sec"|-120|120|50,"Gsum"|"G"|0.0|3.0|50,"Log_Button"|""|0.0|10.0|10,"WaterTemp"|"C"|0|150|50,"RPM"|"tr/min"|0|14000|50,"TPS"|"%"|0|100|50,"AirTemp"|"C"|0|150|50,"MAP"|"KPa"|0|100|50,"Lambda"|""|0.5|1.5|50,"SpeedDTA"|"kph"|0.0|250.0|50,"OilPress"|"KPa"|0|1500|50,"FuelPressur"|"Bar"|0.0|10.0|50,"Batterie"|"V"|0.0|20.0|50,"ConsoKm"|"L/100km"|0.0|200.0|50,"Gear"|""|0|6|50,"AdvIgnition"|"Deg"|-20.0|70.0|50,"Injection"|"ms"|0.0|10.0|50,"ConsoHr"|"L/Hr"|0.0|10000.0|50,"LC_But_Pres"|""|0|1|50,"LC_Active"|""|0|1|50,"TractionOn"|""|0|1|50,"TractionWet"|""|0|1|50,"FanOn"|""|0|1|50,"RD_Speed"|"km/h"|-30|250|50,"RUD_Speed"|"km/h"|-30|250|50,"LD_Speed"|"km/h"|-30|250|50,"LUD_Speed"|"km/h"|-30|250|50,"Latitude"|"Degrees"|-180.0|180.0|10,"Longitude"|"Degrees"|-180.0|180.0|10,"Speed"|"kph"|0.0|150.0|10,"Altitude"|"m"|0.0|4000.0|10,"GPSSats"|""|0|20|10,"GPSQual"|""|0|5|10,"GPSDOP"|""|0.0|20.0|10,"LapCount"|""|0|0|10,"LapTime"|"Min"|0.0|0.0|10,"Sector"|""|0|0|10,"SectorTime"|"Min"|0.0|0.0|10,"PredTime"|"Min"|0.0|0.0|5,"ElapsedTime"|"Min"|0.0|0.0|10,"CurrentLap"|""|0|0|10,"Distance"|"km"|0.0|0.0|10,"SessionTime"|"Min"|0.0|0.0|10
35064,1625651317043,,,,,,,,0.21,0.04,2.15,-0,-5,-7,0.21,,79,6558,13,30,68,0.632,0.0,606,4.88,13.9,0.0,1,38.4,3.41,10.3,0,0,0,1,0,0,250,250,0,,,,,,,,,,,,,,,,
35084,1625651317063,,,,,,,,0.25,0.03,2.31,-0,-6,-7,0.26,,79,6918,13,30,66,0.63,0.0,637,4.75,13.8,0.0,1,39.5,3.16,10.3,0,0,0,1,0,0,250,250,0,,,,,,,,,,,,,,,,
35104,1625651317091,,,,,,,,0.21,0.06,2.11,-0,-4,-5,0.22,,80,7104,13,30,65,0.629,0.0,646,4.79,13.7,0.0,1,39.5,3.05,10.3,0,0,0,1,0,0,250,250,0,,,,,,,,,,,,,,,,
35124,1625651317111,,,,,,,,0.17,0.04,1.94,0,-2,-3,0.17,,80,7352,13,30,63,0.627,0.0,652,4.77,13.7,0.0,1,38.6,1.68,10.3,0,0,0,1,0,0,250,250,0,,,,,,,,,,,,,,,,
35144,1625651317131,0,2,46,48,32,31,7,0.12,0.03,1.78,0,0,0,0.12,1,80,7603,13,30,62,0.626,0.0,652,4.81,13.7,0.0,1,38.1,2.65,10.3,0,0,0,1,0,0,250,250,0,52.961891,6.523255,0.0,20.6,10,3,1.9,0,0.0,-1,0.0,,0.0,0,0.01,0.5857
35164,1625651317151,,,,,,,,0.11,0.03,1.63,0,1,1,0.12,,79,7819,13,30,60,0.625,0.0,654,4.74,13.8,0.0,1,37.7,2.5,10.3,0,0,0,1,0,0,250,250,0,,,,,,,,,,,,,,,,
35184,1625651317171,,,,,,,,0.15,-0.01,1.82,-0,-1,-3,0.15,,80,8016,13,30,58,0.623,0.0,667,4.8,13.9,0.0,1,37.5,1.39,9.0,0,0,0,1,0,0,250,250,0,,,,,,,,,,,,,,,,
35204,1625651317191,,,,,,,,0.11,-0.04,1.67,0,-1,-1,0.12,,79,8223,12,30,56,0.621,0.0,661,4.84,13.8,0.0,1,39.0,2.75,9.0,0,0,0,1,0,0,250,250,0,,,,,,,,,,,,,,,,
35224,1625651317211,,,,,,,,0.09,-0.05,1.69,-0,-1,-2,0.1,,79,8507,12,30,53,0.621,0.0,672,4.76,13.8,0.0,1,38.7,3.08,9.0,0,0,0,1,0,0,250,250,0,,,,,,,,,,,,,,,,
35244,1625651317231,-1,2,46,48,32,32,6,0.09,-0.05,1.67,-0,-1,-3,0.11,1,80,8794,12,30,50,0.619,0.0,682,4.83,13.8,0.0,1,38.0,3.06,9.0,0,0,0,1,0,0,250,250,0,52.961891,6.523255,0.0,20.6,10,3,1.9,0,0.0,-1,0.0,0.0,0.0,0,0.01,0.5874
35264,1625651317251,,,,,,,,0.1,-0.1,1.55,0,-1,-4,0.14,,80,9001,12,30,47,0.616,0.0,678,4.75,13.8,0.0,1,37.0,2.97,12.4,0,0,0,1,0,0,250,250,0,,,,,,,,,,,,,,,,
35284,1625651317271,,,,,,,,0.08,-0.11,1.45,-0,-0,-5,0.13,,80,9204,11,30,45,0.614,0.0,685,4.75,13.8,0.0,1,36.0,2.92,12.4,0,0,0,1,0,0,250,250,0,,,,,,,,,,,,,,,,
35304,1625651317291,,,,,,,,0.04,-0.2,1.41,-0,0,-6,0.2,,80,9351,10,30,43,0.616,0.0,686,4.86,13.8,0.0,1,34.8,2.88,12.4,0,0,0,1,0,0,250,250,0,,,,,,,,,,,,,,,,
35324,1625651317311,,,,,,,,0.01,-0.18,1.3,-0,1,-4,0.18,,80,9417,10,30,40,0.62,0.0,687,4.8,13.7,0.0,1,32.7,2.79,12.4,0,0,0,1,0,0,250,250,0,,,,,,,,,,,,,,,,
35344,1625651317331,-1,2,45,48,32,32,6,0.06,-0.06,1.19,0,1,-1,0.09,0,80,9407,10,30,38,0.622,0.0,691,4.66,13.6,0.0,1,31.7,1.61,12.4,0,0,0,1,0,0,250,250,0,52.961891,6.523255,0.0,20.6,10,3,1.9,0,0.0,-1,0.0,,0.0,0,0.01,0.5891
35364,1625651317351,,,,,,,,0.06,-0.1,1.33,0,0,-3,0.11,,80,9333,10,30,36,0.624,0.0,688,4.75,13.8,0.0,1,31.1,1.53,12.4,0,0,0,1,0,0,250,250,0,,,,,,,,,,,,,,,,
35384,1625651317371,,,,,,,,0.02,-0.15,1.55,-0,-1,-6,0.16,,80,9200,10,30,36,0.626,0.0,686,4.73,13.7,0.0,1,31.1,2.62,11.4,0,0,0,1,0,0,250,250,0,,,,,,,,,,,,,,,,
35404,1625651317391,,,,,,,,-0.01,-0.11,1.49,-0,-2,-9,0.11,,80,8945,10,30,35,0.627,0.0,678,4.82,13.8,0.0,1,30.8,1.44,11.4,0,0,0,1,0,0,250,250,0,,,,,,,,,,,,,,,,
35424,1625651317410,,,,,,,,0.01,-0.14,1.7,-1,-4,-12,0.14,,80,8684,10,30,36,0.629,0.0,678,4.75,13.6,0.0,1,31.1,1.49,11.4,0,0,0,1,0,0,250,250,0,,,,,,,,,,,,,,,,
35444,1625651317430,1,1,46,48,32,32,7,0.04,-0.19,1.8,-0,-2,-8,0.19,0,80,8415,10,30,36,0.632,0.0,674,4.81,13.6,0.0,1,30.9,2.56,11.4,0,0,0,1,0,0,250,250,0,52.961891,6.523255,0.0,20.6,10,3,1.9,0,0.0,-1,0.0,0.0,0.0,0,0.01,0.5907
35464,1625651317450,,,,,,,,0.01,-0.18,1.65,-0,-3,-8,0.18,,80,8194,10,30,36,0.633,0.0,669,4.79,13.9,0.0,1,30.4,1.2,11.4,0,0,0,1,0,0,250,250,0,,,,,,,,,,,,,,,,
35484,1625651317470,,,,,,,,0.0,-0.11,1.51,-0,0,-3,0.11,,80,7975,10,30,36,0.634,0.0,665,4.8,13.7,0.0,1,30.1,1.01,8.8,0,0,0,1,0,0,250,250,0,,,,,,,,,,,,,,,,
35504,1625651317490,,,,,,,,0.05,-0.13,1.72,0,2,-0,0.14,,80,7706,9,30,37,0.635,0.0,660,4.79,13.7,0.0,1,30.4,2.18,8.8,0,0,0,1,0,0,250,250,0,,,,,,,,,,,,,,,,
35524,1625651317510,,,,,,,,0.11,-0.18,1.89,0,3,0,0.21,,80,7473,9,30,38,0.636,0.0,660,4.77,13.8,0.0,1,30.7,2.23,8.8,0,0,0,1,0,0,250,250,0,,,,,,,,,,,,,,,,
35544,1625651317530,1,2,46,48,32,31,7,0.11,-0.15,1.86,0,4,1,0.19,0,80,7287,10,30,39,0.636,0.0,650,4.82,13.8,0.0,1,31.0,1.17,8.8,0,0,0,1,0,0,250,250,0,52.961891,6.523255,0.0,20.6,10,3,1.9,0,0.0,-1,0.0,,0.0,0,0.01,0.5924
35564,1625651317550,,,,,,,,0.06,-0.13,1.71,0,3,2,0.14,,80,7110,10,30,40,0.633,0.0,652,4.84,13.8,0.0,1,31.3,2.29,7.5,0,0,0,1,0,0,250,250,0,,,,,,,,,,,,,,,,
35584,1625651317570,,,,,,,,0.09,-0.12,1.82,0,1,-1,0.15,,80,7009,10,30,40,0.631,0.0,656,4.82,13.9,0.0,1,31.3,2.29,7.5,0,0,0,1,0,0,250,250,0,,,,,,,,,,,,,,,,
35604,1625651317590,,,,,,,,0.1,-0.14,1.89,0,3,1,0.18,,80,6985,9,30,40,0.629,0.0,647,4.78,13.8,0.0,1,31.2,2.29,7.5,0,0,0,1,0,0,250,250,0,,,,,,,,,,,,,,,,
35624,1625651317610,,,,,,,,0.05,-0.12,1.73,0,2,1,0.13,,80,6975,10,29,41,0.626,0.0,645,4.82,13.8,0.0,1,31.5,2.29,7.5,0,0,0,1,0,0,250,250,0,,,,,,,,,,,,,,,,
35644,1625651317630,1,2,45,48,32,32,6,0.09,-0.14,1.92,0,1,-1,0.17,0,80,6949,10,29,41,0.625,0.0,650,4.8,13.8,0.0,1,31.4,2.29,7.5,0,0,0,1,0,0,250,250,0,52.961891,6.523255,0.0,20.6,10,3,1.9,0,0.0,-1,0.0,0.0,0.0,0,0.01,0.5941
35664,1625651317650,,,,,,,,0.06,-0.09,1.76,0,3,2,0.11,,80,6900,10,29,41,0.624,0.0,632,4.76,13.8,0.0,1,31.3,1.16,7.5,0,0,0,1,0,0,250,250,0,,,,,,,,,,,,,,,,
35684,1625651317670,,,,,,,,0.05,-0.12,1.65,0,1,-0,0.13,,80,6906,9,29,42,0.623,0.0,638,4.81,13.9,0.0,1,31.6,1.15,7.3,0,0,0,1,0,0,250,250,0,,,,,,,,,,,,,,,,
35704,1625651317690,,,,,,,,0.09,-0.08,1.83,0,2,0,0.12,,80,6883,10,29,42,0.622,0.0,641,4.75,13.7,0.0,1,31.6,2.29,7.3,0,0,0,1,0,0,250,250,0,,,,,,,,,,,,,,,,
35724,1625651317708,,,,,,,,0.0,-0.1,1.68,0,2,0,0.1,,80,6878,9,29,42,0.623,0.0,636,4.86,13.9,0.0,1,31.6,1.16,7.3,0,0,0,1,0,0,250,250,0,,,,,,,,,,,,,,,,
35744,1625651317728,-1,2,46,48,32,32,6,0.07,-0.09,1.87,0,0,-1,0.11,0,80,6845,10,29,42,0.622,0.0,639,4.79,13.9,0.0,1,31.6,2.29,7.3,0,0,0,1,0,0,250,250,0,52.961891,6.523255,0.0,20.6,10,3,1.9,0,0.0,-1,0.0,,0.0,0,0.01,0.5957
35764,1625651317748,,,,,,,,-0.0,-0.06,1.72,0,2,1,0.06,,80,6828,9,29,43,0.621,0.0,638,4.79,13.8,0.0,1,31.9,1.15,7.3,0,0,0,1,0,0,250,250,0,,,,,,,,,,,,,,,,
35784,1625651317768,,,,,,,,0.04,-0.09,1.9,0,-0,-1,0.1,,80,6860,10,29,43,0.621,0.0,643,4.85,13.9,0.0,1,31.9,1.15,7.2,0,0,0,1,0,0,250,250,0,,,,,,,,,,,,,,,,
35804,1625651317788,,,,,,,,0.01,-0.05,1.75,0,2,1,0.05,,80,6820,9,29,43,0.621,0.0,640,4.78,13.8,0.0,1,31.8,1.15,7.2,0,0,0,1,0,0,250,250,0,,,,,,,,,,,,,,,,
35824,1625651317810,,,,,,,,0.04,-0.08,1.73,0,-1,-1,0.09,,80,6828,10,29,43,0.622,0.0,645,4.83,13.9,0.0,1,31.8,2.28,7.2,0,0,0,1,0,0,250,250,0,,,,,,,,,,,,,,,,
35844,1625651317830,1,3,46,48,32,31,6,0.05,-0.02,1.74,0,2,2,0.05,0,80,6778,10,29,43,0.621,0.0,649,4.77,13.7,0.0,1,31.8,2.28,7.2,0,0,0,1,0,0,250,250,0,52.961891,6.523255,0.0,20.6,10,3,1.9,0,0.0,-1,0.0,0.0,0.0,0,0.01,0.5974
35864,1625651317850,,,,,,,,0.03,-0.04,1.6,0,-0,-0,0.04,,80,6833,11,29,44,0.622,0.0,638,4.85,13.9,0.0,1,32.1,2.27,7.1,0,0,0,1,0,0,250,250,0,,,,,,,,,,,,,,,,
35884,1625651317870,,,,,,,,0.07,-0.01,1.8,0,1,0,0.07,,80,6875,12,29,45,0.623,0.0,640,4.75,13.9,0.0,1,32.5,2.27,7.1,0,0,0,1,0,0,250,250,0,,,,,,,,,,,,,,,,
35904,1625651317892,,,,,,,,0.0,-0.01,1.65,0,1,1,0.01,,80,6916,12,29,46,0.623,0.0,640,4.82,13.8,0.0,1,32.9,2.25,7.1,0,0,0,1,0,0,250,250,0,,,,,,,,,,,,,,,,
35924,1625651317912,,,,,,,,0.04,-0.02,1.83,0,-1,-1,0.04,,80,6962,12,29,47,0.623,0.0,644,4.8,13.9,0.0,1,33.3,1.11,7.1,0,0,0,1,0,0,250,250,0,,,,,,,,,,,,,,,,
35944,1625651317932,1,2,45,48,32,32,6,0.05,-0.0,1.87,0,0,0,0.05,0,80,7022,13,29,48,0.622,0.0,639,4.76,13.8,0.0,1,33.7,2.23,7.1,0,0,0,1,0,0,250,250,0,52.961891,6.523255,0.0,20.6,10,3,1.9,0,0.0,-1,0.0,,0.0,0,0.01,0.5991
35964,1625651317952,,,,,,,,0.0,-0.01,1.71,0,2,2,0.01,,80,7126,13,29,49,0.622,0.0,643,4.76,13.8,0.0,1,34.4,2.24,7.3,0,0,0,1,0,0,250,250,0,,,,,,,,,,,,,,,,
35984,1625651317972,,,,,,,,-0.03,-0.01,1.57,0,1,1,0.03,,80,7211,13,29,50,0.623,0.0,641,4.83,13.9,0.0,1,34.9,2.26,7.3,0,0,0,1,0,0,250,250,0,,,,,,,,,,,,,,,,
36004,1625651317992,,,,,,,,-0.02,0.02,1.63,0,-1,-1,0.03,,80,7307,11,29,50,0.622,0.0,647,4.73,13.9,0.0,1,35.1,1.16,7.3,0,0,0,1,0,0,250,250,0,,,,,,,,,,,,,,,,
36024,1625651318004,,,,,,,,-0.0,-0.01,1.7,0,-2,-2,0.01,,80,7402,8,29,49,0.622,0.0,650,4.82,13.9,0.0,1,35.0,2.29,7.3,0,0,0,1,0,0,250,250,0,,,,,,,,,,,,,,,,
36044,1625651318024,4,4,46,48,32,32,7,0.02,-0.02,1.78,0,-3,-4,0.03,0,80,7470,7,29,47,0.621,0.0,655,4.72,13.8,0.0,1,34.9,2.29,7.3,0,0,0,1,0,0,250,250,0,52.961891,6.523255,0.0,20.6,10,3,1.9,0,0.0,-1,0.0,0.0,0.0,0,0.01,0.6007
36064,1625651318044,,,,,,,,0.02,-0.0,1.91,0,-5,-7,0.02,,80,7545,7,29,45,0.621,0.0,653,4.78,13.9,0.0,1,34.0,2.3,8.0,0,0,0,1,0,0,250,250,0,,,,,,,,,,,,,,,,
36084,1625651318064,,,,,,,,0.01,0.0,2.03,0,-6,-8,0.01,,80,7584,7,29,43,0.62,0.0,653,4.8,13.9,0.0,1,33.1,2.3,8.0,0,0,0,1,0,0,250,250,0,,,,,,,,,,,,,,,,
36104,1625651318084,,,,,,,,-0.01,0.01,1.89,0,-7,-8,0.01,,80,7557,7,29,43,0.62,0.0,661,4.94,13.9,0.0,1,33.0,1.17,8.0,0,0,0,1,0,0,250,250,0,,,,,,,,,,,,,,,,
36124,1625651318110,,,,,,,,-0.02,0.03,1.74,0,-7,-8,0.03,,80,7551,7,29,41,0.619,0.0,656,4.8,13.9,0.0,1,32.0,2.3,8.0,0,0,0,1,0,0,250,250,0,,,,,,,,,,,,,,,,
36144,1625651318130,6,6,45,49,32,32,6,-0.04,0.04,1.59,0,-8,-9,0.05,0,80,7500,7,29,40,0.618,0.0,660,4.88,13.9,0.0,1,31.5,1.17,8.0,0,0,0,1,0,0,250,250,0,52.961891,6.523255,0.0,20.6,10,3,1.5,0,0.0,-1,0.0,,0.0,0,0.01,0.6024
36164,1625651318150,,,,,,,,-0.04,0.06,1.59,0,-8,-10,0.07,,80,7479,7,29,39,0.619,0.0,653,4.83,13.9,0.0,1,31.0,2.3,7.9,0,0,0,1,0,0,250,250,0,,,,,,,,,,,,,,,,
36184,1625651318170,,,,,,,,-0.03,0.04,1.58,0,-9,-10,0.05,,80,7390,7,29,39,0.618,0.0,662,4.86,13.9,0.0,1,31.0,1.17,7.9,0,0,0,1,0,0,250,250,0,,,,,,,,,,,,,,,,
36204,1625651318190,,,,,,,,0.01,0.01,1.72,0,-9,-11,0.01,,80,7298,7,29,38,0.618,0.0,658,4.7,13.8,0.0,1,30.7,1.11,7.9,0,0,0,1,0,0,250,250,0,,,,,,,,,,,,,,,,
36224,1625651318210,,,,,,,,0.05,0.02,1.91,0,-9,-11,0.05,,80,7275,7,29,37,0.617,0.0,660,4.76,13.7,0.0,1,30.4,2.19,7.9,0,0,0,1,0,0,250,250,0,,,,,,,,,,,,,,,,
36244,1625651318230,8,4,46,48,32,32,6,0.03,-0.02,1.77,0,-7,-8,0.03,0,80,7194,7,29,37,0.617,0.0,647,4.78,13.8,0.0,1,30.4,1.06,7.9,0,0,0,1,0,0,250,250,0,52.961891,6.523255,0.0,20.6,10,3,1.5,0,0.0,-1,0.0,0.0,0.0,0,0.01,0.6041
36264,1625651318250,,,,,,,,-0.01,0.02,1.63,0,-5,-7,0.02,,80,7161,7,29,37,0.612,0.0,645,4.83,13.8,0.0,1,30.4,2.19,7.2,0,0,0,1,0,0,250,250,0,,,,,,,,,,,,,,,,
36284,1625651318270,,,,,,,,0.02,0.01,1.77,0,-7,-8,0.02,,80,7064,7,29,37,0.609,0.0,648,4.78,13.9,0.0,1,30.4,1.06,7.2,0,0,0,1,0,0,250,250,0,,,,,,,,,,,,,,,,
36304,1625651318290,,,,,,,,0.05,0.0,1.85,0,-6,-7,0.05,,80,7006,7,29,37,0.603,0.0,645,4.75,13.7,0.0,1,30.4,2.19,7.2,0,0,0,1,0,0,250,250,0,,,,,,,,,,,,,,,,
36324,1625651318310,,,,,,,,-0.03,0.02,1.7,0,-4,-5,0.03,,80,6944,7,29,37,0.598,0.0,644,4.82,13.9,0.0,1,30.3,1.06,7.2,0,0,0,1,0,0,250,250,0,,,,,,,,,,,,,,,,
36344,1625651318330,8,4,46,48,32,31,7,0.04,0.01,1.89,0,-5,-6,0.04,0,80,6815,7,29,37,0.614,0.0,636,4.82,14.0,0.0,1,30.1,2.19,7.2,0,0,0,1,0,0,250,250,0,52.961891,6.523255,0.0,20.6,10,3,1.5,0,0.0,-1,0.0,,0.0,0,0.01,0.6057
36364,1625651318350,,,,,,,,-0.05,-0.02,1.73,0,-2,-4,0.06,,80,6747,7,29,37,0.634,0.0,635,4.76,13.8,0.0,1,30.0,2.19,6.8,0,0,0,1,0,0,250,250,0,,,,,,,,,,,,,,,,
36384,1625651318370,,,,,,,,0.04,0.0,1.92,0,-5,-5,0.04,,80,6674,7,29,37,0.647,0.0,636,4.77,13.9,0.0,1,30.0,2.19,6.8,0,0,0,1,0,0,250,250,0,,,,,,,,,,,,,,,,
36404,1625651318390,,,,,,,,-0.05,-0.0,1.76,0,-3,-4,0.05,,80,6581,7,29,37,0.666,0.0,634,4.81,13.9,0.0,1,29.9,1.06,6.8,0,0,0,1,0,0,250,250,0,,,,,,,,,,,,,,,,
36424,1625651318409,,,,,,,,-0.05,-0.01,1.62,0,0,-1,0.05,,80,6423,7,29,37,0.689,0.0,636,4.72,13.9,0.0,1,29.8,2.19,6.8,0,0,0,1,0,0,250,250,0,,,,,,,,,,,,,,,,
36444,1625651318429,7,6,46,48,32,32,6,0.05,-0.01,1.81,0,-3,-3,0.05,0,80,6351,7,29,37,0.704,0.0,624,4.73,13.8,0.0,1,29.7,2.19,6.8,0,0,0,1,0,0,250,250,0,52.961891,6.523255,0.0,20.6,10,3,1.5,0,0.0,-1,0.0,0.0,0.0,0,0.01,0.6074
36464,1625651318449,,,,,,,,0.1,-0.02,2.0,0,-6,-6,0.1,,80,6256,7,29,37,0.728,0.0,609,4.81,14.0,0.0,1,29.6,2.19,6.3,0,0,0,1,0,0,250,250,0,,,,,,,,,,,,,,,,
36484,1625651318469,,,,,,,,0.1,-0.03,1.95,0,-9,-9,0.11,,80,6089,7,29,38,0.746,0.0,599,4.85,14.0,0.0,1,29.6,2.24,6.3,0,0,0,1,0,0,250,250,0,,,,,,,,,,,,,,,,
36504,1625651318489,,,,,,,,0.12,-0.03,2.05,0,-12,-12,0.12,,80,5952,7,29,39,0.761,0.0,586,4.84,14.0,0.0,1,29.6,2.32,6.3,0,0,0,1,0,0,250,250,0,,,,,,,,,,,,,,,,
36524,1625651318509,,,,,,,,0.18,-0.05,2.21,-0,-17,-16,0.19,,80,5769,7,29,40,0.793,0.0,571,4.85,14.0,0.0,1,29.4,2.38,6.3,0,0,0,1,0,0,250,250,0,,,,,,,,,,,,,,,,
36544,1625651318529,6,6,45,48,32,32,6,0.19,-0.03,2.36,0,-15,-14,0.19,0,80,5583,7,29,41,0.814,0.0,566,4.78,13.8,0.0,1,29.1,2.46,6.3,0,0,0,1,0,0,250,250,0,52.961891,6.523255,0.0,20.6,10,3,1.5,0,0.0,-1,0.0,,0.0,0,0.01,0.6091
36564,1625651318549,,,,,,,,0.04,-0.06,2.16,0,-6,-7,0.07,,80,5403,7,29,42,0.849,0.0,544,4.75,13.8,0.0,1,29.0,2.53,6.3,0,0,0,1,0,0,250,250,0,,,,,,,,,,,,,,,,
36584,1625651318569,,,,,,,,0.16,-0.04,2.32,-0,-13,-15,0.16,,80,5266,7,29,43,0.865,0.0,530,4.85,14.0,0.0,1,29.0,2.62,6.3,0,0,0,1,0,0,250,250,0,,,,,,,,,,,,,,,,
36604,1625651318589,,,,,,,,0.08,-0.05,2.12,-0,-5,-6,0.09,,80,5138,7,29,44,0.869,0.0,510,4.8,13.9,0.0,1,29.0,1.56,6.3,0,0,0,1,0,0,250,250,0,,,,,,,,,,,,,,,,
36624,1625651318609,,,,,,,,0.12,0.0,2.28,-0,-11,-10,0.12,,80,4957,7,29,45,0.874,0.0,501,4.77,13.8,0.0,1,28.4,2.73,6.3,0,0,0,1,0,0,250,250,0,,,,,,,,,,,,,,,,
36644,1625651318629,6,6,46,48,32,31,6,0.14,-0.03,2.09,-0,-9,-9,0.14,0,80,4828,7,29,46,0.877,0.0,483,4.83,14.0,0.0,1,27.2,2.67,6.3,0,0,0,1,0,0,250,250,0,52.961891,6.523255,0.0,20.6,10,3,1.5,0,0.0,-1,0.0,0.0,0.0,0,0.01,0.6107
36664,1625651318649,,,,,,,,0.16,-0.09,1.91,-0,-8,-8,0.18,,80,4734,7,29,47,0.881,0.0,455,4.79,14.0,0.0,1,26.4,2.66,5.8,0,0,0,1,0,0,250,250,0,,,,,,,,,,,,,,,,
36684,1625651318669,,,,,,,,0.13,-0.1,1.75,-0,-5,-5,0.16,,80,4654,7,29,47,0.888,0.0,445,4.83,14.0,0.0,1,25.4,1.49,5.8,0,0,0,1,0,0,250,250,0,,,,,,,,,,,,,,,,
36704,1625651318689,,,,,,,,0.11,-0.11,1.61,0,-2,-2,0.15,,80,4516,8,29,48,0.894,0.0,440,4.77,14.0,0.0,1,23.9,2.55,5.8,0,0,0,1,0,0,250,250,0,,,,,,,,,,,,,,,,
36724,1625651318710,,,,,,,,0.1,-0.12,1.47,0,-1,-1,0.15,,80,4395,10,29,50,0.9,0.0,418,4.8,14.1,0.0,1,23.1,2.48,5.8,0,0,0,1,0,0,250,250,0,,,,,,,,,,,,,,,,
36744,1625651318730,7,4,46,48,32,32,6,0.12,-0.15,1.35,0,-0,-1,0.19,0,80,4297,16,29,53,0.908,0.0,408,4.83,14.0,0.0,1,22.7,2.43,5.8,0,0,0,1,0,0,250,250,0,52.961891,6.523255,0.0,20.6,10,3,1.5,0,0.0,-1,0.0,,0.0,0,0.01,0.6124
36764,1625651318750,,,,,,,,0.14,-0.17,1.24,0,0,-1,0.22,,80,4375,22,29,59,0.915,0.0,401,4.77,14.0,0.0,1,25.2,1.42,5.8,0,0,0,1,0,0,250,250,0,,,,,,,,,,,,,,,,
36784,1625651318770,,,,,,,,0.16,-0.17,1.13,0,0,-2,0.23,,80,4512,26,29,68,0.923,0.0,405,4.81,14.0,0.0,1,29.5,4.79,8.0,0,0,0,1,0,0,250,250,0,,,,,,,,,,,,,,,,
36804,1625651318790,,,,,,,,0.16,-0.17,1.04,0,1,-1,0.23,,80,4665,27,29,76,0.927,0.0,422,4.78,14.0,0.0,1,33.6,5.25,8.0,0,0,0,1,0,0,250,250,0,,,,,,,,,,,,,,,,
36824,1625651318809,,,,,,,,0.11,-0.17,0.95,0,4,2,0.2,,80,4851,28,29,83,0.933,0.0,428,4.76,13.9,0.0,1,38.3,2.51,8.0,0,0,0,1,0,0,250,250,0,,,,,,,,,,,,,,,,
36844,1625651318829,7,4,46,48,32,32,6,0.1,-0.1,1.21,0,2,0,0.14,0,80,5173,29,29,87,0.943,0.0,463,4.77,13.7,0.0,1,41.4,2.71,8.0,0,0,0,1,0,0,250,250,0,52.961891,6.523255,0.0,20.6,10,3,1.5,0,0.0,-1,0.0,0.0,0.0,0,0.01,0.6141
36864,1625651318849,,,,,,,,-0.01,-0.13,1.1,0,6,3,0.13,,80,5484,29,29,90,0.952,0.0,493,4.8,14.0,0.0,1,41.3,7.31,18.6,0,0,0,1,0,0,250,250,0,,,,,,,,,,,,,,,,
36884,1625651318869,,,,,,,,0.08,-0.1,1.35,-1,1,-4,0.13,,80,5933,29,29,90,0.96,0.0,526,4.77,14.0,0.0,1,40.0,3.75,18.6,0,0,0,1,0,0,250,250,0,,,,,,,,,,,,,,,,
36904,1625651318889,,,,,,,,-0.02,-0.12,1.23,-0,4,-2,0.12,,80,6427,25,29,89,0.968,0.0,565,4.79,13.9,0.0,1,43.6,3.39,18.6,0,0,0,1,0,0,250,250,0,,,,,,,,,,,,,,,,
36924,1625651318909,,,,,,,,0.01,-0.14,1.45,-0,2,-3,0.14,,80,7064,16,29,85,0.965,0.0,611,4.79,13.9,0.0,1,46.2,2.96,18.6,0,0,0,1,0,0,250,250,0,,,,,,,,,,,,,,,,
36944,1625651318929,6,5,46,48,32,32,6,0.03,-0.18,1.64,-0,1,-4,0.18,0,80,7512,8,29,79,0.963,0.0,649,4.68,13.8,0.0,1,40.8,6.93,18.6,0,0,0,1,0,0,250,250,0,52.961891,6.523255,0.0,20.6,10,3,1.5,0,0.0,-1,0.0,,0.0,0,0.01,0.6157
36964,1625651318949,,,,,,,,0.05,-0.16,1.84,-0,-1,-6,0.17,,80,7518,7,29,72,0.96,0.0,653,4.77,13.9,0.0,1,40.2,3.76,13.1,0,0,0,1,0,0,250,250,0,,,,,,,,,,,,,,,,
36984,1625651318969,,,,,,,,0.07,-0.14,2.02,-0,-2,-7,0.16,,80,7600,7,29,67,0.959,0.0,653,4.7,13.9,0.0,1,39.1,2.26,13.1,0,0,0,1,0,0,250,250,0,,,,,,,,,,,,,,,,
37004,1625651318989,,,,,,,,0.03,-0.1,1.85,-0,-2,-5,0.11,,80,7706,7,29,61,0.959,0.0,653,4.8,13.9,0.0,1,37.9,2.48,13.1,0,0,0,1,0,0,250,250,0,,,,,,,,,,,,,,,,
37024,1625651319001,,,,,,,,-0.02,-0.04,1.7,-0,1,-2,0.04,,80,7868,7,29,57,0.958,0.0,655,4.87,13.8,0.0,1,37.2,1.34,13.1,0,0,0,1,0,0,250,250,0,,,,,,,,,,,,,,,,
37044,1625651319021,7,5,46,48,32,32,6,-0.02,-0.05,1.55,-0,2,0,0.06,0,80,7835,7,30,54,0.958,0.0,656,4.88,13.8,0.0,1,36.9,2.43,13.1,0,0,0,1,0,0,250,250,0,52.961891,6.523255,0.0,20.6,10,3,1.5,0,0.0,-1,0.0,0.0,0.0,0,0.01,0.6174
37064,1625651319041,,,,,,,,0.04,-0.12,1.68,-0,1,-1,0.12,,80,7789,7,30,50,0.958,0.0,656,4.69,13.7,0.0,1,36.2,2.36,13.1,0,0,0,1,0,0,250,250,0,,,,,,,,,,,,,,,,
37084,1625651319061,,,,,,,,0.06,-0.14,1.88,-0,-1,-3,0.16,,80,7918,7,30,47,0.944,0.0,660,4.78,13.9,0.0,1,36.3,2.34,8.5,0,0,0,1,0,0,250,250,0,,,,,,,,,,,,,,,,
37104,1625651319081,,,,,,,,0.0,-0.12,1.72,-0,1,0,0.12,,80,8040,7,30,44,0.928,0.0,664,4.88,13.8,0.0,1,34.5,1.25,8.5,0,0,0,1,0,0,250,250,0,,,,,,,,,,,,,,,,
37124,1625651319101,,,,,,,,0.02,-0.13,1.65,0,1,-0,0.13,,80,7968,7,30,42,0.917,0.0,667,4.8,13.8,0.0,1,33.0,2.31,8.5,0,0,0,1,0,0,250,250,0,,,,,,,,,,,,,,,,
37144,1625651319103,6,5,46,48,32,32,6,0.06,-0.18,1.84,-0,-1,-3,0.19,0,80,7928,7,30,40,0.902,0.0,665,4.72,13.8,0.0,1,31.6,2.29,8.5,0,0,0,1,0,0,250,250,0,52.961891,6.523255,0.0,20.6,10,3,1.5,0,0.0,-1,0.0,,0.0,0,0.01,0.6191
37164,1625651319123,,,,,,,,0.02,-0.16,1.69,-0,1,-1,0.16,,80,7822,7,30,38,0.891,0.0,660,4.81,13.9,0.0,1,30.7,2.23,8.0,0,0,0,1,0,0,250,250,0,,,,,,,,,,,,,,,,
37184,1625651319143,,,,,,,,-0.03,-0.09,1.55,0,3,2,0.1,,80,7678,7,30,37,0.88,0.0,661,4.81,13.8,0.0,1,30.4,2.18,8.0,0,0,0,1,0,0,250,250,0,,,,,,,,,,,,,,,,
37204,1625651319163,,,,,,,,-0.08,-0.01,1.42,0,4,3,0.08,,80,7515,7,30,37,0.874,0.0,650,4.73,13.8,0.0,1,30.4,1.06,8.0,0,0,0,1,0,0,250,250,0,,,,,,,,,,,,,,,,
37224,1625651319209,,,,,,,,-0.1,-0.02,1.3,0,5,4,0.1,,80,7312,7,30,37,0.863,0.0,648,4.81,13.8,0.0,1,30.4,2.18,8.0,0,0,0,1,0,0,250,250,0,,,,,,,,,,,,,,,,
37244,1625651319229,6,5,46,48,32,31,7,-0.06,-0.03,1.46,0,3,3,0.06,0,80,7121,7,30,37,0.855,0.0,645,4.81,14.0,0.0,1,30.4,2.18,8.0,0,0,0,1,0,0,250,250,0,52.961891,6.523255,0.0,20.6,10,3,1.5,0,0.0,-1,0.0,0.0,0.0,0,0.01,0.6207
37264,1625651319249,,,,,,,,-0.03,-0.07,1.59,0,2,2,0.07,,80,6998,7,30,37,0.843,0.0,645,4.83,13.9,0.0,1,30.3,2.18,8.0,0,0,0,1,0,0,250,250,0,,,,,,,,,,,,,,,,
37284,1625651319269,,,,,,,,-0.08,-0.04,1.45,0,4,3,0.09,,80,6906,7,30,37,0.831,0.0,638,4.78,13.9,0.0,1,30.2,2.18,7.0,0,0,0,1,0,0,250,250,0,,,,,,,,,,,,,,,,
37304,1625651319289,,,,,,,,-0.0,-0.07,1.66,0,1,1,0.07,,80,6786,7,30,37,0.818,0.0,642,4.8,13.8,0.0,1,30.1,1.06,7.0,0,0,0,1,0,0,250,250,0,,,,,,,,,,,,,,,,
37324,1625651319309,,,,,,,,-0.08,-0.02,1.53,0,4,3,0.08,,80,6679,7,30,37,0.813,0.0,635,4.77,13.7,0.0,1,30.0,1.06,7.0,0,0,0,1,0,0,250,250,0,,,,,,,,,,,,,,,,
37344,1625651319329,6,5,46,49,32,32,6,-0.01,-0.03,1.73,0,1,2,0.03,0,80,6613,7,30,37,0.816,0.0,636,4.77,13.8,0.0,1,29.9,1.06,7.0,0,0,0,1,0,0,250,250,0,52.961891,6.523255,0.0,20.6,10,3,1.5,0,0.0,-1,0.0,,0.0,0,0.01,0.6224
37364,1625651319349,,,,,,,,0.04,-0.02,1.85,0,-0,0,0.04,,80,6521,7,30,37,0.822,0.0,638,4.83,13.9,0.0,1,29.9,2.18,6.5,0,0,0,1,0,0,250,250,0,,,,,,,,,,,,,,,,
37384,1625651319369,,,,,,,,-0.07,-0.01,1.7,0,4,3,0.08,,80,6405,8,30,37,0.826,0.0,631,4.79,13.7,0.0,1,29.7,2.18,6.5,0,0,0,1,0,0,250,250,0,,,,,,,,,,,,,,,,
37404,1625651319389,,,,,,,,0.03,0.03,1.89,0,4,4,0.04,,80,6285,9,30,38,0.833,0.0,621,4.76,13.7,0.0,1,29.8,2.23,6.5,0,0,0,1,0,0,250,250,0,,,,,,,,,,,,,,,,
37424,1625651319408,,,,,,,,0.11,0.03,2.06,0,2,2,0.12,,80,6121,11,29,39,0.848,0.0,600,4.82,14.0,0.0,1,29.9,2.3,6.5,0,0,0,1,0,0,250,250,0,,,,,,,,,,,,,,,,
37444,1625651319428,7,4,46,48,32,32,5,0.19,0.04,2.23,0,-1,0,0.2,0,80,5992,12,29,42,0.857,0.0,599,4.76,13.9,0.0,1,30.2,1.19,6.5,0,0,0,1,0,0,250,250,0,52.961891,6.523255,0.0,20.6,10,3,1.5,0,0.0,-1,0.0,0.0,0.0,0,0.01,0.6241
37464,1625651319448,,,,,,,,0.27,0.06,2.37,0,-0,0,0.28,,80,5822,14,29,46,0.872,0.0,580,4.8,14.0,0.0,1,30.7,2.4,6.4,0,0,0,1,0,0,250,250,0,,,,,,,,,,,,,,,,
37484,1625651319468,,,,,,,,0.25,0.09,2.35,1,5,6,0.27,,80,5683,15,29,49,0.881,0.0,571,4.78,13.8,0.0,1,31.0,2.49,6.4,0,0,0,1,0,0,250,250,0,,,,,,,,,,,,,,,,
37504,1625651319488,,,,,,,,0.12,0.07,2.15,1,9,8,0.14,,80,5661,17,29,54,0.89,0.0,548,4.76,13.8,0.0,1,32.3,1.34,6.4,0,0,0,1,0,0,250,250,0,,,,,,,,,,,,,,,,
37524,1625651319510,,,,,,,,0.08,0.04,1.97,-0,7,3,0.09,,80,5719,18,29,58,0.896,0.0,551,4.87,14.0,0.0,1,33.2,1.28,6.4,0,0,0,1,0,0,250,250,0,,,,,,,,,,,,,,,,
37544,1625651319530,7,6,45,48,32,32,5,0.16,0.06,2.14,-0,0,-2,0.17,0,80,5767,19,29,63,0.905,0.0,562,4.81,13.9,0.0,1,34.4,2.62,6.4,0,0,0,1,0,0,250,250,0,52.961891,6.523255,0.0,20.6,10,3,1.5,0,0.0,-1,0.0,,0.0,0,0.01,0.6257
37564,1625651319550,,,,,,,,0.23,0.05,2.29,-0,-2,-3,0.24,,80,5859,19,29,67,0.915,0.0,561,4.83,14.0,0.0,1,35.3,3.05,8.2,0,0,0,1,0,0,250,250,0,,,,,,,,,,,,,,,,
37584,1625651319570,,,,,,,,0.28,0.01,2.44,-0,-3,-4,0.28,,80,5914,19,29,69,0.917,0.0,561,4.75,13.8,0.0,1,35.7,3.45,8.2,0,0,0,1,0,0,250,250,0,,,,,,,,,,,,,,,,
37604,1625651319590,,,,,,,,0.32,-0.02,2.57,-0,-4,-4,0.32,,80,6017,19,29,72,0.921,0.0,566,4.83,14.0,0.0,1,36.2,3.76,8.2,0,0,0,1,0,0,250,250,0,,,,,,,,,,,,,,,,
37624,1625651319608,,,,,,,,0.35,-0.04,2.69,-0,-6,-6,0.35,,80,6151,19,29,73,0.923,0.0,579,4.78,13.9,0.0,1,37.2,3.83,8.2,0,0,0,1,0,0,250,250,0,,,,,,,,,,,,,,,,
37644,1625651319628,7,5,46,48,32,32,5,0.31,-0.03,2.53,-0,-8,-8,0.31,0,80,6304,19,29,74,0.927,0.0,594,4.85,14.0,0.0,1,38.2,3.89,8.2,0,0,0,1,0,0,250,250,0,52.961891,6.523255,0.0,20.6,10,3,1.5,0,0.0,-1,0.0,0.0,0.0,0,0.01,0.6274
37664,1625651319648,,,,,,,,0.22,-0.03,2.32,-0,-5,-6,0.22,,80,6569,18,29,74,0.923,0.0,610,4.74,13.8,0.0,1,39.9,3.85,11.6,0,0,0,1,0,0,250,250,0,,,,,,,,,,,,,,,,
37684,1625651319668,,,,,,,,0.25,-0.02,2.43,-0,-7,-7,0.25,,80,6855,17,29,73,0.921,0.0,621,4.8,14.0,0.0,1,41.3,3.73,11.6,0,0,0,1,0,0,250,250,0,,,,,,,,,,,,,,,,
37704,1625651319688,,,,,,,,0.27,-0.05,2.56,-0,-6,-6,0.28,,80,7287,16,29,71,0.918,0.0,636,4.78,13.7,0.0,1,40.7,3.73,11.6,0,0,0,1,0,0,250,250,0,,,,,,,,,,,,,,,,
37724,1625651319708,,,,,,,,0.28,-0.1,2.53,-0,-5,-5,0.3,,80,7594,15,29,69,0.917,0.0,655,4.72,13.8,0.0,1,39.4,3.67,11.6,0,0,0,1,0,0,250,250,0,,,,,,,,,,,,,,,,
37744,1625651319728,7,4,46,48,32,32,2,0.28,-0.11,2.6,-0,-7,-8,0.3,0,80,7918,15,29,67,0.926,0.0,664,4.68,13.9,0.0,1,38.4,2.3,11.6,0,0,0,1,0,0,250,250,0,52.961891,6.523255,0.0,20.6,10,3,1.5,0,0.0,-1,0.0,,0.0,0,0.01,0.6291
37764,1625651319748,,,,,,,,0.24,-0.1,2.38,-0,-5,-5,0.26,,80,8252,14,29,64,0.94,0.0,663,4.82,13.8,0.0,1,41.9,3.22,12.3,0,0,0,1,0,0,250,250,0,,,,,,,,,,,,,,,,
37784,1625651319768,,,,,,,,0.23,-0.07,2.18,-0,-5,-5,0.24,,80,8729,14,29,60,0.952,0.0,671,4.75,13.9,0.0,1,41.9,3.34,12.3,0,0,0,1,0,0,250,250,0,,,,,,,,,,,,,,,,
37804,1625651319788,,,,,,,,0.23,-0.02,2.0,-0,-4,-7,0.23,,80,9204,14,30,55,0.959,0.0,686,4.75,13.8,0.0,1,40.0,2.28,12.3,0,0,0,1,0,0,250,250,0,,,,,,,,,,,,,,,,
37824,1625651319808,,,,,,,,0.24,0.06,2.0,-0,-4,-4,0.25,,80,9595,14,30,52,0.966,0.0,681,4.78,13.7,0.0,1,39.4,3.36,12.3,0,0,0,1,0,0,250,250,0,,,,,,,,,,,,,,,,
37844,1625651319828,6,3,46,48,32,31,1,0.22,-0.05,2.04,-0,-3,-6,0.22,0,80,9904,14,30,49,0.97,0.0,688,4.77,13.8,0.0,1,38.5,3.04,12.3,0,0,0,1,0,0,250,250,0,52.961891,6.523255,0.0,20.6,10,3,1.5,0,0.0,-1,0.0,0.0,0.0,0,0.01,0.6307
37864,1625651319848,,,,,,,,0.18,-0.07,2.04,-0,-4,-6,0.2,,80,10190,16,30,48,0.975,0.0,701,4.73,13.7,0.0,1,38.2,2.91,12.3,0,0,0,1,0,0,250,250,0,,,,,,,,,,,,,,,,
37884,1625651319868,,,,,,,,0.13,0.05,2.21,0,-2,-4,0.14,,80,10370,20,30,47,0.98,0.0,691,4.79,13.8,0.0,1,38.0,2.81,13.7,0,0,0,1,0,0,250,250,0,,,,,,,,,,,,,,,,
37904,1625651319888,,,,,,,,0.15,0.14,2.15,0,-3,-5,0.2,,80,10492,23,30,49,0.98,0.0,701,4.77,13.7,0.0,1,38.5,3.03,13.7,0,0,0,1,0,0,250,250,0,,,,,,,,,,,,,,,,
37924,1625651319910,,,,,,,,0.11,0.26,2.03,0,-1,-2,0.28,,80,10751,27,30,53,0.979,0.0,709,4.77,13.8,0.0,1,39.7,2.43,13.7,0,0,0,1,0,0,250,250,0,,,,,,,,,,,,,,,,
37944,1625651319930,5,5,45,48,32,32,0,0.15,0.14,1.86,0,-2,-4,0.2,0,80,11114,29,30,56,0.976,0.0,720,4.77,13.7,0.0,1,41.3,4.4,13.7,0,0,0,1,0,0,250,250,0,52.961891,6.523255,0.0,20.6,10,3,1.5,0,0.0,-1,0.0,,0.0,0,0.01,0.6324
37964,1625651319950,,,,,,,,0.07,0.2,2.04,0,-1,-5,0.21,,80,11488,30,30,60,0.974,0.0,720,4.75,13.7,0.0,1,43.5,4.73,25.1,0,0,0,1,0,0,250,250,0,,,,,,,,,,,,,,,,
37984,1625651319970,,,,,,,,0.02,0.27,2.2,0,-0,-3,0.27,,80,11807,30,30,62,0.958,0.0,723,4.75,13.7,0.0,1,43.9,4.88,25.1,0,0,0,1,0,0,250,250,0,,,,,,,,,,,,,,,,
38004,1625651319990,,,,,,,,-0.02,0.34,2.28,0,-0,-1,0.34,,80,12159,30,30,64,0.944,0.0,721,4.78,13.7,0.0,1,43.6,3.22,25.1,0,0,0,1,0,0,250,250,0,,,,,,,,,,,,,,,,
38024,1625651320002,,,,,,,,-0.1,0.33,2.31,0,-1,-1,0.34,,80,12508,30,30,65,0.926,0.0,720,4.77,13.7,0.0,1,43.3,4.42,25.1,0,0,0,1,0,0,250,250,0,,,,,,,,,,,,,,,,
38044,1625651320022,5,3,46,48,32,32,2,0.02,0.26,2.11,0,-2,-3,0.26,0,80,12816,30,30,67,0.908,0.0,728,4.77,13.6,0.0,1,43.1,3.14,25.1,0,0,0,1,0,0,250,250,0,52.961891,6.523255,0.0,20.6,10,3,1.5,0,0.0,-1,0.0,0.0,0.0,0,0.01,0.6341
38064,1625651320042,,,,,,,,0.0,0.33,1.94,0,-1,-1,0.33,,80,13148,26,30,66,0.894,0.0,737,4.75,13.6,0.0,1,43.0,4.15,25.3,0,0,0,1,0,0,250,250,0,,,,,,,,,,,,,,,,
38084,1625651320062,,,,,,,,-0.07,0.32,1.94,0,-1,-3,0.33,,80,13412,21,30,63,0.886,0.0,734,4.77,13.9,0.0,1,43.0,4.0,25.3,0,0,0,1,0,0,250,250,0,,,,,,,,,,,,,,,,
38104,1625651320082,,,,,,,,-0.17,0.17,1.87,0,-1,-2,0.24,,80,13345,16,30,58,0.883,0.0,729,4.78,13.8,0.0,1,41.7,3.89,25.3,0,0,0,1,0,0,250,250,0,,,,,,,,,,,,,,,,
38124,1625651320104,,,,,,,,-0.18,0.25,2.01,0,-1,-2,0.31,,80,13345,13,30,52,0.875,0.0,733,4.77,13.7,0.0,1,39.4,3.62,25.3,0,0,0,1,0,0,250,250,0,,,,,,,,,,,,,,,,
38144,1625651320124,5,5,45,49,32,32,3,-0.15,0.21,1.85,-0,-1,-3,0.26,0,80,13057,10,30,48,0.868,0.0,737,4.76,13.6,0.0,1,38.2,2.25,25.3,0,0,0,1,0,0,250,250,0,52.961891,6.523255,0.0,20.6,10,3,1.5,0,0.0,-1,0.0,,0.0,0,0.01,0.6357
38164,1625651320144,,,,,,,,-0.16,0.23,1.69,0,1,-1,0.28,,80,12772,7,30,43,0.864,0.0,732,4.76,13.7,0.0,1,35.5,2.99,17.7,0,0,0,1,0,0,250,250,0,,,,,,,,,,,,,,,,
38184,1625651320164,,,,,,,,-0.09,0.08,1.77,-0,3,-2,0.12,,80,12508,7,30,40,0.861,0.0,725,4.71,13.6,0.0,1,33.6,1.69,17.7,0,0,0,1,0,0,250,250,0,,,,,,,,,,,,,,,,
38204,1625651320184,,,,,,,,-0.13,-0.05,1.96,-0,3,-3,0.14,,80,12222,7,30,37,0.858,0.0,719,4.77,13.7,0.0,1,32.4,2.66,17.7,0,0,0,1,0,0,250,250,0,,,,,,,,,,,,,,,,
38224,1625651320210,,,,,,,,-0.19,-0.07,2.13,-0,2,-4,0.2,,80,11957,7,30,35,0.866,0.0,719,4.77,13.7,0.0,1,31.7,2.58,17.7,0,0,0,1,0,0,250,250,0,,,,,,,,,,,,,,,,
38244,1625651320230,6,4,46,48,32,32,3,-0.18,-0.17,2.28,-0,1,-6,0.24,0,80,11733,7,30,34,0.88,0.0,721,4.77,13.7,0.0,1,30.9,2.56,17.7,0,0,0,1,0,0,250,250,0,52.961891,6.523255,0.0,20.6,10,3,1.5,0,0.0,-1,0.0,0.0,0.0,0,0.01,0.6374
38264,1625651320250,,,,,,,,-0.06,-0.23,2.24,-0,-1,-6,0.24,,80,11481,7,30,33,0.894,0.0,715,4.77,13.7,0.0,1,30.2,2.53,13.4,0,0,0,1,0,0,250,250,0,,,,,,,,,,,,,,,,
38284,1625651320270,,,,,,,,-0.18,-0.09,2.05,-0,1,-3,0.2,,80,11227,7,30,33,0.904,0.0,716,4.76,13.6,0.0,1,30.2,1.41,13.4,0,0,0,1,0,0,250,250,0,,,,,,,,,,,,,,,,
38304,1625651320290,,,,,,,,-0.15,-0.15,1.97,-0,-1,-6,0.21,,80,10997,7,30,32,0.924,0.0,712,4.81,13.6,0.0,1,30.0,1.4,13.4,0,0,0,1,0,0,250,250,0,,,,,,,,,,,,,,,,
38324,1625651320310,,,,,,,,-0.11,-0.12,2.14,-0,-0,-5,0.17,,80,10782,7,30,32,0.962,0.0,708,4.77,13.8,0.0,1,30.0,2.52,13.4,0,0,0,1,0,0,250,250,0,,,,,,,,,,,,,,,,
38344,1625651320330,6,3,46,48,32,31,4,-0.11,-0.19,1.96,-0,3,-2,0.21,0,80,10545,7,30,31,0.99,0.0,698,4.81,13.8,0.0,1,29.5,2.5,13.4,0,0,0,1,0,0,250,250,0,52.961891,6.523255,0.0,20.6,10,3,1.5,0,0.0,-1,0.0,,0.0,0,0.01,0.6391
38364,1625651320350,,,,,,,,-0.09,-0.25,2.13,-0,2,-5,0.26,,80,10324,7,30,31,1.011,0.0,694,4.77,13.8,0.0,1,29.5,2.46,11.7,0,0,0,1,0,0,250,250,0,,,,,,,,,,,,,,,,
38384,1625651320370,,,,,,,,-0.12,-0.39,1.95,-1,2,-7,0.41,,80,10080,7,29,30,1.044,0.0,695,4.75,13.8,0.0,1,29.1,2.38,11.7,0,0,0,1,0,0,250,250,0,,,,,,,,,,,,,,,,
38404,1625651320390,,,,,,,,-0.11,-0.25,2.12,-0,0,-5,0.28,,80,9847,7,29,30,1.071,0.0,693,4.79,13.7,0.0,1,29.1,2.42,11.7,0,0,0,1,0,0,250,250,0,,,,,,,,,,,,,,,,
38424,1625651320410,,,,,,,,-0.11,-0.31,2.08,-1,0,-8,0.33,,80,9640,7,29,29,1.091,0.0,687,4.82,13.8,0.0,1,28.7,1.34,11.7,0,0,0,1,0,0,250,250,0,,,,,,,,,,,,,,,,
38444,1625651320430,6,3,45,48,32,32,4,-0.03,-0.13,1.91,-0,-1,-4,0.14,0,80,9431,7,29,29,1.118,0.0,688,4.79,13.8,0.0,1,28.7,2.5,11.7,0,0,0,1,0,0,250,250,0,52.961891,6.523255,0.0,20.6,10,3,1.5,0,0.0,-1,0.0,0.0,0.0,0,0.01,0.6407
38464,1625651320450,,,,,,,,-0.0,-0.16,1.8,0,-0,-2,0.16,,80,9173,7,29,29,1.143,0.0,687,4.7,13.7,0.0,1,28.7,2.47,10.5,0,0,0,1,0,0,250,250,0,,,,,,,,,,,,,,,,
38484,1625651320470,,,,,,,,0.01,-0.11,1.65,0,0,-1,0.11,,80,8954,7,29,29,1.147,0.0,678,4.78,13.8,0.0,1,28.7,2.45,10.5,0,0,0,1,0,0,250,250,0,,,,,,,,,,,,,,,,
38504,1625651320407,,,,,,,,0.04,-0.08,1.51,0,1,2,0.09,,80,8737,7,29,29,1.154,0.0,675,4.75,13.7,0.0,1,28.7,2.45,10.5,0,0,0,1,0,0,250,250,0,,,,,,,,,,,,,,,,
38524,1625651320501,,,,,,,,0.02,-0.03,1.39,0,1,3,0.03,,80,8553,7,29,30,1.158,0.0,672,4.75,13.8,0.0,1,29.1,2.45,10.5,0,0,0,1,0,0,250,250,0,,,,,,,,,,,,,,,,
38544,1625651320521,6,4,45,49,32,32,4,0.03,-0.06,1.61,0,0,0,0.07,0,80,8318,7,29,29,1.163,0.0,667,4.75,13.8,0.0,1,28.4,2.28,10.5,0,0,0,1,0,0,250,250,0,52.961891,6.523255,0.0,20.6,10,3,1.5,0,0.0,-1,0.0,,0.0,0,0.01,0.6424
38564,1625651320541,,,,,,,,0.01,-0.0,1.47,0,0,2,0.01,,80,8113,7,29,30,1.149,0.0,665,4.74,13.8,0.0,1,28.5,0.96,10.5,0,0,0,1,0,0,250,250,0,,,,,,,,,,,,,,,,
38584,1625651320561,,,,,,,,0.01,-0.0,1.35,0,3,4,0.01,,80,7868,7,29,30,1.132,0.0,662,4.74,13.7,0.0,1,28.3,0.86,7.9,0,0,0,1,0,0,250,250,0,,,,,,,,,,,,,,,,
38604,1625651320581,,,,,,,,0.05,-0.06,1.57,0,2,4,0.08,,80,7662,7,29,30,1.115,0.0,656,4.82,13.7,0.0,1,28.3,2.0,7.9,0,0,0,1,0,0,250,250,0,,,,,,,,,,,,,,,,
38624,1625651320605,,,,,,,,0.09,-0.1,1.68,0,1,3,0.14,,80,7449,8,29,31,1.094,0.0,654,4.8,13.9,0.0,1,28.6,1.98,7.9,0,0,0,1,0,0,250,250,0,,,,,,,,,,,,,,,,
38644,1625651320625,6,3,46,48,32,32,4,0.09,-0.08,1.6,0,2,3,0.12,0,80,7236,8,29,33,1.088,0.0,647,4.75,13.8,0.0,1,29.2,1.95,7.9,0,0,0,1,0,0,250,250,0,52.961891,6.523255,0.0,20.6,10,3,1.5,0,0.0,-1,0.0,0.0,0.0,0,0.01,0.6441
38664,1625651320645,,,,,,,,0.05,-0.08,1.46,0,3,4,0.1,,80,7056,8,29,33,1.077,0.0,651,4.78,13.8,0.0,1,29.2,2.0,6.5,0,0,0,1,0,0,250,250,0,,,,,,,,,,,,,,,,
38684,1625651320665,,,,,,,,0.12,-0.05,1.67,0,1,2,0.13,,80,6848,8,29,34,1.069,0.0,640,4.83,13.9,0.0,1,29.4,2.05,6.5,0,0,0,1,0,0,250,250,0,,,,,,,,,,,,,,,,
38704,1625651320685,,,,,,,,0.02,-0.08,1.53,0,3,4,0.08,,80,6749,8,29,35,1.063,0.0,631,4.82,13.9,0.0,1,29.5,2.1,6.5,0,0,0,1,0,0,250,250,0,,,,,,,,,,,,,,,,
38724,1625651320705,,,,,,,,0.1,-0.06,1.74,0,0,2,0.12,,80,6660,8,29,35,1.065,0.0,631,4.76,13.9,0.0,1,29.4,2.1,6.5,0,0,0,1,0,0,250,250,0,,,,,,,,,,,,,,,,
38744,1625651320725,6,5,45,48,32,32,4,0.06,-0.04,1.59,0,0,1,0.08,0,80,6537,8,29,36,1.073,0.0,630,4.83,13.9,0.0,1,29.6,2.14,6.5,0,0,0,1,0,0,250,250,0,52.961891,6.523255,0.0,20.6,10,3,1.5,0,0.0,-1,0.0,,0.0,0,0.01,0.6457
38764,1625651320745,,,,,,,,-0.02,-0.05,1.46,0,4,4,0.06,,80,6463,9,29,36,1.076,0.0,626,4.78,13.7,0.0,1,29.5,2.14,6.5,0,0,0,1,0,0,250,250,0,,,,,,,,,,,,,,,,
38784,1625651320765,,,,,,,,0.07,-0.07,1.67,0,2,3,0.1,,80,6375,9,29,37,1.083,0.0,627,4.77,14.0,0.0,1,29.7,2.19,6.4,0,0,0,1,0,0,250,250,0,,,,,,,,,,,,,,,,
38804,1625651320785,,,,,,,,0.14,-0.07,1.87,0,-3,-1,0.15,,80,6237,10,29,38,1.094,0.0,596,4.81,14.0,0.0,1,29.7,2.24,6.4,0,0,0,1,0,0,250,250,0,,,,,,,,,,,,,,,,
38824,1625651320805,,,,,,,,0.17,-0.08,2.04,0,-6,-5,0.19,,80,6075,11,29,40,1.101,0.0,585,4.81,14.0,0.0,1,29.9,1.17,6.4,0,0,0,1,0,0,250,250,0,,,,,,,,,,,,,,,,
38844,1625651320825,5,5,46,48,32,31,5,0.23,-0.08,2.21,0,-10,-9,0.24,0,80,5912,13,29,43,1.114,0.0,570,4.85,14.0,0.0,1,30.2,2.34,6.4,0,0,0,1,0,0,250,250,0,52.961891,6.523255,0.0,20.6,10,3,1.5,0,0.0,-1,0.0,0.0,0.0,0,0.01,0.6474
38864,1625651320845,,,,,,,,0.27,-0.06,2.35,0,-13,-11,0.28,,80,5755,15,29,46,1.122,0.0,570,4.77,14.0,0.0,1,30.6,2.44,6.4,0,0,0,1,0,0,250,250,0,,,,,,,,,,,,,,,,
38884,1625651320865,,,,,,,,0.24,-0.05,2.33,0,-8,-8,0.25,,80,5718,16,29,50,1.127,0.0,560,4.79,13.9,0.0,1,31.3,2.47,6.5,0,0,0,1,0,0,250,250,0,,,,,,,,,,,,,,,,
38904,1625651320885,,,,,,,,0.12,-0.08,2.14,0,-2,-2,0.14,,80,5725,16,29,54,1.127,0.0,547,4.79,13.8,0.0,1,32.3,2.44,6.5,0,0,0,1,0,0,250,250,0,,,,,,,,,,,,,,,,
38924,1625651320909,,,,,,,,0.03,-0.07,1.96,0,2,0,0.08,,80,5756,16,29,58,1.126,0.0,542,4.78,13.8,0.0,1,33.3,1.25,6.5,0,0,0,1,0,0,250,250,0,,,,,,,,,,,,,,,,
38944,1625651320929,5,4,46,48,32,32,4,0.07,-0.04,1.95,0,-0,-2,0.08,0,80,5821,16,29,61,1.125,0.0,552,4.79,13.9,0.0,1,34.0,2.31,6.5,0,0,0,1,0,0,250,250,0,52.961891,6.523255,0.0,20.6,10,3,1.5,0,0.0,-1,0.0,,0.0,0,0.01,0.6491
38964,1625651320949,,,,,,,,0.12,-0.03,2.12,0,-4,-5,0.13,,80,5888,16,29,64,1.118,0.0,564,4.82,14.0,0.0,1,34.6,2.58,7.0,0,0,0,1,0,0,250,250,0,,,,,,,,,,,,,,,,
38984,1625651320969,,,,,,,,0.18,-0.04,2.27,-0,-7,-8,0.18,,80,5927,16,29,65,1.109,0.0,565,4.81,14.0,0.0,1,34.9,2.88,7.0,0,0,0,1,0,0,250,250,0,,,,,,,,,,,,,,,,
39004,1625651320989,,,,,,,,0.23,-0.07,2.42,-0,-10,-11,0.24,,80,5986,15,29,67,1.096,0.0,565,4.82,14.0,0.0,1,35.3,3.2,7.0,0,0,0,1,0,0,250,250,0,,,,,,,,,,,,,,,,
39024,1625651321001,,,,,,,,0.26,-0.08,2.55,-0,-13,-13,0.27,,80,6017,13,29,67,1.089,0.0,567,4.83,14.0,0.0,1,35.3,2.08,7.0,0,0,0,1,0,0,250,250,0,,,,,,,,,,,,,,,,
39044,1625651321021,6,3,46,48,32,32,4,0.25,-0.07,2.63,-0,-13,-15,0.26,0,80,6181,12,29,67,1.075,0.0,576,4.82,14.0,0.0,1,36.1,3.22,7.0,0,0,0,1,0,0,250,250,0,52.961891,6.523255,0.0,20.6,10,3,1.5,0,0.0,-1,0.0,0.0,0.0,0,0.01,0.6507
39064,1625651321041,,,,,,,,0.14,-0.08,2.41,-0,-10,-12,0.16,,80,6338,12,29,66,1.052,0.0,594,4.77,13.8,0.0,1,36.7,3.09,9.0,0,0,0,1,0,0,250,250,0,,,,,,,,,,,,,,,,
39084,1625651321061,,,,,,,,0.13,-0.12,2.21,-0,-7,-9,0.18,,80,6549,11,29,64,1.038,0.0,600,4.81,13.9,0.0,1,37.2,2.82,9.0,0,0,0,1,0,0,250,250,0,,,,,,,,,,,,,,,,
39104,1625651321081,,,,,,,,0.13,-0.11,2.29,-0,-8,-9,0.17,,80,6818,11,29,62,1.015,0.0,613,4.82,13.9,0.0,1,37.8,1.47,9.0,0,0,0,1,0,0,250,250,0,,,,,,,,,,,,,,,,
39124,1625651321110,,,,,,,,0.16,-0.11,2.32,-0,-8,-10,0.19,,80,7118,11,29,60,1.005,0.0,640,4.74,13.9,0.0,1,37.9,2.49,9.0,0,0,0,1,0,0,250,250,0,,,,,,,,,,,,,,,,
39144,1625651321130,6,3,46,48,32,31,5,0.17,-0.08,2.3,-0,-8,-9,0.19,0,80,7281,11,29,59,0.996,0.0,653,4.75,13.9,0.0,1,37.6,2.46,9.0,0,0,0,1,0,0,250,250,0,52.961891,6.523255,0.0,20.6,10,3,1.5,0,0.0,-1,0.0,,0.0,0,0.01,0.6524
39164,1625651321150,,,,,,,,0.16,-0.11,2.16,-0,-7,-8,0.19,,80,7419,11,29,57,0.992,0.0,650,4.77,13.8,0.0,1,37.1,1.29,9.0,0,0,0,1,0,0,250,250,0,,,,,,,,,,,,,,,,
39184,1625651321170,,,,,,,,0.16,-0.13,1.98,-0,-6,-7,0.2,,80,7569,11,30,56,0.987,0.0,647,4.83,13.8,0.0,1,36.9,2.41,8.2,0,0,0,1,0,0,250,250,0,,,,,,,,,,,,,,,,
39204,1625651321190,,,,,,,,0.18,-0.13,2.15,-0,-7,-9,0.23,,80,7738,11,30,54,0.983,0.0,656,4.72,13.9,0.0,1,36.7,2.4,8.2,0,0,0,1,0,0,250,250,0,,,,,,,,,,,,,,,,
39224,1625651321197,,,,,,,,0.18,-0.12,2.3,-0,-9,-12,0.22,,80,7934,11,30,52,0.985,0.0,663,4.7,13.9,0.0,1,36.8,1.3,8.2,0,0,0,1,0,0,250,250,0,,,,,,,,,,,,,,,,
39244,1625651321217,4,5,46,48,32,31,5,0.15,-0.07,2.11,-0,-6,-8,0.16,0,80,8138,11,30,50,0.988,0.0,658,4.87,13.8,0.0,1,37.0,2.52,8.2,0,0,0,1,0,0,250,250,0,52.961891,6.523255,0.0,20.6,10,3,1.5,0,0.0,-1,0.0,0.0,0.0,0,0.01,0.6541
39264,1625651321237,,,,,,,,0.14,-0.1,2.27,-0,-7,-10,0.17,,80,8366,11,30,48,0.99,0.0,669,4.79,13.8,0.0,1,37.0,2.77,10.7,0,0,0,1,0,0,250,250,0,,,,,,,,,,,,,,,,
39284,1625651321257,,,,,,,,0.12,-0.11,2.08,-0,-6,-8,0.16,,80,8604,11,30,46,0.993,0.0,672,4.85,13.8,0.0,1,36.3,2.89,10.7,0,0,0,1,0,0,250,250,0,,,,,,,,,,,,,,,,
39304,1625651321277,,,,,,,,0.14,-0.01,1.9,0,-5,-4,0.14,,80,8786,11,30,43,0.997,0.0,674,4.78,13.9,0.0,1,34.5,2.83,10.7,0,0,0,1,0,0,250,250,0,,,,,,,,,,,,,,,,
39324,1625651321309,,,,,,,,0.15,0.05,1.75,0,-3,0,0.16,,80,8954,11,30,42,1.003,0.0,679,4.73,13.8,0.0,1,33.8,1.7,10.7,0,0,0,1,0,0,250,250,0,,,,,,,,,,,,,,,,
39344,1625651321329,4,4,46,48,32,31,5,0.16,0.15,1.6,1,-3,4,0.22,0,80,9093,10,30,40,1.008,0.0,678,4.86,13.8,0.0,1,32.6,1.65,10.7,0,0,0,1,0,0,250,250,0,52.961891,6.523255,0.0,20.6,10,3,1.5,0,0.0,-1,0.0,,0.0,0,0.01,0.6557
39364,1625651321349,,,,,,,,0.21,0.24,1.47,1,-2,7,0.32,,80,9155,10,30,39,1.012,0.0,682,4.75,13.7,0.0,1,32.0,2.74,11.6,0,0,0,1,0,0,250,250,0,,,,,,,,,,,,,,,,
39384,1625651321369,,,,,,,,0.23,0.32,1.35,1,-2,7,0.4,,80,9191,10,30,38,1.006,0.0,687,4.73,13.7,0.0,1,31.7,2.7,11.6,0,0,0,1,0,0,250,250,0,,,,,,,,,,,,,,,,
39404,1625651321389,,,,,,,,0.17,0.2,1.57,1,-2,5,0.26,,80,9168,10,30,37,1.002,0.0,683,4.71,13.7,0.0,1,31.4,2.66,11.6,0,0,0,1,0,0,250,250,0,,,,,,,,,,,,,,,,
39424,1625651321408,,,,,,,,0.12,0.1,1.77,1,-3,2,0.16,,80,9079,10,30,36,0.997,0.0,680,4.68,13.8,0.0,1,31.1,2.61,11.6,0,0,0,1,0,0,250,250,0,,,,,,,,,,,,,,,,
39444,1625651321428,6,5,46,48,32,32,5,0.09,0.04,1.96,0,-4,-1,0.1,0,80,8958,10,30,36,0.992,0.0,683,4.65,13.7,0.0,1,31.1,2.61,11.6,0,0,0,1,0,0,250,250,0,52.961891,6.523255,0.0,20.6,10,3,1.5,0,0.0,-1,0.0,0.0,0.0,0,0.01,0.6574
39464,1625651321448,,,,,,,,0.07,-0.03,2.13,0,-4,-2,0.08,,80,8724,10,30,36,0.978,0.0,675,4.78,13.7,0.0,1,31.1,2.61,10.5,0,0,0,1,0,0,250,250,0,,,,,,,,,,,,,,,,
39484,1625651321468,,,,,,,,0.06,-0.07,1.95,1,-3,2,0.09,,80,8484,10,30,37,0.964,0.0,670,4.74,13.8,0.0,1,31.3,2.61,10.5,0,0,0,1,0,0,250,250,0,,,,,,,,,,,,,,,,
39504,1625651321488,,,,,,,,0.06,-0.07,1.81,1,-3,0,0.09,,80,8278,10,30,37,0.955,0.0,671,4.78,13.8,0.0,1,30.9,2.44,10.5,0,0,0,1,0,0,250,250,0,,,,,,,,,,,,,,,,
39524,1625651321506,,,,,,,,0.04,-0.01,1.66,1,-1,4,0.04,,80,8040,10,30,38,0.939,0.0,667,4.86,13.8,0.0,1,30.7,1.15,10.5,0,0,0,1,0,0,250,250,0,,,,,,,,,,,,,,,,
39544,1625651321526,6,4,45,49,32,32,4,0.09,-0.04,1.85,1,-1,4,0.1,0,80,7864,10,30,38,0.929,0.0,663,4.85,13.8,0.0,1,30.7,2.23,10.5,0,0,0,1,0,0,250,250,0,52.961891,6.523255,0.0,20.6,10,3,1.5,0,0.0,-1,0.0,,0.0,0,0.01,0.6591
39564,1625651321546,,,,,,,,0.11,-0.1,1.98,0,-3,1,0.15,,80,7709,10,30,39,0.915,0.0,655,4.8,13.9,0.0,1,31.0,1.17,10.5,0,0,0,1,0,0,250,250,0,,,,,,,,,,,,,,,,
39584,1625651321566,,,,,,,,0.11,-0.09,2.0,0,-4,-2,0.14,,80,7548,10,30,39,0.901,0.0,662,4.71,13.8,0.0,1,31.0,1.17,8.1,0,0,0,1,0,0,250,250,0,,,,,,,,,,,,,,,,
39604,1625651321586,,,,,,,,0.12,-0.06,2.09,0,-6,-4,0.14,,80,7434,10,30,40,0.887,0.0,661,4.72,13.8,0.0,1,31.4,2.29,8.1,0,0,0,1,0,0,250,250,0,,,,,,,,,,,,,,,,
39624,1625651321604,,,,,,,,0.12,-0.05,2.25,0,-7,-5,0.13,,80,7449,10,30,40,0.885,0.0,652,4.75,13.9,0.0,1,31.4,2.29,8.1,0,0,0,1,0,0,250,250,0,,,,,,,,,,,,,,,,
39644,1625651321624,5,4,46,48,32,32,5,0.13,-0.09,2.25,0,-7,-6,0.16,0,80,7467,10,30,40,0.887,0.0,658,4.77,14.0,0.0,1,31.4,2.29,8.1,0,0,0,1,0,0,250,250,0,52.961891,6.523255,0.0,20.6,10,3,1.5,0,0.0,-1,0.0,0.0,0.0,0,0.01,0.6607
39664,1625651321644,,,,,,,,0.14,-0.1,2.33,0,-8,-7,0.17,,80,7506,10,30,41,0.887,0.0,657,4.7,13.7,0.0,1,32.0,2.29,8.1,0,0,0,1,0,0,250,250,0,,,,,,,,,,,,,,,,
39684,1625651321664,,,,,,,,0.15,-0.06,2.47,0,-10,-9,0.16,,80,7533,10,30,41,0.888,0.0,659,4.76,13.9,0.0,1,32.0,2.29,7.9,0,0,0,1,0,0,250,250,0,,,,,,,,,,,,,,,,
39704,1625651321684,,,,,,,,0.16,-0.05,2.6,0,-11,-10,0.16,,80,7542,10,30,41,0.896,0.0,651,4.73,13.9,0.0,1,32.0,2.29,7.9,0,0,0,1,0,0,250,250,0,,,,,,,,,,,,,,,,
39724,1625651321704,,,,,,,,0.15,-0.08,2.49,0,-11,-11,0.17,,80,7554,10,30,41,0.912,0.0,650,4.78,13.9,0.0,1,32.0,2.29,7.9,0,0,0,1,0,0,250,250,0,,,,,,,,,,,,,,,,
39744,1625651321724,6,2,46,48,32,31,5,0.13,-0.06,2.37,0,-12,-13,0.15,0,80,7575,10,30,41,0.923,0.0,655,4.72,14.0,0.0,1,32.0,2.29,7.9,0,0,0,1,0,0,250,250,0,52.961891,6.523255,0.0,20.6,10,3,1.5,0,0.0,-1,0.0,,0.0,0,0.01,0.6624
39764,1625651321744,,,,,,,,0.09,-0.04,2.22,-0,-13,-14,0.1,,80,7566,10,29,41,0.939,0.0,655,4.81,14.0,0.0,1,32.0,2.3,8.0,0,0,0,1,0,0,250,250,0,,,,,,,,,,,,,,,,
39784,1625651321764,,,,,,,,0.06,-0.01,2.09,-0,-13,-15,0.06,,80,7578,10,29,41,0.941,0.0,653,4.76,13.9,0.0,1,32.0,2.3,8.0,0,0,0,1,0,0,250,250,0,,,,,,,,,,,,,,,,
39804,1625651321784,,,,,,,,0.01,0.04,1.92,0,-12,-13,0.04,,80,7609,10,30,41,0.944,0.0,654,4.75,14.0,0.0,1,32.0,1.17,8.0,0,0,0,1,0,0,250,250,0,,,,,,,,,,,,,,,,
39824,1625651321804,,,,,,,,-0.04,0.08,1.76,0,-11,-11,0.09,,80,7634,10,30,41,0.946,0.0,662,4.83,13.9,0.0,1,32.1,1.17,8.0,0,0,0,1,0,0,250,250,0,,,,,,,,,,,,,,,,
39844,1625651321824,4,5,46,48,32,31,5,-0.07,0.06,1.61,0,-8,-8,0.09,0,80,7659,11,29,42,0.95,0.0,660,4.88,13.9,0.0,1,32.6,2.3,8.0,0,0,0,1,0,0,250,250,0,52.961891,6.523255,0.0,20.6,10,3,1.5,0,0.0,-1,0.0,0.0,0.0,0,0.01,0.6641
39864,1625651321844,,,,,,,,-0.07,0.06,1.48,0,-6,-6,0.09,,80,7665,11,29,42,0.948,0.0,655,4.98,13.9,0.0,1,32.6,1.17,8.0,0,0,0,1,0,0,250,250,0,,,,,,,,,,,,,,,,
39884,1625651321864,,,,,,,,-0.03,0.04,1.65,0,-5,-4,0.05,,80,7693,12,29,42,0.942,0.0,655,4.88,13.8,0.0,1,32.7,1.17,8.1,0,0,0,1,0,0,250,250,0,,,,,,,,,,,,,,,,
39904,1625651321884,,,,,,,,0.03,0.03,1.85,0,-5,-5,0.05,,80,7757,13,29,43,0.936,0.0,662,4.82,13.8,0.0,1,33.4,2.31,8.1,0,0,0,1,0,0,250,250,0,,,,,,,,,,,,,,,,
39924,1625651321910,,,,,,,,0.04,-0.0,2.03,0,-7,-7,0.04,,80,7796,14,29,44,0.928,0.0,658,4.7,13.9,0.0,1,34.0,1.19,8.1,0,0,0,1,0,0,250,250,0,,,,,,,,,,,,,,,,
39944,1625651321930,6,4,46,48,32,31,5,0.0,0.05,1.86,0,-6,-6,0.05,0,80,7871,18,29,46,0.922,0.0,659,4.73,13.9,0.0,1,35.4,1.21,8.1,0,0,0,1,0,0,250,250,0,52.961891,6.523255,0.0,20.6,10,3,1.5,0,0.0,-1,0.0,,0.0,0,0.01,0.6657
39964,1625651321950,,,,,,,,0.01,0.07,1.7,0,-4,-2,0.07,,80,8029,27,29,52,0.904,0.0,663,4.86,13.8,0.0,1,37.0,2.68,9.9,0,0,0,1,0,0,250,250,0,,,,,,,,,,,,,,,,
39984,1625651321970,,,,,,,,0.03,0.03,1.89,0,-5,-4,0.04,,80,8120,36,29,61,0.89,0.0,663,4.75,13.9,0.0,1,39.3,3.02,9.9,0,0,0,1,0,0,250,250,0,,,,,,,,,,,,,,,,
40004,1625651321990,,,,,,,,-0.01,0.1,1.74,0,-4,-3,0.1,,80,8047,42,29,71,0.876,0.0,660,4.81,13.9,0.0,1,38.8,2.72,9.9,0,0,0,1,0,0,250,250,0,,,,,,,,,,,,,,,,
40024,1625651322000,,,,,,,,0.02,0.09,1.65,0,-2,-0,0.1,,80,7992,46,29,79,0.867,0.0,663,4.83,13.8,0.0,1,37.5,5.12,9.9,0,0,0,1,0,0,250,250,0,,,,,,,,,,,,,,,,
40044,1625651322020,5,4,45,48,32,32,5,0.05,0.07,1.85,0,-3,-3,0.09,0,80,8009,49,29,87,0.867,0.0,660,4.71,13.9,0.0,1,35.8,5.79,9.9,0,0,0,1,0,0,250,250,0,52.961891,6.523255,0.0,20.6,10,3,1.5,0,0.0,-1,0.0,0.0,0.0,0,0.01,0.6674
40064,1625651322040,,,,,,,,0.04,0.15,1.69,0,-2,0,0.16,,80,8177,52,29,91,0.867,0.0,657,4.82,13.8,0.0,1,39.7,6.56,24.8,0,0,0,1,0,0,250,250,0,,,,,,,,,,,,,,,,
40084,1625651322060,,,,,,,,0.02,0.11,1.69,0,-3,-2,0.12,,80,8561,56,30,92,0.868,0.0,667,4.81,13.7,0.0,1,42.9,7.25,24.8,0,0,0,1,0,0,250,250,0,,,,,,,,,,,,,,,,
40104,1625651322080,,,,,,,,0.02,0.04,1.59,0,-3,-4,0.04,,80,9137,59,30,91,0.883,0.0,669,4.81,13.8,0.0,1,38.8,5.24,24.8,0,0,0,1,0,0,250,250,0,,,,,,,,,,,,,,,,
40124,1625651322110,,,,,,,,0.03,0.17,1.46,0,-3,-2,0.17,,80,9832,63,30,90,0.91,0.0,690,4.73,13.9,0.0,1,39.5,7.39,24.8,0,0,0,1,0,0,250,250,0,,,,,,,,,,,,,,,,
40144,1625651322130,5,4,46,48,32,32,5,0.01,0.02,1.67,0,-4,-3,0.02,0,80,9600,66,30,91,0.954,0.0,688,4.72,13.9,0.0,1,39.1,7.28,24.8,0,0,0,1,0,0,250,250,0,52.961891,6.523255,0.0,20.6,10,3,1.5,0,0.0,-1,0.0,,0.0,0,0.01,0.6691
40164,1625651322150,,,,,,,,-0.0,0.04,1.58,-0,-3,-5,0.04,,80,9398,68,30,92,0.981,0.0,685,4.71,13.8,0.0,1,38.8,5.29,24.8,0,0,0,1,0,0,250,250,0,,,,,,,,,,,,,,,,
40184,1625651322170,,,,,,,,0.01,0.07,1.65,0,-4,-4,0.07,,80,9821,69,30,91,1.025,0.0,697,4.78,13.9,0.0,1,39.5,5.36,32.0,0,0,0,1,0,0,250,250,0,,,,,,,,,,,,,,,,
40204,1625651322190,,,,,,,,-0.03,0.04,1.52,-0,-2,-4,0.05,,80,9610,69,30,92,1.053,0.0,688,4.73,13.9,0.0,1,39.0,5.22,32.0,0,0,0,1,0,0,250,250,0,,,,,,,,,,,,,,,,
40224,1625651322210,,,,,,,,0.04,0.12,1.46,0,-2,-1,0.13,,80,9417,69,30,92,1.09,0.0,686,4.8,13.8,0.0,1,38.8,7.26,32.0,0,0,0,1,0,0,250,250,0,,,,,,,,,,,,,,,,
40244,1625651322230,4,3,46,47,32,31,5,-0.02,0.0,1.58,-0,-2,-3,0.02,0,80,9852,69,30,92,1.126,0.0,690,4.8,13.9,0.0,1,39.5,7.25,32.0,0,0,0,1,0,0,250,250,0,52.961891,6.523255,0.0,20.6,10,3,1.5,0,0.0,-1,0.0,0.0,0.0,0,0.01,0.6707
40264,1625651322250,,,,,,,,0.04,0.1,1.48,0,-3,-3,0.11,,80,9640,69,30,92,1.173,0.0,690,4.8,13.9,0.0,1,39.1,7.0,31.3,0,0,0,1,0,0,250,250,0,,,,,,,,,,,,,,,,
40284,1625651322270,,,,,,,,0.02,0.02,1.46,0,-2,-2,0.03,,80,9417,69,30,93,1.203,0.0,691,4.8,13.9,0.0,1,38.8,6.79,31.3,0,0,0,1,0,0,250,250,0,,,,,,,,,,,,,,,,
40304,1625651322290,,,,,,,,0.02,0.04,1.34,-0,-1,-2,0.05,,80,9889,69,30,92,1.252,0.0,688,4.76,13.9,0.0,1,39.6,6.73,31.3,0,0,0,1,0,0,250,250,0,,,,,,,,,,,,,,,,
40324,1625651322310,,,,,,,,0.02,0.07,1.56,0,-1,-0,0.07,,80,9645,69,30,92,1.281,0.0,686,4.81,14.0,0.0,1,39.1,6.48,31.3,0,0,0,1,0,0,250,250,0,,,,,,,,,,,,,,,,
40344,1625651322330,6,3,46,47,32,32,5,0.0,0.01,1.6,-0,-2,-2,0.01,0,80,9450,69,30,93,1.321,0.0,687,4.75,14.0,0.0,1,38.8,6.38,31.3,0,0,0,1,0,0,250,250,0,52.961891,6.523255,0.0,20.6,10,3,1.5,0,0.0,-1,0.0,,0.0,0,0.01,0.6724
40364,1625651322350,,,,,,,,0.04,0.04,1.53,0,-3,-1,0.06,,80,9837,69,30,93,1.326,0.0,682,4.77,14.0,0.0,1,39.4,5.46,31.3,0,0,0,1,0,0,250,250,0,,,,,,,,,,,,,,,,
40384,1625651322370,,,,,,,,0.01,-0.11,1.4,-0,-2,-3,0.11,,80,9684,69,30,92,1.321,0.0,691,4.78,13.9,0.0,1,39.2,5.35,29.6,0,0,0,1,0,0,250,250,0,,,,,,,,,,,,,,,,
40404,1625651322390,,,,,,,,0.01,-0.01,1.29,0,-1,-1,0.01,,80,9479,69,30,92,1.315,0.0,683,4.81,14.0,0.0,1,38.8,6.38,29.6,0,0,0,1,0,0,250,250,0,,,,,,,,,,,,,,,,
40424,1625651322391,,,,,,,,0.01,0.0,1.51,0,-1,-0,0.01,,80,9852,69,30,93,1.311,0.0,677,4.8,13.9,0.0,1,39.4,6.51,29.6,0,0,0,1,0,0,250,250,0,,,,,,,,,,,,,,,,
40444,1625651322411,6,4,46,46,32,32,5,0.01,0.01,1.4,-0,-1,-1,0.01,0,80,9730,69,30,92,1.311,0.0,691,4.73,14.0,0.0,1,39.3,5.37,29.6,0,0,0,1,0,0,250,250,0,52.961891,6.523255,0.0,20.6,10,3,1.5,0,0.0,-1,0.0,0.0,0.0,0,0.01,0.6741
40464,1625651322431,,,,,,,,0.05,0.01,1.35,0,-1,1,0.05,,80,9493,70,30,93,1.314,0.0,689,4.77,13.9,0.0,1,38.8,6.34,27.9,0,0,0,1,0,0,250,250,0,,,,,,,,,,,,,,,,
40484,1625651322451,,,,,,,,-0.0,-0.07,1.26,0,-1,-2,0.07,,80,9645,71,30,93,1.316,0.0,688,4.73,14.0,0.0,1,39.1,6.43,27.9,0,0,0,1,0,0,250,250,0,,,,,,,,,,,,,,,,
40504,1625651322471,,,,,,,,0.0,0.02,1.15,0,0,0,0.02,,80,9431,72,30,93,1.317,0.0,684,4.78,13.9,0.0,1,38.8,6.38,27.9,0,0,0,1,0,0,250,250,0,,,,,,,,,,,,,,,,
40524,1625651322501,,,,,,,,0.0,0.01,1.38,0,-0,0,0.01,,80,9715,73,30,93,1.321,0.0,688,4.76,13.9,0.0,1,39.2,6.46,27.9,0,0,0,1,0,0,250,250,0,,,,,,,,,,,,,,,,
40544,1625651322521,4,2,46,47,32,32,5,-0.03,-0.01,1.36,0,-0,-2,0.03,0,80,9512,74,30,93,1.328,0.0,686,4.8,14.0,0.0,1,38.9,5.34,27.9,0,0,0,1,0,0,250,250,0,52.961891,6.523255,0.0,20.6,10,3,1.5,0,0.0,-1,0.0,,0.0,0,0.01,0.6757
40564,1625651322541,,,,,,,,0.03,0.02,1.41,0,-1,-0,0.04,,80,9571,76,30,93,1.333,0.0,675,4.81,13.9,0.0,1,39.2,6.4,28.4,0,0,0,1,0,0,250,250,0,,,,,,,,,,,,,,,,
40584,1625651322561,,,,,,,,-0.01,-0.11,1.35,0,-1,-2,0.11,,80,9585,76,30,93,1.338,0.0,689,4.76,14.0,0.0,1,39.0,6.36,28.4,0,0,0,1,0,0,250,250,0,,,,,,,,,,,,,,,,
40604,1625651322581,,,,,,,,-0.0,-0.05,1.24,-0,-1,-2,0.05,,80,9379,77,30,93,1.348,0.0,681,4.73,13.8,0.0,1,38.8,6.38,28.4,0,0,0,1,0,0,250,250,0,,,,,,,,,,,,,,,,
40624,1625651322605,,,,,,,,-0.0,0.01,1.47,0,-1,-0,0.01,,80,9832,77,30,92,1.365,0.0,687,4.76,13.9,0.0,1,39.4,6.45,28.4,0,0,0,1,0,0,250,250,0,,,,,,,,,,,,,,,,
40644,1625651322625,3,1,46,47,32,32,5,-0.01,-0.01,1.35,-0,-1,-1,0.02,0,80,9625,78,30,92,1.382,0.0,687,4.73,14.0,0.0,1,39.1,5.33,28.4,0,0,0,1,0,0,250,250,0,52.961891,6.523255,0.0,20.6,10,3,1.5,0,0.0,-1,0.0,0.0,0.0,0,0.01,0.6774
40664,1625651322645,,,,,,,,0.03,0.01,1.32,0,-1,1,0.03,,80,9474,78,30,93,1.403,0.0,683,4.78,13.9,0.0,1,38.8,6.33,27.6,0,0,0,1,0,0,250,250,0,,,,,,,,,,,,,,,,
40684,1625651322665,,,,,,,,0.0,-0.09,1.33,0,-1,-1,0.09,,80,9532,78,30,93,1.41,0.0,688,4.76,14.0,0.0,1,38.9,6.34,27.6,0,0,0,1,0,0,250,250,0,,,,,,,,,,,,,,,,
40704,1625651322685,,,,,,,,-0.02,-0.06,1.22,0,-0,-0,0.06,,80,9576,78,30,93,1.412,0.0,678,4.71,13.9,0.0,1,39.0,6.4,27.6,0,0,0,1,0,0,250,250,0,,,,,,,,,,,,,,,,
40724,1625651322706,,,,,,,,0.05,0.01,1.18,0,-0,2,0.05,,80,9426,78,30,93,1.418,0.0,683,4.77,14.0,0.0,1,38.8,6.38,27.6,0,0,0,1,0,0,250,250,0,,,,,,,,,,,,,,,,
40744,1625651322726,1,1,46,47,32,32,5,0.01,-0.07,1.41,0,-1,-0,0.07,0,80,9750,78,30,93,1.42,0.0,689,4.8,13.9,0.0,1,39.3,6.47,27.6,0,0,0,1,0,0,250,250,0,52.961891,6.523255,0.0,20.6,10,3,1.5,0,0.0,-1,0.0,,0.0,0,0.01,0.6791
40764,1625651322746,,,,,,,,0.03,-0.01,1.35,0,-1,-0,0.03,,80,9541,78,30,93,1.427,0.0,686,4.81,14.0,0.0,1,38.9,6.39,28.2,0,0,0,1,0,0,250,250,0,,,,,,,,,,,,,,,,
40784,1625651322766,,,,,,,,0.04,0.05,1.31,0,-1,0,0.07,,80,9645,78,30,93,1.432,0.0,687,4.81,14.0,0.0,1,39.1,6.43,28.2,0,0,0,1,0,0,250,250,0,,,,,,,,,,,,,,,,
40804,1625651322786,,,,,,,,0.02,-0.05,1.2,0,-1,-1,0.05,,80,9441,78,30,93,1.437,0.0,687,4.74,13.9,0.0,1,38.8,6.38,28.2,0,0,0,1,0,0,250,250,0,,,,,,,,,,,,,,,,
40824,1625651322805,,,,,,,,0.03,0.06,1.1,0,-0,2,0.07,,80,9755,78,30,93,1.443,0.0,688,4.76,14.0,0.0,1,39.3,5.43,28.2,0,0,0,1,0,0,250,250,0,,,,,,,,,,,,,,,,
40844,1625651322825,0,1,46,48,32,32,4,0.01,-0.03,1.34,0,-1,-0,0.03,0,80,9522,79,30,93,1.447,0.0,683,4.72,14.0,0.0,1,38.9,6.38,28.2,0,0,0,1,0,0,250,250,0,52.961891,6.523255,0.0,20.6,10,3,1.5,0,0.0,-1,0.0,0.0,0.0,0,0.01,0.6807
40864,1625651322845,,,,,,,,-0.0,-0.01,1.32,0,-1,-1,0.01,,80,9740,78,30,93,1.448,0.0,680,4.72,13.8,0.0,1,39.2,6.47,29.2,0,0,0,1,0,0,250,250,0,,,,,,,,,,,,,,,,
40884,1625651322865,,,,,,,,0.01,-0.03,1.35,0,-1,-2,0.03,,80,9755,79,30,92,1.45,0.0,692,4.77,14.0,0.0,1,39.3,6.42,29.2,0,0,0,1,0,0,250,250,0,,,,,,,,,,,,,,,,
40904,1625651322885,,,,,,,,-0.03,-0.02,1.24,0,0,-0,0.04,,80,9551,78,30,92,1.451,0.0,688,4.73,13.9,0.0,1,38.9,6.34,29.2,0,0,0,1,0,0,250,250,0,,,,,,,,,,,,,,,,
40924,1625651322909,,,,,,,,0.04,0.04,1.27,0,0,2,0.06,,80,9590,78,30,93,1.45,0.0,676,4.76,13.6,0.0,1,39.0,6.38,29.2,0,0,0,1,0,0,250,250,0,,,,,,,,,,,,,,,,
40944,1625651322929,1,0,46,47,32,31,5,-0.01,-0.07,1.41,0,-0,-1,0.07,0,80,9635,79,30,92,1.449,0.0,686,4.73,14.0,0.0,1,39.1,6.43,29.2,0,0,0,1,0,0,250,250,0,52.961891,6.523255,0.0,20.6,10,3,1.5,0,0.0,-1,0.0,,0.0,0,0.01,0.6824
40964,1625651322949,,,,,,,,0.0,-0.0,1.35,0,-0,-0,0.0,,80,9431,79,30,93,1.448,0.0,685,4.81,14.0,0.0,1,38.8,6.38,27.8,0,0,0,1,0,0,250,250,0,,,,,,,,,,,,,,,,
40984,1625651322969,,,,,,,,0.02,0.03,1.38,0,-1,-1,0.03,,80,9878,79,30,93,1.446,0.0,688,4.78,13.9,0.0,1,39.5,6.52,27.8,0,0,0,1,0,0,250,250,0,,,,,,,,,,,,,,,,
41004,1625651322989,,,,,,,,0.01,0.01,1.26,0,1,0,0.01,,80,9669,79,30,92,1.447,0.0,688,4.74,14.0,0.0,1,39.2,6.39,27.8,0,0,0,1,0,0,250,250,0,,,,,,,,,,,,,,,,
41024,1625651323001,,,,,,,,0.06,0.08,1.32,0,0,2,0.1,,80,9441,79,30,93,1.443,0.0,683,4.75,14.0,0.0,1,38.8,6.38,27.8,0,0,0,1,0,0,250,250,0,,,,,,,,,,,,,,,,
41044,1625651323021,1,2,46,46,32,32,4,0.04,0.01,1.54,0,-1,-1,0.04,0,80,9755,79,30,93,1.441,0.0,685,4.77,13.9,0.0,1,39.3,6.47,27.8,0,0,0,1,0,0,250,250,0,52.961891,6.523255,0.0,20.6,10,3,1.5,0,0.0,-1,0.0,0.0,0.0,0,0.01,0.6841
41064,1625651323041,,,,,,,,0.04,0.05,1.46,0,-1,-0,0.06,,80,9546,79,30,93,1.438,0.0,687,4.81,14.0,0.0,1,38.9,5.35,27.8,0,0,0,1,0,0,250,250,0,,,,,,,,,,,,,,,,
41084,1625651323061,,,,,,,,0.06,0.09,1.51,0,-1,-1,0.11,,80,9745,79,30,92,1.434,0.0,683,4.78,13.9,0.0,1,39.3,5.38,28.2,0,0,0,1,0,0,250,250,0,,,,,,,,,,,,,,,,
41104,1625651323081,,,,,,,,0.03,0.01,1.39,0,-0,-0,0.03,,80,9620,79,30,92,1.425,0.0,688,4.71,14.0,0.0,1,39.1,6.37,28.2,0,0,0,1,0,0,250,250,0,,,,,,,,,,,,,,,,
41124,1625651323109,,,,,,,,0.09,0.07,1.43,0,-0,2,0.12,,80,9474,79,30,92,1.415,0.0,679,4.76,13.6,0.0,1,38.8,6.33,28.2,0,0,0,1,0,0,250,250,0,,,,,,,,,,,,,,,,
41144,1625651323129,1,2,45,46,32,32,4,0.05,-0.05,1.61,0,-1,-1,0.07,0,80,9709,79,30,92,1.408,0.0,696,4.78,13.9,0.0,1,39.2,6.4,28.2,0,0,0,1,0,0,250,250,0,52.961891,6.523255,0.0,20.6,10,3,1.5,0,0.0,-1,0.0,,0.0,0,0.01,0.6857
41164,1625651323149,,,,,,,,0.06,-0.01,1.55,0,-1,0,0.06,,80,9503,79,30,93,1.4,0.0,683,4.81,14.0,0.0,1,38.9,5.34,28.2,0,0,0,1,0,0,250,250,0,,,,,,,,,,,,,,,,
41184,1625651323169,,,,,,,,0.09,0.06,1.62,0,-3,-0,0.1,,80,9704,79,30,93,1.403,0.0,676,4.78,13.7,0.0,1,39.2,5.41,28.1,0,0,0,1,0,0,250,250,0,,,,,,,,,,,,,,,,
41204,1625651323189,,,,,,,,0.06,-0.0,1.48,0,-0,1,0.06,,80,9750,79,30,92,1.407,0.0,691,4.73,14.0,0.0,1,39.3,6.42,28.1,0,0,0,1,0,0,250,250,0,,,,,,,,,,,,,,,,
41224,1625651323209,,,,,,,,0.11,0.08,1.6,0,-1,2,0.14,,80,9517,79,30,92,1.414,0.0,686,4.76,14.0,0.0,1,38.9,5.29,28.1,0,0,0,1,0,0,250,250,0,,,,,,,,,,,,,,,,
41244,1625651323229,1,2,46,47,32,32,4,0.07,0.01,1.79,0,-2,-0,0.07,0,80,9674,79,30,93,1.417,0.0,685,4.76,13.6,0.0,1,39.1,6.44,28.1,0,0,0,1,0,0,250,250,0,52.961891,6.523255,0.0,20.6,10,3,1.5,0,0.0,-1,0.0,0.0,0.0,0,0.01,0.6874
41264,1625651323249,,,,,,,,0.1,0.07,1.67,0,-2,1,0.12,,80,9630,79,30,92,1.413,0.0,686,4.81,14.0,0.0,1,39.1,6.36,28.4,0,0,0,1,0,0,250,250,0,,,,,,,,,,,,,,,,
41284,1625651323269,,,,,,,,0.1,0.11,1.62,0,-2,0,0.14,,80,9398,79,30,92,1.407,0.0,687,4.8,14.0,0.0,1,38.8,6.33,28.4,0,0,0,1,0,0,250,250,0,,,,,,,,,,,,,,,,
41304,1625651323289,,,,,,,,0.07,0.06,1.48,0,-1,1,0.09,,80,9889,79,30,92,1.401,0.0,687,4.71,13.9,0.0,1,39.6,6.47,28.4,0,0,0,1,0,0,250,250,0,,,,,,,,,,,,,,,,
41324,1625651323309,,,,,,,,0.1,0.14,1.63,0,-1,2,0.17,,80,9640,79,30,92,1.395,0.0,686,4.78,13.9,0.0,1,39.1,5.34,28.4,0,0,0,1,0,0,250,250,0,,,,,,,,,,,,,,,,
41344,1625651323329,0,2,46,46,32,32,4,0.06,0.05,1.76,0,-2,-1,0.07,0,80,9450,79,30,93,1.399,0.0,690,4.73,14.0,0.0,1,38.8,6.38,28.4,0,0,0,1,0,0,250,250,0,52.961891,6.523255,0.0,20.6,10,3,1.5,0,0.0,-1,0.0,,0.0,0,0.01,0.6891
41364,1625651323349,,,,,,,,0.07,0.08,1.61,0,-2,0,0.11,,80,9842,79,30,93,1.403,0.0,685,4.75,13.9,0.0,1,39.4,6.5,28.4,0,0,0,1,0,0,250,250,0,,,,,,,,,,,,,,,,
41384,1625651323369,,,,,,,,0.05,0.02,1.48,-0,-1,-2,0.05,,80,9684,79,30,92,1.409,0.0,698,4.75,14.0,0.0,1,39.2,6.39,29.9,0,0,0,1,0,0,250,250,0,,,,,,,,,,,,,,,,
41404,1625651323389,,,,,,,,0.07,0.13,1.54,0,-0,1,0.15,,80,9484,79,29,92,1.415,0.0,683,4.77,14.0,0.0,1,38.8,6.38,29.9,0,0,0,1,0,0,250,250,0,,,,,,,,,,,,,,,,
41424,1625651323408,,,,,,,,0.03,0.04,1.65,0,-0,1,0.06,,80,9852,79,29,93,1.41,0.0,681,4.72,13.9,0.0,1,39.4,6.56,29.9,0,0,0,1,0,0,250,250,0,,,,,,,,,,,,,,,,
41444,1625651323428,-1,2,45,46,32,32,5,0.04,0.2,1.51,0,-0,0,0.21,0,80,9725,79,29,92,1.406,0.0,688,4.72,14.0,0.0,1,39.3,6.46,29.9,0,0,0,1,0,0,250,250,0,52.961891,6.523255,0.0,20.6,10,3,1.5,0,0.0,-1,0.0,0.0,0.0,0,0.01,0.6907
41464,1625651323448,,,,,,,,0.05,0.06,1.43,0,-0,2,0.08,,80,9488,79,29,92,1.399,0.0,682,4.81,14.0,0.0,1,38.8,5.23,29.9,0,0,0,1,0,0,250,250,0,,,,,,,,,,,,,,,,
41484,1625651323468,,,,,,,,0.02,0.02,1.31,0,0,-0,0.03,,80,9720,79,29,93,1.39,0.0,682,4.75,13.9,0.0,1,39.2,6.51,28.0,0,0,0,1,0,0,250,250,0,,,,,,,,,,,,,,,,
41504,1625651323488,,,,,,,,0.06,0.08,1.54,0,0,2,0.1,,80,9595,79,29,93,1.385,0.0,685,4.81,14.0,0.0,1,39.0,5.37,28.0,0,0,0,1,0,0,250,250,0,,,,,,,,,,,,,,,,
41524,1625651323507,,,,,,,,0.01,0.01,1.65,0,-1,2,0.01,,80,9370,79,29,92,1.381,0.0,681,4.77,13.7,0.0,1,38.8,6.38,28.0,0,0,0,1,0,0,250,250,0,,,,,,,,,,,,,,,,
41544,1625651323527,0,1,46,46,32,31,4,0.06,0.16,1.56,0,-0,2,0.17,0,80,9858,79,29,92,1.377,0.0,687,4.71,14.0,0.0,1,39.5,5.42,28.0,0,0,0,1,0,0,250,250,0,52.961891,6.523255,0.0,20.6,10,3,1.5,0,0.0,-1,0.0,,0.0,0,0.01,0.6924
41564,1625651323547,,,,,,,,0.03,0.02,1.43,0,-1,3,0.03,,80,9600,79,29,92,1.373,0.0,688,4.75,14.0,0.0,1,39.0,6.41,28.5,0,0,0,1,0,0,250,250,0,,,,,,,,,,,,,,,,
41584,1625651323567,,,,,,,,0.02,0.05,1.31,0,-1,-0,0.05,,80,9407,79,29,93,1.373,0.0,686,4.78,14.0,0.0,1,38.8,6.43,28.5,0,0,0,1,0,0,250,250,0,,,,,,,,,,,,,,,,
41604,1625651323587,,,,,,,,0.04,0.06,1.53,0,-1,2,0.08,,80,9863,79,29,92,1.373,0.0,686,4.77,13.9,0.0,1,39.5,6.57,28.5,0,0,0,1,0,0,250,250,0,,,,,,,,,,,,,,,,
41624,1625651323604,,,,,,,,0.03,0.01,1.53,0,-1,-1,0.03,,80,9645,79,29,92,1.374,0.0,688,4.76,14.0,0.0,1,39.1,6.43,28.5,0,0,0,1,0,0,250,250,0,,,,,,,,,,,,,,,,
41644,1625651323624,-0,2,46,46,32,32,4,0.07,0.13,1.4,0,-1,1,0.15,0,80,9455,79,29,92,1.374,0.0,685,4.8,14.0,0.0,1,38.8,5.29,28.5,0,0,0,1,0,0,250,250,0,52.961891,6.523255,0.0,20.6,10,3,1.5,0,0.0,-1,0.0,0.0,0.0,0,0.01,0.6941
41664,1625651323644,,,,,,,,0.05,0.02,1.36,0,-1,0,0.05,,80,9899,79,29,92,1.373,0.0,688,4.77,13.9,0.0,1,39.6,6.53,29.9,0,0,0,1,0,0,250,250,0,,,,,,,,,,,,,,,,
41684,1625651323664,,,,,,,,0.07,0.11,1.25,0,-0,1,0.13,,80,9694,79,29,92,1.375,0.0,690,4.77,14.0,0.0,1,39.2,6.45,29.9,0,0,0,1,0,0,250,250,0,,,,,,,,,,,,,,,,
41704,1625651323684,,,,,,,,0.05,0.06,1.48,0,-1,2,0.08,,80,9464,79,29,92,1.378,0.0,681,4.8,14.0,0.0,1,38.8,6.38,29.9,0,0,0,1,0,0,250,250,0,,,,,,,,,,,,,,,,
41724,1625651323704,,,,,,,,0.04,0.03,1.38,0,-1,-1,0.05,,80,9858,79,29,92,1.38,0.0,684,4.76,13.9,0.0,1,39.5,6.51,29.9,0,0,0,1,0,0,250,250,0,,,,,,,,,,,,,,,,
41744,1625651323724,-0,2,46,47,32,32,5,0.05,0.09,1.42,0,-1,1,0.1,0,80,9699,79,29,92,1.387,0.0,693,4.78,14.0,0.0,1,39.2,6.46,29.9,0,0,0,1,0,0,250,250,0,52.961891,6.523255,0.0,20.6,10,3,1.5,0,0.0,-1,0.0,,0.0,0,0.01,0.6957
41764,1625651323744,,,,,,,,0.03,-0.0,1.3,0,-1,-0,0.03,,80,9493,79,29,92,1.391,0.0,690,4.77,14.0,0.0,1,38.8,6.38,28.0,0,0,0,1,0,0,250,250,0,,,,,,,,,,,,,,,,
41784,1625651323764,,,,,,,,0.06,0.1,1.2,0,0,1,0.12,,80,9645,79,29,93,1.397,0.0,689,4.72,14.0,0.0,1,39.1,6.48,28.0,0,0,0,1,0,0,250,250,0,,,,,,,,,,,,,,,,
41804,1625651323784,,,,,,,,0.05,0.06,1.43,1,-0,2,0.08,,80,9412,79,29,92,1.402,0.0,681,4.8,13.8,0.0,1,38.8,6.38,28.0,0,0,0,1,0,0,250,250,0,,,,,,,,,,,,,,,,
41824,1625651323806,,,,,,,,0.02,0.04,1.37,0,-0,-1,0.04,,80,9720,79,29,93,1.407,0.0,688,4.75,14.0,0.0,1,39.2,5.42,28.0,0,0,0,1,0,0,250,250,0,,,,,,,,,,,,,,,,
41844,1625651323826,0,2,46,47,32,31,5,0.07,0.16,1.26,1,-0,2,0.17,0,80,9512,79,29,93,1.403,0.0,685,4.82,14.0,0.0,1,38.8,6.43,28.0,0,0,0,1,0,0,250,250,0,52.961891,6.523255,0.0,20.6,10,3,1.5,0,0.0,-1,0.0,0.0,0.0,0,0.01,0.6974
41864,1625651323846,,,,,,,,0.03,0.05,1.15,0,0,0,0.06,,80,9889,79,29,92,1.398,0.0,681,4.8,13.9,0.0,1,39.6,6.52,29.9,0,0,0,1,0,0,250,250,0,,,,,,,,,,,,,,,,
41884,1625651323866,,,,,,,,0.08,0.18,1.23,1,1,3,0.2,,80,9760,79,29,92,1.394,0.0,687,4.78,14.0,0.0,1,39.3,6.47,29.9,0,0,0,1,0,0,250,250,0,,,,,,,,,,,,,,,,
41904,1625651323886,,,,,,,,0.02,0.07,1.4,0,-0,0,0.07,,80,9532,79,29,92,1.389,0.0,683,4.78,14.0,0.0,1,38.9,5.3,29.9,0,0,0,1,0,0,250,250,0,,,,,,,,,,,,,,,,
41924,1625651323910,,,,,,,,0.02,0.08,1.32,0,0,-1,0.08,,80,9590,79,29,93,1.391,0.0,678,4.71,13.8,0.0,1,39.0,6.46,29.9,0,0,0,1,0,0,250,250,0,,,,,,,,,,,,,,,,
41944,1625651323930,1,0,46,47,32,32,5,0.03,0.08,1.37,0,-1,0,0.09,0,80,9605,80,29,92,1.393,0.0,692,4.8,14.0,0.0,1,39.0,6.41,29.9,0,0,0,1,0,0,250,250,0,52.961891,6.523255,0.0,20.6,10,3,1.5,0,0.0,-1,0.0,,0.0,0,0.01,0.6991
41964,1625651323950,,,,,,,,0.02,-0.01,1.26,0,-0,-1,0.02,,80,9407,81,29,93,1.397,0.0,686,4.76,14.0,0.0,1,38.8,6.43,28.0,0,0,0,1,0,0,250,250,0,,,,,,,,,,,,,,,,
41984,1625651323970,,,,,,,,0.06,0.09,1.15,0,1,1,0.11,,80,9720,81,29,92,1.4,0.0,685,4.77,14.0,0.0,1,39.2,6.46,28.0,0,0,0,1,0,0,250,250,0,,,,,,,,,,,,,,,,
42004,1625651323990,,,,,,,,0.04,0.03,1.39,0,1,1,0.05,,80,9488,82,29,93,1.402,0.0,688,4.75,13.9,0.0,1,38.8,6.38,28.0,0,0,0,1,0,0,250,250,0,,,,,,,,,,,,,,,,
42024,1625651324002,,,,,,,,0.03,0.02,1.32,0,-0,-1,0.04,,80,9791,82,29,92,1.403,0.0,687,4.73,13.9,0.0,1,39.4,6.49,28.0,0,0,0,1,0,0,250,250,0,,,,,,,,,,,,,,,,
42044,1625651324022,0,2,46,47,32,32,4,0.06,0.11,1.31,0,-0,1,0.12,0,80,9556,82,29,91,1.406,0.0,689,4.8,14.0,0.0,1,39.0,5.26,28.0,0,0,0,1,0,0,250,250,0,52.961891,6.523255,0.0,20.6,10,3,1.5,0,0.0,-1,0.0,0.0,0.0,0,0.01,0.7007
42064,1625651324042,,,,,,,,0.02,0.03,1.2,0,-0,0,0.03,,80,9441,83,29,92,1.408,0.0,675,4.78,13.9,0.0,1,38.8,6.38,27.9,0,0,0,1,0,0,250,250,0,,,,,,,,,,,,,,,,
42084,1625651324062,,,,,,,,0.06,0.15,1.16,0,2,2,0.16,,80,9842,83,29,91,1.411,0.0,688,4.74,14.0,0.0,1,39.5,6.45,27.9,0,0,0,1,0,0,250,250,0,,,,,,,,,,,,,,,,
42104,1625651324082,,,,,,,,0.0,0.02,1.38,0,0,0,0.02,,80,9605,83,29,92,1.414,0.0,685,4.78,13.9,0.0,1,39.0,6.41,27.9,0,0,0,1,0,0,250,250,0,,,,,,,,,,,,,,,,
42124,1625651324110,,,,,,,,0.01,0.06,1.3,0,1,-1,0.06,,80,9488,83,29,91,1.417,0.0,678,4.82,13.9,0.0,1,38.9,6.38,27.9,0,0,0,1,0,0,250,250,0,,,,,,,,,,,,,,,,
42144,1625651324130,0,2,45,48,32,31,5,0.03,0.1,1.31,0,-1,0,0.1,0,80,9508,84,29,92,1.421,0.0,690,4.8,14.0,0.0,1,38.9,6.38,27.9,0,0,0,1,0,0,250,250,0,52.961891,6.523255,0.0,20.6,10,3,1.5,0,0.0,-1,0.0,,0.0,0,0.01,0.7024
42164,1625651324150,,,,,,,,0.0,0.03,1.2,0,0,-1,0.03,,80,9735,84,29,92,1.418,0.0,683,4.76,14.0,0.0,1,39.3,5.37,27.9,0,0,0,1,0,0,250,250,0,,,,,,,,,,,,,,,,
42184,1625651324170,,,,,,,,0.05,0.14,1.17,0,1,2,0.15,,80,9615,84,29,92,1.417,0.0,684,4.79,14.0,0.0,1,39.1,5.33,29.1,0,0,0,1,0,0,250,250,0,,,,,,,,,,,,,,,,
42204,1625651324190,,,,,,,,0.02,0.06,1.4,0,0,0,0.07,,80,9474,84,29,92,1.413,0.0,686,4.71,13.9,0.0,1,38.8,6.38,29.1,0,0,0,1,0,0,250,250,0,,,,,,,,,,,,,,,,
42224,1625651324210,,,,,,,,0.05,0.1,1.34,0,-0,-1,0.11,,80,9852,84,29,91,1.41,0.0,692,4.77,14.0,0.0,1,39.5,6.46,29.1,0,0,0,1,0,0,250,250,0,,,,,,,,,,,,,,,,
42244,1625651324230,0,1,46,47,32,31,5,0.04,-0.0,1.33,0,-1,-1,0.04,0,80,9610,84,29,91,1.409,0.0,686,4.77,14.0,0.0,1,39.1,6.37,29.1,0,0,0,1,0,0,250,250,0,52.961891,6.523255,0.0,20.6,10,3,1.5,0,0.0,-1,0.0,0.0,0.0,0,0.01,0.7041
42264,1625651324250,,,,,,,,0.0,-0.02,1.22,0,-0,-2,0.02,,80,9407,84,29,92,1.408,0.0,688,4.72,13.9,0.0,1,38.8,6.38,27.8,0,0,0,1,0,0,250,250,0,,,,,,,,,,,,,,,,
42284,1625651324270,,,,,,,,0.06,0.08,1.25,0,1,1,0.1,,80,9699,84,29,92,1.405,0.0,682,4.78,13.9,0.0,1,39.2,6.46,27.8,0,0,0,1,0,0,250,250,0,,,,,,,,,,,,,,,,
42304,1625651324290,,,,,,,,0.02,-0.03,1.45,0,-1,-1,0.04,,80,9493,84,29,92,1.404,0.0,682,4.81,14.0,0.0,1,38.8,6.38,27.8,0,0,0,1,0,0,250,250,0,,,,,,,,,,,,,,,,
42324,1625651324310,,,,,,,,0.02,-0.0,1.37,0,-0,-3,0.02,,80,9630,84,29,92,1.397,0.0,681,4.73,14.0,0.0,1,39.1,5.33,27.8,0,0,0,1,0,0,250,250,0,,,,,,,,,,,,,,,,
42344,1625651324330,1,2,45,48,32,32,5,0.06,0.1,1.28,0,-1,-0,0.11,0,80,9479,84,29,92,1.385,0.0,685,4.8,14.0,0.0,1,38.8,6.38,27.8,0,0,0,1,0,0,250,250,0,52.961891,6.523255,0.0,20.6,10,3,1.5,0,0.0,-1,0.0,,0.0,0,0.01,0.7057
42364,1625651324350,,,,,,,,0.01,-0.01,1.18,0,-0,-1,0.01,,80,9527,84,29,92,1.377,0.0,688,4.8,14.0,0.0,1,38.9,6.39,28.2,0,0,0,1,0,0,250,250,0,,,,,,,,,,,,,,,,
42384,1625651324370,,,,,,,,0.03,0.03,1.09,0,0,-0,0.05,,81,9422,84,29,92,1.368,0.0,678,4.72,13.8,0.0,1,38.8,6.38,28.2,0,0,0,1,0,0,250,250,0,,,,,,,,,,,,,,,,
42404,1625651324390,,,,,,,,0.05,0.04,1.32,0,-1,-0,0.06,,80,9600,84,29,91,1.364,0.0,685,4.79,13.9,0.0,1,39.1,6.36,28.2,0,0,0,1,0,0,250,250,0,,,,,,,,,,,,,,,,
42424,1625651324409,,,,,,,,0.02,-0.0,1.38,0,-1,-3,0.02,,81,9479,84,29,92,1.37,0.0,677,4.78,13.9,0.0,1,38.8,5.29,28.2,0,0,0,1,0,0,250,250,0,,,,,,,,,,,,,,,,
42444,1625651324429,0,0,46,47,32,31,5,0.05,0.15,1.27,0,-1,-0,0.16,0,80,9709,84,29,92,1.373,0.0,687,4.79,14.0,0.0,1,39.2,6.45,28.2,0,0,0,1,0,0,250,250,0,52.961891,6.523255,0.0,20.6,10,3,1.5,0,0.0,-1,0.0,0.0,0.0,0,0.01,0.7074
42464,1625651324449,,,,,,,,0.03,-0.0,1.16,0,-1,-1,0.03,,80,9469,84,29,92,1.378,0.0,681,4.8,14.0,0.0,1,38.8,6.38,28.0,0,0,0,1,0,0,250,250,0,,,,,,,,,,,,,,,,
42484,1625651324469,,,,,,,,0.01,0.02,1.06,0,-0,-0,0.02,,80,9699,84,29,92,1.377,0.0,686,4.68,13.8,0.0,1,39.2,6.45,28.0,0,0,0,1,0,0,250,250,0,,,,,,,,,,,,,,,,
42504,1625651324489,,,,,,,,0.03,0.01,1.31,0,-1,-0,0.03,,80,9709,84,29,91,1.37,0.0,683,4.78,14.0,0.0,1,39.3,6.42,28.0,0,0,0,1,0,0,250,250,0,,,,,,,,,,,,,,,,
42524,1625651324509,,,,,,,,-0.01,-0.03,1.32,0,-1,-4,0.03,,80,9508,84,29,92,1.365,0.0,682,4.72,14.0,0.0,1,38.9,5.29,28.0,0,0,0,1,0,0,250,250,0,,,,,,,,,,,,,,,,
42544,1625651324529,0,0,46,47,32,32,5,0.03,0.09,1.24,0,-2,-1,0.09,0,81,9576,84,29,92,1.358,0.0,681,4.78,13.8,0.0,1,39.0,6.4,28.0,0,0,0,1,0,0,250,250,0,52.961891,6.523255,0.0,20.6,10,3,1.5,0,0.0,-1,0.0,,0.0,0,0.01,0.7091
42564,1625651324549,,,,,,,,-0.03,-0.06,1.14,0,-1,-1,0.07,,80,9745,84,29,91,1.355,0.0,693,4.79,14.0,0.0,1,39.3,5.33,28.0,0,0,0,1,0,0,250,250,0,,,,,,,,,,,,,,,,
42584,1625651324569,,,,,,,,0.02,0.03,1.04,0,-1,1,0.04,,80,9551,84,29,92,1.359,0.0,687,4.78,14.0,0.0,1,38.9,6.39,29.0,0,0,0,1,0,0,250,250,0,,,,,,,,,,,,,,,,
42604,1625651324589,,,,,,,,0.02,0.01,1.22,0,-1,1,0.02,,81,9576,84,29,92,1.364,0.0,677,4.75,13.7,0.0,1,39.0,6.4,29.0,0,0,0,1,0,0,250,250,0,,,,,,,,,,,,,,,,
42624,1625651324609,,,,,,,,0.02,-0.01,1.26,0,-1,-1,0.03,,80,9796,84,29,91,1.369,0.0,688,4.8,14.0,0.0,1,39.4,6.44,29.0,0,0,0,1,0,0,250,250,0,,,,,,,,,,,,,,,,
42644,1625651324629,-0,2,46,47,32,31,5,0.04,0.06,1.21,0,-1,-0,0.08,0,80,9556,84,29,91,1.375,0.0,691,4.8,14.0,0.0,1,39.0,6.35,29.0,0,0,0,1,0,0,250,250,0,52.961891,6.523255,0.0,20.6,10,3,1.5,0,0.0,-1,0.0,0.0,0.0,0,0.01,0.7107
42664,1625651324649,,,,,,,,0.02,-0.02,1.11,0,-0,-1,0.03,,80,9445,84,29,92,1.373,0.0,680,4.76,13.9,0.0,1,38.8,5.29,29.0,0,0,0,1,0,0,250,250,0,,,,,,,,,,,,,,,,
42684,1625651324669,,,,,,,,0.04,0.09,1.02,0,0,2,0.1,,80,9801,84,29,91,1.373,0.0,684,4.76,14.0,0.0,1,39.4,6.44,27.9,0,0,0,1,0,0,250,250,0,,,,,,,,,,,,,,,,
42704,1625651324689,,,,,,,,0.02,-0.04,1.26,0,-0,-1,0.04,,80,9590,84,28,91,1.372,0.0,684,4.79,14.0,0.0,1,39.1,6.36,27.9,0,0,0,1,0,0,250,250,0,,,,,,,,,,,,,,,,
42724,1625651324709,,,,,,,,0.01,-0.0,1.17,0,-1,-1,0.01,,81,9484,84,28,92,1.368,0.0,679,4.73,13.9,0.0,1,38.8,5.29,27.9,0,0,0,1,0,0,250,250,0,,,,,,,,,,,,,,,,
42744,1625651324729,1,2,45,47,32,31,5,0.05,0.07,1.18,0,-1,-0,0.09,0,80,9503,84,28,92,1.367,0.0,693,4.77,14.0,0.0,1,38.9,6.38,27.9,0,0,0,1,0,0,250,250,0,52.961891,6.523255,0.0,20.6,10,3,1.5,0,0.0,-1,0.0,,0.0,0,0.01,0.7124
42764,1625651324749,,,,,,,,0.01,-0.0,1.08,0,-1,-1,0.01,,80,9730,84,28,92,1.365,0.0,678,4.74,13.9,0.0,1,39.3,6.46,29.1,0,0,0,1,0,0,250,250,0,,,,,,,,,,,,,,,,
42784,1625651324769,,,,,,,,0.06,0.1,1.01,0,-0,2,0.12,,80,9605,85,28,91,1.363,0.0,685,4.8,14.0,0.0,1,39.1,6.35,29.1,0,0,0,1,0,0,250,250,0,,,,,,,,,,,,,,,,
42804,1625651324789,,,,,,,,0.04,0.06,1.26,0,-1,0,0.07,,81,9379,85,28,92,1.362,0.0,683,4.8,13.9,0.0,1,38.8,6.38,29.1,0,0,0,1,0,0,250,250,0,,,,,,,,,,,,,,,,
42824,1625651324809,,,,,,,,0.02,0.04,1.25,0,-1,-2,0.04,,80,9684,85,28,92,1.368,0.0,687,4.75,14.0,0.0,1,39.2,6.44,29.1,0,0,0,1,0,0,250,250,0,,,,,,,,,,,,,,,,
42844,1625651324829,0,1,46,47,32,31,5,0.06,0.16,1.15,0,-1,0,0.17,0,81,9445,85,28,91,1.376,0.0,687,4.78,14.0,0.0,1,38.9,6.33,29.1,0,0,0,1,0,0,250,250,0,52.961891,6.523255,0.0,20.6,10,3,1.5,0,0.0,-1,0.0,0.0,0.0,0,0.01,0.7141
42864,1625651324849,,,,,,,,0.03,0.05,1.05,0,-0,-0,0.06,,81,9852,85,28,92,1.382,0.0,682,4.7,13.9,0.0,1,39.5,6.51,29.7,0,0,0,1,0,0,250,250,0,,,,,,,,,,,,,,,,
42884,1625651324869,,,,,,,,0.06,0.17,0.98,0,-0,2,0.18,,80,9684,85,28,91,1.388,0.0,685,4.76,14.0,0.0,1,39.2,6.41,29.7,0,0,0,1,0,0,250,250,0,,,,,,,,,,,,,,,,
42904,1625651324889,,,,,,,,0.04,0.07,1.23,0,-1,-1,0.08,,80,9488,85,28,92,1.39,0.0,682,4.79,14.0,0.0,1,38.8,6.38,29.7,0,0,0,1,0,0,250,250,0,,,,,,,,,,,,,,,,
42924,1625651324909,,,,,,,,0.03,0.05,1.21,0,-1,-2,0.06,,80,9635,85,28,92,1.39,0.0,683,4.72,14.0,0.0,1,39.1,5.34,29.7,0,0,0,1,0,0,250,250,0,,,,,,,,,,,,,,,,
42944,1625651324929,0,2,45,47,32,31,5,0.06,0.16,1.11,0,-1,1,0.17,0,80,9403,85,28,92,1.391,0.0,681,4.8,13.9,0.0,1,38.8,6.38,29.7,0,0,0,1,0,0,250,250,0,52.961891,6.523255,0.0,20.6,10,3,1.5,0,0.0,-1,0.0,,0.0,0,0.01,0.7157
42964,1625651324949,,,,,,,,0.04,0.03,1.1,0,-1,-1,0.05,,80,9884,85,28,92,1.39,0.0,690,4.81,13.9,0.0,1,39.5,6.52,29.8,0,0,0,1,0,0,250,250,0,,,,,,,,,,,,,,,,
42984,1625651324969,,,,,,,,0.07,0.15,1.01,1,-0,2,0.16,,81,9669,85,28,91,1.399,0.0,685,4.78,14.0,0.0,1,39.2,6.38,29.8,0,0,0,1,0,0,250,250,0,,,,,,,,,,,,,,,,
43004,1625651324989,,,,,,,,0.07,0.09,1.26,0,-1,0,0.12,,80,9441,85,28,92,1.41,0.0,683,4.81,14.0,0.0,1,38.8,6.38,29.8,0,0,0,1,0,0,250,250,0,,,,,,,,,,,,,,,,
43024,1625651325001,,,,,,,,0.03,0.05,1.24,0,-1,-2,0.06,,81,9837,85,28,92,1.424,0.0,687,4.79,14.0,0.0,1,39.5,6.5,29.8,0,0,0,1,0,0,250,250,0,,,,,,,,,,,,,,,,
43044,1625651325021,-0,2,46,48,32,32,5,0.06,0.17,1.27,0,-1,-1,0.18,0,80,9674,85,28,91,1.433,0.0,693,4.8,14.0,0.0,1,39.2,5.3,29.8,0,0,0,1,0,0,250,250,0,52.961891,6.523255,0.0,20.6,10,3,1.5,0,0.0,-1,0.0,0.0,0.0,0,0.01,0.7174
43064,1625651325041,,,,,,,,0.02,0.06,1.16,0,-0,-2,0.06,,80,9474,85,28,92,1.437,0.0,687,4.72,14.0,0.0,1,38.8,6.38,28.0,0,0,0,1,0,0,250,250,0,,,,,,,,,,,,,,,,
43084,1625651325061,,,,,,,,0.05,0.13,1.06,0,0,1,0.14,,81,9699,85,28,92,1.435,0.0,677,4.79,13.9,0.0,1,39.2,6.5,28.0,0,0,0,1,0,0,250,250,0,,,,,,,,,,,,,,,,
43104,1625651325091,,,,,,,,0.02,-0.01,1.31,0,-1,-2,0.03,,80,9715,85,28,91,1.434,0.0,691,4.78,14.0,0.0,1,39.3,6.41,28.0,0,0,0,1,0,0,250,250,0,,,,,,,,,,,,,,,,
43124,1625651325111,,,,,,,,0.03,0.03,1.2,0,-1,-1,0.04,,80,9512,85,28,92,1.433,0.0,682,4.83,14.0,0.0,1,38.9,6.38,28.0,0,0,0,1,0,0,250,250,0,,,,,,,,,,,,,,,,
43144,1625651325131,1,0,46,47,32,32,5,0.05,0.1,1.23,0,-2,-1,0.11,0,81,9709,85,28,92,1.427,0.0,672,4.8,13.8,0.0,1,39.2,6.45,28.0,0,0,0,1,0,0,250,250,0,52.961891,6.523255,0.0,20.6,10,3,1.5,0,0.0,-1,0.0,,0.0,0,0.01,0.7191
43164,1625651325151,,,,,,,,0.04,0.03,1.13,0,-0,0,0.05,,80,9750,85,28,91,1.42,0.0,683,4.74,14.0,0.0,1,39.4,6.42,29.0,0,0,0,1,0,0,250,250,0,,,,,,,,,,,,,,,,
43184,1625651325171,,,,,,,,0.08,0.12,1.25,0,-1,1,0.14,,80,9517,85,28,91,1.415,0.0,683,4.79,14.0,0.0,1,39.0,6.33,29.0,0,0,0,1,0,0,250,250,0,,,,,,,,,,,,,,,,
43204,1625651325191,,,,,,,,0.04,0.03,1.46,0,-1,-1,0.05,,81,9580,85,28,92,1.41,0.0,678,4.76,13.6,0.0,1,39.0,5.32,29.0,0,0,0,1,0,0,250,250,0,,,,,,,,,,,,,,,,
43224,1625651325209,,,,,,,,0.06,0.09,1.37,0,-2,0,0.11,,81,9786,85,28,91,1.401,0.0,686,4.8,14.0,0.0,1,39.4,6.42,29.0,0,0,0,1,0,0,250,250,0,,,,,,,,,,,,,,,,
43244,1625651325229,0,1,46,47,32,31,5,0.06,-0.0,1.33,0,-1,-2,0.06,0,80,9546,85,28,91,1.389,0.0,691,4.8,14.0,0.0,1,39.0,5.25,29.0,0,0,0,1,0,0,250,250,0,52.961891,6.523255,0.0,20.6,10,3,1.5,0,0.0,-1,0.0,0.0,0.0,0,0.01,0.7207
43264,1625651325249,,,,,,,,0.03,-0.02,1.22,0,-0,-0,0.04,,81,9436,85,28,92,1.375,0.0,674,4.78,13.8,0.0,1,38.8,6.38,27.9,0,0,0,1,0,0,250,250,0,,,,,,,,,,,,,,,,
43284,1625651325269,,,,,,,,0.07,0.05,1.38,0,0,-0,0.08,,81,9786,85,28,92,1.366,0.0,686,4.75,14.0,0.0,1,39.4,6.5,27.9,0,0,0,1,0,0,250,250,0,,,,,,,,,,,,,,,,
43304,1625651325289,,,,,,,,0.02,-0.03,1.4,0,-0,-1,0.04,,81,9585,85,28,92,1.357,0.0,683,4.8,14.0,0.0,1,39.0,5.32,27.9,0,0,0,1,0,0,250,250,0,,,,,,,,,,,,,,,,
43324,1625651325309,,,,,,,,0.06,0.05,1.29,0,-1,1,0.08,,80,9384,85,28,92,1.354,0.0,679,4.82,14.0,0.0,1,38.8,5.29,27.9,0,0,0,1,0,0,250,250,0,,,,,,,,,,,,,,,,
43344,1625651325329,0,2,46,47,32,32,3,0.04,-0.01,1.32,0,-1,-1,0.04,0,81,9832,85,28,92,1.349,0.0,688,4.75,14.0,0.0,1,39.4,5.41,27.9,0,0,0,1,0,0,250,250,0,52.961891,6.523255,0.0,20.6,10,3,1.5,0,0.0,-1,0.0,,0.0,0,0.01,0.7224
43364,1625651325349,,,,,,,,0.04,0.07,1.21,0,0,1,0.08,,81,9610,85,28,92,1.346,0.0,682,4.79,14.0,0.0,1,39.0,6.42,28.6,0,0,0,1,0,0,250,250,0,,,,,,,,,,,,,,,,
43384,1625651325369,,,,,,,,0.08,0.09,1.28,0,-0,1,0.12,,81,9469,85,28,92,1.34,0.0,675,4.8,13.9,0.0,1,38.8,5.29,28.6,0,0,0,1,0,0,250,250,0,,,,,,,,,,,,,,,,
43404,1625651325389,,,,,,,,0.1,0.25,1.18,0,0,1,0.27,,81,9858,86,28,91,1.337,0.0,685,4.73,14.0,0.0,1,39.5,6.46,28.6,0,0,0,1,0,0,250,250,0,,,,,,,,,,,,,,,,
43424,1625651325408,,,,,,,,0.07,0.11,1.08,0,-1,2,0.13,,80,9610,86,28,91,1.334,0.0,687,4.81,14.0,0.0,1,39.1,5.28,28.6,0,0,0,1,0,0,250,250,0,,,,,,,,,,,,,,,,
43444,1625651325428,0,1,46,46,32,31,4,0.05,0.11,0.99,0,0,-1,0.12,0,81,9412,86,28,92,1.332,0.0,689,4.75,13.9,0.0,1,38.8,6.38,28.6,0,0,0,1,0,0,250,250,0,52.961891,6.523255,0.0,20.6,10,3,1.5,0,0.0,-1,0.0,0.0,0.0,0,0.01,0.7241
43464,1625651325448,,,,,,,,0.07,0.1,1.24,0,-0,1,0.12,,81,9889,86,28,92,1.33,0.0,684,4.75,14.0,0.0,1,39.5,6.51,29.9,0,0,0,1,0,0,250,250,0,,,,,,,,,,,,,,,,
43484,1625651325468,,,,,,,,0.03,0.07,1.18,0,-1,-2,0.08,,81,9630,86,28,91,1.331,0.0,692,4.76,14.0,0.0,1,39.2,6.37,29.9,0,0,0,1,0,0,250,250,0,,,,,,,,,,,,,,,,
43504,1625651325488,,,,,,,,0.09,0.16,1.08,0,-1,-0,0.18,,81,9426,86,28,92,1.332,0.0,683,4.77,13.9,0.0,1,38.8,5.29,29.9,0,0,0,1,0,0,250,250,0,,,,,,,,,,,,,,,,
43524,1625651325508,,,,,,,,0.05,0.02,0.99,0,-2,-0,0.06,,81,9847,86,28,91,1.332,0.0,680,4.78,14.0,0.0,1,39.5,5.37,29.9,0,0,0,1,0,0,250,250,0,,,,,,,,,,,,,,,,
43544,1625651325528,-1,2,46,46,32,31,5,0.1,0.1,0.91,0,-0,0,0.14,0,81,9615,87,28,91,1.336,0.0,682,4.79,14.0,0.0,1,39.1,5.28,29.9,0,0,0,1,0,0,250,250,0,52.961891,6.523255,0.0,20.6,10,3,1.5,0,0.0,-1,0.0,,0.0,0,0.01,0.7257
43564,1625651325548,,,,,,,,0.08,0.04,1.17,0,-1,2,0.09,,81,9370,87,28,91,1.337,0.0,679,4.81,13.8,0.0,1,38.9,6.33,27.5,0,0,0,1,0,0,250,250,0,,,,,,,,,,,,,,,,
43584,1625651325568,,,,,,,,0.05,-0.0,1.15,0,-1,-1,0.05,,81,9659,87,28,91,1.34,0.0,682,4.76,14.0,0.0,1,39.2,6.39,27.5,0,0,0,1,0,0,250,250,0,,,,,,,,,,,,,,,,
43604,1625651325588,,,,,,,,0.08,0.13,1.05,0,-1,0,0.15,,80,9436,87,28,92,1.342,0.0,681,4.76,14.0,0.0,1,38.8,6.38,27.5,0,0,0,1,0,0,250,250,0,,,,,,,,,,,,,,,,
43624,1625651325608,,,,,,,,0.08,0.02,1.06,0,-2,1,0.08,,81,9852,88,28,91,1.343,0.0,685,4.81,14.0,0.0,1,39.5,6.46,27.5,0,0,0,1,0,0,250,250,0,,,,,,,,,,,,,,,,
43644,1625651325628,0,0,46,47,32,31,5,0.08,0.08,0.97,0,-0,0,0.12,0,81,9615,88,28,91,1.345,0.0,690,4.78,14.0,0.0,1,39.1,5.28,27.5,0,0,0,1,0,0,250,250,0,52.961891,6.523255,0.0,20.6,10,3,1.5,0,0.0,-1,0.0,0.0,0.0,0,0.01,0.7274
43664,1625651325648,,,,,,,,0.11,0.11,1.1,0,-0,3,0.16,,81,9351,88,28,92,1.345,0.0,679,4.8,13.7,0.0,1,38.8,6.38,27.7,0,0,0,1,0,0,250,250,0,,,,,,,,,,,,,,,,
43684,1625651325668,,,,,,,,0.05,0.02,1.12,0,-1,-0,0.06,,81,9786,88,28,91,1.344,0.0,690,4.77,14.0,0.0,1,39.4,6.43,27.7,0,0,0,1,0,0,250,250,0,,,,,,,,,,,,,,,,
43704,1625651325688,,,,,,,,0.1,0.16,1.03,0,-0,2,0.19,,81,9527,88,28,91,1.346,0.0,687,4.79,14.0,0.0,1,39.0,6.34,27.7,0,0,0,1,0,0,250,250,0,,,,,,,,,,,,,,,,
43724,1625651325708,,,,,,,,0.1,0.04,1.07,1,-1,2,0.11,,81,9659,89,28,91,1.349,0.0,673,4.81,13.8,0.0,1,39.2,6.39,27.7,0,0,0,1,0,0,250,250,0,,,,,,,,,,,,,,,,
43744,1625651325728,0,2,46,48,32,32,4,0.1,0.05,0.98,0,0,0,0.12,0,81,9640,89,28,92,1.353,0.0,687,4.78,14.0,0.0,1,39.1,6.43,27.7,0,0,0,1,0,0,250,250,0,52.961891,6.523255,0.0,20.6,10,3,1.5,0,0.0,-1,0.0,,0.0,0,0.01,0.7291
43764,1625651325748,,,,,,,,0.13,0.09,1.16,0,1,3,0.16,,81,9571,89,28,92,1.36,0.0,675,4.8,13.7,0.0,1,39.0,6.38,27.9,0,0,0,1,0,0,250,250,0,,,,,,,,,,,,,,,,
43784,1625651325768,,,,,,,,0.09,0.02,1.19,0,0,-1,0.09,,81,9699,89,28,91,1.363,0.0,686,4.77,13.9,0.0,1,39.3,6.4,27.9,0,0,0,1,0,0,250,250,0,,,,,,,,,,,,,,,,
43804,1625651325788,,,,,,,,0.12,0.1,1.09,0,-1,0,0.15,,81,9389,89,28,91,1.352,0.0,681,4.75,13.9,0.0,1,38.9,5.24,27.9,0,0,0,1,0,0,250,250,0,,,,,,,,,,,,,,,,
43824,1625651325808,,,,,,,,0.12,-0.02,1.15,0,-1,1,0.12,,81,9868,89,28,91,1.333,0.0,686,4.76,14.0,0.0,1,39.5,6.46,27.9,0,0,0,1,0,0,250,250,0,,,,,,,,,,,,,,,,
43844,1625651325828,0,1,46,48,32,31,5,0.11,-0.0,1.06,0,0,-0,0.11,0,81,9517,89,28,91,1.324,0.0,686,4.75,14.0,0.0,1,39.0,6.33,27.9,0,0,0,1,0,0,250,250,0,52.961891,6.523255,0.0,20.6,10,3,1.5,0,0.0,-1,0.0,0.0,0.0,0,0.01,0.7307
43864,1625651325848,,,,,,,,0.15,0.06,1.25,0,1,2,0.16,,81,9610,90,28,92,1.31,0.0,679,4.78,13.9,0.0,1,39.0,6.42,27.9,0,0,0,1,0,0,250,250,0,,,,,,,,,,,,,,,,
43884,1625651325868,,,,,,,,0.11,-0.05,1.38,0,-1,0,0.12,,81,9464,90,28,91,1.301,0.0,685,4.76,13.9,0.0,1,38.9,6.33,28.6,0,0,0,1,0,0,250,250,0,,,,,,,,,,,,,,,,
43904,1625651325888,,,,,,,,0.13,0.08,1.26,0,0,1,0.15,,81,9709,90,28,91,1.292,0.0,680,4.71,14.0,0.0,1,39.3,6.4,28.6,0,0,0,1,0,0,250,250,0,,,,,,,,,,,,,,,,
43924,1625651325908,,,,,,,,0.18,0.04,1.28,1,-0,2,0.18,,81,9342,90,28,91,1.287,0.0,686,4.78,13.9,0.0,1,38.9,6.33,28.6,0,0,0,1,0,0,250,250,0,,,,,,,,,,,,,,,,
43944,1625651325928,0,3,46,49,32,31,4,0.15,-0.1,1.21,0,0,-1,0.18,0,81,9625,90,28,91,1.282,0.0,692,4.8,14.0,0.0,1,39.2,6.37,28.6,0,0,0,1,0,0,250,250,0,52.961891,6.523255,0.0,20.6,10,3,1.5,0,0.0,-1,0.0,,0.0,0,0.01,0.7324
43964,1625651325948,,,,,,,,0.16,0.02,1.11,0,1,1,0.16,,81,9455,91,28,92,1.276,0.0,674,4.72,13.8,0.0,1,38.7,6.33,28.6,0,0,0,1,0,0,250,2104,10,,,,,,,,,,,,,,,,
43984,1625651325968,,,,,,,,0.17,0.01,1.33,1,1,3,0.17,,81,9532,91,28,91,1.27,1.0,677,4.78,14.0,0.0,1,38.7,6.34,27.9,0,0,0,1,0,0,250,-30064,10,,,,,,,,,,,,,,,,
44004,1625651325988,,,,,,,,0.16,-0.12,1.37,0,-1,-0,0.2,,81,9517,91,28,91,1.261,1.0,675,4.71,13.8,0.0,1,38.5,6.33,27.9,0,0,0,1,0,0,250,-28648,10,,,,,,,,,,,,,,,,
44024,1625651325998,,,,,,,,0.2,0.03,1.27,0,-1,-0,0.2,,81,9493,92,28,91,1.256,1.0,683,4.78,14.0,0.0,1,38.2,6.33,27.9,0,0,0,1,0,0,250,2524,10,,,,,,,,,,,,,,,,
44044,1625651326018,0,1,47,50,31,30,4,0.24,0.01,1.33,0,-1,1,0.24,0,81,9699,93,28,91,1.254,1.0,681,4.81,14.0,0.0,1,39.3,6.37,27.9,0,0,0,1,0,0,250,-22519,10,52.961891,6.523255,0.0,20.6,10,3,1.5,0,0.0,-1,0.0,0.0,0.0,0,0.01,0.7341
44064,1625651326038,,,,,,,,0.25,-0.16,1.3,0,-1,-2,0.29,,81,9263,94,28,91,1.255,1.0,682,4.73,13.9,0.0,1,37.9,6.33,27.1,0,0,0,1,0,0,250,2524,10,,,,,,,,,,,,,,,,
44084,1625651326058,,,,,,,,0.28,-0.06,1.19,0,-0,-1,0.29,,81,9517,94,28,91,1.255,2.0,681,4.72,13.9,0.0,1,39.0,6.33,27.1,0,0,0,1,0,0,250,-28648,20,,,,,,,,,,,,,,,,
44104,1625651326078,,,,,,,,0.36,0.05,1.09,0,0,2,0.36,,81,9036,95,28,91,1.252,2.0,666,4.81,13.8,0.0,1,37.6,6.33,27.1,0,0,0,1,0,0,250,-28648,20,,,,,,,,,,,,,,,,
44124,1625651326098,,,,,,,,0.36,0.08,1.0,0,-0,1,0.37,,81,8741,95,28,91,1.248,2.0,669,4.81,13.8,0.0,1,40.1,6.27,27.1,0,0,0,1,0,0,250,-6528,20,,,,,,,,,,,,,,,,
44144,1625651326118,0,0,52,54,26,27,4,0.37,-0.01,1.1,0,-2,-1,0.37,0,81,8404,95,28,91,1.243,3.6,660,4.78,13.8,0.0,1,41.1,6.1,27.1,0,0,0,1,0,0,250,-9203,36,52.961891,6.523255,0.0,20.6,10,3,1.5,0,0.0,-1,0.0,,0.0,0,0.01,0.7357
44164,1625651326138,,,,,,,,0.42,0.05,1.08,0,-0,1,0.43,,81,8311,95,28,92,1.239,3.6,655,4.68,13.8,636.1,1,40.4,6.0,22.9,0,0,0,1,0,0,250,8488,36,,,,,,,,,,,,,,,,
44184,1625651326158,,,,,,,,0.4,0.05,1.07,0,-0,1,0.41,,81,8745,96,28,92,1.235,5.0,661,4.83,13.8,636.1,1,40.6,6.32,22.9,0,0,0,1,0,0,250,-6528,50,,,,,,,,,,,,,,,,
44204,1625651326098,,,,,,,,0.44,0.16,0.98,0,0,3,0.47,,81,9305,96,28,91,1.223,5.0,675,4.78,13.8,636.1,1,38.9,6.33,22.9,0,0,0,1,0,0,250,2088,50,,,,,,,,,,,,,,,,
44224,1625651326196,,,,,,,,0.51,0.12,1.09,0,0,5,0.52,,81,9503,96,28,90,1.198,5.8,676,4.77,13.9,636.1,1,39.0,6.28,22.9,0,0,0,1,0,0,250,-28648,58,,,,,,,,,,,,,,,,
44244,1625651326216,-0,2,53,56,27,27,3,0.49,-0.05,1.03,-0,-0,1,0.49,0,81,9441,97,28,91,1.177,5.8,681,4.72,13.8,636.1,1,38.0,6.33,22.9,0,0,0,1,0,0,250,14504,58,52.96188,6.523264,2.64,44.2,10,3,1.5,0,0.0,-1,0.0,0.0,0.0,0,0.02,0.7374
44264,1625651326236,,,,,,,,0.5,0.09,0.94,-0,-0,2,0.51,,81,9595,98,28,91,1.162,6.5,682,4.76,13.9,636.1,1,38.2,6.36,22.9,0,0,0,1,0,0,250,6274,65,,,,,,,,,,,,,,,,
44284,1625651326256,,,,,,,,0.54,0.16,1.0,0,0,4,0.56,,81,9309,98,28,91,1.142,6.5,673,4.8,13.8,435.3,1,37.7,6.33,28.3,0,0,0,1,0,0,250,6274,73,,,,,,,,,,,,,,,,
44304,1625651326276,,,,,,,,0.51,0.03,1.16,0,-0,2,0.51,,81,9580,99,28,91,1.123,7.3,675,4.77,13.7,435.3,1,37.7,6.36,28.3,0,0,0,1,0,0,250,-8186,73,,,,,,,,,,,,,,,,
44324,1625651326308,,,,,,,,0.5,0.05,1.07,-0,-0,-0,0.5,,81,9305,99,28,91,1.107,8.0,677,4.71,13.8,435.3,1,37.4,6.33,28.3,0,0,0,1,0,0,250,2088,80,,,,,,,,,,,,,,,,
44344,1625651326328,-1,2,53,56,26,26,4,0.57,0.21,1.0,-0,-0,2,0.61,0,81,9590,99,28,91,1.091,8.6,681,4.8,14.0,435.3,1,39.1,6.36,28.3,0,0,0,1,0,0,250,6274,86,52.96188,6.523266,4.28,44.2,10,3,1.4,0,0.0,-1,0.0,,0.0,0,0.02,0.7391
44364,1625651326348,,,,,,,,0.63,0.14,0.97,-0,-0,3,0.64,,81,9200,99,28,91,1.078,9.4,668,4.7,13.7,287.2,1,37.1,6.33,27.0,0,0,0,1,0,0,250,-8187,94,,,,,,,,,,,,,,,,
44384,1625651326368,,,,,,,,0.59,0.04,0.99,-0,0,0,0.59,,81,9379,99,28,92,1.075,9.4,677,4.7,13.7,287.2,1,38.8,6.33,27.0,0,0,0,1,0,0,250,-9072,94,,,,,,,,,,,,,,,,
44404,1625651326388,,,,,,,,0.56,0.03,0.91,-1,1,-0,0.56,,81,9426,99,28,91,1.072,9.9,682,4.72,14.0,287.2,1,37.0,6.33,27.0,0,0,0,1,0,0,250,-22519,99,,,,,,,,,,,,,,,,
44424,1625651326409,,,,,,,,0.57,0.2,0.83,-0,2,3,0.61,,81,9379,99,28,92,1.068,10.6,676,4.77,13.8,287.2,1,36.8,6.38,27.0,0,0,0,1,0,0,250,14504,106,,,,,,,,,,,,,,,,
44444,1625651326429,-0,2,53,56,27,26,4,0.59,0.21,1.0,-0,2,3,0.62,0,81,9342,100,28,91,1.064,11.0,673,4.8,13.9,287.2,1,36.8,6.33,27.0,0,0,0,1,0,0,250,6274,110,52.96188,6.523269,6.81,44.3,10,3,1.4,0,0.0,-1,0.0,0.0,0.0,0,0.02,0.7407
44464,1625651326449,,,,,,,,0.57,0.1,1.15,-1,1,0,0.58,,81,9375,100,28,92,1.073,11.6,672,4.69,13.8,237.0,1,38.8,6.33,27.5,0,0,0,1,0,0,250,-28648,116,,,,,,,,,,,,,,,,
44484,1625651326469,,,,,,,,0.56,0.13,1.11,-1,1,-0,0.58,,81,9541,100,28,91,1.077,12.2,681,4.71,13.9,237.0,1,36.6,6.34,27.5,0,0,0,1,0,0,250,-2934,122,,,,,,,,,,,,,,,,
44504,1625651326489,,,,,,,,0.6,0.22,1.05,-1,1,1,0.64,,81,9200,100,28,92,1.086,13.2,667,4.8,13.8,237.0,1,36.3,6.38,27.5,0,0,0,1,0,0,250,-9212,132,,,,,,,,,,,,,,,,
44524,1625651326507,,,,,,,,0.64,0.3,0.96,-1,1,3,0.71,,81,9417,100,28,91,1.093,13.5,677,4.75,13.7,237.0,1,36.4,6.33,27.5,0,0,0,1,0,0,250,-22519,135,,,,,,,,,,,,,,,,
44544,1625651326527,-0,2,54,56,26,25,4,0.64,0.13,0.97,-1,1,1,0.65,0,81,9319,100,28,91,1.097,14.0,682,4.78,14.0,237.0,1,36.3,6.33,27.5,0,0,0,1,0,0,250,2088,140,52.961884,6.523272,9.12,44.2,10,3,1.5,0,0.0,-1,0.0,,0.0,0,0.02,0.7424
44564,1625651326547,,,,,,,,0.6,0.09,1.01,-1,1,-3,0.61,,81,9277,100,28,91,1.102,14.7,674,4.69,13.7,185.0,1,36.3,6.33,27.2,0,0,0,1,0,0,250,-22519,147,,,,,,,,,,,,,,,,
44584,1625651326567,,,,,,,,0.6,0.19,0.93,-1,3,-1,0.63,,81,9484,100,28,91,1.108,15.5,673,4.8,13.8,185.0,1,36.1,6.33,27.2,0,0,0,1,0,0,250,-22519,155,,,,,,,,,,,,,,,,
44604,1625651326587,,,,,,,,0.63,0.25,0.95,-1,3,1,0.67,,81,9464,100,28,91,1.111,15.9,666,4.76,13.7,185.0,1,36.0,6.33,27.2,0,0,0,1,0,0,250,2104,159,,,,,,,,,,,,,,,,
44624,1625651326605,,,,,,,,0.62,0.16,1.14,-1,2,-1,0.64,,81,9360,100,27,91,1.109,16.4,675,4.79,13.9,185.0,1,38.9,6.39,27.2,0,0,0,1,0,0,250,-28648,166,,,,,,,,,,,,,,,,
44644,1625651326625,0,2,54,57,26,25,4,0.58,0.11,1.09,-1,1,-4,0.59,0,81,9503,100,28,91,1.105,17.2,670,4.7,13.8,185.0,1,35.8,6.33,27.2,0,0,0,1,0,0,250,-28648,172,52.961884,6.523275,11.54,44.1,10,3,1.5,0,0.0,-1,0.0,0.0,0.0,0,0.02,0.7441
44664,1625651326645,,,,,,,,0.6,0.22,0.99,-1,2,-1,0.64,,81,9124,100,27,92,1.102,18.0,672,4.77,13.8,151.1,1,35.5,6.44,27.2,0,0,0,1,0,0,250,-14,180,,,,,,,,,,,,,,,,
44684,1625651326665,,,,,,,,0.65,0.29,0.91,-1,2,1,0.71,,81,9182,100,28,91,1.097,18.4,670,4.81,13.8,151.1,1,35.6,6.33,27.2,0,0,0,1,0,0,250,-8187,184,,,,,,,,,,,,,,,,
44704,1625651326685,,,,,,,,0.7,0.31,0.89,-1,2,2,0.77,,81,9403,100,27,91,1.094,19.1,673,4.79,13.7,151.1,1,35.6,6.44,27.2,0,0,0,1,0,0,250,2524,191,,,,,,,,,,,,,,,,
44724,1625651326709,,,,,,,,0.69,0.17,0.95,-1,2,-0,0.72,,81,9323,100,27,91,1.092,20.0,683,4.75,13.9,151.1,1,35.5,6.39,27.2,0,0,0,1,0,0,250,-32248,200,,,,,,,,,,,,,,,,
44744,1625651326729,0,2,55,56,26,25,4,0.71,0.12,0.94,-1,2,-3,0.72,0,81,9259,100,27,92,1.088,20.1,671,4.8,13.8,151.1,1,35.4,6.44,27.2,0,0,0,1,0,0,250,2524,207,52.961884,6.52328,12.87,44.0,10,3,1.5,0,0.0,-1,0.0,,0.0,0,0.02,0.7457
44764,1625651326749,,,,,,,,0.75,0.15,0.86,-1,3,-1,0.76,,81,9455,100,27,91,1.085,20.7,671,4.76,13.8,135.2,1,35.4,6.39,28.0,0,0,0,1,0,0,250,-32248,207,,,,,,,,,,,,,,,,
44784,1625651326769,,,,,,,,0.82,0.15,0.94,-1,2,2,0.83,,81,9403,100,27,91,1.082,21.6,671,4.74,13.7,135.2,1,35.3,6.39,28.0,0,0,0,1,0,0,250,2524,216,,,,,,,,,,,,,,,,
44804,1625651326789,,,,,,,,0.84,0.02,1.19,-1,0,-1,0.84,,81,9337,100,27,91,1.08,22.2,677,4.73,14.0,135.2,1,38.9,6.39,28.0,0,0,0,1,0,0,250,-32248,222,,,,,,,,,,,,,,,,
44824,1625651326809,,,,,,,,0.79,-0.06,1.39,-1,-1,-4,0.79,,81,9300,100,27,92,1.078,22.7,666,4.68,13.7,135.2,1,35.0,6.44,28.0,0,0,0,1,0,0,250,10408,227,,,,,,,,,,,,,,,,
44844,1625651326829,-1,2,55,56,26,25,6,0.81,0.02,1.28,-1,-0,-2,0.81,0,81,9479,100,27,92,1.075,23.3,674,4.76,13.9,135.2,1,34.8,6.44,28.0,0,0,0,1,0,0,250,6274,233,52.961884,6.523285,16.25,43.9,10,3,1.9,0,0.0,-1,0.0,0.0,0.0,0,0.02,0.7474
44864,1625651326849,,,,,,,,0.87,0.06,1.21,-0,0,1,0.88,,81,9209,100,27,91,1.073,24.2,668,4.8,13.8,112.3,1,34.8,6.39,27.2,0,0,0,1,0,0,250,-9212,242,,,,,,,,,,,,,,,,
44884,1625651326869,,,,,,,,0.93,0.04,1.27,-0,0,-0,0.94,,81,9379,100,27,91,1.069,24.7,667,4.78,13.7,112.3,1,34.8,6.39,27.2,0,0,0,1,0,0,250,-9072,250,,,,,,,,,,,,,,,,
44904,1625651326889,,,,,,,,0.92,-0.1,1.17,-0,1,-1,0.92,,81,9431,100,27,91,1.065,25.6,678,4.72,13.9,112.3,1,34.7,6.39,27.2,0,0,0,1,0,0,250,14504,256,,,,,,,,,,,,,,,,
44924,1625651326909,,,,,,,,0.9,-0.1,1.07,0,1,-1,0.91,,81,9291,100,27,92,1.061,26.0,673,4.73,13.8,112.3,1,34.5,6.44,27.2,0,0,0,1,0,0,250,10408,260,,,,,,,,,,,,,,,,
44944,1625651326929,0,0,55,58,26,25,7,0.93,0.03,0.98,1,2,3,0.93,0,81,9527,100,27,91,1.056,26.6,672,4.8,13.9,112.3,1,34.5,6.4,27.2,0,0,0,1,0,0,250,-32248,266,52.961887,6.523292,20.08,43.8,10,3,1.9,0,0.0,-1,0.0,,0.0,0,0.02,0.7491
44964,1625651326949,,,,,,,,0.99,-0.01,1.14,1,1,2,0.99,,81,9295,100,27,91,1.049,27.6,663,4.81,13.7,112.3,1,38.9,6.39,27.2,0,0,0,1,0,0,250,10408,276,,,,,,,,,,,,,,,,
44984,1625651326969,,,,,,,,0.98,-0.04,1.34,1,-1,-0,0.98,,81,9375,100,27,91,1.042,28.2,670,4.74,13.6,99.6,1,34.2,6.39,27.5,0,0,0,1,0,0,250,-28648,282,,,,,,,,,,,,,,,,
45004,1625651326989,,,,,,,,0.95,-0.05,1.29,2,-2,-1,0.95,,81,9474,100,27,91,1.035,28.5,669,4.71,14.0,99.6,1,38.9,6.39,27.5,0,0,0,1,0,0,250,-32248,289,,,,,,,,,,,,,,,,
45024,1625651326999,,,,,,,,0.98,0.06,1.19,2,-1,2,0.99,,81,9365,100,27,91,1.028,29.1,670,4.79,13.7,99.6,1,33.9,6.39,27.5,0,0,0,1,0,0,250,-28648,291,,,,,,,,,,,,,,,,
45044,1625651327019,-0,3,55,58,25,24,6,1.04,0.0,1.31,3,-1,1,1.04,0,81,9503,100,27,91,1.025,30.1,668,4.73,13.9,99.6,1,39.0,6.39,27.5,0,0,0,1,0,0,250,-28648,301,52.961891,6.5233,23.27,43.7,10,3,1.9,0,0.0,-1,0.0,0.0,0.0,0,0.02,0.7507
45064,1625651327039,,,,,,,,1.05,-0.02,1.33,3,-1,-1,1.05,,81,9204,100,27,92,1.02,30.6,671,4.76,13.8,89.5,1,33.5,6.44,27.4,0,0,0,1,0,0,250,-8187,308,,,,,,,,,,,,,,,,
45084,1625651327059,,,,,,,,1.02,-0.11,1.3,3,-1,-2,1.03,,81,9305,100,27,91,1.015,31.2,661,4.78,13.8,89.5,1,33.6,6.39,27.4,0,0,0,1,0,0,250,2088,312,,,,,,,,,,,,,,,,
45104,1625651327079,,,,,,,,0.98,-0.02,1.19,4,-0,-1,0.98,,81,9342,100,27,91,1.01,32.1,669,4.76,13.8,89.5,1,33.5,6.39,27.4,0,0,0,1,0,0,250,6274,321,,,,,,,,,,,,,,,,
45124,1625651327109,,,,,,,,1.03,0.11,1.1,4,0,2,1.04,,81,9412,100,27,91,1.008,33.0,663,4.8,13.8,89.5,1,33.4,6.39,27.4,0,0,0,1,0,0,250,14504,330,,,,,,,,,,,,,,,,
45144,1625651327129,0,2,56,59,26,24,4,1.01,0.02,1.32,4,-1,-1,1.01,0,81,9412,100,27,91,1.005,33.2,677,4.77,13.9,89.5,1,33.3,6.39,27.4,0,0,0,1,0,0,250,-22519,332,52.961899,6.523309,26.57,43.6,10,3,1.9,0,0.0,-1,0.0,,0.0,0,0.02,0.7524
45164,1625651327149,,,,,,,,0.99,-0.05,1.47,5,-1,-2,1.0,,81,9333,100,27,92,1.003,34.0,671,4.68,13.7,89.5,1,33.1,6.39,27.4,0,0,0,1,0,0,250,-32248,340,,,,,,,,,,,,,,,,
45184,1625651327169,,,,,,,,0.98,-0.01,1.39,5,-2,-1,0.98,,81,9328,100,27,92,1.001,34.6,665,4.76,13.8,81.7,1,33.0,6.44,27.8,0,0,0,1,0,0,250,-32248,346,,,,,,,,,,,,,,,,
45204,1625651327189,,,,,,,,1.01,0.15,1.27,6,-2,1,1.02,,81,9360,100,27,91,1.004,35.5,671,4.76,13.7,81.7,1,33.0,6.39,27.8,0,0,0,1,0,0,250,-28648,355,,,,,,,,,,,,,,,,
45224,1625651327209,,,,,,,,1.04,0.09,1.22,6,-2,-1,1.05,,81,9464,100,27,91,1.008,36.2,671,4.69,13.9,81.7,1,33.0,6.39,27.8,0,0,0,1,0,0,250,2104,362,,,,,,,,,,,,,,,,
45244,1625651327229,1,3,56,57,25,24,-3,0.98,0.03,1.3,6,-2,-4,0.98,0,81,9286,100,27,91,1.011,37.0,672,4.7,13.6,81.7,1,32.8,6.39,27.8,0,0,0,1,0,0,250,-22519,370,52.961903,6.523319,30.26,43.5,10,3,1.9,0,0.0,-1,0.0,0.0,0.0,0,0.02,0.7541
45264,1625651327249,,,,,,,,0.96,0.03,1.19,6,-1,-3,0.96,,81,9268,100,27,91,1.012,37.8,662,4.73,13.8,81.7,1,32.8,6.39,27.8,0,0,0,1,0,0,250,2524,380,,,,,,,,,,,,,,,,
45284,1625651327269,,,,,,,,0.93,0.1,1.09,6,-0,-0,0.94,,81,9323,100,27,91,1.011,38.9,667,4.78,13.8,72.4,1,38.9,6.44,27.4,0,0,0,1,0,0,250,6274,389,,,,,,,,,,,,,,,,
45304,1625651327289,,,,,,,,0.95,0.2,1.1,5,-0,0,0.97,,81,9455,100,27,91,1.009,39.4,663,4.8,13.8,72.4,1,32.6,6.39,27.4,0,0,0,1,0,0,250,2104,394,,,,,,,,,,,,,,,,
45324,1625651327307,,,,,,,,0.92,0.1,1.28,5,-2,-3,0.93,,81,9227,100,27,92,1.009,39.8,659,4.75,13.8,72.4,1,32.4,6.39,27.4,0,0,0,1,0,0,250,1248,398,,,,,,,,,,,,,,,,
45344,1625651327327,0,2,56,58,25,24,-7,0.89,0.02,1.38,4,-2,-4,0.89,0,81,9426,100,27,91,1.01,41.3,670,4.7,13.7,72.4,1,38.9,6.39,27.4,0,0,0,1,0,509,2524,-22519,412,52.961906,6.52333,32.98,43.4,10,3,1.7,0,0.0,-1,0.0,,0.0,0,0.02,0.7557
45364,1625651327347,,,,,,,,0.91,0.15,1.26,3,-2,-2,0.92,,81,9488,100,27,91,1.011,42.0,673,4.77,13.7,66.9,1,38.9,6.39,28.1,0,0,0,1,0,489,13040,-9212,420,,,,,,,,,,,,,,,,
45384,1625651327367,,,,,,,,0.89,0.03,1.25,2,-1,-3,0.89,,81,9333,100,27,91,1.012,42.8,669,4.78,13.7,66.9,1,38.9,6.39,28.1,0,0,0,1,0,554,-4082,6274,428,,,,,,,,,,,,,,,,
45404,1625651327387,,,,,,,,0.89,-0.1,1.3,1,-2,-6,0.89,,81,9356,100,27,91,1.011,43.5,667,4.72,13.6,66.9,1,38.9,6.39,28.1,0,0,0,1,0,549,1779,-9212,435,,,,,,,,,,,,,,,,
45424,1625651327410,,,,,,,,0.94,-0.06,1.19,0,-1,-5,0.94,,81,9384,100,27,91,1.012,44.5,665,4.78,13.8,66.9,1,38.9,6.39,28.1,0,0,0,1,0,509,-768,-28648,447,,,,,,,,,,,,,,,,
45444,1625651327430,0,1,56,57,24,24,-6,0.99,-0.06,1.35,-1,-0,-2,0.99,0,81,9375,100,27,91,1.008,44.8,666,4.78,13.8,66.9,1,38.9,6.39,28.1,0,0,0,1,0,518,21432,-3082,448,52.961914,6.523343,36.67,43.3,10,3,1.7,0,0.0,-1,0.0,0.0,0.0,0,0.02,0.7574
45464,1625651327450,,,,,,,,0.96,-0.2,1.57,-1,-0,-2,0.98,,81,9370,100,27,91,1.004,45.9,662,4.8,13.7,66.9,1,38.9,6.39,28.1,0,0,0,1,0,554,14488,16383,459,,,,,,,,,,,,,,,,
45484,1625651327470,,,,,,,,0.97,-0.24,1.59,-2,-1,-6,1.0,,81,9455,100,27,91,0.999,47.0,670,4.75,13.8,60.3,1,38.9,6.39,27.7,0,0,0,1,0,520,-26615,-28648,463,,,,,,,,,,,,,,,,
45504,1625651327490,,,,,,,,1.05,-0.15,1.46,-3,-1,-5,1.06,,81,9537,100,27,91,0.996,47.6,670,4.76,13.7,60.3,1,39.0,6.4,27.7,0,0,0,1,0,509,16408,2104,475,,,,,,,,,,,,,,,,
45524,1625651327510,,,,,,,,1.05,-0.27,1.45,-3,-1,-4,1.08,,81,9541,100,27,91,0.995,48.7,667,4.77,13.7,60.3,1,39.0,6.4,27.7,0,0,0,1,0,568,3576,1779,487,,,,,,,,,,,,,,,,
45544,1625651327530,0,1,56,57,24,24,-4,1.05,-0.28,1.33,-4,-1,-5,1.09,0,81,9625,100,27,91,0.995,48.8,668,4.71,13.7,60.3,1,39.2,6.43,27.7,0,0,0,1,0,539,32033,-506,488,52.961922,6.523356,40.76,43.1,10,3,1.7,0,0.0,-1,0.0,,0.0,0,0.03,0.7591
45564,1625651327550,,,,,,,,1.06,-0.25,1.45,-4,-0,-1,1.09,,81,9654,100,27,90,0.994,49.8,661,4.75,13.7,57.4,1,39.2,6.4,28.6,0,0,0,1,0,519,-6441,-9072,494,,,,,,,,,,,,,,,,
45584,1625651327570,,,,,,,,1.01,-0.26,1.42,-4,-2,-5,1.04,,81,9600,100,27,90,0.993,50.3,662,4.75,13.6,57.4,1,39.1,6.37,28.6,0,0,0,1,0,557,-22519,2104,503,,,,,,,,,,,,,,,,
45604,1625651327590,,,,,,,,1.07,-0.13,1.3,-4,-2,-4,1.07,,81,9625,100,27,90,0.989,51.1,668,4.78,13.7,57.4,1,39.2,6.43,28.6,0,0,0,1,0,553,-28648,1780,511,,,,,,,,,,,,,,,,
45624,1625651327608,,,,,,,,1.05,-0.26,1.23,-4,-2,-5,1.08,,81,9704,100,27,91,0.986,51.7,678,4.74,13.7,57.4,1,39.3,6.41,28.6,0,0,0,1,0,535,-4054,6274,517,,,,,,,,,,,,,,,,
45644,1625651327628,1,1,56,56,24,24,0,1.07,-0.18,1.16,-4,-0,-3,1.08,0,81,9796,100,27,90,0.984,52.5,671,4.73,13.8,57.4,1,39.4,6.45,28.6,0,0,0,1,0,545,-3482,14504,525,52.961926,6.523371,44.1,43.0,10,3,1.8,0,0.0,-1,0.0,0.0,0.0,0,0.03,0.7607
45664,1625651327648,,,,,,,,0.99,-0.22,1.4,-4,-2,-5,1.02,,81,9852,100,27,90,0.981,53.3,670,4.75,13.6,55.3,1,39.5,6.47,29.5,0,0,0,1,0,564,14504,-18032,533,,,,,,,,,,,,,,,,
45684,1625651327668,,,,,,,,1.05,-0.08,1.51,-3,-2,-3,1.05,,81,9968,100,27,89,0.976,54.4,681,4.78,13.7,55.3,1,39.6,6.51,29.5,0,0,0,1,0,564,-30064,-23623,535,,,,,,,,,,,,,,,,
45704,1625651327688,,,,,,,,1.03,-0.1,1.39,-3,0,-1,1.03,,81,10059,100,27,89,0.973,54.3,666,4.74,13.8,55.3,1,39.9,6.37,29.5,0,0,0,1,0,568,-8186,-2934,543,,,,,,,,,,,,,,,,
45724,1625651327706,,,,,,,,0.98,-0.14,1.6,-2,-0,-3,0.99,,81,10162,100,27,88,0.969,55.0,669,4.75,13.7,55.3,1,40.2,6.21,29.5,0,0,0,1,0,571,-32248,259,547,,,,,,,,,,,,,,,,
45744,1625651327726,0,2,56,57,25,24,0,0.94,-0.15,1.63,-2,-1,-5,0.95,0,81,10290,100,27,88,0.964,55.6,681,4.75,13.7,55.3,1,40.7,6.21,29.5,0,0,0,1,0,571,-506,30208,556,52.961933,6.523387,47.65,42.9,10,3,1.8,0,0.0,-1,0.0,,0.0,0,0.03,0.7624
45764,1625651327746,,,,,,,,0.91,-0.21,1.83,-2,-1,-4,0.93,,81,10434,100,27,88,0.957,56.3,671,4.76,13.6,55.3,1,41.2,6.21,29.5,0,0,0,1,0,581,-32504,8488,560,,,,,,,,,,,,,,,,
45784,1625651327766,,,,,,,,0.91,-0.21,1.82,-1,-2,-4,0.93,,81,10545,100,27,87,0.948,56.8,677,4.74,13.7,53.5,1,41.4,6.03,30.0,0,0,0,1,0,590,-3190,-12040,571,,,,,,,,,,,,,,,,
45804,1625651327786,,,,,,,,0.9,-0.21,2.0,-1,-1,-2,0.93,,81,10605,100,27,86,0.937,57.4,678,4.74,13.7,53.5,1,41.4,5.82,30.0,0,0,0,1,0,617,-8188,19621,576,,,,,,,,,,,,,,,,
45824,1625651327806,,,,,,,,0.9,-0.32,1.87,-1,-3,-4,0.95,,81,10720,100,27,86,0.93,58.6,686,4.75,13.7,53.5,1,41.7,5.73,30.0,0,0,0,1,0,601,30208,-768,578,,,,,,,,,,,,,,,,
45844,1625651327826,-1,2,56,57,26,25,-2,0.9,-0.31,2.0,-1,-3,-4,0.96,0,81,10819,100,27,86,0.923,58.7,681,4.78,13.7,53.5,1,42.0,5.65,30.0,0,0,0,1,0,604,-12040,17740,579,52.961945,6.523404,51.03,42.8,10,3,1.8,0,0.0,-1,0.0,0.0,0.0,0,0.03,0.7641
45864,1625651327846,,,,,,,,0.9,-0.25,1.83,-1,-2,-2,0.94,,81,10901,100,27,86,0.916,59.9,682,4.74,13.7,47.3,1,42.2,5.58,28.2,0,0,0,1,0,608,30227,28675,596,,,,,,,,,,,,,,,,
45884,1625651327866,,,,,,,,0.9,-0.22,1.98,-1,-4,-3,0.93,,81,10971,100,27,86,0.911,60.0,684,4.77,13.7,47.3,1,42.4,5.53,28.2,0,0,0,1,0,617,-3210,269,600,,,,,,,,,,,,,,,,
45904,1625651327886,,,,,,,,0.88,-0.23,2.12,-1,-2,-3,0.91,,81,11081,100,27,86,0.904,61.3,683,4.74,13.6,47.3,1,42.6,5.5,28.2,0,0,0,1,0,622,-3820,17336,601,,,,,,,,,,,,,,,,
45924,1625651327910,,,,,,,,0.8,-0.16,1.94,-1,-0,0,0.81,,81,11174,100,27,87,0.903,61.2,693,4.74,13.7,47.3,1,42.7,5.65,28.2,0,0,0,1,0,633,30227,966,612,,,,,,,,,,,,,,,,
45944,1625651327930,0,3,56,56,26,25,-2,0.84,-0.27,2.01,-1,-3,-3,0.88,0,81,11247,100,27,87,0.905,61.2,695,4.73,13.7,47.3,1,42.7,5.65,28.2,0,0,0,1,0,635,19621,-10251,612,52.961952,6.523422,54.24,42.7,10,3,1.7,0,0.0,-1,0.0,,0.0,0,0.03,0.7657
45964,1625651327950,,,,,,,,0.81,-0.13,2.07,-1,-2,-2,0.82,,81,11315,100,27,87,0.908,62.6,693,4.75,13.7,47.2,1,42.8,5.65,29.6,0,0,0,1,0,641,19304,244,614,,,,,,,,,,,,,,,,
45984,1625651327970,,,,,,,,0.85,-0.15,2.14,-1,-1,-0,0.86,,81,11419,100,27,87,0.909,62.7,691,4.78,13.6,47.2,1,42.9,5.65,29.6,0,0,0,1,0,644,-1346,-2830,627,,,,,,,,,,,,,,,,
46004,1625651327990,,,,,,,,0.8,-0.19,1.96,-1,-1,-0,0.83,,81,11545,100,27,87,0.916,63.3,693,4.76,13.6,47.2,1,43.0,5.65,29.6,0,0,0,1,0,648,3395,11566,632,,,,,,,,,,,,,,,,
46024,1625651328000,,,,,,,,0.71,-0.18,1.8,-1,-1,-0,0.73,,81,11667,100,27,87,0.926,63.7,690,4.75,13.7,47.2,1,43.0,5.72,29.6,0,0,0,1,0,651,-10251,-2830,636,,,,,,,,,,,,,,,,
46044,1625651328020,-1,2,56,56,27,26,-1,0.69,-0.21,1.65,-1,-2,0,0.72,0,81,11777,100,27,87,0.934,64.2,699,4.74,13.6,47.2,1,43.0,5.76,29.6,0,0,0,1,0,665,-3584,-2345,645,52.961964,6.523442,57.53,42.6,10,3,1.7,0,0.0,-1,0.0,0.0,0.0,0,0.03,0.7674
46064,1625651328040,,,,,,,,0.76,-0.27,1.58,-1,-4,0,0.81,,81,11844,100,27,87,0.944,64.9,701,4.76,13.6,48.8,1,43.0,5.78,31.7,0,0,0,1,0,671,4909,-388,649,,,,,,,,,,,,,,,,
46084,1625651328060,,,,,,,,0.83,-0.28,1.44,-1,-5,1,0.88,,81,11919,100,27,87,0.954,65.3,692,4.77,13.6,48.8,1,43.0,5.81,31.7,0,0,0,1,0,671,-6006,31988,653,,,,,,,,,,,,,,,,
46104,1625651328080,,,,,,,,0.9,-0.29,1.38,-0,-6,0,0.94,,81,11980,100,27,87,0.968,65.4,695,4.75,13.7,48.8,1,43.0,5.83,31.7,0,0,0,1,0,671,-26380,-2826,656,,,,,,,,,,,,,,,,
46124,1625651328100,,,,,,,,0.97,-0.28,1.27,-0,-6,0,1.01,,82,12081,100,27,87,0.977,65.9,696,4.76,13.7,48.8,1,43.0,5.84,31.7,0,0,0,1,0,677,-26380,-10346,656,,,,,,,,,,,,,,,,
46144,1625651328092,-1,1,56,56,26,26,-1,1.01,-0.29,1.21,-0,-7,0,1.05,0,82,12175,100,27,87,0.987,66.5,694,4.76,13.6,48.8,1,43.0,5.84,31.7,0,0,0,1,0,685,3543,3543,665,52.961967,6.523462,60.14,42.5,10,3,1.7,0,0.0,-1,0.0,,0.0,0,0.03,0.7691
46164,1625651328112,,,,,,,,0.96,-0.36,1.19,-0,-6,1,1.02,,82,12230,100,27,87,0.997,67.2,701,4.75,13.7,49.2,1,43.0,5.84,33.1,0,0,0,1,0,694,-3578,16599,672,,,,,,,,,,,,,,,,
46184,1625651328132,,,,,,,,0.86,-0.41,1.09,0,-5,-0,0.95,,82,12287,100,27,86,1.0,67.8,696,4.73,13.6,49.2,1,43.0,5.7,33.1,0,0,0,1,0,695,-10346,16599,677,,,,,,,,,,,,,,,,
46204,1625651328152,,,,,,,,0.77,-0.44,1.09,-0,-5,-2,0.89,,82,12392,100,27,87,1.002,68.3,701,4.75,13.6,49.2,1,43.0,5.84,33.1,0,0,0,1,0,698,3543,-2830,683,,,,,,,,,,,,,,,,
46224,1625651328210,,,,,,,,0.81,-0.33,1.0,-0,-4,-0,0.88,,82,12500,100,27,87,1.006,68.6,701,4.74,13.7,49.2,1,43.0,5.7,33.1,0,0,0,1,0,701,3543,-3584,684,,,,,,,,,,,,,,,,
46244,1625651328230,-0,2,56,56,27,26,-0,0.82,-0.2,1.06,0,-3,1,0.84,0,82,12609,100,27,86,1.008,68.8,696,4.73,13.6,49.2,1,43.0,5.7,33.1,0,0,0,1,0,704,-26562,-20693,688,52.961983,6.523483,63.16,42.4,10,3,1.7,0,0.0,-1,0.0,0.0,0.0,0,0.04,0.7707
46264,1625651328250,,,,,,,,0.81,-0.19,1.09,-0,-2,-0,0.83,,82,12694,100,27,86,1.001,69.4,711,4.75,13.6,48.5,1,43.0,5.7,33.5,0,0,0,1,0,714,-10399,204,690,,,,,,,,,,,,,,,,
46284,1625651328270,,,,,,,,0.83,-0.26,1.0,-0,-1,-1,0.87,,82,12711,100,27,86,0.996,69.4,706,4.74,13.7,48.5,1,43.0,5.7,33.5,0,0,0,1,0,722,11576,-4091,694,,,,,,,,,,,,,,,,
46304,1625651328291,,,,,,,,0.77,-0.16,0.91,0,-0,1,0.78,,82,12755,100,27,86,0.991,70.8,700,4.76,13.7,48.5,1,43.0,5.7,33.5,0,0,0,1,0,718,-30694,-31068,707,,,,,,,,,,,,,,,,
46324,1625651328311,,,,,,,,0.8,-0.24,1.03,0,-1,-0,0.84,,82,12789,100,27,85,0.985,70.8,703,4.72,13.6,48.5,1,43.0,5.55,33.5,0,0,0,1,0,721,6208,31988,708,,,,,,,,,,,,,,,,
46344,1625651328331,-1,2,55,56,27,26,-0,0.8,-0.12,1.07,0,-3,1,0.81,0,82,12904,100,27,86,0.974,71.3,708,4.75,13.6,48.5,1,43.0,5.55,33.5,0,0,0,1,0,724,-13312,-2918,710,52.96199,6.523505,65.63,42.3,10,3,1.8,0,0.0,-1,0.0,,0.0,0,0.04,0.7724
46364,1625651328351,,,,,,,,0.69,-0.21,1.17,0,-2,0,0.73,,82,12984,100,27,85,0.963,71.4,709,4.72,13.6,46.7,1,43.0,5.55,33.4,0,0,0,1,0,733,204,-2826,714,,,,,,,,,,,,,,,,
46384,1625651328371,,,,,,,,0.75,-0.11,1.24,1,-2,1,0.76,,82,13057,100,27,85,0.956,71.9,700,4.71,13.6,46.7,1,43.0,5.55,33.4,0,0,0,1,0,737,-3450,-31066,722,,,,,,,,,,,,,,,,
46404,1625651328391,,,,,,,,0.68,-0.12,1.28,0,-1,-1,0.69,,81,12634,100,27,86,0.947,72.2,715,4.82,14.0,46.7,1,43.0,5.7,33.4,0,0,0,1,0,735,-388,-31066,716,,,,,,,,,,,,,,,,
46424,1625651328409,,,,,,,,0.68,-0.18,1.26,0,-1,-2,0.71,,81,12159,100,27,87,0.94,73.4,708,4.82,14.0,46.7,1,43.0,5.84,33.4,0,0,0,1,0,730,-31066,-2830,723,,,,,,,,,,,,,,,,
46444,1625651328429,-0,2,54,55,28,27,-1,0.72,-0.17,1.35,0,-2,-5,0.74,0,81,11904,100,27,89,0.937,72.5,703,4.81,14.0,46.7,1,43.0,6.1,33.4,0,0,0,1,0,727,-2918,-3344,723,52.962002,6.523528,67.98,42.1,10,3,1.8,0,0.0,-1,0.0,0.0,0.0,0,0.04,0.7741
46464,1625651328449,,,,,,,,0.68,-0.12,1.52,0,-3,-7,0.69,,81,11674,100,27,89,0.93,72.7,707,4.83,14.0,44.8,1,43.0,6.02,32.6,0,0,0,1,0,727,-388,-3344,727,,,,,,,,,,,,,,,,
46484,1625651328469,,,,,,,,0.65,0.05,1.72,0,-7,-8,0.65,,82,11453,100,27,90,0.925,72.7,692,4.74,13.7,44.8,1,43.0,6.13,32.6,0,0,0,1,0,731,-3344,-31066,726,,,,,,,,,,,,,,,,
46504,1625651328489,,,,,,,,0.66,-0.02,1.61,1,-6,-6,0.66,,82,10769,100,27,89,0.945,73.3,687,4.78,13.6,44.8,1,42.1,6.16,32.6,0,0,0,1,0,814,-2918,136,723,,,,,,,,,,,,,,,,
46524,1625651328507,,,,,,,,0.67,-0.1,1.61,1,-7,-7,0.67,,82,10545,100,27,89,0.984,74.3,679,4.73,13.7,44.8,1,41.6,6.34,32.6,0,0,0,1,0,849,-22796,-31068,743,,,,,,,,,,,,,,,,
46544,1625651328527,-1,2,54,56,27,27,-1,0.67,-0.11,1.81,1,-7,-9,0.68,0,82,10629,100,27,87,1.015,73.8,682,4.73,13.7,44.8,1,41.6,5.95,32.6,0,0,0,1,0,752,-2826,5876,742,52.962009,6.52355,69.34,42.0,10,3,1.7,0,0.0,-1,0.0,,0.0,0,0.04,0.7757
46564,1625651328547,,,,,,,,0.69,-0.14,1.68,0,-8,-10,0.7,,82,10229,100,27,87,1.039,74.9,686,4.77,13.6,38.3,1,40.3,6.05,28.7,0,0,0,1,0,786,-3344,-31068,748,,,,,,,,,,,,,,,,
46584,1625651328567,,,,,,,,0.71,0.0,1.68,1,-7,-8,0.71,,82,9847,100,27,87,1.083,75.4,668,4.8,13.7,38.3,1,39.3,6.01,28.7,0,0,0,1,0,790,-2574,-2426,754,,,,,,,,,,,,,,,,
46604,1625651328587,,,,,,,,0.64,-0.1,1.68,1,-6,-10,0.64,,82,9674,100,27,88,1.13,75.1,666,4.74,13.7,38.3,1,39.1,6.11,28.7,0,0,0,1,0,774,-23308,-10212,751,,,,,,,,,,,,,,,,
46624,1625651328609,,,,,,,,0.64,0.08,1.55,1,-6,-6,0.65,,82,9780,100,27,89,1.19,75.9,678,4.77,13.7,38.3,1,39.3,6.28,28.7,0,0,0,1,0,780,-10214,-23308,765,,,,,,,,,,,,,,,,
46644,1625651328629,1,1,56,57,27,27,-1,0.59,-0.03,1.42,1,-4,-6,0.59,0,82,10042,100,27,89,1.225,77.0,678,4.74,13.7,38.3,1,39.8,6.37,28.7,0,0,0,1,0,779,-2570,-23308,769,52.962025,6.523574,71.08,41.9,10,3,1.7,0,0.0,-1,0.0,0.0,0.0,0,0.04,0.7774
46664,1625651328649,,,,,,,,0.59,-0.06,1.64,1,-5,-7,0.6,,82,10416,100,27,88,1.254,77.5,680,4.73,13.8,38.7,1,41.1,6.21,30.0,0,0,0,1,0,795,-23308,-10216,775,,,,,,,,,,,,,,,,
46684,1625651328669,,,,,,,,0.58,-0.21,1.53,0,-5,-8,0.62,,82,10593,100,27,87,1.265,77.0,691,4.73,13.8,38.7,1,41.5,5.98,30.0,0,0,0,1,0,805,-22795,1524,774,,,,,,,,,,,,,,,,
46704,1625651328689,,,,,,,,0.57,-0.26,1.59,0,-5,-7,0.63,,82,10659,100,27,87,1.273,78.7,689,4.77,13.7,38.7,1,41.7,5.93,30.0,0,0,0,1,0,822,11277,-3344,778,,,,,,,,,,,,,,,,
46724,1625651328709,,,,,,,,0.54,-0.31,1.46,1,-4,-5,0.62,,82,10635,100,27,86,1.284,78.4,694,4.75,13.7,38.7,1,41.5,5.8,30.0,0,0,0,1,0,804,-10218,-3888,784,,,,,,,,,,,,,,,,
46744,1625651328729,0,2,56,57,27,27,-1,0.59,-0.37,1.65,1,-5,-6,0.7,0,82,10527,100,27,86,1.288,79.1,686,4.75,13.7,38.7,1,41.2,5.88,30.0,0,0,0,1,0,805,5876,-31068,791,52.962032,6.523598,73.53,41.8,10,3,1.7,0,0.0,-1,0.0,,0.0,0,0.04,0.7791
46764,1625651328749,,,,,,,,0.58,-0.36,1.51,0,-3,-5,0.69,,82,10364,100,27,86,1.261,78.7,685,4.76,13.7,35.9,1,40.7,5.9,28.3,0,0,0,1,0,819,-2344,-2314,787,,,,,,,,,,,,,,,,
46784,1625651328769,,,,,,,,0.58,-0.42,1.63,0,-2,-5,0.71,,82,10341,100,27,86,1.244,80.6,682,4.74,13.7,35.9,1,40.6,5.9,28.3,0,0,0,1,0,816,16118,-25858,798,,,,,,,,,,,,,,,,
46804,1625651328789,,,,,,,,0.56,-0.49,1.49,0,-0,-4,0.74,,82,10486,100,27,86,1.215,80.8,678,4.75,13.8,35.9,1,41.1,5.9,28.3,0,0,0,1,0,819,-31068,-2314,807,,,,,,,,,,,,,,,,
46824,1625651328809,,,,,,,,0.54,-0.47,1.7,0,-2,-6,0.71,,82,10720,100,27,86,1.192,80.6,683,4.75,13.7,35.9,1,41.7,5.73,28.3,0,0,0,1,0,825,16118,-2826,801,,,,,,,,,,,,,,,,
46844,1625651328829,0,1,55,56,29,27,-2,0.5,-0.45,1.56,0,1,-3,0.68,0,82,10901,100,27,86,1.154,81.6,691,4.76,13.8,35.9,1,42.2,5.58,28.3,0,0,0,1,0,834,-25858,6790,816,52.962044,6.523623,75.7,41.7,10,3,1.8,0,0.0,-1,0.0,0.0,0.0,0,0.05,0.7807
46864,1625651328849,,,,,,,,0.52,-0.26,1.76,0,0,-4,0.58,,82,10907,100,27,86,1.104,82.4,693,4.76,13.6,34.2,1,42.2,5.58,28.2,0,0,0,1,0,846,1524,-3450,824,,,,,,,,,,,,,,,,
46884,1625651328869,,,,,,,,0.55,-0.32,1.8,0,1,-3,0.63,,82,10869,100,27,86,1.075,82.5,692,4.77,13.6,34.2,1,42.1,5.61,28.2,0,0,0,1,0,844,-2826,-31068,825,,,,,,,,,,,,,,,,
46904,1625651328889,,,,,,,,0.53,-0.38,1.65,-0,1,-3,0.65,,82,10888,100,27,86,1.038,83.3,693,4.76,13.7,34.2,1,42.2,5.59,28.2,0,0,0,1,0,842,1037,-2830,825,,,,,,,,,,,,,,,,
46924,1625651328909,,,,,,,,0.52,-0.35,1.83,0,0,-4,0.63,,82,10958,100,27,86,1.031,83.1,686,4.75,13.8,34.2,1,42.3,5.54,28.2,0,0,0,1,0,845,-2314,-22795,827,,,,,,,,,,,,,,,,
46944,1625651328929,1,0,55,56,27,27,-1,0.52,-0.22,1.68,0,1,-3,0.57,0,82,10964,100,27,86,1.024,83.3,691,4.73,13.7,34.2,1,42.4,5.53,28.2,0,0,0,1,0,848,-388,-10508,833,52.962059,6.523648,77.66,41.6,10,3,1.7,0,0.0,-1,0.0,,0.0,0,0.05,0.7824
46964,1625651328949,,,,,,,,0.53,-0.36,1.66,-0,0,-4,0.64,,82,10971,100,27,87,1.02,84.5,695,4.76,13.7,34.2,1,42.5,5.53,28.2,0,0,0,1,0,856,-22795,-11532,840,,,,,,,,,,,,,,,,
46984,1625651328969,,,,,,,,0.54,-0.28,1.72,-0,0,-3,0.61,,82,11055,100,27,87,1.016,84.0,693,4.73,13.7,34.2,1,42.6,5.5,28.8,0,0,0,1,0,859,-30694,-2311,839,,,,,,,,,,,,,,,,
47004,1625651328989,,,,,,,,0.53,-0.27,1.69,-0,1,-2,0.59,,82,11200,100,27,87,1.017,84.3,691,4.75,13.7,34.2,1,42.7,5.65,28.8,0,0,0,1,0,858,6790,-2311,843,,,,,,,,,,,,,,,,
47024,1625651329001,,,,,,,,0.55,-0.26,1.55,-0,3,-1,0.61,,82,11268,100,27,87,1.016,84.7,684,4.75,13.7,34.2,1,42.8,5.65,28.8,0,0,0,1,0,874,8838,-2426,843,,,,,,,,,,,,,,,,
47044,1625651329021,-1,2,55,56,28,27,-1,0.59,-0.24,1.74,0,-1,-2,0.64,0,82,11281,100,27,87,1.017,85.1,694,4.78,13.7,34.2,1,42.8,5.65,28.8,0,0,0,1,0,878,-9995,-1578,850,52.962067,6.523674,80.01,41.4,10,3,1.7,0,0.0,-1,0.0,0.0,0.0,0,0.05,0.7841
47064,1625651329041,,,,,,,,0.53,-0.23,1.88,0,-2,-3,0.58,,82,11295,100,27,87,1.018,86.3,697,4.75,13.7,34.2,1,42.8,5.65,29.6,0,0,0,1,0,873,-2766,-1578,863,,,,,,,,,,,,,,,,
47084,1625651329061,,,,,,,,0.55,-0.21,1.78,-0,-2,-3,0.59,,82,11391,100,27,87,1.02,85.2,691,4.73,13.6,34.2,1,42.9,5.65,29.6,0,0,0,1,0,877,-2570,-9995,857,,,,,,,,,,,,,,,,
47104,1625651329081,,,,,,,,0.46,-0.12,1.63,0,0,0,0.48,,82,11453,100,27,87,1.023,85.9,698,4.72,13.6,34.2,1,42.9,5.65,29.6,0,0,0,1,0,885,-2311,1020,858,,,,,,,,,,,,,,,,
47124,1625651329110,,,,,,,,0.52,-0.21,1.75,0,-1,-1,0.56,,82,11432,100,27,87,1.026,85.8,691,4.76,13.7,34.2,1,42.9,5.65,29.6,0,0,0,1,0,885,-2830,-1277,869,,,,,,,,,,,,,,,,
47144,1625651329130,1,2,55,56,28,28,-0,0.54,-0.14,1.89,0,-3,-3,0.55,0,82,11398,100,27,87,1.029,86.0,698,4.76,13.7,34.2,1,42.9,5.65,29.6,0,0,0,1,0,891,-2311,771,860,52.962082,6.523701,81.91,41.3,10,3,1.7,0,0.0,-1,0.0,,0.0,0,0.05,0.7857
47164,1625651329150,,,,,,,,0.51,-0.02,1.93,0,-2,-3,0.51,,82,11496,100,27,87,1.032,88.0,698,4.73,13.7,34.3,1,43.0,5.65,30.1,0,0,0,1,0,890,-2574,966,871,,,,,,,,,,,,,,,,
47184,1625651329170,,,,,,,,0.57,-0.08,1.94,0,-1,-1,0.58,,82,11653,100,27,87,1.035,87.0,695,4.75,13.6,34.3,1,43.0,5.71,30.1,0,0,0,1,0,888,-10508,236,879,,,,,,,,,,,,,,,,
47204,1625651329191,,,,,,,,0.56,-0.13,1.82,0,-1,1,0.58,,82,11711,100,27,87,1.039,87.4,697,4.75,13.7,34.3,1,43.0,5.88,30.1,0,0,0,1,0,903,-31066,-4879,874,,,,,,,,,,,,,,,,
47224,1625651329211,,,,,,,,0.52,-0.1,1.67,0,0,1,0.53,,82,11704,100,27,87,1.041,88.5,692,4.74,13.7,34.3,1,43.0,5.73,30.1,0,0,0,1,0,905,-775,-3604,882,,,,,,,,,,,,,,,,
47244,1625651329231,-1,2,55,56,28,27,-1,0.46,-0.1,1.53,0,1,1,0.47,0,82,11726,100,27,87,1.041,88.3,695,4.77,13.6,34.3,1,43.0,5.73,30.1,0,0,0,1,0,908,1020,-4879,891,52.962097,6.523728,84.08,41.0,10,3,1.7,0,0.0,-1,0.0,0.0,0.0,0,0.06,0.7874
47264,1625651329251,,,,,,,,0.48,-0.13,1.4,0,1,1,0.5,,82,11777,100,27,87,1.039,88.3,695,4.76,13.7,34.3,1,43.0,5.76,30.1,0,0,0,1,0,907,-775,-3092,883,,,,,,,,,,,,,,,,
47284,1625651329271,,,,,,,,0.57,-0.19,1.29,0,1,1,0.6,,82,11829,100,27,87,1.038,89.9,702,4.76,13.7,35.5,1,43.0,5.77,31.4,0,0,0,1,0,912,-5120,-4875,895,,,,,,,,,,,,,,,,
47304,1625651329291,,,,,,,,0.64,-0.19,1.19,0,-0,1,0.67,,82,11822,100,27,87,1.036,90.4,705,4.75,13.6,35.5,1,43.0,5.77,31.4,0,0,0,1,0,918,236,-1300,904,,,,,,,,,,,,,,,,
47324,1625651329311,,,,,,,,0.65,-0.14,1.16,0,-2,2,0.67,,82,11867,100,27,88,1.033,89.2,692,4.75,13.7,35.5,1,43.0,5.94,31.4,0,0,0,1,0,918,-3348,-4870,899,,,,,,,,,,,,,,,,
47344,1625651329331,0,0,54,55,28,27,-1,0.62,-0.16,1.35,1,-3,1,0.64,0,82,11980,100,27,88,1.029,90.1,696,4.76,13.6,35.5,1,43.0,5.98,31.4,0,0,0,1,0,921,-4878,-4870,906,52.962109,6.523756,85.69,40.9,10,3,2.3,0,0.0,-1,0.0,,0.0,0,0.06,0.7891
47364,1625651329351,,,,,,,,0.55,-0.07,1.5,1,-4,0,0.56,,82,11552,100,26,89,1.026,91.0,707,4.84,14.0,35.1,1,43.0,5.98,32.0,0,0,0,1,0,918,-5113,-9476,912,,,,,,,,,,,,,,,,
47384,1625651329371,,,,,,,,0.5,-0.14,1.7,0,-3,-1,0.52,,82,11075,100,26,90,1.026,91.3,693,4.82,14.0,35.1,1,43.0,6.13,32.0,0,0,0,1,0,911,-4874,-2580,908,,,,,,,,,,,,,,,,
47404,1625651329391,,,,,,,,0.43,-0.04,1.72,1,-1,2,0.43,,82,10825,100,26,90,1.024,91.1,695,4.82,14.0,35.1,1,42.5,6.27,32.0,0,0,0,1,0,913,-4875,-2324,907,,,,,,,,,,,,,,,,
47424,1625651329410,,,,,,,,0.38,0.11,1.89,1,-1,-1,0.4,,82,10611,100,26,90,1.022,90.9,696,4.8,14.0,35.1,1,41.9,6.42,32.0,0,0,0,1,0,907,-5113,-2580,909,,,,,,,,,,,,,,,,
47444,1625651329430,1,1,51,52,30,30,-1,0.36,0.07,2.06,0,-1,-1,0.37,0,82,10457,100,26,90,1.022,91.1,687,4.76,13.6,35.1,1,41.5,6.53,32.0,0,0,0,1,0,908,-4875,-4873,909,52.962124,6.523785,87.58,40.7,10,3,2.3,0,0.0,-1,0.0,0.0,0.0,0,0.06,0.7907
47464,1625651329450,,,,,,,,0.25,-0.01,1.89,1,-3,-1,0.25,,82,10751,100,26,89,1.017,90.9,691,4.76,13.7,33.8,1,42.1,6.17,30.7,0,0,0,1,0,908,-4876,-2836,907,,,,,,,,,,,,,,,,
47484,1625651329470,,,,,,,,0.27,-0.05,2.06,0,-3,-3,0.27,,82,11241,100,26,88,1.043,90.7,691,4.74,13.7,33.8,1,42.8,5.81,30.7,0,0,0,1,0,934,3,-777,911,,,,,,,,,,,,,,,,
47504,1625651329490,,,,,,,,0.34,0.07,2.01,0,-1,0,0.34,,82,10782,100,26,88,1.091,92.5,687,4.73,13.6,33.8,1,42.1,5.91,30.7,0,0,0,1,0,999,-4869,-8184,913,,,,,,,,,,,,,,,,
47524,1625651329508,,,,,,,,0.4,0.14,2.06,0,-2,0,0.42,,82,10285,100,26,87,1.119,91.8,676,4.72,13.8,33.8,1,40.5,6.05,30.7,0,0,0,1,0,984,-1556,16648,922,,,,,,,,,,,,,,,,
47544,1625651329528,-1,2,54,55,26,27,-1,0.46,0.17,1.9,0,-1,1,0.49,0,82,10032,100,26,87,1.157,92.7,671,4.73,13.8,33.8,1,39.7,6.05,30.7,0,0,0,1,0,945,-788,-780,924,52.962135,6.523813,88.69,40.6,10,3,2.3,0,0.0,-1,0.0,,0.0,0,0.06,0.7924
47564,1625651329548,,,,,,,,0.41,0.08,1.89,0,-3,-1,0.41,,82,9957,100,26,87,1.194,93.3,673,4.68,13.8,30.2,1,39.5,6.04,27.9,0,0,0,1,0,945,-9476,-776,923,,,,,,,,,,,,,,,,
47584,1625651329568,,,,,,,,0.37,0.16,2.05,0,-2,0,0.41,,82,10075,100,26,88,1.214,92.6,679,4.76,13.8,30.2,1,39.9,6.21,27.9,0,0,0,1,0,936,-772,-2052,937,,,,,,,,,,,,,,,,
47604,1625651329588,,,,,,,,0.39,0.21,1.96,0,0,1,0.45,,82,10319,100,26,88,1.238,93.2,679,4.72,13.8,30.2,1,40.8,6.21,27.9,0,0,0,1,0,952,-1028,-3332,925,,,,,,,,,,,,,,,,
47624,1625651329606,,,,,,,,0.48,0.24,2.02,0,-1,-0,0.54,,82,10451,100,26,87,1.265,93.9,688,4.79,13.7,30.2,1,41.1,6.05,27.9,0,0,0,1,0,967,-776,-1024,927,,,,,,,,,,,,,,,,
47644,1625651329626,0,1,54,55,30,29,-2,0.48,0.3,1.85,0,-0,2,0.57,0,82,10498,100,26,86,1.271,93.7,691,4.75,13.8,30.2,1,41.1,5.9,27.9,0,0,0,1,0,971,-775,-5120,943,52.962151,6.523842,89.68,40.4,10,3,2.3,0,0.0,-1,0.0,0.0,0.0,0,0.07,0.7941
47664,1625651329646,,,,,,,,0.54,0.45,1.84,0,-1,2,0.7,,82,10557,100,26,86,1.275,94.7,690,4.76,13.7,30.5,1,41.3,5.86,28.6,0,0,0,1,0,962,-779,-1277,949,,,,,,,,,,,,,,,,
47684,1625651329666,,,,,,,,0.57,0.43,1.69,0,-0,4,0.71,,82,10480,100,26,86,1.275,95.1,687,4.75,13.8,30.5,1,41.1,5.9,28.6,0,0,0,1,0,967,-3332,-2836,951,,,,,,,,,,,,,,,,
47704,1625651329686,,,,,,,,0.57,0.45,1.67,0,-2,1,0.72,,82,10330,100,26,86,1.279,94.9,682,4.73,13.8,30.5,1,40.6,5.9,28.6,0,0,0,1,0,973,-779,16599,944,,,,,,,,,,,,,,,,
47724,1625651329706,,,,,,,,0.55,0.45,1.53,-0,-0,3,0.71,,82,10364,100,26,86,1.274,94.9,687,4.73,13.8,30.5,1,40.7,5.9,28.6,0,0,0,1,0,969,-30724,-14712,952,,,,,,,,,,,,,,,,
47744,1625651329726,0,3,54,55,27,27,-2,0.53,0.51,1.4,-0,1,3,0.74,0,82,10557,100,26,86,1.224,95.4,681,4.75,13.8,30.5,1,41.3,5.86,28.6,0,0,0,1,0,971,-1018,-2580,954,52.962162,6.523872,91.27,40.3,10,3,2.3,0,0.0,-1,0.0,,0.0,0,0.07,0.7957
47764,1625651329746,,,,,,,,0.56,0.51,1.28,-0,2,5,0.75,,82,10635,100,26,86,1.195,96.1,681,4.75,13.8,29.7,1,41.5,5.8,28.6,0,0,0,1,0,989,-3588,25,961,,,,,,,,,,,,,,,,
47784,1625651329766,,,,,,,,0.59,0.51,1.37,-0,1,4,0.78,,82,10635,100,26,86,1.157,97.2,685,4.75,13.8,29.7,1,41.5,5.8,28.6,0,0,0,1,0,988,6464,-2560,963,,,,,,,,,,,,,,,,
47804,1625651329786,,,,,,,,0.54,0.58,1.26,0,2,7,0.79,,82,10689,100,26,86,1.117,97.1,685,4.73,13.8,29.7,1,41.6,5.76,28.6,0,0,0,1,0,993,3,-7436,971,,,,,,,,,,,,,,,,
47824,1625651329806,,,,,,,,0.6,0.52,1.28,0,0,5,0.79,,82,10788,100,26,86,1.092,96.9,694,4.73,13.8,29.7,1,41.9,5.67,28.6,0,0,0,1,0,989,-14712,-13580,963,,,,,,,,,,,,,,,,
47844,1625651329826,0,2,54,54,29,28,-1,0.61,0.38,1.48,0,1,4,0.72,0,82,10744,100,26,86,1.066,98.0,688,4.77,13.7,29.7,1,41.8,5.71,28.6,0,0,0,1,0,997,2250,-13072,979,52.962177,6.523902,92.65,40.2,10,3,2.3,0,0.0,-1,0.0,0.0,0.0,0,0.07,0.7974
47864,1625651329846,,,,,,,,0.61,0.27,1.35,0,-1,3,0.66,,82,10665,100,26,86,1.035,97.4,684,4.76,13.7,29.3,1,41.6,5.77,28.5,0,0,0,1,0,1000,16648,204,982,,,,,,,,,,,,,,,,
47884,1625651329866,,,,,,,,0.55,0.21,1.57,-0,-1,1,0.59,,82,10708,100,26,86,1.014,98.7,686,4.74,13.8,29.3,1,41.7,5.74,28.5,0,0,0,1,0,1000,2250,5344,987,,,,,,,,,,,,,,,,
47904,1625651329892,,,,,,,,0.53,0.26,1.44,-0,3,3,0.59,,82,10844,100,26,86,1.01,98.7,692,4.73,13.8,29.3,1,42.0,5.63,28.5,0,0,0,1,0,1000,-2830,-13072,984,,,,,,,,,,,,,,,,
47924,1625651329912,,,,,,,,0.56,0.34,1.61,-0,2,3,0.65,,82,10856,100,26,86,1.006,99.2,682,4.71,13.8,29.3,1,42.1,5.62,28.5,0,0,0,1,0,1012,25,-25858,992,,,,,,,,,,,,,,,,
47944,1625651329932,-1,2,54,54,28,28,-1,0.58,0.21,1.72,-0,2,3,0.62,0,82,10869,100,26,86,0.998,99.2,687,4.76,13.7,29.3,1,42.1,5.61,28.5,0,0,0,1,0,1014,-1566,-31064,992,52.962193,6.523933,94.85,40.0,10,3,2.3,0,0.0,-1,0.0,,0.0,0,0.07,0.7991
47964,1625651329952,,,,,,,,0.57,0.12,1.58,-0,1,2,0.59,,82,10958,100,26,86,0.994,99.0,689,4.76,13.7,29.3,1,42.3,5.54,28.5,0,0,0,1,0,1012,2250,-408,993,,,,,,,,,,,,,,,,
47984,1625651329972,,,,,,,,0.57,0.14,1.72,0,-0,2,0.59,,82,11009,100,26,86,0.992,100.0,687,4.76,13.7,28.3,1,42.5,5.5,28.1,0,0,0,1,0,1012,-7436,-3344,1000,,,,,,,,,,,,,,,,
48004,1625651329992,,,,,,,,0.57,0.23,1.62,0,1,3,0.61,,82,10945,100,26,86,0.991,99.8,693,4.76,13.7,28.3,1,42.3,5.55,28.1,0,0,0,1,0,1017,-2560,-3580,998,,,,,,,,,,,,,,,,
48024,1625651330002,,,,,,,,0.56,0.14,1.5,0,-1,1,0.58,,82,10958,100,26,86,0.989,100.5,703,4.77,13.8,28.3,1,42.3,5.54,28.1,0,0,0,1,0,1022,-3888,-31062,1008,,,,,,,,,,,,,,,,
48044,1625651330022,1,1,54,54,28,28,-1,0.51,0.2,1.51,0,0,2,0.55,0,82,11068,100,26,86,0.988,100.8,695,4.73,13.8,28.3,1,42.6,5.5,28.1,0,0,0,1,0,1024,-13312,-21772,1008,52.962208,6.523965,96.1,39.9,10,3,2.3,0,0.0,-1,0.0,0.0,0.0,0,0.08,0.8007
48064,1625651330042,,,,,,,,0.53,0.19,1.58,0,1,2,0.57,,82,11094,100,26,87,0.99,100.2,688,4.75,13.7,28.9,1,42.7,5.65,29.0,0,0,0,1,0,1029,-12152,-2314,1002,,,,,,,,,,,,,,,,
48084,1625651330062,,,,,,,,0.52,0.1,1.45,0,1,2,0.53,,82,11061,100,26,87,0.993,101.5,694,4.75,13.8,28.9,1,42.6,5.65,29.0,0,0,0,1,0,1031,-3888,-31062,1020,,,,,,,,,,,,,,,,
48104,1625651330082,,,,,,,,0.48,0.11,1.65,0,-0,1,0.49,,82,11154,100,26,87,0.998,101.7,697,4.76,13.7,28.9,1,42.7,5.65,29.0,0,0,0,1,0,1029,-13068,-2830,1009,,,,,,,,,,,,,,,,
48124,1625651330110,,,,,,,,0.49,0.07,1.7,0,1,-0,0.5,,82,11241,100,26,87,1.0,101.7,690,4.73,13.7,28.9,1,42.7,5.65,29.0,0,0,0,1,0,1041,-2918,-22284,1028,,,,,,,,,,,,,,,,
48144,1625651330130,1,2,54,54,28,28,-1,0.41,0.12,1.56,0,3,3,0.43,0,82,11207,100,26,87,1.005,101.5,695,4.78,13.8,28.9,1,42.7,5.65,29.0,0,0,0,1,0,1040,1524,-22284,1009,52.962223,6.523997,97.5,39.8,10,3,2.3,0,0.0,-1,0.0,,0.0,0,0.08,0.8024
48164,1625651330150,,,,,,,,0.45,0.01,1.64,0,1,-0,0.45,,82,11154,100,26,87,1.011,101.2,695,4.76,13.7,28.9,1,42.7,5.65,29.0,0,0,0,1,0,1039,-408,-3344,1012,,,,,,,,,,,,,,,,
48184,1625651330170,,,,,,,,0.42,0.12,1.77,0,2,-0,0.43,,82,11241,100,26,87,1.016,101.8,692,4.74,13.7,28.8,1,42.7,5.65,29.2,0,0,0,1,0,1041,-2830,-31064,1029,,,,,,,,,,,,,,,,
48204,1625651330190,,,,,,,,0.45,0.07,1.94,0,2,0,0.45,,82,11343,100,26,87,1.019,102.9,690,4.73,13.7,28.8,1,42.8,5.65,29.2,0,0,0,1,0,1050,-13068,-9995,1026,,,,,,,,,,,,,,,,
48224,1625651330210,,,,,,,,0.4,0.07,1.78,0,4,1,0.4,,82,11329,100,26,87,1.026,102.9,693,4.75,13.7,28.8,1,42.8,5.65,29.2,0,0,0,1,0,1060,-13068,-2311,1025,,,,,,,,,,,,,,,,
48244,1625651330230,0,0,54,54,29,28,-1,0.46,0.01,1.69,0,2,0,0.46,0,82,11363,100,26,87,1.029,104.1,697,4.76,13.6,28.8,1,42.8,5.65,29.2,0,0,0,1,0,1053,-3344,-3038,1041,52.962238,6.524029,98.61,39.7,10,3,2.3,0,0.0,-1,0.0,0.0,0.0,0,0.08,0.8041
48264,1625651330250,,,,,,,,0.47,0.02,1.8,0,0,-0,0.47,,82,11453,100,26,87,1.036,104.4,692,4.76,13.7,28.8,1,42.9,5.65,29.9,0,0,0,1,0,1051,-2574,-1576,1036,,,,,,,,,,,,,,,,
48284,1625651330270,,,,,,,,0.44,0.02,1.88,0,0,-1,0.44,,82,11405,100,26,87,1.042,104.6,692,4.73,13.7,28.8,1,42.9,5.65,29.9,0,0,0,1,0,1061,-21771,-11019,1046,,,,,,,,,,,,,,,,
48304,1625651330290,,,,,,,,0.45,-0.02,1.88,0,0,-1,0.45,,82,11377,100,26,87,1.044,103.4,693,4.73,13.7,28.8,1,42.9,5.65,29.9,0,0,0,1,0,1057,-31062,-11019,1043,,,,,,,,,,,,,,,,
48324,1625651330310,,,,,,,,0.33,0.03,1.72,0,3,2,0.33,,82,11460,100,26,87,1.042,104.5,696,4.78,13.7,28.8,1,42.9,5.65,29.9,0,0,0,1,0,1064,-31064,-2570,1045,,,,,,,,,,,,,,,,
48344,1625651330330,1,0,53,54,29,28,-0,0.36,-0.02,1.58,-0,3,2,0.36,0,82,11559,100,26,87,1.041,104.7,692,4.77,13.7,28.8,1,43.0,5.67,29.9,0,0,0,1,0,1067,-13068,-21771,1053,52.962254,6.524062,100.27,39.6,10,3,2.3,0,0.0,-1,0.0,,0.0,0,0.08,0.8057
48364,1625651330350,,,,,,,,0.36,-0.0,1.73,-0,1,-1,0.36,,82,11035,100,26,88,1.042,104.7,699,4.83,14.0,28.3,1,42.7,5.81,29.7,0,0,0,1,0,1064,-1576,-2830,1053,,,,,,,,,,,,,,,,
48384,1625651330370,,,,,,,,0.29,-0.03,1.92,-0,3,-1,0.29,,82,10599,100,26,90,1.042,104.8,691,4.85,14.0,28.3,1,41.9,6.46,29.7,0,0,0,1,0,1049,-10508,-1576,1056,,,,,,,,,,,,,,,,
48404,1625651330390,,,,,,,,0.28,-0.06,1.76,-0,2,-2,0.29,,82,10387,100,26,90,1.041,103.7,690,4.84,14.0,28.3,1,41.2,6.53,29.7,0,0,0,1,0,1050,6790,-1576,1037,,,,,,,,,,,,,,,,
48424,1625651330409,,,,,,,,0.24,0.07,1.94,0,2,-1,0.25,,82,10173,100,26,90,1.041,105.3,688,4.84,14.0,28.3,1,40.4,6.53,29.7,0,0,0,1,0,1055,-9995,-9995,1047,,,,,,,,,,,,,,,,
48444,1625651330429,1,1,51,52,31,30,-0,0.26,0.19,1.78,-0,1,-0,0.32,0,82,9978,100,26,89,1.042,105.2,682,4.71,13.8,28.3,1,39.6,6.36,29.7,0,0,0,1,0,1052,-2830,-11532,1052,52.962269,6.524095,101.56,39.5,10,3,2.3,0,0.0,-1,0.0,0.0,0.0,0,0.09,0.8074
48464,1625651330449,,,,,,,,0.2,0.04,1.63,-0,3,1,0.21,,82,10102,100,26,90,1.058,104.7,678,4.77,13.7,29.1,1,40.1,6.53,30.5,0,0,0,1,0,1049,-21771,-1576,1049,,,,,,,,,,,,,,,,
48484,1625651330469,,,,,,,,0.23,-0.02,1.83,-0,2,-2,0.23,,82,10587,100,26,89,1.092,104.6,678,4.76,13.6,29.1,1,41.7,6.31,30.5,0,0,0,1,0,1071,-31062,-21771,1054,,,,,,,,,,,,,,,,
48504,1625651330489,,,,,,,,0.26,-0.13,1.68,-1,2,-2,0.29,,82,10457,100,26,87,1.126,105.8,686,4.76,13.7,29.1,1,41.1,6.05,30.5,0,0,0,1,0,1094,-1582,25,1043,,,,,,,,,,,,,,,,
48524,1625651330509,,,,,,,,0.26,-0.19,1.87,-0,0,-3,0.32,,82,10000,100,26,87,1.166,105.5,683,4.72,13.7,29.1,1,39.6,6.05,30.5,0,0,0,1,0,1096,-11532,-13068,1060,,,,,,,,,,,,,,,,
48544,1625651330529,-1,2,51,53,27,28,-0,0.29,-0.12,1.77,-0,0,-3,0.31,0,82,9946,100,26,88,1.194,106.3,670,4.78,13.8,29.1,1,39.6,6.03,30.5,0,0,0,1,0,1078,-3450,-2311,1056,52.962284,6.524128,102.42,39.4,10,3,2.3,0,0.0,-1,0.0,,0.0,0,0.09,0.8091
48564,1625651330549,,,,,,,,0.22,-0.2,1.62,-0,1,-4,0.3,,82,9962,100,26,88,1.242,106.0,676,4.77,13.8,26.9,1,39.6,6.19,28.5,0,0,0,1,0,1079,-2570,-2311,1061,,,,,,,,,,,,,,,,
48584,1625651330569,,,,,,,,0.19,-0.21,1.82,-0,1,-4,0.28,,82,10064,100,26,88,1.28,106.3,687,4.72,13.7,26.9,1,39.8,6.21,28.5,0,0,0,1,0,1069,-22284,-2311,1068,,,,,,,,,,,,,,,,
48604,1625651330589,,,,,,,,0.23,-0.18,1.83,-0,-0,-5,0.29,,82,10190,100,26,88,1.307,106.8,678,4.78,13.8,26.9,1,40.3,6.21,28.5,0,0,0,1,0,1077,13049,-1277,1056,,,,,,,,,,,,,,,,
48624,1625651330609,,,,,,,,0.26,-0.12,1.67,-0,2,-2,0.29,,82,10273,100,26,87,1.335,106.2,681,4.77,13.7,26.9,1,40.5,6.21,28.5,0,0,0,1,0,1105,-3450,-2580,1062,,,,,,,,,,,,,,,,
48644,1625651330629,0,0,51,52,29,28,-0,0.3,-0.1,1.58,-0,1,-2,0.31,0,82,10251,100,26,87,1.336,107.4,684,4.73,13.8,26.9,1,40.4,6.05,28.5,0,0,0,1,0,1101,-2766,-3584,1067,52.962303,6.524161,103.08,39.3,10,3,1.8,0,0.0,-1,0.0,0.0,0.0,0,0.09,0.8107
48664,1625651330649,,,,,,,,0.29,-0.23,1.45,-0,3,-0,0.37,,82,10245,100,26,87,1.338,107.9,676,4.77,13.7,26.8,1,40.4,6.05,28.7,0,0,0,1,0,1094,-2311,16599,1079,,,,,,,,,,,,,,,,
48684,1625651330669,,,,,,,,0.25,-0.23,1.66,-0,2,-2,0.34,,82,10336,100,26,87,1.34,107.9,676,4.74,13.7,26.8,1,40.7,6.05,28.7,0,0,0,1,0,1104,-775,6464,1077,,,,,,,,,,,,,,,,
48704,1625651330693,,,,,,,,0.27,-0.18,1.86,-0,1,-3,0.33,,82,10319,99,26,86,1.342,107.1,686,4.78,13.7,26.8,1,40.6,5.9,28.7,0,0,0,1,0,1107,-31064,16648,1071,,,,,,,,,,,,,,,,
48724,1625651330713,,,,,,,,0.27,-0.15,2.0,0,1,-3,0.31,,82,10240,91,26,86,1.303,108.3,677,4.8,13.8,26.8,1,40.3,5.9,28.7,0,0,0,1,0,1110,-2820,2252,1083,,,,,,,,,,,,,,,,
48744,1625651330733,0,0,53,56,29,28,0,0.31,-0.11,1.84,0,-0,-3,0.33,0,82,10290,83,26,86,1.265,108.8,677,4.75,13.8,26.8,1,40.5,5.9,28.7,0,0,0,1,0,1101,-30469,2252,1088,52.962318,6.524195,104.06,39.3,10,3,1.8,0,0.0,-1,0.0,,0.0,0,0.1,0.8124
48764,1625651330753,,,,,,,,0.33,-0.0,1.69,0,2,-1,0.33,,82,10393,78,26,86,1.218,108.9,680,4.76,13.7,25.4,1,40.8,5.75,27.7,0,0,0,1,0,1110,-9995,-30694,1077,,,,,,,,,,,,,,,,
