"Interval"|"ms"|0|0|1,"Utc"|"ms"|0|0|1,"FB_p"|"bar"|0|300|50,"Volant"|"F"|0.0|300.0|50,"xFR"|"mm"|0.0|5.0|50,"xRR"|"mm"|0.0|5.0|50,"xFL"|"mm"|0.0|5.0|50,"xRL"|"mm"|0.0|5.0|50,"AccelX"|"G"|-3.0|3.0|50,"AccelY"|"G"|-3.0|3.0|50,"AccelZ"|"G"|-3.0|3.0|50,"Yaw"|"Deg/Sec"|-120|120|50,"Pitch"|"Deg/Sec"|-120|120|50,"Roll"|"Deg/Sec"|-120|120|50,"Gsum"|"G"|0.0|3.0|50,"RPM"|""|0|14000|50,"TPS"|"%"|0|100|50,"WaterTemp"|"?C"|0|300|50,"AirTemp"|"?C"|-1000|1000|50,"MAP"|"KPa"|0|255|50,"Lambda"|""|0|1024|50,"WheelSpeed"|"MPH"|0.0|150.0|50,"OilPress"|"PSI"|0|150|50,"FuelPress"|"PSI"|0|150|50,"OilTemp"|"F"|0|300|50,"Battery"|"Volts"|0.0|20.0|50,"FuelCon"|"L/h"|-1000|1000|50,"Gear"|""|0|10|50,"Advance"|"Deg"|-360|360|50,"Injection"|"ms"|-1000|1000|50,"FuelCon"|"L/100km"|-1000|1000|50,"LC_But_Pres"|""|-1000|1000|50,"LC_Active"|""|-1000|1000|50,"RD_Speed"|""|-1000|1000|50,"RUD_Speed"|""|-1000|1000|50,"LD_Speed"|""|-1000|1000|50,"LUD_Speed"|""|-1000|1000|50,"Ana1"|"bar"|-1000.0|1000.0|50,"Latitude"|"Degrees"|-180.0|180.0|10,"Longitude"|"Degrees"|-180.0|180.0|10,"Speed"|"kph"|0.0|150.0|10,"Altitude"|"m"|0.0|4000.0|10,"LapCount"|""|0|0|10,"LapTime"|"Min"|0.0|0.0|10,"Sector"|""|0|0|10,"SectorTime"|"Min"|0.0|0.0|10,"ElapsedTime"|"Min"|0.0|0.0|10,"CurrentLap"|""|0|0|10,"Distance"|"km"|0.0|0.0|10,"SessionTime"|"Min"|0.0|0.0|10
11764,1564322837476,2,2.28,1.44,0.82,2.37,2.0,0.09,0.57,1.33,1,6,-5,0.58,12222,100,69,31,82,503,881.0,683,460,60,129.0,290,1,440,550,254,0,0,890,-779,2028,878,-5.59,,,,,,,,,,,,
11784,1564322837494,-2,2.28,1.44,0.82,2.37,1.99,0.04,0.58,1.2,1,7,-6,0.58,12278,100,69,31,82,503,885.0,683,464,60,130.0,290,1,440,550,254,0,0,899,-1277,-5120,878,181.28,,,,,,,,,,,,
11804,1564322837514,-0,2.27,1.44,0.82,2.37,2.0,0.01,0.66,1.0,1,7,-6,0.66,11822,100,69,31,82,503,884.0,673,457,60,132.0,290,1,440,544,254,0,0,898,1020,-14848,884,-5.59,,,,,,,,,,,,
11824,1564322837534,-2,2.29,1.45,0.82,2.38,2.0,0.08,0.64,0.96,2,6,-5,0.65,11370,100,69,31,84,503,887.0,670,456,60,131.0,290,1,441,564,254,0,0,882,-14712,-1277,887,-5.59,,,,,,,,,,,,
11844,1564322837554,-2,2.29,1.44,0.82,2.38,2.01,0.13,0.45,0.92,2,5,-4,0.47,11140,100,69,31,85,504,884.0,667,458,60,132.0,290,1,443,582,254,0,0,884,-30469,-780,882,-5.59,44.681122,10.016904,85.75,177.3,0,0.0,-1,0.0,0.0,0,0.08,0.1974
11864,1564322837574,0,2.29,1.44,0.82,2.36,2.0,0.29,0.26,1.0,1,3,-3,0.39,10907,100,69,31,85,505,884.0,660,459,60,132.0,275,1,441,582,243,0,0,880,1020,-2574,882,-5.59,,,,,,,,,,,,
11884,1564322837592,1,2.29,1.43,0.83,2.38,2.0,0.31,0.36,0.92,2,2,-4,0.47,10720,100,69,31,86,505,887.0,657,461,60,132.0,275,1,437,601,243,0,0,884,-14712,-1578,887,-5.59,,,,,,,,,,,,
11904,1564322837612,4,2.28,1.44,0.83,2.38,2.01,0.41,0.26,0.88,2,3,-2,0.49,10245,100,69,31,87,506,888.0,663,463,60,130.0,275,1,414,1052,243,0,0,902,966,966,883,-5.59,,,,,,,,,,,,
11924,1564322837632,2,2.28,1.44,0.83,2.37,2.01,0.51,0.25,0.94,1,2,-2,0.57,10140,100,69,31,86,506,889.0,666,459,60,129.0,275,1,405,913,243,0,0,894,771,2028,889,-5.59,,,,,,,,,,,,
11944,1564322837652,2,2.29,1.44,0.84,2.38,2.0,0.59,0.16,1.01,0,1,-1,0.61,10359,100,69,31,85,505,894.0,666,467,60,129.0,275,1,421,782,243,0,0,897,-5120,-3348,889,-5.59,44.681099,10.016898,87.05,177.2,0,0.0,-1,0.0,0.0,0,0.09,0.1991
11964,1564322837672,3,2.29,1.44,0.83,2.38,2.01,0.54,0.18,1.03,-0,2,-0,0.57,10445,100,69,31,84,504,895.0,651,463,60,130.0,315,1,428,665,281,0,0,911,-30778,-4877,893,-5.59,,,,,,,,,,,,
11984,1564322837692,1,2.28,1.45,0.83,2.37,2.01,0.46,0.2,0.98,-1,3,-0,0.5,10399,100,69,31,84,504,896.0,661,466,60,129.0,315,1,423,564,281,0,0,921,-5114,-4870,890,-5.59,,,,,,,,,,,,
12004,1564322837712,3,2.27,1.44,0.82,2.38,2.0,0.33,0.11,0.94,-1,5,-0,0.35,10376,100,69,31,84,503,902.0,663,461,60,130.0,315,1,421,564,281,0,0,918,1772,218,899,-5.59,,,,,,,,,,,,
12024,1564322837732,2,2.28,1.44,0.83,2.37,2.0,0.32,0.04,0.82,-1,4,-0,0.32,10382,100,69,31,84,502,902.0,661,461,60,130.0,315,1,421,564,281,0,0,915,-3348,-1044,902,-5.59,,,,,,,,,,,,
12044,1564322837752,2,2.29,1.45,0.82,2.38,2.0,0.32,0.05,0.91,-1,4,0,0.32,10382,100,69,30,84,502,904.0,660,466,60,130.0,315,1,421,564,281,0,0,925,-4878,-1028,900,-5.59,44.681076,10.016893,87.28,177.2,0,0.0,-1,0.0,0.0,0,0.09,0.2007
12064,1564322837772,0,2.3,1.45,0.82,2.38,2.0,0.31,0.03,0.95,0,5,-0,0.31,10463,100,69,31,84,502,905.0,663,466,60,130.0,247,1,427,564,222,0,0,918,-4878,-4870,906,181.28,,,,,,,,,,,,
12084,1564322837792,2,2.29,1.44,0.82,2.37,2.0,0.25,0.07,0.94,0,5,-2,0.26,10480,100,69,31,84,502,910.0,663,465,60,130.0,247,1,428,564,222,0,0,931,-3092,-4869,909,-5.59,,,,,,,,,,,,
12104,1564322837812,2,2.28,1.44,0.82,2.38,2.0,0.24,0.08,1.02,0,5,-2,0.26,10557,100,69,31,84,502,914.0,662,465,60,130.0,247,1,431,564,222,0,0,932,-4876,-908,911,-5.59,,,,,,,,,,,,
12124,1564322837832,2,2.31,1.45,0.82,2.39,2.0,0.29,0.12,1.08,0,5,-3,0.31,10575,100,69,30,84,502,915.0,663,468,60,130.0,247,1,431,564,222,0,0,944,-2068,-773,912,-5.59,,,,,,,,,,,,
12144,1564322837852,0,2.3,1.44,0.83,2.38,2.0,0.2,0.11,1.07,1,4,-3,0.23,10653,97,69,30,84,502,918.0,665,462,60,130.0,247,1,433,564,222,0,0,942,-4871,-1796,917,-5.59,44.681057,10.016888,88.41,177.2,0,0.0,-1,0.0,0.0,0,0.09,0.2024
12164,1564322837872,1,2.31,1.45,0.82,2.37,2.01,0.09,0.05,1.11,1,4,-5,0.1,10635,76,69,31,81,502,926.0,668,463,60,129.0,239,1,434,529,220,0,0,936,-4869,-2564,926,-5.59,,,,,,,,,,,,
12184,1564322837896,5,2.31,1.45,0.83,2.38,2.0,0.14,-0.03,1.07,1,4,-4,0.14,10623,56,69,30,74,502,925.0,664,470,60,129.0,239,1,436,480,220,0,0,946,-788,-2052,919,-5.59,,,,,,,,,,,,
12204,1564322837916,4,2.32,1.44,0.83,2.38,2.0,0.16,-0.13,1.04,1,3,-4,0.21,10539,33,69,30,64,502,927.0,661,468,60,130.0,239,1,447,413,220,0,0,944,9216,-908,924,-5.59,,,,,,,,,,,,
12224,1564322837936,10,2.31,1.45,0.82,2.38,2.0,0.16,-0.18,1.01,1,2,-4,0.24,10257,12,69,31,54,502,926.0,663,468,60,129.0,239,1,400,323,220,0,0,929,218,-1284,928,-5.59,,,,,,,,,,,,
12244,1564322837956,9,2.3,1.45,0.83,2.38,2.0,0.22,-0.11,0.96,2,2,-4,0.24,9946,0,69,30,46,502,924.0,658,465,60,130.0,239,1,372,242,220,0,0,913,-788,-1284,918,-5.59,44.681034,10.016882,90.02,177.2,0,0.0,-1,0.0,0.0,0,0.09,0.2041
12264,1564322837976,10,2.3,1.44,0.83,2.38,2.0,0.28,-0.14,0.91,2,-0,-4,0.31,9735,0,69,30,41,502,925.0,656,464,60,130.0,93,1,335,222,86,0,0,907,-4870,-4872,923,-5.59,,,,,,,,,,,,
12284,1564322837996,10,2.28,1.44,0.82,2.38,2.0,0.41,-0.12,0.85,2,0,-3,0.43,9532,0,69,30,37,502,922.0,658,462,60,129.0,93,1,314,213,86,0,0,912,-1300,-4874,923,-5.59,,,,,,,,,,,,
12304,1564322838008,9,2.28,1.44,0.82,2.38,2.0,0.53,-0.11,0.83,1,-0,-1,0.54,9389,0,69,30,35,502,920.0,652,464,60,130.0,93,1,308,203,86,0,0,899,-4873,-4877,915,-5.59,,,,,,,,,,,,
12324,1564322838028,8,2.28,1.45,0.82,2.38,2.0,0.62,-0.1,0.77,1,0,0,0.63,9384,0,69,30,34,502,914.0,650,467,60,129.0,93,1,305,197,86,0,0,901,-4873,1772,915,-5.59,,,,,,,,,,,,
12344,1564322838048,11,2.28,1.45,0.82,2.38,2.0,0.73,-0.05,0.75,0,-1,-1,0.73,9398,0,69,30,32,502,912.0,651,461,60,130.0,93,1,300,195,86,0,0,885,-2580,-14848,908,-5.59,44.681011,10.016876,91.34,177.1,0,0.0,-1,0.0,0.0,0,0.1,0.2057
12364,1564322838068,10,2.28,1.45,0.83,2.38,2.0,0.67,-0.06,0.73,-1,-3,0,0.68,9469,0,69,30,31,502,909.0,653,464,60,130.0,77,1,295,195,70,0,0,879,-4877,-2820,902,-5.59,,,,,,,,,,,,
12384,1564322838095,12,2.29,1.45,0.82,2.38,2.0,0.71,-0.08,0.6,-0,-2,1,0.71,9551,0,69,30,30,502,904.0,655,468,60,130.0,77,1,291,195,70,0,0,873,-4878,8838,904,-5.59,,,,,,,,,,,,
12404,1564322838115,10,2.31,1.45,0.83,2.39,2.0,0.83,0.01,0.55,-0,-3,1,0.83,9585,0,69,30,29,502,905.0,654,465,60,130.0,77,1,287,194,70,0,0,848,-5113,-11019,894,-5.59,,,,,,,,,,,,
12424,1564322838135,11,2.31,1.45,0.83,2.38,2.01,0.81,-0.02,0.52,0,-1,-0,0.81,9600,0,69,30,28,502,895.0,657,470,60,130.0,77,1,282,193,70,0,0,837,4231,-2826,895,181.28,,,,,,,,,,,,
12444,1564322838155,8,2.32,1.45,0.83,2.38,2.01,0.84,-0.01,0.34,0,-1,1,0.84,9605,0,69,30,28,502,890.0,656,462,60,129.0,77,1,282,193,70,0,0,854,-14712,-11532,889,-5.59,44.680988,10.01687,91.0,177.1,0,0.0,-1,0.0,0.0,0,0.1,0.2074
12464,1564322838175,13,2.32,1.44,0.83,2.39,2.01,0.85,-0.01,0.4,1,-1,1,0.85,9630,0,69,30,28,502,885.0,660,470,60,130.0,78,1,282,193,70,0,0,855,-780,-11019,885,-5.59,,,,,,,,,,,,
12484,1564322838195,10,2.32,1.45,0.83,2.38,2.02,0.92,-0.07,0.28,1,-0,1,0.92,9645,0,69,30,27,502,882.0,661,466,60,130.0,78,1,278,191,70,0,0,848,-779,-4096,882,181.28,,,,,,,,,,,,
12504,1564322838215,10,2.32,1.45,0.83,2.39,2.01,0.94,-0.04,0.3,2,-0,1,0.94,9635,0,69,30,27,502,877.0,659,465,60,130.0,78,1,278,191,70,0,0,852,-1578,-3335,879,-5.59,,,,,,,,,,,,
12524,1564322838235,4,2.32,1.45,0.83,2.39,2.02,0.96,-0.12,0.36,2,1,2,0.97,9580,0,69,30,27,502,878.0,658,467,60,130.0,78,1,278,189,70,0,0,844,-2826,-1580,879,-5.59,,,,,,,,,,,,
12544,1564322838255,7,2.32,1.46,0.83,2.39,2.01,0.95,-0.03,0.31,3,0,2,0.95,9595,0,69,30,26,502,879.0,658,467,60,130.0,78,1,274,189,70,0,0,847,-31066,-3450,879,-5.59,44.680965,10.016865,89.2,177.1,0,0.0,-1,0.0,0.0,0,0.1,0.2091
12564,1564322838275,4,2.31,1.46,0.83,2.38,2.01,0.98,-0.1,0.41,3,-2,2,0.99,9590,0,69,30,26,502,873.0,657,466,60,130.0,78,1,274,189,69,0,0,839,-2574,-9995,873,-5.59,,,,,,,,,,,,
12584,1564322838295,7,2.32,1.45,0.84,2.39,2.02,0.95,-0.14,0.37,3,0,2,0.96,9605,0,69,30,26,502,866.0,656,466,60,130.0,78,1,274,189,69,0,0,845,-2830,-3335,866,-5.59,,,,,,,,,,,,
12604,1564322838315,7,2.32,1.45,0.83,2.4,2.01,1.02,-0.11,0.33,3,-1,1,1.03,9595,0,69,30,25,502,863.0,656,465,60,129.0,78,1,270,189,69,0,0,840,-11532,-10508,869,-5.59,,,,,,,,,,,,
12624,1564322838335,4,2.32,1.45,0.84,2.4,2.01,0.97,-0.19,0.34,3,0,3,0.99,9537,0,69,30,25,502,858.0,656,466,60,130.0,78,1,270,188,69,0,0,837,-2311,-2830,858,-5.59,,,,,,,,,,,,
12644,1564322838355,8,2.32,1.45,0.84,2.39,2.02,1.03,-0.14,0.24,3,-1,3,1.04,9488,0,69,30,25,502,856.0,654,465,60,130.0,78,1,270,188,69,0,0,830,-9995,-31066,854,-5.59,44.680946,10.016859,87.04,177.0,0,0.0,-1,0.0,0.0,0,0.1,0.2107
12664,1564322838375,10,2.31,1.46,0.84,2.4,2.02,1.02,-0.1,0.22,3,-2,3,1.03,9422,0,69,30,25,502,855.0,654,463,60,131.0,78,1,270,188,67,0,0,824,8838,-3344,855,-5.59,,,,,,,,,,,,
12684,1564322838395,5,2.32,1.45,0.84,2.4,2.01,1.02,-0.2,0.21,3,-0,4,1.04,9346,0,69,30,25,502,851.0,657,469,60,129.0,78,1,270,188,67,0,0,819,-31066,-31066,846,-5.59,,,,,,,,,,,,
12704,1564322838415,10,2.32,1.46,0.83,2.41,2.01,0.95,-0.21,0.29,2,0,4,0.97,9282,0,69,30,24,502,847.0,658,466,60,129.0,78,1,270,181,67,0,0,821,-3450,-31066,846,-5.59,,,,,,,,,,,,
12724,1564322838435,10,2.32,1.46,0.83,2.4,2.01,1.06,-0.2,0.27,3,-0,4,1.08,9245,0,69,30,24,502,842.0,657,462,60,128.0,78,1,270,181,67,0,0,825,-30694,-13068,840,-5.59,,,,,,,,,,,,
12744,1564322838455,11,2.32,1.46,0.84,2.4,2.02,1.15,-0.16,0.21,3,-2,4,1.16,9254,0,69,30,24,502,836.0,656,465,60,129.0,78,1,270,181,67,0,0,807,-2826,-3344,836,-5.59,44.680923,10.016853,85.27,177.0,0,0.0,-1,0.0,0.0,0,0.11,0.2124
12764,1564322838475,13,2.32,1.46,0.83,2.39,2.01,1.15,-0.08,0.16,3,-4,3,1.15,9209,0,69,30,24,502,834.0,652,464,60,128.0,74,1,270,181,63,0,0,803,-2356,-3344,836,-5.59,,,,,,,,,,,,
12784,1564322838491,11,2.32,1.46,0.84,2.39,2.02,1.11,-0.08,0.15,3,-5,3,1.12,9119,0,69,30,24,502,827.0,650,463,60,129.0,74,1,270,181,63,0,0,799,3462,-3344,827,-5.59,,,,,,,,,,,,
12804,1564322838511,10,2.32,1.46,0.83,2.41,2.01,0.98,-0.05,0.09,3,-4,4,0.98,9036,0,69,30,23,502,825.0,650,467,60,130.0,74,1,270,176,63,0,0,796,-2314,-2560,826,-5.59,,,,,,,,,,,,
12824,1564322838531,12,2.31,1.45,0.83,2.4,2.02,0.97,-0.02,0.15,4,-5,4,0.97,8979,0,69,30,23,502,822.0,646,466,60,128.0,74,1,270,176,63,0,0,792,-2358,-13312,824,-5.59,,,,,,,,,,,,
12844,1564322838551,12,2.3,1.46,0.84,2.4,2.02,0.87,0.01,0.14,4,-4,3,0.87,8958,0,69,30,23,502,816.0,645,466,60,129.0,74,1,270,176,63,0,0,777,-2918,5344,816,-5.59,44.680904,10.016848,83.87,177.0,0,0.0,-1,0.0,0.0,0,0.11,0.2141
12864,1564322838571,12,2.31,1.45,0.84,2.4,2.02,0.91,0.0,0.1,4,-5,4,0.91,8932,0,69,30,23,502,815.0,645,465,60,130.0,72,1,270,176,59,0,0,787,-2830,5344,808,-5.59,,,,,,,,,,,,
12884,1564322838591,9,2.31,1.46,0.83,2.41,2.01,0.89,0.07,0.1,4,-5,4,0.89,8915,0,69,30,23,502,811.0,650,463,60,129.0,72,1,270,176,59,0,0,790,-23490,-10216,807,-5.59,,,,,,,,,,,,
12904,1564322838611,13,2.3,1.46,0.83,2.41,2.02,1.0,0.08,0.09,3,-7,3,1.0,8898,0,69,30,23,502,803.0,647,465,60,129.0,72,1,270,176,59,0,0,779,-13072,-22795,803,-5.59,,,,,,,,,,,,
12924,1564322838631,11,2.3,1.46,0.83,2.4,2.02,1.1,0.11,0.03,3,-7,3,1.1,8840,0,69,30,23,502,800.0,652,465,60,129.0,72,1,270,170,59,0,0,775,-3888,-2830,795,-5.59,,,,,,,,,,,,
12944,1564322838651,11,2.3,1.46,0.83,2.39,2.02,1.19,0.12,0.01,2,-8,2,1.19,8765,0,69,30,23,502,795.0,647,464,60,128.0,72,1,270,176,59,0,0,779,6905,-23308,793,-5.59,44.680885,10.016841,81.94,176.9,0,0.0,-1,0.0,0.0,0,0.11,0.2157
12964,1564322838671,9,2.31,1.46,0.83,2.41,2.02,1.23,0.05,-0.01,2,-6,3,1.23,8696,0,69,30,23,502,793.0,646,466,60,129.0,73,1,270,176,58,0,0,767,-8148,-10214,793,-5.59,,,,,,,,,,,,
12984,1564322838691,14,2.31,1.46,0.83,2.4,2.02,1.1,0.06,0.09,2,-5,3,1.1,8656,0,69,30,23,502,787.0,644,465,60,130.0,73,1,270,176,58,0,0,759,3544,-2344,787,-5.59,,,,,,,,,,,,
13004,1564322838711,13,2.3,1.45,0.84,2.41,2.02,1.11,0.04,0.12,2,-6,2,1.11,8624,0,69,30,23,502,781.0,646,465,60,130.0,73,1,270,176,58,0,0,765,-10218,-2570,780,-5.59,,,,,,,,,,,,
13024,1564322838731,12,2.3,1.46,0.84,2.4,2.02,1.2,0.06,0.12,2,-6,4,1.21,8585,0,69,30,23,502,779.0,641,466,60,128.0,73,1,270,176,58,0,0,768,-2574,6900,778,-5.59,,,,,,,,,,,,
13044,1564322838751,10,2.31,1.45,0.84,2.41,2.02,1.19,-0.01,0.01,2,-5,2,1.19,8596,0,69,30,24,502,776.0,640,467,60,129.0,73,1,270,181,58,0,0,751,7413,8838,774,-5.59,44.680866,10.016834,79.41,176.9,0,0.0,-1,0.0,0.0,0,0.11,0.2174
13064,1564322838771,13,2.32,1.46,0.84,2.4,2.02,1.1,0.0,0.04,2,-3,3,1.1,8569,0,69,30,24,502,772.0,643,466,60,129.0,75,1,270,181,58,0,0,743,-2570,-3038,770,-5.59,,,,,,,,,,,,
13084,1564322838791,11,2.31,1.47,0.84,2.4,2.01,1.16,0.03,0.09,2,-4,2,1.16,8476,0,69,31,24,502,766.0,640,464,60,129.0,75,1,270,180,58,0,0,751,-2826,-23308,765,-5.59,,,,,,,,,,,,
13104,1564322838811,14,2.32,1.46,0.85,2.41,2.02,1.12,-0.03,-0.01,3,-3,3,1.12,8378,0,69,31,25,502,764.0,642,465,60,130.0,75,1,270,181,58,0,0,742,13016,-23308,764,-5.59,,,,,,,,,,,,
13124,1564322838831,13,2.31,1.46,0.84,2.41,2.02,1.13,-0.05,0.1,3,-4,2,1.13,8318,0,69,31,25,502,758.0,642,466,60,128.0,75,1,270,178,58,0,0,728,-31066,1037,758,-5.59,,,,,,,,,,,,
13144,1564322838851,12,2.31,1.45,0.84,2.4,2.02,1.19,-0.07,0.02,2,-3,2,1.2,8274,0,69,31,25,502,753.0,638,463,60,129.0,75,1,270,175,58,0,0,727,-3450,-2314,753,-5.59,44.680847,10.016829,77.75,176.9,0,0.0,-1,0.0,0.0,0,0.11,0.2191
13164,1564322838871,13,2.32,1.46,0.85,2.4,2.02,1.15,-0.05,0.05,2,-2,2,1.15,8249,0,69,31,25,502,749.0,637,466,60,128.0,72,1,270,173,54,0,0,720,136,3462,747,-5.59,,,,,,,,,,,,
13184,1564322838895,15,2.31,1.46,0.84,2.41,2.02,1.19,-0.06,0.01,2,-2,3,1.19,8202,0,69,31,26,502,745.0,637,463,60,129.0,72,1,273,171,54,0,0,726,-2826,-2826,745,-5.59,,,,,,,,,,,,
13204,1564322838915,13,2.3,1.46,0.85,2.4,2.03,1.22,-0.06,0.0,3,-2,3,1.22,8159,0,69,31,26,502,744.0,636,463,60,130.0,72,1,273,169,54,0,0,711,-3580,1524,744,-5.59,,,,,,,,,,,,
13224,1564322838935,14,2.29,1.46,0.84,2.41,2.03,1.1,-0.08,-0.06,2,0,3,1.1,8130,0,69,31,26,502,738.0,636,465,60,129.0,72,1,273,167,54,0,0,697,-3580,31988,738,414.87,,,,,,,,,,,,
13244,1564322838955,12,2.31,1.45,0.84,2.41,2.02,1.19,-0.05,-0.08,2,-0,4,1.19,7992,0,69,31,26,502,733.0,633,466,60,128.0,72,1,272,160,54,0,0,705,-13580,-23490,731,-5.59,44.680824,10.016822,75.58,176.9,0,0.0,-1,0.0,0.0,0,0.12,0.2207
13264,1564322838975,10,2.31,1.46,0.85,2.4,2.03,1.18,-0.05,-0.05,2,-2,5,1.18,7832,0,69,31,26,502,730.0,634,465,60,130.0,65,1,271,160,48,0,0,718,1524,-2918,730,-5.59,,,,,,,,,,,,
13284,1564322838995,10,2.31,1.46,0.83,2.4,2.01,1.11,-0.03,-0.03,3,-2,4,1.11,7640,0,69,31,26,502,728.0,627,462,60,130.0,65,1,269,160,48,0,0,718,-388,31988,727,-5.59,,,,,,,,,,,,
13304,1564322839007,14,2.3,1.46,0.84,2.41,2.02,1.1,-0.06,-0.06,3,-3,4,1.1,7458,0,69,31,26,502,722.0,631,460,60,131.0,65,1,267,81,48,0,0,678,-2830,24,722,-5.59,,,,,,,,,,,,
13324,1564322839027,13,2.31,1.46,0.84,2.4,2.03,1.09,-0.08,0.0,4,-6,3,1.1,7509,0,69,31,26,502,713.0,629,461,60,130.0,65,1,268,160,48,0,0,675,-13312,-20693,712,-5.59,,,,,,,,,,,,
13344,1564322839047,16,2.3,1.46,0.84,2.42,2.02,1.08,-0.11,0.02,3,-9,1,1.08,7461,0,69,31,26,502,709.0,627,462,60,131.0,65,1,267,160,48,0,0,633,-20693,-27404,709,-5.59,44.680805,10.016816,73.17,177.0,0,0.0,-1,0.0,0.0,0,0.12,0.2224
13364,1564322839067,16,2.28,1.46,0.84,2.41,2.02,0.98,-0.12,-0.05,4,-7,3,0.99,7618,0,69,31,26,502,706.0,630,466,60,131.0,65,1,269,159,46,0,0,619,15647,-30207,706,-5.59,,,,,,,,,,,,
13384,1564322839094,18,2.29,1.46,0.85,2.41,2.02,0.96,-0.08,-0.09,4,-6,3,0.96,7687,0,69,31,26,502,700.0,631,461,60,130.0,65,1,269,160,46,0,0,602,16599,24,700,-5.59,,,,,,,,,,,,
13404,1564322839114,17,2.3,1.46,0.85,2.41,2.02,0.94,-0.04,-0.13,3,-4,1,0.94,7690,0,69,31,26,503,695.0,632,467,60,130.0,65,1,269,160,46,0,0,561,12333,10432,690,-5.59,,,,,,,,,,,,
13424,1564322839134,20,2.29,1.47,0.85,2.4,2.03,0.92,-0.06,-0.17,2,-1,2,0.92,7674,0,69,31,26,503,692.0,631,465,60,130.0,65,1,269,159,46,0,0,555,1780,1,687,-5.59,,,,,,,,,,,,
13444,1564322839154,19,2.29,1.47,0.85,2.41,2.02,0.99,-0.03,-0.13,2,-0,1,0.99,7646,0,69,31,26,503,686.0,631,465,60,131.0,65,1,269,160,46,0,0,571,6208,259,682,-5.59,44.68079,10.016809,71.6,177.0,0,0.0,-1,0.0,0.0,0,0.12,0.2241
13464,1564322839174,16,2.29,1.47,0.85,2.41,2.02,1.1,-0.05,-0.17,2,-2,1,1.1,7674,0,69,31,25,503,679.0,631,463,60,129.0,67,1,266,159,46,0,0,574,-2345,-2934,677,-5.59,,,,,,,,,,,,
13484,1564322839194,17,2.29,1.47,0.84,2.41,2.02,1.17,-0.04,-0.15,2,-3,0,1.18,7693,0,69,31,26,503,674.0,632,466,60,130.0,67,1,269,160,46,0,0,561,-10344,774,669,-5.59,,,,,,,,,,,,
13504,1564322839214,18,2.29,1.46,0.84,2.42,2.02,1.17,-0.06,-0.05,2,-4,-1,1.17,7716,0,69,31,25,503,667.0,630,463,60,131.0,67,1,267,159,46,0,0,560,1549,2524,663,-5.59,,,,,,,,,,,,
13524,1564322839234,18,2.31,1.47,0.85,2.41,2.03,1.11,-0.06,-0.1,2,-3,-1,1.11,7646,0,69,31,25,503,662.0,634,466,60,131.0,67,1,266,159,46,0,0,579,-2826,2524,658,-5.59,,,,,,,,,,,,
13544,1564322839254,19,2.29,1.47,0.85,2.42,2.03,1.05,-0.05,-0.13,2,-2,-1,1.05,7628,0,69,31,25,502,656.0,633,463,60,131.0,67,1,266,159,46,0,0,560,-388,1,652,-5.59,44.680775,10.016804,69.2,177.0,0,0.0,-1,0.0,0.0,0,0.12,0.2257
13564,1564322839274,18,2.3,1.46,0.85,2.41,2.02,1.03,-0.09,-0.16,2,-1,-1,1.04,7637,0,69,31,25,503,650.0,629,464,60,130.0,69,1,266,159,45,0,0,552,24583,-3210,647,-5.59,,,,,,,,,,,,
13584,1564322839296,20,2.29,1.47,0.85,2.41,2.02,1.01,-0.07,-0.17,1,-0,-0,1.01,7684,0,69,31,25,503,645.0,631,465,60,131.0,69,1,266,159,45,0,0,557,-2830,-9072,637,-5.59,,,,,,,,,,,,
13604,1564322839316,22,2.29,1.46,0.85,2.41,2.03,1.06,-0.05,-0.18,1,0,0,1.06,7631,0,69,31,25,503,639.0,631,465,60,131.0,69,1,266,80,45,0,0,570,-2580,-18032,634,-5.59,,,,,,,,,,,,
13624,1564322839336,21,2.29,1.47,0.85,2.41,2.03,1.13,-0.05,-0.18,1,0,-1,1.13,7625,0,69,31,25,503,633.0,632,466,60,130.0,69,1,266,159,45,0,0,564,3,6273,631,-5.59,,,,,,,,,,,,
13644,1564322839356,19,2.29,1.46,0.85,2.41,2.03,1.2,0.0,-0.13,1,0,-0,1.2,7649,0,69,31,25,503,628.0,629,465,60,129.0,69,1,266,159,45,0,0,545,20993,-3190,628,-5.59,44.680759,10.016797,66.3,177.1,0,0.0,-1,0.0,0.0,0,0.12,0.2274
13664,1564322839376,17,2.3,1.46,0.85,2.42,2.02,1.27,0.02,-0.07,0,0,0,1.27,7615,0,69,31,24,503,622.0,632,462,60,130.0,72,1,266,156,45,0,0,560,17336,1780,619,-5.59,,,,,,,,,,,,
13684,1564322839396,15,2.3,1.47,0.85,2.41,2.02,1.35,0.03,-0.02,0,-2,-0,1.35,7643,0,69,32,25,503,616.0,631,468,60,130.0,72,1,266,159,45,0,0,565,19304,2216,614,-5.59,,,,,,,,,,,,
13704,1564322839416,12,2.29,1.47,0.85,2.42,2.03,1.38,0.07,0.04,0,-3,-1,1.38,7618,0,69,32,24,503,611.0,631,460,60,131.0,72,1,266,156,45,0,0,561,-3446,-22359,611,-5.59,,,,,,,,,,,,
13724,1564322839436,15,2.27,1.47,0.85,2.41,2.02,1.38,0.03,0.04,-0,-2,-0,1.38,7609,0,69,32,24,503,608.0,628,465,60,131.0,72,1,266,159,45,0,0,558,17740,-29984,604,-5.59,,,,,,,,,,,,
13744,1564322839456,15,2.27,1.46,0.85,2.42,2.03,1.31,0.04,0.0,0,-2,0,1.31,7606,0,69,32,24,503,601.0,628,462,60,131.0,72,1,266,156,45,0,0,573,243,-30159,597,-5.59,44.680744,10.01679,63.39,177.1,0,0.0,-1,0.0,0.0,0,0.13,0.2291
13764,1564322839476,16,2.27,1.47,0.85,2.41,2.03,1.25,0.06,-0.04,-0,-2,-0,1.25,7671,0,70,32,24,503,596.0,631,465,60,130.0,77,1,266,156,46,0,0,552,3472,-23623,592,-5.59,,,,,,,,,,,,
13784,1564322839492,14,2.27,1.47,0.85,2.41,2.03,1.2,0.02,-0.05,-0,-1,-1,1.2,7665,0,70,32,24,503,589.0,631,465,60,131.0,77,1,266,156,46,0,0,563,2048,1760,584,-5.59,,,,,,,,,,,,
13804,1564322839512,16,2.27,1.46,0.85,2.42,2.02,1.14,0.04,-0.08,-1,-0,-1,1.15,7684,0,70,32,24,503,582.0,630,464,60,130.0,77,1,266,156,46,0,0,563,15649,6273,580,-5.59,,,,,,,,,,,,
13824,1564322839532,16,2.27,1.46,0.86,2.41,2.03,1.16,0.05,-0.12,-1,-1,-0,1.17,7643,0,69,32,24,503,578.0,631,467,60,130.0,77,1,266,156,46,0,0,549,-3210,2524,575,-5.59,,,,,,,,,,,,
13844,1564322839552,16,2.26,1.47,0.85,2.41,2.03,1.2,0.08,-0.14,-1,-1,-1,1.2,7572,0,69,32,24,503,576.0,631,467,60,131.0,77,1,265,156,46,0,0,557,1,14504,574,-5.59,44.680725,10.016786,60.64,177.1,0,0.0,-1,0.0,0.0,0,0.13,0.2307
13864,1564322839572,16,2.25,1.46,0.86,2.41,2.03,1.19,0.1,-0.14,-2,0,-2,1.2,7443,0,70,32,24,503,573.0,629,466,60,130.0,76,1,264,156,44,0,0,555,1760,2216,567,-5.59,,,,,,,,,,,,
13884,1564322839592,16,2.23,1.47,0.86,2.41,2.03,1.2,0.16,-0.09,-3,1,-1,1.21,7413,0,69,32,24,503,567.0,627,465,60,131.0,76,1,263,156,44,0,0,555,1780,-32248,559,-5.59,,,,,,,,,,,,
13904,1564322839608,16,2.21,1.47,0.85,2.42,2.03,1.22,0.22,-0.12,-4,0,-2,1.24,7376,0,70,32,24,503,565.0,626,465,60,130.0,76,1,263,156,44,0,0,542,12552,-2934,555,-5.59,,,,,,,,,,,,
13924,1564322839628,15,2.19,1.46,0.85,2.42,2.02,1.18,0.26,-0.14,-5,2,-3,1.21,7373,0,70,32,25,503,560.0,630,467,60,131.0,76,1,263,159,44,0,0,547,-28648,-9072,549,-5.59,,,,,,,,,,,,
13944,1564322839648,12,2.19,1.46,0.86,2.41,2.02,1.1,0.36,-0.19,-7,3,-3,1.16,7287,0,70,32,25,503,561.0,627,463,60,131.0,76,1,262,159,44,0,0,551,-18032,-32248,539,-5.59,44.680714,10.01678,58.07,177.1,0,0.0,-1,0.0,0.0,0,0.13,0.2324
13964,1564322839668,12,2.18,1.46,0.86,2.41,2.02,1.08,0.39,-0.18,-7,3,-4,1.15,7242,0,70,32,25,503,556.0,624,464,60,131.0,79,1,262,159,43,0,0,543,2216,2524,534,-5.59,,,,,,,,,,,,
13984,1564322839692,12,2.17,1.46,0.86,2.4,2.02,1.06,0.41,-0.15,-8,3,-6,1.14,7189,0,70,32,25,503,553.0,625,467,60,130.0,79,1,261,159,43,0,0,544,-9072,-3414,529,-5.59,,,,,,,,,,,,
14004,1564322839712,16,2.17,1.46,0.84,2.4,2.01,1.11,0.4,-0.09,-9,1,-8,1.18,7107,0,70,32,25,503,549.0,623,466,60,130.0,79,1,261,159,43,0,0,540,2104,2524,521,-5.59,,,,,,,,,,,,
14024,1564322839732,13,2.14,1.45,0.85,2.38,2.01,1.14,0.51,-0.1,-11,2,-9,1.25,7030,0,70,32,25,503,546.0,622,463,60,130.0,79,1,260,159,43,0,0,534,-8962,-9216,520,-5.59,,,,,,,,,,,,
14044,1564322839752,12,2.12,1.45,0.84,2.39,2.0,1.12,0.58,-0.1,-12,2,-10,1.27,6939,0,70,32,26,503,544.0,624,463,60,129.0,79,1,265,160,43,0,0,532,-506,-6441,515,-5.59,44.680698,10.016775,55.47,177.1,0,0.0,-1,0.0,0.0,0,0.13,0.2341
14064,1564322839772,13,2.1,1.45,0.84,2.37,2.0,1.14,0.57,-0.06,-14,1,-11,1.28,6888,0,70,32,26,503,544.0,622,465,60,129.0,81,1,266,160,42,0,0,538,-3082,-17956,506,-5.59,,,,,,,,,,,,
14084,1564322839792,9,2.09,1.44,0.83,2.36,2.0,1.11,0.71,-0.07,-16,2,-13,1.32,6818,0,70,32,26,503,540.0,622,465,60,130.0,81,1,266,160,42,0,0,540,-8186,2131,501,-5.59,,,,,,,,,,,,
14104,1564322839812,10,2.09,1.45,0.83,2.35,1.99,1.09,0.66,-0.01,-17,2,-15,1.27,6632,0,70,32,27,503,541.0,620,467,60,129.0,81,1,271,161,42,0,0,535,-2336,10392,495,-5.59,,,,,,,,,,,,
14124,1564322839832,7,2.12,1.45,0.83,2.35,1.99,1.03,0.77,0.01,-18,3,-18,1.29,6512,0,70,32,27,503,540.0,619,465,60,131.0,81,1,272,161,42,0,0,529,-8186,-992,494,-5.59,,,,,,,,,,,,
14144,1564322839852,4,2.16,1.45,0.83,2.36,1.98,1.0,0.79,0.03,-19,3,-21,1.28,6377,0,70,32,28,503,539.0,613,463,60,131.0,81,1,276,163,42,0,0,530,1780,-14707,498,-5.59,44.680687,10.016771,52.89,177.1,0,0.0,-1,0.0,0.0,0,0.13,0.2357
14164,1564322839872,5,2.19,1.45,0.83,2.35,1.99,1.05,0.71,0.02,-19,2,-23,1.27,6233,0,70,32,28,503,536.0,606,460,60,132.0,76,1,277,163,38,0,0,531,-30064,0,497,-5.59,,,,,,,,,,,,
14184,1564322839896,5,2.21,1.45,0.83,2.35,1.99,1.07,0.64,0.0,-19,1,-24,1.25,6091,0,70,32,29,502,531.0,603,467,60,130.0,76,1,281,164,38,0,0,525,-22519,-26615,498,-5.59,,,,,,,,,,,,
14204,1564322839916,3,2.21,1.45,0.83,2.36,1.99,1.05,0.59,0.04,-18,0,-25,1.2,5963,0,70,32,30,502,526.0,603,464,60,130.0,76,1,281,165,38,0,0,518,10408,1,497,-5.59,,,,,,,,,,,,
14224,1564322839936,2,2.2,1.45,0.83,2.35,2.0,1.12,0.53,-0.05,-18,-3,-24,1.24,5892,0,70,32,30,501,520.0,602,463,60,131.0,76,1,278,164,38,0,0,502,1341,10305,497,-5.59,,,,,,,,,,,,
14244,1564322839956,1,2.2,1.45,0.83,2.35,1.99,1.13,0.5,-0.04,-17,-6,-24,1.24,5950,0,70,32,31,501,513.0,604,463,60,131.0,76,1,284,166,38,0,0,497,-3482,2212,494,-5.59,44.680672,10.016768,51.2,177.1,0,0.0,-1,0.0,0.0,0,0.13,0.2374
14264,1564322839976,-0,2.2,1.45,0.83,2.36,1.99,1.18,0.42,-0.06,-16,-7,-24,1.25,6069,0,70,32,31,501,511.0,605,465,60,130.0,77,1,287,167,38,0,0,484,-3414,10305,494,-5.59,,,,,,,,,,,,
14284,1564322839996,0,2.21,1.45,0.83,2.36,1.98,1.14,0.37,-0.02,-15,-7,-24,1.2,6229,0,70,32,32,500,510.0,608,462,60,131.0,77,1,290,169,38,0,0,483,-3414,16648,490,-5.59,,,,,,,,,,,,
14304,1564322840008,1,2.21,1.45,0.83,2.36,2.0,1.02,0.41,0.03,-14,-6,-23,1.1,6371,0,70,32,32,501,507.0,612,467,60,130.0,77,1,290,90,38,0,0,484,-21872,-17956,490,-5.59,,,,,,,,,,,,
14324,1564322840028,-1,2.2,1.45,0.83,2.35,1.99,0.96,0.46,0.04,-14,-3,-22,1.07,6456,0,70,32,32,502,503.0,613,465,60,132.0,77,1,290,90,38,0,0,479,2109,2212,487,-5.59,,,,,,,,,,,,
14344,1564322840048,-0,2.18,1.45,0.82,2.36,1.99,1.07,0.42,-0.02,-14,-4,-20,1.15,6592,0,70,32,32,502,499.0,617,462,60,132.0,77,1,290,169,38,0,0,484,-22519,32033,484,-5.59,44.680664,10.016767,50.15,177.1,0,0.0,-1,0.0,0.0,0,0.14,0.2391
14364,1564322840068,3,2.14,1.45,0.83,2.36,1.99,1.04,0.51,0.07,-15,-3,-19,1.16,6632,0,70,32,31,503,498.0,620,465,60,129.0,87,1,286,167,42,0,0,484,2524,8488,481,-5.59,,,,,,,,,,,,
14384,1564322840095,-1,2.12,1.45,0.82,2.35,1.99,1.04,0.58,0.04,-16,-2,-19,1.19,6653,0,70,32,31,503,499.0,616,463,60,131.0,87,1,286,167,42,0,0,488,-22519,-23367,479,-5.59,,,,,,,,,,,,
14404,1564322840115,3,2.08,1.44,0.8,2.34,1.97,1.03,0.61,0.09,-17,-1,-19,1.2,6623,0,70,32,31,504,499.0,620,464,60,129.0,87,1,286,167,42,0,0,492,11560,-1923,477,-5.59,,,,,,,,,,,,
14424,1564322840135,-0,2.05,1.43,0.8,2.31,1.97,1.0,0.72,0.12,-18,0,-20,1.23,6528,0,70,32,31,504,502.0,614,462,60,130.0,87,1,286,167,42,0,0,497,11560,3576,469,-5.59,,,,,,,,,,,,
14444,1564322840155,-1,2.03,1.43,0.79,2.29,1.95,1.03,0.7,0.09,-21,-2,-21,1.25,6485,0,70,32,31,503,501.0,612,463,60,131.0,87,1,286,167,42,0,0,494,11560,6193,466,-5.59,44.680649,10.016767,48.94,177.1,0,0.0,-1,0.0,0.0,0,0.14,0.2407
14464,1564322840175,2,2.02,1.43,0.79,2.29,1.94,1.01,0.72,0.16,-21,-2,-22,1.24,6394,0,70,32,31,503,500.0,617,463,60,130.0,88,1,286,167,41,0,0,494,10408,-9160,462,-5.59,,,,,,,,,,,,
14484,1564322840195,2,2.03,1.43,0.77,2.3,1.93,0.93,0.85,0.2,-22,-1,-23,1.26,6364,0,70,32,31,504,499.0,615,463,60,131.0,88,1,286,167,41,0,0,492,-22519,-26615,457,-5.59,,,,,,,,,,,,
14504,1564322840215,-0,2.02,1.42,0.77,2.29,1.93,0.95,0.92,0.26,-23,-1,-26,1.33,6373,0,70,32,31,503,498.0,612,462,60,131.0,88,1,286,167,41,0,0,488,2524,19477,456,-5.59,,,,,,,,,,,,
14524,1564322840235,-1,2.03,1.43,0.77,2.3,1.93,0.98,0.84,0.23,-24,-3,-28,1.29,6321,0,70,32,32,503,496.0,610,467,60,131.0,88,1,290,90,41,0,0,490,3,-3314,456,-5.59,,,,,,,,,,,,
14544,1564322840255,1,2.03,1.42,0.77,2.29,1.93,1.01,0.81,0.26,-24,-4,-30,1.29,6256,0,70,32,32,503,498.0,608,467,60,130.0,88,1,290,90,41,0,0,491,3,-3856,455,-5.59,44.680637,10.016766,47.39,177.0,0,0.0,-1,0.0,0.0,0,0.14,0.2424
14564,1564322840275,1,2.03,1.43,0.77,2.3,1.93,0.93,0.88,0.27,-24,-4,-31,1.28,6177,0,70,32,32,503,495.0,608,467,60,129.0,86,1,290,169,39,0,0,490,771,-4082,452,-5.59,,,,,,,,,,,,
14584,1564322840295,2,2.03,1.42,0.77,2.29,1.92,0.83,0.98,0.29,-25,-3,-32,1.29,6087,0,70,32,32,504,495.0,610,462,60,130.0,86,1,290,169,39,0,0,492,771,-21792,453,-5.59,,,,,,,,,,,,
14604,1564322840315,2,2.04,1.43,0.77,2.29,1.92,0.78,1.09,0.3,-26,-1,-32,1.34,6042,0,70,32,32,504,494.0,610,461,60,131.0,86,1,290,174,39,0,0,486,998,-3322,449,-5.59,,,,,,,,,,,,
14624,1564322840335,3,2.06,1.42,0.76,2.28,1.93,0.73,1.18,0.28,-27,-0,-32,1.39,6119,0,70,32,33,504,488.0,607,462,60,131.0,86,1,292,174,39,0,0,478,1,-7939,447,-5.59,,,,,,,,,,,,
14644,1564322840355,3,2.06,1.42,0.77,2.29,1.92,0.67,1.26,0.29,-28,-0,-32,1.43,6204,0,70,32,33,505,489.0,608,463,60,132.0,86,1,292,174,39,0,0,476,1,-26615,443,-5.59,44.680626,10.016767,46.88,176.9,0,0.0,-1,0.0,0.0,0,0.14,0.2441
14664,1564322840375,-0,2.09,1.43,0.76,2.29,1.92,0.65,1.27,0.25,-28,-0,-34,1.42,6262,0,70,32,33,505,488.0,610,465,60,130.0,92,1,292,174,41,0,0,480,1,-26615,445,-5.59,,,,,,,,,,,,
14684,1564322840395,-3,2.13,1.43,0.76,2.29,1.92,0.74,1.2,0.22,-28,-1,-35,1.41,6198,0,70,32,33,505,487.0,611,463,60,131.0,92,1,292,174,41,0,0,481,505,-4059,446,-5.59,,,,,,,,,,,,
14704,1564322840415,-1,2.14,1.43,0.76,2.29,1.92,0.84,1.12,0.21,-28,-2,-36,1.4,6095,0,70,32,33,505,485.0,612,463,60,131.0,92,1,292,174,41,0,0,479,-6441,243,443,-5.59,,,,,,,,,,,,
14724,1564322840435,-0,2.16,1.42,0.76,2.27,1.9,0.89,1.0,0.14,-27,-2,-37,1.34,6036,0,70,32,34,504,482.0,603,464,60,131.0,92,1,295,174,41,0,0,473,32033,21580,445,-5.59,,,,,,,,,,,,
14744,1564322840455,-1,2.18,1.42,0.75,2.27,1.9,0.96,0.87,0.11,-26,-3,-36,1.3,6046,0,70,32,34,503,478.0,609,463,60,130.0,92,1,295,174,41,0,0,467,16648,-3322,444,-5.59,44.680614,10.016768,46.3,176.9,0,0.0,-1,0.0,0.0,0,0.14,0.2457
14764,1564322840475,-1,2.21,1.42,0.74,2.26,1.89,1.02,0.74,0.08,-24,-4,-36,1.26,6069,0,70,32,34,502,471.0,605,462,60,131.0,92,1,295,179,41,0,0,462,32033,-18341,446,-5.59,,,,,,,,,,,,
14784,1564322840491,-1,2.24,1.42,0.75,2.24,1.89,1.03,0.64,0.1,-22,-5,-35,1.21,6173,0,70,32,34,501,464.0,609,465,60,131.0,92,1,295,179,41,0,0,459,-3210,20625,447,-5.59,,,,,,,,,,,,
14804,1564322840511,1,2.27,1.41,0.74,2.24,1.89,0.96,0.62,0.14,-19,-3,-33,1.14,6206,0,70,32,34,501,463.0,616,463,60,130.0,92,1,295,179,41,0,0,452,6193,21432,447,-5.59,,,,,,,,,,,,
14824,1564322840531,2,2.31,1.42,0.73,2.25,1.89,0.88,0.58,0.18,-16,-2,-32,1.06,6157,0,70,32,34,502,460.0,613,467,60,129.0,92,1,295,101,41,0,0,454,17628,-18341,447,-5.59,,,,,,,,,,,,
14844,1564322840551,3,2.34,1.42,0.75,2.27,1.89,0.8,0.54,0.24,-14,-1,-30,0.97,6117,0,70,32,33,502,455.0,612,458,60,130.0,92,1,292,174,41,0,0,451,-26615,10305,450,-5.59,44.680603,10.016773,45.28,176.9,0,0.0,-1,0.0,0.0,0,0.14,0.2474
14864,1564322840571,3,2.38,1.43,0.75,2.3,1.9,0.73,0.5,0.29,-11,-0,-28,0.89,6040,0,70,32,34,503,453.0,610,464,60,131.0,90,1,295,179,41,0,0,448,-8985,-6387,452,-5.59,,,,,,,,,,,,
14884,1564322840591,2,2.41,1.44,0.75,2.32,1.91,0.69,0.47,0.34,-8,0,-25,0.84,5988,0,70,32,34,504,454.0,610,466,60,131.0,90,1,294,179,41,0,0,440,8488,-6387,454,-5.59,,,,,,,,,,,,
14904,1564322840611,2,2.42,1.45,0.77,2.35,1.92,0.65,0.4,0.39,-6,1,-22,0.77,5965,0,70,32,34,505,456.0,604,465,60,131.0,90,1,293,179,41,0,0,434,21432,3571,456,-5.59,,,,,,,,,,,,
14924,1564322840631,3,2.42,1.45,0.78,2.36,1.94,0.62,0.33,0.45,-4,2,-19,0.7,5986,0,70,32,34,506,456.0,606,463,60,131.0,90,1,294,179,41,0,0,437,20625,-8985,456,-5.59,,,,,,,,,,,,
14944,1564322840651,1,2.45,1.45,0.79,2.37,1.95,0.57,0.27,0.51,-3,3,-15,0.63,6009,0,70,32,34,506,457.0,605,463,60,131.0,90,1,295,179,41,0,0,429,21580,3571,458,-5.59,44.680592,10.016778,44.72,176.8,0,0.0,-1,0.0,0.0,0,0.14,0.2491
14964,1564322840671,3,2.46,1.46,0.79,2.38,1.95,0.5,0.22,0.57,-1,4,-12,0.55,6007,0,70,32,34,506,456.0,607,463,60,131.0,87,1,295,101,40,0,0,428,5600,3571,456,-5.59,,,,,,,,,,,,
14984,1564322840691,4,2.49,1.46,0.8,2.38,1.95,0.41,0.17,0.67,1,4,-10,0.45,5986,0,70,32,35,505,456.0,608,463,60,130.0,87,1,297,106,40,0,0,427,-7939,-6387,457,-5.59,,,,,,,,,,,,
15004,1564322840711,3,2.54,1.46,0.79,2.38,1.95,0.35,0.11,0.7,3,5,-7,0.37,5948,0,70,32,35,505,456.0,606,460,60,130.0,87,1,295,184,40,0,0,422,1779,10305,456,-5.59,,,,,,,,,,,,
15024,1564322840731,3,2.56,1.45,0.8,2.38,1.96,0.29,0.07,0.74,5,6,-4,0.3,5885,0,70,32,35,505,456.0,604,465,60,128.0,87,1,292,183,40,0,0,417,31796,-3267,456,-5.59,,,,,,,,,,,,
15044,1564322840751,2,2.57,1.46,0.8,2.39,1.96,0.21,0.0,0.81,8,7,-1,0.21,5859,0,70,32,35,505,457.0,603,461,60,130.0,87,1,290,183,40,0,0,410,-4082,-8985,457,-5.59,44.680584,10.016783,44.35,176.8,0,0.0,-1,0.0,0.0,0,0.14,0.2507
15064,1564322840771,-0,2.58,1.46,0.81,2.38,1.97,0.17,-0.15,0.91,10,7,2,0.22,5801,0,70,32,36,505,459.0,605,465,60,128.0,89,1,290,189,41,0,0,403,-21792,-26615,457,-5.59,,,,,,,,,,,,
15084,1564322840791,0,2.54,1.46,0.8,2.39,1.97,0.22,-0.32,0.92,12,7,5,0.38,5744,0,70,32,36,505,456.0,606,466,60,128.0,89,1,286,188,41,0,0,391,-8165,-6387,456,-5.59,,,,,,,,,,,,
15104,1564322840811,-0,2.54,1.45,0.8,2.38,1.97,0.38,-0.4,0.77,14,3,9,0.55,5711,0,70,32,37,504,456.0,600,464,60,129.0,89,1,287,188,41,0,0,385,18584,2524,457,-5.59,,,,,,,,,,,,
15124,1564322840831,3,2.53,1.46,0.8,2.39,1.97,0.54,-0.46,0.68,16,1,13,0.71,5637,0,70,32,37,504,457.0,596,461,60,130.0,89,1,283,116,41,0,0,381,7154,10305,457,-5.59,,,,,,,,,,,,
15144,1564322840851,1,2.54,1.47,0.81,2.38,1.97,0.48,-0.49,0.66,17,2,14,0.69,5563,0,70,32,38,504,453.0,600,463,60,127.0,89,1,280,199,41,0,0,370,18584,2131,454,-5.59,44.680572,10.016788,43.77,176.8,0,0.0,-1,0.0,0.0,0,0.15,0.2524
15164,1564322840871,-0,2.55,1.46,0.8,2.4,1.97,0.46,-0.59,0.61,19,2,16,0.75,5485,0,70,32,39,504,453.0,591,463,60,131.0,90,1,279,127,41,0,0,359,-3414,21432,453,-5.59,,,,,,,,,,,,
15184,1564322840895,4,2.56,1.46,0.81,2.4,1.97,0.56,-0.68,0.5,20,1,19,0.88,5411,0,70,32,39,503,452.0,591,463,60,130.0,90,1,274,127,41,0,0,353,-26615,16648,454,-5.59,,,,,,,,,,,,
15204,1564322840915,-1,2.59,1.47,0.8,2.4,1.97,0.52,-0.76,0.53,21,3,20,0.92,5352,0,70,32,40,503,452.0,593,463,60,128.0,90,1,274,205,41,0,0,340,-26615,16648,452,-5.59,,,,,,,,,,,,
15224,1564322840935,2,2.61,1.46,0.81,2.4,1.98,0.48,-0.86,0.55,22,2,23,0.98,5308,0,70,32,41,504,452.0,590,460,60,130.0,90,1,275,205,41,0,0,333,-4059,21432,452,-5.59,,,,,,,,,,,,
15244,1564322840955,-2,2.62,1.47,0.81,2.4,1.99,0.5,-0.84,0.57,25,2,26,0.98,5255,0,70,32,41,504,450.0,557,467,60,129.0,90,1,271,207,41,0,0,322,11560,-3267,450,-5.59,44.680561,10.01679,43.47,176.7,0,0.0,-1,0.0,0.0,0,0.15,0.2541
15264,1564322840975,4,2.62,1.47,0.81,2.4,1.98,0.51,-0.91,0.57,25,2,27,1.05,5178,0,70,32,42,504,451.0,409,463,60,131.0,90,1,269,208,41,0,0,319,-26615,21432,451,-5.59,,,,,,,,,,,,
15284,1564322840995,-0,2.63,1.46,0.81,2.39,1.99,0.55,-0.95,0.54,27,3,29,1.1,5062,0,70,32,43,504,449.0,382,462,60,127.0,90,1,264,210,41,0,0,308,1504,23400,449,-5.59,,,,,,,,,,,,
15304,1564322841007,0,2.63,1.47,0.81,2.4,1.98,0.65,-0.95,0.55,29,1,31,1.15,5005,0,70,32,44,504,449.0,410,460,60,131.0,90,1,262,212,41,0,0,300,-8151,26704,448,-5.59,,,,,,,,,,,,
15324,1564322841027,4,2.62,1.47,0.81,2.41,1.99,0.61,-1.01,0.56,30,1,32,1.18,4957,0,70,32,45,504,449.0,380,463,60,131.0,90,1,260,135,41,0,0,287,1504,-18341,449,-5.59,,,,,,,,,,,,
15344,1564322841047,-1,2.64,1.47,0.81,2.4,1.98,0.64,-1.08,0.53,31,2,33,1.26,4942,8,70,32,46,504,449.0,330,466,60,129.0,90,1,258,214,41,0,0,275,11545,21432,449,-5.59,44.68055,10.016793,43.13,176.6,0,0.0,-1,0.0,0.0,0,0.15,0.2557
15364,1564322841067,-1,2.63,1.47,0.82,2.4,2.0,0.73,-1.06,0.5,33,0,36,1.29,4870,18,70,32,48,504,448.0,293,461,60,128.0,89,1,259,140,40,0,0,269,6384,23400,448,-5.59,,,,,,,,,,,,
15384,1564322841096,2,2.62,1.47,0.81,2.4,1.99,0.73,-1.08,0.51,34,0,37,1.3,4790,23,70,32,51,504,446.0,265,458,60,130.0,89,1,261,225,40,0,0,265,-3968,21580,446,-5.59,,,,,,,,,,,,
15404,1564322841116,2,2.63,1.47,0.81,2.41,1.99,0.72,-1.08,0.51,34,1,38,1.3,4739,29,70,32,56,504,444.0,248,463,60,131.0,89,1,261,239,40,0,0,263,-3968,20625,444,-5.59,,,,,,,,,,,,
15424,1564322841136,2,2.64,1.47,0.81,2.4,1.99,0.7,-1.1,0.52,34,2,38,1.3,4749,33,70,32,61,504,445.0,241,463,60,130.0,89,1,247,261,40,0,0,260,17144,19477,445,-5.59,,,,,,,,,,,,
15444,1564322841156,-1,2.63,1.47,0.82,2.4,1.99,0.72,-1.14,0.49,35,1,39,1.35,4788,38,70,32,66,504,445.0,235,467,60,130.0,89,1,254,298,40,0,0,255,1,20625,443,-5.59,44.680542,10.016793,42.55,176.6,0,0.0,-1,0.0,0.0,0,0.15,0.2574
15464,1564322841176,-2,2.64,1.47,0.82,2.4,2.0,0.75,-1.13,0.47,37,-1,42,1.36,4810,41,70,32,71,504,443.0,230,461,60,130.0,128,1,258,326,57,0,0,251,-1562,5600,443,-5.59,,,,,,,,,,,,
15484,1564322841196,-0,2.64,1.46,0.82,2.4,2.0,0.75,-1.11,0.49,38,-1,43,1.34,4778,43,70,32,75,504,442.0,233,455,60,130.0,128,1,256,343,57,0,0,251,-1562,-28332,442,-5.59,,,,,,,,,,,,
15504,1564322841216,2,2.63,1.46,0.81,2.4,2.0,0.76,-1.11,0.48,38,-0,43,1.35,4766,43,70,32,79,504,440.0,237,463,60,131.0,128,1,256,374,57,0,0,251,-6524,21580,440,-5.59,,,,,,,,,,,,
15524,1564322841236,1,2.63,1.47,0.82,2.4,2.0,0.74,-1.15,0.49,37,1,43,1.37,4694,43,70,32,80,504,438.0,235,462,60,131.0,128,1,251,396,57,0,0,252,-6524,1779,438,-5.59,,,,,,,,,,,,
15544,1564322841256,3,2.61,1.46,0.82,2.4,2.0,0.75,-1.22,0.46,36,2,43,1.43,4642,43,70,32,82,503,438.0,231,463,60,130.0,128,1,247,420,57,0,0,254,-3866,243,437,-5.59,44.680527,10.016793,41.87,176.5,0,0.0,-1,0.0,0.0,0,0.15,0.2591
15564,1564322841276,2,2.6,1.47,0.82,2.4,2.0,0.75,-1.27,0.4,36,2,43,1.48,4587,43,70,32,83,504,437.0,227,470,60,130.0,167,1,244,431,73,0,0,257,-6475,243,437,-5.59,,,,,,,,,,,,
15584,1564322841298,4,2.56,1.47,0.82,2.4,2.0,0.75,-1.31,0.4,36,2,44,1.51,4541,43,70,32,84,504,437.0,220,470,60,131.0,167,1,242,432,73,0,0,257,-19019,31796,437,-5.59,,,,,,,,,,,,
15604,1564322841318,2,2.54,1.47,0.82,2.4,2.01,0.76,-1.35,0.39,36,1,44,1.55,4466,43,70,32,84,504,436.0,213,470,60,131.0,167,1,236,351,73,0,0,254,-19126,-768,436,-5.59,,,,,,,,,,,,
15624,1564322841338,2,2.51,1.47,0.81,2.41,2.0,0.75,-1.38,0.4,35,1,45,1.57,4451,43,70,32,85,504,436.0,207,471,60,131.0,167,1,237,431,73,0,0,247,-19126,3826,436,-5.59,,,,,,,,,,,,
15644,1564322841358,2,2.46,1.47,0.81,2.41,2.0,0.77,-1.37,0.41,34,1,45,1.57,4494,43,70,32,85,504,431.0,202,471,60,131.0,167,1,242,433,73,0,0,229,-19126,3826,431,-5.59,44.680519,10.01679,41.47,176.5,0,0.0,-1,0.0,0.0,0,0.15,0.2607
15664,1564322841378,4,2.42,1.47,0.81,2.41,1.99,0.75,-1.32,0.43,31,1,44,1.52,4488,43,70,32,85,504,428.0,197,470,60,130.0,170,1,241,433,73,0,0,218,-6475,7154,427,-5.59,,,,,,,,,,,,
15684,1564322841398,3,2.38,1.47,0.81,2.41,2.0,0.77,-1.26,0.41,28,1,43,1.48,4428,43,70,32,85,505,422.0,192,470,60,130.0,170,1,235,429,73,0,0,218,240,-8165,422,-5.59,,,,,,,,,,,,
15704,1564322841418,2,2.36,1.47,0.8,2.41,1.99,0.78,-1.21,0.4,26,2,42,1.44,4398,52,70,32,86,504,420.0,188,470,60,132.0,170,1,235,431,73,0,0,216,-1562,-21944,420,-5.59,,,,,,,,,,,,
15724,1564322841438,-1,2.35,1.46,0.8,2.39,2.0,0.79,-1.18,0.3,25,3,41,1.42,4408,62,70,32,88,504,415.0,183,469,60,131.0,170,1,241,441,73,0,0,290,505,-4059,415,-5.59,,,,,,,,,,,,
15744,1564322841458,0,2.33,1.47,0.8,2.4,1.99,0.85,-1.11,0.3,24,3,38,1.4,4446,77,70,32,92,504,409.0,182,467,60,132.0,170,1,261,507,73,0,0,383,-6524,6512,405,-5.59,44.680508,10.016788,40.7,176.5,0,0.0,-1,0.0,0.0,0,0.15,0.2624
15764,1564322841478,0,2.34,1.46,0.8,2.39,1.99,0.95,-1.01,0.23,21,2,36,1.38,4609,90,70,32,95,503,400.0,180,458,60,132.0,239,1,288,568,96,0,0,386,-6524,-1562,400,-5.59,,,,,,,,,,,,
15784,1564322841494,4,2.33,1.47,0.8,2.39,1.99,0.89,-0.94,0.32,19,2,34,1.3,4719,100,70,32,95,503,393.0,180,465,60,131.0,239,1,293,596,96,0,0,380,-6524,-31744,393,-5.59,,,,,,,,,,,,
15804,1564322841514,-1,2.32,1.46,0.8,2.4,1.98,0.85,-0.85,0.35,16,2,31,1.2,4942,100,70,32,95,502,391.0,179,461,60,130.0,239,1,304,601,96,0,0,380,-6524,19125,391,181.28,,,,,,,,,,,,
15824,1564322841534,1,2.32,1.46,0.8,2.39,1.99,0.9,-0.72,0.31,14,2,29,1.15,5084,100,70,32,95,502,389.0,178,465,60,132.0,239,1,308,597,96,0,0,378,240,3,389,-5.59,,,,,,,,,,,,
15844,1564322841554,-3,2.31,1.46,0.8,2.39,1.98,0.82,-0.67,0.37,13,3,26,1.06,5249,100,70,32,95,501,388.0,182,463,60,130.0,239,1,310,588,96,0,0,382,-31744,3,387,-5.59,44.6805,10.016783,39.91,176.5,0,0.0,-1,0.0,0.0,0,0.15,0.2641
15864,1564322841574,1,2.31,1.46,0.8,2.39,1.99,0.92,-0.6,0.33,12,3,24,1.1,5351,100,70,32,94,501,389.0,178,463,60,131.0,291,1,311,489,113,0,0,382,-19019,19125,389,-5.59,,,,,,,,,,,,
15884,1564322841594,-0,2.3,1.46,0.79,2.39,1.98,0.84,-0.52,0.41,12,3,22,0.99,5370,100,70,32,95,501,389.0,182,463,60,131.0,291,1,311,580,113,0,0,381,-19019,19125,389,181.28,,,,,,,,,,,,
15904,1564322841614,3,2.26,1.46,0.79,2.38,1.98,0.92,-0.48,0.33,11,4,20,1.04,5355,100,70,32,95,501,389.0,181,466,60,132.0,291,1,311,564,113,0,0,381,-6475,-3866,389,-5.59,,,,,,,,,,,,
15924,1564322841634,2,2.23,1.45,0.78,2.37,1.97,0.9,-0.38,0.43,10,5,17,0.98,5397,100,70,33,95,501,387.0,183,462,60,130.0,291,1,311,579,113,0,0,381,-19126,-19019,385,-5.59,,,,,,,,,,,,
15944,1564322841654,0,2.2,1.45,0.77,2.37,1.96,0.87,-0.3,0.42,8,5,17,0.92,5593,82,70,33,95,501,386.0,188,460,60,132.0,291,1,313,568,113,0,0,384,-3866,-19126,381,-5.59,44.680489,10.016776,38.97,176.5,0,0.0,-1,0.0,0.0,0,0.16,0.2657
15964,1564322841674,-1,2.17,1.44,0.76,2.35,1.95,0.96,-0.26,0.38,5,2,15,0.99,5922,61,70,33,91,501,388.0,198,465,60,131.0,305,1,316,505,116,0,0,385,-6524,8200,376,-5.59,,,,,,,,,,,,
15984,1564322841694,-1,2.14,1.44,0.76,2.34,1.95,0.89,-0.21,0.48,3,0,13,0.91,6291,57,70,33,88,501,389.0,210,462,60,131.0,305,1,342,501,116,0,0,392,-31744,742,374,-5.59,,,,,,,,,,,,
16004,1564322841714,3,2.12,1.43,0.75,2.33,1.94,0.73,-0.09,0.59,0,3,10,0.73,6360,56,70,33,86,501,393.0,221,462,60,128.0,305,1,347,493,116,0,0,410,17144,17144,372,-5.59,,,,,,,,,,,,
16024,1564322841734,3,2.11,1.44,0.74,2.31,1.93,0.62,0.03,0.72,-2,5,5,0.63,5950,56,70,33,86,501,404.0,241,462,60,130.0,305,1,330,482,116,0,0,434,1504,10994,376,-5.59,,,,,,,,,,,,
16044,1564322841754,2,2.11,1.43,0.73,2.28,1.91,0.48,0.1,0.85,-4,8,2,0.49,5801,56,70,33,86,501,411.0,264,461,60,129.0,305,1,323,480,116,0,0,425,-4059,8488,379,-5.59,44.680485,10.01677,37.6,176.6,0,0.0,-1,0.0,0.0,0,0.16,0.2674
16064,1564322841774,1,2.11,1.42,0.72,2.26,1.89,0.41,0.17,0.96,-6,8,0,0.45,5746,56,70,33,85,501,412.0,287,456,60,129.0,277,1,322,476,105,0,0,424,13040,-6656,382,-5.59,,,,,,,,,,,,
16084,1564322841794,-0,2.1,1.41,0.7,2.23,1.87,0.42,0.23,0.81,-8,6,-2,0.48,5605,56,70,33,85,502,413.0,308,465,60,132.0,277,1,316,474,105,0,0,418,-9166,-4059,384,-5.59,,,,,,,,,,,,
16104,1564322841814,2,2.09,1.41,0.69,2.23,1.86,0.49,0.24,0.78,-9,5,-4,0.54,5409,56,70,33,85,502,415.0,331,463,60,132.0,277,1,305,475,105,0,0,421,-26615,-4082,387,-5.59,,,,,,,,,,,,
16124,1564322841834,-0,2.1,1.41,0.69,2.23,1.87,0.43,0.33,0.83,-10,5,-6,0.54,5482,56,70,33,86,502,417.0,350,464,60,130.0,277,1,309,475,105,0,0,419,-21944,11545,387,-5.59,,,,,,,,,,,,
16144,1564322841854,-2,2.09,1.4,0.69,2.24,1.87,0.44,0.33,0.71,-10,4,-9,0.54,5565,56,70,33,86,502,418.0,370,465,60,131.0,277,1,313,476,105,0,0,419,-3414,11560,388,-5.59,44.680473,10.016765,36.94,176.6,0,0.0,-1,0.0,0.0,0,0.16,0.2691
16164,1564322841874,4,2.1,1.41,0.7,2.25,1.87,0.48,0.42,0.84,-10,1,-12,0.64,5657,56,70,33,85,502,418.0,391,463,60,131.0,258,1,318,475,101,0,0,419,-3414,18584,392,-5.59,,,,,,,,,,,,
16184,1564322841894,4,2.09,1.41,0.69,2.24,1.87,0.5,0.45,0.87,-11,1,-12,0.67,5803,56,70,33,85,502,421.0,422,465,60,131.0,258,1,325,477,101,0,0,420,-21792,7154,397,-5.59,,,,,,,,,,,,
16204,1564322841914,3,2.09,1.42,0.7,2.26,1.88,0.44,0.46,0.83,-13,1,-13,0.64,5941,56,70,33,84,502,426.0,439,462,60,131.0,258,1,336,479,101,0,0,427,13552,19477,399,-5.59,,,,,,,,,,,,
16224,1564322841934,2,2.08,1.41,0.71,2.25,1.88,0.42,0.54,0.85,-14,1,-14,0.68,6009,56,70,33,84,502,431.0,447,460,60,129.0,258,1,340,480,101,0,0,433,1779,-768,401,-5.59,,,,,,,,,,,,
16244,1564322841954,3,2.07,1.42,0.7,2.23,1.87,0.37,0.62,0.91,-16,1,-15,0.72,5948,52,70,33,84,502,434.0,461,460,60,131.0,258,1,336,476,101,0,0,442,-768,19477,404,-5.59,44.680466,10.01676,38.93,176.6,0,0.0,-1,0.0,0.0,0,0.16,0.2707
16264,1564322841974,3,2.07,1.41,0.7,2.23,1.86,0.36,0.69,1.01,-17,1,-16,0.78,5872,50,70,32,83,502,438.0,489,460,60,130.0,261,1,334,476,106,0,0,442,20625,1779,406,-5.59,,,,,,,,,,,,
16284,1564322841994,1,2.07,1.41,0.68,2.21,1.86,0.34,0.76,1.07,-18,1,-17,0.84,5835,49,70,32,83,502,442.0,530,463,60,129.0,261,1,331,472,106,0,0,443,23400,-3314,407,-5.59,,,,,,,,,,,,
16304,1564322842008,1,2.06,1.4,0.69,2.2,1.86,0.34,0.79,0.99,-18,0,-17,0.86,5892,49,70,32,82,502,442.0,563,463,60,130.0,261,1,337,466,106,0,0,439,23400,-3322,408,-5.59,,,,,,,,,,,,
16324,1564322842028,1,2.06,1.41,0.68,2.2,1.86,0.34,0.78,0.89,-19,-1,-18,0.85,5969,49,70,32,82,501,444.0,582,462,60,130.0,261,1,341,469,106,0,0,444,21432,21580,411,-5.59,,,,,,,,,,,,
16344,1564322842048,0,2.06,1.41,0.68,2.19,1.86,0.34,0.79,0.84,-19,-2,-19,0.87,6064,49,70,32,82,501,445.0,603,466,60,130.0,261,1,346,471,106,0,0,441,2131,-9160,413,-5.59,44.680454,10.016756,40.47,176.5,0,0.0,-1,0.0,0.0,0,0.16,0.2724
16364,1564322842068,1,2.06,1.41,0.68,2.21,1.85,0.31,0.79,0.77,-20,-2,-20,0.85,6171,49,70,32,82,501,447.0,607,465,60,129.0,263,1,349,473,109,0,0,447,10305,6193,415,-5.59,,,,,,,,,,,,
16384,1564322842095,2,2.06,1.4,0.69,2.2,1.86,0.23,0.85,0.75,-20,-1,-21,0.88,6229,48,70,32,82,501,451.0,610,461,60,129.0,263,1,352,474,109,0,0,450,3571,14488,415,-5.59,,,,,,,,,,,,
16404,1564322842115,0,2.07,1.4,0.68,2.19,1.86,0.21,0.88,0.72,-21,1,-23,0.9,6260,48,70,32,81,501,454.0,607,466,60,131.0,263,1,354,468,109,0,0,456,2524,12552,417,-5.59,,,,,,,,,,,,
16424,1564322842135,-2,2.07,1.4,0.68,2.19,1.85,0.29,0.85,0.74,-23,1,-24,0.9,6229,48,70,32,81,501,456.0,605,463,60,131.0,263,1,353,468,109,0,0,457,14488,8488,418,-5.59,,,,,,,,,,,,
16444,1564322842155,-2,2.08,1.4,0.69,2.19,1.85,0.43,0.78,0.75,-23,-1,-25,0.89,6258,48,70,32,81,501,458.0,605,466,60,131.0,263,1,354,468,109,0,0,463,17628,-6387,420,-5.59,44.680447,10.016752,41.01,176.6,0,0.0,-1,0.0,0.0,0,0.16,0.2741
16464,1564322842175,1,2.08,1.4,0.68,2.18,1.85,0.48,0.74,0.81,-23,-3,-27,0.88,6254,48,70,32,81,502,460.0,606,465,60,130.0,263,1,353,468,111,0,0,463,-23623,-6387,421,-5.59,,,,,,,,,,,,
16484,1564322842195,2,2.08,1.4,0.69,2.18,1.85,0.42,0.78,0.87,-23,-3,-28,0.89,6204,48,70,32,81,502,461.0,608,461,60,130.0,263,1,352,468,111,0,0,465,2211,8488,426,-5.59,,,,,,,,,,,,
16504,1564322842215,3,2.07,1.4,0.68,2.18,1.85,0.28,0.87,0.88,-23,-1,-28,0.91,6212,48,70,32,81,502,461.0,607,459,60,130.0,263,1,352,468,111,0,0,462,2211,10432,429,-5.59,,,,,,,,,,,,
16524,1564322842235,2,2.09,1.4,0.68,2.17,1.85,0.24,0.91,0.88,-23,1,-29,0.94,6252,48,70,32,81,502,464.0,608,459,60,130.0,263,1,353,468,111,0,0,463,16408,8488,430,-5.59,,,,,,,,,,,,
16544,1564322842255,-2,2.09,1.39,0.69,2.17,1.85,0.3,0.93,0.84,-23,2,-29,0.98,6277,44,70,32,80,502,463.0,607,461,60,131.0,263,1,355,386,111,0,0,464,30272,10432,432,-5.59,44.680435,10.016749,42.03,176.6,0,0.0,-1,0.0,0.0,0,0.16,0.2757
16564,1564322842275,-1,2.1,1.4,0.69,2.17,1.86,0.43,0.86,0.85,-24,-0,-29,0.96,6381,40,70,32,79,502,466.0,607,466,60,131.0,256,1,359,457,111,0,0,465,-3210,2212,434,-5.59,,,,,,,,,,,,
16584,1564322842295,3,2.11,1.4,0.7,2.17,1.86,0.45,0.83,0.92,-23,-2,-29,0.94,6449,38,70,32,77,502,467.0,611,462,60,130.0,256,1,362,446,111,0,0,470,10432,-3210,434,-5.59,,,,,,,,,,,,
16604,1564322842315,-2,2.13,1.4,0.69,2.17,1.86,0.33,0.89,0.97,-22,0,-30,0.95,6430,37,70,32,75,502,470.0,612,461,60,130.0,256,1,364,440,111,0,0,472,8488,32033,440,-5.59,,,,,,,,,,,,
16624,1564322842335,-2,2.14,1.4,0.69,2.17,1.85,0.4,0.88,0.9,-22,1,-30,0.96,6377,36,70,32,74,502,472.0,610,463,60,131.0,256,1,363,407,111,0,0,473,-1923,10432,444,-5.59,,,,,,,,,,,,
16644,1564322842355,1,2.15,1.39,0.7,2.17,1.86,0.52,0.8,0.89,-22,-0,-30,0.96,6300,33,70,32,73,502,474.0,607,461,60,131.0,256,1,362,391,111,0,0,472,3576,10432,445,-5.59,44.680428,10.016748,43.27,176.6,0,0.0,-1,0.0,0.0,0,0.16,0.2774
16664,1564322842375,0,2.15,1.4,0.7,2.17,1.86,0.53,0.72,0.87,-21,-2,-29,0.9,6294,30,70,32,72,502,473.0,608,462,60,130.0,207,1,362,375,93,0,0,472,3576,14488,448,-5.59,,,,,,,,,,,,
16684,1564322842395,4,2.15,1.4,0.7,2.19,1.86,0.46,0.74,0.9,-20,-2,-28,0.87,6296,30,70,32,71,501,473.0,609,461,60,129.0,207,1,364,359,93,0,0,471,3576,-16384,451,-5.59,,,,,,,,,,,,
16704,1564322842415,0,2.15,1.4,0.7,2.19,1.86,0.44,0.76,0.88,-19,-1,-27,0.88,6300,29,70,32,69,502,474.0,609,461,60,131.0,207,1,367,328,93,0,0,472,-9203,30272,451,-5.59,,,,,,,,,,,,
16724,1564322842435,-3,2.16,1.4,0.7,2.19,1.87,0.5,0.74,0.81,-19,-1,-26,0.89,6377,29,70,32,68,502,475.0,610,465,60,131.0,207,1,370,314,93,0,0,475,-17956,17628,452,-5.59,,,,,,,,,,,,
16744,1564322842455,0,2.17,1.4,0.71,2.19,1.87,0.61,0.65,0.77,-18,-3,-26,0.89,6416,29,70,32,68,502,476.0,614,464,60,130.0,207,1,372,315,93,0,0,476,-23367,2211,455,-5.59,44.680412,10.016747,44.02,176.5,0,0.0,-1,0.0,0.0,0,0.16,0.2791
16764,1564322842475,1,2.17,1.41,0.71,2.2,1.87,0.58,0.67,0.82,-18,-3,-25,0.89,6408,29,70,32,67,501,475.0,613,458,60,131.0,164,1,375,308,75,0,0,475,8488,10432,458,-5.59,,,,,,,,,,,,
16784,1564322842491,-2,2.18,1.41,0.7,2.2,1.87,0.53,0.73,0.82,-17,-1,-25,0.9,6410,29,70,32,66,502,481.0,610,462,60,132.0,164,1,379,301,75,0,0,478,32033,-1923,460,-5.59,,,,,,,,,,,,
16804,1564322842511,-1,2.18,1.41,0.71,2.19,1.88,0.61,0.67,0.71,-18,-1,-25,0.9,6375,29,70,32,66,502,482.0,610,467,60,131.0,164,1,378,300,75,0,0,482,-899,30272,460,-5.59,,,,,,,,,,,,
16824,1564322842531,2,2.17,1.41,0.71,2.19,1.88,0.64,0.61,0.72,-17,-2,-24,0.88,6430,29,70,32,65,502,481.0,611,462,60,130.0,164,1,384,294,75,0,0,485,32033,-3210,462,-5.59,,,,,,,,,,,,
16844,1564322842551,3,2.17,1.41,0.72,2.19,1.88,0.58,0.67,0.74,-16,-2,-24,0.88,6463,29,70,32,65,502,482.0,613,461,60,131.0,164,1,385,296,75,0,0,483,-899,-9203,459,-5.59,44.680405,10.016747,45.33,176.6,0,0.0,-1,0.0,0.0,0,0.17,0.2807
16864,1564322842571,-1,2.17,1.41,0.72,2.2,1.88,0.57,0.69,0.72,-16,-0,-24,0.9,6496,29,70,32,65,502,482.0,612,460,60,131.0,156,1,386,296,72,0,0,480,-899,32033,460,-5.59,,,,,,,,,,,,
16884,1564322842591,2,2.18,1.4,0.72,2.2,1.88,0.62,0.59,0.72,-17,-1,-23,0.85,6492,29,70,32,65,502,482.0,614,462,60,130.0,156,1,385,296,72,0,0,480,-899,-17956,464,-5.59,,,,,,,,,,,,
16904,1564322842611,3,2.17,1.4,0.72,2.21,1.88,0.57,0.6,0.76,-16,-2,-23,0.83,6449,29,70,32,65,502,485.0,610,462,60,129.0,156,1,385,295,72,0,0,483,-1562,-17956,466,-5.59,,,,,,,,,,,,
16924,1564322842631,-1,2.18,1.4,0.72,2.2,1.88,0.56,0.67,0.79,-16,-1,-23,0.88,6425,29,70,32,64,502,485.0,608,463,60,132.0,156,1,388,288,72,0,0,486,-6441,-9203,466,-5.59,,,,,,,,,,,,
16944,1564322842651,2,2.17,1.41,0.72,2.2,1.88,0.63,0.59,0.71,-16,-2,-22,0.86,6483,30,70,32,65,502,486.0,611,467,60,130.0,156,1,387,296,72,0,0,485,-1562,32033,465,-5.59,44.680389,10.016749,45.46,176.6,0,0.0,-1,0.0,0.0,0,0.17,0.2824
16964,1564322842671,3,2.18,1.41,0.72,2.21,1.88,0.6,0.57,0.76,-15,-2,-22,0.83,6565,30,70,32,64,502,486.0,612,460,60,131.0,158,1,393,293,74,0,0,487,-1562,-23367,465,-5.59,,,,,,,,,,,,
16984,1564322842691,-1,2.19,1.41,0.73,2.2,1.89,0.59,0.62,0.73,-15,-1,-21,0.86,6551,30,70,32,64,502,487.0,615,465,60,131.0,158,1,392,292,74,0,0,484,-1562,8488,467,-5.59,,,,,,,,,,,,
17004,1564322842711,1,2.19,1.4,0.73,2.22,1.89,0.64,0.56,0.69,-14,-1,-20,0.85,6546,30,70,32,64,502,487.0,616,462,60,130.0,158,1,392,293,74,0,0,486,505,10305,470,-5.59,,,,,,,,,,,,
17024,1564322842731,-2,2.21,1.41,0.74,2.22,1.89,0.65,0.53,0.8,-14,-1,-20,0.83,6546,30,70,32,64,502,489.0,613,461,60,131.0,158,1,392,292,74,0,0,485,-6656,32033,473,-5.59,,,,,,,,,,,,
17044,1564322842751,-1,2.23,1.41,0.74,2.23,1.89,0.61,0.52,0.7,-13,0,-20,0.8,6533,30,70,32,64,502,488.0,610,465,60,131.0,158,1,392,291,74,0,0,488,1,3576,474,-5.59,44.680382,10.01675,46.19,176.6,0,0.0,-1,0.0,0.0,0,0.17,0.2841
17064,1564322842771,4,2.23,1.41,0.75,2.24,1.9,0.6,0.47,0.66,-12,-0,-19,0.76,6585,30,70,32,64,502,487.0,612,460,60,130.0,151,1,394,293,72,0,0,485,1,-899,476,-5.59,,,,,,,,,,,,
17084,1564322842791,0,2.24,1.41,0.74,2.24,1.9,0.62,0.47,0.75,-11,-1,-19,0.78,6602,29,70,32,64,502,488.0,613,465,60,132.0,151,1,394,295,72,0,0,486,1,-899,476,-5.59,,,,,,,,,,,,
17104,1564322842811,3,2.24,1.42,0.75,2.24,1.91,0.61,0.37,0.67,-11,-1,-18,0.71,6613,19,70,32,62,502,487.0,617,462,60,130.0,151,1,403,283,72,0,0,485,505,505,477,-5.59,,,,,,,,,,,,
17124,1564322842831,3,2.25,1.42,0.76,2.24,1.91,0.59,0.4,0.72,-10,1,-17,0.71,6476,10,70,32,59,502,486.0,616,460,60,131.0,151,1,396,267,72,0,0,484,-1562,1,480,-5.59,,,,,,,,,,,,
17144,1564322842851,-0,2.25,1.41,0.76,2.25,1.91,0.63,0.43,0.75,-9,2,-17,0.76,6423,6,70,32,54,502,488.0,611,460,60,131.0,151,1,386,258,72,0,0,484,-1562,-10483,481,-5.59,44.68037,10.016752,46.84,176.7,0,0.0,-1,0.0,0.0,0,0.17,0.2857
17164,1564322842871,-1,2.25,1.42,0.76,2.25,1.91,0.76,0.37,0.67,-9,-1,-16,0.84,6328,0,70,32,51,502,486.0,609,463,60,131.0,126,1,375,163,61,0,0,488,-1562,3580,481,-5.59,,,,,,,,,,,,
17184,1564322842895,2,2.25,1.42,0.76,2.26,1.91,0.83,0.28,0.69,-9,-4,-15,0.87,6275,0,70,32,49,502,486.0,607,465,60,131.0,126,1,368,224,61,0,0,481,-1562,16648,479,-5.59,,,,,,,,,,,,
17204,1564322842915,2,2.26,1.42,0.77,2.27,1.92,0.74,0.26,0.65,-8,-4,-14,0.79,6241,0,70,32,46,502,486.0,611,464,60,130.0,126,1,355,219,61,0,0,483,-1562,3580,480,-5.59,,,,,,,,,,,,
17224,1564322842935,4,2.24,1.42,0.76,2.28,1.92,0.62,0.27,0.64,-7,-2,-13,0.68,6131,0,70,32,45,502,486.0,608,461,60,131.0,126,1,348,215,61,0,0,481,1,32033,478,-5.59,,,,,,,,,,,,
17244,1564322842955,4,2.25,1.43,0.77,2.28,1.92,0.49,0.27,0.61,-7,1,-12,0.56,6025,0,70,32,43,502,488.0,606,464,60,129.0,126,1,335,213,61,0,0,483,1,-9203,479,-5.59,44.680355,10.016755,47.41,176.7,0,0.0,-1,0.0,0.0,0,0.17,0.2874
17264,1564322842975,2,2.26,1.42,0.77,2.28,1.93,0.4,0.31,0.59,-6,3,-12,0.51,5959,0,70,31,42,502,489.0,605,460,60,131.0,100,1,325,211,48,0,0,482,-6656,-10483,481,-5.59,,,,,,,,,,,,
17284,1564322842995,0,2.26,1.42,0.77,2.29,1.94,0.33,0.36,0.5,-6,5,-10,0.48,5864,0,70,31,42,503,486.0,603,462,60,131.0,100,1,318,211,48,0,0,478,-1562,32033,479,-5.59,,,,,,,,,,,,
17304,1564322843007,2,2.26,1.43,0.78,2.3,1.94,0.24,0.32,0.48,-5,6,-10,0.4,5911,0,70,31,41,503,484.0,600,464,60,130.0,100,1,315,209,48,0,0,466,-10483,243,476,-5.59,,,,,,,,,,,,
17324,1564322843027,1,2.27,1.43,0.78,2.32,1.95,0.22,0.32,0.43,-4,6,-9,0.39,6032,0,70,31,40,503,481.0,602,463,60,130.0,100,1,316,131,48,0,0,466,32033,243,475,-5.59,,,,,,,,,,,,
17344,1564322843047,3,2.26,1.43,0.79,2.32,1.95,0.17,0.28,0.41,-3,7,-8,0.32,6115,0,70,31,39,504,478.0,605,462,60,130.0,100,1,310,208,48,0,0,467,16648,30272,471,-5.59,44.680347,10.016758,47.37,176.7,0,0.0,-1,0.0,0.0,0,0.17,0.2891
17364,1564322843067,3,2.27,1.44,0.79,2.34,1.96,0.14,0.34,0.35,-3,8,-8,0.37,6188,0,70,31,38,504,477.0,605,461,60,130.0,101,1,307,202,48,0,0,463,2212,6193,470,-5.59,,,,,,,,,,,,
17384,1564322843087,0,2.28,1.44,0.8,2.34,1.96,0.15,0.36,0.3,-2,10,-8,0.38,6264,0,70,31,37,504,474.0,608,464,60,130.0,101,1,304,202,48,0,0,458,-9203,6193,469,-5.59,,,,,,,,,,,,
17404,1564322843106,-1,2.29,1.43,0.8,2.34,1.96,0.26,0.34,0.24,-2,11,-7,0.43,6313,0,70,31,36,503,471.0,610,462,60,132.0,101,1,301,196,48,0,0,461,32033,14488,470,-5.59,,,,,,,,,,,,
17424,1564322843126,-1,2.29,1.44,0.8,2.33,1.97,0.43,0.3,0.22,-2,8,-7,0.52,6330,0,70,31,36,503,469.0,615,465,60,131.0,101,1,301,190,48,0,0,462,10432,17628,465,-5.59,,,,,,,,,,,,
17444,1564322843146,2,2.31,1.43,0.8,2.34,1.97,0.52,0.19,0.26,-2,7,-6,0.55,6289,4,70,31,35,502,468.0,614,466,60,129.0,101,1,298,185,48,0,0,461,-16384,6193,465,-5.59,44.680332,10.016761,47.15,176.7,0,0.0,-1,0.0,0.0,0,0.17,0.2907
17464,1564322843166,4,2.3,1.44,0.8,2.35,1.96,0.48,0.2,0.26,-1,7,-6,0.52,6241,6,70,31,35,502,466.0,613,465,60,131.0,94,1,298,185,44,0,0,461,-3210,6193,463,-5.59,,,,,,,,,,,,
17484,1564322843194,1,2.31,1.44,0.8,2.34,1.98,0.43,0.21,0.31,-0,7,-5,0.48,6184,6,70,31,35,502,464.0,612,462,60,130.0,94,1,298,185,44,0,0,457,16408,-9160,461,-5.59,,,,,,,,,,,,
17504,1564322843214,-0,2.31,1.43,0.8,2.35,1.98,0.46,0.19,0.34,-1,7,-6,0.5,6143,6,70,31,35,502,461.0,609,463,60,131.0,94,1,298,185,44,0,0,454,2211,14488,460,-5.59,,,,,,,,,,,,
17524,1564322843234,-2,2.32,1.44,0.8,2.37,1.98,0.52,0.23,0.37,-1,6,-5,0.57,6115,6,70,31,34,503,462.0,605,465,60,132.0,94,1,295,179,44,0,0,448,2211,14488,458,-5.59,,,,,,,,,,,,
17544,1564322843254,-2,2.31,1.45,0.81,2.36,1.98,0.61,0.22,0.41,-1,4,-6,0.65,6103,6,70,31,34,503,459.0,608,462,60,131.0,94,1,295,179,44,0,0,448,-18108,-3267,458,-5.59,44.680321,10.016765,46.17,176.7,0,0.0,-1,0.0,0.0,0,0.17,0.2924
17564,1564322843274,-2,2.32,1.44,0.8,2.37,1.97,0.74,0.14,0.42,-2,2,-6,0.76,6097,6,70,31,34,503,458.0,606,463,60,131.0,89,1,295,179,41,0,0,445,14488,15649,456,-5.59,,,,,,,,,,,,
17584,1564322843294,-2,2.32,1.44,0.81,2.37,1.97,0.87,0.05,0.44,-2,0,-5,0.87,6083,6,70,31,34,504,456.0,606,464,60,132.0,89,1,295,179,41,0,0,441,14488,-3267,453,-5.59,,,,,,,,,,,,
17604,1564322843314,-1,2.33,1.44,0.81,2.37,1.98,0.95,-0.01,0.48,-1,-2,-6,0.95,6067,6,70,31,34,503,454.0,605,465,60,131.0,89,1,295,179,41,0,0,445,-26615,-8985,452,-5.59,,,,,,,,,,,,
17624,1564322843334,-1,2.34,1.45,0.81,2.37,1.99,1.04,-0.03,0.49,-1,-4,-6,1.04,6046,6,70,31,34,503,453.0,604,463,60,131.0,89,1,295,179,41,0,0,445,-6387,10305,451,-5.59,,,,,,,,,,,,
17644,1564322843354,-1,2.36,1.45,0.81,2.37,1.98,1.1,-0.08,0.49,0,-5,-5,1.11,6030,6,70,31,34,502,452.0,604,464,60,131.0,89,1,295,179,41,0,0,440,15649,10305,452,-5.59,44.680309,10.016768,45.5,176.7,0,0.0,-1,0.0,0.0,0,0.18,0.2941
17664,1564322843374,-0,2.39,1.45,0.8,2.38,1.99,1.16,-0.17,0.53,2,-6,-5,1.17,6017,6,70,31,34,502,453.0,603,465,60,131.0,88,1,295,179,40,0,0,438,2131,16648,452,-5.59,,,,,,,,,,,,
17684,1564322843394,-0,2.39,1.45,0.82,2.38,1.98,1.2,-0.27,0.54,3,-8,-5,1.23,6001,6,70,31,34,501,452.0,603,465,60,130.0,88,1,295,179,40,0,0,438,-28332,-18341,452,-5.59,,,,,,,,,,,,
17704,1564322843414,-1,2.4,1.44,0.8,2.38,1.99,1.25,-0.38,0.54,5,-10,-4,1.31,5978,6,70,31,35,500,451.0,603,465,60,131.0,88,1,296,184,40,0,0,430,21580,-3267,451,-5.59,,,,,,,,,,,,
17724,1564322843434,-1,2.43,1.44,0.82,2.39,1.99,1.31,-0.47,0.51,6,-12,-3,1.39,5944,6,70,31,35,500,451.0,603,462,60,131.0,88,1,295,184,40,0,0,429,5600,-6387,451,-5.59,,,,,,,,,,,,
17744,1564322843454,-1,2.45,1.45,0.81,2.39,1.99,1.38,-0.55,0.46,7,-14,-1,1.48,5905,6,70,31,35,500,450.0,605,465,60,131.0,88,1,293,184,40,0,0,427,243,8488,450,-5.59,44.680302,10.016772,44.68,176.6,0,0.0,-1,0.0,0.0,0,0.18,0.2957
17764,1564322843474,-1,2.48,1.45,0.81,2.4,1.99,1.44,-0.6,0.44,8,-16,1,1.56,5874,6,70,31,35,500,451.0,603,462,60,131.0,86,1,291,178,39,0,0,420,3635,16648,451,-5.59,,,,,,,,,,,,
17784,1564322843492,-1,2.49,1.45,0.81,2.4,2.0,1.49,-0.64,0.41,10,-17,3,1.62,5833,15,70,31,36,501,450.0,601,462,60,131.0,86,1,291,183,39,0,0,414,13180,16648,450,-5.59,,,,,,,,,,,,
17804,1564322843512,4,2.52,1.46,0.82,2.41,2.0,1.49,-0.65,0.43,11,-17,5,1.62,5790,21,70,31,38,501,450.0,600,463,60,132.0,86,1,294,200,39,0,0,401,-3856,-18341,450,-5.59,,,,,,,,,,,,
17824,1564322843532,2,2.53,1.46,0.82,2.41,2.0,1.37,-0.64,0.48,12,-14,7,1.51,5755,22,70,31,41,502,451.0,605,462,60,130.0,86,1,305,209,39,0,0,394,-3414,21432,451,-5.59,,,,,,,,,,,,
17844,1564322843552,1,2.54,1.45,0.82,2.4,2.0,1.23,-0.66,0.6,14,-12,8,1.39,5695,23,70,31,45,502,450.0,603,467,60,128.0,86,1,321,215,39,0,0,384,-21792,2131,450,-5.59,44.68029,10.016775,43.97,176.6,0,0.0,-1,0.0,0.0,0,0.18,0.2974
17864,1564322843572,0,2.53,1.46,0.82,2.4,2.0,1.15,-0.74,0.61,16,-9,11,1.37,5630,23,70,31,47,503,450.0,600,468,60,130.0,101,1,324,218,46,0,0,377,18584,16648,450,-5.59,,,,,,,,,,,,
17884,1564322843592,-1,2.52,1.46,0.81,2.41,2.0,1.22,-0.74,0.52,17,-10,14,1.43,5598,23,70,31,50,503,451.0,595,460,60,131.0,101,1,334,231,46,0,0,376,-3414,8488,451,-5.59,,,,,,,,,,,,
17904,1564322843612,1,2.49,1.46,0.81,2.41,2.0,1.23,-0.77,0.46,18,-10,17,1.45,5570,23,70,31,52,503,450.0,598,462,60,130.0,101,1,340,240,46,0,0,374,18584,16648,450,-5.59,,,,,,,,,,,,
17924,1564322843632,-1,2.47,1.45,0.82,2.42,2.0,1.11,-0.79,0.52,18,-8,17,1.36,5534,23,70,31,54,503,447.0,596,464,60,128.0,101,1,345,248,46,0,0,370,18584,26704,447,-5.59,,,,,,,,,,,,
17944,1564322843652,-1,2.46,1.46,0.82,2.41,2.01,1.17,-0.78,0.39,18,-9,19,1.41,5580,23,70,31,56,503,448.0,590,466,60,131.0,101,1,345,251,46,0,0,386,-26615,20625,448,-5.59,44.680279,10.016779,43.15,176.6,0,0.0,-1,0.0,0.0,0,0.18,0.2991
17964,1564322843672,2,2.46,1.46,0.82,2.41,2.0,1.26,-0.79,0.3,18,-9,22,1.48,5650,23,70,31,57,502,442.0,593,463,60,131.0,119,1,349,252,53,0,0,406,-26615,243,443,-5.59,,,,,,,,,,,,
17984,1564322843692,4,2.46,1.46,0.81,2.41,2.0,1.18,-0.71,0.36,18,-8,22,1.38,5824,23,70,31,58,502,438.0,601,463,60,131.0,119,1,365,253,53,0,0,411,2524,-7939,438,-5.59,,,,,,,,,,,,
18004,1564322843710,5,2.46,1.46,0.82,2.42,2.0,1.07,-0.67,0.46,19,-5,21,1.26,5959,24,70,31,58,503,438.0,606,463,60,130.0,119,1,378,253,53,0,0,410,18584,-768,438,-5.59,,,,,,,,,,,,
18024,1564322843730,1,2.47,1.46,0.81,2.41,2.0,1.01,-0.59,0.54,19,-3,21,1.17,6125,24,70,31,57,503,439.0,603,461,60,131.0,119,1,384,257,53,0,0,410,-21944,5600,439,-5.59,,,,,,,,,,,,
18044,1564322843750,0,2.47,1.46,0.81,2.41,2.0,1.02,-0.55,0.53,19,-0,21,1.16,6273,24,70,31,57,503,440.0,504,461,60,131.0,119,1,388,181,53,0,0,414,18584,-768,440,-5.59,44.680267,10.01678,42.96,176.5,0,0.0,-1,0.0,0.0,0,0.18,0.3007
18064,1564322843770,0,2.47,1.45,0.81,2.4,2.0,1.12,-0.58,0.48,19,-1,22,1.26,6388,24,70,31,57,503,442.0,400,466,60,131.0,140,1,390,261,62,0,0,414,-21944,-768,442,-5.59,,,,,,,,,,,,
18084,1564322843790,3,2.48,1.46,0.8,2.41,2.0,1.11,-0.66,0.4,19,1,23,1.29,6521,24,70,31,57,503,442.0,341,462,60,129.0,140,1,393,264,62,0,0,411,-9166,21580,442,-5.59,,,,,,,,,,,,
18104,1564322843810,-1,2.46,1.45,0.79,2.42,2.0,0.91,-0.61,0.5,20,5,24,1.1,6465,25,70,31,56,503,442.0,318,463,60,130.0,140,1,390,261,62,0,0,455,18584,23400,442,-5.59,,,,,,,,,,,,
18124,1564322843830,-1,2.47,1.45,0.79,2.41,2.0,0.94,-0.62,0.55,20,7,23,1.13,6229,25,70,31,57,503,445.0,333,464,60,131.0,140,1,387,258,62,0,0,490,-3414,-3267,445,-5.59,,,,,,,,,,,,
18144,1564322843850,-0,2.46,1.45,0.79,2.42,1.99,1.01,-0.65,0.48,19,8,25,1.2,6087,25,70,31,57,503,446.0,370,463,60,131.0,140,1,384,256,62,0,0,415,-8165,8488,446,-5.59,44.680256,10.016781,42.29,176.5,0,0.0,-1,0.0,0.0,0,0.18,0.3024
18164,1564322843870,-0,2.46,1.46,0.79,2.42,2.0,1.05,-0.69,0.41,18,6,25,1.26,5901,25,70,31,58,503,446.0,340,463,60,130.0,127,1,373,254,57,0,0,422,-21944,16648,445,-5.59,,,,,,,,,,,,
18184,1564322843896,-0,2.46,1.45,0.79,2.4,2.01,1.15,-0.69,0.37,18,3,24,1.34,5746,25,70,31,58,503,444.0,310,460,60,132.0,127,1,357,175,57,0,0,428,-3414,23400,444,-5.59,,,,,,,,,,,,
18204,1564322843916,2,2.46,1.45,0.79,2.41,2.0,1.15,-0.67,0.42,18,2,23,1.33,5711,25,70,31,59,503,442.0,313,463,60,131.0,127,1,353,253,57,0,0,427,-3414,21580,442,-5.59,,,,,,,,,,,,
18224,1564322843936,2,2.46,1.45,0.79,2.41,1.99,1.04,-0.62,0.49,18,2,22,1.21,5767,25,70,31,60,504,440.0,347,462,60,129.0,127,1,357,253,57,0,0,422,7154,19477,440,-5.59,,,,,,,,,,,,
18244,1564322843956,-1,2.46,1.45,0.79,2.42,2.0,0.89,-0.63,0.54,19,1,22,1.09,5850,25,70,31,61,503,441.0,385,463,60,129.0,127,1,364,251,57,0,0,421,-21944,26704,441,-5.59,44.680248,10.016781,41.26,176.5,0,0.0,-1,0.0,0.0,0,0.18,0.3041
18264,1564322843976,1,2.46,1.46,0.78,2.42,2.0,0.76,-0.66,0.52,19,-1,23,1.01,5942,26,70,31,61,503,440.0,429,466,60,129.0,127,1,374,250,56,0,0,431,-3414,26704,440,-5.59,,,,,,,,,,,,
18284,1564322843996,-1,2.46,1.45,0.79,2.41,2.0,0.69,-0.69,0.48,19,-2,24,0.98,6025,26,71,31,60,503,441.0,481,467,60,131.0,127,1,384,251,56,0,0,436,-3414,23400,441,-5.59,,,,,,,,,,,,
18304,1564322844006,3,2.46,1.46,0.79,2.41,2.0,0.6,-0.72,0.44,19,-1,25,0.94,6111,26,71,31,60,502,445.0,537,465,60,130.0,127,1,384,176,56,0,0,439,7154,21432,445,-5.59,,,,,,,,,,,,
18324,1564322844026,2,2.45,1.45,0.79,2.42,2.0,0.54,-0.68,0.49,20,1,26,0.86,6107,26,70,31,60,502,445.0,589,462,60,129.0,127,1,384,254,56,0,0,438,-8165,15649,445,-5.59,,,,,,,,,,,,
18344,1564322844046,2,2.46,1.45,0.79,2.42,2.0,0.49,-0.63,0.53,21,2,26,0.8,6044,26,70,31,60,502,444.0,603,462,60,130.0,127,1,383,250,56,0,0,442,-8165,23400,444,-5.59,44.680237,10.016779,42.07,176.5,0,0.0,-1,0.0,0.0,0,0.18,0.3057
18364,1564322844066,0,2.45,1.46,0.79,2.41,1.99,0.47,-0.59,0.54,21,1,26,0.76,5959,21,70,31,60,502,446.0,601,463,60,129.0,127,1,377,251,57,0,0,443,3826,23400,447,-5.59,,,,,,,,,,,,
18384,1564322844095,2,2.46,1.45,0.79,2.41,2.01,0.46,-0.58,0.56,21,0,25,0.74,5922,20,70,31,59,502,444.0,601,463,60,130.0,127,1,374,252,57,0,0,437,-3414,23400,444,-5.59,,,,,,,,,,,,
18404,1564322844115,1,2.43,1.45,0.78,2.4,1.99,0.39,-0.57,0.61,21,0,25,0.69,5927,20,71,31,58,503,441.0,600,460,60,129.0,127,1,375,175,57,0,0,439,3826,2131,442,-5.59,,,,,,,,,,,,
18424,1564322844135,0,2.44,1.45,0.79,2.41,2.01,0.34,-0.58,0.59,20,-1,25,0.67,5935,19,70,31,58,503,444.0,600,463,60,130.0,127,1,376,253,57,0,0,433,-21792,-28332,444,-5.59,,,,,,,,,,,,
18444,1564322844155,0,2.42,1.45,0.79,2.41,2.0,0.33,-0.62,0.56,19,-2,25,0.7,5956,19,70,31,57,502,445.0,600,466,60,131.0,127,1,379,254,57,0,0,434,3826,23400,445,-5.59,44.680225,10.016778,42.83,176.5,0,0.0,-1,0.0,0.0,0,0.19,0.3074
18464,1564322844175,-0,2.4,1.45,0.78,2.41,2.0,0.3,-0.6,0.57,19,-3,25,0.68,5963,19,70,31,57,502,445.0,597,464,60,131.0,127,1,381,254,57,0,0,436,-3856,23400,445,-5.59,,,,,,,,,,,,
18484,1564322844195,-0,2.38,1.45,0.78,2.41,2.0,0.29,-0.59,0.5,18,-5,26,0.65,5986,19,71,31,56,501,445.0,600,463,60,131.0,127,1,384,256,57,0,0,434,13552,26704,445,-5.59,,,,,,,,,,,,
18504,1564322844215,-1,2.35,1.45,0.78,2.41,2.0,0.31,-0.59,0.52,17,-6,25,0.67,5992,20,71,31,56,501,444.0,600,464,60,130.0,127,1,383,255,57,0,0,442,3635,26704,445,-5.59,,,,,,,,,,,,
18524,1564322844235,-0,2.31,1.45,0.79,2.41,2.0,0.34,-0.56,0.48,15,-6,24,0.66,5959,20,70,31,56,500,444.0,595,463,60,130.0,127,1,381,255,57,0,0,443,1779,16648,444,-5.59,,,,,,,,,,,,
18544,1564322844255,-2,2.26,1.45,0.78,2.4,2.01,0.34,-0.51,0.4,13,-5,24,0.61,5973,20,71,31,56,500,440.0,601,466,60,130.0,127,1,382,255,57,0,0,438,-3322,21432,442,-5.59,44.680214,10.016775,43.3,176.6,0,0.0,-1,0.0,0.0,0,0.19,0.3091
18564,1564322844275,-1,2.21,1.45,0.78,2.4,2.0,0.37,-0.45,0.35,11,-6,23,0.58,5978,20,71,31,56,500,437.0,601,465,60,130.0,130,1,382,255,57,0,0,443,-7939,20625,437,-5.59,,,,,,,,,,,,
18584,1564322844295,-1,2.17,1.45,0.78,2.4,1.99,0.4,-0.37,0.31,8,-6,21,0.54,5969,20,71,31,56,500,438.0,599,462,60,131.0,130,1,380,255,57,0,0,440,21580,5600,434,-5.59,,,,,,,,,,,,
18604,1564322844315,0,2.12,1.44,0.77,2.38,1.98,0.44,-0.29,0.21,5,-7,19,0.53,5967,20,71,31,55,500,442.0,601,461,60,130.0,130,1,381,256,57,0,0,444,23400,243,431,-5.59,,,,,,,,,,,,
18624,1564322844335,-1,2.09,1.43,0.76,2.36,1.98,0.46,-0.21,0.09,3,-7,16,0.51,5926,20,71,31,56,500,443.0,600,466,60,129.0,130,1,376,256,57,0,0,444,16648,1779,427,-5.59,,,,,,,,,,,,
18644,1564322844355,-1,2.05,1.43,0.75,2.34,1.96,0.54,-0.13,-0.08,-0,-7,13,0.55,5916,20,71,31,56,500,449.0,602,466,60,130.0,130,1,376,256,57,0,0,444,15649,-3322,425,-5.59,44.680206,10.016772,43.17,176.6,0,0.0,-1,0.0,0.0,0,0.19,0.3107
18664,1564322844375,-0,2.03,1.41,0.73,2.3,1.93,0.62,-0.08,-0.16,-2,-7,9,0.62,5929,20,71,31,56,500,450.0,602,464,60,130.0,134,1,377,256,57,0,0,447,15649,13552,422,-5.59,,,,,,,,,,,,
18684,1564322844393,-1,2.02,1.4,0.72,2.28,1.91,0.71,-0.02,-0.2,-4,-7,6,0.71,5965,20,71,31,56,501,449.0,603,464,60,130.0,134,1,380,256,57,0,0,450,15649,19477,419,-5.59,,,,,,,,,,,,
18704,1564322844413,-1,2.0,1.4,0.72,2.26,1.91,0.77,0.02,-0.28,-6,-6,3,0.77,5998,21,71,31,55,501,450.0,603,462,60,130.0,134,1,383,256,57,0,0,450,-6387,-3314,419,-5.59,,,,,,,,,,,,
18724,1564322844433,0,1.97,1.4,0.71,2.26,1.91,0.84,0.07,-0.29,-8,-7,0,0.84,6023,21,71,31,55,502,452.0,603,462,60,131.0,134,1,384,257,57,0,0,450,-6387,3635,420,-5.59,,,,,,,,,,,,
18744,1564322844453,0,1.93,1.4,0.7,2.26,1.89,0.9,0.11,-0.32,-11,-6,-2,0.91,6009,21,71,31,55,503,451.0,607,461,60,130.0,134,1,384,179,57,0,0,453,3571,1779,419,-5.59,44.680195,10.016768,42.84,176.6,0,0.0,-1,0.0,0.0,0,0.19,0.3124
18764,1564322844473,-1,1.9,1.4,0.7,2.26,1.89,0.94,0.16,-0.4,-12,-6,-5,0.95,5996,21,71,31,55,503,452.0,605,461,60,130.0,139,1,383,178,58,0,0,451,-6387,23400,416,-5.59,,,,,,,,,,,,
18784,1564322844493,-3,1.86,1.4,0.7,2.26,1.89,0.98,0.19,-0.45,-14,-5,-8,0.99,6005,21,71,31,56,503,450.0,607,464,60,130.0,139,1,384,256,58,0,0,451,8488,2524,414,-5.59,,,,,,,,,,,,
18804,1564322844513,-2,1.81,1.4,0.71,2.26,1.9,1.03,0.25,-0.44,-15,-6,-10,1.06,6083,21,71,31,56,503,447.0,607,466,60,130.0,139,1,384,258,58,0,0,452,10305,31796,412,-5.59,,,,,,,,,,,,
18824,1564322844533,-1,1.77,1.4,0.71,2.26,1.9,1.05,0.29,-0.39,-17,-6,-13,1.09,6107,21,71,31,55,502,444.0,607,464,60,130.0,139,1,384,258,58,0,0,449,21432,3635,408,-5.59,,,,,,,,,,,,
18844,1564322844553,1,1.76,1.39,0.71,2.27,1.9,1.04,0.36,-0.34,-18,-6,-15,1.11,6069,21,71,31,56,502,445.0,608,465,60,131.0,139,1,384,257,58,0,0,453,16648,-8985,405,-5.59,44.680183,10.016766,42.6,176.7,0,0.0,-1,0.0,0.0,0,0.19,0.3141
18864,1564322844573,1,1.75,1.39,0.71,2.28,1.9,1.01,0.44,-0.28,-19,-6,-17,1.1,6040,21,71,31,56,501,442.0,605,465,60,130.0,143,1,384,256,58,0,0,449,23400,14488,404,-5.59,,,,,,,,,,,,
18884,1564322844593,1,1.76,1.4,0.71,2.28,1.91,0.99,0.53,-0.19,-20,-7,-18,1.12,6073,21,71,31,56,501,441.0,603,467,60,129.0,143,1,384,257,58,0,0,450,-18341,20625,403,-5.59,,,,,,,,,,,,
18904,1564322844613,1,1.74,1.4,0.72,2.29,1.9,0.91,0.62,-0.03,-21,-6,-20,1.1,6097,21,71,31,56,501,443.0,606,466,60,130.0,143,1,384,258,58,0,0,448,-18341,5600,404,-5.59,,,,,,,,,,,,
18924,1564322844633,2,1.74,1.4,0.72,2.3,1.91,0.85,0.71,0.11,-22,-5,-22,1.11,6054,21,71,31,56,501,439.0,607,465,60,129.0,143,1,384,256,58,0,0,444,-28332,2524,401,-5.59,,,,,,,,,,,,
18944,1564322844653,2,1.75,1.41,0.72,2.3,1.91,0.78,0.84,0.23,-23,-4,-21,1.14,6064,21,71,31,56,502,443.0,606,467,60,130.0,143,1,384,256,58,0,0,446,-18341,-26615,401,-5.59,44.680172,10.016764,42.39,176.7,0,0.0,-1,0.0,0.0,0,0.19,0.3157
18964,1564322844673,3,1.75,1.4,0.72,2.29,1.91,0.74,0.94,0.39,-24,-4,-24,1.19,6097,21,71,31,56,502,439.0,605,464,60,129.0,147,1,384,257,59,0,0,449,-28332,5600,400,-5.59,,,,,,,,,,,,
18984,1564322844691,3,1.74,1.4,0.72,2.3,1.91,0.71,1.03,0.49,-25,-4,-25,1.25,6085,21,71,31,56,503,441.0,605,464,60,129.0,147,1,384,257,59,0,0,448,-28332,-18341,400,-5.59,,,,,,,,,,,,
19004,1564322844711,4,1.73,1.4,0.73,2.29,1.91,0.65,1.1,0.59,-26,-3,-28,1.28,6052,21,71,31,56,503,438.0,605,465,60,131.0,147,1,384,256,59,0,0,446,21580,6193,398,-5.59,,,,,,,,,,,,
19024,1564322844731,2,1.72,1.4,0.72,2.3,1.92,0.67,1.15,0.67,-28,-3,-30,1.34,6099,21,71,31,55,504,437.0,609,461,60,130.0,147,1,384,257,59,0,0,443,19477,3571,399,-5.59,,,,,,,,,,,,
19044,1564322844751,-1,1.7,1.41,0.73,2.31,1.91,0.67,1.19,0.67,-29,-3,-32,1.37,6141,21,71,31,55,504,438.0,611,461,60,131.0,147,1,384,258,59,0,0,441,21580,5600,398,-5.59,44.680164,10.016764,41.6,176.7,0,0.0,-1,0.0,0.0,0,0.19,0.3174
19064,1564322844771,-2,1.67,1.4,0.73,2.31,1.91,0.7,1.2,0.58,-30,-2,-33,1.39,6127,21,71,31,55,504,438.0,613,463,60,130.0,151,1,384,258,60,0,0,449,21580,-9160,394,-5.59,,,,,,,,,,,,
19084,1564322844793,-2,1.63,1.41,0.73,2.31,1.92,0.73,1.13,0.46,-31,-1,-35,1.34,6111,21,71,31,55,504,435.0,609,465,60,130.0,151,1,384,258,60,0,0,448,-7939,16408,393,-5.59,,,,,,,,,,,,
19104,1564322844813,-0,1.57,1.4,0.73,2.32,1.92,0.83,1.08,0.29,-32,-1,-36,1.36,6135,21,71,31,55,503,431.0,610,462,60,129.0,151,1,384,258,60,0,0,444,1779,-28332,390,-5.59,,,,,,,,,,,,
19124,1564322844833,-2,1.53,1.41,0.73,2.32,1.91,0.9,1.03,0.13,-33,-1,-36,1.37,6105,21,71,31,55,503,428.0,609,462,60,131.0,151,1,384,258,60,0,0,447,13180,21580,385,-5.59,,,,,,,,,,,,
19144,1564322844853,-3,1.5,1.41,0.73,2.32,1.92,0.97,0.98,0.0,-33,-1,-37,1.38,6001,21,71,31,56,503,423.0,607,461,60,131.0,151,1,384,256,60,0,0,447,3826,17628,382,-5.59,44.680153,10.016764,40.8,176.8,0,0.0,-1,0.0,0.0,0,0.19,0.3191
19164,1564322844873,0,1.46,1.41,0.74,2.33,1.92,1.04,0.92,-0.09,-33,-0,-37,1.39,5986,21,71,31,56,503,416.0,603,462,60,131.0,150,1,382,255,57,0,0,442,18584,20625,379,-5.59,,,,,,,,,,,,
19184,1564322844897,-2,1.46,1.41,0.74,2.33,1.91,1.11,0.84,-0.21,-32,-0,-38,1.39,5988,21,71,31,56,503,414.0,605,463,60,131.0,150,1,382,255,57,0,0,438,2524,3826,375,-5.59,,,,,,,,,,,,
19204,1564322844917,-0,1.48,1.41,0.74,2.32,1.92,1.14,0.8,-0.27,-33,-1,-39,1.4,5946,21,71,31,56,503,410.0,602,465,60,129.0,150,1,378,255,57,0,0,440,9517,20625,371,-5.59,,,,,,,,,,,,
19224,1564322844937,-0,1.5,1.42,0.74,2.34,1.92,1.2,0.78,-0.3,-33,-1,-41,1.43,5909,21,71,31,56,503,410.0,601,462,60,130.0,150,1,375,255,57,0,0,440,9517,26704,369,-5.59,,,,,,,,,,,,
19244,1564322844957,1,1.53,1.41,0.75,2.33,1.93,1.22,0.78,-0.29,-33,-1,-41,1.45,5905,22,71,31,56,503,412.0,603,463,60,130.0,150,1,375,177,57,0,0,432,13040,-4082,368,-5.59,44.680145,10.016766,40.9,176.8,0,0.0,-1,0.0,0.0,0,0.19,0.3207
19264,1564322844977,4,1.57,1.41,0.75,2.33,1.93,1.21,0.8,-0.21,-34,-1,-43,1.45,5872,22,71,31,56,503,413.0,603,463,60,130.0,152,1,372,254,56,0,0,432,-9166,-21792,369,-5.59,,,,,,,,,,,,
19284,1564322844997,3,1.6,1.42,0.75,2.34,1.92,1.17,0.86,-0.13,-34,-2,-43,1.45,5819,22,71,31,57,503,414.0,603,464,60,130.0,152,1,365,254,56,0,0,430,18584,21432,371,-5.59,,,,,,,,,,,,
19304,1564322845007,2,1.62,1.41,0.75,2.34,1.93,1.08,0.96,0.05,-34,-2,-43,1.44,5848,22,71,31,57,503,416.0,603,460,60,129.0,152,1,368,254,56,0,0,430,18584,-768,374,-5.59,,,,,,,,,,,,
19324,1564322845027,2,1.64,1.42,0.75,2.34,1.93,0.99,1.04,0.11,-33,-2,-42,1.44,5885,22,71,31,58,503,419.0,604,465,60,130.0,152,1,371,253,56,0,0,428,7154,-21792,375,-5.59,,,,,,,,,,,,
19344,1564322845047,2,1.64,1.41,0.75,2.34,1.93,0.94,1.09,0.15,-33,-2,-41,1.44,5868,22,71,31,58,503,416.0,599,466,60,129.0,152,1,369,253,56,0,0,434,18584,3635,377,-5.59,44.680134,10.016768,40.16,176.8,0,0.0,-1,0.0,0.0,0,0.2,0.3224
19364,1564322845067,-1,1.65,1.41,0.76,2.33,1.93,0.9,1.14,0.1,-34,-1,-40,1.45,5824,22,71,31,58,503,420.0,597,465,60,130.0,148,1,366,253,56,0,0,427,7154,21580,376,-5.59,,,,,,,,,,,,
19384,1564322845096,-1,1.64,1.41,0.76,2.34,1.94,0.91,1.08,0.03,-34,-1,-41,1.41,5821,22,71,31,58,503,420.0,600,465,60,130.0,148,1,365,254,56,0,0,427,-8165,-768,376,-5.59,,,,,,,,,,,,
19404,1564322845116,-2,1.64,1.41,0.76,2.33,1.93,0.95,1.0,-0.1,-34,-1,-40,1.38,5844,23,71,31,58,502,419.0,603,464,60,130.0,148,1,367,253,56,0,0,428,7154,-3414,374,-5.59,,,,,,,,,,,,
19424,1564322845136,-1,1.64,1.41,0.76,2.34,1.94,1.01,0.97,-0.21,-34,-1,-41,1.4,5813,23,71,31,58,502,416.0,602,463,60,130.0,148,1,364,253,56,0,0,427,18584,-3314,373,-5.59,,,,,,,,,,,,
19444,1564322845156,3,1.62,1.41,0.77,2.34,1.94,1.04,0.93,-0.23,-34,-1,-43,1.4,5792,23,71,31,58,502,417.0,600,463,60,130.0,148,1,362,253,56,0,0,426,-21944,21432,373,-5.59,44.680126,10.016774,39.62,176.8,0,0.0,-1,0.0,0.0,0,0.2,0.3241
19464,1564322845176,4,1.63,1.42,0.76,2.34,1.94,1.0,0.96,-0.09,-34,-1,-44,1.39,5832,23,71,31,58,502,417.0,600,461,60,130.0,147,1,366,253,55,0,0,10143,-21944,5600,371,-5.59,,,,,,,,,,,,
19484,1564322845194,3,1.64,1.41,0.76,2.35,1.94,0.95,1.06,0.12,-34,-1,-46,1.43,5866,23,71,31,58,502,414.0,602,460,60,131.0,147,1,369,253,55,0,0,10143,2524,-8165,373,-5.59,,,,,,,,,,,,
19504,1564322845214,0,1.63,1.41,0.77,2.34,1.95,0.89,1.16,0.28,-35,1,-45,1.46,5839,23,71,31,59,503,416.0,601,463,60,130.0,147,1,365,253,55,0,0,10143,18584,-3414,371,-5.59,,,,,,,,,,,,
19524,1564322845234,-1,1.64,1.41,0.77,2.35,1.93,0.77,1.23,0.45,-35,2,-45,1.45,5772,24,71,31,59,504,416.0,601,465,60,130.0,147,1,359,253,55,0,0,10143,18584,31796,370,-5.59,,,,,,,,,,,,
19544,1564322845254,-1,1.63,1.42,0.77,2.35,1.94,0.74,1.22,0.45,-35,1,-45,1.43,5758,24,71,31,59,503,418.0,598,463,60,130.0,147,1,357,253,55,0,0,420,-3414,31796,370,-5.59,44.680115,10.01678,39.49,176.9,0,0.0,-1,0.0,0.0,0,0.2,0.3257
19564,1564322845274,-2,1.64,1.41,0.77,2.34,1.95,0.81,1.17,0.38,-35,-0,-45,1.43,5740,24,71,31,59,503,415.0,597,463,60,131.0,147,1,355,253,55,0,0,420,-26615,-3414,369,-5.59,,,,,,,,,,,,
19584,1564322845296,-1,1.63,1.41,0.77,2.36,1.94,0.92,1.11,0.3,-35,-1,-45,1.44,5726,24,71,31,60,503,415.0,598,463,60,131.0,147,1,353,253,55,0,0,424,-26615,-3414,369,-5.59,,,,,,,,,,,,
19604,1564322845316,3,1.64,1.41,0.78,2.34,1.95,0.91,1.11,0.35,-36,-2,-46,1.44,5723,24,71,31,60,503,413.0,599,462,60,131.0,147,1,352,254,55,0,0,2376,-9166,-8165,367,-5.59,,,,,,,,,,,,
19624,1564322845336,-1,1.65,1.41,0.78,2.34,1.95,0.86,1.19,0.45,-36,-1,-47,1.47,5721,24,71,31,61,503,412.0,601,466,60,130.0,147,1,350,254,55,0,0,2376,13040,243,367,-5.59,,,,,,,,,,,,
19644,1564322845356,-1,1.64,1.41,0.78,2.35,1.94,0.81,1.25,0.56,-36,-1,-47,1.49,5765,24,71,31,62,503,414.0,602,467,60,129.0,147,1,353,254,55,0,0,2376,-4059,3826,367,-5.59,44.680107,10.016788,38.84,176.9,0,0.0,-1,0.0,0.0,0,0.2,0.3274
19664,1564322845376,-2,1.64,1.41,0.77,2.35,1.94,0.79,1.22,0.56,-36,-1,-48,1.45,5765,25,71,31,62,502,412.0,600,466,60,131.0,155,1,353,253,57,0,0,416,-9166,2524,366,-5.59,,,,,,,,,,,,
19684,1564322845396,-1,1.65,1.41,0.77,2.36,1.95,0.84,1.14,0.47,-36,-1,-48,1.42,5732,33,71,31,63,503,412.0,597,462,60,131.0,155,1,347,270,57,0,0,417,13040,3635,365,-5.59,,,,,,,,,,,,
19704,1564322845416,2,1.64,1.41,0.78,2.35,1.95,0.9,1.13,0.49,-36,-3,-48,1.44,5690,42,71,31,66,503,412.0,598,461,60,131.0,155,1,336,294,57,0,0,417,13040,21432,366,-5.59,,,,,,,,,,,,
19724,1564322845436,2,1.64,1.41,0.78,2.36,1.95,0.87,1.14,0.53,-37,-3,-49,1.43,5733,46,71,31,71,503,413.0,605,465,60,129.0,155,1,333,349,57,0,0,421,-9166,13552,366,-5.59,,,,,,,,,,,,
19744,1564322845456,0,1.66,1.41,0.77,2.35,1.95,0.82,1.22,0.6,-38,-3,-49,1.47,5787,51,71,31,75,503,413.0,604,465,60,130.0,155,1,333,390,57,0,0,420,-9166,9517,364,-5.59,44.6801,10.016795,38.95,176.8,0,0.0,-1,0.0,0.0,0,0.2,0.3291
19764,1564322845476,2,1.67,1.41,0.77,2.36,1.94,0.79,1.28,0.62,-38,-2,-49,1.5,5771,56,71,31,78,503,416.0,603,465,60,130.0,250,1,330,432,91,0,0,424,-9166,243,364,-5.59,,,,,,,,,,,,
19784,1564322845492,-1,1.69,1.41,0.77,2.36,1.95,0.85,1.24,0.53,-37,-2,-50,1.5,5760,61,71,31,81,503,415.0,600,466,60,130.0,250,1,328,455,91,0,0,424,-26615,-3322,362,-5.59,,,,,,,,,,,,
19804,1564322845512,-0,1.71,1.41,0.78,2.35,1.96,0.92,1.2,0.41,-37,-2,-50,1.51,5748,66,71,31,84,503,415.0,603,466,60,131.0,250,1,325,473,91,0,0,418,-26615,-26615,363,-5.59,,,,,,,,,,,,
19824,1564322845532,0,1.73,1.41,0.78,2.35,1.96,0.95,1.17,0.4,-38,-3,-50,1.51,5627,69,71,31,86,503,415.0,602,464,60,131.0,250,1,316,477,91,0,0,422,-26615,-8151,365,-5.59,,,,,,,,,,,,
19844,1564322845552,2,1.75,1.41,0.78,2.35,1.96,0.89,1.21,0.46,-38,-5,-50,1.5,5468,70,71,31,89,503,416.0,596,461,60,129.0,250,1,311,485,91,0,0,416,18584,2524,367,-5.59,44.680092,10.016804,38.82,176.8,0,0.0,-1,0.0,0.0,0,0.2,0.3307
19864,1564322845572,0,1.77,1.41,0.78,2.35,1.95,0.92,1.18,0.28,-38,-5,-50,1.5,5460,70,71,31,90,502,416.0,593,466,60,131.0,274,1,312,489,100,0,0,417,-21944,-8151,365,-5.59,,,,,,,,,,,,
19884,1564322845592,4,1.79,1.41,0.78,2.36,1.95,0.91,1.18,0.35,-38,-3,-51,1.49,5480,70,71,31,90,502,417.0,596,463,60,129.0,274,1,312,489,100,0,0,415,-21944,-32702,367,-5.59,,,,,,,,,,,,
19904,1564322845612,0,1.84,1.41,0.78,2.35,1.96,0.85,1.24,0.35,-37,-1,-50,1.5,5513,70,71,31,91,503,418.0,598,463,60,130.0,274,1,312,506,100,0,0,413,-3414,11545,365,-5.59,,,,,,,,,,,,
19924,1564322845632,-0,1.86,1.41,0.78,2.36,1.95,0.9,1.21,0.25,-37,-1,-51,1.51,5562,70,71,31,90,503,418.0,594,465,60,131.0,274,1,313,490,100,0,0,415,-3414,28696,365,-5.59,,,,,,,,,,,,
19944,1564322845652,2,1.9,1.41,0.79,2.36,1.95,0.96,1.2,0.32,-38,-2,-52,1.54,5640,71,71,31,90,503,420.0,596,466,60,130.0,274,1,313,491,100,0,0,415,-8165,-3866,366,-5.59,44.680088,10.016814,37.97,176.7,0,0.0,-1,0.0,0.0,0,0.2,0.3324
19964,1564322845672,3,1.92,1.41,0.78,2.36,1.95,0.9,1.25,0.49,-38,-2,-52,1.55,5685,71,71,31,91,503,423.0,602,462,60,130.0,286,1,314,505,105,0,0,419,3826,28696,366,-5.59,,,,,,,,,,,,
19984,1564322845692,1,1.96,1.42,0.79,2.35,1.95,0.83,1.29,0.64,-38,-1,-52,1.53,5788,71,71,31,90,503,423.0,602,462,60,130.0,286,1,315,492,105,0,0,419,3826,-768,369,-5.59,,,,,,,,,,,,
20004,1564322845712,-0,1.99,1.41,0.79,2.36,1.95,0.75,1.27,0.69,-38,-0,-52,1.48,5916,71,71,31,90,503,423.0,599,464,60,130.0,286,1,316,494,105,0,0,419,3826,-3322,371,-5.59,,,,,,,,,,,,
20024,1564322845732,1,2.01,1.41,0.78,2.36,1.96,0.68,1.28,0.75,-37,0,-52,1.45,6058,71,71,31,90,502,422.0,601,462,60,130.0,286,1,320,497,105,0,0,427,-3414,1779,372,-5.59,,,,,,,,,,,,
20044,1564322845752,-0,2.03,1.41,0.79,2.36,1.95,0.58,1.31,0.81,-36,2,-52,1.44,6034,71,71,31,90,502,428.0,603,463,60,130.0,286,1,318,496,105,0,0,434,13180,14488,375,-5.59,44.68008,10.016826,37.89,176.6,0,0.0,-1,0.0,0.0,0,0.2,0.3341
20064,1564322845772,2,2.04,1.41,0.78,2.34,1.95,0.46,1.34,0.87,-35,4,-52,1.42,6011,71,71,31,90,502,429.0,603,463,60,130.0,301,1,317,495,114,0,0,434,3635,-18341,378,-5.59,,,,,,,,,,,,
20084,1564322845792,2,2.05,1.41,0.78,2.35,1.95,0.4,1.37,0.95,-34,4,-51,1.42,5892,71,71,31,90,502,431.0,601,461,60,129.0,301,1,316,493,114,0,0,436,1779,-26615,379,-5.59,,,,,,,,,,,,
20104,1564322845812,0,2.07,1.41,0.78,2.35,1.95,0.41,1.35,0.97,-34,4,-50,1.41,5781,72,71,31,90,502,431.0,598,463,60,131.0,301,1,315,492,114,0,0,435,1779,2524,385,-5.59,,,,,,,,,,,,
20124,1564322845832,-0,2.07,1.41,0.78,2.35,1.95,0.53,1.28,0.84,-33,2,-49,1.39,5723,72,71,31,90,502,432.0,596,463,60,132.0,301,1,314,492,114,0,0,436,-3322,19477,390,-5.59,,,,,,,,,,,,
20144,1564322845852,-2,2.1,1.41,0.78,2.34,1.95,0.59,1.19,0.86,-32,0,-49,1.33,5864,72,71,31,90,502,431.0,601,462,60,132.0,301,1,315,493,114,0,0,434,1779,-8165,394,-5.59,44.680077,10.016837,37.69,176.6,0,0.0,-1,0.0,0.0,0,0.2,0.3357
20164,1564322845872,-2,2.12,1.4,0.77,2.34,1.95,0.61,1.13,0.98,-30,-1,-48,1.28,5982,72,71,31,90,502,429.0,605,463,60,131.0,280,1,316,494,111,0,0,437,243,-7939,399,-5.59,,,,,,,,,,,,
20184,1564322845896,-2,2.13,1.41,0.78,2.33,1.94,0.66,1.06,1.0,-29,-3,-47,1.25,6027,72,71,31,90,502,434.0,605,465,60,132.0,280,1,318,496,111,0,0,440,-768,-18108,401,-5.59,,,,,,,,,,,,
20204,1564322845916,-2,2.15,1.41,0.77,2.33,1.93,0.75,0.98,1.02,-27,-4,-47,1.23,6083,72,71,31,90,502,436.0,604,463,60,132.0,280,1,321,498,111,0,0,444,5600,5600,410,-5.59,,,,,,,,,,,,
20224,1564322845936,-1,2.15,1.41,0.76,2.33,1.93,0.81,0.89,1.01,-26,-6,-45,1.2,5954,73,71,31,90,503,440.0,605,463,60,131.0,280,1,316,494,111,0,0,445,20625,31796,412,-5.59,,,,,,,,,,,,
20244,1564322845956,-1,2.16,1.4,0.77,2.31,1.93,0.85,0.84,1.0,-25,-5,-44,1.2,5866,73,71,31,90,503,442.0,602,465,60,131.0,280,1,315,418,111,0,0,444,23400,21580,416,-5.59,44.680073,10.01685,39.44,176.6,0,0.0,-1,0.0,0.0,0,0.21,0.3374
20264,1564322845976,-1,2.17,1.4,0.76,2.32,1.92,0.89,0.83,1.04,-24,-6,-42,1.21,5922,73,71,31,90,503,441.0,601,464,60,131.0,264,1,316,494,110,0,0,441,-18341,20625,420,-5.59,,,,,,,,,,,,
20284,1564322845996,-1,2.19,1.4,0.76,2.31,1.92,0.88,0.8,1.14,-23,-6,-41,1.19,6030,73,71,31,90,503,444.0,601,465,60,131.0,264,1,318,421,110,0,0,447,21432,26704,425,-5.59,,,,,,,,,,,,
20304,1564322846008,-1,2.19,1.4,0.75,2.31,1.91,0.92,0.75,1.17,-22,-7,-39,1.18,6123,73,71,31,91,503,447.0,602,462,60,131.0,264,1,323,499,110,0,0,450,10305,-9160,432,-5.59,,,,,,,,,,,,
20324,1564322846028,-2,2.21,1.4,0.75,2.31,1.91,1.0,0.67,1.13,-20,-9,-37,1.2,6137,74,71,31,91,503,447.0,603,465,60,131.0,264,1,324,500,110,0,0,452,10305,-8985,433,-5.59,,,,,,,,,,,,
20344,1564322846048,0,2.21,1.41,0.76,2.29,1.91,1.06,0.56,1.09,-19,-10,-36,1.2,6151,74,71,31,91,503,450.0,606,463,60,130.0,264,1,325,509,110,0,0,456,-3267,-3267,437,-5.59,44.680073,10.016863,40.97,176.6,0,0.0,-1,0.0,0.0,0,0.21,0.3391
20364,1564322846068,0,2.22,1.4,0.75,2.29,1.91,1.1,0.43,1.08,-17,-10,-34,1.18,6125,75,71,31,91,503,454.0,601,465,60,130.0,269,1,323,508,118,0,0,455,2524,-6387,440,-5.59,,,,,,,,,,,,
20384,1564322846095,2,2.21,1.4,0.75,2.29,1.91,1.14,0.34,1.08,-16,-10,-32,1.19,6169,75,71,31,91,502,457.0,602,462,60,130.0,269,1,326,509,118,0,0,458,-9160,-9160,442,-5.59,,,,,,,,,,,,
20404,1564322846115,3,2.19,1.41,0.75,2.29,1.91,1.05,0.34,1.12,-15,-9,-30,1.1,6266,76,71,31,91,502,458.0,603,462,60,130.0,269,1,331,512,118,0,0,461,17628,-8985,445,-5.59,,,,,,,,,,,,
20424,1564322846135,4,2.19,1.41,0.75,2.29,1.91,0.88,0.37,1.13,-15,-5,-28,0.95,6347,76,71,31,91,502,461.0,607,460,60,130.0,269,1,336,514,118,0,0,462,2211,30272,448,-5.59,,,,,,,,,,,,
20444,1564322846155,0,2.19,1.41,0.75,2.3,1.9,0.83,0.44,1.02,-15,-2,-26,0.94,6449,76,71,31,91,501,466.0,611,464,60,131.0,269,1,341,517,118,0,0,470,-3210,-3210,449,-5.59,44.680069,10.016878,42.61,176.5,0,0.0,-1,0.0,0.0,0,0.21,0.3407
20464,1564322846175,-0,2.19,1.4,0.76,2.3,1.9,0.95,0.37,1.07,-15,-4,-25,1.02,6487,77,71,31,92,501,467.0,611,465,60,131.0,280,1,343,448,127,0,0,468,-16384,-899,452,-5.59,,,,,,,,,,,,
20484,1564322846195,4,2.17,1.4,0.75,2.29,1.91,0.77,0.41,1.11,-14,-3,-24,0.87,6487,77,71,31,91,501,471.0,610,460,60,131.0,280,1,343,523,127,0,0,474,32033,-17956,455,-5.59,,,,,,,,,,,,
20504,1564322846215,-1,2.18,1.4,0.76,2.28,1.91,0.69,0.44,1.07,-13,0,-23,0.82,6519,77,71,31,92,502,472.0,611,463,60,131.0,280,1,344,519,127,0,0,477,-1923,-6441,455,-5.59,,,,,,,,,,,,
20524,1564322846235,0,2.18,1.4,0.76,2.29,1.9,0.82,0.39,1.07,-13,-4,-22,0.91,6535,77,71,31,92,502,475.0,611,463,60,131.0,280,1,345,524,127,0,0,477,-17956,1,461,-5.59,,,,,,,,,,,,
20544,1564322846255,0,2.17,1.41,0.76,2.27,1.91,0.67,0.39,1.07,-13,-3,-22,0.77,6625,77,71,31,91,502,480.0,613,461,60,131.0,280,1,351,523,127,0,0,487,8488,3580,463,-5.59,44.680065,10.016893,43.82,176.4,0,0.0,-1,0.0,0.0,0,0.21,0.3424
20564,1564322846275,0,2.18,1.4,0.76,2.29,1.92,0.72,0.36,1.02,-13,-3,-21,0.81,6667,77,71,31,92,502,485.0,619,466,60,131.0,281,1,352,526,131,0,0,494,-6441,-3856,467,-5.59,,,,,,,,,,,,
20584,1564322846297,-0,2.17,1.41,0.77,2.29,1.92,0.69,0.36,1.03,-13,-3,-21,0.78,6756,77,71,31,91,502,487.0,620,460,60,131.0,281,1,358,528,131,0,0,496,505,3,470,-5.59,,,,,,,,,,,,
20604,1564322846317,0,2.18,1.41,0.76,2.3,1.91,0.68,0.35,1.01,-14,-3,-21,0.76,6776,77,71,31,91,502,491.0,617,463,60,131.0,281,1,359,527,131,0,0,495,248,-1818,472,-5.59,,,,,,,,,,,,
20624,1564322846337,0,2.18,1.41,0.76,2.28,1.91,0.62,0.39,1.04,-13,-1,-21,0.74,6781,77,71,31,91,502,494.0,617,462,60,131.0,281,1,359,527,131,0,0,504,998,10408,476,-5.59,,,,,,,,,,,,
20644,1564322846357,2,2.19,1.41,0.76,2.28,1.9,0.67,0.38,0.96,-13,-1,-20,0.77,6768,77,71,31,92,502,497.0,612,465,60,130.0,281,1,358,528,131,0,0,499,-9216,2109,478,-5.59,44.680065,10.016909,45.62,176.4,0,0.0,-1,0.0,0.0,0,0.21,0.3441
20664,1564322846377,-2,2.2,1.4,0.76,2.27,1.9,0.6,0.41,1.06,-12,-2,-20,0.73,6744,77,71,31,91,502,500.0,616,461,60,131.0,278,1,357,525,134,0,0,504,10408,-9216,481,-5.59,,,,,,,,,,,,
20684,1564322846397,2,2.2,1.4,0.76,2.26,1.9,0.63,0.41,0.98,-13,-2,-20,0.75,6793,77,71,31,92,502,502.0,615,465,60,132.0,278,1,359,528,134,0,0,504,15661,-32248,486,-5.59,,,,,,,,,,,,
20704,1564322846417,-2,2.21,1.4,0.76,2.26,1.91,0.58,0.41,1.06,-12,-1,-19,0.71,6918,77,71,31,91,502,503.0,619,462,60,131.0,278,1,367,531,134,0,0,507,2109,10408,490,-5.59,,,,,,,,,,,,
20724,1564322846437,2,2.21,1.4,0.76,2.27,1.9,0.72,0.34,1.04,-12,-3,-19,0.8,6962,77,71,31,91,502,504.0,621,465,60,130.0,278,1,369,533,134,0,0,510,-21872,10994,491,-5.59,,,,,,,,,,,,
20744,1564322846457,3,2.2,1.4,0.76,2.25,1.9,0.62,0.36,1.0,-12,-2,-18,0.71,7014,76,71,31,91,502,509.0,623,461,60,131.0,278,1,373,534,134,0,0,513,-4054,26178,495,-5.59,44.680061,10.016925,47.04,176.4,0,0.0,-1,0.0,0.0,0,0.21,0.3457
20764,1564322846477,1,2.2,1.39,0.75,2.26,1.9,0.55,0.39,1.05,-12,0,-18,0.67,7118,72,71,31,90,502,511.0,622,463,60,131.0,291,1,381,539,144,0,0,515,-3856,1248,497,-5.59,,,,,,,,,,,,
20784,1564322846493,0,2.2,1.4,0.76,2.25,1.91,0.64,0.33,1.06,-11,-0,-18,0.72,7129,70,71,31,89,502,517.0,620,463,60,129.0,291,1,383,533,144,0,0,521,15679,-22519,501,-5.59,,,,,,,,,,,,
20804,1564322846513,1,2.21,1.4,0.76,2.26,1.9,0.74,0.24,1.01,-12,-2,-18,0.77,7159,70,71,31,89,502,519.0,622,463,60,131.0,291,1,385,534,144,0,0,528,-8187,14504,504,-5.59,,,,,,,,,,,,
20824,1564322846533,3,2.21,1.4,0.77,2.26,1.91,0.66,0.27,0.97,-12,-1,-17,0.71,7192,69,71,31,88,502,522.0,623,463,60,131.0,291,1,387,528,144,0,0,529,2524,2524,510,-5.59,,,,,,,,,,,,
20844,1564322846553,-0,2.2,1.4,0.77,2.25,1.91,0.55,0.36,0.96,-11,-1,-17,0.66,7197,69,71,31,87,502,524.0,625,462,60,131.0,291,1,388,528,144,0,0,535,10408,2104,509,-5.59,44.680061,10.016942,48.51,176.3,0,0.0,-1,0.0,0.0,0,0.21,0.3474
20864,1564322846573,-2,2.22,1.4,0.76,2.25,1.9,0.57,0.36,1.02,-11,0,-17,0.68,7261,67,71,31,87,502,528.0,624,466,60,130.0,280,1,393,524,144,0,0,534,-28648,1780,512,-5.59,,,,,,,,,,,,
20884,1564322846593,-1,2.22,1.4,0.77,2.24,1.9,0.64,0.29,1.1,-10,-1,-17,0.7,7267,62,71,31,86,502,530.0,623,462,60,130.0,280,1,393,517,144,0,0,534,-9072,-30064,516,-5.59,,,,,,,,,,,,
20904,1564322846613,-0,2.24,1.4,0.77,2.26,1.91,0.74,0.19,1.07,-10,-2,-16,0.77,7304,59,71,31,84,502,532.0,620,465,60,130.0,280,1,395,504,144,0,0,543,-22519,-22519,520,-5.59,,,,,,,,,,,,
20924,1564322846633,3,2.24,1.41,0.76,2.27,1.91,0.79,0.16,1.02,-10,-3,-16,0.81,7347,58,71,31,82,502,537.0,627,466,60,129.0,280,1,399,490,144,0,0,540,-30064,-2336,525,181.28,,,,,,,,,,,,
20944,1564322846653,1,2.26,1.4,0.77,2.26,1.9,0.75,0.1,0.95,-10,-2,-16,0.76,7338,58,71,31,81,502,537.0,626,463,60,131.0,280,1,398,482,144,0,0,541,-30064,1779,529,-5.59,44.680061,10.016959,49.87,176.3,0,0.0,-1,0.0,0.0,0,0.21,0.3491
20964,1564322846673,3,2.25,1.4,0.76,2.25,1.9,0.65,0.13,0.85,-9,-1,-14,0.66,7384,58,71,31,81,502,538.0,621,463,60,131.0,253,1,401,482,134,0,0,544,-2934,-8962,531,-5.59,,,,,,,,,,,,
20984,1564322846693,4,2.28,1.4,0.77,2.25,1.91,0.56,0.19,0.82,-9,0,-14,0.59,7387,58,71,31,81,502,541.0,623,466,60,131.0,253,1,401,476,134,0,0,542,-2336,-8962,532,-5.59,,,,,,,,,,,,
21004,1564322846707,3,2.29,1.4,0.77,2.27,1.92,0.55,0.2,0.72,-8,2,-13,0.58,7440,58,71,31,80,502,541.0,627,465,60,131.0,253,1,405,476,134,0,0,550,-3082,1780,534,-5.59,,,,,,,,,,,,
21024,1564322846727,3,2.3,1.4,0.77,2.28,1.92,0.44,0.25,0.72,-7,3,-12,0.5,7446,58,71,31,79,502,544.0,630,462,60,131.0,253,1,406,469,134,0,0,552,-8962,-32248,540,-5.59,,,,,,,,,,,,
21044,1564322846747,4,2.3,1.41,0.77,2.28,1.91,0.42,0.24,0.62,-6,4,-10,0.49,7539,54,71,31,79,502,545.0,628,465,60,131.0,253,1,411,461,134,0,0,552,1779,-22263,545,-5.59,44.680061,10.016977,51.78,176.4,0,0.0,-1,0.0,0.0,0,0.22,0.3507
21064,1564322846767,1,2.31,1.41,0.78,2.28,1.91,0.45,0.26,0.61,-5,4,-9,0.52,7597,46,71,31,77,502,547.0,627,463,60,131.0,242,1,415,446,132,0,0,557,-22519,-9072,543,-5.59,,,,,,,,,,,,
21084,1564322846793,4,2.31,1.41,0.77,2.29,1.92,0.51,0.22,0.59,-4,5,-10,0.56,7612,38,71,31,73,502,549.0,627,463,60,130.0,242,1,420,410,132,0,0,560,2104,6273,550,-5.59,,,,,,,,,,,,
21104,1564322846813,3,2.32,1.41,0.77,2.29,1.92,0.54,0.15,0.62,-3,6,-8,0.56,7488,33,71,31,70,502,552.0,630,466,60,130.0,242,1,417,358,132,0,0,560,6274,2216,552,-5.59,,,,,,,,,,,,
21124,1564322846833,1,2.34,1.41,0.78,2.3,1.92,0.56,0.12,0.6,-3,6,-6,0.57,7347,32,71,31,67,502,553.0,622,465,60,130.0,242,1,415,328,132,0,0,555,2104,6273,553,-5.59,,,,,,,,,,,,
21144,1564322846853,-1,2.36,1.42,0.78,2.3,1.92,0.53,0.12,0.57,-2,4,-6,0.54,7244,31,71,31,64,502,556.0,622,462,60,131.0,242,1,420,314,132,0,0,552,-9072,-22263,556,-5.59,44.680061,10.016996,52.76,176.4,0,0.0,-1,0.0,0.0,0,0.22,0.3524
21164,1564322846873,0,2.39,1.42,0.79,2.3,1.94,0.48,0.07,0.55,-0,2,-5,0.49,7378,31,71,31,63,502,557.0,626,462,60,130.0,155,1,428,312,87,0,0,542,2104,-28648,555,-5.59,,,,,,,,,,,,
21184,1564322846897,-1,2.42,1.42,0.79,2.32,1.93,0.45,-0.01,0.58,1,-0,-4,0.45,7506,31,71,31,61,502,557.0,630,461,60,131.0,155,1,437,302,87,0,0,543,-22519,6273,557,-5.59,,,,,,,,,,,,
21204,1564322846917,1,2.44,1.43,0.8,2.32,1.95,0.45,-0.11,0.59,3,-0,-3,0.47,7659,31,71,31,59,502,557.0,624,462,60,131.0,155,1,426,297,87,0,0,544,1779,-22359,557,-5.59,,,,,,,,,,,,
21224,1564322846937,2,2.46,1.42,0.81,2.35,1.95,0.41,-0.18,0.59,6,0,-1,0.45,7521,31,71,30,58,502,560.0,631,465,60,130.0,155,1,416,284,87,0,0,547,-506,-32504,561,-5.59,,,,,,,,,,,,
21244,1564322846957,1,2.48,1.43,0.82,2.36,1.96,0.37,-0.25,0.56,8,1,0,0.44,7597,31,71,30,56,502,566.0,628,461,60,130.0,155,1,404,274,87,0,0,553,-2336,12552,566,-5.59,44.680061,10.017015,54.03,176.4,0,0.0,-1,0.0,0.0,0,0.22,0.3541
21264,1564322846977,1,2.49,1.43,0.82,2.37,1.97,0.36,-0.36,0.51,9,2,2,0.52,7530,31,71,30,56,502,564.0,628,462,60,131.0,137,1,403,268,78,0,0,555,-8186,-29984,564,-5.59,,,,,,,,,,,,
21284,1564322846997,-0,2.49,1.43,0.83,2.37,1.98,0.4,-0.41,0.49,11,2,5,0.57,7500,31,71,30,55,502,568.0,626,465,60,131.0,137,1,396,268,78,0,0,545,-30064,-2934,566,-5.59,,,,,,,,,,,,
21304,1564322847009,2,2.48,1.44,0.83,2.37,1.98,0.45,-0.48,0.52,13,4,8,0.66,7431,30,71,30,54,502,567.0,626,462,60,130.0,137,1,390,262,78,0,0,539,-30064,1780,567,-5.59,,,,,,,,,,,,
21324,1564322847029,1,2.47,1.44,0.82,2.38,1.98,0.48,-0.56,0.45,15,3,9,0.74,7434,30,71,30,55,502,563.0,621,462,60,131.0,137,1,396,267,78,0,0,535,6274,6273,563,-5.59,,,,,,,,,,,,
21344,1564322847049,-1,2.48,1.43,0.83,2.37,1.99,0.49,-0.63,0.46,16,2,10,0.8,7307,30,71,30,54,502,567.0,626,460,60,130.0,137,1,390,266,78,0,0,541,14504,-32504,564,-5.59,44.680061,10.017034,54.63,176.4,0,0.0,-1,0.0,0.0,0,0.22,0.3557
21364,1564322847069,-1,2.47,1.43,0.83,2.38,1.99,0.53,-0.7,0.49,17,3,13,0.88,7315,30,71,30,54,503,568.0,623,463,60,129.0,125,1,390,266,71,0,0,545,-28648,-18032,568,-5.59,,,,,,,,,,,,
21384,1564322847096,-0,2.46,1.44,0.83,2.38,1.99,0.55,-0.75,0.46,17,4,17,0.93,7327,30,71,30,55,502,564.0,627,462,60,129.0,125,1,396,266,71,0,0,539,-22519,12552,564,-5.59,,,,,,,,,,,,
21404,1564322847116,2,2.46,1.44,0.82,2.37,1.99,0.62,-0.76,0.49,17,2,19,0.98,7267,30,71,30,55,503,565.0,625,467,60,129.0,125,1,395,265,71,0,0,540,-22519,1780,565,-5.59,,,,,,,,,,,,
21424,1564322847136,1,2.46,1.44,0.83,2.37,1.99,0.71,-0.76,0.47,18,2,19,1.05,7261,30,71,30,55,503,562.0,623,466,60,130.0,125,1,395,265,71,0,0,528,14504,2524,562,-5.59,,,,,,,,,,,,
21444,1564322847156,1,2.44,1.44,0.83,2.38,1.99,0.71,-0.81,0.41,18,2,20,1.08,7281,30,71,30,55,503,564.0,622,462,60,131.0,125,1,395,265,71,0,0,525,-22519,-22263,564,-5.59,44.680058,10.017053,54.48,176.5,0,0.0,-1,0.0,0.0,0,0.22,0.3574
21464,1564322847176,2,2.43,1.43,0.83,2.39,1.99,0.71,-0.84,0.43,19,3,22,1.1,7341,30,72,30,55,503,563.0,626,465,60,130.0,131,1,396,266,74,0,0,527,14504,-22359,563,-5.59,,,,,,,,,,,,
21484,1564322847196,-0,2.42,1.43,0.83,2.38,1.99,0.7,-0.86,0.46,20,3,23,1.11,7233,30,72,30,54,503,560.0,554,461,60,130.0,131,1,390,265,74,0,0,524,-28648,2216,560,-5.59,,,,,,,,,,,,
21504,1564322847216,-2,2.41,1.44,0.83,2.38,2.0,0.66,-0.86,0.48,20,3,23,1.09,7393,30,71,30,54,503,558.0,520,463,60,130.0,131,1,390,266,74,0,0,527,-28648,-9072,557,-5.59,,,,,,,,,,,,
21524,1564322847236,1,2.39,1.43,0.83,2.38,2.0,0.66,-0.87,0.54,19,1,22,1.1,7470,30,72,30,54,503,555.0,490,461,60,128.0,131,1,390,262,74,0,0,526,-22519,-9072,555,-5.59,,,,,,,,,,,,
21544,1564322847256,-0,2.37,1.44,0.83,2.39,1.98,0.67,-0.89,0.51,18,1,23,1.12,7509,25,71,30,53,503,552.0,400,462,60,131.0,131,1,387,263,74,0,0,527,2524,2524,552,-5.59,44.680058,10.017072,54.04,176.5,0,0.0,-1,0.0,0.0,0,0.22,0.3591
21564,1564322847276,-1,2.36,1.44,0.83,2.38,1.99,0.68,-0.84,0.54,18,0,24,1.08,7440,20,71,30,52,503,552.0,401,465,60,129.0,132,1,384,250,73,0,0,528,2524,-28648,552,-5.59,,,,,,,,,,,,
21584,1564322847296,-1,2.33,1.44,0.83,2.39,1.98,0.69,-0.82,0.58,16,-1,23,1.07,7449,18,71,30,49,502,547.0,367,466,60,131.0,132,1,375,234,73,0,0,533,14504,14504,547,-5.59,,,,,,,,,,,,
21604,1564322847316,-1,2.31,1.44,0.83,2.38,1.99,0.78,-0.78,0.63,14,-3,21,1.1,7434,18,72,30,47,502,546.0,403,459,60,130.0,132,1,370,223,73,0,0,530,2104,-3082,546,-5.59,,,,,,,,,,,,
21624,1564322847336,-1,2.3,1.44,0.83,2.38,1.99,0.84,-0.73,0.6,13,-3,21,1.11,7341,18,72,30,46,502,543.0,452,467,60,130.0,132,1,362,221,73,0,0,534,-32248,-28648,541,-5.59,,,,,,,,,,,,
21644,1564322847356,1,2.27,1.43,0.83,2.38,1.99,0.86,-0.71,0.62,11,-2,20,1.11,7178,18,72,30,45,502,539.0,408,464,60,130.0,132,1,355,219,73,0,0,531,6274,-28648,539,-5.59,44.680054,10.017091,53.81,176.5,0,0.0,-1,0.0,0.0,0,0.22,0.3607
21664,1564322847376,2,2.24,1.44,0.82,2.37,1.99,0.89,-0.62,0.58,8,-1,19,1.09,7107,18,72,30,44,502,537.0,370,462,60,131.0,109,1,347,217,59,0,0,535,6274,-8186,537,-5.59,,,,,,,,,,,,
21684,1564322847396,-1,2.21,1.43,0.81,2.38,1.97,0.79,-0.48,0.53,7,-1,18,0.93,7019,18,71,30,43,502,538.0,349,465,60,131.0,109,1,340,217,59,0,0,535,-8186,14504,538,-5.59,,,,,,,,,,,,
21704,1564322847416,1,2.2,1.42,0.81,2.35,1.97,0.89,-0.43,0.54,4,-2,16,0.99,6893,18,72,30,43,502,542.0,331,461,60,130.0,109,1,339,215,59,0,0,538,-8186,2104,532,-5.59,,,,,,,,,,,,
21724,1564322847436,-1,2.19,1.42,0.8,2.36,1.96,0.86,-0.34,0.51,2,-1,14,0.92,6793,18,72,30,43,502,543.0,334,460,60,131.0,109,1,338,214,59,0,0,541,-2336,14504,530,-5.59,,,,,,,,,,,,
21744,1564322847456,3,2.2,1.41,0.8,2.34,1.96,0.85,-0.26,0.54,0,-2,11,0.89,6718,18,72,30,43,502,542.0,338,466,60,130.0,109,1,338,214,59,0,0,541,-3082,-8187,525,-5.59,44.68005,10.017109,53.32,176.6,0,0.0,-1,0.0,0.0,0,0.23,0.3624
21764,1564322847476,-0,2.21,1.4,0.78,2.33,1.94,0.88,-0.19,0.49,-1,-0,8,0.9,6665,17,72,30,43,503,542.0,356,463,60,131.0,102,1,338,214,54,0,0,528,-3082,26178,525,-5.59,,,,,,,,,,,,
21784,1564322847494,2,2.21,1.4,0.78,2.31,1.94,0.86,-0.18,0.5,-2,-1,5,0.88,6835,17,72,30,44,503,539.0,405,465,60,131.0,102,1,346,216,54,0,0,526,1780,-3414,522,-5.59,,,,,,,,,,,,
21804,1564322847514,-0,2.23,1.4,0.77,2.31,1.92,0.88,-0.1,0.47,-3,-0,3,0.89,6978,17,72,30,43,503,537.0,451,464,60,131.0,102,1,339,215,54,0,0,521,-30064,-3482,520,-5.59,,,,,,,,,,,,
21824,1564322847534,1,2.21,1.41,0.77,2.31,1.92,0.8,0.0,0.45,-3,-1,1,0.8,7170,17,72,30,43,503,533.0,520,463,60,131.0,102,1,340,215,54,0,0,517,-32248,-8187,519,-5.59,,,,,,,,,,,,
21844,1564322847554,-1,2.18,1.42,0.77,2.32,1.93,0.85,0.02,0.47,-4,-1,-0,0.85,7178,17,72,30,42,503,532.0,588,461,60,131.0,102,1,332,215,54,0,0,525,-22519,1341,518,-5.59,44.68005,10.017126,52.58,176.6,0,0.0,-1,0.0,0.0,0,0.23,0.3641
21864,1564322847574,4,2.13,1.42,0.77,2.32,1.94,0.91,0.05,0.5,-6,-0,-2,0.91,7145,17,72,30,42,503,533.0,622,466,60,130.0,110,1,332,213,57,0,0,529,2104,17136,516,-5.59,,,,,,,,,,,,
21884,1564322847594,3,2.05,1.41,0.76,2.32,1.91,0.91,0.15,0.46,-9,1,-2,0.93,7140,17,72,30,42,503,533.0,622,461,60,131.0,110,1,332,211,57,0,0,528,2104,10994,513,-5.59,,,,,,,,,,,,
21904,1564322847614,0,1.96,1.42,0.76,2.31,1.91,0.87,0.3,0.46,-10,3,-4,0.92,7046,17,72,30,42,503,531.0,615,465,60,131.0,110,1,332,213,57,0,0,532,-22519,6274,508,-5.59,,,,,,,,,,,,
21924,1564322847634,5,1.87,1.4,0.75,2.28,1.9,0.88,0.3,0.45,-12,1,-6,0.93,7062,17,72,30,42,502,534.0,615,464,60,130.0,110,1,332,213,57,0,0,532,-32248,-3856,505,-5.59,,,,,,,,,,,,
21944,1564322847654,2,1.76,1.4,0.75,2.28,1.9,0.91,0.35,0.39,-14,2,-8,0.98,7011,17,72,30,42,503,527.0,617,464,60,130.0,110,1,332,211,57,0,0,532,6274,2524,500,-5.59,44.680046,10.017144,51.75,176.7,0,0.0,-1,0.0,0.0,0,0.23,0.3657
21964,1564322847674,-3,1.68,1.39,0.75,2.28,1.9,0.86,0.48,0.38,-15,0,-10,0.99,7017,17,72,30,42,503,520.0,618,461,60,131.0,112,1,332,213,56,0,0,531,1248,-9216,494,-5.59,,,,,,,,,,,,
21984,1564322847694,4,1.63,1.39,0.76,2.28,1.91,0.91,0.53,0.35,-16,0,-13,1.05,6934,17,72,30,42,502,512.0,620,465,60,130.0,112,1,332,213,56,0,0,525,17136,998,485,-5.59,,,,,,,,,,,,
22004,1564322847714,1,1.6,1.39,0.76,2.29,1.91,0.91,0.55,0.31,-17,0,-16,1.06,6900,17,72,30,42,502,506.0,618,463,60,132.0,112,1,332,213,56,0,0,522,-28648,248,480,-5.59,,,,,,,,,,,,
22024,1564322847734,1,1.61,1.39,0.76,2.28,1.91,0.84,0.65,0.28,-18,1,-19,1.07,6900,17,72,30,42,502,504.0,617,463,60,131.0,112,1,332,213,56,0,0,521,-32248,1,476,-5.59,,,,,,,,,,,,
22044,1564322847754,3,1.64,1.39,0.78,2.29,1.91,0.88,0.62,0.3,-19,1,-20,1.08,6865,17,72,30,42,503,502.0,616,463,60,131.0,112,1,331,213,56,0,0,523,2524,505,467,-5.59,44.680042,10.017161,50.89,176.8,0,0.0,-1,0.0,0.0,0,0.23,0.3674
22064,1564322847774,-0,1.68,1.39,0.77,2.3,1.91,0.89,0.71,0.33,-20,2,-23,1.14,6860,17,72,30,43,503,498.0,618,465,60,132.0,117,1,339,213,55,0,0,520,-22519,3580,467,-5.59,,,,,,,,,,,,
22084,1564322847792,4,1.73,1.4,0.77,2.3,1.92,0.92,0.74,0.3,-22,1,-24,1.18,6838,17,72,30,43,502,501.0,619,466,60,130.0,117,1,339,215,55,0,0,518,2109,505,466,-5.59,,,,,,,,,,,,
22104,1564322847812,-0,1.78,1.4,0.77,2.31,1.91,0.9,0.81,0.23,-23,1,-25,1.21,6840,17,72,30,43,503,506.0,621,463,60,131.0,117,1,339,215,55,0,0,519,-32248,10305,467,-5.59,,,,,,,,,,,,
22124,1564322847832,2,1.8,1.4,0.78,2.3,1.92,0.88,0.84,0.31,-24,1,-26,1.22,6825,17,72,30,43,503,506.0,620,468,60,130.0,117,1,339,215,55,0,0,511,-28648,8488,469,-5.59,,,,,,,,,,,,
22144,1564322847852,0,1.77,1.4,0.78,2.3,1.92,0.89,0.83,0.24,-25,0,-27,1.22,6813,17,72,30,43,503,510.0,619,460,60,131.0,117,1,339,215,55,0,0,513,-4054,-899,468,-5.59,44.680038,10.017179,49.98,176.9,0,0.0,-1,0.0,0.0,0,0.23,0.3691
22164,1564322847872,3,1.74,1.39,0.78,2.29,1.92,0.87,0.94,0.36,-25,-1,-28,1.27,6744,17,72,30,44,503,506.0,621,465,60,130.0,117,1,345,216,55,0,0,510,-28648,3580,467,-5.59,,,,,,,,,,,,
22184,1564322847896,-1,1.69,1.39,0.77,2.3,1.92,0.89,0.9,0.28,-26,-1,-31,1.26,6715,17,72,30,44,503,495.0,617,462,60,131.0,117,1,345,214,55,0,0,514,771,2212,465,-5.59,,,,,,,,,,,,
22204,1564322847916,3,1.63,1.4,0.78,2.3,1.92,0.88,0.92,0.32,-26,-2,-30,1.27,6701,17,72,30,44,503,494.0,616,466,60,130.0,117,1,345,216,55,0,0,509,998,-1923,463,-5.59,,,,,,,,,,,,
22224,1564322847936,-1,1.58,1.39,0.79,2.31,1.93,0.88,0.96,0.23,-27,-1,-31,1.3,6727,17,72,30,44,503,488.0,616,461,60,132.0,117,1,345,216,55,0,0,506,-1562,32033,458,-5.59,,,,,,,,,,,,
22244,1564322847956,4,1.5,1.39,0.79,2.32,1.92,0.86,0.94,0.31,-27,-1,-32,1.27,6672,17,72,30,45,503,482.0,620,466,60,130.0,117,1,352,217,55,0,0,501,-899,-16384,451,-5.59,44.680038,10.017196,48.74,177.0,0,0.0,-1,0.0,0.0,0,0.23,0.3707
22264,1564322847976,-0,1.44,1.4,0.78,2.32,1.93,0.86,0.99,0.32,-27,-1,-33,1.31,6682,17,72,30,45,503,473.0,618,463,60,131.0,119,1,352,217,54,0,0,501,3576,8488,447,-5.59,,,,,,,,,,,,
22284,1564322847996,3,1.37,1.4,0.79,2.32,1.93,0.9,0.99,0.36,-27,-2,-33,1.34,6732,18,72,30,45,503,468.0,620,467,60,130.0,119,1,352,217,54,0,0,500,17628,10432,439,-5.59,,,,,,,,,,,,
22304,1564322848010,-0,1.32,1.39,0.79,2.32,1.92,0.92,1.08,0.38,-27,-2,-36,1.42,6706,17,72,30,45,503,452.0,618,459,60,131.0,119,1,352,217,54,0,0,500,-6387,16408,431,-5.59,,,,,,,,,,,,
22324,1564322848030,2,1.29,1.4,0.79,2.33,1.92,0.94,1.01,0.34,-27,-3,-35,1.38,6710,17,72,30,45,503,444.0,619,465,60,129.0,119,1,352,217,54,0,0,490,23400,2211,425,-5.59,,,,,,,,,,,,
22344,1564322848050,0,1.27,1.39,0.79,2.32,1.93,0.93,1.1,0.42,-26,-2,-36,1.44,6720,17,72,30,45,503,434.0,619,463,60,131.0,119,1,352,217,54,0,0,488,-768,-18108,417,-5.59,44.680038,10.017213,48.05,177.0,0,0.0,-1,0.0,0.0,0,0.23,0.3724
22364,1564322848070,4,1.27,1.4,0.79,2.33,1.92,0.96,0.96,0.35,-27,-2,-37,1.36,6727,17,72,30,45,503,427.0,617,466,60,131.0,133,1,352,217,55,0,0,487,31796,-18108,405,-5.59,,,,,,,,,,,,
22384,1564322848097,0,1.28,1.4,0.79,2.33,1.92,0.91,1.05,0.33,-26,-1,-35,1.39,6698,17,72,30,45,503,425.0,616,464,60,131.0,133,1,352,217,55,0,0,487,-3856,-23623,400,-5.59,,,,,,,,,,,,
22404,1564322848117,1,1.29,1.4,0.8,2.32,1.93,0.99,0.95,0.29,-26,-1,-35,1.37,6602,17,72,30,46,503,424.0,617,468,60,130.0,133,1,359,219,55,0,0,485,-4082,-9203,398,181.28,,,,,,,,,,,,
22424,1564322848137,4,1.29,1.4,0.79,2.34,1.92,0.98,1.0,0.43,-26,-0,-35,1.4,6512,17,72,30,46,502,424.0,616,461,60,131.0,133,1,358,218,55,0,0,484,-4082,3580,396,-5.59,,,,,,,,,,,,
22444,1564322848157,-2,1.3,1.39,0.8,2.33,1.93,0.97,1.05,0.46,-26,-1,-35,1.43,6410,17,72,30,46,503,421.0,611,462,60,132.0,133,1,357,218,55,0,0,479,-21792,-16384,397,-5.59,44.680038,10.017229,46.82,177.1,0,0.0,-1,0.0,0.0,0,0.24,0.3741
22464,1564322848177,1,1.28,1.4,0.8,2.33,1.93,1.0,0.91,0.36,-26,-2,-34,1.36,6375,17,72,30,47,503,419.0,610,466,60,132.0,131,1,363,217,52,0,0,475,7154,-9160,392,-5.59,,,,,,,,,,,,
22484,1564322848197,1,1.28,1.39,0.8,2.34,1.93,0.98,0.92,0.38,-24,-2,-33,1.34,6323,17,72,30,47,503,418.0,609,466,60,131.0,131,1,363,219,52,0,0,471,-9166,-18108,391,-5.59,,,,,,,,,,,,
22504,1564322848217,4,1.28,1.4,0.8,2.34,1.94,0.92,1.01,0.53,-23,-1,-34,1.36,6237,17,72,30,47,503,414.0,610,463,60,130.0,131,1,362,219,52,0,0,469,2524,-9160,388,-5.59,,,,,,,,,,,,
22524,1564322848237,4,1.27,1.4,0.8,2.35,1.93,0.92,1.07,0.62,-23,-1,-34,1.41,6227,16,72,30,47,503,412.0,611,466,60,130.0,131,1,362,219,52,0,0,466,13040,-8985,384,-5.59,,,,,,,,,,,,
22544,1564322848257,6,1.27,1.39,0.8,2.34,1.94,1.01,1.09,0.67,-23,-1,-35,1.49,6163,16,72,30,48,503,407.0,608,463,60,130.0,131,1,364,223,52,0,0,460,-26615,20625,380,-5.59,44.680042,10.017245,45.54,177.2,0,0.0,-1,0.0,0.0,0,0.24,0.3757
22564,1564322848277,7,1.26,1.39,0.8,2.35,1.93,1.1,1.09,0.65,-23,-2,-35,1.55,6129,15,72,30,48,503,399.0,607,464,60,131.0,138,1,364,223,52,0,0,463,28696,-7939,364,-5.59,,,,,,,,,,,,
22584,1564322848297,5,1.27,1.4,0.81,2.34,1.94,1.14,1.06,0.54,-24,-3,-36,1.56,6067,14,72,30,48,503,387.0,604,462,60,131.0,138,1,363,223,52,0,0,456,240,243,351,-5.59,,,,,,,,,,,,
22604,1564322848317,5,1.27,1.39,0.81,2.35,1.94,1.23,1.05,0.43,-24,-4,-35,1.61,5998,14,72,30,48,504,383.0,605,463,60,129.0,138,1,362,223,52,0,0,453,-19126,3635,337,-5.59,,,,,,,,,,,,
22624,1564322848337,6,1.26,1.39,0.82,2.35,1.94,1.31,1.04,0.37,-25,-4,-35,1.67,5931,14,72,30,48,504,383.0,603,463,60,129.0,138,1,356,223,52,0,0,450,-19126,13552,329,-5.59,,,,,,,,,,,,
22644,1564322848357,11,1.27,1.4,0.81,2.36,1.94,1.37,1.05,0.38,-26,-5,-35,1.73,5857,14,72,30,48,503,386.0,602,464,60,129.0,138,1,350,223,52,0,0,453,-3866,-21944,325,-5.59,44.680046,10.017261,44.91,177.2,0,0.0,-1,0.0,0.0,0,0.24,0.3774
22664,1564322848377,16,1.25,1.39,0.81,2.36,1.94,1.38,1.09,0.43,-27,-5,-37,1.76,5806,14,72,30,48,504,376.0,601,462,60,130.0,152,1,345,228,49,0,0,444,3,11560,310,-5.59,,,,,,,,,,,,
22684,1564322848397,15,1.25,1.4,0.81,2.36,1.94,1.36,1.17,0.48,-26,-3,-37,1.8,5742,13,72,30,49,504,365.0,599,463,60,130.0,152,1,343,227,49,0,0,441,-6405,1504,293,-5.59,,,,,,,,,,,,
22704,1564322848417,14,1.26,1.4,0.82,2.36,1.94,1.27,1.14,0.54,-26,-2,-37,1.71,5676,13,72,30,50,504,358.0,598,467,60,129.0,152,1,341,232,49,0,0,434,-29978,6512,279,-5.59,,,,,,,,,,,,
22724,1564322848437,10,1.26,1.4,0.82,2.37,1.94,1.26,1.03,0.43,-26,-3,-38,1.63,5575,13,72,30,50,504,350.0,598,462,60,133.0,152,1,332,231,49,0,0,428,-30454,-32702,264,-5.59,,,,,,,,,,,,
22744,1564322848457,12,1.25,1.39,0.81,2.37,1.94,1.33,1.01,0.43,-27,-5,-37,1.67,5433,13,72,30,51,504,350.0,593,466,60,129.0,152,1,324,234,49,0,0,675,-30454,-6524,262,-5.59,44.68005,10.017275,43.41,177.2,0,0.0,-1,0.0,0.0,0,0.24,0.3791
22764,1564322848477,10,1.25,1.4,0.82,2.36,1.93,1.25,0.99,0.42,-27,-3,-37,1.6,5386,13,72,30,52,504,355.0,595,466,60,130.0,179,1,320,236,48,0,0,675,2060,-6656,265,-5.59,,,,,,,,,,,,
22784,1564322848493,10,1.26,1.39,0.82,2.36,1.95,1.29,0.97,0.36,-27,-5,-38,1.62,5247,13,72,30,53,504,354.0,593,463,60,130.0,179,1,316,238,48,0,0,675,3302,-1246,269,-5.59,,,,,,,,,,,,
22804,1564322848513,8,1.25,1.4,0.82,2.36,1.94,1.2,0.99,0.27,-26,-3,-40,1.55,5127,13,72,30,54,504,351.0,581,463,60,130.0,179,1,311,240,48,0,0,675,28553,-32559,269,-5.59,,,,,,,,,,,,
22824,1564322848533,6,1.25,1.38,0.82,2.36,1.94,1.25,0.99,0.25,-26,-5,-40,1.59,4982,13,72,30,55,503,344.0,577,467,60,129.0,179,1,294,241,48,0,0,675,-10554,170,266,-5.59,,,,,,,,,,,,
22844,1564322848553,7,1.26,1.39,0.82,2.37,1.94,1.27,0.94,0.13,-27,-4,-38,1.58,4876,12,72,30,56,503,343.0,572,461,60,131.0,179,1,277,244,48,0,0,675,2811,-10554,274,-5.59,44.68005,10.017289,41.44,177.2,0,0.0,-1,0.0,0.0,0,0.24,0.3807
22864,1564322848573,7,1.26,1.4,0.82,2.37,1.94,1.27,0.93,0.07,-28,-1,-38,1.58,4790,12,72,30,57,504,347.0,560,466,60,131.0,163,1,264,170,45,0,0,393,8841,-14707,282,-5.59,,,,,,,,,,,,
22884,1564322848593,4,1.26,1.39,0.82,2.36,1.95,1.23,0.94,0.13,-29,-0,-39,1.55,4739,12,72,30,58,503,350.0,559,466,60,131.0,163,1,255,252,45,0,0,399,-30454,-30454,287,-5.59,,,,,,,,,,,,
22904,1564322848613,3,1.26,1.39,0.82,2.37,1.94,1.22,0.91,0.22,-30,-1,-38,1.52,4720,12,72,30,58,504,347.0,550,467,60,130.0,163,1,253,252,45,0,0,392,-30438,-30438,289,-5.59,,,,,,,,,,,,
22924,1564322848633,3,1.29,1.39,0.82,2.37,1.94,1.19,0.9,0.26,-30,-3,-40,1.49,4674,12,72,30,59,503,347.0,543,470,60,130.0,163,1,246,256,45,0,0,395,8841,-6528,288,-5.59,,,,,,,,,,,,
22944,1564322848653,3,1.32,1.39,0.82,2.37,1.95,1.19,0.88,0.21,-30,-5,-39,1.48,4641,12,72,30,59,503,344.0,502,465,60,129.0,163,1,242,256,45,0,0,388,-10554,160,288,-5.59,44.680058,10.017301,38.72,177.2,0,0.0,-1,0.0,0.0,0,0.24,0.3824
22964,1564322848673,1,1.37,1.39,0.83,2.37,1.94,1.14,0.89,0.27,-31,-6,-39,1.45,4592,12,72,30,59,504,346.0,467,463,60,129.0,151,1,237,260,44,0,0,381,2811,-30976,293,-5.59,,,,,,,,,,,,
22984,1564322848693,1,1.46,1.39,0.82,2.37,1.95,1.14,0.87,0.26,-31,-5,-41,1.43,4601,12,72,30,60,504,351.0,447,461,60,130.0,151,1,236,261,44,0,0,382,28553,28160,297,-5.59,,,,,,,,,,,,
23004,1564322848713,2,1.58,1.39,0.82,2.36,1.94,1.16,0.83,0.21,-31,-5,-41,1.43,4629,12,72,30,60,504,357.0,458,461,60,131.0,151,1,239,261,44,0,0,377,-6640,85,304,-5.59,,,,,,,,,,,,
23024,1564322848733,3,1.73,1.39,0.82,2.35,1.93,1.17,0.82,0.19,-32,-3,-41,1.43,4604,12,72,30,60,504,369.0,471,461,60,132.0,151,1,236,183,44,0,0,377,-6656,110,317,-5.59,,,,,,,,,,,,
23044,1564322848753,3,1.92,1.39,0.8,2.34,1.91,1.16,0.82,0.2,-32,-1,-44,1.43,4587,12,72,30,60,504,379.0,488,458,60,131.0,151,1,234,260,44,0,0,374,8200,140,327,-5.59,44.680065,10.017312,36.74,177.1,0,0.0,-1,0.0,0.0,0,0.24,0.3841
23064,1564322848773,3,2.11,1.38,0.8,2.32,1.91,1.15,0.79,0.24,-33,0,-45,1.39,4597,12,72,30,61,504,381.0,495,461,60,131.0,139,1,232,260,46,0,0,376,-992,-24576,334,-5.59,,,,,,,,,,,,
23084,1564322848791,3,2.27,1.38,0.79,2.32,1.89,1.1,0.71,0.28,-31,1,-46,1.31,4601,12,72,30,61,504,382.0,499,468,60,132.0,139,1,233,266,46,0,0,372,2278,-22016,334,-5.59,,,,,,,,,,,,
23104,1564322848811,2,2.37,1.38,0.76,2.31,1.88,0.98,0.61,0.29,-28,3,-46,1.15,4585,12,72,30,61,504,371.0,505,466,60,131.0,139,1,231,265,46,0,0,365,0,4838,336,-5.59,,,,,,,,,,,,
23124,1564322848831,-1,2.49,1.39,0.78,2.33,1.89,0.96,0.45,0.33,-23,3,-44,1.06,4642,12,72,30,61,504,360.0,507,468,60,130.0,139,1,237,266,46,0,0,353,-14707,-122,342,-5.59,,,,,,,,,,,,
23144,1564322848851,-1,2.6,1.4,0.78,2.35,1.9,0.94,0.37,0.36,-18,3,-41,1.01,4746,12,72,30,61,504,350.0,524,465,60,129.0,139,1,247,266,46,0,0,344,-30454,-1246,347,-5.59,44.680069,10.017322,34.62,177.1,0,0.0,-1,0.0,0.0,0,0.24,0.3857
23164,1564322848871,-1,2.71,1.4,0.79,2.36,1.91,0.96,0.25,0.44,-13,2,-36,0.99,4789,12,72,30,61,504,352.0,527,462,60,130.0,133,1,251,188,47,0,0,339,3327,4104,352,-5.59,,,,,,,,,,,,
23184,1564322848895,1,2.82,1.41,0.81,2.37,1.93,1.0,0.14,0.44,-9,1,-29,1.01,4802,12,72,30,61,504,352.0,534,460,60,129.0,133,1,252,273,47,0,0,335,4838,2060,352,-5.59,,,,,,,,,,,,
23204,1564322848915,4,2.9,1.42,0.81,2.37,1.95,0.97,0.01,0.39,-5,3,-24,0.97,4828,12,72,30,62,503,352.0,540,460,60,130.0,133,1,255,273,47,0,0,328,-22016,-6458,351,-5.59,,,,,,,,,,,,
23224,1564322848935,-2,0.34,1.38,0.8,2.36,1.91,0.95,-0.1,0.44,-2,6,-18,0.95,4795,12,72,30,62,503,348.0,539,466,60,130.0,133,1,252,272,47,0,0,324,150,-29978,348,-5.59,,,,,,,,,,,,
23244,1564322848955,-0,0.4,1.37,0.8,2.37,1.92,0.92,-0.22,0.46,1,6,-13,0.95,4774,12,72,30,62,503,344.0,544,467,60,129.0,133,1,250,272,47,0,0,320,-30976,-29978,344,-5.59,44.680073,10.01733,33.1,177.1,0,0.0,-1,0.0,0.0,0,0.24,0.3874
23264,1564322848975,-1,0.45,1.37,0.8,2.36,1.91,0.98,-0.28,0.47,4,4,-7,1.02,4792,12,72,30,62,503,340.0,544,460,60,130.0,143,1,251,272,49,0,0,321,32000,3183,337,-5.59,,,,,,,,,,,,
23284,1564322848995,2,0.5,1.38,0.8,2.36,1.92,1.09,-0.32,0.4,6,4,-2,1.13,4762,12,72,30,62,503,333.0,539,461,60,130.0,143,1,248,272,49,0,0,316,115,3183,333,-5.59,,,,,,,,,,,,
23304,1564322849007,4,0.56,1.37,0.8,2.36,1.92,1.08,-0.35,0.33,7,3,4,1.14,4766,12,72,30,62,504,331.0,541,460,60,131.0,143,1,249,272,49,0,0,313,95,2811,330,-5.59,,,,,,,,,,,,
23324,1564322849027,5,0.61,1.37,0.8,2.36,1.92,1.0,-0.42,0.33,9,4,6,1.09,4740,12,72,30,62,504,325.0,536,463,60,129.0,143,1,246,194,49,0,0,314,85,-14714,325,-5.59,,,,,,,,,,,,
23344,1564322849047,-1,0.61,1.35,0.8,2.36,1.92,0.92,-0.52,0.36,11,4,9,1.06,4734,12,72,30,62,504,321.0,532,466,60,130.0,143,1,246,272,49,0,0,310,0,-10554,320,-5.59,44.68008,10.01734,33.9,177.1,0,0.0,-1,0.0,0.0,0,0.25,0.3891
23364,1564322849067,0,0.63,1.37,0.81,2.36,1.93,0.89,-0.62,0.38,13,3,13,1.08,4692,12,72,30,62,504,316.0,532,466,60,130.0,151,1,239,272,48,0,0,312,1886,-10554,316,-5.59,,,,,,,,,,,,
23384,1564322849096,-2,0.62,1.37,0.81,2.36,1.93,0.89,-0.62,0.38,16,2,17,1.09,4627,12,72,30,62,504,314.0,523,463,60,128.0,151,1,236,272,48,0,0,310,24064,-10554,317,-5.59,,,,,,,,,,,,
23404,1564322849116,-1,0.63,1.37,0.81,2.36,1.93,0.98,-0.72,0.4,19,-1,21,1.22,4566,12,72,30,62,504,317.0,521,460,60,128.0,151,1,230,271,48,0,0,340,250,6668,317,-5.59,,,,,,,,,,,,
23424,1564322849136,0,0.62,1.37,0.81,2.36,1.93,1.04,-0.7,0.36,22,-2,26,1.26,4501,12,72,30,62,504,315.0,514,457,60,129.0,151,1,224,271,48,0,0,358,250,2560,315,-5.59,,,,,,,,,,,,
23444,1564322849156,0,0.62,1.37,0.81,2.37,1.92,1.1,-0.76,0.38,24,-4,30,1.34,4534,12,72,30,62,504,313.0,508,465,60,129.0,151,1,227,271,48,0,0,354,28160,-31222,313,-5.59,44.680088,10.017348,33.78,177.1,0,0.0,-1,0.0,0.0,0,0.25,0.3907
23464,1564322849176,-0,0.63,1.36,0.81,2.36,1.93,1.13,-0.76,0.4,26,-4,33,1.37,4515,12,72,30,62,504,313.0,511,461,60,130.0,146,1,225,271,46,0,0,348,-1527,3346,313,-5.59,,,,,,,,,,,,
23484,1564322849194,-0,0.62,1.37,0.81,2.37,1.93,1.15,-0.79,0.38,28,-6,36,1.4,4519,12,72,30,62,504,312.0,507,464,60,128.0,146,1,226,193,46,0,0,340,-1,-12032,310,-5.59,,,,,,,,,,,,
23504,1564322849214,-1,0.63,1.37,0.81,2.36,1.93,1.13,-0.8,0.35,29,-8,38,1.39,4463,12,72,30,62,504,309.0,482,455,60,130.0,146,1,220,271,46,0,0,337,-1,170,309,-5.59,,,,,,,,,,,,
23524,1564322849234,-1,0.6,1.36,0.81,2.36,1.92,1.18,-0.86,0.25,31,-11,38,1.46,4473,12,72,30,62,504,307.0,386,458,60,129.0,146,1,221,271,46,0,0,327,-1,170,307,-5.59,,,,,,,,,,,,
23544,1564322849254,-0,0.6,1.36,0.81,2.37,1.92,1.2,-0.87,0.16,31,-11,39,1.48,4516,12,72,30,62,503,307.0,343,458,60,129.0,146,1,226,277,46,0,0,324,-1,160,307,-5.59,44.680092,10.017358,32.24,177.1,0,0.0,-1,0.0,0.0,0,0.25,0.3924
23564,1564322849274,-1,0.57,1.36,0.81,2.37,1.92,1.18,-0.83,0.13,32,-11,43,1.45,4482,12,72,30,62,503,309.0,315,457,60,130.0,149,1,222,271,46,0,0,317,-1,165,309,-5.59,,,,,,,,,,,,
23584,1564322849296,-2,0.5,1.35,0.81,2.36,1.92,1.14,-0.86,0.17,33,-11,43,1.43,4491,12,72,30,62,503,308.0,297,461,60,129.0,149,1,223,271,46,0,0,306,-1,-25856,308,-5.59,,,,,,,,,,,,
23604,1564322849316,-0,0.38,1.35,0.81,2.36,1.92,1.13,-0.88,0.19,34,-11,46,1.43,4472,12,72,30,62,503,311.0,278,463,60,129.0,149,1,221,271,46,0,0,296,-1,-24576,311,-5.59,,,,,,,,,,,,
23624,1564322849336,-1,2.88,1.39,0.82,2.38,1.94,1.09,-0.92,0.22,35,-10,48,1.43,4308,12,72,30,62,504,317.0,260,468,60,128.0,149,1,205,191,46,0,0,318,-1,-24576,317,-5.59,,,,,,,,,,,,
23644,1564322849356,4,2.7,1.4,0.82,2.39,1.94,1.08,-0.97,0.27,36,-8,48,1.45,4242,12,72,30,62,504,324.0,246,468,60,131.0,149,1,199,191,46,0,0,339,30208,150,324,-5.59,44.680096,10.017367,31.21,177.1,0,0.0,-1,0.0,0.0,0,0.25,0.3941
23664,1564322849376,3,2.53,1.39,0.82,2.39,1.94,1.07,-0.91,0.34,35,-4,49,1.41,4267,12,72,30,63,504,328.0,239,467,60,131.0,132,1,203,275,43,0,0,323,250,145,328,-5.59,,,,,,,,,,,,
23684,1564322849396,-1,2.39,1.4,0.82,2.39,1.94,1.1,-0.84,0.39,33,-3,50,1.38,4248,12,72,30,63,504,321.0,248,458,60,131.0,132,1,202,269,43,0,0,299,-1527,-27136,321,-5.59,,,,,,,,,,,,
23704,1564322849416,-1,2.29,1.39,0.82,2.39,1.94,1.08,-0.77,0.39,29,-3,49,1.33,4271,12,72,30,62,504,316.0,248,461,60,131.0,132,1,202,269,43,0,0,277,250,-30976,316,-5.59,,,,,,,,,,,,
23724,1564322849436,-2,2.23,1.39,0.82,2.37,1.95,1.05,-0.67,0.42,25,-4,48,1.25,4081,12,72,30,62,504,307.0,243,459,60,128.0,132,1,184,273,43,0,0,293,41,115,306,-5.59,,,,,,,,,,,,
23744,1564322849456,3,2.2,1.39,0.8,2.36,1.93,1.0,-0.54,0.4,21,-3,43,1.14,4027,12,72,30,63,504,301.0,245,468,60,133.0,132,1,181,273,43,0,0,295,85,28160,301,-5.59,44.680096,10.017377,29.93,177.1,0,0.0,-1,0.0,0.0,0,0.25,0.3957
23764,1564322849476,-2,2.19,1.38,0.79,2.33,1.92,1.01,-0.42,0.38,18,-1,38,1.09,3985,12,72,30,63,504,301.0,254,461,60,131.0,138,1,178,272,41,0,0,300,26880,90,295,-5.59,,,,,,,,,,,,
23784,1564322849492,-1,2.18,1.37,0.78,2.3,1.9,1.02,-0.3,0.43,15,-3,34,1.06,3877,12,72,30,63,504,303.0,254,460,60,130.0,138,1,173,267,41,0,0,300,28160,0,293,-5.59,,,,,,,,,,,,
23804,1564322849512,0,2.16,1.36,0.78,2.28,1.89,0.98,-0.19,0.39,13,-1,28,1.0,3935,12,72,30,63,504,304.0,242,470,60,132.0,138,1,175,270,41,0,0,301,110,20480,290,-5.59,,,,,,,,,,,,
23824,1564322849532,-2,2.16,1.36,0.77,2.29,1.89,0.98,-0.15,0.39,11,-0,24,0.99,4007,12,72,30,63,504,302.0,241,449,60,130.0,138,1,179,195,41,0,0,302,105,0,288,-5.59,,,,,,,,,,,,
23844,1564322849552,3,2.13,1.37,0.77,2.28,1.89,0.98,-0.09,0.45,9,-2,20,0.99,3938,12,72,30,63,505,303.0,239,458,60,130.0,138,1,175,270,41,0,0,301,28160,41,287,-5.59,44.6801,10.017387,29.65,177.1,0,0.0,-1,0.0,0.0,0,0.25,0.3974
23864,1564322849572,-1,2.12,1.38,0.77,2.28,1.9,0.91,-0.04,0.37,7,-0,16,0.92,3977,12,72,30,63,504,304.0,241,465,60,131.0,139,1,177,271,40,0,0,303,28160,250,285,-5.59,,,,,,,,,,,,
23884,1564322849592,-2,2.12,1.38,0.77,2.28,1.9,0.89,0.01,0.37,5,1,13,0.89,4035,12,72,30,63,504,306.0,252,452,60,130.0,139,1,182,195,40,0,0,303,115,250,285,-5.59,,,,,,,,,,,,
23904,1564322849610,1,2.12,1.38,0.77,2.28,1.91,0.89,0.09,0.41,3,-2,9,0.9,3927,12,72,30,63,504,305.0,265,460,60,130.0,139,1,175,269,40,0,0,304,29440,1886,285,-5.59,,,,,,,,,,,,
23924,1564322849630,0,2.12,1.37,0.76,2.3,1.9,0.89,0.12,0.37,1,1,6,0.9,3959,12,72,30,63,504,307.0,273,468,60,132.0,139,1,176,270,40,0,0,304,120,-1529,286,-5.59,,,,,,,,,,,,
23944,1564322849650,-0,2.12,1.38,0.76,2.28,1.89,0.88,0.12,0.41,-1,1,3,0.89,4057,12,72,30,63,504,307.0,290,452,60,131.0,139,1,184,273,40,0,0,305,30720,-16896,284,-5.59,44.680103,10.017397,28.96,177.2,0,0.0,-1,0.0,0.0,0,0.25,0.3991
23964,1564322849670,1,2.15,1.38,0.76,2.29,1.89,0.88,0.14,0.47,-2,0,1,0.89,4005,12,73,30,63,504,307.0,305,463,60,130.0,147,1,177,278,42,0,0,303,30720,-16896,285,-5.59,,,,,,,,,,,,
23984,1564322849690,-0,2.17,1.38,0.76,2.29,1.88,0.84,0.16,0.48,-3,2,-3,0.86,3959,12,72,30,64,503,307.0,316,469,60,132.0,147,1,179,275,42,0,0,304,30720,250,284,-5.59,,,,,,,,,,,,
24004,1564322849710,-2,2.24,1.38,0.75,2.29,1.89,0.89,0.14,0.48,-3,1,-3,0.9,4010,19,72,30,64,504,305.0,330,453,60,131.0,147,1,181,278,42,0,0,303,29440,10686,286,-5.59,,,,,,,,,,,,
24024,1564322849730,3,2.29,1.38,0.76,2.3,1.88,0.88,0.13,0.52,-3,-1,-6,0.89,3963,20,73,30,65,504,301.0,343,461,60,131.0,147,1,180,279,42,0,0,301,26880,41,287,-5.59,,,,,,,,,,,,
24044,1564322849750,-0,2.34,1.38,0.76,2.31,1.89,0.84,0.09,0.47,-2,3,-7,0.84,3939,20,72,30,66,504,300.0,346,465,60,132.0,147,1,183,206,42,0,0,298,25600,0,289,-5.59,44.680107,10.017407,28.81,177.2,0,0.0,-1,0.0,0.0,0,0.25,0.4007
24064,1564322849770,-1,2.36,1.38,0.76,2.31,1.9,0.84,0.02,0.5,-1,2,-6,0.84,4015,27,72,30,68,504,296.0,354,452,60,129.0,148,1,191,220,43,0,0,295,90,20480,290,-5.59,,,,,,,,,,,,
24084,1564322849792,3,2.38,1.39,0.77,2.33,1.91,0.86,-0.01,0.52,1,1,-7,0.86,4002,34,73,30,71,504,295.0,343,467,60,131.0,148,1,191,304,43,0,0,291,21760,23040,295,-5.59,,,,,,,,,,,,
24104,1564322849812,-2,2.4,1.39,0.78,2.33,1.92,0.82,-0.04,0.49,2,4,-5,0.82,3981,41,72,30,76,504,297.0,347,463,60,130.0,148,1,193,238,43,0,0,288,0,23040,297,-5.59,,,,,,,,,,,,
24124,1564322849832,-1,2.4,1.39,0.79,2.34,1.93,0.83,-0.08,0.49,3,2,-2,0.83,4037,51,72,30,80,505,300.0,356,457,60,130.0,148,1,198,364,43,0,0,285,41,25600,300,-5.59,,,,,,,,,,,,
24144,1564322849852,4,2.38,1.4,0.79,2.35,1.94,0.83,-0.1,0.5,3,3,-2,0.84,4008,57,73,30,85,505,300.0,356,462,60,131.0,148,1,198,404,43,0,0,284,0,23040,299,-5.59,44.680107,10.017416,28.53,177.3,0,0.0,-1,0.0,0.0,0,0.25,0.4024
24164,1564322849872,-0,2.37,1.4,0.79,2.36,1.94,0.82,-0.1,0.5,3,4,-0,0.83,3894,63,73,30,88,505,298.0,350,472,60,132.0,200,1,196,401,60,0,0,284,41,25600,298,-5.59,,,,,,,,,,,,
24184,1564322849896,4,2.36,1.4,0.79,2.36,1.93,0.84,-0.14,0.5,3,2,0,0.85,3769,68,72,30,91,505,298.0,354,454,60,130.0,200,1,201,430,60,0,0,285,41,24320,298,-5.59,,,,,,,,,,,,
24204,1564322849916,-2,2.35,1.39,0.79,2.36,1.93,0.83,-0.14,0.48,4,4,2,0.84,3680,70,73,30,93,505,296.0,358,472,60,132.0,200,1,213,486,60,0,0,285,0,95,296,-5.59,,,,,,,,,,,,
24224,1564322849936,1,2.32,1.39,0.79,2.36,1.94,0.85,-0.13,0.54,3,3,3,0.86,3590,70,73,30,94,504,296.0,356,453,60,131.0,200,1,216,442,60,0,0,286,-16896,21760,296,-5.59,,,,,,,,,,,,
24244,1564322849956,-1,2.3,1.4,0.78,2.35,1.93,0.86,-0.13,0.55,3,1,4,0.87,3442,70,72,30,94,504,294.0,354,458,60,130.0,200,1,210,505,60,0,0,285,41,85,294,-5.59,44.680111,10.017426,28.89,177.3,0,0.0,-1,0.0,0.0,0,0.25,0.4041
24264,1564322849976,-1,2.26,1.39,0.78,2.35,1.93,0.86,-0.1,0.5,2,3,5,0.87,3354,70,73,30,94,504,291.0,353,472,60,131.0,219,1,210,498,64,0,0,284,0,0,291,-5.59,,,,,,,,,,,,
24284,1564322849996,-1,2.23,1.39,0.78,2.35,1.92,0.9,-0.05,0.45,1,4,5,0.9,3287,70,73,30,95,504,289.0,347,459,60,131.0,219,1,217,492,64,0,0,285,0,24064,289,-5.59,,,,,,,,,,,,
24304,1564322850008,2,2.21,1.39,0.77,2.33,1.91,0.92,-0.01,0.51,0,2,4,0.92,3375,70,73,30,94,504,288.0,349,453,60,131.0,219,1,210,500,64,0,0,278,10686,28160,282,-5.59,,,,,,,,,,,,
24324,1564322850028,0,2.2,1.38,0.77,2.33,1.9,0.96,0.0,0.48,-1,1,4,0.96,3589,70,73,30,94,504,285.0,352,457,60,129.0,219,1,216,517,64,0,0,279,-16896,28160,279,-5.59,,,,,,,,,,,,
24344,1564322850048,-2,2.19,1.38,0.75,2.31,1.9,0.92,0.07,0.42,-1,1,3,0.92,3708,70,73,30,94,504,284.0,353,462,60,132.0,219,1,224,526,64,0,0,276,250,-1,277,-5.59,44.680111,10.017435,28.59,177.3,0,0.0,-1,0.0,0.0,0,0.25,0.4057
