"Interval"|"ms"|0|0|1,"Utc"|"ms"|0|0|1,"FB_p"|"bar"|0|300|50,"Volant"|"F"|0.0|300.0|50,"xFR"|"mm"|0.0|5.0|50,"xRR"|"mm"|0.0|5.0|50,"xFL"|"mm"|0.0|5.0|50,"xRL"|"mm"|0.0|5.0|50,"AccelX"|"G"|-3.0|3.0|50,"AccelY"|"G"|-3.0|3.0|50,"AccelZ"|"G"|-3.0|3.0|50,"Yaw"|"Deg/Sec"|-120|120|50,"Pitch"|"Deg/Sec"|-120|120|50,"Roll"|"Deg/Sec"|-120|120|50,"Gsum"|"G"|0.0|3.0|50,"RPM"|""|0|14000|50,"TPS"|"%"|0|100|50,"WaterTemp"|"?C"|0|300|50,"AirTemp"|"?C"|-1000|1000|50,"MAP"|"KPa"|0|255|50,"Lambda"|""|0|1024|50,"WheelSpeed"|"MPH"|0.0|150.0|50,"OilPress"|"PSI"|0|150|50,"FuelPress"|"PSI"|0|150|50,"OilTemp"|"F"|0|300|50,"Battery"|"Volts"|0.0|20.0|50,"FuelCon"|"L/h"|-1000|1000|50,"Gear"|""|0|10|50,"Advance"|"Deg"|-360|360|50,"Injection"|"ms"|-1000|1000|50,"FuelCon"|"L/100km"|-1000|1000|50,"LC_But_Pres"|""|-1000|1000|50,"LC_Active"|""|-1000|1000|50,"RD_Speed"|""|-1000|1000|50,"RUD_Speed"|""|-1000|1000|50,"LD_Speed"|""|-1000|1000|50,"LUD_Speed"|""|-1000|1000|50,"Ana1"|"bar"|-1000.0|1000.0|50,"Latitude"|"Degrees"|-180.0|180.0|10,"Longitude"|"Degrees"|-180.0|180.0|10,"Speed"|"kph"|0.0|150.0|10,"Altitude"|"m"|0.0|4000.0|10,"LapCount"|""|0|0|10,"LapTime"|"Min"|0.0|0.0|10,"Sector"|""|0|0|10,"SectorTime"|"Min"|0.0|0.0|10,"ElapsedTime"|"Min"|0.0|0.0|10,"CurrentLap"|""|0|0|10,"Distance"|"km"|0.0|0.0|10,"SessionTime"|"Min"|0.0|0.0|10
16164,1564322901594,20,2.31,1.45,0.78,2.36,2.03,0.65,-0.1,0.54,0,-4,-0,0.66,9873,0,78,31,35,916,940.0,660,463,60,129.0,89,1,308,210,85,0,0,920,-774,-1284,940,-5.59,,,,,,,,,,,,
16184,1564322901614,16,2.29,1.45,0.79,2.36,2.03,0.65,-0.09,0.54,1,-4,-0,0.66,9725,0,78,31,34,906,945.0,655,469,60,128.0,89,1,305,206,85,0,0,905,-772,-1044,945,181.28,,,,,,,,,,,,
16204,1564322901634,20,2.29,1.45,0.78,2.37,2.03,0.76,-0.17,0.66,0,-5,0,0.78,9755,0,78,31,32,887,937.0,653,464,60,128.0,89,1,300,203,85,0,0,850,-1284,-14712,937,-5.59,,,,,,,,,,,,
16224,1564322901654,16,2.3,1.46,0.79,2.37,2.03,0.81,-0.19,0.56,-0,-5,1,0.83,9689,0,78,31,32,864,938.0,643,470,60,130.0,89,1,300,200,85,0,0,788,-1284,-775,937,648.46,,,,,,,,,,,,
16244,1564322901674,15,2.29,1.45,0.79,2.36,2.04,0.87,-0.26,0.53,0,-3,-0,0.91,9527,0,78,31,30,850,935.0,652,464,60,129.0,76,1,291,195,72,0,0,790,-1284,-908,937,648.46,44.680996,10.016863,94.34,177.2,0,0.0,-1,0.0,0.0,0,0.16,0.2707
16264,1564322901694,14,2.3,1.45,0.79,2.37,2.04,0.96,-0.21,0.43,1,-5,-1,0.99,9417,0,78,31,29,838,931.0,648,464,60,129.0,76,1,287,192,72,0,0,833,-772,-4873,929,-5.59,,,,,,,,,,,,
16284,1564322901714,11,2.3,1.46,0.79,2.37,2.04,1.0,-0.24,0.41,1,-3,-1,1.03,9469,0,78,31,29,838,923.0,655,464,60,129.0,76,1,287,192,72,0,0,873,-1556,-2068,923,-5.59,,,,,,,,,,,,
16304,1564322901734,10,2.3,1.45,0.79,2.36,2.04,1.01,-0.28,0.39,1,-4,0,1.05,9508,0,78,31,28,844,921.0,655,461,60,130.0,76,1,282,192,72,0,0,891,-1812,-3348,921,-5.59,,,,,,,,,,,,
16324,1564322901754,11,2.31,1.45,0.79,2.37,2.03,1.07,-0.18,0.32,1,-4,-0,1.08,9571,0,78,31,27,854,913.0,655,460,60,130.0,76,1,278,191,72,0,0,896,-2324,-30778,913,-5.59,,,,,,,,,,,,
16344,1564322901774,8,2.31,1.45,0.79,2.37,2.03,1.05,-0.28,0.26,0,-2,-1,1.09,9580,0,78,31,27,872,912.0,655,462,60,129.0,74,1,278,191,68,0,0,879,-4876,4231,909,414.87,44.680973,10.016858,94.29,177.2,0,0.0,-1,0.0,0.0,0,0.16,0.2724
16364,1564322901795,9,2.33,1.45,0.79,2.37,2.03,1.05,-0.25,0.12,1,-2,1,1.08,9610,0,78,31,26,873,906.0,654,465,60,130.0,74,1,274,189,68,0,0,882,-3604,-5120,906,414.87,,,,,,,,,,,,
16384,1564322901815,7,2.32,1.46,0.79,2.37,2.03,1.03,-0.19,0.08,1,-2,2,1.05,9694,0,78,31,26,865,906.0,655,465,60,128.0,74,1,274,189,68,0,0,871,-5114,-22795,906,648.46,,,,,,,,,,,,
16404,1564322901835,6,2.32,1.46,0.79,2.36,2.04,1.08,-0.21,0.09,2,-2,3,1.1,9735,0,78,31,25,848,897.0,655,460,60,129.0,74,1,270,190,68,0,0,865,4231,-10508,897,181.28,,,,,,,,,,,,
16424,1564322901855,6,2.33,1.45,0.78,2.36,2.03,1.06,-0.15,0.1,2,-1,3,1.07,9735,0,78,31,25,823,895.0,657,466,60,129.0,74,1,270,188,68,0,0,847,966,-1580,895,181.28,,,,,,,,,,,,
16444,1564322901875,8,2.32,1.45,0.79,2.36,2.04,1.09,-0.26,0.13,3,0,3,1.12,9694,0,78,31,25,796,894.0,656,462,60,128.0,76,1,270,188,69,0,0,843,1020,-775,894,-5.59,44.680946,10.016852,91.56,177.2,0,0.0,-1,0.0,0.0,0,0.17,0.2741
16464,1564322901897,6,2.31,1.46,0.79,2.36,2.03,1.09,-0.21,0.1,3,0,4,1.11,9645,0,78,31,25,767,889.0,655,468,60,129.0,76,1,270,188,69,0,0,837,1020,-2826,888,-5.59,,,,,,,,,,,,
16484,1564322901917,7,2.32,1.45,0.79,2.36,2.04,1.06,-0.28,0.14,3,1,3,1.1,9625,0,78,31,25,749,884.0,656,461,60,128.0,76,1,270,188,69,0,0,847,-2311,-2311,886,-5.59,,,,,,,,,,,,
16504,1564322901937,10,2.32,1.46,0.78,2.37,2.03,1.09,-0.23,0.06,3,-0,3,1.11,9635,0,78,31,25,746,882.0,654,461,60,128.0,76,1,270,188,69,0,0,842,-10508,-2570,880,-5.59,,,,,,,,,,,,
16524,1564322901957,10,2.31,1.45,0.79,2.36,2.03,1.08,-0.27,0.15,3,-1,4,1.11,9610,0,78,31,25,745,879.0,662,466,60,128.0,76,1,270,188,69,0,0,830,-2574,-3450,879,181.28,,,,,,,,,,,,
16544,1564322901977,12,2.32,1.46,0.79,2.37,2.03,1.1,-0.3,0.12,3,-1,3,1.14,9576,0,78,31,24,747,868.0,658,463,60,129.0,77,1,270,182,68,0,0,826,-31068,-3038,868,181.28,44.680923,10.016847,89.56,177.2,0,0.0,-1,0.0,0.0,0,0.17,0.2757
16564,1564322901997,11,2.32,1.46,0.79,2.36,2.04,1.09,-0.26,0.01,3,-2,3,1.12,9493,0,78,31,24,749,871.0,655,467,60,129.0,77,1,270,181,68,0,0,811,-1580,8838,867,648.46,,,,,,,,,,,,
16584,1564322902009,6,2.32,1.46,0.79,2.37,2.03,1.04,-0.23,-0.0,3,-0,4,1.06,9403,0,78,31,24,754,863.0,651,468,60,129.0,77,1,270,181,68,0,0,826,-11019,-10508,863,648.46,,,,,,,,,,,,
16604,1564322902029,10,2.32,1.46,0.78,2.37,2.03,1.06,-0.3,0.0,3,0,3,1.1,9360,0,78,31,24,759,858.0,649,463,60,129.0,77,1,270,181,68,0,0,822,-9995,8838,858,181.28,,,,,,,,,,,,
16624,1564322902049,11,2.32,1.45,0.78,2.36,2.04,1.12,-0.24,-0.04,3,-1,4,1.14,9370,0,78,31,23,767,855.0,648,466,60,130.0,77,1,270,176,68,0,0,823,13049,-3344,855,-5.59,,,,,,,,,,,,
16644,1564322902069,13,2.31,1.46,0.79,2.36,2.04,1.18,-0.17,-0.09,3,-1,4,1.19,9379,0,78,31,23,774,848.0,646,465,60,129.0,72,1,270,176,62,0,0,818,-31066,-2826,848,414.87,44.680904,10.016841,87.34,177.2,0,0.0,-1,0.0,0.0,0,0.17,0.2774
16664,1564322902089,11,2.31,1.46,0.79,2.37,2.03,1.14,-0.19,0.02,3,-0,5,1.16,9337,0,78,31,23,777,845.0,648,463,60,128.0,72,1,270,176,62,0,0,816,-2574,-2830,846,648.46,,,,,,,,,,,,
16684,1564322902109,12,2.31,1.46,0.78,2.38,2.03,1.19,-0.18,0.08,3,1,5,1.2,9286,0,78,31,23,782,839.0,647,466,60,129.0,72,1,270,176,62,0,0,817,-2830,-2314,838,-5.59,,,,,,,,,,,,
16704,1564322902129,11,2.31,1.46,0.78,2.37,2.03,1.27,-0.13,0.02,2,-1,5,1.28,9200,0,78,31,23,793,839.0,651,463,60,128.0,72,1,270,176,62,0,0,811,-2314,-25858,837,-5.59,,,,,,,,,,,,
16724,1564322902149,11,2.32,1.45,0.78,2.36,2.04,1.32,-0.11,-0.04,2,-2,4,1.32,9119,0,78,31,22,803,833.0,649,463,60,128.0,72,1,270,170,62,0,0,811,-22796,1524,833,-5.59,,,,,,,,,,,,
16744,1564322902169,13,2.3,1.45,0.78,2.37,2.03,1.33,-0.08,-0.06,2,-4,4,1.33,9088,0,78,31,22,810,830.0,650,466,60,129.0,69,1,270,170,58,0,0,801,1037,-2918,825,-5.59,44.680885,10.016835,85.55,177.2,0,0.0,-1,0.0,0.0,0,0.17,0.2791
16764,1564322902197,12,2.31,1.45,0.79,2.37,2.03,1.26,-0.02,-0.08,2,-3,3,1.26,9079,0,78,31,22,819,822.0,646,460,60,129.0,69,1,270,170,58,0,0,801,-13580,-30694,824,-5.59,,,,,,,,,,,,
16784,1564322902217,13,2.32,1.46,0.77,2.36,2.03,1.2,-0.01,-0.05,3,-4,3,1.2,9062,0,78,31,22,836,823.0,646,465,60,129.0,69,1,270,170,58,0,0,795,1524,-12152,823,-5.59,,,,,,,,,,,,
16804,1564322902237,14,2.31,1.46,0.78,2.37,2.03,1.06,0.05,-0.01,3,-3,4,1.06,9031,0,78,31,22,853,815.0,645,464,60,130.0,69,1,270,170,58,0,0,793,31988,-7436,815,-5.59,,,,,,,,,,,,
16824,1564322902257,13,2.32,1.46,0.78,2.37,2.03,0.97,0.03,0.09,4,-4,3,0.97,8962,0,78,31,22,863,808.0,645,463,60,129.0,69,1,270,170,58,0,0,779,-23490,-12152,807,-5.59,,,,,,,,,,,,
16844,1564322902277,13,2.32,1.45,0.79,2.36,2.04,0.87,0.07,0.15,4,-4,3,0.87,8852,0,78,31,22,873,807.0,641,462,60,129.0,70,1,270,91,57,0,0,781,204,-1566,806,-5.59,44.680866,10.016829,83.48,177.2,0,0.0,-1,0.0,0.0,0,0.18,0.2807
16864,1564322902299,11,2.31,1.45,0.79,2.37,2.04,0.93,0.07,0.17,4,-5,3,0.93,8757,0,78,31,22,896,807.0,642,465,60,129.0,70,1,270,170,57,0,0,768,6905,-2540,807,-5.59,,,,,,,,,,,,
16884,1564322902319,13,2.32,1.46,0.78,2.37,2.03,1.04,0.08,0.06,4,-4,3,1.04,8692,0,78,31,23,919,798.0,642,463,60,128.0,70,1,270,176,57,0,0,754,-2540,-10218,798,-5.59,,,,,,,,,,,,
16904,1564322902339,11,2.33,1.46,0.78,2.36,2.03,1.08,0.05,-0.03,4,-3,5,1.08,8648,0,78,31,23,932,793.0,641,462,60,128.0,70,1,270,176,57,0,0,757,-10216,-31068,792,-5.59,,,,,,,,,,,,
16924,1564322902359,15,2.31,1.45,0.78,2.37,2.03,1.01,-0.02,-0.05,4,-3,4,1.01,8648,0,78,31,23,945,792.0,642,462,60,130.0,70,1,270,97,57,0,0,760,-2826,-10212,792,-5.59,,,,,,,,,,,,
16944,1564322902379,14,2.32,1.46,0.78,2.37,2.03,1.01,-0.02,0.1,4,-5,4,1.01,8628,0,78,31,24,971,784.0,642,465,60,129.0,74,1,270,181,59,0,0,740,-2574,-10212,786,-5.59,44.680843,10.016823,81.27,177.3,0,0.0,-1,0.0,0.0,0,0.18,0.2824
16964,1564322902397,14,2.32,1.46,0.79,2.36,2.04,1.11,-0.06,0.11,4,-4,4,1.11,8557,0,78,31,24,997,780.0,643,466,60,129.0,74,1,270,181,59,0,0,710,-23308,6900,779,-5.59,,,,,,,,,,,,
16984,1564322902417,17,2.32,1.46,0.79,2.36,2.04,1.05,-0.12,0.01,4,-3,4,1.06,8381,0,78,32,24,1014,774.0,641,462,60,128.0,74,1,270,175,59,0,0,711,-2570,-2826,775,-5.59,,,,,,,,,,,,
17004,1564322902437,13,2.32,1.45,0.78,2.37,2.03,1.14,-0.12,0.08,4,-4,5,1.15,8166,0,78,32,24,1028,772.0,635,461,60,130.0,74,1,270,168,59,0,0,749,6900,-23308,772,-5.59,,,,,,,,,,,,
17024,1564322902457,14,2.31,1.46,0.78,2.37,2.04,1.08,-0.21,-0.09,4,-5,4,1.1,8016,0,78,32,24,1049,766.0,632,460,60,128.0,74,1,270,156,59,0,0,738,-10218,5876,766,181.28,,,,,,,,,,,,
17044,1564322902477,18,2.32,1.46,0.79,2.36,2.04,0.98,-0.28,-0.12,4,-8,8,1.02,7941,0,78,32,24,1071,756.0,630,461,60,128.0,60,1,269,159,46,0,0,697,-31068,-23308,756,-5.59,44.680824,10.016817,79.06,177.3,0,0.0,-1,0.0,0.0,0,0.18,0.2841
17064,1564322902495,14,2.31,1.45,0.79,2.36,2.04,1.01,-0.26,-0.07,4,-6,7,1.04,8012,0,78,32,25,1084,753.0,626,465,60,131.0,60,1,270,159,46,0,0,675,-30694,-23490,753,-5.59,,,,,,,,,,,,
17084,1564322902515,16,2.3,1.45,0.78,2.36,2.03,0.96,-0.32,-0.07,4,-5,6,1.01,8130,0,78,32,25,1092,749.0,633,466,60,129.0,60,1,270,163,46,0,0,658,-2826,-2918,749,414.87,,,,,,,,,,,,
17104,1564322902535,16,2.31,1.45,0.78,2.36,2.04,1.06,-0.34,0.03,3,-5,7,1.12,8148,0,78,32,25,1100,744.0,634,466,60,130.0,60,1,270,167,46,0,0,608,-2356,3543,742,-5.59,,,,,,,,,,,,
17124,1564322902555,16,2.31,1.46,0.78,2.37,2.04,1.04,-0.33,0.05,3,-7,6,1.09,8162,0,78,32,25,1107,737.0,633,461,60,131.0,60,1,270,164,46,0,0,557,-22796,-26562,737,414.87,,,,,,,,,,,,
17144,1564322902575,17,2.3,1.45,0.78,2.36,2.04,1.08,-0.29,-0.0,3,-5,6,1.12,8184,0,78,32,25,1109,733.0,637,466,60,130.0,71,1,270,170,53,0,0,525,-22796,-10346,731,-5.59,44.680805,10.01681,76.94,177.3,0,0.0,-1,0.0,0.0,0,0.18,0.2857
17164,1564322902595,17,2.28,1.46,0.78,2.36,2.04,1.07,-0.24,0.06,3,-5,6,1.1,8187,0,78,32,24,1108,726.0,637,463,60,131.0,71,1,270,166,53,0,0,515,-4091,-10344,726,414.87,,,,,,,,,,,,
17184,1564322902615,17,2.28,1.45,0.78,2.37,2.03,1.11,-0.22,-0.0,3,-3,5,1.13,8177,0,78,32,25,1106,718.0,635,463,60,129.0,71,1,270,169,53,0,0,528,-31068,12333,718,-5.59,,,,,,,,,,,,
17204,1564322902635,17,2.28,1.45,0.78,2.36,2.03,1.19,-0.17,0.08,2,-4,4,1.2,8187,0,78,32,24,1104,715.0,637,463,60,131.0,71,1,270,166,53,0,0,536,-2560,-2826,709,181.28,,,,,,,,,,,,
17224,1564322902655,20,2.28,1.45,0.78,2.36,2.04,1.15,-0.18,0.04,1,-3,2,1.16,8238,0,78,32,24,1102,711.0,637,466,60,130.0,71,1,270,168,53,0,0,536,-13072,3543,701,648.46,,,,,,,,,,,,
17244,1564322902675,18,2.29,1.45,0.77,2.36,2.03,1.24,-0.12,0.03,0,-4,1,1.24,8223,0,78,32,24,1100,705.0,636,464,60,131.0,74,1,270,167,52,0,0,560,19188,11776,696,414.87,44.680786,10.016804,74.67,177.3,0,0.0,-1,0.0,0.0,0,0.18,0.2874
17264,1564322902695,20,2.31,1.45,0.78,2.37,2.03,1.19,-0.1,-0.03,0,-3,2,1.2,8155,0,78,32,24,1101,700.0,637,466,60,130.0,74,1,270,164,52,0,0,586,6208,11566,690,882.05,,,,,,,,,,,,
17284,1564322902715,15,2.32,1.45,0.78,2.35,2.04,1.28,-0.06,0.03,-1,-3,-0,1.28,8166,0,78,32,24,1103,693.0,636,464,60,130.0,74,1,270,164,52,0,0,589,11576,-10251,686,-5.59,,,,,,,,,,,,
17304,1564322902735,19,2.33,1.45,0.78,2.35,2.04,1.22,-0.09,-0.08,-1,-3,0,1.22,8202,0,78,32,24,1106,688.0,635,464,60,130.0,74,1,270,167,52,0,0,596,-10399,26688,677,648.46,,,,,,,,,,,,
17324,1564322902755,14,2.34,1.46,0.77,2.36,2.03,1.29,-0.09,0.02,-1,-2,-0,1.3,8267,0,78,32,24,1109,677.0,637,465,60,131.0,74,1,270,170,52,0,0,606,-26892,-3820,671,414.87,,,,,,,,,,,,
17344,1564322902775,16,2.33,1.45,0.78,2.36,2.03,1.23,-0.09,-0.08,0,-2,-1,1.23,8259,0,78,32,24,1113,672.0,635,462,60,130.0,77,1,270,169,52,0,0,611,-388,208,670,414.87,44.680767,10.016798,71.83,177.3,0,0.0,-1,0.0,0.0,0,0.19,0.2891
17364,1564322902795,13,2.33,1.45,0.78,2.35,2.03,1.3,-0.06,-0.04,0,-2,1,1.3,8230,0,78,32,24,1119,666.0,637,466,60,129.0,77,1,270,167,52,0,0,605,-27404,-16883,665,414.87,,,,,,,,,,,,
17384,1564322902815,16,2.32,1.46,0.78,2.35,2.04,1.18,-0.08,-0.09,1,-2,-0,1.19,8259,0,78,32,24,1123,661.0,636,463,60,130.0,77,1,270,169,52,0,0,598,-388,-1346,659,882.05,,,,,,,,,,,,
17404,1564322902835,13,2.31,1.45,0.78,2.35,2.03,1.27,-0.05,-0.04,1,-1,1,1.27,8292,0,78,32,24,1125,655.0,636,464,60,130.0,77,1,270,171,52,0,0,597,-3488,5344,655,414.87,,,,,,,,,,,,
17424,1564322902855,17,2.31,1.45,0.78,2.35,2.03,1.18,-0.05,-0.09,2,-0,2,1.18,8267,0,78,32,24,1127,652.0,642,465,60,130.0,77,1,270,168,52,0,0,597,244,19621,652,882.05,,,,,,,,,,,,
17444,1564322902875,14,2.28,1.46,0.78,2.34,2.04,1.26,-0.01,-0.06,1,-0,2,1.26,8187,0,78,32,24,1129,646.0,636,464,60,130.0,80,1,270,166,52,0,0,616,6208,28675,646,414.87,44.680752,10.016791,68.63,177.3,0,0.0,-1,0.0,0.0,0,0.19,0.2907
17464,1564322902898,16,2.28,1.45,0.78,2.35,2.04,1.22,-0.02,-0.12,2,-1,3,1.22,8202,0,78,32,24,1130,636.0,638,465,60,130.0,80,1,270,167,52,0,0,601,-2836,-30139,636,648.46,,,,,,,,,,,,
17484,1564322902918,15,2.27,1.45,0.78,2.35,2.03,1.29,-0.0,-0.01,1,-1,3,1.29,8256,0,78,32,23,1130,631.0,641,466,60,130.0,80,1,270,169,52,0,0,607,966,1010,627,181.28,,,,,,,,,,,,
17504,1564322902938,17,2.27,1.46,0.78,2.35,2.03,1.2,0.0,-0.05,1,-2,2,1.2,8238,0,78,32,24,1129,623.0,636,465,60,130.0,80,1,270,168,52,0,0,608,19320,243,622,648.46,,,,,,,,,,,,
17524,1564322902958,13,2.28,1.45,0.78,2.35,2.03,1.25,0.03,-0.05,1,-2,3,1.25,8209,0,78,32,24,1128,617.0,638,466,60,129.0,80,1,270,167,52,0,0,592,26688,-32504,617,882.05,,,,,,,,,,,,
17544,1564322902978,14,2.27,1.46,0.78,2.35,2.03,1.15,0.05,-0.07,1,-2,1,1.15,8138,0,78,33,24,1126,615.0,638,466,60,130.0,83,1,270,163,51,0,0,592,26688,-25872,614,414.87,44.680737,10.016786,65.77,177.3,0,0.0,-1,0.0,0.0,0,0.19,0.2924
17564,1564322902992,15,2.28,1.45,0.79,2.35,2.04,1.11,0.01,-0.1,1,0,1,1.11,7978,0,78,33,24,1125,612.0,631,465,60,130.0,83,1,269,156,51,0,0,590,1010,6273,610,-5.59,,,,,,,,,,,,
17584,1564322903012,13,2.26,1.45,0.78,2.36,2.03,1.2,0.08,-0.05,1,-1,1,1.2,7868,0,78,33,23,1124,607.0,632,465,60,130.0,83,1,268,156,51,0,0,590,19621,-32504,603,-5.59,,,,,,,,,,,,
17604,1564322903032,14,2.24,1.45,0.78,2.36,2.03,1.2,0.1,-0.06,0,-1,0,1.2,7891,0,78,33,23,1124,599.0,632,461,60,131.0,83,1,268,154,51,0,0,578,30227,243,599,414.87,,,,,,,,,,,,
17624,1564322903052,14,2.21,1.46,0.79,2.36,2.04,1.12,0.09,-0.09,-1,-1,1,1.12,7851,0,78,33,23,1124,598.0,631,466,60,130.0,83,1,268,154,51,0,0,570,23619,-30159,594,648.46,,,,,,,,,,,,
17644,1564322903072,14,2.2,1.45,0.79,2.35,2.03,1.09,0.13,-0.1,-3,1,1,1.1,7776,0,78,33,23,1125,596.0,631,466,60,130.0,76,1,267,154,45,0,0,586,17344,774,585,181.28,44.680721,10.01678,62.67,177.3,0,0.0,-1,0.0,0.0,0,0.19,0.2941
17664,1564322903100,14,2.19,1.45,0.78,2.35,2.03,1.12,0.2,-0.07,-4,1,-1,1.14,7763,0,78,33,23,1125,593.0,630,465,60,130.0,76,1,267,154,45,0,0,581,3472,2216,575,648.46,,,,,,,,,,,,
17684,1564322903120,14,2.15,1.44,0.78,2.34,2.02,1.19,0.25,-0.04,-6,0,-2,1.22,7703,0,78,33,23,1092,592.0,630,462,60,131.0,76,1,267,154,45,0,0,577,2048,6274,566,181.28,,,,,,,,,,,,
17704,1564322903140,12,2.15,1.44,0.77,2.34,2.02,1.27,0.28,-0.03,-9,-2,-3,1.3,7662,0,78,33,23,1060,584.0,626,466,60,130.0,76,1,266,154,45,0,0,573,-4035,1779,560,414.87,,,,,,,,,,,,
17724,1564322903160,10,2.12,1.41,0.77,2.33,2.01,1.29,0.33,0.04,-11,-2,-4,1.33,7554,0,78,33,23,1027,586.0,627,458,60,131.0,76,1,265,154,45,0,0,575,-4035,14504,556,181.28,,,,,,,,,,,,
17744,1564322903180,9,2.11,1.44,0.78,2.33,2.01,1.27,0.41,0.09,-13,-2,-6,1.34,7476,0,78,33,23,994,585.0,625,463,60,130.0,79,1,264,154,44,0,0,576,-25872,16383,547,-5.59,44.680706,10.016774,60.11,177.2,0,0.0,-1,0.0,0.0,0,0.19,0.2957
17764,1564322903200,9,2.09,1.44,0.78,2.33,2.01,1.28,0.44,0.17,-15,-4,-9,1.36,7321,0,78,33,24,950,582.0,623,461,60,130.0,79,1,263,156,44,0,0,577,15649,-6441,542,-5.59,,,,,,,,,,,,
17784,1564322903220,6,2.07,1.44,0.78,2.33,2.02,1.33,0.46,0.2,-17,-4,-11,1.41,7189,0,78,33,24,905,583.0,622,463,60,131.0,79,1,261,156,44,0,0,576,15649,6193,535,-5.59,,,,,,,,,,,,
17804,1564322903240,1,2.06,1.44,0.77,2.31,2.02,1.29,0.56,0.22,-19,-3,-13,1.41,7027,0,78,33,24,886,583.0,621,463,60,129.0,79,1,260,77,44,0,0,580,243,5600,537,-5.59,,,,,,,,,,,,
17824,1564322903260,2,2.05,1.43,0.78,2.32,2.01,1.23,0.7,0.27,-20,-2,-16,1.41,6906,0,78,33,25,875,582.0,619,463,60,130.0,79,1,261,80,44,0,0,574,8488,-3414,540,-5.59,,,,,,,,,,,,
17844,1564322903280,0,2.05,1.44,0.78,2.32,2.02,1.21,0.67,0.3,-22,-3,-19,1.38,6756,0,78,33,25,874,584.0,616,465,60,130.0,75,1,263,159,41,0,0,579,15649,2524,537,-5.59,44.680691,10.016769,57.7,177.3,0,0.0,-1,0.0,0.0,0,0.2,0.2974
17864,1564322903300,1,2.07,1.44,0.78,2.32,2.02,1.18,0.8,0.32,-22,-3,-22,1.42,6623,0,78,33,26,875,581.0,616,463,60,131.0,75,1,267,160,41,0,0,577,10432,-4059,537,-5.59,,,,,,,,,,,,
17884,1564322903320,-2,2.08,1.43,0.78,2.31,2.02,1.13,0.89,0.32,-23,-2,-25,1.43,6441,0,78,33,27,883,578.0,610,465,60,129.0,75,1,272,161,41,0,0,577,-16384,-3414,536,-5.59,,,,,,,,,,,,
17904,1564322903340,-1,2.08,1.44,0.78,2.31,2.02,1.15,0.82,0.27,-24,-2,-26,1.41,6325,0,78,33,27,896,577.0,605,462,60,129.0,75,1,273,161,41,0,0,570,30208,-7939,531,-5.59,,,,,,,,,,,,
17924,1564322903360,1,2.09,1.44,0.78,2.31,2.02,1.16,0.84,0.29,-24,-4,-27,1.43,6368,0,78,33,28,910,572.0,606,460,60,130.0,75,1,276,163,41,0,0,553,-8188,3635,530,-5.59,,,,,,,,,,,,
17944,1564322903380,2,2.09,1.44,0.79,2.31,2.01,1.16,0.96,0.27,-24,-4,-28,1.5,6496,0,78,33,28,925,570.0,608,460,60,131.0,73,1,276,163,39,0,0,553,-3190,-21944,529,-5.59,44.680679,10.016766,55.05,177.3,0,0.0,-1,0.0,0.0,0,0.2,0.2991
17964,1564322903400,-2,2.1,1.44,0.78,2.32,2.02,1.18,0.92,0.24,-26,-6,-29,1.49,6574,0,78,33,28,931,567.0,608,462,60,130.0,73,1,275,163,39,0,0,555,1780,1,529,-5.59,,,,,,,,,,,,
17984,1564322903420,2,2.11,1.43,0.79,2.32,2.02,1.17,0.96,0.24,-26,-6,-30,1.51,6572,0,78,33,28,934,568.0,616,460,60,131.0,73,1,275,163,39,0,0,557,-2934,257,524,-5.59,,,,,,,,,,,,
18004,1564322903440,-0,2.1,1.44,0.79,2.33,2.02,1.17,1.06,0.28,-27,-6,-31,1.58,6494,0,78,33,29,915,569.0,611,465,60,130.0,73,1,279,164,39,0,0,561,-29984,0,524,-5.59,,,,,,,,,,,,
18024,1564322903460,-0,2.12,1.44,0.79,2.32,2.01,1.15,1.03,0.25,-28,-7,-32,1.54,6338,0,78,33,29,888,568.0,607,461,60,130.0,73,1,280,164,39,0,0,561,-8186,-6656,522,-5.59,,,,,,,,,,,,
18044,1564322903480,-0,2.11,1.44,0.8,2.31,2.03,1.18,0.94,0.28,-28,-7,-33,1.51,6225,0,78,33,30,860,567.0,605,459,60,129.0,74,1,283,166,39,0,0,561,1780,-6405,524,-5.59,44.680664,10.016764,54.23,177.3,0,0.0,-1,0.0,0.0,0,0.2,0.3007
18064,1564322903496,-1,2.12,1.44,0.79,2.32,2.03,1.11,0.93,0.34,-28,-6,-35,1.45,6121,0,78,33,30,832,565.0,600,461,60,131.0,74,1,284,166,39,0,0,563,-30159,-19126,523,-5.59,,,,,,,,,,,,
18084,1564322903516,-0,2.12,1.43,0.8,2.32,2.03,1.05,0.94,0.38,-27,-6,-36,1.41,6077,0,78,33,30,815,561.0,598,460,60,130.0,74,1,284,166,39,0,0,550,-28648,11560,518,-5.59,,,,,,,,,,,,
18104,1564322903536,2,2.11,1.44,0.8,2.32,2.03,0.99,1.04,0.4,-27,-6,-36,1.44,6127,0,78,33,31,804,558.0,601,463,60,131.0,74,1,287,167,39,0,0,540,-22263,11560,517,-5.59,,,,,,,,,,,,
18124,1564322903556,2,2.12,1.43,0.79,2.32,2.02,0.97,1.14,0.35,-27,-6,-37,1.5,6281,0,78,33,31,807,553.0,603,461,60,131.0,74,1,286,167,39,0,0,536,-9072,2524,513,-5.59,,,,,,,,,,,,
18144,1564322903576,-1,2.11,1.44,0.8,2.32,2.02,0.97,1.15,0.38,-28,-6,-37,1.51,6438,0,78,33,31,825,550.0,608,465,60,129.0,78,1,286,167,40,0,0,535,-32248,-3866,512,-5.59,44.680649,10.016763,53.34,177.3,0,0.0,-1,0.0,0.0,0,0.2,0.3024
18164,1564322903592,-1,2.12,1.43,0.8,2.33,2.02,0.97,1.05,0.33,-28,-6,-37,1.43,6414,0,78,33,31,844,550.0,607,461,60,130.0,78,1,286,167,40,0,0,544,2104,230,512,-5.59,,,,,,,,,,,,
18184,1564322903612,0,2.13,1.44,0.8,2.33,2.02,0.93,1.01,0.43,-27,-6,-38,1.38,6338,0,78,33,31,862,550.0,602,460,60,131.0,78,1,286,167,40,0,0,542,6274,-6458,512,-5.59,,,,,,,,,,,,
18204,1564322903632,1,2.13,1.44,0.8,2.33,2.02,0.82,1.11,0.41,-27,-2,-39,1.38,6258,0,78,33,31,874,552.0,601,462,60,131.0,78,1,286,167,40,0,0,546,-28648,-14707,510,-5.59,,,,,,,,,,,,
18224,1564322903652,2,2.13,1.43,0.8,2.34,2.02,0.81,1.2,0.41,-27,-1,-39,1.45,6157,0,78,33,32,875,549.0,599,465,60,131.0,78,1,290,169,40,0,0,545,2104,486,508,-5.59,,,,,,,,,,,,
18244,1564322903672,2,2.12,1.44,0.8,2.32,2.02,0.85,1.26,0.4,-28,0,-38,1.52,6048,0,78,33,32,877,546.0,596,460,60,130.0,77,1,290,90,39,0,0,544,2524,9517,504,-5.59,44.680637,10.016764,52.7,177.3,0,0.0,-1,0.0,0.0,0,0.2,0.3041
18264,1564322903694,0,2.14,1.44,0.8,2.33,2.03,0.9,1.32,0.29,-28,2,-36,1.6,6060,0,78,33,33,881,542.0,593,462,60,130.0,77,1,292,169,39,0,0,519,-3082,-8985,503,-5.59,,,,,,,,,,,,
18284,1564322903714,-1,2.14,1.44,0.8,2.33,2.03,0.96,1.34,0.29,-28,2,-36,1.65,6184,0,78,33,33,884,536.0,595,465,60,130.0,77,1,292,174,39,0,0,529,-2934,10432,500,-5.59,,,,,,,,,,,,
18304,1564322903734,-1,2.14,1.44,0.8,2.33,2.02,0.93,1.29,0.25,-28,1,-36,1.59,6340,0,78,33,33,886,533.0,603,461,60,130.0,77,1,292,174,39,0,0,515,2104,8488,498,-5.59,,,,,,,,,,,,
18324,1564322903754,1,2.17,1.43,0.8,2.34,2.02,0.93,1.18,0.28,-26,1,-36,1.5,6447,0,78,33,32,889,535.0,608,462,60,131.0,77,1,290,169,39,0,0,517,6274,-3314,498,-5.59,,,,,,,,,,,,
18344,1564322903774,-0,2.21,1.43,0.8,2.34,2.03,0.92,1.21,0.33,-25,0,-37,1.52,6533,0,78,33,32,889,532.0,611,466,60,130.0,82,1,290,169,41,0,0,516,14504,2524,495,-5.59,44.680626,10.016765,52.08,177.3,0,0.0,-1,0.0,0.0,0,0.2,0.3057
18364,1564322903794,-0,2.25,1.44,0.8,2.34,2.02,1.0,1.15,0.27,-25,-0,-36,1.53,6499,0,78,33,32,888,530.0,608,463,60,130.0,82,1,290,169,41,0,0,521,2524,-18341,496,-5.59,,,,,,,,,,,,
18384,1564322903814,-1,2.29,1.44,0.81,2.34,2.02,0.97,1.04,0.32,-23,0,-35,1.42,6505,0,78,33,32,886,527.0,609,461,60,132.0,82,1,290,169,41,0,0,510,6274,-6528,496,-5.59,,,,,,,,,,,,
18404,1564322903834,-1,2.29,1.44,0.8,2.34,2.02,0.93,1.02,0.34,-21,1,-33,1.38,6620,0,78,33,32,883,515.0,612,465,60,130.0,82,1,290,169,41,0,0,506,-14,1,501,-5.59,,,,,,,,,,,,
18424,1564322903854,1,2.33,1.44,0.8,2.34,2.03,0.93,0.87,0.34,-18,0,-29,1.28,6751,0,78,33,31,881,507.0,613,460,60,129.0,82,1,286,167,41,0,0,496,-21872,998,501,-5.59,,,,,,,,,,,,
18444,1564322903874,-1,2.35,1.44,0.81,2.34,2.03,0.9,0.82,0.42,-14,1,-27,1.22,6853,0,78,33,31,878,504.0,612,463,60,131.0,85,1,286,167,43,0,0,495,2109,771,502,-5.59,44.680611,10.016768,51.13,177.3,0,0.0,-1,0.0,0.0,0,0.2,0.3074
18464,1564322903897,1,2.36,1.44,0.81,2.34,2.03,0.88,0.64,0.42,-11,-0,-24,1.09,6858,0,78,33,30,880,505.0,618,462,60,131.0,85,1,282,166,43,0,0,490,-22519,10408,505,-5.59,,,,,,,,,,,,
18484,1564322903917,-0,2.38,1.45,0.81,2.35,2.03,0.89,0.59,0.47,-7,1,-22,1.07,6778,0,78,33,30,880,507.0,615,465,60,129.0,85,1,282,166,43,0,0,492,3,-21872,507,-5.59,,,,,,,,,,,,
18504,1564322903937,2,2.4,1.45,0.81,2.35,2.03,0.89,0.45,0.47,-4,0,-19,1.0,6744,0,78,33,30,880,508.0,614,462,60,132.0,85,1,282,166,43,0,0,492,3,-3856,508,-5.59,,,,,,,,,,,,
18524,1564322903957,0,2.42,1.44,0.81,2.35,2.04,0.87,0.37,0.44,-2,2,-16,0.95,6674,0,78,33,30,880,509.0,607,464,60,131.0,85,1,282,166,43,0,0,491,771,-21872,509,-5.59,,,,,,,,,,,,
18544,1564322903977,1,2.43,1.45,0.81,2.36,2.03,0.94,0.21,0.47,0,-0,-14,0.96,6689,0,78,33,30,880,507.0,612,463,60,131.0,82,1,282,166,42,0,0,483,-1818,-28648,507,-5.59,44.680599,10.016774,49.85,177.3,0,0.0,-1,0.0,0.0,0,0.21,0.3091
18564,1564322903997,0,2.45,1.45,0.8,2.37,2.03,0.9,0.1,0.48,2,1,-11,0.9,6656,0,78,33,30,879,508.0,609,461,60,130.0,82,1,282,166,42,0,0,479,1,2109,508,-5.59,,,,,,,,,,,,
18584,1564322904009,0,2.47,1.45,0.8,2.36,2.03,1.0,-0.09,0.44,3,-1,-7,1.0,6630,0,78,33,30,877,508.0,613,461,60,130.0,82,1,282,166,42,0,0,472,-6441,2524,508,-5.59,,,,,,,,,,,,
18604,1564322904029,1,2.51,1.45,0.81,2.35,2.03,0.88,-0.15,0.49,6,0,-4,0.89,6632,0,78,33,30,876,507.0,613,462,60,131.0,82,1,282,166,42,0,0,465,-899,10408,507,-5.59,,,,,,,,,,,,
18624,1564322904049,-1,2.52,1.45,0.81,2.36,2.03,0.98,-0.23,0.41,7,-1,-1,1.0,6602,3,78,33,30,874,508.0,608,464,60,129.0,82,1,282,166,42,0,0,463,10305,-21872,507,-5.59,,,,,,,,,,,,
18644,1564322904069,2,2.53,1.45,0.8,2.37,2.03,0.89,-0.35,0.54,10,-1,3,0.95,6569,5,78,33,30,873,509.0,611,460,60,131.0,80,1,282,166,41,0,0,457,-23367,10408,509,-5.59,44.680588,10.016779,49.42,177.3,0,0.0,-1,0.0,0.0,0,0.21,0.3107
18664,1564322904097,-2,2.54,1.45,0.8,2.37,2.04,0.82,-0.38,0.49,12,2,6,0.91,6496,5,78,33,30,874,508.0,610,465,60,131.0,80,1,283,166,41,0,0,449,-17956,6274,510,-5.59,,,,,,,,,,,,
18684,1564322904117,-2,2.54,1.45,0.81,2.37,2.04,0.94,-0.44,0.44,13,-1,9,1.04,6377,5,78,33,30,876,507.0,605,460,60,129.0,80,1,283,166,41,0,0,438,-1923,-28648,509,-5.59,,,,,,,,,,,,
18704,1564322904137,1,2.54,1.44,0.8,2.36,2.04,1.0,-0.57,0.47,15,-4,11,1.15,6338,6,78,33,30,879,505.0,602,458,60,130.0,80,1,283,167,41,0,0,435,32033,3,507,-5.59,,,,,,,,,,,,
18724,1564322904157,1,2.54,1.45,0.81,2.36,2.04,0.86,-0.68,0.47,17,-3,14,1.09,6260,6,78,33,31,881,507.0,598,458,60,132.0,80,1,286,88,41,0,0,422,10432,-3414,507,-5.59,,,,,,,,,,,,
18744,1564322904177,3,2.54,1.45,0.81,2.37,2.03,0.69,-0.72,0.49,19,0,16,1.0,6212,6,78,33,31,886,507.0,597,462,60,131.0,77,1,286,167,39,0,0,414,243,11560,507,-5.59,44.680576,10.016784,48.98,177.3,0,0.0,-1,0.0,0.0,0,0.21,0.3124
18764,1564322904199,1,2.55,1.45,0.81,2.36,2.04,0.67,-0.73,0.48,21,1,18,0.99,6177,6,78,33,32,890,505.0,596,462,60,130.0,77,1,290,169,39,0,0,403,-3210,-22519,505,-5.59,,,,,,,,,,,,
18784,1564322904219,2,2.58,1.45,0.81,2.36,2.04,0.68,-0.71,0.45,23,3,20,0.98,6117,6,78,33,32,893,506.0,596,465,60,129.0,77,1,290,169,39,0,0,395,16408,2524,506,-5.59,,,,,,,,,,,,
18804,1564322904239,-2,2.59,1.45,0.8,2.36,2.04,0.74,-0.72,0.42,24,2,21,1.03,6034,6,78,33,32,896,505.0,592,462,60,129.0,77,1,290,169,39,0,0,392,6193,-22519,505,-5.59,,,,,,,,,,,,
18824,1564322904259,2,2.61,1.46,0.81,2.37,2.04,0.81,-0.75,0.37,25,4,24,1.1,5984,6,78,33,33,899,503.0,586,463,60,130.0,77,1,291,173,39,0,0,386,2211,11560,504,-5.59,,,,,,,,,,,,
18844,1564322904279,1,2.63,1.45,0.81,2.36,2.04,0.79,-0.77,0.38,27,5,25,1.1,5912,6,78,33,33,902,501.0,587,461,60,131.0,77,1,287,173,39,0,0,377,17628,11560,502,-5.59,44.680565,10.016788,48.72,177.3,0,0.0,-1,0.0,0.0,0,0.21,0.3141
18864,1564322904297,1,2.65,1.45,0.81,2.37,2.03,0.77,-0.79,0.37,28,6,26,1.11,5832,6,78,33,34,904,500.0,560,462,60,131.0,77,1,286,178,39,0,0,370,-9160,2524,500,-5.59,,,,,,,,,,,,
18884,1564322904317,1,2.67,1.45,0.81,2.38,2.04,0.71,-0.83,0.33,30,7,28,1.09,5804,6,78,33,34,905,496.0,417,460,60,131.0,77,1,285,178,39,0,0,354,-8985,-6528,496,-5.59,,,,,,,,,,,,
18904,1564322904337,0,2.69,1.45,0.81,2.37,2.04,0.64,-0.94,0.35,31,7,30,1.14,5733,6,78,33,35,906,495.0,336,460,60,131.0,77,1,283,182,39,0,0,347,3571,-6528,495,-5.59,,,,,,,,,,,,
18924,1564322904357,-2,2.71,1.45,0.81,2.37,2.04,0.65,-1.01,0.36,32,5,31,1.2,5625,6,79,33,36,908,494.0,317,460,60,130.0,77,1,280,188,39,0,0,341,8488,248,494,-5.59,,,,,,,,,,,,
18944,1564322904377,3,2.7,1.46,0.81,2.37,2.04,0.79,-0.97,0.35,33,3,33,1.25,5537,6,79,33,37,909,491.0,290,460,60,131.0,79,1,277,193,39,0,0,336,10305,-1562,491,-5.59,44.68055,10.016791,48.36,177.4,0,0.0,-1,0.0,0.0,0,0.21,0.3157
18964,1564322904397,-1,2.71,1.46,0.81,2.36,2.04,0.75,-1.03,0.33,35,3,34,1.27,5498,6,79,33,38,909,490.0,270,457,60,131.0,79,1,276,198,39,0,0,322,2131,-6656,488,-5.59,,,,,,,,,,,,
18984,1564322904417,0,2.71,1.46,0.81,2.37,2.05,0.73,-1.09,0.34,35,3,35,1.31,5445,6,78,33,38,910,490.0,250,461,60,131.0,79,1,274,205,39,0,0,311,23400,1,490,-5.59,,,,,,,,,,,,
19004,1564322904437,2,2.7,1.46,0.81,2.38,2.04,0.85,-1.04,0.33,36,0,37,1.34,5403,6,78,33,40,913,487.0,227,467,60,129.0,79,1,278,205,39,0,0,300,23400,1,487,-5.59,,,,,,,,,,,,
19024,1564322904457,0,2.71,1.46,0.81,2.37,2.04,0.77,-1.1,0.31,36,1,38,1.34,5328,6,79,33,40,914,486.0,230,458,60,131.0,79,1,272,205,39,0,0,296,-28332,-10483,486,-5.59,,,,,,,,,,,,
19044,1564322904477,2,2.71,1.46,0.81,2.38,2.05,0.84,-1.1,0.32,36,-1,40,1.38,5215,6,79,33,41,916,483.0,226,463,60,129.0,84,1,268,207,41,0,0,293,21580,10305,482,-5.59,44.680542,10.016793,47.81,177.4,0,0.0,-1,0.0,0.0,0,0.21,0.3174
19064,1564322904495,-0,2.71,1.46,0.81,2.37,2.04,0.77,-1.14,0.33,36,-0,40,1.38,5153,6,79,33,42,917,481.0,233,460,60,131.0,84,1,268,208,41,0,0,289,19477,3576,481,-5.59,,,,,,,,,,,,
19084,1564322904515,-0,2.71,1.46,0.82,2.38,2.04,0.81,-1.14,0.29,37,-2,41,1.4,5088,6,79,33,43,921,477.0,240,464,60,130.0,84,1,266,210,41,0,0,280,-768,16648,477,-5.59,,,,,,,,,,,,
19104,1564322904535,2,2.72,1.47,0.81,2.38,2.04,0.83,-1.16,0.26,37,-2,42,1.43,5036,6,79,34,44,925,477.0,245,462,60,130.0,84,1,265,134,41,0,0,265,1779,-17956,477,-5.59,,,,,,,,,,,,
19124,1564322904555,-2,2.72,1.46,0.81,2.38,2.04,0.79,-1.22,0.28,37,-1,42,1.46,5020,6,79,33,45,927,477.0,239,455,60,131.0,84,1,266,214,41,0,0,253,-3314,-17956,477,-5.59,,,,,,,,,,,,
19144,1564322904575,0,2.71,1.47,0.82,2.38,2.04,0.83,-1.2,0.26,38,-2,43,1.46,4953,6,79,33,46,926,473.0,235,463,60,131.0,84,1,262,215,40,0,0,247,31796,-23367,473,-5.59,44.680527,10.016792,46.72,177.4,0,0.0,-1,0.0,0.0,0,0.21,0.3191
19164,1564322904595,1,2.71,1.46,0.82,2.38,2.04,0.85,-1.21,0.28,38,-1,44,1.48,4827,6,79,33,46,918,472.0,231,463,60,130.0,84,1,248,211,40,0,0,245,-4082,32033,471,-5.59,,,,,,,,,,,,
19184,1564322904615,2,2.7,1.46,0.82,2.38,2.05,0.85,-1.22,0.32,37,0,43,1.49,4755,6,79,33,47,910,469.0,223,461,60,130.0,84,1,244,213,40,0,0,242,-3856,6193,469,-5.59,,,,,,,,,,,,
19204,1564322904635,-0,2.69,1.47,0.82,2.37,2.05,0.84,-1.26,0.35,36,1,43,1.52,4698,6,79,33,47,900,466.0,215,457,60,131.0,84,1,238,211,40,0,0,230,3826,243,466,-5.59,,,,,,,,,,,,
19224,1564322904655,-1,2.69,1.46,0.81,2.38,2.05,0.81,-1.32,0.36,35,1,43,1.55,4693,6,79,33,47,891,464.0,207,457,60,131.0,84,1,237,211,40,0,0,225,-21792,6193,464,-5.59,,,,,,,,,,,,
19244,1564322904675,-1,2.68,1.46,0.81,2.38,2.04,0.82,-1.35,0.31,36,0,43,1.58,4668,6,79,34,48,881,461.0,198,460,60,131.0,82,1,238,136,38,0,0,214,7154,30272,461,-5.59,44.680519,10.01679,46.12,177.4,0,0.0,-1,0.0,0.0,0,0.22,0.3207
19264,1564322904695,-1,2.66,1.46,0.81,2.38,2.05,0.84,-1.37,0.26,35,-1,43,1.61,4573,6,79,34,49,874,460.0,194,462,60,131.0,82,1,230,212,38,0,0,212,18584,-18108,460,-5.59,,,,,,,,,,,,
19284,1564322904715,-2,2.63,1.46,0.81,2.38,2.05,0.83,-1.4,0.29,35,-2,43,1.63,4494,6,79,34,49,874,459.0,189,465,60,131.0,82,1,221,214,38,0,0,211,18584,12552,459,-5.59,,,,,,,,,,,,
19304,1564322904735,-0,2.58,1.47,0.81,2.38,2.05,0.81,-1.4,0.31,35,-2,43,1.62,4435,6,79,34,49,874,460.0,183,466,60,132.0,82,1,214,213,38,0,0,206,-9166,14488,460,-5.59,,,,,,,,,,,,
19324,1564322904755,-2,2.54,1.46,0.81,2.38,2.04,0.8,-1.41,0.32,36,-1,42,1.62,4429,6,79,34,49,874,461.0,177,465,60,130.0,82,1,214,213,38,0,0,202,-26615,3571,461,-5.59,,,,,,,,,,,,
19344,1564322904775,-2,2.48,1.46,0.8,2.37,2.05,0.8,-1.42,0.35,35,2,43,1.63,4396,6,79,34,49,874,461.0,175,460,60,131.0,75,1,210,212,35,0,0,188,13040,14488,461,-5.59,44.680508,10.016788,45.13,177.4,0,0.0,-1,0.0,0.0,0,0.22,0.3224
19364,1564322904794,2,2.42,1.46,0.8,2.37,2.05,0.82,-1.37,0.39,34,3,43,1.6,4344,6,79,34,49,874,461.0,170,457,60,132.0,75,1,205,133,35,0,0,184,-9166,14488,461,-5.59,,,,,,,,,,,,
19384,1564322904814,0,2.37,1.46,0.8,2.38,2.03,0.83,-1.32,0.41,31,4,43,1.56,4328,6,79,34,49,874,459.0,168,455,60,131.0,75,1,202,211,35,0,0,179,-9166,3571,457,-5.59,,,,,,,,,,,,
19404,1564322904834,1,2.32,1.46,0.8,2.37,2.04,0.87,-1.24,0.4,27,5,45,1.51,4239,6,79,34,49,878,452.0,165,453,60,129.0,75,1,193,210,35,0,0,176,-21944,-3267,452,-5.59,,,,,,,,,,,,
19424,1564322904854,-1,2.29,1.45,0.8,2.37,2.04,0.9,-1.19,0.39,23,6,45,1.49,4208,6,79,34,49,882,446.0,165,467,60,130.0,75,1,189,214,35,0,0,176,-21792,-28332,446,-5.59,,,,,,,,,,,,
19444,1564322904874,-0,2.24,1.45,0.8,2.36,2.04,0.98,-1.07,0.31,22,3,42,1.45,4200,6,79,34,50,886,441.0,160,465,60,130.0,73,1,190,214,33,0,0,225,3826,19477,441,-5.59,44.680496,10.016782,44.4,177.4,0,0.0,-1,0.0,0.0,0,0.22,0.3241
19464,1564322904898,-2,2.22,1.45,0.8,2.37,2.02,1.01,-0.99,0.43,19,1,37,1.42,4232,23,79,34,52,891,428.0,157,461,60,131.0,73,1,196,247,33,0,0,413,-8165,2524,428,-5.59,,,,,,,,,,,,
19484,1564322904918,-0,2.18,1.45,0.78,2.36,2.02,1.03,-0.83,0.34,15,1,34,1.32,4513,45,79,34,59,892,426.0,157,460,60,131.0,73,1,228,281,33,0,0,412,3826,-26615,417,-5.59,,,,,,,,,,,,
19504,1564322904938,-1,2.16,1.43,0.77,2.34,2.0,1.03,-0.64,0.39,11,-1,29,1.21,4686,61,79,34,70,894,428.0,156,465,60,131.0,73,1,247,241,33,0,0,422,13180,9517,409,-5.59,,,,,,,,,,,,
19524,1564322904958,1,2.13,1.41,0.76,2.31,1.99,1.08,-0.57,0.39,7,-3,25,1.23,5008,76,79,34,83,893,427.0,159,463,60,127.0,73,1,276,477,33,0,0,415,31796,-32702,406,-5.59,,,,,,,,,,,,
19544,1564322904978,-0,2.11,1.39,0.75,2.3,1.98,0.97,-0.35,0.32,4,-2,21,1.03,5212,90,79,34,92,890,425.0,158,461,60,130.0,244,1,309,563,99,0,0,415,13180,-32702,401,-5.59,44.680489,10.016775,43.13,177.5,0,0.0,-1,0.0,0.0,0,0.22,0.3257
19564,1564322904992,0,2.09,1.39,0.74,2.29,1.97,1.08,-0.27,0.34,0,-2,16,1.11,5361,100,79,34,94,889,426.0,160,461,60,130.0,244,1,311,582,99,0,0,417,13552,-31744,401,-5.59,,,,,,,,,,,,
19584,1564322905012,-1,2.08,1.39,0.73,2.29,1.95,0.99,-0.09,0.36,-2,-0,12,0.99,5452,100,79,34,94,888,427.0,160,466,60,130.0,244,1,312,559,99,0,0,414,31796,-18948,396,-5.59,,,,,,,,,,,,
19604,1564322905032,-0,2.07,1.39,0.72,2.27,1.95,1.0,0.0,0.33,-4,-1,7,1.0,5567,100,79,34,94,889,425.0,164,460,60,129.0,244,1,313,554,99,0,0,416,-3856,-992,394,-5.59,,,,,,,,,,,,
19624,1564322905052,1,2.05,1.39,0.72,2.26,1.94,1.07,0.09,0.37,-7,-2,2,1.08,5587,100,79,34,94,891,424.0,167,461,60,129.0,244,1,313,478,99,0,0,420,-3856,2278,391,-5.59,,,,,,,,,,,,
19644,1564322905072,0,2.07,1.39,0.72,2.26,1.94,0.98,0.26,0.49,-9,-2,-3,1.01,5573,100,79,34,94,909,426.0,170,462,60,130.0,300,1,313,554,117,0,0,421,13552,-19019,389,181.28,44.680477,10.016768,41.83,177.5,0,0.0,-1,0.0,0.0,0,0.22,0.3274
19664,1564322905100,0,2.05,1.4,0.72,2.25,1.94,0.93,0.33,0.39,-10,1,-6,0.99,5555,100,79,34,94,932,425.0,175,461,60,132.0,300,1,312,555,117,0,0,417,-3856,240,387,-5.59,,,,,,,,,,,,
19684,1564322905120,0,2.06,1.39,0.72,2.25,1.93,1.01,0.32,0.24,-12,0,-8,1.06,5623,100,79,34,95,953,422.0,184,461,60,129.0,300,1,313,567,117,0,0,419,-4082,8200,386,-5.59,,,,,,,,,,,,
19704,1564322905140,-0,2.05,1.4,0.71,2.24,1.93,1.01,0.41,0.34,-13,-0,-12,1.09,5788,100,79,34,94,974,421.0,193,458,60,129.0,300,1,315,544,117,0,0,416,-21792,19125,387,-5.59,,,,,,,,,,,,
19724,1564322905160,-1,2.06,1.4,0.71,2.23,1.92,0.93,0.48,0.42,-15,0,-16,1.05,5892,100,79,34,94,1051,420.0,203,463,60,131.0,300,1,316,539,117,0,0,418,-8165,19125,385,414.87,,,,,,,,,,,,
19744,1564322905180,0,2.06,1.4,0.71,2.22,1.93,0.89,0.51,0.39,-16,1,-18,1.03,6351,100,79,34,94,1147,420.0,218,461,60,130.0,322,1,335,533,124,0,0,418,-8165,-18948,383,648.46,44.68047,10.016761,40.15,177.5,0,0.0,-1,0.0,0.0,0,0.22,0.3291
19764,1564322905198,3,2.06,1.4,0.71,2.24,1.93,0.92,0.49,0.42,-16,-0,-20,1.04,6644,100,79,34,94,1233,418.0,233,460,60,130.0,322,1,350,531,124,0,0,421,7154,1504,382,-5.59,,,,,,,,,,,,
19784,1564322905218,3,2.07,1.4,0.71,2.24,1.93,0.8,0.51,0.5,-17,1,-21,0.96,6465,100,79,34,94,1309,424.0,256,465,60,131.0,322,1,341,532,124,0,0,436,-4082,505,386,-5.59,,,,,,,,,,,,
19804,1564322905238,-2,2.07,1.4,0.71,2.23,1.93,0.71,0.6,0.54,-19,2,-23,0.93,6167,100,79,34,94,1380,430.0,271,462,60,129.0,322,1,323,534,124,0,0,448,-3314,10994,390,-5.59,,,,,,,,,,,,
19824,1564322905258,-1,2.06,1.4,0.71,2.23,1.93,0.78,0.55,0.6,-21,0,-25,0.95,6105,100,79,34,94,1447,433.0,279,462,60,129.0,322,1,318,534,124,0,0,446,243,-26615,395,-5.59,,,,,,,,,,,,
19844,1564322905278,2,2.06,1.4,0.71,2.23,1.93,0.81,0.62,0.73,-22,-0,-26,1.02,5779,91,79,34,94,1478,438.0,290,457,60,130.0,303,1,314,545,120,0,0,444,21580,-26615,397,-5.59,44.680458,10.016755,38.81,177.6,0,0.0,-1,0.0,0.0,0,0.22,0.3307
19864,1564322905300,0,2.06,1.39,0.7,2.22,1.92,0.76,0.7,0.8,-23,0,-26,1.03,5547,82,79,34,93,1468,438.0,296,459,60,131.0,303,1,312,539,120,0,0,437,21580,2524,398,-5.59,,,,,,,,,,,,
19884,1564322905320,-2,2.07,1.39,0.7,2.22,1.92,0.78,0.67,0.64,-23,-0,-26,1.03,5539,76,79,34,93,1437,436.0,298,459,60,130.0,303,1,312,539,120,0,0,436,19477,-4059,401,-5.59,,,,,,,,,,,,
19904,1564322905340,-0,2.06,1.39,0.7,2.23,1.91,0.82,0.71,0.61,-23,-3,-28,1.09,5795,75,79,34,92,1385,434.0,306,456,60,129.0,303,1,315,518,120,0,0,434,-768,-3414,402,-5.59,,,,,,,,,,,,
19924,1564322905360,-2,2.07,1.38,0.7,2.22,1.91,0.86,0.73,0.65,-23,-2,-28,1.13,6077,74,79,34,91,1335,435.0,326,459,60,131.0,303,1,321,507,120,0,0,434,-7939,3635,401,-5.59,,,,,,,,,,,,
19944,1564322905380,-1,2.08,1.38,0.7,2.22,1.92,0.95,0.7,0.64,-23,-1,-29,1.18,6262,74,79,34,91,1291,439.0,334,461,60,130.0,295,1,331,512,119,0,0,441,-28332,-1923,406,-5.59,44.680447,10.01675,39.05,177.6,0,0.0,-1,0.0,0.0,0,0.22,0.3324
19964,1564322905398,-1,2.08,1.39,0.7,2.21,1.92,0.93,0.7,0.61,-23,-2,-30,1.16,6317,74,79,34,91,1253,444.0,351,459,60,130.0,295,1,334,513,119,0,0,446,21432,-3210,408,-5.59,,,,,,,,,,,,
19984,1564322905418,2,2.06,1.39,0.7,2.22,1.92,0.82,0.73,0.65,-23,-2,-31,1.1,6216,65,79,34,90,1221,447.0,392,460,60,131.0,295,1,328,503,119,0,0,451,15649,8488,411,-5.59,,,,,,,,,,,,
20004,1564322905438,1,2.08,1.39,0.7,2.23,1.92,0.74,0.77,0.72,-23,-0,-31,1.06,6125,51,79,34,87,1199,451.0,432,460,60,130.0,295,1,334,490,119,0,0,456,3571,243,414,-5.59,,,,,,,,,,,,
20024,1564322905458,2,2.08,1.39,0.7,2.24,1.92,0.66,0.81,0.8,-24,1,-31,1.05,6007,34,79,34,84,1209,453.0,469,462,60,131.0,295,1,340,476,119,0,0,454,2524,-3314,416,-5.59,,,,,,,,,,,,
20044,1564322905478,2,2.07,1.4,0.7,2.24,1.93,0.6,0.86,0.81,-24,2,-30,1.05,5984,26,79,34,79,1216,454.0,496,461,60,131.0,251,1,344,445,105,0,0,452,2524,3571,419,-5.59,44.680439,10.016747,40.72,177.6,0,0.0,-1,0.0,0.0,0,0.22,0.3341
20064,1564322905496,2,2.07,1.4,0.7,2.24,1.93,0.53,0.89,0.73,-24,2,-30,1.03,6015,26,79,34,74,1210,453.0,521,462,60,131.0,251,1,351,403,105,0,0,451,2524,10305,419,-5.59,,,,,,,,,,,,
20084,1564322905516,2,2.09,1.39,0.71,2.23,1.92,0.49,0.92,0.67,-24,1,-29,1.04,6103,26,79,34,72,1201,452.0,538,461,60,131.0,251,1,356,373,105,0,0,451,-6387,8488,420,-5.59,,,,,,,,,,,,
20104,1564322905536,3,2.11,1.39,0.7,2.23,1.92,0.47,0.93,0.68,-24,1,-28,1.04,6143,26,79,34,70,1183,454.0,553,464,60,130.0,251,1,360,325,105,0,0,453,-26615,-18108,423,-5.59,,,,,,,,,,,,
20124,1564322905556,0,2.1,1.39,0.7,2.23,1.92,0.49,0.89,0.69,-24,1,-28,1.02,6196,26,79,34,68,1166,456.0,564,461,60,131.0,251,1,364,233,105,0,0,457,14488,17628,427,-5.59,,,,,,,,,,,,
20144,1564322905576,-2,2.08,1.38,0.71,2.23,1.92,0.55,0.86,0.7,-23,1,-28,1.02,6241,26,79,34,67,1146,459.0,574,464,60,130.0,165,1,369,303,71,0,0,457,-18108,15649,430,-5.59,44.680428,10.016744,41.22,177.7,0,0.0,-1,0.0,0.0,0,0.23,0.3357
20164,1564322905596,-0,2.11,1.4,0.71,2.25,1.92,0.63,0.77,0.7,-23,-1,-29,1.0,6200,26,79,34,66,1126,461.0,585,458,60,130.0,165,1,372,295,71,0,0,460,2211,17628,431,-5.59,,,,,,,,,,,,
20184,1564322905616,-1,2.11,1.4,0.71,2.25,1.93,0.69,0.72,0.69,-23,-2,-28,1.0,6163,26,79,34,65,1123,462.0,586,458,60,130.0,165,1,374,286,71,0,0,461,6193,2524,435,-5.59,,,,,,,,,,,,
20204,1564322905636,1,2.11,1.4,0.71,2.25,1.93,0.66,0.74,0.75,-22,-4,-28,0.99,6135,27,79,34,65,1115,461.0,587,461,60,132.0,165,1,373,285,71,0,0,456,2211,3571,434,-5.59,,,,,,,,,,,,
20224,1564322905656,0,2.11,1.39,0.7,2.26,1.93,0.59,0.77,0.8,-21,-4,-29,0.97,6125,27,79,34,64,1080,461.0,581,463,60,132.0,165,1,376,278,71,0,0,460,16408,2131,436,-5.59,,,,,,,,,,,,
20244,1564322905676,-0,2.13,1.39,0.71,2.26,1.92,0.52,0.81,0.82,-21,-3,-29,0.96,6135,32,79,34,64,1044,464.0,587,461,60,132.0,146,1,376,278,64,0,0,461,16408,15649,437,-5.59,44.68042,10.016743,42.61,177.7,0,0.0,-1,0.0,0.0,0,0.23,0.3374
20264,1564322905696,3,2.12,1.4,0.71,2.25,1.93,0.48,0.85,0.82,-21,-1,-29,0.97,6188,38,79,34,66,1013,465.0,585,458,60,132.0,146,1,372,294,64,0,0,463,30272,21432,440,-5.59,,,,,,,,,,,,
20284,1564322905716,2,2.13,1.4,0.71,2.25,1.94,0.52,0.85,0.82,-21,1,-28,1.0,6196,41,79,34,69,981,467.0,587,461,60,131.0,146,1,363,326,64,0,0,467,243,15649,440,-5.59,,,,,,,,,,,,
20304,1564322905736,-1,2.14,1.39,0.71,2.25,1.94,0.61,0.82,0.8,-22,1,-28,1.02,6184,42,79,34,71,954,469.0,589,463,60,129.0,146,1,361,358,64,0,0,465,10432,3571,441,-5.59,,,,,,,,,,,,
20324,1564322905756,-1,2.13,1.4,0.71,2.26,1.93,0.66,0.77,0.78,-22,-1,-28,1.01,6218,46,79,34,73,928,469.0,590,460,60,130.0,146,1,359,390,64,0,0,468,10432,-9160,442,-5.59,,,,,,,,,,,,
20344,1564322905776,-0,2.13,1.4,0.71,2.26,1.93,0.72,0.69,0.77,-22,-2,-28,0.99,6270,50,79,34,75,930,468.0,592,458,60,130.0,218,1,358,422,96,0,0,467,-16384,-8985,443,-5.59,44.680408,10.016742,43.48,177.7,0,0.0,-1,0.0,0.0,0,0.23,0.3391
20364,1564322905796,1,2.14,1.4,0.71,2.26,1.93,0.68,0.69,0.84,-21,-4,-27,0.97,6332,52,79,34,77,934,469.0,594,461,60,131.0,218,1,358,445,96,0,0,466,10432,-8985,443,-5.59,,,,,,,,,,,,
20384,1564322905816,3,2.14,1.39,0.72,2.26,1.94,0.56,0.74,0.87,-20,-2,-27,0.93,6330,54,79,34,79,950,469.0,596,462,60,131.0,218,1,357,457,96,0,0,469,32033,-9160,445,-5.59,,,,,,,,,,,,
20404,1564322905836,-1,2.15,1.4,0.71,2.27,1.94,0.56,0.75,0.84,-20,1,-27,0.94,6343,56,79,34,81,966,470.0,596,465,60,131.0,218,1,357,463,96,0,0,473,8488,17628,449,-5.59,,,,,,,,,,,,
20424,1564322905856,-0,2.14,1.4,0.71,2.27,1.94,0.66,0.7,0.78,-20,2,-26,0.96,6332,56,79,34,82,980,471.0,600,460,60,130.0,218,1,355,475,96,0,0,475,32033,6193,449,-5.59,,,,,,,,,,,,
20444,1564322905876,1,2.15,1.4,0.71,2.27,1.94,0.72,0.65,0.81,-19,-0,-26,0.98,6386,56,79,34,82,992,474.0,598,457,60,130.0,255,1,357,476,115,0,0,476,-17956,243,450,-5.59,44.680397,10.016742,43.59,177.8,0,0.0,-1,0.0,0.0,0,0.23,0.3407
20464,1564322905893,2,2.15,1.4,0.71,2.27,1.94,0.64,0.65,0.86,-19,-1,-25,0.92,6419,57,79,34,82,1015,476.0,597,461,60,132.0,255,1,358,476,115,0,0,476,-23367,-1923,451,-5.59,,,,,,,,,,,,
20484,1564322905913,-2,2.16,1.4,0.71,2.27,1.95,0.63,0.63,0.78,-18,1,-25,0.89,6503,57,79,34,83,1043,478.0,603,459,60,129.0,255,1,360,485,115,0,0,478,16648,-9203,453,-5.59,,,,,,,,,,,,
20504,1564322905933,1,2.17,1.4,0.72,2.27,1.95,0.71,0.62,0.74,-18,-0,-23,0.95,6503,57,79,34,83,1064,479.0,605,457,60,131.0,255,1,360,485,115,0,0,481,10305,8488,456,-5.59,,,,,,,,,,,,
20524,1564322905953,3,2.16,1.4,0.72,2.28,1.95,0.67,0.63,0.81,-17,-0,-24,0.92,6555,57,79,34,83,1081,481.0,605,460,60,131.0,255,1,362,486,115,0,0,482,32033,16648,459,-5.59,,,,,,,,,,,,
20544,1564322905973,-0,2.17,1.41,0.72,2.28,1.94,0.68,0.59,0.72,-17,0,-23,0.9,6574,57,79,34,83,1094,482.0,607,459,60,129.0,263,1,363,486,121,0,0,483,-899,32033,461,-5.59,44.680389,10.016743,44.6,177.8,0,0.0,-1,0.0,0.0,0,0.23,0.3424
20564,1564322905991,1,2.18,1.4,0.72,2.28,1.95,0.69,0.59,0.8,-17,-2,-23,0.91,6620,57,79,33,83,1107,484.0,605,461,60,132.0,263,1,364,487,121,0,0,487,-10483,-6528,463,-5.59,,,,,,,,,,,,
20584,1564322906011,-0,2.18,1.4,0.72,2.28,1.95,0.63,0.65,0.76,-16,1,-23,0.9,6684,58,79,34,83,1110,484.0,605,463,60,130.0,263,1,366,488,121,0,0,487,-1562,-32768,467,648.46,,,,,,,,,,,,
20604,1564322906031,2,2.18,1.41,0.72,2.29,1.95,0.68,0.53,0.79,-16,-1,-22,0.86,6691,58,79,33,82,1107,488.0,606,455,60,131.0,263,1,368,488,121,0,0,489,1,-1562,468,-5.59,,,,,,,,,,,,
20624,1564322906051,-1,2.19,1.41,0.72,2.29,1.95,0.6,0.59,0.78,-15,-0,-22,0.84,6703,58,79,33,83,1091,490.0,606,462,60,131.0,263,1,367,489,121,0,0,488,-1818,-6528,473,-5.59,,,,,,,,,,,,
20644,1564322906071,1,2.19,1.41,0.72,2.3,1.95,0.69,0.49,0.77,-15,-2,-21,0.85,6684,58,79,33,83,1071,491.0,607,461,60,129.0,261,1,366,488,123,0,0,496,-32768,-1818,474,-5.59,44.680374,10.016744,45.34,177.9,0,0.0,-1,0.0,0.0,0,0.23,0.3441
20664,1564322906099,-1,2.19,1.41,0.72,2.29,1.95,0.59,0.51,0.82,-14,-2,-21,0.78,6691,52,79,33,83,1052,494.0,607,463,60,131.0,261,1,367,488,123,0,0,494,-6528,-1818,479,-5.59,,,,,,,,,,,,
20684,1564322906119,-0,2.2,1.41,0.72,2.3,1.95,0.65,0.43,0.75,-14,-2,-20,0.78,6698,42,79,33,81,1035,497.0,609,460,60,129.0,261,1,369,399,123,0,0,500,-9216,-28648,479,-5.59,,,,,,,,,,,,
20704,1564322906139,-0,2.2,1.41,0.72,2.3,1.96,0.64,0.41,0.83,-14,-3,-20,0.76,6725,32,79,33,78,1007,495.0,613,460,60,130.0,261,1,371,456,123,0,0,497,771,-6528,482,181.28,,,,,,,,,,,,
20724,1564322906159,1,2.2,1.41,0.71,2.3,1.95,0.64,0.37,0.75,-13,-3,-20,0.74,6706,25,79,33,73,967,500.0,611,458,60,130.0,261,1,376,396,123,0,0,498,10408,998,482,-5.59,,,,,,,,,,,,
20744,1564322906179,3,2.2,1.41,0.72,2.3,1.95,0.58,0.41,0.79,-13,-3,-19,0.71,6620,22,79,33,69,932,502.0,608,461,60,131.0,189,1,378,334,92,0,0,495,15661,998,487,-5.59,44.680366,10.016747,46.1,178.0,0,0.0,-1,0.0,0.0,0,0.23,0.3457
20764,1564322906199,-0,2.21,1.42,0.72,2.31,1.95,0.66,0.42,0.76,-13,-2,-19,0.78,6544,21,79,33,66,907,502.0,602,464,60,129.0,189,1,385,304,92,0,0,502,2109,248,488,-5.59,,,,,,,,,,,,
20784,1564322906219,2,2.21,1.42,0.73,2.3,1.97,0.68,0.33,0.77,-12,-3,-19,0.75,6672,20,79,33,63,875,503.0,605,460,60,130.0,189,1,401,291,92,0,0,495,2109,-1818,489,-5.59,,,,,,,,,,,,
20804,1564322906239,-0,2.22,1.42,0.73,2.3,1.96,0.63,0.4,0.83,-12,-2,-19,0.75,6644,20,79,33,60,836,503.0,609,462,60,130.0,189,1,405,276,92,0,0,502,2109,248,488,414.87,,,,,,,,,,,,
20824,1564322906259,3,2.22,1.42,0.73,2.31,1.96,0.73,0.32,0.75,-12,-4,-19,0.8,6747,20,79,33,59,802,504.0,613,461,60,130.0,189,1,405,277,92,0,0,496,-32248,-6656,488,-5.59,,,,,,,,,,,,
20844,1564322906279,-1,2.23,1.42,0.74,2.31,1.96,0.67,0.35,0.78,-11,-2,-18,0.75,6754,20,79,33,57,786,504.0,612,467,60,131.0,141,1,398,269,69,0,0,502,-32248,248,487,-5.59,44.680351,10.016749,48.04,178.0,0,0.0,-1,0.0,0.0,0,0.23,0.3474
20864,1564322906299,2,2.26,1.42,0.74,2.32,1.96,0.76,0.3,0.72,-11,-2,-17,0.82,6744,21,79,33,56,770,504.0,611,458,60,130.0,141,1,394,265,69,0,0,499,-32248,-1818,492,-5.59,,,,,,,,,,,,
20884,1564322906319,-0,2.26,1.42,0.74,2.32,1.96,0.74,0.3,0.75,-10,-1,-17,0.79,6737,21,79,33,55,753,502.0,610,462,60,130.0,141,1,391,261,69,0,0,503,15661,505,493,-5.59,,,,,,,,,,,,
20904,1564322906339,1,2.29,1.42,0.74,2.31,1.97,0.81,0.22,0.67,-9,-1,-16,0.84,6660,21,79,33,54,739,500.0,615,458,60,130.0,141,1,387,258,69,0,0,494,10408,-1818,493,-5.59,,,,,,,,,,,,
20924,1564322906359,1,2.3,1.42,0.73,2.32,1.97,0.75,0.26,0.73,-8,-1,-16,0.79,6679,21,79,33,53,737,499.0,612,461,60,131.0,141,1,384,252,69,0,0,495,-22519,3,494,-5.59,,,,,,,,,,,,
20944,1564322906379,-1,2.31,1.42,0.74,2.33,1.96,0.79,0.19,0.62,-7,-1,-15,0.81,6682,22,79,33,53,735,497.0,609,463,60,130.0,132,1,384,252,65,0,0,494,-9216,-1818,494,-5.59,44.68034,10.016754,48.61,178.0,0,0.0,-1,0.0,0.0,0,0.24,0.3491
20964,1564322906397,2,2.3,1.42,0.74,2.32,1.97,0.75,0.16,0.67,-6,-1,-14,0.77,6674,18,79,33,52,734,497.0,610,462,60,131.0,132,1,381,247,65,0,0,492,-9216,998,492,-5.59,,,,,,,,,,,,
20984,1564322906417,-0,2.31,1.43,0.74,2.33,1.98,0.79,0.18,0.63,-5,-0,-13,0.81,6604,8,79,33,50,733,496.0,610,463,60,129.0,132,1,375,242,65,0,0,486,3,1,492,-5.59,,,,,,,,,,,,
21004,1564322906437,2,2.32,1.42,0.74,2.33,1.98,0.85,0.09,0.66,-5,-2,-12,0.85,6526,0,79,33,47,735,494.0,608,457,60,130.0,132,1,365,220,65,0,0,491,998,248,493,-5.59,,,,,,,,,,,,
21024,1564322906457,3,2.32,1.43,0.74,2.33,1.99,0.7,0.1,0.66,-3,0,-12,0.71,6441,0,79,33,44,736,494.0,607,463,60,131.0,132,1,343,215,65,0,0,484,998,248,491,-5.59,,,,,,,,,,,,
21044,1564322906477,1,2.32,1.43,0.74,2.34,1.99,0.76,0.13,0.57,-3,2,-11,0.77,6375,0,79,33,43,742,494.0,603,464,60,130.0,106,1,336,213,52,0,0,490,998,-32768,491,-5.59,44.680328,10.016758,48.7,178.0,0,0.0,-1,0.0,0.0,0,0.24,0.3507
21064,1564322906495,-0,2.34,1.43,0.74,2.35,1.98,0.89,0.06,0.52,-3,1,-10,0.89,6266,0,79,33,41,748,491.0,599,463,60,130.0,106,1,323,210,52,0,0,489,248,-6441,492,-5.59,,,,,,,,,,,,
21084,1564322906515,-1,2.36,1.43,0.74,2.35,1.99,0.97,-0.04,0.51,-2,-1,-9,0.97,6143,0,79,33,39,753,491.0,597,460,60,130.0,106,1,310,209,52,0,0,487,-1818,-1818,491,-5.59,,,,,,,,,,,,
21104,1564322906535,0,2.36,1.43,0.74,2.35,1.98,0.99,-0.19,0.47,-1,-4,-9,1.01,6005,0,79,33,39,760,491.0,597,458,60,131.0,106,1,310,208,52,0,0,479,1,505,491,-5.59,,,,,,,,,,,,
21124,1564322906555,-1,2.39,1.43,0.74,2.36,1.99,1.05,-0.3,0.46,0,-7,-9,1.09,5929,0,79,33,38,770,492.0,593,460,60,130.0,106,1,302,201,52,0,0,473,1,-6441,492,-5.59,,,,,,,,,,,,
21144,1564322906575,-1,2.4,1.43,0.75,2.36,1.99,1.14,-0.37,0.43,2,-10,-8,1.2,6000,0,79,33,37,780,490.0,590,460,60,130.0,91,1,304,202,45,0,0,454,10305,3580,491,-5.59,44.680317,10.016763,48.24,178.0,0,0.0,-1,0.0,0.0,0,0.24,0.3524
21164,1564322906595,-1,2.42,1.44,0.75,2.36,2.0,1.2,-0.44,0.44,4,-12,-6,1.27,6119,0,79,33,37,787,491.0,595,460,60,131.0,91,1,304,196,45,0,0,448,-23367,-23367,489,-5.59,,,,,,,,,,,,
21184,1564322906615,2,2.44,1.44,0.76,2.36,2.0,1.19,-0.51,0.52,5,-13,-6,1.29,6218,0,79,33,36,792,487.0,601,460,60,130.0,91,1,301,196,45,0,0,435,8488,-17956,487,-5.59,,,,,,,,,,,,
21204,1564322906635,3,2.45,1.44,0.75,2.37,2.0,1.02,-0.5,0.53,7,-12,-4,1.13,6287,0,79,33,36,803,484.0,604,463,60,131.0,91,1,301,190,45,0,0,422,-16384,8488,484,-5.59,,,,,,,,,,,,
21224,1564322906655,4,2.46,1.45,0.76,2.37,2.0,0.91,-0.52,0.5,9,-9,-1,1.04,6247,0,79,33,35,814,486.0,600,461,60,130.0,91,1,298,185,45,0,0,410,30272,-899,487,-5.59,,,,,,,,,,,,
21244,1564322906675,3,2.48,1.44,0.76,2.37,2.01,0.88,-0.54,0.53,10,-7,0,1.03,6131,0,79,33,35,821,488.0,596,464,60,130.0,88,1,298,185,43,0,0,394,2211,1,488,-5.59,44.680306,10.016767,48.46,178.0,0,0.0,-1,0.0,0.0,0,0.24,0.3541
21264,1564322906695,4,2.49,1.45,0.76,2.37,2.02,0.92,-0.59,0.5,12,-4,3,1.1,5967,0,79,33,35,827,487.0,592,463,60,130.0,88,1,296,185,43,0,0,392,-23623,-10483,487,-5.59,,,,,,,,,,,,
21284,1564322906715,2,2.5,1.45,0.76,2.38,2.01,0.92,-0.61,0.52,13,-2,5,1.1,5888,0,79,33,35,843,489.0,584,465,60,131.0,88,1,289,183,43,0,0,399,17628,32033,489,-5.59,,,,,,,,,,,,
21304,1564322906735,2,2.5,1.44,0.76,2.38,2.01,0.8,-0.6,0.58,15,1,7,1.0,5762,0,79,33,35,859,489.0,580,463,60,131.0,88,1,285,182,43,0,0,400,-26615,-6441,488,-5.59,,,,,,,,,,,,
21324,1564322906755,0,2.51,1.44,0.76,2.37,2.01,0.67,-0.65,0.64,17,1,8,0.93,5692,0,79,33,35,871,486.0,573,460,60,131.0,88,1,281,182,43,0,0,377,-6387,8488,485,-5.59,,,,,,,,,,,,
21344,1564322906775,-2,2.51,1.44,0.76,2.38,2.0,0.72,-0.74,0.55,18,-1,11,1.03,5709,0,79,33,35,883,482.0,566,462,60,129.0,80,1,282,182,39,0,0,353,-3267,-9203,482,-5.59,44.680294,10.016771,47.68,178.0,0,0.0,-1,0.0,0.0,0,0.24,0.3557
21364,1564322906795,-0,2.5,1.45,0.76,2.37,2.02,0.85,-0.76,0.44,19,-4,13,1.14,5645,0,79,33,36,903,482.0,565,465,60,130.0,80,1,281,188,39,0,0,326,15649,-899,482,-5.59,,,,,,,,,,,,
21384,1564322906815,-0,2.5,1.44,0.76,2.38,2.01,0.86,-0.76,0.47,20,-3,13,1.14,5526,0,79,33,36,924,482.0,560,463,60,130.0,80,1,274,187,39,0,0,323,15649,-17956,482,-5.59,,,,,,,,,,,,
21404,1564322906835,-1,2.5,1.44,0.76,2.38,2.01,0.76,-0.82,0.5,20,-2,15,1.12,5383,0,79,33,36,937,481.0,552,461,60,131.0,80,1,266,185,39,0,0,318,10305,32033,483,-5.59,,,,,,,,,,,,
21424,1564322906855,-0,2.51,1.44,0.76,2.37,2.02,0.88,-0.79,0.45,21,-4,18,1.18,5286,0,79,33,38,948,480.0,543,461,60,130.0,80,1,265,119,39,0,0,319,10305,-1923,480,-5.59,,,,,,,,,,,,
21444,1564322906875,-1,2.51,1.44,0.77,2.37,2.01,0.83,-0.82,0.45,21,-3,19,1.16,5166,0,79,32,38,960,479.0,534,457,60,131.0,81,1,257,196,39,0,0,308,2131,-23367,479,-5.59,44.680283,10.016774,46.62,178.0,0,0.0,-1,0.0,0.0,0,0.24,0.3574
21464,1564322906898,-1,2.51,1.45,0.77,2.37,2.02,0.85,-0.79,0.41,21,-2,21,1.16,5122,0,79,32,40,972,475.0,521,463,60,131.0,81,1,259,203,39,0,0,288,-18341,32033,475,-5.59,,,,,,,,,,,,
21484,1564322906918,4,2.5,1.45,0.76,2.38,2.01,0.85,-0.79,0.43,22,-3,22,1.16,5099,0,79,32,40,979,474.0,442,461,60,129.0,81,1,257,204,39,0,0,269,16648,-17956,474,-5.59,,,,,,,,,,,,
21504,1564322906938,0,2.5,1.45,0.76,2.38,2.01,0.87,-0.79,0.52,23,-0,23,1.18,5051,0,79,32,41,982,477.0,357,459,60,131.0,81,1,258,206,39,0,0,265,21432,-1923,476,-5.59,,,,,,,,,,,,
21524,1564322906958,-2,2.49,1.45,0.76,2.37,2.01,0.97,-0.8,0.56,23,-1,25,1.26,4961,0,79,32,42,988,478.0,306,461,60,132.0,81,1,253,129,39,0,0,269,26704,10432,478,-5.59,,,,,,,,,,,,
21544,1564322906978,3,2.49,1.44,0.77,2.37,2.02,1.06,-0.8,0.55,24,-2,26,1.33,4909,0,79,32,43,993,475.0,305,467,60,127.0,79,1,250,207,38,0,0,275,-28332,-16384,475,-5.59,44.680271,10.016777,46.74,178.0,0,0.0,-1,0.0,0.0,0,0.24,0.3591
21564,1564322906998,-1,2.47,1.45,0.77,2.38,2.01,1.06,-0.85,0.65,24,-1,26,1.36,4965,0,79,32,43,999,474.0,291,457,60,131.0,79,1,256,211,38,0,0,290,-28332,12552,472,-5.59,,,,,,,,,,,,
21584,1564322907010,-2,2.46,1.44,0.77,2.37,2.02,1.11,-0.81,0.59,24,2,26,1.38,5049,0,79,32,44,1002,467.0,273,461,60,131.0,79,1,265,212,38,0,0,272,5600,16408,467,181.28,,,,,,,,,,,,
21604,1564322907030,3,2.46,1.45,0.77,2.37,2.01,1.19,-0.84,0.55,23,2,28,1.45,5071,0,79,32,44,1009,466.0,266,458,60,130.0,79,1,267,214,38,0,0,280,5600,12552,466,-5.59,,,,,,,,,,,,
21624,1564322907050,-2,2.46,1.45,0.76,2.37,2.02,1.2,-0.82,0.55,23,1,28,1.45,5096,0,79,32,45,1018,464.0,255,457,60,131.0,79,1,272,214,38,0,0,340,243,16648,462,-5.59,,,,,,,,,,,,
21644,1564322907070,2,2.45,1.44,0.77,2.37,2.0,1.28,-0.79,0.56,23,-2,27,1.51,5185,0,79,32,45,1027,454.0,247,460,60,129.0,89,1,279,214,41,0,0,402,13180,2131,454,648.46,44.68026,10.016779,45.32,178.1,0,0.0,-1,0.0,0.0,0,0.24,0.3607
21664,1564322907098,-1,2.46,1.45,0.76,2.38,2.01,1.15,-0.85,0.55,22,-1,26,1.43,5292,0,79,32,45,1033,452.0,237,458,60,131.0,89,1,288,214,41,0,0,415,-4082,5600,449,-5.59,,,,,,,,,,,,
21684,1564322907118,-2,2.47,1.45,0.77,2.38,2.02,1.24,-0.85,0.46,21,-4,27,1.5,5442,0,79,32,45,1033,446.0,232,460,60,130.0,89,1,300,214,41,0,0,405,3826,-7939,446,-5.59,,,,,,,,,,,,
21704,1564322907138,1,2.47,1.45,0.77,2.37,2.02,1.2,-0.74,0.42,21,-2,26,1.41,5553,1,79,32,45,1026,445.0,239,459,60,131.0,89,1,310,214,41,0,0,397,-21792,-7939,445,-5.59,,,,,,,,,,,,
21724,1564322907158,-0,2.47,1.45,0.76,2.37,2.01,1.04,-0.75,0.41,21,0,27,1.28,5678,6,79,32,44,1016,444.0,252,458,60,131.0,89,1,315,213,41,0,0,387,-3414,-3322,444,-5.59,,,,,,,,,,,,
21744,1564322907178,-1,2.46,1.45,0.77,2.37,2.01,0.95,-0.79,0.44,21,1,27,1.24,5707,6,79,32,43,1002,444.0,261,460,60,131.0,104,1,312,212,46,0,0,382,-21944,5600,444,-5.59,44.680248,10.016779,43.89,178.1,0,0.0,-1,0.0,0.0,0,0.25,0.3624
21764,1564322907200,-0,2.47,1.45,0.76,2.37,2.02,1.01,-0.77,0.36,21,0,28,1.27,5668,9,79,32,43,985,444.0,287,464,60,130.0,104,1,310,212,46,0,0,384,2524,23400,444,-5.59,,,,,,,,,,,,
21784,1564322907220,1,2.47,1.45,0.77,2.37,2.02,1.08,-0.75,0.36,21,0,29,1.31,5617,9,79,32,43,954,445.0,290,462,60,130.0,104,1,306,212,46,0,0,406,-9166,1779,445,-5.59,,,,,,,,,,,,
21804,1564322907240,0,2.48,1.45,0.77,2.37,2.02,0.99,-0.74,0.36,22,2,29,1.24,5602,9,79,32,43,924,441.0,312,458,60,132.0,104,1,305,212,46,0,0,402,13040,-3314,439,-5.59,,,,,,,,,,,,
21824,1564322907260,-1,2.47,1.45,0.77,2.38,2.02,0.95,-0.78,0.38,22,2,28,1.23,5617,9,79,32,43,905,436.0,315,460,60,131.0,104,1,306,212,46,0,0,402,11560,-3314,436,-5.59,,,,,,,,,,,,
21844,1564322907280,-0,2.46,1.45,0.77,2.38,2.01,1.01,-0.79,0.37,22,-2,28,1.28,5673,9,79,32,43,889,432.0,341,459,60,129.0,103,1,310,213,45,0,0,399,-26615,13180,432,-5.59,44.680237,10.016778,43.75,178.2,0,0.0,-1,0.0,0.0,0,0.25,0.3641
21864,1564322907298,3,2.46,1.45,0.77,2.37,2.02,1.1,-0.81,0.38,21,-3,29,1.36,5678,13,79,32,44,875,431.0,371,465,60,130.0,103,1,315,213,45,0,0,398,-9211,31796,428,-5.59,,,,,,,,,,,,
21884,1564322907318,2,2.45,1.45,0.77,2.37,2.02,1.03,-0.76,0.36,21,-1,29,1.28,5647,19,79,32,45,860,430.0,398,461,60,131.0,103,1,318,215,45,0,0,396,10541,-3414,430,-5.59,,,,,,,,,,,,
21904,1564322907338,1,2.42,1.46,0.77,2.38,2.01,0.91,-0.76,0.42,20,-0,29,1.18,5635,21,79,32,47,862,431.0,425,460,60,131.0,103,1,327,218,45,0,0,398,-8151,-3856,431,-5.59,,,,,,,,,,,,
21924,1564322907358,-0,2.39,1.45,0.77,2.38,2.02,0.92,-0.78,0.36,19,-1,29,1.21,5637,23,79,32,50,867,431.0,450,461,60,131.0,103,1,338,231,45,0,0,397,1504,-8165,430,-5.59,,,,,,,,,,,,
21944,1564322907378,3,2.38,1.45,0.77,2.38,2.02,1.01,-0.74,0.38,18,-2,28,1.25,5578,23,79,32,53,875,427.0,466,466,60,131.0,114,1,347,240,49,0,0,401,1504,-8165,426,-5.59,44.680229,10.016775,41.73,178.3,0,0.0,-1,0.0,0.0,0,0.25,0.3657
21964,1564322907399,0,2.33,1.44,0.76,2.38,2.02,0.96,-0.66,0.41,17,-1,27,1.17,5640,23,79,32,54,881,425.0,485,460,60,131.0,114,1,354,250,49,0,0,403,-9211,3826,425,-5.59,,,,,,,,,,,,
21984,1564322907419,-0,2.3,1.45,0.77,2.36,2.02,0.88,-0.61,0.43,16,0,26,1.08,5686,23,79,32,56,883,421.0,501,460,60,131.0,114,1,354,252,49,0,0,402,-26615,-21792,421,-5.59,,,,,,,,,,,,
22004,1564322907439,0,2.26,1.44,0.76,2.36,2.01,0.85,-0.53,0.35,14,-0,25,1.0,5787,24,79,32,57,887,417.0,511,462,60,131.0,114,1,363,253,49,0,0,405,10392,2524,416,-5.59,,,,,,,,,,,,
22024,1564322907459,-1,2.21,1.44,0.77,2.35,2.0,0.95,-0.52,0.24,11,-2,24,1.08,5848,24,79,32,57,891,414.0,521,458,60,129.0,114,1,368,254,49,0,0,407,10392,-26615,414,-5.59,,,,,,,,,,,,
22044,1564322907479,-1,2.19,1.43,0.76,2.35,2.0,1.06,-0.5,0.21,9,-6,22,1.17,5982,24,79,32,57,894,411.0,523,461,60,131.0,136,1,381,253,56,0,0,411,13040,1504,410,-5.59,44.680218,10.016773,41.46,178.3,0,0.0,-1,0.0,0.0,0,0.25,0.3674
22064,1564322907496,1,2.16,1.42,0.75,2.33,2.0,1.15,-0.49,0.2,6,-8,19,1.25,6119,24,79,32,57,893,413.0,521,462,60,131.0,136,1,384,256,56,0,0,411,-26615,2524,405,-5.59,,,,,,,,,,,,
22084,1564322907516,1,2.14,1.41,0.74,2.32,1.99,1.04,-0.41,0.2,3,-7,16,1.12,6239,24,79,32,57,891,415.0,537,462,60,131.0,136,1,387,258,56,0,0,415,-26615,6384,401,-5.59,,,,,,,,,,,,
22104,1564322907536,1,2.13,1.41,0.74,2.32,1.98,0.91,-0.33,0.34,1,-3,14,0.96,6223,25,79,32,57,877,421.0,554,462,60,131.0,136,1,387,258,56,0,0,423,-21792,2524,400,-5.59,,,,,,,,,,,,
22124,1564322907556,2,2.11,1.41,0.74,2.31,1.98,0.79,-0.25,0.5,-2,-0,11,0.83,5924,25,79,32,57,860,423.0,563,462,60,131.0,136,1,375,254,56,0,0,432,31796,21580,401,-5.59,,,,,,,,,,,,
22144,1564322907576,0,2.1,1.41,0.73,2.3,1.97,0.77,-0.11,0.54,-3,0,7,0.78,5565,25,79,32,58,845,429.0,557,458,60,132.0,134,1,339,253,54,0,0,434,3635,-7939,403,-5.59,44.68021,10.016768,41.17,178.3,0,0.0,-1,0.0,0.0,0,0.25,0.3691
22164,1564322907596,2,2.08,1.41,0.72,2.3,1.95,0.89,-0.08,0.51,-5,-1,4,0.9,5391,25,79,32,61,831,429.0,548,461,60,129.0,134,1,314,261,54,0,0,428,3635,-26615,403,-5.59,,,,,,,,,,,,
22184,1564322907616,0,2.04,1.4,0.71,2.29,1.94,0.82,0.09,0.55,-6,0,1,0.82,5377,25,79,32,62,819,426.0,536,458,60,131.0,134,1,312,268,54,0,0,423,13552,2524,401,-5.59,,,,,,,,,,,,
22204,1564322907636,-1,2.02,1.39,0.71,2.26,1.92,0.85,0.13,0.41,-8,-1,-1,0.86,5405,25,79,32,64,809,426.0,528,462,60,129.0,134,1,313,282,54,0,0,422,13552,-3968,398,-5.59,,,,,,,,,,,,
22224,1564322907656,1,1.98,1.39,0.7,2.26,1.92,0.91,0.24,0.44,-11,-3,-4,0.95,5420,25,79,32,65,810,427.0,522,462,60,130.0,134,1,313,289,54,0,0,422,31796,-1818,398,-5.59,,,,,,,,,,,,
22244,1564322907676,-0,1.96,1.39,0.7,2.26,1.92,0.77,0.34,0.56,-14,-1,-8,0.84,5493,25,79,32,65,815,429.0,528,458,60,130.0,149,1,320,289,59,0,0,424,3635,-1818,393,-5.59,44.680199,10.016765,40.52,178.4,0,0.0,-1,0.0,0.0,0,0.25,0.3707
22264,1564322907696,-2,1.94,1.39,0.7,2.24,1.91,0.82,0.38,0.53,-16,-2,-12,0.91,5580,25,79,32,66,833,428.0,535,461,60,130.0,149,1,326,296,59,0,0,428,243,17144,390,-5.59,,,,,,,,,,,,
22284,1564322907716,2,1.91,1.39,0.7,2.24,1.91,0.92,0.43,0.54,-18,-2,-15,1.01,5692,25,79,32,66,854,434.0,541,465,60,129.0,149,1,337,294,59,0,0,428,-768,505,386,-5.59,,,,,,,,,,,,
22304,1564322907736,2,1.89,1.38,0.7,2.23,1.91,0.89,0.51,0.5,-21,-2,-18,1.02,5797,26,79,32,65,873,433.0,549,464,60,130.0,149,1,348,285,59,0,0,429,243,1,386,-5.59,,,,,,,,,,,,
22324,1564322907756,1,1.88,1.38,0.69,2.23,1.91,0.83,0.61,0.49,-24,-2,-20,1.03,5926,26,79,32,64,890,433.0,561,462,60,130.0,149,1,363,275,59,0,0,431,-3322,505,384,-5.59,,,,,,,,,,,,
22344,1564322907776,3,1.87,1.39,0.7,2.24,1.93,0.75,0.7,0.49,-26,-1,-22,1.03,5950,26,79,32,63,904,434.0,568,462,60,130.0,161,1,369,266,62,0,0,429,-768,3635,383,-5.59,44.680191,10.016762,40.15,178.5,0,0.0,-1,0.0,0.0,0,0.25,0.3724
22364,1564322907795,2,1.88,1.39,0.7,2.24,1.92,0.71,0.82,0.58,-28,-0,-25,1.09,5935,26,79,33,63,918,432.0,570,459,60,131.0,161,1,367,258,62,0,0,432,-3322,6193,382,-5.59,,,,,,,,,,,,
22384,1564322907815,0,1.88,1.39,0.71,2.23,1.93,0.67,0.93,0.7,-29,-1,-28,1.15,5973,26,79,32,62,923,430.0,573,460,60,130.0,161,1,375,257,62,0,0,433,-3322,-18341,380,-5.59,,,,,,,,,,,,
22404,1564322907835,2,1.88,1.38,0.7,2.24,1.93,0.65,1.04,0.74,-30,-1,-29,1.22,5992,26,79,32,62,919,431.0,577,460,60,131.0,161,1,377,257,62,0,0,431,1779,3826,380,-5.59,,,,,,,,,,,,
22424,1564322907855,1,1.9,1.39,0.7,2.24,1.93,0.61,1.12,0.81,-30,-2,-32,1.28,5916,26,79,32,62,918,434.0,580,461,60,131.0,161,1,368,258,62,0,0,436,-768,19477,380,-5.59,,,,,,,,,,,,
22444,1564322907875,1,1.92,1.39,0.71,2.25,1.93,0.59,1.13,0.8,-31,-0,-34,1.27,5844,26,79,32,62,922,432.0,574,460,60,130.0,150,1,361,260,57,0,0,432,243,-6387,380,-5.59,44.68018,10.01676,39.71,178.5,0,0.0,-1,0.0,0.0,0,0.25,0.3741
22464,1564322907899,-0,1.95,1.39,0.71,2.25,1.93,0.67,1.09,0.73,-31,-0,-35,1.28,5870,26,79,33,62,927,432.0,571,457,60,131.0,150,1,364,259,57,0,0,431,-3322,-21792,381,-5.59,,,,,,,,,,,,
22484,1564322907919,-1,1.98,1.39,0.71,2.25,1.93,0.75,1.03,0.6,-32,-1,-37,1.27,5835,27,79,33,62,935,432.0,573,462,60,130.0,150,1,361,260,57,0,0,432,-3322,13040,383,-5.59,,,,,,,,,,,,
22504,1564322907939,-1,2.01,1.39,0.7,2.24,1.92,0.81,0.97,0.47,-32,-2,-38,1.26,5778,27,79,33,63,948,434.0,571,461,60,130.0,150,1,352,269,57,0,0,432,-7939,-28332,385,-5.59,,,,,,,,,,,,
22524,1564322907959,-0,2.03,1.38,0.7,2.23,1.92,0.82,0.93,0.47,-32,-2,-40,1.24,5817,27,79,33,63,967,434.0,568,462,60,129.0,150,1,356,268,57,0,0,433,-768,26704,387,-5.59,,,,,,,,,,,,
22544,1564322907979,2,2.04,1.37,0.69,2.22,1.91,0.76,1.01,0.52,-33,-2,-41,1.26,5896,27,79,33,63,984,435.0,567,465,60,130.0,152,1,364,267,59,0,0,429,-7939,7154,386,414.87,44.680168,10.016759,39.64,178.6,0,0.0,-1,0.0,0.0,0,0.26,0.3757
22564,1564322907999,2,2.03,1.38,0.68,2.22,1.9,0.68,1.11,0.61,-33,-1,-41,1.3,5886,33,79,33,64,995,434.0,570,465,60,131.0,152,1,360,276,59,0,0,433,-3322,-21792,388,181.28,,,,,,,,,,,,
22584,1564322908009,2,2.01,1.38,0.67,2.22,1.89,0.6,1.2,0.74,-33,-1,-42,1.34,5808,36,79,33,66,1008,431.0,571,462,60,131.0,152,1,347,284,59,0,0,431,1779,-28332,390,-5.59,,,,,,,,,,,,
22604,1564322908029,0,2.0,1.38,0.67,2.22,1.88,0.55,1.24,0.86,-33,-0,-42,1.35,5753,36,79,33,68,1026,432.0,563,462,60,131.0,152,1,337,301,59,0,0,431,-3322,-3314,390,-5.59,,,,,,,,,,,,
22624,1564322908049,-2,1.99,1.37,0.67,2.21,1.89,0.57,1.23,0.79,-33,0,-41,1.36,5719,36,79,33,69,1041,433.0,560,458,60,131.0,152,1,334,323,59,0,0,428,1779,-4059,392,-5.59,,,,,,,,,,,,
22644,1564322908069,-2,1.97,1.38,0.67,2.2,1.88,0.67,1.19,0.65,-32,-1,-41,1.37,5733,37,79,33,70,1048,432.0,561,459,60,130.0,186,1,334,349,73,0,0,428,-3322,-8165,392,-5.59,44.680157,10.01676,39.41,178.6,0,0.0,-1,0.0,0.0,0,0.26,0.3774
22664,1564322908097,-1,1.96,1.37,0.67,2.22,1.89,0.74,1.13,0.52,-32,-1,-40,1.35,5774,37,79,33,71,1055,431.0,563,459,60,129.0,186,1,336,350,73,0,0,430,1779,13180,390,-5.59,,,,,,,,,,,,
22684,1564322908117,0,1.97,1.38,0.67,2.21,1.88,0.78,1.14,0.5,-32,0,-41,1.38,5826,37,79,33,72,1059,434.0,565,459,60,130.0,186,1,339,366,73,0,0,429,243,-3414,390,-5.59,,,,,,,,,,,,
22704,1564322908137,-0,1.95,1.37,0.67,2.21,1.89,0.75,1.22,0.53,-33,2,-41,1.43,5890,37,79,33,72,1063,434.0,567,462,60,130.0,186,1,345,368,73,0,0,434,-768,19477,390,-5.59,,,,,,,,,,,,
22724,1564322908157,1,1.96,1.37,0.67,2.21,1.89,0.66,1.3,0.58,-34,3,-41,1.46,5973,37,79,33,72,1060,436.0,570,465,60,130.0,186,1,350,371,73,0,0,434,5600,-28332,390,181.28,,,,,,,,,,,,
22744,1564322908177,1,1.95,1.37,0.68,2.22,1.88,0.54,1.36,0.65,-35,4,-42,1.46,6007,37,79,32,72,1058,438.0,576,464,60,130.0,215,1,352,372,84,0,0,437,5600,26704,390,-5.59,44.680149,10.016763,39.94,178.7,0,0.0,-1,0.0,0.0,0,0.26,0.3791
22764,1564322908199,3,1.94,1.37,0.67,2.23,1.89,0.45,1.41,0.67,-35,6,-43,1.48,6046,38,79,33,72,1063,438.0,581,463,60,130.0,215,1,353,372,84,0,0,436,21580,26704,389,-5.59,,,,,,,,,,,,
22784,1564322908219,3,1.94,1.38,0.67,2.23,1.89,0.41,1.42,0.69,-36,7,-44,1.48,6007,38,79,33,72,1067,441.0,582,463,60,129.0,215,1,353,372,84,0,0,441,26704,-28332,389,-5.59,,,,,,,,,,,,
22804,1564322908239,3,1.92,1.38,0.68,2.22,1.9,0.37,1.42,0.64,-37,8,-44,1.47,5973,38,79,33,72,1076,441.0,580,463,60,130.0,215,1,351,294,84,0,0,440,23400,3571,390,-5.59,,,,,,,,,,,,
22824,1564322908259,3,1.92,1.37,0.68,2.23,1.89,0.3,1.45,0.66,-37,9,-45,1.48,5959,38,79,33,72,1085,443.0,576,463,60,130.0,215,1,350,370,84,0,0,439,-18341,21432,391,-5.59,,,,,,,,,,,,
22844,1564322908279,3,1.92,1.37,0.68,2.23,1.9,0.25,1.5,0.67,-38,10,-45,1.52,6013,38,79,32,72,1092,441.0,580,462,60,130.0,215,1,353,372,84,0,0,442,26704,21580,391,-5.59,44.680138,10.016767,39.67,178.7,0,0.0,-1,0.0,0.0,0,0.26,0.3807
22864,1564322908297,3,1.92,1.38,0.68,2.23,1.9,0.24,1.55,0.7,-39,11,-46,1.57,6021,38,79,32,73,1100,441.0,585,465,60,131.0,215,1,352,372,84,0,0,443,26704,8488,391,-5.59,,,,,,,,,,,,
22884,1564322908317,1,1.93,1.38,0.69,2.24,1.89,0.19,1.6,0.72,-39,11,-46,1.61,6023,38,79,32,73,1098,443.0,581,465,60,130.0,215,1,352,387,84,0,0,444,-18341,-23623,392,-5.59,,,,,,,,,,,,
22904,1564322908337,0,1.92,1.38,0.69,2.24,1.9,0.17,1.61,0.77,-40,12,-47,1.62,6393,38,79,33,73,1096,446.0,585,463,60,130.0,215,1,357,389,84,0,0,445,16648,17628,391,-5.59,,,,,,,,,,,,
22924,1564322908357,-0,1.93,1.38,0.69,2.25,1.9,0.21,1.58,0.72,-40,12,-48,1.59,6260,39,79,33,73,1093,444.0,594,462,60,128.0,215,1,360,390,84,0,0,448,21432,-8985,390,-5.59,,,,,,,,,,,,
22944,1564322908377,-1,1.91,1.38,0.69,2.25,1.9,0.37,1.43,0.77,-41,8,-49,1.48,6291,39,79,32,73,1091,445.0,598,460,60,131.0,235,1,361,390,92,0,0,458,2131,16408,392,-5.59,44.68013,10.016771,40.18,178.8,0,0.0,-1,0.0,0.0,0,0.26,0.3824
22964,1564322908397,-0,1.93,1.38,0.7,2.25,1.91,0.52,1.31,0.8,-41,6,-49,1.41,6273,41,79,32,73,1089,450.0,599,460,60,131.0,235,1,361,390,92,0,0,460,-3267,14488,393,-5.59,,,,,,,,,,,,
22984,1564322908417,3,1.91,1.38,0.7,2.25,1.91,0.49,1.33,0.91,-41,4,-50,1.41,6157,42,79,32,74,1087,452.0,594,462,60,131.0,235,1,356,405,92,0,0,459,-6387,10305,393,-5.59,,,,,,,,,,,,
23004,1564322908437,3,1.91,1.38,0.7,2.26,1.91,0.43,1.37,0.9,-41,4,-51,1.44,6141,42,79,32,75,1082,452.0,592,460,60,130.0,235,1,354,344,92,0,0,456,-6387,17628,392,-5.59,,,,,,,,,,,,
23024,1564322908457,2,1.92,1.38,0.7,2.25,1.91,0.4,1.37,0.77,-42,5,-51,1.43,6121,43,79,32,75,1077,454.0,588,463,60,130.0,235,1,353,420,92,0,0,454,2524,-6387,395,-5.59,,,,,,,,,,,,
23044,1564322908477,-1,1.92,1.38,0.71,2.25,1.91,0.45,1.35,0.6,-43,5,-50,1.43,6109,44,79,32,76,1073,454.0,591,460,60,129.0,244,1,351,361,97,0,0,454,2524,-3267,396,-5.59,44.680122,10.016778,40.5,178.8,0,0.0,-1,0.0,0.0,0,0.26,0.3841
23064,1564322908495,-1,1.92,1.38,0.71,2.27,1.92,0.51,1.31,0.46,-42,5,-49,1.4,6216,51,79,32,77,1069,451.0,591,458,60,128.0,244,1,355,443,97,0,0,454,2524,2212,396,-5.59,,,,,,,,,,,,
23084,1564322908515,0,1.93,1.39,0.71,2.26,1.92,0.63,1.2,0.36,-42,4,-49,1.35,6430,58,79,32,79,1064,453.0,599,460,60,130.0,244,1,361,465,97,0,0,454,-8985,-1923,395,-5.59,,,,,,,,,,,,
23104,1564322908535,1,1.95,1.38,0.7,2.26,1.92,0.62,1.22,0.44,-41,2,-51,1.37,6530,64,79,32,82,1058,453.0,606,463,60,131.0,244,1,362,478,97,0,0,464,-8985,-3210,397,-5.59,,,,,,,,,,,,
23124,1564322908555,-1,1.96,1.38,0.71,2.26,1.91,0.54,1.26,0.47,-41,4,-51,1.37,6558,67,79,32,85,1053,456.0,607,461,60,129.0,244,1,358,490,97,0,0,469,14488,2212,400,-5.59,,,,,,,,,,,,
23144,1564322908575,-0,1.97,1.38,0.71,2.27,1.91,0.69,1.2,0.62,-42,3,-52,1.38,6530,68,79,32,86,1050,460.0,603,460,60,131.0,304,1,355,498,122,0,0,478,-23623,-23367,402,-5.59,44.680111,10.016786,40.38,178.8,0,0.0,-1,0.0,0.0,0,0.26,0.3857
23164,1564322908595,3,1.99,1.38,0.71,2.26,1.91,0.58,1.27,0.72,-42,3,-53,1.39,6512,68,79,32,87,1046,462.0,606,459,60,131.0,304,1,352,502,122,0,0,479,12552,243,400,-5.59,,,,,,,,,,,,
23184,1564322908615,-2,2.0,1.38,0.71,2.25,1.91,0.56,1.3,0.64,-43,5,-54,1.41,6414,69,79,32,88,1040,465.0,603,463,60,131.0,304,1,345,503,122,0,0,474,30272,771,402,-5.59,,,,,,,,,,,,
23204,1564322908635,-0,2.03,1.38,0.7,2.26,1.91,0.71,1.19,0.71,-44,3,-54,1.39,6465,69,79,32,88,1037,467.0,601,462,60,130.0,304,1,347,504,122,0,0,480,243,248,402,-5.59,,,,,,,,,,,,
23224,1564322908655,3,2.04,1.38,0.7,2.25,1.91,0.58,1.27,0.75,-42,1,-53,1.39,6581,69,79,32,88,1036,466.0,603,461,60,131.0,304,1,353,508,122,0,0,479,-3210,-18108,402,-5.59,,,,,,,,,,,,
23244,1564322908675,-0,2.07,1.37,0.7,2.25,1.91,0.58,1.31,0.76,-42,3,-56,1.43,6578,69,79,32,88,1034,466.0,607,461,60,129.0,316,1,353,508,127,0,0,482,10432,248,401,-5.59,44.680103,10.016794,41.65,178.8,0,0.0,-1,0.0,0.0,0,0.26,0.3874
23264,1564322908695,2,2.09,1.37,0.69,2.24,1.91,0.68,1.15,0.82,-41,0,-55,1.34,6627,70,79,32,88,1029,471.0,607,456,60,130.0,316,1,355,435,127,0,0,490,32033,-3856,405,-5.59,,,,,,,,,,,,
23284,1564322908715,-0,2.11,1.37,0.7,2.24,1.9,0.55,1.2,0.75,-40,1,-54,1.32,6754,70,79,32,89,1024,474.0,605,462,60,131.0,316,1,360,515,127,0,0,488,-9203,243,413,-5.59,,,,,,,,,,,,
23304,1564322908735,2,2.13,1.37,0.69,2.24,1.9,0.61,1.13,0.81,-40,1,-53,1.28,6761,70,79,32,88,1022,475.0,613,462,60,131.0,316,1,362,515,127,0,0,496,-23367,-10483,422,-5.59,,,,,,,,,,,,
23324,1564322908755,-0,2.14,1.37,0.69,2.24,1.89,0.48,1.21,0.79,-39,3,-53,1.3,6706,70,79,32,89,1014,478.0,608,462,60,131.0,316,1,357,513,127,0,0,499,16648,-9212,425,181.28,,,,,,,,,,,,
23344,1564322908775,0,2.14,1.37,0.7,2.24,1.89,0.6,1.13,0.89,-38,1,-51,1.28,6701,70,79,32,89,1003,479.0,613,458,60,131.0,306,1,357,518,131,0,0,495,10305,-1562,427,-5.59,44.680096,10.016805,42.03,178.8,0,0.0,-1,0.0,0.0,0,0.26,0.3891
23364,1564322908794,-0,2.15,1.36,0.69,2.23,1.89,0.53,1.2,0.93,-37,0,-50,1.31,6694,70,79,32,89,994,478.0,610,461,60,130.0,306,1,357,517,131,0,0,492,-23367,-1923,430,414.87,,,,,,,,,,,,
23384,1564322908814,0,2.15,1.37,0.69,2.23,1.89,0.62,1.06,0.97,-36,-2,-48,1.23,6641,71,79,32,89,988,477.0,606,462,60,129.0,306,1,354,515,131,0,0,490,2212,16383,433,-5.59,,,,,,,,,,,,
23404,1564322908834,-2,2.16,1.37,0.69,2.23,1.89,0.52,1.13,0.98,-34,-3,-48,1.24,6694,71,79,32,89,968,481.0,609,462,60,131.0,306,1,357,517,131,0,0,495,32033,-6656,442,-5.59,,,,,,,,,,,,
23424,1564322908854,1,2.15,1.37,0.69,2.23,1.89,0.62,1.05,0.89,-34,-3,-45,1.22,6747,71,78,32,89,931,483.0,603,461,60,130.0,306,1,360,519,131,0,0,497,3580,10432,447,-5.59,,,,,,,,,,,,
23444,1564322908874,3,2.15,1.38,0.69,2.23,1.89,0.52,1.1,0.89,-31,-4,-44,1.22,6706,71,79,32,89,897,484.0,609,462,60,131.0,293,1,357,518,132,0,0,497,-10483,10994,451,-5.59,44.680092,10.016818,43.54,178.8,0,0.0,-1,0.0,0.0,0,0.27,0.3907
23464,1564322908898,0,2.16,1.36,0.69,2.23,1.9,0.58,1.04,0.78,-30,-3,-42,1.2,6665,71,78,32,89,866,489.0,605,464,60,130.0,293,1,355,516,132,0,0,495,-6656,-9216,456,-5.59,,,,,,,,,,,,
23484,1564322908918,2,2.16,1.37,0.69,2.24,1.89,0.56,1.06,0.88,-28,-4,-40,1.19,6730,71,79,32,89,836,490.0,611,461,60,131.0,293,1,359,519,132,0,0,498,-1818,2212,459,-5.59,,,,,,,,,,,,
23504,1564322908938,1,2.16,1.36,0.69,2.24,1.9,0.62,0.98,0.83,-27,-3,-39,1.16,6764,72,78,32,89,803,490.0,612,458,60,130.0,293,1,361,520,132,0,0,498,-1818,505,463,-5.59,,,,,,,,,,,,
23524,1564322908958,2,2.16,1.37,0.7,2.23,1.91,0.58,1.0,0.92,-25,-5,-38,1.16,6756,72,78,32,89,774,495.0,612,459,60,131.0,293,1,360,520,132,0,0,502,771,-9216,469,-5.59,,,,,,,,,,,,
23544,1564322908978,1,2.15,1.38,0.7,2.23,1.9,0.6,0.96,0.86,-24,-3,-37,1.13,6725,72,78,32,89,771,496.0,608,463,60,130.0,279,1,358,518,132,0,0,505,3,-6656,474,-5.59,44.680084,10.01683,45.34,178.8,0,0.0,-1,0.0,0.0,0,0.27,0.3924
23564,1564322908991,3,2.16,1.37,0.7,2.24,1.91,0.57,0.93,0.97,-23,-4,-37,1.09,6756,72,78,32,89,767,500.0,608,460,60,131.0,279,1,360,445,132,0,0,506,10408,-6528,475,-5.59,,,,,,,,,,,,
23584,1564322909011,1,2.15,1.38,0.7,2.25,1.9,0.59,0.89,0.84,-21,-1,-35,1.07,6773,72,78,32,90,763,501.0,607,465,60,130.0,279,1,359,520,132,0,0,504,11560,2524,479,-5.59,,,,,,,,,,,,
23604,1564322909031,2,2.15,1.37,0.71,2.25,1.91,0.58,0.88,0.96,-21,-3,-34,1.05,6805,72,78,32,89,759,503.0,610,458,60,131.0,279,1,363,521,132,0,0,508,2109,-22519,480,-5.59,,,,,,,,,,,,
23624,1564322909051,1,2.14,1.38,0.71,2.25,1.91,0.65,0.81,0.88,-20,-2,-32,1.04,6880,73,78,32,90,760,505.0,609,462,60,130.0,279,1,365,530,132,0,0,506,6274,-32248,483,-5.59,,,,,,,,,,,,
23644,1564322909071,0,2.14,1.38,0.7,2.25,1.91,0.57,0.89,0.91,-19,-2,-31,1.06,6900,72,78,32,89,759,510.0,612,462,60,131.0,283,1,368,525,137,0,0,510,-4054,17136,486,-5.59,44.68008,10.016845,46.41,178.8,0,0.0,-1,0.0,0.0,0,0.27,0.3941
23664,1564322909098,1,2.13,1.38,0.71,2.25,1.91,0.65,0.83,0.93,-19,-3,-31,1.05,6996,73,78,32,89,756,512.0,615,459,60,131.0,283,1,372,528,137,0,0,515,-3856,6274,488,181.28,,,,,,,,,,,,
23684,1564322909118,1,2.14,1.38,0.71,2.25,1.92,0.64,0.8,0.87,-20,-2,-30,1.02,7099,73,78,32,89,753,515.0,613,463,60,130.0,283,1,380,531,137,0,0,518,15679,1341,491,-5.59,,,,,,,,,,,,
23704,1564322909138,-1,2.14,1.38,0.71,2.25,1.92,0.58,0.88,0.91,-19,-1,-30,1.05,7153,73,78,32,89,750,520.0,614,461,60,130.0,283,1,385,534,137,0,0,521,1248,-32248,492,-5.59,,,,,,,,,,,,
23724,1564322909158,0,2.12,1.38,0.71,2.26,1.91,0.54,0.91,0.97,-19,-1,-29,1.06,7236,73,78,32,88,746,522.0,617,460,60,130.0,283,1,391,530,137,0,0,528,-9212,10408,495,-5.59,,,,,,,,,,,,
23744,1564322909178,-1,2.13,1.38,0.71,2.26,1.91,0.61,0.86,1.01,-19,-2,-28,1.05,7264,73,78,32,88,744,522.0,623,462,60,131.0,294,1,393,531,146,0,0,532,6274,2104,497,-5.59,44.680073,10.016861,47.93,178.8,0,0.0,-1,0.0,0.0,0,0.27,0.3957
23764,1564322909198,3,2.12,1.38,0.72,2.25,1.91,0.69,0.82,1.0,-20,-1,-28,1.07,7278,73,78,32,88,740,529.0,619,459,60,130.0,294,1,394,532,146,0,0,534,2524,-2934,501,-5.59,,,,,,,,,,,,
23784,1564322909218,4,2.12,1.38,0.71,2.27,1.92,0.73,0.7,1.02,-21,-1,-28,1.01,7387,73,78,32,88,740,533.0,620,460,60,129.0,294,1,401,535,146,0,0,537,2104,-9072,503,-5.59,,,,,,,,,,,,
23804,1564322909238,3,2.11,1.38,0.72,2.26,1.92,0.77,0.66,0.95,-21,-1,-28,1.01,7390,73,78,32,87,740,534.0,617,462,60,129.0,294,1,401,527,146,0,0,541,-32248,-3082,507,-5.59,,,,,,,,,,,,
23824,1564322909258,2,2.11,1.38,0.72,2.26,1.93,0.76,0.69,0.93,-21,1,-28,1.03,7413,73,78,32,87,742,540.0,621,460,60,130.0,294,1,403,536,146,0,0,545,-8186,-22263,507,-5.59,,,,,,,,,,,,
23844,1564322909278,2,2.1,1.38,0.72,2.27,1.92,0.71,0.67,0.92,-21,2,-27,0.98,7405,73,78,32,87,744,542.0,620,463,60,130.0,292,1,402,529,149,0,0,546,-3082,6274,514,-5.59,44.680073,10.016877,48.95,178.7,0,0.0,-1,0.0,0.0,0,0.27,0.3974
23864,1564322909298,1,2.1,1.38,0.73,2.26,1.93,0.65,0.74,0.84,-21,2,-27,0.98,7431,73,78,32,87,746,546.0,620,461,60,130.0,292,1,404,528,149,0,0,549,2524,2524,512,-5.59,,,,,,,,,,,,
23884,1564322909318,1,2.1,1.38,0.73,2.26,1.92,0.59,0.86,0.78,-20,3,-27,1.04,7473,73,78,32,87,748,547.0,615,461,60,130.0,292,1,406,529,149,0,0,554,-22519,2524,516,-5.59,,,,,,,,,,,,
23904,1564322909338,3,2.1,1.38,0.72,2.27,1.92,0.53,0.92,0.73,-20,4,-26,1.06,7600,73,78,32,87,752,550.0,619,462,60,129.0,292,1,415,534,149,0,0,560,-32248,6274,517,-5.59,,,,,,,,,,,,
23924,1564322909358,3,2.1,1.38,0.72,2.26,1.93,0.55,0.82,0.68,-20,4,-26,0.99,7712,73,78,32,86,757,554.0,622,465,60,130.0,292,1,423,528,149,0,0,563,2524,-1894,522,-5.59,,,,,,,,,,,,
23944,1564322909378,-1,2.1,1.38,0.72,2.26,1.92,0.67,0.75,0.74,-22,3,-27,1.01,7888,73,78,32,84,759,560.0,630,462,60,130.0,293,1,431,522,153,0,0,568,-32504,30208,522,-5.59,44.680069,10.016893,50.57,178.7,0,0.0,-1,0.0,0.0,0,0.27,0.3991
23964,1564322909400,2,2.09,1.38,0.73,2.25,1.92,0.62,0.76,0.81,-22,2,-29,0.98,7992,68,78,32,82,761,564.0,626,462,60,130.0,293,1,437,495,153,0,0,576,12552,-28648,522,-5.59,,,,,,,,,,,,
23984,1564322909420,3,2.09,1.38,0.72,2.26,1.92,0.53,0.67,0.74,-23,4,-29,0.86,8106,54,78,32,78,763,569.0,628,461,60,130.0,293,1,436,467,153,0,0,583,-29984,-3820,525,-5.59,,,,,,,,,,,,
24004,1564322909440,-1,2.1,1.38,0.73,2.26,1.92,0.64,0.68,0.79,-24,3,-31,0.94,8152,37,78,32,71,765,571.0,630,465,60,131.0,293,1,442,399,153,0,0,591,1267,3472,532,-5.59,,,,,,,,,,,,
24024,1564322909460,4,2.09,1.38,0.73,2.25,1.92,0.54,0.73,0.73,-24,2,-31,0.91,8043,22,78,32,63,767,576.0,630,465,60,130.0,293,1,450,326,153,0,0,596,1,-32504,529,181.28,,,,,,,,,,,,
24044,1564322909480,8,2.08,1.38,0.73,2.26,1.92,0.47,0.69,0.69,-25,4,-31,0.84,7649,11,78,32,56,768,581.0,630,464,60,130.0,165,1,404,276,88,0,0,592,259,-30159,528,-5.59,44.680065,10.016911,52.08,178.7,0,0.0,-1,0.0,0.0,0,0.27,0.4007
24064,1564322909496,7,2.08,1.38,0.73,2.26,1.93,0.5,0.82,0.56,-26,5,-30,0.96,7164,5,78,32,50,768,571.0,622,461,60,129.0,165,1,378,160,88,0,0,577,1267,-30159,520,-5.59,,,,,,,,,,,,
24084,1564322909516,9,2.09,1.37,0.73,2.25,1.93,0.51,0.88,0.54,-26,4,-31,1.02,6916,0,78,32,46,767,570.0,616,466,60,130.0,165,1,361,220,88,0,0,569,-3190,14504,511,-5.59,,,,,,,,,,,,
24104,1564322909536,9,2.11,1.38,0.72,2.25,1.92,0.57,0.86,0.44,-25,2,-31,1.03,6718,0,78,32,43,767,567.0,617,463,60,130.0,165,1,338,216,88,0,0,563,-8186,1248,501,-5.59,,,,,,,,,,,,
24124,1564322909556,12,2.11,1.38,0.73,2.26,1.92,0.56,0.87,0.44,-24,-2,-31,1.03,6565,0,78,32,41,766,566.0,612,461,60,131.0,165,1,323,211,88,0,0,561,-2934,1,507,-5.59,,,,,,,,,,,,
24144,1564322909576,10,2.14,1.38,0.73,2.26,1.93,0.58,0.91,0.43,-23,-2,-32,1.08,6421,0,78,32,40,763,569.0,603,466,60,130.0,99,1,316,131,51,0,0,559,-29984,30272,517,-5.59,44.680061,10.016929,53.32,178.6,0,0.0,-1,0.0,0.0,0,0.27,0.4024
24164,1564322909596,10,2.18,1.38,0.73,2.27,1.93,0.67,0.94,0.32,-23,-1,-33,1.16,6281,0,78,32,38,761,568.0,599,462,60,130.0,99,1,307,208,51,0,0,549,-8186,1779,528,-5.59,,,,,,,,,,,,
24184,1564322909616,10,2.2,1.39,0.73,2.29,1.93,0.78,0.8,0.27,-23,-3,-35,1.12,6254,0,78,32,38,760,565.0,601,465,60,130.0,99,1,307,202,51,0,0,539,-30159,8200,525,-5.59,,,,,,,,,,,,
24204,1564322909636,10,2.22,1.4,0.73,2.3,1.93,0.84,0.72,0.31,-23,-3,-35,1.1,6210,0,78,32,37,760,561.0,598,463,60,130.0,99,1,304,196,51,0,0,544,-32504,770,524,-5.59,,,,,,,,,,,,
24224,1564322909656,10,2.22,1.4,0.74,2.31,1.94,0.79,0.76,0.26,-23,-2,-34,1.09,6177,0,78,32,36,769,556.0,595,460,60,132.0,99,1,301,190,51,0,0,528,-22359,-9211,522,-5.59,,,,,,,,,,,,
24244,1564322909676,11,2.23,1.41,0.74,2.31,1.94,0.76,0.82,0.21,-22,-1,-33,1.12,6225,0,78,32,36,788,550.0,595,462,60,131.0,84,1,301,190,44,0,0,516,-32248,13040,519,-5.59,44.680058,10.016948,54.96,178.6,0,0.0,-1,0.0,0.0,0,0.28,0.4041
24264,1564322909696,8,2.24,1.4,0.74,2.32,1.95,0.79,0.84,0.17,-22,0,-31,1.15,6294,0,78,32,36,808,539.0,600,464,60,131.0,84,1,301,190,44,0,0,513,1780,-8151,516,-5.59,,,,,,,,,,,,
24284,1564322909716,7,2.25,1.41,0.75,2.33,1.95,0.9,0.8,0.13,-21,-0,-31,1.2,6296,0,78,32,35,828,537.0,601,463,60,131.0,84,1,298,107,44,0,0,507,-30064,2524,511,-5.59,,,,,,,,,,,,
24304,1564322909736,7,2.27,1.41,0.75,2.33,1.96,1.01,0.74,0.14,-21,-2,-30,1.25,6262,0,78,32,35,852,533.0,605,463,60,129.0,84,1,298,185,44,0,0,508,14504,-8165,510,-5.59,,,,,,,,,,,,
24324,1564322909756,10,2.28,1.42,0.76,2.34,1.96,0.96,0.63,0.2,-20,-1,-30,1.15,6258,0,78,32,34,885,527.0,605,462,60,131.0,84,1,295,179,44,0,0,498,10408,2524,505,-5.59,,,,,,,,,,,,
24344,1564322909776,11,2.3,1.42,0.76,2.33,1.97,0.92,0.68,0.15,-17,0,-29,1.14,6319,0,78,32,34,914,519.0,607,464,60,131.0,83,1,295,179,42,0,0,476,16383,-23623,505,-5.59,44.680058,10.016968,53.35,178.6,0,0.0,-1,0.0,0.0,0,0.28,0.4057
24364,1564322909796,7,2.34,1.42,0.77,2.34,1.96,0.94,0.65,0.16,-15,1,-27,1.14,6421,0,78,32,34,926,511.0,598,466,60,131.0,83,1,295,179,42,0,0,474,17136,-16384,501,-5.59,,,,,,,,,,,,
24384,1564322909816,9,2.35,1.42,0.77,2.34,1.97,1.0,0.56,0.18,-14,-0,-26,1.15,6465,0,78,32,33,941,508.0,573,466,60,130.0,83,1,292,174,42,0,0,449,-3414,-10483,499,-5.59,,,,,,,,,,,,
24404,1564322909836,10,2.36,1.43,0.76,2.35,1.97,1.0,0.43,0.26,-12,-3,-23,1.09,6432,0,78,32,33,958,499.0,575,461,60,131.0,83,1,292,174,42,0,0,455,-22519,-23367,497,-5.59,,,,,,,,,,,,
24424,1564322909856,10,2.36,1.43,0.77,2.35,1.98,0.89,0.41,0.28,-9,0,-20,0.99,6353,0,78,32,32,972,496.0,585,461,60,131.0,83,1,290,90,42,0,0,470,771,-10483,496,-5.59,,,,,,,,,,,,
24444,1564322909876,5,2.37,1.42,0.77,2.34,1.98,0.92,0.45,0.24,-7,2,-18,1.02,6338,0,78,31,33,974,495.0,597,464,60,131.0,82,1,292,174,41,0,0,475,505,-9203,495,-5.59,44.680058,10.016986,51.45,178.5,0,0.0,-1,0.0,0.0,0,0.28,0.4074
24464,1564322909899,6,2.39,1.43,0.77,2.36,1.98,1.02,0.34,0.2,-6,0,-16,1.08,6355,0,78,31,32,977,491.0,603,463,60,130.0,82,1,290,169,41,0,0,468,8488,-3210,491,-5.59,,,,,,,,,,,,
24484,1564322909919,5,2.4,1.43,0.78,2.36,1.99,1.05,0.22,0.21,-3,-1,-13,1.08,6364,0,78,31,32,981,490.0,606,463,60,131.0,82,1,290,169,41,0,0,464,16648,10432,490,-5.59,,,,,,,,,,,,
24504,1564322909939,4,2.42,1.43,0.77,2.36,1.99,0.92,0.13,0.25,-1,-0,-11,0.93,6345,0,78,31,32,984,493.0,603,460,60,132.0,82,1,290,169,41,0,0,460,-9203,3576,490,-5.59,,,,,,,,,,,,
24524,1564322909959,1,2.41,1.43,0.77,2.36,1.98,0.88,0.08,0.18,2,2,-9,0.88,6315,0,78,31,32,983,490.0,598,462,60,131.0,82,1,290,90,41,0,0,444,32033,3580,490,-5.59,,,,,,,,,,,,
24544,1564322909979,-0,2.43,1.43,0.77,2.36,1.99,0.99,-0.04,0.13,3,2,-5,0.99,6264,0,78,31,32,984,489.0,599,466,60,130.0,81,1,290,90,40,0,0,438,8488,32033,489,-5.59,44.680058,10.017003,49.62,178.4,0,0.0,-1,0.0,0.0,0,0.28,0.4091
24564,1564322909999,-2,2.43,1.43,0.77,2.37,1.98,1.09,-0.12,0.14,5,0,-4,1.1,6227,0,78,31,32,986,490.0,604,463,60,130.0,81,1,290,169,40,0,0,449,243,-10483,490,-5.59,,,,,,,,,,,,
24584,1564322910009,-2,2.45,1.43,0.77,2.36,1.99,1.14,-0.24,0.19,6,-2,-2,1.17,6235,0,78,31,32,987,487.0,601,461,60,131.0,81,1,290,169,40,0,0,444,12552,10305,487,-5.59,,,,,,,,,,,,
24604,1564322910029,0,2.45,1.43,0.77,2.37,1.98,1.1,-0.34,0.27,8,-1,1,1.15,6260,4,78,31,32,987,486.0,603,460,60,131.0,81,1,290,90,40,0,0,438,-23623,3580,486,-5.59,,,,,,,,,,,,
24624,1564322910049,3,2.44,1.42,0.77,2.37,1.99,1.0,-0.38,0.27,9,1,2,1.07,6264,5,78,31,32,987,485.0,601,462,60,131.0,81,1,290,169,40,0,0,444,17628,-9203,485,-5.59,,,,,,,,,,,,
24644,1564322910069,-0,2.45,1.43,0.77,2.38,1.98,0.93,-0.42,0.25,10,3,4,1.02,6270,5,78,31,32,987,480.0,601,462,60,130.0,82,1,290,90,40,0,0,442,14488,-23367,480,-5.59,44.680058,10.01702,47.9,178.3,0,0.0,-1,0.0,0.0,0,0.28,0.4107
24664,1564322910097,-1,2.46,1.44,0.77,2.38,1.99,1.0,-0.48,0.26,10,3,7,1.11,6208,5,78,31,32,987,478.0,601,461,60,129.0,82,1,290,169,40,0,0,438,2524,-1923,478,-5.59,,,,,,,,,,,,
24684,1564322910117,-1,2.48,1.44,0.77,2.38,1.98,1.1,-0.51,0.23,10,0,9,1.21,6155,6,78,31,32,987,476.0,602,461,60,129.0,82,1,290,169,40,0,0,433,2524,32033,476,-5.59,,,,,,,,,,,,
24704,1564322910137,-2,2.49,1.43,0.77,2.37,1.99,1.19,-0.61,0.23,11,-3,10,1.34,6109,18,78,31,33,986,476.0,600,461,60,130.0,82,1,292,174,40,0,0,440,-6387,8488,476,-5.59,,,,,,,,,,,,
24724,1564322910157,-2,2.49,1.43,0.77,2.37,1.99,1.28,-0.72,0.24,12,-5,12,1.47,6097,35,78,31,37,983,477.0,596,462,60,131.0,82,1,304,196,40,0,0,426,10305,10432,475,-5.59,,,,,,,,,,,,
24744,1564322910177,-0,2.49,1.44,0.77,2.38,1.99,1.28,-0.77,0.29,14,-7,14,1.49,6155,49,78,31,46,979,475.0,598,462,60,130.0,100,1,354,216,48,0,0,422,8488,8488,475,-5.59,44.680061,10.017037,46.86,178.3,0,0.0,-1,0.0,0.0,0,0.28,0.4124
24764,1564322910197,1,2.5,1.44,0.77,2.38,1.99,1.12,-0.78,0.4,16,-6,14,1.36,6334,58,78,31,57,976,475.0,601,460,60,131.0,100,1,389,260,48,0,0,432,2131,10432,475,-5.59,,,,,,,,,,,,
24784,1564322910217,-1,2.48,1.43,0.77,2.38,1.99,1.09,-0.76,0.33,16,-3,17,1.32,6510,62,78,31,68,972,476.0,601,465,60,131.0,100,1,375,310,48,0,0,436,-18341,3576,475,-5.59,,,,,,,,,,,,
24804,1564322910237,2,2.49,1.43,0.78,2.37,1.99,1.11,-0.83,0.37,17,-4,18,1.38,6739,63,78,31,74,968,474.0,607,460,60,130.0,100,1,375,412,48,0,0,441,-18341,8488,474,-5.59,,,,,,,,,,,,
24824,1564322910257,0,2.48,1.43,0.77,2.37,2.0,1.02,-0.81,0.34,19,-1,20,1.31,6823,64,78,31,79,963,474.0,607,462,60,130.0,100,1,374,464,48,0,0,438,20625,32033,474,-5.59,,,,,,,,,,,,
24844,1564322910277,0,2.46,1.44,0.78,2.37,1.99,1.04,-0.84,0.46,19,-3,22,1.34,6985,64,78,31,81,962,473.0,547,462,60,131.0,261,1,378,479,124,0,0,441,26704,-9203,475,-5.59,44.680061,10.017053,45.8,178.2,0,0.0,-1,0.0,0.0,0,0.28,0.4141
24864,1564322910299,3,2.47,1.43,0.78,2.37,2.0,1.09,-0.89,0.46,20,-2,23,1.41,7189,65,78,31,82,962,474.0,562,461,60,131.0,261,1,390,488,124,0,0,467,23400,-899,474,-5.59,,,,,,,,,,,,
24884,1564322910319,-0,2.45,1.44,0.78,2.38,1.98,1.05,-0.9,0.45,20,2,26,1.38,7001,65,78,31,83,958,478.0,438,460,60,129.0,261,1,378,495,124,0,0,586,21432,998,478,-5.59,,,,,,,,,,,,
24904,1564322910339,-0,2.45,1.43,0.78,2.37,1.99,0.99,-0.91,0.52,20,4,28,1.35,6972,65,78,31,84,955,481.0,435,463,60,131.0,261,1,376,424,124,0,0,559,16648,11560,481,-5.59,,,,,,,,,,,,
24924,1564322910359,1,2.44,1.44,0.78,2.37,2.0,1.0,-0.92,0.56,20,3,29,1.36,7078,65,78,31,85,950,481.0,497,463,60,130.0,261,1,381,507,124,0,0,491,8488,3,481,-5.59,,,,,,,,,,,,
24944,1564322910379,0,2.42,1.43,0.78,2.37,2.0,0.94,-0.85,0.62,20,3,29,1.27,6941,65,78,31,85,944,483.0,437,458,60,130.0,281,1,373,504,136,0,0,494,-8985,15661,483,-5.59,44.680058,10.017069,45.11,178.2,0,0.0,-1,0.0,0.0,0,0.29,0.4157
24964,1564322910397,3,2.4,1.44,0.77,2.38,1.99,0.88,-0.86,0.65,21,3,29,1.23,6727,65,78,31,85,944,487.0,373,463,60,131.0,281,1,365,499,136,0,0,517,14488,-3414,487,-5.59,,,,,,,,,,,,
24984,1564322910417,-1,2.39,1.43,0.77,2.36,1.99,0.78,-0.8,0.72,20,1,27,1.12,6644,56,78,31,85,949,489.0,360,459,60,129.0,281,1,362,496,136,0,0,500,2211,6274,489,-5.59,,,,,,,,,,,,
25004,1564322910437,2,2.39,1.44,0.77,2.37,1.99,0.81,-0.78,0.78,19,-1,26,1.12,6658,52,78,31,84,957,488.0,397,458,60,130.0,281,1,365,492,136,0,0,483,6193,15661,488,-5.59,,,,,,,,,,,,
25024,1564322910457,-2,2.37,1.44,0.77,2.37,1.99,0.71,-0.78,0.76,18,1,25,1.05,6653,49,78,31,82,966,488.0,402,463,60,131.0,281,1,366,481,136,0,0,493,-3210,-9216,488,-5.59,,,,,,,,,,,,
25044,1564322910477,2,2.34,1.43,0.77,2.37,1.99,0.84,-0.84,0.78,17,-2,25,1.19,6684,43,78,31,80,970,487.0,442,458,60,131.0,245,1,368,475,120,0,0,504,-17956,-9216,487,-5.59,44.680058,10.017085,45.18,178.2,0,0.0,-1,0.0,0.0,0,0.29,0.4174
25064,1564322910495,-0,2.33,1.43,0.77,2.37,2.0,0.67,-0.76,0.83,16,-0,24,1.01,6768,39,78,31,78,966,489.0,463,462,60,131.0,245,1,372,456,120,0,0,501,-9203,3,489,-5.59,,,,,,,,,,,,
25084,1564322910515,2,2.32,1.43,0.77,2.36,1.99,0.74,-0.77,0.84,14,-2,23,1.07,6895,34,78,31,75,959,491.0,451,463,60,131.0,245,1,379,428,120,0,0,494,8488,10408,491,-5.59,,,,,,,,,,,,
25104,1564322910535,1,2.29,1.44,0.77,2.36,1.98,0.66,-0.63,0.86,13,-0,22,0.92,6833,33,78,31,73,946,495.0,481,462,60,129.0,245,1,380,398,120,0,0,499,-1562,-21872,495,181.28,,,,,,,,,,,,
25124,1564322910555,1,2.28,1.43,0.76,2.35,1.99,0.71,-0.61,0.9,12,-2,20,0.94,6644,33,78,31,71,931,495.0,450,457,60,131.0,245,1,376,365,120,0,0,500,248,15661,495,-5.59,,,,,,,,,,,,
25144,1564322910575,-1,2.25,1.42,0.76,2.34,1.97,0.7,-0.55,0.91,10,-1,19,0.89,6627,28,78,31,69,916,495.0,446,463,60,130.0,175,1,378,334,87,0,0,496,248,998,495,-5.59,44.680054,10.017101,46.8,178.1,0,0.0,-1,0.0,0.0,0,0.29,0.4191
25164,1564322910595,1,2.2,1.41,0.75,2.32,1.96,0.83,-0.51,0.82,8,-3,17,0.98,6639,18,78,31,66,904,493.0,442,460,60,131.0,175,1,388,307,87,0,0,496,-6528,3,492,-5.59,,,,,,,,,,,,
25184,1564322910615,-1,2.18,1.39,0.72,2.28,1.94,0.78,-0.41,0.83,5,-2,16,0.88,6679,9,78,31,62,903,495.0,475,464,60,131.0,175,1,406,285,87,0,0,499,-9216,505,490,-5.59,,,,,,,,,,,,
25204,1564322910635,1,2.13,1.37,0.71,2.26,1.91,0.87,-0.35,0.78,2,-4,14,0.94,6710,0,78,31,56,898,500.0,526,459,60,131.0,175,1,394,265,87,0,0,500,-9216,998,488,-5.59,,,,,,,,,,,,
25224,1564322910655,-1,2.1,1.37,0.69,2.26,1.9,0.83,-0.17,0.77,-1,-4,12,0.84,6710,0,78,31,52,881,503.0,556,463,60,131.0,175,1,382,247,87,0,0,503,15661,-1818,486,-5.59,,,,,,,,,,,,
25244,1564322910675,1,2.06,1.36,0.69,2.25,1.9,0.89,-0.05,0.68,-4,-4,9,0.89,6592,0,78,31,49,864,506.0,581,466,60,129.0,121,1,371,231,59,0,0,506,-28648,-22519,484,-5.59,44.68005,10.017117,48.12,178.2,0,0.0,-1,0.0,0.0,0,0.29,0.4207
25264,1564322910695,3,2.03,1.36,0.68,2.23,1.88,0.9,-0.01,0.72,-6,-5,5,0.9,6549,0,78,31,46,850,508.0,595,460,60,131.0,121,1,358,218,59,0,0,504,-3414,-10483,481,-5.59,,,,,,,,,,,,
25284,1564322910709,3,2.04,1.36,0.69,2.23,1.88,0.78,0.16,0.7,-8,-2,1,0.79,6421,0,78,31,44,834,508.0,601,464,60,130.0,121,1,343,215,59,0,0,505,-3414,-899,477,-5.59,,,,,,,,,,,,
25304,1564322910729,-1,2.04,1.37,0.67,2.23,1.88,0.83,0.26,0.67,-10,-0,-2,0.87,6351,0,78,31,42,816,509.0,605,463,60,129.0,121,1,329,212,59,0,0,506,10994,8488,475,-5.59,,,,,,,,,,,,
25324,1564322910749,-1,2.04,1.37,0.68,2.22,1.89,0.93,0.3,0.65,-13,-2,-5,0.98,6264,0,78,31,41,799,511.0,598,460,60,131.0,121,1,323,210,59,0,0,504,-3856,-16384,472,-5.59,,,,,,,,,,,,
25344,1564322910769,1,2.03,1.36,0.68,2.22,1.89,0.98,0.3,0.61,-14,-3,-9,1.02,6105,0,78,31,40,797,508.0,595,457,60,131.0,103,1,316,209,49,0,0,504,-3414,8488,471,-5.59,44.68005,10.017133,48.75,178.2,0,0.0,-1,0.0,0.0,0,0.29,0.4224
25364,1564322910795,-0,2.02,1.37,0.68,2.23,1.89,0.98,0.31,0.5,-16,-4,-12,1.03,5975,0,78,31,39,796,510.0,588,461,60,130.0,103,1,308,207,49,0,0,501,-4054,-3210,469,-5.59,,,,,,,,,,,,
25384,1564322910815,-0,2.02,1.38,0.68,2.23,1.88,1.03,0.37,0.35,-17,-6,-15,1.1,5901,0,78,31,38,793,504.0,583,460,60,129.0,103,1,301,207,49,0,0,494,-32248,14488,467,-5.59,,,,,,,,,,,,
25404,1564322910835,-1,2.02,1.37,0.69,2.23,1.89,1.05,0.43,0.33,-18,-7,-18,1.13,5994,0,78,31,38,791,502.0,582,460,60,131.0,103,1,306,201,49,0,0,478,-32248,-26615,464,-5.59,,,,,,,,,,,,
25424,1564322910855,-0,2.01,1.38,0.69,2.23,1.89,1.08,0.4,0.33,-20,-8,-21,1.16,6077,0,78,31,37,792,503.0,582,457,60,130.0,103,1,304,202,49,0,0,487,15661,6512,459,-5.59,,,,,,,,,,,,
25444,1564322910875,-0,2.0,1.38,0.68,2.24,1.88,1.11,0.39,0.35,-22,-9,-23,1.18,6083,0,78,31,37,792,501.0,583,460,60,131.0,98,1,304,196,45,0,0,492,11560,-32702,457,-5.59,44.680046,10.01715,48.07,178.2,0,0.0,-1,0.0,0.0,0,0.29,0.4241
25464,1564322910898,1,2.0,1.38,0.68,2.24,1.88,1.09,0.45,0.36,-23,-8,-25,1.19,6079,0,78,31,36,800,502.0,585,463,60,131.0,98,1,301,190,45,0,0,492,15661,11545,455,-5.59,,,,,,,,,,,,
25484,1564322910918,-1,2.01,1.38,0.68,2.24,1.88,1.03,0.55,0.31,-25,-7,-26,1.17,6064,0,78,31,36,809,502.0,586,465,60,131.0,98,1,301,112,45,0,0,491,15661,-3414,452,-5.59,,,,,,,,,,,,
25504,1564322910938,1,2.0,1.38,0.68,2.24,1.89,0.98,0.67,0.31,-26,-7,-28,1.19,6087,0,78,31,36,818,496.0,593,464,60,130.0,98,1,301,190,45,0,0,486,3,2524,448,-5.59,,,,,,,,,,,,
25524,1564322910958,2,1.98,1.38,0.69,2.24,1.88,0.92,0.75,0.36,-26,-7,-30,1.19,6093,0,78,31,35,826,495.0,595,462,60,131.0,98,1,298,185,45,0,0,483,998,-9211,445,-5.59,,,,,,,,,,,,
25544,1564322910978,2,1.98,1.38,0.69,2.25,1.89,0.91,0.85,0.4,-27,-6,-33,1.24,6064,0,78,31,35,844,492.0,595,464,60,131.0,94,1,298,185,42,0,0,485,-6528,-32702,444,-5.59,44.680042,10.017166,47.36,178.2,0,0.0,-1,0.0,0.0,0,0.29,0.4257
25564,1564322910998,1,1.99,1.39,0.69,2.26,1.89,0.88,0.94,0.38,-28,-5,-34,1.29,6009,0,78,31,35,862,491.0,592,465,60,131.0,94,1,298,107,42,0,0,486,248,28696,440,-5.59,,,,,,,,,,,,
25584,1564322911010,1,1.99,1.39,0.69,2.25,1.9,0.79,1.05,0.32,-29,-3,-36,1.32,5924,0,78,31,35,874,490.0,588,462,60,131.0,94,1,294,106,42,0,0,482,-1818,1504,439,-5.59,,,,,,,,,,,,
25604,1564322911030,1,1.99,1.39,0.69,2.26,1.9,0.75,1.13,0.26,-30,-1,-35,1.36,5885,0,78,31,35,883,488.0,587,463,60,129.0,94,1,292,178,42,0,0,476,1,-26615,436,-5.59,,,,,,,,,,,,
25624,1564322911050,1,1.98,1.38,0.7,2.26,1.91,0.71,1.16,0.2,-31,-2,-35,1.36,5916,0,78,31,34,899,484.0,587,461,60,131.0,94,1,290,179,42,0,0,468,32033,-1818,433,-5.59,,,,,,,,,,,,
25644,1564322911070,0,1.98,1.39,0.7,2.28,1.9,0.71,1.16,0.19,-31,-3,-36,1.36,5926,6,78,31,35,917,480.0,588,462,60,131.0,91,1,294,179,40,0,0,466,8488,-19126,432,-5.59,44.680042,10.017181,46.08,178.2,0,0.0,-1,0.0,0.0,0,0.3,0.4274
25664,1564322911098,-1,1.99,1.39,0.7,2.27,1.91,0.78,1.14,0.18,-31,-4,-37,1.37,5870,7,78,31,34,929,481.0,586,461,60,130.0,91,1,288,178,40,0,0,468,32033,-19126,428,-5.59,,,,,,,,,,,,
25684,1564322911118,-0,1.99,1.39,0.71,2.28,1.91,0.85,1.07,0.13,-32,-5,-40,1.37,5781,21,78,31,37,938,479.0,585,462,60,130.0,91,1,291,214,40,0,0,475,10305,-18948,424,-5.59,,,,,,,,,,,,
25704,1564322911138,-0,2.0,1.39,0.71,2.28,1.92,0.94,1.04,0.13,-33,-6,-42,1.4,5748,30,78,31,42,945,480.0,583,460,60,130.0,91,1,310,132,40,0,0,467,8488,-19019,423,-5.59,,,,,,,,,,,,
25724,1564322911158,2,2.0,1.38,0.71,2.29,1.91,1.05,1.07,0.23,-35,-6,-44,1.5,5723,35,78,31,48,952,476.0,575,466,60,131.0,91,1,338,241,40,0,0,465,-23367,-3968,423,181.28,,,,,,,,,,,,
25744,1564322911178,1,2.0,1.4,0.71,2.28,1.91,1.06,1.16,0.3,-36,-6,-44,1.57,5868,40,78,31,54,955,474.0,571,463,60,130.0,133,1,373,277,56,0,0,461,-9203,28696,421,-5.59,44.680042,10.017198,45.2,178.2,0,0.0,-1,0.0,0.0,0,0.3,0.4291
25764,1564322911198,0,2.01,1.4,0.72,2.28,1.92,1.02,1.21,0.34,-37,-5,-45,1.58,6089,46,78,31,61,953,469.0,580,460,60,130.0,133,1,386,270,56,0,0,464,10432,6512,416,181.28,,,,,,,,,,,,
25784,1564322911218,-0,2.03,1.39,0.72,2.29,1.92,1.02,1.21,0.33,-37,-5,-47,1.58,6300,48,78,31,66,953,468.0,588,465,60,129.0,133,1,376,314,56,0,0,461,-16384,6512,416,-5.59,,,,,,,,,,,,
25804,1564322911238,1,2.05,1.39,0.72,2.3,1.92,1.09,1.14,0.36,-37,-7,-48,1.58,6434,49,78,31,70,955,467.0,605,460,60,131.0,133,1,370,361,56,0,0,464,-16384,-9211,415,-5.59,,,,,,,,,,,,
25824,1564322911258,1,2.06,1.4,0.72,2.29,1.92,1.06,1.19,0.38,-37,-5,-48,1.59,6530,49,78,31,73,957,468.0,606,463,60,131.0,133,1,370,406,56,0,0,463,-16384,-26615,415,-5.59,,,,,,,,,,,,
25844,1564322911278,-0,2.09,1.39,0.72,2.29,1.92,1.03,1.25,0.34,-37,-2,-47,1.62,6672,49,78,31,75,960,466.0,607,462,60,130.0,248,1,372,417,103,0,0,462,-3210,-3414,414,-5.59,44.680042,10.017214,44.04,178.2,0,0.0,-1,0.0,0.0,0,0.3,0.4307
25864,1564322911298,3,2.1,1.4,0.71,2.29,1.92,1.04,1.23,0.41,-37,-2,-47,1.61,6730,50,77,31,75,955,466.0,611,461,60,131.0,248,1,374,443,103,0,0,469,-3210,2131,414,-5.59,,,,,,,,,,,,
25884,1564322911318,-2,2.13,1.39,0.72,2.28,1.91,0.88,1.3,0.42,-37,-1,-48,1.57,6648,50,78,31,77,941,464.0,609,462,60,130.0,248,1,369,448,103,0,0,477,16408,-28648,415,-5.59,,,,,,,,,,,,
25904,1564322911338,3,2.14,1.4,0.72,2.28,1.92,0.91,1.22,0.49,-36,0,-48,1.53,6701,50,78,31,77,926,465.0,608,461,60,132.0,248,1,371,449,103,0,0,479,30272,-8187,416,-5.59,,,,,,,,,,,,
25924,1564322911358,-1,2.15,1.39,0.72,2.27,1.91,0.85,1.3,0.5,-36,1,-48,1.55,6845,50,78,31,78,908,465.0,612,463,60,131.0,248,1,375,457,103,0,0,482,30272,-6441,415,-5.59,,,,,,,,,,,,
25944,1564322911378,2,2.16,1.4,0.71,2.28,1.91,0.85,1.22,0.64,-34,-0,-49,1.49,6813,50,78,31,78,913,467.0,613,459,60,131.0,282,1,374,457,118,0,0,491,243,-6528,419,-5.59,44.680046,10.017229,43.26,178.2,0,0.0,-1,0.0,0.0,0,0.3,0.4324
25964,1564322911399,-1,2.19,1.39,0.7,2.26,1.9,0.74,1.28,0.62,-34,2,-48,1.48,6696,50,77,31,78,943,469.0,610,459,60,129.0,282,1,370,463,118,0,0,499,10432,-3856,421,-5.59,,,,,,,,,,,,
25984,1564322911419,2,2.19,1.39,0.7,2.27,1.9,0.85,1.15,0.64,-33,0,-45,1.43,6663,50,77,31,79,977,470.0,607,465,60,131.0,282,1,368,462,118,0,0,495,8488,505,422,-5.59,,,,,,,,,,,,
26004,1564322911439,-2,2.21,1.39,0.71,2.26,1.9,0.69,1.2,0.65,-32,1,-44,1.38,6660,50,77,31,80,1023,469.0,607,462,60,131.0,282,1,368,462,118,0,0,492,-16384,-10483,424,-5.59,,,,,,,,,,,,
26024,1564322911459,1,2.22,1.38,0.7,2.26,1.9,0.8,1.09,0.63,-31,-1,-42,1.35,6604,49,77,31,79,1061,469.0,608,459,60,130.0,282,1,366,461,118,0,0,489,10432,998,432,-5.59,,,,,,,,,,,,
26044,1564322911479,-0,2.23,1.39,0.7,2.27,1.89,0.68,1.09,0.72,-30,-1,-41,1.28,6609,49,77,31,80,1071,470.0,607,462,60,131.0,265,1,366,461,115,0,0,489,8488,248,437,-5.59,44.68005,10.017243,42.45,178.2,0,0.0,-1,0.0,0.0,0,0.3,0.4341
26064,1564322911496,1,2.26,1.39,0.71,2.26,1.89,0.66,1.07,0.66,-29,-1,-39,1.26,6644,49,77,31,80,1071,472.0,610,458,60,131.0,265,1,367,468,115,0,0,497,8488,-6656,442,-5.59,,,,,,,,,,,,
26084,1564322911516,3,2.29,1.4,0.71,2.26,1.9,0.63,1.02,0.75,-26,-1,-39,1.2,6665,48,77,31,79,1035,473.0,613,461,60,131.0,265,1,368,462,115,0,0,490,3576,32033,447,-5.59,,,,,,,,,,,,
26104,1564322911536,-1,2.33,1.4,0.7,2.28,1.9,0.6,1.03,0.69,-25,0,-36,1.19,6684,40,77,31,78,995,474.0,610,464,60,130.0,265,1,369,462,115,0,0,493,-9203,248,451,-5.59,,,,,,,,,,,,
26124,1564322911556,4,2.35,1.4,0.71,2.29,1.9,0.59,0.88,0.75,-22,-1,-34,1.06,6665,31,77,31,75,942,474.0,609,459,60,131.0,265,1,371,426,115,0,0,491,3576,-899,460,-5.59,,,,,,,,,,,,
26144,1564322911576,-2,2.37,1.41,0.71,2.29,1.91,0.58,0.93,0.73,-19,0,-31,1.09,6533,23,77,31,71,887,473.0,607,464,60,130.0,222,1,372,379,103,0,0,482,3576,248,469,-5.59,44.68005,10.017257,43.49,178.2,0,0.0,-1,0.0,0.0,0,0.3,0.4357
26164,1564322911594,-1,2.4,1.41,0.72,2.31,1.91,0.65,0.89,0.65,-15,-0,-28,1.1,6408,17,77,31,67,870,474.0,603,460,60,129.0,222,1,375,315,103,0,0,480,-1923,10305,474,-5.59,,,,,,,,,,,,
26184,1564322911614,2,2.41,1.41,0.73,2.31,1.92,0.58,0.77,0.75,-11,-2,-25,0.97,6315,14,77,31,63,854,480.0,599,462,60,131.0,222,1,387,277,103,0,0,479,-16384,10305,480,-5.59,,,,,,,,,,,,
26204,1564322911634,1,2.44,1.42,0.73,2.32,1.94,0.51,0.64,0.76,-6,-1,-22,0.82,6332,14,77,31,60,846,482.0,598,460,60,132.0,222,1,393,263,103,0,0,472,243,10305,484,-5.59,,,,,,,,,,,,
26224,1564322911654,-1,2.44,1.42,0.74,2.34,1.94,0.62,0.53,0.7,-3,1,-20,0.81,6427,14,77,31,58,837,484.0,602,464,60,130.0,222,1,393,263,103,0,0,475,30272,32033,484,-5.59,,,,,,,,,,,,
26244,1564322911674,1,2.46,1.43,0.74,2.34,1.95,0.75,0.33,0.64,0,-2,-17,0.82,6496,13,77,31,55,847,485.0,606,461,60,131.0,132,1,388,262,64,0,0,471,243,2212,485,-5.59,44.680058,10.017271,45.0,178.1,0,0.0,-1,0.0,0.0,0,0.3,0.4374
26264,1564322911694,3,2.48,1.43,0.75,2.36,1.95,0.66,0.21,0.69,3,-3,-14,0.69,6465,13,77,31,53,857,486.0,606,458,60,131.0,132,1,382,252,64,0,0,479,16408,505,487,-5.59,,,,,,,,,,,,
26284,1564322911714,-1,2.51,1.43,0.76,2.36,1.96,0.66,0.13,0.65,5,-0,-10,0.67,6505,13,77,31,52,852,490.0,605,466,60,131.0,132,1,380,247,64,0,0,478,30272,-6441,490,-5.59,,,,,,,,,,,,
26304,1564322911734,0,2.53,1.44,0.76,2.37,1.96,0.75,-0.08,0.69,6,-2,-6,0.75,6514,13,77,31,50,848,491.0,611,460,60,130.0,132,1,374,236,64,0,0,485,6193,505,491,-5.59,,,,,,,,,,,,
26324,1564322911754,3,2.56,1.44,0.76,2.37,1.97,0.69,-0.17,0.7,9,-1,-2,0.71,6490,13,77,31,49,835,492.0,608,461,60,131.0,132,1,370,230,64,0,0,488,-23623,-32768,492,-5.59,,,,,,,,,,,,
26344,1564322911774,-0,2.58,1.44,0.76,2.38,1.97,0.76,-0.22,0.66,11,-0,3,0.79,6508,13,77,31,48,821,492.0,605,462,60,130.0,111,1,368,147,55,0,0,483,-23623,998,492,-5.59,44.680065,10.017285,46.59,178.1,0,0.0,-1,0.0,0.0,0,0.3,0.4391
26364,1564322911796,1,2.61,1.44,0.76,2.37,1.97,0.82,-0.38,0.7,12,-2,6,0.91,6539,13,77,31,47,805,490.0,607,463,60,129.0,111,1,365,220,55,0,0,469,14488,-6656,490,-5.59,,,,,,,,,,,,
26384,1564322911816,2,2.62,1.43,0.76,2.37,1.97,0.72,-0.45,0.68,14,-1,9,0.85,6505,13,77,31,46,788,488.0,608,459,60,130.0,111,1,358,218,55,0,0,463,14488,1,488,-5.59,,,,,,,,,,,,
26404,1564322911836,-1,2.62,1.43,0.77,2.37,1.97,0.82,-0.47,0.65,16,1,12,0.94,6436,13,77,31,46,782,487.0,602,463,60,130.0,111,1,357,218,55,0,0,469,-6387,-6656,487,-5.59,,,,,,,,,,,,
26424,1564322911856,-1,2.61,1.43,0.76,2.37,1.97,0.94,-0.52,0.65,16,-2,14,1.07,6377,13,77,31,45,780,486.0,603,461,60,130.0,111,1,349,217,55,0,0,477,-3267,-1562,486,-5.59,,,,,,,,,,,,
26444,1564322911876,-0,2.58,1.44,0.77,2.37,1.96,0.88,-0.62,0.61,17,-6,18,1.08,6345,13,77,31,45,778,486.0,602,458,60,130.0,106,1,349,216,52,0,0,478,-3267,1,486,-5.59,44.680069,10.017299,47.21,178.0,0,0.0,-1,0.0,0.0,0,0.31,0.4407
26464,1564322911899,2,2.56,1.43,0.76,2.38,1.97,0.64,-0.65,0.58,19,-5,20,0.91,6233,13,77,31,45,776,487.0,600,462,60,131.0,106,1,349,216,52,0,0,479,15649,248,487,-5.59,,,,,,,,,,,,
26484,1564322911919,1,2.54,1.44,0.77,2.37,1.97,0.59,-0.65,0.53,20,-1,21,0.88,6214,13,77,31,45,775,488.0,597,465,60,131.0,106,1,349,216,52,0,0,485,-3267,-1562,488,-5.59,,,,,,,,,,,,
26504,1564322911939,-2,2.54,1.44,0.76,2.37,1.97,0.65,-0.67,0.45,22,2,23,0.93,6186,13,77,31,45,774,487.0,597,462,60,131.0,106,1,348,215,52,0,0,487,15649,3580,487,-5.59,,,,,,,,,,,,
26524,1564322911959,-0,2.53,1.44,0.77,2.38,1.98,0.79,-0.68,0.43,22,4,25,1.04,6204,13,77,31,45,773,490.0,598,462,60,131.0,106,1,349,216,52,0,0,477,16648,-6441,490,-5.59,,,,,,,,,,,,
26544,1564322911979,-2,2.54,1.44,0.77,2.37,1.98,0.9,-0.76,0.38,23,2,25,1.18,6223,13,77,31,45,772,488.0,488,461,60,130.0,102,1,349,216,50,0,0,453,16648,10305,488,-5.59,44.680073,10.017313,46.91,178.0,0,0.0,-1,0.0,0.0,0,0.31,0.4424
26564,1564322911999,1,2.55,1.43,0.76,2.37,1.98,0.98,-0.88,0.37,24,-0,26,1.32,6302,13,77,31,45,771,485.0,443,459,60,130.0,102,1,349,216,50,0,0,438,21432,16648,485,-5.59,,,,,,,,,,,,
26584,1564322912009,1,2.56,1.44,0.77,2.37,1.99,0.93,-0.93,0.43,25,-1,28,1.31,6336,14,77,31,44,770,484.0,402,457,60,131.0,102,1,343,214,50,0,0,431,-18341,505,484,-5.59,,,,,,,,,,,,
26604,1564322912029,1,2.55,1.44,0.77,2.37,1.98,0.87,-0.93,0.53,27,1,29,1.27,6351,14,77,31,45,773,482.0,355,460,60,130.0,102,1,349,214,50,0,0,434,26704,16648,484,-5.59,,,,,,,,,,,,
26624,1564322912049,-0,2.55,1.44,0.77,2.38,1.98,0.91,-0.97,0.57,27,1,30,1.33,6323,14,77,31,45,778,481.0,326,462,60,130.0,102,1,349,216,50,0,0,434,26704,-9203,481,-5.59,,,,,,,,,,,,
26644,1564322912069,-1,2.56,1.44,0.77,2.38,1.99,1.02,-1.06,0.58,26,0,32,1.47,6304,14,77,31,45,783,480.0,361,463,60,130.0,106,1,349,216,51,0,0,432,20625,-23367,480,-5.59,44.68008,10.017328,46.81,177.9,0,0.0,-1,0.0,0.0,0,0.31,0.4441
26664,1564322912097,1,2.56,1.44,0.77,2.38,1.98,1.0,-1.13,0.47,27,-0,34,1.51,6325,15,77,31,45,789,482.0,358,462,60,131.0,106,1,349,216,51,0,0,436,21580,3576,482,-5.59,,,,,,,,,,,,
26684,1564322912117,2,2.56,1.44,0.77,2.38,1.98,0.86,-1.08,0.55,28,2,34,1.38,6294,15,77,31,44,793,481.0,329,461,60,131.0,106,1,342,214,51,0,0,441,5600,-17956,479,-5.59,,,,,,,,,,,,
26704,1564322912137,3,2.55,1.44,0.77,2.37,1.99,0.84,-1.02,0.53,29,4,35,1.32,6294,15,77,31,45,794,479.0,312,462,60,131.0,106,1,349,216,51,0,0,448,5600,16648,479,-5.59,,,,,,,,,,,,
26724,1564322912157,-1,2.54,1.44,0.77,2.37,1.98,0.9,-1.01,0.55,29,2,35,1.35,6277,15,77,31,45,794,472.0,301,462,60,129.0,106,1,349,216,51,0,0,451,243,3576,472,-5.59,,,,,,,,,,,,
26744,1564322912177,-1,2.52,1.44,0.77,2.37,1.99,0.98,-1.08,0.56,28,-1,36,1.46,6296,16,77,31,45,792,474.0,290,466,60,130.0,107,1,349,216,51,0,0,451,243,-17956,474,-5.59,44.680084,10.017344,45.96,178.0,0,0.0,-1,0.0,0.0,0,0.31,0.4457
26764,1564322912199,1,2.49,1.44,0.77,2.37,1.99,0.93,-1.17,0.62,28,-2,36,1.49,6252,16,77,31,45,790,475.0,280,461,60,131.0,107,1,349,216,51,0,0,459,19477,32033,475,-5.59,,,,,,,,,,,,
26784,1564322912219,1,2.45,1.44,0.77,2.38,1.98,0.79,-1.16,0.67,28,-1,38,1.4,6268,16,77,31,45,788,474.0,271,460,60,131.0,107,1,349,216,51,0,0,462,-768,3576,474,-5.59,,,,,,,,,,,,
26804,1564322912239,1,2.4,1.44,0.77,2.37,1.99,0.66,-1.08,0.72,29,2,38,1.27,6225,16,77,31,45,786,475.0,272,461,60,131.0,107,1,349,216,51,0,0,455,243,243,475,-5.59,,,,,,,,,,,,
26824,1564322912259,3,2.34,1.43,0.77,2.37,1.99,0.71,-1.02,0.7,28,4,38,1.24,6247,16,77,31,46,787,470.0,291,461,60,130.0,107,1,355,217,51,0,0,441,-7939,-16384,470,-5.59,,,,,,,,,,,,
26844,1564322912279,-2,2.28,1.43,0.77,2.38,1.97,0.84,-0.94,0.69,25,5,37,1.27,6218,17,77,31,46,789,466.0,292,462,60,131.0,109,1,355,217,51,0,0,437,19477,-23623,463,-5.59,44.680088,10.017359,45.38,178.0,0,0.0,-1,0.0,0.0,0,0.31,0.4474
26864,1564322912297,-1,2.24,1.43,0.77,2.37,1.97,0.96,-0.92,0.64,22,5,34,1.33,6181,17,77,31,46,791,455.0,285,465,60,131.0,109,1,354,216,51,0,0,438,23400,14488,455,-5.59,,,,,,,,,,,,
26884,1564322912317,-1,2.21,1.43,0.76,2.37,1.97,1.07,-0.92,0.62,18,0,32,1.41,6177,17,77,31,46,792,452.0,278,458,60,130.0,109,1,354,216,51,0,0,445,16648,15649,451,-5.59,,,,,,,,,,,,
26904,1564322912337,0,2.18,1.42,0.76,2.35,1.97,1.06,-0.84,0.57,14,-3,29,1.35,6204,17,77,31,46,793,449.0,273,458,60,131.0,109,1,355,219,51,0,0,447,-3267,10305,445,-5.59,,,,,,,,,,,,
26924,1564322912357,1,2.16,1.41,0.75,2.33,1.96,0.91,-0.66,0.54,10,-2,27,1.12,6239,17,77,31,47,794,453.0,267,462,60,132.0,109,1,362,219,51,0,0,449,-8985,19477,440,-5.59,,,,,,,,,,,,
26944,1564322912377,3,2.14,1.4,0.73,2.32,1.94,0.79,-0.44,0.63,6,0,24,0.91,6245,17,77,31,47,796,455.0,259,462,60,131.0,115,1,362,219,51,0,0,451,14488,-7939,437,-5.59,44.680088,10.017375,45.15,178.1,0,0.0,-1,0.0,0.0,0,0.31,0.4491
26964,1564322912399,-0,2.15,1.38,0.72,2.29,1.93,0.82,-0.27,0.58,3,3,19,0.87,6285,17,77,31,47,796,460.0,255,465,60,131.0,115,1,362,141,51,0,0,456,-23623,-3314,435,-5.59,,,,,,,,,,,,
26984,1564322912419,-1,2.14,1.38,0.71,2.28,1.91,0.89,-0.21,0.51,-0,4,16,0.92,6330,17,77,31,47,796,460.0,261,464,60,130.0,115,1,363,219,51,0,0,452,-23623,3635,431,-5.59,,,,,,,,,,,,
27004,1564322912439,-1,2.14,1.38,0.71,2.27,1.9,0.92,-0.17,0.5,-2,2,12,0.93,6319,21,77,31,47,796,459.0,273,461,60,129.0,115,1,363,219,51,0,0,456,-18108,-768,432,-5.59,,,,,,,,,,,,
27024,1564322912459,-0,2.15,1.38,0.71,2.28,1.9,0.87,-0.06,0.53,-3,2,9,0.87,6285,25,77,31,49,795,458.0,278,460,60,131.0,115,1,368,230,51,0,0,457,17628,20625,431,-5.59,,,,,,,,,,,,
27044,1564322912479,1,2.13,1.38,0.71,2.28,1.9,0.84,0.08,0.6,-5,4,6,0.84,6173,28,77,31,51,793,459.0,296,460,60,131.0,127,1,374,240,55,0,0,458,-18108,-18341,434,-5.59,44.680092,10.017389,44.42,178.1,0,0.0,-1,0.0,0.0,0,0.31,0.4507
27064,1564322912495,1,2.13,1.39,0.71,2.28,1.91,0.8,0.2,0.68,-7,4,2,0.82,6062,31,77,31,54,791,459.0,316,463,60,131.0,127,1,384,258,55,0,0,456,-18108,8488,433,-5.59,,,,,,,,,,,,
27084,1564322912515,3,2.12,1.4,0.71,2.29,1.91,0.79,0.3,0.76,-8,4,-1,0.84,6042,36,77,31,57,789,460.0,334,460,60,131.0,127,1,384,255,55,0,0,458,-18108,19477,434,-5.59,,,,,,,,,,,,
27104,1564322912535,3,2.11,1.39,0.7,2.28,1.91,0.76,0.37,0.79,-9,4,-3,0.84,6105,43,77,31,61,786,460.0,348,461,60,132.0,127,1,385,253,55,0,0,457,-23623,19477,433,-5.59,,,,,,,,,,,,
27124,1564322912555,0,2.09,1.39,0.7,2.29,1.91,0.77,0.43,0.78,-11,3,-6,0.88,6190,52,77,31,67,783,459.0,368,462,60,131.0,127,1,368,225,55,0,0,458,2211,21580,431,-5.59,,,,,,,,,,,,
27144,1564322912575,-2,2.11,1.39,0.71,2.29,1.92,0.79,0.45,0.72,-12,2,-9,0.91,6135,58,77,31,73,782,462.0,375,463,60,131.0,185,1,354,373,80,0,0,461,12552,21432,432,-5.59,44.680092,10.017405,43.37,178.2,0,0.0,-1,0.0,0.0,0,0.31,0.4524
27164,1564322912595,-0,2.11,1.4,0.71,2.29,1.92,0.84,0.45,0.65,-14,1,-10,0.95,5996,59,77,31,78,782,463.0,385,461,60,130.0,185,1,346,440,80,0,0,460,2211,-28332,433,-5.59,,,,,,,,,,,,
27184,1564322912615,-0,2.1,1.41,0.71,2.3,1.92,0.89,0.48,0.62,-16,-0,-11,1.01,5967,60,77,31,80,788,461.0,387,461,60,131.0,185,1,343,381,80,0,0,459,2211,5600,434,-5.59,,,,,,,,,,,,
27204,1564322912635,-1,2.1,1.41,0.72,2.3,1.92,0.9,0.52,0.63,-17,-1,-13,1.04,6095,60,77,31,82,794,463.0,398,461,60,130.0,185,1,348,471,80,0,0,461,-23623,3635,432,-5.59,,,,,,,,,,,,
27224,1564322912655,-2,2.11,1.41,0.72,2.3,1.92,0.92,0.49,0.64,-18,-2,-14,1.04,6334,60,77,31,83,801,461.0,424,461,60,130.0,185,1,354,481,80,0,0,460,2211,5600,431,-5.59,,,,,,,,,,,,
27244,1564322912675,1,2.11,1.41,0.72,2.3,1.93,0.87,0.54,0.73,-17,-2,-16,1.03,6373,61,77,31,83,808,463.0,456,458,60,131.0,268,1,356,482,116,0,0,456,6193,-9160,431,-5.59,44.680092,10.01742,43.37,178.3,0,0.0,-1,0.0,0.0,0,0.32,0.4541
27264,1564322912695,1,2.12,1.41,0.72,2.3,1.93,0.76,0.63,0.71,-17,-0,-18,0.99,6349,61,77,31,84,864,463.0,482,462,60,131.0,268,1,353,484,116,0,0,464,30272,10432,432,-5.59,,,,,,,,,,,,
27284,1564322912715,-1,2.11,1.4,0.72,2.3,1.93,0.72,0.67,0.76,-18,2,-19,0.98,6306,61,77,31,84,923,465.0,491,466,60,130.0,268,1,351,484,116,0,0,466,30272,243,435,-5.59,,,,,,,,,,,,
27304,1564322912735,-0,2.11,1.4,0.72,2.3,1.93,0.8,0.68,0.77,-19,1,-20,1.05,6340,61,77,31,85,979,467.0,508,458,60,129.0,268,1,349,488,116,0,0,467,10432,-8985,438,-5.59,,,,,,,,,,,,
27324,1564322912755,-0,2.08,1.39,0.72,2.3,1.91,0.86,0.64,0.84,-20,-1,-21,1.07,6294,61,77,31,85,1033,469.0,514,461,60,131.0,268,1,348,487,116,0,0,469,10432,14488,440,-5.59,,,,,,,,,,,,
27344,1564322912775,1,2.1,1.41,0.73,2.31,1.93,0.77,0.65,0.89,-20,-1,-22,1.0,6287,62,77,31,85,1094,470.0,538,459,60,131.0,261,1,347,487,116,0,0,469,8488,10432,442,-5.59,44.680092,10.017435,43.6,178.3,0,0.0,-1,0.0,0.0,0,0.32,0.4557
27364,1564322912795,3,2.09,1.4,0.72,2.3,1.93,0.67,0.7,0.89,-20,2,-23,0.97,6294,62,77,31,85,1157,472.0,550,462,60,131.0,261,1,348,487,116,0,0,469,-1923,243,441,-5.59,,,,,,,,,,,,
27384,1564322912815,-1,2.09,1.4,0.72,2.3,1.92,0.65,0.75,0.84,-20,3,-23,0.99,6419,62,77,31,85,1183,472.0,566,460,60,130.0,261,1,353,491,116,0,0,468,-1923,32033,443,-5.59,,,,,,,,,,,,
27404,1564322912835,1,2.09,1.41,0.72,2.3,1.92,0.74,0.69,0.86,-21,2,-24,1.01,6524,62,77,31,85,1194,474.0,582,458,60,131.0,261,1,357,493,116,0,0,476,-9203,-9203,442,-5.59,,,,,,,,,,,,
27424,1564322912855,3,2.08,1.41,0.72,2.31,1.92,0.63,0.71,0.86,-20,2,-24,0.95,6537,62,77,31,85,1197,476.0,592,463,60,131.0,261,1,357,493,116,0,0,475,-17956,-6441,444,-5.59,,,,,,,,,,,,
27444,1564322912875,-1,2.08,1.41,0.72,2.31,1.92,0.62,0.76,0.77,-21,4,-24,0.98,6651,62,77,31,85,1196,476.0,600,461,60,129.0,275,1,362,497,123,0,0,480,-23367,-32768,447,-5.59,44.680096,10.01745,43.78,178.4,0,0.0,-1,0.0,0.0,0,0.32,0.4574
27464,1564322912898,3,2.08,1.41,0.72,2.31,1.92,0.66,0.75,0.79,-21,4,-24,1.0,6665,62,77,31,85,1191,481.0,604,461,60,131.0,275,1,363,497,123,0,0,486,32033,-1923,449,-5.59,,,,,,,,,,,,
27484,1564322912918,-2,2.08,1.4,0.72,2.31,1.93,0.6,0.85,0.75,-22,5,-25,1.03,6653,62,77,31,85,1180,483.0,607,458,60,130.0,275,1,362,497,123,0,0,487,-10483,-6441,449,-5.59,,,,,,,,,,,,
27504,1564322912938,-0,2.08,1.41,0.72,2.31,1.93,0.72,0.75,0.78,-23,4,-25,1.04,6595,63,77,31,85,1166,485.0,607,459,60,131.0,275,1,359,495,123,0,0,491,-6441,505,452,-5.59,,,,,,,,,,,,
27524,1564322912958,3,2.07,1.41,0.73,2.31,1.93,0.62,0.8,0.83,-22,4,-27,1.02,6565,63,77,31,86,1144,489.0,604,462,60,131.0,275,1,356,494,123,0,0,490,-6656,505,454,-5.59,,,,,,,,,,,,
27544,1564322912978,-2,2.08,1.4,0.72,2.31,1.94,0.63,0.85,0.77,-23,4,-27,1.06,6599,63,77,31,86,1128,490.0,606,462,60,130.0,274,1,357,499,124,0,0,489,-1818,15661,454,-5.59,44.6801,10.017465,44.52,178.4,0,0.0,-1,0.0,0.0,0,0.32,0.4591
27564,1564322912993,3,2.07,1.4,0.73,2.31,1.93,0.62,0.81,0.81,-23,1,-28,1.02,6718,63,77,31,86,1117,489.0,607,463,60,131.0,274,1,363,498,124,0,0,493,-6656,3580,456,-5.59,,,,,,,,,,,,
27584,1564322913013,0,2.07,1.41,0.72,2.3,1.93,0.62,0.91,0.75,-23,2,-29,1.1,6805,63,77,31,86,1095,489.0,608,457,60,129.0,274,1,367,506,124,0,0,496,-6656,-22519,458,-5.59,,,,,,,,,,,,
27604,1564322913033,0,2.08,1.4,0.72,2.31,1.93,0.63,0.89,0.82,-23,0,-29,1.09,6860,63,77,31,85,1064,495.0,607,462,60,131.0,274,1,371,502,124,0,0,505,771,2524,460,-5.59,,,,,,,,,,,,
27624,1564322913053,0,2.1,1.4,0.72,2.31,1.93,0.68,0.85,0.77,-24,2,-29,1.08,6944,64,77,31,85,1035,499.0,611,460,60,131.0,274,1,374,504,124,0,0,506,-22519,-21872,463,-5.59,,,,,,,,,,,,
27644,1564322913073,-1,2.1,1.41,0.71,2.31,1.93,0.59,0.93,0.8,-24,3,-30,1.1,6931,64,77,31,85,1015,504.0,612,461,60,130.0,285,1,372,504,132,0,0,510,-32248,248,464,-5.59,44.680103,10.01748,44.84,178.4,0,0.0,-1,0.0,0.0,0,0.32,0.4607
27664,1564322913098,3,2.1,1.41,0.72,2.32,1.93,0.7,0.87,0.85,-25,2,-30,1.12,6838,64,77,31,85,987,505.0,612,458,60,131.0,285,1,370,501,132,0,0,508,6274,-21872,465,-5.59,,,,,,,,,,,,
27684,1564322913118,-1,2.1,1.41,0.72,2.3,1.93,0.65,0.95,0.81,-25,3,-30,1.15,6825,64,77,31,86,947,506.0,611,461,60,129.0,285,1,368,506,132,0,0,511,6274,26178,468,-5.59,,,,,,,,,,,,
27704,1564322913138,3,2.1,1.4,0.72,2.3,1.94,0.65,0.92,0.86,-25,2,-31,1.13,6868,64,77,31,85,914,505.0,612,461,60,131.0,285,1,371,507,132,0,0,509,-21872,15679,472,-5.59,,,,,,,,,,,,
27724,1564322913158,0,2.11,1.41,0.72,2.31,1.93,0.65,0.96,0.81,-25,3,-31,1.16,6965,64,77,31,86,895,507.0,612,463,60,130.0,285,1,374,510,132,0,0,514,-21872,-32248,475,-5.59,,,,,,,,,,,,
27744,1564322913178,-0,2.1,1.4,0.73,2.31,1.93,0.58,1.02,0.77,-24,3,-30,1.17,7014,64,77,31,85,872,510.0,613,460,60,131.0,282,1,377,506,134,0,0,513,-4054,-4054,476,-5.59,44.680107,10.017494,46.43,178.5,0,0.0,-1,0.0,0.0,0,0.32,0.4624
27764,1564322913198,1,2.09,1.41,0.73,2.31,1.93,0.69,0.92,0.79,-25,2,-30,1.15,6998,65,77,31,85,836,514.0,617,458,60,131.0,282,1,376,505,134,0,0,518,-3482,-30064,478,-5.59,,,,,,,,,,,,
27784,1564322913218,2,2.07,1.41,0.73,2.31,1.94,0.68,0.89,0.77,-25,2,-30,1.12,6988,65,77,31,86,805,514.0,615,465,60,129.0,282,1,375,511,134,0,0,519,-3482,-3482,478,-5.59,,,,,,,,,,,,
27804,1564322913238,1,2.07,1.4,0.73,2.31,1.93,0.6,0.96,0.76,-25,4,-31,1.13,7056,65,77,31,85,788,516.0,616,462,60,131.0,282,1,380,507,134,0,0,518,16383,2109,478,414.87,,,,,,,,,,,,
27824,1564322913258,-0,2.07,1.4,0.73,2.31,1.93,0.62,0.97,0.85,-25,3,-33,1.15,7121,65,77,31,85,771,521.0,618,460,60,131.0,282,1,384,508,134,0,0,523,-9212,10408,484,-5.59,,,,,,,,,,,,
27844,1564322913278,1,2.08,1.4,0.74,2.32,1.93,0.74,0.87,0.87,-26,1,-32,1.14,7151,65,77,31,84,753,524.0,618,457,60,130.0,282,1,386,427,137,0,0,525,10408,14504,486,-5.59,44.680111,10.017509,47.22,178.5,0,0.0,-1,0.0,0.0,0,0.32,0.4641
27864,1564322913300,3,2.07,1.41,0.73,2.31,1.93,0.72,0.9,0.83,-27,2,-31,1.15,7208,65,77,31,84,735,526.0,616,460,60,130.0,282,1,390,510,137,0,0,529,-32248,-8962,486,-5.59,,,,,,,,,,,,
27884,1564322913320,0,2.08,1.4,0.73,2.3,1.94,0.64,0.97,0.79,-27,3,-32,1.16,7256,65,77,31,84,734,527.0,618,461,60,129.0,282,1,393,503,137,0,0,530,2088,2524,488,414.87,,,,,,,,,,,,
27904,1564322913340,1,2.08,1.39,0.73,2.3,1.94,0.57,1.06,0.75,-27,4,-32,1.2,7332,65,77,31,84,733,530.0,619,461,60,129.0,282,1,397,505,137,0,0,533,14504,2104,489,414.87,,,,,,,,,,,,
27924,1564322913360,-1,2.09,1.4,0.73,2.31,1.94,0.49,1.1,0.8,-26,3,-33,1.2,7381,65,77,31,84,734,533.0,620,460,60,130.0,282,1,400,498,137,0,0,536,2104,-28648,490,414.87,,,,,,,,,,,,
27944,1564322913380,0,2.08,1.4,0.74,2.31,1.93,0.51,1.08,0.84,-26,2,-33,1.2,7387,66,77,31,84,735,535.0,622,463,60,130.0,284,1,400,498,140,0,0,544,6274,2104,494,414.87,44.680119,10.017524,48.17,178.6,0,0.0,-1,0.0,0.0,0,0.32,0.4657
27964,1564322913400,0,2.08,1.4,0.73,2.3,1.93,0.58,1.12,0.9,-26,1,-33,1.26,7470,66,77,31,83,737,537.0,624,457,60,131.0,284,1,405,499,140,0,0,543,-30064,-22519,496,414.87,,,,,,,,,,,,
27984,1564322913420,-1,2.09,1.4,0.73,2.3,1.93,0.62,1.16,0.93,-26,1,-34,1.31,7461,66,77,31,83,740,540.0,625,462,60,131.0,284,1,405,499,140,0,0,546,-8186,2104,499,414.87,,,,,,,,,,,,
28004,1564322913440,-0,2.09,1.4,0.73,2.3,1.93,0.64,1.14,0.98,-27,-0,-35,1.31,7461,66,77,31,83,740,543.0,623,458,60,131.0,284,1,405,499,140,0,0,549,1779,2211,501,-5.59,,,,,,,,,,,,
28024,1564322913460,-0,2.1,1.4,0.73,2.3,1.93,0.73,1.06,1.0,-28,-3,-34,1.29,7479,66,77,31,82,741,545.0,622,460,60,131.0,284,1,407,491,140,0,0,556,-8962,-8962,501,-5.59,,,,,,,,,,,,
28044,1564322913480,-1,2.12,1.4,0.73,2.3,1.93,0.78,1.07,1.0,-28,-5,-34,1.32,7560,66,77,31,82,740,546.0,625,463,60,131.0,284,1,412,492,143,0,0,554,2104,-28648,503,-5.59,44.680126,10.017538,49.15,178.6,0,0.0,-1,0.0,0.0,0,0.33,0.4674
28064,1564322913496,0,2.12,1.39,0.74,2.3,1.94,0.77,1.09,1.04,-27,-4,-35,1.34,7606,66,77,31,82,739,550.0,626,463,60,131.0,284,1,414,493,143,0,0,560,-32248,1760,509,-5.59,,,,,,,,,,,,
28084,1564322913516,1,2.12,1.4,0.73,2.3,1.93,0.65,1.16,1.05,-26,-4,-35,1.33,7716,66,77,31,81,737,552.0,627,457,60,130.0,284,1,421,485,143,0,0,558,-28648,2104,511,181.28,,,,,,,,,,,,
28104,1564322913536,1,2.13,1.4,0.73,2.3,1.93,0.5,1.19,0.98,-25,-2,-35,1.29,7687,66,76,31,81,735,554.0,627,463,60,130.0,284,1,419,485,143,0,0,567,2524,-2934,516,414.87,,,,,,,,,,,,
28124,1564322913556,1,2.13,1.39,0.74,2.3,1.94,0.41,1.16,0.91,-26,-1,-34,1.23,7637,65,77,31,81,734,558.0,629,461,60,130.0,284,1,416,485,143,0,0,568,2216,259,519,-5.59,,,,,,,,,,,,
28144,1564322913576,1,2.13,1.39,0.74,2.29,1.94,0.42,1.16,0.86,-26,-0,-34,1.23,7678,65,77,31,81,733,559.0,628,463,60,130.0,269,1,419,485,140,0,0,566,6273,6273,520,-5.59,44.680134,10.01755,50.09,178.7,0,0.0,-1,0.0,0.0,0,0.33,0.4691
28164,1564322913596,2,2.13,1.4,0.73,2.3,1.94,0.52,1.14,0.88,-27,-2,-35,1.25,7690,66,76,31,80,736,560.0,626,458,60,131.0,269,1,419,485,140,0,0,569,-28648,-2934,521,-5.59,,,,,,,,,,,,
28184,1564322913616,-0,2.12,1.4,0.74,2.29,1.94,0.67,1.05,0.91,-27,-3,-34,1.25,7747,64,77,31,80,740,561.0,626,460,60,130.0,269,1,423,477,140,0,0,568,-23623,-3210,526,-5.59,,,,,,,,,,,,
28204,1564322913636,1,2.12,1.39,0.74,2.29,1.94,0.71,1.09,0.96,-26,-4,-34,1.3,7783,60,76,31,79,744,566.0,630,460,60,131.0,269,1,425,470,140,0,0,575,-2934,10432,532,414.87,,,,,,,,,,,,
28224,1564322913656,2,2.14,1.39,0.74,2.3,1.94,0.54,1.18,1.01,-25,-4,-33,1.3,7851,59,76,31,77,748,568.0,627,461,60,130.0,269,1,428,454,140,0,0,574,-8186,10432,534,414.87,,,,,,,,,,,,
28244,1564322913676,-0,2.14,1.39,0.74,2.29,1.95,0.42,1.14,0.93,-25,-0,-33,1.22,7908,59,76,31,76,750,568.0,627,465,60,130.0,246,1,432,446,132,0,0,580,1267,208,537,181.28,44.680145,10.017563,51.3,178.7,0,0.0,-1,0.0,0.0,0,0.33,0.4707
28264,1564322913694,-1,2.14,1.39,0.74,2.29,1.94,0.47,1.04,0.92,-25,-0,-32,1.15,7741,58,77,31,74,751,575.0,627,457,60,132.0,246,1,426,434,132,0,0,584,259,208,539,-5.59,,,,,,,,,,,,
28284,1564322913714,-2,2.15,1.39,0.74,2.28,1.95,0.51,1.0,0.87,-25,-2,-33,1.12,7295,58,77,31,75,751,577.0,620,464,60,132.0,246,1,399,356,132,0,0,581,259,-22359,542,-5.59,,,,,,,,,,,,
28304,1564322913734,-2,2.15,1.39,0.74,2.29,1.94,0.52,1.07,0.79,-24,0,-32,1.19,7011,58,77,31,76,749,574.0,615,458,60,132.0,246,1,381,446,132,0,0,570,774,-8186,544,-5.59,,,,,,,,,,,,
28324,1564322913754,-1,2.14,1.4,0.74,2.29,1.94,0.56,1.01,0.79,-24,-1,-31,1.15,6868,58,77,31,77,750,573.0,613,460,60,131.0,246,1,376,451,132,0,0,571,1760,-2336,545,-5.59,,,,,,,,,,,,
28344,1564322913774,-1,2.15,1.39,0.74,2.29,1.95,0.6,1.03,0.71,-24,-1,-30,1.19,6710,58,77,31,78,752,571.0,610,460,60,132.0,215,1,370,456,117,0,0,567,1267,14504,543,-5.59,44.680153,10.017574,52.59,178.7,0,0.0,-1,0.0,0.0,0,0.33,0.4724
28364,1564322913797,2,2.14,1.39,0.74,2.3,1.94,0.63,1.01,0.7,-23,-2,-30,1.19,6565,58,76,31,79,756,571.0,610,459,60,131.0,215,1,365,775,117,0,0,569,1267,1780,542,-5.59,,,,,,,,,,,,
28384,1564322913817,-2,2.15,1.4,0.74,2.3,1.94,0.57,1.03,0.66,-23,0,-30,1.17,6410,58,76,31,80,759,574.0,609,463,60,131.0,215,1,359,707,117,0,0,567,-8188,-8962,543,-5.59,,,,,,,,,,,,
28404,1564322913837,1,2.16,1.39,0.75,2.31,1.95,0.69,0.98,0.66,-23,-1,-30,1.19,6756,58,76,31,81,810,573.0,611,460,60,129.0,215,1,370,401,117,0,0,572,1760,-8186,544,-5.59,,,,,,,,,,,,
28424,1564322913857,-1,2.15,1.39,0.74,2.3,1.95,0.62,0.98,0.69,-23,1,-30,1.16,6962,57,76,31,81,908,571.0,611,462,60,130.0,215,1,377,574,117,0,0,579,1,1,546,-5.59,,,,,,,,,,,,
28444,1564322913877,2,2.16,1.39,0.75,2.3,1.96,0.67,0.89,0.76,-23,1,-30,1.11,6751,57,76,31,82,1005,578.0,611,463,60,130.0,258,1,370,495,140,0,0,590,-3210,19320,547,-5.59,44.680168,10.017586,54.08,178.7,0,0.0,-1,0.0,0.0,0,0.33,0.4741
28464,1564322913899,-0,2.15,1.4,0.74,2.3,1.95,0.56,0.93,0.85,-22,4,-30,1.09,6588,57,76,31,83,1099,578.0,602,464,60,130.0,258,1,363,479,140,0,0,588,-3210,1010,550,-5.59,,,,,,,,,,,,
28484,1564322913919,1,2.16,1.4,0.74,2.3,1.95,0.7,0.91,0.81,-23,2,-30,1.14,6599,56,76,31,83,1205,581.0,607,460,60,130.0,258,1,363,486,140,0,0,585,10432,1780,551,-5.59,,,,,,,,,,,,
28504,1564322913939,2,2.16,1.39,0.74,2.3,1.95,0.63,0.88,0.87,-22,1,-30,1.08,6574,56,76,31,83,1323,582.0,604,465,60,131.0,258,1,363,486,140,0,0,590,8488,-3210,552,-5.59,,,,,,,,,,,,
28524,1564322913959,-0,2.15,1.39,0.74,2.31,1.95,0.58,0.94,0.82,-21,2,-29,1.11,6542,56,76,31,84,1417,581.0,604,463,60,130.0,258,1,359,489,140,0,0,589,10432,30208,553,-5.59,,,,,,,,,,,,
28544,1564322913979,2,2.15,1.4,0.74,2.31,1.95,0.72,0.89,0.77,-21,0,-28,1.14,6549,49,76,31,83,1438,586.0,607,460,60,130.0,215,1,362,485,120,0,0,586,-1894,-16384,558,-5.59,44.680176,10.017596,54.22,178.8,0,0.0,-1,0.0,0.0,0,0.33,0.4757
28564,1564322913991,-1,2.16,1.39,0.74,2.31,1.95,0.62,0.89,0.76,-21,1,-27,1.09,6599,35,76,31,80,1417,585.0,612,463,60,131.0,215,1,365,391,120,0,0,587,15649,15649,559,-5.59,,,,,,,,,,,,
28584,1564322914011,6,2.15,1.4,0.74,2.3,1.95,0.67,0.85,0.68,-21,0,-27,1.08,6597,22,76,31,75,1326,586.0,607,460,60,130.0,215,1,369,425,120,0,0,586,-12040,8488,559,-5.59,,,,,,,,,,,,
28604,1564322914031,9,2.16,1.4,0.75,2.3,1.96,0.72,0.84,0.71,-20,-1,-27,1.11,6588,14,76,31,69,1229,582.0,611,458,60,131.0,215,1,376,256,120,0,0,586,-4035,-8186,553,-5.59,,,,,,,,,,,,
28624,1564322914051,7,2.15,1.39,0.75,2.31,1.96,0.65,0.88,0.68,-20,0,-26,1.09,6397,12,76,31,64,1116,583.0,612,463,60,130.0,215,1,387,286,120,0,0,580,15649,30208,551,-5.59,,,,,,,,,,,,
28644,1564322914071,7,2.14,1.39,0.74,2.31,1.95,0.78,0.88,0.69,-21,-2,-27,1.18,6279,12,76,31,61,1005,582.0,606,466,60,131.0,117,1,392,261,65,0,0,577,8488,2211,554,-5.59,44.680191,10.017606,54.79,178.8,0,0.0,-1,0.0,0.0,0,0.33,0.4774
28664,1564322914099,6,2.16,1.4,0.75,2.31,1.96,0.89,0.81,0.58,-21,-5,-26,1.2,6323,11,76,31,58,900,581.0,603,465,60,131.0,117,1,390,261,65,0,0,577,10432,2104,549,-5.59,,,,,,,,,,,,
28684,1564322914119,10,2.15,1.4,0.75,2.32,1.95,0.87,0.73,0.61,-21,-6,-26,1.14,6371,11,76,31,55,811,580.0,601,460,60,131.0,117,1,387,259,65,0,0,575,10432,-2336,548,-5.59,,,,,,,,,,,,
28704,1564322914139,10,2.16,1.41,0.75,2.33,1.96,0.77,0.79,0.63,-21,-3,-27,1.1,6386,11,76,31,53,819,578.0,604,462,60,131.0,117,1,382,252,65,0,0,573,-3210,-22519,548,-5.59,,,,,,,,,,,,
