"Interval"|"ms"|0|0|1,"Utc"|"ms"|0|0|1,"FB_p"|"bar"|0|300|50,"Volant"|"F"|0.0|300.0|50,"xFR"|"mm"|0.0|5.0|50,"xRR"|"mm"|0.0|5.0|50,"xFL"|"mm"|0.0|5.0|50,"xRL"|"mm"|0.0|5.0|50,"AccelX"|"G"|-3.0|3.0|50,"AccelY"|"G"|-3.0|3.0|50,"AccelZ"|"G"|-3.0|3.0|50,"Yaw"|"Deg/Sec"|-120|120|50,"Pitch"|"Deg/Sec"|-120|120|50,"Roll"|"Deg/Sec"|-120|120|50,"Gsum"|"G"|0.0|3.0|50,"RPM"|""|0|14000|50,"TPS"|"%"|0|100|50,"WaterTemp"|"?C"|0|300|50,"AirTemp"|"?C"|-1000|1000|50,"MAP"|"KPa"|0|255|50,"Lambda"|""|0|1024|50,"WheelSpeed"|"MPH"|0.0|150.0|50,"OilPress"|"PSI"|0|150|50,"FuelPress"|"PSI"|0|150|50,"OilTemp"|"F"|0|300|50,"Battery"|"Volts"|0.0|20.0|50,"FuelCon"|"L/h"|-1000|1000|50,"Gear"|""|0|10|50,"Advance"|"Deg"|-360|360|50,"Injection"|"ms"|-1000|1000|50,"FuelCon"|"L/100km"|-1000|1000|50,"LC_But_Pres"|""|-1000|1000|50,"LC_Active"|""|-1000|1000|50,"RD_Speed"|""|-1000|1000|50,"RUD_Speed"|""|-1000|1000|50,"LD_Speed"|""|-1000|1000|50,"LUD_Speed"|""|-1000|1000|50,"Ana1"|"bar"|-1000.0|1000.0|50,"Latitude"|"Degrees"|-180.0|180.0|10,"Longitude"|"Degrees"|-180.0|180.0|10,"Speed"|"kph"|0.0|150.0|10,"Altitude"|"m"|0.0|4000.0|10,"LapCount"|""|0|0|10,"LapTime"|"Min"|0.0|0.0|10,"Sector"|""|0|0|10,"SectorTime"|"Min"|0.0|0.0|10,"ElapsedTime"|"Min"|0.0|0.0|10,"CurrentLap"|""|0|0|10,"Distance"|"km"|0.0|0.0|10,"SessionTime"|"Min"|0.0|0.0|10
16684,1564322952343,1,2.29,1.42,0.77,2.22,1.96,0.67,-0.57,1.01,9,2,16,0.88,8648,100,78,32,86,1397,605.0,636,459,60,129.0,536,1,428,588,315,0,0,632,243,-3038,606,-5.59,,,,,,,,,,,,
16704,1564322952363,1,2.31,1.41,0.77,2.21,1.95,0.71,-0.47,1.11,9,1,14,0.86,8442,100,78,32,87,1463,612.0,633,463,60,130.0,536,1,434,519,315,0,0,644,19621,966,612,-5.59,,,,,,,,,,,,
16724,1564322952383,2,2.29,1.41,0.77,2.21,1.95,0.78,-0.47,1.04,8,-2,12,0.91,8314,100,78,32,88,1498,613.0,621,458,60,130.0,303,1,439,589,186,0,0,636,1010,-14655,613,-5.59,,,,,,,,,,,,
16744,1564322952403,1,2.29,1.41,0.76,2.21,1.95,0.59,-0.39,1.01,7,-1,12,0.71,8344,100,78,32,88,1498,615.0,629,461,60,130.0,303,1,438,593,186,0,0,629,-28304,-16883,615,-5.59,44.681423,10.018041,58.41,177.6,0,0.0,-1,0.0,0.0,0,0.14,0.2791
16764,1564322952423,3,2.28,1.41,0.77,2.2,1.96,0.63,-0.29,1.02,6,-3,11,0.69,8561,100,78,32,88,1456,620.0,633,463,60,131.0,303,1,432,611,186,0,0,636,19320,-5120,615,-5.59,,,,,,,,,,,,
16784,1564322952443,3,2.28,1.4,0.76,2.2,1.96,0.72,-0.34,1.04,5,-6,11,0.79,8794,100,78,32,87,1369,621.0,635,458,60,129.0,303,1,424,588,186,0,0,636,3395,11776,620,-5.59,,,,,,,,,,,,
16804,1564322952463,1,2.29,1.41,0.76,2.19,1.95,0.74,-0.3,0.94,4,-6,9,0.79,8937,100,78,32,86,1283,628.0,643,459,60,128.0,303,1,420,588,186,0,0,657,20993,-2345,625,-5.59,,,,,,,,,,,,
16824,1564322952483,2,2.28,1.4,0.76,2.2,1.95,0.86,-0.35,0.93,4,-6,8,0.92,9062,100,78,32,86,1196,633.0,647,462,60,130.0,320,1,418,588,201,0,0,661,-5120,1549,631,-5.59,,,,,,,,,,,,
16844,1564322952499,2,2.29,1.41,0.76,2.21,1.95,0.84,-0.25,0.94,4,-5,7,0.87,9159,100,78,32,86,1120,640.0,645,462,60,129.0,320,1,418,588,201,0,0,667,24,-10344,635,-5.59,44.681431,10.018021,61.6,177.7,0,0.0,-1,0.0,0.0,0,0.14,0.2807
16864,1564322952519,0,2.29,1.4,0.76,2.21,1.95,0.75,-0.03,0.91,4,-4,7,0.75,9177,100,78,32,86,1053,643.0,647,459,60,130.0,320,1,418,588,201,0,0,676,244,1549,640,-5.59,,,,,,,,,,,,
16884,1564322952539,1,2.28,1.41,0.76,2.21,1.95,0.62,0.05,0.88,5,-2,6,0.62,9141,100,78,32,86,1008,648.0,641,465,60,130.0,320,1,418,588,201,0,0,665,479,-26892,647,-5.59,,,,,,,,,,,,
16904,1564322952559,-0,2.28,1.41,0.76,2.2,1.95,0.47,0.18,0.87,5,-2,7,0.5,9066,100,78,32,86,1028,654.0,644,457,60,130.0,320,1,418,588,201,0,0,677,-2830,8958,653,-5.59,,,,,,,,,,,,
16924,1564322952579,1,2.26,1.41,0.76,2.2,1.95,0.37,0.25,0.95,5,-2,5,0.45,9023,100,78,32,86,1045,657.0,641,458,60,130.0,308,1,418,588,202,0,0,673,8958,-26380,656,-5.59,,,,,,,,,,,,
16944,1564322952599,1,2.25,1.41,0.76,2.2,1.94,0.17,0.29,0.97,4,0,6,0.34,9066,100,78,32,86,1056,662.0,642,460,60,130.0,308,1,418,588,202,0,0,675,-2826,24,661,181.28,44.681438,10.018,63.24,177.7,0,0.0,-1,0.0,0.0,0,0.14,0.2824
16964,1564322952619,0,2.25,1.41,0.76,2.2,1.94,0.15,0.27,1.07,3,-0,4,0.31,9186,100,78,32,86,1062,667.0,642,462,60,130.0,308,1,418,588,202,0,0,679,-3578,24845,661,414.87,,,,,,,,,,,,
16984,1564322952639,3,2.25,1.41,0.75,2.21,1.96,0.18,0.12,1.07,2,-1,4,0.21,9351,89,78,32,85,1052,671.0,647,455,60,130.0,308,1,418,576,202,0,0,688,-3038,-10399,666,648.46,,,,,,,,,,,,
17004,1564322952659,0,2.26,1.41,0.76,2.2,1.95,0.22,0.19,1.05,1,-1,4,0.29,9517,72,78,32,81,1043,678.0,650,461,60,129.0,308,1,417,526,202,0,0,698,-10346,1780,669,-5.59,,,,,,,,,,,,
17024,1564322952679,0,2.27,1.41,0.75,2.2,1.95,0.22,0.18,1.08,0,-1,3,0.29,9522,54,78,32,74,1038,685.0,650,458,60,131.0,260,1,416,438,175,0,0,701,-10399,687,675,-5.59,,,,,,,,,,,,
17044,1564322952699,5,2.27,1.4,0.75,2.2,1.96,0.29,-0.01,1.16,-1,0,2,0.29,9474,35,78,32,65,1033,685.0,651,466,60,130.0,260,1,414,366,175,0,0,702,-10399,-3888,677,414.87,44.681442,10.01798,65.65,177.7,0,0.0,-1,0.0,0.0,0,0.15,0.2841
17064,1564322952719,6,2.27,1.41,0.75,2.21,1.95,0.42,-0.04,1.05,-1,-1,0,0.42,9300,19,78,32,54,1038,687.0,649,465,60,130.0,260,1,400,316,175,0,0,701,-2830,-2830,680,-5.59,,,,,,,,,,,,
17084,1564322952739,6,2.27,1.4,0.75,2.2,1.96,0.58,-0.05,0.88,0,-4,-0,0.58,9031,8,78,32,46,1040,687.0,646,461,60,130.0,260,1,363,233,175,0,0,698,6208,-3584,683,-5.59,,,,,,,,,,,,
17104,1564322952759,11,2.26,1.41,0.75,2.2,1.96,0.72,-0.06,0.74,-0,-7,-1,0.73,8700,0,78,32,40,1020,688.0,641,463,60,130.0,260,1,326,137,175,0,0,677,24,16118,683,-5.59,,,,,,,,,,,,
17124,1564322952779,9,2.27,1.41,0.75,2.2,1.95,0.68,-0.09,0.61,-1,-7,-1,0.69,8538,0,78,32,36,1001,684.0,638,465,60,130.0,100,1,310,202,68,0,0,681,-10344,3543,677,648.46,,,,,,,,,,,,
17144,1564322952799,14,2.26,1.41,0.75,2.2,1.95,0.78,-0.03,0.63,-0,-8,-2,0.78,8307,0,78,32,33,978,678.0,636,463,60,130.0,100,1,298,184,68,0,0,669,-10346,-3578,672,181.28,44.681446,10.017957,67.47,177.8,0,0.0,-1,0.0,0.0,0,0.15,0.2857
17164,1564322952819,13,2.27,1.41,0.75,2.21,1.95,0.68,-0.06,0.52,-0,-6,-2,0.68,8081,0,78,32,32,953,678.0,633,462,60,130.0,100,1,291,170,68,0,0,663,-10346,1549,674,648.46,,,,,,,,,,,,
17184,1564322952839,11,2.27,1.41,0.74,2.2,1.96,0.72,0.03,0.39,-1,-3,-2,0.72,7845,0,78,32,30,906,679.0,632,462,60,128.0,100,1,283,166,68,0,0,664,-2345,-388,674,181.28,,,,,,,,,,,,
17204,1564322952859,9,2.26,1.41,0.75,2.21,1.95,0.85,0.04,0.44,-1,-6,-4,0.85,7735,0,78,32,29,859,679.0,627,460,60,129.0,100,1,280,166,68,0,0,577,-26380,2211,670,-5.59,,,,,,,,,,,,
17224,1564322952879,10,2.28,1.42,0.75,2.22,1.96,0.87,0.11,0.41,-1,-6,-4,0.88,7874,0,78,32,29,834,676.0,630,465,60,129.0,70,1,280,164,47,0,0,543,-10344,-23623,663,-5.59,,,,,,,,,,,,
17244,1564322952904,12,2.29,1.42,0.75,2.22,1.96,0.82,0.09,0.42,-1,-5,-3,0.83,7904,0,78,32,28,811,667.0,628,462,60,129.0,70,1,278,164,47,0,0,536,-27404,2216,658,-5.59,44.681454,10.017935,67.36,177.8,0,0.0,-1,0.0,0.0,0,0.15,0.2874
17264,1564322952924,11,2.28,1.42,0.75,2.22,1.97,0.85,0.21,0.42,-2,-2,-6,0.87,8061,0,78,32,29,810,666.0,635,465,60,129.0,70,1,282,167,47,0,0,517,1549,-22519,659,181.28,,,,,,,,,,,,
17284,1564322952944,11,2.29,1.43,0.75,2.22,1.97,0.97,0.18,0.45,-3,-2,-7,0.98,7931,0,78,32,28,809,654.0,632,465,60,129.0,70,1,278,163,47,0,0,497,-2830,-32248,648,-5.59,,,,,,,,,,,,
17304,1564322952964,14,2.27,1.43,0.76,2.23,1.98,0.93,0.18,0.34,-3,-1,-7,0.94,8134,0,78,32,28,826,654.0,632,462,60,130.0,70,1,279,170,47,0,0,526,-2830,10994,644,181.28,,,,,,,,,,,,
17324,1564322952984,9,2.28,1.43,0.75,2.23,1.98,1.04,0.19,0.22,-4,-1,-7,1.05,8054,0,78,32,28,849,647.0,632,464,60,129.0,78,1,279,165,50,0,0,486,-8429,1,632,-5.59,,,,,,,,,,,,
17344,1564322952995,13,2.27,1.42,0.76,2.22,1.97,1.05,0.2,0.22,-4,-2,-8,1.07,8169,0,78,32,28,868,642.0,633,466,60,130.0,78,1,279,171,50,0,0,489,-2830,10994,631,-5.59,44.681461,10.017913,65.1,177.8,0,0.0,-1,0.0,0.0,0,0.15,0.2891
17364,1564322953015,9,2.29,1.42,0.76,2.22,1.97,1.1,0.17,0.19,-5,-2,-7,1.11,8173,0,78,32,28,886,636.0,635,465,60,130.0,78,1,279,171,50,0,0,519,-2580,8488,623,648.46,,,,,,,,,,,,
17384,1564322953035,12,2.28,1.43,0.75,2.22,1.98,1.15,0.17,0.28,-5,-4,-9,1.17,8205,0,78,32,27,889,629.0,636,465,60,131.0,78,1,276,172,50,0,0,501,-14655,-10483,616,181.28,,,,,,,,,,,,
17404,1564322953055,8,2.3,1.42,0.75,2.2,1.98,1.22,0.18,0.29,-5,-7,-8,1.24,8307,0,78,32,27,885,624.0,638,465,60,130.0,78,1,277,175,50,0,0,469,-1346,11560,609,414.87,,,,,,,,,,,,
17424,1564322953075,11,2.29,1.42,0.75,2.21,1.97,1.13,0.19,0.21,-5,-5,-9,1.15,8267,0,78,32,27,873,621.0,638,464,60,131.0,92,1,277,176,56,0,0,439,19320,-8985,605,414.87,,,,,,,,,,,,
17444,1564322953094,8,2.31,1.42,0.75,2.2,1.97,1.21,0.22,0.21,-6,-5,-11,1.23,8285,0,78,32,27,857,617.0,637,463,60,130.0,92,1,277,177,56,0,0,451,3403,26704,605,414.87,44.681461,10.017891,62.1,177.8,0,0.0,-1,0.0,0.0,0,0.15,0.2907
17464,1564322953114,11,2.31,1.42,0.76,2.2,1.97,1.16,0.22,0.09,-6,-4,-9,1.18,8285,0,78,32,26,843,613.0,637,465,60,130.0,92,1,273,177,56,0,0,470,-28304,5600,599,414.87,,,,,,,,,,,,
17484,1564322953134,8,2.32,1.42,0.76,2.19,1.98,1.21,0.27,0.1,-7,-5,-11,1.24,8300,0,78,32,26,831,608.0,641,463,60,129.0,92,1,273,177,56,0,0,445,17740,8488,591,882.05,,,,,,,,,,,,
17504,1564322953154,10,2.31,1.42,0.75,2.19,1.97,1.16,0.18,0.09,-7,-5,-11,1.17,8274,0,78,32,26,818,603.0,637,463,60,131.0,92,1,273,176,56,0,0,426,-3210,14488,584,414.87,,,,,,,,,,,,
17524,1564322953174,6,2.33,1.42,0.75,2.2,1.98,1.18,0.2,0.14,-8,-5,-11,1.19,8263,0,78,32,26,803,597.0,636,462,60,130.0,94,1,273,176,55,0,0,459,23619,13180,580,-5.59,,,,,,,,,,,,
17544,1564322953202,10,2.32,1.41,0.76,2.2,1.97,1.15,0.15,0.08,-7,-2,-13,1.16,8300,0,78,32,26,795,592.0,638,467,60,131.0,94,1,273,177,55,0,0,460,6273,-4082,580,414.87,44.681469,10.017871,59.57,177.9,0,0.0,-1,0.0,0.0,0,0.15,0.2924
17564,1564322953222,8,2.33,1.41,0.75,2.21,1.97,1.19,0.21,0.14,-8,-2,-12,1.21,8307,0,78,32,26,792,589.0,633,463,60,130.0,94,1,273,177,55,0,0,432,2048,6193,572,181.28,,,,,,,,,,,,
17584,1564322953242,11,2.33,1.42,0.76,2.2,1.98,1.19,0.24,0.07,-8,-1,-13,1.22,8285,0,78,32,26,792,584.0,637,463,60,130.0,94,1,273,176,55,0,0,427,15649,6193,569,648.46,,,,,,,,,,,,
17604,1564322953262,7,2.33,1.42,0.76,2.2,1.97,1.22,0.28,0.08,-8,-2,-12,1.25,8296,0,78,32,26,796,576.0,638,465,60,130.0,94,1,273,176,55,0,0,458,1,26704,560,181.28,,,,,,,,,,,,
17624,1564322953282,7,2.33,1.42,0.76,2.2,1.98,1.27,0.23,0.06,-8,-2,-11,1.29,8337,0,78,32,26,800,571.0,637,465,60,131.0,98,1,273,179,55,0,0,470,1267,-768,556,414.87,,,,,,,,,,,,
17644,1564322953302,9,2.34,1.41,0.76,2.2,1.98,1.19,0.27,0.12,-8,-4,-12,1.22,8366,0,78,32,26,806,564.0,639,466,60,131.0,98,1,273,179,55,0,0,460,-30159,16648,553,414.87,44.681473,10.017852,57.29,177.9,0,0.0,-1,0.0,0.0,0,0.16,0.2941
17664,1564322953322,8,2.34,1.42,0.76,2.21,1.97,1.25,0.31,0.1,-7,-3,-11,1.29,8385,0,78,32,26,816,560.0,637,465,60,130.0,98,1,273,179,55,0,0,436,-28648,21432,550,648.46,,,,,,,,,,,,
17684,1564322953342,10,2.34,1.42,0.76,2.21,1.98,1.13,0.33,0.07,-7,-3,-11,1.18,8325,0,78,32,26,830,557.0,639,463,60,130.0,98,1,273,178,55,0,0,433,2216,-9160,544,414.87,,,,,,,,,,,,
17704,1564322953362,6,2.35,1.42,0.76,2.21,1.97,1.22,0.36,0.09,-7,-2,-11,1.27,8281,0,78,32,26,842,551.0,640,465,60,130.0,98,1,273,177,55,0,0,460,2104,15649,541,648.46,,,,,,,,,,,,
17724,1564322953382,10,2.35,1.43,0.76,2.22,1.98,1.18,0.33,0.06,-7,-1,-9,1.22,8311,0,78,32,25,850,544.0,637,462,60,130.0,102,1,270,177,55,0,0,468,-506,-768,535,414.87,,,,,,,,,,,,
17744,1564322953402,7,2.35,1.42,0.76,2.21,1.98,1.26,0.33,0.09,-6,-3,-10,1.3,8329,0,78,32,26,859,540.0,640,463,60,130.0,102,1,273,176,55,0,0,447,-8186,21580,530,648.46,44.681477,10.017833,54.66,177.9,0,0.0,-1,0.0,0.0,0,0.16,0.2957
17764,1564322953422,8,2.34,1.42,0.76,2.22,1.98,1.22,0.25,0.0,-6,-3,-9,1.25,8296,0,78,32,26,874,534.0,638,464,60,131.0,102,1,273,176,55,0,0,430,-32248,14488,528,414.87,,,,,,,,,,,,
17784,1564322953442,7,2.34,1.42,0.76,2.22,1.98,1.23,0.33,0.11,-6,-3,-8,1.27,8281,0,78,32,26,886,528.0,639,466,60,129.0,102,1,273,175,55,0,0,449,-28648,14488,524,414.87,,,,,,,,,,,,
17804,1564322953462,11,2.33,1.43,0.77,2.22,1.98,1.2,0.3,0.09,-5,-2,-8,1.23,8329,0,78,32,25,892,524.0,641,465,60,131.0,102,1,270,178,55,0,0,455,10408,-4082,519,648.46,,,,,,,,,,,,
17824,1564322953482,8,2.32,1.43,0.77,2.22,1.98,1.2,0.32,0.13,-5,-1,-7,1.24,8322,0,78,32,25,900,519.0,637,465,60,130.0,106,1,270,178,55,0,0,456,-8187,-3314,514,-5.59,,,,,,,,,,,,
17844,1564322953500,10,2.33,1.43,0.77,2.23,1.98,1.23,0.29,0.07,-4,-1,-7,1.26,8281,0,78,32,25,912,513.0,639,464,60,131.0,106,1,270,175,55,0,0,441,26178,243,509,414.87,44.68148,10.017816,52.47,178.0,0,0.0,-1,0.0,0.0,0,0.16,0.2974
17864,1564322953520,8,2.32,1.43,0.77,2.22,1.98,1.25,0.28,0.11,-3,-2,-7,1.28,8292,0,78,32,25,924,507.0,636,467,60,130.0,106,1,270,176,55,0,0,444,-21872,17628,507,181.28,,,,,,,,,,,,
17884,1564322953540,7,2.3,1.43,0.76,2.22,1.98,1.3,0.32,0.14,-3,-1,-5,1.34,8348,0,78,32,26,930,502.0,638,463,60,130.0,106,1,273,179,55,0,0,452,11560,8488,502,882.05,,,,,,,,,,,,
17904,1564322953560,9,2.28,1.43,0.77,2.22,1.98,1.18,0.37,0.1,-2,-2,-5,1.24,8363,0,78,32,25,936,498.0,638,464,60,130.0,106,1,270,179,55,0,0,460,998,3571,498,181.28,,,,,,,,,,,,
17924,1564322953580,7,2.27,1.43,0.77,2.23,1.98,1.23,0.36,0.08,-2,-1,-4,1.29,8385,0,78,32,26,945,493.0,641,465,60,130.0,113,1,273,179,56,0,0,452,-32768,8488,490,648.46,,,,,,,,,,,,
17944,1564322953600,9,2.25,1.43,0.77,2.23,1.98,1.16,0.28,0.01,-2,0,-4,1.2,8359,0,78,32,25,955,487.0,640,465,60,130.0,113,1,270,179,56,0,0,452,1,-18108,484,414.87,44.681484,10.017797,50.05,178.0,0,0.0,-1,0.0,0.0,0,0.16,0.2991
17964,1564322953620,4,2.23,1.43,0.77,2.23,1.98,1.21,0.38,0.06,-2,-1,-4,1.26,8381,0,78,32,25,959,485.0,642,466,60,130.0,113,1,270,180,56,0,0,437,-6441,16648,481,181.28,,,,,,,,,,,,
17984,1564322953640,5,2.22,1.42,0.78,2.23,1.99,1.18,0.36,0.04,-3,1,-5,1.24,8378,0,78,32,25,963,484.0,638,463,60,131.0,113,1,270,180,56,0,0,460,-10483,-9160,477,181.28,,,,,,,,,,,,
18004,1564322953660,2,2.19,1.42,0.77,2.23,1.98,1.13,0.36,0.09,-4,-0,-6,1.19,8366,0,78,32,25,974,484.0,640,466,60,130.0,113,1,270,179,56,0,0,462,32033,17628,470,-5.59,,,,,,,,,,,,
18024,1564322953680,-1,2.17,1.42,0.77,2.22,1.99,1.19,0.4,0.05,-5,1,-5,1.25,8348,0,78,32,25,985,480.0,636,462,60,131.0,118,1,270,181,56,0,0,456,8488,2524,468,414.87,,,,,,,,,,,,
18044,1564322953699,3,2.16,1.42,0.77,2.23,1.99,1.05,0.5,0.07,-5,2,-7,1.16,8385,0,78,32,25,992,477.0,641,464,60,131.0,118,1,270,181,56,0,0,462,2212,15649,461,414.87,44.681484,10.017781,47.49,178.1,0,0.0,-1,0.0,0.0,0,0.16,0.3007
18064,1564322953719,-1,2.15,1.42,0.77,2.24,1.98,1.13,0.5,0.06,-7,1,-8,1.24,8404,0,78,32,25,999,475.0,638,462,60,129.0,118,1,270,182,56,0,0,456,-23367,2131,456,-5.59,,,,,,,,,,,,
18084,1564322953739,-2,2.14,1.42,0.77,2.22,1.98,1.14,0.44,0.02,-9,1,-8,1.22,8445,0,78,32,25,1013,473.0,640,462,60,130.0,118,1,270,184,56,0,0,455,3576,-28332,450,181.28,,,,,,,,,,,,
18104,1564322953759,3,2.12,1.42,0.77,2.23,1.97,1.02,0.58,0.06,-9,-1,-11,1.18,8442,0,78,32,25,1026,472.0,641,460,60,129.0,118,1,270,184,56,0,0,459,-1923,26704,446,181.28,,,,,,,,,,,,
18124,1564322953779,-2,2.13,1.41,0.77,2.24,1.97,1.09,0.57,0.03,-11,-1,-11,1.23,8400,0,78,32,25,1035,470.0,640,466,60,130.0,127,1,270,180,57,0,0,454,8488,-7939,444,-5.59,,,,,,,,,,,,
18144,1564322953800,2,2.12,1.42,0.77,2.23,1.98,0.95,0.63,0.04,-11,0,-13,1.14,8318,0,78,32,25,1042,471.0,640,464,60,131.0,127,1,270,99,57,0,0,460,32033,1779,442,-5.59,44.681488,10.017765,45.6,178.1,0,0.0,-1,0.0,0.0,0,0.16,0.3024
18164,1564322953820,-1,2.12,1.41,0.77,2.23,1.97,1.04,0.59,0.06,-12,-1,-16,1.2,8245,0,78,32,25,1053,467.0,637,463,60,130.0,127,1,270,173,57,0,0,456,243,13180,442,181.28,,,,,,,,,,,,
18184,1564322953840,3,2.11,1.42,0.76,2.23,1.98,0.94,0.64,0.0,-13,1,-16,1.14,8216,0,78,32,25,1064,464.0,638,464,60,131.0,127,1,270,171,57,0,0,452,6193,31796,435,-5.59,,,,,,,,,,,,
18204,1564322953860,-2,2.13,1.41,0.76,2.22,1.98,1.01,0.6,0.02,-14,-0,-18,1.18,8130,6,78,32,25,1070,460.0,641,465,60,130.0,127,1,270,166,57,0,0,448,-23623,-3414,434,648.46,,,,,,,,,,,,
18224,1564322953880,2,2.12,1.41,0.76,2.24,1.98,0.98,0.6,0.05,-15,-2,-19,1.15,8078,18,78,32,26,1075,461.0,637,467,60,129.0,118,1,273,164,51,0,0,448,-23623,-8165,430,-5.59,,,,,,,,,,,,
18244,1564322953904,2,2.12,1.42,0.76,2.24,1.98,0.93,0.59,0.07,-15,-1,-21,1.1,8099,23,78,33,29,1080,458.0,636,464,60,131.0,118,1,282,168,51,0,0,441,17628,18584,428,648.46,44.681492,10.01775,44.11,178.1,0,0.0,-1,0.0,0.0,0,0.17,0.3041
18264,1564322953924,0,2.13,1.41,0.77,2.23,1.98,0.97,0.62,0.1,-16,-3,-23,1.15,8113,28,78,33,32,1086,454.0,637,463,60,130.0,118,1,292,173,51,0,0,445,14488,7154,429,181.28,,,,,,,,,,,,
18284,1564322953944,2,2.14,1.41,0.77,2.23,1.98,0.86,0.58,0.15,-16,-2,-22,1.04,8141,31,78,33,35,1088,452.0,635,464,60,130.0,118,1,300,188,51,0,0,434,-6387,-8165,426,414.87,,,,,,,,,,,,
18304,1564322953964,-1,2.13,1.42,0.77,2.24,1.98,0.94,0.57,0.18,-17,-3,-24,1.1,8234,31,78,33,37,1089,453.0,635,462,60,130.0,118,1,308,201,51,0,0,448,-6387,-21792,424,414.87,,,,,,,,,,,,
18324,1564322953984,1,2.14,1.42,0.77,2.23,1.97,0.77,0.63,0.16,-16,-1,-24,0.99,8337,31,78,33,39,1089,452.0,637,465,60,131.0,150,1,316,134,64,0,0,448,-6387,-21944,422,-5.59,,,,,,,,,,,,
18344,1564322953996,1,2.14,1.41,0.76,2.24,1.98,0.89,0.71,0.15,-17,-3,-23,1.14,8385,31,78,33,41,1088,452.0,635,459,60,130.0,150,1,330,215,64,0,0,445,-3267,18584,422,-5.59,44.681492,10.017735,43.2,178.1,0,0.0,-1,0.0,0.0,0,0.17,0.3057
18364,1564322954016,-0,2.15,1.42,0.77,2.24,1.97,0.86,0.64,0.23,-17,-1,-24,1.07,8415,31,78,33,41,1087,450.0,640,460,60,130.0,150,1,331,215,64,0,0,447,-3267,7154,420,-5.59,,,,,,,,,,,,
18384,1564322954036,2,2.15,1.41,0.77,2.24,1.98,0.74,0.76,0.24,-16,-2,-24,1.06,8495,32,78,33,42,1085,449.0,638,461,60,131.0,150,1,338,217,64,0,0,447,15649,-8165,421,-5.59,,,,,,,,,,,,
18404,1564322954056,-1,2.16,1.41,0.77,2.22,1.98,0.86,0.76,0.26,-17,-3,-24,1.14,8561,32,78,33,42,1067,448.0,642,461,60,129.0,150,1,338,218,64,0,0,441,8488,3826,423,-5.59,,,,,,,,,,,,
18424,1564322954076,-1,2.19,1.42,0.78,2.22,1.98,0.97,0.61,0.3,-17,-2,-26,1.15,8632,32,78,33,43,1035,446.0,643,461,60,130.0,167,1,345,219,71,0,0,441,16648,-3414,424,-5.59,,,,,,,,,,,,
18444,1564322954103,-0,2.2,1.41,0.77,2.23,1.98,0.93,0.48,0.34,-16,-1,-24,1.04,8716,32,78,33,43,1003,445.0,645,461,60,131.0,167,1,345,221,71,0,0,440,21432,13552,422,-5.59,44.681492,10.017719,42.36,178.1,0,0.0,-1,0.0,0.0,0,0.17,0.3074
18464,1564322954123,1,2.22,1.42,0.78,2.23,1.99,0.75,0.48,0.46,-15,0,-24,0.9,8769,32,78,33,42,973,444.0,647,462,60,131.0,167,1,338,221,71,0,0,441,21432,31796,423,-5.59,,,,,,,,,,,,
18484,1564322954143,1,2.24,1.42,0.79,2.23,1.99,0.74,0.54,0.53,-14,1,-23,0.92,8636,32,78,33,42,952,444.0,641,461,60,130.0,167,1,338,219,71,0,0,448,2131,2131,428,-5.59,,,,,,,,,,,,
18504,1564322954163,-1,2.26,1.42,0.78,2.24,1.98,0.77,0.52,0.6,-13,2,-21,0.93,8396,33,78,33,43,942,446.0,638,462,60,131.0,167,1,343,219,71,0,0,451,16648,16648,430,-5.59,,,,,,,,,,,,
18524,1564322954183,1,2.28,1.42,0.78,2.23,1.98,0.77,0.54,0.64,-12,-1,-21,0.94,8127,33,78,33,44,940,447.0,633,462,60,130.0,157,1,348,218,68,0,0,452,10305,23400,436,-5.59,,,,,,,,,,,,
18544,1564322954203,3,2.29,1.42,0.78,2.24,1.98,0.68,0.5,0.58,-10,0,-19,0.84,8026,33,78,33,45,961,447.0,631,461,60,130.0,157,1,355,219,68,0,0,447,10305,16648,440,181.28,44.681492,10.017705,42.26,178.2,0,0.0,-1,0.0,0.0,0,0.17,0.3091
18564,1564322954223,0,2.3,1.42,0.77,2.24,1.98,0.8,0.45,0.65,-9,-2,-18,0.92,8002,33,78,33,46,990,445.0,631,461,60,129.0,157,1,362,221,68,0,0,446,2131,20625,441,-5.59,,,,,,,,,,,,
18584,1564322954243,1,2.32,1.42,0.78,2.23,1.98,0.83,0.41,0.65,-7,-5,-18,0.92,7995,33,78,33,47,1028,443.0,632,461,60,130.0,157,1,370,223,68,0,0,440,23400,20625,438,181.28,,,,,,,,,,,,
18604,1564322954263,3,2.33,1.42,0.77,2.24,1.97,0.77,0.33,0.62,-6,-5,-16,0.84,8026,33,78,33,48,1062,441.0,633,459,60,131.0,157,1,372,229,68,0,0,441,26704,21580,439,648.46,,,,,,,,,,,,
18624,1564322954283,-0,2.35,1.42,0.77,2.23,1.98,0.86,0.3,0.6,-5,-6,-14,0.91,8092,33,78,33,48,1079,441.0,633,463,60,129.0,156,1,372,229,69,0,0,437,20625,19477,440,-5.59,,,,,,,,,,,,
18644,1564322954303,0,2.36,1.42,0.77,2.24,1.98,0.73,0.2,0.56,-4,-6,-14,0.76,8113,33,78,33,48,1097,441.0,632,459,60,131.0,156,1,372,230,69,0,0,435,20625,-28332,441,414.87,44.681492,10.01769,43.53,178.2,0,0.0,-1,0.0,0.0,0,0.17,0.3107
18664,1564322954323,1,2.38,1.42,0.77,2.23,1.98,0.81,0.11,0.61,-3,-5,-11,0.82,8134,33,78,33,48,1113,444.0,635,461,60,130.0,156,1,372,230,69,0,0,436,-28332,23400,444,181.28,,,,,,,,,,,,
18684,1564322954343,3,2.4,1.42,0.77,2.25,1.98,0.76,0.08,0.57,-1,-4,-9,0.77,8205,34,79,33,47,1127,448.0,636,462,60,131.0,156,1,370,231,69,0,0,435,21580,-18341,448,181.28,,,,,,,,,,,,
18704,1564322954363,-1,2.43,1.42,0.77,2.25,1.98,0.79,0.03,0.59,0,-3,-8,0.79,8191,34,78,33,47,1126,450.0,634,461,60,130.0,156,1,370,224,69,0,0,437,21580,3571,450,-5.59,,,,,,,,,,,,
18724,1564322954383,2,2.46,1.43,0.77,2.25,1.98,0.72,-0.02,0.62,3,-3,-5,0.72,8289,34,78,33,47,1127,449.0,633,461,60,130.0,155,1,370,225,70,0,0,432,-768,21432,449,-5.59,,,,,,,,,,,,
18744,1564322954405,1,2.48,1.43,0.78,2.25,1.98,0.8,-0.1,0.6,5,-2,-3,0.81,8355,33,79,33,47,1137,450.0,636,460,60,130.0,155,1,370,224,70,0,0,431,1779,3571,450,181.28,44.681488,10.017674,43.56,178.2,0,0.0,-1,0.0,0.0,0,0.17,0.3124
18764,1564322954425,3,2.51,1.43,0.77,2.26,1.98,0.7,-0.18,0.6,8,-1,-1,0.72,8370,29,78,33,46,1148,450.0,634,462,60,131.0,155,1,363,224,70,0,0,428,3635,10305,452,181.28,,,,,,,,,,,,
18784,1564322954445,1,2.52,1.43,0.77,2.26,1.99,0.76,-0.24,0.61,10,-3,2,0.8,8400,22,78,33,44,1158,454.0,637,463,60,130.0,155,1,350,221,70,0,0,425,-3856,3571,454,-5.59,,,,,,,,,,,,
18804,1564322954465,0,2.54,1.42,0.77,2.25,1.99,0.78,-0.38,0.53,12,-2,5,0.87,8423,16,78,33,40,1171,453.0,632,461,60,131.0,155,1,324,215,70,0,0,429,-4082,14488,457,181.28,,,,,,,,,,,,
18824,1564322954485,2,2.55,1.43,0.78,2.26,1.99,0.72,-0.44,0.55,14,-1,8,0.85,8461,15,79,33,38,1194,458.0,635,461,60,129.0,148,1,316,208,68,0,0,452,-8165,-9160,458,-5.59,,,,,,,,,,,,
18844,1564322954503,1,2.57,1.43,0.78,2.27,1.99,0.85,-0.49,0.59,16,-3,11,0.98,8465,15,78,33,36,1218,459.0,635,463,60,129.0,148,1,310,200,68,0,0,482,-21792,-9160,460,-5.59,44.681488,10.017659,43.57,178.2,0,0.0,-1,0.0,0.0,0,0.17,0.3141
18864,1564322954523,-1,2.59,1.43,0.78,2.26,1.99,0.79,-0.64,0.41,18,0,15,1.02,8522,15,78,33,34,1231,459.0,636,461,60,131.0,148,1,305,195,68,0,0,479,7154,14488,459,-5.59,,,,,,,,,,,,
18884,1564322954543,1,2.61,1.43,0.78,2.26,2.0,0.74,-0.66,0.43,20,2,18,0.99,8499,15,78,33,33,1245,459.0,637,461,60,130.0,148,1,301,190,68,0,0,477,-21944,-6387,459,-5.59,,,,,,,,,,,,
18904,1564322954563,1,2.6,1.44,0.78,2.26,2.0,0.8,-0.69,0.42,21,2,21,1.05,8499,16,79,33,32,1258,458.0,635,458,60,129.0,148,1,299,187,68,0,0,472,2524,2211,458,-5.59,,,,,,,,,,,,
18924,1564322954583,3,2.62,1.43,0.78,2.26,2.0,0.77,-0.79,0.46,23,1,23,1.11,8434,16,79,33,32,1271,457.0,636,465,60,130.0,131,1,298,185,60,0,0,471,2524,2524,457,-5.59,,,,,,,,,,,,
18944,1564322954599,-0,2.63,1.43,0.79,2.26,2.0,0.84,-0.86,0.43,25,1,26,1.2,8400,16,79,33,31,1273,457.0,635,462,60,130.0,131,1,294,183,60,0,0,461,13040,-9160,457,-5.59,44.681488,10.017644,43.4,178.2,0,0.0,-1,0.0,0.0,0,0.17,0.3157
18964,1564322954619,-1,2.64,1.43,0.78,2.26,2.0,0.85,-0.92,0.49,26,1,28,1.25,8351,16,79,33,31,1273,460.0,637,466,60,130.0,131,1,293,182,60,0,0,454,9517,14488,460,-5.59,,,,,,,,,,,,
18984,1564322954639,2,2.63,1.44,0.78,2.26,2.0,0.79,-0.97,0.44,28,1,30,1.26,8329,16,79,33,31,1218,459.0,635,462,60,131.0,131,1,292,180,60,0,0,451,11560,2524,457,-5.59,,,,,,,,,,,,
19004,1564322954659,-1,2.63,1.43,0.78,2.27,1.99,0.82,-1.0,0.47,29,1,32,1.3,8245,16,79,33,31,1160,457.0,630,462,60,130.0,131,1,291,177,60,0,0,445,2524,-9160,457,181.28,,,,,,,,,,,,
19024,1564322954679,2,2.63,1.44,0.78,2.27,2.0,0.8,-1.04,0.42,31,-0,35,1.32,8194,17,79,33,31,1102,457.0,517,462,60,130.0,120,1,289,175,55,0,0,441,2524,-23623,456,181.28,,,,,,,,,,,,
19044,1564322954699,2,2.64,1.44,0.78,2.27,2.0,0.85,-1.07,0.45,33,-1,36,1.37,8162,17,79,33,31,1043,456.0,408,460,60,130.0,120,1,288,174,55,0,0,443,-9211,2524,456,648.46,44.681488,10.017629,43.36,178.2,0,0.0,-1,0.0,0.0,0,0.17,0.3174
19064,1564322954719,1,2.63,1.43,0.79,2.26,2.0,0.9,-1.08,0.41,34,-2,37,1.41,8078,17,79,33,31,977,456.0,382,464,60,130.0,120,1,288,170,55,0,0,439,-8151,10305,455,181.28,,,,,,,,,,,,
19084,1564322954739,0,2.63,1.44,0.79,2.26,2.0,0.91,-1.15,0.38,35,-3,39,1.46,8002,17,79,33,31,906,456.0,342,460,60,131.0,120,1,287,169,55,0,0,436,10541,-8985,456,414.87,,,,,,,,,,,,
19104,1564322954759,3,2.63,1.44,0.79,2.26,2.01,0.97,-1.18,0.43,36,-2,40,1.53,7928,17,79,33,32,877,454.0,345,461,60,131.0,120,1,290,169,55,0,0,436,10541,21432,456,414.87,,,,,,,,,,,,
19124,1564322954779,-1,2.62,1.44,0.78,2.27,2.0,1.01,-1.2,0.36,37,-3,41,1.57,7898,17,79,33,33,865,454.0,347,463,60,130.0,110,1,292,174,50,0,0,432,10541,2131,454,414.87,,,,,,,,,,,,
19144,1564322954801,-0,2.63,1.44,0.78,2.26,2.01,0.96,-1.21,0.36,38,-3,43,1.54,7884,17,79,33,33,854,452.0,316,460,60,130.0,110,1,292,174,50,0,0,412,28696,-18341,452,-5.59,44.681492,10.017614,42.87,178.2,0,0.0,-1,0.0,0.0,0,0.18,0.3191
19164,1564322954821,1,2.61,1.44,0.79,2.26,2.0,0.87,-1.25,0.36,38,-4,43,1.52,7928,18,79,33,33,844,450.0,298,461,60,130.0,110,1,292,174,50,0,0,391,-32702,21580,450,-5.59,,,,,,,,,,,,
19184,1564322954841,2,2.58,1.44,0.79,2.26,1.99,0.86,-1.24,0.41,39,-3,43,1.51,7908,18,79,33,34,840,449.0,293,462,60,130.0,110,1,295,179,50,0,0,380,-1818,10305,451,-5.59,,,,,,,,,,,,
19204,1564322954861,-2,2.54,1.44,0.78,2.26,2.01,0.86,-1.21,0.37,39,-2,45,1.49,7848,18,79,33,34,842,449.0,296,464,60,130.0,110,1,295,179,50,0,0,380,-1818,20625,449,-5.59,,,,,,,,,,,,
19224,1564322954881,-0,2.49,1.44,0.79,2.26,2.0,0.78,-1.15,0.33,39,-3,46,1.39,7838,21,79,33,34,846,451.0,289,460,60,131.0,118,1,295,179,53,0,0,379,505,21432,451,-5.59,,,,,,,,,,,,
19244,1564322954905,1,2.45,1.44,0.78,2.27,2.0,0.75,-1.14,0.34,38,-3,47,1.36,7789,21,79,33,35,851,446.0,290,461,60,130.0,118,1,298,185,53,0,0,381,-6656,20625,446,-5.59,44.681496,10.0176,42.14,178.2,0,0.0,-1,0.0,0.0,0,0.18,0.3207
19264,1564322954925,1,2.41,1.43,0.79,2.26,1.99,0.74,-1.11,0.37,36,-2,49,1.33,7799,21,79,33,36,855,443.0,286,462,60,130.0,118,1,301,191,53,0,0,381,-6656,21580,443,-5.59,,,,,,,,,,,,
19284,1564322954945,3,2.37,1.44,0.78,2.27,2.0,0.84,-1.07,0.36,33,-2,49,1.36,7760,21,79,33,37,857,440.0,282,463,60,129.0,118,1,304,197,53,0,0,384,-3968,243,438,-5.59,,,,,,,,,,,,
19304,1564322954965,0,2.36,1.44,0.78,2.27,1.99,0.93,-1.03,0.3,30,-2,49,1.39,7712,21,79,33,37,859,437.0,280,460,60,130.0,118,1,304,197,53,0,0,390,6512,-3314,437,-5.59,,,,,,,,,,,,
19324,1564322954985,-1,2.33,1.43,0.78,2.26,1.99,0.95,-1.01,0.25,29,-2,45,1.39,7728,21,79,33,38,859,433.0,277,464,60,130.0,131,1,307,203,57,0,0,394,-8151,31796,433,-5.59,,,,,,,,,,,,
19344,1564322954997,1,2.3,1.43,0.79,2.26,1.99,0.96,-0.93,0.29,28,-2,41,1.34,7700,21,79,33,38,858,429.0,278,461,60,130.0,131,1,307,203,57,0,0,411,11560,-3856,427,-5.59,44.6815,10.017588,41.42,178.2,0,0.0,-1,0.0,0.0,0,0.18,0.3224
19364,1564322955017,1,2.28,1.43,0.78,2.26,1.99,0.91,-0.82,0.34,25,-0,38,1.22,7725,22,79,33,38,855,421.0,277,462,60,130.0,131,1,307,203,57,0,0,407,9517,-8165,421,-5.59,,,,,,,,,,,,
19384,1564322955037,1,2.24,1.43,0.78,2.26,1.99,0.79,-0.78,0.32,20,0,35,1.11,7693,22,79,33,39,853,415.0,275,458,60,131.0,131,1,310,209,57,0,0,411,-9166,-21944,415,-5.59,,,,,,,,,,,,
19404,1564322955057,3,2.2,1.43,0.78,2.25,1.99,0.76,-0.65,0.33,16,0,33,1.0,7678,22,79,33,39,852,415.0,277,463,60,130.0,131,1,310,209,57,0,0,414,2524,13040,411,181.28,,,,,,,,,,,,
19424,1564322955077,3,2.17,1.42,0.77,2.24,1.97,0.82,-0.51,0.36,12,-0,31,0.97,7712,22,79,34,40,852,418.0,279,463,60,129.0,149,1,317,210,61,0,0,412,-3414,10392,409,414.87,,,,,,,,,,,,
19444,1564322955104,-0,2.16,1.41,0.75,2.22,1.96,0.9,-0.35,0.41,7,-1,27,0.97,7697,22,79,34,40,854,420.0,286,465,60,129.0,149,1,317,210,61,0,0,413,-8165,11560,406,181.28,44.681503,10.017574,40.94,178.2,0,0.0,-1,0.0,0.0,0,0.18,0.3241
19464,1564322955124,-1,2.15,1.39,0.74,2.19,1.94,0.98,-0.2,0.46,4,-2,23,1.0,7700,22,79,34,40,856,422.0,295,462,60,130.0,149,1,317,210,61,0,0,419,-3414,-8151,403,-5.59,,,,,,,,,,,,
19484,1564322955144,1,2.15,1.37,0.73,2.18,1.93,0.97,-0.08,0.46,3,-2,19,0.97,7709,22,79,34,40,861,424.0,311,463,60,130.0,149,1,317,210,61,0,0,419,3826,10541,404,-5.59,,,,,,,,,,,,
19504,1564322955164,1,2.15,1.38,0.73,2.18,1.92,0.88,0.0,0.45,2,-2,14,0.88,7738,22,79,33,41,865,424.0,334,462,60,131.0,149,1,325,210,61,0,0,421,-4082,-8151,404,-5.59,,,,,,,,,,,,
19524,1564322955184,2,2.12,1.38,0.73,2.17,1.92,0.78,0.08,0.4,1,-1,10,0.79,7747,22,79,34,40,868,424.0,355,459,60,131.0,153,1,317,212,62,0,0,422,-4082,6384,402,-5.59,,,,,,,,,,,,
19544,1564322955204,2,2.09,1.38,0.73,2.17,1.91,0.76,0.16,0.34,-1,0,7,0.77,7809,22,79,34,41,870,424.0,377,461,60,131.0,153,1,325,212,62,0,0,419,-4082,-3968,400,-5.59,44.681511,10.017563,40.51,178.2,0,0.0,-1,0.0,0.0,0,0.18,0.3257
19564,1564322955224,-0,2.07,1.39,0.72,2.18,1.91,0.88,0.18,0.37,-4,-2,4,0.9,7845,23,79,34,41,873,423.0,404,464,60,130.0,153,1,325,212,62,0,0,418,-4082,-32702,398,-5.59,,,,,,,,,,,,
19584,1564322955244,1,2.05,1.38,0.73,2.18,1.93,0.99,0.27,0.43,-6,-3,1,1.03,7841,23,79,33,40,875,424.0,423,460,60,130.0,153,1,317,212,62,0,0,419,-4082,-32702,392,-5.59,,,,,,,,,,,,
19604,1564322955264,2,2.04,1.38,0.74,2.18,1.93,0.84,0.42,0.39,-8,-2,-2,0.94,7901,23,79,34,41,875,424.0,438,461,60,130.0,153,1,325,212,62,0,0,419,-4082,-31744,393,-5.59,,,,,,,,,,,,
19624,1564322955284,3,2.02,1.39,0.73,2.18,1.92,0.77,0.5,0.38,-10,-1,-6,0.91,7904,23,79,34,41,875,426.0,450,460,60,131.0,161,1,325,212,63,0,0,420,13552,-1818,391,-5.59,,,,,,,,,,,,
19644,1564322955305,-1,2.03,1.39,0.73,2.18,1.92,0.89,0.51,0.45,-13,-4,-9,1.03,7934,23,79,34,41,875,428.0,475,463,60,130.0,161,1,325,212,63,0,0,423,13180,-6656,389,-5.59,44.681515,10.01755,40.08,178.2,0,0.0,-1,0.0,0.0,0,0.18,0.3274
19664,1564322955325,-0,2.02,1.39,0.74,2.18,1.92,0.86,0.63,0.48,-14,-3,-12,1.07,7958,23,79,34,40,876,429.0,514,460,60,130.0,161,1,317,210,63,0,0,426,3635,-31744,388,-5.59,,,,,,,,,,,,
19684,1564322955345,3,2.02,1.39,0.73,2.18,1.92,0.73,0.74,0.42,-16,-1,-16,1.04,7918,23,79,34,40,877,429.0,555,458,60,130.0,161,1,317,210,63,0,0,429,3635,-6524,386,181.28,,,,,,,,,,,,
19704,1564322955365,0,2.02,1.39,0.74,2.18,1.93,0.81,0.7,0.43,-18,-2,-17,1.08,7838,23,79,34,41,878,430.0,589,462,60,129.0,161,1,325,212,63,0,0,425,1779,-8151,387,181.28,,,,,,,,,,,,
19724,1564322955385,-1,2.02,1.39,0.74,2.19,1.92,0.94,0.74,0.52,-20,-2,-20,1.19,7751,24,79,34,41,889,431.0,610,463,60,130.0,160,1,325,212,62,0,0,423,1779,-3414,387,-5.59,,,,,,,,,,,,
19744,1564322955404,-2,2.03,1.39,0.74,2.19,1.93,1.0,0.77,0.58,-21,-4,-23,1.26,7678,24,79,34,41,901,429.0,623,462,60,130.0,160,1,325,212,62,0,0,424,3635,11545,387,-5.59,44.681522,10.017538,39.54,178.2,0,0.0,-1,0.0,0.0,0,0.18,0.3291
19764,1564322955424,-1,2.02,1.4,0.75,2.18,1.93,0.96,0.8,0.6,-21,-6,-25,1.25,7681,24,79,34,42,911,431.0,620,461,60,130.0,160,1,332,214,62,0,0,425,-3314,505,388,-5.59,,,,,,,,,,,,
19784,1564322955444,1,2.02,1.39,0.74,2.18,1.93,0.89,0.9,0.58,-21,-5,-26,1.26,7631,24,79,34,42,922,431.0,620,458,60,131.0,160,1,332,214,62,0,0,425,1779,505,388,181.28,,,,,,,,,,,,
19804,1564322955464,1,2.02,1.39,0.74,2.19,1.93,0.78,0.99,0.55,-21,-4,-27,1.26,7631,24,79,34,42,934,429.0,622,463,60,131.0,160,1,332,214,62,0,0,428,3635,-1818,388,-5.59,,,,,,,,,,,,
19824,1564322955484,1,2.02,1.4,0.74,2.19,1.93,0.68,1.08,0.52,-22,-3,-29,1.27,7575,24,79,34,43,946,432.0,622,464,60,131.0,159,1,340,216,62,0,0,430,1779,-31744,388,-5.59,,,,,,,,,,,,
19844,1564322955502,2,2.02,1.39,0.75,2.2,1.94,0.59,1.11,0.48,-22,-1,-30,1.25,7606,25,79,34,43,950,432.0,620,461,60,130.0,159,1,340,216,62,0,0,426,-3322,240,388,-5.59,44.681522,10.017525,39.78,178.2,0,0.0,-1,0.0,0.0,0,0.18,0.3307
19864,1564322955522,3,2.02,1.39,0.75,2.2,1.94,0.52,1.12,0.41,-23,1,-30,1.24,7591,25,79,34,44,952,431.0,621,465,60,130.0,159,1,347,216,62,0,0,424,1779,-1562,386,-5.59,,,,,,,,,,,,
19884,1564322955542,3,2.01,1.4,0.74,2.2,1.93,0.51,1.18,0.34,-25,1,-32,1.28,7591,25,79,34,44,952,429.0,620,463,60,130.0,159,1,347,217,62,0,0,423,3635,-31744,387,181.28,,,,,,,,,,,,
19904,1564322955562,3,2.02,1.39,0.74,2.21,1.93,0.55,1.16,0.35,-27,0,-33,1.28,7625,25,79,34,44,953,431.0,622,466,60,130.0,159,1,347,217,62,0,0,426,1779,240,386,181.28,,,,,,,,,,,,
19924,1564322955582,3,2.02,1.39,0.75,2.2,1.94,0.63,1.12,0.33,-28,-0,-34,1.28,7584,25,79,34,44,953,432.0,621,461,60,129.0,160,1,347,219,62,0,0,426,-3322,-6656,386,181.28,,,,,,,,,,,,
19944,1564322955596,-2,2.03,1.39,0.75,2.21,1.94,0.74,1.06,0.4,-28,-1,-35,1.29,7634,25,79,34,45,952,430.0,621,468,60,130.0,160,1,355,219,62,0,0,428,-3314,1,386,-5.59,44.681526,10.017511,39.65,178.2,0,0.0,-1,0.0,0.0,0,0.18,0.3324
19964,1564322955616,-0,2.01,1.39,0.75,2.2,1.93,0.87,0.96,0.48,-29,-4,-37,1.29,7628,25,79,34,45,956,430.0,625,461,60,131.0,160,1,355,219,62,0,0,426,-3314,505,388,-5.59,,,,,,,,,,,,
19984,1564322955636,0,2.02,1.39,0.75,2.19,1.94,0.97,0.87,0.54,-30,-6,-38,1.3,7674,25,79,34,45,960,430.0,625,464,60,129.0,160,1,355,219,62,0,0,424,-3314,1,387,-5.59,,,,,,,,,,,,
20004,1564322955656,1,2.02,1.39,0.74,2.19,1.94,1.02,0.9,0.56,-30,-6,-37,1.36,7646,26,79,34,45,966,430.0,621,462,60,130.0,160,1,355,221,62,0,0,424,-3314,17144,388,-5.59,,,,,,,,,,,,
20024,1564322955676,1,2.02,1.39,0.73,2.2,1.93,0.98,0.98,0.58,-29,-5,-37,1.39,7678,26,79,34,45,971,429.0,626,461,60,131.0,162,1,355,219,63,0,0,426,3635,-6656,387,181.28,,,,,,,,,,,,
20044,1564322955700,0,2.03,1.39,0.74,2.2,1.93,0.86,1.05,0.59,-29,-4,-38,1.36,7671,26,79,34,45,980,430.0,624,460,60,131.0,162,1,355,219,63,0,0,424,-3314,-1562,386,414.87,44.681526,10.017498,39.44,178.2,0,0.0,-1,0.0,0.0,0,0.19,0.3341
20064,1564322955720,2,2.03,1.39,0.74,2.19,1.93,0.71,1.13,0.52,-28,-2,-38,1.33,7700,26,79,34,45,991,429.0,621,460,60,130.0,162,1,355,219,63,0,0,426,3635,-1818,387,414.87,,,,,,,,,,,,
20084,1564322955740,2,2.03,1.39,0.74,2.19,1.93,0.67,1.08,0.48,-29,-1,-37,1.27,7662,26,79,34,46,1000,429.0,623,463,60,130.0,162,1,362,221,63,0,0,427,3635,28696,388,-5.59,,,,,,,,,,,,
20104,1564322955760,2,2.03,1.38,0.73,2.19,1.93,0.69,1.04,0.46,-30,-2,-37,1.25,7656,26,79,34,46,1005,429.0,625,463,60,129.0,162,1,362,221,63,0,0,428,3635,-32702,391,-5.59,,,,,,,,,,,,
20124,1564322955780,0,2.02,1.39,0.74,2.19,1.93,0.79,1.0,0.49,-30,-3,-38,1.27,7684,26,79,34,46,1014,430.0,626,462,60,130.0,164,1,362,221,64,0,0,424,-3314,-32702,390,-5.59,,,,,,,,,,,,
20144,1564322955800,0,2.04,1.39,0.72,2.18,1.92,0.92,0.93,0.56,-31,-5,-39,1.3,7646,26,79,34,46,1027,429.0,625,458,60,130.0,164,1,362,221,64,0,0,425,3635,-32702,390,181.28,44.681526,10.017484,39.63,178.2,0,0.0,-1,0.0,0.0,0,0.19,0.3357
20164,1564322955820,-1,2.05,1.38,0.74,2.19,1.93,1.02,0.93,0.64,-31,-6,-39,1.38,7665,26,79,34,46,1037,430.0,626,465,60,130.0,164,1,362,221,64,0,0,426,-3314,-3968,390,-5.59,,,,,,,,,,,,
20184,1564322955840,0,2.05,1.39,0.74,2.2,1.93,0.99,0.9,0.68,-30,-6,-40,1.34,7659,27,79,34,47,1043,431.0,627,461,60,131.0,164,1,370,223,64,0,0,429,1779,1,391,181.28,,,,,,,,,,,,
20204,1564322955860,1,2.06,1.39,0.74,2.2,1.93,0.92,0.94,0.7,-29,-6,-40,1.31,7687,39,79,34,48,1049,431.0,624,461,60,131.0,164,1,372,228,64,0,0,426,-3314,-6656,389,181.28,,,,,,,,,,,,
20224,1564322955880,2,2.09,1.4,0.74,2.2,1.93,0.81,0.99,0.63,-28,-4,-39,1.28,7684,46,79,34,53,1055,428.0,626,460,60,131.0,177,1,387,252,69,0,0,427,13180,1,391,181.28,,,,,,,,,,,,
20244,1564322955904,3,2.11,1.4,0.74,2.19,1.94,0.7,1.02,0.58,-27,-2,-38,1.24,7700,56,79,34,59,1059,429.0,628,462,60,131.0,177,1,426,292,69,0,0,427,3635,-32702,393,181.28,44.681526,10.017469,39.81,178.2,0,0.0,-1,0.0,0.0,0,0.19,0.3374
20264,1564322955924,3,2.14,1.4,0.74,2.2,1.92,0.64,1.1,0.58,-26,-2,-38,1.27,7621,64,79,34,65,1057,428.0,628,461,60,130.0,177,1,434,330,69,0,0,423,13180,-3968,393,-5.59,,,,,,,,,,,,
20284,1564322955944,1,2.18,1.39,0.74,2.2,1.93,0.63,1.05,0.52,-25,-1,-37,1.23,7545,71,79,34,73,1058,426.0,623,461,60,130.0,177,1,417,396,69,0,0,420,-3856,-32702,395,414.87,,,,,,,,,,,,
20304,1564322955964,2,2.2,1.4,0.74,2.2,1.93,0.53,0.99,0.46,-23,1,-36,1.13,7381,76,79,34,79,1061,422.0,623,462,60,130.0,177,1,402,468,69,0,0,421,-3414,-6656,398,-5.59,,,,,,,,,,,,
20324,1564322955984,-0,2.24,1.4,0.75,2.21,1.93,0.54,0.94,0.51,-21,1,-34,1.09,7273,77,79,34,84,1064,422.0,621,463,60,131.0,341,1,394,503,136,0,0,419,-3414,-3968,399,-5.59,,,,,,,,,,,,
20344,1564322955996,-1,2.29,1.41,0.75,2.22,1.95,0.57,0.84,0.54,-19,0,-34,1.01,7205,77,79,34,86,1068,419.0,617,457,60,131.0,341,1,389,516,136,0,0,418,-8165,-32702,399,-5.59,44.681526,10.017456,39.85,178.3,0,0.0,-1,0.0,0.0,0,0.19,0.3391
20364,1564322956016,-0,2.32,1.41,0.76,2.22,1.95,0.72,0.65,0.55,-17,-2,-32,0.97,7256,77,79,34,87,1086,415.0,613,462,60,130.0,341,1,392,524,136,0,0,415,-26615,-3968,401,-5.59,,,,,,,,,,,,
20384,1564322956036,-0,2.36,1.41,0.76,2.24,1.95,0.83,0.5,0.55,-14,-4,-30,0.97,7393,77,79,34,88,1146,412.0,613,461,60,131.0,341,1,401,535,136,0,0,408,13040,-8151,407,-5.59,,,,,,,,,,,,
20404,1564322956056,-0,2.41,1.42,0.76,2.24,1.96,0.9,0.39,0.58,-12,-4,-28,0.98,7693,77,79,34,88,1204,409.0,619,463,60,129.0,341,1,423,544,136,0,0,405,11560,1504,409,-5.59,,,,,,,,,,,,
20424,1564322956076,0,2.45,1.42,0.77,2.24,1.97,0.8,0.27,0.58,-8,-3,-23,0.84,8145,77,79,34,86,1259,412.0,629,462,60,130.0,391,1,439,550,161,0,0,402,2524,10392,412,-5.59,,,,,,,,,,,,
20444,1564322956105,-1,2.48,1.42,0.78,2.25,1.98,0.68,0.19,0.68,-5,-1,-20,0.71,8786,78,79,34,83,1317,415.0,635,460,60,129.0,391,1,423,555,161,0,0,398,11545,2524,415,-5.59,44.681522,10.017442,40.07,178.3,0,0.0,-1,0.0,0.0,0,0.19,0.3407
20464,1564322956125,1,2.51,1.42,0.78,2.26,1.98,0.56,0.09,0.81,-2,1,-15,0.56,9250,78,79,34,80,1384,418.0,647,462,60,130.0,391,1,416,512,161,0,0,415,6512,1779,418,-5.59,,,,,,,,,,,,
20484,1564322956145,1,2.52,1.43,0.78,2.26,1.97,0.55,-0.01,0.92,1,2,-11,0.55,9200,78,79,34,78,1450,428.0,647,466,60,130.0,391,1,415,497,161,0,0,514,10541,-8985,429,-5.59,,,,,,,,,,,,
20504,1564322956165,1,2.53,1.42,0.78,2.26,1.98,0.49,-0.15,1.03,4,5,-6,0.52,8962,78,79,34,78,1463,438.0,645,462,60,130.0,391,1,415,483,161,0,0,551,1504,12552,438,181.28,,,,,,,,,,,,
20524,1564322956185,-1,2.54,1.42,0.78,2.27,1.98,0.43,-0.27,1.12,8,5,-3,0.51,8848,78,79,34,79,1469,445.0,641,461,60,131.0,380,1,419,497,168,0,0,470,-9211,16408,448,414.87,,,,,,,,,,,,
20544,1564322956205,1,2.56,1.42,0.78,2.27,1.99,0.4,-0.33,1.14,10,4,1,0.52,8724,79,79,34,79,1426,452.0,642,460,60,130.0,380,1,422,497,168,0,0,425,10392,30272,452,-5.59,44.681522,10.017428,40.32,178.3,0,0.0,-1,0.0,0.0,0,0.19,0.3424
20564,1564322956225,2,2.56,1.43,0.78,2.27,1.99,0.49,-0.43,1.14,12,3,5,0.65,8503,79,79,34,79,1382,453.0,631,457,60,129.0,380,1,426,497,168,0,0,502,2524,8488,453,-5.59,,,,,,,,,,,,
20584,1564322956245,1,2.55,1.43,0.78,2.27,1.99,0.51,-0.53,1.1,13,1,8,0.73,8553,79,79,34,80,1326,455.0,631,459,60,130.0,380,1,426,512,168,0,0,495,-9211,32033,455,-5.59,,,,,,,,,,,,
20604,1564322956265,-1,2.55,1.42,0.78,2.27,1.98,0.38,-0.57,1.07,15,0,9,0.68,8636,79,79,34,80,1271,455.0,635,460,60,131.0,380,1,424,512,168,0,0,441,-8151,10432,455,-5.59,,,,,,,,,,,,
20624,1564322956285,0,2.53,1.43,0.78,2.27,1.98,0.27,-0.55,1.09,16,1,12,0.61,8823,79,79,34,80,1241,455.0,631,462,60,130.0,370,1,420,512,169,0,0,465,-8151,-16384,455,-5.59,,,,,,,,,,,,
20644,1564322956305,0,2.52,1.43,0.78,2.27,1.99,0.28,-0.55,1.16,17,0,15,0.61,8988,79,79,34,79,1210,458.0,637,458,60,130.0,370,1,416,497,169,0,0,517,-8151,-9203,458,-5.59,44.681522,10.017414,42.85,178.3,0,0.0,-1,0.0,0.0,0,0.19,0.3441
20664,1564322956325,1,2.5,1.42,0.78,2.26,1.99,0.13,-0.54,1.17,18,1,18,0.56,9173,79,79,34,79,1226,464.0,640,465,60,130.0,370,1,415,497,169,0,0,507,7154,3576,464,-5.59,,,,,,,,,,,,
20684,1564322956345,2,2.47,1.43,0.78,2.27,1.98,0.2,-0.57,1.25,20,1,19,0.6,9422,79,79,34,78,1251,467.0,644,463,60,130.0,370,1,415,497,169,0,0,491,1779,32033,469,181.28,,,,,,,,,,,,
20704,1564322956365,1,2.44,1.43,0.78,2.28,1.99,0.23,-0.57,1.25,21,0,21,0.61,9635,79,79,34,78,1275,476.0,646,461,60,130.0,370,1,411,489,169,0,0,513,-3322,8488,476,648.46,,,,,,,,,,,,
20724,1564322956385,0,2.42,1.43,0.78,2.27,1.98,0.36,-0.62,1.2,21,1,24,0.72,9715,80,79,34,77,1300,479.0,550,453,60,130.0,382,1,408,481,182,0,0,532,26704,3,479,181.28,,,,,,,,,,,,
20744,1564322956405,0,2.4,1.43,0.78,2.26,1.99,0.39,-0.7,1.27,22,3,25,0.8,9735,80,79,34,77,1307,483.0,606,460,60,129.0,382,1,407,482,182,0,0,494,-18341,-3482,483,181.28,44.681522,10.017398,44.77,178.3,0,0.0,-1,0.0,0.0,0,0.19,0.3457
20764,1564322956425,2,2.39,1.42,0.78,2.27,1.98,0.39,-0.7,1.34,22,4,24,0.81,9654,79,79,34,77,1307,486.0,541,460,60,129.0,382,1,410,477,182,0,0,494,3571,-3856,486,-5.59,,,,,,,,,,,,
20784,1564322956445,3,2.39,1.42,0.78,2.27,1.99,0.36,-0.75,1.25,22,2,23,0.83,9488,80,79,34,77,1287,491.0,463,461,60,130.0,382,1,415,470,182,0,0,518,-18108,-3482,491,-5.59,,,,,,,,,,,,
20804,1564322956465,3,2.39,1.43,0.78,2.26,2.0,0.44,-0.72,1.14,21,1,23,0.84,9295,79,79,34,77,1262,493.0,417,458,60,129.0,382,1,414,470,182,0,0,511,8488,-32248,493,-5.59,,,,,,,,,,,,
20824,1564322956485,-1,2.4,1.43,0.77,2.27,1.99,0.37,-0.72,1.2,20,1,23,0.81,9291,79,79,34,78,1236,500.0,369,462,60,130.0,333,1,415,483,166,0,0,499,3576,17136,500,-5.59,,,,,,,,,,,,
20844,1564322956501,2,2.4,1.43,0.77,2.28,1.98,0.34,-0.8,1.23,19,1,23,0.87,9314,80,79,34,78,1210,499.0,389,457,60,130.0,333,1,415,483,166,0,0,500,-23367,-3414,499,-5.59,44.681522,10.017382,46.43,178.3,0,0.0,-1,0.0,0.0,0,0.2,0.3474
20864,1564322956521,1,2.39,1.43,0.77,2.28,1.99,0.4,-0.8,1.2,18,0,21,0.9,9291,78,79,34,78,1189,501.0,405,463,60,130.0,333,1,415,497,166,0,0,512,3580,-3414,501,414.87,,,,,,,,,,,,
20884,1564322956541,3,2.38,1.43,0.77,2.27,1.98,0.47,-0.77,1.09,17,-1,21,0.91,9493,74,79,34,76,1171,504.0,455,464,60,130.0,333,1,415,456,166,0,0,517,505,-8187,504,-5.59,,,,,,,,,,,,
20904,1564322956561,1,2.38,1.42,0.77,2.27,1.98,0.46,-0.78,1.07,17,0,21,0.9,9699,71,79,34,74,1166,508.0,413,460,60,129.0,333,1,408,452,166,0,0,514,-1818,1248,508,-5.59,,,,,,,,,,,,
20924,1564322956581,-1,2.39,1.42,0.77,2.27,1.98,0.41,-0.83,1.02,16,1,21,0.92,9889,71,79,34,72,1174,512.0,408,462,60,130.0,326,1,400,452,167,0,0,520,771,-14,512,414.87,,,,,,,,,,,,
20944,1564322956601,3,2.39,1.43,0.78,2.26,1.99,0.33,-0.71,0.95,16,0,21,0.78,9984,71,79,34,71,1183,517.0,486,453,60,130.0,326,1,396,454,167,0,0,534,-22519,10408,517,414.87,44.681522,10.017365,49.09,178.3,0,0.0,-1,0.0,0.0,0,0.2,0.3491
20964,1564322956621,0,2.38,1.43,0.77,2.27,1.98,0.42,-0.68,1.01,16,3,21,0.8,10129,71,79,34,70,1192,520.0,493,465,60,130.0,326,1,407,452,167,0,0,531,-32248,14504,520,-5.59,,,,,,,,,,,,
20984,1564322956641,1,2.39,1.43,0.77,2.27,1.99,0.4,-0.75,1.06,15,3,19,0.85,10113,71,79,34,70,1197,525.0,563,468,60,129.0,326,1,402,451,167,0,0,534,-21872,2104,525,-5.59,,,,,,,,,,,,
21004,1564322956661,3,2.39,1.42,0.77,2.27,2.0,0.33,-0.76,1.0,15,3,20,0.83,10016,71,79,34,70,1198,529.0,616,458,60,130.0,326,1,396,449,167,0,0,534,17136,-2336,529,-5.59,,,,,,,,,,,,
21024,1564322956681,2,2.38,1.43,0.77,2.28,1.98,0.45,-0.74,1.05,15,4,19,0.86,10010,71,79,34,69,1189,534.0,630,461,60,130.0,314,1,395,442,167,0,0,537,16383,-3082,535,-5.59,,,,,,,,,,,,
21044,1564322956701,1,2.39,1.43,0.77,2.28,1.98,0.43,-0.77,1.04,15,4,19,0.88,9984,71,79,34,69,1168,538.0,646,462,60,129.0,314,1,397,440,167,0,0,543,2524,-2336,540,-5.59,44.681526,10.017348,50.48,178.3,0,0.0,-1,0.0,0.0,0,0.2,0.3507
21064,1564322956721,3,2.37,1.43,0.77,2.28,1.99,0.42,-0.7,0.98,14,3,18,0.82,9978,71,79,34,69,1148,538.0,642,457,60,130.0,314,1,396,439,167,0,0,542,-32248,-22519,540,-5.59,,,,,,,,,,,,
21084,1564322956741,1,2.37,1.43,0.77,2.27,1.99,0.53,-0.69,0.95,13,3,18,0.87,10135,71,79,34,69,1126,541.0,648,465,60,130.0,314,1,407,445,167,0,0,540,-32248,-32248,541,-5.59,,,,,,,,,,,,
21104,1564322956761,2,2.35,1.43,0.77,2.28,1.99,0.64,-0.69,1.04,12,3,18,0.94,10262,71,79,34,69,1110,540.0,650,461,60,130.0,314,1,420,449,167,0,0,550,-22519,-32504,540,-5.59,,,,,,,,,,,,
21124,1564322956781,1,2.33,1.43,0.77,2.27,1.99,0.76,-0.76,1.11,11,1,16,1.07,10469,71,79,34,69,1099,545.0,657,462,60,129.0,327,1,439,453,178,0,0,562,-32248,-32504,545,-5.59,,,,,,,,,,,,
21144,1564322956799,2,2.31,1.43,0.77,2.27,1.98,0.71,-0.8,1.2,10,2,16,1.07,10563,71,79,34,69,1093,550.0,653,465,60,130.0,327,1,442,456,178,0,0,568,-2934,-32248,549,-5.59,44.68153,10.01733,52.7,178.3,0,0.0,-1,0.0,0.0,0,0.2,0.3524
21164,1564322956819,2,2.28,1.43,0.77,2.27,1.99,0.8,-0.74,1.15,8,3,16,1.09,10708,71,79,34,69,1103,553.0,658,457,60,130.0,327,1,444,456,178,0,0,571,-3082,1780,553,-5.59,,,,,,,,,,,,
21184,1564322956839,4,2.23,1.42,0.76,2.26,1.99,0.82,-0.53,1.12,6,2,14,0.98,10708,71,79,34,70,1112,552.0,662,458,60,129.0,327,1,443,461,178,0,0,569,-32248,-2934,552,-5.59,,,,,,,,,,,,
21204,1564322956859,0,2.2,1.41,0.75,2.24,1.96,0.7,-0.32,1.08,5,1,14,0.77,10757,70,79,34,70,1115,556.0,667,461,60,129.0,327,1,444,461,178,0,0,569,-32504,-8186,554,-5.59,,,,,,,,,,,,
21224,1564322956879,2,2.14,1.4,0.75,2.23,1.95,0.59,-0.24,1.04,3,2,13,0.64,10708,59,79,34,68,1115,562.0,666,460,60,130.0,336,1,445,451,186,0,0,573,-23623,-12040,554,-5.59,,,,,,,,,,,,
21244,1564322956904,1,2.09,1.38,0.73,2.19,1.93,0.61,-0.18,1.0,0,2,12,0.63,10720,37,79,34,62,1108,568.0,664,462,60,130.0,336,1,450,398,186,0,0,581,-8186,243,557,-5.59,44.681534,10.017312,53.84,178.3,0,0.0,-1,0.0,0.0,0,0.2,0.3541
21264,1564322956924,-1,2.04,1.37,0.72,2.18,1.91,0.54,-0.16,0.93,-1,1,11,0.56,10605,22,79,34,53,1095,570.0,661,465,60,129.0,336,1,397,316,186,0,0,582,774,1,557,-5.59,,,,,,,,,,,,
21284,1564322956944,1,1.98,1.36,0.7,2.16,1.9,0.43,-0.07,0.84,-3,0,8,0.43,10347,21,79,34,46,1065,574.0,665,468,60,130.0,336,1,372,248,186,0,0,581,774,774,556,-5.59,,,,,,,,,,,,
21304,1564322956964,2,1.94,1.35,0.69,2.16,1.9,0.41,0.02,0.75,-5,-1,5,0.41,10162,21,79,33,43,1035,570.0,659,464,60,130.0,336,1,350,233,186,0,0,572,1267,1780,553,-5.59,,,,,,,,,,,,
21324,1564322956984,2,1.89,1.35,0.68,2.16,1.89,0.56,-0.03,0.7,-7,-2,4,0.56,10010,21,79,33,41,1013,571.0,656,460,60,129.0,158,1,335,225,87,0,0,575,1267,2524,551,414.87,,,,,,,,,,,,
21344,1564322956995,2,1.86,1.35,0.69,2.16,1.88,0.51,0.13,0.59,-8,-3,1,0.53,9730,21,79,33,40,988,569.0,658,465,60,130.0,158,1,327,219,87,0,0,574,-29984,-28648,549,-5.59,44.681538,10.017293,55.54,178.4,0,0.0,-1,0.0,0.0,0,0.2,0.3557
21364,1564322957015,-1,1.83,1.36,0.7,2.16,1.89,0.5,0.27,0.62,-9,-4,-1,0.57,9512,21,79,33,39,948,562.0,655,465,60,130.0,158,1,320,216,87,0,0,573,-30159,2104,544,-5.59,,,,,,,,,,,,
21384,1564322957035,2,1.83,1.36,0.7,2.17,1.9,0.59,0.2,0.65,-11,-5,-5,0.62,9323,21,79,33,38,907,566.0,657,466,60,129.0,158,1,317,211,87,0,0,578,-2934,-32248,540,-5.59,,,,,,,,,,,,
21404,1564322957055,2,1.82,1.36,0.71,2.19,1.9,0.73,0.21,0.44,-14,-6,-8,0.76,9259,21,79,33,37,889,566.0,651,463,60,130.0,158,1,314,207,87,0,0,557,-30159,16383,537,414.87,,,,,,,,,,,,
21424,1564322957075,3,1.84,1.37,0.71,2.19,1.91,0.74,0.39,0.27,-15,-8,-10,0.83,9272,21,79,33,37,871,562.0,648,466,60,130.0,134,1,314,207,72,0,0,558,-23623,12552,531,414.87,,,,,,,,,,,,
21444,1564322957102,3,1.86,1.38,0.72,2.19,1.91,0.7,0.56,0.26,-16,-9,-13,0.89,9286,21,79,33,36,862,566.0,648,462,60,129.0,134,1,311,205,72,0,0,550,-2934,-21792,528,-5.59,44.681541,10.017274,55.88,178.4,0,0.0,-1,0.0,0.0,0,0.2,0.3574
21464,1564322957122,4,1.86,1.37,0.71,2.19,1.92,0.53,0.68,0.35,-18,-7,-17,0.86,9186,21,79,33,36,853,564.0,647,467,60,129.0,134,1,311,204,72,0,0,556,-23623,6384,528,-5.59,,,,,,,,,,,,
21484,1564322957142,3,1.87,1.38,0.72,2.2,1.91,0.46,0.81,0.32,-19,-4,-19,0.93,9023,21,79,33,35,861,564.0,651,465,60,130.0,134,1,308,198,72,0,0,569,2211,-6475,526,-5.59,,,,,,,,,,,,
21504,1564322957162,1,1.88,1.38,0.73,2.19,1.93,0.34,0.93,0.27,-21,-3,-22,0.99,8823,20,79,33,35,870,571.0,643,461,60,130.0,134,1,308,198,72,0,0,566,1267,-6656,522,-5.59,,,,,,,,,,,,
21524,1564322957182,1,1.88,1.38,0.73,2.2,1.92,0.47,1.04,0.29,-22,-3,-25,1.14,8652,20,79,33,34,896,570.0,643,460,60,130.0,125,1,305,195,65,0,0,568,-30159,1,519,414.87,,,,,,,,,,,,
21544,1564322957204,-1,1.87,1.38,0.73,2.21,1.92,0.54,0.98,0.29,-24,-2,-27,1.13,8514,20,79,33,35,923,562.0,641,463,60,130.0,125,1,308,198,65,0,0,565,-23623,2060,517,-5.59,44.681541,10.017255,54.31,178.4,0,0.0,-1,0.0,0.0,0,0.21,0.3591
21564,1564322957224,3,1.88,1.38,0.73,2.21,1.92,0.47,1.09,0.27,-23,1,-31,1.18,8351,20,79,33,36,943,559.0,636,461,60,130.0,125,1,308,199,65,0,0,559,6273,13,513,-5.59,,,,,,,,,,,,
21584,1564322957244,1,1.9,1.38,0.73,2.21,1.92,0.62,1.02,0.27,-24,-0,-34,1.19,8184,20,79,33,37,961,557.0,635,462,60,130.0,125,1,307,196,65,0,0,557,6274,-25856,511,-5.59,,,,,,,,,,,,
21604,1564322957264,1,1.91,1.39,0.74,2.21,1.93,0.63,1.09,0.27,-25,-1,-33,1.26,8102,20,79,33,37,977,550.0,631,462,60,129.0,125,1,306,199,65,0,0,549,-32248,6668,508,-5.59,,,,,,,,,,,,
21624,1564322957284,1,1.97,1.39,0.73,2.21,1.93,0.7,1.09,0.3,-26,-3,-37,1.3,8009,20,79,33,37,992,549.0,632,460,60,131.0,119,1,304,198,60,0,0,522,2104,2278,503,414.87,,,,,,,,,,,,
21644,1564322957304,-1,2.02,1.38,0.73,2.21,1.93,0.83,0.99,0.3,-28,-5,-38,1.3,8026,20,79,33,37,995,543.0,632,464,60,129.0,119,1,304,198,60,0,0,504,1779,257,497,648.46,44.681541,10.017236,52.56,178.4,0,0.0,-1,0.0,0.0,0,0.21,0.3607
21664,1564322957324,1,2.09,1.39,0.73,2.21,1.92,0.72,1.02,0.23,-29,-4,-38,1.25,8116,20,79,33,38,993,542.0,631,462,60,130.0,119,1,309,204,60,0,0,507,-3082,-1246,493,-5.59,,,,,,,,,,,,
21684,1564322957344,4,2.14,1.39,0.73,2.2,1.91,0.83,0.95,0.3,-31,-4,-41,1.26,8078,21,79,33,38,988,546.0,632,463,60,129.0,119,1,309,198,60,0,0,516,14504,155,493,414.87,,,,,,,,,,,,
21704,1564322957364,-1,2.2,1.39,0.72,2.19,1.92,0.91,0.99,0.34,-33,-6,-44,1.35,8002,21,79,33,38,983,548.0,634,464,60,130.0,119,1,307,204,60,0,0,534,14504,-32256,491,-5.59,,,,,,,,,,,,
21724,1564322957384,0,2.23,1.39,0.72,2.19,1.9,0.78,1.09,0.27,-33,-2,-43,1.33,7904,21,79,33,37,980,550.0,632,462,60,131.0,124,1,304,197,61,0,0,534,-32248,25600,490,181.28,,,,,,,,,,,,
21744,1564322957402,1,2.24,1.39,0.71,2.19,1.9,0.7,1.13,0.26,-33,-1,-46,1.33,7757,21,79,33,38,977,549.0,628,460,60,131.0,124,1,307,197,61,0,0,539,2104,24320,489,181.28,44.681541,10.017218,51.49,178.4,0,0.0,-1,0.0,0.0,0,0.21,0.3624
21764,1564322957422,-0,2.23,1.39,0.72,2.18,1.9,0.75,1.12,0.31,-34,-0,-46,1.35,7700,24,79,33,38,972,547.0,628,464,60,130.0,124,1,307,203,61,0,0,532,-22519,80,488,414.87,,,,,,,,,,,,
21784,1564322957442,2,2.21,1.39,0.72,2.18,1.9,0.88,1.13,0.37,-35,2,-45,1.43,7712,32,79,33,40,967,544.0,626,463,60,129.0,124,1,317,210,61,0,0,527,-8186,-6528,485,181.28,,,,,,,,,,,,
21804,1564322957462,-1,2.19,1.39,0.71,2.18,1.89,0.94,1.22,0.46,-37,1,-46,1.54,7901,43,79,33,44,964,536.0,628,462,60,130.0,124,1,347,217,61,0,0,501,2104,1,481,-5.59,,,,,,,,,,,,
21824,1564322957482,4,2.17,1.39,0.71,2.17,1.88,0.87,1.22,0.38,-37,-0,-45,1.5,8241,58,79,33,51,962,531.0,635,460,60,131.0,139,1,381,251,67,0,0,502,-22519,-30454,480,-5.59,,,,,,,,,,,,
21844,1564322957500,3,2.17,1.38,0.71,2.16,1.87,0.79,1.3,0.37,-36,-2,-44,1.52,8577,68,79,33,59,954,527.0,637,461,60,130.0,139,1,425,321,67,0,0,516,6274,-31222,477,-5.59,44.681541,10.0172,50.03,178.4,0,0.0,-1,0.0,0.0,0,0.21,0.3641
21864,1564322957520,2,2.19,1.38,0.7,2.16,1.88,0.86,1.31,0.38,-36,-2,-46,1.57,8765,71,79,33,66,940,524.0,641,463,60,129.0,139,1,421,363,67,0,0,520,10408,3346,475,-5.59,,,,,,,,,,,,
21884,1564322957540,3,2.22,1.38,0.7,2.14,1.88,0.93,1.2,0.32,-36,-2,-49,1.52,8882,71,79,33,69,927,524.0,642,461,60,130.0,139,1,416,379,67,0,0,516,10408,-31206,471,-5.59,,,,,,,,,,,,
21904,1564322957560,1,2.27,1.38,0.7,2.14,1.88,0.98,1.07,0.36,-37,-1,-51,1.45,9053,72,79,33,70,916,522.0,645,458,60,130.0,139,1,413,398,67,0,0,517,2524,-30438,469,-5.59,,,,,,,,,,,,
21924,1564322957580,3,2.29,1.38,0.69,2.14,1.87,1.0,1.11,0.32,-37,-0,-52,1.49,9110,72,79,33,71,915,521.0,647,465,60,130.0,293,1,414,407,137,0,0,521,-9212,-18948,466,-5.59,,,,,,,,,,,,
21944,1564322957598,3,2.31,1.39,0.69,2.14,1.86,0.96,1.2,0.39,-37,-1,-51,1.54,9195,72,79,33,72,925,522.0,647,460,60,130.0,293,1,414,417,137,0,0,523,2524,-899,468,-5.59,44.681538,10.017183,49.11,178.4,0,0.0,-1,0.0,0.0,0,0.21,0.3657
21964,1564322957618,1,2.3,1.38,0.68,2.14,1.86,0.77,1.28,0.34,-36,2,-47,1.5,9384,72,79,33,72,938,516.0,647,458,60,129.0,293,1,415,417,137,0,0,511,16383,26178,467,414.87,,,,,,,,,,,,
21984,1564322957638,2,2.31,1.38,0.68,2.14,1.85,0.81,1.19,0.39,-35,-0,-46,1.44,9610,72,79,33,72,960,510.0,656,468,60,130.0,293,1,412,427,137,0,0,511,-4054,11560,468,414.87,,,,,,,,,,,,
22004,1564322957658,-1,2.29,1.38,0.68,2.14,1.85,0.69,1.27,0.26,-33,-1,-44,1.45,9770,73,79,33,71,1006,508.0,655,469,60,130.0,293,1,405,433,137,0,0,507,-3414,2524,467,-5.59,,,,,,,,,,,,
22024,1564322957678,2,2.25,1.38,0.68,2.14,1.85,0.74,1.21,0.28,-31,-2,-43,1.42,9889,73,79,33,70,1101,506.0,659,460,60,130.0,356,1,400,437,167,0,0,515,6274,2104,469,414.87,,,,,,,,,,,,
22044,1564322957700,2,2.23,1.38,0.67,2.14,1.85,0.84,1.2,0.4,-30,-3,-42,1.47,10059,73,79,33,70,1190,504.0,662,459,60,130.0,356,1,400,449,167,0,0,521,-21872,-506,470,181.28,44.681534,10.017166,48.26,178.4,0,0.0,-1,0.0,0.0,0,0.21,0.3674
22064,1564322957720,1,2.22,1.38,0.67,2.14,1.86,0.74,1.28,0.35,-29,-2,-41,1.48,10201,73,79,33,70,1263,508.0,665,462,60,129.0,356,1,413,453,167,0,0,526,-3414,-9072,472,-5.59,,,,,,,,,,,,
22084,1564322957740,2,2.2,1.38,0.67,2.14,1.86,0.59,1.34,0.31,-28,-2,-40,1.46,10279,73,79,33,70,1330,509.0,667,470,60,130.0,356,1,425,455,167,0,0,536,-3414,-9072,472,181.28,,,,,,,,,,,,
22104,1564322957760,1,2.19,1.38,0.67,2.14,1.85,0.4,1.31,0.24,-27,1,-39,1.37,10463,73,79,33,70,1379,507.0,670,457,60,130.0,356,1,437,459,167,0,0,547,-21872,-22359,471,-5.59,,,,,,,,,,,,
22124,1564322957780,0,2.19,1.38,0.68,2.14,1.86,0.36,1.2,0.27,-27,1,-39,1.26,10533,73,79,33,70,1421,510.0,670,459,60,130.0,390,1,440,460,184,0,0,551,-4054,-32504,472,-5.59,,,,,,,,,,,,
22144,1564322957800,2,2.19,1.39,0.67,2.15,1.86,0.27,1.25,0.25,-26,2,-38,1.28,10469,73,79,33,70,1397,512.0,665,465,60,130.0,390,1,437,460,184,0,0,558,17136,-23623,474,-5.59,44.68153,10.017151,48.3,178.5,0,0.0,-1,0.0,0.0,0,0.21,0.3691
22164,1564322957820,-0,2.2,1.38,0.68,2.14,1.86,0.17,1.28,0.2,-26,3,-37,1.29,10480,73,79,33,70,1368,516.0,664,462,60,130.0,390,1,440,460,184,0,0,561,16383,1780,473,-5.59,,,,,,,,,,,,
22184,1564322957840,0,2.19,1.38,0.67,2.15,1.86,0.1,1.21,0.14,-26,3,-36,1.21,10557,73,79,33,70,1321,518.0,666,462,60,130.0,390,1,440,461,184,0,0,563,1341,-18032,475,-5.59,,,,,,,,,,,,
22204,1564322957860,3,2.2,1.38,0.68,2.15,1.86,0.02,1.07,0.23,-26,3,-37,1.07,10521,73,79,33,70,1275,521.0,667,461,60,130.0,390,1,441,461,184,0,0,562,-9212,6273,483,-5.59,,,,,,,,,,,,
22224,1564322957880,2,2.2,1.38,0.68,2.15,1.86,0.04,1.05,0.19,-25,4,-36,1.05,10486,73,79,33,70,1252,525.0,669,463,60,130.0,385,1,439,461,185,0,0,561,2524,259,481,-5.59,,,,,,,,,,,,
22244,1564322957904,0,2.2,1.38,0.68,2.15,1.86,0.01,1.06,0.23,-24,3,-36,1.06,10587,73,79,33,70,1229,527.0,666,466,60,130.0,385,1,442,461,185,0,0,573,-28648,6273,483,-5.59,44.681522,10.017136,48.86,178.5,0,0.0,-1,0.0,0.0,0,0.22,0.3707
22264,1564322957924,2,2.21,1.39,0.67,2.16,1.86,-0.02,0.96,0.36,-24,4,-36,0.96,10593,73,79,33,70,1202,531.0,668,462,60,130.0,385,1,442,461,185,0,0,571,14504,-2934,487,-5.59,,,,,,,,,,,,
22284,1564322957944,3,2.2,1.38,0.68,2.15,1.86,0.1,0.93,0.52,-25,5,-36,0.94,10708,73,79,33,70,1175,535.0,668,462,60,130.0,385,1,443,461,185,0,0,568,6274,1760,495,-5.59,,,,,,,,,,,,
22304,1564322957964,3,2.19,1.38,0.67,2.16,1.86,0.2,0.93,0.63,-25,5,-34,0.95,10708,73,79,33,70,1169,535.0,664,459,60,130.0,385,1,443,466,185,0,0,570,-2934,-22359,498,-5.59,,,,,,,,,,,,
22324,1564322957984,3,2.21,1.38,0.68,2.15,1.87,0.31,0.98,0.68,-25,3,-33,1.03,10738,73,79,33,70,1165,538.0,665,462,60,129.0,378,1,444,466,190,0,0,570,-2934,23619,504,-5.59,,,,,,,,,,,,
22344,1564322957995,2,2.21,1.38,0.68,2.16,1.87,0.3,1.09,0.66,-24,2,-32,1.13,10744,73,79,33,71,1153,542.0,666,462,60,130.0,378,1,443,466,190,0,0,577,-3082,-28648,508,-5.59,44.681519,10.017121,50.06,178.5,0,0.0,-1,0.0,0.0,0,0.22,0.3724
22364,1564322958015,2,2.21,1.38,0.68,2.17,1.86,0.19,1.04,0.57,-23,3,-32,1.06,10882,73,79,33,70,1141,542.0,666,457,60,130.0,378,1,446,461,190,0,0,580,-3082,1780,511,-5.59,,,,,,,,,,,,
22384,1564322958035,2,2.21,1.39,0.68,2.17,1.87,0.32,0.93,0.71,-23,3,-31,0.99,10952,73,79,33,71,1132,545.0,666,462,60,129.0,378,1,447,466,190,0,0,592,2104,1760,515,-5.59,,,,,,,,,,,,
22404,1564322958055,1,2.21,1.38,0.69,2.16,1.87,0.28,1.04,0.74,-23,4,-30,1.08,10932,73,79,33,71,1125,552.0,668,461,60,130.0,378,1,447,466,190,0,0,583,-28648,243,518,-5.59,,,,,,,,,,,,
22424,1564322958075,0,2.22,1.38,0.69,2.17,1.87,0.27,1.09,0.74,-22,3,-28,1.12,11048,74,79,33,71,1110,552.0,666,462,60,130.0,373,1,448,466,194,0,0,591,-28648,15649,520,-5.59,,,,,,,,,,,,
22444,1564322958103,1,2.22,1.38,0.69,2.17,1.87,0.37,0.96,0.83,-22,2,-27,1.03,11081,73,79,33,71,1095,555.0,666,461,60,129.0,373,1,448,461,194,0,0,591,-22263,1,527,-5.59,44.681511,10.017106,51.41,178.4,0,0.0,-1,0.0,0.0,0,0.22,0.3741
22464,1564322958123,-0,2.21,1.38,0.69,2.18,1.86,0.34,1.06,0.84,-22,0,-26,1.12,11003,74,79,33,71,1086,558.0,671,461,60,130.0,373,1,448,466,194,0,0,590,-28648,-32504,528,-5.59,,,,,,,,,,,,
22484,1564322958143,2,2.21,1.38,0.69,2.17,1.87,0.23,0.99,0.75,-21,1,-26,1.01,11029,74,79,33,70,1079,563.0,666,465,60,130.0,373,1,449,466,194,0,0,594,2211,5344,534,-5.59,,,,,,,,,,,,
22504,1564322958163,3,2.21,1.39,0.68,2.18,1.87,0.38,0.85,0.86,-20,1,-26,0.93,11075,74,79,33,71,1063,566.0,667,461,60,129.0,373,1,448,466,194,0,0,594,-2934,-1894,536,-5.59,,,,,,,,,,,,
22524,1564322958183,-0,2.22,1.38,0.69,2.19,1.87,0.33,0.96,0.73,-19,1,-24,1.02,11055,74,79,33,71,1045,567.0,663,464,60,130.0,363,1,448,466,195,0,0,597,-8186,3472,543,-5.59,,,,,,,,,,,,
22544,1564322958203,3,2.21,1.39,0.69,2.18,1.88,0.33,0.86,0.79,-19,-2,-24,0.92,11120,87,79,33,74,1032,572.0,663,464,60,129.0,363,1,445,480,195,0,0,602,-8188,3472,549,-5.59,44.6815,10.017092,53.12,178.4,0,0.0,-1,0.0,0.0,0,0.22,0.3757
22564,1564322958223,2,2.2,1.38,0.69,2.19,1.87,0.35,0.98,0.78,-18,-2,-23,1.04,11261,100,79,33,80,1021,576.0,667,465,60,129.0,363,1,442,513,195,0,0,599,1,-3820,553,-5.59,,,,,,,,,,,,
22584,1564322958243,1,2.21,1.39,0.69,2.18,1.88,0.44,0.8,0.83,-18,-2,-23,0.92,11391,100,79,33,82,1006,579.0,656,463,60,129.0,363,1,441,537,195,0,0,601,243,243,554,-5.59,,,,,,,,,,,,
22604,1564322958263,1,2.19,1.38,0.7,2.19,1.87,0.37,0.92,0.66,-17,-1,-22,1.0,11474,100,79,33,82,989,584.0,663,462,60,130.0,363,1,441,537,195,0,0,610,-4035,30227,560,-5.59,,,,,,,,,,,,
22624,1564322958283,1,2.18,1.39,0.69,2.19,1.87,0.33,1.0,0.8,-16,1,-20,1.05,11581,100,79,33,82,977,588.0,660,462,60,129.0,418,1,440,538,235,0,0,616,208,3395,561,-5.59,,,,,,,,,,,,
22644,1564322958303,1,2.18,1.39,0.7,2.19,1.88,0.37,0.74,0.91,-16,1,-22,0.83,11602,100,79,33,82,971,592.0,662,458,60,129.0,418,1,440,539,235,0,0,616,-13043,-18357,567,-5.59,44.681492,10.017078,55.67,178.5,0,0.0,-1,0.0,0.0,0,0.22,0.3774
22664,1564322958323,2,2.19,1.38,0.7,2.19,1.88,0.37,0.59,0.8,-16,1,-22,0.7,11674,100,79,33,83,968,599.0,663,464,60,129.0,418,1,440,541,235,0,0,628,30227,-30207,571,-5.59,,,,,,,,,,,,
22684,1564322958343,2,2.19,1.38,0.7,2.19,1.89,0.35,0.59,0.62,-16,1,-23,0.69,11777,100,79,33,82,967,605.0,658,458,60,129.0,418,1,440,544,235,0,0,629,-3820,-16046,576,414.87,,,,,,,,,,,,
22704,1564322958363,1,2.19,1.39,0.7,2.18,1.89,0.34,0.63,0.43,-15,1,-21,0.72,11889,100,79,33,82,969,609.0,657,462,60,130.0,418,1,440,546,235,0,0,639,-30139,-7939,578,-5.59,,,,,,,,,,,,
22724,1564322958383,2,2.18,1.39,0.7,2.18,1.89,0.32,0.77,0.4,-15,1,-20,0.83,11904,100,79,33,82,974,607.0,661,459,60,129.0,423,1,440,547,246,0,0,636,19621,11566,582,181.28,,,,,,,,,,,,
22744,1564322958403,3,2.18,1.39,0.7,2.19,1.88,0.25,0.89,0.37,-15,1,-20,0.93,11988,100,79,33,82,975,617.0,660,460,60,128.0,423,1,440,549,246,0,0,646,3403,31988,588,882.05,44.68148,10.017065,57.48,178.5,0,0.0,-1,0.0,0.0,0,0.22,0.3791
22764,1564322958423,3,2.17,1.38,0.7,2.2,1.89,0.19,0.97,0.24,-14,2,-19,0.99,12104,100,79,33,82,973,620.0,667,461,60,128.0,423,1,440,550,246,0,0,652,30721,24,596,181.28,,,,,,,,,,,,
22784,1564322958443,2,2.18,1.39,0.7,2.18,1.89,0.22,0.89,0.09,-15,2,-19,0.92,12222,100,79,33,82,969,626.0,666,457,60,130.0,423,1,440,550,246,0,0,655,506,-30207,599,648.46,,,,,,,,,,,,
22804,1564322958463,1,2.19,1.38,0.7,2.19,1.89,0.31,0.69,0.04,-16,-1,-20,0.76,12270,100,79,33,82,961,629.0,665,460,60,129.0,423,1,440,550,246,0,0,667,-14655,-8429,602,648.46,,,,,,,,,,,,
22824,1564322958483,1,2.19,1.39,0.69,2.2,1.89,0.39,0.5,0.17,-16,-0,-21,0.64,12343,100,79,33,82,947,635.0,670,462,60,129.0,421,1,440,550,256,0,0,654,-4876,-10348,606,882.05,,,,,,,,,,,,
22844,1564322958501,2,2.19,1.39,0.7,2.19,1.9,0.34,0.61,0.35,-15,2,-20,0.7,12311,100,79,33,82,926,638.0,662,461,60,128.0,421,1,440,550,256,0,0,661,16599,-2345,609,648.46,44.681469,10.017052,59.71,178.4,0,0.0,-1,0.0,0.0,0,0.22,0.3807
22864,1564322958521,3,2.18,1.39,0.7,2.2,1.9,0.18,0.75,0.45,-14,1,-20,0.77,12392,100,79,33,82,907,641.0,670,461,60,129.0,421,1,440,550,256,0,0,665,-3584,-2345,613,648.46,,,,,,,,,,,,
22884,1564322958541,2,2.18,1.38,0.7,2.19,1.9,0.22,0.69,0.44,-14,-1,-22,0.72,12466,100,79,33,82,892,644.0,677,458,60,128.0,421,1,440,551,256,0,0,670,11776,3543,618,414.87,,,,,,,,,,,,
22904,1564322958561,2,2.19,1.39,0.7,2.2,1.9,0.32,0.68,0.57,-15,-0,-21,0.75,12516,100,79,33,82,876,646.0,667,461,60,130.0,421,1,440,551,256,0,0,677,4909,-3038,624,648.46,,,,,,,,,,,,
22924,1564322958581,-1,2.19,1.39,0.7,2.2,1.89,0.33,0.81,0.56,-15,-2,-19,0.88,12600,100,79,33,82,852,650.0,667,460,60,129.0,419,1,440,551,263,0,0,672,-6006,-3584,628,648.46,,,,,,,,,,,,
22944,1564322958599,-1,2.19,1.39,0.7,2.21,1.9,0.36,0.93,0.48,-15,-5,-19,1.0,12319,100,80,33,82,832,655.0,647,458,60,132.0,419,1,440,550,263,0,0,683,31988,11069,627,181.28,44.681461,10.017038,61.97,178.4,0,0.0,-1,0.0,0.0,0,0.23,0.3824
22964,1564322958619,-1,2.19,1.39,0.7,2.2,1.9,0.42,1.04,0.41,-16,-7,-18,1.12,11889,100,80,33,83,824,657.0,660,457,60,131.0,419,1,440,556,263,0,0,663,8958,244,635,181.28,,,,,,,,,,,,
22984,1564322958639,-0,2.18,1.39,0.7,2.2,1.9,0.48,1.07,0.41,-16,-6,-17,1.17,11581,100,80,33,84,816,659.0,658,461,60,130.0,419,1,440,565,263,0,0,655,-26380,20993,632,-5.59,,,,,,,,,,,,
23004,1564322958659,-0,2.19,1.38,0.71,2.2,1.91,0.52,0.95,0.45,-17,-5,-18,1.08,11349,100,80,33,85,808,657.0,657,460,60,131.0,419,1,441,582,263,0,0,651,8958,-1346,635,181.28,,,,,,,,,,,,
23024,1564322958679,-0,2.2,1.39,0.71,2.21,1.91,0.56,1.05,0.51,-16,-7,-17,1.19,11114,100,80,33,86,800,658.0,653,453,60,131.0,392,1,444,582,247,0,0,654,-3038,3,631,-5.59,,,,,,,,,,,,
23044,1564322958699,1,2.2,1.39,0.71,2.21,1.91,0.47,0.98,0.6,-15,-7,-21,1.09,10623,100,79,33,86,801,659.0,653,458,60,130.0,392,1,435,1033,247,0,0,1746,-26380,-2826,634,-5.59,44.681446,10.017026,63.71,178.4,0,0.0,-1,0.0,0.0,0,0.23,0.3841
23064,1564322958719,1,2.21,1.4,0.71,2.22,1.91,0.55,1.08,0.5,-15,-6,-18,1.22,9585,100,80,33,87,821,668.0,635,453,60,131.0,392,1,416,932,247,0,0,1746,31988,-1578,642,-5.59,,,,,,,,,,,,
23084,1564322958739,2,2.21,1.39,0.71,2.21,1.91,0.5,1.17,0.51,-17,-6,-19,1.27,9204,100,79,33,88,932,674.0,638,455,60,130.0,392,1,418,839,247,0,0,1746,-2345,-30694,642,-5.59,,,,,,,,,,,,
23104,1564322958759,3,2.21,1.4,0.71,2.21,1.91,0.55,1.04,0.52,-18,-3,-20,1.18,9365,100,79,33,87,1043,669.0,640,458,60,130.0,392,1,418,718,247,0,0,1746,31988,-3488,644,-5.59,,,,,,,,,,,,
23124,1564322958779,3,2.22,1.4,0.71,2.2,1.91,0.52,1.01,0.54,-17,-2,-19,1.13,9417,100,79,33,86,1155,668.0,634,465,60,130.0,370,1,418,619,237,0,0,1746,-2830,-10344,641,-5.59,,,,,,,,,,,,
23144,1564322958799,1,2.22,1.39,0.71,2.2,1.91,0.48,1.06,0.64,-15,-2,-20,1.17,9522,100,79,33,86,1266,669.0,647,459,60,130.0,370,1,418,577,237,0,0,674,31988,-13072,648,-5.59,44.681431,10.017014,63.58,178.3,0,0.0,-1,0.0,0.0,0,0.23,0.3857
23164,1564322958819,2,2.23,1.39,0.71,2.2,1.91,0.54,0.85,0.77,-15,-1,-21,1.01,9760,100,79,33,85,1364,671.0,645,463,60,130.0,370,1,407,579,237,0,0,693,8958,-10448,653,-5.59,,,,,,,,,,,,
23184,1564322958839,0,2.24,1.39,0.71,2.2,1.91,0.56,0.88,0.68,-14,-1,-21,1.04,9775,100,79,33,84,1462,675.0,648,455,60,128.0,370,1,406,565,237,0,0,705,16118,687,657,-5.59,,,,,,,,,,,,
23204,1564322958859,3,2.23,1.4,0.71,2.2,1.91,0.5,0.81,0.78,-14,-2,-21,0.96,9694,100,79,33,84,1456,681.0,649,465,60,129.0,370,1,408,566,237,0,0,722,-10344,-2918,662,414.87,,,,,,,,,,,,
23224,1564322958879,1,2.22,1.39,0.71,2.21,1.91,0.41,0.93,0.74,-13,-0,-19,1.02,9740,100,79,33,84,1443,686.0,648,457,60,130.0,314,1,407,565,208,0,0,719,16599,24,667,-5.59,,,,,,,,,,,,
23244,1564322958903,2,2.23,1.4,0.71,2.21,1.91,0.41,0.87,0.82,-13,1,-19,0.96,9674,100,79,33,84,1352,688.0,647,468,60,129.0,314,1,412,578,208,0,0,726,14342,-2830,674,648.46,44.681419,10.017002,64.61,178.3,0,0.0,-1,0.0,0.0,0,0.23,0.3874
23264,1564322958923,-1,2.23,1.39,0.71,2.21,1.9,0.47,0.95,0.77,-12,0,-17,1.05,9610,100,79,33,84,1259,693.0,643,467,60,129.0,314,1,413,566,208,0,0,717,11576,8010,679,-5.59,,,,,,,,,,,,
23284,1564322958943,1,2.23,1.39,0.71,2.21,1.91,0.45,0.91,0.79,-13,-2,-18,1.02,9620,100,79,33,84,1177,696.0,634,460,60,130.0,314,1,413,566,208,0,0,719,16599,-3580,682,-5.59,,,,,,,,,,,,
23304,1564322958963,1,2.23,1.39,0.71,2.21,1.91,0.43,0.85,0.75,-12,-1,-18,0.95,9755,100,79,33,84,1099,702.0,639,453,60,128.0,314,1,407,566,208,0,0,720,8010,-2560,681,-5.59,,,,,,,,,,,,
23324,1564322958983,3,2.22,1.4,0.71,2.21,1.91,0.49,0.79,0.81,-12,1,-17,0.93,9884,100,79,33,84,1031,703.0,638,463,60,130.0,307,1,401,565,210,0,0,716,15647,-12152,689,-5.59,,,,,,,,,,,,
23344,1564322958995,1,2.22,1.4,0.71,2.22,1.91,0.39,0.72,0.81,-12,2,-18,0.82,9842,100,79,33,84,967,708.0,641,462,60,129.0,307,1,403,565,210,0,0,730,-3888,-3450,694,-5.59,44.681404,10.016992,67.07,178.3,0,0.0,-1,0.0,0.0,0,0.23,0.3891
23364,1564322959015,3,2.22,1.4,0.71,2.21,1.91,0.4,0.66,0.85,-12,1,-17,0.78,9858,100,79,33,84,959,711.0,647,461,60,130.0,307,1,402,564,210,0,0,733,204,16118,697,-5.59,,,,,,,,,,,,
23384,1564322959035,3,2.22,1.4,0.71,2.22,1.91,0.32,0.77,0.8,-12,2,-15,0.83,9962,100,79,33,84,973,717.0,647,460,60,129.0,307,1,397,564,210,0,0,729,-3450,-22796,699,-5.59,,,,,,,,,,,,
23404,1564322959055,-1,2.23,1.4,0.72,2.21,1.91,0.25,0.67,0.81,-12,4,-16,0.72,9957,100,79,33,84,992,723.0,645,461,60,128.0,307,1,397,564,210,0,0,738,-25858,-25858,707,648.46,,,,,,,,,,,,
23424,1564322959075,2,2.23,1.4,0.71,2.22,1.91,0.28,0.68,0.87,-11,3,-16,0.74,9936,100,79,33,84,1012,726.0,650,458,60,130.0,300,1,398,564,213,0,0,733,-3344,6790,713,414.87,,,,,,,,,,,,
23444,1564322959102,2,2.23,1.39,0.72,2.22,1.91,0.28,0.74,0.82,-11,4,-14,0.79,10059,100,79,33,84,1025,727.0,647,457,60,130.0,300,1,399,564,213,0,0,743,-3344,1037,714,181.28,44.681389,10.016981,69.0,178.3,0,0.0,-1,0.0,0.0,0,0.23,0.3907
23464,1564322959122,1,2.23,1.4,0.72,2.21,1.91,0.14,0.66,0.75,-10,5,-15,0.68,10048,100,79,33,84,1032,732.0,646,457,60,129.0,300,1,398,564,213,0,0,741,-22796,-2574,716,414.87,,,,,,,,,,,,
23484,1564322959142,0,2.23,1.4,0.72,2.21,1.91,0.16,0.71,0.76,-10,5,-14,0.73,10146,100,79,33,84,1037,732.0,651,462,60,130.0,300,1,407,564,213,0,0,748,1037,-2314,721,-5.59,,,,,,,,,,,,
23504,1564322959162,3,2.23,1.4,0.72,2.22,1.91,0.31,0.67,0.78,-10,4,-14,0.74,10245,100,79,33,84,1042,738.0,652,468,60,130.0,300,1,411,564,213,0,0,751,-2830,-30694,721,-5.59,,,,,,,,,,,,
23524,1564322959182,3,2.23,1.4,0.71,2.22,1.91,0.38,0.62,0.9,-10,3,-14,0.73,10268,100,79,33,84,1044,739.0,649,457,60,130.0,302,1,413,564,219,0,0,760,-13068,-3038,728,-5.59,,,,,,,,,,,,
23544,1564322959202,2,2.24,1.4,0.72,2.23,1.91,0.47,0.53,0.99,-11,2,-13,0.71,10382,100,79,33,84,1041,743.0,656,455,60,130.0,302,1,421,564,219,0,0,760,6790,6900,728,-5.59,44.681374,10.016972,71.05,178.2,0,0.0,-1,0.0,0.0,0,0.24,0.3924
23564,1564322959222,3,2.23,1.4,0.73,2.23,1.92,0.43,0.51,1.01,-10,2,-13,0.66,10434,100,79,33,84,1039,747.0,653,462,60,129.0,302,1,425,564,219,0,0,766,136,5876,731,-5.59,,,,,,,,,,,,
23584,1564322959242,3,2.22,1.4,0.73,2.23,1.92,0.33,0.49,0.97,-10,2,-12,0.59,10492,100,79,33,84,1035,752.0,653,457,60,129.0,302,1,429,564,219,0,0,770,-23308,3544,740,-5.59,,,,,,,,,,,,
23604,1564322959262,2,2.23,1.4,0.73,2.23,1.92,0.34,0.34,1.03,-10,2,-14,0.48,10510,100,79,33,84,1033,753.0,654,457,60,129.0,302,1,430,564,219,0,0,781,-2574,-2344,742,-5.59,,,,,,,,,,,,
23624,1564322959282,3,2.22,1.41,0.73,2.23,1.92,0.45,0.23,1.1,-10,-0,-13,0.51,10617,100,79,33,84,1032,760.0,646,461,60,129.0,305,1,433,564,226,0,0,780,5876,-22795,741,-5.59,,,,,,,,,,,,
23644,1564322959304,3,2.21,1.4,0.73,2.23,1.92,0.4,0.21,1.15,-10,0,-12,0.45,10599,100,79,33,84,1029,764.0,658,462,60,130.0,305,1,432,564,226,0,0,784,6389,-23308,742,-5.59,44.681354,10.016962,72.5,178.3,0,0.0,-1,0.0,0.0,0,0.24,0.3941
23664,1564322959324,3,2.22,1.4,0.73,2.23,1.92,0.49,0.17,1.17,-10,-1,-11,0.52,10647,100,79,33,84,1022,766.0,656,461,60,130.0,305,1,433,564,226,0,0,789,-2826,-10218,753,-5.59,,,,,,,,,,,,
23684,1564322959344,1,2.21,1.4,0.73,2.23,1.92,0.58,0.3,1.2,-10,-2,-10,0.65,10665,100,79,33,84,1015,769.0,652,459,60,128.0,305,1,434,564,226,0,0,792,-2344,-2540,755,-5.59,,,,,,,,,,,,
23704,1564322959364,2,2.22,1.4,0.73,2.24,1.92,0.46,0.47,1.03,-10,-1,-10,0.66,10769,100,79,33,83,1010,775.0,659,461,60,129.0,305,1,435,545,226,0,0,787,-23308,-12152,758,-5.59,,,,,,,,,,,,
23724,1564322959384,3,2.21,1.4,0.73,2.23,1.92,0.48,0.39,0.94,-11,-0,-12,0.62,10850,100,79,33,83,1003,779.0,654,461,60,129.0,296,1,439,564,224,0,0,797,-22795,1524,761,181.28,,,,,,,,,,,,
23744,1564322959404,3,2.22,1.4,0.73,2.23,1.92,0.48,0.31,1.05,-11,-1,-12,0.57,10990,100,79,33,83,994,782.0,655,460,60,129.0,296,1,441,545,224,0,0,809,-2826,-8148,765,-5.59,44.681339,10.016953,74.65,178.2,0,0.0,-1,0.0,0.0,0,0.24,0.3957
23764,1564322959424,1,2.22,1.4,0.73,2.23,1.92,0.49,0.44,1.04,-11,-1,-11,0.66,11048,100,79,33,83,987,790.0,658,457,60,130.0,296,1,442,545,224,0,0,806,11277,-25858,770,-5.59,,,,,,,,,,,,
23784,1564322959444,3,2.23,1.4,0.73,2.23,1.93,0.42,0.53,0.99,-11,0,-12,0.68,11035,100,79,33,83,984,793.0,658,458,60,129.0,296,1,442,545,224,0,0,813,-2540,-3450,773,-5.59,,,,,,,,,,,,
23804,1564322959464,1,2.23,1.4,0.73,2.23,1.93,0.48,0.31,1.09,-12,2,-12,0.57,10971,100,79,33,83,980,797.0,657,457,60,129.0,296,1,441,545,224,0,0,818,-7436,-2830,775,-5.59,,,,,,,,,,,,
23824,1564322959484,2,2.22,1.4,0.74,2.23,1.93,0.5,0.48,0.97,-10,0,-12,0.7,10984,100,79,33,83,974,798.0,662,460,60,130.0,291,1,441,545,227,0,0,809,-30694,-3344,780,-5.59,,,,,,,,,,,,
23844,1564322959500,3,2.24,1.39,0.74,2.23,1.93,0.47,0.43,0.89,-11,-1,-13,0.64,11003,100,79,33,83,968,801.0,661,461,60,130.0,291,1,442,545,227,0,0,814,-13312,-25858,785,-5.59,44.68132,10.016943,75.86,178.2,0,0.0,-1,0.0,0.0,0,0.24,0.3974
23864,1564322959520,2,2.23,1.4,0.74,2.22,1.92,0.51,0.27,0.99,-10,0,-12,0.58,11081,100,79,33,83,965,805.0,660,457,60,129.0,291,1,442,545,227,0,0,817,-2560,-2826,789,-5.59,,,,,,,,,,,,
23884,1564322959540,1,2.22,1.4,0.74,2.23,1.94,0.55,0.45,0.88,-9,-1,-12,0.71,11180,100,79,33,83,960,809.0,660,462,60,129.0,291,1,442,545,227,0,0,820,-3450,-2356,793,-5.59,,,,,,,,,,,,
23904,1564322959560,1,2.23,1.41,0.74,2.24,1.93,0.61,0.24,0.95,-10,-2,-12,0.65,11254,100,79,33,83,953,810.0,663,470,60,129.0,291,1,441,545,227,0,0,829,-3450,-2826,797,-5.59,,,,,,,,,,,,
23924,1564322959580,1,2.24,1.41,0.74,2.23,1.93,0.48,0.42,0.86,-9,-1,-11,0.63,11295,100,79,33,83,945,813.0,669,461,60,129.0,290,1,441,545,232,0,0,825,-4091,-2356,803,-5.59,,,,,,,,,,,,
23944,1564322959600,1,2.23,1.41,0.74,2.23,1.93,0.47,0.21,0.97,-9,0,-13,0.51,11349,100,79,33,83,941,818.0,667,458,60,128.0,290,1,441,545,232,0,0,830,-2830,-30694,800,-5.59,44.681301,10.016934,77.97,178.2,0,0.0,-1,0.0,0.0,0,0.24,0.3991
23964,1564322959620,2,2.25,1.4,0.74,2.24,1.93,0.37,0.28,0.76,-9,1,-14,0.47,11363,100,79,33,83,937,822.0,667,463,60,129.0,290,1,441,545,232,0,0,841,-2826,-2826,808,-5.59,,,,,,,,,,,,
23984,1564322959640,2,2.23,1.41,0.74,2.24,1.93,0.48,0.43,0.83,-8,1,-12,0.65,11432,100,79,33,83,927,823.0,671,461,60,129.0,290,1,441,545,232,0,0,840,3462,8838,813,-5.59,,,,,,,,,,,,
24004,1564322959660,1,2.24,1.4,0.75,2.23,1.94,0.64,0.25,0.92,-8,0,-12,0.68,11474,100,79,33,82,916,829.0,665,467,60,130.0,290,1,441,537,232,0,0,843,-13068,-3344,813,-5.59,,,,,,,,,,,,
24024,1564322959680,2,2.23,1.41,0.75,2.24,1.92,0.74,0.1,1.02,-8,-2,-12,0.75,11460,100,79,33,82,910,832.0,662,459,60,129.0,286,1,441,537,233,0,0,844,-2356,-3450,816,-5.59,,,,,,,,,,,,
24044,1564322959698,2,2.24,1.41,0.74,2.24,1.93,0.65,0.2,0.84,-8,-1,-11,0.68,11474,100,79,33,82,903,835.0,663,462,60,129.0,286,1,441,537,233,0,0,846,-22796,-1582,825,-5.59,44.681282,10.016927,79.63,178.2,0,0.0,-1,0.0,0.0,0,0.25,0.4007
24064,1564322959718,0,2.24,1.4,0.75,2.23,1.94,0.53,0.27,0.95,-8,-1,-11,0.59,11545,100,79,33,82,888,837.0,666,462,60,129.0,286,1,440,538,233,0,0,853,-3344,-2570,825,-5.59,,,,,,,,,,,,
24084,1564322959738,3,2.24,1.4,0.75,2.24,1.94,0.55,0.09,1.05,-9,-4,-12,0.56,11609,100,79,33,82,873,840.0,670,470,60,129.0,286,1,440,540,233,0,0,854,-2830,-1578,826,-5.59,,,,,,,,,,,,
24104,1564322959758,3,2.24,1.41,0.76,2.24,1.94,0.6,0.08,0.95,-8,-5,-11,0.6,11704,100,79,33,82,863,845.0,663,462,60,130.0,286,1,440,542,233,0,0,855,-22795,-3335,830,181.28,,,,,,,,,,,,
24124,1564322959778,3,2.23,1.41,0.75,2.25,1.94,0.59,0.27,0.8,-8,-6,-9,0.65,11770,100,79,33,82,855,848.0,667,465,60,129.0,289,1,440,544,241,0,0,862,8838,-10508,835,414.87,,,,,,,,,,,,
24144,1564322959800,2,2.24,1.42,0.76,2.24,1.95,0.63,0.45,0.7,-8,-5,-8,0.77,11837,100,79,33,82,845,851.0,668,460,60,129.0,289,1,440,545,241,0,0,873,13049,-2426,837,414.87,44.681263,10.016918,82.03,178.2,0,0.0,-1,0.0,0.0,0,0.25,0.4024
24164,1564322959820,1,2.24,1.41,0.75,2.25,1.94,0.66,0.6,0.69,-8,-4,-8,0.89,11867,100,79,33,82,835,856.0,663,466,60,129.0,289,1,440,546,241,0,0,867,-2826,-2574,840,414.87,,,,,,,,,,,,
24184,1564322959840,1,2.24,1.41,0.75,2.24,1.95,0.65,0.65,0.82,-8,-4,-9,0.92,11882,100,79,33,82,832,859.0,668,463,60,128.0,289,1,440,546,241,0,0,869,-2826,-780,840,414.87,,,,,,,,,,,,
24204,1564322959860,-0,2.24,1.41,0.76,2.25,1.94,0.67,0.66,0.93,-9,-2,-10,0.94,11942,100,79,33,82,830,862.0,668,460,60,129.0,289,1,440,548,241,0,0,873,-1580,-2826,847,648.46,,,,,,,,,,,,
24224,1564322959880,-1,2.24,1.41,0.76,2.25,1.95,0.73,0.64,1.02,-9,-1,-11,0.97,11980,100,79,33,82,824,862.0,667,463,60,129.0,294,1,440,549,249,0,0,880,-1580,-2564,847,414.87,,,,,,,,,,,,
24244,1564322959904,-1,2.24,1.42,0.75,2.25,1.94,0.74,0.47,1.01,-9,1,-11,0.88,11503,100,80,33,82,817,869.0,658,461,60,132.0,294,1,441,537,249,0,0,882,-31068,-10508,848,-5.59,44.681244,10.016912,83.53,178.2,0,0.0,-1,0.0,0.0,0,0.25,0.4041
24264,1564322959924,0,2.24,1.41,0.75,2.25,1.94,0.79,0.45,0.99,-9,-1,-13,0.91,11016,100,80,33,85,812,867.0,652,452,60,131.0,294,1,444,508,249,0,0,865,-3450,-9995,856,-5.59,,,,,,,,,,,,
24284,1564322959944,-1,2.25,1.41,0.75,2.25,1.94,0.75,0.6,0.76,-8,-3,-11,0.96,10869,100,80,33,86,806,866.0,651,455,60,131.0,294,1,441,601,249,0,0,863,-31068,-10508,853,181.28,,,,,,,,,,,,
24304,1564322959964,-2,2.24,1.42,0.76,2.26,1.96,0.64,0.64,0.68,-8,-4,-10,0.91,10653,100,80,33,86,811,865.0,651,457,60,131.0,294,1,435,601,249,0,0,854,-1580,-3450,853,-5.59,,,,,,,,,,,,
24324,1564322959984,3,2.25,1.42,0.76,2.26,1.96,0.59,0.68,0.6,-8,-4,-10,0.9,10498,100,80,33,87,819,864.0,650,461,60,132.0,281,1,432,1116,240,0,0,866,-2830,8838,855,-5.59,,,,,,,,,,,,
24344,1564322959996,0,2.24,1.42,0.77,2.26,1.95,0.51,0.67,0.57,-8,-3,-10,0.84,10370,100,79,33,87,829,867.0,655,463,60,130.0,281,1,423,1046,240,0,0,856,-3450,-1576,856,414.87,44.681225,10.016905,84.75,178.2,0,0.0,-1,0.0,0.0,0,0.25,0.4057
24364,1564322960016,3,2.25,1.42,0.77,2.27,1.96,0.44,0.8,0.55,-8,-3,-10,0.91,10399,100,79,33,85,841,867.0,655,457,60,128.0,281,1,424,913,240,0,0,879,-10508,16,853,-5.59,,,,,,,,,,,,
24384,1564322960036,2,2.25,1.42,0.77,2.26,1.96,0.45,0.87,0.61,-8,-1,-8,0.98,10324,100,79,33,85,914,875.0,653,458,60,129.0,281,1,418,782,240,0,0,907,-2311,-1044,861,-5.59,,,,,,,,,,,,
24404,1564322960056,2,2.26,1.42,0.77,2.26,1.96,0.61,0.81,0.72,-8,-1,-8,1.01,10296,100,79,32,85,1026,881.0,650,463,60,128.0,281,1,416,682,240,0,0,888,-779,-4879,866,-5.59,,,,,,,,,,,,
24424,1564322960076,2,2.27,1.42,0.77,2.25,1.96,0.62,0.82,0.85,-7,1,-8,1.03,10129,100,79,32,84,1133,882.0,655,460,60,129.0,271,1,403,564,235,0,0,904,-2820,4231,869,-5.59,,,,,,,,,,,,
24444,1564322960104,1,2.26,1.42,0.77,2.26,1.95,0.58,0.73,0.79,-7,-1,-10,0.93,10026,100,79,32,84,1232,879.0,652,453,60,130.0,271,1,396,564,235,0,0,906,-1277,16,868,181.28,44.681202,10.016898,85.04,178.2,0,0.0,-1,0.0,0.0,0,0.26,0.4074
24464,1564322960124,2,2.27,1.42,0.77,2.25,1.96,0.64,0.61,0.82,-7,-0,-9,0.88,10042,100,79,33,84,1282,884.0,650,458,60,129.0,271,1,397,564,235,0,0,899,-780,-5114,880,648.46,,,,,,,,,,,,
24484,1564322960144,2,2.27,1.42,0.77,2.25,1.96,0.77,0.58,0.83,-7,-0,-9,0.96,10135,100,79,32,84,1280,886.0,652,460,60,129.0,271,1,404,564,235,0,0,896,-30469,3,876,-5.59,,,,,,,,,,,,
24504,1564322960164,1,2.25,1.42,0.77,2.26,1.95,0.77,0.43,0.91,-7,-1,-9,0.88,10245,100,79,32,84,1242,888.0,654,462,60,130.0,271,1,411,564,235,0,0,898,966,2028,877,-5.59,,,,,,,,,,,,
24524,1564322960184,-0,2.27,1.43,0.78,2.25,1.97,0.69,0.43,0.85,-6,-0,-9,0.81,10290,100,79,32,84,1139,890.0,651,463,60,129.0,249,1,414,564,219,0,0,910,3,-2836,884,-5.59,,,,,,,,,,,,
24544,1564322960203,1,2.26,1.43,0.77,2.27,1.96,0.55,0.48,0.86,-5,-1,-8,0.73,10330,100,79,32,84,1042,894.0,652,466,60,129.0,249,1,417,564,219,0,0,904,16,-4876,887,648.46,44.681183,10.016893,86.3,178.1,0,0.0,-1,0.0,0.0,0,0.26,0.4091
24564,1564322960223,1,2.26,1.43,0.77,2.27,1.96,0.4,0.47,0.79,-4,-0,-8,0.61,10387,100,79,32,84,954,898.0,654,463,60,129.0,249,1,422,564,219,0,0,913,-5120,-4874,886,414.87,,,,,,,,,,,,
24584,1564322960243,-1,2.27,1.43,0.77,2.26,1.97,0.36,0.51,0.77,-4,1,-7,0.62,10370,100,79,32,84,889,903.0,656,459,60,129.0,249,1,420,564,219,0,0,917,-5113,-4870,896,414.87,,,,,,,,,,,,
24604,1564322960263,4,2.25,1.43,0.78,2.27,1.97,0.47,0.56,0.76,-4,0,-6,0.73,10451,100,79,32,84,904,905.0,655,463,60,130.0,249,1,426,564,219,0,0,925,-4877,-4872,894,181.28,,,,,,,,,,,,
24624,1564322960283,3,2.26,1.42,0.77,2.26,1.97,0.52,0.61,0.77,-4,-1,-7,0.8,10416,100,79,32,84,918,907.0,655,461,60,130.0,248,1,424,564,223,0,0,922,-4876,-772,902,181.28,,,,,,,,,,,,
24644,1564322960303,3,2.26,1.43,0.78,2.27,1.96,0.58,0.73,0.72,-4,-3,-6,0.94,10445,100,79,32,84,935,910.0,657,461,60,130.0,248,1,426,564,223,0,0,928,-4874,-1300,897,414.87,44.68116,10.016888,88.11,178.1,0,0.0,-1,0.0,0.0,0,0.26,0.4107
24664,1564322960323,3,2.27,1.43,0.77,2.26,1.96,0.51,0.79,0.73,-3,-4,-6,0.93,10457,100,79,32,84,950,912.0,660,458,60,130.0,248,1,427,564,223,0,0,919,-4874,-1284,907,414.87,,,,,,,,,,,,
24684,1564322960343,2,2.27,1.43,0.78,2.27,1.96,0.6,0.83,0.71,-3,-2,-6,1.02,10575,100,79,32,84,953,915.0,654,458,60,129.0,248,1,431,564,223,0,0,928,-4872,-4870,907,414.87,,,,,,,,,,,,
24704,1564322960363,1,2.26,1.43,0.78,2.26,1.96,0.64,0.89,0.64,-4,-3,-6,1.1,10557,100,79,32,84,955,921.0,658,453,60,129.0,248,1,431,564,223,0,0,935,-1300,-1540,911,414.87,,,,,,,,,,,,
24724,1564322960383,1,2.26,1.43,0.79,2.27,1.96,0.55,0.96,0.55,-3,-4,-6,1.11,10611,100,79,32,84,957,924.0,660,463,60,130.0,249,1,432,564,226,0,0,940,-1300,-3076,914,414.87,,,,,,,,,,,,
24744,1564322960399,1,2.27,1.42,0.79,2.27,1.97,0.48,0.91,0.46,-2,-2,-5,1.03,10623,100,79,32,84,959,924.0,656,463,60,129.0,249,1,433,564,226,0,0,943,-788,-1284,914,-5.59,44.681137,10.016883,89.4,178.1,0,0.0,-1,0.0,0.0,0,0.26,0.4124
24764,1564322960419,2,2.27,1.43,0.79,2.27,1.97,0.49,0.88,0.48,-2,-4,-4,1.0,10695,100,79,32,84,958,927.0,655,461,60,129.0,249,1,435,564,226,0,0,945,9216,-2564,920,648.46,,,,,,,,,,,,
24784,1564322960439,2,2.27,1.43,0.79,2.27,1.97,0.41,0.74,0.49,-2,-4,-3,0.84,10695,100,79,32,83,957,930.0,662,457,60,130.0,249,1,434,545,226,0,0,952,-772,-3332,920,648.46,,,,,,,,,,,,
24804,1564322960459,3,2.28,1.43,0.79,2.27,1.97,0.46,0.53,0.64,-2,-4,-4,0.7,10738,100,79,32,83,956,932.0,658,457,60,128.0,249,1,435,545,226,0,0,956,-1028,-2564,924,414.87,,,,,,,,,,,,
24824,1564322960479,3,2.27,1.43,0.78,2.27,1.98,0.6,0.59,0.7,-2,-4,-5,0.84,10806,100,79,32,83,955,933.0,663,456,60,129.0,240,1,436,545,223,0,0,954,-774,-781,931,414.87,,,,,,,,,,,,
24844,1564322960499,0,2.28,1.43,0.77,2.27,1.97,0.51,0.68,0.57,-2,-3,-3,0.85,10775,100,79,32,84,956,938.0,664,459,60,130.0,240,1,437,545,223,0,0,963,-1796,-30469,930,414.87,44.681114,10.016878,91.18,178.1,0,0.0,-1,0.0,0.0,0,0.27,0.4141
24864,1564322960519,1,2.29,1.44,0.78,2.28,1.97,0.51,0.67,0.56,-1,-3,-2,0.85,10863,100,79,32,84,956,941.0,662,463,60,129.0,240,1,439,545,223,0,0,954,-777,-889,935,648.46,,,,,,,,,,,,
24884,1564322960539,0,2.29,1.43,0.78,2.28,1.97,0.5,0.53,0.65,-1,-1,-3,0.73,10863,100,79,32,83,955,944.0,657,467,60,129.0,240,1,438,545,223,0,0,962,-2564,-30724,939,414.87,,,,,,,,,,,,
24904,1564322960559,3,2.28,1.43,0.78,2.27,1.97,0.59,0.37,0.79,-2,-2,-4,0.69,10844,100,79,32,83,954,947.0,653,457,60,128.0,240,1,437,545,223,0,0,967,-3076,-1277,939,414.87,,,,,,,,,,,,
24924,1564322960579,1,2.28,1.43,0.78,2.28,1.97,0.58,0.54,0.65,-1,-3,-3,0.79,10939,100,79,32,83,953,949.0,661,458,60,129.0,238,1,440,545,225,0,0,962,-781,771,950,181.28,,,,,,,,,,,,
24944,1564322960599,2,2.28,1.43,0.78,2.28,1.97,0.54,0.39,0.64,-1,-2,-3,0.67,10945,100,79,32,83,951,950.0,658,462,60,129.0,238,1,440,545,225,0,0,963,-782,-13580,950,648.46,44.681091,10.016873,92.31,178.1,0,0.0,-1,0.0,0.0,0,0.27,0.4157
24964,1564322960619,3,2.29,1.43,0.78,2.27,1.97,0.61,0.25,0.77,-1,-2,-3,0.66,10964,100,79,32,83,947,950.0,663,458,60,129.0,238,1,441,545,225,0,0,976,-1018,-2830,946,414.87,,,,,,,,,,,,
24984,1564322960639,3,2.3,1.43,0.78,2.27,1.98,0.64,0.35,0.7,-1,-2,-2,0.73,11055,100,79,32,83,943,958.0,657,463,60,128.0,238,1,442,545,225,0,0,975,-30724,2056,957,414.87,,,,,,,,,,,,
25004,1564322960659,10,2.29,1.43,0.79,2.28,1.97,0.54,0.28,0.77,-1,-2,-3,0.61,11055,100,80,32,83,940,959.0,665,460,60,129.0,238,1,442,545,225,0,0,972,252,-2580,957,414.87,,,,,,,,,,,,
25024,1564322960679,22,2.29,1.44,0.79,2.29,1.98,0.57,0.19,0.89,-1,-1,-3,0.61,11055,100,79,32,83,937,957.0,659,458,60,129.0,237,1,442,545,228,0,0,983,-782,25,951,-5.59,,,,,,,,,,,,
25044,1564322960699,22,2.3,1.44,0.79,2.29,1.98,0.6,0.37,0.71,0,-4,-2,0.71,11068,100,79,32,83,931,943.0,666,460,60,129.0,237,1,442,545,228,0,0,972,-778,-2836,931,-5.59,44.681068,10.01687,93.63,178.1,0,0.0,-1,0.0,0.0,0,0.27,0.4174
25064,1564322960719,23,2.3,1.44,0.79,2.29,1.98,0.59,0.16,0.84,0,-5,-3,0.61,10990,77,79,32,81,924,950.0,660,465,60,129.0,237,1,442,529,228,0,0,974,-780,16599,950,-5.59,,,,,,,,,,,,
25084,1564322960739,23,2.29,1.44,0.78,2.29,1.98,0.63,0.0,0.84,0,-6,-3,0.63,10875,54,79,32,73,919,952.0,662,463,60,129.0,237,1,443,480,228,0,0,967,-3332,-2830,947,414.87,,,,,,,,,,,,
25104,1564322960759,22,2.28,1.44,0.78,2.28,1.97,0.77,-0.08,0.77,-1,-6,-3,0.77,10788,25,80,32,63,915,949.0,660,464,60,129.0,237,1,450,408,228,0,0,974,-781,16648,951,648.46,,,,,,,,,,,,
25124,1564322960779,23,2.29,1.44,0.78,2.29,1.98,0.87,-0.19,0.78,-1,-6,-3,0.89,10330,6,79,32,52,908,953.0,656,459,60,130.0,148,1,394,312,142,0,0,954,-3332,-783,950,648.46,,,,,,,,,,,,
25144,1564322960799,21,2.29,1.43,0.79,2.29,1.98,0.98,-0.29,0.81,-2,-7,-3,1.02,10124,0,79,32,45,899,947.0,657,462,60,129.0,148,1,365,240,142,0,0,935,-780,-772,939,414.87,44.681046,10.016866,95.11,178.1,0,0.0,-1,0.0,0.0,0,0.27,0.4191
25164,1564322960819,21,2.3,1.44,0.79,2.29,1.98,1.02,-0.18,0.68,-1,-8,-3,1.03,9946,0,79,32,40,893,941.0,655,464,60,130.0,148,1,327,220,142,0,0,931,-777,-773,939,648.46,,,,,,,,,,,,
25184,1564322960839,21,2.29,1.44,0.78,2.28,1.99,1.06,-0.22,0.72,-1,-7,-4,1.08,9704,0,79,32,38,889,943.0,650,462,60,129.0,148,1,317,214,142,0,0,924,-778,-908,939,648.46,,,,,,,,,,,,
25204,1564322960859,24,2.3,1.44,0.78,2.29,1.98,1.03,-0.16,0.65,-1,-6,-3,1.05,9645,0,80,32,35,877,935.0,648,466,60,130.0,148,1,308,206,142,0,0,885,-775,-5114,933,648.46,,,,,,,,,,,,
25224,1564322960879,22,2.3,1.44,0.79,2.29,1.99,1.07,-0.2,0.58,-1,-3,-4,1.09,9755,0,79,32,34,860,932.0,651,463,60,129.0,81,1,305,207,76,0,0,854,-1284,966,926,181.28,,,,,,,,,,,,
25244,1564322960904,22,2.31,1.44,0.78,2.29,1.99,1.09,-0.13,0.47,-1,-5,-3,1.1,9775,0,79,32,32,847,928.0,655,467,60,130.0,81,1,300,203,76,0,0,858,218,-2574,925,882.05,44.681023,10.016861,94.32,178.0,0,0.0,-1,0.0,0.0,0,0.28,0.4207
25264,1564322960924,23,2.3,1.43,0.78,2.29,1.98,1.15,-0.22,0.52,-2,-3,-2,1.17,9750,0,79,32,31,835,917.0,657,461,60,129.0,81,1,295,203,76,0,0,884,-1812,-1578,916,181.28,,,,,,,,,,,,
25284,1564322960944,24,2.3,1.44,0.78,2.3,1.99,1.17,-0.08,0.39,-1,-3,-1,1.17,9791,0,79,32,30,831,914.0,657,465,60,129.0,81,1,291,198,76,0,0,883,-4875,-14848,901,648.46,,,,,,,,,,,,
25304,1564322960964,21,2.31,1.44,0.78,2.3,1.98,1.25,-0.16,0.51,-1,-4,-2,1.26,9873,0,80,32,29,832,907.0,659,462,60,127.0,81,1,287,200,76,0,0,877,-5114,-2311,909,-5.59,,,,,,,,,,,,
25324,1564322960984,19,2.31,1.44,0.79,2.29,1.98,1.29,-0.1,0.44,-1,-6,-0,1.3,9873,0,79,32,29,838,897.0,656,462,60,128.0,80,1,287,198,73,0,0,869,16,966,896,648.46,,,,,,,,,,,,
25344,1564322960995,18,2.32,1.44,0.78,2.3,1.98,1.28,-0.16,0.33,-0,-6,-1,1.29,9868,0,79,32,28,851,890.0,658,469,60,129.0,80,1,282,195,73,0,0,843,-1277,-3335,888,414.87,44.681,10.016857,91.37,178.0,0,0.0,-1,0.0,0.0,0,0.28,0.4224
25364,1564322961015,14,2.34,1.43,0.79,2.28,1.99,1.3,-0.16,0.25,1,-5,-1,1.31,9765,0,79,32,28,852,893.0,656,462,60,127.0,80,1,282,194,73,0,0,863,-2820,-11532,893,648.46,,,,,,,,,,,,
25384,1564322961035,14,2.33,1.44,0.78,2.29,1.98,1.35,-0.32,0.35,1,-3,-0,1.39,9630,0,79,32,27,839,888.0,650,465,60,128.0,80,1,278,191,73,0,0,849,-2820,-1576,888,-5.59,,,,,,,,,,,,
25404,1564322961055,16,2.34,1.44,0.78,2.29,1.99,1.28,-0.27,0.25,2,-2,-0,1.31,9498,0,79,32,27,824,881.0,648,468,60,126.0,80,1,278,190,73,0,0,828,-1578,-2311,882,-5.59,,,,,,,,,,,,
25424,1564322961075,18,2.32,1.44,0.78,2.29,1.99,1.23,-0.16,0.24,3,-0,-0,1.24,9417,0,79,32,26,798,879.0,648,465,60,129.0,76,1,274,189,67,0,0,758,-3450,-3450,879,-5.59,,,,,,,,,,,,
25444,1564322961102,15,2.32,1.44,0.78,2.28,1.99,1.29,-0.26,0.29,3,-2,1,1.31,9464,0,80,32,25,770,869.0,648,461,60,130.0,76,1,270,188,67,0,0,726,-1580,-13068,869,181.28,44.680977,10.016853,88.47,178.0,0,0.0,-1,0.0,0.0,0,0.28,0.4241
25464,1564322961122,16,2.3,1.44,0.78,2.29,1.98,1.22,-0.24,0.14,3,-1,3,1.24,9605,0,80,32,25,741,866.0,651,463,60,130.0,76,1,270,188,67,0,0,705,-1576,-3450,862,414.87,,,,,,,,,,,,
25484,1564322961142,14,2.29,1.43,0.78,2.28,1.99,1.22,-0.26,0.13,4,-0,3,1.25,9640,0,79,32,25,717,860.0,653,464,60,127.0,76,1,270,188,67,0,0,686,-2311,-13580,857,414.87,,,,,,,,,,,,
25504,1564322961162,13,2.3,1.44,0.78,2.29,1.98,1.19,-0.23,0.08,3,-0,3,1.21,9659,0,80,32,25,714,859.0,653,459,60,129.0,76,1,270,188,67,0,0,655,8838,-22796,854,414.87,,,,,,,,,,,,
25524,1564322961182,14,2.29,1.44,0.78,2.29,1.98,1.22,-0.27,0.09,3,0,3,1.25,9679,0,80,32,25,711,852.0,578,462,60,129.0,80,1,270,183,68,0,0,644,-31068,-2356,852,-5.59,,,,,,,,,,,,
25544,1564322961202,15,2.3,1.44,0.78,2.29,1.98,1.3,-0.27,0.07,3,0,3,1.32,9715,0,79,32,25,711,840.0,555,463,60,128.0,80,1,270,110,68,0,0,614,-2830,-13072,840,-5.59,44.680954,10.016849,86.23,178.0,0,0.0,-1,0.0,0.0,0,0.28,0.4257
25564,1564322961222,13,2.3,1.44,0.78,2.28,1.99,1.31,-0.31,0.08,2,1,2,1.34,9745,0,79,32,24,711,838.0,567,463,60,128.0,80,1,270,183,68,0,0,607,-4096,-2826,836,414.87,,,,,,,,,,,,
25584,1564322961242,15,2.3,1.44,0.78,2.29,1.99,1.36,-0.33,0.08,2,1,2,1.4,9730,0,80,32,24,713,829.0,581,463,60,128.0,80,1,270,183,68,0,0,635,-2830,1524,829,-5.59,,,,,,,,,,,,
25604,1564322961262,11,2.31,1.44,0.78,2.28,1.98,1.32,-0.3,0.06,1,2,1,1.35,9740,0,80,32,24,718,822.0,611,463,60,129.0,80,1,270,183,68,0,0,648,-2314,-2826,822,414.87,,,,,,,,,,,,
25624,1564322961282,13,2.3,1.44,0.78,2.29,1.99,1.29,-0.3,0.05,1,-0,2,1.32,9735,0,80,32,24,729,820.0,640,458,60,128.0,81,1,270,183,67,0,0,637,-3344,-2826,816,-5.59,,,,,,,,,,,,
25644,1564322961304,14,2.31,1.44,0.78,2.28,1.99,1.18,-0.22,-0.04,1,1,2,1.2,9750,0,79,32,24,740,818.0,642,462,60,128.0,81,1,270,183,67,0,0,653,31988,-2570,818,181.28,44.680935,10.016843,83.11,178.0,0,0.0,-1,0.0,0.0,0,0.29,0.4274
25664,1564322961324,14,2.32,1.44,0.77,2.29,1.99,1.27,-0.22,-0.02,1,0,2,1.28,9684,0,80,32,24,748,809.0,647,466,60,128.0,81,1,270,105,67,0,0,670,-3450,6900,809,-5.59,,,,,,,,,,,,
25684,1564322961344,14,2.33,1.44,0.78,2.28,1.99,1.3,-0.16,-0.04,1,-1,3,1.31,9664,0,80,32,24,756,806.0,647,469,60,129.0,81,1,270,182,67,0,0,664,16118,5876,803,181.28,,,,,,,,,,,,
25704,1564322961364,12,2.34,1.44,0.77,2.29,1.98,1.37,-0.24,0.01,1,-1,2,1.39,9654,0,80,32,24,772,797.0,652,463,60,128.0,81,1,270,182,67,0,0,699,-1566,-10216,797,-5.59,,,,,,,,,,,,
25724,1564322961384,12,2.35,1.44,0.78,2.28,1.99,1.27,-0.16,-0.09,2,-1,3,1.28,9659,0,80,32,24,787,791.0,651,467,60,128.0,81,1,270,182,65,0,0,721,3544,-23308,790,414.87,,,,,,,,,,,,
25744,1564322961404,13,2.35,1.44,0.78,2.29,1.99,1.28,-0.19,-0.02,3,-1,4,1.29,9730,0,80,32,23,795,789.0,650,462,60,128.0,81,1,270,183,65,0,0,732,-2426,-13068,790,181.28,44.680912,10.016839,80.74,178.0,0,0.0,-1,0.0,0.0,0,0.29,0.4291
25764,1564322961424,14,2.36,1.44,0.77,2.28,2.0,1.25,-0.12,-0.07,4,-2,4,1.26,9765,0,79,32,23,803,782.0,651,460,60,128.0,81,1,270,179,65,0,0,728,-23308,-31068,782,-5.59,,,,,,,,,,,,
25784,1564322961444,12,2.35,1.44,0.78,2.29,1.99,1.23,-0.2,0.06,4,-2,5,1.24,9770,0,80,32,23,816,779.0,651,461,60,128.0,81,1,270,179,65,0,0,688,-2344,-2574,783,-5.59,,,,,,,,,,,,
25804,1564322961464,12,2.35,1.44,0.78,2.28,1.99,1.21,-0.18,0.05,6,-0,6,1.22,9750,0,80,32,23,830,785.0,650,465,60,128.0,81,1,270,179,65,0,0,666,-10216,6790,785,414.87,,,,,,,,,,,,
25824,1564322961484,9,2.34,1.44,0.78,2.29,1.99,1.28,-0.27,0.12,6,1,6,1.3,9630,0,80,32,23,837,778.0,649,460,60,129.0,84,1,270,178,66,0,0,657,-2766,6389,778,-5.59,,,,,,,,,,,,
25844,1564322961500,8,2.34,1.44,0.78,2.29,1.99,1.28,-0.32,0.15,7,1,5,1.32,9541,0,80,32,23,843,770.0,646,462,60,128.0,84,1,270,177,66,0,0,660,-3038,8838,770,-5.59,44.680893,10.016834,78.11,178.0,0,0.0,-1,0.0,0.0,0,0.29,0.4307
25864,1564322961520,11,2.33,1.44,0.77,2.29,1.98,1.28,-0.27,0.05,7,1,5,1.31,9512,0,80,32,23,856,766.0,649,465,60,128.0,84,1,270,176,66,0,0,654,-3450,-3344,765,414.87,,,,,,,,,,,,
25884,1564322961540,9,2.33,1.44,0.77,2.29,1.99,1.28,-0.3,0.09,7,-2,6,1.32,9479,0,79,32,23,869,761.0,651,459,60,128.0,84,1,270,176,66,0,0,646,136,136,756,-5.59,,,,,,,,,,,,
25904,1564322961560,10,2.32,1.44,0.78,2.28,1.99,1.3,-0.34,0.1,6,-1,6,1.34,9460,0,80,32,22,877,754.0,650,466,60,129.0,84,1,270,170,66,0,0,656,-31066,-2314,752,-5.59,,,,,,,,,,,,
25924,1564322961580,10,2.32,1.44,0.78,2.29,1.99,1.31,-0.29,0.11,5,-2,6,1.34,9426,0,80,32,22,884,744.0,651,463,60,129.0,81,1,270,91,61,0,0,651,-31066,3462,743,-5.59,,,,,,,,,,,,
25944,1564322961600,13,2.3,1.44,0.78,2.3,1.99,1.22,-0.21,0.02,5,-1,7,1.24,9389,0,79,32,22,896,744.0,647,464,60,129.0,81,1,270,170,61,0,0,634,-13068,-2358,744,-5.59,44.680874,10.016829,75.5,178.0,0,0.0,-1,0.0,0.0,0,0.29,0.4324
25964,1564322961620,8,2.32,1.44,0.77,2.29,1.99,1.17,-0.23,0.02,5,-1,7,1.19,9268,0,80,32,22,909,743.0,649,463,60,129.0,81,1,270,170,61,0,0,644,1037,-2560,735,-5.59,,,,,,,,,,,,
25984,1564322961640,10,2.3,1.44,0.77,2.29,1.98,1.1,-0.22,0.07,4,2,7,1.12,9168,0,80,32,22,918,735.0,644,457,60,128.0,81,1,270,170,61,0,0,666,-31066,16118,735,-5.59,,,,,,,,,,,,
26004,1564322961660,11,2.31,1.44,0.78,2.29,1.98,1.08,-0.22,0.22,4,2,6,1.11,9155,0,80,32,22,924,726.0,640,466,60,129.0,81,1,270,170,61,0,0,701,-4091,-3584,725,-5.59,,,,,,,,,,,,
26024,1564322961680,12,2.31,1.43,0.77,2.29,1.99,1.16,-0.24,0.2,3,3,6,1.19,9195,0,80,32,21,936,722.0,641,462,60,129.0,81,1,270,164,59,0,0,699,-2830,12333,721,-5.59,,,,,,,,,,,,
26044,1564322961700,11,2.32,1.44,0.77,2.29,1.99,1.25,-0.23,0.17,2,0,5,1.27,9213,0,80,32,22,949,719.0,646,466,60,128.0,81,1,270,170,59,0,0,687,204,14342,719,-5.59,44.680859,10.016824,73.44,178.0,0,0.0,-1,0.0,0.0,0,0.29,0.4341
26064,1564322961720,13,2.32,1.43,0.77,2.29,1.99,1.33,-0.18,0.11,3,-2,5,1.34,9227,0,80,32,22,960,713.0,644,465,60,129.0,81,1,270,164,59,0,0,679,-3888,-10344,710,414.87,,,,,,,,,,,,
26084,1564322961740,14,2.31,1.44,0.77,2.28,1.99,1.35,-0.13,-0.0,3,-3,5,1.35,9204,0,80,32,22,967,708.0,648,472,60,129.0,81,1,270,170,59,0,0,668,-20693,3543,705,-5.59,,,,,,,,,,,,
26104,1564322961760,14,2.32,1.44,0.78,2.28,1.99,1.28,-0.05,-0.05,4,-4,5,1.28,9191,0,80,32,21,982,704.0,649,461,60,128.0,81,1,270,170,59,0,0,674,-3584,-388,704,-5.59,,,,,,,,,,,,
26124,1564322961780,10,2.32,1.44,0.77,2.29,1.99,1.2,-0.07,-0.02,4,-2,5,1.2,9155,0,80,33,21,1002,701.0,648,463,60,128.0,81,1,270,164,57,0,0,669,16599,-2826,701,414.87,,,,,,,,,,,,
26144,1564322961800,8,2.32,1.44,0.77,2.29,1.99,1.08,-0.15,0.05,4,-1,5,1.09,9088,0,80,33,22,1018,693.0,647,468,60,129.0,81,1,270,170,57,0,0,668,-2830,-26380,693,-5.59,44.68084,10.016819,70.71,178.1,0,0.0,-1,0.0,0.0,0,0.3,0.4357
26164,1564322961820,8,2.33,1.44,0.77,2.29,1.99,1.06,-0.23,0.14,4,1,5,1.09,9040,0,80,33,22,1031,689.0,644,467,60,129.0,81,1,270,170,57,0,0,662,-10399,-26380,686,-5.59,,,,,,,,,,,,
26184,1564322961840,10,2.33,1.44,0.77,2.29,1.99,0.98,-0.3,0.25,4,1,5,1.02,9005,0,80,33,22,1049,685.0,643,466,60,129.0,81,1,270,170,57,0,0,664,-10346,-27404,685,-5.59,,,,,,,,,,,,
26204,1564322961860,9,2.33,1.44,0.77,2.3,1.99,0.96,-0.35,0.35,5,2,4,1.03,8979,0,80,33,22,1074,683.0,641,465,60,129.0,81,1,270,170,57,0,0,658,-10344,-27404,683,-5.59,,,,,,,,,,,,
26224,1564322961880,9,2.33,1.45,0.77,2.29,1.99,0.85,-0.4,0.43,5,2,4,0.94,8932,0,80,33,23,1094,679.0,641,461,60,128.0,88,1,270,176,60,0,0,642,8958,31988,679,-5.59,,,,,,,,,,,,
26244,1564322961904,10,2.33,1.45,0.77,2.29,1.99,0.82,-0.39,0.47,5,4,4,0.91,8840,0,80,33,23,1106,676.0,642,461,60,128.0,88,1,270,176,60,0,0,636,-2830,-10348,673,-5.59,44.680824,10.016813,68.37,178.1,0,0.0,-1,0.0,0.0,0,0.3,0.4374
26264,1564322961924,7,2.33,1.44,0.77,2.29,1.99,0.81,-0.31,0.54,5,4,4,0.87,8712,0,80,33,23,1123,670.0,641,463,60,129.0,88,1,270,176,60,0,0,631,3543,-2826,669,-5.59,,,,,,,,,,,,
26284,1564322961944,7,2.32,1.44,0.77,2.29,2.0,0.93,-0.28,0.48,5,3,4,0.97,8616,0,80,33,23,1145,669.0,640,462,60,129.0,88,1,270,176,60,0,0,640,-2345,479,666,414.87,,,,,,,,,,,,
26304,1564322961964,5,2.33,1.44,0.77,2.29,1.99,1.01,-0.32,0.35,4,2,5,1.06,8640,0,80,33,24,1165,663.0,636,464,60,130.0,88,1,270,181,60,0,0,636,-3038,4909,665,-5.59,,,,,,,,,,,,
26324,1564322961984,6,2.31,1.44,0.77,2.3,1.99,0.94,-0.33,0.29,5,2,4,1.0,8672,0,80,33,24,1175,655.0,640,463,60,130.0,89,1,270,181,59,0,0,630,24583,-6006,655,-5.59,,,,,,,,,,,,
26344,1564322961996,8,2.31,1.44,0.77,2.3,1.98,0.92,-0.3,0.4,5,3,5,0.97,8676,0,80,33,24,1186,651.0,640,460,60,129.0,89,1,270,181,59,0,0,625,479,-2580,651,414.87,44.680805,10.016809,65.91,178.1,0,0.0,-1,0.0,0.0,0,0.3,0.4391
26364,1564322962016,7,2.32,1.44,0.77,2.29,1.99,1.01,-0.24,0.41,4,2,5,1.04,8640,0,80,33,24,1195,649.0,643,463,60,129.0,89,1,270,181,59,0,0,624,-2830,6208,649,-5.59,,,,,,,,,,,,
26384,1564322962036,6,2.31,1.44,0.77,2.29,2.0,0.99,-0.26,0.31,4,2,4,1.02,8538,0,80,33,24,1203,643.0,638,466,60,130.0,89,1,270,181,59,0,0,623,244,20993,643,-5.59,,,,,,,,,,,,
26404,1564322962056,9,2.3,1.44,0.76,2.3,1.99,0.9,-0.27,0.26,4,3,5,0.94,8434,0,80,33,24,1202,643.0,637,463,60,130.0,89,1,270,179,59,0,0,619,24,-16046,643,-5.59,,,,,,,,,,,,
26424,1564322962076,5,2.3,1.44,0.77,2.29,1.99,1.0,-0.23,0.25,3,2,4,1.03,8348,0,80,33,24,1201,638.0,635,465,60,130.0,87,1,270,176,56,0,0,619,-10251,17336,636,-5.59,,,,,,,,,,,,
26444,1564322962103,8,2.3,1.43,0.76,2.29,1.99,0.94,-0.21,0.15,3,3,4,0.96,8351,0,80,33,24,1198,632.0,631,461,60,130.0,87,1,270,174,56,0,0,618,966,19304,631,-5.59,44.68079,10.016804,64.21,178.1,0,0.0,-1,0.0,0.0,0,0.3,0.4407
26464,1564322962123,6,2.29,1.44,0.76,2.29,1.99,1.04,-0.17,0.22,3,1,3,1.05,8340,0,80,33,24,1194,629.0,634,463,60,130.0,87,1,270,174,56,0,0,612,-14655,-23055,629,-5.59,,,,,,,,,,,,
26484,1564322962143,10,2.3,1.44,0.77,2.29,2.0,0.97,-0.19,0.11,3,2,3,0.99,8300,0,80,33,24,1191,626.0,634,463,60,130.0,87,1,270,172,56,0,0,606,3395,-7939,625,414.87,,,,,,,,,,,,
26504,1564322962163,6,2.31,1.44,0.76,2.29,1.99,1.01,-0.13,0.21,3,1,3,1.02,8256,0,80,33,24,1187,622.0,633,463,60,129.0,87,1,270,169,56,0,0,604,19320,19621,621,-5.59,,,,,,,,,,,,
26524,1564322962183,9,2.3,1.45,0.76,2.29,1.99,0.96,-0.14,0.13,3,2,3,0.97,8234,0,80,33,24,1178,619.0,632,463,60,128.0,84,1,270,168,52,0,0,608,269,1010,619,181.28,,,,,,,,,,,,
26544,1564322962203,8,2.31,1.44,0.76,2.3,1.99,1.06,-0.12,0.17,3,1,3,1.07,8169,0,80,33,24,1169,614.0,630,462,60,129.0,84,1,270,165,52,0,0,597,16529,-3210,612,-5.59,44.680775,10.016798,62.64,178.1,0,0.0,-1,0.0,0.0,0,0.3,0.4424
26564,1564322962223,9,2.31,1.44,0.76,2.28,2.0,0.97,-0.13,0.18,3,1,2,0.98,8116,0,80,33,24,1163,613.0,632,460,60,130.0,84,1,270,161,52,0,0,599,28675,-32504,613,181.28,,,,,,,,,,,,
26584,1564322962243,5,2.31,1.44,0.76,2.29,2.0,1.04,-0.11,0.19,2,1,2,1.05,8074,0,80,34,24,1157,609.0,632,462,60,128.0,84,1,270,161,52,0,0,591,-23055,3472,609,414.87,,,,,,,,,,,,
26604,1564322962263,9,2.3,1.44,0.76,2.3,1.98,1.09,-0.1,0.23,3,2,2,1.09,8074,0,80,34,24,1150,604.0,630,463,60,129.0,84,1,270,81,52,0,0,589,5344,6273,604,-5.59,,,,,,,,,,,,
26624,1564322962283,10,2.3,1.44,0.76,2.29,2.0,1.03,-0.11,0.19,2,2,2,1.03,8002,0,80,34,23,1142,601.0,631,462,60,129.0,77,1,270,154,47,0,0,585,-3210,3472,598,414.87,,,,,,,,,,,,
26644,1564322962303,5,2.3,1.44,0.76,2.29,1.99,1.1,-0.09,0.21,2,1,2,1.11,7934,0,80,34,23,1140,596.0,628,463,60,127.0,77,1,269,154,47,0,0,588,17344,2048,595,648.46,44.680763,10.016793,60.71,178.1,0,0.0,-1,0.0,0.0,0,0.31,0.4441
26664,1564322962323,8,2.28,1.44,0.76,2.29,1.99,1.13,-0.09,0.25,1,0,1,1.14,7918,0,80,34,23,1138,592.0,628,465,60,130.0,77,1,269,154,47,0,0,583,-28648,-4035,591,414.87,,,,,,,,,,,,
26684,1564322962343,8,2.28,1.44,0.76,2.3,1.99,1.06,-0.1,0.21,1,0,1,1.07,7841,0,80,34,23,1128,588.0,627,462,60,130.0,77,1,268,154,47,0,0,578,208,259,588,414.87,,,,,,,,,,,,
26704,1564322962363,12,2.28,1.44,0.76,2.29,1.99,1.01,-0.06,0.19,1,1,1,1.01,7809,0,80,34,23,1119,586.0,626,463,60,130.0,77,1,268,154,47,0,0,572,-1894,-3210,585,648.46,,,,,,,,,,,,
26724,1564322962383,10,2.28,1.44,0.76,2.29,1.99,0.99,-0.06,0.15,1,2,0,0.99,7731,0,80,34,23,1110,585.0,625,463,60,129.0,77,1,267,151,45,0,0,571,8488,1780,580,648.46,,,,,,,,,,,,
26744,1564322962403,8,2.29,1.44,0.76,2.29,1.99,1.01,-0.09,0.19,1,2,0,1.02,7671,0,80,34,23,1102,580.0,627,464,60,129.0,77,1,266,154,45,0,0,572,-16384,-18032,575,181.28,44.680748,10.016788,58.76,178.1,0,0.0,-1,0.0,0.0,0,0.31,0.4457
26764,1564322962423,9,2.29,1.43,0.75,2.29,2.0,1.08,-0.06,0.16,0,1,0,1.08,7656,0,80,34,23,1069,576.0,625,465,60,128.0,77,1,266,154,45,0,0,564,1,-18032,575,-5.59,,,,,,,,,,,,
26784,1564322962443,8,2.29,1.44,0.76,2.29,1.99,1.18,-0.04,0.16,-0,-1,0,1.18,7591,0,80,34,23,1029,571.0,622,463,60,130.0,77,1,265,154,45,0,0,559,-29984,2524,570,-5.59,,,,,,,,,,,,
26804,1564322962463,8,2.3,1.44,0.76,2.3,1.99,1.23,-0.03,0.17,0,-1,-0,1.23,7563,0,80,34,23,995,568.0,626,464,60,128.0,77,1,265,154,45,0,0,555,-8186,-22359,565,-5.59,,,,,,,,,,,,
26824,1564322962483,7,2.29,1.44,0.76,2.3,1.99,1.27,-0.04,0.2,0,-2,-0,1.27,7491,0,80,34,23,962,564.0,627,463,60,128.0,78,1,264,156,44,0,0,551,-23623,2216,562,181.28,,,,,,,,,,,,
26844,1564322962501,2,2.3,1.44,0.76,2.29,1.98,1.32,-0.06,0.21,0,-3,-0,1.32,7464,0,80,34,23,928,560.0,621,463,60,130.0,78,1,264,154,44,0,0,549,-28648,-22519,558,-5.59,44.680733,10.016783,56.74,178.1,0,0.0,-1,0.0,0.0,0,0.31,0.4474
26864,1564322962521,1,2.3,1.44,0.76,2.29,1.99,1.37,-0.05,0.21,-0,-3,0,1.38,7396,0,80,34,23,893,557.0,618,458,60,129.0,78,1,263,156,44,0,0,544,-22359,14504,557,-5.59,,,,,,,,,,,,
26884,1564322962541,3,2.3,1.44,0.75,2.29,1.99,1.35,-0.04,0.24,-0,-3,0,1.36,7396,0,80,34,24,876,557.0,619,463,60,128.0,78,1,263,156,44,0,0,546,2216,-506,557,-5.59,,,,,,,,,,,,
26904,1564322962561,2,2.29,1.44,0.75,2.3,1.99,1.32,-0.04,0.25,-0,-3,1,1.33,7352,0,80,34,24,874,555.0,620,460,60,128.0,78,1,263,156,44,0,0,543,6274,2104,555,181.28,,,,,,,,,,,,
26924,1564322962581,3,2.28,1.44,0.76,2.29,1.99,1.32,0.01,0.25,-1,-4,1,1.32,7373,0,80,34,24,872,553.0,617,462,60,128.0,77,1,263,156,43,0,0,543,-28648,1780,554,414.87,,,,,,,,,,,,
26944,1564322962599,2,2.28,1.44,0.76,2.3,1.99,1.26,0.04,0.22,-1,-3,0,1.26,7352,0,80,34,24,871,550.0,616,463,60,129.0,77,1,263,156,43,0,0,545,-32248,-8962,549,414.87,44.680721,10.016778,55.1,178.1,0,0.0,-1,0.0,0.0,0,0.31,0.4491
26964,1564322962619,-0,2.27,1.43,0.76,2.29,1.99,1.16,0.04,0.2,-1,-1,0,1.16,7367,0,80,34,24,870,551.0,616,462,60,129.0,77,1,263,156,43,0,0,546,2104,-506,548,648.46,,,,,,,,,,,,
26984,1564322962639,-0,2.25,1.43,0.76,2.28,1.99,1.06,0.07,0.19,-2,1,1,1.06,7376,0,80,34,24,871,549.0,619,461,60,129.0,77,1,263,156,43,0,0,542,2104,-2934,545,414.87,,,,,,,,,,,,
27004,1564322962659,-1,2.24,1.43,0.76,2.28,1.99,0.98,0.08,0.22,-2,1,0,0.99,7341,0,80,34,24,874,547.0,621,457,60,130.0,77,1,263,156,43,0,0,540,-22519,-32248,544,-5.59,,,,,,,,,,,,
27024,1564322962679,0,2.22,1.43,0.75,2.28,1.99,0.98,0.04,0.26,-3,2,-1,0.98,7327,0,80,34,24,880,545.0,620,460,60,130.0,79,1,263,156,43,0,0,537,-8962,2104,538,-5.59,,,,,,,,,,,,
27044,1564322962699,-1,2.21,1.43,0.75,2.28,1.98,1.02,0.05,0.27,-4,1,-1,1.02,7247,0,80,34,24,885,546.0,616,461,60,128.0,79,1,262,156,43,0,0,539,2524,6274,535,-5.59,44.680706,10.016773,54.04,178.1,0,0.0,-1,0.0,0.0,0,0.31,0.4507
27064,1564322962719,1,2.21,1.42,0.74,2.27,1.99,1.03,0.09,0.31,-5,1,-2,1.04,7244,0,80,34,24,891,544.0,616,463,60,129.0,79,1,262,159,43,0,0,542,-22519,-9072,532,-5.59,,,,,,,,,,,,
27084,1564322962739,3,2.19,1.42,0.74,2.28,1.97,1.02,0.2,0.26,-7,0,-3,1.04,7192,0,80,34,24,892,545.0,617,461,60,129.0,79,1,261,156,43,0,0,537,-8962,1248,531,414.87,,,,,,,,,,,,
27104,1564322962759,2,2.16,1.42,0.74,2.26,1.98,0.96,0.3,0.28,-8,1,-4,1.0,7200,0,80,34,25,887,546.0,616,460,60,129.0,79,1,262,159,43,0,0,534,2524,1248,529,-5.59,,,,,,,,,,,,
27124,1564322962779,1,2.15,1.41,0.74,2.26,1.97,0.89,0.35,0.34,-9,1,-6,0.96,7189,0,80,34,25,882,543.0,615,460,60,129.0,81,1,261,159,43,0,0,541,1779,-9212,524,-5.59,,,,,,,,,,,,
27144,1564322962801,0,2.13,1.41,0.74,2.26,1.97,0.94,0.37,0.35,-10,1,-6,1.01,7159,0,80,34,25,872,544.0,616,462,60,128.0,81,1,261,159,43,0,0,535,-506,-8187,523,-5.59,44.680691,10.016768,53.03,178.1,0,0.0,-1,0.0,0.0,0,0.31,0.4524
27164,1564322962821,4,2.09,1.42,0.74,2.25,1.97,0.97,0.41,0.35,-12,0,-8,1.05,7148,0,80,34,25,864,544.0,615,461,60,128.0,81,1,261,159,43,0,0,542,-8962,-3856,519,181.28,,,,,,,,,,,,
27184,1564322962841,2,2.09,1.41,0.74,2.25,1.97,0.96,0.53,0.32,-14,-0,-10,1.1,7091,0,80,34,25,860,547.0,616,462,60,128.0,81,1,260,159,43,0,0,541,-506,-28648,514,648.46,,,,,,,,,,,,
27204,1564322962861,0,2.09,1.41,0.74,2.26,1.97,0.93,0.64,0.32,-14,1,-13,1.13,7062,0,80,34,25,859,547.0,613,462,60,129.0,81,1,260,159,43,0,0,540,-22519,11560,513,181.28,,,,,,,,,,,,
27224,1564322962881,3,2.09,1.41,0.74,2.26,1.97,0.93,0.61,0.34,-16,0,-15,1.11,7080,0,80,34,25,865,547.0,617,461,60,128.0,82,1,260,159,42,0,0,537,-22519,248,510,-5.59,,,,,,,,,,,,
27244,1564322962905,1,2.1,1.41,0.74,2.26,1.97,0.95,0.64,0.32,-18,0,-17,1.14,6980,0,80,34,26,872,547.0,613,461,60,128.0,82,1,265,160,42,0,0,538,2524,-32768,508,414.87,44.680679,10.016764,51.94,178.1,0,0.0,-1,0.0,0.0,0,0.32,0.4541
27264,1564322962925,-2,2.1,1.41,0.75,2.25,1.97,0.96,0.75,0.35,-18,0,-19,1.22,6929,0,80,34,26,882,545.0,612,463,60,129.0,82,1,265,81,42,0,0,537,2524,248,506,-5.59,,,,,,,,,,,,
27284,1564322962945,3,2.1,1.41,0.74,2.26,1.97,0.93,0.74,0.39,-19,1,-21,1.19,6926,0,80,34,26,891,543.0,611,463,60,127.0,82,1,265,160,42,0,0,535,1779,-1562,502,-5.59,,,,,,,,,,,,
27304,1564322962965,0,2.09,1.42,0.74,2.26,1.98,0.94,0.71,0.38,-21,0,-23,1.18,6918,5,80,34,26,893,541.0,611,462,60,128.0,82,1,265,160,42,0,0,533,-2336,-1818,499,-5.59,,,,,,,,,,,,
27324,1564322962985,0,2.1,1.41,0.74,2.25,1.98,0.92,0.76,0.41,-21,1,-24,1.19,6900,6,80,34,26,897,537.0,613,458,60,130.0,82,1,265,160,41,0,0,530,-30064,248,499,-5.59,,,,,,,,,,,,
27344,1564322962995,2,2.1,1.42,0.75,2.26,1.97,0.9,0.72,0.42,-22,-0,-25,1.15,6926,15,80,34,28,899,535.0,612,462,60,128.0,82,1,273,163,41,0,0,525,6274,3580,499,-5.59,44.680668,10.016762,51.01,178.2,0,0.0,-1,0.0,0.0,0,0.32,0.4557
27364,1564322963015,-1,2.11,1.42,0.75,2.26,1.97,0.89,0.81,0.35,-22,0,-25,1.2,6947,27,80,34,32,901,533.0,614,463,60,129.0,82,1,290,167,41,0,0,523,2104,10305,498,-5.59,,,,,,,,,,,,
27384,1564322963035,2,2.11,1.42,0.75,2.27,1.98,0.88,0.88,0.35,-22,-1,-27,1.24,6926,33,80,34,36,900,532.0,611,459,60,127.0,82,1,301,190,41,0,0,526,14504,16648,496,-5.59,,,,,,,,,,,,
27404,1564322963055,1,2.1,1.42,0.75,2.26,1.97,0.9,0.8,0.38,-23,0,-28,1.21,6967,37,80,34,43,899,534.0,615,466,60,130.0,82,1,339,215,41,0,0,525,14504,8488,495,-5.59,,,,,,,,,,,,
27424,1564322963075,-0,2.1,1.42,0.75,2.25,1.98,0.85,0.93,0.26,-22,2,-28,1.25,6939,37,80,34,48,899,533.0,614,462,60,129.0,115,1,371,222,57,0,0,530,-32248,-6656,493,-5.59,,,,,,,,,,,,
27444,1564322963102,2,2.11,1.42,0.75,2.26,1.97,0.78,0.93,0.32,-23,1,-29,1.21,6936,37,80,34,51,899,531.0,613,459,60,129.0,115,1,380,242,57,0,0,523,-22519,-10483,494,-5.59,44.680656,10.01676,50.31,178.1,0,0.0,-1,0.0,0.0,0,0.32,0.4574
27464,1564322963122,3,2.1,1.42,0.75,2.26,1.97,0.88,0.94,0.3,-24,6,-32,1.29,6985,38,80,34,55,900,526.0,611,462,60,130.0,115,1,393,258,57,0,0,501,10408,13180,491,-5.59,,,,,,,,,,,,
27484,1564322963142,0,2.11,1.41,0.75,2.26,1.98,0.91,0.92,0.14,-23,5,-32,1.3,7373,38,80,34,56,901,523.0,618,464,60,130.0,115,1,402,272,57,0,0,498,-22519,26704,488,-5.59,,,,,,,,,,,,
27504,1564322963162,2,2.1,1.42,0.75,2.27,1.98,0.8,0.96,0.08,-23,3,-31,1.25,7425,38,80,34,58,900,519.0,620,463,60,130.0,115,1,415,278,57,0,0,493,-8187,1504,482,-5.59,,,,,,,,,,,,
27524,1564322963182,3,2.1,1.42,0.75,2.26,1.97,0.83,0.95,0.16,-23,3,-32,1.26,7681,38,80,34,58,899,517.0,626,463,60,130.0,170,1,419,280,82,0,0,494,15679,17144,480,-5.59,,,,,,,,,,,,
27544,1564322963204,-1,2.12,1.41,0.76,2.26,1.98,0.92,0.99,0.17,-24,2,-33,1.35,7802,38,80,34,58,897,518.0,628,461,60,130.0,170,1,422,287,82,0,0,490,15679,2790,474,-5.59,44.680645,10.01676,49.31,178.2,0,0.0,-1,0.0,0.0,0,0.32,0.4591
27564,1564322963224,-0,2.11,1.42,0.75,2.27,1.97,0.94,1.09,0.18,-25,0,-33,1.44,7971,39,80,34,56,895,516.0,635,462,60,130.0,170,1,406,283,82,0,0,495,26178,0,473,-5.59,,,,,,,,,,,,
27584,1564322963244,-1,2.12,1.42,0.75,2.27,1.98,0.96,1.03,0.19,-26,0,-32,1.41,8234,39,80,34,55,940,511.0,633,460,60,130.0,170,1,398,285,82,0,0,491,10994,770,472,-5.59,,,,,,,,,,,,
27604,1564322963264,2,2.12,1.42,0.75,2.26,1.98,0.85,1.13,0.22,-26,-2,-34,1.41,8426,39,80,35,54,991,506.0,638,464,60,130.0,170,1,390,274,82,0,0,492,-28648,-31744,467,-5.59,,,,,,,,,,,,
27624,1564322963284,1,2.12,1.42,0.76,2.26,1.98,0.94,1.06,0.22,-27,-1,-34,1.42,8573,39,80,35,53,1042,503.0,641,463,60,129.0,181,1,388,261,85,0,0,492,-32248,19125,466,-5.59,,,,,,,,,,,,
27644,1564322963304,1,2.12,1.41,0.75,2.26,1.98,0.94,0.91,0.28,-27,1,-34,1.31,8589,39,80,35,52,1095,502.0,645,463,60,130.0,181,1,385,263,85,0,0,498,15661,-1562,465,-5.59,44.68063,10.016761,48.53,178.1,0,0.0,-1,0.0,0.0,0,0.32,0.4607
27664,1564322963324,5,2.12,1.42,0.75,2.27,1.98,0.83,0.94,0.25,-26,1,-34,1.26,8596,39,80,35,51,1181,504.0,645,468,60,130.0,181,1,382,256,85,0,0,499,-32248,-9166,463,-5.59,,,,,,,,,,,,
27684,1564322963344,0,2.12,1.42,0.76,2.26,1.98,0.75,1.05,0.27,-25,-0,-33,1.29,8672,40,80,35,51,1279,499.0,643,462,60,129.0,181,1,383,258,85,0,0,493,-22519,-26615,462,-5.59,,,,,,,,,,,,
27704,1564322963364,1,2.13,1.42,0.76,2.26,1.98,0.8,1.1,0.27,-26,-0,-34,1.37,8712,39,80,35,50,1341,495.0,646,464,60,130.0,181,1,379,252,85,0,0,491,771,16408,463,-5.59,,,,,,,,,,,,
27724,1564322963384,-0,2.14,1.42,0.75,2.27,1.99,0.93,0.97,0.27,-26,0,-34,1.34,8831,39,80,35,50,1386,493.0,645,462,60,130.0,178,1,381,254,83,0,0,485,-6528,2524,464,-5.59,,,,,,,,,,,,
27744,1564322963404,0,2.14,1.42,0.76,2.27,1.98,0.97,0.79,0.27,-25,1,-36,1.25,8886,39,80,35,49,1430,491.0,647,462,60,130.0,178,1,377,255,83,0,0,486,-32768,14488,462,-5.59,44.680618,10.016764,47.39,178.1,0,0.0,-1,0.0,0.0,0,0.32,0.4624
27764,1564322963424,-0,2.17,1.42,0.76,2.27,1.98,1.06,0.57,0.3,-25,1,-36,1.21,8937,39,80,35,49,1476,490.0,644,464,60,131.0,178,1,378,248,83,0,0,485,-1818,-26615,460,-5.59,,,,,,,,,,,,
27784,1564322963444,-1,2.19,1.42,0.77,2.27,1.98,1.06,0.42,0.28,-24,2,-36,1.14,8941,39,80,35,49,1498,492.0,645,462,60,130.0,178,1,378,248,83,0,0,485,-32768,17628,460,-5.59,,,,,,,,,,,,
27804,1564322963464,0,2.21,1.42,0.76,2.27,1.98,1.12,0.27,0.38,-23,3,-34,1.15,8975,39,80,35,48,1498,490.0,645,467,60,131.0,178,1,374,248,83,0,0,485,-1818,-23623,459,181.28,,,,,,,,,,,,
27824,1564322963484,-0,2.23,1.42,0.77,2.26,1.99,1.11,0.15,0.44,-21,5,-34,1.12,9027,39,80,35,48,1498,486.0,648,470,60,131.0,182,1,374,249,84,0,0,478,505,2211,462,414.87,,,,,,,,,,,,
27844,1564322963500,0,2.26,1.43,0.76,2.28,1.98,1.14,0.02,0.54,-19,6,-33,1.14,9053,39,80,35,48,1498,483.0,646,466,60,130.0,182,1,375,240,84,0,0,479,-10483,12552,465,181.28,44.680607,10.016768,46.85,178.1,0,0.0,-1,0.0,0.0,0,0.32,0.4641
27864,1564322963520,2,2.27,1.42,0.76,2.28,1.99,1.15,-0.1,0.52,-18,8,-31,1.15,9040,39,80,35,48,1498,481.0,648,468,60,130.0,182,1,374,240,84,0,0,478,32033,30272,464,-5.59,,,,,,,,,,,,
27884,1564322963540,1,2.29,1.43,0.77,2.28,1.99,1.16,-0.23,0.54,-16,7,-29,1.19,9062,39,80,35,48,1498,475.0,647,463,60,131.0,182,1,375,240,84,0,0,472,-17956,-3210,468,-5.59,,,,,,,,,,,,
27904,1564322963560,-1,2.31,1.43,0.77,2.28,1.99,1.21,-0.33,0.48,-15,7,-27,1.25,9071,37,80,35,47,1498,475.0,650,465,60,130.0,182,1,371,240,84,0,0,472,-9203,30272,468,181.28,,,,,,,,,,,,
27924,1564322963580,3,2.3,1.43,0.77,2.28,1.99,1.24,-0.43,0.43,-13,6,-25,1.32,9084,35,80,35,47,1498,474.0,649,465,60,131.0,168,1,371,231,79,0,0,469,-9203,3576,468,181.28,,,,,,,,,,,,
27944,1564322963598,1,2.32,1.43,0.77,2.28,2.0,1.31,-0.42,0.33,-12,5,-23,1.37,9115,33,80,35,46,1498,471.0,652,466,60,130.0,168,1,365,229,79,0,0,468,8488,32033,471,-5.59,44.680595,10.016772,46.11,178.1,0,0.0,-1,0.0,0.0,0,0.32,0.4657
27964,1564322963618,1,2.33,1.43,0.77,2.28,2.0,1.35,-0.37,0.29,-11,4,-21,1.4,9164,32,80,35,45,1498,472.0,646,465,60,130.0,168,1,359,227,79,0,0,467,-1923,-17956,472,414.87,,,,,,,,,,,,
27984,1564322963638,3,2.33,1.43,0.77,2.27,2.0,1.31,-0.26,0.25,-9,3,-18,1.34,9241,32,80,35,43,1497,476.0,645,457,60,130.0,168,1,347,226,79,0,0,467,-1923,32033,476,414.87,,,,,,,,,,,,
28004,1564322963658,4,2.35,1.43,0.77,2.28,1.99,1.17,-0.22,0.36,-8,2,-15,1.19,9245,32,80,35,43,1497,474.0,646,458,60,129.0,168,1,347,223,79,0,0,472,8488,2212,474,414.87,,,,,,,,,,,,
28024,1564322963678,-1,2.39,1.43,0.77,2.28,2.0,1.03,-0.28,0.49,-6,4,-13,1.07,9159,32,80,35,42,1496,477.0,645,463,60,130.0,161,1,339,219,77,0,0,481,3576,8488,477,181.28,,,,,,,,,,,,
28044,1564322963698,-5,2.43,1.43,0.77,2.29,1.99,0.88,-0.32,0.57,-3,4,-10,0.94,9005,32,80,34,41,1496,480.0,645,466,60,130.0,161,1,332,218,77,0,0,485,-1923,505,480,181.28,44.680588,10.016778,46.37,178.1,0,0.0,-1,0.0,0.0,0,0.33,0.4674
28064,1564322963718,3,2.46,1.43,0.76,2.28,1.99,0.78,-0.35,0.68,-0,4,-9,0.85,8840,32,80,34,42,1485,486.0,641,463,60,130.0,161,1,338,219,77,0,0,482,-1923,-6441,486,-5.59,,,,,,,,,,,,
28084,1564322963738,4,2.5,1.44,0.76,2.29,1.99,0.72,-0.31,0.74,3,2,-6,0.79,8737,32,80,34,42,1442,488.0,638,458,60,129.0,161,1,338,219,77,0,0,480,32033,-32768,489,-5.59,,,,,,,,,,,,
28104,1564322963758,1,2.53,1.44,0.77,2.28,2.0,0.82,-0.33,0.79,4,0,-3,0.88,8700,32,80,34,43,1399,490.0,645,462,60,129.0,161,1,345,219,77,0,0,471,30272,248,490,-5.59,,,,,,,,,,,,
28124,1564322963778,2,2.58,1.44,0.77,2.29,2.0,0.9,-0.39,0.73,6,-2,-1,0.99,8790,32,80,34,42,1358,488.0,642,463,60,130.0,148,1,338,221,72,0,0,467,16408,-1818,488,181.28,,,,,,,,,,,,
28144,1564322963800,1,2.61,1.44,0.77,2.29,1.99,0.96,-0.5,0.57,8,-2,3,1.09,8844,32,80,34,43,1311,488.0,645,463,60,130.0,148,1,345,222,72,0,0,465,2211,-1818,488,181.28,44.680572,10.016783,46.69,178.1,0,0.0,-1,0.0,0.0,0,0.33,0.4691
28164,1564322963820,1,2.65,1.44,0.77,2.28,2.0,0.93,-0.64,0.49,11,-2,4,1.13,8898,32,80,34,43,1254,487.0,642,466,60,130.0,148,1,345,222,72,0,0,477,-18108,1,486,181.28,,,,,,,,,,,,
28184,1564322963840,-0,2.69,1.44,0.77,2.29,1.99,0.97,-0.76,0.42,13,-2,8,1.23,8988,33,80,34,43,1195,488.0,645,466,60,130.0,148,1,345,222,72,0,0,489,17628,505,488,414.87,,,,,,,,,,,,
28204,1564322963860,1,2.72,1.44,0.77,2.29,2.0,0.98,-0.86,0.44,16,-1,9,1.3,9075,33,80,34,43,1178,488.0,643,463,60,130.0,148,1,345,223,72,0,0,490,-26615,-32768,488,414.87,,,,,,,,,,,,
28224,1564322963880,1,2.75,1.44,0.77,2.29,2.0,1.08,-0.96,0.39,17,-2,11,1.45,9186,33,80,34,42,1162,489.0,645,463,60,130.0,152,1,339,221,75,0,0,487,-3267,-1818,489,414.87,,,,,,,,,,,,
28244,1564322963904,2,2.78,1.44,0.77,2.29,2.0,1.14,-0.96,0.34,19,-3,14,1.49,9286,33,80,34,42,1153,488.0,642,460,60,130.0,152,1,340,221,75,0,0,488,-3267,-6528,486,882.05,44.680565,10.016788,47.72,178.0,0,0.0,-1,0.0,0.0,0,0.33,0.4707
28264,1564322963924,3,2.79,1.44,0.77,2.29,2.01,1.06,-0.96,0.33,22,-3,17,1.43,9360,33,80,34,42,1144,484.0,646,456,60,129.0,152,1,341,222,75,0,0,495,2131,-6441,485,181.28,,,,,,,,,,,,
28284,1564322963944,2,2.78,1.44,0.77,2.29,2.0,1.02,-1.06,0.42,23,-4,20,1.47,9460,34,80,34,41,1150,482.0,647,459,60,129.0,152,1,334,220,75,0,0,511,21432,-899,482,-5.59,,,,,,,,,,,,
28304,1564322963964,3,2.78,1.45,0.77,2.29,2.0,1.04,-1.07,0.44,25,-4,22,1.5,9551,34,80,34,41,1157,482.0,649,469,60,129.0,152,1,335,221,75,0,0,522,-28332,1,482,414.87,,,,,,,,,,,,
28324,1564322963984,1,2.77,1.44,0.77,2.3,2.01,1.02,-1.15,0.41,26,-3,25,1.54,9659,34,80,34,41,1156,483.0,650,460,60,129.0,168,1,335,222,81,0,0,526,21580,248,481,-5.59,,,,,,,,,,,,
28344,1564322963996,2,2.77,1.44,0.77,2.29,2.0,1.01,-1.17,0.4,28,-2,27,1.54,9669,34,80,34,41,1156,482.0,651,462,60,129.0,168,1,335,222,81,0,0,535,21580,-32768,482,414.87,44.68055,10.016789,46.69,178.0,0,0.0,-1,0.0,0.0,0,0.33,0.4724
28364,1564322964016,-1,2.76,1.44,0.77,2.3,2.01,0.94,-1.21,0.35,29,-1,30,1.53,9640,34,80,34,41,1149,484.0,559,467,60,129.0,168,1,335,222,81,0,0,551,-7939,248,484,882.05,,,,,,,,,,,,
28384,1564322964036,1,2.76,1.44,0.77,2.3,2.01,0.91,-1.24,0.41,30,-1,33,1.54,9654,34,80,34,41,1142,482.0,457,464,60,129.0,168,1,335,222,81,0,0,558,-768,-10483,482,414.87,,,,,,,,,,,,
28404,1564322964056,4,2.75,1.45,0.77,2.3,2.0,0.92,-1.27,0.32,31,-2,34,1.57,9745,34,80,34,41,1125,480.0,393,465,60,129.0,168,1,335,222,81,0,0,559,243,-6441,480,414.87,,,,,,,,,,,,
28424,1564322964076,1,2.75,1.45,0.78,2.29,2.01,0.97,-1.31,0.34,32,-3,35,1.63,9775,34,80,34,41,1109,476.0,358,461,60,130.0,170,1,335,223,81,0,0,560,-768,8488,476,-5.59,,,,,,,,,,,,
28444,1564322964104,0,2.76,1.44,0.77,2.29,2.01,0.96,-1.31,0.31,32,-2,36,1.62,9827,34,80,34,41,1097,476.0,363,466,60,130.0,170,1,335,223,81,0,0,564,1779,8488,476,181.28,44.680538,10.016791,46.76,178.0,0,0.0,-1,0.0,0.0,0,0.33,0.4741
28464,1564322964124,3,2.74,1.45,0.78,2.29,2.0,0.97,-1.32,0.32,33,-2,37,1.63,9832,34,80,34,41,1087,476.0,355,462,60,130.0,170,1,335,223,81,0,0,573,1779,8488,473,-5.59,,,,,,,,,,,,
28484,1564322964144,2,2.73,1.44,0.78,2.3,2.0,0.92,-1.35,0.43,33,-2,37,1.64,9910,34,80,34,41,1077,474.0,338,462,60,129.0,170,1,335,224,81,0,0,568,3635,8488,474,-5.59,,,,,,,,,,,,
28504,1564322964164,4,2.73,1.44,0.78,2.29,2.01,0.88,-1.28,0.39,33,-2,39,1.55,9925,34,80,34,41,1067,473.0,330,466,60,130.0,170,1,335,224,81,0,0,588,13180,32033,473,-5.59,,,,,,,,,,,,
28524,1564322964184,2,2.71,1.45,0.77,2.3,2.0,0.86,-1.29,0.54,34,-1,40,1.55,9920,34,80,34,41,1064,472.0,326,462,60,129.0,177,1,335,224,84,0,0,587,13180,8488,472,-5.59,,,,,,,,,,,,
28544,1564322964203,0,2.69,1.44,0.78,2.29,2.0,0.8,-1.28,0.58,35,-0,41,1.52,9931,34,80,34,41,1064,474.0,322,463,60,129.0,177,1,335,224,84,0,0,592,31796,16648,474,-5.59,44.680527,10.016791,45.59,177.9,0,0.0,-1,0.0,0.0,0,0.33,0.4757
28564,1564322964223,2,2.7,1.45,0.78,2.3,2.0,0.81,-1.22,0.47,35,0,41,1.47,10021,34,80,34,41,1064,473.0,316,466,60,130.0,177,1,335,225,84,0,0,596,13180,10305,474,-5.59,,,,,,,,,,,,
28584,1564322964243,1,2.7,1.44,0.78,2.3,2.0,0.81,-1.25,0.59,36,0,42,1.49,10037,34,80,34,41,1063,473.0,317,464,60,129.0,177,1,335,225,84,0,0,598,13552,2212,473,-5.59,,,,,,,,,,,,
28604,1564322964263,1,2.69,1.45,0.78,2.3,2.01,0.8,-1.28,0.68,36,1,42,1.51,10113,34,80,34,41,1062,475.0,310,462,60,129.0,177,1,335,225,84,0,0,607,31796,10432,475,-5.59,,,,,,,,,,,,
28624,1564322964283,-1,2.7,1.44,0.78,2.29,2.02,0.8,-1.27,0.62,36,0,43,1.5,10129,34,80,34,41,1061,472.0,303,468,60,129.0,182,1,335,225,86,0,0,606,-4082,-9203,471,-5.59,,,,,,,,,,,,
28644,1564322964305,-1,2.68,1.45,0.78,2.29,2.0,0.84,-1.24,0.55,37,-0,43,1.5,10118,34,80,34,41,1058,471.0,312,463,60,130.0,182,1,335,225,86,0,0,606,3826,10432,471,-5.59,44.680515,10.016788,44.77,177.9,0,0.0,-1,0.0,0.0,0,0.33,0.4774
28664,1564322964325,3,2.68,1.45,0.78,2.3,2.01,0.89,-1.25,0.65,36,-0,44,1.54,10184,34,80,34,41,1053,468.0,323,459,60,129.0,182,1,335,225,86,0,0,624,3826,8488,468,-5.59,,,,,,,,,,,,
28684,1564322964345,2,2.68,1.45,0.78,2.3,2.01,0.89,-1.33,0.67,36,-1,44,1.6,10157,34,80,34,41,1048,468.0,321,462,60,129.0,182,1,335,225,86,0,0,626,-8165,-1923,468,-5.59,,,,,,,,,,,,
28704,1564322964365,0,2.68,1.44,0.78,2.29,2.02,0.86,-1.35,0.55,36,-1,45,1.6,10184,34,80,34,41,1044,466.0,320,463,60,130.0,182,1,335,225,86,0,0,628,-3414,32033,466,-5.59,,,,,,,,,,,,
28724,1564322964385,2,2.67,1.45,0.78,2.3,2.01,0.86,-1.33,0.43,36,-1,45,1.58,10257,34,80,34,42,1038,465.0,318,466,60,130.0,188,1,342,229,88,0,0,630,-8165,12552,466,-5.59,,,,,,,,,,,,
28744,1564322964405,3,2.64,1.45,0.78,2.3,2.01,0.84,-1.31,0.3,36,-2,46,1.56,10234,34,80,34,41,1030,466.0,317,462,60,130.0,188,1,335,225,88,0,0,629,7154,243,466,-5.59,44.680508,10.016786,44.95,177.9,0,0.0,-1,0.0,0.0,0,0.34,0.4791
28764,1564322964425,4,2.62,1.44,0.78,2.29,2.02,0.84,-1.33,0.36,36,-1,46,1.58,10313,34,80,34,42,1023,465.0,321,466,60,130.0,188,1,342,229,88,0,0,634,-21944,2211,465,-5.59,,,,,,,,,,,,
28784,1564322964445,1,2.6,1.45,0.78,2.3,2.01,0.83,-1.37,0.49,36,-1,46,1.6,10285,35,80,34,42,1019,467.0,324,467,60,129.0,188,1,342,229,88,0,0,635,-3414,12552,467,181.28,,,,,,,,,,,,
28804,1564322964465,3,2.54,1.45,0.78,2.3,2.01,0.9,-1.41,0.62,36,-1,46,1.67,10341,35,80,34,42,1016,467.0,328,461,60,129.0,188,1,342,229,88,0,0,643,-21944,-16384,467,181.28,,,,,,,,,,,,
28824,1564322964485,1,2.49,1.45,0.78,2.29,2.01,0.9,-1.46,0.69,36,-0,46,1.72,10330,35,80,34,42,1015,468.0,330,462,60,129.0,190,1,342,229,89,0,0,641,-21944,8488,470,414.87,,,,,,,,,,,,
28844,1564322964503,-0,2.44,1.45,0.78,2.3,2.01,0.87,-1.46,0.61,35,0,47,1.7,10353,35,80,34,42,1015,470.0,328,463,60,130.0,190,1,342,229,89,0,0,642,-3414,30272,470,-5.59,44.680496,10.016781,44.72,177.8,0,0.0,-1,0.0,0.0,0,0.34,0.4807
28864,1564322964523,1,2.36,1.44,0.78,2.28,2.01,0.83,-1.41,0.55,33,0,47,1.64,10439,35,80,34,42,1017,465.0,342,466,60,129.0,190,1,342,229,89,0,0,643,-3414,-3210,465,-5.59,,,,,,,,,,,,
28884,1564322964543,0,2.32,1.44,0.78,2.29,2.01,0.75,-1.28,0.5,29,1,48,1.48,10410,35,80,34,42,1020,462.0,340,466,60,130.0,190,1,342,229,89,0,0,654,-21792,16408,462,-5.59,,,,,,,,,,,,
28904,1564322964563,1,2.25,1.43,0.78,2.28,2.01,0.72,-1.12,0.47,25,1,47,1.34,10451,35,80,34,42,1022,456.0,336,461,60,130.0,190,1,342,229,89,0,0,654,31796,-23623,456,-5.59,,,,,,,,,,,,
28924,1564322964583,2,2.2,1.43,0.77,2.28,2.0,0.7,-0.96,0.57,22,3,45,1.19,10382,35,80,34,42,1023,449.0,343,466,60,130.0,198,1,342,229,90,0,0,548,26704,17628,448,-5.59,,,,,,,,,,,,
28944,1564322964601,2,2.15,1.43,0.77,2.28,1.99,0.75,-0.72,0.7,17,2,42,1.04,10032,35,80,34,42,1022,453.0,338,466,60,130.0,198,1,342,229,90,0,0,465,-8985,-22519,449,-5.59,44.680489,10.016774,43.79,177.8,0,0.0,-1,0.0,0.0,0,0.34,0.4824
28964,1564322964621,2,2.11,1.42,0.76,2.25,1.98,0.81,-0.69,0.79,13,3,37,1.07,9389,35,80,34,42,1022,461.0,327,463,60,129.0,198,1,341,222,90,0,0,495,2211,-30064,452,181.28,,,,,,,,,,,,
28984,1564322964641,-1,2.05,1.4,0.74,2.22,1.95,0.86,-0.67,0.79,9,4,31,1.09,8806,35,80,34,43,1021,471.0,327,461,60,130.0,198,1,345,222,90,0,0,490,32033,248,453,-5.59,,,,,,,,,,,,
29004,1564322964661,3,2.02,1.38,0.71,2.18,1.92,0.8,-0.48,0.8,7,2,27,0.93,8270,36,80,34,45,1020,478.0,327,461,60,130.0,198,1,356,221,90,0,0,488,16648,-16384,451,-5.59,,,,,,,,,,,,
29024,1564322964681,-1,1.97,1.35,0.67,2.13,1.89,0.79,-0.36,0.77,5,-1,22,0.87,8009,36,80,34,47,1019,477.0,322,460,60,129.0,148,1,370,221,67,0,0,480,-1923,-18108,450,-5.59,,,,,,,,,,,,
29044,1564322964701,1,1.93,1.35,0.66,2.09,1.87,0.91,-0.24,0.77,1,-4,18,0.95,8019,36,80,34,49,1018,472.0,332,465,60,130.0,148,1,375,235,67,0,0,474,-1923,-26615,449,-5.59,44.680477,10.016767,44.34,177.8,0,0.0,-1,0.0,0.0,0,0.34,0.4841
29064,1564322964721,3,1.91,1.35,0.65,2.1,1.86,0.78,-0.05,0.66,-1,-3,15,0.78,8106,36,80,34,50,1016,471.0,342,464,60,131.0,148,1,378,243,67,0,0,475,32033,-3267,448,-5.59,,,,,,,,,,,,
29084,1564322964741,0,1.9,1.35,0.66,2.09,1.86,0.88,-0.02,0.63,-5,-6,10,0.88,8155,36,80,34,50,1013,475.0,352,461,60,130.0,148,1,378,244,67,0,0,480,-17956,3571,445,-5.59,,,,,,,,,,,,
29104,1564322964761,2,1.92,1.36,0.65,2.1,1.87,0.76,0.17,0.6,-7,-5,6,0.77,8259,36,80,34,51,1011,477.0,351,464,60,131.0,148,1,381,252,67,0,0,481,2212,2131,446,-5.59,,,,,,,,,,,,
29124,1564322964781,2,1.93,1.36,0.66,2.1,1.87,0.88,0.17,0.65,-11,-6,0,0.9,8351,37,80,34,51,1008,479.0,356,462,60,129.0,180,1,381,247,80,0,0,482,10305,-9160,446,-5.59,,,,,,,,,,,,
29144,1564322964801,-0,1.94,1.36,0.66,2.1,1.86,0.82,0.22,0.55,-15,-5,-4,0.84,8491,37,80,34,50,1025,485.0,356,466,60,131.0,180,1,378,248,80,0,0,482,505,17628,441,-5.59,44.68047,10.016759,46.36,177.8,0,0.0,-1,0.0,0.0,0,0.34,0.4857
29164,1564322964821,4,1.97,1.36,0.65,2.1,1.87,0.72,0.4,0.53,-16,-3,-8,0.83,8565,37,80,34,50,1042,489.0,371,465,60,130.0,180,1,379,250,80,0,0,483,-6656,-6387,440,-5.59,,,,,,,,,,,,
