"Interval"|"ms"|0|0|1,"Utc"|"ms"|0|0|1,"FB_p"|"bar"|0|300|50,"Volant"|"F"|0.0|300.0|50,"xFR"|"mm"|0.0|5.0|50,"xRR"|"mm"|0.0|5.0|50,"xFL"|"mm"|0.0|5.0|50,"xRL"|"mm"|0.0|5.0|50,"AccelX"|"G"|-3.0|3.0|50,"AccelY"|"G"|-3.0|3.0|50,"AccelZ"|"G"|-3.0|3.0|50,"Yaw"|"Deg/Sec"|-120|120|50,"Pitch"|"Deg/Sec"|-120|120|50,"Roll"|"Deg/Sec"|-120|120|50,"Gsum"|"G"|0.0|3.0|50,"RPM"|""|0|14000|50,"TPS"|"%"|0|100|50,"WaterTemp"|"?C"|0|300|50,"AirTemp"|"?C"|-1000|1000|50,"MAP"|"KPa"|0|255|50,"Lambda"|""|0|1024|50,"WheelSpeed"|"MPH"|0.0|150.0|50,"OilPress"|"PSI"|0|150|50,"FuelPress"|"PSI"|0|150|50,"OilTemp"|"F"|0|300|50,"Battery"|"Volts"|0.0|20.0|50,"FuelCon"|"L/h"|-1000|1000|50,"Gear"|""|0|10|50,"Advance"|"Deg"|-360|360|50,"Injection"|"ms"|-1000|1000|50,"FuelCon"|"L/100km"|-1000|1000|50,"LC_But_Pres"|""|-1000|1000|50,"LC_Active"|""|-1000|1000|50,"RD_Speed"|""|-1000|1000|50,"RUD_Speed"|""|-1000|1000|50,"LD_Speed"|""|-1000|1000|50,"LUD_Speed"|""|-1000|1000|50,"Ana1"|"bar"|-1000.0|1000.0|50,"Latitude"|"Degrees"|-180.0|180.0|10,"Longitude"|"Degrees"|-180.0|180.0|10,"Speed"|"kph"|0.0|150.0|10,"Altitude"|"m"|0.0|4000.0|10,"LapCount"|""|0|0|10,"LapTime"|"Min"|0.0|0.0|10,"Sector"|""|0|0|10,"SectorTime"|"Min"|0.0|0.0|10,"ElapsedTime"|"Min"|0.0|0.0|10,"CurrentLap"|""|0|0|10,"Distance"|"km"|0.0|0.0|10,"SessionTime"|"Min"|0.0|0.0|10
12864,1564323008501,14,2.32,1.4,0.73,2.17,1.95,1.08,-0.33,0.41,5,-5,7,1.13,9417,0,80,31,28,875,752.0,653,460,60,129.0,89,1,282,191,68,0,0,655,-30694,3462,752,-5.59,,,,,,,,,,,,
12884,1564323008521,12,2.32,1.4,0.74,2.16,1.94,1.1,-0.31,0.41,5,-5,7,1.14,9436,0,80,31,27,891,748.0,648,462,60,129.0,89,1,278,191,68,0,0,643,-2356,-2314,748,-5.59,,,,,,,,,,,,
12904,1564323008541,15,2.33,1.4,0.74,2.16,1.96,1.12,-0.23,0.29,4,-4,7,1.14,9403,0,80,31,27,887,743.0,646,467,60,130.0,89,1,278,190,68,0,0,649,3462,-3344,740,-5.59,,,,,,,,,,,,
12924,1564323008561,10,2.31,1.4,0.73,2.16,1.94,1.14,-0.21,0.25,4,-4,8,1.16,9337,0,80,31,26,882,739.0,645,463,60,130.0,89,1,274,188,68,0,0,654,-2826,-23490,736,-5.59,,,,,,,,,,,,
12944,1564323008581,10,2.32,1.4,0.73,2.17,1.94,1.05,-0.23,0.23,4,-2,7,1.07,9254,0,80,31,26,865,733.0,643,462,60,129.0,89,1,274,188,66,0,0,686,-4091,6658,733,-5.59,44.681332,10.018681,76.37,176.5,0,0.0,-1,0.0,0.0,0,0.09,0.2157
12964,1564323008601,10,2.32,1.4,0.73,2.16,1.94,1.07,-0.27,0.31,4,-3,7,1.11,9272,0,80,31,25,845,725.0,641,463,60,129.0,89,1,270,188,66,0,0,682,-2830,24845,726,-5.59,,,,,,,,,,,,
12984,1564323008621,9,2.33,1.4,0.73,2.16,1.94,1.17,-0.24,0.29,4,-3,7,1.19,9295,0,80,31,25,812,722.0,642,459,60,128.0,89,1,270,188,66,0,0,680,-3450,-10448,720,-5.59,,,,,,,,,,,,
13004,1564323008641,6,2.35,1.4,0.73,2.16,1.94,1.17,-0.19,0.15,4,-3,6,1.19,9305,0,80,31,24,778,720.0,643,467,60,129.0,89,1,270,188,66,0,0,684,-13312,12333,721,-5.59,,,,,,,,,,,,
13024,1564323008661,4,2.36,1.4,0.73,2.15,1.94,1.11,-0.15,0.15,5,-3,7,1.12,9333,0,80,31,24,758,718.0,648,463,60,128.0,89,1,270,181,66,0,0,684,-30694,24,717,-5.59,,,,,,,,,,,,
13044,1564323008681,4,2.36,1.4,0.73,2.15,1.95,1.08,-0.24,0.23,6,-2,7,1.11,9323,0,80,31,24,745,715.0,651,464,60,128.0,88,1,270,181,63,0,0,672,687,-2830,713,-5.59,44.681335,10.018655,73.81,176.5,0,0.0,-1,0.0,0.0,0,0.1,0.2174
13064,1564323008701,4,2.35,1.4,0.73,2.15,1.94,1.02,-0.31,0.29,6,-1,6,1.07,9291,0,80,31,24,734,709.0,648,462,60,128.0,88,1,270,181,63,0,0,663,11069,24,709,-5.59,,,,,,,,,,,,
13084,1564323008721,3,2.35,1.4,0.73,2.16,1.95,1.07,-0.29,0.2,7,0,7,1.11,9241,0,80,31,23,724,710.0,645,466,60,129.0,88,1,270,176,63,0,0,667,16599,-10448,710,-5.59,,,,,,,,,,,,
13104,1564323008741,3,2.35,1.4,0.74,2.15,1.95,1.12,-0.24,0.06,7,-1,6,1.15,9200,0,80,31,23,724,704.0,646,457,60,129.0,88,1,270,176,63,0,0,677,-10448,-2830,704,-5.59,,,,,,,,,,,,
13124,1564323008761,5,2.34,1.4,0.74,2.17,1.95,1.1,-0.21,0.0,8,-1,7,1.12,9204,0,80,31,23,728,704.0,643,464,60,129.0,88,1,270,176,63,0,0,666,24,3543,701,-5.59,,,,,,,,,,,,
13144,1564323008781,5,2.36,1.4,0.74,2.16,1.95,1.12,-0.22,0.01,8,-2,8,1.15,9209,0,80,31,22,738,697.0,641,466,60,129.0,87,1,270,170,61,0,0,661,16599,-2345,697,181.28,44.681335,10.01863,71.24,176.6,0,0.0,-1,0.0,0.0,0,0.1,0.2191
13164,1564323008801,-0,2.36,1.4,0.73,2.17,1.95,1.0,-0.23,0.12,8,-0,9,1.03,9182,0,80,31,22,750,694.0,643,463,60,129.0,87,1,270,170,61,0,0,661,-10399,16599,694,181.28,,,,,,,,,,,,
13184,1564323008821,4,2.35,1.4,0.73,2.17,1.95,0.96,-0.28,0.29,9,0,9,1.0,9062,0,80,31,22,760,690.0,641,460,60,128.0,87,1,270,170,61,0,0,652,-26562,-26380,695,-5.59,,,,,,,,,,,,
13204,1564323008841,2,2.36,1.4,0.74,2.16,1.95,0.89,-0.32,0.41,9,2,9,0.95,8971,0,80,31,22,768,688.0,645,466,60,129.0,87,1,270,170,61,0,0,654,-2826,-10344,688,-5.59,,,,,,,,,,,,
13224,1564323008861,3,2.36,1.41,0.73,2.17,1.95,0.86,-0.38,0.56,9,3,9,0.94,8907,0,80,31,22,781,686.0,642,461,60,128.0,87,1,270,170,61,0,0,643,-3038,24845,684,-5.59,,,,,,,,,,,,
13244,1564323008881,7,2.36,1.41,0.73,2.17,1.95,0.83,-0.41,0.62,8,4,10,0.93,8898,0,80,31,22,800,681.0,643,463,60,129.0,83,1,270,170,57,0,0,632,8958,8958,683,-5.59,44.681339,10.018605,69.26,176.6,0,0.0,-1,0.0,0.0,0,0.1,0.2207
13264,1564323008905,6,2.35,1.41,0.73,2.17,1.96,0.85,-0.39,0.73,9,2,10,0.93,8786,0,80,31,22,815,678.0,641,463,60,128.0,83,1,270,170,57,0,0,631,-3578,-26380,678,414.87,,,,,,,,,,,,
13284,1564323008925,6,2.36,1.4,0.73,2.16,1.96,0.84,-0.39,0.74,9,3,10,0.92,8757,0,80,31,22,825,676.0,640,466,60,129.0,83,1,270,170,57,0,0,627,-2826,-3038,676,414.87,,,,,,,,,,,,
13304,1564323008945,4,2.37,1.4,0.74,2.16,1.95,0.93,-0.36,0.62,9,1,11,0.99,8696,0,80,31,23,841,672.0,639,463,60,129.0,83,1,270,176,57,0,0,617,8958,-2345,672,181.28,,,,,,,,,,,,
13324,1564323008965,5,2.37,1.4,0.74,2.17,1.94,0.92,-0.39,0.48,9,0,11,1.0,8628,0,80,31,23,862,670.0,639,463,60,128.0,83,1,270,176,57,0,0,606,31988,-3038,671,-5.59,,,,,,,,,,,,
13344,1564323008985,9,2.37,1.4,0.73,2.16,1.96,0.89,-0.42,0.44,10,0,11,0.99,8534,0,80,31,24,881,670.0,636,465,60,129.0,85,1,270,181,57,0,0,591,-2830,-26380,667,-5.59,44.681339,10.018581,67.7,176.6,0,0.0,-1,0.0,0.0,0,0.1,0.2224
13364,1564323009005,5,2.38,1.41,0.73,2.17,1.95,0.98,-0.41,0.47,10,-0,13,1.07,8434,0,80,31,24,892,669.0,631,459,60,129.0,85,1,270,179,57,0,0,592,-8429,2024,664,-5.59,,,,,,,,,,,,
13384,1564323009016,4,2.38,1.41,0.73,2.17,1.95,0.97,-0.44,0.4,10,0,13,1.06,8344,0,80,31,24,906,663.0,632,465,60,129.0,85,1,270,174,57,0,0,588,11776,479,663,-5.59,,,,,,,,,,,,
13404,1564323009036,7,2.38,1.41,0.73,2.17,1.95,1.04,-0.5,0.41,11,-0,13,1.15,8325,0,80,31,24,925,657.0,631,463,60,129.0,85,1,270,173,57,0,0,574,6208,24583,657,-5.59,,,,,,,,,,,,
13424,1564323009056,2,2.4,1.4,0.74,2.17,1.95,0.99,-0.51,0.37,11,-1,14,1.12,8274,0,80,31,24,941,653.0,630,466,60,128.0,85,1,270,170,57,0,0,560,-2580,-3584,653,-5.59,,,,,,,,,,,,
13444,1564323009076,6,2.39,1.41,0.73,2.17,1.95,0.98,-0.53,0.4,12,-1,13,1.12,8152,0,80,31,25,948,653.0,627,462,60,129.0,77,1,270,168,51,0,0,539,3,-5120,653,-5.59,44.681343,10.018559,66.37,176.7,0,0.0,-1,0.0,0.0,0,0.1,0.2241
13464,1564323009104,7,2.39,1.41,0.73,2.17,1.96,0.89,-0.57,0.32,12,1,16,1.06,7961,0,80,31,25,957,652.0,628,465,60,128.0,77,1,269,80,51,0,0,520,966,24,652,-5.59,,,,,,,,,,,,
13484,1564323009124,4,2.39,1.41,0.73,2.17,1.96,0.91,-0.57,0.36,12,2,15,1.07,7796,0,80,31,24,971,648.0,622,463,60,130.0,77,1,267,159,51,0,0,497,-16046,4909,648,-5.59,,,,,,,,,,,,
13504,1564323009144,5,2.38,1.41,0.73,2.18,1.95,0.94,-0.58,0.39,13,2,14,1.1,7578,0,80,31,25,983,643.0,616,462,60,128.0,77,1,265,159,51,0,0,491,20993,244,643,-5.59,,,,,,,,,,,,
13524,1564323009164,4,2.39,1.41,0.73,2.18,1.96,1.05,-0.72,0.3,12,-1,15,1.27,7476,0,80,31,24,989,643.0,612,462,60,129.0,77,1,264,159,51,0,0,467,19320,19621,643,-5.59,,,,,,,,,,,,
13544,1564323009184,5,2.39,1.41,0.73,2.18,1.95,1.11,-0.71,0.33,11,-2,16,1.32,7408,0,80,31,25,994,635.0,612,463,60,128.0,69,1,264,159,44,0,0,1728,3403,-28304,635,-5.59,44.681343,10.018537,64.68,176.7,0,0.0,-1,0.0,0.0,0,0.11,0.2257
13564,1564323009204,4,2.4,1.41,0.73,2.18,1.95,1.19,-0.74,0.3,11,-4,17,1.4,7591,0,80,31,24,997,634.0,615,461,60,129.0,69,1,265,156,44,0,0,1728,1010,-1894,634,-5.59,,,,,,,,,,,,
13584,1564323009224,5,2.39,1.41,0.73,2.18,1.95,1.26,-0.68,0.33,11,-6,19,1.44,7662,0,80,31,25,1000,628.0,615,463,60,130.0,69,1,266,159,44,0,0,1728,-23055,-3210,629,-5.59,,,,,,,,,,,,
13604,1564323009244,5,2.39,1.41,0.74,2.16,1.96,1.29,-0.71,0.36,12,-6,20,1.47,7628,0,80,31,25,997,624.0,617,461,60,130.0,69,1,266,156,44,0,0,1728,19621,-7939,626,-5.59,,,,,,,,,,,,
13624,1564323009264,5,2.38,1.41,0.73,2.17,1.96,1.33,-0.7,0.32,13,-5,19,1.5,7554,0,80,31,25,994,625.0,617,461,60,131.0,69,1,265,156,44,0,0,1728,-3210,-30139,625,-5.59,,,,,,,,,,,,
13644,1564323009284,6,2.38,1.41,0.73,2.18,1.95,1.37,-0.77,0.31,14,-5,17,1.57,7443,0,80,31,24,992,620.0,618,463,60,131.0,72,1,264,159,45,0,0,23,23619,-28304,620,-5.59,44.681347,10.018514,63.05,176.7,0,0.0,-1,0.0,0.0,0,0.11,0.2274
13664,1564323009304,3,2.38,1.41,0.73,2.16,1.96,1.37,-0.81,0.32,14,-4,20,1.6,7256,0,80,31,25,991,621.0,613,462,60,131.0,72,1,262,159,45,0,0,116,17344,-28304,619,-5.59,,,,,,,,,,,,
13684,1564323009324,7,2.39,1.41,0.73,2.17,1.96,1.43,-0.81,0.31,14,-5,21,1.64,7113,0,80,32,25,992,615.0,606,463,60,130.0,72,1,261,159,45,0,0,104,-32504,26688,614,-5.59,,,,,,,,,,,,
13704,1564323009344,5,2.39,1.4,0.73,2.17,1.96,1.32,-0.78,0.22,14,-3,18,1.53,6939,0,80,32,25,994,610.0,601,465,60,129.0,72,1,261,159,45,0,0,104,-32504,19621,611,181.28,,,,,,,,,,,,
13724,1564323009364,5,2.38,1.41,0.74,2.18,1.95,1.27,-0.79,0.27,14,-3,18,1.5,6808,0,80,32,25,1003,610.0,598,459,60,130.0,72,1,262,159,45,0,0,100,208,-23055,610,-5.59,,,,,,,,,,,,
13744,1564323009384,5,2.39,1.42,0.74,2.18,1.96,1.29,-0.82,0.18,13,-4,18,1.53,6634,0,80,32,26,1012,606.0,585,465,60,129.0,65,1,267,160,40,0,0,97,-1894,23619,608,414.87,44.681351,10.018493,61.25,176.7,0,0.0,-1,0.0,0.0,0,0.11,0.2291
13764,1564323009404,8,2.38,1.41,0.75,2.17,1.97,1.26,-0.82,0.25,14,-4,20,1.5,6478,0,80,32,27,1020,602.0,577,464,60,130.0,65,1,272,161,40,0,0,97,-4035,17344,602,181.28,,,,,,,,,,,,
13784,1564323009424,8,2.38,1.41,0.74,2.18,1.95,1.15,-0.76,0.26,13,-1,20,1.38,6328,0,80,32,27,1028,597.0,566,462,60,131.0,65,1,273,161,40,0,0,83,8488,30227,597,414.87,,,,,,,,,,,,
13804,1564323009444,3,2.38,1.41,0.74,2.17,1.96,1.19,-0.72,0.2,13,-1,21,1.39,6177,0,80,32,28,1009,596.0,556,461,60,131.0,65,1,278,163,40,0,0,73,-16384,23619,597,414.87,,,,,,,,,,,,
13824,1564323009464,4,2.39,1.41,0.73,2.18,1.96,1.27,-0.68,0.16,12,-1,21,1.44,6064,0,80,32,29,987,597.0,544,464,60,130.0,65,1,281,164,40,0,0,73,-3210,-16179,597,-5.59,,,,,,,,,,,,
13844,1564323009484,7,2.39,1.41,0.73,2.17,1.97,1.34,-0.65,0.13,12,-2,21,1.5,5899,0,80,32,30,960,592.0,539,465,60,131.0,62,1,278,164,37,0,0,80,774,-1894,593,-5.59,44.681358,10.018473,59.77,176.7,0,0.0,-1,0.0,0.0,0,0.11,0.2307
13864,1564323009502,7,2.38,1.42,0.74,2.18,1.96,1.34,-0.58,0.14,11,-0,21,1.46,5735,0,80,32,30,931,590.0,526,463,60,130.0,62,1,271,85,37,0,0,99,1267,10432,590,-5.59,,,,,,,,,,,,
13884,1564323009522,6,2.38,1.41,0.74,2.17,1.97,1.18,-0.54,0.21,12,3,21,1.3,5590,0,80,32,32,882,586.0,511,462,60,131.0,62,1,269,164,37,0,0,99,-29984,-3210,586,-5.59,,,,,,,,,,,,
13904,1564323009542,4,2.38,1.41,0.74,2.18,1.97,1.16,-0.6,0.14,12,2,21,1.31,5479,0,80,32,33,828,585.0,493,461,60,130.0,62,1,266,169,37,0,0,102,-30159,12552,585,-5.59,,,,,,,,,,,,
13924,1564323009562,9,2.37,1.41,0.74,2.18,1.96,1.21,-0.6,0.17,11,-0,21,1.35,5539,0,80,32,34,793,578.0,488,460,60,131.0,62,1,270,176,37,0,0,89,2211,-9072,578,-5.59,,,,,,,,,,,,
13944,1564323009582,9,2.36,1.41,0.74,2.17,1.97,1.13,-0.56,0.16,11,1,20,1.26,5652,0,80,32,35,768,572.0,493,461,60,129.0,64,1,279,182,37,0,0,89,-22263,2104,572,-5.59,44.681362,10.018454,58.54,176.7,0,0.0,-1,0.0,0.0,0,0.11,0.2324
13964,1564323009595,8,2.35,1.41,0.74,2.17,1.96,1.05,-0.61,0.17,10,3,20,1.21,5622,0,80,32,36,757,569.0,490,465,60,129.0,64,1,280,188,37,0,0,89,-22359,-22263,569,-5.59,,,,,,,,,,,,
13984,1564323009615,6,2.36,1.41,0.74,2.17,1.97,1.14,-0.58,0.13,10,1,19,1.28,5568,0,80,32,36,750,567.0,488,463,60,131.0,64,1,277,187,37,0,0,89,2524,-29984,567,-5.59,,,,,,,,,,,,
14004,1564323009635,9,2.36,1.41,0.74,2.18,1.96,1.18,-0.51,0.14,11,0,17,1.28,5436,0,80,32,37,754,561.0,486,458,60,131.0,64,1,271,192,37,0,0,89,-32248,2211,561,-5.59,,,,,,,,,,,,
14024,1564323009655,8,2.36,1.41,0.74,2.18,1.96,1.1,-0.54,0.08,11,0,17,1.22,5286,0,80,32,38,773,560.0,477,465,60,129.0,64,1,265,197,37,0,0,89,-8962,-28648,559,181.28,,,,,,,,,,,,
14044,1564323009675,11,2.34,1.41,0.74,2.18,1.96,1.15,-0.49,0.06,10,0,17,1.25,5162,0,80,32,39,796,556.0,470,460,60,131.0,71,1,259,125,40,0,0,89,-506,2524,556,-5.59,44.681366,10.018435,57.39,176.7,0,0.0,-1,0.0,0.0,0,0.11,0.2341
14064,1564323009694,9,2.32,1.41,0.74,2.17,1.97,1.14,-0.51,0.06,10,0,16,1.25,5074,0,80,32,40,821,550.0,460,462,60,130.0,71,1,256,204,40,0,0,89,1780,-8962,550,414.87,,,,,,,,,,,,
14084,1564323009714,9,2.31,1.41,0.74,2.18,1.96,1.07,-0.47,0.11,9,3,16,1.17,4969,0,80,32,41,836,548.0,450,461,60,130.0,71,1,251,207,40,0,0,17,-30064,-506,544,-5.59,,,,,,,,,,,,
14104,1564323009734,10,2.31,1.41,0.74,2.18,1.96,1.17,-0.44,0.13,8,0,15,1.25,4927,0,80,32,43,842,539.0,445,462,60,131.0,71,1,252,206,40,0,0,17,6274,-22519,538,-5.59,,,,,,,,,,,,
14124,1564323009754,13,2.28,1.41,0.74,2.18,1.96,1.13,-0.41,0.06,7,1,14,1.2,4943,0,80,32,44,846,533.0,440,465,60,130.0,71,1,256,210,40,0,0,17,-22519,2524,533,414.87,,,,,,,,,,,,
14144,1564323009774,8,2.28,1.41,0.74,2.17,1.96,1.05,-0.38,0.06,6,3,13,1.12,4918,0,80,32,44,844,530.0,437,464,60,129.0,71,1,253,210,38,0,0,17,2524,2524,530,-5.59,44.681374,10.018417,55.54,176.7,0,0.0,-1,0.0,0.0,0,0.12,0.2357
14164,1564323009794,8,2.28,1.41,0.73,2.17,1.95,1.08,-0.28,0.13,4,2,11,1.12,4885,0,80,32,45,840,528.0,433,460,60,131.0,71,1,252,210,38,0,0,17,-28648,-3482,524,-5.59,,,,,,,,,,,,
14184,1564323009810,8,2.28,1.4,0.74,2.17,1.95,1.11,-0.24,0.03,3,1,10,1.14,4873,0,80,32,45,831,524.0,428,458,60,131.0,71,1,251,210,38,0,0,17,2088,15661,519,-5.59,,,,,,,,,,,,
14204,1564323009830,9,2.27,1.4,0.73,2.16,1.94,1.1,-0.21,-0.04,2,2,8,1.12,4846,0,80,32,46,824,522.0,423,463,60,131.0,71,1,250,211,38,0,0,17,10408,-6656,513,-5.59,,,,,,,,,,,,
14224,1564323009850,4,2.27,1.4,0.72,2.16,1.94,1.08,-0.18,0.04,1,2,6,1.1,4916,0,80,32,46,817,519.0,427,464,60,129.0,71,1,258,136,38,0,0,17,-8187,32033,507,-5.59,,,,,,,,,,,,
14244,1564323009870,1,2.25,1.4,0.73,2.16,1.94,1.12,-0.13,0.1,-0,1,3,1.13,5041,0,80,32,46,811,519.0,429,457,60,131.0,79,1,270,216,40,0,0,17,16383,15649,504,-5.59,44.681381,10.0184,53.76,176.8,0,0.0,-1,0.0,0.0,0,0.12,0.2374
14264,1564323009898,1,2.23,1.39,0.73,2.15,1.94,1.1,-0.08,-0.01,-2,1,2,1.1,5146,0,80,32,47,812,517.0,436,462,60,130.0,79,1,283,218,40,0,0,77,15679,-28332,500,-5.59,,,,,,,,,,,,
14284,1564323009918,-0,2.23,1.39,0.71,2.15,1.94,1.12,0.02,0.08,-3,1,0,1.12,5313,0,80,32,47,808,511.0,447,462,60,129.0,79,1,298,218,40,0,0,125,-3856,-21944,498,-5.59,,,,,,,,,,,,
14304,1564323009938,-0,2.2,1.39,0.72,2.15,1.93,1.01,0.09,-0.09,-5,4,-1,1.02,5439,0,80,32,47,798,511.0,460,461,60,129.0,79,1,309,218,40,0,0,230,-3856,-6644,487,-5.59,,,,,,,,,,,,
14324,1564323009958,2,2.18,1.38,0.72,2.15,1.93,1.12,0.07,-0.03,-7,1,-3,1.12,5595,0,80,32,46,787,510.0,465,459,60,131.0,79,1,318,216,40,0,0,364,-4054,125,482,-5.59,,,,,,,,,,,,
14344,1564323009978,2,2.19,1.38,0.72,2.14,1.94,1.11,0.23,0.08,-10,2,-5,1.14,5772,0,80,32,45,776,507.0,480,459,60,131.0,96,1,328,215,46,0,0,412,-21872,23040,474,-5.59,44.681385,10.018384,51.62,176.7,0,0.0,-1,0.0,0.0,0,0.12,0.2391
14364,1564323009991,1,2.18,1.39,0.7,2.14,1.93,1.07,0.41,0.06,-12,4,-7,1.14,5984,0,80,32,44,768,503.0,500,461,60,130.0,96,1,339,213,46,0,0,448,2109,-32256,471,-5.59,,,,,,,,,,,,
14384,1564323010011,3,2.17,1.38,0.71,2.13,1.92,0.98,0.54,-0.01,-14,6,-9,1.12,6194,0,80,32,42,767,498.0,520,462,60,130.0,96,1,329,211,46,0,0,473,2524,28160,466,-5.59,,,,,,,,,,,,
14404,1564323010031,-0,2.18,1.38,0.7,2.12,1.92,0.98,0.59,-0.03,-16,5,-10,1.15,6430,0,80,32,41,767,494.0,536,461,60,130.0,96,1,323,211,46,0,0,457,-9216,1886,463,-5.59,,,,,,,,,,,,
14424,1564323010051,2,2.17,1.37,0.7,2.12,1.92,1.03,0.54,0.05,-17,3,-13,1.16,6646,0,80,32,39,776,493.0,552,460,60,129.0,96,1,310,130,46,0,0,458,771,10818,460,-5.59,,,,,,,,,,,,
14444,1564323010071,-1,2.18,1.37,0.7,2.11,1.93,1.04,0.64,0.11,-18,4,-16,1.22,6759,0,80,32,37,787,494.0,573,460,60,131.0,111,1,304,196,51,0,0,459,998,10318,457,-5.59,44.681389,10.018369,49.66,176.7,0,0.0,-1,0.0,0.0,0,0.12,0.2407
14464,1564323010097,3,2.16,1.38,0.71,2.12,1.92,1.12,0.63,0.18,-20,2,-16,1.28,6791,0,80,32,36,803,491.0,583,463,60,130.0,111,1,301,190,51,0,0,479,248,-1,451,-5.59,,,,,,,,,,,,
14484,1564323010117,-1,2.17,1.37,0.71,2.11,1.93,1.02,0.73,0.15,-21,4,-18,1.25,6776,0,80,32,35,819,488.0,590,462,60,130.0,111,1,298,185,51,0,0,471,1,30208,451,-5.59,,,,,,,,,,,,
14504,1564323010137,2,2.17,1.38,0.71,2.11,1.93,1.05,0.72,0.12,-21,4,-18,1.27,6870,0,80,32,34,826,485.0,596,461,60,130.0,111,1,295,179,51,0,0,465,3580,630,450,-5.59,,,,,,,,,,,,
14524,1564323010157,1,2.17,1.39,0.71,2.12,1.93,0.98,0.84,0.08,-21,2,-20,1.29,6952,6,80,32,33,832,477.0,602,461,60,130.0,111,1,292,174,51,0,0,458,2212,-1,447,-5.59,,,,,,,,,,,,
14544,1564323010177,-2,2.19,1.38,0.72,2.12,1.93,0.95,0.9,0.22,-20,1,-23,1.31,7027,18,80,32,33,835,475.0,607,462,60,131.0,103,1,292,174,46,0,0,463,-17956,-214,445,-5.59,44.681396,10.018353,47.4,176.7,0,0.0,-1,0.0,0.0,0,0.12,0.2424
14564,1564323010197,3,2.19,1.39,0.72,2.12,1.94,0.95,0.82,0.21,-20,2,-24,1.26,6978,24,80,32,36,837,474.0,607,462,60,130.0,103,1,301,190,46,0,0,470,-9203,-1,444,-5.59,,,,,,,,,,,,
14584,1564323010217,0,2.21,1.39,0.72,2.12,1.94,0.95,0.87,0.19,-20,1,-25,1.29,6985,26,80,32,39,833,471.0,605,463,60,130.0,103,1,310,208,46,0,0,464,32033,110,442,-5.59,,,,,,,,,,,,
14604,1564323010237,-1,2.2,1.39,0.73,2.12,1.94,0.87,0.84,0.23,-19,1,-25,1.21,7099,26,80,32,41,829,468.0,607,460,60,131.0,103,1,325,211,46,0,0,447,-16384,-30454,440,-5.59,,,,,,,,,,,,
14624,1564323010257,-1,2.21,1.39,0.73,2.13,1.93,0.85,0.9,0.18,-18,-0,-23,1.24,7327,27,80,32,43,828,463.0,618,455,60,130.0,103,1,340,215,46,0,0,436,6193,-1268,438,-5.59,,,,,,,,,,,,
14644,1564323010277,-2,2.21,1.39,0.73,2.13,1.94,0.93,0.85,0.23,-17,-2,-24,1.26,7643,36,80,32,45,827,455.0,623,462,60,131.0,139,1,355,219,61,0,0,441,-26615,-6656,437,-5.59,44.6814,10.018338,45.86,176.8,0,0.0,-1,0.0,0.0,0,0.12,0.2441
14664,1564323010297,1,2.2,1.4,0.73,2.13,1.94,0.87,0.86,0.24,-16,-4,-24,1.22,7874,45,80,32,50,830,453.0,626,463,60,131.0,139,1,378,235,61,0,0,423,-6387,10392,435,-5.59,,,,,,,,,,,,
14684,1564323010317,2,2.2,1.4,0.73,2.13,1.94,0.9,0.82,0.22,-16,-1,-24,1.22,8127,52,80,32,55,833,449.0,635,463,60,130.0,139,1,398,198,61,0,0,427,15649,-3856,431,-5.59,,,,,,,,,,,,
14704,1564323010337,1,2.18,1.39,0.74,2.13,1.95,0.88,0.86,0.29,-16,-1,-23,1.23,8241,53,80,32,59,837,448.0,633,463,60,131.0,139,1,432,306,61,0,0,438,8488,-3856,432,-5.59,,,,,,,,,,,,
14724,1564323010357,-0,2.16,1.39,0.74,2.14,1.95,0.94,0.81,0.3,-16,1,-22,1.24,8351,53,80,32,61,841,448.0,636,461,60,129.0,139,1,448,317,61,0,0,445,8488,13552,429,-5.59,,,,,,,,,,,,
14744,1564323010377,2,2.13,1.4,0.74,2.13,1.96,0.94,0.91,0.33,-16,1,-22,1.3,8318,53,80,32,61,842,450.0,636,461,60,130.0,235,1,448,326,101,0,0,442,-3267,3635,428,-5.59,44.681404,10.018323,44.69,176.8,0,0.0,-1,0.0,0.0,0,0.12,0.2457
14764,1564323010399,-2,2.11,1.39,0.74,2.13,1.94,1.01,0.79,0.36,-17,2,-22,1.28,8322,54,80,32,62,843,450.0,636,463,60,130.0,235,1,447,333,101,0,0,444,-3267,-4082,426,-5.59,,,,,,,,,,,,
14784,1564323010419,2,2.1,1.39,0.74,2.13,1.95,0.89,0.86,0.33,-16,1,-22,1.24,8400,54,80,32,62,879,448.0,636,460,60,130.0,235,1,446,337,101,0,0,448,8488,3826,425,-5.59,,,,,,,,,,,,
14804,1564323010439,1,2.08,1.39,0.75,2.13,1.95,0.94,0.9,0.32,-18,1,-23,1.3,8534,54,80,33,62,927,449.0,640,465,60,131.0,235,1,442,343,101,0,0,445,-3267,3826,424,-5.59,,,,,,,,,,,,
14824,1564323010459,-1,2.09,1.39,0.75,2.13,1.94,1.0,0.76,0.36,-19,3,-25,1.26,8676,54,80,32,62,975,450.0,640,462,60,130.0,235,1,429,345,101,0,0,443,-3267,-3414,418,-5.59,,,,,,,,,,,,
14844,1564323010479,-1,2.09,1.4,0.74,2.13,1.95,0.92,0.68,0.36,-19,3,-24,1.14,8704,54,80,33,61,1022,450.0,642,460,60,130.0,267,1,423,346,112,0,0,443,-3267,7154,416,-5.59,44.681404,10.018308,43.29,176.8,0,0.0,-1,0.0,0.0,0,0.13,0.2474
14864,1564323010495,3,2.08,1.39,0.74,2.12,1.94,0.71,0.81,0.35,-19,2,-24,1.08,8765,55,80,33,61,1113,450.0,641,464,60,130.0,267,1,420,342,112,0,0,448,-3267,-8165,416,-5.59,,,,,,,,,,,,
14884,1564323010515,4,2.07,1.39,0.75,2.12,1.95,0.62,0.91,0.44,-19,1,-25,1.1,8903,55,80,33,61,1217,449.0,645,464,60,130.0,267,1,406,345,112,0,0,451,-8985,3635,415,-5.59,,,,,,,,,,,,
14904,1564323010535,2,2.08,1.39,0.75,2.14,1.95,0.55,1.02,0.48,-19,0,-25,1.16,8765,55,80,33,61,1297,454.0,640,464,60,130.0,267,1,420,342,112,0,0,452,2524,-9203,419,-5.59,,,,,,,,,,,,
14924,1564323010555,1,2.09,1.39,0.76,2.13,1.96,0.65,1.03,0.51,-20,-1,-27,1.22,8664,55,80,33,62,1355,456.0,636,461,60,129.0,267,1,430,345,112,0,0,459,2524,8488,422,-5.59,,,,,,,,,,,,
14944,1564323010575,-0,2.07,1.39,0.75,2.14,1.95,0.68,0.9,0.57,-21,2,-28,1.13,8530,55,80,33,61,1412,457.0,636,461,60,129.0,263,1,443,337,111,0,0,459,-9160,16648,424,-5.59,44.681408,10.018293,42.44,176.8,0,0.0,-1,0.0,0.0,0,0.13,0.2491
14964,1564323010595,1,2.09,1.39,0.76,2.14,1.95,0.56,0.94,0.57,-20,1,-28,1.09,8499,55,80,33,61,1469,458.0,635,458,60,129.0,263,1,447,336,111,0,0,461,-9160,21580,423,-5.59,,,,,,,,,,,,
14984,1564323010615,-0,2.09,1.39,0.75,2.13,1.96,0.66,0.94,0.62,-21,0,-29,1.15,8411,56,80,33,62,1498,460.0,638,465,60,130.0,263,1,446,344,111,0,0,459,-23623,-8985,423,-5.59,,,,,,,,,,,,
15004,1564323010635,-1,2.08,1.4,0.76,2.14,1.95,0.61,0.81,0.7,-21,3,-29,1.01,8408,56,80,33,63,1498,460.0,635,461,60,129.0,263,1,444,344,111,0,0,459,-18108,10305,427,-5.59,,,,,,,,,,,,
15024,1564323010655,2,2.07,1.4,0.76,2.14,1.95,0.6,0.93,0.72,-21,-0,-30,1.11,8434,56,80,33,63,1496,459.0,638,460,60,130.0,263,1,444,345,111,0,0,454,-18108,8488,427,-5.59,,,,,,,,,,,,
15044,1564323010675,1,2.09,1.4,0.76,2.13,1.95,0.73,0.77,0.75,-22,-1,-30,1.06,8461,56,80,33,63,1492,460.0,638,461,60,129.0,262,1,444,269,112,0,0,457,-18108,30272,428,-5.59,44.681408,10.018278,42.07,176.8,0,0.0,-1,0.0,0.0,0,0.13,0.2507
15064,1564323010695,-0,2.11,1.4,0.76,2.14,1.95,0.63,0.71,0.72,-21,-2,-30,0.95,8549,56,80,33,63,1488,461.0,637,461,60,130.0,262,1,439,350,112,0,0,457,2211,-9160,432,-5.59,,,,,,,,,,,,
15084,1564323010715,1,2.13,1.4,0.76,2.14,1.95,0.56,0.84,0.71,-20,-2,-29,1.01,8644,56,80,33,62,1483,463.0,640,465,60,130.0,262,1,432,345,112,0,0,461,6193,12552,434,-5.59,,,,,,,,,,,,
15104,1564323010735,1,2.14,1.4,0.76,2.15,1.96,0.67,0.86,0.74,-20,-4,-30,1.09,8720,56,80,33,62,1470,465.0,633,459,60,131.0,262,1,424,346,112,0,0,458,12552,30272,434,-5.59,,,,,,,,,,,,
15124,1564323010755,0,2.16,1.39,0.77,2.14,1.95,0.74,0.73,0.68,-20,-4,-30,1.04,8708,56,80,33,62,1448,465.0,641,463,60,130.0,262,1,426,346,112,0,0,466,30272,12552,436,-5.59,,,,,,,,,,,,
15144,1564323010775,-1,2.18,1.39,0.77,2.14,1.96,0.75,0.58,0.76,-20,-2,-30,0.94,8741,56,80,33,62,1426,464.0,637,461,60,130.0,261,1,422,346,115,0,0,464,-3210,-23623,440,-5.59,44.681408,10.018264,42.95,176.8,0,0.0,-1,0.0,0.0,0,0.13,0.2524
15164,1564323010795,3,2.19,1.4,0.76,2.14,1.96,0.63,0.57,0.77,-18,-0,-29,0.85,8664,56,80,33,62,1409,466.0,641,462,60,130.0,261,1,430,345,115,0,0,466,-3210,17628,443,-5.59,,,,,,,,,,,,
15184,1564323010815,1,2.21,1.4,0.77,2.14,1.96,0.57,0.67,0.76,-16,-2,-28,0.88,8636,56,80,33,62,1394,465.0,638,461,60,130.0,261,1,433,344,115,0,0,466,30272,-9160,447,-5.59,,,,,,,,,,,,
15204,1564323010835,2,2.22,1.4,0.76,2.15,1.95,0.72,0.67,0.83,-16,-4,-27,0.99,8716,56,80,33,62,1384,465.0,637,461,60,130.0,261,1,425,346,115,0,0,468,30272,-3210,451,-5.59,,,,,,,,,,,,
15224,1564323010855,1,2.24,1.4,0.76,2.15,1.96,0.8,0.51,0.85,-15,-3,-26,0.95,8644,56,80,33,62,1380,466.0,638,463,60,131.0,261,1,432,345,115,0,0,466,-3210,243,454,-5.59,,,,,,,,,,,,
15244,1564323010875,0,2.25,1.41,0.76,2.16,1.95,0.77,0.41,0.84,-14,-1,-25,0.87,8656,57,80,33,62,1388,466.0,636,460,60,129.0,247,1,431,345,113,0,0,465,-3210,243,456,-5.59,44.681408,10.018249,43.77,176.8,0,0.0,-1,0.0,0.0,0,0.13,0.2541
15264,1564323010897,4,2.26,1.41,0.76,2.16,1.96,0.66,0.42,0.91,-12,-0,-23,0.78,8769,57,80,33,62,1397,467.0,637,463,60,130.0,247,1,423,347,113,0,0,470,243,10432,459,-5.59,,,,,,,,,,,,
15284,1564323010917,1,2.29,1.41,0.77,2.16,1.96,0.59,0.44,1.01,-11,-1,-21,0.73,8827,57,80,33,62,1403,468.0,641,462,60,130.0,247,1,415,349,113,0,0,467,-16384,10432,461,-5.59,,,,,,,,,,,,
15304,1564323010937,3,2.32,1.41,0.77,2.16,1.96,0.6,0.47,1.08,-9,-2,-20,0.76,8865,57,80,33,62,1408,466.0,642,465,60,130.0,247,1,411,350,113,0,0,470,10432,-17956,465,181.28,,,,,,,,,,,,
15324,1564323010957,2,2.33,1.41,0.77,2.16,1.96,0.64,0.5,1.03,-8,-3,-17,0.81,8873,57,80,33,62,1406,469.0,641,463,60,130.0,247,1,410,350,113,0,0,471,10432,-23367,468,-5.59,,,,,,,,,,,,
15344,1564323010977,2,2.35,1.41,0.76,2.17,1.96,0.7,0.48,0.91,-6,-3,-16,0.85,8898,57,80,33,62,1402,473.0,645,457,60,130.0,247,1,408,350,117,0,0,473,10432,10305,473,-5.59,44.681408,10.018233,44.46,176.8,0,0.0,-1,0.0,0.0,0,0.13,0.2557
15364,1564323010997,2,2.37,1.4,0.76,2.17,1.96,0.78,0.42,0.74,-5,-3,-14,0.89,8898,58,80,33,62,1392,477.0,640,466,60,131.0,247,1,408,350,117,0,0,472,-16384,10305,477,-5.59,,,,,,,,,,,,
15384,1564323011010,-0,2.4,1.41,0.76,2.16,1.96,0.78,0.32,0.61,-3,-3,-12,0.84,8882,58,80,33,62,1383,478.0,642,462,60,130.0,247,1,409,350,117,0,0,479,32033,-6441,480,-5.59,,,,,,,,,,,,
15404,1564323011030,1,2.4,1.41,0.76,2.17,1.95,0.79,0.13,0.48,-2,-1,-10,0.8,8865,58,80,33,63,1375,480.0,639,462,60,130.0,247,1,412,355,117,0,0,477,10432,10305,480,-5.59,,,,,,,,,,,,
15424,1564323011050,-0,2.42,1.41,0.76,2.18,1.96,0.74,0.01,0.43,1,0,-9,0.74,8949,58,80,33,63,1369,482.0,641,463,60,130.0,247,1,405,350,117,0,0,477,-16384,-899,482,-5.59,,,,,,,,,,,,
15444,1564323011070,0,2.45,1.41,0.76,2.17,1.96,0.72,-0.16,0.42,2,1,-6,0.73,9066,58,80,32,62,1364,485.0,643,463,60,130.0,250,1,400,352,121,0,0,474,243,-899,485,181.28,44.681408,10.018218,45.84,176.8,0,0.0,-1,0.0,0.0,0,0.13,0.2574
15464,1564323011096,1,2.45,1.41,0.76,2.18,1.96,0.73,-0.23,0.49,4,1,-5,0.77,9218,59,80,32,63,1360,488.0,645,461,60,130.0,250,1,406,357,121,0,0,485,243,505,488,-5.59,,,,,,,,,,,,
15484,1564323011116,3,2.47,1.41,0.76,2.18,1.96,0.77,-0.25,0.41,6,1,-1,0.81,9393,59,80,32,62,1362,491.0,643,461,60,130.0,250,1,410,352,121,0,0,499,-16384,-6528,491,-5.59,,,,,,,,,,,,
15504,1564323011136,3,2.47,1.42,0.76,2.17,1.96,0.71,-0.31,0.41,8,1,1,0.77,9503,59,80,32,62,1364,494.0,651,469,60,130.0,250,1,413,352,121,0,0,522,-16384,-22519,494,-5.59,,,,,,,,,,,,
15524,1564323011156,2,2.47,1.41,0.76,2.19,1.96,0.76,-0.31,0.54,9,2,5,0.82,9674,59,80,32,61,1360,499.0,651,459,60,129.0,250,1,413,358,121,0,0,503,243,10994,499,-5.59,,,,,,,,,,,,
15544,1564323011176,2,2.47,1.41,0.76,2.18,1.97,0.7,-0.36,0.59,11,2,8,0.79,9715,59,80,32,61,1356,503.0,651,467,60,130.0,267,1,412,360,133,0,0,504,-9203,26178,503,-5.59,44.681404,10.018202,46.71,176.8,0,0.0,-1,0.0,0.0,0,0.13,0.2591
15564,1564323011197,1,2.47,1.42,0.76,2.18,1.97,0.75,-0.37,0.65,13,3,10,0.84,9730,60,80,32,60,1350,506.0,648,455,60,130.0,267,1,410,354,133,0,0,516,-1923,26178,508,-5.59,,,,,,,,,,,,
15584,1564323011217,3,2.47,1.42,0.76,2.19,1.96,0.72,-0.43,0.64,15,3,13,0.84,9684,60,80,32,60,1343,512.0,645,461,60,130.0,267,1,411,352,133,0,0,534,-17956,15679,511,-5.59,,,,,,,,,,,,
15604,1564323011237,-1,2.48,1.41,0.76,2.18,1.97,0.7,-0.45,0.71,16,3,15,0.83,9630,60,80,32,60,1307,515.0,645,461,60,129.0,267,1,411,349,133,0,0,516,2212,-32248,513,-5.59,,,,,,,,,,,,
15624,1564323011257,3,2.48,1.41,0.76,2.18,1.96,0.69,-0.47,0.65,17,3,16,0.83,9635,60,80,32,60,1268,514.0,645,456,60,130.0,267,1,411,349,133,0,0,522,-23367,-8187,516,-5.59,,,,,,,,,,,,
15644,1564323011277,0,2.48,1.42,0.76,2.18,1.96,0.67,-0.5,0.63,17,1,19,0.83,9669,60,80,32,60,1234,516.0,643,461,60,129.0,250,1,411,351,129,0,0,524,8488,-9212,514,-5.59,44.681404,10.018185,47.42,176.8,0,0.0,-1,0.0,0.0,0,0.14,0.2607
15664,1564323011296,2,2.49,1.42,0.76,2.18,1.97,0.64,-0.52,0.71,18,1,20,0.82,9786,60,80,32,60,1201,516.0,653,460,60,130.0,250,1,410,357,129,0,0,507,3580,-28648,516,-5.59,,,,,,,,,,,,
15684,1564323011316,0,2.48,1.42,0.76,2.19,1.97,0.7,-0.66,0.72,18,0,21,0.97,9811,60,80,32,60,1169,519.0,651,462,60,129.0,250,1,409,359,129,0,0,551,-6441,-22519,519,-5.59,,,,,,,,,,,,
15704,1564323011336,2,2.49,1.42,0.75,2.18,1.96,0.68,-0.62,0.78,19,-2,22,0.92,9899,60,80,32,60,1137,521.0,654,455,60,130.0,250,1,409,363,129,0,0,545,-1562,-32248,523,-5.59,,,,,,,,,,,,
15724,1564323011356,2,2.49,1.42,0.76,2.19,1.96,0.78,-0.63,0.83,19,-2,23,1.0,10053,60,80,32,60,1125,522.0,659,462,60,129.0,250,1,411,369,129,0,0,522,-1562,14504,523,-5.59,,,,,,,,,,,,
15744,1564323011376,1,2.48,1.41,0.76,2.19,1.96,0.72,-0.77,0.84,19,-3,24,1.05,10107,60,80,32,60,1124,527.0,654,462,60,129.0,269,1,414,370,141,0,0,548,-1818,-28648,526,-5.59,44.681404,10.018168,48.34,176.9,0,0.0,-1,0.0,0.0,0,0.14,0.2624
15764,1564323011396,1,2.49,1.41,0.76,2.18,1.97,0.68,-0.74,0.82,20,-3,27,1.0,10179,60,80,32,60,1118,527.0,655,467,60,130.0,269,1,419,371,141,0,0,566,-6528,2524,530,-5.59,,,,,,,,,,,,
15784,1564323011416,3,2.48,1.41,0.76,2.18,1.96,0.68,-0.65,0.78,22,-4,27,0.94,10364,60,80,32,60,1108,534.0,665,461,60,130.0,269,1,432,375,141,0,0,540,-6528,1780,534,-5.59,,,,,,,,,,,,
15804,1564323011436,3,2.47,1.42,0.75,2.19,1.96,0.69,-0.55,0.66,23,-4,29,0.88,10376,60,80,32,60,1099,538.0,653,460,60,130.0,269,1,433,375,141,0,0,536,3,-32248,538,-5.59,,,,,,,,,,,,
15824,1564323011456,3,2.47,1.41,0.76,2.18,1.96,0.7,-0.54,0.59,25,-3,31,0.89,10399,60,80,32,60,1090,541.0,638,461,60,130.0,269,1,435,375,141,0,0,576,-22519,14504,541,-5.59,,,,,,,,,,,,
15844,1564323011476,2,2.45,1.42,0.76,2.19,1.97,0.75,-0.61,0.63,26,-4,31,0.97,10399,60,80,32,61,1077,543.0,647,460,60,129.0,278,1,441,383,151,0,0,590,-22519,-28648,543,-5.59,44.681404,10.018151,50.03,176.9,0,0.0,-1,0.0,0.0,0,0.14,0.2641
15864,1564323011494,2,2.44,1.42,0.76,2.18,1.97,0.78,-0.66,0.67,26,-2,31,1.02,10521,60,80,32,61,1060,543.0,651,460,60,130.0,278,1,450,386,151,0,0,552,15661,-22359,543,-5.59,,,,,,,,,,,,
15884,1564323011514,2,2.42,1.42,0.76,2.19,1.97,0.89,-0.63,0.71,26,-3,32,1.09,10510,61,80,32,61,1047,543.0,613,462,60,130.0,278,1,450,386,151,0,0,549,-21872,-22359,545,-5.59,,,,,,,,,,,,
15904,1564323011534,2,2.39,1.42,0.75,2.19,1.97,0.85,-0.65,0.75,26,-4,33,1.07,10539,61,80,32,61,1039,546.0,527,466,60,129.0,278,1,450,386,151,0,0,571,-3482,12552,549,-5.59,,,,,,,,,,,,
15924,1564323011554,3,2.38,1.41,0.76,2.19,1.97,0.89,-0.67,0.73,25,-3,33,1.11,10486,61,80,32,61,1031,549.0,536,458,60,130.0,278,1,448,385,151,0,0,568,16383,-22263,549,-5.59,,,,,,,,,,,,
15944,1564323011574,1,2.36,1.42,0.76,2.18,1.97,0.94,-0.6,0.7,24,-2,33,1.11,10551,61,80,32,62,1023,548.0,448,459,60,129.0,281,1,449,396,154,0,0,546,-22519,-2934,548,-5.59,44.681404,10.018134,51.18,176.9,0,0.0,-1,0.0,0.0,0,0.14,0.2657
15964,1564323011592,1,2.35,1.42,0.75,2.19,1.96,0.98,-0.49,0.75,23,-4,32,1.1,10486,61,80,32,62,1018,551.0,396,463,60,129.0,281,1,447,394,154,0,0,552,-28648,-2934,553,-5.59,,,,,,,,,,,,
15984,1564323011612,2,2.33,1.42,0.76,2.18,1.96,0.95,-0.46,0.76,21,-4,31,1.05,10510,67,80,32,63,1018,552.0,460,463,60,129.0,281,1,448,404,154,0,0,566,2104,2211,552,-5.59,,,,,,,,,,,,
16004,1564323011632,1,2.34,1.41,0.76,2.18,1.97,1.02,-0.44,0.79,19,-4,30,1.11,10469,73,80,32,66,1014,554.0,425,460,60,130.0,281,1,442,422,154,0,0,561,-28648,-32504,554,-5.59,,,,,,,,,,,,
16024,1564323011652,2,2.33,1.41,0.75,2.19,1.97,1.03,-0.36,0.77,17,-4,28,1.09,10563,77,80,32,69,1008,555.0,405,460,60,129.0,281,1,442,456,154,0,0,564,-506,12552,555,-5.59,,,,,,,,,,,,
16044,1564323011672,2,2.34,1.41,0.76,2.18,1.96,1.03,-0.14,0.73,16,-5,28,1.04,10587,80,80,32,72,1002,556.0,435,458,60,129.0,330,1,439,471,184,0,0,565,-22519,2211,559,-5.59,44.681408,10.018116,52.37,176.9,0,0.0,-1,0.0,0.0,0,0.14,0.2674
16064,1564323011692,1,2.36,1.41,0.75,2.18,1.97,0.94,0.03,0.66,15,-4,27,0.94,10647,82,80,32,75,995,559.0,419,460,60,130.0,330,1,436,485,184,0,0,566,-28648,259,559,-5.59,,,,,,,,,,,,
16084,1564323011712,1,2.37,1.41,0.75,2.17,1.97,0.93,0.11,0.62,14,-4,26,0.93,10708,82,80,32,76,990,563.0,435,464,60,129.0,330,1,436,490,184,0,0,572,2524,259,563,-5.59,,,,,,,,,,,,
16104,1564323011732,2,2.38,1.41,0.75,2.18,1.97,0.8,0.0,0.66,14,-2,24,0.8,10850,82,80,32,77,987,567.0,497,464,60,130.0,330,1,440,497,184,0,0,572,6273,30208,568,-5.59,,,,,,,,,,,,
16124,1564323011752,3,2.38,1.41,0.75,2.18,1.96,0.79,-0.2,0.79,14,-3,21,0.81,10888,83,80,32,77,985,575.0,565,466,60,129.0,330,1,441,497,184,0,0,583,-18032,8488,575,-5.59,,,,,,,,,,,,
16144,1564323011772,3,2.39,1.41,0.75,2.18,1.96,0.87,-0.22,0.89,14,-6,21,0.89,10913,88,80,32,79,988,581.0,646,457,60,129.0,361,1,441,513,208,0,0,591,-30159,8488,577,-5.59,44.681412,10.018099,53.42,176.9,0,0.0,-1,0.0,0.0,0,0.14,0.2691
16164,1564323011792,2,2.39,1.42,0.75,2.18,1.97,0.73,-0.05,0.74,14,-4,22,0.73,11048,92,80,32,81,995,583.0,655,463,60,129.0,361,1,443,529,208,0,0,589,-30159,-28648,583,-5.59,,,,,,,,,,,,
16184,1564323011812,3,2.38,1.41,0.75,2.17,1.96,0.71,-0.22,0.87,14,-5,20,0.74,11160,95,80,32,82,1010,587.0,655,463,60,130.0,361,1,443,537,208,0,0,594,-29984,-3210,586,-5.59,,,,,,,,,,,,
16204,1564323011832,-0,2.39,1.42,0.75,2.17,1.97,0.7,-0.1,0.72,14,-4,21,0.71,11207,98,80,32,83,1025,588.0,667,457,60,129.0,361,1,442,545,208,0,0,601,1760,4956,588,-5.59,,,,,,,,,,,,
16224,1564323011852,2,2.37,1.42,0.75,2.17,1.96,0.68,-0.29,0.85,14,-1,19,0.74,11384,99,80,32,83,1037,593.0,665,460,60,129.0,361,1,441,545,208,0,0,608,1,-7939,591,-5.59,,,,,,,,,,,,
16244,1564323011872,2,2.36,1.42,0.75,2.18,1.97,0.56,-0.15,0.65,14,-0,20,0.58,11538,99,80,32,83,1048,597.0,669,463,60,130.0,392,1,440,538,233,0,0,618,243,-7939,597,-5.59,44.681416,10.01808,55.38,176.9,0,0.0,-1,0.0,0.0,0,0.14,0.2707
16264,1564323011896,1,2.34,1.41,0.75,2.18,1.96,0.55,-0.11,0.78,14,-0,19,0.56,11667,99,80,32,82,1059,598.0,674,458,60,128.0,392,1,440,541,233,0,0,622,-4035,3403,600,-5.59,,,,,,,,,,,,
16284,1564323011916,2,2.33,1.41,0.74,2.18,1.96,0.58,-0.29,0.9,13,0,18,0.65,11785,100,80,32,82,1070,603.0,676,456,60,129.0,392,1,440,544,233,0,0,626,-32504,-1346,602,-5.59,,,,,,,,,,,,
16304,1564323011936,2,2.32,1.41,0.74,2.18,1.96,0.64,-0.46,1.01,12,-0,17,0.79,11814,100,80,32,82,1069,607.0,677,458,60,128.0,392,1,440,544,233,0,0,619,17344,966,607,-5.59,,,,,,,,,,,,
16324,1564323011956,3,2.29,1.41,0.74,2.18,1.97,0.65,-0.51,0.95,11,-1,16,0.83,11822,100,80,32,82,1068,611.0,677,460,60,128.0,392,1,440,544,233,0,0,630,-7939,-2580,611,-5.59,,,,,,,,,,,,
16344,1564323011976,1,2.26,1.41,0.74,2.16,1.95,0.62,-0.44,0.81,9,-3,15,0.76,11837,100,80,32,82,1048,614.0,675,460,60,130.0,398,1,440,545,244,0,0,640,-30139,966,613,-5.59,44.681423,10.018062,56.9,177.0,0,0.0,-1,0.0,0.0,0,0.15,0.2724
16364,1564323011996,3,2.24,1.41,0.73,2.17,1.95,0.55,-0.27,0.67,8,-4,15,0.62,11829,100,80,32,82,1028,616.0,671,461,60,129.0,398,1,440,544,244,0,0,632,19304,11566,616,-5.59,,,,,,,,,,,,
16384,1564323012009,3,2.24,1.39,0.73,2.15,1.95,0.53,-0.09,0.67,7,-4,13,0.53,11889,100,80,32,82,1010,622.0,676,462,60,129.0,398,1,440,546,244,0,0,637,17336,16599,618,-5.59,,,,,,,,,,,,
16404,1564323012029,2,2.22,1.39,0.72,2.14,1.93,0.49,0.1,0.75,6,-4,12,0.5,11980,100,80,32,82,991,628.0,672,462,60,130.0,398,1,440,549,244,0,0,641,-16046,4909,618,-5.59,,,,,,,,,,,,
16424,1564323012049,3,2.22,1.37,0.71,2.12,1.92,0.44,0.29,0.81,5,-4,11,0.53,12057,100,80,32,82,963,635.0,675,464,60,129.0,398,1,440,550,244,0,0,652,-4876,31988,623,414.87,,,,,,,,,,,,
16444,1564323012069,3,2.24,1.36,0.71,2.1,1.92,0.42,0.41,0.8,4,-5,9,0.58,12159,100,80,32,82,934,636.0,675,466,60,129.0,402,1,440,550,252,0,0,655,6208,-2830,626,648.46,44.681423,10.018043,58.86,177.0,0,0.0,-1,0.0,0.0,0,0.15,0.2741
16464,1564323012089,3,2.24,1.36,0.7,2.1,1.91,0.42,0.32,0.76,2,-6,6,0.53,12327,100,80,32,82,919,642.0,679,461,60,128.0,402,1,440,550,252,0,0,659,-2830,31988,632,648.46,,,,,,,,,,,,
16484,1564323012107,3,2.25,1.37,0.7,2.11,1.91,0.52,0.09,0.72,1,-6,5,0.53,12433,100,80,32,82,908,647.0,683,458,60,129.0,402,1,440,551,252,0,0,662,-30207,-26380,634,-5.59,,,,,,,,,,,,
16504,1564323012127,3,2.25,1.37,0.7,2.11,1.92,0.49,0.15,0.77,0,-5,3,0.52,12500,92,80,32,82,891,652.0,688,460,60,129.0,402,1,440,551,252,0,0,663,24583,-2345,640,648.46,,,,,,,,,,,,
16524,1564323012147,8,2.25,1.39,0.7,2.12,1.93,0.33,0.34,0.66,0,-3,2,0.47,12541,72,80,32,79,871,654.0,690,460,60,129.0,402,1,440,524,252,0,0,667,-2830,-10344,639,648.46,,,,,,,,,,,,
16544,1564323012167,9,2.26,1.39,0.7,2.13,1.92,0.37,0.19,0.6,-0,-3,0,0.42,12376,53,80,32,70,859,656.0,686,460,60,129.0,358,1,440,468,231,0,0,665,24583,-10346,641,648.46,44.681431,10.018023,61.16,177.0,0,0.0,-1,0.0,0.0,0,0.15,0.2757
16564,1564323012195,8,2.25,1.4,0.71,2.13,1.93,0.49,-0.02,0.59,-1,-3,-2,0.49,12128,31,80,32,60,850,657.0,680,456,60,128.0,358,1,434,406,231,0,0,671,8958,-27404,642,414.87,,,,,,,,,,,,
16584,1564323012215,8,2.26,1.4,0.71,2.14,1.93,0.58,-0.22,0.52,-1,-2,-4,0.62,11711,22,80,32,52,837,658.0,679,463,60,128.0,358,1,394,315,231,0,0,664,-3038,-27404,649,648.46,,,,,,,,,,,,
16604,1564323012235,7,2.27,1.39,0.71,2.14,1.93,0.5,0.0,0.27,-0,-3,-3,0.5,11446,18,80,32,46,821,657.0,673,459,60,128.0,358,1,372,245,231,0,0,648,8958,-30207,655,648.46,,,,,,,,,,,,
16624,1564323012255,5,2.28,1.4,0.7,2.13,1.93,0.58,-0.2,0.44,-0,-3,-5,0.61,11214,17,80,32,43,810,657.0,675,458,60,128.0,358,1,350,238,231,0,0,658,8958,-30207,654,-5.59,,,,,,,,,,,,
16644,1564323012275,10,2.27,1.4,0.71,2.14,1.92,0.58,0.03,0.24,0,-4,-4,0.58,10964,17,80,32,41,804,654.0,671,462,60,128.0,151,1,335,232,99,0,0,648,-2830,11776,648,-5.59,44.681438,10.018003,63.34,177.0,0,0.0,-1,0.0,0.0,0,0.15,0.2774
16664,1564323012295,18,2.28,1.4,0.71,2.15,1.94,0.63,-0.06,0.39,-0,-9,-3,0.64,10683,17,80,32,39,796,650.0,668,466,60,128.0,151,1,320,221,99,0,0,647,-6006,11566,644,-5.59,,,,,,,,,,,,
16684,1564323012315,18,2.28,1.41,0.71,2.15,1.94,0.54,0.0,0.41,-0,-3,-3,0.54,10042,17,80,32,38,788,649.0,661,468,60,129.0,151,1,317,216,99,0,0,692,-30207,-2830,644,-5.59,,,,,,,,,,,,
16704,1564323012335,16,2.28,1.41,0.72,2.15,1.96,0.48,0.02,0.57,-0,-2,-5,0.48,8894,15,80,32,37,783,654.0,645,460,60,129.0,151,1,314,205,99,0,0,722,-2830,1524,650,-5.59,,,,,,,,,,,,
16724,1564323012355,15,2.27,1.41,0.72,2.15,1.95,0.55,0.07,0.49,-0,-4,-3,0.56,8374,9,80,32,36,782,656.0,633,463,60,130.0,151,1,308,199,99,0,0,651,-388,-388,655,-5.59,,,,,,,,,,,,
16744,1564323012375,12,2.27,1.41,0.71,2.16,1.95,0.61,0.09,0.39,-0,-1,-4,0.62,8085,6,80,32,33,789,650.0,628,462,60,130.0,89,1,293,177,58,0,0,649,-6006,-8429,646,-5.59,44.681442,10.017982,64.98,177.0,0,0.0,-1,0.0,0.0,0,0.15,0.2791
16764,1564323012395,10,2.27,1.41,0.71,2.15,1.95,0.73,0.08,0.38,-0,-1,-3,0.74,7934,6,80,32,32,805,646.0,626,463,60,130.0,89,1,290,90,58,0,0,638,4909,479,642,-5.59,,,,,,,,,,,,
16784,1564323012415,10,2.26,1.41,0.71,2.15,1.95,0.76,0.12,0.35,0,-2,-3,0.77,7716,6,80,32,32,821,642.0,623,462,60,130.0,89,1,290,167,58,0,0,634,-2830,-5120,641,181.28,,,,,,,,,,,,
16804,1564323012435,12,2.27,1.41,0.71,2.15,1.94,0.72,0.11,0.29,0,-0,-4,0.73,7631,6,80,32,31,839,641.0,621,462,60,130.0,89,1,286,167,58,0,0,615,-3584,30721,637,-5.59,,,,,,,,,,,,
16824,1564323012455,15,2.27,1.41,0.71,2.16,1.94,0.66,0.08,0.23,0,1,-6,0.67,7674,6,80,32,30,847,634.0,622,465,60,129.0,89,1,283,166,58,0,0,602,-2836,19304,628,-5.59,,,,,,,,,,,,
16844,1564323012475,17,2.26,1.41,0.72,2.15,1.96,0.65,0.13,0.09,-0,2,-4,0.66,7690,6,80,32,30,842,633.0,622,463,60,130.0,76,1,283,87,48,0,0,596,3,208,623,-5.59,44.681446,10.017961,64.41,177.1,0,0.0,-1,0.0,0.0,0,0.15,0.2807
16864,1564323012493,17,2.25,1.41,0.71,2.16,1.94,0.73,0.19,0.01,-1,1,-4,0.76,7773,6,80,32,29,833,627.0,622,465,60,129.0,76,1,280,164,48,0,0,575,20993,30208,617,-5.59,,,,,,,,,,,,
16884,1564323012513,14,2.26,1.41,0.71,2.16,1.95,0.86,0.19,0.07,-2,-0,-5,0.88,7770,6,80,32,28,811,627.0,624,462,60,130.0,76,1,276,164,48,0,0,567,-1346,1780,614,-5.59,,,,,,,,,,,,
16904,1564323012533,16,2.25,1.41,0.71,2.15,1.96,0.95,0.19,0.15,-3,-1,-5,0.97,7770,6,80,32,28,792,619.0,625,465,60,131.0,76,1,276,163,48,0,0,572,30721,2211,610,-5.59,,,,,,,,,,,,
16924,1564323012553,18,2.25,1.41,0.72,2.16,1.95,0.97,0.19,0.12,-3,-0,-6,0.99,7697,6,80,32,28,779,615.0,622,464,60,131.0,76,1,276,163,48,0,0,573,26688,-3210,602,-5.59,,,,,,,,,,,,
16944,1564323012573,22,2.24,1.41,0.72,2.16,1.95,0.94,0.21,0.03,-4,0,-7,0.96,7716,6,80,32,28,772,605.0,625,464,60,129.0,78,1,276,163,47,0,0,582,-3820,-2934,593,-5.59,44.681454,10.01794,63.88,177.1,0,0.0,-1,0.0,0.0,0,0.16,0.2824
16964,1564323012593,26,2.25,1.4,0.72,2.16,1.96,0.89,0.2,-0.02,-4,2,-7,0.91,7776,6,80,32,28,782,598.0,624,460,60,128.0,78,1,276,161,47,0,0,571,4956,2216,582,-5.59,,,,,,,,,,,,
16984,1564323012613,26,2.24,1.41,0.71,2.17,1.95,0.96,0.24,-0.03,-4,2,-8,0.99,7722,6,80,32,27,794,592.0,622,465,60,129.0,78,1,273,161,47,0,0,558,-28648,-22359,579,-5.59,,,,,,,,,,,,
17004,1564323012633,20,2.25,1.41,0.72,2.16,1.95,1.06,0.25,-0.03,-5,-1,-7,1.09,7646,6,80,32,27,812,586.0,623,463,60,128.0,78,1,272,161,47,0,0,565,-12040,-22263,575,-5.59,,,,,,,,,,,,
17024,1564323012653,18,2.24,1.41,0.72,2.16,1.96,1.16,0.28,-0.02,-6,-2,-6,1.19,7515,6,80,32,27,829,583.0,625,463,60,130.0,78,1,272,161,47,0,0,565,15649,14504,569,-5.59,,,,,,,,,,,,
17044,1564323012673,20,2.25,1.4,0.71,2.16,1.96,1.21,0.32,-0.0,-6,-2,-7,1.25,7458,6,80,32,26,838,578.0,617,463,60,129.0,79,1,267,160,45,0,0,556,1,-2934,563,-5.59,44.681461,10.017919,61.33,177.1,0,0.0,-1,0.0,0.0,0,0.16,0.2841
17064,1564323012693,20,2.25,1.41,0.72,2.16,1.95,1.26,0.29,0.0,-6,-2,-7,1.29,7364,6,80,32,26,847,570.0,617,462,60,130.0,79,1,266,161,45,0,0,549,-3190,2524,557,-5.59,,,,,,,,,,,,
17084,1564323012713,16,2.26,1.41,0.72,2.16,1.96,1.31,0.34,-0.06,-7,-3,-7,1.35,7327,6,80,32,26,862,567.0,617,463,60,129.0,79,1,266,160,45,0,0,542,1780,2524,553,-5.59,,,,,,,,,,,,
17104,1564323012733,11,2.27,1.4,0.72,2.16,1.96,1.26,0.34,-0.09,-6,-2,-8,1.31,7267,6,80,32,26,877,560.0,612,465,60,130.0,79,1,266,160,45,0,0,536,-28648,-32248,552,414.87,,,,,,,,,,,,
17124,1564323012753,0,2.28,1.41,0.72,2.17,1.96,1.16,0.35,-0.07,-5,-0,-8,1.22,7239,6,80,32,26,883,560.0,613,462,60,130.0,79,1,266,160,45,0,0,536,-28648,-28648,556,414.87,,,,,,,,,,,,
17144,1564323012773,-1,2.29,1.41,0.72,2.17,1.96,1.11,0.34,-0.0,-4,2,-8,1.16,7242,6,80,32,26,890,557.0,608,464,60,131.0,79,1,266,160,44,0,0,542,2216,-506,552,414.87,44.681461,10.017899,58.41,177.1,0,0.0,-1,0.0,0.0,0,0.16,0.2857
17164,1564323012793,-0,2.28,1.41,0.72,2.17,1.96,1.13,0.3,0.04,-3,1,-8,1.17,7259,6,81,32,26,902,555.0,609,461,60,131.0,79,1,266,160,44,0,0,535,2524,-30064,548,181.28,,,,,,,,,,,,
17184,1564323012813,0,2.28,1.42,0.73,2.16,1.97,1.2,0.27,0.08,-3,-0,-7,1.23,7358,6,80,32,26,914,550.0,613,461,60,130.0,79,1,266,160,44,0,0,539,2104,1780,546,181.28,,,,,,,,,,,,
17204,1564323012833,0,2.28,1.41,0.72,2.18,1.97,1.27,0.23,0.1,-3,-1,-7,1.29,7396,6,80,32,26,921,550.0,617,460,60,130.0,79,1,266,160,44,0,0,538,-32248,-28648,545,-5.59,,,,,,,,,,,,
17224,1564323012853,4,2.28,1.42,0.72,2.18,1.96,1.25,0.21,0.11,-3,-0,-6,1.27,7425,6,80,32,26,926,546.0,616,464,60,130.0,79,1,267,160,44,0,0,538,2524,-28648,545,-5.59,,,,,,,,,,,,
17244,1564323012873,2,2.27,1.42,0.72,2.18,1.96,1.2,0.21,0.14,-3,0,-6,1.22,7318,6,80,32,26,938,543.0,616,467,60,130.0,81,1,266,160,44,0,0,535,1779,1780,539,-5.59,44.681469,10.01788,55.58,177.1,0,0.0,-1,0.0,0.0,0,0.16,0.2874
17264,1564323012897,5,2.28,1.42,0.72,2.17,1.97,1.16,0.21,0.12,-3,0,-6,1.18,7244,6,80,32,26,951,542.0,608,464,60,129.0,81,1,266,160,44,0,0,529,1780,6274,538,414.87,,,,,,,,,,,,
17284,1564323012917,8,2.26,1.42,0.72,2.18,1.97,1.07,0.21,0.11,-3,1,-6,1.1,7186,6,80,32,26,960,538.0,612,465,60,130.0,81,1,265,160,44,0,0,529,-30064,2104,531,414.87,,,,,,,,,,,,
17304,1564323012937,11,2.26,1.41,0.72,2.17,1.97,1.11,0.15,0.21,-3,-1,-6,1.12,7099,6,80,32,26,967,531.0,610,461,60,131.0,81,1,264,160,44,0,0,525,-22519,-9212,529,-5.59,,,,,,,,,,,,
17324,1564323012957,16,2.27,1.42,0.72,2.18,1.97,1.18,0.11,0.25,-3,-3,-5,1.18,7038,6,80,32,26,978,526.0,606,461,60,130.0,81,1,264,160,44,0,0,514,-32248,-3856,521,-5.59,,,,,,,,,,,,
17344,1564323012977,20,2.26,1.41,0.72,2.18,1.96,1.16,0.19,0.16,-4,-3,-5,1.18,6972,6,80,32,27,989,521.0,601,464,60,130.0,80,1,269,160,42,0,0,507,-9212,-28648,517,-5.59,44.681473,10.017861,53.62,177.1,0,0.0,-1,0.0,0.0,0,0.16,0.2891
17364,1564323012997,19,2.25,1.41,0.72,2.17,1.97,1.11,0.19,0.21,-3,-3,-6,1.13,6825,6,80,32,27,995,519.0,600,462,60,131.0,80,1,270,161,42,0,0,496,-8187,2109,510,-5.59,,,,,,,,,,,,
17384,1564323013008,17,2.25,1.41,0.72,2.17,1.96,1.2,0.19,0.09,-5,-5,-5,1.22,6734,6,80,32,27,999,514.0,593,467,60,130.0,80,1,270,161,42,0,0,496,-3482,248,504,-5.59,,,,,,,,,,,,
17404,1564323013028,17,2.25,1.42,0.71,2.17,1.97,1.15,0.2,0.15,-5,-5,-6,1.17,6653,6,80,32,28,980,512.0,585,462,60,131.0,80,1,275,161,42,0,0,496,17136,-1562,500,-5.59,,,,,,,,,,,,
17424,1564323013048,14,2.25,1.42,0.71,2.18,1.96,1.15,0.23,0.04,-5,-4,-6,1.17,6560,6,80,32,28,952,511.0,578,462,60,131.0,80,1,275,163,42,0,0,496,10994,-10483,499,-5.59,,,,,,,,,,,,
17444,1564323013068,13,2.25,1.41,0.71,2.18,1.96,1.21,0.23,0.06,-5,-4,-6,1.23,6467,6,80,32,29,923,506.0,578,463,60,129.0,80,1,279,164,40,0,0,485,-28648,10305,494,414.87,44.681477,10.017844,52.95,177.1,0,0.0,-1,0.0,0.0,0,0.16,0.2907
17464,1564323013096,12,2.24,1.41,0.72,2.17,1.95,1.16,0.22,0.08,-5,-3,-6,1.18,6469,6,80,32,29,892,502.0,571,461,60,131.0,80,1,279,164,40,0,0,483,10408,2212,493,-5.59,,,,,,,,,,,,
17484,1564323013116,2,2.25,1.41,0.71,2.16,1.96,1.19,0.23,0.07,-5,-4,-7,1.22,6524,6,80,32,30,867,497.0,569,464,60,130.0,80,1,282,164,40,0,0,473,-9216,-23367,488,-5.59,,,,,,,,,,,,
17504,1564323013136,2,2.26,1.41,0.72,2.17,1.96,1.19,0.21,0.18,-5,-4,-6,1.21,6546,6,80,32,30,845,496.0,573,461,60,130.0,80,1,282,166,40,0,0,485,3,-6441,487,-5.59,,,,,,,,,,,,
17524,1564323013156,-0,2.26,1.41,0.72,2.17,1.96,1.13,0.25,0.22,-4,-0,-6,1.16,6530,6,80,32,29,837,493.0,572,458,60,131.0,80,1,279,164,40,0,0,485,-6528,-10483,486,-5.59,,,,,,,,,,,,
17544,1564323013176,1,2.25,1.41,0.71,2.18,1.96,1.18,0.28,0.21,-5,-1,-6,1.21,6569,6,80,32,30,846,493.0,572,462,60,130.0,84,1,282,166,41,0,0,484,248,32033,484,-5.59,44.68148,10.017826,51.01,177.1,0,0.0,-1,0.0,0.0,0,0.17,0.2924
17564,1564323013196,3,2.26,1.42,0.71,2.18,1.96,1.12,0.21,0.32,-4,1,-6,1.14,6588,6,80,32,30,856,489.0,571,458,60,129.0,84,1,282,166,41,0,0,477,-6656,-17956,482,-5.59,,,,,,,,,,,,
17584,1564323013216,-3,2.26,1.41,0.71,2.18,1.96,1.06,0.29,0.32,-4,2,-6,1.1,6558,6,80,32,30,867,487.0,570,463,60,131.0,84,1,282,166,41,0,0,483,505,3576,484,-5.59,,,,,,,,,,,,
17604,1564323013236,0,2.25,1.42,0.72,2.18,1.96,1.16,0.25,0.34,-4,-0,-6,1.19,6551,6,80,32,31,876,487.0,570,462,60,129.0,84,1,286,167,41,0,0,480,505,2212,480,-5.59,,,,,,,,,,,,
17624,1564323013256,3,2.25,1.41,0.72,2.18,1.95,1.06,0.21,0.38,-3,-0,-6,1.08,6519,6,80,32,31,879,485.0,568,463,60,130.0,84,1,286,167,41,0,0,480,-6441,2212,479,-5.59,,,,,,,,,,,,
17644,1564323013276,-2,2.24,1.41,0.72,2.18,1.95,0.99,0.26,0.31,-3,2,-6,1.03,6461,6,80,32,31,882,485.0,568,464,60,130.0,85,1,286,167,41,0,0,478,3580,3576,475,-5.59,44.68148,10.01781,48.39,177.1,0,0.0,-1,0.0,0.0,0,0.17,0.2941
17664,1564323013296,-0,2.21,1.41,0.71,2.18,1.95,1.08,0.26,0.26,-4,1,-6,1.11,6405,7,80,32,32,887,483.0,568,463,60,129.0,85,1,290,169,41,0,0,475,3580,32033,475,-5.59,,,,,,,,,,,,
17684,1564323013316,2,2.2,1.41,0.71,2.18,1.96,1.06,0.25,0.29,-5,1,-6,1.09,6410,7,80,32,32,890,482.0,564,463,60,130.0,85,1,290,169,41,0,0,476,-899,30272,474,-5.59,,,,,,,,,,,,
17704,1564323013336,-0,2.16,1.41,0.72,2.17,1.96,1.0,0.33,0.31,-6,1,-6,1.05,6405,7,80,32,32,890,482.0,561,462,60,131.0,85,1,290,169,41,0,0,474,3580,243,472,-5.59,,,,,,,,,,,,
17724,1564323013356,-1,2.13,1.41,0.71,2.18,1.95,1.06,0.39,0.29,-8,-1,-6,1.13,6368,7,80,32,32,888,486.0,562,465,60,131.0,85,1,290,169,41,0,0,479,-10483,30272,467,-5.59,,,,,,,,,,,,
17744,1564323013376,-0,2.12,1.4,0.71,2.16,1.95,1.09,0.39,0.31,-10,-2,-8,1.16,6408,7,80,32,33,884,485.0,563,462,60,129.0,86,1,292,174,40,0,0,478,-6441,16408,463,-5.59,44.681484,10.017794,47.26,177.1,0,0.0,-1,0.0,0.0,0,0.17,0.2957
17764,1564323013396,2,2.11,1.4,0.71,2.16,1.95,1.02,0.46,0.37,-11,-1,-10,1.11,6416,7,80,32,33,881,488.0,563,460,60,131.0,86,1,292,174,40,0,0,481,1,2211,458,-5.59,,,,,,,,,,,,
17784,1564323013416,-0,2.1,1.4,0.71,2.14,1.94,0.97,0.54,0.33,-13,-0,-11,1.11,6379,7,80,32,33,877,489.0,563,460,60,131.0,86,1,292,174,40,0,0,483,1,2524,456,-5.59,,,,,,,,,,,,
17804,1564323013436,-0,2.11,1.39,0.7,2.15,1.94,1.01,0.62,0.33,-15,-1,-13,1.19,6388,7,80,32,34,873,487.0,563,464,60,130.0,86,1,295,174,40,0,0,483,-6441,3571,457,-5.59,,,,,,,,,,,,
17824,1564323013456,1,2.11,1.4,0.71,2.14,1.94,1.01,0.57,0.35,-16,-3,-15,1.16,6294,7,80,32,34,870,485.0,561,465,60,128.0,86,1,295,179,40,0,0,481,-6441,15649,456,-5.59,,,,,,,,,,,,
17844,1564323013476,1,2.11,1.4,0.71,2.15,1.94,0.96,0.53,0.4,-16,-1,-18,1.1,6273,7,80,32,34,868,489.0,557,462,60,129.0,92,1,295,179,42,0,0,484,-6656,10305,453,-5.59,44.681488,10.017777,46.9,177.1,0,0.0,-1,0.0,0.0,0,0.17,0.2974
17864,1564323013494,2,2.11,1.4,0.71,2.14,1.95,0.86,0.66,0.43,-16,1,-21,1.08,6243,7,80,32,34,867,485.0,555,464,60,130.0,92,1,295,179,42,0,0,483,-6441,2131,451,-5.59,,,,,,,,,,,,
17884,1564323013514,-1,2.11,1.39,0.71,2.13,1.95,0.84,0.74,0.45,-17,1,-21,1.12,6227,8,80,32,34,866,483.0,556,460,60,131.0,92,1,295,179,42,0,0,477,-10483,15649,448,-5.59,,,,,,,,,,,,
17904,1564323013534,0,2.1,1.4,0.71,2.14,1.94,0.89,0.8,0.46,-17,1,-22,1.2,6216,8,80,32,34,867,483.0,556,462,60,131.0,92,1,295,101,42,0,0,476,3580,16648,449,-5.59,,,,,,,,,,,,
17924,1564323013554,-1,2.11,1.4,0.71,2.14,1.94,0.95,0.8,0.43,-18,0,-23,1.24,6229,8,80,32,35,869,482.0,552,462,60,130.0,92,1,298,185,42,0,0,474,-899,19477,447,-5.59,,,,,,,,,,,,
17944,1564323013574,0,2.1,1.4,0.72,2.14,1.94,0.98,0.73,0.38,-19,-2,-24,1.22,6229,8,80,32,35,870,481.0,550,465,60,130.0,96,1,298,185,43,0,0,473,2212,21432,446,-5.59,44.681488,10.017762,46.29,177.1,0,0.0,-1,0.0,0.0,0,0.17,0.2991
17964,1564323013593,1,2.1,1.4,0.72,2.13,1.95,0.91,0.69,0.43,-18,-2,-26,1.14,6229,8,80,32,35,872,478.0,547,461,60,130.0,96,1,298,185,43,0,0,479,16648,20625,445,-5.59,,,,,,,,,,,,
17984,1564323013613,3,2.1,1.39,0.72,2.13,1.95,0.83,0.68,0.5,-19,0,-26,1.07,6196,8,80,32,35,874,479.0,547,460,60,131.0,96,1,298,185,43,0,0,469,10305,26704,443,-5.59,,,,,,,,,,,,
18004,1564323013633,3,2.1,1.41,0.73,2.14,1.94,0.75,0.76,0.49,-20,2,-26,1.07,6202,8,80,32,35,876,477.0,548,461,60,129.0,96,1,298,185,43,0,0,473,2212,19477,443,-5.59,,,,,,,,,,,,
18024,1564323013653,3,2.12,1.41,0.72,2.15,1.95,0.83,0.79,0.49,-20,2,-27,1.14,6173,8,80,32,36,877,475.0,548,460,60,131.0,96,1,301,190,43,0,0,470,-17956,5600,441,-5.59,,,,,,,,,,,,
18044,1564323013673,-2,2.12,1.4,0.72,2.15,1.94,0.89,0.8,0.42,-21,1,-26,1.19,6147,8,80,32,36,876,477.0,545,460,60,131.0,99,1,301,190,44,0,0,469,2212,26704,441,-5.59,44.681492,10.017746,45.58,177.1,0,0.0,-1,0.0,0.0,0,0.17,0.3007
18064,1564323013692,-2,2.13,1.4,0.72,2.13,1.95,0.91,0.82,0.36,-21,1,-27,1.22,6139,8,80,32,36,875,473.0,542,460,60,131.0,99,1,301,190,44,0,0,468,3576,21580,441,-5.59,,,,,,,,,,,,
18084,1564323013712,-1,2.13,1.4,0.72,2.15,1.94,0.97,0.8,0.32,-21,1,-27,1.26,6141,8,80,32,36,875,471.0,541,461,60,130.0,99,1,301,190,44,0,0,467,32033,5600,441,-5.59,,,,,,,,,,,,
18104,1564323013732,-1,2.14,1.39,0.72,2.14,1.94,0.94,0.7,0.29,-20,-2,-28,1.18,6105,8,80,32,37,874,469.0,544,463,60,130.0,99,1,304,190,44,0,0,463,10432,5600,440,-5.59,,,,,,,,,,,,
18124,1564323013752,-1,2.17,1.4,0.73,2.14,1.94,0.92,0.57,0.33,-19,-3,-29,1.08,6123,8,80,32,37,874,467.0,544,463,60,130.0,99,1,304,196,44,0,0,460,243,243,440,-5.59,,,,,,,,,,,,
18144,1564323013772,0,2.2,1.4,0.73,2.15,1.94,0.86,0.54,0.35,-18,-3,-30,1.02,6093,8,80,32,37,872,465.0,541,463,60,129.0,102,1,304,196,45,0,0,462,30272,26704,440,-5.59,44.681492,10.01773,44.82,177.1,0,0.0,-1,0.0,0.0,0,0.17,0.3024
18164,1564323013792,-1,2.22,1.4,0.73,2.15,1.94,0.8,0.55,0.36,-17,-3,-30,0.97,6038,8,80,32,37,871,464.0,538,460,60,129.0,102,1,304,196,45,0,0,453,6193,26704,442,-5.59,,,,,,,,,,,,
18184,1564323013812,-0,2.24,1.4,0.74,2.15,1.94,0.75,0.54,0.38,-15,-4,-29,0.92,6036,8,80,32,37,869,459.0,536,463,60,129.0,102,1,304,202,45,0,0,453,-18108,21580,441,-5.59,,,,,,,,,,,,
18204,1564323013832,-0,2.27,1.4,0.73,2.14,1.94,0.69,0.53,0.37,-14,-4,-28,0.87,6064,8,80,32,38,867,458.0,537,463,60,129.0,102,1,307,202,45,0,0,453,14488,26704,444,-5.59,,,,,,,,,,,,
18224,1564323013852,1,2.3,1.41,0.74,2.14,1.95,0.64,0.53,0.33,-12,-4,-26,0.83,6077,8,80,32,37,865,455.0,535,462,60,130.0,102,1,304,202,45,0,0,452,-26615,-18341,444,-5.59,,,,,,,,,,,,
18244,1564323013872,2,2.34,1.4,0.73,2.14,1.95,0.6,0.55,0.34,-10,-4,-25,0.81,6079,8,80,32,38,862,450.0,536,463,60,129.0,103,1,307,202,46,0,0,445,-3267,-18341,446,-5.59,44.681492,10.017714,44.43,177.1,0,0.0,-1,0.0,0.0,0,0.17,0.3041
18264,1564323013896,3,2.35,1.41,0.73,2.15,1.94,0.56,0.57,0.32,-7,-3,-22,0.8,6085,8,80,32,38,861,448.0,538,460,60,131.0,103,1,307,202,46,0,0,445,8488,23400,447,-5.59,,,,,,,,,,,,
18284,1564323013916,4,2.37,1.41,0.73,2.16,1.94,0.56,0.51,0.33,-5,-1,-19,0.76,6034,9,80,32,38,860,450.0,540,461,60,131.0,103,1,307,202,46,0,0,444,16648,10305,449,-5.59,,,,,,,,,,,,
18304,1564323013936,3,2.39,1.41,0.72,2.16,1.96,0.57,0.42,0.35,-3,-1,-16,0.71,6028,9,80,32,38,858,450.0,538,462,60,131.0,103,1,307,202,46,0,0,442,-18341,-6387,450,-5.59,,,,,,,,,,,,
18324,1564323013956,3,2.41,1.41,0.73,2.16,1.95,0.57,0.33,0.4,-1,1,-14,0.66,5984,9,80,32,38,856,453.0,537,460,60,131.0,103,1,306,201,46,0,0,434,20625,8488,454,-5.59,,,,,,,,,,,,
18344,1564323013976,2,2.43,1.42,0.73,2.17,1.96,0.57,0.21,0.41,1,3,-11,0.61,5961,9,80,32,38,854,455.0,533,461,60,131.0,99,1,304,201,45,0,0,434,21580,10305,455,-5.59,44.681488,10.017699,44.05,177.1,0,0.0,-1,0.0,0.0,0,0.18,0.3057
18364,1564323013996,1,2.46,1.41,0.73,2.18,1.96,0.54,0.13,0.42,3,5,-8,0.56,5946,9,80,32,38,853,456.0,529,460,60,131.0,99,1,303,201,45,0,0,432,5600,3571,456,-5.59,,,,,,,,,,,,
18384,1564323014009,1,2.5,1.42,0.74,2.18,1.96,0.48,0.1,0.42,5,7,-5,0.49,6000,9,80,32,38,852,455.0,532,462,60,131.0,99,1,307,208,45,0,0,429,243,3571,455,-5.59,,,,,,,,,,,,
18404,1564323014029,1,2.54,1.42,0.73,2.17,1.96,0.45,0.06,0.43,8,7,-3,0.46,5954,9,80,32,39,852,455.0,537,463,60,131.0,99,1,307,207,45,0,0,427,-3322,-6387,456,-5.59,,,,,,,,,,,,
18424,1564323014049,0,2.56,1.42,0.74,2.17,1.96,0.42,0.02,0.4,11,8,0,0.42,5933,9,80,32,39,853,456.0,535,463,60,131.0,99,1,305,207,45,0,0,421,3635,-26615,456,-5.59,,,,,,,,,,,,
18444,1564323014069,0,2.59,1.42,0.73,2.19,1.96,0.36,-0.0,0.37,13,9,4,0.36,5939,9,80,32,39,854,458.0,530,462,60,130.0,100,1,306,207,46,0,0,415,-3856,14488,457,-5.59,44.681488,10.017684,44.05,177.1,0,0.0,-1,0.0,0.0,0,0.18,0.3074
18464,1564323014095,1,2.61,1.42,0.74,2.18,1.96,0.3,-0.05,0.34,16,9,7,0.31,5886,9,80,32,39,854,460.0,526,461,60,128.0,100,1,303,207,46,0,0,411,7154,-18108,460,-5.59,,,,,,,,,,,,
18484,1564323014115,-1,2.62,1.42,0.74,2.18,1.97,0.23,-0.13,0.39,19,9,9,0.27,5870,9,80,32,40,854,461.0,523,463,60,129.0,100,1,307,208,46,0,0,405,-3414,-9160,459,-5.59,,,,,,,,,,,,
18504,1564323014135,-1,2.63,1.42,0.74,2.18,1.96,0.21,-0.29,0.45,21,8,12,0.36,5822,9,80,32,40,853,458.0,521,464,60,129.0,100,1,304,208,46,0,0,407,18584,-26615,458,-5.59,,,,,,,,,,,,
18524,1564323014155,-1,2.63,1.42,0.73,2.19,1.96,0.26,-0.46,0.48,23,5,15,0.53,5779,9,80,32,41,852,459.0,512,464,60,130.0,100,1,307,209,46,0,0,402,2524,-26615,459,-5.59,,,,,,,,,,,,
18544,1564323014175,0,2.62,1.42,0.73,2.19,1.96,0.4,-0.56,0.38,25,2,19,0.69,5749,9,80,32,41,852,461.0,505,460,60,131.0,97,1,304,209,45,0,0,399,-9166,-26615,461,-5.59,44.681488,10.017669,43.9,177.0,0,0.0,-1,0.0,0.0,0,0.18,0.3091
18564,1564323014195,3,2.62,1.42,0.73,2.19,1.97,0.56,-0.64,0.31,27,-0,22,0.85,5728,9,80,32,41,852,458.0,502,461,60,131.0,97,1,303,209,45,0,0,389,9517,2524,458,-5.59,,,,,,,,,,,,
18584,1564323014215,1,2.63,1.43,0.73,2.19,1.97,0.62,-0.68,0.26,28,1,25,0.92,5688,9,80,32,41,852,458.0,504,457,60,131.0,97,1,301,210,45,0,0,382,10392,-8985,459,-5.59,,,,,,,,,,,,
18604,1564323014235,0,2.62,1.42,0.73,2.19,1.97,0.51,-0.75,0.27,30,2,26,0.9,5662,9,80,32,42,854,458.0,495,462,60,129.0,97,1,304,210,45,0,0,376,2524,2524,458,-5.59,,,,,,,,,,,,
18624,1564323014255,-1,2.62,1.42,0.73,2.18,1.96,0.49,-0.83,0.28,31,-0,29,0.97,5567,13,80,32,43,857,459.0,494,463,60,130.0,97,1,302,211,45,0,0,369,-9211,15649,459,-5.59,,,,,,,,,,,,
18644,1564323014275,3,2.61,1.42,0.73,2.19,1.97,0.64,-0.82,0.25,33,-1,32,1.04,5530,20,80,32,45,861,458.0,493,462,60,131.0,96,1,308,214,44,0,0,365,10541,15649,458,-5.59,44.681488,10.017653,43.66,177.0,0,0.0,-1,0.0,0.0,0,0.18,0.3107
18664,1564323014297,-1,2.61,1.42,0.74,2.19,1.97,0.64,-0.85,0.25,34,2,34,1.07,5493,27,80,32,49,863,457.0,487,462,60,129.0,96,1,321,226,44,0,0,360,11545,2131,457,-5.59,,,,,,,,,,,,
18684,1564323014317,-0,2.61,1.42,0.73,2.19,1.97,0.58,-0.97,0.29,34,1,36,1.13,5514,38,80,32,55,866,454.0,451,463,60,129.0,96,1,341,249,44,0,0,352,6512,3571,454,-5.59,,,,,,,,,,,,
18704,1564323014337,2,2.61,1.42,0.74,2.18,1.97,0.65,-0.97,0.3,35,-1,39,1.17,5585,48,80,32,63,869,454.0,361,460,60,131.0,96,1,332,265,44,0,0,353,6384,2131,452,-5.59,,,,,,,,,,,,
18724,1564323014357,2,2.61,1.42,0.74,2.19,1.97,0.72,-0.94,0.33,36,0,41,1.19,5711,54,80,32,71,869,452.0,310,457,60,131.0,96,1,331,335,44,0,0,352,-3968,21432,452,-5.59,,,,,,,,,,,,
18744,1564323014377,1,2.6,1.42,0.73,2.19,1.97,0.63,-1.01,0.32,37,2,42,1.19,5700,58,80,32,76,869,450.0,283,457,60,130.0,180,1,326,412,81,0,0,356,17144,23400,451,-5.59,44.681488,10.017638,43.11,177.0,0,0.0,-1,0.0,0.0,0,0.18,0.3124
18764,1564323014398,0,2.59,1.42,0.74,2.19,1.96,0.58,-1.11,0.35,37,3,42,1.25,5678,60,80,32,81,868,448.0,270,460,60,128.0,180,1,322,452,81,0,0,360,-32702,-18341,448,-5.59,,,,,,,,,,,,
18784,1564323014418,-2,2.58,1.43,0.73,2.19,1.97,0.67,-1.15,0.33,36,0,43,1.33,5661,61,80,32,84,867,449.0,258,463,60,130.0,180,1,319,469,81,0,0,365,-32702,26704,449,-5.59,,,,,,,,,,,,
18804,1564323014438,4,2.55,1.43,0.74,2.19,1.97,0.76,-1.11,0.37,37,-1,44,1.35,5669,61,80,32,84,862,449.0,248,458,60,131.0,180,1,320,472,81,0,0,367,-1818,26704,449,-5.59,,,,,,,,,,,,
18824,1564323014458,1,2.53,1.43,0.74,2.18,1.98,0.71,-1.13,0.41,37,-1,45,1.34,5700,62,80,32,85,856,445.0,232,461,60,130.0,180,1,320,476,81,0,0,374,-1818,16648,445,-5.59,,,,,,,,,,,,
18844,1564323014478,-0,2.5,1.42,0.74,2.19,1.97,0.61,-1.12,0.42,36,-0,46,1.28,5774,62,80,32,85,853,443.0,231,462,60,130.0,231,1,324,476,103,0,0,374,17144,19477,443,-5.59,44.681492,10.017623,42.57,177.1,0,0.0,-1,0.0,0.0,0,0.18,0.3141
18864,1564323014493,-1,2.46,1.42,0.74,2.19,1.97,0.61,-1.13,0.42,35,-0,46,1.29,5863,62,80,32,85,851,441.0,233,459,60,129.0,231,1,328,478,103,0,0,379,-32702,21580,441,-5.59,,,,,,,,,,,,
18884,1564323014513,-1,2.42,1.42,0.73,2.19,1.97,0.69,-1.19,0.31,33,-1,46,1.37,6027,62,80,32,86,902,439.0,240,460,60,129.0,231,1,333,484,103,0,0,400,6384,243,438,-5.59,,,,,,,,,,,,
18904,1564323014533,2,2.4,1.42,0.73,2.19,1.97,0.7,-1.14,0.44,30,-4,44,1.34,6109,62,80,32,86,953,436.0,245,458,60,129.0,231,1,336,486,103,0,0,437,11545,5600,436,-5.59,,,,,,,,,,,,
18924,1564323014553,3,2.38,1.42,0.73,2.18,1.97,0.64,-1.08,0.5,28,-4,43,1.26,6204,63,80,32,86,1007,434.0,249,461,60,129.0,231,1,341,489,103,0,0,485,1504,243,434,-5.59,,,,,,,,,,,,
18944,1564323014573,1,2.37,1.42,0.73,2.18,1.97,0.54,-1.05,0.46,27,-2,42,1.18,6306,63,80,32,86,1062,433.0,245,461,60,131.0,267,1,345,492,116,0,0,412,-4059,-28332,430,-5.59,44.681496,10.01761,41.96,177.0,0,0.0,-1,0.0,0.0,0,0.18,0.3157
18964,1564323014593,1,2.35,1.42,0.73,2.18,1.97,0.57,-0.92,0.51,25,1,39,1.08,6155,63,80,32,86,1165,432.0,244,460,60,131.0,267,1,339,487,116,0,0,431,-26615,-18341,432,-5.59,,,,,,,,,,,,
18984,1564323014609,2,2.33,1.42,0.73,2.19,1.96,0.64,-0.82,0.58,23,2,38,1.04,5909,58,80,32,86,1268,435.0,241,460,60,130.0,267,1,328,482,116,0,0,443,-21792,21432,435,-5.59,,,,,,,,,,,,
19004,1564323014629,1,2.32,1.42,0.73,2.18,1.97,0.65,-0.72,0.62,20,3,35,0.97,5681,54,80,32,85,1332,436.0,233,457,60,130.0,267,1,319,475,116,0,0,429,-3856,2131,436,-5.59,,,,,,,,,,,,
19024,1564323014649,0,2.3,1.41,0.72,2.18,1.96,0.57,-0.67,0.67,18,2,32,0.88,5730,53,80,32,84,1382,436.0,226,460,60,129.0,267,1,323,476,116,0,0,433,13180,-28332,436,-5.59,,,,,,,,,,,,
19044,1564323014669,0,2.29,1.41,0.72,2.16,1.94,0.59,-0.63,0.74,16,0,29,0.86,5929,53,80,32,84,1394,435.0,220,461,60,129.0,238,1,335,476,104,0,0,435,1779,20625,435,-5.59,44.6815,10.017596,41.23,177.0,0,0.0,-1,0.0,0.0,0,0.18,0.3174
19064,1564323014691,-1,2.29,1.39,0.7,2.14,1.93,0.63,-0.6,0.79,14,-2,26,0.87,6123,53,80,32,83,1399,435.0,217,460,60,129.0,238,1,347,477,104,0,0,438,-768,2131,436,-5.59,,,,,,,,,,,,
19084,1564323014711,2,2.28,1.39,0.69,2.13,1.91,0.56,-0.47,0.79,13,-2,23,0.73,6159,52,80,33,83,1367,438.0,214,462,60,130.0,238,1,348,478,104,0,0,448,21580,2131,437,-5.59,,,,,,,,,,,,
19104,1564323014731,2,2.26,1.38,0.69,2.13,1.91,0.47,-0.36,0.75,12,-1,20,0.6,6125,52,80,32,83,1320,441.0,212,460,60,129.0,238,1,347,477,104,0,0,454,26704,-9160,439,-5.59,,,,,,,,,,,,
19124,1564323014751,1,2.25,1.38,0.69,2.12,1.9,0.43,-0.28,0.72,10,1,19,0.51,6101,52,80,33,83,1265,446.0,212,460,60,130.0,238,1,346,477,104,0,0,451,16648,10305,443,-5.59,,,,,,,,,,,,
19144,1564323014771,3,2.22,1.38,0.68,2.12,1.91,0.39,-0.19,0.76,8,1,17,0.43,6067,52,80,33,83,1206,448.0,218,460,60,130.0,245,1,345,476,109,0,0,455,-3267,-8985,444,-5.59,44.681503,10.017583,42.07,177.0,0,0.0,-1,0.0,0.0,0,0.18,0.3191
19164,1564323014793,2,2.17,1.37,0.68,2.11,1.91,0.39,-0.07,0.75,6,1,15,0.4,6127,52,80,33,82,1173,453.0,228,460,60,131.0,245,1,348,472,109,0,0,456,-8985,15649,446,-5.59,,,,,,,,,,,,
19184,1564323014813,2,2.12,1.36,0.67,2.1,1.9,0.45,0.06,0.7,3,-0,13,0.45,6179,52,80,33,82,1160,455.0,246,463,60,131.0,245,1,350,473,109,0,0,456,-9160,8488,442,-5.59,,,,,,,,,,,,
19204,1564323014833,-0,2.05,1.36,0.66,2.1,1.88,0.49,0.1,0.67,-0,-1,11,0.5,6245,51,80,33,82,1143,459.0,260,461,60,130.0,245,1,352,474,109,0,0,462,-18108,-26615,441,-5.59,,,,,,,,,,,,
19224,1564323014853,0,1.99,1.36,0.66,2.09,1.88,0.55,0.14,0.64,-3,-2,8,0.57,6252,48,80,33,82,1124,464.0,278,460,60,130.0,245,1,352,474,109,0,0,466,30272,17628,438,-5.59,,,,,,,,,,,,
19244,1564323014873,2,1.92,1.35,0.66,2.07,1.87,0.54,0.18,0.68,-5,-3,4,0.56,6353,44,80,33,81,1112,466.0,295,462,60,130.0,260,1,357,469,114,0,0,469,-3210,-1923,435,-5.59,44.681507,10.01757,43.18,177.0,0,0.0,-1,0.0,0.0,0,0.19,0.3207
19264,1564323014897,3,1.85,1.35,0.64,2.06,1.86,0.52,0.31,0.7,-7,-3,1,0.61,6430,41,80,33,79,1105,464.0,317,453,60,130.0,260,1,361,458,114,0,0,468,16408,-899,435,-5.59,,,,,,,,,,,,
19284,1564323014917,-0,1.79,1.34,0.65,2.06,1.85,0.54,0.44,0.65,-9,-2,-3,0.7,6528,38,80,33,77,1097,463.0,335,458,60,131.0,260,1,365,447,114,0,0,471,6193,2212,435,-5.59,,,,,,,,,,,,
19304,1564323014937,2,1.73,1.35,0.65,2.06,1.87,0.57,0.4,0.65,-11,-3,-7,0.7,6555,34,80,33,75,1091,463.0,355,458,60,129.0,260,1,368,425,114,0,0,476,6193,2212,432,-5.59,,,,,,,,,,,,
19324,1564323014957,2,1.68,1.35,0.66,2.07,1.86,0.53,0.52,0.63,-13,-2,-9,0.74,6558,29,80,33,72,1086,461.0,369,457,60,131.0,260,1,371,379,114,0,0,483,12552,-3414,429,-5.59,,,,,,,,,,,,
19344,1564323014977,-0,1.64,1.35,0.67,2.08,1.87,0.58,0.63,0.59,-15,-2,-12,0.85,6588,26,80,33,69,1086,460.0,391,460,60,130.0,209,1,378,333,90,0,0,480,-23623,-9216,426,-5.59,44.681515,10.017558,44.16,177.0,0,0.0,-1,0.0,0.0,0,0.19,0.3224
19364,1564323014997,3,1.61,1.36,0.67,2.08,1.89,0.62,0.61,0.63,-17,-3,-15,0.87,6663,25,80,33,66,1082,460.0,406,456,60,130.0,209,1,389,314,90,0,0,484,-9160,-23367,425,-5.59,,,,,,,,,,,,
19384,1564323015008,-1,1.6,1.35,0.68,2.08,1.88,0.59,0.71,0.61,-18,-2,-18,0.92,6602,25,80,33,65,1073,458.0,413,462,60,130.0,209,1,390,295,90,0,0,487,17628,3580,421,-5.59,,,,,,,,,,,,
19404,1564323015028,-0,1.61,1.36,0.68,2.09,1.88,0.65,0.71,0.58,-20,-2,-19,0.96,6501,24,80,33,63,1066,457.0,417,458,60,129.0,209,1,395,285,90,0,0,486,-23623,1,419,-5.59,,,,,,,,,,,,
19424,1564323015048,3,1.59,1.36,0.69,2.09,1.89,0.65,0.78,0.63,-20,-3,-21,1.02,6474,24,80,32,62,1059,457.0,438,460,60,130.0,209,1,398,277,90,0,0,483,-9160,243,418,-5.59,,,,,,,,,,,,
19444,1564323015068,-1,1.6,1.36,0.69,2.09,1.9,0.67,0.91,0.52,-21,-3,-23,1.13,6425,24,80,32,61,1042,456.0,458,456,60,131.0,158,1,399,269,66,0,0,480,14488,-1923,419,-5.59,44.681522,10.017544,44.45,177.0,0,0.0,-1,0.0,0.0,0,0.19,0.3241
19464,1564323015096,-0,1.59,1.36,0.69,2.1,1.9,0.72,0.89,0.49,-23,-4,-24,1.15,6423,24,80,32,61,1013,456.0,476,463,60,129.0,158,1,399,268,66,0,0,481,14488,32033,417,-5.59,,,,,,,,,,,,
19484,1564323015116,1,1.6,1.37,0.69,2.1,1.9,0.76,0.92,0.56,-23,-4,-26,1.19,6469,24,80,32,60,986,454.0,493,460,60,130.0,158,1,398,269,66,0,0,479,2524,-899,416,-5.59,,,,,,,,,,,,
19504,1564323015136,-0,1.58,1.37,0.69,2.11,1.9,0.75,1.03,0.57,-23,-4,-28,1.27,6528,24,80,32,60,965,450.0,503,462,60,131.0,158,1,400,193,66,0,0,478,-3267,32033,416,-5.59,,,,,,,,,,,,
19524,1564323015156,1,1.55,1.36,0.69,2.11,1.9,0.76,1.02,0.55,-25,-4,-28,1.27,6526,23,80,32,59,939,451.0,520,461,60,129.0,158,1,398,270,66,0,0,476,3571,-899,414,-5.59,,,,,,,,,,,,
19544,1564323015176,3,1.53,1.36,0.69,2.12,1.9,0.81,0.96,0.61,-26,-5,-31,1.25,6519,23,80,32,58,903,449.0,532,457,60,130.0,160,1,396,266,66,0,0,477,15649,998,412,-5.59,44.681522,10.017529,44.84,177.0,0,0.0,-1,0.0,0.0,0,0.19,0.3257
19564,1564323015197,-1,1.51,1.37,0.7,2.12,1.91,0.81,1.06,0.59,-26,-3,-32,1.33,6533,23,80,32,58,870,447.0,535,456,60,130.0,160,1,396,267,66,0,0,478,10305,-32768,410,-5.59,,,,,,,,,,,,
19584,1564323015217,-0,1.46,1.36,0.7,2.11,1.9,0.8,1.05,0.59,-27,-3,-36,1.32,6585,23,80,32,57,855,439.0,542,462,60,129.0,160,1,395,268,66,0,0,475,-28332,-6441,410,-5.59,,,,,,,,,,,,
19604,1564323015237,3,1.44,1.37,0.71,2.12,1.9,0.89,1.05,0.64,-28,-3,-36,1.37,6597,23,80,32,57,843,442.0,550,460,60,130.0,160,1,395,266,66,0,0,479,21432,-6441,405,-5.59,,,,,,,,,,,,
19624,1564323015257,-1,1.42,1.37,0.71,2.12,1.91,0.85,1.1,0.63,-29,-3,-37,1.39,6576,23,80,32,57,837,437.0,553,461,60,130.0,160,1,394,265,66,0,0,477,19477,8488,401,-5.59,,,,,,,,,,,,
19644,1564323015277,1,1.39,1.37,0.71,2.13,1.91,0.92,1.05,0.58,-30,-3,-39,1.4,6474,23,80,32,56,832,434.0,555,459,60,129.0,162,1,390,263,65,0,0,472,-768,32033,397,-5.59,44.681526,10.017514,44.71,177.0,0,0.0,-1,0.0,0.0,0,0.19,0.3274
19664,1564323015296,3,1.37,1.37,0.71,2.13,1.91,0.9,1.14,0.61,-30,-4,-38,1.45,6412,20,80,32,56,840,431.0,550,458,60,131.0,162,1,389,260,65,0,0,475,-3314,6193,392,-5.59,,,,,,,,,,,,
19684,1564323015316,-1,1.36,1.37,0.72,2.13,1.91,0.89,1.2,0.51,-31,-4,-39,1.49,6336,17,80,32,55,848,426.0,547,461,60,130.0,162,1,387,258,65,0,0,470,13552,-16384,388,-5.59,,,,,,,,,,,,
19704,1564323015336,-2,1.35,1.37,0.72,2.13,1.92,0.9,1.18,0.43,-31,-5,-39,1.48,6227,16,80,32,54,859,420.0,541,461,60,131.0,162,1,385,258,65,0,0,470,-8165,-6656,386,181.28,,,,,,,,,,,,
19724,1564323015356,-1,1.35,1.37,0.71,2.15,1.91,0.96,1.1,0.37,-31,-7,-39,1.46,6216,15,80,32,53,871,419.0,539,463,60,129.0,162,1,381,252,65,0,0,461,7154,32033,383,414.87,,,,,,,,,,,,
19744,1564323015376,0,1.37,1.37,0.72,2.15,1.92,0.94,1.07,0.44,-30,-8,-40,1.43,6319,15,80,32,52,874,416.0,540,466,60,129.0,157,1,378,246,60,0,0,458,-9166,2212,379,414.87,44.68153,10.017499,44.04,177.0,0,0.0,-1,0.0,0.0,0,0.19,0.3291
19764,1564323015396,1,1.38,1.37,0.72,2.14,1.92,0.91,1.12,0.39,-30,-5,-40,1.44,6377,15,80,32,51,876,416.0,541,460,60,130.0,157,1,376,241,60,0,0,457,18584,2212,379,181.28,,,,,,,,,,,,
19784,1564323015416,-2,1.4,1.37,0.72,2.15,1.91,0.89,1.14,0.38,-31,-4,-41,1.45,6394,15,80,32,50,874,413.0,543,461,60,131.0,157,1,372,235,60,0,0,456,-9166,3576,377,181.28,,,,,,,,,,,,
19804,1564323015436,-0,1.42,1.37,0.72,2.15,1.92,0.97,1.12,0.35,-32,-5,-41,1.48,6425,15,80,32,49,873,417.0,545,463,60,130.0,157,1,370,230,60,0,0,451,-21944,-3210,377,-5.59,,,,,,,,,,,,
19824,1564323015456,2,1.43,1.38,0.72,2.15,1.91,0.95,1.02,0.44,-32,-6,-42,1.39,6403,15,80,32,49,870,420.0,550,462,60,129.0,157,1,370,230,60,0,0,456,-8165,-16384,376,181.28,,,,,,,,,,,,
19844,1564323015476,3,1.45,1.38,0.72,2.14,1.92,0.92,1.12,0.47,-32,-5,-43,1.45,6308,15,80,32,48,865,420.0,550,458,60,131.0,145,1,366,224,55,0,0,456,-8165,243,378,-5.59,44.68153,10.017484,43.48,177.0,0,0.0,-1,0.0,0.0,0,0.19,0.3307
19864,1564323015494,-1,1.5,1.37,0.73,2.15,1.91,0.91,1.18,0.49,-33,-4,-44,1.49,6194,15,80,32,48,858,421.0,543,461,60,131.0,145,1,364,223,55,0,0,458,-21792,6193,376,-5.59,,,,,,,,,,,,
19884,1564323015514,-1,1.52,1.38,0.72,2.15,1.91,0.93,1.19,0.54,-33,-3,-45,1.51,6103,15,80,32,48,851,425.0,536,461,60,130.0,145,1,364,223,55,0,0,452,-3856,19477,378,-5.59,,,,,,,,,,,,
19904,1564323015534,-2,1.59,1.38,0.73,2.15,1.92,0.93,1.2,0.51,-34,-2,-46,1.52,6001,15,80,32,48,848,425.0,530,460,60,130.0,145,1,363,145,55,0,0,450,31796,-28332,379,-5.59,,,,,,,,,,,,
19924,1564323015554,-1,1.68,1.37,0.72,2.15,1.91,0.96,1.19,0.49,-34,-2,-45,1.53,5892,15,80,32,49,846,429.0,526,462,60,130.0,145,1,357,228,55,0,0,447,3635,15649,382,-5.59,,,,,,,,,,,,
19944,1564323015574,1,1.77,1.38,0.72,2.16,1.92,0.95,1.24,0.52,-35,-2,-46,1.57,5879,16,80,32,49,839,433.0,523,461,60,130.0,130,1,355,228,50,0,0,444,243,21432,384,-5.59,44.68153,10.017468,42.47,177.0,0,0.0,-1,0.0,0.0,0,0.19,0.3324
19964,1564323015592,3,1.88,1.38,0.72,2.16,1.91,0.96,1.28,0.52,-35,-1,-47,1.6,5885,22,80,32,50,831,442.0,521,462,60,130.0,130,1,359,233,50,0,0,442,23400,-3322,392,-5.59,,,,,,,,,,,,
19984,1564323015612,3,2.0,1.38,0.72,2.13,1.9,0.93,1.31,0.53,-35,0,-47,1.61,5942,27,80,32,52,825,446.0,519,460,60,130.0,130,1,371,245,50,0,0,441,16648,13180,396,-5.59,,,,,,,,,,,,
20004,1564323015632,1,2.14,1.37,0.7,2.12,1.88,0.86,1.33,0.59,-35,2,-47,1.59,6001,28,80,32,54,819,451.0,520,458,60,131.0,130,1,384,258,50,0,0,445,3571,-8165,398,-5.59,,,,,,,,,,,,
20024,1564323015652,3,2.25,1.37,0.7,2.11,1.87,0.82,1.27,0.65,-33,3,-47,1.51,6085,28,80,32,56,813,445.0,522,458,60,131.0,130,1,384,257,50,0,0,448,2131,-26615,402,-5.59,,,,,,,,,,,,
20044,1564323015672,1,2.35,1.37,0.69,2.11,1.86,0.8,1.2,0.77,-29,4,-47,1.44,6050,32,80,32,58,807,440.0,523,461,60,130.0,145,1,384,255,59,0,0,444,20625,-3856,408,-5.59,44.68153,10.017454,41.53,177.0,0,0.0,-1,0.0,0.0,0,0.2,0.3341
20064,1564323015692,2,2.41,1.37,0.69,2.12,1.87,0.75,1.06,0.81,-25,4,-44,1.3,5922,38,80,32,61,804,433.0,518,460,60,131.0,145,1,372,251,59,0,0,434,-3314,31796,423,-5.59,,,,,,,,,,,,
20084,1564323015712,1,2.49,1.38,0.7,2.13,1.88,0.61,1.01,0.79,-19,6,-41,1.18,5769,53,80,32,67,804,430.0,509,457,60,130.0,145,1,341,293,59,0,0,431,13552,5600,430,-5.59,,,,,,,,,,,,
20104,1564323015732,0,2.55,1.39,0.7,2.14,1.89,0.49,0.85,0.84,-13,6,-38,0.98,5674,67,80,32,75,803,433.0,500,458,60,130.0,145,1,325,396,59,0,0,428,-8165,-7939,433,-5.59,,,,,,,,,,,,
20124,1564323015752,0,2.61,1.4,0.71,2.15,1.9,0.46,0.61,0.82,-8,5,-33,0.76,5700,76,80,32,84,801,433.0,491,460,60,130.0,145,1,321,473,59,0,0,421,-3414,26704,433,-5.59,,,,,,,,,,,,
20144,1564323015772,-1,2.65,1.39,0.71,2.16,1.91,0.62,0.48,0.78,-4,1,-27,0.78,5690,80,80,32,90,799,435.0,488,461,60,131.0,241,1,314,491,105,0,0,419,13040,20625,435,-5.59,44.68153,10.01744,40.86,177.0,0,0.0,-1,0.0,0.0,0,0.2,0.3357
20164,1564323015792,1,2.68,1.41,0.73,2.16,1.93,0.76,0.36,0.74,-2,-1,-21,0.84,5645,81,80,32,92,796,434.0,485,462,60,131.0,241,1,313,446,105,0,0,422,11560,-768,434,-5.59,,,,,,,,,,,,
20184,1564323015812,1,2.68,1.41,0.73,2.17,1.93,0.69,0.24,0.74,2,0,-17,0.73,5642,81,80,32,92,801,435.0,483,465,60,130.0,241,1,313,536,105,0,0,424,2524,19477,438,-5.59,,,,,,,,,,,,
20204,1564323015832,-0,2.66,1.41,0.74,2.17,1.94,0.69,0.04,0.78,6,-1,-13,0.7,5688,82,80,32,93,816,439.0,482,462,60,129.0,241,1,314,534,105,0,0,422,1504,21580,439,-5.59,,,,,,,,,,,,
20224,1564323015852,0,2.63,1.41,0.74,2.18,1.93,0.77,-0.09,0.8,9,-4,-7,0.78,5870,82,80,32,93,831,441.0,483,461,60,130.0,241,1,316,528,105,0,0,423,10541,-18341,441,-5.59,,,,,,,,,,,,
20244,1564323015872,1,2.6,1.41,0.74,2.18,1.94,0.84,-0.26,0.71,12,-3,-1,0.88,6325,82,80,32,92,848,444.0,495,461,60,129.0,275,1,334,527,122,0,0,425,-8151,2131,444,-5.59,44.681526,10.017426,41.86,177.0,0,0.0,-1,0.0,0.0,0,0.2,0.3374
20264,1564323015896,-1,2.57,1.41,0.73,2.18,1.93,0.76,-0.39,0.74,15,-0,4,0.85,6674,82,80,32,92,908,446.0,516,460,60,130.0,275,1,353,526,122,0,0,452,6384,-3267,446,-5.59,,,,,,,,,,,,
20284,1564323015916,1,2.52,1.41,0.73,2.18,1.93,0.76,-0.42,0.8,17,0,10,0.87,6725,82,80,32,93,1021,452.0,530,465,60,130.0,275,1,355,529,122,0,0,512,-3968,-9160,452,-5.59,,,,,,,,,,,,
20304,1564323015936,1,2.48,1.41,0.74,2.18,1.93,0.67,-0.48,0.82,19,3,15,0.83,6786,83,80,32,92,1132,456.0,543,460,60,130.0,275,1,359,528,122,0,0,567,-3968,-3210,456,-5.59,,,,,,,,,,,,
20324,1564323015956,1,2.46,1.41,0.73,2.18,1.93,0.8,-0.51,0.81,19,2,20,0.95,7091,83,80,32,92,1227,456.0,550,463,60,130.0,275,1,378,533,122,0,0,588,-3968,-8985,453,-5.59,,,,,,,,,,,,
20344,1564323015976,3,2.45,1.4,0.74,2.17,1.94,0.67,-0.5,0.81,19,3,23,0.83,7295,83,80,32,92,1310,453.0,568,462,60,130.0,322,1,394,546,147,0,0,604,10541,-9160,453,-5.59,44.681522,10.017412,42.32,177.0,0,0.0,-1,0.0,0.0,0,0.2,0.3391
20364,1564323015996,1,2.45,1.4,0.73,2.17,1.94,0.54,-0.5,0.87,19,5,25,0.74,7545,83,80,32,91,1355,453.0,586,460,60,130.0,322,1,419,556,147,0,0,636,-26615,-16384,452,-5.59,,,,,,,,,,,,
20384,1564323016010,3,2.45,1.41,0.73,2.18,1.94,0.49,-0.51,0.83,20,5,27,0.7,7802,83,80,32,90,1381,452.0,595,462,60,130.0,322,1,434,567,147,0,0,602,-9166,-23367,452,-5.59,,,,,,,,,,,,
20404,1564323016030,0,2.46,1.4,0.73,2.18,1.94,0.48,-0.56,0.91,22,7,29,0.73,7697,83,80,32,89,1331,454.0,605,462,60,129.0,322,1,425,553,147,0,0,522,-21792,-28648,458,-5.59,,,,,,,,,,,,
20424,1564323016050,2,2.46,1.4,0.74,2.18,1.95,0.5,-0.53,1.0,23,8,30,0.73,7137,79,80,32,90,1269,469.0,598,460,60,128.0,322,1,382,540,147,0,0,553,-3856,6274,469,-5.59,,,,,,,,,,,,
20444,1564323016070,0,2.46,1.41,0.73,2.18,1.94,0.45,-0.49,1.02,24,8,31,0.67,6677,73,80,32,90,1168,479.0,581,458,60,131.0,291,1,354,522,138,0,0,504,-4082,-21872,479,-5.59,44.681522,10.017398,42.09,176.9,0,0.0,-1,0.0,0.0,0,0.2,0.3407
20464,1564323016095,1,2.46,1.41,0.74,2.18,1.96,0.56,-0.62,0.98,25,2,30,0.83,6375,73,80,32,91,1068,480.0,528,461,60,130.0,291,1,335,515,138,0,0,448,3826,-22519,478,-5.59,,,,,,,,,,,,
20484,1564323016115,0,2.47,1.41,0.74,2.18,1.96,0.56,-0.72,0.9,27,-1,29,0.92,6173,72,80,32,91,1018,478.0,480,458,60,130.0,291,1,326,509,138,0,0,482,-21792,3580,478,-5.59,,,,,,,,,,,,
20504,1564323016135,4,2.46,1.41,0.74,2.19,1.95,0.52,-0.82,0.87,28,-1,28,0.97,6250,72,80,32,91,967,478.0,400,460,60,129.0,291,1,330,512,138,0,0,482,7154,-899,478,-5.59,,,,,,,,,,,,
20524,1564323016155,0,2.46,1.41,0.74,2.18,1.95,0.47,-0.8,0.92,27,-1,28,0.93,6441,72,80,32,90,910,477.0,372,458,60,130.0,291,1,341,512,138,0,0,483,-8165,32033,478,-5.59,,,,,,,,,,,,
20544,1564323016175,2,2.46,1.41,0.74,2.18,1.95,0.53,-0.8,0.87,26,-5,28,0.96,6713,80,80,32,91,853,481.0,415,462,60,130.0,267,1,356,524,128,0,0,495,243,-1562,481,-5.59,44.681522,10.017383,42.7,176.9,0,0.0,-1,0.0,0.0,0,0.2,0.3424
20564,1564323016197,-0,2.44,1.42,0.73,2.19,1.95,0.46,-0.81,0.86,26,-3,30,0.93,6931,89,80,32,92,848,484.0,401,462,60,131.0,267,1,367,532,128,0,0,511,-3267,-1818,484,-5.59,,,,,,,,,,,,
20584,1564323016217,3,2.42,1.42,0.73,2.19,1.95,0.6,-0.85,0.77,25,-3,32,1.04,7170,96,80,32,93,842,492.0,432,460,60,130.0,267,1,383,539,128,0,0,539,2524,11560,492,-5.59,,,,,,,,,,,,
20604,1564323016237,4,2.41,1.41,0.74,2.18,1.96,0.63,-0.77,0.7,24,-2,34,1.0,7321,96,80,32,93,856,493.0,394,466,60,130.0,267,1,395,546,128,0,0,573,14488,-32248,495,-5.59,,,,,,,,,,,,
20624,1564323016257,1,2.4,1.41,0.73,2.18,1.94,0.53,-0.73,0.73,23,-0,34,0.9,7384,96,81,32,93,872,496.0,384,460,60,131.0,267,1,399,550,128,0,0,597,12552,6274,496,-5.59,,,,,,,,,,,,
20644,1564323016277,0,2.41,1.41,0.74,2.18,1.95,0.5,-0.74,0.81,23,0,33,0.9,7183,96,80,32,92,892,495.0,375,448,60,130.0,294,1,385,541,146,0,0,490,-16384,-32248,495,-5.59,44.681522,10.017367,46.18,176.9,0,0.0,-1,0.0,0.0,0,0.2,0.3441
20664,1564323016297,-0,2.4,1.4,0.73,2.18,1.95,0.52,-0.82,0.88,23,1,31,0.97,6908,91,80,32,93,913,496.0,404,460,60,130.0,294,1,365,531,146,0,0,492,3576,6274,496,-5.59,,,,,,,,,,,,
20684,1564323016317,1,2.4,1.41,0.74,2.18,1.95,0.61,-0.81,0.88,22,1,30,1.02,6865,86,80,32,93,924,498.0,367,462,60,129.0,294,1,363,530,146,0,0,519,-23367,6274,498,-5.59,,,,,,,,,,,,
20704,1564323016337,-1,2.39,1.4,0.73,2.18,1.95,0.44,-0.76,0.99,20,2,28,0.88,6840,83,80,32,93,935,501.0,335,455,60,131.0,294,1,362,529,146,0,0,511,-899,-21872,501,-5.59,,,,,,,,,,,,
20724,1564323016357,1,2.38,1.41,0.73,2.18,1.94,0.6,-0.73,0.95,19,-3,27,0.94,6835,83,80,32,93,932,502.0,352,462,60,129.0,294,1,361,530,146,0,0,500,-1562,-21872,502,-5.59,,,,,,,,,,,,
20744,1564323016377,1,2.36,1.41,0.73,2.17,1.94,0.51,-0.63,0.93,17,-1,27,0.81,6838,82,80,32,92,923,504.0,348,461,60,131.0,272,1,362,529,137,0,0,501,1,26178,503,-5.59,44.681522,10.017351,46.82,176.9,0,0.0,-1,0.0,0.0,0,0.2,0.3457
20764,1564323016397,2,2.35,1.41,0.72,2.17,1.95,0.53,-0.58,1.0,16,-2,26,0.79,6911,82,81,32,92,933,504.0,326,461,60,130.0,272,1,366,531,137,0,0,510,998,-14,504,-5.59,,,,,,,,,,,,
20784,1564323016417,-0,2.33,1.4,0.73,2.18,1.93,0.57,-0.5,0.9,14,-3,25,0.76,6947,81,80,32,93,949,509.0,320,461,60,130.0,272,1,367,531,137,0,0,511,-9216,-14,509,-5.59,,,,,,,,,,,,
20804,1564323016437,1,2.32,1.4,0.72,2.17,1.95,0.44,-0.44,0.97,14,-1,23,0.62,7009,81,80,32,92,970,509.0,318,457,60,130.0,272,1,371,533,137,0,0,518,10408,1341,509,-5.59,,,,,,,,,,,,
20824,1564323016457,-1,2.31,1.4,0.72,2.16,1.94,0.57,-0.49,0.99,12,-4,22,0.75,7129,81,80,32,92,994,514.0,350,460,60,129.0,272,1,381,538,137,0,0,522,-32248,1341,514,-5.59,,,,,,,,,,,,
20844,1564323016477,2,2.29,1.4,0.72,2.16,1.94,0.64,-0.4,0.95,10,-4,21,0.76,7200,81,80,32,92,990,516.0,353,461,60,130.0,284,1,386,542,146,0,0,527,10994,-28648,516,-5.59,44.681522,10.017335,48.03,176.9,0,0.0,-1,0.0,0.0,0,0.21,0.3474
20864,1564323016493,0,2.27,1.4,0.72,2.17,1.93,0.48,-0.37,0.88,9,-2,19,0.6,7275,81,80,32,91,976,514.0,386,461,60,130.0,284,1,393,546,146,0,0,529,17136,-32248,514,-5.59,,,,,,,,,,,,
20884,1564323016513,1,2.24,1.4,0.71,2.15,1.93,0.4,-0.28,0.87,8,1,19,0.48,7287,81,80,32,91,948,520.0,421,462,60,130.0,284,1,394,546,146,0,0,534,1248,2524,519,-5.59,,,,,,,,,,,,
20904,1564323016533,1,2.23,1.39,0.71,2.16,1.92,0.35,-0.19,0.94,7,1,16,0.4,7259,73,81,32,90,909,526.0,450,460,60,130.0,284,1,392,545,146,0,0,539,-32248,2524,523,-5.59,,,,,,,,,,,,
20924,1564323016553,-1,2.22,1.38,0.71,2.15,1.92,0.4,-0.16,0.99,5,0,15,0.43,7233,66,80,32,88,863,528.0,477,456,60,130.0,284,1,391,530,146,0,0,541,-28648,14504,525,-5.59,,,,,,,,,,,,
20944,1564323016573,2,2.2,1.38,0.7,2.15,1.92,0.54,-0.11,0.96,3,-0,13,0.55,7217,62,81,32,86,814,534.0,506,462,60,129.0,273,1,390,516,143,0,0,542,-32248,-2336,526,-5.59,44.681526,10.017319,49.82,176.9,0,0.0,-1,0.0,0.0,0,0.21,0.3491
20964,1564323016593,2,2.17,1.36,0.69,2.13,1.9,0.56,-0.12,0.93,1,-0,10,0.57,7304,61,80,32,84,784,538.0,526,458,60,129.0,273,1,395,505,143,0,0,546,1780,-8186,526,-5.59,,,,,,,,,,,,
20984,1564323016613,3,2.14,1.37,0.69,2.14,1.91,0.52,0.01,0.84,-1,0,9,0.52,7361,60,80,32,83,773,541.0,540,461,60,128.0,273,1,399,423,143,0,0,546,-8186,-3082,525,-5.59,,,,,,,,,,,,
21004,1564323016633,2,2.11,1.36,0.7,2.13,1.91,0.46,0.17,0.77,-3,1,6,0.49,7473,60,80,32,82,762,541.0,546,461,60,130.0,273,1,406,491,143,0,0,550,-2336,14504,525,-5.59,,,,,,,,,,,,
21024,1564323016653,1,2.07,1.36,0.68,2.12,1.91,0.37,0.3,0.68,-5,1,5,0.48,7497,57,80,32,81,752,546.0,560,462,60,129.0,273,1,408,483,143,0,0,551,2524,-32504,527,-5.59,,,,,,,,,,,,
21044,1564323016673,3,2.01,1.35,0.68,2.12,1.9,0.29,0.33,0.61,-7,1,4,0.44,7603,48,81,32,79,748,550.0,571,459,60,129.0,258,1,415,461,136,0,0,557,-32248,-28648,524,-5.59,44.68153,10.017301,51.07,176.9,0,0.0,-1,0.0,0.0,0,0.21,0.3507
21064,1564323016693,3,1.97,1.35,0.67,2.09,1.89,0.25,0.38,0.54,-9,0,0,0.46,7671,43,80,32,75,749,549.0,585,458,60,129.0,258,1,421,434,136,0,0,564,6274,1780,525,-5.59,,,,,,,,,,,,
21084,1564323016713,-1,1.94,1.35,0.66,2.09,1.88,0.37,0.36,0.55,-12,-1,-3,0.52,7722,41,80,32,72,750,550.0,601,458,60,130.0,258,1,428,411,136,0,0,563,-32248,30208,525,-5.59,,,,,,,,,,,,
21104,1564323016733,-2,1.91,1.35,0.67,2.08,1.88,0.51,0.34,0.54,-14,-4,-5,0.62,7569,41,80,32,69,751,554.0,612,458,60,130.0,258,1,424,361,136,0,0,565,2524,10432,523,-5.59,,,,,,,,,,,,
21124,1564323016753,-1,1.89,1.34,0.67,2.08,1.87,0.63,0.38,0.61,-15,-3,-7,0.74,7621,40,80,32,69,752,555.0,613,463,60,130.0,258,1,427,363,136,0,0,566,-22263,-3190,523,-5.59,,,,,,,,,,,,
21144,1564323016773,1,1.89,1.34,0.67,2.08,1.88,0.75,0.41,0.75,-16,-5,-12,0.85,7728,34,81,32,66,751,550.0,615,460,60,130.0,195,1,437,348,102,0,0,566,2524,-28648,521,-5.59,44.681534,10.017283,52.44,176.9,0,0.0,-1,0.0,0.0,0,0.21,0.3524
21164,1564323016794,1,1.89,1.35,0.67,2.08,1.88,0.75,0.5,0.77,-17,-5,-13,0.9,7773,24,80,32,62,750,556.0,621,462,60,130.0,195,1,443,311,102,0,0,569,-22359,259,525,-5.59,,,,,,,,,,,,
21184,1564323016814,2,1.89,1.35,0.67,2.08,1.88,0.66,0.65,0.73,-18,-3,-15,0.92,7634,18,81,32,57,747,557.0,618,462,60,130.0,195,1,411,280,102,0,0,570,2216,-29984,523,-5.59,,,,,,,,,,,,
21204,1564323016834,2,1.89,1.36,0.67,2.08,1.89,0.59,0.78,0.62,-19,-3,-16,0.98,7512,17,80,32,53,744,557.0,618,459,60,130.0,195,1,387,257,102,0,0,570,-28648,-32504,521,-5.59,,,,,,,,,,,,
21224,1564323016854,1,1.89,1.36,0.67,2.09,1.88,0.57,0.9,0.57,-19,-3,-17,1.07,7358,17,80,32,50,742,560.0,612,463,60,130.0,195,1,378,239,102,0,0,565,-28648,-2934,519,-5.59,,,,,,,,,,,,
21244,1564323016874,1,1.89,1.36,0.67,2.08,1.88,0.54,1.0,0.54,-19,-2,-18,1.14,7267,17,81,32,48,739,554.0,612,463,60,130.0,123,1,372,228,64,0,0,559,2524,-9072,521,-5.59,44.681538,10.017265,53.43,176.9,0,0.0,-1,0.0,0.0,0,0.21,0.3541
21264,1564323016897,-0,1.9,1.35,0.68,2.08,1.88,0.62,0.94,0.57,-19,-4,-21,1.12,7118,17,81,32,46,737,554.0,610,460,60,131.0,123,1,362,221,64,0,0,561,-22359,2524,519,-5.59,,,,,,,,,,,,
21284,1564323016917,3,1.9,1.36,0.68,2.08,1.88,0.69,0.94,0.57,-20,-3,-22,1.17,7075,17,81,32,46,735,555.0,605,466,60,130.0,123,1,362,221,64,0,0,557,-22263,-28648,519,-5.59,,,,,,,,,,,,
21304,1564323016937,1,1.91,1.36,0.68,2.09,1.89,0.67,1.05,0.51,-21,-3,-25,1.25,7056,17,80,32,45,735,555.0,603,463,60,130.0,123,1,355,219,64,0,0,560,-22263,10408,518,-5.59,,,,,,,,,,,,
21324,1564323016957,0,1.9,1.36,0.68,2.09,1.9,0.68,1.04,0.52,-22,-1,-27,1.24,6895,17,81,32,44,737,558.0,602,459,60,131.0,123,1,346,216,64,0,0,557,-32504,15679,513,-5.59,,,,,,,,,,,,
21344,1564323016977,-0,1.91,1.36,0.68,2.09,1.89,0.74,1.1,0.47,-24,-2,-29,1.33,6883,17,81,32,44,743,556.0,595,459,60,130.0,108,1,346,216,56,0,0,558,2216,15679,512,-5.59,44.681541,10.017246,53.62,176.9,0,0.0,-1,0.0,0.0,0,0.21,0.3557
21364,1564323016997,-2,1.9,1.36,0.69,2.09,1.91,0.69,1.19,0.4,-25,-1,-30,1.37,6830,17,81,32,44,749,555.0,591,461,60,131.0,108,1,346,216,56,0,0,555,-22263,15679,512,-5.59,,,,,,,,,,,,
21384,1564323017008,3,1.89,1.36,0.69,2.09,1.9,0.74,1.21,0.38,-26,-2,-31,1.42,6870,17,81,32,44,756,554.0,591,463,60,129.0,108,1,346,216,56,0,0,547,2524,15661,511,-5.59,,,,,,,,,,,,
21404,1564323017028,-1,1.89,1.37,0.68,2.1,1.9,0.82,1.2,0.42,-28,-2,-34,1.45,7001,18,81,32,44,762,549.0,593,464,60,130.0,108,1,347,217,56,0,0,542,2104,10432,505,-5.59,,,,,,,,,,,,
21424,1564323017048,-0,1.89,1.36,0.68,2.11,1.9,0.82,1.17,0.44,-29,-1,-34,1.43,7107,18,80,32,44,773,559.0,603,460,60,129.0,108,1,347,217,56,0,0,549,2524,-9160,503,-5.59,,,,,,,,,,,,
21444,1564323017068,2,1.89,1.36,0.69,2.1,1.91,0.75,1.19,0.52,-30,-1,-39,1.41,7006,18,81,32,43,783,550.0,605,462,60,128.0,115,1,340,215,58,0,0,546,-32248,2131,499,-5.59,44.681541,10.017228,53.07,176.9,0,0.0,-1,0.0,0.0,0,0.21,0.3574
21464,1564323017096,1,1.88,1.36,0.7,2.11,1.91,0.84,1.11,0.42,-32,-0,-41,1.39,6980,18,81,32,44,787,544.0,603,465,60,128.0,115,1,346,216,58,0,0,547,-506,-3267,500,-5.59,,,,,,,,,,,,
21484,1564323017116,-0,1.87,1.38,0.7,2.11,1.91,0.82,1.19,0.34,-33,1,-40,1.45,6934,18,81,32,43,791,547.0,600,463,60,131.0,115,1,339,215,58,0,0,545,-22519,14488,497,-5.59,,,,,,,,,,,,
21504,1564323017136,0,1.88,1.37,0.7,2.11,1.92,0.83,1.19,0.31,-34,0,-39,1.45,6843,19,80,32,43,794,547.0,599,459,60,129.0,115,1,339,216,58,0,0,544,-506,-23623,496,-5.59,,,,,,,,,,,,
21524,1564323017156,-2,1.88,1.38,0.7,2.12,1.91,0.78,1.27,0.26,-34,-1,-39,1.49,6798,19,81,32,44,797,541.0,598,459,60,131.0,115,1,345,214,58,0,0,549,1780,-16384,493,-5.59,,,,,,,,,,,,
21544,1564323017176,1,1.87,1.37,0.7,2.12,1.91,0.8,1.24,0.34,-33,0,-41,1.47,6730,19,81,32,44,798,536.0,590,468,60,130.0,112,1,345,216,55,0,0,542,6274,10432,494,-5.59,44.681541,10.01721,52.31,177.0,0,0.0,-1,0.0,0.0,0,0.22,0.3591
21564,1564323017196,-1,1.87,1.37,0.71,2.13,1.91,0.79,1.31,0.44,-32,1,-43,1.54,6694,19,81,32,44,797,534.0,590,460,60,129.0,112,1,345,216,55,0,0,539,-32248,243,488,-5.59,,,,,,,,,,,,
21584,1564323017216,-0,1.88,1.37,0.71,2.12,1.92,0.82,1.23,0.52,-32,-1,-45,1.48,6618,19,81,32,45,795,532.0,587,463,60,128.0,112,1,352,217,55,0,0,534,14504,-16384,486,-5.59,,,,,,,,,,,,
21604,1564323017236,0,1.87,1.37,0.71,2.13,1.92,0.86,1.31,0.53,-31,-1,-46,1.57,6609,24,81,31,46,793,529.0,582,463,60,131.0,112,1,359,219,55,0,0,531,-9072,32033,483,-5.59,,,,,,,,,,,,
21624,1564323017256,0,1.89,1.37,0.71,2.13,1.92,0.9,1.25,0.44,-32,-3,-45,1.54,6713,36,81,32,49,791,525.0,579,465,60,130.0,112,1,373,231,55,0,0,520,2088,10432,484,-5.59,,,,,,,,,,,,
21644,1564323017276,-0,1.89,1.38,0.7,2.13,1.91,0.89,1.33,0.47,-33,-3,-44,1.6,6898,49,81,31,55,789,522.0,585,461,60,130.0,130,1,393,262,63,0,0,521,2524,10432,482,-5.59,44.681541,10.017192,51.1,177.0,0,0.0,-1,0.0,0.0,0,0.22,0.3607
21664,1564323017296,1,1.91,1.37,0.71,2.13,1.91,0.94,1.27,0.45,-34,-3,-44,1.58,7086,58,81,31,63,788,523.0,590,460,60,129.0,130,1,418,306,63,0,0,523,-22519,16408,479,-5.59,,,,,,,,,,,,
21684,1564323017316,3,1.93,1.37,0.71,2.13,1.92,0.95,1.22,0.48,-34,-2,-44,1.55,7350,64,81,31,70,787,522.0,605,462,60,128.0,130,1,409,367,63,0,0,527,2524,-3210,474,-5.59,,,,,,,,,,,,
21704,1564323017336,3,1.95,1.38,0.71,2.13,1.91,0.98,1.21,0.52,-34,-2,-44,1.55,7591,69,81,31,76,787,520.0,611,458,60,130.0,130,1,414,446,63,0,0,524,1248,3576,475,-5.59,,,,,,,,,,,,
21724,1564323017356,-1,1.99,1.37,0.7,2.13,1.91,1.08,1.23,0.6,-34,-1,-46,1.64,7861,70,80,31,79,788,520.0,620,460,60,130.0,130,1,430,478,63,0,0,522,1248,-1562,474,-5.59,,,,,,,,,,,,
21744,1564323017376,-0,2.01,1.37,0.71,2.13,1.9,1.06,1.31,0.67,-34,-2,-47,1.68,7904,70,81,31,81,792,522.0,623,465,60,130.0,301,1,432,487,143,0,0,541,2524,-3820,475,-5.59,44.681538,10.017175,50.29,177.0,0,0.0,-1,0.0,0.0,0,0.22,0.3624
21764,1564323017396,3,2.02,1.37,0.71,2.12,1.9,0.84,1.38,0.66,-33,0,-48,1.62,7992,70,81,31,81,795,528.0,623,463,60,130.0,301,1,437,487,143,0,0,563,-28648,-26380,476,-5.59,,,,,,,,,,,,
21784,1564323017416,0,2.04,1.37,0.7,2.12,1.9,0.93,1.3,0.69,-33,1,-49,1.6,8374,70,81,31,80,799,531.0,627,461,60,130.0,301,1,430,503,143,0,0,543,2524,-6006,474,-5.59,,,,,,,,,,,,
21804,1564323017436,1,2.04,1.37,0.7,2.12,1.89,0.83,1.25,0.68,-34,2,-47,1.5,8553,70,81,31,77,801,524.0,637,460,60,129.0,301,1,425,470,143,0,0,569,6274,10432,476,-5.59,,,,,,,,,,,,
21824,1564323017456,0,2.06,1.37,0.7,2.12,1.9,0.81,1.29,0.72,-35,1,-47,1.52,8329,71,81,31,75,819,533.0,630,462,60,130.0,301,1,432,442,143,0,0,607,-32248,6208,475,-5.59,,,,,,,,,,,,
21844,1564323017476,3,2.06,1.37,0.7,2.12,1.89,0.72,1.17,0.76,-35,3,-48,1.37,8166,71,80,31,76,849,541.0,630,459,60,130.0,292,1,435,449,140,0,0,620,-2336,-2830,477,-5.59,44.681534,10.017158,49.4,177.0,0,0.0,-1,0.0,0.0,0,0.22,0.3641
21864,1564323017494,1,2.07,1.36,0.7,2.11,1.9,0.76,1.24,0.82,-35,1,-49,1.46,8259,71,81,31,77,877,542.0,632,460,60,130.0,292,1,432,462,140,0,0,605,-3082,-4035,477,-5.59,,,,,,,,,,,,
21884,1564323017514,1,2.07,1.37,0.7,2.12,1.9,0.69,1.17,0.82,-35,3,-49,1.36,8198,71,81,31,78,904,540.0,627,457,60,130.0,292,1,434,470,140,0,0,607,-8186,-12040,474,-5.59,,,,,,,,,,,,
21904,1564323017534,1,2.07,1.36,0.69,2.12,1.89,0.82,1.17,0.84,-36,-0,-50,1.43,8102,72,81,31,78,931,546.0,629,461,60,130.0,292,1,436,467,140,0,0,610,2524,6208,475,-5.59,,,,,,,,,,,,
21924,1564323017554,2,2.08,1.37,0.69,2.12,1.89,0.63,1.26,0.79,-36,2,-47,1.41,8238,72,81,31,79,958,547.0,629,462,60,130.0,292,1,433,472,140,0,0,601,2524,17740,473,-5.59,,,,,,,,,,,,
21944,1564323017574,1,2.08,1.37,0.7,2.1,1.89,0.77,1.28,0.84,-38,-1,-47,1.49,8359,72,81,31,78,977,547.0,631,458,60,130.0,314,1,430,477,149,0,0,605,2104,15649,475,-5.59,44.68153,10.017141,48.97,177.0,0,0.0,-1,0.0,0.0,0,0.22,0.3657
21964,1564323017594,3,2.08,1.37,0.69,2.11,1.89,0.67,1.2,0.8,-38,1,-47,1.37,8318,72,81,31,77,977,549.0,632,458,60,130.0,314,1,431,464,149,0,0,609,2104,4909,478,-5.59,,,,,,,,,,,,
21984,1564323017614,2,2.11,1.36,0.7,2.11,1.89,0.72,1.28,0.72,-39,-2,-48,1.47,8366,72,81,31,77,976,557.0,631,462,60,130.0,314,1,430,465,149,0,0,617,2216,479,481,-5.59,,,,,,,,,,,,
22004,1564323017634,0,2.12,1.36,0.7,2.11,1.9,0.74,1.16,0.74,-40,-1,-49,1.38,8573,72,81,31,76,974,555.0,635,461,60,129.0,314,1,425,456,149,0,0,620,-32504,-18357,490,-5.59,,,,,,,,,,,,
22024,1564323017654,1,2.17,1.37,0.7,2.11,1.9,0.67,1.21,0.72,-40,1,-48,1.38,8620,72,81,31,76,972,562.0,635,462,60,129.0,314,1,423,456,149,0,0,635,-23623,-14655,496,-5.59,,,,,,,,,,,,
22044,1564323017674,3,2.2,1.37,0.7,2.11,1.89,0.58,1.29,0.73,-41,-1,-50,1.41,8660,75,81,31,76,970,566.0,637,461,60,130.0,293,1,422,456,146,0,0,640,-2934,-2830,500,-5.59,44.681522,10.017126,50.54,177.0,0,0.0,-1,0.0,0.0,0,0.22,0.3674
22064,1564323017692,1,2.25,1.37,0.71,2.11,1.89,0.52,1.36,0.8,-41,-1,-52,1.46,8827,79,81,31,77,970,569.0,641,462,60,130.0,293,1,418,470,146,0,0,641,-3190,4909,498,-5.59,,,,,,,,,,,,
22084,1564323017712,1,2.28,1.37,0.7,2.12,1.9,0.61,1.37,0.75,-42,-1,-54,1.5,8962,84,81,31,79,978,571.0,639,462,60,130.0,293,1,416,497,146,0,0,659,1267,-16046,503,-5.59,,,,,,,,,,,,
22104,1564323017732,1,2.33,1.37,0.7,2.11,1.9,0.64,1.35,0.69,-44,-1,-53,1.49,8997,85,81,31,81,987,576.0,640,465,60,130.0,293,1,417,526,146,0,0,667,1,-2345,503,-5.59,,,,,,,,,,,,
22124,1564323017752,3,2.36,1.37,0.7,2.11,1.9,0.72,1.28,0.75,-46,-3,-56,1.47,9018,85,81,31,82,998,573.0,632,464,60,129.0,293,1,417,540,146,0,0,657,1267,24845,506,-5.59,,,,,,,,,,,,
22144,1564323017772,1,2.4,1.37,0.7,2.12,1.9,0.71,1.32,0.66,-45,-4,-56,1.5,9159,86,81,31,82,1011,575.0,642,465,60,130.0,366,1,417,540,186,0,0,667,259,-2830,504,-5.59,44.681519,10.017111,51.79,177.0,0,0.0,-1,0.0,0.0,0,0.22,0.3691
22164,1564323017794,2,2.43,1.38,0.71,2.11,1.91,0.64,1.39,0.65,-45,-5,-58,1.53,9245,86,81,31,82,1035,576.0,638,466,60,130.0,366,1,417,540,186,0,0,688,774,-26380,505,-5.59,,,,,,,,,,,,
22184,1564323017814,-1,2.44,1.38,0.7,2.12,1.91,0.43,1.45,0.58,-43,-4,-56,1.51,9356,86,81,31,82,1060,574.0,640,463,60,130.0,366,1,417,540,186,0,0,713,774,11576,511,-5.59,,,,,,,,,,,,
22204,1564323017834,1,2.48,1.38,0.71,2.11,1.91,0.45,1.34,0.72,-43,-3,-56,1.41,9522,86,80,31,82,1074,578.0,646,463,60,129.0,366,1,416,540,186,0,0,692,-16384,-12152,518,-5.59,,,,,,,,,,,,
22224,1564323017854,3,2.52,1.39,0.71,2.11,1.91,0.48,1.28,0.79,-44,-3,-56,1.37,9694,86,81,31,82,1087,581.0,641,460,60,129.0,366,1,409,528,186,0,0,693,10432,1524,523,-5.59,,,,,,,,,,,,
22244,1564323017874,1,2.56,1.39,0.71,2.12,1.91,0.55,1.24,0.86,-42,-3,-55,1.36,9806,86,81,32,81,1100,580.0,651,457,60,129.0,373,1,404,528,195,0,0,724,8488,31988,522,-5.59,44.681507,10.017097,52.15,177.0,0,0.0,-1,0.0,0.0,0,0.23,0.3707
22264,1564323017898,4,2.59,1.39,0.71,2.12,1.92,0.58,1.09,0.87,-42,-5,-56,1.24,9894,87,81,31,81,1112,583.0,645,460,60,132.0,373,1,401,519,195,0,0,749,15649,-13072,528,-5.59,,,,,,,,,,,,
22284,1564323017918,2,2.61,1.39,0.71,2.14,1.92,0.59,0.94,0.95,-41,-6,-55,1.11,9827,87,81,31,81,1111,582.0,643,460,60,130.0,373,1,403,528,195,0,0,718,10432,-3344,534,-5.59,,,,,,,,,,,,
22304,1564323017938,-0,2.61,1.39,0.71,2.14,1.92,0.44,0.94,0.91,-41,-1,-53,1.03,9920,87,81,32,81,1110,579.0,653,461,60,129.0,373,1,398,529,195,0,0,709,243,-2826,539,-5.59,,,,,,,,,,,,
22324,1564323017958,-1,2.61,1.39,0.72,2.14,1.92,0.46,0.81,0.94,-40,0,-51,0.93,9566,87,81,32,81,1102,585.0,643,462,60,132.0,373,1,414,513,195,0,0,733,-4035,-25858,542,-5.59,,,,,,,,,,,,
22344,1564323017978,1,2.62,1.39,0.72,2.13,1.93,0.62,0.77,0.89,-39,-2,-50,0.99,9036,87,81,32,83,1094,584.0,628,465,60,131.0,346,1,418,555,189,0,0,691,-4035,-26562,547,-5.59,44.6815,10.017081,53.74,177.0,0,0.0,-1,0.0,0.0,0,0.23,0.3724
22364,1564323017998,-1,2.61,1.39,0.72,2.13,1.92,0.74,0.7,0.99,-39,-5,-49,1.02,8668,87,81,32,85,1088,583.0,619,458,60,131.0,346,1,426,576,189,0,0,641,8488,-16883,549,-5.59,,,,,,,,,,,,
22384,1564323018009,-2,2.62,1.39,0.71,2.12,1.93,0.59,0.68,0.94,-37,-2,-45,0.9,8274,87,81,32,86,1082,583.0,617,456,60,130.0,346,1,437,558,189,0,0,605,15649,17336,552,-5.59,,,,,,,,,,,,
22404,1564323018029,0,2.64,1.39,0.71,2.14,1.92,0.74,0.57,0.95,-36,-4,-43,0.93,7941,87,81,32,87,1122,580.0,616,461,60,131.0,346,1,439,552,189,0,0,597,-16384,19304,555,-5.59,,,,,,,,,,,,
22424,1564323018049,1,2.65,1.39,0.71,2.14,1.93,0.72,0.57,0.92,-32,-7,-41,0.92,7789,87,81,32,89,1163,580.0,607,465,60,129.0,346,1,431,941,189,0,0,571,-16384,30227,557,-5.59,,,,,,,,,,,,
22444,1564323018069,1,2.64,1.4,0.72,2.13,1.93,0.61,0.68,0.87,-29,-7,-39,0.91,7809,87,81,31,89,1208,578.0,602,461,60,129.0,475,1,433,847,266,0,0,560,-3210,-16384,562,-5.59,44.681488,10.017068,55.13,177.0,0,0.0,-1,0.0,0.0,0,0.23,0.3741
22464,1564323018097,-1,2.65,1.4,0.71,2.14,1.92,0.75,0.66,0.85,-27,-7,-34,0.99,8238,87,81,31,88,1255,576.0,615,460,60,128.0,475,1,440,506,266,0,0,568,774,30208,563,-5.59,,,,,,,,,,,,
22484,1564323018117,2,2.64,1.39,0.72,2.13,1.93,0.64,0.71,0.96,-24,-7,-33,0.95,8064,87,81,31,87,1319,576.0,620,463,60,130.0,475,1,443,645,266,0,0,690,1,13016,569,-5.59,,,,,,,,,,,,
22504,1564323018137,1,2.64,1.4,0.72,2.14,1.94,0.45,0.77,0.9,-19,-2,-30,0.89,7944,87,81,31,88,1388,581.0,618,460,60,131.0,475,1,441,556,266,0,0,716,-16384,8838,572,-5.59,,,,,,,,,,,,
22524,1564323018157,-0,2.63,1.4,0.73,2.14,1.94,0.6,0.67,0.92,-18,-1,-26,0.9,8216,87,81,32,88,1422,581.0,617,460,60,129.0,475,1,441,577,266,0,0,687,10432,-3578,575,-5.59,,,,,,,,,,,,
22544,1564323018177,2,2.61,1.4,0.72,2.14,1.94,0.47,0.7,0.97,-16,-3,-22,0.84,8088,87,81,32,87,1443,588.0,619,461,60,130.0,302,1,442,554,177,0,0,709,10432,15647,588,-5.59,44.68148,10.017055,56.03,177.0,0,0.0,-1,0.0,0.0,0,0.23,0.3757
22564,1564323018197,1,2.59,1.4,0.72,2.14,1.94,0.31,0.66,0.92,-13,-0,-17,0.73,7754,88,81,32,89,1420,592.0,615,463,60,130.0,302,1,428,547,177,0,0,703,-16384,1524,591,-5.59,,,,,,,,,,,,
22584,1564323018217,3,2.55,1.4,0.72,2.14,1.93,0.35,0.63,0.72,-10,2,-11,0.72,7712,88,81,32,90,1381,592.0,610,461,60,129.0,302,1,427,563,177,0,0,679,8488,11576,592,-5.59,,,,,,,,,,,,
22604,1564323018237,1,2.5,1.39,0.72,2.14,1.94,0.48,0.59,0.78,-7,-0,-8,0.77,7722,88,81,31,90,1330,592.0,612,462,60,129.0,302,1,428,563,177,0,0,696,-1894,-8429,592,-5.59,,,,,,,,,,,,
22624,1564323018257,-1,2.45,1.4,0.73,2.14,1.94,0.55,0.51,0.8,-5,-2,-5,0.75,7554,88,81,31,91,1268,594.0,613,465,60,128.0,302,1,414,557,177,0,0,684,-12040,16118,594,-5.59,,,,,,,,,,,,
22644,1564323018277,1,2.4,1.4,0.72,2.14,1.94,0.65,0.54,0.85,-3,-4,-0,0.84,7542,88,81,32,91,1190,603.0,612,465,60,129.0,266,1,413,556,158,0,0,657,-32504,-10399,603,-5.59,44.681469,10.017043,55.55,177.0,0,0.0,-1,0.0,0.0,0,0.23,0.3774
22664,1564323018295,-2,2.36,1.39,0.72,2.14,1.93,0.69,0.52,0.96,-2,-6,1,0.86,7515,88,81,32,91,1104,609.0,608,462,60,128.0,266,1,411,555,158,0,0,662,-16179,11566,609,-5.59,,,,,,,,,,,,
22684,1564323018315,1,2.32,1.39,0.72,2.13,1.94,0.7,0.47,0.98,-1,-7,3,0.85,7419,92,81,32,92,1048,614.0,607,462,60,129.0,266,1,403,551,158,0,0,655,-768,-3038,614,-5.59,,,,,,,,,,,,
22704,1564323018335,1,2.29,1.39,0.72,2.13,1.94,0.75,0.42,1.0,-1,-5,4,0.86,7281,98,81,32,92,1024,616.0,596,461,60,129.0,266,1,392,545,158,0,0,642,-30139,-6006,616,-5.59,,,,,,,,,,,,
22724,1564323018355,2,2.26,1.4,0.72,2.14,1.93,0.77,0.4,0.93,-1,-4,4,0.87,7203,100,81,32,93,998,617.0,587,460,60,130.0,266,1,385,541,158,0,0,640,26688,-10251,617,-5.59,,,,,,,,,,,,
22744,1564323018375,1,2.24,1.4,0.72,2.14,1.94,0.66,0.54,0.87,1,-2,4,0.85,7131,100,81,32,93,969,621.0,571,461,60,130.0,235,1,380,538,146,0,0,632,30721,20993,621,-5.59,44.681458,10.017032,57.91,176.9,0,0.0,-1,0.0,0.0,0,0.23,0.3791
22764,1564323018397,-0,2.24,1.4,0.72,2.14,1.93,0.65,0.5,0.95,2,-3,2,0.81,7059,100,81,32,93,952,623.0,565,460,60,130.0,235,1,374,534,146,0,0,637,3395,-14655,624,-5.59,,,,,,,,,,,,
22784,1564323018417,3,2.24,1.4,0.72,2.14,1.94,0.75,0.38,0.96,1,-5,1,0.84,7156,100,81,32,94,948,626.0,561,462,60,129.0,235,1,381,463,146,0,0,636,506,-5120,623,-5.59,,,,,,,,,,,,
22804,1564323018437,2,2.25,1.4,0.72,2.14,1.94,0.78,0.37,0.83,1,-5,1,0.86,7239,100,81,32,93,943,631.0,559,463,60,130.0,235,1,388,543,146,0,0,639,771,-5120,622,-5.59,,,,,,,,,,,,
22824,1564323018457,2,2.25,1.4,0.73,2.16,1.94,0.68,0.38,0.75,1,-2,-0,0.78,7318,100,81,32,93,935,635.0,557,462,60,130.0,235,1,398,549,146,0,0,652,-4876,-5120,626,-5.59,,,,,,,,,,,,
22844,1564323018477,2,2.25,1.4,0.73,2.16,1.95,0.55,0.44,0.72,1,-1,-1,0.7,7431,100,81,32,93,928,638.0,565,462,60,130.0,244,1,403,552,154,0,0,653,16599,-2830,630,-5.59,44.681442,10.017021,60.02,176.9,0,0.0,-1,0.0,0.0,0,0.23,0.3807
22864,1564323018493,1,2.25,1.41,0.73,2.17,1.95,0.49,0.51,0.71,1,0,-1,0.71,7437,100,81,32,92,924,644.0,570,460,60,131.0,244,1,404,552,154,0,0,659,11776,-3488,636,181.28,,,,,,,,,,,,
22884,1564323018513,1,2.23,1.41,0.73,2.16,1.95,0.43,0.53,0.69,1,1,-1,0.68,7458,100,81,32,92,918,646.0,575,458,60,131.0,244,1,406,553,154,0,0,659,4909,24583,638,-5.59,,,,,,,,,,,,
22904,1564323018533,1,2.23,1.41,0.73,2.16,1.96,0.33,0.6,0.63,0,2,-2,0.69,7419,100,81,32,93,911,647.0,585,461,60,130.0,244,1,402,551,154,0,0,659,24583,8958,639,-5.59,,,,,,,,,,,,
22924,1564323018553,1,2.21,1.41,0.73,2.17,1.96,0.29,0.67,0.65,0,2,-3,0.73,7455,100,81,32,92,905,652.0,583,460,60,131.0,244,1,406,553,154,0,0,658,24583,-3038,644,-5.59,,,,,,,,,,,,
22944,1564323018573,1,2.2,1.4,0.74,2.15,1.96,0.26,0.71,0.69,-0,2,-4,0.76,7488,100,81,32,92,903,656.0,586,459,60,130.0,240,1,408,479,155,0,0,670,-3038,-10348,644,-5.59,44.681431,10.017012,61.68,176.9,0,0.0,-1,0.0,0.0,0,0.24,0.3824
22964,1564323018593,2,2.19,1.4,0.73,2.16,1.94,0.19,0.7,0.69,-1,2,-5,0.73,7618,100,81,32,92,899,663.0,595,461,60,130.0,240,1,418,560,155,0,0,672,-27404,-2830,647,-5.59,,,,,,,,,,,,
22984,1564323018613,3,2.19,1.4,0.73,2.16,1.94,0.09,0.71,0.69,-2,3,-6,0.72,7653,100,81,32,92,891,667.0,596,461,60,130.0,240,1,420,562,155,0,0,673,-3578,24,649,-5.59,,,,,,,,,,,,
23004,1564323018633,2,2.2,1.4,0.73,2.16,1.94,0.07,0.77,0.63,-4,6,-5,0.78,7744,100,81,32,92,884,672.0,598,464,60,129.0,240,1,428,566,155,0,0,685,-3038,-26562,647,-5.59,,,,,,,,,,,,
23024,1564323018653,-1,2.21,1.4,0.74,2.16,1.94,0.24,0.74,0.66,-6,5,-6,0.77,7812,100,81,32,91,879,675.0,603,461,60,130.0,240,1,434,568,155,0,0,681,-2345,-10399,655,-5.59,,,,,,,,,,,,
23044,1564323018673,0,2.2,1.4,0.73,2.15,1.94,0.39,0.68,0.75,-7,3,-8,0.79,7822,100,81,32,91,873,678.0,607,463,60,129.0,256,1,435,568,169,0,0,693,-10346,24,659,-5.59,44.681416,10.017001,62.76,176.9,0,0.0,-1,0.0,0.0,0,0.24,0.3841
23064,1564323018693,2,2.19,1.39,0.73,2.15,1.94,0.41,0.72,0.87,-7,2,-9,0.83,7868,100,81,32,90,865,679.0,609,461,60,130.0,256,1,439,569,169,0,0,687,-2345,-3584,663,-5.59,,,,,,,,,,,,
23084,1564323018713,1,2.21,1.39,0.74,2.15,1.94,0.31,0.82,0.89,-7,3,-9,0.88,7812,100,81,32,90,858,684.0,602,459,60,130.0,256,1,435,567,169,0,0,694,24845,1780,664,-5.59,,,,,,,,,,,,
23104,1564323018733,2,2.22,1.4,0.73,2.15,1.95,0.36,0.76,0.81,-7,3,-9,0.84,7819,100,81,32,91,855,686.0,610,465,60,130.0,256,1,434,568,169,0,0,693,16599,-2830,667,-5.59,,,,,,,,,,,,
23124,1564323018753,0,2.21,1.4,0.74,2.16,1.95,0.48,0.74,0.82,-8,1,-9,0.88,7934,100,81,32,91,853,688.0,608,464,60,129.0,256,1,443,573,169,0,0,701,-2830,-3888,675,-5.59,,,,,,,,,,,,
23144,1564323018773,2,2.23,1.39,0.74,2.15,1.95,0.42,0.82,0.88,-7,1,-10,0.92,8029,100,81,32,90,853,690.0,612,460,60,130.0,258,1,450,577,173,0,0,704,-2830,-2830,676,-5.59,44.6814,10.016992,64.3,176.8,0,0.0,-1,0.0,0.0,0,0.24,0.3857
23164,1564323018793,2,2.24,1.4,0.73,2.15,1.95,0.4,0.73,0.88,-7,2,-10,0.83,8099,100,81,32,89,854,694.0,621,462,60,130.0,258,1,446,575,173,0,0,715,12333,-31068,681,-5.59,,,,,,,,,,,,
23184,1564323018813,1,2.24,1.4,0.73,2.16,1.95,0.52,0.69,0.97,-7,-1,-10,0.87,8148,100,81,32,89,856,699.0,622,463,60,130.0,258,1,444,580,173,0,0,718,-3584,1524,682,-5.59,,,,,,,,,,,,
23204,1564323018833,3,2.24,1.41,0.73,2.17,1.95,0.31,0.76,1.03,-6,1,-10,0.82,8162,100,81,32,89,859,702.0,620,463,60,129.0,258,1,444,579,173,0,0,721,8010,-2918,691,-5.59,,,,,,,,,,,,
23224,1564323018853,1,2.25,1.4,0.73,2.16,1.95,0.47,0.69,0.93,-6,-1,-10,0.83,8138,100,81,32,89,864,705.0,626,463,60,128.0,258,1,445,579,173,0,0,718,687,-2314,693,-5.59,,,,,,,,,,,,
23244,1564323018873,3,2.24,1.41,0.74,2.16,1.94,0.42,0.72,0.98,-5,-0,-9,0.83,8180,100,81,32,88,869,706.0,625,462,60,130.0,258,1,441,584,180,0,0,732,687,-2918,698,-5.59,44.681385,10.016982,65.93,176.8,0,0.0,-1,0.0,0.0,0,0.24,0.3874
23264,1564323018897,0,2.24,1.4,0.73,2.16,1.95,0.47,0.59,0.93,-6,0,-9,0.75,8216,100,81,32,89,872,710.0,622,465,60,129.0,258,1,442,588,180,0,0,726,-3888,-2918,699,-5.59,,,,,,,,,,,,
23284,1564323018917,2,2.24,1.4,0.74,2.16,1.96,0.44,0.72,1.04,-5,-1,-10,0.84,8238,100,81,32,88,875,712.0,627,462,60,130.0,258,1,440,580,180,0,0,729,204,-31066,704,-5.59,,,,,,,,,,,,
23304,1564323018937,1,2.23,1.4,0.73,2.17,1.95,0.51,0.53,1.06,-6,-1,-10,0.73,8340,100,81,31,88,874,717.0,626,466,60,130.0,258,1,438,603,180,0,0,734,-2830,-31066,705,-5.59,,,,,,,,,,,,
23324,1564323018957,3,2.23,1.41,0.73,2.17,1.95,0.39,0.61,1.1,-5,-0,-11,0.72,8438,100,81,32,87,872,723.0,624,461,60,131.0,258,1,434,603,180,0,0,738,-25858,-2314,710,-5.59,,,,,,,,,,,,
23344,1564323018977,1,2.22,1.4,0.73,2.17,1.95,0.49,0.57,0.96,-6,-1,-10,0.75,8457,100,81,32,88,869,729.0,631,463,60,130.0,267,1,435,605,191,0,0,744,-2358,-4096,713,-5.59,44.68137,10.016973,67.88,176.8,0,0.0,-1,0.0,0.0,0,0.24,0.3891
23364,1564323018997,0,2.22,1.41,0.73,2.17,1.95,0.41,0.44,1.0,-6,0,-10,0.6,8495,100,81,32,87,865,731.0,622,459,60,130.0,267,1,433,598,191,0,0,749,-2314,-23308,715,-5.59,,,,,,,,,,,,
23384,1564323019008,1,2.23,1.41,0.73,2.16,1.96,0.29,0.55,1.06,-6,1,-11,0.63,8514,100,81,32,87,863,735.0,626,460,60,130.0,267,1,432,599,191,0,0,753,3462,5876,726,-5.59,,,,,,,,,,,,
23404,1564323019028,2,2.22,1.41,0.73,2.16,1.95,0.47,0.43,1.03,-7,-1,-10,0.64,8557,100,81,31,88,861,736.0,626,462,60,129.0,267,1,432,599,191,0,0,760,-2356,-2574,727,-5.59,,,,,,,,,,,,
23424,1564323019048,1,2.22,1.4,0.73,2.16,1.95,0.51,0.32,0.94,-8,-1,-11,0.6,8593,100,81,31,87,862,743.0,627,462,60,129.0,267,1,430,599,191,0,0,763,-22796,-2826,727,-5.59,,,,,,,,,,,,
23444,1564323019068,-2,2.21,1.4,0.72,2.15,1.95,0.36,0.44,0.96,-8,3,-9,0.57,8757,100,81,31,87,864,746.0,628,460,60,129.0,270,1,425,588,197,0,0,768,-30694,7413,734,-5.59,44.681354,10.016964,69.51,176.8,0,0.0,-1,0.0,0.0,0,0.25,0.3907
23464,1564323019098,-1,2.23,1.4,0.73,2.16,1.94,0.27,0.53,1.06,-7,3,-10,0.59,8840,100,81,31,86,870,750.0,628,460,60,129.0,270,1,422,588,197,0,0,780,-3450,-2766,745,-5.59,,,,,,,,,,,,
23484,1564323019118,3,2.24,1.4,0.73,2.16,1.95,0.16,0.68,1.12,-7,3,-9,0.69,8836,100,81,31,86,877,755.0,627,461,60,129.0,270,1,424,588,197,0,0,775,-3038,-2570,744,-5.59,,,,,,,,,,,,
23504,1564323019138,4,2.24,1.41,0.73,2.17,1.95,0.2,0.76,1.2,-7,2,-10,0.79,8749,100,81,31,86,883,762.0,630,462,60,130.0,270,1,425,588,197,0,0,781,-2344,-10214,744,-5.59,,,,,,,,,,,,
23524,1564323019158,3,2.24,1.38,0.72,2.17,1.94,0.35,0.66,1.09,-7,0,-10,0.75,8761,100,81,31,86,887,764.0,634,465,60,130.0,270,1,424,599,197,0,0,776,-10216,-10212,748,-5.59,,,,,,,,,,,,
23544,1564323019178,0,2.26,1.41,0.73,2.17,1.95,0.42,0.45,0.97,-7,0,-11,0.62,8802,100,81,31,86,894,766.0,624,461,60,130.0,263,1,423,588,199,0,0,781,-2826,-3368,757,-5.59,44.681339,10.016955,71.57,176.8,0,0.0,-1,0.0,0.0,0,0.25,0.3924
23564,1564323019198,0,2.25,1.41,0.73,2.17,1.96,0.54,0.32,1.05,-7,-1,-11,0.63,8873,100,81,31,86,903,769.0,633,457,60,129.0,263,1,421,588,199,0,0,785,-2344,-2826,760,-5.59,,,,,,,,,,,,
23584,1564323019218,0,2.26,1.42,0.72,2.17,1.95,0.42,0.27,1.1,-7,0,-10,0.5,8941,100,81,31,86,910,772.0,625,464,60,129.0,263,1,420,588,199,0,0,778,-10212,-8148,761,-5.59,,,,,,,,,,,,
23604,1564323019238,1,2.25,1.41,0.73,2.17,1.95,0.35,0.27,1.18,-7,2,-11,0.44,9014,100,81,31,86,914,775.0,631,457,60,129.0,263,1,418,588,199,0,0,788,-23308,-31068,764,-5.59,,,,,,,,,,,,
23624,1564323019258,0,2.25,1.42,0.72,2.18,1.95,0.22,0.22,1.26,-7,4,-9,0.31,9088,100,81,31,86,919,779.0,630,461,60,129.0,263,1,418,588,199,0,0,796,-22795,-2540,775,-5.59,,,,,,,,,,,,
23644,1564323019278,1,2.24,1.42,0.72,2.18,1.95,0.26,0.16,1.33,-7,4,-11,0.3,9119,100,81,31,86,924,785.0,634,460,60,130.0,260,1,418,588,202,0,0,814,-2344,-13312,776,-5.59,44.681324,10.016948,72.87,176.8,0,0.0,-1,0.0,0.0,0,0.25,0.3941
23664,1564323019296,2,2.24,1.41,0.72,2.18,1.95,0.3,0.01,1.36,-8,5,-9,0.3,9110,100,81,31,86,928,791.0,633,463,60,129.0,260,1,418,588,202,0,0,806,-8148,-2560,777,-5.59,,,,,,,,,,,,
23684,1564323019316,1,2.24,1.41,0.72,2.17,1.95,0.44,-0.14,1.39,-9,4,-10,0.47,9155,100,81,31,86,929,795.0,640,465,60,130.0,260,1,418,588,202,0,0,804,-7436,-2560,782,-5.59,,,,,,,,,,,,
23704,1564323019336,2,2.23,1.42,0.72,2.17,1.95,0.6,-0.25,1.41,-10,2,-10,0.65,9195,100,81,31,86,930,797.0,639,459,60,129.0,260,1,418,588,202,0,0,811,6905,-30694,784,-5.59,,,,,,,,,,,,
23724,1564323019356,3,2.24,1.41,0.72,2.18,1.95,0.74,-0.13,1.33,-10,2,-10,0.75,9245,100,81,31,86,931,799.0,643,463,60,130.0,260,1,418,588,202,0,0,817,-3888,-2826,788,-5.59,,,,,,,,,,,,
23744,1564323019376,2,2.24,1.41,0.72,2.17,1.94,0.73,0.04,1.18,-9,1,-9,0.73,9263,100,81,31,86,931,805.0,643,463,60,130.0,260,1,418,588,206,0,0,818,-2560,-2830,790,-5.59,44.681301,10.016939,75.29,176.7,0,0.0,-1,0.0,0.0,0,0.25,0.3957
23764,1564323019394,1,2.24,1.41,0.72,2.16,1.95,0.49,0.24,1.04,-8,1,-8,0.54,9295,100,81,31,85,931,807.0,642,458,60,128.0,260,1,418,576,206,0,0,823,-23490,-25858,795,-5.59,,,,,,,,,,,,
23784,1564323019414,0,2.24,1.41,0.72,2.17,1.96,0.45,0.24,1.13,-8,1,-8,0.51,9333,100,81,31,86,930,811.0,642,459,60,129.0,260,1,418,576,206,0,0,833,31988,-2358,800,-5.59,,,,,,,,,,,,
23804,1564323019434,1,2.24,1.41,0.72,2.17,1.94,0.61,0.02,1.22,-9,1,-9,0.61,9389,100,81,31,86,925,815.0,641,459,60,129.0,260,1,418,588,206,0,0,825,-3344,1037,803,-5.59,,,,,,,,,,,,
23824,1564323019454,2,2.22,1.41,0.72,2.17,1.94,0.56,0.1,1.11,-9,1,-9,0.57,9431,100,81,31,86,920,819.0,643,462,60,129.0,260,1,418,514,206,0,0,833,-2358,-2766,803,-5.59,,,,,,,,,,,,
23844,1564323019474,1,2.23,1.41,0.72,2.17,1.95,0.46,0.28,1.04,-8,1,-8,0.54,9551,100,81,31,85,915,823.0,640,465,60,130.0,255,1,416,503,207,0,0,843,-22796,-3580,806,-5.59,44.681282,10.016932,76.47,176.8,0,0.0,-1,0.0,0.0,0,0.25,0.3974
23864,1564323019494,2,2.24,1.41,0.72,2.17,1.96,0.55,0.19,1.13,-8,0,-9,0.58,9576,100,81,31,85,910,826.0,645,455,60,129.0,255,1,415,577,207,0,0,849,-3580,136,813,-5.59,,,,,,,,,,,,
23884,1564323019514,-1,2.24,1.41,0.72,2.17,1.95,0.59,0.25,1.08,-9,-1,-10,0.64,9585,100,81,31,85,905,830.0,643,466,60,129.0,255,1,415,578,207,0,0,846,-2356,136,813,-5.59,,,,,,,,,,,,
23904,1564323019534,2,2.23,1.41,0.72,2.17,1.95,0.46,0.25,1.05,-9,1,-10,0.52,9605,100,81,31,84,899,833.0,642,466,60,129.0,255,1,414,566,207,0,0,851,-22796,-10508,818,-5.59,,,,,,,,,,,,
23924,1564323019554,3,2.23,1.41,0.73,2.17,1.95,0.43,0.22,1.03,-8,1,-12,0.48,9620,100,81,31,84,899,836.0,644,458,60,130.0,255,1,413,566,207,0,0,854,136,-10508,827,-5.59,,,,,,,,,,,,
23944,1564323019574,0,2.23,1.41,0.73,2.17,1.95,0.37,0.39,0.87,-8,1,-10,0.53,9679,100,81,31,84,899,837.0,642,465,60,130.0,249,1,410,566,206,0,0,846,136,-2574,825,-5.59,44.681263,10.016924,79.21,176.8,0,0.0,-1,0.0,0.0,0,0.26,0.3991
23964,1564323019592,3,2.23,1.41,0.73,2.17,1.96,0.47,0.26,0.94,-8,-1,-11,0.54,9725,100,81,31,85,901,842.0,653,462,60,130.0,249,1,408,565,206,0,0,860,-23308,-2830,828,-5.59,,,,,,,,,,,,
23984,1564323019612,0,2.24,1.41,0.72,2.17,1.95,0.5,0.35,0.94,-8,-2,-11,0.62,9755,100,81,31,84,902,846.0,648,461,60,128.0,249,1,407,565,206,0,0,870,-31066,-9995,835,-5.59,,,,,,,,,,,,
24004,1564323019632,3,2.23,1.42,0.73,2.17,1.95,0.63,0.21,1.02,-8,-2,-11,0.66,9770,100,81,31,84,904,848.0,650,459,60,129.0,249,1,406,565,206,0,0,872,-3038,-1578,835,-5.59,,,,,,,,,,,,
24024,1564323019652,1,2.24,1.42,0.73,2.18,1.95,0.59,0.28,1.01,-8,-3,-11,0.66,9837,100,81,31,84,906,852.0,652,457,60,129.0,249,1,403,565,206,0,0,872,-1576,-2820,841,-5.59,,,,,,,,,,,,
24044,1564323019672,1,2.24,1.42,0.73,2.17,1.95,0.51,0.27,0.97,-8,-2,-11,0.58,9936,100,81,31,84,911,857.0,650,462,60,130.0,251,1,398,564,211,0,0,873,-11532,-2564,840,-5.59,44.681244,10.016917,80.83,176.7,0,0.0,-1,0.0,0.0,0,0.26,0.4007
24064,1564323019694,3,2.24,1.41,0.73,2.18,1.95,0.52,0.27,0.97,-9,-1,-11,0.59,9931,100,81,31,84,916,858.0,648,457,60,129.0,251,1,399,564,211,0,0,881,-11019,3,849,-5.59,,,,,,,,,,,,
24084,1564323019714,-0,2.25,1.41,0.73,2.17,1.95,0.41,0.24,0.88,-9,1,-11,0.47,9978,100,81,31,84,920,860.0,651,463,60,130.0,251,1,397,564,211,0,0,883,-2570,-2311,851,-5.59,,,,,,,,,,,,
24104,1564323019734,3,2.23,1.41,0.73,2.18,1.95,0.39,0.25,0.86,-9,2,-11,0.46,10032,100,81,31,84,923,866.0,650,453,60,129.0,251,1,397,564,211,0,0,882,-31068,-5120,851,-5.59,,,,,,,,,,,,
24124,1564323019754,1,2.25,1.42,0.74,2.17,1.96,0.43,0.26,0.85,-9,3,-11,0.5,10032,100,81,31,84,930,870.0,653,461,60,130.0,251,1,397,564,211,0,0,885,-2826,-2826,856,-5.59,,,,,,,,,,,,
24144,1564323019774,0,2.26,1.41,0.74,2.17,1.95,0.33,0.27,0.88,-8,4,-11,0.43,10037,100,81,31,84,937,873.0,651,461,60,129.0,249,1,397,564,215,0,0,884,-10508,3,861,-5.59,44.681225,10.016911,82.55,176.7,0,0.0,-1,0.0,0.0,0,0.26,0.4024
24164,1564323019794,-1,2.25,1.41,0.74,2.17,1.96,0.35,0.26,0.93,-9,3,-11,0.44,10042,100,81,31,84,941,877.0,650,464,60,130.0,249,1,397,564,215,0,0,890,-9995,3,864,-5.59,,,,,,,,,,,,
24184,1564323019814,-1,2.26,1.42,0.74,2.17,1.96,0.39,0.27,0.91,-9,2,-11,0.48,9745,100,81,31,83,946,878.0,650,456,60,132.0,249,1,407,551,215,0,0,890,-779,-1277,865,-5.59,,,,,,,,,,,,
24204,1564323019834,-1,2.26,1.41,0.73,2.17,1.95,0.49,0.15,0.92,-9,-0,-11,0.52,9245,100,81,31,86,951,876.0,639,455,60,131.0,249,1,418,576,215,0,0,880,-1576,-10508,870,-5.59,,,,,,,,,,,,
24224,1564323019854,-1,2.25,1.42,0.73,2.17,1.95,0.65,0.14,0.88,-9,-3,-11,0.66,9049,100,81,31,87,956,880.0,635,461,60,131.0,249,1,418,599,215,0,0,870,-2564,-9995,867,-5.59,,,,,,,,,,,,
24244,1564323019874,0,2.25,1.41,0.73,2.17,1.95,0.78,0.16,0.79,-8,-6,-11,0.8,8869,100,81,31,88,957,879.0,632,458,60,131.0,239,1,422,611,208,0,0,873,-775,-11019,866,-5.59,44.681206,10.016904,84.12,176.7,0,0.0,-1,0.0,0.0,0,0.26,0.4041
24264,1564323019898,1,2.26,1.41,0.73,2.17,1.94,0.91,0.1,0.75,-9,-7,-11,0.91,8672,100,81,31,88,957,878.0,628,458,60,130.0,239,1,428,611,208,0,0,877,-1576,-2426,870,-5.59,,,,,,,,,,,,
24284,1564323019918,2,2.26,1.41,0.72,2.17,1.95,0.96,0.1,0.77,-9,-7,-10,0.96,8786,100,81,31,88,1022,880.0,631,465,60,130.0,239,1,425,1051,208,0,0,870,-9995,-23308,868,-5.59,,,,,,,,,,,,
24304,1564323019938,3,2.26,1.41,0.73,2.16,1.95,0.87,0.05,0.82,-9,-6,-11,0.87,9128,100,81,31,87,1109,880.0,639,461,60,128.0,239,1,418,925,208,0,0,873,-2564,-2311,866,-5.59,,,,,,,,,,,,
24324,1564323019958,3,2.27,1.41,0.72,2.17,1.95,0.9,0.05,0.78,-9,-3,-11,0.9,9780,100,81,31,86,1194,879.0,649,457,60,129.0,239,1,406,816,208,0,0,873,-775,-3450,869,-5.59,,,,,,,,,,,,
24344,1564323019978,0,2.28,1.42,0.72,2.16,1.94,0.88,0.05,0.9,-8,-6,-9,0.88,10016,100,81,31,85,1281,875.0,651,463,60,129.0,329,1,396,675,286,0,0,913,-2311,-1556,873,-5.59,44.681183,10.016898,85.63,176.7,0,0.0,-1,0.0,0.0,0,0.27,0.4057
24364,1564323019998,-1,2.29,1.42,0.72,2.17,1.95,0.74,0.18,1.0,-7,-4,-9,0.76,9650,100,81,31,85,1368,886.0,653,468,60,130.0,329,1,412,584,286,0,0,909,-30469,-775,879,-5.59,,,,,,,,,,,,
24384,1564323020010,-1,2.29,1.42,0.73,2.17,1.96,0.71,0.22,1.06,-6,-1,-9,0.74,9245,100,81,31,85,1454,888.0,646,459,60,128.0,329,1,418,576,286,0,0,927,771,-4871,881,-5.59,,,,,,,,,,,,
24404,1564323020030,-0,2.29,1.42,0.72,2.18,1.95,0.51,0.19,1.02,-5,-1,-8,0.54,8984,100,81,31,85,1498,891.0,638,458,60,130.0,329,1,419,588,286,0,0,906,-5120,-4878,885,-5.59,,,,,,,,,,,,
24424,1564323020050,0,2.28,1.41,0.72,2.17,1.96,0.42,0.22,1.05,-4,-0,-9,0.48,8782,100,81,31,86,1498,890.0,633,457,60,129.0,329,1,424,588,286,0,0,912,3,-5113,888,-5.59,,,,,,,,,,,,
24444,1564323020070,-2,2.29,1.42,0.72,2.17,1.96,0.34,0.35,0.99,-3,2,-7,0.49,8765,100,81,31,86,1447,896.0,630,460,60,129.0,219,1,424,588,195,0,0,910,16,-4873,886,-5.59,44.681164,10.016893,86.22,176.7,0,0.0,-1,0.0,0.0,0,0.27,0.4074
24464,1564323020097,3,2.28,1.42,0.72,2.18,1.95,0.38,0.41,1.0,-2,1,-6,0.56,8911,100,81,31,86,1344,896.0,631,460,60,130.0,219,1,420,588,195,0,0,920,16,2028,888,-5.59,,,,,,,,,,,,
24484,1564323020117,2,2.29,1.42,0.73,2.17,1.96,0.36,0.53,0.92,-1,1,-6,0.64,9071,100,81,31,86,1241,899.0,637,460,60,130.0,219,1,418,588,195,0,0,913,-5114,-1300,896,-5.59,,,,,,,,,,,,
24504,1564323020137,-1,2.28,1.42,0.71,2.17,1.96,0.37,0.61,0.99,-0,1,-6,0.72,9128,100,81,31,86,1138,903.0,636,463,60,130.0,219,1,418,588,195,0,0,924,-4879,-788,899,181.28,,,,,,,,,,,,
24524,1564323020157,1,2.28,1.42,0.71,2.18,1.95,0.28,0.75,0.9,0,3,-5,0.8,9141,100,81,31,86,1044,908.0,641,464,60,130.0,219,1,418,588,195,0,0,927,-2836,9216,897,414.87,,,,,,,,,,,,
24544,1564323020177,0,2.27,1.42,0.72,2.17,1.95,0.19,0.72,0.98,0,3,-5,0.75,9146,100,81,31,86,961,911.0,640,457,60,128.0,221,1,418,576,200,0,0,926,-2836,29732,911,-5.59,44.681145,10.016888,86.48,176.7,0,0.0,-1,0.0,0.0,0,0.27,0.4091
24564,1564323020197,2,2.26,1.42,0.72,2.18,1.95,0.09,0.66,1.02,-0,4,-5,0.67,9146,100,81,31,86,903,915.0,641,456,60,129.0,221,1,418,588,200,0,0,939,-4873,-9476,910,-5.59,,,,,,,,,,,,
24584,1564323020217,2,2.28,1.42,0.71,2.18,1.95,0.1,0.51,1.11,-1,4,-5,0.52,9146,100,81,31,86,922,920.0,641,459,60,130.0,221,1,418,588,200,0,0,938,-1300,-1540,911,-5.59,,,,,,,,,,,,
24604,1564323020237,2,2.28,1.42,0.71,2.18,1.95,0.23,0.28,1.2,-2,3,-6,0.36,9146,100,81,31,86,941,919.0,638,463,60,130.0,221,1,418,588,200,0,0,942,-4872,9216,919,-5.59,,,,,,,,,,,,
24624,1564323020257,2,2.27,1.42,0.71,2.18,1.95,0.31,0.16,1.19,-2,1,-6,0.35,9159,100,81,31,86,958,924.0,641,462,60,130.0,221,1,418,588,200,0,0,935,-788,-2564,922,-5.59,,,,,,,,,,,,
24644,1564323020277,1,2.29,1.42,0.72,2.17,1.96,0.47,-0.0,1.01,-2,-2,-5,0.47,9213,100,81,31,85,970,927.0,637,466,60,130.0,222,1,418,588,205,0,0,942,9216,-1284,919,-5.59,44.681122,10.016884,88.78,176.7,0,0.0,-1,0.0,0.0,0,0.27,0.4107
24664,1564323020297,-1,2.29,1.41,0.71,2.17,1.96,0.46,0.07,0.83,-2,-2,-4,0.46,9250,100,81,31,85,967,926.0,641,458,60,129.0,222,1,418,576,205,0,0,952,-9476,-777,921,-5.59,,,,,,,,,,,,
24684,1564323020317,1,2.28,1.42,0.71,2.17,1.96,0.39,0.23,0.76,-1,-3,-3,0.45,9319,100,81,31,85,963,932.0,636,459,60,128.0,222,1,418,576,205,0,0,950,9216,-3076,930,-5.59,,,,,,,,,,,,
24704,1564323020337,1,2.3,1.42,0.72,2.17,1.96,0.37,0.25,0.83,-1,-2,-4,0.44,9333,100,81,31,86,957,933.0,640,461,60,129.0,222,1,418,588,205,0,0,951,-773,-1277,927,181.28,,,,,,,,,,,,
24724,1564323020357,1,2.3,1.42,0.71,2.17,1.96,0.35,0.09,0.81,-2,-3,-3,0.36,9375,100,81,31,85,951,937.0,636,459,60,129.0,222,1,418,576,205,0,0,963,-1540,-3588,934,-5.59,,,,,,,,,,,,
24744,1564323020377,3,2.3,1.42,0.71,2.17,1.96,0.42,0.06,0.9,-1,-4,-3,0.42,9441,100,81,31,85,947,941.0,646,459,60,130.0,217,1,418,576,205,0,0,950,-777,1020,941,648.46,44.681099,10.016879,89.92,176.7,0,0.0,-1,0.0,0.0,0,0.28,0.4124
24764,1564323020397,0,2.3,1.42,0.71,2.18,1.95,0.4,0.1,0.93,-0,-2,-3,0.41,9422,100,81,31,85,942,945.0,643,461,60,129.0,217,1,418,576,205,0,0,965,-777,-1277,945,-5.59,,,,,,,,,,,,
24784,1564323020417,3,2.3,1.42,0.71,2.19,1.95,0.39,-0.0,0.93,-0,-1,-3,0.39,9445,100,81,31,85,935,945.0,642,460,60,130.0,217,1,418,576,205,0,0,959,-778,252,943,-5.59,,,,,,,,,,,,
24804,1564323020437,2,2.3,1.42,0.72,2.18,1.96,0.38,-0.04,0.86,0,0,-2,0.38,9469,100,81,31,85,929,947.0,642,459,60,130.0,217,1,418,576,205,0,0,962,-2820,-4876,947,-5.59,,,,,,,,,,,,
24824,1564323020457,1,2.3,1.42,0.72,2.18,1.96,0.33,-0.02,0.92,1,1,-1,0.33,9498,100,81,31,85,926,951.0,643,466,60,130.0,217,1,418,576,205,0,0,970,-782,1020,950,-5.59,,,,,,,,,,,,
24844,1564323020477,2,2.29,1.42,0.72,2.18,1.95,0.37,-0.06,0.98,1,0,-2,0.37,9541,100,81,31,85,923,952.0,646,460,60,130.0,219,1,417,577,208,0,0,981,-783,2056,950,-5.59,44.681076,10.016874,91.8,176.7,0,0.0,-1,0.0,0.0,0,0.28,0.4141
24864,1564323020493,-4,2.3,1.43,0.71,2.19,1.96,0.4,-0.08,0.91,0,1,-1,0.41,9600,100,81,31,85,910,958.0,643,463,60,130.0,219,1,414,577,208,0,0,974,-783,-30469,957,181.28,,,,,,,,,,,,
24884,1564323020513,1,2.29,1.42,0.71,2.19,1.95,0.46,-0.17,0.92,1,2,-0,0.49,9600,100,81,31,85,898,958.0,645,458,60,128.0,219,1,414,577,208,0,0,978,252,2250,959,-5.59,,,,,,,,,,,,
24904,1564323020533,3,2.29,1.42,0.71,2.19,1.95,0.44,-0.17,0.9,0,2,-0,0.47,9590,95,81,31,84,888,963.0,642,460,60,130.0,219,1,414,566,208,0,0,990,-1277,16599,957,-5.59,,,,,,,,,,,,
24924,1564323020553,2,2.29,1.42,0.71,2.19,1.95,0.34,-0.16,0.85,1,-0,-0,0.37,9615,76,81,31,82,878,964.0,640,455,60,129.0,219,1,411,540,208,0,0,986,-30469,2056,962,-5.59,,,,,,,,,,,,
24944,1564323020573,6,2.3,1.42,0.71,2.18,1.95,0.45,-0.19,0.88,1,-0,-2,0.49,9635,54,81,31,74,879,968.0,646,465,60,130.0,188,1,411,456,182,0,0,983,771,-2560,963,-5.59,44.681053,10.01687,92.99,176.7,0,0.0,-1,0.0,0.0,0,0.28,0.4157
24964,1564323020593,7,2.29,1.42,0.72,2.18,1.96,0.51,-0.18,0.81,1,-1,-1,0.54,9576,31,81,31,63,879,964.0,638,463,60,130.0,188,1,414,367,182,0,0,977,-30469,-2830,959,-5.59,,,,,,,,,,,,
24984,1564323020613,11,2.3,1.42,0.72,2.18,1.96,0.51,-0.25,0.79,1,0,-0,0.57,9389,15,81,31,53,887,962.0,645,461,60,129.0,188,1,396,315,182,0,0,978,-1024,-2830,962,-5.59,,,,,,,,,,,,
25004,1564323020633,13,2.3,1.43,0.71,2.19,1.95,0.56,-0.35,0.72,2,-0,-0,0.66,9031,6,81,31,45,898,967.0,642,460,60,129.0,188,1,357,228,182,0,0,959,-1024,2044,964,-5.59,,,,,,,,,,,,
25024,1564323020653,13,2.31,1.43,0.72,2.19,1.95,0.69,-0.44,0.62,1,1,2,0.81,8790,1,81,31,40,899,956.0,640,464,60,128.0,188,1,326,137,182,0,0,943,1788,771,953,-5.59,,,,,,,,,,,,
25044,1564323020673,16,2.31,1.42,0.71,2.2,1.96,0.63,-0.48,0.48,2,1,2,0.8,8640,0,81,31,36,900,959.0,636,465,60,130.0,72,1,311,202,69,0,0,932,-781,-2564,957,181.28,44.681026,10.016865,94.69,176.7,0,0.0,-1,0.0,0.0,0,0.28,0.4174
25064,1564323020693,16,2.3,1.43,0.71,2.19,1.95,0.72,-0.38,0.55,2,-0,1,0.82,8453,0,81,31,34,893,956.0,633,465,60,130.0,72,1,304,197,69,0,0,924,-781,-2820,953,-5.59,,,,,,,,,,,,
25084,1564323020713,14,2.32,1.43,0.72,2.2,1.95,0.84,-0.35,0.49,1,0,4,0.91,8461,0,81,31,33,883,950.0,628,466,60,129.0,72,1,301,189,69,0,0,880,-3332,-1044,943,-5.59,,,,,,,,,,,,
25104,1564323020733,20,2.32,1.43,0.71,2.2,1.95,0.82,-0.38,0.39,2,1,4,0.9,8480,0,81,31,31,866,944.0,632,465,60,130.0,72,1,294,186,69,0,0,875,-776,-14848,944,-5.59,,,,,,,,,,,,
25124,1564323020753,19,2.31,1.43,0.72,2.2,1.95,0.88,-0.28,0.48,2,-0,3,0.93,8511,0,81,31,30,848,941.0,635,466,60,130.0,72,1,291,188,69,0,0,859,-772,-779,941,-5.59,,,,,,,,,,,,
25144,1564323020773,17,2.32,1.43,0.71,2.19,1.95,0.97,-0.3,0.42,2,0,4,1.02,8518,0,81,31,28,835,935.0,635,462,60,129.0,65,1,282,188,61,0,0,830,-774,-14848,928,-5.59,44.681004,10.01686,95.53,176.7,0,0.0,-1,0.0,0.0,0,0.29,0.4191
25164,1564323020793,21,2.3,1.43,0.72,2.21,1.96,0.97,-0.33,0.32,2,2,4,1.03,8503,0,81,31,27,826,930.0,638,467,60,130.0,65,1,278,110,61,0,0,794,-4869,-2068,934,-5.59,,,,,,,,,,,,
25184,1564323020813,16,2.31,1.43,0.72,2.2,1.96,1.07,-0.28,0.35,2,-0,3,1.1,8389,0,81,31,27,825,928.0,631,461,60,129.0,65,1,277,181,61,0,0,803,-4869,-1812,928,-5.59,,,,,,,,,,,,
25204,1564323020833,21,2.31,1.43,0.72,2.21,1.96,1.07,-0.31,0.26,2,-1,4,1.11,8296,0,81,31,26,827,916.0,635,463,60,130.0,65,1,273,176,61,0,0,824,-2068,-4879,916,-5.59,,,,,,,,,,,,
25224,1564323020853,18,2.3,1.42,0.72,2.2,1.96,1.07,-0.28,0.27,2,-2,4,1.11,8307,0,81,31,26,834,911.0,633,464,60,130.0,65,1,273,177,61,0,0,847,-3092,3,911,-5.59,,,,,,,,,,,,
25244,1564323020873,17,2.3,1.42,0.72,2.19,1.96,1.12,-0.3,0.2,2,-1,4,1.16,8359,0,81,31,26,846,908.0,636,460,60,128.0,62,1,273,179,57,0,0,852,-5120,-1578,906,-5.59,44.680984,10.016854,94.59,176.7,0,0.0,-1,0.0,0.0,0,0.29,0.4207
25264,1564323020897,19,2.3,1.42,0.72,2.19,1.96,1.06,-0.27,0.12,1,0,5,1.1,8415,0,81,31,26,849,900.0,637,467,60,129.0,62,1,274,104,57,0,0,844,-5120,-31068,900,-5.59,,,,,,,,,,,,
25284,1564323020917,17,2.31,1.43,0.72,2.19,1.95,1.13,-0.23,0.13,1,-1,4,1.15,8408,0,81,31,26,845,893.0,635,463,60,129.0,62,1,274,104,57,0,0,850,236,-31068,893,-5.59,,,,,,,,,,,,
25304,1564323020937,20,2.31,1.42,0.71,2.18,1.96,1.12,-0.28,0.02,1,-1,4,1.15,8381,0,81,31,26,835,888.0,633,463,60,129.0,62,1,273,180,57,0,0,843,-779,-2311,885,-5.59,,,,,,,,,,,,
25324,1564323020957,17,2.31,1.42,0.71,2.18,1.96,1.1,-0.23,0.07,2,-2,4,1.12,8363,0,81,31,26,820,883.0,636,463,60,128.0,62,1,273,179,57,0,0,840,-1576,13049,883,-5.59,,,,,,,,,,,,
25344,1564323020977,20,2.31,1.42,0.71,2.18,1.96,1.08,-0.26,-0.02,2,-1,4,1.12,8263,0,81,31,26,806,874.0,633,462,60,127.0,63,1,273,174,56,0,0,834,-2570,-11532,873,-5.59,44.680962,10.01685,91.94,176.7,0,0.0,-1,0.0,0.0,0,0.29,0.4224
25364,1564323020997,17,2.32,1.42,0.72,2.18,1.96,1.12,-0.24,0.02,2,0,5,1.14,8216,0,81,31,26,794,875.0,631,464,60,128.0,63,1,273,92,56,0,0,822,-22795,-11532,875,-5.59,,,,,,,,,,,,
25384,1564323021009,19,2.31,1.43,0.71,2.18,1.95,1.12,-0.22,0.05,3,-1,4,1.14,8138,0,81,31,26,787,871.0,627,465,60,128.0,63,1,273,89,56,0,0,810,-11019,13049,871,-5.59,,,,,,,,,,,,
