"Interval"|"ms"|0|0|1,"Utc"|"ms"|0|0|1,"FB_p"|"bar"|0|300|50,"Volant"|"F"|0.0|300.0|50,"xFR"|"mm"|0.0|5.0|50,"xRR"|"mm"|0.0|5.0|50,"xFL"|"mm"|0.0|5.0|50,"xRL"|"mm"|0.0|5.0|50,"AccelX"|"G"|-3.0|3.0|50,"AccelY"|"G"|-3.0|3.0|50,"AccelZ"|"G"|-3.0|3.0|50,"Yaw"|"Deg/Sec"|-120|120|50,"Pitch"|"Deg/Sec"|-120|120|50,"Roll"|"Deg/Sec"|-120|120|50,"Gsum"|"G"|0.0|3.0|50,"RPM"|""|0|14000|50,"TPS"|"%"|0|100|50,"WaterTemp"|"?C"|0|300|50,"AirTemp"|"?C"|-1000|1000|50,"MAP"|"KPa"|0|255|50,"Lambda"|""|0|1024|50,"WheelSpeed"|"MPH"|0.0|150.0|50,"OilPress"|"PSI"|0|150|50,"FuelPress"|"PSI"|0|150|50,"OilTemp"|"F"|0|300|50,"Battery"|"Volts"|0.0|20.0|50,"FuelCon"|"L/h"|-1000|1000|50,"Gear"|""|0|10|50,"Advance"|"Deg"|-360|360|50,"Injection"|"ms"|-1000|1000|50,"FuelCon"|"L/100km"|-1000|1000|50,"LC_But_Pres"|""|-1000|1000|50,"LC_Active"|""|-1000|1000|50,"RD_Speed"|""|-1000|1000|50,"RUD_Speed"|""|-1000|1000|50,"LD_Speed"|""|-1000|1000|50,"LUD_Speed"|""|-1000|1000|50,"Ana1"|"bar"|-1000.0|1000.0|50,"Latitude"|"Degrees"|-180.0|180.0|10,"Longitude"|"Degrees"|-180.0|180.0|10,"Speed"|"kph"|0.0|150.0|10,"Altitude"|"m"|0.0|4000.0|10,"LapCount"|""|0|0|10,"LapTime"|"Min"|0.0|0.0|10,"Sector"|""|0|0|10,"SectorTime"|"Min"|0.0|0.0|10,"ElapsedTime"|"Min"|0.0|0.0|10,"CurrentLap"|""|0|0|10,"Distance"|"km"|0.0|0.0|10,"SessionTime"|"Min"|0.0|0.0|10
64464,1564323230319,1,2.24,1.39,0.67,2.05,1.82,0.83,0.38,0.7,-8,-7,-14,0.91,7178,100,87,31,92,1421,570.0,508,459,60,120.0,385,1,384,541,218,0,0,554,-3190,-28648,560,-5.59,,,,,,,,,,,,
64484,1564323230339,0,2.24,1.38,0.67,2.04,1.83,0.83,0.44,0.64,-9,-6,-13,0.94,7640,100,87,31,92,1397,571.0,525,462,60,120.0,271,1,420,486,152,0,0,534,1267,-22519,559,-5.59,,,,,,,,,,,,
64504,1564323230359,2,2.24,1.39,0.67,2.05,1.83,0.88,0.47,0.63,-9,-5,-13,1.0,8259,100,87,31,90,1397,572.0,549,461,60,121.0,271,1,443,608,152,0,0,564,-8188,-18032,560,181.28,,,,,,,,,,,,
64524,1564323230379,1,2.24,1.39,0.67,2.05,1.83,0.99,0.45,0.68,-10,-6,-12,1.09,9031,100,87,31,87,1397,572.0,586,463,60,121.0,271,1,418,611,152,0,0,574,-8188,-22359,559,-5.59,,,,,,,,,,,,
64544,1564323230399,2,2.23,1.39,0.67,2.05,1.83,0.73,0.48,0.74,-10,-1,-11,0.88,9659,100,87,31,86,1418,572.0,623,460,60,120.0,271,1,412,593,152,0,0,583,-8188,15649,558,-5.59,44.681362,10.016965,55.87,177.9,0,0.0,-1,0.0,0.0,0,0.37,1.0757
64564,1564323230419,2,2.23,1.4,0.67,2.05,1.83,0.57,0.46,0.75,-9,4,-10,0.73,9699,100,87,31,85,1443,578.0,631,462,60,120.0,271,1,409,579,152,0,0,624,-16384,12333,566,-5.59,,,,,,,,,,,,
64584,1564323230439,2,2.24,1.39,0.67,2.05,1.84,0.7,0.49,0.87,-10,1,-11,0.85,9699,100,87,31,88,1424,585.0,605,460,60,120.0,383,1,411,622,218,0,0,653,-25872,-2345,572,-5.59,,,,,,,,,,,,
64604,1564323230459,-2,2.24,1.39,0.67,2.05,1.83,0.83,0.45,0.89,-10,1,-10,0.95,7393,100,87,31,91,1405,589.0,566,456,60,120.0,383,1,402,550,218,0,0,590,2048,-16384,572,-5.59,,,,,,,,,,,,
64624,1564323230479,1,2.24,1.39,0.67,2.05,1.84,0.88,0.34,0.92,-11,-4,-11,0.94,7200,100,87,31,92,1368,581.0,547,458,60,121.0,383,1,386,542,218,0,0,582,10432,1780,569,-5.59,,,,,,,,,,,,
64644,1564323230499,2,2.24,1.39,0.66,2.05,1.83,0.92,0.42,0.87,-11,-5,-9,1.01,7142,100,87,31,92,1324,579.0,537,457,60,120.0,383,1,382,539,218,0,0,578,243,1267,568,-5.59,44.681347,10.016958,55.55,177.9,0,0.0,-1,0.0,0.0,0,0.37,1.0774
64664,1564323230519,2,2.24,1.39,0.66,2.04,1.83,0.8,0.53,0.77,-9,-3,-9,0.96,7381,100,87,31,92,1308,579.0,533,463,60,120.0,383,1,400,550,218,0,0,577,243,1780,571,-5.59,,,,,,,,,,,,
64684,1564323230539,2,2.24,1.39,0.67,2.04,1.83,0.71,0.5,0.7,-8,-3,-10,0.87,7789,100,87,31,92,1300,577.0,543,460,60,120.0,278,1,431,567,159,0,0,578,-3210,-30159,571,-5.59,,,,,,,,,,,,
64704,1564323230559,2,2.24,1.39,0.67,2.06,1.83,0.75,0.54,0.81,-7,-4,-11,0.93,8393,100,87,31,90,1324,583.0,563,461,60,120.0,278,1,439,609,159,0,0,579,15649,-8186,574,-5.59,,,,,,,,,,,,
64724,1564323230579,2,2.24,1.4,0.67,2.06,1.84,0.74,0.57,0.73,-7,-6,-10,0.93,9115,100,87,31,87,1360,584.0,604,464,60,121.0,278,1,418,599,159,0,0,582,15649,1760,576,-5.59,,,,,,,,,,,,
64744,1564323230599,0,2.24,1.4,0.68,2.06,1.84,0.61,0.7,0.76,-7,-0,-8,0.92,9484,100,87,31,86,1402,588.0,627,463,60,120.0,278,1,418,588,159,0,0,605,208,5344,577,-5.59,44.681335,10.016953,56.85,177.9,0,0.0,-1,0.0,0.0,0,0.37,1.0791
64764,1564323230619,1,2.25,1.4,0.69,2.06,1.84,0.45,0.62,0.87,-7,3,-9,0.77,9370,100,87,31,86,1445,596.0,634,466,60,120.0,278,1,418,588,159,0,0,653,4956,11069,588,-5.59,,,,,,,,,,,,
64784,1564323230639,2,2.25,1.39,0.67,2.06,1.84,0.59,0.7,0.95,-7,3,-7,0.92,9370,100,87,31,88,1470,601.0,602,461,60,120.0,354,1,418,599,209,0,0,657,243,-2580,593,-5.59,,,,,,,,,,,,
64804,1564323230659,1,2.26,1.4,0.68,2.06,1.84,0.64,0.63,1.01,-7,1,-11,0.9,9370,100,87,31,91,1478,606.0,572,461,60,120.0,354,1,419,639,209,0,0,604,-23055,-23055,592,-5.59,,,,,,,,,,,,
64824,1564323230679,-1,2.26,1.39,0.68,2.05,1.84,0.78,0.47,1.0,-8,-2,-11,0.91,7247,100,87,31,92,1441,598.0,547,455,60,120.0,354,1,390,543,209,0,0,600,17344,3472,591,-5.59,,,,,,,,,,,,
64844,1564323230699,1,2.26,1.39,0.67,2.05,1.84,0.82,0.47,1.01,-7,-3,-9,0.94,7080,100,87,31,92,1383,594.0,532,456,60,122.0,354,1,377,536,209,0,0,595,-13043,208,587,-5.59,44.681324,10.016946,56.89,177.9,0,0.0,-1,0.0,0.0,0,0.37,1.0807
64864,1564323230719,1,2.26,1.39,0.67,2.05,1.84,0.81,0.52,0.9,-6,-5,-10,0.96,7129,100,87,31,92,1321,593.0,521,460,60,120.0,354,1,381,538,209,0,0,589,-16179,-4035,589,-5.59,,,,,,,,,,,,
64884,1564323230739,2,2.26,1.39,0.67,2.04,1.84,0.71,0.49,0.85,-5,-7,-10,0.87,7603,100,87,31,92,1255,591.0,532,461,60,120.0,255,1,417,559,151,0,0,575,6273,774,591,-5.59,,,,,,,,,,,,
64904,1564323230759,1,2.26,1.4,0.67,2.05,1.84,0.8,0.42,0.83,-5,-7,-10,0.9,8278,100,87,31,90,1222,593.0,560,462,60,121.0,255,1,443,610,151,0,0,571,3472,243,589,-5.59,,,,,,,,,,,,
64924,1564323230779,2,2.27,1.4,0.67,2.05,1.84,0.87,0.26,0.83,-6,-4,-10,0.9,9057,100,87,31,87,1222,594.0,603,459,60,120.0,255,1,418,599,151,0,0,588,-13043,-12040,591,-5.59,,,,,,,,,,,,
64944,1564323230799,1,2.25,1.4,0.67,2.06,1.85,0.69,0.37,0.72,-5,0,-8,0.78,9755,100,87,31,86,1251,595.0,633,458,60,120.0,255,1,407,594,151,0,0,596,-16179,2048,589,-5.59,44.681309,10.01694,58.15,177.9,0,0.0,-1,0.0,0.0,0,0.37,1.0824
64964,1564323230819,1,2.26,1.4,0.67,2.06,1.85,0.63,0.44,0.78,-6,5,-7,0.77,10059,100,87,31,85,1317,598.0,642,459,60,120.0,255,1,399,582,151,0,0,636,243,-14655,593,-5.59,,,,,,,,,,,,
64984,1564323230839,1,2.25,1.4,0.68,2.06,1.84,0.64,0.36,0.9,-6,5,-9,0.74,10059,100,87,31,86,1361,607.0,636,460,60,120.0,370,1,400,582,222,0,0,713,19621,-2356,603,-5.59,,,,,,,,,,,,
65004,1564323230859,2,2.26,1.39,0.67,2.06,1.85,0.62,0.39,0.75,-6,7,-8,0.73,688,100,87,31,89,1379,614.0,604,462,60,120.0,370,1,90,194,222,0,0,626,16529,3403,608,-5.59,,,,,,,,,,,,
65024,1564323230879,1,2.25,1.4,0.67,2.05,1.84,0.71,0.41,0.74,-6,6,-8,0.82,7861,100,87,31,90,1382,610.0,575,455,60,119.0,370,1,439,569,222,0,0,611,-3446,5344,603,-5.59,,,,,,,,,,,,
65044,1564323230899,0,2.25,1.39,0.66,2.04,1.83,0.8,0.43,0.75,-6,2,-7,0.91,7731,100,87,31,90,1335,608.0,562,459,60,121.0,370,1,429,564,222,0,0,602,19621,3472,599,-5.59,44.681294,10.016934,58.15,177.9,0,0.0,-1,0.0,0.0,0,0.38,1.0841
65064,1564323230919,3,2.26,1.39,0.66,2.04,1.84,0.69,0.45,0.69,-5,1,-7,0.82,8252,100,87,31,90,1304,607.0,563,459,60,120.0,370,1,443,596,222,0,0,599,19621,-768,600,181.28,,,,,,,,,,,,
65084,1564323230939,3,2.26,1.39,0.66,2.04,1.84,0.77,0.48,0.69,-5,-1,-7,0.91,8827,100,87,31,88,1304,603.0,596,463,60,121.0,322,1,424,611,194,0,0,601,-7939,5344,601,-5.59,,,,,,,,,,,,
65104,1564323230959,1,2.27,1.4,0.66,2.04,1.84,0.77,0.59,0.69,-4,-1,-6,0.97,9300,100,87,31,86,1313,609.0,625,463,60,120.0,322,1,418,588,194,0,0,622,-3446,-16046,603,-5.59,,,,,,,,,,,,
65124,1564323230979,0,2.26,1.4,0.66,2.05,1.84,0.66,0.67,0.79,-4,3,-7,0.94,9337,100,87,31,85,1361,615.0,635,469,60,120.0,322,1,418,576,194,0,0,687,26688,11576,612,-5.59,,,,,,,,,,,,
65144,1564323230991,2,2.26,1.4,0.66,2.05,1.84,0.7,0.66,0.9,-4,3,-6,0.97,9337,100,87,31,87,1405,624.0,620,465,60,120.0,322,1,418,599,194,0,0,651,-16883,-26380,616,-5.59,44.681282,10.01693,59.34,177.9,0,0.0,-1,0.0,0.0,0,0.38,1.0857
65164,1564323231011,1,2.25,1.4,0.66,2.06,1.84,0.6,0.7,0.8,-3,4,-6,0.92,9337,100,86,31,90,1440,627.0,601,463,60,120.0,322,1,419,560,194,0,0,630,-1346,20993,620,-5.59,,,,,,,,,,,,
65184,1564323231031,0,2.24,1.4,0.66,2.06,1.84,0.6,0.68,0.73,-3,4,-7,0.91,7716,100,86,31,91,1470,621.0,579,457,60,120.0,362,1,426,488,224,0,0,623,3395,20993,615,-5.59,,,,,,,,,,,,
65204,1564323231051,-2,2.25,1.4,0.66,2.05,1.84,0.65,0.59,0.69,-4,3,-7,0.88,7665,100,87,31,91,1459,621.0,556,457,60,121.0,362,1,422,561,224,0,0,618,-18357,3403,613,-5.59,,,,,,,,,,,,
65224,1564323231071,1,2.23,1.4,0.66,2.04,1.84,0.71,0.5,0.75,-5,0,-7,0.86,7809,100,87,31,91,1450,619.0,556,456,60,121.0,362,1,434,568,224,0,0,616,30721,-3446,610,-5.59,,,,,,,,,,,,
65244,1564323231099,2,2.24,1.4,0.65,2.06,1.83,0.66,0.44,0.71,-5,0,-7,0.79,8348,100,86,31,90,1450,621.0,571,463,60,120.0,362,1,441,615,224,0,0,616,-18357,3403,611,-5.59,44.681263,10.016924,60.09,177.9,0,0.0,-1,0.0,0.0,0,0.38,1.0874
65264,1564323231119,1,2.24,1.39,0.66,2.05,1.84,0.55,0.6,0.72,-4,-1,-7,0.81,9049,100,86,31,87,1450,621.0,593,459,60,120.0,362,1,418,599,224,0,0,616,3395,-30139,614,-5.59,,,,,,,,,,,,
65284,1564323231139,1,2.25,1.4,0.66,2.06,1.83,0.53,0.41,0.78,-5,-1,-8,0.66,9704,100,86,31,86,1463,626.0,627,462,60,120.0,343,1,410,593,210,0,0,615,3395,1010,610,-5.59,,,,,,,,,,,,
65304,1564323231159,1,2.24,1.4,0.65,2.05,1.84,0.62,0.38,0.85,-6,3,-8,0.73,10129,100,86,31,85,1475,626.0,638,462,60,120.0,343,1,404,582,210,0,0,643,506,11566,614,-5.59,,,,,,,,,,,,
65324,1564323231179,3,2.25,1.41,0.66,2.07,1.85,0.48,0.27,0.96,-7,5,-10,0.55,10129,100,86,31,86,1487,634.0,632,461,60,120.0,343,1,405,582,210,0,0,697,-2836,6790,621,-5.59,,,,,,,,,,,,
65344,1564323231199,3,2.25,1.41,0.66,2.07,1.85,0.59,0.38,0.99,-6,7,-10,0.7,10129,100,86,31,89,1498,640.0,613,462,60,120.0,343,1,407,639,210,0,0,651,24,966,625,-5.59,44.681252,10.016919,60.64,177.9,0,0.0,-1,0.0,0.0,0,0.38,1.0891
65364,1564323231219,3,2.25,1.4,0.65,2.05,1.84,0.47,0.48,0.96,-5,5,-11,0.67,10129,100,86,31,91,1498,639.0,590,463,60,119.0,343,1,408,609,210,0,0,635,6208,3395,626,-5.59,,,,,,,,,,,,
65384,1564323231239,3,2.25,1.4,0.65,2.06,1.83,0.5,0.47,0.9,-5,4,-11,0.68,7662,100,86,31,92,1498,631.0,571,470,60,120.0,6,1,421,562,4,0,0,630,771,-16046,627,-5.59,,,,,,,,,,,,
65404,1564323231259,-0,2.25,1.4,0.65,2.04,1.83,0.6,0.55,0.8,-5,2,-10,0.81,7470,100,87,31,91,1481,629.0,555,456,60,122.0,6,1,408,553,4,0,0,628,-14655,19320,620,-5.59,,,,,,,,,,,,
65424,1564323231279,2,2.25,1.4,0.65,2.05,1.84,0.65,0.54,0.75,-5,-0,-10,0.85,7703,100,86,31,91,1462,626.0,550,461,60,120.0,6,1,425,564,4,0,0,613,20993,-768,618,-5.59,,,,,,,,,,,,
65444,1564323231298,4,2.25,1.4,0.66,2.06,1.84,0.55,0.51,0.64,-4,1,-10,0.75,8612,100,86,31,89,1444,625.0,567,460,60,119.0,6,1,431,613,4,0,0,604,-16883,-32504,617,181.28,44.681236,10.016914,61.18,177.8,0,0.0,-1,0.0,0.0,0,0.38,1.0907
65464,1564323231318,1,2.25,1.41,0.66,2.06,1.85,0.5,0.57,0.62,-4,2,-10,0.76,9204,100,86,31,86,1425,625.0,600,465,60,121.0,6,1,418,599,4,0,0,621,-1346,-30139,617,-5.59,,,,,,,,,,,,
65484,1564323231338,2,2.25,1.41,0.66,2.07,1.85,0.63,0.49,0.61,-4,3,-9,0.8,9978,100,86,31,85,1424,630.0,635,463,60,120.0,348,1,397,582,216,0,0,622,966,19304,620,-5.59,,,,,,,,,,,,
65504,1564323231358,2,2.25,1.41,0.66,2.08,1.84,0.62,0.42,0.74,-5,1,-8,0.75,10341,100,86,31,84,1424,630.0,642,458,60,120.0,348,1,418,564,216,0,0,654,966,2024,622,-5.59,,,,,,,,,,,,
65524,1564323231378,0,2.26,1.41,0.66,2.07,1.85,0.59,0.42,0.84,-6,5,-7,0.73,10336,100,86,31,85,1437,642.0,642,464,60,120.0,348,1,419,582,216,0,0,725,-2830,-2826,630,-5.59,,,,,,,,,,,,
65544,1564323231398,2,2.27,1.41,0.66,2.07,1.85,0.7,0.58,0.82,-5,5,-7,0.91,10336,100,86,31,87,1455,645.0,627,462,60,120.0,348,1,421,620,216,0,0,675,11566,3543,634,-5.59,44.681221,10.016911,61.09,177.8,0,0.0,-1,0.0,0.0,0,0.38,1.0924
65564,1564323231418,-1,2.26,1.4,0.65,2.08,1.85,0.7,0.55,0.85,-5,4,-7,0.89,8263,100,86,31,88,1425,648.0,612,451,60,121.0,348,1,440,594,216,0,0,642,479,244,635,-5.59,,,,,,,,,,,,
65584,1564323231438,1,2.26,1.4,0.65,2.07,1.84,0.83,0.46,0.86,-5,-0,-8,0.95,7978,100,86,31,89,1379,640.0,590,450,60,120.0,292,1,446,564,186,0,0,642,6208,966,633,181.28,,,,,,,,,,,,
65604,1564323231458,2,2.28,1.4,0.66,2.06,1.85,0.82,0.44,0.83,-5,-2,-7,0.93,7898,100,86,31,90,1319,637.0,584,462,60,120.0,292,1,442,495,186,0,0,631,-2580,-5120,632,-5.59,,,,,,,,,,,,
65624,1564323231478,-1,2.27,1.41,0.65,2.06,1.84,0.81,0.38,0.83,-4,-4,-8,0.89,8071,100,86,31,90,1253,635.0,578,460,60,119.0,292,1,449,582,186,0,0,637,-4876,-16046,631,-5.59,,,,,,,,,,,,
65644,1564323231500,-2,2.28,1.41,0.65,2.06,1.85,0.68,0.39,0.84,-3,-3,-7,0.78,8769,100,86,31,88,1235,636.0,590,459,60,121.0,292,1,425,611,186,0,0,632,16599,-16046,634,-5.59,44.681206,10.016906,61.94,177.8,0,0.0,-1,0.0,0.0,0,0.39,1.0941
65664,1564323231520,2,2.28,1.41,0.65,2.06,1.85,0.6,0.31,0.76,-3,-3,-6,0.68,9441,100,86,31,86,1235,638.0,618,463,60,120.0,292,1,418,588,186,0,0,632,16599,966,633,-5.59,,,,,,,,,,,,
65684,1564323231540,-1,2.29,1.41,0.65,2.07,1.84,0.61,0.37,0.82,-2,-1,-7,0.71,9968,100,86,31,85,1267,641.0,643,458,60,120.0,337,1,403,581,214,0,0,640,6208,-16046,636,-5.59,,,,,,,,,,,,
65704,1564323231560,1,2.28,1.41,0.65,2.06,1.84,0.49,0.41,0.79,-2,1,-6,0.64,10290,100,86,31,84,1332,642.0,650,457,60,120.0,337,1,414,564,214,0,0,666,-2830,-3578,636,-5.59,,,,,,,,,,,,
65724,1564323231580,0,2.29,1.42,0.66,2.07,1.86,0.46,0.54,0.85,-1,6,-4,0.71,10290,100,86,31,86,1383,649.0,630,466,60,120.0,337,1,416,601,214,0,0,729,-30207,-2918,647,-5.59,,,,,,,,,,,,
65744,1564323231598,2,2.29,1.4,0.65,2.06,1.85,0.61,0.5,0.8,-2,3,-5,0.79,10290,100,86,31,88,1417,654.0,612,465,60,120.0,337,1,418,639,214,0,0,657,-2830,-388,654,-5.59,44.68119,10.016902,61.86,177.8,0,0.0,-1,0.0,0.0,0,0.39,1.0957
65764,1564323231618,2,2.29,1.41,0.65,2.07,1.85,0.65,0.46,0.75,-1,3,-2,0.8,8009,100,86,31,90,1420,653.0,600,462,60,119.0,337,1,450,575,214,0,0,649,-3488,-6006,652,-5.59,,,,,,,,,,,,
65784,1564323231638,0,2.28,1.41,0.64,2.07,1.84,0.67,0.47,0.79,-1,2,-2,0.81,7822,100,86,31,91,1389,649.0,587,465,60,120.0,265,1,435,568,172,0,0,648,4909,11566,649,-5.59,,,,,,,,,,,,
65804,1564323231658,2,2.28,1.41,0.65,2.07,1.85,0.76,0.42,0.78,-1,-1,-1,0.87,8191,100,86,31,90,1374,646.0,572,460,60,121.0,265,1,445,596,172,0,0,645,4909,4909,645,-5.59,,,,,,,,,,,,
65824,1564323231678,1,2.28,1.41,0.65,2.07,1.84,0.8,0.24,0.76,-1,-3,-4,0.84,8877,100,86,31,88,1374,646.0,603,461,60,120.0,265,1,422,611,172,0,0,641,244,-3584,644,-5.59,,,,,,,,,,,,
65844,1564323231700,2,2.29,1.4,0.65,2.07,1.85,0.85,0.27,0.67,-1,-3,-3,0.89,9561,100,86,31,86,1382,650.0,630,457,60,121.0,265,1,416,589,172,0,0,638,-6006,244,647,-5.59,44.681175,10.016898,63.18,177.8,0,0.0,-1,0.0,0.0,0,0.39,1.0974
65864,1564323231720,2,2.28,1.41,0.65,2.08,1.86,0.83,0.13,0.77,-1,-6,-0,0.84,10140,100,86,31,85,1413,648.0,642,460,60,120.0,265,1,405,582,172,0,0,646,479,-30207,647,-5.59,,,,,,,,,,,,
65884,1564323231740,2,2.28,1.42,0.65,2.08,1.85,0.82,0.04,0.73,-1,0,-1,0.82,10422,100,86,31,84,1444,652.0,647,453,60,120.0,343,1,424,564,222,0,0,677,-6006,-388,648,-5.59,,,,,,,,,,,,
65904,1564323231760,1,2.29,1.42,0.65,2.07,1.85,0.73,-0.08,0.76,-1,1,-3,0.73,10422,100,86,31,85,1475,659.0,642,466,60,120.0,343,1,425,582,222,0,0,762,-26380,-2574,658,-5.59,,,,,,,,,,,,
65924,1564323231780,3,2.27,1.41,0.65,2.08,1.85,0.78,0.1,0.7,-1,2,-1,0.78,10422,100,86,31,87,1498,668.0,621,466,60,120.0,343,1,427,620,222,0,0,683,1549,-26892,668,-5.59,,,,,,,,,,,,
65944,1564323231800,0,2.27,1.41,0.65,2.07,1.85,0.88,0.11,0.72,-1,-0,-2,0.89,8423,100,86,31,88,1498,666.0,603,465,60,119.0,343,1,436,612,222,0,0,665,-10348,-27404,666,-5.59,44.68116,10.016894,63.63,177.7,0,0.0,-1,0.0,0.0,0,0.39,1.0991
65964,1564323231820,2,2.27,1.41,0.64,2.07,1.85,0.78,0.11,0.73,-1,-1,-2,0.79,8374,100,86,31,89,1492,662.0,597,456,60,120.0,343,1,438,607,222,0,0,664,-3038,8958,659,-5.59,,,,,,,,,,,,
65984,1564323231840,0,2.27,1.41,0.65,2.06,1.85,0.84,0.14,0.65,-1,-4,-1,0.86,8514,100,86,31,88,1466,659.0,588,460,60,120.0,281,1,433,611,185,0,0,657,-26380,-6006,654,-5.59,,,,,,,,,,,,
66004,1564323231860,3,2.27,1.41,0.65,2.06,1.86,0.94,0.1,0.66,-1,-5,-3,0.95,9010,100,86,31,86,1439,658.0,612,461,60,121.0,281,1,418,599,185,0,0,656,-3038,-30207,654,-5.59,,,,,,,,,,,,
66024,1564323231880,1,2.27,1.41,0.65,2.06,1.85,0.93,0.14,0.59,-1,-6,-4,0.94,9650,100,86,31,85,1413,662.0,632,465,60,120.0,281,1,412,591,185,0,0,655,-2826,-3038,655,-5.59,,,,,,,,,,,,
66044,1564323231900,0,2.27,1.41,0.65,2.07,1.85,0.89,0.18,0.55,-2,-8,-1,0.91,10251,100,86,31,84,1393,662.0,637,461,60,120.0,281,1,412,564,185,0,0,670,-2826,1549,656,-5.59,44.681145,10.016891,64.94,177.7,0,0.0,-1,0.0,0.0,0,0.39,1.1007
66064,1564323231920,1,2.26,1.41,0.65,2.07,1.85,0.91,0.34,0.69,-2,-5,-1,0.97,10341,100,86,31,84,1393,666.0,650,467,60,119.0,281,1,418,564,185,0,0,732,1549,-4091,664,-5.59,,,,,,,,,,,,
66084,1564323231940,2,2.27,1.42,0.65,2.06,1.86,0.94,0.29,0.82,-2,-5,-3,0.98,10341,100,86,31,86,1393,675.0,638,465,60,120.0,343,1,420,601,228,0,0,722,-26380,-2314,668,-5.59,,,,,,,,,,,,
66104,1564323231960,1,2.27,1.41,0.64,2.07,1.84,1.04,0.27,0.66,-2,-6,-2,1.07,8708,100,86,31,88,1419,679.0,625,458,60,121.0,343,1,427,611,228,0,0,679,-2345,-26380,672,-5.59,,,,,,,,,,,,
66124,1564323231980,-0,2.27,1.4,0.64,2.06,1.85,1.06,0.25,0.61,-2,-6,-1,1.09,8457,100,86,31,89,1439,674.0,616,461,60,120.0,343,1,436,616,228,0,0,682,-10344,-3038,670,-5.59,,,,,,,,,,,,
66144,1564323231992,2,2.28,1.41,0.64,2.07,1.84,0.97,0.26,0.64,-2,-7,-3,1.0,8434,100,86,31,88,1413,667.0,603,457,60,119.0,343,1,435,529,228,0,0,668,1549,-2345,667,-5.59,44.681126,10.016887,64.94,177.7,0,0.0,-1,0.0,0.0,0,0.39,1.1024
66164,1564323232012,-1,2.28,1.41,0.64,2.07,1.84,0.91,0.36,0.61,-0,-8,-2,0.98,8962,100,86,31,87,1387,668.0,601,461,60,120.0,343,1,419,599,228,0,0,665,-2830,-3038,662,-5.59,,,,,,,,,,,,
66184,1564323232032,1,2.26,1.41,0.64,2.07,1.84,0.87,0.27,0.57,-0,-9,-2,0.91,9684,100,86,31,86,1335,668.0,636,456,60,120.0,315,1,410,593,210,0,0,664,-2830,-2830,665,-5.59,,,,,,,,,,,,
66204,1564323232052,1,2.27,1.4,0.64,2.08,1.85,0.82,0.17,0.68,-1,-7,-4,0.84,10257,100,86,31,85,1282,672.0,642,462,60,120.0,315,1,423,564,210,0,0,670,-3038,1549,668,-5.59,,,,,,,,,,,,
66224,1564323232072,-1,2.28,1.41,0.64,2.07,1.84,0.69,0.13,0.81,-2,-5,-4,0.71,10480,100,86,31,84,1282,675.0,652,469,60,120.0,315,1,428,564,210,0,0,714,-2826,-13072,670,-5.59,,,,,,,,,,,,
66244,1564323232100,2,2.27,1.42,0.64,2.07,1.84,0.66,0.15,0.87,-2,-2,-4,0.67,10480,100,86,31,87,1282,681.0,642,460,60,120.0,315,1,431,601,210,0,0,724,-26562,-2826,678,-5.59,44.68111,10.016883,66.18,177.7,0,0.0,-1,0.0,0.0,0,0.4,1.1041
66264,1564323232120,0,2.27,1.41,0.64,2.07,1.84,0.56,0.1,0.82,-2,-1,-4,0.57,562,100,86,31,88,1327,683.0,623,461,60,119.0,315,1,90,271,210,0,0,685,-10344,16118,683,-5.59,,,,,,,,,,,,
66284,1564323232140,2,2.27,1.41,0.64,2.06,1.85,0.65,0.1,0.79,-2,-2,-3,0.66,8484,100,86,31,88,1380,681.0,619,462,60,120.0,289,1,434,535,198,0,0,679,16118,16599,681,-5.59,,,,,,,,,,,,
66304,1564323232160,1,2.28,1.41,0.64,2.07,1.85,0.76,0.06,0.83,-2,-4,-3,0.76,8457,100,86,31,88,1395,679.0,606,458,60,120.0,289,1,435,616,198,0,0,677,-2345,-2345,677,-5.59,,,,,,,,,,,,
66324,1564323232180,1,2.28,1.42,0.64,2.08,1.85,0.66,0.02,0.76,-2,-4,-3,0.66,8696,100,86,31,88,1407,677.0,610,460,60,121.0,289,1,427,611,198,0,0,674,-26892,-26380,676,-5.59,,,,,,,,,,,,
66344,1564323232200,2,2.27,1.42,0.64,2.07,1.84,0.57,-0.04,0.67,-2,-3,-4,0.58,9365,100,86,31,86,1381,677.0,626,458,60,121.0,289,1,418,588,198,0,0,675,-26892,-3038,672,-5.59,44.681095,10.016879,66.48,177.7,0,0.0,-1,0.0,0.0,0,0.4,1.1057
66364,1564323232220,1,2.27,1.41,0.64,2.06,1.85,0.53,0.1,0.6,-2,-2,-4,0.54,9904,100,86,31,85,1341,678.0,636,467,60,120.0,289,1,397,580,198,0,0,673,-10346,3543,677,-5.59,,,,,,,,,,,,
66384,1564323232240,1,2.28,1.41,0.64,2.07,1.85,0.45,0.26,0.6,-2,-4,-2,0.52,10439,100,86,31,84,1331,681.0,648,464,60,120.0,324,1,425,564,220,0,0,676,-26562,-388,679,-5.59,,,,,,,,,,,,
66404,1564323232260,2,2.28,1.41,0.64,2.07,1.85,0.48,0.41,0.7,-1,2,-3,0.63,10769,100,86,31,84,1331,683.0,658,455,60,120.0,324,1,436,564,220,0,0,710,3543,15647,680,-5.59,,,,,,,,,,,,
66424,1564323232280,2,2.28,1.41,0.64,2.07,1.85,0.57,0.39,0.82,-2,2,-3,0.69,10769,100,86,31,85,1359,687.0,648,462,60,120.0,324,1,437,582,220,0,0,785,6208,-31066,684,-5.59,,,,,,,,,,,,
66444,1564323232299,-1,2.29,1.41,0.64,2.07,1.85,0.64,0.36,0.73,-2,1,-2,0.74,765,100,86,31,87,1399,695.0,631,467,60,120.0,324,1,90,270,220,0,0,702,-10448,15647,691,-5.59,44.68108,10.016876,66.88,177.7,0,0.0,-1,0.0,0.0,0,0.4,1.1074
66464,1564323232319,3,2.29,1.42,0.63,2.08,1.84,0.76,0.32,0.74,-1,1,-2,0.83,8815,100,86,31,88,1396,690.0,628,464,60,120.0,324,1,424,611,220,0,0,693,14342,-2830,690,-5.59,,,,,,,,,,,,
66484,1564323232339,3,2.28,1.41,0.64,2.07,1.85,0.88,0.3,0.75,-1,-1,-2,0.94,8749,100,86,31,88,1377,687.0,627,462,60,121.0,296,1,426,611,204,0,0,686,6208,-10399,687,-5.59,,,,,,,,,,,,
66504,1564323232359,2,2.29,1.41,0.64,2.07,1.85,0.99,0.23,0.72,-1,-3,-2,1.02,9088,100,86,31,87,1338,685.0,627,460,60,121.0,296,1,418,599,204,0,0,685,24845,-10346,685,-5.59,,,,,,,,,,,,
66524,1564323232379,2,2.28,1.41,0.63,2.08,1.85,0.94,0.22,0.69,-0,-3,-3,0.96,9821,100,86,31,85,1279,686.0,636,461,60,119.0,296,1,404,579,204,0,0,681,6208,6208,685,-5.59,,,,,,,,,,,,
66544,1564323232399,2,2.29,1.41,0.64,2.07,1.85,0.93,0.32,0.68,-0,-4,-1,0.99,10330,100,86,31,84,1260,687.0,645,464,60,120.0,296,1,421,564,204,0,0,681,6208,6208,688,-5.59,44.681065,10.016873,67.67,177.6,0,0.0,-1,0.0,0.0,0,0.4,1.1091
66564,1564323232419,2,2.28,1.42,0.64,2.08,1.85,0.82,0.44,0.81,0,-3,-2,0.93,10527,100,86,31,84,1260,694.0,652,472,60,120.0,296,1,430,564,204,0,0,726,12333,16118,691,-5.59,,,,,,,,,,,,
66584,1564323232439,2,2.28,1.42,0.63,2.07,1.85,0.82,0.5,0.88,0,-1,-2,0.95,10527,100,86,31,86,1288,697.0,642,461,60,120.0,335,1,432,601,232,0,0,766,24,-3344,696,-5.59,,,,,,,,,,,,
66604,1564323232459,-0,2.29,1.42,0.63,2.08,1.85,0.78,0.34,0.79,-1,-1,-2,0.86,9053,100,86,31,87,1347,702.0,631,461,60,120.0,335,1,418,599,232,0,0,694,8010,24,700,-5.59,,,,,,,,,,,,
66624,1564323232479,1,2.29,1.41,0.64,2.07,1.85,0.77,0.27,0.78,-1,-1,-2,0.82,8915,100,86,31,88,1380,699.0,617,450,60,120.0,335,1,421,611,232,0,0,696,-3584,8010,697,-5.59,,,,,,,,,,,,
66644,1564323232499,1,2.29,1.41,0.64,2.08,1.86,0.9,0.16,0.76,-1,0,-2,0.91,8937,100,86,31,88,1388,699.0,621,456,60,119.0,335,1,420,599,232,0,0,694,16599,11576,699,-5.59,44.681046,10.016869,68.15,177.6,0,0.0,-1,0.0,0.0,0,0.4,1.1107
66664,1564323232519,3,2.29,1.42,0.63,2.08,1.85,0.94,0.06,0.74,-1,-2,-1,0.94,9455,100,86,31,86,1371,692.0,627,456,60,120.0,335,1,418,588,232,0,0,693,14342,-10448,694,-5.59,,,,,,,,,,,,
66684,1564323232539,2,2.29,1.42,0.64,2.07,1.86,0.93,0.07,0.79,-1,-3,-2,0.94,10086,100,86,31,85,1319,692.0,638,464,60,121.0,317,1,406,582,220,0,0,688,14342,11576,690,-5.59,,,,,,,,,,,,
66704,1564323232559,1,2.3,1.42,0.63,2.09,1.86,0.93,-0.12,0.73,-1,-1,-3,0.93,10659,100,86,31,84,1292,695.0,651,462,60,120.0,317,1,436,564,220,0,0,699,-10448,-3584,690,-5.59,,,,,,,,,,,,
66724,1564323232579,1,2.29,1.42,0.64,2.08,1.85,0.96,-0.11,0.73,-1,-1,-2,0.96,10732,100,86,31,85,1292,701.0,646,466,60,120.0,317,1,437,508,220,0,0,767,19188,1037,701,-5.59,,,,,,,,,,,,
66744,1564323232599,1,2.3,1.42,0.64,2.08,1.85,0.93,-0.12,0.82,-1,2,-3,0.94,10732,100,86,31,87,1305,706.0,643,460,60,120.0,317,1,439,601,220,0,0,741,-30694,3462,704,-5.59,44.681026,10.016866,68.69,177.6,0,0.0,-1,0.0,0.0,0,0.41,1.1124
66764,1564323232619,-0,2.3,1.42,0.64,2.08,1.85,0.96,-0.01,0.71,-1,1,-4,0.96,9040,100,86,31,88,1356,709.0,633,457,60,121.0,317,1,418,611,220,0,0,706,-12152,6658,709,-5.59,,,,,,,,,,,,
66784,1564323232639,1,2.3,1.42,0.64,2.08,1.86,1.07,0.02,0.68,-1,-1,-3,1.07,8928,100,86,31,88,1395,704.0,623,461,60,120.0,295,1,420,611,208,0,0,701,11069,6658,704,-5.59,,,,,,,,,,,,
66804,1564323232659,-0,2.3,1.42,0.63,2.08,1.86,1.13,0.04,0.7,-1,-2,-5,1.13,8782,100,86,31,88,1405,706.0,617,451,60,120.0,295,1,425,611,208,0,0,699,6208,24,706,-5.59,,,,,,,,,,,,
66824,1564323232679,1,2.29,1.42,0.64,2.08,1.86,1.18,-0.04,0.69,-1,-2,-3,1.18,8765,100,86,31,88,1404,705.0,613,462,60,120.0,295,1,425,611,208,0,0,700,-2830,687,705,-5.59,,,,,,,,,,,,
66844,1564323232699,1,2.31,1.41,0.64,2.08,1.86,1.21,-0.13,0.63,-0,-3,-3,1.22,8903,100,86,31,87,1364,701.0,618,455,60,120.0,295,1,421,599,208,0,0,689,16599,24845,701,-5.59,44.681011,10.016863,68.99,177.6,0,0.0,-1,0.0,0.0,0,0.41,1.1141
66864,1564323232719,2,2.3,1.41,0.63,2.07,1.86,1.12,-0.03,0.61,0,-3,-3,1.12,9674,100,86,31,86,1333,697.0,631,456,60,120.0,295,1,411,592,208,0,0,680,16599,-10448,697,-5.59,,,,,,,,,,,,
66884,1564323232739,3,2.3,1.41,0.63,2.08,1.87,1.15,-0.02,0.57,0,-1,-3,1.15,10353,100,86,31,85,1333,698.0,643,465,60,120.0,327,1,420,582,229,0,0,686,24,-2830,698,-5.59,,,,,,,,,,,,
66904,1564323232759,2,2.31,1.41,0.64,2.08,1.86,1.15,0.18,0.52,-0,-0,-2,1.17,10863,100,86,31,84,1335,701.0,649,461,60,119.0,327,1,439,564,229,0,0,687,-2830,-10448,701,-5.59,,,,,,,,,,,,
66924,1564323232779,0,2.32,1.42,0.64,2.08,1.87,1.07,-0.03,0.67,0,-3,-0,1.07,11194,100,86,31,83,1376,701.0,657,465,60,120.0,327,1,442,545,229,0,0,726,24,-3344,703,-5.59,,,,,,,,,,,,
66944,1564323232799,1,2.31,1.42,0.64,2.08,1.86,1.01,-0.17,0.74,0,1,-0,1.02,11194,100,86,31,85,1409,707.0,650,463,60,120.0,327,1,443,582,229,0,0,803,687,-2830,706,-5.59,44.680992,10.016858,69.15,177.6,0,0.0,-1,0.0,0.0,0,0.41,1.1157
66964,1564323232819,0,2.31,1.42,0.63,2.08,1.86,1.07,-0.3,0.78,0,3,-1,1.11,11194,100,86,31,87,1407,716.0,640,459,60,120.0,327,1,444,620,229,0,0,735,-3888,-2314,717,-5.59,,,,,,,,,,,,
66984,1564323232839,-0,2.3,1.42,0.63,2.08,1.86,1.06,-0.37,0.85,1,2,2,1.12,8975,100,86,31,88,1405,716.0,630,458,60,119.0,367,1,419,611,263,0,0,708,-30694,-23490,716,-5.59,,,,,,,,,,,,
67004,1564323232859,-0,2.31,1.42,0.63,2.08,1.87,1.02,-0.43,0.87,1,3,2,1.1,8794,100,86,31,88,1364,709.0,615,452,60,122.0,367,1,425,611,263,0,0,705,6658,-2830,709,-5.59,,,,,,,,,,,,
67024,1564323232879,2,2.31,1.42,0.64,2.07,1.86,0.9,-0.41,0.8,2,2,2,0.99,8604,100,86,31,88,1322,706.0,616,459,60,121.0,367,1,431,611,263,0,0,702,-2830,-3584,706,-5.59,,,,,,,,,,,,
67044,1564323232899,3,2.31,1.42,0.63,2.08,1.86,0.74,-0.28,0.72,3,1,3,0.79,8988,100,86,31,87,1322,703.0,614,460,60,121.0,367,1,419,611,263,0,0,691,8010,19188,706,-5.59,44.680977,10.016854,69.19,177.6,0,0.0,-1,0.0,0.0,0,0.41,1.1174
67064,1564323232919,3,2.3,1.42,0.64,2.08,1.86,0.8,-0.26,0.62,2,-1,3,0.84,9863,100,86,31,85,1322,704.0,629,458,60,120.0,367,1,402,506,263,0,0,696,15647,-2830,704,-5.59,,,,,,,,,,,,
67084,1564323232939,1,2.31,1.42,0.64,2.08,1.86,0.8,-0.44,0.75,2,-4,3,0.91,10474,100,86,31,84,1362,705.0,642,462,60,120.0,315,1,428,564,223,0,0,691,8010,-3584,707,-5.59,,,,,,,,,,,,
67104,1564323232959,3,2.31,1.42,0.64,2.08,1.87,0.74,-0.5,0.69,1,1,2,0.9,11003,100,86,31,83,1405,706.0,651,457,60,120.0,315,1,442,564,223,0,0,698,15647,-20693,706,-5.59,,,,,,,,,,,,
67124,1564323232979,3,2.3,1.43,0.64,2.08,1.86,0.68,-0.45,0.67,2,6,3,0.82,11241,100,86,31,83,1446,709.0,665,470,60,120.0,315,1,442,545,223,0,0,729,-12152,-2314,711,-5.59,,,,,,,,,,,,
67144,1564323232991,2,2.3,1.43,0.64,2.07,1.87,0.54,-0.55,0.8,2,5,3,0.77,11241,96,86,31,85,1488,720.0,650,463,60,120.0,315,1,443,582,223,0,0,807,-3888,-10216,720,-5.59,44.680962,10.01685,69.88,177.6,0,0.0,-1,0.0,0.0,0,0.41,1.1191
67164,1564323233011,3,2.31,1.41,0.63,2.08,1.87,0.54,-0.5,0.67,3,8,5,0.73,11241,57,86,31,82,1498,725.0,636,462,60,120.0,315,1,443,523,223,0,0,719,-3450,1524,724,-5.59,,,,,,,,,,,,
67184,1564323233031,1,2.3,1.42,0.63,2.07,1.86,0.52,-0.53,0.63,3,7,5,0.74,8945,26,86,31,70,1498,722.0,626,459,60,120.0,284,1,418,407,206,0,0,717,-2560,-4091,722,-5.59,,,,,,,,,,,,
67204,1564323233051,10,2.3,1.42,0.63,2.08,1.86,0.46,-0.37,0.61,4,2,5,0.59,8794,8,86,31,59,1460,713.0,616,453,60,122.0,284,1,410,335,206,0,0,705,-30694,-388,710,-5.59,,,,,,,,,,,,
67224,1564323233071,10,2.31,1.42,0.63,2.08,1.86,0.44,-0.31,0.51,4,1,5,0.54,9106,0,86,31,49,1418,709.0,623,461,60,120.0,284,1,379,253,206,0,0,703,8010,-3888,709,-5.59,,,,,,,,,,,,
67244,1564323233099,9,2.31,1.42,0.63,2.07,1.86,0.33,-0.24,0.51,4,-2,6,0.41,1821,0,86,31,42,1374,705.0,627,468,60,120.0,284,1,339,220,206,0,0,685,-3584,-3584,705,-5.59,44.680943,10.016847,70.07,177.6,0,0.0,-1,0.0,0.0,0,0.42,1.1207
67264,1564323233119,11,2.31,1.41,0.63,2.08,1.86,0.29,-0.22,0.51,4,-2,5,0.37,8971,0,86,31,37,1330,703.0,624,461,60,120.0,284,1,314,205,206,0,0,669,-3584,6208,703,-5.59,,,,,,,,,,,,
67284,1564323233139,12,2.31,1.42,0.63,2.08,1.87,0.17,-0.15,0.5,5,-4,6,0.23,8997,0,86,31,34,1319,704.0,628,467,60,119.0,95,1,305,117,67,0,0,637,6208,-10344,704,-5.59,,,,,,,,,,,,
67304,1564323233159,9,2.32,1.42,0.63,2.08,1.86,0.18,-0.1,0.51,4,-4,6,0.2,8856,0,86,31,32,1319,703.0,627,460,60,122.0,95,1,300,188,67,0,0,591,-2830,1549,701,-5.59,,,,,,,,,,,,
67324,1564323233179,8,2.31,1.42,0.63,2.08,1.87,0.32,-0.15,0.54,4,-3,6,0.35,8577,0,86,31,31,1346,703.0,643,459,60,118.0,95,1,295,188,67,0,0,571,-2830,-30694,703,-5.59,,,,,,,,,,,,
67344,1564323233201,7,2.31,1.42,0.63,2.09,1.87,0.42,-0.23,0.36,5,2,6,0.48,8363,0,86,31,29,1389,701.0,620,457,60,120.0,95,1,285,180,67,0,0,648,24,-10448,703,-5.59,44.680923,10.016842,70.15,177.6,0,0.0,-1,0.0,0.0,0,0.42,1.1224
67364,1564323233221,6,2.32,1.42,0.63,2.09,1.87,0.57,-0.1,0.39,5,2,7,0.57,8205,0,86,31,29,1368,690.0,615,458,60,119.0,95,1,283,174,67,0,0,1144,16599,26688,690,-5.59,,,,,,,,,,,,
67384,1564323233241,9,2.3,1.43,0.63,2.09,1.87,0.71,-0.07,0.48,5,1,9,0.71,1651,0,86,31,28,1321,686.0,609,457,60,122.0,77,1,150,148,53,0,0,1144,-26562,-10448,686,-5.59,,,,,,,,,,,,
67404,1564323233261,8,2.31,1.42,0.63,2.09,1.87,0.79,-0.13,0.52,4,1,7,0.8,8491,0,86,31,27,1253,683.0,610,461,60,120.0,77,1,278,187,53,0,0,583,-2345,-7939,683,-5.59,,,,,,,,,,,,
67424,1564323233281,9,2.31,1.42,0.63,2.09,1.87,0.92,-0.01,0.42,4,-6,9,0.92,8491,0,86,31,27,1163,675.0,608,457,60,122.0,77,1,278,187,53,0,0,605,-3038,-26380,675,181.28,,,,,,,,,,,,
67444,1564323233300,7,2.31,1.42,0.62,2.09,1.87,0.95,-0.07,0.46,4,-7,6,0.95,8538,0,86,31,27,1073,669.0,612,460,60,121.0,77,1,278,188,53,0,0,557,-2830,1,668,-5.59,44.680908,10.016837,68.46,177.6,0,0.0,-1,0.0,0.0,0,0.42,1.1241
67464,1564323233320,5,2.32,1.42,0.62,2.08,1.87,0.87,-0.08,0.51,5,-7,7,0.87,8716,0,86,31,26,984,668.0,621,461,60,118.0,77,1,274,188,53,0,0,584,-10348,1,668,181.28,,,,,,,,,,,,
67484,1564323233340,4,2.32,1.42,0.63,2.08,1.87,0.89,0.02,0.43,5,-4,5,0.89,8737,0,86,31,25,936,664.0,613,459,60,122.0,92,1,270,188,62,0,0,503,-2826,-9072,664,-5.59,,,,,,,,,,,,
67504,1564323233360,7,2.32,1.41,0.63,2.07,1.87,1.01,0.02,0.39,4,-3,3,1.01,8737,0,86,31,25,938,662.0,626,458,60,121.0,92,1,270,188,62,0,0,495,8958,-2934,662,-5.59,,,,,,,,,,,,
67524,1564323233380,7,2.31,1.42,0.62,2.08,1.87,1.11,0.03,0.21,4,-4,4,1.11,1751,0,86,31,25,941,655.0,621,462,60,122.0,92,1,150,140,62,0,0,479,2024,14504,655,-5.59,,,,,,,,,,,,
67544,1564323233398,6,2.31,1.41,0.63,2.07,1.87,1.12,-0.07,0.26,4,-2,4,1.12,8869,0,86,31,25,947,647.0,627,458,60,122.0,92,1,270,188,62,0,0,490,4909,10408,645,-5.59,44.680889,10.016832,66.36,177.6,0,0.0,-1,0.0,0.0,0,0.42,1.1257
67564,1564323233418,4,2.3,1.42,0.63,2.07,1.86,1.1,-0.08,0.32,4,-3,4,1.11,981,0,86,31,24,953,644.0,623,457,60,122.0,92,1,128,181,62,0,0,549,24,-32248,644,-5.59,,,,,,,,,,,,
67584,1564323233438,6,2.29,1.42,0.63,2.06,1.86,1.03,-0.1,0.28,5,-2,4,1.04,8869,0,86,31,24,958,639.0,628,460,60,122.0,97,1,270,181,63,0,0,536,-4876,-30064,639,-5.59,,,,,,,,,,,,
67604,1564323233458,3,2.29,1.42,0.62,2.06,1.86,0.93,-0.12,0.21,5,-1,4,0.94,8967,0,86,31,24,963,636.0,631,462,60,121.0,97,1,270,181,63,0,0,534,-14655,-3210,636,-5.59,,,,,,,,,,,,
67624,1564323233478,6,2.29,1.41,0.62,2.07,1.86,0.87,-0.18,0.21,4,-0,4,0.89,8967,0,86,31,24,976,629.0,622,456,60,122.0,97,1,270,181,63,0,0,541,506,-28648,629,-5.59,,,,,,,,,,,,
67644,1564323233500,3,2.3,1.41,0.63,2.06,1.87,0.82,-0.17,0.2,4,-1,5,0.84,8979,0,86,31,24,990,623.0,626,460,60,120.0,97,1,270,181,63,0,0,563,17336,-32248,623,-5.59,44.680878,10.016828,63.7,177.6,0,0.0,-1,0.0,0.0,0,0.42,1.1274
67664,1564323233520,2,2.3,1.41,0.62,2.06,1.87,0.8,-0.21,0.17,4,-0,5,0.83,9057,0,86,31,23,998,621.0,623,457,60,120.0,97,1,270,176,63,0,0,586,3403,-8186,620,-5.59,,,,,,,,,,,,
67684,1564323233540,3,2.3,1.42,0.63,2.05,1.87,0.69,-0.19,0.13,5,0,5,0.72,9079,0,86,31,23,1004,618.0,620,461,60,122.0,97,1,270,176,60,0,0,573,-28304,15649,618,-5.59,,,,,,,,,,,,
67704,1564323233560,2,2.31,1.41,0.63,2.05,1.88,0.69,-0.25,0.1,4,1,4,0.74,9075,0,86,31,23,1019,612.0,623,458,60,121.0,97,1,270,176,60,0,0,577,17740,6273,612,-5.59,,,,,,,,,,,,
67724,1564323233580,-0,2.32,1.41,0.63,2.05,1.87,0.63,-0.27,0.12,4,2,5,0.69,9101,0,86,31,23,1030,605.0,626,459,60,122.0,97,1,270,176,60,0,0,578,5344,208,605,-5.59,,,,,,,,,,,,
67744,1564323233596,-1,2.32,1.42,0.62,2.06,1.87,0.63,-0.31,0.18,4,2,4,0.7,9101,0,86,31,22,1033,602.0,622,457,60,123.0,97,1,270,170,60,0,0,588,243,8488,602,-5.59,44.680862,10.016824,61.37,177.6,0,0.0,-1,0.0,0.0,0,0.43,1.1291
67764,1564323233616,-0,2.31,1.41,0.63,2.05,1.87,0.6,-0.28,0.18,4,2,5,0.66,9101,0,86,31,22,1038,598.0,623,456,60,123.0,97,1,270,170,60,0,0,581,4956,-3210,598,181.28,,,,,,,,,,,,
67784,1564323233636,-0,2.3,1.41,0.63,2.06,1.87,0.64,-0.23,0.26,4,4,3,0.68,9101,0,86,31,22,1047,597.0,631,457,60,123.0,96,1,270,170,58,0,0,574,-13043,10432,596,-5.59,,,,,,,,,,,,
67804,1564323233656,-0,2.3,1.41,0.63,2.06,1.88,0.76,-0.18,0.24,3,3,3,0.78,9101,0,86,31,21,1054,593.0,636,455,60,122.0,96,1,270,164,58,0,0,568,-28648,774,593,-5.59,,,,,,,,,,,,
67824,1564323233676,-1,2.29,1.41,0.63,2.05,1.87,0.79,-0.16,0.21,3,4,2,0.8,9101,0,86,31,21,1057,591.0,636,455,60,123.0,96,1,270,164,58,0,0,568,208,12552,588,181.28,,,,,,,,,,,,
67844,1564323233700,-0,2.31,1.4,0.63,2.05,1.87,0.85,-0.17,0.21,3,4,2,0.86,9101,0,86,31,21,1062,586.0,632,457,60,122.0,96,1,270,164,58,0,0,570,-25872,1780,586,181.28,44.680847,10.016818,59.13,177.6,0,0.0,-1,0.0,0.0,0,0.43,1.1307
67864,1564323233720,-1,2.3,1.41,0.63,2.05,1.88,0.81,-0.19,0.19,3,4,2,0.84,9101,0,86,31,21,1065,584.0,632,455,60,123.0,96,1,270,164,58,0,0,572,8488,-28648,584,181.28,,,,,,,,,,,,
67884,1564323233740,-0,2.3,1.41,0.63,2.05,1.88,0.8,-0.17,0.25,3,3,3,0.82,9101,0,86,31,21,1067,582.0,631,462,60,123.0,96,1,270,164,56,0,0,565,243,-2934,582,-5.59,,,,,,,,,,,,
67904,1564323233760,-0,2.29,1.41,0.63,2.05,1.87,0.92,-0.13,0.26,2,4,2,0.93,9101,0,86,31,21,1067,576.0,630,458,60,123.0,96,1,270,164,56,0,0,557,774,2211,576,-5.59,,,,,,,,,,,,
67924,1564323233780,-0,2.29,1.41,0.63,2.06,1.87,0.96,-0.11,0.2,2,2,2,0.97,9101,0,86,31,20,1067,574.0,631,457,60,123.0,96,1,270,157,56,0,0,557,-8188,-22359,574,-5.59,,,,,,,,,,,,
67944,1564323233800,-1,2.3,1.41,0.63,2.06,1.86,0.89,-0.13,0.19,2,2,2,0.9,9101,0,86,31,20,1109,569.0,625,458,60,123.0,96,1,270,157,56,0,0,555,-3190,-28648,568,-5.59,44.680832,10.016813,57.59,177.6,0,0.0,-1,0.0,0.0,0,0.43,1.1324
67964,1564323233820,-1,2.29,1.41,0.63,2.06,1.87,0.96,-0.13,0.27,2,3,2,0.97,9101,0,86,31,20,1159,568.0,626,457,60,123.0,96,1,270,157,56,0,0,545,-30159,-22519,568,-5.59,,,,,,,,,,,,
67984,1564323233840,-2,2.3,1.41,0.62,2.06,1.87,1.01,-0.07,0.3,2,1,2,1.01,9101,19,86,31,21,1209,564.0,635,456,60,123.0,95,1,270,179,54,0,0,551,-23623,-2336,564,181.28,,,,,,,,,,,,
68004,1564323233860,-1,2.3,1.41,0.63,2.06,1.87,0.96,-0.1,0.23,2,3,1,0.96,9101,35,86,31,25,1260,563.0,638,457,60,123.0,95,1,270,205,54,0,0,542,-28648,-506,559,-5.59,,,,,,,,,,,,
68024,1564323233880,-2,2.31,1.41,0.63,2.07,1.87,1.06,-0.11,0.22,2,2,2,1.06,9101,54,86,31,34,1341,557.0,636,457,60,122.0,95,1,305,207,54,0,0,542,2216,-30064,557,-5.59,,,,,,,,,,,,
68044,1564323233900,-2,2.31,1.41,0.63,2.06,1.88,1.08,-0.05,0.31,1,1,1,1.08,9101,71,86,31,45,1411,553.0,633,458,60,123.0,95,1,359,242,54,0,0,544,-9072,6274,552,181.28,44.68082,10.016809,55.56,177.6,0,0.0,-1,0.0,0.0,0,0.43,1.1341
68064,1564323233920,-2,2.31,1.41,0.63,2.05,1.88,1.07,-0.16,0.17,1,3,1,1.08,9101,81,86,31,58,1437,551.0,637,460,60,123.0,95,1,400,341,54,0,0,535,6274,-28648,550,-5.59,,,,,,,,,,,,
68084,1564323233940,-2,2.31,1.41,0.63,2.06,1.86,0.98,-0.12,0.22,2,1,1,0.99,9101,85,86,31,70,1451,550.0,633,459,60,123.0,234,1,413,407,129,0,0,535,2524,-30064,548,-5.59,,,,,,,,,,,,
68104,1564323233960,-2,2.29,1.41,0.63,2.06,1.87,0.96,-0.04,0.25,2,3,0,0.96,9101,85,86,31,78,1470,545.0,638,455,60,123.0,234,1,414,483,129,0,0,529,-506,2088,545,-5.59,,,,,,,,,,,,
68124,1564323233980,-3,2.31,1.41,0.63,2.06,1.88,1.03,-0.09,0.2,2,0,1,1.03,9101,86,86,31,82,1489,543.0,630,455,60,123.0,234,1,417,540,129,0,0,522,-3082,2088,543,-5.59,,,,,,,,,,,,
68144,1564323233992,-1,2.29,1.41,0.63,2.07,1.87,1.05,-0.01,0.26,2,0,0,1.05,9101,86,86,31,83,1498,539.0,635,453,60,123.0,234,1,418,555,129,0,0,524,-2934,10408,539,-5.59,44.680805,10.016804,54.3,177.7,0,0.0,-1,0.0,0.0,0,0.43,1.1357
68164,1564323234012,-2,2.3,1.41,0.62,2.07,1.87,1.13,-0.11,0.22,1,0,1,1.13,9101,86,86,31,83,1498,536.0,636,457,60,123.0,234,1,418,555,129,0,0,521,6274,1248,535,-5.59,,,,,,,,,,,,
68184,1564323234032,-2,2.28,1.4,0.63,2.06,1.86,1.07,-0.03,0.2,1,-1,0,1.07,9101,86,86,31,84,1498,534.0,633,455,60,123.0,364,1,418,566,195,0,0,520,2104,15679,534,181.28,,,,,,,,,,,,
68204,1564323234052,-0,2.28,1.4,0.63,2.07,1.87,1.05,-0.15,0.2,1,1,0,1.06,9101,86,86,31,84,1498,531.0,636,458,60,123.0,364,1,418,566,195,0,0,520,-22519,1341,533,-5.59,,,,,,,,,,,,
68224,1564323234072,-2,2.29,1.41,0.63,2.07,1.86,1.02,-0.02,0.2,1,2,-1,1.02,9101,86,86,31,84,1498,528.0,636,457,60,123.0,364,1,418,566,195,0,0,518,-28648,-9212,527,181.28,,,,,,,,,,,,
68244,1564323234100,-1,2.28,1.4,0.63,2.07,1.87,0.98,-0.12,0.16,1,1,0,0.99,9101,86,86,31,84,1498,527.0,639,456,60,123.0,364,1,418,566,195,0,0,515,6274,10408,525,-5.59,44.68079,10.0168,52.93,177.7,0,0.0,-1,0.0,0.0,0,0.43,1.1374
68264,1564323234120,-2,2.28,1.4,0.63,2.06,1.87,1.02,-0.04,0.32,1,1,-1,1.02,9101,87,86,31,85,1498,525.0,641,455,60,123.0,364,1,418,566,195,0,0,515,2088,-14,522,181.28,,,,,,,,,,,,
68284,1564323234140,-0,2.28,1.41,0.63,2.06,1.87,1.08,-0.14,0.32,1,-0,-1,1.09,9101,87,86,32,85,1498,524.0,636,453,60,123.0,381,1,418,566,199,0,0,515,10408,-3482,521,-5.59,,,,,,,,,,,,
68304,1564323234160,-1,2.28,1.41,0.63,2.07,1.87,1.05,-0.21,0.41,0,1,-1,1.07,9101,87,86,32,84,1498,522.0,632,453,60,123.0,381,1,418,566,199,0,0,511,2524,-4054,521,-5.59,,,,,,,,,,,,
68324,1564323234180,-1,2.3,1.4,0.63,2.07,1.87,1.09,-0.11,0.41,0,0,-1,1.09,9101,80,86,32,84,1498,519.0,632,455,60,123.0,381,1,418,566,199,0,0,507,-8187,-4054,518,-5.59,,,,,,,,,,,,
68344,1564323234200,-1,2.29,1.41,0.63,2.06,1.87,1.01,-0.12,0.34,1,-1,-1,1.02,9101,71,86,32,81,1498,515.0,623,459,60,123.0,381,1,416,526,199,0,0,503,-14,-21872,515,-5.59,44.680782,10.016795,51.57,177.8,0,0.0,-1,0.0,0.0,0,0.43,1.1391
68364,1564323234220,-1,2.3,1.4,0.63,2.07,1.87,1.01,-0.18,0.37,1,0,-1,1.02,9101,64,86,32,77,1498,514.0,632,453,60,123.0,381,1,413,470,199,0,0,504,-3482,2109,514,-5.59,,,,,,,,,,,,
68384,1564323234240,-2,2.3,1.41,0.63,2.07,1.87,1.03,-0.14,0.42,1,-0,-1,1.04,9101,60,86,32,73,1498,512.0,634,459,60,122.0,301,1,413,427,154,0,0,503,17136,15661,510,-5.59,,,,,,,,,,,,
68404,1564323234260,-1,2.3,1.41,0.63,2.07,1.87,1.06,-0.07,0.43,1,0,-1,1.06,9101,58,86,32,71,1498,509.0,634,457,60,123.0,301,1,413,398,154,0,0,500,-4054,15661,509,181.28,,,,,,,,,,,,
68424,1564323234280,2,2.29,1.41,0.63,2.06,1.88,1.03,-0.09,0.38,1,0,-1,1.04,354,57,86,32,68,1498,510.0,631,461,60,122.0,301,1,414,268,154,0,0,496,-21872,998,507,-5.59,,,,,,,,,,,,
68444,1564323234299,0,2.3,1.4,0.63,2.07,1.88,0.91,-0.13,0.32,1,2,-0,0.92,9236,57,86,32,67,1498,506.0,634,452,60,123.0,301,1,412,375,154,0,0,497,6274,-32768,505,-5.59,44.680767,10.016791,50.81,177.8,0,0.0,-1,0.0,0.0,0,0.44,1.1407
68464,1564323234319,-0,2.29,1.41,0.63,2.07,1.87,0.89,-0.16,0.33,1,3,-1,0.9,9263,57,86,32,67,1498,504.0,635,458,60,123.0,301,1,412,370,154,0,0,491,-32248,-6528,503,-5.59,,,,,,,,,,,,
68484,1564323234339,-0,2.28,1.41,0.63,2.07,1.87,0.92,-0.23,0.42,1,3,-0,0.95,9263,57,86,32,66,1498,501.0,633,455,60,123.0,257,1,411,370,130,0,0,490,11560,1,501,-5.59,,,,,,,,,,,,
68504,1564323234359,1,2.27,1.41,0.63,2.07,1.88,0.98,-0.19,0.49,1,3,-2,1.0,9155,57,86,32,66,1498,499.0,630,457,60,122.0,257,1,409,370,130,0,0,487,-22519,-1818,499,-5.59,,,,,,,,,,,,
68524,1564323234379,2,2.25,1.41,0.63,2.08,1.86,1.08,-0.14,0.5,0,1,-1,1.09,9115,67,86,32,68,1498,497.0,628,466,60,121.0,257,1,413,379,130,0,0,490,-9216,505,497,-5.59,,,,,,,,,,,,
68544,1564323234399,2,2.25,1.41,0.63,2.08,1.87,1.15,-0.02,0.48,-1,1,-2,1.15,9115,77,86,32,73,1498,495.0,631,466,60,120.0,257,1,413,427,130,0,0,485,771,505,491,-5.59,44.680756,10.016788,49.72,177.8,0,0.0,-1,0.0,0.0,0,0.44,1.1424
68564,1564323234419,0,2.25,1.4,0.63,2.07,1.87,1.24,0.02,0.5,-2,-1,-2,1.24,9115,85,86,32,80,1498,495.0,630,464,60,120.0,257,1,415,497,130,0,0,489,998,16648,488,-5.59,,,,,,,,,,,,
68584,1564323234439,2,2.25,1.4,0.63,2.06,1.87,1.31,0.06,0.49,-2,-1,-3,1.32,9115,94,86,32,85,1498,493.0,630,464,60,120.0,381,1,418,576,186,0,0,482,-6528,2212,485,-5.59,,,,,,,,,,,,
68604,1564323234459,1,2.25,1.4,0.63,2.06,1.87,1.38,0.05,0.51,-3,-2,-4,1.39,9115,100,86,32,88,1498,492.0,628,465,60,120.0,381,1,418,599,186,0,0,481,-32768,32033,485,-5.59,,,,,,,,,,,,
68624,1564323234479,1,2.25,1.4,0.63,2.06,1.86,1.44,0.13,0.46,-4,-2,-4,1.45,9115,100,86,32,88,1498,491.0,627,465,60,120.0,381,1,418,611,186,0,0,480,248,32033,481,-5.59,,,,,,,,,,,,
68644,1564323234499,2,2.25,1.4,0.63,2.06,1.86,1.5,0.01,0.49,-4,-3,-4,1.5,9115,100,86,32,89,1498,486.0,626,461,60,120.0,381,1,418,622,186,0,0,475,-1562,3576,481,-5.59,44.680744,10.016784,48.19,177.8,0,0.0,-1,0.0,0.0,0,0.44,1.1441
68664,1564323234519,-0,2.26,1.4,0.63,2.06,1.87,1.42,0.01,0.51,-4,-2,-5,1.42,9115,100,86,32,88,1498,485.0,629,461,60,120.0,381,1,418,611,186,0,0,471,-6441,-16384,480,-5.59,,,,,,,,,,,,
68684,1564323234539,-0,2.26,1.4,0.63,2.06,1.86,1.32,-0.03,0.52,-3,-0,-5,1.32,9115,100,86,32,88,1498,481.0,627,461,60,119.0,450,1,418,611,215,0,0,471,32033,243,475,414.87,,,,,,,,,,,,
68704,1564323234559,1,2.27,1.4,0.63,2.07,1.87,1.18,-0.06,0.54,-3,0,-5,1.18,8769,100,86,32,89,1498,477.0,626,464,60,120.0,450,1,426,611,215,0,0,470,2212,10432,474,181.28,,,,,,,,,,,,
68724,1564323234579,1,2.25,1.4,0.63,2.07,1.87,1.16,0.01,0.51,-2,0,-4,1.16,8704,100,86,32,88,1498,475.0,620,455,60,120.0,450,1,427,611,215,0,0,464,-17956,-16384,473,414.87,,,,,,,,,,,,
68744,1564323234599,0,2.25,1.39,0.63,2.07,1.87,1.24,0.05,0.49,-3,-1,-5,1.25,8644,100,86,32,88,1498,475.0,617,461,60,121.0,450,1,429,622,215,0,0,463,-17956,16408,468,181.28,44.680733,10.016779,47.38,177.8,0,0.0,-1,0.0,0.0,0,0.44,1.1457
68764,1564323234619,1,2.25,1.4,0.63,2.07,1.87,1.28,0.02,0.53,-3,-2,-5,1.28,8773,100,86,32,88,1498,472.0,623,460,60,121.0,450,1,425,622,215,0,0,464,-1923,12552,468,-5.59,,,,,,,,,,,,
68784,1564323234639,2,2.25,1.4,0.63,2.07,1.87,1.28,-0.03,0.62,-3,-2,-5,1.28,9036,100,86,32,88,1498,472.0,630,460,60,120.0,441,1,418,611,207,0,0,470,3576,2211,468,-5.59,,,,,,,,,,,,
68804,1564323234659,1,2.24,1.4,0.63,2.07,1.87,1.34,-0.05,0.67,-4,-1,-7,1.34,9272,98,86,32,87,1498,475.0,633,457,60,120.0,441,1,418,599,207,0,0,469,-17956,6193,468,-5.59,,,,,,,,,,,,
68824,1564323234679,-0,2.25,1.4,0.63,2.07,1.87,1.38,0.04,0.57,-4,-3,-5,1.38,9455,79,86,32,85,1498,473.0,636,460,60,120.0,441,1,418,576,207,0,0,472,-1923,8488,467,181.28,,,,,,,,,,,,
68844,1564323234699,1,2.24,1.4,0.63,2.08,1.87,1.3,-0.0,0.48,-4,-1,-6,1.3,9904,60,86,32,76,1498,472.0,637,453,60,120.0,441,1,400,483,207,0,0,467,-1923,-9203,467,-5.59,44.680721,10.016776,46.5,177.9,0,0.0,-1,0.0,0.0,0,0.44,1.1474
68864,1564323234719,1,2.22,1.4,0.63,2.07,1.87,1.21,-0.11,0.52,-5,-1,-5,1.21,10135,55,86,32,68,1498,472.0,646,466,60,120.0,441,1,407,445,207,0,0,472,-1923,8488,464,-5.59,,,,,,,,,,,,
68884,1564323234739,0,2.22,1.4,0.63,2.08,1.86,1.15,-0.13,0.6,-6,3,-6,1.15,10135,55,86,32,65,1498,473.0,643,463,60,120.0,349,1,413,412,162,0,0,488,-17956,-6656,467,-5.59,,,,,,,,,,,,
68904,1564323234759,1,2.19,1.4,0.63,2.08,1.87,1.12,0.01,0.57,-6,4,-5,1.12,10135,54,86,32,65,1498,480.0,639,465,60,120.0,349,1,413,412,162,0,0,495,8488,-32248,472,-5.59,,,,,,,,,,,,
68924,1564323234779,2,2.19,1.4,0.63,2.08,1.87,1.16,-0.02,0.59,-8,1,-6,1.16,10135,54,86,32,65,1485,485.0,625,463,60,120.0,349,1,413,336,162,0,0,486,-6441,8488,478,-5.59,,,,,,,,,,,,
68944,1564323234799,-2,2.18,1.39,0.62,2.06,1.87,1.12,0.04,0.57,-8,-1,-7,1.12,8095,54,86,32,66,1467,487.0,606,457,60,119.0,349,1,450,352,162,0,0,485,505,32033,473,-5.59,44.68071,10.016773,45.98,177.9,0,0.0,-1,0.0,0.0,0,0.44,1.1491
68964,1564323234819,1,2.17,1.39,0.62,2.06,1.85,1.06,0.11,0.55,-8,-2,-8,1.07,7861,54,86,32,68,1450,487.0,588,456,60,122.0,349,1,441,361,162,0,0,485,-1562,-23367,469,-5.59,,,,,,,,,,,,
68984,1564323234839,-0,2.16,1.39,0.61,2.05,1.85,1.11,0.18,0.51,-10,-3,-10,1.13,7741,55,86,32,70,1433,485.0,579,458,60,121.0,233,1,432,377,109,0,0,483,-6441,243,466,-5.59,,,,,,,,,,,,
69004,1564323234859,-0,2.16,1.39,0.61,2.04,1.84,1.2,0.22,0.48,-11,-4,-9,1.22,7941,55,86,32,70,1428,487.0,574,458,60,120.0,233,1,443,374,109,0,0,481,505,6193,464,181.28,,,,,,,,,,,,
69024,1564323234879,2,2.16,1.38,0.61,2.04,1.85,1.12,0.32,0.51,-12,-7,-10,1.17,8194,55,86,32,69,1428,486.0,590,460,60,120.0,233,1,443,380,109,0,0,473,-1562,15649,463,-5.59,,,,,,,,,,,,
69044,1564323234899,1,2.15,1.38,0.61,2.05,1.84,1.16,0.39,0.48,-12,-8,-12,1.22,8468,55,86,32,66,1437,483.0,601,462,60,121.0,233,1,438,372,109,0,0,462,-899,-768,462,-5.59,44.680698,10.016769,46.94,177.9,0,0.0,-1,0.0,0.0,0,0.44,1.1507
69064,1564323234919,2,2.14,1.38,0.61,2.05,1.85,1.18,0.38,0.43,-13,-7,-12,1.24,8869,55,86,32,65,1455,482.0,630,461,60,121.0,233,1,414,365,109,0,0,468,-899,243,460,-5.59,,,,,,,,,,,,
69084,1564323234939,1,2.12,1.39,0.61,2.04,1.85,1.27,0.34,0.47,-15,-6,-15,1.31,9018,55,86,32,64,1472,481.0,635,460,60,120.0,267,1,403,361,123,0,0,477,32033,21432,456,-5.59,,,,,,,,,,,,
69104,1564323234959,2,2.11,1.39,0.61,2.05,1.85,1.31,0.38,0.42,-16,-6,-16,1.36,9254,56,86,32,63,1489,486.0,644,458,60,121.0,267,1,407,357,123,0,0,480,-1562,-8985,457,-5.59,,,,,,,,,,,,
69124,1564323234979,1,2.11,1.39,0.62,2.06,1.85,1.27,0.54,0.33,-17,-4,-17,1.38,9488,56,86,32,61,1498,489.0,637,457,60,120.0,267,1,413,352,123,0,0,483,505,-18108,456,-5.59,,,,,,,,,,,,
69144,1564323234999,1,2.12,1.39,0.62,2.05,1.85,1.18,0.56,0.38,-18,-3,-18,1.31,9580,56,86,32,61,1498,488.0,648,452,60,120.0,267,1,414,352,123,0,0,483,1,3571,455,-5.59,44.680698,10.016769,46.94,177.9,0,0.0,-1,0.0,0.0,0,0.45,1.1524
69164,1564323235009,-0,2.12,1.39,0.62,2.06,1.85,1.15,0.7,0.38,-18,-1,-18,1.34,9755,56,86,32,61,1498,486.0,645,464,60,121.0,267,1,412,362,123,0,0,482,-1562,-8985,454,-5.59,,,,,,,,,,,,
69184,1564323235029,1,2.11,1.39,0.62,2.05,1.85,1.11,0.8,0.49,-18,-1,-20,1.37,9821,56,86,32,60,1498,487.0,643,465,60,120.0,295,1,409,359,134,0,0,483,505,32033,452,-5.59,,,,,,,,,,,,
69204,1564323235049,0,2.13,1.39,0.62,2.05,1.86,1.12,0.66,0.6,-19,-3,-21,1.3,9821,56,86,32,59,1498,488.0,645,456,60,120.0,295,1,407,352,134,0,0,493,1,6274,458,-5.59,,,,,,,,,,,,
69224,1564323235069,0,2.12,1.39,0.61,2.06,1.84,1.21,0.53,0.64,-20,-4,-24,1.32,9821,55,86,32,61,1498,491.0,634,464,60,120.0,295,1,411,366,134,0,0,491,248,-3856,459,-5.59,,,,,,,,,,,,
69244,1564323235089,0,2.11,1.39,0.61,2.05,1.85,1.12,0.47,0.65,-20,-3,-25,1.22,8449,55,86,32,63,1491,490.0,627,453,60,120.0,295,1,444,345,134,0,0,491,-1818,2211,461,-5.59,44.680687,10.016767,46.07,177.9,0,0.0,-1,0.0,0.0,0,0.45,1.1541
69264,1564323235109,-0,2.12,1.39,0.61,2.05,1.85,1.11,0.58,0.67,-19,-5,-25,1.25,8256,54,85,32,65,1474,489.0,610,460,60,121.0,295,1,444,350,134,0,0,483,-6656,-8985,457,-5.59,,,,,,,,,,,,
69284,1564323235129,1,2.11,1.39,0.62,2.05,1.85,1.14,0.5,0.59,-20,-5,-26,1.25,8438,54,85,32,66,1457,488.0,610,461,60,121.0,248,1,439,365,114,0,0,483,1,-9160,457,-5.59,,,,,,,,,,,,
69304,1564323235149,0,2.11,1.39,0.61,2.05,1.85,0.97,0.62,0.6,-20,-4,-26,1.15,8632,54,85,32,65,1439,488.0,625,460,60,120.0,248,1,430,356,114,0,0,482,1,17628,459,-5.59,,,,,,,,,,,,
69324,1564323235169,2,2.11,1.39,0.62,2.05,1.85,0.91,0.76,0.56,-20,-4,-25,1.19,8790,54,86,32,63,1426,487.0,622,460,60,119.0,248,1,418,352,114,0,0,485,505,2524,459,414.87,,,,,,,,,,,,
69344,1564323235199,2,2.11,1.39,0.62,2.06,1.85,0.82,0.88,0.52,-20,-4,-26,1.2,8890,54,86,32,62,1426,490.0,631,458,60,119.0,248,1,408,350,114,0,0,484,-1818,-8985,457,-5.59,44.680664,10.016764,46.05,177.9,0,0.0,-1,0.0,0.0,0,0.45,1.1557
69364,1564323235219,0,2.11,1.39,0.62,2.06,1.85,0.92,0.92,0.43,-20,-4,-26,1.3,8886,54,85,32,62,1429,490.0,631,464,60,120.0,248,1,403,350,114,0,0,487,-32768,-9160,457,-5.59,,,,,,,,,,,,
69384,1564323235239,2,2.11,1.39,0.62,2.06,1.86,0.9,1.03,0.35,-20,-3,-26,1.36,9023,54,85,32,62,1446,490.0,635,461,60,121.0,259,1,398,352,119,0,0,485,-32768,-8985,454,-5.59,,,,,,,,,,,,
69404,1564323235259,-3,2.11,1.39,0.61,2.06,1.85,0.88,1.13,0.25,-20,-3,-26,1.43,9150,54,85,32,61,1464,490.0,636,468,60,120.0,259,1,401,348,119,0,0,487,-1818,-3267,455,414.87,,,,,,,,,,,,
69424,1564323235279,-0,2.1,1.39,0.62,2.06,1.85,0.63,1.21,0.14,-20,-0,-25,1.37,9365,54,85,32,61,1481,489.0,638,455,60,120.0,259,1,409,348,119,0,0,488,-6656,17628,455,-5.59,,,,,,,,,,,,
69444,1564323235298,0,2.09,1.39,0.62,2.07,1.86,0.6,1.18,0.22,-20,1,-26,1.32,9389,54,85,32,60,1498,489.0,635,464,60,121.0,259,1,408,342,119,0,0,488,-1562,2212,457,-5.59,44.680653,10.016764,46.08,177.9,0,0.0,-1,0.0,0.0,0,0.45,1.1574
69464,1564323235318,2,2.11,1.39,0.63,2.07,1.85,0.75,0.91,0.37,-21,-0,-27,1.18,9231,54,85,32,60,1498,487.0,632,464,60,121.0,259,1,403,342,119,0,0,491,-1818,-22519,461,-5.59,,,,,,,,,,,,
69484,1564323235338,1,2.1,1.4,0.63,2.07,1.86,0.87,0.74,0.45,-22,-3,-28,1.14,9005,49,85,32,60,1498,491.0,633,454,60,121.0,259,1,397,340,119,0,0,493,248,6274,462,-5.59,,,,,,,,,,,,
69504,1564323235358,-1,2.11,1.4,0.63,2.07,1.85,0.95,0.51,0.53,-23,-3,-29,1.08,8712,36,85,32,57,1498,492.0,632,464,60,121.0,259,1,407,309,119,0,0,490,-32768,-9203,463,-5.59,,,,,,,,,,,,
69524,1564323235378,-1,2.11,1.4,0.62,2.07,1.86,0.87,0.56,0.52,-22,-1,-30,1.03,8676,29,85,32,53,1498,492.0,622,462,60,121.0,259,1,389,277,119,0,0,493,-32768,-26615,462,-5.59,,,,,,,,,,,,
69544,1564323235398,-0,2.11,1.4,0.62,2.07,1.86,0.71,0.71,0.49,-21,-0,-28,1.0,8911,27,85,32,49,1498,492.0,633,457,60,118.0,259,1,378,249,119,0,0,489,-32768,12552,461,-5.59,44.680641,10.016765,46.88,177.9,0,0.0,-1,0.0,0.0,0,0.45,1.1591
69564,1564323235418,-2,2.12,1.39,0.62,2.07,1.85,0.6,0.82,0.5,-21,-1,-29,1.01,9110,27,85,32,46,1498,491.0,629,460,60,120.0,259,1,365,230,119,0,0,487,248,243,462,-5.59,,,,,,,,,,,,
69584,1564323235438,-1,2.12,1.39,0.63,2.08,1.85,0.47,0.87,0.49,-22,2,-29,0.99,9191,26,85,32,43,1498,491.0,635,460,60,119.0,169,1,346,224,78,0,0,488,248,8488,462,-5.59,,,,,,,,,,,,
69604,1564323235458,1,2.11,1.4,0.64,2.07,1.86,0.45,0.82,0.6,-22,1,-29,0.94,9227,26,85,32,41,1498,495.0,637,461,60,120.0,169,1,333,219,78,0,0,494,771,32033,462,181.28,,,,,,,,,,,,
69624,1564323235478,-0,2.12,1.4,0.63,2.08,1.86,0.58,0.61,0.72,-24,1,-30,0.85,9204,26,85,32,39,1498,497.0,638,459,60,119.0,169,1,320,214,78,0,0,497,-9216,-1562,464,-5.59,,,,,,,,,,,,
69644,1564323235498,1,2.12,1.39,0.64,2.07,1.87,0.73,0.5,0.73,-24,-0,-31,0.88,9159,26,85,32,38,1498,497.0,635,458,60,121.0,169,1,317,209,78,0,0,497,-9216,3580,465,-5.59,44.68063,10.016768,46.65,177.8,0,0.0,-1,0.0,0.0,0,0.45,1.1607
69664,1564323235518,-0,2.12,1.39,0.64,2.07,1.87,0.86,0.36,0.72,-24,-1,-30,0.93,9101,26,85,32,37,1447,497.0,631,462,60,121.0,169,1,314,206,78,0,0,500,2524,3580,465,-5.59,,,,,,,,,,,,
69684,1564323235538,2,2.11,1.4,0.64,2.08,1.86,0.97,0.31,0.72,-24,-3,-31,1.01,9044,26,85,32,37,1393,498.0,632,460,60,121.0,150,1,314,205,70,0,0,496,2524,-899,467,-5.59,,,,,,,,,,,,
69704,1564323235558,-0,2.13,1.4,0.64,2.08,1.86,1.07,0.17,0.72,-24,-5,-30,1.09,8992,26,85,32,37,1339,496.0,630,468,60,121.0,150,1,314,205,70,0,0,495,3,8488,470,181.28,,,,,,,,,,,,
69724,1564323235578,1,2.15,1.39,0.64,2.07,1.87,1.16,0.09,0.69,-24,-6,-31,1.16,8958,26,85,32,37,1285,496.0,629,462,60,121.0,150,1,314,205,70,0,0,494,3,32033,470,181.28,,,,,,,,,,,,
69744,1564323235596,1,2.17,1.4,0.64,2.08,1.86,1.25,-0.06,0.73,-24,-7,-31,1.25,8962,26,85,32,36,1214,497.0,628,463,60,121.0,150,1,311,205,70,0,0,497,-9216,-1923,471,-5.59,44.680618,10.016771,46.77,177.8,0,0.0,-1,0.0,0.0,0,0.45,1.1624
69764,1564323235616,1,2.2,1.39,0.64,2.07,1.87,1.32,-0.15,0.76,-24,-8,-31,1.33,8979,26,85,32,36,1138,497.0,631,464,60,121.0,150,1,311,202,70,0,0,500,-9216,-16384,470,-5.59,,,,,,,,,,,,
69784,1564323235636,1,2.23,1.4,0.64,2.07,1.87,1.39,-0.26,0.77,-23,-9,-30,1.42,8992,26,85,32,36,1099,498.0,629,465,60,121.0,144,1,311,202,68,0,0,494,3,8488,472,-5.59,,,,,,,,,,,,
69804,1564323235656,1,2.26,1.4,0.64,2.08,1.87,1.43,-0.31,0.8,-22,-10,-31,1.46,9018,26,85,32,36,1077,493.0,638,465,60,122.0,144,1,311,202,68,0,0,494,-6528,-16384,475,-5.59,,,,,,,,,,,,
69824,1564323235676,0,2.29,1.4,0.63,2.08,1.86,1.47,-0.39,0.81,-20,-10,-29,1.52,9031,26,85,32,36,1058,490.0,641,460,60,121.0,144,1,311,202,68,0,0,488,-1818,32033,479,-5.59,,,,,,,,,,,,
69844,1564323235698,0,2.33,1.4,0.64,2.08,1.87,1.5,-0.41,0.83,-18,-10,-28,1.56,9040,26,85,32,36,1040,489.0,633,461,60,122.0,144,1,311,202,68,0,0,486,-6656,16648,478,-5.59,44.680607,10.016776,47.44,177.7,0,0.0,-1,0.0,0.0,0,0.45,1.1641
69864,1564323235718,2,2.35,1.4,0.64,2.08,1.87,1.52,-0.48,0.85,-16,-10,-27,1.59,9057,26,85,32,36,1033,485.0,629,462,60,122.0,144,1,311,202,68,0,0,483,-10483,32033,484,181.28,,,,,,,,,,,,
69884,1564323235738,2,2.39,1.4,0.64,2.09,1.86,1.54,-0.49,0.85,-13,-10,-23,1.62,9057,26,85,32,36,1037,484.0,628,463,60,121.0,142,1,311,202,69,0,0,484,-899,-899,486,-5.59,,,,,,,,,,,,
69904,1564323235758,2,2.42,1.4,0.63,2.08,1.87,1.59,-0.53,0.85,-10,-11,-21,1.68,9066,26,85,32,36,1046,489.0,629,463,60,121.0,142,1,311,202,69,0,0,480,8488,3580,489,-5.59,,,,,,,,,,,,
69924,1564323235778,1,2.47,1.41,0.64,2.09,1.87,1.6,-0.54,0.78,-6,-11,-18,1.69,9079,26,85,32,36,1059,489.0,628,461,60,121.0,142,1,311,202,69,0,0,482,-23367,1,489,-5.59,,,,,,,,,,,,
69944,1564323235798,2,2.5,1.41,0.64,2.08,1.87,1.65,-0.56,0.72,-2,-11,-15,1.74,9097,26,85,32,36,1070,495.0,629,461,60,121.0,142,1,311,202,69,0,0,479,-1923,-1562,495,-5.59,44.680595,10.016781,47.38,177.6,0,0.0,-1,0.0,0.0,0,0.46,1.1657
69964,1564323235818,1,2.54,1.4,0.65,2.09,1.87,1.64,-0.53,0.65,1,-9,-11,1.72,9075,26,85,32,35,1079,497.0,623,462,60,121.0,142,1,308,199,69,0,0,481,8488,-6528,495,-5.59,,,,,,,,,,,,
69984,1564323235838,1,2.59,1.41,0.64,2.1,1.88,1.67,-0.51,0.6,4,-10,-5,1.74,9093,26,85,32,35,1084,496.0,623,463,60,121.0,136,1,308,199,68,0,0,491,-3210,771,496,-5.59,,,,,,,,,,,,
70004,1564323235858,1,2.62,1.41,0.64,2.08,1.87,1.64,-0.51,0.59,6,-8,-1,1.72,9115,26,85,32,36,1086,496.0,631,458,60,121.0,136,1,311,203,68,0,0,499,16408,-22519,496,-5.59,,,,,,,,,,,,
70024,1564323235878,-0,2.65,1.4,0.64,2.09,1.87,1.59,-0.51,0.53,10,-8,4,1.67,9141,26,85,32,35,1085,495.0,634,458,60,120.0,136,1,308,200,68,0,0,494,-23623,2524,495,-5.59,,,,,,,,,,,,
70044,1564323235898,0,2.67,1.4,0.64,2.08,1.88,1.4,-0.54,0.5,12,-6,7,1.5,9186,26,85,32,35,1078,494.0,639,458,60,120.0,136,1,308,201,68,0,0,489,-23623,771,494,-5.59,44.680584,10.016787,47.62,177.6,0,0.0,-1,0.0,0.0,0,0.46,1.1674
70064,1564323235918,-1,2.7,1.41,0.65,2.08,1.88,1.22,-0.68,0.49,15,-6,10,1.4,9236,26,85,32,35,1068,494.0,634,458,60,121.0,136,1,308,201,68,0,0,491,-9160,-9216,494,-5.59,,,,,,,,,,,,
70084,1564323235938,-0,2.7,1.41,0.65,2.08,1.88,1.22,-0.78,0.58,17,-6,12,1.45,9295,27,85,32,35,1055,493.0,632,465,60,121.0,143,1,308,202,71,0,0,492,2524,771,491,-5.59,,,,,,,,,,,,
70104,1564323235958,1,2.7,1.41,0.65,2.09,1.88,1.26,-0.85,0.56,19,-8,15,1.52,9314,27,85,32,35,1043,491.0,636,460,60,121.0,143,1,308,202,71,0,0,494,-8985,-6528,491,-5.59,,,,,,,,,,,,
70124,1564323235978,0,2.7,1.41,0.65,2.08,1.87,1.23,-0.87,0.56,21,-7,18,1.51,9356,27,85,32,35,1036,491.0,632,463,60,121.0,143,1,308,203,71,0,0,506,8488,998,491,-5.59,,,,,,,,,,,,
70144,1564323235992,0,2.7,1.41,0.65,2.09,1.88,1.13,-0.95,0.57,24,-6,21,1.48,9403,27,85,32,35,1028,492.0,632,460,60,120.0,143,1,308,204,71,0,0,510,8488,-1818,492,-5.59,44.680572,10.01679,47.68,177.6,0,0.0,-1,0.0,0.0,0,0.46,1.1691
70164,1564323236012,2,2.69,1.41,0.65,2.1,1.87,1.06,-1.05,0.6,26,-5,23,1.49,9441,27,85,32,35,1015,493.0,635,464,60,121.0,143,1,308,204,71,0,0,511,10305,2524,493,-5.59,,,,,,,,,,,,
70184,1564323236032,2,2.69,1.4,0.65,2.1,1.87,1.1,-1.07,0.57,28,-7,24,1.53,9431,27,85,32,35,1004,493.0,632,463,60,121.0,145,1,308,204,72,0,0,515,2131,998,495,-5.59,,,,,,,,,,,,
70204,1564323236052,-0,2.69,1.42,0.65,2.09,1.87,1.15,-1.06,0.51,30,-7,28,1.57,9393,27,85,32,35,998,494.0,572,457,60,120.0,145,1,308,204,72,0,0,518,-18341,-6528,494,-5.59,,,,,,,,,,,,
70224,1564323236072,1,2.7,1.42,0.64,2.1,1.87,1.05,-1.13,0.51,32,-6,31,1.54,9398,27,85,32,35,992,493.0,415,462,60,120.0,145,1,308,203,72,0,0,514,-18341,998,493,-5.59,,,,,,,,,,,,
70244,1564323236100,2,2.69,1.42,0.65,2.1,1.88,1.03,-1.21,0.48,33,-6,32,1.59,9422,27,85,32,35,985,491.0,342,456,60,121.0,145,1,308,204,72,0,0,519,23400,771,491,-5.59,44.680561,10.016793,46.81,177.5,0,0.0,-1,0.0,0.0,0,0.46,1.1707
70264,1564323236120,-0,2.71,1.41,0.65,2.09,1.88,1.06,-1.18,0.4,34,-5,36,1.59,9431,27,85,32,35,977,487.0,318,464,60,121.0,145,1,308,204,72,0,0,511,26704,-6656,488,-5.59,,,,,,,,,,,,
70284,1564323236140,1,2.71,1.41,0.64,2.09,1.88,0.99,-1.21,0.38,35,-4,39,1.57,9474,27,85,32,35,977,486.0,306,465,60,120.0,150,1,308,204,73,0,0,516,20625,-6656,485,-5.59,,,,,,,,,,,,
70304,1564323236160,2,2.72,1.41,0.65,2.09,1.88,0.9,-1.28,0.48,35,-3,39,1.57,9469,27,85,32,35,975,484.0,302,466,60,121.0,150,1,308,204,73,0,0,523,26704,-6441,484,-5.59,,,,,,,,,,,,
70324,1564323236180,1,2.72,1.42,0.64,2.1,1.88,0.89,-1.23,0.4,36,-4,42,1.52,9445,27,85,32,35,968,485.0,323,463,60,121.0,150,1,308,204,73,0,0,525,-28332,-1562,485,-5.59,,,,,,,,,,,,
70344,1564323236200,-1,2.72,1.41,0.65,2.09,1.88,0.92,-1.18,0.43,37,-4,43,1.49,9393,28,85,32,35,962,482.0,317,467,60,121.0,150,1,308,203,73,0,0,525,-28332,-1818,482,-5.59,44.68055,10.016794,46.78,177.5,0,0.0,-1,0.0,0.0,0,0.46,1.1724
70364,1564323236220,1,2.72,1.41,0.65,2.09,1.88,0.85,-1.26,0.43,37,-4,45,1.52,9398,28,85,32,35,957,479.0,309,463,60,120.0,150,1,308,203,73,0,0,530,26704,-10483,479,-5.59,,,,,,,,,,,,
70384,1564323236240,1,2.72,1.42,0.64,2.1,1.88,0.84,-1.27,0.35,38,-4,45,1.52,9384,28,85,32,35,951,478.0,310,456,60,121.0,150,1,308,203,72,0,0,526,21580,2212,478,-5.59,,,,,,,,,,,,
70404,1564323236260,2,2.72,1.41,0.65,2.1,1.88,0.83,-1.33,0.29,38,-3,47,1.57,9375,28,85,32,35,947,476.0,303,462,60,121.0,150,1,308,203,72,0,0,527,21580,10305,476,-5.59,,,,,,,,,,,,
70424,1564323236280,-1,2.72,1.41,0.65,2.09,1.88,0.8,-1.36,0.45,38,-3,48,1.58,9422,28,85,32,35,943,476.0,297,457,60,120.0,150,1,308,203,72,0,0,525,21580,-23367,476,-5.59,,,,,,,,,,,,
70444,1564323236299,0,2.73,1.42,0.65,2.1,1.88,0.82,-1.37,0.5,37,-2,47,1.6,9422,28,85,32,35,944,474.0,295,458,60,121.0,150,1,308,204,72,0,0,524,-28332,-23367,474,-5.59,44.680538,10.016793,45.82,177.4,0,0.0,-1,0.0,0.0,0,0.46,1.1741
70464,1564323236319,2,2.72,1.41,0.65,2.09,1.88,0.87,-1.34,0.33,37,-3,47,1.6,9426,28,85,32,35,945,472.0,286,462,60,121.0,150,1,308,204,72,0,0,525,21580,-1923,469,-5.59,,,,,,,,,,,,
70484,1564323236339,0,2.72,1.42,0.65,2.1,1.88,0.88,-1.38,0.29,37,-3,49,1.63,9393,28,85,32,36,953,471.0,285,463,60,121.0,153,1,311,206,72,0,0,534,21580,2212,471,-5.59,,,,,,,,,,,,
70504,1564323236359,0,2.72,1.42,0.65,2.1,1.88,0.8,-1.39,0.46,36,-2,48,1.61,9360,29,85,32,35,961,468.0,289,463,60,121.0,153,1,308,206,72,0,0,529,19477,2212,468,-5.59,,,,,,,,,,,,
70524,1564323236379,1,2.7,1.42,0.65,2.1,1.88,0.8,-1.38,0.46,36,-2,48,1.6,9365,29,85,32,36,968,466.0,290,464,60,121.0,153,1,311,206,72,0,0,534,5600,32033,467,-5.59,,,,,,,,,,,,
70544,1564323236399,3,2.71,1.42,0.65,2.1,1.88,0.87,-1.36,0.34,36,-2,48,1.61,9356,29,85,32,36,975,465.0,287,463,60,121.0,153,1,311,206,72,0,0,536,243,-9203,465,-5.59,44.680527,10.016791,45.38,177.4,0,0.0,-1,0.0,0.0,0,0.46,1.1757
70564,1564323236419,0,2.7,1.41,0.65,2.09,1.89,0.88,-1.42,0.31,36,-3,50,1.67,9379,29,85,32,36,981,466.0,286,464,60,121.0,153,1,311,206,72,0,0,530,13552,243,465,-5.59,,,,,,,,,,,,
70584,1564323236439,0,2.69,1.41,0.65,2.09,1.89,0.84,-1.48,0.4,36,-1,49,1.7,9379,29,85,32,36,986,462.0,286,458,60,120.0,156,1,311,206,73,0,0,532,-3856,2211,462,-5.59,,,,,,,,,,,,
70604,1564323236459,2,2.67,1.42,0.65,2.1,1.89,0.92,-1.47,0.41,36,-2,48,1.73,9360,30,85,32,36,987,464.0,285,457,60,121.0,156,1,311,206,73,0,0,537,-4082,16408,464,-5.59,,,,,,,,,,,,
70624,1564323236479,2,2.64,1.42,0.65,2.1,1.88,1.01,-1.47,0.28,36,-2,48,1.78,9360,30,85,32,36,986,463.0,290,458,60,121.0,156,1,311,206,73,0,0,538,-8165,-16384,463,-5.59,,,,,,,,,,,,
70644,1564323236499,2,2.6,1.41,0.65,2.1,1.88,0.99,-1.52,0.27,35,-3,49,1.81,9365,30,85,32,36,988,463.0,293,461,60,121.0,156,1,311,206,73,0,0,538,-3414,6193,463,-5.59,44.680515,10.016788,44.59,177.3,0,0.0,-1,0.0,0.0,0,0.46,1.1774
70664,1564323236519,-1,2.56,1.41,0.65,2.1,1.88,0.91,-1.5,0.44,35,-3,49,1.76,9342,34,85,32,37,992,463.0,305,457,60,120.0,156,1,314,209,73,0,0,536,2524,243,463,-5.59,,,,,,,,,,,,
70684,1564323236539,1,2.49,1.41,0.66,2.1,1.88,0.91,-1.5,0.55,35,-2,49,1.76,9328,39,85,32,39,997,464.0,308,462,60,121.0,161,1,320,214,75,0,0,536,-9166,12552,464,-5.59,,,,,,,,,,,,
70704,1564323236559,2,2.43,1.41,0.65,2.1,1.88,0.95,-1.41,0.46,34,-3,48,1.7,9314,44,85,32,42,1002,465.0,307,453,60,121.0,161,1,341,222,75,0,0,545,-9166,12552,465,-5.59,,,,,,,,,,,,
70724,1564323236579,3,2.36,1.41,0.65,2.1,1.88,0.95,-1.28,0.34,32,-2,48,1.6,9254,47,85,32,45,1011,462.0,303,463,60,121.0,161,1,361,229,75,0,0,540,18584,243,462,-5.59,,,,,,,,,,,,
70744,1564323236599,1,2.32,1.41,0.65,2.08,1.88,0.87,-1.16,0.33,28,-2,50,1.45,9164,51,85,32,49,1022,458.0,307,459,60,121.0,161,1,380,254,75,0,0,546,-8165,-18108,458,-5.59,44.680508,10.016782,44.16,177.2,0,0.0,-1,0.0,0.0,0,0.47,1.1791
70764,1564323236619,-2,2.28,1.4,0.65,2.09,1.87,0.67,-1.05,0.34,25,1,50,1.25,9093,56,85,32,52,1031,453.0,308,463,60,121.0,161,1,391,280,75,0,0,545,-4082,-8985,453,-5.59,,,,,,,,,,,,
70784,1564323236639,-2,2.22,1.4,0.65,2.08,1.86,0.63,-1.03,0.29,21,2,48,1.21,8997,61,85,32,56,1037,448.0,308,471,60,121.0,227,1,399,310,102,0,0,486,243,-3267,447,-5.59,,,,,,,,,,,,
70804,1564323236659,-2,2.17,1.39,0.64,2.06,1.86,0.5,-0.87,0.36,19,3,42,1.0,9001,64,85,32,61,1058,443.0,302,457,60,120.0,227,1,396,348,102,0,0,444,-18341,21432,441,-5.59,,,,,,,,,,,,
70824,1564323236679,-0,2.13,1.38,0.63,2.04,1.85,0.54,-0.76,0.49,15,4,38,0.93,8856,65,85,32,64,1095,446.0,306,458,60,120.0,227,1,414,359,102,0,0,453,8488,26704,436,-5.59,,,,,,,,,,,,
70844,1564323236699,1,2.1,1.37,0.62,2.04,1.83,0.64,-0.68,0.58,10,3,32,0.93,8856,66,85,32,67,1129,452.0,303,462,60,120.0,227,1,417,374,102,0,0,454,-6387,2131,434,-5.59,44.680496,10.016774,43.2,177.2,0,0.0,-1,0.0,0.0,0,0.47,1.1807
70864,1564323236719,2,2.08,1.36,0.62,2.03,1.84,0.66,-0.48,0.53,6,1,28,0.82,8856,66,85,32,72,1159,459.0,300,463,60,119.0,227,1,418,407,102,0,0,454,-23623,23400,431,-5.59,,,,,,,,,,,,
70884,1564323236739,2,2.07,1.37,0.61,2.03,1.82,0.64,-0.29,0.46,2,-0,24,0.7,475,66,85,32,76,1209,457.0,300,462,60,120.0,337,1,100,256,146,0,0,456,-9160,-3314,431,-5.59,,,,,,,,,,,,
70904,1564323236759,-0,2.06,1.37,0.6,2.01,1.81,0.64,-0.08,0.44,-1,-2,19,0.64,7347,66,85,32,78,1280,457.0,302,453,60,122.0,337,1,400,461,146,0,0,454,17628,-3856,425,-5.59,,,,,,,,,,,,
70924,1564323236779,-2,2.07,1.36,0.59,1.99,1.79,0.58,0.12,0.39,-3,-3,15,0.6,7270,66,85,32,80,1344,458.0,302,462,60,122.0,337,1,395,475,146,0,0,454,17628,-4082,425,-5.59,,,,,,,,,,,,
70944,1564323236799,2,2.07,1.35,0.57,1.98,1.78,0.62,0.12,0.41,-5,-3,10,0.64,7270,66,85,32,81,1385,459.0,302,457,60,122.0,337,1,394,489,146,0,0,455,2211,-21792,424,-5.59,44.680489,10.016767,43.2,177.2,0,0.0,-1,0.0,0.0,0,0.47,1.1824
70964,1564323236819,-0,2.07,1.36,0.57,1.98,1.77,0.61,0.28,0.35,-6,-1,4,0.67,6996,67,85,32,83,1426,457.0,303,451,60,120.0,337,1,377,494,146,0,0,434,-9160,2278,421,-5.59,,,,,,,,,,,,
70984,1564323236839,-1,2.08,1.36,0.57,1.98,1.76,0.57,0.35,0.33,-7,-5,1,0.67,7051,67,85,32,83,1467,454.0,301,460,60,121.0,310,1,381,495,131,0,0,441,-26615,-20736,419,-5.59,,,,,,,,,,,,
71004,1564323236859,1,2.08,1.37,0.57,1.98,1.77,0.65,0.41,0.33,-9,-5,-3,0.77,7153,67,85,32,83,1498,454.0,303,461,60,120.0,310,1,387,496,131,0,0,439,2524,105,418,-5.59,,,,,,,,,,,,
71024,1564323236879,2,2.08,1.37,0.58,1.99,1.76,0.61,0.4,0.36,-11,-2,-7,0.73,7355,68,85,32,83,1498,454.0,305,460,60,119.0,310,1,398,498,131,0,0,450,2524,630,417,-5.59,,,,,,,,,,,,
71044,1564323236899,0,2.08,1.37,0.58,2.0,1.76,0.63,0.52,0.33,-12,-0,-10,0.82,7609,68,85,32,83,1498,457.0,304,461,60,121.0,310,1,413,501,131,0,0,451,-9160,250,414,-5.59,44.680477,10.01676,43.36,177.1,0,0.0,-1,0.0,0.0,0,0.47,1.1841
71064,1564323236919,1,2.07,1.37,0.58,2.01,1.77,0.76,0.54,0.31,-15,-0,-13,0.93,7958,68,85,32,82,1498,456.0,312,457,60,122.0,310,1,435,495,131,0,0,448,-26615,2811,413,-5.59,,,,,,,,,,,,
71084,1564323236939,2,2.08,1.38,0.58,2.0,1.77,0.65,0.6,0.29,-16,1,-14,0.88,8565,68,85,32,79,1498,452.0,341,458,60,123.0,385,1,425,497,159,0,0,447,-6387,-9166,412,-5.59,,,,,,,,,,,,
71104,1564323236959,-1,2.08,1.38,0.58,2.0,1.76,0.49,0.74,0.23,-16,1,-15,0.89,8992,72,84,32,76,1498,449.0,369,456,60,122.0,385,1,414,456,159,0,0,446,10305,9517,413,-5.59,,,,,,,,,,,,
71124,1564323236979,1,2.08,1.37,0.59,2.0,1.77,0.5,0.77,0.34,-16,0,-15,0.92,9328,74,84,32,75,1495,449.0,408,461,60,123.0,385,1,414,446,159,0,0,451,15649,-3856,412,-5.59,,,,,,,,,,,,
71144,1564323236991,0,2.09,1.38,0.59,2.0,1.78,0.5,0.68,0.5,-17,2,-17,0.84,9337,76,85,32,76,1480,449.0,451,463,60,122.0,385,1,415,456,159,0,0,459,-6387,1,414,-5.59,44.68047,10.016754,41.83,177.1,0,0.0,-1,0.0,0.0,0,0.47,1.1857
71164,1564323237011,2,2.07,1.37,0.59,2.0,1.77,0.42,0.8,0.49,-17,1,-18,0.9,9337,77,85,32,79,1464,456.0,492,461,60,123.0,385,1,416,483,159,0,0,459,14488,-14,418,-5.59,,,,,,,,,,,,
71184,1564323237031,2,2.08,1.37,0.59,1.99,1.77,0.54,0.73,0.52,-19,1,-20,0.91,9337,77,85,32,82,1448,458.0,520,462,60,123.0,430,1,417,540,181,0,0,461,-18108,13040,420,-5.59,,,,,,,,,,,,
71204,1564323237051,2,2.09,1.37,0.59,1.99,1.77,0.64,0.69,0.54,-20,-1,-22,0.94,9337,78,84,32,85,1433,457.0,538,464,60,122.0,430,1,418,576,181,0,0,453,-9160,-3414,420,-5.59,,,,,,,,,,,,
71224,1564323237071,-0,2.08,1.37,0.58,1.98,1.76,0.74,0.61,0.56,-21,-2,-23,0.96,7524,83,84,32,88,1412,454.0,535,458,60,123.0,430,1,410,539,181,0,0,452,-8985,-8165,419,414.87,,,,,,,,,,,,
71244,1564323237101,-1,2.09,1.37,0.57,1.99,1.76,0.79,0.64,0.6,-22,-2,-24,1.01,7309,92,85,32,90,1393,454.0,525,462,60,124.0,430,1,396,547,181,0,0,449,2524,13040,420,-5.59,44.680458,10.016749,42.02,177.1,0,0.0,-1,0.0,0.0,0,0.47,1.1874
71264,1564323237121,3,2.09,1.37,0.58,1.98,1.76,0.81,0.59,0.64,-22,-3,-26,1.0,7250,100,85,32,92,1389,453.0,523,457,60,123.0,430,1,390,544,181,0,0,446,-8985,2524,421,-5.59,,,,,,,,,,,,
71284,1564323237141,2,2.1,1.37,0.57,1.99,1.76,0.86,0.66,0.58,-22,-1,-26,1.08,7341,100,85,32,92,1385,454.0,525,462,60,124.0,362,1,397,548,151,0,0,445,2524,2524,418,-5.59,,,,,,,,,,,,
71304,1564323237161,1,2.1,1.37,0.59,1.99,1.76,0.88,0.69,0.53,-22,-0,-27,1.12,7512,100,85,32,92,1400,453.0,526,459,60,123.0,362,1,410,555,151,0,0,441,-6387,-9166,419,-5.59,,,,,,,,,,,,
71324,1564323237181,-0,2.11,1.37,0.59,1.99,1.77,0.95,0.75,0.51,-22,-1,-27,1.21,7914,100,85,32,91,1416,450.0,534,461,60,123.0,362,1,442,572,151,0,0,438,-3267,-26615,417,-5.59,,,,,,,,,,,,
71344,1564323237201,3,2.09,1.37,0.58,2.0,1.76,0.76,0.79,0.52,-22,1,-27,1.09,8472,100,84,32,89,1435,448.0,546,457,60,123.0,362,1,435,618,151,0,0,442,8488,-4059,414,-5.59,44.680447,10.016747,42.28,177.1,0,0.0,-1,0.0,0.0,0,0.47,1.1891
71364,1564323237221,-0,2.11,1.38,0.58,2.0,1.77,0.61,0.84,0.46,-21,3,-26,1.04,9101,100,84,32,87,1455,447.0,565,461,60,123.0,362,1,418,599,151,0,0,439,10305,-9166,415,414.87,,,,,,,,,,,,
71384,1564323237241,0,2.11,1.38,0.58,2.01,1.77,0.69,0.8,0.53,-21,1,-27,1.05,9630,100,84,32,86,1474,448.0,588,462,60,123.0,509,1,413,591,212,0,0,442,8488,-9166,416,-5.59,,,,,,,,,,,,
71404,1564323237261,2,2.12,1.38,0.58,2.0,1.76,0.58,0.91,0.61,-20,-2,-26,1.08,9962,100,84,32,85,1494,445.0,632,463,60,123.0,509,1,395,581,212,0,0,449,2131,5600,414,-5.59,,,,,,,,,,,,
71424,1564323237281,2,2.12,1.38,0.59,2.01,1.77,0.51,0.8,0.71,-20,1,-27,0.95,10005,100,84,32,85,1498,450.0,642,467,60,123.0,509,1,395,582,212,0,0,478,-3267,2104,423,-5.59,,,,,,,,,,,,
71444,1564323237300,2,2.13,1.38,0.59,2.0,1.78,0.64,0.65,0.84,-21,3,-29,0.91,10005,100,84,32,87,1498,460.0,632,459,60,123.0,509,1,396,620,212,0,0,480,-23623,2104,427,-5.59,44.680439,10.016744,42.01,177.1,0,0.0,-1,0.0,0.0,0,0.47,1.1907
71464,1564323237320,1,2.15,1.38,0.58,2.01,1.77,0.51,0.65,0.72,-21,1,-28,0.83,10005,100,84,32,89,1467,463.0,616,462,60,123.0,509,1,397,639,212,0,0,470,6193,3635,431,-5.59,,,,,,,,,,,,
71484,1564323237340,2,2.14,1.39,0.59,2.01,1.77,0.48,0.71,0.66,-20,1,-27,0.85,10005,100,84,32,90,1425,461.0,597,464,60,123.0,581,1,398,682,250,0,0,461,2211,1779,429,-5.59,,,,,,,,,,,,
71504,1564323237360,-0,2.15,1.38,0.58,2.01,1.77,0.49,0.74,0.61,-20,1,-28,0.89,7530,100,84,32,92,1384,457.0,574,466,60,123.0,581,1,411,556,250,0,0,453,14488,-3322,430,-5.59,,,,,,,,,,,,
71524,1564323237380,1,2.15,1.37,0.59,2.0,1.77,0.53,0.77,0.54,-19,1,-27,0.93,7329,100,85,32,92,1343,456.0,569,461,60,124.0,581,1,396,548,250,0,0,453,14488,3635,429,181.28,,,,,,,,,,,,
71544,1564323237400,-0,2.16,1.37,0.58,2.0,1.78,0.45,0.8,0.46,-18,1,-27,0.92,7295,100,84,32,93,1332,455.0,547,461,60,124.0,581,1,393,470,250,0,0,452,2524,31796,431,-5.59,44.680428,10.016743,42.38,177.1,0,0.0,-1,0.0,0.0,0,0.48,1.1924
71564,1564323237420,-0,2.16,1.37,0.59,2.01,1.78,0.37,0.8,0.39,-17,-1,-26,0.88,7512,100,84,32,92,1332,455.0,535,464,60,123.0,581,1,410,555,250,0,0,452,-26615,1779,432,-5.59,,,,,,,,,,,,
71584,1564323237440,3,2.16,1.38,0.59,2.03,1.78,0.34,0.81,0.31,-16,-1,-26,0.88,7911,100,84,32,92,1353,456.0,538,461,60,123.0,373,1,441,572,161,0,0,442,14488,-4082,433,-5.59,,,,,,,,,,,,
71604,1564323237460,1,2.17,1.38,0.59,2.03,1.79,0.4,0.79,0.28,-16,-1,-26,0.88,8442,100,84,32,89,1395,455.0,550,460,60,124.0,373,1,436,615,161,0,0,445,-26615,31796,430,-5.59,,,,,,,,,,,,
71624,1564323237480,3,2.16,1.38,0.6,2.03,1.78,0.48,0.87,0.3,-17,-1,-25,0.99,9110,100,84,32,87,1436,456.0,586,461,60,124.0,373,1,418,599,161,0,0,451,2524,13180,430,-5.59,,,,,,,,,,,,
71644,1564323237500,1,2.16,1.39,0.6,2.03,1.79,0.55,0.77,0.32,-17,-0,-25,0.94,9650,100,84,32,86,1478,456.0,616,467,60,123.0,373,1,407,591,161,0,0,452,14488,-3314,431,181.28,44.680416,10.016743,43.43,177.2,0,0.0,-1,0.0,0.0,0,0.48,1.1941
71664,1564323237520,2,2.17,1.38,0.6,2.03,1.8,0.52,0.75,0.44,-17,1,-26,0.92,10201,100,84,32,85,1498,454.0,645,465,60,123.0,373,1,409,582,161,0,0,453,-6387,-18341,433,-5.59,,,,,,,,,,,,
71684,1564323237540,2,2.17,1.39,0.61,2.04,1.79,0.6,0.65,0.52,-17,2,-25,0.89,10201,100,84,32,85,1498,457.0,648,459,60,123.0,502,1,409,582,218,0,0,470,-9160,248,438,-5.59,,,,,,,,,,,,
71704,1564323237560,0,2.19,1.39,0.61,2.04,1.79,0.72,0.49,0.62,-18,2,-25,0.87,10201,100,84,32,87,1477,467.0,635,458,60,123.0,502,1,410,620,218,0,0,487,243,-28648,442,-5.59,,,,,,,,,,,,
71724,1564323237580,2,2.19,1.38,0.61,2.04,1.8,0.62,0.47,0.59,-17,3,-26,0.78,10201,100,84,32,89,1432,470.0,614,459,60,123.0,502,1,412,658,218,0,0,481,8488,15649,451,-5.59,,,,,,,,,,,,
71744,1564323237600,-1,2.19,1.39,0.61,2.04,1.8,0.68,0.39,0.6,-16,3,-24,0.78,10201,100,84,32,90,1388,470.0,591,463,60,123.0,502,1,413,682,218,0,0,472,8488,14488,449,-5.59,44.680408,10.016743,43.21,177.2,0,0.0,-1,0.0,0.0,0,0.48,1.1957
71764,1564323237620,-1,2.18,1.39,0.61,2.03,1.8,0.78,0.38,0.63,-16,0,-23,0.87,7533,100,85,32,92,1345,465.0,573,453,60,125.0,502,1,411,556,218,0,0,466,30272,15649,446,-5.59,,,,,,,,,,,,
71784,1564323237640,3,2.18,1.39,0.61,2.03,1.8,0.87,0.38,0.62,-16,-1,-22,0.95,7378,100,85,32,92,1322,463.0,554,453,60,125.0,350,1,400,550,156,0,0,459,6193,16648,446,-5.59,,,,,,,,,,,,
71804,1564323237660,2,2.19,1.39,0.6,2.05,1.8,0.79,0.43,0.61,-16,-2,-22,0.9,7275,100,84,32,92,1322,464.0,542,463,60,123.0,350,1,392,545,156,0,0,460,16408,-18341,445,-5.59,,,,,,,,,,,,
71824,1564323237680,2,2.18,1.39,0.6,2.05,1.79,0.77,0.44,0.57,-15,-4,-21,0.89,7621,100,85,32,91,1333,462.0,537,459,60,124.0,350,1,419,560,156,0,0,446,12552,20625,445,-5.59,,,,,,,,,,,,
71844,1564323237700,0,2.18,1.39,0.6,2.05,1.8,0.85,0.49,0.47,-15,-6,-20,0.98,8074,100,84,32,90,1377,463.0,547,461,60,124.0,350,1,448,508,156,0,0,427,12552,-9166,444,-5.59,44.680393,10.016744,45.01,177.2,0,0.0,-1,0.0,0.0,0,0.48,1.1974
71864,1564323237720,1,2.19,1.4,0.61,2.07,1.81,0.9,0.43,0.57,-15,-5,-21,1.0,8769,100,84,32,89,1421,462.0,569,462,60,123.0,350,1,426,622,156,0,0,434,12552,20625,441,-5.59,,,,,,,,,,,,
71884,1564323237740,2,2.19,1.4,0.61,2.08,1.8,0.93,0.39,0.63,-16,-3,-20,1.01,9398,100,84,32,86,1464,464.0,604,461,60,123.0,466,1,418,588,207,0,0,459,16408,5600,442,-5.59,,,,,,,,,,,,
71904,1564323237760,1,2.2,1.4,0.62,2.07,1.81,0.87,0.49,0.57,-15,-3,-19,1.0,9973,100,84,32,85,1498,464.0,642,470,60,124.0,466,1,397,581,207,0,0,460,16408,2131,443,-5.59,,,,,,,,,,,,
71924,1564323237780,3,2.21,1.41,0.62,2.08,1.82,0.63,0.34,0.66,-15,1,-19,0.72,10498,100,84,32,84,1498,463.0,646,456,60,123.0,466,1,429,489,207,0,0,465,6193,-26615,443,-5.59,,,,,,,,,,,,
71944,1564323237800,2,2.22,1.4,0.61,2.09,1.81,0.56,0.15,0.76,-15,4,-20,0.58,10527,100,84,32,84,1488,465.0,648,467,60,123.0,466,1,430,564,207,0,0,496,10432,2524,453,-5.59,44.680386,10.016745,44.5,177.2,0,0.0,-1,0.0,0.0,0,0.48,1.1991
71964,1564323237820,2,2.22,1.4,0.61,2.08,1.81,0.41,0.27,0.79,-13,6,-19,0.49,10527,100,84,32,87,1446,476.0,643,456,60,123.0,466,1,433,601,207,0,0,511,-23367,12552,461,-5.59,,,,,,,,,,,,
71984,1564323237840,1,2.23,1.41,0.61,2.09,1.81,0.41,0.22,0.8,-12,4,-19,0.47,10527,100,84,32,88,1405,481.0,624,461,60,123.0,535,1,434,565,248,0,0,494,32033,16408,466,-5.59,,,,,,,,,,,,
72004,1564323237860,-0,2.23,1.4,0.61,2.09,1.81,0.45,0.23,0.79,-11,4,-18,0.51,10527,100,84,32,90,1363,480.0,608,462,60,123.0,535,1,437,676,248,0,0,483,8488,30272,465,-5.59,,,,,,,,,,,,
72024,1564323237880,0,2.22,1.39,0.61,2.07,1.8,0.51,0.21,0.82,-10,2,-18,0.55,7799,100,84,32,91,1327,476.0,586,462,60,124.0,535,1,433,567,248,0,0,473,-23367,2211,462,-5.59,,,,,,,,,,,,
72044,1564323237900,-1,2.23,1.39,0.6,2.06,1.8,0.56,0.13,0.82,-10,-1,-18,0.57,7767,100,85,32,91,1327,471.0,572,454,60,125.0,535,1,430,565,248,0,0,468,32033,-18108,460,-5.59,44.68037,10.016747,44.85,177.3,0,0.0,-1,0.0,0.0,0,0.48,1.2007
72064,1564323237920,2,2.21,1.4,0.6,2.07,1.81,0.47,0.11,0.77,-9,-3,-17,0.48,7894,100,84,32,91,1327,471.0,570,461,60,124.0,535,1,440,571,248,0,0,467,32033,-9160,460,-5.59,,,,,,,,,,,,
72084,1564323237940,2,2.22,1.39,0.6,2.07,1.8,0.6,0.07,0.81,-9,-5,-18,0.6,8522,100,84,32,89,1369,473.0,577,464,60,124.0,396,1,434,622,183,0,0,470,3576,-9160,463,-5.59,,,,,,,,,,,,
72104,1564323237960,1,2.22,1.4,0.61,2.07,1.8,0.7,0.05,0.75,-10,-5,-17,0.7,9159,100,84,32,87,1411,476.0,603,463,60,124.0,396,1,418,599,183,0,0,471,-23367,-18108,463,-5.59,,,,,,,,,,,,
72124,1564323237980,1,2.23,1.39,0.61,2.08,1.81,0.76,0.17,0.75,-10,-5,-16,0.78,9725,100,84,32,86,1453,476.0,639,469,60,123.0,396,1,407,594,183,0,0,476,10305,16408,465,-5.59,,,,,,,,,,,,
72144,1564323237994,1,2.23,1.4,0.61,2.08,1.81,0.63,0.33,0.71,-10,-4,-15,0.71,10245,99,84,32,84,1494,478.0,642,461,60,123.0,396,1,411,564,183,0,0,475,16648,-3210,464,-5.59,44.680363,10.016749,46.19,177.3,0,0.0,-1,0.0,0.0,0,0.48,1.2024
72164,1564323238014,2,2.23,1.41,0.62,2.09,1.81,0.61,0.5,0.65,-9,-0,-14,0.78,10744,85,84,32,82,1498,481.0,652,461,60,123.0,396,1,436,537,183,0,0,486,32033,-6441,466,-5.59,,,,,,,,,,,,
72184,1564323238034,2,2.24,1.41,0.62,2.08,1.83,0.54,0.46,0.78,-9,0,-15,0.71,10744,69,84,32,78,1498,487.0,656,463,60,123.0,452,1,437,505,212,0,0,519,505,6274,476,-5.59,,,,,,,,,,,,
72204,1564323238054,2,2.25,1.4,0.62,2.09,1.82,0.47,0.51,0.81,-8,4,-13,0.7,10744,48,84,32,72,1446,492.0,644,458,60,123.0,452,1,442,471,212,0,0,540,998,-8962,484,-5.59,,,,,,,,,,,,
72224,1564323238074,2,2.25,1.4,0.62,2.09,1.81,0.43,0.5,0.89,-7,5,-13,0.66,10744,30,84,32,65,1393,498.0,628,464,60,123.0,452,1,448,424,212,0,0,507,2524,248,490,-5.59,,,,,,,,,,,,
72244,1564323238100,2,2.26,1.4,0.62,2.09,1.82,0.58,0.48,1.0,-6,1,-14,0.76,10744,19,84,32,57,1340,494.0,622,461,60,123.0,452,1,421,365,212,0,0,498,998,-1562,488,-5.59,44.680347,10.016753,45.99,177.3,0,0.0,-1,0.0,0.0,0,0.48,1.2041
72264,1564323238120,-0,2.26,1.39,0.62,2.08,1.82,0.61,0.41,0.92,-6,1,-12,0.74,8278,16,84,32,51,1287,489.0,606,455,60,125.0,452,1,381,259,212,0,0,490,-6656,248,484,-5.59,,,,,,,,,,,,
72284,1564323238140,2,2.26,1.4,0.62,2.08,1.82,0.68,0.42,0.98,-6,-3,-12,0.8,8363,16,85,32,46,1275,490.0,601,460,60,124.0,155,1,363,226,75,0,0,490,-6656,8488,481,181.28,,,,,,,,,,,,
72304,1564323238160,1,2.27,1.4,0.61,2.08,1.82,0.74,0.34,0.91,-5,-5,-12,0.81,8465,15,84,32,42,1273,488.0,612,461,60,125.0,155,1,338,219,75,0,0,486,1,10305,483,-5.59,,,,,,,,,,,,
72324,1564323238180,2,2.26,1.4,0.61,2.08,1.82,0.6,0.29,0.84,-5,-4,-11,0.67,8408,15,85,32,40,1310,488.0,615,460,60,123.0,155,1,324,213,75,0,0,488,1,-1818,486,-5.59,,,,,,,,,,,,
72344,1564323238200,0,2.25,1.4,0.62,2.08,1.81,0.72,0.32,0.82,-5,-4,-10,0.79,8278,15,84,32,37,1362,491.0,616,463,60,124.0,155,1,309,201,75,0,0,480,248,-23367,488,-5.59,44.680336,10.016757,48.19,177.2,0,0.0,-1,0.0,0.0,0,0.49,1.2057
72364,1564323238220,1,2.26,1.4,0.62,2.07,1.82,0.67,0.36,0.74,-5,-3,-10,0.76,8281,15,85,32,36,1414,491.0,620,460,60,123.0,155,1,306,197,75,0,0,469,248,-17956,485,-5.59,,,,,,,,,,,,
72384,1564323238240,1,2.26,1.4,0.62,2.08,1.83,0.79,0.32,0.73,-5,-3,-9,0.85,8340,15,85,32,35,1467,489.0,620,459,60,124.0,123,1,304,194,60,0,0,466,-1562,243,481,-5.59,,,,,,,,,,,,
72404,1564323238260,-1,2.26,1.4,0.62,2.09,1.81,0.78,0.32,0.59,-5,-2,-9,0.84,8445,15,85,32,35,1492,487.0,633,458,60,125.0,123,1,306,196,60,0,0,471,-1562,10432,478,-5.59,,,,,,,,,,,,
72424,1564323238280,2,2.26,1.41,0.62,2.09,1.82,0.77,0.26,0.62,-5,-2,-10,0.81,8426,15,85,32,34,1494,483.0,617,461,60,124.0,123,1,303,194,60,0,0,468,3580,16408,477,-5.59,,,,,,,,,,,,
72444,1564323238299,1,2.27,1.41,0.62,2.09,1.82,0.9,0.3,0.55,-4,-1,-8,0.95,8499,15,85,32,34,1435,479.0,616,461,60,125.0,123,1,304,194,60,0,0,462,10305,2211,474,-5.59,44.680328,10.01676,47.95,177.2,0,0.0,-1,0.0,0.0,0,0.49,1.2074
72464,1564323238319,0,2.28,1.41,0.62,2.1,1.83,0.88,0.21,0.54,-4,-1,-9,0.9,8538,15,85,32,34,1347,478.0,614,461,60,124.0,123,1,305,195,60,0,0,452,-17956,-18108,472,-5.59,,,,,,,,,,,,
72484,1564323238339,2,2.28,1.4,0.62,2.1,1.82,0.86,0.17,0.52,-3,-2,-9,0.88,8561,15,85,32,34,1259,474.0,613,459,60,124.0,133,1,305,191,63,0,0,455,-9203,-18108,468,181.28,,,,,,,,,,,,
72504,1564323238359,1,2.32,1.4,0.63,2.1,1.84,0.92,0.22,0.53,-3,-2,-8,0.95,8589,15,85,32,33,1170,470.0,617,460,60,124.0,133,1,302,191,63,0,0,450,8488,6193,465,-5.59,,,,,,,,,,,,
72524,1564323238379,0,2.32,1.41,0.63,2.09,1.84,0.95,0.13,0.43,-3,-1,-9,0.96,8561,15,85,32,33,1084,468.0,620,460,60,125.0,133,1,302,191,63,0,0,453,-3210,-6387,462,-5.59,,,,,,,,,,,,
72544,1564323238395,2,2.32,1.41,0.63,2.1,1.83,0.89,0.11,0.45,-2,-0,-7,0.9,8518,15,84,32,33,1002,462.0,625,460,60,124.0,133,1,302,191,63,0,0,453,12552,-26615,462,-5.59,44.680313,10.016764,46.73,177.2,0,0.0,-1,0.0,0.0,0,0.49,1.2091
72564,1564323238415,-0,2.35,1.4,0.63,2.1,1.85,0.96,0.16,0.5,-1,-1,-6,0.97,8438,15,85,32,33,959,461.0,622,462,60,124.0,133,1,300,188,63,0,0,449,-18108,2524,461,-5.59,,,,,,,,,,,,
72584,1564323238435,-1,2.34,1.41,0.63,2.11,1.85,0.91,0.06,0.47,-0,-1,-6,0.92,8400,15,85,32,33,966,462.0,626,461,60,125.0,130,1,300,188,60,0,0,450,14488,-26615,462,-5.59,,,,,,,,,,,,
72604,1564323238455,0,2.37,1.41,0.64,2.1,1.83,0.86,0.02,0.51,2,-1,-5,0.86,8374,15,85,32,33,980,460.0,626,462,60,124.0,130,1,299,186,60,0,0,446,-8985,-6387,460,-5.59,,,,,,,,,,,,
72624,1564323238475,-2,2.38,1.41,0.64,2.09,1.85,0.95,-0.04,0.48,2,-1,-5,0.95,8311,15,85,32,33,999,457.0,620,459,60,125.0,130,1,298,184,60,0,0,446,3571,2524,457,-5.59,,,,,,,,,,,,
72644,1564323238499,2,2.4,1.4,0.64,2.1,1.85,0.91,-0.07,0.48,3,-1,-3,0.92,8267,16,85,32,34,1016,457.0,618,459,60,124.0,130,1,300,187,60,0,0,440,16648,21432,457,-5.59,44.680306,10.016768,45.42,177.2,0,0.0,-1,0.0,0.0,0,0.49,1.2107
72664,1564323238519,0,2.4,1.41,0.64,2.1,1.85,0.99,-0.05,0.46,4,-2,-1,0.99,8252,20,85,32,34,1028,454.0,616,460,60,125.0,130,1,300,187,60,0,0,436,2131,2131,454,-5.59,,,,,,,,,,,,
72684,1564323238539,2,2.43,1.41,0.64,2.11,1.85,0.9,-0.1,0.39,6,-2,-1,0.91,8267,21,85,32,35,1041,454.0,615,461,60,124.0,132,1,303,193,60,0,0,433,26704,-18341,455,-5.59,,,,,,,,,,,,
72704,1564323238559,0,2.44,1.41,0.64,2.1,1.84,0.94,-0.18,0.42,8,-2,1,0.95,8333,22,85,32,35,1053,454.0,614,461,60,125.0,132,1,304,193,60,0,0,428,5600,2131,454,-5.59,,,,,,,,,,,,
72724,1564323238579,2,2.47,1.41,0.64,2.11,1.85,0.79,-0.24,0.35,10,1,3,0.82,8348,22,85,32,35,1062,454.0,613,462,60,124.0,132,1,304,192,60,0,0,421,-7939,14488,457,-5.59,,,,,,,,,,,,
72744,1564323238599,-0,2.48,1.4,0.64,2.1,1.85,0.84,-0.29,0.39,11,1,4,0.89,8366,22,85,32,35,1063,456.0,618,462,60,125.0,132,1,305,194,60,0,0,420,1779,-3267,456,-5.59,44.68029,10.016771,44.72,177.2,0,0.0,-1,0.0,0.0,0,0.49,1.2124
72764,1564323238619,-0,2.49,1.41,0.65,2.11,1.85,0.82,-0.41,0.36,13,1,8,0.91,8393,22,85,32,35,1060,456.0,616,463,60,125.0,132,1,305,195,60,0,0,423,1779,17628,459,-5.59,,,,,,,,,,,,
72784,1564323238639,2,2.49,1.41,0.65,2.1,1.86,0.81,-0.4,0.41,14,0,9,0.91,8438,22,85,32,35,1048,457.0,620,461,60,125.0,135,1,306,196,62,0,0,425,3635,17628,457,-5.59,,,,,,,,,,,,
72804,1564323238659,-1,2.5,1.41,0.65,2.11,1.84,0.89,-0.51,0.43,15,0,10,1.03,8415,23,85,32,35,1037,457.0,625,463,60,125.0,135,1,306,196,62,0,0,427,13552,2524,456,-5.59,,,,,,,,,,,,
72824,1564323238679,3,2.51,1.41,0.65,2.1,1.85,0.75,-0.57,0.38,17,3,13,0.95,8442,23,85,32,35,1025,456.0,621,463,60,124.0,135,1,306,196,62,0,0,423,-4082,-9160,456,-5.59,,,,,,,,,,,,
72844,1564323238701,2,2.51,1.41,0.65,2.1,1.86,0.82,-0.56,0.45,18,1,13,0.99,8426,23,85,32,35,1008,456.0,621,462,60,125.0,135,1,306,196,62,0,0,418,3826,2524,456,-5.59,44.680283,10.016774,43.72,177.2,0,0.0,-1,0.0,0.0,0,0.49,1.2141
72864,1564323238721,-0,2.51,1.41,0.65,2.1,1.86,0.85,-0.65,0.41,18,0,17,1.07,8476,23,85,32,35,968,455.0,621,462,60,125.0,135,1,307,197,62,0,0,418,-21792,17628,455,-5.59,,,,,,,,,,,,
72884,1564323238741,1,2.51,1.41,0.65,2.1,1.86,0.83,-0.64,0.42,19,-1,18,1.04,8370,23,85,32,35,929,453.0,621,458,60,125.0,136,1,304,194,62,0,0,422,-8165,2524,454,414.87,,,,,,,,,,,,
72904,1564323238761,1,2.51,1.41,0.65,2.1,1.85,0.92,-0.71,0.46,20,-1,18,1.16,8374,31,85,32,36,901,453.0,620,464,60,125.0,136,1,308,199,62,0,0,425,-4082,10305,453,-5.59,,,,,,,,,,,,
72924,1564323238781,-2,2.51,1.41,0.65,2.1,1.85,0.83,-0.72,0.37,21,2,21,1.09,8393,36,85,32,39,873,454.0,612,460,60,126.0,136,1,317,207,62,0,0,418,-4082,-26615,454,-5.59,,,,,,,,,,,,
72944,1564323238801,1,2.5,1.41,0.65,2.11,1.85,0.89,-0.69,0.46,22,2,21,1.12,8252,45,85,32,44,845,457.0,611,463,60,125.0,136,1,349,218,62,0,0,426,3826,-6387,457,-5.59,44.680271,10.016776,43.35,177.2,0,0.0,-1,0.0,0.0,0,0.49,1.2157
72964,1564323238821,2,2.49,1.41,0.65,2.11,1.86,0.8,-0.76,0.44,22,3,24,1.1,8130,55,85,32,50,816,458.0,605,458,60,124.0,136,1,378,243,62,0,0,422,-21792,-8985,456,-5.59,,,,,,,,,,,,
72984,1564323238841,0,2.5,1.41,0.65,2.11,1.86,0.92,-0.74,0.52,22,2,25,1.18,8173,62,85,32,57,814,455.0,600,460,60,125.0,177,1,415,283,81,0,0,422,-8165,-6387,455,-5.59,,,,,,,,,,,,
73004,1564323238861,3,2.5,1.41,0.66,2.1,1.87,0.84,-0.73,0.46,23,5,24,1.11,8238,66,85,32,63,812,455.0,596,462,60,123.0,177,1,447,334,81,0,0,427,-3414,-6387,454,-5.59,,,,,,,,,,,,
73024,1564323238881,2,2.49,1.41,0.65,2.1,1.85,0.96,-0.77,0.53,22,5,27,1.23,8267,66,85,32,68,842,455.0,605,461,60,125.0,177,1,441,373,81,0,0,419,-8165,3571,455,-5.59,,,,,,,,,,,,
73044,1564323238901,3,2.48,1.41,0.65,2.11,1.86,0.93,-0.74,0.54,23,4,27,1.18,8267,67,84,32,71,871,451.0,604,465,60,123.0,177,1,438,401,81,0,0,421,-8165,-3267,450,-5.59,44.68026,10.016777,42.86,177.3,0,0.0,-1,0.0,0.0,0,0.49,1.2174
73064,1564323238921,3,2.48,1.41,0.66,2.09,1.86,0.88,-0.75,0.48,23,3,26,1.15,7911,67,85,32,74,901,447.0,581,465,60,124.0,177,1,435,414,81,0,0,415,-21944,8488,447,-5.59,,,,,,,,,,,,
73084,1564323238941,-1,2.47,1.41,0.66,2.1,1.85,0.98,-0.77,0.46,23,1,29,1.25,7754,67,85,32,77,932,445.0,446,458,60,125.0,289,1,423,454,129,0,0,417,18584,8488,445,-5.59,,,,,,,,,,,,
73104,1564323238961,-0,2.46,1.41,0.65,2.1,1.85,1.08,-0.71,0.54,22,-1,27,1.29,7754,67,85,32,78,1031,446.0,459,457,60,126.0,289,1,423,462,129,0,0,410,18584,-18341,446,181.28,,,,,,,,,,,,
73124,1564323238981,-1,2.45,1.4,0.65,2.1,1.85,1.09,-0.72,0.51,22,-0,27,1.3,7361,67,85,32,80,1138,445.0,407,462,60,125.0,289,1,400,476,129,0,0,414,18584,23400,445,-5.59,,,,,,,,,,,,
73144,1564323238993,-2,2.45,1.41,0.65,2.09,1.85,1.01,-0.65,0.49,21,-0,28,1.2,7347,67,85,32,81,1220,443.0,417,456,60,126.0,289,1,399,490,129,0,0,414,18584,20625,443,-5.59,44.680248,10.016777,42.98,177.3,0,0.0,-1,0.0,0.0,0,0.5,1.2191
73164,1564323239013,-1,2.45,1.4,0.66,2.09,1.84,0.93,-0.65,0.42,21,1,28,1.14,7347,67,85,32,82,1295,444.0,422,458,60,126.0,289,1,399,490,129,0,0,411,-26615,5600,444,-5.59,,,,,,,,,,,,
73184,1564323239033,-1,2.45,1.4,0.65,2.1,1.85,0.93,-0.72,0.4,21,-0,29,1.18,7347,67,85,32,83,1374,439.0,451,457,60,126.0,312,1,398,498,138,0,0,391,2524,-4082,437,-5.59,,,,,,,,,,,,
73204,1564323239053,1,2.45,1.41,0.66,2.09,1.84,1.02,-0.67,0.42,20,-3,28,1.22,7142,67,85,32,83,1452,433.0,473,458,60,124.0,312,1,386,496,138,0,0,369,10392,2524,433,-5.59,,,,,,,,,,,,
73224,1564323239073,-1,2.46,1.41,0.65,2.09,1.86,0.98,-0.61,0.4,20,-2,27,1.16,7203,67,85,32,83,1482,431.0,489,460,60,125.0,312,1,389,497,138,0,0,356,-26615,-9166,431,-5.59,,,,,,,,,,,,
73244,1564323239101,2,2.44,1.41,0.65,2.09,1.86,0.94,-0.53,0.33,20,-1,28,1.08,7284,67,85,32,83,1486,429.0,500,460,60,124.0,312,1,394,497,138,0,0,354,-9211,-21944,429,-5.59,44.680241,10.016776,42.05,177.3,0,0.0,-1,0.0,0.0,0,0.5,1.2207
73264,1564323239121,1,2.44,1.41,0.66,2.08,1.85,0.85,-0.59,0.31,21,-1,28,1.03,7491,67,85,32,83,1492,426.0,510,462,60,123.0,312,1,406,499,138,0,0,366,10541,-8165,426,-5.59,,,,,,,,,,,,
73284,1564323239141,-2,2.44,1.41,0.65,2.08,1.85,0.74,-0.58,0.31,21,1,28,0.94,7687,67,85,32,81,1496,426.0,528,460,60,126.0,333,1,419,493,142,0,0,384,28696,-3414,426,-5.59,,,,,,,,,,,,
73304,1564323239161,2,2.42,1.4,0.66,2.09,1.85,0.68,-0.59,0.29,20,3,26,0.9,7738,67,85,32,80,1498,422.0,552,459,60,125.0,333,1,422,485,142,0,0,393,6384,-3414,422,-5.59,,,,,,,,,,,,
73324,1564323239181,0,2.39,1.41,0.66,2.09,1.86,0.7,-0.59,0.31,19,3,27,0.91,7684,67,85,32,80,1498,421.0,550,467,60,124.0,333,1,419,477,142,0,0,394,28696,18584,421,-5.59,,,,,,,,,,,,
73344,1564323239201,1,2.37,1.41,0.66,2.08,1.85,0.8,-0.53,0.32,18,3,26,0.96,7760,67,85,32,80,1498,420.0,554,462,60,124.0,333,1,423,477,142,0,0,397,28696,-3414,420,-5.59,44.680229,10.016774,41.28,177.4,0,0.0,-1,0.0,0.0,0,0.5,1.2224
73364,1564323239221,2,2.34,1.4,0.66,2.09,1.84,0.82,-0.52,0.33,17,2,26,0.97,8092,67,85,32,79,1498,417.0,562,461,60,123.0,333,1,436,473,142,0,0,397,6512,18584,417,-5.59,,,,,,,,,,,,
73384,1564323239241,1,2.31,1.4,0.65,2.08,1.85,0.87,-0.53,0.35,16,2,24,1.02,8457,67,85,32,77,1498,415.0,580,460,60,124.0,341,1,428,468,142,0,0,399,11545,11560,415,-5.59,,,,,,,,,,,,
73404,1564323239261,-1,2.28,1.4,0.65,2.09,1.84,0.79,-0.48,0.29,14,5,24,0.92,8790,67,85,32,74,1498,413.0,600,458,60,124.0,341,1,420,436,142,0,0,400,11545,9517,410,-5.59,,,,,,,,,,,,
73424,1564323239281,1,2.24,1.39,0.65,2.08,1.84,0.63,-0.36,0.33,12,5,23,0.73,8988,67,85,32,72,1498,409.0,625,460,60,124.0,341,1,414,417,142,0,0,410,-8151,-3414,409,-5.59,,,,,,,,,,,,
73444,1564323239300,0,2.19,1.39,0.64,2.05,1.84,0.49,-0.28,0.4,10,7,22,0.56,8988,67,85,32,71,1498,410.0,624,466,60,123.0,341,1,414,407,142,0,0,437,9517,-768,409,-5.59,44.680218,10.016771,40.6,177.4,0,0.0,-1,0.0,0.0,0,0.5,1.2241
73464,1564323239320,1,2.17,1.38,0.63,2.04,1.81,0.49,-0.15,0.47,7,9,20,0.51,8988,67,85,32,73,1498,419.0,602,458,60,123.0,341,1,414,427,142,0,0,437,7154,-7939,411,-5.59,,,,,,,,,,,,
73484,1564323239340,1,2.13,1.37,0.62,2.03,1.81,0.54,-0.18,0.55,4,8,16,0.57,8988,67,85,32,77,1498,425.0,575,466,60,123.0,369,1,414,470,152,0,0,429,13552,13552,410,-5.59,,,,,,,,,,,,
73504,1564323239360,1,2.09,1.36,0.61,2.01,1.8,0.67,-0.06,0.5,2,5,13,0.67,377,67,85,32,81,1494,428.0,547,462,60,123.0,369,1,93,185,152,0,0,426,13180,1504,410,-5.59,,,,,,,,,,,,
73524,1564323239380,-1,2.07,1.36,0.6,2.0,1.78,0.61,-0.02,0.52,-0,5,10,0.61,6808,67,85,32,83,1484,424.0,520,466,60,125.0,369,1,370,491,152,0,0,421,-4082,-8151,405,-5.59,,,,,,,,,,,,
73544,1564323239400,-0,2.05,1.35,0.59,1.99,1.76,0.73,0.1,0.49,-3,2,7,0.74,6646,67,85,32,83,1477,423.0,515,455,60,125.0,369,1,365,487,152,0,0,425,-3414,-32702,401,-5.59,44.68021,10.016768,40.44,177.5,0,0.0,-1,0.0,0.0,0,0.5,1.2257
73564,1564323239420,1,2.05,1.35,0.58,1.97,1.77,0.67,0.07,0.45,-5,0,4,0.68,6533,67,85,32,85,1467,426.0,508,462,60,124.0,369,1,357,493,152,0,0,421,13552,-8151,397,-5.59,,,,,,,,,,,,
73584,1564323239440,-2,2.05,1.36,0.58,1.97,1.76,0.66,0.15,0.33,-8,0,1,0.68,6658,67,85,32,85,1460,427.0,503,462,60,123.0,306,1,363,502,122,0,0,407,31796,742,396,-5.59,,,,,,,,,,,,
73604,1564323239460,2,2.05,1.36,0.58,1.97,1.77,0.68,0.23,0.31,-9,-1,-3,0.72,6863,67,85,32,85,1460,424.0,510,459,60,124.0,306,1,371,502,122,0,0,397,-4082,-29696,393,-5.59,,,,,,,,,,,,
73624,1564323239480,1,2.06,1.37,0.58,1.97,1.77,0.73,0.31,0.36,-12,-2,-7,0.79,7225,67,85,32,86,1462,426.0,519,461,60,123.0,306,1,391,517,122,0,0,415,13552,24320,390,-5.59,,,,,,,,,,,,
73644,1564323239500,1,2.05,1.37,0.58,1.97,1.77,0.67,0.44,0.32,-14,1,-10,0.8,7628,68,85,32,85,1472,431.0,536,457,60,123.0,306,1,416,517,122,0,0,423,1779,23040,390,-5.59,44.680199,10.016766,40.68,177.5,0,0.0,-1,0.0,0.0,0,0.5,1.2274
73664,1564323239520,1,2.04,1.37,0.58,1.98,1.77,0.81,0.46,0.34,-17,1,-12,0.93,8141,68,85,32,83,1480,432.0,559,460,60,125.0,306,1,435,519,122,0,0,424,-3322,-14707,389,-5.59,,,,,,,,,,,,
73684,1564323239540,1,2.06,1.37,0.59,1.98,1.77,0.76,0.45,0.41,-20,-0,-17,0.89,8778,68,85,32,78,1489,430.0,592,457,60,125.0,431,1,420,497,167,0,0,425,3635,19125,388,-5.59,,,,,,,,,,,,
73704,1564323239560,2,2.05,1.38,0.59,2.0,1.77,0.81,0.42,0.56,-21,-1,-19,0.92,9213,68,85,32,74,1498,426.0,619,455,60,123.0,431,1,414,436,167,0,0,427,13552,10392,386,-5.59,,,,,,,,,,,,
73724,1564323239580,1,2.05,1.38,0.59,1.99,1.77,0.92,0.24,0.66,-23,0,-23,0.95,9245,68,85,32,72,1498,429.0,633,465,60,123.0,431,1,414,417,167,0,0,441,3635,2524,390,-5.59,,,,,,,,,,,,
73744,1564323239600,0,2.07,1.37,0.6,1.99,1.76,0.8,0.34,0.62,-23,4,-24,0.87,9245,68,85,32,73,1491,434.0,618,463,60,123.0,431,1,414,427,167,0,0,454,5600,-9212,391,-5.59,44.680191,10.016764,39.32,177.5,0,0.0,-1,0.0,0.0,0,0.5,1.2291
73764,1564323239620,1,2.08,1.37,0.59,1.98,1.77,0.82,0.38,0.61,-24,4,-27,0.91,7858,68,85,32,76,1427,438.0,600,460,60,125.0,431,1,429,446,167,0,0,442,21580,7154,393,-5.59,,,,,,,,,,,,
73784,1564323239640,-2,2.08,1.36,0.59,1.99,1.75,0.92,0.33,0.65,-25,2,-28,0.98,7512,68,85,32,79,1363,437.0,576,458,60,124.0,339,1,410,469,134,0,0,432,19477,11560,396,-5.59,,,,,,,,,,,,
73804,1564323239660,-2,2.09,1.36,0.59,1.98,1.75,0.99,0.3,0.68,-26,-0,-28,1.04,7437,68,85,32,81,1299,432.0,557,458,60,125.0,339,1,404,483,134,0,0,428,1779,-3968,396,-5.59,,,,,,,,,,,,
73824,1564323239680,-2,2.09,1.37,0.58,1.98,1.76,1.08,0.28,0.67,-26,-4,-29,1.11,7591,68,85,32,81,1237,428.0,555,457,60,125.0,339,1,413,484,134,0,0,425,13180,-1818,396,-5.59,,,,,,,,,,,,
73844,1564323239700,2,2.1,1.37,0.59,1.98,1.76,1.09,0.33,0.71,-25,-4,-30,1.14,7894,68,85,32,81,1237,428.0,560,460,60,124.0,339,1,431,486,134,0,0,427,13180,11545,396,-5.59,44.68018,10.016764,39.66,177.6,0,0.0,-1,0.0,0.0,0,0.5,1.2307
73864,1564323239720,-0,2.08,1.37,0.59,1.99,1.76,0.89,0.36,0.65,-25,-3,-30,0.96,8333,68,85,32,80,1237,430.0,577,460,60,123.0,339,1,431,500,134,0,0,428,-3314,-26615,396,-5.59,,,,,,,,,,,,
73884,1564323239740,3,2.09,1.37,0.59,2.0,1.77,0.85,0.52,0.68,-24,-2,-29,1.0,8604,68,85,32,76,1291,431.0,602,460,60,123.0,391,1,424,456,156,0,0,437,-768,16648,401,-5.59,,,,,,,,,,,,
73904,1564323239760,2,2.05,1.37,0.59,1.99,1.76,0.95,0.44,0.74,-25,-2,-28,1.05,8778,68,85,32,74,1355,436.0,622,459,60,124.0,391,1,420,436,156,0,0,445,5600,-10483,404,-5.59,,,,,,,,,,,,
73924,1564323239780,2,2.03,1.37,0.59,1.99,1.77,1.01,0.45,0.77,-26,-2,-29,1.1,8836,69,85,32,73,1414,442.0,622,461,60,124.0,391,1,419,427,156,0,0,450,-18341,8488,406,-5.59,,,,,,,,,,,,
73944,1564323239800,2,2.0,1.37,0.6,1.98,1.77,0.91,0.51,0.73,-27,0,-29,1.04,8836,69,85,32,73,1472,446.0,620,465,60,124.0,391,1,419,427,156,0,0,454,16648,19477,409,-5.59,44.680172,10.016764,39.68,177.6,0,0.0,-1,0.0,0.0,0,0.5,1.2324
73964,1564323239820,0,1.97,1.36,0.59,1.98,1.76,0.99,0.54,0.69,-28,-1,-30,1.13,8836,69,85,32,76,1483,449.0,597,461,60,123.0,391,1,418,456,156,0,0,454,15649,-3856,412,-5.59,,,,,,,,,,,,
73984,1564323239840,-1,1.94,1.36,0.59,1.99,1.75,1.02,0.57,0.63,-29,-2,-30,1.17,7309,69,85,32,80,1478,446.0,566,456,60,124.0,403,1,397,476,166,0,0,444,16648,7154,411,-5.59,,,,,,,,,,,,
74004,1564323239860,-0,1.92,1.36,0.59,1.98,1.76,0.95,0.7,0.56,-30,-2,-31,1.18,7080,69,85,32,83,1450,443.0,545,458,60,125.0,403,1,382,495,166,0,0,445,-18341,9517,408,-5.59,,,,,,,,,,,,
74024,1564323239880,0,1.91,1.35,0.59,1.98,1.76,0.91,0.83,0.47,-30,-1,-32,1.23,6985,69,85,32,85,1415,443.0,526,460,60,123.0,403,1,376,499,166,0,0,442,21432,2524,404,414.87,,,,,,,,,,,,
74044,1564323239900,0,1.91,1.36,0.59,1.99,1.76,0.93,0.75,0.49,-32,-2,-33,1.2,7056,69,85,32,84,1383,448.0,524,462,60,125.0,403,1,381,426,166,0,0,447,8488,28696,403,-5.59,44.680157,10.016764,40.79,177.6,0,0.0,-1,0.0,0.0,0,0.51,1.2341
74064,1564323239920,-1,1.92,1.36,0.6,1.99,1.76,1.04,0.77,0.51,-34,-5,-35,1.3,7329,69,85,32,85,1352,451.0,523,460,60,124.0,403,1,397,512,166,0,0,446,3571,6512,400,-5.59,,,,,,,,,,,,
74084,1564323239940,1,1.92,1.36,0.6,1.99,1.77,1.03,0.88,0.48,-35,-8,-36,1.36,7858,69,85,32,84,1348,451.0,544,459,60,124.0,368,1,429,512,147,0,0,443,3571,-6656,398,-5.59,,,,,,,,,,,,
74104,1564323239960,1,1.91,1.37,0.61,2.0,1.76,1.0,0.8,0.47,-36,-6,-38,1.28,8518,70,85,32,82,1354,450.0,567,460,60,124.0,368,1,427,517,147,0,0,443,3571,1,397,-5.59,,,,,,,,,,,,
74124,1564323239980,-1,1.92,1.37,0.61,2.0,1.77,1.0,0.74,0.42,-37,-4,-40,1.24,9001,70,85,32,77,1374,452.0,606,459,60,123.0,368,1,413,470,147,0,0,443,-6387,770,396,-5.59,,,,,,,,,,,,
74144,1564323239992,2,1.91,1.37,0.61,2.01,1.78,1.1,0.6,0.49,-38,1,-42,1.26,9532,70,85,32,74,1409,452.0,637,457,60,124.0,368,1,415,439,147,0,0,443,3571,-18948,394,-5.59,44.680149,10.016767,41.18,177.7,0,0.0,-1,0.0,0.0,0,0.51,1.2357
74164,1564323240012,0,1.91,1.37,0.62,2.01,1.78,0.94,0.7,0.42,-39,1,-45,1.17,9645,70,85,32,72,1418,452.0,642,461,60,123.0,368,1,410,430,147,0,0,464,-6387,1780,393,-5.59,,,,,,,,,,,,
74184,1564323240032,0,1.9,1.37,0.62,2.01,1.77,0.77,0.83,0.45,-39,2,-45,1.13,9645,70,85,32,72,1414,454.0,641,463,60,123.0,399,1,410,430,157,0,0,467,-9160,1010,391,-5.59,,,,,,,,,,,,
74204,1564323240052,2,1.88,1.37,0.62,2.0,1.79,0.68,0.95,0.45,-39,1,-46,1.17,8831,70,85,32,74,1392,454.0,631,462,60,125.0,399,1,419,436,157,0,0,445,2524,-9072,390,-5.59,,,,,,,,,,,,
74224,1564323240072,1,1.87,1.37,0.61,2.0,1.78,0.81,1.06,0.37,-40,-2,-46,1.33,8604,70,85,32,76,1352,446.0,623,464,60,124.0,399,1,424,456,157,0,0,446,16648,20625,391,-5.59,,,,,,,,,,,,
74244,1564323240100,2,1.86,1.37,0.62,2.0,1.78,0.8,0.96,0.42,-40,-2,-47,1.25,8499,70,85,32,77,1319,443.0,615,462,60,122.0,399,1,427,469,157,0,0,445,-18341,-3856,391,-5.59,44.680138,10.01677,40.25,177.7,0,0.0,-1,0.0,0.0,0,0.51,1.2374
74264,1564323240120,2,1.85,1.37,0.62,1.99,1.79,0.7,1.06,0.42,-39,-2,-47,1.27,8499,70,85,32,77,1293,442.0,612,460,60,123.0,399,1,427,455,157,0,0,443,23400,-1923,391,-5.59,,,,,,,,,,,,
74284,1564323240140,2,1.85,1.37,0.62,2.01,1.78,0.73,1.01,0.46,-39,-2,-48,1.24,637,70,85,32,79,1284,442.0,600,467,60,124.0,387,1,96,260,151,0,0,439,23400,3580,392,-5.59,,,,,,,,,,,,
74304,1564323240160,-0,1.86,1.37,0.62,2.01,1.78,0.86,0.98,0.48,-40,-2,-48,1.3,7825,70,85,32,80,1298,445.0,587,459,60,123.0,387,1,427,478,151,0,0,441,2131,2212,391,-5.59,,,,,,,,,,,,
74324,1564323240180,-1,1.88,1.37,0.62,2.01,1.78,0.86,1.03,0.49,-40,-3,-50,1.34,7786,70,85,32,82,1326,445.0,578,461,60,123.0,387,1,425,493,151,0,0,437,21432,3576,390,-5.59,,,,,,,,,,,,
74344,1564323240200,0,1.86,1.37,0.62,2.01,1.79,0.78,1.0,0.45,-40,-2,-51,1.27,8370,70,85,32,80,1366,440.0,582,461,60,124.0,387,1,430,503,151,0,0,440,20625,30272,388,-5.59,44.68013,10.016776,40.82,177.8,0,0.0,-1,0.0,0.0,0,0.51,1.2391
74364,1564323240220,2,1.87,1.36,0.63,2.02,1.78,0.64,1.1,0.37,-40,-0,-48,1.28,8827,71,85,32,77,1402,445.0,616,460,60,123.0,387,1,418,470,151,0,0,440,2131,-9160,385,414.87,,,,,,,,,,,,
74384,1564323240240,-1,1.87,1.37,0.63,2.0,1.79,0.59,1.19,0.4,-39,-1,-49,1.33,9231,75,85,32,76,1428,443.0,632,464,60,123.0,401,1,414,456,155,0,0,438,-18341,2524,385,181.28,,,,,,,,,,,,
74404,1564323240260,1,1.87,1.37,0.63,2.02,1.79,0.73,1.02,0.56,-40,-1,-51,1.26,9556,81,84,32,77,1453,443.0,647,456,60,124.0,401,1,414,472,155,0,0,443,-18341,2524,385,-5.59,,,,,,,,,,,,
74424,1564323240280,0,1.88,1.37,0.63,2.01,1.79,0.75,1.06,0.54,-41,0,-53,1.3,9635,85,84,32,79,1479,441.0,646,471,60,122.0,401,1,411,502,155,0,0,456,-18341,-4054,384,-5.59,,,,,,,,,,,,
74444,1564323240299,2,1.9,1.37,0.63,2.03,1.79,0.62,1.16,0.49,-41,1,-53,1.31,9635,88,84,32,83,1498,449.0,637,456,60,123.0,401,1,412,553,155,0,0,471,15649,6274,384,181.28,44.680122,10.016784,40.3,177.8,0,0.0,-1,0.0,0.0,0,0.51,1.2407
74464,1564323240319,-0,1.91,1.37,0.64,2.03,1.79,0.68,1.14,0.5,-42,-1,-55,1.33,538,92,84,32,86,1498,451.0,623,465,60,124.0,401,1,90,269,155,0,0,449,8488,-32248,384,181.28,,,,,,,,,,,,
74484,1564323240339,2,1.91,1.37,0.64,2.02,1.79,0.67,1.09,0.48,-42,-2,-53,1.28,8461,97,85,32,88,1497,444.0,609,461,60,125.0,497,1,435,606,191,0,0,443,21432,-9160,385,-5.59,,,,,,,,,,,,
74504,1564323240359,-2,1.95,1.37,0.64,2.02,1.79,0.7,1.15,0.43,-42,-4,-53,1.34,8092,100,85,32,89,1492,439.0,599,462,60,123.0,497,1,446,575,191,0,0,440,-28332,-4059,385,-5.59,,,,,,,,,,,,
74524,1564323240379,-0,1.97,1.36,0.63,2.01,1.79,0.61,1.23,0.36,-41,-5,-53,1.37,8092,100,85,32,90,1487,439.0,580,458,60,126.0,497,1,448,585,191,0,0,435,-28332,-3322,385,-5.59,,,,,,,,,,,,
74544,1564323240399,-1,2.01,1.37,0.63,2.01,1.78,0.55,1.25,0.37,-39,-5,-53,1.36,7539,100,85,32,92,1482,439.0,568,465,60,123.0,497,1,412,558,191,0,0,433,-28332,8488,387,414.87,44.680111,10.016792,40.13,177.8,0,0.0,-1,0.0,0.0,0,0.51,1.2424
74564,1564323240419,0,2.05,1.36,0.64,2.02,1.79,0.52,1.32,0.34,-37,-5,-54,1.42,7396,100,85,32,92,1478,438.0,554,463,60,123.0,497,1,400,550,191,0,0,436,26704,21432,389,-5.59,,,,,,,,,,,,
74584,1564323240439,0,2.09,1.36,0.63,2.02,1.78,0.44,1.28,0.38,-35,-3,-56,1.36,7298,100,85,32,93,1478,437.0,545,461,60,124.0,389,1,393,546,151,0,0,435,19477,21432,392,-5.59,,,,,,,,,,,,
74604,1564323240459,0,2.1,1.37,0.63,2.01,1.78,0.5,1.21,0.43,-34,-4,-55,1.31,7485,100,85,32,91,1478,440.0,546,460,60,126.0,389,1,409,554,151,0,0,433,20625,13180,393,-5.59,,,,,,,,,,,,
74624,1564323240479,-0,2.11,1.36,0.63,2.01,1.78,0.47,1.21,0.44,-33,-3,-53,1.3,7760,100,85,32,91,1483,435.0,556,457,60,124.0,389,1,430,565,151,0,0,429,-7939,-3866,396,-5.59,,,,,,,,,,,,
74644,1564323240501,0,2.11,1.36,0.63,2.01,1.78,0.48,1.17,0.39,-32,-0,-51,1.26,8191,100,84,32,90,1488,432.0,573,461,60,124.0,389,1,445,596,151,0,0,426,-3322,-1818,396,-5.59,44.680107,10.016803,40.17,177.8,0,0.0,-1,0.0,0.0,0,0.51,1.2441
74664,1564323240521,-4,2.11,1.36,0.63,2.01,1.78,0.38,1.16,0.39,-31,0,-49,1.22,8886,100,85,32,88,1492,430.0,596,457,60,124.0,389,1,422,611,151,0,0,427,-3314,28696,395,-5.59,,,,,,,,,,,,
74684,1564323240541,1,2.11,1.37,0.64,2.0,1.79,0.26,1.2,0.41,-29,2,-43,1.22,9407,100,84,32,86,1498,427.0,629,461,60,124.0,522,1,418,588,207,0,0,424,31796,11545,398,-5.59,,,,,,,,,,,,
74704,1564323240561,2,2.11,1.36,0.64,2.01,1.78,0.32,1.1,0.57,-28,6,-44,1.15,9625,100,84,32,85,1498,430.0,634,462,60,123.0,522,1,413,578,207,0,0,439,-3314,-768,400,-5.59,,,,,,,,,,,,
74724,1564323240581,2,2.11,1.37,0.63,2.0,1.78,0.49,1.07,0.54,-28,6,-43,1.18,9625,100,84,32,86,1498,435.0,637,461,60,124.0,522,1,413,591,207,0,0,460,-7939,14504,409,-5.59,,,,,,,,,,,,
74744,1564323240599,2,2.11,1.35,0.63,2.0,1.79,0.5,1.07,0.62,-26,6,-42,1.18,9625,100,84,32,89,1467,443.0,606,462,60,124.0,522,1,414,617,207,0,0,463,16648,30272,413,-5.59,44.6801,10.016813,40.28,177.8,0,0.0,-1,0.0,0.0,0,0.51,1.2457
74764,1564323240619,2,2.11,1.36,0.63,2.01,1.78,0.58,1.1,0.73,-26,6,-41,1.25,9625,100,84,32,90,1436,446.0,587,461,60,124.0,522,1,415,644,207,0,0,452,16648,-4082,415,-5.59,,,,,,,,,,,,
74784,1564323240639,3,2.1,1.36,0.64,2.01,1.78,0.65,0.97,0.76,-26,5,-39,1.17,9625,100,84,32,92,1405,445.0,565,463,60,124.0,580,1,414,655,239,0,0,441,21432,-21944,415,-5.59,,,,,,,,,,,,
74804,1564323240659,-0,2.11,1.36,0.63,2.0,1.78,0.69,1.05,0.71,-25,3,-38,1.25,7151,100,84,32,93,1374,442.0,542,463,60,123.0,580,1,381,539,239,0,0,439,23400,-4059,412,-5.59,,,,,,,,,,,,
74824,1564323240679,-1,2.11,1.36,0.63,2.0,1.78,0.61,1.05,0.68,-24,2,-38,1.21,7022,100,85,32,92,1372,441.0,529,458,60,125.0,580,1,372,458,239,0,0,436,26704,13040,410,-5.59,,,,,,,,,,,,
74844,1564323240701,1,2.11,1.37,0.63,2.0,1.78,0.71,0.85,0.69,-25,-2,-37,1.1,7011,100,84,32,93,1372,442.0,526,461,60,125.0,580,1,370,533,239,0,0,440,23400,-9211,411,-5.59,44.680092,10.016826,41.46,177.8,0,0.0,-1,0.0,0.0,0,0.51,1.2474
74864,1564323240721,1,2.1,1.35,0.62,1.99,1.78,0.81,0.83,0.75,-25,-3,-37,1.16,7183,100,84,32,92,1395,445.0,520,465,60,123.0,580,1,385,541,239,0,0,437,2131,-26615,413,-5.59,,,,,,,,,,,,
74884,1564323240741,1,2.11,1.36,0.64,2.0,1.78,0.78,0.89,0.65,-25,-1,-37,1.18,7554,100,84,32,92,1426,441.0,533,461,60,124.0,362,1,413,557,149,0,0,424,26704,6384,412,-5.59,,,,,,,,,,,,
74904,1564323240761,0,2.11,1.37,0.64,2.0,1.79,0.87,0.89,0.49,-25,-2,-36,1.24,7961,100,84,32,91,1457,441.0,550,462,60,125.0,362,1,445,574,149,0,0,428,26704,17144,410,-5.59,,,,,,,,,,,,
74924,1564323240781,1,2.11,1.36,0.63,2.0,1.79,0.8,0.87,0.57,-24,0,-36,1.18,8745,100,84,32,89,1488,442.0,576,461,60,123.0,362,1,427,622,149,0,0,435,23400,11560,409,-5.59,,,,,,,,,,,,
74944,1564323240799,1,2.11,1.37,0.63,2.02,1.78,0.86,0.75,0.69,-24,1,-35,1.15,9426,100,84,32,86,1498,443.0,615,461,60,124.0,362,1,418,588,149,0,0,438,-18341,9517,410,-5.59,44.680088,10.016838,41.99,177.8,0,0.0,-1,0.0,0.0,0,0.52,1.2491
74964,1564323240819,1,2.11,1.37,0.63,2.01,1.79,0.8,0.8,0.63,-24,-0,-34,1.13,9994,100,84,32,85,1498,442.0,641,458,60,124.0,362,1,404,582,149,0,0,440,23400,2524,410,-5.59,,,,,,,,,,,,
74984,1564323240839,0,2.11,1.36,0.63,2.0,1.79,0.68,0.72,0.76,-24,1,-36,0.98,10129,100,84,32,85,1482,445.0,645,468,60,124.0,546,1,404,582,223,0,0,456,16648,-10483,412,-5.59,,,,,,,,,,,,
75004,1564323240859,1,2.11,1.37,0.63,2.01,1.78,0.75,0.78,0.71,-24,2,-33,1.09,10129,100,84,32,87,1459,455.0,628,466,60,123.0,546,1,405,620,223,0,0,484,-26615,774,419,-5.59,,,,,,,,,,,,
75024,1564323240879,2,2.1,1.37,0.63,2.01,1.77,0.82,0.78,0.7,-24,1,-36,1.13,10129,100,84,32,89,1436,459.0,605,462,60,124.0,546,1,407,658,223,0,0,473,-18108,21580,423,-5.59,,,,,,,,,,,,
75044,1564323240901,2,2.1,1.36,0.63,2.01,1.78,0.93,0.72,0.74,-24,1,-36,1.18,10129,100,84,32,90,1414,458.0,583,461,60,123.0,546,1,408,676,223,0,0,464,17628,243,422,-5.59,44.680084,10.016851,40.92,177.8,0,0.0,-1,0.0,0.0,0,0.52,1.2507
75064,1564323240921,0,2.11,1.36,0.63,2.0,1.78,0.96,0.67,0.84,-25,-0,-35,1.17,10129,100,84,32,92,1398,457.0,561,463,60,123.0,546,1,408,688,223,0,0,455,-9160,-3414,425,-5.59,,,,,,,,,,,,
75084,1564323240941,1,2.11,1.36,0.63,2.01,1.78,1.04,0.55,0.87,-25,-2,-35,1.18,7290,100,84,32,92,1389,454.0,545,451,60,125.0,360,1,393,545,153,0,0,449,2524,13552,423,-5.59,,,,,,,,,,,,
75104,1564323240961,2,2.1,1.37,0.63,2.0,1.78,1.07,0.64,0.85,-25,-3,-34,1.25,7142,100,84,32,92,1392,454.0,530,458,60,125.0,360,1,382,539,153,0,0,450,2524,-21792,422,-5.59,,,,,,,,,,,,
75124,1564323240981,0,2.11,1.36,0.63,2.01,1.78,0.88,0.74,0.68,-23,-1,-33,1.15,7080,100,84,32,93,1406,453.0,523,462,60,124.0,360,1,381,536,153,0,0,451,-8985,3826,424,-5.59,,,,,,,,,,,,
75144,1564323240993,1,2.11,1.36,0.63,2.0,1.79,0.83,0.74,0.59,-23,-1,-34,1.11,7373,100,84,32,92,1424,458.0,528,463,60,123.0,360,1,406,549,153,0,0,433,17628,13040,425,-5.59,44.680077,10.016865,43.1,177.8,0,0.0,-1,0.0,0.0,0,0.52,1.2524
75164,1564323241013,1,2.11,1.37,0.63,2.0,1.78,0.81,0.73,0.56,-22,-2,-35,1.09,8026,100,84,32,91,1447,455.0,537,459,60,124.0,360,1,449,578,153,0,0,433,-26615,-9211,421,-5.59,,,,,,,,,,,,
75184,1564323241033,2,2.12,1.36,0.64,2.01,1.79,0.77,0.83,0.51,-22,-2,-33,1.13,8700,100,84,32,88,1466,452.0,572,461,60,124.0,455,1,427,622,193,0,0,447,-6387,-26615,423,-5.59,,,,,,,,,,,,
75204,1564323241053,1,2.11,1.37,0.64,2.0,1.79,0.67,0.95,0.42,-22,-2,-31,1.17,9389,100,84,32,86,1475,454.0,611,463,60,125.0,455,1,418,599,193,0,0,448,2524,13040,421,-5.59,,,,,,,,,,,,
75224,1564323241073,2,2.12,1.36,0.64,2.01,1.79,0.61,0.92,0.46,-22,1,-33,1.11,10010,100,84,32,85,1484,455.0,640,457,60,124.0,455,1,395,582,193,0,0,446,-26615,-8165,423,-5.59,,,,,,,,,,,,
75244,1564323241101,-0,2.12,1.37,0.64,2.01,1.79,0.7,1.03,0.44,-22,5,-31,1.25,10307,100,84,32,84,1492,456.0,645,462,60,123.0,455,1,415,564,193,0,0,467,14488,30272,423,-5.59,44.680073,10.016879,42.87,177.8,0,0.0,-1,0.0,0.0,0,0.52,1.2541
75264,1564323241121,1,2.11,1.37,0.64,2.01,1.78,0.6,1.13,0.52,-22,4,-32,1.28,10307,100,84,32,86,1498,463.0,636,463,60,123.0,455,1,417,601,193,0,0,495,6193,-25872,431,-5.59,,,,,,,,,,,,
75284,1564323241141,1,2.11,1.37,0.64,2.01,1.78,0.51,1.22,0.49,-22,7,-31,1.32,10307,100,84,32,87,1498,467.0,626,467,60,124.0,564,1,418,639,242,0,0,490,32033,-3856,434,-5.59,,,,,,,,,,,,
75304,1564323241161,1,2.12,1.37,0.63,2.01,1.79,0.65,1.04,0.64,-23,7,-33,1.23,10307,100,84,32,89,1486,473.0,605,462,60,123.0,564,1,420,658,242,0,0,481,3576,21432,437,-5.59,,,,,,,,,,,,
75324,1564323241181,2,2.13,1.37,0.63,2.01,1.78,0.71,0.99,0.63,-23,1,-34,1.22,10307,100,84,32,90,1435,468.0,581,464,60,124.0,564,1,421,676,242,0,0,470,-16384,23400,437,-5.59,,,,,,,,,,,,
75344,1564323241203,-1,2.13,1.36,0.64,2.01,1.78,0.72,0.95,0.58,-23,-2,-33,1.19,7581,100,84,32,92,1384,466.0,565,463,60,124.0,564,1,415,558,242,0,0,465,-3210,20625,436,-5.59,44.680073,10.016893,42.67,177.7,0,0.0,-1,0.0,0.0,0,0.52,1.2557
75364,1564323241223,0,2.13,1.37,0.63,2.01,1.78,0.76,0.87,0.6,-22,-3,-34,1.15,7390,100,84,32,92,1333,463.0,548,454,60,125.0,564,1,401,550,242,0,0,463,6193,5600,435,-5.59,,,,,,,,,,,,
75384,1564323241243,-1,2.15,1.36,0.64,2.0,1.79,0.76,0.78,0.59,-22,-5,-34,1.09,7270,100,84,32,92,1295,462.0,539,460,60,124.0,348,1,392,544,151,0,0,461,30272,243,435,-5.59,,,,,,,,,,,,
75404,1564323241263,-0,2.15,1.36,0.64,2.01,1.79,0.87,0.76,0.62,-22,-7,-34,1.15,7584,100,84,32,91,1295,468.0,537,461,60,125.0,348,1,416,558,151,0,0,453,-16384,1779,436,-5.59,,,,,,,,,,,,
75424,1564323241283,1,2.15,1.37,0.64,2.02,1.78,0.78,0.75,0.56,-21,-4,-34,1.08,8120,100,84,32,90,1295,466.0,557,462,60,125.0,348,1,447,599,151,0,0,440,-3210,9517,438,-5.59,,,,,,,,,,,,
75444,1564323241300,1,2.17,1.37,0.64,2.01,1.8,0.81,0.85,0.6,-21,-5,-33,1.17,8894,100,84,32,88,1346,466.0,584,464,60,125.0,348,1,421,611,151,0,0,457,-3210,13180,439,-5.59,44.680073,10.016909,44.33,177.7,0,0.0,-1,0.0,0.0,0,0.52,1.2574
75464,1564323241320,1,2.16,1.37,0.64,2.03,1.8,0.72,0.78,0.55,-21,-3,-32,1.06,9689,100,84,32,86,1397,468.0,626,466,60,125.0,348,1,410,593,151,0,0,463,-16384,5600,441,-5.59,,,,,,,,,,,,
75484,1564323241340,1,2.17,1.37,0.65,2.02,1.8,0.5,0.78,0.52,-21,2,-30,0.93,10290,100,84,32,85,1447,467.0,642,458,60,124.0,503,1,415,582,221,0,0,464,30272,23400,440,-5.59,,,,,,,,,,,,
75504,1564323241360,0,2.19,1.37,0.65,2.02,1.8,0.5,0.85,0.51,-20,4,-28,0.98,10575,100,84,32,84,1497,467.0,652,473,60,124.0,503,1,431,564,221,0,0,482,243,2212,441,-5.59,,,,,,,,,,,,
75524,1564323241380,2,2.21,1.38,0.64,2.02,1.79,0.51,0.76,0.66,-20,3,-30,0.91,10575,100,84,32,86,1498,472.0,635,462,60,123.0,503,1,433,601,221,0,0,503,-1923,1267,447,-5.59,,,,,,,,,,,,
75544,1564323241402,0,2.22,1.37,0.64,2.02,1.79,0.66,0.66,0.7,-20,5,-29,0.93,10575,100,84,32,88,1498,476.0,624,458,60,124.0,503,1,435,639,221,0,0,502,-23367,14504,454,-5.59,44.680069,10.016925,43.94,177.6,0,0.0,-1,0.0,0.0,0,0.52,1.2591
75564,1564323241422,1,2.24,1.38,0.64,2.02,1.8,0.63,0.75,0.78,-18,5,-30,0.98,10575,100,84,32,89,1431,480.0,610,460,60,123.0,503,1,436,639,221,0,0,490,8488,10432,460,-5.59,,,,,,,,,,,,
75584,1564323241442,1,2.23,1.37,0.64,2.02,1.79,0.73,0.63,0.81,-17,4,-28,0.97,10575,100,84,32,90,1364,476.0,593,466,60,124.0,576,1,438,676,264,0,0,479,-23367,2211,462,-5.59,,,,,,,,,,,,
75604,1564323241462,0,2.23,1.37,0.64,2.02,1.8,0.78,0.54,0.83,-16,2,-27,0.95,7767,100,84,32,91,1296,471.0,576,452,60,125.0,576,1,430,565,264,0,0,470,32033,30272,460,-5.59,,,,,,,,,,,,
75624,1564323241482,2,2.22,1.38,0.65,2.03,1.8,0.75,0.48,0.82,-14,-1,-27,0.89,7659,100,84,32,92,1230,471.0,568,459,60,125.0,576,1,421,562,264,0,0,470,32033,6193,461,414.87,,,,,,,,,,,,
75644,1564323241502,3,2.2,1.38,0.64,2.04,1.79,0.64,0.45,0.74,-13,-0,-25,0.78,8057,100,84,32,91,1227,473.0,563,458,60,125.0,576,1,448,508,264,0,0,467,-9203,17628,460,-5.59,44.680069,10.01694,45.29,177.6,0,0.0,-1,0.0,0.0,0,0.52,1.2607
75664,1564323241522,2,2.22,1.38,0.65,2.04,1.8,0.72,0.5,0.75,-13,-2,-23,0.88,8511,100,84,32,89,1227,474.0,570,460,60,125.0,576,1,434,622,264,0,0,468,-9203,-9160,461,-5.59,,,,,,,,,,,,
75684,1564323241542,2,2.24,1.38,0.64,2.04,1.8,0.76,0.54,0.72,-12,-4,-23,0.93,9137,100,84,32,87,1277,475.0,605,461,60,125.0,444,1,418,599,206,0,0,470,-17956,2524,461,-5.59,,,,,,,,,,,,
75704,1564323241562,2,2.24,1.38,0.65,2.04,1.8,0.86,0.36,0.73,-12,-3,-23,0.93,9910,100,84,32,85,1345,476.0,627,462,60,124.0,444,1,400,598,206,0,0,469,-23367,2524,466,-5.59,,,,,,,,,,,,
75724,1564323241582,2,2.24,1.38,0.65,2.04,1.8,0.85,0.38,0.77,-12,-3,-21,0.93,10463,100,84,32,85,1413,477.0,649,460,60,124.0,444,1,428,582,206,0,0,473,2212,2211,466,-5.59,,,,,,,,,,,,
75744,1564323241602,2,2.25,1.38,0.65,2.04,1.81,0.84,0.2,0.85,-12,1,-20,0.87,10788,100,84,32,84,1479,478.0,653,468,60,123.0,444,1,437,564,206,0,0,494,16648,-1818,467,-5.59,44.680065,10.016957,46.29,177.6,0,0.0,-1,0.0,0.0,0,0.53,1.2624
75764,1564323241622,2,2.25,1.39,0.65,2.04,1.8,0.72,0.16,0.9,-11,4,-20,0.74,10788,100,84,32,86,1498,484.0,645,468,60,124.0,444,1,439,601,206,0,0,532,-10483,-22263,475,-5.59,,,,,,,,,,,,
75784,1564323241642,-0,2.25,1.38,0.65,2.04,1.81,0.62,0.15,0.92,-10,5,-16,0.64,10788,100,84,32,88,1498,490.0,631,460,60,124.0,529,1,441,620,253,0,0,525,-6656,10408,482,-5.59,,,,,,,,,,,,
75804,1564323241662,2,2.25,1.38,0.65,2.04,1.8,0.55,0.2,0.98,-9,3,-18,0.58,10788,100,84,32,89,1448,493.0,619,461,60,123.0,529,1,442,639,253,0,0,499,-6528,-6528,485,-5.59,,,,,,,,,,,,
75824,1564323241682,1,2.24,1.38,0.65,2.05,1.81,0.64,0.13,1.04,-9,4,-16,0.65,10788,100,84,32,89,1380,491.0,611,466,60,124.0,529,1,442,658,253,0,0,490,248,8488,484,-5.59,,,,,,,,,,,,
75844,1564323241702,0,2.24,1.38,0.64,2.05,1.8,0.64,0.06,0.96,-8,2,-16,0.64,8009,100,84,32,90,1311,489.0,592,446,60,126.0,529,1,450,575,253,0,0,486,-6656,505,480,-5.59,44.680065,10.016973,46.27,177.5,0,0.0,-1,0.0,0.0,0,0.53,1.2641
75864,1564323241722,2,2.24,1.38,0.65,2.05,1.8,0.6,0.03,0.93,-8,0,-16,0.6,8026,100,84,32,91,1244,488.0,573,464,60,124.0,529,1,449,578,253,0,0,488,1,-1562,482,181.28,,,,,,,,,,,,
75884,1564323241742,1,2.26,1.38,0.64,2.06,1.8,0.6,0.13,0.89,-7,-1,-13,0.62,8660,100,84,32,88,1221,487.0,581,462,60,125.0,389,1,429,622,187,0,0,487,505,-899,481,-5.59,,,,,,,,,,,,
75904,1564323241762,1,2.26,1.38,0.65,2.07,1.8,0.54,0.24,0.81,-7,-1,-12,0.59,9286,100,84,32,87,1221,492.0,618,466,60,125.0,389,1,418,599,187,0,0,484,-32768,32033,481,-5.59,,,,,,,,,,,,
75924,1564323241782,1,2.28,1.39,0.65,2.06,1.81,0.49,0.19,0.76,-7,-0,-11,0.53,9899,100,84,32,85,1254,493.0,640,456,60,124.0,389,1,400,581,187,0,0,488,-6528,8488,485,-5.59,,,,,,,,,,,,
75944,1564323241802,1,2.29,1.38,0.65,2.06,1.81,0.56,-0.02,0.7,-7,1,-12,0.56,10569,100,84,32,84,1322,493.0,648,459,60,124.0,389,1,431,564,187,0,0,488,-6528,8488,486,-5.59,44.680065,10.01699,48.21,177.5,0,0.0,-1,0.0,0.0,0,0.53,1.2657
75964,1564323241822,2,2.3,1.39,0.65,2.07,1.81,0.5,0.18,0.72,-5,0,-8,0.53,10990,100,84,32,84,1391,492.0,646,463,60,124.0,389,1,442,564,187,0,0,496,-6528,2109,487,-5.59,,,,,,,,,,,,
75984,1564323241842,2,2.31,1.39,0.65,2.07,1.81,0.36,0.11,0.83,-4,5,-9,0.37,11075,100,84,32,84,1458,494.0,655,463,60,124.0,483,1,443,489,237,0,0,537,-9216,6274,498,-5.59,,,,,,,,,,,,
76004,1564323241862,2,2.31,1.39,0.65,2.06,1.81,0.4,0.02,0.91,-4,8,-8,0.4,11075,100,84,32,86,1498,501.0,638,462,60,124.0,483,1,445,601,237,0,0,564,10408,-8186,501,-5.59,,,,,,,,,,,,
76024,1564323241882,2,2.33,1.38,0.65,2.07,1.81,0.45,0.07,1.0,-3,7,-8,0.45,11075,100,84,32,88,1498,507.0,627,461,60,124.0,483,1,447,620,237,0,0,513,-28648,2524,507,-5.59,,,,,,,,,,,,
76044,1564323241902,1,2.34,1.38,0.65,2.06,1.81,0.59,0.05,0.85,-2,3,-7,0.59,393,91,84,32,88,1474,507.0,625,466,60,124.0,483,1,90,193,237,0,0,505,6274,-21872,507,-5.59,44.680065,10.017007,47.77,177.5,0,0.0,-1,0.0,0.0,0,0.53,1.2674
76064,1564323241922,-1,2.38,1.39,0.65,2.07,1.81,0.62,-0.03,0.84,-1,1,-7,0.62,8488,76,84,32,86,1423,507.0,613,457,60,125.0,483,1,432,586,237,0,0,498,11560,2109,507,-5.59,,,,,,,,,,,,
76084,1564323241942,3,2.4,1.39,0.65,2.08,1.82,0.55,-0.06,0.76,1,0,-6,0.55,8507,67,84,32,82,1373,506.0,595,464,60,124.0,351,1,427,540,178,0,0,496,-9216,-28648,506,181.28,,,,,,,,,,,,
76104,1564323241962,-1,2.44,1.39,0.65,2.07,1.82,0.53,-0.07,0.73,3,-1,-4,0.53,9014,62,84,32,75,1322,509.0,600,464,60,126.0,351,1,413,446,178,0,0,496,3,-4054,509,-5.59,,,,,,,,,,,,
76124,1564323241982,2,2.46,1.39,0.64,2.08,1.81,0.47,-0.22,0.73,5,-1,-2,0.52,9610,61,84,32,70,1286,512.0,630,461,60,124.0,351,1,412,409,178,0,0,492,3,2109,512,-5.59,,,,,,,,,,,,
76144,1564323241996,0,2.47,1.39,0.64,2.08,1.81,0.38,-0.18,0.72,8,1,1,0.42,10069,61,84,32,66,1286,517.0,642,463,60,124.0,351,1,416,419,178,0,0,496,771,-3856,517,-5.59,44.680065,10.017024,49.85,177.4,0,0.0,-1,0.0,0.0,0,0.53,1.2691
76164,1564323242016,2,2.46,1.39,0.64,2.08,1.81,0.3,-0.06,0.63,10,1,5,0.31,10563,61,84,32,64,1298,521.0,651,465,60,124.0,351,1,447,414,178,0,0,492,-32768,16383,521,-5.59,,,,,,,,,,,,
76184,1564323242036,2,2.45,1.39,0.65,2.08,1.81,0.36,-0.25,0.72,11,3,7,0.43,10856,61,84,32,63,1349,525.0,647,459,60,125.0,326,1,450,409,170,0,0,515,998,-9072,525,-5.59,,,,,,,,,,,,
76204,1564323242056,3,2.44,1.4,0.65,2.08,1.82,0.35,-0.42,0.81,13,4,8,0.55,10856,61,84,32,64,1383,528.0,646,463,60,124.0,326,1,449,409,170,0,0,605,-6528,-506,528,-5.59,,,,,,,,,,,,
76224,1564323242076,2,2.45,1.39,0.65,2.07,1.82,0.37,-0.45,0.81,14,5,10,0.58,10856,61,84,32,65,1369,529.0,640,463,60,124.0,326,1,449,426,170,0,0,576,3,-22519,529,-5.59,,,,,,,,,,,,
76244,1564323242102,-0,2.44,1.39,0.64,2.08,1.81,0.53,-0.51,0.75,15,3,11,0.73,9566,61,84,32,66,1351,526.0,639,461,60,124.0,326,1,414,380,170,0,0,505,-9216,-32248,526,-5.59,44.680065,10.017041,50.01,177.3,0,0.0,-1,0.0,0.0,0,0.53,1.2707
76264,1564323242122,3,2.42,1.39,0.65,2.07,1.81,0.65,-0.6,0.79,16,0,11,0.88,9576,61,84,32,66,1285,522.0,636,451,60,126.0,326,1,414,377,170,0,0,517,2524,-28648,522,-5.59,,,,,,,,,,,,
76284,1564323242142,2,2.41,1.39,0.65,2.07,1.82,0.64,-0.64,0.79,15,2,14,0.9,9650,61,84,32,65,1228,524.0,640,467,60,124.0,260,1,412,377,136,0,0,524,2524,-22519,524,-5.59,,,,,,,,,,,,
76304,1564323242162,2,2.39,1.39,0.65,2.07,1.8,0.59,-0.69,0.72,15,0,15,0.91,1066,61,84,32,64,1202,524.0,638,458,60,124.0,260,1,140,256,136,0,0,519,10408,-32248,524,-5.59,,,,,,,,,,,,
76324,1564323242182,3,2.38,1.38,0.65,2.07,1.8,0.66,-0.66,0.77,14,0,16,0.94,9375,51,84,32,63,1177,524.0,636,461,60,125.0,260,1,410,357,136,0,0,515,11560,-9212,524,-5.59,,,,,,,,,,,,
76344,1564323242202,0,2.37,1.39,0.64,2.08,1.8,0.73,-0.73,0.79,13,-0,17,1.03,9615,42,84,32,60,1217,523.0,632,465,60,125.0,260,1,411,348,136,0,0,501,-32248,2524,523,-5.59,44.680065,10.017059,50.37,177.3,0,0.0,-1,0.0,0.0,0,0.53,1.2724
76364,1564323242222,-1,2.36,1.38,0.64,2.07,1.81,0.74,-0.61,0.86,12,-0,18,0.96,10021,36,84,32,54,1258,521.0,638,458,60,125.0,260,1,400,317,136,0,0,505,-28648,-9212,521,-5.59,,,,,,,,,,,,
76384,1564323242242,0,2.36,1.39,0.65,2.07,1.81,0.84,-0.65,0.8,12,0,17,1.06,10021,34,84,32,50,1323,522.0,632,463,60,124.0,214,1,388,278,112,0,0,516,-21872,-8187,522,-5.59,,,,,,,,,,,,
76404,1564323242262,1,2.37,1.39,0.64,2.07,1.8,0.89,-0.6,0.84,11,-1,17,1.08,10021,34,84,32,49,1388,522.0,639,468,60,124.0,214,1,385,268,112,0,0,521,10994,16383,522,-5.59,,,,,,,,,,,,
76424,1564323242282,0,2.37,1.39,0.64,2.07,1.8,0.85,-0.49,0.74,12,1,17,0.98,9236,34,84,32,49,1416,523.0,635,460,60,125.0,214,1,381,245,112,0,0,512,-3856,-22519,523,-5.59,,,,,,,,,,,,
76444,1564323242301,2,2.39,1.39,0.64,2.07,1.8,0.81,-0.55,0.68,11,1,17,0.98,9450,34,84,32,47,1441,520.0,631,468,60,125.0,214,1,379,237,112,0,0,505,-3414,-8187,520,-5.59,44.680061,10.017076,50.42,177.3,0,0.0,-1,0.0,0.0,0,0.53,1.2741
76464,1564323242321,1,2.41,1.38,0.65,2.07,1.81,0.89,-0.62,0.74,11,-1,16,1.08,9605,34,84,32,45,1399,519.0,636,461,60,125.0,214,1,365,234,112,0,0,506,-21872,1341,520,-5.59,,,,,,,,,,,,
76484,1564323242341,2,2.41,1.39,0.65,2.07,1.81,0.83,-0.68,0.73,12,0,15,1.07,9745,34,84,32,44,1355,520.0,640,462,60,125.0,163,1,357,233,85,0,0,505,6274,-22519,519,-5.59,,,,,,,,,,,,
76504,1564323242361,2,2.41,1.39,0.65,2.08,1.8,0.81,-0.65,0.61,12,-1,16,1.04,9801,34,84,32,43,1292,522.0,650,465,60,124.0,163,1,350,230,85,0,0,506,15661,17136,522,-5.59,,,,,,,,,,,,
76524,1564323242381,-1,2.41,1.39,0.65,2.07,1.81,0.73,-0.55,0.65,14,0,17,0.91,9801,34,84,32,44,1222,524.0,641,465,60,124.0,163,1,357,233,85,0,0,505,11560,-8187,523,-5.59,,,,,,,,,,,,
76544,1564323242401,-1,2.41,1.39,0.65,2.08,1.8,0.75,-0.66,0.59,14,-0,17,1.0,9474,34,84,32,44,1162,522.0,638,463,60,125.0,163,1,356,228,85,0,0,501,11560,-28648,526,-5.59,44.680061,10.017094,50.87,177.3,0,0.0,-1,0.0,0.0,0,0.54,1.2757
76564,1564323242421,1,2.4,1.39,0.65,2.07,1.82,0.8,-0.71,0.65,14,-1,17,1.07,9556,34,84,32,44,1104,525.0,637,459,60,124.0,163,1,357,230,85,0,0,502,2109,2524,524,-5.59,,,,,,,,,,,,
76584,1564323242441,-2,2.36,1.39,0.65,2.07,1.81,0.81,-0.64,0.59,14,1,18,1.03,9640,34,84,32,43,1096,523.0,632,464,60,124.0,155,1,350,228,82,0,0,504,15661,1341,522,-5.59,,,,,,,,,,,,
76604,1564323242461,1,2.34,1.38,0.65,2.07,1.81,0.74,-0.68,0.55,13,1,18,1.0,9527,34,84,31,43,1107,522.0,632,461,60,125.0,155,1,350,227,82,0,0,502,2109,-9212,521,-5.59,,,,,,,,,,,,
76624,1564323242481,2,2.3,1.39,0.65,2.08,1.82,0.81,-0.57,0.62,13,1,18,0.99,9571,34,84,31,43,1116,520.0,639,463,60,124.0,155,1,350,227,82,0,0,503,-32248,-3482,519,-5.59,,,,,,,,,,,,
76644,1564323242501,2,2.28,1.38,0.65,2.08,1.81,0.85,-0.51,0.58,11,0,18,0.99,9337,34,84,31,43,1124,517.0,630,468,60,124.0,155,1,348,179,82,0,0,503,6274,1248,515,-5.59,44.680058,10.017112,50.64,177.3,0,0.0,-1,0.0,0.0,0,0.54,1.2774
76664,1564323242521,0,2.25,1.38,0.65,2.06,1.82,0.71,-0.43,0.49,10,2,18,0.83,7861,34,84,31,43,1125,514.0,633,455,60,126.0,155,1,340,216,82,0,0,503,-3414,26178,512,-5.59,,,,,,,,,,,,
76684,1564323242541,2,2.23,1.38,0.65,2.05,1.81,0.64,-0.38,0.42,8,2,18,0.75,0,25,84,31,43,1123,510.0,633,468,60,124.0,149,1,345,223,76,0,0,510,-4054,10994,509,-5.59,,,,,,,,,,,,
76704,1564323242561,-2,2.21,1.36,0.64,2.04,1.8,0.61,-0.24,0.42,6,3,17,0.65,0,22,83,31,41,1112,514.0,628,467,60,124.0,149,1,345,223,76,0,0,507,-3482,-32248,507,-5.59,,,,,,,,,,,,
76724,1564323242581,-0,2.19,1.36,0.63,2.02,1.79,0.7,-0.23,0.42,3,1,15,0.73,8514,21,84,31,39,1101,514.0,622,460,60,127.0,149,1,320,213,76,0,0,512,26178,6274,503,-5.59,,,,,,,,,,,,
76744,1564323242601,-1,2.16,1.35,0.63,2.03,1.78,0.75,-0.19,0.41,1,1,13,0.77,8656,21,84,31,38,1092,513.0,620,459,60,124.0,149,1,317,209,76,0,0,508,26178,771,501,-5.59,44.680054,10.017129,50.37,177.3,0,0.0,-1,0.0,0.0,0,0.54,1.2791
76764,1564323242621,2,2.13,1.35,0.62,2.03,1.78,0.82,-0.16,0.5,-2,0,10,0.83,8877,21,84,31,37,1083,512.0,620,457,60,125.0,149,1,314,205,76,0,0,500,26178,-899,497,-5.59,,,,,,,,,,,,
76784,1564323242641,1,2.12,1.35,0.62,2.02,1.78,0.85,-0.06,0.49,-4,-1,7,0.86,8877,21,84,31,36,1076,514.0,628,463,60,124.0,149,1,311,202,76,0,0,490,17136,243,492,-5.59,,,,,,,,,,,,
76804,1564323242661,2,2.08,1.35,0.61,2.02,1.77,0.88,0.05,0.55,-6,-1,4,0.88,8877,22,84,31,35,1072,510.0,626,463,60,123.0,149,1,308,198,76,0,0,491,-3856,8488,485,-5.59,,,,,,,,,,,,
76824,1564323242681,-2,2.08,1.35,0.6,2.0,1.76,0.93,0.03,0.65,-9,-1,1,0.93,9014,22,84,31,35,1072,512.0,623,460,60,125.0,135,1,308,198,66,0,0,491,-3856,243,481,-5.59,,,,,,,,,,,,
76844,1564323242701,-2,2.06,1.35,0.6,1.99,1.76,1.04,0.0,0.68,-12,-1,-4,1.04,9088,22,84,31,35,1077,511.0,627,463,60,126.0,135,1,308,199,66,0,0,497,-3856,-18108,477,-5.59,44.68005,10.017146,49.65,177.3,0,0.0,-1,0.0,0.0,0,0.54,1.2807
76864,1564323242721,2,2.06,1.35,0.6,2.0,1.75,1.14,-0.04,0.75,-15,-3,-8,1.14,9031,22,84,31,35,1070,511.0,631,460,60,125.0,135,1,308,198,66,0,0,499,-3856,-18108,472,-5.59,,,,,,,,,,,,
76884,1564323242741,2,2.04,1.35,0.6,2.0,1.76,1.22,-0.09,0.77,-18,-4,-12,1.23,9097,22,84,31,35,1049,511.0,635,465,60,126.0,135,1,308,199,66,0,0,501,-3856,3571,470,-5.59,,,,,,,,,,,,
76904,1564323242761,2,2.03,1.36,0.6,2.0,1.75,1.3,-0.09,0.75,-19,-3,-15,1.3,9124,22,84,31,35,1027,511.0,635,458,60,125.0,144,1,308,199,68,0,0,499,-3856,-18108,470,-5.59,,,,,,,,,,,,
