"Interval"|"ms"|0|0|1,"Utc"|"ms"|0|0|1,"Brake_F"|"Bar"|0|2000|10,"Brake_R"|"Bar"|0|2000|10,"Height_RF"|"mm"|0|255|50,"Height_LF"|"mm"|0|255|50,"Height_LR"|"mm"|0|80|50,"Height_RR"|"mm"|0|255|50,"Steering"|"deg"|-100|100|10,"AccelX"|"G"|-3.0|3.0|50,"AccelY"|"G"|-3.0|3.0|50,"AccelZ"|"G"|-3.0|3.0|50,"Yaw"|"Deg/Sec"|-120|120|50,"Pitch"|"Deg/Sec"|-120|120|50,"Roll"|"Deg/Sec"|-120|120|50,"Gsum"|"G"|0.0|3.0|50,"Log_Button"|""|0.0|10.0|10,"WaterTemp"|"C"|0|150|50,"RPM"|"tr/min"|0|14000|50,"TPS"|"%"|0|100|50,"AirTemp"|"C"|0|150|50,"MAP"|"KPa"|0|100|50,"Lambda"|""|0.5|1.5|50,"SpeedDTA"|"kph"|0.0|250.0|50,"OilPress"|"KPa"|0|1500|50,"FuelPressur"|"Bar"|0.0|10.0|50,"Batterie"|"V"|0.0|20.0|50,"ConsoKm"|"L/100km"|0.0|200.0|50,"Gear"|""|0|6|50,"AdvIgnition"|"Deg"|-20.0|70.0|50,"Injection"|"ms"|0.0|10.0|50,"ConsoHr"|"L/Hr"|0.0|10000.0|50,"LC_But_Pres"|""|0|1|50,"LC_Active"|""|0|1|50,"TractionOn"|""|0|1|50,"TractionWet"|""|0|1|50,"FanOn"|""|0|1|50,"RD_Speed"|"km/h"|-30|250|10,"RUD_Speed"|"km/h"|-30|250|10,"LD_Speed"|"km/h"|-30|250|10,"LUD_Speed"|"km/h"|-30|250|10,"Latitude"|"Degrees"|-180.0|180.0|10,"Longitude"|"Degrees"|-180.0|180.0|10,"Speed"|"kph"|0.0|150.0|10,"Altitude"|"m"|0.0|4000.0|10,"GPSSats"|""|0|20|10,"GPSQual"|""|0|5|10,"GPSDOP"|""|0.0|20.0|10,"LapCount"|""|0|0|10,"LapTime"|"Min"|0.0|0.0|10,"Sector"|""|0|0|10,"SectorTime"|"Min"|0.0|0.0|10,"PredTime"|"Min"|0.0|0.0|5,"ElapsedTime"|"Min"|0.0|0.0|10,"CurrentLap"|""|0|0|10,"Distance"|"km"|0.0|0.0|10,"SessionTime"|"Min"|0.0|0.0|10
87063,1627462437266,,,251,254,237,232,,0.13,-0.08,1.51,0,0,1,0.15,,84,4678,6,37,55,0.901,0.0,415,4.75,13.2,0.0,1,27.9,2.66,5.6,0,0,1,1,0,,,,,,,,,,,,,,,,,,,,
87083,1627462437286,,,251,254,237,232,,0.15,-0.11,1.39,0,2,2,0.19,,84,4618,6,37,55,0.902,0.0,412,4.73,13.2,0.0,1,27.2,2.62,5.6,0,0,1,1,0,,,,,,,,,,,,,,,,,,,,
87103,1627462437306,,,251,254,237,232,,0.12,-0.12,1.29,0,3,4,0.17,,84,4584,6,37,55,0.903,0.0,407,4.72,13.3,0.0,1,26.8,2.6,5.4,0,0,1,1,0,,,,,,,,,,,,,,,,,,,,
87123,1627462437326,,,251,254,237,232,,0.09,-0.12,1.19,0,5,5,0.15,,84,4589,6,37,55,0.905,0.0,413,4.73,13.2,0.0,1,26.8,2.6,5.4,0,0,1,1,0,,,,,,,,,,,,,,,,,,,,
87143,1627462437346,13,6,251,254,237,232,-1,0.07,-0.11,1.1,0,6,6,0.13,1,84,4484,6,37,55,0.906,0.0,406,4.71,13.2,0.0,1,25.5,2.53,5.4,0,0,1,1,0,0,250,250,0,47.221169,14.761599,0.0,688.9,9,2,1.7,0,0.0,-1,0.0,,0.0,0,0.02,1.4524
87163,1627462437366,,,251,254,237,232,,0.05,-0.1,1.01,0,6,7,0.11,,84,4449,6,37,55,0.907,0.0,398,4.71,13.2,0.0,1,25.1,2.51,5.4,0,0,1,1,0,,,,,,,,,,,,,,,,,,,,
87183,1627462437386,,,251,254,237,232,,0.04,-0.09,0.93,0,7,7,0.09,,84,4474,6,37,56,0.907,0.0,393,4.73,13.2,0.0,1,25.7,2.53,5.4,0,0,1,1,0,,,,,,,,,,,,,,,,,,,,
87203,1627462437406,,,251,254,237,232,,0.03,-0.1,0.86,0,8,8,0.1,,84,4473,6,37,56,0.907,0.0,393,4.75,13.3,0.0,1,25.7,2.54,5.2,0,0,1,1,0,,,,,,,,,,,,,,,,,,,,
87223,1627462437426,,,251,254,237,232,,0.04,-0.12,0.8,0,9,8,0.13,,84,4431,6,37,56,0.908,0.0,394,4.74,13.2,0.0,1,25.1,2.51,5.2,0,0,1,1,0,,,,,,,,,,,,,,,,,,,,
87243,1627462437446,14,5,251,254,237,232,-1,0.05,-0.13,0.73,0,9,8,0.14,1,84,4460,6,37,56,0.908,0.0,388,4.75,13.2,0.0,1,25.5,2.53,5.2,0,0,1,1,0,0,250,250,0,47.221169,14.761599,0.0,688.9,9,2,1.7,0,0.0,-1,0.0,0.0,0.0,0,0.02,1.4541
87263,1627462437466,,,251,254,237,232,,0.08,-0.12,0.68,0,10,8,0.14,,84,4384,6,37,56,0.909,0.0,396,4.73,13.2,0.0,1,24.6,2.48,5.2,0,0,1,1,0,,,,,,,,,,,,,,,,,,,,
87283,1627462437486,,,251,254,237,232,,0.11,-0.14,0.62,1,10,8,0.18,,84,4463,6,37,56,0.909,0.0,385,4.72,13.1,0.0,1,25.5,2.53,5.2,0,0,1,1,0,,,,,,,,,,,,,,,,,,,,
87303,1627462437506,,,251,254,237,232,,0.15,-0.14,0.58,1,9,8,0.21,,84,4472,6,37,56,0.909,0.0,392,4.75,13.2,0.0,1,25.7,2.53,5.3,0,0,1,1,0,,,,,,,,,,,,,,,,,,,,
87323,1627462437526,,,251,254,237,232,,0.19,-0.14,0.53,1,8,8,0.23,,84,4407,6,37,56,0.909,0.0,388,4.71,13.1,0.0,1,24.8,2.5,5.3,0,0,1,1,0,,,,,,,,,,,,,,,,,,,,
87343,1627462437546,13,6,251,254,237,232,-1,0.22,-0.13,0.49,1,8,7,0.25,1,84,4520,6,37,56,0.908,0.0,391,4.71,13.1,0.0,1,26.3,2.57,5.3,0,0,1,1,0,0,250,250,0,47.221169,14.761599,0.0,688.9,9,2,1.7,0,0.0,-1,0.0,,0.0,0,0.02,1.4557
87363,1627462437566,,,251,254,237,232,,0.24,-0.12,0.45,1,8,7,0.27,,84,4453,6,37,56,0.907,0.0,394,4.73,13.2,0.0,1,25.4,2.52,5.3,0,0,1,1,0,,,,,,,,,,,,,,,,,,,,
87383,1627462437586,,,251,254,237,232,,0.27,-0.1,0.42,1,7,6,0.29,,84,4497,6,37,56,0.906,0.0,390,4.7,13.0,0.0,1,26.0,2.55,5.3,0,0,1,1,0,,,,,,,,,,,,,,,,,,,,
87403,1627462437606,,,251,254,237,232,,0.3,-0.12,0.39,1,7,6,0.32,,84,4513,6,37,56,0.906,0.0,398,4.76,13.0,0.0,1,26.2,2.56,5.3,0,0,1,1,0,,,,,,,,,,,,,,,,,,,,
87423,1627462437626,,,251,254,237,232,,0.31,-0.12,0.36,0,6,5,0.34,,84,4439,6,37,56,0.905,0.0,400,4.73,13.2,0.0,1,25.2,1.41,5.3,0,0,1,1,0,,,,,,,,,,,,,,,,,,,,
87443,1627462437646,14,6,251,254,237,232,-1,0.33,-0.13,0.34,0,6,5,0.35,1,84,4559,6,37,56,0.904,0.0,390,4.76,13.0,0.0,1,26.7,2.59,5.3,0,0,1,1,0,0,250,250,0,47.221169,14.761599,0.0,688.9,9,2,1.7,0,0.0,-1,0.0,0.0,0.0,0,0.02,1.4574
87463,1627462437666,,,251,254,237,232,,0.35,-0.13,0.31,1,5,5,0.37,,84,4509,6,37,56,0.903,0.0,402,4.72,13.1,0.0,1,26.1,2.56,5.3,0,0,1,1,0,,,,,,,,,,,,,,,,,,,,
87483,1627462437686,,,251,254,237,232,,0.37,-0.14,0.29,0,5,4,0.4,,84,4516,6,37,56,0.902,0.0,393,4.72,13.2,0.0,1,26.2,2.57,5.3,0,0,1,1,0,,,,,,,,,,,,,,,,,,,,
87503,1627462437707,,,251,254,237,232,,0.39,-0.13,0.26,0,5,4,0.41,,84,4563,6,37,56,0.901,0.0,406,4.73,13.1,0.0,1,26.8,2.59,5.4,0,0,1,1,0,,,,,,,,,,,,,,,,,,,,
87523,1627462437727,,,251,254,237,232,,0.4,-0.14,0.24,0,5,5,0.43,,84,4498,6,37,56,0.901,0.0,398,4.72,13.1,0.0,1,26.0,2.55,5.4,0,0,1,1,0,,,,,,,,,,,,,,,,,,,,
87543,1627462437747,14,6,251,254,237,232,-1,0.41,-0.17,0.22,1,6,5,0.45,1,84,4577,6,37,56,0.9,0.0,400,4.73,13.2,0.0,1,27.0,2.6,5.4,0,0,1,1,0,0,250,250,0,47.221169,14.761599,0.0,688.9,9,2,1.7,0,0.0,-1,0.0,,0.0,0,0.02,1.459
87563,1627462437767,,,251,254,237,232,,0.42,-0.18,0.21,1,7,6,0.46,,84,4547,6,37,56,0.9,0.0,406,4.72,13.2,0.0,1,26.6,2.58,5.4,0,0,1,1,0,,,,,,,,,,,,,,,,,,,,
87583,1627462437787,,,251,254,237,232,,0.43,-0.19,0.19,1,7,7,0.47,,84,4524,6,37,56,0.9,0.0,399,4.75,13.2,0.0,1,26.3,2.57,5.4,0,0,1,1,0,,,,,,,,,,,,,,,,,,,,
87603,1627462437805,,,251,254,237,232,,0.42,-0.2,0.18,1,9,8,0.47,,84,4623,6,37,56,0.9,0.0,403,4.76,13.2,0.0,1,27.5,2.63,5.6,0,0,1,1,0,,,,,,,,,,,,,,,,,,,,
87623,1627462437825,,,251,254,237,232,,0.41,-0.23,0.16,1,9,9,0.47,,84,4511,6,37,56,0.901,0.0,402,4.72,13.2,0.0,1,26.1,2.56,5.6,0,0,1,1,0,,,,,,,,,,,,,,,,,,,,
87643,1627462437845,14,7,251,254,237,232,-1,0.39,-0.21,0.15,1,10,10,0.44,1,84,4575,6,37,56,0.901,0.0,400,4.74,13.2,0.0,1,26.9,2.6,5.6,0,0,1,1,0,0,250,250,0,47.221169,14.761599,0.0,688.9,9,2,1.7,0,0.0,-1,0.0,0.0,0.0,0,0.02,1.4607
87663,1627462437865,,,251,254,237,232,,0.34,-0.19,0.14,1,10,10,0.39,,84,4577,6,37,56,0.901,0.0,406,4.72,13.2,0.0,1,27.0,2.6,5.6,0,0,1,1,0,,,,,,,,,,,,,,,,,,,,
87683,1627462437885,,,251,254,237,232,,0.29,-0.19,0.13,1,11,11,0.35,,84,4516,6,37,56,0.901,0.0,400,4.73,13.3,0.0,1,26.2,2.57,5.6,0,0,1,1,0,,,,,,,,,,,,,,,,,,,,
87703,1627462437905,,,251,254,237,232,,0.25,-0.16,0.2,1,11,11,0.29,,84,4635,6,37,56,0.901,0.0,406,4.76,13.3,0.0,1,27.7,2.63,5.5,0,0,1,1,0,,,,,,,,,,,,,,,,,,,,
87723,1627462437925,,,251,254,237,232,,0.18,-0.11,0.37,1,10,10,0.21,,84,4574,6,37,56,0.901,0.0,403,4.71,13.1,0.0,1,26.9,1.5,5.5,0,0,1,1,0,,,,,,,,,,,,,,,,,,,,
87743,1627462437945,14,6,251,254,237,232,-1,0.12,-0.09,0.65,1,9,8,0.15,1,84,4615,6,37,56,0.902,0.0,402,4.72,13.1,0.0,1,27.4,1.52,5.5,0,0,1,1,0,0,250,250,0,47.221169,14.761599,0.0,688.9,9,2,1.7,0,0.0,-1,0.0,,0.0,0,0.02,1.4624
87763,1627462437965,,,251,254,237,232,,0.08,-0.03,0.91,0,7,6,0.08,,84,4605,6,37,56,0.902,0.0,408,4.71,13.1,0.0,1,27.3,2.62,5.5,0,0,1,1,0,,,,,,,,,,,,,,,,,,,,
87783,1627462437985,,,251,254,237,232,,0.05,0.01,1.15,0,5,4,0.05,,84,4548,6,37,56,0.903,0.0,400,4.79,12.9,0.0,1,26.6,1.48,5.5,0,0,1,1,0,,,,,,,,,,,,,,,,,,,,
87803,1627462437997,,,251,254,237,232,,0.04,0.04,1.37,0,3,2,0.05,,84,4643,6,37,56,0.903,0.0,405,4.75,12.9,0.0,1,27.8,1.54,5.6,0,0,1,1,0,,,,,,,,,,,,,,,,,,,,
87823,1627462438017,,,251,254,237,232,,0.05,0.05,1.52,0,1,1,0.07,,84,4562,6,37,55,0.904,0.0,407,4.76,13.0,0.0,1,26.5,2.58,5.6,0,0,1,1,0,,,,,,,,,,,,,,,,,,,,
87843,1627462438037,13,7,251,254,237,232,-1,0.08,0.07,1.66,0,-1,-0,0.1,1,84,4566,6,37,55,0.904,0.0,406,4.74,13.1,0.0,1,26.5,2.58,5.6,0,0,1,1,0,0,250,250,0,47.221169,14.761599,0.0,688.9,9,2,1.7,0,0.0,-1,0.0,0.0,0.0,0,0.02,1.4641
87863,1627462438057,,,251,254,237,232,,0.1,0.07,1.59,0,-1,-1,0.13,,84,4602,6,37,56,0.905,0.0,403,4.8,12.9,0.0,1,27.3,2.62,5.6,0,0,1,1,0,,,,,,,,,,,,,,,,,,,,
87883,1627462438077,,,251,254,237,232,,0.13,0.07,1.48,0,-1,-1,0.15,,84,4530,6,37,56,0.905,0.0,403,4.76,13.0,0.0,1,26.4,2.57,5.6,0,0,1,1,0,,,,,,,,,,,,,,,,,,,,
87903,1627462438105,,,251,254,237,232,,0.17,0.04,1.37,0,-1,-1,0.18,,84,4556,6,37,56,0.905,0.0,406,4.72,13.2,0.0,1,26.7,2.59,5.4,0,0,1,1,0,,,,,,,,,,,,,,,,,,,,
87923,1627462438125,,,251,254,237,232,,0.22,0.01,1.26,0,0,-1,0.22,,84,4560,6,37,55,0.906,0.0,407,4.73,13.2,0.0,1,26.5,2.58,5.4,0,0,1,1,0,,,,,,,,,,,,,,,,,,,,
87943,1627462438145,14,6,251,254,237,232,-1,0.24,-0.01,1.16,0,1,-0,0.24,1,84,4533,6,37,55,0.905,0.0,402,4.76,13.1,0.0,1,26.1,2.56,5.4,0,0,1,1,0,0,250,250,0,47.221169,14.761599,0.0,688.9,9,2,1.7,0,0.0,-1,0.0,,0.0,0,0.02,1.4657
87963,1627462438165,,,251,254,237,232,,0.27,-0.05,1.07,0,2,1,0.28,,84,4557,6,37,56,0.905,0.0,408,4.76,13.2,0.0,1,26.7,2.58,5.4,0,0,1,1,0,,,,,,,,,,,,,,,,,,,,
87983,1627462438185,,,251,254,237,232,,0.29,-0.09,0.99,0,3,2,0.31,,84,4537,6,37,56,0.904,0.0,401,4.73,13.2,0.0,1,26.5,2.56,5.4,0,0,1,1,0,,,,,,,,,,,,,,,,,,,,
88003,1627462438205,,,251,254,237,232,,0.31,-0.11,0.91,0,4,3,0.33,,84,4535,6,37,56,0.902,0.0,407,4.71,13.2,0.0,1,26.4,2.57,5.3,0,0,1,1,0,,,,,,,,,,,,,,,,,,,,
88023,1627462438225,,,251,254,237,232,,0.32,-0.14,0.84,0,5,5,0.35,,84,4559,6,37,56,0.901,0.0,400,4.73,13.2,0.0,1,26.7,2.59,5.3,0,0,1,1,0,,,,,,,,,,,,,,,,,,,,
88043,1627462438245,14,5,251,254,237,232,-2,0.32,-0.18,0.78,1,6,6,0.37,1,84,4523,6,37,56,0.899,0.0,403,4.73,13.3,0.0,1,26.3,2.57,5.3,0,0,1,1,0,0,250,250,0,47.221169,14.761599,0.0,688.9,9,2,1.7,0,0.0,-1,0.0,0.0,0.0,0,0.02,1.4674
88063,1627462438265,,,251,254,237,232,,0.33,-0.19,0.72,1,7,7,0.38,,84,4513,6,37,56,0.898,0.0,402,4.75,13.2,0.0,1,26.2,2.56,5.3,0,0,1,1,0,,,,,,,,,,,,,,,,,,,,
88083,1627462438285,,,251,254,237,232,,0.31,-0.18,0.66,1,8,8,0.36,,84,4559,6,37,56,0.896,0.0,400,4.74,13.3,0.0,1,26.7,2.59,5.3,0,0,1,1,0,,,,,,,,,,,,,,,,,,,,
88103,1627462438305,,,251,254,237,232,,0.3,-0.19,0.61,1,9,9,0.35,,84,4505,6,37,56,0.894,0.0,401,4.8,13.2,0.0,1,26.1,2.56,5.3,0,0,1,1,1,,,,,,,,,,,,,,,,,,,,
88123,1627462438325,,,251,254,237,232,,0.28,-0.21,0.56,1,10,10,0.35,,84,4560,6,37,56,0.893,0.0,397,4.76,13.2,0.0,1,26.8,2.59,5.3,0,0,1,1,1,,,,,,,,,,,,,,,,,,,,
88143,1627462438345,14,7,251,254,237,232,-2,0.27,-0.19,0.52,1,10,11,0.32,1,84,4556,6,37,56,0.891,0.0,398,4.75,13.2,0.0,1,26.7,2.59,5.3,0,0,1,1,1,0,250,250,0,47.221169,14.761599,0.0,688.9,9,2,1.7,0,0.0,-1,0.0,,0.0,0,0.02,1.469
88163,1627462438365,,,251,254,237,232,,0.23,-0.17,0.48,1,11,11,0.29,,84,4552,6,37,56,0.89,0.0,400,4.77,13.2,0.0,1,26.7,2.58,5.3,0,0,1,1,1,,,,,,,,,,,,,,,,,,,,
88183,1627462438385,,,251,254,237,232,,0.18,-0.17,0.47,1,11,11,0.25,,84,4588,6,37,56,0.889,0.0,397,4.76,13.3,0.0,1,27.1,2.61,5.3,0,0,1,1,1,,,,,,,,,,,,,,,,,,,,
88203,1627462438405,,,251,254,237,232,,0.14,-0.15,0.53,1,10,10,0.2,,84,4556,6,37,56,0.888,0.0,404,4.71,13.2,0.0,1,26.7,1.49,5.4,0,0,1,1,1,,,,,,,,,,,,,,,,,,,,
88223,1627462438425,,,251,254,237,232,,0.08,-0.11,0.67,1,10,9,0.14,,84,4558,6,37,56,0.887,0.0,400,4.68,13.2,0.0,1,26.7,2.59,5.4,0,0,1,1,1,,,,,,,,,,,,,,,,,,,,
88243,1627462438445,14,5,251,254,237,232,-1,0.06,-0.06,0.93,0,8,8,0.08,1,84,4570,6,37,56,0.888,0.0,399,4.72,13.2,0.0,1,26.9,2.6,5.4,0,0,1,1,1,0,250,250,0,47.221169,14.761599,0.0,688.9,9,2,1.7,0,0.0,-1,0.0,0.0,0.0,0,0.02,1.4707
88263,1627462438465,,,251,254,237,232,,0.05,-0.01,1.16,0,7,6,0.05,,84,4518,6,37,56,0.889,0.0,401,4.76,13.1,0.0,1,26.5,1.48,5.4,0,0,1,1,1,,,,,,,,,,,,,,,,,,,,
88283,1627462438485,,,251,254,237,232,,0.04,0.02,1.38,0,5,4,0.04,,84,4564,6,37,56,0.889,0.0,397,4.68,13.1,0.0,1,26.8,1.49,5.4,0,0,1,1,1,,,,,,,,,,,,,,,,,,,,
88303,1627462438505,,,251,254,237,232,,0.03,0.03,1.58,0,3,3,0.04,,84,4527,6,37,56,0.891,0.0,402,4.73,13.1,0.0,1,26.3,2.57,5.4,0,0,1,1,1,,,,,,,,,,,,,,,,,,,,
88323,1627462438525,,,251,254,237,232,,0.04,0.05,1.77,0,2,1,0.06,,84,4527,6,37,56,0.892,0.0,397,4.79,12.9,0.0,1,26.3,1.47,5.4,0,0,1,1,1,,,,,,,,,,,,,,,,,,,,
88343,1627462438545,12,7,251,254,237,232,-1,0.06,0.07,1.92,0,-1,-0,0.09,1,84,4555,6,37,56,0.892,0.0,399,4.75,13.1,0.0,1,26.7,1.48,5.4,0,0,1,1,1,0,250,250,0,47.221169,14.761599,0.0,688.9,9,2,1.7,0,0.0,-1,0.0,,0.0,0,0.02,1.4724
88363,1627462438565,,,251,254,237,232,,0.07,0.06,1.97,0,-2,-2,0.09,,84,4532,6,37,56,0.893,0.0,400,4.75,13.1,0.0,1,26.4,2.57,5.4,0,0,1,1,1,,,,,,,,,,,,,,,,,,,,
88383,1627462438585,,,251,254,237,232,,0.1,0.06,1.98,0,-4,-3,0.12,,84,4566,6,37,55,0.894,0.0,400,4.77,12.9,0.0,1,26.5,1.48,5.4,0,0,1,1,1,,,,,,,,,,,,,,,,,,,,
88403,1627462438605,,,251,254,237,232,,0.13,0.05,1.9,0,-5,-4,0.14,,84,4567,6,37,56,0.896,0.0,400,4.73,13.0,0.0,1,26.8,2.59,5.4,0,0,1,1,1,,,,,,,,,,,,,,,,,,,,
88423,1627462438625,,,251,254,237,232,,0.17,0.02,1.75,0,-6,-5,0.17,,84,4604,6,37,56,0.897,0.0,402,4.76,13.1,0.0,1,27.3,2.62,5.4,0,0,1,1,1,,,,,,,,,,,,,,,,,,,,
88443,1627462438645,12,7,251,254,237,232,-1,0.2,-0.0,1.62,-0,-6,-5,0.2,1,84,4585,6,37,56,0.899,0.0,403,4.76,13.1,0.0,1,27.1,2.61,5.4,0,0,1,1,1,0,250,250,0,47.221169,14.761599,0.0,688.9,9,2,1.7,0,0.0,-1,0.0,0.0,0.0,0,0.02,1.4741
88463,1627462438665,,,251,254,237,232,,0.23,-0.07,1.49,0,-6,-5,0.24,,84,4575,6,37,55,0.901,0.0,406,4.76,13.2,0.0,1,26.6,2.6,5.4,0,0,1,1,1,,,,,,,,,,,,,,,,,,,,
88483,1627462438685,,,251,254,237,232,,0.26,-0.11,1.38,0,-4,-5,0.28,,84,4584,6,37,55,0.902,0.0,401,4.78,13.1,0.0,1,26.8,2.6,5.4,0,0,1,1,1,,,,,,,,,,,,,,,,,,,,
88503,1627462438704,,,251,254,237,232,,0.27,-0.12,1.27,0,-3,-3,0.3,,84,4535,6,37,56,0.902,0.0,407,4.72,13.2,0.0,1,26.4,2.56,5.4,0,0,1,1,1,,,,,,,,,,,,,,,,,,,,
88523,1627462438724,,,251,254,237,232,,0.27,-0.13,1.17,0,-2,-2,0.3,,84,4553,6,37,55,0.902,0.0,396,4.73,13.2,0.0,1,26.4,2.57,5.4,0,0,1,1,1,,,,,,,,,,,,,,,,,,,,
88543,1627462438744,14,7,251,254,237,232,-2,0.26,-0.15,1.08,0,-0,-0,0.3,1,84,4557,6,37,56,0.901,0.0,402,4.71,13.2,0.0,1,26.7,2.59,5.4,0,0,1,1,1,0,250,250,0,47.221169,14.761599,0.0,688.9,9,2,1.7,0,0.0,-1,0.0,,0.0,0,0.02,1.4757
88563,1627462438764,,,251,254,237,232,,0.25,-0.16,1.0,0,1,1,0.3,,84,4489,6,37,56,0.901,0.0,399,4.73,13.2,0.0,1,25.9,2.55,5.4,0,0,1,1,1,,,,,,,,,,,,,,,,,,,,
88583,1627462438784,,,251,254,237,232,,0.24,-0.15,0.92,0,2,2,0.28,,84,4518,6,37,56,0.901,0.0,396,4.71,13.2,0.0,1,26.2,2.57,5.4,0,0,1,1,1,,,,,,,,,,,,,,,,,,,,
88603,1627462438804,,,251,254,237,232,,0.22,-0.15,0.85,0,3,3,0.27,,84,4508,6,37,56,0.902,0.0,400,4.76,13.2,0.0,1,26.1,2.56,5.4,0,0,1,1,1,,,,,,,,,,,,,,,,,,,,
88623,1627462438824,,,251,254,237,232,,0.23,-0.17,0.78,0,4,3,0.29,,84,4456,6,37,56,0.902,0.0,396,4.75,13.2,0.0,1,25.5,2.52,5.4,0,0,1,1,1,,,,,,,,,,,,,,,,,,,,
88643,1627462438844,14,7,251,254,237,232,-2,0.22,-0.17,0.72,0,5,4,0.28,1,84,4568,6,37,56,0.902,0.0,394,4.71,13.2,0.0,1,26.9,2.59,5.4,0,0,1,1,1,0,250,250,0,47.221169,14.761599,0.0,688.9,9,2,1.7,0,0.0,-1,0.0,0.0,0.0,0,0.02,1.4774
88663,1627462438864,,,251,254,237,232,,0.2,-0.17,0.67,1,5,5,0.27,,84,4503,6,37,56,0.902,0.0,398,4.75,13.2,0.0,1,26.0,2.56,5.4,0,0,1,1,1,,,,,,,,,,,,,,,,,,,,
88683,1627462438884,,,251,254,237,232,,0.19,-0.19,0.62,1,6,6,0.27,,84,4547,6,37,56,0.902,0.0,393,4.75,13.2,0.0,1,26.6,2.58,5.4,0,0,1,1,1,,,,,,,,,,,,,,,,,,,,
88703,1627462438904,,,251,254,237,232,,0.17,-0.17,0.57,1,7,7,0.24,,84,4556,6,37,56,0.902,0.0,405,4.73,13.2,0.0,1,26.7,2.59,5.5,0,0,1,1,1,,,,,,,,,,,,,,,,,,,,
88723,1627462438924,,,251,254,237,232,,0.15,-0.15,0.52,1,8,8,0.21,,84,4510,6,37,56,0.903,0.0,395,4.75,13.2,0.0,1,26.1,2.56,5.5,0,0,1,1,1,,,,,,,,,,,,,,,,,,,,
88743,1627462438944,14,5,251,254,237,232,-1,0.1,-0.13,0.54,1,9,9,0.16,1,84,4621,6,37,56,0.903,0.0,400,4.73,13.3,0.0,1,27.5,2.62,5.5,0,0,1,1,1,0,250,250,0,47.221169,14.761599,0.0,688.9,9,2,1.7,0,0.0,-1,0.0,,0.0,0,0.02,1.4791
88763,1627462438964,,,251,254,237,232,,0.05,-0.12,0.68,1,9,9,0.13,,84,4541,6,37,56,0.904,0.0,406,4.77,13.2,0.0,1,26.5,2.58,5.5,0,0,1,1,1,,,,,,,,,,,,,,,,,,,,
88783,1627462438984,,,251,254,237,232,,0.02,-0.09,0.81,1,10,9,0.09,,84,4555,6,37,56,0.904,0.0,400,4.77,13.2,0.0,1,26.7,2.58,5.5,0,0,1,1,1,,,,,,,,,,,,,,,,,,,,
88803,1627462438996,,,251,254,237,232,,-0.03,-0.06,1.06,1,9,9,0.07,,84,4609,6,37,56,0.904,0.0,404,4.74,13.2,0.0,1,27.4,2.62,5.5,0,0,1,1,1,,,,,,,,,,,,,,,,,,,,
88823,1627462439016,,,251,254,237,232,,-0.08,-0.03,1.28,1,9,8,0.08,,84,4524,6,37,56,0.904,0.0,398,4.75,13.2,0.0,1,26.3,1.47,5.5,0,0,1,1,1,,,,,,,,,,,,,,,,,,,,
88843,1627462439036,14,6,251,254,237,232,-1,-0.1,0.02,1.49,0,8,7,0.1,1,84,4619,6,37,56,0.902,0.0,404,4.76,13.1,0.0,1,27.5,1.52,5.5,0,0,1,1,1,0,250,250,0,47.221169,14.761599,0.0,688.9,9,2,1.8,0,0.0,-1,0.0,0.0,0.0,0,0.02,1.4807
88863,1627462439056,,,251,254,237,232,,-0.11,0.05,1.69,0,7,5,0.12,,84,4576,6,37,56,0.901,0.0,406,4.75,13.0,0.0,1,26.5,1.48,5.5,0,0,1,1,1,,,,,,,,,,,,,,,,,,,,
88883,1627462439076,,,251,254,237,232,,-0.11,0.08,1.86,0,4,3,0.14,,84,4584,6,37,56,0.9,0.0,398,4.75,13.1,0.0,1,27.1,1.51,5.5,0,0,1,1,1,,,,,,,,,,,,,,,,,,,,
88903,1627462439104,,,251,254,237,232,,-0.08,0.1,1.96,0,2,1,0.12,,84,4626,6,37,56,0.899,0.0,407,4.75,13.1,0.0,1,27.6,2.63,5.7,0,0,1,1,1,,,,,,,,,,,,,,,,,,,,
88923,1627462439124,,,251,254,237,232,,-0.03,0.09,1.96,0,0,-0,0.1,,84,4562,6,37,55,0.898,0.0,406,4.78,13.0,0.0,1,26.5,2.59,5.7,0,0,1,1,1,,,,,,,,,,,,,,,,,,,,
88943,1627462439144,14,5,251,254,237,232,-1,0.02,0.08,1.81,0,-1,-1,0.08,1,84,4657,6,37,55,0.897,0.0,401,4.81,12.9,0.0,1,27.7,2.65,5.7,0,0,1,1,1,0,250,250,0,47.221169,14.761599,0.0,688.9,9,2,1.8,0,0.0,-1,0.0,,0.0,0,0.02,1.4824
88963,1627462439164,,,251,254,237,232,,0.07,0.04,1.67,0,-2,-2,0.08,,84,4604,6,37,55,0.897,0.0,406,4.79,13.0,0.0,1,27.0,2.61,5.7,0,0,1,1,0,,,,,,,,,,,,,,,,,,,,
88983,1627462439184,,,251,254,237,232,,0.11,-0.01,1.54,0,-1,-2,0.11,,84,4604,6,37,55,0.897,0.0,402,4.73,13.2,0.0,1,27.0,2.61,5.7,0,0,1,1,0,,,,,,,,,,,,,,,,,,,,
89003,1627462439206,,,251,254,237,232,,0.12,-0.04,1.42,0,0,-0,0.13,,84,4663,6,37,55,0.896,0.0,416,4.76,13.2,0.0,1,27.7,2.65,5.7,0,0,1,1,0,,,,,,,,,,,,,,,,,,,,
89023,1627462439226,,,251,254,237,232,,0.12,-0.07,1.31,0,1,1,0.14,,84,4554,6,37,55,0.896,0.0,406,4.76,13.2,0.0,1,26.4,2.57,5.7,0,0,1,1,0,,,,,,,,,,,,,,,,,,,,
89043,1627462439246,13,6,251,254,237,232,-1,0.11,-0.09,1.21,0,3,3,0.14,1,84,4556,6,37,56,0.895,0.0,403,4.77,13.2,0.0,1,26.7,2.58,5.7,0,0,1,1,0,0,250,250,0,47.221169,14.761599,0.0,688.9,9,2,1.8,0,0.0,-1,0.0,0.0,0.0,0,0.02,1.4841
89063,1627462439266,,,251,254,237,232,,0.1,-0.09,1.12,0,4,4,0.13,,84,4506,6,37,56,0.895,0.0,400,4.75,13.2,0.0,1,26.1,2.55,5.7,0,0,1,1,0,,,,,,,,,,,,,,,,,,,,
89083,1627462439286,,,251,254,237,232,,0.08,-0.08,1.03,0,5,5,0.12,,84,4458,6,37,56,0.896,0.0,397,4.76,13.3,0.0,1,25.5,2.51,5.7,0,0,1,1,0,,,,,,,,,,,,,,,,,,,,
89103,1627462439304,,,251,254,237,232,,0.07,-0.1,0.95,0,7,6,0.12,,84,4522,6,37,56,0.896,0.0,398,4.74,13.2,0.0,1,26.3,2.57,5.3,0,0,1,1,0,,,,,,,,,,,,,,,,,,,,
89123,1627462439324,,,251,254,237,232,,0.08,-0.12,0.88,0,7,6,0.14,,84,4449,6,37,56,0.898,0.0,395,4.76,13.2,0.0,1,25.4,2.52,5.3,0,0,1,1,0,,,,,,,,,,,,,,,,,,,,
89143,1627462439344,13,7,251,254,237,232,-1,0.08,-0.12,0.81,1,8,7,0.15,1,84,4503,6,37,56,0.898,0.0,393,4.72,13.2,0.0,1,26.0,2.56,5.3,0,0,1,1,0,0,250,250,0,47.221169,14.761599,0.0,688.9,9,2,1.8,0,0.0,-1,0.0,,0.0,0,0.02,1.4857
89163,1627462439364,,,251,254,237,232,,0.07,-0.13,0.75,1,8,7,0.15,,84,4520,6,37,56,0.898,0.0,399,4.76,13.2,0.0,1,26.3,2.57,5.3,0,0,1,1,0,,,,,,,,,,,,,,,,,,,,
89183,1627462439384,,,251,254,237,232,,0.08,-0.15,0.69,1,9,7,0.17,,84,4437,6,37,56,0.898,0.0,391,4.75,13.2,0.0,1,25.2,2.51,5.3,0,0,1,1,0,,,,,,,,,,,,,,,,,,,,
89203,1627462439406,,,251,254,237,232,,0.08,-0.17,0.64,1,10,8,0.19,,84,4547,6,37,56,0.898,0.0,397,4.75,13.2,0.0,1,26.6,2.58,5.3,0,0,1,1,0,,,,,,,,,,,,,,,,,,,,
89223,1627462439426,,,251,254,237,232,,0.09,-0.18,0.59,1,10,9,0.2,,84,4483,6,37,56,0.897,0.0,393,4.76,13.2,0.0,1,25.8,2.54,5.3,0,0,1,1,0,,,,,,,,,,,,,,,,,,,,
89243,1627462439446,13,7,251,254,237,232,-1,0.09,-0.17,0.54,1,11,9,0.19,1,84,4505,6,37,56,0.897,0.0,399,4.76,13.2,0.0,1,26.1,2.56,5.3,0,0,1,1,0,0,250,250,0,47.221169,14.761599,0.0,688.9,9,2,1.8,0,0.0,-1,0.0,0.0,0.0,0,0.02,1.4874
89263,1627462439466,,,251,254,237,232,,0.08,-0.17,0.5,1,12,10,0.19,,84,4597,6,37,56,0.897,0.0,400,4.72,13.2,0.0,1,27.2,2.61,5.3,0,0,1,1,0,,,,,,,,,,,,,,,,,,,,
89283,1627462439486,,,251,254,237,232,,0.07,-0.18,0.46,1,12,11,0.2,,84,4505,6,37,56,0.897,0.0,402,4.73,13.2,0.0,1,26.1,2.56,5.3,0,0,1,1,0,,,,,,,,,,,,,,,,,,,,
89303,1627462439506,,,251,254,237,232,,0.04,-0.16,0.43,1,12,12,0.16,,84,4586,6,37,56,0.896,0.0,402,4.75,13.3,0.0,1,27.1,2.61,5.4,0,0,1,1,0,,,,,,,,,,,,,,,,,,,,
89323,1627462439526,,,251,254,237,232,,0.0,-0.16,0.49,1,12,12,0.16,,84,4569,6,37,56,0.895,0.0,401,4.73,13.2,0.0,1,26.9,2.59,5.4,0,0,1,1,0,,,,,,,,,,,,,,,,,,,,
89343,1627462439546,14,5,251,254,237,232,-1,-0.03,-0.16,0.52,1,13,12,0.16,1,84,4511,6,37,56,0.893,0.0,403,4.73,13.2,0.0,1,26.1,2.56,5.4,0,0,1,1,0,0,250,250,0,47.221169,14.761599,0.0,688.9,9,2,1.8,0,0.0,-1,0.0,,0.0,0,0.02,1.4891
89363,1627462439566,,,251,254,237,232,,-0.06,-0.12,0.77,1,12,12,0.13,,84,4618,6,37,56,0.891,0.0,398,4.72,13.2,0.0,1,27.5,2.62,5.4,0,0,1,1,0,,,,,,,,,,,,,,,,,,,,
89383,1627462439586,,,251,254,237,232,,-0.1,-0.07,0.97,1,12,11,0.12,,84,4546,6,37,56,0.891,0.0,400,4.76,13.2,0.0,1,26.6,1.48,5.4,0,0,1,1,0,,,,,,,,,,,,,,,,,,,,
89403,1627462439606,,,251,254,237,232,,-0.14,-0.05,1.2,1,11,10,0.15,,84,4559,6,37,56,0.891,0.0,405,4.73,13.2,0.0,1,26.7,2.59,5.4,0,0,1,1,0,,,,,,,,,,,,,,,,,,,,
89423,1627462439626,,,251,254,237,232,,-0.16,0.01,1.42,0,10,8,0.16,,84,4619,6,37,56,0.891,0.0,401,4.72,13.1,0.0,1,27.5,1.51,5.4,0,0,1,1,0,,,,,,,,,,,,,,,,,,,,
89443,1627462439646,13,7,251,254,237,232,-2,-0.17,0.05,1.62,0,8,7,0.18,1,84,4525,6,37,56,0.891,0.0,402,4.68,13.0,0.0,1,26.3,1.47,5.4,0,0,1,1,0,0,250,250,0,47.221169,14.761599,0.0,688.9,9,2,1.8,0,0.0,-1,0.0,0.0,0.0,0,0.02,1.4907
89463,1627462439666,,,251,254,237,232,,-0.18,0.07,1.8,0,6,5,0.19,,84,4586,6,37,56,0.892,0.0,397,4.71,13.1,0.0,1,27.5,2.62,5.4,0,0,1,1,0,,,,,,,,,,,,,,,,,,,,
89483,1627462439686,,,251,254,237,232,,-0.17,0.1,1.97,0,4,3,0.19,,84,4534,6,37,56,0.893,0.0,399,4.78,12.9,0.0,1,26.4,1.47,5.4,0,0,1,1,0,,,,,,,,,,,,,,,,,,,,
89503,1627462439705,,,251,254,237,232,,-0.14,0.13,2.12,0,2,1,0.19,,84,4565,6,37,56,0.895,0.0,402,4.75,12.9,0.0,1,26.8,1.49,5.4,0,0,1,1,0,,,,,,,,,,,,,,,,,,,,
89523,1627462439725,,,251,254,237,232,,-0.11,0.14,2.2,0,-0,-1,0.18,,84,4563,6,37,56,0.896,0.0,397,4.74,13.0,0.0,1,26.8,2.59,5.4,0,0,1,1,0,,,,,,,,,,,,,,,,,,,,
89543,1627462439745,14,5,251,254,237,232,-1,-0.08,0.14,2.28,0,-2,-2,0.16,1,84,4493,6,37,56,0.898,0.0,402,4.78,12.9,0.0,1,25.9,2.55,5.4,0,0,1,1,0,0,250,250,0,47.221169,14.761599,0.0,688.9,9,2,1.8,0,0.0,-1,0.0,,0.0,0,0.02,1.4924
89563,1627462439765,,,251,254,237,232,,-0.04,0.13,2.3,0,-4,-4,0.14,,84,4595,6,37,56,0.9,0.0,397,4.79,13.0,0.0,1,27.2,2.61,5.4,0,0,1,1,0,,,,,,,,,,,,,,,,,,,,
89583,1627462439785,,,251,254,237,232,,0.01,0.11,2.15,0,-4,-4,0.11,,84,4542,6,37,56,0.902,0.0,402,4.76,13.1,0.0,1,26.5,2.58,5.4,0,0,1,1,0,,,,,,,,,,,,,,,,,,,,
89603,1627462439805,,,251,254,237,232,,0.05,0.1,2.01,0,-5,-5,0.11,,84,4566,6,37,56,0.904,0.0,400,4.72,13.1,0.0,1,26.8,2.59,5.3,0,0,1,1,0,,,,,,,,,,,,,,,,,,,,
89623,1627462439825,,,251,254,237,232,,0.09,0.07,1.85,0,-5,-5,0.12,,84,4606,6,37,56,0.906,0.0,401,4.77,13.2,0.0,1,27.3,2.62,5.3,0,0,1,1,0,,,,,,,,,,,,,,,,,,,,
89643,1627462439845,14,6,251,254,237,232,-1,0.14,0.04,1.71,0,-5,-5,0.14,1,84,4518,6,37,56,0.907,0.0,405,4.75,13.0,0.0,1,26.2,2.57,5.3,0,0,1,1,0,0,250,250,0,47.221169,14.761599,0.0,688.9,9,2,1.8,0,0.0,-1,0.0,0.0,0.0,0,0.02,1.4941
89663,1627462439865,,,251,254,237,232,,0.17,0.0,1.58,0,-4,-4,0.17,,84,4602,6,37,56,0.908,0.0,405,4.76,13.2,0.0,1,27.3,2.62,5.3,0,0,1,1,0,,,,,,,,,,,,,,,,,,,,
89683,1627462439885,,,251,254,237,232,,0.19,-0.02,1.46,0,-2,-3,0.19,,84,4538,6,37,56,0.908,0.0,402,4.74,13.1,0.0,1,26.5,2.57,5.3,0,0,1,1,0,,,,,,,,,,,,,,,,,,,,
89703,1627462439905,,,251,254,237,232,,0.21,-0.09,1.34,0,-1,-2,0.22,,84,4555,6,37,56,0.908,0.0,408,4.72,13.2,0.0,1,26.7,2.58,5.3,0,0,1,1,0,,,,,,,,,,,,,,,,,,,,
89723,1627462439925,,,251,254,237,232,,0.21,-0.1,1.24,0,1,-0,0.23,,84,4615,6,37,56,0.907,0.0,403,4.75,13.2,0.0,1,27.4,2.62,5.3,0,0,1,1,0,,,,,,,,,,,,,,,,,,,,
89743,1627462439945,14,5,251,254,237,232,-2,0.2,-0.11,1.15,0,2,1,0.23,1,84,4526,6,37,56,0.905,0.0,409,4.75,13.2,0.0,1,26.3,2.57,5.3,0,0,1,1,0,0,250,250,0,47.221169,14.761599,0.0,688.9,9,2,1.8,0,0.0,-1,0.0,,0.0,0,0.02,1.4957
89763,1627462439965,,,251,254,237,232,,0.17,-0.11,1.06,0,4,4,0.21,,84,4615,6,37,56,0.904,0.0,400,4.75,13.2,0.0,1,27.4,2.62,5.3,0,0,1,1,0,,,,,,,,,,,,,,,,,,,,
89783,1627462439985,,,251,254,237,232,,0.14,-0.1,1.06,0,5,5,0.18,,84,4615,6,37,56,0.902,0.0,407,4.73,13.2,0.0,1,27.4,2.62,5.3,0,0,1,1,0,,,,,,,,,,,,,,,,,,,,
89803,1627462439997,,,251,254,237,232,,0.09,-0.07,1.07,0,5,5,0.11,,84,4546,6,37,56,0.901,0.0,410,4.73,13.2,0.0,1,26.6,2.58,5.4,0,0,1,1,0,,,,,,,,,,,,,,,,,,,,
89823,1627462440017,,,251,254,237,232,,0.04,-0.07,1.29,0,5,5,0.08,,84,4629,6,37,56,0.9,0.0,402,4.7,13.2,0.0,1,27.6,1.53,5.4,0,0,1,1,0,,,,,,,,,,,,,,,,,,,,
89843,1627462440037,14,6,251,254,237,232,-2,-0.01,-0.02,1.5,0,5,4,0.02,1,84,4569,6,37,56,0.899,0.0,408,4.73,13.2,0.0,1,26.9,2.59,5.4,0,0,1,1,0,0,250,250,0,47.221169,14.761599,0.0,688.9,9,2,1.7,0,0.0,-1,0.0,0.0,0.0,0,0.02,1.4974
89863,1627462440057,,,251,254,237,232,,-0.04,0.04,1.69,0,4,3,0.06,,84,4580,6,37,56,0.898,0.0,401,4.7,13.2,0.0,1,27.0,2.6,5.4,0,0,1,1,0,,,,,,,,,,,,,,,,,,,,
89883,1627462440077,,,251,254,237,232,,-0.06,0.07,1.87,0,2,1,0.09,,84,4604,6,37,56,0.897,0.0,400,4.76,13.0,0.0,1,27.3,1.52,5.4,0,0,1,1,0,,,,,,,,,,,,,,,,,,,,
89903,1627462440105,,,251,254,237,232,,-0.06,0.08,2.03,0,1,-0,0.11,,84,4541,6,37,56,0.896,0.0,402,4.75,13.1,0.0,1,26.5,2.58,5.4,0,0,1,1,0,,,,,,,,,,,,,,,,,,,,
89923,1627462440125,,,251,254,237,232,,-0.05,0.11,2.19,0,-2,-2,0.12,,84,4617,6,37,56,0.895,0.0,401,4.79,13.1,0.0,1,27.5,2.62,5.4,0,0,1,1,0,,,,,,,,,,,,,,,,,,,,
89943,1627462440145,13,7,251,254,237,232,-1,-0.03,0.12,2.22,0,-3,-3,0.12,1,84,4533,6,37,55,0.894,0.0,403,4.78,12.9,0.0,1,26.1,2.56,5.4,0,0,1,1,0,0,250,250,0,47.221169,14.761599,0.0,688.9,9,2,1.7,0,0.0,-1,0.0,,0.0,0,0.02,1.499
89963,1627462440165,,,251,254,237,232,,-0.01,0.13,2.29,0,-4,-4,0.13,,84,4530,6,37,55,0.895,0.0,400,4.81,13.0,0.0,1,26.1,1.46,5.4,0,0,1,1,0,,,,,,,,,,,,,,,,,,,,
89983,1627462440185,,,251,254,237,232,,0.02,0.11,2.18,0,-5,-5,0.11,,84,4604,6,37,56,0.895,0.0,398,4.71,13.0,0.0,1,27.3,2.62,5.4,0,0,1,1,0,,,,,,,,,,,,,,,,,,,,
90003,1627462440205,,,251,254,237,232,,0.05,0.1,2.07,0,-5,-5,0.11,,84,4505,6,37,55,0.895,0.0,405,4.73,13.1,0.0,1,25.8,2.55,5.3,0,0,1,1,0,,,,,,,,,,,,,,,,,,,,
90023,1627462440225,,,251,254,237,232,,0.08,0.09,1.91,-0,-6,-6,0.12,,84,4563,6,37,56,0.895,0.0,393,4.74,13.1,0.0,1,26.8,2.59,5.3,0,0,1,1,0,,,,,,,,,,,,,,,,,,,,
90043,1627462440245,14,6,251,254,237,232,-1,0.12,0.07,1.76,0,-5,-6,0.14,1,84,4544,6,37,56,0.895,0.0,403,4.77,13.1,0.0,1,26.6,2.58,5.3,0,0,1,1,0,0,250,250,0,47.221169,14.761599,0.0,688.9,9,2,1.7,0,0.0,-1,0.0,0.0,0.0,0,0.02,1.5007
90063,1627462440265,,,251,254,237,232,,0.16,0.05,1.63,0,-5,-6,0.17,,84,4512,6,37,56,0.895,0.0,401,4.71,13.1,0.0,1,26.2,2.55,5.3,0,0,1,1,0,,,,,,,,,,,,,,,,,,,,
90083,1627462440285,,,251,254,237,232,,0.19,0.03,1.5,0,-5,-5,0.19,,84,4586,6,37,56,0.895,0.0,403,4.72,13.2,0.0,1,27.1,2.61,5.3,0,0,1,1,0,,,,,,,,,,,,,,,,,,,,
90103,1627462440307,,,251,254,237,232,,0.22,0.01,1.38,0,-4,-4,0.22,,84,4513,6,37,56,0.895,0.0,404,4.75,13.1,0.0,1,26.2,2.56,5.4,0,0,1,1,0,,,,,,,,,,,,,,,,,,,,
90123,1627462440327,,,251,254,237,232,,0.24,-0.03,1.28,0,-2,-4,0.24,,84,4583,6,37,56,0.895,0.0,398,4.72,13.2,0.0,1,27.0,2.6,5.4,0,0,1,1,0,,,,,,,,,,,,,,,,,,,,
90143,1627462440347,14,5,251,254,237,232,-2,0.26,-0.06,1.18,0,-1,-2,0.27,1,84,4567,6,37,56,0.895,0.0,404,4.72,13.2,0.0,1,26.8,2.59,5.4,0,0,1,1,0,0,250,250,0,47.221169,14.761599,0.0,688.9,9,2,1.7,0,0.0,-1,0.0,,0.0,0,0.02,1.5024
90163,1627462440367,,,251,254,237,232,,0.28,-0.08,1.09,0,0,-1,0.29,,84,4509,6,37,56,0.895,0.0,402,4.8,13.2,0.0,1,26.1,2.56,5.4,0,0,1,1,0,,,,,,,,,,,,,,,,,,,,
90183,1627462440387,,,251,254,237,232,,0.28,-0.1,1.0,0,2,1,0.3,,84,4567,6,37,56,0.895,0.0,399,4.76,13.2,0.0,1,26.8,2.59,5.4,0,0,1,1,0,,,,,,,,,,,,,,,,,,,,
90203,1627462440407,,,251,254,237,232,,0.29,-0.14,0.93,0,2,2,0.32,,84,4481,6,37,56,0.895,0.0,409,4.74,13.2,0.0,1,25.8,2.54,5.3,0,0,1,1,0,,,,,,,,,,,,,,,,,,,,
90223,1627462440427,,,251,254,237,232,,0.28,-0.15,0.86,0,4,3,0.32,,84,4555,6,37,56,0.895,0.0,397,4.72,13.2,0.0,1,26.7,2.58,5.3,0,0,1,1,0,,,,,,,,,,,,,,,,,,,,
90243,1627462440447,14,5,251,254,237,232,-1,0.26,-0.14,0.79,0,4,4,0.3,1,84,4554,6,37,56,0.894,0.0,407,4.74,13.2,0.0,1,26.7,2.58,5.3,0,0,1,1,0,0,250,250,0,47.221169,14.761599,0.0,688.9,9,2,1.7,0,0.0,-1,0.0,0.0,0.0,0,0.02,1.504
90263,1627462440467,,,251,254,237,232,,0.24,-0.17,0.73,0,6,5,0.3,,84,4503,6,37,56,0.893,0.0,399,4.75,13.2,0.0,1,26.0,2.56,5.3,0,0,1,1,0,,,,,,,,,,,,,,,,,,,,
90283,1627462440487,,,251,254,237,232,,0.22,-0.16,0.67,1,7,7,0.27,,84,4573,6,37,56,0.893,0.0,399,4.75,13.3,0.0,1,26.9,2.6,5.3,0,0,1,1,0,,,,,,,,,,,,,,,,,,,,
90303,1627462440507,,,251,254,237,232,,0.19,-0.14,0.62,1,7,7,0.24,,84,4521,6,37,56,0.892,0.0,401,4.75,13.3,0.0,1,26.3,2.57,5.4,0,0,1,1,0,,,,,,,,,,,,,,,,,,,,
90323,1627462440527,,,251,254,237,232,,0.15,-0.13,0.57,1,9,8,0.2,,84,4525,6,37,56,0.892,0.0,396,4.72,13.2,0.0,1,26.3,2.57,5.4,0,0,1,1,0,,,,,,,,,,,,,,,,,,,,
90343,1627462440547,14,7,251,254,237,232,-1,0.12,-0.14,0.59,1,9,9,0.19,1,84,4580,6,37,56,0.892,0.0,404,4.75,13.2,0.0,1,27.0,2.6,5.4,0,0,1,1,0,0,250,250,0,47.221169,14.761599,0.0,688.9,9,2,1.7,0,0.0,-1,0.0,,0.0,0,0.02,1.5057
90363,1627462440567,,,251,254,237,232,,0.09,-0.13,0.56,1,9,9,0.16,,84,4487,6,37,56,0.893,0.0,401,4.73,13.2,0.0,1,25.8,2.55,5.4,0,0,1,1,0,,,,,,,,,,,,,,,,,,,,
90383,1627462440587,,,251,254,237,232,,0.06,-0.11,0.57,1,10,9,0.13,,84,4558,6,37,56,0.893,0.0,396,4.72,13.2,0.0,1,26.7,2.59,5.4,0,0,1,1,0,,,,,,,,,,,,,,,,,,,,
90403,1627462440607,,,251,254,237,232,,0.02,-0.11,0.77,1,9,9,0.11,,84,4582,6,37,56,0.893,0.0,403,4.76,13.2,0.0,1,27.0,2.6,5.5,0,0,1,1,0,,,,,,,,,,,,,,,,,,,,
90423,1627462440627,,,251,254,237,232,,-0.03,-0.09,0.93,1,9,8,0.09,,84,4532,6,37,56,0.893,0.0,397,4.73,13.2,0.0,1,26.4,1.47,5.5,0,0,1,1,0,,,,,,,,,,,,,,,,,,,,
90443,1627462440647,14,6,251,254,237,232,-1,-0.06,-0.03,1.17,0,7,6,0.06,1,84,4659,6,37,56,0.893,0.0,404,4.72,13.1,0.0,1,28.0,1.55,5.5,0,0,1,1,0,0,250,250,0,47.221169,14.761599,0.0,688.9,9,2,1.7,0,0.0,-1,0.0,0.0,0.0,0,0.02,1.5074
90463,1627462440667,,,251,254,237,232,,-0.08,-0.01,1.39,0,6,5,0.08,,84,4573,6,37,56,0.894,0.0,404,4.71,13.1,0.0,1,26.9,2.6,5.5,0,0,1,1,0,,,,,,,,,,,,,,,,,,,,
90483,1627462440687,,,251,254,237,232,,-0.07,0.03,1.59,0,3,3,0.08,,84,4643,6,37,56,0.895,0.0,402,4.78,12.9,0.0,1,27.8,1.54,5.5,0,0,1,1,0,,,,,,,,,,,,,,,,,,,,
90503,1627462440706,,,251,254,237,232,,-0.03,0.03,1.62,0,2,1,0.04,,84,4656,6,37,56,0.895,0.0,414,4.75,13.0,0.0,1,28.0,2.65,5.8,0,0,1,1,0,,,,,,,,,,,,,,,,,,,,
90523,1627462440726,,,251,254,237,232,,0.02,0.01,1.6,0,0,-0,0.02,,84,4592,6,37,55,0.896,0.0,403,4.78,13.1,0.0,1,26.9,2.6,5.8,0,0,1,1,0,,,,,,,,,,,,,,,,,,,,
90543,1627462440746,12,7,251,254,237,232,-1,0.07,-0.01,1.47,0,-0,-1,0.07,1,84,4626,6,37,55,0.897,0.0,408,4.77,13.0,0.0,1,27.3,2.63,5.8,0,0,1,1,0,0,250,250,0,47.221169,14.761599,0.0,688.9,9,2,1.7,0,0.0,-1,0.0,,0.0,0,0.02,1.509
90563,1627462440766,,,251,254,237,232,,0.11,-0.05,1.36,0,1,-0,0.12,,84,4619,6,37,55,0.897,0.0,407,4.75,13.2,0.0,1,27.2,2.62,5.8,0,0,1,1,0,,,,,,,,,,,,,,,,,,,,
90583,1627462440786,,,251,254,237,232,,0.14,-0.07,1.26,0,2,1,0.16,,84,4608,6,37,55,0.897,0.0,409,4.73,13.2,0.0,1,27.1,2.61,5.8,0,0,1,1,0,,,,,,,,,,,,,,,,,,,,
90603,1627462440806,,,251,254,237,232,,0.15,-0.09,1.16,0,3,3,0.17,,84,4601,6,37,55,0.897,0.0,413,4.71,13.2,0.0,1,27.0,2.61,5.6,0,0,1,1,0,,,,,,,,,,,,,,,,,,,,
90623,1627462440826,,,251,254,237,232,,0.16,-0.13,1.07,0,4,4,0.2,,84,4520,6,37,55,0.897,0.0,405,4.75,13.3,0.0,1,26.0,2.56,5.6,0,0,1,1,0,,,,,,,,,,,,,,,,,,,,
90643,1627462440846,14,6,251,254,237,232,-1,0.15,-0.14,0.99,0,5,5,0.21,1,84,4512,6,37,55,0.897,0.0,402,4.75,13.2,0.0,1,25.9,2.55,5.6,0,0,1,1,0,0,250,250,0,47.221169,14.761599,0.0,688.9,9,2,1.7,0,0.0,-1,0.0,0.0,0.0,0,0.02,1.5107
90663,1627462440866,,,251,254,237,232,,0.14,-0.14,0.91,0,7,6,0.2,,84,4492,6,37,56,0.897,0.0,400,4.75,13.3,0.0,1,25.9,2.55,5.6,0,0,1,1,0,,,,,,,,,,,,,,,,,,,,
90683,1627462440886,,,251,254,237,232,,0.14,-0.15,0.84,1,8,7,0.2,,84,4505,6,37,56,0.896,0.0,397,4.72,13.2,0.0,1,26.1,2.55,5.6,0,0,1,1,0,,,,,,,,,,,,,,,,,,,,
90703,1627462440906,,,251,254,237,232,,0.14,-0.17,0.78,1,8,8,0.22,,84,4516,6,37,56,0.897,0.0,403,4.73,13.2,0.0,1,26.2,2.57,5.3,0,0,1,1,0,,,,,,,,,,,,,,,,,,,,
90723,1627462440926,,,251,254,237,232,,0.15,-0.17,0.72,1,9,9,0.23,,84,4465,6,37,56,0.898,0.0,395,4.75,13.2,0.0,1,25.6,2.53,5.3,0,0,1,1,0,,,,,,,,,,,,,,,,,,,,
90743,1627462440946,14,5,251,254,237,232,-1,0.15,-0.16,0.66,1,10,10,0.22,1,84,4501,6,37,56,0.898,0.0,401,4.73,13.2,0.0,1,26.0,2.56,5.3,0,0,1,1,0,0,250,250,0,47.221169,14.761599,0.0,688.9,9,2,1.7,0,0.0,-1,0.0,,0.0,0,0.02,1.5124
90763,1627462440966,,,251,254,237,232,,0.15,-0.16,0.61,1,11,10,0.22,,84,4500,6,37,56,0.899,0.0,396,4.74,13.2,0.0,1,26.0,2.56,5.3,0,0,1,1,0,,,,,,,,,,,,,,,,,,,,
90783,1627462440986,,,251,254,237,232,,0.16,-0.18,0.56,1,11,11,0.24,,84,4473,6,37,56,0.899,0.0,396,4.75,13.2,0.0,1,25.7,2.54,5.3,0,0,1,1,0,,,,,,,,,,,,,,,,,,,,
90803,1627462440998,,,251,254,237,232,,0.17,-0.19,0.52,1,12,11,0.25,,84,4520,6,37,56,0.899,0.0,393,4.73,13.2,0.0,1,26.3,2.57,5.3,0,0,1,1,0,,,,,,,,,,,,,,,,,,,,
90823,1627462441018,,,251,254,237,232,,0.17,-0.18,0.48,1,13,12,0.24,,84,4485,6,37,56,0.9,0.0,393,4.72,13.2,0.0,1,25.8,2.54,5.3,0,0,1,1,0,,,,,,,,,,,,,,,,,,,,
90843,1627462441038,14,5,251,254,237,232,-1,0.18,-0.18,0.44,1,13,12,0.26,1,84,4477,6,37,56,0.9,0.0,398,4.74,13.2,0.0,1,25.7,2.54,5.3,0,0,1,1,0,0,250,250,0,47.221169,14.761599,0.0,688.9,9,2,1.7,0,0.0,-1,0.0,0.0,0.0,0,0.02,1.514
90863,1627462441058,,,251,254,237,232,,0.2,-0.22,0.41,1,14,12,0.3,,84,4519,6,37,56,0.9,0.0,394,4.81,13.2,0.0,1,26.2,2.57,5.3,0,0,1,1,0,,,,,,,,,,,,,,,,,,,,
90883,1627462441078,,,251,254,237,232,,0.21,-0.22,0.38,1,14,13,0.3,,84,4527,6,37,56,0.9,0.0,395,4.73,13.2,0.0,1,26.3,2.57,5.3,0,0,1,1,0,,,,,,,,,,,,,,,,,,,,
90903,1627462441104,,,251,254,237,232,,0.21,-0.21,0.35,1,14,13,0.3,,84,4525,6,37,56,0.899,0.0,399,4.75,13.2,0.0,1,26.3,2.57,5.3,0,0,1,1,0,,,,,,,,,,,,,,,,,,,,
90923,1627462441124,,,251,254,237,232,,0.21,-0.21,0.32,1,14,13,0.29,,84,4506,6,37,56,0.899,0.0,394,4.74,13.2,0.0,1,26.1,2.56,5.3,0,0,1,1,0,,,,,,,,,,,,,,,,,,,,
90943,1627462441144,14,5,251,254,237,232,-1,0.21,-0.24,0.29,1,14,14,0.31,1,84,4497,6,37,56,0.898,0.0,398,4.73,13.2,0.0,1,26.0,2.55,5.3,0,0,1,1,0,0,250,250,0,47.221169,14.761599,0.0,688.9,9,2,1.7,0,0.0,-1,0.0,,0.0,0,0.02,1.5157
90963,1627462441164,,,251,254,237,232,,0.2,-0.23,0.27,1,14,14,0.31,,84,4538,6,37,56,0.897,0.0,392,4.76,13.2,0.0,1,26.5,2.57,5.3,0,0,1,1,0,,,,,,,,,,,,,,,,,,,,
90983,1627462441184,,,251,254,237,232,,0.18,-0.23,0.25,1,15,14,0.29,,84,4538,6,37,56,0.896,0.0,399,4.74,13.3,0.0,1,26.5,2.57,5.3,0,0,1,1,0,,,,,,,,,,,,,,,,,,,,
91003,1627462441208,,,251,254,237,232,,0.15,-0.24,0.23,1,15,15,0.28,,84,4536,6,37,56,0.896,0.0,401,4.77,13.2,0.0,1,26.5,2.57,5.3,0,0,1,1,0,,,,,,,,,,,,,,,,,,,,
91023,1627462441228,,,251,254,237,232,,0.13,-0.23,0.21,1,15,15,0.27,,84,4546,6,37,56,0.895,0.0,398,4.73,13.2,0.0,1,26.6,2.58,5.3,0,0,1,1,0,,,,,,,,,,,,,,,,,,,,
91043,1627462441248,15,6,251,254,237,232,-1,0.11,-0.2,0.2,1,15,14,0.23,1,84,4538,6,37,56,0.895,0.0,401,4.71,13.2,0.0,1,26.5,2.57,5.3,0,0,1,1,0,0,250,250,0,47.221169,14.761599,0.0,688.9,9,2,1.7,0,0.0,-1,0.0,0.0,0.0,0,0.02,1.5174
91063,1627462441268,,,251,254,237,232,,0.08,-0.19,0.18,1,15,14,0.21,,84,4525,6,37,56,0.895,0.0,399,4.75,13.2,0.0,1,26.3,2.57,5.3,0,0,1,1,0,,,,,,,,,,,,,,,,,,,,
91083,1627462441288,,,251,254,237,232,,0.04,-0.2,0.17,1,15,14,0.2,,84,4522,6,37,56,0.895,0.0,400,4.72,13.2,0.0,1,26.3,2.57,5.3,0,0,1,1,0,,,,,,,,,,,,,,,,,,,,
91103,1627462441306,,,251,254,237,232,,0.02,-0.17,0.22,1,14,14,0.17,,84,4536,6,37,56,0.895,0.0,398,4.74,13.2,0.0,1,26.5,2.57,5.4,0,0,1,1,0,,,,,,,,,,,,,,,,,,,,
91123,1627462441326,,,251,254,237,232,,-0.01,-0.14,0.28,1,14,13,0.14,,84,4516,6,37,56,0.897,0.0,396,4.73,13.2,0.0,1,26.2,1.47,5.4,0,0,1,1,0,,,,,,,,,,,,,,,,,,,,
91143,1627462441346,13,7,251,254,237,232,-1,-0.05,-0.12,0.48,1,13,12,0.13,1,84,4575,6,37,56,0.898,0.0,402,4.74,13.2,0.0,1,26.9,1.5,5.4,0,0,1,1,0,0,250,250,0,47.221169,14.761599,0.0,688.9,9,2,1.7,0,0.0,-1,0.0,,0.0,0,0.02,1.519
91163,1627462441366,,,251,254,237,232,,-0.09,-0.1,0.74,1,12,11,0.13,,84,4569,6,37,56,0.899,0.0,400,4.73,13.1,0.0,1,26.9,1.49,5.4,0,0,1,1,0,,,,,,,,,,,,,,,,,,,,
91183,1627462441386,,,251,254,237,232,,-0.13,-0.06,0.99,1,11,9,0.14,,84,4559,6,37,56,0.901,0.0,401,4.73,13.1,0.0,1,26.7,1.49,5.4,0,0,1,1,0,,,,,,,,,,,,,,,,,,,,
91203,1627462441406,,,251,254,237,232,,-0.16,-0.04,1.22,0,9,7,0.16,,84,4611,6,37,56,0.902,0.0,398,4.75,13.0,0.0,1,27.3,1.52,5.5,0,0,1,1,0,,,,,,,,,,,,,,,,,,,,
91223,1627462441426,,,251,254,237,232,,-0.17,-0.0,1.43,0,7,5,0.17,,84,4564,6,37,56,0.903,0.0,397,4.78,12.9,0.0,1,26.8,1.49,5.5,0,0,1,1,0,,,,,,,,,,,,,,,,,,,,
91243,1627462441446,14,5,251,254,237,232,-1,-0.16,0.04,1.63,0,4,3,0.17,1,84,4614,6,37,56,0.904,0.0,403,4.74,13.1,0.0,1,27.4,1.52,5.5,0,0,1,1,0,0,250,250,0,47.221169,14.761599,0.0,688.9,9,2,1.7,0,0.0,-1,0.0,0.0,0.0,0,0.02,1.5207
91263,1627462441466,,,251,254,237,232,,-0.14,0.08,1.81,0,2,1,0.16,,84,4626,6,37,56,0.905,0.0,399,4.75,13.0,0.0,1,27.6,2.63,5.5,0,0,1,1,0,,,,,,,,,,,,,,,,,,,,
91283,1627462441486,,,251,254,237,232,,-0.1,0.1,1.89,0,0,0,0.14,,84,4609,6,37,55,0.906,0.0,407,4.76,13.1,0.0,1,27.1,2.62,5.5,0,0,1,1,0,,,,,,,,,,,,,,,,,,,,
91303,1627462441508,,,251,254,237,232,,-0.04,0.08,1.74,0,-0,-0,0.09,,84,4634,6,37,56,0.906,0.0,408,4.8,12.9,0.0,1,27.7,2.63,5.6,0,0,1,1,0,,,,,,,,,,,,,,,,,,,,
91323,1627462441528,,,251,254,237,232,,0.02,0.06,1.61,0,-0,-0,0.06,,84,4588,6,37,55,0.907,0.0,407,4.78,13.1,0.0,1,26.8,2.6,5.6,0,0,1,1,0,,,,,,,,,,,,,,,,,,,,
91343,1627462441548,12,7,251,254,237,232,-1,0.07,0.03,1.48,0,1,1,0.07,1,84,4588,6,37,56,0.907,0.0,404,4.74,13.2,0.0,1,27.1,2.6,5.6,0,0,1,1,0,0,250,250,0,47.221169,14.761599,0.0,688.9,9,2,1.7,0,0.0,-1,0.0,,0.0,0,0.02,1.5224
91363,1627462441568,,,251,254,237,232,,0.1,-0.03,1.37,0,2,2,0.1,,84,4572,6,37,55,0.907,0.0,402,4.75,13.2,0.0,1,26.6,2.59,5.6,0,0,1,1,0,,,,,,,,,,,,,,,,,,,,
91383,1627462441588,,,251,254,237,232,,0.12,-0.07,1.26,0,4,4,0.14,,84,4569,6,37,55,0.907,0.0,403,4.72,13.2,0.0,1,26.6,2.58,5.6,0,0,1,1,0,,,,,,,,,,,,,,,,,,,,
91403,1627462441606,,,251,254,237,232,,0.13,-0.08,1.17,0,5,5,0.16,,84,4536,6,37,56,0.907,0.0,405,4.73,13.2,0.0,1,26.5,2.56,5.4,0,0,1,1,0,,,,,,,,,,,,,,,,,,,,
91423,1627462441626,,,251,254,237,232,,0.15,-0.1,1.08,1,6,6,0.18,,84,4502,6,37,56,0.907,0.0,397,4.72,13.2,0.0,1,26.0,2.55,5.4,0,0,1,1,0,,,,,,,,,,,,,,,,,,,,
91443,1627462441646,13,6,251,254,237,232,-1,0.16,-0.13,0.99,1,7,7,0.2,1,84,4557,6,37,56,0.907,0.0,405,4.71,13.2,0.0,1,26.7,2.59,5.4,0,0,1,1,0,0,250,250,0,47.221169,14.761599,0.0,688.9,9,2,1.7,0,0.0,-1,0.0,0.0,0.0,0,0.02,1.524
91463,1627462441666,,,251,254,237,232,,0.16,-0.13,0.92,1,7,7,0.21,,84,4508,6,37,56,0.907,0.0,397,4.75,13.2,0.0,1,26.1,2.56,5.4,0,0,1,1,0,,,,,,,,,,,,,,,,,,,,
91483,1627462441686,,,251,254,237,232,,0.14,-0.12,0.85,1,8,8,0.19,,84,4544,6,37,56,0.906,0.0,402,4.75,13.3,0.0,1,26.6,2.58,5.4,0,0,1,1,0,,,,,,,,,,,,,,,,,,,,
91503,1627462441705,,,251,254,237,232,,0.13,-0.13,0.78,1,9,9,0.18,,84,4565,6,37,56,0.906,0.0,397,4.74,13.3,0.0,1,26.8,2.59,5.5,0,0,1,1,0,,,,,,,,,,,,,,,,,,,,
91523,1627462441725,,,251,254,237,232,,0.12,-0.13,0.72,1,9,9,0.18,,84,4503,6,37,56,0.907,0.0,400,4.75,13.2,0.0,1,26.0,2.56,5.5,0,0,1,1,0,,,,,,,,,,,,,,,,,,,,
91543,1627462441745,14,6,251,254,237,232,-1,0.09,-0.1,0.68,1,9,9,0.13,1,84,4610,6,37,56,0.908,0.0,406,4.71,13.2,0.0,1,27.4,1.52,5.5,0,0,1,1,0,0,250,250,0,47.221169,14.761599,0.0,688.9,9,2,1.7,0,0.0,-1,0.0,,0.0,0,0.02,1.5257
91563,1627462441765,,,251,254,237,232,,0.05,-0.1,0.73,0,9,9,0.11,,84,4545,6,37,56,0.908,0.0,399,4.72,13.2,0.0,1,26.6,1.48,5.5,0,0,1,1,0,,,,,,,,,,,,,,,,,,,,
91583,1627462441785,,,251,254,237,232,,-0.0,-0.09,0.86,0,9,8,0.09,,84,4569,6,37,56,0.909,0.0,400,4.73,13.1,0.0,1,26.9,1.49,5.5,0,0,1,1,0,,,,,,,,,,,,,,,,,,,,
91603,1627462441805,,,251,254,237,232,,-0.04,-0.05,1.1,0,7,6,0.06,,84,4631,6,37,56,0.908,0.0,403,4.73,13.1,0.0,1,27.6,1.53,5.6,0,0,1,1,0,,,,,,,,,,,,,,,,,,,,
91623,1627462441825,,,251,254,237,232,,-0.08,-0.02,1.33,0,6,5,0.08,,84,4552,6,37,56,0.907,0.0,400,4.72,13.2,0.0,1,26.7,2.58,5.6,0,0,1,1,0,,,,,,,,,,,,,,,,,,,,
91643,1627462441845,14,5,251,254,237,232,-1,-0.1,0.01,1.53,0,3,3,0.1,1,84,4641,6,37,56,0.906,0.0,403,4.78,13.0,0.0,1,27.8,1.54,5.6,0,0,1,1,0,0,250,250,0,47.221169,14.761599,0.0,688.9,9,2,1.7,0,0.0,-1,0.0,0.0,0.0,0,0.02,1.5274
91663,1627462441865,,,251,254,237,232,,-0.1,0.04,1.72,0,1,1,0.11,,84,4553,6,37,55,0.904,0.0,403,4.8,12.9,0.0,1,26.4,2.57,5.6,0,0,1,1,0,,,,,,,,,,,,,,,,,,,,
91683,1627462441885,,,251,254,237,232,,-0.07,0.07,1.9,0,-1,-1,0.1,,84,4635,6,37,55,0.904,0.0,398,4.78,12.9,0.0,1,27.4,2.63,5.6,0,0,1,1,0,,,,,,,,,,,,,,,,,,,,
91703,1627462441907,,,251,254,237,232,,-0.04,0.07,1.88,0,-2,-2,0.08,,84,4639,6,37,55,0.903,0.0,408,4.72,13.1,0.0,1,27.4,2.64,5.7,0,0,1,1,0,,,,,,,,,,,,,,,,,,,,
91723,1627462441927,,,251,254,237,232,,0.02,0.05,1.76,0,-2,-2,0.06,,84,4566,6,37,55,0.902,0.0,400,4.76,13.0,0.0,1,26.5,2.58,5.7,0,0,1,1,0,,,,,,,,,,,,,,,,,,,,
91743,1627462441947,14,5,251,254,237,232,-1,0.07,0.03,1.62,0,-1,-1,0.08,1,84,4646,6,37,55,0.902,0.0,408,4.75,13.2,0.0,1,27.5,2.64,5.7,0,0,1,1,0,0,250,250,0,47.221169,14.761599,0.0,688.9,9,2,1.7,0,0.0,-1,0.0,,0.0,0,0.02,1.529
91763,1627462441967,,,251,254,237,232,,0.11,-0.0,1.5,0,-0,0,0.11,,84,4567,6,37,55,0.901,0.0,401,4.77,13.2,0.0,1,26.5,2.58,5.7,0,0,1,1,0,,,,,,,,,,,,,,,,,,,,
91783,1627462441987,,,251,254,237,232,,0.13,-0.05,1.38,0,1,1,0.14,,84,4568,6,37,55,0.9,0.0,404,4.75,13.2,0.0,1,26.6,2.58,5.7,0,0,1,1,0,,,,,,,,,,,,,,,,,,,,
91803,1627462441997,,,251,254,237,232,,0.15,-0.08,1.28,0,3,3,0.17,,84,4578,6,37,55,0.899,0.0,405,4.77,13.2,0.0,1,26.7,2.59,5.6,0,0,1,1,0,,,,,,,,,,,,,,,,,,,,
91823,1627462442017,,,251,254,237,232,,0.15,-0.09,1.18,0,5,4,0.18,,84,4508,6,37,55,0.898,0.0,401,4.73,13.2,0.0,1,25.8,2.55,5.6,0,0,1,1,0,,,,,,,,,,,,,,,,,,,,
91843,1627462442037,14,7,251,254,237,232,-2,0.16,-0.11,1.09,0,6,5,0.19,1,84,4562,6,37,56,0.897,0.0,401,4.76,13.2,0.0,1,26.8,2.59,5.6,0,0,1,1,0,0,250,250,0,47.221169,14.761599,0.0,688.9,9,2,1.7,0,0.0,-1,0.0,0.0,0.0,0,0.02,1.5307
91863,1627462442057,,,251,254,237,232,,0.16,-0.14,1.0,0,6,6,0.21,,84,4496,6,37,55,0.898,0.0,400,4.72,13.2,0.0,1,25.7,2.54,5.6,0,0,1,1,0,,,,,,,,,,,,,,,,,,,,
91883,1627462442077,,,251,254,237,232,,0.12,-0.1,0.96,0,7,7,0.16,,84,4526,6,37,56,0.898,0.0,396,4.73,13.2,0.0,1,26.3,2.57,5.6,0,0,1,1,0,,,,,,,,,,,,,,,,,,,,
91903,1627462442107,,,251,254,237,232,,0.11,-0.1,0.88,0,8,8,0.15,,84,4547,6,37,56,0.899,0.0,397,4.74,13.2,0.0,1,26.6,2.58,5.4,0,0,1,1,0,,,,,,,,,,,,,,,,,,,,
91923,1627462442127,,,251,254,237,232,,0.07,-0.09,0.92,0,8,8,0.12,,84,4506,6,37,56,0.899,0.0,397,4.73,13.2,0.0,1,26.1,2.56,5.4,0,0,1,1,0,,,,,,,,,,,,,,,,,,,,
91943,1627462442147,13,6,251,254,237,232,-1,0.05,-0.06,1.04,1,9,9,0.08,1,84,4567,6,37,56,0.9,0.0,408,4.75,13.2,0.0,1,26.8,2.59,5.4,0,0,1,1,0,0,250,250,0,47.221169,14.761599,0.0,688.9,9,2,1.7,0,0.0,-1,0.0,,0.0,0,0.02,1.5324
91963,1627462442167,,,251,254,237,232,,0.01,-0.03,1.11,1,9,9,0.03,,84,4487,6,37,56,0.901,0.0,398,4.79,13.2,0.0,1,25.8,2.55,5.4,0,0,1,1,0,,,,,,,,,,,,,,,,,,,,
91983,1627462442187,,,251,254,237,232,,-0.03,-0.03,1.28,1,9,9,0.04,,84,4541,6,37,56,0.901,0.0,399,4.74,13.2,0.0,1,26.5,2.58,5.4,0,0,1,1,0,,,,,,,,,,,,,,,,,,,,
92003,1627462442207,,,251,254,237,232,,-0.06,-0.01,1.49,1,9,9,0.06,,84,4552,6,37,56,0.901,0.0,399,4.74,13.2,0.0,1,26.7,2.58,5.5,0,0,1,1,0,,,,,,,,,,,,,,,,,,,,
92023,1627462442227,,,251,254,237,232,,-0.09,0.01,1.65,1,9,9,0.09,,84,4488,6,37,56,0.901,0.0,398,4.76,13.2,0.0,1,25.9,2.55,5.5,0,0,1,1,0,,,,,,,,,,,,,,,,,,,,
92043,1627462442247,14,6,251,254,237,232,-1,-0.12,0.03,1.83,0,8,8,0.12,1,84,4602,6,37,56,0.9,0.0,399,4.73,13.2,0.0,1,27.3,2.62,5.5,0,0,1,1,0,0,250,250,0,47.221169,14.761599,0.0,688.9,9,2,1.8,0,0.0,-1,0.0,0.0,0.0,0,0.02,1.534
92063,1627462442267,,,251,254,237,232,,-0.14,0.06,1.99,0,8,7,0.15,,84,4539,6,37,56,0.9,0.0,396,4.74,13.1,0.0,1,26.5,1.47,5.5,0,0,1,1,0,,,,,,,,,,,,,,,,,,,,
92083,1627462442287,,,251,254,237,232,,-0.14,0.1,2.15,0,6,6,0.17,,84,4573,6,37,56,0.899,0.0,401,4.76,13.1,0.0,1,26.9,1.5,5.5,0,0,1,1,0,,,,,,,,,,,,,,,,,,,,
92103,1627462442307,,,251,254,237,232,,-0.13,0.14,2.29,0,4,4,0.2,,84,4627,6,37,56,0.897,0.0,402,4.73,13.0,0.0,1,27.6,1.53,5.7,0,0,1,1,0,,,,,,,,,,,,,,,,,,,,
92123,1627462442327,,,251,254,237,232,,-0.12,0.16,2.4,0,2,2,0.2,,84,4563,6,37,56,0.896,0.0,400,4.77,12.9,0.0,1,26.8,1.49,5.7,0,0,1,1,0,,,,,,,,,,,,,,,,,,,,
92143,1627462442347,13,7,251,254,237,232,-1,-0.06,0.14,2.32,0,-0,0,0.15,1,84,4667,6,37,56,0.894,0.0,401,4.77,12.9,0.0,1,28.1,1.56,5.7,0,0,1,1,0,0,250,250,0,47.221169,14.761599,0.0,688.9,9,2,1.7,0,0.0,-1,0.0,,0.0,0,0.02,1.5357
92163,1627462442367,,,251,254,237,232,,-0.01,0.11,2.14,0,-1,-1,0.11,,84,4611,6,37,55,0.893,0.0,405,4.78,13.1,0.0,1,27.1,2.61,5.7,0,0,1,1,0,,,,,,,,,,,,,,,,,,,,
92183,1627462442387,,,251,254,237,232,,0.04,0.07,1.98,0,-2,-1,0.08,,84,4611,6,37,55,0.892,0.0,402,4.77,13.1,0.0,1,27.1,2.61,5.7,0,0,1,1,0,,,,,,,,,,,,,,,,,,,,
92203,1627462442407,,,251,254,237,232,,0.07,0.02,1.83,0,-2,-1,0.08,,84,4653,6,37,55,0.892,0.0,412,4.75,13.2,0.0,1,27.6,2.65,5.7,0,0,1,1,0,,,,,,,,,,,,,,,,,,,,
92223,1627462442427,,,251,254,237,232,,0.1,-0.03,1.69,0,-1,-0,0.1,,84,4546,6,37,55,0.891,0.0,403,4.73,13.2,0.0,1,26.3,2.57,5.7,0,0,1,1,0,,,,,,,,,,,,,,,,,,,,
92243,1627462442447,14,6,251,254,237,232,-1,0.09,-0.05,1.56,0,1,1,0.11,1,84,4605,6,37,55,0.891,0.0,409,4.74,13.2,0.0,1,27.0,2.61,5.7,0,0,1,1,0,0,250,250,0,47.221169,14.761599,0.0,688.9,9,2,1.7,0,0.0,-1,0.0,0.0,0.0,0,0.02,1.5374
92263,1627462442467,,,251,254,237,232,,0.08,-0.06,1.44,0,3,3,0.1,,84,4577,6,37,55,0.891,0.0,402,4.74,13.2,0.0,1,26.7,2.59,5.7,0,0,1,1,0,,,,,,,,,,,,,,,,,,,,
92283,1627462442487,,,251,254,237,232,,0.07,-0.06,1.32,0,4,4,0.1,,84,4519,6,37,55,0.892,0.0,403,4.78,13.2,0.0,1,25.9,2.56,5.7,0,0,1,1,0,,,,,,,,,,,,,,,,,,,,
92303,1627462442507,,,251,254,237,232,,0.04,-0.03,1.24,0,5,6,0.05,,84,4603,6,37,56,0.892,0.0,399,4.74,13.2,0.0,1,27.3,2.61,5.5,0,0,1,1,0,,,,,,,,,,,,,,,,,,,,
92323,1627462442527,,,251,254,237,232,,0.01,-0.03,1.26,0,6,6,0.03,,84,4547,6,37,56,0.893,0.0,400,4.75,13.2,0.0,1,26.6,2.58,5.5,0,0,1,1,0,,,,,,,,,,,,,,,,,,,,
92343,1627462442547,14,6,251,254,237,232,-1,-0.03,-0.03,1.28,0,7,7,0.04,1,84,4527,6,37,56,0.894,0.0,405,4.74,13.2,0.0,1,26.3,2.56,5.5,0,0,1,1,0,0,250,250,0,47.221169,14.761599,0.0,688.9,9,2,1.7,0,0.0,-1,0.0,,0.0,0,0.02,1.539
92363,1627462442567,,,251,254,237,232,,-0.05,-0.01,1.43,0,8,8,0.05,,84,4575,6,37,56,0.896,0.0,400,4.75,13.2,0.0,1,26.9,2.6,5.5,0,0,1,1,0,,,,,,,,,,,,,,,,,,,,
92383,1627462442587,,,251,254,237,232,,-0.09,0.02,1.47,0,8,8,0.09,,84,4470,6,37,55,0.898,0.0,400,4.77,13.2,0.0,1,25.3,2.52,5.5,0,0,1,1,0,,,,,,,,,,,,,,,,,,,,
92403,1627462442607,,,251,254,237,232,,-0.12,0.02,1.64,0,9,8,0.12,,84,4541,6,37,56,0.9,0.0,397,4.75,13.2,0.0,1,26.5,2.58,5.3,0,0,1,1,0,,,,,,,,,,,,,,,,,,,,
92423,1627462442627,,,251,254,237,232,,-0.14,0.03,1.82,0,9,8,0.14,,84,4541,6,37,56,0.9,0.0,397,4.73,13.2,0.0,1,26.5,2.58,5.3,0,0,1,1,0,,,,,,,,,,,,,,,,,,,,
92443,1627462442647,14,5,251,254,237,232,-1,-0.16,0.05,1.95,0,8,8,0.17,1,84,4485,6,37,56,0.901,0.0,401,4.75,13.2,0.0,1,25.8,1.44,5.3,0,0,1,1,0,0,250,250,0,47.221169,14.761599,0.0,688.9,9,2,1.7,0,0.0,-1,0.0,0.0,0.0,0,0.02,1.5407
92463,1627462442667,,,251,254,237,232,,-0.19,0.07,2.11,0,8,7,0.2,,84,4580,6,37,56,0.902,0.0,394,4.74,13.1,0.0,1,27.0,2.6,5.3,0,0,1,1,0,,,,,,,,,,,,,,,,,,,,
92483,1627462442687,,,251,254,237,232,,-0.21,0.09,2.26,0,8,6,0.23,,84,4533,6,37,56,0.902,0.0,401,4.73,13.1,0.0,1,26.4,1.47,5.3,0,0,1,1,0,,,,,,,,,,,,,,,,,,,,
92503,1627462442706,,,251,254,237,232,,-0.22,0.13,2.39,0,7,5,0.26,,84,4546,6,37,56,0.902,0.0,400,4.72,13.1,0.0,1,26.6,1.48,5.4,0,0,1,1,0,,,,,,,,,,,,,,,,,,,,
92523,1627462442726,,,251,254,237,232,,-0.22,0.17,2.51,0,5,4,0.28,,84,4597,6,37,56,0.9,0.0,398,4.73,13.2,0.0,1,27.2,2.61,5.4,0,0,1,1,0,,,,,,,,,,,,,,,,,,,,
92543,1627462442746,14,6,251,254,237,232,-1,-0.23,0.17,2.63,0,4,3,0.29,1,84,4510,6,37,56,0.9,0.0,397,4.78,13.0,0.0,1,26.1,2.56,5.4,0,0,1,1,0,0,250,250,0,47.221169,14.761599,0.0,688.9,9,2,1.7,0,0.0,-1,0.0,,0.0,0,0.02,1.5424
92563,1627462442766,,,251,254,237,232,,-0.21,0.18,2.73,0,2,1,0.28,,84,4586,6,37,56,0.899,0.0,393,4.72,13.1,0.0,1,27.4,2.62,5.4,0,0,1,1,0,,,,,,,,,,,,,,,,,,,,
92583,1627462442786,,,251,254,237,232,,-0.18,0.2,2.79,0,0,-0,0.26,,84,4559,6,37,56,0.9,0.0,405,4.77,12.9,0.0,1,26.7,1.49,5.4,0,0,1,1,0,,,,,,,,,,,,,,,,,,,,
92603,1627462442806,,,251,254,237,232,,-0.13,0.21,2.83,0,-2,-2,0.25,,84,4596,6,37,56,0.9,0.0,397,4.79,12.9,0.0,1,27.2,1.51,5.4,0,0,1,1,0,,,,,,,,,,,,,,,,,,,,
92623,1627462442826,,,251,254,237,232,,-0.09,0.2,2.69,0,-3,-3,0.22,,84,4588,6,37,56,0.899,0.0,400,4.77,13.0,0.0,1,27.1,2.61,5.4,0,0,1,1,0,,,,,,,,,,,,,,,,,,,,
92643,1627462442846,14,6,251,254,237,232,-1,-0.03,0.18,2.54,0,-4,-4,0.18,1,84,4556,6,37,55,0.899,0.0,402,4.73,13.0,0.0,1,26.4,2.58,5.4,0,0,1,1,0,0,250,250,0,47.221169,14.761599,0.0,688.9,9,2,1.7,0,0.0,-1,0.0,0.0,0.0,0,0.02,1.544
92663,1627462442866,,,251,254,237,232,,0.02,0.15,2.34,0,-5,-4,0.15,,84,4615,6,37,56,0.899,0.0,403,4.71,13.1,0.0,1,27.4,2.62,5.4,0,0,1,1,0,,,,,,,,,,,,,,,,,,,,
92683,1627462442886,,,251,254,237,232,,0.06,0.13,2.16,0,-4,-4,0.14,,84,4528,6,37,55,0.899,0.0,402,4.72,13.2,0.0,1,26.1,2.56,5.4,0,0,1,1,0,,,,,,,,,,,,,,,,,,,,
92703,1627462442906,,,251,254,237,232,,0.1,0.07,2.0,0,-4,-4,0.13,,84,4580,6,37,55,0.899,0.0,398,4.74,13.0,0.0,1,26.7,2.6,5.4,0,0,1,1,0,,,,,,,,,,,,,,,,,,,,
92723,1627462442926,,,251,254,237,232,,0.13,0.03,1.84,0,-2,-3,0.13,,84,4559,6,37,56,0.899,0.0,402,4.77,13.2,0.0,1,26.7,2.58,5.4,0,0,1,1,0,,,,,,,,,,,,,,,,,,,,
92743,1627462442946,14,5,251,254,237,232,-2,0.15,0.0,1.7,0,-2,-3,0.15,1,84,4505,6,37,56,0.9,0.0,406,4.75,13.2,0.0,1,26.1,2.56,5.4,0,0,1,1,0,0,250,250,0,47.221169,14.761599,0.0,688.9,9,2,1.7,0,0.0,-1,0.0,,0.0,0,0.02,1.5457
92763,1627462442966,,,251,254,237,232,,0.17,-0.03,1.57,0,-1,-1,0.17,,84,4575,6,37,56,0.901,0.0,396,4.66,13.1,0.0,1,26.9,2.6,5.4,0,0,1,1,0,,,,,,,,,,,,,,,,,,,,
92783,1627462442986,,,251,254,237,232,,0.17,-0.06,1.45,0,0,-0,0.18,,84,4500,6,37,56,0.901,0.0,405,4.71,13.1,0.0,1,26.0,2.56,5.4,0,0,1,1,0,,,,,,,,,,,,,,,,,,,,
92803,1627462443000,,,251,254,237,232,,0.18,-0.08,1.34,0,1,0,0.2,,83,4509,6,37,56,0.902,0.0,394,4.74,13.2,0.0,1,26.1,2.56,5.2,0,0,1,1,0,,,,,,,,,,,,,,,,,,,,
92823,1627462443020,,,251,254,237,232,,0.17,-0.08,1.23,0,2,2,0.19,,83,4598,6,37,56,0.902,0.0,401,4.77,13.2,0.0,1,27.2,2.62,5.2,0,0,1,1,0,,,,,,,,,,,,,,,,,,,,
92843,1627462443040,13,7,251,254,237,232,-1,0.16,-0.08,1.14,0,4,3,0.18,1,84,4503,6,37,56,0.902,0.0,402,4.76,13.2,0.0,1,26.0,2.56,5.2,0,0,1,1,0,0,250,250,0,47.221169,14.761599,0.0,688.9,9,2,1.7,0,0.0,-1,0.0,0.0,0.0,0,0.02,1.5474
92863,1627462443060,,,251,254,237,232,,0.15,-0.08,1.05,0,5,5,0.17,,83,4605,6,37,56,0.902,0.0,399,4.76,13.2,0.0,1,27.3,2.62,5.2,0,0,1,1,0,,,,,,,,,,,,,,,,,,,,
92883,1627462443080,,,251,254,237,232,,0.12,-0.05,1.01,0,6,5,0.13,,83,4574,6,37,56,0.902,0.0,408,4.73,13.2,0.0,1,26.9,2.6,5.2,0,0,1,1,0,,,,,,,,,,,,,,,,,,,,
92903,1627462443106,,,251,254,237,232,,0.08,-0.03,0.96,0,7,6,0.09,,83,4528,6,37,56,0.902,0.0,405,4.74,13.2,0.0,1,26.4,2.57,5.3,0,0,1,1,0,,,,,,,,,,,,,,,,,,,,
92923,1627462443126,,,251,254,237,232,,0.04,-0.04,1.1,0,8,7,0.05,,83,4602,6,37,56,0.903,0.0,401,4.73,13.2,0.0,1,27.3,2.62,5.3,0,0,1,1,0,,,,,,,,,,,,,,,,,,,,
92943,1627462443146,14,7,251,254,237,232,-1,0.01,-0.01,1.22,0,8,7,0.01,1,83,4524,6,37,56,0.903,0.0,406,4.74,13.2,0.0,1,26.3,1.47,5.3,0,0,1,1,0,0,250,250,0,47.221169,14.761599,0.0,688.9,9,2,1.7,0,0.0,-1,0.0,,0.0,0,0.02,1.549
92963,1627462443166,,,251,254,237,232,,-0.04,0.02,1.44,0,8,7,0.04,,83,4582,6,37,56,0.903,0.0,394,4.75,13.1,0.0,1,27.0,2.6,5.3,0,0,1,1,0,,,,,,,,,,,,,,,,,,,,
92983,1627462443186,,,251,254,237,232,,-0.07,0.05,1.63,0,7,6,0.08,,83,4593,6,37,56,0.903,0.0,402,4.72,13.1,0.0,1,27.2,1.51,5.3,0,0,1,1,0,,,,,,,,,,,,,,,,,,,,
93003,1627462443206,,,251,254,237,232,,-0.09,0.08,1.81,0,6,5,0.12,,83,4533,6,37,56,0.903,0.0,402,4.72,13.1,0.0,1,26.4,1.47,5.3,0,0,1,1,0,,,,,,,,,,,,,,,,,,,,
93023,1627462443226,,,251,254,237,232,,-0.09,0.13,1.98,0,3,2,0.16,,83,4646,6,37,56,0.902,0.0,400,4.72,13.1,0.0,1,28.0,2.65,5.3,0,0,1,1,0,,,,,,,,,,,,,,,,,,,,
93043,1627462443246,14,7,251,254,237,232,-1,-0.09,0.14,2.14,0,2,1,0.17,1,83,4565,6,37,56,0.902,0.0,406,4.75,12.9,0.0,1,26.8,1.49,5.3,0,0,1,1,0,0,250,250,0,47.221169,14.761599,0.0,688.9,9,2,1.7,0,0.0,-1,0.0,0.0,0.0,0,0.02,1.5507
93063,1627462443266,,,251,254,237,232,,-0.05,0.13,2.25,0,-0,-1,0.14,,84,4620,6,37,56,0.902,0.0,399,4.75,13.0,0.0,1,27.5,2.62,5.3,0,0,1,1,0,,,,,,,,,,,,,,,,,,,,
93083,1627462443286,,,251,254,237,232,,-0.0,0.1,2.08,0,-2,-2,0.1,,84,4617,6,37,55,0.903,0.0,408,4.76,13.0,0.0,1,27.2,2.62,5.3,0,0,1,1,0,,,,,,,,,,,,,,,,,,,,
93103,1627462443308,,,251,254,237,232,,0.04,0.06,1.92,0,-2,-3,0.07,,84,4557,6,37,55,0.903,0.0,397,4.79,12.8,0.0,1,26.4,2.58,5.4,0,0,1,1,0,,,,,,,,,,,,,,,,,,,,
93123,1627462443328,,,251,254,237,232,,0.08,0.02,1.77,0,-2,-3,0.08,,84,4660,6,37,55,0.904,0.0,402,4.77,13.0,0.0,1,27.7,2.65,5.4,0,0,1,1,0,,,,,,,,,,,,,,,,,,,,
93143,1627462443348,13,7,251,254,237,232,-1,0.11,-0.01,1.63,0,-1,-2,0.11,1,83,4585,6,37,55,0.905,0.0,411,4.75,13.2,0.0,1,26.8,2.6,5.4,0,0,1,1,0,0,250,250,0,47.221169,14.761599,0.0,688.9,9,2,1.7,0,0.0,-1,0.0,,0.0,0,0.02,1.5524
93163,1627462443368,,,251,254,237,232,,0.13,-0.04,1.51,0,-0,-1,0.14,,83,4585,6,37,55,0.905,0.0,406,4.73,13.2,0.0,1,26.8,2.6,5.4,0,0,1,1,0,,,,,,,,,,,,,,,,,,,,
93183,1627462443388,,,251,254,237,232,,0.12,-0.06,1.39,0,2,1,0.14,,83,4639,6,37,56,0.905,0.0,403,4.76,13.2,0.0,1,27.7,2.64,5.4,0,0,1,1,0,,,,,,,,,,,,,,,,,,,,
93203,1627462443408,,,251,254,237,232,,0.12,-0.08,1.28,0,3,3,0.14,,83,4557,6,37,55,0.904,0.0,407,4.75,13.2,0.0,1,26.4,2.58,5.5,0,0,1,1,0,,,,,,,,,,,,,,,,,,,,
93223,1627462443428,,,251,254,237,232,,0.09,-0.05,1.19,0,4,4,0.11,,83,4575,6,37,55,0.904,0.0,401,4.76,13.2,0.0,1,26.6,2.59,5.5,0,0,1,1,0,,,,,,,,,,,,,,,,,,,,
93243,1627462443448,13,7,251,254,237,232,-1,0.06,-0.06,1.21,0,5,5,0.08,1,83,4560,6,37,56,0.904,0.0,406,4.73,13.2,0.0,1,26.8,2.58,5.5,0,0,1,1,0,0,250,250,0,47.221169,14.761599,0.0,688.9,9,2,1.7,0,0.0,-1,0.0,0.0,0.0,0,0.02,1.554
93263,1627462443468,,,251,254,237,232,,0.02,-0.06,1.21,0,6,6,0.06,,83,4516,6,37,56,0.905,0.0,398,4.75,13.2,0.0,1,26.2,2.57,5.5,0,0,1,1,0,,,,,,,,,,,,,,,,,,,,
93283,1627462443488,,,251,254,237,232,,-0.01,-0.03,1.36,0,6,6,0.03,,83,4583,6,37,56,0.905,0.0,402,4.74,13.2,0.0,1,27.0,2.6,5.5,0,0,1,1,0,,,,,,,,,,,,,,,,,,,,
93303,1627462443506,,,251,254,237,232,,-0.05,0.0,1.46,0,6,6,0.05,,83,4523,6,37,56,0.906,0.0,405,4.72,13.2,0.0,1,26.3,1.47,5.4,0,0,1,1,0,,,,,,,,,,,,,,,,,,,,
93323,1627462443526,,,251,254,237,232,,-0.08,0.01,1.63,0,6,5,0.08,,83,4528,6,37,56,0.906,0.0,395,4.73,13.2,0.0,1,26.4,1.47,5.4,0,0,1,1,0,,,,,,,,,,,,,,,,,,,,
93343,1627462443546,14,5,251,254,237,232,-2,-0.11,0.04,1.81,0,5,4,0.12,1,83,4585,6,37,56,0.907,0.0,402,4.75,13.1,0.0,1,27.1,1.51,5.4,0,0,1,1,0,0,250,250,0,47.221169,14.761599,0.0,688.9,9,2,1.7,0,0.0,-1,0.0,,0.0,0,0.02,1.5557
93363,1627462443566,,,251,254,237,232,,-0.14,0.07,1.98,0,5,4,0.16,,83,4500,6,37,56,0.907,0.0,397,4.74,13.2,0.0,1,26.0,2.56,5.4,0,0,1,1,0,,,,,,,,,,,,,,,,,,,,
93383,1627462443586,,,251,254,237,232,,-0.17,0.09,2.13,0,4,3,0.19,,83,4574,6,37,56,0.907,0.0,397,4.73,13.1,0.0,1,26.9,1.5,5.4,0,0,1,1,0,,,,,,,,,,,,,,,,,,,,
93403,1627462443608,,,251,254,237,232,,-0.18,0.11,2.28,0,3,2,0.21,,83,4545,6,37,56,0.907,0.0,401,4.76,13.1,0.0,1,26.6,1.48,5.4,0,0,1,1,0,,,,,,,,,,,,,,,,,,,,
93423,1627462443628,,,251,254,237,232,,-0.19,0.14,2.41,0,1,1,0.24,,83,4522,6,37,56,0.906,0.0,396,4.79,13.0,0.0,1,26.3,1.49,5.4,0,0,1,1,0,,,,,,,,,,,,,,,,,,,,
93443,1627462443648,14,7,251,254,237,232,-1,-0.18,0.17,2.53,0,-1,-1,0.25,1,83,4612,6,37,56,0.906,0.0,399,4.77,13.0,0.0,1,27.4,1.52,5.4,0,0,1,1,0,0,250,250,0,47.221169,14.761599,0.0,688.9,9,2,1.7,0,0.0,-1,0.0,0.0,0.0,0,0.02,1.5574
93463,1627462443668,,,251,254,237,232,,-0.18,0.17,2.64,0,-2,-2,0.24,,83,4521,6,37,56,0.906,0.0,398,4.79,12.9,0.0,1,26.3,1.47,5.4,0,0,1,1,0,,,,,,,,,,,,,,,,,,,,
93483,1627462443688,,,251,254,237,232,,-0.15,0.18,2.75,0,-4,-4,0.23,,83,4603,6,37,56,0.905,0.0,397,4.82,13.0,0.0,1,27.3,1.52,5.4,0,0,1,1,0,,,,,,,,,,,,,,,,,,,,
93503,1627462443705,,,251,254,237,232,,-0.1,0.15,2.63,-0,-5,-5,0.18,,84,4592,6,37,56,0.905,0.0,401,4.76,13.0,0.0,1,27.2,2.61,5.6,0,0,1,1,0,,,,,,,,,,,,,,,,,,,,
93523,1627462443725,,,251,254,237,232,,-0.06,0.13,2.56,-0,-6,-5,0.14,,84,4522,6,37,55,0.904,0.0,396,4.8,13.0,0.0,1,26.0,2.56,5.6,0,0,1,1,0,,,,,,,,,,,,,,,,,,,,
93543,1627462443745,14,7,251,254,237,232,-2,-0.01,0.1,2.36,-0,-6,-6,0.11,1,83,4617,6,37,55,0.903,0.0,405,4.75,13.1,0.0,1,27.2,2.62,5.6,0,0,1,1,0,0,250,250,0,47.221169,14.761599,0.0,688.9,9,2,2.3,0,0.0,-1,0.0,,0.0,0,0.02,1.5591
93563,1627462443765,,,251,254,237,232,,0.04,0.08,2.18,-0,-5,-6,0.09,,83,4541,6,37,55,0.902,0.0,401,4.78,12.9,0.0,1,26.2,2.57,5.6,0,0,1,1,0,,,,,,,,,,,,,,,,,,,,
93583,1627462443785,,,251,254,237,232,,0.08,0.07,2.01,-0,-5,-5,0.11,,83,4562,6,37,56,0.901,0.0,403,4.7,13.2,0.0,1,26.8,2.58,5.6,0,0,1,1,0,,,,,,,,,,,,,,,,,,,,
93603,1627462443807,,,251,254,237,232,,0.11,0.04,1.86,0,-4,-4,0.12,,83,4595,6,37,55,0.9,0.0,400,4.76,13.0,0.0,1,26.9,2.61,5.5,0,0,1,1,0,,,,,,,,,,,,,,,,,,,,
93623,1627462443827,,,251,254,237,232,,0.15,0.01,1.71,0,-3,-3,0.15,,83,4523,6,37,55,0.899,0.0,402,4.71,13.1,0.0,1,26.0,2.56,5.5,0,0,1,1,0,,,,,,,,,,,,,,,,,,,,
93643,1627462443847,14,6,251,254,237,232,-1,0.17,-0.03,1.58,0,-1,-2,0.17,1,83,4598,6,37,56,0.899,0.0,402,4.73,13.2,0.0,1,27.2,2.62,5.5,0,0,1,1,0,0,250,250,0,47.221169,14.761599,0.0,688.9,9,2,1.7,0,0.0,-1,0.0,0.0,0.0,0,0.02,1.5607
93663,1627462443867,,,251,254,237,232,,0.18,-0.03,1.46,0,-0,-0,0.18,,83,4572,6,37,56,0.899,0.0,405,4.71,13.2,0.0,1,26.9,2.6,5.5,0,0,1,1,0,,,,,,,,,,,,,,,,,,,,
93683,1627462443887,,,251,254,237,232,,0.17,-0.05,1.35,0,2,1,0.17,,83,4554,6,37,56,0.899,0.0,402,4.75,13.2,0.0,1,26.7,2.58,5.5,0,0,1,1,0,,,,,,,,,,,,,,,,,,,,
93703,1627462443907,,,251,254,237,232,,0.16,-0.06,1.24,0,3,3,0.17,,83,4612,6,37,56,0.899,0.0,410,4.73,13.2,0.0,1,27.4,2.62,5.5,0,0,1,1,0,,,,,,,,,,,,,,,,,,,,
93723,1627462443927,,,251,254,237,232,,0.13,-0.04,1.15,0,4,4,0.14,,83,4548,6,37,56,0.899,0.0,403,4.74,13.2,0.0,1,26.6,2.58,5.5,0,0,1,1,0,,,,,,,,,,,,,,,,,,,,
93743,1627462443947,14,5,251,254,237,232,-1,0.08,-0.03,1.13,0,5,5,0.09,1,83,4582,6,37,56,0.9,0.0,402,4.73,13.2,0.0,1,27.0,2.6,5.5,0,0,1,1,0,0,250,250,0,47.221169,14.761599,0.0,688.9,9,2,1.7,0,0.0,-1,0.0,,0.0,0,0.02,1.5624
93763,1627462443967,,,251,254,237,232,,0.04,-0.03,1.32,0,5,4,0.05,,83,4588,6,37,56,0.9,0.0,400,4.74,13.2,0.0,1,27.1,2.61,5.5,0,0,1,1,0,,,,,,,,,,,,,,,,,,,,
93783,1627462443987,,,251,254,237,232,,0.01,-0.01,1.46,0,5,4,0.02,,83,4527,6,37,56,0.901,0.0,402,4.76,13.1,0.0,1,26.3,1.47,5.5,0,0,1,1,0,,,,,,,,,,,,,,,,,,,,
93803,1627462443999,,,251,254,237,232,,-0.03,0.01,1.65,0,4,3,0.03,,83,4617,6,37,56,0.901,0.0,400,4.75,13.1,0.0,1,27.5,1.52,5.5,0,0,1,1,0,,,,,,,,,,,,,,,,,,,,
93823,1627462444019,,,251,254,237,232,,-0.07,0.04,1.83,0,3,2,0.08,,83,4570,6,37,56,0.9,0.0,399,4.73,13.0,0.0,1,26.9,1.5,5.5,0,0,1,1,0,,,,,,,,,,,,,,,,,,,,
93843,1627462444039,14,5,251,254,237,232,-1,-0.08,0.07,2.0,0,1,1,0.11,1,83,4563,6,37,56,0.899,0.0,403,4.75,13.0,0.0,1,27.1,2.59,5.5,0,0,1,1,0,0,250,250,0,47.221169,14.761599,0.0,688.9,9,2,1.7,0,0.0,-1,0.0,0.0,0.0,0,0.02,1.564
93863,1627462444059,,,251,254,237,232,,-0.09,0.1,2.15,0,-1,-1,0.13,,83,4586,6,37,56,0.899,0.0,400,4.71,13.1,0.0,1,27.1,2.61,5.5,0,0,1,1,0,,,,,,,,,,,,,,,,,,,,
93883,1627462444079,,,251,254,237,232,,-0.1,0.11,2.3,0,-2,-2,0.15,,83,4527,6,37,56,0.898,0.0,399,4.8,12.9,0.0,1,26.3,1.47,5.5,0,0,1,1,0,,,,,,,,,,,,,,,,,,,,
93903,1627462444107,,,251,254,237,232,,-0.07,0.13,2.43,0,-4,-4,0.15,,83,4594,6,37,56,0.898,0.0,394,4.76,12.9,0.0,1,27.2,1.51,5.5,0,0,1,1,0,,,,,,,,,,,,,,,,,,,,
93923,1627462444127,,,251,254,237,232,,-0.04,0.12,2.45,-0,-5,-5,0.13,,84,4542,6,37,55,0.898,0.0,400,4.78,13.0,0.0,1,26.2,2.57,5.5,0,0,1,1,0,,,,,,,,,,,,,,,,,,,,
93943,1627462444147,13,6,251,254,237,232,-1,-0.01,0.12,2.45,-0,-6,-6,0.12,1,83,4543,6,37,55,0.898,0.0,400,4.76,13.0,0.0,1,26.2,2.57,5.5,0,0,1,1,0,0,250,250,0,47.221169,14.761599,0.0,688.9,9,2,1.7,0,0.0,-1,0.0,,0.0,0,0.02,1.5657
93963,1627462444167,,,251,254,237,232,,0.03,0.12,2.33,-0,-7,-6,0.12,,83,4594,6,37,56,0.898,0.0,398,4.8,12.9,0.0,1,27.2,2.61,5.5,0,0,1,1,0,,,,,,,,,,,,,,,,,,,,
93983,1627462444187,,,251,254,237,232,,0.07,0.1,2.2,-0,-7,-6,0.12,,83,4506,6,37,56,0.897,0.0,399,4.72,13.1,0.0,1,26.1,2.56,5.5,0,0,1,1,0,,,,,,,,,,,,,,,,,,,,
94003,1627462444205,,,251,254,237,232,,0.1,0.08,2.04,-0,-7,-6,0.13,,83,4567,6,37,55,0.897,0.0,400,4.78,12.9,0.0,1,26.5,1.48,5.4,0,0,1,1,0,,,,,,,,,,,,,,,,,,,,
94023,1627462444225,,,251,254,237,232,,0.13,0.05,1.88,-0,-7,-6,0.14,,84,4570,6,37,56,0.897,0.0,397,4.76,13.1,0.0,1,26.9,2.6,5.4,0,0,1,1,0,,,,,,,,,,,,,,,,,,,,
94043,1627462444245,13,7,251,254,237,232,-2,0.17,0.03,1.74,0,-6,-6,0.17,1,83,4501,6,37,56,0.896,0.0,404,4.72,13.2,0.0,1,26.0,2.55,5.4,0,0,1,1,0,0,250,250,0,47.221169,14.761599,0.0,688.9,9,2,1.7,0,0.0,-1,0.0,0.0,0.0,0,0.02,1.5674
94063,1627462444265,,,251,254,237,232,,0.2,-0.02,1.61,0,-5,-5,0.2,,83,4592,6,37,56,0.897,0.0,396,4.71,13.1,0.0,1,27.2,2.61,5.4,0,0,1,1,0,,,,,,,,,,,,,,,,,,,,
94083,1627462444285,,,251,254,237,232,,0.23,-0.02,1.48,0,-4,-4,0.23,,83,4528,6,37,55,0.898,0.0,407,4.73,13.1,0.0,1,26.1,2.56,5.4,0,0,1,1,0,,,,,,,,,,,,,,,,,,,,
94103,1627462444307,,,251,254,237,232,,0.25,-0.06,1.37,0,-2,-2,0.25,,83,4560,6,37,56,0.899,0.0,398,4.73,13.2,0.0,1,26.8,2.59,5.3,0,0,1,1,0,,,,,,,,,,,,,,,,,,,,
94123,1627462444327,,,251,254,237,232,,0.25,-0.1,1.26,0,-1,-0,0.27,,83,4596,6,37,56,0.9,0.0,403,4.75,13.2,0.0,1,27.2,2.61,5.3,0,0,1,1,0,,,,,,,,,,,,,,,,,,,,
94143,1627462444347,14,7,251,254,237,232,-1,0.26,-0.12,1.16,0,0,1,0.28,1,83,4513,6,37,56,0.9,0.0,402,4.72,13.2,0.0,1,26.2,2.56,5.3,0,0,1,1,0,0,250,250,0,47.221169,14.761599,0.0,688.9,9,2,1.7,0,0.0,-1,0.0,,0.0,0,0.02,1.5691
94163,1627462444367,,,251,254,237,232,,0.23,-0.13,1.07,0,2,3,0.26,,83,4615,6,37,56,0.9,0.0,397,4.76,13.2,0.0,1,27.4,2.62,5.3,0,0,1,1,0,,,,,,,,,,,,,,,,,,,,
94183,1627462444387,,,251,254,237,232,,0.2,-0.14,0.99,0,3,4,0.24,,83,4544,6,37,56,0.899,0.0,407,4.73,13.2,0.0,1,26.6,2.58,5.3,0,0,1,1,0,,,,,,,,,,,,,,,,,,,,
94203,1627462444407,,,251,254,237,232,,0.17,-0.12,0.92,0,5,5,0.21,,83,4572,6,37,56,0.899,0.0,402,4.73,13.2,0.0,1,26.9,2.6,5.3,0,0,1,1,0,,,,,,,,,,,,,,,,,,,,
94223,1627462444427,,,251,254,237,232,,0.13,-0.09,0.96,0,5,6,0.15,,83,4596,6,37,56,0.899,0.0,402,4.73,13.2,0.0,1,27.2,2.61,5.3,0,0,1,1,0,,,,,,,,,,,,,,,,,,,,
94243,1627462444447,13,7,251,254,237,232,-1,0.07,-0.06,1.03,0,6,6,0.1,1,83,4534,6,37,56,0.899,0.0,407,4.75,13.2,0.0,1,26.4,1.47,5.3,0,0,1,1,0,0,250,250,0,47.221169,14.761599,0.0,688.9,9,2,1.7,0,0.0,-1,0.0,0.0,0.0,0,0.02,1.5707
94263,1627462444467,,,251,254,237,232,,0.03,-0.05,1.25,0,6,5,0.05,,83,4611,6,37,56,0.899,0.0,401,4.71,13.1,0.0,1,27.4,1.52,5.3,0,0,1,1,0,,,,,,,,,,,,,,,,,,,,
94283,1627462444487,,,251,254,237,232,,-0.0,-0.01,1.47,0,5,4,0.01,,83,4539,6,37,56,0.899,0.0,404,4.75,13.1,0.0,1,26.5,2.57,5.3,0,0,1,1,0,,,,,,,,,,,,,,,,,,,,
94303,1627462444507,,,251,254,237,232,,-0.04,0.01,1.66,0,4,3,0.04,,83,4526,6,37,56,0.9,0.0,396,4.73,13.2,0.0,1,26.3,2.57,5.3,0,0,1,1,0,,,,,,,,,,,,,,,,,,,,
94323,1627462444527,,,251,254,237,232,,-0.07,0.03,1.84,0,2,2,0.07,,83,4555,6,37,56,0.9,0.0,395,4.77,13.0,0.0,1,26.7,1.48,5.3,0,0,1,1,0,,,,,,,,,,,,,,,,,,,,
94343,1627462444547,14,7,251,254,237,232,-2,-0.1,0.06,2.01,0,2,1,0.12,1,83,4478,6,37,56,0.9,0.0,402,4.73,13.2,0.0,1,25.7,1.44,5.3,0,0,1,1,0,0,250,250,0,47.221169,14.761599,0.0,688.9,9,2,1.7,0,0.0,-1,0.0,,0.0,0,0.02,1.5724
94363,1627462444567,,,251,254,237,232,,-0.11,0.1,2.16,0,-0,-0,0.15,,83,4560,6,37,56,0.9,0.0,393,4.76,13.0,0.0,1,26.9,2.59,5.3,0,0,1,1,0,,,,,,,,,,,,,,,,,,,,
94383,1627462444587,,,251,254,237,232,,-0.14,0.11,2.3,0,-1,-1,0.18,,83,4508,6,37,56,0.9,0.0,398,4.7,13.2,0.0,1,26.1,1.46,5.3,0,0,1,1,0,,,,,,,,,,,,,,,,,,,,
94403,1627462444607,,,251,254,237,232,,-0.16,0.13,2.43,0,-2,-2,0.2,,83,4531,6,37,56,0.901,0.0,393,4.79,13.0,0.0,1,27.0,1.5,5.3,0,0,1,1,0,,,,,,,,,,,,,,,,,,,,
94423,1627462444627,,,251,254,237,232,,-0.16,0.16,2.55,0,-4,-4,0.23,,83,4597,6,37,56,0.902,0.0,401,4.76,13.0,0.0,1,27.2,1.51,5.3,0,0,1,1,0,,,,,,,,,,,,,,,,,,,,
94443,1627462444647,14,6,251,254,237,232,-1,-0.15,0.18,2.66,-0,-5,-5,0.24,1,83,4549,6,37,56,0.902,0.0,398,4.78,13.0,0.0,1,26.6,1.48,5.3,0,0,1,1,0,0,250,250,0,47.221169,14.761599,0.0,688.9,9,2,1.7,0,0.0,-1,0.0,0.0,0.0,0,0.02,1.574
94463,1627462444667,,,251,254,237,232,,-0.12,0.19,2.77,-0,-6,-6,0.23,,83,4671,6,37,55,0.903,0.0,398,4.76,13.0,0.0,1,27.8,2.66,5.3,0,0,1,1,0,,,,,,,,,,,,,,,,,,,,
94483,1627462444687,,,251,254,237,232,,-0.07,0.16,2.55,0,-6,-6,0.18,,83,4613,6,37,55,0.903,0.0,407,4.77,13.1,0.0,1,27.1,2.62,5.3,0,0,1,1,0,,,,,,,,,,,,,,,,,,,,
94503,1627462444706,,,251,254,237,232,,-0.0,0.14,2.36,0,-6,-6,0.14,,83,4623,6,37,55,0.902,0.0,409,4.78,13.2,0.0,1,27.2,2.62,5.5,0,0,1,1,0,,,,,,,,,,,,,,,,,,,,
94523,1627462444726,,,251,254,237,232,,0.04,0.11,2.17,0,-4,-4,0.11,,83,4671,6,37,55,0.902,0.0,405,4.77,13.1,0.0,1,27.8,2.66,5.5,0,0,1,1,0,,,,,,,,,,,,,,,,,,,,
94543,1627462444746,13,7,251,254,237,232,-1,0.07,0.04,2.01,0,-3,-3,0.08,1,83,4584,6,37,55,0.901,0.0,410,4.75,13.2,0.0,1,26.8,2.6,5.5,0,0,1,1,0,0,250,250,0,47.221169,14.761599,0.0,688.9,9,2,1.7,0,0.0,-1,0.0,,0.0,0,0.02,1.5757
94563,1627462444766,,,251,254,237,232,,0.07,0.02,1.85,0,-1,-0,0.07,,83,4661,6,37,55,0.899,0.0,401,4.74,13.2,0.0,1,27.7,2.65,5.5,0,0,1,1,0,,,,,,,,,,,,,,,,,,,,
94583,1627462444786,,,251,254,237,232,,0.04,0.0,1.74,0,0,1,0.04,,83,4643,6,37,55,0.898,0.0,410,4.73,13.2,0.0,1,27.5,2.64,5.5,0,0,1,1,0,,,,,,,,,,,,,,,,,,,,
94603,1627462444806,,,251,254,237,232,,-0.0,0.0,1.69,0,2,2,0.0,,83,4589,6,37,55,0.898,0.0,407,4.73,13.2,0.0,1,26.8,1.5,5.5,0,0,1,1,0,,,,,,,,,,,,,,,,,,,,
94623,1627462444826,,,251,254,237,232,,-0.04,0.04,1.87,0,2,1,0.06,,83,4628,6,37,55,0.898,0.0,406,4.71,13.1,0.0,1,27.3,2.63,5.5,0,0,1,1,0,,,,,,,,,,,,,,,,,,,,
94643,1627462444846,14,6,251,254,237,232,-2,-0.08,0.07,2.03,0,1,0,0.11,1,83,4556,6,37,55,0.898,0.0,405,4.75,13.1,0.0,1,26.4,1.48,5.5,0,0,1,1,0,0,250,250,0,47.221169,14.761599,0.0,688.9,9,2,1.7,0,0.0,-1,0.0,0.0,0.0,0,0.02,1.5774
94663,1627462444866,,,251,254,237,232,,-0.11,0.09,2.17,0,1,-0,0.14,,83,4483,6,37,55,0.899,0.0,398,4.77,13.1,0.0,1,25.5,1.43,5.5,0,0,1,1,0,,,,,,,,,,,,,,,,,,,,
94683,1627462444886,,,251,254,237,232,,-0.13,0.12,2.31,0,0,-1,0.17,,83,4486,6,37,55,0.899,0.0,397,4.77,13.1,0.0,1,25.5,1.43,5.5,0,0,1,1,0,,,,,,,,,,,,,,,,,,,,
94703,1627462444906,,,251,254,237,232,,-0.13,0.13,2.35,0,-0,-1,0.19,,83,4428,6,37,56,0.899,0.0,393,4.75,13.1,0.0,1,25.1,1.4,5.1,0,0,1,1,0,,,,,,,,,,,,,,,,,,,,
94723,1627462444926,,,251,254,237,232,,-0.16,0.14,2.32,0,0,-1,0.21,,83,4463,6,37,56,0.901,0.0,389,4.76,13.2,0.0,1,25.5,1.43,5.1,0,0,1,1,0,,,,,,,,,,,,,,,,,,,,
94743,1627462444946,13,7,251,254,237,232,-1,-0.17,0.11,2.3,0,0,-0,0.21,1,83,4505,6,37,56,0.902,0.0,398,4.75,13.2,0.0,1,26.1,2.56,5.1,0,0,1,1,0,0,250,250,0,47.221169,14.761599,0.0,688.9,9,2,1.8,0,0.0,-1,0.0,,0.0,0,0.02,1.5791
94763,1627462444966,,,251,254,237,232,,-0.18,0.09,2.16,0,1,0,0.2,,83,4443,6,37,56,0.904,0.0,391,4.72,13.2,0.0,1,25.3,1.41,5.1,0,0,1,1,0,,,,,,,,,,,,,,,,,,,,
94783,1627462444986,,,251,254,237,232,,-0.18,0.09,2.04,0,2,1,0.2,,83,4503,6,37,56,0.906,0.0,394,4.75,13.2,0.0,1,26.0,2.56,5.1,0,0,1,1,0,,,,,,,,,,,,,,,,,,,,
94803,1627462444998,,,251,254,237,232,,-0.19,0.09,1.94,0,2,2,0.21,,83,4495,6,37,56,0.907,0.0,391,4.73,13.2,0.0,1,25.9,2.55,5.3,0,0,1,1,0,,,,,,,,,,,,,,,,,,,,
94823,1627462445018,,,251,254,237,232,,-0.2,0.07,1.79,0,3,2,0.21,,83,4442,6,37,56,0.908,0.0,391,4.76,13.2,0.0,1,25.3,2.51,5.3,0,0,1,1,0,,,,,,,,,,,,,,,,,,,,
94843,1627462445038,14,7,251,254,237,232,-1,-0.21,0.06,1.73,0,4,3,0.21,1,83,4558,6,37,56,0.909,0.0,392,4.71,13.2,0.0,1,26.7,1.49,5.3,0,0,1,1,0,0,250,250,0,47.221169,14.761599,0.0,688.9,9,2,1.8,0,0.0,-1,0.0,0.0,0.0,0,0.02,1.5807
94863,1627462445058,,,251,254,237,232,,-0.2,0.05,1.62,0,4,3,0.21,,83,4486,6,37,56,0.91,0.0,394,4.76,13.2,0.0,1,25.8,2.54,5.3,0,0,1,1,0,,,,,,,,,,,,,,,,,,,,
94883,1627462445078,,,251,254,237,232,,-0.21,0.07,1.56,0,4,3,0.22,,83,4531,6,37,56,0.911,0.0,394,4.72,13.2,0.0,1,26.4,1.47,5.3,0,0,1,1,0,,,,,,,,,,,,,,,,,,,,
94903,1627462445106,,,251,254,237,232,,-0.22,0.05,1.57,0,4,3,0.23,,83,4531,6,37,56,0.911,0.0,395,4.71,13.2,0.0,1,26.4,1.47,5.3,0,0,1,1,0,,,,,,,,,,,,,,,,,,,,
94923,1627462445126,,,251,254,237,232,,-0.24,0.04,1.56,0,5,3,0.25,,83,4502,6,37,56,0.912,0.0,393,4.75,13.2,0.0,1,26.0,2.56,5.3,0,0,1,1,0,,,,,,,,,,,,,,,,,,,,
94943,1627462445146,13,7,251,254,237,232,-1,-0.25,0.07,1.74,0,4,3,0.26,1,83,4609,6,37,56,0.913,0.0,397,4.72,13.1,0.0,1,27.4,2.62,5.3,0,0,1,1,0,0,250,250,0,47.221169,14.761599,0.0,688.9,9,2,2.8,0,0.0,-1,0.0,,0.0,0,0.02,1.5824
94963,1627462445166,,,251,254,237,232,,-0.28,0.11,1.89,0,3,2,0.3,,83,4552,6,37,56,0.912,0.0,394,4.72,13.2,0.0,1,26.7,2.58,5.3,0,0,1,1,0,,,,,,,,,,,,,,,,,,,,
94983,1627462445186,,,251,254,237,232,,-0.29,0.12,2.05,0,2,0,0.31,,83,4578,6,37,56,0.911,0.0,398,4.79,13.0,0.0,1,27.0,1.5,5.3,0,0,1,1,0,,,,,,,,,,,,,,,,,,,,
95003,1627462445206,,,251,254,237,232,,-0.28,0.15,2.2,0,-0,-1,0.32,,83,4626,6,37,56,0.909,0.0,408,4.78,12.9,0.0,1,27.6,1.53,5.7,0,0,1,1,0,,,,,,,,,,,,,,,,,,,,
95023,1627462445226,,,251,254,237,232,,-0.26,0.18,2.34,0,-2,-3,0.32,,83,4575,6,37,56,0.908,0.0,401,4.78,12.8,0.0,1,26.9,1.5,5.7,0,0,1,1,0,,,,,,,,,,,,,,,,,,,,
95043,1627462445246,13,7,251,254,237,232,-1,-0.22,0.19,2.43,0,-3,-4,0.29,1,83,4667,6,37,56,0.906,0.0,406,4.74,13.0,0.0,1,28.1,2.66,5.7,0,0,1,1,0,0,250,250,0,47.221169,14.761599,0.0,688.9,9,2,1.8,0,0.0,-1,0.0,0.0,0.0,0,0.02,1.584
95063,1627462445266,,,251,254,237,232,,-0.15,0.15,2.27,0,-4,-4,0.21,,83,4606,6,37,55,0.906,0.0,408,4.78,13.1,0.0,1,27.0,2.61,5.7,0,0,1,1,0,,,,,,,,,,,,,,,,,,,,
95083,1627462445286,,,251,254,237,232,,-0.08,0.13,2.1,0,-4,-4,0.15,,83,4605,6,37,55,0.904,0.0,411,4.75,13.2,0.0,1,27.0,1.51,5.7,0,0,1,1,0,,,,,,,,,,,,,,,,,,,,
95103,1627462445308,,,251,254,237,232,,-0.03,0.08,1.94,0,-2,-2,0.09,,83,4666,6,37,56,0.903,0.0,405,4.75,13.2,0.0,1,28.1,2.65,5.7,0,0,1,1,0,,,,,,,,,,,,,,,,,,,,
95123,1627462445328,,,251,254,237,232,,0.01,0.03,1.79,0,-1,-1,0.03,,83,4562,6,37,55,0.902,0.0,409,4.74,13.2,0.0,1,26.5,2.58,5.7,0,0,1,1,0,,,,,,,,,,,,,,,,,,,,
95143,1627462445348,14,7,251,254,237,232,-2,0.03,-0.01,1.65,0,1,1,0.03,1,83,4626,6,37,56,0.901,0.0,410,4.74,13.2,0.0,1,27.6,2.63,5.7,0,0,1,1,0,0,250,250,0,47.221169,14.761599,0.0,688.9,9,2,1.7,0,0.0,-1,0.0,,0.0,0,0.02,1.5857
95163,1627462445368,,,251,254,237,232,,0.02,-0.02,1.52,0,2,2,0.03,,83,4611,6,37,55,0.9,0.0,408,4.73,13.2,0.0,1,27.1,2.61,5.7,0,0,1,1,0,,,,,,,,,,,,,,,,,,,,
95183,1627462445388,,,251,254,237,232,,0.0,-0.03,1.41,0,3,4,0.03,,83,4556,6,37,55,0.898,0.0,407,4.75,13.2,0.0,1,26.4,2.58,5.7,0,0,1,1,0,,,,,,,,,,,,,,,,,,,,
95203,1627462445406,,,251,254,237,232,,-0.02,-0.03,1.33,0,4,4,0.03,,83,4609,6,37,56,0.897,0.0,405,4.76,13.2,0.0,1,27.4,2.62,5.5,0,0,1,1,0,,,,,,,,,,,,,,,,,,,,
95223,1627462445426,,,251,254,237,232,,-0.06,0.01,1.41,0,4,3,0.06,,83,4594,6,37,56,0.897,0.0,402,4.71,13.2,0.0,1,27.2,2.61,5.5,0,0,1,1,0,,,,,,,,,,,,,,,,,,,,
95243,1627462445446,14,5,251,254,237,232,-1,-0.11,0.02,1.61,0,3,2,0.11,1,83,4606,6,37,56,0.897,0.0,404,4.73,13.2,0.0,1,27.3,2.62,5.5,0,0,1,1,0,0,250,250,0,47.221169,14.761599,0.0,688.9,9,2,1.7,0,0.0,-1,0.0,0.0,0.0,0,0.02,1.5874
95263,1627462445466,,,251,254,237,232,,-0.14,0.04,1.79,0,2,1,0.14,,83,4575,6,37,55,0.898,0.0,399,4.77,13.0,0.0,1,26.6,2.59,5.5,0,0,1,1,0,,,,,,,,,,,,,,,,,,,,
95283,1627462445486,,,251,254,237,232,,-0.15,0.07,1.96,0,0,-0,0.17,,83,4580,6,37,55,0.899,0.0,400,4.75,13.0,0.0,1,26.7,1.49,5.5,0,0,1,1,0,,,,,,,,,,,,,,,,,,,,
95303,1627462445506,,,251,254,237,232,,-0.17,0.1,2.12,0,-2,-2,0.2,,83,4585,6,37,55,0.899,0.0,403,4.77,12.9,0.0,1,26.8,1.5,5.5,0,0,1,1,0,,,,,,,,,,,,,,,,,,,,
95323,1627462445526,,,251,254,237,232,,-0.17,0.12,2.26,0,-3,-3,0.2,,83,4546,6,37,55,0.9,0.0,397,4.76,12.9,0.0,1,26.3,1.47,5.5,0,0,1,1,0,,,,,,,,,,,,,,,,,,,,
95343,1627462445546,14,5,251,254,237,232,-1,-0.15,0.12,2.4,0,-5,-4,0.2,1,83,4559,6,37,55,0.901,0.0,403,4.79,12.8,0.0,1,26.4,1.48,5.5,0,0,1,1,0,0,250,250,0,47.221169,14.761599,0.0,688.9,9,2,1.8,0,0.0,-1,0.0,,0.0,0,0.02,1.5891
95363,1627462445566,,,251,254,237,232,,-0.14,0.15,2.52,-0,-6,-5,0.21,,83,4521,6,37,55,0.901,0.0,394,4.83,13.0,0.0,1,26.0,1.46,5.5,0,0,1,1,0,,,,,,,,,,,,,,,,,,,,
95383,1627462445586,,,251,254,237,232,,-0.14,0.16,2.63,-0,-6,-6,0.22,,83,4496,6,37,55,0.901,0.0,399,4.81,13.0,0.0,1,25.7,1.44,5.5,0,0,1,1,0,,,,,,,,,,,,,,,,,,,,
95403,1627462445606,,,251,254,237,232,,-0.12,0.17,2.74,-0,-7,-7,0.21,,83,4511,6,37,56,0.9,0.0,394,4.71,12.9,0.0,1,26.1,1.46,5.3,0,0,1,1,0,,,,,,,,,,,,,,,,,,,,
95423,1627462445626,,,251,254,237,232,,-0.11,0.2,2.83,-0,-8,-7,0.22,,83,4486,6,37,56,0.899,0.0,394,4.71,12.9,0.0,1,25.8,1.44,5.3,0,0,1,1,0,,,,,,,,,,,,,,,,,,,,
95443,1627462445646,14,7,251,254,237,232,-1,-0.1,0.2,2.92,-0,-8,-8,0.23,1,83,4520,6,37,56,0.898,0.0,394,4.8,13.0,0.0,1,26.3,2.57,5.3,0,0,1,1,0,0,250,250,0,47.221169,14.761599,0.0,688.9,9,2,1.8,0,0.0,-1,0.0,0.0,0.0,0,0.02,1.5907
95463,1627462445666,,,251,254,237,232,,-0.09,0.2,2.99,-0,-9,-8,0.22,,83,4537,6,37,55,0.897,0.0,396,4.77,13.0,0.0,1,26.2,2.57,5.3,0,0,1,1,0,,,,,,,,,,,,,,,,,,,,
95483,1627462445686,,,251,254,237,232,,-0.08,0.2,3.05,-0,-9,-9,0.21,,83,4502,6,37,56,0.896,0.0,398,4.75,12.9,0.0,1,26.0,1.46,5.3,0,0,1,1,0,,,,,,,,,,,,,,,,,,,,
95503,1627462445707,,,251,254,237,232,,-0.06,0.2,3.12,-0,-10,-9,0.2,,83,4528,6,37,56,0.894,0.0,397,4.74,13.0,0.0,1,26.4,1.47,5.3,0,0,1,1,0,,,,,,,,,,,,,,,,,,,,
95523,1627462445727,,,251,254,237,232,,-0.04,0.2,3.11,-0,-10,-10,0.2,,83,4511,6,37,56,0.893,0.0,395,4.73,13.0,0.0,1,26.1,1.46,5.3,0,0,1,1,0,,,,,,,,,,,,,,,,,,,,
95543,1627462445747,14,6,251,254,237,232,-1,-0.04,0.19,3.09,-0,-10,-10,0.19,1,83,4496,6,37,56,0.893,0.0,401,4.71,13.0,0.0,1,26.0,2.55,5.3,0,0,1,1,0,0,250,250,0,47.221169,14.761599,0.0,688.9,9,2,1.7,0,0.0,-1,0.0,,0.0,0,0.02,1.5924
95563,1627462445767,,,251,254,237,232,,-0.01,0.17,3.08,-0,-10,-10,0.17,,83,4539,6,37,56,0.893,0.0,392,4.78,13.0,0.0,1,26.5,1.47,5.3,0,0,1,1,0,,,,,,,,,,,,,,,,,,,,
95583,1627462445787,,,251,254,237,232,,0.05,0.14,2.85,-0,-10,-10,0.15,,83,4513,6,37,56,0.892,0.0,400,4.77,12.9,0.0,1,26.2,2.56,5.3,0,0,1,1,0,,,,,,,,,,,,,,,,,,,,
95603,1627462445805,,,251,254,237,232,,0.08,0.13,2.78,-0,-10,-10,0.15,,83,4533,6,37,56,0.892,0.0,389,4.77,12.8,0.0,1,26.4,2.57,5.3,0,0,1,1,0,,,,,,,,,,,,,,,,,,,,
95623,1627462445825,,,251,254,237,232,,0.12,0.1,2.57,-0,-9,-9,0.15,,83,4537,6,37,56,0.892,0.0,396,4.78,12.9,0.0,1,26.5,2.57,5.3,0,0,1,1,0,,,,,,,,,,,,,,,,,,,,
95643,1627462445845,13,7,251,254,237,232,-1,0.16,0.05,2.37,-0,-9,-9,0.17,1,83,4533,6,37,56,0.893,0.0,392,4.77,12.9,0.0,1,26.4,2.57,5.3,0,0,1,1,0,0,250,250,0,47.221169,14.761599,0.0,688.9,9,2,1.7,0,0.0,-1,0.0,0.0,0.0,0,0.02,1.594
95663,1627462445865,,,251,254,237,232,,0.19,0.03,2.19,-0,-8,-8,0.19,,83,4562,6,37,56,0.895,0.0,398,4.71,13.1,0.0,1,26.8,2.59,5.3,0,0,1,1,0,,,,,,,,,,,,,,,,,,,,
95683,1627462445885,,,251,254,237,232,,0.21,0.01,2.02,-0,-7,-7,0.21,,83,4534,6,37,56,0.896,0.0,401,4.73,13.2,0.0,1,26.4,2.57,5.3,0,0,1,1,0,,,,,,,,,,,,,,,,,,,,
95703,1627462445907,,,251,254,237,232,,0.23,-0.03,1.86,0,-5,-6,0.23,,83,4514,6,37,56,0.898,0.0,398,4.71,13.2,0.0,1,26.2,1.47,5.3,0,0,1,1,0,,,,,,,,,,,,,,,,,,,,
95723,1627462445927,,,251,254,237,232,,0.25,-0.06,1.72,0,-4,-5,0.25,,83,4552,6,37,56,0.899,0.0,393,4.73,13.2,0.0,1,26.7,2.58,5.3,0,0,1,1,0,,,,,,,,,,,,,,,,,,,,
95743,1627462445947,13,7,251,254,237,232,-1,0.25,-0.07,1.59,0,-3,-4,0.26,1,83,4527,6,37,56,0.901,0.0,397,4.74,13.2,0.0,1,26.3,2.57,5.3,0,0,1,1,0,0,250,250,0,47.221169,14.761599,0.0,688.9,9,2,1.7,0,0.0,-1,0.0,,0.0,0,0.02,1.5957
95763,1627462445967,,,251,254,237,232,,0.24,-0.1,1.46,0,-1,-2,0.26,,83,4555,6,37,56,0.902,0.0,392,4.7,13.1,0.0,1,26.7,2.58,5.3,0,0,1,1,0,,,,,,,,,,,,,,,,,,,,
95783,1627462445987,,,251,254,237,232,,0.24,-0.13,1.35,0,0,-1,0.27,,83,4548,6,37,56,0.904,0.0,402,4.7,13.2,0.0,1,26.6,2.58,5.3,0,0,1,1,0,,,,,,,,,,,,,,,,,,,,
95803,1627462445999,,,251,254,237,232,,0.22,-0.13,1.25,0,1,1,0.26,,83,4516,6,37,56,0.907,0.0,394,4.71,13.2,0.0,1,26.2,2.57,5.3,0,0,1,1,0,,,,,,,,,,,,,,,,,,,,
95823,1627462446019,,,251,254,237,232,,0.2,-0.12,1.15,0,3,2,0.23,,83,4538,6,37,56,0.909,0.0,401,4.73,13.2,0.0,1,26.5,2.57,5.3,0,0,1,1,0,,,,,,,,,,,,,,,,,,,,
95843,1627462446039,14,7,251,254,237,232,-1,0.17,-0.12,1.06,0,4,3,0.21,1,83,4515,6,37,56,0.911,0.0,397,4.76,13.2,0.0,1,26.2,2.57,5.3,0,0,1,1,0,0,250,250,0,47.221169,14.761599,0.0,688.9,9,2,2.3,0,0.0,-1,0.0,0.0,0.0,0,0.02,1.5974
95863,1627462446059,,,251,254,237,232,,0.15,-0.12,0.98,0,5,5,0.2,,83,4530,6,37,56,0.912,0.0,394,4.77,13.2,0.0,1,26.4,2.57,5.3,0,0,1,1,0,,,,,,,,,,,,,,,,,,,,
95883,1627462446079,,,251,254,237,232,,0.12,-0.09,0.91,0,6,6,0.15,,83,4593,6,37,56,0.913,0.0,397,4.75,13.2,0.0,1,27.2,2.61,5.3,0,0,1,1,0,,,,,,,,,,,,,,,,,,,,
95903,1627462446099,,,251,254,237,232,,0.07,-0.09,1.0,0,7,7,0.12,,83,4577,6,37,56,0.914,0.0,397,4.74,13.2,0.0,1,27.0,1.5,5.5,0,0,1,1,0,,,,,,,,,,,,,,,,,,,,
95923,1627462446119,,,251,254,237,232,,0.02,-0.07,1.19,0,8,7,0.07,,83,4588,6,37,56,0.915,0.0,403,4.72,13.2,0.0,1,27.1,2.61,5.5,0,0,1,1,0,,,,,,,,,,,,,,,,,,,,
95943,1627462446139,14,7,251,254,237,232,-1,-0.02,-0.02,1.41,0,8,7,0.03,1,83,4622,6,37,56,0.915,0.0,405,4.71,13.2,0.0,1,27.5,2.63,5.5,0,0,1,1,0,0,250,250,0,47.221169,14.761599,0.0,688.9,9,2,2.3,0,0.0,-1,0.0,,0.0,0,0.02,1.5991
95963,1627462446159,,,251,254,237,232,,-0.05,0.02,1.61,0,7,6,0.06,,83,4582,6,37,56,0.916,0.0,400,4.73,13.1,0.0,1,27.0,2.6,5.5,0,0,1,1,0,,,,,,,,,,,,,,,,,,,,
95983,1627462446107,,,251,254,237,232,,-0.06,0.05,1.79,0,6,4,0.08,,83,4604,6,37,56,0.916,0.0,405,4.73,13.2,0.0,1,27.3,2.62,5.5,0,0,1,1,0,,,,,,,,,,,,,,,,,,,,
96003,1627462446207,,,251,254,237,232,,-0.06,0.09,1.96,0,4,3,0.11,,83,4568,6,37,56,0.917,0.0,400,4.71,13.1,0.0,1,26.9,2.59,5.4,0,0,1,1,0,,,,,,,,,,,,,,,,,,,,
96023,1627462446227,,,251,254,237,232,,-0.04,0.11,2.12,0,2,1,0.12,,83,4618,6,37,56,0.916,0.0,398,4.73,13.1,0.0,1,27.5,2.62,5.4,0,0,1,1,0,,,,,,,,,,,,,,,,,,,,
96043,1627462446247,14,5,251,254,237,232,-2,-0.0,0.13,2.13,0,-0,-0,0.13,1,83,4626,6,37,56,0.916,0.0,400,4.76,13.0,0.0,1,27.6,2.63,5.4,0,0,1,1,0,0,250,250,0,47.221169,14.761599,0.0,688.9,9,2,2.3,0,0.0,-1,0.0,0.0,0.0,0,0.02,1.6007
96063,1627462446267,,,251,254,237,232,,0.04,0.1,2.01,0,-2,-1,0.11,,83,4564,6,37,55,0.915,0.0,401,4.77,12.9,0.0,1,26.5,1.48,5.4,0,0,1,1,0,,,,,,,,,,,,,,,,,,,,
96083,1627462446287,,,251,254,237,232,,0.09,0.09,1.85,0,-3,-3,0.13,,83,4601,6,37,55,0.913,0.0,409,4.76,13.0,0.0,1,27.0,2.61,5.4,0,0,1,1,0,,,,,,,,,,,,,,,,,,,,
96103,1627462446307,,,251,254,237,232,,0.12,0.05,1.71,0,-3,-3,0.13,,83,4566,6,37,55,0.913,0.0,399,4.79,12.9,0.0,1,26.5,1.48,5.5,0,0,1,1,0,,,,,,,,,,,,,,,,,,,,
96123,1627462446327,,,251,254,237,232,,0.16,0.01,1.58,0,-3,-3,0.16,,83,4520,6,37,55,0.913,0.0,400,4.77,12.9,0.0,1,26.0,2.56,5.5,0,0,1,1,0,,,,,,,,,,,,,,,,,,,,
96143,1627462446347,13,7,251,254,237,232,-1,0.2,-0.04,1.46,0,-3,-3,0.2,1,83,4580,6,37,55,0.913,0.0,394,4.75,13.0,0.0,1,26.7,2.59,5.5,0,0,1,1,0,0,250,250,0,47.221169,14.761599,0.0,688.9,9,2,2.3,0,0.0,-1,0.0,,0.0,0,0.02,1.6024
96163,1627462446367,,,251,254,237,232,,0.22,-0.04,1.34,0,-2,-2,0.22,,83,4518,6,37,55,0.913,0.0,399,4.75,13.0,0.0,1,25.9,2.56,5.5,0,0,1,1,0,,,,,,,,,,,,,,,,,,,,
96183,1627462446387,,,251,254,237,232,,0.24,-0.06,1.24,0,-1,-2,0.25,,83,4512,6,37,56,0.913,0.0,396,4.72,13.2,0.0,1,26.2,1.46,5.5,0,0,1,1,0,,,,,,,,,,,,,,,,,,,,
96203,1627462446407,,,251,254,237,232,,0.25,-0.1,1.14,0,-0,-1,0.28,,83,4562,6,37,56,0.912,0.0,396,4.73,13.2,0.0,1,26.8,1.49,5.4,0,0,1,1,0,,,,,,,,,,,,,,,,,,,,
96223,1627462446427,,,251,254,237,232,,0.27,-0.13,1.06,0,0,-0,0.31,,83,4495,6,37,56,0.911,0.0,396,4.72,13.2,0.0,1,25.9,2.55,5.4,0,0,1,1,0,,,,,,,,,,,,,,,,,,,,
96243,1627462446447,14,7,251,254,237,232,-1,0.28,-0.14,0.97,0,1,1,0.31,1,83,4567,6,37,56,0.91,0.0,398,4.72,13.2,0.0,1,26.8,2.59,5.4,0,0,1,1,0,0,250,250,0,47.221169,14.761599,0.0,688.9,9,2,2.3,0,0.0,-1,0.0,0.0,0.0,0,0.02,1.604
96263,1627462446467,,,251,254,237,232,,0.27,-0.15,0.9,0,3,2,0.31,,83,4560,6,37,56,0.91,0.0,395,4.71,13.1,0.0,1,26.8,2.58,5.4,0,0,1,1,0,,,,,,,,,,,,,,,,,,,,
96283,1627462446487,,,251,254,237,232,,0.27,-0.19,0.83,0,4,3,0.33,,83,4502,6,37,56,0.909,0.0,400,4.71,13.2,0.0,1,26.0,2.55,5.4,0,0,1,1,0,,,,,,,,,,,,,,,,,,,,
96303,1627462446507,,,251,254,237,232,,0.24,-0.18,0.77,0,5,4,0.3,,83,4613,6,37,56,0.909,0.0,394,4.8,13.2,0.0,1,27.4,2.62,5.5,0,0,1,1,0,,,,,,,,,,,,,,,,,,,,
96323,1627462446527,,,251,254,237,232,,0.2,-0.17,0.71,0,6,5,0.26,,83,4553,6,37,56,0.908,0.0,406,4.74,13.2,0.0,1,26.7,2.58,5.5,0,0,1,1,0,,,,,,,,,,,,,,,,,,,,
96343,1627462446547,14,6,251,254,237,232,-1,0.16,-0.17,0.65,1,7,7,0.23,1,83,4580,6,37,56,0.907,0.0,400,4.73,13.2,0.0,1,27.0,2.6,5.5,0,0,1,1,0,0,250,250,0,47.221169,14.761599,0.0,688.9,9,2,2.3,0,0.0,-1,0.0,,0.0,0,0.02,1.6057
96363,1627462446567,,,251,254,237,232,,0.11,-0.14,0.84,1,7,7,0.18,,83,4613,6,37,56,0.905,0.0,401,4.75,13.2,0.0,1,27.4,2.62,5.5,0,0,1,1,0,,,,,,,,,,,,,,,,,,,,
96383,1627462446587,,,251,254,237,232,,0.06,-0.1,1.01,0,8,7,0.12,,83,4557,6,37,56,0.903,0.0,402,4.76,13.2,0.0,1,26.7,1.49,5.5,0,0,1,1,0,,,,,,,,,,,,,,,,,,,,
96403,1627462446607,,,251,254,237,232,,0.03,-0.05,1.24,0,7,6,0.06,,83,4671,6,37,56,0.902,0.0,401,4.74,13.2,0.0,1,28.1,2.66,5.7,0,0,1,1,0,,,,,,,,,,,,,,,,,,,,
96423,1627462446627,,,251,254,237,232,,0.01,-0.01,1.45,0,5,5,0.01,,83,4594,6,37,56,0.9,0.0,407,4.69,13.2,0.0,1,27.2,1.51,5.7,0,0,1,1,0,,,,,,,,,,,,,,,,,,,,
96443,1627462446647,13,7,251,254,237,232,-1,0.01,0.04,1.65,0,3,2,0.04,1,83,4595,6,37,56,0.899,0.0,400,4.7,13.1,0.0,1,27.2,1.51,5.7,0,0,1,1,0,0,250,250,0,47.221169,14.761599,0.0,688.9,9,2,2.3,0,0.0,-1,0.0,0.0,0.0,0,0.02,1.6074
96463,1627462446667,,,251,254,237,232,,0.03,0.06,1.76,0,1,1,0.07,,83,4622,6,37,55,0.898,0.0,402,4.74,13.0,0.0,1,27.2,2.62,5.7,0,0,1,1,0,,,,,,,,,,,,,,,,,,,,
96483,1627462446687,,,251,254,237,232,,0.07,0.06,1.75,0,-1,-1,0.09,,83,4578,6,37,55,0.898,0.0,408,4.78,12.9,0.0,1,26.7,2.59,5.7,0,0,1,1,0,,,,,,,,,,,,,,,,,,,,
96503,1627462446706,,,251,254,237,232,,0.12,0.03,1.61,0,-2,-2,0.12,,83,4647,6,37,55,0.897,0.0,408,4.78,13.1,0.0,1,27.5,1.54,5.6,0,0,1,1,0,,,,,,,,,,,,,,,,,,,,
96523,1627462446726,,,251,254,237,232,,0.15,0.0,1.49,0,-2,-2,0.15,,83,4569,6,37,55,0.898,0.0,405,4.77,13.1,0.0,1,26.6,2.58,5.6,0,0,1,1,0,,,,,,,,,,,,,,,,,,,,
96543,1627462446746,13,7,251,254,237,232,-1,0.18,-0.04,1.38,0,-2,-2,0.19,1,83,4580,6,37,55,0.898,0.0,403,4.72,13.1,0.0,1,26.7,2.59,5.6,0,0,1,1,0,0,250,250,0,47.221169,14.761599,0.0,688.9,9,2,2.3,0,0.0,-1,0.0,,0.0,0,0.02,1.6091
96563,1627462446766,,,251,254,237,232,,0.2,-0.07,1.27,0,-1,-1,0.21,,83,4625,6,37,55,0.898,0.0,402,4.74,13.2,0.0,1,27.3,2.63,5.6,0,0,1,1,0,,,,,,,,,,,,,,,,,,,,
96583,1627462446786,,,251,254,237,232,,0.2,-0.08,1.17,0,1,0,0.21,,83,4534,6,37,55,0.898,0.0,408,4.73,13.2,0.0,1,26.1,2.56,5.6,0,0,1,1,0,,,,,,,,,,,,,,,,,,,,
96603,1627462446806,,,251,254,237,232,,0.18,-0.1,1.08,0,3,2,0.21,,83,4603,6,37,55,0.899,0.0,396,4.76,13.2,0.0,1,27.0,2.61,5.4,0,0,1,1,0,,,,,,,,,,,,,,,,,,,,
96623,1627462446826,,,251,254,237,232,,0.16,-0.11,1.0,0,4,4,0.2,,83,4587,6,37,55,0.899,0.0,405,4.76,13.2,0.0,1,26.8,2.6,5.4,0,0,1,1,0,,,,,,,,,,,,,,,,,,,,
96643,1627462446846,14,6,251,254,237,232,-1,0.12,-0.08,0.92,0,5,5,0.15,1,83,4568,6,37,55,0.9,0.0,402,4.73,13.2,0.0,1,26.6,2.58,5.4,0,0,1,1,0,0,250,250,0,47.221169,14.761599,0.0,688.9,9,2,2.3,0,0.0,-1,0.0,0.0,0.0,0,0.02,1.6107
96663,1627462446866,,,251,254,237,232,,0.07,-0.09,1.1,0,6,6,0.11,,83,4642,6,37,56,0.901,0.0,401,4.73,13.2,0.0,1,27.8,1.54,5.4,0,0,1,1,0,,,,,,,,,,,,,,,,,,,,
96683,1627462446886,,,251,254,237,232,,0.02,-0.07,1.28,0,7,6,0.07,,83,4554,6,37,55,0.901,0.0,404,4.71,13.2,0.0,1,26.4,2.57,5.4,0,0,1,1,0,,,,,,,,,,,,,,,,,,,,
96703,1627462446906,,,251,254,237,232,,-0.02,-0.02,1.49,0,6,5,0.02,,83,4609,6,37,55,0.901,0.0,398,4.71,13.1,0.0,1,27.1,1.51,5.5,0,0,1,1,0,,,,,,,,,,,,,,,,,,,,
96723,1627462446926,,,251,254,237,232,,-0.05,0.03,1.68,0,5,4,0.06,,83,4528,6,37,55,0.901,0.0,401,4.73,13.1,0.0,1,26.1,1.46,5.5,0,0,1,1,0,,,,,,,,,,,,,,,,,,,,
96743,1627462446946,14,5,251,254,237,232,-1,-0.08,0.05,1.86,0,4,3,0.09,1,83,4539,6,37,56,0.902,0.0,401,4.75,13.1,0.0,1,26.5,1.47,5.5,0,0,1,1,0,0,250,250,0,47.221169,14.761599,0.0,688.9,9,2,2.3,0,0.0,-1,0.0,,0.0,0,0.02,1.6124
96763,1627462446966,,,251,254,237,232,,-0.09,0.09,2.02,0,3,2,0.13,,83,4527,6,37,56,0.901,0.0,395,4.71,13.2,0.0,1,26.3,1.47,5.5,0,0,1,1,0,,,,,,,,,,,,,,,,,,,,
96783,1627462446986,,,251,254,237,232,,-0.1,0.12,2.18,0,2,1,0.16,,83,4485,6,37,56,0.9,0.0,397,4.73,13.1,0.0,1,25.8,1.44,5.5,0,0,1,1,0,,,,,,,,,,,,,,,,,,,,
96803,1627462446998,,,251,254,237,232,,-0.13,0.13,2.32,0,1,0,0.18,,83,4498,6,37,56,0.899,0.0,391,4.69,13.2,0.0,1,26.0,1.45,5.3,0,0,1,1,0,,,,,,,,,,,,,,,,,,,,
96823,1627462447018,,,251,254,237,232,,-0.14,0.15,2.45,0,0,-1,0.2,,83,4503,6,37,56,0.899,0.0,393,4.72,13.2,0.0,1,26.0,1.46,5.3,0,0,1,1,0,,,,,,,,,,,,,,,,,,,,
96843,1627462447038,14,7,251,254,237,232,-1,-0.15,0.17,2.57,0,-1,-1,0.23,1,83,4524,6,37,56,0.898,0.0,394,4.77,13.1,0.0,1,26.3,1.47,5.3,0,0,1,1,0,0,250,250,0,47.221169,14.761599,0.0,688.9,9,2,2.3,0,0.0,-1,0.0,0.0,0.0,0,0.02,1.614
96863,1627462447058,,,251,254,237,232,,-0.15,0.19,2.68,0,-2,-2,0.24,,83,4514,6,37,56,0.897,0.0,391,4.8,13.0,0.0,1,26.2,2.57,5.3,0,0,1,1,0,,,,,,,,,,,,,,,,,,,,
96883,1627462447078,,,251,254,237,232,,-0.17,0.2,2.78,0,-3,-3,0.26,,83,4482,6,37,56,0.896,0.0,397,4.79,13.0,0.0,1,25.8,1.44,5.3,0,0,1,1,0,,,,,,,,,,,,,,,,,,,,
96903,1627462447104,,,251,254,237,232,,-0.18,0.23,2.87,0,-3,-3,0.29,,83,4494,6,37,56,0.894,0.0,389,4.78,13.1,0.0,1,25.9,1.45,5.3,0,0,1,1,0,,,,,,,,,,,,,,,,,,,,
96923,1627462447124,,,251,254,237,232,,-0.18,0.25,2.96,0,-4,-4,0.31,,83,4489,6,37,56,0.894,0.0,393,4.78,13.1,0.0,1,25.9,1.45,5.3,0,0,1,1,0,,,,,,,,,,,,,,,,,,,,
96943,1627462447144,14,6,250,254,237,232,-0,-0.19,0.28,3.04,0,-4,-4,0.34,1,83,4477,6,37,56,0.894,0.0,389,4.75,13.1,0.0,1,25.7,1.44,5.3,0,0,1,1,0,0,250,250,0,47.221169,14.761599,0.0,688.9,9,2,2.3,0,0.0,-1,0.0,,0.0,0,0.02,1.6157
96963,1627462447164,,,251,254,237,232,,-0.21,0.29,3.11,-0,-5,-5,0.36,,83,4500,6,37,56,0.894,0.0,390,4.8,13.1,0.0,1,26.0,1.46,5.3,0,0,1,1,0,,,,,,,,,,,,,,,,,,,,
96983,1627462447184,,,251,254,237,232,,-0.22,0.3,3.18,0,-5,-5,0.37,,83,4495,6,37,56,0.894,0.0,394,4.73,13.2,0.0,1,25.9,2.55,5.3,0,0,1,1,0,,,,,,,,,,,,,,,,,,,,
97003,1627462447208,,,251,254,237,232,,-0.23,0.32,3.24,0,-5,-5,0.39,,83,4503,6,37,56,0.895,0.0,391,4.75,13.2,0.0,1,26.0,2.56,5.3,0,0,1,1,0,,,,,,,,,,,,,,,,,,,,
97023,1627462447228,,,251,254,237,232,,-0.24,0.34,3.3,-0,-5,-5,0.41,,83,4497,6,37,56,0.897,0.0,397,4.72,13.2,0.0,1,26.0,2.55,5.3,0,0,1,1,0,,,,,,,,,,,,,,,,,,,,
97043,1627462447248,14,7,251,254,237,232,-1,-0.25,0.35,3.35,-0,-6,-6,0.43,1,83,4487,6,37,56,0.898,0.0,393,4.73,13.2,0.0,1,25.8,2.55,5.3,0,0,1,1,0,0,250,250,0,47.221169,14.761599,0.0,688.9,9,2,2.3,0,0.0,-1,0.0,0.0,0.0,0,0.02,1.6174
97063,1627462447268,,,251,254,237,232,,-0.26,0.34,3.4,-0,-6,-6,0.43,,83,4523,6,37,56,0.898,0.0,389,4.74,13.1,0.0,1,26.3,1.47,5.3,0,0,1,1,0,,,,,,,,,,,,,,,,,,,,
97083,1627462447288,,,251,254,237,232,,-0.27,0.37,3.45,-0,-6,-6,0.46,,83,4498,6,37,56,0.899,0.0,393,4.76,13.1,0.0,1,26.0,1.45,5.3,0,0,1,1,0,,,,,,,,,,,,,,,,,,,,
97103,1627462447308,,,251,254,237,232,,-0.27,0.39,3.49,-0,-7,-7,0.47,,83,4542,6,37,56,0.901,0.0,389,4.71,13.2,0.0,1,26.5,1.48,5.4,0,0,1,1,0,,,,,,,,,,,,,,,,,,,,
97123,1627462447328,,,251,254,237,232,,-0.28,0.37,3.53,-0,-8,-8,0.46,,83,4538,6,37,56,0.902,0.0,397,4.72,13.2,0.0,1,26.5,1.47,5.4,0,0,1,1,0,,,,,,,,,,,,,,,,,,,,
97143,1627462447348,14,5,251,254,237,232,-1,-0.26,0.38,3.57,-0,-9,-9,0.46,1,83,4538,6,37,56,0.903,0.0,394,4.72,13.1,0.0,1,26.5,1.47,5.4,0,0,1,1,0,0,250,250,0,47.221169,14.761599,0.0,688.9,9,2,2.3,0,0.0,-1,0.0,,0.0,0,0.02,1.6191
97163,1627462447368,,,251,254,237,232,,-0.25,0.39,3.6,-0,-9,-9,0.47,,83,4546,6,37,56,0.905,0.0,397,4.72,13.1,0.0,1,26.3,2.57,5.4,0,0,1,1,0,,,,,,,,,,,,,,,,,,,,
97183,1627462447388,,,251,254,237,232,,-0.23,0.4,3.63,-0,-10,-10,0.46,,83,4516,6,37,56,0.905,0.0,397,4.73,13.1,0.0,1,26.2,2.57,5.4,0,0,1,1,0,,,,,,,,,,,,,,,,,,,,
97203,1627462447408,,,251,254,237,232,,-0.22,0.4,3.66,-0,-11,-11,0.46,,83,4532,6,37,56,0.907,0.0,393,4.76,13.1,0.0,1,26.4,2.57,5.4,0,0,1,1,0,,,,,,,,,,,,,,,,,,,,
97223,1627462447428,,,251,254,237,232,,-0.2,0.38,3.68,-0,-12,-11,0.43,,83,4528,6,37,56,0.908,0.0,395,4.77,13.1,0.0,1,26.4,2.57,5.4,0,0,1,1,0,,,,,,,,,,,,,,,,,,,,
97243,1627462447448,12,7,251,254,237,232,-1,-0.16,0.37,3.69,-0,-13,-12,0.41,1,83,4593,6,37,56,0.909,0.0,392,4.75,13.0,0.0,1,27.2,2.61,5.4,0,0,1,1,0,0,250,250,0,47.221169,14.761599,0.0,688.9,9,2,2.3,0,0.0,-1,0.0,0.0,0.0,0,0.02,1.6207
97263,1627462447468,,,251,254,237,232,,-0.12,0.35,3.49,-0,-13,-12,0.37,,83,4604,6,37,56,0.909,0.0,398,4.76,13.0,0.0,1,27.3,2.62,5.4,0,0,1,1,0,,,,,,,,,,,,,,,,,,,,
97283,1627462447488,,,251,254,237,232,,-0.07,0.34,3.23,-0,-13,-12,0.35,,83,4591,6,37,56,0.91,0.0,406,4.8,12.9,0.0,1,27.1,2.61,5.4,0,0,1,1,0,,,,,,,,,,,,,,,,,,,,
97303,1627462447506,,,251,254,237,232,,-0.02,0.28,2.98,-0,-11,-11,0.28,,83,4628,6,37,56,0.911,0.0,401,4.81,12.9,0.0,1,27.6,2.63,5.6,0,0,1,1,0,,,,,,,,,,,,,,,,,,,,
97323,1627462447526,,,251,254,237,232,,0.03,0.25,2.75,-0,-10,-10,0.25,,83,4568,6,37,56,0.912,0.0,410,4.77,13.0,0.0,1,26.9,2.59,5.6,0,0,1,1,0,,,,,,,,,,,,,,,,,,,,
97343,1627462447546,14,7,251,254,237,232,-2,0.06,0.19,2.54,-0,-8,-8,0.2,1,83,4618,6,37,56,0.913,0.0,401,4.76,13.1,0.0,1,27.5,2.62,5.6,0,0,1,1,0,0,250,250,0,47.221169,14.761599,0.0,688.9,9,2,2.3,0,0.0,-1,0.0,,0.0,0,0.02,1.6224
97363,1627462447566,,,251,254,237,232,,0.07,0.13,2.34,0,-6,-6,0.15,,83,4641,6,37,56,0.914,0.0,410,4.72,13.2,0.0,1,27.8,2.64,5.6,0,0,1,1,0,,,,,,,,,,,,,,,,,,,,
97383,1627462447586,,,251,254,237,232,,0.06,0.11,2.16,0,-4,-4,0.13,,83,4589,6,37,55,0.916,0.0,407,4.75,13.2,0.0,1,26.8,2.6,5.6,0,0,1,1,0,,,,,,,,,,,,,,,,,,,,
97403,1627462447606,,,251,254,237,232,,0.02,0.1,2.04,0,-2,-2,0.11,,83,4645,6,37,56,0.917,0.0,402,4.76,13.2,0.0,1,27.8,1.54,5.6,0,0,1,1,0,,,,,,,,,,,,,,,,,,,,
97423,1627462447626,,,251,254,237,232,,-0.03,0.1,2.12,0,-1,-1,0.1,,83,4602,6,37,55,0.917,0.0,408,4.72,13.2,0.0,1,27.0,1.51,5.6,0,0,1,1,0,,,,,,,,,,,,,,,,,,,,
97443,1627462447646,14,7,251,254,237,232,-1,-0.07,0.12,2.27,0,-1,-1,0.14,1,83,4589,6,37,55,0.918,0.0,404,4.73,13.1,0.0,1,26.8,1.5,5.6,0,0,1,1,0,0,250,250,0,47.221169,14.761599,0.0,688.9,9,2,2.3,0,0.0,-1,0.0,0.0,0.0,0,0.02,1.624
97463,1627462447666,,,251,254,237,232,,-0.11,0.14,2.4,0,-1,-1,0.18,,83,4574,6,37,55,0.918,0.0,401,4.74,13.1,0.0,1,26.6,2.59,5.6,0,0,1,1,0,,,,,,,,,,,,,,,,,,,,
97483,1627462447686,,,251,254,237,232,,-0.13,0.16,2.52,0,-2,-2,0.21,,83,4543,6,37,55,0.918,0.0,401,4.77,13.1,0.0,1,26.2,1.47,5.6,0,0,1,1,0,,,,,,,,,,,,,,,,,,,,
97503,1627462447705,,,251,254,237,232,,-0.15,0.19,2.64,0,-3,-3,0.24,,83,4563,6,37,55,0.919,0.0,397,4.78,13.0,0.0,1,26.5,1.48,5.4,0,0,1,1,0,,,,,,,,,,,,,,,,,,,,
97523,1627462447725,,,251,254,237,232,,-0.15,0.21,2.74,-0,-4,-4,0.26,,83,4522,6,37,56,0.919,0.0,400,4.72,13.1,0.0,1,26.3,2.57,5.4,0,0,1,1,0,,,,,,,,,,,,,,,,,,,,
97543,1627462447745,14,7,251,254,237,232,-2,-0.16,0.22,2.84,-0,-6,-5,0.27,1,83,4550,6,37,56,0.921,0.0,396,4.73,13.1,0.0,1,26.8,2.59,5.4,0,0,1,1,0,0,250,250,0,47.221169,14.761599,0.0,688.9,9,2,2.3,0,0.0,-1,0.0,,0.0,0,0.02,1.6257
97563,1627462447765,,,251,254,237,232,,-0.15,0.23,2.93,-0,-7,-6,0.27,,83,4534,6,37,55,0.922,0.0,397,4.78,12.9,0.0,1,26.1,1.46,5.4,0,0,1,1,0,,,,,,,,,,,,,,,,,,,,
97583,1627462447785,,,251,254,237,232,,-0.13,0.24,3.01,-0,-8,-7,0.27,,83,4542,6,37,56,0.921,0.0,401,4.74,13.1,0.0,1,26.5,1.48,5.4,0,0,1,1,0,,,,,,,,,,,,,,,,,,,,
97603,1627462447803,,,251,254,237,232,,-0.11,0.25,3.05,-0,-9,-8,0.27,,83,4569,6,37,55,0.921,0.0,394,4.81,13.0,0.0,1,26.6,1.48,5.5,0,0,1,1,0,,,,,,,,,,,,,,,,,,,,
97623,1627462447823,,,251,254,237,232,,-0.08,0.25,3.0,-0,-10,-9,0.26,,83,4537,6,37,55,0.92,0.0,400,4.85,13.0,0.0,1,26.2,2.57,5.5,0,0,1,1,0,,,,,,,,,,,,,,,,,,,,
97643,1627462447843,14,6,251,254,237,232,-1,-0.03,0.23,2.93,-0,-11,-9,0.23,1,83,4553,6,37,55,0.919,0.0,395,4.75,13.0,0.0,1,26.4,2.57,5.5,0,0,1,1,0,0,250,250,0,47.221169,14.761599,0.0,688.9,9,2,2.3,0,0.0,-1,0.0,0.0,0.0,0,0.02,1.6274
97663,1627462447863,,,251,254,237,232,,0.02,0.22,2.72,-0,-11,-9,0.22,,83,4594,6,37,55,0.919,0.0,402,4.8,12.9,0.0,1,26.9,2.6,5.5,0,0,1,1,0,,,,,,,,,,,,,,,,,,,,
97683,1627462447883,,,251,254,237,232,,0.06,0.2,2.51,-0,-10,-9,0.21,,83,4537,6,37,55,0.918,0.0,404,4.78,12.8,0.0,1,26.2,2.56,5.5,0,0,1,1,0,,,,,,,,,,,,,,,,,,,,
97703,1627462447907,,,251,254,237,232,,0.09,0.18,2.32,-0,-10,-9,0.21,,83,4562,6,37,55,0.918,0.0,399,4.77,12.9,0.0,1,26.5,2.58,5.4,0,0,1,1,0,,,,,,,,,,,,,,,,,,,,
97723,1627462447927,,,251,254,237,232,,0.13,0.15,2.14,0,-9,-8,0.2,,83,4524,6,37,56,0.918,0.0,402,4.75,13.1,0.0,1,26.3,2.57,5.4,0,0,1,1,0,,,,,,,,,,,,,,,,,,,,
97743,1627462447947,14,6,251,254,237,232,-1,0.18,0.12,1.98,0,-8,-7,0.21,1,83,4514,6,37,56,0.917,0.0,398,4.76,13.1,0.0,1,26.2,2.57,5.4,0,0,1,1,0,0,250,250,0,47.221169,14.761599,0.0,688.9,9,2,2.3,0,0.0,-1,0.0,,0.0,0,0.02,1.629
97763,1627462447967,,,251,254,237,232,,0.2,0.08,1.82,0,-6,-6,0.22,,83,4541,6,37,56,0.916,0.0,397,4.74,13.2,0.0,1,26.5,2.57,5.4,0,0,1,1,0,,,,,,,,,,,,,,,,,,,,
97783,1627462447987,,,251,254,237,232,,0.23,0.05,1.68,0,-5,-5,0.24,,83,4505,6,37,56,0.914,0.0,403,4.73,13.2,0.0,1,26.1,2.55,5.4,0,0,1,1,0,,,,,,,,,,,,,,,,,,,,
97803,1627462447999,,,251,254,237,232,,0.25,0.01,1.55,0,-4,-4,0.25,,83,4524,6,37,56,0.913,0.0,393,4.74,13.2,0.0,1,26.3,2.56,5.3,0,0,1,1,0,,,,,,,,,,,,,,,,,,,,
97823,1627462448019,,,251,254,237,232,,0.27,0.01,1.43,0,-3,-3,0.27,,83,4507,6,37,56,0.912,0.0,404,4.73,13.2,0.0,1,26.1,1.46,5.3,0,0,1,1,0,,,,,,,,,,,,,,,,,,,,
97843,1627462448039,14,6,251,254,237,232,-2,0.29,-0.02,1.32,0,-2,-3,0.29,1,83,4477,6,37,56,0.912,0.0,395,4.73,13.2,0.0,1,25.7,2.54,5.3,0,0,1,1,0,0,250,250,0,47.221169,14.761599,0.0,688.9,9,2,1.8,0,0.0,-1,0.0,0.0,0.0,0,0.02,1.6307
97863,1627462448059,,,251,254,237,232,,0.31,-0.06,1.22,0,-2,-2,0.31,,83,4524,6,37,56,0.911,0.0,396,4.73,13.2,0.0,1,26.3,2.57,5.3,0,0,1,1,0,,,,,,,,,,,,,,,,,,,,
97883,1627462448079,,,251,254,237,232,,0.33,-0.08,1.13,0,-1,-1,0.34,,83,4464,6,37,56,0.911,0.0,393,4.7,13.2,0.0,1,25.6,2.53,5.3,0,0,1,1,0,,,,,,,,,,,,,,,,,,,,
97903,1627462448105,,,251,254,237,232,,0.35,-0.09,1.04,0,-0,-1,0.36,,83,4546,6,37,56,0.911,0.0,390,4.72,13.2,0.0,1,26.6,2.58,5.3,0,0,1,1,0,,,,,,,,,,,,,,,,,,,,
97923,1627462448125,,,251,254,237,232,,0.35,-0.11,0.96,0,1,0,0.37,,83,4546,6,37,56,0.911,0.0,397,4.72,13.2,0.0,1,26.6,2.58,5.3,0,0,1,1,0,,,,,,,,,,,,,,,,,,,,
97943,1627462448145,13,7,251,254,237,232,-1,0.36,-0.15,0.89,0,2,1,0.39,1,83,4528,6,37,56,0.912,0.0,393,4.68,13.1,0.0,1,26.4,2.57,5.3,0,0,1,1,0,0,250,250,0,47.221169,14.761599,0.0,688.9,9,2,1.8,0,0.0,-1,0.0,,0.0,0,0.02,1.6324
97963,1627462448165,,,251,254,237,232,,0.36,-0.18,0.82,0,3,3,0.4,,83,4608,6,37,56,0.912,0.0,396,4.76,13.2,0.0,1,27.4,2.62,5.3,0,0,1,1,0,,,,,,,,,,,,,,,,,,,,
97983,1627462448185,,,251,254,237,232,,0.35,-0.18,0.75,0,4,4,0.39,,83,4519,6,37,56,0.912,0.0,406,4.73,13.2,0.0,1,26.2,2.57,5.3,0,0,1,1,0,,,,,,,,,,,,,,,,,,,,
98003,1627462448207,,,251,254,237,232,,0.31,-0.19,0.7,1,6,5,0.37,,83,4600,6,37,56,0.913,0.0,394,4.73,13.2,0.0,1,27.3,2.62,5.4,0,0,1,1,0,,,,,,,,,,,,,,,,,,,,
98023,1627462448227,,,251,254,237,232,,0.28,-0.18,0.64,1,7,6,0.33,,83,4592,6,37,56,0.915,0.0,405,4.75,13.2,0.0,1,27.2,2.61,5.4,0,0,1,1,0,,,,,,,,,,,,,,,,,,,,
98043,1627462448247,14,7,251,254,237,232,-1,0.23,-0.14,0.59,1,8,7,0.27,1,83,4572,6,37,56,0.916,0.0,395,4.73,13.2,0.0,1,26.9,2.6,5.4,0,0,1,1,0,0,250,250,0,47.221169,14.761599,0.0,688.9,9,2,1.8,0,0.0,-1,0.0,0.0,0.0,0,0.02,1.634
98063,1627462448267,,,251,254,237,232,,0.17,-0.13,0.85,1,7,6,0.21,,83,4688,6,37,56,0.917,0.0,403,4.71,13.1,0.0,1,28.4,1.57,5.4,0,0,1,1,0,,,,,,,,,,,,,,,,,,,,
98083,1627462448287,,,251,254,237,232,,0.11,-0.08,1.1,1,6,5,0.13,,83,4594,6,37,56,0.917,0.0,408,4.71,13.2,0.0,1,27.2,2.61,5.4,0,0,1,1,0,,,,,,,,,,,,,,,,,,,,
98103,1627462448307,,,251,254,237,232,,0.08,-0.03,1.32,0,4,3,0.09,,83,4652,6,37,56,0.917,0.0,400,4.69,13.1,0.0,1,27.9,1.54,5.6,0,0,1,1,0,,,,,,,,,,,,,,,,,,,,
98123,1627462448327,,,251,254,237,232,,0.05,-0.01,1.53,0,3,2,0.06,,83,4597,6,37,55,0.917,0.0,405,4.72,13.1,0.0,1,26.5,1.48,5.6,0,0,1,1,0,,,,,,,,,,,,,,,,,,,,
98143,1627462448347,13,7,251,254,237,232,-2,0.06,0.01,1.72,0,0,-0,0.07,1,83,4576,6,37,55,0.918,0.0,398,4.76,13.0,0.0,1,26.7,1.49,5.6,0,0,1,1,0,0,250,250,0,47.221169,14.761599,0.0,688.9,9,2,1.8,0,0.0,-1,0.0,,0.0,0,0.02,1.6357
98163,1627462448367,,,251,254,237,232,,0.08,0.03,1.85,0,-1,-2,0.09,,83,4555,6,37,55,0.917,0.0,402,4.76,13.0,0.0,1,26.4,2.57,5.6,0,0,1,1,0,,,,,,,,,,,,,,,,,,,,
98183,1627462448387,,,251,254,237,232,,0.1,0.05,1.97,0,-3,-3,0.11,,83,4487,6,37,55,0.918,0.0,398,4.78,12.9,0.0,1,25.5,2.54,5.6,0,0,1,1,0,,,,,,,,,,,,,,,,,,,,
98203,1627462448407,,,251,254,237,232,,0.12,0.05,1.98,0,-4,-4,0.13,,83,4586,6,37,55,0.918,0.0,397,4.75,13.0,0.0,1,26.8,2.6,5.4,0,0,1,1,0,,,,,,,,,,,,,,,,,,,,
98223,1627462448427,,,251,254,237,232,,0.14,0.04,1.94,0,-4,-4,0.15,,83,4501,6,37,55,0.918,0.0,405,4.73,13.0,0.0,1,25.7,2.55,5.4,0,0,1,1,0,,,,,,,,,,,,,,,,,,,,
98243,1627462448447,14,7,251,254,237,232,-1,0.17,0.04,1.93,0,-5,-5,0.18,1,83,4545,6,37,55,0.917,0.0,400,4.73,13.0,0.0,1,26.3,2.57,5.4,0,0,1,1,0,0,250,250,0,47.221169,14.761599,0.0,688.9,9,2,1.8,0,0.0,-1,0.0,0.0,0.0,0,0.02,1.6374
98263,1627462448467,,,251,254,237,232,,0.2,0.02,1.78,0,-5,-5,0.2,,83,4560,6,37,55,0.916,0.0,396,4.81,12.8,0.0,1,26.5,2.59,5.4,0,0,1,1,0,,,,,,,,,,,,,,,,,,,,
98283,1627462448487,,,251,254,237,232,,0.22,0.01,1.65,0,-5,-5,0.22,,83,4514,6,37,55,0.916,0.0,397,4.76,13.1,0.0,1,25.9,2.57,5.4,0,0,1,1,0,,,,,,,,,,,,,,,,,,,,
98303,1627462448507,,,251,254,237,232,,0.26,-0.02,1.52,0,-4,-5,0.26,,83,4635,6,37,55,0.915,0.0,393,4.75,13.1,0.0,1,27.4,2.63,5.5,0,0,1,1,0,,,,,,,,,,,,,,,,,,,,
98323,1627462448527,,,251,254,237,232,,0.29,-0.04,1.4,0,-3,-3,0.29,,83,4584,6,37,55,0.914,0.0,407,4.76,13.1,0.0,1,26.8,2.6,5.5,0,0,1,1,0,,,,,,,,,,,,,,,,,,,,
98343,1627462448547,14,7,251,254,237,232,-2,0.3,-0.08,1.29,0,-1,-2,0.31,1,83,4587,6,37,55,0.913,0.0,398,4.73,13.2,0.0,1,26.8,2.6,5.5,0,0,1,1,0,0,250,250,0,47.221169,14.761599,0.0,688.9,9,2,1.8,0,0.0,-1,0.0,,0.0,0,0.02,1.639
98363,1627462448567,,,251,254,237,232,,0.3,-0.12,1.19,0,1,1,0.32,,83,4671,6,37,56,0.914,0.0,407,4.76,13.2,0.0,1,28.1,2.66,5.5,0,0,1,1,0,,,,,,,,,,,,,,,,,,,,
98383,1627462448587,,,251,254,237,232,,0.27,-0.12,1.1,0,2,2,0.3,,83,4570,6,37,56,0.913,0.0,408,4.73,13.2,0.0,1,26.9,2.59,5.5,0,0,1,1,0,,,,,,,,,,,,,,,,,,,,
98403,1627462448607,,,251,254,237,232,,0.21,-0.11,1.02,0,3,3,0.24,,83,4622,6,37,56,0.912,0.0,401,4.71,13.2,0.0,1,27.5,1.53,5.5,0,0,1,1,0,,,,,,,,,,,,,,,,,,,,
98423,1627462448627,,,251,254,237,232,,0.16,-0.11,1.19,0,3,3,0.19,,83,4621,6,37,55,0.91,0.0,404,4.77,13.2,0.0,1,27.2,1.52,5.5,0,0,1,1,0,,,,,,,,,,,,,,,,,,,,
98443,1627462448647,14,7,251,254,237,232,-1,0.11,-0.07,1.33,0,3,3,0.13,1,83,4543,6,37,55,0.908,0.0,400,4.75,13.2,0.0,1,26.2,1.47,5.5,0,0,1,1,0,0,250,250,0,47.221169,14.761599,0.0,688.9,9,2,1.8,0,0.0,-1,0.0,0.0,0.0,0,0.02,1.6407
98463,1627462448667,,,251,254,237,232,,0.06,-0.04,1.53,0,2,2,0.07,,83,4578,6,37,56,0.906,0.0,398,4.73,13.2,0.0,1,27.0,2.6,5.5,0,0,1,1,0,,,,,,,,,,,,,,,,,,,,
98483,1627462448687,,,251,254,237,232,,0.02,-0.0,1.72,0,1,0,0.02,,83,4566,6,37,55,0.904,0.0,403,4.75,13.0,0.0,1,26.5,1.48,5.5,0,0,1,1,0,,,,,,,,,,,,,,,,,,,,
98503,1627462448706,,,251,254,237,232,,-0.01,0.02,1.9,0,0,-0,0.03,,83,4519,6,37,56,0.903,0.0,396,4.78,13.0,0.0,1,26.2,1.47,5.3,0,0,1,1,0,,,,,,,,,,,,,,,,,,,,
98523,1627462448726,,,251,254,237,232,,-0.03,0.05,2.06,0,-2,-2,0.06,,83,4560,6,37,55,0.901,0.0,395,4.75,13.0,0.0,1,26.4,1.47,5.3,0,0,1,1,0,,,,,,,,,,,,,,,,,,,,
98543,1627462448746,13,7,251,254,237,232,-1,-0.06,0.08,2.21,0,-3,-3,0.1,1,83,4515,6,37,55,0.9,0.0,394,4.8,13.0,0.0,1,25.9,2.57,5.3,0,0,1,1,0,0,250,250,0,47.221169,14.761599,0.0,688.9,9,2,1.8,0,0.0,-1,0.0,,0.0,0,0.02,1.6424
98563,1627462448766,,,251,254,237,232,,-0.07,0.11,2.35,0,-4,-4,0.13,,83,4521,6,37,56,0.9,0.0,394,4.77,13.1,0.0,1,26.3,1.47,5.3,0,0,1,1,0,,,,,,,,,,,,,,,,,,,,
98583,1627462448786,,,251,254,237,232,,-0.08,0.14,2.47,0,-6,-5,0.16,,83,4547,6,37,56,0.901,0.0,398,4.78,13.1,0.0,1,26.7,1.48,5.3,0,0,1,1,0,,,,,,,,,,,,,,,,,,,,
98603,1627462448806,,,251,254,237,232,,-0.08,0.16,2.59,-0,-7,-6,0.18,,83,4513,6,37,56,0.901,0.0,393,4.75,12.9,0.0,1,26.2,2.56,5.3,0,0,1,1,0,,,,,,,,,,,,,,,,,,,,
98623,1627462448826,,,251,254,237,232,,-0.08,0.17,2.7,-0,-8,-7,0.18,,83,4555,6,37,56,0.901,0.0,398,4.77,12.9,0.0,1,26.7,1.48,5.3,0,0,1,1,0,,,,,,,,,,,,,,,,,,,,
98643,1627462448846,14,7,251,254,237,232,-1,-0.07,0.18,2.8,-0,-9,-8,0.19,1,83,4516,6,37,56,0.901,0.0,397,4.78,12.9,0.0,1,26.2,1.47,5.3,0,0,1,1,0,0,250,250,0,47.221169,14.761599,0.0,688.9,9,2,1.8,0,0.0,-1,0.0,0.0,0.0,0,0.02,1.644
98663,1627462448866,,,251,254,237,232,,-0.05,0.19,2.89,-0,-10,-8,0.2,,83,4538,6,37,55,0.901,0.0,397,4.76,12.9,0.0,1,26.2,1.46,5.3,0,0,1,1,0,,,,,,,,,,,,,,,,,,,,
98683,1627462448886,,,251,254,237,232,,-0.03,0.2,2.89,-0,-10,-9,0.21,,83,4575,6,37,55,0.902,0.0,398,4.77,13.0,0.0,1,26.6,1.49,5.3,0,0,1,1,0,,,,,,,,,,,,,,,,,,,,
98703,1627462448906,,,251,254,237,232,,-0.0,0.19,2.84,-0,-11,-9,0.19,,83,4532,6,37,55,0.903,0.0,397,4.73,13.0,0.0,1,26.1,1.46,5.4,0,0,1,1,0,,,,,,,,,,,,,,,,,,,,
98723,1627462448926,,,251,254,237,232,,0.04,0.17,2.76,-0,-11,-9,0.18,,83,4552,6,37,55,0.903,0.0,399,4.73,13.1,0.0,1,26.4,1.47,5.4,0,0,1,1,0,,,,,,,,,,,,,,,,,,,,
98743,1627462448946,13,7,251,254,237,232,-1,0.09,0.15,2.56,-0,-11,-9,0.17,1,83,4582,6,37,55,0.904,0.0,401,4.73,13.1,0.0,1,26.7,2.59,5.4,0,0,1,1,0,0,250,250,0,47.221169,14.761599,0.0,688.9,9,2,1.8,0,0.0,-1,0.0,,0.0,0,0.02,1.6457
98763,1627462448966,,,251,254,237,232,,0.12,0.13,2.36,-0,-10,-9,0.18,,83,4555,6,37,55,0.905,0.0,398,4.74,13.1,0.0,1,26.4,2.57,5.4,0,0,1,1,0,,,,,,,,,,,,,,,,,,,,
98783,1627462448986,,,251,254,237,232,,0.16,0.11,2.18,0,-9,-8,0.19,,83,4569,6,37,56,0.906,0.0,404,4.71,13.1,0.0,1,26.9,1.49,5.4,0,0,1,1,0,,,,,,,,,,,,,,,,,,,,
98803,1627462449000,,,251,254,237,232,,0.19,0.07,2.01,0,-7,-6,0.21,,83,4542,6,37,56,0.906,0.0,396,4.7,13.2,0.0,1,26.5,2.57,5.4,0,0,1,1,0,,,,,,,,,,,,,,,,,,,,
98823,1627462449020,,,251,254,237,232,,0.23,0.05,1.86,0,-6,-5,0.23,,83,4541,6,37,55,0.906,0.0,398,4.73,13.1,0.0,1,26.2,2.57,5.4,0,0,1,1,0,,,,,,,,,,,,,,,,,,,,
98843,1627462449040,13,7,251,254,237,232,-1,0.24,0.01,1.72,0,-4,-3,0.25,1,83,4574,6,37,56,0.906,0.0,392,4.75,13.1,0.0,1,26.9,2.6,5.4,0,0,1,1,0,0,250,250,0,47.221169,14.761599,0.0,688.9,9,2,1.8,0,0.0,-1,0.0,0.0,0.0,0,0.02,1.6474
98863,1627462449060,,,251,254,237,232,,0.26,-0.04,1.58,0,-2,-2,0.26,,83,4539,6,37,56,0.906,0.0,400,4.72,13.2,0.0,1,26.5,2.57,5.4,0,0,1,1,0,,,,,,,,,,,,,,,,,,,,
98883,1627462449080,,,251,254,237,232,,0.26,-0.08,1.46,0,-0,0,0.27,,83,4589,6,37,56,0.907,0.0,397,4.7,13.2,0.0,1,27.1,2.61,5.4,0,0,1,1,0,,,,,,,,,,,,,,,,,,,,
98903,1627462449106,,,251,254,237,232,,0.24,-0.09,1.35,0,1,2,0.26,,83,4591,6,37,56,0.907,0.0,400,4.75,13.2,0.0,1,27.1,2.61,5.5,0,0,1,1,0,,,,,,,,,,,,,,,,,,,,
98923,1627462449126,,,251,254,237,232,,0.21,-0.1,1.24,0,2,3,0.23,,83,4587,6,37,56,0.908,0.0,402,4.73,13.2,0.0,1,27.1,2.61,5.5,0,0,1,1,0,,,,,,,,,,,,,,,,,,,,
98943,1627462449146,14,6,251,254,237,232,-1,0.18,-0.1,1.15,0,3,4,0.2,1,83,4586,6,37,56,0.909,0.0,401,4.75,13.2,0.0,1,27.1,2.61,5.5,0,0,1,1,0,0,250,250,0,47.221169,14.761599,0.0,688.9,9,2,1.8,0,0.0,-1,0.0,,0.0,0,0.02,1.649
98963,1627462449166,,,251,254,237,232,,0.13,-0.07,1.17,0,4,4,0.15,,83,4579,6,37,56,0.91,0.0,399,4.74,13.2,0.0,1,27.0,1.5,5.5,0,0,1,1,0,,,,,,,,,,,,,,,,,,,,
98983,1627462449186,,,251,254,237,232,,0.08,-0.07,1.26,0,4,3,0.1,,83,4553,6,37,56,0.911,0.0,398,4.75,13.2,0.0,1,26.7,1.48,5.5,0,0,1,1,0,,,,,,,,,,,,,,,,,,,,
99003,1627462449208,,,251,254,237,232,,0.03,-0.02,1.47,0,3,2,0.04,,83,4601,6,37,55,0.912,0.0,400,4.73,13.1,0.0,1,27.0,1.51,5.5,0,0,1,1,0,,,,,,,,,,,,,,,,,,,,
99023,1627462449228,,,251,254,237,232,,-0.01,0.01,1.66,0,1,1,0.01,,83,4562,6,37,56,0.913,0.0,405,4.68,13.2,0.0,1,26.8,1.49,5.5,0,0,1,1,0,,,,,,,,,,,,,,,,,,,,
99043,1627462449248,13,7,251,254,237,232,-1,-0.05,0.05,1.84,0,-0,-0,0.07,1,83,4566,6,37,56,0.914,0.0,398,4.73,13.1,0.0,1,26.8,1.49,5.5,0,0,1,1,0,0,250,250,0,47.221169,14.761599,0.0,688.9,9,2,1.8,0,0.0,-1,0.0,0.0,0.0,0,0.02,1.6507
99063,1627462449268,,,251,254,237,232,,-0.07,0.08,2.01,0,-2,-2,0.11,,83,4566,6,37,56,0.914,0.0,399,4.72,13.1,0.0,1,26.8,2.59,5.5,0,0,1,1,0,,,,,,,,,,,,,,,,,,,,
99083,1627462449288,,,251,254,237,232,,-0.06,0.12,2.16,0,-4,-4,0.14,,83,4566,6,37,56,0.914,0.0,401,4.74,13.0,0.0,1,26.8,2.59,5.5,0,0,1,1,0,,,,,,,,,,,,,,,,,,,,
99103,1627462449308,,,251,254,237,232,,-0.05,0.15,2.3,0,-5,-5,0.16,,83,4586,6,37,55,0.915,0.0,396,4.78,12.9,0.0,1,26.8,1.5,5.5,0,0,1,1,0,,,,,,,,,,,,,,,,,,,,
99123,1627462449328,,,251,254,237,232,,-0.03,0.15,2.38,0,-6,-6,0.15,,83,4562,6,37,55,0.914,0.0,405,4.77,13.0,0.0,1,26.5,1.48,5.5,0,0,1,1,0,,,,,,,,,,,,,,,,,,,,
99143,1627462449348,14,7,251,254,237,232,-1,0.01,0.14,2.37,0,-6,-6,0.14,1,83,4594,6,37,55,0.913,0.0,400,4.73,13.0,0.0,1,26.9,2.6,5.5,0,0,1,1,0,0,250,250,0,47.221169,14.761599,0.0,688.9,9,2,1.8,0,0.0,-1,0.0,,0.0,0,0.02,1.6524
99163,1627462449368,,,251,254,237,232,,0.06,0.12,2.18,0,-6,-6,0.13,,83,4608,6,37,55,0.912,0.0,406,4.8,12.9,0.0,1,27.1,2.61,5.5,0,0,1,1,0,,,,,,,,,,,,,,,,,,,,
99183,1627462449388,,,251,254,237,232,,0.1,0.11,2.01,0,-5,-5,0.15,,83,4562,6,37,55,0.912,0.0,403,4.75,13.0,0.0,1,26.5,2.58,5.5,0,0,1,1,0,,,,,,,,,,,,,,,,,,,,
99203,1627462449406,,,251,254,237,232,,0.13,0.09,1.86,0,-4,-4,0.16,,83,4559,6,37,55,0.911,0.0,398,4.73,13.2,0.0,1,26.4,2.58,5.4,0,0,1,1,0,,,,,,,,,,,,,,,,,,,,
99223,1627462449426,,,251,254,237,232,,0.18,0.05,1.72,0,-2,-3,0.18,,83,4546,6,37,55,0.91,0.0,401,4.74,13.2,0.0,1,26.3,2.57,5.4,0,0,1,1,0,,,,,,,,,,,,,,,,,,,,
99243,1627462449446,13,7,251,254,237,232,-1,0.21,0.03,1.58,0,-1,-2,0.21,1,83,4546,6,37,55,0.909,0.0,395,4.77,13.2,0.0,1,26.3,2.57,5.4,0,0,1,1,0,0,250,250,0,47.221169,14.761599,0.0,688.9,9,2,1.8,0,0.0,-1,0.0,0.0,0.0,0,0.02,1.654
99263,1627462449466,,,251,254,237,232,,0.23,0.0,1.46,0,1,-0,0.23,,83,4577,6,37,56,0.908,0.0,398,4.74,13.2,0.0,1,27.0,2.59,5.4,0,0,1,1,0,,,,,,,,,,,,,,,,,,,,
99283,1627462449486,,,251,254,237,232,,0.24,-0.05,1.35,0,2,1,0.25,,83,4545,6,37,55,0.907,0.0,405,4.75,13.2,0.0,1,26.3,2.57,5.4,0,0,1,1,0,,,,,,,,,,,,,,,,,,,,
99303,1627462449508,,,251,254,237,232,,0.2,-0.03,1.26,0,3,3,0.2,,83,4578,6,37,56,0.907,0.0,395,4.75,13.2,0.0,1,27.0,2.59,5.4,0,0,1,1,0,,,,,,,,,,,,,,,,,,,,
99323,1627462449528,,,251,254,237,232,,0.19,-0.04,1.16,0,5,4,0.19,,83,4603,6,37,56,0.906,0.0,403,4.73,13.2,0.0,1,27.3,1.52,5.4,0,0,1,1,0,,,,,,,,,,,,,,,,,,,,
99343,1627462449548,13,7,251,254,237,232,-1,0.16,-0.05,1.07,0,6,5,0.17,1,83,4573,6,37,56,0.906,0.0,398,4.72,13.2,0.0,1,26.9,2.6,5.4,0,0,1,1,0,0,250,250,0,47.221169,14.761599,0.0,688.9,9,2,1.8,0,0.0,-1,0.0,,0.0,0,0.02,1.6557
99363,1627462449568,,,251,254,237,232,,0.11,-0.02,1.29,0,6,5,0.11,,83,4587,6,37,56,0.905,0.0,401,4.74,13.2,0.0,1,27.1,2.61,5.4,0,0,1,1,0,,,,,,,,,,,,,,,,,,,,
99383,1627462449588,,,251,254,237,232,,0.07,0.01,1.5,0,6,5,0.07,,83,4524,6,37,56,0.904,0.0,398,4.75,13.2,0.0,1,26.3,2.57,5.4,0,0,1,1,0,,,,,,,,,,,,,,,,,,,,
99403,1627462449608,,,251,254,237,232,,0.02,0.03,1.69,0,6,5,0.04,,83,4546,6,37,56,0.904,0.0,393,4.73,13.1,0.0,1,26.6,1.48,5.4,0,0,1,1,0,,,,,,,,,,,,,,,,,,,,
99423,1627462449628,,,251,254,237,232,,-0.0,0.06,1.87,0,5,4,0.06,,83,4583,6,37,56,0.904,0.0,405,4.72,13.1,0.0,1,27.0,1.5,5.4,0,0,1,1,0,,,,,,,,,,,,,,,,,,,,
99443,1627462449648,14,7,251,254,237,232,-2,-0.02,0.1,2.03,0,4,3,0.1,1,83,4513,6,37,56,0.903,0.0,396,4.74,13.1,0.0,1,26.2,1.46,5.4,0,0,1,1,0,0,250,250,0,47.221169,14.761599,0.0,688.9,9,2,1.8,0,0.0,-1,0.0,0.0,0.0,0,0.02,1.6574
99463,1627462449668,,,251,254,237,232,,-0.03,0.11,2.19,0,2,1,0.12,,83,4583,6,37,56,0.902,0.0,395,4.76,13.0,0.0,1,27.0,1.5,5.4,0,0,1,1,0,,,,,,,,,,,,,,,,,,,,
99483,1627462449688,,,251,254,237,232,,-0.03,0.12,2.32,0,1,0,0.12,,83,4519,6,37,56,0.902,0.0,397,4.73,13.2,0.0,1,26.2,2.57,5.4,0,0,1,1,0,,,,,,,,,,,,,,,,,,,,
99503,1627462449707,,,251,254,237,232,,-0.03,0.14,2.45,0,-0,-1,0.15,,83,4527,6,37,56,0.901,0.0,392,4.72,13.2,0.0,1,26.3,2.57,5.3,0,0,1,1,0,,,,,,,,,,,,,,,,,,,,
99523,1627462449727,,,251,254,237,232,,-0.02,0.17,2.52,0,-2,-3,0.17,,83,4588,6,37,56,0.9,0.0,400,4.71,13.1,0.0,1,27.1,2.61,5.3,0,0,1,1,0,,,,,,,,,,,,,,,,,,,,
99543,1627462449747,14,6,251,254,237,232,-2,-0.0,0.18,2.54,0,-3,-4,0.18,1,83,4534,6,37,55,0.9,0.0,398,4.79,12.9,0.0,1,26.1,1.46,5.3,0,0,1,1,0,0,250,250,0,47.221169,14.761599,0.0,688.9,9,2,1.8,0,0.0,-1,0.0,,0.0,0,0.02,1.659
99563,1627462449767,,,251,254,237,232,,0.05,0.16,2.4,0,-5,-5,0.17,,83,4674,6,37,55,0.9,0.0,400,4.8,12.9,0.0,1,27.9,1.56,5.3,0,0,1,1,0,,,,,,,,,,,,,,,,,,,,
99583,1627462449787,,,251,254,237,232,,0.1,0.13,2.21,0,-5,-5,0.17,,83,4634,6,37,55,0.901,0.0,411,4.81,12.8,0.0,1,27.4,2.63,5.3,0,0,1,1,0,,,,,,,,,,,,,,,,,,,,
99603,1627462449807,,,251,254,237,232,,0.14,0.08,2.04,0,-5,-5,0.16,,83,4628,6,37,55,0.902,0.0,401,4.81,13.0,0.0,1,27.3,2.63,5.5,0,0,1,1,0,,,,,,,,,,,,,,,,,,,,
99623,1627462449827,,,251,254,237,232,,0.15,0.02,1.89,0,-3,-3,0.15,,83,4701,6,37,55,0.902,0.0,410,4.76,13.1,0.0,1,28.2,2.68,5.5,0,0,1,1,0,,,,,,,,,,,,,,,,,,,,
99643,1627462449847,14,5,251,254,237,232,-1,0.13,-0.01,1.74,0,-2,-2,0.13,1,83,4595,6,37,55,0.901,0.0,406,4.74,13.2,0.0,1,26.9,2.6,5.5,0,0,1,1,0,0,250,250,0,47.221169,14.761599,0.0,688.9,9,2,1.8,0,0.0,-1,0.0,0.0,0.0,0,0.02,1.6607
99663,1627462449867,,,251,254,237,232,,0.09,-0.02,1.61,0,-0,0,0.09,,83,4609,6,37,55,0.901,0.0,407,4.75,13.2,0.0,1,27.1,2.61,5.5,0,0,1,1,0,,,,,,,,,,,,,,,,,,,,
99683,1627462449887,,,251,254,237,232,,0.04,-0.03,1.61,0,1,2,0.05,,83,4580,6,37,55,0.9,0.0,408,4.74,13.2,0.0,1,26.7,2.59,5.5,0,0,1,1,0,,,,,,,,,,,,,,,,,,,,
99703,1627462449907,,,251,254,237,232,,0.02,-0.02,1.6,0,3,3,0.03,,83,4501,6,37,55,0.9,0.0,401,4.73,13.2,0.0,1,25.7,2.55,5.3,0,0,1,1,0,,,,,,,,,,,,,,,,,,,,
99723,1627462449927,,,251,254,237,232,,-0.02,0.01,1.72,0,4,4,0.02,,83,4557,6,37,55,0.9,0.0,397,4.71,13.2,0.0,1,26.4,1.48,5.3,0,0,1,1,0,,,,,,,,,,,,,,,,,,,,
99743,1627462449947,14,7,251,254,237,232,-1,-0.06,0.02,1.78,0,4,4,0.06,1,83,4508,6,37,55,0.9,0.0,397,4.74,13.2,0.0,1,25.8,2.55,5.3,0,0,1,1,0,0,250,250,0,47.221169,14.761599,0.0,688.9,9,2,1.8,0,0.0,-1,0.0,,0.0,0,0.02,1.6624
99763,1627462449967,,,251,254,237,232,,-0.1,0.02,1.92,0,5,5,0.1,,83,4533,6,37,56,0.9,0.0,394,4.75,13.2,0.0,1,26.4,2.56,5.3,0,0,1,1,0,,,,,,,,,,,,,,,,,,,,
99783,1627462449987,,,251,254,237,232,,-0.12,0.04,2.08,0,5,5,0.13,,83,4566,6,37,56,0.9,0.0,398,4.78,13.2,0.0,1,26.8,1.49,5.3,0,0,1,1,0,,,,,,,,,,,,,,,,,,,,
99803,1627462449997,,,251,254,237,232,,-0.15,0.07,2.17,0,6,5,0.17,,83,4479,6,37,56,0.899,0.0,392,4.76,13.2,0.0,1,25.7,1.44,5.2,0,0,1,1,0,,,,,,,,,,,,,,,,,,,,
99823,1627462450017,,,251,254,237,232,,-0.18,0.08,2.31,0,6,4,0.19,,83,4546,6,37,56,0.899,0.0,397,4.73,13.2,0.0,1,26.6,1.48,5.2,0,0,1,1,0,,,,,,,,,,,,,,,,,,,,
99843,1627462450037,14,6,251,254,237,232,-1,-0.2,0.11,2.44,0,5,4,0.22,1,83,4554,6,37,56,0.898,0.0,394,4.72,13.1,0.0,1,26.7,2.58,5.2,0,0,1,1,0,0,250,250,0,47.22118,14.761613,0.0,687.3,9,2,1.7,0,0.0,-1,0.0,0.0,0.0,0,0.02,1.664
99863,1627462450057,,,251,254,237,232,,-0.21,0.13,2.56,0,5,3,0.25,,83,4506,6,37,56,0.898,0.0,392,4.71,13.1,0.0,1,26.1,1.46,5.2,0,0,1,1,0,,,,,,,,,,,,,,,,,,,,
99883,1627462450077,,,251,254,237,232,,-0.22,0.14,2.67,0,3,2,0.27,,83,4614,6,37,56,0.899,0.0,394,4.75,13.1,0.0,1,27.4,1.52,5.2,0,0,1,1,0,,,,,,,,,,,,,,,,,,,,
99903,1627462450107,,,251,254,237,232,,-0.21,0.16,2.78,0,2,1,0.27,,83,4552,6,37,56,0.899,0.0,394,4.74,13.0,0.0,1,26.3,1.47,5.4,0,0,1,1,0,,,,,,,,,,,,,,,,,,,,
99923,1627462450127,,,251,254,237,232,,-0.19,0.19,2.87,0,0,-1,0.27,,83,4631,6,37,56,0.899,0.0,401,4.78,13.0,0.0,1,27.6,1.53,5.4,0,0,1,1,0,,,,,,,,,,,,,,,,,,,,
99943,1627462450147,14,7,251,254,237,232,-1,-0.14,0.19,2.82,0,-2,-2,0.24,1,83,4614,6,37,55,0.899,0.0,402,4.76,12.8,0.0,1,27.1,1.52,5.4,0,0,1,1,0,0,250,250,0,47.22118,14.761613,0.0,687.3,9,2,1.7,0,0.0,-1,0.0,,0.0,0,0.02,1.6657
99963,1627462450167,,,251,254,237,232,,-0.1,0.19,2.73,0,-3,-4,0.21,,83,4566,6,37,55,0.898,0.0,400,4.78,13.0,0.0,1,26.5,2.58,5.4,0,0,1,1,0,,,,,,,,,,,,,,,,,,,,
99983,1627462450187,,,251,254,237,232,,-0.04,0.15,2.52,0,-4,-4,0.16,,83,4635,6,37,55,0.897,0.0,407,4.76,13.0,0.0,1,27.4,2.63,5.4,0,0,1,1,0,,,,,,,,,,,,,,,,,,,,
100003,1627462450207,,,251,254,237,232,,0.02,0.12,2.33,0,-5,-5,0.12,,83,4566,6,37,55,0.896,0.0,404,4.8,12.9,0.0,1,26.5,2.58,5.5,0,0,1,1,0,,,,,,,,,,,,,,,,,,,,
100023,1627462450227,,,251,254,237,232,,0.05,0.08,2.15,0,-4,-4,0.09,,83,4644,6,37,55,0.895,0.0,402,4.78,13.0,0.0,1,27.5,2.64,5.5,0,0,1,1,0,,,,,,,,,,,,,,,,,,,,
100043,1627462450247,14,7,251,254,237,232,-1,0.08,0.02,1.98,0,-3,-3,0.08,1,83,4586,6,37,55,0.894,0.0,407,4.73,13.2,0.0,1,26.8,2.6,5.5,0,0,1,1,0,0,250,250,0,47.22118,14.761613,0.0,687.3,9,2,1.7,0,0.0,-1,0.0,0.0,0.0,0,0.02,1.6674
100063,1627462450267,,,251,254,237,232,,0.1,-0.03,1.83,0,-1,-1,0.1,,83,4582,6,37,55,0.893,0.0,401,4.77,13.2,0.0,1,26.7,2.59,5.5,0,0,1,1,0,,,,,,,,,,,,,,,,,,,,
100083,1627462450287,,,251,254,237,232,,0.07,-0.03,1.69,0,0,1,0.08,,83,4608,6,37,55,0.892,0.0,410,4.75,13.2,0.0,1,27.1,2.61,5.5,0,0,1,1,0,,,,,,,,,,,,,,,,,,,,
100103,1627462450307,,,251,254,237,232,,0.05,-0.05,1.56,0,2,2,0.07,,83,4541,6,37,55,0.892,0.0,399,4.72,13.2,0.0,1,26.2,2.57,5.4,0,0,1,1,0,,,,,,,,,,,,,,,,,,,,
100123,1627462450327,,,251,254,237,232,,0.03,-0.03,1.44,0,4,4,0.05,,83,4526,6,37,55,0.892,0.0,401,4.73,13.2,0.0,1,26.0,2.56,5.4,0,0,1,1,0,,,,,,,,,,,,,,,,,,,,
100143,1627462450347,14,7,251,254,237,232,-1,0.01,-0.01,1.35,0,5,5,0.01,1,83,4545,6,37,56,0.892,0.0,396,4.76,13.2,0.0,1,26.6,2.57,5.4,0,0,1,1,0,0,250,250,0,47.22118,14.761613,0.0,687.3,9,2,1.7,0,0.0,-1,0.0,,0.0,0,0.02,1.669
100163,1627462450367,,,251,254,237,232,,-0.02,-0.01,1.28,0,6,6,0.02,,83,4497,6,37,55,0.892,0.0,398,4.76,13.2,0.0,1,25.7,2.54,5.4,0,0,1,1,0,,,,,,,,,,,,,,,,,,,,
100183,1627462450387,,,251,254,237,232,,-0.04,-0.02,1.22,0,8,7,0.04,,83,4545,6,37,56,0.892,0.0,394,4.75,13.2,0.0,1,26.6,2.58,5.4,0,0,1,1,0,,,,,,,,,,,,,,,,,,,,
100203,1627462450407,,,251,254,237,232,,-0.06,-0.0,1.22,0,8,7,0.06,,83,4525,6,37,56,0.893,0.0,394,4.73,13.2,0.0,1,26.3,2.57,5.4,0,0,1,1,0,,,,,,,,,,,,,,,,,,,,
100223,1627462450427,,,251,254,237,232,,-0.09,0.02,1.23,0,9,8,0.09,,83,4527,6,37,56,0.895,0.0,397,4.76,13.2,0.0,1,26.3,2.57,5.4,0,0,1,1,0,,,,,,,,,,,,,,,,,,,,
100243,1627462450447,14,6,251,254,237,232,-1,-0.12,0.02,1.34,0,9,8,0.12,1,83,4580,6,37,56,0.896,0.0,397,4.73,13.2,0.0,1,27.0,2.6,5.4,0,0,1,1,0,0,250,250,0,47.22118,14.761613,0.0,687.3,9,2,1.7,0,0.0,-1,0.0,0.0,0.0,0,0.02,1.6707
100263,1627462450467,,,251,254,237,232,,-0.14,0.02,1.48,0,9,8,0.14,,83,4524,6,37,56,0.898,0.0,395,4.73,13.2,0.0,1,26.3,1.47,5.4,0,0,1,1,0,,,,,,,,,,,,,,,,,,,,
100283,1627462450487,,,251,254,237,232,,-0.16,0.04,1.67,0,8,8,0.17,,83,4528,6,37,56,0.899,0.0,395,4.71,13.2,0.0,1,26.4,1.47,5.4,0,0,1,1,0,,,,,,,,,,,,,,,,,,,,
100303,1627462450507,,,251,254,237,232,,-0.19,0.06,1.84,0,8,7,0.2,,83,4558,6,37,56,0.899,0.0,393,4.74,13.1,0.0,1,26.7,1.49,5.4,0,0,1,1,0,,,,,,,,,,,,,,,,,,,,
100323,1627462450527,,,251,254,237,232,,-0.21,0.08,2.01,0,7,6,0.23,,83,4530,6,37,56,0.899,0.0,398,4.73,13.1,0.0,1,26.4,2.57,5.4,0,0,1,1,0,,,,,,,,,,,,,,,,,,,,
100343,1627462450547,13,7,251,254,237,232,-1,-0.22,0.11,2.16,0,6,5,0.25,1,83,4549,6,37,56,0.899,0.0,394,4.72,13.2,0.0,1,26.6,2.58,5.4,0,0,1,1,0,0,250,250,0,47.22118,14.761613,0.0,687.3,9,2,1.7,0,0.0,-1,0.0,,0.0,0,0.02,1.6724
100363,1627462450567,,,251,254,237,232,,-0.22,0.13,2.3,0,5,3,0.26,,83,4580,6,37,56,0.898,0.0,398,4.71,13.2,0.0,1,27.0,1.5,5.4,0,0,1,1,0,,,,,,,,,,,,,,,,,,,,
100383,1627462450587,,,251,254,237,232,,-0.23,0.15,2.43,0,3,2,0.27,,83,4550,6,37,56,0.897,0.0,398,4.71,13.2,0.0,1,26.6,2.58,5.4,0,0,1,1,0,,,,,,,,,,,,,,,,,,,,
100403,1627462450607,,,251,254,237,232,,-0.2,0.17,2.55,0,1,0,0.27,,83,4572,6,37,56,0.896,0.0,393,4.78,13.0,0.0,1,26.9,1.5,5.5,0,0,1,1,0,,,,,,,,,,,,,,,,,,,,
100423,1627462450627,,,251,254,237,232,,-0.18,0.2,2.67,0,-1,-1,0.27,,83,4554,6,37,56,0.896,0.0,400,4.75,13.1,0.0,1,26.7,1.48,5.5,0,0,1,1,0,,,,,,,,,,,,,,,,,,,,
100443,1627462450647,13,7,251,254,237,232,-1,-0.14,0.21,2.77,0,-2,-2,0.25,1,83,4553,6,37,56,0.896,0.0,391,4.77,12.9,0.0,1,26.7,1.48,5.5,0,0,1,1,0,0,250,250,0,47.22118,14.761613,0.0,687.3,9,2,1.7,0,0.0,-1,0.0,0.0,0.0,0,0.02,1.674
100463,1627462450667,,,251,254,237,232,,-0.11,0.2,2.79,0,-4,-4,0.23,,83,4568,6,37,56,0.898,0.0,397,4.78,13.0,0.0,1,26.9,1.49,5.5,0,0,1,1,0,,,,,,,,,,,,,,,,,,,,
100483,1627462450687,,,251,254,237,232,,-0.06,0.19,2.72,0,-6,-5,0.19,,83,4572,6,37,56,0.899,0.0,402,4.76,12.9,0.0,1,26.9,1.5,5.5,0,0,1,1,0,,,,,,,,,,,,,,,,,,,,
100503,1627462450706,,,251,254,237,232,,-0.01,0.18,2.57,0,-7,-6,0.18,,83,4576,6,37,55,0.9,0.0,402,4.76,13.0,0.0,1,26.7,2.6,5.4,0,0,1,1,0,,,,,,,,,,,,,,,,,,,,
100523,1627462450726,,,251,254,237,232,,0.03,0.14,2.37,0,-7,-6,0.15,,83,4546,6,37,55,0.901,0.0,400,4.77,12.9,0.0,1,26.3,1.47,5.4,0,0,1,1,0,,,,,,,,,,,,,,,,,,,,
100543,1627462450746,14,7,251,254,237,232,-1,0.07,0.12,2.19,0,-7,-6,0.14,1,83,4528,6,37,56,0.903,0.0,395,4.79,13.1,0.0,1,26.4,2.57,5.4,0,0,1,1,0,0,250,250,0,47.22118,14.761613,0.0,687.3,9,2,1.7,0,0.0,-1,0.0,,0.0,0,0.02,1.6757
100563,1627462450766,,,251,254,237,232,,0.12,0.07,2.02,0,-7,-6,0.14,,83,4585,6,37,55,0.904,0.0,397,4.72,13.1,0.0,1,26.8,2.6,5.4,0,0,1,1,0,,,,,,,,,,,,,,,,,,,,
100583,1627462450786,,,251,254,237,232,,0.15,0.04,1.86,0,-6,-6,0.16,,83,4554,6,37,55,0.906,0.0,398,4.76,13.0,0.0,1,26.4,2.58,5.4,0,0,1,1,0,,,,,,,,,,,,,,,,,,,,
100603,1627462450806,,,251,254,237,232,,0.18,0.0,1.72,0,-5,-5,0.18,,83,4576,6,37,55,0.908,0.0,393,4.75,13.0,0.0,1,26.7,2.59,5.4,0,0,1,1,0,,,,,,,,,,,,,,,,,,,,
100623,1627462450826,,,251,254,237,232,,0.19,-0.06,1.59,0,-3,-3,0.2,,83,4598,6,37,56,0.911,0.0,406,4.74,13.2,0.0,1,27.2,2.61,5.4,0,0,1,1,0,,,,,,,,,,,,,,,,,,,,
100643,1627462450846,13,7,251,254,237,232,-1,0.19,-0.07,1.46,0,-2,-1,0.21,1,83,4582,6,37,55,0.913,0.0,400,4.7,13.1,0.0,1,26.7,2.59,5.4,0,0,1,1,0,0,250,250,0,47.22118,14.761613,0.0,687.3,9,2,1.7,0,0.0,-1,0.0,0.0,0.0,0,0.02,1.6774
100663,1627462450866,,,251,254,237,232,,0.16,-0.07,1.35,0,0,1,0.18,,83,4604,6,37,56,0.915,0.0,400,4.75,13.2,0.0,1,27.3,2.62,5.4,0,0,1,1,0,,,,,,,,,,,,,,,,,,,,
100683,1627462450886,,,251,254,237,232,,0.12,-0.07,1.25,0,2,2,0.14,,83,4573,6,37,56,0.916,0.0,400,4.73,13.2,0.0,1,26.9,2.59,5.4,0,0,1,1,0,,,,,,,,,,,,,,,,,,,,
100703,1627462450906,,,251,254,237,232,,0.1,-0.06,1.21,0,3,4,0.12,,83,4564,6,37,56,0.916,0.0,397,4.74,13.2,0.0,1,26.8,2.58,5.5,0,0,1,1,0,,,,,,,,,,,,,,,,,,,,
100723,1627462450926,,,251,254,237,232,,0.05,-0.03,1.31,0,4,4,0.06,,83,4587,6,37,56,0.916,0.0,401,4.71,13.2,0.0,1,27.1,2.61,5.5,0,0,1,1,0,,,,,,,,,,,,,,,,,,,,
100743,1627462450946,14,7,251,254,237,232,-1,0.0,-0.01,1.5,0,4,4,0.01,1,83,4554,6,37,55,0.916,0.0,399,4.76,13.2,0.0,1,26.4,1.47,5.5,0,0,1,1,0,0,250,250,0,47.22118,14.761613,0.0,687.3,9,2,1.7,0,0.0,-1,0.0,,0.0,0,0.02,1.679
100763,1627462450966,,,251,254,237,232,,-0.04,0.03,1.69,0,4,4,0.05,,83,4557,6,37,56,0.916,0.0,400,4.72,13.1,0.0,1,26.7,1.49,5.5,0,0,1,1,0,,,,,,,,,,,,,,,,,,,,
100783,1627462450986,,,251,254,237,232,,-0.08,0.07,1.87,0,4,3,0.1,,83,4552,6,37,56,0.916,0.0,403,4.72,13.1,0.0,1,26.7,2.58,5.5,0,0,1,1,0,,,,,,,,,,,,,,,,,,,,
100803,1627462450998,,,251,254,237,232,,-0.11,0.1,2.03,0,3,2,0.15,,83,4522,6,37,56,0.917,0.0,392,4.75,13.1,0.0,1,26.3,1.47,5.3,0,0,1,1,0,,,,,,,,,,,,,,,,,,,,
100823,1627462451018,,,251,254,237,232,,-0.13,0.11,2.18,0,2,1,0.17,,83,4549,6,37,56,0.917,0.0,394,4.76,13.1,0.0,1,26.6,1.48,5.3,0,0,1,1,0,,,,,,,,,,,,,,,,,,,,
100843,1627462451038,14,6,251,254,237,232,-1,-0.14,0.14,2.32,0,1,0,0.2,1,83,4534,6,37,56,0.917,0.0,392,4.77,13.1,0.0,1,26.4,1.47,5.3,0,0,1,1,0,0,250,250,0,47.22118,14.761613,0.0,687.3,9,2,1.7,0,0.0,-1,0.0,0.0,0.0,0,0.02,1.6807
100863,1627462451058,,,251,254,237,232,,-0.15,0.18,2.45,0,-0,-1,0.23,,83,4503,6,37,56,0.917,0.0,393,4.75,13.0,0.0,1,26.0,2.56,5.3,0,0,1,1,0,,,,,,,,,,,,,,,,,,,,
100883,1627462451078,,,251,254,237,232,,-0.17,0.2,2.57,0,-2,-2,0.26,,83,4541,6,37,56,0.916,0.0,396,4.79,13.0,0.0,1,26.5,1.48,5.3,0,0,1,1,0,,,,,,,,,,,,,,,,,,,,
