"Interval"|"ms"|0|0|1,"Utc"|"ms"|0|0|1,"FB_p"|"bar"|0|300|50,"Volant"|"F"|0.0|300.0|50,"xFR"|"mm"|0.0|5.0|50,"xRR"|"mm"|0.0|5.0|50,"xFL"|"mm"|0.0|5.0|50,"xRL"|"mm"|0.0|5.0|50,"AccelX"|"G"|-3.0|3.0|50,"AccelY"|"G"|-3.0|3.0|50,"AccelZ"|"G"|-3.0|3.0|50,"Yaw"|"Deg/Sec"|-120|120|50,"Pitch"|"Deg/Sec"|-120|120|50,"Roll"|"Deg/Sec"|-120|120|50,"Gsum"|"G"|0.0|3.0|50,"RPM"|""|0|14000|50,"TPS"|"%"|0|100|50,"WaterTemp"|"?C"|0|300|50,"AirTemp"|"?C"|-1000|1000|50,"MAP"|"KPa"|0|255|50,"Lambda"|""|0|1024|50,"WheelSpeed"|"MPH"|0.0|150.0|50,"OilPress"|"PSI"|0|150|50,"FuelPress"|"PSI"|0|150|50,"OilTemp"|"F"|0|300|50,"Battery"|"Volts"|0.0|20.0|50,"FuelCon"|"L/h"|-1000|1000|50,"Gear"|""|0|10|50,"Advance"|"Deg"|-360|360|50,"Injection"|"ms"|-1000|1000|50,"FuelCon"|"L/100km"|-1000|1000|50,"LC_But_Pres"|""|-1000|1000|50,"LC_Active"|""|-1000|1000|50,"RD_Speed"|""|-1000|1000|50,"RUD_Speed"|""|-1000|1000|50,"LD_Speed"|""|-1000|1000|50,"LUD_Speed"|""|-1000|1000|50,"Ana1"|"bar"|-1000.0|1000.0|50,"Latitude"|"Degrees"|-180.0|180.0|10,"Longitude"|"Degrees"|-180.0|180.0|10,"Speed"|"kph"|0.0|150.0|10,"Altitude"|"m"|0.0|4000.0|10,"LapCount"|""|0|0|10,"LapTime"|"Min"|0.0|0.0|10,"Sector"|""|0|0|10,"SectorTime"|"Min"|0.0|0.0|10,"ElapsedTime"|"Min"|0.0|0.0|10,"CurrentLap"|""|0|0|10,"Distance"|"km"|0.0|0.0|10,"SessionTime"|"Min"|0.0|0.0|10
264084,1564213406558,3,2.3,1.12,0.64,1.4,1.18,0.8,-0.01,0.55,0,-1,-1,0.8,4841,17,77,32,68,820,0.0,530,466,60,130.0,0,1,260,313,55,0,0,0,250,250,0,-5.59,,,,,,,,,,,,
264104,1564213406578,3,2.31,1.12,0.64,1.39,1.18,0.81,0.03,0.58,0,-1,-1,0.81,4801,17,77,32,67,823,0.0,532,457,60,130.0,0,1,256,313,55,0,0,0,250,250,0,-5.59,,,,,,,,,,,,
264124,1564213406598,2,2.31,1.11,0.64,1.4,1.17,0.88,0.01,0.59,-0,-2,-1,0.88,4810,17,77,32,67,826,0.0,516,458,60,130.0,0,1,257,306,55,0,0,0,250,250,0,-5.59,,,,,,,,,,,,
264144,1564213406618,6,2.3,1.11,0.64,1.39,1.18,0.9,0.0,0.52,-0,-2,-0,0.9,4815,17,77,32,68,830,0.0,529,466,60,130.0,0,1,258,236,57,0,0,0,250,250,0,-5.59,44.680759,10.020585,0.0,173.7,0,0.0,-1,0.0,0.0,0,0.01,4.4024
264164,1564213406638,5,2.3,1.12,0.65,1.39,1.18,0.88,0.01,0.52,-0,-2,-0,0.88,4876,17,77,32,68,833,0.0,529,466,60,131.0,0,1,263,314,57,0,0,0,250,250,0,-5.59,,,,,,,,,,,,
264184,1564213406658,2,2.3,1.11,0.65,1.39,1.19,0.82,0.02,0.57,-0,-2,-1,0.82,4861,17,77,32,68,834,0.0,529,466,60,129.0,0,1,262,314,57,0,0,0,250,250,0,-5.59,,,,,,,,,,,,
264204,1564213406678,3,2.3,1.12,0.64,1.4,1.18,0.86,0.02,0.56,-1,-3,-1,0.86,4899,17,77,32,67,835,0.0,535,460,60,131.0,0,1,264,230,57,0,0,0,250,250,0,-5.59,,,,,,,,,,,,
264224,1564213406698,6,2.3,1.12,0.65,1.4,1.18,0.89,-0.01,0.53,-1,-4,-0,0.89,4877,17,77,32,67,835,0.0,530,467,60,131.0,0,1,262,307,57,0,0,0,250,250,0,-5.59,,,,,,,,,,,,
264244,1564213406718,4,2.3,1.12,0.64,1.4,1.18,0.86,-0.01,0.53,-1,-2,0,0.86,4846,17,77,32,67,835,0.0,532,468,60,130.0,0,1,260,229,56,0,0,0,250,250,0,-5.59,44.680759,10.020585,0.0,173.7,0,0.0,-1,0.0,0.0,0,0.01,4.4041
264264,1564213406738,3,2.3,1.12,0.64,1.4,1.18,0.83,0.01,0.58,-1,-2,-0,0.83,4900,17,77,32,68,834,0.0,541,465,60,130.0,0,1,265,238,56,0,0,0,250,250,0,-5.59,,,,,,,,,,,,
264284,1564213406758,3,2.3,1.12,0.64,1.39,1.18,0.86,0.02,0.57,-1,-2,-0,0.87,4881,17,77,32,67,833,0.0,530,460,60,131.0,0,1,263,230,56,0,0,0,250,250,0,-5.59,,,,,,,,,,,,
264304,1564213406778,7,2.3,1.11,0.64,1.4,1.18,0.89,-0.01,0.53,-1,-2,-0,0.89,4918,17,77,32,67,833,0.0,533,465,60,131.0,0,1,266,231,56,0,0,0,250,250,0,-5.59,,,,,,,,,,,,
264324,1564213406798,2,2.3,1.11,0.64,1.39,1.18,0.85,0.01,0.57,0,-1,-1,0.85,4904,17,77,32,67,834,0.0,537,467,60,130.0,0,1,264,308,56,0,0,0,250,250,0,-5.59,,,,,,,,,,,,
264344,1564213406818,4,2.29,1.12,0.64,1.4,1.18,0.8,0.05,0.61,-0,-4,1,0.8,4930,17,77,32,67,833,0.0,533,458,60,130.0,0,1,267,308,57,0,0,0,250,250,0,-5.59,44.680759,10.020585,0.0,173.7,0,0.0,-1,0.0,0.0,0,0.01,4.4057
264364,1564213406838,4,2.3,1.11,0.64,1.39,1.18,0.86,0.04,0.59,-0,-5,-1,0.86,4931,17,77,32,67,834,0.0,546,462,60,131.0,0,1,267,308,57,0,0,0,250,250,0,-5.59,,,,,,,,,,,,
264384,1564213406858,8,2.29,1.11,0.64,1.4,1.18,0.84,0.04,0.53,-0,-3,0,0.84,4907,17,77,32,67,835,0.0,541,465,60,131.0,0,1,265,308,57,0,0,0,250,250,0,-5.59,,,,,,,,,,,,
264404,1564213406878,3,2.3,1.12,0.64,1.4,1.18,0.78,0.07,0.56,-0,-3,0,0.78,4932,17,77,32,67,835,0.0,544,466,60,129.0,0,1,267,231,57,0,0,0,250,250,0,-5.59,,,,,,,,,,,,
264424,1564213406898,3,2.3,1.11,0.64,1.4,1.17,0.83,0.08,0.55,-0,-3,-0,0.83,4943,17,77,32,67,834,0.0,541,458,60,131.0,0,1,268,308,57,0,0,0,250,250,0,-5.59,,,,,,,,,,,,
264444,1564213406918,5,2.31,1.11,0.64,1.39,1.18,0.85,0.04,0.52,-0,-3,0,0.85,4904,17,77,32,67,834,0.0,534,459,60,131.0,0,1,264,231,57,0,0,0,250,250,0,-5.59,44.680759,10.020585,0.0,173.7,0,0.0,-1,0.0,0.0,0,0.01,4.4074
264464,1564213406938,1,2.3,1.11,0.64,1.39,1.18,0.81,0.05,0.52,0,-2,1,0.81,4923,17,77,32,67,833,0.0,535,465,60,130.0,0,1,266,231,57,0,0,0,250,250,0,-5.59,,,,,,,,,,,,
264484,1564213406958,4,2.3,1.11,0.64,1.4,1.18,0.79,0.07,0.58,0,-2,0,0.8,4961,17,77,32,67,830,0.0,547,456,60,130.0,0,1,269,231,57,0,0,0,250,250,0,-5.59,,,,,,,,,,,,
264504,1564213406978,6,2.3,1.11,0.64,1.4,1.18,0.85,0.07,0.54,-0,-3,-0,0.85,4970,17,77,32,67,826,0.0,542,462,60,131.0,0,1,270,308,57,0,0,0,250,250,0,-5.59,,,,,,,,,,,,
264524,1564213406992,2,2.3,1.11,0.64,1.4,1.17,0.81,0.04,0.49,0,-2,1,0.81,4977,17,77,32,67,824,0.0,539,461,60,131.0,0,1,271,308,57,0,0,0,250,250,0,-5.59,,,,,,,,,,,,
264544,1564213407012,3,2.3,1.12,0.64,1.4,1.17,0.79,0.09,0.53,0,-1,0,0.79,4960,17,77,32,67,820,0.0,546,462,60,129.0,0,1,269,308,58,0,0,0,250,250,0,-5.59,44.680759,10.020585,0.0,173.7,0,0.0,-1,0.0,0.0,0,0.01,4.4091
264564,1564213407032,5,2.29,1.11,0.64,1.39,1.17,0.85,0.06,0.56,-0,-2,0,0.85,4957,17,77,32,67,815,0.0,539,457,60,131.0,0,1,269,231,58,0,0,0,250,250,0,-5.59,,,,,,,,,,,,
264584,1564213407052,6,2.3,1.12,0.64,1.39,1.18,0.82,0.05,0.53,0,-1,0,0.83,5020,17,77,32,67,812,0.0,545,464,60,131.0,0,1,274,309,58,0,0,0,250,250,0,-5.59,,,,,,,,,,,,
264604,1564213407072,4,2.29,1.12,0.64,1.4,1.18,0.79,0.05,0.6,-0,-1,-0,0.79,4982,17,77,32,67,810,0.0,551,465,60,130.0,0,1,271,231,58,0,0,0,250,250,0,-5.59,,,,,,,,,,,,
264624,1564213407097,3,2.31,1.11,0.64,1.4,1.18,0.85,0.06,0.59,-0,-2,-0,0.85,5021,17,77,32,67,808,0.0,544,460,60,130.0,0,1,274,232,58,0,0,0,250,250,0,-5.59,,,,,,,,,,,,
264644,1564213407117,6,2.3,1.12,0.64,1.39,1.17,0.82,0.03,0.55,-0,-1,-0,0.82,5051,17,77,32,67,807,0.0,550,461,60,130.0,0,1,277,232,58,0,0,0,250,250,0,-5.59,44.680759,10.020585,0.0,173.7,0,0.0,-1,0.0,0.0,0,0.01,4.4107
264664,1564213407137,3,2.3,1.12,0.64,1.4,1.18,0.77,0.07,0.57,0,-0,-0,0.78,5051,17,77,32,67,806,0.0,559,466,60,129.0,0,1,277,232,58,0,0,0,250,250,0,-5.59,,,,,,,,,,,,
264684,1564213407157,6,2.3,1.12,0.64,1.39,1.17,0.84,0.03,0.6,-0,-1,0,0.84,5068,17,77,32,66,806,0.0,555,460,60,130.0,0,1,279,225,58,0,0,0,250,250,0,-5.59,,,,,,,,,,,,
264704,1564213407177,3,2.3,1.12,0.64,1.39,1.18,0.8,0.02,0.59,0,-0,0,0.8,5075,17,77,32,66,806,0.0,563,467,60,130.0,0,1,280,225,58,0,0,0,250,250,0,-5.59,,,,,,,,,,,,
264724,1564213407199,3,2.3,1.11,0.64,1.39,1.18,0.79,0.04,0.67,-0,-0,-1,0.79,5090,17,77,32,66,806,0.0,567,459,60,130.0,0,1,281,225,58,0,0,0,250,250,0,-5.59,,,,,,,,,,,,
264744,1564213407219,6,2.31,1.12,0.64,1.4,1.17,0.84,0.01,0.58,0,-2,-0,0.84,5068,17,77,32,66,806,0.0,558,467,60,130.0,0,1,279,302,58,0,0,0,250,250,0,-5.59,44.680759,10.020585,0.0,173.7,0,0.0,-1,0.0,0.0,0,0.01,4.4124
264764,1564213407239,3,2.3,1.12,0.64,1.39,1.17,0.76,0.04,0.58,0,-1,-1,0.76,5079,17,77,32,66,806,0.0,560,462,60,129.0,0,1,280,225,58,0,0,0,250,250,0,-5.59,,,,,,,,,,,,
264784,1564213407259,7,2.3,1.12,0.64,1.4,1.18,0.85,0.04,0.54,-0,-2,-0,0.85,5114,17,77,32,66,805,0.0,564,461,60,130.0,0,1,284,301,58,0,0,0,250,250,0,-5.59,,,,,,,,,,,,
264804,1564213407279,3,2.31,1.11,0.64,1.39,1.18,0.81,0.02,0.54,0,-1,0,0.81,5093,17,77,32,66,802,0.0,565,467,60,129.0,0,1,282,225,58,0,0,0,250,250,0,-5.59,,,,,,,,,,,,
264824,1564213407299,4,2.29,1.11,0.64,1.4,1.17,0.79,0.05,0.58,-0,-1,0,0.79,5132,17,77,32,65,799,0.0,568,461,60,130.0,0,1,286,217,58,0,0,0,250,250,0,-5.59,,,,,,,,,,,,
264844,1564213407319,8,2.3,1.11,0.64,1.4,1.18,0.83,0.03,0.55,0,-1,0,0.83,5139,17,77,32,65,797,0.0,574,461,60,131.0,0,1,286,217,58,0,0,0,250,250,0,-5.59,44.680759,10.020585,0.0,173.7,0,0.0,-1,0.0,0.0,0,0.01,4.4141
264864,1564213407339,2,2.31,1.11,0.64,1.4,1.17,0.8,0.05,0.61,0,-1,-0,0.8,5208,17,77,32,65,795,0.0,577,465,60,129.0,0,1,293,215,58,0,0,0,250,250,0,-5.59,,,,,,,,,,,,
264884,1564213407359,6,2.3,1.12,0.64,1.39,1.17,0.86,0.02,0.56,-0,-2,-0,0.86,5203,17,77,32,65,794,0.0,568,460,60,131.0,0,1,293,215,58,0,0,0,250,250,0,-5.59,,,,,,,,,,,,
264904,1564213407379,2,2.3,1.11,0.64,1.39,1.18,0.8,0.03,0.56,0,-2,-0,0.81,5243,17,77,32,65,794,0.0,580,462,60,130.0,0,1,296,292,58,0,0,0,250,250,0,-5.59,,,,,,,,,,,,
264924,1564213407399,5,2.3,1.11,0.64,1.4,1.17,0.85,0.02,0.5,-0,-2,-0,0.85,5211,17,77,32,65,796,0.0,573,463,60,131.0,0,1,293,285,58,0,0,0,250,250,0,-5.59,,,,,,,,,,,,
264944,1564213407419,4,2.31,1.11,0.64,1.39,1.18,0.82,0.04,0.49,0,-2,1,0.82,5250,17,77,32,64,798,0.0,575,464,60,130.0,0,1,298,292,56,0,0,0,250,250,0,-5.59,44.680759,10.020585,0.0,173.7,0,0.0,-1,0.0,0.0,0,0.01,4.4157
264964,1564213407439,7,2.3,1.12,0.64,1.4,1.17,0.86,0.02,0.53,-0,-2,0,0.86,5237,17,77,32,64,799,0.0,579,463,60,131.0,0,1,296,208,56,0,0,0,250,250,0,-5.59,,,,,,,,,,,,
264984,1564213407459,4,2.3,1.11,0.64,1.39,1.18,0.84,0.04,0.54,0,-1,1,0.84,5260,17,77,32,64,801,0.0,586,463,60,129.0,0,1,298,207,56,0,0,0,250,250,0,-5.59,,,,,,,,,,,,
265004,1564213407479,7,2.3,1.12,0.64,1.4,1.18,0.89,0.04,0.59,-0,-1,-0,0.89,5292,17,77,32,64,800,0.0,576,461,60,131.0,0,1,301,284,56,0,0,0,250,250,0,-5.59,,,,,,,,,,,,
265024,1564213407499,3,2.3,1.11,0.64,1.39,1.18,0.88,0.02,0.6,-0,-2,0,0.88,5202,17,77,32,64,800,0.0,575,463,60,129.0,0,1,293,208,56,0,0,0,250,250,0,-5.59,,,,,,,,,,,,
265044,1564213407519,7,2.3,1.11,0.64,1.4,1.18,0.9,0.04,0.61,-0,-2,-0,0.9,5161,17,77,32,64,794,0.0,570,462,60,131.0,0,1,289,209,56,0,0,0,250,250,0,-5.59,44.680759,10.020585,0.0,173.7,0,0.0,-1,0.0,0.0,0,0.01,4.4174
265064,1564213407539,4,2.3,1.11,0.64,1.39,1.18,0.86,0.02,0.55,0,-2,0,0.86,5205,17,77,32,64,789,0.0,566,466,60,130.0,0,1,293,285,56,0,0,0,250,250,0,-5.59,,,,,,,,,,,,
265084,1564213407559,5,2.31,1.11,0.64,1.4,1.17,0.9,0.04,0.58,-0,-2,0,0.9,5208,17,77,32,64,783,0.0,570,462,60,131.0,0,1,293,208,56,0,0,0,250,250,0,-5.59,,,,,,,,,,,,
265104,1564213407579,2,2.3,1.11,0.64,1.39,1.18,0.88,0.01,0.56,0,-2,0,0.88,5155,17,77,32,64,779,0.0,573,466,60,130.0,0,1,288,209,56,0,0,0,250,250,0,-5.59,,,,,,,,,,,,
265124,1564213407599,4,2.3,1.11,0.64,1.39,1.18,0.87,0.01,0.61,-0,-2,1,0.87,5173,17,77,32,64,777,0.0,565,461,60,131.0,0,1,290,209,56,0,0,0,250,250,0,-5.59,,,,,,,,,,,,
265144,1564213407619,4,2.3,1.12,0.64,1.39,1.18,0.88,0.0,0.59,-0,-1,0,0.88,5156,17,77,32,64,776,0.0,571,465,60,130.0,0,1,289,209,56,0,0,0,250,250,0,-5.59,44.680759,10.020585,0.0,173.7,0,0.0,-1,0.0,0.0,0,0.01,4.4191
265164,1564213407639,4,2.29,1.11,0.64,1.4,1.17,0.86,0.03,0.61,-0,-1,-0,0.86,5219,17,77,32,64,778,0.0,577,461,60,129.0,0,1,294,208,56,0,0,0,250,250,0,-5.59,,,,,,,,,,,,
265184,1564213407659,5,2.29,1.11,0.64,1.39,1.17,0.87,0.03,0.55,0,-2,-0,0.87,5208,17,77,32,64,782,0.0,572,466,60,130.0,0,1,293,208,56,0,0,0,250,250,0,-5.59,,,,,,,,,,,,
265204,1564213407679,4,2.3,1.12,0.64,1.39,1.18,0.82,0.05,0.56,0,-1,-0,0.82,5221,17,77,32,64,787,0.0,575,462,60,130.0,0,1,295,208,56,0,0,0,250,250,0,-5.59,,,,,,,,,,,,
265224,1564213407699,6,2.31,1.11,0.64,1.4,1.18,0.84,0.01,0.5,-0,-1,-0,0.84,5195,17,77,32,64,792,0.0,581,463,60,130.0,0,1,292,209,56,0,0,0,250,250,0,-5.59,,,,,,,,,,,,
265244,1564213407719,3,2.3,1.12,0.65,1.39,1.18,0.8,0.06,0.5,0,-0,0,0.81,5246,17,77,32,64,795,0.0,581,461,60,130.0,0,1,297,208,56,0,0,0,250,250,0,-5.59,44.680759,10.020585,0.0,173.7,0,0.0,-1,0.0,0.0,0,0.01,4.4207
265264,1564213407739,8,2.31,1.11,0.65,1.39,1.18,0.83,0.04,0.51,0,-1,0,0.83,5209,17,77,32,64,796,0.0,572,463,60,130.0,0,1,293,208,56,0,0,0,250,250,0,-5.59,,,,,,,,,,,,
265284,1564213407759,3,2.3,1.12,0.64,1.4,1.18,0.81,0.08,0.54,0,-0,1,0.81,5281,17,77,32,64,796,0.0,586,463,60,128.0,0,1,300,284,56,0,0,0,250,250,0,-5.59,,,,,,,,,,,,
265304,1564213407779,8,2.29,1.11,0.64,1.39,1.17,0.85,0.06,0.54,0,0,-0,0.85,5286,17,77,32,64,794,0.0,582,462,60,131.0,0,1,301,284,56,0,0,0,250,250,0,-5.59,,,,,,,,,,,,
265324,1564213407799,4,2.31,1.11,0.64,1.4,1.18,0.83,0.08,0.56,0,-0,0,0.83,5322,17,77,32,64,793,0.0,581,462,60,130.0,0,1,305,206,56,0,0,0,250,250,0,-5.59,,,,,,,,,,,,
265344,1564213407819,2,2.31,1.11,0.64,1.39,1.18,0.84,0.05,0.54,0,-2,-0,0.84,5295,17,77,32,64,789,0.0,582,466,60,130.0,0,1,302,207,57,0,0,0,250,250,0,-5.59,44.680759,10.020585,0.0,173.7,0,0.0,-1,0.0,0.0,0,0.01,4.4224
265364,1564213407839,4,2.3,1.12,0.64,1.4,1.18,0.81,0.07,0.52,0,-1,-0,0.81,5316,17,77,32,63,786,0.0,584,462,60,130.0,0,1,305,277,57,0,0,0,250,250,0,-5.59,,,,,,,,,,,,
265384,1564213407859,4,2.3,1.11,0.64,1.4,1.18,0.79,0.03,0.49,0,-1,-0,0.79,5320,17,77,32,63,782,0.0,585,464,60,131.0,0,1,305,278,57,0,0,0,250,250,0,-5.59,,,,,,,,,,,,
265404,1564213407879,6,2.3,1.12,0.64,1.4,1.18,0.8,0.06,0.54,0,-1,0,0.81,5271,17,77,32,63,779,0.0,578,461,60,130.0,0,1,300,278,57,0,0,0,250,250,0,-5.59,,,,,,,,,,,,
265424,1564213407899,4,2.3,1.12,0.64,1.39,1.18,0.77,0.02,0.53,0,-0,-0,0.77,5252,17,77,32,63,778,0.0,580,464,60,130.0,0,1,298,200,57,0,0,0,250,250,0,-5.59,,,,,,,,,,,,
265444,1564213407919,5,2.3,1.12,0.64,1.39,1.18,0.78,0.04,0.59,-0,-0,0,0.78,5249,17,77,32,63,777,0.0,573,462,60,131.0,0,1,298,200,55,0,0,0,250,250,0,-5.59,44.680759,10.020585,0.0,173.7,0,0.0,-1,0.0,0.0,0,0.01,4.4241
265464,1564213407939,2,2.31,1.11,0.64,1.4,1.17,0.77,0.02,0.56,0,0,-0,0.77,5260,17,77,32,63,776,0.0,578,466,60,130.0,0,1,299,200,55,0,0,0,250,250,0,-5.59,,,,,,,,,,,,
265484,1564213407959,6,2.29,1.11,0.64,1.4,1.18,0.79,0.03,0.6,0,-0,-1,0.79,5289,17,77,32,63,775,0.0,578,462,60,130.0,0,1,302,200,55,0,0,0,250,250,0,-5.59,,,,,,,,,,,,
265504,1564213407979,4,2.3,1.11,0.64,1.4,1.18,0.76,0.02,0.56,0,-1,-1,0.76,5281,17,77,32,63,774,0.0,579,464,60,128.0,0,1,301,200,55,0,0,0,250,250,0,-5.59,,,,,,,,,,,,
265524,1564213407991,6,2.29,1.11,0.64,1.4,1.18,0.77,0.05,0.56,0,-1,-1,0.77,5234,17,77,32,63,774,0.0,571,462,60,130.0,0,1,296,200,55,0,0,0,250,250,0,-5.59,,,,,,,,,,,,
265544,1564213408011,2,2.31,1.11,0.64,1.4,1.18,0.74,0.03,0.54,0,-1,-1,0.74,5212,17,77,32,63,776,0.0,588,466,60,129.0,0,1,294,200,55,0,0,0,250,250,0,-5.59,44.680759,10.020585,0.0,173.7,0,0.0,-1,0.0,0.0,0,0.01,4.4257
265564,1564213408031,6,2.3,1.11,0.64,1.39,1.18,0.76,0.04,0.54,0,-1,-0,0.76,5211,17,77,32,63,777,0.0,576,460,60,131.0,0,1,294,200,55,0,0,0,250,250,0,-5.59,,,,,,,,,,,,
265584,1564213408051,3,2.3,1.11,0.64,1.39,1.18,0.74,0.03,0.56,0,-1,-0,0.74,5202,17,77,32,63,779,0.0,573,466,60,130.0,0,1,296,200,55,0,0,0,250,250,0,-5.59,,,,,,,,,,,,
265604,1564213408071,3,2.31,1.11,0.64,1.4,1.18,0.73,0.04,0.56,-0,-1,0,0.73,5233,17,77,32,63,780,0.0,579,461,60,130.0,0,1,296,278,55,0,0,0,250,250,0,-5.59,,,,,,,,,,,,
265624,1564213408092,3,2.3,1.11,0.64,1.39,1.18,0.74,0.03,0.56,0,-0,-1,0.74,5241,17,77,32,63,781,0.0,582,464,60,130.0,0,1,297,200,55,0,0,0,250,250,0,-5.59,,,,,,,,,,,,
265644,1564213408112,4,2.3,1.11,0.64,1.39,1.18,0.74,0.05,0.55,0,-0,-0,0.74,5212,16,77,32,63,782,0.0,575,460,60,129.0,0,1,294,278,54,0,0,0,250,250,0,-5.59,44.680759,10.020585,0.0,173.7,0,0.0,-1,0.0,0.0,0,0.01,4.4274
265664,1564213408132,3,2.31,1.12,0.64,1.39,1.18,0.77,0.05,0.52,0,-1,-0,0.77,5189,16,77,32,64,781,0.0,575,463,60,131.0,0,1,291,286,54,0,0,0,250,250,0,-5.59,,,,,,,,,,,,
265684,1564213408152,4,2.29,1.12,0.64,1.4,1.18,0.73,0.04,0.52,0,-1,-1,0.73,5170,16,77,32,64,782,0.0,583,464,60,129.0,0,1,290,286,54,0,0,0,250,250,0,-5.59,,,,,,,,,,,,
265704,1564213408172,8,2.3,1.12,0.64,1.4,1.18,0.79,0.02,0.48,0,-1,-1,0.79,5182,16,77,32,64,783,0.0,570,460,60,131.0,0,1,291,209,54,0,0,0,250,250,0,-5.59,,,,,,,,,,,,
265724,1564213408198,2,2.3,1.11,0.64,1.39,1.18,0.75,0.06,0.45,0,0,0,0.76,5237,16,77,32,63,786,0.0,572,462,60,129.0,0,1,296,285,54,0,0,0,250,250,0,-5.59,,,,,,,,,,,,
265744,1564213408218,7,2.3,1.11,0.64,1.39,1.18,0.8,0.03,0.49,0,-1,-0,0.8,5230,16,77,32,63,788,0.0,576,462,60,131.0,0,1,296,200,56,0,0,0,250,250,0,-5.59,44.680759,10.020585,0.0,173.7,0,0.0,-1,0.0,0.0,0,0.01,4.4291
265764,1564213408238,3,2.3,1.12,0.64,1.4,1.18,0.78,0.04,0.52,0,-0,0,0.78,5203,16,77,32,64,791,0.0,570,465,60,129.0,0,1,293,208,56,0,0,0,250,250,0,-5.59,,,,,,,,,,,,
265784,1564213408258,8,2.3,1.12,0.64,1.4,1.18,0.84,0.02,0.56,0,0,-0,0.84,5262,16,77,32,64,791,0.0,577,465,60,130.0,0,1,299,207,56,0,0,0,250,250,0,-5.59,,,,,,,,,,,,
265804,1564213408278,4,2.29,1.11,0.64,1.4,1.18,0.82,0.02,0.59,0,-1,0,0.82,5290,16,77,32,63,793,0.0,579,460,60,129.0,0,1,302,278,56,0,0,0,250,250,0,-5.59,,,,,,,,,,,,
265824,1564213408298,6,2.31,1.11,0.64,1.4,1.18,0.86,0.01,0.6,-0,-2,-1,0.86,5249,16,77,32,64,791,0.0,578,465,60,130.0,0,1,297,278,56,0,0,0,250,250,0,-5.59,,,,,,,,,,,,
265844,1564213408318,3,2.3,1.12,0.64,1.39,1.18,0.81,0.01,0.58,0,-1,-0,0.81,5310,16,77,32,63,789,0.0,573,462,60,130.0,0,1,304,199,55,0,0,0,250,250,0,-5.59,44.680759,10.020585,0.0,173.7,0,0.0,-1,0.0,0.0,0,0.01,4.4307
265864,1564213408338,4,2.3,1.11,0.64,1.39,1.18,0.85,-0.01,0.53,-0,-1,-1,0.85,5295,16,77,32,63,788,0.0,585,466,60,130.0,0,1,303,200,55,0,0,0,250,250,0,-5.59,,,,,,,,,,,,
265884,1564213408358,3,2.3,1.11,0.64,1.39,1.17,0.83,0.04,0.52,0,-1,0,0.83,5322,16,77,32,62,787,0.0,577,460,60,130.0,0,1,307,191,55,0,0,0,250,250,0,-5.59,,,,,,,,,,,,
265904,1564213408378,4,2.3,1.12,0.64,1.39,1.18,0.81,0.02,0.53,0,-1,-0,0.81,5335,16,77,32,63,788,0.0,579,463,60,130.0,0,1,307,277,55,0,0,0,250,250,0,-5.59,,,,,,,,,,,,
265924,1564213408398,6,2.29,1.11,0.64,1.4,1.18,0.82,0.04,0.54,-0,-1,0,0.82,5335,16,77,32,62,789,0.0,585,462,60,130.0,0,1,308,191,55,0,0,0,250,250,0,-5.59,,,,,,,,,,,,
265944,1564213408418,4,2.3,1.12,0.64,1.4,1.18,0.8,0.01,0.54,0,0,-0,0.8,5364,16,77,32,62,789,0.0,594,466,60,129.0,0,1,310,190,54,0,0,0,250,250,0,-5.59,44.680759,10.020585,0.0,173.7,0,0.0,-1,0.0,0.0,0,0.01,4.4324
265964,1564213408438,5,2.31,1.11,0.64,1.4,1.18,0.84,-0.0,0.51,-0,-0,-0,0.84,5409,16,77,32,62,789,0.0,588,457,60,130.0,0,1,315,267,54,0,0,0,250,250,0,-5.59,,,,,,,,,,,,
265984,1564213408458,4,2.3,1.11,0.64,1.39,1.18,0.79,0.02,0.58,0,-1,-1,0.79,5408,16,77,32,62,788,0.0,595,463,60,128.0,0,1,315,267,54,0,0,0,250,250,0,-5.59,,,,,,,,,,,,
266004,1564213408478,3,2.3,1.12,0.64,1.39,1.17,0.83,-0.0,0.52,0,-1,-1,0.83,5372,16,77,32,62,788,0.0,593,461,60,130.0,0,1,311,190,54,0,0,0,250,250,0,-5.59,,,,,,,,,,,,
266024,1564213408498,6,2.3,1.12,0.64,1.39,1.18,0.81,0.05,0.54,0,-0,-1,0.81,5383,16,77,32,61,785,0.0,591,460,60,131.0,0,1,313,261,54,0,0,0,250,250,0,-5.59,,,,,,,,,,,,
266044,1564213408518,3,2.3,1.11,0.64,1.4,1.18,0.79,0.01,0.5,0,0,-1,0.79,5346,16,77,32,62,784,0.0,587,463,60,130.0,0,1,305,269,53,0,0,0,250,250,0,-5.59,44.680759,10.020585,0.0,173.7,0,0.0,-1,0.0,0.0,0,0.01,4.4341
266064,1564213408538,6,2.3,1.12,0.64,1.4,1.18,0.82,0.05,0.52,-0,-1,-1,0.82,5257,16,77,32,61,782,0.0,585,462,60,130.0,0,1,300,185,53,0,0,0,250,250,0,-5.59,,,,,,,,,,,,
266084,1564213408558,3,2.3,1.11,0.64,1.4,1.18,0.79,0.0,0.49,0,-1,-0,0.79,5221,16,77,32,62,781,0.0,575,463,60,130.0,0,1,296,193,53,0,0,0,250,250,0,-5.59,,,,,,,,,,,,
266104,1564213408578,4,2.3,1.11,0.64,1.4,1.18,0.76,0.04,0.53,-0,-0,-0,0.76,5153,16,77,32,61,779,0.0,568,458,60,131.0,0,1,288,187,53,0,0,0,250,250,0,-5.59,,,,,,,,,,,,
266124,1564213408598,4,2.31,1.11,0.64,1.39,1.18,0.79,0.03,0.45,0,0,-0,0.79,5168,16,77,32,62,776,0.0,573,467,60,130.0,0,1,290,272,53,0,0,0,250,250,0,-5.59,,,,,,,,,,,,
266144,1564213408618,4,2.3,1.12,0.64,1.39,1.18,0.77,0.05,0.49,0,0,-0,0.77,5138,16,77,32,62,775,0.0,570,462,60,129.0,0,1,287,195,53,0,0,0,250,250,0,-5.59,44.680759,10.020585,0.0,173.7,0,0.0,-1,0.0,0.0,0,0.01,4.4357
266164,1564213408638,8,2.3,1.12,0.64,1.4,1.17,0.84,0.02,0.47,0,-2,-0,0.84,5166,16,77,32,63,773,0.0,560,465,60,131.0,0,1,290,201,53,0,0,0,250,250,0,-5.59,,,,,,,,,,,,
266184,1564213408658,2,2.31,1.11,0.64,1.39,1.19,0.77,0.03,0.46,0,-1,0,0.77,5189,16,77,32,62,776,0.0,566,461,60,129.0,0,1,292,194,53,0,0,0,250,250,0,-5.59,,,,,,,,,,,,
266204,1564213408678,5,2.31,1.11,0.64,1.4,1.18,0.85,0.04,0.49,-0,-2,-0,0.85,5158,16,77,32,63,779,0.0,566,458,60,131.0,0,1,289,278,53,0,0,0,250,250,0,-5.59,,,,,,,,,,,,
266224,1564213408698,3,2.31,1.12,0.64,1.4,1.17,0.82,0.01,0.44,0,-1,0,0.82,5148,16,77,32,63,784,0.0,561,468,60,130.0,0,1,288,279,53,0,0,0,250,250,0,-5.59,,,,,,,,,,,,
266244,1564213408718,6,2.3,1.12,0.64,1.39,1.18,0.82,0.03,0.55,-0,-2,0,0.82,5173,16,77,32,63,788,0.0,565,460,60,130.0,0,1,290,201,54,0,0,0,250,250,0,-5.59,44.680759,10.020585,0.0,173.7,0,0.0,-1,0.0,0.0,0,0.01,4.4374
266264,1564213408738,4,2.3,1.12,0.64,1.4,1.18,0.82,0.01,0.5,0,-1,0,0.82,5168,16,77,32,63,795,0.0,578,467,60,130.0,0,1,290,278,54,0,0,0,250,250,0,-5.59,,,,,,,,,,,,
266284,1564213408758,4,2.3,1.12,0.64,1.4,1.18,0.8,0.04,0.56,-0,-1,-0,0.8,5199,16,77,32,63,801,0.0,567,460,60,129.0,0,1,293,278,54,0,0,0,250,250,0,-5.59,,,,,,,,,,,,
266304,1564213408778,2,2.3,1.11,0.64,1.39,1.18,0.83,0.02,0.51,0,-2,-0,0.83,5173,16,77,32,63,808,0.0,566,464,60,131.0,0,1,290,201,54,0,0,0,250,250,0,-5.59,,,,,,,,,,,,
266324,1564213408798,4,2.3,1.11,0.64,1.39,1.18,0.76,0.03,0.5,0,-1,0,0.77,5221,16,77,32,63,811,0.0,575,464,60,129.0,0,1,295,200,54,0,0,0,250,250,0,-5.59,,,,,,,,,,,,
266344,1564213408818,4,2.3,1.11,0.64,1.39,1.18,0.81,0.01,0.47,0,-1,-1,0.81,5222,16,77,32,63,812,0.0,570,461,60,130.0,0,1,295,278,55,0,0,0,250,250,0,-5.59,44.680759,10.020585,0.0,173.7,0,0.0,-1,0.0,0.0,0,0.01,4.4391
266364,1564213408838,2,2.3,1.11,0.64,1.4,1.17,0.82,0.03,0.45,0,-0,0,0.82,5219,16,77,32,63,811,0.0,576,464,60,129.0,0,1,295,200,55,0,0,0,250,250,0,-5.59,,,,,,,,,,,,
266384,1564213408858,4,2.3,1.12,0.64,1.39,1.18,0.78,0.01,0.47,0,-1,0,0.78,5233,16,77,32,63,809,0.0,578,461,60,130.0,0,1,296,200,55,0,0,0,250,250,0,-5.59,,,,,,,,,,,,
266404,1564213408878,4,2.29,1.12,0.64,1.4,1.18,0.79,0.01,0.46,-0,-0,0,0.79,5265,16,77,32,63,805,0.0,586,464,60,129.0,0,1,299,200,55,0,0,0,250,250,0,-5.59,,,,,,,,,,,,
266424,1564213408898,2,2.31,1.11,0.65,1.4,1.18,0.77,0.0,0.47,0,0,0,0.77,5307,16,77,32,63,800,0.0,582,467,60,129.0,0,1,304,277,55,0,0,0,250,250,0,-5.59,,,,,,,,,,,,
266444,1564213408918,5,2.3,1.12,0.64,1.4,1.18,0.81,-0.0,0.46,-0,-0,0,0.81,5349,16,77,32,62,795,0.0,588,462,60,130.0,0,1,309,191,55,0,0,0,250,250,0,-5.59,44.680759,10.020585,0.0,173.7,0,0.0,-1,0.0,0.0,0,0.01,4.4407
266464,1564213408938,3,2.3,1.12,0.64,1.4,1.18,0.75,-0.01,0.55,0,-1,-0,0.75,5351,16,77,32,62,791,0.0,585,463,60,130.0,0,1,309,190,55,0,0,0,250,250,0,-5.59,,,,,,,,,,,,
266484,1564213408958,7,2.3,1.12,0.64,1.4,1.18,0.83,-0.03,0.5,-0,-1,-1,0.84,5363,16,77,32,62,790,0.0,585,462,60,131.0,0,1,310,190,55,0,0,0,250,250,0,-5.59,,,,,,,,,,,,
266504,1564213408978,2,2.3,1.11,0.64,1.39,1.18,0.78,0.03,0.54,0,0,-1,0.78,5455,16,77,32,61,790,0.0,592,464,60,129.0,0,1,321,181,55,0,0,0,250,250,0,-5.59,,,,,,,,,,,,
266524,1564213408998,2,2.31,1.11,0.64,1.39,1.19,0.76,-0.02,0.53,0,-1,-1,0.76,5463,16,77,32,61,791,0.0,599,462,60,129.0,0,1,322,259,55,0,0,0,250,250,0,-5.59,,,,,,,,,,,,
266544,1564213409010,6,2.29,1.11,0.64,1.4,1.18,0.85,0.01,0.54,-0,-1,-0,0.85,5441,16,77,32,61,790,0.0,591,462,60,130.0,0,1,320,182,53,0,0,0,250,250,0,-5.59,44.680759,10.020585,0.0,173.7,0,0.0,-1,0.0,0.0,0,0.01,4.4424
266564,1564213409030,4,2.29,1.1,0.64,1.4,1.18,0.78,0.0,0.53,0,-1,-1,0.78,5400,16,77,32,61,792,0.0,585,466,60,129.0,0,1,315,182,53,0,0,0,250,250,0,-5.59,,,,,,,,,,,,
266584,1564213409050,7,2.3,1.12,0.64,1.4,1.18,0.82,-0.01,0.51,-0,-1,-0,0.82,5387,16,77,32,61,792,0.0,593,465,60,130.0,0,1,314,183,53,0,0,0,250,250,0,-5.59,,,,,,,,,,,,
266604,1564213409070,3,2.3,1.11,0.64,1.39,1.18,0.81,0.05,0.53,0,-1,0,0.82,5299,16,77,32,61,794,0.0,588,463,60,129.0,0,1,304,263,53,0,0,0,250,250,0,-5.59,,,,,,,,,,,,
266624,1564213409097,8,2.31,1.11,0.64,1.39,1.19,0.83,0.04,0.48,-0,-1,-0,0.83,5268,16,77,32,61,794,0.0,577,461,60,130.0,0,1,301,183,53,0,0,0,250,250,0,-5.59,,,,,,,,,,,,
266644,1564213409117,4,2.3,1.11,0.64,1.4,1.18,0.81,0.08,0.51,0,-1,0,0.81,5284,16,77,32,61,794,0.0,578,463,60,129.0,0,1,302,183,51,0,0,0,250,250,0,-5.59,44.680759,10.020585,0.0,173.7,0,0.0,-1,0.0,0.0,0,0.01,4.4441
266664,1564213409137,7,2.3,1.12,0.64,1.39,1.18,0.84,0.04,0.48,-0,-2,-1,0.84,5224,15,77,32,61,796,0.0,575,465,60,130.0,0,1,296,186,51,0,0,0,250,250,0,-5.59,,,,,,,,,,,,
266684,1564213409157,4,2.3,1.11,0.64,1.4,1.18,0.78,0.06,0.49,0,-1,-0,0.78,5231,15,77,32,61,795,0.0,574,464,60,130.0,0,1,297,264,51,0,0,0,250,250,0,-5.59,,,,,,,,,,,,
266704,1564213409177,7,2.3,1.12,0.65,1.39,1.18,0.82,0.02,0.46,-0,-2,-0,0.82,5185,15,77,32,61,794,0.0,576,460,60,130.0,0,1,292,187,51,0,0,0,250,250,0,-5.59,,,,,,,,,,,,
266724,1564213409197,2,2.31,1.11,0.65,1.39,1.19,0.78,0.07,0.43,0,-1,0,0.78,5244,15,77,32,62,794,0.0,585,465,60,130.0,0,1,298,271,51,0,0,0,250,250,0,-5.59,,,,,,,,,,,,
266744,1564213409217,6,2.3,1.12,0.64,1.39,1.18,0.82,0.04,0.48,-0,-1,1,0.82,5180,15,77,32,61,792,0.0,568,457,60,131.0,0,1,291,265,53,0,0,0,250,250,0,-5.59,44.680759,10.020585,0.0,173.7,0,0.0,-1,0.0,0.0,0,0.01,4.4457
266764,1564213409237,2,2.3,1.11,0.64,1.4,1.17,0.78,0.08,0.53,-0,-0,0,0.78,5202,15,77,32,62,798,0.0,576,466,60,130.0,0,1,294,193,53,0,0,0,250,250,0,-5.59,,,,,,,,,,,,
266784,1564213409257,7,2.3,1.12,0.64,1.4,1.18,0.85,0.03,0.54,-0,-0,0,0.86,5212,15,77,32,62,801,0.0,575,459,60,131.0,0,1,295,193,53,0,0,0,250,250,0,-5.59,,,,,,,,,,,,
266804,1564213409277,4,2.3,1.11,0.64,1.4,1.18,0.8,0.05,0.59,-0,-1,-0,0.81,5227,15,77,32,62,807,0.0,574,466,60,130.0,0,1,296,191,53,0,0,0,250,250,0,-5.59,,,,,,,,,,,,
266824,1564213409297,6,2.31,1.11,0.64,1.39,1.18,0.88,0.03,0.59,-0,-2,-1,0.88,5185,15,77,32,62,812,0.0,571,461,60,132.0,0,1,292,194,53,0,0,0,250,250,0,-5.59,,,,,,,,,,,,
266844,1564213409317,4,2.31,1.12,0.65,1.4,1.18,0.79,0.04,0.58,0,-1,-1,0.8,5201,15,77,32,62,814,0.0,580,466,60,131.0,0,1,293,193,53,0,0,0,250,250,0,-5.59,44.680759,10.020585,0.0,173.7,0,0.0,-1,0.0,0.0,0,0.01,4.4474
266864,1564213409337,4,2.3,1.11,0.64,1.39,1.19,0.87,0.05,0.58,-0,-1,-0,0.87,5205,15,77,32,62,815,0.0,575,461,60,130.0,0,1,294,271,53,0,0,0,250,250,0,-5.59,,,,,,,,,,,,
266884,1564213409357,4,2.31,1.11,0.64,1.39,1.18,0.83,0.02,0.55,0,-2,-1,0.83,5218,15,77,32,62,813,0.0,566,463,60,131.0,0,1,295,193,53,0,0,0,250,250,0,-5.59,,,,,,,,,,,,
266904,1564213409377,3,2.31,1.11,0.64,1.4,1.18,0.86,0.02,0.62,-0,-1,-0,0.86,5244,15,77,32,62,809,0.0,572,461,60,131.0,0,1,298,193,53,0,0,0,250,250,0,-5.59,,,,,,,,,,,,
266924,1564213409397,4,2.31,1.11,0.64,1.4,1.18,0.83,-0.01,0.59,0,-1,-0,0.83,5265,15,77,32,62,804,0.0,582,465,60,130.0,0,1,300,192,53,0,0,0,250,250,0,-5.59,,,,,,,,,,,,
266944,1564213409417,6,2.31,1.12,0.64,1.39,1.18,0.86,0.0,0.66,-0,-1,-1,0.86,5292,15,77,32,62,798,0.0,572,461,60,131.0,0,1,303,192,53,0,0,0,250,250,0,-5.59,44.680759,10.020585,0.0,173.7,0,0.0,-1,0.0,0.0,0,0.01,4.4491
266964,1564213409437,4,2.3,1.12,0.64,1.39,1.18,0.82,-0.02,0.62,0,-2,-1,0.82,5299,15,77,32,62,796,0.0,579,465,60,129.0,0,1,304,192,53,0,0,0,250,250,0,-5.59,,,,,,,,,,,,
266984,1564213409457,5,2.3,1.12,0.64,1.4,1.18,0.88,-0.0,0.68,-0,-1,-0,0.88,5296,15,77,32,62,794,0.0,578,461,60,131.0,0,1,304,270,53,0,0,0,250,250,0,-5.59,,,,,,,,,,,,
267004,1564213409477,4,2.3,1.11,0.64,1.4,1.18,0.82,0.02,0.65,0,-1,-1,0.82,5293,15,77,32,62,792,0.0,580,465,60,131.0,0,1,300,192,53,0,0,0,250,250,0,-5.59,,,,,,,,,,,,
267024,1564213409497,6,2.3,1.11,0.62,1.39,1.18,0.9,0.02,0.63,-0,-1,-1,0.9,5311,15,77,32,62,790,0.0,580,459,60,131.0,0,1,305,191,53,0,0,0,250,250,0,-5.59,,,,,,,,,,,,
267044,1564213409517,4,2.31,1.11,0.64,1.4,1.18,0.84,0.06,0.57,0,-0,-0,0.84,5351,15,77,32,62,789,0.0,589,468,60,130.0,0,1,309,268,53,0,0,0,250,250,0,-5.59,44.680759,10.020585,0.0,173.7,0,0.0,-1,0.0,0.0,0,0.01,4.4507
267064,1564213409537,7,2.31,1.12,0.64,1.4,1.18,0.87,0.02,0.61,-0,-1,0,0.87,5307,15,77,32,61,788,0.0,576,460,60,131.0,0,1,305,184,53,0,0,0,250,250,0,-5.59,,,,,,,,,,,,
267084,1564213409557,2,2.31,1.11,0.64,1.39,1.17,0.84,0.07,0.59,0,-0,0,0.84,5322,15,77,32,61,789,0.0,578,462,60,130.0,0,1,307,184,53,0,0,0,250,250,0,-5.59,,,,,,,,,,,,
267104,1564213409577,4,2.31,1.11,0.64,1.39,1.18,0.86,0.03,0.56,0,-0,0,0.86,5351,15,77,32,61,792,0.0,591,462,60,131.0,0,1,310,261,53,0,0,0,250,250,0,-5.59,,,,,,,,,,,,
267124,1564213409597,4,2.31,1.11,0.64,1.39,1.18,0.84,0.06,0.58,0,-0,0,0.84,5349,15,77,32,61,794,0.0,585,462,60,130.0,0,1,310,262,53,0,0,0,250,250,0,-5.59,,,,,,,,,,,,
267144,1564213409617,2,2.31,1.11,0.64,1.4,1.17,0.8,0.03,0.56,0,-2,-0,0.8,5346,15,77,32,61,798,0.0,587,465,60,130.0,0,1,311,262,53,0,0,0,250,250,0,-5.59,44.680759,10.020585,0.0,173.7,0,0.0,-1,0.0,0.0,0,0.01,4.4524
267164,1564213409637,4,2.31,1.11,0.64,1.4,1.18,0.86,0.06,0.56,-0,-1,-0,0.87,5372,15,77,32,61,799,0.0,591,462,60,132.0,0,1,312,183,53,0,0,0,250,250,0,-5.59,,,,,,,,,,,,
267184,1564213409657,2,2.31,1.11,0.64,1.39,1.19,0.78,0.07,0.55,0,-0,-1,0.79,5392,15,77,32,61,802,0.0,601,465,60,130.0,0,1,314,183,53,0,0,0,250,250,0,-5.59,,,,,,,,,,,,
267204,1564213409677,6,2.31,1.12,0.64,1.39,1.19,0.85,0.03,0.53,-0,-2,-0,0.85,5412,15,77,32,61,802,0.0,591,462,60,131.0,0,1,316,182,53,0,0,0,250,250,0,-5.59,,,,,,,,,,,,
267224,1564213409697,4,2.3,1.12,0.64,1.39,1.17,0.84,0.1,0.5,0,-1,-0,0.84,5405,15,77,32,60,801,0.0,592,462,60,129.0,0,1,319,180,53,0,0,0,250,250,0,-5.59,,,,,,,,,,,,
267244,1564213409717,4,2.31,1.11,0.64,1.4,1.18,0.79,0.01,0.51,0,-1,-0,0.79,5411,15,77,32,60,800,0.0,591,466,60,130.0,0,1,323,258,52,0,0,0,250,250,0,-5.59,44.680759,10.020585,0.0,173.7,0,0.0,-1,0.0,0.0,0,0.01,4.4541
267264,1564213409737,6,2.3,1.11,0.64,1.4,1.18,0.84,0.02,0.52,-0,-1,0,0.84,5456,15,77,32,60,797,0.0,593,460,60,131.0,0,1,324,179,52,0,0,0,250,250,0,-5.59,,,,,,,,,,,,
267284,1564213409757,2,2.31,1.11,0.64,1.4,1.18,0.79,0.07,0.56,0,0,-0,0.79,5448,15,77,32,60,795,0.0,591,461,60,129.0,0,1,323,180,52,0,0,0,250,250,0,-5.59,,,,,,,,,,,,
267304,1564213409777,4,2.3,1.12,0.64,1.4,1.18,0.82,0.01,0.54,0,-0,0,0.82,5503,15,77,32,60,794,0.0,600,462,60,131.0,0,1,329,256,52,0,0,0,250,250,0,-5.59,,,,,,,,,,,,
267324,1564213409797,5,2.31,1.11,0.64,1.39,1.18,0.86,0.03,0.53,-0,0,0,0.86,5484,15,77,32,59,792,0.0,593,462,60,131.0,0,1,329,177,52,0,0,0,250,250,0,-5.59,,,,,,,,,,,,
267344,1564213409817,4,2.3,1.12,0.64,1.4,1.18,0.79,0.05,0.58,0,-1,-0,0.8,5496,15,77,32,59,791,0.0,591,463,60,130.0,0,1,331,177,53,0,0,0,250,250,0,-5.59,44.680759,10.020585,0.0,173.7,0,0.0,-1,0.0,0.0,0,0.01,4.4557
267364,1564213409837,4,2.31,1.11,0.64,1.39,1.19,0.83,0.01,0.59,0,-3,-0,0.83,5471,15,77,32,59,789,0.0,594,463,60,130.0,0,1,328,177,53,0,0,0,250,250,0,-5.59,,,,,,,,,,,,
267384,1564213409857,6,2.31,1.11,0.64,1.4,1.18,0.86,0.06,0.58,-0,-1,-0,0.86,5420,15,77,32,59,788,0.0,590,465,60,130.0,0,1,323,256,53,0,0,0,250,250,0,-5.59,,,,,,,,,,,,
267404,1564213409877,4,2.31,1.11,0.65,1.39,1.18,0.78,0.03,0.58,0,-0,-0,0.78,5422,15,77,32,59,788,27.0,595,462,60,130.0,0,1,323,256,53,0,0,0,250,10686,27,-5.59,,,,,,,,,,,,
267424,1564213409899,7,2.3,1.12,0.65,1.39,1.18,0.86,0.02,0.55,-0,-2,-0,0.86,5412,15,77,32,59,785,156.0,591,462,60,130.0,0,1,322,256,53,0,0,0,250,-16896,156,-5.59,,,,,,,,,,,,
267444,1564213409919,4,2.31,1.11,0.64,1.4,1.18,0.81,0.07,0.53,0,-1,0,0.82,5428,15,77,32,59,785,94.0,586,462,60,130.0,326,1,324,256,51,0,0,0,250,10686,94,-5.59,44.680759,10.020585,0.0,173.7,0,0.0,-1,0.0,0.0,0,0.01,4.4574
267464,1564213409939,4,2.31,1.11,0.64,1.39,1.19,0.79,0.0,0.54,0,-1,-0,0.79,5420,15,77,32,59,784,94.0,593,465,60,131.0,326,1,323,178,51,0,0,0,250,-16896,94,-5.59,,,,,,,,,,,,
267484,1564213409959,6,2.31,1.12,0.64,1.39,1.18,0.83,-0.0,0.56,-0,-1,0,0.83,5428,15,77,32,59,782,93.0,585,462,60,130.0,326,1,324,256,51,0,0,0,250,10686,93,-5.59,,,,,,,,,,,,
267504,1564213409979,3,2.31,1.11,0.64,1.39,1.18,0.79,0.02,0.6,0,-0,0,0.79,5436,15,77,32,59,782,93.0,597,461,60,130.0,326,1,325,178,51,0,0,0,250,41,93,-5.59,,,,,,,,,,,,
267524,1564213409991,4,2.31,1.12,0.64,1.39,1.18,0.85,0.01,0.6,0,-0,0,0.85,5452,15,77,32,59,781,93.0,596,463,60,131.0,326,1,326,177,51,0,0,0,250,41,93,-5.59,,,,,,,,,,,,
267544,1564213410011,4,2.31,1.11,0.64,1.4,1.18,0.84,0.04,0.61,-0,-0,-0,0.84,5469,15,77,32,59,782,93.0,600,459,60,130.0,559,1,328,177,52,0,0,0,250,0,93,-5.59,44.680759,10.020585,0.0,173.7,0,0.0,-1,0.0,0.0,0,0.01,4.4591
267564,1564213410031,2,2.31,1.11,0.65,1.39,1.18,0.76,0.01,0.63,0,-1,-0,0.76,5503,15,77,32,59,784,93.0,595,465,60,130.0,559,1,331,255,52,0,0,0,250,0,93,-5.59,,,,,,,,,,,,
267584,1564213410051,3,2.31,1.11,0.64,1.39,1.18,0.87,-0.02,0.56,-0,-3,-0,0.87,5522,15,77,32,59,783,93.0,600,462,60,131.0,559,1,333,253,52,0,0,0,250,20480,93,-5.59,,,,,,,,,,,,
267604,1564213410071,5,2.31,1.12,0.64,1.39,1.19,0.85,0.05,0.58,0,-1,-1,0.85,5477,15,77,32,58,784,93.0,606,460,60,130.0,559,1,331,175,52,0,0,0,250,0,93,-5.59,,,,,,,,,,,,
267624,1564213410099,3,2.31,1.11,0.64,1.39,1.19,0.76,0.01,0.59,0,0,-1,0.76,5482,15,77,32,59,784,93.0,598,465,60,130.0,559,1,329,255,52,0,0,0,250,0,93,-5.59,,,,,,,,,,,,
267644,1564213410119,8,2.31,1.12,0.64,1.39,1.18,0.84,-0.02,0.54,-0,-1,-0,0.84,5482,15,77,32,58,783,93.0,594,462,60,130.0,559,1,332,175,52,0,0,0,250,0,93,-5.59,44.680759,10.020585,0.0,173.7,0,0.0,-1,0.0,0.0,0,0.01,4.4607
267664,1564213410139,4,2.31,1.11,0.64,1.39,1.19,0.84,0.06,0.55,0,-1,-0,0.84,5509,15,77,32,58,782,93.0,597,463,60,130.0,559,1,334,175,52,0,0,0,250,0,93,-5.59,,,,,,,,,,,,
267684,1564213410159,5,2.31,1.11,0.64,1.39,1.19,0.76,0.01,0.58,0,-0,-1,0.76,5513,15,77,32,58,780,93.0,595,466,60,129.0,559,1,334,253,52,0,0,0,250,20480,93,-5.59,,,,,,,,,,,,
267704,1564213410179,2,2.31,1.11,0.64,1.4,1.18,0.8,-0.0,0.55,0,-1,-0,0.8,5540,15,77,32,58,778,93.0,595,463,60,130.0,559,1,337,253,52,0,0,0,250,80,93,-5.59,,,,,,,,,,,,
267724,1564213410198,5,2.31,1.11,0.64,1.39,1.18,0.84,0.01,0.57,-0,-0,0,0.84,5558,15,77,32,57,777,93.0,592,461,60,130.0,559,1,341,252,52,0,0,0,250,21760,93,-5.59,,,,,,,,,,,,
267744,1564213410218,3,2.31,1.11,0.64,1.4,1.18,0.76,0.02,0.59,0,0,-0,0.76,5545,15,77,32,58,776,93.0,606,466,60,130.0,569,1,338,253,53,0,0,0,250,80,93,-5.59,44.680759,10.020585,0.0,173.7,0,0.0,-1,0.0,0.0,0,0.01,4.4624
267764,1564213410238,2,2.3,1.11,0.64,1.39,1.18,0.8,-0.01,0.56,0,-0,-0,0.8,5562,15,77,32,58,775,93.0,612,463,60,131.0,569,1,339,175,53,0,0,0,250,21760,93,-5.59,,,,,,,,,,,,
267784,1564213410258,8,2.3,1.11,0.64,1.39,1.18,0.85,0.01,0.54,-0,0,-0,0.85,5592,15,77,32,57,775,93.0,600,464,60,130.0,569,1,344,252,53,0,0,0,250,250,93,-5.59,,,,,,,,,,,,
267804,1564213410278,5,2.31,1.11,0.64,1.39,1.18,0.8,0.06,0.57,0,0,-1,0.8,5628,15,77,32,57,775,93.0,600,462,60,130.0,569,1,348,174,53,0,0,0,250,250,93,-5.59,,,,,,,,,,,,
267824,1564213410298,4,2.31,1.12,0.65,1.39,1.19,0.74,-0.02,0.6,0,-1,-1,0.74,5645,15,77,32,57,775,93.0,603,462,60,129.0,569,1,349,174,53,0,0,0,250,250,93,-5.59,,,,,,,,,,,,
267844,1564213410318,4,2.31,1.12,0.64,1.4,1.18,0.81,-0.03,0.55,-0,-3,-1,0.81,5666,15,77,32,57,774,93.0,607,466,60,130.0,580,1,351,252,54,0,0,0,250,250,93,-5.59,44.680759,10.020585,0.0,173.7,0,0.0,-1,0.0,0.0,0,0.01,4.4641
267864,1564213410338,8,2.31,1.11,0.64,1.4,1.18,0.93,0.01,0.52,-0,-3,-1,0.93,5695,15,77,32,56,772,93.0,596,462,60,131.0,580,1,355,252,54,0,0,7,250,250,93,-5.59,,,,,,,,,,,,
267884,1564213410358,6,2.31,1.11,0.64,1.4,1.18,0.9,0.06,0.53,-0,-1,-1,0.91,5767,15,77,32,55,770,93.0,602,462,60,131.0,580,1,363,175,54,0,0,7,250,250,93,-5.59,,,,,,,,,,,,
267904,1564213410378,6,2.31,1.12,0.64,1.4,1.18,0.81,0.08,0.56,0,1,-2,0.81,5824,15,77,32,54,770,93.0,616,460,60,130.0,580,1,369,254,54,0,0,7,250,250,93,-5.59,,,,,,,,,,,,
267924,1564213410398,5,2.31,1.11,0.64,1.4,1.19,0.7,0.09,0.58,1,3,-2,0.71,5924,15,77,32,54,769,93.0,613,465,60,131.0,580,1,377,256,54,0,0,7,250,250,93,-5.59,,,,,,,,,,,,
267944,1564213410418,6,2.31,1.11,0.64,1.39,1.19,0.61,0.11,0.61,1,4,-2,0.62,5998,15,77,32,53,767,93.0,615,460,60,132.0,623,1,379,173,58,0,0,7,250,250,93,-5.59,44.680759,10.020585,0.0,173.7,0,0.0,-1,0.0,0.0,0,0.01,4.4657
267964,1564213410438,7,2.3,1.12,0.64,1.4,1.19,0.52,0.12,0.63,1,5,-2,0.54,6081,15,77,32,52,767,93.0,618,464,60,131.0,623,1,377,246,58,0,0,7,250,250,93,-5.59,,,,,,,,,,,,
267984,1564213410458,7,2.3,1.11,0.64,1.4,1.18,0.48,0.16,0.62,2,7,-2,0.5,6123,15,77,32,51,768,0.0,619,462,60,132.0,623,1,374,240,58,0,0,7,250,250,0,-5.59,,,,,,,,,,,,
268004,1564213410478,4,2.3,1.11,0.64,1.4,1.19,0.48,0.2,0.6,2,8,-2,0.52,6198,15,77,32,50,767,0.0,618,462,60,131.0,623,1,371,157,58,0,0,7,250,250,0,-5.59,,,,,,,,,,,,
268024,1564213410498,4,2.3,1.12,0.64,1.4,1.19,0.56,0.23,0.52,1,9,-2,0.61,6229,15,77,32,50,766,0.0,621,466,60,130.0,623,1,371,235,58,0,0,7,250,250,0,-5.59,,,,,,,,,,,,
268044,1564213410518,3,2.3,1.12,0.64,1.39,1.18,0.7,0.22,0.45,1,7,-1,0.73,6262,15,77,32,50,764,0.0,618,463,60,130.0,0,1,371,157,55,0,0,7,250,250,0,-5.59,44.680759,10.020585,0.0,173.7,0,0.0,-1,0.0,0.0,0,0.01,4.4674
268064,1564213410538,4,2.31,1.12,0.64,1.39,1.19,0.76,0.13,0.47,1,3,-1,0.77,6332,14,77,32,49,763,0.0,619,462,60,129.0,0,1,369,230,55,0,0,7,250,250,0,-5.59,,,,,,,,,,,,
268084,1564213410558,6,2.31,1.11,0.64,1.4,1.18,0.7,0.11,0.51,1,1,-1,0.71,6345,14,77,32,48,763,0.0,615,460,60,131.0,0,1,366,146,55,0,0,7,250,250,0,-5.59,,,,,,,,,,,,
268104,1564213410578,4,2.3,1.12,0.64,1.39,1.19,0.66,0.13,0.5,1,2,-2,0.67,6392,14,77,32,48,762,0.0,617,461,60,131.0,0,1,366,146,55,0,0,7,250,250,0,-5.59,,,,,,,,,,,,
268124,1564213410596,3,2.3,1.12,0.64,1.4,1.18,0.7,0.16,0.44,1,3,-3,0.72,6405,14,77,32,48,761,0.0,623,463,60,130.0,0,1,367,147,55,0,0,7,250,250,0,-5.59,,,,,,,,,,,,
268144,1564213410616,6,2.31,1.12,0.64,1.39,1.19,0.76,0.11,0.39,0,1,-2,0.77,6423,14,77,32,47,762,0.0,637,462,60,129.0,0,1,364,142,54,0,0,7,250,250,0,-5.59,44.680759,10.020585,0.0,173.7,0,0.0,-1,0.0,0.0,0,0.01,4.4691
268164,1564213410636,7,2.31,1.12,0.64,1.39,1.19,0.72,0.09,0.46,0,0,-2,0.72,6436,14,77,32,47,765,0.0,628,461,60,130.0,0,1,364,142,54,0,0,7,250,250,0,-5.59,,,,,,,,,,,,
268184,1564213410656,3,2.31,1.11,0.64,1.4,1.18,0.75,0.11,0.51,0,0,-3,0.76,6467,14,77,32,46,768,0.0,619,463,60,131.0,0,1,357,218,54,0,0,7,250,250,0,-5.59,,,,,,,,,,,,
268204,1564213410676,6,2.3,1.12,0.64,1.4,1.19,0.79,0.04,0.51,0,-1,-3,0.8,6499,14,77,32,46,769,0.0,632,463,60,130.0,0,1,357,220,54,0,0,7,250,250,0,-5.59,,,,,,,,,,,,
268224,1564213410698,8,2.31,1.12,0.65,1.39,1.19,0.7,0.04,0.52,0,0,-3,0.71,6469,14,77,32,46,773,0.0,631,462,60,131.0,0,1,357,218,54,0,0,7,250,250,0,-5.59,,,,,,,,,,,,
268244,1564213410718,3,2.3,1.12,0.64,1.4,1.18,0.75,0.11,0.55,0,2,-2,0.76,6469,14,77,32,46,777,0.0,626,464,60,131.0,0,1,357,140,53,0,0,7,250,250,0,-5.59,44.680759,10.020585,0.0,173.7,0,0.0,-1,0.0,0.0,0,0.01,4.4707
268264,1564213410738,5,2.3,1.11,0.64,1.4,1.18,0.81,0.05,0.55,-0,0,-1,0.82,6478,14,77,32,46,781,0.0,632,463,60,129.0,0,1,357,140,53,0,0,7,250,250,0,-5.59,,,,,,,,,,,,
268284,1564213410758,7,2.3,1.12,0.64,1.4,1.19,0.72,-0.0,0.6,0,0,-1,0.72,6436,14,77,32,45,783,0.0,626,465,60,132.0,0,1,350,139,53,0,0,7,250,250,0,-5.59,,,,,,,,,,,,
268304,1564213410778,3,2.31,1.11,0.64,1.4,1.18,0.67,0.06,0.61,1,3,-1,0.67,6401,14,77,32,45,785,0.0,622,462,60,130.0,0,1,350,217,53,0,0,7,250,250,0,-5.59,,,,,,,,,,,,
268324,1564213410798,4,2.31,1.11,0.64,1.4,1.18,0.79,0.1,0.54,0,2,-1,0.8,6405,14,77,32,45,789,0.0,623,467,60,130.0,0,1,350,217,53,0,0,7,250,250,0,-5.59,,,,,,,,,,,,
268344,1564213410818,4,2.31,1.12,0.64,1.39,1.19,0.84,0.01,0.54,0,-0,0,0.84,6392,14,77,32,45,792,0.0,621,463,60,129.0,0,1,349,216,53,0,0,7,250,250,0,-5.59,44.680759,10.020585,0.0,173.7,0,0.0,-1,0.0,0.0,0,0.01,4.4724
268364,1564213410838,7,2.3,1.12,0.64,1.39,1.18,0.75,0.01,0.57,0,-1,-0,0.75,6373,14,77,32,45,793,0.0,621,463,60,131.0,0,1,349,138,53,0,0,0,250,250,0,-5.59,,,,,,,,,,,,
268384,1564213410858,3,2.31,1.12,0.63,1.39,1.19,0.71,0.06,0.56,0,1,-2,0.71,6381,14,77,32,45,796,0.0,618,461,60,130.0,0,1,349,216,53,0,0,0,250,250,0,-5.59,,,,,,,,,,,,
268404,1564213410878,3,2.31,1.11,0.64,1.39,1.18,0.78,0.11,0.49,0,2,-2,0.78,6330,14,77,32,45,798,0.0,633,466,60,130.0,0,1,349,138,53,0,0,0,250,250,0,-5.59,,,,,,,,,,,,
268424,1564213410898,4,2.31,1.11,0.64,1.4,1.18,0.84,0.05,0.44,0,0,-1,0.84,6325,14,77,32,45,800,0.0,628,465,60,129.0,0,1,349,216,53,0,0,0,250,250,0,-5.59,,,,,,,,,,,,
268444,1564213410918,7,2.31,1.12,0.65,1.39,1.18,0.82,0.01,0.48,0,-1,-1,0.82,6294,14,77,32,45,802,0.0,628,464,60,128.0,0,1,349,216,52,0,0,0,250,250,0,-5.59,44.680759,10.020585,0.0,173.7,0,0.0,-1,0.0,0.0,0,0.01,4.4741
268464,1564213410938,7,2.31,1.12,0.64,1.39,1.19,0.77,0.03,0.51,0,-1,-1,0.77,6308,14,77,32,45,805,0.0,615,462,60,131.0,0,1,349,138,52,0,0,0,250,250,0,-5.59,,,,,,,,,,,,
268484,1564213410958,4,2.3,1.12,0.64,1.4,1.18,0.78,0.05,0.56,-0,-1,-2,0.78,6247,14,77,32,45,805,0.0,616,465,60,130.0,0,1,349,138,52,0,0,0,250,250,0,-5.59,,,,,,,,,,,,
268504,1564213410978,3,2.31,1.12,0.64,1.41,1.18,0.82,0.06,0.58,-0,-1,-2,0.82,6250,14,77,32,45,805,0.0,618,463,60,130.0,0,1,349,138,52,0,0,0,250,250,0,-5.59,,,,,,,,,,,,
268524,1564213410998,4,2.31,1.12,0.64,1.4,1.18,0.86,-0.0,0.57,-0,-1,-3,0.86,6241,14,77,32,45,806,0.0,625,462,60,129.0,0,1,349,138,52,0,0,0,250,250,0,-5.59,,,,,,,,,,,,
268544,1564213411010,3,2.3,1.12,0.64,1.4,1.18,0.85,-0.09,0.59,-0,-2,-2,0.85,6202,14,77,32,45,806,0.0,622,462,60,129.0,0,1,349,138,51,0,0,0,250,250,0,-5.59,44.680759,10.020585,0.0,173.7,0,0.0,-1,0.0,0.0,0,0.01,4.4757
268564,1564213411030,6,2.31,1.11,0.64,1.39,1.19,0.76,-0.1,0.61,0,-1,-1,0.77,6227,14,77,32,46,806,0.0,622,463,60,129.0,0,1,355,139,51,0,0,0,250,250,0,-5.59,,,,,,,,,,,,
268584,1564213411050,6,2.31,1.11,0.65,1.4,1.19,0.68,-0.03,0.62,0,1,-1,0.68,6177,14,77,32,46,806,0.0,622,459,60,130.0,0,1,354,216,51,0,0,0,250,250,0,-5.59,,,,,,,,,,,,
268604,1564213411070,5,2.31,1.12,0.65,1.39,1.19,0.63,0.04,0.64,1,3,-1,0.63,6186,14,77,32,46,806,0.0,621,461,60,131.0,0,1,354,138,51,0,0,0,250,250,0,-5.59,,,,,,,,,,,,
268624,1564213411097,4,2.3,1.12,0.64,1.4,1.19,0.67,0.09,0.64,1,4,-0,0.68,6186,14,77,32,46,806,0.0,623,462,60,131.0,0,1,354,138,51,0,0,0,250,250,0,-5.59,,,,,,,,,,,,
268644,1564213411117,2,2.3,1.11,0.64,1.4,1.18,0.77,0.12,0.64,0,3,0,0.78,6163,14,77,32,46,808,0.0,618,462,60,131.0,0,1,354,216,50,0,0,0,250,250,0,-5.59,44.680759,10.020585,0.0,173.7,0,0.0,-1,0.0,0.0,0,0.01,4.4774
268664,1564213411137,4,2.3,1.11,0.64,1.4,1.19,0.87,0.13,0.61,-0,2,1,0.88,6175,14,77,32,46,808,0.0,624,465,60,130.0,0,1,354,138,50,0,0,0,250,250,0,-5.59,,,,,,,,,,,,
268684,1564213411157,4,2.3,1.11,0.64,1.4,1.19,0.93,0.08,0.56,-0,-0,2,0.94,6131,14,77,32,46,809,0.0,625,465,60,130.0,0,1,354,138,50,0,0,0,250,250,0,-5.59,,,,,,,,,,,,
268704,1564213411177,4,2.3,1.11,0.65,1.39,1.19,0.95,-0.02,0.56,-1,-2,2,0.95,6151,14,77,32,46,811,0.0,630,465,60,129.0,0,1,354,138,50,0,0,0,250,250,0,-5.59,,,,,,,,,,,,
268724,1564213411197,4,2.3,1.12,0.64,1.4,1.18,0.92,-0.11,0.57,-1,-3,3,0.93,6141,14,77,32,46,812,0.0,629,466,60,130.0,0,1,354,138,50,0,0,0,250,250,0,-5.59,,,,,,,,,,,,
268744,1564213411217,4,2.3,1.12,0.64,1.39,1.19,0.84,-0.15,0.6,-0,-3,3,0.85,6123,14,77,32,46,814,0.0,620,463,60,129.0,0,1,354,216,50,0,0,0,250,250,0,-5.59,44.680759,10.020585,0.0,173.7,0,0.0,-1,0.0,0.0,0,0.01,4.4791
268764,1564213411237,6,2.3,1.11,0.64,1.4,1.19,0.74,-0.12,0.61,0,-1,3,0.75,6137,14,77,32,46,816,0.0,623,463,60,128.0,0,1,354,138,50,0,0,0,250,250,0,-5.59,,,,,,,,,,,,
268784,1564213411257,6,2.3,1.11,0.65,1.4,1.18,0.63,-0.05,0.61,1,1,3,0.64,6101,14,77,32,46,816,0.0,622,463,60,131.0,0,1,354,138,50,0,0,0,250,250,0,-5.59,,,,,,,,,,,,
268804,1564213411277,6,2.31,1.11,0.64,1.4,1.19,0.54,0.03,0.61,1,4,3,0.55,6127,14,77,32,46,815,0.0,621,461,60,130.0,0,1,354,216,50,0,0,0,250,250,0,-5.59,,,,,,,,,,,,
268824,1564213411297,8,2.3,1.12,0.64,1.4,1.18,0.51,0.11,0.6,1,6,1,0.52,6073,14,77,32,46,813,0.0,613,462,60,131.0,0,1,353,216,50,0,0,0,250,250,0,-5.59,,,,,,,,,,,,
268844,1564213411317,4,2.3,1.11,0.64,1.39,1.19,0.53,0.15,0.57,1,8,1,0.55,6111,14,77,32,46,810,0.0,615,461,60,131.0,0,1,354,138,49,0,0,0,250,250,0,-5.59,44.680759,10.020585,0.0,173.7,0,0.0,-1,0.0,0.0,0,0.01,4.4807
268864,1564213411337,2,2.3,1.11,0.64,1.39,1.19,0.6,0.18,0.53,1,8,1,0.63,6075,14,77,32,46,808,0.0,613,462,60,132.0,0,1,353,216,49,0,0,0,250,250,0,-5.59,,,,,,,,,,,,
268884,1564213411357,4,2.3,1.11,0.64,1.39,1.19,0.7,0.18,0.49,1,8,0,0.73,6085,14,77,32,46,805,0.0,613,465,60,130.0,0,1,353,138,49,0,0,0,250,250,0,-5.59,,,,,,,,,,,,
268904,1564213411377,3,2.29,1.11,0.64,1.4,1.19,0.83,0.18,0.45,0,7,0,0.85,6073,13,77,32,46,802,0.0,618,465,60,130.0,0,1,353,138,49,0,0,0,250,250,0,-5.59,,,,,,,,,,,,
268924,1564213411397,4,2.3,1.12,0.64,1.39,1.18,0.95,0.17,0.42,-0,4,0,0.97,6091,14,77,32,46,799,0.0,619,465,60,129.0,0,1,354,216,49,0,0,0,250,250,0,-5.59,,,,,,,,,,,,
268944,1564213411417,2,2.3,1.11,0.64,1.39,1.19,1.06,0.15,0.4,-0,1,1,1.07,6054,13,77,32,46,798,0.0,616,464,60,131.0,0,1,353,216,50,0,0,0,250,250,0,-5.59,44.680759,10.020585,0.0,173.7,0,0.0,-1,0.0,0.0,0,0.01,4.4824
268964,1564213411437,2,2.31,1.11,0.64,1.4,1.18,1.15,0.11,0.38,-1,-2,1,1.15,6111,13,77,32,46,797,0.0,618,465,60,130.0,0,1,354,138,50,0,0,0,250,250,0,-5.59,,,,,,,,,,,,
268984,1564213411457,5,2.3,1.12,0.64,1.4,1.18,1.2,0.06,0.38,-1,-5,0,1.2,6097,13,77,32,46,797,0.0,616,462,60,128.0,0,1,353,216,50,0,0,0,250,250,0,-5.59,,,,,,,,,,,,
269004,1564213411477,3,2.3,1.12,0.64,1.39,1.18,1.21,-0.0,0.41,-1,-8,0,1.21,6101,13,77,32,46,797,0.0,620,465,60,129.0,0,1,354,138,50,0,0,0,250,250,0,-5.59,,,,,,,,,,,,
269024,1564213411497,4,2.31,1.11,0.64,1.39,1.18,1.16,-0.04,0.45,-1,-9,0,1.16,6113,14,77,32,46,798,0.0,621,462,60,130.0,0,1,354,138,50,0,0,0,250,250,0,-5.59,,,,,,,,,,,,
269044,1564213411517,5,2.3,1.11,0.64,1.4,1.18,1.07,-0.05,0.49,-0,-10,-0,1.07,6095,13,77,32,46,798,0.0,612,460,60,130.0,0,1,353,216,50,0,0,0,250,250,0,-5.59,44.680759,10.020585,0.0,173.7,0,0.0,-1,0.0,0.0,0,0.01,4.4841
269064,1564213411537,4,2.31,1.11,0.64,1.39,1.19,0.94,-0.03,0.51,-0,-10,-1,0.94,6073,13,77,32,46,799,0.0,616,462,60,129.0,0,1,353,138,50,0,0,0,250,250,0,-5.59,,,,,,,,,,,,
269084,1564213411557,7,2.3,1.11,0.64,1.39,1.19,0.81,0.0,0.52,-0,-8,-1,0.81,6069,13,77,32,46,799,0.0,616,462,60,129.0,0,1,353,138,50,0,0,0,250,250,0,-5.59,,,,,,,,,,,,
269104,1564213411577,7,2.3,1.12,0.64,1.4,1.19,0.68,0.05,0.52,0,-7,-2,0.68,6105,13,77,32,46,799,0.0,618,463,60,130.0,0,1,354,138,50,0,0,0,250,250,0,-5.59,,,,,,,,,,,,
269124,1564213411599,8,2.3,1.12,0.64,1.4,1.18,0.57,0.09,0.52,0,-4,-3,0.57,6085,13,77,32,46,799,0.0,616,463,60,131.0,0,1,353,138,50,0,0,0,250,250,0,-5.59,,,,,,,,,,,,
269144,1564213411619,5,2.3,1.12,0.64,1.39,1.19,0.5,0.12,0.52,0,-2,-4,0.51,6135,14,77,32,46,799,0.0,614,462,60,131.0,0,1,354,216,49,0,0,0,250,250,0,-5.59,44.680759,10.020585,0.0,173.7,0,0.0,-1,0.0,0.0,0,0.01,4.4857
269164,1564213411639,3,2.31,1.12,0.64,1.4,1.18,0.49,0.12,0.53,0,-1,-5,0.5,6133,13,77,32,46,798,0.0,613,462,60,130.0,0,1,354,138,49,0,0,0,250,250,0,-5.59,,,,,,,,,,,,
269184,1564213411659,4,2.3,1.11,0.64,1.39,1.18,0.54,0.13,0.5,-0,1,-5,0.56,6186,14,77,32,46,797,0.0,615,462,60,131.0,0,1,354,216,49,0,0,0,250,250,0,-5.59,,,,,,,,,,,,
269204,1564213411679,1,2.31,1.11,0.64,1.39,1.19,0.65,0.15,0.47,-0,0,-5,0.67,6184,14,77,32,46,796,0.0,625,465,60,130.0,0,1,354,138,49,0,0,0,250,250,0,-5.59,,,,,,,,,,,,
269224,1564213411699,5,2.3,1.11,0.64,1.39,1.19,0.76,0.13,0.43,-0,-1,-5,0.77,6214,14,77,32,46,796,0.0,630,462,60,130.0,0,1,355,139,49,0,0,0,250,250,0,-5.59,,,,,,,,,,,,
269244,1564213411719,4,2.3,1.12,0.64,1.4,1.18,0.8,0.06,0.44,-0,-2,-4,0.8,6218,14,77,32,46,797,0.0,627,465,60,130.0,0,1,355,217,51,0,0,0,250,250,0,-5.59,44.680759,10.020585,0.0,173.7,0,0.0,-1,0.0,0.0,0,0.01,4.4874
269264,1564213411739,5,2.31,1.11,0.64,1.39,1.19,0.76,0.04,0.49,-0,-3,-4,0.77,6241,14,77,32,46,797,0.0,625,462,60,130.0,0,1,355,139,51,0,0,0,250,250,0,-5.59,,,,,,,,,,,,
269284,1564213411759,7,2.3,1.12,0.64,1.4,1.19,0.71,0.08,0.53,-0,-2,-3,0.71,6266,14,77,32,46,798,0.0,619,462,60,131.0,0,1,355,139,51,0,0,0,250,250,0,-5.59,,,,,,,,,,,,
269304,1564213411779,4,2.3,1.11,0.64,1.39,1.19,0.73,0.08,0.57,-1,-2,-4,0.73,6291,14,77,32,46,798,0.0,622,462,60,130.0,0,1,355,139,51,0,0,0,250,250,0,-5.59,,,,,,,,,,,,
269324,1564213411797,4,2.31,1.11,0.63,1.4,1.19,0.8,0.08,0.59,-1,-3,-4,0.8,6321,14,77,32,46,799,0.0,624,464,60,130.0,0,1,356,139,51,0,0,0,250,250,0,-5.59,,,,,,,,,,,,
269344,1564213411817,3,2.3,1.12,0.64,1.39,1.18,0.81,-0.01,0.61,-0,-3,-3,0.81,6353,15,77,32,46,799,0.0,623,464,60,129.0,0,1,356,139,52,0,0,0,250,250,0,-5.59,44.680759,10.020585,0.0,173.7,0,0.0,-1,0.0,0.0,0,0.01,4.4891
269364,1564213411837,7,2.3,1.12,0.64,1.4,1.19,0.72,-0.02,0.65,-0,-1,-3,0.72,6384,15,77,32,46,800,0.0,621,463,60,130.0,0,1,356,139,52,0,0,0,250,250,0,-5.59,,,,,,,,,,,,
269384,1564213411857,3,2.3,1.11,0.64,1.39,1.18,0.71,0.05,0.66,-0,-0,-2,0.71,6401,16,77,32,46,801,0.0,617,461,60,131.0,0,1,357,218,52,0,0,0,250,250,0,-5.59,,,,,,,,,,,,
269404,1564213411877,2,2.31,1.11,0.64,1.39,1.19,0.81,0.07,0.64,-0,-1,-1,0.81,6449,16,77,32,46,802,0.0,632,466,60,130.0,0,1,357,218,52,0,0,0,250,250,0,-5.59,,,,,,,,,,,,
269424,1564213411899,6,2.3,1.11,0.64,1.39,1.19,0.79,-0.02,0.65,-0,-1,-0,0.79,6425,17,77,32,46,805,0.0,629,462,60,130.0,0,1,357,220,52,0,0,0,250,250,0,-5.59,,,,,,,,,,,,
269444,1564213411919,3,2.3,1.11,0.64,1.39,1.19,0.69,-0.0,0.69,0,1,-1,0.69,6452,19,77,32,47,808,0.0,625,462,60,130.0,0,1,364,220,53,0,0,0,250,250,0,-5.59,44.680759,10.020585,0.0,173.7,0,0.0,-1,0.0,0.0,0,0.01,4.4907
269464,1564213411939,3,2.3,1.11,0.64,1.39,1.19,0.74,0.08,0.66,0,1,-0,0.75,6499,20,77,32,47,813,0.0,623,463,60,131.0,0,1,364,220,53,0,0,0,250,250,0,-5.59,,,,,,,,,,,,
269484,1564213411959,5,2.3,1.11,0.64,1.4,1.19,0.83,0.02,0.62,0,-1,1,0.83,6560,22,77,32,48,818,0.0,631,465,60,130.0,0,1,368,225,53,0,0,0,250,250,0,-5.59,,,,,,,,,,,,
269504,1564213411979,1,2.3,1.11,0.64,1.4,1.18,0.73,0.01,0.63,0,0,-1,0.73,6599,24,77,32,49,821,0.0,624,460,60,131.0,0,1,371,230,53,0,0,0,250,250,0,-5.59,,,,,,,,,,,,
269524,1564213411991,5,2.3,1.11,0.64,1.39,1.18,0.8,0.07,0.55,0,0,-1,0.8,6658,28,77,32,51,824,0.0,634,464,60,129.0,0,1,378,164,53,0,0,0,250,250,0,-5.59,,,,,,,,,,,,
269544,1564213412011,3,2.3,1.11,0.64,1.39,1.19,0.77,0.04,0.55,0,0,-1,0.77,6718,31,77,32,54,830,0.0,628,466,60,131.0,0,1,388,180,62,0,0,0,250,250,0,-5.59,44.680759,10.020585,0.0,173.7,0,0.0,-1,0.0,0.0,0,0.01,4.4924
269564,1564213412031,6,2.3,1.11,0.64,1.39,1.19,0.81,0.04,0.54,-0,-1,-2,0.81,6830,35,77,32,56,836,0.0,627,466,60,131.0,0,1,396,266,62,0,0,0,250,250,0,-5.59,,,,,,,,,,,,
269584,1564213412051,2,2.3,1.11,0.63,1.4,1.18,0.76,0.02,0.56,-0,0,-2,0.76,6952,37,77,32,59,841,0.0,636,461,60,131.0,0,1,411,283,62,0,0,0,250,250,0,-5.59,,,,,,,,,,,,
269604,1564213412071,2,2.31,1.11,0.64,1.39,1.19,0.82,-0.05,0.59,-0,-1,-1,0.82,7088,40,77,32,61,845,0.0,631,461,60,131.0,0,1,426,220,62,0,0,0,250,250,0,-5.59,,,,,,,,,,,,
269624,1564213412096,8,2.3,1.11,0.64,1.39,1.19,0.78,0.03,0.53,-1,-1,-0,0.78,7298,42,77,32,64,855,0.0,640,460,60,129.0,0,1,422,238,62,0,0,0,250,250,0,-5.59,,,,,,,,,,,,
269644,1564213412116,6,2.3,1.12,0.64,1.4,1.18,0.68,0.07,0.51,-0,0,-2,0.68,7467,44,77,32,66,870,0.0,643,464,60,130.0,0,1,424,332,87,0,0,0,250,250,0,-5.59,44.680759,10.020585,0.0,173.7,0,0.0,-1,0.0,0.0,0,0.01,4.4941
269664,1564213412136,6,2.3,1.11,0.64,1.39,1.18,0.63,0.05,0.46,0,1,-2,0.63,7697,47,77,32,67,882,0.0,648,465,60,129.0,0,1,434,346,87,0,0,0,250,250,0,-5.59,,,,,,,,,,,,
269684,1564213412156,1,2.3,1.11,0.64,1.39,1.19,0.65,0.01,0.46,0,0,-0,0.65,7904,51,77,32,68,892,0.0,645,459,60,130.0,0,1,444,286,87,0,0,0,250,250,0,-5.59,,,,,,,,,,,,
269704,1564213412176,6,2.29,1.12,0.64,1.4,1.19,0.64,-0.0,0.5,0,0,-0,0.64,8223,55,77,32,68,911,0.0,648,462,60,131.0,0,1,442,295,87,0,0,0,250,250,0,-5.59,,,,,,,,,,,,
269724,1564213412198,3,2.3,1.11,0.65,1.4,1.18,0.73,0.02,0.49,0,-1,-2,0.73,8616,59,77,32,68,939,0.0,671,466,60,131.0,0,1,428,303,87,0,0,0,250,250,0,-5.59,,,,,,,,,,,,
269744,1564213412218,6,2.3,1.12,0.64,1.4,1.18,0.77,-0.02,0.46,-0,-2,-1,0.77,8924,62,77,32,67,963,0.0,662,465,60,130.0,0,1,414,298,124,0,0,0,250,250,0,-5.59,44.680759,10.020585,0.0,173.7,0,0.0,-1,0.0,0.0,0,0.01,4.4957
269764,1564213412238,5,2.3,1.11,0.64,1.39,1.18,0.9,-0.01,0.44,-1,-2,-1,0.9,9272,64,77,32,67,980,0.0,667,460,60,129.0,0,1,412,375,124,0,0,0,250,250,0,-5.59,,,,,,,,,,,,
269784,1564213412258,7,2.29,1.11,0.64,1.4,1.18,0.99,0.04,0.44,-1,-4,-1,0.99,9650,66,77,32,67,1001,0.0,678,467,60,130.0,0,1,411,389,124,0,0,0,250,250,0,-5.59,,,,,,,,,,,,
269804,1564213412278,7,2.3,1.11,0.64,1.4,1.18,0.98,0.03,0.39,-1,-2,-1,0.98,9957,68,77,32,67,1027,0.0,688,462,60,129.0,0,1,399,345,124,0,0,0,250,250,0,-5.59,,,,,,,,,,,,
269824,1564213412298,7,2.3,1.11,0.64,1.39,1.19,1.08,-0.04,0.46,-1,-3,-1,1.08,10399,70,77,32,67,1049,0.0,691,462,60,128.0,0,1,435,437,124,0,0,0,250,250,0,-5.59,,,,,,,,,,,,
269844,1564213412318,7,2.3,1.11,0.63,1.39,1.18,1.15,-0.09,0.51,-1,-4,-2,1.15,10757,72,77,32,69,1059,0.0,697,465,60,128.0,0,1,445,456,173,0,0,0,250,250,0,-5.59,44.680759,10.020585,0.0,173.7,0,0.0,-1,0.0,0.0,0,0.01,4.4974
269864,1564213412338,6,2.3,1.11,0.64,1.4,1.18,1.1,0.09,0.51,-1,-3,-1,1.11,11147,73,77,32,70,1068,0.0,698,470,60,128.0,0,1,447,461,173,0,0,0,250,250,0,-5.59,,,,,,,,,,,,
269884,1564213412358,7,2.29,1.11,0.64,1.4,1.19,1.11,-0.11,0.61,-1,-3,-2,1.12,11474,76,77,32,71,1081,0.0,703,463,60,130.0,0,1,440,390,173,0,0,0,250,250,0,-5.59,,,,,,,,,,,,
269904,1564213412378,6,2.3,1.12,0.64,1.4,1.18,1.11,-0.2,0.63,-1,-6,-1,1.13,12034,79,77,32,72,1091,0.0,723,467,60,129.0,0,1,440,395,173,0,0,0,250,250,0,-5.59,,,,,,,,,,,,
269924,1564213412398,4,2.3,1.11,0.64,1.4,1.18,1.07,-0.36,0.7,-1,-7,-0,1.13,12441,81,77,32,74,1094,0.0,725,462,60,129.0,0,1,440,485,173,0,0,0,250,250,0,-5.59,,,,,,,,,,,,
269944,1564213412418,2,2.3,1.11,0.64,1.4,1.18,1.06,-0.34,0.7,-1,-6,0,1.11,12833,85,77,32,76,1092,0.0,720,467,60,128.0,0,1,440,504,231,0,0,0,250,250,0,-5.59,44.680759,10.020585,0.0,173.7,0,0.0,-1,0.0,0.0,0,0.01,4.4991
269964,1564213412438,2,2.3,1.11,0.64,1.39,1.18,1.02,-0.35,0.74,-1,-7,-0,1.08,12763,87,77,32,77,1077,0.0,719,463,60,132.0,0,1,440,435,231,0,0,0,250,250,0,-5.59,,,,,,,,,,,,
269984,1564213412458,3,2.29,1.11,0.64,1.39,1.18,0.99,-0.24,0.79,-1,-6,-0,1.02,12500,89,77,32,80,1063,0.0,714,462,60,131.0,0,1,440,458,231,0,0,0,250,250,0,-5.59,,,,,,,,,,,,
270004,1564213412478,2,2.31,1.12,0.64,1.39,1.19,0.99,-0.2,0.68,-0,-6,0,1.01,12246,89,77,32,81,1045,0.0,712,465,60,131.0,0,1,440,541,231,0,0,0,250,250,0,-5.59,,,,,,,,,,,,
270024,1564213412498,2,2.31,1.12,0.64,1.4,1.18,0.99,-0.22,0.53,-0,-6,0,1.01,11988,90,77,32,82,1027,0.0,703,461,60,131.0,0,1,440,474,231,0,0,0,250,250,0,-5.59,,,,,,,,,,,,
270044,1564213412518,7,2.3,1.11,0.64,1.39,1.19,0.95,-0.14,0.39,-0,-6,1,0.96,11726,90,77,32,83,1006,0.0,701,462,60,131.0,0,1,440,476,247,0,0,0,250,250,0,-5.59,44.680759,10.020585,0.0,173.7,0,0.0,-1,0.0,0.0,0,0.01,4.5007
270064,1564213412538,6,2.3,1.12,0.64,1.4,1.18,0.9,0.05,0.41,0,-5,1,0.9,11474,90,77,32,84,984,0.0,714,463,60,127.0,0,1,441,956,247,0,0,0,250,250,0,-5.59,,,,,,,,,,,,
270084,1564213412558,7,2.3,1.12,0.64,1.4,1.18,0.93,-0.15,0.53,-0,-6,0,0.95,11674,90,77,32,84,980,0.0,721,469,60,127.0,0,1,440,493,247,0,0,0,250,250,0,-5.59,,,,,,,,,,,,
270104,1564213412578,7,2.3,1.12,0.64,1.4,1.18,0.96,-0.28,0.66,-1,-7,-0,1.0,11867,91,77,32,83,975,0.0,716,468,60,126.0,0,1,440,481,247,0,0,0,250,250,0,-5.59,,,,,,,,,,,,
270124,1564213412598,6,2.3,1.11,0.64,1.4,1.18,0.96,-0.34,0.73,-1,-8,-1,1.02,12128,91,77,32,82,1055,0.0,712,469,60,127.0,0,1,440,475,247,0,0,0,250,250,0,-5.59,,,,,,,,,,,,
270144,1564213412618,6,2.29,1.11,0.64,1.4,1.18,0.9,-0.28,0.83,-1,-7,-1,0.95,12600,91,77,32,82,1136,0.0,721,471,60,128.0,0,1,440,555,291,0,0,0,250,250,0,-5.59,44.680759,10.020585,0.0,173.7,0,0.0,-1,0.0,0.0,0,0.01,4.5024
270164,1564213412638,5,2.3,1.12,0.64,1.4,1.18,0.98,-0.38,0.74,-1,-9,-1,1.05,12993,91,77,32,81,1219,0.0,728,468,60,127.0,0,1,440,469,291,0,0,0,250,250,0,-5.59,,,,,,,,,,,,
270184,1564213412658,5,2.31,1.11,0.64,1.4,1.18,0.9,-0.35,0.69,-0,-9,-1,0.97,13479,91,77,32,81,1303,0.0,732,464,60,127.0,0,1,440,469,291,0,0,0,250,250,0,-5.59,,,,,,,,,,,,
270204,1564213412678,3,2.3,1.12,0.64,1.4,1.19,0.91,-0.26,0.6,-0,-9,-0,0.95,13858,91,77,32,81,1282,0.0,735,462,60,128.0,0,1,440,544,291,0,0,0,250,250,0,-5.59,,,,,,,,,,,,
270224,1564213412698,4,2.3,1.12,0.64,1.39,1.18,0.81,-0.21,0.57,-0,-8,1,0.84,14034,91,77,32,81,1258,0.0,737,463,60,130.0,0,1,440,469,291,0,0,0,250,250,0,-5.59,,,,,,,,,,,,
270244,1564213412718,8,2.3,1.11,0.64,1.4,1.18,0.81,-0.11,0.59,0,-8,0,0.82,13919,91,77,32,82,1170,0.0,739,463,60,128.0,0,1,440,477,289,0,0,0,250,250,0,-5.59,44.680759,10.020585,0.0,173.7,0,0.0,-1,0.0,0.0,0,0.01,4.5041
270264,1564213412738,5,2.3,1.11,0.64,1.4,1.18,0.81,0.0,0.52,0,-7,2,0.81,13888,91,77,32,83,1060,0.0,729,460,60,129.0,0,1,440,485,289,0,0,0,250,250,0,-5.59,,,,,,,,,,,,
270284,1564213412758,3,2.31,1.12,0.64,1.4,1.18,0.73,0.02,0.47,0,-7,2,0.73,14034,91,77,32,82,950,0.0,736,476,60,128.0,0,1,440,552,289,0,0,0,250,250,0,-5.59,,,,,,,,,,,,
270304,1564213412778,6,2.31,1.11,0.64,1.39,1.18,0.72,0.07,0.49,1,-5,2,0.72,14034,91,77,32,81,840,0.0,738,471,60,129.0,0,1,440,469,289,0,0,0,250,250,0,-5.59,,,,,,,,,,,,
270324,1564213412798,3,2.3,1.11,0.64,1.4,1.18,0.73,0.16,0.45,1,-4,3,0.75,13919,91,77,32,82,811,0.0,732,467,60,130.0,0,1,440,552,289,0,0,0,250,250,0,-5.59,,,,,,,,,,,,
270344,1564213412818,2,2.31,1.11,0.64,1.4,1.18,0.67,0.19,0.39,1,-4,3,0.69,14055,91,77,32,82,811,0.0,739,473,60,130.0,0,1,440,552,293,0,0,0,250,250,0,-5.59,44.680759,10.020585,0.0,173.7,0,0.0,-1,0.0,0.0,0,0.01,4.5057
270364,1564213412838,4,2.31,1.11,0.64,1.39,1.19,0.65,0.24,0.36,1,-3,3,0.69,14140,92,77,32,81,830,0.0,750,470,60,129.0,0,1,440,544,293,0,0,0,250,250,0,-5.59,,,,,,,,,,,,
270384,1564213412858,3,2.31,1.11,0.64,1.4,1.18,0.65,0.25,0.31,1,-3,3,0.7,14034,92,77,33,82,855,0.0,737,457,60,130.0,0,1,440,552,293,0,0,0,250,250,0,-5.59,,,,,,,,,,,,
270404,1564213412878,0,2.32,1.11,0.64,1.39,1.19,0.59,0.25,0.34,1,-3,2,0.64,13858,92,77,33,82,882,0.0,726,467,60,131.0,0,1,440,477,293,0,0,0,250,250,0,-5.59,,,,,,,,,,,,
270424,1564213412898,8,2.32,1.11,0.64,1.4,1.18,0.63,0.3,0.32,1,-3,3,0.7,13868,92,77,33,83,908,0.0,737,463,60,128.0,0,1,440,560,293,0,0,0,250,250,0,-5.59,,,,,,,,,,,,
270444,1564213412918,1,2.31,1.11,0.64,1.39,1.19,0.63,0.45,0.31,1,-0,4,0.77,13868,93,77,33,82,943,0.0,740,454,60,128.0,0,1,440,552,294,0,0,0,250,250,0,-5.59,44.680759,10.020585,0.0,173.7,0,0.0,-1,0.0,0.0,0,0.01,4.5074
270464,1564213412938,1,2.31,1.11,0.64,1.4,1.18,0.64,0.45,0.31,1,-1,3,0.78,13696,93,77,33,82,987,0.0,727,457,60,132.0,0,1,440,552,294,0,0,0,250,250,0,-5.59,,,,,,,,,,,,
270484,1564213412958,1,2.31,1.12,0.64,1.4,1.18,0.75,0.32,0.3,1,-2,3,0.81,13345,93,77,33,81,1016,0.0,716,464,60,132.0,0,1,440,469,294,0,0,0,250,250,0,-5.59,,,,,,,,,,,,
270504,1564213412978,1,2.31,1.11,0.64,1.4,1.17,0.64,0.42,0.29,1,-0,3,0.77,13084,93,77,33,81,1033,0.0,718,456,60,131.0,0,1,440,544,294,0,0,0,250,250,0,-5.59,,,,,,,,,,,,
270524,1564213412998,1,2.31,1.11,0.64,1.4,1.18,0.72,0.31,0.37,1,2,1,0.79,12755,93,77,33,81,1070,0.0,722,455,60,131.0,0,1,440,543,294,0,0,0,250,250,0,-5.59,,,,,,,,,,,,
270544,1564213413010,6,2.3,1.12,0.64,1.4,1.17,0.73,0.48,0.26,1,3,2,0.88,12500,93,77,33,81,1127,0.0,714,456,60,131.0,0,1,440,542,261,0,0,0,250,250,0,-5.59,44.680759,10.020585,0.0,173.7,0,0.0,-1,0.0,0.0,0,0.01,4.5091
270564,1564213413030,7,2.31,1.12,0.64,1.4,1.18,0.74,0.5,0.23,1,2,3,0.89,12238,93,77,33,83,1175,0.0,705,460,60,128.0,0,1,440,485,261,0,0,0,250,250,0,-5.59,,,,,,,,,,,,
270584,1564213413050,5,2.31,1.12,0.64,1.4,1.18,0.78,0.33,0.28,1,1,3,0.85,12384,93,76,33,83,1213,0.0,725,466,60,127.0,0,1,440,485,261,0,0,0,250,250,0,-5.59,,,,,,,,,,,,
270604,1564213413070,5,2.32,1.11,0.64,1.4,1.19,0.78,0.22,0.4,1,2,3,0.81,12600,93,76,33,83,1263,0.0,726,467,60,127.0,0,1,440,761,261,0,0,0,250,250,0,-5.59,,,,,,,,,,,,
270624,1564213413096,5,2.3,1.12,0.64,1.4,1.18,0.8,0.17,0.33,0,-0,3,0.82,12957,93,76,33,82,1330,0.0,726,472,60,127.0,0,1,440,477,261,0,0,0,250,250,0,-5.59,,,,,,,,,,,,
270644,1564213413116,4,2.31,1.11,0.64,1.39,1.18,0.84,0.1,0.38,0,-1,2,0.85,13402,94,76,33,81,1388,0.0,728,472,60,128.0,0,1,440,553,313,0,0,0,250,250,0,-5.59,44.680759,10.020585,0.0,173.7,0,0.0,-1,0.0,0.0,0,0.01,4.5107
270664,1564213413136,4,2.31,1.12,0.64,1.39,1.18,0.84,0.01,0.37,0,-2,1,0.84,13899,94,76,33,82,1415,0.0,729,464,60,127.0,0,1,440,477,313,0,0,0,250,250,0,-5.59,,,,,,,,,,,,
270684,1564213413156,7,2.32,1.11,0.64,1.4,1.18,0.88,-0.14,0.49,-0,-1,1,0.89,14150,94,77,33,82,1412,0.0,730,463,60,130.0,0,1,440,552,313,0,0,0,250,250,0,-5.59,,,,,,,,,,,,
270704,1564213413176,4,2.31,1.12,0.64,1.39,1.18,0.88,-0.2,0.58,-0,-0,0,0.9,14118,94,77,33,82,1364,0.0,730,465,60,130.0,0,1,440,552,313,0,0,0,250,250,0,-5.59,,,,,,,,,,,,
270724,1564213413197,6,2.3,1.12,0.64,1.4,1.18,0.9,-0.24,0.52,-0,-0,-1,0.93,13950,94,77,33,83,1309,0.0,740,467,60,128.0,0,1,440,560,313,0,0,0,250,250,0,-5.59,,,,,,,,,,,,
270744,1564213413217,6,2.31,1.11,0.64,1.39,1.18,0.9,-0.35,0.59,-1,0,-1,0.97,13919,94,77,33,83,1231,0.0,732,465,60,128.0,0,1,440,485,296,0,0,0,250,250,0,-5.59,44.680759,10.020585,0.0,173.7,0,0.0,-1,0.0,0.0,0,0.01,4.5124
270764,1564213413237,3,2.31,1.11,0.64,1.4,1.18,0.91,-0.36,0.6,-0,0,-2,0.98,13930,94,77,33,83,1148,0.0,740,472,60,130.0,0,1,440,485,296,0,0,0,250,250,0,-5.59,,,,,,,,,,,,
270784,1564213413257,5,2.31,1.11,0.64,1.4,1.17,0.94,-0.39,0.61,-1,-0,-2,1.02,13909,94,77,33,83,1052,0.0,737,468,60,130.0,0,1,440,552,296,0,0,0,250,250,0,-5.59,,,,,,,,,,,,
270804,1564213413277,4,2.3,1.12,0.64,1.4,1.18,0.93,-0.48,0.65,-1,-0,-2,1.05,13982,94,77,33,82,969,0.0,728,465,60,131.0,0,1,440,552,296,0,0,0,250,250,0,-5.59,,,,,,,,,,,,
270824,1564213413297,2,2.31,1.12,0.64,1.39,1.18,0.87,-0.46,0.69,-1,1,-2,0.99,13961,94,77,33,83,951,0.0,738,470,60,128.0,0,1,440,560,296,0,0,0,250,250,0,-5.59,,,,,,,,,,,,
270844,1564213413317,3,2.3,1.12,0.64,1.4,1.18,0.92,-0.51,0.68,-1,0,-3,1.05,14044,94,77,33,82,945,0.0,733,466,60,129.0,0,1,440,552,298,0,0,0,250,250,0,-5.59,44.680759,10.020585,0.0,173.7,0,0.0,-1,0.0,0.0,0,0.01,4.5141
270864,1564213413337,7,2.31,1.11,0.64,1.4,1.18,0.94,-0.62,0.76,-1,0,-3,1.12,14140,94,77,33,82,978,0.0,726,459,60,129.0,0,1,440,552,298,0,0,0,250,250,0,-5.59,,,,,,,,,,,,
270884,1564213413357,4,2.3,1.11,0.64,1.4,1.18,0.94,-0.61,0.83,-1,0,-3,1.12,14097,94,77,33,82,1010,0.0,735,465,60,130.0,0,1,440,552,298,0,0,0,250,250,0,-5.59,,,,,,,,,,,,
270904,1564213413377,2,2.32,1.11,0.64,1.4,1.18,0.94,-0.57,0.72,-1,0,-2,1.1,14044,94,77,33,82,1060,0.0,733,466,60,129.0,0,1,440,552,298,0,0,0,250,250,0,-5.59,,,,,,,,,,,,
270924,1564213413399,7,2.3,1.12,0.64,1.4,1.18,0.95,-0.59,0.8,-1,0,-2,1.12,14076,94,77,33,82,1110,0.0,734,462,60,129.0,0,1,440,552,298,0,0,0,250,250,0,-5.59,,,,,,,,,,,,
270944,1564213413419,1,2.32,1.11,0.64,1.39,1.18,0.98,-0.6,0.84,-1,-0,-3,1.15,14044,94,77,33,82,1120,0.0,734,472,60,129.0,0,1,440,477,295,0,0,0,250,250,0,-5.59,44.680759,10.020585,0.0,173.7,0,0.0,-1,0.0,0.0,0,0.01,4.5157
270964,1564213413439,2,2.31,1.11,0.64,1.4,1.18,0.95,-0.55,0.75,-1,-0,-2,1.09,13817,91,77,33,82,1131,0.0,728,461,60,132.0,0,1,440,552,295,0,0,0,250,250,0,-5.59,,,,,,,,,,,,
270984,1564213413459,4,2.3,1.11,0.64,1.4,1.18,0.95,-0.62,0.77,-1,-0,-2,1.13,13577,86,77,33,81,1094,0.0,719,457,60,131.0,0,1,440,544,295,0,0,0,250,250,0,-5.59,,,,,,,,,,,,
271004,1564213413479,2,2.3,1.11,0.64,1.4,1.17,0.88,-0.55,0.71,-1,-1,-2,1.04,13241,81,77,33,78,1056,0.0,724,468,60,131.0,0,1,440,522,295,0,0,0,250,250,0,-5.59,,,,,,,,,,,,
271024,1564213413499,2,2.31,1.11,0.64,1.39,1.18,0.97,-0.57,0.61,-1,-3,-2,1.12,12966,78,77,33,76,1038,0.0,715,461,60,132.0,0,1,440,431,295,0,0,0,250,250,0,-5.59,,,,,,,,,,,,
271044,1564213413519,6,2.31,1.12,0.64,1.4,1.18,0.86,-0.39,0.7,-1,-1,-2,0.94,12711,76,77,33,74,1021,0.0,711,460,60,131.0,0,1,440,414,244,0,0,0,250,250,0,-5.59,44.680759,10.020585,0.0,173.7,0,0.0,-1,0.0,0.0,0,0.01,4.5174
271064,1564213413539,8,2.31,1.11,0.64,1.4,1.18,0.8,-0.24,0.62,-0,-0,-1,0.83,12450,75,77,33,74,1033,0.0,725,458,60,128.0,0,1,440,410,244,0,0,0,250,250,0,-5.59,,,,,,,,,,,,
271084,1564213413559,6,2.3,1.11,0.63,1.4,1.18,0.84,-0.39,0.55,-0,1,-2,0.92,12384,75,76,33,74,1052,0.0,720,462,60,127.0,0,1,440,409,244,0,0,0,250,250,0,-5.59,,,,,,,,,,,,
271104,1564213413579,7,2.31,1.12,0.64,1.39,1.18,0.85,-0.27,0.58,-0,3,-1,0.9,12668,75,76,33,73,1133,0.0,714,461,60,127.0,0,1,440,649,244,0,0,0,250,250,0,-5.59,,,,,,,,,,,,
271124,1564213413599,6,2.3,1.11,0.64,1.4,1.18,0.83,-0.26,0.44,-0,2,-2,0.87,13011,75,76,33,73,1217,0.0,732,465,60,127.0,0,1,440,572,244,0,0,0,250,250,0,-5.59,,,,,,,,,,,,
271144,1564213413619,5,2.31,1.11,0.64,1.4,1.18,0.87,-0.2,0.45,-1,1,-1,0.89,13307,75,76,33,72,1285,0.0,724,466,60,128.0,0,1,440,403,274,0,0,0,250,250,0,-5.59,44.680759,10.020585,0.0,173.7,0,0.0,-1,0.0,0.0,0,0.01,4.5191
271164,1564213413639,5,2.31,1.11,0.64,1.4,1.18,0.89,-0.21,0.51,-1,0,-1,0.91,13577,75,76,34,72,1348,0.0,728,471,60,127.0,0,1,440,403,274,0,0,0,250,250,0,-5.59,,,,,,,,,,,,
271184,1564213413659,7,2.3,1.12,0.64,1.4,1.18,0.88,-0.25,0.52,-1,-1,-2,0.91,13868,75,76,34,72,1412,0.0,730,463,60,127.0,0,1,440,403,274,0,0,0,250,250,0,-5.59,,,,,,,,,,,,
271204,1564213413679,8,2.31,1.12,0.64,1.41,1.18,0.93,-0.37,0.59,-1,-1,-2,1.01,13982,75,77,34,73,1478,0.0,730,465,60,130.0,0,1,440,485,274,0,0,0,250,250,0,-5.59,,,,,,,,,,,,
271224,1564213413699,4,2.31,1.11,0.64,1.4,1.18,0.92,-0.38,0.64,-1,-1,-2,0.99,14013,75,77,34,73,1498,0.0,739,475,60,129.0,0,1,440,410,274,0,0,0,250,250,0,-5.59,,,,,,,,,,,,
271244,1564213413719,3,2.31,1.11,0.64,1.39,1.18,0.93,-0.43,0.61,-1,-1,-2,1.02,14055,74,77,34,72,1498,0.0,727,465,60,131.0,0,1,440,478,254,0,0,0,250,250,0,-5.59,44.680759,10.020585,0.0,173.7,0,0.0,-1,0.0,0.0,0,0.01,4.5207
271264,1564213413739,6,2.32,1.11,0.64,1.4,1.18,0.96,-0.51,0.63,-1,-0,-2,1.08,13950,74,77,34,73,1424,0.0,731,464,60,131.0,0,1,440,410,254,0,0,0,250,250,0,-5.59,,,,,,,,,,,,
271284,1564213413759,4,2.3,1.11,0.64,1.4,1.18,0.86,-0.48,0.69,-1,1,-3,0.99,13919,74,77,34,72,1323,0.0,739,471,60,131.0,0,1,440,403,254,0,0,0,250,250,0,-5.59,,,,,,,,,,,,
271304,1564213413779,3,2.31,1.11,0.63,1.4,1.18,0.86,-0.36,0.64,-0,2,-2,0.93,13961,74,77,34,73,1223,0.0,729,459,60,130.0,0,1,440,478,254,0,0,0,250,250,0,-5.59,,,,,,,,,,,,
271324,1564213413799,5,2.31,1.11,0.64,1.4,1.18,0.87,-0.31,0.58,-0,1,-2,0.93,13888,74,77,34,73,1122,0.0,733,455,60,129.0,0,1,440,410,254,0,0,0,250,250,0,-5.59,,,,,,,,,,,,
271344,1564213413819,7,2.31,1.11,0.64,1.4,1.18,0.78,-0.28,0.59,0,0,-2,0.83,13961,74,77,34,73,1033,0.0,733,471,60,130.0,0,1,440,485,255,0,0,0,250,250,0,-5.59,44.680759,10.020585,0.0,173.7,0,0.0,-1,0.0,0.0,0,0.01,4.5224
271364,1564213413839,5,2.31,1.11,0.64,1.4,1.17,0.75,-0.2,0.62,0,1,-1,0.78,13982,74,77,34,73,953,0.0,729,467,60,129.0,0,1,440,485,255,0,0,0,250,250,0,-5.59,,,,,,,,,,,,
271384,1564213413859,6,2.31,1.11,0.64,1.4,1.18,0.79,-0.16,0.56,0,-0,-2,0.81,13930,74,77,34,72,921,0.0,729,468,60,130.0,0,1,440,403,255,0,0,0,250,250,0,-5.59,,,,,,,,,,,,
271404,1564213413879,3,2.31,1.11,0.64,1.4,1.18,0.73,-0.12,0.51,0,-1,-2,0.74,13919,74,77,34,72,940,0.0,736,472,60,132.0,0,1,440,403,255,0,0,0,250,250,0,-5.59,,,,,,,,,,,,
271424,1564213413899,7,2.32,1.11,0.64,1.4,1.18,0.72,-0.03,0.51,1,-1,-1,0.72,13940,74,77,34,72,973,0.0,741,463,60,131.0,0,1,440,403,255,0,0,0,250,250,0,-5.59,,,,,,,,,,,,
271444,1564213413919,3,2.31,1.12,0.64,1.4,1.17,0.72,0.13,0.47,1,1,0,0.73,13930,74,77,34,72,1017,0.0,726,463,60,132.0,0,1,440,478,252,0,0,0,250,250,0,-5.59,44.680759,10.020585,0.0,173.7,0,0.0,-1,0.0,0.0,0,0.01,4.5241
271464,1564213413939,3,2.3,1.11,0.64,1.4,1.17,0.71,0.14,0.47,0,-1,0,0.72,13888,74,77,34,72,1055,0.0,734,471,60,131.0,0,1,440,478,252,0,0,0,250,250,0,-5.59,,,,,,,,,,,,
271484,1564213413959,6,2.3,1.11,0.64,1.41,1.18,0.7,0.17,0.42,1,-0,0,0.72,13919,74,77,34,72,1080,0.0,717,457,60,130.0,0,1,440,478,252,0,0,0,250,250,0,-5.59,,,,,,,,,,,,
271504,1564213413979,3,2.3,1.12,0.64,1.39,1.18,0.71,0.35,0.42,1,0,2,0.79,13888,74,77,34,72,1103,0.0,734,455,60,128.0,0,1,440,403,252,0,0,0,250,250,0,-5.59,,,,,,,,,,,,
271524,1564213413991,3,2.31,1.11,0.64,1.4,1.18,0.7,0.33,0.43,1,-0,2,0.78,13971,74,77,34,72,1124,0.0,728,460,60,128.0,0,1,440,403,252,0,0,0,250,250,0,-5.59,,,,,,,,,,,,
271544,1564213414011,7,2.31,1.11,0.64,1.4,1.18,0.77,0.32,0.39,1,-0,1,0.84,13992,74,77,34,72,1139,0.0,736,463,60,130.0,0,1,440,403,256,0,0,0,250,250,0,-5.59,44.680759,10.020585,0.0,173.7,0,0.0,-1,0.0,0.0,0,0.01,4.5257
271564,1564213414031,8,2.31,1.12,0.64,1.39,1.17,0.76,0.44,0.41,1,1,2,0.87,13899,74,77,34,73,1135,0.0,735,457,60,129.0,0,1,440,485,256,0,0,0,250,250,0,-5.59,,,,,,,,,,,,
271584,1564213414051,3,2.3,1.11,0.64,1.4,1.17,0.78,0.4,0.46,1,-2,2,0.88,13919,74,77,34,72,1131,0.0,729,470,60,131.0,0,1,440,478,256,0,0,0,250,250,0,-5.59,,,,,,,,,,,,
271604,1564213414071,5,2.32,1.12,0.64,1.4,1.18,0.89,0.3,0.45,1,-3,1,0.94,13930,74,77,34,72,1127,0.0,732,467,60,129.0,0,1,440,485,256,0,0,0,250,250,0,-5.59,,,,,,,,,,,,
271624,1564213414097,9,2.3,1.11,0.64,1.4,1.17,0.85,0.31,0.4,1,-2,2,0.9,13899,74,77,34,72,1123,0.0,722,466,60,131.0,0,1,440,478,256,0,0,0,250,250,0,-5.59,,,,,,,,,,,,
271644,1564213414117,4,2.32,1.12,0.63,1.4,1.17,0.89,0.22,0.53,0,-3,2,0.92,14013,74,77,34,72,1123,0.0,726,475,60,132.0,0,1,440,478,252,0,0,0,250,250,0,-5.59,44.680759,10.020585,0.0,173.7,0,0.0,-1,0.0,0.0,0,0.01,4.5274
271664,1564213414137,5,2.32,1.12,0.63,1.4,1.18,0.95,0.15,0.56,0,-3,1,0.96,13930,74,76,34,73,1126,0.0,734,463,60,130.0,0,1,440,485,252,0,0,0,250,250,0,-5.59,,,,,,,,,,,,
271684,1564213414157,2,2.31,1.11,0.64,1.4,1.17,0.89,0.12,0.47,0,-1,1,0.9,13878,74,77,34,72,1137,0.0,729,455,60,130.0,0,1,440,403,252,0,0,0,250,250,0,-5.59,,,,,,,,,,,,
271704,1564213414177,3,2.3,1.12,0.64,1.4,1.18,0.92,-0.02,0.54,-0,-1,1,0.92,13736,74,77,34,72,1149,0.0,727,460,60,132.0,0,1,440,403,252,0,0,0,250,250,0,-5.59,,,,,,,,,,,,
271724,1564213414198,3,2.31,1.12,0.63,1.4,1.17,0.84,0.0,0.66,0,-2,1,0.84,13402,74,77,34,72,1162,0.0,728,463,60,132.0,0,1,440,403,252,0,0,0,250,250,0,-5.59,,,,,,,,,,,,
271744,1564213414218,1,2.32,1.11,0.64,1.39,1.18,0.86,-0.03,0.66,1,-2,1,0.86,13139,74,77,34,71,1175,0.0,715,460,60,132.0,0,1,440,472,241,0,0,0,250,250,0,-5.59,44.680759,10.020585,0.0,173.7,0,0.0,-1,0.0,0.0,0,0.01,4.5291
271764,1564213414238,3,2.3,1.12,0.64,1.4,1.18,0.84,-0.08,0.57,0,-2,0,0.84,12807,74,77,34,71,1194,0.0,712,455,60,132.0,0,1,440,471,241,0,0,0,250,250,0,-5.59,,,,,,,,,,,,
271784,1564213414258,2,2.3,1.12,0.64,1.4,1.18,0.89,-0.06,0.61,1,-1,1,0.89,12550,74,77,34,71,1213,0.0,708,455,60,132.0,0,1,440,393,241,0,0,0,250,250,0,-5.59,,,,,,,,,,,,
271804,1564213414278,3,2.31,1.12,0.64,1.39,1.17,0.9,0.15,0.53,1,-2,2,0.91,12295,74,77,34,72,1222,0.0,702,460,60,132.0,0,1,440,397,241,0,0,0,250,250,0,-5.59,,,,,,,,,,,,
271824,1564213414298,2,2.3,1.11,0.64,1.4,1.17,0.88,0.33,0.45,1,-3,4,0.94,12050,74,77,34,72,1228,0.0,701,462,60,132.0,0,1,440,471,241,0,0,0,250,250,0,-5.59,,,,,,,,,,,,
271844,1564213414318,2,2.31,1.12,0.64,1.39,1.18,0.87,0.5,0.36,1,-5,5,1.0,11792,74,77,34,73,1275,0.0,692,459,60,132.0,0,1,440,400,214,0,0,0,250,250,0,-5.59,44.680759,10.020585,0.0,173.7,0,0.0,-1,0.0,0.0,0,0.01,4.5307
271864,1564213414338,3,2.31,1.11,0.63,1.4,1.18,0.91,0.61,0.44,1,-5,6,1.09,11545,74,77,34,74,1323,0.0,703,459,60,132.0,0,1,440,405,214,0,0,0,250,250,0,-5.59,,,,,,,,,,,,
271884,1564213414358,2,2.31,1.11,0.64,1.4,1.17,0.93,0.35,0.53,1,-3,4,1.0,11295,74,77,34,75,1364,0.0,693,458,60,131.0,0,1,443,410,214,0,0,0,250,250,0,-5.59,,,,,,,,,,,,
271904,1564213414378,3,2.3,1.12,0.64,1.4,1.17,0.91,0.52,0.44,1,-2,4,1.04,11107,74,77,34,75,1406,0.0,688,459,60,131.0,0,1,445,410,214,0,0,0,250,250,0,-5.59,,,,,,,,,,,,
271924,1564213414398,0,2.31,1.11,0.64,1.4,1.17,0.8,0.4,0.44,1,-1,3,0.9,10856,74,77,34,76,1447,0.0,690,460,60,131.0,0,1,440,415,214,0,0,0,250,250,0,-5.59,,,,,,,,,,,,
271944,1564213414418,1,2.31,1.12,0.63,1.4,1.18,0.79,0.26,0.51,1,-1,2,0.83,10617,74,77,34,77,1488,0.0,688,463,60,132.0,0,1,434,497,203,0,0,0,250,250,0,-5.59,44.680759,10.020585,0.0,173.7,0,0.0,-1,0.0,0.0,0,0.01,4.5324
271964,1564213414438,1,2.31,1.11,0.64,1.4,1.17,0.74,0.18,0.56,1,-0,1,0.77,10428,74,77,34,78,1498,0.0,680,463,60,131.0,0,1,425,430,203,0,0,0,250,250,0,-5.59,,,,,,,,,,,,
271984,1564213414458,1,2.31,1.11,0.64,1.4,1.17,0.65,0.17,0.51,1,0,1,0.68,10168,75,77,34,78,1498,0.0,679,461,60,131.0,0,1,407,430,203,0,0,0,250,250,0,-5.59,,,,,,,,,,,,
272004,1564213414478,3,2.3,1.11,0.64,1.4,1.17,0.63,0.19,0.48,1,-0,1,0.66,9978,79,77,34,80,1498,0.0,678,458,60,132.0,0,1,397,446,203,0,0,0,250,250,0,-5.59,,,,,,,,,,,,
272024,1564213414498,5,2.3,1.12,0.64,1.4,1.17,0.6,0.16,0.53,1,-0,1,0.62,9770,85,76,34,83,1498,0.0,679,465,60,128.0,0,1,406,475,203,0,0,0,250,250,0,-5.59,,,,,,,,,,,,
272044,1564213414518,6,2.31,1.12,0.63,1.4,1.17,0.66,0.17,0.51,1,-0,1,0.69,9640,90,76,34,85,1498,0.0,671,462,60,129.0,0,1,412,504,208,0,0,0,250,250,0,-5.59,44.680759,10.020585,0.0,173.7,0,0.0,-1,0.0,0.0,0,0.01,4.5341
272064,1564213414538,6,2.3,1.11,0.63,1.41,1.17,0.71,0.14,0.56,1,-2,1,0.73,9878,93,76,34,85,1498,0.0,674,470,60,128.0,0,1,401,507,208,0,0,0,250,250,0,-5.59,,,,,,,,,,,,
272084,1564213414558,1,2.31,1.12,0.63,1.4,1.18,0.66,0.15,0.62,1,-2,1,0.68,9957,95,77,34,85,1498,0.0,678,447,60,129.0,0,1,397,507,208,0,0,0,250,250,0,-5.59,,,,,,,,,,,,
272104,1564213414578,4,2.3,1.12,0.64,1.4,1.17,0.73,0.2,0.57,1,-1,1,0.76,10069,96,77,34,84,1498,0.0,675,460,60,132.0,0,1,399,489,208,0,0,0,250,250,0,-5.59,,,,,,,,,,,,
272124,1564213414598,5,2.31,1.12,0.64,1.4,1.17,0.81,0.17,0.58,0,-3,1,0.83,9796,96,76,34,87,1498,0.0,680,467,60,129.0,0,1,406,611,208,0,0,0,250,250,0,-5.59,,,,,,,,,,,,
272144,1564213414618,8,2.31,1.11,0.64,1.41,1.17,0.82,0.19,0.6,0,-2,1,0.84,9645,97,76,34,88,1498,0.0,673,461,60,129.0,0,1,413,619,227,0,0,0,250,250,0,-5.59,44.680759,10.020585,0.0,173.7,0,0.0,-1,0.0,0.0,0,0.01,4.5357
272164,1564213414638,3,2.31,1.11,0.64,1.4,1.17,0.92,0.12,0.6,0,-2,0,0.93,10124,97,76,34,86,1498,0.0,681,462,60,129.0,0,1,404,527,227,0,0,0,250,250,0,-5.59,,,,,,,,,,,,
272184,1564213414658,1,2.31,1.12,0.64,1.4,1.17,0.85,0.04,0.61,-0,-2,1,0.86,10091,97,77,35,85,1498,0.0,676,463,60,131.0,0,1,402,508,227,0,0,0,250,250,0,-5.59,,,,,,,,,,,,
272204,1564213414678,5,2.31,1.12,0.63,1.4,1.18,0.88,0.09,0.61,-0,-1,1,0.89,9816,97,76,34,87,1498,0.0,680,467,60,130.0,0,1,405,538,227,0,0,0,250,250,0,-5.59,,,,,,,,,,,,
272224,1564213414698,5,2.31,1.12,0.64,1.4,1.17,0.9,0.04,0.61,-0,-1,0,0.9,9750,97,76,34,87,1498,0.0,675,463,60,130.0,0,1,408,609,227,0,0,0,250,250,0,-5.59,,,,,,,,,,,,
272244,1564213414718,1,2.31,1.12,0.63,1.4,1.17,0.83,0.07,0.61,-0,-2,0,0.83,10140,98,77,34,86,1498,0.0,676,467,60,131.0,0,1,405,601,225,0,0,0,250,250,0,-5.59,44.680759,10.020585,0.0,173.7,0,0.0,-1,0.0,0.0,0,0.01,4.5374
272264,1564213414738,6,2.31,1.11,0.64,1.4,1.17,0.88,0.09,0.61,-0,-1,0,0.89,9931,97,77,35,85,1498,0.0,680,456,60,131.0,0,1,399,507,225,0,0,0,250,250,0,-5.59,,,,,,,,,,,,
272284,1564213414758,5,2.3,1.11,0.63,1.4,1.17,0.88,0.02,0.54,-0,-1,-0,0.88,9725,97,76,34,87,1498,0.0,678,462,60,129.0,0,1,409,534,225,0,0,0,250,250,0,-5.59,,,,,,,,,,,,
272304,1564213414778,1,2.31,1.12,0.64,1.4,1.17,0.83,0.08,0.51,-0,-2,0,0.84,9904,98,76,34,87,1498,0.0,673,462,60,128.0,0,1,401,615,225,0,0,0,250,250,0,-5.59,,,,,,,,,,,,
272324,1564213414798,1,2.31,1.12,0.64,1.4,1.18,0.91,-0.01,0.48,-1,0,0,0.91,10168,98,77,35,85,1498,0.0,677,462,60,131.0,0,1,407,508,225,0,0,0,250,250,0,-5.59,,,,,,,,,,,,
272344,1564213414818,6,2.3,1.12,0.64,1.41,1.17,0.85,-0.06,0.44,-0,0,0,0.85,9962,98,77,35,86,1498,0.0,681,458,60,131.0,0,1,398,525,222,0,0,0,250,250,0,-5.59,44.680759,10.020585,0.0,173.7,0,0.0,-1,0.0,0.0,0,0.01,4.5391
272364,1564213414838,7,2.3,1.11,0.64,1.4,1.17,0.8,-0.01,0.43,-0,-2,1,0.8,9755,98,76,35,88,1498,0.0,674,466,60,130.0,0,1,408,550,222,0,0,0,250,250,0,-5.59,,,,,,,,,,,,
272384,1564213414858,1,2.31,1.12,0.63,1.4,1.17,0.73,0.01,0.36,-0,1,1,0.73,9842,98,76,34,87,1498,0.0,676,468,60,130.0,0,1,402,615,222,0,0,0,250,250,0,-5.59,,,,,,,,,,,,
272404,1564213414878,2,2.31,1.12,0.63,1.4,1.18,0.68,0.05,0.31,0,1,1,0.68,10048,98,77,35,85,1498,0.0,676,458,60,131.0,0,1,398,577,222,0,0,0,250,250,0,-5.59,,,,,,,,,,,,
272424,1564213414898,6,2.3,1.12,0.63,1.4,1.17,0.67,0.06,0.35,0,0,1,0.67,9827,98,77,35,87,1498,0.0,678,467,60,129.0,0,1,404,539,222,0,0,0,250,250,0,-5.59,,,,,,,,,,,,
272444,1564213414918,5,2.3,1.11,0.63,1.39,1.18,0.66,0.12,0.32,1,2,1,0.67,9786,98,76,35,87,1498,0.0,671,465,60,129.0,0,1,406,537,224,0,0,0,250,250,0,-5.59,44.680759,10.020585,0.0,173.7,0,0.0,-1,0.0,0.0,0,0.01,4.5407
272464,1564213414938,3,2.3,1.12,0.64,1.4,1.18,0.7,0.17,0.33,1,0,1,0.72,10146,98,77,35,85,1498,0.0,678,458,60,131.0,0,1,405,508,224,0,0,0,250,250,0,-5.59,,,,,,,,,,,,
272484,1564213414958,7,2.3,1.12,0.64,1.41,1.17,0.71,0.13,0.37,1,-1,2,0.72,9931,98,77,35,86,1498,0.0,677,466,60,130.0,0,1,400,594,224,0,0,0,250,250,0,-5.59,,,,,,,,,,,,
272504,1564213414978,3,2.3,1.11,0.64,1.4,1.18,0.73,0.15,0.41,1,0,2,0.75,9730,99,76,35,88,1498,0.0,675,461,60,129.0,0,1,409,549,224,0,0,0,250,250,0,-5.59,,,,,,,,,,,,
272524,1564213414998,2,2.29,1.12,0.64,1.41,1.18,0.83,0.17,0.47,1,-2,2,0.85,10179,100,77,35,86,1498,0.0,677,466,60,131.0,0,1,408,596,224,0,0,0,250,250,0,-5.59,,,,,,,,,,,,
272544,1564213415010,2,2.3,1.12,0.64,1.4,1.17,0.81,0.08,0.5,1,-2,2,0.81,10135,100,77,35,85,1498,0.0,680,464,60,131.0,0,1,405,577,232,0,0,0,250,250,0,-5.59,44.680759,10.020585,0.0,173.7,0,0.0,-1,0.0,0.0,0,0.01,4.5424
272564,1564213415030,4,2.3,1.12,0.63,1.4,1.17,0.73,0.12,0.51,1,-0,1,0.74,9931,100,77,35,87,1498,0.0,674,465,60,130.0,0,1,400,612,232,0,0,0,250,250,0,-5.59,,,,,,,,,,,,
272584,1564213415050,4,2.3,1.12,0.64,1.4,1.17,0.82,0.15,0.53,1,-2,1,0.83,9720,100,76,35,88,1498,0.0,677,463,60,128.0,0,1,410,617,232,0,0,0,250,250,0,-5.59,,,,,,,,,,,,
272604,1564213415070,1,2.29,1.12,0.64,1.4,1.17,0.74,0.1,0.52,1,-2,1,0.74,10102,100,77,35,86,1498,0.0,678,475,60,132.0,0,1,402,527,232,0,0,0,250,250,0,-5.59,,,,,,,,,,,,
272624,1564213415098,2,2.3,1.11,0.64,1.4,1.18,0.71,0.17,0.57,1,-1,1,0.73,10096,100,77,35,86,1498,0.0,675,460,60,131.0,0,1,402,596,232,0,0,0,250,250,0,-5.59,,,,,,,,,,,,
272644,1564213415118,7,2.3,1.12,0.64,1.39,1.17,0.77,0.19,0.56,1,-3,1,0.79,9832,100,77,35,87,1498,0.0,675,459,60,128.0,0,1,404,608,226,0,0,0,250,250,0,-5.59,44.680759,10.020585,0.0,173.7,0,0.0,-1,0.0,0.0,0,0.01,4.5441
272664,1564213415138,4,2.29,1.12,0.64,1.4,1.17,0.71,0.16,0.59,1,-3,1,0.73,9689,100,76,35,88,1498,0.0,671,466,60,129.0,0,1,411,616,226,0,0,0,250,250,0,-5.59,,,,,,,,,,,,
272684,1564213415158,1,2.3,1.12,0.63,1.4,1.18,0.8,0.22,0.57,1,-2,1,0.83,10240,100,77,35,86,1498,0.0,677,465,60,131.0,0,1,413,527,226,0,0,0,250,250,0,-5.59,,,,,,,,,,,,
272704,1564213415178,3,2.3,1.12,0.63,1.4,1.17,0.89,0.22,0.61,1,-4,1,0.92,10032,100,77,35,86,1498,0.0,673,457,60,132.0,0,1,398,527,226,0,0,0,250,250,0,-5.59,,,,,,,,,,,,
272724,1564213415197,3,2.29,1.12,0.64,1.4,1.17,0.82,0.18,0.64,1,-3,0,0.84,9832,100,76,35,88,1498,0.0,680,465,60,129.0,0,1,405,623,226,0,0,0,250,250,0,-5.59,,,,,,,,,,,,
272744,1564213415217,5,2.3,1.12,0.64,1.39,1.17,0.91,0.17,0.66,1,-3,-0,0.92,9873,100,76,35,87,1498,0.0,671,461,60,128.0,0,1,402,541,229,0,0,0,250,250,0,-5.59,44.680759,10.020585,0.0,173.7,0,0.0,-1,0.0,0.0,0,0.01,4.5457
272764,1564213415237,0,2.31,1.11,0.63,1.39,1.18,0.96,0.11,0.71,1,-5,-0,0.96,10190,100,77,35,85,1498,0.0,678,465,60,132.0,0,1,408,577,229,0,0,0,250,250,0,-5.59,,,,,,,,,,,,
272784,1564213415257,2,2.3,1.12,0.64,1.4,1.17,0.84,0.09,0.78,1,-4,-1,0.84,9973,100,77,35,86,1498,0.0,680,465,60,132.0,0,1,398,526,229,0,0,0,250,250,0,-5.59,,,,,,,,,,,,
272804,1564213415277,7,2.3,1.12,0.64,1.4,1.18,0.94,0.1,0.74,1,-3,-1,0.94,9765,100,76,35,88,1498,0.0,680,460,60,128.0,0,1,408,619,229,0,0,0,250,250,0,-5.59,,,,,,,,,,,,
272824,1564213415299,-1,2.31,1.12,0.64,1.4,1.18,0.89,0.01,0.77,0,-4,-1,0.89,9894,100,76,35,88,1498,0.0,681,467,60,128.0,0,1,402,624,229,0,0,0,250,250,0,-5.59,,,,,,,,,,,,
272844,1564213415319,1,2.3,1.12,0.64,1.39,1.17,0.88,0.09,0.8,0,-4,-1,0.88,10162,100,77,35,85,1498,0.0,675,462,60,131.0,0,1,407,508,233,0,0,0,250,250,0,-5.59,44.680759,10.020585,0.0,173.7,0,0.0,-1,0.0,0.0,0,0.01,4.5474
272864,1564213415339,5,2.29,1.12,0.64,1.39,1.17,0.98,0.09,0.79,0,-3,-1,0.98,9952,100,77,35,87,1498,0.0,672,459,60,130.0,0,1,399,543,233,0,0,0,250,250,0,-5.59,,,,,,,,,,,,
272884,1564213415359,2,2.31,1.12,0.64,1.4,1.18,0.91,0.02,0.79,0,-5,-1,0.91,9750,100,76,35,88,1498,0.0,672,466,60,130.0,0,1,408,617,233,0,0,0,250,250,0,-5.59,,,,,,,,,,,,
272904,1564213415379,1,2.3,1.11,0.64,1.4,1.18,0.97,-0.01,0.76,0,-4,-0,0.97,9889,100,76,35,87,1498,0.0,673,462,60,130.0,0,1,402,541,233,0,0,0,250,250,0,-5.59,,,,,,,,,,,,
272924,1564213415397,0,2.29,1.11,0.64,1.41,1.17,1.04,-0.07,0.74,-0,-3,-1,1.04,10135,100,77,35,85,1498,0.0,677,457,60,131.0,0,1,405,508,233,0,0,0,250,250,0,-5.59,,,,,,,,,,,,
272944,1564213415417,2,2.3,1.12,0.64,1.39,1.17,0.93,-0.08,0.74,-0,-3,-2,0.94,9931,100,77,35,87,1498,0.0,679,457,60,129.0,0,1,400,543,220,0,0,0,250,250,0,-5.59,44.680759,10.020585,0.0,173.7,0,0.0,-1,0.0,0.0,0,0.01,4.5491
272964,1564213415437,6,2.3,1.12,0.63,1.41,1.17,1.02,-0.09,0.71,-1,-3,-1,1.03,9755,100,76,35,88,1498,0.0,672,462,60,130.0,0,1,408,550,220,0,0,0,250,250,0,-5.59,,,,,,,,,,,,
272984,1564213415457,-2,2.31,1.12,0.64,1.41,1.17,0.95,-0.18,0.62,-1,-3,-1,0.96,10096,100,77,35,86,1498,0.0,681,470,60,131.0,0,1,410,527,220,0,0,0,250,250,0,-5.59,,,,,,,,,,,,
273004,1564213415477,1,2.3,1.12,0.64,1.4,1.17,0.84,-0.12,0.65,-1,-4,-1,0.85,10053,100,77,35,86,1498,0.0,675,460,60,132.0,0,1,399,527,220,0,0,0,250,250,0,-5.59,,,,,,,,,,,,
273024,1564213415499,3,2.3,1.12,0.64,1.4,1.17,0.89,-0.13,0.63,-1,-2,-1,0.9,9786,100,77,35,87,1498,0.0,681,463,60,128.0,0,1,406,606,220,0,0,0,250,250,0,-5.59,,,,,,,,,,,,
273044,1564213415519,-0,2.31,1.12,0.63,1.39,1.17,0.83,-0.18,0.64,-1,-2,-2,0.85,9889,100,76,35,87,1498,0.0,675,463,60,129.0,0,1,402,615,230,0,0,0,250,250,0,-5.59,44.680759,10.020585,0.0,173.7,0,0.0,-1,0.0,0.0,0,0.01,4.5507
273064,1564213415539,0,2.31,1.12,0.63,1.41,1.17,0.76,-0.1,0.61,-1,-2,-1,0.77,10096,100,77,35,85,1498,0.0,670,463,60,131.0,0,1,402,577,230,0,0,0,250,250,0,-5.59,,,,,,,,,,,,
273084,1564213415559,4,2.3,1.12,0.64,1.39,1.18,0.83,-0.11,0.6,-1,1,-1,0.84,9821,100,77,35,87,1498,0.0,677,466,60,128.0,0,1,405,607,230,0,0,0,250,250,0,-5.59,,,,,,,,,,,,
273104,1564213415579,3,2.3,1.12,0.63,1.4,1.17,0.81,-0.06,0.58,-1,-0,-1,0.81,9699,100,76,35,88,1498,0.0,672,466,60,129.0,0,1,411,548,230,0,0,0,250,250,0,-5.59,,,,,,,,,,,,
273124,1564213415599,-0,2.3,1.12,0.63,1.41,1.17,0.8,-0.05,0.6,-0,-1,0,0.8,10245,100,77,35,85,1498,0.0,673,459,60,132.0,0,1,412,508,230,0,0,0,250,250,0,-5.59,,,,,,,,,,,,
273144,1564213415619,3,2.3,1.12,0.64,1.4,1.18,0.83,-0.11,0.5,-1,0,-0,0.84,9973,100,77,35,86,1498,0.0,673,462,60,131.0,0,1,398,595,223,0,0,0,250,250,0,-5.59,44.680759,10.020585,0.0,173.7,0,0.0,-1,0.0,0.0,0,0.01,4.5524
273164,1564213415639,0,2.3,1.12,0.64,1.39,1.18,0.8,-0.07,0.5,-0,-1,0,0.81,9775,100,76,35,88,1498,0.0,675,464,60,129.0,0,1,407,620,223,0,0,0,250,250,0,-5.59,,,,,,,,,,,,
273184,1564213415659,-2,2.29,1.12,0.64,1.4,1.17,0.79,-0.09,0.55,-0,-1,1,0.8,10037,100,76,35,87,1498,0.0,672,462,60,130.0,0,1,398,546,223,0,0,0,250,250,0,-5.59,,,,,,,,,,,,
273204,1564213415679,-1,2.3,1.12,0.64,1.4,1.18,0.9,-0.11,0.56,-0,2,1,0.91,10086,100,77,35,85,1498,0.0,678,462,60,132.0,0,1,401,508,223,0,0,0,250,250,0,-5.59,,,,,,,,,,,,
273224,1564213415699,2,2.3,1.12,0.64,1.41,1.17,0.87,-0.08,0.51,-0,2,1,0.87,9889,100,77,35,87,1498,0.0,675,456,60,129.0,0,1,402,610,223,0,0,0,250,250,0,-5.59,,,,,,,,,,,,
273244,1564213415719,3,2.3,1.12,0.64,1.4,1.17,0.84,-0.09,0.58,-0,1,1,0.84,9827,100,77,35,88,1498,0.0,671,463,60,129.0,0,1,405,555,226,0,0,0,250,250,0,-5.59,44.680759,10.020585,0.0,173.7,0,0.0,-1,0.0,0.0,0,0.01,4.5541
273264,1564213415739,-2,2.31,1.12,0.64,1.4,1.17,0.92,-0.16,0.59,-0,2,1,0.93,10245,100,77,35,86,1498,0.0,674,465,60,132.0,0,1,413,596,226,0,0,0,250,250,0,-5.59,,,,,,,,,,,,
273284,1564213415759,2,2.29,1.12,0.64,1.4,1.17,0.88,-0.23,0.54,0,0,1,0.91,10048,100,77,35,86,1498,0.0,670,458,60,131.0,0,1,399,527,226,0,0,0,250,250,0,-5.59,,,,,,,,,,,,
273304,1564213415779,3,2.3,1.12,0.64,1.4,1.17,0.81,-0.16,0.56,0,-0,1,0.83,9837,100,77,35,87,1498,0.0,674,463,60,128.0,0,1,404,539,226,0,0,0,250,250,0,-5.59,,,,,,,,,,,,
273324,1564213415799,-0,2.3,1.12,0.64,1.4,1.18,0.83,-0.2,0.55,0,3,1,0.85,9858,100,76,34,87,1498,0.0,678,466,60,130.0,0,1,402,615,226,0,0,0,250,250,0,-5.59,,,,,,,,,,,,
273344,1564213415819,-0,2.3,1.12,0.64,1.39,1.17,0.71,-0.24,0.56,1,2,1,0.75,10129,100,77,35,85,1498,0.0,676,457,60,132.0,0,1,404,577,235,0,0,0,250,250,0,-5.59,44.680759,10.020585,0.0,173.7,0,0.0,-1,0.0,0.0,0,0.01,4.5557
273364,1564213415839,5,2.31,1.12,0.63,1.4,1.17,0.69,-0.16,0.56,1,2,1,0.71,9910,100,77,35,87,1498,0.0,673,455,60,128.0,0,1,401,611,235,0,0,0,250,250,0,-5.59,,,,,,,,,,,,
273384,1564213415859,2,2.3,1.12,0.64,1.4,1.17,0.67,-0.19,0.48,1,3,1,0.7,9755,100,76,34,88,1498,0.0,677,468,60,129.0,0,1,407,552,235,0,0,0,250,250,0,-5.59,,,,,,,,,,,,
273404,1564213415879,-1,2.3,1.12,0.64,1.4,1.17,0.61,-0.14,0.47,1,1,2,0.62,10157,100,77,35,86,1498,0.0,677,464,60,130.0,0,1,407,527,235,0,0,0,250,250,0,-5.59,,,,,,,,,,,,
273424,1564213415899,0,2.3,1.12,0.63,1.4,1.17,0.58,-0.03,0.5,1,0,2,0.58,10135,100,77,35,85,1498,0.0,672,457,60,131.0,0,1,405,508,235,0,0,0,250,250,0,-5.59,,,,,,,,,,,,
273444,1564213415919,1,2.3,1.12,0.64,1.39,1.17,0.65,-0.08,0.51,1,2,1,0.65,9868,100,77,34,87,1498,0.0,681,456,60,128.0,0,1,403,540,227,0,0,0,250,250,0,-5.59,44.680759,10.020585,0.0,173.7,0,0.0,-1,0.0,0.0,0,0.01,4.5574
273464,1564213415939,4,2.3,1.12,0.64,1.4,1.17,0.64,-0.06,0.51,1,1,1,0.64,9780,100,76,34,88,1498,0.0,681,463,60,129.0,0,1,407,626,227,0,0,0,250,250,0,-5.59,,,,,,,,,,,,
273484,1564213415959,0,2.3,1.11,0.63,1.4,1.17,0.62,0.01,0.52,1,1,1,0.62,10240,100,77,35,85,1498,0.0,675,463,60,132.0,0,1,412,508,227,0,0,0,250,250,0,-5.59,,,,,,,,,,,,
273504,1564213415979,1,2.3,1.11,0.64,1.4,1.18,0.7,-0.07,0.45,1,3,0,0.7,9957,100,77,35,86,1498,0.0,673,462,60,131.0,0,1,398,525,227,0,0,0,250,250,0,-5.59,,,,,,,,,,,,
273524,1564213415991,2,2.3,1.12,0.64,1.41,1.17,0.7,-0.06,0.46,1,1,1,0.7,9765,100,77,35,88,1498,0.0,680,462,60,128.0,0,1,408,619,227,0,0,0,250,250,0,-5.59,,,,,,,,,,,,
273544,1564213416011,-0,2.3,1.12,0.64,1.4,1.17,0.7,-0.08,0.52,1,-0,1,0.7,10059,100,77,35,87,1498,0.0,679,468,60,129.0,0,1,400,615,227,0,0,0,250,250,0,-5.59,44.680759,10.020585,0.0,173.7,0,0.0,-1,0.0,0.0,0,0.01,4.5591
273564,1564213416031,-0,2.3,1.12,0.63,1.4,1.17,0.7,-0.11,0.39,1,1,0,0.71,10080,100,77,35,85,1498,0.0,675,465,60,132.0,0,1,401,508,227,0,0,0,250,250,0,-5.59,,,,,,,,,,,,
273584,1564213416051,5,2.3,1.11,0.64,1.4,1.18,0.69,-0.09,0.42,1,-1,1,0.69,9878,100,77,35,87,1498,0.0,678,458,60,129.0,0,1,402,610,227,0,0,0,250,250,0,-5.59,,,,,,,,,,,,
273604,1564213416071,1,2.31,1.12,0.63,1.4,1.17,0.65,-0.11,0.52,1,-1,0,0.66,9755,100,77,35,88,1498,0.0,673,466,60,128.0,0,1,408,550,227,0,0,0,250,250,0,-5.59,,,,,,,,,,,,
273624,1564213416098,0,2.3,1.11,0.63,1.41,1.17,0.6,-0.05,0.44,2,0,1,0.6,10129,100,77,35,86,1498,0.0,676,466,60,131.0,0,1,405,527,227,0,0,0,250,250,0,-5.59,,,,,,,,,,,,
273644,1564213416118,2,2.3,1.12,0.64,1.4,1.17,0.67,0.01,0.42,2,-2,1,0.67,9878,100,77,35,87,1498,0.0,683,462,60,128.0,0,1,402,610,220,0,0,0,250,250,0,-5.59,44.680759,10.020585,0.0,173.7,0,0.0,-1,0.0,0.0,0,0.01,4.5607
273664,1564213416138,0,2.29,1.12,0.64,1.4,1.17,0.61,-0.06,0.47,2,-2,0,0.61,9925,100,77,34,87,1498,0.0,672,467,60,129.0,0,1,400,542,220,0,0,0,250,250,0,-5.59,,,,,,,,,,,,
273684,1564213416158,-2,2.31,1.12,0.64,1.39,1.18,0.56,0.0,0.47,2,-0,0,0.56,10135,100,77,35,85,1498,0.0,675,455,60,131.0,0,1,405,577,220,0,0,0,250,250,0,-5.59,,,,,,,,,,,,
273704,1564213416178,3,2.31,1.12,0.64,1.4,1.18,0.62,0.06,0.44,2,-3,1,0.62,9868,100,77,35,87,1498,0.0,673,461,60,129.0,0,1,403,540,220,0,0,0,250,250,0,-5.59,,,,,,,,,,,,
273724,1564213416198,2,2.3,1.12,0.64,1.41,1.18,0.53,0.01,0.47,2,-3,1,0.53,9709,100,77,34,88,1498,0.0,676,462,60,129.0,0,1,410,622,220,0,0,0,250,250,0,-5.59,,,,,,,,,,,,
273744,1564213416218,1,2.3,1.12,0.64,1.39,1.17,0.53,0.12,0.49,2,-2,1,0.54,10273,100,77,34,86,1498,0.0,671,468,60,131.0,0,1,415,601,232,0,0,0,250,250,0,-5.59,44.680759,10.020585,0.0,173.7,0,0.0,-1,0.0,0.0,0,0.01,4.5624
273764,1564213416238,-2,2.3,1.12,0.64,1.39,1.18,0.62,0.18,0.47,1,-5,1,0.64,10086,100,77,35,86,1498,0.0,678,458,60,132.0,0,1,401,596,232,0,0,0,250,250,0,-5.59,,,,,,,,,,,,
273784,1564213416258,1,2.31,1.12,0.63,1.4,1.17,0.57,0.12,0.53,1,-4,1,0.58,9878,100,77,35,87,1498,0.0,679,458,60,130.0,0,1,402,541,232,0,0,0,250,250,0,-5.59,,,,,,,,,,,,
273804,1564213416278,4,2.31,1.12,0.64,1.4,1.17,0.64,0.19,0.55,1,-4,0,0.67,9827,100,77,34,88,1498,0.0,675,459,60,128.0,0,1,405,629,232,0,0,0,250,250,0,-5.59,,,,,,,,,,,,
273824,1564213416298,0,2.3,1.12,0.64,1.4,1.17,0.74,0.21,0.57,1,-7,1,0.77,10212,100,77,35,85,1498,0.0,680,458,60,131.0,0,1,410,508,232,0,0,0,250,250,0,-5.59,,,,,,,,,,,,
273844,1564213416318,0,2.3,1.12,0.64,1.4,1.17,0.69,0.14,0.6,1,-6,-0,0.7,10000,100,77,35,86,1498,0.0,677,465,60,132.0,0,1,396,527,223,0,0,0,250,250,0,-5.59,44.680759,10.020585,0.0,173.7,0,0.0,-1,0.0,0.0,0,0.01,4.5641
273864,1564213416338,5,2.3,1.11,0.64,1.41,1.18,0.73,0.19,0.65,1,-6,-0,0.75,9796,100,77,35,87,1498,0.0,680,458,60,128.0,0,1,406,606,223,0,0,0,250,250,0,-5.59,,,,,,,,,,,,
273884,1564213416358,0,2.3,1.12,0.64,1.4,1.17,0.78,0.16,0.7,1,-7,-0,0.8,10042,100,77,34,87,1498,0.0,679,463,60,130.0,0,1,399,546,223,0,0,0,250,250,0,-5.59,,,,,,,,,,,,
273904,1564213416378,-1,2.31,1.11,0.64,1.4,1.18,0.7,0.08,0.73,1,-5,-1,0.71,10173,100,77,35,85,1498,0.0,677,460,60,131.0,0,1,407,577,223,0,0,0,250,250,0,-5.59,,,,,,,,,,,,
273924,1564213416398,4,2.3,1.12,0.64,1.41,1.17,0.69,0.17,0.77,1,-3,-1,0.71,9962,100,77,35,87,1498,0.0,674,461,60,130.0,0,1,398,613,223,0,0,0,250,250,0,-5.59,,,,,,,,,,,,
273944,1564213416418,3,2.3,1.12,0.64,1.4,1.17,0.75,0.17,0.8,1,-4,-1,0.77,9750,100,77,34,88,1498,0.0,672,462,60,128.0,0,1,408,550,235,0,0,0,250,250,0,-5.59,44.680759,10.020585,0.0,173.7,0,0.0,-1,0.0,0.0,0,0.01,4.5657
273964,1564213416438,-1,2.3,1.12,0.64,1.39,1.18,0.68,0.15,0.77,1,-3,-0,0.69,10140,100,77,34,86,1498,0.0,672,470,60,131.0,0,1,405,601,235,0,0,0,250,250,0,-5.59,,,,,,,,,,,,
273984,1564213416458,-1,2.31,1.12,0.63,1.4,1.17,0.67,0.26,0.78,1,-3,-0,0.72,10124,100,77,35,85,1498,0.0,673,455,60,132.0,0,1,404,508,235,0,0,0,250,250,0,-5.59,,,,,,,,,,,,
274004,1564213416478,4,2.3,1.12,0.63,1.41,1.17,0.73,0.27,0.74,1,-5,-0,0.78,9868,100,77,35,87,1498,0.0,677,463,60,129.0,0,1,403,609,235,0,0,0,250,250,0,-5.59,,,,,,,,,,,,
274024,1564213416498,1,2.31,1.12,0.64,1.39,1.17,0.65,0.25,0.72,1,-4,-0,0.7,9775,100,77,34,88,1498,0.0,673,464,60,129.0,0,1,407,552,235,0,0,0,250,250,0,-5.59,,,,,,,,,,,,
274044,1564213416518,1,2.31,1.12,0.63,1.41,1.17,0.75,0.32,0.69,0,-3,-1,0.81,10273,100,77,35,86,1498,0.0,676,457,60,132.0,0,1,415,596,235,0,0,0,250,250,0,-5.59,44.680759,10.020585,0.0,173.7,0,0.0,-1,0.0,0.0,0,0.01,4.5674
274064,1564213416538,0,2.31,1.11,0.64,1.4,1.18,0.82,0.33,0.69,0,-5,-0,0.88,10010,100,77,35,86,1498,0.0,675,460,60,131.0,0,1,396,527,235,0,0,0,250,250,0,-5.59,,,,,,,,,,,,
274084,1564213416558,-0,2.31,1.12,0.63,1.4,1.18,0.76,0.26,0.71,0,-4,-1,0.8,9806,100,77,34,88,1498,0.0,677,461,60,129.0,0,1,406,554,235,0,0,0,250,250,0,-5.59,,,,,,,,,,,,
274104,1564213416578,4,2.31,1.12,0.64,1.4,1.18,0.86,0.25,0.72,0,-4,-1,0.89,9832,100,77,34,88,1498,0.0,675,463,60,129.0,0,1,405,629,235,0,0,0,250,250,0,-5.59,,,,,,,,,,,,
274124,1564213416598,0,2.31,1.11,0.64,1.4,1.18,0.9,0.15,0.76,-0,-6,-1,0.91,10168,100,77,35,85,1498,0.0,675,464,60,131.0,0,1,407,508,235,0,0,0,250,250,0,-5.59,,,,,,,,,,,,
274144,1564213416618,3,2.3,1.12,0.64,1.4,1.17,0.8,0.12,0.74,-0,-4,-1,0.81,9952,100,77,35,86,1498,0.0,670,461,60,132.0,0,1,399,594,222,0,0,0,250,250,0,-5.59,44.680759,10.020585,0.0,173.7,0,0.0,-1,0.0,0.0,0,0.01,4.5691
274164,1564213416638,3,2.31,1.12,0.64,1.4,1.18,0.89,0.13,0.71,-0,-3,-2,0.9,9750,100,77,34,88,1498,0.0,677,462,60,129.0,0,1,408,624,222,0,0,0,250,250,0,-5.59,,,,,,,,,,,,
274184,1564213416658,-2,2.31,1.12,0.64,1.4,1.17,0.83,0.02,0.75,-1,-4,-2,0.83,9936,100,77,34,87,1498,0.0,675,467,60,129.0,0,1,399,545,222,0,0,0,250,250,0,-5.59,,,,,,,,,,,,
274204,1564213416678,1,2.3,1.12,0.64,1.41,1.17,0.78,0.06,0.71,-0,-3,-1,0.79,10262,100,77,34,85,1498,0.0,678,461,60,132.0,0,1,413,508,222,0,0,0,250,250,0,-5.59,,,,,,,,,,,,
274224,1564213416698,4,2.31,1.12,0.64,1.4,1.18,0.85,0.13,0.65,-0,-3,-1,0.86,10053,100,77,35,87,1498,0.0,672,456,60,131.0,0,1,400,546,222,0,0,0,250,250,0,-5.59,,,,,,,,,,,,
274244,1564213416718,2,2.3,1.12,0.64,1.4,1.17,0.86,0.09,0.68,-1,-5,-1,0.86,9796,100,77,34,88,1498,0.0,681,463,60,128.0,0,1,406,553,232,0,0,0,250,250,0,-5.59,44.680759,10.020585,0.0,173.7,0,0.0,-1,0.0,0.0,0,0.01,4.5707
274264,1564213416738,-1,2.31,1.12,0.64,1.41,1.17,0.87,0.16,0.69,-0,-3,-1,0.88,9973,100,77,34,87,1498,0.0,672,464,60,129.0,0,1,398,618,232,0,0,0,250,250,0,-5.59,,,,,,,,,,,,
274284,1564213416758,-1,2.3,1.12,0.64,1.4,1.17,0.94,0.25,0.66,-0,-2,-1,0.98,10245,100,77,34,85,1498,0.0,677,455,60,131.0,0,1,412,582,232,0,0,0,250,250,0,-5.59,,,,,,,,,,,,
274304,1564213416778,3,2.31,1.12,0.64,1.4,1.18,0.98,0.24,0.67,-1,-4,-1,1.01,9978,100,77,34,86,1498,0.0,669,462,60,131.0,0,1,397,600,232,0,0,0,250,250,0,-5.59,,,,,,,,,,,,
274324,1564213416798,3,2.31,1.12,0.64,1.4,1.17,0.93,0.21,0.72,-1,-4,-1,0.96,9775,100,77,34,88,1498,0.0,671,468,60,129.0,0,1,407,552,232,0,0,0,250,250,0,-5.59,,,,,,,,,,,,
274344,1564213416818,-2,2.31,1.12,0.64,1.4,1.17,1.03,0.2,0.76,-1,-4,-2,1.05,10016,100,77,34,87,1498,0.0,675,458,60,129.0,0,1,397,620,230,0,0,0,250,250,0,-5.59,44.680759,10.020585,0.0,173.7,0,0.0,-1,0.0,0.0,0,0.01,4.5724
274364,1564213416838,-1,2.3,1.12,0.64,1.4,1.17,1.07,0.13,0.8,-1,-6,-1,1.08,10102,100,77,34,85,1498,0.0,676,459,60,132.0,0,1,397,508,230,0,0,0,250,250,0,-5.59,,,,,,,,,,,,
274384,1564213416858,5,2.3,1.12,0.64,1.4,1.17,1.01,0.16,0.87,-1,-5,-1,1.02,9827,100,77,34,88,1498,0.0,673,465,60,130.0,0,1,405,555,230,0,0,0,250,250,0,-5.59,,,,,,,,,,,,
274404,1564213416878,1,2.3,1.12,0.64,1.4,1.18,1.09,0.11,0.88,-1,-4,-2,1.1,9978,100,77,34,87,1498,0.0,680,464,60,129.0,0,1,398,619,230,0,0,0,250,250,0,-5.59,,,,,,,,,,,,
274424,1564213416898,-2,2.31,1.12,0.64,1.4,1.18,1.08,0.02,0.9,-1,-5,-2,1.08,10212,100,77,34,85,1498,0.0,681,461,60,131.0,0,1,410,508,230,0,0,0,250,250,0,-5.59,,,,,,,,,,,,
274444,1564213416918,1,2.31,1.12,0.63,1.4,1.17,1.0,0.06,0.92,-1,-3,-2,1.0,9936,100,77,34,87,1498,0.0,667,461,60,131.0,0,1,399,543,224,0,0,0,250,250,0,-5.59,44.680759,10.020585,0.0,173.7,0,0.0,-1,0.0,0.0,0,0.01,4.5741
274464,1564213416938,3,2.3,1.12,0.64,1.4,1.17,1.08,0.03,0.92,-1,-3,-2,1.08,9750,100,77,34,88,1498,0.0,677,460,60,128.0,0,1,408,550,224,0,0,0,250,250,0,-5.59,,,,,,,,,,,,
274484,1564213416958,-0,2.3,1.12,0.64,1.4,1.17,1.0,-0.08,0.92,-1,-4,-3,1.01,10118,100,77,34,86,1498,0.0,676,469,60,131.0,0,1,404,527,224,0,0,0,250,250,0,-5.59,,,,,,,,,,,,
274504,1564213416978,1,2.3,1.12,0.64,1.4,1.17,0.96,-0.01,0.92,-1,-3,-2,0.96,10048,100,77,34,86,1498,0.0,671,458,60,132.0,0,1,399,521,224,0,0,0,250,250,0,-5.59,,,,,,,,,,,,
274524,1564213416998,3,2.31,1.12,0.64,1.4,1.17,1.03,-0.03,0.92,-1,-2,-2,1.03,9837,100,77,34,88,1498,0.0,676,463,60,128.0,0,1,405,629,224,0,0,0,250,250,0,-5.59,,,,,,,,,,,,
274544,1564213417010,0,2.3,1.12,0.63,1.4,1.17,0.92,-0.05,0.87,-1,-3,-2,0.92,9842,100,77,34,87,1498,0.0,674,462,60,129.0,0,1,404,613,232,0,0,0,250,250,0,-5.59,44.680759,10.020585,0.0,173.7,0,0.0,-1,0.0,0.0,0,0.01,4.5757
274564,1564213417030,-0,2.3,1.12,0.64,1.4,1.17,0.97,0.04,0.82,-1,-1,-2,0.97,10113,100,77,34,85,1498,0.0,673,465,60,132.0,0,1,403,508,232,0,0,0,250,250,0,-5.59,,,,,,,,,,,,
274584,1564213417050,2,2.3,1.12,0.64,1.4,1.18,1.05,-0.02,0.78,-1,-0,-2,1.05,9899,100,77,34,87,1498,0.0,673,452,60,128.0,0,1,401,542,232,0,0,0,250,250,0,-5.59,,,,,,,,,,,,
274604,1564213417070,-0,2.31,1.12,0.64,1.4,1.17,0.97,0.01,0.75,-1,-2,-2,0.97,9796,100,77,34,88,1498,0.0,672,461,60,128.0,0,1,406,553,232,0,0,0,250,250,0,-5.59,,,,,,,,,,,,
274624,1564213417098,1,2.3,1.12,0.64,1.4,1.17,1.06,0.0,0.73,-2,0,-2,1.06,10042,100,77,34,85,1498,0.0,678,466,60,132.0,0,1,398,508,232,0,0,0,250,250,0,-5.59,,,,,,,,,,,,
274644,1564213417118,2,2.31,1.12,0.64,1.4,1.17,1.04,-0.06,0.69,-2,0,-2,1.05,9847,100,77,34,87,1498,0.0,677,463,60,129.0,0,1,404,539,229,0,0,0,250,250,0,-5.59,44.680759,10.020585,0.0,173.7,0,0.0,-1,0.0,0.0,0,0.01,4.5774
274664,1564213417138,0,2.3,1.11,0.64,1.4,1.18,0.98,0.03,0.67,-1,-1,-1,0.98,9973,100,77,34,87,1498,0.0,675,464,60,129.0,0,1,398,544,229,0,0,0,250,250,0,-5.59,,,,,,,,,,,,
274684,1564213417158,1,2.3,1.12,0.64,1.4,1.17,1.07,-0.01,0.67,-2,0,-1,1.07,10107,100,77,34,85,1498,0.0,673,460,60,131.0,0,1,403,508,229,0,0,0,250,250,0,-5.59,,,,,,,,,,,,
274704,1564213417178,-0,2.31,1.12,0.64,1.39,1.18,1.05,-0.09,0.6,-2,0,-1,1.05,9894,100,77,34,87,1498,0.0,677,456,60,129.0,0,1,401,541,229,0,0,0,250,250,0,-5.59,,,,,,,,,,,,
274724,1564213417199,4,2.3,1.12,0.64,1.4,1.18,1.0,-0.02,0.58,-1,-1,-0,1.0,9852,100,77,34,88,1498,0.0,673,465,60,129.0,0,1,404,630,229,0,0,0,250,250,0,-5.59,,,,,,,,,,,,
274744,1564213417219,1,2.31,1.12,0.64,1.4,1.18,1.07,-0.09,0.6,-2,1,-0,1.07,10190,100,77,34,85,1498,0.0,675,463,60,132.0,0,1,408,508,234,0,0,0,250,250,0,-5.59,44.680759,10.020585,0.0,173.7,0,0.0,-1,0.0,0.0,0,0.01,4.5791
274764,1564213417239,3,2.3,1.12,0.64,1.41,1.17,1.03,-0.14,0.5,-2,1,-0,1.04,9978,100,77,34,86,1498,0.0,676,458,60,131.0,0,1,398,600,234,0,0,0,250,250,0,-5.59,,,,,,,,,,,,
274784,1564213417259,4,2.3,1.12,0.64,1.4,1.17,0.98,-0.08,0.5,-2,-0,0,0.99,9770,100,77,34,88,1498,0.0,676,465,60,128.0,0,1,408,552,234,0,0,0,250,250,0,-5.59,,,,,,,,,,,,
274804,1564213417279,-2,2.31,1.12,0.64,1.41,1.17,1.06,-0.16,0.54,-2,2,-1,1.07,10212,100,77,34,86,1498,0.0,675,476,60,131.0,0,1,411,601,234,0,0,0,250,250,0,-5.59,,,,,,,,,,,,
274824,1564213417299,1,2.3,1.12,0.64,1.4,1.17,0.99,-0.23,0.46,-1,1,-0,1.01,10069,100,77,34,86,1498,0.0,676,457,60,132.0,0,1,400,601,234,0,0,0,250,250,0,-5.59,,,,,,,,,,,,
274844,1564213417319,3,2.31,1.12,0.63,1.4,1.18,0.94,-0.14,0.47,-1,0,-0,0.95,9847,100,77,34,87,1498,0.0,680,462,60,128.0,0,1,404,613,227,0,0,0,250,250,0,-5.59,44.680759,10.020585,0.0,173.7,0,0.0,-1,0.0,0.0,0,0.01,4.5807
274864,1564213417339,-1,2.31,1.12,0.64,1.4,1.17,0.99,-0.21,0.53,-1,1,-0,1.01,10026,100,77,34,87,1498,0.0,682,463,60,128.0,0,1,398,546,227,0,0,0,250,250,0,-5.59,,,,,,,,,,,,
274884,1564213417359,-2,2.31,1.12,0.63,1.4,1.17,0.92,-0.29,0.47,-1,-0,-0,0.96,10151,100,77,34,85,1498,0.0,677,461,60,132.0,0,1,405,508,227,0,0,0,250,250,0,-5.59,,,,,,,,,,,,
274904,1564213417379,4,2.31,1.11,0.64,1.41,1.17,0.84,-0.2,0.51,-1,-1,0,0.87,9931,100,77,34,87,1498,0.0,674,462,60,130.0,0,1,400,543,227,0,0,0,250,250,0,-5.59,,,,,,,,,,,,
274924,1564213417399,3,2.3,1.12,0.64,1.4,1.18,0.85,-0.24,0.53,-1,2,-0,0.88,9715,100,77,34,88,1498,0.0,671,467,60,129.0,0,1,410,622,227,0,0,0,250,250,0,-5.59,,,,,,,,,,,,
274944,1564213417419,-0,2.31,1.12,0.64,1.4,1.18,0.75,-0.26,0.53,-1,2,0,0.79,10135,100,77,34,86,1498,0.0,668,465,60,131.0,0,1,405,601,234,0,0,0,250,250,0,-5.59,44.680759,10.020585,0.0,173.7,0,0.0,-1,0.0,0.0,0,0.01,4.5824
274964,1564213417439,-0,2.3,1.12,0.64,1.41,1.17,0.69,-0.13,0.52,-0,1,0,0.7,10129,100,77,34,85,1498,0.0,671,461,60,131.0,0,1,404,582,234,0,0,0,250,250,0,-5.59,,,,,,,,,,,,
274984,1564213417459,3,2.31,1.12,0.64,1.4,1.17,0.77,-0.19,0.56,-1,3,-0,0.79,9847,100,77,34,87,1498,0.0,678,462,60,129.0,0,1,404,539,234,0,0,0,250,250,0,-5.59,,,,,,,,,,,,
275004,1564213417479,0,2.31,1.12,0.63,1.4,1.17,0.74,-0.16,0.55,-0,2,0,0.75,9806,100,77,34,88,1498,0.0,671,461,60,129.0,0,1,406,628,234,0,0,0,250,250,0,-5.59,,,,,,,,,,,,
275024,1564213417499,0,2.31,1.12,0.64,1.4,1.17,0.72,-0.06,0.53,-0,1,0,0.73,10319,100,77,34,85,1498,0.0,672,458,60,132.0,0,1,417,508,234,0,0,0,250,250,0,-5.59,,,,,,,,,,,,
275044,1564213417519,0,2.31,1.12,0.64,1.4,1.18,0.82,-0.13,0.56,-0,3,0,0.83,10026,100,77,34,86,1498,0.0,676,463,60,131.0,0,1,397,527,226,0,0,0,250,250,0,-5.59,44.680759,10.020585,0.0,173.7,0,0.0,-1,0.0,0.0,0,0.01,4.5841
275064,1564213417539,1,2.3,1.12,0.64,1.4,1.17,0.75,-0.14,0.51,-0,2,0,0.76,9821,100,77,34,88,1498,0.0,676,461,60,129.0,0,1,405,628,226,0,0,0,250,250,0,-5.59,,,,,,,,,,,,
275084,1564213417559,-2,2.31,1.12,0.63,1.4,1.17,0.73,-0.1,0.51,-0,2,1,0.74,9920,100,77,34,87,1498,0.0,674,467,60,128.0,0,1,400,542,226,0,0,0,250,250,0,-5.59,,,,,,,,,,,,
275104,1564213417579,-2,2.31,1.11,0.64,1.4,1.17,0.8,-0.18,0.47,-0,3,0,0.82,10195,100,77,34,85,1498,0.0,678,463,60,131.0,0,1,409,508,226,0,0,0,250,250,0,-5.59,,,,,,,,,,,,
275124,1564213417599,3,2.3,1.12,0.63,1.41,1.17,0.71,-0.21,0.45,-0,2,1,0.74,9973,100,77,34,86,1498,0.0,672,457,60,131.0,0,1,398,526,226,0,0,0,250,250,0,-5.59,,,,,,,,,,,,
275144,1564213417619,5,2.3,1.12,0.64,1.4,1.18,0.71,-0.16,0.47,-0,1,1,0.72,9740,100,77,34,88,1498,0.0,668,465,60,128.0,0,1,409,550,230,0,0,0,250,250,0,-5.59,44.680759,10.020585,0.0,173.7,0,0.0,-1,0.0,0.0,0,0.01,4.5857
275164,1564213417639,-1,2.3,1.12,0.64,1.39,1.17,0.69,-0.17,0.4,-0,4,1,0.71,10151,100,77,34,87,1498,0.0,675,467,60,130.0,0,1,407,620,230,0,0,0,250,250,0,-5.59,,,,,,,,,,,,
275184,1564213417659,-1,2.31,1.12,0.64,1.4,1.17,0.58,-0.19,0.4,0,3,1,0.61,10135,100,77,34,85,1498,0.0,675,461,60,132.0,0,1,405,508,230,0,0,0,250,250,0,-5.59,,,,,,,,,,,,
275204,1564213417679,4,2.31,1.12,0.63,1.4,1.17,0.58,-0.12,0.38,0,2,1,0.59,9904,100,77,34,87,1498,0.0,672,457,60,130.0,0,1,401,541,230,0,0,0,250,250,0,-5.59,,,,,,,,,,,,
275224,1564213417699,2,2.3,1.12,0.64,1.4,1.17,0.55,-0.14,0.31,0,5,0,0.57,9868,100,77,34,88,1498,0.0,673,468,60,129.0,0,1,403,631,230,0,0,0,250,250,0,-5.59,,,,,,,,,,,,
275244,1564213417719,-1,2.31,1.12,0.64,1.39,1.18,0.47,-0.09,0.31,1,3,1,0.48,10245,100,77,34,85,1498,0.0,680,461,60,132.0,0,1,412,508,232,0,0,0,250,250,0,-5.59,44.680759,10.020585,0.0,173.7,0,0.0,-1,0.0,0.0,0,0.01,4.5874
275264,1564213417739,3,2.31,1.12,0.63,1.41,1.17,0.46,-0.02,0.32,1,2,0,0.46,10005,100,77,34,86,1498,0.0,674,462,60,131.0,0,1,396,601,232,0,0,0,250,250,0,-5.59,,,,,,,,,,,,
275284,1564213417759,3,2.3,1.12,0.64,1.41,1.17,0.45,-0.05,0.26,1,5,0,0.46,9775,100,77,34,88,1498,0.0,673,465,60,129.0,0,1,407,548,232,0,0,0,250,250,0,-5.59,,,,,,,,,,,,
275304,1564213417779,1,2.3,1.12,0.63,1.4,1.17,0.47,0.05,0.24,1,3,1,0.47,10026,100,77,34,87,1498,0.0,675,462,60,128.0,0,1,398,620,232,0,0,0,250,250,0,-5.59,,,,,,,,,,,,
275324,1564213417799,-2,2.32,1.12,0.63,1.4,1.17,0.49,0.07,0.32,1,2,1,0.5,10129,100,77,34,85,1498,0.0,669,464,60,131.0,0,1,404,582,232,0,0,0,250,250,0,-5.59,,,,,,,,,,,,
275344,1564213417819,0,2.31,1.12,0.64,1.4,1.17,0.5,0.03,0.24,1,4,0,0.5,9827,100,77,34,87,1498,0.0,670,463,60,129.0,0,1,404,539,229,0,0,0,250,250,0,-5.59,44.680759,10.020585,0.0,173.7,0,0.0,-1,0.0,0.0,0,0.01,4.5891
275364,1564213417839,4,2.31,1.12,0.63,1.4,1.18,0.56,0.13,0.2,1,2,1,0.58,9821,100,77,34,88,1498,0.0,673,462,60,128.0,0,1,405,628,229,0,0,0,250,250,0,-5.59,,,,,,,,,,,,
275384,1564213417859,-1,2.31,1.12,0.63,1.4,1.17,0.59,0.04,0.35,1,1,1,0.6,10279,100,77,34,85,1498,0.0,677,466,60,131.0,0,1,414,508,229,0,0,0,250,250,0,-5.59,,,,,,,,,,,,
275404,1564213417879,3,2.3,1.12,0.64,1.41,1.18,0.61,-0.0,0.28,1,3,0,0.61,9968,100,77,34,86,1498,0.0,672,462,60,131.0,0,1,398,600,229,0,0,0,250,250,0,-5.59,,,,,,,,,,,,
275424,1564213417899,4,2.31,1.12,0.64,1.4,1.17,0.67,0.03,0.27,1,1,1,0.67,9745,100,77,34,88,1498,0.0,680,463,60,130.0,0,1,409,625,229,0,0,0,250,250,0,-5.59,,,,,,,,,,,,
275444,1564213417919,-1,2.31,1.12,0.64,1.39,1.17,0.65,-0.04,0.37,1,1,1,0.65,10206,100,77,34,86,1498,0.0,670,475,60,131.0,0,1,411,601,230,0,0,0,250,250,0,-5.59,44.680759,10.020585,0.0,173.7,0,0.0,-1,0.0,0.0,0,0.01,4.5907
275464,1564213417939,2,2.3,1.12,0.64,1.41,1.17,0.56,-0.02,0.28,1,4,1,0.56,9968,100,77,34,86,1498,0.0,678,461,60,131.0,0,1,398,526,230,0,0,0,250,250,0,-5.59,,,,,,,,,,,,
275484,1564213417959,5,2.31,1.12,0.63,1.41,1.17,0.68,0.04,0.25,1,1,1,0.68,9730,100,77,34,88,1498,0.0,678,461,60,128.0,0,1,409,549,230,0,0,0,250,250,0,-5.59,,,,,,,,,,,,
275504,1564213417979,2,2.32,1.12,0.64,1.4,1.18,0.6,-0.02,0.33,1,0,1,0.6,9931,100,77,34,87,1498,0.0,671,468,60,129.0,0,1,400,617,230,0,0,0,250,250,0,-5.59,,,,,,,,,,,,
275524,1564213417999,-0,2.3,1.12,0.64,1.41,1.17,0.53,0.06,0.32,2,2,1,0.53,10212,100,77,34,85,1498,0.0,676,462,60,132.0,0,1,410,582,230,0,0,0,250,250,0,-5.59,,,,,,,,,,,,
275544,1564213418009,5,2.31,1.12,0.63,1.41,1.17,0.6,0.11,0.32,2,-0,1,0.61,9904,100,77,34,86,1498,0.0,675,459,60,128.0,0,1,401,524,223,0,0,0,250,250,0,-5.59,44.680759,10.020585,0.0,173.7,0,0.0,-1,0.0,0.0,0,0.01,4.5924
275564,1564213418029,0,2.31,1.12,0.64,1.39,1.18,0.48,0.06,0.38,2,1,1,0.48,9765,100,77,34,88,1498,0.0,674,468,60,130.0,0,1,408,625,223,0,0,0,250,250,0,-5.59,,,,,,,,,,,,
275584,1564213418049,-2,2.31,1.12,0.64,1.4,1.18,0.52,0.15,0.41,2,1,1,0.54,10201,100,77,34,86,1498,0.0,669,466,60,131.0,0,1,410,527,223,0,0,0,250,250,0,-5.59,,,,,,,,,,,,
275604,1564213418069,5,2.31,1.12,0.63,1.41,1.17,0.6,0.17,0.43,2,-1,1,0.62,9968,100,77,34,86,1498,0.0,673,459,60,131.0,0,1,398,526,223,0,0,0,250,250,0,-5.59,,,,,,,,,,,,
275624,1564213418099,1,2.31,1.12,0.64,1.4,1.17,0.53,0.16,0.45,2,-0,1,0.55,9725,100,77,34,88,1498,0.0,678,466,60,129.0,0,1,410,622,223,0,0,0,250,250,0,-5.59,,,,,,,,,,,,
275644,1564213418119,-0,2.31,1.11,0.63,1.41,1.17,0.65,0.17,0.4,2,-0,0,0.67,10048,100,77,34,86,1498,0.0,676,460,60,128.0,0,1,399,601,229,0,0,0,250,250,0,-5.59,44.680759,10.020585,0.0,173.7,0,0.0,-1,0.0,0.0,0,0.01,4.5941
275664,1564213418139,-2,2.31,1.12,0.64,1.41,1.16,0.74,0.12,0.47,2,-3,1,0.75,10064,100,77,34,85,1498,0.0,675,457,60,131.0,0,1,399,508,229,0,0,0,250,250,0,-5.59,,,,,,,,,,,,
275684,1564213418159,2,2.31,1.11,0.63,1.4,1.17,0.72,0.11,0.51,2,-4,1,0.73,9811,100,77,34,87,1498,0.0,679,464,60,129.0,0,1,405,538,229,0,0,0,250,250,0,-5.59,,,,,,,,,,,,
275704,1564213418179,1,2.31,1.12,0.63,1.4,1.17,0.76,0.06,0.5,1,-2,0,0.77,9904,100,77,34,87,1498,0.0,677,463,60,128.0,0,1,401,615,229,0,0,0,250,250,0,-5.59,,,,,,,,,,,,
275724,1564213418198,0,2.32,1.12,0.64,1.4,1.16,0.83,0.01,0.55,1,-4,0,0.83,10168,100,77,34,85,1498,0.0,672,465,60,132.0,0,1,407,508,229,0,0,0,250,250,0,-5.59,,,,,,,,,,,,
275744,1564213418218,0,2.32,1.12,0.63,1.4,1.17,0.81,0.01,0.64,1,-3,-0,0.81,9904,100,77,34,87,1498,0.0,673,457,60,129.0,0,1,401,615,224,0,0,0,250,250,0,-5.59,44.680759,10.020585,0.0,173.7,0,0.0,-1,0.0,0.0,0,0.01,4.5957
275764,1564213418238,3,2.32,1.12,0.64,1.4,1.17,0.9,-0.04,0.63,0,-4,-1,0.9,9786,100,77,34,88,1498,0.0,669,460,60,128.0,0,1,407,552,224,0,0,0,250,250,0,-5.59,,,,,,,,,,,,
275784,1564213418258,-0,2.32,1.11,0.64,1.4,1.17,0.9,-0.13,0.68,0,-6,-1,0.91,10206,100,77,34,86,1498,0.0,680,467,60,132.0,0,1,411,601,224,0,0,0,250,250,0,-5.59,,,,,,,,,,,,
275804,1564213418278,-0,2.31,1.12,0.64,1.41,1.16,0.88,-0.04,0.72,0,-5,-1,0.88,9925,100,77,34,86,1498,0.0,665,460,60,131.0,0,1,400,599,224,0,0,0,250,250,0,-5.59,,,,,,,,,,,,
275824,1564213418300,3,2.31,1.12,0.64,1.4,1.17,0.9,-0.1,0.74,-0,-4,-1,0.9,9615,100,77,34,88,1498,0.0,671,458,60,128.0,0,1,414,543,224,0,0,0,250,250,0,-5.59,,,,,,,,,,,,
275844,1564213418320,-2,2.32,1.12,0.63,1.4,1.17,0.87,-0.05,0.7,-0,-4,-1,0.87,9973,100,77,34,86,1498,0.0,675,466,60,129.0,0,1,398,600,223,0,0,0,250,250,0,-5.59,44.680759,10.020585,0.0,173.7,0,0.0,-1,0.0,0.0,0,0.01,4.5974
275864,1564213418340,2,2.3,1.11,0.63,1.41,1.17,0.98,-0.03,0.69,-0,-4,-0,0.98,10053,100,77,34,85,1498,0.0,674,461,60,131.0,0,1,399,508,223,0,0,0,250,250,0,-5.59,,,,,,,,,,,,
275884,1564213418360,2,2.32,1.12,0.63,1.4,1.16,0.95,-0.07,0.69,-0,-3,-1,0.96,9745,100,77,34,87,1498,0.0,673,462,60,129.0,0,1,409,534,223,0,0,0,250,250,0,-5.59,,,,,,,,,,,,
275904,1564213418380,3,2.32,1.12,0.63,1.4,1.17,0.95,0.01,0.64,-1,-4,-0,0.95,9775,100,77,34,87,1498,0.0,672,463,60,129.0,0,1,407,610,223,0,0,0,250,250,0,-5.59,,,,,,,,,,,,
275924,1564213418398,0,2.31,1.12,0.64,1.4,1.17,0.97,-0.05,0.65,-1,-2,-1,0.97,10162,100,77,34,85,1498,0.0,670,467,60,131.0,0,1,407,508,223,0,0,0,250,250,0,-5.59,,,,,,,,,,,,
275944,1564213418418,1,2.31,1.12,0.64,1.4,1.17,0.9,-0.07,0.64,-1,-2,-1,0.91,9832,100,77,34,86,1498,0.0,673,457,60,129.0,0,1,404,596,224,0,0,0,250,250,0,-5.59,44.680759,10.020585,0.0,173.7,0,0.0,-1,0.0,0.0,0,0.01,4.5991
275964,1564213418438,5,2.31,1.12,0.64,1.4,1.17,0.83,-0.1,0.67,-1,-2,-0,0.83,9650,100,77,34,88,1498,0.0,668,467,60,128.0,0,1,413,538,224,0,0,0,250,250,0,-5.59,,,,,,,,,,,,
275984,1564213418458,0,2.33,1.12,0.64,1.4,1.18,0.75,-0.06,0.64,-0,1,-0,0.75,10075,100,77,34,86,1498,7.0,672,465,60,129.0,0,1,401,601,224,0,0,0,250,14504,7,-5.59,,,,,,,,,,,,
276004,1564213418478,0,2.31,1.12,0.64,1.4,1.16,0.65,-0.02,0.61,-0,-0,-0,0.65,10353,100,77,34,85,1498,7.0,681,468,60,129.0,0,1,420,582,224,0,0,0,250,6274,7,-5.59,,,,,,,,,,,,
276024,1564213418498,2,2.31,1.12,0.64,1.4,1.16,0.53,0.08,0.59,-0,0,-1,0.54,10635,100,77,34,85,1498,7.0,680,465,60,129.0,0,1,434,508,224,0,0,0,250,-18032,7,-5.59,,,,,,,,,,,,
276044,1564213418518,4,2.31,1.12,0.63,1.4,1.16,0.48,0.06,0.56,-0,1,-1,0.48,10819,100,77,34,84,1498,7.0,684,463,60,128.0,0,1,440,489,236,0,0,0,250,259,7,-5.59,44.680759,10.020585,0.0,173.7,0,0.0,-1,0.0,0.0,0,0.01,4.6007
276064,1564213418538,6,2.31,1.12,0.64,1.4,1.17,0.59,-0.15,0.7,-0,-0,-1,0.61,11068,100,77,34,84,1498,7.0,693,467,60,128.0,0,1,443,489,236,0,0,0,250,-4035,7,-5.59,,,,,,,,,,,,
276084,1564213418558,4,2.31,1.11,0.64,1.4,1.17,0.51,0.07,0.67,0,2,-1,0.52,11180,100,77,34,84,1498,7.0,695,463,60,129.0,0,1,442,564,236,0,0,0,250,-32504,7,-5.59,,,,,,,,,,,,
276104,1564213418578,-0,2.32,1.12,0.64,1.39,1.17,0.61,-0.14,0.71,-0,3,-2,0.62,11363,100,77,34,84,1442,7.0,697,466,60,128.0,0,1,441,564,236,0,0,0,250,-3210,7,-5.59,,,,,,,,,,,,
276124,1564213418600,3,2.31,1.12,0.64,1.4,1.16,0.59,-0.07,0.54,-0,2,-2,0.59,11545,100,77,34,83,1387,16.0,697,462,60,128.0,0,1,440,471,236,0,0,0,250,28675,16,-5.59,,,,,,,,,,,,
276144,1564213418620,5,2.32,1.11,0.63,1.4,1.18,0.56,0.08,0.59,-0,-1,-1,0.56,11718,100,77,34,83,1331,16.0,702,470,60,128.0,0,1,440,551,241,0,0,0,250,17336,16,-5.59,44.680759,10.020585,0.0,173.7,0,0.0,-1,0.0,0.0,0,0.01,4.6024
276164,1564213418640,5,2.31,1.12,0.63,1.4,1.17,0.56,0.13,0.73,0,-2,0,0.58,11859,100,77,34,83,1275,16.0,703,468,60,128.0,0,1,440,555,241,0,0,0,250,506,16,-5.59,,,,,,,,,,,,
276184,1564213418660,4,2.32,1.12,0.64,1.41,1.17,0.56,0.14,0.85,1,-1,0,0.58,11957,100,77,34,83,1202,16.0,710,465,60,128.0,0,1,440,483,241,0,0,0,250,771,16,-5.59,,,,,,,,,,,,
276204,1564213418680,4,2.31,1.12,0.64,1.4,1.17,0.57,0.15,0.96,1,-1,1,0.59,11935,100,77,34,83,1129,16.0,704,465,60,128.0,0,1,440,558,241,0,0,0,250,3,16,-5.59,,,,,,,,,,,,
276224,1564213418698,2,2.32,1.12,0.64,1.4,1.17,0.6,0.13,1.06,1,-1,1,0.61,11912,100,77,34,83,1097,28.0,703,465,60,128.0,0,1,440,557,241,0,0,0,250,966,28,-5.59,,,,,,,,,,,,
276244,1564213418718,3,2.31,1.12,0.64,1.41,1.17,0.6,0.05,1.15,1,-0,1,0.6,11822,100,77,34,83,1079,28.0,699,466,60,128.0,8964,1,440,554,251,0,0,0,250,-16883,28,-5.59,44.680756,10.020579,2.7,172.6,0,0.0,-1,0.0,0.0,0,0.03,4.6041
276264,1564213418738,1,2.31,1.12,0.63,1.41,1.16,0.65,-0.1,1.24,1,-1,1,0.66,11595,100,77,34,83,1040,28.0,698,467,60,128.0,8964,1,440,547,251,0,0,0,250,28675,28,-5.59,,,,,,,,,,,,
276284,1564213418758,5,2.31,1.12,0.64,1.4,1.17,0.57,0.0,1.17,1,-2,0,0.57,11356,100,77,34,83,996,41.0,692,470,60,129.0,8964,1,442,545,251,0,0,0,250,-13043,41,-5.59,,,,,,,,,,,,
276304,1564213418778,3,2.32,1.12,0.63,1.4,1.17,0.51,-0.13,1.25,1,-2,0,0.53,10901,100,77,34,84,965,41.0,692,468,60,128.0,8964,1,440,489,251,0,0,0,250,259,41,-5.59,,,,,,,,,,,,
276324,1564213418798,4,2.31,1.12,0.64,1.41,1.16,0.59,-0.18,1.25,0,-1,0,0.62,10399,100,77,34,84,939,54.0,673,468,60,129.0,8964,1,423,564,251,0,0,0,250,2104,54,-5.59,,,,,,,,,,,,
276344,1564213418818,2,2.3,1.12,0.64,1.4,1.18,0.54,-0.2,1.22,-0,-1,0,0.58,9994,100,77,34,85,915,54.0,672,460,60,128.0,4185,1,396,582,226,0,0,0,250,6274,54,-5.59,44.680756,10.02058,3.97,172.6,0,0.0,-1,0.0,0.0,0,0.03,4.6057
276364,1564213418838,5,2.3,1.12,0.63,1.41,1.17,0.55,-0.15,1.21,-1,-2,1,0.57,9669,100,77,34,85,893,66.0,667,463,60,129.0,4185,1,411,578,226,0,0,0,250,-4054,66,-5.59,,,,,,,,,,,,
276384,1564213418858,-1,2.31,1.12,0.64,1.4,1.17,0.41,-0.07,1.18,-0,0,1,0.41,9384,100,77,34,85,886,66.0,666,468,60,128.0,4185,1,418,588,226,0,0,0,250,-32768,66,-5.59,,,,,,,,,,,,
276404,1564213418878,1,2.32,1.11,0.63,1.4,1.17,0.23,-0.1,1.25,0,1,1,0.25,9031,100,77,34,86,890,76.0,663,461,60,129.0,4185,1,418,588,226,0,0,0,250,2212,76,-5.59,,,,,,,,,,,,
276424,1564213418900,1,2.31,1.12,0.63,1.41,1.17,0.03,-0.02,1.19,1,3,2,0.03,8831,100,77,34,86,906,76.0,652,466,60,128.0,4185,1,423,514,226,0,0,0,250,6193,76,-5.59,,,,,,,,,,,,
276444,1564213418920,4,2.31,1.12,0.63,1.41,1.17,0.07,0.03,1.27,1,3,2,0.07,8557,100,77,34,87,927,84.0,651,463,60,129.0,2357,1,431,599,198,0,0,0,250,3571,84,-5.59,44.680756,10.020581,6.38,172.7,0,0.0,-1,0.0,0.0,0,0.03,4.6074
276464,1564213418940,-1,2.31,1.12,0.64,1.41,1.16,0.15,0.0,1.22,1,1,1,0.15,8267,100,77,34,88,945,93.0,654,463,60,128.0,2357,1,440,510,198,0,0,0,250,5600,93,-5.59,,,,,,,,,,,,
276484,1564213418960,2,2.31,1.12,0.64,1.4,1.16,0.15,-0.0,1.25,1,1,2,0.15,7985,100,77,34,89,961,99.0,640,459,60,130.0,2357,1,446,489,198,0,0,0,250,-21792,99,-5.59,,,,,,,,,,,,
276504,1564213418980,2,2.31,1.12,0.63,1.4,1.17,0.13,-0.04,1.23,1,1,0,0.14,7700,100,77,34,91,974,99.0,634,462,60,130.0,2357,1,425,563,198,0,0,0,250,2524,106,-5.59,,,,,,,,,,,,
276524,1564213418992,2,2.31,1.12,0.63,1.4,1.16,0.15,-0.04,1.18,1,2,1,0.15,7332,100,77,34,93,984,106.0,638,464,60,129.0,2357,1,395,472,198,0,0,0,250,-19019,106,-5.59,,,,,,,,,,,,
276544,1564213419012,0,2.31,1.11,0.63,1.4,1.17,0.15,-0.03,1.21,1,3,1,0.15,6888,100,77,34,94,987,113.0,628,463,60,130.0,1327,1,363,455,150,0,0,0,250,3082,113,-5.59,44.680756,10.020584,9.1,172.7,0,0.0,-1,0.0,0.0,0,0.03,4.6091
276564,1564213419032,-0,2.31,1.11,0.63,1.4,1.17,0.27,0.01,1.18,1,0,1,0.27,6414,100,77,34,95,981,119.0,616,465,60,129.0,1327,1,338,463,150,0,0,0,250,-32559,119,-5.59,,,,,,,,,,,,
276584,1564213419052,-0,2.31,1.12,0.63,1.4,1.16,0.34,0.02,1.2,1,-1,1,0.34,5941,100,77,34,95,967,125.0,588,465,60,130.0,1327,1,316,548,150,0,0,0,250,-30976,125,-5.59,,,,,,,,,,,,
276604,1564213419072,3,2.31,1.12,0.63,1.4,1.18,0.35,0.04,1.24,1,0,0,0.35,5485,100,77,34,95,946,131.0,557,467,60,130.0,1327,1,312,500,150,0,0,0,250,0,131,-5.59,,,,,,,,,,,,
276624,1564213419100,0,2.31,1.12,0.63,1.41,1.17,0.34,-0.0,1.24,1,2,0,0.34,5096,100,77,34,96,927,135.0,535,462,60,129.0,1327,1,308,545,150,0,0,0,250,-1,135,-5.59,,,,,,,,,,,,
276644,1564213419120,-2,2.31,1.12,0.63,1.4,1.17,0.33,0.0,1.25,1,-0,0,0.33,4547,100,77,34,97,912,140.0,487,463,60,128.0,835,1,294,572,117,0,0,0,250,250,145,-5.59,44.680756,10.020587,11.36,172.8,0,0.0,-1,0.0,0.0,0,0.03,4.6107
276664,1564213419140,4,2.31,1.12,0.63,1.4,1.17,0.3,0.01,1.17,1,1,0,0.3,4219,100,78,34,97,898,150.0,443,460,60,130.0,835,1,284,644,117,0,0,0,250,1596,150,-5.59,,,,,,,,,,,,
276684,1564213419160,-1,2.31,1.12,0.63,1.41,1.17,0.31,0.01,1.18,1,0,1,0.31,3616,100,77,34,97,886,153.0,384,472,60,130.0,835,1,242,635,117,0,0,0,250,-1281,153,-5.59,,,,,,,,,,,,
276704,1564213419180,0,2.31,1.11,0.63,1.41,1.17,0.29,-0.01,1.15,1,2,1,0.29,3162,100,78,34,97,878,158.0,338,460,60,130.0,835,1,232,605,117,0,0,0,250,-253,158,-5.59,,,,,,,,,,,,
276724,1564213419201,-0,2.31,1.12,0.63,1.4,1.16,0.27,-0.06,1.14,1,3,2,0.28,2885,100,78,34,97,882,162.0,301,466,60,131.0,835,1,231,536,117,0,0,0,250,250,162,-5.59,,,,,,,,,,,,
276744,1564213419221,2,2.31,1.12,0.64,1.4,1.16,0.25,-0.06,1.11,1,2,2,0.26,2817,100,78,34,97,888,171.0,299,465,60,129.0,347,1,230,502,58,0,0,0,250,-1,171,-5.59,44.680756,10.020592,14.18,172.8,0,0.0,-1,0.0,0.0,0,0.03,4.6124
276764,1564213419241,-1,2.32,1.12,0.63,1.4,1.17,0.32,-0.07,1.06,2,1,2,0.33,2661,100,78,34,98,908,174.0,277,457,60,129.0,347,1,240,445,58,0,0,0,250,-1,174,-5.59,,,,,,,,,,,,
276784,1564213419261,4,2.31,1.11,0.64,1.41,1.17,0.34,-0.08,1.12,2,2,2,0.35,2283,100,78,34,97,926,178.0,251,465,60,130.0,347,1,226,340,58,0,0,0,250,250,178,-5.59,,,,,,,,,,,,
276804,1564213419281,-1,2.31,1.12,0.63,1.41,1.17,0.37,-0.11,1.04,2,3,2,0.39,2195,100,78,34,98,941,185.0,241,466,60,130.0,347,1,240,271,58,0,0,0,250,-1482,185,-5.59,,,,,,,,,,,,
276824,1564213419299,0,2.3,1.12,0.63,1.4,1.17,0.41,-0.1,1.05,2,3,3,0.42,1781,100,77,34,97,956,187.0,226,460,60,128.0,347,1,226,329,58,0,0,0,250,14312,187,-5.59,,,,,,,,,,,,
276844,1564213419319,-2,2.31,1.11,0.64,1.39,1.17,0.49,-0.08,0.97,2,0,1,0.5,1614,100,78,34,96,964,189.0,210,465,60,130.0,115,1,212,317,22,0,0,0,250,-13312,189,-5.59,44.680756,10.020597,16.86,172.8,0,0.0,-1,0.0,0.0,0,0.03,4.6141
276864,1564213419339,-1,2.3,1.12,0.65,1.4,1.17,0.47,-0.1,0.9,2,-1,0,0.48,1697,100,78,34,96,972,190.0,203,463,60,131.0,115,1,212,242,22,0,0,0,250,-9728,190,-5.59,,,,,,,,,,,,
276884,1564213419359,-1,2.31,1.12,0.64,1.4,1.17,0.55,-0.08,0.89,1,-2,-0,0.56,1920,100,78,34,98,965,189.0,206,465,60,131.0,115,1,240,341,22,0,0,0,250,2048,189,181.28,,,,,,,,,,,,
276904,1564213419379,-0,2.3,1.12,0.64,1.41,1.17,0.54,-0.07,0.94,1,-4,2,0.54,2217,100,78,34,97,959,190.0,217,463,60,129.0,115,1,226,338,22,0,0,0,250,8192,190,-5.59,,,,,,,,,,,,
276924,1564213419399,2,2.3,1.12,0.64,1.4,1.18,0.52,-0.03,0.97,0,-3,1,0.52,2144,100,78,34,98,961,196.0,222,463,60,132.0,115,1,240,347,22,0,0,0,250,6656,196,181.28,,,,,,,,,,,,
276944,1564213419419,0,2.29,1.12,0.64,1.4,1.17,0.54,-0.06,0.84,0,-0,0,0.54,1986,100,78,34,98,963,198.0,212,462,60,130.0,142,1,240,343,28,0,0,0,250,250,198,-5.59,44.680756,10.020603,18.58,172.9,0,0.0,-1,0.0,0.0,0,0.03,4.6157
276964,1564213419439,0,2.29,1.11,0.64,1.4,1.17,0.62,-0.01,0.88,0,-2,1,0.62,1904,100,78,34,97,972,199.0,211,454,60,127.0,142,1,226,255,28,0,0,0,250,250,199,-5.59,,,,,,,,,,,,
276984,1564213419459,1,2.29,1.12,0.64,1.41,1.17,0.6,-0.01,0.92,0,-2,-1,0.6,1974,100,78,34,97,982,200.0,214,467,60,130.0,142,1,226,256,28,0,0,0,250,250,200,-5.59,,,,,,,,,,,,
277004,1564213419479,-1,2.3,1.12,0.64,1.4,1.16,0.61,-0.07,0.87,0,-2,-1,0.61,2061,100,78,34,98,986,202.0,216,457,60,130.0,142,1,240,345,28,0,0,0,250,250,202,-5.59,,,,,,,,,,,,
277024,1564213419501,-1,2.3,1.12,0.64,1.4,1.17,0.61,-0.05,0.89,0,-2,1,0.62,2139,100,78,34,97,989,203.0,216,455,60,130.0,142,1,226,259,28,0,0,0,250,250,203,-5.59,,,,,,,,,,,,
277044,1564213419521,0,2.3,1.11,0.64,1.4,1.17,0.61,-0.05,0.9,0,-4,-2,0.61,2139,100,78,34,98,985,206.0,226,462,60,130.0,136,1,240,346,28,0,0,0,250,250,206,-5.59,44.680756,10.02061,19.5,172.9,0,0.0,-1,0.0,0.0,0,0.03,4.6174
277064,1564213419541,-1,2.29,1.12,0.64,1.4,1.17,0.63,-0.07,0.84,-0,-3,0,0.63,2113,100,78,34,97,978,207.0,219,463,60,130.0,136,1,226,336,28,0,0,0,250,-1482,207,-5.59,,,,,,,,,,,,
277084,1564213419561,2,2.3,1.12,0.63,1.4,1.17,0.62,-0.05,0.88,-0,-2,-2,0.62,2119,100,78,34,97,968,209.0,222,465,60,131.0,136,1,226,259,28,0,0,0,250,-1482,209,-5.59,,,,,,,,,,,,
277104,1564213419581,-0,2.3,1.11,0.64,1.4,1.17,0.64,-0.07,0.79,-0,-2,-2,0.64,2127,100,78,34,97,959,211.0,221,463,60,132.0,136,1,226,346,28,0,0,0,250,250,211,181.28,,,,,,,,,,,,
277124,1564213419599,1,2.29,1.12,0.64,1.4,1.17,0.55,-0.03,0.85,0,-1,-0,0.56,2169,100,78,34,97,954,213.0,220,457,60,131.0,136,1,226,260,28,0,0,0,250,13850,214,-5.59,,,,,,,,,,,,
277144,1564213419619,0,2.3,1.11,0.63,1.4,1.17,0.57,-0.02,0.82,0,-2,-2,0.57,2192,100,78,34,98,950,215.0,229,459,60,131.0,130,1,240,348,28,0,0,0,250,-1482,215,-5.59,44.680756,10.020617,20.79,173.0,0,0.0,-1,0.0,0.0,0,0.03,4.6191
277164,1564213419639,0,2.29,1.12,0.64,1.39,1.17,0.57,-0.04,0.83,0,0,1,0.57,2206,100,78,34,97,950,218.0,221,457,60,130.0,130,1,226,261,28,0,0,0,250,250,218,-5.59,,,,,,,,,,,,
277184,1564213419659,0,2.3,1.11,0.64,1.41,1.17,0.59,-0.04,0.81,-0,-1,-1,0.59,2236,100,78,34,98,949,219.0,233,458,60,130.0,130,1,240,349,28,0,0,0,250,13856,219,-5.59,,,,,,,,,,,,
277204,1564213419679,-1,2.3,1.12,0.64,1.4,1.17,0.57,-0.06,0.77,-0,1,1,0.58,2278,100,78,34,97,951,220.0,228,457,60,130.0,130,1,226,340,28,0,0,0,250,250,220,-5.59,,,,,,,,,,,,
277224,1564213419701,-1,2.3,1.12,0.63,1.4,1.17,0.58,-0.03,0.76,-0,-0,-0,0.58,2283,100,78,34,97,954,223.0,236,458,60,130.0,130,1,226,350,28,0,0,0,250,250,223,-5.59,,,,,,,,,,,,
277244,1564213419721,1,2.3,1.12,0.64,1.41,1.17,0.54,-0.02,0.77,-0,1,0,0.54,2275,100,78,34,97,959,225.0,226,458,60,130.0,130,1,226,340,29,0,0,0,250,250,225,-5.59,44.680756,10.020624,21.66,173.1,0,0.0,-1,0.0,0.0,0,0.03,4.6207
277264,1564213419741,-0,2.3,1.11,0.64,1.4,1.17,0.56,-0.02,0.73,-0,-0,-1,0.56,2272,100,78,34,97,966,225.0,240,457,60,131.0,130,1,226,263,29,0,0,0,250,250,227,-5.59,,,,,,,,,,,,
277284,1564213419761,3,2.29,1.12,0.64,1.39,1.17,0.52,-0.03,0.75,0,1,0,0.52,2323,100,78,34,97,970,228.0,228,462,60,129.0,130,1,226,264,29,0,0,0,250,13862,228,-5.59,,,,,,,,,,,,
277304,1564213419781,-0,2.3,1.12,0.64,1.4,1.17,0.55,-0.04,0.73,0,-1,-0,0.55,2363,100,78,34,97,974,231.0,241,459,60,130.0,130,1,226,342,29,0,0,0,250,11264,231,-5.59,,,,,,,,,,,,
277324,1564213419801,-2,2.3,1.12,0.64,1.4,1.17,0.59,0.01,0.8,-0,0,0,0.59,2393,100,78,34,97,979,233.0,237,466,60,130.0,130,1,226,342,29,0,0,0,250,13868,233,-5.59,,,,,,,,,,,,
277344,1564213419821,-2,2.31,1.12,0.64,1.4,1.17,0.59,0.0,0.77,-0,-0,1,0.59,2418,100,78,34,97,987,235.0,242,458,60,128.0,133,1,226,342,31,0,0,0,250,-202,235,-5.59,44.680756,10.020632,22.54,173.1,0,0.0,-1,0.0,0.0,0,0.03,4.6224
277364,1564213419841,-2,2.3,1.12,0.64,1.41,1.16,0.57,0.01,0.81,0,-1,-1,0.57,2402,100,78,34,98,992,237.0,247,458,60,131.0,133,1,240,276,31,0,0,0,250,13868,237,-5.59,,,,,,,,,,,,
277384,1564213419861,2,2.3,1.12,0.64,1.4,1.17,0.57,0.01,0.82,0,-1,-0,0.57,2374,100,78,34,97,996,238.0,236,459,60,132.0,133,1,226,265,31,0,0,0,250,11264,238,-5.59,,,,,,,,,,,,
