"Interval"|"ms"|0|0|1,"Utc"|"ms"|0|0|1,"Brake_F"|"Bar"|0|2000|10,"Brake_R"|"Bar"|0|2000|10,"Height_RF"|"mm"|0|255|50,"Height_LF"|"mm"|0|255|50,"Height_LR"|"mm"|0|80|50,"Height_RR"|"mm"|0|255|50,"Steering"|"deg"|-100|100|10,"AccelX"|"G"|-3.0|3.0|50,"AccelY"|"G"|-3.0|3.0|50,"AccelZ"|"G"|-3.0|3.0|50,"Yaw"|"Deg/Sec"|-120|120|50,"Pitch"|"Deg/Sec"|-120|120|50,"Roll"|"Deg/Sec"|-120|120|50,"Gsum"|"G"|0.0|3.0|50,"Log_Button"|""|0.0|10.0|10,"WaterTemp"|"C"|0|150|50,"RPM"|"tr/min"|0|14000|50,"TPS"|"%"|0|100|50,"AirTemp"|"C"|0|150|50,"MAP"|"KPa"|0|100|50,"Lambda"|""|0.5|1.5|50,"SpeedDTA"|"kph"|0.0|250.0|50,"OilPress"|"KPa"|0|1500|50,"FuelPressur"|"Bar"|0.0|10.0|50,"Batterie"|"V"|0.0|20.0|50,"ConsoKm"|"L/100km"|0.0|200.0|50,"Gear"|""|0|6|50,"AdvIgnition"|"Deg"|-20.0|70.0|50,"Injection"|"ms"|0.0|10.0|50,"ConsoHr"|"L/Hr"|0.0|10000.0|50,"LC_But_Pres"|""|0|1|50,"LC_Active"|""|0|1|50,"TractionOn"|""|0|1|50,"TractionWet"|""|0|1|50,"FanOn"|""|0|1|50,"RD_Speed"|"km/h"|-30|250|10,"RUD_Speed"|"km/h"|-30|250|10,"LD_Speed"|"km/h"|-30|250|10,"LUD_Speed"|"km/h"|-30|250|10,"Latitude"|"Degrees"|-180.0|180.0|10,"Longitude"|"Degrees"|-180.0|180.0|10,"Speed"|"kph"|0.0|150.0|10,"Altitude"|"m"|0.0|4000.0|10,"GPSSats"|""|0|20|10,"GPSQual"|""|0|5|10,"GPSDOP"|""|0.0|20.0|10,"LapCount"|""|0|0|10,"LapTime"|"Min"|0.0|0.0|10,"Sector"|""|0|0|10,"SectorTime"|"Min"|0.0|0.0|10,"PredTime"|"Min"|0.0|0.0|5,"ElapsedTime"|"Min"|0.0|0.0|10,"CurrentLap"|""|0|0|10,"Distance"|"km"|0.0|0.0|10,"SessionTime"|"Min"|0.0|0.0|10
121064,1626449492371,,,252,256,237,232,,-0.0,0.01,-3.01,-0,0,-0,0.01,,79,1810,7,35,91,0.931,0.0,199,4.33,13.4,0.0,1,0.1,3.17,2.7,0,0,0,1,0,,,,,,,,,,,,,,,,,,,,
121084,1626449492393,,,253,255,237,232,,-0.0,0.01,-3.0,-0,0,-0,0.01,,78,1779,7,35,92,0.931,0.0,198,4.23,13.5,0.0,1,0.1,3.17,2.7,0,0,0,1,0,,,,,,,,,,,,,,,,,,,,
121104,1626449492413,,,253,256,237,232,,-0.0,0.01,-3.0,-0,-0,-0,0.01,,78,1831,7,35,92,0.931,0.0,201,4.33,13.5,0.0,1,0.1,3.17,2.7,0,0,0,1,0,,,,,,,,,,,,,,,,,,,,
121124,1626449492433,,,252,256,237,232,,0.0,0.01,-3.01,-0,0,-0,0.01,,78,1877,7,35,92,0.931,0.0,202,4.34,13.4,0.0,1,0.1,3.17,2.7,0,0,0,1,0,,,,,,,,,,,,,,,,,,,,
121144,1626449492453,0,0,253,255,237,232,5,-0.0,0.01,-2.98,-0,0,-0,0.01,0,79,1843,7,35,91,0.93,0.0,197,4.25,13.3,0.0,1,0.1,3.17,2.7,0,0,0,1,0,0,250,250,0,45.847061,5.177974,0.0,221.4,9,3,1.7,0,0.0,1,0.1483,,1.0917,1,0.18,2.0191
121164,1626449492473,,,252,255,237,232,,-0.01,0.01,-2.99,-0,0,-0,0.01,,78,1776,7,35,91,0.93,0.0,196,4.18,13.4,0.0,1,0.1,3.17,2.7,0,0,0,1,0,,,,,,,,,,,,,,,,,,,,
121184,1626449492493,,,252,256,237,232,,-0.0,0.0,-2.98,-0,0,-0,0.01,,78,1727,7,35,92,0.929,0.0,197,4.3,13.4,0.0,1,0.1,3.17,2.7,0,0,0,1,0,,,,,,,,,,,,,,,,,,,,
121204,1626449492513,,,253,256,237,232,,-0.0,-0.0,-2.98,-0,-0,-0,0.0,,78,1749,7,35,92,0.929,0.0,197,4.35,13.5,0.0,1,0.1,3.17,2.7,0,0,0,1,0,,,,,,,,,,,,,,,,,,,,
121224,1626449492533,,,253,255,237,232,,0.01,-0.0,-2.98,-0,-0,-0,0.01,,78,1824,7,35,92,0.928,0.0,196,4.34,13.5,0.0,1,0.0,2.09,2.6,0,0,0,1,0,,,,,,,,,,,,,,,,,,,,
121244,1626449492553,1,0,253,256,237,232,5,-0.0,-0.01,-2.97,-0,0,-0,0.01,0,79,1815,7,35,91,0.927,0.0,197,4.26,13.2,0.0,1,0.0,3.17,2.6,0,0,0,1,0,0,250,250,0,45.847061,5.177974,0.0,221.4,9,3,1.7,0,0.0,1,0.1483,0.0,1.0933,1,0.18,2.0207
121264,1626449492573,,,253,255,237,232,,-0.0,-0.01,-2.96,-0,-0,-0,0.01,,79,1756,7,35,92,0.926,0.0,194,4.3,13.5,0.0,1,0.0,3.17,2.6,0,0,0,1,0,,,,,,,,,,,,,,,,,,,,
121284,1626449492593,,,253,256,237,232,,-0.0,-0.01,-2.96,-0,0,-0,0.01,,78,1674,7,35,92,0.925,0.0,192,4.3,13.5,0.0,1,0.0,2.09,2.6,0,0,0,1,0,,,,,,,,,,,,,,,,,,,,
121304,1626449492613,,,253,256,237,232,,-0.01,-0.01,-2.96,-0,-0,-0,0.01,,78,1635,7,35,92,0.925,0.0,189,4.33,13.4,0.0,1,0.0,3.17,2.6,0,0,0,1,0,,,,,,,,,,,,,,,,,,,,
121324,1626449492633,,,253,256,237,232,,-0.0,-0.01,-2.97,-0,-0,-0,0.01,,79,1681,7,35,93,0.924,0.0,189,4.34,13.5,0.0,1,0.0,3.17,2.3,0,0,0,1,0,,,,,,,,,,,,,,,,,,,,
121344,1626449492653,0,2,253,256,237,232,5,0.0,-0.01,-2.98,-0,-0,-0,0.01,0,78,1737,7,35,92,0.925,0.0,192,4.35,13.5,0.0,1,0.0,3.17,2.3,0,0,0,1,0,0,250,250,0,45.847061,5.177974,0.0,221.4,9,3,1.7,0,0.0,1,0.1483,,1.095,1,0.18,2.0224
121364,1626449492673,,,253,255,237,232,,0.0,-0.01,-2.99,-0,-0,-0,0.01,,79,1747,7,35,92,0.924,0.0,194,4.31,13.4,0.0,1,0.0,3.17,2.3,0,0,0,1,0,,,,,,,,,,,,,,,,,,,,
121384,1626449492693,,,253,255,237,232,,0.0,-0.01,-2.99,-0,-0,-0,0.01,,79,1674,7,35,92,0.923,0.0,191,4.29,13.1,0.0,1,0.0,3.17,2.3,0,0,0,1,0,,,,,,,,,,,,,,,,,,,,
121404,1626449492713,,,253,256,237,232,,0.0,-0.01,-2.97,-0,-0,-0,0.01,,79,1586,7,35,92,0.922,0.0,187,4.32,13.1,0.0,1,0.0,3.17,2.3,0,0,0,1,0,,,,,,,,,,,,,,,,,,,,
121424,1626449492733,,,253,256,237,232,,-0.0,-0.01,-2.96,-0,-0,-0,0.01,,79,1563,7,35,92,0.922,0.0,183,4.34,13.4,0.0,1,0.1,3.17,2.3,0,0,0,1,0,,,,,,,,,,,,,,,,,,,,
121444,1626449492753,0,2,253,255,237,232,5,-0.0,-0.0,-2.95,-0,-0,-0,0.01,0,79,1682,7,35,92,0.921,0.0,187,4.33,13.5,0.0,1,0.1,3.17,2.3,0,0,0,1,0,0,250,250,0,45.847061,5.177974,0.0,221.4,9,3,1.7,0,0.0,1,0.1483,0.0,1.0967,1,0.18,2.0241
121464,1626449492773,,,252,256,237,232,,-0.0,-0.0,-2.97,-0,-0,-0,0.0,,79,1806,7,35,93,0.921,0.0,192,4.28,13.5,0.0,1,0.1,3.17,2.3,0,0,0,1,0,,,,,,,,,,,,,,,,,,,,
121484,1626449492792,,,252,255,237,232,,0.0,-0.0,-2.97,-0,-0,-0,0.0,,79,1852,7,35,92,0.92,0.0,193,4.28,13.5,0.0,1,0.1,2.09,2.3,0,0,0,1,0,,,,,,,,,,,,,,,,,,,,
121504,1626449492812,,,253,255,237,232,,0.01,-0.0,-2.97,-0,-0,-0,0.01,,79,1730,7,35,92,0.918,0.0,194,4.27,13.4,0.0,1,0.1,3.17,2.3,0,0,0,1,0,,,,,,,,,,,,,,,,,,,,
121524,1626449492832,,,253,256,237,232,,0.0,0.0,-2.98,-0,-0,-0,0.0,,79,1632,7,35,92,0.918,0.0,192,4.3,13.3,0.0,1,0.1,2.09,2.5,0,0,0,1,0,,,,,,,,,,,,,,,,,,,,
121544,1626449492852,0,1,253,256,237,232,5,0.0,0.0,-2.97,-0,-0,-0,0.0,0,79,1627,7,35,91,0.917,0.0,189,4.33,13.2,0.0,1,0.1,3.17,2.5,0,0,0,1,0,0,250,250,0,45.847061,5.177974,0.0,221.4,9,3,1.7,0,0.0,1,0.1483,,1.0983,1,0.18,2.0257
121564,1626449492872,,,253,256,237,232,,-0.01,0.0,-2.97,-0,-0,-0,0.01,,79,1801,7,35,92,0.915,0.0,191,4.32,13.5,0.0,1,0.1,2.09,2.5,0,0,0,1,0,,,,,,,,,,,,,,,,,,,,
121584,1626449492892,,,253,256,237,232,,-0.0,0.0,-2.98,-0,-0,-0,0.0,,79,1912,7,35,92,0.914,0.0,196,4.29,13.5,0.0,1,0.1,3.17,2.5,0,0,0,1,0,,,,,,,,,,,,,,,,,,,,
121604,1626449492912,,,253,256,237,232,,0.0,-0.0,-2.99,-0,-0,-0,0.0,,79,1909,7,35,92,0.913,0.0,199,4.38,13.4,0.0,1,0.1,2.09,2.5,0,0,0,1,0,,,,,,,,,,,,,,,,,,,,
121624,1626449492932,,,253,256,237,232,,-0.0,-0.0,-2.98,-0,-0,-0,0.0,,79,1835,7,35,91,0.911,0.0,199,4.33,13.2,0.0,1,0.1,3.17,2.8,0,0,0,1,0,,,,,,,,,,,,,,,,,,,,
121644,1626449492952,0,2,252,255,237,232,5,-0.0,-0.0,-2.97,-0,-0,-0,0.0,0,79,1785,7,35,91,0.91,0.0,198,4.27,13.4,0.0,1,0.1,3.17,2.8,0,0,0,1,0,0,250,250,0,45.847061,5.177974,0.0,221.4,9,3,1.7,0,0.0,1,0.1483,0.0,1.1,1,0.18,2.0274
121664,1626449492972,,,252,256,237,232,,0.0,-0.0,-2.99,-0,-0,0,0.0,,79,1804,7,35,92,0.909,0.0,197,4.28,13.5,0.0,1,25.7,3.17,2.8,0,0,0,1,0,,,,,,,,,,,,,,,,,,,,
121684,1626449492992,,,253,256,237,232,,0.01,-0.01,-3.01,-0,-0,0,0.01,,79,1858,7,35,92,0.908,0.0,197,4.32,13.5,0.0,1,0.1,3.17,2.8,0,0,0,1,0,,,,,,,,,,,,,,,,,,,,
121704,1626449493004,,,253,255,237,232,,0.0,-0.01,-2.99,-0,-0,-0,0.01,,79,1881,7,35,91,0.909,0.0,202,4.36,13.3,0.0,1,0.1,3.17,2.8,0,0,0,1,0,,,,,,,,,,,,,,,,,,,,
121724,1626449493024,,,253,256,237,232,,-0.0,-0.01,-2.98,-0,-0,-0,0.01,,79,1799,7,35,91,0.908,0.0,200,4.33,13.4,0.0,1,0.1,3.17,2.7,0,0,0,1,0,,,,,,,,,,,,,,,,,,,,
121744,1626449493044,1,0,253,255,237,232,5,-0.0,-0.01,-2.98,-0,-0,-0,0.01,0,79,1716,7,35,92,0.908,0.0,194,4.33,13.5,0.0,1,0.1,3.17,2.7,0,0,0,1,0,0,250,250,0,45.847061,5.177974,0.0,221.4,9,3,1.7,0,0.0,1,0.1483,,1.1017,1,0.18,2.0291
121764,1626449493064,,,253,255,237,232,,-0.0,-0.01,-2.99,-0,-0,-0,0.01,,79,1719,7,35,92,0.908,0.0,194,4.32,13.5,0.0,1,0.1,3.17,2.7,0,0,0,1,0,,,,,,,,,,,,,,,,,,,,
121784,1626449493092,,,253,255,237,232,,0.01,-0.01,-3.01,-0,-0,-0,0.01,,79,1848,7,35,92,0.909,0.0,200,4.35,13.5,0.0,1,0.1,3.17,2.7,0,0,0,1,0,,,,,,,,,,,,,,,,,,,,
121804,1626449493112,,,253,255,237,232,,-0.0,-0.0,-2.98,-0,-0,-0,0.0,,79,1938,7,35,91,0.911,0.0,202,4.27,13.2,0.0,1,0.1,3.17,2.7,0,0,0,1,0,,,,,,,,,,,,,,,,,,,,
121824,1626449493132,,,253,256,237,232,,0.0,-0.01,-2.98,-0,-0,-0,0.01,,79,1898,7,35,92,0.912,0.0,200,4.24,13.4,0.0,1,0.0,3.17,2.8,0,0,0,1,0,,,,,,,,,,,,,,,,,,,,
121844,1626449493152,1,2,252,256,237,232,5,0.01,-0.01,-2.98,-0,-0,-0,0.01,0,79,1819,7,35,92,0.914,0.0,200,4.32,13.5,0.0,1,0.0,3.17,2.8,0,0,0,1,0,0,250,250,0,45.847061,5.177974,0.0,221.4,9,3,1.7,0,0.0,1,0.1483,0.0,1.1033,1,0.18,2.0307
121864,1626449493172,,,253,255,237,232,,0.01,-0.0,-2.99,-0,-0,-0,0.01,,79,1784,7,35,92,0.916,0.0,200,4.37,13.5,0.0,1,0.0,3.17,2.8,0,0,0,1,0,,,,,,,,,,,,,,,,,,,,
121884,1626449493192,,,253,256,237,232,,0.01,-0.0,-2.97,-0,-0,-0,0.01,,79,1886,7,35,91,0.918,0.0,200,4.25,13.2,0.0,1,0.0,3.17,2.8,0,0,0,1,0,,,,,,,,,,,,,,,,,,,,
121904,1626449493212,,,253,255,237,232,,0.0,-0.0,-2.98,-0,-0,-0,0.0,,79,1922,7,35,92,0.92,0.0,200,4.2,13.5,0.0,1,0.0,3.17,2.8,0,0,0,1,0,,,,,,,,,,,,,,,,,,,,
121924,1626449493232,,,253,255,237,232,,0.01,-0.0,-3.0,-0,-0,-0,0.01,,79,1882,7,35,92,0.924,0.0,201,4.31,13.5,0.0,1,0.0,3.17,2.8,0,0,0,1,0,,,,,,,,,,,,,,,,,,,,
121944,1626449493252,0,1,253,256,237,232,5,0.01,-0.0,-3.01,-0,-0,0,0.01,0,79,1803,7,35,92,0.925,0.0,200,4.33,13.5,0.0,1,0.0,3.17,2.8,0,0,0,1,0,0,250,250,0,45.847061,5.177974,0.0,221.4,9,3,1.7,0,0.0,1,0.1483,,1.105,1,0.18,2.0324
121964,1626449493272,,,253,256,237,232,,0.01,-0.0,-3.02,-0,-0,0,0.02,,79,1791,7,35,91,0.926,0.0,197,4.33,13.4,0.0,1,0.0,3.17,2.8,0,0,0,1,0,,,,,,,,,,,,,,,,,,,,
121984,1626449493292,,,252,256,237,232,,0.01,-0.0,-3.0,-0,-0,-0,0.01,,79,1892,7,35,91,0.928,0.0,197,4.29,13.2,0.0,1,0.0,3.17,2.8,0,0,0,1,0,,,,,,,,,,,,,,,,,,,,
122004,1626449493312,,,253,256,237,232,,0.01,-0.0,-3.01,-0,-0,-0,0.01,,79,1904,7,35,92,0.929,0.0,200,4.26,13.5,0.0,1,0.0,3.17,2.8,0,0,0,1,0,,,,,,,,,,,,,,,,,,,,
122024,1626449493332,,,252,256,237,232,,0.02,-0.0,-3.01,-0,-0,-0,0.02,,79,1877,7,35,92,0.93,0.0,200,4.34,13.4,0.0,1,-0.1,3.17,2.7,0,0,0,1,0,,,,,,,,,,,,,,,,,,,,
122044,1626449493352,1,1,253,256,237,232,4,0.02,-0.0,-3.01,-0,-0,-0,0.02,0,79,1794,7,35,91,0.931,0.0,200,4.36,13.4,0.0,1,-0.1,3.17,2.7,0,0,0,1,0,0,250,250,0,45.847061,5.177974,0.0,221.4,9,3,1.7,0,0.0,1,0.1483,0.0,1.1067,1,0.18,2.0341
122064,1626449493372,,,253,255,237,232,,0.01,0.0,-3.01,-0,-0,-0,0.01,,79,1754,7,35,91,0.931,0.0,197,4.28,13.4,0.0,1,-0.1,2.09,2.7,0,0,0,1,0,,,,,,,,,,,,,,,,,,,,
122084,1626449493392,,,252,256,237,232,,0.01,0.0,-3.0,-0,-0,-0,0.01,,79,1887,7,35,92,0.933,0.0,196,4.3,13.4,0.0,1,-0.1,3.17,2.7,0,0,0,1,0,,,,,,,,,,,,,,,,,,,,
122104,1626449493412,,,253,256,237,232,,0.01,0.0,-3.02,-0,-0,-0,0.01,,79,1982,7,35,92,0.933,0.0,203,4.35,13.5,0.0,1,-0.1,3.17,2.7,0,0,0,1,0,,,,,,,,,,,,,,,,,,,,
122124,1626449493432,,,252,256,237,232,,0.01,0.0,-3.01,-0,-0,-0,0.02,,79,1931,7,35,91,0.932,0.0,206,4.33,13.5,0.0,1,-0.1,3.17,2.8,0,0,0,1,0,,,,,,,,,,,,,,,,,,,,
122144,1626449493452,-1,2,253,256,237,232,5,0.01,-0.0,-3.03,-0,-0,-0,0.01,0,79,1788,7,35,91,0.932,0.0,200,4.26,13.4,0.0,1,-0.1,3.17,2.8,0,0,0,1,0,0,250,250,0,45.847061,5.177974,0.0,221.4,9,3,1.7,0,0.0,1,0.1483,,1.1083,1,0.18,2.0357
122164,1626449493472,,,253,256,237,232,,0.0,0.0,-3.01,-0,0,-0,0.0,,79,1813,7,35,91,0.931,0.0,196,4.27,13.5,0.0,1,-0.1,3.17,2.8,0,0,0,1,0,,,,,,,,,,,,,,,,,,,,
122184,1626449493492,,,253,256,237,232,,0.0,-0.0,-3.04,-0,-0,-0,0.01,,79,1958,7,35,92,0.931,0.0,205,4.31,13.5,0.0,1,-0.1,3.17,2.8,0,0,0,1,0,,,,,,,,,,,,,,,,,,,,
122204,1626449493512,,,253,256,237,232,,0.01,-0.01,-3.04,-0,-0,-0,0.01,,79,1995,7,35,91,0.931,0.0,208,4.34,13.4,0.0,1,-0.1,3.17,2.8,0,0,0,1,0,,,,,,,,,,,,,,,,,,,,
122224,1626449493532,,,253,255,237,232,,-0.0,-0.01,-3.02,-0,-0,-0,0.01,,79,1952,7,35,91,0.931,0.0,205,4.36,13.3,0.0,1,-0.2,3.17,2.9,0,0,0,1,0,,,,,,,,,,,,,,,,,,,,
122244,1626449493552,0,1,253,256,237,232,4,0.0,-0.01,-3.03,-0,-0,-0,0.01,1,79,1885,7,35,91,0.93,0.0,204,4.35,13.5,0.0,1,-0.2,3.17,2.9,0,0,0,1,0,0,250,250,0,45.847061,5.177974,0.0,221.4,9,3,1.7,0,0.0,1,0.1483,0.0,1.11,1,0.18,2.0374
122264,1626449493572,,,253,255,237,232,,0.01,-0.01,-3.01,-0,-0,-0,0.01,,79,1871,7,35,91,0.929,0.0,205,4.37,13.5,0.0,1,-0.2,3.17,2.9,0,0,0,1,0,,,,,,,,,,,,,,,,,,,,
122284,1626449493592,,,253,255,237,232,,0.0,-0.01,-2.99,-0,-0,-0,0.01,,79,1995,7,35,91,0.928,0.0,207,4.24,13.2,0.0,1,-0.2,3.17,2.9,0,0,0,1,0,,,,,,,,,,,,,,,,,,,,
122304,1626449493612,,,253,256,237,232,,-0.0,-0.01,-3.01,-0,-0,-0,0.01,,79,1998,7,35,91,0.926,0.0,206,4.32,13.5,0.0,1,-0.2,3.17,2.9,0,0,0,1,0,,,,,,,,,,,,,,,,,,,,
122324,1626449493632,,,252,256,237,232,,0.01,-0.01,-3.02,-0,-0,-0,0.01,,79,1961,7,35,91,0.925,0.0,206,4.31,13.5,0.0,1,24.3,3.17,2.9,0,0,0,1,0,,,,,,,,,,,,,,,,,,,,
122344,1626449493652,0,2,253,255,237,232,4,0.01,-0.01,-3.01,-0,-0,-0,0.01,1,79,1871,7,35,91,0.924,0.0,205,4.26,13.4,0.0,1,-0.2,3.17,2.9,0,0,0,1,0,0,250,250,0,45.847061,5.177974,0.0,221.4,9,3,1.7,0,0.0,1,0.1483,,1.1117,1,0.18,2.0391
122364,1626449493672,,,253,256,237,232,,-0.0,-0.01,-2.99,-0,-0,-0,0.01,,79,1922,7,35,91,0.923,0.0,205,4.29,13.4,0.0,1,-0.2,3.17,2.9,0,0,0,1,0,,,,,,,,,,,,,,,,,,,,
122384,1626449493692,,,252,255,237,232,,0.01,-0.01,-3.0,-0,-0,-0,0.01,,79,1969,7,35,92,0.923,0.0,206,4.31,13.5,0.0,1,-0.2,3.17,2.9,0,0,0,1,0,,,,,,,,,,,,,,,,,,,,
122404,1626449493712,,,253,255,237,232,,0.01,-0.01,-2.99,-0,-0,-0,0.01,,79,1983,7,35,91,0.923,0.0,206,4.27,13.5,0.0,1,-0.2,3.17,2.9,0,0,0,1,0,,,,,,,,,,,,,,,,,,,,
122424,1626449493732,,,253,255,237,232,,0.01,-0.01,-2.98,-0,-0,-0,0.01,,79,1847,7,35,91,0.922,0.0,205,4.21,13.3,0.0,1,-0.3,3.17,2.8,0,0,0,1,0,,,,,,,,,,,,,,,,,,,,
122444,1626449493752,1,2,252,256,237,232,5,0.0,-0.01,-2.96,-0,-0,-0,0.01,1,79,1793,7,35,91,0.921,0.0,203,4.27,13.5,0.0,1,-0.3,3.17,2.8,0,0,0,1,0,0,250,250,0,45.847061,5.177974,0.0,221.4,9,3,1.7,0,0.0,1,0.1483,0.0,1.1133,1,0.18,2.0407
122464,1626449493772,,,253,255,237,232,,0.01,-0.01,-2.98,-0,-0,-0,0.01,,79,1861,7,35,92,0.921,0.0,200,4.32,13.5,0.0,1,-0.3,3.17,2.8,0,0,0,1,0,,,,,,,,,,,,,,,,,,,,
122484,1626449493791,,,253,256,237,232,,0.01,-0.01,-2.99,-0,-0,-0,0.02,,79,1962,7,35,91,0.922,0.0,204,4.36,13.5,0.0,1,-0.3,3.17,2.8,0,0,0,1,0,,,,,,,,,,,,,,,,,,,,
122504,1626449493811,,,253,256,237,232,,0.01,-0.0,-2.96,-0,-0,-0,0.01,,79,1904,7,35,91,0.922,0.0,205,4.35,13.2,0.0,1,-0.3,3.17,2.8,0,0,0,1,0,,,,,,,,,,,,,,,,,,,,
122524,1626449493831,,,253,256,237,232,,0.0,-0.0,-2.97,-0,-0,-0,0.0,,79,1833,7,35,91,0.922,0.0,203,4.32,13.5,0.0,1,-0.3,3.17,2.7,0,0,0,1,0,,,,,,,,,,,,,,,,,,,,
122544,1626449493851,1,2,252,256,237,232,5,0.01,-0.0,-2.97,-0,-0,-0,0.01,1,79,1784,7,35,91,0.923,0.0,198,4.25,13.5,0.0,1,-0.3,3.17,2.7,0,0,0,1,0,0,250,250,0,45.847061,5.177974,0.0,221.4,9,3,1.7,0,0.0,1,0.1483,,1.115,1,0.18,2.0424
122564,1626449493871,,,253,255,237,232,,0.01,-0.0,-2.97,-0,-1,-0,0.01,,79,1838,7,35,91,0.924,0.0,200,4.3,13.4,0.0,1,-0.3,3.17,2.7,0,0,0,1,0,,,,,,,,,,,,,,,,,,,,
122584,1626449493891,,,253,256,237,232,,0.01,-0.0,-2.94,-0,-0,-0,0.01,,79,1945,7,35,91,0.925,0.0,202,4.28,13.3,0.0,1,-0.3,3.17,2.7,0,0,0,1,0,,,,,,,,,,,,,,,,,,,,
122604,1626449493911,,,253,256,237,232,,0.0,0.0,-2.96,-0,-0,-0,0.0,,79,1888,7,35,91,0.923,0.0,202,4.28,13.5,0.0,1,-0.3,3.17,2.7,0,0,0,1,0,,,,,,,,,,,,,,,,,,,,
122624,1626449493931,,,253,256,237,232,,0.01,0.0,-2.98,-0,-0,-0,0.01,,79,1808,7,35,91,0.923,0.0,200,4.28,13.5,0.0,1,-0.4,3.17,2.7,0,0,0,1,0,,,,,,,,,,,,,,,,,,,,
122644,1626449493951,0,1,253,256,237,232,4,0.01,-0.0,-2.98,-0,-0,-0,0.01,1,79,1755,7,35,92,0.923,0.0,197,4.33,13.5,0.0,1,-0.4,3.17,2.7,0,0,0,1,0,0,250,250,0,45.847061,5.177974,0.0,221.4,9,3,1.7,0,0.0,1,0.1483,0.0,1.1167,1,0.18,2.0441
122664,1626449493971,,,253,256,237,232,,0.01,-0.0,-2.99,-0,-0,-0,0.01,,79,1881,7,35,91,0.922,0.0,197,4.31,13.4,0.0,1,-0.4,3.17,2.7,0,0,0,1,0,,,,,,,,,,,,,,,,,,,,
122684,1626449493991,,,253,256,237,232,,0.0,-0.0,-2.98,-0,-0,-0,0.0,,79,1932,7,35,92,0.921,0.0,201,4.32,13.5,0.0,1,-0.4,3.17,2.7,0,0,0,1,0,,,,,,,,,,,,,,,,,,,,
122704,1626449494005,,,253,256,237,232,,0.01,0.0,-2.99,-0,-0,-0,0.01,,79,1899,7,35,92,0.921,0.0,202,4.3,13.4,0.0,1,-0.4,3.17,2.7,0,0,0,1,0,,,,,,,,,,,,,,,,,,,,
122724,1626449494025,,,253,256,237,232,,0.01,0.0,-3.0,-0,-0,-0,0.01,,79,1819,7,35,92,0.919,0.0,198,4.29,13.4,0.0,1,-0.4,3.17,2.7,0,0,0,1,0,,,,,,,,,,,,,,,,,,,,
122744,1626449494045,-1,2,253,255,237,232,5,0.01,0.0,-3.01,-0,-0,-0,0.01,1,79,1733,7,35,92,0.918,0.0,195,4.26,13.5,0.0,1,-0.4,3.17,2.7,0,0,0,1,0,0,250,250,0,45.847061,5.177974,0.0,221.4,9,3,1.7,0,0.0,1,0.1483,,1.1183,1,0.18,2.0457
122764,1626449494065,,,253,255,237,232,,0.01,0.01,-3.01,-0,-0,-0,0.01,,79,1794,7,35,91,0.917,0.0,197,4.26,13.3,0.0,1,-0.4,3.17,2.7,0,0,0,1,0,,,,,,,,,,,,,,,,,,,,
122784,1626449494093,,,253,255,237,232,,0.0,0.01,-3.0,-0,-0,-0,0.01,,79,1844,7,35,91,0.916,0.0,197,4.3,13.4,0.0,1,-0.4,3.17,2.7,0,0,0,1,0,,,,,,,,,,,,,,,,,,,,
122804,1626449494113,,,253,255,237,232,,0.01,0.01,-3.02,-0,-0,-0,0.01,,79,1852,7,35,92,0.916,0.0,197,4.36,13.5,0.0,1,-0.4,3.17,2.7,0,0,0,1,0,,,,,,,,,,,,,,,,,,,,
122824,1626449494133,,,253,255,237,232,,0.01,0.01,-3.02,-0,-0,-0,0.01,,79,1848,7,35,92,0.915,0.0,198,4.32,13.5,0.0,1,-0.5,3.17,2.7,0,0,0,1,0,,,,,,,,,,,,,,,,,,,,
122844,1626449494153,-0,2,253,256,237,232,5,0.01,0.01,-3.02,-0,-0,-0,0.02,1,79,1757,7,35,92,0.914,0.0,197,4.24,13.5,0.0,1,-0.5,3.17,2.7,0,0,0,1,0,0,250,250,0,45.847061,5.177974,0.0,221.4,9,3,1.7,0,0.0,1,0.1483,0.0,1.12,1,0.18,2.0474
122864,1626449494173,,,253,256,237,232,,0.02,0.01,-3.03,-0,-0,-0,0.02,,79,1690,7,35,92,0.914,0.0,194,4.36,13.4,0.0,1,-0.5,3.17,2.7,0,0,0,1,0,,,,,,,,,,,,,,,,,,,,
122884,1626449494193,,,253,255,237,232,,0.01,0.01,-3.02,-0,0,-0,0.01,,79,1761,7,35,91,0.913,0.0,192,4.35,13.2,0.0,1,-0.5,3.17,2.7,0,0,0,1,0,,,,,,,,,,,,,,,,,,,,
122904,1626449494213,,,253,255,237,232,,0.0,0.01,-3.0,-0,-0,-0,0.01,,79,1768,7,35,92,0.913,0.0,192,4.26,13.4,0.0,1,-0.5,3.17,2.7,0,0,0,1,0,,,,,,,,,,,,,,,,,,,,
122924,1626449494233,,,253,255,237,232,,0.0,0.01,-3.0,-0,-0,-0,0.01,,79,1762,7,35,92,0.912,0.0,193,4.36,13.4,0.0,1,-0.5,3.17,2.5,0,0,0,1,0,,,,,,,,,,,,,,,,,,,,
122944,1626449494253,0,1,253,255,237,232,5,0.0,0.0,-3.01,-0,-0,-0,0.01,1,79,1704,7,35,92,0.912,0.0,194,4.27,13.5,0.0,1,-0.5,3.17,2.5,0,0,0,1,0,15,250,250,0,45.847061,5.177974,0.0,221.4,9,3,1.7,0,0.0,1,0.1483,,1.1217,1,0.18,2.0491
122964,1626449494273,,,252,256,237,232,,0.01,0.0,-3.02,-0,-0,-0,0.01,,79,1621,7,35,92,0.912,0.0,189,4.35,13.5,0.0,1,-0.5,3.17,2.5,0,0,0,1,0,,,,,,,,,,,,,,,,,,,,
122984,1626449494293,,,253,256,237,232,,0.01,0.0,-3.02,-0,-0,0,0.01,,79,1578,7,35,92,0.912,0.0,186,4.36,13.5,0.0,1,-0.5,3.17,2.5,0,0,0,1,0,,,,,,,,,,,,,,,,,,,,
123004,1626449494313,,,252,256,237,232,,0.02,0.01,-3.02,-0,-0,-0,0.02,,79,1635,7,35,92,0.912,0.0,187,4.35,13.5,0.0,1,-0.5,3.17,2.5,0,0,0,1,0,,,,,,,,,,,,,,,,,,,,
123024,1626449494333,,,253,255,237,232,,0.02,0.01,-3.04,-0,-0,-0,0.02,,79,1726,7,35,92,0.911,0.0,189,4.36,13.3,0.0,1,-0.5,2.09,2.5,0,0,0,1,0,,,,,,,,,,,,,,,,,,,,
123044,1626449494353,0,3,253,256,237,232,5,0.01,0.0,-3.03,-0,-0,-0,0.01,1,79,1676,7,35,92,0.909,0.0,191,4.31,13.1,0.0,1,-0.5,3.17,2.5,0,0,0,1,0,31,250,250,0,45.847061,5.177974,0.0,221.4,9,3,1.7,0,0.0,1,0.1483,0.0,1.1233,1,0.18,2.0507
123064,1626449494373,,,253,255,237,232,,0.01,0.01,-3.0,-0,-0,-0,0.01,,79,1620,7,35,92,0.909,0.0,186,4.25,13.4,0.0,1,-0.5,3.17,2.5,0,0,0,1,0,,,,,,,,,,,,,,,,,,,,
123084,1626449494393,,,253,256,237,232,,0.01,0.01,-2.99,-0,-0,-0,0.01,,79,1550,7,35,92,0.909,0.0,183,4.28,13.3,0.0,1,-0.5,3.17,2.5,0,0,0,1,0,,,,,,,,,,,,,,,,,,,,
123104,1626449494413,,,253,255,237,232,,0.01,0.01,-2.97,-0,-0,-0,0.01,,79,1542,7,35,92,0.909,0.0,182,4.35,13.4,0.0,1,-0.5,3.17,2.5,0,0,0,1,0,,,,,,,,,,,,,,,,,,,,
123124,1626449494433,,,253,255,237,232,,0.0,0.01,-2.97,-0,-0,-0,0.01,,79,1608,7,35,93,0.908,0.0,184,4.3,13.5,0.0,1,-0.5,3.17,2.2,0,0,0,1,0,,,,,,,,,,,,,,,,,,,,
123144,1626449494453,-1,2,253,255,237,232,5,0.0,0.01,-2.97,-0,-0,-0,0.01,0,79,1706,7,35,93,0.909,0.0,187,4.31,13.5,0.0,1,-0.5,3.17,2.2,0,0,0,1,0,31,250,250,0,45.847061,5.177974,0.0,221.4,9,3,1.7,0,0.0,1,0.1483,,1.125,1,0.18,2.0524
123164,1626449494473,,,253,256,237,232,,0.0,0.01,-2.98,-0,-0,-0,0.01,,79,1689,7,35,93,0.908,0.0,187,4.33,13.5,0.0,1,-0.5,3.17,2.2,0,0,0,1,0,,,,,,,,,,,,,,,,,,,,
123184,1626449494493,,,253,255,237,232,,0.01,0.0,-3.0,-0,-0,-0,0.01,,79,1632,7,35,93,0.907,0.0,185,4.37,13.4,0.0,1,-0.5,3.17,2.2,0,0,0,1,0,,,,,,,,,,,,,,,,,,,,
123204,1626449494513,,,253,256,237,232,,0.01,0.0,-2.99,-0,-1,-0,0.01,,79,1548,7,35,93,0.907,0.0,184,4.28,13.4,0.0,1,-0.5,3.17,2.2,0,0,0,1,0,,,,,,,,,,,,,,,,,,,,
123224,1626449494533,,,253,256,237,232,,0.02,0.0,-2.99,-0,-1,-0,0.02,,79,1523,7,35,93,0.907,0.0,184,4.32,13.4,0.0,1,-0.2,3.17,2.2,0,0,0,1,0,,,,,,,,,,,,,,,,,,,,
123244,1626449494553,-0,2,253,255,237,232,5,0.02,0.0,-3.0,-0,-1,-0,0.03,0,79,1614,7,35,93,0.907,0.0,184,4.36,13.4,0.0,1,-0.2,3.17,2.2,0,0,0,1,0,8,250,250,0,45.847061,5.177974,0.0,221.4,9,3,1.7,0,0.0,1,0.1483,0.0,1.1267,1,0.18,2.0541
123264,1626449494573,,,253,256,237,232,,0.02,0.01,-3.0,-0,-0,-0,0.03,,79,1774,7,35,92,0.906,0.0,187,4.25,13.4,0.0,1,-0.2,3.17,2.2,0,0,0,1,0,,,,,,,,,,,,,,,,,,,,
123284,1626449494593,,,253,255,237,232,,0.02,0.01,-2.99,-0,-0,-0,0.02,,79,1736,7,35,92,0.906,0.0,187,4.32,13.1,0.0,1,-0.2,3.17,2.2,0,0,0,1,0,,,,,,,,,,,,,,,,,,,,
123304,1626449494609,,,253,256,237,232,,0.02,0.01,-2.98,-0,-0,-0,0.02,,79,1637,7,35,92,0.906,0.0,187,4.31,13.4,0.0,1,-0.2,3.17,2.2,0,0,0,1,0,,,,,,,,,,,,,,,,,,,,
123324,1626449494629,,,253,256,237,232,,0.02,0.0,-2.97,-0,-0,-0,0.02,,79,1552,7,35,92,0.906,0.0,184,4.38,13.5,0.0,1,-0.2,3.17,2.3,0,0,0,1,0,,,,,,,,,,,,,,,,,,,,
123344,1626449494649,0,2,252,255,237,232,4,0.01,0.01,-2.96,-0,-0,-0,0.01,0,79,1565,7,35,92,0.905,0.0,182,4.32,13.4,0.0,1,-0.2,3.17,2.3,0,0,0,1,0,8,250,250,0,45.847061,5.177974,0.0,221.4,9,3,1.7,0,0.0,1,0.1483,,1.1283,1,0.18,2.0557
123364,1626449494669,,,252,255,237,232,,0.01,0.0,-2.97,-0,-0,-0,0.01,,79,1726,7,35,93,0.904,0.0,186,4.35,13.5,0.0,1,-0.2,3.17,2.3,0,0,0,1,0,,,,,,,,,,,,,,,,,,,,
123384,1626449494693,,,253,256,237,232,,0.02,0.0,-2.98,-0,-0,-0,0.02,,79,1832,7,35,93,0.904,0.0,193,4.36,13.5,0.0,1,-0.2,3.17,2.3,0,0,0,1,0,,,,,,,,,,,,,,,,,,,,
123404,1626449494713,,,253,255,237,232,,0.01,0.01,-2.99,-0,-0,-0,0.02,,79,1838,7,35,92,0.902,0.0,198,4.28,13.3,0.0,1,-0.2,3.17,2.3,0,0,0,1,0,,,,,,,,,,,,,,,,,,,,
123424,1626449494733,,,252,255,237,232,,0.01,0.01,-2.96,-0,-0,-0,0.02,,79,1749,7,35,92,0.902,0.0,195,4.31,13.2,0.0,1,-0.1,3.17,2.7,0,0,0,1,0,,,,,,,,,,,,,,,,,,,,
123444,1626449494753,0,2,253,255,237,232,4,0.01,0.01,-2.97,-0,-0,-0,0.01,0,79,1661,7,35,92,0.902,0.0,189,4.32,13.4,0.0,1,-0.1,3.17,2.7,0,0,0,1,0,11,250,250,0,45.847061,5.177974,0.0,221.4,9,3,1.7,0,0.0,1,0.1483,0.0,1.13,1,0.18,2.0574
123464,1626449494773,,,253,256,237,232,,0.01,0.0,-2.97,-0,-0,-0,0.01,,79,1707,7,35,92,0.901,0.0,191,4.43,13.5,0.0,1,-0.1,3.17,2.7,0,0,0,1,0,,,,,,,,,,,,,,,,,,,,
123484,1626449494793,,,253,256,237,232,,0.01,-0.0,-2.96,-0,-0,-0,0.01,,79,1870,7,35,92,0.9,0.0,199,4.39,13.5,0.0,1,-0.1,3.17,2.7,0,0,0,1,0,,,,,,,,,,,,,,,,,,,,
123504,1626449494813,,,253,256,237,232,,0.01,-0.0,-2.97,-0,-0,-0,0.01,,79,1913,7,35,92,0.9,0.0,199,4.29,13.3,0.0,1,-0.1,3.17,2.7,0,0,0,1,0,,,,,,,,,,,,,,,,,,,,
123524,1626449494833,,,253,255,237,232,,0.0,-0.01,-2.96,-0,-0,-0,0.01,,79,1892,7,35,91,0.9,0.0,198,4.36,13.4,0.0,1,-0.1,3.17,2.8,0,0,0,1,0,,,,,,,,,,,,,,,,,,,,
123544,1626449494853,0,1,253,255,237,232,5,0.0,-0.01,-2.96,-0,-0,-0,0.01,0,79,1807,7,35,92,0.899,0.0,199,4.24,13.4,0.0,1,-0.1,3.17,2.8,0,0,0,1,0,11,250,250,0,45.847061,5.177974,0.0,221.4,9,3,1.7,0,0.0,1,0.1483,,1.1317,1,0.18,2.0591
123564,1626449494873,,,253,256,237,232,,0.01,-0.01,-2.96,-0,-0,-0,0.01,,79,1765,7,35,92,0.899,0.0,198,4.28,13.5,0.0,1,-0.1,3.17,2.8,0,0,0,1,0,,,,,,,,,,,,,,,,,,,,
123584,1626449494892,,,252,256,237,232,,0.01,-0.01,-2.97,-0,-0,-0,0.02,,79,1773,7,35,92,0.9,0.0,197,4.35,13.4,0.0,1,-0.1,3.17,2.8,0,0,0,1,0,,,,,,,,,,,,,,,,,,,,
123604,1626449494912,,,253,256,237,232,,0.01,-0.01,-2.96,-0,-0,-0,0.01,,79,1829,7,35,92,0.901,0.0,197,4.25,13.3,0.0,1,-0.1,3.17,2.8,0,0,0,1,0,,,,,,,,,,,,,,,,,,,,
123624,1626449494932,,,253,255,237,232,,0.0,-0.01,-2.95,-0,-0,-0,0.01,,79,1831,7,35,92,0.901,0.0,197,4.3,13.4,0.0,1,-0.1,3.17,2.6,0,0,0,1,0,,,,,,,,,,,,,,,,,,,,
123644,1626449494952,-1,2,253,256,237,232,5,0.0,-0.01,-2.95,-0,-0,-0,0.01,0,79,1759,7,35,92,0.903,0.0,194,4.3,13.5,0.0,1,-0.1,3.17,2.6,0,0,0,1,0,11,250,250,0,45.847061,5.177974,0.0,221.4,9,3,1.7,0,0.0,1,0.1483,0.0,1.1333,1,0.18,2.0607
123664,1626449494972,,,253,256,237,232,,0.01,-0.01,-2.96,-0,-0,-0,0.01,,79,1717,7,35,92,0.906,0.0,195,4.29,13.5,0.0,1,-0.1,3.17,2.6,0,0,0,1,0,,,,,,,,,,,,,,,,,,,,
123684,1626449494992,,,253,256,237,232,,0.01,-0.01,-2.97,-0,-0,-0,0.01,,79,1702,7,35,92,0.907,0.0,192,4.34,13.5,0.0,1,-0.1,3.17,2.6,0,0,0,1,0,,,,,,,,,,,,,,,,,,,,
123704,1626449495004,,,253,255,237,232,,0.02,-0.01,-2.97,-0,-0,-0,0.02,,79,1731,7,35,92,0.91,0.0,192,4.39,13.4,0.0,1,-0.1,3.17,2.6,0,0,0,1,0,,,,,,,,,,,,,,,,,,,,
123724,1626449495024,,,253,255,237,232,,0.01,-0.01,-2.97,-0,-0,-0,0.02,,79,1778,7,35,92,0.913,0.0,192,4.29,13.1,0.0,1,-0.1,3.17,2.6,0,0,0,1,0,,,,,,,,,,,,,,,,,,,,
123744,1626449495044,1,1,253,256,237,232,5,0.01,-0.01,-2.95,-0,-0,-0,0.01,0,79,1728,7,35,92,0.915,0.0,194,4.26,13.4,0.0,1,-0.1,3.17,2.6,0,0,0,1,0,11,250,250,0,45.847061,5.177974,0.0,221.4,9,3,1.7,0,0.0,1,0.1483,,1.135,1,0.18,2.0624
123764,1626449495064,,,253,256,237,232,,0.0,-0.01,-2.96,-0,-0,-0,0.01,,79,1696,7,35,92,0.917,0.0,192,4.3,13.5,0.0,1,-0.1,3.17,2.6,0,0,0,1,0,,,,,,,,,,,,,,,,,,,,
123784,1626449495092,,,253,255,237,232,,0.0,-0.01,-2.96,-0,-0,-0,0.01,,79,1640,7,35,92,0.919,0.0,188,4.31,13.5,0.0,1,-0.1,3.17,2.6,0,0,0,1,0,,,,,,,,,,,,,,,,,,,,
123804,1626449495112,,,253,256,237,232,,0.0,-0.01,-2.98,-0,-0,-0,0.01,,79,1672,7,35,93,0.922,0.0,187,4.28,13.5,0.0,1,-0.1,3.17,2.6,0,0,0,1,0,,,,,,,,,,,,,,,,,,,,
123824,1626449495132,,,253,255,237,232,,0.01,-0.02,-2.98,-0,-0,-0,0.02,,79,1705,7,35,93,0.923,0.0,191,4.35,13.5,0.0,1,-0.1,3.17,2.4,0,0,0,1,0,,,,,,,,,,,,,,,,,,,,
123844,1626449495152,-0,2,253,255,237,232,5,0.01,-0.01,-2.98,-0,-0,-0,0.02,0,79,1737,7,35,92,0.925,0.0,192,4.41,13.5,0.0,1,-0.1,3.17,2.4,0,0,0,1,0,11,250,250,0,45.847061,5.177974,0.0,221.4,9,3,1.7,0,0.0,1,0.1483,0.0,1.1367,1,0.18,2.0641
123864,1626449495172,,,252,256,237,232,,0.01,-0.01,-3.0,-0,-0,-0,0.01,,79,1639,7,35,92,0.927,0.0,189,4.41,13.4,0.0,1,-0.1,3.17,2.4,0,0,0,1,0,,,,,,,,,,,,,,,,,,,,
123884,1626449495192,,,253,256,237,232,,0.01,-0.01,-3.03,-0,-0,-0,0.01,,79,1565,7,35,92,0.929,0.0,186,4.26,13.3,0.0,1,-0.1,2.09,2.4,0,0,0,1,0,,,,,,,,,,,,,,,,,,,,
123904,1626449495212,,,252,256,237,232,,0.0,-0.01,-3.04,-0,-0,-0,0.01,,79,1537,7,35,92,0.93,0.0,184,4.32,13.2,0.0,1,-0.1,3.17,2.4,0,0,0,1,0,,,,,,,,,,,,,,,,,,,,
123924,1626449495232,,,253,255,237,232,,-0.0,-0.0,-3.01,-0,0,-0,0.0,,79,1616,7,35,92,0.93,0.0,184,4.35,13.2,0.0,1,-0.1,3.17,2.2,0,0,0,1,0,,,,,,,,,,,,,,,,,,,,
123944,1626449495252,-1,2,253,255,237,232,5,-0.01,-0.0,-2.99,-0,0,-0,0.01,0,79,1736,7,35,92,0.929,0.0,186,4.33,13.4,0.0,1,-0.1,3.17,2.2,0,0,0,1,0,0,250,250,0,45.847061,5.177974,0.0,221.4,9,3,1.7,0,0.0,1,0.1483,,1.1383,1,0.18,2.0657
123964,1626449495272,,,253,255,237,232,,-0.01,-0.0,-2.99,-0,-0,-0,0.01,,79,1723,7,35,93,0.928,0.0,187,4.28,13.5,0.0,1,-0.1,3.17,2.2,0,0,0,1,0,,,,,,,,,,,,,,,,,,,,
123984,1626449495292,,,253,256,237,232,,-0.01,-0.01,-2.99,-0,-0,-0,0.01,,79,1670,7,35,93,0.927,0.0,187,4.3,13.5,0.0,1,-0.1,3.17,2.2,0,0,0,1,0,,,,,,,,,,,,,,,,,,,,
124004,1626449495312,,,253,255,237,232,,-0.01,-0.01,-3.0,-0,-0,-0,0.01,,79,1586,7,35,93,0.925,0.0,185,4.43,13.5,0.0,1,-0.1,3.17,2.2,0,0,0,1,0,,,,,,,,,,,,,,,,,,,,
124024,1626449495332,,,253,255,237,232,,-0.0,-0.01,-2.99,-0,-0,-0,0.01,,79,1506,7,35,93,0.924,0.0,183,4.35,13.4,0.0,1,0.2,3.17,2.3,0,0,0,1,0,,,,,,,,,,,,,,,,,,,,
124044,1626449495352,1,2,252,255,237,232,5,0.0,-0.01,-2.98,-0,-1,-0,0.01,0,79,1534,7,35,93,0.922,0.0,184,4.28,13.5,0.0,1,0.2,3.17,2.3,0,0,0,1,0,0,250,250,0,45.847061,5.177974,0.0,221.4,9,3,1.7,0,0.0,1,0.1483,0.0,1.14,1,0.18,2.0674
124064,1626449495372,,,253,256,237,232,,0.01,-0.02,-2.99,-0,-1,-0,0.02,,79,1710,7,35,93,0.921,0.0,187,4.34,13.5,0.0,1,0.2,3.17,2.3,0,0,0,1,0,,,,,,,,,,,,,,,,,,,,
124084,1626449495392,,,253,255,237,232,,0.01,-0.01,-3.0,-0,-0,-0,0.01,,79,1759,7,35,92,0.918,0.0,189,4.3,13.3,0.0,1,0.2,3.17,2.3,0,0,0,1,0,,,,,,,,,,,,,,,,,,,,
124104,1626449495412,,,252,255,237,232,,0.01,-0.01,-3.0,-0,-0,-0,0.01,,79,1696,7,35,92,0.917,0.0,191,4.32,13.2,0.0,1,0.2,3.17,2.3,0,0,0,1,0,,,,,,,,,,,,,,,,,,,,
124124,1626449495432,,,253,256,237,232,,0.01,-0.01,-2.98,-0,-0,-0,0.01,,79,1619,7,35,92,0.914,0.0,189,4.23,13.4,0.0,1,0.2,3.17,2.4,0,0,0,1,0,,,,,,,,,,,,,,,,,,,,
124144,1626449495452,1,0,253,256,237,232,5,0.0,-0.01,-2.97,-0,-0,-0,0.01,0,79,1594,7,35,92,0.913,0.0,185,4.27,13.5,0.0,1,0.2,3.17,2.4,0,0,0,1,0,0,250,250,0,45.847061,5.177974,0.0,221.4,9,3,1.7,0,0.0,1,0.1483,,1.1417,1,0.18,2.0691
124164,1626449495472,,,253,256,237,232,,-0.0,-0.01,-2.97,-0,-0,-0,0.01,,79,1685,7,35,93,0.911,0.0,187,4.37,13.5,0.0,1,0.2,3.17,2.4,0,0,0,1,0,,,,,,,,,,,,,,,,,,,,
124184,1626449495492,,,252,256,237,232,,0.0,-0.01,-2.97,-0,-1,-0,0.01,,79,1763,7,35,93,0.91,0.0,192,4.28,13.5,0.0,1,0.2,3.17,2.4,0,0,0,1,0,,,,,,,,,,,,,,,,,,,,
124204,1626449495512,,,253,256,237,232,,0.01,-0.01,-2.97,-0,-0,-0,0.01,,79,1820,7,35,92,0.91,0.0,196,4.31,13.5,0.0,1,0.2,3.17,2.4,0,0,0,1,0,,,,,,,,,,,,,,,,,,,,
124224,1626449495532,,,253,256,237,232,,0.01,-0.0,-2.99,-0,-0,-0,0.01,,79,1710,7,35,92,0.908,0.0,192,4.26,13.3,0.0,1,0.3,3.17,2.6,0,0,0,1,0,,,,,,,,,,,,,,,,,,,,
124244,1626449495552,1,2,253,255,237,232,5,0.0,-0.0,-3.01,-0,-0,-0,0.0,0,79,1627,7,35,92,0.908,0.0,189,4.27,13.2,0.0,1,0.3,2.09,2.6,0,0,0,1,0,0,250,250,0,45.847061,5.177974,0.0,221.4,9,3,1.7,0,0.0,1,0.1483,0.0,1.1433,1,0.18,2.0707
124264,1626449495572,,,253,255,237,232,,0.0,0.0,-2.98,-0,-0,-0,0.0,,79,1649,7,35,92,0.907,0.0,189,4.3,13.4,0.0,1,0.3,3.17,2.6,0,0,0,1,0,,,,,,,,,,,,,,,,,,,,
124284,1626449495592,,,253,256,237,232,,-0.0,0.0,-2.97,-0,-0,-0,0.0,,79,1774,7,35,92,0.907,0.0,193,4.25,13.5,0.0,1,0.3,3.17,2.6,0,0,0,1,0,,,,,,,,,,,,,,,,,,,,
124304,1626449495612,,,253,256,237,232,,0.0,0.0,-2.98,-0,-1,-0,0.0,,79,1847,7,35,93,0.907,0.0,195,4.28,13.5,0.0,1,0.3,3.17,2.6,0,0,0,1,0,,,,,,,,,,,,,,,,,,,,
124324,1626449495632,,,253,256,237,232,,0.01,0.0,-2.99,-0,-0,-0,0.01,,79,1842,7,35,92,0.906,0.0,196,4.3,13.5,0.0,1,0.3,3.17,2.7,0,0,0,1,0,,,,,,,,,,,,,,,,,,,,
124344,1626449495652,-1,2,253,255,237,232,5,0.01,-0.0,-3.0,-0,-0,-0,0.01,0,79,1692,7,35,92,0.906,0.0,193,4.23,13.4,0.0,1,0.3,3.17,2.7,0,0,0,1,0,0,250,250,0,45.847061,5.177974,0.0,221.4,9,3,1.7,0,0.0,1,0.1483,,1.145,1,0.18,2.0724
124364,1626449495672,,,253,256,237,232,,0.01,0.0,-3.01,-0,-0,-0,0.01,,79,1635,7,35,92,0.905,0.0,190,4.25,13.3,0.0,1,0.3,3.17,2.7,0,0,0,1,0,,,,,,,,,,,,,,,,,,,,
124384,1626449495692,,,253,256,237,232,,-0.0,0.01,-2.99,-0,-0,-0,0.01,,79,1725,7,35,92,0.904,0.0,191,4.26,13.4,0.0,1,0.3,3.17,2.7,0,0,0,1,0,,,,,,,,,,,,,,,,,,,,
124404,1626449495712,,,253,256,237,232,,-0.0,0.0,-2.99,-0,-0,-0,0.01,,79,1880,7,35,92,0.905,0.0,196,4.28,13.5,0.0,1,0.3,3.17,2.7,0,0,0,1,0,,,,,,,,,,,,,,,,,,,,
124424,1626449495732,,,253,256,237,232,,0.0,0.01,-2.98,-0,-0,-0,0.01,,79,1884,7,35,92,0.905,0.0,197,4.3,13.5,0.0,1,0.3,3.17,2.7,0,0,0,1,0,,,,,,,,,,,,,,,,,,,,
124444,1626449495752,0,2,253,256,237,232,5,0.0,0.0,-2.97,-0,-0,-0,0.01,0,79,1782,7,35,92,0.905,0.0,198,4.36,13.4,0.0,1,0.3,3.17,2.7,0,0,0,1,0,0,250,250,0,45.847061,5.177974,0.0,221.4,9,3,1.7,0,0.0,1,0.1483,0.0,1.1467,1,0.18,2.0741
124464,1626449495772,,,253,256,237,232,,-0.0,0.01,-2.99,-0,-0,-0,0.01,,79,1717,7,35,91,0.906,0.0,194,4.4,13.2,0.0,1,0.3,3.17,2.7,0,0,0,1,0,,,,,,,,,,,,,,,,,,,,
124484,1626449495793,,,253,256,237,232,,-0.01,0.01,-2.97,-0,-0,-0,0.01,,79,1729,7,35,92,0.906,0.0,192,4.37,13.4,0.0,1,0.3,3.17,2.7,0,0,0,1,0,,,,,,,,,,,,,,,,,,,,
124504,1626449495813,,,253,256,237,232,,-0.0,0.01,-2.99,-0,-0,-0,0.01,,79,1836,7,35,92,0.907,0.0,195,4.31,13.5,0.0,1,0.3,2.09,2.7,0,0,0,1,0,,,,,,,,,,,,,,,,,,,,
124524,1626449495833,,,253,256,237,232,,0.0,0.01,-2.99,-0,-0,-0,0.01,,79,1910,7,35,92,0.907,0.0,201,4.32,13.5,0.0,1,0.3,3.17,2.6,0,0,0,1,0,,,,,,,,,,,,,,,,,,,,
124544,1626449495853,-0,2,253,255,237,232,5,-0.0,0.01,-3.0,-0,-0,-0,0.01,0,79,1812,7,35,92,0.908,0.0,203,4.34,13.4,0.0,1,0.3,2.09,2.6,0,0,0,1,0,0,250,250,0,45.847061,5.177974,0.0,221.4,9,3,1.7,0,0.0,1,0.1483,,1.1483,1,0.18,2.0757
124564,1626449495873,,,253,256,237,232,,-0.0,0.01,-2.98,-0,-0,-0,0.01,,79,1731,7,35,91,0.91,0.0,195,4.4,13.2,0.0,1,0.3,3.17,2.6,0,0,0,1,0,,,,,,,,,,,,,,,,,,,,
124584,1626449495891,,,253,255,237,232,,-0.01,0.02,-2.96,-0,-0,-0,0.02,,79,1730,7,35,92,0.912,0.0,192,4.28,13.5,0.0,1,0.3,3.17,2.6,0,0,0,1,0,,,,,,,,,,,,,,,,,,,,
124604,1626449495911,,,253,255,237,232,,-0.0,0.01,-2.98,-0,-0,-0,0.01,,79,1875,7,35,92,0.914,0.0,199,4.32,13.5,0.0,1,0.3,3.17,2.6,0,0,0,1,0,,,,,,,,,,,,,,,,,,,,
124624,1626449495931,,,253,256,237,232,,0.0,0.01,-3.0,-0,-0,-0,0.01,,79,1974,7,35,92,0.916,0.0,205,4.32,13.4,0.0,1,0.2,3.17,2.7,0,0,0,1,0,,,,,,,,,,,,,,,,,,,,
124644,1626449495951,-1,2,252,256,237,232,5,-0.01,0.02,-2.98,-0,-0,-0,0.02,0,79,1921,7,35,91,0.917,0.0,203,4.31,13.2,0.0,1,0.2,3.17,2.7,0,0,0,1,0,0,250,250,0,45.847061,5.177974,0.0,221.4,9,3,1.7,0,0.0,1,0.1483,0.0,1.15,1,0.18,2.0774
124664,1626449495971,,,253,256,237,232,,-0.0,0.01,-2.98,-0,-0,-0,0.01,,79,1850,7,35,91,0.919,0.0,200,4.39,13.5,0.0,1,24.3,3.17,2.7,0,0,0,1,0,,,,,,,,,,,,,,,,,,,,
124684,1626449495991,,,253,255,237,232,,-0.0,0.01,-2.98,-0,-0,-0,0.01,,79,1809,7,35,92,0.921,0.0,199,4.34,13.5,0.0,1,0.2,3.17,2.7,0,0,0,1,0,,,,,,,,,,,,,,,,,,,,
124704,1626449496005,,,253,255,237,232,,0.0,0.01,-3.0,-0,-0,-0,0.01,,79,1949,7,35,91,0.922,0.0,203,4.4,13.5,0.0,1,0.2,3.17,2.7,0,0,0,1,0,,,,,,,,,,,,,,,,,,,,
124724,1626449496025,,,253,255,237,232,,-0.01,0.01,-2.97,-0,-0,-0,0.01,,79,1960,7,35,91,0.924,0.0,205,4.3,13.2,0.0,1,0.2,3.17,2.8,0,0,0,1,0,,,,,,,,,,,,,,,,,,,,
124744,1626449496045,0,2,253,256,237,232,4,-0.0,0.0,-2.97,-0,-1,-0,0.0,0,79,1915,7,35,91,0.925,0.0,201,4.25,13.5,0.0,1,0.2,3.17,2.8,0,0,0,1,0,0,250,250,0,45.847061,5.177974,0.0,221.4,9,3,1.7,0,0.0,1,0.1483,,1.1517,1,0.18,2.0791
124764,1626449496065,,,253,256,237,232,,0.01,0.0,-2.97,-0,-1,-0,0.01,,79,1837,7,35,91,0.926,0.0,200,4.27,13.4,0.0,1,0.2,3.17,2.8,0,0,0,1,0,,,,,,,,,,,,,,,,,,,,
124784,1626449496093,,,253,255,237,232,,0.01,0.0,-2.98,-0,-1,-0,0.01,,79,1771,7,35,91,0.928,0.0,200,4.27,13.4,0.0,1,0.2,3.17,2.8,0,0,0,1,0,,,,,,,,,,,,,,,,,,,,
124804,1626449496113,,,253,256,237,232,,0.0,0.0,-2.94,-0,-0,-0,0.0,,79,1917,7,35,91,0.929,0.0,201,4.26,13.2,0.0,1,0.2,2.09,2.8,0,0,0,1,0,,,,,,,,,,,,,,,,,,,,
124824,1626449496133,,,253,256,237,232,,0.0,0.0,-2.95,-0,-1,-0,0.0,,79,1974,7,35,92,0.929,0.0,201,4.31,13.5,0.0,1,0.1,3.17,2.8,0,0,0,1,0,,,,,,,,,,,,,,,,,,,,
124844,1626449496153,-0,2,252,256,237,232,5,0.01,0.0,-2.96,-0,-1,-0,0.01,0,79,1931,7,35,92,0.928,0.0,204,4.37,13.5,0.0,1,25.7,3.17,2.8,0,0,0,1,0,0,250,250,0,45.847061,5.177974,0.0,221.4,9,3,1.7,0,0.0,1,0.1483,0.0,1.1533,1,0.18,2.0807
124864,1626449496173,,,252,255,237,232,,0.01,0.0,-2.97,-0,-0,-0,0.01,,79,1872,7,35,91,0.928,0.0,203,4.35,13.4,0.0,1,0.1,3.17,2.8,0,0,0,1,0,,,,,,,,,,,,,,,,,,,,
124884,1626449496191,,,253,255,237,232,,0.0,0.01,-2.95,-0,-0,-0,0.01,,79,1825,7,35,91,0.928,0.0,199,4.28,13.2,0.0,1,0.1,3.17,2.8,0,0,0,1,0,,,,,,,,,,,,,,,,,,,,
124904,1626449496211,,,252,256,237,232,,0.0,0.01,-2.95,-0,-0,-0,0.01,,79,1921,7,35,92,0.928,0.0,200,4.33,13.5,0.0,1,0.1,3.17,2.8,0,0,0,1,0,,,,,,,,,,,,,,,,,,,,
124924,1626449496231,,,253,256,237,232,,0.01,0.01,-2.95,-0,-0,-0,0.01,,79,1967,7,35,92,0.928,0.0,203,4.39,13.5,0.0,1,0.1,3.17,2.8,0,0,0,1,0,,,,,,,,,,,,,,,,,,,,
124944,1626449496251,0,2,253,255,237,232,5,0.0,0.01,-2.95,-0,-0,-0,0.01,0,79,1903,7,35,91,0.927,0.0,205,4.28,13.3,0.0,1,0.1,3.17,2.8,0,0,0,1,0,0,250,250,0,45.847061,5.177974,0.0,221.4,9,3,1.7,0,0.0,1,0.1483,,1.155,1,0.18,2.0824
124964,1626449496271,,,253,255,237,232,,-0.0,0.01,-2.94,-0,-0,-0,0.01,,79,1822,7,35,91,0.928,0.0,202,4.27,13.4,0.0,1,0.1,3.17,2.8,0,0,0,1,0,,,,,,,,,,,,,,,,,,,,
124984,1626449496293,,,253,254,237,232,,0.0,0.01,-2.94,-0,-0,-0,0.01,,79,1799,7,35,92,0.927,0.0,199,4.28,13.5,0.0,1,0.1,3.17,2.8,0,0,0,1,0,,,,,,,,,,,,,,,,,,,,
125004,1626449496313,,,253,256,237,232,,0.0,0.0,-2.94,-0,-0,-0,0.01,,79,1847,7,35,92,0.926,0.0,200,4.37,13.5,0.0,1,0.1,3.17,2.8,0,0,0,1,0,,,,,,,,,,,,,,,,,,,,
125024,1626449496333,,,253,256,237,232,,0.0,0.0,-2.96,-0,0,-0,0.0,,79,1921,7,35,91,0.926,0.0,203,4.32,13.5,0.0,1,0.0,2.09,2.7,0,0,0,1,0,,,,,,,,,,,,,,,,,,,,
125044,1626449496353,0,2,253,255,237,232,5,-0.01,0.0,-2.96,-0,0,-0,0.01,0,79,1906,7,35,91,0.925,0.0,203,4.33,13.4,0.0,1,0.0,3.17,2.7,0,0,0,1,0,0,250,250,0,45.847061,5.177974,0.0,221.4,9,3,1.7,0,0.0,1,0.1483,0.0,1.1567,1,0.18,2.0841
125064,1626449496373,,,253,255,237,232,,-0.01,-0.0,-2.96,-0,-0,-0,0.01,,79,1810,7,35,91,0.924,0.0,200,4.36,13.5,0.0,1,0.0,3.17,2.7,0,0,0,1,0,,,,,,,,,,,,,,,,,,,,
125084,1626449496393,,,253,256,237,232,,-0.0,-0.01,-2.97,-0,-0,-0,0.01,,79,1744,7,35,92,0.923,0.0,195,4.27,13.4,0.0,1,0.0,3.17,2.7,0,0,0,1,0,,,,,,,,,,,,,,,,,,,,
125104,1626449496413,,,252,256,237,232,,0.0,-0.01,-2.98,-0,-0,-0,0.01,,79,1755,7,35,92,0.924,0.0,197,4.25,13.5,0.0,1,0.0,3.17,2.7,0,0,0,1,0,,,,,,,,,,,,,,,,,,,,
125124,1626449496433,,,253,256,237,232,,-0.0,-0.01,-2.96,-0,0,-0,0.01,,79,1937,7,35,91,0.921,0.0,202,4.24,13.2,0.0,1,0.0,3.17,2.7,0,0,0,1,0,,,,,,,,,,,,,,,,,,,,
125144,1626449496453,0,1,253,255,237,232,5,-0.01,-0.01,-2.96,-0,-0,-0,0.01,0,79,1924,7,35,91,0.92,0.0,201,4.32,13.5,0.0,1,0.0,3.17,2.7,0,0,0,1,0,0,250,250,0,45.847061,5.177974,0.0,221.4,9,3,1.7,0,0.0,1,0.1483,,1.1583,1,0.18,2.0857
125164,1626449496473,,,253,255,237,232,,0.0,-0.01,-2.97,-0,-0,-0,0.01,,79,1844,7,35,92,0.918,0.0,200,4.37,13.5,0.0,1,0.0,3.17,2.7,0,0,0,1,0,,,,,,,,,,,,,,,,,,,,
125184,1626449496491,,,253,256,237,232,,0.0,-0.01,-2.97,-0,-0,-0,0.01,,79,1766,7,35,92,0.917,0.0,199,4.32,13.5,0.0,1,0.0,3.17,2.7,0,0,0,1,0,,,,,,,,,,,,,,,,,,,,
125204,1626449496511,,,252,256,237,232,,0.01,-0.01,-2.99,-0,-0,-0,0.01,,79,1801,7,35,91,0.915,0.0,197,4.35,13.5,0.0,1,0.0,3.17,2.7,0,0,0,1,0,,,,,,,,,,,,,,,,,,,,
125224,1626449496531,,,252,255,237,232,,-0.0,-0.0,-2.98,-0,-0,-0,0.0,,79,1916,7,35,91,0.913,0.0,198,4.36,13.4,0.0,1,-0.1,3.17,2.6,0,0,0,1,0,,,,,,,,,,,,,,,,,,,,
125244,1626449496551,1,2,253,256,237,232,4,0.0,-0.0,-2.98,-0,-0,-0,0.0,0,79,1909,7,35,92,0.912,0.0,201,4.33,13.5,0.0,1,-0.1,3.17,2.6,0,0,0,1,0,0,250,250,0,45.847061,5.177974,0.0,221.4,9,3,1.7,0,0.0,1,0.1483,0.0,1.16,1,0.18,2.0874
125264,1626449496571,,,253,256,237,232,,0.01,-0.0,-2.98,-0,-0,-0,0.01,,79,1842,7,35,92,0.911,0.0,201,4.28,13.4,0.0,1,-0.1,3.17,2.6,0,0,0,1,0,,,,,,,,,,,,,,,,,,,,
125284,1626449496591,,,253,255,237,232,,0.01,-0.0,-2.98,-0,-0,-0,0.01,,79,1767,7,35,92,0.91,0.0,198,4.26,13.5,0.0,1,-0.1,3.17,2.6,0,0,0,1,0,,,,,,,,,,,,,,,,,,,,
125304,1626449496611,,,253,256,237,232,,0.01,-0.0,-2.98,-0,-0,-0,0.01,,79,1800,7,35,91,0.909,0.0,196,4.31,13.5,0.0,1,-0.1,3.17,2.6,0,0,0,1,0,,,,,,,,,,,,,,,,,,,,
125324,1626449496631,,,253,255,237,232,,0.01,0.0,-2.97,-0,-0,-0,0.01,,79,1901,7,35,92,0.908,0.0,197,4.33,13.4,0.0,1,-0.1,3.17,2.6,0,0,0,1,0,,,,,,,,,,,,,,,,,,,,
125344,1626449496651,1,0,253,256,237,232,5,0.01,0.0,-2.99,-0,-0,-0,0.01,0,79,1971,7,35,92,0.907,0.0,203,4.37,13.5,0.0,1,-0.1,3.17,2.6,0,0,0,1,0,0,250,250,0,45.847061,5.177974,0.0,221.4,9,3,1.7,0,0.0,1,0.1483,,1.1617,1,0.18,2.0891
125364,1626449496671,,,253,255,237,232,,0.01,0.01,-2.99,-0,-0,-0,0.02,,79,1933,7,35,91,0.906,0.0,205,4.32,13.5,0.0,1,-0.1,3.17,2.6,0,0,0,1,0,,,,,,,,,,,,,,,,,,,,
125384,1626449496693,,,253,255,237,232,,0.01,0.01,-3.02,-0,-0,-0,0.01,,79,1779,7,35,91,0.906,0.0,200,4.25,13.3,0.0,1,-0.1,2.09,2.6,0,0,0,1,0,,,,,,,,,,,,,,,,,,,,
125404,1626449496713,,,252,255,237,232,,0.0,0.01,-3.0,-0,0,-0,0.01,,79,1791,7,35,91,0.907,0.0,196,4.37,13.4,0.0,1,-0.1,3.17,2.6,0,0,0,1,0,,,,,,,,,,,,,,,,,,,,
125424,1626449496733,,,253,255,237,232,,0.01,0.01,-3.02,-0,-0,-0,0.01,,79,1897,7,35,92,0.907,0.0,200,4.26,13.5,0.0,1,-0.2,3.17,2.6,0,0,0,1,0,,,,,,,,,,,,,,,,,,,,
125444,1626449496753,-0,2,252,256,237,232,5,0.01,0.01,-3.01,-0,-0,-0,0.01,0,79,1944,7,35,92,0.908,0.0,206,4.3,13.5,0.0,1,-0.2,3.17,2.6,0,0,0,1,0,0,250,250,0,45.847061,5.177974,0.0,221.4,9,3,1.7,0,0.0,1,0.1483,0.0,1.1633,1,0.18,2.0907
125464,1626449496773,,,253,255,237,232,,0.0,0.01,-3.0,-0,-0,-0,0.01,,79,1876,7,35,91,0.908,0.0,203,4.32,13.4,0.0,1,-0.2,3.17,2.6,0,0,0,1,0,,,,,,,,,,,,,,,,,,,,
125484,1626449496792,,,253,255,237,232,,-0.0,0.01,-2.99,-0,-0,-0,0.01,,79,1815,7,35,91,0.908,0.0,198,4.27,13.4,0.0,1,24.3,3.17,2.6,0,0,0,1,0,,,,,,,,,,,,,,,,,,,,
125504,1626449496812,,,253,254,237,232,,0.0,0.01,-2.98,-0,-0,-0,0.01,,79,1818,7,35,92,0.909,0.0,198,4.23,13.5,0.0,1,-0.2,2.09,2.6,0,0,0,1,0,,,,,,,,,,,,,,,,,,,,
125524,1626449496832,,,253,256,237,232,,0.01,0.0,-2.98,-0,-0,-0,0.01,,79,1865,7,35,92,0.91,0.0,203,4.27,13.5,0.0,1,25.7,3.17,2.6,0,0,0,1,0,,,,,,,,,,,,,,,,,,,,
125544,1626449496852,-1,2,253,255,237,232,5,0.01,0.0,-3.0,-0,0,-0,0.01,0,79,1854,7,35,92,0.91,0.0,202,4.3,13.5,0.0,1,-0.2,3.17,2.6,0,0,0,1,0,0,250,250,0,45.847061,5.177974,0.0,221.4,9,3,1.7,0,0.0,1,0.1483,,1.165,1,0.18,2.0924
125564,1626449496872,,,253,255,237,232,,-0.0,0.01,-2.98,-0,0,-0,0.01,,79,1802,7,35,91,0.911,0.0,197,4.31,13.2,0.0,1,-0.2,3.17,2.6,0,0,0,1,0,,,,,,,,,,,,,,,,,,,,
125584,1626449496892,,,253,256,237,232,,-0.0,0.01,-2.99,-0,0,-0,0.01,,79,1743,7,35,92,0.911,0.0,196,4.33,13.5,0.0,1,-0.2,3.17,2.6,0,0,0,1,0,,,,,,,,,,,,,,,,,,,,
125604,1626449496912,,,253,255,237,232,,0.0,0.0,-2.99,-0,-0,-0,0.0,,79,1749,7,35,92,0.912,0.0,197,4.3,13.5,0.0,1,-0.2,3.17,2.6,0,0,0,1,0,,,,,,,,,,,,,,,,,,,,
125624,1626449496932,,,253,256,237,232,,0.01,0.0,-2.99,-0,-0,-0,0.01,,79,1799,7,35,92,0.913,0.0,197,4.32,13.5,0.0,1,-0.2,3.17,2.5,0,0,0,1,0,,,,,,,,,,,,,,,,,,,,
125644,1626449496952,-0,2,253,256,237,232,5,0.01,0.0,-2.99,-0,-0,-0,0.01,0,79,1834,7,35,92,0.913,0.0,197,4.27,13.4,0.0,1,-0.2,3.17,2.5,0,0,0,1,0,0,250,250,0,45.847061,5.177974,0.0,221.4,9,3,1.7,0,0.0,1,0.1483,0.0,1.1667,1,0.18,2.0941
125664,1626449496972,,,253,255,237,232,,0.0,0.0,-2.97,-0,-0,-0,0.0,,79,1753,7,35,91,0.913,0.0,197,4.29,13.2,0.0,1,-0.2,3.17,2.5,0,0,0,1,0,,,,,,,,,,,,,,,,,,,,
125684,1626449496992,,,252,256,237,232,,0.0,0.0,-2.96,-0,-0,-0,0.01,,79,1663,7,35,91,0.914,0.0,191,4.33,13.4,0.0,1,-0.2,3.17,2.5,0,0,0,1,0,,,,,,,,,,,,,,,,,,,,
125704,1626449497006,,,253,256,237,232,,-0.0,0.01,-2.96,-0,-0,-0,0.01,,79,1620,7,35,92,0.914,0.0,189,4.32,13.5,0.0,1,-0.2,3.17,2.5,0,0,0,1,0,,,,,,,,,,,,,,,,,,,,
125724,1626449497026,,,253,256,237,232,,-0.0,0.0,-2.96,-0,-0,-0,0.01,,79,1707,7,35,92,0.913,0.0,190,4.38,13.5,0.0,1,-0.2,2.09,2.3,0,0,0,1,0,,,,,,,,,,,,,,,,,,,,
125744,1626449497046,1,2,253,256,237,232,5,0.0,0.01,-2.95,-0,-0,-0,0.01,0,79,1832,7,35,92,0.912,0.0,194,4.41,13.5,0.0,1,-0.2,2.09,2.3,0,0,0,1,0,0,250,250,0,45.847061,5.177974,0.0,221.4,9,3,1.7,0,0.0,1,0.1483,,1.1683,1,0.18,2.0957
125764,1626449497066,,,253,256,237,232,,0.01,0.0,-2.96,-0,-0,-0,0.01,,79,1815,7,35,92,0.911,0.0,197,4.4,13.4,0.0,1,-0.2,2.09,2.3,0,0,0,1,0,,,,,,,,,,,,,,,,,,,,
125784,1626449497092,,,253,256,237,232,,0.0,-0.0,-2.96,-0,-0,-0,0.0,,80,1730,7,35,92,0.911,0.0,197,4.2,13.3,0.0,1,-0.2,3.17,2.3,0,0,0,1,0,,,,,,,,,,,,,,,,,,,,
125804,1626449497112,,,253,256,237,232,,0.0,0.0,-2.94,-0,-0,-0,0.0,,79,1647,7,35,91,0.91,0.0,192,4.32,13.2,0.0,1,-0.2,3.17,2.3,0,0,0,1,0,,,,,,,,,,,,,,,,,,,,
125824,1626449497132,,,253,256,237,232,,-0.0,0.0,-2.93,-0,0,-0,0.0,,79,1633,7,35,92,0.908,0.0,187,4.32,13.4,0.0,1,0.0,3.17,2.4,0,0,0,1,0,,,,,,,,,,,,,,,,,,,,
125844,1626449497152,-1,2,252,256,237,232,5,-0.0,-0.0,-2.94,-0,-0,-0,0.0,0,79,1750,7,35,92,0.907,0.0,189,4.28,13.5,0.0,1,0.0,2.09,2.4,0,0,0,1,0,0,250,250,0,45.847061,5.177974,0.0,221.4,9,3,1.7,0,0.0,1,0.1483,0.0,1.17,1,0.18,2.0974
125864,1626449497172,,,253,256,237,232,,-0.0,0.0,-2.95,-0,-0,-0,0.0,,79,1855,7,35,92,0.905,0.0,197,4.33,13.5,0.0,1,0.0,3.17,2.4,0,0,0,1,0,,,,,,,,,,,,,,,,,,,,
125884,1626449497192,,,253,255,237,232,,0.0,-0.0,-2.95,-0,-0,-0,0.0,,79,1807,7,35,92,0.904,0.0,197,4.22,13.5,0.0,1,0.0,3.17,2.4,0,0,0,1,0,,,,,,,,,,,,,,,,,,,,
125904,1626449497212,,,253,255,237,232,,-0.0,-0.01,-2.96,-0,0,-0,0.01,,80,1728,7,35,91,0.902,0.0,194,4.25,13.2,0.0,1,0.0,3.17,2.4,0,0,0,1,0,,,,,,,,,,,,,,,,,,,,
125924,1626449497232,,,253,255,237,232,,-0.0,0.0,-2.94,-0,0,-0,0.0,,79,1682,7,35,91,0.9,0.0,191,4.31,13.4,0.0,1,0.0,3.17,2.5,0,0,0,1,0,,,,,,,,,,,,,,,,,,,,
125944,1626449497252,-0,2,253,256,237,232,5,-0.01,0.0,-2.95,-0,0,-0,0.01,0,79,1742,7,35,92,0.898,0.0,192,4.23,13.5,0.0,1,0.0,2.09,2.5,0,0,0,1,0,0,250,250,0,45.847061,5.177974,0.0,221.4,9,3,1.7,0,0.0,1,0.1483,,1.1717,1,0.18,2.0991
125964,1626449497272,,,253,255,237,232,,-0.0,-0.0,-2.95,-0,-0,-0,0.0,,79,1831,7,35,92,0.897,0.0,196,4.31,13.5,0.0,1,0.0,3.17,2.5,0,0,0,1,0,,,,,,,,,,,,,,,,,,,,
125984,1626449497292,,,253,256,237,232,,0.0,-0.0,-2.96,-0,-0,-0,0.0,,79,1887,7,35,92,0.897,0.0,197,4.28,13.5,0.0,1,0.0,3.17,2.5,0,0,0,1,0,,,,,,,,,,,,,,,,,,,,
126004,1626449497312,,,253,255,237,232,,-0.0,-0.0,-2.97,-0,0,-0,0.0,,80,1762,7,35,91,0.896,0.0,197,4.23,13.4,0.0,1,0.0,3.17,2.5,0,0,0,1,0,,,,,,,,,,,,,,,,,,,,
126024,1626449497332,,,253,256,237,232,,-0.0,0.0,-2.95,-0,-0,-0,0.01,,80,1679,7,35,91,0.894,0.0,194,4.27,13.3,0.0,1,0.1,3.17,2.5,0,0,0,1,0,,,,,,,,,,,,,,,,,,,,
126044,1626449497352,0,0,253,255,237,232,5,-0.01,0.0,-2.94,-0,0,-0,0.01,0,79,1708,7,35,92,0.894,0.0,192,4.28,13.5,0.0,1,0.1,2.09,2.5,0,0,0,1,0,0,250,250,0,45.847061,5.177974,0.0,221.4,9,3,1.7,0,0.0,1,0.1483,0.0,1.1733,1,0.18,2.1007
126064,1626449497372,,,253,255,237,232,,-0.0,0.0,-2.95,-0,-0,-0,0.01,,79,1854,7,35,92,0.894,0.0,195,4.37,13.5,0.0,1,0.1,3.17,2.5,0,0,0,1,0,,,,,,,,,,,,,,,,,,,,
126084,1626449497392,,,253,256,237,232,,0.0,0.0,-2.97,-0,-0,-0,0.0,,79,1927,7,35,92,0.895,0.0,198,4.27,13.5,0.0,1,0.1,3.17,2.5,0,0,0,1,0,,,,,,,,,,,,,,,,,,,,
126104,1626449497412,,,253,256,237,232,,-0.0,0.0,-2.95,-0,-0,-0,0.0,,80,1874,7,35,91,0.895,0.0,200,4.21,13.2,0.0,1,0.1,3.17,2.5,0,0,0,1,0,,,,,,,,,,,,,,,,,,,,
126124,1626449497432,,,253,255,237,232,,-0.0,-0.0,-2.95,-0,-0,-0,0.0,,79,1779,7,35,91,0.897,0.0,199,4.25,13.4,0.0,1,0.1,3.17,2.7,0,0,0,1,0,,,,,,,,,,,,,,,,,,,,
126144,1626449497452,0,1,253,255,237,232,4,-0.0,-0.0,-2.94,-0,-0,-0,0.01,0,79,1713,7,35,92,0.898,0.0,196,4.32,13.5,0.0,1,0.1,3.17,2.7,0,0,0,1,0,0,250,250,0,45.847061,5.177974,0.0,221.4,9,3,1.7,0,0.0,1,0.1483,,1.175,1,0.18,2.1024
126164,1626449497472,,,253,256,237,232,,-0.0,-0.01,-2.93,-0,-0,-0,0.01,,79,1756,7,35,92,0.899,0.0,195,4.33,13.5,0.0,1,0.1,2.09,2.7,0,0,0,1,0,,,,,,,,,,,,,,,,,,,,
126184,1626449497492,,,253,255,237,232,,0.01,-0.01,-2.95,-0,-0,-0,0.01,,79,1915,7,35,92,0.9,0.0,198,4.28,13.4,0.0,1,0.1,2.09,2.7,0,0,0,1,0,,,,,,,,,,,,,,,,,,,,
126204,1626449497512,,,253,256,237,232,,-0.0,-0.01,-2.93,-0,-0,-0,0.01,,80,1878,7,35,91,0.902,0.0,201,4.27,13.2,0.0,1,0.1,3.17,2.7,0,0,0,1,0,,,,,,,,,,,,,,,,,,,,
126224,1626449497532,,,253,256,237,232,,-0.01,-0.0,-2.94,-0,-0,-0,0.01,,79,1816,7,35,92,0.903,0.0,199,4.28,13.5,0.0,1,0.1,3.17,2.7,0,0,0,1,0,,,,,,,,,,,,,,,,,,,,
126244,1626449497552,-1,2,253,256,237,232,5,-0.0,-0.0,-2.94,-0,-0,-0,0.0,0,79,1748,7,35,92,0.905,0.0,194,4.32,13.5,0.0,1,0.1,3.17,2.7,0,0,0,1,0,0,250,250,0,45.847061,5.177974,0.0,221.4,9,3,1.7,0,0.0,1,0.1483,0.0,1.1767,1,0.18,2.1041
126264,1626449497572,,,253,256,237,232,,0.0,-0.0,-2.95,-0,-0,-0,0.0,,79,1755,7,35,92,0.906,0.0,197,4.33,13.5,0.0,1,0.1,3.17,2.7,0,0,0,1,0,,,,,,,,,,,,,,,,,,,,
126284,1626449497592,,,253,256,237,232,,0.0,-0.0,-2.95,-0,-0,-0,0.0,,80,1933,7,35,92,0.906,0.0,202,4.25,13.3,0.0,1,0.1,3.17,2.7,0,0,0,1,0,,,,,,,,,,,,,,,,,,,,
126304,1626449497612,,,253,255,237,232,,-0.0,-0.0,-2.96,-0,-0,-0,0.01,,80,1937,7,35,92,0.908,0.0,203,4.23,13.5,0.0,1,0.1,3.17,2.7,0,0,0,1,0,,,,,,,,,,,,,,,,,,,,
126324,1626449497632,,,253,256,237,232,,0.0,-0.0,-2.98,-0,-0,-0,0.0,,79,1898,7,35,92,0.908,0.0,202,4.3,13.5,0.0,1,0.1,2.09,2.8,0,0,0,1,0,,,,,,,,,,,,,,,,,,,,
126344,1626449497652,-0,2,253,254,237,232,5,0.01,0.0,-2.98,-0,-0,-0,0.01,0,79,1820,7,35,92,0.909,0.0,200,4.3,13.5,0.0,1,0.1,3.17,2.8,0,0,0,1,0,0,250,250,0,45.847061,5.177974,0.0,221.4,9,3,1.7,0,0.0,1,0.1483,,1.1783,1,0.18,2.1057
126364,1626449497672,,,253,255,237,232,,0.01,-0.0,-2.99,-0,-0,-0,0.01,,79,1795,7,35,92,0.91,0.0,197,4.31,13.4,0.0,1,0.1,2.09,2.8,0,0,0,1,0,,,,,,,,,,,,,,,,,,,,
126384,1626449497692,,,253,256,237,232,,0.0,-0.0,-2.97,-0,-0,-0,0.0,,80,1884,7,35,91,0.911,0.0,200,4.31,13.3,0.0,1,0.1,3.17,2.8,0,0,0,1,0,,,,,,,,,,,,,,,,,,,,
126404,1626449497712,,,253,256,237,232,,0.0,-0.0,-2.98,-0,-0,-0,0.0,,79,1896,7,35,92,0.912,0.0,200,4.3,13.5,0.0,1,0.1,3.17,2.8,0,0,0,1,0,,,,,,,,,,,,,,,,,,,,
126424,1626449497732,,,253,256,237,232,,0.01,-0.0,-2.99,-0,-0,-0,0.01,,79,1879,7,35,92,0.914,0.0,200,4.27,13.5,0.0,1,0.0,3.17,2.7,0,0,0,1,0,,,,,,,,,,,,,,,,,,,,
126444,1626449497752,0,2,253,256,237,232,5,0.01,-0.0,-2.98,-0,-0,-0,0.01,0,79,1825,7,35,92,0.915,0.0,200,4.25,13.5,0.0,1,0.0,3.17,2.7,0,0,0,1,0,0,250,250,0,45.847061,5.177974,0.0,221.4,9,3,1.7,0,0.0,1,0.1483,0.0,1.18,1,0.18,2.1074
126464,1626449497772,,,253,256,237,232,,0.0,0.0,-2.98,-0,-0,-0,0.01,,80,1746,7,35,92,0.915,0.0,197,4.26,13.2,0.0,1,0.0,3.17,2.7,0,0,0,1,0,,,,,,,,,,,,,,,,,,,,
126484,1626449497791,,,253,256,237,232,,0.0,0.01,-2.97,-0,-0,-0,0.01,,80,1784,7,35,92,0.917,0.0,196,4.31,13.4,0.0,1,0.0,3.17,2.7,0,0,0,1,0,,,,,,,,,,,,,,,,,,,,
126504,1626449497811,,,253,255,237,232,,0.0,-0.0,-2.99,-0,-0,-0,0.0,,79,1868,7,35,92,0.918,0.0,197,4.31,13.5,0.0,1,0.0,2.09,2.7,0,0,0,1,0,,,,,,,,,,,,,,,,,,,,
126524,1626449497831,,,253,255,237,232,,0.01,0.0,-2.99,-0,-0,-0,0.01,,79,1826,7,35,92,0.919,0.0,198,4.3,13.5,0.0,1,0.0,3.17,2.7,0,0,0,1,0,,,,,,,,,,,,,,,,,,,,
126544,1626449497851,1,0,253,256,237,232,4,0.01,0.0,-2.98,-0,-0,-0,0.01,0,79,1767,7,35,92,0.92,0.0,198,4.3,13.5,0.0,1,0.0,3.17,2.7,0,0,0,1,0,0,250,250,0,45.847061,5.177974,0.0,221.4,9,3,1.7,0,0.0,1,0.1483,,1.1817,1,0.18,2.1091
126564,1626449497871,,,253,255,237,232,,0.01,0.0,-3.0,-0,-0,-0,0.01,,80,1718,7,35,92,0.921,0.0,193,4.32,13.4,0.0,1,0.0,3.17,2.7,0,0,0,1,0,,,,,,,,,,,,,,,,,,,,
126584,1626449497891,,,253,255,237,232,,0.0,0.0,-2.98,-0,0,-0,0.0,,80,1848,7,35,92,0.921,0.0,194,4.31,13.4,0.0,1,0.0,3.17,2.7,0,0,0,1,0,,,,,,,,,,,,,,,,,,,,
126604,1626449497911,,,252,256,237,232,,0.0,0.0,-2.98,-0,-0,-0,0.0,,80,1901,7,35,92,0.922,0.0,200,4.3,13.5,0.0,1,0.0,2.09,2.7,0,0,0,1,0,,,,,,,,,,,,,,,,,,,,
126624,1626449497931,,,252,255,237,232,,0.01,0.0,-2.97,-0,-0,-0,0.01,,79,1893,7,35,92,0.921,0.0,203,4.36,13.5,0.0,1,-0.1,3.17,2.7,0,0,0,1,0,,,,,,,,,,,,,,,,,,,,
126644,1626449497951,-0,2,253,256,237,232,5,0.01,0.0,-2.97,-0,-0,-0,0.01,0,80,1826,7,35,92,0.919,0.0,200,4.27,13.4,0.0,1,-0.1,3.17,2.7,0,0,0,1,0,0,250,250,0,45.847061,5.177974,0.0,221.4,9,3,1.7,0,0.0,1,0.1483,0.0,1.1833,1,0.18,2.1107
126664,1626449497971,,,253,255,237,232,,-0.0,0.01,-2.95,-0,-0,-0,0.01,,80,1804,7,35,91,0.92,0.0,196,4.4,13.2,0.0,1,-0.1,3.17,2.7,0,0,0,1,0,,,,,,,,,,,,,,,,,,,,
126684,1626449497991,,,253,256,237,232,,-0.0,0.01,-2.94,-0,-0,-0,0.01,,80,1806,7,35,92,0.919,0.0,197,4.24,13.5,0.0,1,-0.1,3.17,2.7,0,0,0,1,0,,,,,,,,,,,,,,,,,,,,
126704,1626449498005,,,253,255,237,232,,0.0,0.01,-2.96,-0,-0,-0,0.01,,80,1820,7,35,93,0.918,0.0,200,4.25,13.5,0.0,1,-0.1,3.17,2.7,0,0,0,1,0,,,,,,,,,,,,,,,,,,,,
126724,1626449498025,,,253,256,237,232,,0.01,0.01,-2.97,-0,-0,-0,0.01,,80,1850,7,35,92,0.917,0.0,200,4.3,13.5,0.0,1,-0.1,2.09,2.7,0,0,0,1,0,,,,,,,,,,,,,,,,,,,,
126744,1626449498045,1,1,252,255,237,232,3,0.0,0.01,-2.98,-0,-0,-0,0.01,0,80,1792,7,35,92,0.916,0.0,199,4.3,13.4,0.0,1,-0.1,3.17,2.7,0,0,0,1,0,0,250,250,0,45.847061,5.177974,0.0,221.4,9,3,1.7,0,0.0,1,0.1483,,1.185,1,0.18,2.1124
126764,1626449498065,,,253,255,237,232,,-0.0,0.01,-2.95,-0,-0,-0,0.01,,80,1745,7,35,92,0.914,0.0,193,4.32,13.3,0.0,1,-0.1,3.17,2.7,0,0,0,1,0,,,,,,,,,,,,,,,,,,,,
126784,1626449498091,,,253,256,237,232,,-0.0,0.01,-2.95,-0,-0,-0,0.01,,80,1705,7,35,92,0.913,0.0,193,4.24,13.4,0.0,1,-0.1,3.17,2.7,0,0,0,1,0,,,,,,,,,,,,,,,,,,,,
126804,1626449498111,,,252,256,237,232,,-0.0,0.01,-2.96,-0,-0,-0,0.01,,80,1735,7,35,93,0.912,0.0,196,4.3,13.5,0.0,1,-0.1,3.17,2.7,0,0,0,1,0,,,,,,,,,,,,,,,,,,,,
126824,1626449498131,,,253,255,237,232,,0.0,0.01,-2.96,-0,-0,-0,0.01,,80,1820,7,35,93,0.911,0.0,197,4.3,13.5,0.0,1,-0.2,3.17,2.5,0,0,0,1,0,,,,,,,,,,,,,,,,,,,,
126844,1626449498151,-0,2,253,256,237,232,5,0.01,0.01,-2.96,-0,-0,-0,0.01,0,80,1790,7,35,92,0.91,0.0,197,4.37,13.5,0.0,1,-0.2,3.17,2.5,0,0,0,1,0,0,250,250,0,45.847061,5.177974,0.0,221.4,9,3,1.7,0,0.0,1,0.1483,0.0,1.1867,1,0.18,2.1141
126864,1626449498171,,,253,255,237,232,,0.0,0.01,-2.94,-0,-0,-0,0.01,,80,1747,7,35,92,0.908,0.0,197,4.33,13.2,0.0,1,-0.2,3.17,2.5,0,0,0,1,0,,,,,,,,,,,,,,,,,,,,
126884,1626449498193,,,253,256,237,232,,0.0,0.01,-2.92,-0,-0,-0,0.01,,80,1680,7,35,92,0.907,0.0,193,4.27,13.4,0.0,1,-0.2,3.17,2.5,0,0,0,1,0,,,,,,,,,,,,,,,,,,,,
126904,1626449498213,,,253,255,237,232,,-0.0,0.01,-2.93,-0,-0,-0,0.01,,80,1705,7,35,92,0.905,0.0,189,4.29,13.5,0.0,1,-0.2,2.09,2.5,0,0,0,1,0,,,,,,,,,,,,,,,,,,,,
126924,1626449498233,,,252,256,237,232,,0.0,0.01,-2.93,-0,-0,-0,0.01,,80,1809,8,35,93,0.904,0.0,193,4.37,13.5,0.0,1,-0.2,2.09,2.4,0,0,0,1,0,,,,,,,,,,,,,,,,,,,,
126944,1626449498253,1,0,253,256,237,232,5,0.01,0.01,-2.94,-0,-0,-0,0.01,0,80,1818,8,35,93,0.903,0.0,197,4.31,13.5,0.0,1,-0.2,3.17,2.4,0,0,0,1,0,0,250,250,0,45.847061,5.177974,0.0,221.4,9,3,1.7,0,0.0,1,0.1483,,1.1883,1,0.18,2.1157
126964,1626449498273,,,253,256,237,232,,0.01,0.01,-2.96,-0,-0,-0,0.01,,80,1797,7,35,92,0.901,0.0,200,4.27,13.3,0.0,1,-0.2,3.17,2.4,0,0,0,1,0,,,,,,,,,,,,,,,,,,,,
126984,1626449498293,,,253,256,237,232,,0.0,0.01,-2.94,-0,-0,-0,0.01,,80,1721,7,35,92,0.901,0.0,193,4.43,13.3,0.0,1,-0.2,3.17,2.4,0,0,0,1,0,,,,,,,,,,,,,,,,,,,,
127004,1626449498313,,,253,256,237,232,,-0.0,0.01,-2.93,-0,-0,-0,0.01,,80,1706,7,35,92,0.9,0.0,191,4.36,13.4,0.0,1,-0.2,3.17,2.4,0,0,0,1,0,,,,,,,,,,,,,,,,,,,,
127024,1626449498333,,,253,256,237,232,,-0.0,0.01,-2.95,-0,-0,-0,0.01,,80,1721,7,35,93,0.9,0.0,192,4.32,13.5,0.0,1,-0.2,2.09,2.4,0,0,0,1,0,,,,,,,,,,,,,,,,,,,,
127044,1626449498353,0,2,253,256,237,232,5,-0.0,0.0,-2.95,-0,-0,-0,0.0,0,80,1756,8,35,93,0.9,0.0,192,4.3,13.5,0.0,1,-0.2,2.09,2.4,0,0,0,1,0,0,250,250,0,45.847061,5.177974,0.0,221.4,9,3,1.7,0,0.0,1,0.1483,0.0,1.19,1,0.18,2.1174
127064,1626449498373,,,253,255,237,232,,0.0,0.01,-2.95,-0,-0,-0,0.01,,80,1748,8,35,93,0.899,0.0,192,4.36,13.5,0.0,1,-0.2,3.17,2.4,0,0,0,1,0,,,,,,,,,,,,,,,,,,,,
127084,1626449498391,,,253,255,237,232,,0.01,0.01,-2.94,-0,-0,-0,0.01,,80,1701,8,35,93,0.899,0.0,192,4.37,13.5,0.0,1,-0.2,3.17,2.4,0,0,0,1,0,,,,,,,,,,,,,,,,,,,,
127104,1626449498411,,,253,256,237,232,,0.01,0.0,-2.96,-0,-0,-0,0.01,,80,1620,8,35,92,0.899,0.0,188,4.31,13.4,0.0,1,-0.2,2.09,2.4,0,0,0,1,0,,,,,,,,,,,,,,,,,,,,
127124,1626449498431,,,253,256,237,232,,0.0,0.0,-2.97,-0,-0,-0,0.0,,80,1677,7,35,92,0.899,0.0,186,4.29,13.3,0.0,1,-0.2,2.09,2.3,0,0,0,1,0,,,,,,,,,,,,,,,,,,,,
127144,1626449498451,-1,2,253,255,237,232,5,-0.0,0.0,-2.95,-0,-0,-0,0.0,0,80,1757,7,35,92,0.898,0.0,190,4.35,13.3,0.0,1,-0.2,2.09,2.3,0,0,0,1,0,0,250,250,0,45.847061,5.177974,0.0,221.4,9,3,1.7,0,0.0,1,0.1483,,1.1917,1,0.18,2.1191
127164,1626449498471,,,253,256,237,232,,-0.01,0.0,-2.96,-0,-0,-0,0.01,,80,1754,7,35,93,0.898,0.0,192,4.28,13.5,0.0,1,-0.2,3.17,2.3,0,0,0,1,0,,,,,,,,,,,,,,,,,,,,
127184,1626449498493,,,253,256,237,232,,-0.0,-0.0,-2.95,-0,-0,-0,0.0,,80,1714,8,35,93,0.898,0.0,189,4.33,13.5,0.0,1,-0.2,3.17,2.3,0,0,0,1,0,,,,,,,,,,,,,,,,,,,,
127204,1626449498513,,,252,256,237,232,,-0.0,-0.0,-2.97,-0,-0,-0,0.0,,80,1652,7,35,93,0.899,0.0,187,4.4,13.4,0.0,1,-0.2,3.17,2.3,0,0,0,1,0,,,,,,,,,,,,,,,,,,,,
127224,1626449498533,,,253,255,237,232,,0.0,-0.01,-2.99,-0,-0,-0,0.01,,80,1578,8,35,93,0.899,0.0,185,4.41,13.5,0.0,1,0.0,2.09,2.4,0,0,0,1,0,,,,,,,,,,,,,,,,,,,,
127244,1626449498553,1,1,253,256,237,232,5,0.01,-0.01,-2.99,-0,-0,-0,0.01,0,80,1597,8,35,93,0.899,0.0,188,4.31,13.5,0.0,1,0.0,3.17,2.4,0,0,0,1,0,0,250,250,0,45.847061,5.177974,0.0,221.4,9,3,1.7,0,0.0,1,0.1483,0.0,1.1933,1,0.18,2.1207
127264,1626449498573,,,252,256,237,232,,0.01,-0.01,-3.01,-0,-0,-0,0.01,,80,1814,8,35,92,0.899,0.0,191,4.34,13.4,0.0,1,0.0,3.17,2.4,0,0,0,1,0,,,,,,,,,,,,,,,,,,,,
127284,1626449498591,,,253,256,237,232,,0.0,-0.01,-2.98,-0,-0,-0,0.01,,80,1857,7,35,92,0.9,0.0,192,4.41,13.4,0.0,1,0.0,3.17,2.4,0,0,0,1,0,,,,,,,,,,,,,,,,,,,,
127304,1626449498611,,,253,255,237,232,,-0.0,-0.01,-2.99,-0,-0,-0,0.01,,80,1791,7,35,93,0.9,0.0,194,4.25,13.5,0.0,1,0.0,3.17,2.4,0,0,0,1,0,,,,,,,,,,,,,,,,,,,,
127324,1626449498631,,,253,256,237,232,,0.0,-0.01,-2.98,-0,-0,-0,0.01,,80,1710,8,35,93,0.901,0.0,194,4.22,13.5,0.0,1,0.0,3.17,2.6,0,0,0,1,0,,,,,,,,,,,,,,,,,,,,
127344,1626449498651,-1,2,253,255,237,232,5,0.0,-0.01,-2.99,-0,-0,-0,0.01,0,80,1644,8,35,93,0.901,0.0,189,4.28,13.5,0.0,1,0.0,2.09,2.6,0,0,0,1,0,0,250,250,0,45.847061,5.177974,0.0,221.4,9,3,1.7,0,0.0,1,0.1483,,1.195,1,0.18,2.1224
127364,1626449498671,,,253,256,237,232,,0.01,-0.01,-2.99,-0,-1,-0,0.01,,80,1702,8,35,93,0.902,0.0,192,4.42,13.5,0.0,1,0.0,3.17,2.6,0,0,0,1,0,,,,,,,,,,,,,,,,,,,,
127384,1626449498693,,,253,255,237,232,,0.0,-0.0,-2.96,-0,-0,-0,0.0,,80,1922,7,35,92,0.902,0.0,197,4.31,13.2,0.0,1,0.0,3.17,2.6,0,0,0,1,0,,,,,,,,,,,,,,,,,,,,
127404,1626449498713,,,253,255,237,232,,0.0,-0.0,-2.98,-0,-0,-0,0.0,,80,1889,7,35,92,0.902,0.0,200,4.22,13.5,0.0,1,0.0,3.17,2.6,0,0,0,1,0,,,,,,,,,,,,,,,,,,,,
127424,1626449498733,,,252,256,237,232,,0.01,-0.01,-3.0,-0,-0,-0,0.01,,80,1841,8,35,92,0.903,0.0,200,4.35,13.5,0.0,1,0.0,3.17,2.7,0,0,0,1,0,,,,,,,,,,,,,,,,,,,,
127444,1626449498753,0,2,253,255,237,232,4,0.01,-0.0,-2.99,-0,-1,-0,0.01,0,80,1772,8,35,92,0.902,0.0,197,4.37,13.5,0.0,1,0.0,3.17,2.7,0,0,0,1,0,0,250,250,0,45.847061,5.177974,0.0,221.4,9,3,1.7,0,0.0,1,0.1483,0.0,1.1967,1,0.18,2.1241
127464,1626449498773,,,253,255,237,232,,0.01,-0.0,-2.99,-0,-0,-0,0.01,,80,1850,8,35,92,0.902,0.0,196,4.23,13.4,0.0,1,0.0,3.17,2.7,0,0,0,1,0,,,,,,,,,,,,,,,,,,,,
127484,1626449498793,,,253,255,237,232,,0.0,-0.0,-2.99,-0,-0,-0,0.0,,80,1915,7,35,92,0.902,0.0,200,4.3,13.4,0.0,1,0.0,3.17,2.7,0,0,0,1,0,,,,,,,,,,,,,,,,,,,,
127504,1626449498813,,,252,255,237,232,,0.01,-0.0,-3.0,-0,-1,-0,0.01,,80,1883,8,35,92,0.902,0.0,203,4.3,13.5,0.0,1,0.0,3.17,2.7,0,0,0,1,0,,,,,,,,,,,,,,,,,,,,
127524,1626449498833,,,253,255,237,232,,0.01,-0.0,-3.01,-0,-1,-0,0.01,,80,1820,8,35,92,0.901,0.0,197,4.33,13.5,0.0,1,0.0,3.17,2.7,0,0,0,1,0,,,,,,,,,,,,,,,,,,,,
127544,1626449498853,1,0,253,256,237,232,5,0.02,-0.0,-3.01,-0,-1,-0,0.02,0,80,1731,8,35,92,0.901,0.0,194,4.43,13.5,0.0,1,0.0,2.09,2.7,0,0,0,1,0,0,250,250,0,45.847061,5.177974,0.0,221.4,9,3,1.7,0,0.0,1,0.1483,,1.1983,1,0.18,2.1257
127564,1626449498873,,,253,256,237,232,,0.01,-0.0,-3.0,-0,-0,-0,0.01,,80,1827,7,35,92,0.9,0.0,197,4.28,13.4,0.0,1,0.0,3.17,2.7,0,0,0,1,0,,,,,,,,,,,,,,,,,,,,
127584,1626449498892,,,253,256,237,232,,0.01,0.0,-3.0,-0,-0,-0,0.01,,80,1936,7,35,92,0.899,0.0,200,4.33,13.5,0.0,1,0.0,3.17,2.7,0,0,0,1,0,,,,,,,,,,,,,,,,,,,,
127604,1626449498912,,,253,256,237,232,,0.01,-0.0,-3.01,-0,-0,-0,0.01,,80,1955,8,35,93,0.9,0.0,203,4.35,13.5,0.0,1,0.0,3.17,2.7,0,0,0,1,0,,,,,,,,,,,,,,,,,,,,
127624,1626449498932,,,252,255,237,232,,0.01,-0.0,-3.02,-0,0,-0,0.01,,80,1929,10,35,92,0.901,0.0,203,4.31,13.5,0.0,1,-0.1,2.09,2.8,0,0,0,1,0,,,,,,,,,,,,,,,,,,,,
127644,1626449498952,1,0,253,256,237,232,5,0.01,-0.01,-3.02,-0,0,-0,0.01,0,80,1808,11,35,92,0.902,0.0,201,4.16,13.3,0.0,1,-0.1,2.09,2.8,0,0,0,1,0,0,250,250,0,45.847061,5.177974,0.0,221.4,9,3,1.7,0,0.0,1,0.1483,0.0,1.2,1,0.18,2.1274
127664,1626449498972,,,253,256,237,232,,0.0,-0.01,-3.02,-0,0,-0,0.01,,80,1854,13,35,93,0.902,0.0,200,4.31,13.4,0.0,1,27.1,3.17,2.8,0,0,0,1,0,,,,,,,,,,,,,,,,,,,,
127684,1626449498992,,,253,256,237,232,,0.01,-0.01,-3.03,-0,-0,-0,0.01,,80,1962,14,35,94,0.904,0.0,204,4.41,13.5,0.0,1,28.5,2.09,2.8,0,0,0,1,0,,,,,,,,,,,,,,,,,,,,
127704,1626449499004,,,253,256,237,232,,0.0,-0.01,-3.05,-0,0,-0,0.01,,80,2016,17,35,94,0.906,0.0,207,4.28,13.3,0.0,1,28.5,3.17,2.8,0,0,0,1,0,,,,,,,,,,,,,,,,,,,,
127724,1626449499024,,,252,255,237,232,,-0.0,-0.01,-3.04,-0,1,-0,0.01,,80,1964,20,35,95,0.908,0.0,206,4.21,13.4,0.0,1,29.8,3.17,2.9,0,0,0,1,0,,,,,,,,,,,,,,,,,,,,
127744,1626449499044,1,1,253,255,237,232,5,0.0,-0.01,-3.04,-0,-0,-0,0.01,0,80,1951,22,35,97,0.909,0.0,208,4.27,13.5,0.0,1,32.6,5.19,2.9,0,0,0,1,0,0,250,250,0,45.847061,5.177974,0.0,221.4,9,3,1.7,0,0.0,1,0.1483,,1.2017,1,0.18,2.1291
127764,1626449499064,,,253,256,237,232,,0.01,-0.01,-2.99,-0,0,-0,0.01,,80,2371,23,35,96,0.911,0.0,216,4.22,13.4,0.0,1,31.2,2.09,2.9,0,0,0,1,0,,,,,,,,,,,,,,,,,,,,
127784,1626449499092,,,253,255,237,232,,-0.02,-0.01,-3.01,-0,1,-0,0.02,,80,2805,24,35,96,0.912,0.0,238,4.27,13.3,0.0,1,30.2,5.73,2.9,0,0,0,1,0,,,,,,,,,,,,,,,,,,,,
127804,1626449499112,,,253,254,237,232,,-0.04,0.0,-3.0,-0,1,-0,0.04,,80,2954,26,35,95,0.914,0.0,262,4.37,13.3,0.0,1,28.8,5.98,2.9,0,0,0,1,0,,,,,,,,,,,,,,,,,,,,
127824,1626449499132,,,253,254,237,232,,-0.05,0.0,-3.02,-0,1,-0,0.05,,80,3330,30,35,95,0.915,0.0,281,4.31,13.3,0.0,1,28.7,6.71,8.1,0,0,0,1,0,,,,,,,,,,,,,,,,,,,,
127844,1626449499152,1,0,253,256,237,232,5,-0.07,-0.0,-2.98,-0,2,-1,0.07,0,80,3622,35,35,96,0.917,0.0,318,4.19,13.5,0.0,1,30.4,3.18,8.1,0,0,0,1,0,0,250,250,0,45.847061,5.177974,0.0,221.4,9,3,1.7,0,0.0,1,0.1483,0.0,1.2033,1,0.18,2.1307
127864,1626449499172,,,253,253,237,232,,-0.04,-0.0,-3.06,-0,2,0,0.04,,80,4141,40,35,96,0.917,0.0,353,4.12,13.4,0.0,1,34.9,7.19,8.1,0,0,0,1,0,,,,,,,,,,,,,,,,,,,,
127884,1626449499192,,,253,253,237,232,,-0.05,-0.01,-3.13,-0,3,1,0.05,,80,4612,42,35,96,0.917,0.0,401,4.04,13.4,0.0,1,39.2,2.97,8.1,0,0,0,1,0,,,,,,,,,,,,,,,,,,,,
127904,1626449499212,,,253,255,237,232,,-0.11,0.01,-2.96,-0,7,4,0.11,,80,5059,44,35,96,0.917,0.0,452,4.11,13.5,0.0,1,42.7,6.81,8.1,0,0,0,1,0,,,,,,,,,,,,,,,,,,,,
127924,1626449499232,,,253,253,237,232,,-0.1,-0.03,-3.04,-0,2,0,0.11,,80,5645,45,35,96,0.923,0.0,516,4.13,13.4,0.0,1,40.9,8.37,16.9,0,0,0,1,0,,,,,,,,,,,,,,,,,,,,
127944,1626449499252,-1,2,253,255,237,232,5,-0.15,0.0,-3.11,-0,1,-1,0.15,0,80,6281,45,35,95,0.928,0.0,577,3.99,13.3,0.0,1,42.5,8.81,16.9,0,0,0,1,0,0,250,250,0,45.847061,5.177974,0.0,221.4,9,3,1.7,0,0.0,1,0.1483,,1.205,1,0.18,2.1324
127964,1626449499272,,,253,253,237,232,,-0.12,-0.02,-3.18,-0,2,0,0.12,,80,6667,45,35,94,0.935,0.0,626,3.97,13.3,0.0,1,46.5,8.0,16.9,0,0,0,1,0,,,,,,,,,,,,,,,,,,,,
127984,1626449499292,,,253,254,237,232,,-0.13,0.02,-2.97,-0,0,-1,0.13,,80,6747,45,35,94,0.94,0.0,646,4.01,13.3,0.0,1,47.3,7.81,16.9,0,0,0,1,0,,,,,,,,,,,,,,,,,,,,
128004,1626449499312,,,253,253,237,232,,-0.1,0.03,-3.05,-0,2,1,0.1,,80,6618,45,35,94,0.945,0.0,638,4.02,13.2,0.0,1,46.0,3.63,16.9,0,0,0,1,0,,,,,,,,,,,,,,,,,,,,
128024,1626449499332,,,253,253,237,232,,-0.1,0.02,-2.99,-0,1,0,0.1,,80,6830,45,35,94,0.946,0.0,644,3.9,13.2,0.0,1,48.2,7.54,24.2,0,0,0,1,0,,,,,,,,,,,,,,,,,,,,
128044,1626449499352,-0,2,253,253,237,232,5,-0.07,0.04,-2.78,-0,0,-1,0.08,0,80,7134,45,35,94,0.949,0.0,659,3.9,13.1,0.0,1,48.2,3.45,24.2,0,0,0,1,0,0,250,250,0,45.847061,5.177974,0.0,221.4,9,3,1.7,0,0.0,1,0.1483,0.0,1.2067,1,0.18,2.1341
128064,1626449499372,,,253,253,237,232,,-0.06,0.03,-2.69,-0,1,0,0.06,,80,7402,45,35,94,0.951,0.0,653,4.01,13.3,0.0,1,44.3,7.82,24.2,0,0,0,1,0,,,,,,,,,,,,,,,,,,,,
128084,1626449499392,,,253,253,237,232,,-0.07,-0.02,-2.79,-0,0,0,0.08,,80,7825,45,35,93,0.95,0.0,658,3.92,13.3,0.0,1,36.5,4.22,24.2,0,0,0,1,0,,,,,,,,,,,,,,,,,,,,
128104,1626449499408,,,253,253,237,232,,-0.06,0.01,-2.88,-0,1,2,0.07,,80,8113,45,35,92,0.946,0.0,673,3.85,13.2,0.0,1,37.5,8.98,24.2,0,0,0,1,0,,,,,,,,,,,,,,,,,,,,
128124,1626449499428,,,253,253,237,232,,-0.06,0.02,-2.68,-0,1,1,0.06,,80,8074,45,35,91,0.942,0.0,673,3.71,13.3,0.0,1,37.0,4.38,32.9,0,0,0,1,0,,,,,,,,,,,,,,,,,,,,
128144,1626449499448,1,2,252,253,237,232,5,-0.06,-0.02,-2.78,-0,0,1,0.06,0,80,7861,45,35,92,0.938,0.0,668,3.84,13.2,0.0,1,37.8,8.13,32.9,0,0,0,1,0,0,250,250,0,45.847061,5.177974,0.0,221.4,9,3,1.7,0,0.0,1,0.1483,,1.2083,1,0.18,2.1357
128164,1626449499468,,,253,253,237,232,,-0.08,-0.01,-2.88,-0,0,1,0.08,,80,7690,45,35,93,0.93,0.0,668,3.83,13.1,0.0,1,40.2,3.96,32.9,0,0,0,1,0,,,,,,,,,,,,,,,,,,,,
128184,1626449499492,,,253,254,237,232,,-0.1,0.0,-2.96,-0,-1,0,0.1,,80,7524,45,35,93,0.91,0.0,672,3.97,13.4,0.0,1,42.6,7.45,32.9,0,0,0,1,0,,,,,,,,,,,,,,,,,,,,
128204,1626449499512,,,253,253,237,232,,-0.11,0.04,-2.77,-0,-2,-1,0.12,,80,7358,45,35,94,0.897,0.0,663,4.06,13.1,0.0,1,44.9,7.11,32.9,0,0,0,1,0,,,,,,,,,,,,,,,,,,,,
128224,1626449499532,,,253,253,237,232,,-0.12,0.02,-2.86,0,-1,0,0.12,,80,7402,45,35,94,0.878,0.0,660,4.0,13.2,0.0,1,44.3,7.07,23.8,0,0,0,1,0,,,,,,,,,,,,,,,,,,,,
128244,1626449499552,1,1,253,253,237,232,5,-0.12,0.02,-2.95,0,-0,1,0.12,0,80,7928,45,35,93,0.871,0.0,666,4.05,13.1,0.0,1,36.8,7.78,23.8,0,0,0,1,0,0,250,250,0,45.847061,5.177974,0.0,221.4,9,3,1.7,0,0.0,1,0.1483,0.0,1.21,1,0.18,2.1374
128264,1626449499572,,,253,253,237,232,,-0.15,0.1,-2.78,-0,-1,-1,0.18,,80,8577,45,35,91,0.878,0.0,682,3.84,13.3,0.0,1,42.9,5.15,23.8,0,0,0,1,0,,,,,,,,,,,,,,,,,,,,
128284,1626449499592,,,253,253,237,232,,-0.11,0.13,-2.69,-0,-2,-3,0.17,,80,9389,45,35,88,0.884,0.0,685,3.81,13.2,0.0,1,38.8,8.6,23.8,0,0,0,1,0,,,,,,,,,,,,,,,,,,,,
128304,1626449499612,,,253,253,237,232,,-0.1,0.12,-2.48,-0,-2,-2,0.15,,80,9730,46,35,87,0.892,0.0,702,3.78,13.4,0.0,1,39.2,8.34,23.8,0,0,0,1,0,,,,,,,,,,,,,,,,,,,,
128324,1626449499632,,,253,253,237,232,,-0.11,0.09,-2.6,-0,-3,-4,0.14,,80,9522,45,35,88,0.897,0.0,703,3.85,13.4,0.0,1,38.8,8.33,37.2,0,0,0,1,0,,,,,,,,,,,,,,,,,,,,
128344,1626449499652,-1,1,253,253,237,232,5,-0.12,0.14,-2.71,-1,-0,-4,0.19,0,80,9291,41,35,88,0.895,0.0,696,3.85,13.2,0.0,1,38.8,8.13,37.2,0,0,0,1,0,0,250,250,0,45.847061,5.177974,0.0,221.4,9,3,1.7,0,0.0,1,0.1483,,1.2117,1,0.18,2.1391
128364,1626449499672,,,253,254,237,232,,-0.08,0.19,-2.8,-0,0,-2,0.21,,80,9305,34,35,86,0.892,0.0,689,3.79,13.1,0.0,1,38.8,7.58,37.2,0,0,0,1,0,,,,,,,,,,,,,,,,,,,,
128384,1626449499692,,,252,254,237,232,,-0.1,0.14,-2.59,0,1,1,0.17,,80,9479,28,35,83,0.889,0.0,687,3.81,13.2,0.0,1,38.8,6.9,37.2,0,0,0,1,0,,,,,,,,,,,,,,,,,,,,
128404,1626449499712,,,252,253,237,232,,-0.11,0.09,-2.51,-0,0,-2,0.14,,80,9479,22,34,78,0.892,0.0,692,3.94,13.5,0.0,1,40.8,4.63,37.2,0,0,0,1,0,,,,,,,,,,,,,,,,,,,,
128424,1626449499732,,,253,253,237,232,,-0.08,0.18,-2.59,-0,-0,-3,0.19,,80,9365,17,34,73,0.903,0.0,684,4.1,13.2,0.0,1,41.5,4.06,19.6,0,0,0,1,0,,,,,,,,,,,,,,,,,,,,
128444,1626449499752,0,1,253,254,237,232,5,-0.04,0.16,-2.44,-0,-0,-0,0.16,0,80,9460,13,34,67,0.918,0.0,692,4.15,13.5,0.0,1,41.4,3.55,19.6,0,0,0,1,0,0,250,250,0,45.847061,5.177974,0.0,221.4,9,3,1.7,0,0.0,1,0.1483,0.0,1.2133,1,0.18,2.1407
128464,1626449499772,,,253,253,237,232,,-0.08,0.09,-2.52,-0,-0,-1,0.12,,80,9351,11,34,60,0.935,0.0,687,4.18,13.3,0.0,1,40.6,3.33,19.6,0,0,0,1,0,,,,,,,,,,,,,,,,,,,,
128484,1626449499791,,,253,253,237,232,,-0.07,0.05,-2.64,-0,1,-2,0.09,,80,9407,10,34,55,0.95,0.0,695,4.2,13.2,0.0,1,40.1,3.38,19.6,0,0,0,1,0,,,,,,,,,,,,,,,,,,,,
128504,1626449499811,,,253,253,237,232,,-0.02,0.11,-2.74,-0,2,0,0.11,,80,9389,10,34,51,0.948,0.0,701,4.15,13.3,0.0,1,39.0,3.25,19.6,0,0,0,1,0,,,,,,,,,,,,,,,,,,,,
128524,1626449499831,,,253,253,237,232,,-0.02,0.16,-2.7,0,2,4,0.16,,80,9195,10,34,48,0.946,0.0,701,4.1,13.2,0.0,1,37.6,3.04,13.8,0,0,0,1,0,,,,,,,,,,,,,,,,,,,,
128544,1626449499851,0,0,253,253,237,232,4,0.0,0.09,-2.55,0,1,4,0.09,0,80,9040,10,34,45,0.943,0.0,686,4.22,13.3,0.0,1,35.7,1.8,13.8,0,0,0,1,0,0,250,250,0,45.847061,5.177974,0.0,221.4,9,3,1.7,0,0.0,1,0.1483,,1.215,1,0.18,2.1424
128564,1626449499871,,,252,253,237,232,,0.01,0.1,-2.59,0,2,6,0.1,,80,8819,10,34,44,0.939,0.0,687,4.09,13.3,0.0,1,35.1,1.75,13.8,0,0,0,1,0,,,,,,,,,,,,,,,,,,,,
128584,1626449499891,,,253,253,237,232,,0.02,0.1,-2.7,0,2,7,0.1,,80,8596,10,34,43,0.948,0.0,681,4.2,13.3,0.0,1,34.5,2.82,13.8,0,0,0,1,0,,,,,,,,,,,,,,,,,,,,
128604,1626449499911,,,252,254,237,232,,0.0,0.08,-2.74,0,2,5,0.08,,80,8366,11,34,42,0.96,0.0,677,4.24,13.2,0.0,1,33.6,2.71,13.8,0,0,0,1,0,,,,,,,,,,,,,,,,,,,,
128624,1626449499931,,,253,253,237,232,,-0.01,0.08,-2.84,0,3,7,0.08,,80,8177,11,34,42,0.971,0.0,675,4.18,13.4,0.0,1,33.3,2.5,10.2,0,0,0,1,0,,,,,,,,,,,,,,,,,,,,
128644,1626449499951,0,0,253,254,237,232,5,0.01,0.07,-2.69,0,2,6,0.07,0,80,7975,11,34,43,0.982,0.0,664,4.26,13.3,0.0,1,33.7,2.31,10.2,0,0,0,1,0,0,250,250,0,45.847061,5.177974,0.0,221.4,9,3,1.7,0,0.0,1,0.1483,0.0,1.2167,1,0.18,2.1441
128664,1626449499971,,,253,253,237,232,,0.03,0.03,-2.68,0,1,4,0.04,,80,7735,11,34,43,0.989,0.0,667,4.23,13.2,0.0,1,33.3,2.3,10.2,0,0,0,1,0,,,,,,,,,,,,,,,,,,,,
128684,1626449499991,,,252,253,237,232,,0.05,-0.0,-2.52,0,-1,2,0.05,,80,7557,11,34,43,0.995,0.0,665,4.29,13.3,0.0,1,33.0,1.17,10.2,0,0,0,1,0,,,,,,,,,,,,,,,,,,,,
128704,1626449500005,,,253,253,237,232,,0.06,0.03,-2.32,0,-3,1,0.07,,80,7364,11,34,45,1.003,0.0,669,4.21,13.2,0.0,1,33.6,2.28,10.2,0,0,0,1,0,,,,,,,,,,,,,,,,,,,,
128724,1626449500025,,,252,253,237,232,,0.08,-0.0,-2.33,0,-2,2,0.08,,80,7228,11,34,46,1.011,0.0,657,4.24,13.3,0.0,1,33.6,2.26,7.7,0,0,0,1,0,,,,,,,,,,,,,,,,,,,,
128744,1626449500045,1,2,253,253,237,232,5,0.04,-0.01,-2.45,0,-1,2,0.04,0,80,7099,11,34,46,1.026,0.0,652,4.25,13.4,0.0,1,33.3,1.12,7.7,0,0,0,1,0,0,250,250,0,45.847061,5.177974,0.0,221.4,9,3,1.7,0,0.0,1,0.1483,,1.2183,1,0.18,2.1457
128764,1626449500065,,,253,253,237,232,,0.03,0.0,-2.41,0,-1,2,0.03,,80,7123,12,34,47,1.052,0.0,650,4.12,13.4,0.0,1,33.7,2.23,7.7,0,0,0,1,0,,,,,,,,,,,,,,,,,,,,
128784,1626449500085,,,253,253,237,232,,0.04,-0.02,-2.53,0,-1,2,0.04,,80,7222,11,34,47,1.072,0.0,656,4.13,13.3,0.0,1,34.1,2.25,7.7,0,0,0,1,0,,,,,,,,,,,,,,,,,,,,
128804,1626449500107,,,253,253,237,232,,0.06,0.02,-2.33,0,-3,-0,0.06,,80,7267,12,34,47,1.088,0.0,657,4.26,13.3,0.0,1,34.3,1.13,7.7,0,0,0,1,0,,,,,,,,,,,,,,,,,,,,
128824,1626449500127,,,253,253,237,232,,0.07,-0.01,-2.31,0,-2,1,0.07,,80,7358,12,34,47,1.111,0.0,653,4.25,13.3,0.0,1,34.5,2.27,7.6,0,0,0,1,0,,,,,,,,,,,,,,,,,,,,
128844,1626449500147,0,2,253,253,237,232,4,0.08,-0.05,-2.44,0,-2,0,0.1,0,80,7449,12,34,48,1.13,0.0,656,4.28,13.3,0.0,1,35.0,2.28,7.6,0,0,0,1,0,0,250,250,0,45.847061,5.177974,0.0,221.4,9,3,1.7,0,0.0,1,0.1483,0.0,1.22,1,0.18,2.1474
128864,1626449500167,,,253,253,237,232,,0.11,-0.04,-2.25,-0,-4,-2,0.12,,80,7536,12,34,48,1.149,0.0,660,4.33,13.3,0.0,1,35.3,2.29,7.6,0,0,0,1,0,,,,,,,,,,,,,,,,,,,,
128884,1626449500191,,,253,253,237,232,,0.12,-0.02,-2.08,-0,-4,-3,0.12,,80,7640,12,34,47,1.167,0.0,666,4.4,13.2,0.0,1,35.5,2.3,7.6,0,0,0,1,0,,,,,,,,,,,,,,,,,,,,
128904,1626449500211,,,253,253,237,232,,0.11,-0.05,-2.16,-0,-4,-2,0.12,,80,7728,12,34,47,1.17,0.0,660,4.43,13.3,0.0,1,35.7,1.2,7.6,0,0,0,1,0,,,,,,,,,,,,,,,,,,,,
128924,1626449500231,,,253,253,237,232,,0.07,-0.03,-2.3,-0,-2,1,0.08,,80,7828,12,34,46,1.156,0.0,667,4.22,13.4,0.0,1,35.3,2.33,8.3,0,0,0,1,0,,,,,,,,,,,,,,,,,,,,
128944,1626449500251,-0,2,253,253,237,232,5,0.05,0.0,-2.43,0,-0,3,0.05,0,80,7931,12,33,46,1.145,0.0,667,4.24,13.4,0.0,1,35.6,2.34,8.3,0,0,0,1,0,0,250,250,0,45.847061,5.177974,0.0,221.4,9,3,1.7,0,0.0,1,0.1483,,1.2217,1,0.18,2.1491
128964,1626449500271,,,253,254,237,232,,0.06,-0.01,-2.3,0,-1,1,0.06,,80,8005,12,33,45,1.137,0.0,671,4.26,13.4,0.0,1,35.2,2.34,8.3,0,0,0,1,0,,,,,,,,,,,,,,,,,,,,
128984,1626449500293,,,253,253,237,232,,0.05,-0.01,-2.43,0,-0,3,0.05,,80,8155,12,33,45,1.121,0.0,670,4.2,13.4,0.0,1,35.3,2.5,8.3,0,0,0,1,0,,,,,,,,,,,,,,,,,,,,
129004,1626449500313,,,253,253,237,232,,0.06,0.0,-2.48,-0,-0,2,0.06,,80,8270,12,33,44,1.092,0.0,677,4.18,13.3,0.0,1,34.8,1.49,8.3,0,0,0,1,0,,,,,,,,,,,,,,,,,,,,
129024,1626449500333,,,253,253,237,232,,0.05,-0.01,-2.59,0,0,3,0.05,,80,8396,12,33,43,1.062,0.0,676,4.26,13.2,0.0,1,34.3,2.71,10.1,0,0,0,1,0,,,,,,,,,,,,,,,,,,,,
129044,1626449500353,0,3,253,253,237,232,5,0.05,0.0,-2.39,-0,-1,0,0.05,0,80,8507,12,33,41,1.032,0.0,678,4.25,13.3,0.0,1,33.2,1.66,10.1,0,0,0,1,0,0,250,250,0,45.847061,5.177974,0.0,221.4,9,3,1.7,0,0.0,1,0.1483,0.0,1.2233,1,0.18,2.1507
129064,1626449500373,,,253,253,237,232,,0.04,-0.07,-2.3,-0,-1,-0,0.08,,80,8608,12,33,41,1.003,0.0,683,4.25,13.4,0.0,1,33.2,1.66,10.1,0,0,0,1,0,,,,,,,,,,,,,,,,,,,,
129084,1626449500391,,,253,253,237,232,,0.05,-0.07,-2.43,-0,-1,2,0.08,,80,8684,12,33,39,0.971,0.0,680,4.23,13.4,0.0,1,32.0,2.75,10.1,0,0,0,1,0,,,,,,,,,,,,,,,,,,,,
129104,1626449500411,,,253,253,237,232,,0.07,-0.04,-2.55,0,-0,3,0.08,,80,8745,12,33,39,0.944,0.0,686,4.22,13.3,0.0,1,32.0,2.73,10.1,0,0,0,1,0,,,,,,,,,,,,,,,,,,,,
129124,1626449500431,,,253,253,237,232,,0.04,0.05,-2.66,-0,1,4,0.06,,80,8798,12,33,38,0.918,0.0,686,4.18,13.2,0.0,1,31.7,2.68,11.0,0,0,0,1,0,,,,,,,,,,,,,,,,,,,,
129144,1626449500451,1,1,253,254,237,232,4,0.03,0.11,-2.76,-0,1,3,0.11,0,80,8844,11,33,37,0.898,0.0,683,4.15,13.3,0.0,1,31.4,2.64,11.0,0,0,0,1,0,0,250,250,0,45.847061,5.177974,0.0,221.4,9,3,1.7,0,0.0,1,0.1483,,1.225,1,0.18,2.1524
129164,1626449500471,,,253,254,237,232,,-0.01,0.06,-2.85,-0,2,1,0.06,,80,8840,10,33,37,0.893,0.0,678,4.25,13.3,0.0,1,31.4,2.64,11.0,0,0,0,1,0,,,,,,,,,,,,,,,,,,,,
129184,1626449500491,,,253,254,237,232,,-0.02,0.0,-2.92,-0,2,-1,0.02,,80,8823,10,33,36,0.889,0.0,687,4.11,13.3,0.0,1,31.1,1.49,11.0,0,0,0,1,0,,,,,,,,,,,,,,,,,,,,
129204,1626449500511,,,253,254,237,232,,0.0,-0.1,-2.8,-0,3,-2,0.1,,80,8757,10,33,35,0.886,0.0,685,4.22,13.3,0.0,1,30.8,1.44,11.0,0,0,0,1,0,,,,,,,,,,,,,,,,,,,,
129224,1626449500531,,,253,254,237,232,,0.01,-0.07,-2.9,-0,3,-1,0.07,,80,8636,10,33,34,0.881,0.0,680,4.17,13.2,0.0,1,30.5,2.52,10.3,0,0,0,1,0,,,,,,,,,,,,,,,,,,,,
129244,1626449500551,-0,2,253,254,237,232,5,-0.0,-0.02,-2.86,-0,3,-0,0.02,0,80,8534,10,33,34,0.878,0.0,674,4.16,13.2,0.0,1,30.5,2.52,10.3,0,0,0,1,0,0,250,250,0,45.847061,5.177974,0.0,221.4,9,3,1.7,0,0.0,1,0.1483,0.0,1.2267,1,0.18,2.1541
129264,1626449500571,,,253,253,237,232,,0.02,-0.03,-2.64,-0,1,-3,0.04,,80,8381,10,33,34,0.875,0.0,670,4.2,13.4,0.0,1,30.2,1.28,10.3,0,0,0,1,0,,,,,,,,,,,,,,,,,,,,
129284,1626449500591,,,253,253,237,232,,0.0,-0.06,-2.75,-0,1,-2,0.06,,80,8141,9,33,34,0.872,0.0,672,4.25,13.4,0.0,1,29.7,2.17,10.3,0,0,0,1,0,,,,,,,,,,,,,,,,,,,,
129304,1626449500611,,,253,253,237,232,,0.01,-0.03,-2.79,-0,1,-2,0.03,,80,7931,8,33,34,0.87,0.0,668,4.23,13.4,0.0,1,29.5,2.04,10.3,0,0,0,1,0,,,,,,,,,,,,,,,,,,,,
129324,1626449500631,,,253,254,237,232,,0.03,-0.01,-2.57,-0,-0,-3,0.03,,80,7716,8,33,34,0.869,0.0,662,4.18,13.4,0.0,1,29.5,2.04,7.4,0,0,0,1,0,,,,,,,,,,,,,,,,,,,,
129344,1626449500651,-1,2,253,253,237,232,5,0.05,0.02,-2.53,-1,0,-3,0.06,0,80,7509,8,33,35,0.868,0.0,658,4.26,13.4,0.0,1,29.8,0.96,7.4,0,0,0,1,0,0,250,250,0,45.847061,5.177974,0.0,221.4,9,3,1.7,0,0.0,1,0.1483,,1.2283,1,0.18,2.1557
129364,1626449500671,,,253,253,237,232,,0.06,-0.02,-2.64,-0,2,-1,0.06,,80,7315,8,33,35,0.866,0.0,657,4.32,13.3,0.0,1,29.8,2.09,7.4,0,0,0,1,0,,,,,,,,,,,,,,,,,,,,
129384,1626449500693,,,252,253,237,232,,0.03,0.02,-2.74,-1,1,-2,0.03,,80,7205,8,33,35,0.865,0.0,654,4.2,13.4,0.0,1,29.8,2.09,7.4,0,0,0,1,0,,,,,,,,,,,,,,,,,,,,
129404,1626449500713,,,253,254,237,232,,0.01,0.04,-2.68,-0,1,-2,0.04,,80,7096,8,33,35,0.867,0.0,652,4.23,13.4,0.0,1,29.8,2.09,7.4,0,0,0,1,0,,,,,,,,,,,,,,,,,,,,
129424,1626449500733,,,253,253,237,232,,0.05,0.02,-2.69,-0,0,-2,0.05,,80,7011,8,33,36,0.872,0.0,649,4.32,13.4,0.0,1,30.1,1.01,6.9,0,0,0,1,0,,,,,,,,,,,,,,,,,,,,
129444,1626449500753,0,1,253,253,237,232,5,0.01,0.03,-2.75,-1,1,-1,0.03,0,80,6980,7,33,36,0.876,0.0,646,4.27,13.4,0.0,1,30.0,2.09,6.9,0,0,0,1,0,0,250,250,0,45.847061,5.177974,0.0,221.4,9,3,1.7,0,0.0,1,0.1483,0.0,1.23,1,0.18,2.1574
129464,1626449500773,,,253,253,237,232,,0.03,0.01,-2.75,-0,0,-2,0.03,,80,6873,7,33,35,0.88,0.0,652,4.16,13.4,0.0,1,29.7,2.09,6.9,0,0,0,1,0,,,,,,,,,,,,,,,,,,,,
129484,1626449500792,,,253,253,237,232,,0.02,-0.0,-2.84,-0,2,-1,0.02,,80,6793,7,33,35,0.898,0.0,642,4.26,13.3,0.0,1,29.6,2.09,6.9,0,0,0,1,0,,,,,,,,,,,,,,,,,,,,
129504,1626449500812,,,253,253,237,232,,0.05,0.02,-2.64,-0,-1,-2,0.05,,80,6706,7,33,35,0.91,0.0,647,4.2,13.4,0.0,1,29.5,2.09,6.9,0,0,0,1,0,,,,,,,,,,,,,,,,,,,,
129524,1626449500832,,,253,253,237,232,,-0.01,0.01,-2.75,-0,2,-1,0.01,,80,6613,7,33,35,0.932,0.0,646,4.36,13.4,0.0,1,29.4,2.09,6.4,0,0,0,1,0,,,,,,,,,,,,,,,,,,,,
129544,1626449500852,1,2,253,253,237,232,5,0.04,-0.02,-2.53,-0,1,-1,0.04,0,80,6528,7,33,35,0.949,0.0,645,4.17,13.2,0.0,1,29.4,2.09,6.4,0,0,0,1,0,0,250,250,0,45.847061,5.177974,0.0,221.4,9,3,1.7,0,0.0,1,0.1483,,1.2317,1,0.18,2.1591
129564,1626449500872,,,253,254,237,232,,0.05,-0.02,-2.34,-0,-1,-3,0.05,,80,6421,7,33,36,0.958,0.0,638,4.17,13.3,0.0,1,29.5,1.01,6.4,0,0,0,1,0,,,,,,,,,,,,,,,,,,,,
129584,1626449500892,,,253,253,237,232,,-0.03,-0.01,-2.47,-0,1,-1,0.03,,80,6294,7,33,36,0.974,0.0,627,4.3,13.4,0.0,1,29.4,2.13,6.4,0,0,0,1,0,,,,,,,,,,,,,,,,,,,,
129604,1626449500912,,,253,253,237,232,,-0.09,0.02,-2.58,-0,4,2,0.1,,80,6141,7,33,36,0.985,0.0,619,4.27,13.4,0.0,1,29.2,2.13,6.4,0,0,0,1,0,,,,,,,,,,,,,,,,,,,,
129624,1626449500932,,,253,253,237,232,,-0.15,0.04,-2.69,-0,7,5,0.15,,80,5978,7,33,37,0.997,0.0,611,4.27,13.4,0.0,1,29.3,2.19,6.0,0,0,0,1,0,,,,,,,,,,,,,,,,,,,,
129644,1626449500952,-0,2,253,253,237,232,5,-0.21,0.04,-2.79,-0,10,8,0.22,0,80,5804,7,33,38,0.998,0.0,601,4.3,13.5,0.0,1,29.0,2.3,6.0,0,0,0,1,0,0,250,250,0,45.847061,5.177974,0.0,221.4,9,3,1.7,0,0.0,1,0.1483,0.0,1.2333,1,0.18,2.1607
129664,1626449500972,,,253,253,237,232,,-0.15,0.01,-2.64,-0,6,5,0.15,,80,5630,7,33,39,0.999,0.0,581,4.17,13.5,0.0,1,28.9,2.42,6.0,0,0,0,1,0,,,,,,,,,,,,,,,,,,,,
129684,1626449500992,,,253,253,237,232,,-0.1,0.06,-2.44,-0,2,2,0.12,,80,5458,7,33,40,1.0,0.0,566,4.22,13.2,0.0,1,28.6,2.47,6.0,0,0,0,1,0,,,,,,,,,,,,,,,,,,,,
129704,1626449501006,,,253,254,237,232,,-0.18,0.03,-2.56,-0,8,7,0.19,,80,5329,7,33,41,0.999,0.0,552,4.24,13.4,0.0,1,28.6,2.55,6.0,0,0,0,1,0,,,,,,,,,,,,,,,,,,,,
129724,1626449501026,,,253,253,237,232,,-0.09,0.09,-2.36,-0,-0,1,0.13,,80,5168,7,33,42,0.995,0.0,532,4.23,13.2,0.0,1,28.5,2.62,6.2,0,0,0,1,0,,,,,,,,,,,,,,,,,,,,
129744,1626449501046,1,1,253,254,237,232,4,-0.11,0.05,-2.49,-0,4,5,0.12,0,80,5040,7,33,43,0.983,0.0,515,4.35,13.5,0.0,1,28.5,2.69,6.2,0,0,0,1,0,0,250,250,0,45.847061,5.177974,0.0,221.4,9,3,1.7,0,0.0,1,0.1483,,1.235,1,0.18,2.1624
129764,1626449501066,,,253,253,237,232,,-0.16,0.09,-2.29,-0,4,4,0.19,,80,4910,7,33,44,0.967,0.0,517,4.27,13.4,0.0,1,27.6,2.67,6.2,0,0,0,1,0,,,,,,,,,,,,,,,,,,,,
129784,1626449501086,,,253,253,237,232,,-0.13,0.12,-2.12,-0,-0,1,0.18,,80,4780,7,33,45,0.958,0.0,488,4.27,13.2,0.0,1,26.3,1.52,6.2,0,0,0,1,0,,,,,,,,,,,,,,,,,,,,
129804,1626449501108,,,253,253,237,232,,-0.07,0.11,-1.95,-0,-2,-1,0.13,,80,4681,7,33,46,0.946,0.0,465,4.32,13.3,0.0,1,25.4,2.61,6.2,0,0,0,1,0,,,,,,,,,,,,,,,,,,,,
129824,1626449501128,,,253,253,237,232,,-0.02,0.07,-2.11,-0,-2,-1,0.07,,80,4602,7,33,46,0.941,0.0,454,4.3,13.2,0.0,1,24.5,2.56,5.6,0,0,0,1,0,,,,,,,,,,,,,,,,,,,,
129844,1626449501148,-1,2,253,253,237,232,5,0.02,0.05,-2.25,-0,-2,-1,0.06,0,80,4497,7,33,47,0.932,0.0,438,4.25,13.4,0.0,1,23.5,2.53,5.6,0,0,0,1,0,0,250,250,0,45.847061,5.177974,0.0,221.4,9,3,1.7,0,0.0,1,0.1483,0.0,1.2367,1,0.18,2.1641
129864,1626449501168,,,253,253,237,232,,0.04,0.04,-2.27,-0,-2,-2,0.05,,80,4403,7,33,48,0.928,0.0,442,4.21,13.4,0.0,1,22.6,1.36,5.6,0,0,0,1,0,,,,,,,,,,,,,,,,,,,,
129884,1626449501192,,,253,254,237,232,,0.04,0.05,-2.11,-0,-2,-2,0.06,,80,4271,7,33,49,0.927,0.0,416,4.27,13.2,0.0,1,21.3,2.41,5.6,0,0,0,1,0,,,,,,,,,,,,,,,,,,,,
129904,1626449501212,,,252,254,237,232,,0.02,0.06,-1.94,-0,-3,-3,0.07,,80,4239,7,33,50,0.933,0.0,408,4.3,13.4,0.0,1,21.1,1.27,5.6,0,0,0,1,0,,,,,,,,,,,,,,,,,,,,
129924,1626449501232,,,253,253,237,232,,-0.01,0.05,-1.96,-0,-3,-3,0.05,,80,4220,7,33,50,0.943,0.0,412,4.33,13.5,0.0,1,20.9,2.37,4.6,0,0,0,1,0,,,,,,,,,,,,,,,,,,,,
129944,1626449501252,0,2,253,253,237,232,5,-0.0,0.03,-2.12,-0,-3,-2,0.03,0,80,4158,7,33,51,0.949,0.0,396,4.29,13.5,0.0,1,20.4,2.33,4.6,0,0,0,1,0,0,250,250,0,45.847061,5.177974,0.0,221.4,9,3,1.7,0,0.0,1,0.1483,,1.2383,1,0.18,2.1657
129964,1626449501272,,,253,253,237,232,,0.02,0.02,-2.26,-0,-2,-2,0.03,,80,4108,7,33,51,0.963,0.0,392,4.3,13.4,0.0,1,19.8,2.3,4.6,0,0,0,1,0,,,,,,,,,,,,,,,,,,,,
129984,1626449501292,,,253,254,237,232,,0.0,0.02,-2.09,-0,-2,-2,0.02,,80,4114,7,33,52,0.974,0.0,393,4.25,13.4,0.0,1,20.1,2.3,4.6,0,0,0,1,0,,,,,,,,,,,,,,,,,,,,
130004,1626449501312,,,253,253,237,232,,-0.0,0.02,-2.16,-0,-2,-2,0.02,,80,4010,7,33,53,0.992,0.0,392,4.26,13.5,0.0,1,19.1,2.21,4.6,0,0,0,1,0,,,,,,,,,,,,,,,,,,,,
130024,1626449501332,,,252,253,237,232,,0.02,0.0,-2.3,-0,-2,-2,0.02,,80,3938,7,33,54,1.007,0.0,375,4.29,13.5,0.0,1,0.0,2.22,4.1,0,0,0,1,0,,,,,,,,,,,,,,,,,,,,
130044,1626449501352,-0,2,253,254,237,232,5,0.01,0.01,-2.2,-0,-2,-2,0.01,0,80,3850,7,33,55,1.02,0.0,384,4.35,13.5,0.0,1,0.0,2.27,4.1,0,0,0,1,0,0,250,250,0,45.847061,5.177974,0.0,221.4,9,3,1.7,0,0.0,1,0.1483,0.0,1.24,1,0.18,2.1674
130064,1626449501372,,,253,253,237,232,,0.03,-0.0,-2.32,-0,-3,-2,0.03,,80,3709,7,33,56,1.031,0.0,355,4.27,13.4,0.0,1,0.0,2.34,4.1,0,0,0,1,0,,,,,,,,,,,,,,,,,,,,
130084,1626449501392,,,253,254,237,232,,0.02,-0.01,-2.34,-0,-2,-2,0.02,,80,3600,7,33,58,1.039,0.0,356,4.26,13.5,0.0,1,0.0,2.43,4.1,0,0,0,1,0,,,,,,,,,,,,,,,,,,,,
130104,1626449501412,,,253,252,237,232,,0.02,-0.02,-2.39,-0,-2,-2,0.03,,80,3465,7,33,59,1.051,0.0,337,4.31,13.2,0.0,1,0.0,1.36,4.1,0,0,0,1,0,,,,,,,,,,,,,,,,,,,,
130124,1626449501432,,,253,253,237,232,,0.01,-0.02,-2.46,-0,-2,-1,0.03,,80,3400,7,33,60,1.061,0.0,328,4.3,13.3,0.0,1,0.0,2.52,3.9,0,0,0,1,0,,,,,,,,,,,,,,,,,,,,
130144,1626449501452,1,1,253,253,237,232,4,0.02,-0.02,-2.54,-0,-1,-1,0.03,0,80,3305,7,33,61,1.06,0.0,320,4.29,13.5,0.0,1,0.0,2.56,3.9,0,0,0,1,0,0,250,250,0,45.847061,5.177974,0.0,221.4,9,3,1.7,0,0.0,1,0.1483,,1.2417,1,0.18,2.1691
130164,1626449501472,,,252,253,237,232,,0.01,-0.02,-2.65,-0,-1,-1,0.03,,80,3193,7,33,62,1.057,0.0,310,4.24,13.5,0.0,1,0.0,2.58,3.9,0,0,0,1,0,,,,,,,,,,,,,,,,,,,,
130184,1626449501492,,,253,253,237,232,,0.02,-0.03,-2.7,-0,-2,-1,0.03,,80,3086,7,33,63,1.056,0.0,309,4.34,13.5,0.0,1,0.0,2.6,3.9,0,0,0,1,0,,,,,,,,,,,,,,,,,,,,
130204,1626449501512,,,252,253,237,232,,0.04,-0.02,-2.78,-0,-3,-1,0.05,,80,2998,7,33,64,1.054,0.0,290,4.33,13.5,0.0,1,0.0,2.62,3.9,0,0,0,1,0,,,,,,,,,,,,,,,,,,,,
130224,1626449501532,,,253,253,237,232,,0.06,-0.03,-2.85,-0,-4,-1,0.07,,80,2933,7,33,65,1.044,0.0,291,4.32,13.5,0.0,1,0.0,2.63,3.5,0,0,0,1,0,,,,,,,,,,,,,,,,,,,,
130244,1626449501552,1,1,253,253,237,232,5,0.07,-0.03,-2.89,-0,-5,-1,0.08,0,80,2908,7,33,66,1.03,0.0,281,4.33,13.5,0.0,1,0.0,2.66,3.5,0,0,0,1,0,0,250,250,0,45.847061,5.177974,0.0,221.4,9,3,1.7,0,0.0,1,0.1483,0.0,1.2433,1,0.18,2.1707
130264,1626449501572,,,253,253,237,232,,0.07,-0.04,-2.85,-0,-6,-1,0.08,,80,2822,7,33,67,1.018,0.0,277,4.35,13.5,0.0,1,0.0,2.67,3.5,0,0,0,1,0,,,,,,,,,,,,,,,,,,,,
130284,1626449501592,,,253,254,237,232,,0.06,-0.03,-2.82,-0,-6,-1,0.06,,80,2706,7,33,68,1.006,0.0,273,4.22,13.4,0.0,1,-0.4,2.7,3.5,0,0,0,1,0,,,,,,,,,,,,,,,,,,,,
130304,1626449501612,,,253,254,237,232,,0.03,-0.02,-2.84,-0,-5,-1,0.03,,80,2659,7,33,69,0.996,0.0,265,4.28,13.4,0.0,1,-0.4,1.6,3.5,0,0,0,1,0,,,,,,,,,,,,,,,,,,,,
130324,1626449501632,,,253,253,237,232,,0.03,-0.01,-2.84,-0,-4,-1,0.03,,80,2656,7,33,71,0.987,0.0,261,4.33,13.5,0.0,1,-0.4,2.76,3.3,0,0,0,1,0,,,,,,,,,,,,,,,,,,,,
130344,1626449501652,0,0,253,253,237,232,4,0.04,-0.01,-2.89,-0,-4,-0,0.04,0,80,2637,7,33,72,0.977,0.0,261,4.31,13.5,0.0,1,16.0,2.78,3.3,0,0,0,1,0,0,250,250,0,45.847061,5.177974,0.0,221.4,9,3,1.7,0,0.0,1,0.1483,,1.245,1,0.18,2.1724
130364,1626449501672,,,253,253,237,232,,0.03,-0.01,-2.9,-0,-4,-0,0.03,,80,2525,7,33,72,0.968,0.0,252,4.27,13.4,0.0,1,15.2,2.78,3.3,0,0,0,1,0,,,,,,,,,,,,,,,,,,,,
130384,1626449501692,,,252,253,237,232,,0.03,0.0,-2.9,-0,-4,-0,0.03,,80,2456,7,33,74,0.965,0.0,246,4.3,13.5,0.0,1,-0.4,2.83,3.3,0,0,0,1,0,,,,,,,,,,,,,,,,,,,,
130404,1626449501712,,,253,253,237,232,,0.03,0.0,-2.91,-0,-4,-0,0.03,,80,2306,7,33,75,0.966,0.0,243,4.32,13.5,0.0,1,-0.4,2.85,3.3,0,0,0,1,0,,,,,,,,,,,,,,,,,,,,
130424,1626449501732,,,253,253,237,232,,0.03,-0.0,-2.9,-0,-3,-0,0.03,,80,2245,8,33,76,0.965,0.0,232,4.36,13.5,0.0,1,-0.4,2.88,3.0,0,0,0,1,0,,,,,,,,,,,,,,,,,,,,
130444,1626449501752,0,1,253,253,237,232,5,0.02,-0.0,-2.88,-0,-3,-1,0.02,0,80,2088,8,33,77,0.964,0.0,221,4.32,13.4,0.0,1,-0.4,2.9,3.0,0,0,0,1,0,0,250,250,0,45.847061,5.177974,0.0,221.4,9,3,1.7,0,0.0,1,0.1483,0.0,1.2467,1,0.18,2.1741
130464,1626449501772,,,253,253,237,232,,0.03,0.0,-2.9,-0,-3,-1,0.03,,80,2021,8,33,79,0.965,0.0,219,4.26,13.5,0.0,1,-0.4,2.94,3.0,0,0,0,1,0,,,,,,,,,,,,,,,,,,,,
130484,1626449501791,,,252,253,237,232,,0.03,-0.0,-2.9,-0,-3,-1,0.03,,80,1992,8,33,81,0.97,0.0,215,4.31,13.5,0.0,1,-0.6,2.99,3.0,0,0,0,1,0,,,,,,,,,,,,,,,,,,,,
130504,1626449501811,,,252,253,237,232,,0.03,-0.0,-2.87,-0,-3,-1,0.03,,80,1905,8,33,81,0.972,0.0,206,4.28,13.2,0.0,1,-0.6,2.99,3.0,0,0,0,1,0,,,,,,,,,,,,,,,,,,,,
130524,1626449501831,,,253,253,237,232,,0.02,-0.01,-2.89,-0,-3,-1,0.02,,80,1818,8,33,83,0.976,0.0,202,4.22,13.5,0.0,1,-0.6,3.04,2.6,0,0,0,1,0,,,,,,,,,,,,,,,,,,,,
130544,1626449501851,0,2,253,253,237,232,5,0.02,-0.01,-2.88,-0,-2,-1,0.02,0,80,1713,8,33,84,0.976,0.0,198,4.27,13.5,0.0,1,-0.6,3.06,2.6,0,0,0,1,0,0,250,250,0,45.847061,5.177974,0.0,221.4,9,3,1.7,0,0.0,1,0.1483,,1.2483,1,0.18,2.1757
130564,1626449501871,,,253,253,237,232,,0.02,-0.01,-2.89,-0,-2,-1,0.02,,80,1609,8,33,86,0.977,0.0,191,4.32,13.5,0.0,1,-0.6,3.08,2.6,0,0,0,1,0,,,,,,,,,,,,,,,,,,,,
130584,1626449501891,,,253,253,237,232,,0.02,-0.01,-2.89,-0,-2,-1,0.02,,80,1528,8,33,86,0.978,0.0,183,4.3,13.4,0.0,1,-0.6,3.1,2.6,0,0,0,1,0,,,,,,,,,,,,,,,,,,,,
130604,1626449501911,,,253,253,237,232,,0.01,-0.01,-2.89,-0,-2,-1,0.02,,80,1430,8,33,88,0.979,0.0,178,4.32,13.4,0.0,1,-0.6,2.04,2.6,0,0,0,1,0,,,,,,,,,,,,,,,,,,,,
130624,1626449501931,,,253,253,237,232,,0.01,-0.01,-2.9,-0,-2,-1,0.02,,80,1344,8,33,88,0.978,0.0,173,4.32,13.4,0.0,1,-0.6,3.14,2.0,0,0,0,1,0,,,,,,,,,,,,,,,,,,,,
130644,1626449501951,0,2,253,253,237,232,5,0.01,-0.01,-2.91,-0,-2,-0,0.02,0,80,1268,8,34,89,0.975,0.0,168,4.3,13.1,0.0,1,-0.6,3.16,2.0,0,0,0,1,0,0,250,250,0,45.847061,5.177974,0.0,221.4,9,3,1.7,0,0.0,1,0.1483,0.0,1.25,1,0.18,2.1774
130664,1626449501971,,,253,253,237,232,,0.01,-0.01,-2.92,-0,-1,-0,0.02,,80,1268,8,33,90,0.972,0.0,167,4.33,13.4,0.0,1,-0.6,2.09,2.0,0,0,0,1,0,,,,,,,,,,,,,,,,,,,,
130684,1626449501991,,,253,253,237,232,,0.01,-0.01,-2.92,-0,-1,-0,0.02,,80,1213,8,34,91,0.969,0.0,164,4.33,13.4,0.0,1,-0.1,3.19,2.0,0,0,0,1,0,,,,,,,,,,,,,,,,,,,,
130704,1626449502005,,,253,253,237,232,,0.01,-0.01,-2.94,-0,-1,-0,0.01,,80,1133,8,34,92,0.965,0.0,158,4.25,13.4,0.0,1,-0.1,3.19,2.0,0,0,0,1,0,,,,,,,,,,,,,,,,,,,,
130724,1626449502025,,,252,253,237,232,,0.01,-0.01,-2.95,-0,-1,-0,0.02,,80,1049,8,34,92,0.963,0.0,155,4.26,13.0,0.0,1,-0.1,3.19,1.6,0,0,0,1,0,,,,,,,,,,,,,,,,,,,,
130744,1626449502045,0,2,253,253,237,232,5,0.01,-0.0,-2.96,-0,-1,-0,0.01,0,80,1049,10,34,93,0.96,0.0,151,4.43,13.4,0.0,1,-0.1,2.09,1.6,0,0,0,1,0,0,250,250,0,45.847061,5.177974,0.0,221.4,9,3,1.7,0,0.0,1,0.1483,,1.2517,1,0.18,2.1791
130764,1626449502065,,,253,253,237,232,,0.01,-0.0,-2.96,-0,-1,-0,0.01,,80,966,12,34,94,0.957,0.0,150,4.32,13.3,0.0,1,-0.1,3.19,1.6,0,0,0,1,0,,,,,,,,,,,,,,,,,,,,
130784,1626449502091,,,253,253,237,232,,0.01,-0.01,-2.97,-0,-1,-0,0.01,,80,959,13,34,95,0.955,0.0,148,4.32,13.3,0.0,1,25.8,3.19,1.6,0,0,0,1,0,,,,,,,,,,,,,,,,,,,,
130804,1626449502111,,,253,253,237,232,,0.01,-0.01,-2.97,-0,-1,-0,0.01,,80,959,13,34,96,0.952,0.0,151,4.29,13.4,0.0,1,27.2,3.19,1.6,0,0,0,1,0,,,,,,,,,,,,,,,,,,,,
130824,1626449502131,,,253,253,237,232,,0.01,-0.01,-2.96,-0,-1,-0,0.01,,80,1013,13,34,96,0.95,0.0,151,4.3,13.3,0.0,1,27.3,3.19,1.4,0,0,0,1,0,,,,,,,,,,,,,,,,,,,,
130844,1626449502151,0,0,253,253,237,232,5,0.01,-0.0,-2.97,-0,-1,-0,0.01,0,80,1058,13,34,95,0.947,0.0,150,4.32,13.0,0.0,1,26.2,2.09,1.4,0,0,0,1,0,0,250,250,0,45.847061,5.177974,0.0,221.4,9,3,1.7,0,0.0,1,0.1483,0.0,1.2533,1,0.18,2.1807
130864,1626449502171,,,253,253,237,232,,0.01,-0.01,-2.97,-0,-1,-0,0.01,,80,1277,13,34,96,0.945,0.0,153,4.33,13.4,0.0,1,29.4,2.04,1.4,0,0,0,1,0,,,,,,,,,,,,,,,,,,,,
130884,1626449502191,,,253,253,237,232,,0.01,-0.01,-2.98,-0,-1,-0,0.01,,80,1486,13,34,95,0.944,0.0,161,4.33,13.1,0.0,1,29.6,2.04,1.4,0,0,0,1,0,,,,,,,,,,,,,,,,,,,,
130904,1626449502211,,,253,253,237,232,,0.01,-0.0,-2.94,-0,-0,-0,0.01,,80,1681,13,34,95,0.943,0.0,170,4.27,13.1,0.0,1,29.8,2.09,1.4,0,0,0,1,0,,,,,,,,,,,,,,,,,,,,
130924,1626449502231,,,253,253,237,232,,-0.01,-0.0,-2.95,-0,-0,-0,0.01,,80,1856,13,34,95,0.942,0.0,183,4.27,13.4,0.0,1,29.8,2.09,2.4,0,0,0,1,0,,,,,,,,,,,,,,,,,,,,
130944,1626449502251,-0,2,252,253,237,232,5,-0.0,-0.0,-2.96,-0,-0,-0,0.01,0,80,1815,13,34,95,0.941,0.0,189,4.37,13.5,0.0,1,29.8,2.09,2.4,0,0,0,1,0,0,250,250,0,45.847061,5.177974,0.0,221.4,9,3,1.7,0,0.0,1,0.1483,,1.255,1,0.18,2.1824
130964,1626449502271,,,253,253,237,232,,0.0,-0.0,-2.96,-0,-0,-0,0.0,,80,1830,13,34,95,0.944,0.0,192,4.32,13.5,0.0,1,29.8,3.19,2.4,0,0,0,1,0,,,,,,,,,,,,,,,,,,,,
130984,1626449502291,,,253,253,237,232,,0.0,-0.0,-2.94,-0,-0,-0,0.0,,80,1975,13,34,95,0.946,0.0,196,4.2,13.2,0.0,1,29.8,3.19,2.4,0,0,0,1,0,,,,,,,,,,,,,,,,,,,,
131004,1626449502311,,,253,253,237,232,,-0.0,0.0,-2.98,-0,-0,-0,0.0,,80,2223,13,34,94,0.948,0.0,213,4.26,13.5,0.0,1,28.5,3.19,2.4,0,0,0,1,0,,,,,,,,,,,,,,,,,,,,
131024,1626449502331,,,253,253,237,232,,0.01,-0.0,-2.97,-0,-0,-0,0.01,,80,2585,13,34,93,0.95,0.0,230,4.24,13.5,0.0,1,27.1,3.24,3.5,0,0,0,1,0,,,,,,,,,,,,,,,,,,,,
131044,1626449502351,0,2,253,253,237,232,5,-0.01,-0.0,-2.95,-0,0,-0,0.01,0,80,2634,13,34,92,0.951,0.0,243,4.22,13.2,0.0,1,25.9,3.25,3.5,0,0,0,1,0,0,250,250,0,45.847061,5.177974,0.0,221.4,9,3,1.7,0,0.0,1,0.1483,0.0,1.2567,1,0.18,2.1841
131064,1626449502371,,,253,253,237,232,,-0.01,0.0,-2.94,-0,-0,-0,0.01,,80,2594,13,34,92,0.95,0.0,252,4.23,13.5,0.0,1,25.8,3.23,3.5,0,0,0,1,0,,,,,,,,,,,,,,,,,,,,
131084,1626449502391,,,253,253,237,232,,-0.0,-0.0,-2.96,-0,-0,-0,0.0,,80,2530,13,34,92,0.951,0.0,247,4.23,13.5,0.0,1,25.8,3.19,3.5,0,0,0,1,0,,,,,,,,,,,,,,,,,,,,
131104,1626449502411,,,253,253,237,232,,-0.01,-0.01,-2.93,-0,-0,-0,0.01,,80,2586,13,34,91,0.952,0.0,243,4.28,13.4,0.0,1,24.5,3.22,3.5,0,0,0,1,0,,,,,,,,,,,,,,,,,,,,
131124,1626449502431,,,253,253,237,232,,-0.03,-0.0,-2.96,-0,0,-0,0.03,,80,2661,13,34,91,0.951,0.0,258,4.26,13.2,0.0,1,24.7,3.24,3.8,0,0,0,1,0,,,,,,,,,,,,,,,,,,,,
131144,1626449502451,-1,2,252,253,237,232,5,-0.02,0.0,-2.95,-0,0,-0,0.02,0,80,2682,13,34,91,0.95,0.0,258,4.27,13.5,0.0,1,24.8,3.26,3.8,0,0,0,1,0,0,250,250,0,45.847061,5.177974,0.0,221.4,9,3,1.7,0,0.0,1,0.1483,,1.2583,1,0.18,2.1857
131164,1626449502471,,,253,253,237,232,,-0.0,-0.01,-2.99,-0,-0,-0,0.01,,80,2687,13,34,91,0.95,0.0,261,4.35,13.5,0.0,1,24.8,3.24,3.8,0,0,0,1,0,,,,,,,,,,,,,,,,,,,,
131184,1626449502491,,,253,253,237,232,,0.01,-0.01,-3.0,-0,-0,-0,0.02,,80,2706,13,34,90,0.95,0.0,265,4.28,13.5,0.0,1,23.8,3.24,3.8,0,0,0,1,0,,,,,,,,,,,,,,,,,,,,
131204,1626449502511,,,253,254,237,232,,-0.0,-0.01,-2.98,-0,-0,-0,0.01,,80,2786,13,34,90,0.954,0.0,263,4.32,13.5,0.0,1,24.1,3.27,3.8,0,0,0,1,0,,,,,,,,,,,,,,,,,,,,
131224,1626449502531,,,253,253,237,232,,-0.03,-0.01,-2.97,-0,0,-0,0.03,,80,2803,13,34,89,0.957,0.0,272,4.23,13.2,0.0,1,23.4,3.24,4.2,0,0,0,1,0,,,,,,,,,,,,,,,,,,,,
131244,1626449502551,0,2,252,253,237,232,5,-0.05,-0.0,-2.97,-0,1,-0,0.05,0,80,2839,13,34,89,0.96,0.0,272,4.31,13.3,0.0,1,23.6,3.25,4.2,0,0,0,1,0,0,250,250,0,45.847061,5.177974,0.0,221.4,9,3,1.7,0,0.0,1,0.1483,0.0,1.26,1,0.18,2.1874
131264,1626449502571,,,253,253,237,232,,-0.04,0.0,-2.91,-0,1,-1,0.04,,80,2816,13,34,89,0.965,0.0,270,4.27,13.3,0.0,1,23.4,3.24,4.2,0,0,0,1,0,,,,,,,,,,,,,,,,,,,,
131284,1626449502593,,,253,253,237,232,,-0.03,0.01,-2.92,-0,1,-0,0.03,,80,2753,13,34,89,0.989,0.0,270,4.31,13.5,0.0,1,23.1,3.23,4.2,0,0,0,1,0,,,,,,,,,,,,,,,,,,,,
131304,1626449502613,,,253,253,237,232,,-0.01,0.0,-3.01,-0,0,-0,0.01,,80,2729,13,34,89,1.021,0.0,264,4.32,13.5,0.0,1,22.9,3.22,4.2,0,0,0,1,0,,,,,,,,,,,,,,,,,,,,
131324,1626449502633,,,252,253,237,232,,0.0,-0.01,-2.98,-0,0,-0,0.01,,80,2750,13,34,89,1.054,0.0,260,4.35,13.5,0.0,1,23.1,3.23,4.0,0,0,0,1,0,,,,,,,,,,,,,,,,,,,,
131344,1626449502653,-1,2,253,254,237,232,5,-0.02,-0.0,-2.97,-0,0,-0,0.02,0,80,2795,13,34,89,1.095,0.0,271,4.31,13.5,0.0,1,23.3,3.24,4.0,0,0,0,1,0,0,250,250,0,45.847061,5.177974,0.0,221.4,9,3,1.7,0,0.0,1,0.1483,,1.2617,1,0.18,2.1891
131364,1626449502673,,,253,253,237,232,,-0.04,-0.01,-2.98,-0,1,-0,0.04,,80,2744,13,34,89,1.129,0.0,266,4.26,13.2,0.0,1,23.0,2.12,4.0,0,0,0,1,0,,,,,,,,,,,,,,,,,,,,
131384,1626449502693,,,253,253,237,232,,-0.04,-0.0,-2.95,-0,1,-0,0.04,,80,2723,13,34,89,1.173,0.0,266,4.27,13.5,0.0,1,22.8,3.22,4.0,0,0,0,1,0,,,,,,,,,,,,,,,,,,,,
131404,1626449502713,,,253,253,237,232,,-0.02,-0.01,-2.96,-0,0,-0,0.02,,80,2677,13,34,90,1.231,0.0,265,4.29,13.5,0.0,1,23.7,3.23,4.0,0,0,0,1,0,,,,,,,,,,,,,,,,,,,,
131424,1626449502733,,,253,253,237,232,,-0.0,-0.01,-3.0,-0,-0,-0,0.01,,79,2772,13,34,89,1.275,0.0,263,4.26,13.5,0.0,1,23.1,3.23,4.0,0,0,0,1,0,,,,,,,,,,,,,,,,,,,,
131444,1626449502753,0,2,252,253,237,232,5,0.0,-0.02,-2.96,-0,-0,-0,0.02,0,80,2740,13,34,89,1.316,0.0,267,4.3,13.5,0.0,1,22.9,3.22,4.0,0,0,0,1,0,0,250,250,0,45.847061,5.177974,0.0,221.4,9,3,1.7,0,0.0,1,0.1483,0.0,1.2633,1,0.18,2.1907
131464,1626449502773,,,253,253,237,232,,-0.02,-0.01,-2.95,-0,0,-0,0.02,,80,2711,13,34,89,1.345,0.0,267,4.34,13.2,0.0,1,22.8,2.11,4.0,0,0,0,1,0,,,,,,,,,,,,,,,,,,,,
131484,1626449502793,,,253,253,237,232,,-0.03,-0.01,-2.96,-0,0,-0,0.03,,80,2724,13,34,90,1.384,0.0,263,4.32,13.4,0.0,1,23.8,3.25,4.0,0,0,0,1,0,,,,,,,,,,,,,,,,,,,,
131504,1626449502813,,,253,253,237,232,,-0.02,-0.01,-2.94,-0,0,-0,0.02,,80,2707,13,34,90,1.432,0.0,265,4.32,13.5,0.0,1,23.8,3.24,4.0,0,0,0,1,0,,,,,,,,,,,,,,,,,,,,
131524,1626449502833,,,253,253,237,232,,-0.0,-0.02,-3.01,-0,-0,-0,0.02,,79,2726,13,34,90,1.458,0.0,263,4.23,13.5,0.0,1,23.9,3.25,4.0,0,0,0,1,0,,,,,,,,,,,,,,,,,,,,
131544,1626449502853,0,0,253,253,237,232,5,0.01,-0.02,-3.02,-0,-0,-0,0.03,0,80,2713,13,34,90,1.469,0.0,259,4.22,13.5,0.0,1,23.8,3.21,4.0,0,0,0,1,0,0,250,250,0,45.847061,5.177974,0.0,221.4,9,3,1.7,0,0.0,1,0.1483,,1.265,1,0.18,2.1924
131564,1626449502873,,,253,253,237,232,,-0.01,-0.02,-3.0,-0,0,-0,0.02,,80,2756,13,34,89,1.481,0.0,268,4.29,13.5,0.0,1,23.1,3.23,4.0,0,0,0,1,0,,,,,,,,,,,,,,,,,,,,
131584,1626449502892,,,253,254,237,232,,-0.04,-0.02,-2.99,-0,1,-0,0.04,,80,2835,13,34,89,1.489,0.0,267,4.21,13.2,0.0,1,23.5,3.25,4.0,0,0,0,1,0,,,,,,,,,,,,,,,,,,,,
131604,1626449502912,,,252,253,237,232,,-0.05,-0.01,-2.97,-0,1,-0,0.05,,80,2807,13,34,89,1.498,0.0,270,4.21,13.4,0.0,1,23.4,3.24,4.0,0,0,0,1,0,,,,,,,,,,,,,,,,,,,,
131624,1626449502932,,,253,253,237,232,,-0.04,0.01,-2.93,-0,1,-1,0.04,,80,2775,13,34,89,1.498,0.0,272,4.23,13.4,0.0,1,23.2,3.23,4.2,0,0,0,1,0,,,,,,,,,,,,,,,,,,,,
131644,1626449502952,-1,2,253,253,237,232,5,-0.02,-0.0,-2.96,-0,1,-0,0.02,0,79,2711,13,34,89,1.498,0.0,265,4.29,13.5,0.0,1,22.8,3.21,4.2,0,0,0,1,0,0,250,250,0,45.847061,5.177974,0.0,221.4,9,3,1.7,0,0.0,1,0.1483,0.0,1.2667,1,0.18,2.1941
131664,1626449502972,,,253,253,237,232,,-0.0,-0.01,-2.99,-0,0,-0,0.01,,80,2691,13,34,89,1.498,0.0,265,4.29,13.5,0.0,1,22.6,3.21,4.2,0,0,0,1,0,,,,,,,,,,,,,,,,,,,,
131684,1626449502992,,,253,253,237,232,,-0.01,-0.01,-2.96,-0,0,-0,0.01,,80,2746,13,34,89,1.498,0.0,267,4.31,13.4,0.0,1,23.0,3.22,4.2,0,0,0,1,0,,,,,,,,,,,,,,,,,,,,
131704,1626449503004,,,253,253,237,232,,-0.03,-0.01,-2.97,-0,1,-0,0.03,,80,2712,13,34,89,1.498,0.0,262,4.31,13.2,0.0,1,22.8,3.21,4.2,0,0,0,1,0,,,,,,,,,,,,,,,,,,,,
131724,1626449503024,,,253,253,237,232,,-0.03,-0.0,-2.95,-0,1,-0,0.03,,80,2696,13,34,89,1.498,0.0,264,4.34,13.4,0.0,1,22.7,3.24,4.0,0,0,0,1,0,,,,,,,,,,,,,,,,,,,,
131744,1626449503044,0,1,253,253,237,232,5,-0.01,-0.01,-2.97,-0,0,-0,0.02,0,79,2680,13,34,90,1.498,0.0,263,4.34,13.5,0.0,1,23.7,3.24,4.0,0,0,0,1,0,0,250,250,0,45.847061,5.177974,0.0,221.4,9,3,1.7,0,0.0,1,0.1483,,1.2683,1,0.18,2.1957
131764,1626449503064,,,253,253,237,232,,-0.01,-0.01,-2.98,-0,0,-0,0.02,,79,2656,13,34,90,1.498,0.0,256,4.29,13.5,0.0,1,23.6,3.23,4.0,0,0,0,1,0,,,,,,,,,,,,,,,,,,,,
131784,1626449503084,,,253,254,237,232,,-0.02,-0.0,-2.95,-0,0,-0,0.02,,80,2649,13,34,90,1.498,0.0,260,4.28,13.4,0.0,1,23.5,3.23,4.0,0,0,0,1,0,,,,,,,,,,,,,,,,,,,,
131804,1626449503110,,,252,253,237,232,,-0.03,-0.01,-2.98,-0,1,-0,0.03,,80,2647,13,34,90,1.498,0.0,262,4.26,13.4,0.0,1,23.6,2.13,4.0,0,0,0,1,0,,,,,,,,,,,,,,,,,,,,
131824,1626449503130,,,252,253,237,232,,-0.02,-0.0,-2.96,-0,0,-0,0.02,,79,2656,13,34,90,1.498,0.0,259,4.32,13.5,0.0,1,23.6,3.23,3.9,0,0,0,1,0,,,,,,,,,,,,,,,,,,,,
131844,1626449503150,-0,2,253,253,237,232,5,-0.0,0.0,-3.01,-0,0,-0,0.0,0,79,2675,13,34,90,1.498,0.0,263,4.32,13.5,0.0,1,23.7,3.23,3.9,0,0,0,1,0,0,250,250,0,45.847061,5.177974,0.0,221.4,9,3,1.7,0,0.0,1,0.1483,0.0,1.27,1,0.18,2.1974
131864,1626449503170,,,253,253,237,232,,-0.01,-0.0,-2.97,-0,0,-0,0.01,,80,2661,13,34,90,1.498,0.0,258,4.33,13.5,0.0,1,23.6,3.23,3.9,0,0,0,1,0,,,,,,,,,,,,,,,,,,,,
131884,1626449503192,,,253,254,237,232,,-0.02,0.0,-2.99,-0,1,-0,0.02,,80,2602,13,34,90,1.498,0.0,256,4.3,13.3,0.0,1,23.4,3.21,3.9,0,0,0,1,0,,,,,,,,,,,,,,,,,,,,
131904,1626449503212,,,253,253,237,232,,-0.01,0.0,-2.98,-0,0,-0,0.01,,79,2593,13,34,90,1.498,0.0,260,4.35,13.5,0.0,1,23.3,3.21,3.9,0,0,0,1,0,,,,,,,,,,,,,,,,,,,,
131924,1626449503232,,,252,253,237,232,,0.0,0.01,-3.02,-0,0,-0,0.01,,79,2590,13,34,90,1.498,0.0,251,4.29,13.5,0.0,1,23.3,3.21,3.8,0,0,0,1,0,,,,,,,,,,,,,,,,,,,,
131944,1626449503252,-0,2,253,253,237,232,5,-0.01,0.01,-2.99,-0,0,-0,0.02,0,80,2579,13,34,90,1.498,0.0,250,4.31,13.4,0.0,1,23.3,3.21,3.8,0,0,0,1,0,0,250,250,0,45.847061,5.177974,0.0,221.4,9,3,1.7,0,0.0,1,0.1483,,1.2717,1,0.18,2.1991
131964,1626449503272,,,253,253,237,232,,-0.02,0.01,-3.01,-0,1,-0,0.02,,79,2617,13,34,90,1.498,0.0,256,4.29,13.3,0.0,1,23.4,3.22,3.8,0,0,0,1,0,,,,,,,,,,,,,,,,,,,,
131984,1626449503292,,,253,253,237,232,,-0.0,0.01,-3.02,-0,0,-0,0.01,,79,2631,13,34,91,1.498,0.0,255,4.28,13.5,0.0,1,24.7,3.23,3.8,0,0,0,1,0,,,,,,,,,,,,,,,,,,,,
132004,1626449503312,,,253,253,237,232,,0.01,0.01,-3.05,-0,0,-0,0.01,,79,2655,13,34,90,1.498,0.0,255,4.26,13.5,0.0,1,23.6,3.23,3.8,0,0,0,1,0,,,,,,,,,,,,,,,,,,,,
132024,1626449503332,,,253,254,237,232,,-0.01,0.01,-3.02,-0,0,-0,0.01,,80,2666,13,34,90,1.498,0.0,262,4.37,13.5,0.0,1,23.6,3.23,3.9,0,0,0,1,0,,,,,,,,,,,,,,,,,,,,
132044,1626449503352,-1,2,253,253,237,232,5,-0.02,0.01,-3.03,-0,1,0,0.02,0,80,2641,13,34,90,1.498,0.0,258,4.28,13.2,0.0,1,23.5,3.22,3.9,0,0,0,1,0,0,250,250,0,45.847061,5.177974,0.0,221.4,9,3,1.7,0,0.0,1,0.1483,0.0,1.2733,1,0.18,2.2007
132064,1626449503372,,,253,253,237,232,,-0.01,0.01,-3.01,-0,0,-0,0.01,,79,2623,13,34,90,1.498,0.0,258,4.37,13.5,0.0,1,23.4,3.22,3.9,0,0,0,1,0,,,,,,,,,,,,,,,,,,,,
132084,1626449503392,,,252,253,237,232,,0.01,0.01,-3.03,-0,0,-0,0.01,,79,2597,13,34,90,1.498,0.0,258,4.38,13.5,0.0,1,23.3,2.11,3.9,0,0,0,1,0,,,,,,,,,,,,,,,,,,,,
132104,1626449503412,,,253,253,237,232,,-0.01,0.01,-2.99,-0,0,-0,0.01,,80,2639,13,34,90,1.498,0.0,254,4.31,13.4,0.0,1,23.5,2.12,3.9,0,0,0,1,0,,,,,,,,,,,,,,,,,,,,
132124,1626449503432,,,253,253,237,232,,-0.02,-0.0,-2.97,-0,0,-0,0.02,,80,2669,13,34,90,1.498,0.0,260,4.31,13.3,0.0,1,23.6,3.23,3.9,0,0,0,1,0,,,,,,,,,,,,,,,,,,,,
132144,1626449503452,0,2,252,253,237,232,4,-0.0,-0.0,-2.96,-0,0,-0,0.01,0,79,2697,13,34,90,1.498,0.0,262,4.25,13.5,0.0,1,23.7,3.24,3.9,0,0,0,1,0,0,250,250,0,45.847061,5.177974,0.0,221.4,9,3,1.7,0,0.0,1,0.1483,,1.275,1,0.18,2.2024
132164,1626449503472,,,253,253,237,232,,0.01,-0.0,-3.01,-0,0,-0,0.01,,79,2689,13,34,90,1.498,0.0,258,4.3,13.5,0.0,1,23.7,3.24,3.9,0,0,0,1,0,,,,,,,,,,,,,,,,,,,,
132184,1626449503492,,,252,253,237,232,,0.02,-0.01,-2.98,-0,-0,-0,0.02,,79,2655,13,34,90,1.498,0.0,260,4.33,13.5,0.0,1,23.6,3.23,3.9,0,0,0,1,0,,,,,,,,,,,,,,,,,,,,
132204,1626449503512,,,253,254,237,232,,-0.0,-0.01,-2.95,-0,-0,-0,0.01,,80,2622,13,34,90,1.498,0.0,260,4.33,13.2,0.0,1,23.4,2.12,3.9,0,0,0,1,0,,,,,,,,,,,,,,,,,,,,
132224,1626449503532,,,253,253,237,232,,-0.0,-0.0,-2.95,-0,-0,-0,0.0,,80,2625,13,34,90,1.498,0.0,255,4.4,13.5,0.0,1,23.5,3.22,3.9,0,0,0,1,0,,,,,,,,,,,,,,,,,,,,
132244,1626449503552,-1,2,253,253,237,232,5,0.01,0.0,-2.97,-0,-0,-0,0.01,0,79,2678,13,34,90,1.498,0.0,258,4.28,13.5,0.0,1,23.7,3.23,3.9,0,0,0,1,0,31,250,250,0,45.847061,5.177974,0.0,221.4,9,3,1.7,0,0.0,1,0.1483,0.0,1.2767,1,0.18,2.2041
132264,1626449503572,,,253,253,237,232,,0.02,0.01,-3.0,-0,-1,-0,0.02,,79,2724,13,34,90,1.498,0.0,263,4.28,13.5,0.0,1,23.8,3.25,3.9,0,0,0,1,0,,,,,,,,,,,,,,,,,,,,
132284,1626449503592,,,252,253,237,232,,0.01,-0.0,-2.97,-0,-1,-0,0.01,,79,2766,13,34,89,1.498,0.0,263,4.36,13.5,0.0,1,23.1,3.23,3.9,0,0,0,1,0,,,,,,,,,,,,,,,,,,,,
132304,1626449503612,,,253,253,237,232,,-0.01,-0.0,-2.97,-0,-0,-0,0.01,,80,2754,13,34,89,1.498,0.0,269,4.3,13.4,0.0,1,23.1,3.23,3.9,0,0,0,1,0,,,,,,,,,,,,,,,,,,,,
132324,1626449503632,,,253,253,237,232,,-0.02,0.01,-2.95,-0,0,-0,0.02,,80,2721,13,34,89,1.498,0.0,265,4.26,13.4,0.0,1,22.8,3.22,4.1,0,0,0,1,0,,,,,,,,,,,,,,,,,,,,
132344,1626449503652,-1,2,253,253,237,232,5,-0.01,0.01,-2.92,-0,-0,-0,0.01,0,79,2696,13,34,90,1.498,0.0,263,4.27,13.5,0.0,1,23.7,3.24,4.1,0,0,0,1,0,31,250,250,0,45.847061,5.177974,0.0,221.4,9,3,1.7,0,0.0,1,0.1483,,1.2783,1,0.18,2.2057
132364,1626449503672,,,253,253,237,232,,0.01,0.01,-2.98,-0,-0,-0,0.01,,79,2680,13,34,90,1.498,0.0,265,4.27,13.5,0.0,1,23.7,3.24,4.1,0,0,0,1,0,,,,,,,,,,,,,,,,,,,,
132384,1626449503692,,,253,253,237,232,,0.01,-0.0,-2.93,-0,-1,-0,0.01,,79,2690,13,34,89,1.498,0.0,260,4.39,13.5,0.0,1,22.6,3.21,4.1,0,0,0,1,0,,,,,,,,,,,,,,,,,,,,
132404,1626449503712,,,253,253,237,232,,-0.01,0.0,-2.95,-0,-0,-0,0.01,,80,2674,13,34,89,1.498,0.0,260,4.3,13.3,0.0,1,22.5,3.2,4.1,0,0,0,1,0,,,,,,,,,,,,,,,,,,,,
132424,1626449503732,,,253,253,237,232,,-0.01,0.0,-2.93,-0,-0,-0,0.01,,80,2660,13,34,90,1.498,0.0,261,4.28,13.4,0.0,1,23.6,3.23,4.0,0,0,0,1,0,,,,,,,,,,,,,,,,,,,,
132444,1626449503752,0,2,252,253,237,232,5,-0.0,-0.0,-2.96,-0,-0,-0,0.0,0,79,2650,13,34,90,1.498,0.0,258,4.32,13.5,0.0,1,23.6,2.13,4.0,0,0,0,1,0,31,250,250,0,45.847061,5.177974,0.0,221.4,9,3,1.7,0,0.0,1,0.1483,0.0,1.28,1,0.18,2.2074
132464,1626449503772,,,253,253,237,232,,0.01,-0.01,-2.97,-0,-0,-0,0.01,,79,2595,13,34,90,1.498,0.0,255,4.33,13.5,0.0,1,23.3,2.11,4.0,0,0,0,1,0,,,,,,,,,,,,,,,,,,,,
132484,1626449503792,,,253,253,237,232,,-0.0,-0.01,-2.96,-0,-0,-0,0.01,,80,2525,13,34,90,1.498,0.0,255,4.29,13.1,0.0,1,23.1,3.19,4.0,0,0,0,1,0,,,,,,,,,,,,,,,,,,,,
132504,1626449503812,,,253,254,237,232,,0.0,-0.0,-2.97,-0,-0,-0,0.0,,79,2491,13,34,91,1.498,0.0,248,4.36,13.5,0.0,1,24.3,3.19,4.0,0,0,0,1,0,,,,,,,,,,,,,,,,,,,,
132524,1626449503832,,,253,253,237,232,,0.01,-0.01,-2.96,-0,-0,-0,0.01,,79,2459,13,34,91,1.498,0.0,245,4.3,13.5,0.0,1,24.3,3.19,3.6,0,0,0,1,0,,,,,,,,,,,,,,,,,,,,
132544,1626449503852,0,0,253,253,237,232,5,-0.01,-0.0,-2.94,-0,-0,-0,0.01,0,80,2613,13,34,91,1.498,0.0,254,4.2,13.2,0.0,1,24.6,3.23,3.6,0,0,0,1,0,31,250,250,0,45.847061,5.177974,0.0,221.4,9,3,1.7,0,0.0,1,0.1483,,1.2817,1,0.18,2.2091
132564,1626449503872,,,253,253,237,232,,-0.01,-0.0,-2.92,-0,0,-0,0.01,,79,2701,13,34,91,1.498,0.0,257,4.27,13.5,0.0,1,24.9,2.17,3.6,0,0,0,1,0,,,,,,,,,,,,,,,,,,,,
132584,1626449503891,,,253,253,237,232,,0.0,-0.0,-2.95,-0,0,-0,0.0,,79,2748,13,34,90,1.498,0.0,266,4.28,13.5,0.0,1,23.9,3.25,3.6,0,0,0,1,0,,,,,,,,,,,,,,,,,,,,
132604,1626449503911,,,253,253,237,232,,0.02,-0.01,-3.02,-0,-0,-0,0.02,,79,2696,13,34,90,1.498,0.0,265,4.25,13.5,0.0,1,23.7,3.24,3.6,0,0,0,1,0,,,,,,,,,,,,,,,,,,,,
132624,1626449503931,,,253,253,237,232,,0.01,-0.01,-2.97,-0,-0,-0,0.02,,80,2644,13,34,90,1.498,0.0,256,4.26,13.5,0.0,1,23.5,3.23,3.9,0,0,0,1,0,,,,,,,,,,,,,,,,,,,,
132644,1626449503951,0,0,253,253,237,232,4,0.0,-0.01,-2.99,-0,0,-0,0.01,0,80,2598,13,34,90,1.498,0.0,257,4.22,13.2,0.0,1,23.3,3.21,3.9,0,0,0,1,0,31,250,250,0,45.847061,5.177974,0.0,221.4,9,3,1.7,0,0.0,1,0.1483,0.0,1.2833,1,0.18,2.2107
132664,1626449503971,,,253,253,237,232,,0.01,-0.01,-2.97,-0,-0,-0,0.01,,79,2592,13,34,90,1.498,0.0,257,4.33,13.5,0.0,1,23.3,3.22,3.9,0,0,0,1,0,,,,,,,,,,,,,,,,,,,,
132684,1626449503991,,,253,253,237,232,,0.02,0.01,-3.02,-0,-0,-0,0.02,,79,2599,13,34,90,1.498,0.0,252,4.31,13.5,0.0,1,23.3,3.21,3.9,0,0,0,1,0,,,,,,,,,,,,,,,,,,,,
132704,1626449504005,,,253,253,237,232,,0.01,0.0,-2.99,-0,-0,-0,0.01,,80,2621,13,34,90,1.498,0.0,254,4.28,13.5,0.0,1,23.4,3.22,3.9,0,0,0,1,0,,,,,,,,,,,,,,,,,,,,
132724,1626449504025,,,253,253,237,232,,-0.01,0.01,-2.99,-0,0,-0,0.01,,80,2663,13,34,90,1.498,0.0,261,4.23,13.2,0.0,1,23.6,3.23,3.9,0,0,0,1,0,,,,,,,,,,,,,,,,,,,,
132744,1626449504045,0,3,253,253,237,232,4,0.0,0.01,-2.96,-0,-0,-0,0.01,0,79,2643,13,34,90,1.498,0.0,257,4.26,13.5,0.0,1,23.5,2.13,3.9,0,0,0,1,0,0,250,250,0,45.847061,5.177974,0.0,221.4,9,3,1.7,0,0.0,1,0.1483,,1.285,1,0.18,2.2124
132764,1626449504065,,,253,253,237,232,,0.02,0.0,-3.02,-0,-0,-0,0.02,,79,2710,13,34,90,1.498,0.0,263,4.31,13.5,0.0,1,23.8,3.24,3.9,0,0,0,1,0,,,,,,,,,,,,,,,,,,,,
132784,1626449504091,,,253,253,237,232,,0.02,0.0,-2.99,-0,-1,-0,0.02,,80,2680,13,34,90,1.498,0.0,259,4.25,13.5,0.0,1,23.7,2.14,3.9,0,0,0,1,0,,,,,,,,,,,,,,,,,,,,
132804,1626449504111,,,253,253,237,232,,0.01,0.01,-2.98,-0,-0,-0,0.01,,80,2668,13,34,90,1.498,0.0,257,4.22,13.3,0.0,1,23.6,2.13,3.9,0,0,0,1,0,,,,,,,,,,,,,,,,,,,,
132824,1626449504131,,,253,254,237,232,,-0.0,0.01,-2.98,-0,0,-0,0.01,,80,2669,13,34,90,1.498,0.0,265,4.37,13.4,0.0,1,23.6,3.23,3.9,0,0,0,1,0,,,,,,,,,,,,,,,,,,,,
132844,1626449504151,-0,2,253,253,237,232,5,0.01,0.01,-2.98,-0,-0,-0,0.01,0,79,2669,13,34,90,1.498,0.0,259,4.34,13.5,0.0,1,23.6,3.23,3.9,0,0,0,1,0,0,250,250,0,45.847061,5.177974,0.0,221.4,9,3,1.7,0,0.0,1,0.1483,0.0,1.2867,1,0.18,2.2141
132864,1626449504171,,,253,253,237,232,,0.03,0.01,-3.04,-0,-0,-0,0.03,,79,2677,13,34,90,1.498,0.0,259,4.27,13.5,0.0,1,23.7,3.23,3.9,0,0,0,1,0,,,,,,,,,,,,,,,,,,,,
132884,1626449504191,,,253,253,237,232,,0.02,0.0,-2.99,-0,-1,-0,0.02,,80,2712,13,34,90,1.498,0.0,263,4.3,13.5,0.0,1,23.8,3.24,3.9,0,0,0,1,0,,,,,,,,,,,,,,,,,,,,
132904,1626449504209,,,253,253,237,232,,0.0,0.01,-2.99,-0,-0,-0,0.01,,80,2728,13,34,89,1.498,0.0,262,4.25,13.4,0.0,1,22.9,3.22,3.9,0,0,0,1,0,,,,,,,,,,,,,,,,,,,,
132924,1626449504229,,,253,254,237,232,,-0.0,0.01,-2.98,-0,0,-0,0.01,,80,2691,13,34,89,1.498,0.0,261,4.21,13.2,0.0,1,22.6,3.24,4.1,0,0,0,1,0,,,,,,,,,,,,,,,,,,,,
132944,1626449504249,0,1,253,253,237,232,5,0.0,0.02,-2.98,-0,0,-0,0.02,0,79,2694,13,34,90,1.498,0.0,266,4.3,13.5,0.0,1,23.7,2.14,4.1,0,0,0,1,0,0,250,250,0,45.847061,5.177974,0.0,221.4,9,3,1.7,0,0.0,1,0.1483,,1.2883,1,0.18,2.2157
132964,1626449504269,,,252,253,237,232,,0.02,0.01,-3.03,-0,-0,-0,0.03,,80,2641,13,34,90,1.498,0.0,256,4.31,13.5,0.0,1,23.5,2.12,4.1,0,0,0,1,0,,,,,,,,,,,,,,,,,,,,
132984,1626449504293,,,253,253,237,232,,0.01,0.01,-3.01,-0,-0,-0,0.01,,80,2633,13,34,90,1.498,0.0,258,4.36,13.5,0.0,1,23.5,3.22,4.1,0,0,0,1,0,,,,,,,,,,,,,,,,,,,,
133004,1626449504313,,,253,253,237,232,,-0.0,0.01,-3.02,-0,0,-0,0.01,,80,2619,13,34,90,1.498,0.0,260,4.36,13.3,0.0,1,23.4,3.22,4.1,0,0,0,1,0,,,,,,,,,,,,,,,,,,,,
133024,1626449504333,,,253,253,237,232,,0.01,0.01,-3.02,-0,0,-0,0.01,,79,2591,13,34,90,1.498,0.0,252,4.31,13.5,0.0,1,23.3,3.21,3.9,0,0,0,1,0,,,,,,,,,,,,,,,,,,,,
133044,1626449504353,0,1,253,253,237,232,4,0.02,0.01,-3.06,-0,-0,0,0.02,0,79,2596,13,34,90,1.498,0.0,257,4.28,13.5,0.0,1,23.3,3.21,3.9,0,0,0,1,0,0,250,250,0,45.847061,5.177974,0.0,221.4,9,3,1.7,0,0.0,1,0.1483,0.0,1.29,1,0.18,2.2174
133064,1626449504373,,,253,253,237,232,,0.0,0.01,-3.03,-0,0,0,0.01,,80,2617,13,34,90,1.498,0.0,254,4.28,13.5,0.0,1,23.4,3.22,3.9,0,0,0,1,0,,,,,,,,,,,,,,,,,,,,
133084,1626449504393,,,253,253,237,232,,0.0,0.01,-3.04,-0,0,0,0.01,,80,2587,13,34,90,1.498,0.0,254,4.24,13.3,0.0,1,23.3,3.21,3.9,0,0,0,1,0,,,,,,,,,,,,,,,,,,,,
133104,1626449504413,,,253,253,237,232,,0.01,0.0,-3.06,-0,0,0,0.01,,79,2569,13,34,90,1.498,0.0,252,4.29,13.5,0.0,1,23.2,2.1,3.9,0,0,0,1,0,,,,,,,,,,,,,,,,,,,,
133124,1626449504433,,,253,253,237,232,,0.01,0.0,-3.04,-0,0,-0,0.01,,80,2603,13,34,90,1.498,0.0,253,4.26,13.5,0.0,1,23.4,2.11,3.8,0,0,0,1,0,,,,,,,,,,,,,,,,,,,,
133144,1626449504453,0,2,252,253,237,232,4,-0.01,0.01,-3.02,-0,0,-0,0.01,0,80,2619,13,34,90,1.498,0.0,252,4.24,13.2,0.0,1,23.4,2.12,3.8,0,0,0,1,0,0,250,250,0,45.847061,5.177974,0.0,221.4,9,3,1.7,0,0.0,1,0.1483,,1.2917,1,0.18,2.2191
133164,1626449504473,,,253,253,237,232,,-0.01,0.01,-3.01,-0,0,-0,0.02,,80,2632,13,34,91,1.498,0.0,257,4.32,13.5,0.0,1,24.7,3.23,3.8,0,0,0,1,0,,,,,,,,,,,,,,,,,,,,
133184,1626449504493,,,253,253,237,232,,0.0,0.01,-2.99,-0,0,0,0.01,,80,2689,13,34,90,1.498,0.0,263,4.33,13.5,0.0,1,23.7,3.24,3.8,0,0,0,1,0,,,,,,,,,,,,,,,,,,,,
133204,1626449504513,,,253,253,237,232,,0.02,0.01,-3.04,-0,-0,0,0.02,,80,2685,13,34,90,1.498,0.0,257,4.33,13.5,0.0,1,23.7,3.24,3.8,0,0,0,1,0,,,,,,,,,,,,,,,,,,,,
133224,1626449504533,,,253,253,237,232,,0.03,0.0,-2.98,-0,-0,-0,0.03,,80,2720,13,34,90,1.498,0.0,267,4.36,13.5,0.0,1,23.8,3.25,4.0,0,0,0,1,0,,,,,,,,,,,,,,,,,,,,
133244,1626449504553,0,1,253,253,237,232,5,0.01,0.01,-2.98,-0,0,0,0.01,0,80,2714,13,34,90,1.498,0.0,262,4.27,13.2,0.0,1,23.8,3.24,4.0,0,0,0,1,0,0,250,250,0,45.847061,5.177974,0.0,221.4,9,3,1.7,0,0.0,1,0.1483,0.0,1.2933,1,0.18,2.2207
133264,1626449504573,,,253,253,237,232,,-0.0,0.0,-2.97,-0,0,-0,0.0,,80,2712,13,34,90,1.498,0.0,265,4.3,13.4,0.0,1,23.7,3.24,4.0,0,0,0,1,0,,,,,,,,,,,,,,,,,,,,
133284,1626449504593,,,253,253,237,232,,0.0,0.01,-2.96,-0,0,0,0.01,,80,2685,13,34,90,1.498,0.0,267,4.31,13.5,0.0,1,23.7,3.24,4.0,0,0,0,1,0,,,,,,,,,,,,,,,,,,,,
133304,1626449504613,,,253,253,237,232,,0.02,0.0,-3.02,-0,-0,0,0.02,,79,2744,13,34,90,1.498,0.0,262,4.3,13.5,0.0,1,23.9,3.25,4.0,0,0,0,1,0,,,,,,,,,,,,,,,,,,,,
133324,1626449504633,,,253,253,237,232,,0.03,-0.0,-3.03,-0,-1,-0,0.03,,80,2818,13,34,89,1.498,0.0,268,4.28,13.5,0.0,1,23.4,3.24,4.1,0,0,0,1,0,,,,,,,,,,,,,,,,,,,,
133344,1626449504653,1,1,253,254,237,232,5,0.03,-0.01,-2.99,-0,-1,-0,0.03,0,80,2819,13,34,89,1.498,0.0,270,4.32,13.5,0.0,1,23.4,3.24,4.1,0,0,0,1,0,0,250,250,0,45.847061,5.177974,0.0,221.4,9,3,1.7,0,0.0,1,0.1483,,1.295,1,0.18,2.2224
133364,1626449504673,,,253,253,237,232,,0.0,-0.0,-2.96,-0,-0,0,0.0,,80,2749,13,34,89,1.498,0.0,266,4.23,13.3,0.0,1,23.0,2.12,4.1,0,0,0,1,0,,,,,,,,,,,,,,,,,,,,
133384,1626449504693,,,253,253,237,232,,-0.01,-0.0,-2.98,-0,0,-0,0.01,,80,2720,13,34,89,1.498,0.0,265,4.28,13.4,0.0,1,22.8,3.22,4.1,0,0,0,1,0,,,,,,,,,,,,,,,,,,,,
133404,1626449504713,,,253,253,237,232,,-0.01,0.01,-2.96,-0,-0,-0,0.01,,80,2695,13,34,89,1.498,0.0,268,4.35,13.5,0.0,1,22.7,3.21,4.1,0,0,0,1,0,,,,,,,,,,,,,,,,,,,,
133424,1626449504733,,,253,253,237,232,,0.01,0.01,-2.99,-0,-0,0,0.02,,80,2675,13,34,90,1.498,0.0,258,4.31,13.5,0.0,1,23.7,2.13,3.9,0,0,0,1,0,,,,,,,,,,,,,,,,,,,,
133444,1626449504753,1,2,253,253,237,232,5,0.02,-0.0,-2.98,-0,-0,-0,0.02,0,80,2717,13,34,89,1.498,0.0,265,4.29,13.5,0.0,1,22.8,2.12,3.9,0,0,0,1,0,0,250,250,0,45.847061,5.177974,0.0,221.4,9,3,1.7,0,0.0,1,0.1483,0.0,1.2967,1,0.18,2.2241
133464,1626449504773,,,253,253,237,232,,0.01,0.0,-2.98,-0,-0,-0,0.01,,80,2718,13,34,89,1.498,0.0,263,4.25,13.3,0.0,1,22.8,2.12,3.9,0,0,0,1,0,,,,,,,,,,,,,,,,,,,,
133484,1626449504792,,,253,253,237,232,,-0.01,0.0,-2.97,-0,0,-0,0.01,,80,2706,13,34,89,1.498,0.0,263,4.32,13.4,0.0,1,22.8,3.21,3.9,0,0,0,1,0,,,,,,,,,,,,,,,,,,,,
133504,1626449504812,,,253,253,237,232,,-0.0,0.0,-2.93,-0,-0,-0,0.0,,80,2694,13,34,90,1.498,0.0,266,4.33,13.5,0.0,1,23.7,3.24,3.9,0,0,0,1,0,,,,,,,,,,,,,,,,,,,,
133524,1626449504832,,,252,253,237,232,,0.01,-0.0,-2.99,-0,-0,-0,0.01,,80,2688,13,34,90,1.498,0.0,259,4.27,13.5,0.0,1,23.7,2.14,3.9,0,0,0,1,0,,,,,,,,,,,,,,,,,,,,
133544,1626449504852,1,0,253,253,237,232,5,0.02,-0.0,-2.96,-0,-1,-0,0.02,0,80,2655,13,34,89,1.498,0.0,258,4.28,13.5,0.0,1,22.5,2.1,3.9,0,0,0,1,0,0,250,250,0,45.847061,5.177974,0.0,221.4,9,3,1.7,0,0.0,1,0.1483,,1.2983,1,0.18,2.2257
133564,1626449504872,,,253,253,237,232,,0.0,0.01,-2.94,-0,-0,-0,0.01,,80,2726,13,34,90,1.498,0.0,262,4.21,13.2,0.0,1,23.9,2.15,3.9,0,0,0,1,0,,,,,,,,,,,,,,,,,,,,
133584,1626449504892,,,253,254,237,232,,-0.01,0.0,-2.92,-0,0,-0,0.01,,80,2793,13,34,89,1.498,0.0,266,4.26,13.4,0.0,1,23.3,3.24,3.9,0,0,0,1,0,,,,,,,,,,,,,,,,,,,,
133604,1626449504912,,,252,253,237,232,,-0.01,0.01,-2.89,-0,0,-0,0.02,,80,2791,13,34,89,1.498,0.0,267,4.18,13.5,0.0,1,23.3,3.24,3.9,0,0,0,1,0,,,,,,,,,,,,,,,,,,,,
133624,1626449504932,,,253,253,237,232,,-0.0,0.02,-2.88,-0,0,-0,0.02,,80,2779,13,34,89,1.498,0.0,272,4.17,13.5,0.0,1,23.2,2.13,4.1,0,0,0,1,0,,,,,,,,,,,,,,,,,,,,
133644,1626449504952,0,2,252,253,237,232,5,0.02,0.01,-2.96,-0,-0,0,0.02,0,80,2736,13,34,89,1.498,0.0,263,4.21,13.5,0.0,1,22.9,2.12,4.1,0,0,0,1,0,0,250,250,0,45.847061,5.177974,0.0,221.4,9,3,1.7,0,0.0,1,0.1483,0.0,1.3,1,0.18,2.2274
133664,1626449504972,,,253,253,237,232,,0.03,0.0,-2.93,-0,-0,-0,0.03,,80,2713,13,34,89,1.498,0.0,266,4.41,13.5,0.0,1,22.8,3.21,4.1,0,0,0,1,0,,,,,,,,,,,,,,,,,,,,
133684,1626449504992,,,253,253,237,232,,0.01,0.01,-2.92,-0,-0,-0,0.01,,80,2699,13,34,89,1.498,0.0,265,4.3,13.2,0.0,1,22.7,3.21,4.1,0,0,0,1,0,,,,,,,,,,,,,,,,,,,,
133704,1626449505004,,,253,253,237,232,,-0.0,0.01,-2.91,-0,0,-0,0.01,,80,2759,13,34,89,1.498,0.0,263,4.2,13.2,0.0,1,23.1,3.26,4.1,0,0,0,1,0,,,,,,,,,,,,,,,,,,,,
133724,1626449505024,,,252,253,237,232,,-0.0,0.01,-2.89,-0,0,-0,0.01,,80,2748,13,34,89,1.498,0.0,268,4.23,13.5,0.0,1,23.0,3.22,4.1,0,0,0,1,0,,,,,,,,,,,,,,,,,,,,
133744,1626449505044,0,1,253,253,237,232,5,0.01,0.01,-2.95,-0,-0,0,0.02,0,80,2764,13,34,89,1.498,0.0,265,4.28,13.5,0.0,1,23.1,2.13,4.1,0,0,0,1,0,0,250,250,0,45.847061,5.177974,0.0,221.4,9,3,1.7,0,0.0,1,0.1483,,1.3017,1,0.18,2.2291
133764,1626449505064,,,253,253,237,232,,0.03,0.01,-3.01,-0,-0,0,0.04,,80,2806,13,34,89,1.498,0.0,267,4.29,13.5,0.0,1,23.4,3.24,4.1,0,0,0,1,0,,,,,,,,,,,,,,,,,,,,
133784,1626449505092,,,253,253,237,232,,0.04,0.0,-3.01,-0,-1,-0,0.04,,80,2787,13,34,89,1.498,0.0,270,4.34,13.5,0.0,1,23.2,3.24,4.1,0,0,0,1,0,,,,,,,,,,,,,,,,,,,,
133804,1626449505112,,,253,254,237,232,,0.02,0.01,-2.96,-0,-1,-0,0.03,,80,2738,13,34,89,1.498,0.0,266,4.35,13.5,0.0,1,22.9,3.22,4.1,0,0,0,1,0,,,,,,,,,,,,,,,,,,,,
133824,1626449505132,,,253,253,237,232,,-0.0,0.01,-2.96,-0,0,-0,0.01,,80,2835,13,34,89,1.498,0.0,265,4.28,13.2,0.0,1,23.5,3.25,4.0,0,0,0,1,0,,,,,,,,,,,,,,,,,,,,
133844,1626449505152,0,0,253,253,237,232,5,-0.02,0.02,-2.95,-0,0,-0,0.03,0,80,2834,13,34,89,1.498,0.0,274,4.23,13.3,0.0,1,23.5,3.25,4.0,0,0,0,1,0,0,250,250,0,45.847061,5.177974,0.0,221.4,9,3,1.7,0,0.0,1,0.1483,0.0,1.3033,1,0.18,2.2307
133864,1626449505172,,,253,253,237,232,,-0.02,0.03,-2.89,-0,0,-1,0.04,,80,2859,13,34,89,1.498,0.0,270,4.3,13.4,0.0,1,23.7,3.26,4.0,0,0,0,1,0,,,,,,,,,,,,,,,,,,,,
133884,1626449505192,,,252,253,237,232,,-0.0,0.03,-2.86,-0,0,-0,0.03,,80,2793,13,34,89,1.498,0.0,273,4.23,13.5,0.0,1,23.3,3.24,4.0,0,0,0,1,0,,,,,,,,,,,,,,,,,,,,
133904,1626449505212,,,253,253,237,232,,0.02,0.02,-2.93,-0,-0,-0,0.03,,80,2706,13,34,89,1.498,0.0,268,4.23,13.5,0.0,1,22.8,3.21,4.0,0,0,0,1,0,,,,,,,,,,,,,,,,,,,,
133924,1626449505232,,,253,253,237,232,,0.02,0.01,-2.91,-0,-0,-0,0.03,,80,2663,13,34,89,1.498,0.0,261,4.33,13.5,0.0,1,22.5,3.2,4.0,0,0,0,1,0,,,,,,,,,,,,,,,,,,,,
133944,1626449505252,0,0,253,254,237,232,5,0.0,0.01,-2.91,-0,0,-0,0.01,0,80,2675,13,34,89,1.498,0.0,263,4.27,13.2,0.0,1,22.6,3.2,4.0,0,0,0,1,0,0,250,250,0,45.847061,5.177974,0.0,221.4,9,3,1.7,0,0.0,1,0.1483,,1.305,1,0.18,2.2324
133964,1626449505272,,,253,253,237,232,,-0.01,0.01,-2.9,-0,0,-0,0.02,,80,2731,13,34,89,1.498,0.0,265,4.36,13.5,0.0,1,22.9,2.12,4.0,0,0,0,1,0,,,,,,,,,,,,,,,,,,,,
133984,1626449505292,,,252,253,237,232,,0.01,0.02,-2.89,-0,0,-0,0.02,,80,2732,13,34,89,1.498,0.0,264,4.35,13.5,0.0,1,22.9,3.22,4.0,0,0,0,1,0,,,,,,,,,,,,,,,,,,,,
134004,1626449505312,,,253,253,237,232,,0.02,0.01,-2.96,-0,-0,-0,0.03,,80,2717,13,34,89,1.498,0.0,266,4.29,13.5,0.0,1,22.8,3.22,4.0,0,0,0,1,0,,,,,,,,,,,,,,,,,,,,
134024,1626449505332,,,252,253,237,232,,0.03,0.0,-2.92,-0,-0,-0,0.03,,80,2697,13,34,89,1.498,0.0,262,4.35,13.5,0.0,1,22.7,3.21,4.0,0,0,0,1,0,,,,,,,,,,,,,,,,,,,,
134044,1626449505352,0,0,253,254,237,232,5,0.01,0.01,-2.91,-0,-0,-0,0.01,0,80,2770,13,34,89,1.498,0.0,260,4.35,13.4,0.0,1,23.1,3.23,4.0,0,0,0,1,0,0,250,250,0,45.847061,5.177974,0.0,221.4,9,3,1.7,0,0.0,1,0.1483,0.0,1.3067,1,0.18,2.2341
134064,1626449505372,,,253,253,237,232,,-0.01,0.0,-2.91,-0,0,-0,0.01,,80,2770,13,34,89,1.498,0.0,271,4.33,13.4,0.0,1,23.1,2.13,4.0,0,0,0,1,0,,,,,,,,,,,,,,,,,,,,
134084,1626449505392,,,253,253,237,232,,-0.02,0.01,-2.87,-0,0,-1,0.02,,80,2813,13,34,89,1.498,0.0,268,4.3,13.5,0.0,1,23.4,3.24,4.0,0,0,0,1,0,,,,,,,,,,,,,,,,,,,,
134104,1626449505412,,,253,253,237,232,,-0.0,0.02,-2.84,-0,0,-0,0.02,,80,2821,13,34,89,1.498,0.0,275,4.26,13.5,0.0,1,23.4,3.24,4.0,0,0,0,1,0,,,,,,,,,,,,,,,,,,,,
134124,1626449505432,,,253,253,237,232,,0.02,0.01,-2.9,-0,0,-0,0.03,,80,2779,13,34,89,1.498,0.0,272,4.32,13.5,0.0,1,23.2,3.23,4.2,0,0,0,1,0,,,,,,,,,,,,,,,,,,,,
134144,1626449505452,-1,2,253,253,237,232,5,0.04,0.0,-2.96,-0,-0,-0,0.04,0,80,2736,13,34,89,1.498,0.0,265,4.29,13.5,0.0,1,22.9,3.22,4.2,0,0,0,1,0,0,250,250,0,45.847061,5.177974,0.0,221.4,9,3,1.7,0,0.0,1,0.1483,,1.3083,1,0.18,2.2357
134164,1626449505472,,,253,253,237,232,,0.03,-0.0,-2.93,-0,-0,-0,0.03,,80,2725,13,34,89,1.498,0.0,266,4.32,13.4,0.0,1,22.9,3.22,4.2,0,0,0,1,0,,,,,,,,,,,,,,,,,,,,
134184,1626449505492,,,253,253,237,232,,0.01,0.01,-2.92,-0,0,-0,0.01,,80,2817,13,34,89,1.498,0.0,269,4.25,13.2,0.0,1,23.4,3.24,4.2,0,0,0,1,0,,,,,,,,,,,,,,,,,,,,
134204,1626449505512,,,253,254,237,232,,-0.02,0.0,-2.92,-0,1,-0,0.02,,80,2892,13,34,89,1.498,0.0,271,4.27,13.2,0.0,1,23.9,3.26,4.2,0,0,0,1,0,,,,,,,,,,,,,,,,,,,,
134224,1626449505532,,,253,253,237,232,,-0.03,0.02,-2.92,-0,1,-1,0.03,,80,2870,13,34,88,1.498,0.0,279,4.26,13.4,0.0,1,23.1,2.13,4.3,0,0,0,1,0,,,,,,,,,,,,,,,,,,,,
134244,1626449505552,1,2,252,253,237,232,5,-0.02,0.02,-2.85,-0,1,-1,0.03,0,80,2846,13,34,88,1.498,0.0,273,4.31,13.5,0.0,1,22.9,3.23,4.3,0,0,0,1,0,0,250,250,0,45.847061,5.177974,0.0,221.4,9,3,1.7,0,0.0,1,0.1483,0.0,1.31,1,0.18,2.2374
134264,1626449505572,,,253,253,237,232,,-0.01,0.02,-2.85,-0,1,-1,0.02,,80,2762,13,34,89,1.498,0.0,268,4.29,13.5,0.0,1,23.1,3.23,4.3,0,0,0,1,0,,,,,,,,,,,,,,,,,,,,
134284,1626449505592,,,253,253,237,232,,0.02,0.02,-2.93,-0,1,-0,0.02,,80,2720,13,34,89,1.498,0.0,269,4.3,13.5,0.0,1,22.8,3.22,4.3,0,0,0,1,0,,,,,,,,,,,,,,,,,,,,
134304,1626449505612,,,253,253,237,232,,0.03,0.01,-2.93,-0,0,-1,0.03,,80,2847,13,34,89,1.498,0.0,265,4.31,13.5,0.0,1,23.6,3.25,4.3,0,0,0,1,0,,,,,,,,,,,,,,,,,,,,
134324,1626449505632,,,253,253,237,232,,0.02,0.0,-2.92,-0,-0,-1,0.03,,80,2933,13,34,88,1.498,0.0,278,4.32,13.5,0.0,1,23.7,3.25,4.2,0,0,0,1,0,,,,,,,,,,,,,,,,,,,,
134344,1626449505652,-1,2,253,254,237,232,5,0.0,-0.0,-2.86,-0,-0,-1,0.0,0,80,2863,13,34,88,1.498,0.0,276,4.27,13.5,0.0,1,23.0,3.23,4.2,0,0,0,1,0,0,250,250,0,45.847061,5.177974,0.0,221.4,9,3,1.7,0,0.0,1,0.1483,,1.3117,1,0.18,2.2391
134364,1626449505672,,,252,253,237,232,,-0.03,0.0,-2.89,-0,0,-0,0.03,,80,2754,13,34,88,1.498,0.0,270,4.23,13.4,0.0,1,22.2,3.21,4.2,0,0,0,1,0,,,,,,,,,,,,,,,,,,,,
134384,1626449505692,,,253,253,237,232,,-0.05,0.0,-2.9,-0,1,-0,0.05,,80,2809,13,34,89,1.498,0.0,272,4.3,13.4,0.0,1,23.4,2.14,4.2,0,0,0,1,0,,,,,,,,,,,,,,,,,,,,
134404,1626449505712,,,253,253,237,232,,-0.04,0.01,-2.85,-0,1,-1,0.04,,80,2837,13,34,89,1.498,0.0,271,4.32,13.5,0.0,1,23.6,3.25,4.2,0,0,0,1,0,,,,,,,,,,,,,,,,,,,,
134424,1626449505732,,,253,253,237,232,,-0.02,0.02,-2.82,-0,1,-1,0.03,,80,2905,13,34,88,1.498,0.0,275,4.35,13.5,0.0,1,23.4,3.24,4.2,0,0,0,1,0,,,,,,,,,,,,,,,,,,,,
134444,1626449505752,-0,2,253,253,237,232,4,0.01,0.02,-2.84,-0,0,-0,0.02,0,80,2840,13,34,88,1.498,0.0,277,4.3,13.5,0.0,1,22.9,3.23,4.2,0,0,0,1,0,0,250,250,0,45.847061,5.177974,0.0,221.4,9,3,1.7,0,0.0,1,0.1483,0.0,1.3133,1,0.18,2.2407
134464,1626449505772,,,253,253,237,232,,0.03,0.01,-2.93,-0,0,0,0.04,,80,2772,13,34,89,1.498,0.0,267,4.28,13.5,0.0,1,23.1,2.13,4.2,0,0,0,1,0,,,,,,,,,,,,,,,,,,,,
134484,1626449505791,,,253,253,237,232,,0.04,-0.0,-2.94,-0,-0,-0,0.04,,80,2787,13,34,89,1.498,0.0,268,4.34,13.5,0.0,1,23.2,2.14,4.2,0,0,0,1,0,,,,,,,,,,,,,,,,,,,,
134504,1626449505811,,,253,254,237,232,,0.03,0.0,-2.92,-0,-0,-0,0.03,,80,2803,13,34,88,1.498,0.0,273,4.32,13.4,0.0,1,22.6,3.22,4.2,0,0,0,1,0,,,,,,,,,,,,,,,,,,,,
134524,1626449505831,,,253,253,237,232,,-0.0,0.0,-2.91,-0,0,-0,0.0,,80,2846,13,34,88,1.498,0.0,271,4.33,13.4,0.0,1,22.9,3.23,4.2,0,0,0,1,0,,,,,,,,,,,,,,,,,,,,
134544,1626449505851,0,1,253,253,237,232,5,-0.03,0.0,-2.94,-0,1,-0,0.03,0,80,2768,13,34,88,1.498,0.0,275,4.25,13.3,0.0,1,22.2,2.11,4.2,0,0,0,1,0,0,250,250,0,45.847061,5.177974,0.0,221.4,9,3,1.7,0,0.0,1,0.1483,,1.315,1,0.18,2.2424
134564,1626449505871,,,252,253,237,232,,-0.02,0.02,-2.91,-0,1,-0,0.03,,80,2742,13,34,89,1.498,0.0,268,4.31,13.5,0.0,1,22.9,3.22,4.2,0,0,0,1,0,,,,,,,,,,,,,,,,,,,,
134584,1626449505891,,,252,253,237,232,,-0.01,0.01,-2.92,-0,0,-0,0.02,,80,2721,13,34,89,1.498,0.0,265,4.3,13.5,0.0,1,22.8,3.22,4.2,0,0,0,1,0,,,,,,,,,,,,,,,,,,,,
134604,1626449505911,,,252,253,237,232,,0.01,0.01,-2.98,-0,-0,-0,0.02,,80,2800,13,34,89,1.498,0.0,269,4.3,13.5,0.0,1,23.4,3.24,4.2,0,0,0,1,0,,,,,,,,,,,,,,,,,,,,
