"Interval"|"ms"|0|0|1,"Utc"|"ms"|0|0|1,"Brake_F"|"Bar"|0|2000|10,"Brake_R"|"Bar"|0|2000|10,"Height_RF"|"mm"|0|255|50,"Height_LF"|"mm"|0|255|50,"Height_LR"|"mm"|0|80|50,"Height_RR"|"mm"|0|255|50,"Steering"|"deg"|-100|100|10,"AccelX"|"G"|-3.0|3.0|50,"AccelY"|"G"|-3.0|3.0|50,"AccelZ"|"G"|-3.0|3.0|50,"Yaw"|"Deg/Sec"|-120|120|50,"Pitch"|"Deg/Sec"|-120|120|50,"Roll"|"Deg/Sec"|-120|120|50,"Gsum"|"G"|0.0|3.0|50,"Log_Button"|""|0.0|10.0|10,"WaterTemp"|"C"|0|150|50,"RPM"|"tr/min"|0|14000|50,"TPS"|"%"|0|100|50,"AirTemp"|"C"|0|150|50,"MAP"|"KPa"|0|100|50,"Lambda"|""|0.5|1.5|50,"SpeedDTA"|"kph"|0.0|250.0|50,"OilPress"|"KPa"|0|1500|50,"FuelPressur"|"Bar"|0.0|10.0|50,"Batterie"|"V"|0.0|20.0|50,"ConsoKm"|"L/100km"|0.0|200.0|50,"Gear"|""|0|6|50,"AdvIgnition"|"Deg"|-20.0|70.0|50,"Injection"|"ms"|0.0|10.0|50,"ConsoHr"|"L/Hr"|0.0|10000.0|50,"LC_But_Pres"|""|0|1|50,"LC_Active"|""|0|1|50,"TractionOn"|""|0|1|50,"TractionWet"|""|0|1|50,"FanOn"|""|0|1|50,"RD_Speed"|"km/h"|-30|250|10,"RUD_Speed"|"km/h"|-30|250|10,"LD_Speed"|"km/h"|-30|250|10,"LUD_Speed"|"km/h"|-30|250|10,"Latitude"|"Degrees"|-180.0|180.0|10,"Longitude"|"Degrees"|-180.0|180.0|10,"Speed"|"kph"|0.0|150.0|10,"Altitude"|"m"|0.0|4000.0|10,"GPSSats"|""|0|20|10,"GPSQual"|""|0|5|10,"GPSDOP"|""|0.0|20.0|10,"LapCount"|""|0|0|10,"LapTime"|"Min"|0.0|0.0|10,"Sector"|""|0|0|10,"SectorTime"|"Min"|0.0|0.0|10,"PredTime"|"Min"|0.0|0.0|5,"ElapsedTime"|"Min"|0.0|0.0|10,"CurrentLap"|""|0|0|10,"Distance"|"km"|0.0|0.0|10,"SessionTime"|"Min"|0.0|0.0|10
49063,1629380126799,,,250,252,237,233,,0.01,-0.01,1.67,-0,-3,-4,0.01,,86,7170,4,33,39,0.936,0.0,608,4.92,13.0,0.0,1,31.0,1.17,7.7,0,0,1,1,0,,,,,,,,,,,,,,,,,,,,
49083,1629380126819,,,250,253,237,232,,-0.05,-0.02,1.54,-0,-1,-2,0.05,,86,7126,4,33,39,0.937,0.0,606,4.81,12.9,0.0,1,31.0,2.29,7.5,0,0,1,1,0,,,,,,,,,,,,,,,,,,,,
49103,1629380126839,,,250,253,237,233,,-0.09,0.01,1.42,-0,-0,-1,0.09,,86,7094,4,32,39,0.938,0.0,600,4.85,12.8,0.0,1,31.0,1.17,7.5,0,0,1,1,0,,,,,,,,,,,,,,,,,,,,
49123,1629380126859,,,250,253,237,232,,-0.08,0.0,1.38,-0,-2,-2,0.08,,86,7070,4,32,39,0.937,0.0,594,4.88,12.9,0.0,1,31.0,2.29,7.5,0,0,1,1,0,,,,,,,,,,,,,,,,,,,,
49143,1629380126879,1,2,250,252,237,233,-2,-0.04,0.0,1.58,-0,-2,-3,0.04,1,86,7059,4,32,39,0.937,0.0,600,4.82,13.1,0.0,1,31.0,2.29,7.5,0,0,1,1,0,0,250,250,0,49.328205,8.565405,0.0,116.8,10,2,2.0,0,0.0,-1,0.0,,0.0,0,0.03,0.819
49163,1629380126898,,,250,253,237,233,,-0.08,-0.0,1.46,-0,0,-0,0.08,,86,7011,4,32,39,0.934,0.0,598,4.8,13.0,0.0,1,31.0,2.29,7.5,0,0,1,1,0,,,,,,,,,,,,,,,,,,,,
49183,1629380126918,,,250,253,237,233,,-0.07,0.01,1.35,-0,-2,-2,0.07,,86,7001,4,32,39,0.934,0.0,596,4.93,13.0,0.0,1,31.0,1.17,7.4,0,0,1,1,0,,,,,,,,,,,,,,,,,,,,
49203,1629380126938,,,250,252,237,233,,-0.02,-0.02,1.55,-0,-1,-2,0.03,,86,6944,4,32,39,0.933,0.0,595,4.88,13.1,0.0,1,30.9,2.29,7.4,0,0,1,1,0,,,,,,,,,,,,,,,,,,,,
49223,1629380126958,,,250,253,237,233,,-0.08,0.01,1.43,0,1,0,0.08,,86,6921,4,32,39,0.932,0.0,592,4.86,13.0,0.0,1,30.9,1.17,7.4,0,0,1,1,0,,,,,,,,,,,,,,,,,,,,
49243,1629380126978,1,2,249,252,237,233,-3,-0.04,-0.02,1.63,0,-2,-2,0.04,1,86,6885,4,32,39,0.932,0.0,592,4.9,12.9,0.0,1,30.8,2.29,7.4,0,0,1,1,0,0,250,250,0,49.328205,8.565405,0.0,116.9,10,2,2.0,0,0.0,-1,0.0,0.0,0.0,0,0.03,0.8207
49263,1629380126998,,,249,253,237,233,,-0.05,0.01,1.52,0,0,0,0.06,,86,6825,4,32,39,0.931,0.0,588,4.82,12.9,0.0,1,30.7,1.17,7.4,0,0,1,1,0,,,,,,,,,,,,,,,,,,,,
49283,1629380127010,,,250,252,237,233,,-0.05,-0.0,1.4,-0,-1,-2,0.05,,86,6815,4,32,39,0.93,0.0,582,4.87,12.8,0.0,1,30.7,1.17,7.2,0,0,1,1,0,,,,,,,,,,,,,,,,,,,,
49303,1629380127030,,,249,253,237,233,,-0.03,-0.01,1.49,0,1,0,0.03,,86,6759,4,32,39,0.93,0.0,580,4.8,13.0,0.0,1,30.7,2.29,7.2,0,0,1,1,0,,,,,,,,,,,,,,,,,,,,
49323,1629380127050,,,250,253,237,232,,-0.03,-0.01,1.37,0,-2,-3,0.03,,86,6742,4,32,39,0.93,0.0,575,4.86,12.8,0.0,1,30.6,1.17,7.2,0,0,1,1,0,,,,,,,,,,,,,,,,,,,,
49343,1629380127070,0,0,250,253,237,233,-3,-0.03,-0.02,1.29,0,1,1,0.04,1,86,6684,4,32,39,0.929,0.0,576,4.81,13.0,0.0,1,30.6,1.17,7.2,0,0,1,1,0,0,250,250,0,49.328209,8.565405,0.0,116.7,10,2,2.0,0,0.0,-1,0.0,,0.0,0,0.03,0.8224
49363,1629380127098,,,250,253,237,232,,0.01,-0.03,1.49,0,-2,-3,0.03,,86,6644,4,32,39,0.93,0.0,568,4.91,12.9,0.0,1,30.5,2.29,7.2,0,0,1,1,0,,,,,,,,,,,,,,,,,,,,
49383,1629380127118,,,250,252,237,233,,-0.05,-0.02,1.38,0,1,1,0.06,,86,6620,4,32,39,0.929,0.0,568,4.83,12.8,0.0,1,30.5,2.29,7.0,0,0,1,1,0,,,,,,,,,,,,,,,,,,,,
49403,1629380127138,,,250,253,237,232,,0.01,-0.03,1.58,0,-1,-1,0.03,,86,6565,4,32,39,0.931,0.0,568,4.92,13.0,0.0,1,30.4,2.29,7.0,0,0,1,1,0,,,,,,,,,,,,,,,,,,,,
49423,1629380127158,,,249,252,237,233,,-0.03,-0.05,1.46,0,-2,-2,0.06,,86,6542,4,32,39,0.93,0.0,562,4.84,12.8,0.0,1,30.4,1.17,7.0,0,0,1,1,0,,,,,,,,,,,,,,,,,,,,
49443,1629380127178,-0,2,250,253,237,233,-3,-0.06,-0.02,1.35,0,1,2,0.07,1,86,6449,4,32,39,0.93,0.0,560,4.85,13.1,0.0,1,30.3,2.29,7.0,0,0,1,1,0,0,250,250,0,49.328209,8.565406,0.0,116.7,10,2,2.0,0,0.0,-1,0.0,0.0,0.0,0,0.03,0.824
49463,1629380127197,,,250,253,237,233,,-0.01,0.01,1.55,0,0,-0,0.02,,86,6412,4,32,40,0.93,0.0,553,4.86,13.1,0.0,1,30.4,2.29,7.0,0,0,1,1,0,,,,,,,,,,,,,,,,,,,,
49483,1629380127217,,,250,253,237,233,,0.03,-0.01,1.74,-0,-4,-4,0.03,,86,6308,4,32,40,0.927,0.0,550,4.9,12.9,0.0,1,30.3,2.29,6.7,0,0,1,1,0,,,,,,,,,,,,,,,,,,,,
49503,1629380127237,,,250,253,237,232,,-0.0,-0.05,1.6,-0,-5,-6,0.05,,86,6163,4,32,40,0.925,0.0,548,4.91,12.8,0.0,1,30.1,1.17,6.7,0,0,1,1,0,,,,,,,,,,,,,,,,,,,,
49523,1629380127257,,,250,253,237,233,,-0.07,-0.06,1.48,0,-6,-6,0.1,,86,6052,4,32,41,0.922,0.0,540,4.78,12.8,0.0,1,30.1,2.29,6.7,0,0,1,1,0,,,,,,,,,,,,,,,,,,,,
49543,1629380127277,1,2,249,253,237,233,-3,-0.12,-0.1,1.37,0,-6,-6,0.16,1,86,5892,4,32,42,0.922,0.0,525,4.87,12.9,0.0,1,30.0,2.34,6.7,0,0,1,1,0,0,250,250,0,49.328209,8.565406,1.84,116.8,10,2,2.0,0,0.0,-1,0.0,,0.0,0,0.03,0.8257
49563,1629380127297,,,250,253,237,232,,-0.06,-0.12,1.52,0,-10,-9,0.13,,86,5763,4,32,43,0.92,0.0,511,4.86,12.9,0.0,1,30.0,1.28,6.7,0,0,1,1,0,,,,,,,,,,,,,,,,,,,,
49583,1629380127317,,,250,253,237,233,,-0.01,-0.03,1.71,0,-16,-15,0.03,,86,5608,4,32,44,0.921,0.0,502,4.92,13.1,0.0,1,29.8,1.35,6.4,0,0,1,1,0,,,,,,,,,,,,,,,,,,,,
49603,1629380127337,,,249,253,237,233,,-0.07,0.0,1.86,1,-9,-10,0.07,,86,5495,4,32,45,0.922,0.0,493,4.9,13.1,0.0,1,29.8,2.54,6.4,0,0,1,1,0,,,,,,,,,,,,,,,,,,,,
49623,1629380127357,,,250,252,237,233,,-0.08,-0.06,1.72,0,-6,-7,0.1,,86,5398,4,32,46,0.923,0.0,471,4.88,13.0,0.0,1,29.9,2.59,6.4,0,0,1,1,0,,,,,,,,,,,,,,,,,,,,
49643,1629380127377,0,0,250,252,237,232,-2,-0.05,0.02,1.89,0,-11,-12,0.05,1,86,5289,4,32,47,0.923,0.0,460,4.95,13.1,0.0,1,30.0,2.66,6.4,0,0,1,1,0,0,250,250,0,49.328209,8.565406,0.0,116.9,10,2,2.0,0,0.0,-1,0.0,0.0,0.0,0,0.03,0.8274
49663,1629380127395,,,250,253,237,232,,-0.07,-0.04,1.75,0,-7,-6,0.08,,86,5195,4,32,49,0.924,0.0,455,4.88,12.8,0.0,1,30.4,1.61,6.4,0,0,1,1,0,,,,,,,,,,,,,,,,,,,,
49683,1629380127415,,,250,252,237,233,,-0.1,0.0,1.92,0,-8,-8,0.1,,86,5055,4,32,49,0.927,0.0,443,4.9,13.1,0.0,1,30.2,2.8,6.5,0,0,1,1,0,,,,,,,,,,,,,,,,,,,,
49703,1629380127435,,,250,252,237,233,,-0.04,-0.01,1.77,0,-9,-9,0.05,,86,4977,4,32,50,0.929,0.0,430,4.92,13.1,0.0,1,30.2,1.71,6.5,0,0,1,1,0,,,,,,,,,,,,,,,,,,,,
49723,1629380127455,,,250,253,237,233,,-0.05,-0.02,1.63,0,-6,-5,0.05,,86,4905,4,32,51,0.935,0.0,427,4.83,12.9,0.0,1,29.3,2.79,6.5,0,0,1,1,0,,,,,,,,,,,,,,,,,,,,
49743,1629380127475,0,2,250,252,237,233,-3,-0.1,-0.02,1.82,0,-5,-4,0.1,1,86,4784,4,32,52,0.941,0.0,416,4.82,12.8,0.0,1,28.5,2.72,6.5,0,0,1,1,0,0,250,250,0,49.328209,8.565406,0.0,116.8,10,2,2.0,0,0.0,-1,0.0,,0.0,0,0.03,0.829
49763,1629380127499,,,250,253,237,233,,-0.13,-0.01,1.98,0,-5,-5,0.13,,86,4750,4,32,53,0.951,0.0,410,4.93,13.1,0.0,1,28.3,2.71,6.5,0,0,1,1,0,,,,,,,,,,,,,,,,,,,,
49783,1629380127519,,,250,252,237,233,,-0.13,0.02,2.07,0,-5,-6,0.13,,86,4681,4,32,53,0.961,0.0,411,4.88,13.1,0.0,1,27.5,2.67,5.8,0,0,1,1,0,,,,,,,,,,,,,,,,,,,,
49803,1629380127539,,,250,253,237,233,,-0.08,0.02,2.06,0,-6,-6,0.08,,86,4652,4,32,54,0.973,0.0,398,4.9,13.1,0.0,1,27.4,2.65,5.8,0,0,1,1,0,,,,,,,,,,,,,,,,,,,,
49823,1629380127559,,,250,252,237,233,,-0.03,0.02,2.02,0,-7,-6,0.04,,86,4554,4,32,55,0.98,0.0,403,4.9,13.2,0.0,1,26.4,2.59,5.8,0,0,1,1,0,,,,,,,,,,,,,,,,,,,,
49843,1629380127579,0,2,249,252,237,233,-3,0.01,0.03,1.94,0,-7,-7,0.03,1,86,4547,4,32,56,0.989,0.0,391,4.9,13.2,0.0,1,26.6,2.6,5.8,0,0,1,1,0,0,250,250,0,49.328209,8.565406,0.0,117.0,10,2,2.0,0,0.0,-1,0.0,0.0,0.0,0,0.03,0.8307
49863,1629380127600,,,250,252,237,232,,0.04,0.03,1.92,0,-8,-7,0.05,,86,4471,4,32,56,1.002,0.0,387,4.86,13.2,0.0,1,25.6,2.55,5.8,0,0,1,1,0,,,,,,,,,,,,,,,,,,,,
49883,1629380127620,,,249,253,237,233,,0.09,0.03,1.85,0,-8,-7,0.09,,87,4521,4,32,57,1.011,0.0,385,4.81,13.2,0.0,1,26.6,2.6,5.3,0,0,1,1,0,,,,,,,,,,,,,,,,,,,,
49903,1629380127640,,,249,253,237,233,,0.12,0.03,1.72,0,-9,-8,0.12,,86,4525,4,32,57,1.024,0.0,383,4.87,13.2,0.0,1,26.6,2.6,5.3,0,0,1,1,0,,,,,,,,,,,,,,,,,,,,
49923,1629380127660,,,250,252,237,233,,0.15,0.02,1.7,0,-9,-8,0.15,,86,4497,4,32,58,1.037,0.0,381,4.85,13.2,0.0,1,26.5,2.59,5.3,0,0,1,1,0,,,,,,,,,,,,,,,,,,,,
49943,1629380127680,0,2,249,253,237,233,-3,0.17,0.0,1.57,0,-9,-8,0.17,1,86,4614,4,32,58,1.04,0.0,380,4.82,13.1,0.0,1,28.0,1.53,5.3,0,0,1,1,0,0,250,250,0,49.328209,8.565406,0.0,117.0,10,2,2.0,0,0.0,-1,0.0,,0.0,0,0.03,0.8324
49963,1629380127697,,,250,252,237,233,,0.19,-0.04,1.45,0,-8,-8,0.2,,86,4574,4,32,59,1.046,0.0,383,4.83,13.1,0.0,1,27.8,2.63,5.3,0,0,1,1,0,,,,,,,,,,,,,,,,,,,,
49983,1629380127717,,,250,253,237,232,,0.19,-0.05,1.33,0,-7,-7,0.2,,86,4637,4,32,59,1.05,0.0,388,4.85,13.2,0.0,1,28.6,2.66,5.7,0,0,1,1,0,,,,,,,,,,,,,,,,,,,,
50003,1629380127737,,,250,253,237,232,,0.16,-0.08,1.23,0,-5,-5,0.17,,87,4706,4,32,59,1.055,0.0,387,4.83,12.9,0.0,1,29.5,1.57,5.7,0,0,1,1,0,,,,,,,,,,,,,,,,,,,,
50023,1629380127757,,,250,252,237,233,,0.1,-0.07,1.14,0,-3,-3,0.12,,87,4696,4,32,59,1.051,0.0,390,4.9,12.8,0.0,1,29.4,2.69,5.7,0,0,1,1,0,,,,,,,,,,,,,,,,,,,,
50043,1629380127777,0,3,250,253,237,233,-3,0.02,-0.06,1.36,0,-3,-4,0.07,1,87,4810,4,32,59,1.046,0.0,395,4.88,12.8,0.0,1,30.9,1.64,5.7,0,0,1,1,0,0,250,250,0,49.328209,8.565406,2.8,117.1,10,2,2.0,0,0.0,-1,0.0,0.0,0.0,0,0.04,0.834
50063,1629380127797,,,250,253,237,233,,0.02,-0.02,1.56,0,-3,-5,0.03,,86,4760,4,32,60,1.04,0.0,399,4.88,13.2,0.0,1,30.5,2.73,5.7,0,0,1,1,0,,,,,,,,,,,,,,,,,,,,
50083,1629380127817,,,250,252,237,233,,0.08,-0.02,1.44,0,-4,-5,0.08,,87,4802,4,32,60,1.035,0.0,404,4.89,13.2,0.0,1,31.1,2.74,6.0,0,0,1,1,0,,,,,,,,,,,,,,,,,,,,
50103,1629380127837,,,250,253,237,233,,0.11,-0.05,1.32,0,-3,-3,0.12,,87,4803,4,32,60,1.024,0.0,400,4.83,13.0,0.0,1,31.1,2.74,6.0,0,0,1,1,0,,,,,,,,,,,,,,,,,,,,
50123,1629380127857,,,250,253,237,233,,0.07,-0.04,1.24,0,-2,-2,0.08,,87,4789,4,32,60,1.016,0.0,402,4.83,12.9,0.0,1,30.9,2.74,6.0,0,0,1,1,0,,,,,,,,,,,,,,,,,,,,
50143,1629380127877,-1,2,250,252,237,232,-2,0.0,-0.03,1.46,0,-3,-3,0.03,1,87,4849,4,32,60,1.003,0.0,408,4.9,13.0,0.0,1,31.7,2.76,6.0,0,0,1,1,0,0,250,250,0,49.328209,8.565405,2.85,117.3,10,2,2.0,0,0.0,-1,0.0,,0.0,0,0.04,0.8357
50163,1629380127897,,,250,253,237,233,,0.02,-0.02,1.65,0,-4,-4,0.03,,87,4834,4,32,61,0.993,0.0,408,4.92,13.2,0.0,1,31.8,2.75,6.0,0,0,1,1,0,,,,,,,,,,,,,,,,,,,,
50183,1629380127917,,,250,253,237,232,,0.08,-0.03,1.52,0,-3,-4,0.08,,87,4810,4,32,61,0.983,0.0,408,4.87,13.1,0.0,1,31.5,2.73,6.1,0,0,1,1,0,,,,,,,,,,,,,,,,,,,,
50203,1629380127937,,,250,252,237,232,,0.07,-0.05,1.41,0,-1,-1,0.09,,87,4854,4,32,61,0.978,0.0,407,4.87,12.9,0.0,1,32.0,1.64,6.1,0,0,1,1,0,,,,,,,,,,,,,,,,,,,,
50223,1629380127957,,,250,253,237,233,,0.01,-0.04,1.61,0,-1,-1,0.04,,87,4875,4,32,61,0.973,0.0,407,4.82,12.8,0.0,1,32.3,2.76,6.1,0,0,1,1,0,,,,,,,,,,,,,,,,,,,,
50243,1629380127977,0,1,250,253,237,232,-2,-0.02,-0.01,1.79,-0,-3,-4,0.02,1,87,4907,4,32,62,0.965,0.0,420,4.92,13.2,0.0,1,33.0,2.82,6.1,0,0,1,1,0,0,250,250,0,49.328209,8.565405,0.0,117.5,10,2,2.0,0,0.0,-1,0.0,0.0,0.0,0,0.04,0.8374
50263,1629380127991,,,250,251,237,233,,0.04,-0.05,1.65,0,-2,-3,0.07,,87,4943,4,32,62,0.962,0.0,417,4.91,13.1,0.0,1,33.5,1.72,6.1,0,0,1,1,0,,,,,,,,,,,,,,,,,,,,
50283,1629380128011,,,250,253,237,233,,0.01,-0.03,1.52,0,1,0,0.03,,87,4977,4,32,62,0.959,0.0,417,4.82,12.8,0.0,1,33.9,2.85,6.5,0,0,1,1,0,,,,,,,,,,,,,,,,,,,,
50303,1629380128031,,,250,252,237,233,,-0.03,-0.0,1.71,0,-2,-3,0.03,,87,4993,4,32,62,0.958,0.0,427,4.85,13.0,0.0,1,34.2,1.74,6.5,0,0,1,1,0,,,,,,,,,,,,,,,,,,,,
50323,1629380128051,,,250,252,237,232,,0.02,-0.03,1.58,0,-2,-3,0.03,,87,4966,4,32,63,0.956,0.0,421,4.87,13.1,0.0,1,34.1,1.78,6.5,0,0,1,1,0,,,,,,,,,,,,,,,,,,,,
50343,1629380128071,1,1,250,253,237,233,-3,-0.01,-0.02,1.46,0,1,1,0.02,1,87,5040,4,32,62,0.954,0.0,423,4.83,12.9,0.0,1,34.3,2.84,6.5,0,0,1,1,0,0,250,250,0,49.328209,8.565405,0.0,117.5,10,2,2.0,0,0.0,-1,0.0,,0.0,0,0.04,0.839
50363,1629380128093,,,250,253,237,232,,-0.03,0.0,1.66,0,-2,-3,0.03,,87,5063,4,32,62,0.953,0.0,434,4.93,13.2,0.0,1,34.3,2.83,6.5,0,0,1,1,0,,,,,,,,,,,,,,,,,,,,
50383,1629380128113,,,250,251,237,232,,0.03,-0.06,1.53,0,-0,-1,0.06,,87,5118,4,32,63,0.951,0.0,430,4.85,13.0,0.0,1,34.6,2.87,6.7,0,0,1,1,0,,,,,,,,,,,,,,,,,,,,
50403,1629380128133,,,250,253,237,233,,-0.05,-0.02,1.72,0,0,-0,0.05,,87,5170,4,32,62,0.951,0.0,431,4.86,13.1,0.0,1,34.3,2.78,6.7,0,0,1,1,0,,,,,,,,,,,,,,,,,,,,
50423,1629380128153,,,250,251,237,233,,0.04,-0.04,1.59,0,-2,-3,0.05,,87,5247,4,32,63,0.949,0.0,441,4.89,13.1,0.0,1,34.6,1.71,6.7,0,0,1,1,0,,,,,,,,,,,,,,,,,,,,
50443,1629380128173,0,2,250,252,237,233,-4,-0.04,0.01,1.73,0,3,0,0.04,1,87,5338,4,32,62,0.948,0.0,442,4.82,12.9,0.0,1,34.2,2.69,6.7,0,0,1,1,0,0,250,250,0,49.328209,8.565405,0.0,117.6,10,2,2.0,0,0.0,-1,0.0,0.0,0.0,0,0.04,0.8407
50463,1629380128196,,,250,253,237,233,,0.01,-0.06,1.59,0,3,1,0.06,,87,5414,4,32,62,0.945,0.0,448,4.82,12.9,0.0,1,34.2,2.65,6.7,0,0,1,1,0,,,,,,,,,,,,,,,,,,,,
50483,1629380128216,,,250,252,237,232,,0.02,0.03,1.78,0,-4,-5,0.04,,87,5463,4,32,62,0.944,0.0,462,4.95,13.1,0.0,1,34.2,2.62,6.6,0,0,1,1,0,,,,,,,,,,,,,,,,,,,,
50503,1629380128236,,,249,253,237,233,,-0.09,0.01,1.64,0,3,2,0.09,,87,5490,4,33,62,0.942,0.0,473,4.83,12.8,0.0,1,34.2,2.62,6.6,0,0,1,1,0,,,,,,,,,,,,,,,,,,,,
50523,1629380128256,,,250,253,237,232,,0.01,-0.07,1.52,1,-1,-0,0.07,,87,5516,4,33,62,0.942,0.0,473,4.83,12.9,0.0,1,34.2,2.6,6.6,0,0,1,1,0,,,,,,,,,,,,,,,,,,,,
50543,1629380128276,-1,2,250,252,237,233,-2,0.02,0.03,1.71,1,-7,-7,0.03,1,87,5572,4,33,61,0.942,0.0,481,4.93,13.1,0.0,1,34.0,1.34,6.6,0,0,1,1,0,0,250,250,0,49.328209,8.565405,0.0,117.6,10,2,2.0,0,0.0,-1,0.0,,0.0,0,0.04,0.8424
50563,1629380128298,,,250,252,237,232,,-0.09,0.01,1.58,1,0,-1,0.09,,87,5613,4,33,61,0.943,0.0,485,4.89,13.1,0.0,1,34.0,2.43,6.6,0,0,1,1,0,,,,,,,,,,,,,,,,,,,,
50583,1629380128318,,,250,253,237,233,,-0.14,-0.03,1.45,1,4,3,0.14,,87,5669,4,33,61,0.945,0.0,487,4.85,12.8,0.0,1,34.0,1.28,6.3,0,0,1,1,0,,,,,,,,,,,,,,,,,,,,
50603,1629380128338,,,250,253,237,233,,-0.01,-0.06,1.65,1,-4,-1,0.06,,87,5712,4,33,61,0.946,0.0,490,4.86,12.9,0.0,1,34.0,2.37,6.3,0,0,1,1,0,,,,,,,,,,,,,,,,,,,,
50623,1629380128358,,,250,253,237,233,,0.05,0.01,1.83,1,-11,-8,0.05,,87,5769,4,33,60,0.948,0.0,500,4.89,13.1,0.0,1,33.7,1.22,6.3,0,0,1,1,0,,,,,,,,,,,,,,,,,,,,
50643,1629380128378,-0,2,250,253,237,233,-3,0.06,0.03,2.0,1,-13,-9,0.07,1,87,5815,4,33,60,0.952,0.0,507,4.9,13.1,0.0,1,33.7,2.31,6.3,0,0,1,1,0,0,250,250,0,49.328209,8.565405,0.0,117.6,10,2,2.0,0,0.0,-1,0.0,0.0,0.0,0,0.04,0.844
50663,1629380128397,,,250,253,237,232,,0.03,0.02,1.95,1,-9,-7,0.04,,87,5886,4,33,59,0.954,0.0,512,4.91,13.1,0.0,1,33.5,2.28,6.3,0,0,1,1,0,,,,,,,,,,,,,,,,,,,,
50683,1629380128417,,,250,253,237,233,,-0.0,-0.0,1.8,1,-5,-3,0.0,,87,5948,4,33,59,0.957,0.0,516,4.85,13.1,0.0,1,33.5,2.24,6.1,0,0,1,1,0,,,,,,,,,,,,,,,,,,,,
50703,1629380128437,,,250,252,237,233,,-0.03,-0.03,1.66,1,-1,1,0.04,,87,5982,4,33,58,0.958,0.0,521,4.86,13.1,0.0,1,33.3,2.23,6.1,0,0,1,1,0,,,,,,,,,,,,,,,,,,,,
50723,1629380128457,,,250,253,237,232,,-0.04,-0.05,1.53,1,3,4,0.07,,87,6046,4,33,58,0.961,0.0,524,4.91,13.1,0.0,1,33.5,2.22,6.1,0,0,1,1,0,,,,,,,,,,,,,,,,,,,,
50743,1629380128477,0,2,249,252,237,233,-3,-0.01,-0.06,1.41,1,4,5,0.06,1,87,6125,4,33,57,0.961,0.0,530,4.87,13.1,0.0,1,33.6,1.12,6.1,0,0,1,1,0,0,250,250,0,49.328209,8.565405,0.0,117.7,10,2,2.0,0,0.0,-1,0.0,,0.0,0,0.04,0.8457
50763,1629380128498,,,250,252,237,232,,0.06,-0.09,1.61,1,1,2,0.11,,87,6200,4,33,56,0.962,0.0,533,4.92,13.1,0.0,1,33.6,2.24,6.1,0,0,1,1,0,,,,,,,,,,,,,,,,,,,,
50783,1629380128518,,,250,252,237,233,,0.07,-0.11,1.49,0,-3,-2,0.13,,87,6328,4,33,55,0.963,0.0,535,4.88,12.9,0.0,1,33.8,2.24,6.5,0,0,1,1,0,,,,,,,,,,,,,,,,,,,,
50803,1629380128538,,,250,253,237,232,,-0.03,-0.08,1.37,0,-1,0,0.09,,87,6421,4,33,54,0.961,0.0,541,4.8,12.9,0.0,1,33.9,1.12,6.5,0,0,1,1,0,,,,,,,,,,,,,,,,,,,,
50823,1629380128558,,,250,252,237,232,,0.02,-0.03,1.57,1,2,3,0.03,,87,6512,4,33,52,0.961,0.0,553,4.78,13.1,0.0,1,33.6,2.25,6.5,0,0,1,1,0,,,,,,,,,,,,,,,,,,,,
50843,1629380128578,1,1,250,253,237,233,-2,0.04,-0.04,1.65,0,-2,-1,0.06,1,87,6583,4,33,51,0.963,0.0,558,4.91,12.9,0.0,1,33.6,2.26,6.5,0,0,1,1,0,0,250,250,0,49.328209,8.565406,0.0,117.7,10,2,2.0,0,0.0,-1,0.0,0.0,0.0,0,0.04,0.8474
50863,1629380128600,,,249,253,237,232,,-0.02,-0.02,1.52,1,0,2,0.02,,87,6672,4,33,50,0.966,0.0,561,4.86,13.0,0.0,1,33.5,1.14,6.5,0,0,1,1,0,,,,,,,,,,,,,,,,,,,,
50883,1629380128620,,,250,253,237,233,,0.02,-0.03,1.71,0,-2,-1,0.03,,87,6808,4,33,49,0.969,0.0,573,4.9,13.1,0.0,1,33.5,1.12,7.0,0,0,1,1,0,,,,,,,,,,,,,,,,,,,,
50903,1629380128640,,,250,253,237,232,,0.02,-0.01,1.68,0,0,2,0.02,,87,6895,4,33,48,0.97,0.0,581,4.81,12.8,0.0,1,33.4,2.24,7.0,0,0,1,1,0,,,,,,,,,,,,,,,,,,,,
50923,1629380128660,,,250,253,237,233,,-0.03,-0.03,1.55,0,-1,0,0.04,,87,6993,4,33,48,0.97,0.0,581,4.9,12.8,0.0,1,33.6,2.23,7.0,0,0,1,1,0,,,,,,,,,,,,,,,,,,,,
50943,1629380128680,0,1,250,253,237,233,-4,0.02,-0.04,1.74,0,-2,-1,0.04,1,87,7067,4,33,47,0.969,0.0,588,4.9,13.0,0.0,1,33.6,1.1,7.0,0,0,1,1,0,0,250,250,0,49.328209,8.565406,0.0,117.8,10,2,2.0,0,0.0,-1,0.0,,0.0,0,0.04,0.849
50963,1629380128698,,,250,252,237,233,,0.02,-0.07,1.73,0,-0,2,0.07,,87,7137,4,33,46,0.968,0.0,601,4.85,13.1,0.0,1,33.4,2.24,7.0,0,0,1,1,0,,,,,,,,,,,,,,,,,,,,
50983,1629380128718,,,250,252,237,233,,-0.0,-0.03,1.6,0,0,3,0.03,,87,7189,4,33,46,0.967,0.0,603,4.9,12.8,0.0,1,33.6,1.13,7.4,0,0,1,1,0,,,,,,,,,,,,,,,,,,,,
51003,1629380128738,,,249,253,237,233,,-0.01,-0.01,1.47,0,0,2,0.02,,87,7250,4,33,45,0.964,0.0,606,4.87,12.8,0.0,1,33.4,1.14,7.4,0,0,1,1,0,,,,,,,,,,,,,,,,,,,,
51023,1629380128758,,,250,252,237,233,,-0.02,-0.03,1.36,0,-1,0,0.04,,87,7292,4,33,44,0.962,0.0,609,4.87,13.0,0.0,1,33.0,2.28,7.4,0,0,1,1,0,,,,,,,,,,,,,,,,,,,,
51043,1629380128778,0,1,250,252,237,232,-3,-0.01,-0.02,1.56,0,-2,-1,0.02,1,87,7315,4,33,44,0.961,0.0,614,4.87,13.1,0.0,1,33.1,1.16,7.4,0,0,1,1,0,0,250,250,0,49.328209,8.565405,2.78,117.9,10,2,2.0,0,0.0,-1,0.0,0.0,0.0,0,0.04,0.8507
51063,1629380128796,,,250,253,237,233,,0.0,-0.06,1.68,0,-2,-1,0.06,,87,7344,4,32,43,0.958,0.0,617,4.91,13.0,0.0,1,32.7,2.28,7.4,0,0,1,1,0,,,,,,,,,,,,,,,,,,,,
51083,1629380128816,,,249,253,237,233,,0.01,-0.09,1.86,0,-3,-1,0.09,,87,7361,4,32,42,0.954,0.0,621,4.88,13.1,0.0,1,32.3,2.29,7.7,0,0,1,1,0,,,,,,,,,,,,,,,,,,,,
51103,1629380128836,,,250,252,237,233,,0.02,-0.07,2.02,0,-2,-1,0.07,,87,7358,4,32,42,0.95,0.0,622,4.87,13.1,0.0,1,32.3,2.29,7.7,0,0,1,1,0,,,,,,,,,,,,,,,,,,,,
51123,1629380128856,,,250,253,237,232,,0.03,-0.09,2.0,0,-1,1,0.09,,87,7393,4,32,41,0.947,0.0,622,4.83,12.8,0.0,1,31.9,2.29,7.7,0,0,1,1,0,,,,,,,,,,,,,,,,,,,,
51143,1629380128876,-1,2,250,252,237,232,-2,0.02,-0.09,1.85,0,1,2,0.09,1,87,7355,4,32,41,0.943,0.0,623,4.85,12.8,0.0,1,31.8,2.29,7.7,0,0,1,1,0,0,250,250,0,49.328209,8.565405,2.05,117.9,10,2,2.0,0,0.0,-1,0.0,,0.0,0,0.04,0.8524
51163,1629380128900,,,250,253,237,233,,0.0,-0.02,1.71,0,1,3,0.02,,87,7350,4,32,40,0.939,0.0,621,4.83,12.9,0.0,1,31.4,2.29,7.7,0,0,1,1,0,,,,,,,,,,,,,,,,,,,,
51183,1629380128920,,,250,253,237,233,,-0.02,0.0,1.58,0,2,4,0.02,,87,7332,4,32,40,0.938,0.0,618,4.82,12.8,0.0,1,31.4,2.29,7.8,0,0,1,1,0,,,,,,,,,,,,,,,,,,,,
51203,1629380128940,,,250,252,237,233,,-0.04,-0.03,1.45,0,1,3,0.05,,87,7321,4,32,40,0.937,0.0,617,4.94,13.0,0.0,1,31.4,1.17,7.8,0,0,1,1,0,,,,,,,,,,,,,,,,,,,,
51223,1629380128960,,,250,252,237,233,,-0.03,-0.03,1.56,0,-1,0,0.04,,87,7312,4,32,40,0.936,0.0,616,4.91,12.9,0.0,1,31.4,2.29,7.8,0,0,1,1,0,,,,,,,,,,,,,,,,,,,,
51243,1629380128980,0,0,250,252,237,232,-2,-0.02,-0.07,1.75,0,-1,0,0.07,1,87,7244,4,32,39,0.935,0.0,618,4.85,13.1,0.0,1,31.0,1.17,7.8,0,0,1,1,0,0,250,250,0,49.328209,8.565404,0.0,117.9,10,2,2.0,0,0.0,-1,0.0,0.0,0.0,0,0.04,0.854
51263,1629380128992,,,249,253,237,233,,-0.01,-0.08,1.9,0,-1,0,0.08,,87,7239,4,32,39,0.935,0.0,613,4.98,13.1,0.0,1,31.0,1.17,7.8,0,0,1,1,0,,,,,,,,,,,,,,,,,,,,
51283,1629380129012,,,250,253,237,233,,-0.02,-0.04,1.77,0,1,2,0.04,,87,7197,4,32,39,0.935,0.0,607,4.85,13.0,0.0,1,31.0,2.29,7.6,0,0,1,1,0,,,,,,,,,,,,,,,,,,,,
51303,1629380129032,,,250,253,237,233,,-0.07,-0.05,1.64,0,1,2,0.08,,87,7161,4,32,39,0.933,0.0,609,4.88,12.8,0.0,1,31.0,1.17,7.6,0,0,1,1,0,,,,,,,,,,,,,,,,,,,,
51323,1629380129052,,,250,253,237,233,,-0.05,-0.04,1.74,0,-1,-1,0.06,,87,7113,4,32,39,0.934,0.0,607,4.86,12.9,0.0,1,31.0,1.17,7.6,0,0,1,1,0,,,,,,,,,,,,,,,,,,,,
51343,1629380129072,0,0,250,253,237,232,-3,-0.01,-0.09,1.91,0,-0,1,0.09,1,87,7064,4,32,39,0.933,0.0,604,4.86,13.1,0.0,1,31.0,2.23,7.6,0,0,1,1,0,0,250,250,0,49.328209,8.565404,0.0,118.0,10,2,2.0,0,0.0,-1,0.0,,0.0,0,0.04,0.8557
51363,1629380129098,,,250,253,237,233,,-0.05,-0.06,1.77,0,1,3,0.08,,87,7043,4,32,39,0.931,0.0,597,4.84,13.0,0.0,1,31.0,2.29,7.6,0,0,1,1,0,,,,,,,,,,,,,,,,,,,,
51383,1629380129118,,,250,252,237,233,,-0.05,-0.08,1.63,0,-1,1,0.09,,87,7022,4,32,39,0.93,0.0,596,4.95,13.0,0.0,1,31.0,1.17,7.4,0,0,1,1,0,,,,,,,,,,,,,,,,,,,,
51403,1629380129138,,,250,252,237,233,,-0.01,-0.06,1.81,0,-1,0,0.06,,87,6941,4,32,39,0.928,0.0,596,4.89,13.1,0.0,1,30.9,1.17,7.4,0,0,1,1,0,,,,,,,,,,,,,,,,,,,,
51423,1629380129158,,,250,252,237,233,,-0.08,-0.07,1.67,0,1,3,0.11,,87,6888,4,32,39,0.926,0.0,588,4.83,12.9,0.0,1,30.8,2.29,7.4,0,0,1,1,0,,,,,,,,,,,,,,,,,,,,
51443,1629380129178,-1,2,250,253,237,233,-2,-0.02,-0.06,1.85,0,-2,-0,0.06,1,87,6828,4,32,39,0.925,0.0,582,4.93,13.0,0.0,1,30.7,2.29,7.4,0,0,1,1,0,0,250,250,0,49.328209,8.565404,5.17,117.6,10,2,2.0,0,0.0,-1,0.0,0.0,0.0,0,0.04,0.8574
51463,1629380129200,,,250,253,237,232,,-0.08,-0.05,1.71,0,2,3,0.09,,87,6791,4,32,39,0.925,0.0,578,4.82,13.0,0.0,1,30.7,2.29,7.4,0,0,1,1,0,,,,,,,,,,,,,,,,,,,,
51483,1629380129220,,,250,252,237,233,,-0.03,-0.05,1.88,0,-2,-0,0.06,,87,6722,4,32,39,0.924,0.0,575,4.92,13.0,0.0,1,30.6,2.29,7.1,0,0,1,1,0,,,,,,,,,,,,,,,,,,,,
51503,1629380129240,,,250,253,237,232,,-0.09,-0.04,1.74,0,1,3,0.1,,87,6710,4,32,39,0.924,0.0,573,4.8,12.8,0.0,1,30.6,2.29,7.1,0,0,1,1,0,,,,,,,,,,,,,,,,,,,,
51523,1629380129260,,,250,253,237,232,,-0.03,-0.05,1.91,0,-1,0,0.06,,87,6653,4,32,39,0.925,0.0,571,4.93,13.0,0.0,1,30.5,2.29,7.1,0,0,1,1,0,,,,,,,,,,,,,,,,,,,,
51543,1629380129280,0,0,250,253,237,233,-3,-0.1,-0.06,1.77,0,-0,1,0.11,1,87,6604,4,32,39,0.924,0.0,563,4.84,12.8,0.0,1,30.5,2.29,7.1,0,0,1,1,0,0,250,250,0,49.328209,8.565404,0.0,117.5,10,2,2.0,0,0.0,-1,0.0,,0.0,0,0.04,0.859
51563,1629380129299,,,249,253,237,232,,-0.06,-0.02,1.94,0,2,3,0.06,,87,6514,4,32,39,0.925,0.0,568,4.88,13.1,0.0,1,30.4,2.29,7.1,0,0,1,1,0,,,,,,,,,,,,,,,,,,,,
51583,1629380129319,,,249,253,237,233,,-0.01,-0.03,2.1,0,-2,-1,0.04,,87,6425,4,32,39,0.926,0.0,560,4.92,13.0,0.0,1,30.3,2.29,6.8,0,0,1,1,0,,,,,,,,,,,,,,,,,,,,
51603,1629380129339,,,249,253,237,233,,-0.08,-0.07,1.93,0,-2,-1,0.11,,87,6405,4,32,40,0.925,0.0,558,4.9,12.8,0.0,1,30.4,1.17,6.8,0,0,1,1,0,,,,,,,,,,,,,,,,,,,,
51623,1629380129359,,,249,253,237,232,,-0.14,-0.07,1.79,0,2,4,0.16,,87,6260,4,32,40,0.925,0.0,551,4.81,13.0,0.0,1,30.3,2.29,6.8,0,0,1,1,0,,,,,,,,,,,,,,,,,,,,
51643,1629380129379,-1,2,250,253,237,233,-3,-0.12,-0.04,1.72,0,6,7,0.13,1,87,6145,4,32,40,0.928,0.0,542,4.8,12.9,0.0,1,30.1,1.17,6.8,0,0,1,1,0,0,250,250,0,49.328209,8.565404,0.0,117.5,10,2,2.0,0,0.0,-1,0.0,0.0,0.0,0,0.04,0.8607
51663,1629380129397,,,250,253,237,233,,-0.1,-0.03,1.89,0,9,10,0.11,,87,6000,4,32,41,0.931,0.0,532,4.87,13.1,0.0,1,30.1,2.29,6.8,0,0,1,1,0,,,,,,,,,,,,,,,,,,,,
51683,1629380129417,,,250,253,237,233,,-0.13,-0.03,1.74,0,14,14,0.13,,87,5846,4,32,42,0.933,0.0,520,4.8,12.9,0.0,1,29.9,2.36,6.3,0,0,1,1,0,,,,,,,,,,,,,,,,,,,,
51703,1629380129437,,,249,253,237,233,,-0.21,-0.07,1.61,0,17,18,0.22,,87,5676,4,32,43,0.935,0.0,505,4.83,12.8,0.0,1,29.8,2.44,6.3,0,0,1,1,0,,,,,,,,,,,,,,,,,,,,
51723,1629380129457,,,250,253,237,232,,-0.17,-0.15,1.48,1,12,13,0.22,,87,5553,4,32,44,0.936,0.0,492,4.86,12.9,0.0,1,29.7,2.5,6.3,0,0,1,1,0,,,,,,,,,,,,,,,,,,,,
51743,1629380129477,-0,2,250,252,237,233,-3,-0.1,-0.04,1.68,0,5,6,0.11,1,87,5434,4,32,45,0.937,0.0,481,4.86,13.2,0.0,1,29.7,2.57,6.3,0,0,1,1,0,0,250,250,0,49.328209,8.565404,2.63,117.6,10,2,2.0,0,0.0,-1,0.0,,0.0,0,0.04,0.8624
51763,1629380129499,,,249,253,237,233,,-0.18,-0.07,1.55,1,11,13,0.19,,87,5329,4,32,46,0.942,0.0,464,4.83,12.8,0.0,1,29.8,2.62,6.3,0,0,1,1,0,,,,,,,,,,,,,,,,,,,,
51783,1629380129519,,,250,253,237,233,,-0.08,-0.07,1.74,0,5,6,0.11,,87,5219,4,32,47,0.943,0.0,460,4.96,13.1,0.0,1,29.9,2.69,6.5,0,0,1,1,0,,,,,,,,,,,,,,,,,,,,
51803,1629380129539,,,250,252,237,233,,-0.11,-0.08,1.6,0,9,11,0.14,,87,5082,4,32,48,0.948,0.0,446,4.77,12.8,0.0,1,30.0,1.66,6.5,0,0,1,1,0,,,,,,,,,,,,,,,,,,,,
51823,1629380129559,,,250,253,237,233,,-0.12,-0.05,1.79,0,5,7,0.13,,87,4988,4,32,49,0.952,0.0,436,4.87,12.9,0.0,1,30.0,2.81,6.5,0,0,1,1,0,,,,,,,,,,,,,,,,,,,,
51843,1629380129579,-1,2,250,251,237,233,-3,-0.05,-0.08,1.65,0,4,5,0.1,1,87,4910,4,32,50,0.958,0.0,429,4.91,13.1,0.0,1,29.4,2.78,6.5,0,0,1,1,0,0,250,250,0,49.328209,8.565403,0.0,117.6,10,2,2.0,0,0.0,-1,0.0,0.0,0.0,0,0.04,0.864
51863,1629380129597,,,249,253,237,232,,-0.05,-0.08,1.52,0,5,7,0.1,,87,4844,4,32,51,0.966,0.0,420,4.85,12.9,0.0,1,28.9,2.76,6.5,0,0,1,1,0,,,,,,,,,,,,,,,,,,,,
51883,1629380129617,,,250,253,237,233,,-0.1,-0.08,1.5,0,5,8,0.13,,87,4767,4,32,52,0.971,0.0,410,4.85,12.8,0.0,1,28.2,2.71,5.9,0,0,1,1,0,,,,,,,,,,,,,,,,,,,,
51903,1629380129637,,,250,252,237,233,,-0.14,-0.07,1.69,0,5,7,0.16,,87,4724,4,32,53,0.977,0.0,411,4.86,12.8,0.0,1,28.0,2.7,5.9,0,0,1,1,0,,,,,,,,,,,,,,,,,,,,
51923,1629380129657,,,249,252,237,233,,-0.17,-0.06,1.87,0,5,6,0.18,,87,4621,4,32,53,0.99,0.0,406,4.86,13.1,0.0,1,26.7,2.62,5.9,0,0,1,1,0,,,,,,,,,,,,,,,,,,,,
51943,1629380129677,-1,2,249,253,237,233,-2,-0.16,-0.03,2.03,0,4,4,0.16,1,87,4582,4,32,54,0.998,0.0,394,4.83,13.1,0.0,1,26.5,1.49,5.9,0,0,1,1,0,0,250,250,0,49.328209,8.565403,0.0,117.6,10,2,2.0,0,0.0,-1,0.0,,0.0,0,0.04,0.8657
51963,1629380129695,,,249,253,237,233,,-0.14,0.01,2.18,0,3,3,0.14,,87,4530,4,32,55,1.009,0.0,392,4.87,13.0,0.0,1,26.1,2.58,5.9,0,0,1,1,0,,,,,,,,,,,,,,,,,,,,
51983,1629380129715,,,250,252,237,233,,-0.12,0.04,2.32,0,1,2,0.12,,87,4534,4,32,55,1.023,0.0,382,4.84,13.0,0.0,1,26.1,1.46,5.3,0,0,1,1,0,,,,,,,,,,,,,,,,,,,,
52003,1629380129735,,,249,252,237,233,,-0.11,0.06,2.45,0,0,1,0.13,,87,4486,4,32,56,1.035,0.0,386,4.81,13.0,0.0,1,25.8,2.56,5.3,0,0,1,1,0,,,,,,,,,,,,,,,,,,,,
52023,1629380129755,,,250,253,237,233,,-0.1,0.06,2.57,0,-1,-1,0.11,,87,4483,4,32,57,1.052,0.0,379,4.87,13.1,0.0,1,26.1,2.57,5.3,0,0,1,1,0,,,,,,,,,,,,,,,,,,,,
52043,1629380129775,0,0,250,253,237,232,-2,-0.09,0.08,2.68,-0,-3,-2,0.12,1,87,4467,4,32,57,1.064,0.0,378,4.88,13.1,0.0,1,25.9,2.56,5.3,0,0,1,1,0,0,250,250,0,49.328209,8.565403,3.33,117.6,10,2,2.0,0,0.0,-1,0.0,0.0,0.0,0,0.04,0.8674
52063,1629380129799,,,249,252,237,233,,-0.08,0.11,2.78,-0,-4,-3,0.14,,87,4528,4,32,58,1.072,0.0,378,4.93,13.1,0.0,1,26.9,1.49,5.3,0,0,1,1,0,,,,,,,,,,,,,,,,,,,,
52083,1629380129819,,,250,252,237,233,,-0.08,0.13,2.87,-0,-5,-4,0.15,,87,4535,4,32,58,1.073,0.0,378,4.83,13.1,0.0,1,27.0,1.49,5.4,0,0,1,1,0,,,,,,,,,,,,,,,,,,,,
52103,1629380129839,,,250,253,237,232,,-0.05,0.11,2.96,-0,-6,-5,0.12,,87,4552,4,32,59,1.076,0.0,380,4.85,13.0,0.0,1,27.5,2.62,5.4,0,0,1,1,0,,,,,,,,,,,,,,,,,,,,
52123,1629380129859,,,249,253,237,233,,-0.01,0.1,3.04,-0,-8,-6,0.1,,87,4598,4,32,59,1.079,0.0,380,4.92,13.2,0.0,1,28.1,2.64,5.4,0,0,1,1,0,,,,,,,,,,,,,,,,,,,,
52143,1629380129879,-1,0,250,252,237,232,-3,0.03,0.1,3.01,-0,-9,-6,0.11,1,87,4600,4,32,59,1.081,0.0,384,4.9,13.1,0.0,1,28.1,2.64,5.4,0,0,1,1,0,0,250,250,0,49.328209,8.565402,0.0,117.6,10,2,2.0,0,0.0,-1,0.0,,0.0,0,0.04,0.869
52163,1629380129897,,,250,252,237,233,,0.07,0.09,2.78,-0,-9,-6,0.11,,87,4639,4,32,60,1.07,0.0,387,4.87,13.1,0.0,1,28.9,2.66,5.4,0,0,1,1,0,,,,,,,,,,,,,,,,,,,,
52183,1629380129917,,,250,253,237,233,,0.1,0.04,2.56,-0,-8,-6,0.11,,87,4678,4,32,60,1.062,0.0,385,4.83,13.1,0.0,1,29.4,2.68,5.8,0,0,1,1,0,,,,,,,,,,,,,,,,,,,,
52203,1629380129937,,,250,253,237,232,,0.09,0.02,2.36,-0,-7,-4,0.09,,87,4661,4,32,60,1.055,0.0,392,4.84,13.1,0.0,1,29.2,2.67,5.8,0,0,1,1,0,,,,,,,,,,,,,,,,,,,,
52223,1629380129957,,,250,253,237,233,,0.03,-0.0,2.21,-0,-5,-2,0.03,,87,4786,4,32,60,1.043,0.0,393,4.84,12.8,0.0,1,30.8,2.74,5.8,0,0,1,1,0,,,,,,,,,,,,,,,,,,,,
52243,1629380129977,-1,2,250,252,237,233,-2,-0.04,0.01,2.35,-0,-4,-2,0.04,1,87,4742,4,32,60,1.032,0.0,396,4.88,13.0,0.0,1,30.3,1.61,5.8,0,0,1,1,0,0,250,250,0,49.328205,8.565402,1.85,117.6,10,2,2.0,0,0.0,-1,0.0,0.0,0.0,0,0.04,0.8707
52263,1629380129997,,,250,253,237,232,,-0.05,0.05,2.48,-0,-4,-4,0.07,,87,4812,4,32,60,1.015,0.0,403,4.88,13.2,0.0,1,31.2,2.75,5.8,0,0,1,1,0,,,,,,,,,,,,,,,,,,,,
52283,1629380130009,,,250,252,237,233,,0.01,0.02,2.29,-0,-4,-4,0.02,,87,4812,4,32,60,1.004,0.0,401,4.89,13.1,0.0,1,31.2,2.75,6.1,0,0,1,1,0,,,,,,,,,,,,,,,,,,,,
52303,1629380130029,,,250,252,237,233,,0.03,0.01,2.11,-0,-3,-2,0.03,,87,4816,4,32,61,0.987,0.0,405,4.81,13.0,0.0,1,31.5,1.63,6.1,0,0,1,1,0,,,,,,,,,,,,,,,,,,,,
52323,1629380130049,,,250,252,237,233,,-0.02,-0.0,2.14,0,-2,-0,0.02,,87,4862,4,32,61,0.982,0.0,412,4.83,12.8,0.0,1,32.1,1.64,6.1,0,0,1,1,0,,,,,,,,,,,,,,,,,,,,
52343,1629380130069,0,0,250,253,237,233,-3,-0.07,0.01,2.28,-0,-3,-2,0.07,1,87,4853,4,32,61,0.977,0.0,408,4.86,12.9,0.0,1,32.0,2.75,6.1,0,0,1,1,0,0,250,250,0,49.328205,8.565402,2.17,117.8,10,2,2.0,0,0.0,-1,0.0,,0.0,0,0.04,0.8724
52363,1629380130097,,,250,252,237,233,,-0.04,0.03,2.13,-0,-3,-3,0.05,,87,4842,4,32,61,0.971,0.0,414,4.9,13.2,0.0,1,31.9,1.64,6.1,0,0,1,1,0,,,,,,,,,,,,,,,,,,,,
52383,1629380130117,,,249,252,237,233,,0.02,-0.02,1.96,0,-2,-2,0.03,,87,4816,4,32,61,0.964,0.0,407,4.87,13.1,0.0,1,31.5,2.79,6.1,0,0,1,1,0,,,,,,,,,,,,,,,,,,,,
52403,1629380130137,,,250,253,237,233,,0.0,-0.01,1.81,0,-1,1,0.01,,87,4857,4,32,62,0.963,0.0,409,4.85,13.0,0.0,1,32.4,2.8,6.1,0,0,1,1,0,,,,,,,,,,,,,,,,,,,,
52423,1629380130157,,,250,253,237,233,,-0.07,-0.0,1.98,0,-1,-0,0.07,,87,4881,4,32,62,0.961,0.0,417,4.91,13.0,0.0,1,32.7,2.81,6.1,0,0,1,1,0,,,,,,,,,,,,,,,,,,,,
52443,1629380130177,0,1,250,253,237,233,-3,-0.04,0.04,2.14,0,-2,-2,0.06,1,87,4896,4,32,62,0.96,0.0,413,4.91,13.2,0.0,1,32.9,2.82,6.1,0,0,1,1,0,0,250,250,0,49.328209,8.565402,0.0,117.7,10,2,2.0,0,0.0,-1,0.0,0.0,0.0,0,0.04,0.874
52463,1629380130194,,,250,252,237,232,,0.0,-0.03,1.97,0,-1,-1,0.03,,87,4921,4,32,62,0.958,0.0,414,4.86,13.0,0.0,1,33.2,2.83,6.1,0,0,1,1,0,,,,,,,,,,,,,,,,,,,,
52483,1629380130214,,,250,252,237,233,,-0.04,-0.0,1.85,0,1,1,0.04,,87,4931,4,32,62,0.959,0.0,413,4.84,12.8,0.0,1,33.3,1.72,6.4,0,0,1,1,0,,,,,,,,,,,,,,,,,,,,
52503,1629380130234,,,250,252,237,232,,-0.08,-0.01,2.02,0,-2,-1,0.08,,87,4916,4,32,62,0.96,0.0,413,4.87,13.0,0.0,1,33.1,2.82,6.4,0,0,1,1,0,,,,,,,,,,,,,,,,,,,,
52523,1629380130254,,,250,252,237,233,,-0.03,-0.03,1.86,0,-2,-2,0.04,,87,4935,4,32,63,0.96,0.0,417,4.91,13.2,0.0,1,33.7,2.88,6.4,0,0,1,1,0,,,,,,,,,,,,,,,,,,,,
52543,1629380130274,0,2,250,253,237,232,-2,-0.03,-0.04,1.72,0,1,1,0.05,1,87,5022,4,32,63,0.962,0.0,422,4.85,12.8,0.0,1,34.6,1.79,6.4,0,0,1,1,0,0,250,250,0,49.328209,8.565402,2.21,117.9,10,2,1.7,0,0.0,-1,0.0,,0.0,0,0.04,0.8757
52563,1629380130294,,,250,253,237,233,,-0.07,-0.02,1.9,0,-2,-1,0.07,,87,5053,4,32,63,0.964,0.0,422,4.92,13.1,0.0,1,34.6,2.89,6.4,0,0,1,1,0,,,,,,,,,,,,,,,,,,,,
52583,1629380130314,,,250,252,237,233,,-0.02,-0.06,1.75,0,-2,-2,0.07,,87,5100,4,32,63,0.964,0.0,428,4.86,13.2,0.0,1,34.6,1.72,6.7,0,0,1,1,0,,,,,,,,,,,,,,,,,,,,
52603,1629380130334,,,250,253,237,233,,-0.1,-0.02,1.61,0,2,1,0.1,,87,5136,4,32,63,0.965,0.0,427,4.84,12.9,0.0,1,34.6,2.86,6.7,0,0,1,1,0,,,,,,,,,,,,,,,,,,,,
52623,1629380130354,,,249,252,237,233,,-0.01,0.0,1.8,-0,-3,-4,0.01,,87,5168,4,32,63,0.965,0.0,430,4.85,13.2,0.0,1,34.6,1.74,6.7,0,0,1,1,0,,,,,,,,,,,,,,,,,,,,
52643,1629380130374,1,1,250,253,237,233,-3,-0.07,-0.01,1.66,0,3,3,0.07,1,87,5217,4,32,63,0.967,0.0,437,4.83,12.9,0.0,1,34.6,2.83,6.7,0,0,1,1,0,0,250,250,0,49.328209,8.565402,2.06,117.9,10,2,2.0,0,0.0,-1,0.0,0.0,0.0,0,0.04,0.8774
52663,1629380130396,,,250,253,237,233,,-0.0,0.03,1.84,-0,-3,-4,0.03,,87,5284,4,32,62,0.968,0.0,452,4.92,13.1,0.0,1,34.3,2.71,6.7,0,0,1,1,0,,,,,,,,,,,,,,,,,,,,
52683,1629380130416,,,250,252,237,233,,-0.1,0.03,1.7,-0,5,4,0.1,,87,5341,4,32,62,0.969,0.0,448,4.8,12.9,0.0,1,34.2,1.54,6.6,0,0,1,1,0,,,,,,,,,,,,,,,,,,,,
52703,1629380130436,,,249,253,237,233,,0.01,0.02,1.87,0,-2,-3,0.02,,87,5383,4,32,62,0.968,0.0,455,4.95,13.1,0.0,1,34.2,1.51,6.6,0,0,1,1,0,,,,,,,,,,,,,,,,,,,,
52723,1629380130456,,,250,253,237,233,,-0.06,0.08,2.04,-0,1,-1,0.1,,87,5414,4,32,62,0.97,0.0,465,4.78,13.1,0.0,1,34.2,2.65,6.6,0,0,1,1,0,,,,,,,,,,,,,,,,,,,,
52743,1629380130476,1,2,250,252,237,233,-3,-0.05,0.01,1.88,0,3,2,0.05,1,87,5439,4,32,62,0.971,0.0,466,4.85,12.8,0.0,1,34.2,1.52,6.6,0,0,1,1,0,0,250,250,0,49.328209,8.565402,0.0,117.9,10,2,2.0,0,0.0,-1,0.0,,0.0,0,0.04,0.879
52763,1629380130496,,,250,253,237,233,,0.0,0.08,2.04,-1,-3,-5,0.08,,87,5469,4,32,62,0.97,0.0,470,4.92,13.1,0.0,1,34.2,2.62,6.6,0,0,1,1,0,,,,,,,,,,,,,,,,,,,,
52783,1629380130516,,,249,253,237,233,,-0.1,0.06,1.89,-0,5,1,0.12,,87,5519,4,32,62,0.973,0.0,475,4.86,13.1,0.0,1,34.2,2.6,6.6,0,0,1,1,0,,,,,,,,,,,,,,,,,,,,
52803,1629380130536,,,250,252,237,233,,-0.06,-0.0,1.74,-0,5,1,0.06,,87,5530,4,32,62,0.974,0.0,484,4.87,13.0,0.0,1,34.2,1.45,6.6,0,0,1,1,0,,,,,,,,,,,,,,,,,,,,
52823,1629380130556,,,250,253,237,233,,0.02,0.04,1.91,-1,-6,-7,0.04,,87,5620,4,32,61,0.971,0.0,480,4.92,13.1,0.0,1,34.0,1.31,6.6,0,0,1,1,0,,,,,,,,,,,,,,,,,,,,
52843,1629380130576,-0,2,250,253,237,232,-3,0.01,0.06,2.07,-0,-4,-5,0.06,1,87,5686,4,32,61,0.972,0.0,488,4.83,13.0,0.0,1,34.0,2.39,6.6,0,0,1,1,0,0,250,250,0,49.328209,8.565402,0.0,117.8,10,2,2.0,0,0.0,-1,0.0,0.0,0.0,0,0.04,0.8807
52863,1629380130596,,,250,252,237,233,,-0.11,0.0,1.91,-0,3,3,0.11,,87,5771,4,32,60,0.972,0.0,500,4.81,12.8,0.0,1,33.7,2.33,6.6,0,0,1,1,0,,,,,,,,,,,,,,,,,,,,
52883,1629380130616,,,250,253,237,233,,-0.2,-0.05,1.77,0,7,6,0.2,,87,5804,4,32,60,0.971,0.0,508,4.81,12.9,0.0,1,33.7,2.32,6.2,0,0,1,1,0,,,,,,,,,,,,,,,,,,,,
52903,1629380130636,,,250,253,237,232,,-0.18,-0.09,1.63,0,6,5,0.2,,87,5874,4,32,60,0.97,0.0,507,4.85,13.0,0.0,1,33.7,2.28,6.2,0,0,1,1,0,,,,,,,,,,,,,,,,,,,,
52923,1629380130656,,,250,253,237,233,,-0.12,-0.09,1.78,0,3,2,0.14,,87,5920,4,32,59,0.966,0.0,509,4.81,12.8,0.0,1,33.5,1.14,6.2,0,0,1,1,0,,,,,,,,,,,,,,,,,,,,
52943,1629380130676,0,2,250,253,237,232,-3,-0.06,-0.07,1.95,-0,-1,-3,0.09,1,87,5959,4,32,59,0.963,0.0,516,4.88,13.0,0.0,1,33.5,1.11,6.2,0,0,1,1,0,0,250,250,0,49.328205,8.565402,0.0,117.8,10,2,1.7,0,0.0,-1,0.0,,0.0,0,0.04,0.8824
52963,1629380130700,,,250,253,237,232,,-0.02,-0.07,2.1,-0,-2,-6,0.07,,87,5994,4,32,58,0.961,0.0,520,4.85,12.9,0.0,1,33.3,1.09,6.2,0,0,1,1,0,,,,,,,,,,,,,,,,,,,,
52983,1629380130720,,,250,253,237,233,,-0.0,-0.06,2.25,-0,-4,-8,0.06,,87,6073,4,32,58,0.956,0.0,524,4.83,13.0,0.0,1,33.7,1.07,6.2,0,0,1,1,0,,,,,,,,,,,,,,,,,,,,
53003,1629380130740,,,250,252,237,233,,-0.03,-0.07,2.08,-0,-3,-7,0.08,,87,6123,4,32,57,0.954,0.0,525,4.89,12.8,0.0,1,33.6,1.12,6.2,0,0,1,1,0,,,,,,,,,,,,,,,,,,,,
53023,1629380130760,,,250,253,237,233,,-0.12,-0.08,1.92,-0,0,-3,0.15,,87,6223,4,32,56,0.95,0.0,529,4.86,12.9,0.0,1,33.7,2.24,6.2,0,0,1,1,0,,,,,,,,,,,,,,,,,,,,
53043,1629380130780,-1,2,250,253,237,232,-3,-0.19,-0.08,1.77,0,4,1,0.21,1,87,6306,4,32,55,0.948,0.0,537,4.78,12.9,0.0,1,33.8,2.24,6.2,0,0,1,1,0,0,250,250,0,49.328205,8.565402,0.0,117.7,10,2,2.0,0,0.0,-1,0.0,0.0,0.0,0,0.04,0.884
53063,1629380130799,,,250,253,237,233,,-0.13,-0.06,1.94,0,2,-1,0.15,,87,6379,4,32,54,0.953,0.0,546,4.9,13.1,0.0,1,33.8,2.24,6.2,0,0,1,1,0,,,,,,,,,,,,,,,,,,,,
53083,1629380130819,,,250,253,237,233,,-0.08,-0.06,2.1,-0,-1,-4,0.1,,87,6485,4,32,52,0.954,0.0,555,4.85,12.9,0.0,1,33.6,1.14,6.7,0,0,1,1,0,,,,,,,,,,,,,,,,,,,,
53103,1629380130839,,,250,253,237,233,,-0.16,-0.1,1.94,0,3,0,0.19,,87,6560,4,32,51,0.955,0.0,562,4.78,13.0,0.0,1,33.5,2.26,6.7,0,0,1,1,0,,,,,,,,,,,,,,,,,,,,
53123,1629380130859,,,250,253,237,232,,-0.1,-0.07,2.1,0,0,-3,0.12,,87,6670,4,32,50,0.956,0.0,567,4.85,13.0,0.0,1,33.5,1.14,6.7,0,0,1,1,0,,,,,,,,,,,,,,,,,,,,
53143,1629380130879,0,1,250,252,237,233,-3,-0.15,-0.07,1.93,0,2,-0,0.16,1,87,6756,4,32,49,0.957,0.0,567,4.87,12.8,0.0,1,33.4,2.25,6.7,0,0,1,1,0,0,250,250,0,49.328205,8.565402,0.0,117.7,10,2,2.0,0,0.0,-1,0.0,,0.0,0,0.04,0.8857
53163,1629380130898,,,250,252,237,232,,-0.09,-0.08,2.09,0,-0,-3,0.12,,87,6850,4,32,48,0.962,0.0,577,4.93,13.0,0.0,1,33.3,2.24,6.7,0,0,1,1,0,,,,,,,,,,,,,,,,,,,,
53183,1629380130918,,,250,253,237,232,,-0.14,-0.06,1.93,-0,1,-0,0.15,,87,6944,4,32,47,0.965,0.0,583,4.81,13.1,0.0,1,33.2,2.23,7.1,0,0,1,1,0,,,,,,,,,,,,,,,,,,,,
53203,1629380130938,,,250,253,237,233,,-0.12,-0.08,1.83,-0,1,-1,0.14,,87,7027,4,32,47,0.969,0.0,591,4.92,13.0,0.0,1,33.4,2.22,7.1,0,0,1,1,0,,,,,,,,,,,,,,,,,,,,
53223,1629380130958,,,250,253,237,233,,-0.08,-0.07,1.99,-0,-1,-3,0.11,,87,7072,4,32,46,0.97,0.0,596,4.92,13.0,0.0,1,33.2,2.24,7.1,0,0,1,1,0,,,,,,,,,,,,,,,,,,,,
53243,1629380130978,0,3,250,253,237,233,-3,-0.05,-0.1,2.13,-0,0,-1,0.11,1,87,7123,4,32,46,0.97,0.0,604,4.82,13.0,0.0,1,33.3,2.24,7.1,0,0,1,1,0,0,250,250,0,49.328205,8.565402,0.0,117.6,10,2,2.0,0,0.0,-1,0.0,0.0,0.0,0,0.04,0.8874
53263,1629380130992,,,250,253,237,233,,-0.07,-0.08,1.96,0,1,1,0.11,,87,7197,4,32,45,0.969,0.0,608,4.85,12.8,0.0,1,33.2,2.26,7.1,0,0,1,1,0,,,,,,,,,,,,,,,,,,,,
53283,1629380131012,,,249,253,237,233,,-0.08,-0.05,1.81,0,2,2,0.1,,87,7233,4,32,44,0.967,0.0,610,4.81,12.8,0.0,1,32.9,1.15,7.5,0,0,1,1,0,,,,,,,,,,,,,,,,,,,,
53303,1629380131032,,,250,252,237,233,,-0.1,-0.07,1.67,0,0,0,0.12,,87,7259,4,32,44,0.961,0.0,610,4.91,12.9,0.0,1,33.0,2.27,7.5,0,0,1,1,0,,,,,,,,,,,,,,,,,,,,
53323,1629380131052,,,250,253,237,232,,-0.08,-0.07,1.85,0,-2,-2,0.11,,87,7287,4,32,43,0.957,0.0,616,4.99,13.0,0.0,1,32.6,1.16,7.5,0,0,1,1,0,,,,,,,,,,,,,,,,,,,,
53343,1629380131072,-1,2,249,251,237,233,-3,-0.07,-0.1,1.98,0,-1,-2,0.13,1,87,7324,4,32,42,0.954,0.0,620,4.86,13.0,0.0,1,32.2,2.28,7.5,0,0,1,1,0,0,250,250,0,49.328205,8.565402,0.0,117.7,10,2,2.0,0,0.0,-1,0.0,,0.0,0,0.04,0.889
53363,1629380131098,,,250,252,237,232,,-0.06,-0.13,2.13,0,-2,-2,0.14,,87,7332,4,32,42,0.948,0.0,622,4.78,13.0,0.0,1,32.2,2.28,7.5,0,0,1,1,0,,,,,,,,,,,,,,,,,,,,
53383,1629380131118,,,250,251,237,233,,-0.03,-0.09,2.24,0,-1,-0,0.1,,87,7312,4,32,41,0.945,0.0,617,4.73,13.0,0.0,1,31.8,2.29,7.7,0,0,1,1,0,,,,,,,,,,,,,,,,,,,,
53403,1629380131138,,,250,253,237,233,,-0.05,-0.08,2.07,0,2,2,0.1,,87,7295,4,32,41,0.943,0.0,611,4.88,12.8,0.0,1,31.8,2.29,7.7,0,0,1,1,0,,,,,,,,,,,,,,,,,,,,
53423,1629380131158,,,250,252,237,233,,-0.07,-0.07,1.91,0,2,2,0.1,,87,7318,4,32,41,0.94,0.0,615,4.86,12.8,0.0,1,31.8,2.29,7.7,0,0,1,1,0,,,,,,,,,,,,,,,,,,,,
53443,1629380131178,0,2,249,252,237,233,-3,-0.08,-0.02,1.76,0,1,1,0.09,1,87,7301,4,32,40,0.937,0.0,617,4.87,12.8,0.0,1,31.4,2.29,7.7,0,0,1,1,0,0,250,250,0,49.328205,8.565402,1.98,117.7,10,2,2.0,0,0.0,-1,0.0,0.0,0.0,0,0.04,0.8907
53463,1629380131197,,,250,253,237,233,,-0.09,-0.03,1.63,0,0,0,0.1,,87,7329,4,32,40,0.938,0.0,611,4.91,12.9,0.0,1,31.4,2.29,7.7,0,0,1,1,0,,,,,,,,,,,,,,,,,,,,
53483,1629380131217,,,249,253,237,233,,-0.08,-0.07,1.69,-0,-1,-2,0.1,,87,7284,4,32,40,0.94,0.0,614,4.9,13.0,0.0,1,31.4,1.17,7.7,0,0,1,1,0,,,,,,,,,,,,,,,,,,,,
53503,1629380131237,,,250,252,237,233,,-0.05,-0.08,1.86,-0,-2,-2,0.09,,87,7290,4,32,40,0.942,0.0,612,4.88,13.0,0.0,1,31.4,1.17,7.7,0,0,1,1,0,,,,,,,,,,,,,,,,,,,,
53523,1629380131257,,,250,251,237,233,,-0.04,-0.11,1.82,0,-0,1,0.11,,87,7264,4,32,39,0.944,0.0,614,4.8,12.9,0.0,1,31.0,1.17,7.7,0,0,1,1,0,,,,,,,,,,,,,,,,,,,,
53543,1629380131277,0,0,250,252,237,232,-2,-0.06,-0.08,1.68,0,1,2,0.1,1,87,7233,4,32,39,0.946,0.0,611,4.85,12.8,0.0,1,31.0,2.29,7.7,0,0,1,1,0,0,250,250,0,49.328205,8.565402,0.0,117.8,10,2,1.7,0,0.0,-1,0.0,,0.0,0,0.04,0.8924
53563,1629380131297,,,250,252,237,233,,-0.08,-0.04,1.55,0,1,3,0.08,,87,7214,4,32,39,0.947,0.0,606,4.93,12.9,0.0,1,31.0,2.29,7.7,0,0,1,1,0,,,,,,,,,,,,,,,,,,,,
53583,1629380131317,,,250,252,237,233,,-0.08,-0.06,1.43,0,0,1,0.1,,87,7183,4,32,39,0.948,0.0,607,4.97,13.0,0.0,1,31.0,1.17,7.6,0,0,1,1,0,,,,,,,,,,,,,,,,,,,,
53603,1629380131337,,,250,252,237,232,,-0.05,-0.07,1.63,0,-2,-0,0.08,,87,7164,4,32,39,0.948,0.0,607,4.85,13.1,0.0,1,31.0,2.29,7.6,0,0,1,1,0,,,,,,,,,,,,,,,,,,,,
53623,1629380131357,,,249,251,237,233,,-0.04,-0.08,1.59,0,1,2,0.09,,87,7129,4,32,39,0.948,0.0,606,4.8,13.1,0.0,1,31.0,2.29,7.6,0,0,1,1,0,,,,,,,,,,,,,,,,,,,,
53643,1629380131377,1,0,250,253,237,233,-3,-0.07,-0.04,1.46,0,1,3,0.08,1,87,7123,4,32,39,0.944,0.0,601,4.84,12.8,0.0,1,31.0,2.29,7.6,0,0,1,1,0,0,250,250,0,49.328209,8.565403,0.0,118.0,10,2,1.7,0,0.0,-1,0.0,0.0,0.0,0,0.04,0.894
53663,1629380131395,,,250,252,237,233,,-0.06,-0.07,1.38,0,-0,1,0.09,,87,7059,4,32,39,0.943,0.0,601,4.93,13.0,0.0,1,31.0,2.29,7.6,0,0,1,1,0,,,,,,,,,,,,,,,,,,,,
53683,1629380131415,,,250,252,237,233,,-0.02,-0.06,1.58,0,-1,1,0.06,,87,7001,4,32,39,0.941,0.0,599,4.81,13.0,0.0,1,31.0,1.17,7.4,0,0,1,1,0,,,,,,,,,,,,,,,,,,,,
53703,1629380131435,,,250,253,237,233,,-0.08,-0.06,1.46,0,2,3,0.1,,87,6993,4,32,39,0.939,0.0,595,4.86,12.8,0.0,1,30.9,1.17,7.4,0,0,1,1,0,,,,,,,,,,,,,,,,,,,,
53723,1629380131455,,,250,253,237,232,,-0.05,-0.06,1.49,0,-1,-1,0.08,,87,6941,4,32,39,0.937,0.0,591,4.92,13.0,0.0,1,30.9,2.29,7.4,0,0,1,1,0,,,,,,,,,,,,,,,,,,,,
53743,1629380131475,0,2,250,252,237,233,-3,-0.02,-0.09,1.65,0,1,2,0.09,1,87,6890,4,32,39,0.935,0.0,591,4.86,13.1,0.0,1,30.8,2.29,7.4,0,0,1,1,0,0,250,250,0,49.328209,8.565402,0.0,118.0,10,2,1.7,0,0.0,-1,0.0,,0.0,0,0.04,0.8957
53763,1629380131499,,,250,253,237,233,,-0.07,-0.06,1.53,0,0,1,0.09,,87,6850,4,32,39,0.932,0.0,587,4.86,12.8,0.0,1,30.8,2.29,7.4,0,0,1,1,0,,,,,,,,,,,,,,,,,,,,
53783,1629380131519,,,250,253,237,233,,-0.03,-0.06,1.72,0,-0,-0,0.07,,87,6828,4,32,39,0.93,0.0,583,4.9,13.0,0.0,1,30.7,1.17,7.2,0,0,1,1,0,,,,,,,,,,,,,,,,,,,,
53803,1629380131539,,,250,252,237,232,,-0.1,-0.04,1.58,0,1,1,0.1,,87,6778,4,32,39,0.927,0.0,575,4.96,12.9,0.0,1,30.7,2.29,7.2,0,0,1,1,0,,,,,,,,,,,,,,,,,,,,
53823,1629380131559,,,250,253,237,233,,-0.04,-0.02,1.77,0,-0,-0,0.05,,87,6718,4,32,39,0.927,0.0,575,4.93,13.1,0.0,1,30.6,1.17,7.2,0,0,1,1,0,,,,,,,,,,,,,,,,,,,,
53843,1629380131579,-0,2,250,252,237,233,-3,-0.12,-0.03,1.63,0,1,2,0.13,1,87,6718,4,32,39,0.924,0.0,573,4.82,12.8,0.0,1,30.6,1.17,7.2,0,0,1,1,0,0,250,250,0,49.328209,8.565402,0.0,118.0,10,2,1.7,0,0.0,-1,0.0,0.0,0.0,0,0.04,0.8974
53863,1629380131598,,,250,252,237,233,,-0.06,-0.01,1.82,0,1,2,0.06,,87,6660,4,32,39,0.925,0.0,572,4.91,13.1,0.0,1,30.5,2.29,7.2,0,0,1,1,0,,,,,,,,,,,,,,,,,,,,
53883,1629380131618,,,250,253,237,233,,-0.09,-0.02,1.68,0,-1,-0,0.09,,87,6625,4,32,39,0.924,0.0,566,4.92,13.0,0.0,1,30.5,2.29,7.0,0,0,1,1,0,,,,,,,,,,,,,,,,,,,,
53903,1629380131638,,,249,253,237,233,,-0.08,-0.02,1.64,0,3,3,0.08,,87,6597,4,32,39,0.924,0.0,566,4.8,13.1,0.0,1,30.5,2.29,7.0,0,0,1,1,0,,,,,,,,,,,,,,,,,,,,
53923,1629380131658,,,250,253,237,233,,-0.01,-0.02,1.82,0,-1,-1,0.02,,87,6476,4,32,39,0.924,0.0,556,4.91,13.0,0.0,1,30.3,2.29,7.0,0,0,1,1,0,,,,,,,,,,,,,,,,,,,,
53943,1629380131678,0,0,250,252,237,232,-2,-0.07,-0.04,1.68,0,-2,-2,0.08,1,87,6414,4,32,39,0.923,0.0,551,4.88,13.0,0.0,1,30.2,1.17,7.0,0,0,1,1,0,0,250,250,0,49.328209,8.565402,2.41,118.0,10,2,1.7,0,0.0,-1,0.0,,0.0,0,0.04,0.899
53963,1629380131697,,,250,253,237,232,,-0.13,-0.0,1.55,0,2,3,0.13,,87,6330,4,32,40,0.922,0.0,549,4.85,13.0,0.0,1,30.3,1.17,7.0,0,0,1,1,0,,,,,,,,,,,,,,,,,,,,
53983,1629380131717,,,250,253,237,233,,-0.11,0.04,1.66,0,5,5,0.11,,87,6198,4,32,40,0.924,0.0,546,4.87,13.1,0.0,1,30.2,2.29,6.6,0,0,1,1,0,,,,,,,,,,,,,,,,,,,,
54003,1629380131737,,,250,253,237,233,,-0.07,0.03,1.84,0,7,6,0.08,,87,6065,4,32,41,0.925,0.0,537,4.8,13.0,0.0,1,30.1,2.29,6.6,0,0,1,1,0,,,,,,,,,,,,,,,,,,,,
54023,1629380131757,,,250,253,237,233,,-0.05,0.03,2.01,0,9,7,0.06,,87,5922,4,32,42,0.927,0.0,526,4.81,13.1,0.0,1,30.1,2.33,6.6,0,0,1,1,0,,,,,,,,,,,,,,,,,,,,
54043,1629380131777,0,2,250,252,237,233,-3,-0.09,0.05,1.87,0,13,12,0.1,1,87,5758,4,32,43,0.93,0.0,513,4.75,12.8,0.0,1,30.0,2.4,6.6,0,0,1,1,0,0,250,250,0,49.328209,8.565402,0.0,118.0,10,2,1.7,0,0.0,-1,0.0,0.0,0.0,0,0.04,0.9007
54063,1629380131799,,,250,252,237,233,,-0.17,0.02,1.73,0,16,15,0.17,,87,5602,4,32,44,0.933,0.0,501,4.8,12.7,0.0,1,29.8,2.48,6.6,0,0,1,1,0,,,,,,,,,,,,,,,,,,,,
54083,1629380131819,,,250,253,237,233,,-0.05,-0.06,1.63,1,8,9,0.08,,87,5511,4,32,45,0.934,0.0,491,4.89,13.0,0.0,1,29.9,2.53,6.4,0,0,1,1,0,,,,,,,,,,,,,,,,,,,,
54103,1629380131839,,,250,253,237,233,,-0.05,0.04,1.81,1,9,7,0.06,,87,5441,4,32,46,0.937,0.0,477,4.83,13.0,0.0,1,30.0,1.45,6.4,0,0,1,1,0,,,,,,,,,,,,,,,,,,,,
54123,1629380131859,,,250,253,237,232,,-0.11,-0.01,1.67,1,12,11,0.11,,87,5331,4,32,47,0.94,0.0,460,4.87,13.0,0.0,1,30.1,1.54,6.4,0,0,1,1,0,,,,,,,,,,,,,,,,,,,,
54143,1629380131879,0,1,250,253,237,232,-2,-0.05,0.01,1.85,1,5,5,0.06,1,87,5189,4,32,48,0.944,0.0,455,4.87,13.0,0.0,1,30.1,2.71,6.4,0,0,1,1,0,0,250,250,0,49.328209,8.565402,0.0,118.0,10,2,1.7,0,0.0,-1,0.0,,0.0,0,0.04,0.9024
54163,1629380131899,,,249,251,237,233,,-0.06,-0.03,1.71,1,7,7,0.07,,87,5079,4,32,49,0.948,0.0,446,4.89,13.0,0.0,1,30.3,2.78,6.4,0,0,1,1,0,,,,,,,,,,,,,,,,,,,,
54183,1629380131919,,,250,252,237,233,,-0.12,-0.02,1.88,0,7,7,0.12,,87,4962,4,32,50,0.952,0.0,433,4.84,13.0,0.0,1,30.0,2.81,6.5,0,0,1,1,0,,,,,,,,,,,,,,,,,,,,
54203,1629380131939,,,249,253,237,233,,-0.08,0.01,2.04,0,4,4,0.08,,87,4917,4,32,51,0.958,0.0,426,4.92,13.0,0.0,1,29.8,1.69,6.5,0,0,1,1,0,,,,,,,,,,,,,,,,,,,,
54223,1629380131959,,,250,252,237,233,,-0.03,-0.05,1.89,0,4,4,0.06,,87,4843,5,32,52,0.964,0.0,423,4.89,13.1,0.0,1,29.2,1.65,6.5,0,0,1,1,0,,,,,,,,,,,,,,,,,,,,
54243,1629380131979,0,1,249,253,237,233,-3,-0.03,-0.04,1.74,0,5,5,0.05,1,87,4784,5,32,53,0.969,0.0,408,4.86,13.1,0.0,1,28.8,2.73,6.5,0,0,1,1,0,0,250,250,0,49.328209,8.565402,0.0,118.0,10,2,1.7,0,0.0,-1,0.0,0.0,0.0,0,0.04,0.904
54263,1629380131993,,,249,253,237,233,,-0.07,-0.07,1.81,0,5,5,0.1,,87,4725,6,32,54,0.975,0.0,408,4.84,12.9,0.0,1,28.3,2.71,6.5,0,0,1,1,0,,,,,,,,,,,,,,,,,,,,
54283,1629380132013,,,250,253,237,233,,-0.13,-0.07,1.93,0,5,5,0.15,,87,4636,7,32,55,0.986,0.0,402,4.88,12.9,0.0,1,27.4,2.64,5.7,0,0,1,1,0,,,,,,,,,,,,,,,,,,,,
54303,1629380132033,,,250,253,237,233,,-0.16,-0.03,2.09,0,5,5,0.17,,87,4659,9,32,57,0.996,0.0,394,4.87,13.0,0.0,1,28.3,2.66,5.7,0,0,1,1,0,,,,,,,,,,,,,,,,,,,,
54323,1629380132053,,,250,252,237,233,,-0.16,0.01,2.24,0,4,3,0.16,,87,4695,11,32,59,1.005,0.0,400,4.87,13.0,0.0,1,29.4,1.58,5.7,0,0,1,1,0,,,,,,,,,,,,,,,,,,,,
54343,1629380132073,0,2,250,253,237,233,-3,-0.1,0.01,2.31,0,3,2,0.1,1,87,4682,14,32,62,1.017,0.0,394,4.88,13.2,0.0,1,30.0,2.73,5.7,0,0,1,1,0,0,250,250,0,49.328209,8.565402,0.0,118.0,10,2,1.7,0,0.0,-1,0.0,,0.0,0,0.04,0.9057
54363,1629380132099,,,250,251,237,232,,-0.04,-0.01,2.13,0,2,1,0.04,,87,4831,17,32,67,1.027,0.0,400,4.87,13.1,0.0,1,33.5,3.78,5.7,0,0,1,1,0,,,,,,,,,,,,,,,,,,,,
54383,1629380132119,,,250,252,237,233,,-0.08,0.0,1.97,0,4,4,0.08,,87,5006,21,32,72,1.038,0.0,400,4.78,13.0,0.0,1,37.3,5.55,12.1,0,0,1,1,0,,,,,,,,,,,,,,,,,,,,
54403,1629380132139,,,250,252,237,233,,-0.06,0.01,2.12,0,-1,0,0.06,,87,5144,25,32,78,1.046,0.0,411,4.89,13.1,0.0,1,38.8,2.55,12.1,0,0,1,1,0,,,,,,,,,,,,,,,,,,,,
54423,1629380132159,,,250,252,237,233,,-0.12,-0.04,1.96,0,3,4,0.12,,87,5363,28,32,84,1.057,0.0,430,4.83,13.0,0.0,1,40.0,6.75,12.1,0,0,1,1,0,,,,,,,,,,,,,,,,,,,,
54443,1629380132179,-0,2,250,253,237,232,-3,-0.0,-0.07,2.12,-0,-2,-3,0.07,1,87,5753,32,32,88,1.06,0.0,451,4.85,13.1,0.0,1,40.0,7.81,12.1,0,0,1,1,0,0,250,250,0,49.328209,8.565402,0.0,118.0,10,2,1.7,0,0.0,-1,0.0,0.0,0.0,0,0.04,0.9074
54463,1629380132198,,,250,253,237,232,,0.03,-0.05,2.26,-1,-5,-6,0.06,,87,6237,35,32,91,1.057,0.0,488,4.86,12.9,0.0,1,42.1,3.74,12.1,0,0,1,1,0,,,,,,,,,,,,,,,,,,,,
54483,1629380132218,,,250,253,237,233,,-0.03,-0.03,2.09,-0,-2,-2,0.04,,87,6895,38,32,92,1.053,0.0,527,4.8,12.8,0.0,1,48.9,3.3,24.4,0,0,1,1,0,,,,,,,,,,,,,,,,,,,,
54503,1629380132238,,,250,252,237,233,,-0.04,0.02,1.93,-0,-1,-0,0.04,,87,7569,41,32,93,1.051,0.0,571,4.84,12.7,0.0,1,42.0,8.67,24.4,0,0,1,1,0,,,,,,,,,,,,,,,,,,,,
54523,1629380132258,,,250,252,237,233,,-0.03,0.02,1.98,-0,-1,-0,0.04,,87,8088,43,32,93,1.045,0.0,613,4.75,12.9,0.0,1,37.0,9.87,24.4,0,0,1,1,0,,,,,,,,,,,,,,,,,,,,
54543,1629380132278,-1,2,250,253,237,233,-3,-0.01,0.05,1.83,-0,0,3,0.05,1,87,8729,44,32,92,1.035,0.0,644,4.84,12.7,0.0,1,41.4,11.39,24.4,0,0,1,1,0,0,250,250,0,49.328209,8.565402,0.0,118.0,10,2,1.7,0,0.0,-1,0.0,,0.0,0,0.04,0.909
54563,1629380132298,,,249,252,237,233,,-0.0,0.03,1.69,0,1,4,0.03,,87,8790,47,32,90,1.026,0.0,647,4.73,12.6,0.0,1,40.9,5.14,24.4,0,0,1,1,0,,,,,,,,,,,,,,,,,,,,
54583,1629380132318,,,249,251,237,233,,0.01,0.03,1.56,-0,2,4,0.03,,87,8852,51,32,90,1.016,0.0,648,4.73,12.7,0.0,1,40.3,5.16,45.8,0,0,1,1,0,,,,,,,,,,,,,,,,,,,,
54603,1629380132338,,,250,253,237,232,,-0.0,-0.0,1.44,-0,2,3,0.0,,87,9075,54,32,90,1.006,0.0,652,4.82,12.8,0.0,1,38.8,11.0,45.8,0,0,1,1,0,,,,,,,,,,,,,,,,,,,,
54623,1629380132358,,,250,253,237,233,,0.01,0.02,1.33,-0,3,5,0.02,,87,9645,56,32,91,0.988,0.0,661,4.75,12.9,0.0,1,39.2,11.51,45.8,0,0,1,1,0,,,,,,,,,,,,,,,,,,,,
54643,1629380132378,0,2,250,252,237,233,-3,-0.04,0.02,1.53,0,2,4,0.05,1,87,9474,57,32,91,0.974,0.0,665,4.83,13.0,0.0,1,38.9,11.41,45.8,0,0,1,1,0,0,250,250,0,49.328209,8.565402,0.0,118.0,10,2,1.7,0,0.0,-1,0.0,0.0,0.0,0,0.04,0.9107
54663,1629380132399,,,250,251,237,233,,-0.05,0.01,1.6,-0,1,2,0.05,,87,9282,57,32,92,0.961,0.0,664,4.78,12.7,0.0,1,38.8,5.29,45.8,0,0,1,1,0,,,,,,,,,,,,,,,,,,,,
54683,1629380132419,,,250,253,237,232,,-0.07,0.03,1.57,-0,1,-1,0.08,,87,9084,57,32,93,0.947,0.0,659,4.83,12.7,0.0,1,38.7,11.4,48.4,0,0,1,1,0,,,,,,,,,,,,,,,,,,,,
54703,1629380132439,,,250,253,237,233,,-0.09,-0.03,1.69,-1,-0,-4,0.09,,87,8898,57,32,93,0.942,0.0,658,4.85,12.8,0.0,1,39.7,5.31,48.4,0,0,1,1,0,,,,,,,,,,,,,,,,,,,,
54723,1629380132459,,,250,253,237,232,,-0.11,0.02,1.87,-1,-1,-7,0.11,,87,8708,58,32,93,0.938,0.0,647,4.86,12.8,0.0,1,41.5,11.02,48.4,0,0,1,1,0,,,,,,,,,,,,,,,,,,,,
54743,1629380132479,-0,3,250,253,237,233,-3,-0.13,0.03,1.95,-1,-1,-7,0.13,1,87,8514,58,32,94,0.932,0.0,647,4.8,12.7,0.0,1,43.1,10.88,48.4,0,0,1,1,0,0,250,250,0,49.328209,8.565402,0.0,118.0,10,2,1.7,0,0.0,-1,0.0,,0.0,0,0.04,0.9124
54763,1629380132496,,,250,252,237,233,,-0.11,-0.04,1.8,-1,-1,-6,0.12,,87,8322,57,32,93,0.93,0.0,638,4.71,12.8,0.0,1,40.5,10.03,48.4,0,0,1,1,0,,,,,,,,,,,,,,,,,,,,
54783,1629380132516,,,250,252,237,232,,-0.09,-0.03,1.83,-1,-1,-6,0.09,,87,8152,58,32,94,0.949,0.0,642,4.86,12.8,0.0,1,37.9,9.32,36.1,0,0,1,1,0,,,,,,,,,,,,,,,,,,,,
54803,1629380132536,,,250,253,237,232,,-0.08,-0.09,1.99,-1,-3,-7,0.12,,87,7988,57,32,95,0.974,0.0,636,4.86,12.7,0.0,1,35.7,4.27,36.1,0,0,1,1,0,,,,,,,,,,,,,,,,,,,,
54823,1629380132556,,,250,253,236,233,,-0.1,-0.08,1.84,-1,-2,-5,0.13,,87,7894,58,32,95,0.994,0.0,636,4.88,12.7,0.0,1,37.0,8.42,36.1,0,0,1,1,0,,,,,,,,,,,,,,,,,,,,
54843,1629380132576,-0,2,250,253,237,232,-3,-0.07,-0.06,1.78,-0,-1,-5,0.09,1,87,8019,58,32,95,1.01,0.0,630,4.87,12.8,0.0,1,35.7,4.34,36.1,0,0,1,1,0,0,250,250,0,49.328209,8.565402,0.0,118.0,10,2,1.7,0,0.0,-1,0.0,0.0,0.0,0,0.04,0.914
54863,1629380132598,,,250,253,237,233,,-0.07,-0.07,1.75,-0,-1,-4,0.1,,87,8453,58,32,94,1.037,0.0,643,4.73,12.8,0.0,1,42.4,5.31,36.1,0,0,1,1,0,,,,,,,,,,,,,,,,,,,,
54883,1629380132618,,,250,253,237,232,,-0.07,0.01,1.71,-0,-2,-4,0.07,,87,9079,58,32,92,1.066,0.0,653,4.87,12.8,0.0,1,38.7,5.29,41.8,0,0,1,1,0,,,,,,,,,,,,,,,,,,,,
54903,1629380132638,,,250,253,237,233,,-0.07,0.03,1.77,-0,-2,-3,0.08,,87,9760,58,32,91,1.094,0.0,666,4.85,13.0,0.0,1,39.4,5.33,41.8,0,0,1,1,0,,,,,,,,,,,,,,,,,,,,
54923,1629380132658,,,250,253,237,233,,-0.07,0.02,1.63,-0,-2,-3,0.07,,87,9551,58,32,91,1.125,0.0,663,4.84,13.0,0.0,1,39.0,9.47,41.8,0,0,1,1,0,,,,,,,,,,,,,,,,,,,,
54943,1629380132678,-1,2,250,251,237,233,-3,-0.06,0.01,1.5,-0,-1,-2,0.06,1,87,9403,58,32,92,1.133,0.0,658,4.83,12.7,0.0,1,38.8,9.38,41.8,0,0,1,1,0,0,250,250,0,49.328209,8.565402,0.0,118.0,10,2,1.7,0,0.0,-1,0.0,,0.0,0,0.04,0.9157
54963,1629380132698,,,250,253,237,232,,-0.06,0.02,1.4,-0,0,0,0.06,,87,9426,58,32,92,1.136,0.0,658,4.83,12.6,0.0,1,38.8,9.23,41.8,0,0,1,1,0,,,,,,,,,,,,,,,,,,,,
54983,1629380132718,,,249,253,237,233,,-0.08,0.02,1.57,-0,-0,-1,0.08,,87,9469,58,32,92,1.14,0.0,661,4.85,13.0,0.0,1,38.8,9.15,39.9,0,0,1,1,0,,,,,,,,,,,,,,,,,,,,
55003,1629380132738,,,250,251,237,232,,-0.08,0.06,1.53,-0,-0,-1,0.11,,87,9412,58,32,92,1.142,0.0,659,4.84,12.8,0.0,1,38.8,5.29,39.9,0,0,1,1,0,,,,,,,,,,,,,,,,,,,,
55023,1629380132758,,,250,252,237,233,,-0.05,0.03,1.51,0,-0,-0,0.06,,87,9546,58,32,92,1.139,0.0,657,4.86,13.0,0.0,1,38.9,8.72,39.9,0,0,1,1,0,,,,,,,,,,,,,,,,,,,,
55043,1629380132778,0,1,250,251,237,233,-3,-0.08,0.02,1.49,-0,-1,-1,0.08,1,87,9398,58,32,92,1.127,0.0,655,4.79,12.8,0.0,1,38.8,5.29,39.9,0,0,1,1,0,0,250,250,0,49.328209,8.565402,0.0,118.0,10,2,1.7,0,0.0,-1,0.0,0.0,0.0,0,0.04,0.9174
55063,1629380132796,,,249,253,237,233,,-0.04,0.09,1.37,-0,1,-1,0.1,,87,9620,58,32,92,1.115,0.0,663,4.86,13.0,0.0,1,39.1,5.32,39.9,0,0,1,1,0,,,,,,,,,,,,,,,,,,,,
55083,1629380132816,,,250,253,237,233,,-0.04,0.01,1.37,0,-0,1,0.04,,87,9460,59,32,92,1.103,0.0,657,4.82,13.0,0.0,1,38.8,5.29,27.7,0,0,1,1,0,,,,,,,,,,,,,,,,,,,,
55103,1629380132836,,,250,251,236,233,,-0.05,-0.02,1.57,-0,-0,-1,0.05,,86,9821,60,32,91,1.084,0.0,674,4.86,13.0,0.0,1,39.4,6.4,27.7,0,0,1,1,0,,,,,,,,,,,,,,,,,,,,
55123,1629380132856,,,250,253,236,233,,-0.03,-0.03,1.47,0,-1,-0,0.04,,86,9571,60,32,92,1.068,0.0,662,4.8,13.0,0.0,1,39.0,6.35,27.7,0,0,1,1,0,,,,,,,,,,,,,,,,,,,,
55143,1629380132876,0,2,249,251,237,233,-4,-0.06,-0.02,1.46,-0,-1,-1,0.06,1,87,9460,61,32,93,1.058,0.0,659,4.78,12.8,0.0,1,38.8,6.38,27.7,0,0,1,1,0,0,250,250,0,49.328209,8.565402,0.0,118.0,10,2,1.7,0,0.0,-1,0.0,,0.0,0,0.04,0.919
55163,1629380132898,,,250,253,237,233,,-0.03,0.06,1.35,0,0,0,0.07,,87,9669,62,32,92,1.042,0.0,664,4.89,13.0,0.0,1,39.1,5.34,27.7,0,0,1,1,0,,,,,,,,,,,,,,,,,,,,
55183,1629380132918,,,250,253,237,233,,-0.03,-0.0,1.41,0,-0,1,0.03,,87,9436,62,32,93,1.044,0.0,665,4.82,13.0,0.0,1,38.8,6.38,27.9,0,0,1,1,0,,,,,,,,,,,,,,,,,,,,
55203,1629380132938,,,250,251,237,233,,-0.04,-0.01,1.6,0,-1,0,0.04,,87,9735,63,32,92,1.066,0.0,661,4.88,13.0,0.0,1,39.3,6.41,27.9,0,0,1,1,0,,,,,,,,,,,,,,,,,,,,
55223,1629380132958,,,250,253,237,232,,-0.03,-0.0,1.48,0,-1,0,0.03,,87,9488,63,32,92,1.082,0.0,657,4.88,13.0,0.0,1,38.8,6.34,27.9,0,0,1,1,0,,,,,,,,,,,,,,,,,,,,
55243,1629380132978,-0,2,250,251,237,232,-2,-0.06,-0.03,1.46,0,-1,-0,0.06,1,87,9630,63,32,93,1.101,0.0,662,4.84,13.0,0.0,1,39.1,6.42,27.9,0,0,1,1,0,0,250,250,0,49.328209,8.565402,0.0,118.0,10,2,1.7,0,0.0,-1,0.0,0.0,0.0,0,0.04,0.9207
55263,1629380132998,,,250,253,237,232,,-0.03,0.0,1.35,0,0,-1,0.03,,87,9422,63,32,93,1.126,0.0,660,4.87,12.7,0.0,1,38.8,5.34,27.9,0,0,1,1,0,,,,,,,,,,,,,,,,,,,,
55283,1629380133010,,,250,253,237,232,,-0.03,-0.03,1.35,0,-0,1,0.04,,86,9868,63,32,92,1.149,0.0,664,4.84,13.0,0.0,1,39.5,6.41,29.9,0,0,1,1,0,,,,,,,,,,,,,,,,,,,,
55303,1629380133030,,,250,251,237,233,,-0.05,-0.01,1.51,-0,-0,-0,0.05,,86,9654,63,32,92,1.172,0.0,669,4.82,13.0,0.0,1,39.1,6.38,29.9,0,0,1,1,0,,,,,,,,,,,,,,,,,,,,
55323,1629380133050,,,250,252,237,233,,-0.02,-0.01,1.45,0,-1,0,0.03,,86,9422,63,32,93,1.196,0.0,661,4.88,13.0,0.0,1,38.8,6.38,29.9,0,0,1,1,0,,,,,,,,,,,,,,,,,,,,
55343,1629380133070,0,1,250,251,237,232,-2,-0.06,-0.04,1.42,-0,-0,-1,0.08,1,87,9725,63,32,93,1.221,0.0,664,4.81,13.0,0.0,1,39.2,6.46,29.9,0,0,1,1,0,0,250,250,0,49.328209,8.565402,0.0,118.0,10,2,1.7,0,0.0,-1,0.0,,0.0,0,0.04,0.9224
55363,1629380133096,,,250,252,237,233,,-0.03,0.03,1.31,-0,0,-0,0.04,,87,9493,63,32,92,1.259,0.0,663,4.86,13.0,0.0,1,38.8,6.33,29.9,0,0,1,1,0,,,,,,,,,,,,,,,,,,,,
55383,1629380133116,,,250,253,237,232,,-0.04,-0.03,1.22,0,0,2,0.05,,87,9625,63,32,93,1.281,0.0,658,4.83,13.0,0.0,1,39.1,6.42,28.2,0,0,1,1,0,,,,,,,,,,,,,,,,,,,,
55403,1629380133136,,,250,251,237,233,,-0.05,-0.06,1.43,-0,-0,0,0.08,,86,9431,63,32,92,1.318,0.0,662,4.88,13.0,0.0,1,38.8,6.38,28.2,0,0,1,1,0,,,,,,,,,,,,,,,,,,,,
55423,1629380133156,,,250,252,237,233,,-0.06,-0.0,1.37,-0,-0,-0,0.06,,86,9527,63,32,92,1.339,0.0,662,4.89,13.0,0.0,1,38.9,5.3,28.2,0,0,1,1,0,,,,,,,,,,,,,,,,,,,,
55443,1629380133176,1,2,249,253,237,233,-3,-0.04,0.03,1.31,0,-0,0,0.05,1,87,9412,63,32,93,1.364,0.0,653,4.83,12.7,0.0,1,38.8,5.34,28.2,0,0,1,1,0,0,250,250,0,49.328209,8.565402,0.0,118.0,10,2,1.7,0,0.0,-1,0.0,0.0,0.0,0,0.04,0.924
55463,1629380133197,,,250,252,237,232,,-0.04,0.02,1.21,-0,1,1,0.04,,86,9801,63,32,92,1.388,0.0,663,4.85,13.0,0.0,1,39.3,6.43,28.2,0,0,1,1,0,,,,,,,,,,,,,,,,,,,,
55483,1629380133217,,,250,251,237,233,,-0.02,-0.0,1.16,0,0,2,0.02,,86,9561,63,32,92,1.412,0.0,658,4.85,13.0,0.0,1,39.0,6.35,28.4,0,0,1,1,0,,,,,,,,,,,,,,,,,,,,
55503,1629380133237,,,250,251,237,232,,-0.05,-0.04,1.38,0,-0,1,0.06,,86,9370,63,32,93,1.435,0.0,660,4.76,12.8,0.0,1,38.8,5.34,28.4,0,0,1,1,0,,,,,,,,,,,,,,,,,,,,
55523,1629380133257,,,250,251,237,233,,-0.03,0.02,1.42,0,-1,-0,0.04,,86,9630,63,32,93,1.447,0.0,662,4.86,13.0,0.0,1,39.1,6.39,28.4,0,0,1,1,0,,,,,,,,,,,,,,,,,,,,
55543,1629380133277,0,3,249,252,237,233,-4,-0.04,0.03,1.31,0,-0,0,0.05,1,86,9431,63,32,93,1.456,0.0,662,4.82,12.8,0.0,1,38.8,6.33,28.4,0,0,1,1,0,0,250,250,0,49.328209,8.565402,0.0,118.0,10,2,1.7,0,0.0,-1,0.0,,0.0,0,0.04,0.9257
55563,1629380133297,,,250,251,237,233,,-0.03,0.01,1.21,-0,1,0,0.03,,86,9730,63,32,92,1.463,0.0,665,4.82,13.0,0.0,1,39.3,6.41,28.4,0,0,1,1,0,,,,,,,,,,,,,,,,,,,,
55583,1629380133317,,,250,251,237,232,,-0.03,0.01,1.11,0,1,2,0.03,,86,9493,63,32,92,1.473,0.0,658,4.85,13.0,0.0,1,38.8,6.33,28.1,0,0,1,1,0,,,,,,,,,,,,,,,,,,,,
55603,1629380133337,,,250,251,237,233,,-0.06,-0.08,1.34,0,1,2,0.1,,87,9725,63,32,93,1.479,0.0,656,4.82,13.0,0.0,1,39.2,6.46,28.1,0,0,1,1,0,,,,,,,,,,,,,,,,,,,,
55623,1629380133357,,,249,253,237,233,,-0.04,0.0,1.37,0,-1,1,0.04,,86,9720,63,32,91,1.483,0.0,663,4.86,13.0,0.0,1,39.3,6.36,28.1,0,0,1,1,0,,,,,,,,,,,,,,,,,,,,
55643,1629380133377,0,3,249,251,237,232,-2,-0.04,0.01,1.29,0,-0,0,0.04,1,86,9527,63,32,93,1.487,0.0,663,4.83,13.0,0.0,1,38.9,6.39,28.1,0,0,1,1,0,0,250,250,0,49.328209,8.565402,0.0,118.0,10,2,1.7,0,0.0,-1,0.0,0.0,0.0,0,0.04,0.9274
55663,1629380133395,,,250,253,237,233,,-0.04,0.01,1.19,0,0,0,0.04,,86,9585,63,32,92,1.491,0.0,655,4.82,13.0,0.0,1,39.0,5.32,28.1,0,0,1,1,0,,,,,,,,,,,,,,,,,,,,
55683,1629380133415,,,250,252,237,232,,-0.02,-0.0,1.1,0,0,2,0.02,,86,9595,63,32,92,1.49,0.0,657,4.82,13.0,0.0,1,39.0,6.36,28.6,0,0,1,1,0,,,,,,,,,,,,,,,,,,,,
55703,1629380133435,,,250,251,237,232,,-0.06,-0.05,1.32,0,-1,1,0.08,,86,9403,63,32,93,1.489,0.0,660,4.76,12.8,0.0,1,38.8,6.38,28.6,0,0,1,1,0,,,,,,,,,,,,,,,,,,,,
55723,1629380133455,,,250,252,237,232,,-0.03,0.03,1.36,0,-1,0,0.04,,86,9827,63,32,92,1.485,0.0,665,4.86,13.0,0.0,1,39.4,6.45,28.6,0,0,1,1,0,,,,,,,,,,,,,,,,,,,,
55743,1629380133475,0,1,250,251,237,233,-3,-0.04,0.05,1.25,0,-1,-1,0.06,1,86,9620,63,32,92,1.484,0.0,661,4.86,13.0,0.0,1,39.1,5.33,28.6,0,0,1,1,0,0,250,250,0,49.328209,8.565402,0.0,118.0,10,2,1.7,0,0.0,-1,0.0,,0.0,0,0.04,0.929
55763,1629380133497,,,250,252,237,233,,-0.02,0.09,1.16,0,1,-0,0.09,,86,9484,63,32,93,1.486,0.0,658,4.86,13.0,0.0,1,38.8,6.38,28.6,0,0,1,1,0,,,,,,,,,,,,,,,,,,,,
55783,1629380133517,,,250,251,237,232,,-0.06,0.04,1.37,0,0,1,0.07,,86,9704,63,32,92,1.487,0.0,666,4.83,13.0,0.0,1,39.2,6.4,29.1,0,0,1,1,0,,,,,,,,,,,,,,,,,,,,
55803,1629380133537,,,250,251,237,233,,-0.05,0.09,1.35,0,-0,-1,0.1,,86,9493,63,32,92,1.488,0.0,663,4.89,13.0,0.0,1,38.8,6.38,29.1,0,0,1,1,0,,,,,,,,,,,,,,,,,,,,
55823,1629380133557,,,249,252,237,232,,-0.04,-0.01,1.37,0,-1,-1,0.04,,87,9684,63,32,92,1.489,0.0,650,4.9,12.8,0.0,1,39.2,6.39,29.1,0,0,1,1,0,,,,,,,,,,,,,,,,,,,,
55843,1629380133577,0,1,250,251,237,233,-3,-0.05,-0.02,1.27,0,0,-2,0.05,1,86,9730,63,32,92,1.488,0.0,662,4.87,13.0,0.0,1,39.3,6.41,29.1,0,0,1,1,0,0,250,250,0,49.328209,8.565402,0.0,118.0,10,2,1.7,0,0.0,-1,0.0,0.0,0.0,0,0.04,0.9307
55863,1629380133597,,,250,253,237,233,,-0.02,0.04,1.17,-0,1,-1,0.04,,86,9493,63,32,92,1.488,0.0,658,4.85,13.0,0.0,1,38.8,6.33,29.1,0,0,1,1,0,,,,,,,,,,,,,,,,,,,,
55883,1629380133617,,,249,252,237,233,,-0.06,-0.02,1.37,0,1,1,0.06,,86,9635,63,32,92,1.488,0.0,653,4.85,13.0,0.0,1,39.1,6.38,28.0,0,0,1,1,0,,,,,,,,,,,,,,,,,,,,
55903,1629380133637,,,250,250,237,233,,-0.04,0.02,1.43,0,0,0,0.05,,86,9431,63,32,92,1.487,0.0,660,4.77,12.9,0.0,1,38.8,6.33,28.0,0,0,1,1,0,,,,,,,,,,,,,,,,,,,,
55923,1629380133657,,,250,252,237,232,,-0.03,-0.02,1.37,0,0,-1,0.04,,86,9561,63,32,92,1.488,0.0,662,4.87,13.0,0.0,1,38.9,5.3,28.0,0,0,1,1,0,,,,,,,,,,,,,,,,,,,,
55943,1629380133677,-1,2,250,251,237,233,-3,-0.05,-0.01,1.33,0,-0,1,0.05,1,86,9412,63,32,93,1.49,0.0,655,4.78,12.8,0.0,1,38.8,6.38,28.0,0,0,1,1,0,0,250,250,0,49.328209,8.565402,0.0,118.0,10,2,1.7,0,0.0,-1,0.0,,0.0,0,0.04,0.9324
55963,1629380133695,,,250,252,237,233,,-0.03,0.07,1.23,0,1,0,0.08,,86,9796,62,31,92,1.494,0.0,666,4.84,13.0,0.0,1,39.4,5.4,28.0,0,0,1,1,0,,,,,,,,,,,,,,,,,,,,
55983,1629380133715,,,249,252,237,233,,-0.04,0.02,1.39,0,-0,2,0.04,,86,9561,57,31,92,1.496,0.0,660,4.82,13.0,0.0,1,39.0,6.35,28.4,0,0,1,1,0,,,,,,,,,,,,,,,,,,,,
56003,1629380133735,,,249,251,237,233,,-0.06,0.02,1.57,0,-0,1,0.07,,86,9365,48,31,92,1.496,0.0,662,4.85,12.8,0.0,1,38.8,5.29,28.4,0,0,1,1,0,,,,,,,,,,,,,,,,,,,,
56023,1629380133755,,,250,253,237,233,,-0.02,0.02,1.51,0,-1,0,0.03,,86,9827,37,31,90,1.496,0.0,666,4.87,13.0,0.0,1,39.4,5.3,28.4,0,0,1,1,0,,,,,,,,,,,,,,,,,,,,
56043,1629380133775,0,2,250,252,237,233,-3,-0.07,0.01,1.39,0,-0,-0,0.07,1,86,9580,23,31,85,1.496,0.0,666,4.85,13.0,0.0,1,38.9,5.42,28.4,0,0,1,1,0,0,250,250,0,49.328209,8.565402,0.0,118.0,10,2,1.7,0,0.0,-1,0.0,0.0,0.0,0,0.04,0.934
56063,1629380133797,,,250,251,237,233,,-0.02,0.06,1.29,0,-0,-1,0.07,,86,9375,13,31,77,1.496,0.0,655,4.86,12.8,0.0,1,41.2,4.58,28.4,0,0,1,1,0,,,,,,,,,,,,,,,,,,,,
56083,1629380133817,,,250,253,236,233,,-0.05,0.0,1.34,0,0,1,0.05,,86,9689,5,31,69,1.494,0.0,661,4.81,13.1,0.0,1,40.9,3.95,19.0,0,0,1,1,0,,,,,,,,,,,,,,,,,,,,
56103,1629380133837,,,250,252,237,232,,-0.05,-0.01,1.51,0,-0,1,0.05,,86,9469,5,31,62,1.491,0.0,662,4.88,13.1,0.0,1,41.2,2.34,19.0,0,0,1,1,0,,,,,,,,,,,,,,,,,,,,
56123,1629380133857,,,250,253,237,232,,-0.05,0.03,1.43,0,-1,-2,0.06,,86,9484,4,31,56,1.487,0.0,656,4.91,13.1,0.0,1,40.3,3.47,19.0,0,0,1,1,0,,,,,,,,,,,,,,,,,,,,
56143,1629380133877,0,2,250,253,237,232,-3,-0.03,0.07,1.37,0,-1,-1,0.08,1,86,9393,4,31,51,1.484,0.0,655,4.9,12.8,0.0,1,39.0,3.24,19.0,0,0,1,1,0,0,250,250,0,49.328209,8.565402,0.0,118.0,10,2,1.7,0,0.0,-1,0.0,,0.0,0,0.04,0.9357
56163,1629380133897,,,250,251,237,233,,-0.04,-0.0,1.43,0,-1,1,0.04,,86,9319,4,31,47,1.478,0.0,655,4.88,12.9,0.0,1,37.6,1.89,19.0,0,0,1,1,0,,,,,,,,,,,,,,,,,,,,
56183,1629380133917,,,250,251,237,233,,-0.05,0.01,1.46,0,-1,1,0.05,,86,9227,4,31,44,1.473,0.0,655,4.8,12.9,0.0,1,35.3,1.78,12.3,0,0,1,1,0,,,,,,,,,,,,,,,,,,,,
56203,1629380133937,,,250,253,237,233,,-0.06,-0.03,1.39,0,-1,-2,0.07,,86,9101,4,31,41,1.469,0.0,655,4.79,12.9,0.0,1,33.3,1.68,12.3,0,0,1,1,0,,,,,,,,,,,,,,,,,,,,
56223,1629380133957,,,250,252,237,232,,-0.1,-0.04,1.46,-0,-2,-5,0.11,,86,8869,4,31,40,1.464,0.0,651,4.82,12.9,0.0,1,32.6,2.75,12.3,0,0,1,1,0,,,,,,,,,,,,,,,,,,,,
56243,1629380133977,0,0,250,253,237,233,-3,-0.1,-0.07,1.6,-0,-2,-6,0.13,1,86,8640,4,31,39,1.442,0.0,645,4.89,13.0,0.0,1,32.0,2.73,12.3,0,0,1,1,0,0,250,250,0,49.328209,8.565402,0.0,118.0,10,2,1.7,0,0.0,-1,0.0,0.0,0.0,0,0.04,0.9374
56263,1629380133997,,,250,253,237,233,,-0.1,-0.01,1.48,0,-1,-2,0.1,,86,8404,4,31,38,1.423,0.0,642,4.8,12.8,0.0,1,31.5,2.6,12.3,0,0,1,1,0,,,,,,,,,,,,,,,,,,,,
56283,1629380134009,,,250,253,237,233,,-0.1,-0.01,1.67,0,-2,-4,0.1,,86,8205,4,31,37,1.397,0.0,641,4.84,12.9,0.0,1,30.8,1.26,9.1,0,0,1,1,0,,,,,,,,,,,,,,,,,,,,
56303,1629380134029,,,250,253,237,233,,-0.1,0.02,1.54,0,-1,-2,0.1,,86,7955,4,31,37,1.364,0.0,631,4.93,12.8,0.0,1,30.4,2.18,9.1,0,0,1,1,0,,,,,,,,,,,,,,,,,,,,
56323,1629380134049,,,250,253,237,232,,-0.11,0.08,1.42,0,1,0,0.14,,86,7738,5,31,37,1.344,0.0,633,4.8,12.8,0.0,1,30.4,2.18,9.1,0,0,1,1,0,,,,,,,,,,,,,,,,,,,,
56343,1629380134069,0,2,250,253,237,232,-3,-0.12,0.1,1.31,0,3,3,0.16,1,86,7530,5,31,37,1.312,0.0,625,4.81,12.9,0.0,1,30.4,2.18,9.1,0,0,1,1,0,0,250,250,0,49.328209,8.565402,0.0,118.0,10,2,1.7,0,0.0,-1,0.0,,0.0,0,0.04,0.939
56363,1629380134099,,,249,251,237,233,,-0.14,0.09,1.21,0,3,3,0.17,,86,7309,5,31,38,1.29,0.0,611,4.91,12.8,0.0,1,30.7,2.23,9.1,0,0,1,1,0,,,,,,,,,,,,,,,,,,,,
56383,1629380134119,,,249,251,237,233,,-0.14,0.1,1.12,0,2,2,0.17,,86,7134,5,31,38,1.265,0.0,602,4.95,12.9,0.0,1,30.7,1.11,7.4,0,0,1,1,0,,,,,,,,,,,,,,,,,,,,
56403,1629380134139,,,250,253,237,232,,-0.09,0.07,1.34,0,1,0,0.11,,86,6939,5,31,38,1.239,0.0,585,4.91,13.0,0.0,1,30.6,2.23,7.4,0,0,1,1,0,,,,,,,,,,,,,,,,,,,,
56423,1629380134159,,,250,253,237,233,,-0.15,0.1,1.24,0,3,3,0.18,,86,6820,5,31,38,1.228,0.0,572,4.86,12.8,0.0,1,30.4,2.23,7.4,0,0,1,1,0,,,,,,,,,,,,,,,,,,,,
56443,1629380134179,-1,2,250,252,237,233,-2,-0.09,0.08,1.45,0,1,0,0.12,1,86,6718,5,30,38,1.211,0.0,571,4.92,13.0,0.0,1,30.3,2.23,7.4,0,0,1,1,0,0,250,250,0,49.328209,8.565402,0.0,118.0,10,2,1.7,0,0.0,-1,0.0,0.0,0.0,0,0.04,0.9407
56463,1629380134198,,,250,253,237,233,,-0.17,0.05,1.34,-0,2,2,0.18,,86,6609,5,30,38,1.199,0.0,567,4.89,12.8,0.0,1,30.2,2.23,7.4,0,0,1,1,0,,,,,,,,,,,,,,,,,,,,
56483,1629380134218,,,249,253,237,233,,-0.11,0.07,1.54,0,3,2,0.13,,86,6572,5,30,38,1.186,0.0,565,4.81,13.0,0.0,1,30.1,2.23,6.8,0,0,1,1,0,,,,,,,,,,,,,,,,,,,,
56503,1629380134238,,,250,253,237,233,,-0.06,0.05,1.7,0,-1,-2,0.08,,86,6463,5,30,39,1.196,0.0,553,4.9,13.0,0.0,1,30.3,2.29,6.8,0,0,1,1,0,,,,,,,,,,,,,,,,,,,,
56523,1629380134258,,,250,253,236,233,,-0.13,0.02,1.57,-0,-0,-1,0.13,,86,6328,5,30,39,1.208,0.0,546,4.82,12.7,0.0,1,30.1,2.29,6.8,0,0,1,1,0,,,,,,,,,,,,,,,,,,,,
56543,1629380134278,-0,2,250,253,237,233,-3,-0.2,0.05,1.44,0,4,3,0.21,1,86,6188,5,30,39,1.22,0.0,536,4.77,12.9,0.0,1,30.0,2.29,6.8,0,0,1,1,0,0,250,250,0,49.328209,8.565402,0.0,118.0,10,2,1.7,0,0.0,-1,0.0,,0.0,0,0.04,0.9424
56563,1629380134296,,,250,253,237,232,,-0.23,0.06,1.33,0,8,8,0.24,,86,6032,5,30,40,1.229,0.0,524,4.81,13.0,0.0,1,29.9,2.29,6.8,0,0,1,1,0,,,,,,,,,,,,,,,,,,,,
56583,1629380134316,,,250,253,237,233,,-0.28,0.05,1.23,0,13,12,0.28,,86,5881,5,30,41,1.233,0.0,513,4.81,12.8,0.0,1,29.8,2.34,6.3,0,0,1,1,0,,,,,,,,,,,,,,,,,,,,
56603,1629380134336,,,250,252,237,233,,-0.34,0.01,1.14,0,15,14,0.34,,86,5716,5,30,42,1.239,0.0,501,4.81,12.8,0.0,1,29.7,2.41,6.3,0,0,1,1,0,,,,,,,,,,,,,,,,,,,,
56623,1629380134356,,,250,251,237,232,,-0.25,-0.05,1.05,-0,11,11,0.26,,86,5595,5,30,43,1.242,0.0,484,4.92,12.9,0.0,1,29.6,1.35,6.3,0,0,1,1,0,,,,,,,,,,,,,,,,,,,,
56643,1629380134376,0,3,250,253,237,232,-2,-0.18,0.02,1.27,-0,6,6,0.18,1,86,5439,5,30,44,1.248,0.0,473,4.94,13.1,0.0,1,29.5,2.54,6.3,0,0,1,1,0,0,250,250,0,49.328209,8.565402,0.0,118.0,10,2,2.0,0,0.0,-1,0.0,0.0,0.0,0,0.04,0.944
56663,1629380134396,,,250,253,237,233,,-0.27,-0.01,1.18,-0,11,13,0.27,,86,5323,5,30,45,1.237,0.0,461,4.82,12.7,0.0,1,29.6,2.61,6.3,0,0,1,1,0,,,,,,,,,,,,,,,,,,,,
56683,1629380134416,,,250,252,237,233,,-0.17,0.0,1.39,-1,4,5,0.17,,86,5221,5,30,46,1.224,0.0,453,4.93,13.1,0.0,1,29.6,2.67,6.4,0,0,1,1,0,,,,,,,,,,,,,,,,,,,,
56703,1629380134436,,,249,253,236,232,,-0.21,-0.01,1.29,-0,9,10,0.21,,86,5057,5,30,47,1.212,0.0,432,4.82,12.8,0.0,1,29.6,1.66,6.4,0,0,1,1,0,,,,,,,,,,,,,,,,,,,,
56723,1629380134456,,,250,253,237,232,,-0.21,0.03,1.49,-0,5,7,0.21,,86,4936,4,30,48,1.201,0.0,430,4.9,13.0,0.0,1,29.1,2.76,6.4,0,0,1,1,0,,,,,,,,,,,,,,,,,,,,
56743,1629380134476,0,2,249,252,237,233,-3,-0.17,0.02,1.38,-0,4,5,0.17,1,86,4844,4,30,49,1.181,0.0,423,4.87,13.1,0.0,1,28.3,2.72,6.4,0,0,1,1,0,0,250,250,0,49.328209,8.565402,0.0,118.0,10,2,2.0,0,0.0,-1,0.0,,0.0,0,0.04,0.9457
56763,1629380134496,,,249,251,237,233,,-0.11,-0.02,1.27,-0,4,5,0.11,,86,4763,4,30,50,1.167,0.0,411,4.87,13.1,0.0,1,27.6,1.58,6.4,0,0,1,1,0,,,,,,,,,,,,,,,,,,,,
56783,1629380134516,,,249,253,237,233,,-0.09,-0.02,1.17,-0,4,5,0.09,,86,4658,4,30,51,1.144,0.0,405,4.86,13.0,0.0,1,26.6,2.63,5.6,0,0,1,1,0,,,,,,,,,,,,,,,,,,,,
56803,1629380134536,,,250,253,237,232,,-0.1,-0.03,1.08,-0,4,6,0.1,,86,4613,4,30,52,1.128,0.0,393,4.85,13.1,0.0,1,26.3,1.5,5.6,0,0,1,1,0,,,,,,,,,,,,,,,,,,,,
56823,1629380134556,,,250,253,237,233,,-0.11,-0.06,1.0,-0,5,6,0.12,,86,4516,4,30,53,1.119,0.0,389,4.85,13.0,0.0,1,25.4,1.44,5.6,0,0,1,1,0,,,,,,,,,,,,,,,,,,,,
56843,1629380134576,0,1,250,251,237,233,-3,-0.11,-0.08,0.92,-0,6,6,0.14,1,86,4436,4,30,54,1.116,0.0,376,4.86,13.1,0.0,1,24.7,2.51,5.6,0,0,1,1,0,0,250,250,0,49.328209,8.565402,0.0,118.0,10,2,2.0,0,0.0,-1,0.0,0.0,0.0,0,0.04,0.9474
56863,1629380134598,,,250,251,237,233,,-0.11,-0.11,0.85,-0,7,6,0.16,,86,4454,4,30,54,1.116,0.0,375,4.92,13.0,0.0,1,24.9,1.4,5.6,0,0,1,1,0,,,,,,,,,,,,,,,,,,,,
56883,1629380134618,,,250,252,237,233,,-0.1,-0.13,0.79,-0,7,6,0.16,,86,4423,4,30,55,1.114,0.0,373,4.88,13.1,0.0,1,24.7,2.51,5.1,0,0,1,1,0,,,,,,,,,,,,,,,,,,,,
56903,1629380134638,,,249,253,237,233,,-0.09,-0.16,0.73,-0,7,6,0.18,,86,4403,4,30,56,1.118,0.0,362,4.87,13.1,0.0,1,24.8,2.51,5.1,0,0,1,1,0,,,,,,,,,,,,,,,,,,,,
56923,1629380134658,,,249,253,237,233,,-0.05,-0.19,0.67,-0,6,5,0.2,,86,4439,4,30,57,1.127,0.0,364,4.86,13.1,0.0,1,25.5,2.53,5.1,0,0,1,1,0,,,,,,,,,,,,,,,,,,,,
56943,1629380134678,-1,2,250,252,237,233,-3,-0.02,-0.18,0.62,-0,5,4,0.18,1,86,4432,4,30,57,1.135,0.0,366,4.86,13.1,0.0,1,25.4,2.54,5.1,0,0,1,1,0,0,250,250,0,49.328209,8.565402,0.0,118.0,10,2,2.0,0,0.0,-1,0.0,,0.0,0,0.04,0.949
56963,1629380134698,,,250,253,237,233,,0.0,-0.18,0.58,-0,4,2,0.18,,86,4448,4,30,57,1.142,0.0,367,4.87,13.1,0.0,1,25.6,2.55,5.1,0,0,1,1,0,,,,,,,,,,,,,,,,,,,,
56983,1629380134718,,,250,252,237,233,,0.03,-0.17,0.59,-0,3,1,0.17,,86,4496,4,30,58,1.144,0.0,368,4.88,13.1,0.0,1,26.5,2.59,5.3,0,0,1,1,0,,,,,,,,,,,,,,,,,,,,
57003,1629380134738,,,250,253,237,232,,0.06,-0.16,0.59,-0,2,0,0.17,,86,4483,4,30,58,1.145,0.0,367,4.92,13.1,0.0,1,26.3,2.58,5.3,0,0,1,1,0,,,,,,,,,,,,,,,,,,,,
57023,1629380134758,,,250,253,237,233,,0.1,-0.15,0.58,-0,0,-1,0.18,,86,4524,4,30,59,1.147,0.0,376,4.87,13.1,0.0,1,27.1,2.62,5.3,0,0,1,1,0,,,,,,,,,,,,,,,,,,,,
57043,1629380134778,0,1,250,253,237,233,-3,0.12,-0.14,0.54,-0,-0,-1,0.19,1,86,4539,4,30,59,1.148,0.0,374,4.88,13.1,0.0,1,27.3,2.62,5.3,0,0,1,1,0,0,250,250,0,49.328209,8.565402,0.0,118.0,10,2,2.0,0,0.0,-1,0.0,0.0,0.0,0,0.04,0.9507
57063,1629380134798,,,250,253,237,232,,0.14,-0.14,0.5,-0,-1,-2,0.2,,86,4568,4,30,59,1.144,0.0,377,4.95,13.1,0.0,1,27.7,2.63,5.3,0,0,1,1,0,,,,,,,,,,,,,,,,,,,,
57083,1629380134818,,,250,253,237,232,,0.17,-0.17,0.46,-0,-1,-2,0.24,,86,4603,4,30,60,1.127,0.0,376,4.86,13.1,0.0,1,28.4,2.65,5.6,0,0,1,1,0,,,,,,,,,,,,,,,,,,,,
57103,1629380134838,,,250,253,237,232,,0.16,-0.18,0.43,-0,0,-1,0.24,,86,4649,4,30,60,1.118,0.0,381,4.88,13.1,0.0,1,29.1,1.56,5.6,0,0,1,1,0,,,,,,,,,,,,,,,,,,,,
57123,1629380134858,,,250,253,237,233,,0.12,-0.18,0.39,-0,1,1,0.22,,86,4666,4,30,60,1.105,0.0,385,4.87,12.9,0.0,1,29.3,1.52,5.6,0,0,1,1,0,,,,,,,,,,,,,,,,,,,,
57143,1629380134878,0,3,249,253,237,233,-4,0.06,-0.15,0.48,-0,2,2,0.16,1,86,4769,4,30,60,1.091,0.0,384,4.85,12.9,0.0,1,30.6,2.73,5.6,0,0,1,1,0,0,250,250,0,49.328209,8.565402,0.0,118.0,10,2,1.7,0,0.0,-1,0.0,,0.0,0,0.04,0.9524
57163,1629380134896,,,250,252,237,233,,-0.0,-0.11,0.75,-0,2,1,0.11,,86,4761,4,30,60,1.069,0.0,394,4.88,13.0,0.0,1,30.5,2.73,5.6,0,0,1,1,0,,,,,,,,,,,,,,,,,,,,
57183,1629380134916,,,250,253,237,233,,0.02,-0.1,0.96,-0,1,-1,0.1,,86,4795,4,30,60,1.055,0.0,398,4.9,13.1,0.0,1,31.0,2.74,6.0,0,0,1,1,0,,,,,,,,,,,,,,,,,,,,
57203,1629380134936,,,250,250,237,232,,0.08,-0.11,0.88,-0,0,-1,0.14,,86,4838,4,30,61,1.033,0.0,400,4.88,13.1,0.0,1,31.8,2.76,6.0,0,0,1,1,0,,,,,,,,,,,,,,,,,,,,
57223,1629380134956,,,250,253,237,233,,0.08,-0.11,0.82,0,2,1,0.14,,86,4825,4,30,61,1.017,0.0,401,4.81,12.9,0.0,1,31.7,2.74,6.0,0,0,1,1,0,,,,,,,,,,,,,,,,,,,,
57243,1629380134976,0,2,250,253,237,232,-3,0.02,-0.08,1.06,0,2,1,0.08,1,86,4851,4,30,61,1.009,0.0,402,4.83,12.8,0.0,1,32.0,2.75,6.0,0,0,1,1,0,0,250,250,0,49.328205,8.565404,1.55,114.5,10,2,1.7,0,0.0,-1,0.0,0.0,0.0,0,0.04,0.954
57263,1629380134996,,,250,252,237,233,,-0.02,-0.05,1.29,-0,0,-1,0.05,,86,4867,4,30,61,1.001,0.0,404,4.93,13.1,0.0,1,32.2,2.76,6.0,0,0,1,1,0,,,,,,,,,,,,,,,,,,,,
57283,1629380135008,,,250,253,237,233,,0.04,-0.08,1.19,-0,-0,-1,0.09,,86,4893,4,30,61,0.995,0.0,410,4.88,13.1,0.0,1,32.5,2.77,6.2,0,0,1,1,0,,,,,,,,,,,,,,,,,,,,
57303,1629380135028,,,249,253,237,233,,0.03,-0.09,1.1,0,1,2,0.09,,86,4917,4,30,62,0.987,0.0,409,4.86,13.1,0.0,1,33.2,2.82,6.2,0,0,1,1,0,,,,,,,,,,,,,,,,,,,,
57323,1629380135048,,,250,253,237,232,,-0.03,-0.07,1.32,0,1,1,0.07,,86,4951,4,30,62,0.985,0.0,408,4.76,13.0,0.0,1,33.6,2.84,6.2,0,0,1,1,0,,,,,,,,,,,,,,,,,,,,
57343,1629380135068,0,0,250,253,237,232,-2,-0.0,-0.05,1.52,-0,-1,-2,0.05,1,86,4949,4,30,62,0.982,0.0,411,4.92,13.1,0.0,1,33.6,2.84,6.2,0,0,1,1,0,0,250,250,0,49.328205,8.565403,4.18,114.3,10,2,1.7,0,0.0,-1,0.0,,0.0,0,0.04,0.9557
57363,1629380135096,,,249,251,237,233,,0.02,-0.1,1.41,0,0,0,0.1,,86,4964,4,30,62,0.981,0.0,411,4.88,13.0,0.0,1,33.8,1.73,6.2,0,0,1,1,0,,,,,,,,,,,,,,,,,,,,
57383,1629380135116,,,249,253,237,233,,-0.04,-0.07,1.61,0,2,1,0.08,,86,4993,4,30,62,0.979,0.0,414,4.82,12.9,0.0,1,34.2,2.85,6.6,0,0,1,1,0,,,,,,,,,,,,,,,,,,,,
57403,1629380135136,,,250,253,237,232,,-0.01,-0.04,1.79,0,-2,-2,0.04,,86,5025,4,30,62,0.98,0.0,420,4.92,13.1,0.0,1,34.3,2.85,6.6,0,0,1,1,0,,,,,,,,,,,,,,,,,,,,
57423,1629380135156,,,250,251,237,233,,-0.0,-0.09,1.65,0,1,1,0.09,,86,5040,4,30,62,0.981,0.0,420,4.87,13.1,0.0,1,34.3,1.73,6.6,0,0,1,1,0,,,,,,,,,,,,,,,,,,,,
57443,1629380135176,1,2,250,252,237,233,-2,-0.07,-0.06,1.83,0,1,0,0.09,1,86,5079,4,30,62,0.983,0.0,420,4.81,12.8,0.0,1,34.3,1.71,6.6,0,0,1,1,0,0,250,250,0,49.328205,8.565402,3.36,114.6,10,2,1.7,0,0.0,-1,0.0,0.0,0.0,0,0.04,0.9574
57463,1629380135195,,,250,253,237,233,,0.01,-0.08,1.69,0,-1,-2,0.08,,86,5149,4,30,62,0.983,0.0,427,4.86,13.1,0.0,1,34.3,1.67,6.6,0,0,1,1,0,,,,,,,,,,,,,,,,,,,,
57483,1629380135215,,,250,253,237,233,,-0.07,-0.03,1.56,0,3,2,0.07,,86,5222,4,30,62,0.985,0.0,428,4.77,12.8,0.0,1,34.3,2.74,6.6,0,0,1,1,0,,,,,,,,,,,,,,,,,,,,
57503,1629380135235,,,250,252,237,232,,0.02,0.0,1.75,0,-2,-2,0.02,,86,5263,4,30,62,0.985,0.0,437,4.92,13.1,0.0,1,34.3,1.62,6.6,0,0,1,1,0,,,,,,,,,,,,,,,,,,,,
57523,1629380135255,,,250,252,237,233,,-0.08,0.03,1.61,0,5,3,0.09,,86,5349,4,30,62,0.987,0.0,446,4.82,12.9,0.0,1,34.2,2.68,6.6,0,0,1,1,0,,,,,,,,,,,,,,,,,,,,
57543,1629380135275,0,0,250,251,237,232,-2,0.03,-0.01,1.49,0,1,1,0.04,1,86,5420,4,30,62,0.987,0.0,453,4.9,13.1,0.0,1,34.2,1.54,6.6,0,0,1,1,0,0,250,250,0,49.328205,8.565401,3.64,114.5,10,2,1.7,0,0.0,-1,0.0,,0.0,0,0.04,0.959
57563,1629380135295,,,250,252,237,233,,0.01,0.06,1.68,0,0,-0,0.06,,86,5468,4,30,61,0.99,0.0,457,4.85,13.0,0.0,1,34.0,2.62,6.6,0,0,1,1,0,,,,,,,,,,,,,,,,,,,,
57583,1629380135315,,,250,253,237,233,,-0.09,-0.01,1.55,0,7,7,0.09,,86,5532,4,30,61,0.993,0.0,465,4.8,12.8,0.0,1,34.0,2.59,6.6,0,0,1,1,0,,,,,,,,,,,,,,,,,,,,
57603,1629380135335,,,250,251,237,233,,0.03,-0.05,1.74,0,-0,1,0.06,,86,5547,4,30,61,0.992,0.0,475,4.85,13.0,0.0,1,34.0,2.47,6.6,0,0,1,1,0,,,,,,,,,,,,,,,,,,,,
57623,1629380135355,,,250,253,237,232,,0.05,0.07,1.91,0,-3,-2,0.08,,86,5615,4,30,61,0.993,0.0,477,4.93,13.1,0.0,1,34.0,2.43,6.6,0,0,1,1,0,,,,,,,,,,,,,,,,,,,,
57643,1629380135375,0,1,250,253,237,233,-4,-0.06,0.07,1.77,1,3,3,0.09,1,86,5680,4,30,60,0.996,0.0,485,4.8,13.0,0.0,1,33.7,2.4,6.6,0,0,1,1,0,0,250,250,0,49.328205,8.5654,2.19,114.3,10,2,1.7,0,0.0,-1,0.0,0.0,0.0,0,0.04,0.9607
57663,1629380135397,,,250,253,237,233,,-0.13,0.01,1.63,1,7,8,0.13,,86,5709,4,30,60,0.996,0.0,488,4.86,12.9,0.0,1,33.7,1.26,6.6,0,0,1,1,0,,,,,,,,,,,,,,,,,,,,
57683,1629380135417,,,250,253,237,233,,-0.06,-0.07,1.5,0,6,5,0.09,,86,5792,4,30,60,0.994,0.0,492,4.85,12.9,0.0,1,33.7,2.34,6.2,0,0,1,1,0,,,,,,,,,,,,,,,,,,,,
57703,1629380135437,,,250,253,237,232,,0.04,-0.05,1.7,-0,0,-1,0.06,,86,5822,4,30,59,0.993,0.0,491,4.93,13.1,0.0,1,33.5,1.2,6.2,0,0,1,1,0,,,,,,,,,,,,,,,,,,,,
57723,1629380135457,,,250,253,237,233,,0.09,0.0,1.87,-0,-7,-7,0.09,,86,5885,4,30,59,0.99,0.0,500,4.92,13.1,0.0,1,33.5,2.28,6.2,0,0,1,1,0,,,,,,,,,,,,,,,,,,,,
57743,1629380135477,-1,2,250,253,237,232,-3,0.13,0.02,2.04,-0,-11,-10,0.13,1,86,5927,4,30,58,0.989,0.0,503,4.94,13.1,0.0,1,33.3,1.14,6.2,0,0,1,1,0,0,250,250,0,49.328205,8.5654,0.0,114.4,10,2,1.7,0,0.0,-1,0.0,,0.0,0,0.04,0.9624
57763,1629380135493,,,250,253,237,233,,0.16,0.03,2.19,-0,-14,-13,0.17,,86,5992,4,30,58,0.986,0.0,510,4.93,13.1,0.0,1,33.3,2.22,6.2,0,0,1,1,0,,,,,,,,,,,,,,,,,,,,
57783,1629380135513,,,250,253,237,233,,0.2,0.04,2.33,-0,-17,-15,0.2,,86,6062,4,30,57,0.986,0.0,514,4.81,13.0,0.0,1,33.4,1.11,6.2,0,0,1,1,0,,,,,,,,,,,,,,,,,,,,
57803,1629380135533,,,249,253,237,233,,0.24,0.02,2.45,-0,-20,-18,0.24,,86,6153,4,30,57,0.984,0.0,518,4.93,13.1,0.0,1,33.7,2.24,6.2,0,0,1,1,0,,,,,,,,,,,,,,,,,,,,
57823,1629380135553,,,250,252,237,233,,0.26,0.0,2.57,-0,-21,-19,0.26,,86,6241,4,30,56,0.979,0.0,524,4.86,12.9,0.0,1,33.9,2.24,6.2,0,0,1,1,0,,,,,,,,,,,,,,,,,,,,
57843,1629380135573,0,2,250,252,237,232,-2,0.15,-0.01,2.38,-0,-17,-15,0.16,1,86,6423,4,30,54,0.977,0.0,535,4.75,12.9,0.0,1,33.9,2.25,6.2,0,0,1,1,0,0,250,250,0,49.328205,8.5654,2.49,114.5,10,2,1.7,0,0.0,-1,0.0,0.0,0.0,0,0.04,0.964
57863,1629380135597,,,249,253,237,232,,0.16,0.04,2.3,-0,-15,-13,0.16,,86,6583,4,30,53,0.976,0.0,548,4.79,13.0,0.0,1,34.2,1.13,6.2,0,0,1,1,0,,,,,,,,,,,,,,,,,,,,
57883,1629380135617,,,249,253,237,233,,0.15,0.03,2.2,-0,-15,-14,0.16,,86,6696,4,30,52,0.975,0.0,553,4.88,12.8,0.0,1,34.2,2.25,6.9,0,0,1,1,0,,,,,,,,,,,,,,,,,,,,
57903,1629380135637,,,250,253,237,233,,0.14,0.02,2.13,-0,-13,-11,0.15,,86,6853,4,30,50,0.974,0.0,561,4.81,13.0,0.0,1,34.0,2.24,6.9,0,0,1,1,0,,,,,,,,,,,,,,,,,,,,
57923,1629380135657,,,249,253,237,233,,0.1,0.05,1.97,-0,-11,-10,0.11,,86,6991,4,30,49,0.975,0.0,569,4.91,12.9,0.0,1,34.0,2.23,6.9,0,0,1,1,0,,,,,,,,,,,,,,,,,,,,
57943,1629380135677,1,0,250,253,237,233,-2,0.12,0.04,2.12,-0,-12,-11,0.12,1,86,7078,4,30,48,0.978,0.0,585,4.92,12.9,0.0,1,33.9,2.23,6.9,0,0,1,1,0,0,250,250,0,49.328205,8.565401,1.94,114.4,10,2,1.7,0,0.0,-1,0.0,,0.0,0,0.04,0.9657
57963,1629380135699,,,250,253,237,232,,0.11,0.02,2.19,-0,-12,-12,0.11,,86,7186,4,30,47,0.978,0.0,591,4.93,13.0,0.0,1,33.9,2.24,6.9,0,0,1,1,0,,,,,,,,,,,,,,,,,,,,
57983,1629380135719,,,250,253,237,233,,0.09,0.04,2.07,-0,-11,-10,0.1,,86,7259,4,30,46,0.978,0.0,595,4.96,13.0,0.0,1,33.8,1.14,7.5,0,0,1,1,0,,,,,,,,,,,,,,,,,,,,
58003,1629380135739,,,250,253,237,232,,0.04,0.03,1.91,-0,-8,-7,0.05,,86,7327,4,30,45,0.976,0.0,604,4.79,13.0,0.0,1,33.5,2.27,7.5,0,0,1,1,0,,,,,,,,,,,,,,,,,,,,
58023,1629380135759,,,250,252,237,232,,0.01,0.06,1.76,-0,-6,-6,0.06,,86,7352,4,30,45,0.975,0.0,605,4.9,12.8,0.0,1,33.6,2.27,7.5,0,0,1,1,0,,,,,,,,,,,,,,,,,,,,
58043,1629380135779,-1,1,250,252,237,233,-3,-0.01,0.1,1.63,-0,-5,-5,0.1,1,86,7402,4,30,43,0.974,0.0,613,4.82,12.8,0.0,1,32.8,2.28,7.5,0,0,1,1,0,0,250,250,0,49.328205,8.565401,0.0,114.2,10,2,1.7,0,0.0,-1,0.0,0.0,0.0,0,0.04,0.9674
58063,1629380135799,,,250,253,237,232,,-0.03,0.09,1.5,0,-4,-3,0.09,,86,7413,4,30,43,0.974,0.0,611,4.96,12.9,0.0,1,32.8,1.16,7.5,0,0,1,1,0,,,,,,,,,,,,,,,,,,,,
58083,1629380135819,,,249,253,237,233,,-0.04,0.06,1.39,0,-3,-2,0.07,,86,7443,4,30,42,0.973,0.0,616,4.88,12.8,0.0,1,32.4,2.29,7.9,0,0,1,1,0,,,,,,,,,,,,,,,,,,,,
58103,1629380135839,,,250,253,237,232,,-0.05,0.07,1.5,0,-4,-3,0.09,,86,7413,4,30,42,0.971,0.0,611,4.9,12.8,0.0,1,32.3,1.17,7.9,0,0,1,1,0,,,,,,,,,,,,,,,,,,,,
58123,1629380135859,,,249,253,237,233,,-0.06,0.05,1.48,0,-4,-4,0.07,,86,7373,4,30,41,0.971,0.0,615,4.97,13.0,0.0,1,31.8,1.17,7.9,0,0,1,1,0,,,,,,,,,,,,,,,,,,,,
58143,1629380135879,-1,2,250,252,237,232,-3,-0.05,-0.0,1.57,-0,-4,-4,0.05,1,86,7434,4,30,41,0.97,0.0,614,4.93,12.9,0.0,1,31.9,2.29,7.9,0,0,1,1,0,0,250,250,0,49.328205,8.565401,0.0,114.2,10,2,1.7,0,0.0,-1,0.0,,0.0,0,0.04,0.969
58163,1629380135897,,,250,252,237,233,,-0.02,-0.01,1.76,-0,-5,-6,0.02,,86,7381,4,30,40,0.969,0.0,613,4.93,12.9,0.0,1,31.4,2.29,7.9,0,0,1,1,0,,,,,,,,,,,,,,,,,,,,
58183,1629380135917,,,250,252,237,233,,-0.0,-0.02,1.93,-0,-6,-7,0.02,,86,7405,4,30,40,0.968,0.0,615,4.87,13.0,0.0,1,31.4,2.29,7.8,0,0,1,1,0,,,,,,,,,,,,,,,,,,,,
58203,1629380135937,,,250,252,237,233,,0.01,-0.05,1.85,-0,-5,-6,0.05,,86,7332,4,30,39,0.966,0.0,613,4.9,13.0,0.0,1,31.0,1.17,7.8,0,0,1,1,0,,,,,,,,,,,,,,,,,,,,
58223,1629380135957,,,250,253,237,232,,-0.0,-0.03,1.8,-0,-5,-6,0.03,,86,7301,4,30,39,0.965,0.0,611,4.78,12.9,0.0,1,31.0,2.29,7.8,0,0,1,1,0,,,,,,,,,,,,,,,,,,,,
58243,1629380135977,0,2,250,252,237,233,-3,0.01,0.01,1.89,-0,-4,-4,0.01,1,86,7287,4,30,39,0.963,0.0,606,4.86,13.0,0.0,1,31.0,2.29,7.8,0,0,1,1,0,0,250,250,0,49.328205,8.565401,0.0,113.9,10,2,1.7,0,0.0,-1,0.0,0.0,0.0,0,0.04,0.9707
58263,1629380135991,,,250,253,237,233,,-0.02,-0.02,1.74,-0,-2,-2,0.03,,86,7244,4,30,39,0.962,0.0,605,4.91,12.8,0.0,1,31.0,2.29,7.8,0,0,1,1,0,,,,,,,,,,,,,,,,,,,,
58283,1629380136011,,,250,250,237,233,,-0.04,-0.01,1.61,-0,-3,-3,0.04,,86,7211,4,30,39,0.959,0.0,602,4.9,12.8,0.0,1,31.0,2.29,7.6,0,0,1,1,0,,,,,,,,,,,,,,,,,,,,
58303,1629380136031,,,250,252,237,233,,-0.03,-0.01,1.71,-0,-4,-5,0.03,,86,7145,4,30,38,0.959,0.0,603,4.89,13.0,0.0,1,30.7,2.23,7.6,0,0,1,1,0,,,,,,,,,,,,,,,,,,,,
58323,1629380136051,,,250,253,237,233,,0.0,-0.03,1.88,-0,-4,-5,0.03,,86,7129,4,30,38,0.956,0.0,600,4.9,13.0,0.0,1,30.7,2.23,7.6,0,0,1,1,0,,,,,,,,,,,,,,,,,,,,
58343,1629380136071,0,1,250,252,237,232,-3,-0.02,0.02,1.76,-0,-2,-3,0.03,1,86,7088,4,30,38,0.954,0.0,598,4.85,13.0,0.0,1,30.7,1.11,7.6,0,0,1,1,0,0,250,250,0,49.328205,8.565401,0.0,113.7,10,2,1.7,0,0.0,-1,0.0,,0.0,0,0.04,0.9724
58363,1629380136099,,,250,253,237,232,,-0.07,-0.01,1.62,-0,-2,-3,0.07,,86,7059,4,30,39,0.95,0.0,597,4.9,12.8,0.0,1,31.0,2.29,7.6,0,0,1,1,0,,,,,,,,,,,,,,,,,,,,
58383,1629380136119,,,250,252,237,232,,-0.03,-0.02,1.8,-0,-4,-5,0.04,,86,7025,4,30,39,0.946,0.0,592,4.86,13.1,0.0,1,31.0,1.17,7.2,0,0,1,1,0,,,,,,,,,,,,,,,,,,,,
58403,1629380136139,,,250,253,237,232,,-0.03,-0.03,1.69,-0,-0,-2,0.04,,86,6985,4,30,39,0.941,0.0,585,4.85,13.0,0.0,1,30.9,2.29,7.2,0,0,1,1,0,,,,,,,,,,,,,,,,,,,,
58423,1629380136159,,,250,252,237,232,,-0.07,0.0,1.56,0,-2,-2,0.07,,86,6978,4,30,39,0.936,0.0,585,4.93,13.0,0.0,1,30.9,2.29,7.2,0,0,1,1,0,,,,,,,,,,,,,,,,,,,,
58443,1629380136179,0,2,250,253,237,233,-3,-0.03,-0.03,1.75,-0,-2,-3,0.04,1,86,6916,4,30,39,0.93,0.0,583,4.92,13.0,0.0,1,30.8,1.17,7.2,0,0,1,1,0,0,250,250,0,49.328205,8.565401,0.0,113.6,10,2,1.7,0,0.0,-1,0.0,0.0,0.0,0,0.04,0.974
58463,1629380136198,,,250,251,237,232,,-0.06,0.01,1.61,-0,-0,-1,0.06,,86,6880,4,30,39,0.926,0.0,577,4.79,12.9,0.0,1,30.8,2.29,7.2,0,0,1,1,0,,,,,,,,,,,,,,,,,,,,
58483,1629380136218,,,250,253,237,233,,-0.03,-0.02,1.58,-0,-3,-4,0.04,,86,6858,4,30,39,0.925,0.0,572,4.93,12.9,0.0,1,30.8,2.29,7.3,0,0,1,1,0,,,,,,,,,,,,,,,,,,,,
58503,1629380136238,,,249,253,237,233,,-0.02,-0.02,1.6,-0,0,-0,0.02,,86,6808,4,30,39,0.923,0.0,573,4.8,13.0,0.0,1,30.7,2.29,7.3,0,0,1,1,0,,,,,,,,,,,,,,,,,,,,
58523,1629380136258,,,250,253,237,233,,-0.01,-0.01,1.5,-0,-3,-4,0.01,,86,6754,4,30,39,0.922,0.0,572,4.93,13.0,0.0,1,30.7,1.17,7.3,0,0,1,1,0,,,,,,,,,,,,,,,,,,,,
58543,1629380136278,1,1,250,253,237,233,-3,-0.0,-0.02,1.52,0,0,-0,0.02,1,86,6764,4,30,39,0.921,0.0,572,4.81,12.8,0.0,1,30.7,2.29,7.3,0,0,1,1,0,0,250,250,0,49.328205,8.565401,0.0,113.6,10,2,1.7,0,0.0,-1,0.0,,0.0,0,0.04,0.9757
58563,1629380136298,,,250,253,237,233,,0.01,-0.01,1.52,0,-3,-4,0.02,,86,6701,4,30,39,0.921,0.0,570,4.93,13.1,0.0,1,30.6,2.29,7.3,0,0,1,1,0,,,,,,,,,,,,,,,,,,,,
58583,1629380136318,,,249,252,237,233,,-0.02,-0.01,1.4,0,0,-0,0.02,,86,6658,4,30,39,0.919,0.0,565,4.81,12.8,0.0,1,30.5,2.29,7.0,0,0,1,1,0,,,,,,,,,,,,,,,,,,,,
58603,1629380136338,,,249,253,237,233,,0.03,-0.03,1.6,0,-3,-3,0.05,,86,6644,4,30,39,0.919,0.0,564,4.9,13.1,0.0,1,30.5,2.29,7.0,0,0,1,1,0,,,,,,,,,,,,,,,,,,,,
58623,1629380136358,,,250,253,236,232,,-0.05,-0.03,1.48,0,-1,-1,0.05,,86,6578,4,30,39,0.918,0.0,561,4.81,12.8,0.0,1,30.4,2.29,7.0,0,0,1,1,0,,,,,,,,,,,,,,,,,,,,
58643,1629380136378,-1,2,249,253,237,233,-3,0.01,0.01,1.67,0,-0,-0,0.01,1,86,6553,4,30,39,0.919,0.0,557,4.88,13.1,0.0,1,30.4,2.29,7.0,0,0,1,1,0,0,250,250,0,49.328205,8.565401,0.0,113.5,10,2,1.7,0,0.0,-1,0.0,0.0,0.0,0,0.04,0.9774
58663,1629380136398,,,250,253,237,232,,0.01,-0.03,1.54,0,-3,-4,0.04,,86,6490,4,30,39,0.919,0.0,550,4.92,12.9,0.0,1,30.3,2.29,7.0,0,0,1,1,0,,,,,,,,,,,,,,,,,,,,
58683,1629380136418,,,250,253,237,233,,-0.08,-0.05,1.43,-0,-1,-1,0.1,,86,6412,4,30,39,0.918,0.0,545,4.9,12.9,0.0,1,30.2,2.29,6.7,0,0,1,1,0,,,,,,,,,,,,,,,,,,,,
58703,1629380136438,,,250,253,237,233,,-0.05,-0.01,1.56,0,2,2,0.05,,86,6330,4,30,39,0.92,0.0,547,4.84,13.0,0.0,1,30.1,2.29,6.7,0,0,1,1,0,,,,,,,,,,,,,,,,,,,,
58723,1629380136458,,,250,252,237,233,,0.02,-0.0,1.75,0,2,1,0.02,,86,6225,4,30,40,0.922,0.0,538,4.92,13.1,0.0,1,30.2,2.29,6.7,0,0,1,1,0,,,,,,,,,,,,,,,,,,,,
58743,1629380136478,0,2,249,253,237,233,-2,0.1,-0.02,1.92,0,-1,-2,0.1,1,86,6093,4,30,40,0.924,0.0,528,4.87,13.1,0.0,1,30.0,1.17,6.7,0,0,1,1,0,0,250,250,0,49.328205,8.565401,0.0,113.2,10,2,2.0,0,0.0,-1,0.0,,0.0,0,0.04,0.979
58763,1629380136498,,,250,253,237,232,,0.17,-0.03,2.08,-0,-4,-4,0.17,,86,5961,4,30,41,0.924,0.0,516,4.83,13.1,0.0,1,30.0,2.31,6.7,0,0,1,1,0,,,,,,,,,,,,,,,,,,,,
58783,1629380136518,,,250,252,237,233,,0.21,-0.02,2.23,-0,-3,-4,0.21,,86,5795,4,30,42,0.927,0.0,512,4.85,13.0,0.0,1,29.8,2.38,6.3,0,0,1,1,0,,,,,,,,,,,,,,,,,,,,
58803,1629380136538,,,250,253,237,232,,0.15,-0.02,2.23,0,3,2,0.15,,86,5634,4,30,43,0.928,0.0,500,4.85,13.0,0.0,1,29.7,2.46,6.3,0,0,1,1,0,,,,,,,,,,,,,,,,,,,,
58823,1629380136558,,,250,251,237,232,,0.05,-0.08,2.06,0,4,3,0.09,,86,5529,4,30,44,0.931,0.0,481,4.84,12.8,0.0,1,29.7,1.39,6.3,0,0,1,1,0,,,,,,,,,,,,,,,,,,,,
58843,1629380136578,-1,2,250,253,237,233,-3,0.16,-0.11,2.2,-0,-3,-3,0.19,1,86,5450,4,30,45,0.931,0.0,475,4.92,13.1,0.0,1,29.8,1.44,6.3,0,0,1,1,0,0,250,250,0,49.328205,8.565401,0.0,113.0,10,2,2.0,0,0.0,-1,0.0,0.0,0.0,0,0.04,0.9807
58863,1629380136598,,,250,253,237,232,,0.09,-0.02,2.34,0,4,2,0.09,,86,5314,4,30,46,0.934,0.0,460,4.88,12.9,0.0,1,29.8,1.51,6.3,0,0,1,1,0,,,,,,,,,,,,,,,,,,,,
58883,1629380136618,,,250,253,237,233,,0.13,-0.09,2.16,0,0,-1,0.16,,86,5218,4,30,48,0.937,0.0,445,4.88,13.1,0.0,1,30.1,2.7,6.5,0,0,1,1,0,,,,,,,,,,,,,,,,,,,,
58903,1629380136638,,,250,252,237,233,,0.05,-0.05,2.3,0,4,2,0.07,,86,5074,4,30,48,0.939,0.0,435,4.83,12.8,0.0,1,30.0,2.78,6.5,0,0,1,1,0,,,,,,,,,,,,,,,,,,,,
58923,1629380136658,,,250,253,237,233,,0.09,-0.01,2.43,0,1,-2,0.09,,86,4985,4,30,49,0.941,0.0,435,4.9,13.0,0.0,1,30.0,1.7,6.5,0,0,1,1,0,,,,,,,,,,,,,,,,,,,,
58943,1629380136678,1,2,249,251,237,233,-3,0.12,-0.05,2.25,0,2,-0,0.13,1,86,4942,4,30,51,0.945,0.0,420,4.86,13.1,0.0,1,30.1,1.7,6.5,0,0,1,1,0,0,250,250,0,49.328205,8.565401,0.0,113.0,10,2,2.0,0,0.0,-1,0.0,,0.0,0,0.04,0.9824
58963,1629380136698,,,250,253,237,233,,0.06,-0.05,2.15,0,2,2,0.08,,86,4854,4,30,51,0.951,0.0,413,4.85,12.8,0.0,1,29.0,1.63,6.5,0,0,1,1,0,,,,,,,,,,,,,,,,,,,,
58983,1629380136718,,,249,253,237,233,,-0.0,-0.05,2.29,0,3,2,0.05,,86,4778,4,30,52,0.955,0.0,407,4.85,12.8,0.0,1,28.4,1.61,6.0,0,0,1,1,0,,,,,,,,,,,,,,,,,,,,
59003,1629380136738,,,250,253,237,233,,-0.01,-0.03,2.42,0,2,0,0.03,,86,4709,4,30,53,0.961,0.0,398,4.9,13.1,0.0,1,27.8,2.69,6.0,0,0,1,1,0,,,,,,,,,,,,,,,,,,,,
59023,1629380136758,,,250,253,236,233,,0.01,0.01,2.44,0,1,-1,0.01,,86,4652,4,30,53,0.967,0.0,398,4.87,13.0,0.0,1,27.1,2.64,6.0,0,0,1,1,0,,,,,,,,,,,,,,,,,,,,
59043,1629380136778,1,1,250,253,237,233,-3,0.05,0.01,2.32,0,0,-1,0.05,1,86,4647,4,30,54,0.978,0.0,392,4.88,13.1,0.0,1,27.3,2.65,6.0,0,0,1,1,0,0,250,250,0,49.328205,8.565401,0.0,113.0,10,2,1.7,0,0.0,-1,0.0,0.0,0.0,0,0.04,0.984
59063,1629380136798,,,250,253,237,233,,0.09,0.0,2.14,0,-1,-2,0.09,,86,4593,4,30,55,0.992,0.0,387,4.9,13.1,0.0,1,26.9,2.62,6.0,0,0,1,1,0,,,,,,,,,,,,,,,,,,,,
59083,1629380136818,,,249,253,237,232,,0.12,-0.03,1.98,0,-2,-2,0.13,,86,4555,4,30,55,1.002,0.0,384,4.88,13.1,0.0,1,26.4,1.47,5.5,0,0,1,1,0,,,,,,,,,,,,,,,,,,,,
59103,1629380136838,,,250,252,236,232,,0.15,-0.06,1.82,0,-3,-3,0.16,,86,4520,4,30,56,1.013,0.0,382,4.91,13.1,0.0,1,26.3,2.59,5.5,0,0,1,1,0,,,,,,,,,,,,,,,,,,,,
59123,1629380136858,,,250,253,237,233,,0.17,-0.08,1.68,0,-3,-3,0.19,,86,4508,4,30,56,1.023,0.0,378,4.91,13.1,0.0,1,26.1,1.46,5.5,0,0,1,1,0,,,,,,,,,,,,,,,,,,,,
59143,1629380136878,0,1,250,252,237,233,-4,0.18,-0.1,1.55,0,-3,-3,0.2,1,86,4560,4,30,57,1.034,0.0,379,4.91,13.1,0.0,1,27.1,2.62,5.5,0,0,1,1,0,0,250,250,0,49.328205,8.565401,0.0,113.0,10,2,1.7,0,0.0,-1,0.0,,0.0,0,0.04,0.9857
59163,1629380136896,,,250,253,237,233,,0.18,-0.12,1.43,0,-3,-4,0.21,,86,4512,4,30,57,1.044,0.0,376,4.9,13.1,0.0,1,26.5,1.47,5.5,0,0,1,1,0,,,,,,,,,,,,,,,,,,,,
59183,1629380136916,,,250,253,237,232,,0.17,-0.15,1.32,0,-3,-3,0.23,,86,4628,4,30,58,1.054,0.0,382,4.85,13.1,0.0,1,28.2,2.65,5.6,0,0,1,1,0,,,,,,,,,,,,,,,,,,,,
59203,1629380136936,,,249,253,237,233,,0.14,-0.16,1.22,-0,-1,-2,0.22,,86,4613,4,30,58,1.055,0.0,380,4.85,13.0,0.0,1,28.0,1.53,5.6,0,0,1,1,0,,,,,,,,,,,,,,,,,,,,
59223,1629380136956,,,250,253,237,233,,0.09,-0.18,1.13,-0,1,-0,0.2,,86,4657,4,30,58,1.056,0.0,382,4.87,12.9,0.0,1,29.1,1.58,5.6,0,0,1,1,0,,,,,,,,,,,,,,,,,,,,
59243,1629380136976,-1,2,249,253,237,233,-2,0.01,-0.16,1.31,0,2,1,0.16,1,86,4732,4,30,58,1.056,0.0,389,4.88,12.8,0.0,1,29.5,1.6,5.6,0,0,1,1,0,0,250,250,0,49.328205,8.565401,0.0,113.0,10,2,1.7,0,0.0,-1,0.0,0.0,0.0,0,0.04,0.9874
59263,1629380136996,,,249,253,237,233,,-0.03,-0.12,1.52,-0,2,0,0.13,,86,4711,4,30,58,1.056,0.0,385,4.87,12.8,0.0,1,29.3,1.59,5.6,0,0,1,1,0,,,,,,,,,,,,,,,,,,,,
59283,1629380137010,,,250,252,237,232,,-0.0,-0.09,1.65,-0,1,-2,0.09,,86,4848,4,30,59,1.047,0.0,396,4.89,13.1,0.0,1,31.4,2.77,6.1,0,0,1,1,0,,,,,,,,,,,,,,,,,,,,
59303,1629380137030,,,250,251,237,232,,0.05,-0.12,1.52,0,1,-1,0.13,,86,4828,4,30,59,1.039,0.0,398,4.87,13.1,0.0,1,31.1,1.65,6.1,0,0,1,1,0,,,,,,,,,,,,,,,,,,,,
59323,1629380137050,,,250,253,237,232,,0.03,-0.11,1.4,0,2,1,0.11,,86,4811,4,30,59,1.029,0.0,400,4.86,12.9,0.0,1,30.9,1.64,6.1,0,0,1,1,0,,,,,,,,,,,,,,,,,,,,
59343,1629380137070,1,2,249,253,237,233,-2,-0.03,-0.11,1.6,0,2,1,0.12,1,86,4786,4,30,60,1.02,0.0,402,4.83,12.8,0.0,1,30.8,2.74,6.1,0,0,1,1,0,0,250,250,0,49.328205,8.565401,0.0,113.0,10,2,1.7,0,0.0,-1,0.0,,0.0,0,0.04,0.989
59363,1629380137098,,,250,253,237,232,,-0.06,-0.09,1.79,-0,2,-0,0.11,,86,4778,4,30,60,1.008,0.0,396,4.91,13.0,0.0,1,30.7,2.73,6.1,0,0,1,1,0,,,,,,,,,,,,,,,,,,,,
59383,1629380137118,,,250,253,237,232,,-0.02,-0.07,1.66,-0,0,-2,0.07,,86,4865,4,30,60,1.0,0.0,400,4.86,13.1,0.0,1,31.9,2.77,6.2,0,0,1,1,0,,,,,,,,,,,,,,,,,,,,
59403,1629380137138,,,250,251,237,232,,0.02,-0.1,1.54,0,1,-0,0.1,,86,4862,4,30,60,0.989,0.0,401,4.86,13.1,0.0,1,31.8,2.76,6.2,0,0,1,1,0,,,,,,,,,,,,,,,,,,,,
59423,1629380137158,,,249,253,237,233,,-0.03,-0.09,1.49,0,3,2,0.09,,86,4891,4,30,61,0.979,0.0,400,4.82,12.8,0.0,1,32.5,1.65,6.2,0,0,1,1,0,,,,,,,,,,,,,,,,,,,,
59443,1629380137178,-1,2,250,253,237,232,-3,-0.07,-0.06,1.68,0,1,0,0.09,1,86,4919,4,30,61,0.976,0.0,411,4.91,13.1,0.0,1,32.9,2.78,6.2,0,0,1,1,0,0,250,250,0,49.328205,8.565401,0.0,113.0,10,2,1.7,0,0.0,-1,0.0,0.0,0.0,0,0.04,0.9907
59463,1629380137199,,,249,253,237,233,,-0.01,-0.06,1.55,0,0,-1,0.06,,86,4919,4,30,61,0.972,0.0,410,4.9,13.2,0.0,1,32.9,2.78,6.2,0,0,1,1,0,,,,,,,,,,,,,,,,,,,,
59483,1629380137219,,,250,253,237,232,,-0.0,-0.09,1.43,0,2,1,0.09,,86,4916,4,30,61,0.97,0.0,407,4.84,13.1,0.0,1,32.8,1.66,6.3,0,0,1,1,0,,,,,,,,,,,,,,,,,,,,
59503,1629380137239,,,250,252,237,233,,-0.06,-0.07,1.63,0,2,1,0.1,,86,4947,4,30,61,0.968,0.0,406,4.84,12.8,0.0,1,33.3,2.79,6.3,0,0,1,1,0,,,,,,,,,,,,,,,,,,,,
59523,1629380137259,,,250,253,237,233,,-0.03,-0.04,1.81,0,-1,-2,0.05,,86,4998,4,30,61,0.966,0.0,412,4.91,13.0,0.0,1,33.9,2.8,6.3,0,0,1,1,0,,,,,,,,,,,,,,,,,,,,
59543,1629380137279,-0,2,250,252,237,233,-3,-0.01,-0.08,1.67,0,1,0,0.08,1,86,5010,4,30,62,0.965,0.0,415,4.87,13.1,0.0,1,34.3,2.86,6.3,0,0,1,1,0,0,250,250,0,49.328205,8.565401,0.0,113.0,10,2,1.7,0,0.0,-1,0.0,,0.0,0,0.04,0.9924
59563,1629380137295,,,250,253,237,233,,-0.08,-0.06,1.85,0,3,1,0.1,,86,5021,4,30,62,0.965,0.0,419,4.83,12.8,0.0,1,34.3,2.85,6.3,0,0,1,1,0,,,,,,,,,,,,,,,,,,,,
59583,1629380137315,,,249,253,237,233,,-0.02,-0.02,2.02,0,-1,-3,0.02,,86,5045,4,30,62,0.963,0.0,421,4.83,13.1,0.0,1,34.3,2.84,6.6,0,0,1,1,0,,,,,,,,,,,,,,,,,,,,
59603,1629380137335,,,250,251,237,232,,-0.02,-0.07,1.86,0,1,1,0.07,,86,5066,4,30,62,0.963,0.0,422,4.88,13.1,0.0,1,34.3,2.83,6.6,0,0,1,1,0,,,,,,,,,,,,,,,,,,,,
59623,1629380137355,,,250,253,237,233,,-0.07,-0.05,2.02,0,1,-0,0.09,,86,5121,4,30,62,0.963,0.0,422,4.79,13.0,0.0,1,34.3,1.69,6.6,0,0,1,1,0,,,,,,,,,,,,,,,,,,,,
59643,1629380137375,0,2,249,251,237,233,-3,-0.0,-0.1,1.87,0,-0,-2,0.1,1,86,5163,4,30,62,0.962,0.0,425,4.93,13.1,0.0,1,34.3,2.78,6.6,0,0,1,1,0,0,250,250,0,49.328205,8.565401,0.0,113.0,10,2,1.7,0,0.0,-1,0.0,0.0,0.0,0,0.04,0.994
59663,1629380137397,,,250,253,237,233,,-0.08,-0.07,1.92,0,4,2,0.11,,86,5199,4,30,62,0.962,0.0,428,4.8,12.8,0.0,1,34.3,2.76,6.6,0,0,1,1,0,,,,,,,,,,,,,,,,,,,,
59683,1629380137417,,,249,253,237,233,,0.02,-0.08,1.78,0,-1,-2,0.08,,86,5268,4,30,62,0.963,0.0,440,4.91,13.1,0.0,1,34.3,2.72,6.6,0,0,1,1,0,,,,,,,,,,,,,,,,,,,,
59703,1629380137437,,,250,253,237,233,,-0.05,-0.02,1.83,0,4,2,0.06,,86,5319,4,30,62,0.965,0.0,444,4.82,12.8,0.0,1,34.2,1.59,6.6,0,0,1,1,0,,,,,,,,,,,,,,,,,,,,
59723,1629380137457,,,250,252,236,233,,0.01,-0.09,1.69,0,3,0,0.09,,86,5380,4,30,62,0.965,0.0,444,4.9,13.1,0.0,1,34.2,1.55,6.6,0,0,1,1,0,,,,,,,,,,,,,,,,,,,,
59743,1629380137477,-1,2,250,253,237,232,-3,0.01,-0.02,1.86,-0,1,-2,0.03,1,86,5444,4,30,61,0.967,0.0,451,4.84,13.0,0.0,1,34.0,1.42,6.6,0,0,1,1,0,0,250,250,0,49.328205,8.565401,0.0,113.0,10,2,1.7,0,0.0,-1,0.0,,0.0,0,0.04,0.9957
59763,1629380137497,,,250,252,237,233,,-0.09,-0.05,1.72,0,6,5,0.1,,86,5496,4,30,62,0.969,0.0,458,4.84,12.8,0.0,1,34.2,1.47,6.6,0,0,1,1,0,,,,,,,,,,,,,,,,,,,,
59783,1629380137517,,,249,253,237,233,,0.03,-0.08,1.89,-1,2,1,0.09,,86,5517,4,30,61,0.97,0.0,461,4.87,13.0,0.0,1,34.0,2.49,6.3,0,0,1,1,0,,,,,,,,,,,,,,,,,,,,
59803,1629380137537,,,250,253,237,233,,0.03,0.01,2.06,-1,2,-1,0.03,,86,5592,4,30,61,0.974,0.0,467,4.93,13.1,0.0,1,34.0,2.45,6.3,0,0,1,1,0,,,,,,,,,,,,,,,,,,,,
59823,1629380137557,,,250,252,237,232,,-0.1,-0.02,1.9,-1,8,7,0.1,,86,5657,4,30,61,0.978,0.0,472,4.82,13.0,0.0,1,34.0,2.4,6.3,0,0,1,1,0,,,,,,,,,,,,,,,,,,,,
59843,1629380137577,-1,2,250,253,237,233,-3,-0.14,-0.05,1.75,-0,9,7,0.15,1,86,5695,4,30,61,0.978,0.0,476,4.87,13.0,0.0,1,34.0,1.22,6.3,0,0,1,1,0,0,250,250,0,49.328205,8.565401,0.0,113.0,10,2,1.7,0,0.0,-1,0.0,0.0,0.0,0,0.04,0.9974
59863,1629380137597,,,250,252,237,233,,-0.03,-0.07,1.92,0,1,2,0.08,,86,5781,4,30,60,0.98,0.0,481,4.87,12.9,0.0,1,33.7,1.22,6.3,0,0,1,1,0,,,,,,,,,,,,,,,,,,,,
59883,1629380137617,,,250,253,237,232,,0.06,-0.03,2.08,0,-7,-5,0.07,,86,5848,4,30,59,0.981,0.0,491,4.9,13.1,0.0,1,33.5,1.18,6.2,0,0,1,1,0,,,,,,,,,,,,,,,,,,,,
59903,1629380137637,,,250,253,237,233,,0.11,-0.0,2.23,0,-12,-9,0.11,,86,5892,4,30,59,0.983,0.0,505,4.91,13.1,0.0,1,33.5,2.27,6.2,0,0,1,1,0,,,,,,,,,,,,,,,,,,,,
59923,1629380137657,,,250,252,237,232,,0.14,0.01,2.37,0,-14,-11,0.14,,86,5958,4,30,58,0.986,0.0,510,4.92,13.1,0.0,1,33.3,2.24,6.2,0,0,1,1,0,,,,,,,,,,,,,,,,,,,,
59943,1629380137677,-0,2,250,253,237,233,-3,0.18,0.02,2.49,0,-16,-13,0.18,1,86,6025,4,30,58,0.984,0.0,512,4.9,13.1,0.0,1,33.5,2.21,6.2,0,0,1,1,0,0,250,250,0,49.328205,8.565401,0.0,113.0,10,2,1.7,0,0.0,-1,0.0,,0.0,0,0.04,0.999
59963,1629380137695,,,250,253,237,233,,0.22,0.0,2.61,-0,-18,-15,0.22,,86,6097,4,30,57,0.981,0.0,515,4.93,13.1,0.0,1,33.5,2.23,6.2,0,0,1,1,0,,,,,,,,,,,,,,,,,,,,
59983,1629380137715,,,250,252,237,233,,0.26,-0.03,2.71,-0,-21,-18,0.26,,86,6192,4,30,57,0.979,0.0,524,4.93,13.1,0.0,1,33.9,1.12,6.4,0,0,1,1,0,,,,,,,,,,,,,,,,,,,,
60003,1629380137735,,,250,253,237,232,,0.22,-0.05,2.51,-0,-21,-18,0.23,,86,6298,4,30,55,0.975,0.0,533,4.86,12.8,0.0,1,33.8,1.12,6.4,0,0,1,1,0,,,,,,,,,,,,,,,,,,,,
60023,1629380137755,,,250,253,237,233,,0.11,-0.04,2.31,-0,-16,-12,0.12,,86,6443,4,30,54,0.975,0.0,541,4.87,12.8,0.0,1,34.0,2.24,6.4,0,0,1,1,0,,,,,,,,,,,,,,,,,,,,
60043,1629380137775,0,2,249,253,237,233,-4,0.15,-0.0,2.44,0,-15,-12,0.15,1,86,6544,4,30,53,0.975,0.0,550,4.9,13.1,0.0,1,34.0,1.13,6.4,0,0,1,1,0,0,250,250,0,49.328205,8.565401,0.0,113.0,10,2,1.7,0,0.0,-1,0.0,0.0,0.0,0,0.04,1.0007
60063,1629380137797,,,249,253,237,233,,0.13,-0.01,2.25,-0,-15,-12,0.13,,86,6646,4,30,51,0.973,0.0,553,4.82,12.8,0.0,1,33.8,1.13,6.4,0,0,1,1,0,,,,,,,,,,,,,,,,,,,,
60083,1629380137817,,,249,253,237,233,,0.12,0.0,2.21,-0,-13,-11,0.12,,86,6768,4,30,50,0.971,0.0,561,4.82,13.0,0.0,1,33.7,2.25,7.0,0,0,1,1,0,,,,,,,,,,,,,,,,,,,,
60103,1629380137837,,,250,253,237,232,,0.09,-0.01,2.04,-0,-12,-9,0.09,,86,6921,4,30,49,0.972,0.0,569,4.92,12.9,0.0,1,33.8,2.23,7.0,0,0,1,1,0,,,,,,,,,,,,,,,,,,,,
60123,1629380137857,,,250,253,237,233,,0.12,0.0,2.19,-0,-12,-11,0.12,,86,7006,4,30,48,0.974,0.0,580,4.94,13.0,0.0,1,33.7,2.22,7.0,0,0,1,1,0,,,,,,,,,,,,,,,,,,,,
60143,1629380137877,-1,2,250,253,237,232,-2,0.09,-0.0,2.03,0,-10,-8,0.09,1,86,7062,4,30,47,0.975,0.0,585,4.84,13.1,0.0,1,33.5,2.22,7.0,0,0,1,1,0,0,250,250,0,49.328205,8.565401,0.0,113.0,10,2,1.7,0,0.0,-1,0.0,,0.0,0,0.04,1.0024
60163,1629380137897,,,250,251,237,232,,0.04,0.02,1.88,0,-7,-6,0.05,,86,7137,4,30,47,0.975,0.0,586,4.88,12.9,0.0,1,33.8,2.23,7.0,0,0,1,1,0,,,,,,,,,,,,,,,,,,,,
60183,1629380137917,,,250,253,237,232,,0.04,0.04,1.89,0,-8,-6,0.06,,86,7181,4,30,46,0.974,0.0,598,4.93,13.0,0.0,1,33.5,1.1,7.4,0,0,1,1,0,,,,,,,,,,,,,,,,,,,,
60203,1629380137937,,,250,253,237,232,,0.05,0.01,2.03,-0,-8,-7,0.05,,86,7244,4,30,45,0.972,0.0,600,4.91,12.9,0.0,1,33.3,2.26,7.4,0,0,1,1,0,,,,,,,,,,,,,,,,,,,,
60223,1629380137957,,,250,253,237,232,,0.06,0.0,2.18,-0,-9,-9,0.06,,86,7307,4,30,44,0.972,0.0,607,4.8,13.0,0.0,1,33.0,1.16,7.4,0,0,1,1,0,,,,,,,,,,,,,,,,,,,,
60243,1629380137977,-0,2,250,253,237,233,-3,0.07,-0.01,2.25,-0,-9,-8,0.07,1,86,7344,4,30,43,0.973,0.0,610,4.81,13.0,0.0,1,32.7,2.28,7.4,0,0,1,1,0,0,250,250,0,49.328205,8.565401,0.0,113.0,10,2,1.7,0,0.0,-1,0.0,0.0,0.0,0,0.04,1.0041
60263,1629380137992,,,250,252,237,233,,0.05,-0.01,2.08,0,-7,-6,0.05,,86,7347,4,30,43,0.974,0.0,613,4.83,13.1,0.0,1,32.7,2.28,7.4,0,0,1,1,0,,,,,,,,,,,,,,,,,,,,
60283,1629380138012,,,249,253,237,233,,0.04,0.04,1.93,0,-6,-5,0.05,,86,7387,4,30,42,0.972,0.0,615,4.84,12.8,0.0,1,32.3,2.29,7.8,0,0,1,1,0,,,,,,,,,,,,,,,,,,,,
60303,1629380138032,,,250,253,237,232,,0.01,0.08,1.79,0,-4,-3,0.08,,86,7405,4,30,41,0.969,0.0,613,4.75,12.8,0.0,1,31.9,1.17,7.8,0,0,1,1,0,,,,,,,,,,,,,,,,,,,,
60323,1629380138052,,,250,252,237,233,,-0.02,0.06,1.65,0,-2,-1,0.06,,86,7387,4,30,41,0.97,0.0,610,4.92,12.8,0.0,1,31.9,2.29,7.8,0,0,1,1,0,,,,,,,,,,,,,,,,,,,,
60343,1629380138072,-0,3,250,253,237,232,-3,-0.04,0.08,1.52,0,-1,-1,0.09,1,86,7378,4,30,41,0.968,0.0,616,4.86,12.8,0.0,1,31.9,2.29,7.8,0,0,1,1,0,0,250,250,0,49.328205,8.565401,0.0,113.0,10,2,1.7,0,0.0,-1,0.0,,0.0,0,0.04,1.0057
60363,1629380138099,,,250,252,237,232,,-0.06,0.1,1.41,0,-1,-0,0.12,,86,7381,4,30,40,0.967,0.0,614,4.93,12.9,0.0,1,31.4,1.17,7.8,0,0,1,1,0,,,,,,,,,,,,,,,,,,,,
60383,1629380138119,,,250,252,237,232,,-0.06,0.08,1.32,0,-1,-0,0.1,,86,7355,4,30,40,0.964,0.0,610,4.89,12.8,0.0,1,31.4,2.29,7.8,0,0,1,1,0,,,,,,,,,,,,,,,,,,,,
60403,1629380138139,,,250,252,237,233,,-0.04,0.05,1.44,-0,-2,-2,0.07,,86,7364,4,30,40,0.963,0.0,609,5.05,13.0,0.0,1,31.4,1.17,7.8,0,0,1,1,0,,,,,,,,,,,,,,,,,,,,
60423,1629380138159,,,250,253,237,233,,-0.02,0.04,1.64,-0,-4,-4,0.04,,86,7327,4,30,39,0.961,0.0,611,4.87,12.9,0.0,1,31.0,1.17,7.8,0,0,1,1,0,,,,,,,,,,,,,,,,,,,,
60443,1629380138179,0,1,250,253,237,233,-2,-0.01,-0.01,1.69,-0,-3,-4,0.01,1,86,7327,4,30,39,0.961,0.0,610,4.91,13.0,0.0,1,31.0,2.29,7.8,0,0,1,1,0,0,250,250,0,49.328205,8.565401,0.0,113.0,10,2,1.7,0,0.0,-1,0.0,0.0,0.0,0,0.04,1.0074
60463,1629380138198,,,250,253,237,233,,-0.02,-0.01,1.71,-0,-4,-4,0.03,,86,7278,4,30,39,0.962,0.0,610,4.86,13.0,0.0,1,31.0,2.29,7.8,0,0,1,1,0,,,,,,,,,,,,,,,,,,,,
60483,1629380138218,,,250,252,237,233,,-0.04,0.04,1.58,-0,-2,-2,0.05,,86,7256,4,30,39,0.961,0.0,602,4.82,12.8,0.0,1,31.0,2.29,7.7,0,0,1,1,0,,,,,,,,,,,,,,,,,,,,
60503,1629380138238,,,250,253,237,233,,-0.06,0.02,1.46,0,-0,0,0.06,,86,7186,4,30,38,0.96,0.0,602,4.81,12.8,0.0,1,30.7,2.29,7.7,0,0,1,1,0,,,,,,,,,,,,,,,,,,,,
60523,1629380138258,,,250,252,237,233,,-0.03,0.02,1.65,0,-2,-2,0.04,,86,7181,4,30,39,0.958,0.0,597,4.92,12.8,0.0,1,31.0,1.17,7.7,0,0,1,1,0,,,,,,,,,,,,,,,,,,,,
60543,1629380138278,0,0,250,252,237,233,-3,-0.0,-0.03,1.83,-0,-3,-4,0.03,1,86,7140,4,30,39,0.957,0.0,597,4.91,13.0,0.0,1,31.0,2.23,7.7,0,0,1,1,0,0,250,250,0,49.328205,8.565401,0.0,113.0,10,2,1.7,0,0.0,-1,0.0,,0.0,0,0.04,1.0091
60563,1629380138298,,,250,253,237,233,,-0.03,-0.02,1.69,0,-2,-3,0.04,,86,7099,4,30,38,0.955,0.0,592,4.78,12.9,0.0,1,30.7,2.29,7.7,0,0,1,1,0,,,,,,,,,,,,,,,,,,,,
60583,1629380138318,,,250,253,237,233,,-0.05,-0.02,1.56,0,-0,-1,0.06,,86,7083,4,30,38,0.95,0.0,587,4.81,12.9,0.0,1,30.7,2.29,7.5,0,0,1,1,0,,,,,,,,,,,,,,,,,,,,
60603,1629380138338,,,250,253,237,232,,-0.03,-0.05,1.73,0,-2,-3,0.05,,86,7030,4,30,38,0.948,0.0,588,4.89,13.0,0.0,1,30.7,2.23,7.5,0,0,1,1,0,,,,,,,,,,,,,,,,,,,,
60623,1629380138358,,,250,253,237,233,,-0.02,-0.04,1.78,0,-2,-3,0.05,,86,6993,4,30,39,0.945,0.0,586,4.88,13.1,0.0,1,30.9,2.23,7.5,0,0,1,1,0,,,,,,,,,,,,,,,,,,,,
60643,1629380138378,0,1,250,250,237,232,-3,-0.06,-0.04,1.64,0,0,0,0.08,1,86,6957,4,30,39,0.943,0.0,581,4.87,12.8,0.0,1,30.9,1.17,7.5,0,0,1,1,0,0,250,250,0,49.328205,8.565401,0.0,113.0,10,2,1.7,0,0.0,-1,0.0,0.0,0.0,0,0.04,1.0107
60663,1629380138396,,,250,252,237,233,,-0.02,-0.07,1.82,0,-2,-3,0.07,,86,6918,4,30,39,0.941,0.0,581,4.84,12.9,0.0,1,30.9,1.17,7.5,0,0,1,1,0,,,,,,,,,,,,,,,,,,,,
60683,1629380138416,,,250,252,237,233,,-0.07,-0.05,1.68,0,-0,-0,0.09,,86,6868,4,30,39,0.938,0.0,583,4.83,13.0,0.0,1,30.8,2.29,7.2,0,0,1,1,0,,,,,,,,,,,,,,,,,,,,
60703,1629380138436,,,250,253,237,233,,-0.02,-0.06,1.86,0,-2,-2,0.06,,86,6815,4,30,39,0.937,0.0,578,4.88,13.0,0.0,1,30.7,2.29,7.2,0,0,1,1,0,,,,,,,,,,,,,,,,,,,,
60723,1629380138456,,,250,251,237,233,,-0.04,-0.01,1.72,0,-1,-1,0.04,,86,6815,4,30,39,0.935,0.0,575,4.86,13.1,0.0,1,30.7,2.29,7.2,0,0,1,1,0,,,,,,,,,,,,,,,,,,,,
60743,1629380138476,-1,2,250,252,237,233,-2,-0.01,-0.04,1.7,-0,-1,-2,0.04,1,86,6732,4,30,39,0.932,0.0,567,4.85,12.8,0.0,1,30.6,1.17,7.2,0,0,1,1,0,0,250,250,0,49.328205,8.565401,0.0,113.0,10,2,1.7,0,0.0,-1,0.0,,0.0,0,0.04,1.0124
60763,1629380138496,,,249,252,237,233,,0.05,-0.01,1.88,0,-0,-1,0.05,,86,6730,4,30,39,0.932,0.0,567,4.89,13.1,0.0,1,30.6,2.29,7.2,0,0,1,1,0,,,,,,,,,,,,,,,,,,,,
60783,1629380138516,,,250,253,237,233,,0.09,0.0,2.04,0,-3,-4,0.09,,86,6694,4,30,39,0.931,0.0,562,4.92,13.0,0.0,1,30.6,2.29,7.1,0,0,1,1,0,,,,,,,,,,,,,,,,,,,,
60803,1629380138536,,,250,253,237,232,,0.11,0.0,2.19,0,1,-0,0.11,,86,6656,4,30,39,0.93,0.0,563,4.81,13.1,0.0,1,30.5,2.29,7.1,0,0,1,1,0,,,,,,,,,,,,,,,,,,,,
60823,1629380138556,,,250,252,237,233,,0.1,0.0,2.06,0,-3,-4,0.1,,86,6651,4,30,39,0.928,0.0,561,4.94,13.1,0.0,1,30.5,1.17,7.1,0,0,1,1,0,,,,,,,,,,,,,,,,,,,,
60843,1629380138576,-1,2,250,252,237,233,-3,0.05,0.0,1.9,0,1,0,0.05,1,86,6574,4,30,39,0.928,0.0,556,4.83,12.8,0.0,1,30.4,1.17,7.1,0,0,1,1,0,0,250,250,0,49.328205,8.565401,0.0,113.0,10,2,1.7,0,0.0,-1,0.0,0.0,0.0,0,0.04,1.0141
60863,1629380138598,,,250,252,237,233,,0.11,-0.0,2.07,0,-1,-2,0.11,,86,6530,4,30,39,0.93,0.0,556,4.87,13.1,0.0,1,30.4,1.17,7.1,0,0,1,1,0,,,,,,,,,,,,,,,,,,,,
60883,1629380138618,,,250,253,237,233,,0.06,-0.03,1.91,0,-4,-4,0.06,,86,6467,4,30,39,0.929,0.0,552,4.91,12.8,0.0,1,30.3,2.29,6.8,0,0,1,1,0,,,,,,,,,,,,,,,,,,,,
60903,1629380138638,,,250,253,237,232,,-0.02,-0.01,1.76,0,-0,-0,0.02,,86,6321,4,30,39,0.927,0.0,543,4.8,12.8,0.0,1,30.1,2.29,6.8,0,0,1,1,0,,,,,,,,,,,,,,,,,,,,
60923,1629380138658,,,250,252,237,233,,0.01,0.05,1.78,0,4,4,0.05,,86,6200,4,30,39,0.93,0.0,537,4.83,13.0,0.0,1,30.0,2.29,6.8,0,0,1,1,0,,,,,,,,,,,,,,,,,,,,
60943,1629380138678,1,2,249,253,237,233,-3,0.04,0.08,1.95,0,7,7,0.09,1,86,6113,4,30,40,0.931,0.0,530,4.8,12.9,0.0,1,30.0,1.17,6.8,0,0,1,1,0,0,250,250,0,49.328205,8.565401,0.0,113.0,10,2,1.7,0,0.0,-1,0.0,,0.0,0,0.04,1.0157
60963,1629380138696,,,250,253,237,233,,0.07,0.1,2.11,0,10,9,0.12,,86,5958,4,30,41,0.934,0.0,525,4.87,13.1,0.0,1,29.9,1.2,6.8,0,0,1,1,0,,,,,,,,,,,,,,,,,,,,
60983,1629380138716,,,250,252,237,232,,0.06,0.11,2.25,0,15,14,0.13,,86,5794,4,30,42,0.936,0.0,511,4.87,13.1,0.0,1,29.8,2.38,6.3,0,0,1,1,0,,,,,,,,,,,,,,,,,,,,
61003,1629380138736,,,249,252,237,233,,-0.04,0.09,2.08,1,18,18,0.1,,86,5628,4,30,43,0.937,0.0,490,4.87,12.8,0.0,1,29.7,1.34,6.3,0,0,1,1,0,,,,,,,,,,,,,,,,,,,,
61023,1629380138756,,,250,253,237,232,,-0.02,-0.0,1.92,1,9,12,0.02,,86,5532,4,30,44,0.936,0.0,475,4.87,13.0,0.0,1,29.7,1.39,6.3,0,0,1,1,0,,,,,,,,,,,,,,,,,,,,
61043,1629380138776,0,0,250,253,237,232,-2,0.05,0.05,2.08,1,5,7,0.08,1,86,5415,4,30,45,0.939,0.0,470,4.92,13.1,0.0,1,29.7,2.58,6.3,0,0,1,1,0,0,250,250,0,49.328205,8.565401,0.0,113.0,10,2,1.7,0,0.0,-1,0.0,0.0,0.0,0,0.04,1.0174
61063,1629380138799,,,250,253,237,233,,-0.04,0.06,1.92,1,10,14,0.07,,86,5358,4,30,46,0.94,0.0,455,4.86,12.8,0.0,1,29.8,1.51,6.3,0,0,1,1,0,,,,,,,,,,,,,,,,,,,,
61083,1629380138819,,,250,253,237,233,,0.04,0.05,2.08,1,4,7,0.06,,86,5203,4,30,48,0.943,0.0,448,4.94,13.1,0.0,1,30.1,2.7,6.5,0,0,1,1,0,,,,,,,,,,,,,,,,,,,,
61103,1629380138839,,,250,253,236,233,,-0.0,0.05,1.92,1,7,10,0.05,,86,5093,4,30,48,0.945,0.0,436,4.85,12.9,0.0,1,29.9,2.77,6.5,0,0,1,1,0,,,,,,,,,,,,,,,,,,,,
61123,1629380138859,,,250,253,237,232,,-0.03,0.07,2.08,1,5,8,0.08,,86,4947,4,30,49,0.948,0.0,425,4.88,13.0,0.0,1,29.5,2.79,6.5,0,0,1,1,0,,,,,,,,,,,,,,,,,,,,
61143,1629380138879,-0,2,250,253,237,232,-3,0.02,0.05,1.92,0,3,5,0.05,1,86,4903,4,30,50,0.952,0.0,420,4.9,13.1,0.0,1,29.3,2.77,6.5,0,0,1,1,0,0,250,250,0,49.328205,8.565401,0.0,113.0,10,2,1.7,0,0.0,-1,0.0,,0.0,0,0.04,1.0191
61163,1629380138898,,,250,252,237,232,,0.04,0.02,1.77,0,4,6,0.05,,86,4813,4,30,52,0.956,0.0,415,4.84,13.1,0.0,1,28.8,1.63,6.5,0,0,1,1,0,,,,,,,,,,,,,,,,,,,,
61183,1629380138918,,,250,253,237,232,,0.03,0.01,1.63,0,4,6,0.03,,86,4756,4,30,52,0.964,0.0,402,4.85,12.9,0.0,1,28.1,2.71,5.9,0,0,1,1,0,,,,,,,,,,,,,,,,,,,,
61203,1629380138938,,,250,253,237,232,,-0.04,0.01,1.74,0,4,7,0.04,,86,4738,4,30,53,0.97,0.0,398,4.83,12.9,0.0,1,28.2,1.6,5.9,0,0,1,1,0,,,,,,,,,,,,,,,,,,,,
61223,1629380138958,,,250,252,237,233,,-0.09,0.02,1.92,0,5,6,0.09,,86,4657,4,30,53,0.976,0.0,398,4.88,12.9,0.0,1,27.2,2.65,5.9,0,0,1,1,0,,,,,,,,,,,,,,,,,,,,
61243,1629380138978,0,2,249,253,237,233,-4,-0.11,0.06,2.08,0,5,6,0.13,1,86,4609,4,30,54,0.985,0.0,391,4.91,12.8,0.0,1,26.9,2.62,5.9,0,0,1,1,0,0,250,250,0,49.328205,8.565401,0.0,113.0,10,2,1.7,0,0.0,-1,0.0,0.0,0.0,0,0.04,1.0207
61263,1629380138998,,,250,253,237,232,,-0.11,0.09,2.23,0,5,5,0.14,,86,4528,4,30,54,0.998,0.0,385,4.86,12.8,0.0,1,25.9,2.58,5.9,0,0,1,1,0,,,,,,,,,,,,,,,,,,,,
61283,1629380139010,,,250,253,237,232,,-0.1,0.1,2.36,0,4,4,0.14,,86,4591,4,30,55,1.014,0.0,379,4.87,13.1,0.0,1,26.8,2.62,5.5,0,0,1,1,0,,,,,,,,,,,,,,,,,,,,
61303,1629380139030,,,250,253,237,233,,-0.07,0.1,2.49,0,3,2,0.12,,86,4509,4,30,56,1.026,0.0,379,4.85,13.1,0.0,1,26.1,2.57,5.5,0,0,1,1,0,,,,,,,,,,,,,,,,,,,,
61323,1629380139050,,,250,253,237,232,,-0.05,0.1,2.6,0,1,1,0.11,,86,4528,4,30,56,1.037,0.0,381,4.88,13.1,0.0,1,26.4,1.47,5.5,0,0,1,1,0,,,,,,,,,,,,,,,,,,,,
61343,1629380139070,0,1,250,253,237,233,-3,-0.01,0.12,2.71,0,-1,-0,0.12,1,86,4579,4,30,57,1.043,0.0,375,4.81,13.0,0.0,1,27.3,1.51,5.5,0,0,1,1,0,0,250,250,0,49.328205,8.565402,2.72,110.1,10,2,1.7,0,0.0,-1,0.0,,0.0,0,0.04,1.0224
61363,1629380139098,,,250,252,237,233,,0.01,0.13,2.71,0,-2,-1,0.13,,86,4560,4,30,57,1.054,0.0,380,4.85,13.1,0.0,1,27.1,1.5,5.5,0,0,1,1,0,,,,,,,,,,,,,,,,,,,,
61383,1629380139118,,,250,252,237,232,,0.06,0.11,2.6,0,-4,-2,0.13,,86,4617,4,30,58,1.063,0.0,376,4.86,13.1,0.0,1,28.0,2.64,5.6,0,0,1,1,0,,,,,,,,,,,,,,,,,,,,
61403,1629380139138,,,250,252,237,233,,0.1,0.09,2.4,0,-5,-3,0.14,,86,4653,4,30,58,1.069,0.0,380,4.88,13.1,0.0,1,28.5,2.67,5.6,0,0,1,1,0,,,,,,,,,,,,,,,,,,,,
61423,1629380139158,,,250,253,237,232,,0.12,0.05,2.22,0,-4,-2,0.13,,86,4658,4,30,58,1.065,0.0,382,4.85,13.1,0.0,1,28.6,2.67,5.6,0,0,1,1,0,,,,,,,,,,,,,,,,,,,,
61443,1629380139178,0,1,250,253,237,233,-3,0.1,0.03,2.05,0,-3,-1,0.1,1,86,4748,4,30,59,1.062,0.0,383,4.85,12.9,0.0,1,30.0,2.72,5.6,0,0,1,1,0,0,250,250,0,49.328205,8.565402,0.0,110.1,10,2,1.7,0,0.0,-1,0.0,0.0,0.0,0,0.04,1.024
61463,1629380139197,,,250,253,237,233,,0.03,0.04,2.05,0,-2,0,0.05,,86,4728,4,30,59,1.059,0.0,391,4.82,13.0,0.0,1,29.5,1.58,5.6,0,0,1,1,0,,,,,,,,,,,,,,,,,,,,
61483,1629380139217,,,250,253,237,233,,-0.03,0.06,2.2,0,-2,-1,0.06,,86,4802,4,30,59,1.055,0.0,392,4.86,12.8,0.0,1,30.8,2.74,6.0,0,0,1,1,0,,,,,,,,,,,,,,,,,,,,
61503,1629380139237,,,250,252,237,233,,0.0,0.07,2.16,0,-2,-2,0.07,,86,4807,4,30,59,1.04,0.0,396,4.91,13.1,0.0,1,30.8,2.75,6.0,0,0,1,1,0,,,,,,,,,,,,,,,,,,,,
61523,1629380139257,,,249,253,237,233,,0.06,0.04,1.99,0,-3,-3,0.07,,86,4758,4,30,59,1.03,0.0,397,4.91,13.1,0.0,1,30.2,1.62,6.0,0,0,1,1,0,,,,,,,,,,,,,,,,,,,,
61543,1629380139277,0,2,250,253,237,232,-3,0.06,0.02,1.84,0,-2,-1,0.06,1,86,4875,4,30,60,1.018,0.0,396,4.89,13.1,0.0,1,32.0,2.77,6.0,0,0,1,1,0,0,250,250,0,49.328205,8.565403,2.66,110.1,10,2,1.7,0,0.0,-1,0.0,,0.0,0,0.04,1.0257
61563,1629380139297,,,250,252,237,233,,-0.01,0.02,2.0,0,-1,-0,0.02,,86,4821,4,30,60,1.004,0.0,400,4.83,12.8,0.0,1,31.3,2.75,6.0,0,0,1,1,0,,,,,,,,,,,,,,,,,,,,
61583,1629380139317,,,250,253,237,233,,-0.02,0.05,2.16,0,-3,-2,0.05,,86,4908,4,30,60,0.998,0.0,403,4.87,13.1,0.0,1,32.4,2.78,6.2,0,0,1,1,0,,,,,,,,,,,,,,,,,,,,
61603,1629380139337,,,250,253,237,233,,0.04,0.0,1.99,0,-3,-3,0.04,,86,4923,4,30,61,0.987,0.0,409,4.87,13.1,0.0,1,32.9,2.79,6.2,0,0,1,1,0,,,,,,,,,,,,,,,,,,,,
61623,1629380139357,,,250,253,237,233,,0.01,-0.0,1.84,0,-1,-0,0.01,,86,4917,4,30,61,0.978,0.0,406,4.85,12.9,0.0,1,33.2,2.77,6.2,0,0,1,1,0,,,,,,,,,,,,,,,,,,,,
61643,1629380139377,-1,2,250,253,237,233,-3,-0.04,0.01,2.0,0,-1,-1,0.05,1,86,4944,4,30,61,0.969,0.0,412,4.87,13.0,0.0,1,33.2,2.78,6.2,0,0,1,1,0,0,250,250,0,49.328205,8.565403,0.0,110.1,10,2,1.7,0,0.0,-1,0.0,0.0,0.0,0,0.04,1.0274
61663,1629380139395,,,250,252,237,232,,-0.01,0.01,1.9,0,-3,-3,0.01,,86,4948,4,30,61,0.966,0.0,410,4.91,13.1,0.0,1,33.3,2.79,6.2,0,0,1,1,0,,,,,,,,,,,,,,,,,,,,
61683,1629380139415,,,250,253,237,233,,0.0,-0.02,1.76,0,-1,-1,0.02,,86,4992,4,30,62,0.965,0.0,414,4.87,13.0,0.0,1,34.1,1.74,6.4,0,0,1,1,0,,,,,,,,,,,,,,,,,,,,
61703,1629380139435,,,250,253,237,232,,-0.06,-0.02,1.93,0,-0,-0,0.06,,86,5025,4,30,61,0.965,0.0,418,4.8,12.9,0.0,1,34.0,2.85,6.4,0,0,1,1,0,,,,,,,,,,,,,,,,,,,,
61723,1629380139455,,,250,253,237,233,,-0.0,-0.03,1.82,0,-4,-4,0.03,,86,5056,4,30,62,0.964,0.0,417,4.86,13.1,0.0,1,34.3,1.72,6.4,0,0,1,1,0,,,,,,,,,,,,,,,,,,,,
61743,1629380139475,1,2,249,253,237,233,-2,-0.04,-0.04,1.68,0,1,1,0.05,1,85,5099,4,30,62,0.965,0.0,423,4.87,12.8,0.0,1,34.3,1.7,6.4,0,0,1,1,0,0,250,250,0,49.328205,8.565402,2.32,109.9,10,2,1.7,0,0.0,-1,0.0,,0.0,0,0.04,1.029
61763,1629380139497,,,250,253,236,233,,-0.01,0.02,1.86,0,-4,-3,0.02,,86,5162,4,30,62,0.965,0.0,424,4.86,12.9,0.0,1,34.3,2.78,6.4,0,0,1,1,0,,,,,,,,,,,,,,,,,,,,
61783,1629380139517,,,249,252,237,233,,-0.02,-0.06,1.71,0,-2,0,0.06,,86,5173,4,30,62,0.965,0.0,426,4.83,13.0,0.0,1,34.3,1.66,6.6,0,0,1,1,0,,,,,,,,,,,,,,,,,,,,
61803,1629380139537,,,250,253,237,232,,-0.04,-0.02,1.89,0,-2,-2,0.05,,86,5253,5,30,61,0.966,0.0,432,4.87,13.1,0.0,1,34.0,2.65,6.6,0,0,1,1,0,,,,,,,,,,,,,,,,,,,,
61823,1629380139557,,,250,251,237,233,,-0.04,-0.1,1.74,0,-1,-0,0.11,,85,5316,6,30,62,0.966,0.0,439,4.87,13.1,0.0,1,34.2,1.59,6.6,0,0,1,1,0,,,,,,,,,,,,,,,,,,,,
61843,1629380139577,-0,2,250,252,237,233,-2,-0.01,-0.07,1.92,0,-5,-5,0.07,1,86,5369,10,30,63,0.964,0.0,440,4.83,13.0,0.0,1,34.5,1.62,6.6,0,0,1,1,0,0,250,250,0,49.328209,8.565403,4.52,109.9,10,2,2.0,0,0.0,-1,0.0,0.0,0.0,0,0.04,1.0307
61863,1629380139599,,,249,253,237,233,,-0.12,-0.11,1.77,0,1,2,0.16,,85,5419,14,30,66,0.964,0.0,446,4.85,12.9,0.0,1,35.3,1.94,6.6,0,0,1,1,0,,,,,,,,,,,,,,,,,,,,
61883,1629380139619,,,250,252,237,233,,-0.01,-0.12,1.94,0,-6,-3,0.12,,85,5516,20,30,70,0.963,0.0,456,4.94,13.1,0.0,1,36.3,3.85,9.5,0,0,1,1,0,,,,,,,,,,,,,,,,,,,,
61903,1629380139639,,,250,253,237,233,,0.01,-0.02,2.1,0,-5,-3,0.02,,86,5673,25,30,76,0.964,0.0,461,4.85,13.1,0.0,1,37.4,2.82,9.5,0,0,1,1,0,,,,,,,,,,,,,,,,,,,,
61923,1629380139659,,,250,253,237,233,,-0.01,0.0,1.94,0,1,4,0.01,,86,5941,30,30,83,0.966,0.0,471,4.8,12.9,0.0,1,38.5,3.28,9.5,0,0,1,1,0,,,,,,,,,,,,,,,,,,,,
61943,1629380139679,-1,2,250,252,237,233,-2,0.04,0.01,1.86,0,4,6,0.04,1,86,6266,35,30,88,0.967,0.0,499,4.82,13.0,0.0,1,41.7,5.27,9.5,0,0,1,1,0,0,250,250,0,49.328213,8.565403,0.0,109.9,10,2,2.0,0,0.0,-1,0.0,,0.0,0,0.04,1.0324
61963,1629380139699,,,250,253,237,233,,0.08,-0.03,2.03,0,1,3,0.09,,86,6503,40,31,92,0.967,0.0,524,4.88,13.1,0.0,1,44.8,5.37,9.5,0,0,1,1,0,,,,,,,,,,,,,,,,,,,,
61983,1629380139719,,,250,253,236,233,,0.02,-0.05,1.87,0,3,5,0.05,,86,6853,45,31,94,0.966,0.0,537,4.86,12.7,0.0,1,48.4,5.2,16.3,0,0,1,1,0,,,,,,,,,,,,,,,,,,,,
62003,1629380139739,,,250,253,237,233,,0.01,-0.02,1.73,0,2,4,0.02,,86,7425,49,31,95,0.97,0.0,561,4.85,12.9,0.0,1,43.9,5.57,16.3,0,0,1,1,0,,,,,,,,,,,,,,,,,,,,
62023,1629380139759,,,250,253,237,233,,0.02,0.04,1.65,0,2,5,0.04,,86,8016,52,31,95,0.973,0.0,605,4.82,12.9,0.0,1,35.7,6.23,16.3,0,0,1,1,0,,,,,,,,,,,,,,,,,,,,
62043,1629380139779,0,0,250,253,237,232,-2,0.03,-0.01,1.53,0,2,4,0.03,1,86,8668,55,31,93,0.975,0.0,641,4.78,12.9,0.0,1,41.8,5.27,16.3,0,0,1,1,0,0,250,250,0,49.328213,8.565402,0.0,110.0,10,2,2.0,0,0.0,-1,0.0,0.0,0.0,0,0.04,1.034
62063,1629380139799,,,250,253,237,233,,0.04,0.05,1.41,0,3,5,0.06,,86,9669,59,31,91,0.984,0.0,647,4.86,12.8,0.0,1,39.2,7.37,16.3,0,0,1,1,0,,,,,,,,,,,,,,,,,,,,
62083,1629380139819,,,250,252,237,233,,-0.01,-0.0,1.61,0,2,4,0.01,,86,9720,65,31,91,1.004,0.0,663,4.81,13.0,0.0,1,39.3,5.32,33.6,0,0,1,1,0,,,,,,,,,,,,,,,,,,,,
62103,1629380139839,,,250,253,237,233,,-0.02,0.08,1.5,0,3,4,0.09,,86,9508,68,31,92,1.022,0.0,662,4.86,13.0,0.0,1,38.9,6.21,33.6,0,0,1,1,0,,,,,,,,,,,,,,,,,,,,
62123,1629380139859,,,250,253,237,232,,-0.02,-0.0,1.61,0,2,4,0.02,,85,9689,71,31,93,1.045,0.0,654,4.76,13.0,0.0,1,39.2,7.51,33.6,0,0,1,1,0,,,,,,,,,,,,,,,,,,,,
62143,1629380139879,0,2,250,251,237,233,-3,-0.02,-0.01,1.48,0,2,2,0.02,1,85,9561,74,31,92,1.058,0.0,662,4.85,13.0,0.0,1,39.0,7.39,33.6,0,0,1,1,0,0,250,250,0,49.328213,8.565403,0.0,110.1,10,2,1.7,0,0.0,-1,0.0,,0.0,0,0.04,1.0357
62163,1629380139899,,,250,253,237,233,,-0.0,0.02,1.37,0,3,4,0.02,,86,9669,75,31,92,1.073,0.0,651,4.87,12.8,0.0,1,39.2,7.43,33.6,0,0,1,1,0,,,,,,,,,,,,,,,,,,,,
62183,1629380139919,,,250,253,237,233,,-0.05,-0.03,1.57,0,1,3,0.06,,86,9625,76,31,93,1.089,0.0,659,4.81,13.0,0.0,1,39.1,5.38,33.2,0,0,1,1,0,,,,,,,,,,,,,,,,,,,,
62203,1629380139939,,,250,252,237,233,,-0.02,-0.01,1.53,0,1,1,0.02,,86,9426,76,31,93,1.106,0.0,664,4.83,12.9,0.0,1,38.8,5.34,33.2,0,0,1,1,0,,,,,,,,,,,,,,,,,,,,
62223,1629380139959,,,249,253,237,233,,-0.04,-0.07,1.56,0,1,1,0.08,,85,9852,76,31,92,1.135,0.0,661,4.81,13.0,0.0,1,39.5,7.41,33.2,0,0,1,1,0,,,,,,,,,,,,,,,,,,,,
62243,1629380139979,0,1,250,253,236,233,-2,-0.03,-0.07,1.44,0,1,0,0.07,1,85,9645,77,31,92,1.163,0.0,664,4.83,13.0,0.0,1,39.0,7.16,33.2,0,0,1,1,0,0,250,250,0,49.328213,8.565403,0.0,110.1,10,2,1.7,0,0.0,-1,0.0,0.0,0.0,0,0.04,1.0374
62263,1629380139999,,,250,253,237,232,,-0.02,-0.02,1.33,0,2,2,0.03,,85,9422,77,31,93,1.192,0.0,665,4.83,13.0,0.0,1,38.8,7.0,33.2,0,0,1,1,0,,,,,,,,,,,,,,,,,,,,
62283,1629380140009,,,250,252,237,232,,-0.06,-0.08,1.53,0,1,1,0.1,,86,9878,77,31,93,1.213,0.0,664,4.83,13.0,0.0,1,39.5,7.0,31.1,0,0,1,1,0,,,,,,,,,,,,,,,,,,,,
62303,1629380140029,,,250,252,237,233,,-0.06,0.03,1.43,0,1,1,0.06,,85,9674,77,31,92,1.242,0.0,665,4.86,13.0,0.0,1,39.1,5.34,31.1,0,0,1,1,0,,,,,,,,,,,,,,,,,,,,
62323,1629380140049,,,250,252,237,233,,-0.05,-0.08,1.45,0,1,2,0.1,,85,9431,77,31,93,1.255,0.0,660,4.83,13.0,0.0,1,38.8,5.34,31.1,0,0,1,1,0,,,,,,,,,,,,,,,,,,,,
62343,1629380140069,1,2,249,252,237,233,-3,-0.06,-0.08,1.34,0,2,1,0.1,1,85,9745,77,31,93,1.264,0.0,662,4.86,13.0,0.0,1,39.2,6.42,31.1,0,0,1,1,0,0,250,250,0,49.328213,8.565403,0.0,109.9,10,2,1.7,0,0.0,-1,0.0,,0.0,0,0.04,1.039
62363,1629380140099,,,250,253,237,232,,-0.05,-0.03,1.29,0,2,3,0.06,,85,9512,77,31,92,1.271,0.0,655,4.85,13.0,0.0,1,38.9,6.38,31.1,0,0,1,1,0,,,,,,,,,,,,,,,,,,,,
62383,1629380140119,,,250,253,237,232,,-0.08,-0.06,1.46,0,1,1,0.1,,86,9561,77,31,93,1.281,0.0,647,4.78,12.8,0.0,1,38.9,6.4,27.7,0,0,1,1,0,,,,,,,,,,,,,,,,,,,,
62403,1629380140139,,,249,252,237,233,,-0.06,0.03,1.42,0,1,1,0.07,,85,9605,77,31,92,1.293,0.0,660,4.87,13.0,0.0,1,39.0,5.31,27.7,0,0,1,1,0,,,,,,,,,,,,,,,,,,,,
62423,1629380140159,,,250,252,237,233,,-0.07,-0.05,1.49,0,1,1,0.08,,85,9625,77,31,93,1.306,0.0,650,4.86,13.0,0.0,1,39.1,6.37,27.7,0,0,1,1,0,,,,,,,,,,,,,,,,,,,,
62443,1629380140179,0,2,249,252,237,233,-3,-0.06,-0.06,1.37,0,1,0,0.08,1,85,9674,77,31,92,1.319,0.0,663,4.85,13.0,0.0,1,39.2,6.39,27.7,0,0,1,1,0,0,250,250,0,49.328213,8.565403,0.0,109.8,10,2,1.7,0,0.0,-1,0.0,0.0,0.0,0,0.04,1.0407
62463,1629380140198,,,250,253,237,233,,-0.05,-0.01,1.27,0,2,2,0.05,,85,9445,77,31,93,1.338,0.0,662,4.83,13.0,0.0,1,38.8,6.33,27.7,0,0,1,1,0,,,,,,,,,,,,,,,,,,,,
62483,1629380140218,,,250,253,237,233,,-0.08,-0.08,1.48,0,1,1,0.11,,86,9842,77,31,93,1.348,0.0,658,4.8,13.0,0.0,1,39.4,6.5,28.4,0,0,1,1,0,,,,,,,,,,,,,,,,,,,,
62503,1629380140238,,,250,252,237,233,,-0.06,0.05,1.46,0,1,1,0.07,,85,9715,77,31,92,1.36,0.0,667,4.87,13.0,0.0,1,39.2,5.35,28.4,0,0,1,1,0,,,,,,,,,,,,,,,,,,,,
62523,1629380140258,,,250,252,237,232,,-0.05,-0.06,1.48,0,1,2,0.08,,85,9474,77,31,93,1.37,0.0,662,4.85,13.0,0.0,1,38.8,6.38,28.4,0,0,1,1,0,,,,,,,,,,,,,,,,,,,,
62543,1629380140278,0,2,250,252,237,232,-2,-0.04,-0.02,1.36,0,1,1,0.05,1,85,9709,77,31,92,1.385,0.0,652,4.86,13.0,0.0,1,39.5,6.45,28.4,0,0,1,1,0,0,250,250,0,49.328213,8.565403,0.0,109.7,10,2,1.7,0,0.0,-1,0.0,,0.0,0,0.04,1.0424
62563,1629380140296,,,250,253,237,233,,-0.04,-0.03,1.42,0,1,2,0.05,,85,9715,77,31,92,1.397,0.0,662,4.81,13.0,0.0,1,39.2,6.41,28.4,0,0,1,1,0,,,,,,,,,,,,,,,,,,,,
62583,1629380140316,,,250,252,237,232,,-0.06,-0.04,1.61,0,-1,-0,0.07,,85,9512,77,31,92,1.411,0.0,659,4.9,13.0,0.0,1,38.9,6.38,28.0,0,0,1,1,0,,,,,,,,,,,,,,,,,,,,
62603,1629380140336,,,250,252,236,233,,-0.05,0.03,1.58,0,-0,0,0.06,,86,9704,77,31,92,1.421,0.0,650,4.87,12.8,0.0,1,39.2,6.4,28.0,0,0,1,1,0,,,,,,,,,,,,,,,,,,,,
62623,1629380140356,,,250,251,237,233,,-0.07,-0.1,1.52,0,-0,0,0.12,,85,9745,77,31,92,1.434,0.0,656,4.85,13.0,0.0,1,39.3,6.42,28.0,0,0,1,1,0,,,,,,,,,,,,,,,,,,,,
62643,1629380140376,0,1,250,251,237,232,-2,-0.07,-0.08,1.4,0,0,0,0.11,1,85,9546,77,31,92,1.449,0.0,660,4.87,13.0,0.0,1,38.9,6.33,28.0,0,0,1,1,0,0,250,250,0,49.328213,8.565403,0.0,109.5,10,2,1.7,0,0.0,-1,0.0,0.0,0.0,0,0.04,1.044
62663,1629380140398,,,250,253,237,232,,-0.07,-0.07,1.33,0,1,2,0.1,,85,9576,77,31,93,1.461,0.0,650,4.86,12.7,0.0,1,39.0,6.4,28.0,0,0,1,1,0,,,,,,,,,,,,,,,,,,,,
62683,1629380140418,,,250,253,237,232,,-0.09,-0.05,1.47,0,0,-0,0.1,,85,9796,77,31,92,1.472,0.0,663,4.86,13.0,0.0,1,39.4,6.44,29.3,0,0,1,1,0,,,,,,,,,,,,,,,,,,,,
62703,1629380140438,,,250,252,237,232,,-0.06,0.02,1.37,0,0,1,0.07,,85,9551,77,31,93,1.487,0.0,662,4.83,13.0,0.0,1,38.9,5.35,29.3,0,0,1,1,0,,,,,,,,,,,,,,,,,,,,
62723,1629380140458,,,250,251,236,233,,-0.07,-0.11,1.45,0,0,0,0.13,,85,9441,77,31,93,1.488,0.0,654,4.77,12.8,0.0,1,38.8,6.38,29.3,0,0,1,1,0,,,,,,,,,,,,,,,,,,,,
62743,1629380140478,0,2,250,252,237,233,-2,-0.06,-0.08,1.33,0,0,1,0.1,1,85,9654,77,31,92,1.487,0.0,660,4.85,13.0,0.0,1,39.1,6.38,29.3,0,0,1,1,0,0,250,250,0,49.328213,8.565403,0.0,109.3,10,2,1.7,0,0.0,-1,0.0,,0.0,0,0.04,1.0457
62763,1629380140494,,,250,253,237,232,,-0.07,-0.06,1.36,0,1,2,0.1,,85,9426,77,31,93,1.487,0.0,656,4.87,13.0,0.0,1,38.8,6.38,29.3,0,0,1,1,0,,,,,,,,,,,,,,,,,,,,
62783,1629380140514,,,250,252,237,233,,-0.07,-0.05,1.56,0,0,-0,0.08,,85,9894,77,31,92,1.485,0.0,662,4.86,13.0,0.0,1,39.6,6.47,29.5,0,0,1,1,0,,,,,,,,,,,,,,,,,,,,
62803,1629380140534,,,250,253,237,232,,-0.06,0.04,1.47,0,0,0,0.07,,85,9650,77,31,92,1.487,0.0,655,4.87,13.0,0.0,1,39.1,6.38,29.5,0,0,1,1,0,,,,,,,,,,,,,,,,,,,,
