"Interval"|"ms"|0|0|1,"Utc"|"ms"|0|0|1,"Brake_F"|"Bar"|0|2000|10,"Brake_R"|"Bar"|0|2000|10,"Height_RF"|"mm"|0|255|50,"Height_LF"|"mm"|0|255|50,"Height_LR"|"mm"|0|80|50,"Height_RR"|"mm"|0|255|50,"Steering"|"deg"|-100|100|10,"AccelX"|"G"|-3.0|3.0|50,"AccelY"|"G"|-3.0|3.0|50,"AccelZ"|"G"|-3.0|3.0|50,"Yaw"|"Deg/Sec"|-120|120|50,"Pitch"|"Deg/Sec"|-120|120|50,"Roll"|"Deg/Sec"|-120|120|50,"Gsum"|"G"|0.0|3.0|50,"Log_Button"|""|0.0|10.0|10,"WaterTemp"|"C"|0|150|50,"RPM"|"tr/min"|0|14000|50,"TPS"|"%"|0|100|50,"AirTemp"|"C"|0|150|50,"MAP"|"KPa"|0|100|50,"Lambda"|""|0.5|1.5|50,"SpeedDTA"|"kph"|0.0|250.0|50,"OilPress"|"KPa"|0|1500|50,"FuelPressur"|"Bar"|0.0|10.0|50,"Batterie"|"V"|0.0|20.0|50,"ConsoKm"|"L/100km"|0.0|200.0|50,"Gear"|""|0|6|50,"AdvIgnition"|"Deg"|-20.0|70.0|50,"Injection"|"ms"|0.0|10.0|50,"ConsoHr"|"L/Hr"|0.0|10000.0|50,"LC_But_Pres"|""|0|1|50,"LC_Active"|""|0|1|50,"TractionOn"|""|0|1|50,"TractionWet"|""|0|1|50,"FanOn"|""|0|1|50,"RD_Speed"|"km/h"|-30|250|10,"RUD_Speed"|"km/h"|-30|250|10,"LD_Speed"|"km/h"|-30|250|10,"LUD_Speed"|"km/h"|-30|250|10,"Latitude"|"Degrees"|-180.0|180.0|10,"Longitude"|"Degrees"|-180.0|180.0|10,"Speed"|"kph"|0.0|150.0|10,"Altitude"|"m"|0.0|4000.0|10,"GPSSats"|""|0|20|10,"GPSQual"|""|0|5|10,"GPSDOP"|""|0.0|20.0|10,"LapCount"|""|0|0|10,"LapTime"|"Min"|0.0|0.0|10,"Sector"|""|0|0|10,"SectorTime"|"Min"|0.0|0.0|10,"PredTime"|"Min"|0.0|0.0|5,"ElapsedTime"|"Min"|0.0|0.0|10,"CurrentLap"|""|0|0|10,"Distance"|"km"|0.0|0.0|10,"SessionTime"|"Min"|0.0|0.0|10
16064,1629387411676,,,247,250,237,233,,-0.02,0.04,1.77,0,0,1,0.04,,67,4827,5,31,56,0.665,0.0,501,4.81,13.0,0.0,1,30.6,1.69,6.0,0,0,0,1,0,,,,,,,,,,,,,,,,,,,,
16084,1629387411696,,,247,250,237,233,,-0.09,0.04,1.63,0,2,3,0.1,,67,4854,5,31,56,0.665,0.0,501,4.81,13.0,0.0,1,30.5,2.79,6.0,0,0,0,1,0,,,,,,,,,,,,,,,,,,,,
16104,1629387411716,,,247,248,237,232,,-0.04,0.07,1.82,0,-0,0,0.09,,67,4849,5,31,57,0.666,0.0,502,4.92,13.2,0.0,1,30.8,2.78,6.2,0,0,0,1,0,,,,,,,,,,,,,,,,,,,,
16124,1629387411736,,,247,248,237,232,,0.01,0.05,1.68,0,-0,0,0.05,,67,4871,5,31,57,0.665,0.0,510,4.89,13.2,0.0,1,31.0,2.79,6.2,0,0,0,1,0,,,,,,,,,,,,,,,,,,,,
16144,1629387411756,3,5,247,250,237,233,-4,-0.0,0.03,1.55,0,2,3,0.03,1,67,4836,5,31,57,0.666,0.0,498,4.87,13.1,0.0,1,30.6,2.77,6.2,0,0,0,1,0,0,250,250,0,49.330891,8.565155,0.0,127.6,8,2,1.8,0,0.0,-1,0.0,,0.0,0,0.0,0.2691
16164,1629387411776,,,247,250,237,232,,-0.08,0.02,1.74,0,3,3,0.08,,67,4903,5,31,57,0.666,0.0,505,4.8,12.9,0.0,1,31.4,2.81,6.2,0,0,0,1,0,,,,,,,,,,,,,,,,,,,,
16184,1629387411796,,,246,250,237,233,,-0.13,0.03,1.91,0,2,1,0.13,,67,4877,5,31,57,0.666,0.0,516,4.92,13.2,0.0,1,31.1,2.8,6.3,0,0,0,1,0,,,,,,,,,,,,,,,,,,,,
16204,1629387411816,,,247,248,237,233,,-0.06,0.01,1.76,0,1,1,0.06,,67,4877,5,31,58,0.666,0.0,505,4.87,13.2,0.0,1,31.4,2.79,6.3,0,0,0,1,0,,,,,,,,,,,,,,,,,,,,
16224,1629387411836,,,247,250,237,233,,-0.07,-0.02,1.63,0,3,3,0.07,,67,4887,5,31,58,0.665,0.0,509,4.85,13.1,0.0,1,31.5,1.68,6.3,0,0,0,1,0,,,,,,,,,,,,,,,,,,,,
16244,1629387411856,5,4,247,250,237,233,-5,-0.14,-0.0,1.81,0,4,3,0.14,1,67,4866,5,32,58,0.666,0.0,503,4.82,12.9,0.0,1,31.3,2.79,6.3,0,0,0,1,0,0,250,250,0,49.330891,8.565155,0.0,127.6,8,2,1.8,0,0.0,-1,0.0,0.0,0.0,0,0.0,0.2707
16264,1629387411876,,,247,250,238,233,,-0.1,0.03,1.98,0,1,1,0.11,,67,4893,4,31,58,0.666,0.0,501,4.87,13.1,0.0,1,31.6,2.79,6.3,0,0,0,1,0,,,,,,,,,,,,,,,,,,,,
16284,1629387411896,,,247,248,237,233,,-0.04,0.0,1.82,-0,0,0,0.04,,67,4904,5,31,59,0.666,0.0,518,4.87,13.2,0.0,1,32.1,2.79,6.3,0,0,0,1,0,,,,,,,,,,,,,,,,,,,,
16304,1629387411916,,,247,250,238,233,,-0.07,-0.0,1.68,0,4,3,0.07,,67,4922,5,31,59,0.665,0.0,514,4.84,13.0,0.0,1,32.3,1.69,6.3,0,0,0,1,0,,,,,,,,,,,,,,,,,,,,
16324,1629387411936,,,247,250,237,233,,-0.12,0.02,1.86,0,2,2,0.12,,67,4921,4,32,59,0.666,0.0,511,4.85,13.1,0.0,1,32.3,1.69,6.3,0,0,0,1,0,,,,,,,,,,,,,,,,,,,,
16344,1629387411956,3,6,247,249,237,233,-4,-0.06,0.02,2.03,0,-0,-1,0.06,1,67,4940,4,32,59,0.666,0.0,515,4.91,13.2,0.0,1,32.5,2.81,6.3,0,0,0,1,0,0,250,250,0,49.330891,8.565155,0.0,127.6,8,2,1.8,0,0.0,-1,0.0,,0.0,0,0.0,0.2724
16364,1629387411976,,,247,250,237,233,,-0.03,0.01,1.87,0,2,2,0.04,,67,4966,5,32,59,0.666,0.0,508,4.87,13.1,0.0,1,32.8,1.71,6.3,0,0,0,1,0,,,,,,,,,,,,,,,,,,,,
16384,1629387411996,,,247,250,237,233,,-0.11,-0.0,2.03,0,2,2,0.11,,67,5029,4,32,59,0.666,0.0,519,4.82,13.0,0.0,1,33.3,2.83,6.5,0,0,0,1,0,,,,,,,,,,,,,,,,,,,,
16404,1629387412003,,,247,249,238,232,,-0.04,0.0,2.18,-0,-1,-1,0.04,,67,5037,4,32,59,0.666,0.0,536,4.91,13.2,0.0,1,33.3,2.82,6.5,0,0,0,1,0,,,,,,,,,,,,,,,,,,,,
16424,1629387412023,,,247,250,238,232,,-0.07,0.0,2.02,0,3,3,0.07,,67,5089,5,32,59,0.666,0.0,526,4.83,13.0,0.0,1,33.3,1.68,6.5,0,0,0,1,0,,,,,,,,,,,,,,,,,,,,
16444,1629387412043,5,5,247,250,237,233,-4,-0.07,0.05,2.17,-0,-1,-1,0.08,1,67,5166,5,32,59,0.667,0.0,529,4.82,13.0,0.0,1,33.4,2.74,6.5,0,0,0,1,0,0,250,250,0,49.330891,8.565155,0.0,127.6,8,2,1.8,0,0.0,-1,0.0,0.0,0.0,0,0.0,0.2741
16464,1629387412063,,,247,247,238,233,,-0.03,-0.01,2.0,0,1,1,0.03,,67,5176,5,32,59,0.666,0.0,537,4.85,13.1,0.0,1,33.4,2.73,6.5,0,0,0,1,0,,,,,,,,,,,,,,,,,,,,
16484,1629387412095,,,247,250,238,232,,-0.08,0.04,2.16,-0,-1,-1,0.08,,67,5266,4,32,59,0.666,0.0,537,4.84,13.2,0.0,1,33.4,2.67,6.5,0,0,0,1,0,,,,,,,,,,,,,,,,,,,,
16504,1629387412115,,,247,248,237,232,,-0.04,-0.04,1.99,0,2,2,0.06,,67,5272,5,32,59,0.666,0.0,543,4.86,13.1,0.0,1,33.4,1.56,6.5,0,0,0,1,0,,,,,,,,,,,,,,,,,,,,
16524,1629387412135,,,247,250,238,233,,-0.06,0.01,2.14,-0,-3,-2,0.06,,67,5304,4,32,58,0.667,0.0,555,4.81,13.0,0.0,1,33.1,2.66,6.5,0,0,0,1,0,,,,,,,,,,,,,,,,,,,,
16544,1629387412155,4,5,247,249,237,233,-4,-0.15,0.03,1.98,0,2,4,0.15,1,67,5338,5,32,59,0.666,0.0,553,4.81,13.2,0.0,1,33.4,2.64,6.5,0,0,0,1,0,0,250,250,0,49.330891,8.565155,0.0,127.6,8,2,1.8,0,0.0,-1,0.0,,0.0,0,0.0,0.2757
16564,1629387412175,,,247,248,238,233,,-0.03,0.01,2.13,0,-5,-3,0.03,,67,5346,4,32,58,0.666,0.0,553,4.85,13.2,0.0,1,33.1,2.63,6.5,0,0,0,1,0,,,,,,,,,,,,,,,,,,,,
16584,1629387412197,,,247,250,237,233,,-0.11,0.04,2.11,0,1,3,0.12,,67,5338,5,32,59,0.666,0.0,555,4.86,13.1,0.0,1,33.4,2.63,6.5,0,0,0,1,0,,,,,,,,,,,,,,,,,,,,
16604,1629387412217,,,247,249,237,233,,-0.06,-0.07,1.95,0,-3,-1,0.09,,67,5403,5,32,58,0.667,0.0,558,4.92,13.2,0.0,1,33.1,2.61,6.5,0,0,0,1,0,,,,,,,,,,,,,,,,,,,,
16624,1629387412237,,,247,250,238,233,,-0.05,-0.01,2.11,0,-1,0,0.05,,67,5380,5,32,58,0.666,0.0,555,4.77,13.1,0.0,1,33.1,2.62,6.5,0,0,0,1,0,,,,,,,,,,,,,,,,,,,,
16644,1629387412257,3,5,247,248,238,232,-4,-0.12,-0.01,1.95,0,1,3,0.12,1,67,5439,5,32,58,0.666,0.0,562,4.9,13.1,0.0,1,33.1,2.58,6.5,0,0,0,1,0,0,250,250,0,49.330891,8.565155,0.0,127.6,8,2,1.8,0,0.0,-1,0.0,0.0,0.0,0,0.0,0.2774
16664,1629387412277,,,247,250,237,233,,-0.01,0.01,2.1,0,-6,-4,0.02,,67,5411,5,32,58,0.667,0.0,568,4.85,13.1,0.0,1,33.1,2.6,6.5,0,0,0,1,0,,,,,,,,,,,,,,,,,,,,
16684,1629387412295,,,247,250,237,233,,-0.09,0.03,2.02,0,2,3,0.1,,67,5452,4,32,58,0.666,0.0,560,4.85,13.1,0.0,1,33.1,2.58,6.5,0,0,0,1,0,,,,,,,,,,,,,,,,,,,,
16704,1629387412315,,,247,247,238,233,,-0.08,-0.05,1.86,0,-2,0,0.09,,67,5436,4,32,58,0.667,0.0,562,4.92,13.2,0.0,1,33.1,2.59,6.5,0,0,0,1,0,,,,,,,,,,,,,,,,,,,,
16724,1629387412335,,,247,249,237,233,,-0.01,0.02,2.03,0,-4,-2,0.02,,67,5479,4,32,58,0.667,0.0,570,4.87,13.2,0.0,1,33.1,2.56,6.5,0,0,0,1,0,,,,,,,,,,,,,,,,,,,,
16744,1629387412355,5,5,247,250,238,233,-5,-0.11,0.04,1.87,0,2,5,0.11,1,67,5511,5,32,58,0.666,0.0,572,4.87,12.9,0.0,1,33.2,2.54,6.5,0,0,0,1,0,0,250,250,0,49.330891,8.565155,0.0,127.6,8,2,1.8,0,0.0,-1,0.0,,0.0,0,0.0,0.2791
16764,1629387412375,,,247,247,238,232,,-0.08,-0.06,1.73,0,-3,1,0.09,,67,5517,5,32,58,0.666,0.0,569,4.88,13.2,0.0,1,33.2,1.41,6.5,0,0,0,1,0,,,,,,,,,,,,,,,,,,,,
16784,1629387412393,,,247,250,237,233,,-0.01,0.02,1.9,0,-6,-2,0.02,,67,5530,4,32,58,0.668,0.0,573,4.89,13.2,0.0,1,33.2,2.52,6.4,0,0,0,1,0,,,,,,,,,,,,,,,,,,,,
16804,1629387412413,,,247,250,237,232,,-0.1,0.06,1.75,0,2,5,0.11,,67,5555,5,32,58,0.666,0.0,576,4.85,12.9,0.0,1,33.2,1.39,6.4,0,0,0,1,0,,,,,,,,,,,,,,,,,,,,
16824,1629387412433,,,247,248,237,233,,-0.11,-0.02,1.62,0,0,3,0.11,,67,5544,4,32,58,0.666,0.0,570,4.88,13.1,0.0,1,33.2,2.52,6.4,0,0,0,1,0,,,,,,,,,,,,,,,,,,,,
16844,1629387412453,5,3,247,250,237,233,-4,-0.0,0.0,1.8,0,-7,-3,0.01,1,67,5582,5,32,57,0.669,0.0,571,4.82,13.1,0.0,1,32.9,2.5,6.4,0,0,0,1,0,0,250,250,0,49.330891,8.565155,0.0,127.6,8,2,1.8,0,0.0,-1,0.0,0.0,0.0,0,0.0,0.2807
16864,1629387412473,,,247,250,238,233,,-0.02,0.04,1.97,0,-1,1,0.05,,67,5600,5,32,57,0.667,0.0,578,4.81,13.1,0.0,1,32.9,2.49,6.4,0,0,0,1,0,,,,,,,,,,,,,,,,,,,,
16884,1629387412495,,,247,250,237,233,,-0.11,0.05,1.82,0,3,5,0.12,,67,5602,5,32,57,0.668,0.0,581,4.85,13.1,0.0,1,32.9,1.37,6.4,0,0,0,1,0,,,,,,,,,,,,,,,,,,,,
16904,1629387412515,,,247,248,238,232,,-0.07,-0.03,1.68,0,-2,0,0.08,,67,5644,4,32,57,0.668,0.0,580,4.91,13.2,0.0,1,33.0,2.46,6.4,0,0,0,1,0,,,,,,,,,,,,,,,,,,,,
16924,1629387412535,,,247,250,238,232,,0.02,0.01,1.86,0,-6,-4,0.02,,67,5640,5,32,57,0.669,0.0,578,4.93,13.2,0.0,1,33.0,2.46,6.4,0,0,0,1,0,,,,,,,,,,,,,,,,,,,,
16944,1629387412555,4,6,247,250,237,233,-4,-0.01,0.05,2.02,0,-1,-1,0.05,1,67,5680,5,32,57,0.669,0.0,582,4.82,12.9,0.0,1,33.0,2.43,6.4,0,0,0,1,0,0,250,250,0,49.330891,8.565155,0.0,127.6,8,2,1.8,0,0.0,-1,0.0,,0.0,0,0.0,0.2824
16964,1629387412575,,,247,250,238,233,,-0.1,0.05,1.87,1,5,5,0.11,,67,5668,5,32,56,0.667,0.0,587,4.81,12.9,0.0,1,32.7,1.33,6.4,0,0,0,1,0,,,,,,,,,,,,,,,,,,,,
16984,1629387412597,,,247,248,238,232,,-0.14,0.02,1.72,1,3,3,0.15,,67,5721,5,32,57,0.667,0.0,584,4.91,13.2,0.0,1,33.0,2.41,6.4,0,0,0,1,0,,,,,,,,,,,,,,,,,,,,
17004,1629387412617,,,247,249,237,233,,-0.04,-0.01,1.9,1,-4,-3,0.04,,67,5709,5,32,56,0.669,0.0,586,4.89,13.2,0.0,1,32.7,2.42,6.3,0,0,0,1,0,,,,,,,,,,,,,,,,,,,,
17024,1629387412637,,,247,250,237,233,,0.03,0.03,2.06,0,-8,-7,0.05,,67,5702,5,32,56,0.669,0.0,588,4.92,13.2,0.0,1,32.7,2.43,6.3,0,0,0,1,0,,,,,,,,,,,,,,,,,,,,
17044,1629387412657,5,4,247,250,237,233,-5,0.02,0.05,2.21,1,-4,-3,0.06,1,67,5732,5,32,56,0.669,0.0,586,4.84,12.9,0.0,1,32.7,2.41,6.3,0,0,0,1,0,0,250,250,0,49.330891,8.565155,0.0,127.6,8,2,1.8,0,0.0,-1,0.0,0.0,0.0,0,0.0,0.2841
17064,1629387412677,,,247,248,237,233,,-0.05,0.03,2.04,1,2,4,0.06,,67,5739,5,32,56,0.668,0.0,585,4.84,13.0,0.0,1,32.7,2.4,6.3,0,0,0,1,0,,,,,,,,,,,,,,,,,,,,
17084,1629387412695,,,247,248,238,233,,-0.14,-0.02,1.88,0,5,6,0.14,,67,5719,5,32,56,0.667,0.0,585,4.83,13.0,0.0,1,32.7,1.29,6.4,0,0,0,1,0,,,,,,,,,,,,,,,,,,,,
17104,1629387412715,,,247,247,237,233,,-0.09,-0.08,1.74,0,-1,0,0.12,,67,5732,5,32,56,0.667,0.0,593,4.91,13.2,0.0,1,32.7,2.41,6.4,0,0,0,1,0,,,,,,,,,,,,,,,,,,,,
17124,1629387412735,,,247,248,237,233,,0.01,-0.05,1.91,0,-8,-6,0.05,,67,5767,4,32,56,0.67,0.0,596,4.93,13.2,0.0,1,32.8,2.39,6.4,0,0,0,1,0,,,,,,,,,,,,,,,,,,,,
17144,1629387412755,4,6,247,250,237,233,-5,0.05,0.02,2.07,0,-10,-7,0.05,1,67,5772,5,32,55,0.67,0.0,591,4.81,13.2,0.0,1,32.6,2.39,6.4,0,0,0,1,0,0,250,250,0,49.330891,8.565155,0.0,127.6,8,2,1.8,0,0.0,-1,0.0,,0.0,0,0.0,0.2857
17164,1629387412775,,,247,250,238,233,,0.03,0.05,2.22,1,-5,-4,0.06,,67,5795,5,32,55,0.669,0.0,595,4.83,13.1,0.0,1,32.6,2.38,6.4,0,0,0,1,0,,,,,,,,,,,,,,,,,,,,
17184,1629387412795,,,247,248,238,233,,-0.03,0.07,2.05,0,2,3,0.08,,67,5810,4,32,55,0.667,0.0,597,4.84,13.0,0.0,1,32.6,2.37,6.4,0,0,0,1,0,,,,,,,,,,,,,,,,,,,,
17204,1629387412815,,,247,248,237,232,,-0.12,0.06,1.89,0,7,7,0.14,,67,5837,5,32,55,0.667,0.0,602,4.81,12.9,0.0,1,32.6,1.23,6.3,0,0,0,1,0,,,,,,,,,,,,,,,,,,,,
17224,1629387412835,,,247,248,237,233,,-0.18,0.03,1.74,0,9,8,0.18,,67,5797,5,32,55,0.668,0.0,594,4.9,13.0,0.0,1,32.6,1.25,6.3,0,0,0,1,0,,,,,,,,,,,,,,,,,,,,
17244,1629387412855,5,4,247,248,237,233,-5,-0.17,-0.03,1.61,-1,8,6,0.17,1,67,5859,4,32,55,0.668,0.0,590,4.87,13.1,0.0,1,32.6,2.34,6.3,0,0,0,1,0,0,250,250,0,49.330891,8.565155,0.0,127.6,8,2,1.8,0,0.0,-1,0.0,0.0,0.0,0,0.0,0.2874
17264,1629387412875,,,247,250,238,233,,-0.08,-0.06,1.73,-0,1,0,0.1,,67,5872,5,32,55,0.668,0.0,600,4.88,13.2,0.0,1,32.6,1.21,6.3,0,0,0,1,0,,,,,,,,,,,,,,,,,,,,
17284,1629387412895,,,247,250,237,233,,0.01,-0.05,1.9,-0,-5,-5,0.06,,67,5881,5,32,55,0.668,0.0,608,4.9,13.2,0.0,1,32.7,2.32,6.3,0,0,0,1,0,,,,,,,,,,,,,,,,,,,,
17304,1629387412915,,,247,250,237,233,,0.08,-0.03,2.06,-0,-9,-9,0.09,,67,5896,4,32,54,0.671,0.0,607,4.95,13.2,0.0,1,32.5,2.32,6.3,0,0,0,1,0,,,,,,,,,,,,,,,,,,,,
17324,1629387412935,,,247,250,237,233,,0.11,-0.01,2.21,-0,-12,-12,0.12,,67,5901,5,32,54,0.673,0.0,600,4.85,13.1,0.0,1,32.5,2.31,6.3,0,0,0,1,0,,,,,,,,,,,,,,,,,,,,
17344,1629387412955,3,5,247,250,237,233,-4,0.13,-0.01,2.35,-0,-14,-13,0.13,1,67,5920,5,32,54,0.673,0.0,602,4.9,13.2,0.0,1,32.5,2.3,6.3,0,0,0,1,0,0,250,250,0,49.330891,8.565155,0.0,127.6,8,2,1.8,0,0.0,-1,0.0,,0.0,0,0.0,0.2891
17364,1629387412975,,,247,250,238,233,,0.13,-0.01,2.48,-0,-13,-12,0.13,,67,5905,4,32,54,0.672,0.0,608,4.85,13.0,0.0,1,32.5,2.31,6.3,0,0,0,1,0,,,,,,,,,,,,,,,,,,,,
17384,1629387412995,,,247,250,237,233,,0.12,-0.01,2.59,-0,-10,-9,0.12,,67,5914,5,32,54,0.67,0.0,611,4.85,13.1,0.0,1,32.5,2.3,6.3,0,0,0,1,0,,,,,,,,,,,,,,,,,,,,
17404,1629387413005,,,247,249,238,233,,0.12,0.0,2.54,-0,-6,-5,0.12,,67,5911,5,32,54,0.669,0.0,609,4.83,13.1,0.0,1,32.5,2.31,6.3,0,0,0,1,0,,,,,,,,,,,,,,,,,,,,
17424,1629387413025,,,247,247,237,232,,0.12,0.02,2.34,-0,-2,-0,0.12,,67,5935,5,32,54,0.669,0.0,604,4.85,13.1,0.0,1,32.5,2.29,6.3,0,0,0,1,0,,,,,,,,,,,,,,,,,,,,
17444,1629387413045,5,3,247,248,237,233,-4,0.1,0.04,2.16,-0,2,4,0.11,1,67,5931,5,32,54,0.668,0.0,608,4.82,13.0,0.0,1,32.5,2.29,6.3,0,0,0,1,0,0,250,250,0,49.330879,8.565146,0.0,120.2,9,2,1.5,0,0.0,-1,0.0,0.0,0.0,0,0.0,0.2907
17464,1629387413065,,,247,248,238,232,,0.06,0.05,2.0,0,6,8,0.08,,67,5937,5,32,54,0.667,0.0,615,4.86,13.0,0.0,1,32.5,2.29,6.3,0,0,0,1,0,,,,,,,,,,,,,,,,,,,,
17484,1629387413094,,,247,248,237,233,,0.01,0.08,1.84,0,9,12,0.08,,67,5924,5,32,54,0.665,0.0,614,4.82,13.0,0.0,1,32.5,1.18,6.3,0,0,0,1,0,,,,,,,,,,,,,,,,,,,,
17504,1629387413114,,,247,248,237,233,,-0.05,0.1,1.7,0,11,14,0.11,,67,5941,5,32,54,0.663,0.0,608,4.86,13.1,0.0,1,32.5,2.29,6.3,0,0,0,1,0,,,,,,,,,,,,,,,,,,,,
17524,1629387413134,,,247,248,238,233,,-0.1,0.11,1.57,0,13,16,0.15,,67,5954,5,32,53,0.662,0.0,607,4.84,13.1,0.0,1,32.3,2.29,6.3,0,0,0,1,0,,,,,,,,,,,,,,,,,,,,
17544,1629387413154,5,4,247,249,237,233,-4,-0.16,0.13,1.45,0,15,18,0.21,1,67,5942,5,32,53,0.66,0.0,610,4.78,12.9,0.0,1,32.3,1.17,6.3,0,0,0,1,0,0,250,250,0,49.330879,8.565146,0.0,120.2,9,2,1.5,0,0.0,-1,0.0,,0.0,0,0.0,0.2924
17564,1629387413174,,,247,248,238,233,,-0.21,0.12,1.34,-0,15,18,0.25,,67,5952,4,32,53,0.659,0.0,612,4.85,13.0,0.0,1,32.3,2.29,6.3,0,0,0,1,0,,,,,,,,,,,,,,,,,,,,
17584,1629387413192,,,247,248,238,233,,-0.25,0.1,1.23,0,14,17,0.27,,67,5912,5,32,53,0.658,0.0,607,4.85,13.0,0.0,1,32.2,1.19,6.3,0,0,0,1,0,,,,,,,,,,,,,,,,,,,,
17604,1629387413212,,,247,249,237,233,,-0.26,0.07,1.14,-0,12,15,0.27,,67,5946,5,32,53,0.658,0.0,601,4.9,13.1,0.0,1,32.3,2.29,6.3,0,0,0,1,0,,,,,,,,,,,,,,,,,,,,
17624,1629387413232,,,247,250,238,233,,-0.24,0.05,1.05,-0,9,11,0.25,,67,5929,5,32,53,0.658,0.0,601,4.86,13.1,0.0,1,32.2,1.18,6.3,0,0,0,1,0,,,,,,,,,,,,,,,,,,,,
17644,1629387413252,3,5,247,250,238,232,-4,-0.18,0.03,1.15,-0,4,6,0.19,1,67,5907,4,32,53,0.66,0.0,609,4.83,13.1,0.0,1,32.2,1.2,6.3,0,0,0,1,0,0,250,250,0,49.330879,8.565146,0.0,120.2,9,2,1.5,0,0.0,-1,0.0,0.0,0.0,0,0.0,0.2941
17664,1629387413272,,,247,250,237,233,,-0.11,0.02,1.36,-0,-1,1,0.11,,67,5916,5,32,53,0.662,0.0,605,4.91,13.2,0.0,1,32.2,1.19,6.3,0,0,0,1,0,,,,,,,,,,,,,,,,,,,,
17684,1629387413292,,,247,250,237,233,,-0.04,0.02,1.57,-0,-6,-4,0.05,,67,5890,4,32,53,0.665,0.0,602,4.91,13.2,0.0,1,32.2,2.33,6.3,0,0,0,1,0,,,,,,,,,,,,,,,,,,,,
17704,1629387413312,,,247,250,237,233,,0.01,0.03,1.75,-0,-10,-8,0.03,,67,5903,4,32,53,0.668,0.0,603,4.93,13.2,0.0,1,32.2,2.32,6.3,0,0,0,1,0,,,,,,,,,,,,,,,,,,,,
17724,1629387413332,,,247,250,237,233,,0.03,0.05,1.93,-0,-12,-10,0.06,,67,5888,5,32,53,0.671,0.0,603,4.93,13.2,0.0,1,32.2,2.33,6.3,0,0,0,1,0,,,,,,,,,,,,,,,,,,,,
17744,1629387413352,3,5,247,250,237,233,-4,0.03,0.06,2.09,-0,-10,-9,0.07,1,67,5864,5,32,53,0.673,0.0,605,4.8,13.1,0.0,1,32.1,2.35,6.3,0,0,0,1,0,0,250,250,0,49.330879,8.565146,0.0,120.2,9,2,1.5,0,0.0,-1,0.0,,0.0,0,0.0,0.2957
17764,1629387413372,,,247,250,237,233,,0.0,0.07,2.23,-0,-5,-6,0.07,,67,5870,5,32,53,0.673,0.0,598,4.84,13.2,0.0,1,32.1,2.34,6.3,0,0,0,1,0,,,,,,,,,,,,,,,,,,,,
17784,1629387413394,,,247,248,238,233,,-0.04,0.07,2.06,-0,-0,-1,0.08,,67,5835,5,32,53,0.673,0.0,596,4.79,13.1,0.0,1,32.1,2.37,6.4,0,0,0,1,0,,,,,,,,,,,,,,,,,,,,
17804,1629387413414,,,247,248,238,233,,-0.11,0.05,1.9,0,5,5,0.12,,67,5857,5,32,53,0.671,0.0,601,4.84,13.0,0.0,1,32.1,2.35,6.4,0,0,0,1,0,,,,,,,,,,,,,,,,,,,,
17824,1629387413434,,,247,248,237,233,,-0.18,0.05,1.76,-0,10,9,0.19,,67,5850,5,32,53,0.67,0.0,603,4.8,12.9,0.0,1,32.1,1.24,6.4,0,0,0,1,0,,,,,,,,,,,,,,,,,,,,
17844,1629387413454,4,5,247,247,237,233,-4,-0.22,0.03,1.62,0,10,9,0.22,1,67,5877,5,32,54,0.669,0.0,596,4.91,13.1,0.0,1,32.5,2.33,6.4,0,0,0,1,0,0,250,250,0,49.330879,8.565146,0.0,120.2,9,2,1.5,0,0.0,-1,0.0,0.0,0.0,0,0.0,0.2974
17864,1629387413474,,,247,248,237,233,,-0.2,0.01,1.5,1,8,7,0.2,,67,5879,5,32,54,0.669,0.0,592,4.83,13.1,0.0,1,32.4,2.34,6.4,0,0,0,1,0,,,,,,,,,,,,,,,,,,,,
17884,1629387413492,,,247,250,237,233,,-0.11,-0.01,1.69,1,2,2,0.11,,67,5846,4,32,54,0.669,0.0,595,4.88,13.1,0.0,1,32.4,2.36,6.4,0,0,0,1,0,,,,,,,,,,,,,,,,,,,,
17904,1629387413512,,,247,250,237,232,,-0.01,0.01,1.87,1,-6,-4,0.01,,67,5857,5,32,53,0.67,0.0,604,4.85,13.2,0.0,1,32.1,1.23,6.4,0,0,0,1,0,,,,,,,,,,,,,,,,,,,,
17924,1629387413532,,,247,250,237,233,,0.05,0.03,2.03,1,-12,-8,0.06,,67,5863,4,32,53,0.669,0.0,602,4.93,13.2,0.0,1,32.1,2.35,6.4,0,0,0,1,0,,,,,,,,,,,,,,,,,,,,
17944,1629387413552,4,5,247,250,238,233,-4,0.08,0.05,2.18,1,-14,-10,0.09,1,67,5841,5,32,54,0.669,0.0,595,4.85,13.2,0.0,1,32.4,2.36,6.4,0,0,0,1,0,0,250,250,0,49.330879,8.565146,0.0,120.2,9,2,1.5,0,0.0,-1,0.0,,0.0,0,0.0,0.2991
17964,1629387413572,,,247,250,238,233,,0.05,0.05,2.32,1,-11,-8,0.07,,67,5863,4,32,53,0.668,0.0,591,4.86,13.2,0.0,1,32.1,2.35,6.4,0,0,0,1,0,,,,,,,,,,,,,,,,,,,,
17984,1629387413594,,,247,250,238,233,,0.02,0.04,2.14,1,-6,-3,0.05,,67,5870,5,32,53,0.667,0.0,598,4.85,13.1,0.0,1,32.1,2.34,6.3,0,0,0,1,0,,,,,,,,,,,,,,,,,,,,
18004,1629387413614,,,247,248,237,233,,-0.03,0.01,1.98,1,-2,2,0.03,,67,5896,5,32,53,0.665,0.0,601,4.86,13.1,0.0,1,32.2,2.32,6.3,0,0,0,1,0,,,,,,,,,,,,,,,,,,,,
18024,1629387413634,,,247,249,238,233,,-0.1,-0.01,1.82,1,4,8,0.1,,67,5852,5,32,53,0.664,0.0,594,4.82,13.0,0.0,1,32.1,1.24,6.3,0,0,0,1,0,,,,,,,,,,,,,,,,,,,,
18044,1629387413654,4,5,247,249,238,232,-4,-0.16,-0.03,1.68,1,6,10,0.16,1,67,5883,5,32,54,0.665,0.0,590,4.86,13.1,0.0,1,32.5,2.32,6.3,0,0,0,1,0,0,250,250,0,49.330879,8.565146,0.0,120.2,9,2,1.5,0,0.0,-1,0.0,0.0,0.0,0,0.0,0.3007
18064,1629387413674,,,247,248,238,233,,-0.18,-0.07,1.55,2,6,11,0.2,,67,5863,4,32,54,0.665,0.0,595,4.87,13.1,0.0,1,32.4,1.22,6.3,0,0,0,1,0,,,,,,,,,,,,,,,,,,,,
18084,1629387413692,,,247,248,237,233,,-0.16,-0.11,1.43,2,3,8,0.2,,67,5883,5,32,54,0.666,0.0,597,4.85,13.1,0.0,1,32.5,2.32,6.3,0,0,0,1,0,,,,,,,,,,,,,,,,,,,,
18104,1629387413712,,,247,248,238,232,,-0.1,-0.11,1.63,1,2,5,0.15,,67,5888,4,32,53,0.667,0.0,602,4.91,13.2,0.0,1,32.2,2.33,6.3,0,0,0,1,0,,,,,,,,,,,,,,,,,,,,
18124,1629387413732,,,247,250,237,233,,-0.04,-0.09,1.81,1,-4,-2,0.09,,67,5859,5,32,54,0.667,0.0,596,4.89,13.2,0.0,1,32.4,2.34,6.3,0,0,0,1,0,,,,,,,,,,,,,,,,,,,,
18144,1629387413752,5,3,247,250,237,233,-4,0.01,-0.04,1.98,1,-9,-7,0.04,1,67,5888,4,32,53,0.667,0.0,596,4.9,13.2,0.0,1,32.2,2.33,6.3,0,0,0,1,0,0,250,250,0,49.330879,8.565146,0.0,120.2,9,2,1.5,0,0.0,-1,0.0,,0.0,0,0.0,0.3024
18164,1629387413772,,,247,250,238,232,,0.03,0.01,2.14,1,-13,-11,0.03,,67,5870,5,32,53,0.666,0.0,602,4.93,13.2,0.0,1,32.1,2.34,6.3,0,0,0,1,0,,,,,,,,,,,,,,,,,,,,
18184,1629387413793,,,247,250,238,233,,0.03,0.05,2.28,1,-14,-12,0.06,,67,5866,5,32,53,0.666,0.0,605,4.91,13.2,0.0,1,32.1,2.35,6.3,0,0,0,1,0,,,,,,,,,,,,,,,,,,,,
18204,1629387413813,,,247,250,238,233,,0.02,0.08,2.41,1,-11,-10,0.09,,67,5855,4,32,53,0.665,0.0,597,4.9,13.2,0.0,1,32.1,2.35,6.3,0,0,0,1,0,,,,,,,,,,,,,,,,,,,,
18224,1629387413833,,,247,250,238,233,,-0.02,0.1,2.23,1,-5,-5,0.1,,67,5839,5,32,53,0.664,0.0,596,4.81,13.1,0.0,1,32.1,2.36,6.3,0,0,0,1,0,,,,,,,,,,,,,,,,,,,,
18244,1629387413853,4,5,247,248,238,232,-4,-0.08,0.11,2.05,1,1,1,0.13,1,67,5853,4,32,53,0.663,0.0,598,4.87,13.0,0.0,1,32.1,2.34,6.3,0,0,0,1,0,0,250,250,0,49.330879,8.565146,0.0,120.2,9,2,1.5,0,0.0,-1,0.0,0.0,0.0,0,0.0,0.3041
18264,1629387413873,,,247,248,237,233,,-0.14,0.08,1.9,1,5,5,0.17,,67,5815,5,32,54,0.664,0.0,593,4.86,13.1,0.0,1,32.4,1.25,6.3,0,0,0,1,0,,,,,,,,,,,,,,,,,,,,
18284,1629387413894,,,247,248,237,233,,-0.14,0.03,1.75,1,8,7,0.15,,67,5833,5,32,54,0.665,0.0,588,4.82,13.0,0.0,1,32.4,1.24,6.3,0,0,0,1,0,,,,,,,,,,,,,,,,,,,,
18304,1629387413914,,,247,248,238,233,,-0.06,-0.02,1.83,1,4,4,0.06,,67,5822,5,32,54,0.666,0.0,589,4.86,13.1,0.0,1,32.4,2.37,6.3,0,0,0,1,0,,,,,,,,,,,,,,,,,,,,
18324,1629387413934,,,247,249,237,233,,0.04,-0.02,2.0,-0,1,-2,0.04,,67,5808,5,32,54,0.668,0.0,591,4.9,13.2,0.0,1,32.4,1.26,6.3,0,0,0,1,0,,,,,,,,,,,,,,,,,,,,
18344,1629387413954,4,5,247,250,238,233,-4,0.07,0.0,2.15,-0,-6,-7,0.07,1,67,5795,4,32,53,0.668,0.0,593,4.89,13.2,0.0,1,32.1,2.39,6.3,0,0,0,1,0,0,250,250,0,49.330879,8.565146,0.0,120.2,9,2,1.5,0,0.0,-1,0.0,,0.0,0,0.0,0.3057
18364,1629387413974,,,247,250,238,233,,0.05,0.03,2.29,-0,-7,-8,0.06,,67,5776,4,32,53,0.668,0.0,585,4.82,13.1,0.0,1,32.1,2.41,6.3,0,0,0,1,0,,,,,,,,,,,,,,,,,,,,
18384,1629387413994,,,247,250,238,233,,-0.01,0.05,2.12,0,-3,-4,0.05,,67,5797,5,32,54,0.667,0.0,582,4.84,12.9,0.0,1,32.4,2.38,6.3,0,0,0,1,0,,,,,,,,,,,,,,,,,,,,
18404,1629387414001,,,247,250,237,233,,-0.1,0.06,1.95,0,2,2,0.12,,67,5778,5,32,54,0.664,0.0,586,4.79,12.9,0.0,1,32.4,1.28,6.3,0,0,0,1,0,,,,,,,,,,,,,,,,,,,,
18424,1629387414021,,,247,249,238,232,,-0.13,0.03,1.8,0,5,6,0.14,,67,5778,5,32,54,0.663,0.0,591,4.8,13.0,0.0,1,32.4,1.28,6.3,0,0,0,1,0,,,,,,,,,,,,,,,,,,,,
18444,1629387414041,5,5,247,249,237,233,-4,-0.04,-0.03,1.8,-0,4,4,0.05,1,67,5760,5,32,54,0.663,0.0,591,4.91,13.1,0.0,1,32.4,1.29,6.3,0,0,0,1,0,0,250,250,0,49.330879,8.565146,0.0,120.2,9,2,1.5,0,0.0,-1,0.0,0.0,0.0,0,0.0,0.3074
18464,1629387414061,,,247,249,238,233,,0.06,0.01,1.97,-0,-3,-3,0.06,,67,5760,5,32,54,0.665,0.0,583,4.9,13.2,0.0,1,32.4,1.29,6.3,0,0,0,1,0,,,,,,,,,,,,,,,,,,,,
18484,1629387414093,,,247,250,237,233,,0.08,0.06,2.13,-0,-8,-7,0.1,,67,5758,5,32,54,0.668,0.0,588,4.86,13.2,0.0,1,32.4,2.41,6.3,0,0,0,1,0,,,,,,,,,,,,,,,,,,,,
18504,1629387414113,,,247,250,238,233,,0.02,0.07,2.14,-0,-4,-6,0.07,,67,5735,4,32,54,0.671,0.0,593,4.83,13.2,0.0,1,32.3,2.43,6.4,0,0,0,1,0,,,,,,,,,,,,,,,,,,,,
18524,1629387414133,,,247,250,237,233,,-0.09,0.04,1.98,-0,3,1,0.1,,67,5704,5,32,54,0.67,0.0,588,4.82,13.0,0.0,1,32.3,1.33,6.4,0,0,0,1,0,,,,,,,,,,,,,,,,,,,,
18544,1629387414153,3,5,247,249,238,233,-4,-0.2,0.03,1.82,-0,7,5,0.2,1,67,5704,4,32,54,0.669,0.0,582,4.87,13.0,0.0,1,32.3,1.33,6.4,0,0,0,1,0,0,250,250,0,49.330879,8.565146,0.0,120.2,9,2,1.5,0,0.0,-1,0.0,,0.0,0,0.0,0.3091
18564,1629387414173,,,247,248,237,233,,-0.22,-0.01,1.68,0,2,1,0.22,,67,5693,5,32,54,0.669,0.0,579,4.88,13.2,0.0,1,32.3,2.45,6.4,0,0,0,1,0,,,,,,,,,,,,,,,,,,,,
18584,1629387414193,,,247,249,238,233,,-0.08,-0.02,1.86,0,-7,-5,0.08,,67,5656,4,32,54,0.669,0.0,583,4.84,13.2,0.0,1,32.3,2.48,6.5,0,0,0,1,0,,,,,,,,,,,,,,,,,,,,
18604,1629387414213,,,247,250,237,233,,-0.04,0.03,2.03,0,-5,-4,0.05,,67,5644,5,32,54,0.668,0.0,579,4.83,13.1,0.0,1,32.3,2.49,6.5,0,0,0,1,0,,,,,,,,,,,,,,,,,,,,
18624,1629387414233,,,247,250,237,233,,-0.14,0.03,1.87,1,2,4,0.14,,67,5612,5,32,55,0.666,0.0,567,4.85,13.1,0.0,1,32.4,2.5,6.5,0,0,0,1,0,,,,,,,,,,,,,,,,,,,,
18644,1629387414253,4,5,247,247,238,233,-4,-0.19,-0.03,1.73,1,-1,1,0.19,1,67,5617,4,32,55,0.668,0.0,572,4.92,13.2,0.0,1,32.4,2.5,6.5,0,0,0,1,0,0,250,250,0,49.330879,8.565146,0.0,120.2,9,2,1.5,0,0.0,-1,0.0,0.0,0.0,0,0.0,0.3107
18664,1629387414273,,,247,248,238,233,,-0.06,-0.03,1.9,1,-9,-5,0.07,,67,5582,4,32,55,0.671,0.0,574,4.91,13.2,0.0,1,32.4,2.52,6.5,0,0,0,1,0,,,,,,,,,,,,,,,,,,,,
18684,1629387414291,,,247,250,237,233,,-0.06,0.05,2.06,1,-4,-2,0.08,,68,5595,5,32,55,0.67,0.0,570,4.82,13.1,0.0,1,32.4,2.51,6.5,0,0,0,1,0,,,,,,,,,,,,,,,,,,,,
18704,1629387414311,,,247,249,238,232,,-0.17,0.04,1.9,1,2,4,0.17,,67,5603,5,32,55,0.669,0.0,563,4.82,13.0,0.0,1,32.4,1.38,6.5,0,0,0,1,0,,,,,,,,,,,,,,,,,,,,
18724,1629387414331,,,247,248,238,233,,-0.14,-0.05,1.76,0,-1,1,0.15,,67,5595,4,32,55,0.669,0.0,570,4.87,13.2,0.0,1,32.4,2.51,6.5,0,0,0,1,0,,,,,,,,,,,,,,,,,,,,
18744,1629387414351,5,4,247,250,237,232,-4,-0.04,0.0,1.93,0,-6,-3,0.04,1,68,5570,4,32,55,0.669,0.0,572,4.88,13.2,0.0,1,32.4,2.53,6.5,0,0,0,1,0,0,250,250,0,49.330879,8.565146,0.0,120.2,9,2,1.5,0,0.0,-1,0.0,,0.0,0,0.0,0.3124
18764,1629387414371,,,247,250,237,233,,-0.08,0.06,2.08,0,1,4,0.1,,68,5595,5,32,56,0.67,0.0,569,4.81,13.0,0.0,1,32.7,2.5,6.5,0,0,0,1,0,,,,,,,,,,,,,,,,,,,,
18784,1629387414393,,,247,248,237,233,,-0.15,0.02,1.92,0,3,5,0.15,,68,5560,5,32,56,0.671,0.0,565,4.85,13.1,0.0,1,32.7,1.4,6.4,0,0,0,1,0,,,,,,,,,,,,,,,,,,,,
18804,1629387414413,,,247,248,237,233,,-0.03,-0.03,2.08,-0,-5,-2,0.04,,68,5588,4,32,56,0.673,0.0,571,4.94,13.2,0.0,1,32.7,2.51,6.4,0,0,0,1,0,,,,,,,,,,,,,,,,,,,,
18824,1629387414433,,,247,250,237,232,,-0.02,0.04,2.23,-0,-2,-2,0.05,,68,5560,5,32,56,0.673,0.0,570,4.81,12.9,0.0,1,32.7,2.52,6.4,0,0,0,1,0,,,,,,,,,,,,,,,,,,,,
18844,1629387414453,5,5,247,250,238,233,-4,-0.13,0.06,2.06,0,5,5,0.14,1,68,5567,5,32,56,0.671,0.0,568,4.81,13.0,0.0,1,32.7,1.4,6.4,0,0,0,1,0,0,250,250,0,49.330879,8.565146,0.0,120.2,9,2,1.5,0,0.0,-1,0.0,0.0,0.0,0,0.0,0.3141
18864,1629387414473,,,247,247,237,233,,-0.11,-0.02,1.9,0,0,1,0.11,,68,5598,5,32,56,0.673,0.0,571,4.9,13.2,0.0,1,32.7,1.38,6.4,0,0,0,1,0,,,,,,,,,,,,,,,,,,,,
18884,1629387414493,,,247,249,237,233,,-0.0,0.01,2.06,0,-6,-4,0.01,,68,5553,5,32,56,0.675,0.0,573,4.9,13.2,0.0,1,32.7,2.53,6.5,0,0,0,1,0,,,,,,,,,,,,,,,,,,,,
18904,1629387414513,,,247,250,237,233,,-0.04,0.05,2.21,0,1,2,0.06,,68,5617,5,32,56,0.673,0.0,568,4.83,13.0,0.0,1,32.7,2.49,6.5,0,0,0,1,0,,,,,,,,,,,,,,,,,,,,
18924,1629387414533,,,247,248,237,233,,-0.14,0.0,2.04,0,4,5,0.14,,68,5592,5,32,56,0.672,0.0,565,4.84,13.0,0.0,1,32.7,1.38,6.5,0,0,0,1,0,,,,,,,,,,,,,,,,,,,,
18944,1629387414553,3,5,247,247,237,233,-4,-0.04,-0.07,1.9,0,-4,-2,0.08,1,68,5613,5,32,56,0.674,0.0,570,4.9,13.2,0.0,1,32.7,1.37,6.5,0,0,0,1,0,0,250,250,0,49.330879,8.565146,0.0,120.2,9,2,1.5,0,0.0,-1,0.0,,0.0,0,0.0,0.3157
18964,1629387414573,,,247,250,237,233,,0.01,0.02,2.06,0,-6,-4,0.03,,68,5615,5,32,56,0.675,0.0,578,4.82,13.1,0.0,1,32.7,2.49,6.5,0,0,0,1,0,,,,,,,,,,,,,,,,,,,,
18984,1629387414593,,,247,250,237,233,,-0.06,0.07,1.9,0,2,3,0.09,,68,5612,5,32,56,0.672,0.0,577,4.77,13.0,0.0,1,32.7,2.49,6.4,0,0,0,1,0,,,,,,,,,,,,,,,,,,,,
19004,1629387414613,,,247,248,238,233,,-0.13,0.02,1.76,1,3,4,0.13,,68,5612,5,32,56,0.672,0.0,568,4.86,13.1,0.0,1,32.7,2.49,6.4,0,0,0,1,0,,,,,,,,,,,,,,,,,,,,
19024,1629387414633,,,247,249,237,233,,-0.0,-0.03,1.93,0,-3,-4,0.04,,68,5615,5,32,56,0.674,0.0,571,4.92,13.2,0.0,1,32.7,2.49,6.4,0,0,0,1,0,,,,,,,,,,,,,,,,,,,,
19044,1629387414653,5,5,247,250,238,232,-4,0.03,0.04,2.09,0,-3,-4,0.05,1,68,5605,4,32,56,0.673,0.0,574,4.86,13.2,0.0,1,32.7,2.49,6.4,0,0,0,1,0,0,250,250,0,49.330879,8.565146,0.0,120.2,9,2,1.5,0,0.0,-1,0.0,0.0,0.0,0,0.0,0.3174
19064,1629387414673,,,247,250,237,233,,-0.06,0.07,1.93,0,4,4,0.09,,68,5628,5,32,56,0.671,0.0,568,4.84,12.9,0.0,1,32.7,1.36,6.4,0,0,0,1,0,,,,,,,,,,,,,,,,,,,,
19084,1629387414693,,,247,249,237,232,,-0.11,0.03,1.78,-0,4,4,0.12,,68,5637,5,32,56,0.672,0.0,570,4.89,13.2,0.0,1,32.7,2.47,6.4,0,0,0,1,0,,,,,,,,,,,,,,,,,,,,
19104,1629387414713,,,247,249,237,232,,0.01,-0.01,1.95,0,-4,-3,0.01,,68,5613,4,32,56,0.673,0.0,572,4.92,13.2,0.0,1,32.7,2.49,6.4,0,0,0,1,0,,,,,,,,,,,,,,,,,,,,
19124,1629387414733,,,247,250,237,233,,0.02,0.06,2.11,0,-3,-4,0.07,,68,5645,5,32,56,0.672,0.0,572,4.81,13.0,0.0,1,32.7,2.47,6.4,0,0,0,1,0,,,,,,,,,,,,,,,,,,,,
19144,1629387414753,3,5,247,250,238,233,-4,-0.07,0.07,1.95,0,4,3,0.1,1,68,5617,5,32,56,0.671,0.0,570,4.82,12.9,0.0,1,32.7,1.37,6.4,0,0,0,1,0,0,250,250,0,49.330879,8.565146,0.0,120.2,9,2,1.5,0,0.0,-1,0.0,,0.0,0,0.0,0.3191
19164,1629387414773,,,247,248,237,233,,-0.13,0.03,1.8,0,5,3,0.13,,68,5618,5,32,56,0.672,0.0,566,4.85,13.1,0.0,1,32.7,1.36,6.4,0,0,0,1,0,,,,,,,,,,,,,,,,,,,,
19184,1629387414793,,,247,249,237,233,,0.0,-0.01,1.96,0,-3,-3,0.01,,68,5647,5,32,56,0.672,0.0,575,4.85,13.2,0.0,1,32.7,2.47,6.4,0,0,0,1,0,,,,,,,,,,,,,,,,,,,,
19204,1629387414813,,,247,250,238,233,,0.04,0.05,2.12,0,-4,-4,0.07,,68,5635,4,32,56,0.671,0.0,578,4.87,13.2,0.0,1,32.7,2.47,6.4,0,0,0,1,0,,,,,,,,,,,,,,,,,,,,
19224,1629387414833,,,247,250,237,233,,-0.04,0.06,1.96,0,2,3,0.07,,68,5644,5,32,56,0.67,0.0,570,4.84,13.0,0.0,1,32.7,2.47,6.4,0,0,0,1,0,,,,,,,,,,,,,,,,,,,,
19244,1629387414853,5,4,247,249,237,233,-4,-0.13,0.0,1.81,0,3,4,0.13,1,68,5659,5,32,56,0.671,0.0,571,4.91,13.2,0.0,1,32.7,2.46,6.4,0,0,0,1,0,0,250,250,0,49.330879,8.565146,0.0,120.2,9,2,1.5,0,0.0,-1,0.0,0.0,0.0,0,0.0,0.3207
19264,1629387414873,,,247,247,237,233,,-0.04,-0.05,1.86,1,-5,-2,0.06,,68,5652,5,32,56,0.672,0.0,578,4.88,13.2,0.0,1,32.7,1.34,6.4,0,0,0,1,0,,,,,,,,,,,,,,,,,,,,
19284,1629387414893,,,247,250,237,233,,0.02,0.03,2.02,1,-8,-5,0.04,,68,5650,5,32,56,0.672,0.0,583,4.89,13.2,0.0,1,32.7,2.46,6.4,0,0,0,1,0,,,,,,,,,,,,,,,,,,,,
19304,1629387414913,,,247,250,237,233,,-0.01,0.07,2.18,1,-2,-0,0.08,,68,5678,5,32,56,0.672,0.0,576,4.81,13.0,0.0,1,32.7,2.44,6.4,0,0,0,1,0,,,,,,,,,,,,,,,,,,,,
19324,1629387414933,,,247,248,237,233,,-0.12,0.05,2.01,1,5,6,0.13,,68,5680,5,32,56,0.672,0.0,573,4.88,13.1,0.0,1,32.7,2.44,6.4,0,0,0,1,0,,,,,,,,,,,,,,,,,,,,
19344,1629387414953,4,5,247,248,238,233,-4,-0.11,-0.03,1.85,1,3,5,0.11,1,68,5681,5,32,56,0.672,0.0,576,4.87,13.1,0.0,1,32.7,1.32,6.4,0,0,0,1,0,0,250,250,0,49.330879,8.565146,0.0,120.2,9,2,1.5,0,0.0,-1,0.0,,0.0,0,0.0,0.3224
19364,1629387414973,,,247,250,237,233,,0.01,-0.03,2.02,1,-5,-3,0.03,,68,5688,4,32,56,0.672,0.0,576,4.87,13.2,0.0,1,32.7,2.44,6.4,0,0,0,1,0,,,,,,,,,,,,,,,,,,,,
19384,1629387414993,,,247,250,238,233,,0.04,0.03,2.17,1,-6,-5,0.05,,68,5712,4,32,56,0.673,0.0,575,4.86,13.2,0.0,1,32.7,2.42,6.4,0,0,0,1,0,,,,,,,,,,,,,,,,,,,,
19404,1629387415000,,,247,250,237,233,,-0.02,0.05,2.0,1,-1,0,0.05,,68,5690,5,32,56,0.674,0.0,574,4.81,13.0,0.0,1,32.7,2.44,6.4,0,0,0,1,0,,,,,,,,,,,,,,,,,,,,
19424,1629387415020,,,247,249,237,233,,-0.11,0.05,1.85,1,3,5,0.12,,68,5723,5,32,56,0.672,0.0,576,4.81,13.0,0.0,1,32.7,1.29,6.4,0,0,0,1,0,,,,,,,,,,,,,,,,,,,,
19444,1629387415040,5,5,247,248,238,233,-4,-0.1,-0.02,1.71,0,2,3,0.1,1,68,5709,4,32,56,0.673,0.0,577,4.86,13.1,0.0,1,32.7,1.3,6.4,0,0,0,1,0,0,250,250,0,49.330879,8.565146,0.0,120.2,9,2,1.5,0,0.0,-1,0.0,0.0,0.0,0,0.0,0.3241
19464,1629387415060,,,247,249,237,233,,0.01,-0.01,1.88,-0,-4,-4,0.02,,68,5693,5,32,56,0.675,0.0,574,4.85,13.2,0.0,1,32.7,2.44,6.4,0,0,0,1,0,,,,,,,,,,,,,,,,,,,,
19484,1629387415094,,,247,250,237,233,,0.03,0.05,2.05,-0,-4,-5,0.05,,68,5686,5,32,56,0.677,0.0,576,4.88,13.2,0.0,1,32.7,2.45,6.4,0,0,0,1,0,,,,,,,,,,,,,,,,,,,,
19504,1629387415114,,,247,250,238,233,,-0.04,0.05,1.89,0,2,1,0.07,,68,5702,5,32,56,0.675,0.0,578,4.82,13.0,0.0,1,32.7,2.43,6.4,0,0,0,1,0,,,,,,,,,,,,,,,,,,,,
19524,1629387415134,,,247,249,237,233,,-0.14,0.04,1.74,0,7,5,0.14,,68,5688,5,32,56,0.673,0.0,579,4.84,13.0,0.0,1,32.7,1.32,6.4,0,0,0,1,0,,,,,,,,,,,,,,,,,,,,
19544,1629387415154,5,3,247,248,237,233,-3,-0.09,-0.01,1.61,-0,5,3,0.09,1,68,5678,4,32,56,0.673,0.0,573,4.88,13.2,0.0,1,32.7,1.32,6.4,0,0,0,1,0,0,250,250,0,49.330879,8.565146,0.0,120.2,9,2,1.5,0,0.0,-1,0.0,,0.0,0,0.0,0.3257
19564,1629387415174,,,247,248,238,233,,0.03,0.0,1.79,-0,-2,-4,0.03,,68,5700,4,32,55,0.677,0.0,577,4.88,13.2,0.0,1,32.5,2.44,6.4,0,0,0,1,0,,,,,,,,,,,,,,,,,,,,
19584,1629387415192,,,247,250,238,232,,0.05,0.05,1.96,-0,-3,-5,0.07,,68,5688,4,32,55,0.679,0.0,582,4.88,13.2,0.0,1,32.5,2.45,6.4,0,0,0,1,0,,,,,,,,,,,,,,,,,,,,
19604,1629387415212,,,247,250,237,233,,-0.03,0.05,1.81,-0,4,2,0.06,,68,5699,4,32,56,0.677,0.0,582,4.83,13.0,0.0,1,32.7,2.43,6.4,0,0,0,1,0,,,,,,,,,,,,,,,,,,,,
19624,1629387415232,,,247,248,238,233,,-0.13,0.0,1.67,-0,8,6,0.13,,68,5678,4,32,56,0.677,0.0,576,4.82,13.0,0.0,1,32.7,1.32,6.4,0,0,0,1,0,,,,,,,,,,,,,,,,,,,,
19644,1629387415252,4,3,247,248,237,233,-4,-0.06,-0.06,1.54,-0,3,1,0.09,1,68,5685,4,32,56,0.678,0.0,577,4.93,13.2,0.0,1,32.7,1.32,6.4,0,0,0,1,0,0,250,250,0,49.330879,8.565146,0.0,120.2,9,2,1.5,0,0.0,-1,0.0,0.0,0.0,0,0.0,0.3274
19664,1629387415272,,,247,250,237,233,,0.03,-0.0,1.73,-0,-4,-5,0.03,,68,5673,4,32,56,0.681,0.0,581,4.92,13.2,0.0,1,32.7,2.46,6.4,0,0,0,1,0,,,,,,,,,,,,,,,,,,,,
19684,1629387415292,,,247,250,237,232,,0.02,0.05,1.91,-0,-2,-5,0.05,,68,5671,4,32,56,0.681,0.0,576,4.81,13.2,0.0,1,32.7,2.45,6.4,0,0,0,1,0,,,,,,,,,,,,,,,,,,,,
19704,1629387415312,,,247,250,237,233,,-0.08,0.05,1.76,0,5,3,0.1,,68,5645,5,32,55,0.679,0.0,572,4.8,12.9,0.0,1,32.5,1.36,6.4,0,0,0,1,0,,,,,,,,,,,,,,,,,,,,
19724,1629387415332,,,247,248,237,233,,-0.1,-0.02,1.62,0,6,4,0.1,,68,5647,5,32,56,0.678,0.0,574,4.9,13.2,0.0,1,32.7,2.48,6.4,0,0,0,1,0,,,,,,,,,,,,,,,,,,,,
19744,1629387415352,3,5,247,249,237,233,-4,0.02,-0.03,1.81,0,-1,-4,0.04,1,68,5657,5,32,56,0.68,0.0,576,4.85,13.2,0.0,1,32.7,2.46,6.4,0,0,0,1,0,0,250,250,0,49.330879,8.565146,0.0,120.2,9,2,1.5,0,0.0,-1,0.0,,0.0,0,0.0,0.3291
19764,1629387415372,,,247,250,237,233,,0.04,0.02,1.97,-0,-3,-5,0.04,,68,5634,4,32,56,0.682,0.0,573,4.88,13.2,0.0,1,32.7,2.47,6.4,0,0,0,1,0,,,,,,,,,,,,,,,,,,,,
19784,1629387415394,,,247,250,238,233,,-0.06,0.05,1.82,-0,4,2,0.07,,68,5637,4,32,56,0.682,0.0,567,4.83,13.0,0.0,1,32.7,2.47,6.4,0,0,0,1,0,,,,,,,,,,,,,,,,,,,,
19804,1629387415414,,,247,248,237,233,,-0.1,-0.0,1.68,-0,6,5,0.1,,68,5617,5,32,56,0.68,0.0,567,4.86,13.1,0.0,1,32.7,1.37,6.4,0,0,0,1,0,,,,,,,,,,,,,,,,,,,,
19824,1629387415434,,,247,248,237,233,,0.02,-0.03,1.86,-1,-0,-3,0.03,,68,5623,5,32,56,0.68,0.0,576,4.91,13.2,0.0,1,32.7,1.36,6.4,0,0,0,1,0,,,,,,,,,,,,,,,,,,,,
19844,1629387415454,4,3,247,250,237,233,-4,0.01,0.03,2.02,-1,-2,-4,0.04,1,68,5597,4,32,56,0.68,0.0,571,4.8,13.0,0.0,1,32.7,2.5,6.4,0,0,0,1,0,0,250,250,0,49.330879,8.565146,0.0,120.2,9,2,1.5,0,0.0,-1,0.0,0.0,0.0,0,0.0,0.3307
19864,1629387415474,,,247,250,238,233,,-0.1,0.03,1.87,-0,6,3,0.1,,68,5620,5,32,56,0.68,0.0,566,4.82,13.0,0.0,1,32.7,2.48,6.4,0,0,0,1,0,,,,,,,,,,,,,,,,,,,,
19884,1629387415494,,,247,248,237,233,,-0.1,-0.02,1.72,-1,8,3,0.11,,68,5608,5,32,56,0.679,0.0,569,4.9,13.2,0.0,1,32.7,2.49,6.4,0,0,0,1,0,,,,,,,,,,,,,,,,,,,,
19904,1629387415514,,,247,249,237,233,,0.03,-0.01,1.9,-1,-1,-4,0.03,,68,5602,5,32,56,0.679,0.0,570,4.93,13.2,0.0,1,32.7,2.5,6.4,0,0,0,1,0,,,,,,,,,,,,,,,,,,,,
19924,1629387415534,,,247,250,237,233,,0.01,0.04,2.06,-1,-0,-3,0.04,,68,5613,4,32,56,0.679,0.0,568,4.84,13.0,0.0,1,32.7,2.49,6.4,0,0,0,1,0,,,,,,,,,,,,,,,,,,,,
19944,1629387415554,4,5,247,250,238,232,-4,-0.1,0.01,1.9,-0,6,4,0.1,1,68,5603,5,32,56,0.678,0.0,565,4.83,13.1,0.0,1,32.7,2.49,6.4,0,0,0,1,0,0,250,250,0,49.330879,8.565146,0.0,120.2,9,2,1.5,0,0.0,-1,0.0,,0.0,0,0.0,0.3324
19964,1629387415574,,,247,248,237,233,,-0.07,-0.07,1.75,-1,5,3,0.09,,68,5612,5,32,56,0.68,0.0,569,4.87,13.1,0.0,1,32.7,1.37,6.4,0,0,0,1,0,,,,,,,,,,,,,,,,,,,,
19984,1629387415594,,,247,248,237,233,,0.02,-0.0,1.93,-0,-3,-4,0.02,,68,5593,4,32,56,0.68,0.0,575,4.94,13.3,0.0,1,32.7,2.5,6.4,0,0,0,1,0,,,,,,,,,,,,,,,,,,,,
20004,1629387415614,,,247,250,238,232,,-0.03,0.05,2.09,-1,2,-1,0.06,,68,5600,5,32,56,0.679,0.0,569,4.84,13.1,0.0,1,32.7,2.5,6.4,0,0,0,1,0,,,,,,,,,,,,,,,,,,,,
20024,1629387415634,,,247,250,238,233,,-0.11,0.02,1.93,-0,8,5,0.11,,68,5610,5,32,56,0.678,0.0,568,4.86,13.0,0.0,1,32.7,2.49,6.4,0,0,0,1,0,,,,,,,,,,,,,,,,,,,,
20044,1629387415654,5,4,247,249,237,232,-4,-0.01,-0.06,1.93,-1,4,2,0.06,1,68,5602,5,32,56,0.681,0.0,573,4.88,13.2,0.0,1,32.7,2.5,6.4,0,0,0,1,0,0,250,250,0,49.330879,8.565146,0.0,120.2,9,2,1.5,0,0.0,-1,0.0,0.0,0.0,0,0.0,0.3341
20064,1629387415674,,,247,250,237,233,,0.04,0.02,2.09,-1,-2,-3,0.04,,68,5605,5,32,56,0.681,0.0,573,4.89,13.2,0.0,1,32.7,2.49,6.4,0,0,0,1,0,,,,,,,,,,,,,,,,,,,,
20084,1629387415696,,,247,250,237,232,,-0.03,0.06,1.93,-0,2,0,0.07,,68,5613,5,32,56,0.679,0.0,563,4.81,13.1,0.0,1,32.7,2.49,6.4,0,0,0,1,0,,,,,,,,,,,,,,,,,,,,
20104,1629387415716,,,247,250,238,233,,-0.1,0.01,1.78,-0,6,5,0.1,,68,5607,5,32,56,0.679,0.0,567,4.88,13.2,0.0,1,32.7,2.49,6.4,0,0,0,1,0,,,,,,,,,,,,,,,,,,,,
20124,1629387415736,,,247,249,237,233,,0.02,-0.04,1.95,-0,-1,1,0.04,,68,5647,5,32,56,0.682,0.0,573,4.88,13.2,0.0,1,32.7,1.35,6.4,0,0,0,1,0,,,,,,,,,,,,,,,,,,,,
20144,1629387415756,4,6,247,249,238,232,-4,0.04,0.04,2.11,-0,-5,-4,0.05,1,68,5605,5,32,56,0.682,0.0,573,4.83,13.1,0.0,1,32.7,2.49,6.4,0,0,0,1,0,0,250,250,0,49.330879,8.565146,0.0,120.2,9,2,1.5,0,0.0,-1,0.0,,0.0,0,0.0,0.3357
20164,1629387415776,,,247,250,237,233,,-0.06,0.05,1.95,0,1,1,0.07,,68,5625,5,32,56,0.68,0.0,568,4.81,13.1,0.0,1,32.7,2.48,6.4,0,0,0,1,0,,,,,,,,,,,,,,,,,,,,
20184,1629387415796,,,247,250,237,233,,-0.11,0.01,1.8,0,5,5,0.11,,68,5597,5,32,56,0.68,0.0,566,4.88,13.0,0.0,1,32.7,1.38,6.4,0,0,0,1,0,,,,,,,,,,,,,,,,,,,,
20204,1629387415816,,,247,248,237,233,,0.03,-0.01,1.97,0,-1,-0,0.03,,68,5617,5,32,56,0.682,0.0,570,4.91,13.2,0.0,1,32.7,1.37,6.4,0,0,0,1,0,,,,,,,,,,,,,,,,,,,,
20224,1629387415836,,,247,249,238,232,,0.04,0.05,2.12,0,-5,-3,0.06,,68,5585,4,32,56,0.681,0.0,563,4.85,13.1,0.0,1,32.7,2.51,6.4,0,0,0,1,0,,,,,,,,,,,,,,,,,,,,
20244,1629387415856,4,5,247,250,237,233,-4,-0.07,0.05,1.96,1,2,4,0.09,1,68,5610,5,32,56,0.679,0.0,561,4.83,13.0,0.0,1,32.7,2.49,6.4,0,0,0,1,0,0,250,250,0,49.330879,8.565146,0.0,120.2,9,2,1.5,0,0.0,-1,0.0,0.0,0.0,0,0.0,0.3374
20264,1629387415876,,,247,248,238,233,,-0.07,-0.04,1.81,0,3,4,0.08,,68,5577,5,32,56,0.68,0.0,563,4.85,13.1,0.0,1,32.7,1.39,6.4,0,0,0,1,0,,,,,,,,,,,,,,,,,,,,
20284,1629387415896,,,247,247,237,233,,0.03,0.0,1.98,0,-4,-2,0.03,,68,5613,5,32,56,0.681,0.0,571,4.83,13.2,0.0,1,32.7,2.49,6.4,0,0,0,1,0,,,,,,,,,,,,,,,,,,,,
20304,1629387415916,,,247,250,237,233,,-0.01,0.07,2.13,0,-4,-4,0.07,,68,5550,5,32,56,0.68,0.0,570,4.84,13.2,0.0,1,32.7,2.53,6.4,0,0,0,1,0,,,,,,,,,,,,,,,,,,,,
20324,1629387415936,,,247,250,237,233,,-0.11,0.04,1.97,0,3,4,0.11,,68,5593,5,32,56,0.678,0.0,563,4.86,13.1,0.0,1,32.7,2.5,6.4,0,0,0,1,0,,,,,,,,,,,,,,,,,,,,
20344,1629387415956,4,5,247,248,238,233,-4,-0.01,-0.06,1.82,-0,3,2,0.06,1,68,5582,4,32,56,0.68,0.0,572,4.93,13.3,0.0,1,32.7,2.51,6.4,0,0,0,1,0,0,250,250,0,49.330879,8.565146,0.0,120.2,9,2,1.5,0,0.0,-1,0.0,,0.0,0,0.0,0.3391
20364,1629387415976,,,247,249,237,233,,0.03,0.0,1.98,-0,-5,-4,0.03,,68,5600,4,32,56,0.68,0.0,575,4.91,13.3,0.0,1,32.7,2.5,6.4,0,0,0,1,0,,,,,,,,,,,,,,,,,,,,
20384,1629387415996,,,247,250,237,233,,-0.05,0.06,1.83,0,-1,-1,0.08,,68,5575,5,32,56,0.678,0.0,566,4.78,12.9,0.0,1,32.7,2.51,6.4,0,0,0,1,0,,,,,,,,,,,,,,,,,,,,
20404,1629387416003,,,247,250,238,233,,-0.1,-0.01,1.69,0,3,4,0.1,,68,5602,4,32,56,0.677,0.0,563,4.81,13.0,0.0,1,32.7,1.37,6.4,0,0,0,1,0,,,,,,,,,,,,,,,,,,,,
20424,1629387416023,,,247,249,238,233,,0.02,-0.04,1.87,-0,-1,-1,0.04,,68,5612,5,32,56,0.68,0.0,573,4.83,13.2,0.0,1,32.7,2.49,6.4,0,0,0,1,0,,,,,,,,,,,,,,,,,,,,
20444,1629387416043,4,4,247,250,237,233,-3,0.02,0.03,2.03,-1,-4,-5,0.04,1,68,5615,5,32,56,0.681,0.0,572,4.9,13.2,0.0,1,32.7,2.49,6.4,0,0,0,1,0,0,250,250,0,49.330879,8.565146,0.0,120.2,9,2,1.8,0,0.0,-1,0.0,0.0,0.0,0,0.0,0.3407
20464,1629387416063,,,247,250,238,233,,-0.09,0.04,1.87,-0,4,1,0.1,,68,5623,5,32,56,0.679,0.0,566,4.81,13.0,0.0,1,32.7,2.48,6.4,0,0,0,1,0,,,,,,,,,,,,,,,,,,,,
20484,1629387416093,,,247,250,237,233,,-0.13,-0.0,1.73,-0,8,5,0.13,,68,5661,4,32,56,0.679,0.0,568,4.85,13.0,0.0,1,32.7,1.34,6.4,0,0,0,1,0,,,,,,,,,,,,,,,,,,,,
20504,1629387416113,,,247,248,237,233,,0.01,-0.03,1.9,-1,2,1,0.03,,68,5632,5,32,56,0.681,0.0,576,4.84,13.2,0.0,1,32.7,2.48,6.4,0,0,0,1,0,,,,,,,,,,,,,,,,,,,,
20524,1629387416133,,,247,250,237,233,,0.03,0.03,2.07,-1,-4,-4,0.04,,68,5671,5,32,56,0.681,0.0,571,4.9,13.2,0.0,1,32.7,2.45,6.4,0,0,0,1,0,,,,,,,,,,,,,,,,,,,,
20544,1629387416153,3,5,247,250,238,232,-3,-0.06,0.03,1.91,-1,2,1,0.07,1,68,5613,5,32,56,0.68,0.0,566,4.83,13.1,0.0,1,32.7,2.49,6.4,0,0,0,1,0,0,250,250,0,49.330879,8.565146,0.0,120.2,9,2,1.8,0,0.0,-1,0.0,,0.0,0,0.0,0.3424
20564,1629387416173,,,247,250,237,233,,-0.13,-0.02,1.76,-1,7,6,0.14,,68,5647,4,32,56,0.68,0.0,567,4.86,13.0,0.0,1,32.7,2.47,6.4,0,0,0,1,0,,,,,,,,,,,,,,,,,,,,
20584,1629387416196,,,247,248,237,233,,-0.03,-0.05,1.93,-0,1,3,0.06,,68,5654,4,32,56,0.681,0.0,575,4.88,13.2,0.0,1,32.7,2.46,6.4,0,0,0,1,0,,,,,,,,,,,,,,,,,,,,
20604,1629387416216,,,247,248,238,233,,0.08,-0.05,2.09,-0,-6,-3,0.09,,68,5630,5,32,56,0.681,0.0,575,4.85,13.3,0.0,1,32.7,2.48,6.4,0,0,0,1,0,,,,,,,,,,,,,,,,,,,,
20624,1629387416236,,,247,250,237,233,,0.09,0.04,2.24,-0,-3,-2,0.1,,68,5640,5,32,56,0.68,0.0,570,4.83,13.2,0.0,1,32.7,2.47,6.4,0,0,0,1,0,,,,,,,,,,,,,,,,,,,,
20644,1629387416256,5,5,247,250,238,233,-4,-0.01,0.07,2.06,0,3,5,0.07,1,68,5615,5,32,56,0.68,0.0,569,4.81,13.0,0.0,1,32.7,1.37,6.4,0,0,0,1,0,0,250,250,0,49.330879,8.565146,0.0,120.2,9,2,1.8,0,0.0,-1,0.0,0.0,0.0,0,0.0,0.3441
20664,1629387416276,,,247,248,238,233,,-0.06,0.0,1.91,0,1,2,0.06,,68,5657,5,32,56,0.68,0.0,571,4.85,13.1,0.0,1,32.7,1.34,6.4,0,0,0,1,0,,,,,,,,,,,,,,,,,,,,
20684,1629387416295,,,247,249,238,232,,0.05,-0.03,2.07,-0,-6,-5,0.06,,68,5620,4,32,56,0.679,0.0,572,4.93,13.3,0.0,1,32.7,2.48,6.4,0,0,0,1,0,,,,,,,,,,,,,,,,,,,,
20704,1629387416315,,,247,250,238,233,,0.08,0.03,2.21,-0,-3,-4,0.08,,68,5662,5,32,56,0.679,0.0,568,4.82,13.2,0.0,1,32.7,2.45,6.4,0,0,0,1,0,,,,,,,,,,,,,,,,,,,,
20724,1629387416335,,,247,250,238,233,,0.0,0.06,2.04,-0,2,3,0.06,,68,5620,5,32,56,0.679,0.0,571,4.8,12.9,0.0,1,32.7,1.36,6.4,0,0,0,1,0,,,,,,,,,,,,,,,,,,,,
20744,1629387416355,4,5,247,249,238,233,-3,-0.08,0.03,1.89,-0,2,3,0.08,1,68,5662,5,32,56,0.679,0.0,573,4.88,13.2,0.0,1,32.7,2.45,6.4,0,0,0,1,0,0,250,250,0,49.330879,8.565146,0.0,120.2,9,2,1.8,0,0.0,-1,0.0,,0.0,0,0.0,0.3457
20764,1629387416375,,,247,248,237,233,,0.03,-0.03,2.05,-1,-4,-4,0.04,,68,5637,4,32,56,0.679,0.0,570,4.85,13.2,0.0,1,32.7,2.47,6.4,0,0,0,1,0,,,,,,,,,,,,,,,,,,,,
20784,1629387416395,,,247,250,237,232,,0.07,0.04,2.2,-0,-3,-5,0.08,,68,5652,4,32,56,0.679,0.0,570,4.88,13.2,0.0,1,32.7,2.46,6.4,0,0,0,1,0,,,,,,,,,,,,,,,,,,,,
20804,1629387416415,,,247,250,237,233,,0.01,0.06,2.14,-0,4,2,0.06,,68,5666,5,32,56,0.679,0.0,573,4.82,13.0,0.0,1,32.7,2.45,6.4,0,0,0,1,0,,,,,,,,,,,,,,,,,,,,
20824,1629387416435,,,247,249,237,233,,-0.09,0.04,1.98,-0,6,4,0.1,,68,5642,5,32,56,0.679,0.0,572,4.83,13.1,0.0,1,32.7,1.35,6.4,0,0,0,1,0,,,,,,,,,,,,,,,,,,,,
20844,1629387416455,4,5,247,248,237,233,-4,-0.03,-0.02,1.82,-1,0,-1,0.04,1,68,5690,5,32,56,0.68,0.0,571,4.9,13.3,0.0,1,32.7,1.32,6.4,0,0,0,1,0,0,250,250,0,49.330879,8.565146,0.0,120.2,9,2,1.8,0,0.0,-1,0.0,0.0,0.0,0,0.0,0.3474
20864,1629387416475,,,246,250,237,233,,0.07,0.01,1.99,-1,-6,-5,0.07,,68,5632,5,32,56,0.68,0.0,567,4.84,13.2,0.0,1,32.7,2.48,6.4,0,0,0,1,0,,,,,,,,,,,,,,,,,,,,
20884,1629387416495,,,247,250,237,232,,0.06,0.05,2.14,-0,-1,-1,0.08,,68,5697,5,32,56,0.681,0.0,571,4.82,13.1,0.0,1,32.7,2.43,6.4,0,0,0,1,0,,,,,,,,,,,,,,,,,,,,
20904,1629387416515,,,247,248,237,233,,-0.04,0.03,1.98,-0,5,5,0.05,,68,5688,5,32,56,0.68,0.0,573,4.85,13.0,0.0,1,32.7,2.44,6.4,0,0,0,1,0,,,,,,,,,,,,,,,,,,,,
20924,1629387416535,,,247,248,237,233,,-0.11,-0.03,1.83,-0,4,4,0.11,,68,5700,5,32,56,0.679,0.0,572,4.85,13.1,0.0,1,32.7,1.31,6.4,0,0,0,1,0,,,,,,,,,,,,,,,,,,,,
20944,1629387416555,5,5,247,248,237,233,-4,-0.02,-0.06,1.99,-0,-2,-3,0.07,1,68,5719,4,32,56,0.68,0.0,573,4.89,13.2,0.0,1,32.7,1.3,6.4,0,0,0,1,0,0,250,250,0,49.330879,8.565146,0.0,120.2,9,2,1.8,0,0.0,-1,0.0,,0.0,0,0.0,0.3491
20964,1629387416575,,,247,250,237,233,,0.06,0.01,2.15,-0,-6,-6,0.06,,68,5712,5,32,56,0.681,0.0,578,4.83,13.1,0.0,1,32.7,2.42,6.4,0,0,0,1,0,,,,,,,,,,,,,,,,,,,,
20984,1629387416595,,,247,250,237,233,,0.04,0.05,2.29,-0,-1,-3,0.07,,68,5716,5,32,56,0.681,0.0,577,4.82,12.9,0.0,1,32.7,2.42,6.4,0,0,0,1,0,,,,,,,,,,,,,,,,,,,,
21004,1629387416615,,,247,249,237,233,,-0.04,0.07,2.11,-0,6,4,0.08,,68,5704,5,32,56,0.678,0.0,576,4.81,12.9,0.0,1,32.7,1.31,6.4,0,0,0,1,0,,,,,,,,,,,,,,,,,,,,
21024,1629387416635,,,247,248,237,233,,-0.11,0.03,1.95,-0,7,5,0.11,,68,5681,5,32,56,0.676,0.0,572,4.9,13.2,0.0,1,32.7,1.32,6.4,0,0,0,1,0,,,,,,,,,,,,,,,,,,,,
21044,1629387416655,4,5,247,248,237,233,-4,-0.01,-0.03,2.01,-1,2,-2,0.03,1,68,5690,5,32,56,0.677,0.0,577,4.84,13.2,0.0,1,32.7,2.45,6.4,0,0,0,1,0,0,250,250,0,49.330879,8.565146,0.0,120.2,9,2,1.8,0,0.0,-1,0.0,0.0,0.0,0,0.0,0.3507
21064,1629387416675,,,247,250,237,233,,0.06,0.02,2.16,-1,-1,-5,0.07,,68,5666,5,32,56,0.679,0.0,576,4.91,13.2,0.0,1,32.7,2.45,6.4,0,0,0,1,0,,,,,,,,,,,,,,,,,,,,
21084,1629387416695,,,247,250,237,233,,0.04,0.05,2.3,-1,2,-1,0.06,,68,5676,5,32,56,0.677,0.0,567,4.81,13.1,0.0,1,32.7,2.45,6.4,0,0,0,1,0,,,,,,,,,,,,,,,,,,,,
21104,1629387416715,,,247,250,237,233,,-0.07,0.04,2.12,-1,7,5,0.08,,68,5669,5,32,56,0.674,0.0,568,4.78,13.0,0.0,1,32.7,1.33,6.4,0,0,0,1,0,,,,,,,,,,,,,,,,,,,,
21124,1629387416735,,,247,248,237,233,,-0.07,-0.03,1.96,-1,4,2,0.07,,68,5647,4,32,56,0.674,0.0,579,4.89,13.2,0.0,1,32.7,1.35,6.4,0,0,0,1,0,,,,,,,,,,,,,,,,,,,,
21144,1629387416755,3,5,247,248,237,233,-4,0.05,-0.01,2.12,-1,-3,-5,0.05,1,68,5635,4,32,56,0.676,0.0,578,4.92,13.3,0.0,1,32.7,2.47,6.4,0,0,0,1,0,0,250,250,0,49.330879,8.565146,0.0,120.2,9,2,1.8,0,0.0,-1,0.0,,0.0,0,0.0,0.3524
21164,1629387416775,,,247,250,237,233,,0.04,0.05,2.26,-1,0,-3,0.06,,68,5668,5,32,56,0.676,0.0,571,4.83,13.2,0.0,1,32.7,2.45,6.4,0,0,0,1,0,,,,,,,,,,,,,,,,,,,,
21184,1629387416795,,,247,250,237,233,,-0.06,0.04,2.09,-1,7,4,0.08,,68,5669,5,32,56,0.673,0.0,570,4.8,12.9,0.0,1,32.7,2.45,6.4,0,0,0,1,0,,,,,,,,,,,,,,,,,,,,
21204,1629387416815,,,247,248,237,233,,-0.13,0.02,1.93,-0,7,3,0.13,,68,5671,5,32,56,0.672,0.0,574,4.9,13.2,0.0,1,32.7,1.33,6.4,0,0,0,1,0,,,,,,,,,,,,,,,,,,,,
21224,1629387416835,,,247,248,237,233,,-0.01,-0.01,2.09,-0,-1,-3,0.02,,68,5702,5,32,56,0.673,0.0,576,4.87,13.2,0.0,1,32.7,2.43,6.4,0,0,0,1,0,,,,,,,,,,,,,,,,,,,,
21244,1629387416855,4,4,247,250,238,232,-4,0.06,0.03,2.23,-0,-5,-6,0.06,1,68,5664,5,32,55,0.675,0.0,566,4.79,13.1,0.0,1,32.5,2.46,6.4,0,0,0,1,0,0,250,250,0,49.330879,8.565146,0.0,120.2,9,2,1.8,0,0.0,-1,0.0,0.0,0.0,0,0.0,0.3541
21264,1629387416875,,,247,250,237,233,,0.02,0.05,2.37,-0,0,-0,0.05,,68,5699,5,32,56,0.676,0.0,569,4.79,13.1,0.0,1,32.7,2.43,6.4,0,0,0,1,0,,,,,,,,,,,,,,,,,,,,
21284,1629387416895,,,247,248,238,233,,-0.09,0.02,2.19,-0,6,5,0.09,,68,5685,5,32,56,0.674,0.0,571,4.86,13.1,0.0,1,32.7,2.44,6.4,0,0,0,1,0,,,,,,,,,,,,,,,,,,,,
21304,1629387416915,,,247,248,238,233,,-0.12,-0.04,2.02,-0,4,3,0.13,,68,5723,5,32,56,0.672,0.0,571,4.87,13.1,0.0,1,32.7,1.29,6.4,0,0,0,1,0,,,,,,,,,,,,,,,,,,,,
21324,1629387416935,,,247,248,237,233,,-0.02,-0.04,2.17,0,-4,-4,0.04,,68,5683,4,32,56,0.673,0.0,571,4.9,13.2,0.0,1,32.7,1.32,6.4,0,0,0,1,0,,,,,,,,,,,,,,,,,,,,
21344,1629387416955,4,4,247,250,237,233,-5,0.03,0.03,2.31,0,-7,-6,0.04,1,68,5726,5,32,55,0.675,0.0,576,4.82,13.1,0.0,1,32.5,2.42,6.4,0,0,0,1,0,0,250,250,0,49.330879,8.565146,0.0,120.2,9,2,1.8,0,0.0,-1,0.0,,0.0,0,0.0,0.3557
21364,1629387416975,,,247,250,237,233,,0.0,0.06,2.44,0,-0,-2,0.06,,68,5699,5,32,55,0.675,0.0,577,4.79,13.1,0.0,1,32.5,2.44,6.4,0,0,0,1,0,,,,,,,,,,,,,,,,,,,,
21384,1629387416995,,,247,248,238,233,,-0.09,0.06,2.25,0,6,5,0.11,,68,5726,5,32,56,0.672,0.0,572,4.87,13.1,0.0,1,32.7,2.41,6.4,0,0,0,1,0,,,,,,,,,,,,,,,,,,,,
21404,1629387417005,,,247,248,238,233,,-0.14,0.0,2.08,0,8,5,0.14,,68,5699,5,32,56,0.672,0.0,570,4.92,13.2,0.0,1,32.7,2.44,6.4,0,0,0,1,0,,,,,,,,,,,,,,,,,,,,
21424,1629387417025,,,247,248,237,233,,-0.03,-0.04,2.23,-1,4,-1,0.05,,68,5730,5,32,56,0.674,0.0,575,4.9,13.3,0.0,1,32.7,2.41,6.4,0,0,0,1,0,,,,,,,,,,,,,,,,,,,,
21444,1629387417045,3,5,247,250,237,233,-4,0.05,0.0,2.36,-1,-2,-5,0.05,1,68,5704,5,32,56,0.676,0.0,581,4.91,13.3,0.0,1,32.7,2.44,6.4,0,0,0,1,0,0,250,250,0,49.330879,8.565146,0.0,120.2,9,2,1.5,0,0.0,-1,0.0,0.0,0.0,0,0.0,0.3574
21464,1629387417065,,,247,250,237,233,,0.04,0.03,2.49,-1,0,-3,0.05,,68,5753,5,32,55,0.675,0.0,581,4.85,13.2,0.0,1,32.6,2.4,6.4,0,0,0,1,0,,,,,,,,,,,,,,,,,,,,
21484,1629387417094,,,247,250,237,233,,-0.03,0.06,2.3,-1,6,3,0.06,,68,5733,4,32,56,0.671,0.0,575,4.79,13.0,0.0,1,32.7,2.41,6.4,0,0,0,1,0,,,,,,,,,,,,,,,,,,,,
21504,1629387417114,,,247,249,237,233,,-0.12,0.05,2.12,-1,9,6,0.13,,68,5756,4,32,56,0.67,0.0,576,4.87,13.2,0.0,1,32.8,1.27,6.4,0,0,0,1,0,,,,,,,,,,,,,,,,,,,,
21524,1629387417134,,,247,248,238,233,,-0.11,-0.01,1.96,-1,7,5,0.11,,68,5762,5,32,55,0.671,0.0,583,4.85,13.1,0.0,1,32.6,1.28,6.4,0,0,0,1,0,,,,,,,,,,,,,,,,,,,,
21544,1629387417154,3,5,247,249,238,233,-3,-0.0,-0.02,2.11,-1,0,-2,0.02,1,68,5772,5,32,55,0.673,0.0,585,4.93,13.2,0.0,1,32.6,1.27,6.4,0,0,0,1,0,0,250,250,0,49.330879,8.565146,0.0,120.2,9,2,1.5,0,0.0,-1,0.0,,0.0,0,0.0,0.3591
21564,1629387417174,,,247,250,238,233,,0.07,0.02,2.26,-1,-4,-6,0.07,,68,5794,5,32,55,0.674,0.0,581,4.92,13.3,0.0,1,32.6,2.38,6.4,0,0,0,1,0,,,,,,,,,,,,,,,,,,,,
21584,1629387417194,,,247,250,237,233,,0.06,0.06,2.39,-1,-2,-5,0.08,,68,5760,4,32,55,0.674,0.0,580,4.88,13.2,0.0,1,32.6,2.4,6.4,0,0,0,1,0,,,,,,,,,,,,,,,,,,,,
21604,1629387417210,,,247,250,237,233,,-0.01,0.05,2.21,-1,3,-0,0.05,,68,5788,5,32,55,0.673,0.0,581,4.82,13.0,0.0,1,32.6,2.38,6.4,0,0,0,1,0,,,,,,,,,,,,,,,,,,,,
21624,1629387417230,,,247,249,237,233,,-0.11,0.03,2.04,-0,9,6,0.12,,68,5772,5,32,55,0.673,0.0,581,4.8,12.9,0.0,1,32.6,1.27,6.4,0,0,0,1,0,,,,,,,,,,,,,,,,,,,,
21644,1629387417250,4,5,247,248,237,233,-4,-0.17,0.02,1.88,-0,10,7,0.17,1,68,5760,5,32,55,0.674,0.0,577,4.86,13.1,0.0,1,32.5,1.29,6.4,0,0,0,1,0,0,250,250,0,49.330879,8.565146,0.0,120.2,9,2,1.5,0,0.0,-1,0.0,0.0,0.0,0,0.0,0.3607
21664,1629387417270,,,247,248,237,233,,-0.09,-0.02,1.8,-0,6,3,0.09,,68,5781,4,32,55,0.674,0.0,577,4.88,13.2,0.0,1,32.6,1.27,6.4,0,0,0,1,0,,,,,,,,,,,,,,,,,,,,
21684,1629387417294,,,247,249,237,232,,0.03,-0.01,1.96,-1,-2,-3,0.03,,68,5756,5,32,55,0.675,0.0,578,4.93,13.2,0.0,1,32.6,2.4,6.4,0,0,0,1,0,,,,,,,,,,,,,,,,,,,,
21704,1629387417314,,,247,250,238,233,,0.08,0.02,2.12,-1,-5,-5,0.08,,68,5769,5,32,55,0.675,0.0,580,4.87,13.2,0.0,1,32.6,2.39,6.4,0,0,0,1,0,,,,,,,,,,,,,,,,,,,,
21724,1629387417334,,,247,250,237,233,,0.05,0.03,2.27,-1,-2,-3,0.06,,68,5783,5,32,55,0.676,0.0,576,4.83,13.2,0.0,1,32.6,2.38,6.4,0,0,0,1,0,,,,,,,,,,,,,,,,,,,,
21744,1629387417354,5,5,247,249,237,233,-4,-0.04,0.01,2.09,-0,4,3,0.04,1,68,5767,4,32,55,0.676,0.0,574,4.81,13.0,0.0,1,32.6,1.27,6.4,0,0,0,1,0,0,250,250,0,49.330879,8.565146,0.0,120.2,9,2,1.5,0,0.0,-1,0.0,,0.0,0,0.0,0.3624
21764,1629387417374,,,247,248,237,233,,-0.14,-0.03,1.93,-0,8,7,0.14,,68,5760,4,32,55,0.675,0.0,581,4.86,13.0,0.0,1,32.6,1.28,6.4,0,0,0,1,0,,,,,,,,,,,,,,,,,,,,
21784,1629387417396,,,247,248,237,233,,-0.12,-0.08,1.78,-1,6,5,0.15,,68,5765,5,32,55,0.674,0.0,583,4.86,13.2,0.0,1,32.6,2.4,6.4,0,0,0,1,0,,,,,,,,,,,,,,,,,,,,
21804,1629387417416,,,247,248,238,232,,-0.02,-0.07,1.95,-1,0,-2,0.07,,68,5755,5,32,55,0.674,0.0,578,4.9,13.2,0.0,1,32.6,1.28,6.4,0,0,0,1,0,,,,,,,,,,,,,,,,,,,,
21824,1629387417436,,,247,250,237,233,,0.04,-0.01,2.11,-1,-5,-6,0.04,,68,5742,5,32,55,0.673,0.0,578,4.92,13.3,0.0,1,32.5,2.41,6.4,0,0,0,1,0,,,,,,,,,,,,,,,,,,,,
21844,1629387417456,5,3,247,250,238,232,-4,0.02,0.04,2.25,-1,-2,-4,0.04,1,68,5728,5,32,55,0.674,0.0,578,4.81,13.0,0.0,1,32.5,2.42,6.4,0,0,0,1,0,0,250,250,0,49.330879,8.565146,0.0,120.2,9,2,1.5,0,0.0,-1,0.0,0.0,0.0,0,0.0,0.3641
21864,1629387417476,,,247,250,237,233,,-0.07,0.05,2.08,-1,5,3,0.08,,68,5762,5,32,55,0.673,0.0,581,4.82,13.0,0.0,1,32.6,2.4,6.4,0,0,0,1,0,,,,,,,,,,,,,,,,,,,,
21884,1629387417496,,,247,248,237,233,,-0.16,0.02,1.92,-1,10,7,0.16,,68,5760,5,32,55,0.672,0.0,579,4.87,13.0,0.0,1,32.6,2.4,6.4,0,0,0,1,0,,,,,,,,,,,,,,,,,,,,
21904,1629387417516,,,247,248,237,232,,-0.14,-0.04,1.77,-1,11,5,0.15,,68,5772,5,32,55,0.672,0.0,575,4.86,13.1,0.0,1,32.6,1.27,6.3,0,0,0,1,0,,,,,,,,,,,,,,,,,,,,
21924,1629387417536,,,247,248,237,233,,-0.02,-0.05,1.94,-1,3,-0,0.05,,68,5751,5,32,55,0.672,0.0,577,4.9,13.2,0.0,1,32.6,2.4,6.3,0,0,0,1,0,,,,,,,,,,,,,,,,,,,,
21944,1629387417556,3,5,247,250,238,233,-3,0.04,-0.01,2.1,-1,-3,-5,0.04,1,68,5760,5,32,55,0.672,0.0,580,4.92,13.3,0.0,1,32.6,2.4,6.3,0,0,0,1,0,0,250,250,0,49.330879,8.565146,0.0,120.2,9,2,1.5,0,0.0,-1,0.0,,0.0,0,0.0,0.3657
21964,1629387417576,,,247,250,237,233,,0.03,0.01,2.25,-1,-2,-4,0.03,,68,5742,4,32,55,0.672,0.0,577,4.86,13.2,0.0,1,32.5,2.41,6.3,0,0,0,1,0,,,,,,,,,,,,,,,,,,,,
21984,1629387417594,,,247,250,238,233,,-0.05,0.03,2.07,-0,3,1,0.06,,68,5749,4,32,55,0.672,0.0,571,4.81,13.0,0.0,1,32.5,2.41,6.4,0,0,0,1,0,,,,,,,,,,,,,,,,,,,,
22004,1629387417614,,,247,249,237,233,,-0.13,0.04,1.91,-0,7,6,0.14,,68,5765,5,32,55,0.673,0.0,575,4.78,13.1,0.0,1,32.6,2.4,6.4,0,0,0,1,0,,,,,,,,,,,,,,,,,,,,
22024,1629387417634,,,247,249,237,233,,-0.11,-0.02,1.77,-1,7,5,0.11,,68,5721,5,32,55,0.675,0.0,577,4.94,13.2,0.0,1,32.5,2.42,6.4,0,0,0,1,0,,,,,,,,,,,,,,,,,,,,
22044,1629387417654,5,3,247,248,238,233,-3,0.0,-0.02,1.94,-1,2,-2,0.02,1,68,5744,5,32,55,0.675,0.0,573,4.91,13.2,0.0,1,32.5,1.29,6.4,0,0,0,1,0,0,250,250,0,49.330879,8.565146,0.0,120.2,9,2,1.5,0,0.0,-1,0.0,0.0,0.0,0,0.0,0.3674
22064,1629387417674,,,247,250,237,233,,0.04,0.04,2.1,-1,-2,-5,0.06,,68,5690,5,32,55,0.676,0.0,575,4.85,13.3,0.0,1,32.5,2.45,6.4,0,0,0,1,0,,,,,,,,,,,,,,,,,,,,
22084,1629387417696,,,247,250,237,233,,-0.01,0.05,2.13,-1,4,-2,0.06,,68,5726,5,32,55,0.676,0.0,577,4.83,13.2,0.0,1,32.5,2.42,6.4,0,0,0,1,0,,,,,,,,,,,,,,,,,,,,
22104,1629387417716,,,247,250,237,233,,-0.12,0.03,1.97,-1,10,5,0.12,,68,5711,5,32,55,0.675,0.0,575,4.88,13.1,0.0,1,32.5,2.43,6.4,0,0,0,1,0,,,,,,,,,,,,,,,,,,,,
22124,1629387417736,,,247,248,237,233,,-0.15,-0.0,1.82,-1,13,7,0.15,,68,5707,5,32,55,0.676,0.0,572,4.85,13.1,0.0,1,32.5,1.32,6.4,0,0,0,1,0,,,,,,,,,,,,,,,,,,,,
22144,1629387417756,5,5,247,248,237,233,-4,-0.02,-0.01,1.99,-1,7,2,0.03,1,68,5711,5,32,55,0.678,0.0,570,4.89,13.3,0.0,1,32.5,2.43,6.4,0,0,0,1,0,0,250,250,0,49.330879,8.565146,0.0,120.2,9,2,1.5,0,0.0,-1,0.0,,0.0,0,0.0,0.3691
22164,1629387417776,,,247,250,237,233,,0.04,0.04,2.14,-1,-1,-4,0.06,,68,5709,5,32,55,0.677,0.0,575,4.92,13.3,0.0,1,32.5,2.43,6.4,0,0,0,1,0,,,,,,,,,,,,,,,,,,,,
22184,1629387417796,,,247,250,237,232,,0.01,0.05,2.28,-1,1,-3,0.05,,68,5697,5,32,55,0.676,0.0,579,4.83,13.2,0.0,1,32.5,2.44,6.4,0,0,0,1,0,,,,,,,,,,,,,,,,,,,,
22204,1629387417816,,,247,250,238,233,,-0.1,0.02,2.11,-1,7,4,0.1,,68,5718,5,32,55,0.673,0.0,575,4.8,13.0,0.0,1,32.5,1.31,6.4,0,0,0,1,0,,,,,,,,,,,,,,,,,,,,
22224,1629387417836,,,247,248,238,232,,-0.14,-0.04,1.94,-0,9,6,0.15,,68,5693,4,32,56,0.674,0.0,573,4.88,13.2,0.0,1,32.7,1.31,6.4,0,0,0,1,0,,,,,,,,,,,,,,,,,,,,
22244,1629387417856,3,5,247,247,237,233,-4,-0.03,-0.05,2.1,-0,3,-0,0.06,1,68,5688,4,32,55,0.675,0.0,571,4.83,13.2,0.0,1,32.5,1.33,6.4,0,0,0,1,0,0,250,250,0,49.330879,8.565146,0.0,120.2,9,2,1.5,0,0.0,-1,0.0,0.0,0.0,0,0.0,0.3707
22264,1629387417876,,,247,250,238,233,,0.02,0.03,2.25,-0,-4,-5,0.03,,68,5671,5,32,56,0.676,0.0,578,4.9,13.3,0.0,1,32.7,2.46,6.4,0,0,0,1,0,,,,,,,,,,,,,,,,,,,,
22284,1629387417896,,,247,250,237,233,,-0.03,0.07,2.28,-0,1,-2,0.07,,68,5674,5,32,56,0.674,0.0,571,4.87,13.2,0.0,1,32.7,2.45,6.4,0,0,0,1,0,,,,,,,,,,,,,,,,,,,,
22304,1629387417916,,,247,250,238,233,,-0.13,0.03,2.11,-0,7,5,0.14,,68,5695,5,32,55,0.671,0.0,570,4.79,12.9,0.0,1,32.5,1.32,6.4,0,0,0,1,0,,,,,,,,,,,,,,,,,,,,
22324,1629387417936,,,247,248,237,233,,-0.11,-0.04,1.95,-1,9,5,0.12,,68,5674,5,32,56,0.67,0.0,570,4.9,13.2,0.0,1,32.7,1.33,6.4,0,0,0,1,0,,,,,,,,,,,,,,,,,,,,
22344,1629387417956,4,5,247,248,237,232,-4,0.01,-0.03,2.1,-0,0,-1,0.03,1,68,5681,5,32,56,0.672,0.0,571,4.9,13.3,0.0,1,32.7,2.44,6.4,0,0,0,1,0,0,250,250,0,49.330879,8.565146,0.0,120.2,9,2,1.5,0,0.0,-1,0.0,,0.0,0,0.0,0.3724
22364,1629387417976,,,247,250,237,233,,0.02,0.01,2.25,-0,-2,-4,0.02,,68,5652,5,32,56,0.674,0.0,566,4.9,13.2,0.0,1,32.7,2.46,6.4,0,0,0,1,0,,,,,,,,,,,,,,,,,,,,
22384,1629387417996,,,247,250,237,233,,-0.06,0.02,2.08,-0,2,1,0.07,,68,5676,5,32,56,0.673,0.0,565,4.83,13.1,0.0,1,32.7,2.45,6.4,0,0,0,1,0,,,,,,,,,,,,,,,,,,,,
22404,1629387418003,,,247,249,237,233,,-0.12,-0.01,1.92,0,6,6,0.12,,68,5661,5,32,56,0.671,0.0,566,4.83,13.0,0.0,1,32.7,1.34,6.4,0,0,0,1,0,,,,,,,,,,,,,,,,,,,,
22424,1629387418023,,,247,248,238,233,,-0.02,-0.05,2.08,0,1,3,0.06,,68,5686,4,32,56,0.671,0.0,575,4.92,13.2,0.0,1,32.7,1.32,6.4,0,0,0,1,0,,,,,,,,,,,,,,,,,,,,
22444,1629387418043,4,5,247,248,237,233,-4,0.05,0.0,2.22,-0,-6,-4,0.05,1,68,5697,4,32,56,0.672,0.0,575,4.91,13.3,0.0,1,32.7,2.43,6.4,0,0,0,1,0,0,250,250,0,49.330879,8.565146,0.0,120.2,9,2,1.5,0,0.0,-1,0.0,0.0,0.0,0,0.0,0.3741
22464,1629387418063,,,247,250,237,233,,0.02,0.04,2.36,-0,-4,-4,0.04,,68,5704,4,32,56,0.674,0.0,572,4.85,13.2,0.0,1,32.7,2.43,6.4,0,0,0,1,0,,,,,,,,,,,,,,,,,,,,
22484,1629387418095,,,247,250,237,233,,-0.09,0.03,2.18,-0,3,2,0.09,,68,5692,4,32,56,0.672,0.0,575,4.8,13.0,0.0,1,32.7,2.43,6.4,0,0,0,1,0,,,,,,,,,,,,,,,,,,,,
22504,1629387418115,,,247,249,237,233,,-0.14,0.0,2.01,0,7,6,0.14,,68,5721,5,31,56,0.67,0.0,580,4.83,13.2,0.0,1,32.7,1.29,6.4,0,0,0,1,0,,,,,,,,,,,,,,,,,,,,
22524,1629387418135,,,247,247,237,233,,-0.02,-0.02,2.16,0,2,2,0.03,,68,5681,4,32,56,0.67,0.0,574,4.85,13.2,0.0,1,32.7,1.32,6.4,0,0,0,1,0,,,,,,,,,,,,,,,,,,,,
22544,1629387418155,3,5,247,249,238,233,-3,0.06,0.02,2.3,0,-7,-5,0.06,1,68,5714,4,32,56,0.672,0.0,573,4.92,13.3,0.0,1,32.7,2.42,6.4,0,0,0,1,0,0,250,250,0,49.330879,8.565146,0.0,120.2,9,2,1.5,0,0.0,-1,0.0,,0.0,0,0.0,0.3757
22564,1629387418175,,,247,250,237,233,,0.03,0.04,2.43,0,-7,-6,0.05,,68,5692,4,32,56,0.674,0.0,573,4.88,13.2,0.0,1,32.7,2.43,6.4,0,0,0,1,0,,,,,,,,,,,,,,,,,,,,
22584,1629387418195,,,247,250,237,233,,-0.08,0.01,2.25,1,-1,1,0.08,,68,5697,4,32,56,0.671,0.0,573,4.8,13.0,0.0,1,32.7,2.43,6.4,0,0,0,1,0,,,,,,,,,,,,,,,,,,,,
22604,1629387418215,,,247,248,238,232,,-0.13,-0.05,2.07,0,3,4,0.14,,68,5712,5,31,56,0.669,0.0,571,4.81,13.2,0.0,1,32.7,1.3,6.4,0,0,0,1,0,,,,,,,,,,,,,,,,,,,,
22624,1629387418235,,,247,248,237,233,,-0.16,-0.11,1.91,0,-0,1,0.2,,68,5678,4,32,56,0.669,0.0,571,4.93,13.3,0.0,1,32.7,2.44,6.4,0,0,0,1,0,,,,,,,,,,,,,,,,,,,,
22644,1629387418255,5,3,247,250,237,233,-3,-0.05,-0.1,2.07,-0,-7,-6,0.11,1,68,5681,4,31,56,0.672,0.0,572,4.9,13.3,0.0,1,32.7,2.44,6.4,0,0,0,1,0,0,250,250,0,49.330879,8.565146,0.0,120.2,9,2,1.5,0,0.0,-1,0.0,0.0,0.0,0,0.0,0.3774
22664,1629387418275,,,247,250,237,233,,-0.01,-0.02,2.22,-0,-5,-5,0.02,,68,5688,4,32,56,0.673,0.0,571,4.82,13.0,0.0,1,32.7,2.44,6.4,0,0,0,1,0,,,,,,,,,,,,,,,,,,,,
22684,1629387418295,,,247,250,237,233,,-0.07,0.02,2.13,-0,2,1,0.07,,68,5664,5,32,56,0.67,0.0,568,4.75,13.0,0.0,1,32.7,1.33,6.4,0,0,0,1,0,,,,,,,,,,,,,,,,,,,,
22704,1629387418315,,,247,248,237,233,,-0.16,0.0,1.96,-0,6,3,0.16,,68,5674,5,31,56,0.669,0.0,565,4.86,13.1,0.0,1,32.7,1.33,6.4,0,0,0,1,0,,,,,,,,,,,,,,,,,,,,
22724,1629387418335,,,247,248,238,233,,-0.1,-0.07,1.81,0,-2,-3,0.13,,68,5661,5,31,56,0.671,0.0,568,4.92,13.2,0.0,1,32.7,1.34,6.4,0,0,0,1,0,,,,,,,,,,,,,,,,,,,,
22744,1629387418355,5,4,247,250,237,233,-4,-0.0,-0.03,1.98,-0,-6,-6,0.04,1,68,5690,5,31,56,0.674,0.0,571,4.91,13.3,0.0,1,32.7,2.44,6.4,0,0,0,1,0,0,250,250,0,49.330879,8.565146,0.0,120.2,9,2,1.5,0,0.0,-1,0.0,,0.0,0,0.0,0.3791
22764,1629387418375,,,247,250,237,233,,0.0,0.01,2.14,-0,-2,-2,0.01,,68,5662,5,32,56,0.673,0.0,566,4.83,13.0,0.0,1,32.7,2.45,6.4,0,0,0,1,0,,,,,,,,,,,,,,,,,,,,
22784,1629387418395,,,247,250,237,233,,-0.08,0.03,1.97,0,3,4,0.08,,68,5690,5,31,56,0.671,0.0,563,4.81,13.0,0.0,1,32.7,1.32,6.4,0,0,0,1,0,,,,,,,,,,,,,,,,,,,,
22804,1629387418415,,,247,248,237,233,,-0.14,-0.0,1.82,-0,1,2,0.14,,68,5686,5,31,56,0.67,0.0,573,4.85,13.1,0.0,1,32.7,2.44,6.4,0,0,0,1,0,,,,,,,,,,,,,,,,,,,,
22824,1629387418435,,,247,248,238,233,,-0.03,-0.05,1.99,-1,-4,-5,0.06,,68,5695,5,31,56,0.672,0.0,580,4.92,13.3,0.0,1,32.7,2.43,6.4,0,0,0,1,0,,,,,,,,,,,,,,,,,,,,
22844,1629387418455,4,5,247,250,237,233,-4,0.03,0.02,2.14,-0,-4,-6,0.03,1,68,5639,4,31,56,0.675,0.0,575,4.88,13.2,0.0,1,32.7,2.47,6.4,0,0,0,1,0,0,250,250,0,49.330879,8.565146,0.0,120.2,9,2,1.5,0,0.0,-1,0.0,0.0,0.0,0,0.0,0.3807
22864,1629387418475,,,247,250,237,233,,-0.02,0.05,2.28,-0,3,0,0.05,,68,5699,4,31,56,0.675,0.0,570,4.83,13.0,0.0,1,32.7,2.43,6.4,0,0,0,1,0,,,,,,,,,,,,,,,,,,,,
22884,1629387418495,,,247,249,237,233,,-0.12,0.04,2.11,-0,8,5,0.13,,68,5678,5,31,56,0.674,0.0,573,4.82,13.2,0.0,1,32.7,1.32,6.4,0,0,0,1,0,,,,,,,,,,,,,,,,,,,,
22904,1629387418515,,,247,248,237,233,,-0.12,-0.02,1.95,-0,4,2,0.12,,68,5680,5,31,56,0.674,0.0,572,4.88,13.2,0.0,1,32.7,2.44,6.4,0,0,0,1,0,,,,,,,,,,,,,,,,,,,,
22924,1629387418535,,,247,250,237,233,,0.01,-0.02,2.1,-1,-4,-5,0.03,,68,5685,5,31,56,0.676,0.0,571,4.9,13.3,0.0,1,32.7,2.44,6.4,0,0,0,1,0,,,,,,,,,,,,,,,,,,,,
22944,1629387418555,5,4,247,250,237,233,-4,0.04,0.03,2.25,-0,-2,-4,0.05,1,68,5674,5,32,56,0.678,0.0,567,4.84,13.0,0.0,1,32.7,2.45,6.4,0,0,0,1,0,0,250,250,0,49.330879,8.565146,0.0,120.2,9,2,1.5,0,0.0,-1,0.0,,0.0,0,0.0,0.3824
22964,1629387418575,,,247,250,237,233,,-0.05,0.04,2.08,-0,4,4,0.06,,68,5654,5,31,56,0.676,0.0,565,4.84,13.1,0.0,1,32.7,2.46,6.4,0,0,0,1,0,,,,,,,,,,,,,,,,,,,,
22984,1629387418596,,,247,248,238,232,,-0.14,-0.01,1.92,-0,5,4,0.14,,68,5693,5,31,56,0.675,0.0,568,4.86,13.1,0.0,1,32.7,2.43,6.4,0,0,0,1,0,,,,,,,,,,,,,,,,,,,,
23004,1629387418616,,,247,248,237,233,,-0.05,-0.07,1.86,-1,0,-2,0.09,,68,5666,5,31,56,0.677,0.0,565,4.91,13.2,0.0,1,32.7,1.33,6.4,0,0,0,1,0,,,,,,,,,,,,,,,,,,,,
23024,1629387418636,,,247,250,238,232,,0.03,-0.0,2.03,-1,-4,-6,0.03,,68,5697,5,31,56,0.679,0.0,571,4.84,13.1,0.0,1,32.7,2.43,6.4,0,0,0,1,0,,,,,,,,,,,,,,,,,,,,
23044,1629387418656,4,5,247,250,238,233,-5,0.02,0.05,2.18,-1,1,-2,0.05,1,68,5718,5,31,56,0.68,0.0,573,4.79,13.0,0.0,1,32.7,2.42,6.4,0,0,0,1,0,0,250,250,0,49.330879,8.565146,0.0,120.2,9,2,1.5,0,0.0,-1,0.0,0.0,0.0,0,0.0,0.3841
23064,1629387418676,,,247,248,237,233,,-0.07,0.06,2.01,-0,7,4,0.09,,68,5711,5,31,56,0.677,0.0,575,4.82,12.9,0.0,1,32.7,2.42,6.4,0,0,0,1,0,,,,,,,,,,,,,,,,,,,,
23084,1629387418695,,,247,248,237,233,,-0.14,0.03,1.86,-1,9,5,0.14,,68,5716,5,31,56,0.676,0.0,567,4.84,13.1,0.0,1,32.7,2.42,6.4,0,0,0,1,0,,,,,,,,,,,,,,,,,,,,
23104,1629387418715,,,247,248,237,233,,-0.06,-0.04,1.71,-1,1,1,0.07,,68,5704,5,31,56,0.677,0.0,568,4.84,13.2,0.0,1,32.7,2.43,6.4,0,0,0,1,0,,,,,,,,,,,,,,,,,,,,
23124,1629387418735,,,247,250,237,233,,0.04,-0.01,1.89,-1,-4,-4,0.04,,68,5707,5,31,56,0.679,0.0,573,4.91,13.3,0.0,1,32.7,2.42,6.4,0,0,0,1,0,,,,,,,,,,,,,,,,,,,,
23144,1629387418755,4,5,247,250,238,233,-4,0.04,0.01,2.05,-1,-2,-2,0.04,1,68,5704,5,31,56,0.679,0.0,576,4.84,13.2,0.0,1,32.7,2.43,6.4,0,0,0,1,0,0,250,250,0,49.330879,8.565146,0.0,120.2,9,2,1.5,0,0.0,-1,0.0,,0.0,0,0.0,0.3857
23164,1629387418775,,,247,250,237,233,,-0.03,0.03,1.89,-0,3,4,0.05,,68,5697,5,31,56,0.676,0.0,569,4.84,13.0,0.0,1,32.7,1.31,6.4,0,0,0,1,0,,,,,,,,,,,,,,,,,,,,
23184,1629387418795,,,247,248,238,233,,-0.11,0.02,1.75,-0,5,6,0.12,,68,5716,5,31,56,0.675,0.0,572,4.84,13.2,0.0,1,32.7,2.42,6.4,0,0,0,1,0,,,,,,,,,,,,,,,,,,,,
23204,1629387418815,,,247,248,237,233,,-0.04,-0.04,1.66,-1,1,-0,0.06,,68,5685,5,31,56,0.677,0.0,578,4.92,13.3,0.0,1,32.7,2.44,6.4,0,0,0,1,0,,,,,,,,,,,,,,,,,,,,
23224,1629387418835,,,247,250,237,233,,0.05,0.0,1.84,-1,-4,-5,0.05,,68,5695,4,31,56,0.679,0.0,577,4.92,13.3,0.0,1,32.7,2.43,6.4,0,0,0,1,0,,,,,,,,,,,,,,,,,,,,
23244,1629387418855,3,5,247,250,238,233,-4,0.03,0.04,2.0,-1,2,-2,0.05,1,68,5673,5,31,56,0.678,0.0,570,4.79,13.0,0.0,1,32.7,1.33,6.4,0,0,0,1,0,0,250,250,0,49.330879,8.565146,0.0,120.2,9,2,1.5,0,0.0,-1,0.0,0.0,0.0,0,0.0,0.3874
23264,1629387418875,,,247,250,237,233,,-0.07,0.03,1.85,-1,8,5,0.08,,68,5673,5,31,56,0.674,0.0,570,4.85,13.0,0.0,1,32.7,1.33,6.4,0,0,0,1,0,,,,,,,,,,,,,,,,,,,,
23284,1629387418895,,,247,248,237,232,,-0.12,-0.02,1.71,-1,7,4,0.12,,68,5659,5,31,56,0.674,0.0,571,4.9,13.1,0.0,1,32.7,2.46,6.4,0,0,0,1,0,,,,,,,,,,,,,,,,,,,,
23304,1629387418915,,,247,248,237,233,,0.02,-0.03,1.88,-1,-2,-4,0.04,,68,5640,5,31,56,0.676,0.0,569,4.91,13.3,0.0,1,32.7,2.47,6.4,0,0,0,1,0,,,,,,,,,,,,,,,,,,,,
23324,1629387418935,,,247,250,238,233,,0.04,0.03,2.05,-1,-2,-4,0.05,,68,5628,5,31,56,0.678,0.0,562,4.86,13.2,0.0,1,32.7,2.48,6.4,0,0,0,1,0,,,,,,,,,,,,,,,,,,,,
23344,1629387418955,4,5,247,250,238,233,-4,-0.06,0.03,1.89,-1,5,4,0.07,1,68,5612,5,31,56,0.676,0.0,560,4.86,13.1,0.0,1,32.7,1.37,6.4,0,0,0,1,0,0,250,250,0,49.330879,8.565146,0.0,120.2,9,2,1.5,0,0.0,-1,0.0,,0.0,0,0.0,0.3891
23364,1629387418975,,,247,248,237,233,,-0.11,-0.04,1.74,-1,5,4,0.11,,68,5627,5,31,56,0.674,0.0,565,4.86,13.1,0.0,1,32.7,2.48,6.4,0,0,0,1,0,,,,,,,,,,,,,,,,,,,,
23384,1629387418995,,,247,248,237,232,,0.01,-0.03,1.92,-1,-4,-4,0.03,,68,5595,4,31,56,0.674,0.0,565,4.84,13.3,0.0,1,32.7,2.5,6.4,0,0,0,1,0,,,,,,,,,,,,,,,,,,,,
23404,1629387419004,,,247,250,237,233,,0.01,0.04,2.08,-1,-3,-4,0.04,,68,5649,5,31,56,0.675,0.0,565,4.85,13.2,0.0,1,32.7,2.46,6.4,0,0,0,1,0,,,,,,,,,,,,,,,,,,,,
23424,1629387419024,,,247,250,238,233,,-0.08,0.06,1.92,-0,4,3,0.1,,68,5608,5,31,56,0.675,0.0,563,4.86,13.1,0.0,1,32.7,2.49,6.4,0,0,0,1,0,,,,,,,,,,,,,,,,,,,,
23444,1629387419044,3,5,247,248,238,233,-3,-0.11,-0.02,1.77,-0,3,3,0.11,1,68,5637,5,31,56,0.674,0.0,564,4.91,13.3,0.0,1,32.7,2.47,6.4,0,0,0,1,0,0,250,250,0,49.330879,8.565146,0.0,120.2,9,2,1.5,0,0.0,-1,0.0,0.0,0.0,0,0.0,0.3907
23464,1629387419064,,,247,248,237,233,,0.01,-0.02,1.94,-0,-4,-5,0.02,,68,5602,4,31,56,0.674,0.0,562,4.91,13.3,0.0,1,32.7,2.5,6.4,0,0,0,1,0,,,,,,,,,,,,,,,,,,,,
23484,1629387419094,,,247,250,237,233,,0.01,0.03,2.1,-0,-2,-4,0.03,,68,5637,5,31,56,0.673,0.0,559,4.82,13.2,0.0,1,32.7,2.47,6.4,0,0,0,1,0,,,,,,,,,,,,,,,,,,,,
23504,1629387419114,,,247,250,237,233,,-0.08,0.03,1.94,0,4,3,0.09,,68,5627,5,31,57,0.674,0.0,562,4.83,13.1,0.0,1,32.9,2.47,6.4,0,0,0,1,0,,,,,,,,,,,,,,,,,,,,
23524,1629387419134,,,247,248,237,233,,-0.1,-0.05,1.79,-0,2,2,0.11,,68,5637,4,31,56,0.675,0.0,565,4.93,13.3,0.0,1,32.7,2.47,6.4,0,0,0,1,0,,,,,,,,,,,,,,,,,,,,
23544,1629387419154,4,6,247,249,238,233,-3,0.01,-0.05,1.96,-0,-5,-5,0.05,1,68,5661,5,31,56,0.675,0.0,567,4.92,13.3,0.0,1,32.7,2.46,6.4,0,0,0,1,0,0,250,250,0,49.330879,8.565146,0.0,120.2,9,2,1.5,0,0.0,-1,0.0,,0.0,0,0.0,0.3924
23564,1629387419174,,,247,250,237,233,,0.02,0.01,2.11,-0,-3,-6,0.03,,68,5668,5,31,56,0.675,0.0,565,4.8,13.1,0.0,1,32.7,2.45,6.4,0,0,0,1,0,,,,,,,,,,,,,,,,,,,,
23584,1629387419194,,,247,250,238,232,,-0.07,0.02,1.95,0,3,1,0.07,,68,5652,5,31,56,0.675,0.0,568,4.78,13.0,0.0,1,32.7,2.46,6.4,0,0,0,1,0,,,,,,,,,,,,,,,,,,,,
23604,1629387419214,,,247,248,237,233,,-0.14,-0.0,1.8,0,6,3,0.14,,68,5637,5,31,56,0.675,0.0,569,4.87,13.1,0.0,1,32.7,1.35,6.4,0,0,0,1,0,,,,,,,,,,,,,,,,,,,,
23624,1629387419234,,,247,248,237,233,,-0.02,-0.04,1.97,0,-3,-4,0.05,,68,5668,5,31,56,0.675,0.0,567,4.89,13.2,0.0,1,32.7,1.33,6.4,0,0,0,1,0,,,,,,,,,,,,,,,,,,,,
23644,1629387419254,4,4,247,250,237,233,-4,0.05,-0.0,2.13,0,-8,-8,0.05,1,68,5676,5,31,56,0.676,0.0,565,4.9,13.3,0.0,1,32.7,2.45,6.4,0,0,0,1,0,0,250,250,0,49.330879,8.565146,0.0,120.2,9,2,1.5,0,0.0,-1,0.0,0.0,0.0,0,0.0,0.3941
23664,1629387419274,,,247,250,237,233,,0.01,0.02,2.24,0,-3,-3,0.02,,68,5673,5,31,56,0.677,0.0,567,4.82,13.0,0.0,1,32.7,2.44,6.4,0,0,0,1,0,,,,,,,,,,,,,,,,,,,,
23684,1629387419294,,,247,249,237,233,,-0.1,-0.01,2.07,1,2,3,0.1,,68,5671,5,31,56,0.677,0.0,571,4.81,13.0,0.0,1,32.7,2.46,6.4,0,0,0,1,0,,,,,,,,,,,,,,,,,,,,
23704,1629387419314,,,247,248,238,233,,-0.09,-0.09,1.91,1,-1,1,0.12,,68,5681,5,31,56,0.677,0.0,568,4.9,13.3,0.0,1,32.7,2.44,6.4,0,0,0,1,0,,,,,,,,,,,,,,,,,,,,
23724,1629387419334,,,247,248,237,233,,0.02,-0.05,2.07,0,-7,-6,0.05,,68,5676,4,31,56,0.678,0.0,567,4.92,13.3,0.0,1,32.7,2.45,6.4,0,0,0,1,0,,,,,,,,,,,,,,,,,,,,
23744,1629387419354,5,5,247,250,237,233,-4,0.03,0.02,2.22,0,-8,-7,0.04,1,68,5690,5,31,56,0.679,0.0,569,4.83,13.1,0.0,1,32.7,2.44,6.4,0,0,0,1,0,0,250,250,0,49.330879,8.565146,0.0,120.2,9,2,1.5,0,0.0,-1,0.0,,0.0,0,0.0,0.3957
23764,1629387419374,,,247,250,237,233,,-0.05,0.05,2.05,1,-2,-1,0.07,,68,5659,5,31,56,0.679,0.0,569,4.81,13.0,0.0,1,32.7,2.46,6.4,0,0,0,1,0,,,,,,,,,,,,,,,,,,,,
23784,1629387419396,,,247,248,237,233,,-0.13,0.01,1.89,1,2,3,0.13,,68,5661,4,31,56,0.677,0.0,565,4.85,13.1,0.0,1,32.7,1.34,6.4,0,0,0,1,0,,,,,,,,,,,,,,,,,,,,
23804,1629387419416,,,247,249,237,233,,-0.03,-0.05,1.96,1,-4,-2,0.05,,68,5656,5,31,56,0.677,0.0,563,4.9,13.2,0.0,1,32.7,2.46,6.4,0,0,0,1,0,,,,,,,,,,,,,,,,,,,,
23824,1629387419436,,,247,250,238,232,,0.03,0.02,2.12,1,-9,-7,0.04,,68,5635,5,31,56,0.678,0.0,565,4.81,13.2,0.0,1,32.7,2.47,6.4,0,0,0,1,0,,,,,,,,,,,,,,,,,,,,
23844,1629387419456,5,4,247,250,237,233,-4,-0.01,0.05,2.18,1,-4,-2,0.05,1,68,5656,5,31,56,0.679,0.0,565,4.81,13.0,0.0,1,32.7,2.46,6.4,0,0,0,1,0,0,250,250,0,49.330879,8.565146,0.0,120.2,9,2,1.5,0,0.0,-1,0.0,0.0,0.0,0,0.0,0.3974
23864,1629387419476,,,247,250,237,233,,-0.1,0.03,2.01,1,1,3,0.1,,68,5628,5,31,56,0.678,0.0,558,4.83,13.0,0.0,1,32.7,1.36,6.4,0,0,0,1,0,,,,,,,,,,,,,,,,,,,,
23884,1629387419494,,,247,248,238,233,,-0.04,-0.05,1.85,1,-2,1,0.06,,68,5656,5,31,56,0.677,0.0,562,4.87,13.2,0.0,1,32.7,2.46,6.4,0,0,0,1,0,,,,,,,,,,,,,,,,,,,,
23904,1629387419514,,,247,250,237,233,,0.05,0.01,2.02,1,-9,-5,0.05,,68,5642,5,31,56,0.678,0.0,572,4.87,13.2,0.0,1,32.7,2.47,6.4,0,0,0,1,0,,,,,,,,,,,,,,,,,,,,
23924,1629387419534,,,247,250,238,233,,0.01,0.04,2.17,1,-4,-4,0.04,,68,5662,5,31,56,0.679,0.0,568,4.86,13.2,0.0,1,32.7,2.45,6.4,0,0,0,1,0,,,,,,,,,,,,,,,,,,,,
23944,1629387419554,3,5,247,250,237,233,-3,-0.1,0.03,2.0,1,3,4,0.1,1,68,5628,5,31,56,0.678,0.0,563,4.8,13.0,0.0,1,32.7,1.36,6.4,0,0,0,1,0,0,250,250,0,49.330879,8.565146,0.0,120.2,9,2,1.5,0,0.0,-1,0.0,,0.0,0,0.0,0.3991
23964,1629387419574,,,247,248,238,232,,-0.07,-0.03,1.85,1,2,3,0.08,,68,5640,5,31,57,0.677,0.0,563,4.92,13.2,0.0,1,33.0,2.47,6.4,0,0,0,1,0,,,,,,,,,,,,,,,,,,,,
23984,1629387419594,,,247,248,237,233,,0.05,-0.0,2.01,0,-6,-5,0.05,,68,5610,4,31,57,0.677,0.0,568,4.92,13.3,0.0,1,32.9,2.49,6.4,0,0,0,1,0,,,,,,,,,,,,,,,,,,,,
24004,1629387419614,,,247,250,238,232,,0.02,0.04,2.17,0,-4,-3,0.04,,68,5615,5,31,56,0.678,0.0,563,4.81,13.2,0.0,1,32.7,2.49,6.4,0,0,0,1,0,,,,,,,,,,,,,,,,,,,,
24024,1629387419634,,,247,250,237,233,,-0.09,-0.0,2.0,0,3,4,0.09,,68,5592,5,31,57,0.678,0.0,558,4.82,13.1,0.0,1,32.9,2.49,6.4,0,0,0,1,0,,,,,,,,,,,,,,,,,,,,
24044,1629387419654,5,4,247,248,237,233,-4,-0.02,-0.08,1.85,-0,1,2,0.08,1,68,5593,4,31,57,0.679,0.0,560,4.92,13.2,0.0,1,32.9,1.37,6.4,0,0,0,1,0,0,250,250,0,49.330879,8.565146,0.0,120.2,9,2,1.5,0,0.0,-1,0.0,0.0,0.0,0,0.0,0.4007
24064,1629387419674,,,247,248,238,233,,0.04,0.01,2.01,-0,-6,-4,0.04,,68,5613,5,31,57,0.679,0.0,564,4.83,13.2,0.0,1,32.9,2.48,6.4,0,0,0,1,0,,,,,,,,,,,,,,,,,,,,
24084,1629387419694,,,247,250,238,233,,-0.03,0.05,1.96,-0,0,-0,0.06,,68,5608,4,31,56,0.678,0.0,561,4.8,13.1,0.0,1,32.7,2.48,6.4,0,0,0,1,0,,,,,,,,,,,,,,,,,,,,
24104,1629387419714,,,247,250,237,233,,-0.1,0.0,1.81,0,6,5,0.1,,68,5588,4,31,57,0.679,0.0,557,4.88,13.2,0.0,1,32.9,2.48,6.4,0,0,0,1,0,,,,,,,,,,,,,,,,,,,,
24124,1629387419734,,,247,248,237,233,,0.0,-0.05,1.97,0,1,1,0.05,,68,5649,5,31,57,0.679,0.0,562,4.9,13.2,0.0,1,33.0,2.45,6.4,0,0,0,1,0,,,,,,,,,,,,,,,,,,,,
24144,1629387419754,4,5,247,250,237,233,-4,0.05,0.01,2.13,0,-5,-4,0.05,1,68,5607,5,31,57,0.679,0.0,563,4.82,13.2,0.0,1,32.9,2.48,6.4,0,0,0,1,0,0,250,250,0,49.330879,8.565146,0.0,120.2,9,2,1.5,0,0.0,-1,0.0,,0.0,0,0.0,0.4024
24164,1629387419774,,,247,250,237,233,,-0.01,0.05,1.97,0,-1,-1,0.05,,68,5657,5,31,57,0.677,0.0,559,4.82,13.0,0.0,1,33.0,2.45,6.4,0,0,0,1,0,,,,,,,,,,,,,,,,,,,,
24184,1629387419796,,,247,250,237,233,,-0.08,0.02,1.81,0,3,5,0.09,,68,5608,5,31,57,0.678,0.0,560,4.86,13.2,0.0,1,32.9,1.36,6.4,0,0,0,1,0,,,,,,,,,,,,,,,,,,,,
24204,1629387419816,,,247,248,237,233,,0.02,-0.05,1.98,0,-0,2,0.05,,68,5623,5,31,57,0.679,0.0,563,4.88,13.2,0.0,1,32.9,1.35,6.4,0,0,0,1,0,,,,,,,,,,,,,,,,,,,,
24224,1629387419836,,,247,248,238,233,,0.06,0.02,2.14,0,-6,-3,0.06,,69,5603,5,31,57,0.679,0.0,571,4.92,13.3,0.0,1,32.9,2.49,6.4,0,0,0,1,0,,,,,,,,,,,,,,,,,,,,
24244,1629387419856,5,4,247,250,237,233,-4,-0.02,0.04,1.97,0,0,1,0.04,1,69,5656,5,31,57,0.677,0.0,561,4.82,13.1,0.0,1,33.0,2.45,6.4,0,0,0,1,0,0,250,250,0,49.330879,8.565146,0.0,120.2,9,2,1.5,0,0.0,-1,0.0,0.0,0.0,0,0.0,0.4041
24264,1629387419876,,,247,250,237,232,,-0.11,0.01,1.82,0,6,7,0.11,,69,5661,5,31,57,0.677,0.0,562,4.81,13.0,0.0,1,33.0,1.33,6.4,0,0,0,1,0,,,,,,,,,,,,,,,,,,,,
24284,1629387419896,,,247,247,237,233,,-0.03,-0.04,1.68,0,3,3,0.05,,69,5656,4,31,56,0.678,0.0,567,4.83,13.2,0.0,1,32.7,1.34,6.4,0,0,0,1,0,,,,,,,,,,,,,,,,,,,,
24304,1629387419916,,,247,248,237,233,,0.07,0.01,1.86,0,-5,-4,0.07,,69,5668,4,31,57,0.678,0.0,568,4.92,13.3,0.0,1,33.0,2.45,6.4,0,0,0,1,0,,,,,,,,,,,,,,,,,,,,
24324,1629387419936,,,247,250,237,232,,0.05,0.03,2.03,0,-4,-3,0.06,,69,5690,4,31,56,0.678,0.0,563,4.81,13.0,0.0,1,32.7,2.43,6.4,0,0,0,1,0,,,,,,,,,,,,,,,,,,,,
24344,1629387419956,5,6,247,250,238,232,-5,-0.07,-0.0,1.87,0,3,4,0.07,1,69,5683,5,31,56,0.678,0.0,565,4.81,13.0,0.0,1,32.7,2.44,6.4,0,0,0,1,0,0,250,250,0,49.330879,8.565146,0.0,120.2,9,2,1.5,0,0.0,-1,0.0,,0.0,0,0.0,0.4057
24364,1629387419976,,,247,248,237,233,,-0.11,-0.07,1.73,0,5,6,0.13,,69,5668,5,31,56,0.678,0.0,566,4.84,13.1,0.0,1,32.7,2.44,6.4,0,0,0,1,0,,,,,,,,,,,,,,,,,,,,
24384,1629387419996,,,247,248,237,233,,-0.0,-0.06,1.9,-0,1,0,0.06,,69,5673,5,31,57,0.678,0.0,569,4.9,13.2,0.0,1,33.0,1.32,6.4,0,0,0,1,0,,,,,,,,,,,,,,,,,,,,
24404,1629387420003,,,247,250,237,233,,0.03,0.01,2.06,-0,-5,-5,0.03,,69,5673,5,31,56,0.679,0.0,567,4.91,13.3,0.0,1,32.7,2.45,6.4,0,0,0,1,0,,,,,,,,,,,,,,,,,,,,
24424,1629387420023,,,247,250,238,232,,-0.04,0.05,1.9,-0,-0,-2,0.06,,69,5657,5,31,56,0.68,0.0,565,4.81,13.0,0.0,1,32.7,2.46,6.4,0,0,0,1,0,,,,,,,,,,,,,,,,,,,,
24444,1629387420043,4,5,247,250,237,233,-4,-0.13,0.02,1.76,0,7,5,0.13,1,69,5666,5,31,57,0.679,0.0,569,4.84,13.1,0.0,1,33.0,2.44,6.4,0,0,0,1,0,0,250,250,0,49.330879,8.565146,0.0,120.2,9,2,1.5,0,0.0,-1,0.0,0.0,0.0,0,0.0,0.4074
24464,1629387420063,,,247,248,238,233,,-0.05,-0.07,1.62,0,5,3,0.08,,69,5640,4,31,57,0.678,0.0,567,4.88,13.2,0.0,1,33.0,1.34,6.4,0,0,0,1,0,,,,,,,,,,,,,,,,,,,,
24484,1629387420095,,,247,249,237,232,,0.04,-0.01,1.8,1,-4,-4,0.04,,69,5650,5,31,56,0.68,0.0,561,4.91,13.3,0.0,1,32.7,2.46,6.4,0,0,0,1,0,,,,,,,,,,,,,,,,,,,,
24504,1629387420115,,,247,250,237,233,,0.01,0.03,1.97,1,-3,-4,0.03,,69,5620,4,31,56,0.681,0.0,560,4.85,13.0,0.0,1,32.7,2.47,6.4,0,0,0,1,0,,,,,,,,,,,,,,,,,,,,
24524,1629387420135,,,247,250,237,233,,-0.09,0.03,1.82,1,3,4,0.09,,69,5656,5,31,57,0.68,0.0,564,4.82,13.1,0.0,1,33.0,2.45,6.4,0,0,0,1,0,,,,,,,,,,,,,,,,,,,,
24544,1629387420155,5,5,247,249,238,233,-4,-0.04,-0.06,1.68,0,3,3,0.08,1,69,5630,5,31,57,0.68,0.0,564,4.84,13.1,0.0,1,33.0,1.35,6.4,0,0,0,1,0,0,250,250,0,49.330879,8.565146,0.0,120.2,9,2,1.5,0,0.0,-1,0.0,,0.0,0,0.0,0.4091
24564,1629387420175,,,247,248,237,233,,0.06,-0.02,1.86,0,-4,-5,0.06,,69,5699,4,31,56,0.679,0.0,566,4.87,13.3,0.0,1,32.7,2.43,6.4,0,0,0,1,0,,,,,,,,,,,,,,,,,,,,
24584,1629387420196,,,247,250,237,233,,0.05,0.03,2.02,0,-5,-7,0.06,,69,5659,4,31,56,0.681,0.0,568,4.89,13.3,0.0,1,32.7,2.46,6.4,0,0,0,1,0,,,,,,,,,,,,,,,,,,,,
24604,1629387420216,,,247,250,237,233,,-0.05,0.03,1.87,0,3,-1,0.06,,69,5719,5,31,56,0.68,0.0,567,4.82,13.1,0.0,1,32.7,2.41,6.4,0,0,0,1,0,,,,,,,,,,,,,,,,,,,,
24624,1629387420236,,,247,249,237,233,,-0.13,0.01,1.72,0,8,5,0.13,,69,5688,5,31,57,0.678,0.0,566,4.85,13.2,0.0,1,33.0,2.43,6.4,0,0,0,1,0,,,,,,,,,,,,,,,,,,,,
24644,1629387420256,4,5,247,248,238,233,-4,-0.03,-0.03,1.75,1,5,3,0.04,1,69,5688,4,31,56,0.677,0.0,565,4.84,13.2,0.0,1,32.7,1.32,6.4,0,0,0,1,0,0,250,250,0,49.330879,8.565146,0.0,120.2,9,2,1.5,0,0.0,-1,0.0,0.0,0.0,0,0.0,0.4107
24664,1629387420276,,,247,248,238,232,,0.08,-0.07,1.92,1,-4,-5,0.1,,69,5678,4,31,56,0.678,0.0,570,4.86,13.3,0.0,1,32.7,2.44,6.4,0,0,0,1,0,,,,,,,,,,,,,,,,,,,,
24684,1629387420295,,,247,250,237,233,,0.16,-0.01,2.08,0,-6,-6,0.16,,69,5706,4,31,56,0.68,0.0,572,4.88,13.3,0.0,1,32.7,2.42,6.3,0,0,0,1,0,,,,,,,,,,,,,,,,,,,,
24704,1629387420315,,,247,250,237,233,,0.13,0.01,2.23,0,0,-1,0.13,,69,5685,4,31,56,0.679,0.0,566,4.8,13.0,0.0,1,32.7,2.44,6.3,0,0,0,1,0,,,,,,,,,,,,,,,,,,,,
24724,1629387420335,,,247,248,237,233,,0.01,-0.01,2.06,1,5,4,0.01,,69,5697,4,31,56,0.677,0.0,561,4.82,13.0,0.0,1,32.7,1.31,6.3,0,0,0,1,0,,,,,,,,,,,,,,,,,,,,
24744,1629387420355,4,5,247,248,238,233,-4,-0.05,-0.07,1.9,0,3,1,0.09,1,69,5695,4,31,56,0.676,0.0,572,4.9,13.2,0.0,1,32.7,1.31,6.3,0,0,0,1,0,0,250,250,0,49.330879,8.565146,0.0,120.2,9,2,1.5,0,0.0,-1,0.0,,0.0,0,0.0,0.4124
24764,1629387420375,,,247,249,237,233,,0.06,-0.07,2.06,0,-4,-6,0.09,,69,5693,4,31,56,0.678,0.0,576,4.87,13.2,0.0,1,32.7,2.43,6.3,0,0,0,1,0,,,,,,,,,,,,,,,,,,,,
24784,1629387420395,,,247,250,238,233,,0.1,0.0,2.21,-0,-4,-7,0.1,,69,5709,4,31,56,0.679,0.0,571,4.8,13.1,0.0,1,32.7,2.42,6.3,0,0,0,1,0,,,,,,,,,,,,,,,,,,,,
24804,1629387420415,,,247,250,237,233,,0.06,0.04,2.35,0,3,-1,0.07,,69,5681,4,31,56,0.677,0.0,566,4.8,13.1,0.0,1,32.7,2.44,6.4,0,0,0,1,0,,,,,,,,,,,,,,,,,,,,
24824,1629387420435,,,247,248,237,233,,-0.05,0.03,2.17,0,6,4,0.06,,69,5714,5,31,56,0.675,0.0,567,4.82,13.0,0.0,1,32.7,1.3,6.4,0,0,0,1,0,,,,,,,,,,,,,,,,,,,,
24844,1629387420455,5,3,247,248,237,233,-3,-0.08,-0.04,2.0,0,4,1,0.08,1,69,5693,4,31,56,0.675,0.0,569,4.92,13.2,0.0,1,32.7,1.31,6.4,0,0,0,1,0,0,250,250,0,49.330879,8.565146,0.0,120.2,9,2,1.5,0,0.0,-1,0.0,0.0,0.0,0,0.0,0.4141
24864,1629387420475,,,247,250,237,233,,0.04,-0.04,2.15,-0,-3,-5,0.06,,69,5702,4,31,56,0.678,0.0,568,4.92,13.3,0.0,1,32.7,2.43,6.4,0,0,0,1,0,,,,,,,,,,,,,,,,,,,,
24884,1629387420495,,,247,250,237,233,,0.09,0.01,2.29,-0,-3,-5,0.09,,69,5723,4,31,56,0.679,0.0,566,4.77,13.1,0.0,1,32.7,2.41,6.3,0,0,0,1,0,,,,,,,,,,,,,,,,,,,,
24904,1629387420515,,,247,250,237,233,,0.06,0.03,2.43,0,1,-1,0.06,,69,5700,4,31,56,0.677,0.0,566,4.81,13.1,0.0,1,32.7,2.43,6.3,0,0,0,1,0,,,,,,,,,,,,,,,,,,,,
24924,1629387420535,,,247,249,237,233,,-0.04,0.03,2.24,0,5,4,0.05,,69,5728,4,31,56,0.675,0.0,568,4.85,13.0,0.0,1,32.7,2.41,6.3,0,0,0,1,0,,,,,,,,,,,,,,,,,,,,
24944,1629387420555,5,5,247,248,238,233,-4,-0.08,-0.01,2.07,-0,5,3,0.08,1,69,5700,5,31,56,0.675,0.0,566,4.86,13.2,0.0,1,32.7,1.31,6.3,0,0,0,1,0,0,250,250,0,49.330879,8.565146,0.0,120.2,9,2,1.5,0,0.0,-1,0.0,,0.0,0,0.0,0.4157
24964,1629387420575,,,247,249,237,233,,0.03,-0.05,2.21,-0,-2,-4,0.05,,69,5711,4,31,56,0.678,0.0,569,4.88,13.3,0.0,1,32.7,2.42,6.3,0,0,0,1,0,,,,,,,,,,,,,,,,,,,,
24984,1629387420595,,,247,250,237,232,,0.09,0.0,2.35,-0,-4,-6,0.09,,69,5726,5,31,56,0.678,0.0,574,4.89,13.3,0.0,1,32.7,2.41,6.4,0,0,0,1,0,,,,,,,,,,,,,,,,,,,,
25004,1629387420615,,,247,250,237,233,,0.06,0.03,2.48,-0,2,-2,0.06,,69,5712,5,31,56,0.676,0.0,572,4.81,13.1,0.0,1,32.7,2.42,6.4,0,0,0,1,0,,,,,,,,,,,,,,,,,,,,
25024,1629387420635,,,247,249,237,233,,-0.04,0.03,2.29,-0,8,5,0.05,,69,5751,5,31,56,0.674,0.0,571,4.8,13.0,0.0,1,32.8,1.27,6.4,0,0,0,1,0,,,,,,,,,,,,,,,,,,,,
25044,1629387420655,4,5,247,248,237,233,-5,-0.13,0.01,2.11,-0,9,5,0.13,1,69,5723,5,31,56,0.674,0.0,566,4.86,13.1,0.0,1,32.7,1.3,6.4,0,0,0,1,0,0,250,250,0,49.330879,8.565146,0.0,120.2,9,2,1.5,0,0.0,-1,0.0,0.0,0.0,0,0.0,0.4174
25064,1629387420675,,,247,248,237,233,,-0.07,-0.02,1.95,-0,4,-1,0.07,,69,5748,4,31,56,0.677,0.0,571,4.86,13.2,0.0,1,32.7,1.28,6.4,0,0,0,1,0,,,,,,,,,,,,,,,,,,,,
25084,1629387420695,,,247,250,237,232,,0.05,-0.01,2.11,-0,-4,-7,0.05,,69,5769,4,31,56,0.678,0.0,580,4.91,13.3,0.0,1,32.8,2.38,6.3,0,0,0,1,0,,,,,,,,,,,,,,,,,,,,
25104,1629387420715,,,247,250,237,233,,0.1,0.02,2.25,-0,-4,-7,0.1,,69,5751,4,31,56,0.678,0.0,572,4.81,13.1,0.0,1,32.8,2.39,6.3,0,0,0,1,0,,,,,,,,,,,,,,,,,,,,
25124,1629387420735,,,247,250,237,233,,0.08,0.02,2.39,-0,2,-1,0.08,,69,5758,5,31,56,0.676,0.0,569,4.82,13.1,0.0,1,32.8,2.39,6.3,0,0,0,1,0,,,,,,,,,,,,,,,,,,,,
25144,1629387420755,3,5,247,248,237,233,-4,-0.03,-0.0,2.2,-0,7,5,0.03,1,69,5737,5,31,56,0.675,0.0,568,4.85,13.0,0.0,1,32.7,2.4,6.3,0,0,0,1,0,0,250,250,0,49.330879,8.565146,0.0,120.2,9,2,1.5,0,0.0,-1,0.0,,0.0,0,0.0,0.4191
25164,1629387420775,,,247,248,238,232,,-0.12,-0.04,2.03,-0,8,5,0.12,,69,5749,5,31,56,0.677,0.0,571,4.83,13.1,0.0,1,32.7,2.4,6.3,0,0,0,1,0,,,,,,,,,,,,,,,,,,,,
25184,1629387420795,,,247,248,238,233,,-0.07,-0.08,1.88,-0,4,0,0.11,,69,5751,5,31,56,0.678,0.0,575,4.91,13.3,0.0,1,32.8,2.39,6.3,0,0,0,1,0,,,,,,,,,,,,,,,,,,,,
25204,1629387420815,,,247,250,238,233,,0.02,-0.04,2.04,-0,-4,-5,0.05,,69,5755,4,31,56,0.678,0.0,573,4.92,13.3,0.0,1,32.8,2.39,6.3,0,0,0,1,0,,,,,,,,,,,,,,,,,,,,
25224,1629387420835,,,247,250,237,233,,0.06,0.02,2.19,-0,-4,-6,0.06,,69,5740,4,31,56,0.678,0.0,572,4.8,13.1,0.0,1,32.7,2.4,6.3,0,0,0,1,0,,,,,,,,,,,,,,,,,,,,
25244,1629387420855,4,3,247,250,237,233,-3,0.03,0.04,2.33,-0,2,-1,0.05,1,69,5771,5,31,56,0.676,0.0,573,4.8,13.0,0.0,1,32.8,2.38,6.3,0,0,0,1,0,0,250,250,0,49.330879,8.565146,0.0,120.2,9,2,1.5,0,0.0,-1,0.0,0.0,0.0,0,0.0,0.4207
25264,1629387420875,,,247,248,237,233,,-0.06,0.05,2.15,-0,8,5,0.08,,69,5728,5,31,56,0.676,0.0,573,4.8,13.0,0.0,1,32.7,1.29,6.3,0,0,0,1,0,,,,,,,,,,,,,,,,,,,,
25284,1629387420895,,,247,248,237,233,,-0.14,0.01,1.98,-1,11,7,0.14,,69,5771,5,31,56,0.677,0.0,566,4.91,13.2,0.0,1,32.8,2.38,6.3,0,0,0,1,0,,,,,,,,,,,,,,,,,,,,
25304,1629387420915,,,247,248,237,233,,-0.1,-0.05,1.83,-1,7,4,0.11,,69,5763,4,31,56,0.677,0.0,568,4.9,13.2,0.0,1,32.8,2.39,6.3,0,0,0,1,0,,,,,,,,,,,,,,,,,,,,
25324,1629387420935,,,247,250,237,233,,0.01,-0.04,2.0,-1,0,-2,0.04,,69,5779,4,31,56,0.677,0.0,574,4.86,13.3,0.0,1,32.8,2.39,6.3,0,0,0,1,0,,,,,,,,,,,,,,,,,,,,
25344,1629387420955,5,4,247,250,238,233,-4,0.07,-0.01,2.15,-1,-3,-5,0.07,1,69,5772,4,31,56,0.677,0.0,576,4.9,13.3,0.0,1,32.8,2.39,6.3,0,0,0,1,0,0,250,250,0,49.330879,8.565146,0.0,120.2,9,2,1.5,0,0.0,-1,0.0,,0.0,0,0.0,0.4224
25364,1629387420975,,,247,250,237,233,,0.05,0.01,2.29,-1,0,-2,0.05,,69,5737,5,31,55,0.676,0.0,570,4.82,13.2,0.0,1,32.5,2.4,6.3,0,0,0,1,0,,,,,,,,,,,,,,,,,,,,
25384,1629387420995,,,247,249,237,233,,-0.02,0.03,2.12,-1,6,5,0.04,,69,5742,5,31,56,0.676,0.0,568,4.81,13.0,0.0,1,32.7,2.4,6.3,0,0,0,1,0,,,,,,,,,,,,,,,,,,,,
25404,1629387421006,,,247,249,237,233,,-0.11,0.03,1.95,-1,7,7,0.12,,69,5721,4,31,56,0.676,0.0,576,4.87,13.2,0.0,1,32.7,1.29,6.3,0,0,0,1,0,,,,,,,,,,,,,,,,,,,,
25424,1629387421026,,,247,248,237,233,,-0.06,-0.04,1.8,-0,1,1,0.07,,69,5721,4,31,56,0.676,0.0,574,4.84,13.2,0.0,1,32.7,1.29,6.3,0,0,0,1,0,,,,,,,,,,,,,,,,,,,,
25444,1629387421046,4,5,247,250,237,233,-3,0.05,-0.02,1.97,-0,-5,-5,0.05,1,69,5735,4,31,56,0.676,0.0,573,4.93,13.3,0.0,1,32.7,2.41,6.3,0,0,0,1,0,0,250,250,0,49.330879,8.565146,0.0,120.2,9,2,1.5,0,0.0,-1,0.0,0.0,0.0,0,0.0,0.4241
25464,1629387421066,,,247,250,237,233,,0.06,0.02,2.13,-0,-5,-6,0.07,,69,5739,4,31,56,0.675,0.0,570,4.87,13.3,0.0,1,32.7,2.41,6.3,0,0,0,1,0,,,,,,,,,,,,,,,,,,,,
25484,1629387421094,,,247,250,237,233,,0.01,0.03,2.07,-0,2,-1,0.03,,69,5765,4,31,55,0.674,0.0,572,4.8,13.1,0.0,1,32.6,2.39,6.3,0,0,0,1,0,,,,,,,,,,,,,,,,,,,,
25504,1629387421114,,,247,248,237,232,,-0.1,0.01,1.91,-0,8,5,0.1,,69,5739,5,31,55,0.674,0.0,573,4.85,13.0,0.0,1,32.5,2.4,6.3,0,0,0,1,0,,,,,,,,,,,,,,,,,,,,
25524,1629387421134,,,247,248,238,233,,-0.16,-0.0,1.77,0,8,5,0.16,,69,5765,5,31,56,0.675,0.0,571,4.86,13.1,0.0,1,32.8,1.27,6.3,0,0,0,1,0,,,,,,,,,,,,,,,,,,,,
25544,1629387421154,4,4,247,248,237,233,-4,-0.07,-0.04,1.74,-0,2,1,0.08,1,69,5760,5,31,56,0.675,0.0,569,4.88,13.2,0.0,1,32.8,1.27,6.3,0,0,0,1,0,0,250,250,0,49.330879,8.565146,0.0,120.2,9,2,1.5,0,0.0,-1,0.0,,0.0,0,0.0,0.4257
25564,1629387421174,,,247,250,237,233,,0.04,-0.01,1.91,-0,-6,-4,0.04,,69,5733,4,31,56,0.676,0.0,571,4.86,13.3,0.0,1,32.7,2.42,6.3,0,0,0,1,0,,,,,,,,,,,,,,,,,,,,
25584,1629387421194,,,247,250,237,233,,0.07,0.03,2.07,-0,-6,-5,0.07,,69,5719,4,31,55,0.675,0.0,572,4.86,13.2,0.0,1,32.5,2.43,6.4,0,0,0,1,0,,,,,,,,,,,,,,,,,,,,
25604,1629387421214,,,247,250,237,233,,-0.0,0.02,1.92,-0,0,1,0.02,,69,5719,5,31,56,0.673,0.0,566,4.81,13.0,0.0,1,32.7,2.42,6.4,0,0,0,1,0,,,,,,,,,,,,,,,,,,,,
25624,1629387421234,,,247,248,237,233,,-0.11,0.0,1.77,0,4,6,0.11,,69,5728,5,31,56,0.674,0.0,564,4.81,13.0,0.0,1,32.7,1.29,6.4,0,0,0,1,0,,,,,,,,,,,,,,,,,,,,
25644,1629387421254,5,3,247,248,237,233,-4,-0.12,-0.05,1.63,0,3,3,0.13,1,69,5737,5,31,56,0.676,0.0,571,4.91,13.3,0.0,1,32.7,2.4,6.4,0,0,0,1,0,0,250,250,0,49.330879,8.565146,0.0,120.2,9,2,1.5,0,0.0,-1,0.0,0.0,0.0,0,0.0,0.4274
25664,1629387421274,,,247,248,238,233,,-0.01,-0.04,1.81,-0,-4,-4,0.04,,69,5707,5,31,56,0.677,0.0,572,4.9,13.3,0.0,1,32.7,2.42,6.4,0,0,0,1,0,,,,,,,,,,,,,,,,,,,,
25684,1629387421294,,,247,250,237,233,,0.03,0.03,1.98,-0,-8,-7,0.05,,69,5726,5,31,56,0.677,0.0,568,4.82,13.2,0.0,1,32.7,2.41,6.4,0,0,0,1,0,,,,,,,,,,,,,,,,,,,,
25704,1629387421314,,,247,250,237,233,,0.0,0.06,2.14,-0,-3,-4,0.06,,69,5712,5,31,56,0.675,0.0,570,4.84,13.2,0.0,1,32.7,2.42,6.4,0,0,0,1,0,,,,,,,,,,,,,,,,,,,,
25724,1629387421334,,,247,248,237,232,,-0.1,0.05,1.97,-0,4,3,0.12,,69,5709,5,31,56,0.674,0.0,569,4.77,13.0,0.0,1,32.7,1.3,6.4,0,0,0,1,0,,,,,,,,,,,,,,,,,,,,
25744,1629387421354,5,4,247,248,238,233,-4,-0.15,-0.01,1.82,-0,6,4,0.15,1,69,5716,5,31,56,0.676,0.0,571,4.85,13.1,0.0,1,32.7,2.42,6.4,0,0,0,1,0,0,250,250,0,49.330879,8.565146,0.0,120.2,9,2,1.5,0,0.0,-1,0.0,,0.0,0,0.0,0.4291
25764,1629387421374,,,247,248,237,233,,-0.02,-0.04,1.99,-1,3,-2,0.05,,69,5704,5,31,56,0.677,0.0,567,4.91,13.3,0.0,1,32.7,1.31,6.4,0,0,0,1,0,,,,,,,,,,,,,,,,,,,,
25784,1629387421394,,,247,250,237,232,,0.04,0.01,2.14,-1,-3,-6,0.04,,69,5685,5,31,56,0.678,0.0,566,4.83,13.2,0.0,1,32.7,2.44,6.4,0,0,0,1,0,,,,,,,,,,,,,,,,,,,,
25804,1629387421414,,,247,250,237,233,,0.01,0.04,2.28,-0,-0,-3,0.04,,69,5664,5,31,56,0.676,0.0,567,4.81,13.1,0.0,1,32.7,2.45,6.4,0,0,0,1,0,,,,,,,,,,,,,,,,,,,,
25824,1629387421434,,,247,250,238,233,,-0.1,0.04,2.11,-0,5,3,0.1,,69,5669,5,31,56,0.674,0.0,571,4.83,13.2,0.0,1,32.7,2.45,6.4,0,0,0,1,0,,,,,,,,,,,,,,,,,,,,
25844,1629387421454,4,5,247,248,237,233,-4,-0.07,-0.04,1.95,-0,1,1,0.08,1,69,5644,4,31,56,0.675,0.0,566,4.84,13.2,0.0,1,32.7,1.35,6.4,0,0,0,1,0,0,250,250,0,49.330879,8.565146,0.0,120.2,9,2,1.5,0,0.0,-1,0.0,0.0,0.0,0,0.0,0.4307
25864,1629387421474,,,247,249,238,233,,0.04,-0.02,2.1,-0,-6,-6,0.05,,69,5683,4,31,56,0.678,0.0,566,4.91,13.3,0.0,1,32.7,2.44,6.4,0,0,0,1,0,,,,,,,,,,,,,,,,,,,,
25884,1629387421494,,,247,250,237,233,,0.04,0.03,2.25,-0,-4,-6,0.05,,69,5674,4,31,56,0.678,0.0,566,4.8,13.1,0.0,1,32.7,2.45,6.4,0,0,0,1,0,,,,,,,,,,,,,,,,,,,,
25904,1629387421514,,,247,250,237,233,,-0.05,0.03,2.08,-0,3,0,0.06,,69,5712,4,31,56,0.676,0.0,567,4.75,13.1,0.0,1,32.7,2.42,6.4,0,0,0,1,0,,,,,,,,,,,,,,,,,,,,
25924,1629387421534,,,247,248,237,233,,-0.14,0.02,1.92,0,7,4,0.14,,69,5707,4,31,56,0.675,0.0,565,4.86,13.1,0.0,1,32.7,1.3,6.4,0,0,0,1,0,,,,,,,,,,,,,,,,,,,,
25944,1629387421554,4,3,247,248,238,233,-3,-0.06,-0.03,1.77,1,1,1,0.06,1,69,5712,4,31,56,0.675,0.0,563,4.89,13.2,0.0,1,32.7,2.42,6.4,0,0,0,1,0,0,250,250,0,49.330879,8.565146,0.0,120.2,9,2,1.5,0,0.0,-1,0.0,,0.0,0,0.0,0.4324
25964,1629387421574,,,247,248,237,233,,0.06,-0.0,1.94,0,-7,-5,0.06,,69,5751,4,31,56,0.679,0.0,568,4.91,13.3,0.0,1,32.8,2.39,6.4,0,0,0,1,0,,,,,,,,,,,,,,,,,,,,
25984,1629387421596,,,247,250,238,232,,0.08,0.02,2.1,0,-10,-7,0.09,,69,5733,5,31,56,0.681,0.0,570,4.86,13.3,0.0,1,32.7,2.41,6.4,0,0,0,1,0,,,,,,,,,,,,,,,,,,,,
26004,1629387421616,,,247,250,237,233,,0.03,0.03,2.05,0,-4,-3,0.04,,69,5755,5,31,56,0.68,0.0,565,4.81,13.0,0.0,1,32.8,2.39,6.4,0,0,0,1,0,,,,,,,,,,,,,,,,,,,,
26024,1629387421636,,,247,248,237,233,,-0.08,-0.0,1.89,0,2,4,0.08,,69,5742,5,31,56,0.677,0.0,566,4.88,13.1,0.0,1,32.7,2.4,6.4,0,0,0,1,0,,,,,,,,,,,,,,,,,,,,
26044,1629387421656,4,4,247,248,238,233,-5,-0.13,-0.04,1.74,0,3,5,0.14,1,69,5733,5,31,56,0.676,0.0,568,4.81,13.1,0.0,1,32.7,1.29,6.4,0,0,0,1,0,0,250,250,0,49.330879,8.565146,0.0,120.2,9,2,1.5,0,0.0,-1,0.0,0.0,0.0,0,0.0,0.4341
26064,1629387421676,,,247,247,237,233,,-0.03,-0.05,1.92,0,-1,2,0.06,,69,5735,5,31,56,0.679,0.0,577,4.9,13.3,0.0,1,32.7,2.41,6.4,0,0,0,1,0,,,,,,,,,,,,,,,,,,,,
26084,1629387421696,,,247,249,237,233,,0.05,0.01,2.08,-0,-7,-5,0.05,,69,5748,4,31,56,0.68,0.0,573,4.92,13.3,0.0,1,32.7,2.4,6.3,0,0,0,1,0,,,,,,,,,,,,,,,,,,,,
26104,1629387421716,,,247,250,237,233,,0.05,0.06,2.22,-0,-7,-6,0.07,,69,5744,5,31,56,0.679,0.0,569,4.87,13.3,0.0,1,32.7,2.4,6.3,0,0,0,1,0,,,,,,,,,,,,,,,,,,,,
26124,1629387421736,,,247,250,238,233,,-0.03,0.07,2.05,-0,0,0,0.08,,69,5712,5,31,56,0.677,0.0,572,4.8,13.1,0.0,1,32.7,1.3,6.3,0,0,0,1,0,,,,,,,,,,,,,,,,,,,,
26144,1629387421756,4,5,247,248,237,233,-4,-0.13,0.05,1.9,0,6,6,0.14,1,69,5767,5,31,56,0.676,0.0,573,4.81,13.0,0.0,1,32.8,1.26,6.3,0,0,0,1,0,0,250,250,0,49.330879,8.565146,0.0,120.2,9,2,1.5,0,0.0,-1,0.0,,0.0,0,0.0,0.4357
26164,1629387421776,,,247,248,238,232,,-0.12,-0.01,1.75,0,6,5,0.12,,69,5728,5,31,56,0.678,0.0,572,4.85,13.1,0.0,1,32.7,2.41,6.3,0,0,0,1,0,,,,,,,,,,,,,,,,,,,,
26184,1629387421796,,,247,248,237,233,,0.0,-0.02,1.92,-0,0,-0,0.02,,69,5740,5,31,56,0.678,0.0,568,4.9,13.2,0.0,1,32.7,2.4,6.3,0,0,0,1,0,,,,,,,,,,,,,,,,,,,,
26204,1629387421816,,,247,250,238,233,,0.06,0.03,2.08,-1,-6,-6,0.06,,69,5733,4,31,56,0.678,0.0,570,4.84,13.2,0.0,1,32.7,2.41,6.3,0,0,0,1,0,,,,,,,,,,,,,,,,,,,,
26224,1629387421836,,,247,250,238,233,,0.03,0.04,2.23,-0,-5,-5,0.05,,69,5709,4,31,56,0.676,0.0,570,4.83,13.2,0.0,1,32.7,2.42,6.3,0,0,0,1,0,,,,,,,,,,,,,,,,,,,,
26244,1629387421856,4,5,247,250,237,232,-4,-0.06,0.04,2.06,-0,0,1,0.07,1,69,5711,5,31,56,0.674,0.0,567,4.83,13.1,0.0,1,32.7,2.42,6.3,0,0,0,1,0,0,250,250,0,49.330879,8.565146,0.0,120.2,9,2,1.5,0,0.0,-1,0.0,0.0,0.0,0,0.0,0.4374
26264,1629387421876,,,247,249,237,233,,-0.12,0.01,1.9,-0,4,4,0.12,,69,5706,5,31,56,0.675,0.0,565,4.82,13.1,0.0,1,32.7,2.42,6.3,0,0,0,1,0,,,,,,,,,,,,,,,,,,,,
26284,1629387421896,,,247,248,237,233,,-0.01,-0.02,2.06,-0,-2,1,0.03,,69,5685,4,31,56,0.676,0.0,570,4.81,13.2,0.0,1,32.7,1.32,6.3,0,0,0,1,0,,,,,,,,,,,,,,,,,,,,
26304,1629387421916,,,247,250,237,233,,0.05,0.04,2.21,-0,-8,-5,0.06,,69,5681,4,31,56,0.677,0.0,567,4.9,13.3,0.0,1,32.7,2.44,6.4,0,0,0,1,0,,,,,,,,,,,,,,,,,,,,
26324,1629387421936,,,247,250,237,233,,-0.0,0.04,2.35,-0,-4,-4,0.04,,69,5647,5,31,56,0.675,0.0,562,4.81,13.0,0.0,1,32.7,2.47,6.4,0,0,0,1,0,,,,,,,,,,,,,,,,,,,,
26344,1629387421956,3,4,247,250,237,233,-4,-0.11,0.03,2.17,-0,3,3,0.11,1,69,5654,5,31,56,0.673,0.0,558,4.86,13.1,0.0,1,32.7,2.46,6.4,0,0,0,1,0,0,250,250,0,49.330879,8.565146,0.0,120.2,9,2,1.5,0,0.0,-1,0.0,,0.0,0,0.0,0.4391
26364,1629387421976,,,247,248,238,232,,-0.06,-0.03,2.0,-0,4,2,0.07,,69,5649,5,31,56,0.673,0.0,560,4.89,13.2,0.0,1,32.7,1.34,6.4,0,0,0,1,0,,,,,,,,,,,,,,,,,,,,
26384,1629387421996,,,247,248,237,233,,0.05,0.0,2.15,-0,-5,-4,0.05,,69,5640,4,31,56,0.676,0.0,563,4.82,13.3,0.0,1,32.7,2.47,6.4,0,0,0,1,0,,,,,,,,,,,,,,,,,,,,
26404,1629387421999,,,247,250,237,233,,0.04,0.03,2.29,-0,-5,-4,0.05,,69,5618,5,31,56,0.677,0.0,561,4.85,13.2,0.0,1,32.7,2.48,6.4,0,0,0,1,0,,,,,,,,,,,,,,,,,,,,
26424,1629387422019,,,247,250,238,233,,-0.08,0.0,2.12,-0,2,3,0.08,,69,5623,5,31,56,0.675,0.0,557,4.84,13.1,0.0,1,32.7,1.36,6.4,0,0,0,1,0,,,,,,,,,,,,,,,,,,,,
26444,1629387422039,3,5,247,248,238,232,-3,-0.05,-0.09,1.95,-0,2,4,0.1,1,69,5588,5,31,56,0.674,0.0,566,4.92,13.3,0.0,1,32.7,2.51,6.4,0,0,0,1,0,0,250,250,0,49.330879,8.565146,0.0,120.2,9,2,1.5,0,0.0,-1,0.0,0.0,0.0,0,0.0,0.4407
26464,1629387422059,,,247,248,237,233,,0.04,-0.01,2.11,-0,-5,-3,0.04,,69,5622,4,31,57,0.675,0.0,568,4.92,13.3,0.0,1,32.9,2.48,6.4,0,0,0,1,0,,,,,,,,,,,,,,,,,,,,
26484,1629387422079,,,247,250,238,233,,-0.01,0.02,2.26,-0,-3,-2,0.02,,69,5562,5,31,56,0.676,0.0,558,4.78,13.0,0.0,1,32.7,2.52,6.5,0,0,0,1,0,,,,,,,,,,,,,,,,,,,,
26504,1629387422105,,,247,250,237,233,,-0.1,-0.03,2.08,0,4,5,0.1,,69,5610,5,31,57,0.676,0.0,553,4.77,13.0,0.0,1,32.9,1.36,6.5,0,0,0,1,0,,,,,,,,,,,,,,,,,,,,
26524,1629387422125,,,247,248,237,233,,0.02,-0.08,2.23,-0,2,3,0.08,,69,5583,4,31,57,0.677,0.0,560,4.9,13.2,0.0,1,32.9,1.38,6.5,0,0,0,1,0,,,,,,,,,,,,,,,,,,,,
26544,1629387422145,3,5,247,250,237,233,-4,0.06,-0.01,2.37,-0,-5,-3,0.06,1,69,5645,5,31,56,0.677,0.0,554,4.83,13.2,0.0,1,32.7,2.47,6.5,0,0,0,1,0,0,250,250,0,49.330879,8.565146,0.0,120.2,9,2,1.5,0,0.0,-1,0.0,,0.0,0,0.0,0.4424
26564,1629387422165,,,247,250,238,233,,-0.02,0.03,2.18,-0,-1,0,0.04,,69,5598,5,31,56,0.676,0.0,555,4.81,13.1,0.0,1,32.7,2.49,6.5,0,0,0,1,0,,,,,,,,,,,,,,,,,,,,
26584,1629387422195,,,247,250,238,233,,-0.1,-0.01,2.02,0,3,6,0.1,,69,5645,5,31,57,0.676,0.0,560,4.87,13.2,0.0,1,33.0,2.45,6.4,0,0,0,1,0,,,,,,,,,,,,,,,,,,,,
26604,1629387422215,,,247,248,237,233,,0.02,-0.05,2.17,-0,-1,1,0.05,,69,5608,5,31,57,0.678,0.0,562,4.87,13.2,0.0,1,32.9,2.48,6.4,0,0,0,1,0,,,,,,,,,,,,,,,,,,,,
26624,1629387422235,,,247,250,237,233,,0.04,0.02,2.31,-0,-7,-4,0.04,,69,5612,5,31,56,0.678,0.0,558,4.8,13.3,0.0,1,32.7,2.48,6.4,0,0,0,1,0,,,,,,,,,,,,,,,,,,,,
26644,1629387422255,4,5,247,250,237,233,-4,-0.07,0.03,2.13,0,0,1,0.07,1,69,5592,5,31,57,0.676,0.0,555,4.8,13.0,0.0,1,32.9,2.49,6.4,0,0,0,1,0,0,250,250,0,49.330879,8.565146,0.0,120.2,9,2,1.5,0,0.0,-1,0.0,0.0,0.0,0,0.0,0.4441
26664,1629387422275,,,247,250,237,233,,-0.11,-0.01,1.97,0,5,5,0.11,,69,5610,5,31,57,0.677,0.0,555,4.81,13.1,0.0,1,32.9,2.48,6.4,0,0,0,1,0,,,,,,,,,,,,,,,,,,,,
26684,1629387422295,,,247,248,237,233,,0.02,-0.01,2.12,0,-3,-0,0.02,,69,5612,5,31,57,0.678,0.0,560,4.9,13.3,0.0,1,32.9,1.36,6.4,0,0,0,1,0,,,,,,,,,,,,,,,,,,,,
26704,1629387422315,,,247,250,238,233,,0.03,0.03,2.27,0,-7,-4,0.04,,69,5595,4,31,57,0.678,0.0,558,4.89,13.3,0.0,1,32.9,2.49,6.4,0,0,0,1,0,,,,,,,,,,,,,,,,,,,,
26724,1629387422335,,,247,250,237,233,,-0.0,0.06,2.4,1,-1,2,0.06,,69,5617,5,31,57,0.676,0.0,552,4.82,13.1,0.0,1,32.9,2.47,6.4,0,0,0,1,0,,,,,,,,,,,,,,,,,,,,
26744,1629387422355,4,3,247,248,238,233,-4,-0.11,0.02,2.22,1,2,4,0.11,1,69,5608,5,31,57,0.677,0.0,558,4.9,13.3,0.0,1,32.9,2.48,6.4,0,0,0,1,0,0,250,250,0,49.330879,8.565146,0.0,120.2,9,2,1.5,0,0.0,-1,0.0,,0.0,0,0.0,0.4457
26764,1629387422375,,,247,248,237,233,,-0.05,-0.06,2.04,0,-4,-1,0.08,,69,5623,5,31,57,0.678,0.0,564,4.91,13.3,0.0,1,32.9,2.47,6.4,0,0,0,1,0,,,,,,,,,,,,,,,,,,,,
26784,1629387422395,,,247,250,238,232,,0.02,0.02,2.19,0,-6,-4,0.03,,69,5600,4,31,57,0.677,0.0,563,4.86,13.3,0.0,1,32.9,2.49,6.4,0,0,0,1,0,,,,,,,,,,,,,,,,,,,,
26804,1629387422415,,,247,250,237,233,,-0.04,0.07,2.28,0,1,3,0.08,,69,5597,5,31,57,0.676,0.0,556,4.79,13.0,0.0,1,32.9,1.37,6.4,0,0,0,1,0,,,,,,,,,,,,,,,,,,,,
26824,1629387422435,,,247,248,237,233,,-0.12,0.02,2.11,1,3,4,0.12,,69,5597,5,31,57,0.677,0.0,559,4.9,13.2,0.0,1,32.9,2.49,6.4,0,0,0,1,0,,,,,,,,,,,,,,,,,,,,
26844,1629387422455,4,5,247,249,237,233,-4,0.0,-0.04,2.25,0,-5,-4,0.04,1,69,5575,4,31,57,0.678,0.0,558,4.93,13.3,0.0,1,32.9,2.5,6.4,0,0,0,1,0,0,250,250,0,49.330879,8.565146,0.0,120.2,9,2,1.5,0,0.0,-1,0.0,0.0,0.0,0,0.0,0.4474
26864,1629387422475,,,247,250,238,233,,0.03,0.03,2.39,0,-3,-3,0.04,,69,5592,5,31,57,0.676,0.0,550,4.81,13.2,0.0,1,32.9,2.49,6.4,0,0,0,1,0,,,,,,,,,,,,,,,,,,,,
26884,1629387422495,,,247,250,237,233,,-0.08,0.06,2.2,0,3,4,0.1,,69,5588,5,31,57,0.675,0.0,553,4.81,13.0,0.0,1,32.9,1.38,6.4,0,0,0,1,0,,,,,,,,,,,,,,,,,,,,
26904,1629387422515,,,247,249,237,233,,-0.1,-0.02,2.03,0,-1,-0,0.1,,69,5610,5,31,57,0.677,0.0,562,4.87,13.2,0.0,1,32.9,2.48,6.4,0,0,0,1,0,,,,,,,,,,,,,,,,,,,,
26924,1629387422535,,,247,250,238,232,,0.02,0.01,2.18,0,-7,-6,0.02,,69,5572,5,31,57,0.678,0.0,560,4.86,13.3,0.0,1,32.9,2.51,6.4,0,0,0,1,0,,,,,,,,,,,,,,,,,,,,
26944,1629387422555,5,5,247,250,238,233,-4,-0.01,0.06,2.32,0,1,-0,0.06,1,69,5623,5,31,57,0.677,0.0,554,4.82,13.0,0.0,1,32.9,2.47,6.4,0,0,0,1,0,0,250,250,0,49.330879,8.565146,0.0,120.2,9,2,1.5,0,0.0,-1,0.0,,0.0,0,0.0,0.4491
26964,1629387422575,,,247,250,237,233,,-0.12,0.05,2.14,0,5,3,0.13,,69,5608,5,31,57,0.676,0.0,555,4.84,13.1,0.0,1,32.9,2.48,6.4,0,0,0,1,0,,,,,,,,,,,,,,,,,,,,
26984,1629387422596,,,247,248,237,233,,-0.06,-0.03,1.98,0,-1,-2,0.06,,69,5607,5,31,57,0.679,0.0,557,4.91,13.3,0.0,1,32.9,1.36,6.4,0,0,0,1,0,,,,,,,,,,,,,,,,,,,,
27004,1629387422616,,,247,250,237,232,,0.04,0.01,2.13,-0,-6,-6,0.04,,69,5620,5,31,57,0.679,0.0,558,4.88,13.3,0.0,1,32.9,2.47,6.4,0,0,0,1,0,,,,,,,,,,,,,,,,,,,,
27024,1629387422636,,,247,250,237,232,,0.01,0.04,2.28,0,0,0,0.04,,69,5647,5,31,57,0.677,0.0,553,4.81,13.1,0.0,1,33.0,2.46,6.4,0,0,0,1,0,,,,,,,,,,,,,,,,,,,,
27044,1629387422656,4,5,247,248,238,233,-4,-0.1,-0.0,2.1,0,4,4,0.1,1,69,5650,5,31,57,0.677,0.0,555,4.83,13.1,0.0,1,33.0,1.34,6.4,0,0,0,1,0,0,250,250,0,49.330879,8.565146,0.0,120.2,9,2,1.5,0,0.0,-1,0.0,0.0,0.0,0,0.0,0.4507
27064,1629387422676,,,247,248,237,233,,-0.08,-0.07,1.94,0,-2,0,0.11,,69,5659,5,31,57,0.679,0.0,559,4.92,13.3,0.0,1,33.0,2.45,6.4,0,0,0,1,0,,,,,,,,,,,,,,,,,,,,
27084,1629387422695,,,247,248,237,233,,0.02,-0.03,2.1,0,-8,-5,0.04,,69,5692,5,31,57,0.679,0.0,565,4.9,13.3,0.0,1,33.0,2.42,6.3,0,0,0,1,0,,,,,,,,,,,,,,,,,,,,
27104,1629387422715,,,247,250,237,233,,0.03,0.04,2.24,0,-4,-4,0.05,,69,5693,5,31,57,0.679,0.0,562,4.8,13.2,0.0,1,33.0,2.42,6.3,0,0,0,1,0,,,,,,,,,,,,,,,,,,,,
27124,1629387422735,,,247,250,238,233,,-0.04,0.06,2.07,0,2,3,0.08,,69,5697,5,31,57,0.679,0.0,564,4.84,13.1,0.0,1,33.0,2.42,6.3,0,0,0,1,0,,,,,,,,,,,,,,,,,,,,
27144,1629387422755,4,3,247,248,237,233,-4,-0.13,0.02,1.91,-0,6,5,0.13,1,69,5688,5,31,57,0.679,0.0,568,4.91,13.3,0.0,1,33.0,1.31,6.3,0,0,0,1,0,0,250,250,0,49.330879,8.565146,0.0,120.2,9,2,1.5,0,0.0,-1,0.0,,0.0,0,0.0,0.4524
27164,1629387422775,,,247,248,237,233,,-0.07,-0.06,1.76,-0,1,1,0.09,,69,5699,5,31,57,0.679,0.0,564,4.83,13.3,0.0,1,33.0,2.42,6.3,0,0,0,1,0,,,,,,,,,,,,,,,,,,,,
27184,1629387422795,,,247,250,238,232,,0.03,-0.02,1.94,-0,-6,-4,0.04,,69,5678,5,31,57,0.679,0.0,563,4.91,13.3,0.0,1,33.0,2.43,6.3,0,0,0,1,0,,,,,,,,,,,,,,,,,,,,
27204,1629387422815,,,247,250,237,233,,0.04,0.01,2.09,-0,-2,-2,0.04,,69,5690,5,31,57,0.68,0.0,565,4.81,13.0,0.0,1,33.0,2.43,6.3,0,0,0,1,0,,,,,,,,,,,,,,,,,,,,
27224,1629387422835,,,247,250,238,233,,-0.05,0.04,1.93,-0,3,5,0.06,,69,5673,5,31,57,0.678,0.0,567,4.81,13.0,0.0,1,33.0,1.32,6.3,0,0,0,1,0,,,,,,,,,,,,,,,,,,,,
27244,1629387422855,3,5,247,248,237,232,-4,-0.11,0.01,1.78,-0,4,5,0.11,1,69,5680,5,31,57,0.677,0.0,567,4.85,13.2,0.0,1,33.0,2.43,6.3,0,0,0,1,0,0,250,250,0,49.330879,8.565146,0.0,120.2,9,2,1.5,0,0.0,-1,0.0,0.0,0.0,0,0.0,0.4541
27264,1629387422875,,,247,248,237,233,,-0.0,-0.03,1.95,-0,-4,-1,0.03,,69,5676,5,31,57,0.678,0.0,564,4.9,13.3,0.0,1,33.0,2.44,6.3,0,0,0,1,0,,,,,,,,,,,,,,,,,,,,
27284,1629387422895,,,247,250,238,233,,0.05,0.03,2.11,-0,-6,-4,0.06,,69,5657,4,31,56,0.68,0.0,565,4.89,13.3,0.0,1,32.7,2.46,6.4,0,0,0,1,0,,,,,,,,,,,,,,,,,,,,
27304,1629387422915,,,247,250,238,233,,-0.01,0.05,2.09,-0,2,2,0.05,,69,5671,5,31,57,0.678,0.0,562,4.81,13.0,0.0,1,33.0,2.44,6.4,0,0,0,1,0,,,,,,,,,,,,,,,,,,,,
27324,1629387422935,,,247,249,237,233,,-0.11,0.03,1.93,-0,6,6,0.12,,69,5664,4,31,57,0.676,0.0,562,4.9,13.2,0.0,1,33.0,2.44,6.4,0,0,0,1,0,,,,,,,,,,,,,,,,,,,,
27344,1629387422955,4,3,247,248,238,232,-4,-0.05,-0.04,1.78,0,-1,1,0.06,1,69,5640,5,31,57,0.675,0.0,559,4.9,13.3,0.0,1,33.0,2.46,6.4,0,0,0,1,0,0,250,250,0,49.330879,8.565146,0.0,120.2,9,2,1.5,0,0.0,-1,0.0,,0.0,0,0.0,0.4557
27364,1629387422975,,,247,250,237,233,,0.05,0.0,1.95,0,-7,-4,0.05,,69,5640,5,31,57,0.677,0.0,561,4.84,13.2,0.0,1,33.0,2.46,6.4,0,0,0,1,0,,,,,,,,,,,,,,,,,,,,
27384,1629387422995,,,247,250,238,233,,0.04,0.03,2.11,0,-3,-1,0.05,,69,5668,5,31,56,0.677,0.0,558,4.81,13.2,0.0,1,32.7,2.44,6.4,0,0,0,1,0,,,,,,,,,,,,,,,,,,,,
27404,1629387423004,,,247,248,237,233,,-0.07,-0.01,1.95,0,3,6,0.07,,69,5685,5,31,57,0.674,0.0,555,4.85,13.2,0.0,1,33.0,2.43,6.4,0,0,0,1,0,,,,,,,,,,,,,,,,,,,,
27424,1629387423024,,,247,248,237,233,,-0.11,-0.08,1.8,-0,3,5,0.14,,69,5668,5,31,57,0.673,0.0,560,4.91,13.3,0.0,1,33.0,2.44,6.4,0,0,0,1,0,,,,,,,,,,,,,,,,,,,,
27444,1629387423044,4,4,247,248,237,233,-5,-0.01,-0.09,1.96,-0,-4,-1,0.09,1,69,5695,5,31,57,0.673,0.0,566,4.9,13.3,0.0,1,33.0,2.42,6.4,0,0,0,1,0,0,250,250,0,49.330879,8.565146,0.0,120.2,9,2,1.5,0,0.0,-1,0.0,0.0,0.0,0,0.0,0.4574
27464,1629387423064,,,247,250,237,233,,0.03,-0.0,2.12,-1,-6,-4,0.03,,69,5662,5,31,56,0.675,0.0,568,4.83,13.1,0.0,1,32.7,2.44,6.4,0,0,0,1,0,,,,,,,,,,,,,,,,,,,,
27484,1629387423096,,,247,250,237,233,,-0.03,0.04,2.08,-0,0,2,0.05,,69,5661,4,31,56,0.675,0.0,561,4.75,13.1,0.0,1,32.7,2.46,6.4,0,0,0,1,0,,,,,,,,,,,,,,,,,,,,
27504,1629387423116,,,247,248,237,233,,-0.12,0.02,1.92,-0,5,6,0.12,,69,5678,5,31,56,0.674,0.0,561,4.85,13.1,0.0,1,32.7,1.32,6.4,0,0,0,1,0,,,,,,,,,,,,,,,,,,,,
27524,1629387423136,,,247,248,237,233,,-0.08,-0.06,1.77,-0,1,3,0.1,,69,5678,5,31,57,0.674,0.0,566,4.9,13.2,0.0,1,33.0,2.43,6.4,0,0,0,1,0,,,,,,,,,,,,,,,,,,,,
27544,1629387423156,4,5,247,250,237,233,-4,0.03,-0.03,1.94,0,-7,-3,0.04,1,69,5688,4,31,57,0.675,0.0,569,4.9,13.3,0.0,1,33.0,2.44,6.4,0,0,0,1,0,0,250,250,0,49.330879,8.565146,0.0,120.2,9,2,1.5,0,0.0,-1,0.0,,0.0,0,0.0,0.4591
27564,1629387423176,,,247,250,237,233,,0.04,0.01,2.1,0,-6,-2,0.04,,69,5654,4,31,57,0.677,0.0,561,4.83,13.0,0.0,1,33.0,2.45,6.4,0,0,0,1,0,,,,,,,,,,,,,,,,,,,,
27584,1629387423196,,,247,250,238,233,,-0.05,0.04,1.94,0,1,5,0.07,,69,5700,5,31,56,0.675,0.0,560,4.76,13.0,0.0,1,32.7,2.42,6.3,0,0,0,1,0,,,,,,,,,,,,,,,,,,,,
27604,1629387423216,,,247,248,237,233,,-0.12,0.0,1.79,0,3,6,0.12,,69,5683,5,31,56,0.674,0.0,565,4.86,13.1,0.0,1,32.7,2.44,6.3,0,0,0,1,0,,,,,,,,,,,,,,,,,,,,
27624,1629387423236,,,247,248,238,233,,-0.02,-0.04,1.96,0,-3,0,0.04,,69,5699,5,31,57,0.675,0.0,567,4.92,13.3,0.0,1,33.0,1.3,6.3,0,0,0,1,0,,,,,,,,,,,,,,,,,,,,
27644,1629387423256,3,5,247,250,237,232,-4,0.05,0.01,2.11,-0,-7,-4,0.06,1,69,5712,5,31,56,0.678,0.0,563,4.91,13.3,0.0,1,32.7,2.42,6.3,0,0,0,1,0,0,250,250,0,49.330879,8.565146,0.0,120.2,9,2,1.5,0,0.0,-1,0.0,0.0,0.0,0,0.0,0.4607
27664,1629387423276,,,247,250,237,233,,0.02,0.04,2.26,-0,-2,-1,0.05,,69,5686,5,31,56,0.678,0.0,563,4.85,13.2,0.0,1,32.7,2.44,6.3,0,0,0,1,0,,,,,,,,,,,,,,,,,,,,
27684,1629387423296,,,247,250,237,233,,-0.08,0.03,2.08,-0,5,6,0.08,,69,5718,5,31,56,0.675,0.0,565,4.82,13.1,0.0,1,32.7,1.3,6.3,0,0,0,1,0,,,,,,,,,,,,,,,,,,,,
27704,1629387423316,,,247,248,238,233,,-0.14,0.0,1.92,0,6,6,0.14,,69,5702,5,31,56,0.674,0.0,564,4.85,13.1,0.0,1,32.7,1.31,6.4,0,0,0,1,0,,,,,,,,,,,,,,,,,,,,
27724,1629387423336,,,247,248,237,232,,-0.02,-0.02,2.08,-0,-1,1,0.03,,69,5700,5,31,56,0.675,0.0,558,4.9,13.3,0.0,1,32.7,1.31,6.4,0,0,0,1,0,,,,,,,,,,,,,,,,,,,,
27744,1629387423356,4,4,247,250,238,232,-4,0.07,0.01,2.23,-0,-7,-4,0.07,1,69,5719,5,31,56,0.678,0.0,564,4.83,13.3,0.0,1,32.7,2.42,6.4,0,0,0,1,0,0,250,250,0,49.330879,8.565146,0.0,120.2,9,2,1.5,0,0.0,-1,0.0,,0.0,0,0.0,0.4624
27764,1629387423376,,,247,250,237,232,,0.05,0.02,2.37,0,-5,-3,0.06,,69,5686,5,31,56,0.678,0.0,567,4.76,13.0,0.0,1,32.7,2.44,6.4,0,0,0,1,0,,,,,,,,,,,,,,,,,,,,
27784,1629387423397,,,247,250,237,233,,-0.04,0.0,2.18,0,1,4,0.04,,69,5726,5,31,56,0.676,0.0,562,4.85,13.0,0.0,1,32.7,1.29,6.4,0,0,0,1,0,,,,,,,,,,,,,,,,,,,,
27804,1629387423417,,,247,248,237,233,,-0.12,-0.04,2.02,1,3,6,0.13,,69,5711,5,31,56,0.676,0.0,560,4.83,13.1,0.0,1,32.7,1.29,6.4,0,0,0,1,0,,,,,,,,,,,,,,,,,,,,
27824,1629387423437,,,247,247,237,233,,-0.06,-0.08,1.86,0,0,3,0.1,,69,5751,4,31,56,0.678,0.0,568,4.92,13.3,0.0,1,32.8,2.39,6.4,0,0,0,1,0,,,,,,,,,,,,,,,,,,,,
27844,1629387423457,3,5,247,248,237,233,-3,0.03,-0.03,2.03,0,-7,-4,0.04,1,69,5728,4,31,56,0.681,0.0,575,4.85,13.3,0.0,1,32.7,2.41,6.4,0,0,0,1,0,0,250,250,0,49.330879,8.565146,0.0,120.2,9,2,1.5,0,0.0,-1,0.0,0.0,0.0,0,0.0,0.4641
27864,1629387423477,,,247,250,237,233,,0.05,0.03,2.18,0,-7,-6,0.06,,69,5755,5,31,56,0.681,0.0,576,4.87,13.3,0.0,1,32.8,2.39,6.4,0,0,0,1,0,,,,,,,,,,,,,,,,,,,,
27884,1629387423496,,,247,250,238,232,,-0.0,0.05,2.11,0,-2,-2,0.05,,69,5714,5,31,56,0.679,0.0,569,4.88,13.1,0.0,1,32.7,2.42,6.4,0,0,0,1,0,,,,,,,,,,,,,,,,,,,,
27904,1629387423516,,,247,248,237,233,,-0.11,0.03,1.94,0,4,4,0.11,,69,5742,5,31,56,0.678,0.0,565,4.82,13.0,0.0,1,32.7,1.28,6.4,0,0,0,1,0,,,,,,,,,,,,,,,,,,,,
27924,1629387423536,,,247,248,238,232,,-0.14,-0.04,1.79,0,7,4,0.15,,69,5751,5,31,56,0.68,0.0,570,4.84,13.3,0.0,1,32.8,2.39,6.4,0,0,0,1,0,,,,,,,,,,,,,,,,,,,,
27944,1629387423556,4,3,247,248,237,233,-4,-0.02,-0.07,1.96,1,-1,-1,0.07,1,69,5732,5,31,56,0.682,0.0,568,4.92,13.3,0.0,1,32.7,2.41,6.4,0,0,0,1,0,0,250,250,0,49.330879,8.565146,0.0,120.2,9,2,1.5,0,0.0,-1,0.0,,0.0,0,0.0,0.4657
27964,1629387423576,,,247,250,238,233,,0.05,-0.03,2.12,1,-7,-6,0.06,,69,5744,4,31,56,0.683,0.0,567,4.9,13.3,0.0,1,32.7,2.4,6.4,0,0,0,1,0,,,,,,,,,,,,,,,,,,,,
27984,1629387423596,,,247,250,237,233,,0.04,-0.01,2.26,0,-5,-4,0.04,,69,5707,4,31,56,0.682,0.0,565,4.85,13.2,0.0,1,32.7,2.42,6.4,0,0,0,1,0,,,,,,,,,,,,,,,,,,,,
28004,1629387423616,,,247,250,238,233,,-0.04,0.01,2.09,0,1,2,0.04,,69,5732,5,31,56,0.679,0.0,565,4.8,13.0,0.0,1,32.7,2.41,6.4,0,0,0,1,0,,,,,,,,,,,,,,,,,,,,
28024,1629387423636,,,247,249,238,233,,-0.11,-0.0,1.93,0,4,5,0.11,,69,5697,4,31,56,0.679,0.0,567,4.85,13.1,0.0,1,32.7,1.31,6.4,0,0,0,1,0,,,,,,,,,,,,,,,,,,,,
28044,1629387423656,3,5,247,248,238,232,-4,-0.04,-0.06,1.86,1,-1,3,0.07,1,69,5739,5,31,56,0.681,0.0,563,4.86,13.2,0.0,1,32.7,2.4,6.4,0,0,0,1,0,0,250,250,0,49.330879,8.565146,0.0,120.2,9,2,1.5,0,0.0,-1,0.0,0.0,0.0,0,0.0,0.4674
28064,1629387423676,,,247,248,237,233,,0.06,-0.03,2.02,0,-6,-4,0.06,,69,5728,4,31,56,0.681,0.0,566,4.91,13.3,0.0,1,32.7,2.41,6.4,0,0,0,1,0,,,,,,,,,,,,,,,,,,,,
28084,1629387423696,,,247,250,237,233,,0.05,0.02,2.17,0,-7,-6,0.06,,69,5733,4,31,56,0.68,0.0,571,4.88,13.3,0.0,1,32.7,2.41,6.4,0,0,0,1,0,,,,,,,,,,,,,,,,,,,,
28104,1629387423716,,,247,250,237,232,,-0.02,0.03,2.01,0,-0,-1,0.04,,69,5728,5,31,56,0.677,0.0,568,4.83,13.0,0.0,1,32.7,2.41,6.4,0,0,0,1,0,,,,,,,,,,,,,,,,,,,,
28124,1629387423736,,,247,249,237,233,,-0.11,0.02,1.85,0,6,5,0.12,,69,5711,5,31,56,0.676,0.0,561,4.86,13.2,0.0,1,32.7,2.42,6.4,0,0,0,1,0,,,,,,,,,,,,,,,,,,,,
28144,1629387423756,5,4,247,248,238,233,-4,-0.11,-0.01,1.71,0,5,4,0.11,1,69,5740,5,31,56,0.678,0.0,562,4.82,13.2,0.0,1,32.7,1.28,6.4,0,0,0,1,0,0,250,250,0,49.330879,8.565146,0.0,120.2,9,2,1.5,0,0.0,-1,0.0,,0.0,0,0.0,0.4691
28164,1629387423776,,,247,248,237,233,,0.01,-0.01,1.88,0,-2,-2,0.02,,69,5726,5,31,56,0.678,0.0,569,4.85,13.3,0.0,1,32.7,2.41,6.4,0,0,0,1,0,,,,,,,,,,,,,,,,,,,,
28184,1629387423796,,,247,249,237,233,,0.08,0.04,2.05,0,-8,-7,0.09,,69,5749,5,31,56,0.678,0.0,573,4.93,13.3,0.0,1,32.7,2.4,6.3,0,0,0,1,0,,,,,,,,,,,,,,,,,,,,
28204,1629387423816,,,247,250,237,233,,0.07,0.05,2.2,-0,-6,-6,0.08,,69,5744,4,31,56,0.677,0.0,567,4.87,13.2,0.0,1,32.7,2.4,6.3,0,0,0,1,0,,,,,,,,,,,,,,,,,,,,
28224,1629387423836,,,247,250,237,233,,-0.02,0.03,2.03,0,0,1,0.03,,69,5753,4,31,56,0.674,0.0,565,4.81,13.1,0.0,1,32.8,2.39,6.3,0,0,0,1,0,,,,,,,,,,,,,,,,,,,,
28244,1629387423856,4,5,247,248,237,233,-4,-0.12,-0.02,1.87,0,5,6,0.12,1,69,5749,4,31,56,0.674,0.0,568,4.82,13.2,0.0,1,32.7,1.28,6.3,0,0,0,1,0,0,250,250,0,49.330879,8.565146,0.0,120.2,9,2,1.5,0,0.0,-1,0.0,0.0,0.0,0,0.0,0.4707
28264,1629387423876,,,247,248,238,233,,-0.1,-0.06,1.73,-0,5,4,0.12,,69,5756,5,31,56,0.676,0.0,570,4.86,13.2,0.0,1,32.8,2.39,6.3,0,0,0,1,0,,,,,,,,,,,,,,,,,,,,
28284,1629387423896,,,247,248,237,232,,0.01,-0.04,1.9,-1,-1,-1,0.04,,69,5719,5,31,56,0.676,0.0,571,4.91,13.3,0.0,1,32.7,1.3,6.3,0,0,0,1,0,,,,,,,,,,,,,,,,,,,,
28304,1629387423916,,,247,250,238,232,,0.05,0.03,2.06,-1,-6,-6,0.06,,69,5748,5,31,56,0.676,0.0,568,4.82,13.2,0.0,1,32.7,2.4,6.4,0,0,0,1,0,,,,,,,,,,,,,,,,,,,,
28324,1629387423936,,,247,250,238,233,,0.01,0.06,2.21,-0,-4,-5,0.06,,69,5730,5,31,56,0.674,0.0,569,4.83,13.2,0.0,1,32.7,2.41,6.4,0,0,0,1,0,,,,,,,,,,,,,,,,,,,,
28344,1629387423956,3,5,247,250,237,233,-4,-0.08,0.05,2.04,-0,2,2,0.09,1,69,5737,5,31,56,0.673,0.0,565,4.82,13.1,0.0,1,32.7,2.4,6.4,0,0,0,1,0,0,250,250,0,49.330879,8.565146,0.0,120.2,9,2,1.5,0,0.0,-1,0.0,,0.0,0,0.0,0.4724
28364,1629387423976,,,247,248,237,233,,-0.14,-0.01,1.88,0,6,6,0.14,,69,5719,4,31,56,0.674,0.0,562,4.82,13.1,0.0,1,32.7,2.42,6.4,0,0,0,1,0,,,,,,,,,,,,,,,,,,,,
28384,1629387423996,,,247,248,238,232,,-0.06,-0.06,1.79,-0,5,3,0.08,,69,5751,4,31,56,0.675,0.0,562,4.82,13.2,0.0,1,32.8,1.27,6.4,0,0,0,1,0,,,,,,,,,,,,,,,,,,,,
28404,1629387424005,,,247,249,238,233,,0.04,-0.03,1.96,-1,-1,-4,0.05,,69,5744,4,31,56,0.675,0.0,566,4.92,13.3,0.0,1,32.7,2.4,6.3,0,0,0,1,0,,,,,,,,,,,,,,,,,,,,
28424,1629387424025,,,247,250,237,233,,0.07,-0.0,2.12,-1,-5,-7,0.07,,69,5769,5,31,56,0.675,0.0,570,4.9,13.3,0.0,1,32.8,2.38,6.3,0,0,0,1,0,,,,,,,,,,,,,,,,,,,,
28444,1629387424045,3,5,247,250,238,233,-4,0.03,0.01,2.14,-0,-4,-5,0.03,1,69,5751,5,31,56,0.674,0.0,565,4.87,13.2,0.0,1,32.8,2.39,6.3,0,0,0,1,0,0,250,250,0,49.330879,8.565146,0.0,120.2,9,2,1.5,0,0.0,-1,0.0,0.0,0.0,0,0.0,0.4741
28464,1629387424065,,,247,250,238,232,,-0.06,0.02,1.98,-0,2,1,0.06,,69,5744,5,31,56,0.673,0.0,564,4.75,13.0,0.0,1,32.7,2.4,6.3,0,0,0,1,0,,,,,,,,,,,,,,,,,,,,
28484,1629387424095,,,247,249,237,233,,-0.11,-0.01,1.82,-0,6,5,0.11,,69,5760,4,31,56,0.674,0.0,567,4.87,13.2,0.0,1,32.8,2.39,6.3,0,0,0,1,0,,,,,,,,,,,,,,,,,,,,
28504,1629387424115,,,247,248,238,233,,-0.04,-0.05,1.77,-0,2,1,0.06,,69,5748,4,31,56,0.675,0.0,571,4.88,13.2,0.0,1,32.7,1.28,6.3,0,0,0,1,0,,,,,,,,,,,,,,,,,,,,
28524,1629387424135,,,247,248,237,233,,0.05,0.0,1.94,-0,-5,-5,0.05,,69,5695,4,31,56,0.675,0.0,572,4.88,13.3,0.0,1,32.7,2.43,6.3,0,0,0,1,0,,,,,,,,,,,,,,,,,,,,
28544,1629387424155,4,3,247,250,238,233,-4,0.05,0.05,2.1,-0,-7,-8,0.07,1,69,5707,4,31,56,0.675,0.0,565,4.82,13.1,0.0,1,32.7,2.42,6.3,0,0,0,1,0,0,250,250,0,49.330879,8.565146,0.0,120.2,9,2,1.5,0,0.0,-1,0.0,,0.0,0,0.0,0.4757
28564,1629387424175,,,247,250,238,233,,-0.05,0.04,1.94,-0,1,-2,0.06,,69,5685,5,31,56,0.673,0.0,565,4.77,13.1,0.0,1,32.7,2.44,6.3,0,0,0,1,0,,,,,,,,,,,,,,,,,,,,
28584,1629387424197,,,247,249,237,232,,-0.14,0.0,1.79,-0,7,4,0.14,,69,5711,5,31,56,0.673,0.0,564,4.86,13.2,0.0,1,32.7,2.42,6.4,0,0,0,1,0,,,,,,,,,,,,,,,,,,,,
28604,1629387424217,,,247,248,237,233,,-0.05,-0.06,1.69,-1,7,2,0.08,,69,5693,4,31,56,0.676,0.0,564,4.88,13.2,0.0,1,32.7,1.31,6.4,0,0,0,1,0,,,,,,,,,,,,,,,,,,,,
28624,1629387424237,,,247,249,237,233,,0.05,-0.0,1.86,-1,-2,-5,0.05,,69,5686,5,31,56,0.677,0.0,562,4.86,13.3,0.0,1,32.7,2.44,6.4,0,0,0,1,0,,,,,,,,,,,,,,,,,,,,
28644,1629387424257,4,5,247,250,238,232,-4,0.04,0.02,2.03,-1,-3,-6,0.05,1,69,5666,5,31,56,0.677,0.0,561,4.87,13.3,0.0,1,32.7,2.45,6.4,0,0,0,1,0,0,250,250,0,49.330879,8.565146,0.0,120.2,9,2,1.5,0,0.0,-1,0.0,0.0,0.0,0,0.0,0.4774
28664,1629387424277,,,247,250,238,232,,-0.07,-0.01,1.87,-0,3,1,0.07,,69,5659,5,31,56,0.675,0.0,560,4.82,13.0,0.0,1,32.7,1.34,6.4,0,0,0,1,0,,,,,,,,,,,,,,,,,,,,
28684,1629387424297,,,247,248,237,233,,-0.1,-0.08,1.73,-0,6,4,0.13,,69,5637,4,31,56,0.674,0.0,559,4.89,13.3,0.0,1,32.7,2.47,6.4,0,0,0,1,0,,,,,,,,,,,,,,,,,,,,
28704,1629387424317,,,247,248,237,233,,0.02,-0.04,1.9,-1,-0,-3,0.04,,69,5613,5,31,56,0.677,0.0,557,4.91,13.3,0.0,1,32.7,1.37,6.4,0,0,0,1,0,,,,,,,,,,,,,,,,,,,,
28724,1629387424337,,,247,250,237,233,,0.01,0.04,2.06,-1,-3,-6,0.04,,69,5634,5,31,56,0.679,0.0,561,4.86,13.1,0.0,1,32.7,2.46,6.4,0,0,0,1,0,,,,,,,,,,,,,,,,,,,,
28744,1629387424357,3,5,247,250,238,233,-4,-0.09,0.04,1.9,-1,4,1,0.1,1,69,5600,4,31,57,0.678,0.0,560,4.82,13.1,0.0,1,32.9,2.49,6.4,0,0,0,1,0,0,250,250,0,49.330879,8.565146,0.0,120.2,9,2,1.5,0,0.0,-1,0.0,,0.0,0,0.0,0.4791
28764,1629387424377,,,247,248,237,233,,-0.1,-0.04,1.76,-1,7,3,0.11,,69,5664,5,31,57,0.677,0.0,552,4.84,13.1,0.0,1,33.0,2.44,6.4,0,0,0,1,0,,,,,,,,,,,,,,,,,,,,
28784,1629387424395,,,247,249,238,232,,-0.06,-0.14,1.62,-0,-1,-2,0.15,,69,5623,4,31,57,0.677,0.0,553,4.91,13.3,0.0,1,32.9,2.47,6.4,0,0,0,1,0,,,,,,,,,,,,,,,,,,,,
28804,1629387424415,,,247,250,237,233,,0.04,-0.09,1.8,-0,-6,-7,0.09,,69,5704,5,31,57,0.678,0.0,559,4.9,13.3,0.0,1,33.0,2.42,6.4,0,0,0,1,0,,,,,,,,,,,,,,,,,,,,
28824,1629387424435,,,247,250,238,233,,0.05,-0.05,1.97,0,-3,-3,0.07,,69,5637,5,31,56,0.678,0.0,561,4.82,13.0,0.0,1,32.7,2.46,6.4,0,0,0,1,0,,,,,,,,,,,,,,,,,,,,
28844,1629387424455,4,5,247,249,237,232,-4,-0.04,-0.03,1.82,0,2,3,0.05,1,69,5706,4,31,56,0.677,0.0,556,4.8,13.0,0.0,1,32.7,1.3,6.4,0,0,0,1,0,0,250,250,0,49.330879,8.565146,0.0,120.2,9,2,1.5,0,0.0,-1,0.0,0.0,0.0,0,0.0,0.4807
28864,1629387424475,,,247,248,237,233,,-0.1,-0.07,1.68,0,2,1,0.12,,69,5662,4,31,57,0.677,0.0,561,4.93,13.3,0.0,1,33.0,2.45,6.4,0,0,0,1,0,,,,,,,,,,,,,,,,,,,,
28884,1629387424495,,,247,249,237,233,,0.0,-0.1,1.86,0,-7,-5,0.1,,69,5714,4,31,57,0.676,0.0,564,4.92,13.3,0.0,1,33.0,2.42,6.4,0,0,0,1,0,,,,,,,,,,,,,,,,,,,,
28904,1629387424515,,,247,250,237,233,,0.07,-0.03,2.02,0,-8,-7,0.08,,69,5693,5,31,56,0.678,0.0,564,4.79,13.3,0.0,1,32.7,2.43,6.4,0,0,0,1,0,,,,,,,,,,,,,,,,,,,,
28924,1629387424535,,,247,250,238,233,,0.04,0.01,2.18,1,-1,-1,0.04,,70,5709,5,31,56,0.677,0.0,560,4.81,13.1,0.0,1,32.7,2.42,6.4,0,0,0,1,0,,,,,,,,,,,,,,,,,,,,
28944,1629387424555,3,5,247,249,237,233,-4,-0.07,-0.01,2.01,1,5,4,0.07,1,70,5704,4,31,56,0.676,0.0,561,4.81,13.1,0.0,1,32.7,1.31,6.4,0,0,0,1,0,0,250,250,0,49.330879,8.565146,0.0,120.2,9,2,1.5,0,0.0,-1,0.0,,0.0,0,0.0,0.4824
28964,1629387424575,,,247,248,238,232,,-0.13,-0.05,1.85,1,2,2,0.14,,69,5726,4,31,56,0.675,0.0,566,4.83,13.2,0.0,1,32.7,1.29,6.4,0,0,0,1,0,,,,,,,,,,,,,,,,,,,,
28984,1629387424595,,,247,248,238,233,,-0.02,-0.07,2.02,1,-6,-4,0.07,,69,5709,5,31,56,0.676,0.0,565,4.91,13.3,0.0,1,32.7,1.3,6.4,0,0,0,1,0,,,,,,,,,,,,,,,,,,,,
29004,1629387424615,,,247,250,237,233,,0.07,-0.0,2.17,1,-8,-6,0.07,,70,5706,5,31,56,0.679,0.0,560,4.79,13.3,0.0,1,32.7,2.42,6.4,0,0,0,1,0,,,,,,,,,,,,,,,,,,,,
29024,1629387424635,,,247,250,237,233,,0.06,0.02,2.31,1,-2,-2,0.07,,70,5699,5,31,56,0.677,0.0,561,4.8,13.1,0.0,1,32.7,2.43,6.4,0,0,0,1,0,,,,,,,,,,,,,,,,,,,,
29044,1629387424655,3,5,247,248,238,232,-4,-0.04,-0.0,2.13,1,4,5,0.04,1,69,5712,5,31,56,0.675,0.0,565,4.85,13.2,0.0,1,32.7,2.42,6.4,0,0,0,1,0,0,250,250,0,49.330879,8.565146,0.0,120.2,9,2,1.5,0,0.0,-1,0.0,0.0,0.0,0,0.0,0.4841
29064,1629387424675,,,247,248,237,233,,-0.12,-0.04,1.97,0,5,5,0.13,,69,5704,5,31,56,0.675,0.0,567,4.92,13.3,0.0,1,32.7,2.43,6.4,0,0,0,1,0,,,,,,,,,,,,,,,,,,,,
29084,1629387424695,,,247,248,237,233,,-0.03,-0.07,2.02,1,-4,-1,0.08,,69,5711,4,31,56,0.677,0.0,563,4.9,13.3,0.0,1,32.7,2.42,6.4,0,0,0,1,0,,,,,,,,,,,,,,,,,,,,
29104,1629387424715,,,247,250,237,233,,0.05,-0.0,2.17,0,-7,-5,0.05,,69,5707,5,31,56,0.678,0.0,563,4.81,13.2,0.0,1,32.7,2.42,6.4,0,0,0,1,0,,,,,,,,,,,,,,,,,,,,
29124,1629387424735,,,247,250,238,233,,0.04,0.05,2.31,0,-2,-2,0.06,,70,5695,5,31,56,0.676,0.0,566,4.8,13.2,0.0,1,32.7,2.43,6.4,0,0,0,1,0,,,,,,,,,,,,,,,,,,,,
29144,1629387424755,4,4,247,249,238,233,-4,-0.06,0.05,2.13,0,5,5,0.08,1,70,5693,5,31,56,0.674,0.0,565,4.85,13.0,0.0,1,32.7,2.43,6.4,0,0,0,1,0,0,250,250,0,49.330879,8.565146,0.0,120.2,9,2,1.5,0,0.0,-1,0.0,,0.0,0,0.0,0.4857
29164,1629387424775,,,247,248,237,233,,-0.12,-0.0,1.97,0,6,5,0.12,,70,5685,5,31,56,0.674,0.0,560,4.87,13.2,0.0,1,32.7,1.32,6.4,0,0,0,1,0,,,,,,,,,,,,,,,,,,,,
29184,1629387424795,,,247,248,238,233,,-0.01,-0.05,2.13,1,-3,-2,0.05,,70,5662,4,31,56,0.677,0.0,560,4.85,13.3,0.0,1,32.7,2.45,6.4,0,0,0,1,0,,,,,,,,,,,,,,,,,,,,
29204,1629387424815,,,247,250,238,233,,0.05,0.0,2.27,1,-5,-4,0.05,,70,5644,4,31,56,0.678,0.0,560,4.88,13.3,0.0,1,32.7,2.47,6.4,0,0,0,1,0,,,,,,,,,,,,,,,,,,,,
29224,1629387424835,,,246,250,238,233,,-0.01,0.04,2.18,1,1,3,0.04,,70,5612,4,31,57,0.675,0.0,555,4.83,13.1,0.0,1,32.9,2.47,6.4,0,0,0,1,0,,,,,,,,,,,,,,,,,,,,
29244,1629387424855,4,5,247,249,237,233,-4,-0.09,0.0,2.01,1,2,4,0.09,1,70,5607,5,31,57,0.673,0.0,555,4.9,13.3,0.0,1,32.9,2.48,6.4,0,0,0,1,0,0,250,250,0,49.330879,8.565146,0.0,120.2,9,2,1.5,0,0.0,-1,0.0,0.0,0.0,0,0.0,0.4874
29264,1629387424875,,,247,249,237,233,,0.02,-0.05,2.17,1,-7,-4,0.06,,70,5607,5,31,57,0.674,0.0,558,4.92,13.3,0.0,1,32.9,2.48,6.4,0,0,0,1,0,,,,,,,,,,,,,,,,,,,,
29284,1629387424897,,,247,250,237,233,,0.04,0.03,2.31,1,-6,-4,0.06,,70,5563,4,31,57,0.676,0.0,561,4.83,13.3,0.0,1,32.9,2.51,6.4,0,0,0,1,0,,,,,,,,,,,,,,,,,,,,
29304,1629387424917,,,247,250,237,233,,-0.06,0.05,2.13,1,2,3,0.08,,70,5590,5,31,57,0.674,0.0,550,4.81,13.0,0.0,1,32.9,1.37,6.4,0,0,0,1,0,,,,,,,,,,,,,,,,,,,,
29324,1629387424937,,,247,248,237,233,,-0.09,-0.02,1.96,1,1,1,0.09,,70,5573,4,31,57,0.675,0.0,551,4.85,13.2,0.0,1,32.9,1.39,6.4,0,0,0,1,0,,,,,,,,,,,,,,,,,,,,
29344,1629387424957,4,3,247,249,237,233,-4,0.05,0.0,2.12,1,-8,-6,0.05,1,70,5567,5,31,57,0.675,0.0,554,4.89,13.3,0.0,1,32.9,2.51,6.4,0,0,0,1,0,0,250,250,0,49.330879,8.565146,0.0,120.2,9,2,1.5,0,0.0,-1,0.0,,0.0,0,0.0,0.4891
29364,1629387424977,,,247,250,237,233,,0.0,0.02,2.27,1,-2,-1,0.02,,70,5542,5,31,57,0.674,0.0,555,4.8,13.1,0.0,1,32.9,2.53,6.4,0,0,0,1,0,,,,,,,,,,,,,,,,,,,,
29384,1629387424997,,,247,249,238,233,,-0.09,-0.03,2.09,1,2,2,0.09,,70,5553,5,31,57,0.676,0.0,552,4.92,13.3,0.0,1,32.9,2.52,6.4,0,0,0,1,0,,,,,,,,,,,,,,,,,,,,
29404,1629387425006,,,247,247,237,233,,0.03,-0.05,2.24,1,-7,-6,0.06,,70,5526,4,31,57,0.679,0.0,548,4.91,13.4,0.0,1,32.9,1.42,6.4,0,0,0,1,0,,,,,,,,,,,,,,,,,,,,
29424,1629387425026,,,247,250,237,233,,0.02,0.02,2.37,1,-4,-5,0.03,,70,5578,5,31,57,0.678,0.0,550,4.81,13.0,0.0,1,32.9,2.5,6.4,0,0,0,1,0,,,,,,,,,,,,,,,,,,,,
29444,1629387425046,4,5,247,250,237,233,-4,-0.09,0.03,2.19,1,3,3,0.09,1,70,5555,4,31,57,0.676,0.0,550,4.86,13.2,0.0,1,32.9,2.53,6.4,0,0,0,1,0,0,250,250,0,49.330879,8.565146,0.0,120.2,9,2,1.5,0,0.0,-1,0.0,0.0,0.0,0,0.0,0.4907
29464,1629387425066,,,247,249,237,233,,-0.02,-0.06,2.02,1,-2,-1,0.06,,70,5587,4,31,57,0.678,0.0,549,4.91,13.3,0.0,1,32.9,1.38,6.4,0,0,0,1,0,,,,,,,,,,,,,,,,,,,,
29484,1629387425096,,,247,250,237,233,,0.05,-0.0,2.17,0,-6,-5,0.05,,70,5602,4,31,57,0.68,0.0,551,4.88,13.3,0.0,1,32.9,2.49,6.4,0,0,0,1,0,,,,,,,,,,,,,,,,,,,,
29504,1629387425116,,,247,250,238,233,,-0.01,0.05,2.14,0,0,1,0.05,,70,5605,4,31,57,0.678,0.0,554,4.82,13.1,0.0,1,32.9,2.49,6.4,0,0,0,1,0,,,,,,,,,,,,,,,,,,,,
29524,1629387425136,,,247,248,237,233,,-0.09,0.03,1.98,1,3,3,0.1,,70,5634,5,31,57,0.676,0.0,555,4.9,13.3,0.0,1,33.0,2.46,6.4,0,0,0,1,0,,,,,,,,,,,,,,,,,,,,
29544,1629387425156,4,4,247,248,238,233,-4,-0.01,-0.04,1.93,1,-5,-2,0.04,1,70,5628,5,31,57,0.678,0.0,554,4.9,13.3,0.0,1,33.0,1.35,6.4,0,0,0,1,0,0,250,250,0,49.330879,8.565146,0.0,120.2,9,2,1.5,0,0.0,-1,0.0,,0.0,0,0.0,0.4924
29564,1629387425176,,,247,250,238,233,,0.05,0.02,2.09,1,-9,-6,0.05,,70,5625,5,31,57,0.679,0.0,556,4.8,13.2,0.0,1,33.0,2.47,6.4,0,0,0,1,0,,,,,,,,,,,,,,,,,,,,
29584,1629387425196,,,247,250,237,233,,-0.02,0.04,2.06,1,-2,-1,0.05,,70,5613,4,31,57,0.677,0.0,560,4.8,13.1,0.0,1,32.9,2.48,6.4,0,0,0,1,0,,,,,,,,,,,,,,,,,,,,
29604,1629387425216,,,247,250,237,233,,-0.11,0.01,1.9,1,3,3,0.11,,70,5620,5,31,57,0.675,0.0,555,4.91,13.1,0.0,1,32.9,1.35,6.4,0,0,0,1,0,,,,,,,,,,,,,,,,,,,,
29624,1629387425236,,,247,247,237,233,,-0.01,-0.05,1.82,1,-5,-2,0.05,,70,5657,5,31,57,0.678,0.0,557,4.89,13.3,0.0,1,33.0,2.45,6.4,0,0,0,1,0,,,,,,,,,,,,,,,,,,,,
29644,1629387425256,3,3,247,250,237,233,-4,0.07,0.0,1.99,1,-11,-7,0.07,1,70,5622,5,31,57,0.677,0.0,558,4.88,13.3,0.0,1,32.9,2.47,6.4,0,0,0,1,0,0,250,250,0,49.330879,8.565146,0.0,120.2,9,2,1.5,0,0.0,-1,0.0,0.0,0.0,0,0.0,0.4941
29664,1629387425276,,,247,250,238,233,,0.02,0.02,2.11,1,-4,-1,0.03,,70,5644,5,31,57,0.675,0.0,558,4.84,13.0,0.0,1,33.0,2.46,6.4,0,0,0,1,0,,,,,,,,,,,,,,,,,,,,
29684,1629387425296,,,247,248,237,233,,-0.09,-0.03,1.95,1,1,3,0.1,,70,5661,5,31,57,0.676,0.0,557,4.82,13.1,0.0,1,33.0,1.33,6.4,0,0,0,1,0,,,,,,,,,,,,,,,,,,,,
29704,1629387425316,,,247,247,237,233,,-0.05,-0.1,1.8,1,-2,-0,0.11,,70,5690,4,31,57,0.676,0.0,560,4.83,13.3,0.0,1,33.0,1.31,6.4,0,0,0,1,0,,,,,,,,,,,,,,,,,,,,
29724,1629387425336,,,247,248,238,233,,0.04,-0.03,1.97,1,-10,-6,0.05,,70,5650,4,31,57,0.676,0.0,564,4.91,13.3,0.0,1,33.0,2.45,6.4,0,0,0,1,0,,,,,,,,,,,,,,,,,,,,
29744,1629387425356,4,5,247,250,237,233,-4,0.03,0.03,2.12,1,-6,-4,0.04,1,70,5662,5,31,57,0.676,0.0,562,4.84,13.2,0.0,1,33.0,1.32,6.4,0,0,0,1,0,0,250,250,0,49.330879,8.565146,0.0,120.2,9,2,1.5,0,0.0,-1,0.0,,0.0,0,0.0,0.4957
29764,1629387425376,,,247,250,237,232,,-0.08,0.03,1.96,1,1,3,0.09,,70,5618,5,31,57,0.676,0.0,554,4.86,13.0,0.0,1,32.9,2.47,6.4,0,0,0,1,0,,,,,,,,,,,,,,,,,,,,
29784,1629387425396,,,247,248,237,233,,-0.1,-0.05,1.81,1,0,3,0.11,,70,5674,5,31,57,0.676,0.0,555,4.93,13.3,0.0,1,33.0,1.32,6.4,0,0,0,1,0,,,,,,,,,,,,,,,,,,,,
29804,1629387425416,,,247,249,237,233,,0.03,-0.05,1.98,0,-5,-4,0.06,,70,5640,4,31,57,0.677,0.0,559,4.88,13.3,0.0,1,33.0,2.46,6.4,0,0,0,1,0,,,,,,,,,,,,,,,,,,,,
29824,1629387425436,,,247,250,238,233,,0.04,-0.0,2.13,0,-6,-5,0.04,,70,5661,4,31,57,0.677,0.0,558,4.86,13.3,0.0,1,33.0,2.45,6.4,0,0,0,1,0,,,,,,,,,,,,,,,,,,,,
29844,1629387425456,3,4,247,250,237,233,-4,-0.04,0.02,1.97,-0,1,2,0.05,1,70,5634,5,31,57,0.678,0.0,557,4.84,13.1,0.0,1,33.0,1.34,6.4,0,0,0,1,0,0,250,250,0,49.330879,8.565146,0.0,120.2,9,2,1.5,0,0.0,-1,0.0,0.0,0.0,0,0.0,0.4974
29864,1629387425476,,,247,248,237,232,,-0.1,-0.02,1.82,-0,3,4,0.11,,70,5644,5,31,57,0.677,0.0,556,4.89,13.3,0.0,1,33.0,2.46,6.4,0,0,0,1,0,,,,,,,,,,,,,,,,,,,,
29884,1629387425496,,,247,248,238,233,,0.01,-0.05,1.98,0,-5,-1,0.05,,70,5607,5,31,57,0.677,0.0,561,4.9,13.3,0.0,1,32.9,1.36,6.4,0,0,0,1,0,,,,,,,,,,,,,,,,,,,,
