"Interval"|"ms"|0|0|1,"Utc"|"ms"|0|0|1,"Brake_F"|"Bar"|0|2000|10,"Brake_R"|"Bar"|0|2000|10,"Height_RF"|"mm"|0|255|50,"Height_LF"|"mm"|0|255|50,"Height_LR"|"mm"|0|80|50,"Height_RR"|"mm"|0|255|50,"Steering"|"deg"|-100|100|10,"AccelX"|"G"|-3.0|3.0|50,"AccelY"|"G"|-3.0|3.0|50,"AccelZ"|"G"|-3.0|3.0|50,"Yaw"|"Deg/Sec"|-120|120|50,"Pitch"|"Deg/Sec"|-120|120|50,"Roll"|"Deg/Sec"|-120|120|50,"Gsum"|"G"|0.0|3.0|50,"Log_Button"|""|0.0|10.0|10,"WaterTemp"|"C"|0|150|50,"RPM"|"tr/min"|0|14000|50,"TPS"|"%"|0|100|50,"AirTemp"|"C"|0|150|50,"MAP"|"KPa"|0|100|50,"Lambda"|""|0.5|1.5|50,"SpeedDTA"|"kph"|0.0|250.0|50,"OilPress"|"KPa"|0|1500|50,"FuelPressur"|"Bar"|0.0|10.0|50,"Batterie"|"V"|0.0|20.0|50,"ConsoKm"|"L/100km"|0.0|200.0|50,"Gear"|""|0|6|50,"AdvIgnition"|"Deg"|-20.0|70.0|50,"Injection"|"ms"|0.0|10.0|50,"ConsoHr"|"L/Hr"|0.0|10000.0|50,"LC_But_Pres"|""|0|1|50,"LC_Active"|""|0|1|50,"TractionOn"|""|0|1|50,"TractionWet"|""|0|1|50,"FanOn"|""|0|1|50,"RD_Speed"|"km/h"|-30|250|10,"RUD_Speed"|"km/h"|-30|250|10,"LD_Speed"|"km/h"|-30|250|10,"LUD_Speed"|"km/h"|-30|250|10,"Latitude"|"Degrees"|-180.0|180.0|10,"Longitude"|"Degrees"|-180.0|180.0|10,"Speed"|"kph"|0.0|150.0|10,"Altitude"|"m"|0.0|4000.0|10,"GPSSats"|""|0|20|10,"GPSQual"|""|0|5|10,"GPSDOP"|""|0.0|20.0|10,"LapCount"|""|0|0|10,"LapTime"|"Min"|0.0|0.0|10,"Sector"|""|0|0|10,"SectorTime"|"Min"|0.0|0.0|10,"PredTime"|"Min"|0.0|0.0|5,"ElapsedTime"|"Min"|0.0|0.0|10,"CurrentLap"|""|0|0|10,"Distance"|"km"|0.0|0.0|10,"SessionTime"|"Min"|0.0|0.0|10
2063,0,,,246,250,238,233,,-0.04,0.02,0.99,-0,-0,-0,0.05,,69,0,4,32,99,0.503,0.0,113,4.9,13.0,0.0,1,0.0,0.0,0.0,0,0,0,1,0,,,,,,,,,,,,,,,,,,,,
2083,0,,,246,249,238,233,,-0.04,0.02,0.99,-0,-0,-0,0.05,,69,0,4,32,99,0.503,0.0,112,4.93,13.0,0.0,1,0.0,0.0,0.0,0,0,0,1,0,,,,,,,,,,,,,,,,,,,,
2103,0,,,246,249,238,233,,-0.04,0.02,0.99,-0,-0,-0,0.05,,69,0,4,32,99,0.503,0.0,113,4.91,13.0,0.0,1,0.0,0.0,0.0,0,0,0,1,0,,,,,,,,,,,,,,,,,,,,
2123,0,,,246,250,238,233,,-0.04,0.02,0.99,-0,-0,-0,0.05,,69,0,4,32,99,0.503,0.0,113,4.91,13.0,0.0,1,0.0,0.0,0.0,0,0,0,1,0,,,,,,,,,,,,,,,,,,,,
2143,0,9,9,246,249,238,233,2,-0.04,0.02,0.99,-0,-0,-0,0.05,1,69,0,4,32,99,0.503,0.0,113,4.92,13.0,0.0,1,0.0,0.0,0.0,0,0,0,1,0,0,250,250,0,0.0,0.0,0.0,0.0,0,0,0.0,0,0.0,-1,0.0,,0.0,0,0.0,0.0357
2163,0,,,246,249,238,233,,-0.04,0.02,0.99,-0,-0,-0,0.05,,69,0,4,32,99,0.504,0.0,113,4.9,13.0,0.0,1,0.0,0.0,0.0,0,0,0,1,0,,,,,,,,,,,,,,,,,,,,
2183,0,,,246,249,238,233,,-0.04,0.02,0.99,-0,-0,-0,0.05,,69,0,4,32,99,0.504,0.0,113,4.91,13.0,0.0,1,0.0,0.0,0.0,0,0,0,1,0,,,,,,,,,,,,,,,,,,,,
2203,0,,,246,249,238,233,,-0.04,0.02,0.99,-0,-0,-0,0.05,,69,0,4,32,99,0.506,0.0,113,4.9,12.9,0.0,1,0.0,0.0,0.0,0,0,0,1,0,,,,,,,,,,,,,,,,,,,,
2223,0,,,246,249,238,233,,-0.04,0.02,0.99,-0,-0,-0,0.05,,69,0,4,32,99,0.51,0.0,113,4.92,12.9,0.0,1,0.0,0.0,0.0,0,0,0,1,0,,,,,,,,,,,,,,,,,,,,
2243,0,9,9,246,249,238,233,2,-0.04,0.02,0.99,-0,-0,-0,0.05,1,69,0,4,32,99,0.516,0.0,113,4.91,12.9,0.0,1,0.0,0.0,0.0,0,0,0,1,0,0,250,250,0,0.0,0.0,0.0,0.0,0,0,0.0,0,0.0,-1,0.0,0.0,0.0,0,0.0,0.0374
2263,0,,,246,249,238,233,,-0.04,0.02,0.99,-0,-0,-0,0.05,,69,0,4,32,99,0.521,0.0,113,4.92,12.9,0.0,1,0.0,0.0,0.0,0,0,0,1,0,,,,,,,,,,,,,,,,,,,,
2283,0,,,246,250,238,233,,-0.04,0.02,0.99,-0,-0,-0,0.05,,69,0,4,32,99,0.526,0.0,113,4.91,12.9,0.0,1,0.0,0.0,0.0,0,0,0,1,0,,,,,,,,,,,,,,,,,,,,
2303,0,,,246,250,238,233,,-0.04,0.02,0.99,-0,-0,-0,0.05,,69,0,4,32,99,0.53,0.0,113,4.9,12.9,0.0,1,0.0,0.0,0.0,0,0,0,1,0,,,,,,,,,,,,,,,,,,,,
2323,0,,,246,249,238,233,,-0.04,0.02,0.99,-0,-0,-0,0.05,,69,0,4,32,99,0.535,0.0,113,4.9,12.9,0.0,1,0.0,0.0,0.0,0,0,0,1,0,,,,,,,,,,,,,,,,,,,,
2343,0,10,7,246,249,238,233,2,-0.04,0.02,0.99,-0,-0,-0,0.05,1,69,0,4,32,99,0.541,0.0,113,4.9,12.9,0.0,1,0.0,0.0,0.0,0,0,0,1,0,0,250,250,0,0.0,0.0,0.0,0.0,0,0,0.0,0,0.0,-1,0.0,,0.0,0,0.0,0.0391
2363,0,,,246,249,238,233,,-0.04,0.02,0.99,-0,-0,-0,0.05,,69,0,4,32,99,0.547,0.0,113,4.91,12.9,0.0,1,0.0,0.0,0.0,0,0,0,1,0,,,,,,,,,,,,,,,,,,,,
2383,0,,,246,249,238,233,,-0.04,0.02,0.99,-0,-0,-0,0.05,,69,0,4,32,99,0.553,0.0,113,4.9,12.9,0.0,1,0.0,0.0,0.0,0,0,0,1,0,,,,,,,,,,,,,,,,,,,,
2403,0,,,246,249,238,233,,-0.04,0.02,0.98,-0,-0,-0,0.05,,69,0,4,32,99,0.558,0.0,113,4.9,12.9,0.0,1,0.0,0.0,0.0,0,0,0,1,0,,,,,,,,,,,,,,,,,,,,
2423,0,,,246,249,238,233,,-0.04,0.02,0.99,-0,-0,-0,0.05,,69,0,4,32,99,0.563,0.0,113,4.92,12.9,0.0,1,0.0,0.0,0.0,0,0,0,1,0,,,,,,,,,,,,,,,,,,,,
2443,0,8,9,246,249,238,233,2,-0.04,0.02,0.99,-0,-0,-0,0.05,1,69,0,4,32,99,0.567,0.0,113,4.9,12.9,0.0,1,0.0,0.0,0.0,0,0,0,1,0,0,250,250,0,0.0,0.0,0.0,0.0,0,0,0.0,0,0.0,-1,0.0,0.0,0.0,0,0.0,0.0407
2463,0,,,246,249,238,233,,-0.04,0.02,0.99,-0,-0,-0,0.05,,69,0,4,32,99,0.569,0.0,113,4.91,12.9,0.0,1,0.0,0.0,0.0,0,0,0,1,0,,,,,,,,,,,,,,,,,,,,
2483,0,,,246,250,238,233,,-0.04,0.02,0.99,-0,-0,-0,0.05,,69,0,4,32,99,0.57,0.0,113,4.91,12.9,0.0,1,0.0,0.0,0.0,0,0,0,1,0,,,,,,,,,,,,,,,,,,,,
2503,0,,,246,249,238,233,,-0.04,0.02,0.99,-0,-0,-0,0.05,,69,0,4,32,99,0.57,0.0,113,4.91,12.9,0.0,1,0.0,0.0,0.0,0,0,0,1,0,,,,,,,,,,,,,,,,,,,,
2523,0,,,246,249,238,233,,-0.04,0.02,0.99,-0,-0,-0,0.05,,69,0,4,32,99,0.569,0.0,113,4.9,13.0,0.0,1,0.0,0.0,0.0,0,0,0,1,0,,,,,,,,,,,,,,,,,,,,
2543,0,8,9,246,249,238,233,2,-0.04,0.02,0.99,-0,-0,-0,0.05,1,69,0,4,32,99,0.567,0.0,113,4.92,13.0,0.0,1,0.0,0.0,0.0,0,0,0,1,0,0,250,250,0,0.0,0.0,0.0,0.0,0,0,0.0,0,0.0,-1,0.0,,0.0,0,0.0,0.0424
2563,0,,,246,249,238,233,,-0.04,0.02,0.99,-0,-0,-0,0.05,,69,0,4,32,99,0.565,0.0,113,4.92,13.0,0.0,1,0.0,0.0,0.0,0,0,0,1,0,,,,,,,,,,,,,,,,,,,,
2583,0,,,246,249,238,233,,-0.04,0.02,0.99,-0,-0,-0,0.05,,69,0,4,32,99,0.564,0.0,113,4.91,13.0,0.0,1,0.0,0.0,0.0,0,0,0,1,0,,,,,,,,,,,,,,,,,,,,
2603,0,,,246,249,238,233,,-0.04,0.02,0.99,-0,-0,-0,0.05,,69,0,4,32,99,0.562,0.0,113,4.9,13.0,0.0,1,0.0,0.0,0.0,0,0,0,1,0,,,,,,,,,,,,,,,,,,,,
2623,0,,,246,249,238,233,,-0.04,0.02,0.99,-0,-0,-0,0.05,,69,0,4,32,99,0.56,0.0,113,4.91,13.0,0.0,1,0.0,0.0,0.0,0,0,0,1,0,,,,,,,,,,,,,,,,,,,,
2643,0,10,7,246,249,238,233,2,-0.04,0.02,0.99,-0,-0,-0,0.05,1,69,0,4,32,99,0.559,0.0,113,4.91,13.0,0.0,1,0.0,0.0,0.0,0,0,0,1,0,0,250,250,0,0.0,0.0,0.0,0.0,0,0,0.0,0,0.0,-1,0.0,0.0,0.0,0,0.0,0.044
2663,0,,,246,249,238,233,,-0.04,0.02,0.99,-0,-0,-0,0.05,,69,0,4,32,99,0.556,0.0,113,4.91,13.0,0.0,1,0.0,0.0,0.0,0,0,0,1,0,,,,,,,,,,,,,,,,,,,,
2683,0,,,246,250,238,233,,-0.04,0.02,0.99,-0,-0,-0,0.05,,69,0,4,32,99,0.554,0.0,113,4.91,13.0,0.0,1,0.0,0.0,0.0,0,0,0,1,0,,,,,,,,,,,,,,,,,,,,
2703,0,,,246,249,238,233,,-0.04,0.02,0.99,-0,-0,-0,0.05,,69,0,4,32,99,0.552,0.0,113,4.9,13.0,0.0,1,0.0,0.0,0.0,0,0,0,1,0,,,,,,,,,,,,,,,,,,,,
2723,0,,,246,249,238,233,,-0.04,0.02,0.99,-0,-0,-0,0.05,,69,0,4,32,99,0.551,0.0,113,4.9,13.0,0.0,1,0.0,0.0,0.0,0,0,0,1,0,,,,,,,,,,,,,,,,,,,,
2743,0,10,7,246,249,238,233,3,-0.04,0.02,0.99,-0,-0,-0,0.05,1,69,0,4,32,99,0.55,0.0,113,4.92,13.0,0.0,1,0.0,0.0,0.0,0,0,0,1,0,0,250,250,0,0.0,0.0,0.0,0.0,0,0,0.0,0,0.0,-1,0.0,,0.0,0,0.0,0.0457
2763,0,,,246,249,238,233,,-0.04,0.02,0.99,-0,-0,-0,0.05,,69,0,4,32,99,0.549,0.0,113,4.9,13.0,0.0,1,0.0,0.0,0.0,0,0,0,1,0,,,,,,,,,,,,,,,,,,,,
2783,0,,,246,249,238,233,,-0.04,0.02,0.99,-0,-0,-0,0.05,,69,0,4,32,99,0.549,0.0,113,4.91,13.0,0.0,1,0.0,0.0,0.0,0,0,0,1,0,,,,,,,,,,,,,,,,,,,,
2803,0,,,246,249,238,233,,-0.04,0.02,0.99,-0,-0,-0,0.05,,69,0,4,32,99,0.55,0.0,113,4.91,13.0,0.0,1,0.0,0.0,0.0,0,0,0,1,0,,,,,,,,,,,,,,,,,,,,
2823,0,,,246,249,238,233,,-0.04,0.02,0.99,-0,-0,-0,0.05,,69,0,4,32,99,0.552,0.0,113,4.91,13.0,0.0,1,0.0,0.0,0.0,0,0,0,1,0,,,,,,,,,,,,,,,,,,,,
2843,0,8,7,246,249,238,233,2,-0.04,0.02,0.99,-0,-0,-0,0.05,1,69,0,4,32,99,0.553,0.0,113,4.91,13.0,0.0,1,0.0,0.0,0.0,0,0,0,1,0,0,250,250,0,0.0,0.0,0.0,0.0,0,0,0.0,0,0.0,-1,0.0,0.0,0.0,0,0.0,0.0474
2863,0,,,246,249,238,233,,-0.04,0.02,0.99,-0,-0,-0,0.05,,69,0,4,32,99,0.555,0.0,113,4.91,13.0,0.0,1,0.0,0.0,0.0,0,0,0,1,0,,,,,,,,,,,,,,,,,,,,
2883,0,,,246,249,238,233,,-0.04,0.02,0.99,-0,-0,-0,0.05,,69,0,4,32,99,0.557,0.0,113,4.9,13.0,0.0,1,0.0,0.0,0.0,0,0,0,1,0,,,,,,,,,,,,,,,,,,,,
2903,0,,,246,249,238,233,,-0.04,0.02,0.99,-0,-0,-0,0.05,,69,0,4,32,99,0.56,0.0,113,4.91,13.0,0.0,1,0.0,0.0,0.0,0,0,0,1,0,,,,,,,,,,,,,,,,,,,,
2923,0,,,246,249,238,233,,-0.04,0.02,0.99,-0,-0,-0,0.05,,69,0,4,32,99,0.562,0.0,113,4.9,13.0,0.0,1,0.0,0.0,0.0,0,0,0,1,0,,,,,,,,,,,,,,,,,,,,
2943,0,10,7,246,249,238,233,2,-0.04,0.02,0.99,-0,-0,-0,0.05,1,69,0,4,32,99,0.565,0.0,113,4.9,13.0,0.0,1,0.0,0.0,0.0,0,0,0,1,0,0,250,250,0,0.0,0.0,0.0,0.0,0,0,0.0,0,0.0,-1,0.0,,0.0,0,0.0,0.049
2963,0,,,246,249,238,233,,-0.04,0.02,0.99,-0,-0,-0,0.05,,69,0,4,32,99,0.567,0.0,113,4.9,13.0,0.0,1,0.0,0.0,0.0,0,0,0,1,0,,,,,,,,,,,,,,,,,,,,
2983,0,,,246,249,238,233,,-0.04,0.02,0.99,-0,-0,-0,0.05,,69,0,4,32,99,0.569,0.0,113,4.92,13.0,0.0,1,0.0,0.0,0.0,0,0,0,1,0,,,,,,,,,,,,,,,,,,,,
3003,0,,,246,249,238,233,,-0.04,0.02,0.99,-0,-0,-0,0.05,,69,0,4,32,99,0.572,0.0,113,4.9,13.0,0.0,1,0.0,0.0,0.0,0,0,0,1,0,,,,,,,,,,,,,,,,,,,,
3023,0,,,246,249,238,233,,-0.04,0.02,0.99,-0,-0,-0,0.05,,69,0,4,32,99,0.574,0.0,113,4.9,13.0,0.0,1,0.0,0.0,0.0,0,0,0,1,0,,,,,,,,,,,,,,,,,,,,
3043,0,10,9,246,249,238,233,2,-0.04,0.02,0.99,-0,-0,-0,0.05,1,69,0,4,32,99,0.577,0.0,113,4.91,13.0,0.0,1,0.0,0.0,0.0,0,0,0,0,0,0,250,250,0,0.0,0.0,0.0,0.0,0,0,0.0,0,0.0,-1,0.0,0.0,0.0,0,0.0,0.0507
3063,0,,,246,250,238,233,,-0.04,0.02,0.99,-0,-0,-0,0.05,,69,0,4,32,99,0.581,0.0,113,4.85,13.2,0.0,1,0.0,0.0,0.0,0,0,0,0,0,,,,,,,,,,,,,,,,,,,,
3083,0,,,246,249,238,233,,-0.04,0.02,0.99,-0,-0,-0,0.05,,69,0,4,32,99,0.583,0.0,113,4.68,13.2,0.0,1,0.0,0.0,0.0,0,0,0,0,0,,,,,,,,,,,,,,,,,,,,
3103,0,,,246,249,238,233,,-0.04,0.02,0.99,-0,-0,-0,0.05,,69,0,4,32,99,0.586,0.0,113,3.76,13.2,0.0,1,0.0,0.0,0.0,0,0,0,0,0,,,,,,,,,,,,,,,,,,,,
3123,0,,,246,249,238,233,,-0.04,0.02,0.99,-0,-0,-0,0.05,,69,0,4,32,99,0.588,0.0,113,3.44,13.2,0.0,1,0.0,0.0,0.0,0,0,0,0,0,,,,,,,,,,,,,,,,,,,,
3143,0,10,8,246,250,238,233,2,-0.04,0.02,0.99,-0,-0,-0,0.05,1,69,0,4,32,99,0.591,0.0,113,3.24,13.2,0.0,1,0.0,0.0,0.0,0,0,0,0,0,0,250,250,0,0.0,0.0,0.0,0.0,0,0,0.0,0,0.0,-1,0.0,,0.0,0,0.0,0.0524
3163,0,,,246,249,238,233,,-0.04,0.02,0.99,-0,-0,-0,0.05,,69,0,4,32,99,0.593,0.0,113,3.07,13.2,0.0,1,0.0,0.0,0.0,0,0,0,0,0,,,,,,,,,,,,,,,,,,,,
3183,0,,,246,250,238,233,,-0.04,0.02,0.99,-0,-0,-0,0.05,,69,0,4,32,99,0.595,0.0,113,2.93,13.2,0.0,1,0.0,0.0,0.0,0,0,0,0,0,,,,,,,,,,,,,,,,,,,,
3203,0,,,246,250,238,233,,-0.04,0.02,0.99,-0,-0,-0,0.05,,69,0,4,32,99,0.597,0.0,113,2.81,13.2,0.0,1,0.0,0.0,0.0,0,0,0,0,0,,,,,,,,,,,,,,,,,,,,
3223,0,,,246,250,238,233,,-0.04,0.02,0.99,-0,-0,-0,0.05,,69,0,4,32,99,0.6,0.0,113,2.71,13.2,0.0,1,0.0,0.0,0.0,0,0,0,0,0,,,,,,,,,,,,,,,,,,,,
3243,0,8,7,246,249,238,233,2,-0.04,0.02,0.99,-0,-0,-0,0.05,1,69,0,4,32,99,0.603,0.0,113,2.62,13.2,0.0,1,0.0,0.0,0.0,0,0,0,0,0,0,250,250,0,0.0,0.0,0.0,0.0,0,0,0.0,0,0.0,-1,0.0,0.0,0.0,0,0.0,0.054
3263,0,,,246,249,238,233,,-0.04,0.02,0.99,-0,-0,-0,0.05,,69,0,4,32,99,0.605,0.0,113,2.54,13.2,0.0,1,0.0,0.0,0.0,0,0,0,0,0,,,,,,,,,,,,,,,,,,,,
3283,0,,,246,250,238,233,,-0.04,0.02,0.99,-0,-0,-0,0.05,,69,0,4,32,99,0.607,0.0,113,2.48,13.2,0.0,1,0.0,0.0,0.0,0,0,0,0,0,,,,,,,,,,,,,,,,,,,,
3303,0,,,246,249,238,233,,-0.04,0.02,0.99,-0,-0,-0,0.05,,69,0,4,32,99,0.61,0.0,113,2.41,13.2,0.0,1,0.0,0.0,0.0,0,0,0,0,0,,,,,,,,,,,,,,,,,,,,
3323,0,,,246,249,238,233,,-0.04,0.02,0.99,-0,-0,-0,0.05,,69,0,4,32,99,0.612,0.0,113,2.35,13.2,0.0,1,0.0,0.0,0.0,0,0,0,0,0,,,,,,,,,,,,,,,,,,,,
3343,0,8,9,246,249,238,233,2,-0.04,0.02,0.99,-0,-0,-0,0.05,1,69,0,4,32,99,0.614,0.0,113,2.3,13.2,0.0,1,0.0,0.0,0.0,0,0,0,0,0,0,250,250,0,0.0,0.0,0.0,0.0,0,0,0.0,0,0.0,-1,0.0,,0.0,0,0.0,0.0557
3363,0,,,246,249,238,233,,-0.04,0.02,0.99,-0,-0,-0,0.05,,69,0,4,32,99,0.616,0.0,113,2.24,13.2,0.0,1,0.0,0.0,0.0,0,0,0,0,0,,,,,,,,,,,,,,,,,,,,
3383,0,,,246,249,238,233,,-0.04,0.02,0.99,-0,-0,-0,0.05,,69,0,4,32,99,0.619,0.0,113,2.21,13.2,0.0,1,0.0,0.0,0.0,0,0,0,0,0,,,,,,,,,,,,,,,,,,,,
3403,0,,,246,249,238,233,,-0.04,0.02,0.99,-0,-0,-0,0.05,,69,0,4,32,99,0.621,0.0,113,2.16,13.2,0.0,1,0.0,0.0,0.0,0,0,0,0,0,,,,,,,,,,,,,,,,,,,,
3423,0,,,246,249,238,233,,-0.04,0.02,0.99,-0,-0,-0,0.05,,69,0,4,32,99,0.624,0.0,113,2.13,13.2,0.0,1,0.0,0.0,0.0,0,0,0,0,0,,,,,,,,,,,,,,,,,,,,
3443,0,10,10,246,250,238,233,3,-0.04,0.02,0.99,-0,-0,-0,0.05,1,69,0,4,32,99,0.626,0.0,113,2.08,13.2,0.0,1,0.0,0.0,0.0,0,0,0,0,0,0,250,250,0,0.0,0.0,0.0,0.0,0,0,0.0,0,0.0,-1,0.0,0.0,0.0,0,0.0,0.0574
3463,0,,,246,249,238,233,,-0.04,0.02,0.99,-0,-0,-0,0.05,,69,0,4,32,99,0.629,0.0,113,2.05,13.2,0.0,1,0.0,0.0,0.0,0,0,0,0,0,,,,,,,,,,,,,,,,,,,,
3483,0,,,246,250,238,233,,-0.04,0.02,0.99,-0,-0,-0,0.05,,69,0,4,32,99,0.631,0.0,113,2.02,13.2,0.0,1,0.0,0.0,0.0,0,0,0,0,0,,,,,,,,,,,,,,,,,,,,
3503,0,,,246,250,238,233,,-0.04,0.02,0.99,-0,-0,-0,0.05,,69,0,4,32,99,0.634,0.0,113,2.0,13.2,0.0,1,0.0,0.0,0.0,0,0,0,0,0,,,,,,,,,,,,,,,,,,,,
3523,0,,,246,249,238,233,,-0.04,0.02,0.99,-0,-0,-0,0.05,,69,0,4,32,99,0.635,0.0,113,1.97,13.2,0.0,1,0.0,0.0,0.0,0,0,0,0,0,,,,,,,,,,,,,,,,,,,,
3543,0,9,10,246,249,238,233,2,-0.04,0.02,0.99,-0,-0,-0,0.05,1,69,0,4,32,99,0.638,0.0,113,1.94,13.2,0.0,1,0.0,0.0,0.0,0,0,0,0,0,0,250,250,0,0.0,0.0,0.0,0.0,0,0,0.0,0,0.0,-1,0.0,,0.0,0,0.0,0.059
3563,0,,,246,249,238,233,,-0.04,0.02,0.99,-0,-0,-0,0.05,,69,0,4,32,99,0.639,0.0,113,1.92,13.2,0.0,1,0.0,0.0,0.0,0,0,0,0,0,,,,,,,,,,,,,,,,,,,,
3583,0,,,246,250,238,233,,-0.04,0.02,0.99,-0,-0,-0,0.05,,69,0,4,32,99,0.641,0.0,113,1.89,13.1,0.0,1,0.0,0.0,0.0,0,0,0,0,0,,,,,,,,,,,,,,,,,,,,
3603,0,,,246,249,238,233,,-0.04,0.02,0.99,-0,-0,-0,0.05,,69,0,4,32,99,0.642,0.0,113,1.86,13.2,0.0,1,0.0,0.0,0.0,0,0,0,0,0,,,,,,,,,,,,,,,,,,,,
3623,0,,,246,249,238,233,,-0.04,0.02,0.99,-0,-0,-0,0.05,,69,0,4,32,99,0.644,0.0,113,1.84,13.2,0.0,1,0.0,0.0,0.0,0,0,0,0,0,,,,,,,,,,,,,,,,,,,,
3643,0,10,8,246,249,238,233,2,-0.04,0.02,0.99,-0,-0,-0,0.05,1,69,0,4,32,99,0.644,0.0,113,1.83,13.2,0.0,1,0.0,0.0,0.0,0,0,0,0,0,0,250,250,0,0.0,0.0,0.0,0.0,0,0,0.0,0,0.0,-1,0.0,0.0,0.0,0,0.0,0.0607
3663,0,,,246,250,238,233,,-0.04,0.02,0.99,-0,-0,-0,0.05,,69,0,4,32,99,0.645,0.0,113,1.8,13.2,0.0,1,0.0,0.0,0.0,0,0,0,0,0,,,,,,,,,,,,,,,,,,,,
3683,0,,,246,249,238,233,,-0.04,0.02,0.99,-0,-0,-0,0.05,,69,0,4,32,99,0.645,0.0,113,1.78,13.2,0.0,1,0.0,0.0,0.0,0,0,0,0,0,,,,,,,,,,,,,,,,,,,,
3703,0,,,246,249,238,233,,-0.04,0.02,0.99,-0,-0,-0,0.05,,69,0,4,32,99,0.645,0.0,113,1.78,13.2,0.0,1,0.0,0.0,0.0,0,0,0,0,0,,,,,,,,,,,,,,,,,,,,
3723,0,,,246,249,238,233,,-0.04,0.02,0.99,-0,-0,-0,0.05,,69,0,4,32,99,0.646,0.0,113,1.75,13.2,0.0,1,0.0,0.0,0.0,0,0,0,0,0,,,,,,,,,,,,,,,,,,,,
3743,0,8,9,246,249,238,233,2,-0.04,0.02,0.99,-0,-0,-0,0.05,1,69,0,4,32,99,0.645,0.0,113,1.73,13.2,0.0,1,0.0,0.0,0.0,0,0,0,0,0,0,250,250,0,0.0,0.0,0.0,0.0,0,0,0.0,0,0.0,-1,0.0,,0.0,0,0.0,0.0624
3763,0,,,246,249,238,233,,-0.04,0.02,0.99,-0,-0,-0,0.05,,69,0,4,32,99,0.646,0.0,113,1.73,13.2,0.0,1,0.0,0.0,0.0,0,0,0,0,0,,,,,,,,,,,,,,,,,,,,
3783,0,,,246,249,238,233,,-0.04,0.02,0.99,-0,-0,-0,0.05,,69,0,4,32,99,0.646,0.0,113,1.7,13.2,0.0,1,0.0,0.0,0.0,0,0,0,0,0,,,,,,,,,,,,,,,,,,,,
3803,0,,,246,249,238,233,,-0.04,0.02,0.99,-0,-0,-0,0.05,,69,0,4,32,99,0.645,0.0,113,1.69,13.2,0.0,1,0.0,0.0,0.0,0,0,0,0,0,,,,,,,,,,,,,,,,,,,,
3823,0,,,246,249,238,233,,-0.04,0.02,0.99,-0,-0,-0,0.05,,69,0,4,32,99,0.645,0.0,113,1.67,13.2,0.0,1,0.0,0.0,0.0,0,0,0,0,0,,,,,,,,,,,,,,,,,,,,
3843,0,8,8,246,250,238,233,3,-0.04,0.02,0.99,-0,-0,-0,0.05,1,69,0,4,32,99,0.645,0.0,113,1.67,13.2,0.0,1,0.0,0.0,0.0,0,0,0,0,0,0,250,250,0,0.0,0.0,0.0,0.0,0,0,0.0,0,0.0,-1,0.0,0.0,0.0,0,0.0,0.064
3863,0,,,246,249,238,233,,-0.04,0.02,0.99,-0,-0,-0,0.05,,69,0,4,32,99,0.644,0.0,113,1.64,13.2,0.0,1,0.0,0.0,0.0,0,0,0,0,0,,,,,,,,,,,,,,,,,,,,
3883,0,,,246,249,238,233,,-0.04,0.02,0.99,-0,-0,-0,0.05,,69,0,4,32,99,0.644,0.0,113,1.62,13.2,0.0,1,0.0,0.0,0.0,0,0,0,0,0,,,,,,,,,,,,,,,,,,,,
3903,0,,,246,249,238,233,,-0.04,0.02,0.99,-0,-0,-0,0.05,,69,0,4,32,99,0.644,0.0,112,1.61,13.2,0.0,1,0.0,0.0,0.0,0,0,0,0,0,,,,,,,,,,,,,,,,,,,,
3923,0,,,246,250,238,233,,-0.04,0.02,0.99,-0,-0,-0,0.05,,69,0,4,32,99,0.644,0.0,113,1.61,13.2,0.0,1,0.0,0.0,0.0,0,0,0,0,0,,,,,,,,,,,,,,,,,,,,
3943,0,9,9,246,249,238,233,2,-0.04,0.02,0.99,-0,-0,-0,0.05,1,69,0,4,32,99,0.644,0.0,113,1.58,13.2,0.0,1,0.0,0.0,0.0,0,0,0,0,0,0,250,250,0,0.0,0.0,0.0,0.0,0,0,0.0,0,0.0,-1,0.0,,0.0,0,0.0,0.0657
3963,0,,,246,249,238,233,,-0.05,0.02,0.99,-0,-0,-0,0.05,,69,0,4,32,99,0.645,0.0,113,1.58,13.2,0.0,1,0.0,0.0,0.0,0,0,0,0,0,,,,,,,,,,,,,,,,,,,,
3983,0,,,246,249,238,233,,-0.05,0.02,0.99,-0,-0,-0,0.05,,69,0,4,32,99,0.644,0.0,113,1.56,13.2,0.0,1,0.0,0.0,0.0,0,0,0,0,0,,,,,,,,,,,,,,,,,,,,
4003,0,,,246,249,238,233,,-0.04,0.02,0.99,-0,-0,-0,0.05,,69,0,4,32,99,0.645,0.0,113,1.56,13.2,0.0,1,0.0,0.0,0.0,0,0,0,0,0,,,,,,,,,,,,,,,,,,,,
4023,0,,,246,250,238,233,,-0.04,0.02,0.98,-0,-0,-0,0.05,,69,0,4,32,99,0.645,0.0,113,1.56,13.2,0.0,1,0.0,0.0,0.0,0,0,0,0,0,,,,,,,,,,,,,,,,,,,,
4043,0,9,9,246,249,238,233,2,-0.04,0.02,0.98,-0,-0,-0,0.05,1,69,0,4,32,99,0.645,0.0,113,1.53,13.2,0.0,1,0.0,0.0,0.0,0,0,0,0,0,0,250,250,0,0.0,0.0,0.0,0.0,0,0,0.0,0,0.0,-1,0.0,0.0,0.0,0,0.0,0.0674
4063,0,,,246,249,238,233,,-0.04,0.02,0.99,-0,-0,-0,0.05,,69,0,4,32,99,0.646,0.0,113,1.53,13.2,0.0,1,0.0,0.0,0.0,0,0,0,0,0,,,,,,,,,,,,,,,,,,,,
4083,0,,,246,250,238,233,,-0.04,0.02,0.99,-0,-0,-0,0.05,,69,0,4,32,99,0.646,0.0,113,1.52,13.2,0.0,1,0.0,0.0,0.0,0,0,0,0,0,,,,,,,,,,,,,,,,,,,,
4103,0,,,246,250,238,233,,-0.05,0.02,0.99,-0,-0,-0,0.05,,69,0,4,32,99,0.647,0.0,113,1.51,13.2,0.0,1,0.0,0.0,0.0,0,0,0,0,0,,,,,,,,,,,,,,,,,,,,
4123,0,,,246,250,238,233,,-0.05,0.02,0.99,-0,-0,-0,0.05,,69,0,4,32,99,0.647,0.0,113,1.51,13.2,0.0,1,0.0,0.0,0.0,0,0,0,0,0,,,,,,,,,,,,,,,,,,,,
4143,0,8,9,246,249,238,233,2,-0.05,0.02,0.99,-0,-0,-0,0.05,1,69,0,4,32,99,0.647,0.0,113,1.51,13.2,0.0,1,0.0,0.0,0.0,0,0,0,0,0,0,250,250,0,0.0,0.0,0.0,0.0,0,0,0.0,0,0.0,-1,0.0,,0.0,0,0.0,0.069
4163,0,,,246,249,238,233,,-0.04,0.02,0.99,-0,-0,-0,0.05,,69,0,4,32,99,0.647,0.0,113,1.48,13.2,0.0,1,0.0,0.0,0.0,0,0,0,0,0,,,,,,,,,,,,,,,,,,,,
4183,0,,,246,249,238,233,,-0.04,0.02,0.98,-0,-0,-0,0.05,,69,0,4,32,99,0.647,0.0,113,1.48,13.2,0.0,1,0.0,0.0,0.0,0,0,0,0,0,,,,,,,,,,,,,,,,,,,,
4203,0,,,246,250,238,233,,-0.04,0.02,0.98,-0,-0,-0,0.05,,69,0,4,32,99,0.646,0.0,113,1.48,13.2,0.0,1,0.0,0.0,0.0,0,0,0,0,0,,,,,,,,,,,,,,,,,,,,
4223,0,,,246,249,238,233,,-0.04,0.02,0.99,-0,-0,-0,0.05,,69,0,4,32,99,0.646,0.0,113,1.47,13.2,0.0,1,0.0,0.0,0.0,0,0,0,0,0,,,,,,,,,,,,,,,,,,,,
4243,0,10,8,246,249,238,233,2,-0.04,0.02,0.99,-0,-0,-0,0.05,1,69,0,4,32,99,0.646,0.0,113,1.45,13.2,0.0,1,0.0,0.0,0.0,0,0,0,0,0,0,250,250,0,0.0,0.0,0.0,0.0,0,0,0.0,0,0.0,-1,0.0,0.0,0.0,0,0.0,0.0707
4263,0,,,246,249,238,233,,-0.04,0.02,0.99,-0,-0,-0,0.05,,69,0,4,32,99,0.646,0.0,113,1.45,13.2,0.0,1,0.0,0.0,0.0,0,0,0,0,0,,,,,,,,,,,,,,,,,,,,
4283,0,,,246,249,238,233,,-0.04,0.02,0.99,-0,-0,-0,0.05,,69,0,4,32,99,0.646,0.0,113,1.45,13.2,0.0,1,0.0,0.0,0.0,0,0,0,0,0,,,,,,,,,,,,,,,,,,,,
4303,0,,,246,249,238,233,,-0.04,0.02,0.99,-0,-0,-0,0.05,,69,0,4,32,99,0.646,0.0,113,1.45,13.2,0.0,1,0.0,0.0,0.0,0,0,0,0,0,,,,,,,,,,,,,,,,,,,,
4323,0,,,246,249,238,233,,-0.04,0.02,0.99,-0,-0,-0,0.05,,69,0,4,32,99,0.646,0.0,113,1.42,13.2,0.0,1,0.0,0.0,0.0,0,0,0,0,0,,,,,,,,,,,,,,,,,,,,
4343,0,10,7,246,249,238,233,2,-0.04,0.02,0.99,-0,-0,-0,0.05,1,69,0,4,32,99,0.646,0.0,113,1.42,13.2,0.0,1,0.0,0.0,0.0,0,0,0,0,0,0,250,250,0,0.0,0.0,0.0,0.0,0,0,0.0,0,0.0,-1,0.0,,0.0,0,0.0,0.0724
4363,0,,,246,249,238,233,,-0.04,0.02,0.99,-0,-0,-0,0.05,,69,0,4,32,99,0.645,0.0,113,1.42,13.2,0.0,1,0.0,0.0,0.0,0,0,0,0,0,,,,,,,,,,,,,,,,,,,,
4383,0,,,246,249,238,233,,-0.04,0.02,0.99,-0,-0,-0,0.05,,69,0,4,32,99,0.645,0.0,113,1.42,13.2,0.0,1,0.0,0.0,0.0,0,0,0,0,0,,,,,,,,,,,,,,,,,,,,
4403,0,,,246,249,238,233,,-0.04,0.02,0.99,-0,-0,-0,0.05,,69,0,4,32,99,0.646,0.0,113,1.42,13.2,0.0,1,0.0,0.0,0.0,0,0,0,0,0,,,,,,,,,,,,,,,,,,,,
4423,0,,,246,249,238,233,,-0.04,0.02,0.99,-0,-0,-0,0.05,,69,0,4,32,99,0.646,0.0,113,1.4,13.2,0.0,1,0.0,0.0,0.0,0,0,0,0,0,,,,,,,,,,,,,,,,,,,,
4443,0,10,8,246,249,238,233,2,-0.04,0.02,0.99,-0,-0,-0,0.05,1,69,0,4,32,99,0.646,0.0,113,1.4,13.2,0.0,1,0.0,0.0,0.0,0,0,0,0,0,0,250,250,0,0.0,0.0,0.0,0.0,0,0,0.0,0,0.0,-1,0.0,0.0,0.0,0,0.0,0.074
4463,0,,,246,249,238,233,,-0.04,0.02,0.99,-0,-0,-0,0.05,,69,0,4,32,99,0.647,0.0,113,1.4,13.2,0.0,1,0.0,0.0,0.0,0,0,0,0,0,,,,,,,,,,,,,,,,,,,,
4483,0,,,246,249,238,233,,-0.04,0.02,0.99,-0,-0,-0,0.05,,69,0,4,32,99,0.647,0.0,113,1.4,13.2,0.0,1,0.0,0.0,0.0,0,0,0,0,0,,,,,,,,,,,,,,,,,,,,
4503,0,,,246,249,238,233,,-0.04,0.02,0.99,-0,-0,-0,0.05,,69,0,4,32,99,0.647,0.0,113,1.4,13.2,0.0,1,0.0,0.0,0.0,0,0,0,0,0,,,,,,,,,,,,,,,,,,,,
4523,0,,,246,249,238,233,,-0.04,0.02,0.99,-0,-0,-0,0.05,,69,0,4,32,99,0.647,0.0,113,1.4,13.2,0.0,1,0.0,0.0,0.0,0,0,0,0,0,,,,,,,,,,,,,,,,,,,,
4543,0,10,7,246,249,238,233,2,-0.04,0.02,0.99,-0,-0,-0,0.05,1,69,0,4,32,99,0.647,0.0,113,1.39,13.2,0.0,1,0.0,0.0,0.0,0,0,0,0,0,0,250,250,0,0.0,0.0,0.0,0.0,0,0,0.0,0,0.0,-1,0.0,,0.0,0,0.0,0.0757
4563,0,,,246,249,238,233,,-0.04,0.02,0.99,-0,-0,-0,0.05,,69,0,4,32,99,0.646,0.0,113,1.37,13.2,0.0,1,0.0,0.0,0.0,0,0,0,0,0,,,,,,,,,,,,,,,,,,,,
4583,0,,,246,250,238,233,,-0.04,0.02,0.99,-0,-0,-0,0.05,,69,0,4,32,99,0.647,0.0,113,1.37,13.2,0.0,1,0.0,0.0,0.0,0,0,0,0,0,,,,,,,,,,,,,,,,,,,,
4603,0,,,246,249,238,233,,-0.04,0.02,0.99,-0,-0,-0,0.05,,69,0,4,32,99,0.647,0.0,113,1.37,13.2,0.0,1,0.0,0.0,0.0,0,0,0,0,0,,,,,,,,,,,,,,,,,,,,
4623,0,,,246,249,238,233,,-0.04,0.02,0.99,-0,-0,-0,0.05,,69,0,4,32,99,0.647,0.0,113,1.37,13.2,0.0,1,0.0,0.0,0.0,0,0,0,0,0,,,,,,,,,,,,,,,,,,,,
4643,0,9,9,246,249,238,233,3,-0.04,0.02,0.99,-0,-0,-0,0.05,1,69,0,4,32,99,0.648,0.0,113,1.37,13.2,0.0,1,0.0,0.0,0.0,0,0,0,0,0,0,250,250,0,0.0,0.0,0.0,0.0,0,0,0.0,0,0.0,-1,0.0,0.0,0.0,0,0.0,0.0774
4663,0,,,246,250,238,233,,-0.04,0.02,0.99,-0,-0,-0,0.05,,69,0,4,32,99,0.648,0.0,113,1.37,13.1,0.0,1,0.0,0.0,0.0,0,0,0,0,0,,,,,,,,,,,,,,,,,,,,
4683,0,,,246,249,238,233,,-0.04,0.02,0.99,-0,-0,-0,0.05,,69,0,4,32,99,0.65,0.0,113,1.35,12.9,0.0,1,0.0,0.0,0.0,0,0,0,0,0,,,,,,,,,,,,,,,,,,,,
4703,0,,,246,250,238,233,,-0.04,0.02,0.99,-0,-0,-0,0.05,,69,0,4,32,99,0.652,0.0,113,1.34,13.1,0.0,1,0.0,0.0,0.0,0,0,0,0,0,,,,,,,,,,,,,,,,,,,,
4723,0,,,246,250,238,233,,-0.04,0.02,0.99,-0,-0,-0,0.05,,69,0,4,32,99,0.654,0.0,113,1.34,13.1,0.0,1,0.0,0.0,0.0,0,0,0,0,0,,,,,,,,,,,,,,,,,,,,
4743,0,10,7,246,249,238,233,2,-0.04,0.02,0.99,-0,-0,-0,0.05,1,69,0,4,32,99,0.656,0.0,113,1.34,13.1,0.0,1,0.0,0.0,0.0,0,0,0,0,0,0,250,250,0,0.0,0.0,0.0,0.0,0,0,0.0,0,0.0,-1,0.0,,0.0,0,0.0,0.079
4763,0,,,246,250,238,233,,-0.04,0.02,0.99,-0,-0,-0,0.05,,69,0,4,32,99,0.658,0.0,113,1.34,13.1,0.0,1,0.0,0.0,0.0,0,0,0,0,0,,,,,,,,,,,,,,,,,,,,
4783,0,,,246,249,238,233,,-0.04,0.02,0.99,-0,-0,-0,0.05,,69,0,4,32,99,0.661,0.0,113,1.34,13.0,0.0,1,0.0,0.0,0.0,0,0,0,0,0,,,,,,,,,,,,,,,,,,,,
4803,0,,,246,250,238,233,,-0.04,0.02,0.99,-0,-0,-0,0.05,,69,0,4,32,99,0.663,0.0,113,1.34,13.1,0.0,1,0.0,0.0,0.0,0,0,0,0,0,,,,,,,,,,,,,,,,,,,,
4823,0,,,246,249,238,233,,-0.04,0.02,0.99,-0,-0,-0,0.05,,69,0,4,32,99,0.665,0.0,113,1.33,13.1,0.0,1,0.0,0.0,0.0,0,0,0,0,0,,,,,,,,,,,,,,,,,,,,
4843,0,8,8,246,249,238,233,2,-0.04,0.02,0.99,-0,-0,-0,0.05,1,69,0,4,32,99,0.667,0.0,113,1.33,13.1,0.0,1,0.0,0.0,0.0,0,0,0,0,0,0,250,250,0,0.0,0.0,0.0,0.0,0,0,0.0,0,0.0,-1,0.0,0.0,0.0,0,0.0,0.0807
4863,0,,,246,249,238,233,,-0.04,0.02,0.99,-0,-0,-0,0.05,,69,0,4,32,99,0.669,0.0,113,1.31,13.1,0.0,1,0.0,0.0,0.0,0,0,0,0,0,,,,,,,,,,,,,,,,,,,,
4883,0,,,246,249,238,233,,-0.04,0.02,0.99,-0,-0,-0,0.05,,69,0,4,32,99,0.671,0.0,113,1.31,13.1,0.0,1,0.0,0.0,0.0,0,0,0,0,0,,,,,,,,,,,,,,,,,,,,
4903,0,,,246,250,238,233,,-0.04,0.02,0.99,-0,-0,-0,0.05,,69,0,4,32,99,0.673,0.0,113,1.31,13.1,0.0,1,0.0,0.0,0.0,0,0,0,0,0,,,,,,,,,,,,,,,,,,,,
4923,0,,,246,249,238,233,,-0.04,0.02,0.99,-0,-0,-0,0.05,,69,0,4,32,99,0.674,0.0,113,1.31,13.1,0.0,1,0.0,0.0,0.0,0,0,0,0,0,,,,,,,,,,,,,,,,,,,,
4943,0,9,8,246,249,238,233,2,-0.04,0.02,0.99,-0,-0,-0,0.05,1,69,0,4,32,99,0.673,0.0,113,1.31,13.0,0.0,1,0.0,0.0,0.0,0,0,0,0,0,0,250,250,0,0.0,0.0,0.0,0.0,0,0,0.0,0,0.0,-1,0.0,,0.0,0,0.0,0.0824
4963,0,,,246,249,238,233,,-0.04,0.02,0.99,-0,-0,-0,0.05,,69,0,4,32,99,0.674,0.0,113,1.31,13.0,0.0,1,0.0,0.0,0.0,0,0,0,0,0,,,,,,,,,,,,,,,,,,,,
4983,0,,,246,249,238,233,,-0.04,0.02,0.99,-0,-0,-0,0.05,,69,0,4,32,99,0.674,0.0,113,1.31,13.1,0.0,1,0.0,0.0,0.0,0,0,0,0,0,,,,,,,,,,,,,,,,,,,,
5003,0,,,246,249,238,233,,-0.04,0.02,0.99,-0,-0,-0,0.05,,69,0,4,32,99,0.674,0.0,113,1.28,13.1,0.0,1,0.0,0.0,0.0,0,0,0,0,0,,,,,,,,,,,,,,,,,,,,
5023,0,,,246,249,238,233,,-0.04,0.02,0.99,-0,-0,-0,0.05,,69,0,4,32,99,0.674,0.0,113,1.28,13.1,0.0,1,0.0,0.0,0.0,0,0,0,0,0,,,,,,,,,,,,,,,,,,,,
5043,0,8,8,246,249,238,233,2,-0.04,0.02,0.99,-0,-0,-0,0.05,1,69,0,4,32,99,0.674,0.0,113,1.28,13.1,0.0,1,0.0,0.0,0.0,0,0,0,0,0,0,250,250,0,0.0,0.0,0.0,0.0,0,0,0.0,0,0.0,-1,0.0,0.0,0.0,0,0.0,0.084
5063,0,,,246,249,238,233,,-0.04,0.02,0.99,-0,-0,-0,0.05,,69,0,4,32,99,0.673,0.0,113,1.28,13.1,0.0,1,0.0,0.0,0.0,0,0,0,0,0,,,,,,,,,,,,,,,,,,,,
5083,0,,,246,249,238,233,,-0.04,0.02,0.99,-0,-0,-0,0.05,,69,0,4,32,99,0.674,0.0,113,1.28,13.1,0.0,1,0.0,0.0,0.0,0,0,0,0,0,,,,,,,,,,,,,,,,,,,,
5103,0,,,246,249,238,233,,-0.04,0.02,0.99,-0,-0,-0,0.05,,69,0,4,32,99,0.673,0.0,113,1.28,13.0,0.0,1,0.0,0.0,0.0,0,0,0,0,0,,,,,,,,,,,,,,,,,,,,
5123,0,,,246,249,238,233,,-0.04,0.02,0.99,-0,-0,-0,0.05,,69,0,4,32,99,0.674,0.0,113,1.28,13.0,0.0,1,0.0,0.0,0.0,0,0,0,0,0,,,,,,,,,,,,,,,,,,,,
5143,0,9,7,246,250,238,233,2,-0.04,0.02,0.99,-0,-0,-0,0.05,1,69,0,4,32,99,0.674,0.0,113,1.28,13.1,0.0,1,0.0,0.0,0.0,0,0,0,0,0,0,250,250,0,0.0,0.0,0.0,0.0,0,0,0.0,0,0.0,-1,0.0,,0.0,0,0.0,0.0857
5163,0,,,246,250,238,233,,-0.04,0.02,0.99,-0,-0,-0,0.05,,69,0,4,32,99,0.674,0.0,113,1.28,13.1,0.0,1,0.0,0.0,0.0,0,0,0,0,0,,,,,,,,,,,,,,,,,,,,
5183,0,,,246,249,238,233,,-0.04,0.02,0.99,-0,-0,-0,0.05,,69,0,4,32,99,0.674,0.0,113,1.28,13.1,0.0,1,0.0,0.0,0.0,0,0,0,0,0,,,,,,,,,,,,,,,,,,,,
5203,0,,,246,250,238,233,,-0.04,0.02,0.99,-0,-0,-0,0.05,,69,0,4,32,99,0.674,0.0,113,1.28,13.1,0.0,1,0.0,0.0,0.0,0,0,0,0,0,,,,,,,,,,,,,,,,,,,,
5223,0,,,246,249,238,233,,-0.04,0.02,0.99,-0,-0,-0,0.05,,69,0,4,32,99,0.674,0.0,113,1.28,13.1,0.0,1,0.0,0.0,0.0,0,0,0,0,0,,,,,,,,,,,,,,,,,,,,
5243,0,9,8,246,249,238,233,2,-0.04,0.02,0.99,-0,-0,-0,0.05,1,69,0,4,32,99,0.673,0.0,113,1.26,13.1,0.0,1,0.0,0.0,0.0,0,0,0,0,0,0,250,250,0,0.0,0.0,0.0,0.0,0,0,0.0,0,0.0,-1,0.0,0.0,0.0,0,0.0,0.0874
5263,0,,,246,249,238,233,,-0.04,0.02,0.99,-0,-0,-0,0.05,,69,0,4,32,99,0.674,0.0,113,1.26,13.0,0.0,1,0.0,0.0,0.0,0,0,0,0,0,,,,,,,,,,,,,,,,,,,,
5283,0,,,246,249,238,233,,-0.04,0.02,0.99,-0,-0,-0,0.05,,69,0,4,32,99,0.674,0.0,113,1.26,13.0,0.0,1,0.0,0.0,0.0,0,0,0,0,0,,,,,,,,,,,,,,,,,,,,
5303,0,,,246,250,238,233,,-0.04,0.02,0.99,-0,-0,-0,0.05,,69,0,4,32,99,0.674,0.0,113,1.26,13.0,0.0,1,0.0,0.0,0.0,0,0,0,0,0,,,,,,,,,,,,,,,,,,,,
5323,0,,,246,250,238,233,,-0.04,0.02,0.99,-0,-0,-0,0.05,,69,0,4,32,99,0.674,0.0,113,1.26,13.1,0.0,1,0.0,0.0,0.0,0,0,0,0,0,,,,,,,,,,,,,,,,,,,,
5343,0,8,7,246,249,238,233,2,-0.04,0.02,0.99,-0,-0,-0,0.05,1,69,0,4,32,99,0.674,0.0,113,1.26,13.1,0.0,1,0.0,0.0,0.0,0,0,0,0,0,0,250,250,0,0.0,0.0,0.0,0.0,0,0,0.0,0,0.0,-1,0.0,,0.0,0,0.0,0.089
5363,0,,,246,249,238,233,,-0.04,0.02,0.99,-0,-0,-0,0.05,,69,0,4,32,99,0.674,0.0,113,1.26,13.1,0.0,1,0.0,0.0,0.0,0,0,0,0,0,,,,,,,,,,,,,,,,,,,,
5383,0,,,246,249,238,233,,-0.04,0.02,0.99,-0,-0,-0,0.05,,69,0,4,32,99,0.674,0.0,113,1.26,13.1,0.0,1,0.0,0.0,0.0,0,0,0,0,0,,,,,,,,,,,,,,,,,,,,
5403,0,,,246,249,238,233,,-0.04,0.02,0.99,-0,-0,-0,0.05,,69,0,4,32,99,0.674,0.0,113,1.26,13.1,0.0,1,0.0,0.0,0.0,0,0,0,0,0,,,,,,,,,,,,,,,,,,,,
5423,0,,,246,249,238,233,,-0.04,0.02,0.99,-0,-0,-0,0.05,,69,0,4,32,99,0.674,0.0,113,1.26,13.1,0.0,1,0.0,0.0,0.0,0,0,0,0,0,,,,,,,,,,,,,,,,,,,,
5443,0,8,5,246,249,238,233,2,-0.04,0.02,0.99,-0,-0,-0,0.05,1,69,0,4,32,99,0.674,0.0,113,1.25,13.0,0.0,1,0.0,0.0,0.0,0,0,0,0,0,0,250,250,0,0.0,0.0,0.0,0.0,0,0,0.0,0,0.0,-1,0.0,0.0,0.0,0,0.0,0.0907
5463,0,,,246,249,238,233,,-0.04,0.02,0.99,-0,-0,-0,0.05,,69,0,4,32,99,0.675,0.0,113,1.23,13.0,0.0,1,0.0,0.0,0.0,0,0,0,0,0,,,,,,,,,,,,,,,,,,,,
5483,0,,,246,250,238,233,,-0.04,0.02,0.99,-0,-0,-0,0.05,,69,0,4,32,99,0.675,0.0,113,1.23,13.0,0.0,1,0.0,0.0,0.0,0,0,0,0,0,,,,,,,,,,,,,,,,,,,,
5503,0,,,246,249,238,233,,-0.04,0.02,0.99,-0,-0,-0,0.05,,69,0,4,32,99,0.675,0.0,113,1.23,13.1,0.0,1,0.0,0.0,0.0,0,0,0,0,0,,,,,,,,,,,,,,,,,,,,
5523,0,,,246,249,238,233,,-0.04,0.02,0.99,-0,-0,-0,0.05,,69,0,4,32,99,0.675,0.0,113,1.23,13.1,0.0,1,0.0,0.0,0.0,0,0,0,0,0,,,,,,,,,,,,,,,,,,,,
5543,0,8,7,246,249,238,233,2,-0.04,0.02,0.99,-0,-0,-0,0.05,1,69,0,4,32,99,0.675,0.0,113,1.23,13.1,0.0,1,0.0,0.0,0.0,0,0,0,0,0,0,250,250,0,0.0,0.0,0.0,0.0,0,0,0.0,0,0.0,-1,0.0,,0.0,0,0.0,0.0924
5563,0,,,246,249,238,233,,-0.04,0.02,0.99,-0,-0,-0,0.05,,69,0,4,32,99,0.675,0.0,113,1.23,13.1,0.0,1,0.0,0.0,0.0,0,0,0,0,0,,,,,,,,,,,,,,,,,,,,
5583,0,,,246,249,238,233,,-0.04,0.02,0.99,-0,-0,-0,0.05,,69,0,4,32,99,0.675,0.0,113,1.23,13.1,0.0,1,0.0,0.0,0.0,0,0,0,0,0,,,,,,,,,,,,,,,,,,,,
5603,0,,,246,249,238,233,,-0.04,0.02,0.99,-0,-0,-0,0.05,,69,0,4,32,99,0.675,0.0,113,1.23,13.0,0.0,1,0.0,0.0,0.0,0,0,0,0,0,,,,,,,,,,,,,,,,,,,,
5623,0,,,246,249,238,233,,-0.04,0.02,0.99,-0,-0,-0,0.05,,69,0,4,32,99,0.675,0.0,113,1.23,13.0,0.0,1,0.0,0.0,0.0,0,0,0,0,0,,,,,,,,,,,,,,,,,,,,
5643,0,9,9,246,249,238,233,2,-0.04,0.02,0.99,-0,-0,-0,0.05,1,69,0,4,32,99,0.675,0.0,113,1.23,13.0,0.0,1,0.0,0.0,0.0,0,0,0,0,0,0,250,250,0,0.0,0.0,0.0,0.0,0,0,0.0,0,0.0,-1,0.0,0.0,0.0,0,0.0,0.094
5663,0,,,246,249,238,233,,-0.04,0.02,0.99,-0,-0,-0,0.05,,69,0,4,32,99,0.675,0.0,113,1.23,13.1,0.0,1,0.0,0.0,0.0,0,0,0,0,0,,,,,,,,,,,,,,,,,,,,
5683,0,,,246,249,238,233,,-0.04,0.02,0.99,-0,-0,-0,0.05,,69,0,4,32,99,0.675,0.0,113,1.23,13.1,0.0,1,0.0,0.0,0.0,0,0,0,0,0,,,,,,,,,,,,,,,,,,,,
5703,0,,,246,250,238,233,,-0.04,0.02,0.99,-0,-0,-0,0.05,,69,0,4,32,99,0.675,0.0,113,1.23,13.1,0.0,1,0.0,0.0,0.0,0,0,0,0,0,,,,,,,,,,,,,,,,,,,,
5723,0,,,246,250,238,233,,-0.04,0.02,0.99,-0,-0,-0,0.05,,69,0,4,32,99,0.675,0.0,113,1.23,13.1,0.0,1,0.0,0.0,0.0,0,0,0,0,0,,,,,,,,,,,,,,,,,,,,
5743,0,12,12,246,249,238,233,3,-0.04,0.02,0.99,-0,-0,-0,0.05,1,69,0,4,32,99,0.675,0.0,113,1.21,13.1,0.0,1,0.0,0.0,0.0,0,0,0,0,0,0,250,250,0,0.0,0.0,0.0,0.0,0,0,0.0,0,0.0,-1,0.0,,0.0,0,0.0,0.0957
5763,0,,,246,250,238,233,,-0.04,0.02,0.99,-0,-0,-0,0.05,,69,0,4,32,99,0.675,0.0,113,1.21,13.1,0.0,1,0.0,0.0,0.0,0,0,0,0,0,,,,,,,,,,,,,,,,,,,,
5783,0,,,246,250,238,233,,-0.04,0.02,0.99,-0,-0,-0,0.05,,69,0,4,32,99,0.675,0.0,113,1.21,13.0,0.0,1,0.0,0.0,0.0,0,0,0,0,0,,,,,,,,,,,,,,,,,,,,
5803,0,,,246,249,238,233,,-0.04,0.02,0.99,-0,-0,-0,0.05,,69,0,4,32,99,0.675,0.0,113,1.21,13.0,0.0,1,0.0,0.0,0.0,0,0,0,0,0,,,,,,,,,,,,,,,,,,,,
5823,0,,,246,249,238,233,,-0.04,0.02,0.99,-0,-0,-0,0.05,,69,0,4,32,99,0.675,0.0,113,1.21,13.0,0.0,1,0.0,0.0,0.0,0,0,0,0,0,,,,,,,,,,,,,,,,,,,,
5843,0,13,11,246,249,238,233,1,-0.04,0.02,0.99,-0,-0,-0,0.05,1,69,0,4,32,99,0.675,0.0,113,1.21,13.1,0.0,1,0.0,0.0,0.0,0,0,0,0,0,0,250,250,0,0.0,0.0,0.0,0.0,0,0,0.0,0,0.0,-1,0.0,0.0,0.0,0,0.0,0.0974
5863,0,,,246,249,238,233,,-0.04,0.02,0.99,-0,-0,-0,0.05,,69,0,4,32,99,0.676,0.0,113,1.21,13.1,0.0,1,0.0,0.0,0.0,0,0,0,0,0,,,,,,,,,,,,,,,,,,,,
5883,0,,,246,249,238,233,,-0.04,0.02,0.99,-0,-0,-0,0.05,,69,0,4,32,99,0.676,0.0,113,1.21,13.1,0.0,1,0.0,0.0,0.0,0,0,0,0,0,,,,,,,,,,,,,,,,,,,,
5903,0,,,246,250,238,233,,-0.04,0.02,0.99,-0,-0,-0,0.05,,69,0,4,32,99,0.676,0.0,113,1.21,13.1,0.0,1,0.0,0.0,0.0,0,0,0,0,0,,,,,,,,,,,,,,,,,,,,
5923,0,,,246,249,238,233,,-0.04,0.02,0.99,-0,-0,-0,0.05,,69,0,4,32,99,0.675,0.0,113,1.21,13.1,0.0,1,0.0,0.0,0.0,0,0,0,0,0,,,,,,,,,,,,,,,,,,,,
5943,0,10,9,246,249,238,233,3,-0.04,0.02,0.99,-0,-0,-0,0.05,1,69,0,4,32,99,0.676,0.0,113,1.21,13.1,0.0,1,0.0,0.0,0.0,0,0,0,0,0,0,250,250,0,0.0,0.0,0.0,0.0,0,0,0.0,0,0.0,-1,0.0,,0.0,0,0.0,0.099
5963,0,,,246,249,238,233,,-0.04,0.02,0.99,-0,-0,-0,0.05,,69,0,4,32,99,0.676,0.0,113,1.21,13.0,0.0,1,0.0,0.0,0.0,0,0,0,0,0,,,,,,,,,,,,,,,,,,,,
5983,0,,,246,249,238,233,,-0.04,0.02,0.99,-0,-0,-0,0.05,,69,0,4,32,99,0.676,0.0,113,1.21,13.0,0.0,1,0.0,0.0,0.0,0,0,0,0,0,,,,,,,,,,,,,,,,,,,,
6003,0,,,246,250,238,233,,-0.04,0.02,0.99,-0,-0,-0,0.05,,69,0,4,32,99,0.676,0.0,113,1.21,13.1,0.0,1,0.0,0.0,0.0,0,0,0,0,0,,,,,,,,,,,,,,,,,,,,
6023,0,,,246,249,238,233,,-0.04,0.02,0.99,-0,-0,-0,0.05,,69,0,4,32,99,0.676,0.0,113,1.2,13.1,0.0,1,0.0,0.0,0.0,0,0,0,0,0,,,,,,,,,,,,,,,,,,,,
6043,0,11,7,246,249,238,233,3,-0.04,0.02,0.99,-0,-0,-0,0.05,1,69,0,4,32,99,0.676,0.0,112,1.18,13.1,0.0,1,0.0,0.0,0.0,0,0,0,0,0,0,250,250,0,0.0,0.0,0.0,0.0,0,0,0.0,0,0.0,-1,0.0,0.0,0.0,0,0.0,0.1007
6063,0,,,246,249,238,233,,-0.04,0.02,0.99,-0,-0,-0,0.05,,69,0,4,32,99,0.676,0.0,113,1.18,13.1,0.0,1,0.0,0.0,0.0,0,0,0,0,0,,,,,,,,,,,,,,,,,,,,
6083,0,,,246,250,238,233,,-0.04,0.02,0.99,-0,-0,-0,0.05,,69,0,4,32,99,0.676,0.0,113,1.18,13.1,0.0,1,0.0,0.0,0.0,0,0,0,0,0,,,,,,,,,,,,,,,,,,,,
6103,0,,,246,250,238,233,,-0.04,0.02,0.99,-0,-0,-0,0.05,,69,0,4,32,99,0.676,0.0,113,1.18,13.1,0.0,1,0.0,0.0,0.0,0,0,0,0,0,,,,,,,,,,,,,,,,,,,,
6123,0,,,246,249,238,233,,-0.04,0.02,0.99,-0,-0,-0,0.05,,69,0,4,32,99,0.676,0.0,113,1.18,13.0,0.0,1,0.0,0.0,0.0,0,0,0,0,0,,,,,,,,,,,,,,,,,,,,
6143,0,11,7,246,250,238,233,2,-0.04,0.02,0.99,-0,-0,-0,0.05,1,69,0,4,32,99,0.677,0.0,113,1.18,13.0,0.0,1,0.0,0.0,0.0,0,0,0,0,0,0,250,250,0,0.0,0.0,0.0,0.0,0,0,0.0,0,0.0,-1,0.0,,0.0,0,0.0,0.1024
6163,0,,,246,249,238,233,,-0.04,0.02,0.99,-0,-0,-0,0.05,,69,0,4,32,99,0.677,0.0,113,1.18,13.0,0.0,1,0.0,0.0,0.0,0,0,0,0,0,,,,,,,,,,,,,,,,,,,,
6183,0,,,246,250,238,233,,-0.04,0.02,0.99,-0,-0,-0,0.05,,69,0,4,32,99,0.677,0.0,113,1.18,13.1,0.0,1,0.0,0.0,0.0,0,0,0,0,0,,,,,,,,,,,,,,,,,,,,
6203,0,,,246,250,238,233,,-0.04,0.02,0.99,-0,-0,-0,0.05,,69,0,4,32,99,0.677,0.0,113,1.18,13.1,0.0,1,0.0,0.0,0.0,0,0,0,0,0,,,,,,,,,,,,,,,,,,,,
6223,0,,,246,250,238,233,,-0.04,0.02,0.99,-0,-0,-0,0.05,,69,0,4,32,99,0.677,0.0,113,1.18,13.1,0.0,1,0.0,0.0,0.0,0,0,0,0,0,,,,,,,,,,,,,,,,,,,,
6243,0,10,7,246,249,238,233,2,-0.04,0.02,0.99,-0,-0,-0,0.05,1,69,0,4,32,99,0.677,0.0,113,1.18,13.1,0.0,1,0.0,0.0,0.0,0,0,0,0,0,0,250,250,0,0.0,0.0,0.0,0.0,0,0,0.0,0,0.0,-1,0.0,0.0,0.0,0,0.0,0.104
6263,0,,,246,249,238,233,,-0.04,0.02,0.99,-0,-0,-0,0.05,,69,0,4,32,99,0.677,0.0,113,1.18,13.1,0.0,1,0.0,0.0,0.0,0,0,0,0,0,,,,,,,,,,,,,,,,,,,,
6283,0,,,246,249,238,233,,-0.04,0.02,0.99,-0,-0,-0,0.05,,69,0,4,32,99,0.677,0.0,113,1.18,13.1,0.0,1,0.0,0.0,0.0,0,0,0,0,0,,,,,,,,,,,,,,,,,,,,
6303,0,,,246,249,238,233,,-0.04,0.02,0.99,-0,-0,-0,0.05,,69,0,4,32,99,0.677,0.0,113,1.18,13.0,0.0,1,0.0,0.0,0.0,0,0,0,0,0,,,,,,,,,,,,,,,,,,,,
6323,0,,,246,249,238,233,,-0.04,0.02,0.99,-0,-0,-0,0.05,,69,0,4,32,99,0.678,0.0,113,1.18,13.0,0.0,1,0.0,0.0,0.0,0,0,0,0,0,,,,,,,,,,,,,,,,,,,,
6343,0,11,7,246,249,238,233,1,-0.05,0.02,0.98,-0,-0,-0,0.05,1,69,0,4,32,99,0.676,0.0,113,1.16,9.6,0.0,1,0.0,0.0,0.0,0,0,0,0,0,0,250,250,0,0.0,0.0,0.0,0.0,0,0,0.0,0,0.0,-1,0.0,,0.0,0,0.0,0.1057
6363,0,,,246,249,238,233,,-0.05,0.03,0.98,-0,-0,-0,0.05,,69,0,4,32,99,0.674,0.0,113,1.16,10.2,0.0,1,0.0,0.0,0.0,0,0,0,0,0,,,,,,,,,,,,,,,,,,,,
6383,0,,,246,249,238,233,,-0.05,0.02,0.98,-0,-0,-0,0.05,,69,0,4,32,99,0.673,0.0,113,1.16,10.9,0.0,1,0.0,0.0,0.0,0,0,0,0,0,,,,,,,,,,,,,,,,,,,,
6403,0,,,246,249,238,233,,-0.04,0.02,0.98,-0,-0,-0,0.05,,69,0,4,32,99,0.672,0.0,114,1.16,11.2,0.0,1,0.0,0.0,0.0,0,0,0,0,0,,,,,,,,,,,,,,,,,,,,
6423,0,,,246,249,238,233,,-0.04,0.03,0.98,-0,0,-0,0.05,,69,0,4,32,99,0.673,0.0,115,1.16,11.4,0.0,1,0.0,0.0,0.0,0,0,0,0,0,,,,,,,,,,,,,,,,,,,,
6443,0,10,7,246,249,238,233,2,-0.04,0.03,0.98,-0,0,-0,0.05,1,69,0,4,32,99,0.673,0.0,116,1.16,11.4,0.0,1,0.0,0.0,0.0,0,0,0,0,0,0,250,250,0,0.0,0.0,0.0,0.0,0,0,0.0,0,0.0,-1,0.0,0.0,0.0,0,0.0,0.1074
6463,0,,,246,249,238,233,,-0.04,0.02,0.98,-0,-0,-0,0.05,,69,0,4,32,98,0.675,0.0,116,1.16,11.3,0.0,1,0.0,0.0,0.0,0,0,0,0,0,,,,,,,,,,,,,,,,,,,,
6483,0,,,246,249,238,233,,-0.04,0.02,0.98,-0,-0,-0,0.05,,69,0,4,32,99,0.675,0.0,116,1.16,11.4,0.0,1,0.0,0.0,0.0,0,0,0,0,0,,,,,,,,,,,,,,,,,,,,
6503,0,,,246,250,238,233,,-0.04,0.03,0.99,-0,-0,-0,0.05,,69,0,4,32,99,0.676,0.0,116,1.15,11.7,0.0,1,0.0,0.0,0.0,0,0,0,0,0,,,,,,,,,,,,,,,,,,,,
6523,0,,,246,249,238,233,,-0.04,0.03,1.0,-0,-0,-0,0.05,,69,0,4,32,99,0.678,0.0,116,1.16,11.8,0.0,1,0.0,0.0,0.0,0,0,0,0,0,,,,,,,,,,,,,,,,,,,,
6543,0,9,9,246,249,238,233,2,-0.04,0.03,0.99,-0,-0,-0,0.05,1,69,0,4,32,98,0.679,0.0,116,1.15,11.6,0.0,1,0.0,0.0,0.0,0,0,0,0,0,0,250,250,0,0.0,0.0,0.0,0.0,0,0,0.0,0,0.0,-1,0.0,,0.0,0,0.0,0.109
6563,0,,,246,249,238,233,,-0.04,0.03,0.99,-0,-0,-0,0.05,,69,0,4,32,99,0.68,0.0,116,1.16,11.7,0.0,1,0.0,0.0,0.0,0,0,0,0,0,,,,,,,,,,,,,,,,,,,,
6583,0,,,246,249,238,233,,-0.04,0.03,0.99,-0,-0,-0,0.05,,69,0,4,32,99,0.68,0.0,118,1.15,11.9,0.0,1,0.0,0.0,0.0,0,0,0,0,0,,,,,,,,,,,,,,,,,,,,
6603,0,,,246,249,238,233,,-0.04,0.02,0.99,-0,-0,-0,0.05,,69,0,4,32,98,0.683,0.0,118,1.16,11.9,0.0,1,0.0,0.0,0.0,0,0,0,0,0,,,,,,,,,,,,,,,,,,,,
6623,0,,,246,250,238,233,,-0.04,0.02,1.0,-0,-0,-0,0.05,,69,0,4,32,99,0.685,0.0,118,1.15,11.7,0.0,1,0.0,0.0,0.0,0,0,0,0,0,,,,,,,,,,,,,,,,,,,,
6643,0,10,7,246,249,238,233,3,-0.04,0.02,1.0,-0,-0,-0,0.05,1,69,0,4,32,99,0.687,0.0,118,1.15,11.8,0.0,1,0.0,0.0,0.0,0,0,0,0,0,0,250,250,0,0.0,0.0,0.0,0.0,0,0,0.0,0,0.0,-1,0.0,0.0,0.0,0,0.0,0.1107
6663,0,,,246,250,238,233,,-0.04,0.02,1.01,-0,-0,-0,0.04,,69,0,4,32,98,0.689,0.0,119,1.15,12.0,0.0,1,0.0,0.0,0.0,0,0,0,0,0,,,,,,,,,,,,,,,,,,,,
6683,0,,,246,249,238,233,,-0.04,0.02,1.01,-0,0,-0,0.05,,69,0,4,32,98,0.688,0.0,120,1.15,11.8,0.0,1,0.0,0.0,0.0,0,0,0,0,0,,,,,,,,,,,,,,,,,,,,
6703,0,,,246,249,238,233,,-0.04,0.02,1.01,-0,-0,-0,0.05,,69,0,4,32,99,0.689,0.0,121,1.15,11.8,0.0,1,0.0,0.0,0.0,0,0,0,0,0,,,,,,,,,,,,,,,,,,,,
6723,0,,,246,249,238,233,,-0.04,0.02,1.01,-0,-0,-0,0.05,,69,0,4,32,98,0.688,0.0,121,1.15,12.0,0.0,1,0.0,0.0,0.0,0,0,0,0,0,,,,,,,,,,,,,,,,,,,,
6743,0,10,9,246,249,238,233,2,-0.04,0.02,0.99,-0,-0,-0,0.05,1,69,0,4,32,98,0.688,0.0,121,1.15,11.8,0.0,1,0.0,0.0,0.0,0,0,0,0,0,0,250,250,0,0.0,0.0,0.0,0.0,0,0,0.0,0,0.0,-1,0.0,,0.0,0,0.0,0.1124
6763,0,,,246,250,238,233,,-0.04,0.02,1.0,-0,-0,-0,0.05,,69,0,4,32,99,0.687,0.0,121,1.15,11.8,0.0,1,0.0,0.0,0.0,0,0,0,0,0,,,,,,,,,,,,,,,,,,,,
6783,0,,,246,249,238,233,,-0.04,0.02,0.99,-0,-0,-0,0.05,,69,0,4,32,99,0.687,0.0,124,1.15,12.0,0.0,1,0.0,0.0,0.0,0,0,0,0,0,,,,,,,,,,,,,,,,,,,,
6803,0,,,246,250,238,233,,-0.04,0.02,0.98,-0,-0,-0,0.05,,69,0,4,32,98,0.687,0.0,123,1.15,11.9,0.0,1,0.0,0.0,0.0,0,0,0,0,0,,,,,,,,,,,,,,,,,,,,
6823,0,,,246,249,238,233,,-0.04,0.02,0.98,-0,-0,-0,0.05,,69,0,4,32,99,0.686,0.0,124,1.15,11.8,0.0,1,0.0,0.0,0.0,0,0,0,0,0,,,,,,,,,,,,,,,,,,,,
6843,0,8,8,246,250,238,233,2,-0.05,0.02,0.98,-0,-0,-0,0.05,1,69,0,4,32,99,0.687,0.0,124,1.13,11.9,0.0,1,0.0,0.0,0.0,0,0,0,0,0,0,250,250,0,0.0,0.0,0.0,0.0,0,0,0.0,0,0.0,-1,0.0,0.0,0.0,0,0.0,0.114
6863,0,,,246,249,238,233,,-0.05,0.03,0.99,-0,0,-0,0.05,,69,133,4,32,98,0.686,0.0,126,1.13,12.0,0.0,1,12.1,4.61,0.0,0,0,0,1,0,,,,,,,,,,,,,,,,,,,,
6883,0,,,246,249,238,233,,-0.05,0.02,0.98,-0,-0,-0,0.05,,69,133,4,32,99,0.685,0.0,126,1.33,11.6,0.0,1,12.1,2.09,0.0,0,0,0,1,0,,,,,,,,,,,,,,,,,,,,
6903,0,,,246,249,238,233,,-0.04,0.02,0.99,-0,-0,-0,0.05,,69,133,4,32,99,0.685,0.0,126,2.94,11.8,0.0,1,12.1,4.61,0.0,0,0,0,1,0,,,,,,,,,,,,,,,,,,,,
6923,0,,,246,249,238,233,,-0.04,0.02,0.99,-0,-0,-0,0.05,,69,465,4,32,98,0.684,0.0,126,4.82,11.9,0.0,1,12.1,2.09,0.0,0,0,0,1,0,,,,,,,,,,,,,,,,,,,,
6943,0,5,5,246,249,238,233,2,-0.04,0.02,0.99,-0,0,-0,0.05,1,69,465,4,32,99,0.681,0.0,126,4.89,11.7,0.0,1,12.1,4.61,0.0,0,0,0,1,0,0,250,250,0,0.0,0.0,0.0,0.0,0,0,0.0,0,0.0,-1,0.0,,0.0,0,0.0,0.1157
6963,0,,,246,250,238,233,,-0.04,0.02,0.98,-0,0,-0,0.05,,69,465,4,32,99,0.68,0.0,126,4.89,11.7,0.0,1,12.1,2.09,0.9,0,0,0,1,0,,,,,,,,,,,,,,,,,,,,
6983,0,,,246,249,238,233,,-0.04,0.02,0.97,-0,-0,-0,0.05,,69,465,4,32,98,0.68,0.0,127,4.89,11.9,0.0,1,12.1,2.09,0.9,0,0,0,1,0,,,,,,,,,,,,,,,,,,,,
7003,0,,,246,249,238,233,,-0.04,0.02,0.99,-0,-0,-0,0.05,,69,472,4,33,98,0.677,0.0,125,4.88,11.7,0.0,1,12.1,4.61,0.9,0,0,0,1,0,,,,,,,,,,,,,,,,,,,,
7023,0,,,246,249,238,233,,-0.05,0.03,0.99,-0,-0,-0,0.05,,69,472,6,33,99,0.676,0.0,126,4.88,11.7,0.0,1,12.1,2.09,0.9,0,0,0,1,0,,,,,,,,,,,,,,,,,,,,
7043,0,2,2,246,250,238,233,2,-0.05,0.03,0.99,-0,-0,-0,0.05,1,69,472,10,32,98,0.674,0.0,126,4.89,11.9,0.0,1,12.1,2.09,0.9,0,0,0,1,0,0,250,250,0,0.0,0.0,0.0,0.0,0,0,0.0,0,0.0,-1,0.0,0.0,0.0,0,0.0,0.1174
7063,0,,,246,249,238,233,,-0.05,0.02,0.98,-0,-0,-0,0.05,,69,499,16,33,99,0.671,0.0,125,4.88,11.6,0.0,1,30.0,8.08,1.8,0,0,0,1,0,,,,,,,,,,,,,,,,,,,,
7083,0,,,246,249,238,233,,-0.04,0.02,0.98,-0,-0,-0,0.05,,69,499,25,32,99,0.67,0.0,126,4.89,11.8,0.0,1,30.0,8.08,1.8,0,0,0,1,0,,,,,,,,,,,,,,,,,,,,
7103,0,,,246,249,238,233,,-0.04,0.02,0.98,-0,-0,-0,0.05,,69,499,33,32,99,0.668,0.0,127,4.88,11.9,0.0,1,30.0,8.08,1.8,0,0,0,1,0,,,,,,,,,,,,,,,,,,,,
7123,0,,,246,249,238,233,,-0.04,0.02,0.97,-0,-0,-0,0.04,,69,476,42,33,99,0.665,0.0,124,4.86,11.6,0.0,1,30.0,2.09,1.8,0,0,0,1,0,,,,,,,,,,,,,,,,,,,,
7143,0,2,2,246,250,238,233,2,-0.04,0.02,0.98,-0,-0,-0,0.05,1,69,476,48,33,99,0.663,0.0,126,4.88,11.7,0.0,1,30.0,8.08,1.8,0,0,0,1,0,0,250,250,0,0.0,0.0,0.0,0.0,0,0,0.0,0,0.0,-1,0.0,,0.0,0,0.0,0.119
7163,0,,,246,249,238,233,,-0.04,0.02,0.97,-0,-0,0,0.05,,69,476,51,33,99,0.662,0.0,126,4.88,11.9,0.0,1,30.0,2.04,1.7,0,0,0,1,0,,,,,,,,,,,,,,,,,,,,
7183,0,,,246,249,238,233,,-0.04,0.02,0.98,-0,-0,-0,0.04,,69,464,54,33,99,0.661,0.0,125,4.88,11.4,0.0,1,30.0,8.08,1.7,0,0,0,1,0,,,,,,,,,,,,,,,,,,,,
7203,0,,,246,249,238,233,,-0.04,0.02,0.98,-0,-0,0,0.04,,69,464,55,33,99,0.659,0.0,126,4.88,11.7,0.0,1,30.0,8.08,1.7,0,0,0,1,0,,,,,,,,,,,,,,,,,,,,
7223,0,,,246,249,238,233,,-0.04,0.02,0.99,-0,-0,0,0.05,,69,464,55,33,99,0.658,0.0,126,4.88,11.8,0.0,1,30.0,8.08,1.7,0,0,0,1,0,,,,,,,,,,,,,,,,,,,,
7243,0,1,3,246,249,238,233,1,-0.04,0.03,1.0,-0,-0,0,0.05,1,69,473,55,33,99,0.657,0.0,126,4.9,11.5,0.0,1,30.0,2.04,1.7,0,0,0,1,0,0,250,250,0,0.0,0.0,0.0,0.0,0,0,0.0,0,0.0,-1,0.0,0.0,0.0,0,0.0,0.1207
7263,0,,,246,249,238,233,,-0.05,0.03,1.0,-0,-0,0,0.05,,69,473,55,33,99,0.657,0.0,126,4.88,11.7,0.0,1,30.0,8.08,1.7,0,0,0,1,0,,,,,,,,,,,,,,,,,,,,
7283,0,,,246,249,238,233,,-0.04,0.03,1.0,-0,-0,-0,0.05,,69,473,54,33,99,0.656,0.0,126,4.9,11.8,0.0,1,30.0,8.08,1.7,0,0,0,1,0,,,,,,,,,,,,,,,,,,,,
7303,0,,,246,249,238,233,,-0.04,0.03,1.01,-0,-0,-0,0.05,,69,476,46,33,99,0.656,0.0,127,4.85,11.8,0.0,1,30.0,7.96,1.7,0,0,0,1,0,,,,,,,,,,,,,,,,,,,,
7323,0,,,246,249,238,233,,-0.05,0.03,1.01,-0,-0,-0,0.05,,69,476,31,33,99,0.655,0.0,126,4.89,11.7,0.0,1,30.0,2.09,1.7,0,0,0,1,0,,,,,,,,,,,,,,,,,,,,
7343,0,1,1,246,249,238,233,1,-0.05,0.02,1.01,-0,-0,-0,0.05,1,69,476,18,33,99,0.654,0.0,126,4.88,11.8,0.0,1,30.0,4.01,1.7,0,0,0,1,0,0,250,250,0,0.0,0.0,0.0,0.0,0,0,0.0,0,0.0,-1,0.0,,0.0,0,0.0,0.1224
7363,0,,,246,249,238,233,,-0.05,0.02,1.0,-0,-0,-0,0.05,,69,476,4,33,99,0.653,0.0,126,4.85,11.9,0.0,1,14.5,7.96,1.7,0,0,0,1,0,,,,,,,,,,,,,,,,,,,,
7383,0,,,246,249,238,233,,-0.05,0.03,1.0,-0,-0,-0,0.05,,69,464,4,33,99,0.652,0.0,126,4.89,11.7,0.0,1,14.5,2.09,1.7,0,0,0,1,0,,,,,,,,,,,,,,,,,,,,
7403,0,,,246,249,238,233,,-0.05,0.02,0.99,-0,-0,-0,0.06,,69,464,4,33,99,0.651,0.0,126,4.88,11.7,0.0,1,14.5,7.96,1.7,0,0,0,1,0,,,,,,,,,,,,,,,,,,,,
7423,0,,,246,249,238,233,,-0.05,0.03,1.01,-0,-0,-0,0.06,,69,464,4,33,98,0.65,0.0,129,4.89,11.9,0.0,1,14.5,2.09,1.7,0,0,0,1,0,,,,,,,,,,,,,,,,,,,,
7443,0,-0,2,246,249,238,233,2,-0.05,0.02,1.01,-0,-0,-0,0.05,1,69,501,4,33,98,0.649,0.0,126,4.87,11.7,0.0,1,14.5,7.86,1.7,0,0,0,1,0,0,250,250,0,0.0,0.0,0.0,0.0,0,0,0.0,0,0.0,-1,0.0,0.0,0.0,0,0.0,0.124
7463,0,,,246,250,238,233,,-0.05,0.03,1.02,-0,-0,-0,0.05,,69,501,4,33,99,0.648,0.0,126,4.88,11.8,0.0,1,14.5,7.86,1.8,0,0,0,1,0,,,,,,,,,,,,,,,,,,,,
7483,0,,,246,250,238,233,,-0.05,0.02,1.02,-0,-0,-0,0.05,,69,501,8,33,98,0.647,0.0,129,4.88,11.9,0.0,1,14.5,7.86,1.8,0,0,0,1,0,,,,,,,,,,,,,,,,,,,,
7503,0,,,246,250,238,233,,-0.04,0.02,1.02,-0,-0,-0,0.05,,69,468,16,33,98,0.646,0.0,125,4.86,11.4,0.0,1,30.0,8.08,1.8,0,0,0,1,0,,,,,,,,,,,,,,,,,,,,
7523,0,,,246,250,238,233,,-0.05,0.02,1.02,-0,-0,-0,0.05,,69,468,29,33,99,0.645,0.0,126,4.88,11.7,0.0,1,30.0,8.08,1.8,0,0,0,1,0,,,,,,,,,,,,,,,,,,,,
7543,0,-1,2,246,249,238,233,3,-0.05,0.02,1.02,-0,-0,-0,0.06,1,69,468,40,33,99,0.644,0.0,129,4.9,11.8,0.0,1,30.0,6.86,1.8,0,0,0,1,0,0,250,250,0,0.0,0.0,0.0,0.0,0,0,0.0,0,0.0,-1,0.0,,0.0,0,0.0,0.1257
7563,0,,,246,249,238,233,,-0.05,0.02,1.02,-0,-0,-0,0.05,,69,481,48,33,99,0.644,0.0,125,4.88,11.4,0.0,1,30.0,6.86,1.5,0,0,0,1,0,,,,,,,,,,,,,,,,,,,,
7583,0,,,246,249,238,233,,-0.05,0.02,1.02,-0,0,-0,0.05,,69,481,52,33,99,0.643,0.0,126,4.89,11.7,0.0,1,30.0,6.86,1.5,0,0,0,1,0,,,,,,,,,,,,,,,,,,,,
7603,0,,,246,250,238,233,,-0.05,0.02,1.02,-0,0,-0,0.05,,69,481,55,33,99,0.643,0.0,129,4.89,11.9,0.0,1,30.0,6.86,1.5,0,0,0,1,0,,,,,,,,,,,,,,,,,,,,
7623,0,,,246,249,238,233,,-0.04,0.02,1.03,-0,0,-0,0.05,,69,533,55,33,99,0.643,0.0,128,4.88,11.9,0.0,1,30.0,6.86,1.5,0,0,0,1,0,,,,,,,,,,,,,,,,,,,,
7643,0,-1,2,246,249,238,233,3,-0.05,0.02,1.01,-0,0,-0,0.05,1,69,533,55,33,99,0.644,0.0,129,4.9,11.8,0.0,1,30.0,6.86,1.5,0,0,0,1,0,0,250,250,0,0.0,0.0,0.0,0.0,0,0,0.0,0,0.0,-1,0.0,0.0,0.0,0,0.0,0.1274
7663,0,,,246,250,238,233,,-0.05,0.02,1.01,-0,0,-0,0.05,,69,569,55,33,99,0.644,0.0,131,4.9,11.8,0.0,1,30.0,6.76,1.6,0,0,0,1,0,,,,,,,,,,,,,,,,,,,,
7683,0,,,246,249,238,233,,-0.04,0.02,1.01,-0,-0,-0,0.05,,69,569,45,33,99,0.644,0.0,129,4.89,11.7,0.0,1,30.0,2.09,1.6,0,0,0,1,0,,,,,,,,,,,,,,,,,,,,
7703,0,,,246,249,238,233,,-0.04,0.01,1.02,-0,0,-0,0.04,,69,569,26,33,99,0.645,0.0,130,4.89,11.9,0.0,1,30.0,2.09,1.6,0,0,0,1,0,,,,,,,,,,,,,,,,,,,,
7723,0,,,246,250,238,233,,-0.04,0.01,1.01,-0,0,-0,0.04,,69,538,5,33,98,0.644,0.0,129,4.87,11.6,0.0,1,16.3,6.76,1.6,0,0,0,1,0,,,,,,,,,,,,,,,,,,,,
7743,0,0,2,246,249,238,233,2,-0.04,0.01,1.0,-0,0,-0,0.04,1,69,538,4,33,99,0.644,0.0,128,4.89,11.7,0.0,1,16.3,6.76,1.6,0,0,0,1,0,0,250,250,0,0.0,0.0,0.0,0.0,0,0,0.0,0,0.0,-1,0.0,,0.0,0,0.0,0.129
7763,0,,,246,249,238,233,,-0.04,0.01,0.99,-0,0,-0,0.04,,69,538,4,33,98,0.645,0.0,131,4.9,12.0,0.0,1,16.3,5.89,1.6,0,0,0,1,0,,,,,,,,,,,,,,,,,,,,
7783,0,,,246,249,238,233,,-0.04,0.01,0.99,-0,-0,-0,0.04,,69,631,4,33,98,0.645,0.0,135,4.9,12.1,0.0,1,16.3,5.89,1.6,0,0,0,1,0,,,,,,,,,,,,,,,,,,,,
7803,0,,,246,249,238,233,,-0.04,0.01,0.97,-0,0,-0,0.04,,69,866,4,33,97,0.644,0.0,136,4.88,11.8,0.0,1,16.3,2.09,1.6,0,0,0,1,0,,,,,,,,,,,,,,,,,,,,
7823,0,,,246,249,238,233,,-0.05,0.01,0.97,-0,-0,-0,0.05,,69,866,12,33,98,0.646,0.0,137,4.9,12.2,0.0,1,16.3,5.89,1.6,0,0,0,1,0,,,,,,,,,,,,,,,,,,,,
7843,0,-1,2,246,249,238,233,2,-0.05,0.01,0.97,-0,-1,-0,0.05,1,69,756,32,33,98,0.646,0.0,136,4.85,11.8,0.0,1,30.0,2.09,1.6,0,0,0,1,0,0,250,250,0,0.0,0.0,0.0,0.0,0,0,0.0,0,0.0,-1,0.0,0.0,0.0,0,0.0,0.1307
7863,0,,,246,249,238,233,,-0.05,0.02,0.98,-0,-1,-0,0.06,,69,756,54,33,99,0.647,0.0,137,4.91,12.2,0.0,1,30.0,6.04,2.1,0,0,0,1,0,,,,,,,,,,,,,,,,,,,,
7883,0,,,246,250,238,233,,-0.05,0.02,0.98,-0,-1,-0,0.06,,69,756,66,33,99,0.647,0.0,137,4.91,12.2,0.0,1,30.0,6.04,2.1,0,0,0,1,0,,,,,,,,,,,,,,,,,,,,
7903,0,,,246,250,238,233,,-0.05,0.01,0.96,-0,-1,-0,0.06,,69,556,70,33,99,0.645,0.0,131,4.86,11.7,0.0,1,30.0,6.04,2.1,0,0,0,1,0,,,,,,,,,,,,,,,,,,,,
7923,0,,,246,249,238,233,,-0.05,0.02,0.97,-0,-1,-0,0.05,,69,556,71,33,99,0.647,0.0,132,4.9,12.0,0.0,1,30.0,2.09,2.1,0,0,0,1,0,,,,,,,,,,,,,,,,,,,,
7943,0,-0,3,246,249,238,233,2,-0.05,0.02,0.96,-0,-1,-0,0.05,1,69,556,71,33,99,0.647,0.0,132,4.9,12.0,0.0,1,30.0,2.09,2.1,0,0,0,1,0,0,250,250,0,0.0,0.0,0.0,0.0,0,0,0.0,0,0.0,-1,0.0,,0.0,0,0.0,0.1324
7963,0,,,246,249,238,233,,-0.05,0.02,0.93,-0,-0,-0,0.06,,69,551,71,33,99,0.645,0.0,132,4.89,11.9,0.0,1,30.0,6.04,1.5,0,0,0,1,0,,,,,,,,,,,,,,,,,,,,
7983,0,,,246,250,238,233,,-0.05,0.02,0.95,-0,-1,-0,0.05,,69,551,59,33,99,0.647,0.0,132,4.91,12.0,0.0,1,30.0,2.09,1.5,0,0,0,1,0,,,,,,,,,,,,,,,,,,,,
8003,0,,,246,249,238,233,,-0.05,0.02,0.95,-0,-0,-0,0.05,,69,774,40,33,99,0.647,0.0,141,4.9,12.2,0.0,1,30.0,6.04,1.5,0,0,0,1,0,,,,,,,,,,,,,,,,,,,,
8023,0,,,246,250,238,233,,-0.05,0.02,0.97,-0,-0,-0,0.05,,69,1299,17,33,99,0.645,0.0,143,4.88,11.9,0.0,1,32.3,2.09,1.5,0,0,0,1,0,,,,,,,,,,,,,,,,,,,,
8043,0,0,1,246,250,238,233,2,-0.04,0.02,0.98,-0,-0,-0,0.05,1,69,1199,4,33,97,0.639,0.0,142,4.86,11.6,0.0,1,16.3,3.56,1.5,0,0,0,1,0,0,250,250,0,0.0,0.0,0.0,0.0,0,0,0.0,0,0.0,-1,0.0,0.0,0.0,0,0.0,0.134
8063,0,,,246,250,237,233,,-0.04,0.02,0.97,-0,-0,-0,0.05,,69,1029,4,33,96,0.632,0.0,140,4.77,11.4,0.0,1,16.3,3.56,1.9,0,0,0,1,0,,,,,,,,,,,,,,,,,,,,
8083,0,,,246,249,238,233,,-0.04,0.02,0.97,-0,-0,-0,0.05,,69,1029,4,33,96,0.622,0.0,137,4.8,11.3,0.0,1,16.3,3.56,1.9,0,0,0,1,0,,,,,,,,,,,,,,,,,,,,
8103,0,,,246,250,237,233,,-0.04,0.02,0.96,-0,-0,-0,0.05,,70,819,3,33,95,0.612,0.0,131,4.8,11.0,0.0,1,16.3,2.09,1.9,0,0,0,1,0,,,,,,,,,,,,,,,,,,,,
8123,0,,,246,250,238,233,,-0.04,0.02,0.95,-0,-0,-0,0.05,,70,819,3,33,96,0.601,0.0,126,4.76,10.9,0.0,1,16.3,2.09,1.9,0,0,0,1,0,,,,,,,,,,,,,,,,,,,,
8143,0,2,3,246,249,238,233,2,-0.04,0.02,0.96,-0,-0,-0,0.04,1,70,819,3,33,96,0.59,0.0,123,4.77,10.9,0.0,1,16.3,2.09,1.9,0,0,0,1,0,0,250,250,0,0.0,0.0,0.0,0.0,0,0,0.0,0,0.0,-1,0.0,,0.0,0,0.0,0.1357
8163,0,,,246,250,238,233,,-0.03,0.02,0.98,-0,-0,-0,0.03,,69,550,4,33,96,0.581,0.0,126,4.8,11.0,0.0,1,16.3,3.59,0.9,0,0,0,1,0,,,,,,,,,,,,,,,,,,,,
8183,0,,,246,249,238,233,,-0.03,0.02,0.96,-0,-0,-0,0.04,,69,550,4,33,98,0.571,0.0,123,4.79,10.2,0.0,1,16.3,2.09,0.9,0,0,0,1,0,,,,,,,,,,,,,,,,,,,,
8203,0,,,247,250,238,233,,-0.03,0.01,0.97,-0,-1,-0,0.03,,69,679,4,33,97,0.564,0.0,130,4.75,10.9,0.0,1,16.3,2.09,0.9,0,0,0,1,0,,,,,,,,,,,,,,,,,,,,
8223,0,,,246,250,238,233,,-0.03,0.01,0.97,-0,-0,-0,0.04,,69,679,4,33,97,0.557,0.0,132,4.8,11.1,0.0,1,28.6,3.59,0.9,0,0,0,1,0,,,,,,,,,,,,,,,,,,,,
8243,0,6,7,246,250,238,233,2,-0.04,0.01,0.94,-0,-0,-0,0.05,1,69,1036,4,33,97,0.554,0.0,140,4.85,11.6,0.0,1,17.3,3.59,0.9,0,0,0,1,0,0,250,250,0,0.0,0.0,0.0,0.0,0,0,0.0,0,0.0,-1,0.0,0.0,0.0,0,0.0,0.1374
8263,0,,,246,249,238,233,,-0.05,0.02,0.92,-0,0,-0,0.05,,69,1169,4,33,97,0.553,0.0,151,4.9,12.1,0.0,1,29.9,3.59,1.9,0,0,0,1,0,,,,,,,,,,,,,,,,,,,,
8283,0,,,246,250,238,233,,-0.04,0.03,0.91,-0,-0,-0,0.05,,69,1640,4,33,96,0.555,0.0,161,4.88,12.2,0.0,1,31.2,3.59,1.9,0,0,0,1,0,,,,,,,,,,,,,,,,,,,,
8303,0,,,246,250,238,233,,-0.04,0.03,0.9,-0,-0,0,0.05,,69,1855,4,33,95,0.559,0.0,171,4.9,12.2,0.0,1,17.3,3.59,1.9,0,0,0,1,0,,,,,,,,,,,,,,,,,,,,
8323,0,,,246,250,237,233,,-0.04,0.03,0.93,-0,-0,-0,0.05,,69,1651,6,33,94,0.567,0.0,178,4.88,12.0,0.0,1,17.3,3.59,1.9,0,0,0,1,0,,,,,,,,,,,,,,,,,,,,
8343,0,9,6,246,250,238,233,2,-0.04,0.03,0.91,-0,-1,0,0.05,1,69,1598,12,33,94,0.575,0.0,180,4.88,12.0,0.0,1,17.3,6.04,1.9,0,0,0,1,0,0,250,250,0,0.0,0.0,0.0,0.0,0,0,0.0,0,0.0,-1,0.0,,0.0,0,0.0,0.1391
8363,0,,,246,250,238,233,,-0.04,0.04,0.94,-0,-0,0,0.06,,69,1773,24,33,96,0.586,0.0,189,4.86,12.3,0.0,1,31.2,6.04,4.9,0,0,0,1,0,,,,,,,,,,,,,,,,,,,,
8383,0,,,247,250,238,233,,-0.04,0.02,0.92,-0,-0,0,0.04,,69,2041,41,33,99,0.596,0.0,203,4.89,12.5,0.0,1,34.0,6.04,4.9,0,0,0,1,0,,,,,,,,,,,,,,,,,,,,
8403,0,,,246,250,238,233,,-0.04,0.02,0.9,-0,-1,0,0.04,,69,2180,53,33,98,0.603,0.0,213,4.87,12.3,0.0,1,34.0,5.96,4.9,0,0,0,1,0,,,,,,,,,,,,,,,,,,,,
8423,0,,,247,250,238,233,,-0.03,0.0,0.83,-0,-0,0,0.03,,69,2314,61,33,99,0.612,0.0,227,4.9,12.6,0.0,1,34.0,5.96,4.9,0,0,0,1,0,,,,,,,,,,,,,,,,,,,,
8443,0,6,7,246,250,238,233,2,-0.02,0.01,0.83,-0,-2,0,0.02,1,69,2822,64,33,99,0.621,0.0,254,4.91,12.6,0.0,1,32.1,6.99,4.9,0,0,0,1,0,0,250,250,0,0.0,0.0,0.0,0.0,0,0,0.0,0,0.0,-1,0.0,0.0,0.0,0,0.0,0.1407
8463,0,,,246,250,237,233,,-0.05,0.01,0.79,-0,-2,0,0.05,,69,3527,64,33,99,0.627,0.0,293,4.87,12.5,0.0,1,31.2,8.63,12.2,0,0,0,1,0,,,,,,,,,,,,,,,,,,,,
8483,0,,,247,250,238,233,,-0.02,-0.03,0.73,-0,-3,0,0.03,,69,3993,64,33,99,0.632,0.0,350,4.84,12.6,0.0,1,35.8,8.49,12.2,0,0,0,1,0,,,,,,,,,,,,,,,,,,,,
8503,0,,,246,249,238,233,,0.02,-0.05,0.67,-0,-2,-0,0.05,,69,4564,65,33,98,0.634,0.0,428,4.82,12.6,0.0,1,39.8,7.75,12.2,0,0,0,1,0,,,,,,,,,,,,,,,,,,,,
8523,0,,,247,250,238,233,,-0.06,-0.06,0.62,-0,2,3,0.08,,69,5227,58,33,98,0.632,0.0,537,4.82,12.4,0.0,1,42.2,7.75,12.2,0,0,0,1,0,,,,,,,,,,,,,,,,,,,,
8543,0,7,5,246,250,238,233,1,0.04,-0.1,0.88,-0,-2,-0,0.1,1,69,5778,43,33,97,0.634,0.0,605,4.87,12.9,0.0,1,40.4,3.98,12.2,0,0,0,1,0,0,250,250,0,0.0,0.0,0.0,0.0,0,0,0.0,0,0.0,-1,0.0,,0.0,0,0.0,0.1424
8563,0,,,246,250,238,233,,-0.04,-0.12,0.81,-0,-1,0,0.13,,69,6456,23,33,94,0.633,0.0,642,4.8,12.7,0.0,1,44.3,3.76,25.5,0,0,0,1,0,,,,,,,,,,,,,,,,,,,,
8583,0,,,246,250,238,233,,-0.06,-0.09,0.88,-0,-0,1,0.11,,69,6618,5,33,88,0.631,0.0,654,4.77,12.8,0.0,1,45.0,7.33,25.5,0,0,0,1,0,,,,,,,,,,,,,,,,,,,,
8603,0,,,247,250,238,233,,-0.06,-0.1,0.81,-0,-4,-3,0.11,,69,6467,4,33,81,0.63,0.0,646,4.9,12.8,0.0,1,41.1,3.04,25.5,0,0,0,1,0,,,,,,,,,,,,,,,,,,,,
8623,0,,,247,250,238,233,,-0.13,-0.09,0.75,-0,-2,-2,0.16,,69,6390,4,33,75,0.629,0.0,647,4.83,12.7,0.0,1,39.0,2.84,25.5,0,0,0,1,0,,,,,,,,,,,,,,,,,,,,
8643,0,6,4,246,250,237,233,3,-0.13,-0.08,0.89,-0,2,2,0.15,1,69,6294,4,33,71,0.627,0.0,657,4.82,13.0,0.0,1,37.6,5.7,25.5,0,0,0,1,0,0,250,250,0,0.0,0.0,0.0,0.0,0,0,0.0,0,0.0,-1,0.0,0.0,0.0,0,0.0,0.144
8663,0,,,247,250,237,233,,-0.1,-0.07,1.12,-0,4,4,0.12,,69,6109,4,33,68,0.627,0.0,650,4.85,12.9,0.0,1,36.0,5.19,14.9,0,0,0,1,0,,,,,,,,,,,,,,,,,,,,
8683,0,,,246,250,237,233,,-0.08,-0.06,1.35,-0,7,5,0.1,,69,5922,4,33,65,0.626,0.0,641,4.86,12.9,0.0,1,34.9,4.24,14.9,0,0,0,1,0,,,,,,,,,,,,,,,,,,,,
8703,0,,,247,250,238,233,,-0.11,-0.04,1.38,0,13,10,0.12,,69,5730,4,33,63,0.625,0.0,635,4.83,12.7,0.0,1,34.4,4.03,14.9,0,0,0,1,0,,,,,,,,,,,,,,,,,,,,
8723,0,,,246,249,237,233,,-0.2,-0.05,1.27,-0,15,12,0.2,,69,5587,4,33,62,0.623,0.0,633,4.82,12.9,0.0,1,34.2,1.45,14.9,0,0,0,1,0,,,,,,,,,,,,,,,,,,,,
8743,0,5,6,246,250,238,233,2,-0.05,-0.09,1.48,-0,6,4,0.1,1,69,5392,4,33,62,0.624,0.0,631,4.93,13.1,0.0,1,34.2,1.54,14.9,0,0,0,1,0,0,250,250,0,0.0,0.0,0.0,0.0,0,0,0.0,0,0.0,-1,0.0,,0.0,0,0.0,0.1457
8763,0,,,246,250,238,233,,-0.11,-0.1,1.59,-0,11,9,0.15,,69,5196,4,33,61,0.623,0.0,621,4.86,12.8,0.0,1,34.0,3.77,9.1,0,0,0,1,0,,,,,,,,,,,,,,,,,,,,
8783,0,,,246,250,238,233,,-0.03,-0.11,1.48,-0,5,3,0.11,,69,5049,4,33,61,0.624,0.0,625,4.92,13.1,0.0,1,34.0,3.95,9.1,0,0,0,1,0,,,,,,,,,,,,,,,,,,,,
8803,0,,,246,250,238,233,,-0.04,-0.13,1.37,-0,7,6,0.13,,69,4904,4,33,61,0.624,0.0,603,4.85,13.0,0.0,1,32.7,1.66,9.1,0,0,0,1,0,,,,,,,,,,,,,,,,,,,,
8823,0,,,246,250,238,233,,-0.07,-0.11,1.44,-0,7,6,0.13,,69,4757,4,32,61,0.625,0.0,583,4.83,13.0,0.0,1,30.8,3.8,9.1,0,0,0,1,0,,,,,,,,,,,,,,,,,,,,
8843,0,5,5,246,250,238,233,2,-0.11,-0.1,1.45,-0,8,6,0.15,1,69,4559,4,32,60,0.626,0.0,576,4.85,12.7,0.0,1,27.9,1.52,9.1,0,0,0,1,0,0,250,250,0,0.0,0.0,0.0,0.0,0,0,0.0,0,0.0,-1,0.0,0.0,0.0,0,0.0,0.1474
8863,0,,,246,250,238,233,,-0.12,-0.1,1.41,-0,8,7,0.16,,69,4457,4,32,60,0.627,0.0,550,4.85,12.8,0.0,1,26.5,1.46,7.3,0,0,0,1,0,,,,,,,,,,,,,,,,,,,,
8883,0,,,246,250,238,233,,-0.12,-0.13,1.3,0,8,8,0.17,,69,4339,4,32,61,0.63,0.0,541,4.87,13.1,0.0,1,25.3,3.47,7.3,0,0,0,1,0,,,,,,,,,,,,,,,,,,,,
8903,0,,,246,250,238,233,,-0.09,-0.17,1.2,0,8,7,0.19,,69,4185,4,32,61,0.632,0.0,507,4.89,13.1,0.0,1,23.3,3.36,7.3,0,0,0,1,0,,,,,,,,,,,,,,,,,,,,
8923,0,,,246,250,238,233,,-0.09,-0.16,1.22,-0,7,6,0.18,,69,4029,4,32,61,0.633,0.0,500,4.86,13.1,0.0,1,21.2,3.27,7.3,0,0,0,1,0,,,,,,,,,,,,,,,,,,,,
8943,0,6,6,246,250,238,233,3,-0.1,-0.14,1.29,-0,6,6,0.17,1,69,3914,11,32,62,0.633,0.0,468,4.82,12.8,0.0,1,0.0,3.85,7.3,0,0,0,1,0,0,250,250,0,0.0,0.0,0.0,0.0,0,0,0.0,0,0.0,-1,0.0,,0.0,0,0.0,0.149
8963,0,,,247,248,238,233,,-0.07,-0.17,1.19,-0,5,5,0.18,,69,3865,23,32,68,0.635,0.0,455,4.88,13.1,0.0,1,21.1,4.23,7.4,0,0,0,1,0,,,,,,,,,,,,,,,,,,,,
8983,0,,,247,249,238,233,,-0.08,-0.16,1.29,-0,4,5,0.18,,69,3736,36,32,80,0.636,0.0,443,4.86,12.7,0.0,1,23.1,1.91,7.4,0,0,0,1,0,,,,,,,,,,,,,,,,,,,,
9003,0,,,246,248,238,233,,-0.04,-0.15,1.19,-0,4,4,0.15,,69,3755,45,32,93,0.635,0.0,433,4.89,13.1,0.0,1,28.9,6.93,7.4,0,0,0,1,0,,,,,,,,,,,,,,,,,,,,
9023,0,,,247,250,237,233,,-0.05,-0.12,1.36,-0,3,4,0.13,,69,4172,48,32,97,0.636,0.0,446,4.87,12.8,0.0,1,36.2,7.39,7.4,0,0,0,1,0,,,,,,,,,,,,,,,,,,,,
9043,0,6,5,246,250,237,233,2,-0.02,-0.1,1.56,-0,1,2,0.1,1,69,4681,49,32,97,0.637,0.0,514,4.86,12.9,0.0,1,40.2,7.03,7.4,0,0,0,1,0,0,250,250,0,0.0,0.0,0.0,0.0,0,0,0.0,0,0.0,-1,0.0,0.0,0.0,0,0.0,0.1507
9063,0,,,246,247,237,233,,-0.02,-0.12,1.44,-0,1,2,0.12,,69,5209,49,32,97,0.637,0.0,576,4.85,13.0,0.0,1,42.2,3.19,16.3,0,0,0,1,0,,,,,,,,,,,,,,,,,,,,
9083,0,,,246,248,237,233,,0.06,-0.07,1.64,-0,-6,-4,0.1,,69,5898,49,32,97,0.637,0.0,630,4.8,13.0,0.0,1,40.1,9.27,16.3,0,0,0,1,0,,,,,,,,,,,,,,,,,,,,
9103,0,,,246,250,238,233,,0.03,-0.06,1.51,-0,-7,-6,0.06,,69,6508,46,32,96,0.638,0.0,644,4.86,13.0,0.0,1,44.9,8.63,16.3,0,0,0,1,0,,,,,,,,,,,,,,,,,,,,
9123,0,,,247,250,238,233,,0.05,-0.06,1.7,-0,-7,-6,0.08,,69,7225,37,32,95,0.638,0.0,661,4.85,13.0,0.0,1,46.8,3.59,16.3,0,0,0,1,0,,,,,,,,,,,,,,,,,,,,
9143,0,6,5,247,250,238,233,2,0.05,-0.09,1.67,-0,-6,-4,0.1,1,69,7315,21,32,91,0.638,0.0,665,4.83,13.0,0.0,1,45.6,3.5,16.3,0,0,0,1,0,0,250,250,0,0.0,0.0,0.0,0.0,0,0,0.0,0,0.0,-1,0.0,,0.0,0,0.0,0.1524
9163,0,,,246,250,238,233,,0.05,-0.09,1.8,-0,-6,-4,0.1,,69,7479,9,32,84,0.638,0.0,663,4.85,13.0,0.0,1,41.1,7.42,25.4,0,0,0,1,0,,,,,,,,,,,,,,,,,,,,
9183,0,,,246,250,238,233,,0.05,-0.08,1.97,-0,-6,-5,0.09,,69,7606,4,32,76,0.638,0.0,670,4.84,13.0,0.0,1,40.6,6.66,25.4,0,0,0,1,0,,,,,,,,,,,,,,,,,,,,
9203,0,,,246,250,238,233,,0.05,-0.09,2.07,-0,-5,-4,0.1,,69,7503,4,32,69,0.638,0.0,670,4.79,13.0,0.0,1,39.6,2.46,25.4,0,0,0,1,0,,,,,,,,,,,,,,,,,,,,
9223,0,,,246,249,238,233,,0.05,-0.1,1.92,-0,-4,-3,0.11,,69,7281,4,32,65,0.639,0.0,664,4.81,13.0,0.0,1,39.2,4.68,25.4,0,0,0,1,0,,,,,,,,,,,,,,,,,,,,
9243,0,4,6,246,250,238,233,3,0.01,-0.05,1.77,-0,-3,-2,0.05,1,69,7056,4,32,62,0.64,0.0,658,4.79,12.8,0.0,1,38.6,4.11,25.4,0,0,0,1,0,0,250,250,0,0.0,0.0,0.0,0.0,0,0,0.0,0,0.0,-1,0.0,0.0,0.0,0,0.0,0.154
9263,0,,,246,249,238,233,,0.05,-0.05,1.89,-0,-5,-4,0.07,,69,6878,4,32,60,0.641,0.0,658,4.9,13.0,0.0,1,37.3,3.45,11.4,0,0,0,1,0,,,,,,,,,,,,,,,,,,,,
9283,0,,,247,250,238,233,,-0.01,-0.03,1.74,-0,-2,-1,0.03,,69,6651,4,32,58,0.641,0.0,654,4.78,13.0,0.0,1,35.9,3.27,11.4,0,0,0,1,0,,,,,,,,,,,,,,,,,,,,
9303,0,,,246,250,238,233,,0.05,-0.01,1.91,-0,-2,-2,0.05,,69,6461,4,32,58,0.643,0.0,654,4.92,13.1,0.0,1,35.1,1.17,11.4,0,0,0,1,0,,,,,,,,,,,,,,,,,,,,
9323,0,,,246,250,238,233,,0.1,-0.02,2.07,-0,-6,-6,0.1,,69,6268,4,32,57,0.645,0.0,648,4.93,13.0,0.0,1,34.1,1.13,11.4,0,0,0,1,0,,,,,,,,,,,,,,,,,,,,
9343,0,6,6,246,249,238,233,2,0.11,-0.02,1.91,-0,-9,-9,0.11,1,69,6067,4,32,56,0.646,0.0,641,4.88,12.9,0.0,1,33.2,1.11,11.4,0,0,0,1,0,0,250,250,0,0.0,0.0,0.0,0.0,0,0,0.0,0,0.0,-1,0.0,,0.0,0,0.0,0.1557
9363,0,,,246,249,238,233,,0.16,-0.02,2.07,-0,-14,-13,0.16,,69,5866,4,32,55,0.649,0.0,636,4.87,13.0,0.0,1,32.6,1.21,8.5,0,0,0,1,0,,,,,,,,,,,,,,,,,,,,
9383,0,,,246,250,237,233,,0.22,0.03,2.22,-0,-19,-17,0.22,,69,5664,4,32,55,0.653,0.0,637,4.9,13.1,0.0,1,32.5,3.33,8.5,0,0,0,1,0,,,,,,,,,,,,,,,,,,,,
9403,0,,,246,250,237,233,,0.15,0.07,2.36,-0,-11,-12,0.16,,69,5464,4,32,55,0.655,0.0,631,4.79,12.7,0.0,1,32.3,3.54,8.5,0,0,0,1,0,,,,,,,,,,,,,,,,,,,,
9423,0,,,246,250,237,233,,0.12,-0.01,2.17,-0,-9,-10,0.13,,69,5314,5,32,55,0.655,0.0,621,4.91,13.1,0.0,1,32.2,3.66,8.5,0,0,0,1,0,,,,,,,,,,,,,,,,,,,,
9443,0,6,4,247,250,238,233,3,0.1,0.02,2.31,-0,-9,-11,0.1,1,69,5117,5,32,56,0.658,0.0,617,4.89,13.0,0.0,1,32.4,3.85,8.5,0,0,0,1,0,0,250,250,0,0.0,0.0,0.0,0.0,0,0,0.0,0,0.0,-1,0.0,0.0,0.0,0,0.0,0.1574
9463,0,,,247,249,238,233,,0.12,-0.02,2.14,-0,-10,-12,0.12,,69,4966,5,32,56,0.66,0.0,620,4.9,13.1,0.0,1,31.9,3.88,9.1,0,0,0,1,0,,,,,,,,,,,,,,,,,,,,
9483,0,,,246,249,237,233,,0.12,-0.04,1.97,-0,-7,-9,0.13,,69,4818,10,32,57,0.661,0.0,589,4.85,13.0,0.0,1,30.4,1.65,9.1,0,0,0,1,0,,,,,,,,,,,,,,,,,,,,
9503,0,,,246,250,238,233,,0.08,-0.05,1.82,-0,-7,-7,0.1,,69,4668,15,32,60,0.661,0.0,576,4.82,12.9,0.0,1,28.7,1.54,9.1,0,0,0,1,0,,,,,,,,,,,,,,,,,,,,
9523,0,,,247,250,238,233,,0.04,-0.07,1.68,-0,-4,-5,0.08,,69,4598,24,32,67,0.661,0.0,560,4.86,12.8,0.0,1,30.3,1.83,9.1,0,0,0,1,0,,,,,,,,,,,,,,,,,,,,
9543,0,5,6,247,250,237,233,2,-0.01,-0.05,1.83,-0,-3,-4,0.05,1,69,4813,31,32,77,0.663,0.0,561,4.9,12.8,0.0,1,36.0,5.57,9.1,0,0,0,1,0,0,250,250,0,0.0,0.0,0.0,0.0,0,0,0.0,0,0.0,-1,0.0,,0.0,0,0.0,0.159
9563,0,,,246,250,237,233,,0.03,-0.02,1.99,-0,-6,-6,0.04,,69,5028,36,32,87,0.664,0.0,587,4.9,13.1,0.0,1,41.8,6.17,13.9,0,0,0,1,0,,,,,,,,,,,,,,,,,,,,
9583,0,,,246,250,237,233,,-0.06,-0.01,1.84,-0,1,1,0.06,,69,5570,39,32,92,0.662,0.0,607,4.85,13.0,0.0,1,41.1,7.77,13.9,0,0,0,1,0,,,,,,,,,,,,,,,,,,,,
9603,0,,,247,250,238,233,,-0.11,-0.02,1.7,-1,1,-0,0.11,,69,6165,40,32,94,0.661,0.0,630,4.84,13.0,0.0,1,41.3,8.95,13.9,0,0,0,1,0,,,,,,,,,,,,,,,,,,,,
9623,0,,,246,249,238,233,,-0.11,-0.01,1.57,-0,3,1,0.11,,69,6739,40,32,94,0.659,0.0,650,4.82,13.0,0.0,1,47.3,8.07,13.9,0,0,0,1,0,,,,,,,,,,,,,,,,,,,,
9643,0,6,6,246,250,238,233,3,-0.11,0.05,1.52,-0,3,1,0.13,1,69,7384,40,32,94,0.656,0.0,663,4.85,12.8,0.0,1,44.5,8.37,13.9,0,0,0,1,0,0,250,250,0,0.0,0.0,0.0,0.0,0,0,0.0,0,0.0,-1,0.0,0.0,0.0,0,0.0,0.1607
9663,0,,,247,250,238,233,,-0.1,0.08,1.45,-0,4,2,0.13,,69,7757,37,32,93,0.657,0.0,671,4.84,12.8,0.0,1,39.3,8.91,30.1,0,0,0,1,0,,,,,,,,,,,,,,,,,,,,
9683,0,,,247,249,238,233,,-0.1,0.05,1.49,-0,3,1,0.12,,69,8351,29,32,89,0.654,0.0,677,4.77,12.9,0.0,1,41.1,4.7,30.1,0,0,0,1,0,,,,,,,,,,,,,,,,,,,,
9703,0,,,246,250,238,233,,-0.12,-0.03,1.68,-1,2,-2,0.12,,69,8941,21,32,82,0.653,0.0,696,4.82,12.9,0.0,1,39.7,4.01,30.1,0,0,0,1,0,,,,,,,,,,,,,,,,,,,,
9723,0,,,246,250,238,233,,-0.14,-0.11,1.82,-1,2,-4,0.17,,69,8852,15,32,75,0.651,0.0,696,4.76,12.8,0.0,1,41.8,3.14,30.1,0,0,0,1,0,,,,,,,,,,,,,,,,,,,,
9743,0,6,5,247,250,238,233,2,-0.14,-0.08,1.79,-1,1,-3,0.16,1,69,8612,10,32,69,0.649,0.0,697,4.92,12.9,0.0,1,42.8,2.66,30.1,0,0,0,1,0,0,250,250,0,0.0,0.0,0.0,0.0,0,0,0.0,0,0.0,-1,0.0,,0.0,0,0.0,0.1624
9763,0,,,246,250,238,233,,-0.12,-0.06,1.65,-0,2,-1,0.13,,69,8419,9,32,65,0.648,0.0,686,4.83,12.9,0.0,1,42.9,2.35,21.7,0,0,0,1,0,,,,,,,,,,,,,,,,,,,,
9783,0,,,246,250,238,233,,-0.1,-0.06,1.68,-0,1,-3,0.12,,69,8180,9,32,61,0.648,0.0,682,4.8,13.0,0.0,1,40.1,4.1,21.7,0,0,0,1,0,,,,,,,,,,,,,,,,,,,,
9803,0,,,246,249,237,233,,-0.09,-0.09,1.7,-0,-0,-3,0.13,,69,7982,9,32,58,0.648,0.0,680,4.83,12.9,0.0,1,37.4,3.52,21.7,0,0,0,1,0,,,,,,,,,,,,,,,,,,,,
9823,0,,,246,250,238,233,,-0.1,-0.07,1.57,-0,-0,-2,0.12,,69,7735,9,32,56,0.648,0.0,669,4.88,12.8,0.0,1,37.0,1.31,21.7,0,0,0,1,0,,,,,,,,,,,,,,,,,,,,
9843,0,6,5,247,250,238,233,2,-0.11,-0.02,1.51,-0,0,-2,0.11,1,69,7569,9,32,56,0.648,0.0,669,4.92,12.9,0.0,1,36.9,3.31,21.7,0,0,0,1,0,0,250,250,0,0.0,0.0,0.0,0.0,0,0,0.0,0,0.0,-1,0.0,0.0,0.0,0,0.0,0.164
9863,0,,,247,250,238,233,,-0.12,0.01,1.39,-0,1,-2,0.12,,69,7318,9,32,55,0.648,0.0,666,4.86,12.8,0.0,1,36.4,1.22,10.9,0,0,0,1,0,,,,,,,,,,,,,,,,,,,,
9883,0,,,246,250,237,233,,-0.09,-0.01,1.45,-0,-0,-3,0.09,,69,7145,9,32,55,0.648,0.0,668,4.91,12.9,0.0,1,36.3,1.18,10.9,0,0,0,1,0,,,,,,,,,,,,,,,,,,,,
9903,0,,,247,248,237,233,,-0.08,0.02,1.53,-0,-0,-2,0.08,,69,6926,9,32,55,0.649,0.0,666,4.85,13.1,0.0,1,35.9,1.15,10.9,0,0,0,1,0,,,,,,,,,,,,,,,,,,,,
9923,0,,,247,249,238,233,,-0.1,-0.01,1.41,-0,-0,-3,0.1,,69,6781,9,32,55,0.651,0.0,660,4.9,13.0,0.0,1,35.4,1.14,10.9,0,0,0,1,0,,,,,,,,,,,,,,,,,,,,
9943,0,5,5,246,249,237,233,2,-0.08,0.03,1.51,-0,0,-2,0.09,1,69,6715,9,32,55,0.653,0.0,660,4.78,13.0,0.0,1,35.2,2.93,10.9,0,0,0,1,0,0,250,250,0,0.0,0.0,0.0,0.0,0,0,0.0,0,0.0,-1,0.0,,0.0,0,0.0,0.1657
9963,0,,,247,249,238,233,,-0.04,0.01,1.7,-0,-3,-4,0.04,,69,6588,9,32,55,0.656,0.0,647,4.9,12.9,0.0,1,34.7,2.89,8.9,0,0,0,1,0,,,,,,,,,,,,,,,,,,,,
9983,0,,,246,249,238,233,,-0.1,0.02,1.57,-0,1,-0,0.1,,69,6648,9,32,55,0.657,0.0,656,4.77,13.0,0.0,1,35.0,2.88,8.9,0,0,0,1,0,,,,,,,,,,,,,,,,,,,,
10003,0,,,246,250,238,233,,-0.05,0.0,1.76,-0,-2,-3,0.05,,69,6798,9,32,55,0.66,0.0,653,4.92,13.0,0.0,1,35.5,1.15,8.9,0,0,0,1,0,,,,,,,,,,,,,,,,,,,,
10023,0,,,246,250,237,233,,-0.08,0.03,1.62,-0,0,-1,0.08,,69,6843,9,32,54,0.66,0.0,655,4.8,12.8,0.0,1,35.3,2.8,8.9,0,0,0,1,0,,,,,,,,,,,,,,,,,,,,
10043,0,6,6,246,250,238,233,2,-0.06,0.02,1.63,-0,-0,-1,0.06,1,69,6908,9,32,54,0.661,0.0,661,4.93,12.9,0.0,1,35.5,1.12,8.9,0,0,0,1,0,0,250,250,0,0.0,0.0,0.0,0.0,0,0,0.0,0,0.0,-1,0.0,0.0,0.0,0,0.0,0.1674
10063,0,,,247,248,237,233,,-0.02,0.04,1.8,-0,-1,-3,0.04,,69,6970,9,32,54,0.662,0.0,663,4.9,13.1,0.0,1,35.8,2.75,8.8,0,0,0,1,0,,,,,,,,,,,,,,,,,,,,
10083,0,,,247,250,238,233,,-0.07,0.03,1.66,-0,1,-0,0.08,,69,7051,9,32,54,0.662,0.0,666,4.84,12.8,0.0,1,35.9,2.74,8.8,0,0,0,1,0,,,,,,,,,,,,,,,,,,,,
10103,0,,,246,250,237,233,,-0.07,0.03,1.53,-0,1,-1,0.08,,69,7126,9,32,53,0.663,0.0,663,4.92,13.0,0.0,1,35.6,2.71,8.8,0,0,0,1,0,,,,,,,,,,,,,,,,,,,,
10123,0,,,246,248,238,233,,-0.05,0.01,1.7,-0,-1,-2,0.05,,69,7151,9,32,53,0.664,0.0,667,4.95,13.0,0.0,1,35.6,1.14,8.8,0,0,0,1,0,,,,,,,,,,,,,,,,,,,,
10143,0,6,4,247,248,238,233,3,-0.03,0.01,1.75,-0,-1,-3,0.03,1,69,7247,9,32,53,0.665,0.0,670,4.92,13.1,0.0,1,35.8,2.27,8.8,0,0,0,1,0,0,250,250,0,0.0,0.0,0.0,0.0,0,0,0.0,0,0.0,-1,0.0,,0.0,0,0.0,0.169
10163,0,,,246,249,238,233,,-0.02,0.03,1.81,-0,-2,-3,0.04,,69,7332,9,32,52,0.665,0.0,671,4.85,13.1,0.0,1,35.6,2.29,7.7,0,0,0,1,0,,,,,,,,,,,,,,,,,,,,
10183,0,,,246,250,238,233,,-0.03,0.02,1.67,-0,-1,-2,0.04,,69,7393,9,32,52,0.665,0.0,671,4.85,12.8,0.0,1,35.8,2.31,7.7,0,0,0,1,0,,,,,,,,,,,,,,,,,,,,
10203,0,,,247,250,238,233,,-0.04,0.02,1.54,-0,-0,-2,0.04,,69,7482,9,32,51,0.666,0.0,671,4.88,12.8,0.0,1,35.7,2.32,7.7,0,0,0,1,0,,,,,,,,,,,,,,,,,,,,
10223,0,,,247,250,238,233,,-0.03,0.04,1.64,-0,-1,-2,0.05,,69,7551,9,32,50,0.666,0.0,675,4.82,12.8,0.0,1,35.7,2.32,7.7,0,0,0,1,0,,,,,,,,,,,,,,,,,,,,
10243,0,6,4,246,248,238,233,1,-0.02,0.04,1.74,-0,-1,-3,0.04,1,69,7628,9,32,50,0.667,0.0,676,4.85,13.0,0.0,1,35.9,2.33,7.7,0,0,0,1,0,0,250,250,0,0.0,0.0,0.0,0.0,0,0,0.0,0,0.0,-1,0.0,0.0,0.0,0,0.0,0.1707
10263,0,,,246,250,238,233,,-0.01,0.0,1.87,-0,-2,-4,0.01,,69,7735,9,32,49,0.667,0.0,677,4.81,13.0,0.0,1,35.9,1.22,8.3,0,0,0,1,0,,,,,,,,,,,,,,,,,,,,
10283,0,,,246,248,238,233,,-0.01,-0.06,1.73,-0,-1,-3,0.06,,69,7805,9,32,49,0.667,0.0,673,4.92,13.0,0.0,1,36.1,1.23,8.3,0,0,0,1,0,,,,,,,,,,,,,,,,,,,,
10303,0,,,247,249,238,233,,-0.03,-0.01,1.6,-0,0,0,0.03,,69,7888,9,32,48,0.667,0.0,676,4.95,13.0,0.0,1,36.3,2.35,8.3,0,0,0,1,0,,,,,,,,,,,,,,,,,,,,
10323,0,,,246,250,238,233,,-0.04,-0.02,1.47,-0,1,1,0.04,,69,7982,9,32,46,0.667,0.0,681,4.83,13.0,0.0,1,35.8,2.35,8.3,0,0,0,1,0,,,,,,,,,,,,,,,,,,,,
10343,0,4,6,246,248,237,233,3,-0.04,-0.07,1.37,-0,1,1,0.09,1,69,8116,9,32,45,0.667,0.0,684,4.82,13.1,0.0,1,35.2,2.46,8.3,0,0,0,1,0,0,250,250,0,0.0,0.0,0.0,0.0,0,0,0.0,0,0.0,-1,0.0,,0.0,0,0.0,0.1724
10363,0,,,247,249,238,233,,-0.04,-0.01,1.27,-0,3,2,0.04,,69,8252,9,32,44,0.667,0.0,683,4.88,12.9,0.0,1,34.8,2.59,9.6,0,0,0,1,0,,,,,,,,,,,,,,,,,,,,
10383,0,,,247,249,237,233,,-0.04,-0.02,1.35,-0,2,2,0.04,,69,8325,8,32,43,0.668,0.0,685,4.91,13.0,0.0,1,34.2,1.53,9.6,0,0,0,1,0,,,,,,,,,,,,,,,,,,,,
10403,0,,,247,250,238,233,,-0.05,-0.01,1.35,-0,2,1,0.06,,69,8408,7,32,41,0.667,0.0,683,4.9,12.8,0.0,1,33.0,2.68,9.6,0,0,0,1,0,,,,,,,,,,,,,,,,,,,,
10423,0,,,246,248,238,233,,-0.04,-0.02,1.24,-0,2,3,0.05,,69,8434,6,32,40,0.668,0.0,682,4.87,12.9,0.0,1,32.4,1.58,9.6,0,0,0,1,0,,,,,,,,,,,,,,,,,,,,
10443,0,6,6,246,250,238,233,3,-0.04,-0.05,1.3,-0,2,-0,0.06,1,69,8393,5,32,37,0.669,0.0,685,4.85,13.0,0.0,1,31.1,1.43,9.6,0,0,0,1,0,0,250,250,0,0.0,0.0,0.0,0.0,0,0,0.0,0,0.0,-1,0.0,0.0,0.0,0,0.0,0.174
10463,0,,,246,250,238,233,,-0.05,0.01,1.2,-0,3,2,0.05,,69,8234,4,32,36,0.67,0.0,681,4.91,12.8,0.0,1,30.5,2.35,9.3,0,0,0,1,0,,,,,,,,,,,,,,,,,,,,
10483,0,,,246,250,237,233,,-0.04,-0.0,1.24,-0,3,1,0.04,,69,8047,5,32,35,0.673,0.0,678,4.84,12.8,0.0,1,29.8,2.13,9.3,0,0,0,1,0,,,,,,,,,,,,,,,,,,,,
10503,0,,,246,247,238,233,,-0.02,-0.09,1.24,-0,2,1,0.1,,69,7805,5,31,35,0.676,0.0,677,4.87,13.0,0.0,1,29.8,2.09,9.3,0,0,0,1,0,,,,,,,,,,,,,,,,,,,,
10523,0,,,246,249,238,233,,-0.02,-0.1,1.29,-0,2,1,0.1,,69,7572,5,31,36,0.68,0.0,668,4.92,12.8,0.0,1,30.1,1.01,9.3,0,0,0,1,0,,,,,,,,,,,,,,,,,,,,
10543,0,6,4,247,250,238,233,3,0.02,-0.09,1.5,-0,0,-1,0.09,1,69,7332,5,31,36,0.682,0.0,667,4.92,13.0,0.0,1,30.1,1.01,9.3,0,0,0,1,0,0,250,250,0,0.0,0.0,0.0,0.0,0,0,0.0,0,0.0,-1,0.0,,0.0,0,0.0,0.1757
10563,0,,,246,250,238,233,,0.06,-0.07,1.69,-0,-0,-1,0.09,,69,7091,5,31,37,0.685,0.0,664,4.81,12.8,0.0,1,30.4,2.18,7.2,0,0,0,1,0,,,,,,,,,,,,,,,,,,,,
10583,0,,,246,249,238,233,,0.02,-0.08,1.56,-0,1,1,0.08,,69,6845,5,31,37,0.688,0.0,656,4.82,12.7,0.0,1,30.2,1.06,7.2,0,0,0,1,0,,,,,,,,,,,,,,,,,,,,
10603,0,,,246,248,238,233,,0.07,-0.08,1.75,-0,-0,-1,0.11,,69,6648,5,31,38,0.692,0.0,657,4.83,13.0,0.0,1,30.2,2.23,7.2,0,0,0,1,0,,,,,,,,,,,,,,,,,,,,
10623,0,,,247,250,238,233,,0.01,-0.06,1.61,-0,-2,-2,0.06,,69,6454,5,31,38,0.695,0.0,653,4.9,12.9,0.0,1,30.0,1.11,7.2,0,0,0,1,0,,,,,,,,,,,,,,,,,,,,
10643,0,6,6,246,250,238,233,3,-0.06,-0.01,1.49,-0,2,2,0.06,1,69,6289,5,31,38,0.698,0.0,650,4.85,12.7,0.0,1,29.8,2.23,7.2,0,0,0,1,0,0,250,250,0,0.0,0.0,0.0,0.0,0,0,0.0,0,0.0,-1,0.0,0.0,0.0,0,0.0,0.1774
10663,0,,,247,248,237,233,,-0.04,0.0,1.64,-0,5,5,0.04,,69,6167,5,31,39,0.699,0.0,648,4.88,12.9,0.0,1,30.0,2.29,6.5,0,0,0,1,0,,,,,,,,,,,,,,,,,,,,
10683,0,,,247,250,238,233,,-0.02,0.02,1.82,-0,8,8,0.03,,69,5971,5,31,40,0.701,0.0,644,4.85,12.9,0.0,1,29.8,2.3,6.5,0,0,0,1,0,,,,,,,,,,,,,,,,,,,,
10703,0,,,247,250,238,233,,-0.06,0.03,1.68,0,13,12,0.07,,69,5771,5,31,41,0.702,0.0,636,4.83,12.7,0.0,1,29.6,2.38,6.5,0,0,0,1,0,,,,,,,,,,,,,,,,,,,,
10723,0,,,247,248,238,233,,-0.15,0.01,1.55,-0,13,13,0.15,,69,5618,5,31,42,0.702,0.0,632,4.83,12.8,0.0,1,29.3,1.35,6.5,0,0,0,1,0,,,,,,,,,,,,,,,,,,,,
10743,0,6,5,246,250,238,233,2,-0.01,-0.03,1.74,-0,4,5,0.04,1,69,5415,5,31,43,0.703,0.0,632,4.92,13.0,0.0,1,29.2,1.43,6.5,0,0,0,1,0,0,250,250,0,0.0,0.0,0.0,0.0,0,0,0.0,0,0.0,-1,0.0,,0.0,0,0.0,0.179
10763,0,,,247,250,238,233,,-0.08,-0.03,1.91,-0,11,10,0.09,,69,5219,5,31,44,0.703,0.0,619,4.82,12.7,0.0,1,29.1,1.52,6.4,0,0,0,1,0,,,,,,,,,,,,,,,,,,,,
10783,0,,,247,248,237,233,,0.0,-0.08,1.76,-0,4,4,0.08,,69,5099,5,31,45,0.705,0.0,615,4.92,13.0,0.0,1,29.1,2.7,6.4,0,0,0,1,0,,,,,,,,,,,,,,,,,,,,
10803,0,,,246,250,238,233,,-0.04,-0.08,1.63,-0,8,8,0.09,,69,4974,5,31,46,0.704,0.0,603,4.85,12.8,0.0,1,28.9,1.63,6.4,0,0,0,1,0,,,,,,,,,,,,,,,,,,,,
10823,0,,,247,250,238,233,,-0.09,-0.03,1.81,-0,8,8,0.09,,69,4884,5,31,47,0.701,0.0,595,4.84,12.8,0.0,1,28.2,2.72,6.4,0,0,0,1,0,,,,,,,,,,,,,,,,,,,,
10843,0,6,5,246,250,238,233,2,-0.05,-0.01,1.95,-0,5,5,0.05,1,69,4790,5,31,48,0.698,0.0,597,4.91,13.1,0.0,1,27.3,2.68,6.4,0,0,0,1,0,0,250,250,0,0.0,0.0,0.0,0.0,0,0,0.0,0,0.0,-1,0.0,0.0,0.0,0,0.0,0.1807
10863,0,,,246,250,238,233,,-0.02,-0.0,1.83,-0,4,5,0.02,,69,4663,5,31,48,0.692,0.0,582,4.87,13.1,0.0,1,25.7,2.62,5.7,0,0,0,1,0,,,,,,,,,,,,,,,,,,,,
10883,0,,,247,249,237,233,,0.0,-0.01,1.69,-0,3,3,0.02,,69,4605,5,31,49,0.688,0.0,561,4.91,13.2,0.0,1,25.3,2.6,5.7,0,0,0,1,0,,,,,,,,,,,,,,,,,,,,
10903,0,,,247,250,238,233,,0.02,-0.02,1.56,-0,2,2,0.03,,69,4556,5,31,50,0.687,0.0,563,4.9,13.2,0.0,1,25.0,2.57,5.7,0,0,0,1,0,,,,,,,,,,,,,,,,,,,,
10923,0,,,247,250,237,233,,0.03,-0.02,1.44,-0,1,1,0.04,,69,4461,6,31,50,0.686,0.0,544,4.84,13.2,0.0,1,23.9,2.51,5.7,0,0,0,1,0,,,,,,,,,,,,,,,,,,,,
10943,0,6,5,246,249,238,233,3,0.04,-0.02,1.39,-0,0,-0,0.04,1,69,4420,8,31,52,0.686,0.0,541,4.89,13.2,0.0,1,23.9,2.49,5.7,0,0,0,1,0,0,250,250,0,0.0,0.0,0.0,0.0,0,0,0.0,0,0.0,-1,0.0,,0.0,0,0.0,0.1824
10963,0,,,247,250,238,233,,0.05,-0.02,1.32,-0,-1,-1,0.06,,69,4472,11,31,54,0.685,0.0,536,4.87,13.2,0.0,1,25.2,2.53,5.2,0,0,0,1,0,,,,,,,,,,,,,,,,,,,,
10983,0,,,246,250,237,233,,0.06,-0.03,1.46,-0,-2,-2,0.07,,69,4446,15,31,58,0.684,0.0,538,4.89,13.2,0.0,1,25.8,2.57,5.2,0,0,0,1,0,,,,,,,,,,,,,,,,,,,,
11003,0,,,247,250,238,233,,0.09,-0.01,1.52,-0,-3,-3,0.09,,69,4598,21,31,64,0.681,0.0,549,4.85,13.1,0.0,1,29.5,4.45,5.2,0,0,0,1,0,,,,,,,,,,,,,,,,,,,,
11023,0,,,246,250,238,233,,0.11,-0.03,1.4,-0,-4,-4,0.11,,69,4738,26,31,73,0.68,0.0,553,4.87,13.2,0.0,1,33.8,5.15,5.2,0,0,0,1,0,,,,,,,,,,,,,,,,,,,,
11043,0,5,5,247,250,238,233,3,0.07,-0.05,1.29,-0,-2,-2,0.09,1,69,4827,30,31,81,0.676,0.0,566,4.82,13.0,0.0,1,37.4,2.42,5.2,0,0,0,1,0,0,250,250,0,0.0,0.0,0.0,0.0,0,0,0.0,0,0.0,-1,0.0,0.0,0.0,0,0.0,0.184
11063,0,,,247,250,238,233,,0.05,-0.01,1.5,-0,-2,-2,0.05,,69,5189,33,31,87,0.675,0.0,585,4.83,12.8,0.0,1,41.4,6.49,15.0,0,0,0,1,0,,,,,,,,,,,,,,,,,,,,
11083,0,,,246,247,237,233,,0.01,-0.06,1.39,-0,-2,-3,0.06,,69,5422,34,31,92,0.677,0.0,611,4.87,13.1,0.0,1,41.5,3.18,15.0,0,0,0,1,0,,,,,,,,,,,,,,,,,,,,
11103,0,,,247,248,237,233,,0.12,-0.04,1.59,-0,-10,-9,0.12,,69,5795,34,31,93,0.68,0.0,630,4.84,13.1,0.0,1,40.4,3.76,15.0,0,0,0,1,0,,,,,,,,,,,,,,,,,,,,
11123,0,,,246,250,238,233,,0.12,-0.02,1.77,-0,-12,-11,0.12,,69,6338,35,31,93,0.683,0.0,647,4.88,13.0,0.0,1,43.1,3.78,15.0,0,0,0,1,0,,,,,,,,,,,,,,,,,,,,
11143,0,6,3,246,250,238,233,3,0.09,-0.01,1.73,-0,-9,-8,0.09,1,69,7025,35,31,93,0.681,0.0,661,4.79,13.0,0.0,1,49.7,7.42,15.0,0,0,0,1,0,0,250,250,0,0.0,0.0,0.0,0.0,0,0,0.0,0,0.0,-1,0.0,,0.0,0,0.0,0.1857
11163,0,,,247,250,238,233,,0.08,-0.03,1.65,-0,-8,-7,0.08,,69,7684,31,31,91,0.68,0.0,668,4.85,12.8,0.0,1,40.5,8.48,28.5,0,0,0,1,0,,,,,,,,,,,,,,,,,,,,
11183,0,,,247,250,237,233,,0.07,-0.02,1.62,-0,-8,-8,0.08,,69,8278,24,31,87,0.678,0.0,687,4.76,12.9,0.0,1,39.9,4.35,28.5,0,0,0,1,0,,,,,,,,,,,,,,,,,,,,
11203,0,,,246,250,237,233,,0.04,-0.04,1.67,-1,-8,-11,0.06,,69,8967,17,31,79,0.676,0.0,692,4.82,13.0,0.0,1,40.5,4.7,28.5,0,0,0,1,0,,,,,,,,,,,,,,,,,,,,
11223,0,,,246,250,238,233,,0.05,0.01,1.61,-1,-8,-12,0.05,,69,9546,11,31,69,0.673,0.0,700,4.91,12.9,0.0,1,41.5,3.83,28.5,0,0,0,1,0,,,,,,,,,,,,,,,,,,,,
11243,0,1,3,246,250,238,233,2,0.03,-0.09,1.63,-1,-9,-12,0.1,1,69,10064,8,32,61,0.67,0.0,703,4.88,12.9,0.0,1,41.4,4.0,28.5,0,0,0,1,0,0,250,250,0,0.0,0.0,0.0,0.0,0,0,0.0,0,0.0,-1,0.0,0.0,0.0,0,0.0,0.1874
11263,0,,,246,250,238,233,,-0.03,-0.02,1.61,-0,-7,-10,0.04,,69,10387,7,32,54,0.666,0.0,713,4.88,12.8,0.0,1,40.0,3.49,17.4,0,0,0,1,0,,,,,,,,,,,,,,,,,,,,
11283,0,,,247,250,237,233,,-0.01,0.13,1.67,-0,-6,-9,0.13,,69,10330,7,32,49,0.663,0.0,712,4.86,12.8,0.0,1,38.5,2.96,17.4,0,0,0,1,0,,,,,,,,,,,,,,,,,,,,
11303,0,,,247,248,238,233,,0.01,0.24,1.54,-0,-5,-6,0.24,,69,10091,7,32,46,0.659,0.0,706,4.88,12.8,0.0,1,37.2,2.77,17.4,0,0,0,1,0,,,,,,,,,,,,,,,,,,,,
11323,0,,,246,250,238,233,,-0.03,0.14,1.69,-0,-5,-7,0.15,,69,9827,7,32,44,0.658,0.0,706,4.8,12.9,0.0,1,35.7,2.78,17.4,0,0,0,1,0,,,,,,,,,,,,,,,,,,,,
11343,0,-0,2,246,250,238,233,3,0.01,0.25,1.56,-0,-4,-6,0.25,1,69,9551,7,32,43,0.655,0.0,702,4.93,13.0,0.0,1,35.0,2.88,17.4,0,0,0,1,0,0,250,250,0,0.0,0.0,0.0,0.0,0,0,0.0,0,0.0,-1,0.0,,0.0,0,0.0,0.189
11363,0,,,247,249,238,233,,0.0,0.16,1.52,0,-4,-4,0.16,,69,9356,8,32,41,0.654,0.0,698,4.78,12.9,0.0,1,33.4,2.81,12.4,0,0,0,1,0,,,,,,,,,,,,,,,,,,,,
11383,0,,,246,247,237,233,,-0.02,0.15,1.53,0,-4,-4,0.15,,69,9168,9,32,41,0.654,0.0,700,4.82,12.8,0.0,1,33.3,2.8,12.4,0,0,0,1,0,,,,,,,,,,,,,,,,,,,,
11403,0,,,247,249,238,233,,-0.03,0.12,1.57,0,-4,-5,0.12,,69,8967,9,32,41,0.655,0.0,695,4.79,12.8,0.0,1,33.2,2.78,12.4,0,0,0,1,0,,,,,,,,,,,,,,,,,,,,
11423,0,,,246,250,238,233,,-0.06,0.17,1.52,0,-4,-5,0.17,,69,8733,9,32,41,0.658,0.0,694,4.88,13.0,0.0,1,33.2,2.78,12.4,0,0,0,1,0,,,,,,,,,,,,,,,,,,,,
11443,0,0,0,246,250,237,233,3,-0.03,0.18,1.45,0,-2,-1,0.18,1,69,8526,9,32,41,0.66,0.0,686,4.85,12.8,0.0,1,33.2,2.77,12.4,0,0,0,1,0,0,250,250,0,0.0,0.0,0.0,0.0,0,0,0.0,0,0.0,-1,0.0,0.0,0.0,0,0.0,0.1907
11463,0,,,246,250,238,233,,-0.04,0.15,1.55,0,-4,-3,0.15,,69,8378,9,32,41,0.663,0.0,682,4.84,13.0,0.0,1,33.0,2.65,10.4,0,0,0,1,0,,,,,,,,,,,,,,,,,,,,
11483,0,,,246,250,238,233,,-0.04,0.18,1.43,0,-3,-1,0.18,,69,8191,9,32,41,0.665,0.0,676,4.9,12.9,0.0,1,32.6,2.48,10.4,0,0,0,1,0,,,,,,,,,,,,,,,,,,,,
11503,0,,,247,250,238,233,,-0.03,0.08,1.39,0,-3,-2,0.09,,69,8088,9,32,41,0.669,0.0,677,4.88,13.1,0.0,1,32.4,1.27,10.4,0,0,0,1,0,,,,,,,,,,,,,,,,,,,,
11523,0,,,246,250,237,233,,-0.06,0.11,1.28,0,-2,-0,0.13,,69,7948,9,32,41,0.672,0.0,672,4.92,12.9,0.0,1,32.3,1.18,10.4,0,0,0,1,0,,,,,,,,,,,,,,,,,,,,
11543,0,0,3,246,249,238,233,1,-0.07,0.13,1.19,0,-0,1,0.15,1,69,7809,9,32,42,0.675,0.0,673,4.86,12.9,0.0,1,32.8,2.3,10.4,0,0,0,1,0,0,250,250,0,0.0,0.0,0.0,0.0,0,0,0.0,0,0.0,-1,0.0,,0.0,0,0.0,0.1924
11563,0,,,247,250,238,233,,-0.06,0.14,1.16,0,-0,1,0.15,,69,7703,9,32,42,0.678,0.0,671,4.82,13.1,0.0,1,32.7,2.29,8.2,0,0,0,1,0,,,,,,,,,,,,,,,,,,,,
11583,0,,,246,250,238,233,,-0.04,0.12,1.37,0,-1,-1,0.12,,69,7606,9,32,43,0.681,0.0,672,4.87,13.1,0.0,1,33.1,2.29,8.2,0,0,0,1,0,,,,,,,,,,,,,,,,,,,,
11603,1629385891599,,,246,250,237,233,,-0.01,0.1,1.58,0,-2,-2,0.1,,69,7521,9,32,43,0.684,0.0,667,4.8,12.9,0.0,1,33.0,2.29,8.2,0,0,0,1,0,,,,,,,,,,,,,,,,,,,,
11623,1629385891619,,,247,250,238,233,,-0.01,0.07,1.75,0,-2,-3,0.07,,69,7566,9,32,44,0.686,0.0,668,4.81,12.9,0.0,1,33.6,2.29,8.2,0,0,0,1,0,,,,,,,,,,,,,,,,,,,,
11643,1629385891639,1,2,247,250,238,233,3,-0.0,0.02,1.71,0,-2,-3,0.02,1,69,7621,9,31,44,0.687,0.0,672,4.83,13.1,0.0,1,33.6,2.29,8.2,0,0,0,1,0,0,250,250,0,49.330933,8.564998,0.0,114.1,5,2,2.3,0,0.0,-1,0.0,0.0,0.0,0,0.0,0.194
11663,1629385891659,,,247,250,237,233,,0.01,-0.03,1.75,0,-3,-4,0.03,,69,7684,9,31,44,0.688,0.0,672,4.9,13.1,0.0,1,33.8,2.3,8.1,0,0,0,1,0,,,,,,,,,,,,,,,,,,,,
11683,1629385891679,,,247,250,238,233,,0.01,-0.04,1.71,-0,-4,-4,0.05,,69,7722,9,31,44,0.689,0.0,669,4.93,13.0,0.0,1,33.9,1.18,8.1,0,0,0,1,0,,,,,,,,,,,,,,,,,,,,
11703,1629385891691,,,247,250,237,233,,-0.0,0.01,1.61,0,-4,-3,0.01,,69,7796,9,31,44,0.688,0.0,671,4.85,12.9,0.0,1,34.0,2.31,8.1,0,0,0,1,0,,,,,,,,,,,,,,,,,,,,
11723,1629385891711,,,247,250,238,233,,-0.02,0.06,1.61,0,-3,-3,0.06,,69,7868,9,31,44,0.688,0.0,678,4.89,12.9,0.0,1,34.1,2.32,8.1,0,0,0,1,0,,,,,,,,,,,,,,,,,,,,
11743,1629385891731,4,2,247,250,238,233,3,-0.01,0.06,1.74,-0,-3,-4,0.06,1,69,7911,9,31,44,0.688,0.0,680,4.83,13.1,0.0,1,34.3,2.31,8.1,0,0,0,1,0,0,250,250,0,49.330933,8.565012,0.0,111.2,9,2,1.6,0,0.0,-1,0.0,,0.0,0,0.0,0.1957
11763,1629385891751,,,247,250,238,233,,-0.01,0.03,1.74,-0,-3,-3,0.03,,69,7995,9,31,43,0.689,0.0,675,4.91,13.0,0.0,1,33.7,1.2,8.5,0,0,0,1,0,,,,,,,,,,,,,,,,,,,,
11783,1629385891771,,,246,250,238,233,,-0.02,0.09,1.66,-0,-2,-2,0.1,,69,8106,9,31,43,0.689,0.0,680,4.92,12.9,0.0,1,33.9,2.43,8.5,0,0,0,1,0,,,,,,,,,,,,,,,,,,,,
11803,1629385891795,,,246,250,238,233,,-0.03,0.06,1.81,-0,-3,-4,0.07,,69,8187,9,31,42,0.69,0.0,682,4.87,13.1,0.0,1,33.3,2.49,8.5,0,0,0,1,0,,,,,,,,,,,,,,,,,,,,
11823,1629385891815,,,246,250,238,233,,-0.04,0.1,1.71,-0,-2,-3,0.11,,69,8274,9,31,41,0.689,0.0,681,4.94,13.0,0.0,1,32.8,1.45,8.5,0,0,0,1,0,,,,,,,,,,,,,,,,,,,,
11843,1629385891835,3,4,246,250,238,233,3,-0.03,0.04,1.87,-0,-3,-5,0.05,1,69,8344,9,31,40,0.69,0.0,685,4.86,13.0,0.0,1,32.2,2.61,8.5,0,0,0,1,0,0,250,250,0,49.330929,8.565015,0.0,100.7,9,2,1.6,0,0.0,-1,0.0,0.0,0.0,0,0.0,0.1974
11863,1629385891855,,,246,250,238,233,,-0.05,0.04,1.73,-0,-3,-4,0.07,,69,8430,9,31,40,0.689,0.0,685,4.85,13.0,0.0,1,32.4,2.68,10.3,0,0,0,1,0,,,,,,,,,,,,,,,,,,,,
11883,1629385891875,,,247,250,238,233,,-0.04,0.06,1.6,0,-1,0,0.07,,69,8468,9,31,39,0.689,0.0,685,4.88,12.9,0.0,1,31.9,1.59,10.3,0,0,0,1,0,,,,,,,,,,,,,,,,,,,,
11903,1629385891895,,,246,250,238,233,,-0.04,0.05,1.69,-0,-2,-3,0.06,,69,8549,9,31,39,0.689,0.0,690,4.86,13.0,0.0,1,32.0,2.73,10.3,0,0,0,1,0,,,,,,,,,,,,,,,,,,,,
11923,1629385891915,,,246,250,238,233,,-0.06,-0.01,1.79,-0,-2,-5,0.06,,69,8600,9,31,38,0.688,0.0,686,4.84,13.0,0.0,1,31.7,2.68,10.3,0,0,0,1,0,,,,,,,,,,,,,,,,,,,,
11943,1629385891935,4,4,246,250,238,233,2,-0.03,0.07,1.65,-0,-1,-1,0.08,1,69,8604,9,31,37,0.689,0.0,690,4.86,12.8,0.0,1,31.4,2.64,10.3,0,0,0,1,0,0,250,250,0,49.330929,8.565016,0.0,97.2,9,2,1.6,0,0.0,-1,0.0,,0.0,0,0.0,0.199
11963,1629385891955,,,246,250,238,233,,-0.03,0.08,1.59,-0,-1,0,0.09,,69,8644,9,31,37,0.689,0.0,684,4.84,13.0,0.0,1,31.4,2.64,10.5,0,0,0,1,0,,,,,,,,,,,,,,,,,,,,
11983,1629385891975,,,246,250,238,233,,-0.06,0.01,1.77,-0,-2,-4,0.06,,69,8648,9,31,37,0.69,0.0,692,4.88,13.0,0.0,1,31.4,2.64,10.5,0,0,0,1,0,,,,,,,,,,,,,,,,,,,,
12003,1629385891995,,,246,250,238,233,,-0.04,-0.02,1.77,-0,-3,-4,0.05,,69,8581,9,31,36,0.69,0.0,685,4.88,12.9,0.0,1,31.1,2.61,10.5,0,0,0,1,0,,,,,,,,,,,,,,,,,,,,
12023,1629385892015,,,246,250,238,233,,-0.04,0.05,1.64,0,-0,1,0.06,,69,8546,9,31,36,0.691,0.0,683,4.9,12.9,0.0,1,31.1,1.49,10.5,0,0,0,1,0,,,,,,,,,,,,,,,,,,,,
12043,1629385892035,2,4,246,250,238,233,3,-0.05,0.04,1.64,-0,-1,-1,0.07,1,69,8522,9,31,36,0.691,0.0,681,4.82,13.0,0.0,1,31.1,2.61,10.5,0,0,0,1,0,0,250,250,0,49.330925,8.565017,0.0,96.7,9,2,1.6,0,0.0,-1,0.0,0.0,0.0,0,0.0,0.2007
12063,1629385892055,,,246,250,238,233,,-0.05,0.02,1.75,-0,-1,-4,0.05,,69,8476,9,31,36,0.691,0.0,680,4.84,13.0,0.0,1,31.0,2.58,10.1,0,0,0,1,0,,,,,,,,,,,,,,,,,,,,
12083,1629385892075,,,246,250,237,233,,-0.06,0.07,1.62,-0,-0,-0,0.09,,69,8378,9,31,36,0.692,0.0,682,4.85,13.0,0.0,1,30.8,2.48,10.1,0,0,0,1,0,,,,,,,,,,,,,,,,,,,,
12103,1629385892095,,,247,250,238,233,,-0.06,0.05,1.71,-0,-1,-2,0.08,,69,8263,9,31,36,0.693,0.0,678,4.86,12.9,0.0,1,30.6,2.38,10.1,0,0,0,1,0,,,,,,,,,,,,,,,,,,,,
12123,1629385892115,,,247,248,238,233,,-0.05,0.04,1.58,-0,0,1,0.07,,69,8187,9,31,37,0.694,0.0,681,4.91,12.9,0.0,1,30.7,2.37,10.1,0,0,0,1,0,,,,,,,,,,,,,,,,,,,,
12143,1629385892135,3,4,246,250,237,233,3,-0.04,0.07,1.62,-0,-0,-1,0.09,1,69,8092,9,31,37,0.695,0.0,683,4.81,13.1,0.0,1,30.5,2.27,10.1,0,0,0,1,0,0,250,250,0,49.330925,8.565018,0.0,95.0,9,2,1.6,0,0.0,-1,0.0,,0.0,0,0.0,0.2024
12163,1629385892155,,,246,250,238,233,,-0.04,0.04,1.73,-0,-1,-1,0.05,,69,8050,9,31,37,0.695,0.0,678,4.9,13.0,0.0,1,30.5,1.11,8.3,0,0,0,1,0,,,,,,,,,,,,,,,,,,,,
12183,1629385892175,,,246,250,238,233,,-0.05,0.09,1.6,-0,-0,0,0.1,,69,8026,9,31,38,0.695,0.0,677,4.91,13.0,0.0,1,30.7,2.26,8.3,0,0,0,1,0,,,,,,,,,,,,,,,,,,,,
12203,1629385892195,,,246,250,237,233,,-0.03,0.1,1.68,-0,-1,-2,0.1,,68,8009,9,31,38,0.695,0.0,685,4.76,12.9,0.0,1,30.7,2.24,8.3,0,0,0,1,0,,,,,,,,,,,,,,,,,,,,
12223,1629385892215,,,246,250,238,233,,-0.04,0.06,1.71,-0,-1,-1,0.07,,68,8047,9,31,38,0.696,0.0,677,4.88,13.0,0.0,1,30.7,2.28,8.3,0,0,0,1,0,,,,,,,,,,,,,,,,,,,,
12243,1629385892235,4,2,247,250,237,233,2,-0.06,0.12,1.58,-0,0,-0,0.14,1,68,8040,9,31,38,0.694,0.0,683,4.83,12.9,0.0,1,30.7,2.27,8.3,0,0,0,1,0,0,250,250,0,49.330925,8.565019,0.0,94.0,9,2,1.6,0,0.0,-1,0.0,0.0,0.0,0,0.0,0.204
12263,1629385892255,,,247,250,238,233,,-0.05,0.12,1.72,-0,-1,-2,0.13,,68,8054,9,31,38,0.694,0.0,681,4.85,13.1,0.0,1,30.8,2.28,8.4,0,0,0,1,0,,,,,,,,,,,,,,,,,,,,
12283,1629385892275,,,246,250,238,233,,-0.05,0.09,1.67,-0,-1,-1,0.11,,68,8085,9,31,38,0.694,0.0,680,4.86,13.0,0.0,1,30.8,2.31,8.4,0,0,0,1,0,,,,,,,,,,,,,,,,,,,,
12303,1629385892295,,,246,250,237,233,,-0.06,0.14,1.73,-0,-1,-2,0.15,,68,8099,9,31,38,0.694,0.0,676,4.9,12.8,0.0,1,30.8,2.38,8.4,0,0,0,1,0,,,,,,,,,,,,,,,,,,,,
12323,1629385892295,,,247,250,237,233,,-0.05,0.11,1.79,-0,-2,-3,0.12,,68,8130,9,31,38,0.693,0.0,677,4.9,13.0,0.0,1,30.9,2.36,8.4,0,0,0,1,0,,,,,,,,,,,,,,,,,,,,
12343,1629385892315,4,2,246,250,238,233,3,-0.05,0.13,1.73,-0,-1,-3,0.14,1,68,8155,9,31,38,0.693,0.0,673,4.92,13.0,0.0,1,31.0,2.38,8.4,0,0,0,1,0,0,250,250,0,49.330925,8.56502,0.0,93.2,9,2,1.6,0,0.0,-1,0.0,,0.0,0,0.0,0.2057
12363,1629385892335,,,247,250,238,233,,-0.04,0.08,1.91,-0,-3,-4,0.09,,68,8191,9,31,38,0.693,0.0,678,4.85,13.1,0.0,1,31.0,2.41,9.1,0,0,0,1,0,,,,,,,,,,,,,,,,,,,,
12383,1629385892355,,,246,250,238,233,,-0.05,0.08,1.76,-0,-2,-3,0.1,,68,8205,8,31,38,0.692,0.0,677,4.89,13.0,0.0,1,31.1,2.43,9.1,0,0,0,1,0,,,,,,,,,,,,,,,,,,,,
12403,1629385892392,,,246,249,237,233,,-0.05,0.06,1.68,-0,-2,-3,0.08,,68,8220,8,31,37,0.693,0.0,676,4.83,13.1,0.0,1,30.8,2.44,9.1,0,0,0,1,0,,,,,,,,,,,,,,,,,,,,
12423,1629385892412,,,247,250,237,233,,-0.05,0.12,1.55,-0,0,-1,0.13,,68,8227,8,31,37,0.692,0.0,681,4.91,12.9,0.0,1,30.8,2.39,9.1,0,0,0,1,0,,,,,,,,,,,,,,,,,,,,
12443,1629385892432,3,4,246,250,238,233,3,-0.06,0.08,1.66,-0,-1,-2,0.09,1,68,8252,8,31,37,0.692,0.0,682,4.83,13.1,0.0,1,30.9,2.42,9.1,0,0,0,1,0,0,250,250,0,49.330925,8.565021,0.0,92.6,9,2,1.6,0,0.0,-1,0.0,0.0,0.0,0,0.0,0.2074
12463,1629385892452,,,247,250,238,233,,-0.05,0.1,1.54,-0,0,0,0.11,,68,8281,8,31,37,0.693,0.0,682,4.87,12.8,0.0,1,30.9,2.44,9.3,0,0,0,1,0,,,,,,,,,,,,,,,,,,,,
12483,1629385892472,,,246,250,237,233,,-0.04,0.08,1.66,-0,-1,-2,0.09,,68,8263,8,31,37,0.693,0.0,684,4.86,13.1,0.0,1,30.9,1.31,9.3,0,0,0,1,0,,,,,,,,,,,,,,,,,,,,
12503,1629385892492,,,246,250,237,233,,-0.06,0.1,1.54,-0,-0,-1,0.11,,68,8252,8,31,36,0.693,0.0,680,4.86,12.8,0.0,1,30.6,1.25,9.3,0,0,0,1,0,,,,,,,,,,,,,,,,,,,,
12523,1629385892512,,,247,250,238,233,,-0.05,0.06,1.72,-0,-2,-3,0.08,,68,8274,8,31,36,0.693,0.0,681,4.81,13.0,0.0,1,30.6,1.27,9.3,0,0,0,1,0,,,,,,,,,,,,,,,,,,,,
12543,1629385892532,3,3,247,250,238,233,3,-0.05,0.05,1.59,-0,-1,-1,0.07,1,68,8278,8,31,36,0.693,0.0,682,4.88,12.8,0.0,1,30.6,1.27,9.3,0,0,0,1,0,0,250,250,0,49.330925,8.565021,0.0,92.1,9,2,1.6,0,0.0,-1,0.0,,0.0,0,0.0,0.209
12563,1629385892552,,,246,249,238,233,,-0.04,0.0,1.57,-0,-1,-2,0.04,,68,8249,8,31,36,0.694,0.0,680,4.86,13.1,0.0,1,30.5,1.24,9.0,0,0,0,1,0,,,,,,,,,,,,,,,,,,,,
12583,1629385892572,,,247,250,237,233,,-0.05,0.03,1.53,-0,0,-0,0.05,,68,8241,8,31,36,0.693,0.0,678,4.85,12.8,0.0,1,30.5,1.24,9.0,0,0,0,1,0,,,,,,,,,,,,,,,,,,,,
12603,1629385892592,,,247,250,238,233,,-0.04,-0.01,1.59,-0,-0,-1,0.04,,68,8216,8,31,36,0.693,0.0,676,4.9,13.1,0.0,1,30.5,2.34,9.0,0,0,0,1,0,,,,,,,,,,,,,,,,,,,,
12623,1629385892612,,,246,250,237,233,,-0.04,0.05,1.68,-0,1,0,0.06,,68,8216,8,31,36,0.693,0.0,675,4.92,13.0,0.0,1,30.5,2.34,9.0,0,0,0,1,0,,,,,,,,,,,,,,,,,,,,
12643,1629385892632,3,3,247,250,238,233,2,-0.03,0.01,1.69,-0,-0,-2,0.04,1,68,8205,8,31,36,0.694,0.0,676,4.83,13.1,0.0,1,30.5,2.33,9.0,0,0,0,1,0,0,250,250,0,49.330925,8.565021,0.0,92.1,9,2,1.6,0,0.0,-1,0.0,0.0,0.0,0,0.0,0.2107
12663,1629385892652,,,247,250,238,233,,-0.04,0.03,1.65,-0,-0,-1,0.05,,68,8216,8,31,36,0.694,0.0,676,4.87,12.8,0.0,1,30.5,2.34,8.8,0,0,0,1,0,,,,,,,,,,,,,,,,,,,,
12683,1629385892672,,,246,250,238,233,,-0.03,-0.04,1.75,-0,-2,-4,0.05,,68,8180,8,31,36,0.694,0.0,678,4.81,13.1,0.0,1,30.4,2.3,8.8,0,0,0,1,0,,,,,,,,,,,,,,,,,,,,
12703,1629385892692,,,246,250,237,233,,-0.05,-0.0,1.62,-0,-1,-2,0.05,,68,8169,8,31,36,0.695,0.0,678,4.88,13.1,0.0,1,30.4,2.29,8.8,0,0,0,1,0,,,,,,,,,,,,,,,,,,,,
12723,1629385892712,,,247,250,237,233,,-0.05,-0.04,1.55,-0,-1,-3,0.06,,68,8159,8,31,36,0.695,0.0,682,4.83,12.8,0.0,1,30.4,2.28,8.8,0,0,0,1,0,,,,,,,,,,,,,,,,,,,,
12743,1629385892732,3,4,247,250,238,233,3,-0.05,-0.01,1.43,-0,-2,-2,0.05,1,68,8138,8,31,36,0.696,0.0,677,4.86,13.0,0.0,1,30.3,2.27,8.8,0,0,0,1,0,0,250,250,0,49.330925,8.565021,0.0,92.1,9,2,1.6,0,0.0,-1,0.0,,0.0,0,0.0,0.2124
12763,1629385892752,,,246,250,237,233,,-0.04,-0.01,1.48,-0,-0,-1,0.04,,68,8116,8,31,36,0.696,0.0,676,4.91,12.9,0.0,1,30.3,2.25,8.4,0,0,0,1,0,,,,,,,,,,,,,,,,,,,,
12783,1629385892772,,,247,250,238,233,,-0.04,-0.07,1.36,-0,-1,-2,0.08,,68,8123,8,31,36,0.696,0.0,682,4.87,13.1,0.0,1,30.3,1.13,8.4,0,0,0,1,0,,,,,,,,,,,,,,,,,,,,
12803,1629385892790,,,247,250,238,233,,-0.05,-0.01,1.26,-0,1,1,0.05,,68,8113,8,31,37,0.697,0.0,677,4.9,13.0,0.0,1,30.6,2.29,8.4,0,0,0,1,0,,,,,,,,,,,,,,,,,,,,
12823,1629385892810,,,246,250,238,233,,-0.04,-0.04,1.4,-0,0,-1,0.06,,68,8109,8,31,37,0.698,0.0,675,4.84,12.9,0.0,1,30.6,2.29,8.4,0,0,0,1,0,,,,,,,,,,,,,,,,,,,,
12843,1629385892830,4,2,247,250,237,233,2,-0.07,0.01,1.29,-0,1,2,0.07,1,68,8102,9,31,37,0.699,0.0,677,4.88,13.2,0.0,1,30.6,2.28,8.4,0,0,0,1,0,0,250,250,0,49.330925,8.565021,0.0,92.1,9,2,1.6,0,0.0,-1,0.0,0.0,0.0,0,0.0,0.214
12863,1629385892850,,,246,250,238,233,,-0.07,0.05,1.19,-0,3,3,0.08,,68,7871,9,31,37,0.702,0.0,675,4.9,13.2,0.0,1,30.4,2.18,8.0,0,0,0,1,0,,,,,,,,,,,,,,,,,,,,
12883,1629385892870,,,246,250,238,233,,-0.05,0.02,1.25,-0,4,4,0.05,,68,7637,9,31,38,0.706,0.0,668,4.91,13.2,0.0,1,30.7,2.23,8.0,0,0,0,1,0,,,,,,,,,,,,,,,,,,,,
12903,1629385892890,,,247,250,238,233,,-0.04,-0.01,1.15,-0,4,4,0.04,,68,7419,8,31,39,0.707,0.0,667,4.87,12.9,0.0,1,31.0,2.29,8.0,0,0,0,1,0,,,,,,,,,,,,,,,,,,,,
12923,1629385892910,,,247,250,238,233,,-0.05,0.04,1.2,-0,4,5,0.07,,68,7273,8,31,40,0.706,0.0,663,4.81,12.9,0.0,1,31.4,2.29,8.0,0,0,0,1,0,,,,,,,,,,,,,,,,,,,,
12943,1629385892930,4,2,247,250,238,233,3,-0.09,0.07,1.1,-0,5,6,0.11,1,68,7273,8,31,41,0.706,0.0,667,4.81,12.9,0.0,1,31.8,2.28,8.0,0,0,0,1,0,0,250,250,0,49.330925,8.565021,0.0,92.1,9,2,1.6,0,0.0,-1,0.0,,0.0,0,0.0,0.2157
12963,1629385892950,,,246,250,238,233,,-0.09,0.04,1.02,-0,4,4,0.1,,68,7219,8,31,42,0.706,0.0,664,4.85,13.1,0.0,1,32.1,2.28,7.6,0,0,0,1,0,,,,,,,,,,,,,,,,,,,,
12983,1629385892970,,,247,250,238,233,,-0.06,0.05,1.25,-0,1,2,0.08,,68,7222,8,31,42,0.706,0.0,667,4.91,13.1,0.0,1,32.1,2.28,7.6,0,0,0,1,0,,,,,,,,,,,,,,,,,,,,
13003,1629385892990,,,247,250,237,233,,-0.04,0.0,1.31,-0,2,3,0.04,,68,7250,8,31,43,0.705,0.0,668,4.87,13.1,0.0,1,32.6,2.27,7.6,0,0,0,1,0,,,,,,,,,,,,,,,,,,,,
13023,1629385893010,,,247,250,237,233,,-0.03,0.0,1.27,-0,2,3,0.03,,68,7228,8,31,43,0.705,0.0,667,4.83,13.1,0.0,1,32.5,2.27,7.6,0,0,0,1,0,,,,,,,,,,,,,,,,,,,,
13043,1629385893030,2,4,246,250,238,233,3,-0.05,0.04,1.23,-0,3,4,0.07,1,68,7239,8,31,44,0.706,0.0,662,4.88,12.9,0.0,1,32.9,1.15,7.6,0,0,0,1,0,0,250,250,0,49.330925,8.565021,0.0,92.1,9,2,1.6,0,0.0,-1,0.0,0.0,0.0,0,0.0,0.2174
13063,1629385893050,,,246,250,238,233,,-0.07,0.04,1.14,-0,4,4,0.08,,68,7219,8,31,44,0.705,0.0,661,4.88,12.9,0.0,1,32.9,1.15,7.6,0,0,0,1,0,,,,,,,,,,,,,,,,,,,,
13083,1629385893070,,,246,250,238,233,,-0.05,0.06,1.27,-0,1,2,0.08,,68,7192,8,31,45,0.705,0.0,663,4.91,13.1,0.0,1,33.2,2.26,7.6,0,0,0,1,0,,,,,,,,,,,,,,,,,,,,
13103,1629385893090,,,247,250,237,233,,-0.03,0.03,1.43,-0,1,2,0.04,,68,7167,8,31,45,0.702,0.0,666,4.83,13.1,0.0,1,33.1,2.26,7.6,0,0,0,1,0,,,,,,,,,,,,,,,,,,,,
13123,1629385893110,,,246,250,238,233,,-0.02,0.05,1.44,-0,1,2,0.05,,68,7205,8,31,45,0.698,0.0,671,4.82,13.1,0.0,1,33.2,2.26,7.6,0,0,0,1,0,,,,,,,,,,,,,,,,,,,,
13143,1629385893130,4,3,246,250,237,233,2,-0.05,0.06,1.33,-0,2,4,0.08,1,68,7194,8,31,46,0.696,0.0,663,4.89,13.0,0.0,1,33.6,2.25,7.6,0,0,0,1,0,0,250,250,0,49.330925,8.565021,0.0,92.1,9,2,1.6,0,0.0,-1,0.0,,0.0,0,0.0,0.219
13163,1629385893150,,,247,250,238,233,,-0.07,0.05,1.23,-0,2,3,0.09,,68,7225,8,31,46,0.697,0.0,663,4.87,13.1,0.0,1,33.7,2.26,7.5,0,0,0,1,0,,,,,,,,,,,,,,,,,,,,
13183,1629385893170,,,246,250,237,233,,-0.04,0.05,1.44,-0,0,1,0.06,,68,7197,8,31,46,0.697,0.0,661,4.87,13.1,0.0,1,33.6,2.25,7.5,0,0,0,1,0,,,,,,,,,,,,,,,,,,,,
13203,1629385893192,,,246,250,238,233,,-0.01,-0.01,1.52,-0,1,1,0.02,,68,7151,8,31,46,0.697,0.0,664,4.87,13.1,0.0,1,33.4,1.13,7.5,0,0,0,1,0,,,,,,,,,,,,,,,,,,,,
13223,1629385893212,,,247,250,238,233,,-0.02,-0.0,1.52,-0,1,2,0.02,,68,7151,8,31,46,0.697,0.0,660,4.86,13.1,0.0,1,33.4,2.24,7.5,0,0,0,1,0,,,,,,,,,,,,,,,,,,,,
13243,1629385893232,3,3,247,250,238,233,2,-0.06,0.02,1.4,-0,2,3,0.06,1,68,7126,8,31,47,0.697,0.0,662,4.87,12.9,0.0,1,33.8,2.23,7.5,0,0,0,1,0,0,250,250,0,49.330925,8.565021,0.0,92.1,9,2,1.6,0,0.0,-1,0.0,0.0,0.0,0,0.0,0.2207
13263,1629385893252,,,246,250,238,233,,-0.05,0.02,1.32,-0,0,1,0.05,,68,7094,8,31,47,0.697,0.0,662,4.93,13.1,0.0,1,33.7,1.11,7.3,0,0,0,1,0,,,,,,,,,,,,,,,,,,,,
13283,1629385893272,,,246,250,238,233,,-0.01,0.02,1.53,-0,-0,1,0.02,,68,7145,8,31,47,0.696,0.0,662,4.86,13.2,0.0,1,33.8,2.24,7.3,0,0,0,1,0,,,,,,,,,,,,,,,,,,,,
13303,1629385893284,,,247,250,238,233,,-0.02,0.01,1.41,-0,2,3,0.03,,68,7153,8,31,47,0.697,0.0,660,4.85,13.1,0.0,1,33.8,2.24,7.3,0,0,0,1,0,,,,,,,,,,,,,,,,,,,,
13323,1629385893304,,,247,250,238,233,,-0.05,0.06,1.3,-0,1,3,0.08,,68,7148,8,31,48,0.698,0.0,660,4.86,12.8,0.0,1,34.1,1.12,7.3,0,0,0,1,0,,,,,,,,,,,,,,,,,,,,
13343,1629385893324,4,2,247,249,237,233,3,-0.04,0.05,1.25,-0,1,2,0.06,1,68,7126,8,31,48,0.698,0.0,662,4.94,13.0,0.0,1,34.1,2.23,7.3,0,0,0,1,0,0,250,250,0,49.330925,8.565021,0.0,92.1,9,2,1.6,0,0.0,-1,0.0,,0.0,0,0.0,0.2224
13363,1629385893344,,,247,250,237,233,,-0.0,0.04,1.46,-0,-0,1,0.04,,68,7083,8,31,48,0.697,0.0,662,4.87,13.1,0.0,1,33.9,2.23,7.3,0,0,0,1,0,,,,,,,,,,,,,,,,,,,,
13383,1629385893364,,,247,250,238,233,,-0.04,0.01,1.35,-0,2,3,0.04,,68,7022,8,31,48,0.697,0.0,662,4.86,13.0,0.0,1,33.7,1.1,7.3,0,0,0,1,0,,,,,,,,,,,,,,,,,,,,
13403,1629385893389,,,247,250,238,233,,-0.05,-0.01,1.27,-0,-0,0,0.05,,68,6949,8,31,48,0.698,0.0,656,4.9,13.0,0.0,1,33.5,1.11,7.3,0,0,0,1,0,,,,,,,,,,,,,,,,,,,,
13423,1629385893409,,,247,250,237,233,,-0.01,-0.03,1.48,-0,0,0,0.03,,68,6980,8,31,48,0.698,0.0,665,4.88,13.2,0.0,1,33.6,1.11,7.3,0,0,0,1,0,,,,,,,,,,,,,,,,,,,,
13443,1629385893429,3,2,247,250,237,233,2,-0.06,-0.0,1.36,-0,1,2,0.06,1,68,6996,8,31,48,0.698,0.0,661,4.83,13.0,0.0,1,33.6,2.23,7.3,0,0,0,1,0,0,250,250,0,49.330925,8.565021,0.0,92.1,9,2,1.6,0,0.0,-1,0.0,0.0,0.0,0,0.0,0.224
13463,1629385893449,,,247,250,238,233,,-0.04,-0.01,1.36,-0,-0,1,0.04,,68,6993,8,31,49,0.698,0.0,658,4.94,13.1,0.0,1,34.0,2.23,7.2,0,0,0,1,0,,,,,,,,,,,,,,,,,,,,
13483,1629385893469,,,246,250,238,233,,-0.01,-0.01,1.56,-0,-1,0,0.01,,68,7040,8,31,49,0.698,0.0,660,4.88,13.2,0.0,1,34.1,1.1,7.2,0,0,0,1,0,,,,,,,,,,,,,,,,,,,,
13503,1629385893489,,,247,250,238,233,,-0.04,-0.01,1.44,-0,1,2,0.04,,68,7064,8,31,49,0.698,0.0,661,4.79,13.0,0.0,1,34.2,2.22,7.2,0,0,0,1,0,,,,,,,,,,,,,,,,,,,,
13523,1629385893509,,,246,250,238,233,,-0.06,0.0,1.33,-0,-0,1,0.06,,68,7062,8,31,49,0.698,0.0,659,4.86,13.1,0.0,1,34.1,2.22,7.2,0,0,0,1,0,,,,,,,,,,,,,,,,,,,,
13543,1629385893529,4,4,246,250,238,233,2,-0.03,-0.03,1.52,-0,-1,-0,0.04,1,68,7072,8,31,49,0.698,0.0,658,4.92,13.1,0.0,1,34.2,2.23,7.2,0,0,0,1,0,0,250,250,0,49.330925,8.565021,0.0,92.1,9,2,1.6,0,0.0,-1,0.0,,0.0,0,0.0,0.2257
13563,1629385893549,,,246,250,237,233,,-0.02,-0.02,1.48,-0,-0,0,0.03,,68,7086,8,31,49,0.697,0.0,662,4.86,13.1,0.0,1,34.2,2.23,7.3,0,0,0,1,0,,,,,,,,,,,,,,,,,,,,
13583,1629385893569,,,247,250,238,233,,-0.06,0.01,1.37,-0,1,2,0.06,,68,7123,8,31,49,0.698,0.0,658,4.88,12.9,0.0,1,34.3,2.24,7.3,0,0,0,1,0,,,,,,,,,,,,,,,,,,,,
13603,1629385893589,,,247,250,237,233,,-0.06,-0.0,1.26,-0,0,1,0.06,,68,7086,8,31,49,0.698,0.0,658,4.91,13.0,0.0,1,34.2,2.23,7.3,0,0,0,1,0,,,,,,,,,,,,,,,,,,,,
13623,1629385893609,,,246,250,238,233,,-0.01,0.0,1.47,-0,-1,-1,0.02,,68,7080,8,31,49,0.697,0.0,668,4.81,13.1,0.0,1,34.2,2.23,7.3,0,0,0,1,0,,,,,,,,,,,,,,,,,,,,
13643,1629385893629,2,3,246,249,237,233,3,-0.05,0.02,1.36,-0,1,2,0.05,1,68,7051,8,31,49,0.696,0.0,665,4.89,13.1,0.0,1,34.1,2.22,7.3,0,0,0,1,0,0,250,250,0,49.330925,8.565021,0.0,92.1,9,2,1.6,0,0.0,-1,0.0,0.0,0.0,0,0.0,0.2274
13663,1629385893649,,,246,250,238,233,,-0.06,0.05,1.29,-0,0,1,0.08,,68,7009,8,31,49,0.697,0.0,665,4.92,13.1,0.0,1,34.1,1.1,7.2,0,0,0,1,0,,,,,,,,,,,,,,,,,,,,
13683,1629385893669,,,246,250,237,233,,-0.03,0.02,1.43,-0,-1,-0,0.04,,68,6993,8,31,49,0.696,0.0,663,4.9,13.1,0.0,1,34.0,1.11,7.2,0,0,0,1,0,,,,,,,,,,,,,,,,,,,,
13703,1629385893689,,,246,250,238,233,,-0.06,0.05,1.32,-0,1,1,0.08,,68,6934,8,31,49,0.696,0.0,661,4.8,13.0,0.0,1,33.8,2.23,7.2,0,0,0,1,0,,,,,,,,,,,,,,,,,,,,
13723,1629385893709,,,247,250,238,233,,-0.06,0.05,1.22,-0,0,0,0.07,,68,6949,8,31,49,0.697,0.0,658,4.89,13.1,0.0,1,33.9,2.23,7.2,0,0,0,1,0,,,,,,,,,,,,,,,,,,,,
13743,1629385893729,3,4,246,250,238,233,2,-0.01,0.05,1.43,-0,-0,-0,0.06,1,68,6952,8,31,49,0.696,0.0,658,4.87,13.2,0.0,1,33.9,2.23,7.2,0,0,0,1,0,0,250,250,0,49.330925,8.565021,0.0,92.1,9,2,1.6,0,0.0,-1,0.0,,0.0,0,0.0,0.229
13763,1629385893749,,,246,250,237,233,,-0.07,0.04,1.32,-0,2,2,0.08,,68,7014,8,31,49,0.697,0.0,655,4.81,13.0,0.0,1,34.1,2.22,7.2,0,0,0,1,0,,,,,,,,,,,,,,,,,,,,
13783,1629385893769,,,246,250,238,233,,-0.05,0.04,1.48,-0,-0,-0,0.06,,68,7017,8,31,50,0.698,0.0,657,4.98,13.1,0.0,1,34.4,1.1,7.2,0,0,0,1,0,,,,,,,,,,,,,,,,,,,,
13803,1629385893789,,,246,248,238,233,,-0.03,0.03,1.6,-0,-0,-1,0.04,,68,7040,8,31,50,0.698,0.0,658,4.89,13.2,0.0,1,34.5,1.1,7.2,0,0,0,1,0,,,,,,,,,,,,,,,,,,,,
13823,1629385893809,,,246,250,238,233,,-0.07,0.05,1.48,-0,1,1,0.08,,68,7046,8,31,49,0.698,0.0,658,4.81,12.9,0.0,1,34.1,2.23,7.2,0,0,0,1,0,,,,,,,,,,,,,,,,,,,,
13843,1629385893829,3,2,246,250,237,233,2,-0.07,0.03,1.37,-0,1,0,0.07,1,68,7025,8,31,49,0.7,0.0,656,4.89,12.9,0.0,1,34.1,2.22,7.2,0,0,0,1,0,0,250,250,0,49.330925,8.565021,0.0,92.1,9,2,1.6,0,0.0,-1,0.0,0.0,0.0,0,0.0,0.2307
13863,1629385893849,,,246,250,238,233,,-0.03,0.02,1.57,-0,-1,-1,0.03,,68,7025,8,31,49,0.7,0.0,663,4.91,13.1,0.0,1,34.1,1.1,7.2,0,0,0,1,0,,,,,,,,,,,,,,,,,,,,
13883,1629385893869,,,246,250,238,233,,-0.05,0.01,1.45,-0,1,1,0.05,,68,7030,8,31,50,0.699,0.0,661,4.87,13.1,0.0,1,34.4,2.22,7.2,0,0,0,1,0,,,,,,,,,,,,,,,,,,,,
13903,1629385893891,,,247,250,238,233,,-0.06,0.05,1.43,-0,0,1,0.08,,68,7062,8,31,50,0.7,0.0,660,4.87,12.9,0.0,1,34.5,1.11,7.2,0,0,0,1,0,,,,,,,,,,,,,,,,,,,,
13923,1629385893911,,,247,250,238,233,,-0.04,0.04,1.49,-0,-0,-0,0.05,,68,7083,8,31,49,0.701,0.0,663,4.86,13.2,0.0,1,34.2,1.11,7.2,0,0,0,1,0,,,,,,,,,,,,,,,,,,,,
13943,1629385893931,3,3,247,250,238,233,3,-0.01,0.02,1.68,-0,-1,-1,0.03,1,68,7123,8,31,49,0.699,0.0,663,4.85,13.2,0.0,1,34.3,2.23,7.2,0,0,0,1,0,0,250,250,0,49.330925,8.565021,0.0,92.1,9,2,1.6,0,0.0,-1,0.0,,0.0,0,0.0,0.2324
13963,1629385893951,,,247,250,238,233,,-0.06,-0.01,1.55,-0,1,2,0.06,,68,7123,8,31,49,0.699,0.0,658,4.87,12.9,0.0,1,34.3,2.23,7.3,0,0,0,1,0,,,,,,,,,,,,,,,,,,,,
13983,1629385893971,,,247,250,238,233,,-0.07,-0.01,1.45,-0,0,0,0.07,,68,7118,8,31,49,0.699,0.0,660,4.91,12.9,0.0,1,34.3,1.11,7.3,0,0,0,1,0,,,,,,,,,,,,,,,,,,,,
14003,1629385893991,,,246,250,237,233,,-0.03,-0.04,1.65,-0,-1,-1,0.05,,68,7126,8,31,50,0.699,0.0,665,4.91,13.1,0.0,1,34.7,2.24,7.3,0,0,0,1,0,,,,,,,,,,,,,,,,,,,,
14023,1629385894003,,,247,248,238,233,,-0.02,-0.04,1.57,-0,-1,-1,0.05,,68,7134,8,31,49,0.698,0.0,664,4.83,13.1,0.0,1,34.4,2.24,7.3,0,0,0,1,0,,,,,,,,,,,,,,,,,,,,
14043,1629385894023,4,4,247,250,238,233,3,-0.06,-0.02,1.44,-0,0,-0,0.06,1,68,7078,8,31,49,0.701,0.0,659,4.84,12.9,0.0,1,34.2,2.23,7.3,0,0,0,1,0,0,250,250,0,49.330921,8.565025,0.0,88.1,10,2,1.3,0,0.0,-1,0.0,0.0,0.0,0,0.0,0.234
14063,1629385894043,,,246,250,238,233,,-0.06,-0.0,1.33,-0,1,-0,0.06,,68,7113,8,31,49,0.701,0.0,655,4.93,13.1,0.0,1,34.3,1.11,7.3,0,0,0,1,0,,,,,,,,,,,,,,,,,,,,
14083,1629385894063,,,247,250,237,233,,-0.02,-0.01,1.54,-0,-1,-2,0.02,,68,7067,8,31,49,0.7,0.0,655,4.89,13.1,0.0,1,34.2,1.1,7.3,0,0,0,1,0,,,,,,,,,,,,,,,,,,,,
14103,1629385894091,,,247,249,238,233,,-0.04,-0.03,1.42,-0,1,0,0.05,,68,7040,8,31,49,0.7,0.0,661,4.81,13.1,0.0,1,34.1,2.22,7.3,0,0,0,1,0,,,,,,,,,,,,,,,,,,,,
14123,1629385894111,,,247,250,237,233,,-0.06,0.0,1.31,-0,1,1,0.06,,68,7075,8,31,50,0.699,0.0,660,4.91,13.0,0.0,1,34.5,2.23,7.3,0,0,0,1,0,,,,,,,,,,,,,,,,,,,,
14143,1629385894131,4,4,246,250,238,233,1,-0.03,-0.01,1.44,-0,-0,-0,0.03,1,68,7038,8,31,50,0.698,0.0,662,4.93,13.1,0.0,1,34.5,1.1,7.3,0,0,0,1,0,0,250,250,0,49.330921,8.565025,0.0,88.1,10,2,1.3,0,0.0,-1,0.0,,0.0,0,0.0,0.2357
14163,1629385894151,,,247,250,238,233,,-0.02,0.01,1.53,-0,-1,-1,0.03,,68,7062,8,31,50,0.699,0.0,664,4.83,13.2,0.0,1,34.5,2.23,7.2,0,0,0,1,0,,,,,,,,,,,,,,,,,,,,
14183,1629385894171,,,247,250,238,233,,-0.07,-0.01,1.41,-0,1,1,0.07,,68,7043,8,31,50,0.698,0.0,660,4.9,13.0,0.0,1,34.5,2.22,7.2,0,0,0,1,0,,,,,,,,,,,,,,,,,,,,
14203,1629385894191,,,247,250,238,233,,-0.04,-0.0,1.61,-0,-1,-1,0.04,,68,7054,8,31,50,0.698,0.0,657,4.96,13.0,0.0,1,34.5,2.23,7.2,0,0,0,1,0,,,,,,,,,,,,,,,,,,,,
14223,1629385894211,,,246,250,238,233,,-0.02,-0.04,1.6,-0,-0,-1,0.04,,68,7064,8,31,50,0.698,0.0,662,4.94,13.2,0.0,1,34.5,1.11,7.2,0,0,0,1,0,,,,,,,,,,,,,,,,,,,,
14243,1629385894231,4,4,247,250,238,233,2,-0.05,-0.0,1.48,-0,0,0,0.05,1,68,7067,8,31,50,0.699,0.0,660,4.8,13.1,0.0,1,34.5,2.23,7.2,0,0,0,1,0,0,250,250,0,49.330921,8.565025,0.0,88.1,10,2,1.3,0,0.0,-1,0.0,0.0,0.0,0,0.0,0.2374
14263,1629385894251,,,247,250,238,233,,-0.05,0.01,1.37,-0,1,1,0.05,,68,7094,8,31,50,0.699,0.0,665,4.88,12.9,0.0,1,34.6,2.24,7.3,0,0,0,1,0,,,,,,,,,,,,,,,,,,,,
14283,1629385894271,,,246,250,238,233,,-0.02,0.02,1.55,-0,-1,-1,0.02,,68,7072,8,31,50,0.697,0.0,657,4.91,13.1,0.0,1,34.5,2.23,7.3,0,0,0,1,0,,,,,,,,,,,,,,,,,,,,
14303,1629385894291,,,246,250,238,233,,-0.02,0.02,1.6,-0,-0,-1,0.03,,68,7078,8,31,50,0.695,0.0,660,4.81,13.2,0.0,1,34.5,2.23,7.3,0,0,0,1,0,,,,,,,,,,,,,,,,,,,,
14323,1629385894311,,,246,250,238,233,,-0.07,0.03,1.47,-0,1,1,0.08,,68,7001,8,31,50,0.696,0.0,653,4.85,12.9,0.0,1,34.4,2.22,7.3,0,0,0,1,0,,,,,,,,,,,,,,,,,,,,
14343,1629385894331,3,4,246,250,238,233,2,-0.03,0.0,1.67,-0,-1,-1,0.03,1,68,6962,8,31,50,0.697,0.0,656,4.98,13.1,0.0,1,34.3,1.11,7.3,0,0,0,1,0,0,250,250,0,49.330921,8.565025,0.0,88.1,10,2,1.3,0,0.0,-1,0.0,,0.0,0,0.0,0.239
14363,1629385894351,,,247,250,238,233,,-0.04,0.01,1.54,-0,-0,-1,0.04,,68,6954,8,31,49,0.698,0.0,658,4.75,13.0,0.0,1,33.9,2.23,7.1,0,0,0,1,0,,,,,,,,,,,,,,,,,,,,
14383,1629385894371,,,246,250,238,233,,-0.05,0.02,1.44,-0,0,0,0.05,,68,6916,8,31,50,0.7,0.0,661,4.86,12.9,0.0,1,34.2,1.11,7.1,0,0,0,1,0,,,,,,,,,,,,,,,,,,,,
14403,1629385894391,,,246,250,237,233,,-0.01,0.03,1.64,-0,-1,-1,0.03,,68,6939,8,31,50,0.7,0.0,662,4.84,13.2,0.0,1,34.2,2.23,7.1,0,0,0,1,0,,,,,,,,,,,,,,,,,,,,
14423,1629385894410,,,246,250,237,233,,-0.06,0.01,1.51,-0,1,1,0.06,,68,6883,8,31,50,0.701,0.0,656,4.86,12.9,0.0,1,34.1,2.24,7.1,0,0,0,1,0,,,,,,,,,,,,,,,,,,,,
14443,1629385894430,4,4,246,250,238,233,3,-0.02,0.02,1.7,-0,-1,-2,0.03,1,68,6911,8,31,50,0.703,0.0,659,4.98,13.1,0.0,1,34.2,2.23,7.1,0,0,0,1,0,0,250,250,0,49.330921,8.565025,0.0,88.1,10,2,1.3,0,0.0,-1,0.0,0.0,0.0,0,0.0,0.2407
14463,1629385894450,,,246,250,237,233,,-0.02,-0.0,1.57,-0,0,-1,0.02,,68,6921,8,31,50,0.703,0.0,662,4.8,13.0,0.0,1,34.2,2.23,7.1,0,0,0,1,0,,,,,,,,,,,,,,,,,,,,
14483,1629385894470,,,246,250,238,233,,-0.05,0.02,1.45,-0,1,0,0.05,,68,6954,8,31,50,0.702,0.0,656,4.85,12.9,0.0,1,34.2,1.11,7.1,0,0,0,1,0,,,,,,,,,,,,,,,,,,,,
14503,1629385894490,,,246,250,237,233,,-0.01,0.01,1.59,-0,-1,-1,0.02,,68,7014,8,31,50,0.704,0.0,661,4.88,13.2,0.0,1,34.4,2.22,7.1,0,0,0,1,0,,,,,,,,,,,,,,,,,,,,
14523,1629385894510,,,247,250,238,233,,-0.02,0.02,1.65,-0,-1,-1,0.03,,68,7083,8,31,50,0.704,0.0,661,4.8,13.2,0.0,1,34.5,2.23,7.1,0,0,0,1,0,,,,,,,,,,,,,,,,,,,,
14543,1629385894530,3,3,247,250,238,233,3,-0.06,-0.0,1.53,-0,1,1,0.06,1,68,7104,8,31,50,0.704,0.0,658,4.86,13.0,0.0,1,34.6,2.24,7.1,0,0,0,1,0,0,250,250,0,49.330921,8.565025,0.0,88.1,10,2,1.3,0,0.0,-1,0.0,,0.0,0,0.0,0.2424
14563,1629385894550,,,246,250,237,233,,-0.04,-0.01,1.7,-0,-0,-0,0.04,,68,7123,8,31,50,0.705,0.0,655,4.9,12.9,0.0,1,34.6,1.12,7.4,0,0,0,1,0,,,,,,,,,,,,,,,,,,,,
14583,1629385894570,,,246,250,237,233,,-0.02,-0.0,1.83,-0,-1,-2,0.02,,68,7164,8,31,50,0.706,0.0,660,4.86,13.2,0.0,1,34.8,2.25,7.4,0,0,0,1,0,,,,,,,,,,,,,,,,,,,,
14603,1629385894590,,,246,250,237,233,,-0.0,-0.03,1.85,-0,-1,-2,0.03,,68,7186,8,31,50,0.705,0.0,661,4.78,13.1,0.0,1,34.8,2.25,7.4,0,0,0,1,0,,,,,,,,,,,,,,,,,,,,
14623,1629385894610,,,246,250,238,233,,0.01,-0.02,2.0,-0,-1,-2,0.03,,68,7189,8,31,50,0.705,0.0,663,4.79,13.1,0.0,1,34.9,2.25,7.4,0,0,0,1,0,,,,,,,,,,,,,,,,,,,,
14643,1629385894630,3,4,246,250,238,233,2,-0.03,-0.03,1.85,-0,1,0,0.04,1,68,7228,8,31,50,0.705,0.0,661,4.83,12.9,0.0,1,34.9,2.26,7.4,0,0,0,1,0,0,250,250,0,49.330921,8.565025,0.0,88.1,10,2,1.3,0,0.0,-1,0.0,0.0,0.0,0,0.0,0.244
14663,1629385894650,,,246,250,238,233,,-0.06,-0.01,1.7,-0,-0,-2,0.06,,68,7211,8,31,49,0.704,0.0,661,4.88,13.1,0.0,1,34.6,2.25,7.5,0,0,0,1,0,,,,,,,,,,,,,,,,,,,,
14683,1629385894670,,,246,250,238,233,,-0.05,-0.01,1.79,-0,-1,-3,0.05,,68,7219,8,31,49,0.705,0.0,659,4.93,13.1,0.0,1,34.6,1.14,7.5,0,0,0,1,0,,,,,,,,,,,,,,,,,,,,
14703,1629385894690,,,247,250,238,233,,-0.03,-0.04,1.82,-0,-1,-3,0.05,,68,7225,8,31,49,0.705,0.0,666,4.81,13.1,0.0,1,34.6,2.26,7.5,0,0,0,1,0,,,,,,,,,,,,,,,,,,,,
14723,1629385894710,,,247,250,238,233,,-0.0,-0.03,1.97,-0,-1,-3,0.03,,68,7253,8,31,49,0.705,0.0,662,4.83,12.9,0.0,1,34.7,2.26,7.5,0,0,0,1,0,,,,,,,,,,,,,,,,,,,,
14743,1629385894730,4,2,246,250,237,233,2,-0.01,-0.03,1.85,-0,0,-1,0.03,1,68,7278,8,31,49,0.706,0.0,662,4.9,12.9,0.0,1,34.7,2.26,7.5,0,0,0,1,0,0,250,250,0,49.330921,8.565025,0.0,88.1,10,2,1.3,0,0.0,-1,0.0,,0.0,0,0.0,0.2457
14763,1629385894750,,,247,250,237,233,,-0.03,-0.02,1.71,-0,1,-1,0.04,,68,7298,8,31,49,0.706,0.0,663,4.93,12.9,0.0,1,34.8,1.15,7.6,0,0,0,1,0,,,,,,,,,,,,,,,,,,,,
14783,1629385894770,,,246,250,238,233,,-0.05,0.02,1.59,-0,1,-0,0.06,,68,7378,8,31,49,0.705,0.0,662,4.87,12.9,0.0,1,35.0,1.16,7.6,0,0,0,1,0,,,,,,,,,,,,,,,,,,,,
14803,1629385894790,,,247,250,237,233,,-0.07,0.04,1.46,-0,1,0,0.08,,68,7440,8,31,49,0.705,0.0,668,5.0,13.1,0.0,1,35.2,1.17,7.6,0,0,0,1,0,,,,,,,,,,,,,,,,,,,,
14823,1629385894810,,,246,250,238,233,,-0.09,0.03,1.35,-0,1,0,0.09,,68,7476,8,31,48,0.705,0.0,666,4.92,13.0,0.0,1,35.2,1.17,7.6,0,0,0,1,0,,,,,,,,,,,,,,,,,,,,
14843,1629385894830,3,5,247,250,237,233,2,-0.1,0.07,1.26,-0,0,-1,0.12,1,68,7563,8,31,48,0.705,0.0,668,4.88,13.0,0.0,1,35.3,1.18,7.6,0,0,0,1,0,0,250,250,0,49.330921,8.565025,0.0,88.1,10,2,1.3,0,0.0,-1,0.0,0.0,0.0,0,0.0,0.2474
14863,1629385894850,,,247,250,238,233,,-0.09,0.13,1.28,-0,1,0,0.16,,68,7640,8,31,48,0.705,0.0,666,4.85,12.9,0.0,1,35.6,1.2,8.1,0,0,0,1,0,,,,,,,,,,,,,,,,,,,,
14883,1629385894870,,,247,250,237,233,,-0.08,0.13,1.28,-0,3,2,0.15,,68,7757,8,31,47,0.704,0.0,674,4.83,12.9,0.0,1,35.8,2.32,8.1,0,0,0,1,0,,,,,,,,,,,,,,,,,,,,
14903,1629385894890,,,246,250,238,233,,-0.07,0.08,1.45,-0,3,2,0.1,,68,7851,8,31,46,0.704,0.0,672,4.82,12.9,0.0,1,35.4,2.33,8.1,0,0,0,1,0,,,,,,,,,,,,,,,,,,,,
14923,1629385894904,,,246,250,238,233,,-0.07,0.03,1.34,-0,3,2,0.07,,68,7941,8,31,46,0.705,0.0,674,4.89,13.1,0.0,1,35.7,1.22,8.1,0,0,0,1,0,,,,,,,,,,,,,,,,,,,,
14943,1629385894924,4,2,247,250,237,233,2,-0.07,0.09,1.23,-0,4,4,0.12,1,68,8078,8,31,45,0.704,0.0,676,4.93,12.9,0.0,1,35.2,2.4,8.1,0,0,0,1,0,0,250,250,0,49.330921,8.565025,0.0,88.1,10,2,1.3,0,0.0,-1,0.0,,0.0,0,0.0,0.249
14963,1629385894944,,,246,250,237,233,,-0.07,0.06,1.41,-0,4,3,0.1,,68,8177,8,31,44,0.703,0.0,679,4.84,13.1,0.0,1,34.6,2.51,9.4,0,0,0,1,0,,,,,,,,,,,,,,,,,,,,
14983,1629385894964,,,246,250,237,233,,-0.08,0.12,1.3,-0,4,6,0.14,,68,8281,8,31,43,0.703,0.0,682,4.86,13.1,0.0,1,34.1,2.62,9.4,0,0,0,1,0,,,,,,,,,,,,,,,,,,,,
15003,1629385894984,,,246,250,238,233,,-0.07,0.1,1.35,-0,4,2,0.12,,68,8404,8,31,41,0.703,0.0,681,4.85,13.1,0.0,1,33.0,2.7,9.4,0,0,0,1,0,,,,,,,,,,,,,,,,,,,,
15023,1629385895002,,,246,250,238,233,,-0.08,0.07,1.44,-0,4,2,0.11,,68,8514,8,31,40,0.704,0.0,674,4.9,13.0,0.0,1,32.6,2.75,9.4,0,0,0,1,0,,,,,,,,,,,,,,,,,,,,
15043,1629385895022,3,3,246,250,238,233,2,-0.07,0.15,1.33,-0,3,5,0.16,1,68,8585,8,31,39,0.705,0.0,678,4.86,13.0,0.0,1,32.0,2.73,9.4,0,0,0,1,0,0,250,250,0,49.330921,8.565026,0.0,86.5,11,2,1.3,0,0.0,-1,0.0,0.0,0.0,0,0.0,0.2507
15063,1629385895042,,,246,250,237,233,,-0.06,0.16,1.33,-0,3,2,0.17,,68,8664,8,31,38,0.706,0.0,681,4.83,13.1,0.0,1,31.7,2.68,10.9,0,0,0,1,0,,,,,,,,,,,,,,,,,,,,
15083,1629385895062,,,247,250,237,233,,-0.08,0.07,1.54,-0,1,-2,0.11,,68,8704,8,31,37,0.706,0.0,686,4.87,12.9,0.0,1,31.4,2.64,10.9,0,0,0,1,0,,,,,,,,,,,,,,,,,,,,
15103,1629385895082,,,247,250,238,233,,-0.08,-0.0,1.65,-0,1,-1,0.08,,68,8684,8,31,37,0.706,0.0,678,4.81,12.9,0.0,1,31.4,2.64,10.9,0,0,0,1,0,,,,,,,,,,,,,,,,,,,,
15123,1629385895108,,,246,250,238,233,,-0.07,0.06,1.53,-0,3,3,0.09,,68,8684,8,31,37,0.706,0.0,679,4.85,12.9,0.0,1,31.4,2.64,10.9,0,0,0,1,0,,,,,,,,,,,,,,,,,,,,
15143,1629385895128,4,4,246,250,237,233,2,-0.06,0.11,1.41,-0,2,4,0.13,1,68,8612,8,31,36,0.707,0.0,673,4.81,13.0,0.0,1,31.1,1.49,10.9,0,0,0,1,0,0,250,250,0,49.330921,8.565026,0.0,86.5,11,2,1.3,0,0.0,-1,0.0,,0.0,0,0.0,0.2524
15163,1629385895148,,,247,250,238,233,,-0.06,0.06,1.35,-0,2,0,0.08,,68,8538,8,31,36,0.706,0.0,681,4.85,13.1,0.0,1,31.1,2.61,10.3,0,0,0,1,0,,,,,,,,,,,,,,,,,,,,
15183,1629385895168,,,246,250,238,233,,-0.07,0.09,1.27,-0,3,2,0.11,,68,8461,8,31,36,0.707,0.0,673,4.88,12.9,0.0,1,31.0,2.57,10.3,0,0,0,1,0,,,,,,,,,,,,,,,,,,,,
15203,1629385895188,,,246,250,238,233,,-0.07,0.07,1.27,-0,2,2,0.1,,68,8333,8,31,36,0.708,0.0,672,4.9,13.0,0.0,1,30.7,1.32,10.3,0,0,0,1,0,,,,,,,,,,,,,,,,,,,,
15223,1629385895208,,,246,250,237,233,,-0.06,0.11,1.46,-0,2,1,0.12,,68,8216,8,31,36,0.707,0.0,673,4.93,12.9,0.0,1,30.5,2.34,10.3,0,0,0,1,0,,,,,,,,,,,,,,,,,,,,
15243,1629385895228,3,4,246,250,237,233,2,-0.04,0.06,1.5,-0,1,-0,0.07,1,68,8061,8,31,36,0.707,0.0,677,4.86,13.1,0.0,1,30.2,1.07,10.3,0,0,0,1,0,0,250,250,0,49.330921,8.565026,0.0,86.5,11,2,1.3,0,0.0,-1,0.0,0.0,0.0,0,0.0,0.254
15263,1629385895248,,,247,250,237,233,,-0.06,0.1,1.42,-0,1,0,0.12,,68,7918,8,31,37,0.706,0.0,667,4.9,13.0,0.0,1,30.4,1.06,7.8,0,0,0,1,0,,,,,,,,,,,,,,,,,,,,
15283,1629385895268,,,246,250,237,233,,-0.06,0.14,1.48,-0,1,1,0.15,,68,7809,8,31,37,0.705,0.0,671,4.82,12.9,0.0,1,30.4,2.18,7.8,0,0,0,1,0,,,,,,,,,,,,,,,,,,,,
15303,1629385895288,,,247,250,238,233,,-0.05,0.16,1.57,-0,2,1,0.16,,68,7668,8,31,38,0.704,0.0,668,4.85,13.1,0.0,1,30.7,2.23,7.8,0,0,0,1,0,,,,,,,,,,,,,,,,,,,,
15323,1629385895308,,,246,250,237,233,,-0.03,0.12,1.66,-0,3,1,0.12,,68,7578,8,31,39,0.703,0.0,668,4.86,12.9,0.0,1,31.0,2.29,7.8,0,0,0,1,0,,,,,,,,,,,,,,,,,,,,
15343,1629385895328,3,4,246,250,238,233,2,-0.01,0.04,1.63,-0,2,1,0.04,1,68,7548,8,31,39,0.703,0.0,663,4.73,13.1,0.0,1,31.0,2.29,7.8,0,0,0,1,0,0,250,250,0,49.330921,8.565026,0.0,86.5,11,2,1.3,0,0.0,-1,0.0,,0.0,0,0.0,0.2557
15363,1629385895348,,,247,250,238,233,,0.01,-0.01,1.81,-0,1,-1,0.02,,68,7554,8,31,40,0.703,0.0,665,4.79,13.0,0.0,1,31.5,2.29,8.0,0,0,0,1,0,,,,,,,,,,,,,,,,,,,,
15383,1629385895368,,,246,250,238,233,,0.03,-0.0,1.98,-0,-1,-3,0.03,,68,7566,8,31,40,0.702,0.0,665,4.83,13.1,0.0,1,31.5,2.29,8.0,0,0,0,1,0,,,,,,,,,,,,,,,,,,,,
15403,1629385895388,,,247,250,237,233,,0.03,-0.02,2.13,-0,-2,-3,0.04,,68,7578,8,31,41,0.702,0.0,669,4.81,13.1,0.0,1,32.0,2.29,8.0,0,0,0,1,0,,,,,,,,,,,,,,,,,,,,
15423,1629385895407,,,246,250,237,233,,0.04,-0.08,2.01,-0,-1,-2,0.09,,68,7563,8,31,41,0.702,0.0,672,4.81,13.1,0.0,1,32.0,1.17,8.0,0,0,0,1,0,,,,,,,,,,,,,,,,,,,,
15443,1629385895427,4,2,247,250,238,233,3,0.04,-0.1,1.91,-0,-2,-3,0.1,1,68,7575,8,31,41,0.701,0.0,671,4.89,13.1,0.0,1,32.0,2.29,8.0,0,0,0,1,0,0,250,250,0,49.330921,8.565026,0.0,86.5,11,2,1.3,0,0.0,-1,0.0,0.0,0.0,0,0.0,0.2574
15463,1629385895447,,,247,250,238,233,,0.03,-0.08,1.89,-0,-3,-5,0.09,,68,7597,8,31,42,0.701,0.0,666,4.92,13.1,0.0,1,32.6,2.29,8.0,0,0,0,1,0,,,,,,,,,,,,,,,,,,,,
15483,1629385895467,,,247,250,238,233,,0.02,-0.07,1.97,-0,-4,-5,0.07,,68,7618,8,31,42,0.701,0.0,666,4.85,13.1,0.0,1,32.6,1.17,8.0,0,0,0,1,0,,,,,,,,,,,,,,,,,,,,
15503,1629385895487,,,246,250,237,233,,0.0,-0.04,1.83,-0,-3,-4,0.04,,68,7637,8,31,43,0.701,0.0,670,5.03,13.1,0.0,1,33.2,2.29,8.0,0,0,0,1,0,,,,,,,,,,,,,,,,,,,,
15523,1629385895507,,,246,248,237,233,,-0.02,0.02,1.69,-0,-1,-1,0.03,,68,7674,8,31,42,0.701,0.0,666,4.9,12.9,0.0,1,32.6,1.17,8.0,0,0,0,1,0,,,,,,,,,,,,,,,,,,,,
15543,1629385895527,3,4,246,250,238,233,2,-0.04,0.03,1.56,-0,0,0,0.05,1,68,7700,8,31,42,0.701,0.0,665,4.93,13.0,0.0,1,32.7,2.29,8.0,0,0,0,1,0,0,250,250,0,49.330921,8.565026,0.0,86.5,11,2,1.3,0,0.0,-1,0.0,,0.0,0,0.0,0.259
15563,1629385895547,,,247,250,238,233,,-0.05,0.01,1.44,-0,1,0,0.05,,68,7631,8,31,43,0.703,0.0,666,4.92,13.3,0.0,1,33.2,2.29,8.2,0,0,0,1,0,,,,,,,,,,,,,,,,,,,,
15583,1629385895567,,,247,250,238,233,,-0.06,0.04,1.49,-0,1,0,0.07,,68,7408,8,31,43,0.706,0.0,662,4.9,13.2,0.0,1,32.8,2.28,8.2,0,0,0,1,0,,,,,,,,,,,,,,,,,,,,
15603,1629385895587,,,247,250,237,233,,-0.1,0.07,1.37,-0,2,2,0.12,,68,7170,8,31,43,0.711,0.0,664,4.87,13.0,0.0,1,32.4,2.27,8.2,0,0,0,1,0,,,,,,,,,,,,,,,,,,,,
15623,1629385895607,,,246,250,238,233,,-0.05,0.04,1.51,-0,0,-0,0.07,,68,6983,8,31,44,0.715,0.0,652,4.92,13.0,0.0,1,32.4,2.26,8.2,0,0,0,1,0,,,,,,,,,,,,,,,,,,,,
15643,1629385895627,2,4,247,250,237,233,2,-0.06,0.06,1.39,-0,2,2,0.08,1,68,6766,8,31,44,0.715,0.0,651,4.88,13.1,0.0,1,32.0,2.27,8.2,0,0,0,1,0,0,250,250,0,49.330921,8.565026,0.0,86.5,11,2,1.3,0,0.0,-1,0.0,0.0,0.0,0,0.0,0.2607
15663,1629385895647,,,247,250,238,233,,-0.01,0.04,1.59,-0,-1,-1,0.05,,68,6679,8,31,45,0.719,0.0,651,4.96,13.1,0.0,1,32.1,1.15,7.0,0,0,0,1,0,,,,,,,,,,,,,,,,,,,,
15683,1629385895667,,,246,250,238,233,,-0.07,0.06,1.47,-0,2,2,0.09,,68,6651,8,31,45,0.718,0.0,648,4.82,13.0,0.0,1,32.0,2.27,7.0,0,0,0,1,0,,,,,,,,,,,,,,,,,,,,
15703,1629385895687,,,246,250,238,233,,-0.03,0.04,1.66,-0,-0,-1,0.05,,68,6742,8,31,46,0.718,0.0,649,4.88,13.1,0.0,1,32.5,2.26,7.0,0,0,0,1,0,,,,,,,,,,,,,,,,,,,,
15723,1629385895707,,,246,250,237,233,,-0.07,0.05,1.53,-0,2,2,0.08,,68,6830,8,31,46,0.717,0.0,650,4.86,12.9,0.0,1,32.7,2.25,7.0,0,0,0,1,0,,,,,,,,,,,,,,,,,,,,
15743,1629385895727,3,3,247,250,238,233,2,-0.03,0.03,1.64,-0,-0,1,0.05,1,68,6868,8,31,47,0.717,0.0,657,4.91,13.1,0.0,1,33.1,2.25,7.0,0,0,0,1,0,0,250,250,0,49.330921,8.565026,0.0,86.5,11,2,1.3,0,0.0,-1,0.0,,0.0,0,0.0,0.2624
15763,1629385895747,,,246,250,238,233,,-0.02,0.06,1.7,-0,-0,0,0.07,,68,6916,8,31,47,0.716,0.0,658,4.88,13.2,0.0,1,33.2,2.23,7.1,0,0,0,1,0,,,,,,,,,,,,,,,,,,,,
15783,1629385895767,,,246,250,238,233,,-0.07,0.03,1.57,-0,1,1,0.07,,68,6983,8,31,47,0.715,0.0,656,4.85,12.9,0.0,1,33.3,1.11,7.1,0,0,0,1,0,,,,,,,,,,,,,,,,,,,,
15803,1629385895787,,,247,250,238,233,,-0.02,0.03,1.75,-0,-2,-2,0.04,,68,7004,8,31,48,0.714,0.0,658,4.92,13.1,0.0,1,33.7,2.22,7.1,0,0,0,1,0,,,,,,,,,,,,,,,,,,,,
15823,1629385895807,,,247,250,238,233,,-0.04,0.02,1.62,-0,0,1,0.04,,68,7040,8,31,48,0.71,0.0,653,4.83,13.2,0.0,1,33.8,2.22,7.1,0,0,0,1,0,,,,,,,,,,,,,,,,,,,,
15843,1629385895827,3,4,246,250,238,233,2,-0.06,0.05,1.49,-0,0,1,0.08,1,68,7048,8,31,48,0.706,0.0,652,4.83,12.9,0.0,1,33.8,2.22,7.1,0,0,0,1,0,0,250,250,0,49.330921,8.565026,0.0,86.5,11,2,1.3,0,0.0,-1,0.0,0.0,0.0,0,0.0,0.264
15863,1629385895847,,,246,250,238,233,,-0.04,0.03,1.53,-0,-1,1,0.05,,68,7067,8,31,48,0.7,0.0,655,4.91,13.2,0.0,1,33.9,2.22,7.2,0,0,0,1,0,,,,,,,,,,,,,,,,,,,,
15883,1629385895867,,,246,250,238,233,,-0.01,0.03,1.67,-0,-1,-0,0.03,,68,7096,8,31,48,0.697,0.0,655,4.88,13.2,0.0,1,34.0,2.23,7.2,0,0,0,1,0,,,,,,,,,,,,,,,,,,,,
15903,1629385895887,,,246,250,237,233,,-0.05,0.01,1.54,-0,1,2,0.05,,68,7048,8,31,48,0.695,0.0,655,4.85,13.0,0.0,1,33.8,2.22,7.2,0,0,0,1,0,,,,,,,,,,,,,,,,,,,,
15923,1629385895907,,,246,250,237,233,,-0.05,0.01,1.47,-0,0,0,0.05,,68,7075,8,31,49,0.693,0.0,652,4.89,13.0,0.0,1,34.2,2.23,7.2,0,0,0,1,0,,,,,,,,,,,,,,,,,,,,
15943,1629385895927,4,4,246,250,237,233,3,-0.03,-0.02,1.66,-0,-1,-1,0.03,1,68,7046,8,31,49,0.695,0.0,659,4.85,13.2,0.0,1,34.1,1.1,7.2,0,0,0,1,0,0,250,250,0,49.330921,8.565026,0.0,86.5,11,2,1.3,0,0.0,-1,0.0,,0.0,0,0.0,0.2657
15963,1629385895947,,,247,250,237,233,,-0.03,-0.01,1.56,-0,-0,-0,0.04,,68,7051,8,31,48,0.694,0.0,661,4.86,13.1,0.0,1,33.8,2.22,7.2,0,0,0,1,0,,,,,,,,,,,,,,,,,,,,
15983,1629385895967,,,247,250,238,233,,-0.06,-0.01,1.44,-0,0,0,0.06,,68,7006,8,31,49,0.696,0.0,655,4.9,13.1,0.0,1,34.0,2.22,7.2,0,0,0,1,0,,,,,,,,,,,,,,,,,,,,
16003,1629385895987,,,246,250,238,233,,-0.03,-0.01,1.63,-0,-1,-2,0.03,,68,6991,8,31,49,0.697,0.0,656,4.88,13.1,0.0,1,34.0,1.11,7.2,0,0,0,1,0,,,,,,,,,,,,,,,,,,,,
16023,1629385895999,,,247,250,237,233,,-0.04,-0.01,1.51,-0,0,0,0.04,,68,7009,8,31,49,0.698,0.0,657,4.8,12.9,0.0,1,34.1,2.22,7.2,0,0,0,1,0,,,,,,,,,,,,,,,,,,,,
16043,1629385896019,2,4,246,250,237,233,3,-0.07,-0.0,1.39,-0,0,0,0.07,1,68,6985,8,31,49,0.7,0.0,658,4.85,12.9,0.0,1,34.0,2.22,7.2,0,0,0,1,0,0,250,250,0,49.330921,8.565026,0.0,86.5,11,2,1.3,0,0.0,-1,0.0,0.0,0.0,0,0.0,0.2674
16063,1629385896039,,,246,248,238,233,,-0.04,-0.02,1.59,-0,-1,-1,0.05,,68,7027,8,31,49,0.701,0.0,662,4.91,13.1,0.0,1,34.1,2.22,7.2,0,0,0,1,0,,,,,,,,,,,,,,,,,,,,
16083,1629385896059,,,247,250,237,233,,-0.04,-0.02,1.47,-0,-0,-1,0.04,,68,7038,8,31,49,0.701,0.0,659,4.83,13.2,0.0,1,34.1,2.22,7.2,0,0,0,1,0,,,,,,,,,,,,,,,,,,,,
16103,1629385896079,,,247,250,237,233,,-0.07,0.01,1.36,-0,1,0,0.07,,68,7078,8,31,49,0.703,0.0,653,4.9,13.0,0.0,1,34.2,1.11,7.2,0,0,0,1,0,,,,,,,,,,,,,,,,,,,,
16123,1629385896109,,,247,250,237,233,,-0.05,0.01,1.3,-0,0,-1,0.06,,68,7088,8,31,49,0.704,0.0,652,4.91,13.0,0.0,1,34.2,1.11,7.2,0,0,0,1,0,,,,,,,,,,,,,,,,,,,,
16143,1629385896129,3,4,246,250,238,233,2,-0.02,0.03,1.51,-0,-2,-2,0.04,1,68,7113,8,31,49,0.704,0.0,661,4.8,13.1,0.0,1,34.3,1.11,7.2,0,0,0,1,0,0,250,250,0,49.330921,8.565026,0.0,86.5,11,2,1.3,0,0.0,-1,0.0,,0.0,0,0.0,0.269
16163,1629385896149,,,247,250,238,233,,-0.05,0.03,1.39,-0,0,0,0.06,,68,7094,8,31,49,0.704,0.0,659,4.81,13.1,0.0,1,34.3,2.23,7.3,0,0,0,1,0,,,,,,,,,,,,,,,,,,,,
16183,1629385896169,,,247,250,238,233,,-0.06,0.05,1.34,-0,-0,0,0.08,,68,7043,8,31,49,0.706,0.0,656,4.92,13.1,0.0,1,34.1,2.22,7.3,0,0,0,1,0,,,,,,,,,,,,,,,,,,,,
16203,1629385896189,,,246,250,238,233,,-0.03,0.01,1.47,-0,-1,-1,0.03,,68,7067,8,31,49,0.706,0.0,656,4.92,13.1,0.0,1,34.2,2.22,7.3,0,0,0,1,0,,,,,,,,,,,,,,,,,,,,
16223,1629385896207,,,246,250,237,233,,-0.02,0.03,1.47,-0,-1,-1,0.04,,68,7038,8,31,49,0.707,0.0,655,4.81,13.0,0.0,1,34.1,2.22,7.3,0,0,0,1,0,,,,,,,,,,,,,,,,,,,,
16243,1629385896227,3,4,246,250,238,233,1,-0.07,0.01,1.36,-0,1,1,0.07,1,68,7022,8,31,49,0.708,0.0,651,4.92,13.0,0.0,1,34.1,2.22,7.3,0,0,0,1,0,0,250,250,0,49.330921,8.565026,0.0,86.5,11,2,1.3,0,0.0,-1,0.0,0.0,0.0,0,0.0,0.2707
16263,1629385896247,,,246,250,237,233,,-0.03,0.01,1.56,-0,-1,-2,0.03,,68,7030,8,31,49,0.709,0.0,657,4.89,13.1,0.0,1,34.1,1.1,7.2,0,0,0,1,0,,,,,,,,,,,,,,,,,,,,
16283,1629385896267,,,246,250,237,233,,-0.03,-0.0,1.44,-0,0,-1,0.03,,68,6985,8,31,49,0.708,0.0,661,4.82,13.2,0.0,1,34.0,2.23,7.2,0,0,0,1,0,,,,,,,,,,,,,,,,,,,,
16303,1629385896287,,,246,250,237,233,,-0.06,0.03,1.33,-0,1,0,0.07,,68,6993,8,31,49,0.71,0.0,655,4.83,12.9,0.0,1,34.0,1.11,7.2,0,0,0,1,0,,,,,,,,,,,,,,,,,,,,
16323,1629385896307,,,247,250,238,233,,-0.03,0.02,1.45,-0,-1,-1,0.04,,68,7011,8,31,50,0.71,0.0,657,4.92,13.1,0.0,1,34.4,1.1,7.2,0,0,0,1,0,,,,,,,,,,,,,,,,,,,,
16343,1629385896327,4,2,247,250,237,233,2,-0.02,0.04,1.55,-0,-1,-1,0.04,1,68,7054,8,31,49,0.71,0.0,658,4.81,13.2,0.0,1,34.1,2.22,7.2,0,0,0,1,0,0,250,250,0,49.330921,8.565026,0.0,86.5,11,2,1.3,0,0.0,-1,0.0,,0.0,0,0.0,0.2724
16363,1629385896347,,,247,250,238,233,,-0.07,0.03,1.43,-0,1,1,0.07,,68,7054,8,31,50,0.711,0.0,651,4.82,13.0,0.0,1,34.5,2.22,7.2,0,0,0,1,0,,,,,,,,,,,,,,,,,,,,
16383,1629385896367,,,247,250,238,233,,-0.04,0.02,1.63,-0,-1,-1,0.04,,68,7043,8,31,50,0.713,0.0,650,4.95,13.0,0.0,1,34.5,1.11,7.2,0,0,0,1,0,,,,,,,,,,,,,,,,,,,,
16403,1629385896387,,,247,250,237,233,,-0.02,-0.02,1.63,-0,-1,-1,0.03,,68,7080,8,31,49,0.713,0.0,657,4.86,13.2,0.0,1,34.2,1.11,7.2,0,0,0,1,0,,,,,,,,,,,,,,,,,,,,
16423,1629385896408,,,247,250,238,233,,-0.04,0.01,1.51,-0,-0,-1,0.04,,68,7094,8,31,49,0.713,0.0,656,4.81,13.1,0.0,1,34.3,2.23,7.2,0,0,0,1,0,,,,,,,,,,,,,,,,,,,,
16443,1629385896428,3,3,246,250,238,233,2,-0.05,0.05,1.39,-0,0,1,0.07,1,68,7121,8,31,50,0.714,0.0,658,4.83,12.8,0.0,1,34.6,1.12,7.2,0,0,0,1,0,0,250,250,0,49.330921,8.565026,0.0,86.5,11,2,1.3,0,0.0,-1,0.0,0.0,0.0,0,0.0,0.274
16463,1629385896448,,,246,250,238,233,,-0.03,0.06,1.41,-0,0,-1,0.06,,68,7123,8,31,50,0.713,0.0,655,4.91,13.1,0.0,1,34.6,2.24,7.4,0,0,0,1,0,,,,,,,,,,,,,,,,,,,,
16483,1629385896468,,,247,250,237,233,,-0.01,0.06,1.6,-0,-2,-2,0.06,,68,7099,8,31,49,0.713,0.0,659,4.79,13.1,0.0,1,34.3,2.24,7.4,0,0,0,1,0,,,,,,,,,,,,,,,,,,,,
16503,1629385896488,,,247,250,237,233,,-0.06,0.06,1.48,-0,1,1,0.08,,68,7083,8,31,50,0.713,0.0,659,4.86,12.9,0.0,1,34.5,2.23,7.4,0,0,0,1,0,,,,,,,,,,,,,,,,,,,,
16523,1629385896508,,,246,250,238,233,,-0.05,0.07,1.52,-0,0,1,0.09,,68,7131,8,31,50,0.713,0.0,654,4.9,12.9,0.0,1,34.7,1.12,7.4,0,0,0,1,0,,,,,,,,,,,,,,,,,,,,
16543,1629385896528,4,2,247,250,237,233,2,-0.03,0.04,1.58,-0,-0,1,0.05,1,68,7148,8,31,50,0.713,0.0,660,4.92,13.1,0.0,1,34.7,2.24,7.4,0,0,0,1,0,0,250,250,0,49.330921,8.565026,0.0,86.5,11,2,1.3,0,0.0,-1,0.0,,0.0,0,0.0,0.2757
16563,1629385896548,,,247,250,237,233,,-0.01,0.04,1.7,-0,-1,-1,0.04,,68,7167,8,31,49,0.713,0.0,665,4.82,13.1,0.0,1,34.5,2.24,7.4,0,0,0,1,0,,,,,,,,,,,,,,,,,,,,
16583,1629385896568,,,247,250,238,233,,-0.04,0.04,1.57,-0,0,1,0.06,,68,7137,8,31,50,0.713,0.0,657,4.83,12.9,0.0,1,34.7,2.24,7.4,0,0,0,1,0,,,,,,,,,,,,,,,,,,,,
16603,1629385896588,,,246,250,238,233,,-0.08,0.03,1.45,-0,1,1,0.08,,68,7129,8,31,49,0.713,0.0,658,4.85,12.9,0.0,1,34.4,1.11,7.4,0,0,0,1,0,,,,,,,,,,,,,,,,,,,,
16623,1629385896608,,,246,250,237,233,,-0.08,0.06,1.37,-0,0,0,0.1,,68,7107,8,31,49,0.714,0.0,655,4.93,13.0,0.0,1,34.3,1.11,7.4,0,0,0,1,0,,,,,,,,,,,,,,,,,,,,
16643,1629385896628,3,4,247,250,237,233,2,-0.06,0.03,1.44,-0,-1,-1,0.07,1,68,7140,8,31,49,0.714,0.0,660,4.87,13.1,0.0,1,34.4,1.12,7.4,0,0,0,1,0,0,250,250,0,49.330921,8.565026,0.0,86.5,11,2,1.3,0,0.0,-1,0.0,0.0,0.0,0,0.0,0.2774
16663,1629385896648,,,246,250,238,232,,-0.04,0.05,1.61,-0,0,-0,0.07,,68,7086,8,31,49,0.713,0.0,660,4.77,13.1,0.0,1,34.2,2.23,7.3,0,0,0,1,0,,,,,,,,,,,,,,,,,,,,
16683,1629385896668,,,247,250,238,233,,-0.09,0.03,1.48,-0,1,1,0.1,,68,7070,8,31,49,0.714,0.0,652,4.93,13.1,0.0,1,34.2,2.22,7.3,0,0,0,1,0,,,,,,,,,,,,,,,,,,,,
16703,1629385896688,,,246,250,238,233,,-0.08,0.03,1.59,-0,-1,-2,0.08,,68,7075,8,31,50,0.715,0.0,653,4.92,13.1,0.0,1,34.5,1.11,7.3,0,0,0,1,0,,,,,,,,,,,,,,,,,,,,
16723,1629385896706,,,246,250,237,233,,-0.06,-0.01,1.73,-0,0,-1,0.06,,68,7075,8,31,49,0.715,0.0,653,4.9,13.2,0.0,1,34.2,2.23,7.3,0,0,0,1,0,,,,,,,,,,,,,,,,,,,,
16743,1629385896726,2,4,247,250,238,233,3,-0.06,-0.01,1.6,-0,0,1,0.06,1,68,7083,8,31,50,0.715,0.0,653,4.83,13.0,0.0,1,34.5,2.23,7.3,0,0,0,1,0,0,250,250,0,49.330921,8.565026,0.0,86.5,11,2,1.3,0,0.0,-1,0.0,,0.0,0,0.0,0.279
16763,1629385896746,,,246,250,237,233,,-0.08,0.03,1.47,-0,0,1,0.08,,68,7104,8,31,50,0.715,0.0,652,4.88,13.0,0.0,1,34.6,2.24,7.3,0,0,0,1,0,,,,,,,,,,,,,,,,,,,,
16783,1629385896766,,,246,250,238,233,,-0.06,0.03,1.42,-0,-1,-1,0.07,,68,7137,8,31,50,0.716,0.0,653,4.87,13.1,0.0,1,34.7,1.12,7.3,0,0,0,1,0,,,,,,,,,,,,,,,,,,,,
