"Interval"|"ms"|0|0|1,"Utc"|"ms"|0|0|1,"FB_p"|"bar"|0|300|50,"Volant"|"F"|0.0|300.0|50,"xFR"|"mm"|0.0|5.0|50,"xRR"|"mm"|0.0|5.0|50,"xFL"|"mm"|0.0|5.0|50,"xRL"|"mm"|0.0|5.0|50,"AccelX"|"G"|-3.0|3.0|50,"AccelY"|"G"|-3.0|3.0|50,"AccelZ"|"G"|-3.0|3.0|50,"Yaw"|"Deg/Sec"|-120|120|50,"Pitch"|"Deg/Sec"|-120|120|50,"Roll"|"Deg/Sec"|-120|120|50,"Gsum"|"G"|0.0|3.0|50,"RPM"|""|0|14000|50,"TPS"|"%"|0|100|50,"WaterTemp"|"?C"|0|300|50,"AirTemp"|"?C"|-1000|1000|50,"MAP"|"KPa"|0|255|50,"Lambda"|""|0|1024|50,"WheelSpeed"|"MPH"|0.0|150.0|50,"OilPress"|"PSI"|0|150|50,"FuelPress"|"PSI"|0|150|50,"OilTemp"|"F"|0|300|50,"Battery"|"Volts"|0.0|20.0|50,"FuelCon"|"L/h"|-1000|1000|50,"Gear"|""|0|10|50,"Advance"|"Deg"|-360|360|50,"Injection"|"ms"|-1000|1000|50,"FuelCon"|"L/100km"|-1000|1000|50,"LC_But_Pres"|""|-1000|1000|50,"LC_Active"|""|-1000|1000|50,"RD_Speed"|""|-1000|1000|50,"RUD_Speed"|""|-1000|1000|50,"LD_Speed"|""|-1000|1000|50,"LUD_Speed"|""|-1000|1000|50,"Ana1"|"bar"|-1000.0|1000.0|50,"Latitude"|"Degrees"|-180.0|180.0|10,"Longitude"|"Degrees"|-180.0|180.0|10,"Speed"|"kph"|0.0|150.0|10,"Altitude"|"m"|0.0|4000.0|10,"LapCount"|""|0|0|10,"LapTime"|"Min"|0.0|0.0|10,"Sector"|""|0|0|10,"SectorTime"|"Min"|0.0|0.0|10,"ElapsedTime"|"Min"|0.0|0.0|10,"CurrentLap"|""|0|0|10,"Distance"|"km"|0.0|0.0|10,"SessionTime"|"Min"|0.0|0.0|10
184363,1564152929063,2,2.56,0.96,0.35,1.48,1.11,0.76,-0.96,0.28,22,3,29,1.22,11653,53,88,44,55,901,606.0,666,466,60,120.0,249,1,405,338,150,0,0,619,-8188,-16046,604,-5.59,,,,,,,,,,,,
184383,1564152929083,2,2.56,0.96,0.35,1.48,1.11,0.77,-0.93,0.3,22,3,30,1.21,11689,53,88,44,55,906,606.0,657,463,60,120.0,246,1,405,338,149,0,0,631,-8188,-16883,606,-5.59,,,,,,,,,,,,
184403,1564152929093,2,2.55,0.97,0.35,1.49,1.11,0.78,-0.9,0.46,22,4,29,1.2,11704,53,88,44,55,905,604.0,665,463,60,120.0,246,1,405,339,149,0,0,618,1760,966,604,-5.59,,,,,,,,,,,,
184423,1564152929113,1,2.55,0.97,0.35,1.49,1.11,0.78,-0.9,0.61,22,4,28,1.19,11726,54,88,44,55,903,607.0,658,462,60,120.0,246,1,405,339,149,0,0,637,243,-14655,608,-5.59,,,,,,,,,,,,
184443,1564152929133,1,2.55,0.95,0.35,1.49,1.1,0.82,-0.97,0.57,22,2,28,1.27,11755,54,88,44,55,895,607.0,661,465,60,120.0,246,1,405,340,149,0,0,633,1,-18357,607,-5.59,44.681301,10.025002,59.13,176.4,0,0.0,-1,0.0,0.0,0,0.85,3.074
184463,1564152929153,3,2.56,0.97,0.35,1.49,1.11,0.78,-0.9,0.52,22,1,29,1.18,11807,54,88,44,55,885,611.0,665,462,60,120.0,246,1,405,341,149,0,0,632,-3210,771,611,-5.59,,,,,,,,,,,,
184483,1564152929173,3,2.55,0.96,0.35,1.49,1.1,0.76,-0.78,0.43,21,1,31,1.09,11837,54,88,44,55,876,610.0,667,462,60,120.0,250,1,405,341,153,0,0,639,30208,-1346,613,-5.59,,,,,,,,,,,,
184503,1564152929193,3,2.54,0.95,0.35,1.49,1.1,0.71,-0.73,0.52,22,1,30,1.02,11867,54,88,44,55,868,610.0,666,462,60,121.0,250,1,405,342,153,0,0,614,-3210,-4876,612,-5.59,,,,,,,,,,,,
184523,1564152929203,3,2.54,0.96,0.35,1.48,1.1,0.65,-0.81,0.67,22,0,30,1.04,11867,54,88,43,55,857,612.0,662,462,60,119.0,250,1,405,344,153,0,0,641,10432,3,612,-5.59,,,,,,,,,,,,
184543,1564152929223,3,2.53,0.96,0.35,1.49,1.1,0.58,-0.92,0.8,22,-0,30,1.09,11859,54,88,43,56,845,615.0,670,462,60,121.0,250,1,411,353,153,0,0,652,15649,-2580,615,-5.59,44.681286,10.025015,60.1,176.5,0,0.0,-1,0.0,0.0,0,0.85,3.0757
184563,1564152929243,3,2.53,0.96,0.35,1.49,1.11,0.61,-1.03,0.8,22,2,30,1.2,11919,54,88,43,56,836,614.0,670,460,60,121.0,250,1,411,353,153,0,0,636,10432,-5120,616,-5.59,,,,,,,,,,,,
184583,1564152929263,1,2.54,0.96,0.35,1.49,1.1,0.63,-1.13,0.87,22,4,31,1.29,11965,54,88,43,56,831,617.0,672,465,60,120.0,260,1,411,354,160,0,0,617,8488,-3584,617,-5.59,,,,,,,,,,,,
184603,1564152929298,-2,2.54,0.96,0.35,1.49,1.11,0.61,-1.21,0.98,22,5,29,1.36,11927,54,89,43,56,826,616.0,657,468,60,123.0,260,1,411,353,160,0,0,631,208,24,616,181.28,,,,,,,,,,,,
184623,1564152929318,-2,2.54,0.96,0.35,1.48,1.11,0.72,-1.27,0.88,22,4,29,1.46,11503,54,89,44,56,821,619.0,649,456,60,123.0,260,1,411,346,160,0,0,641,-12040,3,619,414.87,,,,,,,,,,,,
184643,1564152929338,0,2.53,0.95,0.35,1.49,1.1,0.81,-1.18,0.82,21,4,30,1.43,11187,54,89,44,58,819,618.0,645,460,60,123.0,260,1,426,361,160,0,0,622,208,-2580,618,181.28,44.681278,10.025025,60.32,176.5,0,0.0,-1,0.0,0.0,0,0.85,3.0774
184663,1564152929358,-0,2.53,0.96,0.35,1.48,1.11,0.71,-1.13,0.54,21,3,31,1.34,10945,54,89,44,60,819,615.0,647,462,60,122.0,260,1,442,375,160,0,0,608,-25872,-2836,617,181.28,,,,,,,,,,,,
184683,1564152929378,-2,2.54,0.96,0.34,1.48,1.11,0.69,-1.14,0.68,21,5,30,1.34,10775,54,89,43,61,821,616.0,638,461,60,120.0,252,1,450,382,156,0,0,594,-25872,-16046,616,-5.59,,,,,,,,,,,,
184703,1564152929398,3,2.52,0.96,0.35,1.49,1.1,0.76,-1.21,0.81,23,6,30,1.42,10504,54,89,43,62,824,618.0,645,458,60,120.0,252,1,449,675,156,0,0,600,208,506,618,-5.59,,,,,,,,,,,,
184723,1564152929410,0,2.53,0.96,0.35,1.48,1.1,0.77,-1.12,0.67,23,5,33,1.36,10102,55,89,43,63,826,617.0,646,458,60,119.0,252,1,414,609,156,0,0,670,-4035,-10348,619,-5.59,,,,,,,,,,,,
184743,1564152929430,2,2.53,0.96,0.35,1.49,1.11,0.73,-1.13,0.8,24,7,34,1.35,9522,55,89,43,64,828,625.0,632,467,60,122.0,252,1,414,491,156,0,0,831,-1894,-3450,628,-5.59,44.681263,10.025037,60.85,176.5,0,0.0,-1,0.0,0.0,0,0.86,3.0791
184763,1564152929450,2,2.53,0.95,0.34,1.47,1.11,0.66,-1.04,0.73,24,3,31,1.23,9479,55,89,43,62,858,633.0,637,464,60,122.0,252,1,413,433,156,0,0,763,-4035,-3038,633,-5.59,,,,,,,,,,,,
184783,1564152929470,1,2.54,0.95,0.35,1.48,1.11,0.57,-0.97,0.69,26,6,32,1.12,9605,55,89,43,61,967,627.0,631,461,60,121.0,226,1,413,379,142,0,0,657,-1894,8958,627,-5.59,,,,,,,,,,,,
184803,1564152929490,2,2.55,0.95,0.35,1.48,1.11,0.65,-1.03,0.8,26,8,32,1.21,9384,55,89,43,61,1074,630.0,631,457,60,122.0,226,1,409,340,142,0,0,689,208,-2826,630,-5.59,,,,,,,,,,,,
184823,1564152929506,1,2.55,0.96,0.35,1.48,1.11,0.61,-1.06,0.92,26,9,32,1.22,9079,55,89,43,61,1179,637.0,624,460,60,122.0,226,1,398,340,142,0,0,723,2048,-10399,637,-5.59,,,,,,,,,,,,
184843,1564152929526,1,2.55,0.96,0.35,1.48,1.11,0.57,-1.1,0.93,26,7,31,1.24,8988,55,89,43,61,1266,637.0,625,468,60,122.0,226,1,398,339,142,0,0,668,-28648,-26892,637,-5.59,44.681248,10.025045,60.3,176.5,0,0.0,-1,0.0,0.0,0,0.86,3.0807
184863,1564152929546,1,2.55,0.96,0.34,1.48,1.1,0.6,-1.14,1.01,27,6,28,1.29,8958,55,89,43,61,1286,637.0,630,466,60,122.0,226,1,401,343,142,0,0,634,-28648,-26380,637,-5.59,,,,,,,,,,,,
184883,1564152929566,1,2.54,0.96,0.35,1.48,1.11,0.64,-1.18,0.97,26,6,27,1.34,8898,55,89,43,61,1305,637.0,628,464,60,123.0,178,1,407,342,114,0,0,677,23619,-10344,634,-5.59,,,,,,,,,,,,
184903,1564152929600,1,2.54,0.96,0.35,1.48,1.11,0.66,-1.2,1.04,25,6,26,1.36,8962,55,89,43,62,1219,638.0,626,465,60,122.0,178,1,402,343,114,0,0,683,30227,-2830,639,-5.59,,,,,,,,,,,,
184923,1564152929620,2,2.54,0.96,0.35,1.48,1.11,0.68,-1.26,0.98,24,5,26,1.43,9141,55,89,43,62,1139,639.0,629,464,60,122.0,178,1,402,344,114,0,0,653,5344,31988,638,-5.59,,,,,,,,,,,,
184943,1564152929640,3,2.54,0.96,0.35,1.49,1.11,0.8,-1.29,0.96,25,3,25,1.52,9236,55,89,43,62,1089,638.0,632,467,60,122.0,178,1,405,344,114,0,0,671,-3446,-3578,638,-5.59,44.681236,10.025054,62.21,176.6,0,0.0,-1,0.0,0.0,0,0.86,3.0824
184963,1564152929660,3,2.54,0.96,0.35,1.49,1.1,0.81,-1.21,1.01,24,4,26,1.45,9309,55,89,43,61,1038,644.0,631,469,60,123.0,178,1,407,340,114,0,0,691,17740,-2345,644,-5.59,,,,,,,,,,,,
184983,1564152929680,-0,2.56,0.95,0.35,1.48,1.11,0.8,-1.19,0.77,25,3,28,1.43,9342,55,89,43,61,1073,645.0,632,459,60,122.0,188,1,408,340,121,0,0,694,-3446,16599,646,-5.59,,,,,,,,,,,,
185003,1564152929694,1,2.56,0.96,0.35,1.49,1.11,0.81,-1.27,0.73,25,3,28,1.51,9333,55,89,43,61,1109,646.0,629,468,60,122.0,188,1,407,340,121,0,0,673,-3446,1780,646,-5.59,,,,,,,,,,,,
185023,1564152929714,1,2.56,0.96,0.35,1.48,1.11,0.74,-1.24,0.86,26,3,28,1.45,9277,55,89,43,61,1145,650.0,625,463,60,123.0,188,1,405,340,121,0,0,667,-3446,-2345,650,-5.59,,,,,,,,,,,,
185043,1564152929734,3,2.56,0.96,0.35,1.48,1.1,0.82,-1.2,0.94,26,4,28,1.45,9218,55,89,43,61,1180,650.0,520,467,60,122.0,188,1,403,340,121,0,0,674,19304,16599,651,-5.59,44.681221,10.025061,63.11,176.6,0,0.0,-1,0.0,0.0,0,0.86,3.084
185063,1564152929754,3,2.57,0.95,0.35,1.49,1.1,0.84,-1.12,0.87,26,2,28,1.4,9195,55,89,43,61,1183,651.0,415,465,60,122.0,188,1,403,340,121,0,0,696,28675,-10346,651,-5.59,,,,,,,,,,,,
185083,1564152929774,1,2.58,0.96,0.35,1.48,1.1,0.9,-1.11,0.75,26,1,30,1.43,9218,54,89,43,61,1184,647.0,395,457,60,121.0,185,1,403,340,120,0,0,671,28675,31988,648,-5.59,,,,,,,,,,,,
185103,1564152929794,-1,2.59,0.96,0.35,1.48,1.11,0.97,-1.09,0.66,25,-1,31,1.46,9241,54,89,43,61,1181,649.0,388,465,60,122.0,185,1,404,340,120,0,0,698,28675,-3584,649,-5.59,,,,,,,,,,,,
185123,1564152929806,-0,2.6,0.96,0.35,1.48,1.1,0.88,-1.12,0.73,25,-0,30,1.42,9272,54,89,43,61,1179,650.0,355,461,60,122.0,185,1,405,340,120,0,0,672,16529,-10399,651,-5.59,,,,,,,,,,,,
185143,1564152929826,2,2.6,0.96,0.35,1.48,1.11,0.92,-1.12,0.66,25,-3,29,1.45,9282,54,89,43,61,1176,651.0,353,463,60,121.0,185,1,406,340,120,0,0,689,-18357,24845,651,-5.59,44.681202,10.025066,63.64,176.6,0,0.0,-1,0.0,0.0,0,0.86,3.0857
185163,1564152929846,3,2.6,0.96,0.35,1.49,1.11,0.99,-1.21,0.78,24,-4,28,1.56,9314,54,89,43,61,1173,653.0,363,461,60,123.0,185,1,408,340,120,0,0,701,19320,24845,655,-5.59,,,,,,,,,,,,
185183,1564152929866,-0,2.6,0.95,0.35,1.47,1.11,0.89,-1.12,0.71,24,-2,30,1.43,9469,54,89,43,61,1173,653.0,380,468,60,123.0,184,1,412,340,121,0,0,702,269,24,654,-5.59,,,,,,,,,,,,
185203,1564152929904,2,2.6,0.95,0.35,1.48,1.11,0.75,-1.2,0.67,24,0,31,1.42,9556,54,89,43,60,1174,657.0,360,465,60,123.0,184,1,412,338,121,0,0,681,3395,11576,657,-5.59,,,,,,,,,,,,
185223,1564152929924,3,2.61,0.96,0.34,1.48,1.11,0.73,-1.21,0.68,25,2,31,1.41,9532,53,89,43,60,1177,657.0,417,466,60,123.0,184,1,412,336,121,0,0,689,17336,24,660,-5.59,,,,,,,,,,,,
185243,1564152929944,0,2.61,0.96,0.35,1.48,1.1,0.74,-1.19,0.58,26,1,30,1.41,9384,49,89,43,59,1180,659.0,401,463,60,122.0,184,1,406,330,121,0,0,726,-16883,6208,661,-5.59,44.681187,10.02507,64.68,176.6,0,0.0,-1,0.0,0.0,0,0.86,3.0874
185263,1564152929964,1,2.62,0.96,0.35,1.48,1.1,0.72,-1.2,0.57,26,2,30,1.4,9407,45,89,43,58,1175,658.0,407,461,60,122.0,184,1,405,325,121,0,0,698,3395,8010,661,-5.59,,,,,,,,,,,,
185283,1564152929984,2,2.63,0.96,0.35,1.48,1.11,0.73,-1.26,0.54,26,2,32,1.46,9455,45,89,43,56,1167,659.0,437,468,60,122.0,170,1,403,317,113,0,0,676,19320,14342,659,-5.59,,,,,,,,,,,,
185303,1564152929992,3,2.65,0.96,0.35,1.49,1.11,0.79,-1.26,0.46,26,1,33,1.48,9422,44,89,43,55,1157,659.0,467,460,60,122.0,170,1,401,311,113,0,0,696,-1346,24,659,-5.59,,,,,,,,,,,,
185323,1564152930012,1,2.65,0.96,0.35,1.48,1.11,0.79,-1.16,0.52,26,2,33,1.4,9436,44,89,43,54,1144,662.0,494,470,60,123.0,170,1,400,310,113,0,0,704,-18357,8010,662,-5.59,,,,,,,,,,,,
185343,1564152930032,0,2.66,0.96,0.35,1.48,1.1,0.76,-1.2,0.57,25,0,32,1.42,9469,44,89,43,54,1132,657.0,527,463,60,122.0,170,1,400,308,113,0,0,694,-14655,12333,657,-5.59,44.681171,10.025073,65.17,176.7,0,0.0,-1,0.0,0.0,0,0.87,3.0891
185363,1564152930052,3,2.66,0.96,0.35,1.49,1.11,0.77,-1.13,0.71,24,3,30,1.37,9488,44,89,43,54,1119,661.0,556,466,60,123.0,170,1,400,309,113,0,0,704,-1346,6208,661,-5.59,,,,,,,,,,,,
185383,1564152930072,0,2.68,0.96,0.35,1.49,1.1,0.78,-1.19,0.78,24,1,28,1.42,9484,44,89,43,53,1112,658.0,586,466,60,121.0,159,1,397,297,106,0,0,692,-1346,19188,658,-5.59,,,,,,,,,,,,
185403,1564152930092,2,2.67,0.96,0.35,1.48,1.11,0.83,-1.27,0.74,23,-1,30,1.52,9498,43,89,43,53,1112,659.0,611,468,60,122.0,159,1,397,297,106,0,0,701,-14655,24,659,-5.59,,,,,,,,,,,,
185423,1564152930106,3,2.67,0.97,0.35,1.49,1.1,0.75,-1.27,0.67,24,-1,30,1.48,9464,41,89,43,52,1105,661.0,619,471,60,122.0,159,1,394,286,106,0,0,695,506,-12152,663,-5.59,,,,,,,,,,,,
185443,1564152930126,-0,2.68,0.96,0.35,1.49,1.11,0.76,-1.18,0.76,24,-3,29,1.4,9436,39,89,43,51,1091,662.0,624,468,60,122.0,159,1,391,274,106,0,0,712,-14655,6208,663,-5.59,44.681156,10.025074,66.0,176.7,0,0.0,-1,0.0,0.0,0,0.87,3.0907
185463,1564152930146,2,2.68,0.96,0.35,1.48,1.11,0.77,-1.26,0.74,24,-1,29,1.47,9493,37,89,43,49,1078,662.0,628,461,60,122.0,159,1,385,253,106,0,0,692,506,19188,661,-5.59,,,,,,,,,,,,
185483,1564152930166,3,2.69,0.97,0.35,1.49,1.11,0.8,-1.32,0.67,24,1,32,1.54,9503,37,89,43,48,1065,663.0,630,464,60,122.0,136,1,382,254,91,0,0,683,-16883,11576,663,-5.59,,,,,,,,,,,,
185503,1564152930200,-0,2.69,0.96,0.35,1.48,1.11,0.74,-1.11,0.75,25,1,30,1.33,9445,37,89,43,48,1051,663.0,611,461,60,121.0,136,1,380,243,91,0,0,689,506,-2830,663,-5.59,,,,,,,,,,,,
185523,1564152930220,1,2.69,0.96,0.35,1.48,1.11,0.8,-1.18,0.75,24,0,28,1.42,9337,37,89,43,47,1035,660.0,502,462,60,121.0,136,1,376,231,91,0,0,712,20993,19188,660,-5.59,,,,,,,,,,,,
185543,1564152930240,2,2.7,0.96,0.35,1.48,1.11,0.82,-1.26,0.71,24,1,29,1.51,9384,37,89,43,47,1023,662.0,476,460,60,123.0,136,1,377,231,91,0,0,687,-1346,14342,662,-5.59,44.681141,10.025074,66.01,176.7,0,0.0,-1,0.0,0.0,0,0.87,3.0924
185563,1564152930260,2,2.71,0.96,0.35,1.48,1.1,0.83,-1.19,0.68,24,1,30,1.45,9407,37,89,43,46,1020,660.0,493,471,60,122.0,136,1,370,232,91,0,0,678,20993,-10448,660,-5.59,,,,,,,,,,,,
185583,1564152930280,-0,2.71,0.96,0.35,1.49,1.1,0.84,-1.06,0.69,23,0,31,1.36,9422,37,89,43,46,1017,657.0,439,465,60,120.0,123,1,370,229,81,0,0,694,-1346,16599,659,-5.59,,,,,,,,,,,,
185603,1564152930291,1,2.71,0.96,0.35,1.48,1.11,0.85,-1.16,0.73,23,1,27,1.44,9375,37,89,43,46,1011,659.0,452,463,60,122.0,123,1,369,228,81,0,0,701,20993,14342,659,-5.59,,,,,,,,,,,,
185623,1564152930311,1,2.71,0.96,0.35,1.48,1.11,0.77,-1.24,0.65,23,0,28,1.46,9403,37,89,43,46,1006,658.0,456,473,60,122.0,123,1,370,229,81,0,0,705,966,-2830,659,-5.59,,,,,,,,,,,,
185643,1564152930331,2,2.72,0.96,0.35,1.48,1.11,0.82,-1.13,0.6,24,2,31,1.4,9436,35,89,43,46,1002,659.0,411,463,60,122.0,123,1,370,229,81,0,0,673,506,6208,661,-5.59,44.681122,10.025071,66.58,176.8,0,0.0,-1,0.0,0.0,0,0.87,3.094
185663,1564152930351,-1,2.72,0.96,0.34,1.48,1.1,0.86,-1.0,0.64,24,2,31,1.32,9384,32,89,43,45,1000,660.0,444,470,60,122.0,123,1,362,225,81,0,0,692,20993,-10399,660,-5.59,,,,,,,,,,,,
185683,1564152930371,1,2.71,0.96,0.35,1.49,1.11,0.79,-1.09,0.55,24,3,29,1.35,9337,29,89,43,43,1005,657.0,444,465,60,122.0,119,1,348,221,79,0,0,693,-16046,-2830,659,-5.59,,,,,,,,,,,,
185703,1564152930403,2,2.71,0.97,0.34,1.48,1.1,0.78,-1.16,0.5,23,3,31,1.4,9300,28,89,43,42,1011,661.0,408,459,60,123.0,119,1,341,218,79,0,0,692,20993,-2830,661,-5.59,,,,,,,,,,,,
185723,1564152930423,1,2.73,0.96,0.35,1.49,1.1,0.87,-1.22,0.55,22,2,30,1.5,9300,27,89,43,40,1019,655.0,429,461,60,123.0,119,1,327,212,79,0,0,667,-16883,24845,655,-5.59,,,,,,,,,,,,
185743,1564152930443,2,2.74,0.97,0.34,1.49,1.1,0.92,-1.13,0.62,22,2,27,1.45,9254,27,89,43,39,1026,651.0,418,468,60,122.0,119,1,320,210,79,0,0,672,506,3543,651,-5.59,44.681107,10.025067,66.05,176.8,0,0.0,-1,0.0,0.0,0,0.87,3.0957
185763,1564152930463,3,2.73,0.96,0.35,1.49,1.1,0.99,-1.03,0.54,22,-3,28,1.43,9150,27,89,43,39,1031,651.0,404,461,60,122.0,119,1,320,209,79,0,0,683,-16883,3543,651,-5.59,,,,,,,,,,,,
185783,1564152930483,-1,2.72,0.96,0.35,1.48,1.11,0.88,-1.09,0.52,23,-3,28,1.41,9101,27,89,43,39,1036,651.0,427,467,60,122.0,110,1,320,209,72,0,0,680,-1346,6208,651,-5.59,,,,,,,,,,,,
185803,1564152930497,0,2.69,0.97,0.35,1.48,1.11,0.86,-0.95,0.58,23,-2,29,1.28,9101,27,89,43,39,1033,654.0,433,467,60,122.0,110,1,320,209,72,0,0,682,3395,-10399,654,-5.59,,,,,,,,,,,,
185823,1564152930517,-1,2.68,0.96,0.35,1.49,1.11,0.83,-0.98,0.44,23,-1,30,1.28,9128,27,89,43,39,1028,654.0,454,463,60,122.0,110,1,320,205,72,0,0,672,-16883,-2345,654,-5.59,,,,,,,,,,,,
185843,1564152930537,1,2.67,0.95,0.35,1.49,1.11,0.64,-1.02,0.35,24,1,31,1.21,9182,27,89,43,38,1007,656.0,490,460,60,122.0,110,1,317,206,72,0,0,673,17336,-10344,656,-5.59,44.681091,10.025062,66.64,176.9,0,0.0,-1,0.0,0.0,0,0.88,3.0974
185863,1564152930557,-0,2.66,0.96,0.35,1.48,1.1,0.58,-1.12,0.44,24,1,27,1.26,9213,27,89,43,38,985,656.0,507,464,60,121.0,110,1,317,206,72,0,0,661,3395,-2345,656,-5.59,,,,,,,,,,,,
185883,1564152930577,1,2.64,0.97,0.35,1.48,1.1,0.61,-1.21,0.36,25,4,30,1.35,9227,27,89,43,38,966,660.0,532,458,60,122.0,108,1,317,206,71,0,0,947,30721,-10399,660,-5.59,,,,,,,,,,,,
185903,1564152930597,3,2.64,0.96,0.35,1.49,1.11,0.75,-1.19,0.43,26,3,32,1.41,9191,27,89,43,38,948,657.0,552,468,60,123.0,108,1,317,206,71,0,0,947,30721,3543,656,-5.59,,,,,,,,,,,,
185923,1564152930607,2,2.64,0.96,0.35,1.49,1.11,0.82,-1.15,0.49,26,3,33,1.41,9093,27,89,43,38,927,655.0,563,468,60,123.0,108,1,317,205,71,0,0,665,19304,16118,656,-5.59,,,,,,,,,,,,
185943,1564152930627,3,2.65,0.97,0.35,1.49,1.11,0.9,-1.14,0.45,26,2,33,1.45,9049,27,89,43,38,906,648.0,581,460,60,122.0,108,1,317,205,71,0,0,673,19304,-388,648,-5.59,44.681076,10.025055,64.65,176.9,0,0.0,-1,0.0,0.0,0,0.88,3.0991
185963,1564152930647,2,2.65,0.97,0.35,1.48,1.1,1.01,-1.15,0.44,25,-0,34,1.53,9040,27,89,43,38,900,647.0,597,467,60,121.0,108,1,317,205,71,0,0,661,28675,-26380,648,-5.59,,,,,,,,,,,,
185983,1564152930667,1,2.65,0.97,0.35,1.48,1.11,1.11,-1.1,0.49,25,-2,34,1.56,9031,27,89,43,38,898,645.0,610,466,60,122.0,108,1,317,205,70,0,0,647,-28304,1549,645,-5.59,,,,,,,,,,,,
186003,1564152930703,1,2.63,0.96,0.34,1.48,1.1,1.2,-1.09,0.53,26,-2,31,1.62,9027,27,89,43,38,896,648.0,539,468,60,122.0,108,1,317,205,70,0,0,657,16529,-10346,648,-5.59,,,,,,,,,,,,
186023,1564152930723,3,2.62,0.97,0.35,1.48,1.1,1.24,-1.06,0.52,26,-3,31,1.63,8988,27,89,43,38,894,648.0,534,470,60,123.0,108,1,317,205,70,0,0,666,-28304,1549,648,-5.59,,,,,,,,,,,,
186043,1564152930743,2,2.62,0.97,0.35,1.48,1.11,1.32,-1.07,0.51,26,-4,33,1.7,9023,27,89,43,38,895,644.0,480,468,60,122.0,108,1,317,205,70,0,0,674,26688,8958,644,-5.59,44.681065,10.025046,64.66,176.9,0,0.0,-1,0.0,0.0,0,0.88,3.1007
186063,1564152930763,3,2.6,0.97,0.35,1.48,1.11,1.34,-1.05,0.56,26,-4,32,1.7,9053,27,89,43,38,895,648.0,463,475,60,123.0,108,1,317,209,70,0,0,678,17740,-388,648,-5.59,,,,,,,,,,,,
186083,1564152930783,3,2.59,0.96,0.35,1.49,1.1,1.41,-1.05,0.57,26,-5,33,1.76,9075,27,89,43,39,904,646.0,443,467,60,122.0,109,1,320,205,71,0,0,681,28675,-2830,646,-5.59,,,,,,,,,,,,
186103,1564152930793,2,2.61,0.97,0.35,1.48,1.11,1.4,-0.96,0.49,27,-3,34,1.7,9079,27,89,43,38,915,648.0,456,467,60,123.0,109,1,317,209,71,0,0,666,19621,-2345,648,-5.59,,,,,,,,,,,,
186123,1564152930813,2,2.6,0.97,0.35,1.48,1.11,1.45,-0.89,0.49,27,-4,36,1.71,9075,27,89,43,38,927,644.0,420,462,60,121.0,109,1,317,205,71,0,0,634,17740,-3578,644,-5.59,,,,,,,,,,,,
186143,1564152930833,3,2.6,0.97,0.35,1.48,1.11,1.39,-0.82,0.55,28,-5,34,1.62,9027,27,89,43,39,937,641.0,449,463,60,121.0,109,1,320,205,71,0,0,645,-3820,-388,641,-5.59,44.681046,10.025037,64.44,177.0,0,0.0,-1,0.0,0.0,0,0.88,3.1024
186163,1564152930853,1,2.61,0.96,0.35,1.49,1.11,1.4,-0.87,0.46,28,-6,35,1.65,8890,27,89,43,39,954,638.0,415,463,60,122.0,109,1,320,205,71,0,0,667,-3820,3543,638,-5.59,,,,,,,,,,,,
186183,1564152930873,2,2.6,0.97,0.35,1.49,1.11,1.42,-0.84,0.45,27,-6,34,1.65,8806,27,89,43,39,972,637.0,432,464,60,122.0,109,1,320,209,70,0,0,664,-7939,-2830,637,-5.59,,,,,,,,,,,,
186203,1564152930893,2,2.6,0.97,0.35,1.48,1.11,1.44,-0.9,0.55,26,-7,32,1.7,8848,27,89,43,39,984,637.0,420,470,60,122.0,109,1,320,209,70,0,0,660,-7939,2024,637,-5.59,,,,,,,,,,,,
186223,1564152930907,1,2.6,0.96,0.35,1.48,1.11,1.49,-0.98,0.63,25,-8,32,1.78,8886,27,89,43,39,991,635.0,398,467,60,122.0,109,1,320,209,70,0,0,644,-3820,-26380,635,-5.59,,,,,,,,,,,,
186243,1564152930927,2,2.59,0.97,0.35,1.49,1.1,1.45,-1.08,0.52,24,-7,33,1.8,8924,27,89,43,39,1000,636.0,384,464,60,122.0,109,1,320,211,70,0,0,646,-3820,8958,634,-5.59,44.681034,10.025025,63.72,177.0,0,0.0,-1,0.0,0.0,0,0.88,3.104
186263,1564152930947,1,2.59,0.97,0.35,1.49,1.11,1.41,-1.1,0.6,24,-6,32,1.79,8937,27,89,43,39,1012,634.0,397,467,60,123.0,109,1,320,211,70,0,0,650,5344,-10344,635,-5.59,,,,,,,,,,,,
186283,1564152930967,-0,2.59,0.96,0.35,1.48,1.1,1.31,-1.19,0.57,25,-4,31,1.77,8949,27,89,43,39,1020,635.0,394,469,60,122.0,109,1,320,211,70,0,0,664,-3820,31988,635,-5.59,,,,,,,,,,,,
186303,1564152930999,2,2.58,0.97,0.35,1.49,1.1,1.21,-1.27,0.55,25,-4,31,1.76,8945,27,89,43,39,1025,637.0,416,466,60,122.0,109,1,320,211,70,0,0,654,30227,-388,638,-5.59,,,,,,,,,,,,
186323,1564152931019,1,2.58,0.96,0.35,1.49,1.1,1.04,-1.33,0.52,25,-3,33,1.69,8907,27,89,43,39,1027,637.0,415,466,60,123.0,109,1,320,211,70,0,0,639,-3210,8958,637,-5.59,,,,,,,,,,,,
186343,1564152931039,0,2.56,0.97,0.35,1.48,1.11,0.98,-1.39,0.49,25,-2,32,1.7,8861,27,89,43,40,1025,635.0,401,463,60,123.0,109,1,326,211,70,0,0,644,-3210,31988,635,-5.59,44.681023,10.025014,62.97,177.1,0,0.0,-1,0.0,0.0,0,0.88,3.1057
186363,1564152931059,3,2.55,0.96,0.35,1.48,1.11,0.91,-1.36,0.51,26,-2,31,1.64,8778,28,89,43,40,1022,632.0,411,462,60,122.0,109,1,326,211,70,0,0,645,-3210,479,632,-5.59,,,,,,,,,,,,
186383,1564152931079,3,2.52,0.96,0.35,1.49,1.1,1.01,-1.34,0.47,25,-1,33,1.68,8708,28,89,43,40,1015,634.0,400,464,60,123.0,110,1,326,211,70,0,0,654,243,24583,634,-5.59,,,,,,,,,,,,
186403,1564152931091,1,2.51,0.96,0.35,1.49,1.11,1.07,-1.27,0.57,24,-3,32,1.66,8749,28,89,43,40,1008,634.0,407,466,60,123.0,110,1,326,211,70,0,0,635,30227,-3038,634,-5.59,,,,,,,,,,,,
186423,1564152931111,2,2.5,0.96,0.34,1.48,1.11,1.07,-1.22,0.61,24,-2,32,1.62,8773,28,89,43,41,1002,633.0,413,470,60,122.0,110,1,332,213,70,0,0,629,-3210,-3488,633,-5.59,,,,,,,,,,,,
186443,1564152931131,1,2.5,0.96,0.35,1.49,1.1,1.09,-1.26,0.58,23,-2,31,1.66,8769,28,89,43,41,998,634.0,401,466,60,123.0,110,1,332,213,70,0,0,635,-7939,4909,629,-5.59,44.681007,10.025001,62.33,177.1,0,0.0,-1,0.0,0.0,0,0.89,3.1074
186463,1564152931151,0,2.49,0.96,0.35,1.48,1.1,0.96,-1.26,0.49,23,-0,32,1.58,8708,28,89,43,41,998,633.0,425,461,60,121.0,110,1,332,213,70,0,0,637,-7939,-30207,631,-5.59,,,,,,,,,,,,
186483,1564152931171,3,2.49,0.96,0.34,1.49,1.1,0.88,-1.2,0.45,23,1,33,1.49,8676,28,89,43,41,998,631.0,440,463,60,122.0,110,1,332,213,70,0,0,640,5344,4909,631,-5.59,,,,,,,,,,,,
186503,1564152931205,3,2.49,0.96,0.35,1.49,1.1,0.95,-1.14,0.5,23,2,30,1.48,8664,28,89,43,41,997,632.0,454,464,60,122.0,110,1,332,213,70,0,0,633,-3210,11566,632,-5.59,,,,,,,,,,,,
186523,1564152931225,2,2.48,0.97,0.35,1.48,1.11,1.02,-1.08,0.58,22,2,30,1.49,8672,28,89,43,41,996,631.0,461,461,60,122.0,110,1,332,213,70,0,0,629,-768,6208,631,-5.59,,,,,,,,,,,,
186543,1564152931245,1,2.48,0.97,0.35,1.48,1.1,1.0,-1.12,0.59,22,2,30,1.5,8704,27,89,43,41,994,629.0,469,462,60,123.0,110,1,332,213,70,0,0,624,-768,-3584,629,-5.59,44.680996,10.024985,62.0,177.1,0,0.0,-1,0.0,0.0,0,0.89,3.1091
186563,1564152931265,2,2.47,0.96,0.35,1.48,1.1,0.89,-1.16,0.54,22,3,28,1.47,8692,24,89,43,41,990,627.0,482,465,60,122.0,110,1,332,213,70,0,0,628,-23055,966,627,-5.59,,,,,,,,,,,,
186583,1564152931285,5,2.47,0.96,0.35,1.48,1.11,0.91,-1.08,0.5,22,2,28,1.41,8636,18,89,43,39,983,627.0,500,461,60,121.0,110,1,320,209,69,0,0,630,-7939,-2830,628,-5.59,,,,,,,,,,,,
186603,1564152931298,6,2.47,0.96,0.34,1.49,1.1,1.02,-1.03,0.56,20,2,27,1.45,8522,13,89,43,37,975,623.0,514,460,60,123.0,110,1,314,201,69,0,0,627,4956,-2580,623,-5.59,,,,,,,,,,,,
186623,1564152931318,5,2.46,0.96,0.34,1.47,1.1,0.91,-1.03,0.5,20,1,27,1.37,8415,9,89,43,34,970,620.0,530,462,60,123.0,110,1,303,189,69,0,0,620,-32504,-2580,620,-5.59,,,,,,,,,,,,
186643,1564152931338,8,2.44,0.96,0.35,1.48,1.1,1.02,-1.05,0.49,19,-1,27,1.47,8318,8,89,43,32,962,618.0,544,465,60,122.0,110,1,295,177,69,0,0,603,-13043,-5120,618,-5.59,44.680984,10.024969,62.21,177.1,0,0.0,-1,0.0,0.0,0,0.89,3.1107
186663,1564152931358,11,2.44,0.96,0.34,1.49,1.1,0.93,-1.0,0.44,19,1,26,1.36,8177,8,89,43,30,946,615.0,556,465,60,123.0,110,1,286,171,69,0,0,602,3472,20993,617,-5.59,,,,,,,,,,,,
186683,1564152931378,9,2.42,0.95,0.34,1.48,1.1,1.0,-1.02,0.46,18,-1,25,1.43,8002,7,89,43,30,930,613.0,568,465,60,122.0,81,1,284,161,50,0,0,594,-32504,20993,612,-5.59,,,,,,,,,,,,
186703,1564152931398,10,2.41,0.95,0.35,1.47,1.1,1.0,-1.02,0.47,17,-2,25,1.43,7819,7,89,43,29,919,608.0,568,462,60,121.0,81,1,280,161,50,0,0,583,15649,-18357,608,-5.59,,,,,,,,,,,,
186723,1564152931408,10,2.4,0.93,0.34,1.46,1.09,1.03,-0.98,0.45,16,-2,24,1.42,7687,7,89,43,28,909,605.0,571,466,60,123.0,81,1,276,161,50,0,0,588,-4035,269,605,-5.59,,,,,,,,,,,,
186743,1564152931428,11,2.4,0.92,0.34,1.45,1.1,1.08,-0.87,0.47,16,-3,24,1.38,7503,7,89,43,28,893,602.0,565,462,60,123.0,81,1,275,160,50,0,0,586,-4035,16529,601,-5.59,44.680977,10.024953,61.88,177.1,0,0.0,-1,0.0,0.0,0,0.89,3.1124
186763,1564152931448,11,2.4,0.9,0.33,1.44,1.09,1.09,-0.77,0.38,15,0,23,1.33,7411,7,89,43,29,878,597.0,563,463,60,122.0,81,1,278,161,50,0,0,583,10432,23619,597,-5.59,,,,,,,,,,,,
186783,1564152931468,10,2.4,0.88,0.32,1.42,1.08,1.12,-0.79,0.4,14,-2,23,1.38,7402,7,89,43,28,873,592.0,560,461,60,122.0,75,1,275,160,45,0,0,563,30208,208,589,-5.59,,,,,,,,,,,,
186803,1564152931506,12,2.4,0.86,0.32,1.42,1.07,1.21,-0.76,0.39,13,-4,21,1.43,7527,7,89,43,28,868,586.0,553,463,60,122.0,75,1,275,161,45,0,0,541,-3190,-25872,586,-5.59,,,,,,,,,,,,
186823,1564152931526,11,2.4,0.85,0.32,1.41,1.07,1.26,-0.72,0.38,12,-6,20,1.45,7588,7,89,43,28,862,580.0,558,465,60,122.0,75,1,275,160,45,0,0,538,-2934,259,578,-5.59,,,,,,,,,,,,
186843,1564152931546,12,2.4,0.86,0.32,1.42,1.07,1.24,-0.64,0.35,12,-5,19,1.4,7628,7,89,43,28,857,576.0,560,463,60,123.0,75,1,276,160,45,0,0,531,-30159,1780,576,-5.59,44.680965,10.024936,60.55,177.2,0,0.0,-1,0.0,0.0,0,0.89,3.114
186863,1564152931566,12,2.4,0.87,0.32,1.42,1.07,1.18,-0.6,0.28,12,-3,18,1.32,7563,7,89,43,28,855,573.0,560,463,60,123.0,75,1,275,160,45,0,0,544,2216,-3190,569,-5.59,,,,,,,,,,,,
186883,1564152931586,12,2.39,0.87,0.32,1.41,1.07,1.11,-0.56,0.23,12,-3,17,1.25,7578,7,89,43,28,854,565.0,558,464,60,123.0,79,1,275,160,45,0,0,547,6274,-23623,565,-5.59,,,,,,,,,,,,
186903,1564152931596,10,2.4,0.86,0.32,1.41,1.08,1.08,-0.43,0.2,12,-3,15,1.16,7548,7,89,43,28,857,560.0,561,462,60,123.0,79,1,275,160,45,0,0,545,6274,1267,560,-5.59,,,,,,,,,,,,
186923,1564152931616,10,2.4,0.86,0.32,1.42,1.07,1.06,-0.41,0.16,12,-3,14,1.14,7551,7,89,43,27,863,556.0,560,462,60,124.0,79,1,272,158,45,0,0,543,-3082,2211,556,181.28,,,,,,,,,,,,
186943,1564152931636,10,2.4,0.86,0.32,1.41,1.07,0.98,-0.37,0.06,11,-2,15,1.05,7437,7,89,43,27,869,549.0,557,461,60,122.0,79,1,271,158,45,0,0,543,1780,2216,551,181.28,44.680958,10.024919,58.25,177.2,0,0.0,-1,0.0,0.0,0,0.89,3.1157
186963,1564152931656,9,2.4,0.86,0.32,1.41,1.07,0.91,-0.38,0.02,11,-2,13,0.99,7370,7,89,43,27,876,548.0,555,457,60,121.0,79,1,270,160,45,0,0,532,-30064,-28648,548,181.28,,,,,,,,,,,,
186983,1564152931676,9,2.4,0.86,0.32,1.41,1.08,0.96,-0.36,0.03,10,-2,12,1.03,7264,7,89,43,28,882,540.0,553,458,60,120.0,81,1,274,160,44,0,0,531,14504,-8186,540,-5.59,,,,,,,,,,,,
187003,1564152931696,11,2.39,0.87,0.32,1.42,1.07,1.0,-0.38,0.16,10,-3,12,1.06,7214,7,89,43,28,887,538.0,550,459,60,120.0,81,1,274,160,44,0,0,526,-32248,1780,538,181.28,,,,,,,,,,,,
187023,1564152931706,12,2.39,0.86,0.32,1.41,1.07,1.1,-0.38,0.18,10,-4,13,1.16,7219,7,89,43,29,889,534.0,548,465,60,120.0,81,1,278,230,44,0,0,521,-9212,14504,532,-5.59,,,,,,,,,,,,
187043,1564152931726,13,2.38,0.86,0.32,1.41,1.07,1.14,-0.28,0.13,10,-4,14,1.17,7233,7,89,43,30,887,530.0,547,461,60,121.0,81,1,282,216,44,0,0,511,15679,-32248,531,-5.59,44.68095,10.024902,55.88,177.2,0,0.0,-1,0.0,0.0,0,0.9,3.1174
187063,1564152931746,11,2.38,0.86,0.32,1.41,1.07,1.08,-0.26,0.09,10,-2,13,1.11,7140,7,89,43,30,886,526.0,551,465,60,122.0,81,1,281,200,44,0,0,514,-3482,2524,524,-5.59,,,,,,,,,,,,
187083,1564152931766,10,2.38,0.86,0.32,1.41,1.07,1.08,-0.3,0.11,9,-2,12,1.12,7006,7,89,43,30,885,520.0,544,462,60,121.0,95,1,281,183,50,0,0,510,-4054,2524,520,-5.59,,,,,,,,,,,,
187103,1564152931802,12,2.39,0.87,0.32,1.42,1.08,1.07,-0.33,0.15,10,-2,13,1.12,6895,7,89,43,30,886,518.0,542,467,60,120.0,95,1,281,167,50,0,0,512,6274,2088,516,-5.59,,,,,,,,,,,,
187123,1564152931822,12,2.38,0.86,0.32,1.42,1.07,1.08,-0.26,0.0,11,-1,9,1.11,6898,7,89,43,30,886,514.0,541,465,60,122.0,95,1,282,163,50,0,0,484,6274,6274,512,-5.59,,,,,,,,,,,,
187143,1564152931842,12,2.37,0.86,0.32,1.42,1.07,1.07,-0.27,0.05,10,-6,11,1.1,6993,7,89,43,31,888,505.0,534,463,60,122.0,95,1,285,164,50,0,0,446,998,32033,505,-5.59,44.680946,10.024886,53.53,177.2,0,0.0,-1,0.0,0.0,0,0.9,3.1191
187163,1564152931862,15,2.38,0.84,0.31,1.41,1.07,1.17,-0.2,0.02,10,-2,11,1.18,7131,7,89,43,31,892,502.0,536,460,60,123.0,95,1,285,164,50,0,0,429,505,15649,502,-5.59,,,,,,,,,,,,
187183,1564152931882,15,2.37,0.83,0.32,1.4,1.06,1.08,-0.21,-0.04,10,-2,10,1.1,7364,7,89,43,30,895,496.0,541,465,60,123.0,91,1,282,163,45,0,0,423,505,16648,496,-5.59,,,,,,,,,,,,
187203,1564152931892,13,2.38,0.83,0.31,1.39,1.06,0.98,-0.09,-0.13,10,-2,11,0.99,7408,7,89,43,30,897,486.0,546,461,60,123.0,91,1,282,163,45,0,0,393,32033,-3856,486,-5.59,,,,,,,,,,,,
187223,1564152931912,14,2.37,0.82,0.31,1.39,1.05,0.89,-0.08,-0.17,10,-1,11,0.89,7512,7,89,43,30,903,484.0,557,464,60,123.0,91,1,282,163,45,0,0,381,-17956,-1268,484,-5.59,,,,,,,,,,,,
187243,1564152931932,13,2.37,0.81,0.3,1.38,1.06,0.85,-0.08,-0.25,10,1,10,0.86,7434,7,89,43,30,915,479.0,559,462,60,123.0,91,1,282,163,45,0,0,398,8488,-26615,478,-5.59,44.680935,10.024871,51.56,177.3,0,0.0,-1,0.0,0.0,0,0.9,3.1207
187263,1564152931952,14,2.37,0.81,0.3,1.37,1.05,0.81,-0.13,-0.35,10,0,8,0.82,7449,7,89,43,30,925,474.0,561,465,60,123.0,91,1,282,163,45,0,0,416,2211,2211,474,-5.59,,,,,,,,,,,,
187283,1564152931972,14,2.35,0.8,0.3,1.39,1.05,0.77,-0.03,-0.44,10,1,9,0.77,7536,7,89,43,29,935,467.0,572,460,60,123.0,98,1,279,161,46,0,0,405,-26615,9517,468,-5.59,,,,,,,,,,,,
187303,1564152931992,14,2.35,0.82,0.3,1.39,1.06,0.78,-0.04,-0.39,9,1,10,0.78,7674,7,89,43,29,941,461.0,567,463,60,123.0,98,1,279,161,46,0,0,417,-8985,2524,461,-5.59,,,,,,,,,,,,
187323,1564152932002,13,2.35,0.81,0.31,1.38,1.06,0.77,-0.01,-0.4,10,2,9,0.77,7697,7,89,43,29,936,457.0,568,466,60,123.0,98,1,279,161,46,0,0,427,10305,2524,457,-5.59,,,,,,,,,,,,
187343,1564152932022,11,2.33,0.82,0.31,1.39,1.05,0.83,0.06,-0.35,10,2,9,0.83,7738,7,89,43,28,930,450.0,573,463,60,123.0,98,1,276,160,46,0,0,394,23400,-9166,450,-5.59,44.680931,10.024856,48.66,177.3,0,0.0,-1,0.0,0.0,0,0.9,3.1224
187363,1564152932042,11,2.33,0.81,0.31,1.38,1.05,0.9,-0.01,-0.26,9,3,8,0.9,7751,7,89,43,28,915,446.0,579,461,60,123.0,98,1,276,160,46,0,0,393,5600,-21792,446,-5.59,,,,,,,,,,,,
187383,1564152932062,12,2.33,0.79,0.3,1.37,1.05,0.97,-0.09,-0.2,9,2,8,0.97,7659,7,89,43,28,901,441.0,578,462,60,122.0,104,1,276,160,46,0,0,407,243,5600,441,-5.59,,,,,,,,,,,,
187403,1564152932096,13,2.33,0.78,0.29,1.37,1.04,1.03,-0.09,-0.15,7,-1,8,1.04,7709,7,89,43,28,886,432.0,579,464,60,123.0,104,1,276,160,46,0,0,413,-3856,5600,432,-5.59,,,,,,,,,,,,
187423,1564152932116,13,2.34,0.78,0.29,1.36,1.03,1.03,-0.11,-0.11,6,-1,7,1.03,7763,7,89,43,27,872,425.0,583,462,60,123.0,104,1,273,160,46,0,0,409,-8165,10541,425,-5.59,,,,,,,,,,,,
187443,1564152932136,13,2.33,0.78,0.3,1.35,1.04,1.01,-0.07,-0.09,6,-1,6,1.01,7802,7,89,43,27,871,418.0,587,463,60,123.0,104,1,274,158,46,0,0,409,7154,10392,418,-5.59,44.680923,10.024841,45.79,177.3,0,0.0,-1,0.0,0.0,0,0.9,3.124
187463,1564152932156,9,2.32,0.78,0.3,1.35,1.04,1.06,-0.01,-0.08,5,-2,5,1.06,7738,7,89,43,27,871,417.0,590,462,60,122.0,104,1,273,158,46,0,0,411,-26615,9517,417,-5.59,,,,,,,,,,,,
187483,1564152932176,9,2.32,0.78,0.29,1.35,1.03,1.13,-0.05,-0.07,4,-1,5,1.14,7731,7,89,43,27,870,411.0,593,464,60,123.0,111,1,273,158,46,0,0,412,-4059,1504,411,-5.59,,,,,,,,,,,,
187503,1564152932196,8,2.31,0.74,0.28,1.33,1.03,1.19,-0.03,0.01,4,-1,4,1.19,7662,7,89,43,27,869,408.0,593,461,60,123.0,111,1,272,158,46,0,0,410,-26615,-9166,407,-5.59,,,,,,,,,,,,
187523,1564152932208,10,2.3,0.68,0.26,1.29,0.99,1.22,-0.07,0.04,3,-2,3,1.23,7566,7,89,43,27,868,405.0,589,465,60,122.0,111,1,272,158,46,0,0,408,-9211,-9211,403,-5.59,,,,,,,,,,,,
187543,1564152932228,9,2.3,0.62,0.24,1.23,0.96,1.27,-0.06,0.09,2,-2,3,1.27,7512,7,89,43,27,868,400.0,578,464,60,122.0,111,1,272,158,46,0,0,402,6512,1504,398,-5.59,44.68092,10.024827,43.1,177.3,0,0.0,-1,0.0,0.0,0,0.9,3.1257
187563,1564152932248,8,2.3,0.57,0.22,1.2,0.92,1.35,-0.08,0.18,1,-2,2,1.35,7449,7,89,43,27,867,395.0,587,460,60,121.0,111,1,271,158,46,0,0,398,-1818,-32702,395,-5.59,,,,,,,,,,,,
187583,1564152932268,8,2.3,0.54,0.23,1.17,0.92,1.42,-0.05,0.3,0,-3,2,1.42,7411,7,89,43,28,867,393.0,575,460,60,121.0,114,1,275,160,45,0,0,398,-6656,-32702,390,-5.59,,,,,,,,,,,,
187603,1564152932301,9,2.29,0.53,0.22,1.16,0.91,1.46,-0.08,0.35,-1,-4,2,1.46,7347,7,89,43,28,866,391.0,568,466,60,122.0,114,1,274,160,45,0,0,396,-1562,1,387,-5.59,,,,,,,,,,,,
187623,1564152932321,11,2.3,0.52,0.22,1.15,0.92,1.51,-0.11,0.43,-1,-5,2,1.52,7304,7,89,43,28,866,386.0,562,462,60,123.0,114,1,274,160,45,0,0,393,-3866,-6524,381,-5.59,,,,,,,,,,,,
187643,1564152932341,9,2.3,0.51,0.21,1.13,0.91,1.47,-0.04,0.44,-1,-3,1,1.47,7270,7,89,43,28,867,384.0,561,460,60,123.0,114,1,274,160,45,0,0,390,-19126,-19126,379,-5.59,44.680916,10.024815,40.55,177.4,0,0.0,-1,0.0,0.0,0,0.9,3.1274
187663,1564152932361,8,2.31,0.5,0.2,1.13,0.89,1.33,0.04,0.27,-1,-1,1,1.33,7181,7,89,43,28,868,379.0,560,462,60,124.0,114,1,273,160,45,0,0,385,8200,-6475,378,-5.59,,,,,,,,,,,,
187683,1564152932381,5,2.31,0.48,0.23,1.12,0.89,1.22,0.12,0.18,-0,0,0,1.23,7110,7,89,43,29,869,378.0,557,463,60,123.0,114,1,277,161,43,0,0,381,2278,-18948,374,-5.59,,,,,,,,,,,,
187703,1564152932393,9,2.31,0.48,0.23,1.12,0.9,1.22,0.15,0.27,-0,-2,1,1.23,7027,7,89,43,29,870,374.0,555,462,60,122.0,114,1,277,161,43,0,0,381,1,-19126,374,-5.59,,,,,,,,,,,,
187723,1564152932413,7,2.31,0.5,0.23,1.13,0.9,1.21,0.19,0.21,-0,-1,0,1.23,6993,7,89,43,30,871,371.0,549,465,60,123.0,114,1,281,163,43,0,0,378,257,3,371,-5.59,,,,,,,,,,,,
187743,1564152932433,3,2.33,0.51,0.24,1.14,0.9,1.1,0.21,0.13,0,-1,-0,1.12,6970,7,89,43,30,871,369.0,548,464,60,122.0,114,1,281,163,43,0,0,373,-6656,1,367,-5.59,44.680908,10.024801,38.92,177.4,0,0.0,-1,0.0,0.0,0,0.91,3.1291
187763,1564152932453,8,2.34,0.53,0.24,1.16,0.92,1.13,0.19,0.2,-0,-1,0,1.14,6944,7,89,43,30,870,366.0,547,462,60,122.0,114,1,281,163,43,0,0,369,-6405,486,365,-5.59,,,,,,,,,,,,
187783,1564152932473,5,2.34,0.53,0.25,1.17,0.92,1.08,0.23,0.15,0,0,1,1.11,6883,7,89,43,31,869,363.0,541,463,60,123.0,118,1,286,164,43,0,0,365,2790,-6656,363,-5.59,,,,,,,,,,,,
187803,1564152932507,3,2.34,0.55,0.26,1.18,0.92,1.01,0.25,0.17,1,-0,1,1.04,6845,7,89,43,31,870,362.0,536,461,60,120.0,118,1,286,164,43,0,0,367,-14707,-6405,361,-5.59,,,,,,,,,,,,
187823,1564152932527,6,2.33,0.56,0.26,1.18,0.93,1.11,0.22,0.14,1,-1,2,1.13,6808,7,89,43,31,872,358.0,536,462,60,123.0,118,1,286,164,43,0,0,362,2060,230,358,-5.59,,,,,,,,,,,,
187843,1564152932547,5,2.34,0.56,0.26,1.19,0.94,1.01,0.18,0.17,1,-0,2,1.02,6715,7,89,43,32,874,357.0,530,461,60,121.0,118,1,290,166,43,0,0,361,3302,-1268,357,-5.59,44.680904,10.024791,37.27,177.4,0,0.0,-1,0.0,0.0,0,0.91,3.1307
187863,1564152932567,5,2.33,0.57,0.26,1.2,0.94,1.09,0.19,0.1,1,0,1,1.11,6677,7,89,43,32,876,354.0,527,465,60,123.0,118,1,290,166,43,0,0,355,-30454,-6458,354,-5.59,,,,,,,,,,,,
187883,1564152932587,8,2.32,0.56,0.27,1.2,0.94,1.02,0.17,0.12,1,-1,1,1.03,6644,7,89,43,33,880,350.0,524,463,60,122.0,122,1,292,171,43,0,0,352,-1246,3302,350,-5.59,,,,,,,,,,,,
187903,1564152932601,4,2.33,0.58,0.27,1.19,0.94,1.03,0.17,0.14,1,0,1,1.04,6625,7,89,43,33,885,349.0,520,462,60,123.0,122,1,292,171,43,0,0,350,6870,-30454,349,-5.59,,,,,,,,,,,,
187923,1564152932621,6,2.33,0.58,0.28,1.2,0.95,1.06,0.13,0.2,1,-1,2,1.07,6590,7,89,43,33,888,346.0,517,463,60,121.0,122,1,292,171,43,0,0,351,-10554,3183,346,-5.59,,,,,,,,,,,,
187943,1564152932641,6,2.33,0.59,0.28,1.2,0.95,1.0,0.14,0.25,1,0,2,1.01,6501,7,89,43,34,890,344.0,512,461,60,121.0,122,1,295,176,43,0,0,350,-31206,8841,344,-5.59,44.680904,10.024779,35.84,177.5,0,0.0,-1,0.0,0.0,0,0.91,3.1324
187963,1564152932661,2,2.34,0.59,0.28,1.21,0.95,1.1,0.15,0.26,0,-0,2,1.11,6452,7,89,43,34,892,341.0,512,463,60,123.0,122,1,295,176,43,0,0,345,-122,-31206,341,-5.59,,,,,,,,,,,,
187983,1564152932681,6,2.32,0.59,0.28,1.21,0.95,1.08,0.13,0.28,0,-2,2,1.09,6401,7,89,43,35,893,338.0,510,465,60,121.0,126,1,298,176,43,0,0,341,-31222,-30438,337,-5.59,,,,,,,,,,,,
188003,1564152932691,7,2.33,0.59,0.28,1.21,0.95,0.92,0.13,0.34,1,-0,2,0.93,6368,7,89,43,35,892,337.0,507,464,60,120.0,126,1,298,182,43,0,0,340,13,-10554,337,-5.59,,,,,,,,,,,,
188023,1564152932711,6,2.33,0.59,0.28,1.21,0.95,0.88,0.18,0.33,1,3,2,0.9,6328,7,89,43,35,891,335.0,502,461,60,123.0,126,1,298,182,43,0,0,336,-32559,3327,335,-5.59,,,,,,,,,,,,
188043,1564152932731,2,2.34,0.58,0.27,1.2,0.95,0.99,0.16,0.29,1,2,2,1.0,6298,7,89,43,36,889,333.0,501,462,60,124.0,126,1,301,187,43,0,0,335,170,-31222,331,-5.59,44.680897,10.024768,34.74,177.5,0,0.0,-1,0.0,0.0,0,0.91,3.134
188063,1564152932751,3,2.35,0.58,0.27,1.2,0.95,1.09,0.13,0.25,1,-1,2,1.1,6256,7,89,43,36,887,330.0,500,463,60,123.0,126,1,301,187,43,0,0,333,165,2560,330,-5.59,,,,,,,,,,,,
188083,1564152932771,5,2.35,0.59,0.28,1.21,0.95,1.09,0.13,0.23,1,-3,3,1.1,6235,7,89,43,37,886,327.0,493,465,60,123.0,134,1,304,187,44,0,0,330,165,170,327,-5.59,,,,,,,,,,,,
188103,1564152932791,5,2.36,0.6,0.27,1.22,0.95,1.0,0.1,0.21,1,-4,3,1.01,6151,7,89,43,37,886,326.0,493,466,60,122.0,134,1,304,193,44,0,0,328,160,175,326,-5.59,,,,,,,,,,,,
188123,1564152932805,6,2.35,0.6,0.28,1.22,0.95,0.88,0.07,0.25,1,-4,3,0.88,6129,7,89,43,37,885,324.0,489,463,60,122.0,134,1,304,193,44,0,0,328,-25856,-23296,323,-5.59,,,,,,,,,,,,
188143,1564152932825,6,2.35,0.6,0.27,1.22,0.95,0.74,0.03,0.27,2,-2,2,0.74,6064,7,89,43,37,884,322.0,484,465,60,123.0,134,1,304,193,44,0,0,324,145,170,322,-5.59,44.680893,10.024757,33.63,177.5,0,0.0,-1,0.0,0.0,0,0.91,3.1357
188163,1564152932845,5,2.36,0.6,0.27,1.22,0.95,0.62,0.03,0.25,2,-0,2,0.62,6048,7,89,43,38,883,320.0,481,465,60,122.0,134,1,307,199,44,0,0,321,-28416,-23296,320,-5.59,,,,,,,,,,,,
188183,1564152932865,5,2.36,0.61,0.27,1.23,0.96,0.56,0.02,0.24,2,1,2,0.56,5988,7,89,43,38,882,318.0,478,464,60,122.0,141,1,306,198,45,0,0,320,135,155,318,-5.59,,,,,,,,,,,,
188203,1564152932901,6,2.36,0.62,0.28,1.24,0.96,0.48,0.01,0.25,2,3,1,0.48,5961,7,89,43,38,881,316.0,472,462,60,122.0,141,1,304,203,45,0,0,319,-30976,-24576,316,-5.59,,,,,,,,,,,,
188223,1564152932921,5,2.36,0.62,0.29,1.24,0.97,0.37,0.01,0.26,3,3,1,0.37,5892,7,89,43,39,881,314.0,465,462,60,121.0,141,1,303,203,45,0,0,317,125,150,314,-5.59,,,,,,,,,,,,
188243,1564152932941,3,2.36,0.62,0.28,1.24,0.97,0.32,-0.01,0.23,3,2,1,0.32,5870,7,89,43,40,881,312.0,461,462,60,122.0,141,1,305,203,45,0,0,312,30720,-29696,312,-5.59,44.680889,10.024747,32.38,177.5,0,0.0,-1,0.0,0.0,0,0.91,3.1374
188263,1564152932961,3,2.35,0.62,0.29,1.24,0.96,0.37,0.02,0.15,2,0,1,0.37,5808,7,89,43,40,882,309.0,461,463,60,122.0,141,1,303,204,45,0,0,309,115,-32256,310,-5.59,,,,,,,,,,,,
188283,1564152932981,2,2.36,0.63,0.28,1.25,0.96,0.53,0.06,0.1,2,-2,2,0.53,5794,7,89,43,41,884,307.0,457,462,60,123.0,146,1,308,205,45,0,0,309,110,125,307,-5.59,,,,,,,,,,,,
188303,1564152932991,6,2.35,0.63,0.29,1.26,0.97,0.68,0.07,0.08,2,-3,1,0.68,5721,7,89,43,42,885,306.0,453,464,60,123.0,146,1,308,206,45,0,0,307,105,120,306,181.28,,,,,,,,,,,,
188323,1564152933011,5,2.35,0.63,0.3,1.25,0.97,0.78,0.08,0.11,2,-1,1,0.79,5680,7,89,43,42,887,302.0,451,462,60,123.0,146,1,305,206,45,0,0,302,100,110,302,-5.59,,,,,,,,,,,,
188343,1564152933031,4,2.36,0.65,0.3,1.25,0.98,0.66,0.02,0.21,2,1,1,0.66,5666,7,89,43,43,886,301.0,446,466,60,122.0,146,1,309,208,45,0,0,303,95,29440,301,-5.59,44.680885,10.024737,31.34,177.6,0,0.0,-1,0.0,0.0,0,0.91,3.1391
188363,1564152933051,1,2.37,0.64,0.3,1.26,0.97,0.58,0.05,0.15,3,1,2,0.58,5618,7,89,43,44,886,299.0,447,464,60,121.0,146,1,310,209,45,0,0,300,90,26880,299,-5.59,,,,,,,,,,,,
188383,1564152933071,5,2.36,0.64,0.28,1.25,0.97,0.72,0.04,0.18,3,0,1,0.72,5550,7,89,43,45,884,297.0,442,462,60,122.0,148,1,310,209,44,0,0,299,85,90,296,181.28,,,,,,,,,,,,
188403,1564152933105,3,2.37,0.64,0.29,1.26,0.98,0.74,0.08,0.2,3,2,2,0.75,5524,7,89,43,45,882,294.0,442,462,60,122.0,148,1,308,210,44,0,0,295,20480,100,294,-5.59,,,,,,,,,,,,
188423,1564152933125,2,2.37,0.64,0.3,1.26,0.98,0.64,0.03,0.23,3,1,2,0.64,5500,7,89,43,46,878,293.0,438,463,60,122.0,148,1,308,212,44,0,0,293,0,24320,293,-5.59,,,,,,,,,,,,
188443,1564152933145,5,2.37,0.65,0.29,1.27,0.97,0.77,0.03,0.31,3,-0,2,0.77,5527,7,89,43,46,877,291.0,436,464,60,122.0,148,1,312,212,44,0,0,291,-16896,85,291,-5.59,44.680885,10.024728,30.34,177.6,0,0.0,-1,0.0,0.0,0,0.91,3.1407
188463,1564152933165,4,2.38,0.65,0.29,1.27,0.97,0.74,0.05,0.3,3,1,2,0.74,5488,7,89,43,47,876,287.0,433,462,60,123.0,148,1,313,214,44,0,0,290,-1529,20480,288,-5.59,,,,,,,,,,,,
188483,1564152933185,1,2.38,0.66,0.3,1.27,0.98,0.74,0.03,0.27,3,0,2,0.74,5437,7,89,43,48,875,287.0,426,465,60,122.0,157,1,313,218,45,0,0,285,1886,0,287,-5.59,,,,,,,,,,,,
188503,1564152933199,2,2.38,0.67,0.31,1.28,0.98,0.86,0.04,0.28,3,-1,2,0.86,5391,7,89,43,48,876,286.0,430,465,60,124.0,157,1,309,217,45,0,0,285,1886,0,286,-5.59,,,,,,,,,,,,
188523,1564152933219,0,2.38,0.67,0.31,1.29,0.99,0.75,-0.0,0.28,3,-1,2,0.75,5328,7,89,43,49,876,285.0,423,462,60,121.0,157,1,307,221,45,0,0,286,250,41,285,-5.59,,,,,,,,,,,,
188543,1564152933239,2,2.39,0.69,0.31,1.29,0.99,0.87,-0.03,0.27,3,-2,2,0.87,5308,7,89,43,49,879,284.0,419,463,60,122.0,157,1,305,221,45,0,0,283,-1534,10686,284,-5.59,44.680878,10.024719,29.21,177.6,0,0.0,-1,0.0,0.0,0,0.91,3.1424
188563,1564152933259,-1,2.39,0.69,0.31,1.3,0.99,0.78,-0.05,0.33,4,1,2,0.78,5293,7,89,43,50,882,283.0,414,461,60,121.0,157,1,308,224,45,0,0,283,630,-16896,282,-5.59,,,,,,,,,,,,
188583,1564152933279,2,2.39,0.69,0.31,1.29,1.0,0.91,-0.05,0.3,4,-0,2,0.91,5244,7,89,43,50,884,281.0,414,464,60,123.0,155,1,303,224,44,0,0,282,250,10686,281,-5.59,,,,,,,,,,,,
188603,1564152933299,-1,2.4,0.69,0.32,1.3,0.99,0.86,-0.07,0.38,4,2,2,0.86,5249,7,89,43,51,886,281.0,407,463,60,121.0,155,1,308,226,44,0,0,279,-1527,-16896,281,-5.59,,,,,,,,,,,,
188623,1564152933310,3,2.4,0.68,0.32,1.29,1.0,0.91,-0.06,0.33,4,-1,3,0.91,5256,7,89,43,51,886,279.0,408,461,60,122.0,155,1,309,227,44,0,0,279,28160,-1529,279,-5.59,,,,,,,,,,,,
188643,1564152933330,-0,2.41,0.69,0.31,1.29,0.99,0.85,-0.06,0.39,4,2,3,0.86,5287,7,89,43,51,887,277.0,410,463,60,122.0,155,1,311,230,44,0,0,275,-1281,24064,277,-5.59,44.680874,10.024711,28.19,177.6,0,0.0,-1,0.0,0.0,0,0.91,3.1441
188663,1564152933350,2,2.42,0.68,0.31,1.29,0.99,0.91,-0.09,0.33,4,0,3,0.92,5241,7,89,43,52,886,278.0,408,463,60,124.0,155,1,312,226,44,0,0,274,-1,250,278,-5.59,,,,,,,,,,,,
188683,1564152933370,-2,2.44,0.69,0.31,1.3,0.99,0.84,-0.11,0.45,5,2,4,0.85,5256,7,89,43,52,884,277.0,409,462,60,123.0,166,1,313,230,46,0,0,276,-1,24064,277,-5.59,,,,,,,,,,,,
188703,1564152933408,2,2.46,0.7,0.32,1.32,0.99,0.88,-0.17,0.36,5,1,4,0.9,5238,7,89,43,52,882,277.0,408,461,60,124.0,166,1,311,230,46,0,0,275,-1,24064,276,-5.59,,,,,,,,,,,,
188723,1564152933428,-1,2.47,0.7,0.31,1.32,1.0,0.82,-0.2,0.45,6,3,3,0.84,5238,7,89,43,53,880,276.0,408,464,60,122.0,166,1,315,233,46,0,0,276,-1,-1529,276,-5.59,,,,,,,,,,,,
188743,1564152933448,3,2.47,0.72,0.32,1.32,1.01,0.91,-0.25,0.43,6,2,5,0.94,5175,7,89,43,53,880,276.0,407,459,60,122.0,166,1,310,229,46,0,0,271,-1,24064,276,-5.59,44.68087,10.024702,27.85,177.6,0,0.0,-1,0.0,0.0,0,0.91,3.1457
188763,1564152933468,-2,2.48,0.73,0.32,1.34,1.0,0.82,-0.22,0.48,7,2,5,0.84,5203,7,89,43,53,879,276.0,408,463,60,121.0,166,1,312,233,46,0,0,271,-1,250,276,-5.59,,,,,,,,,,,,
188783,1564152933488,2,2.48,0.75,0.33,1.36,1.01,0.9,-0.27,0.48,8,0,6,0.94,5165,7,89,43,53,882,278.0,407,460,60,122.0,163,1,309,232,45,0,0,266,-1,10686,278,-5.59,,,,,,,,,,,,
188803,1564152933498,-1,2.49,0.75,0.33,1.36,1.03,0.82,-0.27,0.46,8,2,7,0.86,5172,7,89,43,54,883,276.0,403,466,60,122.0,163,1,315,235,45,0,0,269,-1,24064,276,-5.59,,,,,,,,,,,,
188823,1564152933518,1,2.48,0.77,0.34,1.36,1.03,0.9,-0.2,0.44,9,2,7,0.93,5117,7,89,43,53,887,277.0,406,461,60,123.0,163,1,305,231,45,0,0,268,-1,24064,277,-5.59,,,,,,,,,,,,
188843,1564152933538,-1,2.49,0.78,0.35,1.38,1.04,0.89,-0.24,0.39,9,0,8,0.92,5131,7,89,43,54,889,276.0,400,464,60,123.0,163,1,311,235,45,0,0,266,-1,250,276,-5.59,44.68087,10.024693,27.1,177.7,0,0.0,-1,0.0,0.0,0,0.92,3.1474
188863,1564152933558,-1,2.49,0.79,0.35,1.39,1.04,0.86,-0.23,0.45,10,2,8,0.89,5106,7,89,43,54,890,275.0,402,466,60,122.0,163,1,309,235,45,0,0,265,-41,24064,274,-5.59,,,,,,,,,,,,
188883,1564152933578,1,2.5,0.81,0.35,1.4,1.05,0.94,-0.29,0.46,9,1,10,0.99,5060,7,89,43,54,888,273.0,397,457,60,123.0,163,1,305,234,45,0,0,265,-10440,630,273,181.28,,,,,,,,,,,,
188903,1564152933592,-1,2.51,0.82,0.35,1.4,1.05,0.83,-0.27,0.47,10,2,11,0.87,5056,7,89,43,55,886,274.0,394,467,60,122.0,163,1,302,238,45,0,0,264,14337,1886,274,-5.59,,,,,,,,,,,,
188923,1564152933612,-1,2.51,0.82,0.36,1.41,1.06,0.88,-0.19,0.5,10,1,12,0.9,5048,7,89,43,55,882,274.0,392,461,60,122.0,163,1,301,237,45,0,0,264,506,630,274,-5.59,,,,,,,,,,,,
188943,1564152933632,3,2.51,0.83,0.36,1.41,1.07,0.93,-0.22,0.47,11,-1,13,0.95,4997,7,89,43,55,877,272.0,389,463,60,123.0,163,1,296,236,45,0,0,262,506,250,272,-5.59,44.680866,10.024684,26.67,177.7,0,0.0,-1,0.0,0.0,0,0.92,3.149
188963,1564152933652,-2,2.53,0.83,0.36,1.41,1.06,0.83,-0.23,0.47,11,1,13,0.86,4968,7,89,43,55,872,272.0,390,463,60,122.0,163,1,292,240,45,0,0,261,-1281,250,272,-5.59,,,,,,,,,,,,
188983,1564152933672,-2,2.53,0.83,0.36,1.41,1.06,0.88,-0.24,0.5,12,-0,14,0.91,4940,7,89,43,55,868,272.0,385,462,60,122.0,161,1,290,236,44,0,0,258,-1,30208,272,-5.59,,,,,,,,,,,,
189003,1564152933706,0,2.54,0.83,0.36,1.41,1.07,0.9,-0.25,0.45,13,-1,15,0.93,4913,7,89,43,56,867,273.0,382,461,60,122.0,161,1,282,236,44,0,0,257,-214,-1527,273,181.28,,,,,,,,,,,,
189023,1564152933726,3,2.55,0.83,0.35,1.41,1.06,0.84,-0.23,0.44,14,-1,16,0.87,4880,7,89,43,56,867,273.0,379,467,60,122.0,161,1,277,239,44,0,0,258,-214,30208,271,-5.59,,,,,,,,,,,,
189043,1564152933746,-0,2.56,0.84,0.36,1.41,1.07,0.82,-0.3,0.53,14,1,16,0.87,4844,7,89,43,56,866,272.0,378,464,60,122.0,161,1,274,239,44,0,0,258,10818,630,272,-5.59,44.680866,10.024675,26.91,177.7,0,0.0,-1,0.0,0.0,0,0.92,3.1507
189063,1564152933766,-1,2.57,0.85,0.37,1.42,1.07,0.91,-0.32,0.46,15,1,17,0.96,4825,7,89,43,56,867,274.0,379,463,60,123.0,161,1,272,239,44,0,0,256,10818,-1534,274,-5.59,,,,,,,,,,,,
189083,1564152933786,-1,2.58,0.86,0.36,1.42,1.07,0.98,-0.33,0.44,15,2,20,1.04,4841,7,89,43,56,867,273.0,373,460,60,120.0,160,1,274,239,44,0,0,279,16896,250,273,181.28,,,,,,,,,,,,
189103,1564152933800,1,2.6,0.88,0.37,1.43,1.07,0.9,-0.36,0.44,15,2,20,0.97,4786,7,89,43,56,868,272.0,372,460,60,122.0,160,1,266,238,44,0,0,279,10812,30208,272,-5.59,,,,,,,,,,,,
189123,1564152933820,3,2.61,0.89,0.37,1.43,1.08,0.84,-0.4,0.43,15,2,20,0.93,4799,7,89,43,56,872,272.0,373,462,60,121.0,160,1,264,243,44,0,0,279,-1494,250,272,-5.59,,,,,,,,,,,,
189143,1564152933840,-2,2.63,0.9,0.37,1.43,1.08,0.83,-0.41,0.46,16,2,19,0.92,4734,7,89,43,56,877,272.0,371,466,60,121.0,160,1,261,238,44,0,0,279,10812,30208,272,-5.59,44.680862,10.024668,26.6,177.8,0,0.0,-1,0.0,0.0,0,0.92,3.1524
189163,1564152933860,-1,2.64,0.89,0.37,1.43,1.07,0.87,-0.44,0.47,17,2,19,0.98,4715,7,89,43,57,880,274.0,371,466,60,119.0,160,1,255,243,44,0,0,28,10812,2414,274,-5.59,,,,,,,,,,,,
189183,1564152933880,-0,2.65,0.9,0.37,1.44,1.08,0.91,-0.48,0.47,19,2,22,1.03,4696,7,89,43,56,884,304.0,367,462,60,123.0,138,1,256,238,42,0,0,837,-1,-1527,304,-5.59,,,,,,,,,,,,
189203,1564152933892,-1,2.65,0.91,0.37,1.44,1.08,0.93,-0.47,0.46,20,1,24,1.04,4686,7,89,43,56,890,269.0,364,459,60,124.0,138,1,254,238,42,0,0,837,-1484,-1527,269,181.28,,,,,,,,,,,,
189223,1564152933912,0,2.65,0.9,0.37,1.45,1.08,0.91,-0.5,0.44,21,1,25,1.04,4672,7,89,43,57,896,273.0,361,462,60,123.0,138,1,251,242,42,0,0,837,-17920,630,274,-5.59,,,,,,,,,,,,
189243,1564152933932,1,2.66,0.9,0.37,1.45,1.07,0.92,-0.49,0.42,22,-0,26,1.04,4645,7,89,44,57,898,273.0,355,459,60,123.0,138,1,247,240,42,0,0,837,-17920,-1534,273,181.28,44.680862,10.024657,26.36,177.8,0,0.0,-1,0.0,0.0,0,0.92,3.154
189263,1564152933952,2,2.66,0.9,0.37,1.44,1.08,0.9,-0.48,0.43,22,-0,26,1.02,4641,7,89,44,57,899,274.0,354,461,60,124.0,138,1,247,240,42,0,0,837,-17920,-1534,274,181.28,,,,,,,,,,,,
189283,1564152933972,1,2.66,0.9,0.37,1.44,1.08,0.85,-0.48,0.49,22,1,26,0.98,4600,7,89,44,57,906,274.0,353,463,60,122.0,153,1,242,240,42,0,0,238,-1484,30208,274,-5.59,,,,,,,,,,,,
189303,1564152933992,3,2.65,0.91,0.37,1.45,1.08,0.83,-0.48,0.51,21,2,26,0.95,4589,7,89,44,57,912,272.0,354,463,60,121.0,153,1,240,239,42,0,0,238,250,28160,272,-5.59,,,,,,,,,,,,
189323,1564152934000,3,2.66,0.91,0.37,1.45,1.09,0.79,-0.48,0.53,21,3,26,0.93,4560,7,89,44,57,916,271.0,355,465,60,122.0,153,1,237,235,42,0,0,240,13468,2414,271,-5.59,,,,,,,,,,,,
189343,1564152934020,3,2.66,0.91,0.38,1.44,1.09,0.78,-0.49,0.52,21,2,25,0.92,4531,7,89,43,57,921,271.0,350,468,60,121.0,153,1,234,241,42,0,0,240,-25600,2414,271,-5.59,44.680859,10.024649,25.75,177.8,0,0.0,-1,0.0,0.0,0,0.92,3.1557
189363,1564152934040,2,2.66,0.9,0.37,1.44,1.08,0.76,-0.5,0.5,21,2,25,0.91,4474,7,89,43,57,923,270.0,347,468,60,121.0,153,1,227,241,42,0,0,240,-25600,-1,270,-5.59,,,,,,,,,,,,
189383,1564152934060,3,2.66,0.9,0.37,1.44,1.08,0.71,-0.49,0.53,21,2,25,0.86,4436,7,89,44,57,924,270.0,345,466,60,121.0,148,1,223,239,40,0,0,240,250,250,270,-5.59,,,,,,,,,,,,
189403,1564152934098,3,2.65,0.9,0.37,1.45,1.08,0.67,-0.47,0.56,21,2,25,0.82,4465,7,89,44,57,922,269.0,343,466,60,121.0,148,1,226,239,40,0,0,239,-25600,-1,269,-5.59,,,,,,,,,,,,
189423,1564152934118,2,2.65,0.9,0.37,1.44,1.08,0.64,-0.43,0.52,21,2,25,0.77,4425,7,89,44,57,919,268.0,341,470,60,122.0,148,1,219,234,40,0,0,239,250,-1281,269,-5.59,,,,,,,,,,,,
189443,1564152934138,2,2.66,0.9,0.37,1.44,1.08,0.6,-0.44,0.53,21,1,25,0.75,4395,7,89,44,57,915,269.0,335,467,60,122.0,148,1,218,233,40,0,0,238,250,-1,268,-5.59,44.680859,10.02464,25.78,177.8,0,0.0,-1,0.0,0.0,0,0.92,3.1574
189463,1564152934158,-0,2.66,0.9,0.37,1.44,1.08,0.6,-0.43,0.54,22,1,26,0.74,4433,7,89,44,57,912,267.0,338,464,60,123.0,148,1,223,234,40,0,0,237,-1483,250,267,-5.59,,,,,,,,,,,,
189483,1564152934178,-1,2.66,0.91,0.37,1.44,1.08,0.62,-0.43,0.53,22,2,27,0.75,4396,7,89,44,56,912,267.0,336,460,60,123.0,146,1,219,233,39,0,0,238,-1483,-1281,267,181.28,,,,,,,,,,,,
189503,1564152934198,-2,2.66,0.91,0.37,1.45,1.08,0.64,-0.42,0.51,22,2,27,0.76,4430,7,89,44,57,912,269.0,334,460,60,123.0,146,1,222,239,39,0,0,238,-1483,-1,269,181.28,,,,,,,,,,,,
189523,1564152934208,-1,2.66,0.91,0.37,1.45,1.08,0.66,-0.4,0.52,23,2,29,0.77,4433,7,89,44,57,912,267.0,337,462,60,123.0,146,1,223,234,39,0,0,238,13602,-1,267,414.87,,,,,,,,,,,,
189543,1564152934228,-0,2.66,0.91,0.37,1.45,1.08,0.68,-0.43,0.55,24,0,30,0.81,4443,7,89,44,57,912,265.0,337,461,60,123.0,146,1,224,234,39,0,0,237,8704,-1,265,181.28,44.680859,10.024632,25.31,177.8,0,0.0,-1,0.0,0.0,0,0.92,3.159
189563,1564152934248,-1,2.66,0.92,0.37,1.45,1.08,0.73,-0.44,0.54,25,-1,31,0.85,4451,7,89,44,57,912,265.0,337,460,60,123.0,146,1,225,234,39,0,0,236,8704,-1,265,181.28,,,,,,,,,,,,
189583,1564152934268,-1,2.65,0.91,0.37,1.45,1.08,0.77,-0.41,0.5,26,-2,33,0.87,4423,7,89,44,56,912,265.0,337,461,60,123.0,146,1,223,234,39,0,0,235,250,-1,265,181.28,,,,,,,,,,,,
189603,1564152934305,-0,2.65,0.91,0.37,1.45,1.08,0.79,-0.41,0.51,27,-3,34,0.89,4418,7,89,44,56,911,265.0,340,460,60,124.0,146,1,222,234,39,0,0,236,-1494,-1,265,-5.59,,,,,,,,,,,,
189623,1564152934325,-2,2.66,0.91,0.38,1.45,1.08,0.83,-0.44,0.52,28,-3,35,0.94,4467,8,89,43,56,910,264.0,342,465,60,124.0,146,1,228,236,39,0,0,234,-1494,-1,264,-5.59,,,,,,,,,,,,
189643,1564152934345,-2,2.66,0.92,0.37,1.45,1.08,0.87,-0.46,0.47,28,-4,35,0.98,4429,8,89,43,56,909,264.0,340,464,60,124.0,146,1,224,236,39,0,0,232,10824,-1,264,-5.59,44.680859,10.024623,25.19,177.8,0,0.0,-1,0.0,0.0,0,0.92,3.1607
189663,1564152934365,-2,2.66,0.92,0.37,1.45,1.09,0.9,-0.52,0.45,29,-4,36,1.04,4472,8,89,43,56,908,264.0,341,459,60,122.0,146,1,228,236,39,0,0,234,10824,-1,264,-5.59,,,,,,,,,,,,
189683,1564152934385,-1,2.65,0.92,0.37,1.46,1.09,0.93,-0.51,0.43,29,-5,37,1.06,4461,8,89,43,56,907,263.0,342,462,60,122.0,152,1,227,236,40,0,0,235,10824,-1,263,-5.59,,,,,,,,,,,,
189703,1564152934395,-1,2.66,0.93,0.37,1.46,1.09,0.97,-0.5,0.4,29,-5,37,1.09,4468,8,89,43,56,905,262.0,345,466,60,123.0,152,1,228,241,40,0,0,231,18432,-1,262,-5.59,,,,,,,,,,,,
189723,1564152934415,-2,2.65,0.92,0.38,1.45,1.09,0.99,-0.49,0.36,28,-5,37,1.1,4474,8,89,43,56,903,261.0,342,458,60,122.0,152,1,229,236,40,0,0,233,18432,-1,261,-5.59,,,,,,,,,,,,
189743,1564152934435,-2,2.65,0.92,0.38,1.45,1.09,1.0,-0.5,0.38,28,-5,37,1.12,4431,8,89,43,56,902,261.0,343,459,60,122.0,152,1,224,241,40,0,0,231,18432,-1,261,-5.59,44.680859,10.024613,24.83,177.7,0,0.0,-1,0.0,0.0,0,0.92,3.1624
189763,1564152934455,-1,2.65,0.92,0.37,1.46,1.08,1.01,-0.5,0.36,27,-3,35,1.13,4421,8,89,43,56,902,261.0,343,460,60,121.0,152,1,223,236,40,0,0,231,250,-1,261,-5.59,,,,,,,,,,,,
189783,1564152934475,-2,2.65,0.92,0.38,1.46,1.09,1.01,-0.48,0.35,26,-2,34,1.12,4472,11,89,43,56,903,260.0,341,464,60,121.0,153,1,228,241,40,0,0,232,250,-1,260,-5.59,,,,,,,,,,,,
189803,1564152934491,0,2.65,0.92,0.38,1.46,1.09,1.0,-0.52,0.38,26,-2,33,1.13,4454,12,89,43,57,904,259.0,341,465,60,121.0,153,1,225,241,40,0,0,231,250,-1,259,-5.59,,,,,,,,,,,,
189823,1564152934511,-2,2.66,0.91,0.38,1.45,1.08,1.0,-0.54,0.35,26,-1,32,1.14,4525,12,89,43,58,906,259.0,340,463,60,121.0,153,1,231,246,40,0,0,232,-1496,-1,259,-5.59,,,,,,,,,,,,
189843,1564152934531,-0,2.65,0.91,0.37,1.45,1.09,1.01,-0.55,0.36,26,0,32,1.15,4550,12,89,44,59,910,258.0,345,465,60,120.0,153,1,232,248,40,0,0,230,250,-41,258,-5.59,44.680862,10.024605,25.0,177.7,0,0.0,-1,0.0,0.0,0,0.92,3.1641
189863,1564152934551,-1,2.66,0.92,0.38,1.45,1.09,0.99,-0.56,0.36,26,1,31,1.14,4557,12,89,44,59,917,258.0,345,468,60,123.0,153,1,233,248,40,0,0,230,19968,-41,258,-5.59,,,,,,,,,,,,
189883,1564152934571,-2,2.66,0.92,0.38,1.45,1.09,1.01,-0.55,0.32,26,1,32,1.15,4594,12,89,43,59,924,258.0,345,472,60,122.0,166,1,237,249,43,0,0,230,10318,-1,258,-5.59,,,,,,,,,,,,
189903,1564152934605,-2,2.66,0.93,0.37,1.46,1.09,1.05,-0.56,0.32,26,1,33,1.19,4575,12,89,44,59,929,259.0,347,464,60,122.0,166,1,235,248,43,0,0,229,10318,-1,259,-5.59,,,,,,,,,,,,
189923,1564152934625,-2,2.66,0.92,0.38,1.45,1.09,1.06,-0.55,0.33,26,1,34,1.2,4579,13,89,43,60,932,257.0,347,461,60,123.0,166,1,233,254,43,0,0,229,19968,-1,257,-5.59,,,,,,,,,,,,
189943,1564152934645,-0,2.65,0.92,0.38,1.46,1.09,1.09,-0.55,0.35,27,-1,35,1.22,4636,13,89,43,61,934,257.0,350,463,60,124.0,166,1,236,255,43,0,0,230,19968,-1,257,-5.59,44.680866,10.024597,24.62,177.8,0,0.0,-1,0.0,0.0,0,0.92,3.1657
189963,1564152934665,-1,2.66,0.92,0.37,1.46,1.09,1.09,-0.54,0.37,28,-2,35,1.22,4608,13,90,44,61,934,257.0,351,463,60,124.0,166,1,233,253,43,0,0,228,19968,14337,257,181.28,,,,,,,,,,,,
189983,1564152934685,-0,2.66,0.92,0.37,1.46,1.09,1.06,-0.53,0.36,28,-3,36,1.19,4636,20,90,44,62,931,256.0,350,461,60,124.0,179,1,237,264,46,0,0,227,19968,-41,256,181.28,,,,,,,,,,,,
190003,1564152934699,1,2.65,0.92,0.37,1.46,1.09,1.0,-0.53,0.37,28,-3,35,1.13,4664,20,90,44,64,927,255.0,355,461,60,124.0,179,1,241,276,46,0,0,227,19968,-1,255,-5.59,,,,,,,,,,,,
190023,1564152934719,3,2.64,0.92,0.38,1.45,1.09,0.92,-0.5,0.37,27,-3,34,1.05,4692,20,89,44,65,922,255.0,356,463,60,123.0,179,1,245,282,46,0,0,228,250,-10440,255,-5.59,,,,,,,,,,,,
190043,1564152934739,-0,2.65,0.92,0.37,1.46,1.09,0.86,-0.52,0.42,26,-2,33,1.01,4734,20,89,44,66,917,255.0,359,462,60,122.0,179,1,249,289,46,0,0,227,250,506,255,-5.59,44.680866,10.024589,24.15,177.8,0,0.0,-1,0.0,0.0,0,0.92,3.1674
190063,1564152934759,-0,2.65,0.92,0.37,1.46,1.09,0.87,-0.53,0.43,26,-1,32,1.02,4756,20,89,43,67,916,255.0,361,463,60,121.0,179,1,252,298,46,0,0,227,-1530,-1,255,-5.59,,,,,,,,,,,,
190083,1564152934779,-2,2.65,0.92,0.38,1.46,1.09,0.94,-0.5,0.39,26,-2,33,1.06,4828,20,90,44,68,915,255.0,361,460,60,123.0,208,1,259,297,53,0,0,227,-1530,506,255,-5.59,,,,,,,,,,,,
190103,1564152934791,2,2.65,0.93,0.38,1.47,1.1,0.94,-0.49,0.39,26,-3,34,1.06,4852,25,90,44,69,913,254.0,366,460,60,124.0,208,1,261,308,53,0,0,225,-1530,-1,254,181.28,,,,,,,,,,,,
190123,1564152934811,-1,2.66,0.93,0.38,1.46,1.1,0.84,-0.49,0.42,25,-2,33,0.97,4947,26,90,44,71,911,255.0,370,466,60,123.0,208,1,269,319,53,0,0,225,15360,14337,255,-5.59,,,,,,,,,,,,
190143,1564152934831,-0,2.65,0.93,0.38,1.47,1.09,0.86,-0.48,0.47,26,-1,32,0.98,4974,26,89,44,72,911,255.0,373,463,60,121.0,208,1,271,325,53,0,0,225,1596,-1281,255,-5.59,44.680866,10.024581,23.96,177.7,0,0.0,-1,0.0,0.0,0,0.92,3.169
190163,1564152934851,2,2.65,0.93,0.38,1.46,1.1,0.92,-0.44,0.49,25,-2,33,1.02,5047,26,90,44,73,911,255.0,376,462,60,124.0,208,1,277,332,53,0,0,226,1596,-41,255,-5.59,,,,,,,,,,,,
190183,1564152934871,-0,2.64,0.93,0.38,1.46,1.09,0.8,-0.46,0.39,25,-2,34,0.92,5145,26,90,44,74,913,255.0,384,463,60,122.0,258,1,286,344,66,0,0,225,1596,-10440,255,-5.59,,,,,,,,,,,,
190203,1564152934907,2,2.63,0.94,0.38,1.47,1.1,0.89,-0.38,0.39,26,-3,33,0.97,5253,26,90,44,74,917,254.0,387,462,60,123.0,258,1,294,349,66,0,0,227,15360,-10440,254,-5.59,,,,,,,,,,,,
190223,1564152934927,-2,2.63,0.94,0.38,1.46,1.09,0.74,-0.41,0.44,26,-2,33,0.84,5389,26,90,44,74,919,254.0,397,460,60,121.0,258,1,304,353,66,0,0,226,1596,-1281,254,-5.59,,,,,,,,,,,,
190243,1564152934947,1,2.61,0.94,0.38,1.47,1.1,0.81,-0.37,0.39,25,-4,34,0.89,5452,26,90,44,73,923,253.0,403,463,60,122.0,258,1,309,351,66,0,0,225,1596,14337,254,-5.59,44.68087,10.024573,24.18,177.8,0,0.0,-1,0.0,0.0,0,0.92,3.1707
190263,1564152934967,1,2.61,0.93,0.38,1.46,1.1,0.91,-0.35,0.44,24,-4,33,0.98,5630,26,90,44,72,936,252.0,411,462,60,122.0,258,1,323,359,66,0,0,225,1596,-1,252,-5.59,,,,,,,,,,,,
190283,1564152934987,2,2.59,0.93,0.38,1.47,1.1,0.85,-0.34,0.49,24,-1,32,0.91,5799,26,90,44,71,950,252.0,422,462,60,122.0,301,1,338,353,76,0,0,229,-1530,-1,251,-5.59,,,,,,,,,,,,
190303,1564152934995,1,2.59,0.93,0.39,1.47,1.09,0.75,-0.32,0.53,24,3,31,0.82,6032,26,90,44,70,961,251.0,436,463,60,122.0,301,1,357,328,76,0,0,227,250,-1,251,-5.59,,,,,,,,,,,,
190323,1564152935015,-1,2.58,0.94,0.38,1.47,1.09,0.79,-0.33,0.54,24,5,30,0.85,6300,27,90,44,68,971,251.0,455,461,60,122.0,301,1,368,304,76,0,0,229,250,10818,251,-5.59,,,,,,,,,,,,
190343,1564152935035,1,2.58,0.94,0.38,1.47,1.1,0.87,-0.3,0.53,23,3,30,0.92,6519,27,90,44,66,988,250.0,474,463,60,124.0,301,1,383,295,76,0,0,229,19968,506,250,-5.59,44.680874,10.024566,23.83,177.8,0,0.0,-1,0.0,0.0,0,0.93,3.1724
190363,1564152935055,-0,2.57,0.94,0.38,1.47,1.1,0.78,-0.36,0.65,22,3,30,0.86,6656,27,89,44,65,1007,250.0,491,465,60,122.0,301,1,393,293,76,0,0,229,19968,-1,250,-5.59,,,,,,,,,,,,
190383,1564152935075,2,2.57,0.93,0.38,1.47,1.1,0.86,-0.32,0.62,22,2,30,0.91,6818,27,90,44,64,1018,248.0,503,464,60,124.0,298,1,403,293,74,0,0,228,250,-1,248,-5.59,,,,,,,,,,,,
190403,1564152935095,-1,2.58,0.93,0.38,1.47,1.1,0.76,-0.33,0.61,21,2,29,0.83,6993,27,90,44,62,1026,248.0,513,460,60,123.0,298,1,419,295,74,0,0,228,-1530,-214,248,-5.59,,,,,,,,,,,,
190423,1564152935109,-0,2.57,0.92,0.38,1.47,1.09,0.89,-0.38,0.65,20,-0,29,0.96,7247,27,90,44,61,1035,247.0,524,466,60,121.0,298,1,430,290,74,0,0,228,-1530,-1,247,-5.59,,,,,,,,,,,,
190443,1564152935129,-0,2.58,0.92,0.38,1.46,1.09,0.93,-0.36,0.69,20,0,28,0.99,7405,27,90,44,60,1045,247.0,546,466,60,123.0,298,1,427,287,74,0,0,229,250,10818,247,-5.59,44.680878,10.024558,23.91,177.8,0,0.0,-1,0.0,0.0,0,0.93,3.1741
190463,1564152935149,-0,2.59,0.91,0.38,1.45,1.08,0.96,-0.43,0.73,20,0,27,1.05,7615,21,90,44,58,1048,249.0,557,464,60,122.0,298,1,419,277,74,0,0,229,-1530,-1,249,-5.59,,,,,,,,,,,,
190483,1564152935169,1,2.6,0.91,0.37,1.45,1.08,0.93,-0.41,0.69,20,-0,28,1.02,7835,14,90,44,53,1048,249.0,567,462,60,123.0,311,1,387,258,77,0,0,230,19968,-1,249,-5.59,,,,,,,,,,,,
190503,1564152935205,3,2.61,0.89,0.36,1.45,1.08,0.88,-0.39,0.67,21,0,26,0.96,8040,8,90,44,48,1049,249.0,583,465,60,123.0,311,1,372,229,77,0,0,228,19968,-1,249,-5.59,,,,,,,,,,,,
190523,1564152935225,1,2.62,0.9,0.36,1.45,1.07,0.92,-0.45,0.68,21,0,26,1.02,8130,6,90,44,44,1051,249.0,595,463,60,123.0,311,1,348,213,77,0,0,229,250,10818,249,-5.59,,,,,,,,,,,,
190543,1564152935245,2,2.65,0.89,0.36,1.44,1.07,0.81,-0.43,0.62,22,1,27,0.92,8220,0,90,44,39,1052,250.0,605,462,60,123.0,311,1,314,207,77,0,0,227,-1530,-1,249,-5.59,44.680882,10.024552,23.74,177.8,0,0.0,-1,0.0,0.0,0,0.93,3.1757
190563,1564152935265,1,2.65,0.9,0.36,1.44,1.07,0.88,-0.44,0.66,22,1,26,0.98,8212,0,90,44,36,1054,250.0,608,463,60,124.0,311,1,305,192,77,0,0,226,1596,-1,250,-5.59,,,,,,,,,,,,
190583,1564152935285,2,2.67,0.92,0.37,1.46,1.08,0.81,-0.44,0.57,23,1,26,0.92,8127,0,90,44,33,1044,250.0,608,465,60,123.0,220,1,294,175,55,0,0,225,15360,-1,250,-5.59,,,,,,,,,,,,
190603,1564152935298,-0,2.67,0.93,0.37,1.47,1.09,0.84,-0.44,0.63,23,2,27,0.95,8057,0,90,44,31,1024,251.0,608,463,60,123.0,220,1,288,165,55,0,0,224,250,506,251,-5.59,,,,,,,,,,,,
190623,1564152935318,-1,2.68,0.93,0.38,1.47,1.09,0.91,-0.47,0.62,23,1,26,1.03,7934,0,90,44,30,1004,251.0,604,464,60,123.0,220,1,284,162,55,0,0,224,250,-1,251,-5.59,,,,,,,,,,,,
190643,1564152935338,1,2.68,0.93,0.37,1.46,1.09,0.88,-0.47,0.6,23,0,28,1.0,7783,0,90,44,29,983,251.0,599,464,60,122.0,220,1,280,160,55,0,0,222,-1532,-1,251,-5.59,44.680885,10.024546,23.62,177.8,0,0.0,-1,0.0,0.0,0,0.93,3.1774
190663,1564152935358,1,2.68,0.92,0.37,1.46,1.09,0.86,-0.48,0.57,23,0,29,0.99,7572,0,90,43,28,955,250.0,593,462,60,123.0,220,1,275,160,55,0,0,222,1210,-1,250,-5.59,,,,,,,,,,,,
190683,1564152935378,1,2.68,0.92,0.37,1.46,1.08,0.84,-0.47,0.54,23,-1,28,0.96,7431,0,90,43,27,920,251.0,581,465,60,122.0,178,1,271,160,45,0,0,223,-1532,-1,251,-5.59,,,,,,,,,,,,
190703,1564152935398,-0,2.68,0.91,0.37,1.46,1.08,0.93,-0.5,0.55,23,-2,29,1.05,7222,0,90,43,27,890,252.0,573,466,60,123.0,178,1,270,158,45,0,0,221,-1532,-1,252,-5.59,,,,,,,,,,,,
190723,1564152935410,1,2.69,0.91,0.36,1.45,1.08,0.95,-0.56,0.62,22,-2,31,1.1,7064,0,90,43,27,878,252.0,558,468,60,122.0,178,1,268,158,45,0,0,222,-1532,-1,252,-5.59,,,,,,,,,,,,
190743,1564152935430,1,2.7,0.92,0.37,1.46,1.08,0.92,-0.52,0.58,23,1,32,1.06,6949,0,90,43,27,864,251.0,548,462,60,124.0,178,1,269,158,45,0,0,223,-1532,-1,251,-5.59,44.680885,10.024539,23.75,177.8,0,0.0,-1,0.0,0.0,0,0.93,3.179
190763,1564152935450,4,2.7,0.92,0.37,1.45,1.09,0.92,-0.57,0.64,23,-1,31,1.09,6742,0,90,43,28,850,255.0,535,466,60,122.0,178,1,274,160,45,0,0,219,250,-1,255,-5.59,,,,,,,,,,,,
190783,1564152935470,-0,2.71,0.91,0.37,1.45,1.08,0.94,-0.55,0.56,24,1,31,1.09,6588,0,90,43,28,839,251.0,525,463,60,123.0,157,1,275,160,40,0,0,220,-1532,-214,251,-5.59,,,,,,,,,,,,
190803,1564152935508,4,2.72,0.91,0.36,1.45,1.07,1.01,-0.55,0.51,25,1,32,1.15,6454,0,90,43,29,839,252.0,513,466,60,122.0,157,1,279,161,40,0,0,216,-17920,-214,252,-5.59,,,,,,,,,,,,
190823,1564152935528,4,2.73,0.91,0.36,1.45,1.07,0.93,-0.56,0.51,26,1,32,1.08,6323,0,90,43,29,839,250.0,504,462,60,122.0,157,1,280,161,40,0,0,216,1088,250,250,-5.59,,,,,,,,,,,,
190843,1564152935548,8,2.74,0.91,0.36,1.45,1.08,0.86,-0.56,0.51,26,1,32,1.02,6149,0,90,43,30,844,250.0,498,465,60,122.0,157,1,284,163,40,0,0,213,250,10818,248,-5.59,44.680893,10.024534,23.34,177.7,0,0.0,-1,0.0,0.0,0,0.93,3.1807
190863,1564152935568,7,2.73,0.92,0.36,1.45,1.07,0.84,-0.53,0.47,27,1,32,1.0,6005,0,90,43,30,849,246.0,488,462,60,122.0,157,1,284,164,40,0,0,206,-14848,10812,246,-5.59,,,,,,,,,,,,
190883,1564152935588,6,2.73,0.92,0.36,1.46,1.08,0.79,-0.55,0.46,27,2,32,0.96,5844,0,90,43,31,853,245.0,475,464,60,122.0,146,1,279,162,36,0,0,205,-1482,250,245,-5.59,,,,,,,,,,,,
190903,1564152935596,4,2.74,0.92,0.37,1.46,1.08,0.74,-0.57,0.42,27,1,32,0.94,5671,0,90,43,33,860,243.0,462,464,60,122.0,146,1,275,168,36,0,0,200,-29696,-17920,243,-5.59,,,,,,,,,,,,
190923,1564152935616,6,2.74,0.93,0.36,1.45,1.09,0.83,-0.54,0.32,27,0,33,0.99,5521,0,90,43,34,871,242.0,453,463,60,122.0,146,1,270,167,36,0,0,196,250,23482,242,-5.59,,,,,,,,,,,,
190943,1564152935636,5,2.73,0.92,0.37,1.46,1.08,0.82,-0.54,0.3,27,1,33,0.98,5354,0,90,43,35,881,240.0,440,465,60,121.0,146,1,263,176,36,0,0,199,12800,-25600,240,-5.59,44.680897,10.024529,23.21,177.7,0,0.0,-1,0.0,0.0,0,0.93,3.1824
190963,1564152935656,7,2.74,0.91,0.36,1.46,1.08,0.85,-0.51,0.22,26,1,34,0.99,5241,0,90,43,37,886,237.0,428,463,60,123.0,146,1,260,182,36,0,0,197,12800,-25600,237,-5.59,,,,,,,,,,,,
190983,1564152935676,4,2.74,0.92,0.36,1.46,1.07,0.82,-0.54,0.32,26,4,34,0.98,5092,0,90,43,39,891,235.0,420,463,60,122.0,157,1,255,193,37,0,0,197,19456,8704,234,-5.59,,,,,,,,,,,,
191003,1564152935696,3,2.75,0.91,0.36,1.45,1.08,0.9,-0.51,0.28,26,2,34,1.04,4951,0,90,43,40,899,231.0,408,458,60,123.0,157,1,247,200,37,0,0,196,250,13602,231,181.28,,,,,,,,,,,,
191023,1564152935710,6,2.74,0.91,0.37,1.45,1.08,0.94,-0.53,0.25,27,-0,34,1.08,4833,0,90,43,41,907,229.0,397,461,60,124.0,157,1,238,198,37,0,0,196,14326,250,229,-5.59,,,,,,,,,,,,
191043,1564152935730,6,2.75,0.92,0.36,1.46,1.08,0.93,-0.5,0.21,26,-0,35,1.05,4678,0,90,43,42,909,227.0,388,461,60,123.0,157,1,226,195,37,0,0,190,-2560,19968,227,-5.59,44.680904,10.024525,21.96,177.7,0,0.0,-1,0.0,0.0,0,0.93,3.1841
191063,1564152935750,6,2.75,0.91,0.36,1.44,1.08,0.97,-0.48,0.13,26,1,35,1.08,4553,0,90,43,43,911,225.0,374,463,60,123.0,157,1,216,195,37,0,0,187,-1,250,224,-5.59,,,,,,,,,,,,
191083,1564152935770,7,2.75,0.9,0.36,1.45,1.07,0.99,-0.47,0.14,26,-1,35,1.1,4429,0,90,43,44,902,222.0,362,464,60,124.0,144,1,205,194,32,0,0,189,-1,15360,222,181.28,,,,,,,,,,,,
191103,1564152935806,5,2.76,0.9,0.36,1.44,1.08,1.01,-0.49,0.12,26,-1,35,1.13,4324,0,90,43,45,892,219.0,355,461,60,123.0,144,1,196,194,32,0,0,181,-1,250,219,-5.59,,,,,,,,,,,,
191123,1564152935826,4,2.77,0.9,0.35,1.44,1.07,1.04,-0.5,0.12,27,-3,36,1.15,4150,0,90,43,45,880,218.0,340,456,60,124.0,144,1,178,191,32,0,0,182,-1,250,218,181.28,,,,,,,,,,,,
191143,1564152935846,6,2.77,0.9,0.36,1.44,1.07,1.03,-0.49,0.12,27,-2,35,1.14,4002,0,90,43,46,867,216.0,333,465,60,120.0,144,1,164,191,32,0,0,182,-1,-1532,216,-5.59,44.680904,10.024522,21.17,177.7,0,0.0,-1,0.0,0.0,0,0.93,3.1857
191163,1564152935866,4,2.78,0.9,0.36,1.44,1.07,1.01,-0.47,0.13,27,-2,35,1.11,3914,0,90,43,47,857,214.0,320,465,60,124.0,144,1,162,193,32,0,0,174,-236,16384,214,-5.59,,,,,,,,,,,,
191183,1564152935886,8,2.78,0.9,0.36,1.46,1.07,1.02,-0.48,0.15,27,-2,36,1.13,3838,0,90,43,47,848,212.0,312,455,60,124.0,126,1,160,191,27,0,0,173,3584,966,212,-5.59,,,,,,,,,,,,
191203,1564152935898,5,2.78,0.9,0.36,1.46,1.08,1.02,-0.47,0.19,27,-1,35,1.12,3784,0,90,43,48,848,211.0,301,466,60,123.0,126,1,157,194,27,0,0,173,3584,250,211,-5.59,,,,,,,,,,,,
191223,1564152935918,7,2.78,0.91,0.36,1.45,1.07,1.03,-0.45,0.22,27,-1,36,1.12,3666,0,90,43,49,851,208.0,297,452,60,123.0,126,1,154,196,27,0,0,173,10620,250,208,-5.59,,,,,,,,,,,,
191243,1564152935938,5,2.78,0.91,0.37,1.45,1.08,1.03,-0.42,0.23,27,-1,36,1.11,3580,0,90,43,51,853,207.0,283,470,60,124.0,126,1,152,198,27,0,0,170,250,-29696,207,181.28,44.680912,10.024519,19.81,177.6,0,0.0,-1,0.0,0.0,0,0.93,3.1874
191263,1564152935958,5,2.78,0.91,0.36,1.46,1.07,0.99,-0.39,0.24,27,0,34,1.07,3483,0,90,43,52,854,204.0,281,459,60,121.0,126,1,150,205,27,0,0,169,-1,13874,204,-5.59,,,,,,,,,,,,
191283,1564152935978,5,2.79,0.9,0.37,1.45,1.08,1.04,-0.42,0.18,27,-1,36,1.12,3386,0,90,43,53,854,202.0,277,456,60,123.0,133,1,150,209,27,0,0,165,888,250,201,-5.59,,,,,,,,,,,,
191303,1564152935998,6,2.78,0.9,0.36,1.46,1.08,1.07,-0.42,0.16,27,-2,37,1.15,3283,0,90,43,55,852,199.0,272,469,60,124.0,133,1,0,214,27,0,0,165,30720,19456,199,181.28,,,,,,,,,,,,
191323,1564152936008,6,2.79,0.9,0.37,1.45,1.08,1.1,-0.39,0.19,27,-3,37,1.17,3182,9,90,43,56,852,197.0,266,463,60,124.0,133,1,150,250,27,0,0,161,250,14326,197,181.28,,,,,,,,,,,,
191343,1564152936028,6,2.79,0.9,0.37,1.46,1.08,1.09,-0.38,0.22,27,-2,35,1.16,3075,14,90,43,59,851,196.0,259,463,60,124.0,133,1,150,261,27,0,0,161,-1494,-1481,196,181.28,44.680916,10.024517,19.25,177.6,0,0.0,-1,0.0,0.0,0,0.93,3.189
191363,1564152936048,5,2.79,0.9,0.36,1.45,1.08,1.09,-0.37,0.24,27,-2,35,1.15,2979,20,90,43,62,852,193.0,255,467,60,124.0,133,1,154,271,27,0,0,159,3072,250,193,181.28,,,,,,,,,,,,
191383,1564152936068,4,2.79,0.9,0.37,1.45,1.08,1.1,-0.36,0.25,27,-3,35,1.16,2910,33,90,43,67,853,192.0,247,465,60,124.0,156,1,172,284,30,0,0,158,250,-1,192,181.28,,,,,,,,,,,,
191403,1564152936104,5,2.78,0.89,0.36,1.44,1.07,1.12,-0.38,0.24,27,-5,36,1.18,2896,40,90,43,75,856,191.0,245,466,60,124.0,156,1,172,272,30,0,0,156,-1,-1281,189,181.28,,,,,,,,,,,,
191423,1564152936124,4,2.78,0.87,0.36,1.42,1.07,1.13,-0.38,0.23,27,-5,37,1.2,2921,46,90,43,83,860,188.0,243,467,60,124.0,156,1,172,300,30,0,0,155,-1,-1,188,181.28,,,,,,,,,,,,
191443,1564152936144,6,2.79,0.87,0.35,1.42,1.06,1.16,-0.38,0.24,27,-6,38,1.22,3071,50,90,43,88,865,187.0,242,466,60,124.0,156,1,180,319,30,0,0,154,23460,-1,187,181.28,44.680923,10.024515,17.86,177.6,0,0.0,-1,0.0,0.0,0,0.93,3.1907
191463,1564152936164,4,2.77,0.87,0.36,1.43,1.06,1.14,-0.36,0.27,26,-5,36,1.19,3255,53,90,44,91,868,184.0,246,465,60,124.0,156,1,187,372,30,0,0,150,-23552,-1,184,181.28,,,,,,,,,,,,
191483,1564152936184,5,2.77,0.87,0.36,1.43,1.06,1.1,-0.34,0.22,26,-2,36,1.15,3305,53,90,44,92,872,182.0,249,461,60,124.0,252,1,195,408,46,0,0,150,-1281,-1,182,181.28,,,,,,,,,,,,
191503,1564152936194,6,2.76,0.87,0.35,1.43,1.06,1.09,-0.3,0.22,26,-0,35,1.13,3183,53,90,43,92,875,178.0,253,451,60,121.0,252,1,195,398,46,0,0,148,-1,-236,178,-5.59,,,,,,,,,,,,
191523,1564152936214,7,2.75,0.87,0.35,1.43,1.07,1.07,-0.29,0.2,25,0,34,1.11,3149,57,90,44,93,877,177.0,253,460,60,123.0,252,1,202,426,46,0,0,146,-1,-1495,177,-5.59,,,,,,,,,,,,
191543,1564152936234,9,2.72,0.87,0.36,1.43,1.06,1.09,-0.27,0.21,25,-0,34,1.12,3112,57,90,44,94,877,173.0,253,457,60,123.0,252,1,210,462,46,0,0,144,-1,250,173,-5.59,44.680923,10.024514,17.12,177.6,0,0.0,-1,0.0,0.0,0,0.93,3.1924
191563,1564152936254,10,2.71,0.86,0.35,1.42,1.06,1.09,-0.26,0.2,24,-0,34,1.12,3083,57,90,44,94,876,168.0,252,465,60,124.0,252,1,210,460,46,0,0,141,-236,-1,168,-5.59,,,,,,,,,,,,
191583,1564152936274,11,2.69,0.84,0.35,1.41,1.06,1.11,-0.24,0.19,23,-1,33,1.14,3037,57,91,44,94,875,164.0,248,469,60,124.0,323,1,210,457,53,0,0,139,5120,30720,164,-5.59,,,,,,,,,,,,
191603,1564152936294,11,2.67,0.83,0.35,1.38,1.06,1.13,-0.23,0.2,22,-2,33,1.15,3047,57,90,44,94,873,161.0,249,467,60,124.0,323,1,210,458,53,0,0,137,-1,-1281,161,-5.59,,,,,,,,,,,,
191623,1564152936307,14,2.64,0.81,0.34,1.37,1.04,1.16,-0.2,0.21,22,-4,32,1.17,3112,57,91,44,94,872,157.0,248,468,60,124.0,323,1,210,462,53,0,0,136,-1,-1,157,-5.59,,,,,,,,,,,,
191643,1564152936327,15,2.62,0.78,0.33,1.35,1.02,1.17,-0.18,0.19,21,-7,31,1.18,3133,57,91,44,94,884,153.0,248,472,60,124.0,323,1,210,464,53,0,0,132,-1,-23552,153,181.28,44.680927,10.024514,16.14,177.6,0,0.0,-1,0.0,0.0,0,0.93,3.1941
191663,1564152936347,13,2.59,0.76,0.32,1.32,1.01,1.17,-0.18,0.19,20,-7,30,1.19,3199,57,91,44,94,936,146.0,249,463,60,124.0,323,1,210,469,53,0,0,131,-1,-1,146,181.28,,,,,,,,,,,,
191683,1564152936367,12,2.56,0.75,0.32,1.32,1.02,1.16,-0.14,0.17,19,-5,28,1.17,3303,57,91,44,94,987,142.0,252,459,60,124.0,404,1,210,478,59,0,0,129,-202,5140,142,181.28,,,,,,,,,,,,
191703,1564152936401,12,2.53,0.76,0.31,1.33,1.01,1.13,-0.11,0.14,18,-2,27,1.14,3409,57,90,44,93,1040,138.0,258,450,60,122.0,404,1,202,485,59,0,0,127,11264,-1281,138,-5.59,,,,,,,,,,,,
191723,1564152936421,16,2.49,0.76,0.32,1.33,1.01,1.14,-0.08,0.17,17,-4,27,1.15,3539,57,90,44,93,1105,134.0,261,466,60,124.0,404,1,204,457,59,0,0,123,13862,-1,134,181.28,,,,,,,,,,,,
191743,1564152936441,11,2.46,0.75,0.32,1.32,1.01,1.15,-0.06,0.17,16,-3,24,1.15,3604,57,91,44,93,1206,129.0,267,456,60,124.0,404,1,208,462,59,0,0,121,13856,-1,129,-5.59,44.680931,10.024514,14.89,177.6,0,0.0,-1,0.0,0.0,0,0.93,3.1957
191763,1564152936461,15,2.43,0.76,0.32,1.33,1.02,1.15,-0.04,0.17,15,-3,23,1.15,3618,57,91,44,93,1307,124.0,272,446,60,123.0,404,1,209,464,59,0,0,118,-1482,13868,124,-5.59,,,,,,,,,,,,
191783,1564152936481,12,2.4,0.77,0.32,1.34,1.02,1.13,-0.01,0.18,13,-4,22,1.13,3673,57,91,44,93,1355,118.0,272,472,60,124.0,524,1,213,469,65,0,0,115,250,250,118,181.28,,,,,,,,,,,,
191803,1564152936493,12,2.38,0.77,0.32,1.33,1.03,1.13,0.01,0.14,12,-2,19,1.13,3620,57,91,44,93,1403,118.0,277,446,60,123.0,524,1,209,464,65,0,0,112,5120,250,113,-5.59,,,,,,,,,,,,
191823,1564152936513,12,2.36,0.77,0.33,1.34,1.02,1.14,0.0,0.15,11,-3,18,1.14,3700,57,91,44,93,1450,113.0,277,474,60,124.0,524,1,215,472,65,0,0,110,13838,-1482,113,181.28,,,,,,,,,,,,
191843,1564152936533,12,2.34,0.78,0.33,1.33,1.03,1.12,0.04,0.12,10,-2,16,1.12,3671,57,90,44,93,1498,108.0,280,457,60,123.0,524,1,213,469,65,0,0,110,13838,-1482,108,-5.59,44.680939,10.024514,12.53,177.6,0,0.0,-1,0.0,0.0,0,0.93,3.1974
191863,1564152936553,11,2.33,0.78,0.33,1.35,1.02,1.13,0.04,0.14,9,-3,15,1.13,3690,57,91,44,93,1498,104.0,280,476,60,124.0,524,1,214,471,65,0,0,105,-1482,250,104,181.28,,,,,,,,,,,,
191883,1564152936573,11,2.32,0.79,0.33,1.36,1.03,1.11,0.06,0.12,8,-1,13,1.12,3706,54,90,44,93,1498,99.0,282,463,60,123.0,625,1,215,472,65,0,0,101,-1483,2048,99,181.28,,,,,,,,,,,,
191903,1564152936607,10,2.32,0.8,0.33,1.36,1.04,1.14,0.03,0.14,8,-3,12,1.14,3736,50,91,44,92,1498,99.0,283,467,60,124.0,625,1,209,441,65,0,0,98,-1481,2048,99,-5.59,,,,,,,,,,,,
191923,1564152936627,10,2.33,0.81,0.33,1.38,1.04,1.12,0.04,0.16,7,-1,10,1.12,3835,46,90,44,91,1498,95.0,287,467,60,124.0,625,1,205,419,65,0,0,98,-1481,250,95,181.28,,,,,,,,,,,,
191943,1564152936647,9,2.32,0.82,0.34,1.38,1.04,1.13,0.01,0.19,6,-3,10,1.13,3854,39,91,44,90,1498,91.0,290,462,60,124.0,625,1,196,389,65,0,0,94,-1481,250,90,-5.59,44.680939,10.024514,10.87,177.6,0,0.0,-1,0.0,0.0,0,0.93,3.199
191963,1564152936667,11,2.34,0.83,0.34,1.39,1.05,1.13,0.01,0.2,6,-2,9,1.13,3960,38,91,44,89,1498,90.0,295,457,60,122.0,625,1,201,402,65,0,0,89,14284,-1481,90,-5.59,,,,,,,,,,,,
191983,1564152936687,9,2.34,0.83,0.34,1.4,1.05,1.11,0.01,0.19,5,-2,7,1.11,4067,38,91,44,88,1498,86.0,297,475,60,124.0,720,1,208,408,62,0,0,89,14284,-1481,86,181.28,,,,,,,,,,,,
192003,1564152936697,8,2.34,0.84,0.34,1.4,1.05,1.13,-0.0,0.19,4,-2,7,1.13,4160,38,91,44,87,1498,81.0,303,462,60,124.0,720,1,216,408,62,0,0,84,-16896,-1481,81,181.28,,,,,,,,,,,,
192023,1564152936717,7,2.35,0.84,0.35,1.4,1.06,1.13,-0.02,0.19,4,-3,7,1.13,4175,38,91,44,87,1498,81.0,308,456,60,124.0,720,1,217,409,62,0,0,80,-16896,-1481,81,-5.59,,,,,,,,,,,,
192043,1564152936737,7,2.36,0.84,0.35,1.41,1.05,1.13,-0.01,0.23,4,-3,6,1.13,4348,38,90,44,87,1498,77.0,314,458,60,123.0,720,1,233,419,62,0,0,80,-20480,14256,76,-5.59,44.680943,10.024513,9.23,177.6,0,0.0,-1,0.0,0.0,0,0.93,3.2007
192063,1564152936757,7,2.36,0.84,0.35,1.41,1.06,1.12,0.03,0.26,4,-2,5,1.12,4434,38,90,44,86,1498,76.0,322,459,60,122.0,720,1,239,420,62,0,0,74,-1481,-24064,76,-5.59,,,,,,,,,,,,
192083,1564152936777,7,2.35,0.85,0.35,1.4,1.06,1.09,0.04,0.33,3,-2,5,1.1,4576,38,90,44,86,1498,71.0,327,461,60,122.0,1014,1,251,427,72,0,0,74,-1481,-24064,71,-5.59,,,,,,,,,,,,
192103,1564152936791,7,2.35,0.85,0.35,1.41,1.05,1.1,0.03,0.36,3,-2,5,1.1,4785,38,91,44,86,1498,71.0,341,462,60,123.0,1014,1,270,440,72,0,0,69,-6656,250,71,-5.59,,,,,,,,,,,,
192123,1564152936811,10,2.33,0.85,0.35,1.41,1.06,1.12,0.07,0.26,3,-2,4,1.12,4981,38,91,44,87,1498,66.0,351,459,60,123.0,1014,1,292,455,72,0,0,69,-6656,250,66,-5.59,,,,,,,,,,,,
192143,1564152936831,10,2.34,0.84,0.35,1.42,1.06,1.11,0.06,0.33,3,-1,3,1.11,5328,39,91,44,86,1487,66.0,367,460,60,120.0,1014,1,302,457,72,0,0,63,-1,-1,66,-5.59,44.680946,10.024513,7.72,177.6,0,0.0,-1,0.0,0.0,0,0.94,3.2024
192163,1564152936851,8,2.33,0.84,0.34,1.41,1.06,1.0,0.0,0.36,2,-2,3,1.0,5612,44,91,44,85,1470,60.0,388,462,60,121.0,1014,1,322,458,72,0,0,63,-1,-1,60,-5.59,,,,,,,,,,,,
192183,1564152936871,11,2.32,0.85,0.35,1.42,1.06,0.91,-0.06,0.44,2,-2,3,0.92,6145,50,90,44,84,1454,60.0,418,464,60,120.0,1750,1,345,464,105,0,0,57,-1,-1,60,-5.59,,,,,,,,,,,,
192203,1564152936905,8,2.32,0.84,0.35,1.41,1.06,0.83,0.01,0.38,2,-0,2,0.83,6595,55,91,44,83,1437,54.0,451,462,60,123.0,1750,1,363,470,105,0,0,57,-1,-1,53,-5.59,,,,,,,,,,,,
192223,1564152936925,10,2.33,0.84,0.34,1.4,1.06,0.95,-0.03,0.45,1,-3,3,0.95,6952,58,91,44,84,1391,54.0,485,465,60,123.0,1750,1,375,478,105,0,0,57,-1,-1,53,-5.59,,,,,,,,,,,,
192243,1564152936945,5,2.32,0.84,0.34,1.4,1.06,0.97,-0.02,0.42,1,-1,2,0.97,7344,60,91,44,84,1329,54.0,515,466,60,122.0,1750,1,398,481,105,0,0,51,-1,-1,53,-5.59,44.680946,10.024513,6.27,177.6,0,0.0,-1,0.0,0.0,0,0.94,3.2041
192263,1564152936965,9,2.32,0.85,0.35,1.41,1.05,1.02,-0.04,0.4,2,-0,2,1.02,7822,61,91,44,83,1274,47.0,541,466,60,122.0,1750,1,430,478,105,0,0,51,-1,-1,46,-5.59,,,,,,,,,,,,
192283,1564152936985,8,2.32,0.85,0.35,1.4,1.05,0.9,-0.03,0.35,2,1,3,0.9,8445,61,90,44,80,1229,47.0,573,462,60,122.0,3239,1,428,478,149,0,0,51,-1,-1,46,-5.59,,,,,,,,,,,,
192303,1564152936995,8,2.31,0.85,0.35,1.41,1.05,0.84,-0.06,0.29,2,1,2,0.84,9088,61,91,44,74,1165,47.0,606,466,60,122.0,3239,1,413,422,149,0,0,43,-1,-1,46,-5.59,,,,,,,,,,,,
192323,1564152937015,9,2.32,0.85,0.35,1.41,1.05,0.86,-0.08,0.32,2,1,2,0.87,9674,62,90,44,70,1085,39.0,638,461,60,123.0,3239,1,409,402,149,0,0,43,-1281,24067,39,-5.59,,,,,,,,,,,,
192343,1564152937035,11,2.32,0.85,0.35,1.41,1.06,0.96,-0.2,0.37,1,3,1,0.98,10212,62,90,44,67,1021,39.0,645,463,60,122.0,3239,1,417,418,149,0,0,43,-1281,24067,39,-5.59,44.680946,10.024513,5.1,177.6,0,0.0,-1,0.0,0.0,0,0.94,3.2057
192363,1564152937055,10,2.32,0.85,0.35,1.41,1.06,1.03,-0.33,0.48,1,2,-0,1.08,10708,62,90,44,65,986,39.0,656,465,60,122.0,3239,1,448,410,149,0,0,35,-1281,24067,39,-5.59,,,,,,,,,,,,
192383,1564152937075,11,2.31,0.85,0.35,1.42,1.06,1.03,-0.12,0.39,1,2,0,1.03,11035,62,90,44,65,951,39.0,660,463,60,120.0,4384,1,450,413,171,0,0,35,-1281,24067,39,-5.59,,,,,,,,,,,,
192403,1564152937095,8,2.32,0.85,0.35,1.4,1.06,1.06,-0.21,0.39,1,2,-1,1.08,11425,62,90,44,64,915,39.0,665,463,60,120.0,4384,1,442,410,171,0,0,35,-1,-1,39,-5.59,,,,,,,,,,,,
192423,1564152937107,11,2.32,0.86,0.36,1.4,1.07,1.07,-0.19,0.32,1,-1,-1,1.09,11770,59,90,44,63,889,30.0,672,460,60,121.0,4384,1,440,404,171,0,0,35,-1,-1,29,-5.59,,,,,,,,,,,,
192443,1564152937127,10,2.33,0.85,0.35,1.42,1.06,1.06,-0.16,0.28,1,-2,-0,1.07,12065,44,90,44,59,889,30.0,677,461,60,121.0,4384,1,428,376,171,0,0,35,-1,-1,29,-5.59,44.680946,10.024513,3.38,177.6,0,0.0,-1,0.0,0.0,0,0.94,3.2074
192463,1564152937147,8,2.33,0.86,0.35,1.42,1.07,1.05,-0.17,0.28,1,-4,-0,1.06,12128,30,90,44,53,889,30.0,675,461,60,122.0,4384,1,397,337,171,0,0,35,-1,-1,29,-5.59,,,,,,,,,,,,
192483,1564152937167,11,2.32,0.86,0.35,1.41,1.07,1.06,-0.19,0.26,1,-5,-0,1.08,11957,20,90,44,47,888,30.0,673,456,60,122.0,4310,1,380,261,125,0,0,22,-1,-1,29,-5.59,,,,,,,,,,,,
192503,1564152937203,9,2.33,0.86,0.36,1.42,1.06,1.0,-0.07,0.21,1,-5,0,1.0,11711,13,90,44,42,887,30.0,671,461,60,121.0,4310,1,345,231,125,0,0,22,-1,-1,29,-5.59,,,,,,,,,,,,
192523,1564152937223,9,2.31,0.87,0.35,1.42,1.07,0.95,-0.06,0.35,1,-4,-0,0.95,11460,10,90,44,39,886,30.0,667,462,60,121.0,4310,1,320,222,125,0,0,22,-1,-1,29,-5.59,,,,,,,,,,,,
192543,1564152937243,11,2.32,0.87,0.36,1.42,1.06,0.94,-0.12,0.26,1,-7,1,0.94,11200,9,90,44,36,883,30.0,663,462,60,121.0,4310,1,311,217,125,0,0,22,-1,-1,29,-5.59,44.680946,10.024513,2.29,177.6,0,0.0,-1,0.0,0.0,0,0.94,3.209
192563,1564152937263,11,2.32,0.87,0.35,1.42,1.06,1.0,-0.16,0.42,0,-5,0,1.02,10952,9,90,44,34,871,30.0,664,463,60,121.0,4310,1,305,214,125,0,0,22,-1,-1,29,-5.59,,,,,,,,,,,,
192583,1564152937283,7,2.33,0.87,0.36,1.42,1.07,0.99,0.03,0.38,0,-1,-0,0.99,10794,9,90,43,33,860,30.0,660,463,60,121.0,3000,1,302,214,87,0,0,22,-1,-1,29,-5.59,,,,,,,,,,,,
192603,1564152937294,7,2.33,0.87,0.36,1.42,1.07,1.01,0.17,0.25,0,-1,0,1.03,10527,9,90,43,32,849,30.0,659,465,60,122.0,3000,1,300,214,87,0,0,22,-1,-1,29,-5.59,,,,,,,,,,,,
192623,1564152937314,9,2.32,0.87,0.36,1.42,1.07,0.98,0.24,0.2,0,-2,1,1.01,10359,9,90,43,31,841,30.0,662,464,60,121.0,3000,1,295,209,87,0,0,22,-1,-1,29,-5.59,,,,,,,,,,,,
192643,1564152937334,7,2.33,0.87,0.36,1.42,1.08,0.99,0.19,0.27,0,1,0,1.01,10096,8,90,43,31,844,30.0,656,465,60,122.0,3000,1,295,202,87,0,0,22,-1,-1,29,-5.59,44.68095,10.024513,0.0,177.6,0,0.0,-1,0.0,0.0,0,0.94,3.2107
192663,1564152937354,6,2.33,0.87,0.36,1.42,1.07,0.93,0.15,0.32,0,1,0,0.94,9920,9,90,43,31,846,30.0,652,468,60,121.0,3000,1,295,197,87,0,0,22,-1,-1,29,-5.59,,,,,,,,,,,,
192683,1564152937374,6,2.32,0.87,0.36,1.43,1.07,0.93,0.08,0.32,0,1,0,0.93,9720,8,90,43,30,859,30.0,648,455,60,122.0,2482,1,291,195,72,0,0,22,-1,-1,29,-5.59,,,,,,,,,,,,
192703,1564152937394,6,2.33,0.87,0.36,1.43,1.07,0.94,0.13,0.41,0,1,-0,0.95,9512,9,91,43,29,872,30.0,642,466,60,122.0,2482,1,287,190,72,0,0,22,-1,-1,29,-5.59,,,,,,,,,,,,
192723,1564152937408,8,2.32,0.88,0.36,1.43,1.07,0.92,0.22,0.34,0,-0,1,0.94,9222,9,91,43,29,865,30.0,635,466,60,120.0,2482,1,287,187,72,0,0,22,-1,-1,29,-5.59,,,,,,,,,,,,
192743,1564152937428,8,2.32,0.87,0.35,1.43,1.07,0.73,0.26,0.22,0,-0,1,0.78,9005,9,91,43,28,859,30.0,642,465,60,122.0,2482,1,282,185,72,0,0,22,-1,-1,29,-5.59,44.68095,10.024513,0.0,177.6,0,0.0,-1,0.0,0.0,0,0.94,3.2124
192763,1564152937448,8,2.31,0.87,0.36,1.43,1.07,0.67,0.27,0.19,0,-1,2,0.72,8778,9,91,43,27,841,30.0,637,465,60,122.0,2482,1,278,185,72,0,0,22,-1,-1,29,-5.59,,,,,,,,,,,,
192783,1564152937468,6,2.32,0.88,0.36,1.43,1.08,0.75,0.28,0.24,0,-2,1,0.8,8624,9,91,43,27,822,30.0,635,465,60,122.0,2068,1,278,185,60,0,0,22,-1,-1,29,-5.59,,,,,,,,,,,,
192803,1564152937502,5,2.32,0.88,0.36,1.43,1.07,0.73,0.29,0.27,1,-1,2,0.79,8404,9,91,43,28,808,30.0,630,465,60,123.0,2068,1,282,179,60,0,0,22,-1,-1,29,-5.59,,,,,,,,,,,,
192823,1564152937522,4,2.32,0.88,0.36,1.42,1.07,0.85,0.24,0.33,-0,-2,1,0.88,8166,9,91,43,28,795,30.0,618,467,60,121.0,2068,1,279,168,60,0,0,22,-1,-1,29,-5.59,,,,,,,,,,,,
192843,1564152937542,7,2.32,0.88,0.36,1.43,1.07,0.76,0.29,0.29,-0,-1,1,0.82,7934,15,91,43,29,796,30.0,613,462,60,122.0,2068,1,281,161,60,0,0,22,-1,-1,29,-5.59,44.68095,10.024513,0.0,177.6,0,0.0,-1,0.0,0.0,0,0.94,3.2141
192863,1564152937562,6,2.32,0.87,0.36,1.43,1.07,0.79,0.3,0.3,0,-1,2,0.85,7812,17,91,43,30,802,30.0,597,462,60,123.0,2068,1,283,163,60,0,0,22,-1,-1,29,-5.59,,,,,,,,,,,,
192883,1564152937582,6,2.32,0.88,0.35,1.42,1.08,0.83,0.25,0.32,0,-0,1,0.87,7668,17,91,43,31,822,30.0,587,463,60,122.0,1655,1,286,164,48,0,0,22,-1,-1,29,-5.59,,,,,,,,,,,,
192903,1564152937596,7,2.32,0.88,0.35,1.43,1.07,0.84,0.2,0.35,0,1,1,0.86,7597,17,91,43,32,845,29.0,583,463,60,121.0,1655,1,290,166,48,0,0,22,250,250,29,-5.59,,,,,,,,,,,,
192923,1564152937616,3,2.33,0.88,0.36,1.43,1.07,0.82,0.1,0.47,1,1,2,0.83,7518,17,91,43,33,864,0.0,578,462,60,122.0,1655,1,292,171,48,0,0,22,250,250,0,-5.59,,,,,,,,,,,,
192943,1564152937636,0,2.32,0.88,0.36,1.42,1.07,0.9,0.07,0.56,0,0,1,0.9,7506,17,91,43,34,881,0.0,573,460,60,123.0,1655,1,295,176,48,0,0,22,250,250,0,-5.59,44.68095,10.024513,0.0,177.7,0,0.0,-1,0.0,0.0,0,0.94,3.2157
192963,1564152937656,8,2.32,0.88,0.35,1.43,1.07,0.97,0.03,0.58,0,1,-0,0.98,7416,17,91,43,34,904,0.0,570,463,60,123.0,1655,1,295,176,48,0,0,22,250,250,0,-5.59,,,,,,,,,,,,
192983,1564152937676,6,2.31,0.88,0.36,1.43,1.07,0.94,0.03,0.6,1,2,1,0.94,7416,17,91,43,35,929,0.0,568,462,60,123.0,0,1,298,182,51,0,0,0,250,250,0,-5.59,,,,,,,,,,,,
193003,1564152937696,7,2.33,0.87,0.36,1.43,1.08,0.87,0.07,0.57,1,2,2,0.87,7344,17,91,43,36,944,0.0,576,461,60,123.0,0,1,301,112,51,0,0,0,250,250,0,-5.59,,,,,,,,,,,,
193023,1564152937708,6,2.33,0.88,0.36,1.43,1.07,0.83,0.12,0.53,1,2,1,0.84,7376,26,91,43,37,951,0.0,563,463,60,123.0,0,1,304,193,51,0,0,0,250,250,0,-5.59,,,,,,,,,,,,
193043,1564152937728,4,2.32,0.88,0.36,1.43,1.07,0.73,0.17,0.43,1,3,1,0.75,7350,31,91,43,41,943,0.0,563,461,60,123.0,0,1,325,133,51,0,0,0,250,250,0,-5.59,44.68095,10.024513,0.0,177.7,0,0.0,-1,0.0,0.0,0,0.94,3.2174
193063,1564152937748,5,2.32,0.88,0.36,1.43,1.07,0.65,0.17,0.36,1,2,1,0.68,7396,34,91,43,45,929,0.0,563,466,60,121.0,0,1,355,215,51,0,0,0,250,250,0,-5.59,,,,,,,,,,,,
193083,1564152937768,4,2.33,0.88,0.36,1.43,1.07,0.65,0.22,0.36,1,1,1,0.68,7390,35,91,43,48,911,0.0,578,461,60,122.0,0,1,372,224,63,0,0,0,250,250,0,-5.59,,,,,,,,,,,,
193103,1564152937804,4,2.33,0.87,0.36,1.43,1.08,0.62,0.26,0.32,1,1,1,0.67,7491,35,91,43,51,889,0.0,566,464,60,123.0,0,1,381,240,63,0,0,0,250,250,0,-5.59,,,,,,,,,,,,
193123,1564152937824,5,2.32,0.88,0.36,1.43,1.07,0.57,0.29,0.29,1,0,0,0.63,7533,35,91,43,53,870,0.0,572,460,60,123.0,0,1,387,251,63,0,0,0,250,250,0,-5.59,,,,,,,,,,,,
193143,1564152937844,7,2.32,0.88,0.35,1.43,1.07,0.53,0.25,0.22,1,-1,0,0.59,7690,35,91,43,55,852,0.0,576,465,60,124.0,0,1,397,191,63,0,0,0,250,250,0,-5.59,44.68095,10.024513,0.0,177.7,0,0.0,-1,0.0,0.0,0,0.94,3.219
193163,1564152937864,7,2.32,0.88,0.36,1.43,1.07,0.55,0.28,0.16,1,-1,2,0.62,7805,35,91,43,55,843,0.0,583,460,60,124.0,0,1,397,265,63,0,0,0,250,250,0,-5.59,,,,,,,,,,,,
193183,1564152937884,4,2.33,0.88,0.36,1.44,1.07,0.68,0.24,0.26,0,-2,2,0.72,8009,35,91,43,56,846,0.0,596,461,60,124.0,0,1,407,201,82,0,0,0,250,250,0,-5.59,,,,,,,,,,,,
193203,1564152937894,7,2.32,0.88,0.36,1.43,1.07,0.54,0.22,0.27,0,-2,0,0.58,8238,39,91,43,56,862,0.0,603,465,60,122.0,0,1,406,279,82,0,0,0,250,250,0,-5.59,,,,,,,,,,,,
193223,1564152937914,6,2.33,0.88,0.36,1.43,1.07,0.67,0.13,0.32,-0,-4,1,0.68,8408,40,91,43,56,891,0.0,625,463,60,123.0,0,1,406,285,82,0,0,0,250,250,0,-5.59,,,,,,,,,,,,
193243,1564152937934,5,2.33,0.88,0.36,1.43,1.07,0.72,0.12,0.4,0,-1,1,0.72,8593,40,91,43,55,919,0.0,626,464,60,123.0,0,1,397,282,82,0,0,0,250,250,0,-5.59,44.68095,10.024513,0.0,177.8,0,0.0,-1,0.0,0.0,0,0.94,3.2207
193263,1564152937954,5,2.32,0.88,0.35,1.44,1.07,0.65,0.06,0.43,0,1,-0,0.66,8831,40,91,43,54,945,0.0,635,463,60,123.0,0,1,396,213,82,0,0,0,250,250,0,-5.59,,,,,,,,,,,,
193283,1564152937974,5,2.32,0.88,0.35,1.43,1.07,0.58,0.02,0.42,0,2,0,0.58,9023,40,90,43,53,976,0.0,641,453,60,121.0,0,1,395,281,95,0,0,0,250,250,0,-5.59,,,,,,,,,,,,
193303,1564152937994,7,2.31,0.88,0.35,1.44,1.07,0.56,-0.07,0.5,0,4,1,0.57,9146,40,91,43,52,1012,0.0,640,466,60,123.0,0,1,392,276,95,0,0,0,250,250,0,-5.59,,,,,,,,,,,,
193323,1564152938006,6,2.33,0.87,0.35,1.43,1.06,0.69,-0.11,0.55,0,3,-0,0.69,9218,40,91,43,51,1042,0.0,641,466,60,124.0,0,1,388,269,95,0,0,0,250,250,0,-5.59,,,,,,,,,,,,
193343,1564152938026,8,2.32,0.85,0.33,1.41,1.04,0.82,-0.01,0.6,-0,1,-0,0.82,9375,40,91,43,51,1052,0.0,643,465,60,123.0,0,1,390,273,95,0,0,0,250,250,0,-5.59,44.68095,10.024513,0.0,177.8,0,0.0,-1,0.0,0.0,0,0.94,3.2224
193363,1564152938046,6,2.33,0.8,0.31,1.38,1.01,0.76,-0.02,0.53,0,1,0,0.76,9566,40,90,43,50,1070,0.0,645,466,60,122.0,0,1,388,266,95,0,0,0,250,250,0,-5.59,,,,,,,,,,,,
193383,1564152938066,9,2.32,0.77,0.29,1.35,0.99,0.79,-0.02,0.56,-0,0,0,0.79,9725,40,90,43,49,1113,0.0,650,460,60,122.0,0,1,385,257,98,0,0,0,250,250,0,-5.59,,,,,,,,,,,,
193403,1564152938100,6,2.32,0.77,0.29,1.35,0.99,0.7,-0.06,0.6,0,3,-1,0.7,9847,40,90,43,49,1153,0.0,647,464,60,122.0,0,1,385,259,98,0,0,0,250,250,0,-5.59,,,,,,,,,,,,
193423,1564152938120,5,2.32,0.77,0.3,1.35,0.99,0.75,0.0,0.52,0,1,0,0.75,9941,40,90,43,48,1184,0.0,648,466,60,123.0,0,1,382,250,98,0,0,0,250,250,0,-5.59,,,,,,,,,,,,
193443,1564152938140,9,2.32,0.79,0.3,1.36,1.01,0.7,0.06,0.48,0,0,1,0.71,10157,40,90,43,48,1216,0.0,650,461,60,123.0,0,1,382,252,98,0,0,0,250,250,0,-5.59,44.68095,10.024513,0.0,177.9,0,0.0,-1,0.0,0.0,0,0.94,3.2241
193463,1564152938160,8,2.32,0.82,0.33,1.38,1.03,0.75,-0.03,0.58,-0,2,-0,0.75,10273,40,90,43,48,1248,0.0,654,465,60,122.0,0,1,382,180,98,0,0,0,250,250,0,-5.59,,,,,,,,,,,,
193483,1564152938180,8,2.32,0.81,0.33,1.39,1.03,0.81,-0.16,0.72,-0,3,-2,0.83,10486,40,90,43,48,1280,0.0,654,463,60,122.0,0,1,382,253,100,0,0,0,250,250,0,-5.59,,,,,,,,,,,,
193503,1564152938194,5,2.31,0.82,0.33,1.39,1.04,0.87,-0.19,0.81,-0,3,-3,0.89,10593,40,90,43,48,1281,0.0,662,465,60,121.0,0,1,382,253,100,0,0,0,250,250,0,-5.59,,,,,,,,,,,,
193523,1564152938214,6,2.31,0.83,0.33,1.4,1.04,0.86,-0.15,0.86,-0,2,-3,0.87,10782,39,90,43,48,1281,0.0,660,461,60,122.0,0,1,382,254,100,0,0,0,250,250,0,-5.59,,,,,,,,,,,,
193543,1564152938234,4,2.32,0.83,0.34,1.4,1.05,0.86,0.07,0.68,-0,0,-1,0.86,10863,39,90,43,48,1262,0.0,668,466,60,122.0,0,1,382,254,100,0,0,0,250,250,0,-5.59,44.68095,10.024513,0.0,177.9,0,0.0,-1,0.0,0.0,0,0.94,3.2257
193563,1564152938254,8,2.31,0.84,0.34,1.41,1.04,0.83,-0.06,0.62,-0,2,-1,0.83,10997,39,90,43,48,1242,0.0,662,466,60,122.0,0,1,382,243,100,0,0,0,250,250,0,-5.59,,,,,,,,,,,,
193583,1564152938274,7,2.32,0.85,0.34,1.41,1.06,0.83,0.02,0.75,0,3,-2,0.83,11180,39,90,43,47,1222,0.0,666,468,60,122.0,0,1,380,243,102,0,0,0,250,250,0,-5.59,,,,,,,,,,,,
193603,1564152938309,6,2.33,0.85,0.35,1.42,1.05,0.85,-0.04,0.54,-0,2,-1,0.85,11234,39,90,43,47,1201,0.0,663,462,60,122.0,0,1,380,243,102,0,0,0,250,250,0,-5.59,,,,,,,,,,,,
193623,1564152938329,7,2.32,0.85,0.35,1.42,1.06,0.89,0.06,0.64,-0,2,-2,0.89,11349,39,90,43,47,1157,0.0,662,470,60,122.0,0,1,380,243,102,0,0,0,250,250,0,-5.59,,,,,,,,,,,,
193643,1564152938349,9,2.32,0.86,0.35,1.42,1.05,0.93,-0.08,0.61,-0,1,-2,0.93,11453,39,90,43,46,1113,0.0,665,466,60,122.0,0,1,372,240,102,0,0,0,250,250,0,-5.59,44.68095,10.024513,0.0,177.9,0,0.0,-1,0.0,0.0,0,0.94,3.2274
193663,1564152938369,8,2.31,0.85,0.35,1.42,1.06,0.89,-0.01,0.53,-0,-1,-1,0.89,11588,39,90,43,45,1085,0.0,670,463,60,122.0,0,1,365,241,102,0,0,0,250,250,0,-5.59,,,,,,,,,,,,
193683,1564152938389,6,2.32,0.86,0.35,1.41,1.06,0.8,0.06,0.62,0,-2,-1,0.81,11660,39,90,43,45,1061,0.0,673,462,60,122.0,0,1,365,240,106,0,0,0,250,250,0,-5.59,,,,,,,,,,,,
193703,1564152938401,7,2.32,0.86,0.35,1.42,1.06,0.74,-0.03,0.75,0,-3,-1,0.74,11748,39,90,43,45,1032,0.0,675,465,60,122.0,0,1,366,241,106,0,0,0,250,250,0,-5.59,,,,,,,,,,,,
193723,1564152938421,6,2.32,0.86,0.35,1.43,1.06,0.71,-0.18,0.79,-0,-3,-1,0.74,11837,39,90,43,45,1004,0.0,675,463,60,122.0,0,1,366,242,106,0,0,0,250,250,0,-5.59,,,,,,,,,,,,
193743,1564152938441,7,2.32,0.86,0.35,1.41,1.06,0.7,-0.32,0.76,-1,-3,-2,0.78,11897,39,90,43,44,993,0.0,676,464,60,122.0,0,1,360,239,106,0,0,0,250,250,0,-5.59,44.68095,10.024513,0.0,177.9,0,0.0,-1,0.0,0.0,0,0.94,3.229
193763,1564152938461,6,2.33,0.86,0.35,1.42,1.06,0.72,-0.44,0.73,-1,-4,-2,0.84,11973,39,90,43,44,989,0.0,675,465,60,122.0,0,1,360,240,106,0,0,0,250,250,0,-5.59,,,,,,,,,,,,
193783,1564152938481,5,2.32,0.86,0.35,1.42,1.06,0.72,-0.55,0.71,-1,-4,-1,0.9,11973,39,90,43,44,976,0.0,676,466,60,122.0,0,1,361,241,109,0,0,0,250,250,0,-5.59,,,,,,,,,,,,
193803,1564152938493,6,2.32,0.86,0.36,1.42,1.07,0.72,-0.64,0.67,-1,-5,-1,0.97,12026,39,90,43,44,959,0.0,677,468,60,123.0,0,1,361,241,109,0,0,0,250,250,0,-5.59,,,,,,,,,,,,
193823,1564152938513,7,2.32,0.86,0.36,1.43,1.06,0.71,-0.75,0.68,-1,-5,-2,1.04,12143,39,90,43,44,946,0.0,675,466,60,123.0,0,1,361,241,109,0,0,0,250,250,0,-5.59,,,,,,,,,,,,
193843,1564152938533,6,2.33,0.87,0.35,1.43,1.06,0.67,-0.81,0.78,-1,-6,-2,1.05,12175,39,90,43,44,933,0.0,680,465,60,122.0,0,1,361,168,109,0,0,0,250,250,0,-5.59,44.68095,10.024513,0.0,177.9,0,0.0,-1,0.0,0.0,0,0.94,3.2307
193863,1564152938553,7,2.33,0.87,0.36,1.43,1.06,0.65,-0.83,0.88,-1,-5,-2,1.05,12238,39,90,43,43,917,0.0,679,463,60,122.0,0,1,355,238,109,0,0,0,250,250,0,-5.59,,,,,,,,,,,,
193883,1564152938573,8,2.32,0.87,0.36,1.43,1.07,0.6,-0.76,0.89,-1,-5,-2,0.97,12287,39,90,43,43,899,0.0,680,462,60,122.0,0,1,355,238,110,0,0,0,250,250,0,-5.59,,,,,,,,,,,,
193903,1564152938593,9,2.33,0.87,0.36,1.43,1.06,0.61,-0.66,0.79,-1,-5,-1,0.89,12319,38,90,43,43,887,0.0,680,459,60,123.0,0,1,355,238,110,0,0,0,250,250,0,-5.59,,,,,,,,,,,,
193923,1564152938607,6,2.33,0.87,0.35,1.43,1.06,0.63,-0.61,0.73,-1,-6,-1,0.87,12368,38,90,43,43,882,0.0,677,465,60,123.0,0,1,355,238,110,0,0,0,250,250,0,-5.59,,,,,,,,,,,,
193943,1564152938627,7,2.33,0.87,0.35,1.43,1.07,0.64,-0.54,0.77,-1,-6,-1,0.84,12417,38,90,43,43,877,0.0,678,460,60,123.0,0,1,355,165,110,0,0,0,250,250,0,-5.59,44.68095,10.024513,0.0,177.9,0,0.0,-1,0.0,0.0,0,0.94,3.2324
193963,1564152938647,9,2.32,0.87,0.35,1.43,1.06,0.68,-0.45,0.81,-0,-6,-1,0.82,12400,38,90,43,43,872,0.0,675,464,60,123.0,0,1,355,238,110,0,0,0,250,250,0,-5.59,,,,,,,,,,,,
193983,1564152938667,8,2.33,0.87,0.36,1.43,1.06,0.77,-0.53,0.73,-1,-7,-2,0.93,12433,38,90,43,43,869,0.0,680,462,60,122.0,0,1,355,238,112,0,0,0,250,250,0,-5.59,,,,,,,,,,,,
194003,1564152938701,8,2.32,0.88,0.36,1.43,1.06,0.78,-0.52,0.64,-1,-7,-2,0.94,12525,38,90,43,43,870,0.0,680,466,60,123.0,0,1,355,238,112,0,0,0,250,250,0,-5.59,,,,,,,,,,,,
194023,1564152938721,4,2.33,0.87,0.36,1.42,1.07,0.69,-0.28,0.63,-0,-5,-1,0.75,12558,38,90,43,43,871,0.0,677,465,60,125.0,0,1,355,238,112,0,0,0,250,250,0,-5.59,,,,,,,,,,,,
194043,1564152938741,5,2.32,0.87,0.35,1.44,1.06,0.66,-0.13,0.59,0,-2,-1,0.67,12327,38,90,43,43,874,0.0,675,465,60,125.0,0,1,355,238,112,0,0,0,250,250,0,414.87,44.68095,10.024513,0.0,177.9,0,0.0,-1,0.0,0.0,0,0.94,3.2341
194063,1564152938761,5,2.32,0.87,0.35,1.43,1.07,0.65,-0.06,0.43,1,-0,-1,0.66,12081,38,90,43,44,876,0.0,671,462,60,125.0,0,1,361,241,112,0,0,0,250,250,0,414.87,,,,,,,,,,,,
194083,1564152938781,4,2.32,0.87,0.36,1.42,1.07,0.59,0.1,0.32,1,2,-0,0.6,11852,38,90,43,46,878,0.0,666,465,60,126.0,0,1,373,246,109,0,0,0,250,250,0,414.87,,,,,,,,,,,,
194103,1564152938795,6,2.32,0.88,0.35,1.44,1.07,0.55,0.25,0.49,2,3,-1,0.61,11609,38,90,43,46,882,0.0,662,462,60,125.0,0,1,372,242,109,0,0,0,250,250,0,414.87,,,,,,,,,,,,
194123,1564152938815,5,2.32,0.88,0.36,1.44,1.07,0.62,0.09,0.51,1,2,-1,0.62,11349,38,90,43,47,885,0.0,662,461,60,125.0,0,1,380,243,109,0,0,0,250,250,0,414.87,,,,,,,,,,,,
194143,1564152938835,5,2.32,0.88,0.35,1.44,1.07,0.68,0.21,0.47,1,3,-1,0.71,11107,38,90,43,48,890,0.0,653,461,60,124.0,0,1,382,254,109,0,0,0,250,250,0,414.87,44.68095,10.024513,0.0,177.9,0,0.0,-1,0.0,0.0,0,0.94,3.2357
194163,1564152938855,6,2.32,0.87,0.35,1.43,1.06,0.68,0.23,0.34,1,1,-1,0.72,10939,38,90,43,49,892,0.0,655,459,60,123.0,0,1,385,267,109,0,0,0,250,250,0,414.87,,,,,,,,,,,,
194183,1564152938875,4,2.32,0.88,0.35,1.43,1.07,0.66,0.14,0.42,1,-2,0,0.67,10695,38,90,43,49,934,0.0,651,461,60,123.0,0,1,385,265,108,0,0,0,250,250,0,414.87,,,,,,,,,,,,
194203,1564152938895,6,2.33,0.88,0.36,1.44,1.06,0.59,0.02,0.51,1,0,-0,0.59,10439,37,90,43,50,1032,0.0,650,458,60,123.0,0,1,388,275,108,0,0,0,250,250,0,-5.59,,,,,,,,,,,,
194223,1564152938907,6,2.33,0.88,0.36,1.43,1.08,0.6,-0.04,0.58,1,1,-1,0.6,10313,36,90,43,51,1130,0.0,651,466,60,121.0,0,1,391,273,108,0,0,0,250,250,0,-5.59,,,,,,,,,,,,
194243,1564152938927,7,2.33,0.88,0.35,1.44,1.07,0.6,-0.01,0.56,1,-1,-1,0.6,10313,35,90,43,50,1202,0.0,655,468,60,122.0,0,1,388,202,108,0,0,0,250,250,0,-5.59,44.68095,10.024513,0.0,177.9,0,0.0,-1,0.0,0.0,0,0.94,3.2374
194263,1564152938947,7,2.32,0.88,0.36,1.43,1.08,0.62,0.14,0.48,1,-2,1,0.64,10410,35,90,43,48,1298,0.0,663,464,60,122.0,0,1,382,253,108,0,0,0,250,250,0,-5.59,,,,,,,,,,,,
194283,1564152938967,6,2.32,0.88,0.35,1.44,1.07,0.59,0.29,0.33,1,-2,2,0.66,10521,35,90,43,47,1418,0.0,655,468,60,122.0,0,1,380,243,97,0,0,0,250,250,0,-5.59,,,,,,,,,,,,
194303,1564152939001,7,2.32,0.88,0.36,1.44,1.07,0.63,0.39,0.22,1,-2,3,0.74,10410,35,90,43,47,1498,0.0,657,456,60,122.0,0,1,380,243,97,0,0,0,250,250,0,-5.59,,,,,,,,,,,,
194323,1564152939021,9,2.32,0.88,0.35,1.43,1.07,0.64,0.44,0.21,1,-2,3,0.78,10307,35,90,43,47,1498,0.0,655,462,60,122.0,0,1,380,243,97,0,0,0,250,250,0,-5.59,,,,,,,,,,,,
194343,1564152939041,8,2.33,0.89,0.36,1.44,1.08,0.74,0.42,0.25,1,-1,3,0.85,10296,35,90,43,47,1492,0.0,650,463,60,123.0,0,1,380,243,97,0,0,0,250,250,0,-5.59,44.68095,10.024513,0.0,177.9,0,0.0,-1,0.0,0.0,0,0.94,3.239
194363,1564152939061,7,2.32,0.89,0.36,1.44,1.08,0.79,0.34,0.36,1,-0,1,0.86,10428,35,90,43,46,1469,0.0,652,470,60,122.0,0,1,372,166,97,0,0,0,250,250,0,-5.59,,,,,,,,,,,,
194383,1564152939081,5,2.33,0.89,0.37,1.44,1.08,0.84,0.28,0.43,0,-0,0,0.89,10498,34,90,43,45,1430,0.0,654,463,60,124.0,0,1,365,235,94,0,0,0,250,250,0,-5.59,,,,,,,,,,,,
194403,1564152939101,9,2.32,0.9,0.37,1.45,1.08,0.81,0.19,0.53,0,-1,-0,0.83,10504,34,90,43,45,1407,0.0,652,467,60,124.0,0,1,365,162,94,0,0,0,250,250,0,-5.59,,,,,,,,,,,,
194423,1564152939109,8,2.32,0.9,0.37,1.45,1.08,0.81,0.07,0.55,0,1,-1,0.81,10262,33,90,43,46,1367,0.0,661,463,60,122.0,0,1,372,239,94,0,0,0,250,250,0,-5.59,,,,,,,,,,,,
194443,1564152939129,7,2.32,0.9,0.36,1.45,1.08,0.8,-0.05,0.61,0,1,-2,0.8,10234,33,90,43,46,1322,0.0,652,470,60,121.0,0,1,372,166,94,0,0,0,250,250,0,-5.59,44.68095,10.024513,0.0,177.9,0,0.0,-1,0.0,0.0,0,0.94,3.2407
194463,1564152939149,7,2.32,0.89,0.36,1.44,1.09,0.8,-0.1,0.59,-0,0,-2,0.81,10341,33,90,43,45,1248,0.0,659,467,60,122.0,0,1,365,235,94,0,0,0,250,250,0,-5.59,,,,,,,,,,,,
194483,1564152939169,7,2.32,0.89,0.36,1.45,1.07,0.77,-0.07,0.56,0,-2,-0,0.77,10393,33,90,43,45,1225,0.0,657,464,60,122.0,0,1,365,162,92,0,0,0,250,250,0,-5.59,,,,,,,,,,,,
194503,1564152939201,6,2.32,0.9,0.36,1.45,1.08,0.7,-0.03,0.49,0,-1,0,0.7,10515,33,90,43,44,1189,0.0,656,460,60,122.0,0,1,357,231,92,0,0,0,250,250,0,-5.59,,,,,,,,,,,,
194523,1564152939221,6,2.32,0.89,0.37,1.44,1.08,0.68,-0.02,0.38,0,-2,1,0.68,10457,33,90,43,43,1170,0.0,650,458,60,124.0,0,1,350,228,92,0,0,0,250,250,0,-5.59,,,,,,,,,,,,
194543,1564152939241,6,2.33,0.9,0.36,1.45,1.08,0.7,0.05,0.36,0,-2,1,0.7,10268,33,90,43,45,1145,0.0,652,466,60,122.0,0,1,365,162,92,0,0,0,250,250,0,-5.59,44.68095,10.024513,0.0,177.9,0,0.0,-1,0.0,0.0,0,0.94,3.2424
194563,1564152939261,8,2.33,0.9,0.37,1.45,1.08,0.79,0.13,0.33,0,-1,1,0.8,10173,33,90,43,45,1136,0.0,650,465,60,122.0,0,1,365,235,92,0,0,0,250,250,0,-5.59,,,,,,,,,,,,
194583,1564152939281,7,2.33,0.9,0.36,1.45,1.08,0.83,0.11,0.37,0,-1,0,0.84,10319,33,89,43,45,1139,0.0,650,470,60,122.0,0,1,365,162,91,0,0,0,250,250,0,-5.59,,,,,,,,,,,,
194603,1564152939301,8,2.33,0.89,0.37,1.45,1.08,0.88,0.03,0.44,-0,-1,-0,0.88,10359,33,89,43,44,1130,0.0,656,465,60,122.0,0,1,357,231,91,0,0,0,250,250,0,-5.59,,,,,,,,,,,,
194623,1564152939306,8,2.32,0.9,0.37,1.45,1.08,0.87,-0.11,0.57,-0,-1,-1,0.87,10492,33,89,43,43,1115,0.0,660,462,60,122.0,0,1,350,155,91,0,0,0,250,250,0,-5.59,,,,,,,,,,,,
194643,1564152939326,6,2.32,0.9,0.36,1.45,1.08,0.92,-0.25,0.65,-1,0,-2,0.95,10480,33,90,43,43,1095,0.0,660,460,60,123.0,0,1,350,228,91,0,0,0,250,250,0,-5.59,44.68095,10.024513,0.0,177.9,0,0.0,-1,0.0,0.0,0,0.94,3.2441
194663,1564152939346,7,2.31,0.9,0.36,1.45,1.08,0.94,-0.36,0.78,-1,1,-4,1.0,10376,33,90,43,44,1080,0.0,656,460,60,121.0,0,1,357,158,91,0,0,0,250,250,0,-5.59,,,,,,,,,,,,
194683,1564152939366,7,2.32,0.89,0.36,1.45,1.08,0.92,-0.4,0.85,-1,0,-4,1.01,10135,33,89,43,45,1051,0.0,652,467,60,122.0,0,1,365,231,89,0,0,0,250,250,0,-5.59,,,,,,,,,,,,
194703,1564152939396,5,2.33,0.9,0.37,1.45,1.09,0.93,-0.3,0.79,-1,-2,-2,0.97,10151,32,90,43,45,1031,0.0,652,466,60,123.0,0,1,365,162,89,0,0,0,250,250,0,-5.59,,,,,,,,,,,,
194723,1564152939416,6,2.32,0.9,0.37,1.44,1.08,0.93,-0.11,0.65,-1,-1,-2,0.93,10307,33,89,43,44,1012,0.0,651,469,60,121.0,0,1,357,158,89,0,0,0,250,250,0,-5.59,,,,,,,,,,,,
194743,1564152939436,9,2.32,0.9,0.37,1.44,1.08,0.99,0.03,0.52,-1,-2,-1,0.99,10347,33,89,43,44,1001,0.0,649,465,60,122.0,0,1,357,158,89,0,0,0,250,250,0,-5.59,44.68095,10.024513,0.0,177.9,0,0.0,-1,0.0,0.0,0,0.94,3.2457
194763,1564152939456,5,2.32,0.89,0.36,1.46,1.08,0.95,0.1,0.52,-1,-2,-1,0.95,10480,33,89,43,43,1002,0.0,651,467,60,122.0,0,1,350,155,89,0,0,0,250,250,0,-5.59,,,,,,,,,,,,
194783,1564152939476,5,2.32,0.9,0.36,1.46,1.08,1.01,0.18,0.47,-1,-1,-1,1.03,10515,32,89,43,43,1008,0.0,650,458,60,122.0,0,1,350,228,90,0,0,0,250,250,0,-5.59,,,,,,,,,,,,
194803,1564152939508,9,2.32,0.89,0.36,1.45,1.09,1.01,0.26,0.5,-0,-0,-1,1.05,10416,33,89,43,43,1019,0.0,652,464,60,122.0,0,1,350,228,90,0,0,0,250,250,0,-5.59,,,,,,,,,,,,
194823,1564152939528,8,2.33,0.9,0.37,1.46,1.08,1.06,0.23,0.5,-1,-0,-1,1.08,10307,33,89,43,44,1035,0.0,651,462,60,122.0,0,1,357,158,90,0,0,0,250,250,0,-5.59,,,,,,,,,,,,
194843,1564152939548,8,2.33,0.9,0.37,1.45,1.09,1.0,0.13,0.61,-1,-0,-2,1.01,10428,32,89,43,44,1045,0.0,662,461,60,121.0,0,1,357,231,90,0,0,0,250,250,0,-5.59,44.68095,10.024513,0.0,177.9,0,0.0,-1,0.0,0.0,0,0.94,3.2474
194863,1564152939568,5,2.31,0.9,0.36,1.46,1.08,1.06,-0.03,0.69,-1,0,-3,1.06,10463,33,89,43,43,1045,0.0,658,465,60,122.0,0,1,350,155,90,0,0,0,250,250,0,-5.59,,,,,,,,,,,,
194883,1564152939588,9,2.32,0.9,0.36,1.46,1.09,1.04,-0.12,0.82,-1,1,-4,1.04,10527,32,89,43,43,1038,0.0,654,463,60,123.0,0,1,350,228,91,0,0,0,250,250,0,-5.59,,,,,,,,,,,,
194903,1564152939598,7,2.32,0.9,0.37,1.46,1.09,1.03,-0.19,0.81,-1,1,-4,1.05,10302,32,89,43,43,1026,0.0,658,461,60,121.0,0,1,350,155,91,0,0,0,250,250,0,-5.59,,,,,,,,,,,,
194923,1564152939618,6,2.32,0.9,0.36,1.45,1.08,0.95,-0.2,0.81,-1,0,-3,0.97,10140,32,89,43,44,1013,0.0,654,467,60,123.0,0,1,357,158,91,0,0,0,250,250,0,-5.59,,,,,,,,,,,,
194943,1564152939638,5,2.32,0.91,0.36,1.46,1.08,0.91,-0.12,0.71,-1,1,-3,0.91,10234,32,89,43,44,1015,0.0,655,471,60,122.0,0,1,357,231,91,0,0,0,250,250,0,-5.59,44.68095,10.024513,0.0,177.9,0,0.0,-1,0.0,0.0,0,0.94,3.249
194963,1564152939658,5,2.32,0.91,0.37,1.46,1.08,0.93,0.02,0.62,-1,-0,-2,0.93,10268,32,89,43,44,1019,0.0,655,465,60,122.0,0,1,357,158,91,0,0,0,250,250,0,-5.59,,,,,,,,,,,,
194983,1564152939678,8,2.32,0.91,0.37,1.45,1.09,0.9,0.13,0.57,-0,-1,-1,0.91,10393,32,89,43,44,1037,0.0,653,464,60,121.0,0,1,357,231,91,0,0,0,250,250,0,-5.59,,,,,,,,,,,,
195003,1564152939698,4,2.33,0.91,0.37,1.46,1.08,0.98,0.23,0.52,-1,-1,-0,1.01,10434,32,89,43,43,1055,0.0,653,465,60,122.0,0,1,350,228,91,0,0,0,250,250,0,-5.59,,,,,,,,,,,,
195023,1564152939718,3,2.33,0.91,0.37,1.46,1.09,0.99,0.35,0.54,-0,-0,-1,1.05,10557,32,89,43,42,1062,0.0,655,466,60,123.0,0,1,342,224,91,0,0,0,250,250,0,-5.59,,,,,,,,,,,,
195043,1564152939738,8,2.32,0.91,0.37,1.47,1.08,1.03,0.45,0.42,-0,0,-0,1.13,10393,32,89,43,43,1066,0.0,653,458,60,122.0,0,1,350,228,91,0,0,0,250,250,0,-5.59,44.68095,10.024513,0.0,177.9,0,0.0,-1,0.0,0.0,0,0.94,3.2507
195063,1564152939758,7,2.31,0.91,0.37,1.47,1.09,0.99,0.4,0.45,-0,-0,-0,1.07,10376,32,89,43,44,1058,0.0,656,463,60,122.0,0,1,357,158,91,0,0,0,250,250,0,-5.59,,,,,,,,,,,,
195083,1564152939778,6,2.32,0.91,0.37,1.47,1.09,1.05,0.29,0.59,-1,0,-1,1.09,10376,32,89,43,44,1042,0.0,658,465,60,122.0,0,1,357,231,90,0,0,0,250,250,0,-5.59,,,,,,,,,,,,
195103,1564152939800,4,2.32,0.92,0.36,1.48,1.08,1.05,0.18,0.73,-1,1,-3,1.07,10498,33,89,43,44,1025,0.0,652,468,60,122.0,0,1,357,231,90,0,0,0,250,250,0,-5.59,,,,,,,,,,,,
195123,1564152939820,4,2.32,0.91,0.37,1.47,1.09,1.11,0.11,0.81,-1,1,-3,1.11,10515,32,89,43,43,1004,0.0,656,463,60,122.0,0,1,350,155,90,0,0,0,250,250,0,-5.59,,,,,,,,,,,,
195143,1564152939840,6,2.32,0.92,0.37,1.47,1.08,1.06,0.03,0.93,-1,1,-4,1.06,10410,39,89,43,44,993,0.0,655,456,60,122.0,0,1,357,158,90,0,0,0,250,250,0,-5.59,44.68095,10.024513,0.0,177.9,0,0.0,-1,0.0,0.0,0,0.94,3.2524
195163,1564152939860,7,2.32,0.91,0.36,1.47,1.08,1.07,-0.11,0.98,-1,3,-4,1.08,10324,49,89,43,48,980,0.0,655,470,60,121.0,0,1,382,253,90,0,0,0,250,250,0,-5.59,,,,,,,,,,,,
195183,1564152939880,6,2.33,0.9,0.36,1.46,1.08,1.07,-0.26,1.04,-1,3,-5,1.1,10428,57,89,43,53,979,0.0,650,468,60,122.0,0,1,397,296,112,0,0,0,250,250,0,-5.59,,,,,,,,,,,,
195203,1564152939900,7,2.32,0.9,0.36,1.46,1.07,1.07,-0.35,1.13,-1,2,-5,1.13,10575,61,89,43,56,979,0.0,650,465,60,124.0,0,1,414,337,112,0,0,0,250,250,0,181.28,,,,,,,,,,,,
195223,1564152939920,6,2.32,0.89,0.35,1.45,1.07,1.01,-0.4,1.12,-1,1,-4,1.09,10353,71,89,43,62,987,0.0,658,463,60,122.0,0,1,436,383,112,0,0,0,250,250,0,-5.59,,,,,,,,,,,,
195243,1564152939940,7,2.32,0.88,0.35,1.45,1.05,0.91,-0.36,1.02,-1,2,-4,0.98,10290,82,89,43,71,1003,0.0,656,467,60,122.0,0,1,418,443,112,0,0,0,250,250,0,-5.59,44.68095,10.024513,0.0,177.9,0,0.0,-1,0.0,0.0,0,0.94,3.2541
195263,1564152939960,5,2.32,0.87,0.34,1.43,1.05,0.85,-0.35,0.87,-0,0,-3,0.92,10480,93,89,43,78,1025,0.0,652,460,60,122.0,0,1,429,430,112,0,0,0,250,250,0,-5.59,,,,,,,,,,,,
195283,1564152939980,7,2.32,0.85,0.33,1.43,1.04,0.76,-0.32,0.79,-0,0,-2,0.83,10480,100,89,43,83,1064,0.0,654,463,60,122.0,0,1,427,523,204,0,0,0,250,250,0,-5.59,,,,,,,,,,,,
195303,1564152939992,6,2.31,0.86,0.33,1.43,1.04,0.75,-0.21,0.71,-0,-0,-1,0.78,10229,100,89,43,86,1079,0.0,656,467,60,122.0,0,1,412,527,204,0,0,0,250,250,0,-5.59,,,,,,,,,,,,
195323,1564152940012,3,2.32,0.86,0.34,1.43,1.04,0.68,-0.05,0.52,0,0,0,0.68,10617,100,89,43,86,1099,0.0,650,468,60,123.0,0,1,435,527,204,0,0,0,250,250,0,-5.59,,,,,,,,,,,,
195343,1564152940032,6,2.31,0.86,0.34,1.43,1.05,0.63,0.07,0.36,0,-1,1,0.63,10474,100,89,43,86,1161,0.0,647,464,60,124.0,0,1,430,585,204,0,0,0,250,250,0,414.87,44.68095,10.024513,0.0,177.9,0,0.0,-1,0.0,0.0,0,0.94,3.2557
195363,1564152940052,6,2.32,0.86,0.34,1.44,1.05,0.6,0.18,0.26,1,-1,2,0.62,10302,100,89,43,87,1238,0.0,657,459,60,121.0,0,1,418,546,204,0,0,0,250,250,0,-5.59,,,,,,,,,,,,
195383,1564152940072,4,2.31,0.87,0.34,1.44,1.06,0.66,0.3,0.2,0,-2,3,0.72,10521,100,89,43,87,1315,0.0,651,464,60,122.0,0,1,433,604,244,0,0,0,250,250,0,-5.59,,,,,,,,,,,,
195403,1564152940100,4,2.32,0.87,0.35,1.44,1.06,0.59,0.44,0.09,1,-2,3,0.73,10641,100,89,43,86,1357,0.0,653,461,60,124.0,0,1,435,585,244,0,0,0,250,250,0,414.87,,,,,,,,,,,,
195423,1564152940120,4,2.31,0.87,0.35,1.44,1.06,0.59,0.52,0.02,1,-2,4,0.78,10382,100,89,43,87,1413,0.0,662,460,60,121.0,0,1,424,546,244,0,0,0,250,250,0,-5.59,,,,,,,,,,,,
195443,1564152940140,2,2.32,0.87,0.34,1.44,1.07,0.58,0.59,-0.07,1,-1,4,0.82,10285,100,89,43,89,1485,0.0,657,461,60,121.0,0,1,419,584,244,0,0,0,250,250,0,-5.59,44.68095,10.024513,0.0,177.9,0,0.0,-1,0.0,0.0,0,0.94,3.2574
195463,1564152940160,3,2.31,0.88,0.35,1.44,1.06,0.61,0.7,-0.08,1,-1,5,0.93,10763,100,89,43,86,1498,0.0,652,465,60,124.0,0,1,438,527,244,0,0,0,250,250,0,-5.59,,,,,,,,,,,,
195483,1564152940180,5,2.32,0.89,0.35,1.45,1.07,0.55,0.77,-0.18,1,-0,5,0.94,10593,100,89,43,86,1498,0.0,653,462,60,123.0,0,1,434,585,236,0,0,0,250,250,0,414.87,,,,,,,,,,,,
195503,1564152940200,5,2.31,0.88,0.36,1.45,1.06,0.6,0.8,-0.21,1,-0,6,0.99,10353,100,89,43,88,1498,0.0,656,462,60,121.0,0,1,423,622,236,0,0,0,250,250,0,-5.59,,,,,,,,,,,,
195523,1564152940220,3,2.31,0.89,0.36,1.45,1.07,0.59,0.85,-0.24,1,-0,6,1.04,10382,100,89,43,88,1498,0.0,649,463,60,121.0,0,1,425,622,236,0,0,0,250,250,0,-5.59,,,,,,,,,,,,
195543,1564152940240,3,2.32,0.89,0.35,1.45,1.08,0.63,0.92,-0.26,1,-1,6,1.11,10641,100,89,44,86,1498,0.0,653,469,60,124.0,0,1,435,580,236,0,0,0,250,250,0,181.28,44.68095,10.024513,0.0,177.9,0,0.0,-1,0.0,0.0,0,0.94,3.259
195563,1564152940260,4,2.32,0.89,0.35,1.45,1.07,0.62,1.0,-0.31,1,-1,6,1.17,10463,100,89,44,87,1498,0.0,652,463,60,123.0,0,1,430,546,236,0,0,0,250,250,0,-5.59,,,,,,,,,,,,
195583,1564152940280,7,2.32,0.89,0.36,1.46,1.07,0.68,1.05,-0.36,1,-2,7,1.25,10217,100,89,43,88,1498,0.0,648,463,60,122.0,0,1,412,622,242,0,0,0,250,250,0,-5.59,,,,,,,,,,,,
195603,1564152940299,3,2.31,0.89,0.36,1.46,1.07,0.68,1.05,-0.31,1,-2,6,1.25,10695,100,89,43,87,1498,0.0,652,468,60,124.0,0,1,438,546,242,0,0,0,250,250,0,-5.59,,,,,,,,,,,,
195623,1564152940319,2,2.33,0.89,0.36,1.45,1.08,0.76,1.07,-0.36,1,-3,6,1.32,10510,100,89,44,86,1498,0.0,656,464,60,123.0,0,1,432,580,242,0,0,0,250,250,0,414.87,,,,,,,,,,,,
195643,1564152940339,7,2.32,0.9,0.36,1.46,1.08,0.79,1.04,-0.23,1,-3,6,1.31,10341,100,89,43,88,1498,0.0,653,467,60,120.0,0,1,422,622,242,0,0,0,250,250,0,-5.59,44.68095,10.024513,0.0,177.9,0,0.0,-1,0.0,0.0,0,0.94,3.2607
195663,1564152940359,1,2.32,0.9,0.35,1.46,1.07,0.84,1.02,-0.11,1,-3,5,1.32,10416,100,88,43,88,1498,0.0,651,466,60,122.0,0,1,428,565,242,0,0,0,250,250,0,-5.59,,,,,,,,,,,,
195683,1564152940379,7,2.31,0.9,0.36,1.46,1.08,0.84,0.96,-0.08,1,-3,5,1.28,10539,100,89,44,86,1498,0.0,650,458,60,124.0,0,1,433,527,233,0,0,0,250,250,0,414.87,,,,,,,,,,,,
195703,1564152940399,6,2.31,0.9,0.35,1.46,1.07,0.92,0.81,0.05,0,-3,3,1.23,10290,100,88,43,88,1498,0.0,655,463,60,122.0,0,1,418,565,233,0,0,0,250,250,0,-5.59,,,,,,,,,,,,
195723,1564152940419,2,2.31,0.89,0.36,1.46,1.07,0.96,0.65,0.23,0,-3,2,1.16,10521,100,88,43,88,1498,0.0,647,468,60,122.0,0,1,434,565,233,0,0,0,250,250,0,-5.59,,,,,,,,,,,,
195743,1564152940439,3,2.31,0.9,0.36,1.46,1.07,1.02,0.58,0.34,-0,-3,1,1.18,10557,100,89,44,86,1498,0.0,648,458,60,124.0,0,1,433,580,233,0,0,0,250,250,0,414.87,44.68095,10.024513,0.0,177.9,0,0.0,-1,0.0,0.0,0,0.94,3.2624
195763,1564152940459,5,2.32,0.89,0.35,1.45,1.08,0.99,0.47,0.41,-0,-3,1,1.1,10387,100,89,44,88,1498,0.0,654,446,60,121.0,0,1,426,616,233,0,0,0,250,250,0,-5.59,,,,,,,,,,,,
195783,1564152940479,1,2.32,0.89,0.36,1.45,1.08,1.05,0.28,0.53,-0,-1,-0,1.08,10353,100,88,43,88,1498,0.0,655,464,60,122.0,0,1,423,622,241,0,0,0,250,250,0,-5.59,,,,,,,,,,,,
195803,1564152940499,2,2.31,0.89,0.36,1.45,1.08,1.08,0.2,0.66,-1,-1,-1,1.1,10732,100,89,44,86,1498,0.0,650,470,60,124.0,0,1,438,580,241,0,0,0,250,250,0,181.28,,,,,,,,,,,,
195823,1564152940519,6,2.31,0.9,0.36,1.46,1.07,1.11,0.18,0.72,-1,-1,-2,1.12,10469,100,89,44,87,1498,0.0,650,459,60,124.0,0,1,430,598,241,0,0,0,250,250,0,181.28,,,,,,,,,,,,
195843,1564152940539,5,2.32,0.89,0.36,1.45,1.08,1.08,0.09,0.83,-1,-0,-2,1.08,10302,100,88,43,88,1498,0.0,656,465,60,122.0,0,1,419,622,241,0,0,0,250,250,0,-5.59,44.68095,10.024513,0.0,177.9,0,0.0,-1,0.0,0.0,0,0.94,3.264
195863,1564152940559,2,2.31,0.89,0.36,1.46,1.07,1.15,-0.03,0.93,-1,1,-3,1.15,10665,100,89,44,87,1498,0.0,648,473,60,124.0,0,1,437,546,241,0,0,0,250,250,0,-5.59,,,,,,,,,,,,
195883,1564152940579,8,2.32,0.9,0.36,1.47,1.07,1.17,-0.08,1.01,-1,1,-4,1.17,10551,100,89,44,86,1498,0.0,649,466,60,124.0,0,1,433,580,233,0,0,0,250,250,0,414.87,,,,,,,,,,,,
195903,1564152940599,9,2.31,0.9,0.36,1.46,1.07,1.18,-0.15,1.01,-1,3,-5,1.19,10302,100,88,43,88,1498,0.0,653,465,60,121.0,0,1,419,622,233,0,0,0,250,250,0,-5.59,,,,,,,,,,,,
195923,1564152940619,6,2.31,0.91,0.36,1.46,1.07,1.15,-0.25,1.07,-1,3,-5,1.17,10551,100,88,43,88,1498,0.0,655,466,60,122.0,0,1,435,622,233,0,0,0,250,250,0,-5.59,,,,,,,,,,,,
195943,1564152940639,6,2.32,0.9,0.36,1.46,1.07,1.21,-0.34,1.14,-1,4,-6,1.26,10599,100,89,44,86,1498,0.0,654,461,60,124.0,0,1,434,580,233,0,0,0,250,250,0,414.87,44.68095,10.024513,0.0,177.9,0,0.0,-1,0.0,0.0,0,0.94,3.2657
195963,1564152940659,9,2.32,0.9,0.36,1.46,1.08,1.21,-0.4,1.19,-1,4,-7,1.28,10439,100,89,44,88,1498,0.0,650,459,60,122.0,0,1,429,616,233,0,0,0,250,250,0,-5.59,,,,,,,,,,,,
195983,1564152940679,4,2.31,0.9,0.37,1.46,1.09,1.23,-0.46,1.21,-2,3,-7,1.31,10341,100,88,43,89,1498,0.0,653,465,60,122.0,0,1,424,584,242,0,0,0,250,250,0,-5.59,,,,,,,,,,,,
196003,1564152940699,6,2.31,0.9,0.37,1.46,1.08,1.18,-0.49,1.27,-2,4,-7,1.27,10782,100,89,44,86,1498,0.0,660,459,60,124.0,0,1,439,580,242,0,0,0,250,250,0,414.87,,,,,,,,,,,,
196023,1564152940719,9,2.31,0.91,0.36,1.46,1.08,1.24,-0.49,1.34,-2,4,-7,1.33,10533,100,89,44,87,1498,0.0,656,464,60,124.0,0,1,433,598,242,0,0,0,250,250,0,181.28,,,,,,,,,,,,
196043,1564152940739,8,2.31,0.89,0.36,1.47,1.08,1.24,-0.48,1.35,-2,3,-7,1.33,10364,100,88,43,88,1498,0.0,654,470,60,121.0,0,1,424,565,242,0,0,0,250,250,0,-5.59,44.68095,10.024513,0.0,177.9,0,0.0,-1,0.0,0.0,0,0.94,3.2674
196063,1564152940759,3,2.32,0.91,0.36,1.46,1.08,1.24,-0.48,1.35,-2,2,-7,1.33,10515,100,88,43,88,1498,0.0,653,462,60,122.0,0,1,434,622,242,0,0,0,250,250,0,-5.59,,,,,,,,,,,,
196083,1564152940779,4,2.31,0.9,0.36,1.47,1.08,1.19,-0.44,1.33,-2,2,-7,1.27,10653,100,89,44,86,1498,0.0,648,457,60,124.0,0,1,435,580,236,0,0,0,250,250,0,414.87,,,,,,,,,,,,
196103,1564152940799,8,2.31,0.91,0.36,1.47,1.08,1.25,-0.41,1.33,-2,2,-6,1.32,10405,100,89,44,88,1498,0.0,652,461,60,122.0,0,1,427,598,236,0,0,0,250,250,0,-5.59,,,,,,,,,,,,
196123,1564152940819,7,2.31,0.91,0.36,1.46,1.08,1.25,-0.46,1.4,-2,2,-7,1.33,10336,100,88,43,88,1498,0.0,647,467,60,121.0,0,1,422,622,236,0,0,0,250,250,0,-5.59,,,,,,,,,,,,
196143,1564152940839,2,2.32,0.91,0.36,1.47,1.07,1.28,-0.47,1.43,-2,1,-7,1.36,10708,100,89,44,87,1498,0.0,650,468,60,124.0,0,1,438,598,236,0,0,0,250,250,0,-5.59,44.68095,10.024513,0.0,177.9,0,0.0,-1,0.0,0.0,0,0.94,3.2691
196163,1564152940859,6,2.31,0.9,0.35,1.46,1.07,1.24,-0.46,1.4,-2,1,-7,1.32,10533,100,89,44,86,1498,0.0,648,458,60,124.0,0,1,432,580,236,0,0,0,250,250,0,181.28,,,,,,,,,,,,
196183,1564152940879,4,2.3,0.89,0.35,1.45,1.08,1.25,-0.54,1.42,-2,2,-7,1.36,10296,100,88,43,88,1498,0.0,653,463,60,122.0,0,1,419,565,244,0,0,0,250,250,0,-5.59,,,,,,,,,,,,
196203,1564152940899,2,2.3,0.89,0.36,1.46,1.07,1.24,-0.63,1.47,-2,3,-8,1.39,10498,100,88,43,88,1498,0.0,653,463,60,122.0,0,1,433,622,244,0,0,0,250,250,0,-5.59,,,,,,,,,,,,
196223,1564152940919,1,2.31,0.9,0.35,1.46,1.07,1.26,-0.61,1.48,-2,3,-8,1.4,10665,100,89,44,86,1498,0.0,655,462,60,124.0,0,1,436,580,244,0,0,0,250,250,0,414.87,,,,,,,,,,,,
196243,1564152940939,5,2.31,0.9,0.36,1.45,1.07,1.21,-0.57,1.44,-2,3,-7,1.33,10498,100,89,44,87,1498,0.0,655,458,60,123.0,0,1,432,598,244,0,0,0,250,250,0,181.28,44.68095,10.024513,0.0,177.9,0,0.0,-1,0.0,0.0,0,0.94,3.2707
196263,1564152940959,5,2.31,0.89,0.36,1.45,1.08,1.23,-0.63,1.41,-2,4,-8,1.39,10279,100,88,43,88,1498,0.0,650,469,60,122.0,0,1,417,622,244,0,0,0,250,250,0,-5.59,,,,,,,,,,,,
196283,1564152940979,1,2.32,0.9,0.36,1.46,1.07,1.23,-0.6,1.47,-2,4,-8,1.37,10813,100,88,43,87,1498,0.0,644,475,60,123.0,0,1,441,546,243,0,0,0,250,250,0,-5.59,,,,,,,,,,,,
196303,1564152940991,3,2.32,0.89,0.36,1.46,1.07,1.27,-0.46,1.41,-2,3,-8,1.35,10605,100,89,44,86,1498,0.0,650,460,60,124.0,0,1,434,580,243,0,0,0,250,250,0,414.87,,,,,,,,,,,,
196323,1564152941011,4,2.31,0.9,0.35,1.45,1.08,1.25,-0.37,1.31,-2,3,-7,1.3,10439,100,89,43,88,1498,0.0,651,461,60,124.0,0,1,429,622,243,0,0,0,250,250,0,-5.59,,,,,,,,,,,,
196343,1564152941031,1,2.32,0.89,0.36,1.45,1.07,1.3,-0.42,1.34,-2,3,-7,1.37,10240,100,88,43,89,1498,0.0,650,471,60,122.0,0,1,415,584,243,0,0,0,250,250,0,-5.59,44.68095,10.024513,0.0,177.9,0,0.0,-1,0.0,0.0,0,0.94,3.2724
196363,1564152941051,1,2.32,0.89,0.36,1.46,1.07,1.28,-0.38,1.4,-2,1,-7,1.33,10788,100,89,43,86,1498,0.0,644,472,60,124.0,0,1,439,585,243,0,0,0,250,250,0,-5.59,,,,,,,,,,,,
196383,1564152941071,5,2.32,0.89,0.36,1.46,1.07,1.31,-0.27,1.34,-2,1,-7,1.33,10527,100,89,44,86,1498,0.0,645,460,60,124.0,0,1,432,527,233,0,0,0,250,250,0,414.87,,,,,,,,,,,,
196403,1564152941095,3,2.32,0.89,0.36,1.46,1.07,1.25,-0.22,1.27,-2,1,-7,1.27,10359,100,88,43,88,1498,0.0,658,465,60,121.0,0,1,424,622,233,0,0,0,250,250,0,-5.59,,,,,,,,,,,,
196423,1564152941115,-1,2.32,0.89,0.36,1.46,1.08,1.31,-0.24,1.33,-2,1,-7,1.33,10515,100,88,43,88,1498,0.0,650,467,60,122.0,0,1,434,622,233,0,0,0,250,250,0,-5.59,,,,,,,,,,,,
196443,1564152941135,-0,2.32,0.9,0.35,1.45,1.08,1.3,-0.14,1.31,-2,1,-7,1.31,10653,100,89,43,86,1498,0.0,650,465,60,124.0,0,1,435,585,233,0,0,0,250,250,0,181.28,44.68095,10.024513,0.0,177.9,0,0.0,-1,0.0,0.0,0,0.94,3.274
196463,1564152941155,5,2.31,0.9,0.35,1.46,1.07,1.32,-0.05,1.26,-2,1,-7,1.32,10393,100,89,43,87,1498,0.0,648,460,60,122.0,0,1,425,604,233,0,0,0,250,250,0,-5.59,,,,,,,,,,,,
196483,1564152941175,0,2.31,0.9,0.35,1.46,1.08,1.25,-0.09,1.28,-2,1,-7,1.25,10370,100,88,43,88,1498,0.0,647,463,60,121.0,0,1,424,622,243,0,0,0,250,250,0,-5.59,,,,,,,,,,,,
196503,1564152941199,2,2.31,0.9,0.36,1.46,1.07,1.32,-0.11,1.33,-2,2,-7,1.32,10563,100,89,43,86,1498,0.0,650,460,60,124.0,0,1,433,585,243,0,0,0,250,250,0,414.87,,,,,,,,,,,,
196523,1564152941219,4,2.32,0.9,0.35,1.46,1.07,1.29,-0.17,1.37,-2,2,-8,1.3,10422,100,88,43,87,1498,0.0,651,455,60,121.0,0,1,427,604,243,0,0,0,250,250,0,-5.59,,,,,,,,,,,,
196543,1564152941239,-1,2.32,0.89,0.36,1.45,1.07,1.29,-0.26,1.4,-2,3,-8,1.32,10347,100,88,43,88,1498,0.0,650,463,60,122.0,0,1,428,565,243,0,0,0,250,250,0,-5.59,44.68095,10.024513,0.0,177.9,0,0.0,-1,0.0,0.0,0,0.94,3.2757
196563,1564152941259,0,2.31,0.89,0.35,1.46,1.06,1.24,-0.31,1.45,-2,4,-8,1.28,10641,100,89,43,86,1498,0.0,650,462,60,124.0,0,1,435,527,243,0,0,0,250,250,0,414.87,,,,,,,,,,,,
196583,1564152941279,4,2.32,0.89,0.35,1.45,1.07,1.28,-0.4,1.48,-2,4,-9,1.34,10399,100,88,43,87,1498,0.0,657,460,60,122.0,0,1,426,604,239,0,0,0,250,250,0,-5.59,,,,,,,,,,,,
196603,1564152941298,0,2.31,0.89,0.36,1.45,1.07,1.25,-0.54,1.53,-2,6,-9,1.36,10376,100,88,43,89,1498,0.0,651,463,60,122.0,0,1,426,640,239,0,0,0,250,250,0,-5.59,,,,,,,,,,,,
196623,1564152941318,-0,2.31,0.89,0.35,1.46,1.07,1.26,-0.56,1.55,-2,5,-9,1.38,10714,100,89,43,86,1498,0.0,655,461,60,124.0,0,1,437,585,239,0,0,0,250,250,0,181.28,,,,,,,,,,,,
196643,1564152941338,4,2.31,0.88,0.35,1.45,1.06,1.22,-0.55,1.53,-2,5,-9,1.33,10539,100,89,43,87,1498,0.0,647,460,60,124.0,0,1,434,546,239,0,0,0,250,250,0,414.87,44.68095,10.024513,0.0,177.9,0,0.0,-1,0.0,0.0,0,0.94,3.2774
196663,1564152941358,3,2.32,0.88,0.35,1.45,1.07,1.25,-0.61,1.52,-2,6,-9,1.39,10302,100,88,43,88,1498,0.0,651,463,60,122.0,0,1,419,622,239,0,0,0,250,250,0,-5.59,,,,,,,,,,,,
196683,1564152941378,-0,2.31,0.88,0.35,1.46,1.07,1.24,-0.64,1.56,-2,5,-9,1.39,10617,100,88,43,87,1498,0.0,646,467,60,120.0,0,1,436,604,246,0,0,0,250,250,0,-5.59,,,,,,,,,,,,
196703,1564152941398,-0,2.32,0.89,0.35,1.45,1.06,1.26,-0.56,1.53,-2,5,-9,1.37,10653,100,89,43,86,1498,0.0,647,457,60,124.0,0,1,435,527,246,0,0,0,250,250,0,181.28,,,,,,,,,,,,
196723,1564152941418,3,2.32,0.89,0.35,1.45,1.07,1.24,-0.49,1.45,-2,5,-9,1.33,10486,100,89,43,87,1498,0.0,652,460,60,124.0,0,1,432,604,246,0,0,0,250,250,0,414.87,,,,,,,,,,,,
196743,1564152941438,1,2.31,0.89,0.35,1.45,1.07,1.29,-0.54,1.45,-2,5,-9,1.39,10273,100,88,43,89,1498,0.0,650,470,60,121.0,0,1,418,584,246,0,0,0,250,250,0,-5.59,44.68095,10.024513,0.0,177.9,0,0.0,-1,0.0,0.0,0,0.94,3.279
196763,1564152941458,-1,2.31,0.88,0.35,1.45,1.06,1.26,-0.48,1.5,-2,4,-9,1.35,10751,100,89,43,86,1498,0.0,653,466,60,123.0,0,1,438,585,246,0,0,0,250,250,0,181.28,,,,,,,,,,,,
196783,1564152941478,4,2.3,0.88,0.35,1.45,1.06,1.3,-0.4,1.45,-2,4,-9,1.36,10492,100,89,43,86,1498,0.0,646,461,60,124.0,0,1,431,585,234,0,0,0,250,250,0,181.28,,,,,,,,,,,,
196803,1564152941498,2,2.31,0.89,0.36,1.45,1.06,1.25,-0.38,1.43,-2,3,-8,1.3,10330,100,88,43,88,1498,0.0,656,471,60,121.0,0,1,421,622,234,0,0,0,250,250,0,-5.59,,,,,,,,,,,,
196823,1564152941518,-1,2.32,0.89,0.34,1.45,1.06,1.28,-0.44,1.44,-2,3,-8,1.36,10515,100,88,43,88,1498,0.0,652,467,60,122.0,0,1,434,622,234,0,0,0,250,250,0,-5.59,,,,,,,,,,,,
196843,1564152941538,-1,2.32,0.89,0.35,1.45,1.07,1.25,-0.4,1.44,-2,3,-9,1.31,10653,100,89,43,86,1498,0.0,646,459,60,124.0,0,1,435,585,234,0,0,0,250,250,0,181.28,44.68095,10.024513,0.0,177.9,0,0.0,-1,0.0,0.0,0,0.94,3.2807
196863,1564152941558,5,2.31,0.89,0.35,1.45,1.07,1.27,-0.32,1.42,-2,2,-9,1.31,10405,100,88,43,87,1498,0.0,646,461,60,122.0,0,1,426,604,234,0,0,0,250,250,0,-5.59,,,,,,,,,,,,
196883,1564152941578,-0,2.31,0.89,0.35,1.45,1.06,1.18,-0.36,1.48,-2,3,-8,1.23,10324,100,88,43,88,1498,0.0,648,462,60,121.0,0,1,421,622,243,0,0,0,250,250,0,-5.59,,,,,,,,,,,,
196903,1564152941600,-1,2.32,0.89,0.35,1.45,1.07,1.25,-0.34,1.53,-2,2,-9,1.3,10800,100,89,43,86,1498,0.0,647,470,60,124.0,0,1,439,585,243,0,0,0,250,250,0,-5.59,,,,,,,,,,,,
196923,1564152941620,0,2.32,0.89,0.35,1.45,1.06,1.22,-0.21,1.47,-2,2,-9,1.24,10629,100,89,43,86,1498,0.0,650,463,60,124.0,0,1,435,585,243,0,0,0,250,250,0,414.87,,,,,,,,,,,,
196943,1564152941640,4,2.31,0.89,0.35,1.45,1.06,1.25,-0.08,1.35,-2,2,-7,1.25,10387,100,88,43,88,1498,0.0,652,454,60,122.0,0,1,426,622,243,0,0,0,250,250,0,-5.59,44.68095,10.024513,0.0,177.9,0,0.0,-1,0.0,0.0,0,0.94,3.2824
196963,1564152941660,1,2.31,0.88,0.35,1.45,1.07,1.19,-0.09,1.34,-2,3,-8,1.19,10353,100,88,43,88,1498,0.0,652,459,60,122.0,0,1,423,622,243,0,0,0,250,250,0,-5.59,,,,,,,,,,,,
196983,1564152941680,0,2.31,0.88,0.35,1.45,1.06,1.27,-0.03,1.38,-2,2,-8,1.27,10702,100,89,43,86,1498,0.0,651,463,60,124.0,0,1,437,527,245,0,0,0,250,250,0,181.28,,,,,,,,,,,,
197003,1564152941698,4,2.32,0.88,0.35,1.45,1.07,1.23,0.09,1.34,-2,2,-7,1.23,10527,100,89,43,87,1498,0.0,651,463,60,123.0,0,1,433,604,245,0,0,0,250,250,0,414.87,,,,,,,,,,,,
197023,1564152941718,4,2.31,0.89,0.35,1.44,1.07,1.27,0.13,1.33,-2,2,-7,1.28,10279,100,88,43,88,1498,0.0,652,462,60,121.0,0,1,417,565,245,0,0,0,250,250,0,-5.59,,,,,,,,,,,,
197043,1564152941738,-0,2.32,0.88,0.35,1.45,1.07,1.23,0.11,1.33,-2,2,-7,1.23,10647,100,88,43,87,1498,0.0,649,464,60,123.0,0,1,436,604,245,0,0,0,250,250,0,-5.59,44.68095,10.024513,0.0,177.9,0,0.0,-1,0.0,0.0,0,0.94,3.284
197063,1564152941758,1,2.31,0.88,0.35,1.45,1.06,1.3,0.19,1.29,-2,1,-7,1.31,10581,100,89,43,86,1498,0.0,644,464,60,124.0,0,1,434,527,245,0,0,0,250,250,0,414.87,,,,,,,,,,,,
197083,1564152941778,3,2.31,0.88,0.35,1.45,1.07,1.3,0.23,1.24,-2,1,-7,1.32,10410,100,88,43,88,1498,0.0,653,458,60,121.0,0,1,427,622,240,0,0,0,250,250,0,-5.59,,,,,,,,,,,,
197103,1564152941800,0,2.31,0.89,0.35,1.46,1.06,1.3,0.19,1.28,-2,1,-7,1.31,10307,100,88,43,88,1498,0.0,652,464,60,121.0,0,1,419,622,240,0,0,0,250,250,0,-5.59,,,,,,,,,,,,
197123,1564152941820,4,2.32,0.89,0.35,1.46,1.06,1.26,0.14,1.28,-2,2,-7,1.26,10593,100,89,43,86,1498,0.0,647,460,60,124.0,0,1,434,585,240,0,0,0,250,250,0,181.28,,,,,,,,,,,,
197143,1564152941840,3,2.32,0.89,0.35,1.45,1.06,1.27,0.05,1.29,-2,3,-7,1.27,10341,100,88,43,87,1498,0.0,655,464,60,121.0,0,1,421,604,240,0,0,0,250,250,0,-5.59,44.68095,10.024513,0.0,177.9,0,0.0,-1,0.0,0.0,0,0.94,3.2857
197163,1564152941860,1,2.31,0.89,0.35,1.45,1.06,1.25,-0.11,1.36,-2,2,-8,1.25,10405,100,88,43,88,1498,0.0,653,466,60,122.0,0,1,427,622,240,0,0,0,250,250,0,-5.59,,,,,,,,,,,,
197183,1564152941880,-1,2.31,0.89,0.35,1.45,1.07,1.27,-0.22,1.38,-2,2,-8,1.29,10659,100,89,43,85,1498,0.0,654,468,60,124.0,0,1,435,567,238,0,0,0,250,250,0,181.28,,,,,,,,,,,,
