"Interval"|"ms"|0|0|1,"Utc"|"ms"|0|0|1,"FB_p"|"bar"|0|300|50,"Volant"|"F"|0.0|300.0|50,"xFR"|"mm"|0.0|5.0|50,"xRR"|"mm"|0.0|5.0|50,"xFL"|"mm"|0.0|5.0|50,"xRL"|"mm"|0.0|5.0|50,"AccelX"|"G"|-3.0|3.0|50,"AccelY"|"G"|-3.0|3.0|50,"AccelZ"|"G"|-3.0|3.0|50,"Yaw"|"Deg/Sec"|-120|120|50,"Pitch"|"Deg/Sec"|-120|120|50,"Roll"|"Deg/Sec"|-120|120|50,"Gsum"|"G"|0.0|3.0|50,"RPM"|""|0|14000|50,"TPS"|"%"|0|100|50,"WaterTemp"|"?C"|0|300|50,"AirTemp"|"?C"|-1000|1000|50,"MAP"|"KPa"|0|255|50,"Lambda"|""|0|1024|50,"WheelSpeed"|"MPH"|0.0|150.0|50,"OilPress"|"PSI"|0|150|50,"FuelPress"|"PSI"|0|150|50,"OilTemp"|"F"|0|300|50,"Battery"|"Volts"|0.0|20.0|50,"FuelCon"|"L/h"|-1000|1000|50,"Gear"|""|0|10|50,"Advance"|"Deg"|-360|360|50,"Injection"|"ms"|-1000|1000|50,"FuelCon"|"L/100km"|-1000|1000|50,"LC_But_Pres"|""|-1000|1000|50,"LC_Active"|""|-1000|1000|50,"RD_Speed"|""|-1000|1000|50,"RUD_Speed"|""|-1000|1000|50,"LD_Speed"|""|-1000|1000|50,"LUD_Speed"|""|-1000|1000|50,"Ana1"|"bar"|-1000.0|1000.0|50,"Latitude"|"Degrees"|-180.0|180.0|10,"Longitude"|"Degrees"|-180.0|180.0|10,"Speed"|"kph"|0.0|150.0|10,"Altitude"|"m"|0.0|4000.0|10,"LapCount"|""|0|0|10,"LapTime"|"Min"|0.0|0.0|10,"Sector"|""|0|0|10,"SectorTime"|"Min"|0.0|0.0|10,"ElapsedTime"|"Min"|0.0|0.0|10,"CurrentLap"|""|0|0|10,"Distance"|"km"|0.0|0.0|10,"SessionTime"|"Min"|0.0|0.0|10
262963,1564153007660,0,2.56,1.01,0.38,1.52,1.13,1.2,-0.54,0.86,21,-2,28,1.32,9295,50,98,43,58,1362,475.0,620,460,60,123.0,234,1,403,322,110,0,0,498,16648,248,475,-5.59,,,,,,,,,,,,
262983,1564153007680,2,2.55,1.01,0.38,1.53,1.13,1.09,-0.62,0.88,21,-0,28,1.25,9360,51,97,43,58,1353,477.0,623,466,60,123.0,240,1,404,324,114,0,0,506,16648,11560,477,-5.59,,,,,,,,,,,,
263003,1564153007702,1,2.56,1.0,0.38,1.52,1.14,1.11,-0.66,0.93,20,-1,28,1.3,9389,51,97,43,58,1342,482.0,623,463,60,123.0,240,1,405,324,114,0,0,499,16648,771,482,-5.59,,,,,,,,,,,,
263023,1564153007722,2,2.55,1.0,0.38,1.52,1.13,1.08,-0.63,0.97,21,-0,28,1.25,9417,51,98,43,57,1330,482.0,624,461,60,123.0,240,1,404,320,114,0,0,488,8488,2109,482,-5.59,,,,,,,,,,,,
263043,1564153007742,-1,2.55,1.0,0.38,1.52,1.14,0.91,-0.6,0.82,21,-1,29,1.09,9417,51,98,43,57,1325,483.0,625,464,60,124.0,240,1,404,320,114,0,0,501,3571,-22519,484,-5.59,44.681343,10.025009,46.35,172.4,0,0.0,-1,0.0,0.0,0,1.54,4.384
263063,1564153007762,2,2.54,1.01,0.38,1.52,1.13,0.86,-0.64,0.83,21,1,28,1.07,9431,51,98,43,57,1322,486.0,616,468,60,123.0,240,1,404,320,114,0,0,517,14488,-4054,486,-5.59,,,,,,,,,,,,
263083,1564153007782,3,2.54,1.0,0.38,1.51,1.14,0.93,-0.66,0.9,21,0,28,1.15,9426,51,97,43,57,1308,488.0,617,466,60,122.0,233,1,404,320,114,0,0,499,-18108,6274,488,-5.59,,,,,,,,,,,,
263103,1564153007802,-1,2.54,1.0,0.38,1.52,1.13,0.87,-0.58,0.89,21,1,28,1.04,9407,51,98,43,58,1288,491.0,612,462,60,123.0,233,1,405,320,114,0,0,505,2211,26178,491,-5.59,,,,,,,,,,,,
263123,1564153007822,-1,2.54,1.0,0.38,1.52,1.14,0.88,-0.62,0.76,21,0,28,1.08,9422,58,98,43,58,1270,492.0,620,468,60,123.0,233,1,405,325,114,0,0,508,16408,-3414,491,-5.59,,,,,,,,,,,,
263143,1564153007842,3,2.54,1.0,0.38,1.52,1.13,0.93,-0.67,0.8,20,-1,27,1.15,9422,62,98,43,61,1253,490.0,617,462,60,123.0,233,1,411,340,114,0,0,499,243,-21872,494,-5.59,44.681332,10.02502,46.87,172.4,0,0.0,-1,0.0,0.0,0,1.54,4.3857
263163,1564153007862,1,2.53,1.0,0.38,1.51,1.13,0.9,-0.66,0.8,20,-1,27,1.12,9503,67,98,43,64,1232,495.0,623,468,60,124.0,233,1,414,352,114,0,0,518,30272,17136,495,-5.59,,,,,,,,,,,,
263183,1564153007882,1,2.54,0.99,0.37,1.5,1.13,0.86,-0.71,0.68,20,-1,28,1.11,9635,71,98,43,68,1208,499.0,626,464,60,124.0,278,1,408,385,138,0,0,515,-16384,10994,499,-5.59,,,,,,,,,,,,
263203,1564153007902,1,2.53,0.97,0.37,1.49,1.12,0.69,-0.71,0.73,20,0,27,0.99,9806,72,98,43,70,1193,497.0,632,466,60,123.0,278,1,404,411,138,0,0,510,8488,17136,497,-5.59,,,,,,,,,,,,
263223,1564153007922,3,2.53,0.97,0.37,1.48,1.12,0.76,-0.64,0.65,20,-0,26,1.0,9936,72,98,43,70,1187,499.0,646,460,60,123.0,278,1,398,429,138,0,0,537,-9203,1248,499,-5.59,,,,,,,,,,,,
263243,1564153007942,2,2.53,0.97,0.37,1.5,1.12,0.68,-0.72,0.79,20,1,26,0.99,10000,72,98,43,71,1187,502.0,638,462,60,123.0,278,1,395,444,138,0,0,543,-23367,-32248,504,-5.59,44.681324,10.02503,48.3,172.4,0,0.0,-1,0.0,0.0,0,1.55,4.3874
263263,1564153007962,1,2.53,0.99,0.38,1.51,1.12,0.58,-0.67,0.75,21,4,26,0.89,10086,72,98,43,71,1192,508.0,640,462,60,123.0,278,1,403,445,138,0,0,532,10305,14504,510,-5.59,,,,,,,,,,,,
263283,1564153007982,3,2.53,0.99,0.37,1.49,1.12,0.58,-0.55,0.6,21,1,27,0.8,10124,72,98,43,71,1201,510.0,631,464,60,122.0,332,1,406,447,170,0,0,544,32033,2104,513,-5.59,,,,,,,,,,,,
263303,1564153007992,3,2.53,0.99,0.38,1.51,1.13,0.58,-0.57,0.63,21,1,27,0.81,10151,72,98,43,71,1213,513.0,634,457,60,123.0,332,1,408,446,170,0,0,526,3580,-8186,513,-5.59,,,,,,,,,,,,
263323,1564153008012,1,2.53,0.99,0.37,1.5,1.13,0.54,-0.7,0.77,21,5,26,0.88,10195,72,98,43,71,1221,516.0,632,461,60,123.0,332,1,412,447,170,0,0,555,505,1779,516,-5.59,,,,,,,,,,,,
263343,1564153008032,1,2.53,0.99,0.38,1.5,1.12,0.43,-0.77,0.79,21,7,26,0.88,10195,72,98,43,72,1226,520.0,630,463,60,123.0,332,1,411,454,170,0,0,576,998,-32248,522,-5.59,44.681313,10.025039,49.13,172.4,0,0.0,-1,0.0,0.0,0,1.55,4.389
263363,1564153008052,1,2.53,0.99,0.37,1.51,1.13,0.42,-0.77,0.63,22,5,27,0.87,10324,72,98,43,71,1227,525.0,633,463,60,123.0,332,1,423,450,170,0,0,526,998,6274,526,-5.59,,,,,,,,,,,,
263383,1564153008072,2,2.54,0.98,0.38,1.5,1.13,0.51,-0.59,0.6,22,1,29,0.78,10341,73,98,43,72,1220,526.0,636,467,60,123.0,332,1,422,456,175,0,0,544,3,-32248,528,-5.59,,,,,,,,,,,,
263403,1564153008102,1,2.52,0.99,0.37,1.51,1.12,0.54,-0.47,0.58,22,0,29,0.71,10405,73,98,43,72,1209,530.0,636,463,60,123.0,332,1,429,456,175,0,0,571,2109,6273,531,-5.59,,,,,,,,,,,,
263423,1564153008122,1,2.52,0.99,0.37,1.5,1.12,0.62,-0.31,0.48,21,-1,29,0.7,10492,73,98,43,72,1192,533.0,657,460,60,123.0,332,1,436,458,175,0,0,565,10408,-28648,534,-5.59,,,,,,,,,,,,
263443,1564153008142,1,2.53,0.99,0.37,1.51,1.12,0.59,-0.28,0.45,21,-3,31,0.65,10593,73,98,43,72,1176,534.0,655,466,60,123.0,332,1,439,459,175,0,0,557,15661,2211,534,-5.59,44.681301,10.025047,50.56,172.4,0,0.0,-1,0.0,0.0,0,1.55,4.3907
263463,1564153008162,1,2.53,0.99,0.38,1.51,1.13,0.52,-0.12,0.32,21,-2,30,0.54,10635,73,98,43,72,1166,538.0,644,466,60,123.0,332,1,439,459,175,0,0,559,-3414,-8186,538,-5.59,,,,,,,,,,,,
263483,1564153008182,2,2.52,0.99,0.38,1.5,1.14,0.53,-0.05,0.11,21,-2,29,0.53,10726,73,98,43,72,1155,541.0,638,466,60,123.0,344,1,441,459,186,0,0,565,15679,774,541,-5.59,,,,,,,,,,,,
263503,1564153008202,2,2.51,1.0,0.38,1.51,1.13,0.45,-0.19,0.05,21,-4,31,0.49,10720,73,98,43,72,1141,546.0,643,463,60,123.0,344,1,441,459,186,0,0,597,-3482,774,546,-5.59,,,,,,,,,,,,
263523,1564153008222,3,2.51,0.98,0.37,1.51,1.12,0.51,-0.37,0.25,20,-4,30,0.63,10863,73,98,43,73,1127,547.0,640,466,60,123.0,344,1,443,459,186,0,0,589,1248,259,551,-5.59,,,,,,,,,,,,
263543,1564153008242,1,2.52,0.99,0.38,1.5,1.13,0.45,-0.52,0.42,20,-2,29,0.69,10894,73,98,43,73,1123,552.0,645,464,60,123.0,344,1,445,464,186,0,0,570,2524,259,552,-5.59,44.68129,10.025056,52.43,172.4,0,0.0,-1,0.0,0.0,0,1.55,4.3924
263563,1564153008262,2,2.52,0.99,0.38,1.51,1.13,0.41,-0.34,0.29,21,-3,29,0.53,10952,73,98,43,72,1118,557.0,652,467,60,123.0,344,1,446,459,186,0,0,573,-9072,17344,557,-5.59,,,,,,,,,,,,
263583,1564153008282,3,2.52,0.99,0.38,1.51,1.13,0.47,-0.5,0.36,21,-1,29,0.69,11009,73,98,43,73,1110,562.0,646,469,60,122.0,342,1,447,464,192,0,0,598,2104,2048,562,-5.59,,,,,,,,,,,,
263603,1564153008296,2,2.51,0.99,0.37,1.51,1.12,0.52,-0.51,0.52,20,1,27,0.73,11009,74,98,43,73,1101,566.0,645,467,60,123.0,342,1,446,464,192,0,0,624,6274,-1894,566,-5.59,,,,,,,,,,,,
263623,1564153008316,3,2.51,0.99,0.37,1.5,1.12,0.49,-0.58,0.33,19,-1,27,0.75,11174,74,98,43,73,1095,568.0,650,463,60,123.0,342,1,445,464,192,0,0,578,-30064,-3210,568,-5.59,,,,,,,,,,,,
263643,1564153008336,1,2.53,0.98,0.37,1.5,1.13,0.55,-0.66,0.5,19,-1,26,0.86,11295,73,98,43,73,1090,568.0,650,460,60,123.0,342,1,444,464,192,0,0,596,-28648,-3820,571,-5.59,44.681278,10.025064,54.01,172.4,0,0.0,-1,0.0,0.0,0,1.55,4.3941
263663,1564153008356,3,2.53,0.99,0.37,1.51,1.12,0.57,-0.64,0.38,19,-3,28,0.86,11315,74,98,43,73,1079,572.0,650,461,60,123.0,342,1,443,459,192,0,0,601,-8962,-30139,572,-5.59,,,,,,,,,,,,
263683,1564153008376,1,2.52,0.99,0.37,1.51,1.13,0.52,-0.72,0.54,19,-3,27,0.88,11281,74,98,43,72,1068,577.0,649,464,60,123.0,339,1,444,459,196,0,0,620,-32248,-3820,577,-5.59,,,,,,,,,,,,
263703,1564153008401,2,2.53,0.99,0.38,1.51,1.13,0.44,-0.77,0.42,19,-2,28,0.89,11356,74,98,43,72,1061,581.0,642,466,60,122.0,339,1,443,459,196,0,0,611,-28648,16529,581,-5.59,,,,,,,,,,,,
263723,1564153008421,1,2.53,0.99,0.38,1.51,1.13,0.48,-0.54,0.47,19,-2,29,0.72,11496,74,98,43,72,1055,584.0,645,467,60,123.0,339,1,441,459,196,0,0,598,-28648,19304,584,-5.59,,,,,,,,,,,,
263743,1564153008441,2,2.51,0.99,0.38,1.51,1.12,0.61,-0.66,0.62,19,-2,27,0.89,11545,74,98,43,72,1045,590.0,649,468,60,123.0,339,1,440,459,196,0,0,632,-32504,3403,590,-5.59,44.681263,10.02507,55.61,172.4,0,0.0,-1,0.0,0.0,0,1.55,4.3957
263763,1564153008461,4,2.52,0.99,0.37,1.5,1.13,0.66,-0.79,0.51,19,-0,26,1.03,11631,74,97,43,72,1034,591.0,658,467,60,123.0,339,1,440,459,196,0,0,618,-28648,-16883,591,-5.59,,,,,,,,,,,,
263783,1564153008481,1,2.52,0.99,0.38,1.51,1.13,0.62,-0.72,0.42,20,4,27,0.95,11733,74,98,43,71,1028,594.0,655,465,60,122.0,337,1,440,454,201,0,0,622,-23623,-1346,594,-5.59,,,,,,,,,,,,
263803,1564153008501,3,2.51,0.99,0.37,1.51,1.13,0.51,-0.58,0.45,20,8,28,0.77,11748,74,98,43,71,1024,596.0,651,462,60,123.0,337,1,440,454,201,0,0,629,12552,-18357,598,-5.59,,,,,,,,,,,,
263823,1564153008521,2,2.51,1.0,0.38,1.52,1.13,0.41,-0.36,0.59,21,10,29,0.55,11807,74,98,43,71,1014,600.0,652,464,60,123.0,337,1,440,454,201,0,0,626,-29984,-4876,600,-5.59,,,,,,,,,,,,
263843,1564153008541,4,2.5,1.0,0.38,1.51,1.14,0.37,-0.26,0.73,22,10,27,0.45,11844,74,97,43,71,1003,604.0,656,460,60,123.0,337,1,440,454,201,0,0,649,259,-4876,603,-5.59,44.681252,10.025075,57.51,172.4,0,0.0,-1,0.0,0.0,0,1.55,4.3974
263863,1564153008561,3,2.49,1.01,0.38,1.52,1.13,0.32,-0.2,0.86,22,10,26,0.37,11904,74,98,43,71,995,608.0,657,466,60,123.0,337,1,440,454,201,0,0,639,1,-2836,608,-5.59,,,,,,,,,,,,
263883,1564153008581,2,2.48,1.0,0.37,1.51,1.14,0.25,-0.13,0.94,21,13,28,0.28,11965,74,98,43,71,988,611.0,651,460,60,123.0,336,1,440,454,205,0,0,639,30208,-2580,611,-5.59,,,,,,,,,,,,
263903,1564153008601,2,2.47,1.0,0.38,1.51,1.12,0.21,-0.03,0.96,21,13,29,0.21,12026,74,98,43,71,970,612.0,658,461,60,122.0,336,1,440,454,205,0,0,640,-16384,-30207,612,-5.59,,,,,,,,,,,,
263923,1564153008621,2,2.47,1.0,0.38,1.51,1.13,0.17,0.11,1.06,22,12,29,0.2,12057,74,98,43,71,948,614.0,657,463,60,123.0,336,1,440,454,205,0,0,637,2048,-3584,615,-5.59,,,,,,,,,,,,
263943,1564153008641,3,2.45,1.0,0.38,1.51,1.12,0.1,0.22,1.15,22,12,28,0.24,12050,74,97,43,71,930,621.0,662,460,60,123.0,336,1,440,454,205,0,0,656,-13043,479,621,-5.59,44.681236,10.02508,59.1,172.4,0,0.0,-1,0.0,0.0,0,1.56,4.399
263963,1564153008661,3,2.46,0.99,0.38,1.51,1.12,0.08,0.3,1.23,21,14,27,0.31,12088,74,98,43,71,914,622.0,658,463,60,123.0,336,1,440,454,205,0,0,659,-13043,31988,622,-5.59,,,,,,,,,,,,
263983,1564153008681,4,2.48,0.99,0.37,1.5,1.13,0.03,0.27,1.21,21,16,27,0.27,12167,74,98,43,71,893,623.0,648,460,60,123.0,335,1,440,454,209,0,0,647,-13043,-3038,623,-5.59,,,,,,,,,,,,
264003,1564153008701,2,2.48,0.99,0.37,1.51,1.13,0.08,0.07,1.16,21,14,26,0.11,12278,74,98,43,71,871,624.0,655,468,60,122.0,335,1,440,455,209,0,0,644,-3210,-388,624,-5.59,,,,,,,,,,,,
264023,1564153008721,2,2.49,1.0,0.38,1.5,1.13,0.14,-0.13,1.1,20,15,24,0.2,12311,74,98,43,71,856,625.0,656,462,60,122.0,335,1,440,455,209,0,0,659,-23055,-10344,628,-5.59,,,,,,,,,,,,
264043,1564153008741,2,2.51,1.0,0.38,1.51,1.13,0.33,-0.31,1.04,20,16,22,0.45,12335,74,98,43,71,850,634.0,657,467,60,122.0,335,1,440,455,209,0,0,674,-30139,31988,632,-5.59,44.681225,10.025084,60.78,172.5,0,0.0,-1,0.0,0.0,0,1.56,4.4007
264063,1564153008761,4,2.52,1.0,0.38,1.52,1.13,0.46,-0.12,0.94,19,12,24,0.48,12392,74,98,43,71,838,634.0,656,468,60,122.0,335,1,440,456,209,0,0,664,17740,-2830,636,-5.59,,,,,,,,,,,,
264083,1564153008781,5,2.52,0.99,0.38,1.52,1.13,0.43,-0.06,0.98,19,10,26,0.44,12384,74,98,43,71,822,634.0,660,470,60,122.0,336,1,440,456,214,0,0,658,-30139,-10344,636,-5.59,,,,,,,,,,,,
264103,1564153008801,0,2.54,1.0,0.38,1.52,1.12,0.37,-0.26,1.04,19,7,23,0.45,12433,74,98,43,71,809,640.0,673,468,60,121.0,336,1,440,456,214,0,0,665,-3446,-10348,640,-5.59,,,,,,,,,,,,
264123,1564153008821,4,2.53,1.0,0.38,1.51,1.13,0.36,-0.43,1.13,19,7,23,0.56,12475,74,98,43,71,800,644.0,660,468,60,121.0,336,1,440,457,214,0,0,683,-28304,-26380,644,-5.59,,,,,,,,,,,,
264143,1564153008841,1,2.53,1.0,0.38,1.51,1.13,0.4,-0.34,1.07,19,6,25,0.52,12609,74,98,43,71,790,646.0,665,470,60,122.0,336,1,440,457,214,0,0,674,269,-26892,646,-5.59,44.681206,10.025086,62.19,172.5,0,0.0,-1,0.0,0.0,0,1.56,4.4024
264163,1564153008861,2,2.54,1.01,0.38,1.52,1.13,0.38,-0.39,1.08,20,4,24,0.54,12694,74,97,43,71,780,649.0,666,468,60,123.0,336,1,440,458,214,0,0,671,269,-388,649,-5.59,,,,,,,,,,,,
264183,1564153008881,3,2.53,1.01,0.38,1.52,1.14,0.49,-0.55,1.16,20,1,23,0.74,12737,74,98,43,71,772,650.0,667,469,60,123.0,341,1,440,458,221,0,0,674,269,-10344,650,-5.59,,,,,,,,,,,,
264203,1564153008901,2,2.54,1.0,0.37,1.51,1.13,0.51,-0.54,1.0,20,1,25,0.74,12711,74,98,43,71,771,652.0,665,460,60,123.0,341,1,440,458,221,0,0,704,30721,-10346,652,-5.59,,,,,,,,,,,,
264223,1564153008921,3,2.53,1.01,0.37,1.52,1.13,0.42,-0.55,1.0,21,2,27,0.69,12763,74,98,43,71,768,654.0,659,460,60,123.0,341,1,440,458,221,0,0,670,3395,24,654,-5.59,,,,,,,,,,,,
264243,1564153008941,3,2.54,1.01,0.38,1.53,1.13,0.55,-0.65,1.01,21,3,25,0.85,12833,74,97,43,71,765,655.0,659,459,60,123.0,341,1,440,459,221,0,0,676,506,16599,655,-5.59,44.68119,10.025088,63.29,172.5,0,0.0,-1,0.0,0.0,0,1.56,4.404
264263,1564153008961,1,2.53,1.01,0.38,1.52,1.13,0.54,-0.53,0.9,22,1,26,0.76,12833,74,98,43,71,762,660.0,662,466,60,123.0,341,1,440,459,221,0,0,690,-1346,-10399,660,-5.59,,,,,,,,,,,,
264283,1564153008981,4,2.53,1.01,0.37,1.53,1.13,0.52,-0.67,1.0,22,1,25,0.85,12798,74,98,43,71,760,663.0,661,472,60,123.0,335,1,440,458,222,0,0,693,-1346,6208,662,-5.59,,,,,,,,,,,,
264303,1564153008993,2,2.52,1.01,0.37,1.53,1.13,0.54,-0.62,0.85,22,1,27,0.82,12877,74,98,43,71,758,662.0,662,471,60,123.0,335,1,440,459,222,0,0,696,-14655,16599,664,-5.59,,,,,,,,,,,,
264323,1564153009013,5,2.53,1.01,0.38,1.52,1.13,0.65,-0.75,0.96,22,0,27,0.99,13002,74,98,43,71,754,662.0,671,466,60,123.0,335,1,440,460,222,0,0,692,-14655,11576,666,-5.59,,,,,,,,,,,,
264343,1564153009033,2,2.54,1.01,0.38,1.52,1.14,0.55,-0.71,0.88,22,0,27,0.9,12975,74,98,43,71,750,668.0,668,463,60,123.0,335,1,440,460,222,0,0,697,966,11576,666,-5.59,44.681175,10.025089,64.45,172.5,0,0.0,-1,0.0,0.0,0,1.56,4.4057
264363,1564153009053,0,2.55,1.01,0.37,1.51,1.12,0.61,-0.84,0.85,22,2,25,1.04,12993,74,98,43,71,748,664.0,656,456,60,123.0,335,1,440,460,222,0,0,677,771,-10448,664,-5.59,,,,,,,,,,,,
264383,1564153009073,4,2.55,1.01,0.38,1.52,1.13,0.66,-0.6,0.71,22,2,28,0.89,13048,74,98,43,71,746,666.0,668,465,60,122.0,342,1,440,460,228,0,0,706,-2836,-20693,666,-5.59,,,,,,,,,,,,
264403,1564153009101,4,2.54,1.01,0.38,1.53,1.14,0.63,-0.74,0.84,21,1,26,0.97,13029,74,98,43,71,744,669.0,668,470,60,123.0,342,1,440,460,228,0,0,697,-2836,19188,669,-5.59,,,,,,,,,,,,
264423,1564153009121,2,2.54,1.02,0.38,1.52,1.13,0.63,-0.66,0.72,21,-0,27,0.91,13057,74,98,43,71,742,670.0,665,471,60,122.0,342,1,440,460,228,0,0,717,6208,-20693,670,-5.59,,,,,,,,,,,,
264443,1564153009141,0,2.54,1.01,0.38,1.53,1.13,0.76,-0.79,0.83,21,-2,26,1.1,13185,74,98,43,71,742,675.0,667,470,60,123.0,342,1,440,460,228,0,0,715,-10251,6208,674,-5.59,44.68116,10.025088,65.72,172.5,0,0.0,-1,0.0,0.0,0,1.56,4.4074
264463,1564153009161,1,2.53,1.01,0.37,1.53,1.13,0.65,-0.72,0.71,22,-2,29,0.97,13176,74,98,43,71,742,676.0,660,461,60,123.0,342,1,440,460,228,0,0,686,16599,6658,674,-5.59,,,,,,,,,,,,
264483,1564153009181,5,2.54,1.01,0.37,1.52,1.13,0.72,-0.61,0.71,22,1,30,0.94,13232,74,98,43,71,740,675.0,663,462,60,123.0,343,1,440,460,231,0,0,714,244,-20693,675,-5.59,,,,,,,,,,,,
264503,1564153009201,4,2.52,1.01,0.37,1.52,1.14,0.68,-0.75,0.84,21,3,28,1.01,13213,74,97,43,71,739,679.0,671,468,60,123.0,343,1,440,460,231,0,0,729,11776,-20693,679,-5.59,,,,,,,,,,,,
264523,1564153009221,3,2.52,1.02,0.38,1.52,1.13,0.65,-0.65,0.69,22,2,29,0.92,13307,73,98,43,71,738,681.0,665,471,60,122.0,343,1,440,460,231,0,0,684,4909,-3888,679,-5.59,,,,,,,,,,,,
264543,1564153009241,2,2.53,1.01,0.38,1.52,1.13,0.74,-0.76,0.72,22,-1,28,1.06,13316,73,98,43,71,736,681.0,661,468,60,122.0,343,1,440,460,231,0,0,706,11566,-388,681,-5.59,44.681145,10.025085,66.49,172.6,0,0.0,-1,0.0,0.0,0,1.57,4.409
264563,1564153009261,2,2.53,1.02,0.38,1.52,1.13,0.63,-0.85,0.73,22,2,27,1.06,13260,73,97,43,71,735,679.0,670,461,60,123.0,343,1,440,460,231,0,0,719,4909,-30694,679,-5.59,,,,,,,,,,,,
264583,1564153009281,2,2.53,1.02,0.37,1.53,1.13,0.72,-0.72,0.62,21,2,29,1.02,13335,73,97,43,71,734,683.0,662,463,60,123.0,340,1,440,460,232,0,0,720,2024,-12152,683,-5.59,,,,,,,,,,,,
264603,1564153009301,2,2.53,1.01,0.38,1.53,1.13,0.72,-0.85,0.75,21,0,28,1.11,13297,73,98,43,71,734,682.0,650,465,60,123.0,340,1,440,460,232,0,0,715,479,204,684,-5.59,,,,,,,,,,,,
264623,1564153009321,5,2.53,1.02,0.38,1.53,1.14,0.7,-0.93,0.83,22,1,27,1.16,13364,73,98,43,71,734,685.0,660,471,60,123.0,340,1,440,460,232,0,0,717,-2830,-2918,683,-5.59,,,,,,,,,,,,
264643,1564153009341,3,2.53,1.01,0.38,1.52,1.13,0.68,-0.81,0.7,22,0,28,1.05,13326,73,97,43,71,733,687.0,666,463,60,122.0,340,1,440,460,232,0,0,710,-388,-2918,687,-5.59,44.681126,10.025082,67.17,172.6,0,0.0,-1,0.0,0.0,0,1.57,4.4107
264663,1564153009361,5,2.53,1.02,0.37,1.53,1.13,0.75,-0.83,0.72,22,3,28,1.12,13450,73,97,43,71,732,689.0,667,461,60,123.0,340,1,440,460,232,0,0,718,8958,16118,689,-5.59,,,,,,,,,,,,
264683,1564153009381,4,2.52,1.02,0.38,1.53,1.14,0.7,-0.94,0.84,22,3,28,1.17,13402,73,97,43,71,732,692.0,665,461,60,123.0,338,1,440,460,234,0,0,724,-26380,16118,692,-5.59,,,,,,,,,,,,
264703,1564153009400,4,2.52,1.02,0.38,1.53,1.14,0.68,-0.86,0.71,23,4,30,1.1,13469,73,97,43,71,731,697.0,665,468,60,122.0,338,1,440,460,234,0,0,705,-26380,204,697,-5.59,,,,,,,,,,,,
264723,1564153009420,4,2.52,1.02,0.38,1.53,1.13,0.73,-0.8,0.74,23,3,29,1.08,13383,73,98,43,71,732,692.0,656,462,60,122.0,338,1,440,460,234,0,0,729,-10344,-31068,695,-5.59,,,,,,,,,,,,
264743,1564153009440,3,2.55,1.01,0.38,1.52,1.14,0.73,-0.92,0.81,22,6,25,1.17,13479,73,97,43,71,733,690.0,656,458,60,121.0,338,1,440,460,234,0,0,713,-3038,-2560,694,-5.59,44.68111,10.025076,67.86,172.6,0,0.0,-1,0.0,0.0,0,1.57,4.4124
264763,1564153009460,2,2.55,1.01,0.38,1.52,1.14,0.75,-1.02,0.83,21,3,24,1.27,13479,73,97,43,71,735,691.0,655,464,60,122.0,338,1,440,460,234,0,0,715,-388,-388,691,-5.59,,,,,,,,,,,,
264783,1564153009480,2,2.55,1.01,0.38,1.53,1.13,0.64,-0.9,0.64,21,3,29,1.1,13537,73,97,43,71,737,689.0,653,473,60,122.0,341,1,440,460,235,0,0,721,31988,-3450,689,-5.59,,,,,,,,,,,,
264803,1564153009502,4,2.54,1.02,0.38,1.52,1.13,0.64,-0.81,0.66,22,4,28,1.04,13489,73,97,43,71,737,695.0,653,464,60,122.0,341,1,440,460,235,0,0,744,-10348,-4091,691,-5.59,,,,,,,,,,,,
264823,1564153009522,4,2.54,1.02,0.38,1.53,1.13,0.64,-0.9,0.79,22,6,25,1.11,13528,73,97,43,71,736,698.0,656,460,60,122.0,341,1,440,466,235,0,0,718,-3578,-2358,698,-5.59,,,,,,,,,,,,
264843,1564153009542,3,2.52,1.01,0.38,1.53,1.13,0.64,-1.01,0.91,21,5,25,1.2,13567,73,97,43,72,734,701.0,654,462,60,122.0,341,1,440,460,235,0,0,734,-3578,-388,701,-5.59,44.681095,10.02507,68.5,172.6,0,0.0,-1,0.0,0.0,0,1.57,4.4141
264863,1564153009562,3,2.51,1.01,0.38,1.52,1.13,0.57,-0.92,0.72,21,8,28,1.08,13666,73,97,43,72,732,700.0,661,467,60,123.0,341,1,440,466,235,0,0,732,1549,-2918,700,-5.59,,,,,,,,,,,,
264883,1564153009582,2,2.51,1.01,0.37,1.52,1.14,0.54,-0.81,0.65,23,6,28,0.97,13636,73,97,43,72,730,701.0,665,467,60,122.0,345,1,440,466,242,0,0,712,8958,-22796,701,-5.59,,,,,,,,,,,,
264903,1564153009602,1,2.5,1.01,0.38,1.52,1.14,0.57,-0.61,0.63,24,6,26,0.83,13656,73,98,43,71,728,701.0,656,455,60,124.0,345,1,440,466,242,0,0,4558,-2830,-3580,701,-5.59,,,,,,,,,,,,
264923,1564153009622,1,2.52,1.01,0.38,1.52,1.13,0.6,-0.74,0.76,23,4,24,0.95,13111,73,98,43,72,729,700.0,661,460,60,124.0,345,1,440,466,242,0,0,4558,-2830,-13580,700,-5.59,,,,,,,,,,,,
264943,1564153009642,-1,2.52,1.01,0.37,1.52,1.14,0.63,-0.66,0.63,23,1,25,0.92,12807,73,98,43,72,732,699.0,650,461,60,124.0,345,1,440,464,242,0,0,4558,-26380,204,699,-5.59,44.68108,10.025061,68.75,172.7,0,0.0,-1,0.0,0.0,0,1.57,4.4157
264963,1564153009662,-0,2.52,1.02,0.37,1.53,1.13,0.58,-0.75,0.51,23,2,24,0.95,12583,73,98,43,71,734,699.0,650,456,60,125.0,345,1,440,457,242,0,0,4558,-2830,-3450,699,-5.59,,,,,,,,,,,,
264983,1564153009682,4,2.51,1.01,0.38,1.52,1.14,0.66,-0.78,0.49,23,5,24,1.02,12351,73,98,43,72,736,697.0,652,456,60,125.0,310,1,440,461,217,0,0,29,-2830,-12152,697,-5.59,,,,,,,,,,,,
265003,1564153009702,1,2.52,1.01,0.38,1.52,1.14,0.77,-0.9,0.54,22,1,25,1.18,12609,73,97,43,72,737,698.0,648,462,60,123.0,310,1,440,464,217,0,0,686,31988,-23490,694,-5.59,,,,,,,,,,,,
265023,1564153009722,3,2.51,1.01,0.38,1.52,1.14,0.66,-0.81,0.47,22,3,28,1.04,12895,73,97,43,72,737,697.0,650,466,60,123.0,310,1,440,465,217,0,0,679,-3578,-13312,697,-5.59,,,,,,,,,,,,
265043,1564153009742,4,2.51,1.02,0.38,1.52,1.14,0.72,-0.87,0.56,23,7,27,1.13,13250,72,97,43,71,770,698.0,659,464,60,122.0,310,1,440,460,217,0,0,681,-2830,16118,700,-5.59,44.681065,10.025051,69.69,172.7,0,0.0,-1,0.0,0.0,0,1.58,4.4174
265063,1564153009762,4,2.51,1.01,0.38,1.52,1.13,0.77,-0.98,0.68,23,5,28,1.25,13469,72,97,43,71,841,701.0,655,467,60,123.0,310,1,440,460,217,0,0,685,1549,-3450,701,-5.59,,,,,,,,,,,,
265083,1564153009782,3,2.51,1.01,0.38,1.51,1.14,0.7,-0.97,0.55,24,5,27,1.2,13746,72,97,43,71,912,700.0,665,476,60,123.0,341,1,440,460,239,0,0,681,-10348,-13312,700,-5.59,,,,,,,,,,,,
265103,1564153009802,3,2.51,1.01,0.37,1.51,1.13,0.72,-0.94,0.45,24,2,28,1.18,13878,69,97,43,71,984,696.0,657,465,60,123.0,341,1,440,460,239,0,0,682,-2826,-13072,697,-5.59,,,,,,,,,,,,
265123,1564153009822,2,2.52,1.01,0.37,1.52,1.14,0.7,-0.9,0.28,25,2,28,1.14,13971,63,98,43,69,1035,694.0,666,465,60,123.0,341,1,440,446,239,0,0,688,-27404,16118,693,-5.59,,,,,,,,,,,,
265143,1564153009842,4,2.52,1.01,0.37,1.53,1.13,0.69,-0.77,0.23,25,3,30,1.03,13596,56,97,43,67,1041,693.0,664,460,60,123.0,341,1,440,433,239,0,0,721,-3038,-3344,693,-5.59,44.681046,10.02504,69.19,172.7,0,0.0,-1,0.0,0.0,0,1.58,4.4191
265163,1564153009862,4,2.51,1.01,0.37,1.52,1.13,0.82,-0.89,0.34,24,-1,27,1.21,13316,46,97,43,63,1031,695.0,659,472,60,123.0,341,1,440,408,239,0,0,745,-10344,-3344,695,-5.59,,,,,,,,,,,,
265183,1564153009882,6,2.51,1.01,0.38,1.52,1.13,0.7,-0.73,0.26,24,-3,28,1.01,12966,33,97,43,57,965,694.0,657,465,60,122.0,271,1,417,368,188,0,0,714,-26380,-3888,694,-5.59,,,,,,,,,,,,
265203,1564153009902,6,2.52,1.01,0.37,1.52,1.14,0.75,-0.86,0.33,23,-1,26,1.14,12789,27,97,43,51,899,682.0,658,461,60,122.0,271,1,391,305,188,0,0,677,-3488,6658,682,-5.59,,,,,,,,,,,,
265223,1564153009922,9,2.5,1.01,0.38,1.52,1.14,0.84,-0.77,0.32,23,1,27,1.14,12592,26,97,43,46,838,681.0,658,467,60,123.0,271,1,373,248,188,0,0,666,-3488,-13072,683,-5.59,,,,,,,,,,,,
265243,1564153009942,7,2.48,1.01,0.37,1.52,1.14,0.87,-0.53,0.31,23,2,30,1.02,12319,26,97,43,44,780,685.0,649,468,60,123.0,271,1,361,241,188,0,0,649,2024,16599,685,-5.59,44.68103,10.025028,68.72,172.8,0,0.0,-1,0.0,0.0,0,1.58,4.4207
265263,1564153009962,7,2.49,1.01,0.37,1.52,1.13,0.87,-0.3,0.31,23,4,31,0.92,12073,26,97,43,42,785,682.0,649,468,60,121.0,271,1,348,234,188,0,0,620,4909,16599,682,-5.59,,,,,,,,,,,,
265283,1564153009982,9,2.48,1.01,0.37,1.52,1.13,0.96,-0.2,0.33,22,7,31,0.98,11829,26,97,43,41,793,677.0,648,471,60,123.0,151,1,338,229,103,0,0,582,244,-10344,677,-5.59,,,,,,,,,,,,
265303,1564153009994,9,2.47,1.01,0.38,1.52,1.14,1.07,-0.38,0.43,21,8,30,1.13,11581,25,97,43,40,813,675.0,633,470,60,122.0,151,1,328,225,103,0,0,542,-3584,11576,675,-5.59,,,,,,,,,,,,
265323,1564153010014,10,2.48,1.01,0.37,1.52,1.13,0.99,-0.34,0.18,23,8,31,1.05,11329,25,97,43,40,832,673.0,633,467,60,122.0,151,1,327,225,103,0,0,517,244,12333,676,-5.59,,,,,,,,,,,,
265343,1564153010034,12,2.48,1.01,0.38,1.53,1.14,1.03,-0.5,0.36,23,8,28,1.15,11068,25,97,43,40,846,674.0,641,467,60,123.0,151,1,327,225,103,0,0,517,-10251,6208,674,-5.59,44.681019,10.025015,68.46,172.8,0,0.0,-1,0.0,0.0,0,1.58,4.4224
265363,1564153010054,9,2.48,1.02,0.38,1.52,1.14,1.06,-0.44,0.35,23,10,28,1.15,10901,25,97,43,40,860,670.0,627,466,60,123.0,151,1,327,224,103,0,0,501,-14655,24845,670,-5.59,,,,,,,,,,,,
265383,1564153010074,10,2.48,1.02,0.38,1.52,1.13,1.08,-0.3,0.12,23,8,29,1.12,10671,25,97,43,40,885,664.0,632,464,60,123.0,133,1,327,220,89,0,0,493,-1346,-26562,664,-5.59,,,,,,,,,,,,
265403,1564153010102,9,2.48,1.02,0.37,1.52,1.14,1.15,-0.17,0.04,23,2,31,1.17,10416,25,97,43,41,910,658.0,624,469,60,122.0,133,1,335,217,89,0,0,504,-18357,6208,658,-5.59,,,,,,,,,,,,
265423,1564153010122,12,2.47,1.01,0.38,1.53,1.13,1.14,-0.14,0.01,24,6,30,1.14,10251,25,97,43,41,923,659.0,621,466,60,123.0,133,1,335,221,89,0,0,515,19304,-26380,659,-5.59,,,,,,,,,,,,
265443,1564153010142,11,2.47,1.02,0.37,1.53,1.13,1.22,-0.3,0.1,23,3,29,1.26,10217,25,97,43,40,935,656.0,592,467,60,124.0,133,1,327,217,89,0,0,492,269,31988,654,-5.59,44.681004,10.025001,66.98,172.8,0,0.0,-1,0.0,0.0,0,1.58,4.424
265463,1564153010162,12,2.46,1.01,0.37,1.52,1.13,1.13,-0.47,0.29,23,2,30,1.22,10229,25,97,43,40,945,648.0,595,463,60,123.0,133,1,327,217,89,0,0,406,1010,-5120,648,-5.59,,,,,,,,,,,,
265483,1564153010182,9,2.45,1.01,0.38,1.52,1.14,0.98,-0.46,0.16,23,6,30,1.08,10201,25,97,43,40,954,644.0,558,467,60,123.0,130,1,327,217,84,0,0,362,16529,-3038,645,-5.59,,,,,,,,,,,,
265503,1564153010202,12,2.45,1.01,0.37,1.52,1.13,1.0,-0.39,0.0,22,5,31,1.07,10021,25,97,43,39,955,643.0,583,468,60,122.0,130,1,320,214,84,0,0,311,19621,-2830,643,-5.59,,,,,,,,,,,,
265523,1564153010222,12,2.45,1.01,0.38,1.51,1.14,0.93,-0.51,0.07,22,-0,33,1.06,9957,25,97,43,39,953,640.0,595,463,60,123.0,130,1,320,213,84,0,0,272,-23055,31988,640,-5.59,,,,,,,,,,,,
265543,1564153010242,12,2.45,1.02,0.37,1.52,1.13,0.9,-0.42,0.03,23,3,30,0.99,9720,25,97,43,39,945,639.0,605,471,60,124.0,130,1,320,212,84,0,0,262,-768,-3038,639,-5.59,44.680992,10.024985,65.47,172.9,0,0.0,-1,0.0,0.0,0,1.59,4.4257
265563,1564153010262,12,2.45,1.01,0.37,1.51,1.14,0.89,-0.45,0.0,23,0,30,1.0,9426,25,97,43,38,937,634.0,596,470,60,123.0,130,1,317,208,84,0,0,444,-32504,479,634,-5.59,,,,,,,,,,,,
265583,1564153010282,14,2.45,1.01,0.38,1.52,1.14,0.91,-0.6,0.07,23,2,28,1.09,9375,23,97,43,37,930,626.0,593,468,60,122.0,115,1,314,205,72,0,0,528,-1894,4909,626,-5.59,,,,,,,,,,,,
265603,1564153010302,16,2.44,1.01,0.37,1.53,1.13,0.92,-0.53,0.08,22,3,27,1.06,9422,23,97,43,36,923,624.0,591,459,60,122.0,115,1,311,128,72,0,0,541,-3190,-3584,625,-5.59,,,,,,,,,,,,
265623,1564153010322,14,2.43,1.01,0.37,1.52,1.14,0.95,-0.62,0.14,21,1,25,1.14,9566,23,97,43,35,907,619.0,575,456,60,124.0,115,1,308,202,72,0,0,513,15649,5344,620,-5.59,,,,,,,,,,,,
265643,1564153010342,15,2.43,1.01,0.37,1.52,1.13,1.02,-0.57,0.08,20,-0,26,1.17,9873,23,97,43,35,886,608.0,548,467,60,123.0,115,1,308,206,72,0,0,425,-25872,-768,608,-5.59,44.680981,10.024969,63.7,172.9,0,0.0,-1,0.0,0.0,0,1.59,4.4274
265663,1564153010362,15,2.42,1.01,0.37,1.51,1.13,1.04,-0.63,0.18,19,2,26,1.22,9899,23,97,43,34,869,606.0,510,466,60,123.0,115,1,305,204,72,0,0,363,1,3403,606,-5.59,,,,,,,,,,,,
265683,1564153010382,16,2.42,1.01,0.37,1.51,1.13,1.09,-0.53,0.22,18,-3,26,1.21,9816,23,97,43,33,855,602.0,493,466,60,122.0,124,1,302,203,75,0,0,327,-16384,-3446,601,-5.59,,,,,,,,,,,,
265703,1564153010401,14,2.42,1.0,0.37,1.51,1.13,1.15,-0.6,0.26,18,-3,25,1.29,9775,23,97,43,33,843,601.0,458,461,60,124.0,124,1,302,201,75,0,0,285,259,3403,601,-5.59,,,,,,,,,,,,
265723,1564153010421,15,2.41,1.0,0.38,1.5,1.13,1.2,-0.62,0.26,18,-2,24,1.35,9630,23,97,43,33,831,599.0,475,460,60,122.0,124,1,302,199,75,0,0,320,1760,269,599,-5.59,,,,,,,,,,,,
265743,1564153010441,16,2.41,1.0,0.37,1.51,1.13,1.17,-0.51,0.23,18,-1,23,1.27,9319,23,97,43,33,827,593.0,475,460,60,123.0,124,1,302,193,75,0,0,519,-29984,4956,594,-5.59,44.680969,10.024953,62.2,172.9,0,0.0,-1,0.0,0.0,0,1.59,4.429
265763,1564153010461,13,2.42,1.01,0.37,1.52,1.13,1.15,-0.54,0.14,18,-0,22,1.27,9286,23,97,43,33,830,588.0,526,467,60,124.0,124,1,302,193,75,0,0,577,6274,-3446,588,-5.59,,,,,,,,,,,,
265783,1564153010481,14,2.42,1.01,0.37,1.52,1.13,1.19,-0.65,0.12,16,-2,22,1.36,9291,23,97,43,33,832,581.0,557,469,60,123.0,114,1,302,193,67,0,0,562,2524,17344,581,-5.59,,,,,,,,,,,,
265803,1564153010501,17,2.41,1.01,0.37,1.52,1.13,1.21,-0.61,0.17,15,-4,22,1.35,9412,23,97,43,33,833,578.0,567,460,60,123.0,114,1,302,195,67,0,0,515,-22263,-8186,578,-5.59,,,,,,,,,,,,
265823,1564153010521,15,2.41,1.0,0.37,1.51,1.13,1.08,-0.52,0.17,14,-4,22,1.2,9669,23,97,43,33,833,572.0,582,466,60,123.0,114,1,302,200,67,0,0,472,2216,-30159,572,-5.59,,,,,,,,,,,,
265843,1564153010541,14,2.41,0.99,0.37,1.5,1.12,1.18,-0.51,0.09,14,-1,21,1.28,9765,23,97,43,33,832,564.0,593,468,60,123.0,114,1,302,200,67,0,0,445,2104,-28648,564,-5.59,44.680962,10.024936,59.84,172.9,0,0.0,-1,0.0,0.0,0,1.59,4.4307
265863,1564153010561,12,2.41,0.99,0.36,1.5,1.12,1.16,-0.48,0.14,14,-2,21,1.26,9755,23,97,43,33,833,566.0,601,458,60,123.0,114,1,302,201,67,0,0,431,-8962,-8186,566,-5.59,,,,,,,,,,,,
265883,1564153010581,14,2.41,0.98,0.37,1.5,1.12,1.24,-0.59,0.16,13,-1,21,1.37,9745,23,97,43,33,836,558.0,603,467,60,124.0,130,1,302,200,73,0,0,420,1780,-3210,558,-5.59,,,,,,,,,,,,
265903,1564153010601,9,2.41,0.98,0.37,1.49,1.12,1.18,-0.54,0.19,13,1,19,1.3,9659,23,97,43,33,840,560.0,601,462,60,124.0,130,1,302,200,73,0,0,426,-30064,-2934,557,-5.59,,,,,,,,,,,,
265923,1564153010621,11,2.42,0.98,0.37,1.5,1.12,1.17,-0.62,0.12,13,0,20,1.32,9650,23,97,43,33,845,552.0,606,466,60,124.0,130,1,302,200,73,0,0,454,2104,1267,552,-5.59,,,,,,,,,,,,
265943,1564153010641,12,2.41,0.99,0.37,1.49,1.13,1.09,-0.48,0.12,14,0,20,1.19,9664,23,97,43,33,851,549.0,609,475,60,124.0,130,1,302,200,73,0,0,517,-28648,2216,549,-5.59,44.68095,10.02492,57.59,172.9,0,0.0,-1,0.0,0.0,0,1.59,4.4324
265963,1564153010661,13,2.4,0.99,0.37,1.51,1.13,1.16,-0.52,0.07,14,1,18,1.27,9659,23,97,43,33,858,544.0,615,454,60,123.0,130,1,302,200,73,0,0,529,-22519,2524,544,-5.59,,,,,,,,,,,,
265983,1564153010681,13,2.4,0.99,0.37,1.5,1.12,1.24,-0.48,0.03,13,-2,18,1.33,9595,23,97,43,33,863,541.0,623,464,60,123.0,133,1,302,198,72,0,0,523,-8187,6273,539,-5.59,,,,,,,,,,,,
266003,1564153010701,12,2.41,0.99,0.37,1.51,1.12,1.18,-0.54,0.08,13,-0,18,1.3,9620,23,97,43,33,865,539.0,630,466,60,124.0,133,1,302,199,72,0,0,519,-14,-506,538,-5.59,,,,,,,,,,,,
266023,1564153010721,14,2.41,0.98,0.37,1.5,1.13,1.26,-0.49,-0.06,12,-2,19,1.35,9689,23,97,43,33,865,531.0,627,471,60,124.0,133,1,302,200,72,0,0,504,-14,-9072,531,-5.59,,,,,,,,,,,,
266043,1564153010741,12,2.4,0.99,0.37,1.49,1.12,1.1,-0.55,0.06,12,-0,17,1.23,9811,23,97,43,32,865,527.0,621,461,60,123.0,133,1,300,200,72,0,0,496,-4054,-22519,527,-5.59,44.680946,10.024903,55.43,173.0,0,0.0,-1,0.0,0.0,0,1.59,4.4341
266063,1564153010761,13,2.4,0.98,0.36,1.5,1.12,1.19,-0.46,-0.04,12,-1,18,1.28,9765,23,97,43,33,864,521.0,621,465,60,123.0,133,1,302,201,72,0,0,503,-3414,6274,521,-5.59,,,,,,,,,,,,
266083,1564153010781,11,2.39,0.98,0.36,1.49,1.12,1.07,-0.49,0.11,12,-2,17,1.18,9755,23,97,43,32,863,520.0,622,457,60,123.0,143,1,300,200,74,0,0,492,15661,2524,520,-5.59,,,,,,,,,,,,
266103,1564153010801,14,2.39,0.98,0.36,1.49,1.12,1.13,-0.45,0.01,12,-2,17,1.21,9770,23,97,43,32,862,514.0,619,470,60,123.0,143,1,300,200,74,0,0,497,998,10408,514,-5.59,,,,,,,,,,,,
266123,1564153010821,11,2.4,0.98,0.36,1.49,1.12,1.09,-0.46,0.13,12,1,16,1.18,9770,23,97,43,33,864,511.0,617,461,60,123.0,143,1,302,201,74,0,0,505,998,2524,511,-5.59,,,,,,,,,,,,
266143,1564153010841,13,2.38,0.97,0.36,1.49,1.11,1.18,-0.45,0.1,11,-1,16,1.26,9745,23,97,43,33,866,507.0,618,467,60,124.0,143,1,302,199,74,0,0,495,-6528,-8187,506,-5.59,44.680939,10.024887,53.28,173.0,0,0.0,-1,0.0,0.0,0,1.6,4.4357
266163,1564153010861,12,2.38,0.96,0.36,1.48,1.11,1.08,-0.46,0.21,11,1,15,1.17,9654,23,97,43,33,869,505.0,623,459,60,124.0,143,1,302,200,74,0,0,494,248,26178,503,-5.59,,,,,,,,,,,,
266183,1564153010881,13,2.38,0.95,0.35,1.47,1.11,1.15,-0.5,0.09,11,1,15,1.26,9630,23,97,43,33,872,499.0,628,465,60,124.0,145,1,302,199,73,0,0,496,-1818,1341,501,-5.59,,,,,,,,,,,,
266203,1564153010901,12,2.39,0.94,0.35,1.46,1.1,1.01,-0.36,0.16,11,1,15,1.07,9650,23,97,43,33,873,496.0,623,462,60,124.0,145,1,302,200,73,0,0,490,-6441,-3856,495,-5.59,,,,,,,,,,,,
266223,1564153010921,11,2.38,0.92,0.35,1.45,1.1,1.08,-0.44,0.12,10,1,13,1.16,9630,23,97,43,33,875,492.0,627,470,60,124.0,145,1,302,199,73,0,0,491,-23367,-28648,492,-5.59,,,,,,,,,,,,
266243,1564153010941,14,2.39,0.92,0.35,1.44,1.1,1.16,-0.33,0.12,10,-2,14,1.21,9551,23,97,43,33,873,487.0,624,470,60,124.0,145,1,302,198,73,0,0,483,-23367,-9216,487,-5.59,44.680931,10.024871,51.46,173.1,0,0.0,-1,0.0,0.0,0,1.6,4.4374
266263,1564153010961,11,2.39,0.92,0.34,1.45,1.1,1.1,-0.31,0.17,9,-0,13,1.15,9527,23,97,43,33,871,486.0,624,463,60,123.0,145,1,302,197,73,0,0,483,-23367,-9216,486,-5.59,,,,,,,,,,,,
266283,1564153010981,13,2.38,0.92,0.35,1.46,1.1,1.07,-0.38,0.13,9,-1,13,1.13,9508,23,97,43,33,871,484.0,616,468,60,124.0,146,1,302,197,71,0,0,483,32033,2524,484,-5.59,,,,,,,,,,,,
266303,1564153010993,14,2.39,0.91,0.35,1.45,1.1,1.06,-0.28,0.23,9,-0,12,1.1,9407,23,97,43,33,870,478.0,612,461,60,123.0,146,1,302,194,71,0,0,487,-16384,-9216,478,-5.59,,,,,,,,,,,,
266323,1564153011013,14,2.38,0.92,0.35,1.45,1.1,1.16,-0.2,0.33,9,-1,12,1.17,9263,23,97,43,33,871,478.0,601,456,60,122.0,146,1,302,193,71,0,0,490,243,3,477,-5.59,,,,,,,,,,,,
266343,1564153011033,14,2.38,0.9,0.35,1.44,1.09,1.12,-0.1,0.26,8,-1,12,1.13,9101,23,97,43,33,873,473.0,592,466,60,124.0,146,1,302,190,71,0,0,490,16408,2524,474,-5.59,44.680923,10.024857,49.5,173.1,0,0.0,-1,0.0,0.0,0,1.6,4.4391
266363,1564153011053,14,2.38,0.89,0.34,1.43,1.1,1.08,-0.08,0.24,8,-2,11,1.09,8984,23,97,43,33,874,473.0,593,469,60,123.0,146,1,302,188,71,0,0,488,-23623,1,473,-5.59,,,,,,,,,,,,
266383,1564153011073,14,2.38,0.89,0.34,1.43,1.09,1.11,0.03,0.3,8,-3,11,1.11,8869,23,97,43,34,874,465.0,595,463,60,123.0,136,1,305,192,64,0,0,474,17628,-899,465,-5.59,,,,,,,,,,,,
266403,1564153011103,15,2.38,0.89,0.34,1.43,1.09,1.2,0.0,0.4,7,-4,10,1.2,8802,23,97,43,35,874,464.0,595,462,60,123.0,136,1,308,195,64,0,0,472,-18108,-23367,464,-5.59,,,,,,,,,,,,
266423,1564153011123,13,2.38,0.89,0.34,1.43,1.1,1.28,-0.07,0.54,7,-4,7,1.28,8806,23,97,43,35,873,464.0,592,462,60,122.0,136,1,308,195,64,0,0,469,-8985,-17956,464,-5.59,,,,,,,,,,,,
266443,1564153011143,13,2.38,0.9,0.34,1.44,1.09,1.3,-0.16,0.51,7,-3,8,1.31,8790,23,97,43,35,876,459.0,591,462,60,123.0,136,1,308,195,64,0,0,465,-6387,-17956,461,-5.59,44.68092,10.024841,48.02,173.1,0,0.0,-1,0.0,0.0,0,1.6,4.4407
266463,1564153011163,14,2.37,0.89,0.34,1.43,1.09,1.2,-0.19,0.38,7,-2,8,1.22,8729,23,97,43,36,881,457.0,589,466,60,124.0,136,1,311,199,64,0,0,461,10305,10432,457,-5.59,,,,,,,,,,,,
266483,1564153011183,17,2.37,0.88,0.34,1.42,1.08,1.04,-0.14,0.32,7,-2,8,1.05,8688,23,97,43,36,885,453.0,585,465,60,124.0,143,1,311,199,65,0,0,463,21580,-3210,453,-5.59,,,,,,,,,,,,
266503,1564153011203,15,2.37,0.88,0.34,1.42,1.09,1.09,-0.08,0.36,7,-3,8,1.09,8632,22,97,43,36,890,448.0,576,462,60,123.0,143,1,311,199,65,0,0,459,23400,12552,448,-5.59,,,,,,,,,,,,
266523,1564153011223,13,2.38,0.87,0.33,1.41,1.08,1.15,-0.13,0.4,6,-3,7,1.16,8573,22,97,43,36,909,447.0,570,465,60,123.0,143,1,311,199,65,0,0,455,-28332,6193,447,-5.59,,,,,,,,,,,,
266543,1564153011243,17,2.37,0.88,0.33,1.42,1.08,1.07,-0.1,0.32,6,-2,8,1.07,8546,22,97,43,37,932,444.0,567,466,60,124.0,143,1,313,201,65,0,0,455,19477,-9160,444,-5.59,44.680916,10.024826,46.99,173.2,0,0.0,-1,0.0,0.0,0,1.6,4.4424
266563,1564153011263,14,2.37,0.88,0.34,1.41,1.09,1.13,-0.05,0.31,6,-3,7,1.13,8480,22,97,43,37,953,440.0,566,465,60,125.0,143,1,313,200,65,0,0,452,5600,14488,440,-5.59,,,,,,,,,,,,
266583,1564153011283,16,2.37,0.88,0.34,1.42,1.09,1.16,-0.07,0.32,6,-1,7,1.16,8419,22,97,43,37,971,440.0,578,463,60,123.0,145,1,312,200,64,0,0,446,1779,2524,438,-5.59,,,,,,,,,,,,
266603,1564153011303,18,2.37,0.87,0.33,1.42,1.09,1.09,-0.05,0.2,6,-2,8,1.09,8337,22,97,43,38,985,432.0,566,461,60,124.0,145,1,313,203,64,0,0,446,13552,3571,432,-5.59,,,,,,,,,,,,
266623,1564153011323,14,2.37,0.88,0.34,1.41,1.09,1.18,-0.07,0.25,6,-2,7,1.18,8281,22,97,43,38,996,431.0,580,464,60,124.0,145,1,312,202,64,0,0,442,-3414,-18341,431,-5.59,,,,,,,,,,,,
266643,1564153011343,17,2.37,0.88,0.33,1.42,1.08,1.08,-0.03,0.22,6,-2,7,1.08,8259,22,97,43,38,999,430.0,566,466,60,124.0,145,1,312,202,64,0,0,436,-21792,-18341,428,-5.59,44.680908,10.024812,44.97,173.2,0,0.0,-1,0.0,0.0,0,1.6,4.444
266663,1564153011363,15,2.37,0.88,0.33,1.42,1.08,1.14,0.0,0.23,6,-2,8,1.14,8184,22,97,43,39,992,426.0,559,463,60,124.0,145,1,313,207,64,0,0,434,-8165,20625,426,-5.59,,,,,,,,,,,,
266683,1564153011383,17,2.37,0.88,0.33,1.42,1.08,1.09,0.02,0.26,6,-2,7,1.09,8085,22,97,43,39,983,424.0,555,464,60,124.0,148,1,311,207,63,0,0,438,18584,-7939,424,-5.59,,,,,,,,,,,,
266703,1564153011402,18,2.38,0.87,0.33,1.42,1.09,1.03,0.06,0.19,6,-1,7,1.03,8071,22,97,43,40,969,418.0,543,466,60,123.0,148,1,317,207,63,0,0,430,-9166,-3314,418,-5.59,,,,,,,,,,,,
266723,1564153011422,15,2.37,0.87,0.33,1.42,1.09,1.09,0.07,0.19,7,-1,7,1.09,8023,22,97,43,40,958,417.0,539,463,60,125.0,148,1,317,209,63,0,0,426,9517,243,416,-5.59,,,,,,,,,,,,
266743,1564153011442,17,2.38,0.88,0.33,1.42,1.08,1.06,0.03,0.28,7,-0,7,1.06,7944,22,97,43,41,951,414.0,535,463,60,124.0,148,1,325,208,63,0,0,424,2524,31796,414,-5.59,44.680904,10.024797,43.95,173.2,0,0.0,-1,0.0,0.0,0,1.6,4.4457
266763,1564153011462,17,2.4,0.87,0.33,1.42,1.08,0.97,0.04,0.27,7,0,7,0.97,7901,22,97,43,42,942,411.0,531,468,60,123.0,148,1,332,208,63,0,0,420,6512,-4082,411,-5.59,,,,,,,,,,,,
266783,1564153011482,13,2.39,0.88,0.34,1.43,1.09,0.93,0.0,0.28,7,2,6,0.93,7878,22,97,43,42,932,407.0,526,466,60,122.0,154,1,332,210,63,0,0,419,28696,-3414,407,-5.59,,,,,,,,,,,,
266803,1564153011502,13,2.4,0.89,0.34,1.44,1.09,0.99,-0.06,0.38,7,3,7,1.0,7796,22,97,43,42,925,406.0,529,464,60,124.0,154,1,332,210,63,0,0,415,6384,7154,406,-5.59,,,,,,,,,,,,
266823,1564153011522,15,2.39,0.89,0.34,1.44,1.08,1.1,-0.1,0.41,7,1,7,1.1,7763,22,97,44,43,922,404.0,529,465,60,124.0,154,1,340,211,63,0,0,416,-3968,7154,404,-5.59,,,,,,,,,,,,
266843,1564153011542,16,2.39,0.89,0.34,1.43,1.09,1.11,-0.1,0.45,6,-1,6,1.11,7681,22,97,44,43,917,402.0,523,464,60,123.0,154,1,340,211,63,0,0,410,-6656,-9166,400,-5.59,44.680904,10.024784,42.03,173.3,0,0.0,-1,0.0,0.0,0,1.6,4.4474
266863,1564153011562,16,2.39,0.89,0.34,1.43,1.09,1.12,-0.03,0.38,6,-2,7,1.12,7668,22,97,44,44,906,398.0,525,461,60,124.0,154,1,347,211,63,0,0,409,-1562,-21944,395,-5.59,,,,,,,,,,,,
266883,1564153011582,16,2.4,0.88,0.33,1.43,1.09,1.0,0.02,0.26,6,-1,7,1.0,7594,22,97,44,44,895,395.0,520,463,60,124.0,154,1,347,212,61,0,0,404,-6475,11560,392,-5.59,,,,,,,,,,,,
266903,1564153011602,18,2.39,0.88,0.33,1.44,1.08,0.86,0.09,0.18,7,-2,7,0.86,7536,22,97,44,45,885,392.0,519,465,60,123.0,154,1,355,215,61,0,0,401,-992,-26615,391,-5.59,,,,,,,,,,,,
266923,1564153011622,17,2.38,0.88,0.33,1.43,1.08,0.7,0.01,0.09,6,-2,6,0.7,7518,22,97,44,45,876,388.0,511,466,60,123.0,154,1,355,213,61,0,0,398,8200,-8151,388,-5.59,,,,,,,,,,,,
266943,1564153011642,14,2.4,0.89,0.34,1.43,1.09,0.62,0.07,0.01,6,-2,7,0.63,7458,22,97,44,45,868,386.0,514,462,60,124.0,154,1,355,213,61,0,0,395,-6656,28696,386,-5.59,44.680897,10.024771,40.7,173.3,0,0.0,-1,0.0,0.0,0,1.61,4.449
266963,1564153011662,16,2.39,0.89,0.34,1.44,1.09,0.51,0.11,-0.05,7,-3,7,0.53,7376,22,97,44,46,859,384.0,507,464,60,123.0,154,1,362,213,61,0,0,392,3,6384,382,-5.59,,,,,,,,,,,,
266983,1564153011682,15,2.39,0.88,0.33,1.44,1.09,0.49,0.11,0.0,7,-4,6,0.5,7350,22,97,44,46,860,379.0,506,466,60,123.0,155,1,362,215,59,0,0,393,742,17144,380,-5.59,,,,,,,,,,,,
267003,1564153011702,14,2.4,0.88,0.34,1.43,1.09,0.64,0.06,0.13,6,-6,5,0.64,7267,22,97,44,46,862,379.0,498,462,60,123.0,155,1,362,215,59,0,0,389,257,-1818,379,-5.59,,,,,,,,,,,,
267023,1564153011722,14,2.4,0.88,0.33,1.42,1.09,0.75,0.02,0.24,6,-6,6,0.75,7247,22,97,44,47,873,377.0,499,463,60,124.0,155,1,370,217,59,0,0,388,-6656,-31744,377,-5.59,,,,,,,,,,,,
267043,1564153011742,18,2.39,0.87,0.33,1.43,1.08,0.76,-0.05,0.27,6,-3,7,0.76,7183,22,97,44,47,884,373.0,498,461,60,123.0,155,1,370,222,59,0,0,382,-1268,-3866,373,-5.59,44.680893,10.024757,39.52,173.4,0,0.0,-1,0.0,0.0,0,1.61,4.4507
267063,1564153011762,17,2.4,0.88,0.33,1.43,1.08,0.73,-0.0,0.19,7,-1,7,0.73,7148,22,97,44,48,895,370.0,491,463,60,122.0,155,1,372,222,59,0,0,377,2790,-18948,370,-5.59,,,,,,,,,,,,
267083,1564153011782,14,2.4,0.88,0.33,1.43,1.08,0.68,-0.03,0.23,7,-3,6,0.68,7094,22,97,44,49,905,367.0,495,463,60,123.0,160,1,375,222,59,0,0,378,-6640,-18948,367,-5.59,,,,,,,,,,,,
267103,1564153011802,18,2.41,0.89,0.34,1.44,1.08,0.81,-0.03,0.33,7,-4,6,0.81,7014,22,97,44,49,927,365.0,494,463,60,124.0,160,1,375,227,59,0,0,374,-29978,770,366,-5.59,,,,,,,,,,,,
267123,1564153011822,16,2.41,0.89,0.33,1.44,1.08,0.8,0.02,0.26,7,-2,6,0.8,6980,22,97,44,49,949,363.0,490,466,60,123.0,160,1,374,226,59,0,0,371,3302,-6656,363,-5.59,,,,,,,,,,,,
267143,1564153011842,15,2.42,0.89,0.33,1.44,1.09,0.82,-0.0,0.29,7,-2,6,0.82,6954,22,97,44,50,961,357.0,485,463,60,123.0,160,1,377,231,59,0,0,369,3183,257,357,-5.59,44.680889,10.024745,38.16,173.4,0,0.0,-1,0.0,0.0,0,1.61,4.4524
267163,1564153011862,18,2.42,0.88,0.34,1.43,1.08,0.9,-0.05,0.32,7,-3,8,0.9,6885,22,97,44,50,973,357.0,485,462,60,125.0,160,1,377,231,59,0,0,370,-1246,257,357,-5.59,,,,,,,,,,,,
267183,1564153011882,15,2.43,0.89,0.33,1.44,1.08,0.9,0.0,0.24,7,1,8,0.9,6850,22,97,44,51,988,357.0,477,466,60,122.0,168,1,380,231,60,0,0,365,6870,0,354,-5.59,,,,,,,,,,,,
267203,1564153011902,16,2.44,0.89,0.34,1.45,1.09,0.91,-0.06,0.34,7,-2,8,0.91,6833,22,97,44,51,1003,352.0,474,465,60,125.0,168,1,379,235,60,0,0,362,-31206,230,352,-5.59,,,,,,,,,,,,
267223,1564153011922,14,2.43,0.88,0.34,1.44,1.08,0.89,-0.08,0.23,8,-0,7,0.89,6742,22,97,44,52,1010,351.0,467,467,60,123.0,168,1,382,235,60,0,0,361,2560,-1268,351,-5.59,,,,,,,,,,,,
267243,1564153011942,17,2.43,0.89,0.34,1.45,1.09,0.92,-0.13,0.27,8,-1,8,0.93,6696,22,97,44,52,1015,348.0,468,460,60,125.0,168,1,381,240,60,0,0,358,3346,-14707,348,-5.59,44.680885,10.024733,36.58,173.5,0,0.0,-1,0.0,0.0,0,1.61,4.4541
267263,1564153011962,14,2.45,0.89,0.34,1.44,1.09,0.95,-0.08,0.23,8,1,8,0.96,6639,22,97,44,53,1019,347.0,460,468,60,122.0,168,1,384,245,60,0,0,351,-6528,-29302,347,-5.59,,,,,,,,,,,,
267283,1564153011982,16,2.44,0.89,0.34,1.45,1.08,0.97,-0.14,0.24,8,-2,9,0.98,6599,22,97,44,53,1026,345.0,459,460,60,125.0,176,1,383,245,61,0,0,350,-12032,-6640,345,-5.59,,,,,,,,,,,,
267303,1564153011994,16,2.45,0.9,0.34,1.44,1.09,0.88,-0.11,0.27,8,-2,9,0.88,6533,22,97,44,53,1028,341.0,455,464,60,124.0,176,1,383,245,61,0,0,350,-20736,2060,341,-5.59,,,,,,,,,,,,
267323,1564153012014,13,2.45,0.89,0.34,1.45,1.08,0.99,-0.1,0.24,9,-1,9,1.0,6458,22,97,44,54,1029,338.0,451,463,60,122.0,176,1,386,251,61,0,0,344,165,2811,338,-5.59,,,,,,,,,,,,
267343,1564153012034,16,2.46,0.89,0.34,1.44,1.09,0.95,-0.11,0.25,9,-2,10,0.95,6438,22,97,44,54,1032,338.0,451,465,60,124.0,176,1,386,251,61,0,0,341,-23296,2811,338,-5.59,44.680885,10.024721,35.54,173.5,0,0.0,-1,0.0,0.0,0,1.61,4.4557
267363,1564153012054,18,2.45,0.9,0.34,1.45,1.09,0.86,-0.17,0.37,9,-1,10,0.88,6416,22,97,44,55,1034,335.0,444,461,60,124.0,176,1,387,251,61,0,0,341,-27136,-30438,335,-5.59,,,,,,,,,,,,
267383,1564153012074,15,2.46,0.9,0.34,1.44,1.09,0.84,-0.13,0.32,9,2,10,0.85,6399,22,97,44,55,1035,333.0,442,468,60,123.0,182,1,387,251,61,0,0,336,-27136,-14714,333,-5.59,,,,,,,,,,,,
267403,1564153012102,14,2.45,0.9,0.34,1.46,1.09,0.96,-0.12,0.2,10,1,10,0.96,6343,22,97,44,56,1036,331.0,442,465,60,124.0,182,1,388,252,61,0,0,334,135,6870,331,-5.59,,,,,,,,,,,,
267423,1564153012122,13,2.46,0.9,0.34,1.45,1.09,0.99,-0.12,0.19,10,-2,12,0.99,6330,22,97,44,56,1040,327.0,440,462,60,124.0,182,1,387,251,61,0,0,333,125,-31222,327,-5.59,,,,,,,,,,,,
267443,1564153012142,14,2.46,0.9,0.35,1.45,1.1,0.94,-0.18,0.23,9,-3,13,0.96,6285,22,97,44,56,1044,323.0,438,460,60,126.0,182,1,387,251,61,0,0,330,32000,-31222,323,-5.59,44.680885,10.024709,34.06,173.5,0,0.0,-1,0.0,0.0,0,1.61,4.4574
267463,1564153012162,16,2.45,0.91,0.34,1.46,1.1,0.85,-0.24,0.3,9,-3,12,0.88,6227,22,97,44,57,1046,323.0,430,461,60,125.0,182,1,387,251,61,0,0,329,32000,-32559,323,-5.59,,,,,,,,,,,,
267483,1564153012182,16,2.46,0.91,0.34,1.46,1.09,0.79,-0.22,0.32,9,-1,11,0.82,6159,22,97,44,57,1048,322.0,426,462,60,125.0,180,1,385,250,58,0,0,329,120,-31222,322,-5.59,,,,,,,,,,,,
267503,1564153012202,14,2.46,0.9,0.34,1.45,1.1,0.8,-0.19,0.28,10,0,11,0.82,6123,22,97,44,57,1054,320.0,421,464,60,124.0,180,1,384,179,58,0,0,325,110,175,320,-5.59,,,,,,,,,,,,
267523,1564153012222,15,2.46,0.91,0.34,1.46,1.09,0.86,-0.11,0.23,10,2,11,0.86,6103,22,97,44,58,1061,317.0,421,463,60,123.0,180,1,384,249,58,0,0,321,28160,-32559,320,-5.59,,,,,,,,,,,,
267543,1564153012242,14,2.46,0.91,0.34,1.45,1.09,0.86,-0.07,0.12,11,3,11,0.86,6040,22,97,44,58,1067,317.0,418,463,60,124.0,180,1,383,247,58,0,0,322,28160,-20736,317,-5.59,44.680882,10.024697,32.97,173.5,0,0.0,-1,0.0,0.0,0,1.61,4.4591
267563,1564153012262,13,2.48,0.9,0.34,1.45,1.09,0.82,-0.03,0.05,12,4,11,0.82,6015,22,97,44,58,1072,317.0,417,462,60,122.0,180,1,383,247,58,0,0,320,26880,-22016,316,-5.59,,,,,,,,,,,,
267583,1564153012282,13,2.48,0.9,0.33,1.46,1.09,0.84,-0.04,-0.0,12,7,11,0.84,5988,22,97,44,58,1077,314.0,414,461,60,123.0,178,1,381,246,56,0,0,317,24320,-22016,314,-5.59,,,,,,,,,,,,
267603,1564153012302,11,2.5,0.91,0.34,1.46,1.09,0.9,-0.04,-0.08,13,6,12,0.9,5969,22,97,44,59,1083,312.0,412,465,60,122.0,178,1,379,244,56,0,0,318,24320,-24576,312,-5.59,,,,,,,,,,,,
267623,1564153012322,10,2.5,0.93,0.35,1.46,1.1,0.9,-0.02,-0.11,13,9,12,0.9,5926,22,97,44,59,1087,315.0,411,465,60,123.0,178,1,374,245,56,0,0,317,95,-24576,315,-5.59,,,,,,,,,,,,
267643,1564153012342,11,2.51,0.93,0.35,1.47,1.1,0.91,0.03,-0.14,14,9,12,0.91,5916,22,97,44,60,1088,313.0,407,465,60,125.0,178,1,372,244,56,0,0,314,24320,150,313,-5.59,44.680882,10.024687,31.72,173.5,0,0.0,-1,0.0,0.0,0,1.61,4.4607
267663,1564153012362,10,2.53,0.94,0.35,1.47,1.1,0.87,0.03,-0.07,14,9,13,0.87,5914,22,97,44,60,1087,310.0,403,467,60,124.0,178,1,372,244,56,0,0,313,0,145,310,-5.59,,,,,,,,,,,,
267683,1564153012382,12,2.53,0.95,0.35,1.47,1.1,0.78,0.02,0.01,14,8,13,0.78,5927,22,97,44,60,1087,308.0,403,464,60,123.0,174,1,374,244,54,0,0,306,80,150,308,-5.59,,,,,,,,,,,,
267703,1564153012401,9,2.54,0.96,0.35,1.48,1.11,0.68,-0.05,0.1,14,7,13,0.68,5918,22,97,44,61,1085,309.0,408,462,60,124.0,174,1,372,244,54,0,0,309,0,155,309,-5.59,,,,,,,,,,,,
267723,1564153012421,10,2.55,0.97,0.35,1.5,1.11,0.59,-0.14,0.19,14,6,13,0.61,5903,22,97,44,61,1084,306.0,405,466,60,124.0,174,1,370,243,54,0,0,308,0,-25856,306,-5.59,,,,,,,,,,,,
267743,1564153012441,9,2.53,0.97,0.35,1.5,1.11,0.52,-0.23,0.19,14,4,14,0.57,5855,22,97,44,61,1082,308.0,405,461,60,124.0,174,1,365,244,54,0,0,313,10686,140,308,-5.59,44.680878,10.024676,30.82,173.5,0,0.0,-1,0.0,0.0,0,1.61,4.4624
267763,1564153012461,9,2.55,0.98,0.36,1.51,1.12,0.56,-0.24,0.15,14,1,15,0.6,5815,22,97,44,61,1078,307.0,400,463,60,125.0,174,1,360,245,54,0,0,310,-16896,-28416,306,-5.59,,,,,,,,,,,,
267783,1564153012481,10,2.55,0.99,0.36,1.5,1.12,0.7,-0.21,0.17,14,-1,15,0.73,5769,22,97,44,62,1075,307.0,401,461,60,123.0,179,1,353,253,55,0,0,306,41,135,307,-5.59,,,,,,,,,,,,
267803,1564153012501,12,2.55,0.99,0.36,1.5,1.12,0.82,-0.22,0.15,15,-0,17,0.84,5760,22,97,44,62,1073,306.0,400,461,60,123.0,179,1,352,261,55,0,0,302,1886,-30976,306,-5.59,,,,,,,,,,,,
267823,1564153012521,11,2.56,0.97,0.36,1.49,1.11,0.84,-0.19,0.16,16,1,17,0.86,5723,22,97,44,63,1072,303.0,399,463,60,123.0,179,1,346,262,55,0,0,295,24064,-30976,301,-5.59,,,,,,,,,,,,
267843,1564153012541,10,2.56,0.97,0.36,1.5,1.12,0.73,-0.26,0.23,16,3,17,0.78,5683,22,97,44,64,1069,301.0,395,464,60,122.0,179,1,340,263,55,0,0,299,630,130,301,-5.59,44.680878,10.024666,30.53,173.5,0,0.0,-1,0.0,0.0,0,1.61,4.464
267863,1564153012561,8,2.56,0.98,0.36,1.5,1.12,0.67,-0.29,0.21,16,1,19,0.73,5649,22,97,44,64,1066,301.0,396,460,60,125.0,179,1,336,271,55,0,0,305,630,-32256,301,-5.59,,,,,,,,,,,,
267883,1564153012581,8,2.57,0.98,0.36,1.5,1.11,0.78,-0.31,0.2,16,-0,20,0.84,5622,22,97,44,65,1066,301.0,398,463,60,123.0,189,1,332,279,57,0,0,294,250,125,302,-5.59,,,,,,,,,,,,
267903,1564153012601,10,2.59,0.98,0.36,1.5,1.11,0.85,-0.3,0.23,17,1,20,0.9,5572,22,97,44,65,1066,299.0,390,462,60,122.0,189,1,328,279,57,0,0,293,-1527,30720,299,-5.59,,,,,,,,,,,,
267923,1564153012621,7,2.59,0.98,0.36,1.51,1.12,0.76,-0.33,0.36,17,3,20,0.83,5568,22,97,44,66,1065,299.0,384,461,60,122.0,189,1,325,288,57,0,0,294,-1527,115,299,181.28,,,,,,,,,,,,
267943,1564153012641,7,2.6,0.98,0.36,1.5,1.12,0.72,-0.33,0.34,18,3,21,0.79,5575,22,97,44,66,1064,299.0,385,462,60,123.0,189,1,326,288,57,0,0,289,250,115,299,-5.59,44.680878,10.024654,29.9,173.6,0,0.0,-1,0.0,0.0,0,1.62,4.4657
267963,1564153012661,10,2.62,0.99,0.37,1.51,1.12,0.83,-0.33,0.35,18,1,22,0.9,5562,22,97,44,67,1065,297.0,385,465,60,122.0,189,1,323,295,57,0,0,284,-1,30720,297,-5.59,,,,,,,,,,,,
267983,1564153012681,9,2.63,0.99,0.36,1.51,1.12,0.85,-0.39,0.4,19,2,21,0.93,5513,22,97,44,67,1067,296.0,382,463,60,123.0,209,1,319,295,62,0,0,283,-1,105,296,-5.59,,,,,,,,,,,,
268003,1564153012701,7,2.64,0.99,0.36,1.51,1.13,0.83,-0.38,0.38,20,1,22,0.91,5479,22,97,44,67,1060,297.0,382,462,60,123.0,209,1,316,296,62,0,0,281,-1,105,297,181.28,,,,,,,,,,,,
268023,1564153012721,8,2.65,0.99,0.36,1.51,1.13,0.89,-0.39,0.36,21,0,23,0.97,5409,22,97,44,68,1054,295.0,377,465,60,123.0,209,1,308,304,62,0,0,281,-1,26880,295,-5.59,,,,,,,,,,,,
268043,1564153012741,8,2.65,1.0,0.36,1.52,1.12,0.81,-0.5,0.35,21,1,23,0.95,5392,22,97,44,68,1048,294.0,374,465,60,123.0,209,1,306,305,62,0,0,279,-1,115,294,-5.59,44.680878,10.024645,29.23,173.6,0,0.0,-1,0.0,0.0,0,1.62,4.4674
268063,1564153012761,9,2.67,1.01,0.36,1.52,1.12,0.9,-0.49,0.28,21,0,25,1.03,5357,22,97,44,69,1042,294.0,371,462,60,123.0,209,1,303,312,62,0,0,280,-10440,29440,294,-5.59,,,,,,,,,,,,
268083,1564153012781,7,2.67,1.01,0.36,1.53,1.12,0.85,-0.54,0.31,22,2,25,1.0,5302,22,97,44,70,1028,293.0,367,464,60,123.0,218,1,299,312,64,0,0,272,-41,100,293,-5.59,,,,,,,,,,,,
268103,1564153012801,8,2.68,1.01,0.36,1.52,1.12,0.92,-0.52,0.26,23,0,27,1.05,5292,22,97,44,70,1013,292.0,372,462,60,124.0,218,1,298,321,64,0,0,272,-41,95,292,-5.59,,,,,,,,,,,,
268123,1564153012821,7,2.67,1.01,0.36,1.52,1.13,0.9,-0.53,0.31,23,1,28,1.04,5296,22,97,44,71,1004,292.0,367,465,60,123.0,218,1,298,321,64,0,0,268,-10440,23040,292,-5.59,,,,,,,,,,,,
268143,1564153012841,8,2.68,1.0,0.36,1.52,1.13,0.86,-0.53,0.31,23,0,30,1.01,5287,22,97,44,70,996,291.0,367,462,60,123.0,218,1,298,254,64,0,0,270,-1,23040,291,-5.59,44.680878,10.024634,28.77,173.6,0,0.0,-1,0.0,0.0,0,1.62,4.469
268163,1564153012861,7,2.67,1.0,0.36,1.52,1.12,0.86,-0.53,0.35,23,1,30,1.01,5302,22,97,44,71,986,289.0,367,468,60,123.0,218,1,299,328,64,0,0,266,-1,85,289,-5.59,,,,,,,,,,,,
268183,1564153012881,4,2.69,1.0,0.36,1.53,1.12,0.89,-0.51,0.34,23,-1,31,1.02,5281,22,97,44,71,976,288.0,367,462,60,124.0,225,1,297,328,65,0,0,267,-1,21760,288,-5.59,,,,,,,,,,,,
268203,1564153012903,5,2.69,1.0,0.37,1.52,1.13,0.91,-0.52,0.38,24,-1,31,1.05,5208,22,97,44,72,970,288.0,367,462,60,123.0,225,1,291,334,65,0,0,269,-214,21760,288,-5.59,,,,,,,,,,,,
268223,1564153012923,9,2.69,1.01,0.36,1.53,1.13,0.92,-0.48,0.34,24,-1,32,1.03,5170,22,97,44,72,968,289.0,364,465,60,124.0,225,1,288,332,65,0,0,268,16896,85,289,-5.59,,,,,,,,,,,,
268243,1564153012943,6,2.69,1.01,0.36,1.52,1.12,0.88,-0.53,0.36,25,1,32,1.02,5128,22,97,44,73,965,287.0,359,463,60,124.0,225,1,284,336,65,0,0,264,10818,20480,287,-5.59,44.680878,10.024625,27.99,173.6,0,0.0,-1,0.0,0.0,0,1.62,4.4707
268263,1564153012963,7,2.7,1.01,0.36,1.53,1.12,0.93,-0.51,0.34,25,-1,33,1.06,5118,22,97,44,73,962,288.0,358,462,60,122.0,225,1,283,336,65,0,0,260,16896,85,287,-5.59,,,,,,,,,,,,
268283,1564153012983,8,2.69,1.01,0.37,1.53,1.12,0.88,-0.54,0.37,25,0,34,1.03,5128,22,97,44,73,961,285.0,353,460,60,124.0,226,1,284,336,65,0,0,261,10812,0,285,-5.59,,,,,,,,,,,,
268303,1564153012993,7,2.7,1.0,0.36,1.53,1.12,0.94,-0.52,0.36,26,-1,35,1.07,5134,22,97,44,73,962,286.0,355,462,60,123.0,226,1,285,343,65,0,0,257,15360,0,286,-5.59,,,,,,,,,,,,
268323,1564153013013,9,2.72,1.0,0.36,1.52,1.13,0.93,-0.51,0.35,26,-1,35,1.06,5122,22,97,44,73,960,284.0,356,459,60,122.0,226,1,284,336,65,0,0,254,23482,0,284,-5.59,,,,,,,,,,,,
268343,1564153013033,4,2.72,1.01,0.36,1.53,1.13,0.95,-0.54,0.42,27,-2,34,1.09,5102,22,97,44,74,958,284.0,352,463,60,124.0,226,1,282,341,65,0,0,256,-1445,10686,284,-5.59,44.680882,10.024615,27.25,173.6,0,0.0,-1,0.0,0.0,0,1.62,4.4724
268363,1564153013053,8,2.71,1.01,0.36,1.53,1.13,0.94,-0.55,0.36,27,-2,35,1.09,5052,22,97,44,74,956,282.0,352,467,60,123.0,226,1,278,339,65,0,0,260,250,-16896,282,-5.59,,,,,,,,,,,,
268383,1564153013073,5,2.73,1.01,0.37,1.53,1.13,0.89,-0.58,0.36,27,-1,36,1.06,5006,22,97,44,74,954,281.0,347,457,60,124.0,227,1,274,336,64,0,0,260,-1484,250,281,-5.59,,,,,,,,,,,,
268403,1564153013099,5,2.72,1.01,0.36,1.53,1.12,0.95,-0.57,0.35,27,-1,36,1.1,5005,22,97,44,75,949,279.0,345,466,60,124.0,227,1,274,341,64,0,0,257,-17920,1886,279,-5.59,,,,,,,,,,,,
268423,1564153013119,6,2.72,1.01,0.37,1.52,1.14,0.95,-0.61,0.35,27,-2,37,1.13,4982,22,97,44,75,942,279.0,347,461,60,121.0,227,1,272,340,64,0,0,252,-17920,-1534,279,-5.59,,,,,,,,,,,,
268443,1564153013139,9,2.72,1.01,0.36,1.53,1.13,0.91,-0.58,0.28,27,-1,37,1.08,4962,22,97,44,75,936,277.0,344,462,60,123.0,227,1,270,339,64,0,0,250,250,250,277,181.28,44.680882,10.024606,26.81,173.6,0,0.0,-1,0.0,0.0,0,1.62,4.4741
268463,1564153013159,6,2.71,1.01,0.36,1.53,1.13,0.96,-0.57,0.36,27,-1,37,1.11,4969,22,97,44,76,932,275.0,345,465,60,123.0,227,1,269,344,64,0,0,248,250,630,275,-5.59,,,,,,,,,,,,
268483,1564153013179,7,2.71,1.0,0.36,1.52,1.13,0.99,-0.54,0.37,28,-2,37,1.13,4942,22,97,44,76,926,274.0,345,465,60,122.0,229,1,270,343,63,0,0,247,13468,630,274,-5.59,,,,,,,,,,,,
268503,1564153013203,7,2.7,1.01,0.36,1.52,1.12,0.93,-0.55,0.3,27,-2,38,1.08,4898,22,97,44,75,918,272.0,343,461,60,124.0,229,1,265,341,63,0,0,247,-25600,250,272,-5.59,,,,,,,,,,,,
268523,1564153013223,6,2.71,1.0,0.36,1.52,1.13,0.9,-0.58,0.34,28,-1,37,1.07,4889,22,97,44,76,912,274.0,340,462,60,124.0,229,1,266,341,63,0,0,246,-1483,2414,271,-5.59,,,,,,,,,,,,
268543,1564153013243,6,2.69,1.01,0.36,1.52,1.12,0.93,-0.56,0.37,28,-1,38,1.08,4858,22,97,44,76,909,271.0,342,465,60,123.0,229,1,263,340,63,0,0,245,-1483,-1527,271,-5.59,44.680885,10.024597,26.27,173.6,0,0.0,-1,0.0,0.0,0,1.62,4.4757
268563,1564153013263,5,2.68,1.01,0.36,1.53,1.12,0.97,-0.54,0.35,28,-1,38,1.11,4805,22,97,44,76,905,270.0,340,465,60,122.0,229,1,259,338,63,0,0,244,-1483,250,270,-5.59,,,,,,,,,,,,
268583,1564153013283,6,2.67,1.01,0.37,1.52,1.12,0.97,-0.52,0.3,27,-2,38,1.1,4807,22,97,44,76,897,269.0,338,462,60,122.0,225,1,259,272,61,0,0,247,8704,2414,269,-5.59,,,,,,,,,,,,
268603,1564153013303,7,2.67,1.01,0.37,1.53,1.12,0.91,-0.52,0.28,27,-1,38,1.05,4792,22,97,44,76,890,267.0,332,461,60,125.0,225,1,258,337,61,0,0,239,8704,-1,267,-5.59,,,,,,,,,,,,
268623,1564153013323,6,2.66,1.0,0.38,1.52,1.13,0.9,-0.53,0.32,27,0,37,1.04,4797,22,98,44,76,886,266.0,333,465,60,124.0,225,1,258,337,61,0,0,238,13602,-1,266,-5.59,,,,,,,,,,,,
268643,1564153013343,6,2.65,1.0,0.36,1.52,1.12,0.91,-0.48,0.4,28,0,36,1.03,4802,22,97,44,76,881,266.0,333,467,60,124.0,225,1,258,338,61,0,0,240,8704,-1,266,-5.59,44.680885,10.024589,25.77,173.6,0,0.0,-1,0.0,0.0,0,1.62,4.4774
268663,1564153013363,6,2.66,0.98,0.36,1.5,1.12,0.93,-0.44,0.43,28,-1,35,1.03,4755,22,98,44,76,873,265.0,334,463,60,122.0,225,1,255,336,61,0,0,241,8704,-1281,265,-5.59,,,,,,,,,,,,
268683,1564153013383,5,2.66,0.99,0.36,1.5,1.12,0.94,-0.42,0.39,27,-2,35,1.03,4734,22,97,44,75,866,264.0,329,460,60,123.0,227,1,252,335,60,0,0,240,250,-1,264,-5.59,,,,,,,,,,,,
268703,1564153013402,7,2.65,0.99,0.36,1.51,1.12,0.93,-0.42,0.34,27,-1,35,1.02,4709,22,97,44,76,863,455.0,328,458,60,126.0,227,1,251,329,60,0,0,274,9517,-1,455,-5.59,,,,,,,,,,,,
268723,1564153013422,8,2.65,1.0,0.36,1.51,1.12,0.94,-0.38,0.31,27,-1,35,1.01,4703,22,98,44,76,859,220.0,328,463,60,126.0,227,1,250,334,60,0,0,274,250,-1,112,181.28,,,,,,,,,,,,
268743,1564153013442,10,2.66,1.01,0.37,1.51,1.13,0.94,-0.39,0.32,26,0,34,1.02,4702,22,98,44,75,859,256.0,327,462,60,126.0,227,1,249,329,60,0,0,274,19968,-1,256,-5.59,44.680889,10.024581,25.19,173.6,0,0.0,-1,0.0,0.0,0,1.62,4.4791
268763,1564153013462,5,2.66,1.01,0.37,1.52,1.13,0.95,-0.43,0.36,26,0,33,1.04,4702,22,98,44,76,860,257.0,324,460,60,125.0,227,1,250,334,60,0,0,274,10318,-1,257,-5.59,,,,,,,,,,,,
268783,1564153013482,5,2.66,1.0,0.37,1.52,1.12,0.96,-0.45,0.38,26,-1,33,1.06,4686,22,97,44,76,863,256.0,326,468,60,123.0,229,1,249,333,59,0,0,29,19968,-1,256,-5.59,,,,,,,,,,,,
268803,1564153013502,4,2.66,1.0,0.37,1.52,1.13,0.98,-0.44,0.39,25,-1,32,1.07,4661,22,97,44,76,866,256.0,327,466,60,123.0,229,1,247,332,59,0,0,234,10318,-1,256,-5.59,,,,,,,,,,,,
268823,1564153013522,4,2.66,1.0,0.36,1.51,1.13,0.97,-0.45,0.39,25,-2,33,1.07,4651,22,98,44,75,876,255.0,326,464,60,121.0,229,1,245,261,59,0,0,237,10318,14337,255,-5.59,,,,,,,,,,,,
268843,1564153013542,4,2.65,1.0,0.36,1.52,1.12,0.96,-0.49,0.38,24,-2,33,1.08,4622,22,97,44,75,886,254.0,329,466,60,123.0,229,1,243,330,59,0,0,1466,10318,-41,254,-5.59,44.680893,10.024573,25.04,173.6,0,0.0,-1,0.0,0.0,0,1.62,4.4807
268863,1564153013562,5,2.65,1.0,0.36,1.52,1.13,0.95,-0.47,0.32,24,-1,33,1.06,4636,22,98,44,75,893,254.0,323,456,60,125.0,229,1,244,327,59,0,0,1466,-1496,-10440,254,181.28,,,,,,,,,,,,
268883,1564153013582,6,2.65,1.0,0.36,1.52,1.12,0.98,-0.43,0.3,24,0,33,1.07,4644,22,98,44,75,900,254.0,324,458,60,125.0,228,1,245,327,58,0,0,1466,-1496,14337,254,-5.59,,,,,,,,,,,,
268903,1564153013602,6,2.64,1.0,0.36,1.52,1.12,0.98,-0.39,0.28,23,0,34,1.05,4658,22,98,44,75,908,254.0,327,458,60,125.0,228,1,246,327,58,0,0,228,10318,-10440,254,-5.59,,,,,,,,,,,,
268923,1564153013622,6,2.64,1.0,0.36,1.52,1.12,0.94,-0.36,0.25,23,1,34,1.01,4592,22,98,44,76,916,254.0,324,457,60,124.0,228,1,241,329,58,0,0,229,1596,-10440,254,-5.59,,,,,,,,,,,,
268943,1564153013642,7,2.64,1.0,0.36,1.51,1.12,0.95,-0.32,0.25,23,2,33,1.0,4525,22,98,44,76,918,255.0,321,456,60,125.0,228,1,236,324,58,0,0,230,1596,-1,255,181.28,44.680901,10.024567,24.12,173.6,0,0.0,-1,0.0,0.0,0,1.62,4.4824
268963,1564153013662,8,2.64,0.99,0.36,1.52,1.13,0.93,-0.35,0.29,23,2,33,1.0,4537,22,98,44,76,919,252.0,317,463,60,125.0,228,1,237,327,58,0,0,232,1596,-1,252,181.28,,,,,,,,,,,,
268983,1564153013682,8,2.63,1.0,0.36,1.51,1.12,0.92,-0.36,0.3,23,3,33,0.99,4539,22,98,44,75,918,251.0,320,463,60,124.0,217,1,236,327,55,0,0,230,-1530,14337,251,-5.59,,,,,,,,,,,,
269003,1564153013702,6,2.63,1.0,0.36,1.52,1.12,0.88,-0.38,0.36,22,4,32,0.96,4553,22,98,44,75,917,252.0,320,462,60,124.0,217,1,237,325,55,0,0,231,1596,-1,252,-5.59,,,,,,,,,,,,
269023,1564153013722,6,2.63,1.0,0.36,1.51,1.13,0.85,-0.38,0.35,22,6,32,0.93,4552,22,98,44,75,914,251.0,317,461,60,125.0,217,1,237,325,55,0,0,230,1596,506,251,181.28,,,,,,,,,,,,
269043,1564153013742,5,2.62,1.0,0.36,1.51,1.13,0.83,-0.41,0.5,22,4,31,0.92,4518,22,98,44,75,912,249.0,317,462,60,124.0,217,1,234,323,55,0,0,230,1596,-1281,249,-5.59,44.680904,10.02456,24.08,173.6,0,0.0,-1,0.0,0.0,0,1.62,4.484
269063,1564153013762,7,2.62,1.0,0.36,1.52,1.12,0.81,-0.45,0.57,22,4,30,0.92,4557,22,98,44,75,907,253.0,318,463,60,125.0,217,1,238,325,55,0,0,231,1596,-1,253,-5.59,,,,,,,,,,,,
269083,1564153013782,3,2.6,1.0,0.36,1.5,1.12,0.79,-0.44,0.58,22,4,29,0.91,4528,22,98,44,75,903,250.0,317,462,60,126.0,220,1,235,324,55,0,0,230,1596,-1,250,-5.59,,,,,,,,,,,,
269103,1564153013802,3,2.6,0.99,0.36,1.51,1.12,0.8,-0.47,0.67,22,4,27,0.93,4545,22,98,44,75,899,253.0,319,466,60,124.0,220,1,235,324,55,0,0,233,250,-1,253,-5.59,,,,,,,,,,,,
269123,1564153013822,1,2.58,0.99,0.36,1.51,1.12,0.82,-0.49,0.64,21,3,27,0.95,4505,22,98,44,75,897,248.0,316,462,60,125.0,220,1,233,256,55,0,0,233,-1530,-1,248,-5.59,,,,,,,,,,,,
269143,1564153013842,2,2.57,1.0,0.36,1.5,1.12,0.87,-0.47,0.66,21,3,27,0.99,4546,22,98,44,75,895,249.0,318,464,60,124.0,220,1,237,257,55,0,0,231,-1530,-1,249,-5.59,44.680904,10.024553,23.72,173.5,0,0.0,-1,0.0,0.0,0,1.62,4.4857
269163,1564153013862,2,2.55,1.0,0.36,1.51,1.13,0.89,-0.42,0.72,21,4,26,0.98,4557,22,98,44,75,893,251.0,318,463,60,123.0,220,1,238,324,55,0,0,234,-1496,-1,251,-5.59,,,,,,,,,,,,
269183,1564153013882,1,2.53,0.98,0.35,1.5,1.12,0.92,-0.39,0.77,20,4,24,0.99,4552,22,98,44,75,892,252.0,320,468,60,123.0,224,1,237,325,56,0,0,236,250,-10440,252,-5.59,,,,,,,,,,,,
269203,1564153013902,2,2.51,0.97,0.35,1.49,1.12,0.93,-0.43,0.83,19,4,23,1.02,4579,22,98,44,75,892,249.0,321,466,60,121.0,224,1,239,326,56,0,0,236,10318,-1,249,-5.59,,,,,,,,,,,,
269223,1564153013922,1,2.48,0.96,0.35,1.48,1.11,0.94,-0.35,0.81,18,4,24,1.0,4578,22,98,44,75,891,246.0,322,464,60,122.0,224,1,239,326,56,0,0,237,250,506,246,-5.59,,,,,,,,,,,,
269243,1564153013942,1,2.44,0.95,0.35,1.48,1.1,0.92,-0.26,0.82,16,4,23,0.96,4602,22,98,44,75,889,247.0,323,461,60,122.0,224,1,241,327,56,0,0,238,-1494,-1,247,-5.59,44.680912,10.024549,23.78,173.6,0,0.0,-1,0.0,0.0,0,1.62,4.4874
269263,1564153013962,1,2.42,0.92,0.34,1.46,1.09,0.94,-0.19,0.82,15,3,23,0.95,4579,22,98,44,75,887,245.0,321,471,60,123.0,224,1,239,326,56,0,0,242,-1494,-214,245,-5.59,,,,,,,,,,,,
269283,1564153013982,0,2.39,0.84,0.32,1.39,1.07,0.88,-0.14,0.76,15,1,22,0.89,4633,22,98,44,75,884,245.0,322,467,60,122.0,228,1,244,327,56,0,0,243,13602,-1281,244,-5.59,,,,,,,,,,,,
269303,1564153013994,2,2.36,0.73,0.29,1.31,1.01,0.8,-0.1,0.68,14,2,21,0.81,4622,21,98,44,75,884,243.0,323,459,60,124.0,228,1,243,260,56,0,0,242,250,250,243,-5.59,,,,,,,,,,,,
269323,1564153014014,3,2.32,0.62,0.24,1.22,0.96,0.81,-0.06,0.58,13,3,19,0.82,4619,21,98,44,74,886,241.0,324,459,60,124.0,228,1,243,323,56,0,0,243,8704,10812,241,-5.59,,,,,,,,,,,,
269343,1564153014034,3,2.32,0.51,0.21,1.14,0.9,0.78,-0.02,0.53,12,4,18,0.78,4638,21,98,44,75,888,242.0,323,458,60,125.0,228,1,244,327,56,0,0,247,-25600,250,242,-5.59,44.680916,10.024543,23.29,173.6,0,0.0,-1,0.0,0.0,0,1.63,4.489
269363,1564153014054,3,2.29,0.47,0.19,1.1,0.87,0.81,-0.0,0.5,11,6,17,0.81,4603,21,98,44,75,893,240.0,321,452,60,125.0,228,1,241,327,56,0,0,250,-17920,16896,240,-5.59,,,,,,,,,,,,
269383,1564153014074,3,2.28,0.39,0.19,1.04,0.83,0.79,0.0,0.51,9,6,15,0.79,4605,21,98,44,75,897,241.0,322,456,60,126.0,237,1,242,327,57,0,0,250,-17920,-214,240,-5.59,,,,,,,,,,,,
269403,1564153014102,2,2.29,0.35,0.17,1.02,0.81,0.79,0.0,0.57,8,6,13,0.79,4602,21,98,44,75,901,243.0,322,460,60,125.0,237,1,241,327,57,0,0,250,-1445,16896,239,-5.59,,,,,,,,,,,,
269423,1564153014122,-1,2.28,0.36,0.17,1.03,0.82,0.77,0.03,0.64,7,6,11,0.77,4626,21,98,44,75,904,244.0,321,458,60,126.0,237,1,243,327,57,0,0,250,250,15360,238,181.28,,,,,,,,,,,,
269443,1564153014142,-1,2.28,0.4,0.18,1.05,0.84,0.79,0.04,0.73,6,4,9,0.79,4673,21,98,44,75,903,242.0,323,460,60,125.0,237,1,246,327,57,0,0,250,23482,15360,239,-5.59,44.68092,10.024538,23.93,173.6,0,0.0,-1,0.0,0.0,0,1.63,4.4907
269463,1564153014162,-0,2.26,0.42,0.2,1.07,0.86,0.77,0.05,0.82,5,2,7,0.77,4696,21,98,44,75,902,244.0,326,464,60,124.0,237,1,249,262,57,0,0,253,250,-1494,240,-5.59,,,,,,,,,,,,
269483,1564153014182,-0,2.24,0.44,0.2,1.08,0.87,0.73,0.06,0.77,5,1,5,0.73,4671,21,98,44,75,902,245.0,332,463,60,124.0,241,1,247,327,58,0,0,254,15360,250,240,-5.59,,,,,,,,,,,,
269503,1564153014202,0,2.22,0.45,0.21,1.1,0.88,0.74,0.05,0.73,4,0,4,0.74,4700,21,98,44,75,902,246.0,330,460,60,124.0,241,1,249,329,58,0,0,254,10812,250,241,181.28,,,,,,,,,,,,
269523,1564153014222,0,2.19,0.44,0.21,1.1,0.86,0.72,0.09,0.66,3,1,3,0.72,4699,21,98,44,75,904,248.0,329,462,60,125.0,241,1,249,328,58,0,0,258,250,10812,241,414.87,,,,,,,,,,,,
269543,1564153014242,4,2.14,0.43,0.2,1.08,0.86,0.7,0.14,0.58,1,2,2,0.72,4721,21,98,44,75,906,249.0,328,457,60,125.0,241,1,251,329,58,0,0,257,10818,250,241,-5.59,44.680923,10.024532,24.12,173.5,0,0.0,-1,0.0,0.0,0,1.63,4.4924
269563,1564153014262,-1,2.08,0.41,0.2,1.07,0.86,0.69,0.19,0.59,-0,4,1,0.72,4783,21,98,44,75,910,252.0,332,463,60,125.0,241,1,256,332,58,0,0,260,-1,10818,240,-5.59,,,,,,,,,,,,
269583,1564153014282,-1,2.03,0.39,0.18,1.06,0.83,0.79,0.25,0.61,-2,4,-1,0.83,4789,21,98,44,75,914,254.0,336,464,60,123.0,251,1,256,332,60,0,0,261,-1,16896,239,-5.59,,,,,,,,,,,,
269603,1564153014302,-1,1.99,0.33,0.19,1.02,0.8,0.81,0.28,0.63,-5,1,-3,0.86,4815,21,98,44,75,917,257.0,335,463,60,122.0,251,1,259,267,60,0,0,264,14337,10818,238,-5.59,,,,,,,,,,,,
269623,1564153014322,1,1.96,0.3,0.16,1.01,0.78,0.82,0.3,0.55,-7,1,-5,0.87,4805,21,98,44,75,919,260.0,337,462,60,124.0,251,1,258,333,60,0,0,268,-1,-1494,237,-5.59,,,,,,,,,,,,
269643,1564153014342,3,1.93,0.3,0.15,1.0,0.76,0.79,0.38,0.52,-9,3,-8,0.87,4789,21,98,44,75,923,263.0,336,460,60,124.0,251,1,256,332,60,0,0,270,-1,15360,235,-5.59,44.680927,10.024527,24.39,173.5,0,0.0,-1,0.0,0.0,0,1.63,4.4941
269663,1564153014362,0,1.91,0.3,0.14,0.99,0.77,0.76,0.45,0.54,-10,4,-11,0.88,4800,21,98,44,75,926,265.0,336,463,60,125.0,251,1,257,333,60,0,0,271,-1,15360,235,-5.59,,,,,,,,,,,,
269683,1564153014382,-0,1.87,0.3,0.14,1.01,0.76,0.8,0.51,0.58,-12,3,-13,0.95,4772,21,98,44,75,927,266.0,338,465,60,123.0,255,1,255,331,60,0,0,271,-1,-1445,234,-5.59,,,,,,,,,,,,
269703,1564153014401,-1,1.86,0.31,0.19,1.0,0.77,0.82,0.54,0.59,-14,-0,-15,0.98,4805,21,98,44,75,927,269.0,339,462,60,122.0,255,1,258,333,60,0,0,272,-1,23482,234,-5.59,,,,,,,,,,,,
269723,1564153014421,2,1.83,0.32,0.2,1.01,0.78,0.82,0.54,0.5,-16,0,-17,0.98,4826,21,98,44,75,931,271.0,340,460,60,124.0,255,1,259,334,60,0,0,272,-1281,-1484,233,-5.59,,,,,,,,,,,,
269743,1564153014441,2,1.8,0.33,0.21,1.02,0.78,0.83,0.61,0.48,-18,1,-20,1.03,4834,21,98,44,75,935,271.0,338,459,60,125.0,255,1,260,334,60,0,0,277,-1281,250,232,-5.59,44.680935,10.024521,24.59,173.5,0,0.0,-1,0.0,0.0,0,1.63,4.4957
269763,1564153014461,-2,1.76,0.34,0.21,1.02,0.79,0.83,0.66,0.55,-19,1,-23,1.06,4842,21,98,44,75,939,272.0,341,458,60,124.0,255,1,261,334,60,0,0,276,250,13468,231,-5.59,,,,,,,,,,,,
269783,1564153014481,-2,1.71,0.35,0.21,1.03,0.8,0.87,0.68,0.54,-21,-0,-26,1.11,4841,21,98,44,75,942,273.0,342,465,60,124.0,264,1,261,334,61,0,0,278,28160,-1484,231,-5.59,,,,,,,,,,,,
269803,1564153014501,1,1.68,0.35,0.23,1.03,0.8,0.86,0.66,0.53,-23,-2,-27,1.08,4842,21,98,44,75,943,273.0,343,460,60,124.0,264,1,261,334,61,0,0,276,28160,23482,230,-5.59,,,,,,,,,,,,
269823,1564153014521,2,1.64,0.36,0.23,1.04,0.8,0.81,0.7,0.49,-24,2,-30,1.07,4812,21,98,44,75,944,273.0,345,461,60,125.0,264,1,258,333,61,0,0,278,28160,-1484,231,-5.59,,,,,,,,,,,,
269843,1564153014541,0,1.58,0.36,0.22,1.04,0.79,0.82,0.77,0.43,-25,1,-33,1.13,4789,21,98,44,75,944,275.0,341,463,60,125.0,264,1,256,332,61,0,0,278,-1527,13468,230,-5.59,44.680939,10.024515,24.42,173.5,0,0.0,-1,0.0,0.0,0,1.63,4.4974
269863,1564153014561,-1,1.53,0.36,0.23,1.05,0.79,0.86,0.76,0.49,-27,0,-33,1.15,4789,21,98,44,75,942,275.0,340,460,60,125.0,264,1,256,332,61,0,0,277,-1527,250,228,-5.59,,,,,,,,,,,,
269883,1564153014581,0,1.48,0.36,0.22,1.04,0.8,0.93,0.75,0.48,-28,-2,-35,1.19,4821,21,98,44,75,936,272.0,344,459,60,123.0,268,1,259,333,61,0,0,278,250,-1483,227,-5.59,,,,,,,,,,,,
269903,1564153014601,1,1.43,0.36,0.23,1.05,0.79,0.86,0.6,0.48,-29,-4,-38,1.05,4833,21,98,44,75,930,271.0,340,456,60,124.0,268,1,260,334,61,0,0,279,-1281,13602,224,-5.59,,,,,,,,,,,,
269923,1564153014621,3,1.38,0.35,0.22,1.05,0.78,0.85,0.6,0.43,-30,-1,-40,1.04,4799,21,98,44,75,924,268.0,340,458,60,125.0,268,1,257,332,61,0,0,278,-1,13602,220,-5.59,,,,,,,,,,,,
269943,1564153014641,-1,1.35,0.36,0.22,1.05,0.78,0.8,0.7,0.45,-31,-0,-39,1.06,4790,21,98,44,75,919,264.0,340,462,60,125.0,268,1,256,332,61,0,0,275,-1,-1494,220,-5.59,44.680943,10.024508,24.78,173.5,0,0.0,-1,0.0,0.0,0,1.63,4.4991
269963,1564153014661,-1,1.32,0.33,0.21,1.02,0.78,0.85,0.7,0.57,-33,-3,-40,1.1,4742,21,98,44,75,910,262.0,336,459,60,124.0,268,1,253,330,61,0,0,276,-1,-1483,215,-5.59,,,,,,,,,,,,
269983,1564153014681,-0,1.31,0.33,0.19,1.02,0.75,0.87,0.7,0.51,-35,-5,-40,1.12,4779,21,98,44,75,898,258.0,339,447,60,124.0,275,1,256,332,60,0,0,276,-10440,250,214,-5.59,,,,,,,,,,,,
270003,1564153014701,2,1.3,0.32,0.21,1.01,0.75,0.92,0.67,0.53,-36,-7,-44,1.14,4807,21,98,44,75,888,260.0,338,455,60,123.0,275,1,258,333,60,0,0,269,-1,-10440,214,-5.59,,,,,,,,,,,,
270023,1564153014721,5,1.3,0.33,0.2,1.02,0.75,0.91,0.73,0.42,-37,-5,-45,1.17,4854,14,98,44,75,881,257.0,342,448,60,123.0,275,1,262,335,60,0,0,271,14337,-1,212,-5.59,,,,,,,,,,,,
270043,1564153014741,1,1.3,0.31,0.19,1.01,0.74,0.93,0.83,0.48,-38,-5,-48,1.25,4929,16,98,44,75,873,256.0,343,453,60,124.0,275,1,268,338,60,0,0,269,506,14337,202,-5.59,44.680946,10.024501,24.21,173.5,0,0.0,-1,0.0,0.0,0,1.63,4.5007
270063,1564153014761,4,1.3,0.33,0.19,1.01,0.75,0.96,0.82,0.43,-39,-8,-52,1.26,5048,21,98,44,76,865,253.0,348,432,60,124.0,275,1,278,348,60,0,0,267,-1,-1494,201,-5.59,,,,,,,,,,,,
270083,1564153014781,6,1.3,0.32,0.19,1.02,0.74,0.89,0.84,0.28,-40,-5,-53,1.22,5082,21,98,44,75,860,255.0,351,412,60,125.0,326,1,280,346,66,0,0,267,-1281,-10440,201,-5.59,,,,,,,,,,,,
270103,1564153014801,2,1.29,0.33,0.2,1.02,0.75,0.91,0.93,0.29,-41,-4,-55,1.3,5156,21,98,44,75,859,254.0,356,436,60,124.0,326,1,287,350,66,0,0,267,-1,-16896,198,-5.59,,,,,,,,,,,,
270123,1564153014821,5,1.29,0.32,0.21,1.02,0.74,0.86,0.87,0.19,-42,-5,-57,1.22,5202,21,98,44,74,857,254.0,358,439,60,124.0,326,1,290,346,66,0,0,260,-1,23040,197,-5.59,,,,,,,,,,,,
270143,1564153014841,1,1.29,0.34,0.2,1.03,0.75,0.86,0.92,0.24,-43,-1,-58,1.26,5253,20,98,44,74,855,254.0,363,463,60,124.0,326,1,297,349,66,0,0,261,-1,0,197,-5.59,44.680946,10.024493,23.57,173.5,0,0.0,-1,0.0,0.0,0,1.63,4.5024
270163,1564153014861,0,1.28,0.33,0.21,1.01,0.76,0.85,0.86,0.17,-44,-2,-61,1.21,5337,21,99,44,73,852,252.0,373,453,60,125.0,326,1,301,346,66,0,0,265,-1,0,195,-5.59,,,,,,,,,,,,
270183,1564153014881,2,1.28,0.34,0.22,1.02,0.77,0.93,0.88,0.32,-46,-3,-61,1.28,5349,17,98,44,73,852,253.0,371,452,60,125.0,362,1,302,346,70,0,0,274,-1,-1529,193,-5.59,,,,,,,,,,,,
270203,1564153014901,1,1.28,0.35,0.24,1.02,0.77,0.85,0.9,0.29,-47,-1,-61,1.24,5320,21,99,44,72,849,255.0,373,437,60,124.0,362,1,299,337,70,0,0,270,-1281,-1,195,-5.59,,,,,,,,,,,,
270223,1564153014921,-1,1.27,0.38,0.25,1.04,0.78,0.88,0.94,0.41,-48,-0,-62,1.29,5115,21,98,44,72,844,257.0,370,423,60,123.0,362,1,283,330,70,0,0,273,14337,-1281,194,-5.59,,,,,,,,,,,,
270243,1564153014941,1,1.28,0.37,0.26,1.05,0.79,0.91,0.91,0.33,-48,-1,-62,1.28,4863,21,98,44,73,840,256.0,362,416,60,123.0,362,1,262,327,70,0,0,272,506,-1,195,-5.59,44.68095,10.024486,22.17,173.5,0,0.0,-1,0.0,0.0,0,1.63,4.5041
270263,1564153014961,1,1.28,0.37,0.25,1.04,0.8,0.92,0.92,0.35,-48,-4,-61,1.3,4675,21,99,44,73,837,254.0,351,450,60,125.0,362,1,247,321,70,0,0,269,-1,-1,196,-5.59,,,,,,,,,,,,
270283,1564153014981,1,1.28,0.37,0.24,1.06,0.78,0.92,0.95,0.33,-47,-2,-59,1.32,4495,21,99,44,74,834,252.0,340,450,60,125.0,279,1,233,318,55,0,0,264,-1,-25600,197,-5.59,,,,,,,,,,,,
270303,1564153014991,-2,1.27,0.37,0.23,1.05,0.78,0.94,0.97,0.32,-46,-1,-61,1.35,4466,21,99,44,74,829,249.0,327,438,60,124.0,279,1,230,317,55,0,0,261,16896,250,200,-5.59,,,,,,,,,,,,
270323,1564153015011,-1,1.28,0.37,0.25,1.05,0.78,1.0,0.96,0.23,-46,-3,-61,1.39,4442,21,99,44,74,825,248.0,323,430,60,126.0,279,1,228,316,55,0,0,258,250,-1494,201,-5.59,,,,,,,,,,,,
270343,1564153015031,0,1.28,0.38,0.25,1.06,0.78,0.99,0.91,0.18,-45,-3,-60,1.34,4518,21,99,44,74,823,248.0,323,415,60,124.0,279,1,234,319,55,0,0,257,250,250,201,-5.59,44.68095,10.024478,21.34,173.5,0,0.0,-1,0.0,0.0,0,1.63,4.5057
270363,1564153015051,1,1.28,0.38,0.25,1.06,0.77,1.01,0.94,0.11,-44,-3,-60,1.38,4567,21,99,44,74,822,248.0,326,406,60,126.0,279,1,238,321,55,0,0,257,250,-1494,200,-5.59,,,,,,,,,,,,
270383,1564153015071,3,1.27,0.38,0.25,1.07,0.77,1.02,0.99,0.09,-45,-3,-61,1.42,4654,20,99,44,74,819,250.0,328,396,60,124.0,286,1,245,324,57,0,0,257,10818,19968,199,-5.59,,,,,,,,,,,,
270403,1564153015101,3,1.28,0.38,0.25,1.06,0.79,0.94,1.03,0.06,-45,-0,-60,1.39,4708,21,99,44,75,816,250.0,327,425,60,126.0,286,1,250,329,57,0,0,258,10818,250,199,181.28,,,,,,,,,,,,
270423,1564153015121,-2,1.29,0.38,0.25,1.07,0.79,0.95,1.05,0.16,-46,0,-62,1.42,4742,21,99,44,75,816,252.0,333,420,60,125.0,286,1,253,330,57,0,0,258,-1,14337,197,-5.59,,,,,,,,,,,,
270443,1564153015141,-1,1.28,0.39,0.26,1.07,0.78,0.98,0.99,0.23,-47,-1,-62,1.39,4829,21,99,44,75,815,250.0,337,415,60,124.0,286,1,260,268,57,0,0,255,16896,10818,196,-5.59,44.68095,10.02447,22.38,173.5,0,0.0,-1,0.0,0.0,0,1.63,4.5074
270463,1564153015161,1,1.28,0.4,0.26,1.08,0.8,0.96,0.93,0.27,-48,-2,-63,1.34,4847,20,99,44,74,815,248.0,341,414,60,122.0,286,1,261,334,57,0,0,254,250,13602,193,-5.59,,,,,,,,,,,,
270483,1564153015181,3,1.28,0.41,0.26,1.08,0.8,1.0,0.94,0.26,-48,-1,-63,1.37,4796,21,99,44,75,816,248.0,338,405,60,123.0,309,1,257,332,60,0,0,256,-1494,-1,194,-5.59,,,,,,,,,,,,
270503,1564153015201,2,1.28,0.41,0.27,1.08,0.81,0.98,0.99,0.27,-48,1,-62,1.39,4760,21,99,44,75,817,246.0,335,409,60,125.0,309,1,254,331,60,0,0,255,10812,-1,193,-5.59,,,,,,,,,,,,
270523,1564153015221,-1,1.29,0.41,0.27,1.09,0.8,1.02,0.98,0.35,-48,0,-64,1.42,4774,21,99,44,75,818,246.0,336,411,60,124.0,309,1,255,331,60,0,0,252,10812,10818,192,-5.59,,,,,,,,,,,,
270543,1564153015241,-0,1.28,0.42,0.27,1.09,0.8,1.04,0.96,0.39,-49,-2,-64,1.41,4722,21,99,44,75,822,245.0,338,402,60,123.0,309,1,251,329,60,0,0,253,15360,250,192,-5.59,44.68095,10.024463,21.3,173.6,0,0.0,-1,0.0,0.0,0,1.63,4.509
270563,1564153015261,-2,1.29,0.41,0.27,1.09,0.81,1.05,0.94,0.43,-49,-4,-64,1.41,4674,21,99,44,75,826,246.0,336,410,60,123.0,309,1,247,327,60,0,0,252,10812,-41,193,-5.59,,,,,,,,,,,,
270583,1564153015281,0,1.28,0.42,0.27,1.1,0.8,1.04,0.93,0.39,-49,-6,-65,1.4,4654,21,99,44,75,828,246.0,333,415,60,122.0,295,1,245,327,57,0,0,252,10812,-1,192,-5.59,,,,,,,,,,,,
270603,1564153015301,-0,1.29,0.43,0.27,1.11,0.8,1.02,0.91,0.31,-49,-6,-64,1.37,4661,21,99,44,75,831,246.0,335,411,60,121.0,295,1,246,327,57,0,0,251,10812,-1445,193,-5.59,,,,,,,,,,,,
270623,1564153015321,3,1.29,0.42,0.27,1.1,0.81,1.01,0.96,0.33,-49,-5,-64,1.4,4688,21,99,44,74,839,246.0,332,402,60,123.0,295,1,248,325,57,0,0,250,10812,-1445,191,-5.59,,,,,,,,,,,,
270643,1564153015341,3,1.28,0.42,0.27,1.11,0.8,1.01,1.0,0.28,-49,-4,-67,1.42,4669,21,99,44,75,849,246.0,335,398,60,125.0,295,1,247,327,57,0,0,251,10812,-1,191,-5.59,44.680946,10.024455,21.25,173.6,0,0.0,-1,0.0,0.0,0,1.63,4.5107
270663,1564153015361,1,1.28,0.43,0.27,1.1,0.8,1.01,1.04,0.23,-50,-2,-65,1.45,4734,21,99,44,75,857,247.0,330,402,60,127.0,295,1,252,330,57,0,0,9169,-1494,-10440,190,-5.59,,,,,,,,,,,,
270683,1564153015381,0,1.28,0.43,0.27,1.1,0.81,0.97,1.02,0.36,-50,-4,-66,1.41,4760,21,99,44,75,864,247.0,332,413,60,126.0,310,1,254,265,59,0,0,133,-1494,506,190,-5.59,,,,,,,,,,,,
270703,1564153015400,-0,1.28,0.43,0.27,1.11,0.8,1.0,0.97,0.38,-51,-5,-68,1.4,4792,21,99,43,75,873,248.0,340,417,60,124.0,310,1,257,335,59,0,0,133,250,14337,189,-5.59,,,,,,,,,,,,
270723,1564153015420,-0,1.28,0.44,0.28,1.11,0.82,0.98,0.93,0.4,-52,-5,-68,1.36,4790,21,99,43,75,882,248.0,338,394,60,125.0,310,1,256,335,59,0,0,133,250,250,187,-5.59,,,,,,,,,,,,
270743,1564153015440,1,1.28,0.44,0.28,1.11,0.82,1.01,0.97,0.36,-52,-3,-69,1.4,4726,21,99,44,75,886,248.0,339,387,60,125.0,310,1,251,330,59,0,0,133,250,10818,188,-5.59,44.680946,10.024449,20.69,173.6,0,0.0,-1,0.0,0.0,0,1.63,4.5124
270763,1564153015460,3,1.29,0.44,0.28,1.11,0.82,1.0,1.02,0.33,-53,-1,-69,1.43,4696,21,99,44,75,888,249.0,333,396,60,126.0,310,1,249,328,59,0,0,133,16896,-1,188,181.28,,,,,,,,,,,,
270783,1564153015480,2,1.29,0.45,0.28,1.11,0.83,0.99,1.07,0.33,-53,-1,-69,1.46,4654,21,99,44,75,891,250.0,331,393,60,126.0,310,1,245,327,58,0,0,133,10818,506,187,-5.59,,,,,,,,,,,,
270803,1564153015500,-0,1.29,0.45,0.28,1.12,0.82,0.97,1.05,0.39,-54,0,-69,1.43,4644,21,99,44,75,894,250.0,333,401,60,125.0,310,1,245,327,58,0,0,244,10818,-1484,187,-5.59,,,,,,,,,,,,
270823,1564153015520,-2,1.29,0.45,0.28,1.12,0.81,0.98,1.02,0.44,-55,0,-71,1.41,4625,21,99,44,75,896,249.0,328,412,60,126.0,310,1,243,327,58,0,0,248,16896,250,187,-5.59,,,,,,,,,,,,
270843,1564153015540,-1,1.29,0.45,0.28,1.12,0.82,1.0,0.95,0.47,-56,-1,-71,1.38,4622,21,99,44,75,896,250.0,327,415,60,126.0,310,1,242,327,58,0,0,248,10818,-1,187,-5.59,44.680946,10.024444,19.93,173.6,0,0.0,-1,0.0,0.0,0,1.63,4.514
270863,1564153015560,-0,1.28,0.47,0.28,1.12,0.83,0.98,0.93,0.55,-57,-3,-72,1.35,4673,21,99,44,75,896,252.0,327,418,60,124.0,310,1,247,261,58,0,0,248,-1,-1,187,-5.59,,,,,,,,,,,,
270883,1564153015580,-1,1.28,0.47,0.28,1.13,0.82,1.02,0.93,0.52,-57,-4,-73,1.38,4675,22,99,43,75,895,250.0,334,403,60,124.0,315,1,247,331,59,0,0,249,10818,-25600,187,-5.59,,,,,,,,,,,,
270903,1564153015602,-1,1.28,0.47,0.28,1.13,0.83,1.0,0.89,0.54,-58,-4,-72,1.33,4635,21,99,43,75,895,249.0,333,400,60,124.0,315,1,244,329,59,0,0,248,16896,250,186,-5.59,,,,,,,,,,,,
270923,1564153015622,0,1.29,0.47,0.28,1.14,0.83,1.02,0.9,0.48,-58,-3,-74,1.36,4626,21,99,43,75,895,249.0,332,391,60,124.0,315,1,243,260,59,0,0,247,10818,16896,186,-5.59,,,,,,,,,,,,
270943,1564153015642,1,1.29,0.47,0.29,1.14,0.83,1.04,0.9,0.43,-58,-2,-74,1.38,4620,22,99,43,75,897,250.0,330,382,60,125.0,315,1,243,329,59,0,0,248,10818,16896,185,-5.59,44.680943,10.024438,20.18,173.6,0,0.0,-1,0.0,0.0,0,1.64,4.5157
270963,1564153015662,2,1.29,0.47,0.28,1.14,0.83,1.04,0.94,0.4,-57,-1,-75,1.4,4594,22,99,43,76,900,248.0,329,393,60,125.0,315,1,242,328,59,0,0,247,250,15360,185,-5.59,,,,,,,,,,,,
270983,1564153015682,2,1.29,0.48,0.3,1.14,0.84,1.0,0.98,0.36,-58,-1,-74,1.4,4625,22,99,43,75,904,249.0,329,388,60,126.0,309,1,243,329,57,0,0,246,16896,23482,184,-5.59,,,,,,,,,,,,
271003,1564153015702,2,1.3,0.48,0.3,1.15,0.84,0.96,1.06,0.36,-58,2,-75,1.43,4568,22,99,43,75,907,247.0,330,388,60,126.0,309,1,239,327,57,0,0,247,-1494,-1,185,181.28,,,,,,,,,,,,
271023,1564153015722,1,1.31,0.49,0.3,1.16,0.84,0.95,1.11,0.34,-58,2,-75,1.46,4591,22,99,43,75,908,249.0,324,402,60,126.0,309,1,240,328,57,0,0,246,16896,-1,186,-5.59,,,,,,,,,,,,
271043,1564153015742,3,1.32,0.49,0.3,1.16,0.84,0.92,1.12,0.36,-59,2,-75,1.45,4622,21,99,43,76,906,250.0,326,408,60,126.0,309,1,244,264,57,0,0,246,10818,250,185,-5.59,44.680935,10.024434,19.1,173.6,0,0.0,-1,0.0,0.0,0,1.64,4.5174
271063,1564153015762,0,1.34,0.51,0.3,1.16,0.86,0.91,1.12,0.39,-59,1,-76,1.45,4589,22,100,43,76,903,249.0,328,399,60,126.0,309,1,241,332,57,0,0,246,16896,-1,185,-5.59,,,,,,,,,,,,
271083,1564153015782,0,1.37,0.5,0.3,1.16,0.86,0.91,1.09,0.46,-60,0,-76,1.42,4606,22,99,43,76,898,251.0,327,408,60,125.0,313,1,245,333,58,0,0,247,-214,-1,186,-5.59,,,,,,,,,,,,
271103,1564153015802,-2,1.39,0.52,0.31,1.17,0.86,0.92,1.04,0.54,-60,-1,-77,1.39,4653,23,100,43,76,891,250.0,331,407,60,124.0,313,1,246,266,58,0,0,247,10818,-1484,185,-5.59,,,,,,,,,,,,
271123,1564153015822,-1,1.4,0.53,0.31,1.17,0.87,0.9,1.03,0.57,-60,-2,-78,1.37,4667,22,99,43,76,884,252.0,331,418,60,123.0,313,1,248,335,58,0,0,247,-1,-1494,185,-5.59,,,,,,,,,,,,
271143,1564153015842,-0,1.41,0.54,0.32,1.19,0.87,0.86,1.01,0.53,-59,-2,-78,1.33,4636,23,99,43,76,878,252.0,333,403,60,123.0,313,1,245,265,58,0,0,248,-1,10818,186,-5.59,44.680931,10.024431,19.4,173.6,0,0.0,-1,0.0,0.0,0,1.64,4.5191
271163,1564153015862,-2,1.41,0.53,0.32,1.18,0.88,0.86,1.0,0.55,-59,-3,-78,1.32,4598,22,99,43,76,876,252.0,333,396,60,126.0,313,1,242,332,58,0,0,247,-1,-1445,185,-5.59,,,,,,,,,,,,
271183,1564153015882,-1,1.4,0.54,0.32,1.19,0.87,0.83,0.96,0.51,-58,-2,-78,1.27,4550,23,100,43,76,874,251.0,330,407,60,126.0,306,1,238,262,57,0,0,246,-214,250,187,-5.59,,,,,,,,,,,,
271203,1564153015902,-1,1.41,0.55,0.32,1.2,0.88,0.82,0.96,0.46,-58,-2,-77,1.27,4476,23,100,43,76,872,251.0,325,420,60,126.0,306,1,232,328,57,0,0,246,-214,-25600,187,-5.59,,,,,,,,,,,,
271223,1564153015922,-0,1.42,0.55,0.32,1.19,0.89,0.81,0.96,0.41,-57,-2,-76,1.26,4484,23,100,43,76,871,250.0,325,423,60,124.0,306,1,233,328,57,0,0,246,10818,-1445,187,-5.59,,,,,,,,,,,,
271243,1564153015942,-1,1.41,0.55,0.33,1.21,0.88,0.82,0.93,0.42,-57,-3,-76,1.24,4533,23,100,43,76,871,250.0,321,424,60,126.0,306,1,237,330,57,0,0,243,10818,-17920,189,-5.59,44.680927,10.024429,19.52,173.6,0,0.0,-1,0.0,0.0,0,1.64,4.5207
271263,1564153015962,-1,1.42,0.56,0.33,1.2,0.89,0.85,0.9,0.33,-56,-2,-76,1.24,4544,23,100,43,76,871,249.0,323,415,60,126.0,306,1,238,261,57,0,0,244,16896,-1494,189,-5.59,,,,,,,,,,,,
271283,1564153015982,1,1.42,0.56,0.33,1.2,0.88,0.87,0.87,0.29,-56,-2,-75,1.23,4592,23,100,43,76,871,251.0,322,421,60,124.0,312,1,241,332,59,0,0,243,-214,250,189,-5.59,,,,,,,,,,,,
271303,1564153015994,1,1.44,0.57,0.33,1.21,0.88,0.88,0.88,0.21,-56,-1,-75,1.25,4598,24,100,43,77,871,251.0,325,422,60,125.0,312,1,242,332,59,0,0,245,-214,-1281,189,-5.59,,,,,,,,,,,,
271323,1564153016014,3,1.44,0.57,0.33,1.21,0.89,0.88,0.91,0.22,-55,1,-74,1.26,4619,24,100,43,77,872,252.0,325,426,60,125.0,312,1,244,333,59,0,0,246,-1,10812,189,-5.59,,,,,,,,,,,,
271343,1564153016034,3,1.47,0.58,0.34,1.22,0.9,0.86,0.93,0.23,-56,4,-75,1.27,4638,24,100,43,77,872,252.0,327,421,60,125.0,312,1,245,346,59,0,0,246,-1,-1483,189,-5.59,44.680923,10.024429,20.77,173.7,0,0.0,-1,0.0,0.0,0,1.64,4.5224
271363,1564153016054,4,1.47,0.59,0.34,1.23,0.9,0.87,0.98,0.26,-56,4,-74,1.31,4627,24,100,43,77,874,252.0,326,430,60,126.0,312,1,244,346,59,0,0,247,-1,-1484,190,-5.59,,,,,,,,,,,,
271383,1564153016074,2,1.49,0.59,0.34,1.22,0.91,0.86,0.97,0.35,-56,3,-73,1.3,4562,24,100,43,77,875,252.0,323,439,60,126.0,310,1,239,344,59,0,0,247,-1,506,190,181.28,,,,,,,,,,,,
271403,1564153016102,-0,1.5,0.6,0.34,1.23,0.9,0.87,0.95,0.41,-56,3,-74,1.29,4595,25,100,43,77,877,252.0,326,429,60,125.0,310,1,241,344,59,0,0,246,-1,-17920,190,-5.59,,,,,,,,,,,,
271423,1564153016122,0,1.51,0.6,0.34,1.24,0.91,0.88,0.95,0.46,-56,3,-73,1.29,4604,25,100,43,77,878,250.0,325,436,60,125.0,310,1,242,345,59,0,0,245,10818,18432,190,-5.59,,,,,,,,,,,,
271443,1564153016142,-0,1.52,0.61,0.35,1.24,0.91,0.88,0.91,0.5,-56,1,-72,1.27,4583,25,100,43,77,874,251.0,325,450,60,124.0,310,1,239,357,59,0,0,247,-214,-1,192,-5.59,44.680916,10.024429,20.13,173.7,0,0.0,-1,0.0,0.0,0,1.64,4.524
271463,1564153016162,-1,1.53,0.61,0.35,1.24,0.92,0.87,0.87,0.55,-55,-1,-72,1.23,4572,25,100,43,78,870,251.0,326,455,60,124.0,310,1,240,344,59,0,0,248,-214,14337,193,-5.59,,,,,,,,,,,,
271483,1564153016182,-2,1.55,0.61,0.35,1.25,0.91,0.86,0.85,0.57,-55,-2,-72,1.21,4610,25,100,43,77,865,251.0,326,453,60,123.0,310,1,243,358,60,0,0,246,-214,13602,193,-5.59,,,,,,,,,,,,
271503,1564153016204,-1,1.56,0.62,0.35,1.25,0.92,0.84,0.82,0.61,-54,-4,-71,1.17,4613,26,100,43,77,859,252.0,328,456,60,124.0,310,1,243,358,60,0,0,248,-1,250,193,-5.59,,,,,,,,,,,,
271523,1564153016224,-0,1.57,0.63,0.35,1.26,0.92,0.81,0.79,0.6,-54,-5,-70,1.13,4574,26,100,43,77,855,253.0,328,446,60,125.0,310,1,240,356,60,0,0,249,-1,-1,195,-5.59,,,,,,,,,,,,
271543,1564153016244,-2,1.58,0.63,0.36,1.26,0.92,0.78,0.79,0.53,-53,-5,-69,1.11,4587,26,100,43,78,851,252.0,326,457,60,123.0,310,1,241,357,60,0,0,247,-1,-1,195,-5.59,44.680912,10.02443,20.0,173.7,0,0.0,-1,0.0,0.0,0,1.64,4.5257
271563,1564153016264,-1,1.6,0.64,0.36,1.27,0.93,0.73,0.77,0.51,-52,-4,-68,1.06,4589,26,100,43,78,851,252.0,328,455,60,126.0,310,1,241,357,60,0,0,247,-1,13468,196,-5.59,,,,,,,,,,,,
271583,1564153016284,1,1.61,0.64,0.36,1.27,0.93,0.72,0.75,0.52,-51,-4,-68,1.04,4595,26,100,43,77,852,252.0,327,457,60,125.0,316,1,242,276,62,0,0,247,-1,8704,196,-5.59,,,,,,,,,,,,
271603,1564153016302,1,1.64,0.65,0.37,1.27,0.94,0.71,0.75,0.48,-50,-3,-67,1.03,4556,26,100,43,78,853,252.0,328,453,60,126.0,316,1,239,356,62,0,0,249,-1,13468,196,-5.59,,,,,,,,,,,,
271623,1564153016322,2,1.65,0.65,0.37,1.28,0.94,0.73,0.74,0.47,-49,-2,-67,1.05,4576,26,100,43,78,854,251.0,327,450,60,126.0,316,1,240,357,62,0,0,249,-214,8704,198,-5.59,,,,,,,,,,,,
271643,1564153016342,1,1.69,0.67,0.37,1.28,0.95,0.74,0.74,0.47,-48,-2,-67,1.05,4538,31,100,43,79,855,252.0,325,458,60,126.0,316,1,238,355,62,0,0,249,-1,-25600,201,-5.59,44.680904,10.024434,20.09,173.7,0,0.0,-1,0.0,0.0,0,1.64,4.5274
271663,1564153016362,3,1.72,0.68,0.38,1.29,0.95,0.74,0.76,0.47,-47,-1,-66,1.06,4538,34,100,43,80,854,252.0,323,461,60,126.0,316,1,238,380,62,0,0,249,-1,23482,202,-5.59,,,,,,,,,,,,
271683,1564153016382,2,1.74,0.68,0.38,1.3,0.96,0.74,0.78,0.47,-46,0,-65,1.08,4555,36,100,43,82,852,252.0,323,452,60,126.0,331,1,240,406,67,0,0,251,-1,-1496,202,-5.59,,,,,,,,,,,,
271703,1564153016403,3,1.76,0.68,0.39,1.3,0.97,0.77,0.8,0.51,-45,2,-64,1.11,4557,37,100,43,83,849,253.0,323,456,60,125.0,331,1,241,418,67,0,0,253,-1,15360,204,-5.59,,,,,,,,,,,,
271723,1564153016423,3,1.78,0.69,0.39,1.3,0.97,0.79,0.82,0.54,-45,3,-62,1.14,4547,37,100,43,84,845,255.0,321,460,60,126.0,331,1,243,421,67,0,0,254,-1281,10318,207,-5.59,,,,,,,,,,,,
271743,1564153016443,3,1.79,0.7,0.39,1.3,0.97,0.79,0.83,0.55,-44,3,-61,1.14,4584,39,100,43,85,842,255.0,321,465,60,126.0,331,1,249,428,67,0,0,255,-1281,23482,210,-5.59,44.680904,10.024437,20.67,173.7,0,0.0,-1,0.0,0.0,0,1.64,4.529
271763,1564153016463,-0,1.8,0.69,0.39,1.32,0.97,0.76,0.84,0.59,-43,4,-59,1.13,4605,39,100,43,86,839,255.0,323,462,60,126.0,331,1,254,368,67,0,0,254,-1281,10818,212,-5.59,,,,,,,,,,,,
271783,1564153016483,-0,1.82,0.71,0.39,1.32,0.97,0.78,0.79,0.68,-43,3,-58,1.12,4688,39,100,43,86,837,255.0,323,465,60,126.0,361,1,261,438,77,0,0,257,-1281,-1494,213,-5.59,,,,,,,,,,,,
271803,1564153016501,-2,1.85,0.72,0.4,1.32,0.98,0.76,0.71,0.76,-42,1,-58,1.04,4740,42,100,43,87,837,258.0,330,461,60,124.0,361,1,269,445,77,0,0,260,-10440,-1484,216,-5.59,,,,,,,,,,,,
271823,1564153016521,-1,1.86,0.73,0.4,1.33,0.98,0.76,0.67,0.73,-41,2,-56,1.02,4731,44,100,43,88,839,259.0,335,459,60,125.0,361,1,272,448,77,0,0,261,-41,-1,218,-5.59,,,,,,,,,,,,
271843,1564153016541,2,1.86,0.73,0.4,1.34,0.98,0.75,0.64,0.68,-40,1,-55,0.99,4797,44,100,43,88,844,261.0,334,459,60,123.0,361,1,278,452,77,0,0,265,-1,-1281,220,-5.59,44.680901,10.024442,22.13,173.7,0,0.0,-1,0.0,0.0,0,1.64,4.5307
271863,1564153016561,2,1.88,0.73,0.4,1.33,0.99,0.75,0.67,0.67,-39,4,-53,1.01,4827,44,100,43,89,853,260.0,337,463,60,126.0,361,1,286,458,77,0,0,263,-1,-1,222,-5.59,,,,,,,,,,,,
271883,1564153016581,-1,1.88,0.73,0.4,1.34,0.98,0.75,0.63,0.74,-38,2,-52,0.98,4901,44,100,43,89,862,260.0,336,460,60,126.0,385,1,292,463,86,0,0,264,-1,-1494,224,-5.59,,,,,,,,,,,,
271903,1564153016601,-1,1.88,0.73,0.4,1.34,0.99,0.72,0.61,0.77,-37,-0,-51,0.95,4921,45,100,43,89,869,261.0,341,462,60,123.0,385,1,294,468,86,0,0,264,-1,-1,225,-5.59,,,,,,,,,,,,
271923,1564153016621,2,1.87,0.74,0.4,1.33,0.99,0.72,0.64,0.7,-37,2,-49,0.96,4966,45,100,43,89,878,263.0,345,459,60,124.0,385,1,299,465,86,0,0,269,-1,250,228,-5.59,,,,,,,,,,,,
271943,1564153016641,-1,1.87,0.73,0.4,1.34,0.99,0.73,0.69,0.71,-36,1,-48,1.01,5081,45,101,43,90,891,265.0,346,466,60,125.0,385,1,308,476,86,0,0,269,-1,630,229,-5.59,44.680893,10.024446,23.21,173.7,0,0.0,-1,0.0,0.0,0,1.64,4.5324
271963,1564153016661,2,1.87,0.74,0.4,1.34,0.99,0.7,0.67,0.68,-36,-1,-47,0.96,5231,41,100,43,89,902,267.0,355,459,60,123.0,385,1,307,459,86,0,0,272,-1,2414,231,-5.59,,,,,,,,,,,,
271983,1564153016681,-1,1.87,0.74,0.41,1.34,0.99,0.66,0.72,0.75,-35,2,-46,0.98,5337,45,101,43,88,907,270.0,363,465,60,125.0,465,1,307,541,108,0,0,274,-1,2414,232,-5.59,,,,,,,,,,,,
272003,1564153016701,-1,1.87,0.75,0.41,1.34,0.99,0.66,0.71,0.65,-35,2,-46,0.97,5433,46,101,43,87,911,273.0,370,457,60,124.0,465,1,308,530,108,0,0,282,28160,80,234,-5.59,,,,,,,,,,,,
272023,1564153016721,1,1.88,0.75,0.41,1.34,0.99,0.7,0.69,0.78,-35,-1,-47,0.98,5553,46,100,43,86,916,276.0,375,462,60,124.0,465,1,313,517,108,0,0,286,250,90,236,-5.59,,,,,,,,,,,,
272043,1564153016741,3,1.86,0.74,0.4,1.33,0.99,0.69,0.68,0.81,-35,1,-46,0.97,5628,46,101,43,85,919,279.0,382,462,60,124.0,465,1,317,515,108,0,0,290,250,0,239,-5.59,44.680889,10.024453,24.05,173.8,0,0.0,-1,0.0,0.0,0,1.64,4.534
272063,1564153016761,-0,1.87,0.75,0.41,1.33,1.0,0.61,0.66,0.77,-35,2,-45,0.9,5662,46,101,43,84,916,284.0,389,461,60,125.0,465,1,319,396,108,0,0,296,250,105,243,-5.59,,,,,,,,,,,,
272083,1564153016781,-1,1.88,0.75,0.41,1.34,1.0,0.56,0.73,0.69,-34,0,-46,0.92,5649,46,101,43,84,914,288.0,390,462,60,125.0,426,1,319,496,105,0,0,300,0,135,246,-5.59,,,,,,,,,,,,
272103,1564153016803,3,1.87,0.75,0.41,1.33,1.0,0.67,0.71,0.77,-35,-2,-47,0.98,5695,46,101,43,83,905,291.0,392,460,60,124.0,426,1,322,489,105,0,0,302,20480,26880,249,-5.59,,,,,,,,,,,,
272123,1564153016823,2,1.87,0.76,0.41,1.34,1.0,0.73,0.74,0.8,-36,0,-46,1.04,5673,47,101,43,83,898,294.0,393,467,60,124.0,426,1,321,393,105,0,0,307,24320,26880,253,-5.59,,,,,,,,,,,,
272143,1564153016843,1,1.87,0.76,0.41,1.34,1.0,0.66,0.74,0.81,-36,3,-45,0.99,5732,47,101,43,83,889,299.0,395,464,60,124.0,426,1,325,472,105,0,0,312,25600,-25856,256,-5.59,44.680885,10.024459,24.74,173.8,0,0.0,-1,0.0,0.0,0,1.64,4.5357
272163,1564153016863,2,1.87,0.75,0.41,1.33,1.01,0.52,0.72,0.84,-36,2,-45,0.89,5841,47,101,43,82,879,302.0,400,463,60,125.0,426,1,333,459,105,0,0,313,105,145,259,-5.59,,,,,,,,,,,,
272183,1564153016883,2,1.88,0.75,0.41,1.34,1.0,0.37,0.74,0.89,-35,2,-45,0.82,5961,43,101,43,82,857,305.0,408,462,60,124.0,396,1,341,459,103,0,0,318,30720,-25856,262,-5.59,,,,,,,,,,,,
272203,1564153016903,2,1.88,0.76,0.41,1.34,1.0,0.25,0.76,0.97,-35,3,-46,0.8,6101,41,101,43,82,834,310.0,416,462,60,125.0,396,1,347,463,103,0,0,326,125,145,263,-5.59,,,,,,,,,,,,
272223,1564153016923,3,1.88,0.77,0.41,1.35,1.0,0.3,0.81,0.97,-35,5,-47,0.86,6208,26,101,43,82,818,313.0,422,466,60,124.0,396,1,351,453,103,0,0,330,-30976,3327,267,-5.59,,,,,,,,,,,,
272243,1564153016943,-0,1.9,0.77,0.41,1.34,1.01,0.37,0.84,0.88,-36,7,-47,0.91,6353,39,101,43,82,802,319.0,430,464,60,123.0,396,1,356,454,103,0,0,337,-27136,2560,270,-5.59,44.680885,10.024467,26.28,173.8,0,0.0,-1,0.0,0.0,0,1.64,4.5374
272263,1564153016963,-1,1.9,0.76,0.41,1.34,1.01,0.44,0.81,0.88,-36,5,-48,0.92,6416,48,101,43,82,785,323.0,436,465,60,123.0,396,1,358,540,103,0,0,336,-24576,175,272,-5.59,,,,,,,,,,,,
272283,1564153016983,3,1.9,0.77,0.42,1.34,1.01,0.4,0.8,0.96,-37,4,-47,0.9,6427,43,101,43,82,770,325.0,440,462,60,124.0,465,1,358,532,127,0,0,342,-23296,28553,274,-5.59,,,,,,,,,,,,
272303,1564153016995,1,1.91,0.77,0.41,1.34,1.01,0.4,0.88,0.96,-37,5,-47,0.96,6441,38,101,43,82,767,327.0,443,462,60,124.0,465,1,359,519,127,0,0,348,-22016,3183,276,-5.59,,,,,,,,,,,,
272323,1564153017015,-1,1.91,0.77,0.42,1.35,1.01,0.52,0.84,0.93,-37,4,-47,0.98,6452,43,101,43,82,766,329.0,444,461,60,123.0,465,1,359,468,127,0,0,348,-20736,-23296,278,-5.59,,,,,,,,,,,,
272343,1564153017035,0,1.92,0.77,0.42,1.35,1.0,0.52,0.79,0.86,-37,1,-46,0.95,6414,37,101,43,81,773,330.0,446,460,60,125.0,465,1,359,462,127,0,0,348,175,4104,284,-5.59,44.680882,10.024475,28.41,173.9,0,0.0,-1,0.0,0.0,0,1.64,4.5391
272363,1564153017055,3,1.92,0.78,0.42,1.35,1.01,0.45,0.86,0.84,-37,0,-46,0.97,6432,48,101,43,82,779,333.0,446,464,60,124.0,465,1,359,462,127,0,0,345,-6528,19125,283,-5.59,,,,,,,,,,,,
272383,1564153017075,-2,1.95,0.77,0.42,1.35,1.02,0.52,0.89,0.75,-36,0,-46,1.03,6544,48,101,43,82,785,334.0,451,462,60,123.0,408,1,363,469,116,0,0,351,4838,-30454,288,-5.59,,,,,,,,,,,,
272403,1564153017093,2,1.98,0.78,0.42,1.36,1.01,0.53,0.85,0.81,-37,-3,-46,1.01,6644,25,101,43,81,792,338.0,456,462,60,125.0,408,1,367,453,116,0,0,351,-31222,-6528,295,-5.59,,,,,,,,,,,,
272423,1564153017113,1,2.01,0.79,0.42,1.36,1.01,0.48,0.89,0.8,-36,-2,-45,1.01,6689,25,101,43,81,797,342.0,459,466,60,123.0,408,1,368,539,116,0,0,358,-31206,-6656,299,-5.59,,,,,,,,,,,,
272443,1564153017133,1,2.04,0.78,0.43,1.36,1.02,0.47,0.74,0.9,-35,-4,-46,0.88,6732,44,101,43,81,803,345.0,463,459,60,123.0,408,1,370,400,116,0,0,358,6870,-19126,303,-5.59,44.680878,10.024484,29.77,173.9,0,0.0,-1,0.0,0.0,0,1.64,4.5407
272463,1564153017153,-0,2.05,0.79,0.42,1.36,1.01,0.41,0.83,0.72,-33,-2,-45,0.93,6855,48,101,43,81,802,345.0,465,464,60,123.0,408,1,374,530,116,0,0,358,6870,-31206,306,-5.59,,,,,,,,,,,,
272483,1564153017173,3,2.05,0.79,0.42,1.37,1.02,0.43,0.79,0.84,-33,-4,-44,0.9,6833,44,101,43,80,800,346.0,467,462,60,125.0,430,1,374,515,133,0,0,372,-30438,2060,312,-5.59,,,,,,,,,,,,
272503,1564153017203,0,2.06,0.79,0.43,1.36,1.02,0.47,0.79,0.76,-32,-3,-43,0.92,6684,42,101,43,81,796,348.0,461,462,60,123.0,430,1,368,540,133,0,0,362,-1246,19125,316,-5.59,,,,,,,,,,,,
272523,1564153017223,3,2.06,0.8,0.43,1.37,1.02,0.47,0.7,0.82,-32,-4,-41,0.84,6691,48,101,43,80,790,351.0,465,464,60,125.0,430,1,369,523,133,0,0,364,28553,-1268,320,-5.59,,,,,,,,,,,,
272543,1564153017243,-1,2.06,0.8,0.42,1.37,1.02,0.38,0.75,0.72,-31,-3,-40,0.84,6771,48,101,43,81,785,354.0,461,463,60,123.0,430,1,371,525,133,0,0,366,3302,230,321,-5.59,44.680874,10.024494,31.64,173.9,0,0.0,-1,0.0,0.0,0,1.65,4.5424
272563,1564153017263,3,2.06,0.8,0.43,1.38,1.02,0.36,0.74,0.78,-31,-1,-40,0.82,6883,43,101,43,80,781,355.0,470,462,60,125.0,430,1,375,512,133,0,0,370,4104,2560,321,-5.59,,,,,,,,,,,,
272583,1564153017283,0,2.07,0.8,0.43,1.38,1.02,0.43,0.74,0.65,-30,0,-39,0.86,6634,33,101,43,80,771,357.0,475,463,60,124.0,423,1,367,447,138,0,0,372,-6640,2811,326,-5.59,,,,,,,,,,,,
272603,1564153017303,2,2.08,0.8,0.43,1.37,1.03,0.46,0.61,0.79,-30,-2,-37,0.76,6727,43,101,43,80,759,358.0,466,464,60,124.0,423,1,370,528,138,0,0,368,-29978,-6458,329,-5.59,,,,,,,,,,,,
272623,1564153017323,-0,2.09,0.81,0.43,1.39,1.02,0.45,0.71,0.72,-28,-1,-37,0.84,6756,48,101,43,81,748,360.0,467,460,60,124.0,423,1,372,521,138,0,0,368,-14707,2060,332,-5.59,,,,,,,,,,,,
272643,1564153017343,3,2.1,0.82,0.43,1.38,1.02,0.46,0.6,0.84,-27,-2,-36,0.75,6885,48,101,43,80,740,360.0,473,463,60,124.0,423,1,375,396,138,0,0,371,-14707,486,336,-5.59,44.68087,10.024506,33.32,174.0,0,0.0,-1,0.0,0.0,0,1.65,4.5441
272663,1564153017363,1,2.11,0.82,0.43,1.39,1.02,0.47,0.61,0.74,-26,-0,-36,0.77,6848,41,101,43,80,731,361.0,475,465,60,123.0,423,1,374,395,138,0,0,371,-6458,-6640,338,-5.59,,,,,,,,,,,,
272683,1564153017383,1,2.12,0.82,0.43,1.39,1.03,0.5,0.56,0.74,-26,-1,-34,0.75,6845,31,101,43,80,722,362.0,476,461,60,124.0,344,1,374,455,117,0,0,373,2790,-1268,341,-5.59,,,,,,,,,,,,
272703,1564153017402,2,2.13,0.82,0.43,1.39,1.03,0.48,0.44,0.74,-24,-1,-32,0.65,6898,48,101,43,80,717,364.0,478,465,60,123.0,344,1,376,463,117,0,0,374,-1268,742,343,-5.59,,,,,,,,,,,,
272723,1564153017422,-1,2.14,0.83,0.44,1.39,1.03,0.49,0.43,0.64,-23,0,-31,0.66,6929,48,101,43,80,716,366.0,482,463,60,124.0,344,1,377,464,117,0,0,375,230,230,345,-5.59,,,,,,,,,,,,
272743,1564153017442,3,2.14,0.82,0.43,1.4,1.03,0.45,0.29,0.75,-23,-1,-30,0.54,6954,48,101,43,79,715,367.0,482,464,60,125.0,344,1,378,457,117,0,0,380,0,230,346,-5.59,44.68087,10.024517,34.19,174.0,0,0.0,-1,0.0,0.0,0,1.65,4.5457
272763,1564153017462,1,2.15,0.82,0.44,1.39,1.04,0.5,0.28,0.67,-21,0,-30,0.57,6975,43,101,43,79,712,367.0,488,466,60,123.0,344,1,379,464,117,0,0,377,0,-6656,348,-5.59,,,,,,,,,,,,
272783,1564153017482,-0,2.16,0.83,0.43,1.39,1.04,0.44,0.34,0.66,-21,1,-30,0.55,7056,45,101,43,80,711,370.0,484,465,60,123.0,346,1,382,458,121,0,0,380,486,0,350,-5.59,,,,,,,,,,,,
272803,1564153017502,-1,2.16,0.82,0.43,1.39,1.04,0.54,0.24,0.74,-21,0,-28,0.59,7115,48,101,43,79,709,370.0,486,460,60,125.0,346,1,386,526,121,0,0,383,486,742,352,-5.59,,,,,,,,,,,,
272823,1564153017522,3,2.17,0.83,0.43,1.4,1.04,0.56,0.16,0.77,-20,2,-27,0.59,7056,48,101,43,79,708,372.0,490,462,60,123.0,346,1,383,391,121,0,0,385,1,-6656,354,-5.59,,,,,,,,,,,,
272843,1564153017542,2,2.16,0.83,0.44,1.4,1.03,0.53,0.24,0.71,-19,1,-26,0.58,7072,48,101,43,79,705,373.0,487,462,60,124.0,346,1,384,510,121,0,0,382,-6656,8200,355,-5.59,44.68087,10.024529,35.62,174.0,0,0.0,-1,0.0,0.0,0,1.65,4.5474
272863,1564153017562,1,2.17,0.83,0.44,1.41,1.04,0.55,0.38,0.84,-18,-0,-26,0.67,7091,47,101,43,79,704,375.0,490,465,60,124.0,346,1,385,499,121,0,0,383,770,2278,358,-5.59,,,,,,,,,,,,
272883,1564153017582,-1,2.18,0.83,0.44,1.41,1.04,0.65,0.33,0.9,-19,-2,-25,0.73,7264,46,101,43,78,703,376.0,495,462,60,125.0,376,1,396,484,135,0,0,387,3,19125,361,-5.59,,,,,,,,,,,,
272903,1564153017602,-0,2.19,0.83,0.45,1.4,1.05,0.76,0.25,0.96,-18,-1,-24,0.8,7318,48,101,43,78,702,378.0,501,464,60,126.0,376,1,399,474,135,0,0,391,2278,-19019,362,-5.59,,,,,,,,,,,,
272923,1564153017622,3,2.19,0.83,0.44,1.41,1.04,0.79,0.13,1.0,-17,3,-23,0.8,7344,48,101,43,78,700,380.0,499,464,60,125.0,376,1,400,466,135,0,0,393,-992,17144,365,-5.59,,,,,,,,,,,,
272943,1564153017642,3,2.2,0.84,0.44,1.4,1.04,0.77,0.16,1.01,-16,3,-21,0.78,7370,48,101,43,77,699,381.0,508,464,60,125.0,376,1,402,447,135,0,0,395,19125,1,367,-5.59,44.68087,10.024543,36.21,174.0,0,0.0,-1,0.0,0.0,0,1.65,4.549
272963,1564153017662,2,2.22,0.83,0.44,1.41,1.04,0.65,0.22,0.94,-14,2,-21,0.69,7350,48,101,43,77,699,381.0,509,464,60,124.0,376,1,400,444,135,0,0,398,19125,1,370,-5.59,,,,,,,,,,,,
272983,1564153017682,0,2.24,0.84,0.44,1.4,1.05,0.51,0.28,0.83,-13,3,-22,0.58,7318,48,101,43,77,699,385.0,503,466,60,123.0,324,1,399,444,121,0,0,395,-19126,240,373,-5.59,,,,,,,,,,,,
273003,1564153017702,2,2.25,0.84,0.44,1.4,1.04,0.38,0.32,0.7,-12,3,-20,0.5,7440,49,101,42,77,698,385.0,503,469,60,123.0,324,1,406,444,121,0,0,396,-3866,-32702,375,-5.59,,,,,,,,,,,,
273023,1564153017722,2,2.26,0.85,0.45,1.41,1.05,0.27,0.41,0.64,-11,3,-16,0.49,7524,48,101,42,76,698,386.0,510,462,60,125.0,324,1,410,438,121,0,0,401,-3866,6384,378,-5.59,,,,,,,,,,,,
273043,1564153017742,2,2.26,0.84,0.45,1.41,1.04,0.2,0.48,0.6,-10,2,-16,0.53,7653,49,101,42,76,698,388.0,510,466,60,123.0,324,1,418,438,121,0,0,403,-31744,10541,382,-5.59,44.68087,10.024555,37.23,174.1,0,0.0,-1,0.0,0.0,0,1.65,4.5507
273063,1564153017762,2,2.27,0.85,0.45,1.41,1.06,0.2,0.39,0.58,-8,4,-17,0.43,7706,49,101,42,75,698,390.0,516,463,60,123.0,324,1,423,426,121,0,0,404,505,9517,385,-5.59,,,,,,,,,,,,
273083,1564153017782,0,2.26,0.86,0.45,1.42,1.06,0.25,0.32,0.62,-7,5,-14,0.4,7747,49,101,42,74,699,390.0,524,465,60,125.0,322,1,426,426,125,0,0,406,-1562,11560,388,-5.59,,,,,,,,,,,,
273103,1564153017802,-0,2.25,0.85,0.45,1.42,1.06,0.36,0.25,0.75,-7,4,-13,0.44,7697,49,101,42,74,699,396.0,527,464,60,125.0,322,1,423,415,125,0,0,414,-32702,-3414,391,-5.59,,,,,,,,,,,,
273123,1564153017822,-0,2.25,0.85,0.45,1.42,1.06,0.44,0.16,0.88,-8,3,-14,0.47,7793,49,101,42,74,700,396.0,519,465,60,125.0,322,1,429,416,125,0,0,418,6384,18584,395,-5.59,,,,,,,,,,,,
273143,1564153017842,2,2.24,0.85,0.46,1.42,1.06,0.38,0.32,0.75,-8,1,-13,0.5,7770,49,101,42,73,700,400.0,528,466,60,124.0,322,1,429,405,125,0,0,419,-8151,-3414,396,-5.59,44.68087,10.024569,38.31,174.1,0,0.0,-1,0.0,0.0,0,1.65,4.5524
273163,1564153017862,3,2.23,0.85,0.45,1.41,1.06,0.32,0.39,0.68,-7,2,-10,0.5,7864,49,101,42,73,703,405.0,525,465,60,124.0,322,1,435,396,125,0,0,419,-9211,-21944,400,181.28,,,,,,,,,,,,
273183,1564153017882,-1,2.23,0.85,0.45,1.41,1.05,0.38,0.26,0.81,-8,2,-11,0.46,7992,49,101,42,72,707,409.0,530,466,60,124.0,300,1,443,398,120,0,0,429,11560,3635,402,-5.59,,,,,,,,,,,,
273203,1564153017898,2,2.22,0.84,0.45,1.41,1.06,0.42,0.34,0.82,-9,1,-12,0.54,8071,49,101,42,71,709,411.0,540,466,60,124.0,300,1,444,391,120,0,0,431,-4059,243,403,-5.59,,,,,,,,,,,,
273223,1564153017918,0,2.21,0.85,0.45,1.41,1.05,0.39,0.24,0.84,-9,2,-9,0.46,8106,49,101,42,70,711,415.0,541,465,60,123.0,300,1,445,381,120,0,0,431,-26615,1779,405,-5.59,,,,,,,,,,,,
273243,1564153017938,2,2.2,0.85,0.45,1.42,1.05,0.46,0.33,0.94,-10,1,-9,0.57,8259,49,101,42,68,716,418.0,546,465,60,124.0,300,1,441,374,120,0,0,437,-3414,19477,407,-5.59,44.68087,10.024583,39.92,174.1,0,0.0,-1,0.0,0.0,0,1.65,4.554
273263,1564153017958,-0,2.19,0.84,0.44,1.41,1.05,0.48,0.33,0.99,-10,1,-13,0.58,8366,50,101,42,68,721,421.0,552,463,60,123.0,300,1,437,361,120,0,0,442,-21792,-18341,413,-5.59,,,,,,,,,,,,
273283,1564153017978,4,2.19,0.85,0.44,1.42,1.05,0.36,0.5,0.86,-9,1,-10,0.62,8411,50,101,42,66,724,424.0,568,465,60,125.0,280,1,440,356,116,0,0,442,-4082,-26615,415,-5.59,,,,,,,,,,,,
273303,1564153017994,2,2.19,0.84,0.45,1.41,1.05,0.45,0.5,0.88,-10,1,-10,0.67,8488,50,101,42,65,727,429.0,567,464,60,124.0,280,1,439,353,116,0,0,454,3635,-9160,418,-5.59,,,,,,,,,,,,
273323,1564153018014,-0,2.18,0.85,0.45,1.41,1.05,0.54,0.38,0.92,-10,-1,-10,0.65,8561,50,101,42,64,733,434.0,562,463,60,123.0,280,1,438,349,116,0,0,454,-768,-18108,419,-5.59,,,,,,,,,,,,
273343,1564153018034,2,2.16,0.85,0.45,1.41,1.05,0.45,0.48,0.78,-10,-1,-9,0.66,8612,50,101,42,63,741,439.0,565,465,60,124.0,280,1,433,344,116,0,0,459,-28332,30272,426,-5.59,44.68087,10.024597,41.29,174.1,0,0.0,-1,0.0,0.0,0,1.65,4.5557
273363,1564153018054,1,2.17,0.85,0.45,1.42,1.04,0.34,0.57,0.83,-10,1,-11,0.67,8644,50,101,42,63,746,444.0,573,462,60,124.0,280,1,431,345,116,0,0,465,21432,12552,427,-5.59,,,,,,,,,,,,
273383,1564153018074,2,2.15,0.85,0.44,1.41,1.05,0.47,0.51,0.86,-11,1,-14,0.69,8708,50,101,42,63,751,447.0,568,463,60,124.0,258,1,426,346,111,0,0,467,10305,-1923,429,-5.59,,,,,,,,,,,,
273403,1564153018102,2,2.15,0.84,0.44,1.41,1.05,0.59,0.37,0.94,-12,-1,-14,0.69,8745,50,101,42,62,763,451.0,573,460,60,124.0,258,1,419,341,111,0,0,472,3571,12552,434,-5.59,,,,,,,,,,,,
273423,1564153018122,1,2.15,0.85,0.44,1.4,1.05,0.58,0.2,0.9,-11,1,-15,0.61,8856,50,101,42,62,780,454.0,587,460,60,123.0,258,1,412,337,111,0,0,474,2524,3576,437,-5.59,,,,,,,,,,,,
273443,1564153018142,-1,2.16,0.84,0.44,1.4,1.05,0.66,0.12,0.92,-11,2,-16,0.67,8890,50,101,42,61,794,458.0,585,468,60,125.0,258,1,407,339,111,0,0,479,17628,16648,439,-5.59,44.68087,10.024611,42.85,174.1,0,0.0,-1,0.0,0.0,0,1.65,4.5574
273463,1564153018162,1,2.15,0.85,0.44,1.41,1.05,0.61,0.06,0.88,-11,3,-14,0.62,8979,51,101,42,61,805,462.0,593,466,60,124.0,258,1,396,341,111,0,0,482,12552,-6441,445,-5.59,,,,,,,,,,,,
273483,1564153018182,1,2.16,0.85,0.44,1.41,1.05,0.67,-0.03,0.91,-11,2,-15,0.67,9066,51,101,42,61,819,466.0,599,468,60,124.0,262,1,398,342,117,0,0,486,243,-6656,447,-5.59,,,,,,,,,,,,
273503,1564153018202,1,2.15,0.84,0.44,1.41,1.04,0.7,-0.2,0.94,-11,4,-16,0.73,9155,51,101,42,60,834,470.0,607,465,60,124.0,262,1,400,342,117,0,0,489,8488,-1562,449,-5.59,,,,,,,,,,,,
273523,1564153018222,2,2.16,0.85,0.43,1.4,1.05,0.83,-0.24,0.97,-13,2,-18,0.87,9272,36,101,42,60,844,473.0,600,477,60,124.0,262,1,404,336,117,0,0,494,-9203,771,452,-5.59,,,,,,,,,,,,
273543,1564153018242,3,2.17,0.85,0.44,1.41,1.05,0.84,-0.12,0.97,-13,1,-19,0.85,9328,41,101,42,60,848,477.0,605,464,60,124.0,262,1,406,387,117,0,0,497,-17956,-28648,457,-5.59,44.68087,10.024628,44.71,174.1,0,0.0,-1,0.0,0.0,0,1.66,4.5591
273563,1564153018262,1,2.17,0.85,0.44,1.41,1.05,0.66,0.1,0.86,-12,2,-18,0.66,9393,31,101,42,59,854,479.0,617,463,60,124.0,262,1,407,323,117,0,0,502,10305,998,458,-5.59,,,,,,,,,,,,
273583,1564153018282,1,2.18,0.86,0.44,1.41,1.05,0.64,0.11,0.86,-12,1,-18,0.65,9431,52,101,42,59,862,481.0,612,462,60,124.0,292,1,407,377,134,0,0,501,32033,-22519,462,-5.59,,,,,,,,,,,,
273603,1564153018302,3,2.19,0.85,0.44,1.41,1.05,0.78,0.03,0.97,-12,-2,-19,0.78,9412,50,101,42,59,869,484.0,608,458,60,123.0,292,1,407,367,134,0,0,504,-10483,17136,464,-5.59,,,,,,,,,,,,
273623,1564153018322,0,2.19,0.85,0.44,1.42,1.05,0.72,0.15,0.91,-12,-1,-19,0.74,9445,51,101,42,59,874,485.0,611,454,60,123.0,292,1,408,359,134,0,0,513,-6441,10408,467,-5.59,,,,,,,,,,,,
273643,1564153018342,2,2.19,0.86,0.45,1.42,1.05,0.58,0.17,0.81,-11,-2,-17,0.6,9479,50,101,42,59,878,490.0,627,468,60,124.0,292,1,409,332,134,0,0,510,-1818,-4054,475,-5.59,44.680874,10.024643,46.22,174.1,0,0.0,-1,0.0,0.0,0,1.66,4.5607
273663,1564153018362,1,2.2,0.86,0.45,1.41,1.06,0.68,0.12,0.92,-12,-2,-18,0.69,9551,48,101,42,59,880,492.0,620,459,60,123.0,292,1,410,381,134,0,0,513,-32768,16383,478,-5.59,,,,,,,,,,,,
273683,1564153018382,-1,2.19,0.86,0.45,1.42,1.05,0.65,0.27,0.87,-12,-2,-18,0.71,9620,51,101,42,58,881,495.0,628,459,60,124.0,288,1,407,382,138,0,0,515,771,2088,482,-5.59,,,,,,,,,,,,
273703,1564153018401,2,2.2,0.85,0.44,1.42,1.05,0.74,0.19,0.88,-12,-1,-18,0.76,9699,44,101,42,58,879,498.0,629,464,60,123.0,288,1,407,383,138,0,0,513,10408,16383,484,-5.59,,,,,,,,,,,,
273723,1564153018421,1,2.2,0.86,0.45,1.41,1.06,0.67,0.23,0.87,-12,-0,-18,0.7,9765,51,101,42,58,877,502.0,636,461,60,123.0,288,1,406,380,138,0,0,521,15661,-32248,487,-5.59,,,,,,,,,,,,
273743,1564153018441,2,2.2,0.86,0.45,1.42,1.06,0.68,0.2,0.88,-12,-2,-16,0.7,9915,44,101,42,58,876,504.0,635,466,60,123.0,288,1,405,394,138,0,0,522,-32248,-14,489,-5.59,44.680874,10.024659,48.04,174.1,0,0.0,-1,0.0,0.0,0,1.66,4.5624
273763,1564153018461,2,2.2,0.87,0.44,1.43,1.05,0.63,0.16,0.85,-11,-1,-16,0.65,10042,34,101,42,57,875,508.0,638,465,60,123.0,288,1,405,379,138,0,0,527,-3414,2524,491,-5.59,,,,,,,,,,,,
273783,1564153018481,0,2.2,0.86,0.44,1.42,1.06,0.53,0.08,0.93,-11,3,-17,0.54,10005,32,101,42,57,877,510.0,631,471,60,123.0,283,1,403,379,140,0,0,536,-4054,-2934,496,-5.59,,,,,,,,,,,,
273803,1564153018501,4,2.19,0.86,0.45,1.42,1.05,0.58,0.07,1.03,-11,3,-17,0.58,10032,45,101,42,57,877,515.0,631,461,60,124.0,283,1,406,382,140,0,0,544,-14,14504,501,-5.59,,,,,,,,,,,,
273823,1564153018521,2,2.2,0.87,0.44,1.43,1.05,0.61,0.11,0.95,-11,3,-17,0.62,10069,42,101,42,57,876,520.0,631,463,60,124.0,283,1,406,375,140,0,0,542,1248,14504,500,-5.59,,,,,,,,,,,,
273843,1564153018541,2,2.19,0.87,0.45,1.42,1.06,0.62,0.11,1.05,-12,3,-18,0.63,10021,51,101,42,57,874,520.0,631,465,60,123.0,283,1,404,384,140,0,0,545,1248,-506,505,-5.59,44.680878,10.024676,49.45,174.1,0,0.0,-1,0.0,0.0,0,1.66,4.5641
273863,1564153018561,0,2.19,0.87,0.45,1.42,1.06,0.64,0.04,1.1,-12,2,-17,0.64,10091,39,101,42,57,871,523.0,632,463,60,122.0,283,1,406,329,140,0,0,545,-22519,-8186,507,-5.59,,,,,,,,,,,,
273883,1564153018581,3,2.2,0.87,0.44,1.43,1.05,0.74,0.12,1.11,-12,2,-17,0.75,10129,28,101,42,57,867,526.0,632,466,60,123.0,290,1,408,389,148,0,0,541,-32248,1780,510,-5.59,,,,,,,,,,,,
273903,1564153018601,3,2.19,0.87,0.44,1.43,1.05,0.83,0.07,1.19,-12,0,-19,0.83,10157,31,101,42,57,861,526.0,641,467,60,123.0,290,1,409,339,148,0,0,549,-32248,-32248,512,-5.59,,,,,,,,,,,,
273923,1564153018621,2,2.19,0.87,0.44,1.43,1.05,0.85,0.01,1.2,-13,1,-20,0.85,10285,24,101,42,57,855,529.0,641,462,60,123.0,290,1,413,341,148,0,0,552,-9072,2104,516,-5.59,,,,,,,,,,,,
273943,1564153018641,1,2.2,0.86,0.44,1.42,1.06,0.79,0.08,1.09,-13,0,-19,0.79,10313,42,101,42,57,852,531.0,638,467,60,123.0,290,1,414,342,148,0,0,549,-22519,-22359,518,-5.59,44.680882,10.024693,51.01,174.1,0,0.0,-1,0.0,0.0,0,1.66,4.5657
273963,1564153018661,0,2.21,0.87,0.45,1.43,1.05,0.68,0.1,1.04,-12,0,-18,0.69,10439,51,101,42,58,850,536.0,645,465,60,123.0,290,1,425,398,148,0,0,556,-28648,6273,520,-5.59,,,,,,,,,,,,
273983,1564153018681,1,2.21,0.87,0.44,1.42,1.06,0.59,0.05,1.02,-11,3,-18,0.59,10469,43,101,42,58,846,539.0,638,462,60,123.0,296,1,426,283,155,0,0,557,-8186,-22263,521,-5.59,,,,,,,,,,,,
274003,1564153018703,3,2.21,0.87,0.45,1.43,1.05,0.59,0.02,1.02,-11,4,-18,0.59,10551,32,101,42,58,842,541.0,643,460,60,123.0,296,1,428,355,155,0,0,565,-2336,1780,524,-5.59,,,,,,,,,,,,
274023,1564153018723,2,2.21,0.87,0.44,1.43,1.05,0.54,0.08,0.98,-11,2,-16,0.55,10545,34,101,42,58,840,543.0,643,465,60,123.0,296,1,428,354,155,0,0,565,1779,-18032,527,-5.59,,,,,,,,,,,,
274043,1564153018743,1,2.22,0.87,0.45,1.43,1.05,0.48,0.02,1.01,-10,4,-15,0.48,10611,47,101,42,58,839,546.0,635,469,60,123.0,296,1,428,411,155,0,0,568,2524,12552,528,-5.59,44.680885,10.024712,52.06,174.1,0,0.0,-1,0.0,0.0,0,1.66,4.5674
274063,1564153018763,2,2.22,0.87,0.45,1.43,1.06,0.57,-0.18,1.1,-10,5,-17,0.6,10569,51,101,42,58,838,547.0,639,466,60,122.0,296,1,428,399,155,0,0,569,-22519,12552,534,-5.59,,,,,,,,,,,,
274083,1564153018783,2,2.22,0.88,0.44,1.44,1.06,0.67,-0.23,1.19,-10,3,-18,0.71,10629,51,101,42,59,836,548.0,643,463,60,123.0,296,1,435,400,159,0,0,568,6274,-3190,537,-5.59,,,,,,,,,,,,
274103,1564153018803,3,2.21,0.88,0.45,1.43,1.05,0.63,-0.34,1.27,-10,3,-18,0.71,10605,46,101,42,59,836,550.0,646,464,60,123.0,296,1,435,389,159,0,0,574,-32248,243,539,-5.59,,,,,,,,,,,,
274123,1564153018823,2,2.21,0.88,0.45,1.43,1.06,0.76,-0.4,1.34,-10,4,-20,0.85,10702,38,101,42,59,836,550.0,648,463,60,123.0,296,1,435,383,159,0,0,578,-32248,259,542,-5.59,,,,,,,,,,,,
274143,1564153018843,-0,2.19,0.88,0.44,1.43,1.05,0.78,-0.16,1.29,-10,3,-19,0.8,10708,25,101,42,59,833,554.0,645,467,60,123.0,296,1,435,357,159,0,0,579,2216,30208,545,-5.59,44.680885,10.024729,53.41,174.1,0,0.0,-1,0.0,0.0,0,1.66,4.569
274163,1564153018863,-0,2.19,0.87,0.44,1.44,1.05,0.64,0.01,1.02,-10,2,-18,0.64,10757,47,101,42,59,829,557.0,641,464,60,123.0,296,1,435,422,159,0,0,580,-32504,243,544,-5.59,,,,,,,,,,,,
274183,1564153018883,1,2.18,0.88,0.44,1.43,1.06,0.63,0.09,0.93,-10,3,-17,0.64,10850,51,101,42,59,826,559.0,647,465,60,123.0,313,1,435,412,171,0,0,585,6273,10432,549,-5.59,,,,,,,,,,,,
274203,1564153018903,3,2.17,0.88,0.45,1.44,1.05,0.62,-0.03,0.89,-10,1,-16,0.62,10813,50,101,42,59,822,564.0,646,465,60,123.0,313,1,435,402,171,0,0,582,12552,208,547,-5.59,,,,,,,,,,,,
274223,1564153018923,1,2.17,0.88,0.44,1.43,1.06,0.7,-0.04,0.99,-11,0,-18,0.7,10926,51,101,42,59,815,564.0,648,468,60,123.0,313,1,435,428,171,0,0,589,12552,-3210,547,-5.59,,,,,,,,,,,,
274243,1564153018943,-0,2.18,0.87,0.44,1.43,1.05,0.56,0.17,0.78,-11,3,-18,0.59,11016,41,101,42,59,806,567.0,640,472,60,123.0,313,1,435,370,171,0,0,584,1780,-4035,549,-5.59,44.680893,10.024747,54.71,174.1,0,0.0,-1,0.0,0.0,0,1.67,4.5707
274263,1564153018963,3,2.18,0.87,0.44,1.43,1.06,0.63,0.05,0.79,-11,4,-18,0.63,11029,35,101,42,59,799,569.0,642,462,60,123.0,313,1,435,371,171,0,0,595,1780,208,550,-5.59,,,,,,,,,,,,
274283,1564153018983,1,2.17,0.87,0.44,1.43,1.06,0.67,0.24,0.8,-12,3,-18,0.71,11114,53,101,42,59,794,570.0,644,462,60,123.0,321,1,434,413,178,0,0,594,774,-3210,556,-5.59,,,,,,,,,,,,
274303,1564153018993,1,2.18,0.88,0.45,1.43,1.06,0.66,0.27,0.76,-12,3,-18,0.71,11147,53,101,42,58,786,574.0,651,465,60,123.0,321,1,427,402,178,0,0,591,774,243,556,-5.59,,,,,,,,,,,,
274323,1564153019013,1,2.18,0.88,0.44,1.43,1.05,0.66,0.26,0.88,-12,2,-19,0.7,11107,52,101,42,58,777,574.0,658,469,60,123.0,321,1,427,390,178,0,0,599,259,3472,557,-5.59,,,,,,,,,,,,
274343,1564153019033,1,2.19,0.88,0.45,1.43,1.05,0.6,0.43,0.69,-12,1,-18,0.74,11107,41,101,42,58,771,577.0,647,472,60,123.0,321,1,427,366,178,0,0,595,30208,3472,560,-5.59,44.680897,10.024765,55.73,174.1,0,0.0,-1,0.0,0.0,0,1.67,4.5724
274363,1564153019053,3,2.2,0.88,0.44,1.44,1.05,0.69,0.26,0.82,-12,0,-17,0.73,11200,24,101,42,58,767,578.0,645,465,60,123.0,321,1,426,357,178,0,0,602,10432,17344,562,-5.59,,,,,,,,,,,,
274383,1564153019073,1,2.2,0.88,0.45,1.44,1.06,0.58,0.44,0.64,-12,2,-17,0.72,11187,52,101,42,58,764,582.0,644,463,60,123.0,317,1,426,420,179,0,0,601,8488,30227,566,-5.59,,,,,,,,,,,,
274403,1564153019103,4,2.2,0.88,0.45,1.44,1.06,0.61,0.26,0.77,-13,3,-19,0.66,11227,53,101,42,58,760,582.0,637,468,60,123.0,317,1,426,408,179,0,0,602,15649,-7939,566,-5.59,,,,,,,,,,,,
274423,1564153019123,1,2.22,0.88,0.45,1.44,1.05,0.57,0.32,0.56,-12,3,-18,0.66,11308,51,101,42,57,758,583.0,650,466,60,123.0,317,1,418,401,179,0,0,604,15649,23619,567,-5.59,,,,,,,,,,,,
274443,1564153019143,5,2.22,0.89,0.44,1.44,1.05,0.61,0.32,0.7,-11,1,-19,0.69,11349,38,101,42,57,758,584.0,648,463,60,123.0,317,1,418,358,179,0,0,600,-4035,5344,571,-5.59,44.680904,10.024783,56.65,174.1,0,0.0,-1,0.0,0.0,0,1.67,4.574
274463,1564153019163,1,2.21,0.88,0.45,1.43,1.07,0.62,0.4,0.66,-12,-0,-18,0.74,11329,36,101,42,57,758,586.0,656,466,60,122.0,317,1,418,410,179,0,0,611,-1894,19621,575,-5.59,,,,,,,,,,,,
274483,1564153019183,3,2.21,0.89,0.45,1.44,1.06,0.61,0.36,0.79,-12,0,-18,0.71,11295,52,101,42,57,759,590.0,661,468,60,123.0,305,1,419,409,176,0,0,607,-32504,5344,577,-5.59,,,,,,,,,,,,
274503,1564153019203,2,2.22,0.89,0.45,1.44,1.06,0.54,0.43,0.7,-11,-2,-16,0.69,11349,53,101,42,57,760,592.0,661,468,60,122.0,305,1,418,399,176,0,0,610,-28648,3395,579,-5.59,,,,,,,,,,,,
274523,1564153019223,1,2.21,0.89,0.45,1.44,1.06,0.63,0.56,0.81,-11,-2,-17,0.84,11453,53,101,42,57,761,592.0,658,470,60,123.0,305,1,417,392,176,0,0,611,6273,28675,577,-5.59,,,,,,,,,,,,
274543,1564153019243,3,2.21,0.88,0.44,1.43,1.07,0.72,0.32,0.77,-11,-1,-17,0.79,11496,36,101,42,57,762,593.0,651,468,60,124.0,305,1,417,289,176,0,0,611,3472,-30139,577,-5.59,44.680908,10.024801,57.68,174.1,0,0.0,-1,0.0,0.0,0,1.67,4.5757
274563,1564153019263,1,2.21,0.89,0.45,1.44,1.06,0.67,0.44,0.57,-11,-1,-15,0.8,11488,45,101,42,57,763,594.0,645,465,60,123.0,305,1,417,409,176,0,0,615,-13043,26688,581,-5.59,,,,,,,,,,,,
274583,1564153019283,1,2.19,0.9,0.45,1.45,1.06,0.64,0.6,0.71,-11,0,-16,0.88,11412,53,101,42,57,764,596.0,658,462,60,122.0,305,1,418,409,178,0,0,621,17344,19621,584,-5.59,,,,,,,,,,,,
274603,1564153019303,1,2.19,0.89,0.43,1.44,1.07,0.66,0.36,0.61,-12,-0,-16,0.75,11336,54,101,42,57,763,599.0,656,462,60,123.0,305,1,418,396,178,0,0,617,30227,3395,585,-5.59,,,,,,,,,,,,
274623,1564153019323,2,2.19,0.9,0.45,1.45,1.07,0.64,0.5,0.44,-11,1,-16,0.81,11377,54,101,42,57,762,598.0,651,464,60,123.0,305,1,418,388,178,0,0,620,23619,3403,584,-5.59,,,,,,,,,,,,
274643,1564153019343,3,2.2,0.89,0.44,1.45,1.06,0.71,0.49,0.54,-11,-0,-16,0.86,11405,26,101,42,57,758,600.0,653,462,60,123.0,305,1,418,350,178,0,0,617,-3210,19621,584,-5.59,44.680916,10.02482,58.49,174.1,0,0.0,-1,0.0,0.0,0,1.67,4.5774
274663,1564153019363,2,2.19,0.89,0.45,1.44,1.06,0.68,0.56,0.42,-12,-2,-15,0.88,11432,41,101,42,57,754,603.0,657,464,60,123.0,305,1,418,413,178,0,0,616,-7939,243,586,-5.59,,,,,,,,,,,,
274683,1564153019383,1,2.19,0.89,0.45,1.44,1.06,0.66,0.48,0.57,-12,-4,-16,0.82,11377,40,101,42,57,750,601.0,657,466,60,123.0,271,1,418,358,158,0,0,621,-7939,-3210,587,-5.59,,,,,,,,,,,,
274703,1564153019402,2,2.19,0.89,0.45,1.45,1.07,0.63,0.43,0.48,-13,-4,-15,0.76,11474,53,101,42,58,747,605.0,661,465,60,122.0,271,1,423,369,158,0,0,618,-3820,-7939,585,-5.59,,,,,,,,,,,,
274723,1564153019422,2,2.19,0.89,0.45,1.44,1.06,0.65,0.59,0.37,-13,-3,-14,0.88,11602,54,101,42,57,747,603.0,652,466,60,123.0,271,1,417,361,158,0,0,621,-7939,-30139,584,-5.59,,,,,,,,,,,,
274743,1564153019442,0,2.19,0.89,0.44,1.44,1.07,0.71,0.68,0.53,-13,-3,-15,0.99,11617,43,101,42,57,747,605.0,652,468,60,123.0,271,1,417,417,158,0,0,625,-7939,16529,582,-5.59,44.680923,10.024838,59.7,174.1,0,0.0,-1,0.0,0.0,0,1.67,4.5791
274763,1564153019462,1,2.19,0.89,0.45,1.45,1.06,0.79,0.45,0.42,-14,-1,-15,0.91,11531,35,101,42,57,751,606.0,649,465,60,122.0,271,1,417,360,158,0,0,627,-23055,26688,583,-5.59,,,,,,,,,,,,
274783,1564153019482,1,2.2,0.89,0.44,1.44,1.06,0.7,0.61,0.29,-13,1,-16,0.93,11329,36,101,42,58,755,605.0,643,462,60,123.0,271,1,425,424,159,0,0,621,-3820,-3446,584,-5.59,,,,,,,,,,,,
274803,1564153019502,1,2.2,0.88,0.45,1.44,1.06,0.76,0.56,0.46,-14,0,-18,0.95,11322,53,101,42,58,758,607.0,641,461,60,123.0,271,1,425,415,159,0,0,625,-3820,19621,584,-5.59,,,,,,,,,,,,
274823,1564153019522,2,2.22,0.89,0.44,1.44,1.07,0.75,0.56,0.25,-14,1,-18,0.94,11295,54,101,42,59,762,605.0,656,460,60,123.0,271,1,432,413,159,0,0,624,-3820,-23055,587,-5.59,,,,,,,,,,,,
274843,1564153019542,2,2.23,0.9,0.45,1.44,1.06,0.81,0.66,0.42,-13,1,-19,1.05,11370,29,101,42,59,762,603.0,652,461,60,123.0,271,1,430,367,159,0,0,620,-7939,-3820,586,-5.59,44.680931,10.024857,59.59,174.1,0,0.0,-1,0.0,0.0,0,1.68,4.5807
274863,1564153019562,3,2.24,0.9,0.45,1.44,1.06,0.83,0.65,0.38,-13,-2,-18,1.06,11517,36,101,42,58,761,603.0,650,464,60,122.0,271,1,422,361,159,0,0,622,-23055,4956,589,-5.59,,,,,,,,,,,,
274883,1564153019582,3,2.25,0.9,0.45,1.45,1.06,0.81,0.66,0.33,-13,-4,-17,1.05,11726,52,101,42,57,766,605.0,657,462,60,123.0,311,1,417,414,183,0,0,622,-3820,17344,587,-5.59,,,,,,,,,,,,
274903,1564153019602,1,2.26,0.9,0.45,1.45,1.06,0.77,0.71,0.29,-12,-3,-17,1.05,11799,53,101,42,57,770,604.0,661,467,60,122.0,311,1,417,404,183,0,0,619,5344,3403,588,-5.59,,,,,,,,,,,,
274923,1564153019622,1,2.25,0.9,0.45,1.45,1.08,0.75,0.71,0.39,-11,1,-17,1.03,11807,48,101,42,56,775,603.0,667,468,60,123.0,311,1,411,384,183,0,0,629,-768,-14655,592,-5.59,,,,,,,,,,,,
274943,1564153019642,3,2.24,0.9,0.45,1.46,1.07,0.72,0.59,0.55,-11,1,-17,0.93,11733,47,101,42,56,779,606.0,658,468,60,123.0,311,1,411,400,183,0,0,632,-23055,-14655,594,-5.59,44.680939,10.024874,59.47,174.1,0,0.0,-1,0.0,0.0,0,1.68,4.5824
274963,1564153019662,4,2.23,0.9,0.46,1.45,1.08,0.67,0.39,0.52,-10,0,-16,0.78,11602,54,100,42,57,779,607.0,644,470,60,123.0,311,1,417,403,183,0,0,631,-23055,19320,598,-5.59,,,,,,,,,,,,
274983,1564153019682,2,2.21,0.92,0.46,1.46,1.07,0.68,0.52,0.44,-10,-3,-13,0.86,11391,55,100,42,57,777,608.0,647,470,60,123.0,287,1,418,390,172,0,0,627,-3446,-18357,598,-5.59,,,,,,,,,,,,
275003,1564153019702,2,2.21,0.91,0.45,1.46,1.07,0.8,0.57,0.59,-11,-4,-15,0.99,11467,54,100,42,57,772,607.0,651,465,60,123.0,287,1,417,381,172,0,0,630,19621,26688,599,-5.59,,,,,,,,,,,,
275023,1564153019722,1,2.22,0.91,0.46,1.46,1.08,0.88,0.39,0.55,-11,-1,-15,0.97,11645,54,100,42,57,766,608.0,656,466,60,122.0,287,1,417,372,172,0,0,633,17740,28675,598,-5.59,,,,,,,,,,,,
275043,1564153019742,3,2.21,0.91,0.45,1.45,1.07,0.9,0.22,0.4,-11,2,-15,0.93,11837,50,100,42,57,760,610.0,658,462,60,122.0,287,1,417,362,172,0,0,630,-28304,28675,596,-5.59,44.680946,10.024891,59.6,174.1,0,0.0,-1,0.0,0.0,0,1.68,4.5841
275063,1564153019762,3,2.2,0.9,0.45,1.46,1.07,0.92,0.08,0.35,-11,3,-15,0.92,11957,52,100,42,59,755,613.0,660,462,60,123.0,287,1,428,432,172,0,0,629,-28304,-16883,596,-5.59,,,,,,,,,,,,
275083,1564153019782,4,2.2,0.9,0.45,1.46,1.07,0.91,-0.02,0.31,-11,6,-15,0.91,12019,60,100,42,60,752,616.0,661,464,60,122.0,322,1,434,431,193,0,0,630,19304,-2580,597,-5.59,,,,,,,,,,,,
275103,1564153019802,3,2.2,0.9,0.45,1.45,1.07,0.93,-0.12,0.29,-11,7,-16,0.94,12026,61,100,42,60,752,617.0,663,462,60,123.0,322,1,434,418,193,0,0,641,3403,6208,598,-5.59,,,,,,,,,,,,
275123,1564153019822,3,2.2,0.91,0.45,1.46,1.07,0.94,-0.21,0.27,-11,8,-16,0.96,12042,61,100,42,60,754,617.0,663,464,60,122.0,322,1,434,406,193,0,0,641,19320,-4876,603,-5.59,,,,,,,,,,,,
275143,1564153019842,3,2.19,0.91,0.45,1.45,1.07,0.93,-0.22,0.23,-10,9,-15,0.96,11935,37,100,42,61,758,621.0,661,462,60,123.0,322,1,440,386,193,0,0,643,-18357,-2830,603,-5.59,44.680958,10.024907,60.57,174.1,0,0.0,-1,0.0,0.0,0,1.68,4.5857
275163,1564153019862,4,2.18,0.91,0.45,1.45,1.07,0.96,-0.28,0.25,-10,9,-16,1.0,11996,60,100,42,61,761,620.0,658,463,60,122.0,322,1,440,449,193,0,0,642,19320,-4876,606,-5.59,,,,,,,,,,,,
275183,1564153019882,3,2.18,0.91,0.45,1.46,1.07,0.95,-0.32,0.24,-10,10,-15,1.0,11988,60,100,42,61,764,623.0,662,461,60,123.0,329,1,440,437,200,0,0,645,17336,-2580,607,-5.59,,,,,,,,,,,,
275203,1564153019902,1,2.17,0.91,0.45,1.45,1.07,0.99,-0.4,0.25,-10,9,-16,1.07,12096,61,100,42,61,767,625.0,657,463,60,122.0,329,1,440,424,200,0,0,650,-1346,11566,607,-5.59,,,,,,,,,,,,
275223,1564153019922,0,2.18,0.91,0.45,1.46,1.07,1.03,-0.52,0.32,-10,8,-17,1.15,12120,61,100,42,61,769,625.0,657,461,60,123.0,329,1,440,411,200,0,0,653,-1346,6208,609,-5.59,,,,,,,,,,,,
275243,1564153019942,1,2.18,0.9,0.45,1.45,1.08,1.08,-0.49,0.32,-11,8,-18,1.19,12167,59,100,42,61,770,628.0,653,462,60,123.0,329,1,440,399,200,0,0,649,-16046,31988,611,-5.59,44.680965,10.024924,60.76,174.1,0,0.0,-1,0.0,0.0,0,1.68,4.5874
275263,1564153019962,2,2.18,0.9,0.45,1.45,1.07,1.12,-0.48,0.4,-11,9,-19,1.22,12167,61,100,42,61,768,630.0,646,465,60,122.0,329,1,440,396,200,0,0,654,966,-3038,612,-5.59,,,,,,,,,,,,
275283,1564153019982,2,2.17,0.91,0.45,1.45,1.07,1.18,-0.33,0.5,-12,9,-20,1.22,12199,61,100,42,61,765,631.0,660,468,60,123.0,298,1,440,396,183,0,0,661,771,1549,615,-5.59,,,,,,,,,,,,
275303,1564153019994,2,2.16,0.91,0.44,1.45,1.07,1.2,-0.09,0.48,-12,8,-20,1.2,12295,43,100,42,62,762,634.0,657,465,60,123.0,298,1,440,459,183,0,0,658,-2836,2024,614,-5.59,,,,,,,,,,,,
275323,1564153020014,3,2.14,0.9,0.45,1.45,1.06,1.18,0.12,0.46,-13,6,-18,1.18,12335,49,100,42,61,759,637.0,655,467,60,122.0,298,1,440,386,183,0,0,655,-10251,24583,615,-5.59,,,,,,,,,,,,
275343,1564153020034,3,2.12,0.91,0.45,1.44,1.06,1.13,0.23,0.39,-13,3,-16,1.16,12262,59,100,42,62,758,638.0,661,466,60,123.0,298,1,440,402,183,0,0,657,-10251,31988,614,-5.59,44.680977,10.02494,61.88,174.1,0,0.0,-1,0.0,0.0,0,1.68,4.589
275363,1564153020054,2,2.11,0.9,0.45,1.44,1.07,1.05,0.27,0.44,-14,1,-16,1.09,12222,60,100,42,62,757,638.0,657,468,60,122.0,298,1,440,402,183,0,0,662,16599,-27404,617,-5.59,,,,,,,,,,,,
275383,1564153020074,1,2.11,0.9,0.45,1.44,1.06,1.02,0.07,0.59,-15,-1,-18,1.02,12278,61,100,42,62,758,643.0,671,469,60,122.0,303,1,440,402,187,0,0,663,11776,-10344,618,-5.59,,,,,,,,,,,,
275403,1564153020102,3,2.11,0.9,0.44,1.44,1.07,0.98,0.01,0.69,-16,-4,-19,0.98,12384,55,99,42,62,759,640.0,663,461,60,122.0,303,1,440,402,187,0,0,663,-3584,-10344,617,-5.59,,,,,,,,,,,,
