"Interval"|"ms"|0|0|1,"Utc"|"ms"|0|0|1,"FB_p"|"bar"|0|300|50,"Volant"|"F"|0.0|300.0|50,"xFR"|"mm"|0.0|5.0|50,"xRR"|"mm"|0.0|5.0|50,"xFL"|"mm"|0.0|5.0|50,"xRL"|"mm"|0.0|5.0|50,"AccelX"|"G"|-3.0|3.0|50,"AccelY"|"G"|-3.0|3.0|50,"AccelZ"|"G"|-3.0|3.0|50,"Yaw"|"Deg/Sec"|-120|120|50,"Pitch"|"Deg/Sec"|-120|120|50,"Roll"|"Deg/Sec"|-120|120|50,"Gsum"|"G"|0.0|3.0|50,"RPM"|""|0|14000|50,"TPS"|"%"|0|100|50,"WaterTemp"|"?C"|0|300|50,"AirTemp"|"?C"|-1000|1000|50,"MAP"|"KPa"|0|255|50,"Lambda"|""|0|1024|50,"WheelSpeed"|"MPH"|0.0|150.0|50,"OilPress"|"PSI"|0|150|50,"FuelPress"|"PSI"|0|150|50,"OilTemp"|"F"|0|300|50,"Battery"|"Volts"|0.0|20.0|50,"FuelCon"|"L/h"|-1000|1000|50,"Gear"|""|0|10|50,"Advance"|"Deg"|-360|360|50,"Injection"|"ms"|-1000|1000|50,"FuelCon"|"L/100km"|-1000|1000|50,"LC_But_Pres"|""|-1000|1000|50,"LC_Active"|""|-1000|1000|50,"RD_Speed"|""|-1000|1000|50,"RUD_Speed"|""|-1000|1000|50,"LD_Speed"|""|-1000|1000|50,"LUD_Speed"|""|-1000|1000|50,"Ana1"|"bar"|-1000.0|1000.0|50,"Latitude"|"Degrees"|-180.0|180.0|10,"Longitude"|"Degrees"|-180.0|180.0|10,"Speed"|"kph"|0.0|150.0|10,"Altitude"|"m"|0.0|4000.0|10,"LapCount"|""|0|0|10,"LapTime"|"Min"|0.0|0.0|10,"Sector"|""|0|0|10,"SectorTime"|"Min"|0.0|0.0|10,"ElapsedTime"|"Min"|0.0|0.0|10,"CurrentLap"|""|0|0|10,"Distance"|"km"|0.0|0.0|10,"SessionTime"|"Min"|0.0|0.0|10
353163,1564151700584,-0,2.48,0.94,0.31,1.43,1.1,0.82,-0.59,0.49,18,0,22,1.01,6658,11,94,43,39,924,492.0,488,464,60,124.0,103,1,310,204,51,0,0,748,243,-28648,492,-5.59,,,,,,,,,,,,
353183,1564151700604,0,2.47,0.95,0.31,1.43,1.09,0.94,-0.63,0.44,18,-0,23,1.13,6670,11,94,43,39,925,493.0,487,466,60,124.0,103,1,310,204,51,0,0,748,-16384,11560,493,-5.59,,,,,,,,,,,,
353203,1564151700624,3,2.47,0.95,0.31,1.43,1.09,0.87,-0.59,0.49,18,-0,23,1.05,6663,11,94,43,39,926,491.0,490,464,60,123.0,103,1,310,204,51,0,0,748,243,10408,492,-5.59,,,,,,,,,,,,
353223,1564151700644,-1,2.48,0.95,0.31,1.43,1.1,0.94,-0.64,0.42,17,-1,23,1.14,6651,11,94,43,39,926,489.0,489,464,60,124.0,103,1,310,204,51,0,0,345,-4054,-22519,818,-5.59,,,,,,,,,,,,
353243,1564151700664,3,2.45,0.95,0.31,1.43,1.09,0.87,-0.58,0.47,18,-2,23,1.05,6672,11,94,43,39,925,818.0,492,468,60,123.0,103,1,310,204,51,0,0,345,-26615,2524,818,-5.59,44.681358,10.025061,48.7,174.9,0,0.0,-1,0.0,0.0,0,2.41,5.8874
353263,1564151700684,-1,2.47,0.95,0.31,1.43,1.1,0.94,-0.55,0.38,18,0,23,1.09,6656,11,94,43,39,924,483.0,489,465,60,125.0,106,1,310,204,51,0,0,345,12552,15661,483,-5.59,,,,,,,,,,,,
353283,1564151700705,1,2.47,0.95,0.31,1.43,1.1,0.88,-0.6,0.53,17,-1,24,1.06,6653,12,94,43,40,923,487.0,492,465,60,122.0,106,1,317,204,51,0,0,345,6193,15661,485,-5.59,,,,,,,,,,,,
353303,1564151700725,-1,2.47,0.95,0.31,1.43,1.1,0.86,-0.58,0.47,18,2,23,1.04,6630,12,94,43,39,923,487.0,493,463,60,125.0,106,1,310,204,51,0,0,345,6193,2109,488,-5.59,,,,,,,,,,,,
353323,1564151700745,-0,2.47,0.95,0.31,1.43,1.09,0.95,-0.62,0.47,17,-1,24,1.14,6630,12,94,43,40,924,487.0,487,466,60,124.0,106,1,317,204,51,0,0,345,16408,2109,487,-5.59,,,,,,,,,,,,
353343,1564151700765,4,2.46,0.94,0.31,1.43,1.1,0.8,-0.59,0.51,17,-0,23,1.0,6611,12,94,43,40,925,485.0,488,465,60,123.0,106,1,317,205,51,0,0,345,16408,771,485,-5.59,44.681347,10.025071,48.0,174.8,0,0.0,-1,0.0,0.0,0,2.41,5.889
353363,1564151700785,-2,2.46,0.94,0.32,1.43,1.09,0.93,-0.59,0.33,17,2,23,1.1,6611,12,94,43,40,928,485.0,486,463,60,124.0,105,1,317,205,51,0,0,345,16408,-9216,485,-5.59,,,,,,,,,,,,
353383,1564151700804,1,2.47,0.95,0.32,1.43,1.1,0.88,-0.6,0.42,16,1,23,1.06,6560,12,94,43,40,929,485.0,483,468,60,123.0,105,1,316,205,51,0,0,465,6193,1,486,-5.59,,,,,,,,,,,,
353403,1564151700824,-0,2.46,0.95,0.31,1.44,1.09,0.87,-0.54,0.36,17,2,22,1.02,6537,12,94,43,40,930,485.0,482,465,60,123.0,105,1,316,205,51,0,0,470,16408,-9216,485,-5.59,,,,,,,,,,,,
353423,1564151700844,-0,2.46,0.95,0.31,1.43,1.1,0.94,-0.61,0.35,16,0,22,1.12,6514,13,94,43,40,931,483.0,480,463,60,125.0,105,1,316,205,51,0,0,470,-23623,998,483,-5.59,,,,,,,,,,,,
353443,1564151700864,3,2.45,0.94,0.31,1.44,1.09,0.83,-0.53,0.39,16,0,23,0.99,6549,15,94,43,41,930,484.0,481,466,60,124.0,105,1,323,207,51,0,0,472,2211,3,482,-5.59,44.681339,10.025081,47.68,174.8,0,0.0,-1,0.0,0.0,0,2.41,5.8907
353463,1564151700884,-1,2.46,0.95,0.31,1.43,1.09,0.92,-0.51,0.38,16,3,22,1.05,6537,16,94,43,41,930,482.0,480,464,60,123.0,105,1,323,207,51,0,0,474,2211,1,482,-5.59,,,,,,,,,,,,
353483,1564151700904,1,2.46,0.95,0.32,1.43,1.09,0.95,-0.58,0.43,16,0,22,1.11,6542,16,94,43,42,931,483.0,476,464,60,125.0,105,1,330,208,51,0,0,470,2211,-1818,483,-5.59,,,,,,,,,,,,
353503,1564151700924,2,2.46,0.95,0.31,1.43,1.1,0.81,-0.51,0.48,16,2,20,0.96,6542,16,94,43,43,931,480.0,481,462,60,122.0,105,1,337,210,51,0,0,470,2211,-6656,480,-5.59,,,,,,,,,,,,
353523,1564151700944,-0,2.45,0.94,0.31,1.43,1.1,0.94,-0.52,0.38,16,3,21,1.07,6551,16,94,43,43,933,481.0,486,462,60,124.0,105,1,337,210,51,0,0,471,2211,3,481,-5.59,,,,,,,,,,,,
353543,1564151700964,1,2.46,0.95,0.32,1.43,1.1,0.91,-0.54,0.49,15,-1,22,1.06,6537,16,94,43,43,934,479.0,485,465,60,124.0,105,1,337,210,51,0,0,472,17628,248,479,-5.59,44.681324,10.025089,47.58,174.8,0,0.0,-1,0.0,0.0,0,2.41,5.8924
353563,1564151700984,-0,2.45,0.95,0.31,1.44,1.09,0.79,-0.48,0.5,16,0,20,0.93,6558,16,94,43,44,935,478.0,487,464,60,124.0,108,1,344,211,52,0,0,466,17628,1,478,-5.59,,,,,,,,,,,,
353583,1564151700996,0,2.45,0.95,0.31,1.44,1.09,0.92,-0.5,0.37,15,1,21,1.04,6572,16,94,43,44,936,478.0,485,462,60,124.0,108,1,344,211,52,0,0,468,17628,-6441,476,-5.59,,,,,,,,,,,,
353603,1564151701016,1,2.46,0.95,0.32,1.44,1.09,0.83,-0.49,0.48,15,-1,21,0.96,6578,16,94,43,44,936,477.0,485,466,60,123.0,108,1,344,211,52,0,0,640,17628,1,477,-5.59,,,,,,,,,,,,
353623,1564151701036,0,2.45,0.95,0.32,1.44,1.09,0.85,-0.44,0.43,15,1,20,0.96,6578,16,94,43,44,939,476.0,485,463,60,125.0,108,1,344,211,52,0,0,640,-9160,-10483,476,-5.59,,,,,,,,,,,,
353643,1564151701056,-0,2.46,0.95,0.32,1.43,1.1,0.88,-0.49,0.48,15,-1,19,1.01,6592,16,94,43,45,941,475.0,484,467,60,125.0,108,1,351,213,52,0,0,640,-9160,-10483,477,-5.59,44.681316,10.025098,47.22,174.8,0,0.0,-1,0.0,0.0,0,2.41,5.8941
353663,1564151701076,3,2.46,0.95,0.31,1.43,1.1,0.85,-0.47,0.51,15,0,19,0.97,6613,16,94,43,44,944,478.0,486,464,60,124.0,110,1,345,138,53,0,0,463,14488,505,478,-5.59,,,,,,,,,,,,
353683,1564151701104,-1,2.46,0.95,0.31,1.44,1.09,0.93,-0.45,0.5,15,0,19,1.04,6599,16,94,43,45,949,476.0,484,463,60,126.0,110,1,351,211,53,0,0,464,2524,-899,476,-5.59,,,,,,,,,,,,
353703,1564151701124,3,2.46,0.94,0.31,1.44,1.1,0.8,-0.5,0.64,15,1,18,0.94,6627,17,94,43,45,953,476.0,485,464,60,123.0,110,1,352,213,53,0,0,465,-26615,-899,475,-5.59,,,,,,,,,,,,
353723,1564151701144,-0,2.45,0.95,0.31,1.44,1.1,0.88,-0.47,0.51,15,4,18,1.0,6595,17,94,43,45,964,475.0,486,465,60,124.0,110,1,351,213,53,0,0,465,2524,32033,475,-5.59,,,,,,,,,,,,
353743,1564151701164,1,2.46,0.95,0.31,1.44,1.09,0.95,-0.52,0.54,15,0,20,1.08,6613,17,94,43,45,977,472.0,485,465,60,124.0,110,1,352,213,53,0,0,463,2524,-1562,472,-5.59,44.681305,10.025105,47.04,174.9,0,0.0,-1,0.0,0.0,0,2.41,5.8957
353763,1564151701184,-0,2.45,0.95,0.32,1.44,1.09,0.79,-0.51,0.56,15,1,18,0.94,6641,17,94,43,45,984,475.0,487,466,60,124.0,112,1,352,213,53,0,0,462,-26615,-899,472,-5.59,,,,,,,,,,,,
353783,1564151701203,1,2.45,0.95,0.31,1.43,1.09,0.91,-0.51,0.46,15,3,18,1.05,6672,17,94,43,45,995,473.0,486,464,60,125.0,112,1,352,213,53,0,0,462,-26615,3580,473,-5.59,,,,,,,,,,,,
353803,1564151701223,3,2.45,0.95,0.31,1.43,1.1,0.84,-0.55,0.54,14,3,18,1.0,6651,17,94,43,45,1010,473.0,491,465,60,123.0,112,1,352,213,53,0,0,465,-8985,-899,473,-5.59,,,,,,,,,,,,
353823,1564151701243,-1,2.46,0.95,0.31,1.43,1.1,0.87,-0.51,0.45,15,3,19,1.01,6656,17,94,43,45,1021,472.0,491,461,60,125.0,112,1,352,213,53,0,0,465,-6387,-10483,472,-5.59,,,,,,,,,,,,
353843,1564151701263,3,2.46,0.95,0.31,1.44,1.09,0.8,-0.48,0.49,15,2,19,0.93,6653,17,94,43,45,1029,472.0,491,468,60,123.0,112,1,352,213,53,0,0,469,-6387,505,472,-5.59,44.681294,10.025111,46.44,174.9,0,0.0,-1,0.0,0.0,0,2.41,5.8974
353863,1564151701283,-1,2.46,0.95,0.31,1.44,1.09,0.86,-0.39,0.51,15,4,18,0.94,6549,17,94,43,45,1039,473.0,489,462,60,125.0,112,1,351,214,53,0,0,469,2524,8488,472,-5.59,,,,,,,,,,,,
353883,1564151701303,0,2.46,0.95,0.31,1.43,1.1,0.85,-0.48,0.55,14,2,19,0.97,6461,17,94,43,46,1047,472.0,483,462,60,125.0,112,1,357,214,53,0,0,469,2524,1,472,-5.59,,,,,,,,,,,,
353903,1564151701323,2,2.46,0.95,0.31,1.44,1.09,0.67,-0.52,0.69,14,1,18,0.85,6410,17,94,43,46,1056,474.0,479,464,60,123.0,112,1,357,214,53,0,0,43,2524,-10483,474,-5.59,,,,,,,,,,,,
353923,1564151701343,3,2.47,0.95,0.31,1.44,1.09,0.68,-0.49,0.67,14,3,19,0.84,6360,17,94,43,47,1058,471.0,476,464,60,124.0,112,1,363,215,53,0,0,463,2524,32033,471,-5.59,,,,,,,,,,,,
353943,1564151701363,-1,2.47,0.95,0.31,1.44,1.09,0.82,-0.47,0.61,14,4,20,0.94,6351,17,94,43,47,1061,473.0,475,465,60,124.0,112,1,363,215,53,0,0,461,3571,-10483,473,-5.59,44.681282,10.025118,46.39,174.9,0,0.0,-1,0.0,0.0,0,2.41,5.899
353963,1564151701383,0,2.47,0.95,0.31,1.44,1.09,0.86,-0.53,0.61,14,0,20,1.01,6381,18,94,43,47,1064,473.0,468,467,60,124.0,107,1,363,215,51,0,0,460,3571,-17956,473,-5.59,,,,,,,,,,,,
353983,1564151701403,3,2.48,0.95,0.32,1.44,1.09,0.71,-0.55,0.73,14,-0,20,0.9,6441,18,94,43,48,1065,473.0,471,466,60,123.0,107,1,367,221,51,0,0,465,3571,-899,472,-5.59,,,,,,,,,,,,
354003,1564151701423,1,2.47,0.95,0.31,1.43,1.1,0.69,-0.49,0.64,15,3,21,0.84,6452,18,94,43,47,1065,474.0,474,463,60,125.0,107,1,364,221,51,0,0,461,-3267,8488,474,-5.59,,,,,,,,,,,,
354023,1564151701443,-2,2.47,0.95,0.31,1.43,1.1,0.82,-0.5,0.51,15,3,21,0.96,6456,18,94,43,48,1067,474.0,472,461,60,125.0,107,1,367,216,51,0,0,463,15649,1,474,-5.59,,,,,,,,,,,,
354043,1564151701463,1,2.48,0.95,0.32,1.43,1.1,0.79,-0.55,0.6,15,2,22,0.96,6483,18,94,43,48,1067,475.0,474,467,60,123.0,107,1,367,221,51,0,0,465,10305,-899,472,-5.59,44.681274,10.025123,46.29,174.9,0,0.0,-1,0.0,0.0,0,2.42,5.9007
354063,1564151701483,3,2.48,0.95,0.31,1.44,1.09,0.73,-0.56,0.59,15,3,21,0.92,6467,18,94,43,48,1066,473.0,476,464,60,124.0,113,1,367,221,54,0,0,463,3571,-10483,473,-5.59,,,,,,,,,,,,
354083,1564151701504,-1,2.48,0.95,0.31,1.43,1.09,0.82,-0.55,0.49,15,2,22,0.99,6472,18,94,43,48,1066,472.0,478,465,60,125.0,113,1,367,221,54,0,0,460,8488,32033,472,-5.59,,,,,,,,,,,,
354103,1564151701524,2,2.49,0.95,0.31,1.44,1.09,0.74,-0.6,0.56,15,2,22,0.95,6483,18,94,43,48,1066,472.0,478,466,60,124.0,113,1,367,221,54,0,0,463,8488,-899,472,-5.59,,,,,,,,,,,,
354123,1564151701544,3,2.48,0.95,0.3,1.43,1.1,0.75,-0.58,0.62,15,4,21,0.95,6483,18,94,43,48,1064,471.0,482,464,60,123.0,113,1,367,221,54,0,0,466,15649,505,471,-5.59,,,,,,,,,,,,
354143,1564151701564,-2,2.48,0.95,0.32,1.43,1.09,0.81,-0.49,0.63,15,3,21,0.95,6454,18,94,43,48,1062,473.0,480,466,60,125.0,113,1,367,221,54,0,0,465,3571,1,472,-5.59,44.681263,10.025127,46.37,175.0,0,0.0,-1,0.0,0.0,0,2.42,5.9024
354163,1564151701584,1,2.48,0.95,0.31,1.44,1.09,0.78,-0.57,0.64,15,0,21,0.96,6432,18,94,43,49,1060,471.0,474,466,60,124.0,114,1,370,225,54,0,0,461,-3267,-10483,471,-5.59,,,,,,,,,,,,
354183,1564151701603,2,2.48,0.95,0.3,1.43,1.1,0.64,-0.58,0.77,15,1,21,0.86,6394,18,94,43,49,1058,472.0,475,463,60,123.0,114,1,369,225,54,0,0,469,-3267,-10483,472,-5.59,,,,,,,,,,,,
354203,1564151701623,-0,2.48,0.95,0.31,1.43,1.1,0.72,-0.51,0.61,16,4,21,0.88,6388,18,94,43,49,1058,472.0,476,462,60,125.0,114,1,369,225,54,0,0,458,15649,1,474,-5.59,,,,,,,,,,,,
354223,1564151701643,-1,2.48,0.95,0.31,1.44,1.09,0.85,-0.55,0.58,16,2,23,1.02,6397,18,94,43,49,1059,472.0,473,464,60,126.0,114,1,369,225,54,0,0,462,10305,32033,472,-5.59,,,,,,,,,,,,
354243,1564151701663,1,2.48,0.95,0.31,1.44,1.1,0.83,-0.59,0.64,15,-0,24,1.02,6399,18,94,43,49,1061,471.0,475,467,60,124.0,114,1,369,225,54,0,0,460,10305,-6441,471,-5.59,44.681252,10.025131,46.64,175.0,0,0.0,-1,0.0,0.0,0,2.42,5.904
354263,1564151701683,-0,2.48,0.95,0.32,1.43,1.1,0.7,-0.56,0.67,16,1,23,0.9,6432,18,95,43,49,1063,473.0,473,466,60,125.0,114,1,370,225,54,0,0,462,8488,-1562,472,181.28,,,,,,,,,,,,
354283,1564151701703,-0,2.48,0.95,0.32,1.43,1.1,0.8,-0.51,0.55,16,3,23,0.95,6247,18,95,43,49,1068,474.0,471,458,60,123.0,114,1,368,225,54,0,0,461,10305,3580,474,181.28,,,,,,,,,,,,
354303,1564151701723,-1,2.48,0.95,0.31,1.44,1.1,0.91,-0.51,0.43,16,3,24,1.04,6083,18,95,43,49,1073,473.0,461,461,60,124.0,114,1,366,224,54,0,0,457,8488,3580,473,181.28,,,,,,,,,,,,
354323,1564151701743,-0,2.48,0.95,0.31,1.43,1.1,1.0,-0.52,0.32,17,5,24,1.13,5922,18,95,43,49,1076,473.0,451,457,60,124.0,114,1,359,229,54,0,0,459,10305,10305,471,181.28,,,,,,,,,,,,
354343,1564151701763,-0,2.49,0.95,0.31,1.44,1.09,1.07,-0.47,0.22,18,7,25,1.17,5762,18,95,43,50,1079,470.0,440,461,60,124.0,114,1,349,228,54,0,0,457,16648,32033,470,181.28,44.68124,10.025134,46.29,175.0,0,0.0,-1,0.0,0.0,0,2.42,5.9057
354363,1564151701783,2,2.48,0.95,0.31,1.44,1.1,0.9,-0.55,0.3,18,9,24,1.05,5623,19,94,43,51,1080,471.0,431,460,60,121.0,170,1,338,362,80,0,0,460,2131,32033,470,-5.59,,,,,,,,,,,,
354383,1564151701803,0,2.48,0.96,0.31,1.44,1.09,0.91,-0.44,0.24,18,1,23,1.01,5527,19,94,43,53,1080,471.0,420,464,60,126.0,170,1,340,342,80,0,0,468,32033,10305,466,-5.59,,,,,,,,,,,,
354403,1564151701823,-1,2.48,0.95,0.31,1.43,1.1,1.02,-0.46,0.29,17,-1,24,1.12,5808,19,94,43,54,1080,462.0,417,459,60,126.0,170,1,368,325,80,0,0,468,26704,2212,462,-5.59,,,,,,,,,,,,
354423,1564151701843,-1,2.47,0.95,0.31,1.44,1.09,1.12,-0.45,0.26,16,2,26,1.21,6225,19,95,43,54,1078,467.0,430,466,60,126.0,170,1,385,296,80,0,0,468,-7939,21580,461,-5.59,,,,,,,,,,,,
354443,1564151701863,2,2.47,0.95,0.32,1.43,1.1,1.11,-0.53,0.3,16,-1,26,1.23,6595,19,94,43,53,1093,459.0,450,466,60,124.0,170,1,383,258,80,0,0,468,243,-18108,459,-5.59,44.681229,10.025137,45.75,175.0,0,0.0,-1,0.0,0.0,0,2.42,5.9074
354463,1564151701883,1,2.47,0.95,0.32,1.43,1.1,1.09,-0.51,0.22,17,2,26,1.2,6983,19,94,43,52,1150,457.0,477,466,60,125.0,140,1,383,242,64,0,0,413,1779,5600,454,-5.59,,,,,,,,,,,,
354483,1564151701903,1,2.47,0.95,0.31,1.44,1.1,0.96,-0.56,0.09,17,2,26,1.11,7390,19,94,43,50,1222,454.0,505,463,60,124.0,140,1,378,234,64,0,0,425,3635,-26615,454,-5.59,,,,,,,,,,,,
354503,1564151701923,1,2.47,0.95,0.32,1.43,1.1,0.93,-0.51,0.02,17,1,27,1.06,7725,19,94,43,48,1267,448.0,524,465,60,125.0,140,1,372,230,64,0,0,415,-3856,10305,447,-5.59,,,,,,,,,,,,
354523,1564151701943,-0,2.47,0.95,0.31,1.44,1.09,0.92,-0.48,0.0,17,2,27,1.04,8036,19,94,43,46,1328,444.0,545,464,60,126.0,140,1,362,217,64,0,0,426,-4082,2131,444,-5.59,,,,,,,,,,,,
354543,1564151701963,1,2.47,0.95,0.31,1.44,1.09,0.93,-0.48,-0.01,16,-0,27,1.04,8355,19,94,43,44,1413,443.0,573,466,60,124.0,140,1,350,216,64,0,0,420,-21792,16648,443,-5.59,44.681217,10.025139,45.61,175.0,0,0.0,-1,0.0,0.0,0,2.42,5.909
354563,1564151701983,1,2.46,0.95,0.31,1.44,1.09,1.02,-0.52,0.15,15,-0,26,1.15,8507,19,94,43,42,1462,440.0,591,466,60,124.0,156,1,338,214,69,0,0,425,7154,10305,438,-5.59,,,,,,,,,,,,
354583,1564151701991,1,2.46,0.95,0.32,1.44,1.09,0.9,-0.5,0.2,16,2,25,1.03,8561,19,94,43,39,1471,440.0,603,467,60,124.0,156,1,320,209,69,0,0,428,-8165,3571,440,-5.59,,,,,,,,,,,,
354603,1564151702011,2,2.46,0.95,0.31,1.43,1.1,0.84,-0.46,0.13,16,3,25,0.96,8632,19,94,43,37,1467,441.0,615,464,60,124.0,156,1,314,201,69,0,0,427,7154,23400,440,-5.59,,,,,,,,,,,,
354623,1564151702031,1,2.47,0.95,0.31,1.43,1.1,0.96,-0.4,0.18,15,2,24,1.04,8660,19,94,43,36,1388,438.0,603,468,60,124.0,156,1,311,199,69,0,0,425,18584,16648,438,-5.59,,,,,,,,,,,,
354643,1564151702051,1,2.46,0.95,0.31,1.43,1.09,1.0,-0.45,0.36,15,2,23,1.1,8577,19,94,43,35,1308,437.0,602,467,60,125.0,156,1,308,195,69,0,0,430,-3414,10305,437,-5.59,44.681206,10.025139,43.97,175.1,0,0.0,-1,0.0,0.0,0,2.42,5.9107
354663,1564151702071,4,2.46,0.95,0.31,1.43,1.1,0.87,-0.51,0.29,16,2,23,1.01,8542,19,94,43,34,1198,438.0,598,466,60,125.0,144,1,305,192,63,0,0,425,-21944,15649,438,-5.59,,,,,,,,,,,,
354683,1564151702103,1,2.47,0.95,0.31,1.44,1.09,0.9,-0.47,0.25,15,2,22,1.01,8553,19,94,43,34,1109,435.0,612,464,60,124.0,144,1,305,192,63,0,0,425,18584,21432,435,-5.59,,,,,,,,,,,,
354703,1564151702123,1,2.46,0.95,0.31,1.44,1.09,1.0,-0.46,0.39,15,3,22,1.1,8561,19,94,43,33,1038,435.0,601,469,60,124.0,144,1,302,188,63,0,0,427,18584,10305,435,-5.59,,,,,,,,,,,,
354723,1564151702143,3,2.45,0.95,0.31,1.44,1.1,0.89,-0.43,0.41,15,3,21,0.99,8457,19,94,43,33,935,435.0,600,466,60,125.0,144,1,301,186,63,0,0,430,-26615,8488,435,-5.59,,,,,,,,,,,,
354743,1564151702163,1,2.46,0.95,0.31,1.44,1.09,0.94,-0.4,0.4,15,3,21,1.02,8340,19,94,43,33,931,435.0,606,466,60,124.0,144,1,298,182,63,0,0,436,-21944,10305,435,-5.59,44.681194,10.025139,42.96,175.1,0,0.0,-1,0.0,0.0,0,2.42,5.9124
354763,1564151702183,1,2.46,0.95,0.31,1.43,1.1,0.91,-0.37,0.38,15,3,21,0.98,8169,19,94,43,33,923,437.0,589,465,60,124.0,125,1,295,176,55,0,0,435,18584,15649,437,-5.59,,,,,,,,,,,,
354783,1564151702202,0,2.47,0.95,0.31,1.44,1.1,1.02,-0.37,0.37,14,2,21,1.09,8047,19,94,42,34,913,436.0,586,462,60,123.0,125,1,295,179,55,0,0,436,-21944,2131,436,-5.59,,,,,,,,,,,,
354803,1564151702222,2,2.45,0.95,0.31,1.43,1.1,0.93,-0.33,0.32,14,1,21,0.98,8016,19,94,42,34,897,435.0,579,466,60,125.0,125,1,295,183,55,0,0,431,7154,-6387,435,-5.59,,,,,,,,,,,,
354823,1564151702242,2,2.44,0.95,0.32,1.43,1.09,0.96,-0.34,0.3,14,1,20,1.02,7898,19,94,42,35,891,435.0,578,463,60,125.0,125,1,298,182,55,0,0,428,-21944,21432,437,-5.59,,,,,,,,,,,,
354843,1564151702262,-2,2.45,0.95,0.32,1.43,1.1,1.07,-0.38,0.4,14,1,20,1.13,7838,19,94,42,35,884,434.0,578,466,60,124.0,125,1,298,182,55,0,0,427,-21944,-18341,434,-5.59,44.681183,10.025138,42.61,175.1,0,0.0,-1,0.0,0.0,0,2.43,5.9141
354863,1564151702282,-0,2.44,0.95,0.32,1.43,1.09,1.09,-0.36,0.44,13,-0,19,1.15,7858,19,94,42,36,869,436.0,567,465,60,124.0,123,1,301,188,54,0,0,427,-21944,16648,436,-5.59,,,,,,,,,,,,
354883,1564151702304,1,2.45,0.95,0.31,1.43,1.1,0.97,-0.32,0.38,14,0,19,1.03,7780,19,94,42,36,857,434.0,561,466,60,125.0,123,1,301,188,54,0,0,428,18584,26704,434,-5.59,,,,,,,,,,,,
354903,1564151702324,2,2.44,0.95,0.31,1.44,1.1,0.88,-0.32,0.35,14,1,19,0.94,7780,19,94,42,36,854,433.0,561,465,60,125.0,123,1,301,194,54,0,0,427,18584,23400,433,-5.59,,,,,,,,,,,,
354923,1564151702344,3,2.44,0.95,0.31,1.44,1.1,0.86,-0.35,0.39,14,2,17,0.93,7725,19,94,42,37,849,433.0,565,466,60,124.0,123,1,304,194,54,0,0,425,2524,16648,433,-5.59,,,,,,,,,,,,
354943,1564151702364,-0,2.44,0.95,0.31,1.44,1.1,0.93,-0.42,0.43,14,2,18,1.02,7697,19,94,42,37,842,432.0,552,467,60,123.0,123,1,304,194,54,0,0,426,18584,23400,433,-5.59,44.681175,10.025136,42.64,175.1,0,0.0,-1,0.0,0.0,0,2.43,5.9157
354963,1564151702384,-1,2.45,0.95,0.32,1.43,1.1,1.04,-0.42,0.53,13,1,19,1.12,7735,19,94,42,38,838,434.0,556,466,60,124.0,129,1,307,194,56,0,0,425,18584,23400,434,-5.59,,,,,,,,,,,,
354983,1564151702402,-1,2.44,0.94,0.31,1.43,1.09,1.06,-0.36,0.51,13,-0,18,1.11,7719,19,94,42,38,834,432.0,567,464,60,123.0,129,1,307,200,56,0,0,423,-26615,-28332,432,-5.59,,,,,,,,,,,,
355003,1564151702422,1,2.45,0.95,0.31,1.44,1.09,0.99,-0.3,0.41,13,-1,17,1.03,7838,19,94,42,38,833,431.0,558,464,60,124.0,129,1,307,200,56,0,0,420,2524,243,431,-5.59,,,,,,,,,,,,
355023,1564151702442,2,2.45,0.95,0.31,1.43,1.09,0.95,-0.26,0.36,13,0,19,0.99,7918,19,94,42,38,830,428.0,566,466,60,125.0,129,1,307,200,56,0,0,415,9517,1779,428,-5.59,,,,,,,,,,,,
355043,1564151702462,0,2.44,0.95,0.31,1.44,1.09,1.06,-0.25,0.4,13,0,18,1.09,8033,19,94,42,38,826,425.0,588,465,60,123.0,129,1,307,200,56,0,0,416,10392,13552,425,-5.59,44.681164,10.025134,42.71,175.1,0,0.0,-1,0.0,0.0,0,2.43,5.9174
355063,1564151702482,2,2.43,0.95,0.31,1.44,1.09,0.99,-0.27,0.37,12,0,17,1.03,8130,19,94,42,37,825,424.0,580,465,60,125.0,139,1,306,200,59,0,0,417,-26615,5600,424,-5.59,,,,,,,,,,,,
355083,1564151702502,-0,2.44,0.95,0.31,1.44,1.09,1.04,-0.31,0.41,12,1,18,1.09,8130,19,94,42,37,823,425.0,578,466,60,125.0,139,1,306,196,59,0,0,417,10392,-768,425,-5.59,,,,,,,,,,,,
355103,1564151702522,0,2.44,0.95,0.31,1.43,1.1,0.98,-0.24,0.4,11,-1,19,1.01,8148,19,94,42,36,819,425.0,585,463,60,125.0,139,1,303,196,59,0,0,418,10392,-3322,425,-5.59,,,,,,,,,,,,
355123,1564151702542,0,2.43,0.95,0.32,1.43,1.1,0.96,-0.29,0.42,11,1,18,1.0,8202,19,94,42,36,817,422.0,591,466,60,125.0,139,1,305,198,59,0,0,418,10392,-3322,422,-5.59,,,,,,,,,,,,
355143,1564151702562,0,2.43,0.95,0.32,1.44,1.09,1.02,-0.29,0.39,11,-0,17,1.06,8198,19,94,42,37,815,423.0,577,467,60,124.0,139,1,307,197,59,0,0,416,2524,1779,424,-5.59,44.681152,10.025132,42.37,175.1,0,0.0,-1,0.0,0.0,0,2.43,5.9191
355163,1564151702582,2,2.44,0.95,0.32,1.44,1.1,0.86,-0.34,0.43,12,0,16,0.92,8155,19,94,42,36,814,422.0,578,463,60,125.0,139,1,304,191,59,0,0,416,11560,3635,422,-5.59,,,,,,,,,,,,
355183,1564151702602,0,2.44,0.95,0.32,1.43,1.1,0.95,-0.32,0.48,11,-1,16,1.0,8159,20,94,42,36,813,421.0,575,466,60,123.0,139,1,304,191,59,0,0,415,-26615,-3322,421,-5.59,,,,,,,,,,,,
355203,1564151702622,2,2.43,0.95,0.31,1.44,1.09,0.8,-0.28,0.43,12,0,16,0.85,8166,20,94,42,36,812,421.0,579,463,60,124.0,139,1,304,191,59,0,0,420,-9211,243,421,-5.59,,,,,,,,,,,,
355223,1564151702642,-0,2.42,0.94,0.31,1.44,1.09,0.92,-0.28,0.5,12,2,15,0.96,8148,20,94,42,36,811,420.0,590,465,60,125.0,139,1,303,191,59,0,0,417,-9211,243,419,-5.59,,,,,,,,,,,,
355243,1564151702662,3,2.43,0.94,0.31,1.44,1.1,0.82,-0.25,0.48,12,1,15,0.85,8106,20,94,42,36,810,420.0,579,463,60,125.0,139,1,303,190,59,0,0,414,-9211,31796,420,-5.59,44.681145,10.025129,41.82,175.1,0,0.0,-1,0.0,0.0,0,2.43,5.9207
355263,1564151702682,0,2.43,0.95,0.32,1.42,1.1,0.89,-0.29,0.47,12,3,16,0.93,8148,20,94,42,36,811,419.0,582,467,60,124.0,140,1,303,191,59,0,0,413,-9211,31796,419,-5.59,,,,,,,,,,,,
355283,1564151702702,1,2.42,0.95,0.31,1.44,1.1,0.92,-0.26,0.46,11,2,15,0.95,8134,20,94,42,36,814,418.0,590,466,60,124.0,140,1,303,191,59,0,0,413,-8151,-3314,418,-5.59,,,,,,,,,,,,
355303,1564151702722,2,2.43,0.95,0.31,1.43,1.1,0.82,-0.26,0.45,12,2,15,0.86,8092,20,94,42,36,818,418.0,581,465,60,124.0,140,1,302,190,59,0,0,416,1504,13180,417,-5.59,,,,,,,,,,,,
355323,1564151702742,0,2.43,0.94,0.32,1.44,1.09,0.94,-0.25,0.47,11,2,16,0.97,8057,20,94,42,37,821,416.0,579,467,60,124.0,140,1,305,189,59,0,0,417,-8151,-3322,416,-5.59,,,,,,,,,,,,
355343,1564151702762,2,2.43,0.95,0.32,1.43,1.1,0.9,-0.2,0.47,11,1,15,0.92,8019,20,94,43,36,823,419.0,579,465,60,124.0,140,1,301,195,59,0,0,422,10541,3635,419,-5.59,44.681133,10.025126,41.55,175.1,0,0.0,-1,0.0,0.0,0,2.43,5.9224
355363,1564151702782,3,2.43,0.95,0.32,1.43,1.09,0.87,-0.22,0.46,11,1,15,0.9,7894,20,94,43,37,828,420.0,568,466,60,124.0,138,1,304,194,58,0,0,421,-8151,3635,420,-5.59,,,,,,,,,,,,
355383,1564151702802,-0,2.43,0.95,0.32,1.43,1.09,0.95,-0.28,0.5,11,2,16,0.99,7832,20,94,43,38,829,419.0,561,467,60,124.0,138,1,307,194,58,0,0,420,-9211,1779,419,-5.59,,,,,,,,,,,,
355403,1564151702822,-1,2.43,0.95,0.32,1.43,1.09,1.05,-0.29,0.56,11,1,15,1.09,7757,20,94,43,38,829,419.0,560,466,60,122.0,138,1,307,200,58,0,0,414,2524,31796,419,-5.59,,,,,,,,,,,,
355423,1564151702842,0,2.43,0.95,0.32,1.43,1.1,1.06,-0.26,0.63,11,1,15,1.09,7712,20,94,43,38,830,419.0,561,463,60,122.0,138,1,307,200,58,0,0,415,-9211,13552,419,-5.59,,,,,,,,,,,,
355443,1564151702862,1,2.43,0.95,0.31,1.44,1.09,0.98,-0.2,0.6,11,-0,15,1.0,7725,20,94,43,38,830,419.0,560,465,60,124.0,138,1,307,205,58,0,0,415,-9211,13180,419,-5.59,44.681122,10.025122,41.3,175.2,0,0.0,-1,0.0,0.0,0,2.43,5.924
355463,1564151702882,2,2.44,0.94,0.31,1.43,1.1,0.84,-0.17,0.53,11,-1,13,0.85,7693,20,94,43,39,830,418.0,556,466,60,124.0,143,1,310,205,60,0,0,413,-9211,-3322,418,-5.59,,,,,,,,,,,,
355483,1564151702902,3,2.44,0.95,0.31,1.44,1.09,0.73,-0.19,0.41,11,-1,14,0.75,7716,20,94,43,40,830,419.0,557,467,60,124.0,143,1,317,205,60,0,0,416,1504,-3314,418,-5.59,,,,,,,,,,,,
355503,1564151702922,2,2.44,0.95,0.31,1.43,1.1,0.77,-0.25,0.4,11,0,16,0.81,7706,20,94,43,40,829,419.0,552,467,60,125.0,143,1,317,205,60,0,0,413,11545,13180,419,-5.59,,,,,,,,,,,,
355523,1564151702942,-0,2.44,0.95,0.31,1.43,1.09,0.9,-0.25,0.45,11,1,15,0.93,7738,21,94,43,40,826,416.0,567,465,60,124.0,143,1,317,206,60,0,0,413,10541,13180,416,-5.59,,,,,,,,,,,,
355543,1564151702962,-1,2.44,0.95,0.31,1.43,1.09,1.01,-0.3,0.51,11,1,14,1.05,7780,21,94,43,40,824,416.0,562,468,60,123.0,143,1,317,206,60,0,0,413,-8151,-21792,416,-5.59,44.681114,10.025117,41.25,175.2,0,0.0,-1,0.0,0.0,0,2.43,5.9257
355563,1564151702982,2,2.44,0.95,0.31,1.43,1.1,0.94,-0.26,0.46,11,0,16,0.98,7776,21,94,43,40,822,418.0,566,466,60,124.0,143,1,317,206,60,0,0,413,10541,-3856,417,-5.59,,,,,,,,,,,,
355583,1564151702994,2,2.44,0.95,0.31,1.44,1.1,0.83,-0.2,0.43,12,1,16,0.85,7835,21,94,43,40,821,417.0,563,467,60,124.0,143,1,317,206,60,0,0,414,11545,-3856,417,-5.59,,,,,,,,,,,,
355603,1564151703014,3,2.45,0.94,0.31,1.43,1.1,0.8,-0.21,0.46,12,2,14,0.83,7812,21,94,43,40,815,416.0,570,465,60,124.0,143,1,317,206,60,0,0,409,28696,13552,416,-5.59,,,,,,,,,,,,
355623,1564151703034,-0,2.44,0.95,0.31,1.43,1.1,0.88,-0.29,0.55,12,3,15,0.93,7861,21,94,43,40,811,417.0,560,467,60,124.0,143,1,317,206,60,0,0,411,6512,13552,417,-5.59,,,,,,,,,,,,
355643,1564151703054,1,2.44,0.95,0.31,1.44,1.09,0.88,-0.25,0.53,12,2,16,0.92,7934,21,94,43,40,809,417.0,561,468,60,124.0,143,1,317,206,60,0,0,409,6384,3635,417,-5.59,44.681103,10.025112,41.23,175.2,0,0.0,-1,0.0,0.0,0,2.43,5.9274
355663,1564151703074,2,2.45,0.94,0.32,1.43,1.1,0.76,-0.26,0.52,12,1,15,0.8,7951,21,94,43,40,806,416.0,570,466,60,124.0,149,1,317,206,62,0,0,410,6384,-3856,414,-5.59,,,,,,,,,,,,
355683,1564151703103,-0,2.44,0.95,0.31,1.43,1.1,0.81,-0.32,0.52,12,2,15,0.87,8005,21,94,43,40,806,414.0,565,466,60,124.0,149,1,317,207,62,0,0,407,6512,-8165,414,-5.59,,,,,,,,,,,,
355703,1564151703123,1,2.44,0.95,0.31,1.43,1.09,0.84,-0.28,0.49,12,1,16,0.89,8043,21,94,43,40,806,414.0,567,468,60,123.0,149,1,317,207,62,0,0,408,28696,13552,414,-5.59,,,,,,,,,,,,
355723,1564151703143,1,2.45,0.94,0.31,1.43,1.1,0.71,-0.32,0.51,12,0,16,0.78,8026,21,94,43,39,808,414.0,575,467,60,125.0,149,1,310,207,62,0,0,411,6512,-21944,414,-5.59,,,,,,,,,,,,
355743,1564151703163,-0,2.44,0.94,0.31,1.43,1.1,0.8,-0.35,0.58,12,1,15,0.87,8043,21,94,43,39,810,414.0,572,466,60,124.0,149,1,310,205,62,0,0,414,28696,13180,414,-5.59,44.681095,10.025107,40.99,175.2,0,0.0,-1,0.0,0.0,0,2.44,5.929
355763,1564151703183,1,2.44,0.95,0.32,1.43,1.09,0.85,-0.3,0.53,12,-1,16,0.9,7958,21,94,43,39,814,415.0,572,463,60,124.0,146,1,310,206,61,0,0,416,28696,-3314,416,-5.59,,,,,,,,,,,,
355783,1564151703203,0,2.45,0.95,0.31,1.43,1.1,0.74,-0.28,0.54,11,-1,15,0.79,7825,21,94,43,39,816,415.0,580,463,60,124.0,146,1,310,206,61,0,0,419,6512,-3314,418,-5.59,,,,,,,,,,,,
355803,1564151703223,3,2.44,0.95,0.31,1.43,1.1,0.64,-0.33,0.49,11,1,14,0.72,7802,21,94,43,40,817,418.0,564,466,60,124.0,146,1,317,206,61,0,0,414,11545,243,418,-5.59,,,,,,,,,,,,
355823,1564151703243,3,2.44,0.94,0.31,1.43,1.1,0.73,-0.36,0.51,11,2,15,0.82,7716,21,94,43,40,818,415.0,561,465,60,125.0,146,1,317,206,61,0,0,414,11545,-3414,415,-5.59,,,,,,,,,,,,
355843,1564151703263,-1,2.44,0.95,0.31,1.43,1.09,0.86,-0.38,0.59,11,1,16,0.94,7693,21,94,43,41,823,416.0,558,467,60,124.0,146,1,325,208,61,0,0,409,10541,13180,416,-5.59,44.681084,10.025101,41.03,175.2,0,0.0,-1,0.0,0.0,0,2.44,5.9307
355863,1564151703283,-1,2.44,0.95,0.31,1.43,1.1,0.93,-0.4,0.64,11,0,15,1.01,7760,21,94,43,41,828,418.0,568,465,60,123.0,144,1,325,208,60,0,0,410,11545,-4082,416,-5.59,,,,,,,,,,,,
355883,1564151703303,1,2.45,0.94,0.31,1.43,1.1,0.88,-0.33,0.59,11,0,15,0.94,7754,21,94,43,41,833,416.0,554,464,60,124.0,144,1,325,208,60,0,0,412,11545,-3314,416,-5.59,,,,,,,,,,,,
355903,1564151703323,2,2.44,0.94,0.31,1.43,1.1,0.77,-0.29,0.51,12,2,16,0.82,7793,21,94,43,41,836,418.0,557,462,60,125.0,144,1,325,208,60,0,0,411,28696,13180,418,-5.59,,,,,,,,,,,,
355923,1564151703343,3,2.44,0.95,0.31,1.43,1.09,0.7,-0.31,0.53,13,2,14,0.76,7802,21,94,43,41,842,417.0,555,464,60,125.0,144,1,325,208,60,0,0,409,11545,31796,417,-5.59,,,,,,,,,,,,
355943,1564151703363,-1,2.45,0.95,0.31,1.44,1.09,0.8,-0.37,0.55,13,3,14,0.88,7848,21,94,43,41,849,417.0,555,466,60,123.0,144,1,325,208,60,0,0,409,6512,-3314,417,-5.59,44.681076,10.025095,41.13,175.2,0,0.0,-1,0.0,0.0,0,2.44,5.9324
355963,1564151703383,-0,2.44,0.95,0.31,1.44,1.09,0.83,-0.33,0.53,12,1,16,0.89,7911,21,94,43,41,851,418.0,558,464,60,124.0,149,1,325,208,62,0,0,411,28696,31796,417,-5.59,,,,,,,,,,,,
355983,1564151703403,2,2.44,0.95,0.31,1.43,1.09,0.68,-0.32,0.48,12,-0,16,0.75,7921,21,94,43,41,854,416.0,568,463,60,125.0,149,1,325,208,62,0,0,410,28696,3826,416,-5.59,,,,,,,,,,,,
356003,1564151703423,2,2.44,0.95,0.31,1.43,1.1,0.7,-0.36,0.44,12,1,15,0.78,7968,21,94,43,41,853,415.0,565,468,60,123.0,149,1,325,206,62,0,0,412,28696,-21792,415,-5.59,,,,,,,,,,,,
356023,1564151703443,-1,2.43,0.95,0.31,1.43,1.09,0.8,-0.37,0.52,12,1,16,0.88,7944,21,94,43,41,852,414.0,568,467,60,122.0,149,1,325,208,62,0,0,419,6512,1779,414,-5.59,,,,,,,,,,,,
356043,1564151703463,1,2.44,0.95,0.31,1.43,1.09,0.78,-0.36,0.55,11,-2,16,0.86,7881,21,94,43,40,851,417.0,567,466,60,125.0,149,1,317,208,62,0,0,415,6512,13180,416,-5.59,44.681065,10.025088,41.1,175.2,0,0.0,-1,0.0,0.0,0,2.44,5.9341
356063,1564151703483,2,2.44,0.95,0.31,1.44,1.09,0.64,-0.34,0.48,11,-2,16,0.73,7871,21,94,43,40,849,417.0,565,462,60,125.0,146,1,317,206,61,0,0,419,10541,13180,416,-5.59,,,,,,,,,,,,
356083,1564151703503,3,2.44,0.95,0.31,1.43,1.1,0.7,-0.38,0.47,11,-0,17,0.79,7796,21,94,43,41,845,417.0,563,467,60,124.0,146,1,325,206,61,0,0,417,10541,1779,417,-5.59,,,,,,,,,,,,
356103,1564151703523,-1,2.45,0.94,0.31,1.43,1.1,0.83,-0.41,0.56,11,-1,17,0.93,7799,21,94,43,41,843,417.0,562,467,60,124.0,146,1,325,206,61,0,0,414,6512,-3856,417,-5.59,,,,,,,,,,,,
356123,1564151703543,0,2.44,0.95,0.31,1.44,1.09,0.91,-0.4,0.63,11,-1,15,0.99,7783,21,94,43,41,839,416.0,558,467,60,123.0,146,1,325,208,61,0,0,411,11545,-3414,416,-5.59,,,,,,,,,,,,
356143,1564151703563,1,2.45,0.95,0.31,1.44,1.09,0.84,-0.33,0.57,11,-0,16,0.9,7770,21,94,43,41,837,417.0,559,466,60,125.0,146,1,325,208,61,0,0,413,-8151,13552,419,-5.59,44.681057,10.025082,40.92,175.2,0,0.0,-1,0.0,0.0,0,2.44,5.9357
356163,1564151703583,1,2.45,0.95,0.31,1.43,1.09,0.76,-0.32,0.53,12,-0,17,0.82,7812,21,94,43,40,837,416.0,558,463,60,125.0,145,1,317,132,61,0,0,415,6512,31796,417,-5.59,,,,,,,,,,,,
356183,1564151703603,2,2.45,0.95,0.31,1.43,1.1,0.72,-0.32,0.6,12,1,15,0.78,7822,21,94,43,41,841,417.0,565,467,60,124.0,145,1,325,208,61,0,0,409,10541,-3314,417,-5.59,,,,,,,,,,,,
356203,1564151703623,-1,2.44,0.95,0.31,1.43,1.1,0.79,-0.34,0.64,12,1,14,0.86,7868,21,94,43,41,843,417.0,558,466,60,123.0,145,1,325,208,61,0,0,411,11545,3635,417,-5.59,,,,,,,,,,,,
356223,1564151703643,1,2.44,0.95,0.31,1.43,1.1,0.79,-0.27,0.6,12,0,16,0.83,7921,21,94,43,41,847,416.0,563,467,60,124.0,145,1,325,208,61,0,0,411,11545,31796,416,-5.59,,,,,,,,,,,,
356243,1564151703663,4,2.44,0.95,0.31,1.44,1.09,0.69,-0.28,0.6,12,0,15,0.74,7898,21,94,43,41,850,416.0,566,464,60,125.0,145,1,325,208,61,0,0,413,28696,-3856,416,-5.59,44.681046,10.025074,40.87,175.2,0,0.0,-1,0.0,0.0,0,2.44,5.9374
356263,1564151703683,0,2.44,0.95,0.31,1.43,1.1,0.74,-0.35,0.63,12,1,14,0.82,7928,21,94,43,41,851,415.0,566,465,60,125.0,149,1,325,208,62,0,0,413,6512,31796,415,-5.59,,,,,,,,,,,,
356283,1564151703703,0,2.44,0.95,0.31,1.43,1.1,0.79,-0.34,0.64,12,0,16,0.86,7898,21,94,43,41,852,416.0,564,470,60,123.0,149,1,325,206,62,0,0,415,11545,-4082,416,-5.59,,,,,,,,,,,,
356303,1564151703723,2,2.44,0.94,0.31,1.43,1.1,0.76,-0.3,0.61,11,-2,15,0.82,7841,21,94,43,41,849,416.0,569,466,60,123.0,149,1,325,208,62,0,0,419,-8151,-3314,416,-5.59,,,,,,,,,,,,
356323,1564151703743,3,2.45,0.95,0.31,1.44,1.1,0.64,-0.29,0.48,11,-1,15,0.71,7858,21,94,43,41,845,419.0,565,465,60,124.0,149,1,325,206,62,0,0,412,6512,-3314,417,-5.59,,,,,,,,,,,,
356343,1564151703763,3,2.45,0.94,0.31,1.43,1.1,0.7,-0.36,0.52,12,1,16,0.79,7819,21,94,43,41,843,418.0,565,466,60,125.0,149,1,325,208,62,0,0,411,10541,1779,418,-5.59,44.681042,10.025065,40.96,175.2,0,0.0,-1,0.0,0.0,0,2.44,5.9391
356363,1564151703783,-1,2.45,0.95,0.31,1.44,1.09,0.83,-0.35,0.6,11,0,16,0.9,7825,21,94,43,41,840,418.0,565,466,60,123.0,149,1,325,208,62,0,0,414,-8151,13180,418,-5.59,,,,,,,,,,,,
356383,1564151703803,1,2.44,0.95,0.31,1.44,1.09,0.84,-0.33,0.59,11,-1,15,0.9,7878,21,94,43,41,840,418.0,568,463,60,124.0,149,1,325,208,62,0,0,415,11545,3826,418,-5.59,,,,,,,,,,,,
356403,1564151703823,2,2.44,0.95,0.31,1.43,1.1,0.74,-0.28,0.51,11,1,16,0.79,7855,21,94,43,41,841,418.0,562,464,60,125.0,149,1,325,208,62,0,0,412,11545,3635,418,-5.59,,,,,,,,,,,,
356423,1564151703843,2,2.44,0.95,0.31,1.44,1.09,0.74,-0.3,0.51,11,3,17,0.79,7878,21,94,43,41,842,418.0,559,466,60,125.0,149,1,325,208,62,0,0,414,11545,-3414,418,-5.59,,,,,,,,,,,,
356443,1564151703863,-0,2.44,0.95,0.31,1.43,1.09,0.83,-0.33,0.57,12,3,15,0.89,7888,21,94,43,41,844,417.0,559,466,60,124.0,149,1,325,208,62,0,0,416,-8151,31796,417,-5.59,44.68103,10.025058,41.32,175.2,0,0.0,-1,0.0,0.0,0,2.44,5.9407
356463,1564151703883,-0,2.44,0.95,0.32,1.43,1.1,0.83,-0.29,0.56,12,3,15,0.87,7871,21,94,43,41,846,418.0,566,464,60,123.0,148,1,325,208,62,0,0,414,1504,13552,418,-5.59,,,,,,,,,,,,
356483,1564151703904,2,2.43,0.95,0.31,1.44,1.09,0.7,-0.22,0.5,12,3,16,0.74,7908,21,94,43,41,847,419.0,567,464,60,123.0,148,1,325,208,62,0,0,414,-8151,-3856,419,-5.59,,,,,,,,,,,,
356503,1564151703924,3,2.44,0.95,0.31,1.44,1.1,0.69,-0.23,0.57,13,4,15,0.73,7881,21,94,43,40,850,420.0,561,466,60,124.0,148,1,317,206,62,0,0,417,-8151,13552,419,-5.59,,,,,,,,,,,,
356523,1564151703944,0,2.44,0.95,0.31,1.43,1.1,0.76,-0.29,0.67,13,4,14,0.81,7871,21,94,43,41,852,420.0,560,467,60,123.0,148,1,325,208,62,0,0,416,10541,13180,418,-5.59,,,,,,,,,,,,
356543,1564151703964,-0,2.44,0.95,0.31,1.44,1.09,0.73,-0.29,0.68,12,3,15,0.78,7904,21,94,43,41,853,418.0,562,464,60,122.0,148,1,325,208,62,0,0,416,10541,-4082,418,-5.59,44.681023,10.025049,41.18,175.1,0,0.0,-1,0.0,0.0,0,2.45,5.9424
356563,1564151703984,2,2.43,0.95,0.32,1.43,1.09,0.62,-0.31,0.66,12,2,14,0.69,7858,21,94,43,40,854,418.0,567,464,60,125.0,147,1,317,206,62,0,0,416,10541,-3322,418,-5.59,,,,,,,,,,,,
356583,1564151703995,2,2.44,0.94,0.31,1.43,1.09,0.62,-0.36,0.6,12,3,14,0.71,7888,21,94,43,41,857,418.0,565,466,60,125.0,147,1,325,208,62,0,0,415,10541,3635,418,-5.59,,,,,,,,,,,,
356603,1564151704015,-0,2.43,0.95,0.32,1.43,1.09,0.71,-0.37,0.62,12,1,15,0.8,7848,21,94,43,41,862,419.0,564,465,60,122.0,147,1,325,208,62,0,0,417,1504,13180,418,-5.59,,,,,,,,,,,,
356623,1564151704035,-0,2.43,0.95,0.32,1.43,1.09,0.75,-0.34,0.64,12,-0,14,0.82,7822,21,94,43,41,865,419.0,566,467,60,123.0,147,1,325,208,62,0,0,416,-8151,13180,419,-5.59,,,,,,,,,,,,
356643,1564151704055,0,2.44,0.95,0.31,1.43,1.1,0.67,-0.3,0.56,11,-0,14,0.74,7868,21,94,43,41,868,419.0,562,464,60,124.0,147,1,325,208,62,0,0,417,11545,1779,419,-5.59,44.681015,10.02504,41.17,175.1,0,0.0,-1,0.0,0.0,0,2.45,5.944
356663,1564151704075,3,2.43,0.95,0.31,1.43,1.09,0.74,-0.34,0.52,11,1,15,0.81,7858,21,94,43,41,873,419.0,558,466,60,124.0,145,1,325,206,61,0,0,413,10541,31796,419,-5.59,,,,,,,,,,,,
356683,1564151704103,-1,2.44,0.94,0.32,1.43,1.09,0.87,-0.35,0.58,11,1,15,0.94,7874,20,94,43,41,877,417.0,563,467,60,123.0,145,1,325,208,61,0,0,417,10541,13552,417,-5.59,,,,,,,,,,,,
356703,1564151704123,1,2.43,0.95,0.31,1.43,1.09,0.88,-0.34,0.58,11,-1,13,0.94,7894,20,94,43,40,879,419.0,565,465,60,124.0,145,1,317,208,61,0,0,414,11545,1779,419,-5.59,,,,,,,,,,,,
356723,1564151704143,1,2.44,0.95,0.32,1.43,1.09,0.79,-0.33,0.52,11,0,15,0.86,7878,20,94,43,40,879,418.0,564,463,60,124.0,145,1,317,206,61,0,0,414,-8151,243,418,-5.59,,,,,,,,,,,,
356743,1564151704163,3,2.44,0.94,0.31,1.43,1.1,0.8,-0.36,0.53,11,1,15,0.88,7924,20,94,43,41,881,418.0,564,465,60,124.0,145,1,325,206,61,0,0,415,1504,13180,418,-5.59,44.681004,10.02503,41.55,175.1,0,0.0,-1,0.0,0.0,0,2.45,5.9457
356763,1564151704183,-0,2.43,0.95,0.31,1.44,1.1,0.9,-0.33,0.57,11,2,14,0.96,7894,20,94,43,40,882,418.0,565,467,60,123.0,146,1,317,206,61,0,0,417,1504,3635,418,-5.59,,,,,,,,,,,,
356783,1564151704202,1,2.43,0.95,0.32,1.44,1.09,0.88,-0.29,0.55,11,2,14,0.92,7851,20,94,43,40,882,418.0,566,465,60,123.0,146,1,317,206,61,0,0,416,-8151,3635,418,-5.59,,,,,,,,,,,,
356803,1564151704222,2,2.43,0.94,0.31,1.43,1.1,0.81,-0.27,0.52,12,3,15,0.85,7871,20,94,43,40,882,418.0,570,466,60,124.0,146,1,317,206,61,0,0,415,1504,-4082,418,-5.59,,,,,,,,,,,,
356823,1564151704242,2,2.44,0.95,0.31,1.43,1.09,0.78,-0.29,0.56,12,4,13,0.84,7832,20,94,43,40,882,417.0,566,465,60,124.0,146,1,317,206,61,0,0,415,-8151,13180,417,-5.59,,,,,,,,,,,,
356843,1564151704262,-2,2.44,0.95,0.32,1.43,1.1,0.86,-0.35,0.62,12,4,13,0.92,7841,19,94,43,40,880,417.0,567,465,60,123.0,146,1,317,206,61,0,0,413,10541,243,417,-5.59,44.681,10.025021,41.1,175.1,0,0.0,-1,0.0,0.0,0,2.45,5.9474
356863,1564151704282,-1,2.44,0.94,0.31,1.43,1.1,0.86,-0.27,0.59,12,3,15,0.9,7871,19,94,43,40,879,418.0,575,466,60,123.0,146,1,317,206,61,0,0,414,10541,3635,417,-5.59,,,,,,,,,,,,
356883,1564151704302,2,2.43,0.94,0.31,1.44,1.09,0.74,-0.25,0.6,12,1,13,0.78,7851,19,94,43,40,878,417.0,578,463,60,124.0,146,1,317,206,61,0,0,416,-8151,31796,417,-5.59,,,,,,,,,,,,
356903,1564151704322,2,2.44,0.95,0.31,1.44,1.1,0.72,-0.33,0.55,12,2,13,0.79,7878,19,94,43,40,877,417.0,566,466,60,124.0,146,1,317,206,61,0,0,410,11545,-3856,417,-5.59,,,,,,,,,,,,
356923,1564151704342,-0,2.43,0.95,0.32,1.43,1.1,0.83,-0.37,0.6,11,3,15,0.91,7871,18,94,43,40,877,417.0,562,469,60,124.0,146,1,317,206,61,0,0,414,10541,-3314,417,-5.59,,,,,,,,,,,,
356943,1564151704362,-0,2.43,0.95,0.31,1.43,1.09,0.91,-0.27,0.6,11,0,14,0.95,7841,17,94,43,39,878,417.0,563,467,60,124.0,146,1,310,206,61,0,0,417,10541,-3856,417,-5.59,44.680988,10.025011,41.01,175.1,0,0.0,-1,0.0,0.0,0,2.45,5.949
356963,1564151704382,2,2.43,0.95,0.31,1.44,1.1,0.84,-0.24,0.58,11,0,14,0.87,7864,17,94,43,39,879,417.0,564,467,60,123.0,144,1,310,205,60,0,0,415,-8151,-3856,417,-5.59,,,,,,,,,,,,
356983,1564151704402,1,2.44,0.95,0.32,1.43,1.1,0.83,-0.25,0.52,11,2,15,0.87,7812,16,94,43,39,881,417.0,558,466,60,124.0,144,1,310,205,60,0,0,416,11545,-3322,417,-5.59,,,,,,,,,,,,
357003,1564151704422,0,2.43,0.94,0.32,1.43,1.1,0.88,-0.29,0.54,11,2,15,0.93,7822,16,94,43,38,882,416.0,558,465,60,124.0,144,1,307,200,60,0,0,414,10541,-3314,416,-5.59,,,,,,,,,,,,
357023,1564151704442,-1,2.43,0.95,0.32,1.44,1.09,0.98,-0.29,0.58,11,2,13,1.02,7832,16,94,43,38,883,416.0,560,465,60,123.0,144,1,307,200,60,0,0,413,11545,13180,416,-5.59,,,,,,,,,,,,
357043,1564151704462,1,2.43,0.94,0.31,1.43,1.1,0.97,-0.23,0.55,11,1,14,0.99,7789,16,94,43,38,883,415.0,559,465,60,125.0,144,1,307,200,60,0,0,409,-8151,-3414,415,-5.59,44.680984,10.025001,41.44,175.1,0,0.0,-1,0.0,0.0,0,2.45,5.9507
357063,1564151704482,2,2.43,0.95,0.31,1.43,1.09,0.83,-0.2,0.51,11,2,15,0.86,7815,16,94,43,38,883,415.0,562,466,60,124.0,141,1,307,200,59,0,0,413,11545,3635,416,-5.59,,,,,,,,,,,,
357083,1564151704504,3,2.43,0.95,0.32,1.42,1.1,0.76,-0.21,0.5,12,1,13,0.78,7780,16,94,43,38,883,415.0,560,466,60,125.0,141,1,307,194,59,0,0,413,11545,7154,415,-5.59,,,,,,,,,,,,
357103,1564151704524,-0,2.42,0.95,0.32,1.44,1.1,0.82,-0.3,0.48,12,1,14,0.88,7799,16,94,43,37,882,417.0,560,467,60,124.0,141,1,304,194,59,0,0,411,11545,-3414,417,-5.59,,,,,,,,,,,,
357123,1564151704544,-1,2.43,0.94,0.32,1.43,1.1,0.94,-0.33,0.57,11,1,15,1.0,7776,16,94,43,37,882,415.0,562,466,60,124.0,141,1,304,194,59,0,0,410,28696,243,415,-5.59,,,,,,,,,,,,
357143,1564151704564,-1,2.43,0.95,0.31,1.43,1.09,0.96,-0.28,0.64,10,-1,14,1.0,7741,16,94,43,37,879,415.0,559,465,60,123.0,141,1,304,194,59,0,0,410,28696,13180,416,-5.59,44.680977,10.02499,41.39,175.1,0,0.0,-1,0.0,0.0,0,2.45,5.9524
357163,1564151704584,1,2.43,0.94,0.31,1.43,1.1,0.87,-0.23,0.58,10,-1,14,0.9,7757,16,94,43,37,876,415.0,559,464,60,124.0,134,1,304,200,56,0,0,414,28696,31796,415,-5.59,,,,,,,,,,,,
357183,1564151704604,2,2.42,0.94,0.31,1.43,1.09,0.79,-0.24,0.49,10,0,14,0.83,7697,16,94,43,37,871,415.0,554,465,60,124.0,134,1,304,194,56,0,0,409,6512,13552,415,-5.59,,,,,,,,,,,,
357203,1564151704624,3,2.43,0.95,0.31,1.43,1.09,0.72,-0.23,0.46,11,2,14,0.76,7712,16,94,43,37,867,412.0,552,467,60,124.0,134,1,304,194,56,0,0,410,6512,-4082,412,-5.59,,,,,,,,,,,,
357223,1564151704644,2,2.42,0.95,0.32,1.43,1.1,0.7,-0.23,0.49,12,3,13,0.74,7653,16,94,43,37,862,414.0,547,467,60,123.0,134,1,304,194,56,0,0,412,6512,-3414,414,-5.59,,,,,,,,,,,,
357243,1564151704664,0,2.42,0.95,0.32,1.43,1.1,0.79,-0.34,0.55,12,4,13,0.86,7690,15,94,43,37,859,413.0,548,465,60,125.0,134,1,304,194,56,0,0,408,28696,18584,413,-5.59,44.680969,10.024979,41.24,175.1,0,0.0,-1,0.0,0.0,0,2.45,5.9541
357263,1564151704684,-1,2.42,0.95,0.32,1.42,1.1,0.9,-0.35,0.63,11,3,15,0.96,7678,15,94,43,37,855,413.0,551,466,60,123.0,135,1,304,194,56,0,0,410,28696,13552,413,-5.59,,,,,,,,,,,,
357283,1564151704704,-1,2.41,0.94,0.32,1.44,1.09,1.01,-0.31,0.74,10,1,13,1.06,7643,15,94,43,37,855,413.0,549,466,60,123.0,135,1,304,194,56,0,0,410,-3968,-4082,413,-5.59,,,,,,,,,,,,
357303,1564151704724,1,2.42,0.95,0.32,1.43,1.1,1.08,-0.31,0.75,9,-0,12,1.12,7649,15,94,43,37,855,411.0,560,465,60,124.0,135,1,304,194,56,0,0,411,6384,-4082,411,-5.59,,,,,,,,,,,,
357323,1564151704744,1,2.42,0.94,0.31,1.44,1.09,1.07,-0.25,0.74,9,-1,13,1.1,7584,14,94,43,36,853,410.0,555,464,60,124.0,135,1,301,194,56,0,0,407,-3968,-8165,410,-5.59,,,,,,,,,,,,
357343,1564151704764,1,2.41,0.94,0.31,1.44,1.09,0.99,-0.19,0.71,10,-3,13,1.01,7603,14,94,43,36,853,411.0,550,464,60,123.0,135,1,301,188,56,0,0,409,6384,-3414,411,-5.59,44.680965,10.024968,40.61,175.1,0,0.0,-1,0.0,0.0,0,2.45,5.9557
357363,1564151704784,1,2.42,0.94,0.32,1.43,1.1,0.84,-0.16,0.59,9,-5,12,0.85,7533,13,94,43,36,852,411.0,551,463,60,125.0,131,1,301,188,54,0,0,408,-3968,-21944,410,-5.59,,,,,,,,,,,,
357383,1564151704804,2,2.41,0.95,0.32,1.44,1.09,0.75,-0.16,0.51,9,-4,11,0.77,7563,13,94,43,36,850,412.0,547,464,60,125.0,131,1,301,188,54,0,0,406,-32702,-21944,408,-5.59,,,,,,,,,,,,
357403,1564151704824,1,2.41,0.95,0.32,1.43,1.1,0.69,-0.13,0.43,10,-4,12,0.7,7503,13,94,43,35,853,407.0,545,464,60,125.0,131,1,298,188,54,0,0,407,6384,2524,407,-5.59,,,,,,,,,,,,
357423,1564151704844,2,2.4,0.94,0.31,1.43,1.1,0.58,-0.09,0.35,10,-3,11,0.59,7512,13,94,43,35,853,410.0,544,465,60,124.0,131,1,298,188,54,0,0,406,-32702,18584,410,-5.59,,,,,,,,,,,,
357443,1564151704864,1,2.41,0.94,0.32,1.43,1.1,0.5,-0.08,0.24,10,-3,10,0.5,7458,12,94,43,35,856,409.0,538,466,60,125.0,131,1,298,182,54,0,0,407,-32702,7154,409,-5.59,44.680958,10.024956,40.77,175.1,0,0.0,-1,0.0,0.0,0,2.46,5.9574
357463,1564151704884,-0,2.41,0.94,0.32,1.43,1.1,0.47,-0.06,0.19,9,-4,12,0.47,7458,12,94,43,35,859,408.0,543,465,60,125.0,125,1,298,182,51,0,0,405,-3968,-21944,408,-5.59,,,,,,,,,,,,
357483,1564151704904,0,2.39,0.95,0.32,1.44,1.09,0.4,0.01,0.12,9,-5,12,0.4,7413,12,94,43,35,861,408.0,542,464,60,123.0,125,1,298,182,51,0,0,403,17144,-4059,408,-5.59,,,,,,,,,,,,
357503,1564151704924,-0,2.4,0.95,0.32,1.44,1.1,0.36,0.02,0.2,9,-6,11,0.36,7416,12,94,43,35,865,406.0,533,465,60,124.0,125,1,298,182,51,0,0,403,-32702,18584,406,-5.59,,,,,,,,,,,,
357523,1564151704944,-0,2.38,0.94,0.32,1.43,1.09,0.42,0.05,0.23,9,-7,10,0.42,7381,11,94,43,35,865,405.0,530,466,60,123.0,125,1,298,182,51,0,0,402,-1818,13040,406,-5.59,,,,,,,,,,,,
357543,1564151704964,-1,2.38,0.94,0.32,1.43,1.1,0.53,-0.03,0.27,8,-7,10,0.53,7458,11,94,43,34,866,405.0,537,465,60,124.0,125,1,295,182,51,0,0,402,-6656,10392,403,-5.59,44.68095,10.024945,40.38,175.2,0,0.0,-1,0.0,0.0,0,2.46,5.9591
357563,1564151704984,-2,2.39,0.94,0.32,1.43,1.1,0.63,0.03,0.37,8,-7,11,0.63,7497,11,94,43,34,870,402.0,539,463,60,124.0,121,1,295,182,49,0,0,399,1,2524,402,-5.59,,,,,,,,,,,,
357583,1564151704994,-1,2.39,0.94,0.32,1.42,1.1,0.66,0.01,0.41,7,-8,11,0.66,7563,11,94,43,34,872,402.0,545,466,60,124.0,121,1,295,176,49,0,0,397,-6524,2524,402,-5.59,,,,,,,,,,,,
357603,1564151705014,1,2.38,0.95,0.32,1.43,1.1,0.72,0.04,0.45,6,-9,10,0.72,7594,11,94,43,34,877,398.0,548,464,60,124.0,121,1,295,176,49,0,0,398,-1562,-9211,398,-5.59,,,,,,,,,,,,
357623,1564151705034,-0,2.39,0.94,0.32,1.43,1.1,0.69,0.05,0.46,6,-10,9,0.69,7612,11,94,43,33,880,397.0,552,467,60,123.0,121,1,292,176,49,0,0,398,-31744,1504,397,-5.59,,,,,,,,,,,,
357643,1564151705054,1,2.38,0.95,0.31,1.44,1.1,0.62,0.09,0.37,6,-9,10,0.63,7560,11,94,43,33,885,397.0,552,463,60,123.0,121,1,292,171,49,0,0,395,-6524,-9211,397,-5.59,44.680946,10.024933,40.2,175.2,0,0.0,-1,0.0,0.0,0,2.46,5.9607
357663,1564151705074,-0,2.38,0.95,0.32,1.42,1.1,0.54,0.14,0.34,6,-9,10,0.56,7551,10,94,43,33,891,397.0,548,467,60,125.0,121,1,292,171,48,0,0,398,240,-9211,397,-5.59,,,,,,,,,,,,
357683,1564151705104,1,2.38,0.94,0.32,1.44,1.09,0.45,0.15,0.26,6,-9,8,0.48,7491,9,94,43,32,893,396.0,546,465,60,124.0,121,1,290,166,48,0,0,396,-31744,28696,396,-5.59,,,,,,,,,,,,
357703,1564151705124,-0,2.38,0.94,0.32,1.44,1.09,0.42,0.17,0.23,6,-8,9,0.46,7482,8,94,43,32,895,395.0,543,465,60,125.0,121,1,290,166,48,0,0,396,-31744,2524,395,-5.59,,,,,,,,,,,,
357723,1564151705144,-0,2.38,0.95,0.32,1.43,1.1,0.4,0.23,0.15,6,-8,10,0.47,7376,8,94,43,31,896,395.0,539,466,60,124.0,121,1,286,166,48,0,0,396,-19019,-8151,395,-5.59,,,,,,,,,,,,
357743,1564151705164,1,2.38,0.95,0.32,1.44,1.09,0.35,0.26,0.19,6,-10,9,0.44,7364,8,94,43,32,896,394.0,534,469,60,124.0,121,1,290,166,48,0,0,396,-6475,1504,394,-5.59,44.680939,10.02492,39.58,175.2,0,0.0,-1,0.0,0.0,0,2.46,5.9624
357763,1564151705184,-1,2.38,0.95,0.32,1.44,1.09,0.45,0.2,0.28,5,-11,7,0.5,7295,8,94,43,31,897,392.0,528,462,60,123.0,114,1,286,164,45,0,0,395,-6475,28696,392,-5.59,,,,,,,,,,,,
357783,1564151705203,-0,2.37,0.95,0.32,1.43,1.09,0.61,0.15,0.38,5,-10,8,0.63,7312,8,94,43,32,897,392.0,532,468,60,123.0,114,1,290,164,45,0,0,389,-19019,-32702,391,-5.59,,,,,,,,,,,,
357803,1564151705223,4,2.36,0.94,0.32,1.43,1.09,0.72,0.08,0.44,5,-8,9,0.72,7318,8,94,43,31,897,391.0,529,466,60,124.0,114,1,286,164,45,0,0,389,-19019,-1818,391,-5.59,,,,,,,,,,,,
357823,1564151705243,3,2.37,0.94,0.31,1.43,1.1,0.79,0.04,0.41,5,-6,10,0.79,7292,8,94,43,31,894,390.0,534,467,60,122.0,114,1,286,164,45,0,0,389,-18948,1,390,-5.59,,,,,,,,,,,,
357843,1564151705263,2,2.37,0.95,0.32,1.42,1.09,0.83,0.03,0.38,5,-4,8,0.83,7341,8,94,43,31,893,389.0,531,465,60,125.0,114,1,286,164,45,0,0,390,-992,-1562,387,-5.59,44.680935,10.02491,39.13,175.2,0,0.0,-1,0.0,0.0,0,2.46,5.964
357863,1564151705283,1,2.36,0.94,0.32,1.43,1.09,0.72,0.03,0.3,6,-3,7,0.72,7301,8,94,43,31,891,387.0,534,465,60,125.0,116,1,286,164,45,0,0,389,8200,-1818,387,-5.59,,,,,,,,,,,,
357883,1564151705303,-1,2.37,0.95,0.31,1.43,1.09,0.61,0.05,0.25,5,-2,7,0.61,7301,8,94,43,31,889,386.0,533,465,60,124.0,116,1,286,164,45,0,0,386,8200,-6524,386,-5.59,,,,,,,,,,,,
357903,1564151705323,-1,2.37,0.94,0.32,1.44,1.09,0.57,0.08,0.3,5,-3,7,0.57,7259,8,94,43,31,887,384.0,533,467,60,124.0,116,1,286,164,45,0,0,386,2278,-31744,384,-5.59,,,,,,,,,,,,
357923,1564151705343,-0,2.37,0.94,0.32,1.44,1.1,0.63,0.1,0.39,5,-4,8,0.64,7259,8,94,43,31,887,384.0,534,466,60,124.0,116,1,286,164,45,0,0,386,-6656,-1562,384,-5.59,,,,,,,,,,,,
357943,1564151705363,3,2.37,0.95,0.32,1.44,1.09,0.77,0.07,0.48,4,-4,7,0.77,7233,8,94,43,31,887,382.0,528,465,60,123.0,116,1,286,164,45,0,0,386,3,505,382,-5.59,44.680927,10.024898,38.96,175.2,0,0.0,-1,0.0,0.0,0,2.46,5.9657
357963,1564151705383,1,2.38,0.95,0.31,1.44,1.09,0.8,0.05,0.47,5,-3,8,0.8,7170,8,94,43,31,889,383.0,526,463,60,125.0,115,1,285,164,44,0,0,383,770,-31744,383,-5.59,,,,,,,,,,,,
357983,1564151705403,0,2.37,0.95,0.31,1.44,1.09,0.7,0.08,0.4,5,-1,7,0.7,7183,7,94,43,31,891,381.0,523,463,60,125.0,115,1,285,164,44,0,0,384,-6656,-992,381,-5.59,,,,,,,,,,,,
358003,1564151705423,1,2.37,0.95,0.32,1.44,1.1,0.65,0.13,0.4,5,-1,7,0.66,7131,7,94,43,31,893,378.0,521,464,60,123.0,115,1,285,164,44,0,0,381,-6656,-1562,378,-5.59,,,,,,,,,,,,
358023,1564151705443,1,2.37,0.94,0.32,1.44,1.09,0.72,0.08,0.52,5,-3,7,0.72,7107,7,94,43,31,894,378.0,519,467,60,123.0,115,1,285,164,44,0,0,380,-6656,-19126,378,-5.59,,,,,,,,,,,,
358043,1564151705463,1,2.37,0.95,0.32,1.44,1.09,0.82,0.06,0.51,5,-2,7,0.82,7104,7,94,43,31,897,378.0,521,463,60,124.0,115,1,285,164,44,0,0,379,257,-19019,378,-5.59,44.680923,10.024886,38.31,175.2,0,0.0,-1,0.0,0.0,0,2.46,5.9674
358063,1564151705483,1,2.37,0.94,0.32,1.44,1.09,0.77,0.09,0.37,5,-1,6,0.77,7083,7,94,43,31,901,376.0,516,462,60,125.0,116,1,285,164,44,0,0,378,-6656,-6475,376,-5.59,,,,,,,,,,,,
358083,1564151705504,-0,2.37,0.94,0.31,1.43,1.1,0.78,0.1,0.34,5,-2,6,0.79,7099,6,94,43,31,905,375.0,521,466,60,123.0,116,1,285,164,44,0,0,376,-6656,2278,375,-5.59,,,,,,,,,,,,
358103,1564151705524,3,2.37,0.95,0.32,1.43,1.1,0.84,0.03,0.46,4,-2,7,0.84,7067,6,94,43,31,908,374.0,516,465,60,123.0,116,1,285,164,44,0,0,375,0,-18948,372,-5.59,,,,,,,,,,,,
358123,1564151705544,1,2.37,0.94,0.32,1.43,1.1,0.89,0.04,0.42,5,-1,7,0.89,7056,6,94,43,31,910,372.0,521,462,60,125.0,116,1,285,164,44,0,0,375,0,8200,372,-5.59,,,,,,,,,,,,
358143,1564151705564,-1,2.37,0.95,0.32,1.43,1.1,0.8,0.06,0.36,5,-1,5,0.8,7048,6,94,43,31,913,2774.0,522,465,60,124.0,116,1,285,164,44,0,0,488,-30694,742,2774,-5.59,44.68092,10.024875,37.66,175.2,0,0.0,-1,0.0,0.0,0,2.46,5.969
358163,1564151705584,2,2.38,0.94,0.32,1.43,1.1,0.83,-0.01,0.39,4,-2,5,0.83,6983,6,94,43,31,917,2774.0,517,464,60,124.0,15,1,285,164,43,0,0,488,-30694,2278,2774,-5.59,,,,,,,,,,,,
358183,1564151705603,0,2.37,0.95,0.32,1.44,1.09,0.84,-0.01,0.38,5,-1,5,0.84,6944,6,94,43,31,917,357.0,524,465,60,126.0,15,1,285,164,43,0,0,488,-6640,2278,54,-5.59,,,,,,,,,,,,
358203,1564151705623,0,2.37,0.95,0.32,1.43,1.09,0.77,0.05,0.35,5,-0,5,0.78,6947,6,94,43,31,917,364.0,515,464,60,124.0,15,1,285,164,43,0,0,488,-14707,742,364,-5.59,,,,,,,,,,,,
358223,1564151705643,2,2.37,0.94,0.32,1.43,1.1,0.77,-0.02,0.48,4,-1,6,0.77,6931,6,94,43,31,918,366.0,514,466,60,123.0,15,1,285,164,43,0,0,488,-14707,3,366,-5.59,,,,,,,,,,,,
358243,1564151705663,-1,2.38,0.95,0.31,1.43,1.09,0.78,0.01,0.41,5,0,6,0.78,6916,6,94,43,31,918,366.0,512,463,60,125.0,15,1,285,164,43,0,0,25,-29302,486,365,-5.59,44.680916,10.024862,37.35,175.2,0,0.0,-1,0.0,0.0,0,2.46,5.9707
358263,1564151705683,-0,2.37,0.95,0.32,1.43,1.09,0.68,-0.0,0.42,5,-3,6,0.68,6923,6,94,43,31,919,365.0,509,467,60,124.0,117,1,285,164,43,0,0,25,-29978,0,365,-5.59,,,,,,,,,,,,
358283,1564151705703,2,2.37,0.94,0.31,1.43,1.1,0.76,0.03,0.37,5,-2,7,0.76,6900,6,94,43,31,919,366.0,508,467,60,124.0,117,1,285,164,43,0,0,25,-29302,0,366,-5.59,,,,,,,,,,,,
358303,1564151705723,-0,2.37,0.94,0.32,1.43,1.1,0.75,0.07,0.3,5,-0,7,0.75,6865,6,94,43,31,918,366.0,507,463,60,125.0,117,1,286,164,43,0,0,25,-6640,0,366,-5.59,,,,,,,,,,,,
358323,1564151705743,2,2.36,0.95,0.32,1.44,1.09,0.79,0.05,0.37,5,-1,6,0.79,6840,6,94,43,32,918,363.0,504,465,60,125.0,117,1,290,164,43,0,0,35,-29978,0,363,-5.59,,,,,,,,,,,,
358343,1564151705763,-2,2.37,0.94,0.32,1.43,1.1,0.86,0.06,0.33,5,0,6,0.86,6833,6,94,43,31,917,362.0,506,466,60,125.0,117,1,286,164,43,0,0,35,-29978,230,362,-5.59,44.680912,10.024851,36.87,175.2,0,0.0,-1,0.0,0.0,0,2.47,5.9724
358363,1564151705783,3,2.36,0.95,0.32,1.44,1.09,0.86,-0.02,0.49,4,-1,6,0.86,6793,6,94,43,32,915,362.0,498,466,60,123.0,115,1,290,166,42,0,0,35,2060,-6656,362,-5.59,,,,,,,,,,,,
358383,1564151705803,0,2.37,0.94,0.32,1.43,1.09,0.96,-0.05,0.47,5,1,5,0.96,6771,6,94,43,32,912,885.0,504,464,60,125.0,115,1,290,166,42,0,0,39,2811,0,885,-5.59,,,,,,,,,,,,
358403,1564151705823,2,2.36,0.95,0.32,1.43,1.1,0.84,-0.07,0.54,4,-1,6,0.84,6764,6,94,43,32,909,348.0,504,467,60,124.0,115,1,290,166,42,0,0,39,-30438,-1268,348,-5.59,,,,,,,,,,,,
358423,1564151705843,-0,2.36,0.94,0.31,1.43,1.1,0.9,0.01,0.42,5,1,4,0.9,6747,6,94,43,31,907,355.0,506,464,60,124.0,115,1,286,166,42,0,0,39,2811,-6458,355,-5.59,,,,,,,,,,,,
358443,1564151705863,3,2.35,0.95,0.32,1.43,1.1,0.88,-0.03,0.42,4,0,5,0.88,6737,6,94,43,32,905,355.0,501,465,60,123.0,115,1,290,166,42,0,0,39,-30454,3082,355,-5.59,44.680904,10.02484,36.13,175.2,0,0.0,-1,0.0,0.0,0,2.47,5.974
358463,1564151705883,-1,2.35,0.95,0.31,1.44,1.09,0.98,-0.02,0.4,4,0,5,0.98,6703,6,94,43,32,903,355.0,503,462,60,125.0,117,1,290,166,42,0,0,39,2811,-14707,355,-5.59,,,,,,,,,,,,
358483,1564151705903,1,2.35,0.94,0.33,1.43,1.09,0.92,-0.04,0.48,4,-1,5,0.92,6665,6,94,43,32,901,354.0,502,466,60,124.0,117,1,290,166,42,0,0,39,2811,-6458,354,-5.59,,,,,,,,,,,,
358503,1564151705923,1,2.34,0.94,0.32,1.44,1.09,0.97,0.05,0.45,5,1,4,0.97,6660,6,94,43,32,899,352.0,500,467,60,122.0,117,1,290,166,42,0,0,39,8841,2060,352,-5.59,,,,,,,,,,,,
358523,1564151705943,1,2.35,0.95,0.31,1.43,1.1,0.92,-0.04,0.47,4,-1,5,0.93,6632,6,94,43,32,898,351.0,496,466,60,123.0,117,1,290,166,42,0,0,39,8841,-29978,351,-5.59,,,,,,,,,,,,
358543,1564151705963,-1,2.34,0.95,0.32,1.43,1.1,0.93,0.06,0.46,4,1,4,0.93,6599,6,94,43,32,897,348.0,498,461,60,123.0,117,1,290,171,42,0,0,39,6870,-6644,348,-5.59,44.680904,10.024828,35.68,175.2,0,0.0,-1,0.0,0.0,0,2.47,5.9757
358563,1564151705983,-0,2.34,0.94,0.32,1.43,1.1,1.02,-0.01,0.45,4,-0,4,1.02,6581,6,94,43,33,897,349.0,495,466,60,124.0,120,1,292,166,42,0,0,348,-10554,-6644,349,-5.59,,,,,,,,,,,,
358583,1564151705995,3,2.34,0.94,0.32,1.44,1.09,0.83,0.02,0.48,3,-2,4,0.83,6578,6,94,43,33,897,346.0,495,465,60,123.0,120,1,292,171,42,0,0,347,-14714,-6644,346,-5.59,,,,,,,,,,,,
358603,1564151706015,-0,2.35,0.94,0.31,1.44,1.09,0.95,0.02,0.39,4,0,3,0.95,6597,6,94,43,33,897,345.0,495,465,60,123.0,120,1,292,171,42,0,0,346,-14714,-30454,345,-5.59,,,,,,,,,,,,
358623,1564151706035,-0,2.35,0.94,0.32,1.44,1.09,0.88,-0.03,0.34,3,-1,4,0.88,6569,6,94,43,33,899,344.0,492,465,60,123.0,120,1,292,171,42,0,0,349,-31206,-1246,344,-5.59,,,,,,,,,,,,
358643,1564151706055,3,2.34,0.95,0.32,1.44,1.1,0.83,0.05,0.34,4,0,4,0.83,6517,6,94,43,33,899,345.0,491,465,60,123.0,120,1,292,171,42,0,0,348,3327,28553,342,-5.59,44.680901,10.024817,35.26,175.2,0,0.0,-1,0.0,0.0,0,2.47,5.9774
358663,1564151706075,-0,2.34,0.95,0.31,1.43,1.09,0.95,0.04,0.31,4,0,3,0.95,6487,5,94,43,33,901,343.0,491,464,60,123.0,122,1,292,171,42,0,0,348,6668,2811,343,-5.59,,,,,,,,,,,,
358683,1564151706103,-0,2.34,0.95,0.33,1.43,1.1,0.85,-0.01,0.34,3,-1,4,0.85,6454,5,94,43,33,901,342.0,488,468,60,124.0,122,1,292,171,42,0,0,346,3327,-6644,342,-5.59,,,,,,,,,,,,
358703,1564151706123,3,2.34,0.94,0.33,1.43,1.1,0.85,0.07,0.41,3,0,3,0.85,6461,5,94,43,34,903,341.0,490,467,60,123.0,122,1,295,176,42,0,0,345,-31222,-30454,341,-5.59,,,,,,,,,,,,
358723,1564151706143,-0,2.35,0.94,0.32,1.43,1.09,0.95,0.07,0.4,4,1,3,0.95,6427,5,94,43,33,905,340.0,488,463,60,123.0,122,1,292,176,42,0,0,344,13,-10554,340,-5.59,,,,,,,,,,,,
358743,1564151706163,-1,2.35,0.94,0.32,1.43,1.1,0.98,0.02,0.42,3,-2,4,0.98,6430,1,94,43,34,907,340.0,485,466,60,125.0,122,1,295,176,42,0,0,342,3346,-14714,338,-5.59,44.680897,10.024806,34.55,175.2,0,0.0,-1,0.0,0.0,0,2.47,5.9791
358763,1564151706183,1,2.35,0.94,0.33,1.44,1.1,0.89,-0.03,0.45,3,-1,3,0.89,6397,0,94,44,34,909,337.0,481,466,60,125.0,124,1,295,175,42,0,0,341,4838,-31206,337,-5.59,,,,,,,,,,,,
358783,1564151706202,2,2.34,0.95,0.32,1.44,1.09,0.79,-0.05,0.57,4,1,3,0.79,6362,0,94,43,34,909,336.0,483,462,60,124.0,124,1,295,176,42,0,0,338,-6528,-31206,336,-5.59,,,,,,,,,,,,
358803,1564151706222,-0,2.34,0.95,0.32,1.43,1.09,0.91,-0.05,0.48,4,2,3,0.91,6349,0,94,43,34,909,335.0,486,465,60,124.0,124,1,295,176,42,0,0,339,-6528,-31222,335,-5.59,,,,,,,,,,,,
358823,1564151706242,-1,2.34,0.95,0.32,1.43,1.09,1.02,-0.08,0.47,3,-1,3,1.02,6328,0,94,43,34,909,333.0,485,463,60,125.0,124,1,295,101,42,0,0,340,-12032,13,333,-5.59,,,,,,,,,,,,
358843,1564151706262,-0,2.34,0.94,0.32,1.44,1.09,1.11,-0.11,0.51,3,-4,3,1.11,6291,0,94,44,34,907,334.0,479,464,60,125.0,124,1,295,175,42,0,0,338,-32559,-14714,333,-5.59,44.680889,10.024796,34.17,175.2,0,0.0,-1,0.0,0.0,0,2.47,5.9807
358863,1564151706282,2,2.34,0.94,0.32,1.44,1.1,0.99,-0.1,0.5,3,-2,3,1.0,6287,0,94,44,34,903,332.0,476,466,60,124.0,123,1,295,101,41,0,0,336,175,-122,332,-5.59,,,,,,,,,,,,
358883,1564151706304,2,2.34,0.94,0.33,1.43,1.1,0.85,-0.06,0.5,3,0,2,0.85,6277,0,94,43,35,898,331.0,475,465,60,124.0,123,1,298,182,41,0,0,336,170,13,331,-5.59,,,,,,,,,,,,
358903,1564151706324,-1,2.34,0.94,0.32,1.44,1.09,0.79,-0.02,0.44,4,1,1,0.79,6268,0,94,43,34,896,328.0,475,461,60,125.0,123,1,295,176,41,0,0,334,165,2560,328,-5.59,,,,,,,,,,,,
358923,1564151706344,-1,2.33,0.94,0.32,1.44,1.09,0.91,0.01,0.38,3,-1,1,0.91,6256,0,94,44,34,895,328.0,471,462,60,125.0,123,1,295,175,41,0,0,333,-23296,-12032,328,-5.59,,,,,,,,,,,,
358943,1564151706364,-0,2.34,0.95,0.32,1.43,1.1,1.02,0.06,0.32,3,-3,2,1.02,6237,0,94,43,35,894,327.0,469,464,60,126.0,123,1,298,182,41,0,0,335,-23296,-32559,327,-5.59,44.680885,10.024784,33.4,175.2,0,0.0,-1,0.0,0.0,0,2.47,5.9824
358963,1564151706384,1,2.34,0.95,0.32,1.44,1.1,1.02,0.07,0.33,2,-4,2,1.03,6218,0,94,44,35,892,326.0,463,465,60,125.0,127,1,298,181,42,0,0,331,-23296,-12032,326,-5.59,,,,,,,,,,,,
358983,1564151706402,2,2.34,0.95,0.31,1.44,1.09,0.87,0.08,0.36,3,-3,1,0.87,6177,0,94,44,35,891,326.0,462,465,60,124.0,127,1,298,181,42,0,0,333,-23296,-22016,326,-5.59,,,,,,,,,,,,
359003,1564151706422,1,2.34,0.95,0.32,1.43,1.1,0.71,0.07,0.36,3,-0,1,0.71,6127,0,94,44,35,891,325.0,466,466,60,124.0,127,1,298,181,42,0,0,329,-24576,-32559,325,-5.59,,,,,,,,,,,,
359023,1564151706442,2,2.34,0.95,0.31,1.44,1.09,0.55,0.09,0.38,3,3,1,0.56,6123,0,94,44,35,890,324.0,463,465,60,124.0,127,1,298,181,42,0,0,330,-24576,175,324,-5.59,,,,,,,,,,,,
359043,1564151706462,2,2.34,0.95,0.32,1.43,1.09,0.7,0.06,0.41,3,4,1,0.7,6060,0,94,44,35,889,323.0,462,465,60,124.0,127,1,298,181,42,0,0,327,150,-20736,323,-5.59,44.680885,10.024774,32.91,175.2,0,0.0,-1,0.0,0.0,0,2.47,5.984
359063,1564151706482,1,2.35,0.95,0.32,1.43,1.1,0.67,0.09,0.42,3,4,0,0.67,6060,0,94,44,35,889,322.0,462,465,60,124.0,126,1,298,186,41,0,0,324,-27136,165,322,-5.59,,,,,,,,,,,,
359083,1564151706502,2,2.34,0.94,0.32,1.43,1.09,0.65,0.15,0.42,3,4,0,0.67,6085,0,94,44,35,888,320.0,461,462,60,125.0,126,1,298,186,41,0,0,326,145,-22016,320,-5.59,,,,,,,,,,,,
359103,1564151706522,-1,2.35,0.95,0.31,1.44,1.09,0.79,0.07,0.43,2,2,0,0.79,6060,0,94,44,35,888,320.0,461,465,60,124.0,126,1,298,181,41,0,0,324,-29696,165,320,-5.59,,,,,,,,,,,,
359123,1564151706542,-0,2.34,0.95,0.32,1.43,1.09,0.86,0.04,0.4,2,1,0,0.86,6054,0,94,44,36,886,318.0,463,463,60,124.0,126,1,301,186,41,0,0,321,140,155,318,-5.59,,,,,,,,,,,,
359143,1564151706562,-1,2.35,0.95,0.31,1.44,1.09,0.98,-0.01,0.41,2,-1,-0,0.98,6030,0,94,44,36,884,318.0,465,465,60,125.0,126,1,301,186,41,0,0,319,135,-25856,318,-5.59,44.680882,10.024762,32.65,175.2,0,0.0,-1,0.0,0.0,0,2.47,5.9857
359163,1564151706582,-1,2.34,0.94,0.32,1.43,1.09,1.08,0.01,0.42,1,-4,0,1.08,5980,0,94,44,36,881,318.0,460,463,60,126.0,132,1,299,185,42,0,0,322,-30976,-25856,317,-5.59,,,,,,,,,,,,
359183,1564151706602,-0,2.35,0.94,0.31,1.43,1.1,1.18,0.0,0.45,1,-6,-1,1.18,5937,0,94,44,36,880,317.0,455,462,60,125.0,132,1,297,185,42,0,0,319,130,-25856,317,-5.59,,,,,,,,,,,,
359203,1564151706622,3,2.35,0.94,0.32,1.44,1.1,1.26,-0.04,0.45,1,-7,-1,1.26,5898,0,94,44,37,879,316.0,452,462,60,124.0,132,1,297,191,42,0,0,319,-30976,-29696,316,-5.59,,,,,,,,,,,,
359223,1564151706642,3,2.34,0.95,0.32,1.44,1.1,1.21,0.0,0.42,1,-5,-1,1.21,5881,0,94,44,37,878,314.0,449,466,60,123.0,132,1,296,117,42,0,0,317,-32256,145,314,-5.59,,,,,,,,,,,,
359243,1564151706662,2,2.35,0.94,0.32,1.43,1.1,1.29,-0.05,0.4,1,-4,-1,1.29,5863,0,94,44,37,878,312.0,446,465,60,124.0,132,1,295,191,42,0,0,314,32000,140,312,-5.59,44.680878,10.024752,32.05,175.1,0,0.0,-1,0.0,0.0,0,2.47,5.9874
359263,1564151706682,0,2.35,0.94,0.33,1.43,1.1,1.3,-0.04,0.45,1,-1,-0,1.3,5842,0,94,44,38,879,311.0,437,464,60,124.0,137,1,297,123,43,0,0,315,120,-29696,310,-5.59,,,,,,,,,,,,
359283,1564151706704,2,2.35,0.95,0.33,1.44,1.09,1.11,-0.09,0.43,1,2,-1,1.11,5839,0,94,44,38,877,310.0,438,465,60,125.0,137,1,297,196,43,0,0,315,115,-32256,310,-5.59,,,,,,,,,,,,
359303,1564151706724,-1,2.34,0.94,0.33,1.44,1.09,0.98,-0.11,0.38,1,4,-1,0.98,5861,0,94,44,38,875,308.0,436,464,60,125.0,137,1,298,196,43,0,0,311,110,130,308,-5.59,,,,,,,,,,,,
359323,1564151706744,0,2.34,0.95,0.32,1.44,1.09,0.84,-0.15,0.42,2,4,-1,0.85,5866,0,94,44,38,872,305.0,441,466,60,124.0,137,1,298,196,43,0,0,310,28160,125,305,-5.59,,,,,,,,,,,,
359343,1564151706764,-2,2.35,0.94,0.32,1.43,1.1,0.84,-0.07,0.41,2,3,-0,0.85,5830,0,94,44,39,870,304.0,436,463,60,125.0,137,1,299,196,43,0,0,308,28160,32000,304,-5.59,44.680874,10.024742,31.45,175.1,0,0.0,-1,0.0,0.0,0,2.47,5.989
359363,1564151706784,-1,2.35,0.95,0.32,1.44,1.09,0.96,-0.05,0.42,2,1,-0,0.96,5749,0,94,44,39,869,303.0,435,464,60,125.0,137,1,294,201,42,0,0,307,28160,-32256,305,-5.59,,,,,,,,,,,,
359383,1564151706798,2,2.35,0.95,0.32,1.44,1.09,1.07,-0.02,0.41,2,-0,-0,1.07,5695,0,94,44,39,868,303.0,435,463,60,125.0,137,1,291,201,42,0,0,307,26880,130,303,-5.59,,,,,,,,,,,,
359403,1564151706818,1,2.35,0.95,0.32,1.44,1.09,0.94,-0.04,0.41,2,0,0,0.94,5662,0,94,44,40,869,301.0,434,465,60,123.0,137,1,294,202,42,0,0,307,100,29440,301,-5.59,,,,,,,,,,,,
359423,1564151706838,-0,2.35,0.95,0.32,1.44,1.1,0.82,-0.04,0.35,2,-0,1,0.82,5647,0,94,44,40,869,302.0,430,461,60,125.0,137,1,293,202,42,0,0,304,24320,28160,301,-5.59,,,,,,,,,,,,
359443,1564151706858,-0,2.35,0.95,0.33,1.43,1.1,0.76,-0.03,0.26,2,-2,0,0.76,5639,0,94,44,41,872,299.0,429,463,60,125.0,137,1,297,204,42,0,0,303,24320,28160,299,181.28,44.68087,10.024733,30.83,175.1,0,0.0,-1,0.0,0.0,0,2.48,5.9907
359463,1564151706878,3,2.35,0.95,0.32,1.44,1.1,0.89,-0.03,0.26,2,-3,-0,0.89,5645,0,94,44,41,875,298.0,431,463,60,125.0,143,1,298,205,43,0,0,302,23040,24320,298,-5.59,,,,,,,,,,,,
359483,1564151706904,2,2.34,0.95,0.32,1.44,1.1,0.88,-0.01,0.38,3,-1,-0,0.88,5634,0,94,44,42,879,297.0,432,463,60,124.0,143,1,302,205,43,0,0,300,80,26880,297,-5.59,,,,,,,,,,,,
359503,1564151706924,1,2.35,0.95,0.32,1.44,1.1,0.82,-0.05,0.5,3,1,0,0.82,5617,0,94,44,42,881,295.0,426,466,60,124.0,143,1,299,205,43,0,0,297,20480,25600,295,-5.59,,,,,,,,,,,,
359523,1564151706944,0,2.35,0.94,0.32,1.44,1.1,0.82,-0.0,0.44,3,1,1,0.82,5605,0,94,44,43,883,296.0,422,463,60,124.0,143,1,305,205,43,0,0,297,20480,95,296,-5.59,,,,,,,,,,,,
359543,1564151706964,3,2.35,0.95,0.33,1.44,1.09,0.94,0.01,0.39,2,0,1,0.94,5580,0,94,44,42,887,294.0,425,463,60,124.0,143,1,298,206,43,0,0,296,0,90,294,-5.59,44.680866,10.024722,30.29,175.1,0,0.0,-1,0.0,0.0,0,2.48,5.9924
359563,1564151706984,0,2.36,0.95,0.32,1.44,1.09,0.99,0.03,0.38,2,2,1,0.99,5557,0,94,44,43,888,293.0,422,465,60,123.0,146,1,301,206,43,0,0,296,0,85,293,-5.59,,,,,,,,,,,,
359583,1564151706996,-0,2.35,0.94,0.32,1.44,1.1,0.93,0.05,0.4,2,2,1,0.93,5496,0,94,44,43,887,291.0,417,465,60,122.0,146,1,296,133,43,0,0,297,0,25600,291,-5.59,,,,,,,,,,,,
359603,1564151707016,2,2.35,0.94,0.32,1.43,1.1,1.04,0.01,0.44,2,-1,1,1.04,5458,0,94,44,44,887,290.0,416,464,60,125.0,146,1,298,208,43,0,0,293,0,24320,290,-5.59,,,,,,,,,,,,
359623,1564151707036,0,2.35,0.95,0.32,1.44,1.11,1.01,0.02,0.43,2,2,2,1.01,5434,0,94,44,45,886,289.0,415,466,60,124.0,146,1,300,209,43,0,0,293,41,90,289,-5.59,,,,,,,,,,,,
359643,1564151707056,1,2.35,0.95,0.32,1.44,1.09,1.06,0.07,0.39,2,2,2,1.06,5453,0,94,44,45,886,288.0,410,464,60,125.0,146,1,301,209,43,0,0,291,10686,80,288,-5.59,44.680866,10.024713,29.43,175.1,0,0.0,-1,0.0,0.0,0,2.48,5.994
359663,1564151707076,2,2.35,0.95,0.32,1.45,1.1,1.11,0.09,0.41,2,0,2,1.12,5447,0,94,44,45,885,286.0,411,468,60,123.0,149,1,301,209,43,0,0,290,250,21760,286,-5.59,,,,,,,,,,,,
359683,1564151707104,-1,2.35,0.95,0.32,1.44,1.09,1.01,0.05,0.44,2,1,2,1.01,5420,0,94,44,46,884,285.0,410,466,60,124.0,149,1,303,211,43,0,0,290,24064,20480,285,-5.59,,,,,,,,,,,,
359703,1564151707124,3,2.35,0.95,0.32,1.43,1.1,1.11,0.02,0.42,2,-2,2,1.11,5389,0,94,44,45,884,285.0,410,463,60,124.0,149,1,297,211,43,0,0,286,24064,0,285,-5.59,,,,,,,,,,,,
359723,1564151707144,2,2.35,0.95,0.32,1.45,1.1,1.02,-0.01,0.48,2,1,1,1.02,5400,0,94,44,46,884,283.0,408,468,60,124.0,149,1,302,211,43,0,0,287,24064,10686,283,-5.59,,,,,,,,,,,,
359743,1564151707164,-0,2.36,0.94,0.32,1.44,1.1,0.84,-0.01,0.42,2,2,2,0.84,5372,0,94,44,46,883,283.0,407,465,60,125.0,149,1,299,211,43,0,0,288,250,41,283,-5.59,44.680866,10.024702,28.77,175.1,0,0.0,-1,0.0,0.0,0,2.48,5.9957
359763,1564151707184,0,2.36,0.95,0.32,1.44,1.09,0.92,-0.01,0.44,1,1,2,0.92,5317,0,94,44,46,883,283.0,410,464,60,122.0,148,1,294,211,42,0,0,284,250,0,281,-5.59,,,,,,,,,,,,
359783,1564151707203,-0,2.35,0.94,0.32,1.45,1.1,0.8,0.02,0.4,2,1,3,0.8,5277,0,94,44,47,881,281.0,403,463,60,124.0,148,1,294,213,42,0,0,282,250,-1529,281,181.28,,,,,,,,,,,,
359803,1564151707223,1,2.35,0.94,0.32,1.44,1.09,0.89,0.04,0.45,1,-0,3,0.89,5269,0,94,44,47,879,280.0,406,466,60,124.0,148,1,294,213,42,0,0,282,250,250,280,-5.59,,,,,,,,,,,,
359823,1564151707243,-0,2.35,0.94,0.31,1.44,1.09,0.8,0.07,0.36,2,3,3,0.8,5249,0,94,44,48,877,279.0,404,464,60,125.0,148,1,296,215,42,0,0,280,-1527,250,279,-5.59,,,,,,,,,,,,
359843,1564151707263,0,2.36,0.94,0.31,1.44,1.09,0.9,0.1,0.4,2,1,3,0.91,5234,0,94,44,48,875,277.0,401,468,60,123.0,148,1,295,143,42,0,0,277,28160,1886,277,-5.59,44.680862,10.024693,28.48,175.1,0,0.0,-1,0.0,0.0,0,2.48,5.9974
359863,1564151707283,0,2.35,0.95,0.31,1.45,1.09,0.78,0.05,0.37,2,1,4,0.79,5183,0,94,44,48,871,275.0,396,466,60,124.0,152,1,290,215,42,0,0,278,250,30208,275,-5.59,,,,,,,,,,,,
359883,1564151707303,-0,2.36,0.95,0.32,1.44,1.1,0.85,0.06,0.43,2,-1,3,0.86,5175,0,94,44,48,869,275.0,398,463,60,124.0,152,1,289,218,42,0,0,278,250,-1527,275,-5.59,,,,,,,,,,,,
359903,1564151707323,0,2.36,0.94,0.31,1.44,1.1,0.83,0.09,0.36,3,1,3,0.83,5209,0,94,44,49,868,275.0,394,466,60,125.0,152,1,296,218,42,0,0,277,-1,30208,275,-5.59,,,,,,,,,,,,
359923,1564151707343,-1,2.35,0.94,0.31,1.44,1.1,0.95,0.08,0.37,2,1,3,0.95,5178,0,94,44,49,867,273.0,394,464,60,123.0,152,1,294,218,42,0,0,275,-1,30208,273,-5.59,,,,,,,,,,,,
359943,1564151707363,3,2.36,0.94,0.31,1.44,1.09,0.96,0.09,0.39,2,-1,4,0.96,5155,0,94,44,49,866,271.0,394,464,60,124.0,152,1,291,218,42,0,0,274,-1,250,271,181.28,44.680859,10.024684,28.09,175.1,0,0.0,-1,0.0,0.0,0,2.48,5.9991
359963,1564151707383,-0,2.35,0.95,0.31,1.44,1.1,0.86,0.04,0.4,2,0,4,0.86,5151,0,94,44,50,866,271.0,393,467,60,124.0,154,1,293,221,42,0,0,274,-1,2414,271,-5.59,,,,,,,,,,,,
359983,1564151707403,2,2.35,0.95,0.31,1.43,1.1,0.9,0.02,0.35,2,-1,4,0.9,5118,0,94,44,50,865,269.0,388,464,60,124.0,154,1,292,221,42,0,0,271,-1,28160,269,-5.59,,,,,,,,,,,,
360003,1564151707423,0,2.36,0.94,0.31,1.45,1.09,0.8,0.05,0.25,2,1,4,0.8,5089,0,94,44,50,865,270.0,383,468,60,124.0,154,1,290,221,42,0,0,271,-1,30208,270,-5.59,,,,,,,,,,,,
360023,1564151707443,0,2.36,0.94,0.31,1.44,1.1,0.85,0.07,0.34,2,-1,4,0.85,5062,0,94,44,50,866,268.0,387,463,60,123.0,154,1,288,221,42,0,0,271,-1,-1,268,-5.59,,,,,,,,,,,,
360043,1564151707463,3,2.37,0.95,0.32,1.44,1.1,0.76,0.06,0.27,2,-1,4,0.76,5025,0,94,44,50,866,267.0,380,468,60,124.0,154,1,285,220,42,0,0,271,-1,-1281,267,-5.59,44.680855,10.024675,27.35,175.1,0,0.0,-1,0.0,0.0,0,2.48,6.0007
360063,1564151707483,-1,2.37,0.94,0.31,1.45,1.09,0.67,0.05,0.27,2,2,4,0.67,4989,0,94,44,51,867,267.0,380,462,60,124.0,153,1,285,222,41,0,0,268,-1,-1,267,-5.59,,,,,,,,,,,,
360083,1564151707503,1,2.39,0.94,0.32,1.44,1.1,0.73,0.08,0.36,2,1,3,0.74,4981,0,94,44,50,868,267.0,381,466,60,124.0,153,1,280,222,41,0,0,268,-1,-1,267,-5.59,,,,,,,,,,,,
360103,1564151707523,2,2.39,0.94,0.31,1.44,1.09,0.82,0.05,0.35,3,0,4,0.82,4997,0,94,44,51,870,266.0,375,462,60,124.0,153,1,286,222,41,0,0,269,-1,-1,266,-5.59,,,,,,,,,,,,
360123,1564151707543,-0,2.39,0.95,0.31,1.45,1.1,0.69,0.04,0.31,3,2,4,0.69,4978,0,94,44,51,872,265.0,375,465,60,125.0,153,1,284,222,41,0,0,264,-10440,-1,265,-5.59,,,,,,,,,,,,
360143,1564151707563,-0,2.4,0.94,0.31,1.44,1.1,0.82,0.09,0.38,3,-0,5,0.83,5013,0,94,44,51,875,264.0,380,466,60,124.0,153,1,288,223,41,0,0,263,14337,-1,264,-5.59,44.680851,10.024666,26.69,175.1,0,0.0,-1,0.0,0.0,0,2.48,6.0024
360163,1564151707583,2,2.39,0.95,0.32,1.44,1.1,0.87,0.06,0.38,3,-0,5,0.87,4990,0,94,44,51,876,262.0,376,463,60,125.0,163,1,285,222,43,0,0,261,506,-1,262,-5.59,,,,,,,,,,,,
360183,1564151707603,0,2.39,0.95,0.31,1.44,1.1,0.73,0.06,0.36,4,3,6,0.73,4957,0,94,44,52,878,262.0,379,461,60,123.0,163,1,286,222,43,0,0,262,-1281,-1,262,-5.59,,,,,,,,,,,,
360203,1564151707623,-2,2.4,0.95,0.31,1.44,1.1,0.76,0.1,0.45,4,1,6,0.77,4910,0,94,44,52,881,262.0,378,465,60,123.0,163,1,280,225,43,0,0,261,-1,-1,262,-5.59,,,,,,,,,,,,
360223,1564151707643,1,2.4,0.94,0.31,1.44,1.1,0.85,0.03,0.46,4,-1,5,0.85,4894,0,94,44,52,883,260.0,375,463,60,124.0,163,1,278,152,43,0,0,259,-1,-1,260,-5.59,,,,,,,,,,,,
360243,1564151707663,3,2.4,0.94,0.32,1.44,1.1,0.83,0.02,0.42,4,-1,6,0.83,4852,0,94,44,52,883,258.0,373,466,60,125.0,163,1,273,221,43,0,0,257,-1,-1,258,181.28,44.680851,10.024657,26.48,175.1,0,0.0,-1,0.0,0.0,0,2.48,6.004
360263,1564151707683,0,2.39,0.95,0.31,1.45,1.09,0.74,-0.03,0.43,4,1,6,0.75,4810,0,94,44,52,884,258.0,370,462,60,124.0,154,1,268,223,40,0,0,256,-1,-1,258,-5.59,,,,,,,,,,,,
360283,1564151707703,-0,2.4,0.95,0.31,1.45,1.1,0.77,-0.02,0.47,4,2,6,0.77,4797,0,94,44,52,884,258.0,367,470,60,123.0,154,1,266,222,40,0,0,256,-1,-1,258,-5.59,,,,,,,,,,,,
360303,1564151707723,-0,2.4,0.95,0.32,1.44,1.1,0.85,0.04,0.54,4,0,6,0.85,4755,0,94,44,52,884,257.0,366,465,60,123.0,154,1,261,222,40,0,0,254,250,-1,257,-5.59,,,,,,,,,,,,
360323,1564151707743,2,2.39,0.95,0.31,1.45,1.1,0.91,-0.01,0.53,4,-1,6,0.91,4794,0,94,44,52,882,255.0,359,462,60,124.0,154,1,266,222,40,0,0,254,250,14337,255,-5.59,,,,,,,,,,,,
360343,1564151707763,3,2.39,0.94,0.32,1.44,1.09,0.91,-0.03,0.48,5,0,6,0.91,4784,0,94,44,52,880,253.0,361,461,60,125.0,154,1,264,222,40,0,0,253,-1494,506,253,181.28,44.680847,10.024649,25.83,175.0,0,0.0,-1,0.0,0.0,0,2.48,6.0057
360363,1564151707783,0,2.39,0.95,0.32,1.44,1.1,0.81,-0.01,0.44,5,2,6,0.81,4763,0,94,44,52,876,253.0,361,463,60,125.0,158,1,262,222,40,0,0,252,250,506,253,-5.59,,,,,,,,,,,,
360383,1564151707803,-0,2.39,0.94,0.31,1.45,1.1,0.81,-0.07,0.48,5,3,5,0.81,4768,0,94,44,52,874,251.0,357,467,60,124.0,158,1,262,150,40,0,0,250,250,-1281,251,-5.59,,,,,,,,,,,,
360403,1564151707823,-0,2.39,0.95,0.32,1.45,1.09,0.84,-0.03,0.55,5,1,5,0.84,4687,0,94,44,52,872,251.0,358,468,60,124.0,158,1,252,149,40,0,0,247,250,-1,251,-5.59,,,,,,,,,,,,
360423,1564151707843,-1,2.4,0.94,0.32,1.44,1.1,0.9,0.01,0.59,5,-1,6,0.9,4691,0,94,44,52,870,249.0,353,465,60,123.0,158,1,253,221,40,0,0,249,-1445,-1,249,-5.59,,,,,,,,,,,,
360443,1564151707863,1,2.4,0.95,0.31,1.45,1.1,0.94,0.02,0.6,5,-3,6,0.94,4651,0,94,44,52,868,248.0,352,465,60,124.0,158,1,248,221,40,0,0,247,23482,-1,248,-5.59,44.680847,10.02464,25.59,175.0,0,0.0,-1,0.0,0.0,0,2.48,6.0074
360463,1564151707883,2,2.4,0.94,0.32,1.44,1.1,0.94,-0.02,0.57,5,-3,6,0.94,4657,0,94,44,52,868,248.0,352,460,60,125.0,157,1,249,218,39,0,0,247,-17920,-214,248,-5.59,,,,,,,,,,,,
360483,1564151707904,0,2.4,0.95,0.32,1.44,1.1,0.94,-0.06,0.53,5,-3,7,0.95,4605,0,94,44,52,868,246.0,350,462,60,125.0,157,1,243,221,39,0,0,244,-17920,-1,246,-5.59,,,,,,,,,,,,
360503,1564151707924,2,2.39,0.94,0.32,1.45,1.1,0.95,-0.07,0.48,4,-2,7,0.95,4588,0,94,44,52,870,246.0,347,462,60,125.0,157,1,241,220,39,0,0,244,-1484,-214,246,-5.59,,,,,,,,,,,,
360523,1564151707944,2,2.39,0.95,0.32,1.44,1.09,0.94,-0.08,0.4,4,-0,7,0.95,4565,0,94,44,52,873,244.0,345,460,60,125.0,157,1,238,220,39,0,0,243,13468,16896,244,-5.59,,,,,,,,,,,,
360543,1564151707964,2,2.39,0.94,0.32,1.44,1.09,0.91,-0.11,0.37,4,1,7,0.91,4597,0,94,44,52,876,243.0,343,462,60,126.0,157,1,242,220,39,0,0,243,250,16896,243,181.28,44.680847,10.024632,24.94,175.0,0,0.0,-1,0.0,0.0,0,2.48,6.009
360563,1564151707984,3,2.39,0.94,0.32,1.45,1.09,0.87,-0.09,0.34,4,2,6,0.87,4556,0,94,44,52,878,242.0,345,466,60,126.0,156,1,236,220,38,0,0,242,250,15360,242,-5.59,,,,,,,,,,,,
360583,1564151707995,3,2.39,0.94,0.32,1.44,1.1,0.81,-0.06,0.26,5,3,6,0.82,4545,0,94,44,52,880,241.0,341,463,60,125.0,156,1,235,219,38,0,0,241,-1483,10812,241,-5.59,,,,,,,,,,,,
360603,1564151708015,2,2.39,0.95,0.32,1.44,1.1,0.79,-0.02,0.22,5,3,6,0.79,4505,0,94,44,52,879,240.0,344,463,60,125.0,156,1,230,219,38,0,0,239,13602,-1445,240,-5.59,,,,,,,,,,,,
360623,1564151708035,3,2.38,0.94,0.32,1.44,1.1,0.74,-0.03,0.18,5,4,7,0.74,4501,0,94,44,52,877,238.0,341,465,60,125.0,156,1,229,219,38,0,0,237,250,-1484,238,-5.59,,,,,,,,,,,,
360643,1564151708055,3,2.38,0.95,0.32,1.45,1.09,0.7,-0.02,0.15,5,6,6,0.7,4496,0,94,44,52,875,238.0,340,461,60,126.0,156,1,229,218,38,0,0,235,10824,13468,238,181.28,44.680843,10.024623,24.47,175.0,0,0.0,-1,0.0,0.0,0,2.48,6.0107
360663,1564151708075,3,2.37,0.95,0.32,1.45,1.09,0.67,0.01,0.11,5,7,6,0.67,4463,0,94,44,52,872,237.0,339,462,60,126.0,151,1,225,218,36,0,0,237,-1494,-17920,236,181.28,,,,,,,,,,,,
360683,1564151708103,3,2.37,0.94,0.32,1.44,1.1,0.65,0.02,0.09,5,8,6,0.65,4438,0,94,44,52,869,237.0,335,463,60,126.0,151,1,222,218,36,0,0,235,10824,13468,237,-5.59,,,,,,,,,,,,
360703,1564151708123,1,2.38,0.95,0.32,1.44,1.09,0.66,-0.0,0.09,5,7,6,0.66,4403,0,94,44,52,867,235.0,335,461,60,126.0,151,1,217,218,36,0,0,234,10824,-1484,235,181.28,,,,,,,,,,,,
360723,1564151708143,2,2.37,0.95,0.33,1.43,1.1,0.71,-0.03,0.09,5,6,7,0.71,4364,0,94,44,51,867,234.0,329,462,60,126.0,151,1,211,213,36,0,0,234,18432,-25600,234,181.28,,,,,,,,,,,,
360743,1564151708163,-1,2.37,0.94,0.32,1.44,1.1,0.75,-0.06,0.08,5,6,8,0.75,4406,0,94,44,52,868,233.0,333,462,60,126.0,151,1,218,214,36,0,0,231,250,250,233,-5.59,44.680843,10.024615,23.81,175.0,0,0.0,-1,0.0,0.0,0,2.49,6.0124
360763,1564151708183,0,2.37,0.95,0.32,1.44,1.1,0.78,-0.04,0.08,5,5,8,0.79,4353,0,94,44,51,870,232.0,331,465,60,123.0,155,1,210,213,36,0,0,231,-1496,-1483,230,-5.59,,,,,,,,,,,,
360783,1564151708202,-0,2.36,0.95,0.32,1.44,1.1,0.8,-0.06,0.12,4,4,8,0.8,4336,0,94,44,51,872,231.0,328,460,60,124.0,155,1,208,213,36,0,0,229,10318,250,231,-5.59,,,,,,,,,,,,
360803,1564151708222,-1,2.37,0.94,0.32,1.43,1.1,0.84,-0.06,0.22,4,2,7,0.84,4355,0,94,44,51,873,229.0,328,466,60,123.0,155,1,210,217,36,0,0,230,250,13602,229,-5.59,,,,,,,,,,,,
360823,1564151708242,-0,2.37,0.95,0.32,1.44,1.1,0.86,-0.04,0.32,4,0,7,0.86,4318,0,94,44,51,874,228.0,329,471,60,123.0,155,1,205,217,36,0,0,228,250,10824,228,-5.59,,,,,,,,,,,,
360843,1564151708262,-1,2.37,0.95,0.32,1.44,1.09,0.82,0.01,0.39,4,1,6,0.82,4289,0,94,44,52,875,228.0,326,471,60,124.0,155,1,205,216,36,0,0,229,-1530,13602,228,-5.59,44.68084,10.024608,23.29,175.0,0,0.0,-1,0.0,0.0,0,2.49,6.0141
360863,1564151708282,3,2.36,0.94,0.32,1.44,1.1,0.77,0.02,0.39,4,2,4,0.77,4296,0,94,44,52,875,227.0,320,467,60,124.0,149,1,204,213,34,0,0,228,1596,-1494,227,-5.59,,,,,,,,,,,,
360883,1564151708304,2,2.36,0.95,0.32,1.44,1.1,0.76,0.04,0.32,4,4,4,0.76,4265,0,94,44,52,875,226.0,320,461,60,126.0,149,1,200,216,34,0,0,228,1596,10824,226,181.28,,,,,,,,,,,,
360903,1564151708324,0,2.35,0.95,0.32,1.44,1.1,0.8,0.02,0.28,4,3,5,0.8,4248,0,94,44,51,874,225.0,321,460,60,124.0,149,1,197,140,34,0,0,225,15360,250,225,-5.59,,,,,,,,,,,,
360923,1564151708344,0,2.35,0.94,0.32,1.44,1.1,0.83,-0.02,0.26,4,2,6,0.83,4273,0,94,44,51,874,224.0,320,462,60,124.0,149,1,199,213,34,0,0,227,15360,250,223,-5.59,,,,,,,,,,,,
360943,1564151708364,-0,2.34,0.95,0.32,1.44,1.09,0.87,-0.04,0.31,4,0,6,0.87,4227,0,94,44,51,874,224.0,323,465,60,123.0,149,1,194,216,34,0,0,225,250,-1496,224,-5.59,44.68084,10.024599,22.84,175.0,0,0.0,-1,0.0,0.0,0,2.49,6.0157
360963,1564151708384,0,2.35,0.94,0.32,1.44,1.09,0.86,-0.03,0.39,4,0,4,0.86,4235,0,94,44,52,874,222.0,318,471,60,123.0,153,1,196,216,34,0,0,224,-1532,250,222,-5.59,,,,,,,,,,,,
360983,1564151708404,2,2.35,0.94,0.32,1.44,1.09,0.81,0.0,0.44,3,2,3,0.81,4222,0,94,44,52,874,220.0,316,460,60,126.0,153,1,195,216,34,0,0,224,-1532,-1496,220,-5.59,,,,,,,,,,,,
361003,1564151708424,1,2.33,0.94,0.32,1.44,1.09,0.79,-0.01,0.42,3,2,3,0.79,4180,0,94,44,52,877,221.0,315,459,60,126.0,153,1,190,143,34,0,0,223,-17920,250,221,-5.59,,,,,,,,,,,,
361023,1564151708444,-1,2.35,0.95,0.33,1.44,1.1,0.82,-0.03,0.4,3,1,4,0.82,4204,0,94,44,52,881,220.0,320,467,60,123.0,153,1,193,144,34,0,0,222,-17920,-1530,220,-5.59,,,,,,,,,,,,
361043,1564151708464,0,2.35,0.94,0.33,1.44,1.1,0.88,-0.05,0.43,3,-0,3,0.88,4121,0,94,44,52,884,219.0,315,471,60,124.0,153,1,182,214,34,0,0,222,-17920,-1530,219,-5.59,44.680836,10.024591,22.33,175.0,0,0.0,-1,0.0,0.0,0,2.49,6.0174
361063,1564151708484,3,2.34,0.94,0.32,1.44,1.1,0.85,-0.03,0.45,3,1,2,0.85,4133,0,94,44,52,888,219.0,312,470,60,124.0,150,1,184,214,33,0,0,222,250,1596,218,-5.59,,,,,,,,,,,,
361083,1564151708504,1,2.34,0.95,0.32,1.44,1.09,0.82,0.02,0.47,2,3,1,0.82,4155,0,94,44,52,892,218.0,314,458,60,125.0,150,1,187,215,33,0,0,221,-1532,1596,218,181.28,,,,,,,,,,,,
361103,1564151708524,0,2.33,0.95,0.32,1.44,1.1,0.85,0.03,0.44,2,2,2,0.85,4084,0,94,44,52,897,217.0,313,461,60,124.0,150,1,178,141,33,0,0,221,-1532,15360,217,-5.59,,,,,,,,,,,,
361123,1564151708544,1,2.34,0.95,0.32,1.44,1.1,0.89,0.01,0.42,2,0,3,0.89,4124,0,94,44,52,901,216.0,310,472,60,124.0,150,1,183,142,33,0,0,218,1088,250,216,-5.59,,,,,,,,,,,,
361143,1564151708564,4,2.34,0.94,0.32,1.45,1.1,0.87,0.03,0.43,2,1,2,0.87,4124,0,94,44,52,904,215.0,312,466,60,124.0,150,1,183,214,33,0,0,217,250,250,215,-5.59,44.680836,10.024583,22.33,175.0,0,0.0,-1,0.0,0.0,0,2.49,6.0191
361163,1564151708584,1,2.34,0.94,0.32,1.44,1.09,0.85,0.07,0.43,2,2,1,0.85,4054,0,94,44,52,910,214.0,311,460,60,125.0,149,1,175,213,32,0,0,216,-1533,1210,214,181.28,,,,,,,,,,,,
361183,1564151708604,0,2.34,0.95,0.32,1.43,1.09,0.87,0.04,0.44,2,1,2,0.87,4076,0,94,44,52,915,213.0,309,458,60,122.0,149,1,177,141,32,0,0,215,966,-1532,213,-5.59,,,,,,,,,,,,
361203,1564151708624,-0,2.34,0.94,0.32,1.44,1.1,0.9,0.04,0.45,2,0,3,0.9,4055,0,94,44,52,922,212.0,310,468,60,124.0,149,1,175,141,32,0,0,214,966,-17920,212,-5.59,,,,,,,,,,,,
361223,1564151708644,2,2.33,0.95,0.32,1.44,1.09,0.87,0.08,0.45,2,2,2,0.88,3984,0,94,44,52,926,211.0,305,457,60,125.0,149,1,167,213,32,0,0,213,-14848,1088,211,181.28,,,,,,,,,,,,
361243,1564151708664,1,2.33,0.95,0.32,1.44,1.1,0.88,0.07,0.45,2,1,2,0.88,4017,0,94,44,52,932,210.0,306,463,60,123.0,149,1,170,213,32,0,0,213,250,16384,210,-5.59,44.680832,10.024576,21.38,174.9,0,0.0,-1,0.0,0.0,0,2.49,6.0207
361263,1564151708684,4,2.33,0.95,0.32,1.44,1.1,0.9,0.06,0.45,2,0,3,0.9,3992,0,94,44,52,938,209.0,303,467,60,124.0,152,1,167,140,32,0,0,212,-1482,16384,209,-5.59,,,,,,,,,,,,
361283,1564151708704,2,2.34,0.94,0.32,1.44,1.1,0.88,0.07,0.45,2,2,2,0.88,3934,0,94,44,52,943,208.0,303,457,60,125.0,152,1,165,212,32,0,0,211,13964,16384,208,-5.59,,,,,,,,,,,,
361303,1564151708724,-0,2.34,0.94,0.32,1.44,1.09,0.89,0.07,0.45,2,1,3,0.89,3982,0,94,44,52,944,207.0,301,467,60,123.0,152,1,167,213,32,0,0,210,13964,250,207,-5.59,,,,,,,,,,,,
361323,1564151708744,3,2.34,0.94,0.32,1.44,1.09,0.88,0.05,0.45,2,2,3,0.88,3958,0,94,44,52,945,206.0,302,469,60,125.0,152,1,166,213,32,0,0,208,250,-1533,206,-5.59,,,,,,,,,,,,
361343,1564151708764,0,2.34,0.95,0.32,1.44,1.1,0.86,0.08,0.43,2,3,2,0.87,3902,0,94,44,52,945,206.0,297,454,60,124.0,152,1,164,212,32,0,0,209,250,-1533,206,-5.59,44.680832,10.024569,21.46,174.9,0,0.0,-1,0.0,0.0,0,2.49,6.0224
361363,1564151708784,1,2.33,0.94,0.32,1.45,1.09,0.89,0.06,0.44,2,1,2,0.89,3932,0,94,44,52,945,205.0,298,469,60,124.0,151,1,165,212,31,0,0,205,12800,13964,205,-5.59,,,,,,,,,,,,
361383,1564151708804,2,2.33,0.94,0.32,1.44,1.1,0.85,0.06,0.42,2,3,2,0.85,3916,0,94,44,53,943,203.0,297,466,60,125.0,151,1,165,212,31,0,0,207,13874,-1482,203,181.28,,,,,,,,,,,,
361403,1564151708824,-0,2.34,0.94,0.32,1.44,1.1,0.87,0.06,0.43,2,2,2,0.88,3869,0,94,44,53,942,202.0,296,455,60,124.0,151,1,163,214,31,0,0,205,250,-29696,202,-5.59,,,,,,,,,,,,
361423,1564151708844,2,2.34,0.94,0.32,1.44,1.1,0.9,0.05,0.44,1,1,2,0.9,3872,0,94,44,53,940,201.0,293,474,60,124.0,151,1,163,214,31,0,0,204,14412,13964,201,-5.59,,,,,,,,,,,,
361443,1564151708864,1,2.34,0.95,0.32,1.45,1.09,0.89,0.08,0.43,1,1,2,0.89,3837,0,94,44,53,938,201.0,295,456,60,124.0,151,1,162,213,31,0,0,203,14412,250,201,-5.59,44.680832,10.024561,20.59,174.9,0,0.0,-1,0.0,0.0,0,2.49,6.0241
361463,1564151708884,5,2.34,0.95,0.32,1.43,1.1,0.9,0.08,0.45,1,-1,3,0.91,3815,0,94,44,53,938,199.0,292,474,60,124.0,150,1,161,213,30,0,0,202,19456,250,199,-5.59,,,,,,,,,,,,
361483,1564151708904,1,2.33,0.94,0.32,1.44,1.09,0.88,0.09,0.44,1,0,2,0.88,3788,0,94,44,53,938,198.0,291,462,60,125.0,150,1,160,213,30,0,0,201,250,-1482,198,181.28,,,,,,,,,,,,
361503,1564151708924,4,2.34,0.95,0.32,1.44,1.09,0.89,0.06,0.45,1,-1,2,0.89,3764,0,94,44,53,939,197.0,288,472,60,125.0,150,1,159,213,30,0,0,200,-1481,-1480,197,-5.59,,,,,,,,,,,,
361523,1564151708944,1,2.34,0.94,0.32,1.44,1.1,0.89,0.08,0.41,1,1,2,0.89,3765,0,94,44,54,942,197.0,287,463,60,125.0,150,1,160,213,30,0,0,198,-1481,250,197,181.28,,,,,,,,,,,,
361543,1564151708964,4,2.34,0.95,0.32,1.44,1.09,0.9,0.08,0.44,1,-1,3,0.91,3751,0,94,44,54,944,196.0,290,466,60,124.0,150,1,160,217,30,0,0,198,14326,12800,196,-5.59,44.680828,10.024553,20.28,174.9,0,0.0,-1,0.0,0.0,0,2.49,6.0257
361563,1564151708984,1,2.33,0.94,0.32,1.44,1.09,0.9,0.08,0.44,1,0,2,0.9,3709,0,94,44,54,947,194.0,286,464,60,126.0,153,1,158,216,30,0,0,196,-2560,250,194,181.28,,,,,,,,,,,,
361583,1564151708994,3,2.34,0.95,0.31,1.44,1.09,0.92,0.07,0.47,1,-1,2,0.92,3687,0,94,44,55,951,194.0,283,467,60,124.0,153,1,157,219,30,0,0,196,250,-1480,194,-5.59,,,,,,,,,,,,
361603,1564151709014,1,2.34,0.95,0.32,1.43,1.09,0.92,0.11,0.46,1,-1,2,0.92,3682,0,94,44,55,954,193.0,286,455,60,123.0,153,1,157,219,30,0,0,196,250,14412,193,-5.59,,,,,,,,,,,,
361623,1564151709034,3,2.33,0.94,0.31,1.44,1.09,0.92,0.1,0.47,1,-0,2,0.92,3643,0,94,44,55,956,192.0,279,471,60,124.0,153,1,155,218,30,0,0,194,-1281,250,192,-5.59,,,,,,,,,,,,
361643,1564151709054,2,2.33,0.95,0.32,1.44,1.1,0.92,0.09,0.49,1,-1,2,0.92,3599,0,94,44,56,957,191.0,284,455,60,122.0,153,1,153,149,30,0,0,194,-1,-1481,191,-5.59,44.680828,10.024548,19.78,174.8,0,0.0,-1,0.0,0.0,0,2.49,6.0274
361663,1564151709074,1,2.33,0.95,0.32,1.43,1.09,0.93,0.11,0.43,1,1,1,0.93,3578,0,94,44,56,959,190.0,277,471,60,126.0,157,1,153,221,30,0,0,192,-1,250,190,181.28,,,,,,,,,,,,
361683,1564151709104,4,2.34,0.95,0.32,1.44,1.1,0.94,0.11,0.44,1,-2,2,0.95,3538,0,94,44,57,960,189.0,279,457,60,123.0,157,1,151,225,30,0,0,191,-1,14326,189,-5.59,,,,,,,,,,,,
361703,1564151709124,2,2.34,0.94,0.32,1.43,1.1,0.94,0.12,0.45,1,-2,2,0.95,3507,0,94,44,57,960,188.0,274,460,60,124.0,157,1,150,224,30,0,0,190,-1,-1,188,-5.59,,,,,,,,,,,,
361723,1564151709144,-0,2.34,0.94,0.32,1.44,1.09,0.9,0.12,0.41,1,1,2,0.91,3500,0,94,44,58,960,187.0,272,474,60,126.0,157,1,150,229,30,0,0,188,-1,-1281,187,181.28,,,,,,,,,,,,
361743,1564151709164,3,2.34,0.94,0.32,1.44,1.09,0.93,0.11,0.41,1,-1,2,0.93,3491,0,94,44,58,959,186.0,273,463,60,124.0,157,1,150,229,30,0,0,189,-1,-1,186,-5.59,44.680824,10.02454,19.3,174.8,0,0.0,-1,0.0,0.0,0,2.49,6.029
361763,1564151709184,1,2.33,0.94,0.32,1.43,1.09,0.93,0.11,0.43,1,-3,2,0.94,3420,0,94,44,58,957,184.0,270,459,60,125.0,156,1,0,232,29,0,0,186,-1,-1,184,-5.59,,,,,,,,,,,,
361783,1564151709203,1,2.34,0.94,0.32,1.43,1.09,0.9,0.1,0.41,1,0,1,0.9,3378,0,94,44,59,957,184.0,268,475,60,125.0,156,1,150,232,29,0,0,185,-1,-1,184,-5.59,,,,,,,,,,,,
361803,1564151709223,1,2.34,0.94,0.32,1.44,1.09,0.89,0.08,0.42,1,1,1,0.89,3307,0,94,44,60,955,182.0,264,466,60,126.0,156,1,0,236,29,0,0,185,-1,-1,182,181.28,,,,,,,,,,,,
361823,1564151709243,0,2.35,0.94,0.32,1.44,1.1,0.93,0.09,0.42,1,-0,2,0.93,3234,0,94,44,61,955,182.0,262,464,60,125.0,156,1,0,241,29,0,0,182,-1,-1,182,-5.59,,,,,,,,,,,,
361843,1564151709263,3,2.34,0.94,0.31,1.44,1.08,0.94,0.06,0.45,1,-3,2,0.94,3194,0,94,44,62,954,180.0,258,458,60,124.0,156,1,154,243,29,0,0,181,5134,-1,179,-5.59,44.680824,10.024533,18.86,174.8,0,0.0,-1,0.0,0.0,0,2.49,6.0307
361863,1564151709283,3,2.35,0.94,0.31,1.44,1.09,0.92,0.06,0.41,1,-3,2,0.92,3231,0,95,44,62,953,177.0,258,461,60,124.0,162,1,154,246,29,0,0,178,-1495,3584,177,-5.59,,,,,,,,,,,,
361883,1564151709301,0,2.36,0.94,0.32,1.43,1.1,0.95,0.03,0.41,1,-3,2,0.95,3268,0,94,44,63,954,175.0,257,459,60,123.0,162,1,158,246,29,0,0,174,31744,250,175,-5.59,,,,,,,,,,,,
361903,1564151709321,1,2.35,0.94,0.31,1.44,1.09,0.95,0.04,0.36,1,1,1,0.95,3289,0,95,44,64,955,173.0,256,470,60,125.0,162,1,162,246,29,0,0,171,-1281,31744,171,-5.59,,,,,,,,,,,,
361923,1564151709341,1,2.36,0.95,0.31,1.44,1.09,0.95,0.06,0.33,1,1,2,0.95,3315,0,95,44,64,957,170.0,257,470,60,125.0,162,1,162,249,29,0,0,171,-1,-1281,170,181.28,,,,,,,,,,,,
361943,1564151709361,1,2.36,0.94,0.31,1.43,1.09,0.93,0.07,0.36,1,-2,2,0.93,3294,0,94,44,64,959,169.0,258,462,60,125.0,162,1,0,249,29,0,0,169,-253,-1281,169,-5.59,44.680824,10.024528,18.23,174.8,0,0.0,-1,0.0,0.0,0,2.49,6.0324
361963,1564151709381,4,2.36,0.95,0.31,1.45,1.09,0.92,0.07,0.39,1,-4,3,0.92,3241,0,94,44,64,960,168.0,260,459,60,123.0,178,1,0,249,30,0,0,170,30720,-1281,168,-5.59,,,,,,,,,,,,
361983,1564151709403,4,2.36,0.95,0.31,1.44,1.09,0.92,0.07,0.4,1,-4,3,0.93,3191,0,94,44,65,963,166.0,258,460,60,123.0,178,1,0,251,30,0,0,168,30720,-253,166,-5.59,,,,,,,,,,,,
362003,1564151709423,-0,2.38,0.94,0.32,1.44,1.1,0.92,0.06,0.41,1,-3,2,0.92,3126,0,94,44,65,969,165.0,256,466,60,125.0,178,1,167,251,30,0,0,166,10764,-1,165,-5.59,,,,,,,,,,,,
362023,1564151709443,1,2.38,0.95,0.31,1.44,1.09,0.88,0.07,0.39,2,-1,3,0.89,3072,0,94,44,65,972,164.0,251,464,60,125.0,178,1,0,251,30,0,0,165,3072,-1,164,-5.59,,,,,,,,,,,,
362043,1564151709463,1,2.4,0.94,0.32,1.44,1.1,0.88,0.09,0.37,2,1,2,0.89,2997,0,94,44,65,976,163.0,248,468,60,125.0,178,1,166,251,30,0,0,163,250,888,162,-5.59,44.680824,10.024521,17.26,174.8,0,0.0,-1,0.0,0.0,0,2.49,6.034
362063,1564151709483,3,2.41,0.95,0.31,1.44,1.09,0.89,0.08,0.37,2,2,2,0.89,2945,0,94,44,66,977,161.0,245,463,60,125.0,172,1,0,254,28,0,0,161,-1,10764,161,-5.59,,,,,,,,,,,,
362083,1564151709504,2,2.42,0.94,0.32,1.44,1.1,0.88,0.06,0.37,2,3,3,0.88,2920,0,94,44,66,978,161.0,243,463,60,122.0,172,1,168,254,28,0,0,159,-1,250,161,-5.59,,,,,,,,,,,,
362103,1564151709524,4,2.42,0.94,0.32,1.44,1.09,0.87,0.05,0.37,3,2,3,0.87,2852,0,94,44,66,977,160.0,241,462,60,123.0,172,1,167,257,28,0,0,157,23460,10764,160,-5.59,,,,,,,,,,,,
362123,1564151709544,1,2.42,0.94,0.32,1.44,1.1,0.87,0.04,0.39,3,-0,3,0.87,2738,0,95,44,67,975,160.0,236,461,60,124.0,172,1,0,257,28,0,0,157,23460,-1494,160,-5.59,,,,,,,,,,,,
362143,1564151709564,1,2.43,0.94,0.31,1.43,1.1,0.84,0.04,0.4,3,-2,4,0.84,2690,0,95,44,68,970,159.0,229,460,60,123.0,172,1,167,260,28,0,0,157,-23552,-1281,159,-5.59,44.680824,10.024515,16.31,174.8,0,0.0,-1,0.0,0.0,0,2.49,6.0357
362163,1564151709584,-0,2.43,0.95,0.32,1.43,1.1,0.82,0.03,0.4,3,-0,4,0.82,2647,0,95,44,69,964,158.0,228,466,60,124.0,163,1,0,259,26,0,0,156,-1281,10764,158,-5.59,,,,,,,,,,,,
362183,1564151709603,3,2.43,0.95,0.32,1.44,1.1,0.83,0.06,0.36,4,4,4,0.84,2570,0,94,44,69,957,157.0,225,468,60,124.0,163,1,160,259,26,0,0,154,-1281,3072,157,-5.59,,,,,,,,,,,,
362203,1564151709623,1,2.43,0.94,0.32,1.43,1.1,0.9,0.04,0.34,4,2,4,0.9,2504,6,95,44,70,954,156.0,220,463,60,126.0,163,1,155,256,26,0,0,152,-1,-1281,156,181.28,,,,,,,,,,,,
362223,1564151709643,3,2.44,0.94,0.31,1.44,1.1,0.86,0.04,0.43,4,-1,4,0.86,2362,6,95,44,72,948,156.0,216,465,60,124.0,163,1,150,254,26,0,0,152,-1,-1281,155,-5.59,,,,,,,,,,,,
362243,1564151709663,1,2.42,0.95,0.31,1.44,1.09,0.87,0.02,0.38,4,-1,5,0.87,2324,12,95,44,74,943,154.0,212,466,60,125.0,163,1,145,251,26,0,0,151,-1,-1,154,-5.59,44.680824,10.024508,16.02,174.7,0,0.0,-1,0.0,0.0,0,2.49,6.0374
362263,1564151709683,-1,2.44,0.94,0.32,1.44,1.09,0.86,0.02,0.42,4,-0,4,0.86,2295,17,95,44,77,938,154.0,208,468,60,125.0,136,1,139,250,21,0,0,150,-1,-1,154,181.28,,,,,,,,,,,,
362283,1564151709703,1,2.43,0.95,0.31,1.44,1.09,0.9,0.02,0.37,4,1,5,0.9,2189,17,95,44,80,935,153.0,210,465,60,123.0,136,1,135,252,21,0,0,151,-1,-1,153,-5.59,,,,,,,,,,,,
362303,1564151709723,4,2.44,0.94,0.31,1.44,1.09,0.88,0.02,0.44,4,0,4,0.88,2133,17,95,44,82,933,152.0,203,467,60,125.0,136,1,132,256,21,0,0,149,-1,23460,152,181.28,,,,,,,,,,,,
362323,1564151709743,1,2.44,0.94,0.31,1.44,1.09,0.92,-0.01,0.37,4,-0,6,0.92,2130,17,95,44,84,929,151.0,198,463,60,125.0,136,1,130,259,21,0,0,148,-1,23460,151,181.28,,,,,,,,,,,,
362343,1564151709763,2,2.47,0.94,0.31,1.44,1.1,0.87,0.02,0.46,4,0,6,0.87,2182,18,95,44,85,926,151.0,198,463,60,125.0,136,1,130,260,21,0,0,146,-236,23460,151,181.28,44.680824,10.024504,15.47,174.7,0,0.0,-1,0.0,0.0,0,2.49,6.0391
362363,1564151709783,1,2.48,0.94,0.31,1.44,1.09,0.89,-0.0,0.42,4,-1,5,0.89,2222,17,95,44,87,924,149.0,194,460,60,125.0,145,1,130,262,22,0,0,145,5140,-1281,149,181.28,,,,,,,,,,,,
362383,1564151709803,3,2.49,0.94,0.31,1.44,1.09,0.87,-0.0,0.45,5,0,7,0.87,2209,18,95,44,87,923,150.0,197,461,60,124.0,145,1,130,262,22,0,0,144,250,250,150,-5.59,,,,,,,,,,,,
362403,1564151709823,0,2.51,0.95,0.31,1.44,1.09,0.89,-0.02,0.44,5,-1,6,0.89,2245,17,95,44,88,921,149.0,195,462,60,126.0,145,1,130,263,22,0,0,143,-1281,-1,149,181.28,,,,,,,,,,,,
362423,1564151709843,3,2.52,0.94,0.31,1.44,1.09,0.87,-0.02,0.46,5,1,7,0.87,2380,16,95,44,88,919,148.0,200,465,60,125.0,145,1,130,262,22,0,0,142,-1281,-1,148,-5.59,,,,,,,,,,,,
362443,1564151709863,1,2.52,0.94,0.31,1.43,1.09,0.92,-0.03,0.44,6,0,7,0.92,2428,6,95,44,87,919,148.0,202,462,60,124.0,145,1,0,262,22,0,0,140,-1,-1,148,-5.59,44.680824,10.024499,14.89,174.7,0,0.0,-1,0.0,0.0,0,2.49,6.0407
362463,1564151709883,-1,2.54,0.94,0.32,1.44,1.09,0.88,-0.03,0.46,6,-1,7,0.88,2425,6,95,44,85,918,147.0,203,465,60,125.0,163,1,0,260,24,0,0,139,-1,-1,147,181.28,,,,,,,,,,,,
362483,1564151709903,1,2.55,0.94,0.31,1.43,1.09,0.86,-0.03,0.43,6,2,8,0.86,2461,6,95,44,84,918,147.0,208,465,60,125.0,163,1,0,259,24,0,0,138,-1,-1,147,-5.59,,,,,,,,,,,,
362503,1564151709923,0,2.55,0.95,0.31,1.44,1.09,0.91,-0.04,0.44,7,0,8,0.91,2512,6,95,44,83,918,145.0,208,460,60,126.0,163,1,0,259,24,0,0,136,-1,-1,145,181.28,,,,,,,,,,,,
362523,1564151709943,1,2.56,0.95,0.31,1.43,1.09,0.88,-0.04,0.48,7,-1,8,0.89,2480,6,95,44,82,919,145.0,208,465,60,124.0,163,1,0,256,24,0,0,136,-1,-1,145,-5.59,,,,,,,,,,,,
362543,1564151709963,0,2.56,0.95,0.31,1.44,1.09,0.85,-0.04,0.45,8,0,10,0.85,2365,6,95,44,81,919,144.0,211,462,60,123.0,163,1,133,255,24,0,0,134,-1,-1,144,-5.59,44.68082,10.024493,14.57,174.7,0,0.0,-1,0.0,0.0,0,2.49,6.0424
362563,1564151709983,1,2.57,0.94,0.31,1.44,1.09,0.86,-0.05,0.47,8,-1,9,0.86,2348,6,95,44,82,917,144.0,208,460,60,126.0,152,1,0,256,22,0,0,132,-1,-1,144,181.28,,,,,,,,,,,,
362583,1564151709993,3,2.58,0.94,0.31,1.43,1.1,0.85,-0.06,0.48,8,1,10,0.85,2473,6,95,44,82,916,144.0,210,462,60,124.0,152,1,132,255,22,0,0,131,-1,-1,144,-5.59,,,,,,,,,,,,
362603,1564151710013,-1,2.6,0.94,0.32,1.44,1.08,0.89,-0.07,0.45,9,1,10,0.89,2443,6,95,44,81,912,143.0,211,462,60,124.0,152,1,133,255,22,0,0,130,-1,-1,143,-5.59,,,,,,,,,,,,
362623,1564151710033,-1,2.6,0.94,0.31,1.43,1.09,0.88,-0.08,0.47,9,-1,10,0.88,2385,6,95,44,81,910,143.0,209,464,60,126.0,152,1,0,255,22,0,0,129,-202,-1,143,181.28,,,,,,,,,,,,
362643,1564151710053,1,2.6,0.94,0.31,1.43,1.09,0.85,-0.09,0.44,9,0,12,0.86,2322,6,95,44,81,914,142.0,210,462,60,123.0,152,1,133,255,22,0,0,127,-202,-236,142,-5.59,44.68082,10.024488,14.02,174.7,0,0.0,-1,0.0,0.0,0,2.5,6.0441
362663,1564151710073,-0,2.6,0.94,0.3,1.44,1.08,0.85,-0.09,0.47,9,-1,11,0.85,2394,6,95,44,81,920,140.0,207,465,60,125.0,164,1,133,255,23,0,0,127,13868,5140,141,181.28,,,,,,,,,,,,
362683,1564151710095,3,2.61,0.95,0.31,1.44,1.09,0.81,-0.07,0.53,9,-1,11,0.82,2390,6,95,44,81,929,140.0,209,465,60,125.0,164,1,0,255,23,0,0,127,11264,5120,140,-5.59,,,,,,,,,,,,
362703,1564151710115,-1,2.63,0.94,0.3,1.43,1.09,0.85,-0.09,0.49,9,-2,13,0.85,2373,6,95,44,81,935,139.0,208,461,60,125.0,164,1,133,255,23,0,0,126,250,5120,139,181.28,,,,,,,,,,,,
362723,1564151710135,4,2.64,0.94,0.31,1.43,1.09,0.84,-0.11,0.5,10,-1,13,0.85,2276,6,95,44,81,956,138.0,206,465,60,124.0,164,1,0,255,23,0,0,125,-1482,-1281,138,-5.59,,,,,,,,,,,,
362743,1564151710155,1,2.66,0.94,0.3,1.43,1.09,0.87,-0.11,0.45,10,-2,14,0.88,2263,6,95,44,82,989,138.0,206,463,60,126.0,164,1,0,256,23,0,0,124,9728,-1,138,181.28,44.68082,10.024484,13.66,174.7,0,0.0,-1,0.0,0.0,0,2.5,6.0457
362763,1564151710175,3,2.68,0.95,0.31,1.43,1.09,0.86,-0.12,0.49,11,-0,13,0.87,2261,6,95,44,82,1008,137.0,205,466,60,126.0,159,1,0,256,22,0,0,122,9728,-1,137,181.28,,,,,,,,,,,,
362783,1564151710200,1,2.69,0.94,0.3,1.43,1.09,0.89,-0.12,0.45,11,-2,14,0.9,2237,6,95,44,82,1022,137.0,202,463,60,126.0,159,1,132,256,22,0,0,120,9728,-1,137,181.28,,,,,,,,,,,,
362803,1564151710220,1,2.7,0.94,0.31,1.44,1.09,0.87,-0.12,0.49,12,-0,14,0.88,2143,6,95,44,82,1049,136.0,202,462,60,124.0,159,1,0,256,22,0,0,119,13856,-1,136,-5.59,,,,,,,,,,,,
362823,1564151710240,0,2.7,0.95,0.3,1.44,1.09,0.87,-0.12,0.45,12,-1,15,0.88,2108,6,95,44,83,1083,136.0,200,460,60,124.0,159,1,130,258,22,0,0,117,8192,-1,136,181.28,,,,,,,,,,,,
362843,1564151710260,-1,2.71,0.94,0.31,1.44,1.08,0.89,-0.1,0.45,12,-1,15,0.9,2055,6,95,44,83,1109,135.0,198,460,60,124.0,159,1,0,258,22,0,0,116,250,-1,135,-5.59,44.68082,10.024479,13.21,174.7,0,0.0,-1,0.0,0.0,0,2.5,6.0474
362863,1564151710280,2,2.71,0.94,0.3,1.43,1.08,0.91,-0.11,0.44,12,-1,14,0.92,2059,6,95,44,84,1124,134.0,196,468,60,126.0,149,1,130,258,20,0,0,114,-1482,-1,134,181.28,,,,,,,,,,,,
362883,1564151710304,1,2.69,0.95,0.3,1.43,1.09,0.91,-0.12,0.37,13,-1,17,0.92,2008,6,95,44,84,1140,133.0,194,463,60,125.0,149,1,130,259,20,0,0,114,13850,-1,133,181.28,,,,,,,,,,,,
362903,1564151710324,1,2.69,0.94,0.3,1.44,1.09,0.91,-0.08,0.43,13,-2,17,0.91,1887,6,95,44,84,1159,132.0,194,457,60,124.0,149,1,130,259,20,0,0,113,6656,-1,132,-5.59,,,,,,,,,,,,
362923,1564151710344,1,2.7,0.94,0.3,1.43,1.09,0.9,-0.08,0.41,13,-1,15,0.9,1857,6,95,44,85,1167,131.0,189,466,60,126.0,149,1,130,259,20,0,0,113,250,-1,131,-5.59,,,,,,,,,,,,
362943,1564151710364,3,2.7,0.94,0.3,1.44,1.09,0.89,-0.1,0.39,13,-1,16,0.9,1865,6,95,45,86,1167,130.0,187,468,60,126.0,149,1,0,261,20,0,0,112,-1482,-1,130,181.28,44.68082,10.024474,12.72,174.7,0,0.0,-1,0.0,0.0,0,2.5,6.049
362963,1564151710384,-1,2.7,0.94,0.31,1.43,1.09,0.89,-0.1,0.35,13,-0,18,0.9,1855,6,95,44,86,1166,128.0,185,460,60,125.0,140,1,0,261,18,0,0,110,-1482,-202,128,181.28,,,,,,,,,,,,
362983,1564151710402,1,2.7,0.94,0.3,1.44,1.08,0.89,-0.07,0.39,13,-1,17,0.89,1808,6,95,44,86,1163,127.0,187,465,60,125.0,140,1,0,261,18,0,0,110,13844,-202,127,181.28,,,,,,,,,,,,
363003,1564151710422,-0,2.71,0.94,0.3,1.43,1.08,0.9,-0.09,0.4,14,-1,16,0.9,1719,6,95,44,86,1160,126.0,185,459,60,124.0,140,1,130,261,18,0,0,107,250,-202,126,-5.59,,,,,,,,,,,,
363023,1564151710442,1,2.7,0.94,0.31,1.44,1.08,0.9,-0.1,0.42,14,-1,17,0.9,1628,6,95,44,86,1159,125.0,182,463,60,123.0,140,1,0,261,18,0,0,107,-1482,250,125,-5.59,,,,,,,,,,,,
363043,1564151710462,1,2.71,0.94,0.31,1.44,1.08,0.89,-0.09,0.45,14,-0,17,0.9,1558,6,95,44,87,1155,124.0,180,465,60,124.0,140,1,0,262,18,0,0,107,3584,-1482,124,-5.59,44.68082,10.024469,12.2,174.7,0,0.0,-1,0.0,0.0,0,2.5,6.0507
363063,1564151710482,1,2.7,0.95,0.3,1.43,1.08,0.9,-0.09,0.48,14,-0,16,0.91,1591,6,95,44,87,1147,123.0,178,468,60,125.0,120,1,0,262,15,0,0,106,3584,-1482,123,-5.59,,,,,,,,,,,,
363083,1564151710502,1,2.69,0.94,0.3,1.44,1.08,0.9,-0.1,0.5,14,-0,17,0.9,1632,6,95,45,88,1139,122.0,175,467,60,126.0,120,1,0,263,15,0,0,105,3584,-1482,122,181.28,,,,,,,,,,,,
363103,1564151710522,1,2.7,0.94,0.31,1.44,1.08,0.9,-0.1,0.49,14,-1,18,0.9,1624,6,95,45,89,1134,121.0,174,462,60,126.0,120,1,0,264,15,0,0,104,250,9728,121,181.28,,,,,,,,,,,,
363123,1564151710542,1,2.7,0.95,0.3,1.44,1.09,0.89,-0.1,0.5,14,-0,19,0.9,1577,6,95,44,89,1128,120.0,173,459,60,125.0,120,1,0,264,15,0,0,102,-1482,250,120,181.28,,,,,,,,,,,,
363143,1564151710562,0,2.7,0.95,0.3,1.44,1.09,0.88,-0.1,0.5,13,-0,19,0.89,1463,6,95,44,89,1123,118.0,171,463,60,125.0,120,1,127,264,15,0,0,102,2048,-1482,118,181.28,44.68082,10.024465,11.69,174.7,0,0.0,-1,0.0,0.0,0,2.5,6.0524
363163,1564151710582,-0,2.71,0.94,0.3,1.43,1.09,0.87,-0.09,0.5,13,1,19,0.88,1368,6,95,44,89,1115,117.0,170,467,60,125.0,118,1,0,264,14,0,0,101,2048,8192,117,-5.59,,,,,,,,,,,,
363183,1564151710602,-1,2.71,0.94,0.3,1.44,1.08,0.88,-0.09,0.51,13,1,19,0.89,1319,6,95,45,89,1112,117.0,169,468,60,124.0,118,1,115,264,14,0,0,99,250,250,117,-5.59,,,,,,,,,,,,
363203,1564151710622,-1,2.71,0.94,0.3,1.43,1.08,0.89,-0.09,0.55,13,0,19,0.89,1373,6,95,45,90,1109,116.0,169,460,60,123.0,118,1,119,265,14,0,0,99,-1483,-1482,116,-5.59,,,,,,,,,,,,
363223,1564151710642,-0,2.7,0.94,0.3,1.44,1.08,0.89,-0.08,0.58,13,1,18,0.89,1509,6,95,45,90,1106,115.0,168,462,60,124.0,118,1,0,265,14,0,0,99,13736,-1482,115,-5.59,,,,,,,,,,,,
363243,1564151710662,-2,2.71,0.94,0.3,1.43,1.09,0.89,-0.08,0.6,13,1,18,0.89,1531,6,95,45,90,1102,114.0,171,461,60,123.0,118,1,130,265,14,0,0,98,13736,6656,114,-5.59,44.68082,10.024461,11.46,174.7,0,0.0,-1,0.0,0.0,0,2.5,6.054
363263,1564151710682,-2,2.71,0.94,0.31,1.43,1.08,0.91,-0.07,0.62,13,1,17,0.91,1439,6,95,45,89,1100,114.0,170,460,60,123.0,131,1,125,264,15,0,0,97,-22528,6656,114,-5.59,,,,,,,,,,,,
363283,1564151710702,-1,2.71,0.95,0.3,1.44,1.09,0.9,-0.07,0.64,13,0,17,0.91,1311,6,95,45,90,1100,113.0,165,462,60,125.0,131,1,114,265,15,0,0,97,-22528,6656,113,-5.59,,,,,,,,,,,,
363303,1564151710722,3,2.69,0.94,0.31,1.44,1.08,0.88,-0.08,0.63,13,-0,17,0.89,1311,6,95,45,91,1102,112.0,162,461,60,125.0,131,1,0,271,15,0,0,97,250,6656,112,-5.59,,,,,,,,,,,,
363323,1564151710742,-0,2.7,0.94,0.3,1.43,1.09,0.89,-0.07,0.58,13,0,16,0.89,1200,6,95,45,92,1104,112.0,161,468,60,125.0,131,1,0,278,15,0,0,97,250,6656,112,-5.59,,,,,,,,,,,,
363343,1564151710762,-1,2.7,0.95,0.3,1.44,1.09,0.9,-0.06,0.57,13,-1,16,0.9,1244,6,95,45,92,1108,112.0,160,463,60,124.0,131,1,0,278,15,0,0,96,250,250,112,181.28,44.68082,10.024457,10.74,174.7,0,0.0,-1,0.0,0.0,0,2.5,6.0557
363363,1564151710782,-0,2.7,0.94,0.31,1.44,1.08,0.88,-0.08,0.59,13,-1,17,0.88,1396,6,95,45,92,1113,111.0,161,465,60,125.0,108,1,0,271,12,0,0,96,-1481,-1482,111,181.28,,,,,,,,,,,,
363383,1564151710804,-1,2.7,0.95,0.3,1.44,1.09,0.86,-0.09,0.58,13,-1,17,0.87,1451,6,95,45,91,1118,111.0,164,468,60,125.0,108,1,139,271,12,0,0,96,-1481,-1482,111,181.28,,,,,,,,,,,,
363403,1564151710824,-0,2.69,0.95,0.3,1.43,1.09,0.86,-0.1,0.59,13,-0,18,0.86,1454,6,95,45,91,1125,112.0,166,467,60,125.0,108,1,0,271,12,0,0,96,-1481,-1482,112,-5.59,,,,,,,,,,,,
363423,1564151710844,-0,2.69,0.94,0.3,1.44,1.09,0.85,-0.09,0.6,13,0,18,0.86,1370,6,95,45,90,1130,111.0,166,467,60,124.0,108,1,0,265,12,0,0,95,-1481,-1482,111,-5.59,,,,,,,,,,,,
363443,1564151710864,0,2.68,0.95,0.3,1.44,1.09,0.86,-0.08,0.62,13,-0,18,0.86,1213,6,95,45,90,1134,111.0,162,458,60,125.0,108,1,0,265,12,0,0,95,14312,-1482,111,-5.59,44.680824,10.024454,10.78,174.8,0,0.0,-1,0.0,0.0,0,2.5,6.0574
363463,1564151710884,2,2.67,0.94,0.31,1.44,1.09,0.84,-0.08,0.63,13,-1,18,0.85,1213,6,95,45,92,1148,110.0,159,462,60,125.0,108,1,0,278,12,0,0,95,14312,5120,110,181.28,,,,,,,,,,,,
363483,1564151710902,-2,2.67,0.94,0.3,1.44,1.09,0.84,-0.06,0.61,13,-0,17,0.84,1136,6,95,45,93,1162,110.0,158,463,60,125.0,108,1,141,278,12,0,0,95,14312,13844,110,-5.59,,,,,,,,,,,,
363503,1564151710922,-0,2.65,0.95,0.3,1.44,1.08,0.85,-0.05,0.58,12,-0,17,0.85,1169,6,95,45,92,1169,110.0,159,464,60,124.0,108,1,0,278,12,0,0,95,14312,5120,110,-5.59,,,,,,,,,,,,
363523,1564151710942,-2,2.65,0.94,0.3,1.43,1.08,0.83,-0.05,0.59,12,-0,17,0.84,1197,6,95,45,92,1182,109.0,161,460,60,122.0,108,1,132,278,12,0,0,95,14312,5120,109,-5.59,,,,,,,,,,,,
363543,1564151710962,-0,2.64,0.95,0.3,1.43,1.08,0.85,-0.04,0.59,12,0,17,0.85,1367,6,95,45,91,1195,109.0,161,467,60,123.0,108,1,132,271,12,0,0,95,14312,250,109,-5.59,44.680824,10.024449,10.43,174.7,0,0.0,-1,0.0,0.0,0,2.5,6.0591
363563,1564151710982,-0,2.64,0.94,0.3,1.44,1.09,0.86,-0.03,0.62,12,-1,16,0.86,1389,6,95,45,91,1207,108.0,160,461,60,125.0,128,1,134,271,14,0,0,95,14312,250,108,-5.59,,,,,,,,,,,,
363583,1564151710994,-1,2.63,0.94,0.3,1.43,1.09,0.85,-0.03,0.64,12,-1,16,0.85,1389,6,95,45,91,1213,108.0,160,460,60,125.0,128,1,0,278,14,0,0,95,14312,5120,108,181.28,,,,,,,,,,,,
363603,1564151711014,2,2.62,0.94,0.3,1.43,1.08,0.85,-0.03,0.62,12,-1,15,0.85,1305,6,95,45,92,1215,108.0,159,463,60,125.0,128,1,141,278,14,0,0,95,-6144,5120,108,-5.59,,,,,,,,,,,,
363623,1564151711034,0,2.61,0.94,0.3,1.44,1.08,0.86,-0.03,0.56,12,-1,15,0.86,1304,6,95,45,92,1218,108.0,161,463,60,125.0,128,1,0,278,14,0,0,95,-6144,250,108,-5.59,,,,,,,,,,,,
363643,1564151711054,-0,2.61,0.94,0.3,1.44,1.08,0.85,-0.01,0.55,11,-2,15,0.85,1190,6,95,45,92,1223,107.0,159,460,60,124.0,128,1,132,278,14,0,0,95,-6144,250,107,-5.59,44.680824,10.024446,10.25,174.7,0,0.0,-1,0.0,0.0,0,2.5,6.0607
363663,1564151711074,-1,2.6,0.94,0.3,1.44,1.08,0.82,-0.02,0.55,11,-2,15,0.82,1235,6,95,45,91,1226,107.0,162,457,60,123.0,112,1,0,271,12,0,0,95,-6144,-1482,107,-5.59,,,,,,,,,,,,
363683,1564151711104,-1,2.59,0.94,0.31,1.43,1.08,0.84,-0.01,0.56,11,-1,14,0.84,1339,6,95,45,91,1227,106.0,162,459,60,123.0,112,1,130,271,12,0,0,95,-6144,-1482,106,-5.59,,,,,,,,,,,,
363703,1564151711124,-1,2.58,0.94,0.3,1.44,1.08,0.85,-0.01,0.57,11,-1,14,0.85,1317,6,95,45,91,1228,105.0,159,463,60,125.0,112,1,0,271,12,0,0,96,-6144,13838,105,181.28,,,,,,,,,,,,
363723,1564151711144,-2,2.58,0.94,0.3,1.44,1.08,0.84,-0.01,0.57,11,-2,13,0.84,1317,6,95,45,91,1228,105.0,160,461,60,125.0,112,1,0,271,12,0,0,95,-6144,13838,105,181.28,,,,,,,,,,,,
363743,1564151711164,-2,2.58,0.94,0.3,1.44,1.08,0.83,-0.01,0.56,10,-2,13,0.83,1429,6,95,45,92,1227,105.0,160,465,60,125.0,112,1,0,278,12,0,0,95,-6144,13838,105,181.28,44.680824,10.024443,10.29,174.7,0,0.0,-1,0.0,0.0,0,2.5,6.0624
363763,1564151711184,2,2.58,0.94,0.3,1.43,1.09,0.84,-0.01,0.53,10,-2,13,0.84,1332,6,95,45,92,1225,105.0,161,463,60,125.0,123,1,0,278,13,0,0,95,-6144,13838,105,181.28,,,,,,,,,,,,
363783,1564151711203,0,2.57,0.94,0.3,1.43,1.08,0.86,-0.0,0.5,10,-1,12,0.86,1290,6,95,45,92,1224,105.0,161,460,60,124.0,123,1,0,278,13,0,0,95,-6144,13838,105,181.28,,,,,,,,,,,,
363803,1564151711223,-2,2.57,0.94,0.3,1.43,1.08,0.83,-0.0,0.5,10,-2,12,0.83,1368,6,95,45,92,1225,104.0,161,461,60,124.0,123,1,146,278,13,0,0,95,-6144,3584,104,181.28,,,,,,,,,,,,
363823,1564151711243,-1,2.55,0.94,0.3,1.43,1.08,0.82,-0.0,0.5,10,-2,12,0.82,1280,6,95,45,91,1226,104.0,161,471,60,125.0,123,1,0,271,13,0,0,94,-6144,13838,104,-5.59,,,,,,,,,,,,
363843,1564151711263,-0,2.56,0.94,0.3,1.44,1.08,0.82,-0.01,0.5,9,-1,12,0.82,1344,6,95,45,91,1229,104.0,164,463,60,123.0,123,1,0,271,13,0,0,94,-6144,3584,104,-5.59,44.680824,10.024439,10.03,174.8,0,0.0,-1,0.0,0.0,0,2.5,6.0641
363863,1564151711283,-2,2.55,0.94,0.31,1.44,1.08,0.84,-0.01,0.51,9,-0,12,0.84,1385,6,95,45,91,1232,103.0,165,461,60,123.0,135,1,0,271,14,0,0,95,-6144,3584,103,-5.59,,,,,,,,,,,,
363883,1564151711303,-0,2.54,0.94,0.3,1.44,1.08,0.85,-0.01,0.52,9,-1,12,0.85,1332,6,95,45,91,1235,103.0,162,466,60,125.0,135,1,0,271,14,0,0,94,-6144,3584,103,-5.59,,,,,,,,,,,,
363903,1564151711323,-0,2.53,0.94,0.3,1.43,1.08,0.84,-0.0,0.54,9,-2,12,0.84,1383,6,95,45,91,1238,102.0,162,462,60,125.0,135,1,0,271,14,0,0,95,-6144,3584,102,-5.59,,,,,,,,,,,,
363923,1564151711343,-1,2.53,0.94,0.3,1.44,1.08,0.83,0.01,0.55,8,-1,11,0.83,1383,6,95,45,92,1239,102.0,161,462,60,125.0,135,1,147,278,14,0,0,95,-6144,-1482,102,414.87,,,,,,,,,,,,
363943,1564151711363,3,2.52,0.94,0.3,1.43,1.09,0.83,0.01,0.52,8,-1,11,0.83,1270,6,95,45,92,1241,102.0,161,466,60,125.0,135,1,0,278,14,0,0,95,-6144,250,102,181.28,44.680824,10.024436,9.88,174.8,0,0.0,-1,0.0,0.0,0,2.5,6.0657
363963,1564151711383,-1,2.52,0.94,0.3,1.43,1.09,0.84,0.02,0.47,8,-1,11,0.85,1288,6,95,45,92,1252,102.0,161,459,60,125.0,127,1,0,278,13,0,0,95,-6144,13832,102,181.28,,,,,,,,,,,,
363983,1564151711403,-1,2.51,0.94,0.3,1.42,1.09,0.83,0.03,0.47,8,-1,11,0.83,1373,6,95,45,92,1265,101.0,163,458,60,125.0,127,1,0,278,13,0,0,95,-6144,-1482,101,181.28,,,,,,,,,,,,
364003,1564151711423,-2,2.5,0.94,0.3,1.44,1.08,0.82,0.02,0.48,8,-1,11,0.82,1334,6,95,45,92,1274,101.0,162,468,60,125.0,127,1,143,278,13,0,0,95,-6144,-1482,101,181.28,,,,,,,,,,,,
364023,1564151711443,-0,2.49,0.94,0.3,1.44,1.08,0.82,0.01,0.49,8,-1,11,0.82,1466,6,95,45,92,1285,101.0,164,470,60,125.0,127,1,0,278,13,0,0,95,250,13832,101,181.28,,,,,,,,,,,,
364043,1564151711463,-0,2.49,0.94,0.3,1.44,1.08,0.82,0.01,0.51,7,-0,11,0.82,1478,6,95,45,91,1298,101.0,165,466,60,125.0,127,1,141,271,13,0,0,94,250,-1482,101,-5.59,44.680824,10.024433,9.98,174.8,0,0.0,-1,0.0,0.0,0,2.5,6.0674
364063,1564151711483,-1,2.49,0.94,0.31,1.43,1.09,0.81,0.01,0.54,7,0,11,0.81,1418,6,95,45,91,1308,100.0,166,469,60,125.0,148,1,136,271,15,0,0,94,250,13832,100,-5.59,,,,,,,,,,,,
364083,1564151711503,-0,2.48,0.94,0.3,1.43,1.08,0.81,0.01,0.56,7,1,11,0.81,1447,6,95,45,91,1310,100.0,166,466,60,124.0,148,1,0,271,15,0,0,95,-6144,13832,100,-5.59,,,,,,,,,,,,
364103,1564151711523,-1,2.48,0.94,0.3,1.43,1.08,0.82,0.02,0.59,7,1,11,0.82,1339,6,95,45,90,1313,100.0,167,460,60,123.0,148,1,0,265,15,0,0,95,250,13832,100,-5.59,,,,,,,,,,,,
364123,1564151711543,-0,2.47,0.94,0.3,1.43,1.09,0.83,0.03,0.62,7,1,10,0.83,1337,6,95,45,91,1320,99.0,164,466,60,125.0,148,1,0,271,15,0,0,95,250,2048,99,-5.59,,,,,,,,,,,,
364143,1564151711563,-0,2.47,0.93,0.3,1.43,1.09,0.83,0.03,0.64,7,0,9,0.83,1337,6,95,45,91,1328,99.0,162,460,60,125.0,148,1,129,271,15,0,0,95,-6144,2048,99,181.28,44.680824,10.024429,9.52,174.8,0,0.0,-1,0.0,0.0,0,2.5,6.069
364163,1564151711583,-2,2.47,0.94,0.3,1.43,1.09,0.83,0.03,0.64,6,-0,9,0.83,1373,6,95,45,92,1332,99.0,164,461,60,125.0,141,1,146,278,14,0,0,94,250,2048,99,181.28,,,,,,,,,,,,
364183,1564151711599,-0,2.46,0.93,0.3,1.43,1.08,0.83,0.03,0.63,6,-1,8,0.83,1368,6,95,45,91,1337,99.0,163,466,60,125.0,141,1,0,271,14,0,0,94,250,2048,99,181.28,,,,,,,,,,,,
364203,1564151711619,-0,2.46,0.93,0.29,1.43,1.09,0.83,0.03,0.61,6,-1,8,0.83,1473,6,95,45,91,1340,99.0,165,465,60,124.0,141,1,0,271,14,0,0,95,250,250,99,181.28,,,,,,,,,,,,
364223,1564151711639,1,2.46,0.94,0.3,1.43,1.09,0.83,0.03,0.57,6,-1,7,0.83,1432,6,95,44,92,1343,98.0,165,466,60,124.0,141,1,0,278,14,0,0,95,250,2048,98,181.28,,,,,,,,,,,,
364243,1564151711659,3,2.46,0.94,0.3,1.43,1.09,0.83,0.04,0.51,6,-1,7,0.83,1386,6,95,45,92,1343,98.0,164,463,60,124.0,141,1,0,278,14,0,0,94,250,2048,98,181.28,44.680824,10.024426,9.5,174.8,0,0.0,-1,0.0,0.0,0,2.5,6.0707
364263,1564151711679,0,2.44,0.93,0.3,1.43,1.08,0.82,0.04,0.48,6,-1,7,0.82,1420,6,95,44,92,1341,98.0,164,460,60,125.0,142,1,0,278,14,0,0,94,250,2048,98,181.28,,,,,,,,,,,,
364283,1564151711703,-1,2.45,0.93,0.3,1.43,1.08,0.81,0.04,0.45,6,-1,7,0.82,1365,6,95,44,92,1348,98.0,164,460,60,124.0,142,1,0,278,14,0,0,94,250,-1483,98,181.28,,,,,,,,,,,,
364303,1564151711723,-1,2.44,0.94,0.3,1.42,1.08,0.82,0.04,0.43,5,-0,7,0.82,1473,6,95,44,92,1355,98.0,165,458,60,125.0,142,1,0,278,14,0,0,94,-1481,-1483,98,181.28,,,,,,,,,,,,
364323,1564151711743,-0,2.43,0.94,0.3,1.43,1.09,0.82,0.05,0.42,5,-0,8,0.82,1495,6,95,44,91,1364,97.0,166,459,60,124.0,142,1,0,271,14,0,0,94,-1481,250,97,181.28,,,,,,,,,,,,
364343,1564151711763,-1,2.43,0.94,0.3,1.42,1.08,0.81,0.05,0.42,5,-0,8,0.81,1441,6,95,44,91,1373,97.0,165,460,60,125.0,142,1,0,271,14,0,0,94,-1481,-1483,97,181.28,44.680828,10.024424,9.55,174.8,0,0.0,-1,0.0,0.0,0,2.5,6.0724
364363,1564151711783,-1,2.44,0.94,0.3,1.43,1.08,0.8,0.05,0.43,5,-0,8,0.8,1464,6,95,44,91,1379,97.0,166,461,60,125.0,144,1,0,271,14,0,0,94,-1481,-1483,97,181.28,,,,,,,,,,,,
364383,1564151711803,-0,2.42,0.94,0.3,1.43,1.08,0.79,0.04,0.46,5,0,8,0.79,1347,6,95,44,91,1383,97.0,166,469,60,125.0,144,1,0,265,14,0,0,93,-1481,13736,97,-5.59,,,,,,,,,,,,
364403,1564151711823,-1,2.43,0.94,0.3,1.44,1.08,0.79,0.05,0.5,5,1,8,0.8,1363,6,95,44,91,1385,96.0,167,461,60,125.0,144,1,0,271,14,0,0,94,-1481,-1483,96,-5.59,,,,,,,,,,,,
364423,1564151711843,-0,2.42,0.94,0.3,1.43,1.08,0.8,0.03,0.53,5,2,8,0.8,1455,6,95,44,91,1382,97.0,167,462,60,123.0,144,1,0,271,14,0,0,93,-1481,13736,97,-5.59,,,,,,,,,,,,
364443,1564151711863,-1,2.42,0.94,0.3,1.43,1.09,0.8,0.03,0.58,4,2,8,0.8,1435,6,95,44,90,1383,97.0,167,461,60,123.0,144,1,0,265,14,0,0,93,-1481,13736,97,-5.59,44.680828,10.02442,9.47,174.8,0,0.0,-1,0.0,0.0,0,2.5,6.074
364463,1564151711883,-1,2.42,0.94,0.3,1.43,1.09,0.79,0.04,0.6,4,2,7,0.79,1538,6,95,44,90,1386,96.0,169,463,60,123.0,156,1,130,265,15,0,0,94,-1481,13736,96,-5.59,,,,,,,,,,,,
364483,1564151711904,-0,2.42,0.93,0.3,1.43,1.09,0.8,0.03,0.62,4,3,7,0.81,1478,6,95,44,90,1391,95.0,170,464,60,123.0,156,1,128,265,15,0,0,93,-1481,-22528,95,-5.59,,,,,,,,,,,,
364503,1564151711924,-0,2.42,0.93,0.3,1.43,1.08,0.82,0.04,0.65,4,3,6,0.82,1448,6,95,44,90,1396,95.0,171,460,60,123.0,156,1,125,265,15,0,0,93,-1481,-22528,95,-5.59,,,,,,,,,,,,
364523,1564151711944,-1,2.41,0.94,0.3,1.44,1.08,0.83,0.03,0.68,4,2,6,0.83,1517,6,95,44,90,1398,95.0,170,461,60,123.0,156,1,0,265,15,0,0,93,-1481,-22528,95,-5.59,,,,,,,,,,,,
364543,1564151711964,-0,2.41,0.94,0.3,1.43,1.08,0.84,0.03,0.71,4,2,6,0.84,1429,6,95,44,90,1398,95.0,169,460,60,124.0,156,1,0,265,15,0,0,93,-1481,-22528,95,-5.59,44.680828,10.024417,9.43,174.8,0,0.0,-1,0.0,0.0,0,2.5,6.0757
364563,1564151711984,-2,2.42,0.94,0.3,1.43,1.09,0.86,0.03,0.72,4,2,5,0.86,1454,6,95,44,90,1394,95.0,168,463,60,123.0,147,1,126,265,14,0,0,93,-1481,250,95,-5.59,,,,,,,,,,,,
364583,1564151711995,-2,2.42,0.93,0.3,1.43,1.08,0.87,0.03,0.74,4,1,4,0.87,1532,6,95,44,90,1390,95.0,169,459,60,124.0,147,1,0,265,14,0,0,93,-1481,-22528,95,-5.59,,,,,,,,,,,,
364603,1564151712015,-0,2.42,0.93,0.3,1.43,1.09,0.87,0.04,0.76,3,1,4,0.87,1506,6,95,44,90,1384,95.0,169,462,60,124.0,147,1,0,265,14,0,0,93,-1481,-22528,95,-5.59,,,,,,,,,,,,
364623,1564151712035,-2,2.42,0.94,0.3,1.43,1.09,0.86,0.04,0.75,3,1,3,0.86,1598,6,95,44,90,1375,94.0,171,460,60,123.0,147,1,130,265,14,0,0,93,14298,250,94,-5.59,,,,,,,,,,,,
364643,1564151712055,-1,2.41,0.94,0.3,1.42,1.08,0.87,0.03,0.76,3,1,3,0.87,1495,6,95,44,90,1373,94.0,171,463,60,123.0,147,1,0,265,14,0,0,93,14298,250,94,-5.59,44.680832,10.024414,9.46,174.9,0,0.0,-1,0.0,0.0,0,2.5,6.0774
364663,1564151712075,-0,2.41,0.93,0.3,1.43,1.09,0.87,0.04,0.78,3,0,3,0.87,1466,6,95,44,90,1372,94.0,170,461,60,123.0,159,1,0,265,15,0,0,92,14298,250,94,-5.59,,,,,,,,,,,,
364683,1564151712103,-1,2.4,0.94,0.3,1.43,1.08,0.87,0.04,0.79,3,0,3,0.87,1555,6,95,44,90,1372,94.0,171,462,60,123.0,159,1,0,265,15,0,0,92,14298,250,94,-5.59,,,,,,,,,,,,
364703,1564151712123,-1,2.4,0.94,0.3,1.43,1.08,0.85,0.04,0.79,3,1,2,0.85,1553,6,95,44,90,1373,94.0,170,465,60,124.0,159,1,130,265,15,0,0,92,14298,250,94,-5.59,,,,,,,,,,,,
364723,1564151712143,-0,2.4,0.94,0.3,1.44,1.08,0.84,0.04,0.79,3,1,3,0.84,1668,6,95,44,90,1373,94.0,173,469,60,125.0,159,1,130,265,15,0,0,92,14298,-1481,94,-5.59,,,,,,,,,,,,
364743,1564151712163,-2,2.4,0.94,0.3,1.43,1.08,0.84,0.03,0.79,3,1,3,0.84,1631,6,95,44,90,1374,94.0,171,471,60,125.0,159,1,0,265,15,0,0,92,14298,-1481,94,-5.59,44.680832,10.02441,9.31,174.9,0,0.0,-1,0.0,0.0,0,2.5,6.0791
364763,1564151712183,0,2.39,0.94,0.3,1.44,1.08,0.83,0.03,0.78,3,0,4,0.83,1588,6,95,44,90,1374,93.0,170,463,60,125.0,172,1,130,265,16,0,0,92,-9728,-1481,93,181.28,,,,,,,,,,,,
364783,1564151712202,0,2.4,0.93,0.3,1.43,1.09,0.83,0.04,0.75,3,1,4,0.83,1636,6,95,44,90,1371,93.0,170,461,60,125.0,172,1,0,265,16,0,0,92,-9728,250,93,181.28,,,,,,,,,,,,
364803,1564151712222,2,2.38,0.93,0.3,1.43,1.08,0.84,0.05,0.71,3,1,4,0.84,1556,6,95,44,90,1368,93.0,170,460,60,125.0,172,1,0,265,16,0,0,91,-9728,-1481,93,181.28,,,,,,,,,,,,
364823,1564151712242,3,2.38,0.93,0.3,1.43,1.08,0.84,0.05,0.68,3,2,4,0.84,1575,6,95,44,91,1364,93.0,170,459,60,124.0,172,1,0,271,16,0,0,92,-9728,-1481,93,181.28,,,,,,,,,,,,
364843,1564151712262,-0,2.37,0.94,0.3,1.43,1.08,0.84,0.06,0.64,3,2,4,0.84,1599,6,95,44,90,1361,92.0,170,463,60,125.0,172,1,130,265,16,0,0,91,-9728,14312,92,181.28,44.680832,10.024407,9.28,174.9,0,0.0,-1,0.0,0.0,0,2.5,6.0807
364863,1564151712282,-0,2.37,0.94,0.3,1.42,1.09,0.84,0.07,0.6,3,1,4,0.84,1575,6,95,44,90,1361,92.0,170,463,60,125.0,163,1,130,265,15,0,0,91,-9728,14312,92,181.28,,,,,,,,,,,,
364883,1564151712302,-0,2.36,0.94,0.3,1.43,1.08,0.84,0.07,0.57,3,0,4,0.84,1617,6,95,44,90,1361,92.0,173,463,60,125.0,163,1,0,265,15,0,0,91,-9728,14312,92,181.28,,,,,,,,,,,,
364903,1564151712322,-1,2.36,0.93,0.3,1.43,1.07,0.83,0.07,0.55,2,-1,3,0.84,1541,6,96,44,90,1366,91.0,170,462,60,125.0,163,1,0,265,15,0,0,91,-9728,14312,91,181.28,,,,,,,,,,,,
364923,1564151712342,-0,2.36,0.94,0.3,1.43,1.08,0.82,0.06,0.54,2,-1,3,0.82,1535,6,95,45,90,1370,91.0,170,460,60,125.0,163,1,0,265,15,0,0,91,-9728,-6144,91,181.28,,,,,,,,,,,,
364943,1564151712362,-1,2.37,0.94,0.3,1.43,1.08,0.83,0.07,0.51,2,-2,3,0.83,1580,6,96,44,90,1371,91.0,170,463,60,125.0,163,1,130,265,15,0,0,91,250,-6144,91,181.28,44.680836,10.024405,9.09,174.9,0,0.0,-1,0.0,0.0,0,2.5,6.0824
364963,1564151712382,-1,2.36,0.93,0.29,1.43,1.08,0.84,0.06,0.51,2,-2,2,0.84,1629,6,95,44,90,1373,90.0,171,458,60,125.0,166,1,0,265,15,0,0,90,250,-6144,90,-5.59,,,,,,,,,,,,
364983,1564151712404,-0,2.37,0.94,0.3,1.43,1.08,0.85,0.06,0.5,2,-2,1,0.85,1625,6,95,44,89,1370,90.0,174,457,60,124.0,166,1,0,264,15,0,0,90,250,-1481,90,-5.59,,,,,,,,,,,,
365003,1564151712424,-0,2.36,0.94,0.3,1.42,1.08,0.84,0.07,0.5,2,-1,1,0.85,1616,6,95,44,89,1367,90.0,175,462,60,123.0,166,1,0,264,15,0,0,89,-1481,-1481,90,-5.59,,,,,,,,,,,,
365023,1564151712444,-1,2.36,0.94,0.3,1.43,1.08,0.85,0.07,0.5,2,-1,1,0.85,1666,6,95,44,89,1362,89.0,175,468,60,124.0,166,1,130,264,15,0,0,88,14284,-9728,89,-5.59,,,,,,,,,,,,
365043,1564151712464,-2,2.36,0.93,0.3,1.42,1.09,0.85,0.06,0.51,2,-2,2,0.85,1637,6,95,44,89,1357,87.0,173,468,60,125.0,166,1,0,264,15,0,0,88,14284,-9728,87,-5.59,44.680836,10.024402,9.12,174.8,0,0.0,-1,0.0,0.0,0,2.5,6.0841
365063,1564151712484,2,2.35,0.94,0.3,1.43,1.08,0.84,0.05,0.51,2,-1,2,0.84,1672,6,95,44,90,1355,87.0,173,465,60,125.0,183,1,130,265,16,0,0,87,-13312,250,87,181.28,,,,,,,,,,,,
365083,1564151712502,-1,2.34,0.93,0.3,1.43,1.07,0.84,0.05,0.49,2,-0,3,0.84,1740,6,95,44,90,1352,86.0,173,457,60,125.0,183,1,0,265,16,0,0,87,250,250,86,181.28,,,,,,,,,,,,
365103,1564151712522,-1,2.34,0.93,0.3,1.42,1.08,0.84,0.06,0.48,2,-0,2,0.84,1745,6,96,44,89,1348,85.0,175,466,60,125.0,183,1,0,264,16,0,0,87,250,250,85,181.28,,,,,,,,,,,,
365123,1564151712542,-0,2.34,0.94,0.3,1.43,1.08,0.86,0.07,0.48,1,-1,2,0.87,1739,6,96,44,88,1344,85.0,176,460,60,125.0,183,1,0,263,16,0,0,86,250,250,85,-5.59,,,,,,,,,,,,
365143,1564151712562,-0,2.34,0.94,0.3,1.43,1.08,0.85,0.06,0.48,1,-0,1,0.86,1720,6,95,44,88,1342,85.0,178,458,60,123.0,183,1,0,263,16,0,0,85,-1481,14284,85,-5.59,44.680836,10.0244,8.73,174.9,0,0.0,-1,0.0,0.0,0,2.5,6.0857
365163,1564151712582,-1,2.35,0.93,0.3,1.42,1.08,0.84,0.07,0.51,1,0,2,0.85,1697,6,95,44,89,1340,84.0,178,468,60,125.0,200,1,0,263,17,0,0,85,-1481,14284,84,-5.59,,,,,,,,,,,,
365183,1564151712604,-1,2.35,0.94,0.3,1.42,1.09,0.85,0.06,0.52,1,-1,2,0.85,1689,6,95,44,89,1343,84.0,175,462,60,126.0,200,1,0,264,17,0,0,85,-1481,-1481,84,181.28,,,,,,,,,,,,
365203,1564151712624,2,2.34,0.94,0.3,1.43,1.08,0.84,0.06,0.5,1,-0,3,0.84,1735,6,96,44,89,1345,84.0,175,459,60,125.0,200,1,0,264,17,0,0,85,-1481,14284,84,181.28,,,,,,,,,,,,
365223,1564151712644,-0,2.34,0.93,0.29,1.42,1.07,0.84,0.06,0.5,1,1,3,0.84,1680,6,96,44,89,1349,84.0,175,463,60,125.0,200,1,0,264,17,0,0,85,-1481,14284,84,181.28,,,,,,,,,,,,
365243,1564151712664,-0,2.34,0.94,0.3,1.43,1.08,0.84,0.07,0.48,1,1,2,0.85,1643,6,96,44,89,1354,84.0,175,466,60,125.0,200,1,0,264,17,0,0,85,-1481,14284,84,181.28,44.68084,10.024396,8.51,174.9,0,0.0,-1,0.0,0.0,0,2.5,6.0874
365263,1564151712684,-0,2.35,0.93,0.3,1.43,1.08,0.84,0.07,0.46,1,0,2,0.85,1630,6,96,44,89,1352,84.0,175,463,60,125.0,190,1,130,264,16,0,0,85,-1481,-13312,84,181.28,,,,,,,,,,,,
365283,1564151712704,-1,2.34,0.93,0.3,1.43,1.08,0.84,0.07,0.48,1,-1,2,0.85,1591,6,96,44,89,1348,84.0,173,462,60,125.0,190,1,0,184,16,0,0,85,-1481,-13312,84,181.28,,,,,,,,,,,,
365303,1564151712724,-1,2.35,0.93,0.3,1.42,1.08,0.84,0.07,0.51,1,-2,1,0.85,1612,6,96,44,89,1344,84.0,174,461,60,125.0,190,1,0,264,16,0,0,85,-1481,14284,84,-5.59,,,,,,,,,,,,
365323,1564151712744,-0,2.33,0.94,0.3,1.43,1.08,0.85,0.08,0.51,1,-1,1,0.86,1560,6,96,44,89,1337,84.0,173,460,60,125.0,190,1,0,264,16,0,0,85,-1481,-13312,84,-5.59,,,,,,,,,,,,
365343,1564151712764,-1,2.34,0.94,0.3,1.43,1.08,0.86,0.08,0.51,1,-1,0,0.87,1546,6,96,44,89,1328,83.0,174,461,60,124.0,190,1,0,264,16,0,0,85,14270,-13312,83,-5.59,44.68084,10.024394,8.5,174.9,0,0.0,-1,0.0,0.0,0,2.5,6.089
365363,1564151712784,-2,2.34,0.93,0.3,1.43,1.08,0.88,0.08,0.54,1,-2,-0,0.88,1485,6,96,44,89,1318,83.0,173,461,60,124.0,180,1,0,264,15,0,0,85,14270,14284,83,-5.59,,,,,,,,,,,,
365383,1564151712804,-1,2.33,0.93,0.3,1.43,1.08,0.88,0.08,0.56,1,-2,-1,0.88,1530,6,95,44,89,1310,83.0,173,462,60,124.0,180,1,0,264,15,0,0,84,14270,-13312,83,-5.59,,,,,,,,,,,,
365403,1564151712824,-1,2.32,0.94,0.3,1.43,1.08,0.88,0.07,0.58,1,-1,-1,0.88,1558,6,95,44,89,1307,83.0,174,462,60,123.0,180,1,130,264,15,0,0,84,14270,-13312,83,-5.59,,,,,,,,,,,,
365423,1564151712844,-0,2.32,0.94,0.3,1.42,1.08,0.87,0.07,0.59,1,-1,-1,0.87,1528,6,95,44,89,1300,83.0,173,463,60,122.0,180,1,130,264,15,0,0,85,14270,-13312,83,-5.59,,,,,,,,,,,,
365443,1564151712864,-0,2.31,0.93,0.3,1.43,1.08,0.87,0.08,0.59,1,-0,-1,0.87,1536,6,95,44,89,1295,83.0,174,462,60,123.0,180,1,0,264,15,0,0,84,14270,-13312,83,-5.59,44.68084,10.02439,8.14,174.9,0,0.0,-1,0.0,0.0,0,2.5,6.0907
365463,1564151712884,-0,2.31,0.94,0.3,1.43,1.08,0.89,0.08,0.61,1,-0,-1,0.9,1425,6,96,44,89,1289,83.0,172,461,60,123.0,180,1,0,264,15,0,0,84,14270,-13312,83,-5.59,,,,,,,,,,,,
365483,1564151712904,-1,2.3,0.93,0.3,1.43,1.07,0.9,0.08,0.64,0,-1,-2,0.91,1409,6,96,44,90,1283,82.0,170,460,60,124.0,180,1,122,265,15,0,0,85,14270,250,82,-5.59,,,,,,,,,,,,
365503,1564151712924,-0,2.29,0.93,0.3,1.43,1.07,0.92,0.08,0.65,0,-2,-2,0.93,1485,6,96,44,90,1277,82.0,169,460,60,124.0,180,1,128,265,15,0,0,83,14270,-1481,82,-5.59,,,,,,,,,,,,
365523,1564151712944,-2,2.3,0.93,0.3,1.42,1.08,0.93,0.08,0.67,0,-2,-2,0.94,1490,6,96,44,90,1271,82.0,169,462,60,124.0,180,1,129,265,15,0,0,83,14270,-1481,82,-5.59,,,,,,,,,,,,
365543,1564151712964,-1,2.29,0.93,0.3,1.43,1.07,0.93,0.08,0.67,0,-2,-3,0.94,1556,6,95,44,90,1267,82.0,171,463,60,123.0,180,1,130,265,15,0,0,83,14270,-1481,80,-5.59,44.680843,10.024388,8.3,174.9,0,0.0,-1,0.0,0.0,0,2.5,6.0924
365563,1564151712984,-1,2.3,0.93,0.3,1.42,1.08,0.93,0.08,0.69,0,-2,-3,0.93,1581,6,95,44,90,1265,81.0,173,460,60,123.0,187,1,130,265,15,0,0,82,-16896,-1481,80,-5.59,,,,,,,,,,,,
365583,1564151712996,-0,2.3,0.93,0.3,1.43,1.08,0.92,0.08,0.7,0,-2,-3,0.92,1524,6,95,44,90,1264,80.0,173,465,60,123.0,187,1,130,264,15,0,0,82,250,-16896,80,-5.59,,,,,,,,,,,,
365603,1564151713016,-0,2.3,0.94,0.3,1.42,1.08,0.91,0.08,0.71,-0,-1,-3,0.91,1530,6,95,44,90,1265,80.0,171,465,60,123.0,187,1,130,265,15,0,0,81,250,-16896,79,-5.59,,,,,,,,,,,,
365623,1564151713036,0,2.29,0.94,0.3,1.43,1.08,0.91,0.08,0.7,-0,-1,-3,0.91,1468,6,95,44,90,1267,79.0,170,459,60,123.0,187,1,0,265,15,0,0,81,-1481,-16896,79,-5.59,,,,,,,,,,,,
365643,1564151713056,-0,2.3,0.93,0.3,1.43,1.07,0.91,0.08,0.71,-0,-1,-3,0.92,1487,6,95,44,90,1270,79.0,170,462,60,123.0,187,1,0,265,15,0,0,82,14256,250,79,-5.59,44.680843,10.024385,8.09,174.9,0,0.0,-1,0.0,0.0,0,2.5,6.094
365663,1564151713076,-0,2.3,0.94,0.3,1.42,1.08,0.91,0.08,0.71,-0,-0,-3,0.91,1547,6,95,44,90,1275,78.0,172,462,60,123.0,189,1,130,265,15,0,0,80,14256,250,78,-5.59,,,,,,,,,,,,
365683,1564151713104,-2,2.3,0.93,0.3,1.42,1.07,0.89,0.09,0.73,-0,1,-4,0.89,1557,6,95,44,90,1284,78.0,171,465,60,124.0,189,1,130,265,15,0,0,80,14256,250,78,-5.59,,,,,,,,,,,,
365703,1564151713124,-1,2.3,0.93,0.3,1.42,1.08,0.88,0.08,0.74,-0,1,-3,0.88,1618,6,95,44,90,1292,78.0,171,470,60,125.0,189,1,130,265,15,0,0,79,14256,-1481,77,-5.59,,,,,,,,,,,,
365723,1564151713144,-0,2.3,0.93,0.3,1.43,1.07,0.88,0.08,0.74,-0,1,-3,0.88,1547,6,96,44,90,1297,77.0,170,471,60,125.0,189,1,130,265,15,0,0,79,-20480,-1481,77,-5.59,,,,,,,,,,,,
365743,1564151713164,-2,2.3,0.93,0.3,1.43,1.07,0.87,0.07,0.76,-0,0,-2,0.87,1514,6,96,44,90,1301,77.0,171,468,60,125.0,189,1,0,265,15,0,0,79,-20480,-1481,77,-5.59,44.680843,10.024383,7.97,174.9,0,0.0,-1,0.0,0.0,0,2.5,6.0957
365763,1564151713184,-1,2.29,0.94,0.3,1.43,1.07,0.85,0.06,0.77,-0,0,-2,0.86,1546,6,96,44,90,1307,77.0,170,468,60,125.0,194,1,0,265,15,0,0,79,-20480,-1481,77,-5.59,,,,,,,,,,,,
365783,1564151713203,-2,2.31,0.93,0.3,1.42,1.08,0.84,0.05,0.77,-0,0,-1,0.84,1498,6,96,44,90,1314,77.0,170,469,60,125.0,194,1,0,265,15,0,0,79,-20480,-1481,77,-5.59,,,,,,,,,,,,
365803,1564151713223,-0,2.3,0.93,0.3,1.42,1.08,0.84,0.04,0.76,-0,0,-0,0.84,1562,6,96,44,91,1315,77.0,170,465,60,125.0,194,1,0,265,15,0,0,79,-20480,14256,77,181.28,,,,,,,,,,,,
365823,1564151713243,-1,2.3,0.93,0.3,1.43,1.08,0.83,0.04,0.77,-1,-0,0,0.83,1559,6,96,44,90,1315,77.0,169,461,60,126.0,194,1,0,265,15,0,0,78,-20480,14256,77,181.28,,,,,,,,,,,,
365843,1564151713263,-2,2.3,0.93,0.3,1.42,1.08,0.82,0.04,0.76,-1,-0,0,0.82,1503,6,96,44,91,1314,77.0,168,462,60,125.0,194,1,0,265,15,0,0,78,-20480,14256,76,181.28,44.680847,10.02438,7.76,174.9,0,0.0,-1,0.0,0.0,0,2.5,6.0974
365863,1564151713283,-0,2.3,0.94,0.3,1.42,1.08,0.82,0.04,0.76,-1,-0,0,0.82,1505,6,96,44,90,1313,77.0,170,465,60,125.0,197,1,0,265,15,0,0,78,-20480,14256,76,181.28,,,,,,,,,,,,
365883,1564151713303,-0,2.3,0.94,0.3,1.42,1.08,0.82,0.04,0.77,-1,0,1,0.82,1410,6,96,44,90,1310,77.0,169,469,60,125.0,197,1,122,265,15,0,0,78,-20480,14256,76,181.28,,,,,,,,,,,,
365903,1564151713323,-1,2.3,0.93,0.3,1.42,1.08,0.8,0.03,0.75,-1,1,1,0.8,1421,6,96,44,90,1308,77.0,169,466,60,125.0,197,1,0,265,15,0,0,78,-20480,14256,76,-5.59,,,,,,,,,,,,
