"Interval"|"ms"|0|0|1,"Utc"|"ms"|0|0|1,"FB_p"|"bar"|0|300|50,"Volant"|"F"|0.0|300.0|50,"xFR"|"mm"|0.0|5.0|50,"xRR"|"mm"|0.0|5.0|50,"xFL"|"mm"|0.0|5.0|50,"xRL"|"mm"|0.0|5.0|50,"AccelX"|"G"|-3.0|3.0|50,"AccelY"|"G"|-3.0|3.0|50,"AccelZ"|"G"|-3.0|3.0|50,"Yaw"|"Deg/Sec"|-120|120|50,"Pitch"|"Deg/Sec"|-120|120|50,"Roll"|"Deg/Sec"|-120|120|50,"Gsum"|"G"|0.0|3.0|50,"RPM"|""|0|14000|50,"TPS"|"%"|0|100|50,"WaterTemp"|"?C"|0|300|50,"AirTemp"|"?C"|-1000|1000|50,"MAP"|"KPa"|0|255|50,"Lambda"|""|0|1024|50,"WheelSpeed"|"MPH"|0.0|150.0|50,"OilPress"|"PSI"|0|150|50,"FuelPress"|"PSI"|0|150|50,"OilTemp"|"F"|0|300|50,"Battery"|"Volts"|0.0|20.0|50,"FuelCon"|"L/h"|-1000|1000|50,"Gear"|""|0|10|50,"Advance"|"Deg"|-360|360|50,"Injection"|"ms"|-1000|1000|50,"FuelCon"|"L/100km"|-1000|1000|50,"LC_But_Pres"|""|-1000|1000|50,"LC_Active"|""|-1000|1000|50,"RD_Speed"|""|-1000|1000|50,"RUD_Speed"|""|-1000|1000|50,"LD_Speed"|""|-1000|1000|50,"LUD_Speed"|""|-1000|1000|50,"Ana1"|"bar"|-1000.0|1000.0|50,"Latitude"|"Degrees"|-180.0|180.0|10,"Longitude"|"Degrees"|-180.0|180.0|10,"Speed"|"kph"|0.0|150.0|10,"Altitude"|"m"|0.0|4000.0|10,"LapCount"|""|0|0|10,"LapTime"|"Min"|0.0|0.0|10,"Sector"|""|0|0|10,"SectorTime"|"Min"|0.0|0.0|10,"ElapsedTime"|"Min"|0.0|0.0|10,"CurrentLap"|""|0|0|10,"Distance"|"km"|0.0|0.0|10,"SessionTime"|"Min"|0.0|0.0|10
257363,1564151604782,-0,2.5,0.93,0.33,1.4,1.08,0.41,-0.48,0.74,16,5,21,0.63,9941,64,91,44,64,1310,513.0,639,468,60,122.0,276,1,405,384,141,0,0,530,1,2104,515,-5.59,,,,,,,,,,,,
257383,1564151604802,1,2.49,0.93,0.32,1.39,1.07,0.44,-0.46,0.72,16,5,21,0.63,9946,64,91,44,65,1280,514.0,641,465,60,123.0,276,1,404,391,141,0,0,530,-1818,2104,516,-5.59,,,,,,,,,,,,
257403,1564151604822,3,2.5,0.93,0.32,1.39,1.08,0.55,-0.45,0.56,16,2,22,0.71,9962,64,91,44,64,1237,517.0,642,466,60,123.0,276,1,405,384,141,0,0,539,771,6274,517,-5.59,,,,,,,,,,,,
257423,1564151604842,1,2.49,0.93,0.33,1.39,1.07,0.56,-0.53,0.49,16,2,22,0.77,10075,64,91,44,64,1219,521.0,640,474,60,122.0,276,1,410,389,141,0,0,548,-9216,-3082,521,-5.59,,,,,,,,,,,,
257443,1564151604862,0,2.49,0.93,0.33,1.39,1.07,0.53,-0.51,0.48,16,3,22,0.74,10173,64,91,44,64,1202,525.0,649,472,60,123.0,276,1,416,392,141,0,0,541,10408,2524,523,-5.59,44.681389,10.024936,48.98,172.7,0,0.0,-1,0.0,0.0,0,1.62,4.2907
257463,1564151604882,1,2.49,0.94,0.33,1.4,1.07,0.54,-0.44,0.32,15,1,24,0.7,10268,66,91,44,65,1176,527.0,650,466,60,123.0,289,1,425,402,152,0,0,546,2109,6274,528,-5.59,,,,,,,,,,,,
257483,1564151604902,3,2.49,0.94,0.33,1.4,1.07,0.49,-0.46,0.29,16,1,24,0.67,10324,66,91,44,65,1154,528.0,648,468,60,122.0,289,1,427,404,152,0,0,547,6274,-22263,531,-5.59,,,,,,,,,,,,
257503,1564151604922,3,2.49,0.93,0.33,1.39,1.07,0.52,-0.52,0.45,16,1,24,0.74,10353,66,91,44,66,1144,535.0,655,464,60,123.0,289,1,431,414,152,0,0,551,-3414,-22263,535,-5.59,,,,,,,,,,,,
257523,1564151604942,1,2.5,0.93,0.33,1.39,1.07,0.54,-0.58,0.6,16,1,23,0.79,10451,66,91,44,66,1140,535.0,657,465,60,122.0,289,1,440,416,152,0,0,565,-3414,12552,535,-5.59,,,,,,,,,,,,
257543,1564151604962,3,2.49,0.94,0.33,1.38,1.07,0.64,-0.67,0.74,16,2,21,0.92,10486,66,91,44,66,1133,539.0,667,468,60,122.0,289,1,443,417,152,0,0,553,17136,12552,539,-5.59,44.681381,10.02495,50.74,172.7,0,0.0,-1,0.0,0.0,0,1.62,4.2924
257563,1564151604982,3,2.49,0.94,0.32,1.4,1.07,0.55,-0.77,0.86,16,4,19,0.95,10581,66,91,44,67,1124,542.0,653,466,60,123.0,309,1,445,426,167,0,0,563,15679,1780,542,-5.59,,,,,,,,,,,,
257583,1564151604994,2,2.49,0.93,0.33,1.39,1.07,0.57,-0.82,0.97,16,5,19,1.0,10557,67,91,44,67,1118,545.0,653,465,60,123.0,309,1,444,426,167,0,0,571,-22519,-2934,546,-5.59,,,,,,,,,,,,
257603,1564151605014,3,2.49,0.94,0.33,1.39,1.07,0.57,-0.78,1.07,16,6,18,0.96,10635,66,91,44,67,1116,549.0,656,462,60,123.0,309,1,445,427,167,0,0,571,2088,-30159,548,-5.59,,,,,,,,,,,,
257623,1564151605034,-0,2.5,0.93,0.33,1.39,1.08,0.63,-0.72,1.01,16,5,18,0.95,10629,65,91,44,67,1107,550.0,653,467,60,122.0,309,1,445,427,167,0,0,573,-32248,-8186,550,-5.59,,,,,,,,,,,,
257643,1564151605054,1,2.5,0.93,0.33,1.39,1.08,0.61,-0.67,1.06,16,3,19,0.91,10689,63,91,44,66,1083,552.0,654,466,60,121.0,309,1,447,419,167,0,0,580,-28648,259,552,-5.59,44.681374,10.024965,52.35,172.7,0,0.0,-1,0.0,0.0,0,1.62,4.2941
257663,1564151605074,1,2.5,0.93,0.33,1.39,1.07,0.62,-0.44,0.91,16,1,22,0.76,10806,59,91,44,65,1065,555.0,648,466,60,122.0,309,1,449,411,171,0,0,584,2104,1,554,-5.59,,,,,,,,,,,,
257683,1564151605101,3,2.5,0.94,0.33,1.39,1.08,0.57,-0.35,0.62,16,2,22,0.66,10819,55,91,44,63,1048,556.0,661,467,60,122.0,309,1,450,395,171,0,0,583,-32248,774,558,-5.59,,,,,,,,,,,,
257703,1564151605121,3,2.49,0.94,0.33,1.4,1.07,0.58,-0.51,0.75,15,2,20,0.77,10913,50,91,44,61,1031,560.0,656,463,60,122.0,309,1,450,382,171,0,0,585,-30064,30208,560,-5.59,,,,,,,,,,,,
257723,1564151605141,-0,2.5,0.93,0.33,1.39,1.07,0.65,-0.58,0.87,16,1,20,0.87,10875,46,91,44,58,1017,564.0,657,468,60,123.0,309,1,428,364,171,0,0,586,-2336,-1894,564,-5.59,,,,,,,,,,,,
257743,1564151605161,2,2.5,0.93,0.34,1.39,1.07,0.59,-0.39,0.77,16,3,22,0.71,10926,43,91,44,56,1001,566.0,661,468,60,122.0,309,1,414,341,171,0,0,601,-2336,-4035,566,-5.59,44.681366,10.02498,53.88,172.7,0,0.0,-1,0.0,0.0,0,1.62,4.2957
257763,1564151605181,2,2.49,0.94,0.33,1.39,1.07,0.54,-0.32,0.59,16,3,23,0.63,10939,41,91,44,54,999,570.0,666,465,60,122.0,242,1,400,325,137,0,0,574,-3082,-16179,570,-5.59,,,,,,,,,,,,
257783,1564151605201,3,2.5,0.93,0.33,1.4,1.07,0.6,-0.49,0.72,16,3,20,0.77,10825,39,91,44,52,995,571.0,663,470,60,121.0,242,1,394,299,137,0,0,586,2524,-1894,571,-5.59,,,,,,,,,,,,
257803,1564151605221,1,2.49,0.94,0.33,1.39,1.07,0.63,-0.55,0.85,16,6,20,0.84,10763,35,91,44,50,973,571.0,653,465,60,122.0,242,1,388,275,137,0,0,581,2104,-4035,571,-5.59,,,,,,,,,,,,
257823,1564151605241,0,2.5,0.93,0.33,1.38,1.08,0.69,-0.37,0.73,17,5,22,0.79,10714,32,91,44,48,956,572.0,650,466,60,122.0,242,1,382,251,137,0,0,582,-32248,15649,572,-5.59,,,,,,,,,,,,
257843,1564151605261,1,2.5,0.94,0.33,1.4,1.07,0.68,-0.24,0.58,17,2,24,0.72,10510,29,91,44,46,944,573.0,654,468,60,122.0,242,1,372,237,137,0,0,575,2524,-25872,573,-5.59,44.681358,10.024994,55.31,172.7,0,0.0,-1,0.0,0.0,0,1.63,4.2974
257863,1564151605281,-0,2.5,0.93,0.33,1.39,1.07,0.76,-0.15,0.5,17,-1,26,0.77,10336,27,91,44,45,919,573.0,647,468,60,122.0,160,1,365,233,92,0,0,561,-22519,-4035,573,-5.59,,,,,,,,,,,,
257883,1564151605301,2,2.5,0.93,0.33,1.39,1.08,0.81,-0.2,0.52,17,0,27,0.84,10135,26,91,44,44,888,574.0,651,468,60,122.0,160,1,357,230,92,0,0,563,-22519,-25872,573,-5.59,,,,,,,,,,,,
257903,1564151605321,1,2.51,0.93,0.33,1.39,1.08,0.89,-0.34,0.66,17,0,26,0.95,9873,23,91,44,42,860,574.0,657,462,60,123.0,160,1,342,225,92,0,0,561,2524,-25872,574,-5.59,,,,,,,,,,,,
257923,1564151605341,3,2.48,0.93,0.33,1.4,1.07,0.91,-0.35,0.69,18,-2,27,0.97,9689,22,91,44,42,849,574.0,644,470,60,122.0,160,1,342,219,92,0,0,560,-506,8488,574,-5.59,,,,,,,,,,,,
257943,1564151605361,1,2.49,0.93,0.33,1.39,1.08,0.92,-0.43,0.72,19,1,25,1.02,9556,21,91,44,40,831,574.0,642,460,60,123.0,160,1,327,213,92,0,0,550,-8962,30208,574,-5.59,44.681347,10.025007,56.34,172.8,0,0.0,-1,0.0,0.0,0,1.63,4.299
257963,1564151605381,1,2.49,0.93,0.33,1.38,1.08,0.93,-0.49,0.62,19,-0,26,1.05,9522,21,91,44,39,825,570.0,636,465,60,123.0,132,1,320,211,76,0,0,523,-8186,-30159,570,-5.59,,,,,,,,,,,,
257983,1564151605401,-0,2.49,0.94,0.33,1.39,1.07,0.89,-0.46,0.65,19,3,26,1.0,9556,21,91,44,38,820,566.0,639,471,60,122.0,132,1,317,208,76,0,0,525,-2934,-29984,566,-5.59,,,,,,,,,,,,
258003,1564151605421,1,2.49,0.93,0.33,1.39,1.08,1.0,-0.56,0.58,18,0,26,1.15,9532,21,91,44,38,827,561.0,635,465,60,122.0,132,1,317,208,76,0,0,512,-28648,2524,561,-5.59,,,,,,,,,,,,
258023,1564151605441,2,2.48,0.94,0.33,1.39,1.07,1.0,-0.48,0.49,19,-0,28,1.11,9595,21,91,43,37,836,563.0,641,460,60,124.0,132,1,314,207,76,0,0,519,-32248,-28648,563,-5.59,,,,,,,,,,,,
258043,1564151605461,1,2.47,0.94,0.33,1.39,1.07,1.0,-0.54,0.57,19,2,27,1.13,9620,21,91,43,37,876,557.0,644,466,60,123.0,132,1,314,207,76,0,0,506,-22519,2524,555,-5.59,44.681339,10.025021,56.43,172.7,0,0.0,-1,0.0,0.0,0,1.63,4.3007
258063,1564151605481,2,2.48,0.93,0.33,1.39,1.08,0.98,-0.57,0.36,19,1,28,1.14,9645,21,91,43,36,900,554.0,642,459,60,124.0,133,1,311,205,74,0,0,501,2088,2104,552,-5.59,,,,,,,,,,,,
258083,1564151605502,-1,2.46,0.93,0.33,1.39,1.07,0.93,-0.54,0.33,19,4,27,1.08,9659,21,91,43,36,926,550.0,642,475,60,122.0,133,1,311,205,74,0,0,504,-32248,-32248,550,-5.59,,,,,,,,,,,,
258103,1564151605522,1,2.47,0.94,0.33,1.39,1.08,1.04,-0.59,0.35,19,2,26,1.19,9625,21,91,43,36,955,546.0,647,463,60,124.0,133,1,311,205,74,0,0,504,-22519,-506,546,-5.59,,,,,,,,,,,,
258123,1564151605542,2,2.45,0.93,0.33,1.39,1.07,1.01,-0.49,0.22,18,-0,26,1.12,9625,21,91,43,35,981,540.0,643,465,60,123.0,133,1,308,203,74,0,0,511,1248,-3082,542,-5.59,,,,,,,,,,,,
258143,1564151605562,1,2.46,0.94,0.33,1.4,1.07,1.01,-0.64,0.39,18,2,24,1.2,9650,21,91,43,35,1014,539.0,631,467,60,122.0,133,1,308,203,74,0,0,514,16383,-28648,540,-5.59,44.681324,10.025034,55.33,172.7,0,0.0,-1,0.0,0.0,0,1.63,4.3024
258163,1564151605582,3,2.46,0.94,0.33,1.4,1.07,1.07,-0.61,0.23,17,1,26,1.24,9720,21,91,43,35,1035,535.0,528,467,60,123.0,138,1,308,204,74,0,0,508,-14,-22519,535,-5.59,,,,,,,,,,,,
258183,1564151605601,1,2.46,0.94,0.33,1.39,1.08,0.93,-0.64,0.34,17,5,25,1.13,9664,21,91,43,34,1046,533.0,415,465,60,123.0,138,1,305,201,74,0,0,512,-4054,-22519,533,-5.59,,,,,,,,,,,,
258203,1564151605621,2,2.46,0.93,0.32,1.4,1.07,1.01,-0.62,0.19,17,2,24,1.18,9689,21,91,43,34,1055,528.0,521,468,60,122.0,138,1,305,201,74,0,0,513,-21872,2524,528,-5.59,,,,,,,,,,,,
258223,1564151605641,-0,2.45,0.94,0.33,1.4,1.07,0.94,-0.58,0.32,17,2,24,1.1,9791,21,91,43,34,1071,525.0,487,468,60,122.0,138,1,305,203,74,0,0,506,6274,-28648,525,-5.59,,,,,,,,,,,,
258243,1564151605661,3,2.47,0.93,0.33,1.39,1.07,0.98,-0.61,0.23,17,3,25,1.15,9725,21,91,43,34,1074,525.0,534,465,60,123.0,138,1,305,202,74,0,0,505,11560,2104,525,-5.59,44.681316,10.025044,53.89,172.7,0,0.0,-1,0.0,0.0,0,1.63,4.304
258263,1564151605681,1,2.46,0.93,0.33,1.39,1.08,0.96,-0.57,0.4,16,2,23,1.11,9645,21,91,43,34,1075,520.0,594,471,60,121.0,141,1,305,202,74,0,0,508,2524,2088,520,-5.59,,,,,,,,,,,,
258283,1564151605701,0,2.47,0.93,0.33,1.4,1.08,1.0,-0.67,0.28,16,2,23,1.2,9561,21,91,43,34,1067,519.0,642,457,60,122.0,141,1,305,200,74,0,0,504,-9216,2088,519,-5.59,,,,,,,,,,,,
258303,1564151605721,3,2.47,0.94,0.33,1.4,1.07,1.0,-0.55,0.19,16,2,23,1.14,9527,21,92,43,34,1050,517.0,632,468,60,121.0,141,1,305,199,74,0,0,507,771,15679,517,-5.59,,,,,,,,,,,,
258323,1564151605741,0,2.47,0.94,0.33,1.4,1.07,0.94,-0.6,0.28,16,1,22,1.12,9488,21,92,43,34,1040,515.0,635,472,60,122.0,141,1,305,199,74,0,0,497,-6528,10408,515,-5.59,,,,,,,,,,,,
258343,1564151605761,2,2.46,0.94,0.33,1.39,1.08,0.98,-0.7,0.28,16,1,22,1.21,9474,21,92,43,34,1022,513.0,630,464,60,123.0,141,1,305,199,74,0,0,494,-32768,26178,513,-5.59,44.681301,10.025055,52.1,172.8,0,0.0,-1,0.0,0.0,0,1.63,4.3057
258363,1564151605781,3,2.46,0.93,0.33,1.39,1.07,1.03,-0.64,0.25,16,1,22,1.22,9469,21,92,43,34,996,512.0,636,471,60,123.0,136,1,305,199,70,0,0,495,505,26178,512,-5.59,,,,,,,,,,,,
258383,1564151605801,-0,2.46,0.93,0.33,1.4,1.07,0.98,-0.54,0.29,16,2,23,1.12,9379,21,92,43,34,966,511.0,643,467,60,122.0,136,1,305,197,70,0,0,496,-1562,-3856,511,-5.59,,,,,,,,,,,,
258403,1564151605821,0,2.47,0.93,0.33,1.39,1.08,1.01,-0.63,0.26,16,2,22,1.19,9295,21,92,43,34,949,508.0,633,462,60,123.0,136,1,305,196,70,0,0,487,-1562,26178,508,-5.59,,,,,,,,,,,,
258423,1564151605841,2,2.46,0.94,0.33,1.4,1.07,0.99,-0.72,0.24,16,2,22,1.22,9295,21,92,43,35,928,505.0,631,467,60,123.0,136,1,308,199,70,0,0,487,3580,6274,505,-5.59,,,,,,,,,,,,
258443,1564151605861,3,2.47,0.93,0.33,1.39,1.07,1.0,-0.64,0.21,16,2,22,1.19,9291,21,92,43,34,917,502.0,637,459,60,123.0,136,1,305,196,70,0,0,487,32033,-28648,503,-5.59,44.681294,10.025064,50.92,172.8,0,0.0,-1,0.0,0.0,0,1.63,4.3074
258463,1564151605881,3,2.47,0.94,0.33,1.4,1.07,1.08,-0.47,0.25,16,2,23,1.17,9370,21,92,43,34,900,967.0,634,469,60,125.0,137,1,305,197,69,0,0,1829,771,15661,497,-5.59,,,,,,,,,,,,
258483,1564151605901,0,2.46,0.94,0.33,1.39,1.07,1.02,-0.42,0.24,16,2,23,1.1,9389,21,92,43,33,895,497.0,647,463,60,124.0,137,1,302,194,69,0,0,1829,-23367,2109,497,-5.59,,,,,,,,,,,,
258503,1564151605921,0,2.47,0.94,0.33,1.39,1.08,0.92,-0.54,0.21,16,2,23,1.07,9431,21,92,43,33,897,497.0,644,465,60,124.0,137,1,302,195,69,0,0,1829,2212,-21872,497,-5.59,,,,,,,,,,,,
258523,1564151605941,3,2.47,0.93,0.33,1.39,1.08,0.97,-0.52,0.29,16,3,22,1.1,9431,21,92,43,32,897,498.0,652,470,60,124.0,137,1,300,193,69,0,0,1829,-9203,-3856,498,-5.59,,,,,,,,,,,,
258543,1564151605961,2,2.47,0.93,0.34,1.39,1.08,1.02,-0.4,0.28,16,2,23,1.1,9431,21,92,43,32,893,497.0,640,472,60,124.0,137,1,300,193,69,0,0,1829,3576,-3414,499,-5.59,44.681282,10.025073,49.57,172.8,0,0.0,-1,0.0,0.0,0,1.64,4.3091
258563,1564151605981,1,2.46,0.92,0.34,1.39,1.07,0.95,-0.45,0.27,16,3,23,1.05,9370,21,92,43,31,886,497.0,641,461,60,124.0,138,1,295,191,69,0,0,479,3576,6274,496,-5.59,,,,,,,,,,,,
258583,1564151605991,1,2.46,0.94,0.33,1.39,1.07,0.94,-0.6,0.31,16,3,22,1.12,9328,21,92,43,31,878,494.0,638,464,60,125.0,138,1,295,190,69,0,0,479,-1923,10408,495,-5.59,,,,,,,,,,,,
258603,1564151606011,2,2.47,0.94,0.33,1.4,1.07,1.01,-0.6,0.31,16,1,23,1.18,9333,21,92,43,31,871,494.0,635,465,60,124.0,138,1,295,190,69,0,0,481,-1923,-32248,494,-5.59,,,,,,,,,,,,
258623,1564151606031,2,2.46,0.93,0.33,1.39,1.07,1.02,-0.43,0.35,16,2,23,1.11,9309,21,92,43,31,855,495.0,632,463,60,124.0,138,1,295,189,69,0,0,484,-1923,2109,495,-5.59,,,,,,,,,,,,
258643,1564151606051,-0,2.47,0.93,0.33,1.39,1.08,0.98,-0.36,0.35,17,1,23,1.04,9268,21,92,43,31,846,492.0,625,462,60,124.0,138,1,295,188,69,0,0,482,3576,6274,492,-5.59,44.681271,10.02508,48.68,172.8,0,0.0,-1,0.0,0.0,0,1.64,4.3107
258663,1564151606071,1,2.47,0.94,0.33,1.39,1.08,0.89,-0.46,0.3,17,3,22,1.01,9231,21,92,43,31,839,493.0,630,465,60,124.0,132,1,295,188,65,0,0,480,10432,2524,493,-5.59,,,,,,,,,,,,
258683,1564151606092,1,2.47,0.94,0.33,1.4,1.08,0.74,-0.58,0.28,17,3,22,0.94,9213,21,92,43,32,835,493.0,630,468,60,124.0,132,1,300,188,65,0,0,481,10432,2109,491,-5.59,,,,,,,,,,,,
258703,1564151606112,1,2.47,0.94,0.34,1.39,1.08,0.71,-0.71,0.31,16,4,21,1.01,9177,21,92,43,31,832,491.0,633,468,60,124.0,132,1,295,188,65,0,0,480,10432,-32248,491,-5.59,,,,,,,,,,,,
258723,1564151606132,1,2.47,0.93,0.34,1.39,1.07,0.76,-0.78,0.34,16,4,22,1.08,9173,21,92,44,32,830,490.0,637,467,60,124.0,132,1,300,187,65,0,0,480,10432,6274,490,-5.59,,,,,,,,,,,,
258743,1564151606152,3,2.47,0.94,0.33,1.4,1.07,0.88,-0.71,0.4,16,3,21,1.12,9146,21,92,43,32,832,488.0,635,461,60,125.0,132,1,300,187,65,0,0,482,-16384,15661,491,-5.59,44.681263,10.025086,48.47,172.9,0,0.0,-1,0.0,0.0,0,1.64,4.3124
258763,1564151606172,3,2.46,0.94,0.33,1.4,1.07,0.99,-0.63,0.45,16,1,22,1.18,9132,21,92,44,32,835,490.0,632,472,60,124.0,130,1,300,186,64,0,0,476,-3210,15661,490,-5.59,,,,,,,,,,,,
258783,1564151606202,1,2.47,0.94,0.34,1.39,1.08,1.08,-0.45,0.52,16,1,22,1.17,9119,21,92,44,32,839,491.0,629,470,60,124.0,130,1,300,186,64,0,0,476,243,3,491,-5.59,,,,,,,,,,,,
258803,1564151606222,1,2.47,0.93,0.33,1.4,1.07,1.17,-0.37,0.55,16,-2,23,1.23,9057,21,92,44,32,845,489.0,632,463,60,124.0,130,1,300,186,64,0,0,482,30272,-22519,489,-5.59,,,,,,,,,,,,
258823,1564151606242,3,2.46,0.94,0.33,1.4,1.07,1.14,-0.25,0.6,17,-1,23,1.17,9031,22,92,44,32,847,486.0,630,469,60,123.0,130,1,300,184,64,0,0,479,30272,2524,486,-5.59,,,,,,,,,,,,
258843,1564151606262,2,2.47,0.93,0.33,1.39,1.08,1.2,-0.16,0.6,17,-1,24,1.21,9044,22,92,44,32,849,488.0,628,467,60,124.0,130,1,300,184,64,0,0,476,-3210,2524,486,-5.59,44.681248,10.025093,48.08,172.9,0,0.0,-1,0.0,0.0,0,1.64,4.3141
258863,1564151606282,2,2.47,0.93,0.33,1.4,1.07,1.18,-0.06,0.56,18,-1,24,1.18,8997,22,92,44,32,873,486.0,631,465,60,123.0,127,1,300,184,62,0,0,476,30272,-22519,486,-5.59,,,,,,,,,,,,
258883,1564151606302,3,2.46,0.94,0.33,1.4,1.07,1.24,-0.01,0.56,17,-1,26,1.24,8975,22,92,44,33,888,484.0,633,462,60,124.0,127,1,302,187,62,0,0,475,-3210,-6528,484,-5.59,,,,,,,,,,,,
258903,1564151606322,3,2.46,0.94,0.33,1.39,1.07,1.21,0.08,0.57,17,-2,25,1.21,8967,22,92,44,33,911,486.0,637,469,60,124.0,127,1,302,187,62,0,0,475,6193,248,486,-5.59,,,,,,,,,,,,
258923,1564151606342,2,2.47,0.93,0.34,1.39,1.08,1.22,0.12,0.58,18,-3,25,1.23,8945,22,92,44,33,925,483.0,631,470,60,125.0,127,1,302,187,62,0,0,471,-18108,248,483,-5.59,,,,,,,,,,,,
258943,1564151606362,3,2.48,0.93,0.34,1.39,1.08,1.25,0.22,0.59,18,-3,25,1.27,8984,22,92,44,33,955,482.0,633,473,60,125.0,127,1,302,187,62,0,0,470,2211,-6656,482,-5.59,44.681236,10.025098,47.87,172.9,0,0.0,-1,0.0,0.0,0,1.64,4.3157
258963,1564151606382,3,2.47,0.94,0.33,1.39,1.07,1.32,0.23,0.63,18,-4,25,1.34,8945,22,92,44,33,993,483.0,635,463,60,124.0,130,1,302,187,63,0,0,474,-23623,-32768,483,-5.59,,,,,,,,,,,,
258983,1564151606402,3,2.48,0.94,0.33,1.4,1.07,1.37,0.3,0.75,18,-3,25,1.4,8975,23,92,44,33,1004,482.0,631,462,60,124.0,130,1,302,187,63,0,0,474,-23623,998,481,-5.59,,,,,,,,,,,,
259003,1564151606422,3,2.46,0.94,0.33,1.4,1.08,1.43,0.29,0.78,18,-5,24,1.46,8924,23,92,44,33,1020,480.0,626,467,60,124.0,130,1,302,187,63,0,0,474,-18108,998,482,-5.59,,,,,,,,,,,,
259023,1564151606442,2,2.47,0.94,0.33,1.4,1.08,1.49,0.3,0.84,18,-6,24,1.52,8928,23,92,44,33,1035,480.0,626,470,60,124.0,130,1,302,187,63,0,0,474,14488,1,480,-5.59,,,,,,,,,,,,
259043,1564151606462,0,2.48,0.94,0.34,1.39,1.08,1.54,0.24,0.83,17,-6,25,1.56,8911,23,92,44,34,1060,481.0,622,467,60,124.0,130,1,305,191,63,0,0,461,-26615,-1818,481,-5.59,44.681225,10.025103,47.29,172.9,0,0.0,-1,0.0,0.0,0,1.64,4.3174
259063,1564151606482,1,2.47,0.94,0.33,1.4,1.07,1.59,0.2,0.88,17,-5,23,1.6,8907,23,92,44,34,1066,480.0,627,467,60,124.0,133,1,305,191,64,0,0,464,2524,505,478,-5.59,,,,,,,,,,,,
259083,1564151606502,1,2.47,0.94,0.33,1.4,1.08,1.62,0.04,0.82,17,-6,23,1.62,8894,23,92,44,34,1072,477.0,625,465,60,124.0,133,1,305,191,64,0,0,460,-8985,32033,477,-5.59,,,,,,,,,,,,
259103,1564151606522,1,2.47,0.93,0.33,1.4,1.08,1.54,-0.09,0.76,17,-5,23,1.54,8911,23,92,44,34,1081,478.0,623,470,60,124.0,133,1,305,191,64,0,0,465,-26615,248,478,-5.59,,,,,,,,,,,,
259123,1564151606542,-0,2.47,0.94,0.34,1.39,1.08,1.43,-0.23,0.7,17,-3,23,1.45,8894,24,92,44,35,1086,475.0,628,462,60,123.0,133,1,308,194,64,0,0,465,2524,3580,477,-5.59,,,,,,,,,,,,
259143,1564151606562,0,2.47,0.94,0.33,1.4,1.07,1.28,-0.38,0.65,17,-2,22,1.33,8932,24,92,44,35,1090,477.0,631,466,60,125.0,133,1,308,194,64,0,0,462,2524,-899,477,-5.59,44.681213,10.025105,47.25,173.0,0,0.0,-1,0.0,0.0,0,1.64,4.319
259163,1564151606582,-1,2.48,0.94,0.33,1.39,1.08,1.09,-0.48,0.5,17,-1,23,1.18,8915,24,92,44,35,1091,476.0,633,465,60,124.0,134,1,308,194,64,0,0,465,-6387,-6528,476,-5.59,,,,,,,,,,,,
259183,1564151606602,1,2.48,0.94,0.33,1.4,1.07,0.92,-0.51,0.39,17,1,23,1.05,8932,24,92,44,35,1095,475.0,631,466,60,124.0,134,1,308,194,64,0,0,466,-3267,3580,473,-5.59,,,,,,,,,,,,
259203,1564151606622,-0,2.47,0.94,0.33,1.39,1.08,0.75,-0.5,0.3,17,2,23,0.9,8915,24,92,44,35,1105,473.0,633,463,60,123.0,134,1,308,194,64,0,0,463,15649,3580,473,-5.59,,,,,,,,,,,,
259223,1564151606642,3,2.47,0.94,0.33,1.4,1.07,0.72,-0.42,0.26,17,2,23,0.83,8907,24,92,44,35,1110,473.0,633,463,60,123.0,134,1,308,194,64,0,0,462,3571,16648,473,-5.59,,,,,,,,,,,,
259243,1564151606662,3,2.48,0.94,0.33,1.4,1.07,0.68,-0.33,0.31,18,1,24,0.75,8890,24,91,44,35,1118,473.0,630,466,60,124.0,134,1,308,194,64,0,0,456,-3267,3580,473,-5.59,44.681202,10.025108,46.86,173.0,0,0.0,-1,0.0,0.0,0,1.64,4.3207
259263,1564151606682,3,2.47,0.93,0.33,1.4,1.08,0.77,-0.23,0.42,18,1,24,0.8,8852,24,92,44,35,1121,471.0,625,461,60,124.0,138,1,308,194,65,0,0,461,8488,8488,471,-5.59,,,,,,,,,,,,
259283,1564151606702,1,2.48,0.94,0.34,1.4,1.07,0.89,-0.15,0.54,18,0,24,0.91,8827,24,92,44,35,1125,471.0,620,465,60,124.0,138,1,308,194,65,0,0,456,16648,32033,471,-5.59,,,,,,,,,,,,
259303,1564151606722,0,2.48,0.94,0.34,1.39,1.08,1.01,-0.15,0.61,17,1,24,1.02,8823,25,92,44,35,1126,472.0,620,465,60,124.0,138,1,308,194,65,0,0,460,10305,-17956,470,-5.59,,,,,,,,,,,,
259323,1564151606742,1,2.47,0.94,0.34,1.4,1.08,1.11,-0.26,0.61,17,0,24,1.14,8802,25,92,44,35,1125,471.0,627,468,60,124.0,138,1,308,197,65,0,0,460,2131,3580,471,-5.59,,,,,,,,,,,,
259343,1564151606762,-1,2.48,0.94,0.33,1.39,1.07,1.11,-0.37,0.59,17,0,23,1.17,8806,25,91,44,36,1122,472.0,622,465,60,125.0,138,1,311,197,65,0,0,456,16648,-17956,469,-5.59,44.68119,10.025109,46.54,173.0,0,0.0,-1,0.0,0.0,0,1.65,4.3224
259363,1564151606782,0,2.48,0.94,0.33,1.39,1.08,1.01,-0.5,0.49,17,1,23,1.13,8794,25,91,44,36,1120,468.0,634,462,60,123.0,140,1,311,197,66,0,0,457,10305,32033,468,-5.59,,,,,,,,,,,,
259383,1564151606802,-1,2.48,0.93,0.34,1.4,1.07,0.85,-0.55,0.39,17,3,23,1.02,8831,25,91,44,36,1118,470.0,631,466,60,124.0,140,1,311,197,66,0,0,457,16648,8488,470,-5.59,,,,,,,,,,,,
259403,1564151606822,0,2.47,0.94,0.33,1.4,1.08,0.69,-0.54,0.29,17,4,24,0.88,8815,25,91,44,36,1119,468.0,640,464,60,124.0,140,1,311,197,66,0,0,454,21432,32033,468,-5.59,,,,,,,,,,,,
259423,1564151606842,3,2.47,0.94,0.33,1.4,1.08,0.67,-0.48,0.27,18,4,24,0.82,8811,25,91,44,36,1121,467.0,631,468,60,125.0,140,1,311,197,66,0,0,456,16648,-17956,467,-5.59,,,,,,,,,,,,
259443,1564151606862,4,2.48,0.94,0.33,1.4,1.08,0.69,-0.36,0.36,18,3,23,0.78,8790,25,91,44,36,1126,465.0,631,467,60,123.0,140,1,311,197,66,0,0,458,21432,32033,465,-5.59,44.681179,10.025111,46.07,173.1,0,0.0,-1,0.0,0.0,0,1.65,4.324
259463,1564151606882,1,2.48,0.94,0.33,1.39,1.08,0.82,-0.33,0.47,18,2,23,0.89,8831,25,91,44,36,1129,464.0,633,465,60,124.0,139,1,311,197,65,0,0,452,23400,3580,464,-5.59,,,,,,,,,,,,
259483,1564151606902,1,2.47,0.93,0.33,1.4,1.08,0.92,-0.34,0.58,17,1,22,0.98,8823,25,91,44,36,1133,467.0,621,463,60,124.0,139,1,311,197,65,0,0,453,-18341,16648,467,-5.59,,,,,,,,,,,,
259503,1564151606922,1,2.47,0.94,0.33,1.4,1.08,1.01,-0.41,0.58,17,0,23,1.09,8840,25,91,44,36,1136,464.0,622,467,60,124.0,139,1,311,197,65,0,0,449,-18341,3576,462,-5.59,,,,,,,,,,,,
259523,1564151606942,1,2.48,0.94,0.33,1.39,1.08,0.99,-0.52,0.59,16,0,22,1.12,8856,25,91,44,36,1136,464.0,623,468,60,123.0,139,1,311,197,65,0,0,452,21432,-1923,464,-5.59,,,,,,,,,,,,
259543,1564151606962,-1,2.48,0.94,0.33,1.39,1.08,0.84,-0.6,0.5,17,1,23,1.04,8819,25,91,44,36,1135,463.0,625,467,60,123.0,139,1,311,197,65,0,0,451,23400,-1923,465,-5.59,44.681168,10.025111,45.78,173.1,0,0.0,-1,0.0,0.0,0,1.65,4.3257
259563,1564151606982,-0,2.48,0.93,0.33,1.4,1.08,0.77,-0.62,0.44,17,1,22,0.99,8827,25,91,44,36,1132,463.0,628,463,60,122.0,140,1,311,197,65,0,0,453,20625,32033,463,-5.59,,,,,,,,,,,,
259583,1564151606994,3,2.48,0.94,0.33,1.4,1.07,0.65,-0.52,0.45,18,1,23,0.83,8831,25,91,44,36,1129,463.0,621,465,60,123.0,140,1,311,200,65,0,0,456,20625,3576,464,-5.59,,,,,,,,,,,,
259603,1564151607014,3,2.48,0.93,0.33,1.39,1.08,0.74,-0.38,0.51,18,0,23,0.83,8836,25,91,44,37,1128,463.0,625,462,60,122.0,140,1,314,200,65,0,0,454,-28332,-17956,463,-5.59,,,,,,,,,,,,
259623,1564151607034,2,2.47,0.94,0.33,1.39,1.08,0.85,-0.35,0.64,17,-1,22,0.91,8786,25,91,44,37,1127,462.0,624,462,60,122.0,140,1,314,200,65,0,0,455,-28332,8488,462,-5.59,,,,,,,,,,,,
259643,1564151607054,2,2.47,0.94,0.33,1.4,1.07,0.96,-0.38,0.71,17,-2,22,1.03,8761,25,91,44,37,1132,462.0,634,467,60,123.0,140,1,314,200,65,0,0,456,26704,3576,460,-5.59,44.681156,10.02511,45.42,173.2,0,0.0,-1,0.0,0.0,0,1.65,4.3274
259663,1564151607074,2,2.48,0.93,0.33,1.39,1.08,0.99,-0.5,0.73,16,-1,21,1.11,8712,25,91,44,37,1134,461.0,630,467,60,123.0,142,1,314,200,66,0,0,457,26704,-1923,461,-5.59,,,,,,,,,,,,
259683,1564151607103,-1,2.48,0.94,0.33,1.4,1.07,0.84,-0.5,0.6,16,0,21,0.98,8668,25,91,44,37,1133,463.0,645,463,60,121.0,142,1,314,200,66,0,0,455,20625,-16384,462,-5.59,,,,,,,,,,,,
259703,1564151607123,4,2.48,0.93,0.33,1.4,1.08,0.75,-0.5,0.44,16,2,22,0.9,8612,25,91,44,37,1130,461.0,630,463,60,122.0,142,1,314,200,66,0,0,460,23400,3576,461,-5.59,,,,,,,,,,,,
259723,1564151607143,2,2.48,0.93,0.34,1.4,1.08,0.88,-0.49,0.54,16,-0,22,1.01,8624,25,91,44,37,1127,460.0,615,466,60,124.0,142,1,314,200,66,0,0,451,-28332,3576,464,-5.59,,,,,,,,,,,,
259743,1564151607163,-0,2.48,0.94,0.33,1.4,1.08,0.85,-0.49,0.65,17,1,20,0.98,8616,25,91,44,37,1120,463.0,612,468,60,123.0,142,1,314,204,66,0,0,455,26704,10305,463,-5.59,44.681145,10.025109,45.23,173.2,0,0.0,-1,0.0,0.0,0,1.65,4.3291
259763,1564151607183,-1,2.48,0.94,0.33,1.39,1.08,0.75,-0.53,0.61,17,2,21,0.92,8620,25,91,44,38,1115,461.0,622,466,60,121.0,142,1,317,204,66,0,0,451,-18341,2212,461,-5.59,,,,,,,,,,,,
259783,1564151607201,1,2.48,0.94,0.34,1.39,1.08,0.77,-0.47,0.5,17,1,21,0.9,8632,25,91,44,38,1106,462.0,616,463,60,122.0,142,1,317,204,66,0,0,450,-18341,10432,462,-5.59,,,,,,,,,,,,
259803,1564151607221,2,2.47,0.94,0.33,1.4,1.08,0.88,-0.45,0.6,17,-1,21,0.99,8596,25,91,44,38,1104,461.0,614,467,60,123.0,142,1,317,204,66,0,0,454,20625,243,461,-5.59,,,,,,,,,,,,
259823,1564151607241,1,2.48,0.94,0.33,1.4,1.08,0.9,-0.49,0.64,16,-0,21,1.02,8624,25,91,44,38,1102,462.0,621,465,60,124.0,142,1,317,204,66,0,0,452,21580,32033,460,-5.59,,,,,,,,,,,,
259843,1564151607261,1,2.47,0.94,0.33,1.4,1.08,0.84,-0.56,0.59,16,0,21,1.01,8652,25,91,44,38,1094,461.0,625,467,60,123.0,142,1,317,204,66,0,0,453,-28332,-1923,461,-5.59,44.681133,10.025107,45.08,173.2,0,0.0,-1,0.0,0.0,0,1.65,4.3307
259863,1564151607281,3,2.47,0.94,0.33,1.39,1.08,0.76,-0.5,0.51,16,-0,21,0.91,8688,25,91,44,38,1081,460.0,637,458,60,122.0,145,1,317,204,67,0,0,455,21580,-1923,460,-5.59,,,,,,,,,,,,
259883,1564151607301,2,2.46,0.94,0.33,1.4,1.08,0.8,-0.38,0.56,16,1,22,0.89,8672,25,91,44,38,1072,461.0,628,466,60,123.0,145,1,317,204,67,0,0,462,20625,-16384,461,-5.59,,,,,,,,,,,,
259903,1564151607321,2,2.47,0.94,0.34,1.4,1.08,0.9,-0.37,0.66,16,-1,22,0.97,8696,25,91,44,38,1065,461.0,621,464,60,123.0,145,1,317,204,67,0,0,457,20625,32033,460,-5.59,,,,,,,,,,,,
259923,1564151607341,1,2.47,0.94,0.33,1.4,1.08,0.89,-0.44,0.69,16,-0,21,0.99,8676,25,91,44,38,1049,462.0,625,468,60,124.0,145,1,317,204,67,0,0,455,20625,10432,462,-5.59,,,,,,,,,,,,
259943,1564151607361,-0,2.47,0.93,0.33,1.39,1.08,0.74,-0.47,0.62,16,2,21,0.88,8664,25,91,44,38,1039,460.0,620,463,60,122.0,145,1,317,204,67,0,0,457,26704,-9203,460,-5.59,44.681122,10.025105,45.26,173.2,0,0.0,-1,0.0,0.0,0,1.65,4.3324
259963,1564151607381,3,2.47,0.94,0.33,1.39,1.08,0.77,-0.43,0.54,16,1,22,0.88,8676,25,91,44,38,1029,460.0,621,463,60,122.0,143,1,317,204,66,0,0,462,-28332,32033,460,-5.59,,,,,,,,,,,,
259983,1564151607401,1,2.48,0.93,0.33,1.39,1.08,0.87,-0.39,0.64,16,-1,21,0.95,8628,25,91,44,38,1025,461.0,617,468,60,123.0,143,1,317,204,66,0,0,454,-28332,-1923,461,-5.59,,,,,,,,,,,,
260003,1564151607421,1,2.47,0.94,0.33,1.39,1.07,0.88,-0.42,0.65,16,-1,21,0.98,8648,25,91,44,38,1019,462.0,621,463,60,123.0,143,1,317,204,66,0,0,453,-28332,3576,462,-5.59,,,,,,,,,,,,
260023,1564151607441,-1,2.47,0.93,0.33,1.4,1.07,0.8,-0.51,0.62,16,0,20,0.95,8636,25,91,44,38,1012,461.0,627,465,60,122.0,143,1,317,204,66,0,0,454,-28332,32033,461,-5.59,,,,,,,,,,,,
260043,1564151607461,3,2.47,0.93,0.33,1.4,1.07,0.76,-0.47,0.53,16,1,20,0.9,8648,25,91,44,38,1006,460.0,626,466,60,123.0,143,1,317,200,66,0,0,455,20625,3576,460,-5.59,44.68111,10.025101,45.07,173.2,0,0.0,-1,0.0,0.0,0,1.66,4.3341
260063,1564151607481,3,2.47,0.93,0.33,1.4,1.08,0.81,-0.39,0.57,16,1,21,0.9,8660,25,91,44,38,1003,460.0,617,470,60,123.0,145,1,317,204,67,0,0,453,20625,8488,460,-5.59,,,,,,,,,,,,
260083,1564151607501,1,2.47,0.93,0.33,1.4,1.08,0.88,-0.4,0.63,16,0,21,0.97,8640,25,91,44,38,1000,460.0,622,465,60,123.0,145,1,317,204,67,0,0,454,20625,10432,462,-5.59,,,,,,,,,,,,
260103,1564151607521,-0,2.47,0.94,0.33,1.4,1.08,0.82,-0.48,0.61,16,1,20,0.95,8648,25,91,44,38,996,460.0,626,467,60,124.0,145,1,317,204,67,0,0,458,26704,3576,460,-5.59,,,,,,,,,,,,
260123,1564151607541,3,2.47,0.93,0.33,1.39,1.08,0.68,-0.46,0.51,16,3,20,0.82,8656,25,91,44,38,994,461.0,620,465,60,121.0,145,1,317,204,67,0,0,458,20625,-9203,461,-5.59,,,,,,,,,,,,
260143,1564151607561,1,2.48,0.94,0.33,1.4,1.08,0.82,-0.42,0.56,16,1,20,0.92,8648,25,91,44,38,994,461.0,622,460,60,123.0,145,1,317,204,67,0,0,454,21580,-17956,461,-5.59,44.681103,10.025097,45.32,173.3,0,0.0,-1,0.0,0.0,0,1.66,4.3357
260163,1564151607581,0,2.47,0.93,0.34,1.4,1.08,0.91,-0.46,0.7,15,-0,20,1.02,8604,25,91,44,38,995,459.0,622,464,60,123.0,143,1,317,204,66,0,0,451,-28332,-16384,459,-5.59,,,,,,,,,,,,
260183,1564151607601,1,2.47,0.94,0.33,1.4,1.08,0.82,-0.5,0.65,15,0,19,0.96,8612,25,91,44,38,998,461.0,627,463,60,122.0,143,1,317,204,66,0,0,452,-28332,10432,461,-5.59,,,,,,,,,,,,
260203,1564151607621,3,2.47,0.94,0.33,1.39,1.08,0.71,-0.53,0.51,16,2,20,0.89,8620,24,91,44,38,1002,461.0,621,463,60,123.0,143,1,317,204,66,0,0,455,26704,10432,461,-5.59,,,,,,,,,,,,
260223,1564151607641,2,2.46,0.94,0.33,1.4,1.08,0.8,-0.49,0.53,16,1,20,0.94,8660,24,91,44,38,1005,461.0,617,467,60,123.0,143,1,317,204,66,0,0,454,26704,-1923,461,-5.59,,,,,,,,,,,,
260243,1564151607661,2,2.48,0.93,0.33,1.4,1.08,0.84,-0.44,0.67,16,2,19,0.95,8660,24,91,44,37,1010,462.0,618,468,60,124.0,143,1,314,200,66,0,0,453,26704,8488,462,-5.59,44.681088,10.025092,45.35,173.3,0,0.0,-1,0.0,0.0,0,1.66,4.3374
260263,1564151607681,1,2.47,0.94,0.33,1.4,1.08,0.83,-0.49,0.7,16,2,20,0.97,8672,24,91,44,38,1013,462.0,622,465,60,123.0,143,1,317,204,66,0,0,453,-28332,8488,460,-5.59,,,,,,,,,,,,
260283,1564151607701,-1,2.48,0.94,0.33,1.4,1.07,0.74,-0.55,0.58,16,2,19,0.92,8672,24,91,44,38,1016,460.0,625,463,60,123.0,143,1,317,204,66,0,0,455,21580,243,460,-5.59,,,,,,,,,,,,
260303,1564151607721,4,2.47,0.94,0.33,1.4,1.08,0.73,-0.49,0.61,16,2,20,0.88,8636,23,91,44,37,1017,460.0,616,467,60,123.0,143,1,314,200,66,0,0,452,20625,-1923,460,-5.59,,,,,,,,,,,,
260323,1564151607741,0,2.47,0.94,0.33,1.39,1.08,0.83,-0.46,0.67,16,1,20,0.95,8600,23,91,44,37,1017,459.0,616,463,60,123.0,143,1,314,200,66,0,0,453,20625,30272,459,-5.59,,,,,,,,,,,,
260343,1564151607761,-1,2.48,0.94,0.33,1.4,1.07,0.86,-0.52,0.72,16,1,19,1.01,8604,23,91,44,38,1017,459.0,628,465,60,123.0,143,1,317,204,66,0,0,453,-28332,-1923,459,-5.59,44.68108,10.025086,45.05,173.3,0,0.0,-1,0.0,0.0,0,1.66,4.339
260363,1564151607781,0,2.47,0.93,0.33,1.39,1.08,0.74,-0.52,0.58,16,1,20,0.9,8593,23,90,44,38,1017,462.0,630,462,60,123.0,143,1,317,204,66,0,0,457,20625,-1923,462,-5.59,,,,,,,,,,,,
260383,1564151607801,4,2.47,0.94,0.33,1.41,1.08,0.76,-0.45,0.58,16,2,20,0.88,8612,23,91,44,38,1016,461.0,628,467,60,122.0,143,1,317,200,66,0,0,454,-28332,8488,461,-5.59,,,,,,,,,,,,
260403,1564151607821,1,2.46,0.94,0.33,1.4,1.08,0.88,-0.42,0.67,16,1,19,0.97,8644,23,91,44,37,1016,460.0,622,465,60,123.0,143,1,314,200,66,0,0,454,19477,32033,460,-5.59,,,,,,,,,,,,
260423,1564151607841,-0,2.47,0.93,0.33,1.4,1.07,0.87,-0.53,0.69,16,2,18,1.02,8648,23,91,44,37,1013,460.0,617,467,60,123.0,143,1,314,200,66,0,0,451,19477,8488,460,-5.59,,,,,,,,,,,,
260443,1564151607861,0,2.46,0.94,0.33,1.4,1.08,0.72,-0.55,0.6,16,3,19,0.91,8652,23,91,44,37,1012,460.0,613,466,60,122.0,143,1,314,200,66,0,0,455,-28332,32033,459,-5.59,44.681068,10.025081,45.48,173.3,0,0.0,-1,0.0,0.0,0,1.66,4.3407
260463,1564151607881,2,2.46,0.94,0.33,1.4,1.08,0.74,-0.48,0.56,16,1,19,0.88,8668,23,91,44,37,1010,460.0,615,463,60,123.0,141,1,314,200,65,0,0,450,20625,-16384,460,-5.59,,,,,,,,,,,,
260483,1564151607903,2,2.46,0.94,0.34,1.39,1.08,0.85,-0.48,0.7,16,-0,19,0.97,8616,23,91,44,37,1009,459.0,611,466,60,123.0,141,1,314,200,65,0,0,453,20625,10432,460,-5.59,,,,,,,,,,,,
260503,1564151607923,1,2.45,0.93,0.33,1.39,1.07,0.81,-0.49,0.71,16,2,19,0.95,8616,22,90,44,37,1009,461.0,623,462,60,124.0,141,1,314,200,65,0,0,453,21580,-23367,461,-5.59,,,,,,,,,,,,
260523,1564151607943,-0,2.47,0.94,0.33,1.4,1.08,0.74,-0.54,0.6,16,2,19,0.91,8604,22,90,44,37,1009,462.0,625,467,60,124.0,141,1,314,200,65,0,0,453,-28332,8488,461,-5.59,,,,,,,,,,,,
260543,1564151607963,4,2.45,0.94,0.33,1.4,1.08,0.78,-0.48,0.58,16,1,19,0.92,8632,22,91,44,37,1010,459.0,623,467,60,123.0,141,1,314,200,65,0,0,454,21580,8488,459,-5.59,44.681061,10.025074,45.32,173.3,0,0.0,-1,0.0,0.0,0,1.66,4.3424
260563,1564151607983,2,2.46,0.93,0.33,1.4,1.08,0.82,-0.44,0.66,15,1,19,0.93,8636,22,91,44,37,1011,459.0,627,466,60,123.0,139,1,314,200,64,0,0,453,-28332,8488,459,-5.59,,,,,,,,,,,,
260583,1564151607995,1,2.46,0.94,0.33,1.4,1.08,0.79,-0.49,0.63,15,2,19,0.93,8624,22,91,44,37,1011,457.0,626,463,60,122.0,139,1,314,200,64,0,0,451,-28332,-3210,457,-5.59,,,,,,,,,,,,
260603,1564151608015,0,2.46,0.93,0.32,1.39,1.08,0.69,-0.52,0.49,15,1,19,0.87,8620,22,90,44,37,1011,459.0,635,463,60,122.0,139,1,314,200,64,0,0,455,-28332,8488,459,-5.59,,,,,,,,,,,,
260623,1564151608035,4,2.45,0.94,0.33,1.4,1.08,0.72,-0.46,0.54,16,1,20,0.85,8620,21,91,44,36,1011,459.0,612,467,60,123.0,139,1,311,197,64,0,0,453,-28332,-17956,459,-5.59,,,,,,,,,,,,
260643,1564151608055,2,2.46,0.93,0.33,1.4,1.07,0.84,-0.45,0.63,15,1,19,0.95,8593,20,90,44,36,1010,461.0,623,463,60,123.0,139,1,311,197,64,0,0,448,20625,32033,461,-5.59,44.681046,10.025066,45.37,173.3,0,0.0,-1,0.0,0.0,0,1.66,4.344
260663,1564151608075,0,2.46,0.94,0.33,1.4,1.07,0.83,-0.54,0.68,15,1,19,0.99,8589,17,91,44,35,1007,460.0,624,462,60,122.0,139,1,308,194,64,0,0,452,-28332,8488,459,-5.59,,,,,,,,,,,,
260683,1564151608100,1,2.46,0.94,0.33,1.4,1.07,0.73,-0.51,0.54,15,1,19,0.89,8573,15,90,44,34,1003,460.0,617,463,60,122.0,139,1,305,191,64,0,0,455,19477,32033,460,-5.59,,,,,,,,,,,,
260703,1564151608120,3,2.46,0.94,0.32,1.4,1.08,0.8,-0.41,0.53,16,0,20,0.89,8581,14,90,44,33,998,459.0,614,466,60,123.0,139,1,302,187,64,0,0,450,21580,243,459,-5.59,,,,,,,,,,,,
260723,1564151608140,0,2.45,0.94,0.33,1.39,1.07,0.82,-0.46,0.58,15,-0,20,0.94,8542,13,90,44,32,996,457.0,615,463,60,123.0,139,1,300,184,64,0,0,451,20625,-16384,457,-5.59,,,,,,,,,,,,
260743,1564151608160,3,2.46,0.93,0.33,1.4,1.08,0.71,-0.48,0.44,15,-0,20,0.86,8480,13,90,44,31,987,459.0,612,465,60,123.0,139,1,294,182,64,0,0,451,21580,243,459,-5.59,44.681038,10.025059,45.21,173.3,0,0.0,-1,0.0,0.0,0,1.66,4.3457
260763,1564151608180,1,2.45,0.94,0.33,1.39,1.08,0.8,-0.46,0.47,15,-1,20,0.93,8404,12,90,44,30,974,459.0,608,466,60,122.0,124,1,290,178,57,0,0,450,20625,-1923,459,-5.59,,,,,,,,,,,,
260783,1564151608202,-0,2.45,0.94,0.33,1.4,1.08,0.68,-0.46,0.47,15,2,19,0.82,8311,12,90,44,30,966,457.0,615,463,60,124.0,124,1,288,175,57,0,0,452,-28332,243,457,-5.59,,,,,,,,,,,,
260803,1564151608222,2,2.46,0.93,0.33,1.39,1.08,0.77,-0.44,0.42,15,1,20,0.89,8296,11,90,44,30,960,458.0,610,466,60,122.0,124,1,287,174,57,0,0,449,21580,-16384,458,-5.59,,,,,,,,,,,,
260823,1564151608242,-0,2.45,0.94,0.33,1.4,1.08,0.75,-0.46,0.45,15,1,20,0.89,8209,11,90,44,29,946,458.0,604,463,60,123.0,124,1,283,170,57,0,0,446,5600,30272,458,-5.59,,,,,,,,,,,,
260843,1564151608262,-0,2.46,0.94,0.33,1.39,1.08,0.88,-0.42,0.45,14,-1,20,0.98,8106,11,90,44,29,937,457.0,600,465,60,123.0,124,1,282,165,57,0,0,447,5600,6193,457,-5.59,44.681026,10.02505,45.03,173.3,0,0.0,-1,0.0,0.0,0,1.67,4.3474
260863,1564151608282,3,2.46,0.94,0.33,1.4,1.08,0.77,-0.43,0.44,14,0,20,0.88,8023,11,90,44,29,926,457.0,600,465,60,122.0,109,1,281,161,50,0,0,445,5600,16408,457,-5.59,,,,,,,,,,,,
260883,1564151608302,-0,2.45,0.94,0.34,1.39,1.08,0.87,-0.5,0.49,14,-0,21,1.0,7971,11,90,44,29,921,455.0,585,465,60,124.0,109,1,281,160,50,0,0,446,21580,-3210,455,-5.59,,,,,,,,,,,,
260903,1564151608322,-0,2.46,0.93,0.33,1.39,1.08,0.96,-0.47,0.45,14,-1,20,1.07,7868,11,90,44,29,907,456.0,581,466,60,123.0,109,1,280,160,50,0,0,445,5600,2211,456,-5.59,,,,,,,,,,,,
260923,1564151608342,2,2.45,0.94,0.33,1.4,1.08,0.94,-0.46,0.4,13,-1,19,1.05,7924,11,90,44,30,897,455.0,584,464,60,123.0,109,1,284,160,50,0,0,434,243,-6387,455,-5.59,,,,,,,,,,,,
260943,1564151608362,-2,2.46,0.93,0.33,1.4,1.07,0.94,-0.46,0.36,13,-2,19,1.05,8061,11,90,44,29,885,449.0,581,466,60,123.0,109,1,282,163,50,0,0,429,3635,-18341,449,-5.59,44.681019,10.02504,44.81,173.3,0,0.0,-1,0.0,0.0,0,1.67,4.3491
260963,1564151608382,1,2.45,0.94,0.33,1.4,1.07,1.05,-0.42,0.28,13,-4,20,1.13,8162,11,90,44,29,875,445.0,584,466,60,123.0,111,1,283,168,50,0,0,427,31796,20625,445,-5.59,,,,,,,,,,,,
260983,1564151608402,-0,2.45,0.94,0.33,1.4,1.07,0.94,-0.46,0.3,13,-3,19,1.05,8285,11,90,44,28,867,443.0,603,466,60,123.0,111,1,280,173,50,0,0,424,-3856,-18341,442,-5.59,,,,,,,,,,,,
261003,1564151608422,1,2.46,0.93,0.33,1.39,1.08,0.99,-0.5,0.27,12,-3,19,1.11,8359,11,90,44,28,861,442.0,603,464,60,122.0,111,1,281,176,50,0,0,431,-4082,16648,442,-5.59,,,,,,,,,,,,
261023,1564151608442,-0,2.45,0.94,0.33,1.39,1.08,0.93,-0.54,0.39,13,-1,19,1.07,8344,11,90,44,28,855,441.0,608,468,60,123.0,111,1,281,175,50,0,0,433,-4082,10305,442,-5.59,,,,,,,,,,,,
261043,1564151608462,2,2.45,0.94,0.33,1.4,1.07,0.92,-0.48,0.41,13,-1,18,1.04,8256,11,90,44,27,855,441.0,607,467,60,124.0,111,1,277,171,50,0,0,429,3826,3571,441,-5.59,44.681011,10.02503,44.79,173.3,0,0.0,-1,0.0,0.0,0,1.67,4.3507
261063,1564151608482,-2,2.46,0.93,0.33,1.39,1.08,0.9,-0.47,0.42,14,-0,18,1.02,8198,10,90,44,27,855,440.0,606,463,60,123.0,120,1,276,168,53,0,0,429,-3414,15649,440,-5.59,,,,,,,,,,,,
261083,1564151608502,2,2.45,0.94,0.33,1.4,1.08,0.96,-0.42,0.42,14,-1,19,1.05,8155,10,90,44,28,855,439.0,600,465,60,123.0,120,1,279,166,53,0,0,430,-21944,8488,438,-5.59,,,,,,,,,,,,
261103,1564151608522,-0,2.45,0.93,0.33,1.39,1.08,0.93,-0.4,0.46,13,0,19,1.02,8109,10,90,44,27,854,436.0,596,463,60,123.0,120,1,276,164,53,0,0,428,-21944,16648,436,-5.59,,,,,,,,,,,,
261123,1564151608542,1,2.46,0.93,0.33,1.39,1.08,1.04,-0.38,0.48,13,-0,19,1.11,8016,10,90,44,27,853,436.0,591,466,60,123.0,120,1,275,159,53,0,0,423,-21944,2131,436,-5.59,,,,,,,,,,,,
261143,1564151608562,1,2.45,0.94,0.33,1.4,1.07,1.02,-0.38,0.45,13,-0,19,1.09,7985,10,90,44,28,853,433.0,595,464,60,122.0,120,1,278,159,53,0,0,423,18584,-18341,433,-5.59,44.681004,10.02502,43.73,173.3,0,0.0,-1,0.0,0.0,0,1.67,4.3524
261163,1564151608582,-0,2.45,0.94,0.33,1.4,1.07,0.98,-0.44,0.48,12,-0,18,1.08,7995,10,90,44,28,853,433.0,582,465,60,123.0,110,1,278,159,48,0,0,422,18584,-28332,433,-5.59,,,,,,,,,,,,
261183,1564151608602,-0,2.45,0.94,0.33,1.39,1.08,1.08,-0.46,0.54,12,-1,18,1.18,7965,10,90,44,28,854,433.0,585,463,60,123.0,110,1,278,159,48,0,0,420,2524,21580,430,-5.59,,,,,,,,,,,,
261203,1564151608622,1,2.45,0.93,0.33,1.4,1.08,1.06,-0.45,0.54,12,-2,17,1.16,7975,10,90,44,28,854,430.0,581,466,60,124.0,110,1,278,159,48,0,0,419,-9166,5600,429,-5.59,,,,,,,,,,,,
261223,1564151608642,3,2.45,0.93,0.33,1.39,1.08,1.0,-0.45,0.51,12,-0,18,1.1,7988,10,90,44,28,855,428.0,582,466,60,123.0,110,1,278,159,48,0,0,419,9517,13180,428,-5.59,,,,,,,,,,,,
261243,1564151608662,1,2.44,0.93,0.32,1.39,1.07,1.05,-0.41,0.5,12,-1,18,1.13,7934,10,90,44,28,857,427.0,580,465,60,123.0,110,1,278,159,48,0,0,419,10392,13180,427,-5.59,44.680992,10.02501,42.62,173.3,0,0.0,-1,0.0,0.0,0,1.67,4.3541
261263,1564151608682,1,2.44,0.94,0.33,1.4,1.08,1.08,-0.37,0.52,12,-3,17,1.14,7958,10,90,44,28,858,425.0,590,465,60,123.0,112,1,278,159,48,0,0,412,10392,1779,423,-5.59,,,,,,,,,,,,
261283,1564151608702,2,2.45,0.94,0.33,1.4,1.07,1.0,-0.36,0.47,12,-1,18,1.06,7918,10,90,44,29,859,423.0,587,468,60,123.0,112,1,281,160,48,0,0,414,10392,243,423,-5.59,,,,,,,,,,,,
261303,1564151608722,-1,2.44,0.93,0.33,1.4,1.08,0.98,-0.38,0.47,11,0,18,1.05,7832,10,90,44,29,860,423.0,608,463,60,123.0,112,1,280,160,48,0,0,415,2524,-7939,423,-5.59,,,,,,,,,,,,
261323,1564151608742,1,2.44,0.94,0.33,1.4,1.08,1.05,-0.37,0.5,11,-1,16,1.11,7845,10,90,44,29,864,422.0,582,465,60,124.0,112,1,280,160,48,0,0,413,-9211,3635,422,-5.59,,,,,,,,,,,,
261343,1564151608762,-0,2.45,0.93,0.33,1.39,1.07,1.1,-0.34,0.52,11,-1,17,1.15,7786,10,90,44,29,866,420.0,575,466,60,123.0,112,1,280,160,48,0,0,408,10541,3635,419,-5.59,44.680984,10.024999,42.58,173.3,0,0.0,-1,0.0,0.0,0,1.67,4.3557
261363,1564151608782,2,2.44,0.94,0.33,1.39,1.08,1.07,-0.33,0.53,12,-0,17,1.12,7767,10,90,44,29,868,420.0,587,464,60,122.0,112,1,280,160,47,0,0,412,-8151,-3856,420,-5.59,,,,,,,,,,,,
261383,1564151608802,1,2.44,0.93,0.33,1.39,1.08,0.94,-0.33,0.54,12,-0,14,0.99,7786,10,90,44,30,870,417.0,571,467,60,122.0,112,1,283,162,47,0,0,410,6512,-3414,417,-5.59,,,,,,,,,,,,
261403,1564151608822,1,2.43,0.93,0.33,1.39,1.08,0.89,-0.37,0.49,12,-0,15,0.97,7725,10,90,44,29,871,416.0,572,466,60,123.0,112,1,280,160,47,0,0,410,28696,-21792,416,-5.59,,,,,,,,,,,,
261423,1564151608842,-0,2.44,0.93,0.33,1.39,1.08,0.94,-0.39,0.48,12,-1,17,1.02,7738,10,90,44,30,871,414.0,570,466,60,124.0,112,1,283,162,47,0,0,407,6384,-3414,414,-5.59,,,,,,,,,,,,
261443,1564151608862,0,2.43,0.94,0.33,1.4,1.07,1.03,-0.39,0.52,11,-1,16,1.11,7687,10,90,44,30,870,413.0,558,465,60,123.0,112,1,283,162,47,0,0,405,28696,-8165,414,-5.59,44.680981,10.024987,41.35,173.2,0,0.0,-1,0.0,0.0,0,1.67,4.3574
261463,1564151608882,1,2.44,0.93,0.33,1.4,1.07,1.13,-0.37,0.52,11,-2,15,1.19,7697,10,90,44,30,868,412.0,565,463,60,123.0,114,1,283,162,47,0,0,407,-3968,7154,412,-5.59,,,,,,,,,,,,
261483,1564151608902,1,2.43,0.93,0.33,1.39,1.08,1.15,-0.34,0.52,11,-2,16,1.2,7678,10,90,44,30,865,411.0,560,468,60,123.0,114,1,283,162,47,0,0,403,17144,7154,411,-5.59,,,,,,,,,,,,
261503,1564151608922,0,2.44,0.93,0.33,1.4,1.08,1.08,-0.3,0.52,11,-2,16,1.12,7662,10,90,44,30,862,410.0,567,466,60,123.0,114,1,283,162,47,0,0,405,17144,9517,410,-5.59,,,,,,,,,,,,
261523,1564151608942,2,2.43,0.93,0.33,1.4,1.07,0.97,-0.27,0.47,12,-2,13,1.0,7634,10,90,44,30,860,409.0,566,466,60,122.0,114,1,283,162,47,0,0,402,1,13040,409,-5.59,,,,,,,,,,,,
261543,1564151608962,1,2.44,0.94,0.33,1.4,1.07,0.88,-0.27,0.43,12,-1,14,0.92,7575,10,90,44,30,858,407.0,567,464,60,122.0,114,1,282,163,47,0,0,399,1,-21944,408,-5.59,44.680973,10.024976,41.18,173.2,0,0.0,-1,0.0,0.0,0,1.67,4.359
261563,1564151608982,2,2.44,0.93,0.33,1.39,1.07,0.81,-0.27,0.35,11,0,15,0.85,7575,10,90,44,31,858,407.0,562,466,60,122.0,113,1,286,163,46,0,0,396,1,13040,405,-5.59,,,,,,,,,,,,
261583,1564151608994,3,2.43,0.94,0.33,1.4,1.07,0.68,-0.26,0.29,12,3,14,0.73,7539,10,90,44,31,857,405.0,571,465,60,123.0,113,1,286,163,46,0,0,401,505,2524,405,-5.59,,,,,,,,,,,,
261603,1564151609014,4,2.43,0.94,0.33,1.39,1.07,0.62,-0.27,0.3,12,4,13,0.68,7554,10,90,44,31,857,405.0,563,465,60,123.0,113,1,286,163,46,0,0,400,-1562,13040,405,-5.59,,,,,,,,,,,,
261623,1564151609034,2,2.44,0.93,0.33,1.4,1.07,0.57,-0.33,0.25,12,4,14,0.66,7521,10,90,44,31,858,404.0,561,464,60,124.0,113,1,286,163,46,0,0,396,-6524,11560,404,-5.59,,,,,,,,,,,,
261643,1564151609054,3,2.43,0.94,0.33,1.4,1.07,0.58,-0.31,0.24,12,4,15,0.66,7536,10,90,44,31,862,401.0,553,463,60,124.0,113,1,286,163,46,0,0,392,-31744,2524,401,-5.59,44.680965,10.024965,40.38,173.2,0,0.0,-1,0.0,0.0,0,1.67,4.3607
261663,1564151609074,3,2.43,0.94,0.33,1.4,1.07,0.56,-0.29,0.22,11,5,14,0.63,7488,10,90,44,31,865,400.0,563,465,60,124.0,114,1,286,88,46,0,0,394,-3866,-8151,400,-5.59,,,,,,,,,,,,
261683,1564151609101,2,2.43,0.94,0.33,1.4,1.07,0.53,-0.3,0.23,12,6,13,0.61,7485,10,90,44,31,870,400.0,552,465,60,124.0,114,1,286,163,46,0,0,394,-19019,11560,400,-5.59,,,,,,,,,,,,
261703,1564151609121,2,2.44,0.93,0.33,1.4,1.08,0.48,-0.32,0.15,12,7,15,0.58,7431,10,90,44,31,872,398.0,559,464,60,123.0,114,1,286,163,46,0,0,391,-19126,1504,398,-5.59,,,,,,,,,,,,
261723,1564151609141,4,2.43,0.93,0.33,1.4,1.08,0.47,-0.36,0.15,11,7,16,0.59,7434,10,90,44,31,879,397.0,550,466,60,123.0,114,1,286,165,46,0,0,390,-19019,-26615,397,-5.59,,,,,,,,,,,,
261743,1564151609161,2,2.42,0.94,0.33,1.4,1.08,0.39,-0.3,0.05,12,8,15,0.5,7378,10,90,44,32,887,397.0,552,466,60,123.0,114,1,290,165,46,0,0,391,-19126,6512,397,-5.59,44.680962,10.024954,39.92,173.2,0,0.0,-1,0.0,0.0,0,1.68,4.3624
261763,1564151609181,2,2.42,0.93,0.33,1.39,1.08,0.34,-0.3,-0.01,12,9,13,0.45,7399,10,90,44,32,892,397.0,549,465,60,121.0,116,1,290,165,46,0,0,391,-19126,10541,395,-5.59,,,,,,,,,,,,
261783,1564151609201,1,2.42,0.93,0.33,1.4,1.08,0.35,-0.27,-0.0,12,8,15,0.44,7364,10,90,44,32,896,394.0,553,465,60,123.0,116,1,290,165,46,0,0,394,-18948,11545,394,-5.59,,,,,,,,,,,,
261803,1564151609221,1,2.43,0.94,0.33,1.39,1.07,0.33,-0.23,-0.02,12,8,15,0.4,7376,10,90,44,32,903,394.0,541,467,60,124.0,116,1,290,165,46,0,0,389,2278,-3968,394,-5.59,,,,,,,,,,,,
261823,1564151609241,-1,2.43,0.93,0.33,1.4,1.07,0.33,-0.22,0.04,12,7,13,0.4,7373,10,90,44,32,914,394.0,551,467,60,123.0,116,1,290,165,46,0,0,388,2278,28696,392,-5.59,,,,,,,,,,,,
261843,1564151609261,-0,2.42,0.94,0.33,1.4,1.07,0.45,-0.27,0.14,12,5,11,0.52,7324,10,90,44,32,921,392.0,548,463,60,122.0,116,1,290,165,46,0,0,385,-6656,-3968,391,-5.59,44.680954,10.024942,39.22,173.2,0,0.0,-1,0.0,0.0,0,1.68,4.364
261863,1564151609281,-1,2.42,0.94,0.33,1.39,1.07,0.59,-0.27,0.26,11,4,12,0.65,7318,10,90,44,32,926,390.0,545,464,60,123.0,120,1,290,165,47,0,0,383,3,6512,390,-5.59,,,,,,,,,,,,
261883,1564151609301,0,2.42,0.93,0.32,1.39,1.08,0.67,-0.33,0.4,11,3,13,0.75,7270,10,90,44,33,932,389.0,545,466,60,124.0,120,1,292,170,47,0,0,381,-6656,-6656,390,-5.59,,,,,,,,,,,,
261903,1564151609321,3,2.42,0.94,0.33,1.39,1.07,0.75,-0.32,0.43,10,2,14,0.82,7275,10,90,44,33,945,388.0,548,464,60,124.0,120,1,292,170,47,0,0,384,3,-32702,389,-5.59,,,,,,,,,,,,
261923,1564151609341,1,2.42,0.93,0.33,1.39,1.08,0.72,-0.25,0.33,11,3,13,0.76,7233,10,90,44,33,951,387.0,542,468,60,122.0,120,1,292,170,47,0,0,381,770,6384,387,-5.59,,,,,,,,,,,,
261943,1564151609361,1,2.41,0.93,0.33,1.39,1.08,0.65,-0.24,0.24,11,3,12,0.69,7233,10,90,44,33,957,386.0,537,465,60,122.0,120,1,292,170,47,0,0,382,-6656,505,387,-5.59,44.680946,10.024931,38.79,173.2,0,0.0,-1,0.0,0.0,0,1.68,4.3657
261963,1564151609381,0,2.41,0.93,0.33,1.39,1.07,0.68,-0.25,0.19,10,3,13,0.72,7233,10,90,44,33,964,385.0,539,467,60,122.0,119,1,292,170,46,0,0,383,-6656,-1818,385,-5.59,,,,,,,,,,,,
261983,1564151609401,-0,2.41,0.93,0.33,1.4,1.08,0.74,-0.24,0.36,10,2,12,0.78,7200,10,90,44,33,970,382.0,531,466,60,123.0,119,1,292,170,46,0,0,380,1,-1818,384,-5.59,,,,,,,,,,,,
262003,1564151609421,4,2.4,0.93,0.33,1.4,1.07,0.81,-0.25,0.45,10,1,12,0.85,7205,10,90,44,33,976,385.0,538,463,60,124.0,119,1,292,170,46,0,0,379,-6656,-31744,385,-5.59,,,,,,,,,,,,
262023,1564151609441,1,2.41,0.94,0.33,1.39,1.07,0.8,-0.2,0.35,10,2,12,0.82,7153,10,90,44,33,978,382.0,537,465,60,121.0,119,1,292,175,46,0,0,378,-6656,505,382,-5.59,,,,,,,,,,,,
262043,1564151609461,1,2.41,0.93,0.33,1.4,1.08,0.72,-0.19,0.27,10,3,12,0.74,7118,10,90,44,34,981,381.0,530,466,60,123.0,119,1,295,175,46,0,0,379,-6656,-31744,381,-5.59,44.680943,10.02492,38.44,173.2,0,0.0,-1,0.0,0.0,0,1.68,4.3674
262063,1564151609481,-1,2.4,0.94,0.33,1.39,1.07,0.75,-0.18,0.28,9,3,12,0.77,7126,10,90,44,34,986,380.0,532,463,60,124.0,123,1,295,175,47,0,0,377,257,-31744,380,-5.59,,,,,,,,,,,,
262083,1564151609502,2,2.39,0.94,0.33,1.4,1.08,0.79,-0.24,0.4,9,2,11,0.83,7113,10,90,44,34,991,380.0,538,465,60,122.0,123,1,295,175,47,0,0,376,0,-6475,380,-5.59,,,,,,,,,,,,
262103,1564151609522,2,2.39,0.93,0.33,1.39,1.08,0.82,-0.24,0.4,9,2,11,0.85,7110,10,90,44,34,994,378.0,539,466,60,122.0,123,1,295,175,47,0,0,375,0,19125,378,-5.59,,,,,,,,,,,,
262123,1564151609542,1,2.39,0.93,0.33,1.4,1.07,0.73,-0.22,0.37,9,3,9,0.76,7062,10,90,44,34,997,377.0,536,468,60,123.0,123,1,295,175,47,0,0,374,-6405,-18948,377,-5.59,,,,,,,,,,,,
262143,1564151609562,-1,2.38,0.93,0.33,1.4,1.07,0.79,-0.26,0.41,9,2,9,0.83,7043,10,90,44,34,997,376.0,528,463,60,124.0,123,1,295,175,47,0,0,374,230,-19019,376,-5.59,44.680939,10.024908,37.92,173.2,0,0.0,-1,0.0,0.0,0,1.68,4.3691
262163,1564151609582,3,2.39,0.93,0.33,1.4,1.08,0.8,-0.28,0.46,9,2,9,0.85,7075,10,90,44,34,997,375.0,541,465,60,124.0,127,1,295,175,48,0,0,375,-1268,-19126,375,-5.59,,,,,,,,,,,,
262183,1564151609601,0,2.39,0.94,0.32,1.39,1.08,0.74,-0.23,0.36,8,3,11,0.78,7017,10,90,44,35,993,374.0,538,466,60,122.0,127,1,298,181,48,0,0,370,3082,8200,374,-5.59,,,,,,,,,,,,
262203,1564151609621,-0,2.38,0.94,0.33,1.39,1.07,0.74,-0.18,0.44,8,3,10,0.76,7019,10,90,44,35,992,373.0,526,464,60,125.0,127,1,298,175,48,0,0,372,3082,-992,372,-5.59,,,,,,,,,,,,
262223,1564151609641,3,2.38,0.94,0.33,1.4,1.07,0.86,-0.21,0.52,8,-1,10,0.89,7038,10,90,44,35,989,372.0,530,465,60,123.0,127,1,298,181,48,0,0,371,-1268,2278,372,-5.59,,,,,,,,,,,,
262243,1564151609661,1,2.38,0.93,0.33,1.39,1.07,0.83,-0.19,0.41,8,1,9,0.85,6980,10,90,44,35,986,372.0,528,465,60,122.0,127,1,298,181,48,0,0,369,3082,3,372,-5.59,44.680931,10.024897,37.49,173.2,0,0.0,-1,0.0,0.0,0,1.68,4.3707
262263,1564151609681,-1,2.38,0.93,0.33,1.39,1.08,0.81,-0.21,0.4,7,2,9,0.83,6996,10,90,44,35,987,370.0,525,465,60,123.0,129,1,298,181,48,0,0,370,2790,770,370,-5.59,,,,,,,,,,,,
262283,1564151609701,3,2.37,0.94,0.33,1.4,1.08,0.9,-0.22,0.47,7,0,9,0.92,7006,10,90,44,35,987,370.0,529,466,60,124.0,129,1,298,181,48,0,0,371,-14707,770,370,-5.59,,,,,,,,,,,,
262303,1564151609721,1,2.37,0.93,0.33,1.39,1.07,0.87,-0.12,0.39,7,1,10,0.88,6941,10,90,44,35,983,368.0,527,465,60,122.0,129,1,298,181,48,0,0,369,-6458,2278,368,-5.59,,,,,,,,,,,,
262323,1564151609741,-1,2.37,0.93,0.33,1.39,1.08,0.82,-0.08,0.5,7,2,9,0.82,6931,10,90,44,35,980,368.0,517,462,60,124.0,129,1,298,181,48,0,0,366,-29302,742,368,-5.59,,,,,,,,,,,,
262343,1564151609761,3,2.37,0.93,0.33,1.39,1.08,0.91,-0.1,0.53,7,-0,10,0.92,6926,10,90,44,35,977,368.0,530,465,60,122.0,129,1,298,181,48,0,0,367,-29978,3,366,-5.59,44.680927,10.024885,37.16,173.2,0,0.0,-1,0.0,0.0,0,1.68,4.3724
262363,1564151609781,1,2.37,0.93,0.33,1.39,1.08,0.84,-0.08,0.49,7,2,9,0.84,6878,10,90,44,36,972,366.0,527,465,60,122.0,128,1,301,186,47,0,0,367,-29978,-6656,366,-5.59,,,,,,,,,,,,
262383,1564151609801,4,2.37,0.93,0.33,1.4,1.08,0.9,-0.14,0.52,6,0,9,0.91,6883,10,90,44,35,966,366.0,532,464,60,123.0,128,1,298,181,47,0,0,366,-29978,3,366,-5.59,,,,,,,,,,,,
262403,1564151609821,1,2.37,0.93,0.33,1.4,1.08,0.89,-0.13,0.49,6,0,8,0.9,6883,10,90,44,36,956,365.0,528,466,60,122.0,128,1,301,186,47,0,0,364,-29302,257,365,-5.59,,,,,,,,,,,,
262423,1564151609841,-0,2.36,0.93,0.33,1.39,1.08,0.89,-0.13,0.51,6,0,8,0.9,6890,10,90,44,36,952,364.0,523,463,60,124.0,128,1,301,186,47,0,0,366,-6640,-6656,364,-5.59,,,,,,,,,,,,
262443,1564151609861,1,2.36,0.93,0.32,1.4,1.08,0.96,-0.17,0.55,5,-2,8,0.98,6858,10,90,44,36,949,363.0,530,464,60,124.0,128,1,301,186,47,0,0,366,-6640,0,364,-5.59,44.680923,10.024874,36.56,173.2,0,0.0,-1,0.0,0.0,0,1.68,4.3741
262463,1564151609881,1,2.36,0.94,0.33,1.4,1.07,0.83,-0.08,0.46,6,1,7,0.83,6860,10,90,44,36,943,362.0,513,466,60,124.0,132,1,301,186,48,0,0,365,4104,770,362,-5.59,,,,,,,,,,,,
262483,1564151609901,3,2.35,0.93,0.33,1.39,1.08,0.91,-0.1,0.51,6,-2,7,0.92,6860,10,90,44,36,936,361.0,525,465,60,123.0,132,1,301,186,48,0,0,365,2060,257,361,-5.59,,,,,,,,,,,,
262503,1564151609921,1,2.35,0.93,0.33,1.4,1.07,0.81,-0.06,0.45,6,-1,6,0.81,6835,10,90,44,36,932,360.0,523,466,60,123.0,132,1,301,186,48,0,0,364,3302,0,360,-5.59,,,,,,,,,,,,
262523,1564151609941,3,2.35,0.93,0.33,1.4,1.07,0.87,-0.1,0.48,5,-1,6,0.88,6808,10,90,44,36,929,360.0,512,462,60,124.0,132,1,301,186,48,0,0,362,2060,-6405,360,-5.59,,,,,,,,,,,,
262543,1564151609961,-0,2.35,0.93,0.33,1.4,1.07,0.85,-0.07,0.41,5,-0,6,0.85,6835,10,90,44,37,925,360.0,521,467,60,121.0,132,1,304,192,48,0,0,364,3302,-6656,359,-5.59,44.68092,10.024861,36.23,173.2,0,0.0,-1,0.0,0.0,0,1.68,4.3757
262563,1564151609981,-2,2.36,0.93,0.33,1.4,1.07,0.84,-0.04,0.46,5,-1,6,0.84,6815,10,90,44,37,924,357.0,518,463,60,124.0,136,1,304,192,49,0,0,362,3302,0,357,-5.59,,,,,,,,,,,,
262583,1564151609995,1,2.34,0.94,0.33,1.4,1.07,0.87,-0.01,0.44,5,-1,7,0.87,6778,10,90,44,37,922,357.0,516,462,60,123.0,136,1,304,192,49,0,0,362,3302,0,357,-5.59,,,,,,,,,,,,
262603,1564151610015,-0,2.35,0.93,0.32,1.4,1.07,0.78,0.02,0.5,5,1,6,0.78,6776,10,90,44,37,922,357.0,510,467,60,125.0,136,1,304,192,49,0,0,362,3183,3082,357,-5.59,,,,,,,,,,,,
262623,1564151610035,0,2.35,0.93,0.33,1.4,1.07,0.9,0.01,0.49,4,-2,6,0.9,6778,10,90,44,37,921,357.0,514,465,60,123.0,136,1,304,192,49,0,0,361,28553,0,356,-5.59,,,,,,,,,,,,
262643,1564151610055,-0,2.34,0.92,0.33,1.4,1.07,0.82,0.01,0.57,5,-3,4,0.82,6778,10,90,44,37,919,355.0,519,465,60,124.0,136,1,304,192,49,0,0,360,3183,-1268,355,-5.59,44.680916,10.024851,35.95,173.2,0,0.0,-1,0.0,0.0,0,1.69,4.3774
262663,1564151610075,1,2.34,0.93,0.33,1.4,1.07,0.93,0.05,0.49,4,-3,4,0.94,6737,10,90,44,37,918,357.0,522,462,60,123.0,137,1,304,192,49,0,0,358,-30454,3082,357,-5.59,,,,,,,,,,,,
262683,1564151610102,-0,2.34,0.93,0.33,1.4,1.08,0.86,0.02,0.46,4,-2,4,0.86,6725,10,90,44,37,917,354.0,511,462,60,125.0,137,1,304,192,49,0,0,358,-30454,230,354,-5.59,,,,,,,,,,,,
262703,1564151610122,2,2.34,0.93,0.33,1.4,1.08,0.91,-0.03,0.45,4,-3,4,0.91,6756,10,90,44,37,914,356.0,520,466,60,123.0,137,1,304,197,49,0,0,360,-30454,3082,354,-5.59,,,,,,,,,,,,
262723,1564151610142,-2,2.34,0.93,0.33,1.39,1.08,0.87,0.01,0.46,4,-2,4,0.87,6749,10,90,44,37,911,354.0,517,464,60,125.0,137,1,304,192,49,0,0,359,28553,-6458,354,-5.59,,,,,,,,,,,,
262743,1564151610162,2,2.34,0.93,0.33,1.39,1.07,0.9,-0.01,0.46,3,-3,4,0.9,6701,9,90,44,37,908,353.0,525,462,60,123.0,137,1,304,197,49,0,0,359,2811,-6458,353,-5.59,44.680912,10.024839,35.64,173.2,0,0.0,-1,0.0,0.0,0,1.69,4.379
262763,1564151610182,0,2.34,0.93,0.33,1.39,1.08,0.82,0.04,0.5,4,-1,3,0.82,6696,8,90,44,37,904,353.0,505,464,60,124.0,135,1,304,192,48,0,0,72,-1246,-14707,353,-5.59,,,,,,,,,,,,
262783,1564151610202,-1,2.34,0.93,0.33,1.39,1.08,0.91,0.05,0.44,3,-2,4,0.91,6684,7,90,44,37,902,353.0,514,467,60,123.0,135,1,304,192,48,0,0,353,2811,-14707,353,-5.59,,,,,,,,,,,,
262803,1564151610222,3,2.34,0.93,0.33,1.39,1.07,0.85,0.01,0.57,3,-3,3,0.85,6679,6,90,44,36,899,353.0,510,462,60,124.0,135,1,301,186,48,0,0,355,2811,-1268,353,-5.59,,,,,,,,,,,,
262823,1564151610242,-3,2.34,0.93,0.33,1.4,1.07,0.86,0.04,0.44,4,-2,3,0.86,6618,6,90,44,36,896,351.0,520,465,60,122.0,135,1,301,186,48,0,0,356,-1246,3082,351,-5.59,,,,,,,,,,,,
262843,1564151610262,3,2.34,0.92,0.33,1.39,1.08,0.92,-0.02,0.46,3,-3,3,0.92,6578,6,90,44,35,895,350.0,502,462,60,125.0,135,1,298,181,48,0,0,353,-30438,3302,349,-5.59,44.680908,10.024827,35.34,173.2,0,0.0,-1,0.0,0.0,0,1.69,4.3807
262863,1564151610282,-0,2.33,0.94,0.33,1.4,1.08,0.88,-0.0,0.48,3,-2,2,0.88,6581,6,90,44,35,895,349.0,497,462,60,125.0,128,1,298,107,45,0,0,353,-30438,2060,349,-5.59,,,,,,,,,,,,
262883,1564151610302,1,2.33,0.93,0.33,1.4,1.07,0.92,-0.04,0.44,2,-3,3,0.92,6595,5,90,44,35,893,349.0,505,464,60,123.0,128,1,298,181,45,0,0,353,-10554,2060,349,-5.59,,,,,,,,,,,,
262903,1564151610322,2,2.34,0.93,0.33,1.4,1.07,0.83,0.04,0.46,3,-2,3,0.83,6578,6,90,44,34,892,347.0,505,462,60,125.0,128,1,295,175,45,0,0,352,6870,2811,348,-5.59,,,,,,,,,,,,
262923,1564151610342,-2,2.34,0.93,0.33,1.39,1.07,0.94,0.05,0.46,2,-2,3,0.94,6569,0,90,44,35,892,346.0,502,465,60,124.0,128,1,298,107,45,0,0,349,6870,-1246,346,-5.59,,,,,,,,,,,,
262943,1564151610362,1,2.33,0.93,0.34,1.39,1.08,0.89,-0.02,0.49,2,-2,3,0.89,6549,0,90,44,34,891,346.0,506,463,60,124.0,128,1,295,175,45,0,0,352,-14714,28553,346,-5.59,44.680904,10.024817,35.12,173.2,0,0.0,-1,0.0,0.0,0,1.69,4.3824
262963,1564151610382,-1,2.34,0.93,0.33,1.4,1.07,0.77,0.07,0.45,2,2,3,0.78,6526,0,90,44,34,891,345.0,493,465,60,124.0,124,1,295,175,43,0,0,351,-31206,2811,345,-5.59,,,,,,,,,,,,
262983,1564151610402,1,2.33,0.93,0.33,1.39,1.07,0.9,0.04,0.39,2,0,3,0.9,6533,0,90,44,34,888,344.0,497,467,60,123.0,124,1,295,175,43,0,0,347,6668,-30454,344,-5.59,,,,,,,,,,,,
263003,1564151610422,2,2.34,0.93,0.33,1.4,1.08,0.85,0.0,0.43,2,-2,3,0.85,6521,0,90,44,34,887,343.0,503,462,60,123.0,124,1,295,175,43,0,0,346,-122,-30454,343,-5.59,,,,,,,,,,,,
263023,1564151610442,-0,2.33,0.93,0.33,1.4,1.07,0.77,0.02,0.47,2,-0,1,0.77,6494,0,90,44,34,887,342.0,498,463,60,123.0,124,1,295,175,43,0,0,346,-122,2811,341,-5.59,,,,,,,,,,,,
263043,1564151610462,-1,2.32,0.92,0.33,1.4,1.07,0.89,0.05,0.37,2,-1,1,0.89,6503,0,90,44,34,884,342.0,501,462,60,122.0,124,1,295,175,43,0,0,343,-31222,2811,342,-5.59,44.680904,10.024805,34.81,173.2,0,0.0,-1,0.0,0.0,0,1.69,4.384
263063,1564151610482,2,2.33,0.92,0.33,1.4,1.07,0.92,0.05,0.37,2,-1,2,0.92,6443,0,90,44,34,883,341.0,506,463,60,123.0,122,1,295,175,42,0,0,351,-31222,-10554,341,-5.59,,,,,,,,,,,,
263083,1564151610502,3,2.34,0.94,0.33,1.4,1.07,0.85,0.04,0.41,2,-0,1,0.85,6427,0,90,44,33,882,340.0,490,462,60,124.0,122,1,292,170,42,0,0,343,-31222,6668,340,-5.59,,,,,,,,,,,,
263103,1564151610522,-1,2.33,0.93,0.33,1.4,1.07,0.87,0.03,0.39,2,-1,1,0.87,6405,0,90,44,34,882,338.0,486,467,60,123.0,122,1,295,101,42,0,0,342,13,-14714,338,-5.59,,,,,,,,,,,,
263123,1564151610542,1,2.33,0.93,0.33,1.4,1.07,0.97,-0.02,0.42,1,-4,1,0.97,6386,0,90,44,34,880,339.0,488,465,60,123.0,122,1,295,175,42,0,0,343,13,-122,337,-5.59,,,,,,,,,,,,
263143,1564151610562,2,2.33,0.93,0.32,1.39,1.08,0.85,0.03,0.44,2,-3,1,0.85,6375,0,90,44,34,877,336.0,489,464,60,124.0,122,1,295,175,42,0,0,341,3346,-10554,336,-5.59,44.680897,10.024794,34.02,173.2,0,0.0,-1,0.0,0.0,0,1.69,4.3857
263163,1564151610582,3,2.33,0.93,0.33,1.4,1.08,0.78,0.08,0.45,2,-0,1,0.78,6351,0,90,44,33,876,335.0,488,463,60,125.0,122,1,292,170,41,0,0,338,-6528,6668,335,-5.59,,,,,,,,,,,,
263183,1564151610602,-1,2.34,0.93,0.33,1.39,1.08,0.83,0.12,0.43,2,-0,1,0.84,6338,0,90,44,34,875,333.0,490,463,60,124.0,122,1,295,175,41,0,0,339,-32559,2560,333,-5.59,,,,,,,,,,,,
263203,1564151610622,-1,2.32,0.93,0.33,1.39,1.07,0.95,0.08,0.46,1,-3,1,0.95,6291,0,90,44,34,874,332.0,486,465,60,124.0,122,1,295,101,41,0,0,337,175,-31222,332,-5.59,,,,,,,,,,,,
263223,1564151610642,0,2.33,0.93,0.33,1.39,1.07,0.9,0.02,0.48,1,-2,1,0.9,6279,0,90,44,34,874,332.0,486,465,60,123.0,122,1,295,101,41,0,0,337,-20736,2560,331,-5.59,,,,,,,,,,,,
263243,1564151610662,3,2.33,0.92,0.33,1.4,1.07,0.73,0.04,0.51,1,0,1,0.74,6277,0,90,44,34,876,331.0,481,463,60,124.0,122,1,295,175,41,0,0,335,175,-6528,331,-5.59,44.680893,10.024783,33.9,173.2,0,0.0,-1,0.0,0.0,0,1.69,4.3874
263263,1564151610682,3,2.33,0.93,0.33,1.4,1.07,0.68,0.11,0.5,2,2,1,0.69,6262,0,90,44,34,877,330.0,478,466,60,125.0,124,1,295,175,41,0,0,336,-20736,13,329,-5.59,,,,,,,,,,,,
263283,1564151610702,-0,2.33,0.92,0.33,1.39,1.08,0.74,0.12,0.42,2,2,1,0.75,6214,0,90,44,34,880,328.0,475,467,60,124.0,124,1,295,175,41,0,0,331,170,4838,327,-5.59,,,,,,,,,,,,
263303,1564151610722,-1,2.33,0.93,0.33,1.4,1.07,0.87,0.1,0.4,1,0,1,0.87,6225,0,90,44,34,883,327.0,477,468,60,124.0,124,1,295,175,41,0,0,332,-22016,-32559,327,-5.59,,,,,,,,,,,,
263323,1564151610742,-2,2.34,0.93,0.33,1.39,1.08,0.98,0.07,0.39,1,-4,1,0.99,6196,0,90,44,34,884,325.0,476,468,60,123.0,124,1,295,101,41,0,0,332,-23296,-6528,325,-5.59,,,,,,,,,,,,
263343,1564151610762,-0,2.33,0.93,0.32,1.39,1.08,1.01,0.1,0.38,1,-6,1,1.01,6159,0,90,44,34,886,325.0,473,464,60,123.0,124,1,295,175,41,0,0,329,-23296,4838,326,-5.59,44.680889,10.024772,33.3,173.2,0,0.0,-1,0.0,0.0,0,1.69,4.389
263363,1564151610782,2,2.34,0.93,0.33,1.4,1.07,0.94,0.05,0.34,1,-6,0,0.95,6167,0,90,44,34,887,324.0,472,463,60,124.0,123,1,295,175,40,0,0,331,-24576,-20736,324,-5.59,,,,,,,,,,,,
263383,1564151610798,2,2.33,0.93,0.33,1.4,1.07,0.82,0.02,0.33,1,-5,-0,0.83,6133,0,90,44,34,889,323.0,476,461,60,124.0,123,1,295,181,40,0,0,329,155,170,323,-5.59,,,,,,,,,,,,
263403,1564151610818,2,2.33,0.93,0.33,1.4,1.07,0.69,0.04,0.33,1,-4,0,0.69,6103,0,90,44,34,890,322.0,472,463,60,125.0,123,1,295,175,40,0,0,326,-25856,-23296,322,-5.59,,,,,,,,,,,,
263423,1564151610838,1,2.34,0.93,0.33,1.4,1.07,0.53,0.05,0.3,2,-1,-0,0.53,6137,0,91,44,34,890,321.0,468,460,60,124.0,123,1,295,175,40,0,0,326,-27136,-23296,321,-5.59,,,,,,,,,,,,
263443,1564151610858,3,2.33,0.93,0.33,1.4,1.07,0.46,0.09,0.26,3,2,-1,0.46,6095,0,90,44,34,890,320.0,465,462,60,124.0,123,1,295,181,40,0,0,324,-27136,160,320,-5.59,44.680885,10.024762,32.72,173.2,0,0.0,-1,0.0,0.0,0,1.69,4.3907
263463,1564151610878,3,2.33,0.93,0.33,1.4,1.07,0.43,0.13,0.22,3,4,-0,0.45,6056,0,90,44,34,890,318.0,463,463,60,124.0,125,1,295,101,40,0,0,322,145,-24576,319,-5.59,,,,,,,,,,,,
263483,1564151610902,3,2.33,0.93,0.33,1.4,1.08,0.44,0.17,0.2,3,5,-1,0.47,6048,0,91,44,35,889,319.0,460,462,60,124.0,125,1,298,181,40,0,0,324,140,-24576,319,-5.59,,,,,,,,,,,,
263503,1564151610922,1,2.34,0.93,0.33,1.4,1.07,0.45,0.18,0.19,3,5,-0,0.49,5982,0,91,44,35,888,318.0,456,462,60,124.0,125,1,297,180,40,0,0,322,135,-27136,317,-5.59,,,,,,,,,,,,
263523,1564151610942,3,2.33,0.93,0.33,1.4,1.07,0.42,0.21,0.18,4,7,-0,0.47,5929,0,90,44,35,887,316.0,452,461,60,123.0,125,1,294,180,40,0,0,319,135,155,316,-5.59,,,,,,,,,,,,
263543,1564151610962,2,2.34,0.93,0.33,1.4,1.07,0.38,0.25,0.16,4,9,-1,0.46,5952,0,91,44,36,887,314.0,448,465,60,125.0,125,1,298,180,40,0,0,319,130,145,314,181.28,44.680885,10.024752,32.19,173.2,0,0.0,-1,0.0,0.0,0,1.69,4.3924
263563,1564151610982,3,2.34,0.93,0.33,1.4,1.08,0.29,0.26,0.17,4,10,-0,0.39,5916,0,91,44,36,888,313.0,452,463,60,124.0,130,1,295,185,41,0,0,314,-32256,150,313,-5.59,,,,,,,,,,,,
263583,1564151610994,2,2.34,0.93,0.33,1.4,1.08,0.17,0.24,0.17,4,12,0,0.29,5886,0,90,44,36,889,311.0,457,463,60,123.0,130,1,294,191,41,0,0,315,32000,140,311,-5.59,,,,,,,,,,,,
263603,1564151611014,2,2.33,0.93,0.33,1.41,1.07,0.09,0.19,0.16,4,13,-1,0.21,5885,0,91,44,37,890,310.0,455,463,60,122.0,130,1,297,191,41,0,0,315,120,-29696,309,-5.59,,,,,,,,,,,,
263623,1564151611034,-1,2.34,0.93,0.33,1.4,1.07,0.07,0.17,0.13,4,11,-0,0.19,5855,0,91,44,37,892,308.0,451,465,60,123.0,130,1,295,191,41,0,0,312,120,130,307,-5.59,,,,,,,,,,,,
263643,1564151611054,-1,2.34,0.93,0.33,1.4,1.08,0.14,0.18,0.13,4,9,-0,0.23,5837,0,90,44,37,893,308.0,447,467,60,123.0,130,1,294,191,41,0,0,310,30720,32000,308,-5.59,44.680882,10.024741,31.75,173.3,0,0.0,-1,0.0,0.0,0,1.69,4.3941
263663,1564151611074,-0,2.34,0.93,0.33,1.4,1.07,0.33,0.17,0.18,3,6,-1,0.37,5830,0,91,44,38,892,306.0,450,465,60,123.0,136,1,296,196,42,0,0,311,29440,125,306,-5.59,,,,,,,,,,,,
263683,1564151611103,-2,2.34,0.93,0.33,1.4,1.07,0.5,0.13,0.22,3,3,-1,0.52,5774,0,91,44,38,891,305.0,450,462,60,123.0,136,1,293,195,42,0,0,306,110,30720,305,-5.59,,,,,,,,,,,,
263703,1564151611123,2,2.32,0.93,0.33,1.4,1.08,0.64,0.15,0.24,3,3,-1,0.65,5719,0,91,44,38,890,303.0,438,465,60,123.0,136,1,290,195,42,0,0,310,26880,-32256,303,-5.59,,,,,,,,,,,,
263723,1564151611143,1,2.33,0.93,0.34,1.4,1.08,0.59,0.17,0.32,3,5,-1,0.62,5688,0,91,44,39,889,303.0,432,462,60,124.0,136,1,291,201,42,0,0,306,100,32000,303,-5.59,,,,,,,,,,,,
263743,1564151611163,1,2.33,0.93,0.33,1.4,1.07,0.44,0.1,0.32,3,8,-1,0.45,5678,0,91,44,39,888,300.0,437,462,60,124.0,136,1,290,201,42,0,0,304,25600,29440,300,-5.59,44.680878,10.024731,31.03,173.3,0,0.0,-1,0.0,0.0,0,1.7,4.3957
263763,1564151611183,-0,2.33,0.93,0.33,1.41,1.07,0.43,0.12,0.28,3,6,0,0.45,5659,0,91,44,40,889,300.0,442,466,60,123.0,142,1,294,202,43,0,0,304,95,115,300,-5.59,,,,,,,,,,,,
263783,1564151611201,0,2.33,0.93,0.33,1.39,1.08,0.59,0.11,0.29,3,3,1,0.6,5671,0,91,44,41,890,298.0,437,467,60,122.0,142,1,300,202,43,0,0,303,90,105,298,-5.59,,,,,,,,,,,,
263803,1564151611221,2,2.32,0.93,0.33,1.4,1.07,0.68,0.12,0.32,2,2,0,0.7,5649,0,91,44,41,893,298.0,431,463,60,123.0,142,1,298,204,43,0,0,300,90,105,298,-5.59,,,,,,,,,,,,
263823,1564151611241,1,2.32,0.94,0.33,1.41,1.08,0.6,0.06,0.42,3,5,-0,0.61,5607,0,91,44,41,897,295.0,431,462,60,123.0,142,1,295,204,43,0,0,298,23040,26880,294,-5.59,,,,,,,,,,,,
263843,1564151611261,1,2.32,0.93,0.33,1.4,1.08,0.62,0.1,0.45,3,4,-0,0.62,5583,0,91,44,42,899,295.0,427,463,60,122.0,142,1,298,204,43,0,0,299,23040,25600,294,-5.59,44.680874,10.024721,30.2,173.3,0,0.0,-1,0.0,0.0,0,1.7,4.3974
263863,1564151611281,1,2.33,0.93,0.33,1.4,1.08,0.76,0.05,0.5,2,2,-1,0.76,5555,0,91,44,42,901,293.0,416,466,60,124.0,146,1,296,204,43,0,0,297,80,90,293,-5.59,,,,,,,,,,,,
263883,1564151611301,1,2.33,0.94,0.33,1.41,1.07,0.71,0.07,0.52,2,3,-1,0.72,5529,0,91,44,42,903,293.0,424,465,60,122.0,146,1,294,206,43,0,0,297,20480,90,293,-5.59,,,,,,,,,,,,
263903,1564151611321,-1,2.33,0.93,0.33,1.41,1.07,0.67,0.08,0.42,2,4,-1,0.67,5493,0,91,44,43,905,291.0,429,462,60,123.0,146,1,296,206,43,0,0,295,0,95,291,-5.59,,,,,,,,,,,,
263923,1564151611341,3,2.33,0.93,0.33,1.4,1.08,0.8,0.09,0.46,2,2,-1,0.81,5513,0,91,44,44,905,290.0,422,464,60,122.0,146,1,302,206,43,0,0,294,0,85,290,-5.59,,,,,,,,,,,,
263943,1564151611361,0,2.33,0.94,0.33,1.39,1.08,0.73,0.09,0.46,2,2,-0,0.73,5474,0,91,44,44,903,289.0,421,463,60,123.0,146,1,299,208,43,0,0,295,41,80,287,-5.59,44.68087,10.024712,29.79,173.3,0,0.0,-1,0.0,0.0,0,1.7,4.399
263963,1564151611381,-1,2.33,0.93,0.33,1.4,1.07,0.68,0.11,0.39,2,1,-0,0.69,5433,0,91,44,44,901,287.0,416,464,60,122.0,150,1,295,208,43,0,0,290,-16896,0,287,-5.59,,,,,,,,,,,,
263983,1564151611401,2,2.32,0.93,0.33,1.41,1.07,0.81,0.1,0.4,1,-0,-1,0.82,5444,0,91,44,45,898,284.0,413,461,60,123.0,150,1,300,209,43,0,0,291,250,0,284,-5.59,,,,,,,,,,,,
264003,1564151611421,-1,2.33,0.93,0.33,1.4,1.08,0.7,0.05,0.41,1,4,-1,0.7,5417,0,91,44,45,896,284.0,415,465,60,124.0,150,1,299,209,43,0,0,289,-1529,20480,284,-5.59,,,,,,,,,,,,
264023,1564151611441,-1,2.33,0.93,0.34,1.41,1.07,0.75,0.07,0.42,1,2,-0,0.75,5422,0,91,44,45,892,285.0,420,466,60,121.0,150,1,297,209,43,0,0,287,-1529,41,285,-5.59,,,,,,,,,,,,
264043,1564151611461,1,2.32,0.94,0.33,1.4,1.08,0.83,0.09,0.47,1,1,-1,0.83,5374,0,91,44,45,889,282.0,415,466,60,124.0,150,1,295,209,43,0,0,286,24064,10686,282,-5.59,44.68087,10.024702,28.91,173.3,0,0.0,-1,0.0,0.0,0,1.7,4.4007
264063,1564151611481,-1,2.32,0.93,0.33,1.4,1.08,0.73,0.09,0.43,1,2,-0,0.74,5340,0,91,44,46,888,282.0,416,465,60,122.0,148,1,296,211,42,0,0,287,250,250,282,-5.59,,,,,,,,,,,,
264083,1564151611501,2,2.32,0.93,0.33,1.41,1.07,0.85,0.12,0.49,1,1,-1,0.86,5307,0,91,44,46,886,281.0,403,465,60,123.0,148,1,293,211,42,0,0,286,-1534,250,281,-5.59,,,,,,,,,,,,
264103,1564151611521,0,2.32,0.94,0.33,1.4,1.08,0.79,0.09,0.39,1,3,-0,0.8,5256,0,91,44,47,884,281.0,419,468,60,122.0,148,1,293,213,42,0,0,282,630,250,281,-5.59,,,,,,,,,,,,
264123,1564151611541,2,2.32,0.93,0.33,1.41,1.07,0.92,0.12,0.44,1,-0,-0,0.92,5257,0,91,44,47,879,279.0,403,460,60,123.0,148,1,293,213,42,0,0,280,30208,250,279,-5.59,,,,,,,,,,,,
264143,1564151611561,-2,2.33,0.94,0.33,1.4,1.08,0.8,0.1,0.34,1,-0,2,0.81,5289,0,91,44,47,876,279.0,406,466,60,122.0,148,1,296,213,42,0,0,281,-1527,250,279,-5.59,44.680866,10.024693,28.36,173.3,0,0.0,-1,0.0,0.0,0,1.7,4.4024
264163,1564151611581,2,2.33,0.93,0.34,1.4,1.08,0.88,0.17,0.38,1,-2,1,0.89,5246,0,91,44,47,874,277.0,396,462,60,121.0,154,1,292,213,43,0,0,281,250,-1534,276,-5.59,,,,,,,,,,,,
264183,1564151611601,-1,2.32,0.93,0.34,1.41,1.08,0.77,0.13,0.3,1,0,1,0.78,5224,0,91,45,48,872,275.0,402,462,60,122.0,154,1,294,215,43,0,0,278,250,-1534,275,-5.59,,,,,,,,,,,,
264203,1564151611621,2,2.32,0.94,0.33,1.4,1.08,0.88,0.2,0.35,1,-1,1,0.9,5219,0,91,45,48,871,274.0,396,463,60,124.0,154,1,293,215,43,0,0,279,-1281,250,274,414.87,,,,,,,,,,,,
264223,1564151611641,-1,2.33,0.93,0.34,1.41,1.07,0.78,0.17,0.31,1,-0,2,0.8,5208,0,91,45,48,871,273.0,401,465,60,122.0,154,1,292,218,43,0,0,277,-1,30208,273,414.87,,,,,,,,,,,,
264243,1564151611661,-0,2.33,0.93,0.33,1.41,1.08,0.85,0.23,0.44,1,-2,1,0.88,5152,0,91,45,48,873,271.0,392,463,60,123.0,154,1,287,215,43,0,0,277,-1,28160,271,414.87,44.680866,10.024683,27.97,173.3,0,0.0,-1,0.0,0.0,0,1.7,4.404
264263,1564151611681,-0,2.32,0.94,0.33,1.41,1.08,0.86,0.22,0.36,1,-2,2,0.89,5118,0,91,45,49,873,271.0,394,467,60,124.0,154,1,288,218,42,0,0,274,-1281,250,271,414.87,,,,,,,,,,,,
264283,1564151611701,-1,2.32,0.93,0.33,1.41,1.07,0.84,0.2,0.47,1,-1,-0,0.87,5106,0,91,45,49,874,271.0,394,464,60,123.0,154,1,287,221,42,0,0,277,-1,2414,271,-5.59,,,,,,,,,,,,
264303,1564151611721,2,2.32,0.93,0.33,1.4,1.08,0.95,0.17,0.41,1,-4,0,0.97,5071,0,91,45,49,873,270.0,384,462,60,124.0,154,1,284,146,42,0,0,273,-1,250,270,-5.59,,,,,,,,,,,,
264323,1564151611741,1,2.31,0.94,0.33,1.41,1.07,0.84,0.15,0.4,1,-2,0,0.85,5074,0,91,45,50,872,269.0,388,464,60,122.0,154,1,289,221,42,0,0,272,-1,28160,269,-5.59,,,,,,,,,,,,
264343,1564151611761,-0,2.32,0.93,0.34,1.4,1.08,0.91,0.19,0.41,-0,-2,-0,0.93,5062,0,91,45,50,870,267.0,394,465,60,124.0,154,1,288,221,42,0,0,270,-1,250,266,181.28,44.680862,10.024674,27.44,173.3,0,0.0,-1,0.0,0.0,0,1.7,4.4057
264363,1564151611781,3,2.32,0.93,0.34,1.4,1.08,0.92,0.14,0.33,-0,-4,0,0.93,5055,0,91,45,50,869,265.0,385,462,60,123.0,158,1,287,149,42,0,0,267,-1,-1,264,-5.59,,,,,,,,,,,,
264383,1564151611801,-1,2.33,0.93,0.34,1.41,1.08,0.83,0.13,0.35,-0,-2,-0,0.84,5073,0,91,45,50,869,263.0,387,465,60,123.0,158,1,289,221,42,0,0,267,-1,-1,262,-5.59,,,,,,,,,,,,
264403,1564151611821,1,2.32,0.94,0.33,1.41,1.08,0.93,0.17,0.35,-1,-3,-1,0.94,5075,0,91,45,51,869,264.0,391,463,60,124.0,158,1,293,221,42,0,0,269,-1,-1,262,181.28,,,,,,,,,,,,
264423,1564151611841,0,2.32,0.94,0.33,1.41,1.07,0.89,0.16,0.25,-0,-3,0,0.91,5021,0,91,45,51,872,263.0,391,466,60,123.0,158,1,288,223,42,0,0,268,-1,-1,262,-5.59,,,,,,,,,,,,
264443,1564151611861,-0,2.32,0.93,0.33,1.4,1.08,0.8,0.13,0.33,-0,-2,-0,0.81,4970,0,91,45,51,875,262.0,381,466,60,122.0,158,1,283,222,42,0,0,266,-1,-1,262,-5.59,44.680859,10.024666,27.02,173.3,0,0.0,-1,0.0,0.0,0,1.7,4.4074
264463,1564151611881,1,2.32,0.93,0.33,1.4,1.08,0.91,0.17,0.33,-1,-1,-1,0.93,4974,0,91,45,51,878,262.0,385,461,60,125.0,160,1,284,222,42,0,0,267,-1,-1,260,181.28,,,,,,,,,,,,
264483,1564151611903,4,2.32,0.93,0.33,1.41,1.08,0.9,0.17,0.28,-0,-1,-0,0.92,4923,0,91,45,51,880,262.0,379,466,60,124.0,160,1,277,150,42,0,0,265,-1,-1,260,-5.59,,,,,,,,,,,,
264503,1564151611923,-2,2.33,0.93,0.34,1.41,1.08,0.81,0.13,0.33,0,1,-1,0.82,4900,0,91,45,52,884,260.0,382,466,60,122.0,160,1,279,225,42,0,0,265,-41,-1,259,-5.59,,,,,,,,,,,,
264523,1564151611943,-2,2.33,0.93,0.33,1.4,1.08,0.91,0.16,0.41,0,-1,-1,0.92,4882,0,91,45,51,888,259.0,378,462,60,122.0,160,1,273,221,42,0,0,262,14337,-1,258,-5.59,,,,,,,,,,,,
264543,1564151611963,2,2.32,0.93,0.33,1.41,1.08,0.99,0.13,0.41,0,-3,-1,1.0,4847,0,91,45,52,891,258.0,364,464,60,123.0,160,1,272,220,42,0,0,260,506,-1,258,-5.59,44.680855,10.024657,26.28,173.3,0,0.0,-1,0.0,0.0,0,1.7,4.409
264563,1564151611983,3,2.33,0.93,0.34,1.41,1.08,0.89,0.14,0.33,0,-1,0,0.91,4890,0,91,45,52,893,257.0,369,464,60,124.0,159,1,278,152,41,0,0,261,-1,-1,257,-5.59,,,,,,,,,,,,
264583,1564151611995,-0,2.32,0.93,0.33,1.4,1.08,0.83,0.13,0.31,1,1,-1,0.84,4882,0,91,45,52,895,255.0,374,471,60,122.0,159,1,277,224,41,0,0,258,-1,-10440,255,-5.59,,,,,,,,,,,,
264603,1564151612015,-1,2.32,0.93,0.34,1.41,1.07,0.89,0.18,0.41,1,-1,-0,0.91,4849,0,91,45,52,897,253.0,369,460,60,123.0,159,1,273,223,41,0,0,257,-1,-1,253,-5.59,,,,,,,,,,,,
264623,1564151612035,1,2.34,0.94,0.33,1.41,1.08,0.95,0.14,0.43,1,-3,0,0.96,4832,0,91,45,52,900,253.0,369,468,60,125.0,159,1,270,220,41,0,0,257,10818,-10440,253,-5.59,,,,,,,,,,,,
264643,1564151612055,3,2.34,0.94,0.34,1.41,1.08,0.94,0.12,0.41,1,-3,-0,0.95,4780,0,92,45,52,902,252.0,359,463,60,123.0,159,1,264,222,41,0,0,256,10818,-1,252,-5.59,44.680855,10.024648,25.85,173.3,0,0.0,-1,0.0,0.0,0,1.7,4.4107
264663,1564151612075,-1,2.35,0.93,0.33,1.4,1.08,0.82,0.08,0.39,1,-1,-0,0.83,4767,0,91,45,52,903,252.0,365,465,60,122.0,158,1,262,222,40,0,0,255,16896,14337,252,-5.59,,,,,,,,,,,,
264683,1564151612102,-1,2.35,0.93,0.34,1.41,1.08,0.8,0.05,0.38,1,0,0,0.8,4778,0,91,45,51,903,251.0,366,468,60,122.0,158,1,260,222,40,0,0,253,16896,-1281,251,-5.59,,,,,,,,,,,,
264703,1564151612122,-2,2.35,0.93,0.34,1.41,1.08,0.85,0.11,0.46,1,-1,0,0.85,4734,0,91,45,51,904,249.0,358,458,60,124.0,158,1,255,219,40,0,0,253,250,-1,249,-5.59,,,,,,,,,,,,
264723,1564151612142,-1,2.35,0.93,0.33,1.4,1.08,0.92,0.14,0.5,1,-3,0,0.93,4732,0,92,45,52,903,249.0,355,463,60,124.0,158,1,258,222,40,0,0,252,250,-1,249,-5.59,,,,,,,,,,,,
264743,1564151612162,1,2.35,0.94,0.34,1.41,1.08,0.95,0.15,0.47,2,-3,1,0.96,4667,0,92,45,52,902,248.0,354,462,60,125.0,158,1,250,221,40,0,0,254,10812,-1,248,181.28,44.680851,10.02464,25.49,173.3,0,0.0,-1,0.0,0.0,0,1.7,4.4124
264763,1564151612182,2,2.35,0.93,0.34,1.4,1.08,0.94,0.14,0.44,2,-3,1,0.95,4657,0,92,45,52,901,247.0,358,463,60,123.0,153,1,249,221,38,0,0,252,10812,-214,247,-5.59,,,,,,,,,,,,
264783,1564151612202,1,2.36,0.93,0.34,1.41,1.07,0.92,0.12,0.38,2,-3,1,0.92,4643,0,92,45,51,900,246.0,351,468,60,123.0,153,1,247,221,38,0,0,249,15360,-1,246,-5.59,,,,,,,,,,,,
264803,1564151612222,2,2.36,0.93,0.34,1.4,1.08,0.88,0.13,0.32,2,-0,1,0.89,4678,0,92,45,52,900,245.0,357,467,60,123.0,153,1,251,221,38,0,0,250,23482,-1494,244,-5.59,,,,,,,,,,,,
264823,1564151612242,-0,2.36,0.93,0.34,1.41,1.07,0.82,0.14,0.25,2,1,1,0.83,4652,0,92,45,51,899,245.0,355,462,60,121.0,153,1,245,218,38,0,0,247,23482,16896,245,-5.59,,,,,,,,,,,,
264843,1564151612262,-2,2.36,0.93,0.34,1.41,1.08,0.75,0.14,0.26,2,2,1,0.76,4629,0,91,45,51,896,243.0,360,470,60,122.0,153,1,243,217,38,0,0,246,-17920,16896,243,-5.59,44.680847,10.024632,24.97,173.3,0,0.0,-1,0.0,0.0,0,1.7,4.4141
264863,1564151612282,0,2.36,0.94,0.34,1.41,1.08,0.77,0.14,0.32,2,2,1,0.78,4619,0,92,45,51,893,242.0,355,464,60,122.0,156,1,241,217,38,0,0,245,-1484,15360,242,-5.59,,,,,,,,,,,,
264883,1564151612302,-2,2.37,0.93,0.34,1.4,1.08,0.78,0.16,0.37,2,2,1,0.8,4604,0,91,45,52,890,242.0,355,460,60,123.0,156,1,243,221,38,0,0,244,13468,15360,242,-5.59,,,,,,,,,,,,
264903,1564151612322,-0,2.37,0.94,0.34,1.4,1.08,0.85,0.15,0.46,2,1,1,0.86,4557,0,92,45,52,887,242.0,357,462,60,123.0,156,1,236,148,38,0,0,244,13468,250,242,-5.59,,,,,,,,,,,,
264923,1564151612342,-1,2.37,0.93,0.33,1.41,1.08,0.89,0.14,0.52,2,-1,1,0.9,4513,0,92,45,52,884,241.0,347,464,60,124.0,156,1,231,147,38,0,0,242,-25600,15360,241,-5.59,,,,,,,,,,,,
264943,1564151612362,-2,2.38,0.93,0.34,1.4,1.08,0.91,0.18,0.61,2,-1,0,0.93,4500,0,92,45,51,881,239.0,347,464,60,123.0,156,1,227,144,38,0,0,242,250,250,239,-5.59,44.680847,10.024624,24.26,173.3,0,0.0,-1,0.0,0.0,0,1.7,4.4157
264963,1564151612382,-1,2.38,0.93,0.33,1.4,1.07,0.96,0.2,0.69,2,-3,1,0.98,4486,0,92,45,51,881,239.0,342,461,60,124.0,150,1,225,143,36,0,0,241,-1483,-17920,238,-5.59,,,,,,,,,,,,
264983,1564151612402,-1,2.37,0.93,0.34,1.41,1.07,0.99,0.21,0.76,2,-5,1,1.01,4491,0,92,45,51,880,237.0,338,461,60,123.0,150,1,226,215,36,0,0,240,8704,250,237,-5.59,,,,,,,,,,,,
265003,1564151612422,-1,2.37,0.93,0.34,1.4,1.07,1.02,0.17,0.83,2,-6,0,1.04,4473,0,92,45,51,878,237.0,340,461,60,124.0,150,1,223,215,36,0,0,237,8704,23482,237,-5.59,,,,,,,,,,,,
265023,1564151612442,-0,2.38,0.93,0.34,1.41,1.07,1.06,0.2,0.85,2,-6,-0,1.08,4443,0,92,45,51,876,237.0,340,465,60,122.0,150,1,220,214,36,0,0,236,250,23482,237,-5.59,,,,,,,,,,,,
265043,1564151612462,-2,2.38,0.94,0.33,1.41,1.07,1.06,0.17,0.86,2,-5,0,1.07,4443,0,92,45,51,873,235.0,340,462,60,121.0,150,1,220,214,36,0,0,235,10824,-17920,235,-5.59,44.680847,10.024616,24.09,173.3,0,0.0,-1,0.0,0.0,0,1.71,4.4174
265063,1564151612482,-0,2.38,0.94,0.34,1.41,1.08,1.03,0.14,0.87,3,-5,-0,1.04,4419,0,92,45,51,870,234.0,340,470,60,120.0,153,1,217,214,36,0,0,234,18432,-25600,234,-5.59,,,,,,,,,,,,
265083,1564151612502,1,2.38,0.93,0.33,1.41,1.08,0.97,0.14,0.83,3,-4,-0,0.98,4380,0,92,45,51,868,234.0,335,467,60,122.0,153,1,212,213,36,0,0,234,250,250,232,-5.59,,,,,,,,,,,,
265103,1564151612522,3,2.38,0.93,0.34,1.4,1.08,0.94,0.13,0.78,3,-2,-1,0.95,4394,0,92,45,51,866,232.0,336,468,60,121.0,153,1,214,213,36,0,0,233,250,-1483,232,-5.59,,,,,,,,,,,,
265123,1564151612542,3,2.38,0.94,0.34,1.41,1.08,0.87,0.12,0.71,3,-0,-1,0.88,4362,0,92,45,51,866,230.0,335,468,60,123.0,153,1,211,213,36,0,0,231,10318,13602,230,-5.59,,,,,,,,,,,,
265143,1564151612562,3,2.38,0.94,0.34,1.4,1.08,0.86,0.12,0.61,3,1,0,0.87,4340,0,92,45,51,867,229.0,336,468,60,123.0,153,1,210,213,36,0,0,231,250,250,229,-5.59,44.680843,10.024609,23.69,173.3,0,0.0,-1,0.0,0.0,0,1.71,4.4191
265163,1564151612582,-0,2.39,0.93,0.34,1.41,1.07,0.87,0.11,0.54,3,1,2,0.88,4328,0,92,45,51,868,229.0,328,466,60,124.0,152,1,206,213,35,0,0,229,-1530,18432,229,-5.59,,,,,,,,,,,,
265183,1564151612602,-1,2.39,0.93,0.34,1.41,1.07,0.9,0.05,0.47,3,-1,2,0.9,4285,0,92,45,51,868,228.0,321,465,60,125.0,152,1,201,213,35,0,0,226,-1530,250,228,181.28,,,,,,,,,,,,
265203,1564151612622,-0,2.39,0.93,0.34,1.41,1.08,0.92,0.01,0.47,4,-2,3,0.92,4307,0,92,45,51,868,226.0,322,461,60,125.0,152,1,204,213,35,0,0,226,1596,18432,226,-5.59,,,,,,,,,,,,
265223,1564151612642,-1,2.38,0.93,0.33,1.4,1.08,0.94,-0.02,0.54,3,-4,2,0.94,4261,0,92,45,51,867,226.0,323,461,60,124.0,152,1,198,213,35,0,0,227,1596,10824,226,-5.59,,,,,,,,,,,,
265243,1564151612662,0,2.38,0.94,0.33,1.41,1.08,0.92,-0.02,0.59,3,-2,2,0.92,4231,0,92,45,51,867,226.0,327,463,60,122.0,152,1,195,213,35,0,0,225,1596,-1494,225,-5.59,44.680843,10.024601,23.01,173.3,0,0.0,-1,0.0,0.0,0,1.71,4.4207
265263,1564151612682,3,2.38,0.94,0.34,1.4,1.07,0.86,0.01,0.58,3,-0,1,0.86,4246,0,92,45,51,868,225.0,327,468,60,122.0,151,1,196,213,34,0,0,224,15360,18432,225,-5.59,,,,,,,,,,,,
265283,1564151612702,2,2.38,0.94,0.34,1.41,1.08,0.87,0.0,0.56,4,1,1,0.87,4234,0,92,45,51,869,224.0,322,461,60,125.0,151,1,195,213,34,0,0,224,-1532,18432,224,-5.59,,,,,,,,,,,,
265303,1564151612722,-1,2.38,0.93,0.34,1.4,1.08,0.88,-0.02,0.5,4,0,3,0.88,4213,0,92,45,52,871,223.0,319,460,60,124.0,151,1,194,213,34,0,0,223,-1532,18432,223,-5.59,,,,,,,,,,,,
265323,1564151612742,-1,2.39,0.94,0.33,1.4,1.07,0.9,-0.05,0.51,4,-1,4,0.91,4199,0,92,45,51,875,222.0,321,462,60,123.0,151,1,191,139,34,0,0,222,-17920,-1496,222,-5.59,,,,,,,,,,,,
265343,1564151612762,-1,2.39,0.93,0.34,1.4,1.08,0.92,-0.07,0.56,4,-1,3,0.92,4185,0,92,45,51,879,221.0,325,467,60,121.0,151,1,189,139,34,0,0,221,250,10318,221,-5.59,44.68084,10.024593,22.66,173.3,0,0.0,-1,0.0,0.0,0,1.71,4.4224
265363,1564151612782,3,2.38,0.94,0.33,1.41,1.08,0.87,-0.04,0.57,4,0,2,0.88,4171,0,92,45,52,882,219.0,318,467,60,122.0,149,1,186,215,33,0,0,220,250,250,219,-5.59,,,,,,,,,,,,
265383,1564151612802,-1,2.39,0.93,0.34,1.41,1.07,0.85,-0.04,0.54,3,-0,2,0.85,4142,0,92,45,52,884,219.0,308,461,60,124.0,149,1,185,214,33,0,0,219,1088,250,219,-5.59,,,,,,,,,,,,
265403,1564151612822,-1,2.38,0.93,0.34,1.4,1.08,0.86,-0.05,0.5,3,-1,3,0.86,4138,0,92,45,52,887,218.0,318,464,60,123.0,149,1,185,211,33,0,0,219,16384,1596,218,-5.59,,,,,,,,,,,,
265423,1564151612842,1,2.38,0.94,0.34,1.41,1.08,0.87,-0.06,0.5,3,-2,3,0.88,4092,0,92,45,51,893,217.0,316,466,60,122.0,149,1,178,210,33,0,0,218,16384,15360,217,-5.59,,,,,,,,,,,,
265443,1564151612862,3,2.38,0.94,0.34,1.4,1.08,0.83,-0.03,0.5,3,-0,2,0.83,4086,0,92,45,52,898,217.0,311,467,60,122.0,149,1,179,213,33,0,0,216,250,-1532,217,-5.59,44.680836,10.024587,22.2,173.3,0,0.0,-1,0.0,0.0,0,1.71,4.424
265463,1564151612882,1,2.38,0.93,0.34,1.4,1.08,0.83,-0.01,0.46,4,-0,2,0.83,4093,0,92,45,52,902,217.0,312,462,60,124.0,147,1,179,213,32,0,0,216,250,250,217,181.28,,,,,,,,,,,,
265483,1564151612902,0,2.38,0.94,0.34,1.41,1.08,0.87,-0.03,0.46,3,-2,3,0.87,4043,0,92,45,52,910,216.0,306,456,60,124.0,147,1,173,213,32,0,0,216,966,-17920,216,-5.59,,,,,,,,,,,,
265503,1564151612922,2,2.39,0.93,0.34,1.41,1.07,0.88,-0.04,0.46,3,-1,3,0.88,4046,0,92,45,51,920,216.0,310,467,60,121.0,147,1,173,213,32,0,0,215,966,-1532,215,-5.59,,,,,,,,,,,,
265523,1564151612942,-1,2.38,0.93,0.34,1.41,1.07,0.87,-0.02,0.47,3,-0,3,0.87,4056,0,93,45,52,930,214.0,307,467,60,122.0,147,1,175,213,32,0,0,213,-14848,-17920,214,-5.59,,,,,,,,,,,,
265543,1564151612962,0,2.38,0.93,0.34,1.41,1.08,0.9,-0.02,0.45,4,-2,4,0.9,3994,0,93,45,52,937,213.0,304,458,60,124.0,147,1,167,213,32,0,0,212,250,1210,213,-5.59,44.680836,10.024579,21.72,173.3,0,0.0,-1,0.0,0.0,0,1.71,4.4257
265563,1564151612982,4,2.38,0.94,0.34,1.4,1.08,0.94,-0.02,0.48,4,-2,3,0.94,4024,0,92,45,52,943,212.0,307,462,60,121.0,150,1,171,213,32,0,0,212,-1482,-1532,212,-5.59,,,,,,,,,,,,
265583,1564151612994,0,2.38,0.94,0.34,1.41,1.08,0.92,0.0,0.5,4,-1,3,0.92,4013,0,93,45,52,950,211.0,308,470,60,123.0,150,1,169,213,32,0,0,210,13964,250,211,-5.59,,,,,,,,,,,,
265603,1564151613014,0,2.38,0.94,0.34,1.4,1.07,0.93,-0.01,0.49,4,-2,4,0.93,3950,0,93,45,52,954,210.0,299,459,60,123.0,150,1,166,213,32,0,0,209,250,250,210,-5.59,,,,,,,,,,,,
265623,1564151613034,3,2.38,0.94,0.34,1.41,1.08,0.93,-0.03,0.51,4,-2,4,0.93,3979,0,92,45,52,954,209.0,305,470,60,122.0,150,1,167,140,32,0,0,209,-29696,16384,209,-5.59,,,,,,,,,,,,
265643,1564151613054,-0,2.38,0.94,0.33,1.4,1.07,0.91,0.01,0.54,3,-1,3,0.91,3971,0,93,45,52,952,208.0,301,468,60,123.0,150,1,166,213,32,0,0,208,250,-1533,208,181.28,44.680832,10.024572,21.19,173.3,0,0.0,-1,0.0,0.0,0,1.71,4.4274
265663,1564151613074,0,2.39,0.94,0.33,1.41,1.08,0.92,-0.03,0.53,3,-3,4,0.92,3910,0,92,45,52,950,208.0,301,458,60,123.0,149,1,164,212,31,0,0,207,13874,-1533,208,-5.59,,,,,,,,,,,,
265683,1564151613101,3,2.39,0.94,0.34,1.41,1.07,0.9,-0.04,0.51,3,-1,3,0.91,3945,0,93,45,52,946,207.0,298,468,60,122.0,149,1,165,212,31,0,0,207,12800,966,207,-5.59,,,,,,,,,,,,
265703,1564151613121,1,2.39,0.94,0.34,1.4,1.08,0.89,-0.02,0.5,3,-2,4,0.89,3942,0,93,45,52,942,206.0,300,458,60,123.0,149,1,165,212,31,0,0,206,250,-14848,206,-5.59,,,,,,,,,,,,
265723,1564151613141,4,2.39,0.93,0.33,1.41,1.07,0.91,-0.04,0.52,3,-3,4,0.91,3886,0,92,45,52,939,205.0,302,465,60,121.0,149,1,163,211,31,0,0,204,-1480,-14848,205,-5.59,,,,,,,,,,,,
265743,1564151613161,-1,2.41,0.94,0.34,1.4,1.08,0.87,-0.02,0.53,4,-1,3,0.87,3890,0,93,45,52,935,205.0,295,465,60,123.0,149,1,163,211,31,0,0,204,14412,250,205,-5.59,44.680832,10.024565,21.09,173.3,0,0.0,-1,0.0,0.0,0,1.71,4.429
265763,1564151613181,0,2.4,0.94,0.34,1.4,1.08,0.89,-0.05,0.55,4,-3,4,0.89,3916,0,92,45,52,932,204.0,300,461,60,123.0,151,1,164,139,31,0,0,202,14412,13964,204,-5.59,,,,,,,,,,,,
265783,1564151613201,2,2.41,0.93,0.33,1.4,1.08,0.88,-0.06,0.53,4,-1,4,0.88,3846,0,93,45,52,931,203.0,302,465,60,122.0,151,1,162,211,31,0,0,202,14412,13964,203,-5.59,,,,,,,,,,,,
265803,1564151613221,-0,2.42,0.93,0.34,1.41,1.08,0.87,-0.06,0.55,4,-2,4,0.88,3840,0,93,45,53,932,203.0,292,463,60,125.0,151,1,162,210,31,0,0,201,250,-1482,203,181.28,,,,,,,,,,,,
265823,1564151613241,2,2.42,0.93,0.33,1.4,1.08,0.89,-0.09,0.57,4,-1,4,0.89,3881,0,93,45,53,934,203.0,299,461,60,121.0,151,1,164,214,31,0,0,200,-1481,13964,203,-5.59,,,,,,,,,,,,
265843,1564151613261,0,2.43,0.94,0.33,1.41,1.08,0.85,-0.07,0.57,4,-0,4,0.86,3851,0,93,45,53,936,202.0,293,472,60,123.0,151,1,163,214,31,0,0,199,-1481,13964,202,181.28,44.680828,10.024558,20.38,173.3,0,0.0,-1,0.0,0.0,0,1.71,4.4307
265863,1564151613281,3,2.44,0.94,0.33,1.41,1.08,0.88,-0.08,0.57,5,-1,5,0.88,3784,0,93,45,53,939,202.0,296,455,60,123.0,148,1,160,213,30,0,0,198,14326,-29696,202,-5.59,,,,,,,,,,,,
265883,1564151613301,-1,2.44,0.94,0.34,1.4,1.08,0.87,-0.06,0.57,5,-0,4,0.87,3812,0,93,45,53,941,201.0,292,471,60,123.0,148,1,161,213,30,0,0,196,-2560,13964,201,-5.59,,,,,,,,,,,,
265903,1564151613321,1,2.44,0.94,0.33,1.41,1.08,0.87,-0.07,0.57,5,-2,6,0.87,3795,0,93,45,53,942,201.0,297,455,60,122.0,148,1,160,213,30,0,0,196,-1281,250,201,-5.59,,,,,,,,,,,,
265923,1564151613341,-0,2.44,0.94,0.33,1.4,1.07,0.87,-0.07,0.54,5,0,6,0.87,3750,0,93,45,53,945,200.0,292,471,60,123.0,148,1,159,217,30,0,0,196,250,250,200,-5.59,,,,,,,,,,,,
265943,1564151613361,-1,2.44,0.94,0.33,1.4,1.07,0.88,-0.09,0.57,5,-2,6,0.88,3709,0,93,45,54,944,199.0,288,453,60,123.0,148,1,158,216,30,0,0,195,-1,250,200,-5.59,44.680828,10.024551,20.07,173.3,0,0.0,-1,0.0,0.0,0,1.71,4.4324
265963,1564151613381,1,2.44,0.94,0.33,1.41,1.08,0.87,-0.1,0.57,5,-0,6,0.88,3700,0,93,45,54,944,199.0,283,472,60,123.0,150,1,158,216,30,0,0,195,-1,12800,199,181.28,,,,,,,,,,,,
265983,1564151613401,3,2.44,0.94,0.34,1.41,1.08,0.88,-0.1,0.58,5,-1,7,0.88,3682,0,93,45,55,945,198.0,291,458,60,122.0,150,1,157,219,30,0,0,195,-1,12800,198,-5.59,,,,,,,,,,,,
266003,1564151613421,-1,2.44,0.94,0.34,1.4,1.08,0.87,-0.07,0.56,6,-0,7,0.88,3642,0,93,45,55,944,197.0,279,467,60,123.0,150,1,155,218,30,0,0,193,-1,-1480,197,181.28,,,,,,,,,,,,
266023,1564151613441,1,2.44,0.93,0.33,1.4,1.08,0.88,-0.09,0.56,6,0,7,0.89,3588,0,93,45,55,945,197.0,285,463,60,122.0,150,1,153,145,30,0,0,191,-1,14412,196,-5.59,,,,,,,,,,,,
266043,1564151613461,2,2.44,0.93,0.33,1.4,1.08,0.89,-0.09,0.58,6,-3,7,0.9,3565,0,93,45,56,946,196.0,275,462,60,123.0,150,1,152,221,30,0,0,190,-1,250,196,-5.59,44.680828,10.024544,19.86,173.3,0,0.0,-1,0.0,0.0,0,1.71,4.4341
266063,1564151613481,2,2.43,0.94,0.33,1.41,1.07,0.88,-0.08,0.54,6,0,7,0.89,3534,0,93,45,57,948,194.0,275,468,60,122.0,148,1,151,225,29,0,0,189,-1,19456,194,181.28,,,,,,,,,,,,
266083,1564151613503,4,2.44,0.93,0.33,1.4,1.07,0.89,-0.09,0.56,6,-0,7,0.9,3492,0,93,45,57,950,194.0,278,452,60,120.0,148,1,0,224,29,0,0,187,-1,250,194,-5.59,,,,,,,,,,,,
266103,1564151613523,3,2.43,0.94,0.33,1.41,1.07,0.88,-0.12,0.56,6,-1,8,0.89,3470,0,93,45,58,952,192.0,274,463,60,124.0,148,1,150,224,29,0,0,186,-1,14326,192,-5.59,,,,,,,,,,,,
266123,1564151613543,3,2.43,0.94,0.33,1.41,1.07,0.88,-0.1,0.5,6,1,7,0.89,3452,0,93,45,58,954,190.0,266,470,60,122.0,148,1,0,229,29,0,0,185,-1,14326,190,-5.59,,,,,,,,,,,,
266143,1564151613563,3,2.44,0.93,0.33,1.41,1.08,0.92,-0.08,0.49,6,1,6,0.92,3380,0,93,45,58,955,189.0,267,462,60,123.0,148,1,0,229,29,0,0,184,-1,-1,188,414.87,44.680824,10.024538,19.45,173.3,0,0.0,-1,0.0,0.0,0,1.71,4.4357
266163,1564151613583,4,2.44,0.94,0.33,1.41,1.07,0.93,-0.08,0.5,6,-2,8,0.93,3299,0,93,45,59,956,187.0,269,461,60,121.0,154,1,150,232,29,0,0,182,-236,250,187,-5.59,,,,,,,,,,,,
266183,1564151613601,4,2.45,0.94,0.34,1.41,1.07,0.93,-0.09,0.49,6,-3,8,0.93,3258,0,93,45,60,956,186.0,262,464,60,123.0,154,1,0,236,29,0,0,180,3584,-1,186,-5.59,,,,,,,,,,,,
266203,1564151613621,2,2.44,0.93,0.34,1.4,1.08,0.95,-0.09,0.48,6,-2,7,0.96,3237,0,93,45,61,955,184.0,257,471,60,123.0,154,1,0,241,29,0,0,177,-1495,-1,184,181.28,,,,,,,,,,,,
266223,1564151613641,3,2.44,0.94,0.34,1.41,1.07,0.97,-0.07,0.45,6,-0,7,0.97,3246,0,93,45,62,953,182.0,255,466,60,123.0,154,1,154,243,29,0,0,174,10620,-1,182,181.28,,,,,,,,,,,,
266243,1564151613661,1,2.44,0.94,0.33,1.41,1.07,1.0,-0.07,0.44,6,1,7,1.0,3268,0,93,45,62,952,179.0,260,459,60,123.0,154,1,0,243,29,0,0,173,-1,5134,177,181.28,44.680824,10.024531,18.73,173.2,0,0.0,-1,0.0,0.0,0,1.71,4.4374
266263,1564151613681,2,2.44,0.94,0.33,1.4,1.07,1.01,-0.05,0.42,6,-1,7,1.01,3330,0,93,45,63,950,176.0,263,457,60,122.0,169,1,0,246,30,0,0,170,-1,250,176,-5.59,,,,,,,,,,,,
266283,1564151613701,3,2.45,0.94,0.34,1.4,1.08,0.98,-0.06,0.43,6,-3,8,0.98,3331,0,93,45,63,950,174.0,262,465,60,123.0,169,1,158,246,30,0,0,169,-253,10620,174,-5.59,,,,,,,,,,,,
266303,1564151613721,0,2.44,0.94,0.34,1.4,1.08,1.0,-0.06,0.41,6,-3,8,1.0,3319,0,93,45,64,950,172.0,258,472,60,123.0,169,1,162,246,30,0,0,168,250,-1495,172,-5.59,,,,,,,,,,,,
266323,1564151613741,0,2.44,0.94,0.34,1.4,1.08,0.94,-0.05,0.37,6,1,7,0.94,3282,0,93,45,64,952,172.0,260,466,60,123.0,169,1,162,249,30,0,0,168,-1494,-1495,172,181.28,,,,,,,,,,,,
266343,1564151613761,0,2.44,0.93,0.33,1.4,1.07,0.93,-0.05,0.36,6,3,7,0.94,3223,0,93,45,64,956,171.0,260,458,60,123.0,169,1,0,249,30,0,0,166,10764,31744,171,181.28,44.680824,10.024525,18.23,173.2,0,0.0,-1,0.0,0.0,0,1.71,4.4391
266363,1564151613781,0,2.45,0.94,0.33,1.41,1.07,0.95,-0.06,0.38,6,3,7,0.95,3136,0,93,45,65,959,171.0,256,458,60,122.0,175,1,167,251,30,0,0,165,10764,10620,171,-5.59,,,,,,,,,,,,
266383,1564151613801,-2,2.46,0.94,0.33,1.41,1.07,0.93,-0.06,0.41,6,1,7,0.94,3086,0,93,45,65,962,169.0,256,459,60,122.0,175,1,0,251,30,0,0,164,250,-1281,169,-5.59,,,,,,,,,,,,
266403,1564151613821,-2,2.48,0.94,0.33,1.4,1.08,0.95,-0.07,0.42,6,0,7,0.95,3032,0,93,45,65,967,170.0,252,459,60,123.0,175,1,0,251,30,0,0,163,-1281,250,170,-5.59,,,,,,,,,,,,
266423,1564151613841,-1,2.49,0.94,0.33,1.41,1.07,0.95,-0.09,0.44,6,-1,8,0.95,3007,0,93,45,65,973,169.0,249,457,60,122.0,175,1,167,251,30,0,0,162,250,-1,168,-5.59,,,,,,,,,,,,
266443,1564151613861,-0,2.51,0.93,0.33,1.4,1.08,0.95,-0.07,0.45,7,-2,8,0.95,3011,0,93,45,66,975,168.0,247,457,60,122.0,175,1,0,254,30,0,0,161,-1,-1,168,-5.59,44.680824,10.024519,16.9,173.2,0,0.0,-1,0.0,0.0,0,1.71,4.4407
266463,1564151613881,-0,2.53,0.94,0.33,1.4,1.08,0.98,-0.08,0.5,7,-5,9,0.98,3032,0,93,45,66,977,167.0,247,460,60,122.0,172,1,0,254,29,0,0,159,-1,-1,167,-5.59,,,,,,,,,,,,
266483,1564151613903,-1,2.54,0.94,0.33,1.4,1.07,0.99,-0.1,0.52,7,-7,10,0.99,3046,0,94,45,66,974,166.0,250,461,60,122.0,172,1,171,254,29,0,0,156,23460,-253,166,-5.59,,,,,,,,,,,,
266503,1564151613923,-2,2.56,0.94,0.33,1.41,1.07,1.0,-0.13,0.54,8,-8,10,1.01,3039,0,94,45,67,972,166.0,247,462,60,122.0,172,1,175,257,29,0,0,154,250,-1,166,-5.59,,,,,,,,,,,,
266523,1564151613943,-2,2.57,0.94,0.33,1.4,1.07,0.98,-0.15,0.53,8,-10,11,0.99,3048,0,94,45,66,965,165.0,247,461,60,121.0,172,1,171,257,29,0,0,154,-1281,888,165,-5.59,,,,,,,,,,,,
266543,1564151613963,-1,2.58,0.94,0.33,1.4,1.08,0.96,-0.15,0.53,9,-12,12,0.97,3065,0,94,45,67,961,165.0,248,466,60,122.0,172,1,0,257,29,0,0,152,-1,30720,165,-5.59,44.680824,10.024513,16.43,173.2,0,0.0,-1,0.0,0.0,0,1.71,4.4424
266563,1564151613983,1,2.58,0.93,0.33,1.41,1.07,0.98,-0.17,0.56,9,-13,13,1.0,3018,0,93,45,66,950,164.0,245,463,60,121.0,176,1,0,257,29,0,0,151,-1,-1,164,-5.59,,,,,,,,,,,,
266583,1564151613995,-0,2.6,0.93,0.33,1.4,1.08,0.99,-0.18,0.56,9,-14,14,1.0,2955,0,93,45,67,943,164.0,246,465,60,122.0,176,1,0,257,29,0,0,151,-1,30720,164,-5.59,,,,,,,,,,,,
266603,1564151614015,-2,2.61,0.94,0.34,1.41,1.08,0.98,-0.18,0.55,10,-16,15,1.0,2922,0,94,45,67,938,163.0,244,463,60,122.0,176,1,0,257,29,0,0,149,-1,888,163,-5.59,,,,,,,,,,,,
266623,1564151614035,-1,2.61,0.94,0.34,1.41,1.08,0.97,-0.2,0.58,10,-16,15,0.99,2902,0,94,45,67,932,163.0,242,463,60,123.0,176,1,172,260,29,0,0,149,-1,-1494,163,-5.59,,,,,,,,,,,,
266643,1564151614055,-0,2.62,0.94,0.34,1.41,1.08,0.97,-0.19,0.59,11,-16,15,0.99,2869,0,94,45,68,926,163.0,239,463,60,122.0,176,1,0,260,29,0,0,148,-1,30720,163,-5.59,44.680824,10.024508,16.16,173.2,0,0.0,-1,0.0,0.0,0,1.71,4.444
266663,1564151614075,0,2.61,0.94,0.34,1.4,1.08,0.97,-0.19,0.58,11,-14,15,0.99,2862,0,94,45,68,916,162.0,236,458,60,124.0,171,1,0,260,28,0,0,147,-1,-1494,162,-5.59,,,,,,,,,,,,
266683,1564151614102,-1,2.62,0.93,0.34,1.4,1.08,0.99,-0.17,0.56,11,-12,16,1.01,2839,6,94,45,69,913,162.0,235,461,60,124.0,171,1,0,259,28,0,0,146,-1,250,162,181.28,,,,,,,,,,,,
266703,1564151614122,-1,2.62,0.94,0.33,1.41,1.07,0.98,-0.13,0.51,11,-8,16,0.99,2824,14,94,45,70,909,160.0,231,464,60,124.0,171,1,171,257,28,0,0,145,-236,250,160,181.28,,,,,,,,,,,,
266723,1564151614142,-0,2.63,0.94,0.34,1.4,1.08,0.99,-0.13,0.5,11,-6,15,1.0,2821,24,94,45,73,903,159.0,230,467,60,123.0,171,1,168,253,28,0,0,144,5140,250,159,-5.59,,,,,,,,,,,,
266743,1564151614162,-0,2.65,0.93,0.34,1.41,1.08,0.95,-0.12,0.48,12,-4,16,0.96,2859,37,94,45,78,896,158.0,231,468,60,124.0,171,1,168,252,28,0,0,143,5120,-1,158,181.28,44.680824,10.024502,15.52,173.2,0,0.0,-1,0.0,0.0,0,1.71,4.4457
266763,1564151614182,-1,2.67,0.94,0.33,1.41,1.07,0.9,-0.12,0.48,12,-2,17,0.91,3018,50,94,45,85,890,158.0,234,470,60,124.0,189,1,180,291,30,0,0,141,-1281,-1,158,181.28,,,,,,,,,,,,
266783,1564151614202,-1,2.69,0.94,0.33,1.41,1.08,0.86,-0.12,0.47,13,1,16,0.87,3223,60,94,45,90,887,158.0,240,471,60,122.0,189,1,180,314,30,0,0,141,-1,3072,158,-5.59,,,,,,,,,,,,
266803,1564151614222,-0,2.7,0.94,0.34,1.4,1.07,0.85,-0.13,0.46,13,4,16,0.86,3345,67,94,45,93,882,159.0,251,472,60,123.0,189,1,202,441,30,0,0,139,-1,-1,159,181.28,,,,,,,,,,,,
266823,1564151614242,-0,2.72,0.94,0.33,1.41,1.08,0.86,-0.11,0.54,14,2,17,0.87,3267,71,94,45,95,876,159.0,258,450,60,121.0,189,1,217,514,30,0,0,138,-1,250,159,-5.59,,,,,,,,,,,,
266843,1564151614262,1,2.75,0.94,0.33,1.41,1.07,0.9,-0.15,0.51,15,1,18,0.91,3181,71,94,45,96,874,160.0,259,457,60,120.0,189,1,225,547,30,0,0,137,-1,250,160,-5.59,44.680824,10.024496,14.88,173.2,0,0.0,-1,0.0,0.0,0,1.72,4.4474
266863,1564151614282,2,2.76,0.94,0.34,1.41,1.07,0.91,-0.17,0.51,16,-0,20,0.93,3210,71,94,45,96,874,159.0,254,467,60,124.0,406,1,225,549,65,0,0,136,-1,-1281,159,-5.59,,,,,,,,,,,,
266883,1564151614303,-1,2.78,0.94,0.33,1.41,1.08,0.89,-0.18,0.52,16,1,20,0.9,3233,71,94,45,95,871,160.0,252,473,60,124.0,406,1,217,511,65,0,0,136,-1,250,160,181.28,,,,,,,,,,,,
266903,1564151614323,-0,2.79,0.94,0.33,1.41,1.08,0.83,-0.2,0.55,16,3,19,0.85,3363,71,94,45,96,866,160.0,253,470,60,124.0,406,1,225,560,65,0,0,135,-1,10764,160,181.28,,,,,,,,,,,,
266923,1564151614343,2,2.81,0.94,0.34,1.4,1.08,0.84,-0.22,0.55,17,2,21,0.86,3556,71,94,45,96,863,161.0,264,450,60,123.0,406,1,229,573,65,0,0,134,-1,-1281,161,-5.59,,,,,,,,,,,,
266943,1564151614363,-1,2.83,0.94,0.34,1.41,1.08,0.88,-0.24,0.53,17,3,22,0.91,3738,68,94,45,95,858,162.0,270,477,60,124.0,406,1,236,545,65,0,0,134,-1,250,162,181.28,44.680824,10.02449,14.82,173.2,0,0.0,-1,0.0,0.0,0,1.72,4.449
266963,1564151614383,2,2.84,0.94,0.34,1.4,1.08,0.86,-0.24,0.53,19,1,24,0.89,3929,60,94,45,94,900,162.0,285,458,60,120.0,487,1,241,525,79,0,0,132,-1,250,162,-5.59,,,,,,,,,,,,
266983,1564151614402,0,2.85,0.95,0.33,1.41,1.08,0.84,-0.23,0.53,18,3,23,0.87,4008,55,94,45,93,987,162.0,290,472,60,124.0,487,1,235,500,79,0,0,131,-1,10764,162,-5.59,,,,,,,,,,,,
267003,1564151614422,-0,2.85,0.94,0.34,1.41,1.07,0.86,-0.23,0.51,19,3,25,0.89,4254,53,94,45,92,1097,162.0,303,467,60,124.0,487,1,246,481,79,0,0,130,-1,250,162,-5.59,,,,,,,,,,,,
267023,1564151614442,1,2.87,0.95,0.33,1.41,1.08,0.92,-0.27,0.52,20,2,27,0.96,4496,53,94,45,92,1165,163.0,315,461,60,124.0,487,1,265,492,79,0,0,129,-1,3072,163,-5.59,,,,,,,,,,,,
267043,1564151614462,1,2.86,0.94,0.33,1.41,1.08,0.92,-0.28,0.54,20,2,27,0.96,4625,52,94,45,92,1261,162.0,331,464,60,124.0,487,1,277,498,79,0,0,129,-1,-1281,162,-5.59,44.680824,10.024486,14.68,173.2,0,0.0,-1,0.0,0.0,0,1.72,4.4507
267063,1564151614482,3,2.86,0.94,0.34,1.41,1.08,0.88,-0.3,0.51,20,1,28,0.93,4820,52,94,45,92,1391,162.0,349,465,60,123.0,530,1,301,506,86,0,0,128,-1,-1,162,-5.59,,,,,,,,,,,,
267083,1564151614502,-1,2.87,0.94,0.34,1.4,1.08,0.84,-0.31,0.52,22,2,28,0.9,5240,52,94,45,91,1450,162.0,365,465,60,123.0,530,1,310,490,86,0,0,129,-1,-1,162,-5.59,,,,,,,,,,,,
267103,1564151614522,-0,2.86,0.94,0.34,1.41,1.08,0.88,-0.3,0.45,21,-0,29,0.93,5728,52,94,45,89,1460,161.0,396,465,60,121.0,530,1,316,472,86,0,0,128,-1,-1281,161,-5.59,,,,,,,,,,,,
267123,1564151614542,-1,2.87,0.94,0.33,1.41,1.07,0.94,-0.28,0.35,21,-3,31,0.98,6208,51,94,45,86,1462,160.0,436,465,60,122.0,530,1,341,473,86,0,0,128,-1,-1,160,-5.59,,,,,,,,,,,,
267143,1564151614562,2,2.86,0.94,0.34,1.41,1.07,0.92,-0.36,0.32,22,-3,31,0.99,6677,44,94,45,84,1443,161.0,468,464,60,124.0,530,1,365,476,86,0,0,127,-1,-1,161,-5.59,44.680824,10.02448,14.74,173.2,0,0.0,-1,0.0,0.0,0,1.72,4.4524
267163,1564151614582,1,2.88,0.94,0.34,1.4,1.08,0.86,-0.29,0.35,22,-3,31,0.91,7172,36,94,45,80,1418,160.0,514,463,60,122.0,757,1,389,459,122,0,0,128,-1,-1,160,-5.59,,,,,,,,,,,,
267183,1564151614602,2,2.88,0.94,0.33,1.41,1.08,0.84,-0.32,0.3,23,-2,31,0.9,7488,29,94,45,75,1385,160.0,537,467,60,122.0,757,1,410,419,122,0,0,127,-1,-1,160,-5.59,,,,,,,,,,,,
267203,1564151614622,3,2.9,0.94,0.34,1.4,1.08,0.78,-0.33,0.24,23,-1,31,0.84,7725,23,94,45,69,1351,161.0,548,466,60,123.0,757,1,433,351,122,0,0,127,-1,-1,161,-5.59,,,,,,,,,,,,
267223,1564151614642,-1,2.92,0.94,0.34,1.41,1.08,0.73,-0.3,0.29,24,-0,32,0.79,7884,18,94,45,63,1274,160.0,568,467,60,122.0,757,1,446,311,122,0,0,125,-1,-1281,160,-5.59,,,,,,,,,,,,
267243,1564151614662,1,2.94,0.95,0.33,1.42,1.08,0.81,-0.32,0.3,24,-1,33,0.87,8230,15,94,45,56,1198,161.0,587,466,60,123.0,757,1,406,277,122,0,0,126,-1,-1,161,-5.59,44.680824,10.024475,14.53,173.2,0,0.0,-1,0.0,0.0,0,1.72,4.4541
267263,1564151614682,0,2.95,0.94,0.33,1.41,1.09,0.77,-0.31,0.32,25,0,33,0.83,8468,13,94,45,49,1143,161.0,613,467,60,123.0,503,1,375,241,81,0,0,124,-202,-1,161,-5.59,,,,,,,,,,,,
267283,1564151614702,2,2.97,0.94,0.34,1.41,1.08,0.76,-0.34,0.27,26,0,34,0.83,8488,13,94,45,45,1106,162.0,616,467,60,122.0,503,1,357,217,81,0,0,122,-202,-1,162,-5.59,,,,,,,,,,,,
267303,1564151614722,2,3.0,0.94,0.33,1.41,1.08,0.82,-0.31,0.34,26,-1,34,0.88,8511,12,94,45,40,1005,162.0,621,465,60,123.0,503,1,326,211,81,0,0,122,13868,-1,162,-5.59,,,,,,,,,,,,
267323,1564151614742,1,0.35,0.92,0.32,1.4,1.06,0.78,-0.31,0.35,26,-0,35,0.84,8434,13,94,45,38,944,163.0,636,468,60,122.0,503,1,315,203,81,0,0,120,13868,-1,163,-5.59,,,,,,,,,,,,
267343,1564151614762,2,0.37,0.92,0.31,1.4,1.05,0.82,-0.35,0.3,27,-1,36,0.89,8337,12,94,45,36,906,162.0,619,466,60,123.0,503,1,307,192,81,0,0,120,11264,-1,162,-5.59,44.680824,10.02447,14.61,173.2,0,0.0,-1,0.0,0.0,0,1.72,4.4557
267363,1564151614782,1,0.39,0.92,0.31,1.39,1.05,0.79,-0.34,0.36,28,-1,36,0.86,8152,12,94,45,34,857,162.0,616,466,60,123.0,358,1,298,185,58,0,0,119,11264,-1,162,-5.59,,,,,,,,,,,,
267383,1564151614802,0,0.41,0.92,0.31,1.4,1.05,0.81,-0.37,0.36,28,-1,37,0.89,7978,12,94,45,34,811,163.0,599,465,60,123.0,358,1,295,175,58,0,0,118,250,-1,164,-5.59,,,,,,,,,,,,
267403,1564151614822,2,0.42,0.92,0.31,1.4,1.05,0.81,-0.38,0.31,29,-2,38,0.9,7815,12,94,45,33,777,164.0,591,467,60,123.0,358,1,292,170,58,0,0,115,-1482,-1,164,-5.59,,,,,,,,,,,,
267423,1564151614842,2,0.44,0.91,0.31,1.4,1.06,0.8,-0.41,0.28,30,-1,38,0.9,7634,12,94,45,33,762,166.0,576,463,60,121.0,358,1,292,170,58,0,0,116,-1482,-1,166,-5.59,,,,,,,,,,,,
267443,1564151614862,2,0.46,0.92,0.31,1.4,1.05,0.81,-0.38,0.2,30,-3,39,0.89,7431,12,94,45,33,753,164.0,579,467,60,122.0,358,1,292,170,58,0,0,114,-1482,-1,164,-5.59,44.680824,10.024466,14.22,173.2,0,0.0,-1,0.0,0.0,0,1.72,4.4574
267463,1564151614882,1,0.46,0.92,0.31,1.39,1.05,0.81,-0.38,0.15,31,-3,40,0.9,7298,12,94,45,33,756,165.0,557,467,60,122.0,284,1,292,170,47,0,0,114,-1482,-1,165,-5.59,,,,,,,,,,,,
267483,1564151614902,-1,0.47,0.91,0.32,1.39,1.06,0.84,-0.44,0.13,31,-3,41,0.95,7170,12,94,45,34,760,165.0,548,467,60,122.0,284,1,295,170,47,0,0,111,-1482,-1,165,-5.59,,,,,,,,,,,,
267503,1564151614922,-0,0.47,0.92,0.31,1.4,1.06,0.91,-0.45,0.22,32,-4,41,1.02,7054,12,95,44,34,773,165.0,535,463,60,124.0,284,1,295,175,47,0,0,111,13862,-165,165,-5.59,,,,,,,,,,,,
267523,1564151614942,1,0.48,0.91,0.31,1.39,1.05,0.86,-0.44,0.29,33,-3,42,0.97,6965,12,94,44,35,783,165.0,538,469,60,122.0,284,1,298,181,47,0,0,111,13862,-165,165,-5.59,,,,,,,,,,,,
267543,1564151614962,-1,0.49,0.91,0.31,1.4,1.06,0.87,-0.45,0.3,33,-2,42,0.98,6895,12,94,44,35,803,164.0,531,465,60,123.0,284,1,298,181,47,0,0,109,13862,-1,164,-5.59,44.680824,10.024461,14.1,173.2,0,0.0,-1,0.0,0.0,0,1.72,4.4591
267563,1564151614982,2,0.5,0.91,0.32,1.39,1.06,0.91,-0.47,0.34,33,-3,43,1.02,6751,12,94,44,35,831,164.0,521,462,60,124.0,280,1,298,186,46,0,0,110,9728,-165,164,-5.59,,,,,,,,,,,,
267583,1564151614994,-2,0.5,0.91,0.31,1.39,1.05,0.83,-0.44,0.39,34,-1,42,0.94,6686,12,95,44,36,838,164.0,516,466,60,123.0,280,1,301,112,46,0,0,109,250,-165,164,-5.59,,,,,,,,,,,,
267603,1564151615014,3,0.5,0.91,0.3,1.38,1.05,0.95,-0.44,0.36,34,-4,44,1.05,6625,12,95,44,37,847,163.0,517,465,60,123.0,280,1,304,192,46,0,0,109,250,23460,163,-5.59,,,,,,,,,,,,
267623,1564151615034,2,0.5,0.91,0.31,1.38,1.05,0.85,-0.49,0.36,34,-2,45,0.98,6537,12,95,44,37,856,163.0,508,463,60,124.0,280,1,304,192,46,0,0,108,-1482,-165,163,-5.59,,,,,,,,,,,,
267643,1564151615054,-1,0.51,0.9,0.31,1.39,1.06,0.87,-0.42,0.32,35,-0,46,0.97,6494,12,95,44,38,863,163.0,506,465,60,123.0,280,1,307,197,46,0,0,108,-1482,23460,163,-5.59,44.680828,10.024457,13.73,173.2,0,0.0,-1,0.0,0.0,0,1.72,4.4607
267663,1564151615074,0,0.5,0.91,0.31,1.39,1.05,0.98,-0.39,0.26,35,-1,46,1.05,6371,12,94,44,39,865,162.0,508,464,60,122.0,300,1,310,203,49,0,0,108,13856,-23552,162,-5.59,,,,,,,,,,,,
267683,1564151615103,3,0.51,0.9,0.31,1.39,1.06,0.9,-0.42,0.33,35,-1,47,0.99,6319,12,95,44,39,865,162.0,496,463,60,124.0,300,1,310,203,49,0,0,107,13856,250,162,-5.59,,,,,,,,,,,,
267703,1564151615123,3,0.5,0.91,0.31,1.39,1.05,0.78,-0.41,0.34,35,0,47,0.88,6233,12,95,44,40,859,161.0,483,463,60,123.0,300,1,316,204,49,0,0,106,13856,-1281,161,-5.59,,,,,,,,,,,,
267723,1564151615143,-0,0.51,0.9,0.31,1.38,1.06,0.82,-0.42,0.33,35,-0,46,0.92,6200,12,95,44,41,853,160.0,476,468,60,122.0,300,1,323,205,49,0,0,106,13856,-1281,160,-5.59,,,,,,,,,,,,
267743,1564151615163,-1,0.51,0.91,0.31,1.38,1.05,0.94,-0.41,0.29,35,-3,46,1.03,6127,12,95,44,41,847,160.0,472,468,60,122.0,300,1,322,205,49,0,0,105,13856,250,160,-5.59,44.680832,10.024453,13.66,173.2,0,0.0,-1,0.0,0.0,0,1.72,4.4624
267763,1564151615183,-2,0.51,0.91,0.31,1.38,1.06,1.05,-0.4,0.26,35,-7,47,1.12,6111,12,95,44,42,843,160.0,465,467,60,122.0,293,1,329,206,47,0,0,105,13856,-1281,160,-5.59,,,,,,,,,,,,
267783,1564151615201,-1,0.51,0.91,0.31,1.39,1.05,1.15,-0.41,0.26,35,-9,47,1.22,6025,11,95,44,42,837,160.0,468,466,60,122.0,293,1,328,206,47,0,0,106,13856,-23552,160,-5.59,,,,,,,,,,,,
267803,1564151615221,-1,0.5,0.91,0.31,1.38,1.05,1.23,-0.4,0.28,35,-11,46,1.3,5988,11,95,44,43,832,159.0,465,467,60,120.0,293,1,333,207,47,0,0,105,8192,-1,159,-5.59,,,,,,,,,,,,
267823,1564151615241,-2,0.51,0.91,0.31,1.39,1.05,1.31,-0.43,0.3,35,-13,46,1.38,5922,11,95,44,43,829,159.0,457,468,60,122.0,293,1,329,207,47,0,0,104,8192,-1,159,-5.59,,,,,,,,,,,,
267843,1564151615261,-1,0.5,0.91,0.31,1.39,1.06,1.38,-0.45,0.31,35,-14,46,1.46,5879,11,95,44,44,830,159.0,451,470,60,122.0,293,1,331,208,47,0,0,105,8192,-1,159,-5.59,44.680836,10.024449,13.51,173.3,0,0.0,-1,0.0,0.0,0,1.72,4.464
267863,1564151615281,3,0.49,0.91,0.31,1.39,1.05,1.41,-0.44,0.28,34,-14,45,1.48,5797,11,95,44,44,832,158.0,445,466,60,123.0,284,1,324,208,45,0,0,105,250,-1,158,-5.59,,,,,,,,,,,,
267883,1564151615301,2,0.5,0.91,0.31,1.39,1.06,1.29,-0.39,0.26,35,-13,45,1.35,5746,11,95,44,45,836,157.0,450,465,60,124.0,284,1,326,210,45,0,0,103,-1482,-1,157,-5.59,,,,,,,,,,,,
267903,1564151615321,1,0.51,0.91,0.31,1.39,1.05,1.15,-0.45,0.3,35,-10,45,1.24,5650,11,95,44,46,841,157.0,443,464,60,124.0,284,1,323,211,45,0,0,104,250,-1,157,-5.59,,,,,,,,,,,,
267923,1564151615341,1,0.5,0.9,0.31,1.39,1.06,1.14,-0.4,0.25,35,-10,44,1.21,5582,11,95,44,48,844,157.0,442,467,60,121.0,284,1,325,216,45,0,0,103,-1482,-1,157,-5.59,,,,,,,,,,,,
267943,1564151615361,3,0.5,0.91,0.31,1.38,1.05,1.21,-0.39,0.2,35,-11,44,1.27,5519,11,95,44,49,846,156.0,437,465,60,122.0,284,1,324,216,45,0,0,102,-1482,-1,156,-5.59,44.680836,10.024447,13.14,173.3,0,0.0,-1,0.0,0.0,0,1.72,4.4657
267963,1564151615381,0,0.5,0.91,0.32,1.4,1.05,1.09,-0.42,0.21,35,-9,45,1.17,5448,11,95,44,50,847,156.0,430,463,60,123.0,288,1,322,224,45,0,0,102,13850,-1,155,-5.59,,,,,,,,,,,,
267983,1564151615401,-1,0.5,0.91,0.31,1.39,1.05,1.14,-0.38,0.2,35,-10,45,1.2,5389,11,95,44,51,846,155.0,422,467,60,123.0,288,1,321,227,45,0,0,102,13850,-1,155,-5.59,,,,,,,,,,,,
268003,1564151615421,0,0.5,0.91,0.31,1.39,1.05,1.13,-0.32,0.16,35,-8,45,1.17,5340,11,95,44,52,844,155.0,409,462,60,122.0,288,1,320,226,45,0,0,101,6656,-1,155,181.28,,,,,,,,,,,,
268023,1564151615441,0,0.5,0.91,0.31,1.39,1.05,1.04,-0.31,0.14,35,-6,46,1.08,5302,11,95,44,53,841,153.0,420,465,60,122.0,288,1,321,233,45,0,0,101,6656,-1,153,-5.59,,,,,,,,,,,,
268043,1564151615461,2,0.5,0.91,0.31,1.39,1.05,1.1,-0.27,0.15,35,-6,46,1.13,5278,11,95,44,54,838,153.0,409,463,60,124.0,288,1,324,232,45,0,0,101,6656,-1,153,-5.59,44.68084,10.024445,12.96,173.2,0,0.0,-1,0.0,0.0,0,1.72,4.4674
268063,1564151615481,0,0.5,0.9,0.32,1.39,1.06,0.99,-0.31,0.18,35,-5,46,1.04,5249,11,95,44,54,838,153.0,407,466,60,123.0,307,1,321,238,47,0,0,101,250,-1,152,-5.59,,,,,,,,,,,,
268083,1564151615501,2,0.5,0.9,0.31,1.4,1.05,1.02,-0.29,0.22,35,-5,47,1.06,5198,11,95,44,55,837,152.0,390,462,60,124.0,307,1,314,237,47,0,0,101,250,-1,152,181.28,,,,,,,,,,,,
268103,1564151615521,-0,0.5,0.91,0.31,1.39,1.05,0.98,-0.27,0.21,35,-3,46,1.02,5148,11,95,44,56,838,151.0,405,469,60,122.0,307,1,306,240,47,0,0,100,250,-236,151,-5.59,,,,,,,,,,,,
268123,1564151615541,0,0.5,0.91,0.31,1.39,1.05,1.01,-0.23,0.3,35,-3,46,1.03,5173,11,95,44,57,842,151.0,391,461,60,123.0,307,1,305,240,47,0,0,99,-1482,5120,151,-5.59,,,,,,,,,,,,
268143,1564151615561,-1,0.5,0.9,0.31,1.39,1.05,1.02,-0.22,0.26,35,-4,47,1.05,5111,11,95,44,57,843,150.0,393,468,60,122.0,307,1,300,244,47,0,0,99,13844,5140,150,-5.59,44.680843,10.024443,12.89,173.3,0,0.0,-1,0.0,0.0,0,1.72,4.469
268163,1564151615581,-0,0.49,0.91,0.31,1.4,1.05,0.92,-0.28,0.3,35,-2,46,0.96,5124,11,95,44,58,847,150.0,393,465,60,122.0,313,1,297,247,47,0,0,98,13844,250,150,-5.59,,,,,,,,,,,,
268183,1564151615597,3,0.5,0.91,0.31,1.4,1.05,1.01,-0.27,0.29,34,-3,46,1.05,5139,11,95,44,59,847,149.0,393,465,60,123.0,313,1,295,247,47,0,0,98,5120,250,148,-5.59,,,,,,,,,,,,
268203,1564151615617,0,0.48,0.91,0.31,1.4,1.05,0.92,-0.31,0.27,35,-2,45,0.97,5107,11,95,44,59,847,147.0,389,469,60,122.0,313,1,291,251,47,0,0,97,250,-1,147,-5.59,,,,,,,,,,,,
268223,1564151615637,2,0.49,0.91,0.31,1.4,1.05,0.98,-0.28,0.34,34,-3,46,1.02,5089,11,95,44,59,844,146.0,385,461,60,124.0,313,1,289,251,47,0,0,97,250,-1,146,181.28,,,,,,,,,,,,
268243,1564151615657,1,0.49,0.9,0.31,1.39,1.05,1.02,-0.26,0.34,34,-3,46,1.06,5077,11,95,44,60,841,145.0,388,471,60,122.0,313,1,284,255,47,0,0,96,-1482,-1,145,-5.59,44.680847,10.024441,12.58,173.3,0,0.0,-1,0.0,0.0,0,1.72,4.4707
268263,1564151615677,-1,0.49,0.9,0.31,1.4,1.05,0.98,-0.33,0.4,34,-2,44,1.03,5117,11,95,44,59,837,145.0,392,462,60,123.0,331,1,292,254,48,0,0,96,-1482,-1,145,-5.59,,,,,,,,,,,,
268283,1564151615701,2,0.49,0.9,0.32,1.39,1.05,1.03,-0.3,0.35,33,-4,45,1.07,5089,11,96,44,60,835,144.0,389,468,60,123.0,331,1,285,255,48,0,0,94,13838,-1,144,-5.59,,,,,,,,,,,,
268303,1564151615721,-0,0.48,0.91,0.31,1.39,1.05,0.9,-0.32,0.36,33,-2,44,0.95,5096,11,95,44,60,832,142.0,395,465,60,123.0,331,1,286,255,48,0,0,94,3584,-1,142,-5.59,,,,,,,,,,,,
268323,1564151615741,3,0.48,0.91,0.32,1.38,1.06,1.0,-0.27,0.36,33,-1,44,1.04,5125,11,96,44,60,832,142.0,394,468,60,124.0,331,1,289,254,48,0,0,93,250,-1,142,-5.59,,,,,,,,,,,,
268343,1564151615761,-0,0.48,0.9,0.32,1.4,1.06,0.98,-0.25,0.36,33,-3,45,1.01,5107,11,96,44,61,834,141.0,391,465,60,124.0,331,1,286,258,48,0,0,92,250,-1,141,-5.59,44.680847,10.02444,12.07,173.2,0,0.0,-1,0.0,0.0,0,1.72,4.4724
268363,1564151615781,1,0.47,0.91,0.31,1.4,1.05,0.91,-0.3,0.42,33,-1,44,0.96,5151,11,96,44,60,837,140.0,390,463,60,123.0,357,1,292,257,50,0,0,92,13832,-1,140,-5.59,,,,,,,,,,,,
268383,1564151615801,5,0.47,0.9,0.31,1.4,1.05,1.01,-0.29,0.39,32,-2,44,1.05,5165,11,96,44,61,839,138.0,398,468,60,124.0,357,1,289,257,50,0,0,91,13832,-1,137,-5.59,,,,,,,,,,,,
268403,1564151615821,1,0.47,0.9,0.31,1.39,1.05,0.9,-0.39,0.41,32,-2,43,0.98,5176,11,95,44,61,842,137.0,403,462,60,123.0,357,1,291,257,50,0,0,90,2048,-1,136,-5.59,,,,,,,,,,,,
268423,1564151615841,4,0.46,0.91,0.31,1.39,1.05,0.98,-0.37,0.37,32,-2,43,1.05,5159,11,96,44,61,842,135.0,389,462,60,122.0,357,1,289,257,50,0,0,90,2048,-1,135,181.28,,,,,,,,,,,,
268443,1564151615861,1,0.44,0.91,0.31,1.4,1.05,0.88,-0.39,0.39,32,-0,42,0.96,5202,11,96,44,61,846,133.0,403,467,60,123.0,357,1,294,256,50,0,0,90,250,-202,133,-5.59,44.680851,10.024439,11.59,173.2,0,0.0,-1,0.0,0.0,0,1.72,4.4741
268463,1564151615881,3,0.43,0.9,0.31,1.39,1.05,0.98,-0.33,0.39,31,-1,42,1.03,5189,11,96,44,61,849,133.0,398,466,60,123.0,375,1,292,253,50,0,0,89,-1483,13868,133,181.28,,,,,,,,,,,,
268483,1564151615903,1,0.41,0.9,0.31,1.4,1.05,0.87,-0.32,0.39,31,-0,41,0.93,5208,11,95,44,61,852,131.0,393,465,60,122.0,375,1,294,256,50,0,0,89,13736,13868,131,-5.59,,,,,,,,,,,,
268503,1564151615923,3,0.39,0.9,0.31,1.39,1.05,0.93,-0.26,0.4,30,-1,41,0.97,5199,11,96,44,61,853,130.0,390,465,60,124.0,375,1,293,257,50,0,0,89,13736,11264,130,-5.59,,,,,,,,,,,,
268523,1564151615943,1,0.37,0.9,0.31,1.39,1.05,0.91,-0.25,0.38,30,-0,40,0.95,5253,11,96,44,61,855,128.0,404,466,60,122.0,375,1,299,185,50,0,0,89,-22528,-1482,128,-5.59,,,,,,,,,,,,
268543,1564151615963,2,0.35,0.9,0.31,1.39,1.05,0.96,-0.17,0.43,30,-1,40,0.97,5274,11,96,44,60,856,127.0,402,461,60,122.0,375,1,305,252,50,0,0,88,-22528,13862,127,-5.59,44.680855,10.024439,11.64,173.2,0,0.0,-1,0.0,0.0,0,1.72,4.4757
268563,1564151615983,1,2.98,0.92,0.32,1.41,1.06,0.9,-0.16,0.38,29,-2,39,0.92,5323,11,96,44,60,857,126.0,407,468,60,123.0,393,1,310,251,50,0,0,88,250,9728,126,-5.59,,,,,,,,,,,,
268583,1564151615995,4,2.96,0.93,0.32,1.4,1.07,1.0,-0.1,0.38,28,-2,38,1.01,5355,11,96,44,60,856,126.0,404,466,60,124.0,393,1,313,251,50,0,0,89,250,-1482,124,-5.59,,,,,,,,,,,,
268603,1564151616015,2,2.92,0.93,0.32,1.41,1.07,0.85,-0.13,0.41,28,1,37,0.86,5378,11,96,44,60,856,124.0,411,462,60,121.0,393,1,316,251,50,0,0,89,-1481,13856,122,-5.59,,,,,,,,,,,,
268623,1564151616035,0,2.9,0.92,0.32,1.41,1.07,0.93,-0.12,0.35,27,-1,36,0.94,5430,11,96,44,60,856,122.0,416,468,60,123.0,393,1,321,251,50,0,0,89,-1481,8192,122,-5.59,,,,,,,,,,,,
268643,1564151616055,4,2.87,0.92,0.32,1.41,1.07,0.96,-0.1,0.38,26,-1,36,0.97,5471,11,96,44,59,857,120.0,418,464,60,124.0,393,1,328,248,50,0,0,90,14312,8192,120,-5.59,44.680859,10.02444,11.14,173.2,0,0.0,-1,0.0,0.0,0,1.72,4.4774
268663,1564151616075,-0,2.83,0.92,0.33,1.41,1.06,0.83,-0.1,0.44,26,1,35,0.84,5521,11,96,44,59,858,118.0,422,462,60,123.0,432,1,333,248,51,0,0,91,14312,8192,118,-5.59,,,,,,,,,,,,
268683,1564151616102,-0,2.8,0.92,0.33,1.41,1.07,0.92,-0.07,0.45,25,-0,34,0.92,5545,11,96,44,58,858,117.0,416,465,60,122.0,432,1,338,246,51,0,0,91,14312,13850,117,-5.59,,,,,,,,,,,,
268703,1564151616122,5,2.76,0.93,0.32,1.41,1.07,1.0,-0.1,0.49,23,-1,33,1.0,5598,11,96,44,58,859,115.0,422,464,60,122.0,432,1,343,246,51,0,0,91,-6144,6656,115,-5.59,,,,,,,,,,,,
268723,1564151616142,3,2.72,0.92,0.33,1.41,1.07,0.87,-0.11,0.52,22,0,31,0.88,5704,11,96,44,57,861,113.0,438,463,60,122.0,432,1,355,246,51,0,0,92,-6144,-1482,113,-5.59,,,,,,,,,,,,
268743,1564151616162,1,2.68,0.92,0.33,1.41,1.07,0.76,-0.06,0.54,21,2,30,0.76,5788,11,96,44,56,861,111.0,448,463,60,121.0,432,1,364,175,51,0,0,92,-6144,-1482,111,-5.59,44.680862,10.02444,10.57,173.2,0,0.0,-1,0.0,0.0,0,1.72,4.4791
268763,1564151616182,2,2.63,0.93,0.32,1.41,1.06,0.74,-0.02,0.51,20,1,29,0.74,5881,11,96,44,55,863,108.0,453,463,60,123.0,486,1,374,248,54,0,0,92,-6144,250,108,-5.59,,,,,,,,,,,,
268783,1564151616202,3,2.6,0.92,0.32,1.41,1.07,0.77,0.02,0.49,19,-1,28,0.77,5998,11,96,44,54,863,108.0,457,466,60,122.0,486,1,383,250,54,0,0,93,-6144,250,108,-5.59,,,,,,,,,,,,
268803,1564151616222,3,2.56,0.92,0.32,1.41,1.06,0.82,0.06,0.49,18,-2,26,0.82,6143,11,96,44,52,864,106.0,463,463,60,123.0,486,1,377,239,54,0,0,94,-6144,13838,106,-5.59,,,,,,,,,,,,
268823,1564151616242,5,2.51,0.93,0.32,1.41,1.06,0.76,0.07,0.52,17,-2,25,0.77,6264,11,96,44,51,866,104.0,480,465,60,122.0,486,1,375,234,54,0,0,94,-6144,3584,104,-5.59,,,,,,,,,,,,
268843,1564151616262,3,2.47,0.92,0.32,1.41,1.06,0.69,0.05,0.53,15,-1,22,0.69,6379,11,96,44,49,864,102.0,478,466,60,123.0,486,1,369,224,54,0,0,94,250,-1482,102,-5.59,44.680862,10.024441,10.3,173.2,0,0.0,-1,0.0,0.0,0,1.72,4.4807
268863,1564151616282,2,2.44,0.92,0.32,1.4,1.06,0.74,0.06,0.48,14,-3,20,0.74,6454,11,96,44,48,860,100.0,485,468,60,123.0,529,1,367,219,54,0,0,94,-6144,13832,100,-5.59,,,,,,,,,,,,
268883,1564151616302,4,2.4,0.92,0.33,1.4,1.07,0.81,0.01,0.48,13,-4,19,0.81,6567,11,96,44,47,854,100.0,500,463,60,124.0,529,1,365,214,54,0,0,94,-6144,13832,100,-5.59,,,,,,,,,,,,
268903,1564151616322,3,2.38,0.92,0.32,1.4,1.06,0.76,0.06,0.5,12,-2,18,0.76,6627,11,96,44,46,850,98.0,501,463,60,124.0,529,1,359,213,54,0,0,94,250,-1483,98,-5.59,,,,,,,,,,,,
268923,1564151616342,4,2.36,0.92,0.33,1.4,1.07,0.81,0.09,0.45,11,-3,17,0.82,6660,11,96,44,45,845,95.0,512,466,60,123.0,529,1,352,212,54,0,0,94,250,13736,95,-5.59,,,,,,,,,,,,
268943,1564151616362,2,2.34,0.92,0.33,1.41,1.06,0.75,0.08,0.55,10,-1,14,0.75,6701,11,96,44,44,838,95.0,515,463,60,124.0,529,1,345,211,54,0,0,94,250,-1481,95,-5.59,44.680866,10.024441,10.07,173.2,0,0.0,-1,0.0,0.0,0,1.72,4.4824
268963,1564151616382,4,2.31,0.92,0.33,1.4,1.06,0.84,0.09,0.46,9,-2,14,0.84,6756,11,96,44,43,830,93.0,521,466,60,123.0,569,1,338,211,53,0,0,93,-1481,-1481,93,-5.59,,,,,,,,,,,,
268983,1564151616402,2,2.3,0.92,0.33,1.41,1.06,0.8,0.05,0.54,8,-3,11,0.8,6781,11,96,44,42,828,91.0,519,464,60,124.0,569,1,331,207,53,0,0,93,-1481,14312,91,-5.59,,,,,,,,,,,,
269003,1564151616422,4,2.29,0.92,0.33,1.4,1.07,0.84,0.08,0.41,7,-2,10,0.84,6754,11,96,44,42,827,91.0,533,467,60,122.0,569,1,331,207,53,0,0,92,-1481,250,89,-5.59,,,,,,,,,,,,
269023,1564151616442,3,2.28,0.92,0.32,1.41,1.06,0.86,0.04,0.46,6,-2,9,0.87,6764,11,96,44,41,833,90.0,519,464,60,124.0,569,1,324,206,53,0,0,92,14298,14298,89,181.28,,,,,,,,,,,,
269043,1564151616462,3,2.28,0.92,0.32,1.4,1.07,0.87,0.06,0.43,5,-2,8,0.87,6744,10,96,44,41,838,88.0,530,467,60,122.0,569,1,324,206,53,0,0,90,250,14298,88,-5.59,44.680866,10.024442,9.45,173.2,0,0.0,-1,0.0,0.0,0,1.72,4.484
269063,1564151616482,3,2.28,0.92,0.33,1.4,1.07,0.86,0.08,0.47,5,-2,7,0.86,6725,10,96,44,40,843,88.0,525,463,60,124.0,590,1,317,206,52,0,0,90,-1481,-9728,86,-5.59,,,,,,,,,,,,
269083,1564151616502,4,2.28,0.92,0.33,1.41,1.06,0.89,0.11,0.41,4,-2,7,0.9,6674,11,96,44,40,851,87.0,525,461,60,123.0,590,1,317,204,52,0,0,88,-1481,14284,86,181.28,,,,,,,,,,,,
269103,1564151616522,7,2.28,0.93,0.33,1.42,1.07,0.84,0.05,0.54,4,-1,5,0.84,6646,10,96,44,40,857,85.0,513,465,60,125.0,590,1,317,204,52,0,0,87,-13312,14284,84,-5.59,,,,,,,,,,,,
269123,1564151616542,2,2.28,0.92,0.33,1.41,1.07,0.84,0.09,0.45,4,0,5,0.85,6613,10,96,44,40,863,85.0,519,470,60,123.0,590,1,317,204,52,0,0,87,250,14284,83,-5.59,,,,,,,,,,,,
269143,1564151616562,6,2.28,0.93,0.33,1.4,1.07,0.92,0.05,0.52,3,-3,5,0.92,6592,10,96,44,40,862,84.0,516,464,60,123.0,590,1,316,204,52,0,0,85,250,14270,83,-5.59,44.680866,10.024442,9.02,173.2,0,0.0,-1,0.0,0.0,0,1.72,4.4857
269163,1564151616582,1,2.29,0.92,0.33,1.41,1.07,0.83,0.01,0.53,3,-2,3,0.83,6578,10,96,44,40,862,82.0,508,466,60,123.0,614,1,316,204,51,0,0,85,14270,14270,81,-5.59,,,,,,,,,,,,
269183,1564151616602,3,2.28,0.93,0.32,1.42,1.07,0.9,0.06,0.4,2,-1,3,0.9,6544,10,96,44,40,857,82.0,509,466,60,122.0,614,1,316,204,51,0,0,83,14270,-16896,81,-5.59,,,,,,,,,,,,
269203,1564151616622,4,2.29,0.92,0.33,1.41,1.06,0.93,0.05,0.41,2,-1,3,0.93,6469,10,96,44,40,853,80.0,509,462,60,122.0,614,1,316,204,51,0,0,81,250,-16896,79,-5.59,,,,,,,,,,,,
269223,1564151616642,2,2.29,0.93,0.32,1.41,1.07,0.86,0.03,0.42,1,-0,1,0.86,6436,10,96,44,40,850,78.0,496,465,60,124.0,614,1,316,204,51,0,0,81,14256,-1481,77,-5.59,,,,,,,,,,,,
269243,1564151616662,5,2.28,0.92,0.32,1.41,1.06,0.92,0.02,0.37,1,-2,1,0.92,6419,10,96,44,40,845,78.0,493,470,60,122.0,614,1,316,131,51,0,0,79,14256,-20480,77,-5.59,44.68087,10.024443,8.4,173.2,0,0.0,-1,0.0,0.0,0,1.72,4.4874
269263,1564151616682,6,2.29,0.92,0.33,1.41,1.07,0.96,0.01,0.36,1,-4,2,0.96,6386,10,96,44,40,839,75.0,502,466,60,123.0,636,1,316,204,49,0,0,77,-1481,-20480,75,-5.59,,,,,,,,,,,,
269283,1564151616703,5,2.29,0.93,0.33,1.41,1.07,0.86,0.02,0.45,1,-3,1,0.86,6351,10,96,44,40,836,75.0,501,465,60,124.0,636,1,316,205,49,0,0,77,-1481,-1481,75,-5.59,,,,,,,,,,,,
269303,1564151616723,4,2.29,0.93,0.33,1.41,1.07,0.83,0.07,0.47,0,0,1,0.83,6296,10,96,44,41,834,73.0,497,467,60,123.0,636,1,323,205,49,0,0,75,-24064,-1481,73,-5.59,,,,,,,,,,,,
269323,1564151616743,3,2.29,0.93,0.33,1.41,1.07,0.94,0.08,0.43,0,1,1,0.95,6285,10,96,44,41,834,73.0,496,467,60,123.0,636,1,323,205,49,0,0,75,-24064,-24064,73,-5.59,,,,,,,,,,,,
269343,1564151616763,4,2.29,0.93,0.33,1.41,1.07,1.05,0.08,0.42,-0,-1,1,1.06,6179,10,96,44,41,831,71.0,491,466,60,123.0,636,1,322,205,49,0,0,72,-1481,-24064,71,-5.59,44.680874,10.024443,7.94,173.2,0,0.0,-1,0.0,0.0,0,1.72,4.489
269363,1564151616783,4,2.3,0.93,0.33,1.41,1.07,1.09,0.09,0.44,-0,-2,1,1.09,6143,10,96,44,41,829,71.0,492,467,60,122.0,661,1,322,205,47,0,0,72,-27648,14228,71,-5.59,,,,,,,,,,,,
269383,1564151616802,4,2.31,0.92,0.33,1.41,1.07,1.07,0.04,0.46,-1,-3,1,1.07,6129,10,96,44,41,829,69.0,489,465,60,123.0,661,1,322,205,47,0,0,70,-27648,14228,68,-5.59,,,,,,,,,,,,
269403,1564151616822,5,2.32,0.93,0.33,1.42,1.07,0.98,-0.01,0.49,-1,-4,1,0.98,6058,10,96,44,41,828,69.0,489,463,60,122.0,661,1,322,205,47,0,0,70,14054,-1482,68,-5.59,,,,,,,,,,,,
269423,1564151616842,6,2.32,0.93,0.33,1.42,1.07,0.88,-0.07,0.5,-1,-3,1,0.88,6046,10,96,44,41,828,66.0,481,466,60,123.0,661,1,322,206,47,0,0,67,14054,-1482,66,-5.59,,,,,,,,,,,,
269443,1564151616862,6,2.32,0.93,0.33,1.42,1.07,0.75,-0.11,0.51,-1,-2,2,0.76,5975,9,96,44,42,828,66.0,473,465,60,123.0,661,1,326,206,47,0,0,67,14054,-6656,66,-5.59,44.680874,10.024443,7.31,173.2,0,0.0,-1,0.0,0.0,0,1.72,4.4907
269463,1564151616882,5,2.33,0.93,0.33,1.41,1.07,0.66,-0.15,0.5,-1,-2,2,0.68,5933,9,96,44,42,830,63.0,464,465,60,124.0,730,1,323,206,46,0,0,64,-1281,-6656,63,-5.59,,,,,,,,,,,,
269483,1564151616902,5,2.34,0.92,0.33,1.41,1.07,0.6,-0.18,0.46,-1,-1,3,0.63,5885,9,96,44,42,831,63.0,470,463,60,124.0,730,1,320,207,46,0,0,64,-1281,-1,63,-5.59,,,,,,,,,,,,
269503,1564151616922,4,2.34,0.92,0.33,1.41,1.07,0.62,-0.17,0.44,-1,-2,3,0.64,5812,9,96,44,43,832,60.0,460,467,60,122.0,730,1,320,207,46,0,0,61,-1,-1,60,-5.59,,,,,,,,,,,,
269523,1564151616942,3,2.36,0.93,0.33,1.41,1.07,0.75,-0.16,0.47,-1,-4,3,0.76,5758,9,96,44,44,831,60.0,450,465,60,123.0,730,1,321,208,46,0,0,61,-1,-1,60,-5.59,,,,,,,,,,,,
269543,1564151616962,7,2.36,0.92,0.33,1.41,1.07,0.87,-0.13,0.44,-1,-4,2,0.88,5664,9,96,44,45,830,57.0,442,466,60,123.0,730,1,319,208,46,0,0,57,-1,-1,57,-5.59,44.680878,10.024443,6.62,173.2,0,0.0,-1,0.0,0.0,0,1.72,4.4924
269563,1564151616982,6,2.35,0.93,0.33,1.41,1.07,0.82,-0.1,0.46,-1,-1,2,0.83,5565,9,96,44,45,830,57.0,441,464,60,123.0,771,1,310,211,44,0,0,57,-1,-1,57,-5.59,,,,,,,,,,,,
269583,1564151616994,4,2.35,0.92,0.32,1.42,1.07,0.77,-0.07,0.47,-1,-2,2,0.77,5445,9,96,44,47,830,56.0,431,465,60,122.0,771,1,310,213,44,0,0,54,-1,-1,53,-5.59,,,,,,,,,,,,
269603,1564151617014,6,2.35,0.93,0.33,1.41,1.07,0.89,-0.08,0.51,-1,-3,2,0.9,5360,9,96,44,48,830,53.0,413,463,60,122.0,771,1,306,215,44,0,0,54,-1,-1,53,-5.59,,,,,,,,,,,,
269623,1564151617034,3,2.36,0.93,0.33,1.42,1.07,0.82,-0.11,0.46,-1,-0,2,0.83,5280,9,96,44,49,830,53.0,420,465,60,122.0,771,1,303,147,44,0,0,54,-1,-1,53,-5.59,,,,,,,,,,,,
269643,1564151617054,7,2.35,0.93,0.32,1.42,1.07,0.94,-0.1,0.46,-1,-2,1,0.94,5277,9,96,44,50,831,50.0,411,462,60,122.0,771,1,306,150,44,0,0,50,-1,-1,50,-5.59,44.680878,10.024443,5.94,173.2,0,0.0,-1,0.0,0.0,0,1.72,4.4941
269663,1564151617074,3,2.35,0.93,0.33,1.41,1.07,0.85,-0.11,0.4,-1,-2,1,0.85,5198,9,96,44,51,833,50.0,407,467,60,122.0,880,1,304,225,44,0,0,50,-1,-1,50,-5.59,,,,,,,,,,,,
269683,1564151617101,6,2.35,0.92,0.32,1.41,1.08,0.92,-0.06,0.42,-1,-3,1,0.92,5153,9,96,44,52,833,50.0,400,465,60,123.0,880,1,304,228,44,0,0,50,-1,-1,50,181.28,,,,,,,,,,,,
269703,1564151617121,4,2.35,0.93,0.33,1.41,1.07,0.87,-0.05,0.33,-0,-1,1,0.87,5048,9,96,44,53,833,46.0,410,465,60,120.0,880,1,299,229,44,0,0,46,-1,-1,46,-5.59,,,,,,,,,,,,
269723,1564151617141,3,2.35,0.93,0.33,1.42,1.07,0.93,-0.03,0.36,-0,-1,1,0.93,5033,9,96,44,53,833,46.0,394,467,60,122.0,880,1,298,229,44,0,0,46,-1,-1,46,-5.59,,,,,,,,,,,,
269743,1564151617161,6,2.34,0.92,0.32,1.41,1.07,0.97,-0.06,0.38,-1,-3,1,0.97,5001,9,96,44,55,836,46.0,385,462,60,124.0,880,1,297,232,44,0,0,46,-1,-1,46,-5.59,44.680882,10.024443,5.04,173.2,0,0.0,-1,0.0,0.0,0,1.72,4.4957
269763,1564151617181,2,2.35,0.93,0.33,1.41,1.08,0.91,-0.03,0.33,-1,-1,1,0.91,4909,9,96,44,55,842,41.0,387,470,60,124.0,934,1,286,234,43,0,0,41,1018,-1,41,-5.59,,,,,,,,,,,,
269783,1564151617201,3,2.35,0.93,0.33,1.41,1.07,0.93,-0.05,0.4,-1,-1,0,0.93,4927,9,96,44,55,851,41.0,383,462,60,122.0,934,1,288,238,43,0,0,41,1018,1018,41,-5.59,,,,,,,,,,,,
269803,1564151617221,3,2.35,0.93,0.33,1.41,1.06,1.0,-0.02,0.44,-1,-3,1,1.0,4856,9,96,44,56,860,41.0,373,465,60,124.0,934,1,276,237,43,0,0,41,1018,1018,41,-5.59,,,,,,,,,,,,
269823,1564151617241,5,2.35,0.93,0.33,1.42,1.08,0.97,-0.02,0.38,-1,-2,1,0.97,4852,9,96,44,57,864,41.0,371,460,60,124.0,934,1,271,237,43,0,0,41,1018,1018,41,-5.59,,,,,,,,,,,,
269843,1564151617261,3,2.35,0.93,0.33,1.41,1.08,0.94,-0.01,0.34,-0,-1,1,0.94,4813,9,96,44,57,866,36.0,365,468,60,124.0,934,1,267,242,43,0,0,36,-1,1018,36,-5.59,44.680882,10.024443,4.35,173.2,0,0.0,-1,0.0,0.0,0,1.72,4.4974
269863,1564151617281,3,2.35,0.93,0.33,1.41,1.07,0.91,-0.01,0.36,-0,-0,1,0.91,4796,9,96,44,57,867,36.0,371,466,60,123.0,1194,1,265,241,43,0,0,36,-1,-1,36,-5.59,,,,,,,,,,,,
269883,1564151617301,2,2.35,0.93,0.33,1.42,1.07,0.94,-0.02,0.47,-0,-1,0,0.94,4789,9,96,44,57,861,36.0,373,465,60,123.0,1194,1,264,170,43,0,0,36,-1,-1,36,-5.59,,,,,,,,,,,,
269903,1564151617321,4,2.34,0.93,0.33,1.42,1.07,0.98,0.03,0.48,-0,-2,0,0.98,4752,9,96,44,57,856,36.0,362,466,60,123.0,1194,1,259,241,43,0,0,36,-1,-1,36,181.28,,,,,,,,,,,,
269923,1564151617341,6,2.34,0.93,0.33,1.41,1.07,0.97,0.03,0.41,-0,-1,1,0.97,4724,9,96,44,58,850,30.0,362,459,60,124.0,1194,1,254,245,43,0,0,30,-1,-1,30,181.28,,,,,,,,,,,,
269943,1564151617361,6,2.34,0.93,0.33,1.42,1.07,0.97,0.02,0.37,-0,-1,1,0.97,4701,9,96,44,58,846,30.0,357,470,60,124.0,1194,1,251,245,43,0,0,30,-1,-1,30,-5.59,44.680882,10.024443,3.59,173.2,0,0.0,-1,0.0,0.0,0,1.72,4.4991
269963,1564151617381,7,2.34,0.93,0.33,1.42,1.07,0.94,0.03,0.31,-0,1,1,0.94,4720,9,96,44,58,847,30.0,367,466,60,123.0,1433,1,253,245,43,0,0,30,-1,-1,30,-5.59,,,,,,,,,,,,
269983,1564151617401,4,2.34,0.93,0.33,1.41,1.07,0.92,0.03,0.28,0,0,1,0.92,4731,9,96,44,58,849,30.0,366,461,60,123.0,1433,1,254,245,43,0,0,30,-1,-1,30,-5.59,,,,,,,,,,,,
270003,1564151617421,3,2.34,0.93,0.33,1.42,1.07,0.9,0.03,0.33,0,-1,-0,0.9,4700,9,95,44,59,852,30.0,362,469,60,123.0,1433,1,248,250,43,0,0,30,-1,-1,30,-5.59,,,,,,,,,,,,
270023,1564151617441,4,2.34,0.92,0.33,1.41,1.07,0.93,0.06,0.38,0,-1,-0,0.94,4683,9,95,44,58,855,30.0,364,463,60,123.0,1433,1,249,249,43,0,0,23,-1,-1,23,-5.59,,,,,,,,,,,,
