"Interval"|"ms"|0|0|1,"Utc"|"ms"|0|0|1,"FB_p"|"bar"|0|300|50,"Volant"|"F"|0.0|300.0|50,"xFR"|"mm"|0.0|5.0|50,"xRR"|"mm"|0.0|5.0|50,"xFL"|"mm"|0.0|5.0|50,"xRL"|"mm"|0.0|5.0|50,"AccelX"|"G"|-3.0|3.0|50,"AccelY"|"G"|-3.0|3.0|50,"AccelZ"|"G"|-3.0|3.0|50,"Yaw"|"Deg/Sec"|-120|120|50,"Pitch"|"Deg/Sec"|-120|120|50,"Roll"|"Deg/Sec"|-120|120|50,"Gsum"|"G"|0.0|3.0|50,"RPM"|""|0|14000|50,"TPS"|"%"|0|100|50,"WaterTemp"|"?C"|0|300|50,"AirTemp"|"?C"|-1000|1000|50,"MAP"|"KPa"|0|255|50,"Lambda"|""|0|1024|50,"WheelSpeed"|"MPH"|0.0|150.0|50,"OilPress"|"PSI"|0|150|50,"FuelPress"|"PSI"|0|150|50,"OilTemp"|"F"|0|300|50,"Battery"|"Volts"|0.0|20.0|50,"FuelCon"|"L/h"|-1000|1000|50,"Gear"|""|0|10|50,"Advance"|"Deg"|-360|360|50,"Injection"|"ms"|-1000|1000|50,"FuelCon"|"L/100km"|-1000|1000|50,"LC_But_Pres"|""|-1000|1000|50,"LC_Active"|""|-1000|1000|50,"RD_Speed"|""|-1000|1000|50,"RUD_Speed"|""|-1000|1000|50,"LD_Speed"|""|-1000|1000|50,"LUD_Speed"|""|-1000|1000|50,"Ana1"|"bar"|-1000.0|1000.0|50,"Latitude"|"Degrees"|-180.0|180.0|10,"Longitude"|"Degrees"|-180.0|180.0|10,"Speed"|"kph"|0.0|150.0|10,"Altitude"|"m"|0.0|4000.0|10,"LapCount"|""|0|0|10,"LapTime"|"Min"|0.0|0.0|10,"Sector"|""|0|0|10,"SectorTime"|"Min"|0.0|0.0|10,"ElapsedTime"|"Min"|0.0|0.0|10,"CurrentLap"|""|0|0|10,"Distance"|"km"|0.0|0.0|10,"SessionTime"|"Min"|0.0|0.0|10
163063,1564152907766,2,2.42,0.93,0.32,1.47,1.09,1.01,-0.63,0.55,15,0,19,1.19,10593,27,88,43,38,833,564.0,600,462,60,119.0,156,1,317,214,89,0,0,563,2524,10432,564,-5.59,,,,,,,,,,,,
163083,1564152907786,3,2.42,0.93,0.32,1.47,1.1,1.05,-0.76,0.69,15,3,17,1.3,10599,27,88,43,38,832,563.0,630,466,60,119.0,152,1,317,214,86,0,0,561,-22519,-8188,563,-5.59,,,,,,,,,,,,
163103,1564152907794,1,2.42,0.93,0.32,1.47,1.1,1.15,-0.89,0.82,14,2,15,1.45,10527,27,88,43,37,830,562.0,642,462,60,120.0,152,1,314,214,86,0,0,567,2524,774,562,-5.59,,,,,,,,,,,,
163123,1564152907814,3,2.41,0.94,0.33,1.47,1.1,1.05,-1.0,0.93,14,0,14,1.45,10569,27,88,43,38,826,561.0,647,465,60,121.0,152,1,317,214,86,0,0,565,-8962,1780,561,-5.59,,,,,,,,,,,,
163143,1564152907834,1,2.41,0.94,0.32,1.47,1.09,1.12,-1.1,1.04,13,3,11,1.57,10515,27,88,43,38,823,562.0,655,466,60,120.0,152,1,317,214,86,0,0,560,-506,-3190,562,-5.59,44.680969,10.024949,56.17,177.0,0,0.0,-1,0.0,0.0,0,0.72,2.719
163163,1564152907854,3,2.4,0.93,0.32,1.47,1.09,1.16,-1.18,1.13,12,5,10,1.66,10533,27,88,43,38,819,558.0,653,468,60,121.0,152,1,317,214,86,0,0,558,-506,1760,558,-5.59,,,,,,,,,,,,
163183,1564152907874,2,2.39,0.93,0.32,1.47,1.09,1.24,-1.27,1.21,11,3,8,1.77,10474,27,88,43,38,818,559.0,652,465,60,121.0,151,1,317,213,84,0,0,552,-2336,-8186,555,-5.59,,,,,,,,,,,,
163203,1564152907894,1,2.4,0.92,0.32,1.47,1.09,1.2,-1.34,1.29,10,3,7,1.8,10515,27,88,43,38,818,557.0,653,460,60,120.0,151,1,317,214,84,0,0,559,1779,1780,557,-5.59,,,,,,,,,,,,
163223,1564152907906,2,2.38,0.93,0.32,1.47,1.09,1.28,-1.4,1.36,10,3,6,1.9,10463,27,88,43,37,819,553.0,655,463,60,120.0,151,1,314,213,84,0,0,553,-506,2211,553,-5.59,,,,,,,,,,,,
163243,1564152907926,3,2.38,0.92,0.32,1.47,1.09,1.25,-1.46,1.42,10,4,5,1.92,10504,27,88,43,38,823,555.0,658,464,60,120.0,151,1,317,214,84,0,0,553,-3082,-29984,555,-5.59,44.680965,10.024933,55.55,177.0,0,0.0,-1,0.0,0.0,0,0.72,2.7207
163263,1564152907946,3,2.38,0.91,0.31,1.45,1.09,1.32,-1.51,1.47,9,6,3,2.01,10457,27,88,43,37,827,552.0,655,461,60,120.0,151,1,314,213,84,0,0,557,-2336,6273,551,-5.59,,,,,,,,,,,,
163283,1564152907966,1,2.38,0.91,0.32,1.45,1.09,1.27,-1.56,1.52,9,4,2,2.01,10498,27,88,43,38,831,550.0,651,465,60,120.0,154,1,317,213,85,0,0,550,-2934,2211,550,-5.59,,,,,,,,,,,,
163303,1564152907998,3,2.37,0.89,0.31,1.45,1.08,1.3,-1.6,1.57,8,3,1,2.06,10463,27,88,43,38,837,551.0,656,465,60,120.0,154,1,317,213,85,0,0,552,1780,2211,551,-5.59,,,,,,,,,,,,
163323,1564152908018,1,2.38,0.9,0.31,1.45,1.08,1.29,-1.64,1.61,7,6,0,2.09,10515,27,88,43,38,847,547.0,655,467,60,121.0,154,1,317,214,85,0,0,554,1780,-18032,547,-5.59,,,,,,,,,,,,
163343,1564152908038,1,2.37,0.9,0.31,1.45,1.08,1.37,-1.68,1.65,7,4,-1,2.16,10451,27,88,43,38,857,549.0,655,466,60,121.0,154,1,317,213,85,0,0,555,-8186,-22359,548,-5.59,44.680954,10.024917,55.08,177.1,0,0.0,-1,0.0,0.0,0,0.72,2.7224
163363,1564152908058,2,2.38,0.9,0.32,1.44,1.09,1.27,-1.71,1.68,7,2,-0,2.13,10492,27,88,43,37,864,547.0,657,458,60,121.0,154,1,314,213,85,0,0,553,-30064,-23623,547,-5.59,,,,,,,,,,,,
163383,1564152908078,2,2.38,0.9,0.31,1.45,1.08,1.28,-1.73,1.71,7,4,-1,2.15,10439,28,88,43,37,871,546.0,652,463,60,120.0,153,1,314,213,84,0,0,549,-28648,2524,546,-5.59,,,,,,,,,,,,
163403,1564152908098,3,2.37,0.89,0.32,1.44,1.09,1.27,-1.76,1.73,6,5,-1,2.17,10486,28,88,43,37,880,545.0,658,464,60,121.0,153,1,314,213,84,0,0,550,-30064,-22359,545,-5.59,,,,,,,,,,,,
163423,1564152908108,0,2.37,0.89,0.32,1.44,1.08,1.33,-1.78,1.76,6,3,-2,2.22,10439,28,88,43,37,888,546.0,658,465,60,120.0,153,1,314,213,84,0,0,550,-28648,-22359,544,-5.59,,,,,,,,,,,,
163443,1564152908128,2,2.38,0.89,0.31,1.44,1.08,1.22,-1.8,1.74,6,1,-0,2.17,10486,28,88,43,37,891,544.0,658,462,60,120.0,153,1,314,213,84,0,0,546,-28648,-9072,543,-5.59,44.680946,10.024901,54.7,177.1,0,0.0,-1,0.0,0.0,0,0.73,2.7241
163463,1564152908148,2,2.37,0.88,0.32,1.45,1.08,1.16,-1.8,1.71,6,4,-0,2.14,10434,28,88,43,38,894,544.0,657,463,60,120.0,153,1,317,213,84,0,0,552,2104,6273,544,-5.59,,,,,,,,,,,,
163483,1564152908168,2,2.37,0.89,0.32,1.45,1.08,1.13,-1.81,1.65,6,4,0,2.14,10480,28,88,43,38,898,544.0,654,465,60,121.0,154,1,317,213,84,0,0,545,6274,2524,544,-5.59,,,,,,,,,,,,
163503,1564152908203,1,2.37,0.89,0.31,1.45,1.08,1.13,-1.76,1.63,6,3,1,2.09,10428,28,88,43,37,902,543.0,655,460,60,120.0,154,1,314,213,84,0,0,546,-22519,2524,543,-5.59,,,,,,,,,,,,
163523,1564152908223,1,2.37,0.9,0.31,1.45,1.08,1.05,-1.61,1.53,6,1,3,1.92,10469,28,88,43,38,903,542.0,657,466,60,121.0,154,1,317,213,84,0,0,547,-32248,-32504,542,-5.59,,,,,,,,,,,,
163543,1564152908243,2,2.37,0.89,0.3,1.44,1.08,0.95,-1.42,1.35,7,1,4,1.71,10405,28,88,43,38,905,540.0,656,466,60,120.0,154,1,317,213,84,0,0,546,14504,-22359,540,-5.59,44.680943,10.024886,54.16,177.1,0,0.0,-1,0.0,0.0,0,0.73,2.7257
163563,1564152908263,-0,2.37,0.88,0.31,1.44,1.08,0.86,-1.27,1.16,7,1,6,1.53,10416,28,88,43,38,906,540.0,656,467,60,120.0,154,1,317,213,84,0,0,549,-22519,-22263,540,-5.59,,,,,,,,,,,,
163583,1564152908283,0,2.37,0.88,0.31,1.44,1.08,0.82,-1.06,0.96,8,1,7,1.34,10457,28,88,43,38,907,539.0,662,463,60,120.0,155,1,317,213,84,0,0,545,-22519,-32248,539,-5.59,,,,,,,,,,,,
163603,1564152908291,0,2.37,0.87,0.3,1.43,1.08,0.84,-0.82,0.79,8,-3,9,1.17,10399,28,88,43,38,907,537.0,658,461,60,120.0,155,1,317,213,84,0,0,544,-28648,14504,537,-5.59,,,,,,,,,,,,
163623,1564152908311,1,2.37,0.88,0.31,1.44,1.07,0.71,-0.54,0.59,8,-1,10,0.89,10439,28,88,43,38,907,536.0,663,467,60,120.0,155,1,317,213,84,0,0,540,-9072,-28648,536,-5.59,,,,,,,,,,,,
163643,1564152908331,-1,2.38,0.87,0.31,1.43,1.08,0.72,-0.29,0.34,8,-0,11,0.78,10382,28,88,43,38,909,538.0,659,458,60,120.0,155,1,317,213,84,0,0,542,2524,-32248,538,-5.59,44.680931,10.02487,53.99,177.2,0,0.0,-1,0.0,0.0,0,0.73,2.7274
163663,1564152908351,3,2.37,0.88,0.31,1.44,1.08,0.72,-0.12,0.28,8,-2,11,0.73,10387,27,88,43,38,910,537.0,658,462,60,120.0,155,1,317,213,84,0,0,544,2524,-506,537,-5.59,,,,,,,,,,,,
163683,1564152908371,3,2.37,0.88,0.31,1.44,1.08,0.8,-0.09,0.28,7,-1,10,0.8,10273,20,88,43,37,912,537.0,655,465,60,121.0,152,1,314,212,82,0,0,547,2524,-22263,537,-5.59,,,,,,,,,,,,
163703,1564152908391,2,2.37,0.88,0.31,1.44,1.08,0.85,-0.25,0.35,7,1,8,0.88,10212,13,88,43,34,913,537.0,655,466,60,120.0,152,1,305,209,82,0,0,550,2524,-9072,537,-5.59,,,,,,,,,,,,
163723,1564152908405,1,2.38,0.87,0.31,1.43,1.08,0.88,-0.28,0.44,7,-0,8,0.92,10026,7,88,43,31,915,536.0,654,465,60,119.0,152,1,295,201,82,0,0,543,-28648,14504,536,-5.59,,,,,,,,,,,,
163743,1564152908425,3,2.37,0.88,0.31,1.44,1.07,0.97,-0.23,0.47,6,-1,8,1.0,9847,5,88,43,29,917,536.0,655,465,60,120.0,152,1,287,194,82,0,0,547,-9072,14504,536,-5.59,44.680923,10.024853,53.75,177.2,0,0.0,-1,0.0,0.0,0,0.73,2.729
163763,1564152908445,0,2.37,0.88,0.31,1.44,1.07,0.92,-0.22,0.41,6,-1,8,0.95,9659,5,88,43,28,918,534.0,650,468,60,120.0,152,1,282,190,82,0,0,542,6274,-22519,534,-5.59,,,,,,,,,,,,
163783,1564152908465,0,2.37,0.88,0.31,1.43,1.08,0.91,-0.3,0.45,6,-1,8,0.96,9455,0,88,43,27,919,534.0,651,463,60,120.0,125,1,278,187,67,0,0,535,-32248,-2934,534,-5.59,,,,,,,,,,,,
163803,1564152908497,2,2.36,0.88,0.31,1.44,1.08,0.96,-0.29,0.6,6,0,6,1.0,9245,0,88,43,27,919,534.0,648,467,60,121.0,125,1,278,186,67,0,0,543,-28648,-8962,534,-5.59,,,,,,,,,,,,
163823,1564152908517,2,2.37,0.87,0.31,1.43,1.08,1.06,-0.12,0.5,6,1,7,1.06,9001,0,88,43,26,918,534.0,640,467,60,121.0,125,1,274,185,67,0,0,534,2088,-8186,534,-5.59,,,,,,,,,,,,
163843,1564152908537,2,2.37,0.86,0.3,1.43,1.07,1.15,-0.05,0.56,6,-0,6,1.16,9014,0,88,43,26,918,534.0,635,462,60,122.0,125,1,274,185,67,0,0,513,-9212,6274,529,-5.59,44.68092,10.024837,53.44,177.2,0,0.0,-1,0.0,0.0,0,0.73,2.7307
163863,1564152908557,2,2.36,0.84,0.3,1.41,1.06,1.24,0.03,0.59,5,-3,6,1.24,9010,0,88,43,26,918,525.0,632,468,60,121.0,125,1,274,185,67,0,0,521,15679,10408,527,-5.59,,,,,,,,,,,,
163883,1564152908577,3,2.36,0.84,0.3,1.41,1.07,1.28,0.09,0.61,5,-2,6,1.28,9066,0,88,43,25,919,523.0,638,464,60,121.0,120,1,270,185,63,0,0,509,16383,15661,523,-5.59,,,,,,,,,,,,
163903,1564152908597,3,2.36,0.84,0.3,1.41,1.06,1.35,0.16,0.59,5,-2,7,1.36,9075,0,88,43,25,921,520.0,638,466,60,120.0,120,1,270,185,63,0,0,504,-3482,15661,522,-5.59,,,,,,,,,,,,
163923,1564152908609,4,2.36,0.85,0.3,1.41,1.07,1.35,0.27,0.55,5,-3,6,1.37,9062,0,88,43,25,923,518.0,640,465,60,121.0,120,1,270,185,63,0,0,498,10994,17136,515,-5.59,,,,,,,,,,,,
163943,1564152908629,3,2.36,0.84,0.3,1.41,1.06,1.36,0.29,0.5,5,-4,6,1.4,9119,0,88,43,25,925,513.0,643,467,60,122.0,120,1,270,185,63,0,0,503,2109,-28648,511,-5.59,44.680912,10.024821,52.98,177.3,0,0.0,-1,0.0,0.0,0,0.73,2.7324
163963,1564152908649,5,2.35,0.83,0.3,1.41,1.06,1.25,0.32,0.37,5,-3,7,1.29,9124,0,88,43,24,943,508.0,645,461,60,121.0,120,1,270,178,63,0,0,494,10408,2524,507,-5.59,,,,,,,,,,,,
163983,1564152908669,2,2.35,0.83,0.29,1.41,1.06,1.17,0.22,0.31,5,-2,8,1.19,9155,0,88,43,24,968,507.0,646,466,60,121.0,121,1,270,178,61,0,0,497,-9216,-9216,507,-5.59,,,,,,,,,,,,
164003,1564152908703,2,2.36,0.84,0.3,1.41,1.06,1.05,0.13,0.21,5,-0,8,1.06,9164,0,88,43,24,993,501.0,643,454,60,122.0,121,1,270,178,61,0,0,492,998,-6656,501,-5.59,,,,,,,,,,,,
164023,1564152908723,3,2.35,0.83,0.3,1.41,1.06,1.03,0.04,0.25,5,1,6,1.03,9159,0,88,43,24,1016,497.0,645,460,60,121.0,121,1,270,178,61,0,0,492,248,-1562,497,-5.59,,,,,,,,,,,,
164043,1564152908743,3,2.36,0.83,0.3,1.41,1.07,1.13,-0.05,0.34,5,2,6,1.13,9137,0,88,43,23,1044,492.0,643,463,60,122.0,121,1,270,178,61,0,0,482,-6441,248,492,-5.59,44.680904,10.024805,51.59,177.3,0,0.0,-1,0.0,0.0,0,0.73,2.7341
164063,1564152908763,3,2.35,0.83,0.3,1.41,1.06,1.22,-0.05,0.39,4,4,5,1.22,9097,0,88,43,23,1077,488.0,639,463,60,121.0,121,1,270,173,61,0,0,485,-899,505,488,-5.59,,,,,,,,,,,,
164083,1564152908783,4,2.36,0.82,0.3,1.4,1.06,1.3,-0.11,0.4,3,2,5,1.3,9053,0,88,43,24,1101,484.0,636,461,60,122.0,125,1,270,173,61,0,0,482,2212,-1562,484,-5.59,,,,,,,,,,,,
164103,1564152908797,5,2.36,0.82,0.29,1.41,1.06,1.37,-0.04,0.36,3,1,5,1.37,8984,0,88,43,24,1111,483.0,637,468,60,122.0,125,1,270,173,61,0,0,480,-23367,8488,483,-5.59,,,,,,,,,,,,
164123,1564152908817,4,2.36,0.82,0.3,1.4,1.06,1.43,-0.03,0.43,2,-0,5,1.43,8907,0,88,43,24,1123,477.0,637,463,60,120.0,125,1,270,178,61,0,0,479,-17956,2212,477,-5.59,,,,,,,,,,,,
164143,1564152908837,3,2.35,0.82,0.3,1.4,1.05,1.49,-0.07,0.42,2,1,5,1.5,8823,0,88,43,24,1138,475.0,637,465,60,122.0,125,1,270,178,61,0,0,470,8488,-9203,472,-5.59,44.680901,10.024789,49.5,177.4,0,0.0,-1,0.0,0.0,0,0.74,2.7357
164163,1564152908857,4,2.36,0.82,0.29,1.4,1.06,1.5,-0.15,0.34,3,2,5,1.51,8749,0,88,43,25,1150,471.0,638,460,60,121.0,125,1,270,178,61,0,0,470,-3210,32033,471,-5.59,,,,,,,,,,,,
164183,1564152908877,9,2.35,0.82,0.29,1.4,1.06,1.37,-0.18,0.29,3,1,4,1.38,8676,0,88,43,25,1155,465.0,637,463,60,120.0,131,1,270,185,61,0,0,467,2211,243,465,-5.59,,,,,,,,,,,,
164203,1564152908897,8,2.36,0.82,0.29,1.4,1.05,1.29,-0.05,0.2,3,1,5,1.29,8612,0,88,43,25,1160,461.0,636,462,60,121.0,131,1,270,185,61,0,0,460,14488,2211,461,-5.59,,,,,,,,,,,,
164223,1564152908909,7,2.36,0.81,0.29,1.38,1.06,1.34,-0.03,0.36,3,1,5,1.34,8577,0,88,43,25,1167,457.0,635,463,60,120.0,131,1,270,185,61,0,0,455,-8985,-9160,457,-5.59,,,,,,,,,,,,
164243,1564152908929,9,2.36,0.82,0.3,1.39,1.06,1.26,-0.08,0.26,3,0,5,1.27,8488,0,88,43,25,1172,454.0,627,462,60,121.0,131,1,270,184,61,0,0,457,15649,8488,454,-5.59,44.680897,10.024774,47.8,177.4,0,0.0,-1,0.0,0.0,0,0.74,2.7374
164263,1564152908949,8,2.36,0.81,0.3,1.39,1.06,1.26,-0.01,0.26,3,-1,5,1.26,8393,0,88,43,25,1173,450.0,630,463,60,120.0,131,1,270,178,61,0,0,447,10305,21432,450,-5.59,,,,,,,,,,,,
164283,1564152908969,7,2.36,0.81,0.3,1.39,1.06,1.19,0.04,0.23,4,0,4,1.19,8274,0,88,43,25,1174,446.0,626,465,60,120.0,122,1,270,172,55,0,0,444,26704,2131,446,-5.59,,,,,,,,,,,,
164303,1564152909003,9,2.36,0.81,0.3,1.4,1.06,1.2,0.02,0.17,4,-0,4,1.2,8191,0,88,43,25,1174,443.0,625,462,60,119.0,122,1,270,169,55,0,0,439,19477,2131,442,-5.59,,,,,,,,,,,,
164323,1564152909023,10,2.37,0.82,0.3,1.4,1.05,1.15,0.02,0.16,4,1,4,1.15,8173,0,88,43,25,1175,438.0,627,464,60,122.0,122,1,270,166,55,0,0,434,243,-768,438,-5.59,,,,,,,,,,,,
164343,1564152909043,9,2.36,0.83,0.3,1.41,1.06,1.24,0.03,0.17,4,0,4,1.24,8099,0,88,43,25,1174,434.0,620,463,60,120.0,122,1,270,161,55,0,0,433,31796,-3314,434,-5.59,44.680889,10.024759,45.96,177.4,0,0.0,-1,0.0,0.0,0,0.74,2.739
164363,1564152909063,10,2.36,0.83,0.3,1.41,1.06,1.16,-0.01,0.15,4,-1,4,1.16,8019,0,88,43,25,1173,430.0,624,464,60,122.0,122,1,270,157,55,0,0,427,-3856,3826,430,-5.59,,,,,,,,,,,,
164383,1564152909083,11,2.36,0.83,0.3,1.4,1.05,1.14,0.04,0.14,4,-1,4,1.14,7988,0,88,43,24,1171,426.0,622,462,60,122.0,107,1,269,153,46,0,0,428,3826,-3856,426,-5.59,,,,,,,,,,,,
164403,1564152909095,9,2.36,0.83,0.3,1.4,1.06,1.23,0.09,0.14,3,0,4,1.24,7891,0,88,43,24,1168,422.0,618,467,60,118.0,107,1,269,153,46,0,0,425,-8165,-4082,422,-5.59,,,,,,,,,,,,
164423,1564152909115,6,2.36,0.82,0.3,1.4,1.06,1.24,0.06,0.13,3,-1,3,1.24,7845,0,88,43,24,1166,419.0,617,462,60,120.0,107,1,268,153,46,0,0,422,-26615,13552,419,-5.59,,,,,,,,,,,,
164443,1564152909135,9,2.36,0.83,0.3,1.4,1.05,1.17,0.04,0.07,3,-1,2,1.17,7805,0,88,43,24,1165,415.0,616,462,60,120.0,107,1,268,153,46,0,0,415,13040,-3414,415,-5.59,44.680885,10.024746,44.18,177.4,0,0.0,-1,0.0,0.0,0,0.74,2.7407
164463,1564152909155,11,2.36,0.82,0.3,1.41,1.05,1.07,0.09,-0.02,4,1,4,1.08,7700,0,88,43,24,1116,411.0,609,465,60,120.0,107,1,267,153,46,0,0,415,2524,18584,411,-5.59,,,,,,,,,,,,
164483,1564152909175,11,2.37,0.82,0.3,1.4,1.06,1.05,0.09,0.04,4,1,2,1.05,7653,0,88,44,24,1066,406.0,606,459,60,121.0,107,1,266,153,44,0,0,408,10541,13040,406,-5.59,,,,,,,,,,,,
164503,1564152909195,11,2.37,0.81,0.29,1.4,1.05,1.0,0.02,0.1,4,1,2,1.0,7569,0,88,44,24,1019,404.0,602,463,60,121.0,107,1,265,153,44,0,0,404,6512,1504,404,-5.59,,,,,,,,,,,,
164523,1564152909209,11,2.37,0.82,0.3,1.39,1.05,1.01,0.04,0.1,4,3,3,1.01,7476,0,88,44,24,972,399.0,592,466,60,121.0,107,1,264,153,44,0,0,407,28696,-26615,399,-5.59,,,,,,,,,,,,
164543,1564152909229,11,2.37,0.82,0.3,1.39,1.06,0.95,0.09,0.01,5,5,3,0.95,7309,0,88,44,24,926,399.0,585,461,60,122.0,107,1,263,153,44,0,0,398,-6656,-26615,399,-5.59,44.680882,10.024733,42.0,177.5,0,0.0,-1,0.0,0.0,0,0.74,2.7424
164563,1564152909249,9,2.38,0.83,0.29,1.4,1.05,0.84,0.05,-0.04,5,4,2,0.84,7189,0,88,44,25,880,396.0,573,465,60,121.0,107,1,261,156,44,0,0,396,-1562,1504,396,-5.59,,,,,,,,,,,,
164583,1564152909269,9,2.39,0.82,0.3,1.41,1.05,0.94,-0.02,0.07,5,2,2,0.94,7014,0,88,44,25,870,392.0,564,461,60,120.0,103,1,260,156,41,0,0,396,-3866,10541,392,-5.59,,,,,,,,,,,,
164603,1564152909304,10,2.4,0.83,0.3,1.41,1.06,0.96,-0.09,0.14,6,2,3,0.96,6893,0,88,44,26,872,391.0,554,466,60,119.0,103,1,266,156,41,0,0,388,-19126,11545,391,-5.59,,,,,,,,,,,,
164623,1564152909324,8,2.41,0.84,0.3,1.41,1.06,0.89,-0.08,0.11,6,3,3,0.89,6778,0,88,44,26,877,389.0,550,463,60,121.0,103,1,266,156,41,0,0,386,2278,-3968,389,-5.59,,,,,,,,,,,,
164643,1564152909344,9,2.41,0.85,0.3,1.41,1.06,1.0,-0.1,0.15,6,-0,5,1.01,6660,0,88,44,27,884,386.0,539,465,60,120.0,103,1,271,157,41,0,0,383,3,-1818,386,-5.59,44.680878,10.024719,40.2,177.5,0,0.0,-1,0.0,0.0,0,0.74,2.7441
164663,1564152909364,11,2.4,0.85,0.3,1.42,1.07,0.91,-0.15,0.21,6,-2,5,0.92,6474,0,88,44,27,890,385.0,530,462,60,121.0,103,1,272,159,41,0,0,381,-6656,505,385,-5.59,,,,,,,,,,,,
164683,1564152909384,8,2.4,0.86,0.31,1.43,1.07,0.88,-0.12,0.15,7,1,3,0.89,6368,0,88,44,28,895,381.0,519,465,60,123.0,99,1,276,159,38,0,0,379,257,1,381,-5.59,,,,,,,,,,,,
164703,1564152909398,9,2.4,0.86,0.3,1.43,1.06,0.97,-0.08,0.05,7,2,4,0.97,6254,0,88,44,29,898,379.0,508,465,60,122.0,99,1,280,160,38,0,0,376,486,-6475,379,-5.59,,,,,,,,,,,,
164723,1564152909418,7,2.41,0.86,0.31,1.42,1.07,1.03,-0.03,-0.01,8,3,5,1.04,6121,0,88,44,30,902,377.0,505,462,60,121.0,99,1,284,162,38,0,0,376,0,-31744,377,-5.59,,,,,,,,,,,,
164743,1564152909438,9,2.41,0.85,0.3,1.42,1.07,1.12,-0.0,-0.05,8,4,5,1.12,5994,0,88,44,30,902,374.0,492,462,60,121.0,99,1,283,161,38,0,0,371,3082,-18948,374,-5.59,44.68087,10.024707,38.78,177.5,0,0.0,-1,0.0,0.0,0,0.74,2.7457
164763,1564152909458,8,2.42,0.84,0.29,1.41,1.06,1.21,0.01,-0.08,8,4,6,1.21,5853,0,88,44,31,901,370.0,483,464,60,120.0,99,1,279,161,38,0,0,367,-14707,2278,370,-5.59,,,,,,,,,,,,
164783,1564152909478,10,2.41,0.83,0.29,1.4,1.04,1.24,-0.01,-0.1,9,4,5,1.24,5737,0,88,44,32,901,367.0,478,460,60,122.0,95,1,276,162,35,0,0,363,3302,3,367,-5.59,,,,,,,,,,,,
164803,1564152909498,8,2.43,0.82,0.29,1.4,1.04,1.15,-0.08,-0.08,9,5,6,1.16,5588,0,88,44,34,901,366.0,465,463,60,120.0,95,1,273,172,35,0,0,363,-6644,-6656,366,-5.59,,,,,,,,,,,,
164823,1564152909510,8,2.45,0.84,0.3,1.41,1.05,1.08,-0.09,-0.12,9,4,8,1.09,5442,0,88,44,36,901,363.0,452,461,60,120.0,95,1,270,182,35,0,0,357,28553,0,363,-5.59,,,,,,,,,,,,
164843,1564152909530,9,2.47,0.84,0.3,1.42,1.05,1.13,-0.1,-0.15,10,5,8,1.14,5351,0,88,44,37,904,362.0,442,466,60,121.0,95,1,267,187,35,0,0,353,-1246,-6656,362,181.28,44.680866,10.024694,37.41,177.5,0,0.0,-1,0.0,0.0,0,0.74,2.7474
164863,1564152909550,6,2.5,0.85,0.3,1.43,1.05,1.01,-0.14,-0.1,11,5,9,1.02,5221,0,88,44,39,906,360.0,430,463,60,120.0,95,1,263,199,35,0,0,351,-31206,-1268,360,-5.59,,,,,,,,,,,,
164883,1564152909570,8,2.52,0.87,0.3,1.43,1.07,1.08,-0.14,-0.14,12,6,11,1.09,5127,0,88,44,40,910,358.0,422,461,60,122.0,105,1,260,199,38,0,0,345,-31222,3082,358,-5.59,,,,,,,,,,,,
164903,1564152909590,9,2.55,0.89,0.31,1.43,1.07,1.08,-0.12,-0.12,13,2,13,1.09,5044,0,88,44,41,913,357.0,410,467,60,122.0,105,1,257,201,38,0,0,340,175,-6405,357,-5.59,,,,,,,,,,,,
164923,1564152909604,7,2.58,0.91,0.32,1.45,1.07,0.98,-0.23,-0.02,14,3,14,1.01,4927,0,88,44,42,915,355.0,398,463,60,121.0,105,1,250,201,38,0,0,333,-22016,2790,355,-5.59,,,,,,,,,,,,
164943,1564152909624,7,2.61,0.92,0.31,1.46,1.08,1.03,-0.3,-0.02,16,3,15,1.07,4817,0,88,44,43,920,353.0,392,463,60,121.0,105,1,241,200,38,0,0,327,-25856,-29302,353,-5.59,44.680866,10.024682,36.26,177.5,0,0.0,-1,0.0,0.0,0,0.75,2.7491
164963,1564152909644,7,2.62,0.92,0.32,1.45,1.08,1.08,-0.37,-0.03,18,1,16,1.14,4713,0,88,44,44,924,351.0,379,463,60,122.0,105,1,233,199,38,0,0,332,-28416,-6644,352,-5.59,,,,,,,,,,,,
164983,1564152909664,5,2.62,0.93,0.32,1.45,1.09,1.1,-0.42,-0.0,20,0,18,1.18,4586,0,88,44,44,928,350.0,371,457,60,122.0,99,1,220,196,35,0,0,303,135,-30454,350,-5.59,,,,,,,,,,,,
165003,1564152909700,5,2.63,0.93,0.33,1.46,1.08,1.14,-0.47,0.01,21,-1,22,1.23,4508,0,88,44,45,930,350.0,364,463,60,123.0,99,1,214,197,35,0,0,282,-32256,3302,350,181.28,,,,,,,,,,,,
165023,1564152909720,6,2.62,0.93,0.33,1.46,1.08,1.16,-0.52,-0.01,22,-1,25,1.27,4427,0,88,44,46,929,350.0,356,460,60,122.0,99,1,207,195,35,0,0,244,32000,4104,349,181.28,,,,,,,,,,,,
165043,1564152909740,5,2.62,0.93,0.32,1.45,1.09,1.23,-0.57,0.0,23,-2,27,1.35,4362,0,88,44,46,923,346.0,349,459,60,123.0,99,1,201,196,35,0,0,204,30720,3183,346,-5.59,44.680862,10.024672,35.0,177.6,0,0.0,-1,0.0,0.0,0,0.75,2.7507
165063,1564152909760,9,2.62,0.93,0.32,1.46,1.08,1.23,-0.61,0.03,24,-2,27,1.38,4269,0,88,44,46,916,344.0,346,463,60,120.0,99,1,191,194,35,0,0,196,120,28553,344,-5.59,,,,,,,,,,,,
165083,1564152909780,8,2.62,0.93,0.32,1.46,1.09,1.19,-0.63,0.05,24,0,27,1.34,4158,0,88,44,47,907,342.0,342,466,60,120.0,87,1,181,196,30,0,0,228,110,6870,342,-5.59,,,,,,,,,,,,
165103,1564152909794,6,2.62,0.93,0.32,1.46,1.08,1.15,-0.6,0.1,24,-0,28,1.3,4078,0,88,44,47,899,338.0,336,468,60,122.0,87,1,173,194,30,0,0,232,26880,6668,338,-5.59,,,,,,,,,,,,
165123,1564152909814,5,2.63,0.92,0.32,1.45,1.09,1.13,-0.61,0.1,24,-1,29,1.29,4007,0,88,44,48,891,336.0,326,460,60,122.0,87,1,165,197,30,0,0,222,100,6668,336,181.28,,,,,,,,,,,,
165143,1564152909834,7,2.62,0.92,0.32,1.46,1.08,1.11,-0.64,0.11,25,1,30,1.28,3978,0,88,44,48,884,334.0,324,462,60,119.0,87,1,164,196,30,0,0,218,24320,13,334,-5.59,44.680859,10.024659,33.49,177.6,0,0.0,-1,0.0,0.0,0,0.75,2.7524
165163,1564152909854,3,2.62,0.93,0.32,1.46,1.09,1.16,-0.61,0.08,25,-1,31,1.31,3947,0,88,44,49,885,330.0,312,467,60,121.0,87,1,164,199,30,0,0,246,80,-6528,330,181.28,,,,,,,,,,,,
165183,1564152909874,6,2.62,0.92,0.32,1.46,1.09,1.14,-0.61,0.07,25,0,32,1.29,3877,0,88,44,49,886,325.0,308,455,60,121.0,89,1,162,198,29,0,0,260,0,170,323,-5.59,,,,,,,,,,,,
165203,1564152909894,1,2.62,0.92,0.32,1.46,1.09,1.07,-0.6,0.14,25,2,32,1.22,3869,0,88,44,50,886,324.0,304,467,60,119.0,89,1,162,202,29,0,0,278,41,170,324,-5.59,,,,,,,,,,,,
165223,1564152909908,1,2.62,0.93,0.32,1.46,1.08,1.1,-0.61,0.14,26,0,34,1.25,3842,0,88,44,50,886,323.0,302,457,60,123.0,89,1,161,201,29,0,0,288,0,-22016,323,181.28,,,,,,,,,,,,
165243,1564152909928,0,2.62,0.93,0.32,1.46,1.08,1.04,-0.59,0.18,25,2,33,1.19,3759,0,88,44,51,885,321.0,300,467,60,119.0,89,1,158,205,29,0,0,292,0,-20736,321,-5.59,44.680859,10.024648,32.19,177.6,0,0.0,-1,0.0,0.0,0,0.75,2.754
165263,1564152909948,-0,2.62,0.92,0.32,1.46,1.08,1.07,-0.62,0.19,26,1,34,1.24,3740,0,88,44,51,884,320.0,296,459,60,122.0,89,1,158,204,29,0,0,292,41,-24576,320,-5.59,,,,,,,,,,,,
165283,1564152909968,0,2.62,0.92,0.32,1.45,1.09,1.02,-0.6,0.23,26,3,33,1.18,3689,0,88,44,52,884,318.0,265,461,60,119.0,90,1,156,207,29,0,0,289,250,150,318,-5.59,,,,,,,,,,,,
165303,1564152909988,2,2.62,0.92,0.32,1.45,1.09,1.03,-0.61,0.22,26,0,35,1.2,3630,0,88,44,53,883,318.0,264,461,60,122.0,90,1,154,206,29,0,0,288,250,160,318,181.28,,,,,,,,,,,,
165323,1564152909998,-1,2.62,0.93,0.32,1.45,1.08,1.01,-0.56,0.27,26,1,34,1.16,3578,0,88,44,54,884,316.0,245,466,60,119.0,90,1,153,213,29,0,0,285,-1529,150,316,181.28,,,,,,,,,,,,
165343,1564152910018,-0,2.63,0.92,0.32,1.46,1.09,0.97,-0.58,0.31,26,2,34,1.13,3496,0,88,45,54,884,315.0,258,458,60,119.0,90,1,150,213,29,0,0,287,1886,140,315,-5.59,44.680859,10.024638,30.66,177.6,0,0.0,-1,0.0,0.0,0,0.75,2.7557
165363,1564152910038,1,2.61,0.93,0.32,1.46,1.08,1.0,-0.59,0.29,27,-0,35,1.16,3437,0,88,45,55,888,316.0,256,466,60,121.0,90,1,0,216,29,0,0,285,250,-28416,315,181.28,,,,,,,,,,,,
165383,1564152910058,3,2.61,0.93,0.32,1.46,1.08,1.03,-0.57,0.24,26,-2,36,1.18,3367,0,88,45,57,892,314.0,252,467,60,120.0,88,1,150,224,28,0,0,282,250,-27136,314,181.28,,,,,,,,,,,,
165403,1564152910098,0,2.62,0.93,0.32,1.45,1.09,0.99,-0.55,0.3,26,-1,35,1.13,3309,0,88,45,58,895,313.0,256,459,60,121.0,88,1,0,224,28,0,0,281,-1534,135,312,181.28,,,,,,,,,,,,
165423,1564152910118,-0,2.62,0.93,0.32,1.45,1.08,0.93,-0.56,0.34,26,2,33,1.09,3147,0,88,45,58,898,311.0,251,456,60,121.0,88,1,0,229,28,0,0,281,-1534,140,311,-5.59,,,,,,,,,,,,
165443,1564152910138,-0,2.63,0.92,0.32,1.46,1.09,0.89,-0.55,0.39,25,4,33,1.05,3064,0,88,45,60,903,311.0,255,458,60,120.0,88,1,150,236,28,0,0,280,630,-30976,311,-5.59,44.680859,10.024628,30.04,177.6,0,0.0,-1,0.0,0.0,0,0.75,2.7574
165463,1564152910158,-0,2.62,0.93,0.33,1.45,1.09,0.85,-0.55,0.45,25,5,33,1.01,2968,0,88,45,60,908,310.0,248,457,60,120.0,88,1,150,236,28,0,0,282,630,140,310,-5.59,,,,,,,,,,,,
165483,1564152910178,2,2.62,0.93,0.32,1.45,1.08,0.82,-0.53,0.49,25,5,33,0.98,2857,5,88,45,61,910,310.0,246,456,60,120.0,83,1,150,241,26,0,0,281,-1527,130,310,-5.59,,,,,,,,,,,,
165503,1564152910198,3,2.62,0.93,0.32,1.46,1.08,0.82,-0.53,0.49,26,5,32,0.97,2803,5,88,45,63,913,308.0,240,459,60,122.0,83,1,0,246,26,0,0,277,-1527,125,308,414.87,,,,,,,,,,,,
165523,1564152910210,-0,2.62,0.93,0.32,1.46,1.09,0.84,-0.51,0.47,26,3,32,0.98,2737,5,88,45,64,914,309.0,238,461,60,122.0,83,1,0,249,26,0,0,278,28160,-32256,309,181.28,,,,,,,,,,,,
165543,1564152910230,-0,2.62,0.93,0.32,1.46,1.09,0.86,-0.54,0.41,26,2,33,1.02,2632,5,88,45,65,915,308.0,235,464,60,122.0,83,1,0,251,26,0,0,278,2414,-32256,308,181.28,44.680859,10.024617,29.8,177.6,0,0.0,-1,0.0,0.0,0,0.75,2.759
165563,1564152910250,3,2.62,0.92,0.32,1.45,1.09,0.84,-0.55,0.47,26,3,33,1.01,2516,5,88,45,66,915,307.0,231,461,60,121.0,83,1,0,254,26,0,0,278,28160,125,307,-5.59,,,,,,,,,,,,
165583,1564152910270,-1,2.62,0.93,0.32,1.45,1.08,0.88,-0.55,0.47,26,2,32,1.03,2468,5,88,45,68,916,306.0,226,461,60,122.0,78,1,0,260,24,0,0,277,-1281,115,306,181.28,,,,,,,,,,,,
165603,1564152910290,-1,2.63,0.92,0.32,1.46,1.08,0.86,-0.56,0.43,26,2,34,1.02,2354,15,88,45,69,918,305.0,226,462,60,122.0,78,1,158,330,24,0,0,273,-1,120,305,-5.59,,,,,,,,,,,,
165623,1564152910305,0,2.62,0.92,0.32,1.45,1.09,0.88,-0.55,0.43,26,1,33,1.04,2298,19,88,45,73,921,303.0,220,456,60,122.0,78,1,148,320,24,0,0,272,-1,110,303,181.28,,,,,,,,,,,,
165643,1564152910325,0,2.63,0.92,0.32,1.46,1.08,0.88,-0.56,0.41,26,2,34,1.04,2190,23,88,45,77,925,302.0,218,461,60,122.0,78,1,139,313,24,0,0,271,-1,110,302,-5.59,44.680859,10.024607,29.21,177.6,0,0.0,-1,0.0,0.0,0,0.75,2.7607
165663,1564152910345,0,2.62,0.92,0.31,1.45,1.08,0.89,-0.56,0.44,26,1,34,1.05,2155,28,88,45,82,928,301.0,210,459,60,122.0,78,1,132,321,24,0,0,272,-1,110,301,181.28,,,,,,,,,,,,
165683,1564152910365,3,2.63,0.92,0.31,1.45,1.08,0.86,-0.55,0.46,26,2,35,1.02,2132,33,88,45,85,933,301.0,208,460,60,120.0,86,1,130,326,26,0,0,271,-1,105,300,-5.59,,,,,,,,,,,,
165703,1564152910401,-1,2.64,0.91,0.31,1.44,1.07,0.89,-0.56,0.43,26,0,34,1.05,2117,37,88,45,89,941,299.0,203,466,60,122.0,86,1,130,330,26,0,0,272,-1,110,299,181.28,,,,,,,,,,,,
165723,1564152910421,3,2.64,0.91,0.31,1.44,1.07,0.87,-0.55,0.48,26,1,33,1.03,2213,42,88,45,92,946,301.0,201,462,60,120.0,86,1,157,354,26,0,0,268,-1,28160,301,-5.59,,,,,,,,,,,,
165743,1564152910441,-0,2.64,0.91,0.31,1.44,1.08,0.92,-0.55,0.42,26,-1,33,1.07,2328,43,88,45,94,950,301.0,201,465,60,122.0,86,1,185,379,26,0,0,269,-1,26880,299,181.28,44.680859,10.024597,29.21,177.6,0,0.0,-1,0.0,0.0,0,0.75,2.7624
165763,1564152910461,-1,2.65,0.91,0.31,1.44,1.08,0.91,-0.55,0.4,27,0,35,1.06,2584,43,88,45,94,953,300.0,205,460,60,119.0,86,1,189,413,26,0,0,269,-1,26880,300,-5.59,,,,,,,,,,,,
165783,1564152910481,-1,2.66,0.9,0.3,1.44,1.07,0.84,-0.52,0.45,27,1,35,0.99,2669,43,88,45,94,955,299.0,210,458,60,120.0,150,1,193,445,45,0,0,268,-1,25600,299,-5.59,,,,,,,,,,,,
165803,1564152910497,4,2.66,0.91,0.31,1.44,1.08,0.82,-0.53,0.51,27,2,33,0.98,2756,43,88,45,94,957,298.0,208,455,60,120.0,150,1,197,477,45,0,0,265,-1,26880,298,-5.59,,,,,,,,,,,,
165823,1564152910517,3,2.67,0.9,0.3,1.44,1.07,0.83,-0.56,0.49,27,1,32,1.01,2807,43,88,45,94,956,296.0,214,454,60,122.0,150,1,200,495,45,0,0,264,-1,100,296,181.28,,,,,,,,,,,,
165843,1564152910537,2,2.67,0.91,0.31,1.43,1.08,0.85,-0.6,0.48,27,1,32,1.04,2894,43,88,45,94,952,296.0,217,462,60,121.0,150,1,204,524,45,0,0,261,-1,25600,296,181.28,44.680862,10.024588,28.59,177.6,0,0.0,-1,0.0,0.0,0,0.75,2.764
165863,1564152910557,-0,2.67,0.91,0.3,1.43,1.07,0.82,-0.6,0.46,26,1,31,1.02,3094,43,88,45,93,946,296.0,224,464,60,122.0,150,1,202,521,45,0,0,260,-41,90,296,181.28,,,,,,,,,,,,
165883,1564152910577,-0,2.67,0.9,0.31,1.44,1.07,0.73,-0.61,0.48,26,2,31,0.95,3365,43,88,45,92,939,295.0,233,448,60,119.0,203,1,195,493,60,0,0,260,-10440,25600,294,-5.59,,,,,,,,,,,,
165903,1564152910597,2,2.67,0.9,0.3,1.43,1.07,0.82,-0.62,0.44,27,-1,33,1.03,3487,43,88,45,91,934,294.0,241,453,60,120.0,203,1,187,452,60,0,0,259,-10440,23040,294,-5.59,,,,,,,,,,,,
165923,1564152910609,0,2.67,0.9,0.3,1.44,1.06,0.85,-0.6,0.42,27,-0,33,1.04,3723,43,89,45,90,933,294.0,246,468,60,120.0,203,1,190,441,60,0,0,256,506,21760,294,-5.59,,,,,,,,,,,,
165943,1564152910629,4,2.68,0.91,0.3,1.44,1.07,0.9,-0.6,0.39,28,-2,35,1.08,3882,43,88,45,90,945,292.0,261,447,60,121.0,203,1,198,469,60,0,0,256,-1281,20480,292,-5.59,44.680866,10.024578,27.99,177.6,0,0.0,-1,0.0,0.0,0,0.75,2.7657
165963,1564152910649,2,2.68,0.91,0.31,1.43,1.07,0.85,-0.61,0.41,27,-1,34,1.04,3966,42,88,45,89,959,291.0,270,457,60,118.0,203,1,201,476,60,0,0,256,-1,0,291,-5.59,,,,,,,,,,,,
165983,1564152910669,1,2.69,0.9,0.3,1.43,1.07,0.86,-0.58,0.4,28,-1,34,1.03,4047,32,89,45,88,978,291.0,276,469,60,121.0,250,1,206,472,73,0,0,252,10818,0,291,-5.59,,,,,,,,,,,,
166003,1564152910707,2,2.68,0.9,0.3,1.44,1.06,0.9,-0.58,0.4,28,-2,36,1.07,4201,20,88,45,85,1006,290.0,286,459,60,122.0,250,1,216,467,73,0,0,251,10818,0,290,181.28,,,,,,,,,,,,
166023,1564152910727,3,2.69,0.9,0.29,1.43,1.07,0.89,-0.59,0.41,29,-3,36,1.07,4358,11,88,45,81,1068,288.0,300,455,60,121.0,250,1,224,437,73,0,0,248,-1494,10686,288,-5.59,,,,,,,,,,,,
166043,1564152910747,2,2.7,0.9,0.3,1.43,1.07,0.92,-0.63,0.34,29,-3,37,1.11,4486,7,88,45,77,1129,286.0,308,455,60,120.0,250,1,233,394,73,0,0,245,-1445,250,286,-5.59,44.680866,10.024569,27.57,177.6,0,0.0,-1,0.0,0.0,0,0.76,2.7674
166063,1564152910767,3,2.69,0.9,0.3,1.44,1.06,0.95,-0.61,0.28,30,-3,38,1.13,4707,6,89,45,75,1171,282.0,317,456,60,122.0,250,1,250,365,73,0,0,244,23482,24064,282,181.28,,,,,,,,,,,,
166083,1564152910787,5,2.69,0.91,0.3,1.44,1.07,0.93,-0.55,0.26,29,-3,39,1.08,4828,6,89,45,72,1214,280.0,331,465,60,121.0,230,1,260,354,65,0,0,241,-17920,-1529,280,-5.59,,,,,,,,,,,,
166103,1564152910801,5,2.69,0.9,0.3,1.44,1.06,0.86,-0.56,0.29,29,-4,39,1.03,4867,5,89,45,70,1263,280.0,342,466,60,121.0,230,1,262,340,65,0,0,241,-1484,250,280,-5.59,,,,,,,,,,,,
166123,1564152910821,3,2.7,0.91,0.3,1.45,1.07,0.86,-0.57,0.37,29,-4,37,1.04,4917,5,88,45,69,1313,277.0,350,462,60,118.0,230,1,267,334,65,0,0,234,-1484,250,277,-5.59,,,,,,,,,,,,
166143,1564152910841,1,2.7,0.91,0.31,1.45,1.07,0.9,-0.58,0.35,29,-4,38,1.07,4871,5,88,45,67,1320,275.0,356,462,60,120.0,230,1,262,317,65,0,0,233,-1484,250,275,181.28,44.68087,10.024561,26.86,177.6,0,0.0,-1,0.0,0.0,0,0.76,2.7691
166163,1564152910861,5,2.7,0.91,0.3,1.44,1.08,0.92,-0.57,0.27,28,-4,39,1.09,4854,4,89,45,66,1326,275.0,358,462,60,121.0,230,1,259,307,65,0,0,235,-25600,28160,275,-5.59,,,,,,,,,,,,
166183,1564152910881,2,2.69,0.91,0.31,1.44,1.07,0.86,-0.58,0.31,28,-3,39,1.04,4876,4,89,45,65,1304,273.0,367,466,60,118.0,201,1,261,297,55,0,0,235,250,-1527,273,-5.59,,,,,,,,,,,,
166203,1564152910895,2,2.71,0.91,0.31,1.45,1.07,0.9,-0.57,0.35,28,-2,39,1.07,4826,4,88,45,63,1282,271.0,371,462,60,119.0,201,1,256,285,55,0,0,235,-1483,28160,270,-5.59,,,,,,,,,,,,
166223,1564152910915,2,2.7,0.91,0.31,1.44,1.07,0.93,-0.56,0.42,28,-3,39,1.08,4826,4,89,45,62,1253,269.0,369,460,60,121.0,201,1,255,270,55,0,0,232,-1494,-1,269,-5.59,,,,,,,,,,,,
166243,1564152910935,2,2.71,0.91,0.31,1.44,1.07,0.94,-0.59,0.41,28,-4,39,1.11,4777,3,89,45,62,1223,267.0,367,460,60,122.0,201,1,250,265,55,0,0,230,10824,-1,267,181.28,44.680874,10.024553,26.09,177.6,0,0.0,-1,0.0,0.0,0,0.76,2.7707
166263,1564152910955,4,2.7,0.91,0.31,1.44,1.07,0.97,-0.58,0.38,28,-3,39,1.13,4744,0,89,45,61,1152,264.0,369,464,60,121.0,201,1,247,258,55,0,0,230,18432,-1,264,-5.59,,,,,,,,,,,,
166283,1564152910975,6,2.71,0.91,0.31,1.44,1.08,0.95,-0.56,0.39,28,-4,39,1.11,4712,0,89,45,61,1080,264.0,367,467,60,121.0,174,1,244,258,46,0,0,227,-1496,-1,264,-5.59,,,,,,,,,,,,
166303,1564152910995,5,2.7,0.91,0.31,1.44,1.08,0.93,-0.59,0.41,29,-3,38,1.1,4686,0,89,45,60,1029,263.0,369,465,60,120.0,174,1,244,253,46,0,0,225,10318,-1,263,-5.59,,,,,,,,,,,,
166323,1564152911005,2,2.71,0.9,0.31,1.44,1.07,0.88,-0.6,0.43,29,-1,38,1.07,4656,0,89,45,59,986,262.0,364,463,60,118.0,174,1,243,253,46,0,0,225,250,-1,262,-5.59,,,,,,,,,,,,
166343,1564152911025,2,2.71,0.9,0.3,1.43,1.07,0.88,-0.63,0.47,29,0,37,1.08,4646,0,89,45,59,933,261.0,364,465,60,118.0,174,1,242,249,46,0,0,223,-1530,-41,261,-5.59,44.680878,10.024546,25.05,177.5,0,0.0,-1,0.0,0.0,0,0.76,2.7724
166363,1564152911045,1,2.71,0.9,0.31,1.44,1.07,0.92,-0.66,0.47,29,1,37,1.13,4574,0,89,45,58,878,257.0,360,457,60,120.0,174,1,237,244,46,0,0,222,1596,-10440,257,-5.59,,,,,,,,,,,,
166383,1564152911065,2,2.72,0.9,0.31,1.44,1.07,0.96,-0.65,0.46,29,1,38,1.16,4518,0,89,45,58,855,256.0,356,456,60,122.0,163,1,231,244,42,0,0,336,15360,-1281,256,-5.59,,,,,,,,,,,,
166403,1564152911103,2,2.72,0.9,0.31,1.44,1.07,1.0,-0.65,0.47,30,1,38,1.19,4494,0,89,45,57,843,256.0,353,459,60,123.0,163,1,229,239,42,0,0,336,15360,-1,256,-5.59,,,,,,,,,,,,
166423,1564152911123,2,2.72,0.9,0.31,1.44,1.07,1.0,-0.67,0.45,30,0,39,1.2,4409,0,89,45,57,830,255.0,349,467,60,121.0,163,1,220,239,42,0,0,336,1210,-1,255,-5.59,,,,,,,,,,,,
166443,1564152911143,1,2.74,0.9,0.3,1.43,1.07,0.99,-0.68,0.44,30,0,38,1.2,4409,0,89,45,56,816,254.0,347,457,60,122.0,163,1,221,234,42,0,0,336,250,-1281,254,-5.59,44.680885,10.02454,24.54,177.5,0,0.0,-1,0.0,0.0,0,0.76,2.774
166463,1564152911163,4,2.74,0.9,0.31,1.44,1.07,0.97,-0.73,0.46,29,1,37,1.22,4346,0,89,45,56,808,251.0,345,464,60,121.0,163,1,213,233,42,0,0,34,250,-1,251,-5.59,,,,,,,,,,,,
166483,1564152911183,3,2.74,0.91,0.31,1.44,1.08,0.92,-0.73,0.46,27,3,37,1.18,4290,0,89,45,56,806,252.0,341,468,60,120.0,146,1,206,232,37,0,0,210,1088,-214,251,-5.59,,,,,,,,,,,,
166503,1564152911194,1,2.74,0.91,0.3,1.45,1.08,0.93,-0.67,0.42,27,4,37,1.14,4265,0,89,45,56,807,252.0,337,468,60,120.0,146,1,202,232,37,0,0,210,250,-1,251,-5.59,,,,,,,,,,,,
166523,1564152911214,2,2.75,0.9,0.3,1.44,1.06,0.94,-0.63,0.39,27,2,38,1.13,4207,0,89,45,56,810,251.0,332,457,60,122.0,146,1,197,232,37,0,0,209,-1533,10812,251,181.28,,,,,,,,,,,,
166543,1564152911234,2,2.76,0.9,0.3,1.44,1.07,0.96,-0.64,0.4,29,2,39,1.15,4172,0,89,45,56,815,248.0,330,458,60,123.0,146,1,192,227,37,0,0,209,966,-1494,248,181.28,44.680885,10.024534,24.53,177.5,0,0.0,-1,0.0,0.0,0,0.76,2.7757
166563,1564152911254,4,2.77,0.9,0.31,1.44,1.06,0.97,-0.62,0.39,30,3,38,1.15,4168,0,89,45,55,820,248.0,328,459,60,121.0,146,1,192,227,37,0,0,207,-14848,250,248,-5.59,,,,,,,,,,,,
166583,1564152911274,3,2.76,0.89,0.3,1.44,1.07,0.92,-0.59,0.43,29,5,36,1.09,4105,0,89,45,55,829,248.0,329,467,60,119.0,141,1,183,227,35,0,0,205,-1482,15360,248,-5.59,,,,,,,,,,,,
166603,1564152911294,1,2.78,0.89,0.31,1.44,1.06,0.95,-0.58,0.41,30,4,37,1.12,4115,0,89,45,56,840,244.0,322,465,60,122.0,141,1,185,227,35,0,0,205,-1482,23482,244,414.87,,,,,,,,,,,,
166623,1564152911308,3,2.76,0.89,0.31,1.44,1.07,0.99,-0.61,0.35,30,2,38,1.16,4113,0,89,45,55,849,242.0,322,457,60,122.0,141,1,184,227,35,0,0,201,-1482,-17920,242,181.28,,,,,,,,,,,,
166643,1564152911328,6,2.77,0.9,0.3,1.44,1.07,0.96,-0.63,0.31,30,3,37,1.15,4072,0,89,45,55,854,239.0,322,457,60,120.0,141,1,179,227,35,0,0,199,250,250,239,-5.59,44.680893,10.024529,22.56,177.4,0,0.0,-1,0.0,0.0,0,0.76,2.7774
166663,1564152911348,3,2.76,0.9,0.31,1.45,1.07,0.96,-0.57,0.31,29,4,37,1.11,4076,0,89,45,55,860,237.0,320,466,60,119.0,141,1,176,227,35,0,0,197,250,-1483,237,-5.59,,,,,,,,,,,,
166683,1564152911368,3,2.77,0.92,0.31,1.44,1.07,1.01,-0.56,0.29,30,3,39,1.15,4065,0,89,45,55,866,237.0,316,461,60,122.0,147,1,178,227,35,0,0,196,14412,-25600,236,181.28,,,,,,,,,,,,
166703,1564152911404,5,2.77,0.91,0.31,1.45,1.08,0.99,-0.58,0.32,30,2,40,1.15,4050,0,89,45,55,870,235.0,320,455,60,121.0,147,1,176,227,35,0,0,194,19456,8704,235,-5.59,,,,,,,,,,,,
166723,1564152911424,3,2.76,0.91,0.3,1.44,1.07,0.96,-0.57,0.34,29,4,38,1.12,4008,0,89,45,55,870,234.0,318,466,60,119.0,147,1,171,227,35,0,0,192,-1481,8704,234,-5.59,,,,,,,,,,,,
166743,1564152911444,3,2.77,0.9,0.31,1.44,1.07,0.99,-0.57,0.31,29,3,39,1.14,4021,0,89,45,55,871,231.0,315,466,60,121.0,147,1,172,227,35,0,0,191,-2560,250,231,414.87,44.680897,10.024526,22.53,177.4,0,0.0,-1,0.0,0.0,0,0.76,2.779
166763,1564152911464,7,2.77,0.9,0.31,1.44,1.07,1.01,-0.58,0.32,30,1,41,1.16,4014,0,89,45,55,872,228.0,315,455,60,122.0,147,1,171,222,35,0,0,189,250,18432,228,-5.59,,,,,,,,,,,,
166783,1564152911484,4,2.77,0.9,0.31,1.44,1.07,0.98,-0.55,0.35,29,3,39,1.12,3920,0,89,45,54,875,227.0,315,464,60,119.0,145,1,166,225,33,0,0,187,-1281,19968,227,-5.59,,,,,,,,,,,,
166803,1564152911498,4,2.78,0.9,0.31,1.44,1.07,1.02,-0.57,0.34,29,1,40,1.17,3941,0,89,45,55,877,223.0,309,464,60,122.0,145,1,167,225,33,0,0,185,-1,19968,223,181.28,,,,,,,,,,,,
166823,1564152911518,7,2.76,0.9,0.3,1.44,1.07,0.99,-0.53,0.32,29,0,40,1.13,3969,0,89,45,54,879,221.0,311,455,60,121.0,145,1,168,221,33,0,0,183,-1,250,221,-5.59,,,,,,,,,,,,
166843,1564152911538,4,2.78,0.9,0.3,1.43,1.07,0.99,-0.48,0.32,28,1,38,1.1,3915,0,89,45,54,886,220.0,308,468,60,119.0,145,1,166,220,33,0,0,184,-1,-1532,220,-5.59,44.680904,10.024523,22.15,177.4,0,0.0,-1,0.0,0.0,0,0.76,2.7807
166863,1564152911558,6,2.77,0.9,0.31,1.43,1.07,1.06,-0.49,0.26,29,-1,39,1.16,3862,0,89,45,55,892,217.0,306,455,60,122.0,145,1,164,223,33,0,0,181,-1,1210,217,-5.59,,,,,,,,,,,,
166883,1564152911578,4,2.78,0.89,0.3,1.43,1.06,1.0,-0.5,0.27,28,0,37,1.12,3888,0,89,45,55,897,215.0,306,464,60,118.0,146,1,165,219,32,0,0,180,-1,-1532,215,-5.59,,,,,,,,,,,,
166903,1564152911598,3,2.77,0.9,0.31,1.44,1.07,1.05,-0.5,0.24,29,-2,38,1.16,3843,0,89,45,55,902,215.0,302,455,60,122.0,146,1,163,222,32,0,0,178,5134,250,214,181.28,,,,,,,,,,,,
166923,1564152911610,5,2.77,0.9,0.31,1.44,1.06,1.0,-0.49,0.25,29,-1,37,1.12,3800,0,89,45,55,906,212.0,303,455,60,119.0,146,1,162,222,32,0,0,175,3584,1088,212,-5.59,,,,,,,,,,,,
166943,1564152911630,3,2.78,0.9,0.31,1.44,1.07,1.04,-0.47,0.25,29,-1,38,1.14,3810,0,89,45,55,910,210.0,297,469,60,121.0,146,1,162,222,32,0,0,174,-1495,966,210,414.87,44.680904,10.02452,20.76,177.4,0,0.0,-1,0.0,0.0,0,0.76,2.7824
166963,1564152911650,5,2.78,0.91,0.31,1.44,1.07,0.99,-0.48,0.25,29,-0,37,1.1,3762,0,89,45,55,909,210.0,301,455,60,120.0,146,1,160,221,32,0,0,172,10620,-1482,210,-5.59,,,,,,,,,,,,
166983,1564152911670,5,2.77,0.9,0.31,1.44,1.07,1.04,-0.45,0.22,29,-1,38,1.13,3727,0,89,45,56,908,207.0,295,469,60,120.0,148,1,159,225,31,0,0,170,31744,250,207,181.28,,,,,,,,,,,,
167003,1564152911690,5,2.77,0.91,0.31,1.44,1.08,0.99,-0.44,0.26,28,0,37,1.08,3753,0,89,45,56,906,206.0,297,455,60,119.0,148,1,160,226,31,0,0,169,-1,-29696,204,-5.59,,,,,,,,,,,,
167023,1564152911704,5,2.77,0.9,0.31,1.44,1.07,1.04,-0.42,0.25,28,-0,37,1.12,3732,0,89,45,56,904,203.0,294,469,60,120.0,148,1,159,225,31,0,0,169,-1,250,203,414.87,,,,,,,,,,,,
167043,1564152911724,5,2.77,0.9,0.31,1.45,1.07,0.97,-0.4,0.29,27,1,36,1.05,3644,0,89,45,56,903,200.0,293,455,60,118.0,148,1,155,223,31,0,0,167,-253,-1480,200,-5.59,44.680912,10.024519,20.2,177.4,0,0.0,-1,0.0,0.0,0,0.76,2.784
167063,1564152911744,9,2.77,0.9,0.31,1.44,1.07,1.05,-0.39,0.28,28,-1,37,1.12,3629,0,89,45,57,903,199.0,290,467,60,122.0,148,1,155,227,31,0,0,165,-253,250,199,181.28,,,,,,,,,,,,
167083,1564152911764,5,2.78,0.9,0.31,1.44,1.07,1.01,-0.34,0.32,27,-1,36,1.07,3598,0,89,45,57,903,196.0,288,461,60,119.0,152,1,153,226,30,0,0,163,-1494,-1481,196,-5.59,,,,,,,,,,,,
167103,1564152911800,7,2.76,0.9,0.31,1.44,1.08,1.01,-0.35,0.32,27,-1,34,1.07,3516,0,89,45,58,904,194.0,287,455,60,119.0,152,1,150,229,30,0,0,162,10764,14326,194,-5.59,,,,,,,,,,,,
167123,1564152911820,10,2.76,0.91,0.32,1.44,1.08,1.04,-0.35,0.33,27,-4,35,1.1,3455,0,89,45,59,904,191.0,282,471,60,119.0,152,1,0,232,30,0,0,158,250,-1,191,414.87,,,,,,,,,,,,
167143,1564152911840,8,2.74,0.91,0.31,1.44,1.08,1.02,-0.33,0.31,26,-3,35,1.08,3410,11,89,45,60,905,190.0,278,464,60,119.0,152,1,150,236,30,0,0,157,-1,-1,190,-5.59,44.680916,10.024517,18.94,177.4,0,0.0,-1,0.0,0.0,0,0.76,2.7857
167163,1564152911860,8,2.73,0.92,0.31,1.45,1.08,1.01,-0.31,0.28,26,0,34,1.05,3380,12,89,45,61,907,186.0,277,456,60,119.0,152,1,150,241,30,0,0,154,-165,-1,185,-5.59,,,,,,,,,,,,
167183,1564152911880,10,2.7,0.9,0.31,1.45,1.08,1.03,-0.28,0.27,25,1,33,1.07,3268,12,89,45,63,910,183.0,275,458,60,122.0,163,1,158,246,30,0,0,153,-23552,-1,183,-5.59,,,,,,,,,,,,
167203,1564152911894,11,2.67,0.9,0.31,1.44,1.07,1.05,-0.27,0.3,25,-1,34,1.09,3234,15,89,45,65,912,180.0,270,465,60,120.0,163,1,167,251,30,0,0,152,-1281,-236,180,181.28,,,,,,,,,,,,
167223,1564152911914,13,2.65,0.88,0.31,1.43,1.06,1.07,-0.24,0.29,24,-3,33,1.1,3287,20,89,45,68,913,174.0,266,467,60,119.0,163,1,180,260,30,0,0,149,-1,250,174,181.28,,,,,,,,,,,,
167243,1564152911934,10,2.63,0.85,0.3,1.41,1.06,1.07,-0.21,0.26,23,-3,32,1.09,3286,21,89,45,71,915,171.0,266,458,60,121.0,163,1,180,262,30,0,0,148,-1,-1281,171,181.28,44.680923,10.024516,18.22,177.4,0,0.0,-1,0.0,0.0,0,0.76,2.7874
167263,1564152911954,9,2.59,0.82,0.29,1.38,1.03,1.04,-0.18,0.24,22,-1,31,1.05,3304,21,89,45,73,917,167.0,268,452,60,119.0,163,1,180,264,30,0,0,145,-1,-1,167,-5.59,,,,,,,,,,,,
167283,1564152911974,10,2.59,0.79,0.28,1.36,1.03,1.07,-0.16,0.25,21,1,29,1.08,3355,21,89,45,74,918,164.0,267,461,60,122.0,201,1,180,267,33,0,0,145,-1,-1494,161,-5.59,,,,,,,,,,,,
167303,1564152911994,14,2.55,0.77,0.27,1.34,1.01,1.08,-0.16,0.3,20,-2,29,1.09,3422,26,89,45,76,919,158.0,266,468,60,119.0,201,1,180,272,33,0,0,143,5120,10764,158,181.28,,,,,,,,,,,,
167323,1564152912004,11,2.53,0.75,0.27,1.34,0.99,1.07,-0.12,0.29,19,-2,28,1.07,3446,30,89,45,78,921,154.0,267,458,60,120.0,201,1,180,289,33,0,0,140,-1281,-1,154,-5.59,,,,,,,,,,,,
167343,1564152912024,11,2.51,0.73,0.26,1.32,1.0,1.06,-0.09,0.22,18,1,26,1.06,3432,30,89,45,80,923,151.0,271,453,60,119.0,201,1,180,301,33,0,0,138,-1,-23552,151,-5.59,44.680923,10.024516,16.37,177.4,0,0.0,-1,0.0,0.0,0,0.76,2.7891
167363,1564152912044,12,2.48,0.74,0.26,1.32,1.0,1.09,-0.08,0.23,17,-0,25,1.1,3397,31,89,45,81,924,148.0,272,460,60,120.0,201,1,180,305,33,0,0,136,-1,-1,148,181.28,,,,,,,,,,,,
167383,1564152912064,13,2.46,0.74,0.27,1.32,1.0,1.11,-0.07,0.24,16,-3,24,1.11,3344,36,89,45,84,925,144.0,269,472,60,120.0,270,1,180,314,39,0,0,136,-1,-1,144,414.87,,,,,,,,,,,,
167403,1564152912102,12,2.44,0.74,0.27,1.32,1.0,1.09,-0.04,0.22,15,-3,22,1.09,3313,36,89,45,86,932,140.0,269,457,60,120.0,270,1,180,316,39,0,0,132,-1,-1281,140,-5.59,,,,,,,,,,,,
167423,1564152912122,12,2.43,0.74,0.28,1.33,1.01,1.08,-0.02,0.19,14,0,20,1.08,3259,36,89,45,87,943,137.0,269,454,60,119.0,270,1,180,313,39,0,0,130,13868,-1,137,-5.59,,,,,,,,,,,,
167443,1564152912142,12,2.41,0.75,0.27,1.33,1.01,1.09,0.0,0.17,13,1,18,1.09,3194,36,89,45,88,953,132.0,267,458,60,120.0,270,1,180,309,39,0,0,128,13868,-1,132,-5.59,44.680927,10.024516,14.59,177.4,0,0.0,-1,0.0,0.0,0,0.76,2.7907
167463,1564152912162,12,2.4,0.76,0.27,1.34,1.01,1.11,0.02,0.16,12,1,17,1.11,3140,36,89,45,89,963,128.0,263,460,60,121.0,270,1,180,307,39,0,0,126,-1482,-1,128,-5.59,,,,,,,,,,,,
167483,1564152912182,12,2.38,0.75,0.28,1.34,1.01,1.11,0.01,0.18,11,1,15,1.11,3082,36,89,45,89,985,124.0,261,457,60,122.0,290,1,180,302,36,0,0,121,250,250,124,-5.59,,,,,,,,,,,,
167503,1564152912193,13,2.36,0.76,0.28,1.34,1.01,1.12,-0.0,0.18,10,1,15,1.12,3047,36,89,45,90,1018,120.0,258,463,60,123.0,290,1,180,301,36,0,0,118,250,250,120,181.28,,,,,,,,,,,,
167523,1564152912213,12,2.34,0.77,0.29,1.34,1.02,1.13,-0.01,0.19,9,1,14,1.13,3000,36,89,45,90,1049,116.0,256,462,60,122.0,290,1,180,298,36,0,0,114,250,13856,116,-5.59,,,,,,,,,,,,
167543,1564152912233,11,2.33,0.77,0.29,1.35,1.02,1.12,-0.0,0.18,8,2,12,1.12,2907,36,89,45,90,1073,112.0,252,461,60,123.0,290,1,170,291,36,0,0,111,5120,-1482,112,-5.59,44.680931,10.024516,13.67,177.4,0,0.0,-1,0.0,0.0,0,0.76,2.7924
167563,1564152912253,13,2.31,0.77,0.29,1.34,1.02,1.11,0.02,0.16,7,4,11,1.11,2806,36,89,45,91,1124,106.0,251,460,60,120.0,290,1,170,312,36,0,0,111,250,5120,106,-5.59,,,,,,,,,,,,
167583,1564152912273,13,2.3,0.76,0.28,1.35,1.01,1.12,0.04,0.15,6,5,10,1.12,2732,42,89,45,92,1206,106.0,245,460,60,121.0,320,1,174,327,34,0,0,107,250,250,106,414.87,,,,,,,,,,,,
167603,1564152912293,15,2.3,0.76,0.28,1.34,1.01,1.14,0.05,0.14,6,3,9,1.15,2692,43,89,45,93,1281,101.0,239,457,60,123.0,320,1,183,341,34,0,0,102,250,-1483,101,181.28,,,,,,,,,,,,
167623,1564152912307,11,2.3,0.76,0.28,1.34,1.01,1.14,0.04,0.17,5,-0,8,1.14,2604,43,89,45,94,1338,96.0,237,467,60,122.0,320,1,190,335,34,0,0,98,250,-1483,96,181.28,,,,,,,,,,,,
167643,1564152912327,11,2.3,0.76,0.28,1.35,1.02,1.09,0.03,0.2,5,-0,7,1.09,2549,43,89,45,94,1395,91.0,233,468,60,122.0,320,1,187,319,34,0,0,93,-1481,-1481,91,-5.59,44.680935,10.024517,11.59,177.4,0,0.0,-1,0.0,0.0,0,0.76,2.794
167663,1564152912347,14,2.28,0.77,0.29,1.36,1.01,1.07,0.03,0.14,4,3,6,1.07,2508,43,89,45,94,1452,91.0,229,456,60,122.0,320,1,185,317,34,0,0,93,-1481,-9728,91,648.46,,,,,,,,,,,,
167683,1564152912367,10,2.29,0.78,0.29,1.36,1.02,1.13,0.03,0.1,4,2,5,1.14,2466,43,89,45,95,1498,86.0,226,463,60,121.0,325,1,198,313,28,0,0,88,-13312,-9728,86,414.87,,,,,,,,,,,,
167703,1564152912401,11,2.28,0.79,0.29,1.37,1.02,1.1,0.04,0.14,3,0,5,1.11,2456,50,89,45,95,1498,85.0,225,459,60,121.0,325,1,198,313,28,0,0,88,250,-13312,80,-5.59,,,,,,,,,,,,
167723,1564152912421,12,2.28,0.8,0.29,1.38,1.02,1.1,0.04,0.12,3,1,4,1.1,2441,50,89,45,96,1498,80.0,221,458,60,121.0,325,1,212,323,28,0,0,82,250,-1481,80,181.28,,,,,,,,,,,,
167743,1564152912441,12,2.28,0.8,0.29,1.37,1.03,1.11,0.04,0.11,3,1,3,1.11,2420,50,89,45,95,1498,74.0,221,464,60,122.0,325,1,198,313,28,0,0,77,14242,-1481,74,181.28,44.680939,10.024517,9.24,177.4,0,0.0,-1,0.0,0.0,0,0.76,2.7957
167763,1564152912461,12,2.29,0.8,0.3,1.38,1.03,1.08,0.05,0.14,2,2,3,1.08,2366,50,89,45,95,1498,74.0,218,460,60,121.0,325,1,198,312,28,0,0,77,14242,250,74,-5.59,,,,,,,,,,,,
167783,1564152912481,9,2.29,0.8,0.3,1.38,1.04,1.11,0.04,0.11,2,1,3,1.11,2357,54,90,45,96,1498,68.0,216,464,60,121.0,397,1,212,322,27,0,0,70,250,250,68,181.28,,,,,,,,,,,,
167803,1564152912495,10,2.29,0.81,0.3,1.38,1.04,1.07,0.05,0.15,2,2,3,1.08,2341,54,89,45,96,1498,68.0,218,460,60,119.0,397,1,212,322,27,0,0,70,250,14054,68,-5.59,,,,,,,,,,,,
167823,1564152912515,11,2.29,0.81,0.3,1.39,1.04,1.11,0.06,0.13,1,1,2,1.11,2397,54,90,45,96,1498,62.0,215,458,60,122.0,397,1,212,322,27,0,0,63,-1,14054,62,181.28,,,,,,,,,,,,
167843,1564152912535,12,2.3,0.8,0.3,1.38,1.03,1.1,0.05,0.14,1,-0,1,1.1,2380,54,89,45,96,1498,62.0,215,461,60,122.0,397,1,212,322,27,0,0,63,-1,-1,62,-5.59,44.680943,10.024517,8.05,177.4,0,0.0,-1,0.0,0.0,0,0.77,2.7974
167863,1564152912555,12,2.31,0.81,0.29,1.39,1.03,1.07,0.06,0.14,1,1,2,1.07,2332,54,90,45,96,1498,62.0,212,456,60,122.0,397,1,212,321,27,0,0,56,-1,-1,62,181.28,,,,,,,,,,,,
167883,1564152912575,12,2.31,0.81,0.29,1.37,1.03,1.09,0.05,0.11,1,0,1,1.09,2333,54,90,45,96,1498,54.0,211,463,60,120.0,518,1,212,321,28,0,0,56,-1,-1,54,181.28,,,,,,,,,,,,
167903,1564152912595,14,2.31,0.81,0.3,1.37,1.03,1.08,0.07,0.12,1,2,1,1.08,2275,54,90,45,96,1498,54.0,210,463,60,121.0,518,1,212,320,28,0,0,56,-1,-1,54,-5.59,,,,,,,,,,,,
167923,1564152912607,12,2.32,0.81,0.3,1.38,1.03,1.09,0.06,0.1,1,0,1,1.09,2272,54,89,45,96,1498,54.0,211,462,60,122.0,518,1,212,320,28,0,0,47,-1,-1,46,181.28,,,,,,,,,,,,
167943,1564152912627,12,2.31,0.81,0.3,1.39,1.04,1.07,0.06,0.12,1,1,1,1.07,2228,54,90,45,96,1498,46.0,206,460,60,121.0,518,1,212,319,28,0,0,47,-1,-1,46,-5.59,44.680943,10.024517,5.86,177.4,0,0.0,-1,0.0,0.0,0,0.77,2.799
167963,1564152912647,10,2.32,0.81,0.31,1.39,1.03,1.08,0.05,0.13,1,0,-0,1.08,2149,54,90,45,96,1498,46.0,206,461,60,122.0,518,1,212,318,28,0,0,47,-1,24067,46,181.28,,,,,,,,,,,,
167983,1564152912667,10,2.32,0.81,0.3,1.38,1.04,1.11,0.04,0.09,1,0,2,1.11,2148,51,90,45,96,1498,46.0,203,459,60,122.0,543,1,212,327,25,0,0,47,-1,24067,46,181.28,,,,,,,,,,,,
168003,1564152912705,13,2.31,0.81,0.31,1.38,1.04,1.09,0.06,0.16,0,-0,-0,1.09,2081,45,89,45,96,1498,34.0,205,462,60,119.0,543,1,212,316,25,0,0,36,-1,24067,34,-5.59,,,,,,,,,,,,
168023,1564152912725,10,2.3,0.81,0.31,1.38,1.04,1.12,0.03,0.07,0,-0,0,1.12,2139,41,90,45,96,1498,34.0,202,458,60,122.0,543,1,212,317,25,0,0,36,-1,24067,34,181.28,,,,,,,,,,,,
168043,1564152912745,9,2.31,0.82,0.31,1.39,1.05,1.08,0.06,0.12,0,1,1,1.08,2135,41,89,45,95,1498,34.0,202,466,60,120.0,543,1,198,308,25,0,0,36,-1,24067,34,-5.59,44.680943,10.024517,4.06,177.4,0,0.0,-1,0.0,0.0,0,0.77,2.8007
168063,1564152912765,6,2.31,0.82,0.3,1.39,1.04,1.1,0.05,0.11,0,-0,-0,1.1,2144,41,89,45,95,1498,34.0,201,458,60,122.0,543,1,198,308,25,0,0,36,-1,-235,34,181.28,,,,,,,,,,,,
168083,1564152912785,6,2.3,0.82,0.31,1.4,1.04,1.08,0.06,0.14,0,1,1,1.08,2125,41,90,45,96,1498,34.0,200,458,60,121.0,705,1,212,317,24,0,0,36,-1,-235,34,181.28,,,,,,,,,,,,
168103,1564152912795,6,2.3,0.83,0.3,1.4,1.04,1.06,0.06,0.13,0,1,-0,1.06,2119,41,89,45,95,1498,34.0,201,457,60,120.0,705,1,198,308,24,0,0,36,-1,-235,34,-5.59,,,,,,,,,,,,
168123,1564152912815,5,2.31,0.82,0.31,1.39,1.04,1.08,0.06,0.12,0,1,1,1.08,2150,56,90,45,96,1498,34.0,198,459,60,121.0,705,1,212,318,24,0,0,36,-1,-235,34,181.28,,,,,,,,,,,,
168143,1564152912835,6,2.3,0.82,0.31,1.4,1.04,1.02,0.07,0.2,0,0,-0,1.03,2253,79,90,45,97,1498,34.0,205,465,60,121.0,705,1,226,328,24,0,0,18,-1,-235,34,-5.59,44.680946,10.024517,2.32,177.4,0,0.0,-1,0.0,0.0,0,0.77,2.8024
168163,1564152912855,6,2.31,0.82,0.3,1.39,1.03,1.07,0.06,0.15,0,1,1,1.07,2352,97,90,45,98,1498,33.0,200,455,60,122.0,705,1,240,341,24,0,0,18,-1,-235,15,181.28,,,,,,,,,,,,
168183,1564152912875,6,2.31,0.81,0.3,1.39,1.03,1.02,0.08,0.21,0,-1,0,1.03,2319,100,90,45,97,1498,33.0,204,459,60,122.0,0,1,226,330,29,0,0,18,-1,-235,15,-5.59,,,,,,,,,,,,
168203,1564152912895,6,2.31,0.81,0.3,1.39,1.03,1.01,0.08,0.21,0,1,1,1.01,2318,100,90,45,98,1498,15.0,203,458,60,123.0,0,1,240,340,29,0,0,18,-1,-235,15,181.28,,,,,,,,,,,,
168223,1564152912909,6,2.3,0.81,0.3,1.38,1.03,1.0,0.07,0.22,0,-1,-0,1.0,2341,100,90,45,97,1498,15.0,205,464,60,123.0,0,1,226,331,29,0,0,18,-1,-235,15,181.28,,,,,,,,,,,,
168243,1564152912929,8,2.3,0.81,0.3,1.39,1.03,0.95,0.08,0.29,0,1,0,0.95,2339,100,90,45,97,1498,15.0,203,455,60,123.0,0,1,226,340,29,0,0,18,-1,-235,15,-5.59,44.680946,10.024517,0.0,177.4,0,0.0,-1,0.0,0.0,0,0.77,2.804
168263,1564152912949,5,2.3,0.81,0.3,1.39,1.02,0.97,0.06,0.28,0,2,1,0.97,2334,100,90,45,98,1498,15.0,202,458,60,123.0,0,1,240,330,29,0,0,18,-1,-235,15,181.28,,,,,,,,,,,,
168283,1564152912969,8,2.31,0.81,0.3,1.38,1.04,0.93,0.07,0.36,0,2,-0,0.93,2234,100,90,45,97,1498,15.0,206,462,60,121.0,0,1,226,329,28,0,0,18,-1,-235,15,-5.59,,,,,,,,,,,,
168303,1564152913003,6,2.3,0.81,0.29,1.38,1.03,0.94,0.04,0.33,0,2,0,0.94,2207,100,90,45,97,1498,15.0,201,466,60,123.0,0,1,226,327,28,0,0,18,-1,-235,15,181.28,,,,,,,,,,,,
168323,1564152913023,6,2.3,0.81,0.3,1.39,1.03,0.89,0.06,0.44,0,2,-0,0.89,2215,100,90,45,97,1498,15.0,201,460,60,122.0,0,1,226,337,28,0,0,18,-1,-235,15,-5.59,,,,,,,,,,,,
168343,1564152913043,4,2.31,0.81,0.3,1.38,1.04,0.89,0.03,0.4,0,2,-1,0.9,2136,100,90,45,97,1498,15.0,201,465,60,123.0,0,1,226,326,28,0,0,18,-1,-235,15,181.28,44.680946,10.024517,0.0,177.4,0,0.0,-1,0.0,0.0,0,0.77,2.8057
168363,1564152913063,5,2.31,0.82,0.3,1.39,1.03,0.89,0.05,0.46,0,2,1,0.89,2130,100,90,45,98,1498,15.0,198,457,60,123.0,0,1,240,335,28,0,0,18,-1,-235,15,181.28,,,,,,,,,,,,
168383,1564152913083,7,2.31,0.82,0.3,1.39,1.04,0.87,0.04,0.48,0,1,-1,0.87,2000,100,90,45,97,1498,15.0,199,460,60,120.0,0,1,226,324,26,0,0,18,-1,-235,15,-5.59,,,,,,,,,,,,
168403,1564152913091,6,2.3,0.81,0.31,1.39,1.03,0.89,0.02,0.41,0,1,1,0.89,1941,100,90,45,97,1498,15.0,194,468,60,122.0,0,1,226,323,26,0,0,18,-1,-235,15,-5.59,,,,,,,,,,,,
168423,1564152913111,6,2.3,0.82,0.3,1.38,1.03,0.87,0.05,0.45,0,1,1,0.87,1895,100,90,45,98,1498,15.0,192,457,60,122.0,0,1,240,329,26,0,0,18,-1,-235,15,181.28,,,,,,,,,,,,
168443,1564152913131,5,2.31,0.82,0.3,1.39,1.03,0.88,0.05,0.46,0,0,-1,0.88,1819,100,90,45,98,1498,15.0,189,465,60,122.0,0,1,240,327,26,0,0,18,-1,-235,15,414.87,44.680946,10.024517,0.0,177.4,0,0.0,-1,0.0,0.0,0,0.77,2.8074
168463,1564152913151,4,2.3,0.82,0.31,1.39,1.03,0.89,0.04,0.45,0,0,-0,0.89,1735,100,90,45,97,1498,15.0,188,460,60,120.0,0,1,226,318,26,0,0,18,-1,-235,15,414.87,,,,,,,,,,,,
168483,1564152913171,6,2.3,0.83,0.3,1.4,1.04,0.86,0.05,0.5,-0,0,-0,0.86,1618,100,90,45,97,1498,15.0,187,457,60,121.0,0,1,226,315,20,0,0,18,-1,-235,15,414.87,,,,,,,,,,,,
168503,1564152913191,6,2.3,0.83,0.31,1.4,1.04,0.84,0.04,0.53,-0,1,-1,0.84,1573,100,90,45,97,1498,15.0,186,458,60,120.0,0,1,226,314,20,0,0,18,-1,-235,15,414.87,,,,,,,,,,,,
168523,1564152913207,5,2.3,0.83,0.31,1.39,1.04,0.83,0.03,0.54,0,1,-1,0.83,1482,100,90,45,97,1498,15.0,183,458,60,119.0,0,1,224,313,20,0,0,18,-1,-235,15,414.87,,,,,,,,,,,,
168543,1564152913227,7,2.31,0.83,0.31,1.4,1.04,0.84,0.04,0.57,0,1,-1,0.84,1482,100,90,45,97,1498,15.0,177,460,60,121.0,0,1,224,313,20,0,0,18,-1,-235,15,-5.59,44.680946,10.024517,0.0,177.4,0,0.0,-1,0.0,0.0,0,0.77,2.8091
168563,1564152913247,5,2.31,0.83,0.31,1.39,1.04,0.86,0.03,0.6,0,0,-2,0.86,1394,98,90,45,97,1498,15.0,173,457,60,122.0,0,1,217,313,20,0,0,18,-1,250,15,-5.59,,,,,,,,,,,,
168583,1564152913267,6,2.3,0.83,0.31,1.4,1.04,0.86,0.03,0.62,-0,-1,-2,0.86,1386,81,90,45,97,1498,15.0,169,458,60,122.0,0,1,216,246,16,0,0,18,-1,250,15,-5.59,,,,,,,,,,,,
168603,1564152913300,6,2.3,0.83,0.31,1.39,1.04,0.85,0.03,0.62,-0,-1,-2,0.85,1364,67,90,45,98,1498,15.0,165,465,60,122.0,0,1,229,321,16,0,0,18,-1,250,15,181.28,,,,,,,,,,,,
168623,1564152913320,9,2.3,0.83,0.3,1.4,1.04,0.85,0.03,0.58,-0,-1,-2,0.85,1277,64,90,45,97,1498,15.0,162,458,60,122.0,0,1,208,246,16,0,0,18,-1,250,15,-5.59,,,,,,,,,,,,
168643,1564152913340,5,2.29,0.83,0.31,1.4,1.04,0.85,0.04,0.55,-0,-1,-1,0.85,1236,64,90,45,97,1498,15.0,163,467,60,122.0,0,1,204,246,16,0,0,0,-1,250,15,-5.59,44.680946,10.024517,0.0,177.3,0,0.0,-1,0.0,0.0,0,0.77,2.8107
168663,1564152913360,5,2.3,0.83,0.3,1.4,1.03,0.84,0.04,0.55,-0,-1,-1,0.84,1311,64,90,45,97,1498,0.0,166,455,60,122.0,0,1,210,246,16,0,0,0,-1,250,0,-5.59,,,,,,,,,,,,
168683,1564152913380,5,2.29,0.82,0.3,1.4,1.04,0.82,0.04,0.56,0,-1,-1,0.82,1407,69,90,45,97,1498,13.0,168,462,60,120.0,0,1,218,313,15,0,0,0,-1,250,0,-5.59,,,,,,,,,,,,
168703,1564152913396,5,2.3,0.82,0.3,1.39,1.03,0.8,0.03,0.57,0,0,-0,0.8,1406,79,90,45,97,1498,0.0,167,465,60,119.0,0,1,218,246,15,0,0,0,250,250,0,-5.59,,,,,,,,,,,,
168723,1564152913416,6,2.3,0.81,0.3,1.39,1.04,0.78,0.03,0.58,0,1,-0,0.78,1460,90,90,45,97,1498,0.0,167,462,60,119.0,0,1,222,313,15,0,0,0,250,250,0,-5.59,,,,,,,,,,,,
168743,1564152913436,4,2.3,0.8,0.3,1.37,1.03,0.76,0.03,0.6,0,1,0,0.77,1530,94,90,45,97,1498,0.0,169,462,60,119.0,0,1,226,246,15,0,0,0,250,250,0,-5.59,44.680946,10.024517,0.0,177.3,0,0.0,-1,0.0,0.0,0,0.77,2.8124
168763,1564152913456,4,2.3,0.8,0.3,1.37,1.02,0.75,0.03,0.61,-0,2,0,0.75,1507,94,90,45,97,1498,0.0,170,458,60,119.0,0,1,226,313,15,0,0,0,250,250,0,1115.64,,,,,,,,,,,,
168783,1564152913476,7,2.3,0.8,0.3,1.37,1.02,0.76,0.03,0.63,-0,2,1,0.76,1550,95,90,45,97,1498,0.0,171,461,60,119.0,0,1,226,314,17,0,0,0,250,250,0,-5.59,,,,,,,,,,,,
168803,1564152913496,9,2.3,0.8,0.3,1.38,1.02,0.77,0.03,0.61,-0,2,1,0.77,1719,95,90,45,97,1498,0.0,170,462,60,123.0,0,1,226,318,17,0,0,0,250,250,0,414.87,,,,,,,,,,,,
168823,1564152913508,4,2.31,0.8,0.3,1.38,1.02,0.79,0.04,0.58,-0,2,1,0.79,1751,95,90,45,98,1498,0.0,170,465,60,123.0,0,1,240,260,17,0,0,0,250,250,0,-5.59,,,,,,,,,,,,
168843,1564152913528,6,2.3,0.81,0.3,1.38,1.03,0.79,0.06,0.58,0,2,1,0.8,1748,97,90,45,98,1498,0.0,170,460,60,122.0,0,1,240,327,17,0,0,0,250,250,0,181.28,44.680946,10.024517,0.0,177.3,0,0.0,-1,0.0,0.0,0,0.77,2.814
168863,1564152913548,5,2.3,0.81,0.31,1.38,1.04,0.81,0.05,0.59,0,1,-0,0.82,1787,97,90,45,98,1498,0.0,173,463,60,122.0,0,1,240,261,17,0,0,0,250,250,0,414.87,,,,,,,,,,,,
168883,1564152913568,6,2.31,0.81,0.3,1.38,1.03,0.79,0.05,0.6,0,2,-0,0.79,1769,97,90,45,97,1498,0.0,176,458,60,120.0,0,1,226,318,21,0,0,0,250,250,0,1115.64,,,,,,,,,,,,
168903,1564152913606,9,2.3,0.83,0.3,1.39,1.03,0.78,0.04,0.59,0,1,0,0.78,1869,97,90,45,97,1498,0.0,178,458,60,122.0,0,1,226,254,21,0,0,0,250,250,0,-5.59,,,,,,,,,,,,
168923,1564152913626,6,2.3,0.83,0.31,1.39,1.03,0.79,0.04,0.57,0,1,1,0.79,1921,97,90,45,98,1498,0.0,178,468,60,123.0,0,1,240,330,21,0,0,0,250,250,0,181.28,,,,,,,,,,,,
168943,1564152913646,6,2.3,0.83,0.31,1.4,1.05,0.78,0.06,0.6,0,1,-1,0.79,1923,97,90,45,98,1498,0.0,178,461,60,122.0,0,1,240,330,21,0,0,0,250,250,0,181.28,44.680946,10.024517,0.0,177.3,0,0.0,-1,0.0,0.0,0,0.77,2.8157
168963,1564152913666,10,2.3,0.84,0.31,1.4,1.05,0.79,0.04,0.57,0,-0,-1,0.79,2039,97,90,45,97,1498,0.0,184,460,60,120.0,0,1,226,325,21,0,0,0,250,250,0,-5.59,,,,,,,,,,,,
168983,1564152913686,6,2.3,0.83,0.31,1.4,1.04,0.82,0.03,0.53,0,-0,1,0.82,2076,93,90,45,98,1498,0.0,183,461,60,123.0,0,1,240,334,25,0,0,0,250,250,0,181.28,,,,,,,,,,,,
169003,1564152913698,10,2.3,0.83,0.31,1.4,1.04,0.79,0.06,0.6,-0,1,-1,0.79,2150,80,90,45,97,1498,0.0,188,463,60,121.0,0,1,226,327,25,0,0,0,250,250,0,-5.59,,,,,,,,,,,,
169023,1564152913718,5,2.31,0.83,0.31,1.39,1.04,0.84,0.03,0.53,-0,0,-1,0.84,2249,62,90,45,97,1498,0.0,189,463,60,122.0,0,1,226,328,25,0,0,0,250,250,0,181.28,,,,,,,,,,,,
169043,1564152913738,8,2.31,0.83,0.31,1.4,1.04,0.81,0.06,0.59,-0,1,0,0.81,2253,43,90,45,96,1498,0.0,193,465,60,121.0,0,1,212,319,25,0,0,0,250,250,0,882.05,44.680946,10.024517,0.0,177.2,0,0.0,-1,0.0,0.0,0,0.77,2.8174
169063,1564152913758,5,2.29,0.83,0.31,1.39,1.03,0.85,0.06,0.57,-0,-0,-0,0.85,2288,29,90,45,95,1498,0.0,195,464,60,122.0,0,1,198,310,25,0,0,0,250,250,0,414.87,,,,,,,,,,,,
169083,1564152913778,6,2.29,0.83,0.31,1.4,1.04,0.79,0.06,0.61,-0,-0,-1,0.8,2355,22,90,45,93,1498,0.0,200,458,60,120.0,0,1,171,225,26,0,0,0,250,250,0,-5.59,,,,,,,,,,,,
169103,1564152913792,4,2.29,0.84,0.32,1.4,1.04,0.83,0.06,0.56,-0,1,-1,0.83,2422,21,90,45,93,1498,0.0,199,461,60,122.0,0,1,171,293,26,0,0,0,250,250,0,414.87,,,,,,,,,,,,
169123,1564152913812,4,2.3,0.84,0.32,1.4,1.05,0.85,0.06,0.54,-0,-2,-0,0.85,2475,21,90,45,91,1498,0.0,205,466,60,122.0,0,1,143,274,26,0,0,0,250,250,0,414.87,,,,,,,,,,,,
169143,1564152913832,6,2.29,0.85,0.31,1.41,1.05,0.76,0.06,0.61,-0,-0,-0,0.76,2473,21,90,45,91,1498,0.0,206,462,60,120.0,0,1,143,205,26,0,0,0,250,250,0,-5.59,44.680946,10.024517,0.0,177.2,0,0.0,-1,0.0,0.0,0,0.77,2.8191
169163,1564152913852,7,2.3,0.84,0.32,1.41,1.05,0.81,0.07,0.56,0,3,-1,0.81,2518,21,90,45,90,1498,0.0,207,460,60,122.0,0,1,131,266,26,0,0,0,250,250,0,181.28,,,,,,,,,,,,
169183,1564152913872,6,2.29,0.85,0.32,1.4,1.05,0.87,0.06,0.57,-0,-3,-0,0.87,2623,21,90,45,90,1498,0.0,211,466,60,122.0,0,1,142,272,27,0,0,0,250,250,0,181.28,,,,,,,,,,,,
169203,1564152913906,6,2.29,0.85,0.32,1.4,1.05,0.79,0.02,0.61,-0,-4,0,0.79,2746,21,90,45,89,1498,0.0,216,462,60,122.0,0,1,154,279,27,0,0,0,250,250,0,-5.59,,,,,,,,,,,,
169223,1564152913926,5,2.3,0.85,0.31,1.41,1.05,0.78,0.04,0.6,-0,2,-0,0.78,2727,38,90,44,90,1498,0.0,220,460,60,120.0,0,1,152,279,27,0,0,0,250,250,0,-5.59,,,,,,,,,,,,
169243,1564152913946,6,2.3,0.85,0.32,1.42,1.05,0.83,0.07,0.54,-0,5,-2,0.84,2696,55,90,44,93,1498,0.0,220,456,60,122.0,0,1,184,346,27,0,0,0,250,250,0,648.46,44.680946,10.024517,0.0,177.2,0,0.0,-1,0.0,0.0,0,0.77,2.8207
169263,1564152913966,6,2.3,0.85,0.32,1.41,1.05,0.85,0.07,0.52,-0,2,-1,0.85,2781,70,90,44,96,1498,0.0,220,459,60,122.0,0,1,219,441,27,0,0,0,250,250,0,414.87,,,,,,,,,,,,
169283,1564152913986,5,2.29,0.84,0.32,1.41,1.05,0.85,0.06,0.54,-0,-4,1,0.85,2772,80,90,45,97,1498,0.0,223,466,60,122.0,0,1,229,463,48,0,0,0,250,250,0,-5.59,,,,,,,,,,,,
169303,1564152913998,2,2.3,0.84,0.32,1.41,1.04,0.81,0.05,0.59,-0,-5,0,0.81,2671,84,90,44,97,1498,0.0,225,467,60,122.0,0,1,228,415,48,0,0,0,250,250,0,181.28,,,,,,,,,,,,
169323,1564152914018,2,2.3,0.84,0.32,1.41,1.05,0.75,0.04,0.6,-0,-0,-0,0.75,2622,86,90,44,97,1498,0.0,225,462,60,122.0,0,1,227,392,48,0,0,0,250,250,0,648.46,,,,,,,,,,,,
169343,1564152914038,2,2.3,0.85,0.32,1.41,1.05,0.78,0.06,0.52,0,5,-1,0.78,2637,87,90,44,98,1498,0.0,223,458,60,122.0,0,1,240,418,48,0,0,0,250,250,0,414.87,44.680946,10.024517,0.0,177.2,0,0.0,-1,0.0,0.0,0,0.77,2.8224
169363,1564152914058,5,2.3,0.85,0.32,1.4,1.06,0.83,0.08,0.5,0,2,-1,0.83,2752,89,90,44,97,1498,0.0,224,461,60,122.0,0,1,229,454,48,0,0,0,250,250,0,181.28,,,,,,,,,,,,
169383,1564152914078,4,2.3,0.84,0.32,1.41,1.05,0.84,0.05,0.53,0,-4,0,0.84,2819,90,90,44,97,1498,0.0,224,461,60,122.0,0,1,230,485,51,0,0,0,250,250,0,181.28,,,,,,,,,,,,
169403,1564152914098,2,2.3,0.85,0.32,1.41,1.05,0.84,0.02,0.59,-0,-6,1,0.84,2833,90,90,44,97,1498,0.0,228,466,60,121.0,0,1,230,493,51,0,0,0,250,250,0,181.28,,,,,,,,,,,,
169423,1564152914108,1,2.3,0.85,0.32,1.41,1.05,0.82,0.02,0.61,-0,-7,0,0.82,2829,90,90,44,97,1498,0.0,229,471,60,120.0,0,1,230,491,51,0,0,0,250,250,0,181.28,,,,,,,,,,,,
169443,1564152914128,3,2.3,0.85,0.32,1.41,1.06,0.81,0.0,0.61,-0,-8,1,0.81,2971,90,90,44,97,1498,0.0,229,470,60,120.0,0,1,232,558,51,0,0,0,250,250,0,181.28,44.680946,10.024517,0.0,177.2,0,0.0,-1,0.0,0.0,0,0.77,2.824
169463,1564152914148,3,2.3,0.85,0.32,1.41,1.06,0.81,-0.02,0.6,0,-9,2,0.81,3184,90,90,44,97,1498,0.0,234,471,60,120.0,0,1,232,586,51,0,0,0,250,250,0,414.87,,,,,,,,,,,,
169483,1564152914168,1,2.3,0.86,0.32,1.41,1.06,0.83,-0.01,0.57,0,-9,1,0.83,3267,90,90,44,97,1498,0.0,238,467,60,122.0,0,1,232,592,73,0,0,0,250,250,0,414.87,,,,,,,,,,,,
169503,1564152914206,4,2.3,0.85,0.32,1.41,1.06,0.82,0.01,0.52,0,-7,1,0.82,3618,90,90,44,97,1498,0.0,250,449,60,120.0,0,1,242,612,73,0,0,0,250,250,0,181.28,,,,,,,,,,,,
169523,1564152914226,3,2.3,0.86,0.32,1.42,1.05,0.81,0.01,0.59,0,-9,1,0.81,3791,90,90,44,97,1498,0.0,260,473,60,122.0,0,1,258,615,73,0,0,0,250,250,0,181.28,,,,,,,,,,,,
169543,1564152914246,3,2.31,0.86,0.32,1.41,1.06,0.83,0.0,0.59,0,-8,1,0.83,4140,90,90,44,96,1498,0.0,277,453,60,121.0,0,1,272,539,73,0,0,0,250,250,0,-5.59,44.680946,10.024517,0.0,177.2,0,0.0,-1,0.0,0.0,0,0.77,2.8257
169563,1564152914266,2,2.3,0.85,0.32,1.41,1.05,0.83,0.05,0.61,0,-7,0,0.84,4444,91,90,44,96,1498,0.0,292,460,60,120.0,0,1,285,544,73,0,0,0,250,250,0,-5.59,,,,,,,,,,,,
169583,1564152914286,4,2.3,0.86,0.32,1.41,1.05,0.84,0.06,0.66,0,-6,0,0.84,4803,91,90,44,96,1498,0.0,313,463,60,121.0,0,1,300,601,111,0,0,0,250,250,0,-5.59,,,,,,,,,,,,
169603,1564152914297,4,2.3,0.86,0.32,1.41,1.06,0.88,0.06,0.57,-0,-6,0,0.88,5095,91,90,44,97,1498,0.0,339,457,60,122.0,0,1,308,568,111,0,0,0,250,250,0,-5.59,,,,,,,,,,,,
169623,1564152914317,8,2.3,0.86,0.32,1.41,1.06,0.92,0.07,0.56,0,-4,-0,0.92,5593,91,90,44,95,1494,0.0,367,462,60,121.0,0,1,313,548,111,0,0,0,250,250,0,-5.59,,,,,,,,,,,,
169643,1564152914337,5,2.3,0.86,0.32,1.42,1.06,0.99,0.12,0.45,1,-3,-1,0.99,6200,91,90,44,94,1489,0.0,407,460,60,122.0,0,1,327,459,111,0,0,0,250,250,0,-5.59,44.680946,10.024517,0.0,177.2,0,0.0,-1,0.0,0.0,0,0.77,2.8274
169663,1564152914357,8,2.29,0.86,0.32,1.41,1.05,1.04,0.02,0.49,0,-4,-1,1.04,6803,84,90,44,94,1484,0.0,458,463,60,122.0,0,1,359,513,111,0,0,0,250,250,0,414.87,,,,,,,,,,,,
169683,1564152914377,5,2.3,0.86,0.32,1.42,1.06,1.08,-0.04,0.56,1,-1,-1,1.08,7413,69,90,44,92,1478,0.0,515,463,60,121.0,0,1,402,476,145,0,0,0,250,250,0,-5.59,,,,,,,,,,,,
169703,1564152914391,6,2.29,0.84,0.32,1.41,1.05,1.03,-0.01,0.61,1,-2,-1,1.03,8130,49,90,44,85,1422,0.0,556,463,60,119.0,0,1,438,519,145,0,0,0,250,250,0,-5.59,,,,,,,,,,,,
169723,1564152914411,6,2.3,0.85,0.32,1.41,1.05,1.13,-0.01,0.68,0,-2,-2,1.13,8688,34,90,44,74,1365,0.0,601,463,60,121.0,0,1,423,431,145,0,0,0,250,250,0,-5.59,,,,,,,,,,,,
169743,1564152914431,5,2.3,0.85,0.32,1.4,1.06,1.22,0.04,0.73,-0,-3,-2,1.22,9263,22,90,44,61,1310,0.0,640,466,60,120.0,0,1,409,271,145,0,0,0,250,250,0,-5.59,44.680946,10.024517,0.0,177.2,0,0.0,-1,0.0,0.0,0,0.77,2.8291
169763,1564152914451,4,2.29,0.84,0.32,1.41,1.05,1.13,0.06,0.63,-0,-3,-2,1.13,9498,15,90,44,52,1257,0.0,645,462,60,120.0,0,1,394,293,145,0,0,0,250,250,0,-5.59,,,,,,,,,,,,
169783,1564152914471,6,2.3,0.85,0.32,1.4,1.06,0.93,0.03,0.55,0,-3,-1,0.93,9407,13,90,44,46,1165,0.0,651,461,60,120.0,0,1,370,156,83,0,0,0,250,250,0,-5.59,,,,,,,,,,,,
169803,1564152914505,6,2.29,0.84,0.32,1.41,1.05,0.94,-0.05,0.66,0,-1,-1,0.94,9218,13,90,44,42,1062,0.0,642,466,60,121.0,0,1,340,215,83,0,0,0,250,250,0,-5.59,,,,,,,,,,,,
169823,1564152914525,5,2.29,0.85,0.32,1.4,1.04,1.0,-0.09,0.7,0,1,-1,1.01,8997,13,90,44,40,997,0.0,638,461,60,121.0,0,1,326,210,83,0,0,0,250,250,0,-5.59,,,,,,,,,,,,
169843,1564152914545,2,2.3,0.85,0.32,1.41,1.04,0.94,-0.09,0.74,1,2,-1,0.94,8769,12,90,44,38,946,0.0,634,461,60,122.0,0,1,317,204,83,0,0,0,250,250,0,-5.59,44.680946,10.024517,0.0,177.2,0,0.0,-1,0.0,0.0,0,0.77,2.8307
169863,1564152914565,6,2.3,0.85,0.31,1.41,1.05,0.76,-0.05,0.63,1,1,0,0.77,8538,12,90,44,36,892,0.0,635,466,60,120.0,0,1,311,197,83,0,0,0,250,250,0,-5.59,,,,,,,,,,,,
169883,1564152914585,4,2.29,0.85,0.32,1.41,1.05,0.89,-0.05,0.66,1,1,0,0.89,8311,12,90,44,35,837,0.0,632,462,60,121.0,0,1,304,189,61,0,0,0,250,250,0,181.28,,,,,,,,,,,,
169903,1564152914597,5,2.3,0.85,0.32,1.4,1.05,0.81,-0.01,0.65,0,1,-1,0.81,8074,12,90,44,35,809,0.0,628,465,60,121.0,0,1,299,183,61,0,0,0,250,250,0,-5.59,,,,,,,,,,,,
169923,1564152914617,5,2.3,0.85,0.32,1.41,1.05,0.84,0.07,0.63,1,1,0,0.84,7901,12,90,44,36,806,0.0,621,462,60,122.0,0,1,301,113,61,0,0,0,250,250,0,-5.59,,,,,,,,,,,,
169943,1564152914637,7,2.29,0.85,0.31,1.41,1.05,0.84,0.06,0.6,1,2,0,0.85,7665,12,90,44,35,819,0.0,612,466,60,121.0,0,1,298,107,61,0,0,0,250,250,0,-5.59,44.680946,10.024517,0.0,177.2,0,0.0,-1,0.0,0.0,0,0.77,2.8324
169963,1564152914657,6,2.29,0.85,0.32,1.41,1.06,0.79,0.06,0.6,2,3,-1,0.8,7482,12,90,44,35,840,0.0,600,466,60,121.0,0,1,298,181,61,0,0,0,250,250,0,181.28,,,,,,,,,,,,
169983,1564152914677,4,2.3,0.85,0.32,1.41,1.05,0.73,0.09,0.52,2,3,2,0.73,7261,12,90,44,35,863,0.0,588,461,60,122.0,0,1,298,181,50,0,0,0,250,250,0,-5.59,,,,,,,,,,,,
170003,1564152914697,3,2.3,0.85,0.32,1.41,1.05,0.67,0.15,0.47,2,4,1,0.69,7126,12,90,44,35,888,0.0,573,465,60,121.0,0,1,298,181,50,0,0,0,250,250,0,-5.59,,,,,,,,,,,,
170023,1564152914707,6,2.29,0.85,0.32,1.41,1.05,0.67,0.08,0.52,1,0,1,0.67,6954,12,90,44,35,915,0.0,565,466,60,120.0,0,1,298,107,50,0,0,0,250,250,0,-5.59,,,,,,,,,,,,
170043,1564152914727,4,2.3,0.85,0.32,1.41,1.06,0.75,0.13,0.46,1,1,1,0.76,6888,12,90,44,36,942,0.0,557,460,60,123.0,0,1,301,186,50,0,0,0,250,250,0,-5.59,44.680946,10.024517,0.0,177.2,0,0.0,-1,0.0,0.0,0,0.77,2.834
170063,1564152914747,2,2.3,0.85,0.32,1.41,1.05,0.69,0.11,0.45,1,0,2,0.7,6838,12,90,44,36,959,0.0,550,466,60,122.0,0,1,301,112,50,0,0,0,250,250,0,-5.59,,,,,,,,,,,,
170083,1564152914767,3,2.31,0.85,0.32,1.41,1.06,0.75,0.09,0.46,1,-0,1,0.76,6776,12,90,44,37,961,0.0,549,460,60,123.0,0,1,304,192,47,0,0,0,250,250,0,-5.59,,,,,,,,,,,,
170103,1564152914805,6,2.3,0.85,0.33,1.41,1.06,0.7,0.1,0.48,1,0,1,0.7,6677,13,90,44,37,961,0.0,548,464,60,121.0,0,1,304,192,47,0,0,0,250,250,0,-5.59,,,,,,,,,,,,
170123,1564152914825,2,2.3,0.85,0.32,1.41,1.05,0.79,0.09,0.52,1,-1,1,0.8,6641,13,90,44,38,961,0.0,539,464,60,123.0,0,1,307,197,47,0,0,0,250,250,0,-5.59,,,,,,,,,,,,
170143,1564152914845,5,2.3,0.85,0.33,1.42,1.05,0.66,0.06,0.58,0,-1,1,0.67,6567,15,90,44,39,959,0.0,531,467,60,120.0,0,1,310,130,47,0,0,0,250,250,0,-5.59,44.680946,10.024517,0.0,177.2,0,0.0,-1,0.0,0.0,0,0.77,2.8357
170163,1564152914865,3,2.3,0.85,0.33,1.41,1.06,0.71,0.11,0.56,1,2,-0,0.72,6524,18,91,44,40,956,0.0,527,460,60,123.0,0,1,316,131,47,0,0,0,250,250,0,-5.59,,,,,,,,,,,,
170183,1564152914885,3,2.3,0.85,0.32,1.42,1.05,0.83,0.08,0.57,1,0,1,0.83,6539,21,91,44,42,950,0.0,526,462,60,123.0,0,1,330,134,51,0,0,0,250,250,0,-5.59,,,,,,,,,,,,
170203,1564152914897,6,2.3,0.86,0.32,1.42,1.05,0.69,0.03,0.61,0,-1,1,0.69,6526,27,91,44,44,934,0.0,528,461,60,121.0,0,1,344,137,51,0,0,0,250,250,0,-5.59,,,,,,,,,,,,
170223,1564152914917,2,2.31,0.85,0.32,1.42,1.05,0.76,0.08,0.52,1,0,-0,0.76,6581,33,91,44,48,918,0.0,527,463,60,123.0,0,1,368,219,51,0,0,0,250,250,0,-5.59,,,,,,,,,,,,
170243,1564152914937,5,2.3,0.85,0.32,1.42,1.05,0.8,0.02,0.54,0,-0,1,0.8,6646,38,91,44,53,905,0.0,529,464,60,122.0,0,1,384,174,51,0,0,0,250,250,0,-5.59,44.680946,10.024517,0.0,177.2,0,0.0,-1,0.0,0.0,0,0.77,2.8374
170263,1564152914957,2,2.3,0.85,0.32,1.42,1.05,0.76,0.05,0.48,0,1,1,0.76,6761,42,90,43,58,889,0.0,535,458,60,122.0,0,1,402,196,51,0,0,0,250,250,0,-5.59,,,,,,,,,,,,
170283,1564152914977,6,2.3,0.86,0.32,1.42,1.05,0.79,0.06,0.52,0,-0,1,0.79,6833,46,91,44,63,865,0.0,538,465,60,120.0,0,1,408,289,72,0,0,0,250,250,0,-5.59,,,,,,,,,,,,
170303,1564152914997,4,2.3,0.85,0.31,1.41,1.06,0.82,0.12,0.48,0,1,2,0.83,6926,49,91,43,68,842,0.0,547,465,60,122.0,0,1,389,248,72,0,0,0,250,250,0,-5.59,,,,,,,,,,,,
170323,1564152915003,2,2.3,0.85,0.32,1.41,1.05,0.72,0.16,0.51,0,0,1,0.74,7017,50,90,43,71,831,0.0,544,464,60,120.0,0,1,388,363,72,0,0,0,250,250,0,-5.59,,,,,,,,,,,,
170343,1564152915023,5,2.3,0.86,0.32,1.41,1.06,0.84,0.09,0.6,-0,-1,1,0.85,7140,50,91,43,73,823,0.0,548,465,60,120.0,0,1,393,326,72,0,0,0,250,250,0,-5.59,44.680946,10.024517,0.0,177.2,0,0.0,-1,0.0,0.0,0,0.77,2.8391
170363,1564152915043,5,2.3,0.86,0.32,1.41,1.05,0.94,0.05,0.64,0,-0,1,0.94,7338,50,91,44,74,824,0.0,558,461,60,120.0,0,1,403,405,72,0,0,0,250,250,0,181.28,,,,,,,,,,,,
170383,1564152915063,3,2.29,0.86,0.32,1.42,1.06,0.96,0.01,0.64,0,1,1,0.96,7668,50,91,43,75,827,0.0,575,466,60,120.0,0,1,421,358,117,0,0,0,250,250,0,-5.59,,,,,,,,,,,,
170403,1564152915101,5,2.3,0.86,0.32,1.42,1.06,0.85,0.05,0.64,1,1,1,0.85,8088,50,90,43,74,838,0.0,600,462,60,120.0,0,1,439,416,117,0,0,0,250,250,0,-5.59,,,,,,,,,,,,
170423,1564152915121,5,2.3,0.86,0.33,1.42,1.05,0.96,0.03,0.67,0,1,0,0.96,8472,50,91,43,71,851,0.0,623,463,60,122.0,0,1,432,396,117,0,0,0,250,250,0,-5.59,,,,,,,,,,,,
170443,1564152915141,4,2.3,0.86,0.33,1.42,1.06,1.07,-0.11,0.74,-0,1,-1,1.07,8967,51,91,44,67,916,0.0,637,466,60,121.0,0,1,412,363,117,0,0,0,250,250,0,-5.59,44.680946,10.024517,0.0,177.2,0,0.0,-1,0.0,0.0,0,0.77,2.8407
170463,1564152915161,6,2.29,0.85,0.32,1.42,1.05,1.16,-0.11,0.74,-0,2,-1,1.17,9227,51,91,44,63,981,0.0,642,470,60,121.0,0,1,406,280,117,0,0,0,250,250,0,-5.59,,,,,,,,,,,,
170483,1564152915181,4,2.29,0.86,0.33,1.42,1.05,1.09,-0.0,0.71,-0,-1,-0,1.09,9625,50,91,44,62,1033,0.0,648,458,60,119.0,0,1,413,283,124,0,0,0,250,250,0,-5.59,,,,,,,,,,,,
170503,1564152915191,7,2.29,0.85,0.32,1.42,1.05,1.1,0.08,0.64,-0,-0,-1,1.1,9968,43,91,44,59,1086,0.0,655,466,60,122.0,0,1,407,346,124,0,0,0,250,250,0,-5.59,,,,,,,,,,,,
170523,1564152915211,4,2.3,0.86,0.32,1.42,1.05,1.11,0.13,0.62,-0,-0,-1,1.12,10279,36,91,44,54,1122,0.0,655,467,60,120.0,0,1,400,320,124,0,0,0,250,250,0,-5.59,,,,,,,,,,,,
170543,1564152915231,4,2.3,0.86,0.33,1.42,1.06,1.08,0.1,0.69,-1,-1,-2,1.09,10605,30,91,44,50,1159,0.0,668,462,60,121.0,0,1,388,285,124,0,0,0,250,250,0,-5.59,44.680946,10.024517,0.0,177.2,0,0.0,-1,0.0,0.0,0,0.77,2.8424
170563,1564152915251,5,2.3,0.86,0.32,1.42,1.05,1.12,0.25,0.59,-1,-0,-2,1.14,10708,28,91,44,47,1156,0.0,667,465,60,120.0,0,1,380,241,124,0,0,0,250,250,0,-5.59,,,,,,,,,,,,
170583,1564152915271,3,2.3,0.86,0.33,1.41,1.05,1.02,0.41,0.41,-0,1,-2,1.1,10806,27,91,43,44,1140,0.0,668,466,60,121.0,0,1,357,237,96,0,0,0,250,250,0,-5.59,,,,,,,,,,,,
170603,1564152915291,3,2.3,0.85,0.33,1.41,1.05,0.95,0.42,0.24,0,1,0,1.04,10581,27,91,44,43,1116,0.0,665,466,60,121.0,0,1,350,227,96,0,0,0,250,250,0,-5.59,,,,,,,,,,,,
170623,1564152915306,2,2.3,0.85,0.32,1.41,1.06,0.92,0.43,0.26,0,0,1,1.02,10416,27,91,44,43,1090,0.0,662,466,60,121.0,0,1,350,227,96,0,0,0,250,250,0,-5.59,,,,,,,,,,,,
170643,1564152915326,6,2.3,0.85,0.32,1.41,1.04,0.97,0.48,0.24,0,-1,1,1.08,10146,27,91,44,43,1077,0.0,661,464,60,121.0,0,1,350,227,96,0,0,0,250,250,0,-5.59,44.680946,10.024517,0.0,177.2,0,0.0,-1,0.0,0.0,0,0.77,2.844
170663,1564152915346,4,2.3,0.85,0.31,1.41,1.05,0.96,0.37,0.28,-0,0,0,1.02,9968,27,91,43,43,1067,0.0,655,468,60,121.0,0,1,350,227,96,0,0,0,250,250,0,-5.59,,,,,,,,,,,,
170683,1564152915366,6,2.3,0.84,0.31,1.41,1.04,0.98,0.36,0.36,-0,-1,0,1.04,9770,27,91,43,43,1032,0.0,656,462,60,121.0,0,1,350,225,83,0,0,0,250,250,0,-5.59,,,,,,,,,,,,
170703,1564152915400,2,2.31,0.83,0.31,1.41,1.03,0.83,0.31,0.31,0,1,0,0.89,9546,27,91,43,43,990,0.0,651,463,60,121.0,0,1,350,223,83,0,0,0,250,250,0,-5.59,,,,,,,,,,,,
170723,1564152915420,5,2.31,0.82,0.3,1.39,1.04,0.93,0.24,0.35,0,1,0,0.96,9551,27,91,43,42,954,0.0,652,467,60,121.0,0,1,342,220,83,0,0,0,250,250,0,-5.59,,,,,,,,,,,,
170743,1564152915440,3,2.3,0.82,0.3,1.38,1.02,0.87,0.31,0.43,-0,-1,1,0.93,9585,27,91,43,41,920,0.0,658,462,60,120.0,0,1,335,217,83,0,0,0,250,250,0,-5.59,44.680946,10.024517,0.0,177.2,0,0.0,-1,0.0,0.0,0,0.77,2.8457
170763,1564152915460,4,2.31,0.8,0.3,1.38,1.02,0.9,0.21,0.39,0,-0,0,0.93,9679,27,91,43,40,905,0.0,653,461,60,122.0,0,1,327,141,83,0,0,0,250,250,0,-5.59,,,,,,,,,,,,
170783,1564152915480,6,2.3,0.79,0.28,1.37,1.0,0.91,0.21,0.48,-0,-1,0,0.93,9765,27,91,43,39,898,0.0,649,467,60,121.0,0,1,320,213,79,0,0,0,250,250,0,-5.59,,,,,,,,,,,,
170803,1564152915494,5,2.3,0.78,0.27,1.36,0.99,0.93,0.11,0.45,-0,0,-0,0.93,9811,27,91,43,38,909,0.0,657,463,60,122.0,0,1,317,211,79,0,0,0,250,250,0,-5.59,,,,,,,,,,,,
170823,1564152915514,3,2.31,0.76,0.27,1.35,0.98,0.88,0.05,0.49,-0,0,-1,0.89,9925,27,91,43,38,936,0.0,645,470,60,120.0,0,1,317,211,79,0,0,0,250,250,0,-5.59,,,,,,,,,,,,
170843,1564152915534,6,2.3,0.75,0.25,1.34,0.97,0.87,0.09,0.48,0,-0,-0,0.87,9978,27,91,43,38,946,0.0,651,463,60,121.0,0,1,317,210,79,0,0,0,250,250,0,-5.59,44.680946,10.024517,0.0,177.2,0,0.0,-1,0.0,0.0,0,0.77,2.8474
170863,1564152915554,5,2.3,0.73,0.24,1.33,0.94,0.82,0.05,0.54,0,2,-1,0.82,9962,27,91,43,37,939,0.0,647,469,60,121.0,0,1,314,210,79,0,0,0,250,250,0,-5.59,,,,,,,,,,,,
170883,1564152915574,4,2.31,0.72,0.24,1.32,0.94,0.82,-0.03,0.63,0,1,-1,0.83,10032,27,91,43,37,919,0.0,653,470,60,121.0,0,1,314,210,80,0,0,0,250,250,0,-5.59,,,,,,,,,,,,
170903,1564152915594,5,2.3,0.71,0.22,1.31,0.93,0.78,-0.06,0.63,0,0,-0,0.78,10053,27,91,43,37,886,0.0,656,466,60,121.0,0,1,314,211,80,0,0,0,250,250,0,-5.59,,,,,,,,,,,,
170923,1564152915606,4,2.31,0.7,0.22,1.31,0.92,0.75,-0.13,0.68,0,2,-1,0.76,10048,27,91,43,37,857,0.0,659,462,60,121.0,0,1,314,211,80,0,0,0,250,250,0,-5.59,,,,,,,,,,,,
170943,1564152915626,4,2.31,0.69,0.21,1.3,0.92,0.74,-0.18,0.78,0,2,-2,0.76,10091,27,91,43,36,833,0.0,658,467,60,120.0,0,1,311,211,80,0,0,0,250,250,0,-5.59,44.680946,10.024517,0.0,177.2,0,0.0,-1,0.0,0.0,0,0.77,2.849
170963,1564152915646,4,2.31,0.69,0.21,1.3,0.91,0.71,-0.12,0.68,0,0,-1,0.72,10096,27,91,43,36,818,0.0,662,462,60,120.0,0,1,311,210,80,0,0,0,250,250,0,-5.59,,,,,,,,,,,,
170983,1564152915666,5,2.3,0.67,0.22,1.3,0.91,0.71,-0.19,0.71,0,2,-1,0.73,10064,27,91,43,37,828,0.0,658,462,60,121.0,0,1,314,137,80,0,0,0,250,250,0,-5.59,,,,,,,,,,,,
171003,1564152915702,5,2.31,0.68,0.22,1.29,0.91,0.76,-0.23,0.73,0,2,-2,0.79,10113,27,91,43,36,835,0.0,662,465,60,120.0,0,1,311,210,80,0,0,0,250,250,0,-5.59,,,,,,,,,,,,
171023,1564152915722,4,2.31,0.68,0.22,1.29,0.91,0.74,-0.16,0.66,-0,1,-2,0.76,10069,27,91,43,37,840,0.0,655,460,60,121.0,0,1,314,211,80,0,0,0,250,250,0,-5.59,,,,,,,,,,,,
171043,1564152915742,6,2.31,0.69,0.22,1.29,0.92,0.78,-0.19,0.62,-0,1,-1,0.8,10059,27,91,43,36,842,0.0,654,465,60,122.0,0,1,311,211,80,0,0,0,250,250,0,-5.59,44.680946,10.024517,0.0,177.2,0,0.0,-1,0.0,0.0,0,0.77,2.8507
171063,1564152915762,5,2.31,0.69,0.22,1.29,0.92,0.82,-0.13,0.59,-0,2,-2,0.83,10118,27,91,43,36,837,0.0,651,465,60,121.0,0,1,311,210,80,0,0,0,250,250,0,-5.59,,,,,,,,,,,,
171083,1564152915782,5,2.3,0.7,0.22,1.3,0.92,0.79,-0.12,0.59,-0,1,-2,0.8,10075,27,91,43,36,832,0.0,655,465,60,120.0,0,1,311,210,80,0,0,0,250,250,0,-5.59,,,,,,,,,,,,
171103,1564152915794,3,2.31,0.7,0.22,1.3,0.92,0.83,-0.02,0.53,-0,-0,-2,0.83,10080,27,91,43,36,826,0.0,658,466,60,121.0,0,1,311,210,80,0,0,0,250,250,0,-5.59,,,,,,,,,,,,
171123,1564152915814,4,2.3,0.69,0.23,1.3,0.92,0.84,0.13,0.42,-0,0,-1,0.85,10157,27,91,43,36,821,0.0,659,465,60,120.0,0,1,311,211,80,0,0,0,250,250,0,-5.59,,,,,,,,,,,,
171143,1564152915834,5,2.31,0.7,0.23,1.3,0.93,0.88,0.05,0.57,-0,-0,-1,0.88,10107,27,91,43,36,821,0.0,657,468,60,121.0,0,1,311,136,80,0,0,0,250,250,0,-5.59,44.680946,10.024517,0.0,177.2,0,0.0,-1,0.0,0.0,0,0.77,2.8524
171163,1564152915854,4,2.31,0.7,0.23,1.3,0.94,0.84,0.07,0.59,-0,-2,-1,0.84,10140,27,91,43,36,821,0.0,662,462,60,120.0,0,1,311,210,80,0,0,0,250,250,0,-5.59,,,,,,,,,,,,
171183,1564152915874,3,2.3,0.69,0.23,1.31,0.93,0.84,0.19,0.46,-0,-1,-1,0.86,10146,27,91,43,36,824,0.0,657,469,60,121.0,0,1,311,210,80,0,0,0,250,250,0,-5.59,,,,,,,,,,,,
171203,1564152915894,5,2.31,0.71,0.23,1.31,0.94,0.9,0.18,0.48,-0,-2,0,0.92,10091,27,91,43,36,827,0.0,659,469,60,121.0,0,1,311,210,80,0,0,0,250,250,0,-5.59,,,,,,,,,,,,
171223,1564152915908,5,2.3,0.7,0.23,1.3,0.93,0.84,0.17,0.47,-0,-3,0,0.86,10129,27,91,43,36,830,0.0,652,463,60,121.0,0,1,311,210,80,0,0,0,250,250,0,-5.59,,,,,,,,,,,,
171243,1564152915928,4,2.31,0.7,0.23,1.31,0.94,0.81,0.22,0.41,0,-1,-0,0.84,10032,27,91,43,36,833,0.0,655,468,60,121.0,0,1,311,135,80,0,0,0,250,250,0,-5.59,44.680946,10.024517,0.0,177.2,0,0.0,-1,0.0,0.0,0,0.77,2.854
171263,1564152915948,3,2.31,0.7,0.23,1.31,0.94,0.86,0.28,0.32,0,-2,1,0.9,10048,27,91,43,37,838,0.0,652,465,60,121.0,0,1,314,209,80,0,0,0,250,250,0,181.28,,,,,,,,,,,,
171283,1564152915968,6,2.3,0.71,0.24,1.32,0.94,0.82,0.31,0.26,0,-3,1,0.87,10091,27,91,43,37,843,0.0,656,464,60,121.0,0,1,314,211,80,0,0,0,250,250,0,-5.59,,,,,,,,,,,,
171303,1564152916000,4,2.3,0.72,0.25,1.31,0.93,0.77,0.25,0.31,0,-1,0,0.81,10048,27,91,43,36,844,0.0,662,462,60,121.0,0,1,311,209,80,0,0,0,250,250,0,-5.59,,,,,,,,,,,,
171323,1564152916020,4,2.31,0.72,0.25,1.32,0.94,0.77,0.36,0.21,0,-1,0,0.85,10069,27,91,43,36,845,0.0,655,467,60,121.0,0,1,311,210,80,0,0,0,250,250,0,-5.59,,,,,,,,,,,,
171343,1564152916040,6,2.3,0.71,0.25,1.32,0.94,0.7,0.37,0.19,1,-2,1,0.79,10124,26,91,43,36,846,0.0,657,456,60,121.0,0,1,311,210,80,0,0,0,250,250,0,-5.59,44.680946,10.024517,0.0,177.2,0,0.0,-1,0.0,0.0,0,0.77,2.8557
171363,1564152916060,4,2.31,0.72,0.25,1.31,0.95,0.69,0.23,0.3,0,0,1,0.73,10086,26,91,43,36,848,0.0,663,463,60,121.0,0,1,311,210,80,0,0,0,250,250,0,-5.59,,,,,,,,,,,,
171383,1564152916080,6,2.31,0.72,0.25,1.31,0.95,0.67,0.18,0.32,0,1,-1,0.69,10146,26,91,43,36,848,0.0,657,470,60,121.0,0,1,311,210,80,0,0,0,250,250,0,-5.59,,,,,,,,,,,,
171403,1564152916094,4,2.31,0.72,0.26,1.32,0.94,0.63,0.25,0.23,0,0,-0,0.68,10151,26,91,43,36,848,0.0,657,466,60,121.0,0,1,311,211,80,0,0,0,250,250,0,-5.59,,,,,,,,,,,,
171423,1564152916114,7,2.31,0.72,0.26,1.32,0.95,0.69,0.2,0.27,0,1,0,0.72,10118,26,91,43,36,850,0.0,660,463,60,122.0,0,1,311,210,80,0,0,0,250,250,0,-5.59,,,,,,,,,,,,
171443,1564152916134,5,2.31,0.72,0.26,1.33,0.95,0.74,0.09,0.44,0,1,-1,0.75,10168,26,91,43,36,852,0.0,657,463,60,121.0,0,1,311,137,80,0,0,0,250,250,0,-5.59,44.680946,10.024517,0.0,177.2,0,0.0,-1,0.0,0.0,0,0.77,2.8574
171463,1564152916154,5,2.3,0.72,0.26,1.33,0.95,0.72,0.05,0.49,0,0,-1,0.72,10135,26,91,43,36,854,0.0,656,462,60,120.0,0,1,311,210,80,0,0,0,250,250,0,-5.59,,,,,,,,,,,,
171483,1564152916174,4,2.31,0.73,0.26,1.32,0.96,0.73,0.17,0.4,0,-1,-0,0.75,10135,26,91,43,36,857,0.0,660,465,60,121.0,0,1,311,137,81,0,0,0,250,250,0,-5.59,,,,,,,,,,,,
171503,1564152916208,7,2.31,0.73,0.27,1.32,0.96,0.8,0.2,0.4,0,0,-0,0.82,10179,26,91,43,36,863,0.0,654,465,60,121.0,0,1,311,211,81,0,0,0,250,250,0,-5.59,,,,,,,,,,,,
171523,1564152916228,6,2.31,0.73,0.26,1.33,0.95,0.88,0.13,0.48,0,-1,1,0.89,10135,26,91,43,36,870,0.0,661,461,60,120.0,0,1,311,210,81,0,0,0,250,250,0,-5.59,,,,,,,,,,,,
171543,1564152916248,5,2.31,0.73,0.26,1.32,0.96,0.81,0.06,0.57,-0,-2,0,0.82,10190,26,91,43,36,876,0.0,660,463,60,120.0,0,1,311,137,81,0,0,0,250,250,0,-5.59,44.680946,10.024517,0.0,177.2,0,0.0,-1,0.0,0.0,0,0.77,2.859
171563,1564152916268,4,2.31,0.73,0.26,1.32,0.95,0.76,0.12,0.48,-0,-0,-0,0.76,10157,26,91,43,36,881,0.0,660,466,60,121.0,0,1,311,211,81,0,0,0,250,250,0,-5.59,,,,,,,,,,,,
171583,1564152916288,4,2.31,0.73,0.27,1.32,0.96,0.79,0.24,0.37,0,-1,1,0.83,10157,26,91,43,36,886,0.0,660,460,60,122.0,0,1,311,211,81,0,0,0,250,250,0,-5.59,,,,,,,,,,,,
171603,1564152916301,8,2.31,0.74,0.27,1.33,0.96,0.77,0.19,0.39,0,-2,1,0.79,10201,26,91,43,36,891,0.0,658,463,60,121.0,0,1,311,211,81,0,0,0,250,250,0,-5.59,,,,,,,,,,,,
171623,1564152916321,6,2.31,0.73,0.27,1.33,0.97,0.76,0.07,0.48,0,0,1,0.77,10168,26,91,43,36,893,0.0,657,465,60,122.0,0,1,311,211,81,0,0,0,250,250,0,-5.59,,,,,,,,,,,,
171643,1564152916341,5,2.31,0.74,0.28,1.34,0.96,0.74,0.04,0.51,-0,1,-1,0.75,10212,26,91,43,36,892,0.0,655,465,60,120.0,0,1,311,211,81,0,0,0,250,250,0,-5.59,44.680946,10.024517,0.0,177.2,0,0.0,-1,0.0,0.0,0,0.77,2.8607
171663,1564152916361,5,2.31,0.74,0.28,1.34,0.97,0.69,0.1,0.43,-0,-0,-1,0.7,10168,26,91,43,36,892,0.0,658,465,60,121.0,0,1,311,211,81,0,0,0,250,250,0,-5.59,,,,,,,,,,,,
171683,1564152916381,3,2.31,0.75,0.29,1.34,0.98,0.73,0.17,0.36,0,-1,0,0.75,10168,26,91,43,36,893,0.0,656,461,60,122.0,0,1,311,137,81,0,0,0,250,250,0,-5.59,,,,,,,,,,,,
171703,1564152916391,6,2.31,0.76,0.29,1.35,0.98,0.78,0.1,0.44,0,0,-0,0.79,10212,26,91,43,36,894,0.0,655,467,60,121.0,0,1,311,211,81,0,0,0,250,250,0,-5.59,,,,,,,,,,,,
171723,1564152916411,7,2.31,0.76,0.3,1.35,1.01,0.82,0.0,0.54,-0,0,-0,0.82,10162,26,91,43,36,895,0.0,657,462,60,121.0,0,1,311,211,81,0,0,0,250,250,0,-5.59,,,,,,,,,,,,
171743,1564152916431,5,2.31,0.79,0.31,1.36,1.02,0.79,0.03,0.55,-0,-1,-0,0.8,10206,26,91,43,36,896,0.0,663,462,60,120.0,0,1,311,137,81,0,0,0,250,250,0,-5.59,44.680946,10.024517,0.0,177.2,0,0.0,-1,0.0,0.0,0,0.77,2.8624
171763,1564152916451,5,2.31,0.81,0.33,1.38,1.03,0.77,0.17,0.43,0,0,-0,0.79,10206,26,90,43,36,897,0.0,659,465,60,121.0,0,1,311,211,81,0,0,0,250,250,0,-5.59,,,,,,,,,,,,
171783,1564152916471,5,2.31,0.81,0.34,1.39,1.05,0.81,0.27,0.33,0,0,1,0.86,10162,26,91,43,36,898,0.0,659,466,60,121.0,0,1,311,137,81,0,0,0,250,250,0,-5.59,,,,,,,,,,,,
171803,1564152916491,6,2.31,0.82,0.35,1.4,1.06,0.78,0.17,0.41,0,-0,1,0.8,10206,26,91,43,36,898,0.0,658,462,60,121.0,0,1,311,211,81,0,0,0,250,250,0,-5.59,,,,,,,,,,,,
171823,1564152916505,5,2.31,0.83,0.34,1.4,1.06,0.75,0.06,0.48,0,1,0,0.75,10179,26,91,43,36,898,0.0,656,461,60,121.0,0,1,311,211,81,0,0,0,250,250,0,-5.59,,,,,,,,,,,,
171843,1564152916525,6,2.3,0.84,0.35,1.41,1.06,0.73,0.06,0.45,0,2,-1,0.74,10223,26,91,43,36,900,0.0,657,467,60,121.0,0,1,311,211,81,0,0,0,250,250,0,-5.59,44.680946,10.024517,0.0,177.2,0,0.0,-1,0.0,0.0,0,0.77,2.864
171863,1564152916545,5,2.3,0.84,0.35,1.41,1.06,0.68,0.16,0.35,0,2,-0,0.7,10212,26,91,43,36,901,0.0,655,466,60,121.0,0,1,311,211,81,0,0,0,250,250,0,-5.59,,,,,,,,,,,,
171883,1564152916565,5,2.3,0.85,0.35,1.41,1.06,0.72,0.2,0.37,1,1,1,0.75,10179,26,91,43,36,903,0.0,657,464,60,122.0,0,1,311,211,81,0,0,0,250,250,0,-5.59,,,,,,,,,,,,
171903,1564152916599,7,2.31,0.84,0.35,1.41,1.06,0.77,0.09,0.49,1,2,0,0.77,10206,26,91,43,36,905,0.0,658,468,60,120.0,0,1,311,211,81,0,0,0,250,250,0,-5.59,,,,,,,,,,,,
171923,1564152916619,7,2.31,0.85,0.35,1.41,1.06,0.79,-0.0,0.63,0,2,-1,0.79,10162,26,91,43,36,907,0.0,655,465,60,121.0,0,1,311,211,81,0,0,0,250,250,0,-5.59,,,,,,,,,,,,
171943,1564152916639,5,2.31,0.85,0.35,1.41,1.07,0.78,0.03,0.61,0,0,-0,0.78,10201,26,91,43,36,908,0.0,658,461,60,120.0,0,1,311,211,81,0,0,0,250,250,0,-5.59,44.680946,10.024517,0.0,177.2,0,0.0,-1,0.0,0.0,0,0.77,2.8657
171963,1564152916659,6,2.32,0.85,0.35,1.42,1.06,0.79,0.17,0.49,0,1,0,0.8,10162,26,91,43,36,909,0.0,656,468,60,121.0,0,1,311,137,81,0,0,0,250,250,0,-5.59,,,,,,,,,,,,
171983,1564152916679,7,2.31,0.85,0.35,1.42,1.06,0.85,0.21,0.44,1,1,1,0.88,10157,26,90,43,36,909,0.0,655,469,60,121.0,0,1,311,211,81,0,0,0,250,250,0,-5.59,,,,,,,,,,,,
172003,1564152916693,7,2.31,0.85,0.35,1.42,1.05,0.81,0.11,0.55,0,-1,1,0.82,10206,26,90,43,36,907,0.0,657,464,60,121.0,0,1,311,211,81,0,0,0,250,250,0,-5.59,,,,,,,,,,,,
172023,1564152916713,6,2.31,0.84,0.35,1.41,1.06,0.75,0.04,0.56,0,1,1,0.75,10173,25,90,43,36,906,0.0,662,460,60,121.0,0,1,311,211,81,0,0,0,250,250,0,-5.59,,,,,,,,,,,,
172043,1564152916733,6,2.31,0.85,0.35,1.42,1.06,0.76,0.1,0.47,0,2,0,0.77,10212,23,90,43,35,905,0.0,654,467,60,121.0,0,1,308,210,81,0,0,0,250,250,0,-5.59,44.680946,10.024517,0.0,177.2,0,0.0,-1,0.0,0.0,0,0.77,2.8674
172063,1564152916753,5,2.31,0.85,0.35,1.41,1.06,0.73,0.17,0.43,0,1,0,0.75,10151,21,90,43,34,904,0.0,653,466,60,121.0,0,1,305,135,81,0,0,0,250,250,0,-5.59,,,,,,,,,,,,
172083,1564152916773,8,2.31,0.85,0.35,1.42,1.06,0.77,0.1,0.52,0,1,1,0.78,10113,20,90,43,33,904,0.0,657,466,60,122.0,0,1,302,133,79,0,0,0,250,250,0,-5.59,,,,,,,,,,,,
172103,1564152916793,6,2.3,0.83,0.35,1.42,1.05,0.76,0.02,0.58,0,2,-1,0.76,10075,20,90,43,33,904,0.0,656,461,60,121.0,0,1,302,132,79,0,0,0,250,250,0,-5.59,,,,,,,,,,,,
172123,1564152916805,5,2.31,0.85,0.35,1.42,1.06,0.77,0.04,0.56,0,1,-1,0.78,9989,19,90,43,32,906,0.0,656,473,60,121.0,0,1,300,203,79,0,0,0,250,250,0,-5.59,,,,,,,,,,,,
172143,1564152916825,6,2.31,0.85,0.36,1.42,1.06,0.73,0.01,0.53,0,1,-0,0.73,9821,19,90,43,32,907,0.0,660,460,60,122.0,0,1,300,200,79,0,0,0,250,250,0,-5.59,44.680946,10.024517,0.0,177.2,0,0.0,-1,0.0,0.0,0,0.77,2.869
172163,1564152916845,5,2.31,0.85,0.35,1.42,1.06,0.78,0.04,0.59,0,1,-1,0.79,9750,19,90,43,32,905,0.0,651,468,60,121.0,0,1,300,197,79,0,0,0,250,250,0,-5.59,,,,,,,,,,,,
172183,1564152916865,6,2.31,0.85,0.35,1.42,1.07,0.65,0.03,0.55,0,1,-0,0.65,9689,19,90,43,31,903,0.0,647,463,60,122.0,0,1,295,196,73,0,0,0,250,250,0,-5.59,,,,,,,,,,,,
172203,1564152916903,5,2.31,0.85,0.35,1.41,1.06,0.76,0.05,0.61,0,2,-0,0.76,9615,19,90,43,31,899,0.0,650,462,60,122.0,0,1,295,196,73,0,0,0,250,250,0,-5.59,,,,,,,,,,,,
172223,1564152916923,6,2.31,0.85,0.35,1.42,1.06,0.72,0.08,0.52,0,2,0,0.73,9571,19,90,43,31,896,0.0,644,465,60,122.0,0,1,295,194,73,0,0,0,250,250,0,-5.59,,,,,,,,,,,,
172243,1564152916943,7,2.31,0.85,0.35,1.43,1.06,0.77,-0.03,0.54,0,1,-0,0.77,9522,19,90,43,30,886,0.0,647,464,60,122.0,0,1,291,192,73,0,0,0,250,250,0,-5.59,44.680946,10.024517,0.0,177.2,0,0.0,-1,0.0,0.0,0,0.77,2.8707
172263,1564152916963,4,2.3,0.86,0.35,1.42,1.05,0.83,0.05,0.61,0,1,-0,0.83,9498,19,90,43,30,875,0.0,643,460,60,120.0,0,1,291,191,73,0,0,0,250,250,0,-5.59,,,,,,,,,,,,
172283,1564152916983,6,2.3,0.85,0.35,1.42,1.06,0.7,0.1,0.51,0,1,0,0.7,9469,19,90,43,30,866,0.0,648,462,60,120.0,0,1,291,191,68,0,0,0,250,250,0,-5.59,,,,,,,,,,,,
172303,1564152917003,6,2.31,0.86,0.35,1.43,1.06,0.7,-0.01,0.5,0,2,-0,0.7,9436,19,90,43,30,859,0.0,650,465,60,122.0,0,1,291,190,68,0,0,0,250,250,0,-5.59,,,,,,,,,,,,
172323,1564152917009,8,2.3,0.86,0.35,1.42,1.07,0.83,-0.05,0.6,0,-0,-0,0.83,9370,19,90,43,30,855,0.0,647,463,60,121.0,0,1,291,190,68,0,0,0,250,250,0,-5.59,,,,,,,,,,,,
172343,1564152917029,5,2.31,0.85,0.35,1.43,1.06,0.82,0.07,0.59,0,1,0,0.82,9323,19,90,43,30,852,0.0,646,466,60,122.0,0,1,291,189,68,0,0,0,250,250,0,-5.59,44.680946,10.024517,0.0,177.2,0,0.0,-1,0.0,0.0,0,0.77,2.8724
172363,1564152917049,5,2.31,0.85,0.35,1.42,1.06,0.76,0.11,0.46,1,1,1,0.77,9286,19,90,43,30,855,0.0,647,463,60,122.0,0,1,291,188,68,0,0,0,250,250,0,-5.59,,,,,,,,,,,,
172383,1564152917069,6,2.3,0.85,0.35,1.43,1.06,0.62,0.02,0.43,0,2,0,0.62,9254,19,90,43,30,859,0.0,646,461,60,122.0,0,1,291,188,66,0,0,0,250,250,0,-5.59,,,,,,,,,,,,
172403,1564152917107,7,2.3,0.86,0.35,1.42,1.06,0.66,-0.08,0.5,-0,2,-1,0.66,9227,19,90,43,30,866,0.0,643,466,60,122.0,0,1,291,112,66,0,0,0,250,250,0,-5.59,,,,,,,,,,,,
172423,1564152917127,8,2.3,0.86,0.36,1.43,1.06,0.8,-0.1,0.61,-0,-1,-1,0.8,9191,19,90,43,30,873,0.0,640,466,60,122.0,0,1,291,187,66,0,0,0,250,250,0,-5.59,,,,,,,,,,,,
172443,1564152917147,7,2.31,0.86,0.35,1.42,1.06,0.92,-0.03,0.66,-0,-2,-0,0.92,9191,19,90,43,30,877,0.0,641,461,60,121.0,0,1,291,112,66,0,0,0,250,250,0,-5.59,44.680946,10.024517,0.0,177.2,0,0.0,-1,0.0,0.0,0,0.77,2.8741
172463,1564152917167,7,2.31,0.86,0.35,1.42,1.06,1.02,0.1,0.68,-0,-3,1,1.02,9164,19,90,43,30,879,0.0,638,468,60,121.0,0,1,291,186,66,0,0,0,250,250,0,-5.59,,,,,,,,,,,,
172483,1564152917187,5,2.31,0.86,0.35,1.43,1.06,1.02,0.21,0.68,0,-2,1,1.04,9110,19,90,43,30,883,0.0,642,463,60,122.0,0,1,291,186,64,0,0,0,250,250,0,-5.59,,,,,,,,,,,,
172503,1564152917199,5,2.31,0.86,0.35,1.43,1.05,0.96,0.31,0.59,1,-2,2,1.01,9062,19,90,43,30,887,0.0,643,465,60,121.0,0,1,291,185,64,0,0,0,250,250,0,-5.59,,,,,,,,,,,,
172523,1564152917219,6,2.3,0.86,0.35,1.42,1.07,0.95,0.4,0.55,1,-1,2,1.03,8975,19,90,43,30,890,0.0,641,459,60,122.0,0,1,291,110,64,0,0,0,250,250,0,-5.59,,,,,,,,,,,,
172543,1564152917239,8,2.3,0.86,0.35,1.42,1.06,0.95,0.44,0.55,1,-1,3,1.04,8911,19,90,43,31,892,0.0,642,461,60,122.0,0,1,295,185,64,0,0,0,250,250,0,-5.59,44.680946,10.024517,0.0,177.2,0,0.0,-1,0.0,0.0,0,0.77,2.8757
172563,1564152917259,8,2.3,0.86,0.35,1.43,1.06,1.05,0.47,0.61,1,-2,3,1.15,8806,19,90,43,31,900,0.0,638,462,60,121.0,0,1,295,110,64,0,0,0,250,250,0,-5.59,,,,,,,,,,,,
172583,1564152917279,7,2.31,0.86,0.36,1.42,1.07,1.15,0.4,0.66,0,-4,2,1.22,8729,19,90,43,31,915,0.0,637,466,60,123.0,0,1,295,110,61,0,0,0,250,250,0,-5.59,,,,,,,,,,,,
172603,1564152917299,5,2.32,0.86,0.36,1.43,1.06,1.07,0.32,0.71,0,-2,1,1.12,8696,19,90,43,31,929,0.0,637,465,60,123.0,0,1,295,185,61,0,0,0,250,250,0,-5.59,,,,,,,,,,,,
172623,1564152917308,5,2.31,0.86,0.35,1.42,1.06,0.92,0.27,0.63,0,-0,1,0.95,8652,19,89,43,32,942,0.0,636,462,60,122.0,0,1,300,110,61,0,0,0,250,250,0,-5.59,,,,,,,,,,,,
172643,1564152917328,8,2.31,0.86,0.35,1.42,1.07,0.89,0.3,0.55,1,0,2,0.94,8620,19,90,43,32,965,0.0,634,463,60,122.0,0,1,300,185,61,0,0,0,250,250,0,-5.59,44.680946,10.024517,0.0,177.2,0,0.0,-1,0.0,0.0,0,0.77,2.8774
172663,1564152917348,7,2.3,0.87,0.35,1.42,1.06,0.99,0.31,0.6,1,-0,1,1.04,8604,19,90,43,32,999,0.0,630,463,60,123.0,0,1,300,110,61,0,0,0,250,250,0,-5.59,,,,,,,,,,,,
172683,1564152917368,5,2.31,0.86,0.36,1.42,1.06,1.05,0.22,0.66,0,-2,1,1.07,8640,19,89,43,32,1030,0.0,632,467,60,123.0,0,1,300,185,60,0,0,0,250,250,0,181.28,,,,,,,,,,,,
172703,1564152917406,4,2.31,0.86,0.35,1.42,1.06,0.89,0.18,0.59,0,-1,0,0.9,8608,19,89,43,32,1051,0.0,636,465,60,122.0,0,1,300,110,60,0,0,0,250,250,0,-5.59,,,,,,,,,,,,
172723,1564152917426,7,2.31,0.85,0.35,1.42,1.06,0.84,0.22,0.56,1,-0,2,0.87,8577,19,90,43,33,1071,0.0,636,465,60,122.0,0,1,302,188,60,0,0,0,250,250,0,-5.59,,,,,,,,,,,,
172743,1564152917446,6,2.31,0.85,0.34,1.42,1.06,0.96,0.21,0.59,0,-1,1,0.98,8507,19,90,43,33,1090,0.0,634,466,60,121.0,0,1,302,188,60,0,0,0,250,250,0,-5.59,44.680946,10.024517,0.0,177.2,0,0.0,-1,0.0,0.0,0,0.77,2.879
172763,1564152917466,5,2.31,0.86,0.35,1.43,1.06,0.83,0.19,0.54,0,-0,1,0.86,8484,19,90,43,33,1103,0.0,639,466,60,122.0,0,1,301,187,60,0,0,0,250,250,0,-5.59,,,,,,,,,,,,
172783,1564152917486,7,2.31,0.86,0.36,1.43,1.07,0.85,0.19,0.52,0,-0,2,0.87,8461,19,89,43,33,1099,0.0,633,466,60,122.0,0,1,301,111,59,0,0,0,250,250,0,-5.59,,,,,,,,,,,,
172803,1564152917496,6,2.31,0.87,0.36,1.43,1.07,0.94,0.17,0.58,0,-1,0,0.96,8449,19,89,44,33,1092,0.0,630,463,60,121.0,0,1,300,186,59,0,0,0,250,250,0,-5.59,,,,,,,,,,,,
172823,1564152917516,3,2.32,0.87,0.36,1.43,1.07,0.79,0.14,0.53,0,0,1,0.8,8476,19,89,43,33,1074,0.0,627,466,60,121.0,0,1,301,187,59,0,0,0,250,250,0,-5.59,,,,,,,,,,,,
172843,1564152917536,6,2.31,0.87,0.36,1.43,1.07,0.91,0.14,0.55,-0,-1,1,0.93,8449,19,89,43,34,1055,0.0,629,466,60,121.0,0,1,303,114,59,0,0,0,250,250,0,-5.59,44.680946,10.024517,0.0,177.2,0,0.0,-1,0.0,0.0,0,0.77,2.8807
172863,1564152917556,5,2.31,0.87,0.36,1.43,1.07,0.93,0.12,0.57,-0,-1,0,0.94,8404,19,89,44,34,1040,0.0,623,462,60,120.0,0,1,303,114,59,0,0,0,250,250,0,-5.59,,,,,,,,,,,,
172883,1564152917576,8,2.3,0.88,0.36,1.44,1.07,0.8,0.12,0.5,0,0,1,0.81,8385,19,89,44,34,1026,0.0,632,461,60,122.0,0,1,302,187,59,0,0,0,250,250,0,-5.59,,,,,,,,,,,,
172903,1564152917596,6,2.29,0.88,0.36,1.44,1.07,0.9,0.12,0.53,0,-1,-0,0.91,8378,19,89,44,34,1018,0.0,627,464,60,122.0,0,1,302,187,59,0,0,0,250,250,0,-5.59,,,,,,,,,,,,
172923,1564152917610,4,2.29,0.88,0.36,1.44,1.07,0.79,0.11,0.51,0,0,0,0.8,8404,19,89,43,34,1010,0.0,629,462,60,121.0,0,1,303,189,59,0,0,0,250,250,0,-5.59,,,,,,,,,,,,
172943,1564152917630,6,2.29,0.88,0.36,1.44,1.07,0.91,0.13,0.53,-0,-1,0,0.92,8400,19,89,44,34,1018,0.0,627,464,60,122.0,0,1,303,114,59,0,0,0,250,250,0,-5.59,44.680946,10.024517,0.0,177.2,0,0.0,-1,0.0,0.0,0,0.77,2.8824
172963,1564152917650,5,2.3,0.89,0.36,1.45,1.08,0.91,0.11,0.57,-0,-2,0,0.92,8355,19,89,44,34,1024,0.0,636,463,60,122.0,0,1,302,186,59,0,0,0,250,250,0,-5.59,,,,,,,,,,,,
172983,1564152917670,5,2.3,0.88,0.36,1.45,1.07,0.83,0.09,0.5,0,-0,1,0.84,8340,19,89,44,34,1026,0.0,633,465,60,122.0,0,1,301,111,58,0,0,0,250,250,0,-5.59,,,,,,,,,,,,
173003,1564152917704,4,2.3,0.89,0.35,1.45,1.07,0.92,0.08,0.59,0,-1,-0,0.93,8333,19,89,44,35,1027,0.0,629,465,60,120.0,0,1,304,186,58,0,0,0,250,250,0,414.87,,,,,,,,,,,,
173023,1564152917724,2,2.3,0.88,0.36,1.44,1.06,0.78,0.08,0.52,0,0,0,0.78,8385,19,89,44,34,1022,0.0,627,465,60,122.0,0,1,302,191,58,0,0,0,250,250,0,-5.59,,,,,,,,,,,,
173043,1564152917744,5,2.3,0.88,0.36,1.45,1.07,0.9,0.06,0.55,-0,-1,-0,0.9,8351,19,89,44,35,1016,0.0,627,463,60,120.0,0,1,305,116,58,0,0,0,250,250,0,-5.59,44.680946,10.024517,0.0,177.2,0,0.0,-1,0.0,0.0,0,0.77,2.884
173063,1564152917764,3,2.29,0.88,0.36,1.44,1.07,0.81,0.09,0.5,-0,-1,0,0.81,8325,19,89,44,34,1007,0.0,630,465,60,122.0,0,1,301,185,58,0,0,0,250,250,0,-5.59,,,,,,,,,,,,
173083,1564152917784,6,2.29,0.88,0.35,1.44,1.07,0.89,0.06,0.53,-0,-2,1,0.89,8311,19,89,44,35,998,0.0,621,465,60,121.0,0,1,304,189,59,0,0,0,250,250,0,-5.59,,,,,,,,,,,,
173103,1564152917798,3,2.29,0.88,0.36,1.44,1.07,0.81,0.1,0.54,-0,-1,-1,0.82,8333,19,89,44,35,994,0.0,622,462,60,122.0,0,1,304,189,59,0,0,0,250,250,0,181.28,,,,,,,,,,,,
173123,1564152917818,6,2.28,0.87,0.35,1.44,1.07,0.79,0.08,0.52,0,-1,1,0.8,8329,19,89,44,35,990,0.0,627,465,60,121.0,0,1,304,189,59,0,0,0,250,250,0,-5.59,,,,,,,,,,,,
173143,1564152917838,4,2.28,0.88,0.36,1.43,1.06,0.83,0.12,0.53,-0,-0,1,0.83,8292,19,89,44,35,987,0.0,622,464,60,121.0,0,1,303,115,59,0,0,0,250,250,0,-5.59,44.680946,10.024517,0.0,177.2,0,0.0,-1,0.0,0.0,0,0.77,2.8857
173163,1564152917858,6,2.28,0.88,0.35,1.43,1.06,0.77,0.08,0.49,-0,0,-0,0.77,8274,19,89,44,35,983,0.0,633,466,60,122.0,0,1,303,188,59,0,0,0,250,250,0,-5.59,,,,,,,,,,,,
173183,1564152917878,5,2.27,0.87,0.35,1.44,1.07,0.87,0.08,0.54,-1,-1,0,0.87,8285,19,89,44,35,982,0.0,626,462,60,121.0,0,1,303,114,58,0,0,0,250,250,0,-5.59,,,,,,,,,,,,
173203,1564152917898,5,2.27,0.88,0.36,1.45,1.06,0.79,0.09,0.51,-0,-1,0,0.8,8289,19,89,44,36,982,0.0,628,466,60,122.0,0,1,306,119,58,0,0,0,250,250,0,-5.59,,,,,,,,,,,,
173223,1564152917910,5,2.26,0.88,0.36,1.45,1.07,0.87,0.09,0.53,-0,-1,-0,0.88,8281,19,89,44,36,982,0.0,628,459,60,120.0,0,1,306,119,58,0,0,0,250,250,0,-5.59,,,,,,,,,,,,
173243,1564152917930,7,2.25,0.89,0.37,1.45,1.07,0.76,0.1,0.48,0,-0,0,0.76,8241,19,89,44,36,981,0.0,632,463,60,120.0,0,1,305,118,58,0,0,0,250,250,0,-5.59,44.680946,10.024517,0.0,177.2,0,0.0,-1,0.0,0.0,0,0.77,2.8874
173263,1564152917950,3,2.24,0.89,0.37,1.45,1.07,0.82,0.09,0.54,0,-1,-0,0.83,8267,20,89,44,36,981,0.0,626,461,60,121.0,0,1,306,118,58,0,0,0,250,250,0,-5.59,,,,,,,,,,,,
173283,1564152917970,6,2.22,0.89,0.36,1.46,1.08,0.72,0.08,0.5,1,0,-0,0.73,8289,20,89,44,36,980,0.0,633,463,60,119.0,0,1,306,193,60,0,0,0,250,250,0,-5.59,,,,,,,,,,,,
173303,1564152918004,5,2.22,0.89,0.37,1.46,1.08,0.85,0.07,0.53,0,-1,-0,0.85,8289,20,89,44,36,979,0.0,623,466,60,120.0,0,1,306,119,60,0,0,0,250,250,0,-5.59,,,,,,,,,,,,
173323,1564152918024,6,2.23,0.89,0.37,1.45,1.09,0.78,0.08,0.51,-0,-1,0,0.78,8259,20,89,44,36,976,0.0,626,465,60,120.0,0,1,306,192,60,0,0,0,250,250,0,-5.59,,,,,,,,,,,,
173343,1564152918044,3,2.22,0.9,0.37,1.45,1.08,0.9,0.06,0.59,-1,-2,0,0.9,8270,20,89,44,36,974,0.0,624,465,60,121.0,0,1,306,192,60,0,0,0,250,250,0,-5.59,44.680946,10.024517,0.0,177.2,0,0.0,-1,0.0,0.0,0,0.77,2.889
173363,1564152918064,5,2.22,0.9,0.37,1.45,1.09,0.76,0.05,0.55,-0,-1,-1,0.77,8300,20,89,44,36,971,0.0,622,465,60,122.0,0,1,307,119,60,0,0,0,250,250,0,-5.59,,,,,,,,,,,,
173383,1564152918084,4,2.22,0.89,0.37,1.45,1.09,0.87,-0.01,0.58,-0,-2,-0,0.87,8325,20,88,44,36,967,0.0,628,466,60,119.0,0,1,307,120,61,0,0,0,250,250,0,-5.59,,,,,,,,,,,,
173403,1564152918096,2,2.22,0.9,0.37,1.46,1.08,0.72,0.04,0.54,0,0,-0,0.73,8289,20,88,44,36,963,0.0,631,465,60,122.0,0,1,306,119,61,0,0,0,250,250,0,-5.59,,,,,,,,,,,,
173423,1564152918116,5,2.21,0.9,0.36,1.46,1.08,0.81,0.03,0.55,0,-0,-1,0.81,8307,20,88,44,36,959,0.0,633,461,60,120.0,0,1,307,193,61,0,0,0,250,250,0,-5.59,,,,,,,,,,,,
173443,1564152918136,1,2.22,0.9,0.37,1.45,1.08,0.75,0.06,0.52,0,0,0,0.76,8359,20,88,44,36,956,0.0,631,466,60,121.0,0,1,308,121,61,0,0,0,250,250,0,-5.59,44.680946,10.024517,0.0,177.2,0,0.0,-1,0.0,0.0,0,0.77,2.8907
173463,1564152918156,4,2.22,0.89,0.37,1.45,1.08,0.8,0.06,0.55,-0,-1,-0,0.8,8359,20,88,44,36,956,0.0,627,466,60,121.0,0,1,308,121,61,0,0,0,250,250,0,-5.59,,,,,,,,,,,,
173483,1564152918176,2,2.22,0.89,0.37,1.45,1.09,0.85,0.07,0.56,-0,-1,-0,0.85,8340,21,88,44,36,959,0.0,633,462,60,121.0,0,1,307,194,61,0,0,0,250,250,0,-5.59,,,,,,,,,,,,
173503,1564152918196,4,2.22,0.9,0.37,1.44,1.08,0.74,0.06,0.52,0,-0,0,0.74,8337,21,88,44,36,962,0.0,633,465,60,122.0,0,1,307,194,61,0,0,0,250,250,0,-5.59,,,,,,,,,,,,
173523,1564152918208,3,2.23,0.9,0.36,1.46,1.08,0.86,0.07,0.58,0,-1,-0,0.87,8370,21,88,44,36,966,0.0,626,461,60,120.0,0,1,308,194,61,0,0,0,250,250,0,-5.59,,,,,,,,,,,,
173543,1564152918228,1,2.23,0.89,0.36,1.45,1.08,0.7,0.08,0.54,1,0,-0,0.71,8363,21,88,44,36,974,0.0,628,465,60,120.0,0,1,308,194,61,0,0,0,250,250,0,-5.59,44.680946,10.024517,0.0,177.2,0,0.0,-1,0.0,0.0,0,0.77,2.8924
173563,1564152918248,4,2.24,0.88,0.36,1.45,1.08,0.84,0.08,0.56,-0,-2,0,0.84,8396,21,88,44,36,985,0.0,628,465,60,120.0,0,1,308,121,61,0,0,0,250,250,0,-5.59,,,,,,,,,,,,
173583,1564152918268,2,2.23,0.88,0.36,1.45,1.07,0.75,0.08,0.56,-0,-0,-0,0.75,8385,21,88,44,36,994,0.0,625,463,60,121.0,0,1,308,121,63,0,0,0,250,250,0,-5.59,,,,,,,,,,,,
173603,1564152918301,3,2.25,0.88,0.36,1.44,1.07,0.75,0.07,0.54,0,-0,0,0.76,8393,21,88,44,37,1000,0.0,632,467,60,121.0,0,1,311,125,63,0,0,0,250,250,0,-5.59,,,,,,,,,,,,
173623,1564152918321,3,2.25,0.88,0.35,1.45,1.07,0.84,0.06,0.61,-0,-1,-0,0.85,8423,21,88,44,37,1007,0.0,625,463,60,121.0,0,1,312,126,63,0,0,0,250,250,0,-5.59,,,,,,,,,,,,
173643,1564152918341,2,2.25,0.88,0.36,1.45,1.07,0.67,0.05,0.54,0,0,0,0.67,8480,21,88,44,36,1015,0.0,629,464,60,120.0,0,1,310,196,63,0,0,0,250,250,0,-5.59,44.680946,10.024517,0.0,177.2,0,0.0,-1,0.0,0.0,0,0.77,2.8941
173663,1564152918361,2,2.26,0.89,0.36,1.45,1.07,0.81,0.07,0.59,-0,-1,-0,0.81,8511,21,88,44,36,1022,0.0,627,465,60,121.0,0,1,311,197,63,0,0,0,250,250,0,-5.59,,,,,,,,,,,,
173683,1564152918381,1,2.26,0.89,0.36,1.44,1.08,0.88,0.04,0.63,-0,-2,-0,0.88,8484,21,88,44,36,1025,0.0,631,461,60,121.0,0,1,310,196,63,0,0,0,250,250,0,-5.59,,,,,,,,,,,,
173703,1564152918395,1,2.25,0.88,0.36,1.44,1.07,0.7,0.09,0.53,0,1,-0,0.71,8499,22,88,44,36,1026,0.0,633,470,60,121.0,0,1,310,196,63,0,0,0,250,250,0,-5.59,,,,,,,,,,,,
173723,1564152918415,3,2.26,0.89,0.35,1.45,1.07,0.76,0.11,0.55,0,1,-0,0.76,8534,22,88,44,36,1025,0.0,637,462,60,121.0,0,1,311,197,63,0,0,0,250,250,0,-5.59,,,,,,,,,,,,
173743,1564152918435,2,2.26,0.88,0.36,1.44,1.08,0.88,0.07,0.59,-0,-1,0,0.89,8514,22,88,44,36,1025,0.0,633,463,60,120.0,0,1,311,124,63,0,0,0,250,250,0,-5.59,44.680946,10.024517,0.0,177.2,0,0.0,-1,0.0,0.0,0,0.77,2.8957
173763,1564152918455,2,2.26,0.89,0.36,1.45,1.07,0.72,0.04,0.56,0,0,-1,0.73,8589,27,88,44,36,1023,0.0,635,461,60,122.0,0,1,311,197,63,0,0,0,250,250,0,-5.59,,,,,,,,,,,,
173783,1564152918475,4,2.26,0.89,0.36,1.44,1.07,0.62,0.08,0.49,0,1,-0,0.62,8628,37,88,44,39,1020,0.0,632,463,60,119.0,0,1,320,208,66,0,0,0,250,250,0,-5.59,,,,,,,,,,,,
173803,1564152918495,3,2.26,0.88,0.36,1.44,1.07,0.76,0.12,0.55,0,0,-0,0.77,8640,48,88,44,44,1018,0.0,631,465,60,120.0,0,1,351,217,66,0,0,0,250,250,0,-5.59,,,,,,,,,,,,
173823,1564152918505,2,2.26,0.88,0.36,1.44,1.07,0.85,0.05,0.57,-0,-1,-0,0.85,8612,60,88,44,52,1016,0.0,630,462,60,120.0,0,1,385,251,66,0,0,0,250,250,0,-5.59,,,,,,,,,,,,
173843,1564152918525,1,2.25,0.88,0.36,1.44,1.07,0.71,0.04,0.52,0,1,-1,0.71,8557,70,88,44,60,1016,0.0,628,463,60,121.0,0,1,433,252,66,0,0,0,250,250,0,-5.59,44.680946,10.024517,0.0,177.2,0,0.0,-1,0.0,0.0,0,0.77,2.8974
173863,1564152918545,4,2.26,0.88,0.35,1.44,1.07,0.69,0.04,0.5,0,1,-1,0.69,8546,81,88,44,70,1017,0.0,631,464,60,120.0,0,1,430,322,66,0,0,0,250,250,0,-5.59,,,,,,,,,,,,
173883,1564152918565,3,2.26,0.87,0.35,1.43,1.06,0.82,0.03,0.56,-0,-1,0,0.82,8511,93,88,44,80,1029,0.0,626,462,60,120.0,0,1,427,480,146,0,0,0,250,250,0,181.28,,,,,,,,,,,,
173903,1564152918603,3,2.26,0.86,0.35,1.43,1.06,0.75,-0.0,0.62,-0,-1,-1,0.75,8716,100,88,44,86,1042,0.0,630,462,60,121.0,0,1,426,568,146,0,0,0,250,250,0,-5.59,,,,,,,,,,,,
173923,1564152918623,3,2.27,0.86,0.35,1.42,1.06,0.69,-0.14,0.62,-0,-1,-1,0.7,9071,100,88,44,87,1054,0.0,634,466,60,120.0,0,1,418,525,146,0,0,0,250,250,0,-5.59,,,,,,,,,,,,
173943,1564152918643,3,2.26,0.86,0.34,1.42,1.06,0.75,-0.08,0.68,-0,-1,-1,0.75,9556,100,88,44,86,1066,0.0,645,468,60,121.0,0,1,416,569,146,0,0,0,250,250,0,-5.59,44.680946,10.024517,0.0,177.2,0,0.0,-1,0.0,0.0,0,0.77,2.899
173963,1564152918663,1,2.26,0.86,0.34,1.43,1.05,0.86,-0.08,0.74,-0,-2,-1,0.87,9989,100,88,44,86,1143,0.0,653,463,60,121.0,0,1,397,580,146,0,0,0,250,250,0,-5.59,,,,,,,,,,,,
173983,1564152918683,2,2.26,0.86,0.34,1.42,1.05,0.78,-0.13,0.73,-0,-2,-0,0.79,10184,100,88,44,85,1219,0.0,653,450,60,122.0,0,1,408,562,218,0,0,0,250,250,0,181.28,,,,,,,,,,,,
174003,1564152918693,2,2.27,0.85,0.33,1.42,1.04,0.79,-0.02,0.67,-0,-0,-1,0.79,9920,100,88,44,87,1287,0.0,652,462,60,121.0,0,1,400,594,218,0,0,0,250,250,0,414.87,,,,,,,,,,,,
174023,1564152918713,3,2.27,0.85,0.34,1.41,1.05,0.83,-0.02,0.69,-0,-2,0,0.83,9745,100,88,44,89,1352,0.0,654,464,60,121.0,0,1,409,603,218,0,0,0,250,250,0,-5.59,,,,,,,,,,,,
174043,1564152918733,1,2.27,0.85,0.33,1.42,1.05,0.76,-0.05,0.73,-0,-2,-0,0.76,10245,100,88,44,87,1401,0.0,651,470,60,123.0,0,1,414,546,218,0,0,0,250,250,0,-5.59,44.680946,10.024517,0.0,177.2,0,0.0,-1,0.0,0.0,0,0.77,2.9007
174063,1564152918753,0,2.26,0.85,0.34,1.42,1.05,0.76,0.04,0.66,0,-1,-1,0.76,10053,100,88,44,86,1448,0.0,652,461,60,123.0,0,1,399,580,218,0,0,0,250,250,0,414.87,,,,,,,,,,,,
174083,1564152918773,4,2.26,0.86,0.34,1.43,1.06,0.83,0.05,0.61,-0,-1,0,0.83,9863,100,88,44,88,1448,0.0,650,452,60,120.0,0,1,404,609,224,0,0,0,250,250,0,181.28,,,,,,,,,,,,
174103,1564152918793,3,2.26,0.86,0.34,1.43,1.05,0.8,0.08,0.67,-0,-3,0,0.8,9775,100,88,44,88,1428,0.0,649,461,60,121.0,0,1,407,552,224,0,0,0,250,250,0,-5.59,,,,,,,,,,,,
174123,1564152918807,1,2.26,0.86,0.35,1.42,1.06,0.86,0.19,0.57,0,-3,1,0.89,10212,100,88,44,86,1423,0.0,646,471,60,124.0,0,1,410,580,224,0,0,0,250,250,0,-5.59,,,,,,,,,,,,
174143,1564152918827,4,2.26,0.87,0.34,1.43,1.06,0.94,0.18,0.59,0,-5,1,0.95,10005,100,88,44,86,1423,0.0,650,458,60,123.0,0,1,396,580,224,0,0,0,250,250,0,414.87,44.680946,10.024517,0.0,177.2,0,0.0,-1,0.0,0.0,0,0.77,2.9024
174163,1564152918847,3,2.26,0.87,0.34,1.44,1.06,0.86,0.17,0.64,0,-5,1,0.88,9821,100,87,44,88,1435,0.0,657,462,60,120.0,0,1,405,554,224,0,0,0,250,250,0,-5.59,,,,,,,,,,,,
174183,1564152918867,-1,2.26,0.86,0.34,1.44,1.06,0.93,0.14,0.6,0,-3,1,0.94,9847,100,87,44,88,1452,0.0,650,462,60,121.0,0,1,404,556,229,0,0,0,250,250,0,-5.59,,,,,,,,,,,,
174203,1564152918903,-0,2.26,0.87,0.35,1.42,1.06,0.97,0.09,0.64,-0,-4,2,0.98,10190,100,88,44,86,1469,0.0,655,460,60,123.0,0,1,409,580,229,0,0,0,250,250,0,181.28,,,,,,,,,,,,
174223,1564152918923,1,2.25,0.87,0.35,1.42,1.06,0.89,0.09,0.69,0,-4,1,0.89,9994,100,88,44,87,1488,0.0,657,456,60,122.0,0,1,397,597,229,0,0,0,250,250,0,414.87,,,,,,,,,,,,
174243,1564152918943,4,2.26,0.87,0.34,1.44,1.06,0.98,0.08,0.65,-0,-4,1,0.98,9816,100,87,44,89,1498,0.0,651,465,60,121.0,0,1,406,570,229,0,0,0,250,250,0,-5.59,44.680946,10.024517,0.0,177.2,0,0.0,-1,0.0,0.0,0,0.77,2.904
174263,1564152918963,0,2.26,0.87,0.34,1.43,1.07,0.99,-0.03,0.72,-0,-4,1,0.99,9994,100,87,44,87,1498,0.0,647,467,60,121.0,0,1,397,597,229,0,0,0,250,250,0,-5.59,,,,,,,,,,,,
174283,1564152918983,-0,2.26,0.87,0.35,1.43,1.06,0.91,-0.05,0.75,-0,-5,1,0.91,10245,100,88,44,86,1498,0.0,650,457,60,123.0,0,1,413,580,227,0,0,0,250,250,0,414.87,,,,,,,,,,,,
174303,1564152918993,1,2.26,0.87,0.34,1.43,1.06,0.92,0.06,0.67,-0,-4,1,0.93,9989,100,88,44,87,1498,0.0,644,460,60,123.0,0,1,397,598,227,0,0,0,250,250,0,414.87,,,,,,,,,,,,
174323,1564152919013,4,2.26,0.87,0.35,1.43,1.07,0.95,0.05,0.66,-0,-4,2,0.95,9796,100,87,44,88,1498,0.0,655,462,60,120.0,0,1,406,553,227,0,0,0,250,250,0,-5.59,,,,,,,,,,,,
174343,1564152919033,-1,2.26,0.87,0.35,1.44,1.06,0.92,0.04,0.64,-0,-5,1,0.92,10140,100,87,44,87,1498,0.0,645,463,60,122.0,0,1,406,546,227,0,0,0,250,250,0,-5.59,44.680946,10.024517,0.0,177.2,0,0.0,-1,0.0,0.0,0,0.77,2.9057
174363,1564152919053,1,2.26,0.87,0.35,1.44,1.06,0.92,0.16,0.55,0,-3,1,0.93,10075,100,88,45,86,1498,0.0,646,463,60,123.0,0,1,401,580,227,0,0,0,250,250,0,414.87,,,,,,,,,,,,
174383,1564152919073,2,2.26,0.87,0.34,1.43,1.07,0.96,0.14,0.56,-0,-4,1,0.97,9878,100,88,45,88,1498,0.0,655,458,60,120.0,0,1,403,610,225,0,0,0,250,250,0,-5.59,,,,,,,,,,,,
174403,1564152919109,2,2.26,0.87,0.34,1.43,1.07,0.93,0.2,0.58,0,-4,2,0.95,9745,100,87,44,89,1498,0.0,651,463,60,120.0,0,1,409,566,225,0,0,0,250,250,0,-5.59,,,,,,,,,,,,
174423,1564152919129,-2,2.26,0.87,0.35,1.43,1.07,0.98,0.25,0.61,0,-3,2,1.01,10162,100,87,44,87,1498,0.0,651,470,60,123.0,0,1,408,598,225,0,0,0,250,250,0,-5.59,,,,,,,,,,,,
174443,1564152919149,4,2.26,0.87,0.35,1.44,1.06,0.98,0.17,0.64,-0,-3,2,1.0,9962,100,88,45,86,1498,0.0,654,465,60,122.0,0,1,398,578,225,0,0,0,250,250,0,414.87,44.680946,10.024517,0.0,177.2,0,0.0,-1,0.0,0.0,0,0.77,2.9074
174463,1564152919169,0,2.26,0.87,0.35,1.43,1.07,1.0,0.22,0.64,-0,-3,2,1.02,9775,100,87,44,88,1498,0.0,651,460,60,121.0,0,1,407,604,225,0,0,0,250,250,0,-5.59,,,,,,,,,,,,
174483,1564152919189,-1,2.26,0.88,0.35,1.44,1.06,1.03,0.18,0.67,-0,-2,2,1.04,10059,100,87,44,88,1498,0.0,651,462,60,122.0,0,1,401,565,228,0,0,0,250,250,0,-5.59,,,,,,,,,,,,
174503,1564152919203,3,2.26,0.87,0.35,1.44,1.07,1.01,0.08,0.73,-0,-3,1,1.01,10042,100,88,45,86,1498,0.0,648,461,60,123.0,0,1,398,580,228,0,0,0,250,250,0,414.87,,,,,,,,,,,,
174523,1564152919223,0,2.27,0.88,0.35,1.44,1.06,1.06,0.13,0.69,-0,-4,1,1.06,9858,100,87,44,88,1498,0.0,647,466,60,120.0,0,1,404,556,228,0,0,0,250,250,0,-5.59,,,,,,,,,,,,
174543,1564152919243,-1,2.26,0.88,0.35,1.44,1.06,1.06,0.04,0.73,-0,-4,1,1.06,9936,100,87,44,88,1498,0.0,652,466,60,120.0,0,1,400,612,228,0,0,0,250,250,0,-5.59,44.680946,10.024517,0.0,177.2,0,0.0,-1,0.0,0.0,0,0.77,2.909
174563,1564152919263,-0,2.26,0.87,0.35,1.44,1.07,1.05,-0.06,0.83,-0,-4,1,1.05,10245,100,88,45,86,1498,0.0,653,464,60,123.0,0,1,413,580,228,0,0,0,250,250,0,181.28,,,,,,,,,,,,
174583,1564152919283,2,2.26,0.88,0.35,1.44,1.07,0.97,-0.02,0.81,-0,-5,1,0.97,10059,100,88,45,87,1498,0.0,647,457,60,123.0,0,1,400,598,222,0,0,0,250,250,0,414.87,,,,,,,,,,,,
174603,1564152919294,3,2.26,0.88,0.35,1.44,1.07,1.0,0.01,0.77,-0,-3,1,1.0,9873,100,87,45,88,1498,0.0,653,451,60,121.0,0,1,403,558,222,0,0,0,250,250,0,-5.59,,,,,,,,,,,,
174623,1564152919314,-0,2.27,0.88,0.36,1.44,1.07,0.95,-0.04,0.8,-0,-3,1,0.95,9884,100,87,44,88,1498,0.0,648,462,60,121.0,0,1,403,558,222,0,0,0,250,250,0,-5.59,,,,,,,,,,,,
174643,1564152919334,-1,2.27,0.88,0.36,1.44,1.07,0.93,0.04,0.65,-0,-3,1,0.93,10206,100,88,45,86,1498,0.0,654,463,60,123.0,0,1,411,580,222,0,0,0,250,250,0,181.28,44.680946,10.024517,0.0,177.2,0,0.0,-1,0.0,0.0,0,0.77,2.9107
174663,1564152919354,3,2.26,0.89,0.35,1.45,1.07,0.99,0.09,0.61,0,-2,1,0.99,10010,100,88,45,87,1498,0.0,646,457,60,123.0,0,1,396,598,222,0,0,0,250,250,0,414.87,,,,,,,,,,,,
174683,1564152919374,1,2.27,0.88,0.36,1.44,1.06,0.94,0.04,0.66,-0,-2,1,0.94,9750,100,87,44,88,1498,0.0,651,461,60,121.0,0,1,408,550,225,0,0,0,250,250,0,-5.59,,,,,,,,,,,,
174703,1564152919394,-0,2.26,0.89,0.35,1.45,1.07,1.01,0.02,0.59,-0,-4,1,1.01,9780,100,87,44,88,1498,0.0,647,463,60,121.0,0,1,407,604,225,0,0,0,250,250,0,-5.59,,,,,,,,,,,,
174723,1564152919408,-1,2.26,0.88,0.35,1.44,1.08,1.03,-0.0,0.62,-0,-2,1,1.03,10290,100,88,45,86,1498,0.0,652,463,60,123.0,0,1,416,580,225,0,0,0,250,250,0,181.28,,,,,,,,,,,,
174743,1564152919428,3,2.26,0.88,0.35,1.44,1.08,1.02,-0.08,0.69,-0,-1,1,1.03,10021,100,88,45,87,1498,0.0,645,461,60,122.0,0,1,397,598,225,0,0,0,250,250,0,414.87,44.680946,10.024517,0.0,177.2,0,0.0,-1,0.0,0.0,0,0.77,2.9124
174763,1564152919448,1,2.26,0.89,0.36,1.45,1.07,1.08,-0.01,0.67,-0,-4,1,1.08,9847,100,87,44,88,1498,0.0,649,463,60,120.0,0,1,404,556,225,0,0,0,250,250,0,-5.59,,,,,,,,,,,,
174783,1564152919468,3,2.25,0.88,0.36,1.44,1.07,1.02,-0.07,0.73,-0,-2,0,1.02,9775,100,87,44,88,1498,0.0,650,464,60,120.0,0,1,407,604,228,0,0,0,250,250,0,-5.59,,,,,,,,,,,,
174803,1564152919502,-1,2.26,0.89,0.36,1.44,1.07,0.97,-0.11,0.72,-1,-2,-0,0.98,10206,100,87,44,86,1498,0.0,656,461,60,123.0,0,1,411,580,228,0,0,0,250,250,0,181.28,,,,,,,,,,,,
174823,1564152919522,1,2.25,0.88,0.36,1.45,1.07,1.01,-0.03,0.69,-1,-3,1,1.01,10016,100,88,44,86,1498,0.0,653,458,60,123.0,0,1,397,580,228,0,0,0,250,250,0,414.87,,,,,,,,,,,,
174843,1564152919542,2,2.26,0.88,0.36,1.45,1.07,0.97,-0.09,0.72,-1,-1,-0,0.98,9827,100,87,44,88,1498,0.0,655,467,60,119.0,0,1,405,555,228,0,0,0,250,250,0,-5.59,44.680946,10.024517,0.0,177.2,0,0.0,-1,0.0,0.0,0,0.77,2.9141
174863,1564152919562,-0,2.26,0.89,0.36,1.45,1.08,0.96,-0.02,0.67,-1,-2,-1,0.96,9904,100,87,44,88,1498,0.0,642,465,60,120.0,0,1,402,611,228,0,0,0,250,250,0,-5.59,,,,,,,,,,,,
174883,1564152919582,-1,2.26,0.89,0.35,1.45,1.07,0.99,0.03,0.62,-1,-2,0,0.99,10135,100,87,44,86,1498,0.0,655,459,60,123.0,0,1,405,580,224,0,0,0,250,250,0,181.28,,,,,,,,,,,,
174903,1564152919598,1,2.26,0.89,0.35,1.44,1.08,0.97,-0.04,0.73,-1,-1,-1,0.97,9946,100,87,44,87,1498,0.0,643,461,60,122.0,0,1,399,596,224,0,0,0,250,250,0,414.87,,,,,,,,,,,,
174923,1564152919618,1,2.26,0.89,0.36,1.44,1.08,1.01,0.0,0.71,-1,-2,-0,1.01,9689,100,87,44,89,1498,0.0,643,466,60,120.0,0,1,411,561,224,0,0,0,250,250,0,-5.59,,,,,,,,,,,,
174943,1564152919638,-1,2.25,0.89,0.36,1.45,1.07,0.94,-0.06,0.78,-1,-1,-1,0.94,9952,100,87,44,88,1498,0.0,650,464,60,120.0,0,1,400,612,224,0,0,0,250,250,0,-5.59,44.680946,10.024517,0.0,177.2,0,0.0,-1,0.0,0.0,0,0.77,2.9157
174963,1564152919658,-1,2.25,0.88,0.35,1.45,1.07,0.93,-0.18,0.79,-1,0,-2,0.95,10229,100,87,44,86,1498,0.0,647,464,60,123.0,0,1,412,580,224,0,0,0,250,250,0,181.28,,,,,,,,,,,,
174983,1564152919678,1,2.26,0.89,0.36,1.45,1.08,0.94,-0.12,0.75,-1,-0,-1,0.95,9962,100,87,44,87,1498,0.0,642,460,60,122.0,0,1,398,596,227,0,0,0,250,250,0,414.87,,,,,,,,,,,,
175003,1564152919698,2,2.27,0.89,0.36,1.45,1.07,0.93,-0.18,0.71,-1,-1,-1,0.95,9780,100,87,44,89,1498,0.0,656,463,60,122.0,0,1,407,568,227,0,0,0,250,250,0,-5.59,,,,,,,,,,,,
175023,1564152919710,-0,2.26,0.89,0.36,1.44,1.08,0.88,-0.26,0.73,-1,0,-2,0.92,10064,100,87,44,88,1498,0.0,646,471,60,120.0,0,1,401,616,227,0,0,0,250,250,0,-5.59,,,,,,,,,,,,
175043,1564152919730,-1,2.26,0.89,0.36,1.44,1.07,0.87,-0.16,0.69,-1,-1,-2,0.88,10118,100,87,44,86,1498,0.0,650,462,60,123.0,0,1,404,580,227,0,0,0,250,250,0,181.28,44.680946,10.024517,0.0,177.2,0,0.0,-1,0.0,0.0,0,0.77,2.9174
175063,1564152919750,2,2.26,0.89,0.36,1.45,1.07,0.89,-0.16,0.63,-1,-1,-1,0.91,9925,100,87,44,87,1498,0.0,653,456,60,121.0,0,1,400,594,227,0,0,0,250,250,0,-5.59,,,,,,,,,,,,
175083,1564152919770,1,2.26,0.89,0.36,1.44,1.07,0.84,-0.16,0.65,-1,2,-2,0.86,9780,100,87,44,88,1498,0.0,648,470,60,120.0,0,1,407,552,225,0,0,0,250,250,0,-5.59,,,,,,,,,,,,
175103,1564152919790,-1,2.26,0.89,0.36,1.45,1.08,0.84,-0.04,0.5,-1,1,-1,0.84,10168,100,87,44,87,1498,0.0,642,473,60,123.0,0,1,413,546,225,0,0,0,250,250,0,-5.59,,,,,,,,,,,,
175123,1564152919802,1,2.26,0.9,0.36,1.45,1.08,0.9,-0.05,0.51,-1,1,-1,0.91,10107,100,87,44,86,1498,0.0,654,458,60,124.0,0,1,403,580,225,0,0,0,250,250,0,414.87,,,,,,,,,,,,
175143,1564152919822,2,2.26,0.89,0.36,1.45,1.08,0.85,-0.12,0.61,-0,2,-2,0.86,9920,100,87,44,88,1498,0.0,649,458,60,120.0,0,1,401,560,225,0,0,0,250,250,0,-5.59,44.680946,10.024517,0.0,177.2,0,0.0,-1,0.0,0.0,0,0.77,2.919
175163,1564152919842,-1,2.26,0.9,0.36,1.45,1.08,0.88,-0.07,0.53,-0,1,-0,0.89,9775,100,87,44,89,1498,0.0,650,462,60,121.0,0,1,407,618,225,0,0,0,250,250,0,-5.59,,,,,,,,,,,,
175183,1564152919862,-1,2.26,0.89,0.36,1.46,1.08,0.88,-0.11,0.66,-1,1,-1,0.89,10234,100,87,44,86,1498,0.0,655,456,60,124.0,0,1,412,580,229,0,0,0,250,250,0,181.28,,,,,,,,,,,,
175203,1564152919902,3,2.26,0.9,0.36,1.45,1.08,0.86,-0.2,0.69,-1,2,-2,0.88,10048,100,87,44,86,1498,0.0,648,464,60,122.0,0,1,399,580,229,0,0,0,250,250,0,414.87,,,,,,,,,,,,
175223,1564152919922,-0,2.26,0.89,0.36,1.45,1.08,0.92,-0.13,0.64,-1,1,-1,0.93,9786,100,87,44,88,1498,0.0,655,466,60,120.0,0,1,407,552,229,0,0,0,250,250,0,-5.59,,,,,,,,,,,,
175243,1564152919942,-0,2.26,0.9,0.36,1.45,1.08,0.85,-0.15,0.7,-0,2,-1,0.86,9832,100,87,44,88,1498,0.0,653,465,60,120.0,0,1,405,607,229,0,0,0,250,250,0,-5.59,44.680946,10.024517,0.0,177.2,0,0.0,-1,0.0,0.0,0,0.77,2.9207
175263,1564152919962,-1,2.27,0.89,0.36,1.45,1.08,0.79,-0.16,0.69,-1,2,-2,0.81,10173,100,87,44,86,1498,0.0,657,470,60,123.0,0,1,408,580,229,0,0,0,250,250,0,181.28,,,,,,,,,,,,
175283,1564152919982,-0,2.26,0.9,0.35,1.46,1.08,0.81,-0.06,0.62,-0,0,-1,0.81,9973,100,87,44,87,1498,0.0,649,463,60,120.0,0,1,401,596,219,0,0,0,250,250,0,414.87,,,,,,,,,,,,
175303,1564152920002,3,2.26,0.89,0.36,1.46,1.08,0.71,-0.1,0.65,-0,2,-1,0.72,9745,100,87,44,88,1498,0.0,654,466,60,120.0,0,1,409,603,219,0,0,0,250,250,0,-5.59,,,,,,,,,,,,
175323,1564152920010,-0,2.26,0.9,0.36,1.46,1.08,0.69,-0.06,0.53,-0,4,-2,0.69,10102,100,87,44,87,1498,0.0,641,472,60,123.0,0,1,412,546,219,0,0,0,250,250,0,-5.59,,,,,,,,,,,,
175343,1564152920030,1,2.26,0.89,0.35,1.45,1.08,0.72,0.04,0.44,-0,2,-1,0.72,10096,100,87,44,86,1498,0.0,649,456,60,123.0,0,1,402,580,219,0,0,0,250,250,0,414.87,44.680946,10.024517,0.0,177.2,0,0.0,-1,0.0,0.0,0,0.77,2.9224
175363,1564152920050,3,2.26,0.9,0.36,1.46,1.08,0.66,-0.03,0.5,-0,4,-1,0.66,9842,100,87,44,88,1498,0.0,653,460,60,122.0,0,1,404,556,219,0,0,0,250,250,0,-5.59,,,,,,,,,,,,
175383,1564152920070,-0,2.27,0.9,0.36,1.45,1.08,0.72,0.04,0.46,0,3,-2,0.72,9780,100,87,44,88,1498,0.0,646,466,60,121.0,0,1,405,607,225,0,0,0,250,250,0,-5.59,,,,,,,,,,,,
175403,1564152920108,-1,2.27,0.89,0.36,1.45,1.08,0.72,0.12,0.45,0,1,-0,0.73,10245,100,87,44,86,1498,0.0,650,466,60,123.0,0,1,413,580,225,0,0,0,250,250,0,181.28,,,,,,,,,,,,
175423,1564152920128,3,2.26,0.9,0.36,1.45,1.08,0.7,0.01,0.53,0,2,-0,0.7,9984,100,87,44,87,1498,0.0,653,460,60,123.0,0,1,397,579,225,0,0,0,250,250,0,414.87,,,,,,,,,,,,
175443,1564152920148,1,2.27,0.89,0.36,1.46,1.08,0.72,0.05,0.51,0,2,-1,0.72,9801,100,87,44,88,1498,0.0,653,467,60,120.0,0,1,406,553,225,0,0,0,250,250,0,-5.59,44.680946,10.024517,0.0,177.2,0,0.0,-1,0.0,0.0,0,0.77,2.924
175463,1564152920168,-2,2.26,0.89,0.36,1.45,1.08,0.68,0.03,0.48,0,3,-0,0.68,9957,100,87,44,88,1498,0.0,651,460,60,120.0,0,1,399,562,225,0,0,0,250,250,0,-5.59,,,,,,,,,,,,
175483,1564152920188,-2,2.26,0.89,0.35,1.45,1.07,0.68,-0.1,0.56,0,5,-1,0.69,10173,100,87,44,86,1498,0.0,656,460,60,123.0,0,1,408,580,225,0,0,0,250,250,0,414.87,,,,,,,,,,,,
175503,1564152920200,1,2.26,0.89,0.35,1.45,1.08,0.66,-0.04,0.55,0,6,-2,0.66,9984,100,87,44,87,1498,0.0,645,461,60,123.0,0,1,397,596,225,0,0,0,250,250,0,414.87,,,,,,,,,,,,
175523,1564152920220,2,2.26,0.89,0.36,1.46,1.07,0.67,-0.06,0.55,0,3,-1,0.68,9796,100,87,44,88,1498,0.0,648,459,60,120.0,0,1,406,605,225,0,0,0,250,250,0,-5.59,,,,,,,,,,,,
175543,1564152920240,0,2.25,0.89,0.35,1.46,1.07,0.6,-0.09,0.63,0,4,-1,0.6,10080,100,87,44,87,1498,0.0,647,465,60,123.0,0,1,402,546,225,0,0,0,250,250,0,-5.59,44.680946,10.024517,0.0,177.2,0,0.0,-1,0.0,0.0,0,0.77,2.9257
175563,1564152920260,1,2.26,0.89,0.35,1.45,1.08,0.6,-0.02,0.53,0,4,-2,0.6,10091,100,87,44,86,1498,0.0,642,466,60,123.0,0,1,402,580,225,0,0,0,250,250,0,414.87,,,,,,,,,,,,
175583,1564152920280,2,2.26,0.89,0.35,1.45,1.08,0.59,-0.03,0.53,0,3,-1,0.59,9899,100,87,44,88,1498,0.0,648,452,60,120.0,0,1,402,611,223,0,0,0,250,250,0,-5.59,,,,,,,,,,,,
175603,1564152920295,-0,2.26,0.89,0.36,1.44,1.08,0.49,0.02,0.54,1,6,-2,0.49,9894,100,87,44,88,1498,0.0,653,463,60,121.0,0,1,402,610,223,0,0,0,250,250,0,-5.59,,,,,,,,,,,,
175623,1564152920315,-0,2.25,0.89,0.35,1.45,1.07,0.55,0.09,0.39,1,5,-2,0.56,10234,100,87,44,85,1498,0.0,650,467,60,123.0,0,1,411,580,223,0,0,0,250,250,0,181.28,,,,,,,,,,,,
175643,1564152920335,4,2.26,0.89,0.35,1.46,1.07,0.58,0.11,0.37,0,3,-0,0.59,10032,100,87,44,87,1498,0.0,647,461,60,123.0,0,1,398,598,223,0,0,0,250,250,0,414.87,44.680946,10.024517,0.0,177.2,0,0.0,-1,0.0,0.0,0,0.77,2.9274
175663,1564152920355,2,2.25,0.89,0.35,1.45,1.07,0.47,0.1,0.43,1,4,-1,0.48,9775,100,87,44,88,1498,0.0,657,459,60,121.0,0,1,407,552,223,0,0,0,250,250,0,-5.59,,,,,,,,,,,,
175683,1564152920375,-1,2.26,0.89,0.35,1.45,1.07,0.54,0.22,0.3,1,3,-0,0.58,9968,100,87,44,88,1498,0.0,650,463,60,121.0,0,1,399,614,229,0,0,0,250,250,0,-5.59,,,,,,,,,,,,
175703,1564152920395,-2,2.26,0.89,0.35,1.45,1.08,0.56,0.22,0.36,1,2,1,0.6,10168,100,87,44,86,1498,0.0,653,453,60,122.0,0,1,408,580,229,0,0,0,250,250,0,414.87,,,,,,,,,,,,
175723,1564152920407,3,2.26,0.89,0.35,1.46,1.07,0.5,0.12,0.43,1,4,-1,0.51,9910,100,87,44,87,1498,0.0,647,460,60,120.0,0,1,401,594,229,0,0,0,250,250,0,-5.59,,,,,,,,,,,,
175743,1564152920427,0,2.25,0.88,0.35,1.45,1.07,0.62,0.19,0.31,0,4,-0,0.65,9735,100,87,44,88,1498,0.0,642,468,60,120.0,0,1,406,554,229,0,0,0,250,250,0,-5.59,44.680946,10.024517,0.0,177.2,0,0.0,-1,0.0,0.0,0,0.77,2.929
175763,1564152920447,-2,2.26,0.89,0.35,1.45,1.08,0.59,0.14,0.42,0,2,-0,0.61,10184,100,87,44,86,1498,0.0,648,469,60,123.0,0,1,409,580,229,0,0,0,250,250,0,-5.59,,,,,,,,,,,,
175783,1564152920467,2,2.26,0.89,0.35,1.45,1.07,0.54,0.1,0.45,0,3,-1,0.55,9957,100,87,44,86,1498,0.0,645,463,60,123.0,0,1,398,578,220,0,0,0,250,250,0,414.87,,,,,,,,,,,,
175803,1564152920505,2,2.27,0.89,0.35,1.45,1.07,0.64,0.17,0.37,0,2,0,0.66,9755,100,87,44,88,1498,0.0,652,460,60,121.0,0,1,408,602,220,0,0,0,250,250,0,-5.59,,,,,,,,,,,,
175823,1564152920525,-2,2.26,0.88,0.35,1.45,1.07,0.58,0.11,0.52,0,1,-0,0.59,10096,100,87,44,87,1498,0.0,650,462,60,120.0,0,1,403,546,220,0,0,0,250,250,0,-5.59,,,,,,,,,,,,
175843,1564152920545,-1,2.26,0.89,0.35,1.45,1.07,0.52,0.07,0.49,0,3,-1,0.52,10168,100,87,44,86,1498,0.0,649,461,60,123.0,0,1,408,580,220,0,0,0,250,250,0,414.87,44.680946,10.024517,0.0,177.2,0,0.0,-1,0.0,0.0,0,0.77,2.9307
175863,1564152920565,1,2.26,0.89,0.35,1.45,1.07,0.58,0.19,0.37,1,2,-1,0.61,9973,100,87,44,87,1498,0.0,649,465,60,123.0,0,1,398,596,220,0,0,0,250,250,0,648.46,,,,,,,,,,,,
175883,1564152920585,3,2.26,0.88,0.35,1.45,1.08,0.56,0.12,0.42,0,2,-0,0.57,9780,100,87,44,88,1498,0.0,655,462,60,120.0,0,1,407,604,227,0,0,0,250,250,0,-5.59,,,,,,,,,,,,
175903,1564152920597,-2,2.26,0.89,0.35,1.45,1.08,0.52,0.14,0.37,1,3,-1,0.54,10064,100,87,44,87,1498,0.0,645,467,60,121.0,0,1,404,546,227,0,0,0,250,250,0,-5.59,,,,,,,,,,,,
175923,1564152920617,-1,2.26,0.89,0.35,1.44,1.08,0.59,0.29,0.33,1,2,-0,0.66,10091,100,88,44,86,1498,0.0,653,461,60,123.0,0,1,402,580,227,0,0,0,250,250,0,414.87,,,,,,,,,,,,
175943,1564152920637,2,2.26,0.89,0.35,1.45,1.07,0.56,0.22,0.37,1,0,0,0.6,9904,100,87,44,87,1498,0.0,651,453,60,119.0,0,1,401,541,227,0,0,0,250,250,0,-5.59,44.680946,10.024517,0.0,177.2,0,0.0,-1,0.0,0.0,0,0.77,2.9324
175963,1564152920657,-0,2.26,0.89,0.35,1.45,1.08,0.56,0.26,0.38,1,2,0,0.62,9760,100,87,44,88,1498,0.0,644,467,60,122.0,0,1,408,603,227,0,0,0,250,250,0,-5.59,,,,,,,,,,,,
175983,1564152920677,-1,2.25,0.88,0.35,1.45,1.07,0.67,0.31,0.34,1,1,1,0.74,10195,100,88,44,86,1498,0.0,646,460,60,123.0,0,1,410,580,228,0,0,0,250,250,0,181.28,,,,,,,,,,,,
176003,1564152920693,3,2.26,0.88,0.35,1.44,1.08,0.63,0.22,0.44,1,-0,1,0.66,10000,100,88,44,87,1498,0.0,645,455,60,123.0,0,1,396,580,228,0,0,0,250,250,0,414.87,,,,,,,,,,,,
176023,1564152920713,-0,2.26,0.89,0.36,1.45,1.07,0.67,0.27,0.45,1,1,1,0.72,9811,100,87,44,88,1498,0.0,649,465,60,121.0,0,1,409,606,228,0,0,0,250,250,0,-5.59,,,,,,,,,,,,
176043,1564152920733,-1,2.26,0.89,0.35,1.44,1.08,0.74,0.22,0.5,1,0,1,0.77,9801,100,87,44,88,1498,0.0,655,463,60,122.0,0,1,406,553,228,0,0,0,250,250,0,-5.59,44.680946,10.024517,0.0,177.2,0,0.0,-1,0.0,0.0,0,0.77,2.9341
176063,1564152920753,-2,2.26,0.89,0.35,1.46,1.07,0.67,0.1,0.56,1,-1,0,0.68,10319,100,88,44,85,1498,0.0,658,461,60,123.0,0,1,417,562,228,0,0,0,250,250,0,181.28,,,,,,,,,,,,
176083,1564152920773,-1,2.26,0.89,0.35,1.46,1.07,0.62,0.17,0.53,1,0,0,0.64,10124,100,88,44,87,1498,0.0,647,463,60,123.0,0,1,400,580,222,0,0,0,250,250,0,414.87,,,,,,,,,,,,
176103,1564152920793,3,2.26,0.89,0.35,1.45,1.08,0.71,0.22,0.48,1,-1,1,0.74,9858,100,87,44,88,1498,0.0,650,450,60,120.0,0,1,404,556,222,0,0,0,250,250,0,-5.59,,,,,,,,,,,,
176123,1564152920805,-0,2.26,0.89,0.35,1.46,1.07,0.64,0.2,0.49,1,-1,0,0.67,9842,100,87,44,88,1498,0.0,643,465,60,121.0,0,1,404,608,222,0,0,0,250,250,0,-5.59,,,,,,,,,,,,
176143,1564152920825,-1,2.26,0.89,0.35,1.45,1.07,0.64,0.34,0.38,1,1,1,0.72,10195,100,88,44,86,1498,0.0,649,465,60,123.0,0,1,410,580,222,0,0,0,250,250,0,181.28,44.680946,10.024517,0.0,177.2,0,0.0,-1,0.0,0.0,0,0.77,2.9357
