"Interval"|"ms"|0|0|1,"Utc"|"ms"|0|0|1,"FB_p"|"bar"|0|300|50,"Volant"|"F"|0.0|300.0|50,"xFR"|"mm"|0.0|5.0|50,"xRR"|"mm"|0.0|5.0|50,"xFL"|"mm"|0.0|5.0|50,"xRL"|"mm"|0.0|5.0|50,"AccelX"|"G"|-3.0|3.0|50,"AccelY"|"G"|-3.0|3.0|50,"AccelZ"|"G"|-3.0|3.0|50,"Yaw"|"Deg/Sec"|-120|120|50,"Pitch"|"Deg/Sec"|-120|120|50,"Roll"|"Deg/Sec"|-120|120|50,"Gsum"|"G"|0.0|3.0|50,"RPM"|""|0|14000|50,"TPS"|"%"|0|100|50,"WaterTemp"|"?C"|0|300|50,"AirTemp"|"?C"|-1000|1000|50,"MAP"|"KPa"|0|255|50,"Lambda"|""|0|1024|50,"WheelSpeed"|"MPH"|0.0|150.0|50,"OilPress"|"PSI"|0|150|50,"FuelPress"|"PSI"|0|150|50,"OilTemp"|"F"|0|300|50,"Battery"|"Volts"|0.0|20.0|50,"FuelCon"|"L/h"|-1000|1000|50,"Gear"|""|0|10|50,"Advance"|"Deg"|-360|360|50,"Injection"|"ms"|-1000|1000|50,"FuelCon"|"L/100km"|-1000|1000|50,"LC_But_Pres"|""|-1000|1000|50,"LC_Active"|""|-1000|1000|50,"RD_Speed"|""|-1000|1000|50,"RUD_Speed"|""|-1000|1000|50,"LD_Speed"|""|-1000|1000|50,"LUD_Speed"|""|-1000|1000|50,"Ana1"|"bar"|-1000.0|1000.0|50,"Latitude"|"Degrees"|-180.0|180.0|10,"Longitude"|"Degrees"|-180.0|180.0|10,"Speed"|"kph"|0.0|150.0|10,"Altitude"|"m"|0.0|4000.0|10,"LapCount"|""|0|0|10,"LapTime"|"Min"|0.0|0.0|10,"Sector"|""|0|0|10,"SectorTime"|"Min"|0.0|0.0|10,"ElapsedTime"|"Min"|0.0|0.0|10,"CurrentLap"|""|0|0|10,"Distance"|"km"|0.0|0.0|10,"SessionTime"|"Min"|0.0|0.0|10
282463,1564151629883,-1,2.5,0.93,0.32,1.4,1.07,0.75,-0.9,0.82,19,0,22,1.17,7822,25,92,42,47,842,570.0,578,462,60,122.0,112,1,370,219,64,0,0,571,-8962,15649,570,-5.59,,,,,,,,,,,,
282483,1564151629903,-1,2.5,0.94,0.32,1.4,1.08,0.83,-0.92,0.8,19,-1,24,1.24,7832,25,92,42,47,841,572.0,573,465,60,122.0,112,1,370,145,64,0,0,576,-22519,-16384,572,-5.59,,,,,,,,,,,,
282503,1564151629923,1,2.5,0.93,0.31,1.4,1.07,0.86,-0.9,0.76,19,-2,24,1.24,7805,25,92,42,47,839,573.0,573,466,60,123.0,112,1,370,219,64,0,0,571,2524,-25872,571,-5.59,,,,,,,,,,,,
282523,1564151629943,1,2.5,0.93,0.32,1.4,1.08,0.8,-0.87,0.69,19,-2,23,1.18,7864,25,92,42,47,839,574.0,570,465,60,122.0,112,1,370,145,64,0,0,569,2524,-12040,574,-5.59,,,,,,,,,,,,
282543,1564151629963,3,2.49,0.94,0.32,1.4,1.07,0.8,-0.88,0.63,19,-2,25,1.19,7911,25,92,42,47,843,571.0,567,465,60,123.0,112,1,370,219,64,0,0,569,-506,-28648,573,-5.59,44.681362,10.025015,56.08,173.5,0,0.0,-1,0.0,0.0,0,1.82,4.7091
282563,1564151629983,-0,2.51,0.94,0.32,1.4,1.07,0.9,-0.83,0.67,18,-0,27,1.23,7898,25,92,42,47,848,571.0,576,466,60,123.0,113,1,370,219,65,0,0,571,-8962,-12040,571,-5.59,,,,,,,,,,,,
282583,1564151629991,1,2.5,0.94,0.32,1.41,1.07,0.89,-0.84,0.7,18,0,25,1.22,7921,25,92,42,47,852,574.0,572,466,60,123.0,113,1,370,219,65,0,0,575,-22519,-32504,574,-5.59,,,,,,,,,,,,
282603,1564151630011,2,2.5,0.94,0.32,1.4,1.07,0.81,-0.84,0.6,19,0,25,1.17,7881,25,92,42,47,858,573.0,562,465,60,122.0,113,1,370,219,65,0,0,572,14504,-13043,573,-5.59,,,,,,,,,,,,
282623,1564151630031,3,2.49,0.94,0.32,1.4,1.08,0.82,-0.84,0.59,19,2,25,1.17,7864,25,92,42,47,868,573.0,572,463,60,122.0,113,1,370,219,65,0,0,575,14504,8488,573,-5.59,,,,,,,,,,,,
282643,1564151630051,0,2.51,0.93,0.32,1.4,1.08,0.91,-0.87,0.68,19,2,23,1.26,7911,25,92,42,46,875,574.0,569,463,60,122.0,113,1,362,219,65,0,0,574,-22519,-25872,574,-5.59,44.681351,10.025028,56.39,173.5,0,0.0,-1,0.0,0.0,0,1.82,4.7107
282663,1564151630071,1,2.51,0.93,0.31,1.4,1.08,0.92,-0.85,0.61,19,2,24,1.25,7884,25,92,42,47,879,573.0,561,464,60,123.0,113,1,370,217,65,0,0,568,-22519,-4035,573,-5.59,,,,,,,,,,,,
282683,1564151630102,2,2.51,0.93,0.32,1.4,1.07,0.89,-0.82,0.65,19,3,25,1.21,7898,25,92,42,47,882,573.0,570,466,60,122.0,113,1,370,219,65,0,0,572,14504,2048,573,-5.59,,,,,,,,,,,,
282703,1564151630122,-1,2.51,0.94,0.32,1.41,1.07,0.91,-0.8,0.75,19,2,24,1.21,7918,25,92,42,47,885,574.0,571,464,60,122.0,113,1,370,219,65,0,0,577,2104,6273,574,-5.59,,,,,,,,,,,,
282723,1564151630142,0,2.5,0.93,0.31,1.4,1.07,0.93,-0.87,0.73,19,3,24,1.27,7881,25,92,42,47,887,575.0,577,463,60,123.0,113,1,370,219,65,0,0,585,-22519,208,575,-5.59,,,,,,,,,,,,
282743,1564151630162,2,2.5,0.94,0.32,1.4,1.08,0.88,-0.86,0.64,19,3,24,1.23,7931,25,92,42,46,887,574.0,573,462,60,123.0,113,1,362,217,65,0,0,580,2104,2048,578,-5.59,44.681343,10.025042,56.17,173.5,0,0.0,-1,0.0,0.0,0,1.82,4.7124
282763,1564151630182,2,2.51,0.94,0.31,1.41,1.07,0.82,-0.86,0.65,19,3,24,1.19,7951,25,92,42,47,886,575.0,572,468,60,122.0,113,1,370,219,65,0,0,573,-8962,2048,575,-5.59,,,,,,,,,,,,
282783,1564151630202,-1,2.52,0.93,0.32,1.4,1.08,0.82,-0.92,0.73,18,2,24,1.23,7901,25,92,42,47,889,573.0,582,466,60,121.0,113,1,370,219,65,0,0,580,2524,-1894,574,-5.59,,,,,,,,,,,,
282803,1564151630222,2,2.52,0.93,0.32,1.4,1.07,0.85,-0.91,0.64,19,1,24,1.25,7924,25,92,42,46,892,577.0,579,463,60,123.0,113,1,362,217,65,0,0,583,2104,-32504,577,-5.59,,,,,,,,,,,,
282823,1564151630242,1,2.51,0.93,0.32,1.4,1.07,0.79,-0.91,0.66,19,0,24,1.2,7934,25,92,42,47,897,580.0,569,467,60,122.0,113,1,370,217,65,0,0,580,2104,-28648,579,-5.59,,,,,,,,,,,,
282843,1564151630262,-1,2.51,0.93,0.31,1.4,1.08,0.74,-0.92,0.74,19,2,25,1.18,7938,25,92,42,47,902,577.0,576,465,60,123.0,113,1,370,219,65,0,0,574,-32248,6273,577,-5.59,44.681328,10.025054,56.37,173.5,0,0.0,-1,0.0,0.0,0,1.82,4.714
282863,1564151630282,0,2.5,0.93,0.32,1.4,1.07,0.8,-0.92,0.72,19,1,24,1.22,7971,25,92,42,46,909,579.0,574,465,60,123.0,112,1,362,219,65,0,0,578,2524,-28648,579,-5.59,,,,,,,,,,,,
282883,1564151630303,1,2.51,0.94,0.31,1.4,1.07,0.77,-0.93,0.6,18,0,25,1.21,7951,25,92,42,46,920,576.0,569,466,60,122.0,112,1,362,217,65,0,0,586,-22519,-12040,576,-5.59,,,,,,,,,,,,
282903,1564151630323,3,2.5,0.94,0.32,1.4,1.07,0.73,-0.93,0.62,18,1,24,1.18,7951,25,92,42,46,924,575.0,572,465,60,122.0,112,1,362,217,65,0,0,571,14504,3472,575,-5.59,,,,,,,,,,,,
282923,1564151630343,-0,2.51,0.93,0.32,1.4,1.08,0.77,-0.94,0.63,19,-0,25,1.22,7944,25,92,42,46,930,578.0,569,462,60,124.0,112,1,362,217,65,0,0,574,6274,-28648,576,-5.59,,,,,,,,,,,,
282943,1564151630363,-0,2.51,0.93,0.32,1.4,1.07,0.79,-0.91,0.61,18,-1,25,1.2,7884,25,92,42,46,938,578.0,568,467,60,123.0,112,1,362,217,65,0,0,581,14504,-28648,578,-5.59,44.68132,10.025064,56.38,173.5,0,0.0,-1,0.0,0.0,0,1.83,4.7157
282963,1564151630383,1,2.51,0.93,0.32,1.4,1.07,0.75,-0.91,0.54,18,-1,24,1.18,7894,25,92,42,46,944,577.0,576,464,60,122.0,112,1,362,217,65,0,0,575,-32248,2048,577,-5.59,,,,,,,,,,,,
282983,1564151630402,0,2.5,0.94,0.32,1.4,1.07,0.78,-0.93,0.54,18,-1,25,1.22,7901,25,92,42,46,949,577.0,575,466,60,123.0,112,1,362,219,65,0,0,583,14504,-32504,577,-5.59,,,,,,,,,,,,
283003,1564151630422,0,2.51,0.93,0.32,1.39,1.07,0.91,-0.9,0.56,17,-1,26,1.28,7918,25,92,42,46,951,579.0,583,462,60,123.0,112,1,362,217,65,0,0,577,6274,-28648,579,-5.59,,,,,,,,,,,,
283023,1564151630442,0,2.49,0.93,0.32,1.4,1.07,0.84,-0.85,0.5,17,-2,25,1.2,7988,25,92,42,46,954,578.0,577,464,60,123.0,112,1,362,217,65,0,0,573,2104,-28648,578,-5.59,,,,,,,,,,,,
283043,1564151630462,3,2.5,0.93,0.32,1.4,1.07,0.81,-0.86,0.48,18,0,26,1.18,7999,25,92,42,46,958,578.0,583,465,60,122.0,112,1,362,217,65,0,0,578,-28648,208,580,-5.59,44.681305,10.025075,56.42,173.5,0,0.0,-1,0.0,0.0,0,1.83,4.7174
283063,1564151630482,-1,2.51,0.93,0.32,1.39,1.08,0.89,-0.8,0.51,18,1,27,1.2,7931,25,92,42,46,958,578.0,585,465,60,122.0,112,1,362,217,65,0,0,579,-28648,4956,579,-5.59,,,,,,,,,,,,
283083,1564151630502,1,2.51,0.94,0.32,1.4,1.08,0.87,-0.78,0.46,18,1,27,1.17,7965,25,92,42,46,958,579.0,585,465,60,122.0,112,1,362,217,65,0,0,577,14504,6273,579,-5.59,,,,,,,,,,,,
283103,1564151630522,3,2.5,0.94,0.32,1.4,1.07,0.86,-0.8,0.39,18,1,27,1.18,7924,25,92,42,47,958,578.0,568,468,60,123.0,112,1,370,217,65,0,0,576,2104,-13043,580,-5.59,,,,,,,,,,,,
283123,1564151630542,-1,2.51,0.92,0.32,1.4,1.08,0.87,-0.75,0.5,19,2,27,1.15,7911,25,92,43,46,957,578.0,580,465,60,124.0,112,1,362,219,65,0,0,574,6274,30227,578,-5.59,,,,,,,,,,,,
283143,1564151630562,1,2.51,0.93,0.32,1.4,1.08,0.88,-0.77,0.53,19,3,28,1.17,7944,25,92,42,46,956,578.0,567,465,60,123.0,112,1,362,217,65,0,0,578,6274,-16179,579,-5.59,44.681294,10.025084,56.5,173.5,0,0.0,-1,0.0,0.0,0,1.83,4.719
283163,1564151630582,2,2.51,0.93,0.32,1.4,1.08,0.87,-0.77,0.46,19,3,28,1.16,7965,25,92,42,47,955,577.0,568,466,60,122.0,112,1,370,217,65,0,0,577,-32248,208,577,-5.59,,,,,,,,,,,,
283183,1564151630602,-1,2.51,0.93,0.31,1.4,1.08,0.89,-0.77,0.58,19,3,27,1.17,7938,25,92,42,46,959,579.0,576,465,60,122.0,112,1,362,219,65,0,0,571,-32248,3472,579,-5.59,,,,,,,,,,,,
283203,1564151630622,0,2.5,0.93,0.32,1.4,1.08,0.91,-0.78,0.56,20,3,26,1.2,7968,25,92,42,46,965,576.0,574,463,60,123.0,112,1,362,217,65,0,0,577,2104,-13043,576,-5.59,,,,,,,,,,,,
283223,1564151630642,2,2.5,0.93,0.32,1.39,1.08,0.93,-0.81,0.45,20,3,27,1.23,7934,25,92,42,46,969,578.0,573,467,60,123.0,112,1,362,219,65,0,0,576,-28648,-28648,579,-5.59,,,,,,,,,,,,
283243,1564151630662,2,2.51,0.93,0.32,1.4,1.08,0.9,-0.81,0.48,20,2,27,1.21,7948,25,92,43,47,975,578.0,579,466,60,122.0,112,1,370,219,65,0,0,584,-32248,-12040,578,-5.59,44.681282,10.025093,56.58,173.6,0,0.0,-1,0.0,0.0,0,1.83,4.7207
283263,1564151630682,-1,2.51,0.93,0.32,1.4,1.08,0.96,-0.8,0.55,20,3,26,1.25,7999,25,92,43,46,984,580.0,584,464,60,123.0,111,1,362,217,65,0,0,574,6274,-16179,578,-5.59,,,,,,,,,,,,
283283,1564151630702,0,2.51,0.93,0.32,1.4,1.07,0.94,-0.8,0.42,20,3,26,1.24,7968,25,92,42,46,991,579.0,580,469,60,123.0,111,1,362,217,65,0,0,578,-28648,-1894,579,-5.59,,,,,,,,,,,,
283303,1564151630722,2,2.51,0.93,0.32,1.4,1.07,0.92,-0.8,0.4,20,3,27,1.22,7968,25,92,43,46,995,580.0,580,465,60,123.0,111,1,362,217,65,0,0,583,-28648,243,580,-5.59,,,,,,,,,,,,
283323,1564151630742,0,2.5,0.94,0.32,1.4,1.07,0.94,-0.79,0.49,20,4,26,1.22,8005,25,92,43,46,996,580.0,582,466,60,121.0,111,1,362,217,65,0,0,576,-9072,-16179,580,-5.59,,,,,,,,,,,,
283343,1564151630762,2,2.51,0.93,0.32,1.4,1.08,0.93,-0.77,0.42,20,3,26,1.21,7951,25,92,43,46,998,581.0,569,466,60,122.0,111,1,362,217,65,0,0,580,2524,17344,581,-5.59,44.681267,10.0251,56.44,173.6,0,0.0,-1,0.0,0.0,0,1.83,4.7224
283363,1564151630782,3,2.51,0.93,0.32,1.4,1.08,0.9,-0.77,0.44,20,3,26,1.19,7961,25,92,43,46,1000,577.0,580,462,60,122.0,112,1,362,143,65,0,0,578,-9072,-13043,580,-5.59,,,,,,,,,,,,
283383,1564151630802,-1,2.51,0.93,0.32,1.4,1.08,0.94,-0.75,0.48,21,3,26,1.21,7971,25,92,43,46,1002,580.0,572,466,60,123.0,112,1,362,217,65,0,0,580,-22263,2048,580,-5.59,,,,,,,,,,,,
283403,1564151630822,1,2.51,0.93,0.32,1.4,1.07,0.95,-0.76,0.44,20,4,25,1.21,7934,25,92,43,46,1003,581.0,569,466,60,123.0,112,1,362,217,65,0,0,582,-9072,-28648,578,-5.59,,,,,,,,,,,,
283423,1564151630842,3,2.5,0.93,0.32,1.4,1.07,0.89,-0.79,0.4,20,3,26,1.19,7924,25,92,43,46,1002,581.0,573,464,60,123.0,112,1,362,215,65,0,0,577,-28648,17344,581,-5.59,,,,,,,,,,,,
283443,1564151630862,-1,2.51,0.93,0.32,1.4,1.08,0.9,-0.77,0.46,20,3,26,1.18,7961,25,92,43,46,1000,578.0,572,467,60,122.0,112,1,362,217,65,0,0,577,-9072,2048,581,-5.59,44.681255,10.025105,56.64,173.6,0,0.0,-1,0.0,0.0,0,1.83,4.7241
283463,1564151630882,1,2.5,0.94,0.32,1.4,1.08,0.94,-0.78,0.56,20,2,25,1.22,7944,25,92,43,46,997,579.0,579,463,60,124.0,112,1,362,217,65,0,0,573,2524,17344,579,-5.59,,,,,,,,,,,,
283483,1564151630902,2,2.5,0.94,0.32,1.39,1.08,0.87,-0.76,0.49,21,1,25,1.16,7995,25,92,43,46,992,581.0,580,466,60,124.0,112,1,362,217,65,0,0,576,2524,6273,582,-5.59,,,,,,,,,,,,
283503,1564151630922,0,2.49,0.94,0.32,1.4,1.08,0.87,-0.78,0.55,21,3,25,1.17,7992,25,92,43,45,989,582.0,582,465,60,123.0,112,1,355,217,65,0,0,587,-9072,-13043,582,-5.59,,,,,,,,,,,,
283523,1564151630942,0,2.5,0.93,0.32,1.4,1.08,0.88,-0.77,0.63,21,5,26,1.17,7971,24,92,43,45,989,581.0,578,465,60,123.0,112,1,355,217,65,0,0,580,-32248,243,582,-5.59,,,,,,,,,,,,
283543,1564151630962,2,2.49,0.93,0.32,1.39,1.07,0.8,-0.75,0.55,21,4,27,1.1,8019,24,92,43,45,989,581.0,580,467,60,124.0,112,1,355,215,65,0,0,571,-28648,23619,581,-5.59,44.68124,10.025111,57.04,173.6,0,0.0,-1,0.0,0.0,0,1.83,4.7257
283563,1564151630982,3,2.49,0.94,0.32,1.4,1.08,0.8,-0.76,0.59,21,5,25,1.1,8012,24,92,43,45,995,583.0,588,463,60,122.0,112,1,355,217,65,0,0,575,-9072,-16179,579,-5.59,,,,,,,,,,,,
283583,1564151630994,-0,2.5,0.94,0.32,1.4,1.08,0.81,-0.78,0.63,21,5,25,1.13,7955,23,92,43,45,998,582.0,579,466,60,123.0,112,1,355,215,65,0,0,575,-22263,6273,582,-5.59,,,,,,,,,,,,
283603,1564151631014,2,2.49,0.94,0.32,1.4,1.08,0.77,-0.83,0.57,21,4,25,1.13,7958,22,92,43,45,1003,582.0,571,466,60,123.0,112,1,355,215,65,0,0,583,2524,23619,582,-5.59,,,,,,,,,,,,
283623,1564151631034,3,2.49,0.94,0.32,1.4,1.08,0.77,-0.83,0.59,21,4,24,1.14,7955,22,92,43,44,1006,582.0,578,466,60,122.0,112,1,347,213,65,0,0,576,6274,-16179,582,-5.59,,,,,,,,,,,,
283643,1564151631054,-0,2.5,0.93,0.32,1.4,1.08,0.82,-0.88,0.65,21,4,24,1.2,7928,22,92,43,44,1006,580.0,575,464,60,124.0,112,1,347,139,65,0,0,576,-28648,-13043,581,-5.59,44.681225,10.025115,57.1,173.6,0,0.0,-1,0.0,0.0,0,1.84,4.7274
283663,1564151631074,1,2.49,0.94,0.32,1.4,1.07,0.79,-0.87,0.61,20,2,25,1.18,7944,21,92,43,43,1006,582.0,571,465,60,123.0,110,1,340,212,64,0,0,572,2524,-13043,582,-5.59,,,,,,,,,,,,
283683,1564151631103,2,2.5,0.94,0.32,1.4,1.07,0.69,-0.9,0.59,20,2,25,1.13,7924,21,92,43,43,1005,579.0,564,465,60,122.0,110,1,340,212,64,0,0,571,-9072,17344,579,-5.59,,,,,,,,,,,,
283703,1564151631123,0,2.49,0.93,0.32,1.39,1.07,0.71,-0.96,0.62,20,2,24,1.2,7918,21,92,43,43,1004,582.0,575,462,60,123.0,110,1,340,212,64,0,0,575,-9072,-13043,582,-5.59,,,,,,,,,,,,
283723,1564151631143,1,2.49,0.93,0.32,1.4,1.07,0.76,-0.98,0.63,20,2,25,1.24,7931,21,92,43,43,1003,583.0,577,465,60,123.0,110,1,340,212,64,0,0,576,-9072,5344,583,-5.59,,,,,,,,,,,,
283743,1564151631163,1,2.49,0.93,0.32,1.4,1.07,0.7,-0.92,0.54,20,1,25,1.16,7911,21,92,43,43,1003,581.0,572,462,60,123.0,110,1,340,212,64,0,0,569,6274,-16179,580,-5.59,44.681213,10.025119,56.75,173.7,0,0.0,-1,0.0,0.0,0,1.84,4.7291
283763,1564151631183,3,2.5,0.93,0.32,1.4,1.08,0.7,-0.94,0.48,19,1,25,1.17,7918,21,92,43,43,998,580.0,584,465,60,122.0,108,1,340,212,63,0,0,571,6274,-16179,580,-5.59,,,,,,,,,,,,
283783,1564151631201,-2,2.49,0.93,0.32,1.39,1.08,0.8,-0.98,0.5,19,0,26,1.27,7944,21,92,43,42,995,579.0,582,464,60,123.0,108,1,332,212,63,0,0,570,-28648,15649,579,-5.59,,,,,,,,,,,,
283803,1564151631221,-0,2.49,0.93,0.32,1.39,1.08,0.77,-0.92,0.53,19,-1,26,1.21,7904,21,92,43,42,990,579.0,575,466,60,123.0,108,1,332,210,63,0,0,569,2524,2048,579,-5.59,,,,,,,,,,,,
283823,1564151631241,1,2.49,0.93,0.32,1.39,1.07,0.73,-0.89,0.49,19,-1,24,1.15,7918,21,92,43,42,987,578.0,576,464,60,123.0,108,1,332,210,63,0,0,571,-28648,-28648,580,-5.59,,,,,,,,,,,,
283843,1564151631261,3,2.49,0.94,0.31,1.41,1.08,0.77,-0.9,0.5,19,-1,25,1.18,7901,21,92,43,42,978,577.0,571,462,60,121.0,108,1,332,210,63,0,0,571,6274,-13043,577,-5.59,44.681198,10.02512,56.92,173.7,0,0.0,-1,0.0,0.0,0,1.84,4.7307
283863,1564151631281,0,2.48,0.93,0.32,1.4,1.07,0.89,-0.9,0.53,18,-2,25,1.26,7871,21,92,43,42,962,579.0,572,464,60,123.0,108,1,332,210,63,0,0,571,-32248,-28648,578,-5.59,,,,,,,,,,,,
283883,1564151631301,1,2.49,0.93,0.32,1.39,1.08,0.86,-0.9,0.51,18,-3,24,1.25,7914,21,92,43,42,956,578.0,571,464,60,123.0,108,1,332,210,63,0,0,569,6274,17344,578,-5.59,,,,,,,,,,,,
283903,1564151631321,2,2.49,0.93,0.32,1.4,1.08,0.82,-0.89,0.48,19,-2,25,1.21,7924,21,92,43,42,945,578.0,566,466,60,122.0,108,1,332,210,63,0,0,568,-28648,2048,578,-5.59,,,,,,,,,,,,
283923,1564151631341,0,2.48,0.93,0.32,1.4,1.08,0.87,-0.88,0.53,20,1,26,1.24,7861,21,92,43,42,935,581.0,576,467,60,122.0,108,1,332,210,63,0,0,574,6274,-13043,581,-5.59,,,,,,,,,,,,
283943,1564151631361,0,2.48,0.93,0.32,1.41,1.07,0.96,-0.87,0.61,19,0,25,1.3,7874,21,92,43,42,921,577.0,568,465,60,124.0,108,1,332,210,63,0,0,568,2104,30227,576,-5.59,44.681183,10.025121,56.68,173.7,0,0.0,-1,0.0,0.0,0,1.84,4.7324
283963,1564151631381,1,2.48,0.94,0.32,1.4,1.08,0.9,-0.89,0.58,19,-1,25,1.26,7848,21,92,43,42,910,576.0,562,465,60,123.0,107,1,332,210,62,0,0,563,-22519,-32504,576,-5.59,,,,,,,,,,,,
283983,1564151631401,2,2.48,0.93,0.32,1.4,1.07,0.83,-0.86,0.59,19,1,26,1.19,7858,21,92,43,42,906,577.0,573,465,60,122.0,107,1,332,210,62,0,0,572,-32248,-25872,577,-5.59,,,,,,,,,,,,
284003,1564151631421,3,2.49,0.94,0.32,1.4,1.08,0.82,-0.84,0.63,20,2,24,1.17,7848,21,92,43,42,900,576.0,571,464,60,122.0,107,1,332,210,62,0,0,565,6274,-12040,576,-5.59,,,,,,,,,,,,
284023,1564151631441,-1,2.49,0.93,0.32,1.4,1.08,0.89,-0.87,0.65,20,3,24,1.24,7822,21,92,43,42,897,576.0,574,463,60,121.0,107,1,332,210,62,0,0,570,2104,6273,576,-5.59,,,,,,,,,,,,
284043,1564151631461,0,2.48,0.93,0.32,1.39,1.08,0.89,-0.85,0.66,19,1,26,1.23,7855,20,92,43,41,896,575.0,577,462,60,123.0,107,1,325,208,62,0,0,565,-22519,-1894,575,-5.59,44.681168,10.025121,56.69,173.8,0,0.0,-1,0.0,0.0,0,1.84,4.734
284063,1564151631481,2,2.48,0.93,0.32,1.4,1.07,0.78,-0.82,0.65,19,0,24,1.13,7825,20,92,43,42,898,577.0,570,465,60,123.0,108,1,332,208,62,0,0,565,-8962,-32504,577,-5.59,,,,,,,,,,,,
284083,1564151631503,2,2.49,0.94,0.32,1.4,1.07,0.79,-0.87,0.54,19,1,24,1.17,7828,20,92,43,42,899,572.0,573,465,60,122.0,108,1,332,210,62,0,0,568,-22519,-1894,575,-5.59,,,,,,,,,,,,
284103,1564151631523,-0,2.48,0.94,0.32,1.4,1.08,0.9,-0.9,0.55,18,0,27,1.27,7848,20,92,43,42,901,570.0,573,464,60,123.0,108,1,332,210,62,0,0,563,2104,208,570,-5.59,,,,,,,,,,,,
284123,1564151631543,-0,2.48,0.92,0.31,1.4,1.07,0.97,-0.88,0.65,18,-1,25,1.31,7793,20,92,43,41,902,571.0,571,463,60,123.0,108,1,325,210,62,0,0,565,-22519,-25872,571,-5.59,,,,,,,,,,,,
284143,1564151631563,0,2.48,0.94,0.32,1.39,1.08,0.96,-0.88,0.65,18,-1,23,1.3,7809,19,92,43,41,902,573.0,562,464,60,124.0,108,1,325,208,62,0,0,567,14504,-25872,573,-5.59,44.681156,10.02512,56.41,173.8,0,0.0,-1,0.0,0.0,0,1.84,4.7357
284163,1564151631583,1,2.49,0.94,0.32,1.4,1.08,0.9,-0.86,0.57,19,-0,25,1.25,7802,19,92,43,42,899,573.0,559,466,60,122.0,108,1,332,208,62,0,0,560,-8962,-25872,573,-5.59,,,,,,,,,,,,
284183,1564151631603,1,2.49,0.93,0.32,1.4,1.08,0.89,-0.84,0.54,19,2,25,1.23,7760,19,92,43,42,897,574.0,564,468,60,123.0,108,1,332,210,62,0,0,560,-506,208,571,-5.59,,,,,,,,,,,,
284203,1564151631623,-0,2.48,0.94,0.32,1.39,1.07,0.96,-0.83,0.54,19,2,24,1.27,7812,19,92,43,41,893,570.0,567,465,60,123.0,108,1,325,208,62,0,0,562,2524,6273,570,-5.59,,,,,,,,,,,,
284223,1564151631643,-0,2.48,0.93,0.32,1.4,1.08,0.98,-0.85,0.6,19,2,24,1.3,7780,19,92,43,41,891,569.0,566,465,60,123.0,108,1,325,208,62,0,0,559,-8962,-1894,569,-5.59,,,,,,,,,,,,
284243,1564151631663,0,2.49,0.93,0.32,1.4,1.08,0.94,-0.84,0.63,19,1,25,1.26,7799,19,92,43,40,888,571.0,567,462,60,124.0,108,1,317,206,62,0,0,562,-506,-3210,571,-5.59,44.681145,10.025117,56.39,173.8,0,0.0,-1,0.0,0.0,0,1.85,4.7374
284263,1564151631683,0,2.49,0.93,0.32,1.39,1.08,0.86,-0.82,0.61,18,-0,24,1.19,7728,18,92,43,41,887,569.0,565,466,60,123.0,107,1,325,206,61,0,0,561,-506,15649,569,-5.59,,,,,,,,,,,,
284283,1564151631703,3,2.48,0.93,0.32,1.4,1.07,0.83,-0.82,0.52,18,-0,24,1.17,7712,18,92,43,40,886,568.0,570,465,60,122.0,107,1,317,206,61,0,0,556,-3082,-16384,571,-5.59,,,,,,,,,,,,
284303,1564151631723,3,2.48,0.93,0.32,1.4,1.08,0.85,-0.81,0.51,18,-0,26,1.18,7738,18,92,43,40,888,567.0,565,465,60,122.0,107,1,317,208,61,0,0,558,-3082,259,567,-5.59,,,,,,,,,,,,
284323,1564151631743,-1,2.49,0.94,0.32,1.4,1.08,0.93,-0.8,0.53,18,2,25,1.23,7697,18,92,43,40,889,568.0,570,465,60,123.0,107,1,317,206,61,0,0,559,-3082,30208,568,-5.59,,,,,,,,,,,,
284343,1564151631763,-1,2.49,0.93,0.32,1.4,1.08,1.0,-0.83,0.53,19,2,23,1.3,7712,18,92,43,40,889,568.0,564,466,60,124.0,107,1,317,206,61,0,0,558,-3082,-25872,569,-5.59,44.681126,10.025113,56.08,173.9,0,0.0,-1,0.0,0.0,0,1.85,4.739
284363,1564151631783,0,2.48,0.93,0.32,1.4,1.08,1.01,-0.84,0.54,19,2,25,1.32,7659,18,92,43,40,888,566.0,565,466,60,124.0,103,1,317,206,59,0,0,555,-2336,-4035,566,-5.59,,,,,,,,,,,,
284383,1564151631803,1,2.48,0.93,0.31,1.39,1.08,1.0,-0.8,0.58,19,0,26,1.28,7671,18,92,43,40,886,566.0,557,463,60,123.0,103,1,317,206,59,0,0,553,-2934,1,567,-5.59,,,,,,,,,,,,
284403,1564151631823,1,2.48,0.93,0.32,1.4,1.07,0.92,-0.79,0.62,18,-1,24,1.21,7625,18,92,43,40,883,565.0,551,463,60,123.0,103,1,317,206,59,0,0,555,1780,774,565,-5.59,,,,,,,,,,,,
284423,1564151631843,0,2.48,0.93,0.32,1.4,1.08,0.87,-0.8,0.53,18,-1,23,1.18,7649,18,92,43,40,880,565.0,554,464,60,123.0,103,1,317,206,59,0,0,553,-8186,-16384,565,-5.59,,,,,,,,,,,,
284443,1564151631863,2,2.48,0.93,0.32,1.39,1.08,0.79,-0.77,0.47,19,0,25,1.1,7597,18,92,43,40,877,564.0,548,467,60,123.0,103,1,317,132,59,0,0,555,-8186,1,566,-5.59,44.681114,10.025108,56.02,173.9,0,0.0,-1,0.0,0.0,0,1.85,4.7407
284463,1564151631883,2,2.48,0.94,0.32,1.4,1.08,0.75,-0.68,0.44,19,1,25,1.01,7628,18,92,43,40,876,564.0,560,465,60,122.0,104,1,317,206,59,0,0,555,-2934,30208,564,-5.59,,,,,,,,,,,,
284483,1564151631903,4,2.48,0.94,0.32,1.4,1.08,0.72,-0.7,0.43,19,1,23,1.0,7637,18,92,43,40,873,565.0,556,465,60,121.0,104,1,317,206,59,0,0,551,-28648,-8188,565,-5.59,,,,,,,,,,,,
284503,1564151631923,3,2.48,0.94,0.32,1.39,1.08,0.74,-0.75,0.39,19,1,24,1.06,7615,18,92,43,40,871,563.0,559,464,60,123.0,104,1,317,206,59,0,0,551,6274,243,563,-5.59,,,,,,,,,,,,
284523,1564151631943,2,2.49,0.94,0.32,1.4,1.08,0.81,-0.78,0.4,19,1,26,1.12,7646,18,92,43,40,869,560.0,556,466,60,121.0,104,1,317,206,59,0,0,551,-28648,30208,562,-5.59,,,,,,,,,,,,
284543,1564151631963,-2,2.49,0.93,0.33,1.4,1.08,0.92,-0.77,0.5,19,2,25,1.2,7628,17,92,43,40,867,560.0,566,465,60,122.0,104,1,317,206,59,0,0,549,-2934,-3210,560,-5.59,44.681103,10.025103,55.49,173.9,0,0.0,-1,0.0,0.0,0,1.85,4.7424
284563,1564151631983,-0,2.49,0.93,0.33,1.4,1.08,0.98,-0.79,0.52,19,3,23,1.26,7643,16,92,43,39,865,560.0,567,464,60,124.0,105,1,310,206,59,0,0,546,6274,259,560,-5.59,,,,,,,,,,,,
284583,1564151631995,-0,2.48,0.93,0.32,1.4,1.08,1.0,-0.8,0.57,19,2,25,1.28,7618,15,92,43,39,868,560.0,561,466,60,123.0,105,1,310,205,59,0,0,546,6274,1267,560,-5.59,,,,,,,,,,,,
284603,1564151632015,0,2.48,0.93,0.32,1.4,1.08,1.0,-0.79,0.62,19,-1,26,1.27,7631,15,92,43,38,870,562.0,560,464,60,123.0,105,1,307,205,59,0,0,544,2104,-30159,562,-5.59,,,,,,,,,,,,
284623,1564151632035,0,2.48,0.94,0.32,1.4,1.08,0.96,-0.75,0.66,19,-2,23,1.22,7557,14,92,43,38,874,559.0,555,463,60,123.0,105,1,307,200,59,0,0,549,14504,-8188,559,-5.59,,,,,,,,,,,,
284643,1564151632055,1,2.48,0.94,0.32,1.4,1.08,0.94,-0.77,0.58,18,-3,23,1.22,7575,14,92,43,38,879,559.0,554,464,60,123.0,105,1,307,194,59,0,0,546,14504,1760,559,-5.59,44.681088,10.025096,55.36,173.9,0,0.0,-1,0.0,0.0,0,1.85,4.7441
284663,1564151632075,-1,2.48,0.93,0.33,1.39,1.09,0.9,-0.77,0.53,18,-2,24,1.19,7509,14,92,43,37,886,558.0,547,465,60,123.0,100,1,304,194,56,0,0,546,14504,-3190,558,-5.59,,,,,,,,,,,,
284683,1564151632094,1,2.47,0.94,0.32,1.4,1.08,0.84,-0.71,0.52,18,-3,24,1.1,7521,13,92,43,37,892,556.0,549,466,60,123.0,100,1,304,194,56,0,0,545,-22519,-2934,556,-5.59,,,,,,,,,,,,
284703,1564151632114,0,2.48,0.94,0.32,1.4,1.08,0.77,-0.69,0.48,18,-4,22,1.03,7452,13,92,43,37,895,556.0,543,463,60,123.0,100,1,304,193,56,0,0,543,-22519,-30159,557,-5.59,,,,,,,,,,,,
284723,1564151632134,0,2.47,0.93,0.32,1.4,1.08,0.81,-0.71,0.46,18,-3,22,1.08,7473,13,92,43,36,898,554.0,544,464,60,124.0,100,1,301,187,56,0,0,543,-28648,-8186,554,-5.59,,,,,,,,,,,,
284743,1564151632154,-0,2.47,0.93,0.33,1.4,1.08,0.76,-0.67,0.47,18,-4,25,1.01,7405,13,92,43,36,899,556.0,537,463,60,123.0,100,1,301,187,56,0,0,545,-28648,774,556,-5.59,44.681076,10.025088,54.98,173.9,0,0.0,-1,0.0,0.0,0,1.85,4.7457
284763,1564151632174,1,2.47,0.93,0.32,1.39,1.08,0.74,-0.68,0.49,18,-6,23,1.01,7408,13,92,43,36,900,553.0,546,466,60,124.0,97,1,301,187,54,0,0,539,-28648,-23623,554,-5.59,,,,,,,,,,,,
284783,1564151632202,-2,2.48,0.93,0.33,1.4,1.08,0.87,-0.69,0.56,17,-6,23,1.11,7324,13,92,43,36,899,552.0,538,463,60,123.0,97,1,301,187,54,0,0,540,-28648,-2934,552,-5.59,,,,,,,,,,,,
284803,1564151632222,-0,2.46,0.93,0.32,1.39,1.08,0.97,-0.72,0.59,17,-6,24,1.21,7329,13,92,43,36,898,553.0,539,467,60,123.0,97,1,301,187,54,0,0,539,6274,-23623,553,-5.59,,,,,,,,,,,,
284823,1564151632242,1,2.46,0.93,0.32,1.4,1.07,0.99,-0.79,0.68,17,-5,24,1.26,7253,13,92,43,36,894,550.0,544,467,60,122.0,97,1,301,187,54,0,0,537,6274,2211,550,-5.59,,,,,,,,,,,,
284843,1564151632262,2,2.46,0.94,0.32,1.39,1.08,1.01,-0.78,0.66,17,-3,24,1.27,7233,13,92,43,36,886,550.0,544,465,60,122.0,97,1,301,187,54,0,0,543,2088,-3190,550,-5.59,44.681065,10.02508,54.84,173.9,0,0.0,-1,0.0,0.0,0,1.85,4.7474
284863,1564151632282,2,2.46,0.93,0.32,1.4,1.08,0.9,-0.73,0.54,18,-1,22,1.16,7211,13,92,43,37,883,550.0,541,467,60,122.0,92,1,304,193,51,0,0,539,-32248,12552,550,-5.59,,,,,,,,,,,,
284883,1564151632302,-0,2.45,0.93,0.33,1.39,1.08,0.89,-0.75,0.49,17,-3,21,1.17,7181,13,92,43,37,878,548.0,533,463,60,123.0,92,1,304,187,51,0,0,538,6274,-30159,548,-5.59,,,,,,,,,,,,
284903,1564151632322,-1,2.46,0.93,0.32,1.4,1.08,1.0,-0.78,0.48,16,-2,22,1.27,7264,13,92,43,37,875,546.0,533,465,60,123.0,92,1,304,193,51,0,0,531,10408,2524,546,-5.59,,,,,,,,,,,,
284923,1564151632342,-0,2.46,0.93,0.32,1.4,1.08,1.02,-0.81,0.52,16,-1,23,1.31,7355,13,92,43,36,869,545.0,535,465,60,122.0,92,1,301,193,51,0,0,526,-22519,-506,545,-5.59,,,,,,,,,,,,
284943,1564151632362,-1,2.46,0.94,0.33,1.39,1.09,1.1,-0.82,0.53,16,-2,24,1.37,7470,13,92,43,36,867,543.0,541,465,60,123.0,92,1,301,187,51,0,0,531,1248,-9072,540,-5.59,44.681049,10.02507,54.13,173.9,0,0.0,-1,0.0,0.0,0,1.86,4.7491
284963,1564151632382,4,2.45,0.94,0.32,1.4,1.08,1.19,-0.8,0.57,15,-2,23,1.44,7443,13,92,43,36,866,542.0,551,466,60,122.0,97,1,301,187,53,0,0,533,-8187,-22263,541,-5.59,,,,,,,,,,,,
284983,1564151632402,3,2.46,0.94,0.32,1.41,1.08,1.25,-0.77,0.59,16,-1,23,1.47,7458,13,92,43,36,866,540.0,545,465,60,122.0,97,1,301,187,53,0,0,531,1341,-9072,540,-5.59,,,,,,,,,,,,
285003,1564151632422,2,2.45,0.93,0.33,1.39,1.08,1.21,-0.82,0.6,16,1,24,1.46,7408,13,92,43,36,867,540.0,544,467,60,121.0,97,1,301,187,53,0,0,532,-8187,2104,540,-5.59,,,,,,,,,,,,
285023,1564151632442,2,2.45,0.94,0.32,1.4,1.08,1.21,-0.8,0.61,16,2,24,1.45,7419,13,92,43,35,867,541.0,542,463,60,121.0,97,1,298,187,53,0,0,527,1341,2524,541,-5.59,,,,,,,,,,,,
285043,1564151632462,2,2.45,0.94,0.32,1.39,1.08,1.18,-0.77,0.58,16,4,23,1.42,7355,12,92,43,36,868,539.0,557,466,60,122.0,97,1,301,182,53,0,0,529,1341,-22263,539,-5.59,44.681038,10.025061,53.88,173.9,0,0.0,-1,0.0,0.0,0,1.86,4.7507
285063,1564151632482,1,2.45,0.93,0.32,1.4,1.08,1.05,-0.76,0.51,17,5,21,1.29,7338,12,92,43,35,869,539.0,546,466,60,121.0,92,1,298,182,50,0,0,531,16383,14504,539,-5.59,,,,,,,,,,,,
285083,1564151632502,1,2.46,0.93,0.32,1.4,1.08,0.96,-0.71,0.41,17,5,21,1.19,7321,12,92,43,35,872,538.0,550,462,60,123.0,92,1,298,182,50,0,0,525,16383,-32248,538,-5.59,,,,,,,,,,,,
285103,1564151632522,-1,2.46,0.93,0.33,1.4,1.08,0.89,-0.66,0.37,17,4,22,1.11,7278,12,92,43,35,874,537.0,540,463,60,123.0,92,1,298,182,50,0,0,526,15679,2524,537,-5.59,,,,,,,,,,,,
285123,1564151632542,-2,2.46,0.93,0.33,1.39,1.09,0.83,-0.66,0.42,16,2,22,1.06,7256,12,92,43,35,876,536.0,539,463,60,123.0,92,1,298,182,50,0,0,526,16383,1779,536,-5.59,,,,,,,,,,,,
285143,1564151632562,-1,2.46,0.94,0.32,1.39,1.08,0.95,-0.69,0.5,16,1,21,1.18,7194,12,92,43,35,877,536.0,543,462,60,121.0,92,1,298,187,50,0,0,523,-3482,-2336,536,-5.59,44.681026,10.02505,53.23,173.9,0,0.0,-1,0.0,0.0,0,1.86,4.7524
285163,1564151632582,3,2.45,0.93,0.33,1.4,1.09,1.01,-0.71,0.51,16,2,21,1.23,7161,12,92,43,36,879,535.0,535,467,60,121.0,93,1,301,187,50,0,0,524,26178,-22519,535,-5.59,,,,,,,,,,,,
285183,1564151632602,0,2.45,0.94,0.32,1.4,1.08,0.95,-0.67,0.43,16,2,23,1.16,7151,12,92,43,36,881,533.0,531,465,60,122.0,93,1,301,187,50,0,0,525,-4054,-3082,533,-5.59,,,,,,,,,,,,
285203,1564151632622,-0,2.45,0.93,0.33,1.4,1.08,0.87,-0.64,0.42,16,2,22,1.08,7142,12,92,43,36,882,530.0,524,463,60,123.0,93,1,301,187,50,0,0,522,-4054,1780,532,-5.59,,,,,,,,,,,,
285223,1564151632642,-1,2.45,0.93,0.32,1.4,1.08,0.91,-0.67,0.47,15,-0,22,1.13,7217,11,92,43,36,885,530.0,534,465,60,123.0,93,1,301,187,50,0,0,521,-4054,-8186,529,-5.59,,,,,,,,,,,,
285243,1564151632662,2,2.45,0.93,0.32,1.4,1.08,1.02,-0.65,0.52,15,-1,22,1.21,7228,11,92,43,36,887,529.0,534,461,60,122.0,93,1,301,187,50,0,0,518,10994,14504,530,-5.59,44.681019,10.025039,53.06,173.9,0,0.0,-1,0.0,0.0,0,1.86,4.7541
285263,1564151632682,1,2.44,0.93,0.33,1.39,1.08,1.05,-0.65,0.53,15,2,21,1.24,7253,11,92,43,36,891,526.0,526,463,60,121.0,96,1,301,187,51,0,0,517,-21872,-506,526,-5.59,,,,,,,,,,,,
285283,1564151632703,0,2.44,0.94,0.33,1.39,1.08,0.92,-0.61,0.44,15,4,22,1.1,7247,11,92,43,36,894,528.0,529,467,60,123.0,96,1,301,187,51,0,0,518,-3414,1780,527,-5.59,,,,,,,,,,,,
285303,1564151632723,0,2.44,0.93,0.33,1.39,1.08,0.83,-0.57,0.41,15,4,22,1.0,7192,11,92,43,35,897,528.0,527,465,60,123.0,96,1,298,182,51,0,0,521,-28648,1779,528,-5.59,,,,,,,,,,,,
285323,1564151632743,-0,2.45,0.93,0.33,1.39,1.08,0.81,-0.56,0.48,15,1,21,0.98,7186,11,92,43,35,900,526.0,530,463,60,124.0,96,1,298,182,51,0,0,518,-28648,-30064,526,-5.59,,,,,,,,,,,,
285343,1564151632763,2,2.45,0.93,0.33,1.4,1.08,0.93,-0.59,0.57,14,0,20,1.1,7131,11,92,43,36,902,525.0,539,465,60,121.0,96,1,301,187,51,0,0,517,-28648,-28648,525,-5.59,44.681004,10.025027,52.47,173.8,0,0.0,-1,0.0,0.0,0,1.86,4.7557
285363,1564151632783,1,2.45,0.93,0.32,1.4,1.08,0.95,-0.62,0.53,15,2,20,1.13,7126,11,92,43,35,902,522.0,535,465,60,121.0,95,1,298,182,50,0,0,516,-32248,14504,522,-5.59,,,,,,,,,,,,
285383,1564151632802,-1,2.45,0.93,0.33,1.4,1.08,0.86,-0.56,0.45,15,3,20,1.03,7107,11,92,43,35,903,524.0,528,464,60,122.0,95,1,298,182,50,0,0,516,2109,-32248,524,-5.59,,,,,,,,,,,,
285403,1564151632822,-1,2.45,0.93,0.33,1.39,1.08,0.78,-0.54,0.55,14,2,20,0.95,7059,11,92,43,36,903,522.0,525,463,60,123.0,95,1,301,182,50,0,0,515,-32248,6274,522,-5.59,,,,,,,,,,,,
285423,1564151632842,3,2.44,0.93,0.32,1.4,1.09,0.9,-0.55,0.57,14,0,20,1.06,7067,11,92,43,36,904,523.0,531,467,60,122.0,95,1,301,187,50,0,0,518,15661,-30064,523,-5.59,,,,,,,,,,,,
285443,1564151632862,1,2.44,0.94,0.32,1.4,1.09,0.88,-0.49,0.45,15,2,19,1.0,7102,11,92,43,36,904,519.0,532,464,60,122.0,95,1,301,187,50,0,0,511,11560,-32248,519,-5.59,44.680996,10.025015,51.82,173.8,0,0.0,-1,0.0,0.0,0,1.86,4.7574
285463,1564151632882,-0,2.44,0.94,0.33,1.4,1.08,0.78,-0.46,0.43,14,2,18,0.9,7070,11,92,43,35,904,519.0,526,462,60,123.0,92,1,298,182,48,0,0,512,11560,-22519,519,-5.59,,,,,,,,,,,,
285483,1564151632902,3,2.44,0.94,0.33,1.39,1.07,0.87,-0.47,0.49,14,0,19,0.99,7091,11,92,43,36,904,517.0,535,465,60,120.0,92,1,301,187,48,0,0,511,-22519,-32248,517,-5.59,,,,,,,,,,,,
285503,1564151632922,1,2.43,0.93,0.33,1.4,1.08,0.87,-0.51,0.47,14,1,20,1.01,7035,11,92,43,36,905,518.0,527,466,60,122.0,92,1,301,187,48,0,0,505,-9216,-28648,518,-5.59,,,,,,,,,,,,
285523,1564151632942,-1,2.45,0.93,0.32,1.39,1.08,0.83,-0.47,0.43,14,3,19,0.95,7022,11,92,43,36,905,516.0,516,464,60,121.0,92,1,301,182,48,0,0,510,-22519,-28648,516,-5.59,,,,,,,,,,,,
285543,1564151632962,-1,2.43,0.93,0.32,1.4,1.08,0.78,-0.5,0.5,14,-0,18,0.92,7025,11,92,43,36,906,516.0,524,467,60,122.0,92,1,301,187,48,0,0,506,3,10408,516,-5.59,44.680984,10.025002,51.34,173.8,0,0.0,-1,0.0,0.0,0,1.87,4.759
285563,1564151632982,2,2.44,0.94,0.32,1.41,1.08,0.9,-0.48,0.54,14,1,18,1.02,6991,11,92,43,35,905,515.0,524,462,60,120.0,95,1,298,187,49,0,0,508,3,-9212,515,-5.59,,,,,,,,,,,,
285583,1564151632994,-1,2.44,0.93,0.32,1.4,1.07,0.83,-0.45,0.46,14,1,18,0.94,6978,10,92,43,35,905,511.0,517,462,60,123.0,95,1,298,107,49,0,0,506,3,16383,511,-5.59,,,,,,,,,,,,
285603,1564151633014,-1,2.44,0.93,0.33,1.39,1.08,0.83,-0.47,0.51,14,-0,18,0.95,6991,10,92,43,36,904,512.0,521,465,60,123.0,95,1,301,187,49,0,0,504,998,-32248,512,-5.59,,,,,,,,,,,,
285623,1564151633034,2,2.43,0.93,0.32,1.41,1.08,0.88,-0.52,0.51,14,0,19,1.02,6954,10,92,43,36,903,512.0,529,464,60,120.0,95,1,301,187,49,0,0,501,-6528,2088,512,-5.59,,,,,,,,,,,,
285643,1564151633054,-1,2.44,0.94,0.32,1.4,1.08,0.83,-0.47,0.49,14,2,18,0.95,6944,10,92,43,36,903,511.0,516,463,60,123.0,95,1,301,182,49,0,0,504,-6528,-22519,511,-5.59,44.680981,10.024989,51.15,173.8,0,0.0,-1,0.0,0.0,0,1.87,4.7607
285663,1564151633074,1,2.44,0.93,0.33,1.4,1.09,0.82,-0.49,0.51,14,-1,18,0.96,6957,10,92,43,36,903,510.0,522,465,60,123.0,96,1,301,187,49,0,0,501,248,1248,509,-5.59,,,,,,,,,,,,
285683,1564151633101,1,2.43,0.93,0.32,1.4,1.08,0.92,-0.45,0.46,14,0,18,1.02,6939,10,92,43,36,903,510.0,532,465,60,121.0,96,1,301,187,49,0,0,504,248,1248,508,-5.59,,,,,,,,,,,,
285703,1564151633121,1,2.43,0.93,0.32,1.4,1.08,0.79,-0.43,0.4,14,-0,17,0.9,6913,10,92,43,35,904,509.0,523,460,60,123.0,96,1,298,182,49,0,0,501,248,1341,508,-5.59,,,,,,,,,,,,
285723,1564151633141,1,2.43,0.93,0.33,1.4,1.08,0.87,-0.43,0.47,14,-2,18,0.97,6916,10,92,43,36,904,508.0,520,468,60,121.0,96,1,301,187,49,0,0,739,-1818,15679,504,-5.59,,,,,,,,,,,,
285743,1564151633161,0,2.42,0.94,0.32,1.4,1.08,0.87,-0.35,0.42,14,0,18,0.93,6900,10,92,43,36,903,505.0,524,465,60,123.0,96,1,301,187,49,0,0,739,505,1341,505,-5.59,44.680969,10.024976,50.62,173.8,0,0.0,-1,0.0,0.0,0,1.87,4.7624
285763,1564151633181,3,2.41,0.94,0.33,1.4,1.08,0.77,-0.34,0.54,13,-0,18,0.84,6870,9,92,43,36,901,506.0,516,463,60,124.0,94,1,301,187,48,0,0,739,-6656,-3482,506,-5.59,,,,,,,,,,,,
285783,1564151633201,1,2.42,0.93,0.33,1.39,1.08,0.89,-0.34,0.49,13,-1,17,0.96,6880,9,92,43,36,899,505.0,519,469,60,121.0,94,1,301,187,48,0,0,495,505,16383,505,-5.59,,,,,,,,,,,,
285803,1564151633221,-1,2.42,0.93,0.33,1.39,1.09,0.75,-0.29,0.49,13,-1,16,0.81,6890,9,92,43,36,896,501.0,514,465,60,123.0,94,1,301,182,48,0,0,497,505,-4054,501,-5.59,,,,,,,,,,,,
285823,1564151633241,2,2.41,0.93,0.32,1.41,1.08,0.85,-0.32,0.46,12,-1,16,0.91,6853,9,92,43,36,892,501.0,521,466,60,120.0,94,1,301,187,48,0,0,494,505,2109,501,-5.59,,,,,,,,,,,,
285843,1564151633261,-1,2.42,0.93,0.33,1.4,1.08,0.81,-0.27,0.42,12,-0,17,0.85,6830,9,92,43,36,890,498.0,510,462,60,123.0,94,1,301,187,48,0,0,498,-6441,-3482,498,-5.59,44.680962,10.024961,50.2,173.8,0,0.0,-1,0.0,0.0,0,1.87,4.764
285863,1564151633281,3,2.4,0.93,0.33,1.4,1.08,0.84,-0.27,0.53,12,-1,16,0.88,6815,9,92,43,36,886,499.0,515,466,60,122.0,96,1,301,187,48,0,0,495,-10483,-4054,499,-5.59,,,,,,,,,,,,
285883,1564151633301,-1,2.41,0.93,0.33,1.4,1.08,0.91,-0.2,0.45,12,1,15,0.93,6798,9,92,43,36,885,497.0,511,465,60,122.0,96,1,301,187,48,0,0,493,-6441,-21872,497,-5.59,,,,,,,,,,,,
285903,1564151633321,3,2.41,0.93,0.33,1.4,1.09,0.84,-0.24,0.56,11,1,15,0.87,6764,9,92,43,36,879,497.0,513,461,60,122.0,96,1,301,187,48,0,0,492,3580,2109,497,-5.59,,,,,,,,,,,,
285923,1564151633341,-1,2.41,0.93,0.33,1.4,1.08,0.91,-0.24,0.52,11,2,14,0.94,6756,9,92,43,36,876,494.0,512,465,60,121.0,96,1,301,187,48,0,0,490,-899,-22519,494,-5.59,,,,,,,,,,,,
285943,1564151633361,3,2.41,0.93,0.33,1.4,1.08,0.79,-0.25,0.53,11,0,14,0.83,6764,9,92,43,36,874,496.0,517,463,60,121.0,96,1,301,187,48,0,0,493,-899,11560,496,-5.59,44.680954,10.024947,49.67,173.8,0,0.0,-1,0.0,0.0,0,1.87,4.7657
285963,1564151633381,-0,2.41,0.93,0.32,1.4,1.08,0.88,-0.19,0.45,11,1,13,0.9,6773,9,92,43,36,872,495.0,516,466,60,121.0,97,1,301,187,48,0,0,490,-899,11560,492,-5.59,,,,,,,,,,,,
285983,1564151633403,4,2.41,0.93,0.32,1.4,1.08,0.85,-0.25,0.46,11,0,13,0.89,6718,9,92,43,36,869,491.0,517,463,60,119.0,97,1,301,187,48,0,0,486,10305,-22519,492,-5.59,,,,,,,,,,,,
286003,1564151633423,-0,2.4,0.93,0.32,1.4,1.07,0.89,-0.23,0.48,11,2,13,0.92,6708,9,92,43,36,866,492.0,510,467,60,122.0,97,1,301,187,48,0,0,489,2212,10408,492,-5.59,,,,,,,,,,,,
286023,1564151633443,3,2.41,0.93,0.32,1.41,1.08,0.88,-0.24,0.51,11,3,12,0.91,6708,9,92,43,36,866,491.0,511,467,60,121.0,97,1,301,187,48,0,0,485,-17956,10408,491,-5.59,,,,,,,,,,,,
286043,1564151633463,-1,2.41,0.93,0.32,1.4,1.08,0.93,-0.19,0.45,11,4,12,0.95,6703,9,92,43,36,865,488.0,511,461,60,122.0,97,1,301,187,48,0,0,487,-17956,-9216,488,-5.59,44.680946,10.024933,49.29,173.8,0,0.0,-1,0.0,0.0,0,1.87,4.7674
286063,1564151633483,3,2.4,0.93,0.32,1.41,1.08,0.85,-0.3,0.53,10,2,13,0.91,6663,9,92,43,36,865,486.0,513,466,60,121.0,96,1,301,187,47,0,0,484,-17956,3,487,-5.59,,,,,,,,,,,,
286083,1564151633503,-1,2.41,0.93,0.32,1.4,1.08,0.85,-0.23,0.48,11,4,11,0.88,6630,9,92,43,36,864,487.0,502,462,60,123.0,96,1,301,187,47,0,0,484,-17956,-9216,487,-5.59,,,,,,,,,,,,
286103,1564151633523,1,2.4,0.93,0.32,1.4,1.08,0.97,-0.3,0.48,10,1,12,1.01,6623,9,92,43,37,864,487.0,497,468,60,122.0,96,1,304,193,47,0,0,480,3576,-9216,487,-5.59,,,,,,,,,,,,
286123,1564151633543,3,2.4,0.93,0.32,1.4,1.08,0.84,-0.29,0.54,10,2,12,0.89,6604,8,92,43,36,863,485.0,503,463,60,122.0,96,1,301,193,47,0,0,484,-1923,1,485,-5.59,,,,,,,,,,,,
286143,1564151633563,-0,2.4,0.93,0.33,1.4,1.08,0.92,-0.29,0.45,10,3,12,0.97,6597,8,92,43,37,862,483.0,497,462,60,122.0,96,1,304,193,47,0,0,480,32033,-32768,483,-5.59,44.680943,10.024919,48.66,173.8,0,0.0,-1,0.0,0.0,0,1.87,4.7691
286163,1564151633583,1,2.4,0.93,0.32,1.4,1.08,0.89,-0.32,0.47,9,2,12,0.95,6572,8,92,43,37,858,481.0,503,462,60,122.0,99,1,304,193,48,0,0,476,-16384,-6656,481,-5.59,,,,,,,,,,,,
286183,1564151633603,-1,2.4,0.93,0.32,1.4,1.08,0.87,-0.28,0.43,9,3,11,0.92,6565,8,92,43,37,858,481.0,504,462,60,123.0,99,1,304,193,48,0,0,480,-16384,3580,481,-5.59,,,,,,,,,,,,
286203,1564151633623,1,2.4,0.93,0.31,1.4,1.08,0.94,-0.33,0.38,9,2,12,1.0,6581,8,92,43,37,855,481.0,500,466,60,121.0,99,1,304,193,48,0,0,478,-16384,505,481,-5.59,,,,,,,,,,,,
286223,1564151633643,3,2.39,0.93,0.33,1.4,1.08,0.85,-0.24,0.38,9,2,12,0.88,6551,8,92,43,37,854,479.0,501,463,60,123.0,99,1,304,193,48,0,0,475,243,505,477,-5.59,,,,,,,,,,,,
286243,1564151633663,0,2.39,0.93,0.32,1.4,1.08,0.95,-0.21,0.34,9,3,11,0.97,6519,8,92,43,37,854,477.0,497,462,60,123.0,99,1,304,193,48,0,0,476,16408,-1562,477,-5.59,44.680935,10.024904,48.09,173.8,0,0.0,-1,0.0,0.0,0,1.87,4.7707
286263,1564151633683,1,2.39,0.92,0.32,1.4,1.08,0.96,-0.3,0.34,9,2,12,1.01,6508,8,92,43,37,854,476.0,500,465,60,120.0,98,1,304,193,47,0,0,474,16408,-10483,474,-5.59,,,,,,,,,,,,
286283,1564151633703,3,2.39,0.94,0.32,1.4,1.08,0.82,-0.22,0.41,9,3,11,0.84,6485,8,92,43,37,856,474.0,497,464,60,122.0,98,1,304,193,47,0,0,470,12552,3580,473,-5.59,,,,,,,,,,,,
286303,1564151633723,-1,2.39,0.93,0.32,1.4,1.08,0.9,-0.2,0.36,9,5,10,0.92,6461,8,92,43,37,858,473.0,492,465,60,122.0,98,1,304,193,47,0,0,472,2211,8488,473,-5.59,,,,,,,,,,,,
286323,1564151633743,-0,2.39,0.93,0.32,1.4,1.08,0.96,-0.26,0.34,8,2,11,1.0,6434,8,92,43,37,861,472.0,494,466,60,121.0,98,1,304,193,47,0,0,471,6193,-899,472,-5.59,,,,,,,,,,,,
286343,1564151633763,2,2.38,0.93,0.32,1.39,1.08,0.81,-0.22,0.4,8,-0,12,0.84,6425,8,92,43,38,864,471.0,497,467,60,120.0,98,1,307,199,47,0,0,469,12552,10305,471,-5.59,44.680927,10.02489,47.74,173.8,0,0.0,-1,0.0,0.0,0,1.88,4.7724
286363,1564151633783,4,2.38,0.94,0.32,1.4,1.08,0.81,-0.2,0.4,9,2,10,0.84,6414,8,92,43,37,867,469.0,490,462,60,122.0,100,1,304,193,47,0,0,468,17628,2212,469,-5.59,,,,,,,,,,,,
286383,1564151633803,-0,2.39,0.93,0.32,1.39,1.08,0.93,-0.19,0.29,9,3,10,0.95,6392,8,92,43,38,870,468.0,487,464,60,122.0,100,1,307,199,47,0,0,470,17628,-17956,467,-5.59,,,,,,,,,,,,
286403,1564151633823,2,2.38,0.93,0.33,1.4,1.08,0.95,-0.23,0.29,8,1,10,0.98,6375,8,92,43,38,873,466.0,496,467,60,122.0,100,1,307,199,47,0,0,461,2524,32033,466,-5.59,,,,,,,,,,,,
286423,1564151633843,3,2.38,0.93,0.32,1.4,1.08,0.85,-0.17,0.31,8,1,10,0.87,6360,8,92,43,37,874,463.0,486,463,60,122.0,100,1,304,199,47,0,0,464,-8985,-16384,463,-5.59,,,,,,,,,,,,
286443,1564151633863,4,2.38,0.93,0.33,1.4,1.08,0.87,-0.16,0.3,8,2,9,0.89,6360,8,92,43,38,875,464.0,483,464,60,122.0,100,1,307,124,47,0,0,462,-8985,30272,464,-5.59,44.680923,10.024876,46.99,173.8,0,0.0,-1,0.0,0.0,0,1.88,4.774
286463,1564151633883,1,2.37,0.93,0.32,1.39,1.08,0.97,-0.18,0.22,8,1,9,0.99,6336,8,92,43,38,877,461.0,484,466,60,121.0,103,1,307,199,48,0,0,458,-8985,8488,461,-5.59,,,,,,,,,,,,
286483,1564151633903,2,2.38,0.93,0.32,1.41,1.08,0.99,-0.21,0.27,7,-1,9,1.01,6334,8,92,43,38,877,460.0,485,466,60,120.0,103,1,307,199,48,0,0,458,-6387,243,459,-5.59,,,,,,,,,,,,
286503,1564151633923,3,2.37,0.93,0.33,1.4,1.08,0.86,-0.17,0.35,7,-2,8,0.88,6294,8,92,43,38,876,460.0,481,467,60,120.0,103,1,307,199,48,0,0,460,15649,12552,460,-5.59,,,,,,,,,,,,
286523,1564151633943,4,2.37,0.93,0.33,1.4,1.08,0.81,-0.07,0.35,8,1,8,0.81,6291,8,92,43,38,878,457.0,478,466,60,123.0,103,1,307,199,48,0,0,457,-3267,12552,456,-5.59,,,,,,,,,,,,
286543,1564151633963,5,2.37,0.93,0.32,1.41,1.08,0.9,-0.07,0.35,7,3,8,0.9,6243,7,92,43,38,878,457.0,477,462,60,123.0,103,1,307,199,48,0,0,456,10305,-18108,457,-5.59,44.680916,10.024861,46.43,173.8,0,0.0,-1,0.0,0.0,0,1.88,4.7757
286563,1564151633983,1,2.37,0.93,0.32,1.4,1.08,1.01,-0.13,0.37,7,2,8,1.02,6239,7,92,43,38,876,454.0,482,465,60,122.0,103,1,307,199,47,0,0,453,2131,6193,455,-5.59,,,,,,,,,,,,
286583,1564151633995,2,2.36,0.93,0.32,1.4,1.08,1.08,-0.12,0.43,6,-0,8,1.08,6194,7,92,43,39,874,452.0,481,465,60,123.0,103,1,310,199,47,0,0,455,16648,6193,452,-5.59,,,,,,,,,,,,
286603,1564151634015,2,2.36,0.93,0.32,1.41,1.08,1.01,-0.14,0.42,6,-3,8,1.01,6192,7,92,43,39,872,454.0,483,463,60,122.0,103,1,310,204,47,0,0,453,2131,-18108,452,-5.59,,,,,,,,,,,,
286623,1564151634035,3,2.36,0.93,0.32,1.4,1.08,0.9,-0.17,0.41,5,-4,7,0.91,6117,7,92,43,39,869,452.0,480,465,60,123.0,103,1,310,204,47,0,0,452,23400,-9160,452,-5.59,,,,,,,,,,,,
286643,1564151634055,4,2.36,0.93,0.32,1.4,1.08,0.74,-0.19,0.48,5,-4,7,0.76,6171,7,92,43,39,863,450.0,473,463,60,122.0,103,1,310,204,47,0,0,451,23400,14488,450,-5.59,44.680908,10.024846,45.64,173.7,0,0.0,-1,0.0,0.0,0,1.88,4.7774
286663,1564151634075,5,2.36,0.93,0.32,1.4,1.08,0.61,-0.13,0.51,6,-3,7,0.63,6135,7,92,43,39,859,445.0,483,465,60,122.0,105,1,310,204,47,0,0,447,5600,-6387,445,-5.59,,,,,,,,,,,,
286683,1564151634102,6,2.35,0.93,0.32,1.41,1.08,0.55,-0.03,0.48,6,0,7,0.55,6149,7,92,43,39,856,445.0,473,462,60,123.0,105,1,310,204,47,0,0,445,5600,-6387,445,-5.59,,,,,,,,,,,,
286703,1564151634122,5,2.36,0.93,0.32,1.4,1.08,0.61,0.02,0.43,7,3,7,0.61,6099,7,92,43,38,855,444.0,466,464,60,122.0,105,1,307,204,47,0,0,445,5600,2131,444,-5.59,,,,,,,,,,,,
286723,1564151634142,6,2.36,0.93,0.33,1.4,1.08,0.75,0.01,0.38,7,3,7,0.75,6056,7,92,43,39,854,444.0,460,464,60,121.0,105,1,310,204,47,0,0,446,5600,-8985,444,-5.59,,,,,,,,,,,,
286743,1564151634162,6,2.36,0.93,0.33,1.4,1.08,0.85,0.02,0.34,7,5,8,0.85,5988,7,92,43,39,855,440.0,451,462,60,123.0,105,1,309,203,47,0,0,440,243,16648,439,-5.59,44.680904,10.024832,45.13,173.8,0,0.0,-1,0.0,0.0,0,1.88,4.779
286763,1564151634182,6,2.36,0.93,0.33,1.4,1.08,0.97,0.02,0.31,7,8,8,0.97,5965,7,92,43,39,857,438.0,450,465,60,124.0,104,1,307,203,46,0,0,441,243,16648,438,-5.59,,,,,,,,,,,,
286783,1564151634202,6,2.36,0.93,0.32,1.4,1.08,1.02,0.06,0.27,7,10,7,1.02,5929,7,92,43,39,858,434.0,456,463,60,124.0,104,1,305,204,46,0,0,440,3635,23400,434,-5.59,,,,,,,,,,,,
286803,1564151634222,7,2.37,0.93,0.32,1.4,1.08,1.02,0.11,0.24,8,12,7,1.03,5911,7,92,43,40,860,431.0,458,460,60,123.0,104,1,309,204,46,0,0,436,13552,5600,429,-5.59,,,,,,,,,,,,
286823,1564151634242,6,2.36,0.93,0.32,1.4,1.08,0.98,0.19,0.23,8,14,8,0.99,5903,7,92,43,40,861,429.0,457,463,60,122.0,104,1,309,205,46,0,0,431,-4082,-28332,429,-5.59,,,,,,,,,,,,
286843,1564151634262,7,2.36,0.93,0.32,1.4,1.09,0.85,0.23,0.25,8,15,9,0.88,5852,7,92,43,41,861,427.0,453,466,60,121.0,104,1,312,205,46,0,0,430,3826,20625,427,-5.59,44.680901,10.024818,44.49,173.7,0,0.0,-1,0.0,0.0,0,1.88,4.7807
286863,1564151634282,6,2.36,0.93,0.32,1.4,1.08,0.72,0.26,0.25,8,15,9,0.76,5855,7,92,43,41,861,424.0,456,463,60,123.0,105,1,312,205,45,0,0,430,-21792,-3322,424,-5.59,,,,,,,,,,,,
286883,1564151634303,5,2.36,0.93,0.32,1.4,1.08,0.58,0.21,0.24,7,14,9,0.61,5801,6,92,43,42,860,421.0,457,468,60,121.0,105,1,314,207,45,0,0,427,-8165,13180,421,-5.59,,,,,,,,,,,,
286903,1564151634323,4,2.36,0.93,0.33,1.4,1.07,0.54,0.18,0.18,7,11,9,0.57,5804,6,92,43,42,859,420.0,452,465,60,123.0,105,1,314,207,45,0,0,423,-21944,-3322,420,-5.59,,,,,,,,,,,,
286923,1564151634343,5,2.35,0.93,0.33,1.4,1.08,0.61,0.16,0.22,6,8,8,0.63,5762,6,92,43,42,857,419.0,443,466,60,122.0,105,1,311,206,45,0,0,422,2524,13552,419,-5.59,,,,,,,,,,,,
286943,1564151634363,9,2.35,0.93,0.32,1.4,1.08,0.76,0.11,0.23,6,7,7,0.76,5711,6,92,43,42,856,414.0,441,465,60,124.0,105,1,307,208,45,0,0,423,-4059,-21792,414,-5.59,44.680897,10.024804,43.19,173.7,0,0.0,-1,0.0,0.0,0,1.88,4.7824
286963,1564151634383,7,2.35,0.93,0.32,1.4,1.08,0.81,0.13,0.25,6,8,7,0.82,5669,6,92,43,43,854,412.0,441,466,60,123.0,109,1,310,208,45,0,0,418,2524,-9166,414,-5.59,,,,,,,,,,,,
286983,1564151634402,6,2.36,0.93,0.32,1.41,1.08,0.73,0.11,0.35,6,9,6,0.73,5600,6,92,43,44,851,410.0,437,463,60,122.0,109,1,309,209,45,0,0,415,-9211,18584,410,-5.59,,,,,,,,,,,,
287003,1564151634422,6,2.35,0.93,0.32,1.41,1.08,0.73,0.13,0.29,6,6,7,0.74,5572,6,92,43,44,850,409.0,424,465,60,123.0,109,1,307,209,45,0,0,410,10541,18584,409,-5.59,,,,,,,,,,,,
287023,1564151634442,8,2.35,0.93,0.33,1.4,1.08,0.86,0.08,0.31,6,4,6,0.86,5575,6,92,43,45,849,405.0,428,466,60,122.0,109,1,311,210,45,0,0,409,6512,10392,405,-5.59,,,,,,,,,,,,
287043,1564151634462,5,2.35,0.93,0.33,1.4,1.07,0.86,0.07,0.38,6,6,5,0.87,5550,6,92,43,45,851,403.0,428,465,60,123.0,109,1,310,210,45,0,0,406,6384,-26615,403,-5.59,44.680893,10.024791,42.08,173.7,0,0.0,-1,0.0,0.0,0,1.88,4.784
287063,1564151634482,6,2.35,0.93,0.33,1.4,1.08,0.8,0.05,0.31,5,6,5,0.81,5503,6,92,43,46,851,400.0,427,465,60,122.0,109,1,310,212,44,0,0,407,17144,11560,400,-5.59,,,,,,,,,,,,
287083,1564151634502,8,2.36,0.93,0.33,1.4,1.08,0.93,0.04,0.34,5,4,4,0.93,5500,6,92,43,46,851,397.0,420,463,60,121.0,109,1,310,212,44,0,0,396,-6656,28696,397,-5.59,,,,,,,,,,,,
287103,1564151634522,5,2.36,0.93,0.33,1.41,1.08,0.89,0.03,0.36,5,4,4,0.89,5472,6,92,43,46,852,394.0,420,465,60,122.0,109,1,307,214,44,0,0,399,-1562,-8151,394,-5.59,,,,,,,,,,,,
287123,1564151634542,5,2.36,0.93,0.33,1.4,1.08,0.86,0.03,0.29,5,2,4,0.86,5420,6,92,43,47,856,392.0,410,464,60,122.0,109,1,307,140,44,0,0,398,-31744,28696,392,-5.59,,,,,,,,,,,,
287143,1564151634562,5,2.37,0.93,0.33,1.4,1.09,0.94,0.05,0.25,5,3,4,0.94,5392,6,92,43,47,860,389.0,410,462,60,123.0,109,1,305,214,44,0,0,398,-31744,-3968,389,-5.59,44.680885,10.024777,41.15,173.7,0,0.0,-1,0.0,0.0,0,1.89,4.7857
287163,1564151634582,5,2.36,0.93,0.33,1.41,1.08,0.83,-0.02,0.26,5,4,3,0.83,5338,6,92,43,48,863,389.0,413,465,60,122.0,112,1,304,143,44,0,0,392,-3866,-32702,389,-5.59,,,,,,,,,,,,
287183,1564151634602,7,2.36,0.93,0.33,1.4,1.08,0.93,-0.05,0.27,4,3,4,0.93,5320,6,92,43,48,865,388.0,412,464,60,122.0,112,1,302,217,44,0,0,391,-6475,17144,388,-5.59,,,,,,,,,,,,
287203,1564151634622,5,2.36,0.93,0.33,1.41,1.08,0.93,0.0,0.3,4,5,4,0.93,5316,6,92,43,49,868,387.0,403,462,60,123.0,112,1,306,221,44,0,0,388,19125,-1562,387,-5.59,,,,,,,,,,,,
287223,1564151634642,7,2.35,0.93,0.33,1.41,1.08,0.95,0.01,0.34,4,2,4,0.95,5266,6,92,43,49,869,383.0,399,463,60,122.0,112,1,301,221,44,0,0,386,-992,-6475,383,-5.59,,,,,,,,,,,,
287243,1564151634662,5,2.36,0.93,0.33,1.41,1.08,0.91,-0.0,0.41,4,4,4,0.91,5222,6,92,43,50,869,382.0,413,467,60,122.0,112,1,301,224,44,0,0,385,-6656,240,382,-5.59,44.680885,10.024764,39.79,173.7,0,0.0,-1,0.0,0.0,0,1.89,4.7874
287263,1564151634682,7,2.36,0.93,0.33,1.4,1.08,0.99,-0.04,0.43,4,2,3,0.99,5222,6,92,43,50,868,380.0,405,457,60,122.0,115,1,301,220,44,0,0,383,742,-19019,380,-5.59,,,,,,,,,,,,
287283,1564151634702,5,2.36,0.93,0.33,1.4,1.08,0.91,-0.08,0.45,5,2,3,0.92,5224,6,92,43,50,865,377.0,403,463,60,120.0,115,1,302,224,44,0,0,382,-6656,-18948,377,-5.59,,,,,,,,,,,,
287303,1564151634722,7,2.35,0.93,0.32,1.41,1.08,0.98,-0.12,0.43,4,-0,3,0.99,5191,6,93,43,50,863,377.0,397,462,60,123.0,115,1,299,223,44,0,0,378,1,-6475,377,181.28,,,,,,,,,,,,
287323,1564151634742,5,2.36,0.93,0.33,1.41,1.08,0.86,-0.13,0.4,4,1,3,0.87,5162,6,92,43,51,860,375.0,403,463,60,121.0,115,1,301,226,44,0,0,376,257,-18948,375,-5.59,,,,,,,,,,,,
287343,1564151634762,5,2.36,0.93,0.33,1.4,1.09,0.96,-0.08,0.41,4,1,3,0.96,5125,6,92,43,51,859,371.0,398,464,60,122.0,115,1,298,225,44,0,0,375,486,3,372,-5.59,44.680882,10.024752,38.85,173.7,0,0.0,-1,0.0,0.0,0,1.89,4.7891
287363,1564151634782,5,2.36,0.93,0.33,1.41,1.08,0.91,-0.05,0.29,4,1,4,0.91,5097,6,93,43,51,856,371.0,389,463,60,122.0,115,1,295,225,43,0,0,375,230,8200,369,-5.59,,,,,,,,,,,,
287383,1564151634796,3,2.36,0.93,0.33,1.41,1.08,0.91,-0.02,0.4,4,2,4,0.91,5041,6,92,43,51,854,367.0,391,464,60,122.0,115,1,290,227,43,0,0,370,-6405,3,367,-5.59,,,,,,,,,,,,
287403,1564151634816,6,2.35,0.93,0.32,1.41,1.08,0.95,-0.02,0.39,4,0,3,0.95,5024,6,92,43,52,853,366.0,387,461,60,122.0,115,1,293,227,43,0,0,374,2790,770,366,181.28,,,,,,,,,,,,
287423,1564151634836,4,2.36,0.93,0.32,1.41,1.08,0.85,0.03,0.31,4,0,4,0.85,5026,6,92,43,53,853,364.0,382,463,60,121.0,115,1,298,230,43,0,0,366,-29302,230,364,-5.59,,,,,,,,,,,,
287443,1564151634856,3,2.36,0.93,0.33,1.41,1.07,0.89,0.05,0.39,4,-0,3,0.89,4990,6,92,43,52,855,362.0,384,465,60,121.0,115,1,290,229,43,0,0,365,-6640,486,362,-5.59,44.680878,10.024739,37.65,173.7,0,0.0,-1,0.0,0.0,0,1.89,4.7907
287463,1564151634876,4,2.36,0.93,0.32,1.41,1.08,0.93,0.03,0.34,4,-1,3,0.94,4977,6,93,43,53,862,359.0,382,460,60,122.0,119,1,292,229,43,0,0,361,4104,0,360,181.28,,,,,,,,,,,,
287483,1564151634902,3,2.36,0.92,0.33,1.4,1.09,0.88,0.03,0.29,4,-1,4,0.88,4934,6,93,43,53,865,358.0,373,464,60,122.0,119,1,287,229,43,0,0,362,3302,-6405,358,-5.59,,,,,,,,,,,,
287503,1564151634922,2,2.35,0.93,0.32,1.4,1.08,0.89,0.02,0.37,4,1,4,0.89,4880,6,92,43,53,871,356.0,381,469,60,122.0,119,1,281,228,43,0,0,358,-6644,-6458,356,-5.59,,,,,,,,,,,,
287523,1564151634942,3,2.36,0.93,0.33,1.4,1.08,0.91,0.04,0.36,4,1,4,0.91,4868,6,92,43,53,876,353.0,371,462,60,122.0,119,1,279,228,43,0,0,357,-30454,-29302,353,-5.59,,,,,,,,,,,,
287543,1564151634962,7,2.35,0.93,0.33,1.41,1.08,0.97,0.01,0.3,4,0,4,0.97,4854,6,92,43,53,881,353.0,365,466,60,123.0,119,1,277,228,43,0,0,357,-1246,4104,350,181.28,44.680874,10.024727,36.61,173.7,0,0.0,-1,0.0,0.0,0,1.89,4.7924
287563,1564151634982,8,2.35,0.93,0.32,1.4,1.07,0.92,0.03,0.3,4,-0,4,0.92,4841,6,93,43,54,885,349.0,369,461,60,123.0,120,1,280,231,42,0,0,356,8841,4104,349,-5.59,,,,,,,,,,,,
287583,1564151634994,4,2.36,0.93,0.32,1.4,1.08,0.9,0.01,0.31,4,0,3,0.9,4817,6,92,43,54,886,348.0,368,465,60,120.0,120,1,277,231,42,0,0,352,6870,3302,348,-5.59,,,,,,,,,,,,
287603,1564151635014,3,2.36,0.93,0.33,1.41,1.08,0.93,0.01,0.37,4,0,3,0.93,4767,6,92,43,54,887,347.0,369,465,60,121.0,120,1,270,230,42,0,0,350,-31206,-6644,345,-5.59,,,,,,,,,,,,
287623,1564151635034,4,2.34,0.92,0.32,1.41,1.08,0.97,-0.01,0.38,4,-1,3,0.97,4786,6,92,43,53,889,344.0,365,460,60,122.0,120,1,268,226,42,0,0,349,6668,-30454,344,-5.59,,,,,,,,,,,,
287643,1564151635054,4,2.35,0.93,0.33,1.41,1.08,1.0,-0.06,0.31,4,-2,3,1.0,4734,6,92,43,54,892,344.0,357,466,60,123.0,120,1,266,230,42,0,0,348,-122,-30454,344,181.28,44.68087,10.024715,35.75,173.7,0,0.0,-1,0.0,0.0,0,1.89,4.7941
287663,1564151635074,6,2.34,0.93,0.32,1.41,1.08,0.97,-0.08,0.27,3,-3,4,0.98,4700,6,93,43,54,894,341.0,357,460,60,122.0,120,1,261,230,41,0,0,344,-31222,6870,339,-5.59,,,,,,,,,,,,
287683,1564151635102,8,2.34,0.93,0.33,1.41,1.08,0.97,-0.08,0.25,3,-1,4,0.98,4671,6,92,43,54,897,339.0,353,467,60,123.0,120,1,257,229,41,0,0,341,2560,6870,339,-5.59,,,,,,,,,,,,
287703,1564151635122,5,2.35,0.93,0.33,1.4,1.08,0.9,-0.06,0.27,3,1,4,0.9,4649,6,92,43,54,899,336.0,365,465,60,121.0,120,1,255,229,41,0,0,342,4838,-14714,336,-5.59,,,,,,,,,,,,
287723,1564151635142,5,2.34,0.93,0.32,1.41,1.08,0.9,-0.05,0.34,3,2,3,0.9,4636,6,92,43,54,901,336.0,353,463,60,123.0,120,1,253,229,41,0,0,341,175,3327,336,-5.59,,,,,,,,,,,,
287743,1564151635162,4,2.36,0.93,0.33,1.4,1.08,0.93,-0.03,0.4,4,2,3,0.94,4591,6,92,43,54,902,331.0,356,465,60,121.0,120,1,247,228,41,0,0,336,170,-122,331,-5.59,44.680866,10.024704,34.7,173.7,0,0.0,-1,0.0,0.0,0,1.89,4.7957
287763,1564151635182,5,2.34,0.93,0.32,1.41,1.08,0.97,0.02,0.46,4,2,3,0.97,4555,6,92,43,54,902,331.0,352,469,60,122.0,117,1,242,228,39,0,0,336,165,-122,331,-5.59,,,,,,,,,,,,
287783,1564151635201,3,2.35,0.93,0.32,1.4,1.08,1.0,0.05,0.5,3,1,3,1.0,4526,6,92,43,54,903,332.0,350,462,60,123.0,117,1,238,228,39,0,0,334,160,-12032,332,-5.59,,,,,,,,,,,,
287803,1564151635221,4,2.35,0.93,0.32,1.41,1.08,1.02,0.02,0.57,3,1,3,1.02,4492,6,92,43,54,904,330.0,346,467,60,120.0,117,1,234,227,39,0,0,334,155,-6528,330,-5.59,,,,,,,,,,,,
287823,1564151635241,4,2.34,0.93,0.32,1.41,1.08,1.02,-0.02,0.57,3,1,4,1.02,4462,6,92,43,54,905,329.0,341,466,60,120.0,117,1,230,227,39,0,0,329,-27136,3346,329,-5.59,,,,,,,,,,,,
287843,1564151635261,4,2.34,0.93,0.32,1.4,1.08,1.04,0.01,0.61,3,1,3,1.04,4478,6,92,43,54,905,326.0,341,460,60,121.0,117,1,232,154,39,0,0,326,145,170,325,-5.59,44.680866,10.024693,33.61,173.7,0,0.0,-1,0.0,0.0,0,1.89,4.7974
287863,1564151635281,4,2.34,0.92,0.32,1.41,1.08,1.05,0.04,0.66,3,0,3,1.05,4429,6,92,43,54,903,321.0,343,470,60,121.0,118,1,226,227,38,0,0,324,-28416,-23296,321,-5.59,,,,,,,,,,,,
287883,1564151635301,5,2.35,0.93,0.32,1.41,1.08,1.04,0.03,0.71,3,0,2,1.04,4454,6,92,43,54,901,321.0,338,468,60,122.0,118,1,229,227,38,0,0,325,135,-23296,319,-5.59,,,,,,,,,,,,
287903,1564151635321,5,2.34,0.93,0.32,1.41,1.07,0.99,0.04,0.7,3,-0,2,0.99,4425,6,92,43,54,898,315.0,338,473,60,121.0,118,1,225,227,38,0,0,319,-32256,-27136,315,-5.59,,,,,,,,,,,,
287923,1564151635341,7,2.34,0.93,0.32,1.41,1.07,0.96,0.04,0.7,3,2,2,0.96,4375,6,92,43,54,896,316.0,333,468,60,122.0,118,1,219,226,38,0,0,321,-32256,145,316,-5.59,,,,,,,,,,,,
287943,1564151635361,7,2.33,0.93,0.32,1.41,1.08,0.92,0.05,0.66,3,3,1,0.92,4379,6,92,43,54,896,315.0,335,467,60,123.0,118,1,219,226,38,0,0,319,-32256,-28416,315,-5.59,44.680862,10.024682,32.93,173.7,0,0.0,-1,0.0,0.0,0,1.89,4.799
287963,1564151635381,6,2.33,0.93,0.33,1.4,1.08,0.92,0.05,0.57,3,4,1,0.92,4348,6,93,43,54,896,313.0,326,465,60,123.0,117,1,215,226,37,0,0,318,125,-27136,313,-5.59,,,,,,,,,,,,
287983,1564151635401,5,2.32,0.93,0.32,1.4,1.08,0.92,0.03,0.48,2,3,3,0.92,4306,6,93,43,54,899,312.0,326,460,60,124.0,117,1,210,226,37,0,0,318,30720,150,310,181.28,,,,,,,,,,,,
288003,1564151635421,4,2.32,0.93,0.32,1.41,1.08,0.96,0.0,0.4,2,2,3,0.96,4330,6,93,43,54,902,308.0,322,459,60,124.0,117,1,213,226,37,0,0,313,120,145,307,181.28,,,,,,,,,,,,
288023,1564151635441,4,2.31,0.93,0.32,1.41,1.07,0.97,-0.03,0.41,1,1,3,0.97,4291,6,93,43,54,903,307.0,327,462,60,123.0,117,1,208,225,37,0,0,313,30720,130,304,-5.59,,,,,,,,,,,,
288043,1564151635461,3,2.32,0.93,0.33,1.4,1.08,0.98,-0.05,0.44,1,-0,2,0.99,4268,6,92,43,54,906,307.0,326,470,60,121.0,117,1,205,225,37,0,0,312,30720,120,303,-5.59,44.680859,10.024672,32.14,173.7,0,0.0,-1,0.0,0.0,0,1.9,4.8007
288063,1564151635481,4,2.32,0.93,0.32,1.4,1.08,1.01,0.01,0.49,1,1,1,1.01,4298,6,92,43,54,907,305.0,327,468,60,123.0,118,1,209,225,36,0,0,309,110,-32256,302,-5.59,,,,,,,,,,,,
288083,1564151635501,8,2.31,0.93,0.32,1.4,1.07,0.97,0.04,0.55,0,2,-0,0.97,4250,6,92,43,54,907,302.0,330,467,60,122.0,118,1,202,225,36,0,0,307,105,30720,302,-5.59,,,,,,,,,,,,
288103,1564151635521,8,2.32,0.92,0.32,1.41,1.07,0.95,0.07,0.54,0,3,-1,0.95,4245,6,93,43,54,908,299.0,321,466,60,124.0,118,1,202,225,36,0,0,304,25600,115,299,-5.59,,,,,,,,,,,,
288123,1564151635541,5,2.32,0.93,0.32,1.41,1.07,0.94,0.07,0.48,0,2,1,0.94,4265,6,93,43,54,908,299.0,325,457,60,123.0,118,1,204,225,36,0,0,306,25600,29440,299,-5.59,,,,,,,,,,,,
288143,1564151635561,3,2.31,0.92,0.32,1.4,1.07,0.99,0.05,0.42,1,1,1,0.99,4215,6,92,43,54,908,297.0,320,458,60,124.0,118,1,198,225,36,0,0,303,90,110,297,-5.59,44.680859,10.024661,31.13,173.7,0,0.0,-1,0.0,0.0,0,1.9,4.8024
288163,1564151635581,3,2.32,0.92,0.32,1.4,1.08,1.0,0.02,0.45,1,-1,1,1.0,4243,6,92,43,54,908,295.0,324,464,60,124.0,122,1,201,225,36,0,0,301,85,105,296,-5.59,,,,,,,,,,,,
288183,1564151635601,3,2.31,0.92,0.32,1.4,1.07,0.99,-0.0,0.5,0,-1,0,0.99,4237,6,92,43,54,910,293.0,325,468,60,122.0,122,1,201,225,36,0,0,299,80,95,293,-5.59,,,,,,,,,,,,
288203,1564151635621,6,2.31,0.92,0.32,1.4,1.07,0.97,0.01,0.51,0,1,-1,0.97,4201,6,92,43,55,912,291.0,319,467,60,123.0,122,1,196,229,36,0,0,296,0,95,291,-5.59,,,,,,,,,,,,
288223,1564151635641,5,2.31,0.93,0.32,1.4,1.07,0.95,0.06,0.46,1,1,-0,0.95,4208,6,93,43,55,914,290.0,319,458,60,124.0,122,1,197,229,36,0,0,295,0,20480,290,-5.59,,,,,,,,,,,,
288243,1564151635661,4,2.32,0.92,0.32,1.4,1.08,0.97,0.08,0.4,1,-1,1,0.97,4175,6,93,43,54,916,288.0,316,463,60,125.0,122,1,192,224,36,0,0,293,41,23040,288,-5.59,44.680855,10.024651,29.98,173.7,0,0.0,-1,0.0,0.0,0,1.9,4.804
288263,1564151635681,2,2.32,0.92,0.32,1.4,1.07,0.99,0.04,0.38,1,-1,1,0.99,4153,6,92,43,54,923,287.0,323,462,60,124.0,121,1,190,224,35,0,0,294,10686,20480,286,-5.59,,,,,,,,,,,,
288283,1564151635701,7,2.32,0.93,0.32,1.4,1.07,0.99,0.05,0.39,1,-0,-0,0.99,4136,6,92,43,55,932,285.0,316,469,60,123.0,121,1,187,228,35,0,0,292,250,20480,285,-5.59,,,,,,,,,,,,
288303,1564151635721,4,2.31,0.93,0.32,1.39,1.08,0.97,0.08,0.38,1,1,-1,0.98,4110,6,93,43,55,939,284.0,311,462,60,125.0,121,1,184,228,35,0,0,289,24064,0,284,181.28,,,,,,,,,,,,
288323,1564151635741,2,2.32,0.93,0.32,1.4,1.07,0.99,0.11,0.34,1,-0,0,1.0,4035,6,93,43,55,945,282.0,309,462,60,124.0,121,1,174,224,35,0,0,289,1886,20480,282,-5.59,,,,,,,,,,,,
288343,1564151635761,6,2.32,0.93,0.33,1.41,1.08,0.99,0.09,0.32,1,-0,1,1.0,3936,6,93,43,55,952,282.0,311,468,60,122.0,121,1,167,226,35,0,0,289,24064,0,282,-5.59,44.680851,10.024641,29.2,173.7,0,0.0,-1,0.0,0.0,0,1.9,4.8057
288363,1564151635781,4,2.31,0.93,0.32,1.4,1.07,0.98,0.11,0.31,1,1,-1,0.98,3897,6,93,43,55,960,280.0,297,463,60,125.0,117,1,165,224,33,0,0,288,-1534,0,280,414.87,,,,,,,,,,,,
288383,1564151635803,3,2.32,0.92,0.32,1.4,1.08,0.98,0.08,0.34,1,-1,0,0.98,3810,6,92,43,55,965,279.0,302,456,60,123.0,117,1,162,224,33,0,0,285,-1534,0,278,-5.59,,,,,,,,,,,,
288403,1564151635823,4,2.32,0.92,0.32,1.4,1.08,0.96,0.09,0.28,0,0,-0,0.96,3801,6,93,43,55,967,277.0,291,472,60,125.0,117,1,162,224,33,0,0,284,30208,24064,276,181.28,,,,,,,,,,,,
288423,1564151635843,3,2.32,0.93,0.32,1.4,1.07,0.97,0.09,0.3,0,-2,0,0.97,3790,6,93,43,55,967,277.0,296,455,60,124.0,117,1,161,223,33,0,0,282,250,-1529,277,-5.59,,,,,,,,,,,,
288443,1564151635863,4,2.32,0.93,0.32,1.4,1.08,0.95,0.09,0.27,0,1,-0,0.96,3758,6,93,43,56,967,275.0,287,473,60,125.0,117,1,160,227,33,0,0,280,-1527,630,275,-5.59,44.680847,10.024632,28.71,173.7,0,0.0,-1,0.0,0.0,0,1.9,4.8074
288463,1564151635883,4,2.32,0.93,0.32,1.41,1.07,0.96,0.08,0.32,0,-0,-0,0.97,3770,6,93,43,56,966,273.0,290,454,60,124.0,117,1,160,227,32,0,0,280,28160,630,273,-5.59,,,,,,,,,,,,
288483,1564151635903,4,2.32,0.92,0.32,1.41,1.08,0.96,0.07,0.31,0,2,-1,0.96,3764,6,93,43,56,964,272.0,287,472,60,125.0,117,1,160,154,32,0,0,280,250,250,272,-5.59,,,,,,,,,,,,
288503,1564151635923,2,2.32,0.92,0.32,1.4,1.08,0.95,0.06,0.34,0,-1,0,0.95,3735,6,92,43,56,962,271.0,290,454,60,124.0,117,1,159,226,32,0,0,274,-1,-1527,271,-5.59,,,,,,,,,,,,
288523,1564151635943,5,2.32,0.93,0.32,1.41,1.07,0.93,0.06,0.29,0,1,-0,0.93,3756,6,93,43,57,957,268.0,286,471,60,125.0,117,1,160,231,32,0,0,276,-1,250,267,-5.59,,,,,,,,,,,,
288543,1564151635963,4,2.33,0.92,0.32,1.4,1.07,0.93,0.06,0.33,0,-1,0,0.93,3736,6,93,43,57,953,266.0,288,455,60,124.0,117,1,159,231,32,0,0,271,-1,-1,266,-5.59,44.680847,10.024622,27.91,173.7,0,0.0,-1,0.0,0.0,0,1.9,4.8091
288563,1564151635983,4,2.32,0.93,0.32,1.41,1.07,0.9,0.07,0.3,0,2,-1,0.91,3704,6,93,43,57,950,265.0,285,469,60,125.0,120,1,158,230,32,0,0,271,-1,-1,264,-5.59,,,,,,,,,,,,
288583,1564151635995,4,2.33,0.93,0.32,1.41,1.07,0.95,0.06,0.37,1,-1,0,0.95,3709,6,92,43,57,948,264.0,287,451,60,123.0,120,1,158,230,32,0,0,267,-1,250,264,-5.59,,,,,,,,,,,,
288603,1564151636015,3,2.33,0.93,0.32,1.4,1.08,0.92,0.05,0.32,0,0,-1,0.92,3688,6,93,43,57,948,262.0,282,470,60,126.0,120,1,157,234,32,0,0,269,-1,-1,262,414.87,,,,,,,,,,,,
288623,1564151636035,7,2.33,0.93,0.32,1.4,1.07,0.93,0.02,0.38,0,-1,0,0.93,3610,6,92,43,58,948,260.0,285,453,60,123.0,120,1,154,232,32,0,0,268,-1,-1,260,-5.59,,,,,,,,,,,,
288643,1564151636055,4,2.33,0.92,0.32,1.4,1.08,0.93,0.04,0.35,0,-1,0,0.93,3584,6,93,43,58,949,259.0,277,463,60,125.0,120,1,153,231,32,0,0,265,-41,-1,259,-5.59,44.680847,10.024613,27.21,173.7,0,0.0,-1,0.0,0.0,0,1.9,4.8107
288663,1564151636075,3,2.33,0.93,0.32,1.41,1.07,0.93,0.03,0.36,0,1,-1,0.94,3592,6,93,43,59,953,259.0,281,462,60,123.0,124,1,152,236,32,0,0,263,-41,-1,258,-5.59,,,,,,,,,,,,
288683,1564151636102,3,2.33,0.93,0.32,1.4,1.07,0.96,0.02,0.38,0,-2,-0,0.96,3513,6,92,43,59,956,257.0,279,454,60,121.0,124,1,150,234,32,0,0,263,506,-1,255,-5.59,,,,,,,,,,,,
288703,1564151636122,3,2.34,0.93,0.32,1.4,1.07,0.92,0.03,0.34,0,0,-0,0.93,3474,6,93,43,60,960,255.0,272,469,60,124.0,124,1,150,238,32,0,0,261,-1281,-1,255,-5.59,,,,,,,,,,,,
288723,1564151636142,2,2.34,0.93,0.32,1.41,1.07,0.9,-0.0,0.36,0,1,-1,0.9,3497,6,93,43,60,962,253.0,273,463,60,125.0,124,1,150,238,32,0,0,257,-214,-10440,252,-5.59,,,,,,,,,,,,
288743,1564151636162,7,2.33,0.93,0.32,1.41,1.07,0.91,-0.01,0.4,0,-2,0,0.91,3465,13,92,43,61,964,251.0,275,458,60,121.0,124,1,150,243,32,0,0,254,16896,506,251,-5.59,44.680843,10.024604,26.36,173.7,0,0.0,-1,0.0,0.0,0,1.9,4.8124
288763,1564151636182,4,2.34,0.93,0.32,1.4,1.08,0.9,-0.01,0.37,0,-1,0,0.9,3367,18,93,43,63,966,249.0,269,468,60,125.0,124,1,158,248,31,0,0,254,16896,-1281,249,-5.59,,,,,,,,,,,,
288783,1564151636202,4,2.33,0.93,0.32,1.4,1.08,0.87,-0.01,0.35,0,2,-0,0.87,3317,24,93,43,67,969,249.0,264,465,60,125.0,124,1,175,259,31,0,0,253,-1494,14337,249,181.28,,,,,,,,,,,,
288803,1564151636222,5,2.34,0.93,0.32,1.41,1.07,0.92,-0.01,0.36,1,1,-0,0.92,3422,31,93,43,71,969,247.0,267,458,60,122.0,124,1,180,267,31,0,0,252,15360,-1,247,-5.59,,,,,,,,,,,,
288823,1564151636242,4,2.33,0.92,0.32,1.4,1.07,0.92,0.02,0.38,1,-3,-0,0.92,3446,42,93,43,77,971,246.0,267,457,60,123.0,124,1,180,284,31,0,0,251,250,-214,246,-5.59,,,,,,,,,,,,
288843,1564151636262,4,2.33,0.92,0.32,1.41,1.07,0.92,0.02,0.37,1,1,-1,0.92,3479,49,93,43,83,973,244.0,265,477,60,124.0,124,1,180,327,31,0,0,249,-1445,-214,244,-5.59,44.680843,10.024595,25.61,173.7,0,0.0,-1,0.0,0.0,0,1.9,4.8141
288863,1564151636282,4,2.33,0.93,0.32,1.4,1.08,0.9,-0.0,0.37,1,1,-1,0.9,3476,54,93,43,88,975,242.0,268,466,60,125.0,176,1,180,332,43,0,0,246,23482,250,242,-5.59,,,,,,,,,,,,
288883,1564151636302,7,2.33,0.93,0.32,1.4,1.07,0.92,0.0,0.39,1,-2,-0,0.92,3368,58,93,43,91,976,241.0,271,452,60,122.0,176,1,187,368,43,0,0,246,-1484,10812,241,-5.59,,,,,,,,,,,,
288903,1564151636322,4,2.33,0.93,0.32,1.41,1.08,0.93,0.02,0.4,1,-3,0,0.93,3278,61,93,43,93,979,238.0,262,472,60,124.0,176,1,202,440,43,0,0,243,13468,-17920,238,-5.59,,,,,,,,,,,,
288923,1564151636342,4,2.33,0.92,0.32,1.41,1.07,0.89,0.05,0.36,1,-1,0,0.89,3205,61,93,43,94,983,238.0,257,475,60,126.0,176,1,210,474,43,0,0,242,250,-17920,238,181.28,,,,,,,,,,,,
288943,1564151636362,3,2.34,0.93,0.32,1.41,1.08,0.88,0.06,0.36,1,3,-1,0.88,3139,61,93,43,95,988,237.0,251,473,60,124.0,176,1,217,509,43,0,0,240,-1483,250,237,-5.59,44.68084,10.024587,24.81,173.7,0,0.0,-1,0.0,0.0,0,1.9,4.8157
288963,1564151636382,2,2.35,0.93,0.32,1.4,1.08,0.89,0.06,0.33,1,4,-1,0.89,3098,61,93,44,95,993,234.0,247,471,60,125.0,255,1,217,500,60,0,0,239,8704,-25600,234,181.28,,,,,,,,,,,,
288983,1564151636402,4,2.34,0.93,0.32,1.41,1.07,0.89,0.06,0.34,1,6,-1,0.9,3123,61,93,44,95,997,234.0,247,463,60,125.0,255,1,217,502,60,0,0,235,-1494,13468,234,181.28,,,,,,,,,,,,
289003,1564151636422,4,2.34,0.93,0.32,1.4,1.08,0.91,0.07,0.37,0,5,-0,0.91,3191,61,93,44,94,1012,232.0,247,458,60,124.0,255,1,210,508,60,0,0,235,18432,250,231,-5.59,,,,,,,,,,,,
289023,1564151636442,6,2.35,0.93,0.32,1.41,1.07,0.94,0.06,0.43,1,3,0,0.94,3280,56,93,44,94,1035,231.0,256,455,60,122.0,255,1,210,476,60,0,0,233,250,250,231,-5.59,,,,,,,,,,,,
289043,1564151636462,4,2.34,0.93,0.32,1.41,1.07,0.94,0.04,0.43,1,1,0,0.94,3447,41,93,44,92,1052,229.0,257,466,60,123.0,255,1,195,448,60,0,0,232,-1496,13602,229,-5.59,44.680836,10.024578,24.06,173.7,0,0.0,-1,0.0,0.0,0,1.9,4.8174
289063,1564151636482,3,2.35,0.92,0.32,1.41,1.07,0.94,0.06,0.39,1,3,-1,0.94,3591,28,93,44,90,1063,227.0,262,479,60,125.0,220,1,184,349,50,0,0,230,-1530,8704,227,181.28,,,,,,,,,,,,
289083,1564151636502,7,2.35,0.92,0.32,1.4,1.07,0.95,0.04,0.45,1,0,0,0.95,3736,22,93,44,86,1145,225.0,278,449,60,122.0,220,1,189,361,50,0,0,228,1596,-1494,225,-5.59,,,,,,,,,,,,
289103,1564151636522,2,2.34,0.93,0.32,1.4,1.08,0.93,0.02,0.41,1,2,-1,0.93,3812,22,93,44,84,1203,223.0,279,469,60,125.0,220,1,191,365,50,0,0,226,250,-1496,223,181.28,,,,,,,,,,,,
289123,1564151636542,2,2.35,0.93,0.32,1.41,1.07,0.93,-0.01,0.44,1,-1,1,0.93,3867,22,93,44,82,1289,221.0,286,451,60,122.0,220,1,192,358,50,0,0,223,-1532,-1496,221,-5.59,,,,,,,,,,,,
289143,1564151636562,7,2.35,0.92,0.32,1.4,1.08,0.94,-0.01,0.43,1,0,0,0.94,4037,21,93,44,80,1353,221.0,295,474,60,124.0,220,1,198,348,50,0,0,222,-17920,250,221,-5.59,44.680836,10.02457,23.26,173.6,0,0.0,-1,0.0,0.0,0,1.9,4.819
289163,1564151636582,4,2.35,0.93,0.32,1.41,1.07,0.92,0.01,0.43,1,1,0,0.92,4146,21,93,44,79,1417,219.0,298,469,60,125.0,239,1,207,346,53,0,0,220,-17920,250,219,181.28,,,,,,,,,,,,
289183,1564151636602,4,2.35,0.93,0.32,1.41,1.07,0.93,0.0,0.39,1,-0,1,0.93,4204,22,93,44,78,1480,217.0,303,461,60,125.0,239,1,211,338,53,0,0,219,250,1596,217,181.28,,,,,,,,,,,,
289203,1564151636622,3,2.35,0.93,0.32,1.4,1.07,0.94,-0.02,0.39,1,-1,1,0.94,4327,22,93,44,78,1498,215.0,315,454,60,124.0,239,1,221,343,53,0,0,219,16384,-1532,215,-5.59,,,,,,,,,,,,
289223,1564151636642,4,2.35,0.93,0.31,1.41,1.07,0.95,-0.0,0.37,1,-0,1,0.95,4486,21,93,44,77,1498,215.0,325,456,60,123.0,239,1,233,337,53,0,0,217,-1533,250,215,-5.59,,,,,,,,,,,,
289243,1564151636662,3,2.35,0.93,0.32,1.4,1.07,0.96,-0.01,0.39,1,-0,1,0.96,4637,21,93,44,77,1490,212.0,333,457,60,124.0,239,1,245,331,53,0,0,214,966,-1532,212,-5.59,44.680832,10.024564,22.77,173.6,0,0.0,-1,0.0,0.0,0,1.9,4.8207
289263,1564151636682,5,2.34,0.92,0.32,1.41,1.07,0.98,-0.03,0.38,1,-1,1,0.98,4752,17,93,44,76,1478,210.0,339,462,60,124.0,289,1,254,336,61,0,0,213,250,1088,210,-5.59,,,,,,,,,,,,
289283,1564151636703,7,2.34,0.93,0.32,1.41,1.07,0.93,-0.04,0.33,1,0,1,0.94,4912,12,93,44,75,1466,209.0,360,468,60,124.0,289,1,266,337,61,0,0,210,13964,250,209,-5.59,,,,,,,,,,,,
289303,1564151636723,4,2.35,0.92,0.32,1.41,1.07,0.96,-0.05,0.41,1,-0,1,0.96,5044,8,92,44,73,1454,207.0,371,462,60,122.0,289,1,277,332,61,0,0,210,-29696,250,207,-5.59,,,,,,,,,,,,
289323,1564151636743,5,2.35,0.93,0.32,1.4,1.08,0.98,-0.05,0.35,1,-2,1,0.98,5152,6,93,44,71,1421,207.0,374,466,60,124.0,289,1,286,319,61,0,0,208,250,-1533,207,-5.59,,,,,,,,,,,,
289343,1564151636763,0,2.36,0.93,0.31,1.4,1.08,0.85,-0.08,0.36,1,1,1,0.86,5275,6,93,44,68,1387,205.0,392,467,60,125.0,289,1,297,306,61,0,0,207,13874,250,205,-5.59,44.680832,10.024556,21.29,173.7,0,0.0,-1,0.0,0.0,0,1.9,4.8224
289363,1564151636783,1,2.35,0.93,0.32,1.41,1.07,0.95,-0.08,0.34,1,-1,1,0.95,5224,6,93,44,65,1345,205.0,392,467,60,124.0,287,1,294,284,59,0,0,206,12800,966,204,181.28,,,,,,,,,,,,
289383,1564151636804,-1,2.36,0.93,0.32,1.41,1.07,0.86,-0.13,0.36,1,0,1,0.87,5068,6,93,44,63,1304,203.0,390,462,60,124.0,287,1,279,279,59,0,0,205,250,250,203,181.28,,,,,,,,,,,,
289403,1564151636824,-1,2.36,0.93,0.32,1.41,1.07,0.89,-0.06,0.43,1,-0,1,0.89,4931,6,93,44,62,1270,202.0,387,463,60,123.0,287,1,265,266,59,0,0,203,-1480,13964,202,181.28,,,,,,,,,,,,
289423,1564151636844,0,2.36,0.93,0.32,1.4,1.08,0.92,-0.08,0.4,1,-0,1,0.93,4820,6,93,44,61,1186,202.0,371,464,60,123.0,287,1,254,259,59,0,0,203,-1480,-29696,202,181.28,,,,,,,,,,,,
289443,1564151636864,3,2.36,0.93,0.31,1.41,1.07,0.92,-0.1,0.41,1,0,1,0.92,4678,6,93,44,61,1133,201.0,356,463,60,122.0,287,1,240,425,59,0,0,203,-1480,13964,201,-5.59,44.680828,10.024549,20.78,173.6,0,0.0,-1,0.0,0.0,0,1.91,4.824
289463,1564151636884,1,2.36,0.93,0.32,1.4,1.07,0.91,-0.12,0.37,1,1,2,0.91,4572,6,93,44,61,1098,201.0,353,468,60,123.0,348,1,230,387,70,0,0,203,-1480,-29696,201,-5.59,,,,,,,,,,,,
289483,1564151636902,1,2.36,0.92,0.32,1.4,1.08,0.9,-0.1,0.34,1,1,3,0.9,4555,6,93,44,60,1055,200.0,341,470,60,123.0,348,1,230,344,70,0,0,203,14412,-1482,200,-5.59,,,,,,,,,,,,
289503,1564151636922,3,2.36,0.93,0.32,1.41,1.08,0.84,-0.09,0.31,1,2,3,0.84,4703,6,93,44,60,1015,200.0,353,467,60,124.0,348,1,246,183,70,0,0,203,14412,250,200,-5.59,,,,,,,,,,,,
289523,1564151636942,-0,2.36,0.93,0.32,1.4,1.08,0.78,-0.1,0.32,2,2,3,0.79,4638,6,93,44,59,964,200.0,348,463,60,122.0,348,1,240,278,70,0,0,200,250,13874,200,-5.59,,,,,,,,,,,,
289543,1564151636962,0,2.35,0.92,0.32,1.41,1.07,0.73,-0.05,0.34,2,1,4,0.74,4584,6,93,44,59,946,199.0,352,468,60,122.0,348,1,236,248,70,0,0,199,250,250,198,-5.59,44.680828,10.024543,20.18,173.7,0,0.0,-1,0.0,0.0,0,1.91,4.8257
289563,1564151636982,-0,2.36,0.93,0.32,1.4,1.07,0.81,-0.01,0.4,2,2,3,0.81,4611,6,93,44,58,928,197.0,349,466,60,123.0,212,1,241,174,42,0,0,199,14326,250,197,-5.59,,,,,,,,,,,,
289583,1564151636996,-2,2.36,0.93,0.31,1.4,1.07,0.84,0.03,0.47,2,1,2,0.84,4512,6,93,44,58,960,198.0,352,465,60,121.0,212,1,230,244,42,0,0,199,-2560,-1482,198,-5.59,,,,,,,,,,,,
289603,1564151637016,-0,2.36,0.93,0.32,1.4,1.07,0.85,0.02,0.56,2,-0,2,0.85,4565,6,93,44,58,992,197.0,347,466,60,120.0,212,1,236,173,42,0,0,200,-1481,12800,197,-5.59,,,,,,,,,,,,
289623,1564151637036,-2,2.37,0.93,0.32,1.4,1.08,0.87,0.0,0.63,2,-1,2,0.87,4512,6,93,44,58,1042,197.0,346,470,60,122.0,212,1,230,173,42,0,0,199,14326,13874,197,-5.59,,,,,,,,,,,,
289643,1564151637056,-0,2.36,0.93,0.32,1.4,1.07,0.89,0.01,0.67,2,-0,0,0.89,4443,6,93,43,57,1106,196.0,343,465,60,122.0,212,1,224,241,42,0,0,198,-2560,12800,196,-5.59,44.680824,10.024535,19.97,173.7,0,0.0,-1,0.0,0.0,0,1.91,4.8274
289663,1564151637076,-1,2.36,0.92,0.32,1.4,1.07,0.87,0.04,0.76,2,-1,0,0.87,4469,6,93,43,57,1161,196.0,344,462,60,122.0,204,1,227,241,40,0,0,200,250,13874,196,-5.59,,,,,,,,,,,,
289683,1564151637103,-1,2.37,0.93,0.32,1.4,1.08,0.88,0.03,0.81,2,-2,-0,0.88,4410,6,93,43,56,1217,197.0,340,467,60,120.0,204,1,221,241,40,0,0,198,14326,13874,197,-5.59,,,,,,,,,,,,
289703,1564151637123,0,2.37,0.93,0.32,1.41,1.08,0.87,0.06,0.82,2,-2,-0,0.87,4390,6,93,43,56,1224,196.0,338,473,60,121.0,204,1,219,235,40,0,0,197,250,13874,196,-5.59,,,,,,,,,,,,
289723,1564151637143,3,2.37,0.93,0.32,1.4,1.08,0.87,0.06,0.79,2,-0,-1,0.87,4403,6,93,43,56,1221,195.0,333,470,60,123.0,204,1,220,235,40,0,0,197,250,-1480,195,-5.59,,,,,,,,,,,,
289743,1564151637163,2,2.37,0.93,0.32,1.4,1.07,0.82,0.05,0.75,2,1,-0,0.82,4345,6,93,43,56,1189,195.0,335,462,60,123.0,204,1,213,235,40,0,0,196,250,250,195,181.28,44.680824,10.024529,19.77,173.7,0,0.0,-1,0.0,0.0,0,1.91,4.8291
289763,1564151637183,2,2.38,0.92,0.32,1.41,1.08,0.81,0.06,0.68,2,1,1,0.81,4351,6,93,43,56,1146,195.0,328,456,60,123.0,194,1,214,235,38,0,0,196,250,-1480,195,181.28,,,,,,,,,,,,
289783,1564151637201,0,2.38,0.93,0.32,1.41,1.07,0.8,0.04,0.62,2,1,2,0.8,4350,6,93,43,56,1086,194.0,331,460,60,124.0,194,1,213,235,38,0,0,196,-1281,-1480,194,181.28,,,,,,,,,,,,
289803,1564151637221,-0,2.38,0.93,0.32,1.41,1.08,0.83,0.01,0.57,2,-0,2,0.83,4274,6,93,43,55,1049,195.0,330,460,60,124.0,194,1,205,229,38,0,0,195,-1,14412,195,-5.59,,,,,,,,,,,,
289823,1564151637241,0,2.38,0.93,0.32,1.4,1.07,0.84,-0.01,0.57,2,-1,3,0.84,4305,6,93,43,55,993,194.0,328,466,60,123.0,194,1,209,230,38,0,0,193,-1,19456,194,-5.59,,,,,,,,,,,,
289843,1564151637261,-0,2.38,0.93,0.32,1.41,1.07,0.85,-0.01,0.59,2,-1,2,0.85,4239,6,93,43,55,934,194.0,330,468,60,122.0,194,1,201,229,38,0,0,193,-1,19456,194,-5.59,44.680824,10.024523,19.35,173.7,0,0.0,-1,0.0,0.0,0,1.91,4.8307
289863,1564151637281,2,2.38,0.93,0.32,1.4,1.07,0.87,0.01,0.63,2,0,2,0.87,4243,6,93,43,55,906,193.0,325,471,60,121.0,185,1,201,229,36,0,0,192,-1,-1481,193,-5.59,,,,,,,,,,,,
289883,1564151637301,1,2.37,0.93,0.32,1.4,1.08,0.83,0.04,0.69,3,1,2,0.83,4301,6,93,43,55,898,192.0,326,465,60,123.0,185,1,209,157,36,0,0,192,-1,250,192,-5.59,,,,,,,,,,,,
289903,1564151637321,-1,2.37,0.92,0.32,1.4,1.08,0.8,0.04,0.65,3,2,2,0.81,4244,6,93,43,55,888,192.0,319,459,60,124.0,185,1,201,229,36,0,0,192,-1,250,192,181.28,,,,,,,,,,,,
289923,1564151637341,-2,2.37,0.93,0.32,1.41,1.07,0.82,0.05,0.58,3,2,3,0.82,4238,6,93,43,55,879,191.0,325,460,60,123.0,185,1,201,229,36,0,0,191,-1,19456,191,-5.59,,,,,,,,,,,,
289943,1564151637361,-1,2.37,0.93,0.31,1.4,1.07,0.86,0.02,0.54,3,0,4,0.87,4265,6,93,43,55,875,190.0,322,460,60,124.0,185,1,204,229,36,0,0,190,-1,-2560,190,-5.59,44.680824,10.024516,19.48,173.7,0,0.0,-1,0.0,0.0,0,1.91,4.8324
289963,1564151637381,-1,2.37,0.93,0.32,1.4,1.08,0.86,0.0,0.57,3,-1,4,0.86,4244,6,93,43,55,876,190.0,328,468,60,121.0,194,1,201,229,37,0,0,190,-1,-1481,190,-5.59,,,,,,,,,,,,
289983,1564151637401,-0,2.36,0.93,0.32,1.4,1.07,0.85,0.01,0.61,3,-1,3,0.85,4264,6,93,43,55,878,190.0,326,473,60,122.0,194,1,204,229,37,0,0,190,-1,14326,189,-5.59,,,,,,,,,,,,
290003,1564151637421,3,2.37,0.93,0.32,1.4,1.07,0.84,0.04,0.63,3,1,3,0.84,4250,6,93,43,55,881,189.0,323,471,60,122.0,194,1,203,229,37,0,0,189,-1,250,189,-5.59,,,,,,,,,,,,
290023,1564151637441,1,2.39,0.92,0.31,1.4,1.07,0.81,0.05,0.59,3,2,3,0.81,4217,6,93,43,55,883,189.0,322,461,60,124.0,194,1,198,229,37,0,0,189,-1,-2560,188,181.28,,,,,,,,,,,,
290043,1564151637461,-1,2.39,0.93,0.32,1.4,1.07,0.83,0.02,0.54,3,0,4,0.83,4218,6,93,43,55,885,189.0,317,459,60,124.0,194,1,198,229,37,0,0,189,-1,250,189,-5.59,44.680824,10.024508,19.03,173.7,0,0.0,-1,0.0,0.0,0,1.91,4.8341
290063,1564151637481,-1,2.39,0.91,0.31,1.41,1.07,0.83,-0.01,0.53,3,-1,4,0.83,4167,6,93,43,55,889,188.0,323,465,60,124.0,191,1,191,155,36,0,0,189,-1,250,188,-5.59,,,,,,,,,,,,
290083,1564151637503,1,2.41,0.93,0.32,1.4,1.08,0.84,-0.02,0.59,3,0,3,0.84,4152,6,93,43,55,899,188.0,321,467,60,121.0,191,1,189,228,36,0,0,189,-1,-1281,188,-5.59,,,,,,,,,,,,
290103,1564151637523,2,2.41,0.93,0.31,1.4,1.07,0.82,-0.02,0.58,3,1,3,0.82,4167,6,93,43,55,906,189.0,317,470,60,122.0,191,1,191,228,36,0,0,187,-1,-1,189,-5.59,,,,,,,,,,,,
290123,1564151637543,-0,2.43,0.93,0.32,1.4,1.08,0.81,-0.03,0.55,3,0,4,0.81,4128,6,93,43,55,910,188.0,317,461,60,124.0,191,1,186,228,36,0,0,186,-1,250,188,181.28,,,,,,,,,,,,
290143,1564151637563,-1,2.46,0.93,0.32,1.41,1.07,0.82,-0.04,0.54,4,-1,5,0.83,4124,6,93,43,54,918,188.0,317,461,60,123.0,191,1,186,151,36,0,0,184,-1,250,188,-5.59,44.68082,10.024503,18.8,173.7,0,0.0,-1,0.0,0.0,0,1.91,4.8357
290163,1564151637583,-1,2.49,0.92,0.31,1.4,1.07,0.84,-0.05,0.56,4,-1,5,0.84,4144,6,93,43,55,927,189.0,317,470,60,122.0,186,1,188,228,35,0,0,185,-1,-1281,189,-5.59,,,,,,,,,,,,
290183,1564151637601,3,2.52,0.93,0.32,1.41,1.07,0.82,-0.03,0.55,5,1,5,0.82,4092,6,93,43,55,935,188.0,315,465,60,123.0,186,1,182,228,35,0,0,182,-236,-1281,188,-5.59,,,,,,,,,,,,
290203,1564151637621,-2,2.54,0.93,0.32,1.4,1.07,0.81,-0.05,0.52,6,-0,6,0.81,4078,6,93,43,55,937,189.0,310,460,60,123.0,186,1,180,155,35,0,0,182,5134,250,189,-5.59,,,,,,,,,,,,
290223,1564151637641,-1,2.58,0.93,0.31,1.4,1.08,0.82,-0.1,0.51,7,-1,7,0.83,4119,6,93,43,54,940,190.0,315,464,60,123.0,186,1,185,224,35,0,0,180,250,14326,190,-5.59,,,,,,,,,,,,
290243,1564151637661,3,2.6,0.93,0.32,1.4,1.07,0.81,-0.12,0.51,8,-0,7,0.82,4022,6,93,43,55,941,191.0,314,472,60,123.0,186,1,172,155,35,0,0,179,-1495,14326,191,-5.59,44.68082,10.024497,18.45,173.7,0,0.0,-1,0.0,0.0,0,1.91,4.8374
290263,1564151637681,-2,2.62,0.93,0.32,1.4,1.07,0.76,-0.1,0.55,8,2,8,0.76,4033,6,93,43,55,940,192.0,305,467,60,123.0,178,1,174,228,34,0,0,176,31744,-1481,192,414.87,,,,,,,,,,,,
290283,1564151637701,0,2.65,0.93,0.32,1.4,1.07,0.78,-0.13,0.55,10,1,11,0.79,4089,6,93,43,55,939,192.0,312,458,60,123.0,178,1,181,228,34,0,0,174,250,250,192,-5.59,,,,,,,,,,,,
290303,1564151637721,2,2.67,0.93,0.32,1.41,1.07,0.82,-0.18,0.54,11,1,13,0.84,4007,6,93,43,55,936,193.0,312,471,60,123.0,178,1,170,228,34,0,0,174,-1,-1481,193,-5.59,,,,,,,,,,,,
290323,1564151637741,0,2.7,0.94,0.32,1.41,1.07,0.76,-0.19,0.55,12,3,13,0.79,3994,6,93,43,55,931,194.0,303,464,60,122.0,178,1,169,227,34,0,0,171,-1,250,194,181.28,,,,,,,,,,,,
290343,1564151637761,-1,2.71,0.93,0.32,1.4,1.07,0.79,-0.21,0.57,13,3,15,0.82,4021,6,93,43,55,925,195.0,303,456,60,122.0,178,1,172,228,34,0,0,171,-1,-1481,195,-5.59,44.68082,10.02449,18.41,173.7,0,0.0,-1,0.0,0.0,0,1.91,4.839
290363,1564151637781,2,2.75,0.93,0.32,1.4,1.08,0.83,-0.26,0.56,14,1,18,0.87,3977,6,93,43,55,923,195.0,310,467,60,123.0,174,1,169,227,34,0,0,170,-253,-1481,195,-5.59,,,,,,,,,,,,
290383,1564151637801,0,2.76,0.93,0.32,1.41,1.07,0.78,-0.28,0.57,14,3,17,0.82,3936,6,93,43,55,920,195.0,298,464,60,123.0,174,1,167,226,34,0,0,168,-253,-1481,195,181.28,,,,,,,,,,,,
290403,1564151637821,-1,2.77,0.94,0.31,1.41,1.07,0.82,-0.29,0.56,16,3,20,0.87,3982,6,93,43,55,919,195.0,303,457,60,123.0,174,1,169,154,34,0,0,165,888,250,196,-5.59,,,,,,,,,,,,
290423,1564151637841,3,2.79,0.93,0.32,1.4,1.07,0.81,-0.31,0.55,17,1,22,0.87,3932,6,93,43,55,917,196.0,305,470,60,124.0,174,1,167,226,34,0,0,165,30720,14326,196,-5.59,,,,,,,,,,,,
290443,1564151637861,-2,2.8,0.93,0.32,1.4,1.08,0.76,-0.31,0.56,17,3,22,0.82,3885,6,93,43,55,920,196.0,297,468,60,124.0,174,1,165,224,34,0,0,165,250,-1481,196,181.28,44.680817,10.024484,18.33,173.7,0,0.0,-1,0.0,0.0,0,1.91,4.8407
290463,1564151637881,-1,2.82,0.93,0.32,1.41,1.07,0.83,-0.34,0.55,19,1,24,0.89,3944,6,93,43,55,922,195.0,301,456,60,123.0,168,1,167,226,33,0,0,163,-1494,14326,195,-5.59,,,,,,,,,,,,
290483,1564151637903,-0,2.85,0.93,0.32,1.41,1.07,0.79,-0.37,0.54,20,1,26,0.87,3938,6,93,43,55,924,196.0,301,470,60,124.0,168,1,167,153,33,0,0,162,-1494,-1481,197,-5.59,,,,,,,,,,,,
290503,1564151637923,0,2.86,0.93,0.31,1.41,1.07,0.8,-0.38,0.51,21,2,26,0.89,3873,6,93,43,55,928,197.0,296,461,60,123.0,168,1,164,224,33,0,0,161,3072,19456,197,-5.59,,,,,,,,,,,,
290523,1564151637943,2,2.88,0.93,0.31,1.41,1.07,0.84,-0.4,0.52,23,-0,29,0.93,3924,6,93,43,55,929,199.0,302,465,60,123.0,168,1,166,225,33,0,0,160,3072,19456,199,-5.59,,,,,,,,,,,,
290543,1564151637963,-1,2.89,0.93,0.32,1.4,1.07,0.82,-0.41,0.51,23,2,29,0.91,3930,6,93,43,55,930,198.0,298,467,60,123.0,168,1,167,225,33,0,0,159,3072,19456,198,181.28,44.680817,10.024478,18.1,173.7,0,0.0,-1,0.0,0.0,0,1.91,4.8424
290563,1564151637983,-0,2.9,0.93,0.32,1.41,1.07,0.88,-0.42,0.47,25,1,31,0.97,3854,6,93,43,55,931,198.0,298,456,60,123.0,165,1,164,224,33,0,0,157,-1281,19456,198,-5.59,,,,,,,,,,,,
290583,1564151637995,1,2.91,0.93,0.32,1.41,1.07,0.84,-0.44,0.47,25,0,32,0.95,3861,6,93,43,55,932,198.0,297,472,60,124.0,165,1,164,224,33,0,0,156,-1281,250,198,-5.59,,,,,,,,,,,,
290603,1564151638015,0,2.92,0.93,0.32,1.41,1.08,0.87,-0.42,0.47,26,2,32,0.97,3889,6,93,43,55,932,199.0,297,457,60,124.0,165,1,165,224,33,0,0,156,-1,-1481,199,-5.59,,,,,,,,,,,,
290623,1564151638035,2,2.93,0.93,0.32,1.41,1.08,0.86,-0.44,0.49,27,-1,34,0.97,3844,6,93,43,55,931,198.0,300,466,60,123.0,165,1,163,224,33,0,0,154,-1,-1481,198,-5.59,,,,,,,,,,,,
290643,1564151638055,-1,2.94,0.93,0.32,1.41,1.08,0.83,-0.45,0.48,27,2,33,0.94,3828,6,93,43,55,930,199.0,295,458,60,124.0,165,1,163,224,33,0,0,154,-1,-1481,199,-5.59,44.680817,10.024471,17.64,173.7,0,0.0,-1,0.0,0.0,0,1.91,4.844
290663,1564151638075,3,2.93,0.93,0.32,1.41,1.08,0.87,-0.46,0.47,29,-1,37,0.98,3846,6,93,43,55,929,199.0,298,462,60,122.0,160,1,163,224,32,0,0,152,-1,14326,199,-5.59,,,,,,,,,,,,
290683,1564151638102,-2,2.95,0.93,0.32,1.41,1.07,0.84,-0.44,0.48,28,1,36,0.95,3849,6,93,43,55,927,198.0,293,465,60,125.0,160,1,163,224,32,0,0,152,-1,14326,198,181.28,,,,,,,,,,,,
290703,1564151638122,-0,2.94,0.93,0.32,1.4,1.07,0.88,-0.46,0.47,30,-1,38,0.99,3801,6,93,43,55,926,198.0,298,462,60,123.0,160,1,162,150,32,0,0,151,-165,14326,198,-5.59,,,,,,,,,,,,
290723,1564151638142,-1,2.96,0.94,0.31,1.41,1.07,0.8,-0.46,0.48,30,1,37,0.93,3784,6,93,43,56,924,197.0,289,470,60,125.0,160,1,161,227,32,0,0,150,23460,250,197,414.87,,,,,,,,,,,,
290743,1564151638162,-1,2.97,0.93,0.32,1.41,1.07,0.87,-0.48,0.48,31,0,38,0.99,3799,6,93,43,56,922,197.0,295,455,60,123.0,160,1,161,227,32,0,0,150,-165,-1,197,-5.59,44.680817,10.024466,17.72,173.7,0,0.0,-1,0.0,0.0,0,1.91,4.8457
290763,1564151638182,-0,2.98,0.93,0.31,1.41,1.08,0.81,-0.5,0.48,31,0,39,0.95,3778,6,93,43,56,922,197.0,291,473,60,125.0,163,1,161,227,32,0,0,149,-165,-1281,197,181.28,,,,,,,,,,,,
290783,1564151638202,-2,2.99,0.93,0.31,1.4,1.08,0.87,-0.5,0.47,32,-0,40,1.01,3765,6,93,43,56,922,197.0,293,458,60,122.0,163,1,160,227,32,0,0,148,23460,250,197,-5.59,,,,,,,,,,,,
290803,1564151638222,-1,0.32,0.91,0.31,1.39,1.06,0.83,-0.51,0.47,32,-0,41,0.97,3755,6,93,43,57,923,198.0,288,471,60,125.0,163,1,160,231,32,0,0,147,23460,250,198,181.28,,,,,,,,,,,,
290823,1564151638242,-1,0.33,0.9,0.31,1.39,1.05,0.88,-0.48,0.44,33,-1,42,1.0,3727,6,93,43,56,925,198.0,290,455,60,124.0,163,1,159,230,32,0,0,146,-23552,-1,198,-5.59,,,,,,,,,,,,
290843,1564151638262,-1,0.34,0.91,0.31,1.39,1.05,0.83,-0.5,0.45,33,-0,42,0.97,3720,6,93,43,57,927,197.0,286,470,60,125.0,163,1,159,230,32,0,0,147,-23552,-2560,197,414.87,44.68082,10.024459,17.64,173.7,0,0.0,-1,0.0,0.0,0,1.91,4.8474
290863,1564151638282,-0,0.34,0.91,0.31,1.39,1.06,0.93,-0.45,0.43,34,-2,43,1.03,3682,6,93,43,57,929,197.0,288,453,60,123.0,162,1,157,229,32,0,0,145,250,250,195,-5.59,,,,,,,,,,,,
290883,1564151638304,-1,0.35,0.91,0.31,1.39,1.06,0.87,-0.49,0.48,34,-0,42,1.0,3681,6,93,43,57,931,197.0,282,474,60,126.0,162,1,157,229,32,0,0,144,250,-1,197,181.28,,,,,,,,,,,,
290903,1564151638324,1,0.36,0.91,0.31,1.38,1.06,0.92,-0.49,0.47,36,-2,44,1.05,3676,6,93,43,58,933,197.0,289,456,60,122.0,162,1,157,234,32,0,0,143,-1281,-1281,197,-5.59,,,,,,,,,,,,
290923,1564151638344,-0,0.36,0.91,0.31,1.39,1.06,0.88,-0.48,0.45,35,1,43,1.0,3633,6,93,43,58,934,197.0,282,464,60,124.0,162,1,155,232,32,0,0,143,-1,-1,197,-5.59,,,,,,,,,,,,
290943,1564151638364,1,0.37,0.91,0.31,1.39,1.05,0.9,-0.48,0.47,36,-2,46,1.02,3584,6,93,43,58,935,196.0,281,466,60,125.0,162,1,153,231,32,0,0,142,-1,-1,196,-5.59,44.68082,10.024453,17.48,173.7,0,0.0,-1,0.0,0.0,0,1.91,4.849
290963,1564151638384,-0,0.36,0.91,0.31,1.39,1.05,0.95,-0.47,0.42,36,-1,45,1.06,3549,6,93,43,59,936,196.0,281,458,60,125.0,163,1,151,235,32,0,0,141,-1,-1,196,-5.59,,,,,,,,,,,,
290983,1564151638404,-0,0.37,0.9,0.31,1.39,1.05,0.88,-0.49,0.47,36,-0,45,1.01,3511,6,93,43,59,938,195.0,272,471,60,125.0,163,1,150,234,32,0,0,140,-1,-1,195,-5.59,,,,,,,,,,,,
291003,1564151638424,1,0.37,0.9,0.31,1.38,1.05,0.9,-0.49,0.47,37,-2,47,1.02,3483,6,93,43,60,940,195.0,281,460,60,123.0,163,1,150,238,32,0,0,140,-1,-1,195,-5.59,,,,,,,,,,,,
291023,1564151638444,-1,0.37,0.9,0.31,1.39,1.06,0.95,-0.48,0.43,37,-2,47,1.06,3432,6,93,43,60,943,194.0,272,461,60,122.0,163,1,0,238,32,0,0,139,-1,-1,194,-5.59,,,,,,,,,,,,
291043,1564151638464,-0,0.37,0.9,0.31,1.39,1.05,0.9,-0.49,0.43,37,-0,46,1.02,3414,6,93,43,61,945,194.0,271,471,60,123.0,163,1,0,243,32,0,0,139,-1,-1,194,-5.59,44.680824,10.024448,16.99,173.7,0,0.0,-1,0.0,0.0,0,1.91,4.8507
291063,1564151638484,-0,0.37,0.9,0.31,1.39,1.05,0.87,-0.5,0.46,37,-0,47,1.0,3330,6,93,43,62,948,192.0,263,464,60,124.0,159,1,0,245,31,0,0,139,-1,-1,192,181.28,,,,,,,,,,,,
291083,1564151638502,-0,0.37,0.9,0.31,1.39,1.06,0.9,-0.5,0.47,38,-2,48,1.03,3224,6,93,43,62,951,192.0,263,457,60,125.0,159,1,0,245,31,0,0,138,-1,-1,192,-5.59,,,,,,,,,,,,
291103,1564151638522,-2,0.38,0.9,0.31,1.38,1.06,0.93,-0.48,0.44,38,-2,50,1.04,3095,6,93,43,64,951,192.0,256,458,60,122.0,159,1,0,250,31,0,0,138,-1,-1,192,-5.59,,,,,,,,,,,,
291123,1564151638542,-0,0.38,0.9,0.31,1.38,1.06,0.96,-0.49,0.4,38,-3,50,1.08,3011,6,93,43,64,953,191.0,253,456,60,122.0,159,1,162,250,31,0,0,137,-1,-1,191,-5.59,,,,,,,,,,,,
291143,1564151638562,-0,0.38,0.9,0.31,1.38,1.05,0.99,-0.49,0.39,38,-3,51,1.11,2916,6,93,43,65,956,191.0,248,456,60,122.0,159,1,164,253,31,0,0,136,-1,-1,191,-5.59,44.680824,10.024443,16.81,173.7,0,0.0,-1,0.0,0.0,0,1.91,4.8524
291163,1564151638582,-0,0.38,0.9,0.31,1.39,1.05,1.01,-0.5,0.38,38,-3,51,1.13,2877,6,93,43,66,958,190.0,241,459,60,123.0,141,1,0,256,27,0,0,137,-1,-1,190,-5.59,,,,,,,,,,,,
291183,1564151638602,0,0.37,0.9,0.31,1.39,1.05,0.98,-0.49,0.41,38,-2,52,1.1,2799,6,93,43,67,961,189.0,236,458,60,124.0,141,1,168,259,27,0,0,134,-1,-1,189,414.87,,,,,,,,,,,,
291203,1564151638622,3,0.38,0.9,0.31,1.38,1.05,0.95,-0.45,0.48,38,-1,52,1.05,2707,6,93,43,68,964,189.0,232,466,60,124.0,141,1,168,262,27,0,0,135,-236,-1,189,-5.59,,,,,,,,,,,,
291223,1564151638642,-1,0.38,0.9,0.31,1.39,1.06,0.95,-0.44,0.47,38,-1,50,1.04,2606,6,93,43,68,967,187.0,229,462,60,125.0,141,1,164,262,27,0,0,134,-236,-1,187,-5.59,,,,,,,,,,,,
291243,1564151638662,-1,0.38,0.89,0.31,1.38,1.06,0.97,-0.45,0.38,38,-3,51,1.07,2503,6,93,43,69,972,186.0,225,463,60,122.0,141,1,158,259,27,0,0,133,5140,3584,186,-5.59,44.680824,10.024438,16.46,173.7,0,0.0,-1,0.0,0.0,0,1.91,4.8541
291263,1564151638682,3,0.37,0.89,0.31,1.39,1.05,0.97,-0.44,0.42,38,-1,51,1.06,2449,6,93,43,71,974,186.0,218,463,60,123.0,129,1,0,258,24,0,0,133,5140,-1,186,181.28,,,,,,,,,,,,
291283,1564151638702,-0,0.38,0.9,0.31,1.39,1.05,0.97,-0.42,0.41,38,-2,50,1.06,2374,6,93,43,72,975,184.0,217,461,60,122.0,129,1,0,256,24,0,0,133,5120,250,184,-5.59,,,,,,,,,,,,
291303,1564151638722,-0,0.38,0.9,0.3,1.38,1.05,0.94,-0.43,0.37,38,-2,50,1.04,2330,6,93,43,74,980,184.0,212,460,60,123.0,129,1,0,253,24,0,0,132,250,5134,184,181.28,,,,,,,,,,,,
291323,1564151638742,0,0.39,0.9,0.31,1.39,1.05,0.94,-0.43,0.41,38,-2,50,1.04,2223,6,93,43,74,983,184.0,211,461,60,122.0,129,1,145,253,24,0,0,130,250,-1495,181,-5.59,,,,,,,,,,,,
291343,1564151638762,1,0.39,0.89,0.31,1.39,1.05,0.92,-0.42,0.42,38,-1,50,1.01,2144,6,93,43,76,986,182.0,203,462,60,123.0,129,1,0,250,24,0,0,129,-1281,10620,182,181.28,44.680828,10.024434,16.16,173.7,0,0.0,-1,0.0,0.0,0,1.91,4.8557
291363,1564151638782,-0,0.38,0.89,0.31,1.38,1.04,0.92,-0.43,0.41,38,-2,50,1.02,2058,6,93,43,77,988,181.0,200,463,60,124.0,104,1,139,251,19,0,0,129,-1,31744,181,181.28,,,,,,,,,,,,
291383,1564151638802,-0,0.38,0.89,0.31,1.39,1.05,0.92,-0.42,0.43,38,-1,49,1.01,1895,6,93,43,78,992,180.0,197,461,60,122.0,104,1,138,252,19,0,0,128,-1,250,180,-5.59,,,,,,,,,,,,
291403,1564151638822,-1,0.39,0.89,0.31,1.38,1.05,0.92,-0.41,0.43,37,-2,49,1.01,1848,6,93,43,80,995,180.0,191,473,60,123.0,104,1,0,254,19,0,0,127,-1,-1281,180,181.28,,,,,,,,,,,,
291423,1564151638842,2,0.38,0.89,0.3,1.38,1.05,0.92,-0.41,0.41,37,-1,49,1.01,1814,6,93,43,81,997,178.0,187,460,60,124.0,104,1,133,257,19,0,0,128,-1,250,178,181.28,,,,,,,,,,,,
291443,1564151638862,3,0.38,0.9,0.31,1.39,1.05,0.91,-0.42,0.39,37,-2,49,1.0,1750,6,93,43,82,998,178.0,184,464,60,123.0,104,1,0,258,19,0,0,127,-1,31744,178,181.28,44.680832,10.024429,15.83,173.7,0,0.0,-1,0.0,0.0,0,1.92,4.8574
291463,1564151638882,-2,0.38,0.89,0.31,1.38,1.04,0.9,-0.41,0.39,37,-2,48,0.99,1691,6,93,43,83,996,178.0,181,463,60,123.0,89,1,0,260,16,0,0,127,-1,-1281,178,181.28,,,,,,,,,,,,
291483,1564151638904,-1,0.38,0.89,0.31,1.38,1.05,0.91,-0.4,0.39,37,-2,48,0.99,1592,6,93,43,84,994,177.0,178,462,60,124.0,89,1,0,261,16,0,0,126,-1,-1,177,181.28,,,,,,,,,,,,
291503,1564151638924,2,0.38,0.9,0.31,1.38,1.05,0.92,-0.41,0.38,37,-2,48,1.01,1460,6,93,43,86,992,176.0,174,463,60,122.0,89,1,0,263,16,0,0,125,-1,-1,176,181.28,,,,,,,,,,,,
291523,1564151638944,-0,0.39,0.89,0.31,1.39,1.04,0.92,-0.41,0.37,37,-2,48,1.01,1325,18,93,43,87,989,176.0,167,463,60,122.0,89,1,116,448,16,0,0,125,-1,-1,176,181.28,,,,,,,,,,,,
291543,1564151638964,-2,0.39,0.89,0.31,1.39,1.05,0.9,-0.4,0.41,37,-1,48,0.99,1221,34,93,43,90,979,175.0,163,461,60,123.0,89,1,107,454,16,0,0,124,-1,-1,175,-5.59,44.680836,10.024426,15.49,173.7,0,0.0,-1,0.0,0.0,0,1.92,4.859
291563,1564151638984,-1,0.39,0.9,0.3,1.39,1.05,0.91,-0.39,0.41,37,-2,47,0.99,1225,51,93,43,94,972,174.0,165,459,60,119.0,125,1,163,224,22,0,0,124,-1,-1,174,-5.59,,,,,,,,,,,,
291583,1564151638996,-0,0.38,0.89,0.31,1.39,1.04,0.91,-0.38,0.4,37,-2,47,0.99,1255,66,93,43,97,962,173.0,162,457,60,123.0,125,1,206,544,22,0,0,123,-1,30720,173,-5.59,,,,,,,,,,,,
291603,1564151639016,-1,0.39,0.89,0.31,1.39,1.04,0.9,-0.39,0.39,36,-2,47,0.98,1255,76,93,43,97,956,172.0,161,462,60,124.0,125,1,206,537,22,0,0,123,-1,30720,172,181.28,,,,,,,,,,,,
291623,1564151639036,0,0.38,0.9,0.31,1.38,1.05,0.91,-0.38,0.4,36,-2,47,0.99,1285,83,93,43,97,948,171.0,164,467,60,124.0,125,1,208,246,22,0,0,122,-1,888,171,181.28,,,,,,,,,,,,
291643,1564151639056,-1,0.39,0.9,0.31,1.38,1.05,0.94,-0.37,0.4,36,-3,46,1.01,1746,84,93,43,97,938,172.0,167,467,60,122.0,125,1,226,251,22,0,0,121,-1,-1494,172,-5.59,44.68084,10.024424,15.01,173.7,0,0.0,-1,0.0,0.0,0,1.92,4.8607
291663,1564151639076,-0,0.39,0.89,0.31,1.38,1.05,0.92,-0.37,0.42,36,-3,45,0.99,1949,84,93,43,97,931,170.0,176,457,60,122.0,210,1,226,547,36,0,0,121,-1,-1494,170,-5.59,,,,,,,,,,,,
291683,1564151639103,4,0.38,0.89,0.31,1.39,1.05,0.92,-0.36,0.42,36,-4,45,0.99,2029,84,93,43,98,927,169.0,177,462,60,125.0,210,1,240,561,36,0,0,120,-1,-1494,169,414.87,,,,,,,,,,,,
291703,1564151639123,-1,0.39,0.89,0.31,1.37,1.05,0.93,-0.36,0.41,35,-5,45,1.0,2112,84,93,43,97,924,169.0,187,460,60,121.0,210,1,226,538,36,0,0,120,-1,10764,169,-5.59,,,,,,,,,,,,
291723,1564151639143,0,0.39,0.89,0.3,1.38,1.05,0.92,-0.38,0.42,35,-4,43,1.0,2231,78,93,43,98,919,168.0,186,468,60,122.0,210,1,240,544,36,0,0,119,-202,-1281,167,181.28,,,,,,,,,,,,
291743,1564151639163,4,0.38,0.89,0.31,1.38,1.05,0.88,-0.34,0.42,35,-3,43,0.95,2594,53,93,43,96,917,166.0,198,461,60,122.0,210,1,214,299,36,0,0,118,-202,-1281,166,-5.59,44.680843,10.024422,14.91,173.7,0,0.0,-1,0.0,0.0,0,1.92,4.8624
291763,1564151639183,3,0.39,0.89,0.31,1.37,1.05,0.92,-0.35,0.4,35,-5,44,0.99,2869,31,93,43,95,916,166.0,212,457,60,122.0,427,1,212,742,71,0,0,118,13868,-1,166,-5.59,,,,,,,,,,,,
291783,1564151639203,4,0.38,0.89,0.31,1.38,1.04,0.93,-0.37,0.38,35,-6,44,1.0,3113,19,93,43,92,916,165.0,222,463,60,122.0,427,1,195,622,71,0,0,117,11264,-1281,165,-5.59,,,,,,,,,,,,
291803,1564151639223,2,0.37,0.89,0.3,1.38,1.04,0.87,-0.34,0.41,35,-5,43,0.93,3356,18,93,43,89,919,163.0,234,472,60,123.0,427,1,180,503,71,0,0,115,250,-1,163,-5.59,,,,,,,,,,,,
291823,1564151639243,1,0.38,0.89,0.31,1.38,1.04,0.88,-0.32,0.43,35,-5,42,0.94,3608,18,93,43,85,921,162.0,247,467,60,123.0,427,1,188,545,71,0,0,115,250,-165,162,-5.59,,,,,,,,,,,,
291843,1564151639263,2,0.37,0.89,0.3,1.37,1.04,0.95,-0.35,0.3,34,-4,43,1.01,3920,18,93,43,82,926,161.0,266,469,60,123.0,427,1,194,550,71,0,0,114,-1482,23460,161,-5.59,44.680847,10.02442,14.28,173.7,0,0.0,-1,0.0,0.0,0,1.92,4.864
291863,1564151639283,1,0.38,0.89,0.31,1.38,1.04,0.96,-0.35,0.3,34,-4,43,1.03,4183,18,93,43,79,932,159.0,287,455,60,123.0,515,1,210,534,82,0,0,113,13862,250,159,-5.59,,,,,,,,,,,,
291883,1564151639303,1,0.37,0.89,0.31,1.37,1.05,0.97,-0.34,0.37,34,-4,43,1.02,4292,17,93,43,78,946,158.0,306,458,60,123.0,515,1,218,489,82,0,0,112,9728,250,158,-5.59,,,,,,,,,,,,
291903,1564151639323,0,0.38,0.89,0.3,1.38,1.05,0.96,-0.33,0.41,34,-3,42,1.01,4398,17,93,43,77,955,157.0,312,469,60,122.0,515,1,226,469,82,0,0,112,250,-1281,157,-5.59,,,,,,,,,,,,
291923,1564151639343,2,0.38,0.89,0.31,1.38,1.04,0.95,-0.29,0.43,34,-2,41,0.99,4480,17,93,43,76,964,157.0,329,466,60,122.0,515,1,232,442,82,0,0,112,-1482,250,157,-5.59,,,,,,,,,,,,
291943,1564151639363,2,0.37,0.89,0.31,1.37,1.05,0.94,-0.31,0.47,33,-2,41,0.99,4492,16,93,44,75,968,155.0,330,464,60,123.0,515,1,232,255,82,0,0,112,13856,-1,155,-5.59,44.680847,10.02442,13.99,173.7,0,0.0,-1,0.0,0.0,0,1.92,4.8657
291963,1564151639383,5,0.38,0.89,0.3,1.38,1.05,0.9,-0.3,0.47,33,-2,41,0.95,4419,13,93,43,73,967,155.0,335,468,60,122.0,445,1,226,403,69,0,0,110,8192,-1,155,-5.59,,,,,,,,,,,,
291983,1564151639403,6,0.37,0.89,0.31,1.38,1.05,0.89,-0.3,0.45,33,-1,40,0.94,4487,13,93,44,72,965,154.0,332,470,60,123.0,445,1,231,389,69,0,0,108,-1482,-1,152,-5.59,,,,,,,,,,,,
292003,1564151639423,6,0.36,0.89,0.31,1.38,1.05,0.87,-0.29,0.46,33,-0,40,0.92,4513,12,93,44,71,955,152.0,336,466,60,122.0,445,1,233,371,69,0,0,106,13850,-1,152,-5.59,,,,,,,,,,,,
292023,1564151639443,6,0.37,0.89,0.3,1.38,1.04,0.84,-0.3,0.45,33,-0,40,0.9,4506,12,93,44,70,940,150.0,338,466,60,122.0,445,1,232,361,69,0,0,106,6656,-1,150,-5.59,,,,,,,,,,,,
292043,1564151639463,4,0.37,0.89,0.31,1.38,1.05,0.8,-0.28,0.42,32,1,41,0.85,4519,12,93,44,70,929,149.0,337,467,60,122.0,445,1,233,347,69,0,0,106,6656,-236,149,-5.59,44.680851,10.024419,13.52,173.6,0,0.0,-1,0.0,0.0,0,1.92,4.8674
292063,1564151639483,6,0.37,0.89,0.3,1.39,1.04,0.81,-0.28,0.43,32,2,41,0.86,4512,12,93,44,69,911,147.0,341,470,60,121.0,401,1,233,336,59,0,0,105,250,5140,147,-5.59,,,,,,,,,,,,
292083,1564151639503,6,0.36,0.89,0.3,1.38,1.05,0.78,-0.27,0.45,32,3,40,0.82,4501,12,93,44,68,904,146.0,347,467,60,122.0,401,1,232,298,59,0,0,103,-1482,-1281,146,-5.59,,,,,,,,,,,,
292103,1564151639523,7,0.36,0.88,0.3,1.38,1.05,0.77,-0.3,0.49,32,3,40,0.83,4514,12,93,44,68,893,144.0,341,468,60,122.0,401,1,233,298,59,0,0,102,5120,-1,144,-5.59,,,,,,,,,,,,
292123,1564151639543,7,0.35,0.89,0.3,1.39,1.04,0.75,-0.29,0.49,31,3,39,0.81,4495,12,93,43,68,875,143.0,343,475,60,122.0,401,1,231,299,59,0,0,100,250,-1,143,-5.59,,,,,,,,,,,,
292143,1564151639563,8,0.34,0.89,0.3,1.37,1.04,0.77,-0.29,0.49,31,3,39,0.83,4541,12,93,43,67,861,141.0,339,467,60,123.0,401,1,233,294,59,0,0,100,-1482,-1,139,-5.59,44.680855,10.024419,12.98,173.6,0,0.0,-1,0.0,0.0,0,1.92,4.869
292163,1564151639583,4,2.98,0.91,0.32,1.4,1.06,0.76,-0.27,0.5,30,3,39,0.81,4489,12,93,43,67,850,138.0,343,467,60,122.0,359,1,229,294,50,0,0,99,-1482,-1,138,-5.59,,,,,,,,,,,,
292183,1564151639599,4,2.96,0.91,0.32,1.4,1.06,0.76,-0.28,0.53,30,3,38,0.81,4512,12,93,43,67,834,136.0,344,469,60,121.0,359,1,231,294,50,0,0,98,13838,-1,136,-5.59,,,,,,,,,,,,
292203,1564151639619,2,2.95,0.91,0.32,1.4,1.06,0.73,-0.23,0.54,29,3,38,0.77,4474,12,93,43,66,818,134.0,342,470,60,120.0,359,1,226,288,50,0,0,98,3584,-1,134,-5.59,,,,,,,,,,,,
292223,1564151639639,3,2.92,0.92,0.32,1.4,1.06,0.76,-0.21,0.55,29,4,37,0.79,4524,12,93,43,66,807,132.0,340,467,60,121.0,359,1,231,288,50,0,0,98,-1482,-1,132,414.87,,,,,,,,,,,,
292243,1564151639659,3,2.89,0.91,0.32,1.39,1.07,0.77,-0.17,0.57,28,3,36,0.79,4528,12,93,43,66,801,130.0,345,465,60,122.0,359,1,231,288,50,0,0,98,13832,-202,130,-5.59,44.680859,10.024419,12.22,173.6,0,0.0,-1,0.0,0.0,0,1.92,4.8707
292263,1564151639679,4,2.86,0.92,0.31,1.4,1.06,0.8,-0.17,0.63,27,3,34,0.82,4516,12,93,43,65,797,127.0,341,468,60,120.0,369,1,229,282,48,0,0,97,13832,-202,127,-5.59,,,,,,,,,,,,
292283,1564151639703,4,2.82,0.91,0.32,1.4,1.07,0.8,-0.15,0.65,27,2,33,0.81,4562,12,93,43,66,792,125.0,346,472,60,120.0,369,1,234,289,48,0,0,96,2048,-1482,125,-5.59,,,,,,,,,,,,
292303,1564151639723,5,2.78,0.92,0.32,1.4,1.06,0.84,-0.09,0.66,26,1,32,0.84,4535,12,93,43,65,788,122.0,346,466,60,120.0,369,1,230,282,48,0,0,96,-1483,13862,122,-5.59,,,,,,,,,,,,
292323,1564151639743,4,2.75,0.92,0.32,1.39,1.06,0.86,-0.05,0.66,25,1,31,0.86,4500,12,93,43,65,789,122.0,348,466,60,119.0,369,1,228,282,48,0,0,97,13736,250,122,-5.59,,,,,,,,,,,,
292343,1564151639763,5,2.69,0.91,0.32,1.4,1.07,0.88,-0.04,0.72,24,-0,30,0.89,4509,12,93,43,65,790,119.0,341,467,60,123.0,369,1,228,282,48,0,0,96,13736,8192,119,-5.59,44.680862,10.02442,11.74,173.6,0,0.0,-1,0.0,0.0,0,1.92,4.8724
292363,1564151639783,4,2.66,0.91,0.32,1.39,1.07,0.88,-0.04,0.74,23,-1,28,0.89,4464,12,93,43,65,792,116.0,344,470,60,121.0,413,1,224,282,48,0,0,96,-22528,-1482,116,-5.59,,,,,,,,,,,,
292383,1564151639803,4,2.62,0.9,0.32,1.38,1.06,0.92,0.0,0.76,21,-1,26,0.92,4512,12,93,43,65,795,112.0,342,470,60,122.0,413,1,229,282,48,0,0,96,250,-1482,112,-5.59,,,,,,,,,,,,
292403,1564151639823,4,2.58,0.9,0.32,1.39,1.07,0.94,0.05,0.8,20,-1,24,0.94,4520,12,93,43,65,797,109.0,346,471,60,122.0,413,1,229,282,48,0,0,96,-1481,13844,109,-5.59,,,,,,,,,,,,
292423,1564151639843,5,2.53,0.9,0.32,1.39,1.06,0.96,0.07,0.84,19,-2,22,0.96,4448,12,93,43,64,800,107.0,341,465,60,122.0,413,1,221,204,48,0,0,96,-1481,13844,107,-5.59,,,,,,,,,,,,
292443,1564151639863,3,2.51,0.9,0.32,1.38,1.07,0.95,0.09,0.85,18,-3,20,0.95,4473,12,93,43,64,803,107.0,340,470,60,123.0,413,1,223,276,48,0,0,95,14312,13838,103,-5.59,44.680866,10.02442,10.99,173.6,0,0.0,-1,0.0,0.0,0,1.92,4.8741
292463,1564151639883,3,2.47,0.9,0.32,1.38,1.07,0.96,0.14,0.87,17,-2,19,0.97,4467,12,93,43,64,807,103.0,347,466,60,121.0,446,1,223,276,46,0,0,95,-6144,250,103,-5.59,,,,,,,,,,,,
292483,1564151639904,5,2.43,0.9,0.32,1.39,1.05,0.96,0.18,0.88,15,-1,17,0.98,4444,12,93,43,64,809,101.0,343,466,60,122.0,446,1,219,275,46,0,0,95,250,13832,101,-5.59,,,,,,,,,,,,
292503,1564151639924,3,2.4,0.9,0.32,1.39,1.06,0.95,0.17,0.91,14,-1,16,0.97,4513,12,93,43,64,811,98.0,343,469,60,120.0,446,1,227,276,46,0,0,95,250,-1483,98,-5.59,,,,,,,,,,,,
292523,1564151639944,3,2.37,0.9,0.32,1.38,1.06,0.92,0.2,0.89,13,-1,15,0.94,4463,12,93,43,64,814,95.0,350,472,60,121.0,446,1,222,276,46,0,0,93,-1481,-1483,95,-5.59,,,,,,,,,,,,
292543,1564151639964,8,2.35,0.9,0.31,1.38,1.06,0.91,0.2,0.86,12,-0,13,0.93,4482,12,93,43,64,817,95.0,338,465,60,124.0,446,1,224,276,46,0,0,93,14298,250,95,-5.59,44.680866,10.024421,10.39,173.6,0,0.0,-1,0.0,0.0,0,1.92,4.8757
292563,1564151639984,7,2.34,0.91,0.31,1.39,1.06,0.89,0.2,0.85,11,1,12,0.91,4495,12,93,43,64,820,92.0,346,466,60,122.0,500,1,226,276,46,0,0,92,14298,14312,92,-5.59,,,,,,,,,,,,
292583,1564151639995,8,2.32,0.9,0.32,1.39,1.06,0.89,0.18,0.82,10,0,11,0.9,4448,12,93,43,63,821,90.0,339,465,60,123.0,500,1,221,271,46,0,0,90,-9728,14312,90,-5.59,,,,,,,,,,,,
292603,1564151640015,7,2.3,0.91,0.32,1.38,1.06,0.86,0.2,0.78,9,-0,10,0.88,4510,12,93,43,63,822,90.0,344,465,60,122.0,500,1,226,271,46,0,0,90,250,250,90,-5.59,,,,,,,,,,,,
292623,1564151640035,7,2.29,0.9,0.32,1.39,1.06,0.85,0.19,0.75,8,1,8,0.87,4523,12,93,43,63,823,88.0,342,465,60,123.0,500,1,227,276,46,0,0,89,250,-9728,88,-5.59,,,,,,,,,,,,
292643,1564151640055,6,2.3,0.91,0.31,1.39,1.07,0.84,0.18,0.75,7,1,8,0.86,4502,12,93,43,63,824,86.0,345,464,60,123.0,500,1,225,199,46,0,0,88,14284,-9728,86,-5.59,44.680866,10.024422,9.59,173.6,0,0.0,-1,0.0,0.0,0,1.92,4.8774
292663,1564151640075,5,2.29,0.9,0.31,1.39,1.07,0.83,0.16,0.75,6,1,7,0.85,4552,12,93,43,64,824,86.0,346,467,60,122.0,534,1,231,271,46,0,0,88,-13312,14284,86,-5.59,,,,,,,,,,,,
292683,1564151640102,2,2.3,0.91,0.31,1.39,1.06,0.8,0.19,0.74,6,2,7,0.82,4544,12,93,43,63,825,85.0,349,467,60,123.0,534,1,228,271,46,0,0,86,-13312,-13312,83,-5.59,,,,,,,,,,,,
292703,1564151640122,3,2.29,0.91,0.31,1.39,1.06,0.83,0.2,0.74,5,3,6,0.86,4570,12,93,43,63,826,83.0,348,468,60,122.0,534,1,232,271,46,0,0,84,-1481,-13312,82,-5.59,,,,,,,,,,,,
292723,1564151640142,3,2.3,0.91,0.31,1.4,1.06,0.85,0.21,0.77,5,2,5,0.87,4567,12,93,43,63,828,82.0,353,467,60,122.0,534,1,231,271,46,0,0,84,-16896,-1481,82,-5.59,,,,,,,,,,,,
292743,1564151640162,2,2.29,0.9,0.32,1.39,1.06,0.87,0.17,0.83,4,1,4,0.89,4531,12,93,43,63,830,81.0,346,467,60,120.0,534,1,228,271,46,0,0,82,-16896,-16896,80,-5.59,44.68087,10.024422,8.91,173.6,0,0.0,-1,0.0,0.0,0,1.92,4.8791
292763,1564151640182,2,2.29,0.9,0.31,1.4,1.06,0.89,0.15,0.85,4,0,3,0.9,4554,12,93,43,64,832,80.0,349,470,60,122.0,575,1,231,276,46,0,0,81,-1481,-16896,80,-5.59,,,,,,,,,,,,
292783,1564151640202,1,2.3,0.91,0.32,1.39,1.07,0.92,0.18,0.83,3,-0,3,0.94,4533,12,93,43,63,835,79.0,347,464,60,122.0,575,1,228,271,46,0,0,81,-1481,-1481,78,-5.59,,,,,,,,,,,,
292803,1564151640222,3,2.3,0.91,0.32,1.39,1.07,0.92,0.18,0.86,3,-1,3,0.94,4471,12,93,43,63,836,78.0,346,465,60,121.0,575,1,222,271,46,0,0,79,14256,-20480,76,-5.59,,,,,,,,,,,,
292823,1564151640242,2,2.31,0.91,0.31,1.4,1.06,0.92,0.15,0.89,2,-1,2,0.94,4552,11,93,43,63,837,76.0,346,470,60,122.0,575,1,230,271,46,0,0,79,250,-20480,76,-5.59,,,,,,,,,,,,
292843,1564151640262,3,2.3,0.91,0.32,1.4,1.06,0.95,0.11,0.94,2,-2,2,0.96,4508,11,93,43,63,838,76.0,348,471,60,122.0,575,1,226,271,46,0,0,77,250,250,75,-5.59,44.680874,10.024423,8.23,173.6,0,0.0,-1,0.0,0.0,0,1.92,4.8807
292863,1564151640282,1,2.31,0.91,0.32,1.39,1.07,0.96,0.12,0.94,1,-2,1,0.97,4559,11,93,43,63,840,75.0,347,468,60,123.0,613,1,231,271,46,0,0,76,14242,250,75,-5.59,,,,,,,,,,,,
292883,1564151640302,2,2.31,0.91,0.31,1.39,1.06,0.96,0.13,0.95,1,-2,1,0.97,4555,11,93,43,63,842,74.0,351,466,60,122.0,613,1,230,271,46,0,0,76,14242,14242,73,-5.59,,,,,,,,,,,,
292903,1564151640322,2,2.31,0.91,0.31,1.39,1.07,0.95,0.15,0.9,1,-3,1,0.96,4531,11,93,43,63,843,73.0,350,468,60,121.0,613,1,228,271,46,0,0,73,250,14242,73,-5.59,,,,,,,,,,,,
292923,1564151640342,1,2.3,0.91,0.32,1.39,1.07,0.96,0.14,0.88,1,-4,0,0.97,4530,11,93,43,63,844,72.0,352,467,60,123.0,613,1,228,271,46,0,0,73,250,250,70,-5.59,,,,,,,,,,,,
292943,1564151640362,2,2.31,0.91,0.31,1.39,1.06,0.94,0.11,0.86,1,-5,0,0.95,4503,11,93,43,63,847,70.0,349,465,60,122.0,613,1,225,271,46,0,0,71,14228,250,70,-5.59,44.680874,10.024423,7.63,173.6,0,0.0,-1,0.0,0.0,0,1.92,4.8824
292963,1564151640382,3,2.3,0.91,0.32,1.4,1.06,0.94,0.09,0.87,0,-5,1,0.94,4486,11,93,43,62,850,70.0,343,461,60,124.0,666,1,223,271,46,0,0,71,14228,14228,69,-5.59,,,,,,,,,,,,
292983,1564151640402,2,2.31,0.91,0.32,1.39,1.07,0.93,0.09,0.85,0,-5,0,0.94,4498,11,93,43,62,851,69.0,347,464,60,122.0,666,1,224,271,46,0,0,69,250,250,67,-5.59,,,,,,,,,,,,
293003,1564151640422,2,2.31,0.91,0.32,1.4,1.06,0.93,0.1,0.84,0,-6,-0,0.94,4501,11,93,43,62,852,68.0,351,468,60,122.0,666,1,224,271,46,0,0,69,250,250,67,-5.59,,,,,,,,,,,,
293023,1564151640442,3,2.3,0.91,0.32,1.4,1.06,0.93,0.09,0.82,-0,-5,-1,0.93,4484,11,93,43,62,852,67.0,345,461,60,123.0,666,1,222,265,46,0,0,67,14054,14054,64,-5.59,,,,,,,,,,,,
293043,1564151640462,2,2.3,0.91,0.32,1.39,1.06,0.93,0.07,0.82,-0,-5,-1,0.94,4519,11,93,43,62,852,66.0,343,459,60,123.0,666,1,226,265,46,0,0,67,14054,14054,64,-5.59,44.680878,10.024424,7.0,173.6,0,0.0,-1,0.0,0.0,0,1.92,4.884
293063,1564151640482,3,2.31,0.91,0.32,1.39,1.06,0.93,0.08,0.77,-0,-6,-1,0.94,4483,11,93,43,62,851,64.0,350,470,60,122.0,703,1,222,265,45,0,0,65,-1281,-1281,64,-5.59,,,,,,,,,,,,
293083,1564151640502,3,2.31,0.91,0.32,1.39,1.07,0.96,0.07,0.78,-0,-6,-1,0.96,4492,11,93,43,62,848,63.0,342,460,60,124.0,703,1,223,265,45,0,0,65,-1281,-1281,62,-5.59,,,,,,,,,,,,
293103,1564151640522,1,2.31,0.91,0.31,1.39,1.07,0.97,0.06,0.77,-1,-6,-1,0.97,4535,11,93,43,62,844,62.0,345,460,60,123.0,703,1,227,265,45,0,0,62,-1,-1281,62,-5.59,,,,,,,,,,,,
293123,1564151640542,3,2.3,0.9,0.32,1.4,1.06,0.97,0.06,0.8,-1,-6,-1,0.98,4496,11,93,43,62,842,61.0,346,466,60,123.0,703,1,224,265,45,0,0,62,-1,-1,60,-5.59,,,,,,,,,,,,
293143,1564151640562,2,2.3,0.91,0.32,1.39,1.07,0.97,0.06,0.76,-1,-6,-1,0.98,4539,11,93,43,61,839,60.0,348,463,60,122.0,703,1,227,265,45,0,0,60,-1,-1,60,-5.59,44.680882,10.024424,6.74,173.6,0,0.0,-1,0.0,0.0,0,1.92,4.8857
293163,1564151640582,2,2.3,0.91,0.32,1.39,1.06,0.98,0.09,0.72,-1,-6,-1,0.98,4506,11,93,43,62,837,59.0,346,459,60,122.0,789,1,225,265,45,0,0,60,-1,-1,57,-5.59,,,,,,,,,,,,
293183,1564151640602,2,2.3,0.91,0.31,1.39,1.06,0.97,0.08,0.7,-1,-6,-2,0.98,4466,11,93,43,61,836,57.0,345,459,60,122.0,789,1,220,265,45,0,0,58,-1,-1,57,-5.59,,,,,,,,,,,,
293203,1564151640622,3,2.3,0.91,0.32,1.4,1.07,0.99,0.06,0.72,-1,-6,-1,0.99,4489,11,93,43,62,833,56.0,346,465,60,122.0,789,1,223,265,45,0,0,58,-1,-1,55,-5.59,,,,,,,,,,,,
293223,1564151640642,2,2.3,0.91,0.32,1.39,1.06,1.0,0.07,0.68,-1,-7,-2,1.0,4465,11,93,43,62,832,56.0,343,462,60,123.0,789,1,221,265,45,0,0,58,-1,-1,55,-5.59,,,,,,,,,,,,
293243,1564151640662,2,2.31,0.91,0.32,1.39,1.06,1.02,0.06,0.72,-1,-7,-2,1.02,4472,11,93,43,62,833,55.0,342,470,60,120.0,789,1,221,265,45,0,0,55,-1,-1,55,-5.59,44.680882,10.024424,6.08,173.6,0,0.0,-1,0.0,0.0,0,1.92,4.8874
293263,1564151640682,3,2.31,0.91,0.32,1.4,1.06,1.03,0.04,0.75,-1,-7,-2,1.03,4463,11,93,43,62,833,54.0,343,467,60,121.0,865,1,220,265,45,0,0,55,-1,-1,52,-5.59,,,,,,,,,,,,
293283,1564151640703,3,2.3,0.91,0.32,1.39,1.07,1.01,0.04,0.8,-1,-6,-2,1.01,4446,11,93,43,62,835,52.0,342,466,60,122.0,865,1,219,264,45,0,0,52,-1,-1,52,-5.59,,,,,,,,,,,,
293303,1564151640723,2,2.31,0.91,0.32,1.39,1.06,1.01,0.06,0.81,-1,-6,-3,1.02,4493,11,93,43,62,836,51.0,345,471,60,121.0,865,1,223,265,45,0,0,52,-1,-1,49,-5.59,,,,,,,,,,,,
293323,1564151640743,3,2.31,0.91,0.32,1.4,1.07,1.02,0.05,0.85,-1,-6,-3,1.02,4449,11,93,43,62,838,51.0,343,474,60,121.0,865,1,219,264,45,0,0,52,-1,-1,49,-5.59,,,,,,,,,,,,
293343,1564151640763,3,2.3,0.91,0.31,1.39,1.07,1.05,0.09,0.85,-1,-5,-3,1.05,4525,11,93,43,62,840,49.0,343,470,60,122.0,865,1,226,265,45,0,0,49,-1,-1,49,-5.59,44.680882,10.024425,5.48,173.6,0,0.0,-1,0.0,0.0,0,1.92,4.889
293363,1564151640783,2,2.31,0.91,0.32,1.39,1.06,1.07,0.12,0.88,-1,-5,-3,1.08,4467,11,93,43,62,841,48.0,348,468,60,122.0,918,1,221,265,45,0,0,49,-1,-1,46,-5.59,,,,,,,,,,,,
293383,1564151640802,2,2.31,0.91,0.31,1.39,1.07,1.06,0.1,0.91,-1,-6,-3,1.07,4453,11,93,43,62,842,48.0,343,469,60,122.0,918,1,219,265,45,0,0,46,-1,-1,46,-5.59,,,,,,,,,,,,
293403,1564151640822,1,2.3,0.91,0.32,1.39,1.07,1.05,0.08,0.93,-1,-5,-3,1.05,4486,11,93,43,62,842,46.0,348,465,60,121.0,918,1,223,265,45,0,0,46,-1,-1,46,-5.59,,,,,,,,,,,,
293423,1564151640842,2,2.31,0.91,0.32,1.39,1.07,1.05,0.11,0.93,-1,-4,-3,1.05,4469,11,93,43,62,842,45.0,342,467,60,122.0,918,1,221,265,45,0,0,46,-1,-1,43,-5.59,,,,,,,,,,,,
293443,1564151640862,3,2.3,0.92,0.32,1.4,1.06,1.04,0.13,0.95,-1,-3,-3,1.05,4512,11,93,43,61,840,45.0,349,464,60,121.0,918,1,224,265,45,0,0,43,-1,-1,43,-5.59,44.680885,10.024425,5.03,173.6,0,0.0,-1,0.0,0.0,0,1.92,4.8907
293463,1564151640882,2,2.3,0.91,0.32,1.39,1.06,1.04,0.12,1.01,-1,-3,-4,1.05,4523,11,93,43,61,840,43.0,349,467,60,121.0,1046,1,225,265,45,0,0,43,24067,-1,43,-5.59,,,,,,,,,,,,
293483,1564151640902,2,2.31,0.91,0.32,1.39,1.07,1.03,0.1,1.01,-1,-3,-4,1.04,4483,11,93,43,61,839,41.0,350,470,60,122.0,1046,1,221,265,45,0,0,43,24067,24067,39,-5.59,,,,,,,,,,,,
293503,1564151640922,3,2.3,0.91,0.32,1.39,1.06,1.06,0.13,1.0,-1,-3,-4,1.07,4533,11,93,43,61,840,41.0,346,467,60,121.0,1046,1,226,265,45,0,0,43,24067,24067,39,-5.59,,,,,,,,,,,,
293523,1564151640942,3,2.3,0.91,0.32,1.4,1.06,1.07,0.16,1.01,-1,-2,-4,1.08,4479,11,93,43,61,841,39.0,348,464,60,120.0,1046,1,221,265,45,0,0,39,-1,24067,39,-5.59,,,,,,,,,,,,
293543,1564151640962,1,2.31,0.91,0.32,1.39,1.06,1.07,0.15,1.02,-1,-3,-4,1.08,4489,11,93,43,61,843,39.0,345,468,60,121.0,1046,1,222,259,45,0,0,39,-1,-1,39,-5.59,44.680885,10.024425,4.49,173.6,0,0.0,-1,0.0,0.0,0,1.92,4.8924
293563,1564151640982,3,2.31,0.91,0.32,1.39,1.07,1.06,0.11,1.04,-1,-3,-4,1.07,4526,11,93,43,62,845,38.0,347,468,60,122.0,1222,1,227,265,44,0,0,39,-1,-1,36,-5.59,,,,,,,,,,,,
293583,1564151640996,3,2.3,0.92,0.32,1.4,1.06,1.06,0.13,1.03,-1,-2,-4,1.07,4516,11,93,43,61,848,38.0,346,467,60,122.0,1222,1,225,259,44,0,0,35,-1,-1,36,-5.59,,,,,,,,,,,,
293603,1564151641016,1,2.3,0.91,0.32,1.39,1.07,1.06,0.14,1.05,-1,-2,-4,1.07,4558,11,93,43,61,851,36.0,353,468,60,122.0,1222,1,229,259,44,0,0,35,-1,-1,36,-5.59,,,,,,,,,,,,
293623,1564151641036,1,2.31,0.91,0.33,1.4,1.06,1.08,0.16,1.05,-1,-3,-4,1.09,4566,10,93,43,61,854,36.0,348,463,60,122.0,1222,1,229,265,44,0,0,35,-1,-1,36,-5.59,,,,,,,,,,,,
293643,1564151641056,1,2.31,0.91,0.32,1.39,1.07,1.1,0.13,1.05,-1,-3,-5,1.11,4507,10,93,43,61,855,34.0,351,471,60,122.0,1222,1,224,187,44,0,0,35,-1,-1,32,-5.59,44.680885,10.024425,3.73,173.6,0,0.0,-1,0.0,0.0,0,1.92,4.8941
293663,1564151641076,2,2.3,0.91,0.32,1.39,1.06,1.11,0.13,1.01,-1,-3,-5,1.12,4570,11,93,43,61,856,34.0,347,461,60,123.0,1375,1,230,259,44,0,0,31,-1,-1,32,-5.59,,,,,,,,,,,,
293683,1564151641103,1,2.31,0.91,0.32,1.39,1.06,1.11,0.12,1.0,-1,-4,-4,1.12,4493,10,93,43,61,856,32.0,353,465,60,122.0,1375,1,222,187,44,0,0,31,-1,-1,32,-5.59,,,,,,,,,,,,
293703,1564151641123,3,2.3,0.91,0.33,1.39,1.06,1.12,0.12,0.97,-1,-5,-4,1.13,4508,10,93,43,61,857,32.0,347,470,60,122.0,1375,1,224,187,44,0,0,31,-1,-1,32,-5.59,,,,,,,,,,,,
293723,1564151641143,1,2.31,0.91,0.32,1.39,1.07,1.13,0.12,0.95,-1,-5,-4,1.13,4530,10,93,43,61,856,32.0,344,462,60,122.0,1375,1,226,259,44,0,0,31,-1,-1,32,-5.59,,,,,,,,,,,,
293743,1564151641163,2,2.3,0.92,0.32,1.4,1.06,1.1,0.09,0.93,-1,-5,-4,1.11,4497,10,93,43,61,856,29.0,345,458,60,122.0,1375,1,223,259,44,0,0,31,-1,-1,27,-5.59,44.680885,10.024425,3.19,173.6,0,0.0,-1,0.0,0.0,0,1.92,4.8957
293763,1564151641183,2,2.3,0.91,0.32,1.4,1.07,1.1,0.08,0.92,-1,-5,-3,1.1,4527,10,93,43,61,858,29.0,345,460,60,122.0,1629,1,226,259,44,0,0,26,-1,-1,27,-5.59,,,,,,,,,,,,
293783,1564151641203,2,2.3,0.92,0.32,1.4,1.06,1.08,0.08,0.83,-1,-6,-3,1.08,4533,10,93,43,61,859,29.0,348,462,60,122.0,1629,1,226,259,44,0,0,26,1018,-1,27,-5.59,,,,,,,,,,,,
293803,1564151641223,2,2.31,0.92,0.32,1.4,1.06,1.08,0.09,0.81,-1,-6,-3,1.09,4492,10,93,43,61,861,27.0,346,459,60,122.0,1629,1,222,259,44,0,0,26,1018,-1,27,-5.59,,,,,,,,,,,,
293823,1564151641243,0,2.31,0.91,0.33,1.4,1.06,1.08,0.06,0.78,-1,-6,-3,1.08,4538,10,93,43,61,861,27.0,350,465,60,122.0,1629,1,227,259,44,0,0,26,1018,-1281,27,-5.59,,,,,,,,,,,,
293843,1564151641263,2,2.3,0.92,0.33,1.39,1.06,1.07,0.02,0.77,-1,-6,-3,1.07,4489,10,93,43,61,863,27.0,352,464,60,123.0,1629,1,222,259,44,0,0,26,1018,-1281,27,-5.59,44.680885,10.024425,2.65,173.6,0,0.0,-1,0.0,0.0,0,1.92,4.8974
293863,1564151641283,2,2.31,0.92,0.32,1.4,1.07,1.07,0.01,0.72,-1,-7,-2,1.07,4496,10,93,43,61,864,24.0,348,468,60,123.0,2095,1,223,259,44,0,0,26,1018,-1281,21,-5.59,,,,,,,,,,,,
293883,1564151641303,1,2.31,0.91,0.33,1.39,1.07,1.07,0.06,0.67,-1,-7,-2,1.07,4530,10,93,43,61,864,24.0,347,465,60,122.0,2095,1,226,259,44,0,0,26,1018,-1281,21,-5.59,,,,,,,,,,,,
293903,1564151641323,1,2.31,0.92,0.32,1.4,1.06,1.06,0.06,0.65,-1,-7,-2,1.06,4530,10,93,43,61,864,24.0,348,461,60,123.0,2095,1,226,259,44,0,0,20,1018,-1281,21,-5.59,,,,,,,,,,,,
293923,1564151641343,2,2.3,0.91,0.33,1.39,1.06,1.05,0.02,0.65,-1,-7,-2,1.05,4555,10,93,43,61,863,24.0,345,459,60,125.0,2095,1,228,259,44,0,0,20,1018,-1281,21,-5.59,,,,,,,,,,,,
293943,1564151641363,2,2.3,0.91,0.33,1.39,1.06,1.04,-0.01,0.61,-1,-7,-2,1.05,4556,10,93,43,61,862,21.0,351,462,60,125.0,2095,1,228,259,44,0,0,20,5414,-1281,21,-5.59,44.680885,10.024425,2.19,173.5,0,0.0,-1,0.0,0.0,0,1.92,4.899
293963,1564151641383,1,2.31,0.91,0.32,1.39,1.06,1.03,0.01,0.55,-1,-6,-2,1.03,4521,10,93,43,61,862,21.0,346,459,60,123.0,2095,1,225,259,44,0,0,20,5414,-1281,21,-5.59,,,,,,,,,,,,
293983,1564151641403,2,2.3,0.91,0.32,1.39,1.07,1.01,0.02,0.5,-1,-5,-1,1.01,4554,10,93,43,61,861,21.0,348,460,60,125.0,2095,1,228,259,44,0,0,20,5414,250,21,-5.59,,,,,,,,,,,,
294003,1564151641423,2,2.3,0.91,0.32,1.4,1.06,1.0,-0.0,0.47,-1,-5,-1,1.0,4512,10,93,43,61,860,21.0,346,463,60,126.0,2095,1,224,187,44,0,0,20,5414,13468,21,-5.59,,,,,,,,,,,,
294023,1564151641443,2,2.3,0.92,0.33,1.39,1.07,1.0,-0.02,0.45,-1,-4,-1,1.0,4531,10,93,43,61,858,21.0,343,463,60,125.0,2095,1,226,259,44,0,0,20,5414,-1484,21,181.28,,,,,,,,,,,,
294043,1564151641463,3,2.31,0.91,0.33,1.39,1.07,1.01,-0.04,0.41,-1,-4,-1,1.01,4547,10,93,43,61,857,13.0,343,456,60,125.0,2095,1,228,259,44,0,0,20,5414,250,13,-5.59,44.680889,10.024425,1.78,173.5,0,0.0,-1,0.0,0.0,0,1.92,4.9007
294063,1564151641483,3,2.3,0.91,0.33,1.39,1.06,1.01,-0.03,0.37,-1,-3,-1,1.01,4505,10,93,43,61,857,13.0,344,457,60,126.0,0,1,223,259,44,0,0,20,5414,-25600,13,181.28,,,,,,,,,,,,
294083,1564151641503,4,2.31,0.91,0.33,1.39,1.07,1.02,-0.04,0.34,-0,-4,-1,1.02,4531,10,93,43,61,856,13.0,344,460,60,125.0,0,1,226,259,44,0,0,20,5414,-1484,13,181.28,,,,,,,,,,,,
294103,1564151641523,3,2.31,0.91,0.33,1.4,1.06,1.03,-0.02,0.29,-0,-3,-1,1.03,4560,10,93,43,61,854,13.0,348,463,60,126.0,0,1,229,259,44,0,0,20,5414,250,13,181.28,,,,,,,,,,,,
294123,1564151641543,4,2.3,0.91,0.32,1.4,1.06,1.04,-0.03,0.26,-0,-2,-1,1.04,4487,10,93,43,61,854,13.0,344,462,60,126.0,0,1,222,259,44,0,0,20,5414,-25600,13,181.28,,,,,,,,,,,,
294143,1564151641563,4,2.3,0.91,0.33,1.4,1.06,1.02,-0.03,0.21,-0,-1,-0,1.02,4525,10,93,43,61,853,13.0,347,463,60,126.0,0,1,225,259,44,0,0,20,5414,-1484,13,181.28,44.680889,10.024425,0.0,173.5,0,0.0,-1,0.0,0.0,0,1.92,4.9024
294163,1564151641583,4,2.3,0.92,0.32,1.39,1.07,1.01,-0.01,0.17,-0,-1,0,1.01,4474,10,93,43,61,854,13.0,338,466,60,126.0,0,1,220,259,44,0,0,20,5414,250,13,181.28,,,,,,,,,,,,
294183,1564151641603,3,2.31,0.91,0.33,1.39,1.07,1.0,0.01,0.14,0,-0,0,1.0,4506,10,93,43,61,854,13.0,342,463,60,126.0,0,1,224,259,44,0,0,20,5414,13468,13,181.28,,,,,,,,,,,,
294203,1564151641623,4,2.3,0.91,0.33,1.39,1.06,1.02,-0.0,0.14,0,0,-0,1.02,4503,10,93,43,61,854,13.0,338,461,60,126.0,0,1,223,259,44,0,0,20,5414,-25600,13,-5.59,,,,,,,,,,,,
294223,1564151641643,4,2.3,0.92,0.33,1.4,1.07,1.01,-0.02,0.13,0,0,0,1.01,4495,11,93,43,61,856,13.0,345,465,60,125.0,0,1,223,259,44,0,0,20,5414,-25600,13,-5.59,,,,,,,,,,,,
294243,1564151641663,3,2.31,0.92,0.33,1.4,1.07,0.99,-0.01,0.13,0,-0,0,0.99,4523,11,93,43,61,857,13.0,342,465,60,126.0,0,1,225,259,44,0,0,20,5414,13468,13,181.28,44.680889,10.024425,0.0,173.5,0,0.0,-1,0.0,0.0,0,1.92,4.904
294263,1564151641683,2,2.31,0.91,0.33,1.39,1.07,0.97,0.01,0.1,0,1,0,0.97,4535,11,93,43,61,857,13.0,345,463,60,125.0,0,1,226,259,44,0,0,20,5414,-1484,13,181.28,,,,,,,,,,,,
294283,1564151641703,3,2.31,0.92,0.33,1.4,1.07,0.99,0.01,0.1,0,2,0,0.99,4508,11,93,43,61,857,13.0,343,460,60,125.0,0,1,224,259,44,0,0,20,5414,13468,13,181.28,,,,,,,,,,,,
294303,1564151641723,3,2.3,0.91,0.33,1.39,1.07,0.96,-0.02,0.09,0,2,1,0.96,4565,11,93,43,61,857,13.0,349,461,60,124.0,0,1,229,259,44,0,0,20,5414,-17920,13,181.28,,,,,,,,,,,,
294323,1564151641743,3,2.3,0.92,0.33,1.4,1.07,0.92,-0.02,0.09,0,3,1,0.92,4524,11,93,43,61,855,13.0,345,467,60,124.0,0,1,225,259,44,0,0,20,5414,13468,13,-5.59,,,,,,,,,,,,
294343,1564151641763,4,2.31,0.92,0.33,1.4,1.07,0.88,0.01,0.06,0,3,1,0.88,4534,11,93,43,61,854,13.0,347,463,60,125.0,0,1,226,259,44,0,0,20,5414,-1484,13,181.28,44.680889,10.024425,0.0,173.5,0,0.0,-1,0.0,0.0,0,1.92,4.9057
294363,1564151641783,2,2.28,0.91,0.33,1.39,1.07,0.85,0.05,0.04,0,3,2,0.85,4555,11,93,43,61,852,13.0,345,462,60,124.0,0,1,228,265,44,0,0,20,5414,250,13,-5.59,,,,,,,,,,,,
294383,1564151641803,4,2.29,0.92,0.33,1.39,1.06,0.8,0.05,0.08,0,3,2,0.8,4550,11,93,43,61,851,13.0,352,461,60,123.0,0,1,228,187,44,0,0,20,5414,250,13,-5.59,,,,,,,,,,,,
294403,1564151641823,5,2.3,0.92,0.33,1.4,1.07,0.78,0.02,0.09,0,3,1,0.78,4563,11,93,43,62,851,13.0,348,468,60,123.0,0,1,229,259,44,0,0,20,5414,250,13,-5.59,,,,,,,,,,,,
294423,1564151641843,4,2.3,0.91,0.33,1.39,1.07,0.74,0.02,0.16,0,3,1,0.74,4576,11,93,43,62,851,13.0,351,465,60,123.0,0,1,231,265,44,0,0,20,5414,250,13,-5.59,,,,,,,,,,,,
294443,1564151641863,0,2.3,0.92,0.33,1.39,1.07,0.71,0.01,0.21,0,2,1,0.71,4582,11,93,43,62,852,13.0,349,466,60,122.0,0,1,232,265,44,0,0,20,5414,23482,13,-5.59,44.680889,10.024425,0.0,173.5,0,0.0,-1,0.0,0.0,0,1.92,4.9074
294463,1564151641883,-0,2.3,0.92,0.33,1.39,1.07,0.67,0.05,0.27,0,2,2,0.67,4535,11,93,43,62,854,13.0,352,474,60,122.0,0,1,227,265,44,0,0,20,5414,-1484,13,-5.59,,,,,,,,,,,,
294483,1564151641903,-1,2.31,0.91,0.33,1.4,1.06,0.7,0.07,0.34,0,3,1,0.71,4580,11,93,43,62,857,13.0,352,468,60,121.0,0,1,232,265,44,0,0,20,5414,-17920,13,-5.59,,,,,,,,,,,,
294503,1564151641923,2,2.3,0.92,0.33,1.39,1.07,0.72,0.1,0.43,0,3,1,0.73,4574,12,93,43,62,859,13.0,355,466,60,121.0,0,1,231,265,44,0,0,20,5414,-17920,13,-5.59,,,,,,,,,,,,
294523,1564151641943,-0,2.31,0.92,0.33,1.39,1.07,0.75,0.1,0.54,0,3,-0,0.76,4557,12,93,43,61,862,13.0,350,467,60,122.0,0,1,229,265,44,0,0,20,5414,250,13,-5.59,,,,,,,,,,,,
294543,1564151641963,0,2.31,0.91,0.33,1.4,1.07,0.78,0.07,0.61,0,2,-1,0.78,4597,12,93,43,62,863,0.0,355,470,60,121.0,0,1,233,265,44,0,0,20,5414,23482,0,-5.59,44.680889,10.024425,0.0,173.5,0,0.0,-1,0.0,0.0,0,1.92,4.909
294563,1564151641983,-1,2.3,0.92,0.33,1.39,1.07,0.79,0.09,0.62,0,1,-1,0.8,4580,12,93,43,62,865,0.0,351,467,60,121.0,0,1,232,265,46,0,0,20,5414,23482,0,-5.59,,,,,,,,,,,,
294583,1564151641995,1,2.29,0.92,0.33,1.4,1.06,0.81,0.08,0.64,0,0,-0,0.81,4589,12,93,43,62,866,0.0,351,460,60,123.0,0,1,233,265,46,0,0,20,5414,23482,0,-5.59,,,,,,,,,,,,
294603,1564151642015,1,2.3,0.92,0.33,1.4,1.07,0.83,0.07,0.61,-0,-1,0,0.84,4634,12,93,43,62,866,0.0,351,465,60,122.0,0,1,237,194,46,0,0,20,5414,23482,0,-5.59,,,,,,,,,,,,
294623,1564151642035,-0,2.29,0.92,0.33,1.39,1.07,0.84,0.09,0.55,0,-1,0,0.84,4602,12,93,43,62,866,0.0,352,461,60,124.0,0,1,234,266,46,0,0,20,5414,23482,0,181.28,,,,,,,,,,,,
294643,1564151642055,2,2.3,0.92,0.33,1.39,1.07,0.84,0.09,0.51,-0,-1,1,0.85,4645,12,93,43,62,865,0.0,355,457,60,123.0,0,1,238,266,46,0,0,20,5414,23482,0,-5.59,44.680889,10.024425,0.0,173.5,0,0.0,-1,0.0,0.0,0,1.92,4.9107
294663,1564151642075,2,2.29,0.91,0.33,1.39,1.06,0.85,0.09,0.47,-0,-2,1,0.86,4639,12,93,43,63,864,0.0,352,461,60,125.0,0,1,238,272,47,0,0,20,5414,23482,0,-5.59,,,,,,,,,,,,
294683,1564151642104,3,2.3,0.91,0.33,1.39,1.07,0.84,0.08,0.41,-0,-1,1,0.84,4660,12,93,43,63,864,0.0,356,466,60,123.0,0,1,240,272,47,0,0,20,5414,23482,0,-5.59,,,,,,,,,,,,
294703,1564151642124,3,2.3,0.92,0.33,1.4,1.06,0.82,0.08,0.39,-0,-1,1,0.82,4689,12,93,43,63,864,0.0,356,463,60,124.0,0,1,242,200,47,0,0,20,5414,23482,0,-5.59,,,,,,,,,,,,
294723,1564151642144,-0,2.3,0.92,0.33,1.39,1.07,0.76,0.07,0.42,0,-1,1,0.76,4703,12,93,43,63,864,0.0,362,467,60,123.0,0,1,244,201,47,0,0,20,5414,23482,0,-5.59,,,,,,,,,,,,
294743,1564151642164,0,2.3,0.92,0.33,1.4,1.07,0.79,0.11,0.47,0,0,1,0.8,4751,12,93,43,62,865,0.0,366,465,60,121.0,0,1,247,272,47,0,0,20,5414,23482,0,-5.59,44.680889,10.024425,0.0,173.5,0,0.0,-1,0.0,0.0,0,1.92,4.9124
294763,1564151642184,1,2.3,0.91,0.33,1.39,1.07,0.8,0.11,0.5,-0,-1,0,0.81,4748,12,93,43,63,866,0.0,369,462,60,121.0,0,1,248,272,48,0,0,20,5414,23482,0,-5.59,,,,,,,,,,,,
294783,1564151642204,1,2.3,0.92,0.33,1.4,1.07,0.82,0.07,0.48,-0,-0,0,0.82,4751,12,93,43,63,867,0.0,369,462,60,123.0,0,1,248,272,48,0,0,20,5414,23482,0,-5.59,,,,,,,,,,,,
294803,1564151642224,3,2.3,0.92,0.33,1.4,1.06,0.83,0.05,0.47,-0,1,1,0.83,4755,12,93,43,63,867,0.0,364,463,60,124.0,0,1,249,272,48,0,0,20,5414,23482,0,-5.59,,,,,,,,,,,,
294823,1564151642244,1,2.3,0.92,0.33,1.39,1.07,0.78,0.04,0.49,-0,1,1,0.78,4832,12,93,43,63,866,0.0,372,466,60,122.0,0,1,256,273,48,0,0,20,5414,23482,0,-5.59,,,,,,,,,,,,
294843,1564151642264,-1,2.32,0.92,0.33,1.4,1.06,0.81,0.08,0.52,0,2,-0,0.81,4858,12,93,43,63,864,0.0,372,466,60,121.0,0,1,259,273,48,0,0,20,5414,23482,0,-5.59,44.680889,10.024425,0.0,173.5,0,0.0,-1,0.0,0.0,0,1.92,4.9141
294863,1564151642284,0,2.3,0.92,0.33,1.4,1.07,0.84,0.07,0.57,0,1,0,0.84,4844,12,93,43,63,861,0.0,368,460,60,123.0,0,1,257,273,50,0,0,20,5414,23482,0,-5.59,,,,,,,,,,,,
294883,1564151642304,2,2.3,0.92,0.33,1.4,1.07,0.86,0.06,0.51,-0,1,1,0.87,4866,12,93,43,63,859,0.0,370,460,60,124.0,0,1,259,267,50,0,0,20,5414,23482,0,181.28,,,,,,,,,,,,
294903,1564151642324,1,2.3,0.92,0.33,1.39,1.07,0.82,0.06,0.49,-0,1,0,0.82,4903,12,93,43,63,859,0.0,373,466,60,123.0,0,1,262,274,50,0,0,20,5414,23482,0,-5.59,,,,,,,,,,,,
294923,1564151642344,-0,2.31,0.91,0.33,1.4,1.07,0.84,0.05,0.54,0,-0,-0,0.84,4923,12,93,43,63,859,0.0,382,465,60,122.0,0,1,264,274,50,0,0,20,5414,23482,0,-5.59,,,,,,,,,,,,
294943,1564151642364,2,2.3,0.91,0.32,1.4,1.06,0.87,0.06,0.54,-0,0,-0,0.88,4896,12,93,43,63,861,0.0,378,464,60,122.0,0,1,262,273,50,0,0,20,5414,23482,0,-5.59,44.680889,10.024425,0.0,173.5,0,0.0,-1,0.0,0.0,0,1.92,4.9157
294963,1564151642384,4,2.31,0.92,0.33,1.39,1.07,0.86,0.06,0.51,-0,-1,1,0.86,4913,12,93,43,63,863,0.0,370,466,60,124.0,0,1,263,274,51,0,0,20,5414,23482,0,-5.59,,,,,,,,,,,,
294983,1564151642402,-1,2.31,0.92,0.33,1.4,1.07,0.82,0.04,0.53,-0,0,0,0.82,4898,12,93,43,63,870,0.0,384,467,60,122.0,0,1,262,273,51,0,0,20,5414,23482,0,-5.59,,,,,,,,,,,,
295003,1564151642422,-0,2.3,0.92,0.33,1.4,1.07,0.84,0.05,0.6,0,-0,-0,0.84,4959,13,93,43,63,875,0.0,380,462,60,121.0,0,1,268,203,51,0,0,20,5414,23482,0,-5.59,,,,,,,,,,,,
295023,1564151642442,2,2.31,0.92,0.33,1.4,1.07,0.86,0.07,0.53,-0,-1,0,0.86,4973,13,93,43,63,880,0.0,382,465,60,124.0,0,1,269,274,51,0,0,20,5414,23482,0,181.28,,,,,,,,,,,,
295043,1564151642462,-1,2.31,0.92,0.33,1.4,1.06,0.77,0.02,0.56,-0,0,0,0.77,4985,12,93,43,64,884,0.0,383,463,60,124.0,0,1,270,281,51,0,0,20,5414,23482,0,-5.59,44.680889,10.024425,0.0,173.5,0,0.0,-1,0.0,0.0,0,1.92,4.9174
295063,1564151642482,-1,2.31,0.92,0.33,1.39,1.07,0.82,0.08,0.59,0,1,-0,0.82,5026,12,93,43,63,887,0.0,386,469,60,121.0,0,1,274,275,52,0,0,20,5414,23482,0,-5.59,,,,,,,,,,,,
295083,1564151642504,3,2.31,0.92,0.33,1.39,1.07,0.83,0.09,0.54,-0,-1,0,0.84,5009,13,93,43,63,888,0.0,384,460,60,122.0,0,1,272,204,52,0,0,20,5414,23482,0,-5.59,,,,,,,,,,,,
295103,1564151642524,-0,2.3,0.92,0.33,1.4,1.07,0.76,0.04,0.55,-0,0,0,0.76,5038,13,93,43,63,888,0.0,387,466,60,123.0,0,1,273,204,52,0,0,20,5414,23482,0,-5.59,,,,,,,,,,,,
295123,1564151642544,-1,2.3,0.92,0.33,1.39,1.07,0.8,0.06,0.61,0,0,-0,0.8,5034,13,93,43,63,887,0.0,393,464,60,122.0,0,1,275,204,52,0,0,20,5414,23482,0,-5.59,,,,,,,,,,,,
295143,1564151642564,3,2.31,0.91,0.33,1.39,1.07,0.82,0.08,0.54,-0,-1,0,0.82,5057,13,93,43,63,880,0.0,388,464,60,123.0,0,1,278,274,52,0,0,20,5414,23482,0,-5.59,44.680889,10.024425,0.0,173.5,0,0.0,-1,0.0,0.0,0,1.92,4.9191
295163,1564151642584,0,2.31,0.91,0.33,1.4,1.07,0.76,0.03,0.57,0,-0,-1,0.76,5059,13,93,43,63,867,0.0,393,463,60,121.0,0,1,278,274,52,0,0,20,5414,23482,0,-5.59,,,,,,,,,,,,
295183,1564151642602,0,2.31,0.92,0.34,1.39,1.07,0.82,0.04,0.58,0,0,-1,0.82,5088,13,93,43,62,860,0.0,395,467,60,122.0,0,1,281,196,52,0,0,20,5414,23482,0,-5.59,,,,,,,,,,,,
295203,1564151642622,-0,2.31,0.91,0.33,1.4,1.07,0.76,0.02,0.56,0,-0,0,0.76,5121,13,93,43,63,852,0.0,390,462,60,123.0,0,1,285,202,52,0,0,20,5414,23482,0,-5.59,,,,,,,,,,,,
295223,1564151642642,-1,2.31,0.92,0.33,1.4,1.07,0.79,0.05,0.64,0,-0,-0,0.79,5122,13,93,43,63,844,0.0,401,466,60,122.0,0,1,285,202,52,0,0,20,5414,23482,0,-5.59,,,,,,,,,,,,
