"Interval"|"ms"|0|0|1,"Utc"|"ms"|0|0|1,"FB_p"|"bar"|0|300|50,"Volant"|"F"|0.0|300.0|50,"xFR"|"mm"|0.0|5.0|50,"xRR"|"mm"|0.0|5.0|50,"xFL"|"mm"|0.0|5.0|50,"xRL"|"mm"|0.0|5.0|50,"AccelX"|"G"|-3.0|3.0|50,"AccelY"|"G"|-3.0|3.0|50,"AccelZ"|"G"|-3.0|3.0|50,"Yaw"|"Deg/Sec"|-120|120|50,"Pitch"|"Deg/Sec"|-120|120|50,"Roll"|"Deg/Sec"|-120|120|50,"Gsum"|"G"|0.0|3.0|50,"RPM"|""|0|14000|50,"TPS"|"%"|0|100|50,"WaterTemp"|"?C"|0|300|50,"AirTemp"|"?C"|-1000|1000|50,"MAP"|"KPa"|0|255|50,"Lambda"|""|0|1024|50,"WheelSpeed"|"MPH"|0.0|150.0|50,"OilPress"|"PSI"|0|150|50,"FuelPress"|"PSI"|0|150|50,"OilTemp"|"F"|0|300|50,"Battery"|"Volts"|0.0|20.0|50,"FuelCon"|"L/h"|-1000|1000|50,"Gear"|""|0|10|50,"Advance"|"Deg"|-360|360|50,"Injection"|"ms"|-1000|1000|50,"FuelCon"|"L/100km"|-1000|1000|50,"LC_But_Pres"|""|-1000|1000|50,"LC_Active"|""|-1000|1000|50,"RD_Speed"|""|-1000|1000|50,"RUD_Speed"|""|-1000|1000|50,"LD_Speed"|""|-1000|1000|50,"LUD_Speed"|""|-1000|1000|50,"Ana1"|"bar"|-1000.0|1000.0|50,"Latitude"|"Degrees"|-180.0|180.0|10,"Longitude"|"Degrees"|-180.0|180.0|10,"Speed"|"kph"|0.0|150.0|10,"Altitude"|"m"|0.0|4000.0|10,"LapCount"|""|0|0|10,"LapTime"|"Min"|0.0|0.0|10,"Sector"|""|0|0|10,"SectorTime"|"Min"|0.0|0.0|10,"ElapsedTime"|"Min"|0.0|0.0|10,"CurrentLap"|""|0|0|10,"Distance"|"km"|0.0|0.0|10,"SessionTime"|"Min"|0.0|0.0|10
48463,1564133082510,2,2.22,0.95,0.44,1.34,0.99,1.1,0.41,0.32,-13,1,-14,1.17,9645,18,79,41,33,1049,527.0,659,470,60,123.0,140,1,302,199,72,0,0,521,-22519,-3856,516,-5.59,,,,,,,,,,,,
48483,1564133082530,3,2.22,0.94,0.45,1.33,1.0,1.17,0.51,0.34,-14,1,-15,1.27,9615,18,79,41,33,1047,526.0,660,464,60,123.0,140,1,302,199,72,0,0,522,-32248,6274,511,-5.59,,,,,,,,,,,,
48503,1564133082550,2,2.2,0.95,0.44,1.34,0.99,0.97,0.56,0.33,-13,2,-14,1.12,9625,18,79,41,32,1048,527.0,660,465,60,122.0,140,1,300,197,72,0,0,522,-32248,6274,511,-5.59,,,,,,,,,,,,
48523,1564133082570,3,2.21,0.95,0.44,1.34,0.99,1.08,0.47,0.36,-13,0,-15,1.17,9551,18,79,41,32,1051,524.0,656,463,60,123.0,140,1,300,196,72,0,0,524,-32248,-28648,509,-5.59,,,,,,,,,,,,
48543,1564133082590,1,2.21,0.95,0.45,1.33,1.0,1.03,0.51,0.4,-13,0,-15,1.15,9527,18,79,41,32,1044,524.0,659,471,60,123.0,140,1,300,195,72,0,0,521,-22519,-22519,508,-5.59,44.681366,10.02493,52.58,176.1,0,0.0,-1,0.0,0.0,0,0.31,0.809
48563,1564133082610,2,2.21,0.95,0.44,1.34,0.99,0.99,0.5,0.35,-14,2,-15,1.11,9479,18,79,42,32,1033,521.0,658,468,60,123.0,140,1,300,195,72,0,0,517,-9212,-9216,505,-5.59,,,,,,,,,,,,
48583,1564133082630,3,2.2,0.95,0.44,1.34,1.0,1.09,0.47,0.33,-14,1,-15,1.19,9436,18,79,41,32,1020,520.0,664,463,60,123.0,136,1,300,193,69,0,0,517,-9212,-9216,505,-5.59,,,,,,,,,,,,
48603,1564133082650,-1,2.21,0.95,0.45,1.34,0.99,1.09,0.56,0.34,-13,1,-15,1.23,9384,18,79,41,33,1007,518.0,662,460,60,123.0,136,1,302,194,69,0,0,512,16383,771,499,-5.59,,,,,,,,,,,,
48623,1564133082670,-1,2.21,0.95,0.45,1.34,1.0,0.95,0.57,0.28,-13,2,-15,1.1,9393,18,79,42,33,986,513.0,653,469,60,123.0,136,1,302,194,69,0,0,512,16383,771,499,-5.59,,,,,,,,,,,,
48643,1564133082690,2,2.2,0.95,0.44,1.34,1.0,0.94,0.51,0.29,-14,1,-16,1.07,9360,18,79,41,33,957,511.0,656,463,60,122.0,136,1,302,194,69,0,0,510,-3856,-32768,497,-5.59,44.681377,10.024918,50.96,176.2,0,0.0,-1,0.0,0.0,0,0.31,0.8107
48663,1564133082710,3,2.2,0.95,0.44,1.34,1.0,1.05,0.44,0.42,-14,-0,-17,1.14,9328,18,79,41,33,934,511.0,655,468,60,123.0,136,1,302,193,69,0,0,507,-3856,-6528,492,-5.59,,,,,,,,,,,,
48683,1564133082730,4,2.21,0.95,0.44,1.34,1.0,1.09,0.44,0.38,-14,0,-17,1.18,9305,18,79,42,33,919,509.0,651,467,60,123.0,138,1,302,193,68,0,0,507,-3856,-6528,492,-5.59,,,,,,,,,,,,
48703,1564133082750,2,2.21,0.95,0.45,1.34,1.0,0.91,0.52,0.32,-13,1,-17,1.05,9305,18,79,42,33,903,507.0,653,467,60,123.0,138,1,302,193,68,0,0,497,-21872,3580,488,-5.59,,,,,,,,,,,,
48723,1564133082770,5,2.21,0.95,0.45,1.34,1.0,0.78,0.54,0.28,-13,2,-17,0.95,9209,18,79,42,33,885,505.0,648,467,60,122.0,138,1,302,193,68,0,0,497,-21872,3580,488,-5.59,,,,,,,,,,,,
48743,1564133082790,6,2.2,0.95,0.44,1.34,1.0,0.74,0.5,0.22,-14,3,-18,0.89,9150,18,79,42,33,871,499.0,655,460,60,122.0,138,1,302,191,68,0,0,494,6274,-10483,485,-5.59,44.681385,10.024905,50.21,176.2,0,0.0,-1,0.0,0.0,0,0.31,0.8124
48763,1564133082808,9,2.2,0.95,0.44,1.34,1.0,0.77,0.46,0.22,-14,2,-19,0.9,9079,18,79,42,33,868,496.0,651,470,60,123.0,135,1,302,189,65,0,0,501,-22519,32033,481,-5.59,,,,,,,,,,,,
48783,1564133082828,11,2.2,0.95,0.45,1.34,0.99,0.9,0.35,0.32,-15,1,-19,0.96,9053,18,79,42,33,866,495.0,660,466,60,123.0,135,1,302,189,65,0,0,495,3,32033,479,-5.59,,,,,,,,,,,,
48803,1564133082848,12,2.2,0.96,0.45,1.34,1.0,1.01,0.23,0.41,-15,1,-20,1.04,9005,18,79,42,33,864,491.0,650,466,60,122.0,135,1,302,188,65,0,0,491,771,2212,477,-5.59,,,,,,,,,,,,
48823,1564133082868,12,2.21,0.95,0.44,1.35,1.0,1.11,0.13,0.52,-16,-0,-20,1.12,8979,18,79,42,33,864,489.0,656,464,60,122.0,135,1,302,188,65,0,0,486,-32768,10432,476,-5.59,,,,,,,,,,,,
48843,1564133082888,12,2.21,0.95,0.44,1.34,1.0,1.2,0.09,0.59,-16,-1,-21,1.21,8979,18,79,42,32,866,485.0,655,460,60,122.0,135,1,300,185,65,0,0,485,-6656,-23623,474,-5.59,44.681396,10.024893,49.18,176.2,0,0.0,-1,0.0,0.0,0,0.32,0.814
48863,1564133082910,12,2.22,0.95,0.44,1.35,1.0,1.29,-0.0,0.63,-16,-2,-20,1.29,8949,18,79,42,32,867,481.0,650,464,60,122.0,135,1,300,185,65,0,0,486,16648,-18108,466,-5.59,,,,,,,,,,,,
48883,1564133082930,9,2.23,0.95,0.44,1.34,1.0,1.36,-0.05,0.69,-16,-3,-21,1.36,8928,18,79,42,31,864,478.0,654,462,60,122.0,133,1,295,185,62,0,0,486,16648,-18108,466,-5.59,,,,,,,,,,,,
48903,1564133082950,8,2.22,0.95,0.45,1.35,1.0,1.43,-0.14,0.72,-17,-3,-22,1.43,8886,18,79,42,31,862,478.0,652,463,60,121.0,133,1,295,185,62,0,0,765,16648,17628,461,-5.59,,,,,,,,,,,,
48923,1564133082970,5,2.23,0.95,0.45,1.34,1.0,1.4,-0.14,0.76,-17,-2,-22,1.4,8840,18,79,42,31,858,474.0,641,468,60,124.0,133,1,295,185,62,0,0,471,16648,12552,462,-5.59,,,,,,,,,,,,
48943,1564133082990,5,2.23,0.95,0.44,1.35,1.0,1.28,-0.1,0.74,-16,-0,-21,1.29,8836,18,79,42,31,855,474.0,643,466,60,123.0,133,1,295,185,62,0,0,471,-9203,17628,460,-5.59,44.6814,10.024879,48.26,176.3,0,0.0,-1,0.0,0.0,0,0.32,0.8157
48963,1564133083006,4,2.23,0.95,0.45,1.35,1.0,1.12,0.03,0.71,-15,2,-21,1.12,8798,18,79,42,31,859,471.0,643,466,60,123.0,133,1,295,185,61,0,0,471,-9203,17628,460,-5.59,,,,,,,,,,,,
48983,1564133083026,8,2.23,0.95,0.45,1.35,1.0,0.94,0.15,0.65,-14,3,-20,0.95,8757,18,79,42,31,863,468.0,649,465,60,124.0,133,1,295,185,61,0,0,471,-16384,-26615,454,-5.59,,,,,,,,,,,,
49003,1564133083046,6,2.23,0.95,0.45,1.35,1.0,1.01,0.17,0.58,-14,2,-19,1.03,8720,18,79,42,31,871,466.0,646,468,60,124.0,133,1,295,185,61,0,0,471,-16384,-26615,454,-5.59,,,,,,,,,,,,
49023,1564133083066,7,2.22,0.96,0.45,1.34,1.0,1.1,0.11,0.59,-13,0,-19,1.1,8692,18,79,42,31,879,464.0,643,466,60,123.0,133,1,295,110,61,0,0,471,16408,-8985,452,-5.59,,,,,,,,,,,,
49043,1564133083092,7,2.21,0.96,0.45,1.35,1.01,1.12,0.07,0.55,-14,-0,-18,1.12,8624,18,79,42,31,901,464.0,647,468,60,124.0,133,1,295,185,61,0,0,457,16408,2524,450,-5.59,44.681419,10.024854,45.63,176.3,0,0.0,-1,0.0,0.0,0,0.32,0.8174
49063,1564133083112,5,2.21,0.95,0.45,1.35,1.0,0.99,0.17,0.52,-13,1,-18,1.0,8608,18,79,42,31,922,460.0,646,466,60,124.0,134,1,295,185,60,0,0,457,16408,2524,450,-5.59,,,,,,,,,,,,
49083,1564133083132,10,2.19,0.96,0.45,1.34,1.01,0.98,0.3,0.57,-13,0,-17,1.03,8589,18,79,42,31,936,460.0,645,464,60,124.0,134,1,295,185,60,0,0,458,-23623,10305,447,-5.59,,,,,,,,,,,,
49103,1564133083152,10,2.19,0.95,0.45,1.35,1.0,1.09,0.25,0.55,-14,0,-17,1.12,8530,18,79,42,32,949,458.0,641,463,60,123.0,134,1,300,185,60,0,0,458,17628,-28332,441,-5.59,,,,,,,,,,,,
49123,1564133083172,8,2.18,0.96,0.45,1.35,1.0,1.03,0.23,0.43,-15,1,-17,1.05,8549,18,79,42,32,961,456.0,638,466,60,124.0,134,1,300,185,60,0,0,458,17628,-28332,441,-5.59,,,,,,,,,,,,
49143,1564133083192,10,2.17,0.96,0.45,1.35,1.01,0.96,0.35,0.47,-14,2,-17,1.02,8499,18,80,42,32,972,456.0,643,466,60,123.0,134,1,299,184,60,0,0,455,14488,-3322,433,-5.59,44.681423,10.024841,44.68,176.3,0,0.0,-1,0.0,0.0,0,0.32,0.819
49163,1564133083212,9,2.17,0.95,0.45,1.35,1.0,1.06,0.35,0.49,-15,1,-18,1.12,8461,18,79,42,32,975,454.0,645,463,60,122.0,134,1,299,108,60,0,0,459,2524,243,433,-5.59,,,,,,,,,,,,
49183,1564133083232,8,2.17,0.96,0.45,1.35,1.0,0.95,0.38,0.36,-15,1,-18,1.03,8385,18,79,42,32,974,452.0,638,462,60,124.0,133,1,297,180,58,0,0,459,2524,243,433,-5.59,,,,,,,,,,,,
49203,1564133083252,10,2.15,0.96,0.45,1.34,1.01,1.04,0.51,0.44,-15,0,-18,1.16,8325,18,80,42,32,964,450.0,643,466,60,123.0,133,1,296,182,58,0,0,452,-6387,31796,428,-5.59,,,,,,,,,,,,
49223,1564133083272,6,2.14,0.95,0.45,1.35,1.0,1.02,0.41,0.36,-16,1,-19,1.1,8296,18,80,42,33,953,451.0,640,466,60,122.0,133,1,297,180,58,0,0,449,-3267,31796,426,-5.59,,,,,,,,,,,,
49243,1564133083292,9,2.11,0.96,0.45,1.35,1.0,1.06,0.54,0.46,-16,1,-20,1.18,8191,18,79,42,33,944,450.0,641,464,60,122.0,133,1,295,177,58,0,0,452,-3267,13180,420,-5.59,44.681431,10.024828,43.56,176.4,0,0.0,-1,0.0,0.0,0,0.32,0.8207
49263,1564133083312,7,2.1,0.95,0.45,1.35,1.0,0.96,0.47,0.36,-17,2,-21,1.07,8071,18,80,42,34,935,448.0,632,463,60,123.0,129,1,296,178,54,0,0,452,-3267,13180,420,-5.59,,,,,,,,,,,,
49283,1564133083332,8,2.07,0.95,0.45,1.35,1.0,1.06,0.49,0.52,-18,1,-22,1.17,7978,18,79,42,35,925,449.0,634,462,60,123.0,129,1,298,177,54,0,0,447,15649,-26615,410,-5.59,,,,,,,,,,,,
49303,1564133083352,8,2.05,0.96,0.44,1.35,1.0,0.96,0.64,0.42,-19,2,-24,1.15,7975,18,79,42,35,917,449.0,631,463,60,123.0,129,1,298,182,54,0,0,447,15649,2524,410,-5.59,,,,,,,,,,,,
49323,1564133083372,5,2.02,0.95,0.44,1.35,1.0,0.85,0.62,0.35,-20,2,-25,1.05,7908,18,80,42,35,914,448.0,627,467,60,123.0,129,1,298,182,54,0,0,447,15649,2524,408,-5.59,,,,,,,,,,,,
49343,1564133083392,2,2.02,0.95,0.45,1.35,1.0,0.97,0.59,0.46,-22,1,-26,1.14,7825,18,79,42,36,914,447.0,627,465,60,123.0,129,1,301,188,54,0,0,448,8488,18584,406,-5.59,44.681438,10.024815,42.19,176.4,0,0.0,-1,0.0,0.0,0,0.32,0.8224
49363,1564133083412,5,2.01,0.95,0.45,1.34,1.0,1.06,0.69,0.51,-23,-0,-29,1.27,7845,18,80,42,36,915,448.0,631,463,60,122.0,141,1,301,194,57,0,0,444,10305,9517,404,-5.59,,,,,,,,,,,,
49383,1564133083432,7,2.0,0.95,0.44,1.35,1.0,0.96,0.82,0.44,-24,-0,-30,1.27,7763,18,80,42,37,916,447.0,633,465,60,123.0,141,1,304,194,57,0,0,445,16648,-8151,399,-5.59,,,,,,,,,,,,
49403,1564133083452,7,2.0,0.95,0.44,1.34,1.0,0.8,0.88,0.37,-25,2,-31,1.19,7763,18,80,42,37,917,443.0,625,464,60,124.0,141,1,304,194,57,0,0,445,16648,-8151,399,-5.59,,,,,,,,,,,,
49423,1564133083472,4,1.97,0.95,0.45,1.34,1.0,0.81,0.84,0.35,-26,1,-33,1.17,7738,18,80,42,38,917,441.0,627,463,60,123.0,141,1,307,194,57,0,0,440,-18341,6512,396,-5.59,,,,,,,,,,,,
49443,1564133083491,4,1.95,0.94,0.45,1.34,0.99,0.93,0.77,0.4,-28,-1,-34,1.21,7747,18,80,42,38,916,438.0,630,466,60,122.0,141,1,307,200,57,0,0,1478,23400,-31744,392,-5.59,44.681442,10.024801,41.83,176.5,0,0.0,-1,0.0,0.0,0,0.32,0.824
49463,1564133083511,5,1.92,0.95,0.45,1.34,1.0,1.04,0.8,0.41,-29,-1,-35,1.32,7703,18,80,42,38,912,436.0,627,466,60,123.0,141,1,307,200,57,0,0,1478,5600,-992,390,-5.59,,,,,,,,,,,,
49483,1564133083531,6,1.9,0.95,0.44,1.34,1.0,1.05,0.91,0.38,-30,-2,-35,1.4,7659,18,80,42,38,909,436.0,628,464,60,122.0,148,1,307,200,58,0,0,1478,243,8200,383,-5.59,,,,,,,,,,,,
49503,1564133083551,6,1.89,0.95,0.44,1.34,1.0,0.99,1.01,0.32,-31,-2,-37,1.42,7693,18,80,42,39,906,434.0,627,463,60,121.0,148,1,310,205,58,0,0,1478,243,8200,383,-5.59,,,,,,,,,,,,
49523,1564133083571,8,1.87,0.94,0.44,1.34,1.0,0.86,1.11,0.17,-31,-1,-38,1.41,7656,18,80,42,39,901,431.0,632,464,60,123.0,148,1,310,205,58,0,0,426,-768,-6656,380,-5.59,,,,,,,,,,,,
49543,1564133083591,7,1.87,0.95,0.44,1.35,1.0,0.77,1.17,0.13,-32,0,-40,1.41,7653,18,80,42,39,895,431.0,630,461,60,122.0,148,1,310,205,58,0,0,211,-3322,230,373,-5.59,44.681442,10.024788,40.72,176.5,0,0.0,-1,0.0,0.0,0,0.32,0.8257
49563,1564133083611,7,1.85,0.95,0.44,1.34,0.99,0.71,1.21,0.11,-33,0,-42,1.4,7548,18,80,42,39,890,432.0,626,463,60,122.0,148,1,310,205,58,0,0,427,-3322,-18948,373,-5.59,,,,,,,,,,,,
49583,1564133083631,7,1.85,0.94,0.44,1.35,0.99,0.68,1.21,0.09,-34,1,-43,1.39,7539,18,80,42,39,887,431.0,620,463,60,122.0,155,1,310,205,58,0,0,427,-3322,-18948,373,-5.59,,,,,,,,,,,,
49603,1564133083651,3,1.85,0.95,0.45,1.34,0.99,0.56,1.23,0.07,-36,2,-44,1.36,7488,18,80,42,40,885,428.0,619,466,60,123.0,155,1,317,205,58,0,0,432,1779,17144,367,-5.59,,,,,,,,,,,,
49623,1564133083671,4,1.85,0.94,0.45,1.34,1.0,0.54,1.21,0.05,-37,3,-45,1.33,7497,18,80,42,40,883,427.0,619,463,60,123.0,155,1,317,205,58,0,0,428,31796,-1818,368,-5.59,,,,,,,,,,,,
49643,1564133083691,3,1.85,0.95,0.45,1.34,1.0,0.55,1.24,0.06,-38,3,-46,1.36,7470,18,80,42,40,881,431.0,621,465,60,123.0,155,1,317,205,58,0,0,429,1779,1504,371,-5.59,44.681446,10.024775,39.5,176.5,0,0.0,-1,0.0,0.0,0,0.33,0.8274
49663,1564133083711,2,1.85,0.94,0.45,1.34,1.0,0.51,1.28,0.04,-39,3,-48,1.38,7503,18,80,42,40,881,426.0,619,461,60,123.0,156,1,317,206,58,0,0,429,1779,1504,371,-5.59,,,,,,,,,,,,
49683,1564133083731,3,1.84,0.94,0.44,1.35,1.0,0.4,1.28,0.03,-39,4,-49,1.34,7494,18,80,42,40,883,427.0,618,464,60,123.0,156,1,317,205,58,0,0,430,13552,6512,370,-5.59,,,,,,,,,,,,
49703,1564133083751,3,1.84,0.95,0.45,1.34,1.0,0.35,1.28,0.05,-39,4,-51,1.32,7539,18,80,42,40,887,425.0,622,463,60,123.0,156,1,317,208,58,0,0,425,-3856,11545,368,-5.59,,,,,,,,,,,,
49723,1564133083771,2,1.85,0.95,0.45,1.34,1.0,0.38,1.29,0.07,-40,4,-51,1.34,7533,18,80,42,41,891,423.0,620,463,60,123.0,156,1,325,208,58,0,0,425,-3856,11545,368,-5.59,,,,,,,,,,,,
49743,1564133083791,3,1.85,0.95,0.44,1.35,1.0,0.4,1.25,0.1,-41,4,-52,1.31,7591,18,80,42,40,895,421.0,623,461,60,123.0,156,1,317,206,58,0,0,422,-3414,9517,367,-5.59,44.681446,10.02476,38.64,176.5,0,0.0,-1,0.0,0.0,0,0.33,0.829
49763,1564133083811,-1,1.86,0.95,0.44,1.35,1.0,0.42,1.15,0.16,-41,3,-53,1.23,7566,19,80,42,41,899,420.0,626,465,60,123.0,156,1,325,208,58,0,0,422,-3414,9517,367,-5.59,,,,,,,,,,,,
49783,1564133083831,-0,1.84,0.95,0.44,1.34,1.0,0.57,1.16,0.21,-42,2,-52,1.29,7646,39,80,42,44,904,416.0,628,464,60,123.0,161,1,347,236,59,0,0,419,-21944,-26615,365,-5.59,,,,,,,,,,,,
49803,1564133083851,-1,1.85,0.95,0.44,1.35,1.0,0.71,1.13,0.3,-43,0,-53,1.34,7678,56,80,42,52,910,414.0,623,465,60,123.0,161,1,384,274,59,0,0,419,18584,-4059,365,-5.59,,,,,,,,,,,,
49823,1564133083871,2,1.85,0.95,0.44,1.34,1.0,0.84,1.14,0.35,-43,-2,-53,1.42,7751,71,80,42,63,912,413.0,630,465,60,122.0,161,1,441,342,59,0,0,420,2524,-4059,364,-5.59,,,,,,,,,,,,
49843,1564133083891,1,1.87,0.95,0.44,1.34,1.0,0.95,1.17,0.31,-44,-2,-51,1.51,7719,86,80,42,77,914,416.0,630,462,60,122.0,161,1,421,481,59,0,0,412,-9166,-4059,362,-5.59,44.68145,10.024747,37.85,176.5,0,0.0,-1,0.0,0.0,0,0.33,0.8307
49863,1564133083911,1,1.87,0.95,0.44,1.34,1.01,0.93,1.26,0.27,-44,-2,-52,1.56,7594,95,80,42,87,919,414.0,630,466,60,122.0,440,1,415,554,159,0,0,413,-26615,10392,362,-5.59,,,,,,,,,,,,
49883,1564133083931,3,1.89,0.94,0.45,1.34,1.0,0.93,1.27,0.23,-44,-1,-53,1.57,7653,100,80,42,92,924,415.0,618,464,60,122.0,440,1,420,487,159,0,0,411,-26615,2524,359,-5.59,,,,,,,,,,,,
49903,1564133083951,4,1.9,0.95,0.44,1.35,1.0,0.93,1.22,0.26,-44,0,-52,1.54,7825,100,80,42,92,927,417.0,627,463,60,123.0,440,1,434,569,159,0,0,411,-26615,2524,359,-5.59,,,,,,,,,,,,
49923,1564133083971,1,1.94,0.95,0.44,1.35,1.0,0.98,1.11,0.28,-45,-1,-54,1.48,8241,100,80,42,92,930,417.0,632,464,60,121.0,440,1,442,579,159,0,0,412,-21944,-26615,358,-5.59,,,,,,,,,,,,
49943,1564133083991,-0,1.96,0.95,0.45,1.34,1.01,0.88,1.2,0.28,-44,-0,-56,1.49,8765,100,80,42,89,1006,416.0,642,466,60,122.0,440,1,426,617,159,0,0,416,18584,2524,357,-5.59,44.68145,10.024747,37.85,176.5,0,0.0,-1,0.0,0.0,0,0.33,0.8324
49963,1564133084005,1,1.98,0.95,0.44,1.35,1.0,0.69,1.28,0.22,-42,0,-55,1.45,9305,100,80,42,88,1082,417.0,653,467,60,122.0,440,1,418,595,159,0,0,416,-21944,-26615,357,-5.59,,,,,,,,,,,,
49983,1564133084025,1,2.01,0.95,0.45,1.34,1.0,0.68,1.15,0.28,-41,3,-57,1.33,9498,100,80,42,87,1155,417.0,652,472,60,122.0,588,1,418,584,210,0,0,416,-21944,-26615,357,-5.59,,,,,,,,,,,,
50003,1564133084045,3,2.04,0.95,0.44,1.35,1.0,0.73,0.91,0.4,-42,3,-61,1.17,9561,100,80,42,87,1228,425.0,661,463,60,122.0,588,1,417,586,210,0,0,445,-21944,15661,358,-5.59,,,,,,,,,,,,
50023,1564133084065,0,2.06,0.95,0.44,1.35,1.0,0.78,0.91,0.56,-42,6,-61,1.2,9915,100,80,42,86,1286,428.0,660,466,60,123.0,588,1,400,581,210,0,0,482,-3856,28675,358,-5.59,,,,,,,,,,,,
50043,1564133084091,1,2.06,0.95,0.44,1.35,1.0,0.84,0.88,0.64,-44,5,-60,1.22,9978,100,80,42,86,1345,425.0,664,460,60,123.0,588,1,397,584,210,0,0,469,-3856,21432,368,-5.59,44.681446,10.02472,36.63,176.5,0,0.0,-1,0.0,0.0,0,0.33,0.834
50063,1564133084111,3,2.07,0.94,0.44,1.35,1.0,0.86,0.76,0.73,-45,6,-59,1.14,9635,100,80,42,86,1349,434.0,660,468,60,121.0,564,1,413,576,210,0,0,469,-3856,21432,368,-5.59,,,,,,,,,,,,
50083,1564133084131,3,2.12,0.95,0.45,1.35,1.01,0.79,0.81,0.68,-45,7,-59,1.13,9431,100,80,42,86,1334,439.0,653,462,60,122.0,564,1,418,573,210,0,0,492,-768,2216,372,-5.59,,,,,,,,,,,,
50103,1564133084151,1,2.14,0.96,0.45,1.35,1.0,0.56,0.91,0.71,-44,5,-59,1.07,9412,100,80,42,86,1309,442.0,652,466,60,123.0,564,1,418,584,210,0,0,529,20625,-23623,369,-5.59,,,,,,,,,,,,
50123,1564133084171,2,2.16,0.95,0.45,1.35,1.01,0.61,0.83,0.84,-44,4,-59,1.02,9393,100,80,43,86,1280,445.0,647,466,60,123.0,564,1,418,573,210,0,0,523,23400,3576,368,-5.59,,,,,,,,,,,,
50143,1564133084191,3,2.18,0.96,0.44,1.35,1.01,0.75,0.68,0.84,-44,2,-58,1.01,9319,100,80,42,86,1262,449.0,648,465,60,123.0,564,1,418,573,210,0,0,504,2131,-1923,368,-5.59,44.681442,10.024707,38.78,176.4,0,0.0,-1,0.0,0.0,0,0.33,0.8357
50163,1564133084211,3,2.22,0.95,0.45,1.35,1.01,0.66,0.78,0.81,-43,-0,-59,1.02,9450,100,80,42,87,1248,451.0,652,465,60,123.0,531,1,418,584,209,0,0,507,15649,1760,379,-5.59,,,,,,,,,,,,
50183,1564133084231,2,2.24,0.95,0.44,1.35,1.0,0.61,0.86,0.83,-42,-0,-57,1.05,9679,100,80,42,86,1232,454.0,651,468,60,123.0,531,1,411,591,209,0,0,516,3571,-9072,396,-5.59,,,,,,,,,,,,
50203,1564133084251,3,2.26,0.96,0.44,1.36,1.0,0.75,0.77,0.94,-42,-3,-57,1.07,9791,100,80,43,86,1217,457.0,663,463,60,124.0,531,1,406,581,209,0,0,506,2524,-9203,407,-5.59,,,,,,,,,,,,
50223,1564133084271,1,2.28,0.96,0.45,1.34,1.01,0.72,0.7,1.04,-41,-1,-56,1.01,9847,100,80,43,86,1208,461.0,658,465,60,123.0,531,1,403,582,209,0,0,532,2211,2211,415,-5.59,,,,,,,,,,,,
50243,1564133084291,-0,2.29,0.95,0.45,1.34,1.01,0.71,0.65,0.99,-40,-2,-53,0.97,10075,100,80,43,86,1207,464.0,662,463,60,123.0,531,1,401,585,209,0,0,532,2211,2211,415,-5.59,44.681438,10.024694,42.19,176.4,0,0.0,-1,0.0,0.0,0,0.33,0.8374
50263,1564133084311,2,2.32,0.96,0.45,1.35,1.01,0.78,0.59,1.05,-39,-0,-53,0.98,10140,100,80,42,86,1205,469.0,665,468,60,122.0,524,1,405,585,225,0,0,532,30272,2109,421,-5.59,,,,,,,,,,,,
50283,1564133084331,3,2.33,0.96,0.45,1.35,1.01,0.87,0.49,1.14,-38,0,-52,1.0,10223,100,80,43,85,1202,471.0,661,467,60,123.0,524,1,411,567,225,0,0,533,10432,2524,429,-5.59,,,,,,,,,,,,
50303,1564133084351,3,2.33,0.96,0.45,1.35,1.01,0.8,0.51,1.22,-37,2,-50,0.95,10296,100,80,43,86,1200,475.0,661,463,60,123.0,524,1,417,585,225,0,0,531,-17956,1780,443,-5.59,,,,,,,,,,,,
50323,1564133084371,2,2.33,0.96,0.44,1.36,1.01,0.73,0.56,1.12,-36,0,-46,0.92,10296,100,80,43,85,1199,478.0,661,465,60,123.0,524,1,418,585,225,0,0,531,-17956,1780,443,-5.59,,,,,,,,,,,,
50343,1564133084391,1,2.32,0.96,0.44,1.35,1.01,0.54,0.7,0.99,-34,-0,-42,0.89,10324,100,80,43,86,1194,481.0,658,467,60,123.0,524,1,419,585,225,0,0,539,16648,14504,450,-5.59,44.681431,10.024681,44.07,176.4,0,0.0,-1,0.0,0.0,0,0.33,0.839
50363,1564133084411,0,2.31,0.96,0.44,1.36,1.01,0.45,0.8,0.83,-31,0,-39,0.92,10257,100,80,43,85,1186,486.0,658,463,60,123.0,524,1,413,585,225,0,0,553,505,-28648,456,-5.59,,,,,,,,,,,,
50383,1564133084431,3,2.31,0.96,0.45,1.36,1.01,0.49,0.89,0.77,-29,-0,-37,1.02,10257,100,80,43,85,1178,490.0,653,465,60,122.0,482,1,413,585,220,0,0,561,-1818,-30064,460,-5.59,,,,,,,,,,,,
50403,1564133084451,3,2.29,0.96,0.45,1.35,1.01,0.56,0.78,0.89,-27,1,-35,0.96,10212,100,80,43,85,1170,495.0,647,460,60,122.0,482,1,410,567,220,0,0,546,771,-22519,473,-5.59,,,,,,,,,,,,
50423,1564133084471,2,2.29,0.96,0.44,1.35,1.01,0.6,0.67,1.0,-26,3,-33,0.9,10257,100,80,43,85,1158,501.0,655,465,60,122.0,482,1,413,585,220,0,0,544,11560,6273,482,-5.59,,,,,,,,,,,,
50443,1564133084491,0,2.3,0.96,0.44,1.35,1.01,0.59,0.54,1.03,-24,2,-32,0.8,10307,100,80,43,86,1141,506.0,652,464,60,123.0,482,1,417,567,220,0,0,551,-3414,-9072,486,-5.59,44.681431,10.024681,44.07,176.4,0,0.0,-1,0.0,0.0,0,0.33,0.8407
50463,1564133084510,0,2.3,0.96,0.44,1.35,1.02,0.45,0.63,0.96,-22,1,-29,0.78,10313,100,80,43,86,1126,510.0,653,465,60,123.0,461,1,418,585,229,0,0,551,-3414,-9072,486,-5.59,,,,,,,,,,,,
50483,1564133084530,1,2.29,0.96,0.45,1.36,1.01,0.38,0.71,0.87,-20,1,-27,0.81,10370,100,80,43,86,1115,516.0,662,465,60,123.0,461,1,422,585,229,0,0,556,-4054,2524,496,-5.59,,,,,,,,,,,,
50503,1564133084550,2,2.29,0.96,0.45,1.35,1.01,0.33,0.81,0.72,-18,-1,-25,0.87,10370,100,80,43,86,1105,520.0,659,467,60,123.0,461,1,422,585,229,0,0,557,-22519,1779,512,-5.59,,,,,,,,,,,,
50523,1564133084570,-0,2.27,0.96,0.45,1.36,1.01,0.31,0.82,0.74,-17,-0,-23,0.88,10457,100,80,42,86,1092,527.0,660,462,60,123.0,461,1,429,585,229,0,0,557,-22519,1779,512,-5.59,,,,,,,,,,,,
50543,1564133084592,2,2.26,0.96,0.45,1.36,1.01,0.45,0.82,0.74,-16,1,-21,0.93,10457,100,80,42,85,1082,532.0,660,466,60,122.0,461,1,428,585,229,0,0,565,14504,-32504,525,-5.59,44.681419,10.024653,50.1,176.3,0,0.0,-1,0.0,0.0,0,0.34,0.8424
50563,1564133084612,-4,2.23,0.96,0.44,1.36,1.01,0.46,0.87,0.81,-15,-2,-21,0.99,10515,100,80,42,85,1080,539.0,651,465,60,123.0,461,1,431,567,229,0,0,562,1780,2211,529,-5.59,,,,,,,,,,,,
50583,1564133084632,1,2.23,0.96,0.45,1.36,1.01,0.44,0.97,0.78,-14,-1,-21,1.06,10533,100,80,42,86,1077,544.0,642,463,60,123.0,427,1,432,585,226,0,0,562,1780,2211,529,-5.59,,,,,,,,,,,,
50603,1564133084652,0,2.22,0.96,0.44,1.36,1.01,0.43,0.96,0.7,-14,0,-19,1.06,10647,100,80,42,85,1072,550.0,652,459,60,122.0,427,1,434,567,226,0,0,569,-506,-8186,533,-5.59,,,,,,,,,,,,
50623,1564133084672,1,2.21,0.96,0.44,1.36,1.01,0.49,1.01,0.65,-14,-2,-18,1.12,10665,100,80,42,85,1067,559.0,663,465,60,123.0,427,1,435,567,226,0,0,573,-9072,-8186,540,-5.59,,,,,,,,,,,,
50643,1564133084692,2,2.21,0.96,0.45,1.35,1.01,0.34,1.01,0.57,-14,-2,-16,1.06,10788,100,80,42,85,1064,564.0,663,468,60,123.0,427,1,438,567,226,0,0,589,12552,-4035,548,-5.59,44.681408,10.02464,52.73,176.3,0,0.0,-1,0.0,0.0,0,0.34,0.844
50663,1564133084712,1,2.21,0.96,0.45,1.35,1.02,0.33,0.81,0.65,-14,-1,-16,0.87,10907,100,80,42,85,1060,569.0,659,465,60,123.0,424,1,441,567,234,0,0,589,12552,-4035,548,-5.59,,,,,,,,,,,,
50683,1564133084732,3,2.22,0.96,0.45,1.36,1.01,0.41,0.78,0.79,-14,-1,-18,0.88,10984,100,80,42,85,1056,571.0,668,463,60,123.0,424,1,443,567,234,0,0,587,1267,8488,551,-5.59,,,,,,,,,,,,
50703,1564133084752,2,2.21,0.96,0.44,1.35,1.01,0.4,0.82,0.73,-14,-0,-17,0.91,11160,100,80,42,85,1051,577.0,663,463,60,123.0,424,1,443,567,234,0,0,587,1267,17344,556,-5.59,,,,,,,,,,,,
50723,1564133084772,4,2.21,0.95,0.45,1.36,1.01,0.39,0.68,0.77,-14,-2,-16,0.78,11288,100,80,42,85,1049,582.0,661,465,60,122.0,424,1,442,567,234,0,0,605,15649,-7939,565,-5.59,,,,,,,,,,,,
50743,1564133084792,3,2.21,0.96,0.44,1.36,1.01,0.39,0.81,0.75,-13,-3,-15,0.9,11356,100,80,42,85,1048,586.0,671,465,60,122.0,424,1,441,567,234,0,0,605,15649,-7939,565,-5.59,44.6814,10.024626,55.19,176.2,0,0.0,-1,0.0,0.0,0,0.34,0.8457
50763,1564133084812,0,2.22,0.96,0.45,1.36,1.01,0.51,0.69,0.87,-14,-3,-16,0.86,11517,100,80,42,84,1043,594.0,674,466,60,122.0,417,1,440,549,240,0,0,612,-1894,3403,569,-5.59,,,,,,,,,,,,
50783,1564133084832,3,2.21,0.96,0.45,1.36,1.01,0.47,0.58,0.74,-14,-2,-16,0.75,11602,100,80,42,84,1038,595.0,666,467,60,122.0,417,1,440,552,240,0,0,622,-16179,6208,577,-5.59,,,,,,,,,,,,
50803,1564133084852,3,2.22,0.96,0.44,1.36,1.01,0.35,0.71,0.68,-13,0,-16,0.79,11755,100,80,42,84,1035,604.0,675,467,60,122.0,417,1,440,555,240,0,0,624,5344,-4876,583,-5.59,,,,,,,,,,,,
50823,1564133084872,3,2.21,0.96,0.45,1.36,1.02,0.27,0.84,0.75,-13,3,-17,0.89,11852,100,80,42,84,1032,607.0,667,471,60,122.0,417,1,440,557,240,0,0,624,5344,-4876,583,-5.59,,,,,,,,,,,,
50843,1564133084892,3,2.21,0.96,0.45,1.36,1.01,0.21,0.96,0.87,-13,3,-17,0.98,11889,100,80,42,84,1012,609.0,680,467,60,123.0,417,1,440,558,240,0,0,641,-30139,-16046,592,-5.59,44.681389,10.024612,57.3,176.2,0,0.0,-1,0.0,0.0,0,0.34,0.8474
50863,1564133084912,3,2.22,0.96,0.44,1.36,1.01,0.23,1.03,0.98,-13,5,-17,1.05,11927,100,80,42,84,992,616.0,663,466,60,122.0,424,1,440,559,253,0,0,641,-30139,-16046,592,-5.59,,,,,,,,,,,,
50883,1564133084932,1,2.22,0.96,0.44,1.35,1.01,0.26,1.04,1.07,-14,4,-18,1.07,11980,100,80,42,84,973,620.0,675,468,60,123.0,424,1,440,560,253,0,0,641,19304,6208,596,-5.59,,,,,,,,,,,,
50903,1564133084952,2,2.22,0.96,0.44,1.36,1.01,0.26,1.05,1.15,-14,2,-18,1.08,12112,100,80,42,84,956,623.0,666,468,60,122.0,424,1,440,560,253,0,0,640,19320,-10344,599,-5.59,,,,,,,,,,,,
50923,1564133084972,2,2.22,0.96,0.45,1.35,1.01,0.21,1.12,1.2,-14,2,-18,1.14,12222,100,80,42,84,930,629.0,671,468,60,122.0,424,1,440,560,253,0,0,655,-14655,479,606,-5.59,,,,,,,,,,,,
50943,1564133084992,3,2.22,0.95,0.44,1.37,1.01,0.15,1.21,1.19,-13,2,-18,1.22,12270,100,80,42,84,902,632.0,677,469,60,121.0,424,1,440,560,253,0,0,655,-14655,479,606,-5.59,44.681389,10.024612,57.3,176.2,0,0.0,-1,0.0,0.0,0,0.34,0.849
50963,1564133085006,4,2.23,0.96,0.44,1.36,1.01,0.1,1.19,1.15,-13,3,-17,1.2,12384,100,80,42,84,888,640.0,678,466,60,122.0,424,1,440,501,253,0,0,663,24,-10344,619,-5.59,,,,,,,,,,,,
50983,1564133085026,1,2.24,0.96,0.44,1.36,1.01,0.17,0.98,1.19,-13,4,-18,1.0,12466,100,80,42,84,878,642.0,681,466,60,122.0,424,1,440,560,263,0,0,663,24,-10344,619,-5.59,,,,,,,,,,,,
51003,1564133085046,4,2.24,0.95,0.44,1.37,1.01,0.27,0.96,1.27,-13,5,-18,1.0,12567,100,80,42,84,863,647.0,682,470,60,122.0,424,1,440,560,263,0,0,665,-2830,-27404,623,-5.59,,,,,,,,,,,,
51023,1564133085066,4,2.24,0.96,0.44,1.37,1.01,0.3,1.07,1.17,-13,6,-17,1.11,12600,100,80,42,84,845,651.0,679,464,60,122.0,424,1,440,560,263,0,0,678,2024,-2830,633,-5.59,,,,,,,,,,,,
51043,1564133085092,2,2.24,0.96,0.45,1.37,1.02,0.28,1.0,1.24,-13,5,-16,1.04,12609,100,80,42,84,834,653.0,687,462,60,122.0,424,1,440,560,263,0,0,674,-3488,-10344,638,-5.59,44.681366,10.024584,62.12,176.1,0,0.0,-1,0.0,0.0,0,0.34,0.8507
51063,1564133085112,4,2.24,0.96,0.45,1.36,1.02,0.28,0.86,1.29,-13,6,-16,0.9,12600,100,80,42,84,825,659.0,681,463,60,122.0,419,1,440,560,269,0,0,674,-3488,-10344,638,-5.59,,,,,,,,,,,,
51083,1564133085132,2,2.24,0.96,0.45,1.37,1.01,0.34,0.81,1.21,-13,5,-16,0.88,12651,100,80,42,84,813,659.0,680,460,60,122.0,419,1,440,560,269,0,0,675,-26380,-3584,642,-5.59,,,,,,,,,,,,
51103,1564133085152,4,2.24,0.96,0.45,1.37,1.01,0.3,0.92,1.19,-11,5,-15,0.97,12737,100,80,42,84,799,666.0,676,460,60,122.0,419,1,440,560,269,0,0,680,-10348,16118,648,-5.59,,,,,,,,,,,,
51123,1564133085172,1,2.24,0.97,0.45,1.36,1.02,0.44,0.67,1.23,-11,4,-17,0.8,12851,100,80,42,84,789,669.0,683,467,60,121.0,419,1,440,560,269,0,0,680,-10348,16118,648,-5.59,,,,,,,,,,,,
51143,1564133085192,4,2.24,0.97,0.45,1.36,1.02,0.35,0.8,1.16,-11,5,-16,0.87,12860,100,80,42,84,783,678.0,682,467,60,122.0,419,1,440,560,269,0,0,695,-10344,-3888,659,-5.59,44.681354,10.02457,64.33,176.0,0,0.0,-1,0.0,0.0,0,0.34,0.8524
51163,1564133085212,2,2.23,0.97,0.45,1.37,1.02,0.41,0.67,1.2,-11,5,-17,0.78,12939,100,80,42,84,777,679.0,680,472,60,122.0,414,1,440,560,275,0,0,695,-10344,-3888,659,-5.59,,,,,,,,,,,,
51183,1564133085232,-0,2.24,0.96,0.45,1.37,1.02,0.43,0.72,1.05,-11,5,-15,0.84,13121,100,80,42,84,770,684.0,683,466,60,122.0,414,1,440,560,275,0,0,703,24845,11069,666,-5.59,,,,,,,,,,,,
51203,1564133085252,-1,2.24,0.96,0.45,1.36,1.02,0.42,0.62,1.14,-11,4,-15,0.75,12703,100,81,42,84,768,688.0,682,454,60,125.0,414,1,440,560,275,0,0,700,24,-2830,669,414.87,,,,,,,,,,,,
51223,1564133085272,-0,2.23,0.96,0.45,1.36,1.02,0.46,0.65,1.14,-11,2,-16,0.8,12183,100,81,42,84,770,689.0,667,456,60,124.0,414,1,440,560,275,0,0,697,6208,-10346,673,414.87,,,,,,,,,,,,
51243,1564133085292,-0,2.23,0.96,0.45,1.36,1.01,0.51,0.64,1.06,-11,1,-16,0.82,11919,100,81,42,85,772,685.0,667,454,60,124.0,414,1,440,575,275,0,0,690,-10399,-3578,672,-5.59,44.681343,10.024556,65.82,176.0,0,0.0,-1,0.0,0.0,0,0.35,0.854
51263,1564133085312,-1,2.23,0.96,0.44,1.36,1.01,0.55,0.71,0.97,-12,1,-16,0.9,11711,100,81,42,86,774,687.0,656,456,60,124.0,414,1,440,589,275,0,0,1109,24,-26380,671,181.28,,,,,,,,,,,,
51283,1564133085332,-2,2.24,0.97,0.44,1.37,1.01,0.45,0.83,0.72,-11,3,-16,0.94,11496,100,81,42,86,776,687.0,656,460,60,124.0,388,1,441,1084,261,0,0,1109,24,3543,674,181.28,,,,,,,,,,,,
51303,1564133085352,5,2.24,0.96,0.45,1.36,1.02,0.42,0.7,0.78,-12,1,-14,0.82,10593,100,80,42,87,777,691.0,663,464,60,121.0,388,1,435,1012,261,0,0,1109,24,3543,674,-5.59,,,,,,,,,,,,
51323,1564133085372,3,2.23,0.97,0.45,1.37,1.01,0.31,0.7,0.89,-12,5,-17,0.76,10026,100,80,42,88,826,701.0,656,465,60,121.0,388,1,398,936,261,0,0,1109,1780,-23490,675,-5.59,,,,,,,,,,,,
51343,1564133085392,2,2.23,0.96,0.45,1.36,1.02,0.32,0.65,0.84,-12,8,-15,0.73,10313,100,80,42,87,941,703.0,653,464,60,122.0,388,1,419,808,261,0,0,1109,15647,3462,683,-5.59,44.681328,10.024544,67.08,175.9,0,0.0,-1,0.0,0.0,0,0.35,0.8557
51363,1564133085412,0,2.23,0.96,0.44,1.36,1.01,0.36,0.68,0.93,-13,4,-14,0.77,10434,100,80,42,86,1056,706.0,667,461,60,122.0,388,1,427,675,267,0,0,1109,15647,3462,683,-5.59,,,,,,,,,,,,
51383,1564133085432,0,2.23,0.97,0.44,1.36,1.02,0.39,0.74,0.98,-15,2,-14,0.84,10162,100,80,42,86,1171,711.0,661,465,60,123.0,388,1,407,585,267,0,0,730,687,-2358,688,-5.59,,,,,,,,,,,,
51403,1564133085452,4,2.23,0.96,0.45,1.37,1.01,0.54,0.7,1.0,-16,5,-13,0.89,10118,100,80,42,86,1280,718.0,660,463,60,123.0,388,1,404,585,267,0,0,749,-13072,5876,692,-5.59,,,,,,,,,,,,
51423,1564133085472,3,2.22,0.97,0.44,1.36,1.01,0.56,0.69,1.1,-16,4,-16,0.89,10146,100,80,42,86,1374,716.0,658,464,60,122.0,388,1,406,585,267,0,0,748,-388,-23490,697,-5.59,,,,,,,,,,,,
51443,1564133085491,0,2.23,0.96,0.45,1.36,1.02,0.42,0.76,1.12,-16,3,-16,0.87,10129,100,80,42,85,1448,726.0,656,464,60,123.0,388,1,406,585,267,0,0,748,-388,-23490,697,-5.59,44.681313,10.024529,68.72,175.8,0,0.0,-1,0.0,0.0,0,0.35,0.8574
51463,1564133085511,0,2.23,0.95,0.44,1.37,1.01,0.39,0.89,0.98,-16,3,-16,0.97,10140,100,80,42,86,1425,727.0,658,463,60,123.0,388,1,405,585,267,0,0,752,-3344,-31066,707,-5.59,,,,,,,,,,,,
51483,1564133085531,3,2.22,0.96,0.44,1.37,1.01,0.43,1.0,0.88,-17,3,-16,1.09,10201,100,80,42,85,1388,732.0,659,465,60,122.0,318,1,409,567,225,0,0,752,-3344,-31066,707,-5.59,,,,,,,,,,,,
51503,1564133085551,3,2.23,0.96,0.44,1.36,1.02,0.47,0.92,0.93,-16,2,-16,1.03,10399,100,80,42,85,1295,733.0,661,463,60,122.0,318,1,424,567,225,0,0,756,-2826,-10218,713,-5.59,,,,,,,,,,,,
51523,1564133085571,4,2.23,0.96,0.44,1.37,1.01,0.58,0.76,0.99,-16,1,-16,0.95,10422,100,80,42,85,1203,740.0,667,465,60,123.0,318,1,425,567,225,0,0,759,3462,-3038,712,-5.59,,,,,,,,,,,,
51543,1564133085591,3,2.23,0.97,0.44,1.36,1.01,0.64,0.67,1.08,-16,1,-17,0.92,10474,100,80,42,85,1134,744.0,661,467,60,123.0,318,1,429,567,225,0,0,770,-2314,-2574,722,-5.59,44.681301,10.024518,70.71,175.8,0,0.0,-1,0.0,0.0,0,0.35,0.859
51563,1564133085611,2,2.24,0.96,0.45,1.37,1.01,0.71,0.61,1.17,-16,4,-19,0.93,10474,100,80,42,86,1065,749.0,663,465,60,122.0,319,1,430,585,232,0,0,770,-2314,-2574,722,-5.59,,,,,,,,,,,,
51583,1564133085631,4,2.24,0.97,0.45,1.37,1.01,0.74,0.59,1.22,-16,3,-19,0.95,10635,100,80,42,85,1005,749.0,666,463,60,122.0,319,1,434,567,232,0,0,773,-4096,5344,731,-5.59,,,,,,,,,,,,
51603,1564133085651,4,2.25,0.96,0.45,1.37,1.01,0.81,0.43,1.29,-16,2,-20,0.92,10623,100,80,42,85,946,756.0,666,465,60,123.0,319,1,434,567,232,0,0,785,-31068,-2344,732,-5.59,,,,,,,,,,,,
51623,1564133085671,4,2.24,0.97,0.45,1.36,1.02,0.9,0.36,1.36,-16,3,-20,0.97,10617,100,80,42,85,955,758.0,658,465,60,123.0,319,1,434,567,232,0,0,780,-31066,-31068,738,-5.59,,,,,,,,,,,,
51643,1564133085691,4,2.25,0.96,0.44,1.36,1.02,0.92,0.52,1.37,-16,4,-21,1.06,10587,100,80,42,85,965,763.0,665,463,60,121.0,319,1,433,567,232,0,0,921,-3038,-10212,743,-5.59,44.681282,10.024506,72.83,175.7,0,0.0,-1,0.0,0.0,0,0.35,0.8607
51663,1564133085711,1,2.25,0.96,0.45,1.36,1.01,0.94,0.56,1.27,-15,5,-20,1.1,10702,100,80,42,85,976,764.0,663,463,60,123.0,306,1,436,567,230,0,0,921,6389,5344,745,-5.59,,,,,,,,,,,,
51683,1564133085731,1,2.25,0.96,0.45,1.36,1.02,0.99,0.63,1.16,-15,4,-19,1.18,10683,100,80,42,85,987,769.0,665,464,60,123.0,306,1,435,567,230,0,0,921,6389,-31066,751,-5.59,,,,,,,,,,,,
51703,1564133085751,1,2.25,0.96,0.45,1.37,1.01,0.87,0.76,1.03,-14,1,-16,1.16,10720,100,80,42,85,989,769.0,661,470,60,123.0,306,1,435,567,230,0,0,921,7413,5876,755,-5.59,,,,,,,,,,,,
51723,1564133085771,1,2.25,0.97,0.45,1.36,1.02,0.72,0.67,1.03,-13,0,-15,0.99,10800,100,80,42,85,990,774.0,665,467,60,122.0,306,1,438,567,230,0,0,921,-2570,-31068,756,-5.59,,,,,,,,,,,,
51743,1564133085791,3,2.24,0.97,0.44,1.37,1.01,0.77,0.6,1.13,-13,2,-17,0.97,10850,100,80,42,85,992,776.0,667,460,60,123.0,306,1,440,567,230,0,0,799,-31068,-13312,765,-5.59,44.681263,10.024494,74.43,175.7,0,0.0,-1,0.0,0.0,0,0.36,0.8624
51763,1564133085811,3,2.24,0.97,0.44,1.37,1.01,0.78,0.57,1.17,-13,3,-18,0.97,10939,100,80,42,85,993,781.0,673,468,60,122.0,305,1,442,567,235,0,0,799,-31068,-13312,765,-5.59,,,,,,,,,,,,
51783,1564133085831,2,2.24,0.97,0.45,1.37,1.02,0.8,0.67,1.1,-13,-0,-15,1.04,10984,100,80,42,85,994,785.0,670,466,60,123.0,305,1,444,567,235,0,0,799,5876,16118,768,-5.59,,,,,,,,,,,,
51803,1564133085851,2,2.24,0.97,0.45,1.36,1.02,0.69,0.64,0.98,-13,-1,-14,0.94,11068,100,80,42,85,994,789.0,666,467,60,122.0,305,1,444,567,235,0,0,805,6389,-31068,768,-5.59,,,,,,,,,,,,
51823,1564133085871,2,2.24,0.97,0.45,1.36,1.02,0.69,0.67,1.08,-13,1,-15,0.96,11160,100,80,42,85,995,791.0,666,468,60,121.0,305,1,443,567,235,0,0,823,-2540,-4091,779,-5.59,,,,,,,,,,,,
51843,1564133085891,3,2.24,0.97,0.45,1.37,1.01,0.63,0.68,0.83,-13,3,-15,0.93,11174,100,80,42,85,995,796.0,668,465,60,122.0,305,1,443,567,235,0,0,823,-2540,-4091,779,-5.59,44.681248,10.024484,76.65,175.7,0,0.0,-1,0.0,0.0,0,0.36,0.864
51863,1564133085911,13,2.25,0.97,0.45,1.36,1.02,0.74,0.72,0.94,-13,3,-15,1.03,11127,100,80,42,85,995,795.0,667,466,60,122.0,306,1,443,567,239,0,0,819,-12152,-2314,782,-5.59,,,,,,,,,,,,
51883,1564133085931,23,2.24,0.97,0.45,1.37,1.02,0.72,0.73,0.78,-13,0,-14,1.03,11167,100,80,42,85,994,787.0,669,462,60,123.0,306,1,443,567,239,0,0,820,6389,-388,765,-5.59,,,,,,,,,,,,
51903,1564133085951,30,2.25,0.97,0.45,1.37,1.02,0.72,0.64,0.84,-13,-2,-14,0.97,11114,89,80,42,84,987,788.0,667,463,60,122.0,306,1,442,567,239,0,0,815,-10216,-2918,743,-5.59,,,,,,,,,,,,
51923,1564133085971,31,2.25,0.97,0.45,1.37,1.02,0.85,0.7,0.86,-13,-3,-14,1.11,10997,64,80,42,78,978,785.0,670,466,60,123.0,306,1,443,500,239,0,0,815,-10216,-2918,743,-5.59,,,,,,,,,,,,
51943,1564133085991,35,2.25,0.97,0.45,1.37,1.02,0.72,0.77,0.66,-13,-3,-11,1.06,10920,47,80,42,70,969,783.0,667,464,60,122.0,306,1,447,449,239,0,0,816,-2344,-31066,752,-5.59,44.681248,10.024484,76.65,175.7,0,0.0,-1,0.0,0.0,0,0.36,0.8657
51963,1564133086005,35,2.24,0.97,0.45,1.37,1.02,0.77,0.61,0.71,-13,-1,-13,0.98,10825,32,80,42,62,960,783.0,668,468,60,122.0,306,1,450,391,239,0,0,810,5876,6905,720,-5.59,,,,,,,,,,,,
51983,1564133086025,36,2.25,0.98,0.44,1.37,1.01,0.89,0.59,0.7,-13,-1,-15,1.07,10376,23,80,42,54,945,784.0,666,467,60,122.0,222,1,400,317,160,0,0,810,5876,6905,720,-5.59,,,,,,,,,,,,
52003,1564133086045,32,2.26,0.97,0.44,1.37,1.02,0.84,0.6,0.6,-13,-2,-13,1.03,10016,23,80,42,50,927,781.0,661,469,60,123.0,222,1,388,272,160,0,0,782,-2426,-2344,726,-5.59,,,,,,,,,,,,
52023,1564133086065,30,2.25,0.97,0.44,1.38,1.01,0.81,0.69,0.54,-13,-3,-13,1.07,9811,23,80,42,48,914,778.0,655,470,60,123.0,222,1,382,248,160,0,0,770,-2574,-2344,726,-5.59,,,,,,,,,,,,
52043,1564133086091,28,2.26,0.97,0.45,1.37,1.02,0.9,0.67,0.46,-12,-3,-14,1.12,9630,23,80,42,46,905,768.0,656,468,60,122.0,222,1,372,232,160,0,0,756,-10214,3543,742,-5.59,44.681213,10.024464,77.67,175.7,0,0.0,-1,0.0,0.0,0,0.36,0.8674
52063,1564133086111,28,2.25,0.97,0.44,1.37,1.01,1.02,0.6,0.51,-13,-5,-15,1.18,9379,23,80,42,45,888,769.0,655,462,60,123.0,107,1,362,225,80,0,0,756,-10214,3543,742,-5.59,,,,,,,,,,,,
52083,1564133086131,26,2.26,0.97,0.44,1.37,1.01,0.96,0.74,0.41,-13,-4,-14,1.22,9191,23,80,42,44,861,761.0,655,457,60,123.0,107,1,353,222,80,0,0,758,13016,19320,736,-5.59,,,,,,,,,,,,
52103,1564133086151,28,2.26,0.97,0.44,1.38,1.01,0.81,0.87,0.26,-13,-2,-13,1.19,8997,23,80,42,43,838,756.0,656,462,60,123.0,107,1,345,218,80,0,0,758,13016,19320,736,-5.59,,,,,,,,,,,,
52123,1564133086171,25,2.27,0.97,0.44,1.37,1.02,0.73,0.98,0.17,-12,-3,-13,1.22,8798,23,80,42,42,821,751.0,648,463,60,123.0,107,1,338,215,80,0,0,754,-31066,30227,721,-5.59,,,,,,,,,,,,
52143,1564133086191,23,2.27,0.97,0.44,1.37,1.02,0.78,1.07,0.18,-12,-4,-12,1.33,8604,23,80,42,42,817,748.0,651,463,60,123.0,107,1,338,215,80,0,0,752,-23308,2048,719,-5.59,44.681194,10.024454,75.64,175.7,0,0.0,-1,0.0,0.0,0,0.36,0.869
52163,1564133086211,19,2.27,0.97,0.44,1.37,1.01,0.9,0.96,0.18,-13,-4,-14,1.32,8476,23,80,42,42,829,740.0,639,462,60,123.0,107,1,337,213,80,0,0,731,-2356,-16179,724,-5.59,,,,,,,,,,,,
52183,1564133086231,20,2.27,0.97,0.44,1.38,1.02,0.82,0.93,0.09,-12,-2,-12,1.24,8457,23,80,42,42,845,734.0,641,465,60,123.0,93,1,338,213,68,0,0,731,-2356,-16179,724,-5.59,,,,,,,,,,,,
52203,1564133086251,19,2.28,0.98,0.44,1.37,1.02,0.94,0.92,0.17,-11,-5,-13,1.31,8468,23,80,42,42,874,726.0,639,465,60,123.0,93,1,338,213,68,0,0,715,-31066,2216,718,-5.59,,,,,,,,,,,,
52223,1564133086271,18,2.28,0.96,0.44,1.38,1.01,0.95,0.79,0.17,-10,-4,-13,1.24,8359,23,80,42,42,902,723.0,637,465,60,123.0,93,1,336,213,68,0,0,711,-25858,11560,709,-5.59,,,,,,,,,,,,
52243,1564133086293,17,2.28,0.97,0.45,1.37,1.02,0.95,0.79,0.16,-10,-4,-13,1.24,8209,23,80,42,42,922,717.0,638,465,60,121.0,93,1,335,212,68,0,0,712,-2560,-28648,707,-5.59,44.681175,10.024446,73.37,175.7,0,0.0,-1,0.0,0.0,0,0.37,0.8707
52263,1564133086313,17,2.28,0.96,0.44,1.37,1.02,0.98,0.71,0.12,-9,-3,-12,1.22,8138,23,80,41,42,936,713.0,630,463,60,123.0,92,1,333,211,65,0,0,712,-2560,-28648,707,-5.59,,,,,,,,,,,,
52283,1564133086333,17,2.29,0.97,0.45,1.37,1.02,1.07,0.67,0.22,-9,-2,-11,1.26,8071,22,80,41,42,928,701.0,626,460,60,124.0,92,1,333,210,65,0,0,695,-13312,-3482,702,-5.59,,,,,,,,,,,,
52303,1564133086353,17,2.28,0.97,0.44,1.38,1.02,1.02,0.68,0.09,-7,-2,-12,1.22,8012,22,80,41,43,927,699.0,630,460,60,124.0,92,1,340,212,65,0,0,681,-3584,1,695,-5.59,,,,,,,,,,,,
52323,1564133086373,19,2.28,0.98,0.44,1.37,1.02,1.12,0.58,0.13,-7,-2,-11,1.26,7961,22,80,41,44,947,695.0,618,459,60,123.0,92,1,347,213,65,0,0,681,-3584,1,695,-5.59,,,,,,,,,,,,
52343,1564133086393,19,2.28,0.97,0.44,1.38,1.03,1.21,0.49,0.21,-7,-1,-11,1.3,7891,22,80,41,45,967,685.0,615,461,60,122.0,92,1,355,215,65,0,0,660,3543,-3856,685,-5.59,44.68116,10.02444,70.5,175.7,0,0.0,-1,0.0,0.0,0,0.37,0.8724
52363,1564133086413,21,2.28,0.97,0.44,1.37,1.02,1.19,0.47,0.11,-6,-1,-11,1.28,7861,22,80,41,45,995,675.0,622,458,60,124.0,153,1,355,347,103,0,0,660,3543,-3856,685,-5.59,,,,,,,,,,,,
52383,1564133086433,22,2.27,0.98,0.44,1.38,1.02,1.19,0.45,0.02,-5,0,-11,1.27,8113,22,80,41,46,1024,672.0,620,463,60,122.0,153,1,362,322,103,0,0,652,-2345,-3856,673,-5.59,,,,,,,,,,,,
52403,1564133086453,22,2.26,0.97,0.44,1.38,1.02,1.27,0.4,0.05,-6,0,-10,1.33,8036,22,80,41,45,1060,670.0,629,465,60,120.0,153,1,355,294,103,0,0,647,-388,6274,659,-5.59,,,,,,,,,,,,
52423,1564133086473,20,2.25,0.98,0.44,1.37,1.03,1.25,0.44,-0.02,-6,-0,-9,1.32,7961,22,80,41,44,1096,664.0,632,465,60,122.0,153,1,347,266,103,0,0,647,-388,6274,659,-5.59,,,,,,,,,,,,
52443,1564133086492,13,2.25,0.98,0.44,1.37,1.02,1.25,0.45,-0.01,-6,1,-10,1.33,8026,22,80,41,44,1105,665.0,625,466,60,122.0,153,1,347,238,103,0,0,638,3543,-32248,657,-5.59,44.681145,10.024434,67.52,175.7,0,0.0,-1,0.0,0.0,0,0.37,0.874
52463,1564133086512,9,2.25,0.98,0.44,1.37,1.02,1.33,0.4,0.03,-6,0,-9,1.39,8162,22,80,41,44,1113,658.0,627,466,60,120.0,101,1,348,214,66,0,0,633,-2826,1779,654,-5.59,,,,,,,,,,,,
52483,1564133086532,6,2.26,0.97,0.44,1.37,1.02,1.25,0.42,0.03,-6,1,-9,1.32,8263,22,80,41,42,1130,658.0,637,464,60,122.0,101,1,335,214,66,0,0,640,8958,-13043,648,-5.59,,,,,,,,,,,,
52503,1564133086552,2,2.26,0.97,0.44,1.38,1.02,1.29,0.41,0.07,-7,-0,-10,1.35,8549,22,80,41,41,1147,655.0,638,463,60,122.0,101,1,332,212,66,0,0,640,8958,-13043,648,-5.59,,,,,,,,,,,,
52523,1564133086572,2,2.26,0.97,0.44,1.38,1.01,1.36,0.32,0.1,-8,-0,-10,1.4,8898,22,80,41,40,1155,652.0,645,463,60,121.0,101,1,326,209,66,0,0,640,31988,-5120,646,-5.59,,,,,,,,,,,,
52543,1564133086592,2,2.26,0.98,0.44,1.38,1.02,1.43,0.27,0.25,-8,0,-10,1.45,9053,22,80,41,38,1163,648.0,643,462,60,120.0,101,1,317,205,66,0,0,640,479,-2836,642,-5.59,44.681126,10.024429,64.82,175.8,0,0.0,-1,0.0,0.0,0,0.37,0.8757
52563,1564133086612,1,2.26,0.97,0.45,1.37,1.02,1.49,0.22,0.33,-9,0,-11,1.5,9124,22,80,41,37,1120,648.0,649,463,60,122.0,101,1,314,202,66,0,0,647,479,-2836,637,-5.59,,,,,,,,,,,,
52583,1564133086632,2,2.26,0.98,0.44,1.38,1.02,1.54,0.25,0.4,-10,-1,-13,1.56,9231,22,80,41,36,1076,647.0,659,461,60,122.0,108,1,311,200,69,0,0,647,479,-2836,637,-5.59,,,,,,,,,,,,
52603,1564133086652,4,2.26,0.97,0.45,1.37,1.02,1.36,0.4,0.4,-11,1,-13,1.42,9300,22,80,41,35,1026,2994.0,661,461,60,120.0,108,1,308,199,69,0,0,2983,-2826,19320,2994,-5.59,,,,,,,,,,,,
52623,1564133086672,9,2.26,0.97,0.44,1.37,1.01,1.3,0.39,0.27,-10,3,-15,1.36,9314,21,80,41,35,975,2994.0,657,461,60,123.0,108,1,308,199,69,0,0,2983,-2826,19320,2994,-5.59,,,,,,,,,,,,
52643,1564133086692,23,2.25,0.97,0.44,1.38,1.02,1.34,0.31,0.21,-10,-3,-12,1.38,9659,21,80,41,34,915,2994.0,658,470,60,123.0,108,1,305,200,69,0,0,2983,-2826,-32504,2994,-5.59,44.68111,10.024425,62.98,175.8,0,0.0,-1,0.0,0.0,0,0.37,0.8774
52663,1564133086712,31,2.26,0.98,0.45,1.38,1.01,1.2,0.42,0.27,-8,-4,-13,1.27,9654,21,80,41,35,853,2994.0,651,467,60,122.0,24,1,308,203,74,0,0,2983,-2826,-32504,2994,-5.59,,,,,,,,,,,,
52683,1564133086732,31,2.27,0.98,0.44,1.38,1.02,1.23,0.33,0.25,-8,-3,-14,1.27,9659,21,80,41,36,829,2994.0,651,470,60,123.0,24,1,311,203,74,0,0,2983,-7939,-1818,2994,-5.59,,,,,,,,,,,,
52703,1564133086752,30,2.28,0.98,0.45,1.38,1.01,1.31,0.36,0.28,-8,-7,-14,1.36,9464,21,80,41,35,819,607.0,656,462,60,122.0,24,1,308,200,74,0,0,2983,-7939,-1818,2994,-5.59,,,,,,,,,,,,
52723,1564133086772,28,2.29,0.98,0.44,1.38,1.01,1.16,0.32,0.26,-8,-7,-14,1.2,9375,21,80,41,35,813,606.0,650,465,60,123.0,24,1,308,200,74,0,0,2983,-23055,19125,589,-5.59,,,,,,,,,,,,
52743,1564133086792,25,2.3,0.98,0.44,1.38,1.02,1.07,0.33,0.03,-8,-3,-14,1.12,9066,21,80,41,35,809,600.0,650,467,60,122.0,24,1,308,196,74,0,0,2983,-23055,19125,589,-5.59,44.681095,10.02442,61.81,175.8,0,0.0,-1,0.0,0.0,0,0.38,0.879
52763,1564133086812,21,2.31,0.98,0.44,1.38,1.02,0.9,0.39,0.08,-7,-2,-13,0.98,8565,21,80,41,36,810,594.0,647,467,60,123.0,110,1,311,199,64,0,0,2983,-3210,-3322,583,-5.59,,,,,,,,,,,,
52783,1564133086832,13,2.32,0.98,0.44,1.38,1.02,0.91,0.49,0.01,-8,1,-11,1.04,8499,21,80,41,36,817,590.0,645,465,60,122.0,110,1,310,198,64,0,0,555,-28648,-768,578,-5.59,,,,,,,,,,,,
52803,1564133086852,8,2.32,0.98,0.44,1.38,1.02,1.02,0.39,0.12,-8,-2,-11,1.1,8565,21,80,41,36,832,587.0,640,463,60,122.0,110,1,311,199,64,0,0,569,208,1779,581,-5.59,,,,,,,,,,,,
52823,1564133086872,6,2.33,0.98,0.44,1.38,1.02,0.94,0.32,0.11,-7,-4,-8,1.0,8769,21,80,41,36,850,579.0,642,466,60,123.0,110,1,311,199,64,0,0,569,208,1779,581,-5.59,,,,,,,,,,,,
52843,1564133086892,7,2.33,0.98,0.44,1.38,1.02,0.87,0.25,0.05,-5,-3,-8,0.91,9101,21,80,41,35,866,576.0,648,463,60,123.0,110,1,308,196,64,0,0,530,-3190,-9212,576,-5.59,44.68108,10.024416,58.78,175.8,0,0.0,-1,0.0,0.0,0,0.38,0.8807
52863,1564133086912,6,2.34,0.98,0.44,1.37,1.02,0.93,0.13,0.1,-3,-2,-7,0.94,9384,21,80,41,34,879,573.0,647,467,60,122.0,123,1,305,200,71,0,0,530,-3190,-9212,576,-5.59,,,,,,,,,,,,
52883,1564133086932,9,2.35,0.98,0.44,1.38,1.02,1.01,0.17,0.1,-2,-4,-7,1.02,9551,21,80,41,34,886,568.0,660,462,60,121.0,123,1,305,200,71,0,0,512,-8186,-2336,571,-5.59,,,,,,,,,,,,
52903,1564133086952,8,2.35,0.98,0.44,1.38,1.02,0.99,0.19,0.1,-1,-4,-5,1.01,9709,21,80,41,33,887,566.0,662,458,60,123.0,123,1,302,200,71,0,0,511,-32504,-3414,566,-5.59,,,,,,,,,,,,
52923,1564133086972,11,2.34,0.98,0.44,1.38,1.02,1.08,0.03,0.19,-1,-2,-5,1.08,9735,21,80,41,33,882,560.0,653,460,60,121.0,123,1,302,200,71,0,0,511,-32504,-3414,566,-5.59,,,,,,,,,,,,
52943,1564133086992,12,2.34,0.98,0.44,1.38,1.02,1.11,0.08,0.16,-0,-1,-4,1.11,9699,21,80,41,34,871,552.0,655,466,60,123.0,123,1,305,201,71,0,0,528,-22263,-9212,557,-5.59,44.68108,10.024416,58.78,175.8,0,0.0,-1,0.0,0.0,0,0.38,0.8824
52963,1564133087004,15,2.36,0.98,0.44,1.38,1.02,1.08,-0.09,0.15,0,-3,-3,1.09,9625,21,80,41,34,861,548.0,657,466,60,122.0,133,1,305,200,73,0,0,522,-506,-9212,552,-5.59,,,,,,,,,,,,
52983,1564133087024,17,2.37,0.98,0.44,1.38,1.03,1.12,-0.03,0.08,1,-2,-3,1.12,9635,21,80,41,34,853,542.0,657,462,60,122.0,133,1,305,200,73,0,0,506,-32248,17136,542,-5.59,,,,,,,,,,,,
53003,1564133087044,18,2.38,0.98,0.44,1.38,1.02,1.06,-0.13,0.11,3,-4,-1,1.06,9600,21,80,41,34,847,538.0,654,468,60,122.0,133,1,305,200,73,0,0,506,-32248,17136,542,-5.59,,,,,,,,,,,,
53023,1564133087064,19,2.4,0.98,0.44,1.38,1.03,1.15,-0.08,0.1,4,-3,-2,1.16,9512,21,80,41,35,850,537.0,658,462,60,122.0,133,1,308,201,73,0,0,482,-9212,-22519,531,-5.59,,,,,,,,,,,,
53043,1564133087092,18,2.41,0.98,0.44,1.38,1.02,1.12,-0.13,0.15,5,-2,-0,1.13,9484,21,80,41,34,855,529.0,657,457,60,123.0,133,1,305,199,73,0,0,460,-14,2088,532,-5.59,44.681053,10.024409,54.23,175.8,0,0.0,-1,0.0,0.0,0,0.38,0.884
53063,1564133087112,16,2.41,0.98,0.45,1.38,1.03,1.1,-0.24,0.09,6,-1,1,1.12,9342,21,80,41,34,865,528.0,652,467,60,122.0,132,1,305,197,70,0,0,460,-14,2088,532,-5.59,,,,,,,,,,,,
53083,1564133087132,17,2.4,0.99,0.45,1.38,1.03,1.14,-0.32,0.14,6,-1,3,1.18,9286,21,80,41,35,873,524.0,647,472,60,123.0,132,1,308,199,70,0,0,443,-28648,-9212,528,-5.59,,,,,,,,,,,,
53103,1564133087152,19,2.39,0.98,0.44,1.39,1.02,1.22,-0.35,0.2,6,-1,3,1.27,9195,21,80,41,34,879,519.0,647,471,60,122.0,132,1,305,195,70,0,0,402,2109,-3482,519,-5.59,,,,,,,,,,,,
53123,1564133087172,19,2.38,0.99,0.44,1.38,1.02,1.26,-0.31,0.17,6,-1,5,1.3,9128,21,80,41,34,884,513.0,652,463,60,123.0,132,1,305,193,70,0,0,402,2109,-3482,519,-5.59,,,,,,,,,,,,
53143,1564133087192,21,2.36,0.98,0.44,1.39,1.02,1.34,-0.25,0.18,6,-1,5,1.36,9097,21,80,41,34,886,508.0,649,463,60,122.0,132,1,305,192,70,0,0,404,3,-28648,513,-5.59,44.681042,10.024405,51.81,175.8,0,0.0,-1,0.0,0.0,0,0.38,0.8857
53163,1564133087212,19,2.35,0.98,0.45,1.38,1.02,1.32,-0.19,0.11,6,-2,7,1.34,9053,21,80,41,33,887,502.0,650,463,60,122.0,132,1,302,192,70,0,0,444,248,2524,499,-5.59,,,,,,,,,,,,
53183,1564133087232,20,2.32,0.98,0.44,1.38,1.02,1.3,-0.11,0.05,5,-3,8,1.31,8979,20,80,41,33,883,496.0,650,466,60,123.0,129,1,302,188,65,0,0,444,248,2524,499,-5.59,,,,,,,,,,,,
53203,1564133087252,19,2.3,0.98,0.44,1.38,1.03,1.26,-0.05,-0.0,4,-3,9,1.26,8937,20,80,41,33,877,488.0,650,461,60,122.0,129,1,302,188,65,0,0,476,-6441,505,488,-5.59,,,,,,,,,,,,
53223,1564133087272,21,2.27,0.98,0.44,1.37,1.03,1.24,0.03,-0.06,3,-3,9,1.24,8907,20,80,41,33,863,482.0,648,464,60,123.0,129,1,302,188,65,0,0,476,-6441,505,488,-5.59,,,,,,,,,,,,
53243,1564133087292,20,2.25,0.98,0.44,1.38,1.02,1.23,0.12,-0.09,1,-2,9,1.24,8865,20,80,41,33,849,481.0,563,462,60,121.0,129,1,302,188,65,0,0,479,32033,3580,482,-5.59,44.681026,10.024402,49.63,175.8,0,0.0,-1,0.0,0.0,0,0.38,0.8874
53263,1564133087312,20,2.22,0.97,0.44,1.37,1.02,1.31,0.2,-0.08,-1,-3,9,1.32,8836,20,80,41,33,840,479.0,626,462,60,122.0,129,1,302,188,65,0,0,480,10305,243,466,-5.59,,,,,,,,,,,,
53283,1564133087332,19,2.2,0.97,0.44,1.37,1.01,1.38,0.12,0.03,-3,-3,6,1.39,8786,20,80,41,33,831,476.0,640,461,60,123.0,135,1,302,188,63,0,0,480,10305,243,466,-5.59,,,,,,,,,,,,
53303,1564133087352,17,2.17,0.96,0.44,1.36,1.01,1.44,0.06,0.11,-5,-4,4,1.45,8773,20,80,41,33,836,473.0,635,462,60,123.0,135,1,302,188,63,0,0,473,3576,-9160,451,-5.59,,,,,,,,,,,,
53323,1564133087372,15,2.14,0.96,0.44,1.35,1.01,1.39,0.1,0.15,-7,-4,2,1.39,8696,20,80,41,33,841,470.0,636,462,60,123.0,135,1,302,188,63,0,0,473,3576,-9160,451,-5.59,,,,,,,,,,,,
53343,1564133087392,19,2.11,0.95,0.43,1.35,1.01,1.27,0.29,0.08,-8,-1,0,1.3,8593,20,80,41,33,855,471.0,632,462,60,123.0,135,1,302,192,63,0,0,469,243,3571,424,-5.59,44.681015,10.024398,47.97,175.8,0,0.0,-1,0.0,0.0,0,0.39,0.889
53363,1564133087412,15,2.08,0.96,0.43,1.36,1.0,1.33,0.37,0.13,-10,-3,-2,1.38,8514,20,80,41,34,869,467.0,640,463,60,123.0,145,1,305,192,62,0,0,469,243,3571,424,-5.59,,,,,,,,,,,,
53383,1564133087432,14,2.04,0.95,0.43,1.36,1.0,1.34,0.26,0.2,-13,-2,-5,1.37,8423,20,80,41,34,897,468.0,634,463,60,121.0,145,1,303,189,62,0,0,467,-16384,243,415,-5.59,,,,,,,,,,,,
53403,1564133087452,12,2.02,0.96,0.43,1.35,1.01,1.24,0.44,0.09,-13,-1,-7,1.31,8351,20,80,41,34,925,463.0,640,466,60,123.0,145,1,302,191,62,0,0,467,-16384,243,415,-5.59,,,,,,,,,,,,
53423,1564133087472,7,1.98,0.96,0.43,1.35,1.0,1.32,0.39,0.22,-16,-1,-11,1.37,8303,20,80,41,35,942,463.0,637,464,60,122.0,145,1,304,186,62,0,0,466,6193,-4082,407,-5.59,,,,,,,,,,,,
53443,1564133087491,5,1.97,0.96,0.43,1.36,1.01,1.14,0.55,0.14,-17,2,-13,1.26,8303,20,80,41,35,955,462.0,636,465,60,123.0,145,1,304,194,62,0,0,464,30272,-4082,407,-5.59,44.681004,10.024394,44.45,175.8,0,0.0,-1,0.0,0.0,0,0.39,0.8907
53463,1564133087511,2,1.92,0.95,0.43,1.35,1.0,1.22,0.49,0.29,-19,0,-17,1.32,8285,20,80,41,36,965,465.0,636,463,60,123.0,147,1,306,194,61,0,0,464,30272,-4082,407,-5.59,,,,,,,,,,,,
53483,1564133087531,2,1.89,0.96,0.43,1.35,1.01,1.04,0.64,0.28,-20,2,-19,1.22,8223,20,80,41,36,974,462.0,639,464,60,124.0,147,1,305,193,61,0,0,463,30272,13552,414,-5.59,,,,,,,,,,,,
53503,1564133087551,2,1.86,0.96,0.43,1.36,1.01,1.14,0.58,0.41,-22,-0,-22,1.28,8209,20,80,41,36,974,460.0,632,463,60,122.0,147,1,305,193,61,0,0,465,12552,-4082,416,-5.59,,,,,,,,,,,,
53523,1564133087571,3,1.82,0.96,0.43,1.35,1.0,0.95,0.72,0.3,-22,0,-24,1.19,8227,20,80,41,36,970,457.0,633,465,60,122.0,147,1,305,198,61,0,0,466,-23623,-4082,418,-5.59,,,,,,,,,,,,
53543,1564133087591,-1,1.8,0.95,0.42,1.35,1.01,1.06,0.69,0.37,-24,-2,-26,1.26,8209,20,80,41,37,957,454.0,632,465,60,122.0,147,1,308,197,61,0,0,458,-9160,-8165,417,-5.59,44.681004,10.024394,44.45,175.8,0,0.0,-1,0.0,0.0,0,0.39,0.8924
53563,1564133087609,2,1.78,0.96,0.43,1.36,1.01,0.88,0.82,0.28,-24,-2,-27,1.21,8169,20,80,41,37,941,449.0,640,463,60,122.0,147,1,307,197,61,0,0,460,15649,-3414,410,-5.59,,,,,,,,,,,,
53583,1564133087629,0,1.76,0.95,0.43,1.35,1.01,0.99,0.76,0.31,-25,-2,-29,1.25,8191,20,80,41,37,927,449.0,631,466,60,122.0,148,1,307,197,61,0,0,460,15649,-3414,410,-5.59,,,,,,,,,,,,
53603,1564133087649,0,1.76,0.96,0.43,1.35,1.01,0.92,0.89,0.27,-26,-2,-30,1.27,8180,20,80,41,37,915,445.0,634,465,60,122.0,148,1,307,197,61,0,0,457,3571,-18341,408,-5.59,,,,,,,,,,,,
53623,1564133087669,-0,1.75,0.96,0.43,1.35,1.02,0.97,0.78,0.34,-27,-3,-33,1.24,8152,20,80,41,37,903,448.0,637,465,60,123.0,148,1,307,196,61,0,0,457,3571,-18341,408,-5.59,,,,,,,,,,,,
53643,1564133087691,2,1.75,0.96,0.43,1.35,1.01,1.0,0.91,0.32,-29,-4,-33,1.35,8162,20,80,41,38,891,442.0,637,467,60,122.0,148,1,310,196,61,0,0,455,10305,3571,403,-5.59,44.680984,10.024391,42.88,175.9,0,0.0,-1,0.0,0.0,0,0.39,0.894
53663,1564133087711,0,1.75,0.95,0.43,1.36,1.01,0.93,0.85,0.35,-29,-2,-36,1.26,8191,20,80,41,37,885,442.0,633,463,60,123.0,152,1,307,197,61,0,0,455,10305,3571,403,-5.59,,,,,,,,,,,,
53683,1564133087731,1,1.76,0.95,0.43,1.35,1.01,1.04,0.94,0.37,-31,-4,-37,1.4,8212,20,80,41,38,885,443.0,635,466,60,123.0,152,1,311,197,61,0,0,454,-18341,-26615,401,-5.59,,,,,,,,,,,,
53703,1564133087751,3,1.76,0.96,0.43,1.36,1.0,0.87,0.9,0.34,-31,-1,-39,1.25,8187,20,80,41,38,886,442.0,642,465,60,124.0,152,1,310,201,61,0,0,454,-18341,-26615,401,-5.59,,,,,,,,,,,,
53723,1564133087771,-0,1.76,0.96,0.43,1.36,1.01,0.99,0.92,0.41,-32,-3,-39,1.35,8216,20,80,41,38,889,440.0,638,463,60,122.0,152,1,311,202,61,0,0,452,23400,3571,399,-5.59,,,,,,,,,,,,
53743,1564133087791,4,1.75,0.96,0.43,1.36,1.0,0.8,1.02,0.28,-31,-2,-40,1.3,8256,20,80,41,37,892,441.0,632,466,60,124.0,152,1,309,198,61,0,0,448,20625,-6387,396,-5.59,44.680973,10.024392,41.11,175.9,0,0.0,-1,0.0,0.0,0,0.39,0.8957
53763,1564133087811,-0,1.76,0.96,0.43,1.36,1.0,0.92,1.02,0.34,-32,-4,-40,1.37,8278,20,80,41,38,895,437.0,633,464,60,122.0,152,1,312,198,61,0,0,446,19477,-8985,393,-5.59,,,,,,,,,,,,
53783,1564133087831,2,1.76,0.96,0.43,1.36,1.0,0.78,1.07,0.3,-32,-2,-42,1.33,8267,20,80,41,37,899,436.0,636,462,60,123.0,160,1,309,198,63,0,0,446,19477,-8985,393,-5.59,,,,,,,,,,,,
53803,1564133087851,0,1.76,0.95,0.43,1.35,1.01,0.91,1.12,0.35,-33,-4,-42,1.45,8300,20,80,41,38,905,433.0,630,465,60,123.0,160,1,313,202,63,0,0,440,243,-28332,390,-5.59,,,,,,,,,,,,
53823,1564133087871,-1,1.76,0.95,0.43,1.36,1.01,0.86,1.1,0.34,-34,-2,-42,1.39,8348,20,80,41,37,911,432.0,626,462,60,123.0,160,1,310,200,63,0,0,440,243,-28332,390,-5.59,,,,,,,,,,,,
53843,1564133087891,2,1.75,0.96,0.43,1.35,1.01,0.95,1.19,0.38,-34,-4,-42,1.52,8378,20,80,41,37,914,431.0,635,465,60,123.0,160,1,311,200,63,0,0,438,1779,-26615,387,-5.59,44.680965,10.024394,40.14,175.9,0,0.0,-1,0.0,0.0,0,0.39,0.8974
53863,1564133087911,0,1.75,0.96,0.43,1.36,1.01,0.97,1.07,0.45,-35,-4,-45,1.44,8355,20,80,41,37,919,432.0,635,467,60,123.0,163,1,312,200,63,0,0,438,1779,-26615,387,-5.59,,,,,,,,,,,,
53883,1564133087931,3,1.76,0.96,0.43,1.36,1.0,0.82,1.16,0.32,-34,-4,-44,1.42,8385,20,80,41,37,924,428.0,647,465,60,123.0,163,1,311,200,63,0,0,434,13180,-26615,384,-5.59,,,,,,,,,,,,
53903,1564133087951,0,1.76,0.96,0.43,1.36,1.01,0.94,1.03,0.41,-35,-4,-45,1.39,8396,20,80,41,36,929,428.0,645,464,60,121.0,163,1,308,196,63,0,0,434,13180,-26615,384,-5.59,,,,,,,,,,,,
53923,1564133087971,1,1.75,0.96,0.43,1.36,1.01,0.81,1.05,0.32,-35,-2,-46,1.33,8426,20,80,41,36,931,428.0,640,466,60,124.0,163,1,309,197,63,0,0,428,13180,3635,383,-5.59,,,,,,,,,,,,
53943,1564133087991,1,1.76,0.95,0.42,1.36,1.01,0.88,1.14,0.3,-36,-3,-46,1.44,8393,20,80,41,36,935,429.0,640,466,60,123.0,163,1,308,196,63,0,0,428,13180,3635,383,-5.59,44.680965,10.024394,40.14,175.9,0,0.0,-1,0.0,0.0,0,0.39,0.899
53963,1564133088005,-0,1.75,0.95,0.43,1.36,1.01,0.88,0.99,0.38,-36,-3,-48,1.32,8314,20,80,41,36,945,425.0,641,465,60,124.0,160,1,307,194,61,0,0,433,3635,10305,380,-5.59,,,,,,,,,,,,
53983,1564133088025,1,1.75,0.96,0.43,1.36,1.0,0.8,1.09,0.32,-36,-4,-48,1.35,8285,20,80,41,36,955,424.0,642,463,60,123.0,160,1,306,194,61,0,0,437,-3856,243,378,-5.59,,,,,,,,,,,,
54003,1564133088045,0,1.74,0.96,0.43,1.35,1.0,0.89,0.93,0.39,-38,-3,-49,1.29,8322,20,80,42,37,963,427.0,634,466,60,123.0,160,1,310,194,61,0,0,433,3826,3576,374,-5.59,,,,,,,,,,,,
54023,1564133088065,1,1.75,0.96,0.43,1.35,1.01,0.75,1.04,0.28,-38,-2,-47,1.28,8292,20,80,41,36,972,424.0,638,462,60,123.0,160,1,306,198,61,0,0,433,3826,3576,374,-5.59,,,,,,,,,,,,
54043,1564133088091,0,1.74,0.96,0.43,1.36,1.01,0.88,0.92,0.37,-39,-2,-48,1.27,8289,21,80,42,37,986,422.0,634,463,60,123.0,160,1,309,198,61,0,0,431,-4082,-3210,373,-5.59,44.680943,10.024403,39.1,175.9,0,0.0,-1,0.0,0.0,0,0.39,0.9007
54063,1564133088111,3,1.74,0.95,0.43,1.36,1.01,0.79,1.03,0.27,-39,-2,-48,1.3,8230,21,80,42,37,1000,418.0,640,462,60,121.0,160,1,308,198,61,0,0,424,-3414,6193,371,-5.59,,,,,,,,,,,,
54083,1564133088131,0,1.74,0.96,0.43,1.36,1.0,0.91,0.96,0.35,-39,-2,-50,1.33,8249,21,80,42,37,1005,419.0,637,466,60,123.0,164,1,308,198,61,0,0,424,-3414,6193,371,-5.59,,,,,,,,,,,,
54103,1564133088151,1,1.75,0.96,0.43,1.35,1.0,0.8,1.07,0.27,-38,-2,-51,1.33,8249,21,80,42,37,1012,415.0,635,465,60,123.0,164,1,308,198,61,0,0,421,7154,12552,370,-5.59,,,,,,,,,,,,
54123,1564133088171,1,1.74,0.96,0.43,1.35,1.0,0.89,0.93,0.4,-39,-2,-52,1.29,8212,21,80,42,38,1020,416.0,635,467,60,123.0,164,1,311,198,61,0,0,421,18584,16408,367,-5.59,,,,,,,,,,,,
54143,1564133088191,1,1.75,0.96,0.43,1.36,1.01,0.76,1.04,0.31,-38,-2,-52,1.29,8216,21,80,42,38,1029,414.0,643,463,60,121.0,164,1,311,128,61,0,0,420,2524,14488,365,-5.59,44.680935,10.024409,38.42,175.9,0,0.0,-1,0.0,0.0,0,0.39,0.9024
54163,1564133088211,-1,1.75,0.96,0.43,1.37,1.0,0.83,0.88,0.37,-39,-1,-54,1.21,8223,21,80,42,38,1032,414.0,636,466,60,123.0,173,1,310,202,63,0,0,420,2524,14488,365,-5.59,,,,,,,,,,,,
54183,1564133088231,2,1.74,0.96,0.43,1.36,1.01,0.77,1.0,0.28,-38,-1,-53,1.26,8212,21,80,42,38,1035,412.0,635,465,60,122.0,173,1,311,202,63,0,0,420,9517,16648,361,-5.59,,,,,,,,,,,,
54203,1564133088251,-1,1.74,0.96,0.43,1.37,1.01,0.8,0.87,0.4,-39,-1,-54,1.18,8173,21,80,42,38,1034,411.0,636,462,60,123.0,173,1,310,201,63,0,0,420,9517,16648,361,-5.59,,,,,,,,,,,,
54223,1564133088271,2,1.75,0.96,0.43,1.37,1.01,0.86,0.98,0.35,-39,-2,-53,1.31,8130,22,80,42,38,1033,403.0,637,464,60,123.0,173,1,309,206,63,0,0,411,-4059,-21792,361,-5.59,,,,,,,,,,,,
54243,1564133088291,3,1.75,0.95,0.43,1.36,1.01,0.79,1.0,0.4,-39,-0,-52,1.28,8026,22,80,42,38,1030,409.0,633,460,60,124.0,173,1,307,200,63,0,0,416,-8151,2524,361,-5.59,44.680923,10.024416,37.89,175.9,0,0.0,-1,0.0,0.0,0,0.4,0.904
54263,1564133088311,-0,1.76,0.96,0.43,1.37,1.01,0.92,0.87,0.51,-40,-2,-53,1.27,7888,22,80,42,39,1026,409.0,631,465,60,123.0,169,1,310,205,61,0,0,422,11560,5600,361,-5.59,,,,,,,,,,,,
54283,1564133088331,1,1.77,0.96,0.43,1.37,1.01,1.0,0.98,0.47,-40,-4,-53,1.4,7815,22,80,42,40,1017,410.0,633,464,60,122.0,169,1,317,208,61,0,0,420,11560,-9160,359,-5.59,,,,,,,,,,,,
54303,1564133088351,1,1.8,0.96,0.43,1.37,1.01,0.89,1.08,0.36,-39,-2,-52,1.4,7855,22,80,42,40,1009,409.0,626,463,60,122.0,169,1,317,206,61,0,0,416,10392,5600,358,-5.59,,,,,,,,,,,,
54323,1564133088371,2,1.82,0.96,0.43,1.36,1.01,0.8,1.15,0.38,-39,-1,-52,1.4,7828,40,80,42,44,1004,408.0,632,464,60,124.0,169,1,347,213,61,0,0,416,10392,5600,358,-5.59,,,,,,,,,,,,
54343,1564133088391,-1,1.84,0.96,0.43,1.37,1.01,0.9,1.02,0.45,-40,-1,-53,1.36,7908,61,80,42,53,999,407.0,623,463,60,123.0,169,1,387,248,61,0,0,410,-26615,-8165,359,-5.59,44.68092,10.024426,37.47,176.0,0,0.0,-1,0.0,0.0,0,0.4,0.9057
54363,1564133088411,0,1.87,0.97,0.43,1.37,1.01,0.99,1.01,0.45,-40,-1,-53,1.41,7851,87,80,42,67,995,407.0,623,467,60,122.0,285,1,442,344,102,0,0,410,-26615,-8165,359,-5.59,,,,,,,,,,,,
54383,1564133088431,2,1.88,0.96,0.43,1.37,1.01,0.92,1.11,0.36,-39,-2,-52,1.44,7646,100,80,42,84,991,409.0,628,462,60,123.0,285,1,416,496,102,0,0,412,-26615,11560,357,-5.59,,,,,,,,,,,,
54403,1564133088451,2,1.9,0.96,0.44,1.37,1.01,0.85,1.19,0.29,-39,-3,-54,1.46,7455,100,80,42,91,990,409.0,613,465,60,123.0,285,1,407,538,102,0,0,412,11560,17144,358,-5.59,,,,,,,,,,,,
54423,1564133088471,0,1.92,0.96,0.43,1.36,1.02,0.83,1.27,0.24,-39,-3,-53,1.52,7312,100,80,42,93,990,408.0,604,464,60,123.0,285,1,394,532,102,0,0,409,11560,11545,356,-5.59,,,,,,,,,,,,
54443,1564133088491,1,1.92,0.96,0.43,1.37,1.02,0.93,1.31,0.26,-39,-3,-53,1.6,7455,100,80,42,93,998,410.0,593,465,60,122.0,285,1,405,538,102,0,0,405,10392,11545,358,-5.59,44.68092,10.024426,37.47,176.0,0,0.0,-1,0.0,0.0,0,0.4,0.9074
54463,1564133088510,2,1.95,0.96,0.43,1.36,1.01,0.98,1.38,0.28,-39,-4,-53,1.69,7606,100,80,42,93,1009,413.0,601,464,60,122.0,438,1,416,545,157,0,0,407,9517,-6475,357,-5.59,,,,,,,,,,,,
54483,1564133088530,2,1.97,0.96,0.44,1.37,1.01,0.94,1.41,0.28,-39,-4,-54,1.69,7851,100,80,42,93,1020,412.0,616,466,60,121.0,438,1,435,557,157,0,0,412,13040,-4059,356,-5.59,,,,,,,,,,,,
54503,1564133088550,-0,2.0,0.97,0.43,1.37,1.01,0.82,1.36,0.26,-38,-3,-55,1.59,8184,100,80,42,91,1030,413.0,626,463,60,123.0,438,1,444,584,157,0,0,412,13040,-4059,356,-5.59,,,,,,,,,,,,
54523,1564133088570,4,2.01,0.96,0.43,1.37,1.02,0.82,1.33,0.34,-38,-2,-55,1.56,8692,100,80,42,89,1091,412.0,639,465,60,123.0,438,1,429,617,157,0,0,414,-9166,26704,356,-5.59,,,,,,,,,,,,
54543,1564133088590,2,2.04,0.97,0.43,1.37,1.03,0.86,1.31,0.41,-37,-1,-55,1.57,8949,100,80,42,88,1173,414.0,640,464,60,123.0,438,1,420,595,157,0,0,436,2524,-26615,362,-5.59,44.680912,10.024435,37.04,176.0,0,0.0,-1,0.0,0.0,0,0.4,0.909
54563,1564133088610,3,2.05,0.97,0.43,1.38,1.02,0.98,1.12,0.56,-37,-2,-56,1.49,9027,100,80,42,88,1249,421.0,643,462,60,122.0,556,1,418,595,203,0,0,436,2524,-26615,362,-5.59,,,,,,,,,,,,
54583,1564133088608,3,2.07,0.97,0.42,1.37,1.02,1.01,1.05,0.6,-37,0,-56,1.46,8975,100,80,42,88,1319,426.0,643,463,60,123.0,556,1,419,595,203,0,0,474,-21792,-9216,365,-5.59,,,,,,,,,,,,
54603,1564133088628,2,2.09,0.98,0.43,1.38,1.02,1.11,0.99,0.74,-38,0,-55,1.49,8928,100,80,42,88,1367,431.0,645,461,60,124.0,556,1,420,595,203,0,0,498,13552,-9160,367,-5.59,,,,,,,,,,,,
54623,1564133088648,2,2.1,0.97,0.44,1.37,1.02,1.2,0.98,0.83,-39,-1,-54,1.55,8769,100,80,42,88,1391,430.0,643,462,60,123.0,556,1,425,595,203,0,0,459,1779,16648,372,-5.59,,,,,,,,,,,,
54643,1564133088668,2,2.11,0.96,0.43,1.38,1.02,1.28,0.74,0.93,-41,-4,-54,1.48,8782,100,80,42,88,1383,435.0,637,464,60,122.0,556,1,425,595,203,0,0,469,-7939,11560,379,-5.59,44.680908,10.024446,36.97,176.1,0,0.0,-1,0.0,0.0,0,0.4,0.9107
54663,1564133088688,-0,2.14,0.97,0.43,1.38,1.02,1.17,0.72,0.96,-39,-4,-54,1.38,8898,100,80,42,87,1337,438.0,640,466,60,123.0,521,1,422,584,197,0,0,480,21580,11560,379,-5.59,,,,,,,,,,,,
54683,1564133088700,2,2.15,0.97,0.43,1.38,1.01,1.08,0.69,0.95,-38,-2,-54,1.29,8911,100,80,42,87,1293,441.0,640,466,60,123.0,521,1,421,584,197,0,0,480,21580,1779,378,-5.59,,,,,,,,,,,,
54703,1564133088720,1,2.16,0.97,0.44,1.37,1.02,0.85,0.68,0.89,-36,-3,-54,1.09,8920,100,80,42,87,1251,444.0,637,468,60,123.0,521,1,420,584,197,0,0,489,26704,3576,379,-5.59,,,,,,,,,,,,
54723,1564133088740,1,2.18,0.98,0.43,1.37,1.01,0.59,0.81,0.8,-34,-1,-51,1.01,9101,100,80,42,87,1221,448.0,640,469,60,124.0,521,1,418,584,197,0,0,502,21432,-8187,377,-5.59,,,,,,,,,,,,
54743,1564133088792,2,2.19,0.97,0.44,1.38,1.01,0.44,0.82,0.88,-33,-1,-51,0.93,9291,100,80,42,87,1225,453.0,647,467,60,123.0,521,1,418,584,197,0,0,507,-8985,6193,405,-5.59,44.680901,10.02447,41.03,176.0,0,0.0,-1,0.0,0.0,0,0.4,0.9124
54763,1564133088812,3,2.22,0.97,0.44,1.37,1.02,0.56,0.57,0.97,-33,-1,-51,0.81,9384,100,80,42,87,1227,456.0,645,468,60,123.0,521,1,418,584,197,0,0,497,14488,2088,420,-5.59,,,,,,,,,,,,
54783,1564133088832,1,2.23,0.98,0.44,1.38,1.03,0.57,0.54,0.9,-32,-2,-48,0.78,9595,100,80,42,87,1226,455.0,655,459,60,123.0,495,1,415,587,208,0,0,497,14488,2088,420,-5.59,,,,,,,,,,,,
54803,1564133088852,1,2.25,0.98,0.44,1.38,1.02,0.43,0.68,0.81,-31,-1,-46,0.81,9847,100,80,42,86,1224,463.0,651,467,60,123.0,495,1,403,582,208,0,0,505,-26615,6274,423,-5.59,,,,,,,,,,,,
54823,1564133088872,1,2.27,0.98,0.44,1.37,1.02,0.39,0.69,0.76,-28,-2,-46,0.79,10000,100,80,42,86,1219,465.0,656,468,60,123.0,495,1,396,585,208,0,0,516,6193,-9216,425,-5.59,,,,,,,,,,,,
54843,1564133088892,4,2.28,0.98,0.44,1.37,1.02,0.47,0.74,0.8,-26,-1,-44,0.88,10059,100,80,42,86,1211,474.0,650,467,60,122.0,495,1,400,585,208,0,0,544,30272,2524,436,-5.59,44.680897,10.024485,43.58,176.0,0,0.0,-1,0.0,0.0,0,0.4,0.914
54863,1564133088912,3,2.26,0.98,0.44,1.38,1.02,0.42,0.79,0.92,-26,-1,-42,0.89,10168,100,80,42,86,1196,476.0,641,465,60,123.0,496,1,408,585,225,0,0,547,-9203,2104,443,-5.59,,,,,,,,,,,,
54883,1564133088932,2,2.26,0.98,0.43,1.38,1.02,0.23,0.84,0.84,-25,0,-38,0.87,10146,100,80,42,86,1181,481.0,636,465,60,122.0,496,1,406,585,225,0,0,518,32033,2524,457,-5.59,,,,,,,,,,,,
54903,1564133088952,2,2.25,0.97,0.44,1.38,1.03,0.18,0.89,0.66,-25,3,-36,0.91,10091,100,80,42,86,1172,487.0,642,470,60,122.0,496,1,402,585,225,0,0,561,505,259,464,-5.59,,,,,,,,,,,,
54923,1564133088972,4,2.24,0.98,0.44,1.37,1.02,0.18,1.0,0.7,-23,6,-34,1.01,10240,100,80,42,85,1160,496.0,648,460,60,122.0,496,1,412,567,225,0,0,517,3,2524,462,-5.59,,,,,,,,,,,,
54943,1564133088992,4,2.23,0.98,0.43,1.38,1.02,0.25,0.95,0.83,-22,7,-34,0.98,10168,100,80,42,86,1143,494.0,653,462,60,123.0,496,1,408,567,225,0,0,517,3,2524,462,-5.59,44.680897,10.024485,43.58,176.0,0,0.0,-1,0.0,0.0,0,0.4,0.9157
54963,1564133089006,2,2.23,0.97,0.43,1.37,1.02,0.22,0.86,0.89,-22,6,-31,0.89,9989,100,80,42,86,1125,499.0,653,467,60,123.0,461,1,397,584,221,0,0,563,3,998,464,-5.59,,,,,,,,,,,,
54983,1564133089026,1,2.22,0.98,0.43,1.38,1.02,0.3,0.79,0.95,-21,3,-30,0.84,9868,100,80,42,86,1117,505.0,643,458,60,123.0,461,1,402,582,221,0,0,537,6274,774,484,-5.59,,,,,,,,,,,,
55003,1564133089046,4,2.23,0.98,0.43,1.38,1.02,0.24,0.81,0.98,-20,4,-27,0.84,9899,100,80,42,86,1109,511.0,645,467,60,123.0,461,1,401,583,221,0,0,541,-3856,1248,484,-5.59,,,,,,,,,,,,
55023,1564133089066,0,2.24,0.97,0.43,1.37,1.03,0.19,0.72,0.94,-18,4,-28,0.74,9957,100,80,42,85,1103,516.0,648,471,60,123.0,461,1,397,566,221,0,0,550,16383,-30064,495,-5.59,,,,,,,,,,,,
55043,1564133089092,3,2.24,0.97,0.43,1.38,1.02,0.29,0.71,0.88,-17,2,-26,0.77,10075,100,80,42,86,1097,519.0,647,460,60,123.0,461,1,401,567,221,0,0,550,16383,-30064,495,-5.59,44.680889,10.024516,48.19,176.0,0,0.0,-1,0.0,0.0,0,0.4,0.9174
55063,1564133089112,4,2.23,0.98,0.44,1.37,1.02,0.26,0.67,0.95,-16,1,-25,0.72,10195,100,80,42,85,1098,523.0,655,466,60,123.0,428,1,409,567,219,0,0,550,-8187,-22263,503,-5.59,,,,,,,,,,,,
55083,1564133089132,3,2.24,0.98,0.43,1.38,1.02,0.2,0.55,1.04,-15,3,-25,0.59,10359,100,80,42,85,1100,530.0,655,467,60,123.0,428,1,421,567,219,0,0,548,-22519,6274,511,-5.59,,,,,,,,,,,,
55103,1564133089152,1,2.25,0.97,0.43,1.38,1.02,0.25,0.45,1.03,-15,4,-25,0.51,10474,100,80,42,85,1105,533.0,652,465,60,122.0,428,1,429,567,219,0,0,553,2524,2524,515,-5.59,,,,,,,,,,,,
55123,1564133089172,3,2.25,0.97,0.44,1.38,1.03,0.2,0.51,0.96,-15,4,-24,0.55,10635,100,80,42,85,1110,537.0,664,463,60,123.0,428,1,434,567,219,0,0,553,6274,-3190,520,-5.59,,,,,,,,,,,,
55143,1564133089192,4,2.23,0.98,0.43,1.38,1.02,0.12,0.44,0.94,-14,3,-23,0.46,10689,100,80,42,85,1113,540.0,661,468,60,123.0,428,1,435,508,219,0,0,570,-2336,259,529,-5.59,44.680885,10.024533,51.1,176.1,0,0.0,-1,0.0,0.0,0,0.41,0.919
55163,1564133089212,2,2.24,0.98,0.43,1.38,1.03,0.16,0.27,1.05,-14,3,-23,0.32,10788,100,81,42,85,1116,547.0,657,467,60,122.0,433,1,438,567,232,0,0,570,-2336,259,529,-5.59,,,,,,,,,,,,
55183,1564133089232,2,2.22,0.98,0.44,1.37,1.03,0.25,0.35,1.14,-13,4,-23,0.43,10763,100,81,42,85,1108,550.0,662,463,60,124.0,433,1,437,567,232,0,0,569,-22519,-18032,535,-5.59,,,,,,,,,,,,
55203,1564133089252,2,2.21,0.98,0.43,1.38,1.02,0.28,0.41,1.11,-13,4,-21,0.5,10763,100,81,42,85,1098,556.0,658,463,60,123.0,433,1,436,567,232,0,0,569,-32248,1760,541,-5.59,,,,,,,,,,,,
55223,1564133089272,1,2.21,0.97,0.44,1.37,1.02,0.39,0.52,1.07,-13,2,-19,0.65,10744,100,81,42,85,1087,565.0,655,462,60,123.0,433,1,437,567,232,0,0,569,-30159,2048,551,-5.59,,,,,,,,,,,,
55243,1564133089292,2,2.21,0.97,0.43,1.37,1.02,0.24,0.57,0.94,-13,3,-18,0.62,10831,100,80,42,85,1074,572.0,647,468,60,122.0,433,1,439,567,232,0,0,569,-30159,2048,551,-5.59,44.680885,10.024552,53.46,176.1,0,0.0,-1,0.0,0.0,0,0.41,0.9207
55263,1564133089312,4,2.2,0.98,0.44,1.37,1.02,0.27,0.36,1.04,-13,2,-20,0.45,10958,100,80,42,85,1062,573.0,656,465,60,123.0,425,1,442,567,236,0,0,569,-8188,17344,553,-5.59,,,,,,,,,,,,
55283,1564133089332,2,2.2,0.97,0.44,1.38,1.02,0.3,0.49,1.09,-13,3,-20,0.57,10997,100,81,42,85,1049,577.0,659,463,60,123.0,425,1,443,508,236,0,0,569,30208,-28648,559,-5.59,,,,,,,,,,,,
55303,1564133089352,3,2.2,0.96,0.43,1.38,1.02,0.31,0.5,0.9,-13,2,-20,0.59,11187,100,81,42,85,1044,581.0,661,466,60,123.0,425,1,443,567,236,0,0,569,8488,6273,564,-5.59,,,,,,,,,,,,
55323,1564133089372,2,2.21,0.97,0.42,1.38,1.02,0.32,0.39,1.01,-13,2,-20,0.5,11370,100,81,42,85,1045,588.0,659,463,60,123.0,425,1,441,567,236,0,0,569,8488,6273,564,-5.59,,,,,,,,,,,,
55343,1564133089392,4,2.2,0.97,0.43,1.38,1.02,0.26,0.48,0.75,-13,-1,-19,0.55,11538,100,81,42,84,1043,589.0,663,461,60,123.0,425,1,440,567,236,0,0,569,208,1010,567,-5.59,44.680885,10.024571,55.96,176.1,0,0.0,-1,0.0,0.0,0,0.41,0.9224
55363,1564133089412,2,2.2,0.97,0.43,1.38,1.02,0.36,0.58,0.87,-13,-4,-17,0.68,11740,100,81,42,84,1040,592.0,676,465,60,122.0,425,1,440,553,236,0,0,662,-28648,-1346,575,-5.59,,,,,,,,,,,,
55383,1564133089432,1,2.21,0.97,0.43,1.38,1.02,0.46,0.56,0.98,-13,-6,-17,0.73,11882,100,80,42,84,1037,597.0,672,465,60,123.0,429,1,440,558,247,0,0,662,-28648,-1346,575,-5.59,,,,,,,,,,,,
55403,1564133089452,2,2.2,0.98,0.43,1.38,1.02,0.53,0.46,1.06,-13,-5,-17,0.71,11882,100,81,42,84,1035,603.0,672,470,60,123.0,429,1,440,558,247,0,0,662,23619,26688,579,-5.59,,,,,,,,,,,,
55423,1564133089472,2,2.2,0.98,0.43,1.38,1.02,0.61,0.38,0.99,-14,-3,-17,0.72,11965,100,81,42,84,1021,609.0,673,468,60,123.0,429,1,440,559,247,0,0,662,-3820,24,584,-5.59,,,,,,,,,,,,
55443,1564133089492,1,2.21,0.97,0.43,1.38,1.02,0.7,0.27,0.91,-15,-2,-18,0.75,12003,100,81,42,84,999,614.0,670,466,60,123.0,429,1,440,560,247,0,0,631,-30139,2024,589,-5.59,44.680885,10.024571,55.96,176.1,0,0.0,-1,0.0,0.0,0,0.41,0.924
55463,1564133089509,2,2.2,0.97,0.43,1.39,1.02,0.82,0.18,0.92,-15,-2,-17,0.84,12112,100,81,42,84,980,621.0,663,466,60,123.0,428,1,440,560,256,0,0,658,16529,-6006,592,-5.59,,,,,,,,,,,,
55483,1564133089529,3,2.2,0.97,0.44,1.39,1.02,0.89,0.15,1.01,-16,-1,-17,0.9,12096,100,81,42,84,961,625.0,668,468,60,123.0,428,1,440,560,256,0,0,59,-1346,479,602,-5.59,,,,,,,,,,,,
55503,1564133089549,3,2.21,0.98,0.43,1.38,1.02,0.96,0.17,1.11,-16,-2,-16,0.97,12159,100,80,42,84,936,629.0,672,467,60,122.0,428,1,440,560,256,0,0,59,-1346,479,602,-5.59,,,,,,,,,,,,
55523,1564133089569,3,2.2,0.98,0.43,1.39,1.03,0.99,0.28,1.2,-16,-4,-15,1.03,12183,100,81,42,84,903,633.0,672,465,60,122.0,428,1,440,560,256,0,0,647,-14655,244,604,-5.59,,,,,,,,,,,,
55543,1564133089589,3,2.21,0.98,0.43,1.38,1.03,1.01,0.46,1.26,-16,-5,-14,1.11,12303,100,81,42,84,876,639.0,675,465,60,123.0,428,1,440,560,256,0,0,654,6208,16599,620,-5.59,44.680885,10.024592,58.16,176.1,0,0.0,-1,0.0,0.0,0,0.41,0.9257
55563,1564133089609,1,2.2,0.98,0.43,1.38,1.02,0.92,0.59,1.21,-16,-7,-13,1.1,12368,100,81,42,84,862,640.0,680,459,60,123.0,423,1,440,560,262,0,0,654,6208,16599,620,-5.59,,,,,,,,,,,,
55583,1564133089629,2,2.2,0.97,0.44,1.38,1.02,0.83,0.57,1.11,-17,-7,-13,1.01,12441,100,81,42,84,845,641.0,671,463,60,122.0,423,1,440,560,262,0,0,661,-2830,6208,623,-5.59,,,,,,,,,,,,
55603,1564133089649,3,2.2,0.98,0.43,1.38,1.03,0.77,0.44,1.13,-16,-7,-14,0.88,12541,100,81,42,84,824,646.0,676,463,60,122.0,423,1,440,560,262,0,0,661,-2830,6208,623,-5.59,,,,,,,,,,,,
55623,1564133089669,2,2.2,0.98,0.44,1.38,1.02,0.74,0.44,1.19,-15,-8,-15,0.86,12617,100,81,42,84,806,650.0,673,461,60,122.0,423,1,440,560,262,0,0,668,4909,24583,624,-5.59,,,,,,,,,,,,
55643,1564133089689,2,2.2,0.98,0.43,1.38,1.02,0.72,0.52,1.14,-15,-7,-16,0.88,12686,100,81,42,84,799,656.0,672,462,60,123.0,423,1,440,560,262,0,0,674,-6006,8958,631,-5.59,44.680885,10.024613,60.06,176.1,0,0.0,-1,0.0,0.0,0,0.41,0.9274
55663,1564133089709,1,2.21,0.98,0.43,1.38,1.02,0.68,0.56,1.16,-17,-5,-15,0.88,12746,100,81,42,84,791,661.0,678,466,60,123.0,426,1,440,560,271,0,0,674,-388,-10344,639,-5.59,,,,,,,,,,,,
55683,1564133089729,4,2.2,0.98,0.43,1.38,1.02,0.71,0.55,1.17,-17,-4,-16,0.9,12842,100,81,42,84,779,667.0,673,467,60,122.0,426,1,440,560,271,0,0,674,-3578,31988,639,-5.59,,,,,,,,,,,,
55703,1564133089749,-0,2.2,0.97,0.42,1.38,1.03,0.53,0.7,1.03,-16,-2,-16,0.88,12433,100,81,42,84,772,670.0,672,458,60,125.0,426,1,440,560,271,0,0,674,-388,6208,641,414.87,,,,,,,,,,,,
55723,1564133089769,-0,2.2,0.98,0.44,1.38,1.03,0.51,0.75,0.85,-16,-1,-17,0.91,11965,100,81,42,85,770,671.0,673,461,60,124.0,426,1,440,576,271,0,0,674,8958,-26380,646,414.87,,,,,,,,,,,,
55743,1564133089789,-0,2.2,0.98,0.44,1.39,1.02,0.43,0.88,0.65,-16,0,-17,0.98,11667,100,81,42,86,768,670.0,666,460,60,124.0,426,1,440,587,271,0,0,674,-388,31988,648,181.28,44.680885,10.024634,62.31,176.1,0,0.0,-1,0.0,0.0,0,0.42,0.929
55763,1564133089809,-1,2.21,0.97,0.42,1.38,1.02,0.41,0.99,0.6,-15,2,-16,1.07,11460,100,81,42,86,767,666.0,661,462,60,125.0,391,1,441,585,254,0,0,674,-388,31988,648,414.87,,,,,,,,,,,,
55783,1564133089829,-1,2.21,0.98,0.43,1.38,1.02,0.57,0.79,0.74,-16,2,-18,0.97,11308,100,81,42,86,765,668.0,658,462,60,124.0,391,1,442,585,254,0,0,667,1549,11776,648,181.28,,,,,,,,,,,,
55803,1564133089849,2,2.21,0.97,0.43,1.38,1.02,0.59,0.9,0.55,-15,-3,-18,1.08,10875,100,81,42,88,766,668.0,660,461,60,121.0,391,1,443,1055,254,0,0,665,-2830,24,648,-5.59,,,,,,,,,,,,
55823,1564133089869,2,2.21,0.98,0.43,1.38,1.03,0.47,0.76,0.69,-15,-3,-22,0.9,10296,100,81,42,88,784,679.0,655,463,60,122.0,391,1,412,952,254,0,0,665,-2345,-2830,650,-5.59,,,,,,,,,,,,
55843,1564133089893,1,2.22,0.98,0.42,1.38,1.02,0.55,0.74,0.72,-15,-1,-22,0.92,10162,100,81,42,87,900,680.0,660,464,60,123.0,391,1,408,813,254,0,0,665,-2345,-2830,650,-5.59,44.680885,10.024678,64.95,176.1,0,0.0,-1,0.0,0.0,0,0.42,0.9307
55863,1564133089913,1,2.21,0.97,0.43,1.39,1.02,0.61,0.77,0.74,-16,-1,-21,0.98,10313,100,81,42,86,1017,687.0,655,463,60,123.0,407,1,418,686,268,0,0,665,24845,-2344,653,-5.59,,,,,,,,,,,,
55883,1564133089933,4,2.2,0.97,0.43,1.38,1.02,0.62,0.81,0.82,-16,-1,-21,1.02,9994,100,81,42,86,1134,692.0,662,466,60,122.0,407,1,397,590,268,0,0,665,14342,-2826,661,-5.59,,,,,,,,,,,,
55903,1564133089953,2,2.2,0.98,0.43,1.38,1.02,0.48,0.93,0.83,-16,0,-20,1.04,9811,100,81,42,86,1251,696.0,655,461,60,123.0,407,1,405,581,268,0,0,732,16599,-10214,659,-5.59,,,,,,,,,,,,
55923,1564133089973,1,2.21,0.97,0.43,1.38,1.03,0.58,0.91,0.85,-17,-2,-21,1.08,9878,100,81,42,86,1313,698.0,651,463,60,122.0,407,1,402,583,268,0,0,723,6208,687,658,-5.59,,,,,,,,,,,,
55943,1564133089993,1,2.21,0.98,0.42,1.38,1.03,0.56,0.91,0.96,-16,-2,-21,1.08,9858,100,81,42,86,1376,699.0,651,463,60,122.0,407,1,403,582,268,0,0,723,6208,687,658,-5.59,44.680885,10.024678,64.95,176.1,0,0.0,-1,0.0,0.0,0,0.42,0.9324
55963,1564133090005,-0,2.2,0.98,0.43,1.37,1.02,0.66,0.91,0.95,-16,-3,-20,1.12,9847,100,81,42,86,1332,704.0,656,465,60,123.0,323,1,403,582,217,0,0,730,-3584,-13312,663,-5.59,,,,,,,,,,,,
55983,1564133090025,4,2.2,0.97,0.42,1.38,1.02,0.73,0.8,1.05,-16,-4,-22,1.08,10021,100,81,41,86,1276,708.0,652,471,60,122.0,323,1,397,585,217,0,0,737,-30694,-4096,670,-5.59,,,,,,,,,,,,
56003,1564133090045,2,2.2,0.98,0.43,1.38,1.02,0.74,0.74,1.04,-16,-5,-23,1.05,10168,100,81,41,85,1188,710.0,656,467,60,122.0,323,1,407,567,217,0,0,737,-30694,-4096,670,-5.59,,,,,,,,,,,,
56023,1564133090065,2,2.21,0.97,0.42,1.39,1.02,0.69,0.84,1.08,-15,-5,-23,1.08,10195,100,81,41,86,1099,717.0,657,462,60,124.0,323,1,410,585,217,0,0,748,-13072,1524,677,-5.59,,,,,,,,,,,,
56043,1564133090093,1,2.2,0.98,0.43,1.38,1.02,0.7,0.93,1.0,-15,-4,-22,1.16,10268,100,81,41,86,1051,725.0,656,467,60,123.0,323,1,415,585,217,0,0,752,-23490,-30694,687,-5.59,44.680893,10.024725,68.86,176.1,0,0.0,-1,0.0,0.0,0,0.42,0.934
56063,1564133090113,0,2.21,0.98,0.43,1.38,1.02,0.7,1.04,0.94,-15,-3,-21,1.25,10370,100,81,41,85,1018,726.0,659,466,60,123.0,319,1,421,567,223,0,0,755,-25858,-22795,697,-5.59,,,,,,,,,,,,
56083,1564133090133,-1,2.22,0.97,0.43,1.38,1.03,0.75,1.04,0.94,-15,-2,-21,1.28,10416,100,81,41,85,992,730.0,665,463,60,123.0,319,1,425,567,223,0,0,754,-4091,-2314,697,-5.59,,,,,,,,,,,,
56103,1564133090153,4,2.2,0.98,0.43,1.38,1.03,0.86,0.87,1.05,-16,-2,-20,1.22,10313,100,81,41,86,967,730.0,657,465,60,122.0,319,1,418,585,223,0,0,766,-2358,-22795,701,-5.59,,,,,,,,,,,,
56123,1564133090173,1,2.22,0.98,0.43,1.39,1.02,0.86,0.69,1.14,-17,-3,-22,1.11,10382,100,81,41,86,967,738.0,655,467,60,123.0,319,1,423,585,223,0,0,759,-2358,-3450,707,-5.59,,,,,,,,,,,,
56143,1564133090193,3,2.21,0.98,0.43,1.39,1.02,0.89,0.64,1.2,-17,-3,-22,1.1,10399,100,81,41,85,975,738.0,657,465,60,123.0,319,1,424,585,223,0,0,771,-2830,7413,712,-5.59,44.680901,10.024749,70.59,176.1,0,0.0,-1,0.0,0.0,0,0.42,0.9357
56163,1564133090213,4,2.21,0.98,0.43,1.38,1.02,0.72,0.71,1.19,-16,-1,-23,1.01,10469,100,81,41,85,980,743.0,655,466,60,123.0,319,1,428,585,223,0,0,764,-2826,-2570,715,-5.59,,,,,,,,,,,,
56183,1564133090233,4,2.2,0.98,0.43,1.37,1.02,0.63,0.72,1.14,-16,-0,-23,0.95,10439,100,81,41,86,982,744.0,651,466,60,123.0,314,1,427,585,225,0,0,774,-31066,-2574,722,-5.59,,,,,,,,,,,,
56203,1564133090253,5,2.21,0.98,0.43,1.39,1.02,0.56,0.59,1.16,-16,0,-24,0.81,10545,100,81,41,85,980,753.0,658,470,60,123.0,314,1,432,567,225,0,0,774,-31066,-2574,722,-5.59,,,,,,,,,,,,
56223,1564133090273,9,2.22,0.97,0.43,1.39,1.03,0.56,0.53,1.24,-16,-0,-25,0.77,10599,100,81,41,86,974,750.0,658,466,60,123.0,314,1,434,585,225,0,0,773,-3450,5876,729,-5.59,,,,,,,,,,,,
56243,1564133090293,16,2.21,0.98,0.43,1.39,1.02,0.5,0.54,1.22,-15,0,-24,0.74,10629,80,81,41,83,968,748.0,660,460,60,123.0,314,1,432,549,225,0,0,779,-2830,-10214,731,-5.59,44.680904,10.024774,72.75,176.1,0,0.0,-1,0.0,0.0,0,0.42,0.9374
56263,1564133090313,18,2.22,0.98,0.43,1.39,1.02,0.58,0.45,1.19,-15,-0,-24,0.73,10533,62,81,41,77,962,743.0,661,465,60,122.0,314,1,431,485,225,0,0,776,-22796,-2560,705,-5.59,,,,,,,,,,,,
56283,1564133090333,21,2.23,0.98,0.43,1.39,1.03,0.65,0.35,1.27,-15,-3,-25,0.73,10539,46,81,41,68,959,745.0,659,468,60,123.0,275,1,443,444,194,0,0,776,-22796,-2560,705,-5.59,,,,,,,,,,,,
56303,1564133090353,22,2.23,0.98,0.43,1.38,1.02,0.73,0.31,1.34,-15,-5,-25,0.79,10387,39,81,41,62,960,745.0,662,467,60,123.0,275,1,439,383,194,0,0,776,6790,-31068,682,-5.59,,,,,,,,,,,,
56323,1564133090373,22,2.22,0.99,0.43,1.39,1.03,0.68,0.41,1.26,-14,-5,-24,0.8,10190,30,81,41,57,958,744.0,659,467,60,123.0,275,1,410,337,194,0,0,771,6790,-10216,663,-5.59,,,,,,,,,,,,
56343,1564133090393,21,2.22,0.99,0.43,1.39,1.02,0.61,0.56,1.01,-14,-4,-23,0.83,9984,26,81,41,52,953,742.0,651,469,60,123.0,275,1,394,290,194,0,0,754,-2826,-4096,662,-5.59,44.680908,10.024798,74.12,176.1,0,0.0,-1,0.0,0.0,0,0.43,0.939
56363,1564133090413,23,2.22,0.98,0.42,1.39,1.02,0.75,0.5,0.95,-14,-6,-23,0.9,9635,26,81,41,48,949,745.0,653,462,60,123.0,137,1,382,256,93,0,0,754,-2826,-4096,662,-5.59,,,,,,,,,,,,
56383,1564133090433,21,2.23,0.98,0.43,1.39,1.02,0.77,0.65,0.78,-13,-5,-22,1.01,9431,26,81,41,47,945,740.0,654,463,60,123.0,137,1,378,232,93,0,0,737,-2356,8010,690,-5.59,,,,,,,,,,,,
56403,1564133090453,21,2.23,0.98,0.43,1.39,1.03,0.7,0.78,0.65,-14,-5,-22,1.05,9236,26,81,41,46,928,738.0,647,465,60,123.0,137,1,367,227,93,0,0,730,-2830,-3578,693,-5.59,,,,,,,,,,,,
56423,1564133090473,23,2.23,0.98,0.42,1.39,1.03,0.65,0.82,0.54,-15,-5,-23,1.05,9036,26,81,41,45,895,734.0,648,460,60,122.0,137,1,357,224,93,0,0,730,-2830,-3578,693,-5.59,,,,,,,,,,,,
56443,1564133090493,22,2.24,0.98,0.43,1.39,1.02,0.78,0.67,0.53,-16,-5,-24,1.03,8836,26,81,41,45,864,737.0,645,473,60,123.0,137,1,357,222,93,0,0,736,-31066,3395,705,-5.59,44.680908,10.024798,74.12,176.1,0,0.0,-1,0.0,0.0,0,0.43,0.9407
56463,1564133090510,20,2.24,0.98,0.42,1.39,1.03,0.68,0.8,0.51,-16,-3,-24,1.05,8628,26,81,41,45,836,728.0,644,465,60,123.0,103,1,357,221,72,0,0,726,-3580,-28648,694,-5.59,,,,,,,,,,,,
56483,1564133090530,21,2.25,0.98,0.43,1.38,1.02,0.74,0.92,0.53,-16,-3,-25,1.18,8461,26,81,41,45,815,726.0,637,466,60,123.0,103,1,357,219,72,0,0,720,-25858,2104,683,-5.59,,,,,,,,,,,,
56503,1564133090550,21,2.26,0.98,0.43,1.39,1.02,0.87,0.75,0.43,-16,-3,-23,1.14,8256,26,81,41,45,811,715.0,635,465,60,121.0,103,1,356,218,72,0,0,720,-25858,2104,683,-5.59,,,,,,,,,,,,
56523,1564133090570,19,2.27,0.98,0.43,1.39,1.02,0.89,0.83,0.47,-16,-3,-24,1.22,8109,26,82,41,45,813,712.0,632,463,60,123.0,103,1,355,216,72,0,0,714,-13072,-8962,672,-5.59,,,,,,,,,,,,
56543,1564133090590,15,2.28,0.98,0.42,1.38,1.02,0.83,0.76,0.37,-15,-2,-23,1.13,7924,26,81,41,47,838,709.0,626,466,60,123.0,103,1,370,217,72,0,0,714,-13072,-8962,672,-5.59,44.68092,10.024822,73.25,176.1,0,0.0,-1,0.0,0.0,0,0.43,0.9424
56563,1564133090610,14,2.29,0.99,0.42,1.4,1.02,0.93,0.63,0.48,-15,-2,-22,1.12,7851,26,82,41,48,866,705.0,615,463,60,122.0,96,1,372,224,66,0,0,704,-30694,-28648,680,-5.59,,,,,,,,,,,,
56583,1564133090630,14,2.3,0.99,0.43,1.39,1.03,0.98,0.63,0.51,-13,-2,-23,1.17,7901,26,82,41,49,908,695.0,618,467,60,123.0,96,1,375,224,66,0,0,686,-10448,10305,680,-5.59,,,,,,,,,,,,
56603,1564133090650,15,2.32,0.99,0.43,1.4,1.02,0.95,0.66,0.31,-11,-1,-22,1.15,7786,26,82,41,48,950,688.0,625,464,60,123.0,96,1,372,230,66,0,0,683,-3584,-28332,679,-5.59,,,,,,,,,,,,
56623,1564133090670,12,2.33,0.98,0.43,1.4,1.03,0.91,0.68,0.2,-11,-0,-19,1.14,7799,26,82,41,49,967,689.0,595,465,60,123.0,96,1,375,230,66,0,0,683,-10399,6193,677,-5.59,,,,,,,,,,,,
56643,1564133090690,12,2.33,0.99,0.43,1.4,1.02,0.96,0.64,0.19,-10,-0,-18,1.16,7805,26,82,41,48,985,679.0,602,463,60,124.0,96,1,372,224,66,0,0,683,-10399,6193,677,181.28,44.680923,10.024846,70.95,176.1,0,0.0,-1,0.0,0.0,0,0.43,0.944
56663,1564133090708,12,2.33,0.99,0.43,1.4,1.02,1.07,0.54,0.27,-9,-1,-16,1.2,7754,26,82,41,47,1004,672.0,596,458,60,124.0,95,1,370,219,64,0,0,669,-2345,-4054,670,181.28,,,,,,,,,,,,
56683,1564133090728,13,2.33,0.99,0.43,1.4,1.03,1.14,0.47,0.31,-7,-0,-15,1.23,7793,26,82,41,47,1024,667.0,583,457,60,123.0,95,1,370,219,64,0,0,658,-3038,10994,666,-5.59,,,,,,,,,,,,
56703,1564133090748,13,2.32,0.99,0.43,1.39,1.03,1.13,0.4,0.25,-6,0,-14,1.19,7773,26,82,41,47,1027,665.0,580,458,60,124.0,95,1,370,219,64,0,0,631,3543,-3482,667,-5.59,,,,,,,,,,,,
56723,1564133090768,13,2.32,0.99,0.43,1.4,1.03,1.08,0.39,0.16,-4,1,-12,1.15,7780,26,82,41,48,1029,659.0,591,460,60,123.0,95,1,372,219,64,0,0,607,-3038,-32248,665,-5.59,,,,,,,,,,,,
56743,1564133090788,14,2.3,0.98,0.43,1.4,1.03,1.05,0.4,0.08,-3,2,-11,1.13,7754,26,82,41,48,1006,658.0,598,455,60,119.0,95,1,372,355,64,0,0,588,-3488,-28648,659,648.46,44.680931,10.024867,68.96,176.0,0,0.0,-1,0.0,0.0,0,0.43,0.9457
56763,1564133090810,16,2.3,0.99,0.44,1.4,1.03,1.12,0.33,0.09,-2,2,-11,1.17,8047,26,82,41,49,983,649.0,605,466,60,120.0,95,1,375,327,64,0,0,554,24,-30139,649,-5.59,,,,,,,,,,,,
56783,1564133090830,18,2.29,0.99,0.43,1.39,1.04,1.14,0.3,0.09,-1,2,-10,1.18,8162,26,82,41,48,956,641.0,618,464,60,122.0,157,1,372,298,102,0,0,554,24,-30139,649,-5.59,,,,,,,,,,,,
56803,1564133090850,16,2.28,0.99,0.44,1.39,1.03,1.18,0.29,0.12,-1,2,-9,1.21,8322,26,82,41,46,929,635.0,618,465,60,121.0,157,1,363,262,102,0,0,598,-4876,3395,641,-5.59,,,,,,,,,,,,
56823,1564133090870,13,2.29,0.99,0.44,1.39,1.04,1.13,0.3,0.05,-1,1,-7,1.17,8538,26,82,41,45,950,630.0,636,463,60,122.0,157,1,357,236,102,0,0,623,966,-30139,629,-5.59,,,,,,,,,,,,
56843,1564133090892,16,2.29,0.99,0.43,1.4,1.04,1.12,0.31,0.07,-1,2,-8,1.16,8741,26,82,41,43,970,624.0,636,466,60,123.0,157,1,345,217,102,0,0,623,966,-30139,629,-5.59,44.680946,10.024909,64.05,176.0,0,0.0,-1,0.0,0.0,0,0.44,0.9474
56863,1564133090912,14,2.29,0.99,0.43,1.4,1.03,1.04,0.32,-0.03,-1,2,-7,1.09,8869,26,82,41,42,1010,622.0,640,463,60,122.0,157,1,338,215,102,0,0,619,19320,269,620,-5.59,,,,,,,,,,,,
56883,1564133090932,13,2.29,0.99,0.43,1.4,1.03,1.03,0.27,-0.06,-2,2,-7,1.06,9001,26,82,41,41,1057,619.0,647,463,60,123.0,116,1,332,214,72,0,0,619,19320,269,620,-5.59,,,,,,,,,,,,
56903,1564133090952,12,2.31,0.99,0.43,1.39,1.03,1.12,0.27,-0.01,-2,1,-5,1.16,9213,25,82,41,40,1058,614.0,651,459,60,123.0,116,1,326,212,72,0,0,612,269,26688,616,-5.59,,,,,,,,,,,,
56923,1564133090972,12,2.32,0.98,0.43,1.4,1.03,1.13,0.34,-0.16,-2,3,-6,1.18,9615,25,82,41,39,1055,606.0,657,471,60,123.0,116,1,320,212,72,0,0,577,-23055,-30159,606,-5.59,,,,,,,,,,,,
56943,1564133090992,14,2.32,0.99,0.43,1.4,1.03,1.16,0.28,-0.2,-2,1,-5,1.19,9801,25,82,41,38,1017,601.0,663,465,60,123.0,116,1,317,211,72,0,0,530,243,-506,599,-5.59,44.680946,10.024909,64.05,176.0,0,0.0,-1,0.0,0.0,0,0.44,0.949
56963,1564133091006,15,2.33,0.99,0.43,1.4,1.03,0.99,0.38,-0.19,-1,3,-5,1.06,9904,25,82,41,38,968,597.0,660,468,60,122.0,132,1,317,211,79,0,0,530,243,-506,599,-5.59,,,,,,,,,,,,
56983,1564133091026,17,2.33,0.99,0.43,1.4,1.03,0.94,0.42,-0.21,-1,3,-4,1.03,9873,25,82,41,38,913,590.0,660,467,60,122.0,132,1,317,211,79,0,0,509,-16179,1779,597,-5.59,,,,,,,,,,,,
57003,1564133091046,17,2.33,0.99,0.43,1.4,1.03,0.89,0.36,-0.14,-1,3,-4,0.96,9801,25,82,41,39,857,586.0,659,464,60,122.0,132,1,320,213,79,0,0,531,2048,-32248,590,-5.59,,,,,,,,,,,,
57023,1564133091066,19,2.35,0.99,0.43,1.4,1.03,1.0,0.37,-0.17,-0,4,-4,1.07,9821,25,82,41,39,835,580.0,653,461,60,123.0,132,1,320,213,79,0,0,520,259,-21872,580,-5.59,,,,,,,,,,,,
57043,1564133091092,19,2.35,0.98,0.43,1.39,1.04,1.1,0.35,-0.2,-0,2,-4,1.16,9816,25,82,41,39,829,574.0,653,467,60,121.0,132,1,320,213,79,0,0,520,259,-21872,580,-5.59,44.680965,10.024946,59.18,176.1,0,0.0,-1,0.0,0.0,0,0.44,0.9507
57063,1564133091112,20,2.34,0.99,0.43,1.39,1.04,1.0,0.26,-0.13,0,1,-3,1.03,9837,25,82,41,39,826,564.0,653,462,60,122.0,140,1,320,213,79,0,0,531,-29984,10408,574,-5.59,,,,,,,,,,,,
57083,1564133091132,22,2.34,0.99,0.43,1.4,1.03,1.1,0.31,-0.12,0,1,-3,1.14,9889,25,82,41,39,825,561.0,653,467,60,121.0,140,1,320,213,79,0,0,521,-28648,-506,564,-5.59,,,,,,,,,,,,
57103,1564133091152,21,2.33,0.99,0.43,1.4,1.03,1.15,0.19,-0.07,0,0,-3,1.16,9852,25,82,41,39,826,556.0,657,467,60,123.0,140,1,320,139,79,0,0,522,14504,10408,554,-5.59,,,,,,,,,,,,
57123,1564133091172,23,2.33,0.99,0.43,1.4,1.03,1.17,0.28,-0.01,0,-1,-1,1.21,9801,25,82,41,38,830,550.0,661,460,60,123.0,140,1,317,213,79,0,0,522,14504,10408,554,-5.59,,,,,,,,,,,,
57143,1564133091192,21,2.32,1.0,0.42,1.41,1.03,1.2,0.13,-0.02,1,1,-1,1.2,9709,25,82,41,39,835,543.0,658,471,60,122.0,140,1,320,212,79,0,0,518,-3082,10408,550,-5.59,44.680973,10.024965,56.42,176.1,0,0.0,-1,0.0,0.0,0,0.44,0.9524
57163,1564133091212,24,2.3,0.99,0.43,1.4,1.03,1.23,0.21,-0.05,1,0,-1,1.25,9765,25,82,41,39,839,536.0,661,466,60,122.0,140,1,320,213,79,0,0,511,14504,-8187,536,-5.59,,,,,,,,,,,,
57183,1564133091232,20,2.28,0.99,0.43,1.4,1.03,1.2,0.1,-0.07,1,2,-1,1.2,9806,25,82,41,38,843,529.0,657,466,60,122.0,145,1,317,211,78,0,0,511,14504,-8187,536,-5.59,,,,,,,,,,,,
57203,1564133091252,22,2.26,0.99,0.43,1.4,1.03,1.23,0.19,-0.07,1,3,-1,1.24,9755,25,82,41,38,843,525.0,653,462,60,123.0,145,1,317,211,78,0,0,503,10408,2524,520,-5.59,,,,,,,,,,,,
57223,1564133091272,22,2.24,0.99,0.43,1.4,1.02,1.2,0.14,-0.07,-0,3,0,1.21,9806,25,82,41,37,842,521.0,653,465,60,122.0,145,1,314,209,78,0,0,503,10408,2524,520,-5.59,,,,,,,,,,,,
57243,1564133091292,24,2.24,0.98,0.42,1.39,1.02,1.16,0.29,-0.07,-2,3,-0,1.2,9827,25,82,41,37,839,519.0,653,463,60,122.0,145,1,314,209,78,0,0,504,10408,17136,513,-5.59,44.680981,10.024981,53.65,176.1,0,0.0,-1,0.0,0.0,0,0.44,0.954
57263,1564133091312,22,2.24,0.98,0.43,1.4,1.02,1.23,0.25,-0.08,-3,4,-2,1.25,9806,25,82,41,37,836,516.0,647,473,60,122.0,156,1,314,209,78,0,0,511,16383,11560,504,-5.59,,,,,,,,,,,,
57283,1564133091332,25,2.24,0.98,0.43,1.4,1.02,1.2,0.35,-0.05,-4,3,-2,1.25,9827,25,81,41,36,832,508.0,655,465,60,123.0,156,1,311,207,78,0,0,503,-21872,-1562,490,-5.59,,,,,,,,,,,,
57303,1564133091352,23,2.24,0.98,0.42,1.39,1.02,1.28,0.3,-0.01,-5,1,-4,1.32,9873,25,82,41,36,826,503.0,649,465,60,121.0,156,1,311,207,78,0,0,503,-21872,-1562,490,-5.59,,,,,,,,,,,,
57323,1564133091372,21,2.23,0.98,0.42,1.38,1.02,1.2,0.37,0.01,-6,1,-4,1.26,9832,25,82,41,36,817,499.0,647,462,60,123.0,156,1,311,207,78,0,0,505,11560,-17956,486,-5.59,,,,,,,,,,,,
57343,1564133091392,19,2.22,0.98,0.43,1.39,1.03,1.28,0.25,0.11,-7,2,-5,1.31,9590,25,82,41,36,810,494.0,655,467,60,123.0,156,1,311,204,78,0,0,498,-22519,-899,478,-5.59,44.680984,10.024997,50.69,176.1,0,0.0,-1,0.0,0.0,0,0.44,0.9557
57363,1564133091412,22,2.21,0.99,0.43,1.39,1.03,1.21,0.36,0.12,-8,3,-6,1.26,9356,25,82,41,36,805,493.0,656,456,60,122.0,156,1,311,202,78,0,0,505,-6528,17136,475,-5.59,,,,,,,,,,,,
57383,1564133091432,21,2.19,0.98,0.42,1.39,1.02,1.05,0.52,-0.06,-8,2,-5,1.17,9182,25,82,41,36,803,494.0,651,464,60,123.0,149,1,311,200,71,0,0,505,-6528,17136,475,-5.59,,,,,,,,,,,,
57403,1564133091452,19,2.17,0.98,0.43,1.38,1.03,0.92,0.6,-0.1,-9,2,-5,1.1,9031,25,82,41,36,808,486.0,647,463,60,124.0,149,1,311,199,71,0,0,492,-1562,-6441,459,-5.59,,,,,,,,,,,,
57423,1564133091472,20,2.15,0.98,0.43,1.39,1.02,0.79,0.66,-0.16,-9,1,-5,1.03,8928,25,82,41,36,815,484.0,646,466,60,123.0,149,1,311,199,71,0,0,492,-1562,-6441,459,-5.59,,,,,,,,,,,,
57443,1564133091491,21,2.13,0.97,0.42,1.38,1.03,0.68,0.74,-0.19,-9,2,-5,1.0,8836,25,82,41,36,824,481.0,643,466,60,124.0,149,1,311,201,71,0,0,490,-10483,2212,456,-5.59,44.680992,10.025012,48.43,176.1,0,0.0,-1,0.0,0.0,0,0.45,0.9574
57463,1564133091511,20,2.1,0.97,0.43,1.38,1.02,0.52,0.87,-0.23,-10,1,-6,1.01,8782,25,82,41,37,835,478.0,643,458,60,122.0,149,1,314,201,71,0,0,479,8488,243,444,-5.59,,,,,,,,,,,,
57483,1564133091531,21,2.09,0.97,0.42,1.38,1.03,0.53,0.98,-0.22,-12,0,-9,1.12,8737,25,82,41,37,849,479.0,641,465,60,122.0,150,1,314,201,67,0,0,479,8488,243,444,-5.59,,,,,,,,,,,,
57503,1564133091551,20,2.08,0.97,0.42,1.39,1.02,0.68,0.95,-0.18,-15,-1,-12,1.17,8700,25,82,41,38,863,478.0,640,462,60,124.0,150,1,317,201,67,0,0,480,16648,15649,439,-5.59,,,,,,,,,,,,
57523,1564133091571,16,2.07,0.98,0.42,1.37,1.02,0.82,0.75,-0.11,-17,-1,-15,1.11,8700,25,82,41,38,868,476.0,638,463,60,121.0,150,1,317,205,67,0,0,480,16648,15649,439,-5.59,,,,,,,,,,,,
57543,1564133091591,13,2.06,0.98,0.42,1.38,1.02,0.85,0.68,-0.11,-18,2,-16,1.09,8672,25,82,41,38,875,470.0,640,466,60,124.0,150,1,317,205,67,0,0,477,-17956,3571,423,-5.59,44.681,10.025025,46.71,176.2,0,0.0,-1,0.0,0.0,0,0.45,0.959
57563,1564133091611,12,2.05,0.97,0.42,1.38,1.03,0.77,0.81,-0.1,-19,1,-18,1.12,8668,25,82,41,38,898,472.0,643,463,60,122.0,150,1,317,205,67,0,0,471,-1923,30272,421,-5.59,,,,,,,,,,,,
57583,1564133091631,12,2.03,0.98,0.42,1.39,1.02,0.75,0.93,-0.15,-21,0,-19,1.19,8684,25,82,41,38,920,470.0,642,464,60,124.0,159,1,317,205,67,0,0,471,-1923,30272,421,-5.59,,,,,,,,,,,,
57603,1564133091651,10,2.0,0.98,0.42,1.38,1.02,0.87,0.73,0.05,-24,-1,-22,1.14,8680,25,82,41,38,938,467.0,639,463,60,121.0,159,1,317,205,67,0,0,471,-16384,-6387,413,-5.59,,,,,,,,,,,,
57623,1564133091671,7,2.0,0.97,0.43,1.38,1.02,0.98,0.62,0.17,-25,-0,-25,1.16,8648,25,82,41,38,956,463.0,638,466,60,124.0,159,1,317,205,67,0,0,471,243,2524,414,-5.59,,,,,,,,,,,,
57643,1564133091691,9,1.98,0.97,0.42,1.38,1.02,0.83,0.76,0.12,-26,-0,-24,1.12,8660,25,82,41,39,973,464.0,642,463,60,122.0,159,1,320,209,67,0,0,468,16408,243,404,-5.59,44.681004,10.025039,44.48,176.2,0,0.0,-1,0.0,0.0,0,0.45,0.9607
57663,1564133091711,7,1.98,0.97,0.41,1.37,1.02,0.75,0.88,0.07,-27,-1,-26,1.16,8696,25,82,41,39,990,464.0,639,463,60,122.0,170,1,320,209,69,0,0,468,16408,243,404,-5.59,,,,,,,,,,,,
57683,1564133091731,4,1.97,0.97,0.42,1.37,1.02,0.82,0.99,0.09,-29,-3,-29,1.29,8712,25,82,41,39,992,465.0,640,462,60,122.0,170,1,320,209,69,0,0,463,16408,17628,404,-5.59,,,,,,,,,,,,
57703,1564133091751,2,1.96,0.97,0.42,1.38,1.02,0.94,0.89,0.19,-31,-4,-32,1.3,8757,25,82,41,38,991,465.0,643,466,60,123.0,170,1,317,209,69,0,0,464,30272,2212,412,-5.59,,,,,,,,,,,,
57723,1564133091771,0,1.94,0.97,0.42,1.38,1.02,1.05,0.65,0.26,-32,-2,-35,1.23,8786,25,82,41,38,985,463.0,640,465,60,124.0,170,1,317,205,69,0,0,464,30272,2212,412,-5.59,,,,,,,,,,,,
57743,1564133091791,-0,1.92,0.97,0.42,1.37,1.02,0.94,0.65,0.23,-32,-1,-37,1.14,8811,25,82,41,38,979,461.0,646,466,60,123.0,170,1,317,205,69,0,0,462,6193,-17956,412,-5.59,44.681011,10.02505,42.58,176.2,0,0.0,-1,0.0,0.0,0,0.45,0.9624
57763,1564133091811,4,1.91,0.97,0.42,1.38,1.02,0.7,0.79,0.19,-32,1,-36,1.05,8836,25,82,41,38,973,462.0,643,465,60,124.0,170,1,317,209,70,0,0,467,2211,3580,413,-5.59,,,,,,,,,,,,
57783,1564133091831,2,1.9,0.97,0.41,1.38,1.02,0.54,0.91,0.16,-32,0,-37,1.06,8840,25,82,41,38,968,456.0,647,461,60,122.0,170,1,317,205,70,0,0,463,12552,16648,410,-5.59,,,,,,,,,,,,
57803,1564133091851,1,1.89,0.97,0.42,1.38,1.02,0.48,1.02,0.16,-33,-1,-38,1.13,8823,25,82,41,38,966,458.0,642,465,60,123.0,170,1,317,205,70,0,0,468,14488,32033,410,-5.59,,,,,,,,,,,,
57823,1564133091871,1,1.88,0.97,0.42,1.38,1.02,0.64,1.11,0.19,-35,-3,-41,1.28,8836,25,82,41,38,966,458.0,647,461,60,122.0,170,1,317,205,70,0,0,460,17628,-10483,406,-5.59,,,,,,,,,,,,
57843,1564133091891,2,1.88,0.97,0.42,1.38,1.02,0.77,1.08,0.19,-36,-5,-43,1.33,8861,25,82,41,38,969,457.0,643,465,60,122.0,170,1,317,205,70,0,0,461,2524,-1818,406,-5.59,44.681023,10.025061,42.21,176.2,0,0.0,-1,0.0,0.0,0,0.45,0.964
57863,1564133091911,1,1.87,0.96,0.42,1.38,1.02,0.9,0.81,0.3,-38,-4,-44,1.21,8890,25,82,41,38,975,459.0,644,462,60,122.0,169,1,317,205,69,0,0,461,2524,-1818,406,-5.59,,,,,,,,,,,,
57883,1564133091931,1,1.87,0.97,0.42,1.38,1.02,1.01,0.62,0.37,-40,-3,-48,1.18,8869,25,82,41,38,988,457.0,646,468,60,124.0,169,1,317,205,69,0,0,459,-9160,771,404,-5.59,,,,,,,,,,,,
57903,1564133091951,1,1.87,0.97,0.41,1.38,1.02,1.04,0.45,0.45,-40,-2,-49,1.13,8861,31,82,41,38,1003,455.0,645,465,60,123.0,169,1,317,205,69,0,0,459,-9160,771,404,-5.59,,,,,,,,,,,,
57923,1564133091971,-1,1.87,0.96,0.41,1.38,1.02,1.03,0.33,0.55,-40,-1,-51,1.08,8886,42,82,41,41,1016,454.0,644,463,60,123.0,169,1,332,213,69,0,0,457,2524,998,401,-5.59,,,,,,,,,,,,
57943,1564133091991,0,1.88,0.97,0.42,1.38,1.02,0.85,0.39,0.56,-38,-0,-52,0.94,8911,60,82,41,48,1026,452.0,646,465,60,123.0,169,1,374,235,69,0,0,456,-6387,3,401,-5.59,44.681023,10.025061,42.21,176.2,0,0.0,-1,0.0,0.0,0,0.45,0.9657
57963,1564133092005,1,1.88,0.97,0.42,1.39,1.02,0.68,0.49,0.51,-37,1,-52,0.84,8903,80,82,41,59,1040,451.0,646,466,60,123.0,265,1,403,315,106,0,0,456,-6387,3,401,-5.59,,,,,,,,,,,,
57983,1564133092025,1,1.87,0.98,0.42,1.38,1.02,0.45,0.64,0.43,-36,1,-51,0.78,8831,97,82,41,73,1055,448.0,646,465,60,123.0,265,1,419,416,106,0,0,457,3571,-22519,400,-5.59,,,,,,,,,,,,
58003,1564133092045,4,1.87,0.98,0.42,1.39,1.02,0.34,0.78,0.4,-36,-0,-51,0.85,8692,100,82,41,84,1065,446.0,646,465,60,123.0,265,1,425,491,106,0,0,453,10305,11560,397,-5.59,,,,,,,,,,,,
58023,1564133092065,3,1.89,0.97,0.42,1.39,1.02,0.41,0.9,0.4,-36,-1,-51,0.99,8724,100,82,41,88,1069,447.0,638,463,60,123.0,265,1,426,595,106,0,0,453,10305,-22519,396,-5.59,,,,,,,,,,,,
58043,1564133092091,2,1.92,0.97,0.42,1.38,1.03,0.53,1.01,0.35,-38,-2,-51,1.14,9124,100,82,41,87,1098,448.0,641,462,60,123.0,265,1,418,584,106,0,0,453,10305,-22519,396,-5.59,44.681038,10.025076,40.85,176.2,0,0.0,-1,0.0,0.0,0,0.45,0.9674
58063,1564133092111,3,1.95,0.97,0.42,1.39,1.02,0.56,1.11,0.28,-39,-1,-51,1.24,9493,100,82,41,87,1150,450.0,653,460,60,123.0,265,1,418,573,106,0,0,461,-3267,10305,398,-5.59,,,,,,,,,,,,
58083,1564133092131,2,1.98,0.97,0.42,1.38,1.02,0.56,1.14,0.43,-39,2,-51,1.27,9590,100,82,41,87,1200,456.0,651,465,60,123.0,527,1,415,587,210,0,0,469,17628,1779,397,-5.59,,,,,,,,,,,,
58103,1564133092151,4,2.01,0.97,0.43,1.39,1.02,0.6,1.07,0.41,-39,2,-52,1.22,9868,100,82,41,86,1247,459.0,652,462,60,122.0,527,1,402,582,210,0,0,479,-18108,6273,396,-5.59,,,,,,,,,,,,
58123,1564133092171,3,2.04,0.98,0.42,1.39,1.02,0.52,1.02,0.52,-38,5,-54,1.14,10048,100,81,41,85,1303,462.0,655,467,60,121.0,527,1,398,585,210,0,0,479,-18108,6273,396,-5.59,,,,,,,,,,,,
58143,1564133092191,2,2.07,0.98,0.42,1.39,1.02,0.48,0.96,0.58,-38,7,-56,1.07,10075,100,81,41,85,1370,465.0,658,469,60,122.0,527,1,400,567,210,0,0,529,30272,15679,402,-5.59,44.681046,10.025081,40.57,176.2,0,0.0,-1,0.0,0.0,0,0.45,0.969
58163,1564133092211,2,2.09,0.98,0.42,1.38,1.02,0.53,0.95,0.6,-39,3,-56,1.09,9968,100,82,41,86,1425,471.0,657,459,60,123.0,523,1,398,566,214,0,0,529,30272,15679,402,-5.59,,,,,,,,,,,,
58183,1564133092231,3,2.1,0.98,0.42,1.4,1.03,0.5,0.92,0.67,-39,6,-56,1.05,9863,100,81,41,86,1444,474.0,653,463,60,122.0,523,1,403,582,214,0,0,551,32033,6274,409,-5.59,,,,,,,,,,,,
58203,1564133092251,-0,2.12,0.98,0.42,1.39,1.03,0.42,0.87,0.66,-39,9,-56,0.97,9868,100,82,41,86,1448,479.0,653,459,60,123.0,523,1,402,582,214,0,0,528,10305,-2934,413,-5.59,,,,,,,,,,,,
58223,1564133092271,3,2.13,0.98,0.42,1.39,1.02,0.5,0.87,0.63,-40,5,-55,1.01,9931,100,82,41,86,1417,483.0,656,460,60,123.0,523,1,400,566,214,0,0,528,10305,-2934,413,-5.59,,,,,,,,,,,,
58243,1564133092293,3,2.16,0.98,0.42,1.39,1.02,0.34,0.93,0.73,-40,5,-54,0.99,9894,100,81,41,86,1382,484.0,660,470,60,123.0,523,1,403,583,214,0,0,528,3580,-8187,416,-5.59,44.681057,10.025084,41.67,176.1,0,0.0,-1,0.0,0.0,0,0.46,0.9707
58263,1564133092313,4,2.18,0.98,0.42,1.39,1.03,0.27,0.93,0.55,-39,3,-54,0.97,9952,100,81,41,85,1332,487.0,658,465,60,122.0,523,1,398,584,214,0,0,545,505,-22519,415,-5.59,,,,,,,,,,,,
58283,1564133092333,3,2.2,0.98,0.42,1.4,1.02,0.3,0.91,0.59,-38,3,-54,0.96,10184,100,81,41,85,1282,491.0,665,464,60,122.0,510,1,408,567,213,0,0,545,505,-22519,415,-5.59,,,,,,,,,,,,
58303,1564133092353,1,2.23,0.98,0.43,1.38,1.03,0.36,0.89,0.61,-36,3,-54,0.96,10212,100,81,41,86,1234,493.0,660,466,60,123.0,510,1,411,585,213,0,0,543,248,-2336,416,-5.59,,,,,,,,,,,,
58323,1564133092373,2,2.24,0.98,0.42,1.39,1.03,0.2,0.84,0.66,-36,3,-53,0.87,10234,100,81,41,85,1189,496.0,655,463,60,123.0,510,1,411,567,213,0,0,554,-6528,14504,427,-5.59,,,,,,,,,,,,
58343,1564133092393,1,2.26,0.98,0.43,1.39,1.03,0.2,0.8,0.62,-36,4,-52,0.83,10393,100,82,41,85,1190,499.0,661,460,60,123.0,510,1,423,567,213,0,0,559,10408,6273,456,-5.59,44.681057,10.025084,41.67,176.1,0,0.0,-1,0.0,0.0,0,0.46,0.9724
58363,1564133092409,2,2.28,0.98,0.42,1.4,1.03,0.2,0.92,0.58,-36,4,-48,0.94,10498,100,82,41,86,1191,504.0,661,465,60,123.0,508,1,431,585,233,0,0,559,10408,6273,456,-5.59,,,,,,,,,,,,
58383,1564133092429,2,2.3,0.98,0.42,1.39,1.03,0.05,1.0,0.46,-34,3,-46,1.01,10659,100,82,41,85,1187,505.0,663,468,60,122.0,508,1,434,567,233,0,0,550,15661,-28648,462,-5.59,,,,,,,,,,,,
58403,1564133092449,3,2.31,0.98,0.43,1.39,1.03,0.02,0.92,0.52,-32,4,-45,0.92,10763,100,81,41,85,1184,507.0,666,467,60,123.0,508,1,437,567,233,0,0,559,2109,1780,466,-5.59,,,,,,,,,,,,
58423,1564133092469,3,2.32,0.98,0.42,1.4,1.03,0.08,0.84,0.66,-31,3,-46,0.85,10763,100,81,41,85,1179,509.0,664,467,60,122.0,508,1,437,567,233,0,0,585,10994,6273,477,-5.59,,,,,,,,,,,,
58443,1564133092492,2,2.33,0.99,0.42,1.39,1.03,0.05,0.75,0.79,-30,5,-44,0.75,10763,100,82,41,85,1174,513.0,668,460,60,123.0,508,1,437,567,233,0,0,585,10994,6273,477,-5.59,44.68108,10.025089,46.77,176.1,0,0.0,-1,0.0,0.0,0,0.46,0.974
58463,1564133092512,4,2.34,0.98,0.42,1.39,1.03,0.24,0.77,0.86,-29,6,-41,0.81,10738,100,82,41,85,1160,516.0,664,466,60,123.0,467,1,437,567,231,0,0,576,26178,10432,486,-5.59,,,,,,,,,,,,
58483,1564133092532,1,2.33,0.98,0.43,1.39,1.03,0.25,0.89,0.86,-27,3,-38,0.93,10819,100,81,41,85,1147,520.0,673,465,60,123.0,467,1,439,567,231,0,0,565,1248,2211,501,-5.59,,,,,,,,,,,,
58503,1564133092552,2,2.32,0.98,0.42,1.4,1.03,0.1,0.96,0.8,-25,3,-35,0.96,10738,100,81,41,85,1137,522.0,664,468,60,123.0,467,1,437,567,231,0,0,584,2524,-4035,509,-5.59,,,,,,,,,,,,
58523,1564133092572,3,2.31,0.99,0.43,1.39,1.03,0.12,0.87,0.91,-22,4,-34,0.88,10726,100,82,41,85,1128,526.0,651,465,60,122.0,467,1,436,567,231,0,0,584,2524,-4035,509,-5.59,,,,,,,,,,,,
58543,1564133092592,4,2.3,0.99,0.43,1.39,1.03,0.13,0.81,0.92,-20,5,-31,0.82,10720,100,82,41,85,1117,530.0,664,461,60,123.0,467,1,436,567,231,0,0,584,2524,-28648,523,-5.59,44.68108,10.025089,46.77,176.1,0,0.0,-1,0.0,0.0,0,0.46,0.9757
58563,1564133092610,2,2.29,0.98,0.43,1.39,1.03,0.27,0.63,1.03,-19,5,-29,0.68,10683,100,82,41,85,1107,537.0,658,468,60,123.0,467,1,435,567,231,0,0,584,-30064,-16384,531,-5.59,,,,,,,,,,,,
58583,1564133092630,0,2.28,0.99,0.42,1.39,1.03,0.42,0.57,1.09,-18,3,-27,0.71,10714,100,82,41,85,1103,540.0,655,466,60,122.0,431,1,436,567,229,0,0,584,-30064,-16384,531,-5.59,,,,,,,,,,,,
58603,1564133092650,-0,2.27,0.98,0.43,1.4,1.03,0.4,0.71,1.1,-15,2,-25,0.82,10671,100,82,41,85,1102,547.0,647,466,60,123.0,431,1,435,567,229,0,0,584,-8186,-8188,535,-5.59,,,,,,,,,,,,
58623,1564133092670,1,2.25,0.99,0.42,1.39,1.04,0.41,0.66,1.03,-14,1,-23,0.77,10775,100,82,41,85,1102,552.0,655,465,60,123.0,431,1,438,567,229,0,0,584,-22519,15649,542,-5.59,,,,,,,,,,,,
58643,1564133092690,1,2.24,0.99,0.43,1.39,1.04,0.36,0.75,0.93,-12,0,-19,0.83,10794,100,82,41,85,1102,554.0,655,462,60,123.0,431,1,439,567,229,0,0,574,-28648,-16384,544,-5.59,44.681091,10.025089,49.09,176.1,0,0.0,-1,0.0,0.0,0,0.46,0.9774
58663,1564133092710,2,2.23,0.99,0.42,1.39,1.03,0.35,0.66,0.88,-11,2,-19,0.75,10869,100,82,41,85,1103,561.0,653,464,60,122.0,420,1,440,567,234,0,0,622,2524,1760,552,-5.59,,,,,,,,,,,,
58683,1564133092730,3,2.22,0.98,0.43,1.4,1.04,0.49,0.6,0.99,-12,1,-19,0.78,11016,100,82,41,85,1105,572.0,652,465,60,123.0,420,1,444,567,234,0,0,622,2211,8488,557,-5.59,,,,,,,,,,,,
58703,1564133092750,3,2.2,0.99,0.43,1.4,1.03,0.36,0.69,0.87,-12,0,-17,0.78,11048,100,82,41,85,1103,576.0,653,464,60,123.0,420,1,444,567,234,0,0,34,1,28675,562,-5.59,,,,,,,,,,,,
58723,1564133092770,2,2.2,0.99,0.43,1.4,1.03,0.45,0.61,0.98,-12,2,-19,0.76,11234,100,82,41,85,1100,584.0,663,461,60,122.0,420,1,443,567,234,0,0,595,-4035,4956,567,-5.59,,,,,,,,,,,,
58743,1564133092790,-0,2.19,0.99,0.43,1.4,1.03,0.49,0.6,0.87,-13,3,-19,0.77,11432,100,82,41,85,1096,585.0,663,462,60,123.0,420,1,441,567,234,0,0,595,-4035,4956,567,-5.59,44.681103,10.025088,51.89,176.0,0,0.0,-1,0.0,0.0,0,0.46,0.979
58763,1564133092810,1,2.19,0.99,0.43,1.4,1.03,0.44,0.51,0.94,-13,-0,-19,0.67,11545,100,82,41,84,1091,591.0,662,465,60,122.0,420,1,440,549,234,0,0,608,6273,17740,573,-5.59,,,,,,,,,,,,
58783,1564133092830,4,2.18,0.99,0.42,1.4,1.04,0.41,0.58,0.81,-13,-2,-16,0.71,11638,100,82,41,84,1079,597.0,666,462,60,122.0,420,1,440,550,240,0,0,648,30227,26688,576,-5.59,,,,,,,,,,,,
58803,1564133092850,2,2.19,0.99,0.42,1.4,1.03,0.39,0.73,0.84,-13,-3,-17,0.82,11718,100,82,41,84,1064,600.0,668,466,60,122.0,420,1,440,554,240,0,0,648,30227,26688,576,-5.59,,,,,,,,,,,,
58823,1564133092870,1,2.2,0.99,0.42,1.4,1.04,0.45,0.79,0.96,-13,-3,-17,0.91,11777,100,82,41,84,1051,608.0,668,468,60,123.0,420,1,440,555,240,0,0,648,-3210,-8429,582,-5.59,,,,,,,,,,,,
58843,1564133092892,3,2.19,0.98,0.43,1.4,1.03,0.6,0.75,1.06,-14,-1,-18,0.96,11852,100,82,41,84,1040,609.0,672,467,60,122.0,420,1,440,557,240,0,0,648,1010,771,588,-5.59,44.681133,10.025084,56.67,175.9,0,0.0,-1,0.0,0.0,0,0.46,0.9807
58863,1564133092912,2,2.18,0.99,0.43,1.4,1.04,0.74,0.67,1.11,-14,-1,-19,1.0,11904,100,82,41,84,1020,615.0,674,467,60,123.0,426,1,440,559,252,0,0,648,1010,771,588,-5.59,,,,,,,,,,,,
58883,1564133092932,1,2.19,0.99,0.42,1.4,1.03,0.84,0.56,1.18,-15,-2,-20,1.01,11980,100,82,41,84,991,623.0,676,468,60,123.0,426,1,440,560,252,0,0,41,26688,-10251,591,-5.59,,,,,,,,,,,,
58903,1564133092952,3,2.18,0.99,0.42,1.41,1.03,0.91,0.5,1.26,-15,-2,-21,1.04,12065,100,82,41,84,967,624.0,673,466,60,122.0,426,1,440,560,252,0,0,49,506,8958,603,-5.59,,,,,,,,,,,,
58923,1564133092972,3,2.18,0.99,0.42,1.4,1.04,0.99,0.47,1.33,-16,-1,-22,1.09,12214,100,82,41,84,949,631.0,675,471,60,122.0,426,1,440,560,252,0,0,49,506,8958,603,-5.59,,,,,,,,,,,,
58943,1564133092992,2,2.19,0.98,0.43,1.4,1.03,1.04,0.62,1.36,-16,-2,-22,1.21,12311,100,82,41,84,927,634.0,676,471,60,122.0,426,1,440,560,252,0,0,656,-2836,-10344,608,-5.59,44.681133,10.025084,56.67,175.9,0,0.0,-1,0.0,0.0,0,0.47,0.9824
58963,1564133093004,3,2.19,0.99,0.42,1.4,1.04,0.98,0.76,1.32,-17,-4,-20,1.24,12458,100,82,41,84,902,640.0,670,468,60,122.0,431,1,440,560,264,0,0,656,-2836,-10344,608,-5.59,,,,,,,,,,,,
58983,1564133093024,3,2.18,0.99,0.42,1.4,1.04,0.91,0.73,1.3,-17,-4,-21,1.17,12558,100,82,41,84,883,646.0,683,462,60,123.0,431,1,440,560,264,0,0,666,24,-3038,612,-5.59,,,,,,,,,,,,
59003,1564133093044,2,2.18,0.98,0.43,1.4,1.03,0.87,0.59,1.34,-17,-2,-22,1.05,12609,100,82,41,84,877,652.0,678,461,60,122.0,431,1,440,501,264,0,0,669,479,-2345,622,-5.59,,,,,,,,,,,,
59023,1564133093064,1,2.19,0.99,0.42,1.4,1.04,0.89,0.6,1.28,-18,-2,-22,1.07,12617,100,82,41,84,865,653.0,675,465,60,122.0,431,1,440,560,264,0,0,669,479,-2345,622,-5.59,,,,,,,,,,,,
59043,1564133093084,2,2.19,0.99,0.43,1.39,1.04,0.75,0.74,1.31,-17,-1,-22,1.06,12677,100,82,41,84,845,653.0,677,460,60,122.0,431,1,440,560,264,0,0,669,-3488,-388,626,-5.59,44.681145,10.02508,59.43,175.9,0,0.0,-1,0.0,0.0,0,0.47,0.984
59063,1564133093106,3,2.19,0.99,0.43,1.4,1.03,0.82,0.62,1.37,-17,-2,-23,1.03,12772,100,81,41,84,827,657.0,679,465,60,122.0,430,1,440,560,271,0,0,669,-3488,-388,626,-5.59,,,,,,,,,,,,
59083,1564133093126,3,2.18,0.99,0.42,1.4,1.04,0.77,0.64,1.38,-17,-2,-24,1.0,12711,100,82,41,84,813,665.0,682,471,60,122.0,430,1,440,560,271,0,0,677,-26380,-26892,629,-5.59,,,,,,,,,,,,
59103,1564133093146,4,2.19,0.99,0.42,1.41,1.03,0.62,0.68,1.29,-16,-1,-24,0.92,12781,100,82,41,84,799,665.0,676,467,60,122.0,430,1,440,560,271,0,0,685,-3578,-3584,641,-5.59,,,,,,,,,,,,
59123,1564133093166,3,2.19,0.99,0.42,1.4,1.03,0.73,0.62,1.3,-16,-1,-24,0.95,12939,100,82,41,84,783,670.0,684,467,60,122.0,430,1,440,560,271,0,0,685,-3578,-3584,641,-5.59,,,,,,,,,,,,
59143,1564133093192,-1,2.19,0.99,0.42,1.4,1.04,0.69,0.68,1.23,-16,-3,-24,0.97,12975,100,82,41,83,771,673.0,676,463,60,126.0,430,1,440,545,271,0,0,696,-388,24,641,414.87,44.681179,10.02507,63.46,175.8,0,0.0,-1,0.0,0.0,0,0.47,0.9857
59163,1564133093212,-2,2.21,0.99,0.42,1.4,1.03,0.72,0.57,1.3,-16,-3,-24,0.92,12319,100,82,41,84,771,676.0,668,456,60,125.0,403,1,440,560,264,0,0,693,-26380,11069,649,414.87,,,,,,,,,,,,
59183,1564133093232,-0,2.21,0.99,0.42,1.4,1.03,0.76,0.55,1.3,-16,-5,-24,0.93,11980,100,82,41,85,771,679.0,663,456,60,123.0,403,1,440,577,264,0,0,694,-26892,-2830,654,181.28,,,,,,,,,,,,
59203,1564133093252,-0,2.2,0.98,0.42,1.41,1.03,0.76,0.51,1.36,-16,-7,-25,0.92,11748,100,82,41,86,772,677.0,663,460,60,124.0,403,1,440,573,264,0,0,684,-2345,1549,655,-5.59,,,,,,,,,,,,
59223,1564133093272,0,2.21,0.98,0.42,1.4,1.04,0.76,0.47,1.42,-16,-6,-25,0.89,11602,100,82,41,86,773,676.0,665,457,60,124.0,403,1,440,586,264,0,0,683,-2826,31988,655,181.28,,,,,,,,,,,,
59243,1564133093292,3,2.2,0.99,0.42,1.4,1.03,0.79,0.46,1.41,-17,0,-27,0.91,10964,100,82,41,87,775,680.0,661,460,60,121.0,403,1,445,1080,264,0,0,80,16118,-3450,657,-5.59,44.681194,10.025063,65.31,175.8,0,0.0,-1,0.0,0.0,0,0.47,0.9874
59263,1564133093312,4,2.21,0.98,0.42,1.4,1.04,0.79,0.36,1.42,-17,2,-27,0.87,10037,100,82,41,88,788,688.0,658,467,60,121.0,579,1,399,1006,383,0,0,80,16118,-3450,657,-5.59,,,,,,,,,,,,
59283,1564133093332,2,2.2,0.99,0.42,1.4,1.04,0.59,0.45,1.39,-17,5,-26,0.74,10140,100,82,41,87,904,693.0,647,465,60,122.0,579,1,412,871,383,0,0,80,24,-31066,661,-5.59,,,,,,,,,,,,
59303,1564133093352,2,2.21,0.98,0.42,1.4,1.04,0.59,0.5,1.2,-18,8,-27,0.77,10439,100,82,41,86,1019,691.0,656,462,60,122.0,579,1,427,746,383,0,0,80,1780,-3888,665,-5.59,,,,,,,,,,,,
59323,1564133093372,2,2.21,0.99,0.42,1.4,1.03,0.65,0.51,1.26,-19,4,-26,0.83,10251,100,82,41,86,1135,697.0,660,466,60,123.0,579,1,414,640,383,0,0,80,6208,-3368,669,-5.59,,,,,,,,,,,,
59343,1564133093392,2,2.22,0.99,0.42,1.41,1.03,0.67,0.54,1.33,-20,3,-25,0.86,10140,100,82,41,86,1250,702.0,656,464,60,123.0,579,1,405,585,383,0,0,80,6208,-3368,669,-5.59,44.68121,10.025055,66.1,175.8,0,0.0,-1,0.0,0.0,0,0.47,0.989
59363,1564133093412,2,2.21,0.99,0.42,1.4,1.04,0.71,0.61,1.39,-20,2,-27,0.94,10037,100,82,41,86,1342,703.0,656,465,60,123.0,579,1,398,585,383,0,0,746,15647,1037,677,-5.59,,,,,,,,,,,,
59383,1564133093432,2,2.21,0.99,0.42,1.4,1.04,0.55,0.7,1.31,-19,3,-25,0.89,9973,100,82,41,86,1437,709.0,652,460,60,124.0,329,1,398,584,223,0,0,739,-12152,-2314,681,-5.59,,,,,,,,,,,,
59403,1564133093452,2,2.22,0.99,0.42,1.4,1.03,0.64,0.77,1.23,-20,3,-25,1.0,9994,100,82,41,85,1431,712.0,650,465,60,122.0,329,1,396,567,223,0,0,739,-12152,-2314,681,-5.59,,,,,,,,,,,,
59423,1564133093472,2,2.22,0.99,0.42,1.41,1.04,0.75,0.84,1.3,-19,1,-25,1.12,10069,100,82,41,85,1408,717.0,651,469,60,122.0,329,1,400,585,223,0,0,742,204,-3344,689,-5.59,,,,,,,,,,,,
59443,1564133093491,2,2.22,0.99,0.43,1.4,1.04,0.55,0.92,1.26,-18,3,-24,1.07,10212,100,82,41,86,1315,719.0,654,463,60,123.0,329,1,411,567,223,0,0,754,-3450,-3344,697,-5.59,44.681225,10.025044,68.18,175.7,0,0.0,-1,0.0,0.0,0,0.47,0.9907
59463,1564133093511,1,2.23,0.99,0.42,1.41,1.03,0.42,1.03,1.03,-17,4,-22,1.11,10262,100,82,41,86,1219,722.0,651,465,60,123.0,329,1,414,567,223,0,0,754,-388,-2766,704,-5.59,,,,,,,,,,,,
59483,1564133093531,-0,2.23,0.99,0.42,1.4,1.03,0.33,1.12,0.86,-17,4,-21,1.16,10296,100,82,41,85,1140,729.0,657,462,60,124.0,322,1,416,567,227,0,0,754,-388,-2766,704,-5.59,,,,,,,,,,,,
59503,1564133093551,2,2.23,0.99,0.42,1.41,1.04,0.4,1.1,0.81,-16,3,-21,1.17,10416,100,82,41,85,1066,734.0,661,463,60,122.0,322,1,425,567,227,0,0,759,-13580,-2574,709,-5.59,,,,,,,,,,,,
59523,1564133093571,1,2.23,1.0,0.42,1.41,1.04,0.56,1.03,0.82,-16,1,-21,1.18,10405,100,82,41,85,1004,735.0,662,463,60,123.0,322,1,424,567,227,0,0,760,-31066,-2344,711,-5.59,,,,,,,,,,,,
59543,1564133093591,3,2.23,0.99,0.42,1.4,1.04,0.69,0.97,0.93,-17,0,-21,1.19,10393,100,82,41,86,946,740.0,660,465,60,122.0,322,1,424,585,227,0,0,771,-2830,-2426,720,-5.59,44.68124,10.025035,70.36,175.7,0,0.0,-1,0.0,0.0,0,0.48,0.9924
59563,1564133093611,2,2.23,1.0,0.42,1.41,1.04,0.75,1.05,1.04,-16,-1,-21,1.29,10405,100,82,41,86,940,742.0,657,467,60,123.0,319,1,425,585,231,0,0,767,-2826,-31068,722,-5.59,,,,,,,,,,,,
59583,1564133093631,3,2.23,1.0,0.42,1.4,1.03,0.71,0.97,1.13,-15,-0,-22,1.2,10515,100,82,41,86,956,745.0,659,464,60,123.0,319,1,432,585,231,0,0,777,6790,-10214,728,-5.59,,,,,,,,,,,,
59603,1564133093651,3,2.22,0.99,0.42,1.41,1.04,0.84,0.78,1.2,-15,-1,-21,1.15,10498,100,82,41,86,970,750.0,661,467,60,123.0,319,1,431,585,231,0,0,953,-3344,-3368,733,-5.59,,,,,,,,,,,,
59623,1564133093671,4,2.22,1.0,0.42,1.41,1.03,0.96,0.71,1.27,-16,-1,-21,1.19,10527,100,82,41,85,983,754.0,656,466,60,123.0,319,1,431,567,231,0,0,953,-3344,-3368,733,-5.59,,,,,,,,,,,,
59643,1564133093691,4,2.23,0.99,0.42,1.4,1.04,1.0,0.73,1.34,-16,-3,-21,1.23,10545,100,82,41,85,988,757.0,650,462,60,123.0,319,1,432,585,231,0,0,953,-2574,-23308,740,-5.59,44.681255,10.025023,72.46,175.7,0,0.0,-1,0.0,0.0,0,0.48,0.994
59663,1564133093711,16,2.23,1.0,0.42,1.41,1.03,0.94,0.72,1.28,-15,-2,-21,1.18,10695,100,82,41,85,985,755.0,655,462,60,122.0,319,1,436,567,231,0,0,779,-22795,-10216,732,-5.59,,,,,,,,,,,,
59683,1564133093731,20,2.22,0.99,0.42,1.41,1.04,1.04,0.7,1.2,-15,-2,-18,1.26,10665,100,82,41,85,981,746.0,661,460,60,123.0,312,1,435,567,230,0,0,2273,-31066,3544,721,-5.59,,,,,,,,,,,,
59703,1564133093751,23,2.24,0.99,0.43,1.41,1.04,1.06,0.83,1.16,-15,-2,-17,1.35,10641,91,82,41,85,977,749.0,662,465,60,122.0,312,1,434,567,230,0,0,2273,136,-22795,726,-5.59,,,,,,,,,,,,
59723,1564133093771,28,2.24,1.0,0.42,1.41,1.03,0.96,0.9,0.91,-14,-2,-18,1.32,10557,72,82,41,81,974,742.0,652,465,60,123.0,312,1,431,515,230,0,0,2273,136,-22795,726,-5.59,,,,,,,,,,,,
59743,1564133093791,30,2.23,0.99,0.42,1.42,1.03,1.01,0.79,0.68,-14,-4,-18,1.28,10611,52,82,41,73,972,737.0,661,460,60,123.0,312,1,438,464,230,0,0,773,-3580,6389,696,-5.59,44.681271,10.025009,74.32,175.7,0,0.0,-1,0.0,0.0,0,0.48,0.9957
59763,1564133093811,31,2.23,1.0,0.42,1.41,1.04,0.98,0.85,0.65,-14,-6,-15,1.3,10439,38,82,41,64,971,739.0,662,466,60,122.0,232,1,442,411,162,0,0,773,-3580,6389,696,-5.59,,,,,,,,,,,,
59783,1564133093831,28,2.24,1.0,0.42,1.41,1.04,0.9,0.95,0.5,-14,-4,-16,1.3,10223,35,82,41,59,970,741.0,655,466,60,122.0,232,1,419,354,162,0,0,765,-2830,-10216,705,-5.59,,,,,,,,,,,,
59803,1564133093851,30,2.24,0.99,0.43,1.41,1.04,1.01,0.93,0.38,-14,-4,-16,1.37,9811,35,82,41,55,970,736.0,651,469,60,123.0,232,1,401,317,162,0,0,765,-2830,-10216,705,-5.59,,,,,,,,,,,,
59823,1564133093871,26,2.24,1.0,0.42,1.41,1.03,0.86,1.03,0.25,-13,-3,-14,1.35,9522,34,82,41,54,972,734.0,653,467,60,123.0,232,1,400,310,162,0,0,761,1037,6790,707,-5.59,,,,,,,,,,,,
59843,1564133093891,28,2.24,1.0,0.42,1.41,1.03,0.98,0.95,0.21,-14,-3,-16,1.36,9314,34,82,41,53,961,731.0,646,468,60,123.0,232,1,396,292,162,0,0,741,-31066,-25858,699,-5.59,44.681286,10.024995,74.11,175.7,0,0.0,-1,0.0,0.0,0,0.48,0.9974
59863,1564133093911,28,2.24,1.0,0.42,1.4,1.03,1.08,0.76,0.23,-15,-4,-16,1.33,9119,34,82,41,53,935,728.0,646,467,60,123.0,232,1,396,285,162,0,0,727,-2830,-3038,699,-5.59,,,,,,,,,,,,
59883,1564133093931,27,2.26,0.99,0.42,1.41,1.03,1.18,0.6,0.3,-15,-4,-18,1.32,8945,34,82,41,52,909,719.0,641,472,60,123.0,140,1,390,271,98,0,0,717,-3450,-2830,694,-5.59,,,,,,,,,,,,
59903,1564133093951,27,2.26,0.99,0.42,1.41,1.04,1.26,0.46,0.35,-16,-3,-18,1.34,8769,34,83,41,51,883,718.0,636,456,60,124.0,140,1,384,257,98,0,0,717,-3450,-2830,694,-5.59,,,,,,,,,,,,
59923,1564133093971,27,2.25,1.0,0.42,1.41,1.04,1.26,0.41,0.3,-16,-2,-19,1.33,8561,34,83,41,51,861,707.0,636,462,60,126.0,140,1,382,251,98,0,0,708,-3888,17344,681,-5.59,,,,,,,,,,,,
59943,1564133093991,26,2.26,1.0,0.42,1.41,1.03,1.2,0.54,0.23,-15,-2,-18,1.31,8355,34,83,41,51,852,699.0,637,461,60,124.0,140,1,381,248,98,0,0,708,-3888,17344,681,-5.59,44.681286,10.024995,74.11,175.7,0,0.0,-1,0.0,0.0,0,0.48,0.999
59963,1564133094005,27,2.26,1.0,0.42,1.41,1.04,1.28,0.47,0.3,-16,-1,-19,1.36,8220,33,83,41,52,849,696.0,624,461,60,123.0,140,1,384,252,98,0,0,708,1780,-8186,665,-5.59,,,,,,,,,,,,
59983,1564133094025,27,2.25,0.99,0.42,1.41,1.04,1.25,0.59,0.21,-15,-0,-18,1.38,8116,33,83,41,53,866,689.0,621,458,60,124.0,117,1,387,257,78,0,0,708,6208,-22519,664,-5.59,,,,,,,,,,,,
60003,1564133094045,27,2.26,1.0,0.42,1.41,1.03,1.32,0.56,0.16,-15,1,-17,1.43,8145,33,82,41,54,889,680.0,632,467,60,122.0,117,1,390,418,78,0,0,708,6208,-22519,664,-5.59,,,,,,,,,,,,
60023,1564133094065,27,2.26,1.0,0.42,1.41,1.04,1.32,0.63,0.22,-15,-1,-16,1.47,8263,33,82,41,54,929,667.0,629,463,60,121.0,117,1,390,396,78,0,0,662,16118,-23367,656,-5.59,,,,,,,,,,,,
60043,1564133094085,26,2.27,1.0,0.42,1.41,1.04,1.32,0.58,0.13,-15,1,-17,1.44,8355,30,82,41,53,968,666.0,629,463,60,122.0,117,1,387,343,78,0,0,662,1549,-19019,645,-5.59,44.681301,10.024981,71.82,175.7,0,0.0,-1,0.0,0.0,0,0.49,1.0007
60063,1564133094109,30,2.28,1.0,0.43,1.41,1.04,1.31,0.63,0.14,-14,-0,-18,1.45,8569,27,82,41,49,990,663.0,633,468,60,122.0,141,1,376,284,92,0,0,662,1549,-19019,645,-5.59,,,,,,,,,,,,
60083,1564133094129,29,2.28,1.0,0.42,1.42,1.04,1.34,0.54,0.13,-14,-4,-16,1.45,8773,26,82,41,47,1015,654.0,633,461,60,122.0,141,1,370,232,92,0,0,652,479,-20736,632,-5.59,,,,,,,,,,,,
60103,1564133094149,28,2.27,1.0,0.42,1.42,1.04,1.41,0.49,0.15,-15,-3,-14,1.49,8924,26,82,41,44,1054,647.0,564,466,60,124.0,141,1,351,220,92,0,0,652,479,-20736,632,-5.59,,,,,,,,,,,,
60123,1564133094169,27,2.28,1.0,0.42,1.41,1.04,1.47,0.42,0.2,-14,-3,-16,1.53,9088,25,82,41,42,1092,644.0,600,469,60,122.0,141,1,339,219,92,0,0,644,244,-20736,624,-5.59,,,,,,,,,,,,
60143,1564133094193,28,2.28,1.0,0.42,1.41,1.04,1.53,0.31,0.25,-14,-4,-17,1.56,9227,25,82,41,41,1108,638.0,636,461,60,123.0,141,1,333,215,92,0,0,644,244,125,630,-5.59,44.681328,10.024951,65.9,175.8,0,0.0,-1,0.0,0.0,0,0.49,1.0024
60163,1564133094213,28,2.28,1.0,0.42,1.42,1.04,1.58,0.32,0.3,-13,-3,-16,1.61,9291,25,82,41,40,1124,628.0,641,458,60,123.0,141,1,326,212,92,0,0,718,-16046,-28416,613,-5.59,,,,,,,,,,,,
60183,1564133094233,26,2.28,1.0,0.42,1.42,1.04,1.54,0.35,0.28,-13,-3,-14,1.58,9218,25,82,41,39,1071,622.0,645,468,60,123.0,120,1,320,136,74,0,0,718,17336,2811,611,-5.59,,,,,,,,,,,,
60203,1564133094253,20,2.27,1.01,0.42,1.42,1.04,1.39,0.51,0.11,-12,0,-12,1.48,9110,25,82,41,39,1018,616.0,643,467,60,123.0,120,1,320,209,74,0,0,718,17336,2811,611,-5.59,,,,,,,,,,,,
60223,1564133094273,14,2.28,1.0,0.42,1.42,1.04,1.24,0.58,0.03,-10,-1,-12,1.37,8975,25,82,41,39,950,613.0,643,471,60,124.0,120,1,320,209,74,0,0,610,19304,257,606,-5.59,,,,,,,,,,,,
60243,1564133094293,8,2.28,1.0,0.42,1.42,1.04,1.03,0.63,-0.06,-9,-0,-11,1.21,8861,25,82,40,40,881,609.0,640,468,60,123.0,120,1,326,137,74,0,0,608,-30139,16408,605,-5.59,44.681343,10.024936,61.91,175.8,0,0.0,-1,0.0,0.0,0,0.49,1.0041
60263,1564133094313,4,2.28,1.0,0.42,1.42,1.04,1.04,0.55,-0.02,-9,-1,-11,1.18,8882,25,82,40,40,821,611.0,640,468,60,123.0,117,1,326,211,71,0,0,608,-30139,16408,605,-5.59,,,,,,,,,,,,
60283,1564133094333,3,2.28,1.0,0.42,1.41,1.04,1.02,0.56,-0.12,-8,-1,-10,1.16,9023,25,82,40,39,761,605.0,637,462,60,123.0,117,1,320,209,71,0,0,598,1010,2211,605,-5.59,,,,,,,,,,,,
60303,1564133094353,1,2.27,1.0,0.42,1.41,1.04,0.94,0.56,-0.07,-7,-4,-8,1.09,9422,25,82,40,39,753,599.0,644,460,60,123.0,117,1,320,211,71,0,0,590,30227,6273,598,-5.59,,,,,,,,,,,,
60323,1564133094373,3,2.28,1.0,0.42,1.41,1.04,0.82,0.4,-0.05,-7,-1,-9,0.91,9615,25,82,40,38,762,595.0,649,470,60,122.0,117,1,317,209,71,0,0,590,30227,6273,598,-5.59,,,,,,,,,,,,
60343,1564133094393,9,2.28,1.0,0.42,1.41,1.04,0.8,0.5,-0.19,-6,-0,-9,0.94,9832,25,82,40,37,775,590.0,657,466,60,122.0,117,1,314,209,71,0,0,563,-16179,12552,591,-5.59,44.681351,10.02492,60.11,175.8,0,0.0,-1,0.0,0.0,0,0.49,1.0057
60363,1564133094413,16,2.28,1.0,0.42,1.42,1.05,0.77,0.36,-0.14,-6,-1,-7,0.85,9962,25,82,40,37,789,582.0,655,467,60,123.0,117,1,314,209,71,0,0,546,8488,-2934,577,-5.59,,,,,,,,,,,,
60383,1564133094433,21,2.28,1.0,0.42,1.42,1.05,0.74,0.36,-0.15,-6,-0,-8,0.82,9973,25,82,40,38,796,574.0,657,468,60,123.0,136,1,317,211,79,0,0,546,8488,-2934,577,-5.59,,,,,,,,,,,,
60403,1564133094453,27,2.27,1.0,0.42,1.42,1.05,0.87,0.42,-0.23,-5,-1,-7,0.96,9889,25,82,40,38,801,564.0,660,464,60,123.0,136,1,317,211,79,0,0,510,12552,-9216,558,-5.59,,,,,,,,,,,,
60423,1564133094473,29,2.27,1.0,0.42,1.41,1.04,0.86,0.38,-0.22,-5,-3,-7,0.94,9725,25,82,40,39,803,562.0,652,465,60,122.0,136,1,320,212,79,0,0,510,12552,-9216,558,-5.59,,,,,,,,,,,,
60443,1564133094492,30,2.28,1.01,0.42,1.42,1.05,0.98,0.36,-0.22,-6,-2,-7,1.04,9556,25,82,40,39,804,559.0,652,462,60,123.0,136,1,320,212,79,0,0,526,-23623,-22519,556,-5.59,44.681362,10.024906,57.78,175.8,0,0.0,-1,0.0,0.0,0,0.49,1.0074
60463,1564133094512,32,2.27,1.01,0.42,1.43,1.04,0.94,0.43,-0.25,-5,-2,-8,1.03,9436,25,82,40,39,803,550.0,650,462,60,123.0,136,1,320,211,79,0,0,515,-22519,-6656,541,-5.59,,,,,,,,,,,,
60483,1564133094532,33,2.25,1.01,0.42,1.42,1.04,0.93,0.39,-0.36,-5,-2,-7,1.01,9379,25,82,40,39,799,542.0,647,465,60,124.0,138,1,320,211,75,0,0,519,-3082,-17956,525,-5.59,,,,,,,,,,,,
60503,1564133094552,30,2.27,1.01,0.42,1.42,1.05,0.98,0.32,-0.32,-6,-2,-8,1.03,9254,25,82,40,39,809,536.0,641,469,60,122.0,138,1,320,210,75,0,0,519,-3082,-17956,525,-5.59,,,,,,,,,,,,
60523,1564133094572,29,2.26,1.0,0.42,1.42,1.05,1.09,0.28,-0.22,-6,-2,-8,1.12,9164,25,82,40,38,823,531.0,641,468,60,122.0,138,1,317,210,75,0,0,508,-22519,17628,516,-5.59,,,,,,,,,,,,
60543,1564133094592,25,2.26,1.0,0.42,1.43,1.04,1.18,0.33,-0.09,-7,-1,-9,1.23,9115,24,82,40,38,839,521.0,641,468,60,123.0,138,1,317,209,75,0,0,525,-9212,-3414,509,-5.59,44.681374,10.024893,54.29,175.9,0,0.0,-1,0.0,0.0,0,0.49,1.0091
60563,1564133094612,17,2.26,1.0,0.41,1.42,1.04,1.27,0.42,-0.1,-7,-3,-9,1.33,9124,24,83,40,38,857,520.0,648,462,60,124.0,138,1,317,205,71,0,0,525,-9212,-3414,509,-5.59,,,,,,,,,,,,
60583,1564133094632,13,2.26,1.01,0.42,1.42,1.05,1.23,0.52,-0.13,-7,-2,-8,1.33,9186,24,82,40,37,872,519.0,646,470,60,124.0,138,1,314,203,71,0,0,513,-8187,11560,507,-5.59,,,,,,,,,,,,
60603,1564133094652,8,2.26,1.01,0.42,1.42,1.05,1.08,0.54,-0.19,-7,-2,-7,1.21,9282,24,82,40,37,885,516.0,653,462,60,124.0,138,1,314,204,71,0,0,513,-8187,11560,507,-5.59,,,,,,,,,,,,
60623,1564133094672,7,2.27,1.0,0.42,1.42,1.05,1.02,0.45,-0.11,-7,0,-8,1.12,9384,24,82,40,36,890,510.0,651,465,60,124.0,138,1,311,202,71,0,0,509,16383,-1562,507,-5.59,,,,,,,,,,,,
60643,1564133094692,7,2.27,1.0,0.42,1.42,1.04,1.04,0.4,0.0,-7,1,-8,1.11,9512,24,82,40,36,885,509.0,653,458,60,124.0,138,1,311,204,71,0,0,748,10994,10408,502,-5.59,44.681381,10.024879,51.33,175.9,0,0.0,-1,0.0,0.0,0,0.5,1.0107
60663,1564133094712,4,2.28,1.01,0.42,1.43,1.04,0.96,0.45,0.03,-6,2,-8,1.06,9546,24,82,40,35,875,504.0,652,464,60,124.0,143,1,308,201,72,0,0,748,10994,10408,502,-5.59,,,,,,,,,,,,
60683,1564133094732,4,2.28,1.0,0.42,1.42,1.05,0.98,0.37,0.03,-5,2,-8,1.05,9537,24,82,40,35,860,503.0,651,465,60,124.0,143,1,308,201,72,0,0,748,-32248,-32248,501,-5.59,,,,,,,,,,,,
60703,1564133094752,4,2.29,1.01,0.42,1.42,1.05,1.08,0.34,0.1,-6,2,-7,1.13,9503,24,82,40,35,847,501.0,646,465,60,123.0,143,1,308,201,72,0,0,497,10408,998,494,-5.59,,,,,,,,,,,,
60723,1564133094772,6,2.28,1.0,0.42,1.43,1.04,0.97,0.32,0.17,-5,2,-7,1.03,9517,24,82,40,35,837,497.0,650,465,60,124.0,143,1,308,201,72,0,0,497,10408,998,494,-5.59,,,,,,,,,,,,
60743,1564133094792,10,2.29,1.0,0.42,1.42,1.05,0.93,0.26,0.09,-5,2,-7,0.97,9561,24,82,40,35,829,491.0,651,463,60,123.0,143,1,308,201,72,0,0,494,771,-6656,494,-5.59,44.681389,10.024866,49.37,175.9,0,0.0,-1,0.0,0.0,0,0.5,1.0124
60763,1564133094812,15,2.3,1.01,0.42,1.43,1.04,1.0,0.28,0.15,-5,1,-7,1.04,9576,24,82,40,34,823,486.0,648,470,60,122.0,149,1,305,200,72,0,0,490,248,-1818,487,-5.59,,,,,,,,,,,,
60783,1564133094832,16,2.29,1.01,0.42,1.43,1.05,1.02,0.3,0.16,-5,1,-7,1.06,9537,24,82,40,34,819,481.0,653,463,60,124.0,149,1,305,200,72,0,0,482,8488,10305,478,-5.59,,,,,,,,,,,,
60803,1564133094852,20,2.29,1.01,0.43,1.43,1.05,1.03,0.18,0.1,-5,-0,-6,1.05,9503,24,82,40,34,823,477.0,655,468,60,123.0,149,1,305,200,72,0,0,470,2212,-1923,475,648.46,,,,,,,,,,,,
60823,1564133094872,23,2.29,1.01,0.43,1.42,1.05,1.07,0.18,0.14,-5,0,-6,1.09,9333,24,82,40,34,828,473.0,652,465,60,124.0,149,1,305,196,72,0,0,470,2212,-1923,475,181.28,,,,,,,,,,,,
60843,1564133094892,22,2.29,1.01,0.42,1.43,1.05,1.13,0.25,0.2,-4,-1,-5,1.16,9110,24,82,40,34,833,470.0,651,460,60,123.0,149,1,305,193,72,0,0,478,-16384,-17956,465,-5.59,44.6814,10.024854,48.46,175.9,0,0.0,-1,0.0,0.0,0,0.5,1.0141
