"Interval"|"ms"|0|0|1,"Utc"|"ms"|0|0|1,"FB_p"|"bar"|0|300|50,"Volant"|"F"|0.0|300.0|50,"xFR"|"mm"|0.0|5.0|50,"xRR"|"mm"|0.0|5.0|50,"xFL"|"mm"|0.0|5.0|50,"xRL"|"mm"|0.0|5.0|50,"AccelX"|"G"|-3.0|3.0|50,"AccelY"|"G"|-3.0|3.0|50,"AccelZ"|"G"|-3.0|3.0|50,"Yaw"|"Deg/Sec"|-120|120|50,"Pitch"|"Deg/Sec"|-120|120|50,"Roll"|"Deg/Sec"|-120|120|50,"Gsum"|"G"|0.0|3.0|50,"RPM"|""|0|14000|50,"TPS"|"%"|0|100|50,"WaterTemp"|"?C"|0|300|50,"AirTemp"|"?C"|-1000|1000|50,"MAP"|"KPa"|0|255|50,"Lambda"|""|0|1024|50,"WheelSpeed"|"MPH"|0.0|150.0|50,"OilPress"|"PSI"|0|150|50,"FuelPress"|"PSI"|0|150|50,"OilTemp"|"F"|0|300|50,"Battery"|"Volts"|0.0|20.0|50,"FuelCon"|"L/h"|-1000|1000|50,"Gear"|""|0|10|50,"Advance"|"Deg"|-360|360|50,"Injection"|"ms"|-1000|1000|50,"FuelCon"|"L/100km"|-1000|1000|50,"LC_But_Pres"|""|-1000|1000|50,"LC_Active"|""|-1000|1000|50,"RD_Speed"|""|-1000|1000|50,"RUD_Speed"|""|-1000|1000|50,"LD_Speed"|""|-1000|1000|50,"LUD_Speed"|""|-1000|1000|50,"Ana1"|"bar"|-1000.0|1000.0|50,"Latitude"|"Degrees"|-180.0|180.0|10,"Longitude"|"Degrees"|-180.0|180.0|10,"Speed"|"kph"|0.0|150.0|10,"Altitude"|"m"|0.0|4000.0|10,"LapCount"|""|0|0|10,"LapTime"|"Min"|0.0|0.0|10,"Sector"|""|0|0|10,"SectorTime"|"Min"|0.0|0.0|10,"ElapsedTime"|"Min"|0.0|0.0|10,"CurrentLap"|""|0|0|10,"Distance"|"km"|0.0|0.0|10,"SessionTime"|"Min"|0.0|0.0|10
327463,1564151674884,2,2.51,0.93,0.31,1.42,1.07,0.44,-0.64,0.56,20,1,26,0.78,9488,38,92,44,47,1278,489.0,632,467,60,124.0,175,1,379,241,86,0,0,482,-23623,-32248,490,-5.59,,,,,,,,,,,,
327483,1564151674904,1,2.52,0.93,0.31,1.41,1.08,0.52,-0.67,0.62,21,2,25,0.85,9488,37,92,44,47,1281,492.0,640,461,60,123.0,175,1,379,231,86,0,0,493,6193,15661,491,-5.59,,,,,,,,,,,,
327503,1564151674924,4,2.52,0.94,0.31,1.41,1.09,0.5,-0.63,0.56,21,5,26,0.8,9455,34,92,44,46,1271,492.0,631,469,60,124.0,175,1,371,228,86,0,0,497,6193,2109,492,-5.59,,,,,,,,,,,,
327523,1564151674944,1,2.52,0.94,0.31,1.41,1.08,0.61,-0.71,0.49,20,3,27,0.94,9379,31,93,44,45,1257,494.0,628,466,60,124.0,175,1,362,224,86,0,0,505,30272,6274,494,-5.59,,,,,,,,,,,,
327543,1564151674964,1,2.52,0.94,0.31,1.43,1.08,0.61,-0.75,0.64,20,4,26,0.97,9291,30,92,44,43,1236,492.0,637,465,60,124.0,175,1,347,219,86,0,0,497,10432,-28648,492,-5.59,44.681404,10.024966,47.38,174.5,0,0.0,-1,0.0,0.0,0,2.2,5.4591
327563,1564151674984,2,2.52,0.94,0.31,1.41,1.08,0.65,-0.73,0.68,20,4,24,0.98,9268,30,92,44,42,1218,496.0,637,462,60,123.0,155,1,340,215,77,0,0,495,32033,26178,492,-5.59,,,,,,,,,,,,
327583,1564151674996,2,2.51,0.94,0.31,1.42,1.08,0.77,-0.7,0.62,19,4,25,1.04,9263,30,93,44,41,1195,496.0,642,466,60,123.0,155,1,333,213,77,0,0,496,8488,-3414,499,-5.59,,,,,,,,,,,,
327603,1564151675016,2,2.53,0.94,0.31,1.41,1.09,0.78,-0.63,0.55,19,2,25,1.0,9268,30,92,44,41,1164,498.0,644,456,60,124.0,155,1,333,213,77,0,0,488,8488,-4054,498,-5.59,,,,,,,,,,,,
327623,1564151675036,-0,2.52,0.94,0.31,1.42,1.08,0.65,-0.67,0.48,20,0,25,0.93,9282,29,92,44,40,1139,496.0,627,474,60,124.0,155,1,326,211,77,0,0,489,243,-4054,496,-5.59,,,,,,,,,,,,
327643,1564151675056,-0,2.52,0.94,0.3,1.42,1.08,0.6,-0.8,0.49,21,-1,24,1.0,9291,29,92,44,40,1129,499.0,639,468,60,125.0,155,1,326,211,77,0,0,490,-16384,6274,499,-5.59,44.681396,10.024981,47.49,174.5,0,0.0,-1,0.0,0.0,0,2.2,5.4607
327663,1564151675076,1,2.52,0.94,0.3,1.42,1.08,0.65,-0.87,0.52,21,-0,24,1.08,9360,29,92,44,40,1109,497.0,641,465,60,123.0,148,1,327,139,74,0,0,495,8488,-21872,497,-5.59,,,,,,,,,,,,
327683,1564151675104,2,2.52,0.93,0.3,1.41,1.08,0.72,-0.69,0.57,21,-1,23,0.99,9379,29,92,44,40,1085,500.0,641,462,60,127.0,148,1,327,212,74,0,0,492,10432,17136,498,-5.59,,,,,,,,,,,,
327703,1564151675124,-1,2.51,0.94,0.31,1.42,1.08,0.73,-0.65,0.55,20,-0,25,0.97,9398,29,93,44,40,1068,498.0,637,463,60,123.0,148,1,327,212,74,0,0,491,8488,17136,498,-5.59,,,,,,,,,,,,
327723,1564151675144,-1,2.52,0.94,0.31,1.42,1.09,0.71,-0.78,0.57,20,1,25,1.05,9384,29,92,44,39,1055,499.0,639,471,60,123.0,148,1,320,210,74,0,0,493,10432,-3414,499,-5.59,,,,,,,,,,,,
327743,1564151675164,0,2.52,0.94,0.31,1.41,1.09,0.71,-0.78,0.56,20,2,25,1.06,9412,29,92,44,39,1039,500.0,632,470,60,123.0,148,1,320,210,74,0,0,491,3576,-3856,500,-5.59,44.681389,10.024994,48.73,174.5,0,0.0,-1,0.0,0.0,0,2.2,5.4624
327763,1564151675184,2,2.52,0.94,0.31,1.41,1.08,0.72,-0.63,0.6,21,-1,25,0.96,9393,29,92,44,39,1009,504.0,632,464,60,124.0,150,1,320,210,75,0,0,494,32033,1341,504,-5.59,,,,,,,,,,,,
327783,1564151675203,-1,2.52,0.93,0.31,1.42,1.08,0.72,-0.73,0.59,21,1,26,1.03,9375,29,92,44,39,994,501.0,633,469,60,124.0,150,1,320,210,75,0,0,500,32033,-4054,501,-5.59,,,,,,,,,,,,
327803,1564151675223,-0,2.52,0.94,0.31,1.41,1.09,0.66,-0.83,0.67,20,1,27,1.06,9422,29,92,44,39,976,499.0,633,470,60,124.0,150,1,320,210,75,0,0,492,-1923,-4054,499,-5.59,,,,,,,,,,,,
327823,1564151675243,3,2.51,0.94,0.31,1.41,1.09,0.65,-0.74,0.58,21,3,26,0.99,9436,28,92,44,38,959,501.0,646,467,60,123.0,150,1,317,207,75,0,0,492,-17956,-32248,501,-5.59,,,,,,,,,,,,
327843,1564151675263,2,2.52,0.94,0.3,1.41,1.08,0.69,-0.67,0.58,21,2,27,0.96,9422,28,92,44,38,921,501.0,636,470,60,123.0,150,1,317,207,75,0,0,493,-1923,10994,502,-5.59,44.681381,10.025007,49.17,174.5,0,0.0,-1,0.0,0.0,0,2.2,5.464
327863,1564151675283,0,2.51,0.94,0.31,1.42,1.08,0.67,-0.76,0.62,21,2,27,1.01,9426,26,92,44,37,903,502.0,644,468,60,123.0,145,1,314,207,73,0,0,494,3576,-3482,502,-5.59,,,,,,,,,,,,
327883,1564151675303,1,2.51,0.94,0.31,1.41,1.08,0.7,-0.81,0.61,21,2,27,1.07,9360,26,92,44,37,887,503.0,637,460,60,123.0,145,1,314,204,73,0,0,491,32033,26178,503,-5.59,,,,,,,,,,,,
327903,1564151675323,2,2.51,0.94,0.31,1.42,1.08,0.78,-0.69,0.6,21,1,26,1.04,9351,25,92,44,37,870,500.0,638,467,60,123.0,145,1,314,201,73,0,0,495,-1923,17136,500,-5.59,,,,,,,,,,,,
327923,1564151675343,3,2.52,0.93,0.31,1.41,1.08,0.79,-0.58,0.57,21,1,27,0.98,9337,25,92,44,36,860,502.0,641,462,60,124.0,145,1,311,201,73,0,0,493,3576,-3856,502,-5.59,,,,,,,,,,,,
327943,1564151675363,-1,2.51,0.94,0.31,1.41,1.08,0.7,-0.68,0.52,21,-0,27,0.97,9286,25,92,44,36,851,502.0,627,466,60,123.0,145,1,311,200,73,0,0,489,3576,1341,502,-5.59,44.681374,10.02502,48.84,174.5,0,0.0,-1,0.0,0.0,0,2.21,5.4657
327963,1564151675383,1,2.51,0.94,0.31,1.42,1.08,0.65,-0.81,0.55,21,1,27,1.04,9282,25,92,44,36,854,500.0,643,466,60,122.0,137,1,311,197,69,0,0,488,-17956,-32248,500,-5.59,,,,,,,,,,,,
327983,1564151675403,2,2.5,0.94,0.31,1.41,1.09,0.7,-0.85,0.51,21,2,26,1.1,9254,25,92,44,35,855,502.0,631,466,60,123.0,137,1,308,197,69,0,0,482,3576,-32248,503,-5.59,,,,,,,,,,,,
328003,1564151675423,1,2.5,0.94,0.31,1.41,1.09,0.81,-0.73,0.53,21,2,26,1.09,9231,25,92,44,36,855,504.0,637,462,60,123.0,137,1,311,196,69,0,0,485,-1923,-21872,499,-5.59,,,,,,,,,,,,
328023,1564151675443,3,2.5,0.93,0.31,1.41,1.08,0.93,-0.6,0.55,21,0,27,1.11,9204,25,92,44,35,854,500.0,628,470,60,123.0,137,1,308,196,69,0,0,486,-1923,-14,500,-5.59,,,,,,,,,,,,
328043,1564151675463,3,2.5,0.93,0.31,1.42,1.09,0.96,-0.46,0.58,21,-0,27,1.06,9209,25,92,44,35,851,500.0,640,472,60,124.0,137,1,308,123,69,0,0,486,3576,-3482,500,-5.59,44.681362,10.025031,49.06,174.5,0,0.0,-1,0.0,0.0,0,2.21,5.4674
328063,1564151675483,-0,2.49,0.94,0.31,1.42,1.08,0.9,-0.47,0.53,21,-2,28,1.01,9200,25,92,44,35,846,501.0,637,469,60,124.0,133,1,308,196,67,0,0,483,-1923,-4054,501,-5.59,,,,,,,,,,,,
328083,1564151675503,0,2.49,0.94,0.31,1.42,1.08,0.77,-0.56,0.5,21,-0,28,0.96,9222,25,92,44,35,840,499.0,639,469,60,124.0,133,1,308,196,67,0,0,483,32033,-21872,499,-5.59,,,,,,,,,,,,
328103,1564151675523,0,2.49,0.94,0.3,1.42,1.08,0.65,-0.71,0.5,21,0,27,0.96,9213,25,92,44,35,835,497.0,641,466,60,124.0,133,1,308,196,67,0,0,483,8488,-3482,499,-5.59,,,,,,,,,,,,
328123,1564151675543,1,2.49,0.94,0.31,1.42,1.08,0.71,-0.81,0.48,21,1,26,1.08,9177,25,92,44,35,831,499.0,644,466,60,122.0,133,1,308,195,67,0,0,482,-1923,-28648,497,-5.59,,,,,,,,,,,,
328143,1564151675563,1,2.5,0.93,0.31,1.42,1.09,0.79,-0.8,0.48,20,3,26,1.12,9182,25,92,44,35,829,496.0,632,471,60,124.0,133,1,308,195,67,0,0,481,10432,-3414,498,-5.59,44.681354,10.025043,49.09,174.5,0,0.0,-1,0.0,0.0,0,2.21,5.469
328163,1564151675583,2,2.5,0.93,0.31,1.41,1.09,0.91,-0.69,0.43,20,0,25,1.14,9182,24,92,44,35,828,495.0,643,466,60,123.0,137,1,308,195,68,0,0,485,10432,-3414,495,-5.59,,,,,,,,,,,,
328183,1564151675603,3,2.49,0.93,0.31,1.41,1.09,0.98,-0.54,0.48,19,-1,27,1.12,9182,24,92,44,35,827,496.0,622,466,60,124.0,137,1,308,195,68,0,0,482,8488,-21872,496,-5.59,,,,,,,,,,,,
328203,1564151675623,2,2.49,0.94,0.31,1.41,1.09,0.93,-0.45,0.43,19,-3,27,1.04,9209,24,92,44,35,829,495.0,625,472,60,124.0,137,1,308,196,68,0,0,483,32033,26178,495,-5.59,,,,,,,,,,,,
328223,1564151675643,-1,2.49,0.94,0.31,1.42,1.08,0.82,-0.56,0.41,19,-2,27,0.99,9213,24,92,44,35,830,495.0,628,463,60,124.0,137,1,308,196,68,0,0,484,-16384,2109,496,-5.59,,,,,,,,,,,,
328243,1564151675663,1,2.48,0.94,0.31,1.41,1.08,0.72,-0.7,0.41,19,-1,27,1.01,9245,23,92,44,35,841,497.0,632,471,60,123.0,137,1,308,196,68,0,0,480,10432,-4054,494,-5.59,44.681343,10.025052,48.76,174.5,0,0.0,-1,0.0,0.0,0,2.21,5.4707
328263,1564151675683,2,2.48,0.93,0.31,1.42,1.08,0.7,-0.77,0.5,19,2,26,1.04,9254,21,92,44,34,848,495.0,630,460,60,123.0,137,1,305,194,68,0,0,483,-16384,11560,495,-5.59,,,,,,,,,,,,
328283,1564151675703,1,2.49,0.94,0.31,1.41,1.09,0.83,-0.76,0.45,19,1,26,1.13,9254,19,92,44,33,855,494.0,634,466,60,124.0,137,1,302,192,68,0,0,480,-3210,15661,494,-5.59,,,,,,,,,,,,
328303,1564151675723,2,2.47,0.94,0.31,1.42,1.08,0.9,-0.61,0.46,19,1,26,1.09,9209,16,92,44,32,863,493.0,643,466,60,124.0,137,1,300,188,68,0,0,480,-3210,2109,493,-5.59,,,,,,,,,,,,
328323,1564151675743,2,2.48,0.94,0.31,1.41,1.08,1.01,-0.5,0.49,18,-1,27,1.12,9137,15,92,44,31,864,493.0,638,463,60,122.0,137,1,295,185,68,0,0,481,-16384,10408,492,-5.59,,,,,,,,,,,,
328343,1564151675763,2,2.47,0.94,0.31,1.41,1.08,1.0,-0.36,0.48,18,-1,27,1.07,9036,14,92,44,30,864,494.0,622,466,60,124.0,137,1,291,184,68,0,0,480,-16384,11560,495,-5.59,44.681335,10.025062,48.67,174.5,0,0.0,-1,0.0,0.0,0,2.21,5.4724
328363,1564151675783,1,2.46,0.94,0.31,1.42,1.08,1.06,-0.34,0.5,18,-2,27,1.12,8924,14,92,44,29,859,495.0,614,471,60,124.0,125,1,287,184,62,0,0,476,32033,2109,495,-5.59,,,,,,,,,,,,
328383,1564151675803,1,2.48,0.94,0.31,1.42,1.08,1.13,-0.25,0.62,18,-3,27,1.16,8831,14,92,44,28,852,491.0,617,461,60,123.0,125,1,282,184,62,0,0,478,-3210,11560,491,-5.59,,,,,,,,,,,,
328403,1564151675823,1,2.48,0.93,0.31,1.42,1.09,1.22,-0.28,0.67,17,-2,26,1.25,8741,14,92,44,28,845,490.0,613,467,60,123.0,125,1,282,184,62,0,0,478,243,2524,490,-5.59,,,,,,,,,,,,
328423,1564151675843,0,2.47,0.93,0.31,1.42,1.08,1.16,-0.39,0.69,17,0,25,1.22,8640,13,92,44,28,841,489.0,606,466,60,123.0,125,1,282,184,62,0,0,477,-3210,2524,491,-5.59,,,,,,,,,,,,
328443,1564151675863,3,2.47,0.94,0.31,1.41,1.09,1.08,-0.45,0.52,16,1,26,1.17,8511,13,92,44,28,839,488.0,598,466,60,124.0,125,1,282,184,62,0,0,471,-3210,-32768,487,-5.59,44.681324,10.02507,47.98,174.4,0,0.0,-1,0.0,0.0,0,2.21,5.4741
328463,1564151675883,0,2.48,0.94,0.31,1.42,1.09,1.17,-0.48,0.59,16,0,25,1.26,8495,13,92,44,28,840,485.0,614,461,60,125.0,120,1,282,183,59,0,0,470,16408,1,485,-5.59,,,,,,,,,,,,
328483,1564151675904,-0,2.47,0.93,0.31,1.41,1.08,1.19,-0.41,0.63,15,-0,24,1.26,8612,13,92,44,28,839,483.0,610,470,60,124.0,120,1,282,184,59,0,0,464,12552,-23367,483,-5.59,,,,,,,,,,,,
328503,1564151675924,0,2.47,0.94,0.31,1.41,1.09,1.14,-0.46,0.6,15,-1,24,1.23,8737,13,92,44,28,836,480.0,623,466,60,124.0,120,1,282,184,59,0,0,458,-23623,-23367,479,-5.59,,,,,,,,,,,,
328523,1564151675944,2,2.47,0.94,0.31,1.42,1.08,1.05,-0.54,0.43,15,0,24,1.18,8827,13,92,43,27,835,478.0,636,467,60,124.0,120,1,278,185,59,0,0,458,-8985,10305,478,-5.59,,,,,,,,,,,,
328543,1564151675964,3,2.46,0.93,0.31,1.41,1.08,0.97,-0.55,0.43,15,0,24,1.12,8894,13,92,43,27,832,476.0,626,467,60,124.0,120,1,278,185,59,0,0,459,-8985,32033,476,-5.59,44.681313,10.025078,47.94,174.4,0,0.0,-1,0.0,0.0,0,2.21,5.4757
328563,1564151675984,3,2.47,0.93,0.3,1.41,1.09,0.83,-0.45,0.32,16,2,25,0.94,8890,13,92,43,27,829,475.0,628,464,60,124.0,128,1,278,185,61,0,0,455,3571,-17956,477,-5.59,,,,,,,,,,,,
328583,1564151675997,2,2.46,0.93,0.31,1.42,1.08,0.83,-0.36,0.35,16,1,26,0.9,8852,13,92,44,27,827,475.0,621,466,60,124.0,128,1,278,184,61,0,0,457,3571,16648,473,-5.59,,,,,,,,,,,,
328603,1564151676017,0,2.47,0.94,0.31,1.41,1.09,0.88,-0.27,0.44,16,1,25,0.91,8765,13,92,43,27,826,474.0,619,463,60,124.0,128,1,278,185,61,0,0,463,-3267,32033,474,-5.59,,,,,,,,,,,,
328623,1564151676037,2,2.46,0.94,0.31,1.42,1.08,0.98,-0.24,0.48,16,1,25,1.0,8708,13,92,43,26,828,472.0,615,466,60,123.0,128,1,274,185,61,0,0,458,-3267,32033,472,-5.59,,,,,,,,,,,,
328643,1564151676057,-0,2.46,0.94,0.31,1.42,1.08,0.98,-0.4,0.45,16,1,25,1.06,8620,13,92,44,26,829,470.0,608,468,60,125.0,128,1,274,184,61,0,0,456,8488,-9203,470,-5.59,44.681301,10.025084,47.41,174.4,0,0.0,-1,0.0,0.0,0,2.22,5.4774
328663,1564151676077,2,2.47,0.94,0.31,1.41,1.09,0.92,-0.39,0.35,16,1,26,1.0,8596,13,92,44,27,830,467.0,602,465,60,125.0,128,1,278,184,60,0,0,451,16648,3576,467,-5.59,,,,,,,,,,,,
328683,1564151676105,3,2.46,0.94,0.31,1.42,1.08,0.97,-0.38,0.42,15,1,24,1.05,8573,13,92,43,27,831,465.0,610,464,60,124.0,128,1,278,185,60,0,0,451,2131,243,465,-5.59,,,,,,,,,,,,
328703,1564151676125,-0,2.47,0.94,0.31,1.41,1.08,1.05,-0.37,0.53,14,1,24,1.11,8534,13,92,44,27,831,462.0,612,465,60,123.0,128,1,278,184,60,0,0,447,21432,8488,462,-5.59,,,,,,,,,,,,
328723,1564151676145,3,2.46,0.94,0.31,1.42,1.08,0.96,-0.38,0.43,15,2,24,1.03,8549,13,92,44,27,833,461.0,613,464,60,124.0,128,1,278,184,60,0,0,449,-18341,30272,461,-5.59,,,,,,,,,,,,
328743,1564151676165,3,2.46,0.94,0.31,1.42,1.08,1.01,-0.36,0.39,15,2,23,1.08,8522,13,92,43,27,834,461.0,616,464,60,124.0,128,1,278,185,60,0,0,448,26704,243,461,-5.59,44.681294,10.025089,46.28,174.4,0,0.0,-1,0.0,0.0,0,2.22,5.4791
328763,1564151676185,1,2.46,0.93,0.31,1.41,1.09,1.05,-0.33,0.49,14,2,23,1.1,8511,13,92,44,27,838,459.0,613,466,60,123.0,126,1,278,184,58,0,0,441,20625,2211,459,-5.59,,,,,,,,,,,,
328783,1564151676202,3,2.46,0.93,0.32,1.41,1.09,0.96,-0.37,0.36,14,2,23,1.02,8472,13,92,44,27,840,456.0,606,467,60,125.0,126,1,278,182,58,0,0,443,21580,12552,456,-5.59,,,,,,,,,,,,
328803,1564151676222,2,2.46,0.93,0.31,1.42,1.08,0.94,-0.31,0.34,14,0,23,0.99,8468,13,92,44,27,843,455.0,619,465,60,123.0,126,1,278,182,58,0,0,445,-768,2211,456,-5.59,,,,,,,,,,,,
328823,1564151676242,-0,2.46,0.94,0.31,1.42,1.08,0.97,-0.32,0.42,14,2,22,1.02,8400,13,92,44,27,846,454.0,603,465,60,124.0,126,1,278,178,58,0,0,440,-768,-18108,454,-5.59,,,,,,,,,,,,
328843,1564151676262,3,2.46,0.94,0.31,1.41,1.08,0.93,-0.29,0.28,14,3,22,0.98,8404,13,92,44,27,848,452.0,593,467,60,125.0,126,1,278,178,58,0,0,438,243,-18108,452,-5.59,44.681282,10.025095,45.54,174.5,0,0.0,-1,0.0,0.0,0,2.22,5.4807
328863,1564151676282,1,2.46,0.93,0.31,1.41,1.09,1.01,-0.23,0.3,14,1,23,1.04,8348,13,92,44,27,848,453.0,595,463,60,124.0,121,1,277,175,55,0,0,438,1779,14488,453,-5.59,,,,,,,,,,,,
328883,1564151676304,3,2.45,0.94,0.31,1.42,1.08,0.91,-0.28,0.26,14,1,22,0.95,8296,13,92,44,27,847,452.0,585,468,60,125.0,121,1,277,173,55,0,0,436,-3314,2211,449,-5.59,,,,,,,,,,,,
328903,1564151676324,-0,2.46,0.94,0.31,1.41,1.08,0.94,-0.32,0.3,15,2,21,0.99,8285,13,92,43,28,844,449.0,592,466,60,123.0,121,1,280,174,55,0,0,436,3635,14488,449,-5.59,,,,,,,,,,,,
328923,1564151676344,3,2.46,0.93,0.31,1.41,1.09,0.86,-0.37,0.36,15,2,21,0.94,8318,13,92,44,28,841,448.0,588,467,60,125.0,121,1,281,175,55,0,0,434,31796,8488,446,-5.59,,,,,,,,,,,,
328943,1564151676364,1,2.46,0.94,0.31,1.41,1.08,0.97,-0.34,0.38,15,3,20,1.03,8303,13,92,44,28,839,444.0,603,463,60,124.0,121,1,281,174,55,0,0,435,-3856,3571,444,-5.59,44.681271,10.0251,44.71,174.5,0,0.0,-1,0.0,0.0,0,2.22,5.4824
328963,1564151676384,2,2.46,0.94,0.31,1.41,1.08,0.93,-0.35,0.46,14,3,20,1.0,8289,13,92,44,28,836,444.0,594,465,60,124.0,121,1,280,171,54,0,0,431,-3856,10305,444,-5.59,,,,,,,,,,,,
328983,1564151676404,1,2.45,0.94,0.31,1.42,1.09,1.01,-0.31,0.42,14,2,20,1.06,8227,13,92,44,28,836,444.0,596,465,60,125.0,121,1,280,170,54,0,0,434,-4082,8488,444,-5.59,,,,,,,,,,,,
329003,1564151676424,2,2.46,0.94,0.31,1.41,1.09,0.96,-0.31,0.43,14,3,20,1.01,8230,13,92,44,28,836,443.0,601,466,60,124.0,121,1,280,170,54,0,0,434,3826,-3267,443,-5.59,,,,,,,,,,,,
329023,1564151676444,1,2.44,0.94,0.31,1.42,1.09,1.05,-0.28,0.36,13,0,20,1.08,8191,13,92,44,28,838,441.0,593,465,60,124.0,121,1,279,169,54,0,0,426,-8165,16648,439,-5.59,,,,,,,,,,,,
329043,1564151676464,2,2.46,0.93,0.31,1.42,1.09,0.93,-0.3,0.32,14,-0,20,0.98,8138,13,92,44,28,840,439.0,592,466,60,125.0,121,1,279,91,54,0,0,429,-21792,-18341,439,-5.59,44.681259,10.025104,44.19,174.5,0,0.0,-1,0.0,0.0,0,2.22,5.484
329063,1564151676484,0,2.45,0.93,0.31,1.41,1.09,0.98,-0.28,0.3,14,0,20,1.02,8109,13,92,44,29,843,438.0,590,464,60,123.0,116,1,282,165,51,0,0,425,-3414,21432,437,-5.59,,,,,,,,,,,,
329083,1564151676504,2,2.45,0.94,0.31,1.42,1.08,0.93,-0.26,0.24,14,0,21,0.96,8106,13,92,44,29,845,436.0,588,465,60,124.0,116,1,282,165,51,0,0,427,18584,23400,436,-5.59,,,,,,,,,,,,
329103,1564151676524,0,2.44,0.94,0.31,1.42,1.09,0.91,-0.27,0.34,14,1,20,0.95,8106,13,92,44,29,845,434.0,574,466,60,123.0,116,1,282,163,51,0,0,423,-21944,-28332,434,-5.59,,,,,,,,,,,,
329123,1564151676544,0,2.45,0.94,0.31,1.41,1.08,0.91,-0.23,0.31,14,0,19,0.94,8029,13,92,44,29,845,435.0,581,465,60,123.0,116,1,281,161,51,0,0,423,18584,21580,434,-5.59,,,,,,,,,,,,
329143,1564151676564,2,2.45,0.94,0.31,1.42,1.08,0.82,-0.2,0.27,14,1,20,0.84,8050,13,92,44,29,847,432.0,574,466,60,124.0,116,1,282,163,51,0,0,424,-26615,23400,432,-5.59,44.681248,10.025106,43.26,174.4,0,0.0,-1,0.0,0.0,0,2.22,5.4857
329163,1564151676584,0,2.45,0.93,0.31,1.41,1.08,0.88,-0.17,0.37,15,2,19,0.9,8036,13,92,44,30,850,432.0,570,467,60,123.0,113,1,284,163,49,0,0,420,2524,-7939,432,-5.59,,,,,,,,,,,,
329183,1564151676604,-0,2.44,0.93,0.31,1.42,1.08,0.92,-0.19,0.39,14,2,18,0.94,7995,13,92,44,30,853,431.0,572,465,60,124.0,113,1,284,162,49,0,0,418,-9166,-768,431,-5.59,,,,,,,,,,,,
329203,1564151676624,1,2.44,0.94,0.31,1.41,1.08,0.83,-0.2,0.39,15,2,18,0.86,8002,13,92,44,30,855,429.0,575,464,60,124.0,113,1,284,162,49,0,0,418,9517,5600,429,-5.59,,,,,,,,,,,,
329223,1564151676644,-1,2.45,0.94,0.31,1.42,1.08,0.85,-0.24,0.51,15,3,17,0.88,8005,13,92,44,30,860,428.0,575,469,60,124.0,113,1,284,162,49,0,0,420,11560,-3322,428,-5.59,,,,,,,,,,,,
329243,1564151676664,1,2.45,0.93,0.31,1.41,1.09,0.89,-0.25,0.52,15,3,17,0.92,7958,13,92,44,30,865,426.0,576,465,60,124.0,113,1,284,162,49,0,0,417,10392,-768,426,-5.59,44.68124,10.025109,42.93,174.5,0,0.0,-1,0.0,0.0,0,2.22,5.4874
329263,1564151676684,2,2.45,0.94,0.31,1.41,1.08,0.78,-0.24,0.43,15,2,18,0.82,7938,13,92,44,30,867,426.0,576,466,60,125.0,115,1,284,162,49,0,0,416,11560,3635,424,-5.59,,,,,,,,,,,,
329283,1564151676704,4,2.44,0.94,0.31,1.42,1.08,0.76,-0.22,0.5,15,4,17,0.79,7894,13,92,44,31,869,423.0,572,466,60,125.0,115,1,286,162,49,0,0,416,10392,-3314,423,-5.59,,,,,,,,,,,,
329303,1564151676724,-1,2.45,0.94,0.31,1.42,1.08,0.84,-0.25,0.53,15,4,16,0.87,7851,13,92,44,31,873,424.0,574,463,60,123.0,115,1,286,163,49,0,0,415,-26615,1779,424,-5.59,,,,,,,,,,,,
329323,1564151676744,-0,2.46,0.93,0.31,1.41,1.08,0.89,-0.29,0.51,15,2,17,0.93,7858,13,92,44,31,879,423.0,563,465,60,125.0,115,1,286,163,49,0,0,414,-9211,13180,423,-5.59,,,,,,,,,,,,
329343,1564151676764,1,2.45,0.94,0.31,1.41,1.08,0.78,-0.29,0.53,15,2,16,0.83,7845,12,92,44,31,882,421.0,562,463,60,125.0,115,1,286,163,49,0,0,413,1504,31796,420,-5.59,44.681229,10.02511,42.04,174.5,0,0.0,-1,0.0,0.0,0,2.22,5.489
329363,1564151676784,2,2.45,0.94,0.32,1.41,1.08,0.77,-0.31,0.49,15,1,16,0.83,7845,13,92,44,31,886,419.0,566,465,60,124.0,114,1,286,163,48,0,0,410,10541,13552,419,-5.59,,,,,,,,,,,,
329383,1564151676804,-1,2.45,0.93,0.31,1.42,1.08,0.86,-0.32,0.51,14,2,18,0.91,7841,13,92,44,32,888,419.0,556,466,60,124.0,114,1,290,165,48,0,0,406,11545,-3856,419,-5.59,,,,,,,,,,,,
329403,1564151676824,-1,2.45,0.94,0.31,1.41,1.08,0.97,-0.29,0.54,13,1,18,1.01,7776,12,92,44,31,890,418.0,561,465,60,124.0,114,1,286,165,48,0,0,407,11545,-3856,418,-5.59,,,,,,,,,,,,
329423,1564151676844,0,2.45,0.94,0.31,1.41,1.08,0.94,-0.29,0.51,13,-1,16,0.98,7802,13,92,44,32,891,417.0,561,466,60,125.0,114,1,290,165,48,0,0,407,10541,3826,417,-5.59,,,,,,,,,,,,
329443,1564151676864,1,2.46,0.94,0.31,1.42,1.08,0.85,-0.28,0.45,13,1,17,0.89,7754,13,92,44,32,890,415.0,560,466,60,125.0,114,1,290,165,48,0,0,410,28696,-8165,415,-5.59,44.681217,10.025112,41.63,174.5,0,0.0,-1,0.0,0.0,0,2.23,5.4907
329463,1564151676884,3,2.45,0.94,0.31,1.41,1.08,0.78,-0.25,0.41,14,3,17,0.82,7770,12,92,44,32,888,416.0,565,466,60,124.0,115,1,290,90,48,0,0,408,6384,-21792,416,-5.59,,,,,,,,,,,,
329483,1564151676904,-5,2.45,0.94,0.31,1.41,1.08,0.77,-0.26,0.46,14,4,15,0.81,7744,13,92,44,32,883,416.0,565,465,60,123.0,115,1,290,165,48,0,0,408,-3968,-3414,416,-5.59,,,,,,,,,,,,
329503,1564151676924,-1,2.45,0.94,0.32,1.42,1.08,0.85,-0.3,0.51,14,4,15,0.91,7703,13,92,44,32,881,414.0,567,466,60,123.0,115,1,290,165,48,0,0,404,17144,-3414,414,-5.59,,,,,,,,,,,,
329523,1564151676944,0,2.45,0.94,0.31,1.41,1.09,0.93,-0.32,0.52,14,2,17,0.99,7706,13,92,44,32,878,414.0,561,467,60,123.0,115,1,290,165,48,0,0,404,17144,-21792,413,-5.59,,,,,,,,,,,,
329543,1564151676964,0,2.46,0.94,0.32,1.41,1.09,0.96,-0.26,0.53,13,1,17,0.99,7659,13,92,44,32,876,413.0,571,464,60,125.0,115,1,290,165,48,0,0,400,-1818,-21944,413,-5.59,44.681206,10.025112,41.01,174.5,0,0.0,-1,0.0,0.0,0,2.23,5.4924
329563,1564151676984,0,2.45,0.93,0.31,1.41,1.09,0.91,-0.25,0.49,13,-0,16,0.95,7684,13,92,44,33,874,412.0,555,467,60,125.0,114,1,292,170,47,0,0,402,17144,-3414,412,-5.59,,,,,,,,,,,,
329583,1564151676996,-0,2.46,0.94,0.32,1.42,1.08,0.86,-0.3,0.43,13,0,17,0.91,7621,13,92,44,32,874,409.0,553,465,60,125.0,114,1,290,170,47,0,0,403,-1818,-26615,409,-5.59,,,,,,,,,,,,
329603,1564151677016,1,2.45,0.94,0.31,1.42,1.09,0.75,-0.21,0.34,13,1,17,0.78,7637,13,92,44,33,876,410.0,556,466,60,123.0,114,1,292,165,47,0,0,398,-6656,2524,410,-5.59,,,,,,,,,,,,
329623,1564151677036,2,2.45,0.94,0.31,1.41,1.08,0.66,-0.27,0.34,14,1,14,0.71,7588,13,92,44,33,878,410.0,542,466,60,124.0,114,1,292,170,47,0,0,398,1,13040,408,-5.59,,,,,,,,,,,,
329643,1564151677056,2,2.46,0.94,0.31,1.42,1.08,0.62,-0.32,0.3,14,2,16,0.7,7631,13,92,44,33,881,407.0,546,463,60,124.0,114,1,292,170,47,0,0,401,-6524,13040,408,-5.59,44.681198,10.025112,40.66,174.5,0,0.0,-1,0.0,0.0,0,2.23,5.4941
329663,1564151677076,1,2.45,0.94,0.32,1.42,1.08,0.66,-0.34,0.35,14,4,17,0.74,7569,13,92,44,33,885,407.0,542,467,60,124.0,117,1,292,170,48,0,0,397,-31744,-4059,407,-5.59,,,,,,,,,,,,
329683,1564151677104,3,2.44,0.94,0.31,1.42,1.08,0.7,-0.35,0.37,14,4,16,0.78,7591,13,92,44,33,887,407.0,547,467,60,124.0,117,1,292,170,48,0,0,396,-31744,11560,407,-5.59,,,,,,,,,,,,
329703,1564151677124,3,2.45,0.93,0.31,1.41,1.09,0.75,-0.36,0.4,14,6,15,0.83,7548,13,92,44,33,895,407.0,548,466,60,123.0,117,1,292,170,48,0,0,397,240,11560,407,-5.59,,,,,,,,,,,,
329723,1564151677144,2,2.45,0.94,0.31,1.42,1.08,0.78,-0.42,0.38,14,7,16,0.88,7548,13,92,44,34,904,406.0,552,466,60,124.0,117,1,295,170,48,0,0,398,-31744,13040,406,-5.59,,,,,,,,,,,,
329743,1564151677164,3,2.46,0.93,0.32,1.42,1.09,0.9,-0.43,0.42,14,7,18,1.0,7527,13,92,44,33,915,402.0,549,468,60,124.0,117,1,292,170,48,0,0,394,-3866,-4059,402,-5.59,44.681187,10.025112,40.19,174.5,0,0.0,-1,0.0,0.0,0,2.23,5.4957
329763,1564151677184,1,2.45,0.94,0.32,1.41,1.09,0.97,-0.41,0.48,14,7,17,1.05,7500,13,92,44,34,926,404.0,563,469,60,123.0,119,1,295,175,48,0,0,393,-6475,13040,404,-5.59,,,,,,,,,,,,
329783,1564151677203,4,2.44,0.93,0.31,1.42,1.08,1.02,-0.4,0.49,14,8,17,1.09,7512,13,92,44,34,933,402.0,555,465,60,123.0,119,1,295,175,48,0,0,394,-6475,2524,402,-5.59,,,,,,,,,,,,
329803,1564151677223,2,2.45,0.94,0.32,1.42,1.08,1.07,-0.42,0.52,14,8,18,1.15,7458,13,92,44,34,949,401.0,558,466,60,123.0,119,1,295,175,48,0,0,390,-19126,10392,400,-5.59,,,,,,,,,,,,
329823,1564151677243,2,2.46,0.93,0.31,1.41,1.09,1.14,-0.43,0.52,13,8,19,1.22,7434,13,92,44,34,958,400.0,556,466,60,124.0,119,1,295,175,48,0,0,390,-19126,9517,399,-5.59,,,,,,,,,,,,
329843,1564151677263,1,2.45,0.94,0.32,1.42,1.08,1.2,-0.4,0.56,13,8,18,1.26,7476,13,92,44,34,962,399.0,552,466,60,123.0,119,1,295,175,48,0,0,388,19125,9517,398,-5.59,44.681179,10.025111,39.69,174.5,0,0.0,-1,0.0,0.0,0,2.23,5.4974
329863,1564151677283,1,2.45,0.94,0.32,1.42,1.08,1.15,-0.39,0.56,14,8,17,1.22,7455,13,92,44,34,969,396.0,541,466,60,123.0,122,1,295,175,49,0,0,390,-18948,2524,396,-5.59,,,,,,,,,,,,
329883,1564151677303,3,2.45,0.94,0.31,1.42,1.08,1.09,-0.42,0.5,14,10,18,1.17,7464,13,92,44,34,976,397.0,537,463,60,124.0,122,1,295,175,49,0,0,391,19125,2524,397,-5.59,,,,,,,,,,,,
329903,1564151677323,2,2.45,0.94,0.32,1.41,1.09,1.05,-0.4,0.43,14,11,20,1.12,7411,13,92,44,34,987,399.0,542,466,60,123.0,122,1,295,175,49,0,0,384,-992,-26615,399,-5.59,,,,,,,,,,,,
329923,1564151677343,1,2.46,0.94,0.31,1.42,1.08,0.93,-0.35,0.37,14,11,18,1.0,7408,13,92,44,34,991,396.0,538,463,60,125.0,122,1,295,175,49,0,0,386,8200,-26615,396,-5.59,,,,,,,,,,,,
329943,1564151677363,2,2.45,0.93,0.32,1.42,1.09,0.79,-0.36,0.29,15,10,16,0.87,7367,13,92,44,34,996,395.0,528,463,60,124.0,122,1,295,175,49,0,0,386,8200,11545,395,-5.59,44.681168,10.025109,39.36,174.5,0,0.0,-1,0.0,0.0,0,2.23,5.4991
329963,1564151677383,2,2.45,0.94,0.32,1.42,1.08,0.67,-0.33,0.22,15,10,17,0.75,7361,13,92,44,35,1004,395.0,541,464,60,124.0,126,1,298,175,50,0,0,388,-6656,11545,395,-5.59,,,,,,,,,,,,
329983,1564151677403,-0,2.46,0.94,0.31,1.42,1.08,0.58,-0.29,0.16,15,10,17,0.65,7327,13,92,44,35,1008,395.0,534,466,60,123.0,126,1,298,181,50,0,0,385,-6656,28696,395,-5.59,,,,,,,,,,,,
330003,1564151677423,-1,2.45,0.94,0.32,1.43,1.08,0.58,-0.28,0.24,14,7,17,0.64,7332,13,92,44,35,1010,394.0,549,463,60,125.0,126,1,298,181,50,0,0,382,-6656,28696,394,-5.59,,,,,,,,,,,,
330023,1564151677443,-0,2.45,0.94,0.31,1.42,1.08,0.73,-0.28,0.31,13,4,16,0.78,7292,13,92,44,35,1010,395.0,554,465,60,123.0,126,1,298,181,50,0,0,384,-6656,6384,395,-5.59,,,,,,,,,,,,
330043,1564151677463,0,2.45,0.94,0.32,1.42,1.08,0.86,-0.3,0.39,13,3,16,0.91,7318,13,92,44,35,1012,393.0,544,463,60,123.0,126,1,298,181,50,0,0,384,-6656,17144,393,-5.59,44.68116,10.025107,38.98,174.5,0,0.0,-1,0.0,0.0,0,2.23,5.5007
330063,1564151677483,2,2.45,0.94,0.31,1.42,1.08,0.95,-0.35,0.49,13,3,19,1.02,7278,13,92,44,36,1014,392.0,550,468,60,122.0,127,1,301,186,50,0,0,384,742,11545,392,-5.59,,,,,,,,,,,,
330083,1564151677504,2,2.45,0.94,0.32,1.42,1.08,0.98,-0.36,0.48,13,4,19,1.04,7284,13,92,44,35,1016,390.0,542,465,60,121.0,127,1,298,181,50,0,0,381,742,6384,390,-5.59,,,,,,,,,,,,
330103,1564151677524,0,2.45,0.94,0.32,1.42,1.08,0.87,-0.31,0.4,13,6,17,0.92,7309,13,92,44,36,1017,390.0,542,468,60,123.0,127,1,301,181,50,0,0,383,-6656,17144,390,-5.59,,,,,,,,,,,,
330123,1564151677544,1,2.45,0.94,0.32,1.42,1.09,0.73,-0.31,0.31,13,6,16,0.8,7292,13,92,44,35,1020,390.0,541,461,60,123.0,127,1,298,186,50,0,0,384,1,11545,390,-5.59,,,,,,,,,,,,
330143,1564151677564,1,2.45,0.94,0.32,1.42,1.08,0.69,-0.31,0.32,13,4,16,0.75,7301,13,92,44,36,1022,390.0,545,465,60,123.0,127,1,301,186,50,0,0,379,257,6384,390,-5.59,44.681148,10.025105,38.68,174.5,0,0.0,-1,0.0,0.0,0,2.23,5.5024
330163,1564151677584,0,2.45,0.94,0.32,1.42,1.08,0.71,-0.27,0.41,12,3,17,0.76,7281,13,92,44,36,1024,390.0,541,466,60,123.0,131,1,301,186,51,0,0,379,257,6384,390,-5.59,,,,,,,,,,,,
330183,1564151677603,1,2.44,0.94,0.31,1.42,1.09,0.84,-0.28,0.55,12,0,18,0.89,7281,13,92,44,36,1025,388.0,532,465,60,123.0,131,1,301,186,51,0,0,381,1,17144,388,-5.59,,,,,,,,,,,,
330203,1564151677623,2,2.44,0.94,0.31,1.42,1.08,0.96,-0.29,0.63,11,1,17,1.0,7233,13,92,44,36,1023,386.0,535,466,60,123.0,131,1,301,186,51,0,0,379,486,17144,386,-5.59,,,,,,,,,,,,
330223,1564151677643,2,2.44,0.94,0.31,1.42,1.08,0.91,-0.31,0.55,12,3,17,0.96,7197,13,92,44,36,1020,387.0,521,466,60,123.0,131,1,301,186,51,0,0,378,-6656,-32702,387,-5.59,,,,,,,,,,,,
330243,1564151677663,-0,2.45,0.94,0.32,1.42,1.08,0.84,-0.28,0.44,12,3,19,0.88,7200,13,92,44,36,1018,386.0,529,464,60,124.0,131,1,301,186,51,0,0,379,0,6384,386,-5.59,44.681141,10.025103,38.27,174.5,0,0.0,-1,0.0,0.0,0,2.23,5.5041
330263,1564151677683,-1,2.45,0.94,0.31,1.42,1.08,0.76,-0.23,0.44,12,3,18,0.8,7159,13,92,44,36,1014,386.0,528,465,60,123.0,129,1,301,186,50,0,0,378,-6656,-6656,386,-5.59,,,,,,,,,,,,
330283,1564151677703,-1,2.45,0.94,0.32,1.41,1.09,0.84,-0.27,0.57,11,-0,18,0.88,7164,13,92,44,37,1009,384.0,532,468,60,123.0,129,1,304,192,50,0,0,376,0,17144,384,-5.59,,,,,,,,,,,,
330303,1564151677723,2,2.43,0.94,0.32,1.42,1.08,0.94,-0.21,0.6,11,0,19,0.96,7145,13,92,44,37,1002,385.0,534,466,60,124.0,129,1,304,192,50,0,0,377,230,17144,385,-5.59,,,,,,,,,,,,
330323,1564151677743,1,2.44,0.93,0.31,1.42,1.09,0.82,-0.23,0.49,12,2,18,0.85,7110,13,92,44,37,997,384.0,533,464,60,125.0,129,1,304,192,50,0,0,376,0,505,384,-5.59,,,,,,,,,,,,
330343,1564151677763,-2,2.44,0.94,0.32,1.41,1.09,0.82,-0.23,0.47,11,1,17,0.85,7134,13,92,44,37,994,383.0,538,465,60,124.0,129,1,304,192,50,0,0,376,0,-1562,383,-5.59,44.681129,10.0251,38.11,174.5,0,0.0,-1,0.0,0.0,0,2.24,5.5057
330363,1564151677783,-1,2.44,0.94,0.32,1.42,1.08,0.87,-0.25,0.6,11,0,18,0.9,7129,13,92,44,37,992,383.0,542,468,60,123.0,133,1,304,192,51,0,0,374,230,-6524,383,-5.59,,,,,,,,,,,,
330383,1564151677803,1,2.44,0.94,0.31,1.42,1.08,0.98,-0.23,0.67,11,-0,19,1.01,7129,13,92,44,37,992,382.0,532,463,60,124.0,133,1,304,192,51,0,0,374,230,-3866,382,-5.59,,,,,,,,,,,,
330403,1564151677823,1,2.43,0.94,0.32,1.42,1.08,0.92,-0.2,0.6,11,2,17,0.94,7145,13,92,44,37,992,382.0,528,463,60,124.0,133,1,304,192,51,0,0,375,-6405,-19126,382,-5.59,,,,,,,,,,,,
330423,1564151677843,-1,2.43,0.94,0.32,1.41,1.08,0.83,-0.24,0.47,11,1,16,0.87,7121,13,92,44,37,994,381.0,530,464,60,125.0,133,1,304,192,51,0,0,373,230,-31744,381,-5.59,,,,,,,,,,,,
330443,1564151677863,-1,2.44,0.94,0.31,1.42,1.08,0.94,-0.3,0.56,11,0,17,0.99,7129,13,92,44,37,997,380.0,537,464,60,124.0,133,1,304,197,51,0,0,372,3082,-6524,380,-5.59,44.681122,10.025095,37.78,174.5,0,0.0,-1,0.0,0.0,0,2.24,5.5074
330463,1564151677883,2,2.43,0.94,0.32,1.41,1.09,0.96,-0.34,0.6,11,1,17,1.02,7115,13,92,44,37,999,380.0,526,466,60,123.0,134,1,304,192,51,0,0,373,3082,240,379,-5.59,,,,,,,,,,,,
330483,1564151677903,0,2.43,0.94,0.32,1.41,1.09,0.92,-0.3,0.5,11,3,16,0.97,7078,13,92,44,37,1002,378.0,521,465,60,124.0,134,1,304,192,51,0,0,373,-6405,-1562,378,-5.59,,,,,,,,,,,,
330503,1564151677923,-1,2.43,0.94,0.32,1.41,1.08,0.84,-0.32,0.51,11,1,15,0.9,7102,13,92,44,37,1002,377.0,528,465,60,124.0,134,1,304,118,51,0,0,371,-1268,-18948,379,-5.59,,,,,,,,,,,,
330523,1564151677943,1,2.44,0.94,0.32,1.42,1.08,0.95,-0.33,0.57,10,1,14,1.0,7059,13,92,44,38,1002,378.0,526,464,60,123.0,134,1,307,197,51,0,0,371,-1268,240,378,-5.59,,,,,,,,,,,,
330543,1564151677963,2,2.43,0.94,0.32,1.42,1.08,0.93,-0.31,0.52,11,2,14,0.98,7064,13,92,44,38,1000,376.0,522,466,60,124.0,134,1,307,197,51,0,0,372,2790,-992,376,-5.59,44.68111,10.025091,37.51,174.5,0,0.0,-1,0.0,0.0,0,2.24,5.509
330563,1564151677983,-1,2.44,0.93,0.32,1.41,1.09,0.85,-0.25,0.42,10,2,14,0.88,7088,13,92,44,37,999,375.0,530,465,60,124.0,140,1,304,197,53,0,0,370,-6458,-6656,375,-5.59,,,,,,,,,,,,
330583,1564151677991,-1,2.43,0.93,0.32,1.42,1.08,0.82,-0.21,0.53,11,2,15,0.85,7059,13,92,44,38,996,375.0,525,465,60,124.0,140,1,307,197,53,0,0,369,2790,19125,375,-5.59,,,,,,,,,,,,
330603,1564151678011,2,2.43,0.94,0.32,1.43,1.08,0.93,-0.21,0.57,10,1,14,0.95,7056,13,92,44,38,994,375.0,526,466,60,123.0,140,1,307,197,53,0,0,371,-6458,-992,375,-5.59,,,,,,,,,,,,
330623,1564151678031,-0,2.44,0.94,0.32,1.41,1.09,0.89,-0.15,0.42,11,2,13,0.9,7067,13,92,44,38,992,375.0,528,465,60,124.0,140,1,307,197,53,0,0,368,2790,-19126,375,-5.59,,,,,,,,,,,,
330643,1564151678051,1,2.43,0.94,0.32,1.41,1.09,0.85,-0.2,0.39,10,0,13,0.87,7035,13,92,44,38,989,375.0,528,464,60,122.0,140,1,307,197,53,0,0,365,-29302,19125,375,-5.59,44.681103,10.025086,37.02,174.5,0,0.0,-1,0.0,0.0,0,2.24,5.5107
330663,1564151678071,3,2.42,0.94,0.32,1.41,1.09,0.94,-0.21,0.51,10,-0,14,0.96,7038,13,92,44,38,989,373.0,538,466,60,121.0,139,1,307,197,52,0,0,362,-14707,19125,373,-5.59,,,,,,,,,,,,
330683,1564151678103,1,2.42,0.94,0.32,1.42,1.08,0.86,-0.16,0.43,10,-0,15,0.87,7040,13,92,44,38,989,373.0,527,467,60,125.0,139,1,307,197,52,0,0,362,-14707,19125,372,-5.59,,,,,,,,,,,,
330703,1564151678123,-0,2.43,0.94,0.31,1.43,1.08,0.78,-0.13,0.38,10,2,14,0.79,7019,13,92,44,38,984,372.0,515,462,60,125.0,139,1,307,197,52,0,0,365,-29302,2278,371,-5.59,,,,,,,,,,,,
330723,1564151678143,3,2.43,0.94,0.32,1.42,1.09,0.84,-0.16,0.52,10,-1,14,0.86,7040,13,92,44,38,981,373.0,519,468,60,123.0,139,1,307,197,52,0,0,366,-29302,-992,373,-5.59,,,,,,,,,,,,
330743,1564151678163,2,2.42,0.94,0.31,1.42,1.08,0.89,-0.15,0.51,10,0,13,0.91,7030,13,92,44,38,977,371.0,519,466,60,123.0,139,1,307,197,52,0,0,366,-6640,19125,371,-5.59,44.681095,10.025082,37.02,174.5,0,0.0,-1,0.0,0.0,0,2.24,5.5124
330763,1564151678183,-0,2.42,0.94,0.31,1.42,1.08,0.83,-0.16,0.43,10,-0,12,0.84,7022,13,92,44,38,972,372.0,519,462,60,125.0,139,1,307,197,52,0,0,367,-29978,-992,372,-5.59,,,,,,,,,,,,
330783,1564151678202,3,2.42,0.94,0.31,1.43,1.08,0.93,-0.18,0.51,10,-2,13,0.95,7025,13,92,44,38,969,371.0,523,468,60,123.0,139,1,307,197,52,0,0,365,3302,-18948,371,-5.59,,,,,,,,,,,,
330803,1564151678222,2,2.42,0.93,0.32,1.42,1.09,0.9,-0.22,0.47,10,-1,15,0.93,7033,13,92,44,38,964,369.0,520,466,60,123.0,139,1,307,197,52,0,0,366,-6640,-992,369,-5.59,,,,,,,,,,,,
330823,1564151678242,1,2.42,0.94,0.31,1.42,1.08,0.83,-0.16,0.38,10,2,13,0.85,6996,13,92,44,38,963,370.0,512,463,60,125.0,139,1,307,197,52,0,0,367,-6640,8200,370,-5.59,,,,,,,,,,,,
330843,1564151678262,3,2.43,0.94,0.31,1.42,1.08,0.84,-0.22,0.45,10,-1,13,0.87,6998,13,92,44,38,962,370.0,525,466,60,123.0,139,1,307,203,52,0,0,368,-29978,770,369,-5.59,44.681084,10.025076,36.8,174.5,0,0.0,-1,0.0,0.0,0,2.24,5.514
330863,1564151678282,2,2.43,0.93,0.31,1.42,1.09,0.88,-0.16,0.47,10,-0,13,0.9,6991,13,92,44,38,961,369.0,524,463,60,124.0,140,1,307,197,52,0,0,366,-6640,257,369,-5.59,,,,,,,,,,,,
330883,1564151678304,-1,2.42,0.94,0.31,1.42,1.08,0.79,-0.15,0.4,10,0,12,0.81,6962,13,92,44,38,958,369.0,524,461,60,125.0,140,1,307,197,52,0,0,365,4104,3,369,-5.59,,,,,,,,,,,,
330903,1564151678324,2,2.42,0.94,0.31,1.42,1.08,0.84,-0.17,0.49,10,0,13,0.86,6970,13,92,44,39,957,367.0,532,469,60,122.0,140,1,310,130,52,0,0,365,2060,3,367,-5.59,,,,,,,,,,,,
330923,1564151678344,0,2.42,0.94,0.32,1.42,1.08,0.83,-0.14,0.42,10,1,14,0.84,6962,13,92,44,38,956,368.0,528,463,60,124.0,140,1,307,197,52,0,0,367,4104,3,368,-5.59,,,,,,,,,,,,
330943,1564151678364,-0,2.42,0.93,0.31,1.42,1.08,0.77,-0.1,0.37,10,2,13,0.78,6913,13,92,44,39,955,367.0,535,465,60,123.0,140,1,310,203,52,0,0,363,-6644,8200,368,-5.59,44.681076,10.02507,36.65,174.5,0,0.0,-1,0.0,0.0,0,2.24,5.5157
330963,1564151678384,1,2.42,0.93,0.31,1.42,1.09,0.85,-0.17,0.5,9,-1,14,0.87,6903,13,92,44,39,954,366.0,524,470,60,123.0,143,1,310,203,53,0,0,363,-6644,742,366,-5.59,,,,,,,,,,,,
330983,1564151678404,0,2.42,0.94,0.31,1.41,1.09,0.81,-0.09,0.38,10,1,13,0.82,6926,13,92,44,39,954,367.0,515,464,60,125.0,143,1,310,203,53,0,0,366,3302,8200,367,-5.59,,,,,,,,,,,,
331003,1564151678424,-1,2.42,0.94,0.31,1.42,1.08,0.85,-0.19,0.4,9,-0,12,0.87,6890,13,92,44,39,955,366.0,519,464,60,124.0,143,1,310,203,53,0,0,365,-6644,1,366,-5.59,,,,,,,,,,,,
331023,1564151678444,1,2.42,0.94,0.31,1.42,1.08,0.86,-0.19,0.41,10,0,13,0.88,6883,13,92,44,39,956,365.0,514,467,60,123.0,143,1,310,203,53,0,0,362,-6644,742,365,-5.59,,,,,,,,,,,,
331043,1564151678464,-1,2.41,0.94,0.31,1.42,1.09,0.85,-0.19,0.42,9,-1,12,0.87,6908,13,92,44,39,956,366.0,514,467,60,125.0,143,1,310,203,53,0,0,360,-6644,-6656,366,-5.59,44.681068,10.025064,36.35,174.5,0,0.0,-1,0.0,0.0,0,2.24,5.5174
331063,1564151678484,2,2.41,0.93,0.31,1.43,1.08,0.83,-0.27,0.55,9,-1,13,0.87,6853,13,92,44,39,955,365.0,520,468,60,123.0,145,1,310,203,53,0,0,360,-6644,257,367,-5.59,,,,,,,,,,,,
331083,1564151678502,-1,2.42,0.94,0.31,1.42,1.08,0.84,-0.21,0.47,9,1,12,0.86,6863,13,92,44,39,955,365.0,508,461,60,125.0,145,1,310,203,53,0,0,360,3183,-6656,365,-5.59,,,,,,,,,,,,
331103,1564151678522,3,2.41,0.93,0.31,1.42,1.08,0.85,-0.24,0.54,9,-1,12,0.88,6885,13,92,44,40,954,365.0,518,468,60,124.0,145,1,317,203,53,0,0,360,-6644,770,365,-5.59,,,,,,,,,,,,
331123,1564151678542,1,2.42,0.94,0.31,1.42,1.08,0.92,-0.16,0.46,10,1,12,0.93,6885,13,92,44,40,954,364.0,516,467,60,124.0,145,1,317,203,53,0,0,361,-30454,1,364,-5.59,,,,,,,,,,,,
331143,1564151678562,0,2.42,0.94,0.31,1.41,1.08,0.86,-0.19,0.46,9,1,12,0.88,6865,13,92,44,39,952,365.0,523,463,60,125.0,145,1,310,203,53,0,0,362,28553,3,365,-5.59,44.681061,10.025059,36.24,174.4,0,0.0,-1,0.0,0.0,0,2.24,5.5191
331163,1564151678582,1,2.42,0.93,0.31,1.42,1.09,0.9,-0.22,0.49,9,1,12,0.92,6863,13,92,44,40,952,364.0,524,467,60,123.0,146,1,317,203,53,0,0,361,2811,257,364,-5.59,,,,,,,,,,,,
331183,1564151678604,-1,2.42,0.93,0.31,1.42,1.09,0.87,-0.16,0.46,9,1,12,0.88,6888,13,92,44,39,950,363.0,517,465,60,125.0,146,1,310,203,53,0,0,360,28553,-6656,362,-5.59,,,,,,,,,,,,
331203,1564151678624,1,2.42,0.94,0.32,1.43,1.08,0.83,-0.25,0.61,9,0,12,0.87,6860,13,92,44,40,948,363.0,527,466,60,122.0,146,1,317,204,53,0,0,357,28553,-6656,363,-5.59,,,,,,,,,,,,
331223,1564151678644,1,2.42,0.94,0.32,1.42,1.08,0.9,-0.23,0.54,9,2,11,0.93,6868,13,92,44,39,947,362.0,509,463,60,124.0,146,1,310,203,53,0,0,360,-30454,486,362,-5.59,,,,,,,,,,,,
331243,1564151678664,-1,2.42,0.94,0.32,1.42,1.09,0.81,-0.27,0.61,9,1,11,0.86,6893,13,92,44,40,945,361.0,519,467,60,124.0,146,1,317,204,53,0,0,359,28553,-6656,361,-5.59,44.681053,10.025052,35.76,174.5,0,0.0,-1,0.0,0.0,0,2.24,5.5207
331263,1564151678684,1,2.42,0.94,0.31,1.42,1.08,0.88,-0.2,0.59,9,2,11,0.9,6908,13,92,44,40,944,361.0,515,466,60,124.0,146,1,317,204,53,0,0,358,28553,230,363,-5.59,,,,,,,,,,,,
331283,1564151678704,-0,2.41,0.94,0.31,1.42,1.08,0.78,-0.16,0.55,9,2,10,0.8,6890,13,92,44,40,942,362.0,516,462,60,125.0,146,1,317,204,53,0,0,357,-1246,0,362,-5.59,,,,,,,,,,,,
331303,1564151678724,1,2.42,0.93,0.31,1.42,1.09,0.82,-0.18,0.63,9,2,10,0.84,6908,13,92,44,40,941,360.0,514,466,60,123.0,146,1,317,204,53,0,0,358,8841,-6656,360,-5.59,,,,,,,,,,,,
331323,1564151678744,0,2.42,0.93,0.31,1.41,1.09,0.85,-0.11,0.56,9,2,12,0.85,6895,13,92,44,39,940,360.0,515,465,60,125.0,146,1,310,203,53,0,0,355,-1246,-6656,360,-5.59,,,,,,,,,,,,
331343,1564151678764,0,2.41,0.94,0.31,1.42,1.08,0.76,-0.09,0.59,9,2,11,0.77,6873,13,92,44,40,939,361.0,518,466,60,123.0,146,1,317,204,53,0,0,356,-1246,-6656,361,-5.59,44.681046,10.025045,35.79,174.4,0,0.0,-1,0.0,0.0,0,2.25,5.5224
331363,1564151678784,2,2.41,0.94,0.31,1.42,1.08,0.89,-0.1,0.56,9,1,12,0.89,6888,13,92,44,40,942,358.0,511,466,60,122.0,147,1,317,203,53,0,0,357,2811,-1268,359,-5.59,,,,,,,,,,,,
331383,1564151678804,-0,2.42,0.94,0.32,1.42,1.08,0.76,-0.07,0.53,10,1,11,0.77,6911,13,92,44,39,943,359.0,521,463,60,123.0,147,1,310,130,53,0,0,358,2811,0,359,-5.59,,,,,,,,,,,,
331403,1564151678824,2,2.42,0.93,0.31,1.42,1.09,0.85,-0.1,0.56,9,1,11,0.85,6898,13,92,44,40,946,360.0,519,465,60,120.0,147,1,317,204,53,0,0,356,-1246,0,360,-5.59,,,,,,,,,,,,
331423,1564151678844,-0,2.41,0.94,0.31,1.42,1.08,0.76,-0.04,0.5,10,2,11,0.76,6855,13,92,44,39,948,360.0,512,462,60,123.0,147,1,310,204,53,0,0,358,-1246,257,360,-5.59,,,,,,,,,,,,
331443,1564151678864,3,2.42,0.94,0.31,1.42,1.08,0.77,-0.03,0.55,10,1,11,0.77,6880,13,92,44,40,948,358.0,516,469,60,122.0,147,1,317,204,53,0,0,356,-1246,0,360,-5.59,44.681038,10.025039,35.52,174.4,0,0.0,-1,0.0,0.0,0,2.25,5.524
331463,1564151678884,1,2.42,0.93,0.32,1.42,1.09,0.83,0.0,0.51,10,0,12,0.83,6870,13,92,44,40,949,359.0,520,468,60,123.0,148,1,317,204,53,0,0,355,-30438,0,359,-5.59,,,,,,,,,,,,
331483,1564151678904,-0,2.42,0.93,0.32,1.42,1.09,0.77,0.01,0.54,9,2,11,0.77,6808,13,92,44,40,945,358.0,515,462,60,123.0,148,1,317,204,53,0,0,357,6870,-6656,358,-5.59,,,,,,,,,,,,
331503,1564151678924,2,2.41,0.94,0.31,1.43,1.08,0.84,-0.03,0.54,9,1,12,0.84,6783,13,92,44,40,943,358.0,515,468,60,122.0,148,1,317,204,53,0,0,358,-30438,230,358,-5.59,,,,,,,,,,,,
331523,1564151678944,-1,2.42,0.94,0.32,1.42,1.08,0.76,-0.08,0.56,9,0,10,0.76,6754,13,92,44,40,939,358.0,510,462,60,123.0,148,1,317,204,53,0,0,357,2811,0,357,-5.59,,,,,,,,,,,,
331543,1564151678964,1,2.42,0.93,0.31,1.42,1.08,0.86,-0.08,0.53,9,-0,11,0.87,6725,13,92,44,40,935,359.0,513,465,60,121.0,148,1,317,204,53,0,0,359,-1246,0,359,-5.59,44.68103,10.025031,35.36,174.4,0,0.0,-1,0.0,0.0,0,2.25,5.5257
331563,1564151678984,1,2.41,0.94,0.32,1.42,1.08,0.81,-0.11,0.58,9,1,11,0.82,6674,13,92,44,40,934,357.0,510,462,60,123.0,141,1,317,206,51,0,0,359,-1246,-6405,357,-5.59,,,,,,,,,,,,
331583,1564151678996,-1,2.42,0.93,0.31,1.42,1.08,0.85,-0.12,0.54,9,-0,11,0.86,6656,13,92,44,41,933,358.0,501,466,60,122.0,141,1,324,206,51,0,0,357,8841,-6656,358,-5.59,,,,,,,,,,,,
331603,1564151679016,2,2.42,0.94,0.31,1.42,1.08,0.78,-0.09,0.51,9,-1,11,0.78,6670,13,92,44,41,932,358.0,505,465,60,123.0,141,1,324,206,51,0,0,356,8841,486,358,-5.59,,,,,,,,,,,,
331623,1564151679036,-0,2.41,0.93,0.31,1.42,1.08,0.87,0.0,0.47,9,0,12,0.87,6663,13,92,44,41,933,356.0,495,462,60,123.0,141,1,324,206,51,0,0,357,-30438,-6405,358,-5.59,,,,,,,,,,,,
331643,1564151679056,3,2.42,0.94,0.31,1.42,1.08,0.74,-0.11,0.58,9,0,12,0.75,6632,13,92,44,41,934,357.0,499,467,60,122.0,141,1,324,206,51,0,0,358,-30438,0,357,-5.59,44.681023,10.025024,35.41,174.4,0,0.0,-1,0.0,0.0,0,2.25,5.5274
331663,1564151679076,-1,2.42,0.94,0.31,1.42,1.08,0.75,-0.03,0.5,9,3,11,0.75,6634,13,92,44,41,934,357.0,497,463,60,123.0,142,1,324,206,51,0,0,359,-30438,0,357,-5.59,,,,,,,,,,,,
331683,1564151679104,1,2.42,0.93,0.31,1.42,1.08,0.85,-0.12,0.51,9,-1,12,0.85,6663,13,92,44,42,938,356.0,499,467,60,121.0,142,1,331,206,51,0,0,355,-30438,3082,356,-5.59,,,,,,,,,,,,
331703,1564151679124,-0,2.41,0.94,0.31,1.42,1.08,0.72,-0.09,0.53,10,0,11,0.73,6658,13,92,44,41,940,357.0,502,462,60,122.0,142,1,324,207,51,0,0,353,8841,-1268,357,-5.59,,,,,,,,,,,,
331723,1564151679144,1,2.41,0.93,0.31,1.42,1.09,0.85,-0.08,0.49,10,0,12,0.85,6677,13,92,44,42,942,356.0,506,464,60,122.0,142,1,331,206,51,0,0,354,-30438,-1268,356,-5.59,,,,,,,,,,,,
331743,1564151679164,2,2.4,0.93,0.32,1.42,1.08,0.8,-0.1,0.53,9,-0,12,0.81,6672,13,92,44,42,944,357.0,505,461,60,122.0,142,1,331,207,51,0,0,354,6870,230,357,-5.59,44.681015,10.025016,35.17,174.4,0,0.0,-1,0.0,0.0,0,2.25,5.529
331763,1564151679184,-1,2.42,0.93,0.31,1.42,1.09,0.8,-0.1,0.48,10,1,11,0.8,6670,13,92,44,42,948,355.0,502,466,60,121.0,145,1,331,207,52,0,0,352,-10554,-6405,355,-5.59,,,,,,,,,,,,
331783,1564151679203,3,2.41,0.93,0.31,1.42,1.09,0.76,-0.09,0.51,9,1,12,0.76,6706,13,92,44,42,951,358.0,508,467,60,121.0,145,1,331,207,52,0,0,351,-10554,-29302,358,-5.59,,,,,,,,,,,,
331803,1564151679223,-1,2.4,0.93,0.31,1.42,1.08,0.82,-0.04,0.48,9,1,12,0.82,6718,13,92,44,42,954,355.0,507,463,60,123.0,145,1,331,206,52,0,0,353,-14714,2790,355,-5.59,,,,,,,,,,,,
331823,1564151679243,2,2.41,0.94,0.31,1.42,1.08,0.74,-0.12,0.62,9,1,11,0.75,6708,13,92,44,42,956,354.0,515,467,60,121.0,145,1,331,207,52,0,0,353,-14714,-14707,354,-5.59,,,,,,,,,,,,
331843,1564151679263,-0,2.42,0.94,0.31,1.42,1.08,0.81,-0.09,0.56,9,4,11,0.81,6708,13,92,44,41,960,352.0,507,459,60,124.0,145,1,324,207,52,0,0,350,-31206,-6640,355,-5.59,44.681007,10.025009,35.31,174.4,0,0.0,-1,0.0,0.0,0,2.25,5.5307
331863,1564151679283,3,2.41,0.94,0.31,1.42,1.09,0.8,-0.12,0.63,9,-1,11,0.8,6737,13,92,44,42,965,353.0,510,464,60,121.0,147,1,331,207,52,0,0,352,-31206,-14707,353,-5.59,,,,,,,,,,,,
331883,1564151679303,-1,2.41,0.93,0.31,1.42,1.08,0.8,-0.07,0.57,9,2,10,0.8,6739,13,93,44,41,971,353.0,502,462,60,123.0,147,1,324,206,52,0,0,352,-14714,4104,353,-5.59,,,,,,,,,,,,
331903,1564151679323,1,2.42,0.94,0.32,1.42,1.09,0.82,-0.14,0.57,9,1,11,0.83,6715,13,92,44,41,974,354.0,506,462,60,121.0,147,1,324,206,52,0,0,353,-14714,2790,354,-5.59,,,,,,,,,,,,
331923,1564151679343,-0,2.41,0.93,0.31,1.42,1.09,0.81,-0.09,0.5,9,2,10,0.81,6706,13,93,44,41,978,353.0,505,461,60,123.0,147,1,324,206,52,0,0,352,-31206,-14707,354,-5.59,,,,,,,,,,,,
331943,1564151679363,2,2.4,0.94,0.31,1.42,1.08,0.84,-0.12,0.52,9,1,11,0.84,6725,13,92,44,41,985,353.0,505,468,60,120.0,147,1,324,206,52,0,0,350,-14714,2790,353,-5.59,44.681004,10.025001,35.04,174.4,0,0.0,-1,0.0,0.0,0,2.25,5.5324
331963,1564151679383,-2,2.42,0.93,0.31,1.42,1.09,0.84,-0.07,0.52,9,3,11,0.85,6691,13,93,44,41,988,354.0,501,462,60,124.0,147,1,324,206,52,0,0,352,-31206,-14707,354,-5.59,,,,,,,,,,,,
331983,1564151679403,1,2.41,0.94,0.31,1.42,1.09,0.83,-0.17,0.54,8,1,12,0.85,6686,13,92,44,42,989,352.0,503,464,60,123.0,147,1,331,207,52,0,0,354,6668,-29978,352,-5.59,,,,,,,,,,,,
332003,1564151679423,-0,2.41,0.94,0.31,1.42,1.08,0.73,-0.07,0.53,9,3,11,0.74,6660,13,92,44,41,988,352.0,501,463,60,123.0,147,1,324,206,52,0,0,354,6668,-6458,352,-5.59,,,,,,,,,,,,
332023,1564151679443,-0,2.42,0.94,0.31,1.42,1.08,0.86,-0.1,0.53,9,2,12,0.87,6644,13,93,44,42,986,351.0,498,463,60,123.0,147,1,331,134,52,0,0,349,6668,4104,351,-5.59,,,,,,,,,,,,
332043,1564151679463,3,2.42,0.94,0.31,1.42,1.08,0.74,-0.1,0.61,9,0,11,0.74,6660,13,92,44,42,982,353.0,508,468,60,122.0,147,1,331,207,52,0,0,350,-31206,-29302,353,-5.59,44.680996,10.024993,34.97,174.4,0,0.0,-1,0.0,0.0,0,2.25,5.534
332063,1564151679483,-1,2.41,0.93,0.31,1.42,1.08,0.77,-0.04,0.46,9,2,11,0.77,6653,13,93,44,41,978,351.0,498,461,60,123.0,147,1,324,206,52,0,0,349,6668,-14707,351,-5.59,,,,,,,,,,,,
332083,1564151679503,2,2.41,0.93,0.32,1.42,1.08,0.79,-0.13,0.5,9,1,11,0.8,6620,12,92,44,42,972,351.0,507,467,60,120.0,147,1,331,207,52,0,0,350,6668,-6640,351,-5.59,,,,,,,,,,,,
332103,1564151679523,-1,2.42,0.93,0.31,1.42,1.09,0.78,-0.08,0.5,9,1,10,0.78,6620,12,92,44,42,966,352.0,501,463,60,123.0,147,1,331,207,52,0,0,347,3327,-6458,352,-5.59,,,,,,,,,,,,
332123,1564151679543,-0,2.41,0.94,0.32,1.42,1.08,0.8,-0.16,0.53,9,0,10,0.82,6597,12,92,44,42,962,350.0,497,464,60,121.0,147,1,330,207,52,0,0,350,6668,-14707,350,-5.59,,,,,,,,,,,,
332143,1564151679563,0,2.41,0.94,0.31,1.42,1.08,0.81,-0.15,0.57,8,2,10,0.82,6616,12,92,44,41,959,350.0,502,463,60,123.0,147,1,324,207,52,0,0,351,3327,-14707,350,-5.59,44.680988,10.024984,34.77,174.4,0,0.0,-1,0.0,0.0,0,2.25,5.5357
332163,1564151679583,-0,2.41,0.94,0.31,1.42,1.08,0.89,-0.11,0.53,8,0,10,0.9,6602,12,93,44,42,960,350.0,499,463,60,122.0,145,1,331,207,51,0,0,351,-122,-29302,350,-5.59,,,,,,,,,,,,
332183,1564151679603,2,2.41,0.94,0.31,1.43,1.08,0.77,-0.2,0.68,8,1,10,0.8,6583,12,92,44,42,959,350.0,506,466,60,121.0,145,1,330,207,51,0,0,349,-122,-29978,350,-5.59,,,,,,,,,,,,
332203,1564151679623,-1,2.41,0.94,0.31,1.42,1.08,0.84,-0.1,0.6,8,3,10,0.85,6565,12,93,44,42,960,349.0,494,464,60,123.0,145,1,330,207,51,0,0,348,-122,2060,350,-5.59,,,,,,,,,,,,
332223,1564151679643,1,2.41,0.94,0.31,1.43,1.08,0.92,-0.16,0.62,8,-1,11,0.94,6551,12,93,44,42,961,350.0,494,467,60,121.0,145,1,330,207,51,0,0,345,-122,2790,350,-5.59,,,,,,,,,,,,
332243,1564151679663,3,2.41,0.94,0.31,1.42,1.08,0.81,-0.17,0.7,8,-1,10,0.83,6581,12,92,44,42,962,349.0,496,464,60,120.0,145,1,330,207,51,0,0,346,-31222,-6640,349,-5.59,44.680984,10.024976,34.53,174.4,0,0.0,-1,0.0,0.0,0,2.25,5.5374
332263,1564151679683,-1,2.41,0.94,0.31,1.43,1.08,0.92,-0.11,0.54,9,1,10,0.93,6549,12,93,44,42,966,350.0,491,467,60,122.0,145,1,330,207,51,0,0,347,-31222,-29978,351,-5.59,,,,,,,,,,,,
332283,1564151679703,0,2.41,0.94,0.31,1.43,1.09,0.92,-0.19,0.54,8,-0,11,0.94,6526,12,92,44,42,967,351.0,494,467,60,120.0,145,1,330,207,51,0,0,347,-31222,4104,351,-5.59,,,,,,,,,,,,
332303,1564151679723,-0,2.41,0.94,0.31,1.42,1.08,0.89,-0.15,0.58,8,1,10,0.9,6517,12,92,44,42,968,349.0,493,466,60,122.0,145,1,330,207,51,0,0,346,-31222,-6640,349,-5.59,,,,,,,,,,,,
332323,1564151679743,-2,2.41,0.94,0.31,1.42,1.08,0.93,-0.18,0.49,8,-0,10,0.95,6508,12,93,44,42,969,350.0,488,462,60,123.0,145,1,330,207,51,0,0,346,2560,-6640,350,-5.59,,,,,,,,,,,,
332343,1564151679763,2,2.41,0.94,0.31,1.43,1.08,0.82,-0.18,0.52,8,-1,10,0.84,6514,12,92,44,42,969,348.0,492,468,60,120.0,145,1,330,207,51,0,0,349,2560,4104,348,-5.59,44.680977,10.024967,34.73,174.5,0,0.0,-1,0.0,0.0,0,2.26,5.5391
332363,1564151679783,-0,2.4,0.93,0.31,1.43,1.08,0.83,-0.17,0.55,8,2,10,0.85,6526,12,92,44,42,971,347.0,490,461,60,123.0,146,1,330,207,51,0,0,347,-31222,-29302,347,-5.59,,,,,,,,,,,,
332383,1564151679803,0,2.4,0.94,0.31,1.43,1.08,0.95,-0.13,0.5,8,0,11,0.96,6535,12,93,44,42,971,348.0,492,464,60,124.0,146,1,330,207,51,0,0,344,2560,28553,348,-5.59,,,,,,,,,,,,
332403,1564151679823,2,2.41,0.94,0.32,1.42,1.09,0.77,-0.21,0.63,8,1,11,0.8,6494,12,92,44,42,971,348.0,499,463,60,121.0,146,1,330,207,51,0,0,345,2560,-6640,348,-5.59,,,,,,,,,,,,
332423,1564151679843,-0,2.41,0.94,0.32,1.43,1.08,0.75,-0.1,0.58,8,4,10,0.76,6514,12,92,44,42,971,347.0,488,463,60,123.0,146,1,330,207,51,0,0,344,13,-6640,347,-5.59,,,,,,,,,,,,
332443,1564151679863,-0,2.41,0.93,0.31,1.42,1.08,0.88,-0.15,0.54,8,3,11,0.89,6512,12,93,44,42,970,347.0,488,465,60,124.0,146,1,330,207,51,0,0,344,13,2060,347,-5.59,44.680969,10.024959,34.13,174.5,0,0.0,-1,0.0,0.0,0,2.26,5.5407
332463,1564151679883,2,2.4,0.93,0.31,1.43,1.08,0.74,-0.18,0.65,8,0,11,0.76,6542,12,93,44,42,969,347.0,499,465,60,122.0,146,1,330,207,51,0,0,343,3346,-29978,347,-5.59,,,,,,,,,,,,
332483,1564151679905,-1,2.41,0.94,0.31,1.42,1.09,0.75,-0.14,0.64,9,2,10,0.76,6542,11,93,44,42,969,346.0,495,459,60,123.0,146,1,330,207,51,0,0,344,13,2811,346,-5.59,,,,,,,,,,,,
332503,1564151679925,-1,2.41,0.94,0.31,1.42,1.09,0.85,-0.15,0.54,8,1,11,0.86,6533,11,93,44,42,969,346.0,491,463,60,122.0,146,1,330,207,51,0,0,344,3346,-6644,346,-5.59,,,,,,,,,,,,
332523,1564151679945,3,2.4,0.94,0.31,1.43,1.08,0.79,-0.16,0.56,8,0,11,0.8,6533,11,93,44,42,968,345.0,492,463,60,121.0,146,1,330,207,51,0,0,347,4838,3183,345,-5.59,,,,,,,,,,,,
332543,1564151679965,-1,2.4,0.94,0.31,1.42,1.08,0.83,-0.14,0.53,8,0,10,0.85,6537,11,93,44,42,970,344.0,485,465,60,122.0,146,1,330,207,51,0,0,342,3346,28553,344,-5.59,44.680965,10.02495,34.61,174.5,0,0.0,-1,0.0,0.0,0,2.26,5.5424
332563,1564151679985,0,2.41,0.94,0.31,1.42,1.09,0.81,-0.19,0.5,8,-1,10,0.83,6526,11,93,44,42,970,345.0,490,468,60,120.0,147,1,330,206,51,0,0,341,4838,3183,345,-5.59,,,,,,,,,,,,
332583,1564151679997,3,2.41,0.94,0.31,1.43,1.08,0.72,-0.13,0.53,8,-0,11,0.73,6549,11,93,44,41,971,345.0,496,463,60,123.0,147,1,323,207,51,0,0,345,4838,3302,345,-5.59,,,,,,,,,,,,
332603,1564151680017,-1,2.41,0.93,0.31,1.42,1.09,0.81,-0.07,0.5,8,1,11,0.81,6549,11,93,44,41,974,344.0,491,463,60,123.0,147,1,323,206,51,0,0,344,3346,-6644,344,-5.59,,,,,,,,,,,,
332623,1564151680037,2,2.4,0.94,0.32,1.43,1.08,0.74,-0.17,0.56,8,-1,11,0.76,6517,11,93,44,41,974,346.0,498,467,60,122.0,147,1,323,206,51,0,0,344,-6528,-30454,346,-5.59,,,,,,,,,,,,
332643,1564151680057,0,2.4,0.94,0.32,1.43,1.08,0.68,-0.07,0.58,8,2,10,0.68,6512,11,93,44,41,975,344.0,498,465,60,120.0,147,1,323,206,51,0,0,341,-32559,28553,344,-5.59,44.680958,10.02494,34.13,174.5,0,0.0,-1,0.0,0.0,0,2.26,5.5441
332663,1564151680077,-0,2.4,0.94,0.31,1.43,1.09,0.81,-0.09,0.55,8,2,10,0.82,6494,10,93,44,41,975,343.0,487,465,60,123.0,145,1,323,206,50,0,0,343,4838,-1246,343,-5.59,,,,,,,,,,,,
332683,1564151680103,1,2.4,0.94,0.31,1.43,1.08,0.75,-0.15,0.57,8,-2,11,0.77,6508,10,93,44,41,975,344.0,491,468,60,121.0,145,1,323,206,50,0,0,343,-32559,2811,344,-5.59,,,,,,,,,,,,
332703,1564151680123,3,2.41,0.93,0.32,1.43,1.09,0.69,-0.12,0.6,8,-1,10,0.7,6485,10,93,44,41,975,343.0,496,464,60,121.0,145,1,323,206,50,0,0,340,-6528,3183,343,-5.59,,,,,,,,,,,,
332723,1564151680143,-0,2.4,0.94,0.31,1.43,1.09,0.81,-0.06,0.48,8,-0,9,0.81,6449,10,93,44,41,975,343.0,490,463,60,122.0,145,1,323,206,50,0,0,341,-32559,-6644,343,-5.59,,,,,,,,,,,,
332743,1564151680163,0,2.41,0.94,0.31,1.43,1.08,0.82,-0.11,0.42,8,-1,10,0.82,6445,9,93,44,41,973,342.0,501,465,60,120.0,145,1,323,206,50,0,0,340,-6528,-6644,342,-5.59,44.680954,10.024931,33.97,174.5,0,0.0,-1,0.0,0.0,0,2.26,5.5457
332763,1564151680183,2,2.4,0.94,0.31,1.42,1.08,0.71,-0.12,0.48,8,0,9,0.72,6384,9,93,44,40,971,342.0,502,463,60,122.0,145,1,316,205,50,0,0,341,4838,2811,342,-5.59,,,,,,,,,,,,
332783,1564151680204,-2,2.4,0.94,0.31,1.42,1.09,0.74,-0.08,0.47,8,0,9,0.75,6368,8,93,44,40,969,342.0,483,465,60,122.0,145,1,316,204,50,0,0,341,-6528,-1246,342,-5.59,,,,,,,,,,,,
332803,1564151680224,-1,2.4,0.94,0.31,1.43,1.08,0.86,-0.1,0.43,8,-2,8,0.87,6340,8,93,44,40,968,342.0,476,465,60,121.0,145,1,316,204,50,0,0,341,-32559,28553,343,-5.59,,,,,,,,,,,,
332823,1564151680244,0,2.4,0.93,0.31,1.43,1.08,0.82,-0.14,0.48,8,-4,8,0.83,6311,8,93,44,40,966,342.0,476,469,60,121.0,145,1,316,204,50,0,0,341,-12032,2811,342,-5.59,,,,,,,,,,,,
332843,1564151680264,2,2.4,0.94,0.31,1.43,1.08,0.69,-0.11,0.57,7,-3,9,0.7,6315,8,93,44,40,961,341.0,485,465,60,119.0,145,1,316,204,50,0,0,340,175,2811,341,-5.59,44.680946,10.024921,33.95,174.4,0,0.0,-1,0.0,0.0,0,2.26,5.5474
332863,1564151680284,2,2.41,0.94,0.31,1.43,1.08,0.66,-0.07,0.58,8,-1,8,0.66,6294,7,93,44,39,959,341.0,480,461,60,123.0,140,1,310,204,48,0,0,340,-20736,-10554,340,-5.59,,,,,,,,,,,,
332883,1564151680304,-1,2.4,0.94,0.31,1.42,1.09,0.8,-0.08,0.57,8,1,7,0.8,6281,7,93,44,39,959,340.0,477,461,60,123.0,140,1,310,203,48,0,0,339,175,-14714,340,-5.59,,,,,,,,,,,,
332903,1564151680324,-0,2.4,0.94,0.31,1.42,1.08,0.91,-0.07,0.55,8,-1,8,0.91,6231,7,93,44,39,955,340.0,468,463,60,122.0,140,1,310,203,48,0,0,337,175,-30438,340,-5.59,,,,,,,,,,,,
332923,1564151680344,-2,2.41,0.94,0.32,1.43,1.08,0.91,-0.12,0.56,7,-3,9,0.91,6216,7,93,44,39,948,341.0,463,468,60,122.0,140,1,310,203,48,0,0,342,-20736,8841,341,-5.59,,,,,,,,,,,,
332943,1564151680364,-1,2.41,0.94,0.31,1.43,1.08,0.78,-0.18,0.6,7,-4,9,0.8,6157,7,93,44,39,942,339.0,465,466,60,123.0,140,1,310,203,48,0,0,337,175,28553,339,-5.59,44.680943,10.024912,33.9,174.4,0,0.0,-1,0.0,0.0,0,2.26,5.549
332963,1564151680384,1,2.4,0.93,0.31,1.43,1.08,0.64,-0.23,0.64,7,-4,8,0.68,6127,7,93,44,39,938,339.0,471,467,60,122.0,138,1,310,203,47,0,0,339,-20736,-1246,339,-5.59,,,,,,,,,,,,
332983,1564151680404,1,2.41,0.94,0.31,1.42,1.08,0.46,-0.26,0.69,7,-3,8,0.52,6083,7,93,44,39,930,340.0,470,467,60,121.0,138,1,310,203,47,0,0,336,170,2811,340,-5.59,,,,,,,,,,,,
333003,1564151680424,-0,2.41,0.94,0.31,1.43,1.08,0.34,-0.25,0.74,7,-1,8,0.43,6036,6,93,44,39,917,338.0,468,466,60,121.0,138,1,310,203,47,0,0,335,-22016,6870,338,-5.59,,,,,,,,,,,,
333023,1564151680444,1,2.4,0.94,0.31,1.43,1.08,0.2,-0.31,0.77,7,2,8,0.37,6009,6,93,44,40,905,338.0,462,463,60,120.0,138,1,314,203,47,0,0,334,170,-14714,338,-5.59,,,,,,,,,,,,
333043,1564151680464,1,2.4,0.94,0.31,1.43,1.08,0.06,-0.33,0.75,7,2,9,0.33,5977,6,93,44,40,896,336.0,463,464,60,122.0,138,1,314,203,47,0,0,332,165,-122,336,-5.59,44.680939,10.024903,33.49,174.4,0,0.0,-1,0.0,0.0,0,2.26,5.5507
333063,1564151680484,1,2.4,0.93,0.31,1.42,1.09,-0.03,-0.33,0.7,7,3,9,0.33,6044,6,93,44,40,887,334.0,466,465,60,123.0,136,1,316,204,46,0,0,329,-24576,-6528,333,-5.59,,,,,,,,,,,,
333083,1564151680504,1,2.4,0.94,0.31,1.43,1.08,-0.06,-0.31,0.69,8,2,10,0.32,6145,6,93,44,39,876,331.0,467,464,60,122.0,136,1,310,203,46,0,0,324,155,4838,331,-5.59,,,,,,,,,,,,
333103,1564151680524,3,2.4,0.93,0.32,1.43,1.09,-0.07,-0.2,0.64,8,4,10,0.21,6275,6,93,44,39,866,329.0,478,465,60,122.0,136,1,310,203,46,0,0,326,-25856,-20736,329,-5.59,,,,,,,,,,,,
333123,1564151680544,-1,2.39,0.94,0.31,1.43,1.09,0.07,-0.2,0.53,8,7,10,0.21,6338,6,93,44,38,863,328.0,471,465,60,124.0,136,1,307,197,46,0,0,326,150,175,328,-5.59,,,,,,,,,,,,
333143,1564151680564,-1,2.4,0.94,0.32,1.42,1.09,0.27,-0.21,0.51,7,4,11,0.34,6345,6,93,44,38,860,327.0,472,465,60,123.0,136,1,307,197,46,0,0,327,-27136,13,327,-5.59,44.680931,10.024894,33.33,174.4,0,0.0,-1,0.0,0.0,0,2.26,5.5524
333163,1564151680584,1,2.4,0.94,0.32,1.42,1.08,0.27,-0.22,0.55,7,1,12,0.35,6353,6,93,44,38,854,328.0,480,467,60,120.0,142,1,307,197,47,0,0,325,145,4838,328,-5.59,,,,,,,,,,,,
333183,1564151680604,1,2.4,0.94,0.31,1.42,1.09,0.21,-0.2,0.59,7,1,11,0.29,6302,6,93,44,37,851,327.0,479,467,60,121.0,142,1,304,192,47,0,0,327,-28416,-32559,327,-5.59,,,,,,,,,,,,
333203,1564151680624,1,2.4,0.94,0.32,1.43,1.08,0.26,-0.19,0.52,8,2,10,0.32,6273,6,93,44,37,851,327.0,477,467,60,121.0,142,1,304,192,47,0,0,326,-28416,175,327,-5.59,,,,,,,,,,,,
333223,1564151680644,-0,2.4,0.94,0.31,1.42,1.08,0.41,-0.17,0.4,8,4,10,0.45,6206,6,93,44,37,851,326.0,464,461,60,122.0,142,1,304,192,47,0,0,326,140,-6528,326,-5.59,,,,,,,,,,,,
333243,1564151680664,-2,2.4,0.94,0.32,1.42,1.09,0.57,-0.12,0.28,8,3,9,0.59,6171,6,93,44,37,849,325.0,461,464,60,122.0,142,1,304,192,47,0,0,324,-29696,175,325,-5.59,44.680927,10.024884,32.82,174.4,0,0.0,-1,0.0,0.0,0,2.26,5.554
333263,1564151680684,-1,2.4,0.93,0.31,1.42,1.09,0.71,-0.08,0.26,8,1,10,0.72,6101,6,93,44,37,848,324.0,460,464,60,122.0,135,1,304,192,44,0,0,323,135,3346,324,-5.59,,,,,,,,,,,,
333283,1564151680704,-0,2.39,0.94,0.31,1.43,1.09,0.75,-0.07,0.25,8,-0,10,0.76,6060,6,93,44,38,848,325.0,455,465,60,122.0,135,1,307,197,44,0,0,324,-29696,170,325,-5.59,,,,,,,,,,,,
333303,1564151680724,-1,2.4,0.93,0.31,1.43,1.08,0.82,-0.06,0.23,7,-1,10,0.83,5996,6,93,44,38,847,324.0,457,465,60,121.0,135,1,306,196,44,0,0,324,-29696,-20736,324,-5.59,,,,,,,,,,,,
333323,1564151680744,-1,2.4,0.94,0.31,1.43,1.08,0.9,-0.03,0.24,7,-3,10,0.9,5942,6,93,44,38,842,324.0,450,465,60,120.0,135,1,303,196,44,0,0,321,140,170,324,-5.59,,,,,,,,,,,,
333343,1564151680764,-1,2.4,0.94,0.31,1.42,1.09,1.01,-0.03,0.24,6,-5,9,1.01,5855,6,93,44,39,837,323.0,444,466,60,122.0,135,1,301,196,44,0,0,322,-30976,-12032,323,-5.59,44.680923,10.024875,32.21,174.4,0,0.0,-1,0.0,0.0,0,2.26,5.5557
333363,1564151680784,1,2.4,0.94,0.32,1.42,1.09,1.11,-0.08,0.21,6,-6,9,1.12,5779,6,93,44,39,833,322.0,440,462,60,122.0,136,1,296,201,44,0,0,319,-30976,-22016,322,-5.59,,,,,,,,,,,,
333383,1564151680804,2,2.4,0.94,0.31,1.43,1.08,1.12,-0.05,0.21,6,-3,9,1.12,5792,6,93,44,40,830,319.0,448,464,60,120.0,136,1,302,129,44,0,0,314,-32256,-25856,320,-5.59,,,,,,,,,,,,
333403,1564151680824,2,2.39,0.94,0.32,1.43,1.09,1.0,-0.02,0.22,7,-0,8,1.0,5826,6,93,44,41,829,318.0,446,468,60,121.0,136,1,310,202,44,0,0,314,120,150,318,-5.59,,,,,,,,,,,,
333423,1564151680844,1,2.4,0.94,0.31,1.42,1.09,0.88,-0.06,0.25,7,0,7,0.88,5909,6,93,44,41,827,315.0,446,466,60,121.0,136,1,315,204,44,0,0,309,30720,-30976,314,-5.59,,,,,,,,,,,,
333443,1564151680864,1,2.39,0.94,0.32,1.43,1.08,0.71,-0.06,0.26,7,-0,7,0.71,5920,6,93,44,41,829,314.0,448,466,60,122.0,136,1,319,203,44,0,0,310,29440,-29696,314,-5.59,44.68092,10.024865,32.09,174.4,0,0.0,-1,0.0,0.0,0,2.27,5.5574
333463,1564151680884,-0,2.4,0.94,0.31,1.42,1.08,0.55,-0.09,0.28,7,-1,7,0.56,5988,6,93,44,40,832,311.0,461,466,60,121.0,146,1,315,203,46,0,0,310,29440,135,311,-5.59,,,,,,,,,,,,
333483,1564151680904,1,2.4,0.93,0.32,1.42,1.09,0.45,-0.1,0.27,7,-1,7,0.46,5963,6,93,44,40,837,310.0,451,465,60,122.0,146,1,314,203,46,0,0,310,110,140,310,-5.59,,,,,,,,,,,,
333503,1564151680924,1,2.39,0.94,0.31,1.43,1.09,0.34,-0.13,0.25,6,-1,7,0.36,5959,6,93,44,40,844,310.0,445,467,60,121.0,146,1,313,203,46,0,0,310,28160,140,310,-5.59,,,,,,,,,,,,
333523,1564151680944,-2,2.39,0.94,0.32,1.42,1.09,0.27,-0.15,0.24,6,-2,7,0.31,5886,6,93,44,40,848,309.0,437,467,60,121.0,146,1,308,203,46,0,0,308,105,145,310,-5.59,,,,,,,,,,,,
333543,1564151680964,-1,2.39,0.94,0.31,1.43,1.08,0.25,-0.16,0.2,6,-5,7,0.3,5833,6,93,44,40,851,309.0,436,464,60,122.0,146,1,304,130,46,0,0,307,26880,-29696,309,-5.59,44.680916,10.024856,31.69,174.3,0,0.0,-1,0.0,0.0,0,2.27,5.5591
333563,1564151680984,-2,2.38,0.94,0.32,1.42,1.08,0.35,-0.15,0.2,5,-7,7,0.38,5783,6,93,44,40,858,308.0,437,467,60,124.0,142,1,301,202,44,0,0,309,100,135,308,-5.59,,,,,,,,,,,,
333583,1564151680996,3,2.38,0.94,0.31,1.42,1.08,0.52,-0.18,0.26,5,-9,6,0.55,5690,6,93,44,41,867,308.0,430,463,60,123.0,142,1,301,204,44,0,0,309,26880,-30976,308,-5.59,,,,,,,,,,,,
333603,1564151681016,1,2.39,0.94,0.31,1.43,1.08,0.61,-0.11,0.29,5,-6,6,0.62,5627,6,93,44,41,872,307.0,428,463,60,122.0,142,1,296,205,44,0,0,306,100,140,307,-5.59,,,,,,,,,,,,
333623,1564151681036,0,2.39,0.94,0.31,1.42,1.08,0.5,-0.2,0.34,5,-4,6,0.54,5608,6,93,44,43,874,307.0,431,466,60,121.0,142,1,305,205,44,0,0,304,24320,135,306,-5.59,,,,,,,,,,,,
333643,1564151681056,-1,2.39,0.94,0.32,1.42,1.09,0.48,-0.11,0.26,5,-5,7,0.49,5623,6,93,44,43,872,304.0,430,464,60,122.0,142,1,306,207,44,0,0,301,90,32000,304,-5.59,44.680912,10.024846,30.71,174.3,0,0.0,-1,0.0,0.0,0,2.27,5.5607
333663,1564151681076,1,2.39,0.94,0.31,1.43,1.08,0.64,-0.13,0.28,5,-6,7,0.65,5647,6,93,44,43,869,302.0,426,465,60,122.0,145,1,308,207,44,0,0,298,23040,29440,302,-5.59,,,,,,,,,,,,
333683,1564151681103,0,2.39,0.94,0.32,1.43,1.08,0.77,-0.09,0.31,5,-4,6,0.78,5712,6,93,44,44,866,301.0,436,462,60,121.0,145,1,318,208,44,0,0,298,21760,100,301,-5.59,,,,,,,,,,,,
333703,1564151681123,-0,2.4,0.94,0.31,1.42,1.09,0.71,-0.1,0.41,5,-1,7,0.72,5688,6,93,44,44,857,300.0,438,463,60,121.0,145,1,316,208,44,0,0,298,21760,105,300,-5.59,,,,,,,,,,,,
333723,1564151681143,0,2.39,0.94,0.31,1.42,1.08,0.55,-0.13,0.38,6,0,8,0.57,5659,6,93,44,44,850,300.0,433,466,60,120.0,145,1,314,208,44,0,0,297,20480,28160,300,-5.59,,,,,,,,,,,,
333743,1564151681163,-2,2.39,0.94,0.31,1.43,1.08,0.6,-0.05,0.36,6,-2,8,0.6,5613,6,93,44,44,844,298.0,421,465,60,121.0,145,1,310,208,44,0,0,295,0,25600,298,-5.59,44.680908,10.024837,30.44,174.3,0,0.0,-1,0.0,0.0,0,2.27,5.5624
333763,1564151681183,1,2.39,0.94,0.31,1.43,1.09,0.74,-0.08,0.38,5,-3,7,0.75,5583,6,93,44,44,843,298.0,423,465,60,121.0,147,1,307,208,44,0,0,297,0,100,298,-5.59,,,,,,,,,,,,
333783,1564151681203,-1,2.39,0.94,0.32,1.43,1.09,0.72,-0.09,0.45,5,0,7,0.72,5532,6,93,44,45,843,297.0,432,462,60,121.0,147,1,308,209,44,0,0,294,0,25600,297,-5.59,,,,,,,,,,,,
333803,1564151681223,0,2.39,0.94,0.31,1.44,1.08,0.68,-0.08,0.38,5,-0,7,0.69,5535,6,93,44,45,845,296.0,420,464,60,120.0,147,1,309,209,44,0,0,295,41,100,296,-5.59,,,,,,,,,,,,
333823,1564151681243,1,2.39,0.94,0.32,1.43,1.08,0.8,-0.08,0.39,6,-2,6,0.8,5535,6,93,44,46,853,293.0,416,463,60,122.0,147,1,313,211,44,0,0,294,-16896,100,293,-5.59,,,,,,,,,,,,
333843,1564151681263,1,2.39,0.94,0.31,1.43,1.09,0.78,-0.09,0.43,6,-1,7,0.79,5511,6,93,44,46,861,293.0,423,465,60,121.0,147,1,310,213,44,0,0,293,-16896,25600,293,-5.59,44.680904,10.024827,29.8,174.3,0,0.0,-1,0.0,0.0,0,2.27,5.5641
333863,1564151681283,-0,2.38,0.94,0.31,1.43,1.09,0.75,-0.07,0.37,5,-2,7,0.75,5480,6,94,44,47,867,292.0,412,465,60,122.0,150,1,313,211,44,0,0,289,250,90,292,-5.59,,,,,,,,,,,,
333883,1564151681303,2,2.38,0.94,0.31,1.43,1.09,0.84,-0.04,0.37,5,-2,6,0.84,5463,6,94,44,47,871,291.0,417,462,60,122.0,150,1,311,140,44,0,0,291,250,23040,291,-5.59,,,,,,,,,,,,
333903,1564151681323,-1,2.39,0.94,0.32,1.43,1.09,0.77,-0.09,0.39,6,0,6,0.77,5444,6,94,44,48,875,290.0,411,468,60,122.0,150,1,312,213,44,0,0,291,250,23040,291,-5.59,,,,,,,,,,,,
333923,1564151681343,1,2.38,0.94,0.31,1.43,1.08,0.79,-0.05,0.35,5,-1,7,0.79,5409,6,94,44,48,878,289.0,407,466,60,123.0,150,1,310,213,44,0,0,288,-1529,0,289,-5.59,,,,,,,,,,,,
333943,1564151681363,1,2.38,0.94,0.32,1.43,1.09,0.84,0.0,0.37,5,-0,7,0.84,5409,6,94,44,48,875,288.0,412,466,60,122.0,150,1,310,216,44,0,0,286,24064,20480,288,-5.59,44.680904,10.024817,29.32,174.3,0,0.0,-1,0.0,0.0,0,2.27,5.5657
333963,1564151681383,1,2.38,0.94,0.32,1.43,1.09,0.74,-0.05,0.39,5,-1,7,0.75,5367,6,94,44,48,871,286.0,401,463,60,123.0,152,1,307,215,44,0,0,288,24064,80,286,-5.59,,,,,,,,,,,,
333983,1564151681403,1,2.38,0.94,0.32,1.43,1.09,0.86,-0.1,0.47,5,-2,6,0.86,5378,6,94,44,48,868,287.0,404,466,60,121.0,152,1,308,215,44,0,0,286,250,20480,287,-5.59,,,,,,,,,,,,
334003,1564151681423,-1,2.37,0.94,0.31,1.44,1.08,0.81,-0.11,0.49,5,0,6,0.82,5351,6,94,44,49,864,285.0,421,466,60,122.0,152,1,309,219,44,0,0,285,-1534,0,286,-5.59,,,,,,,,,,,,
334023,1564151681443,2,2.38,0.94,0.32,1.43,1.08,0.87,-0.1,0.5,5,-1,5,0.88,5387,6,94,44,49,863,285.0,409,463,60,121.0,152,1,312,219,44,0,0,284,630,41,285,-5.59,,,,,,,,,,,,
334043,1564151681463,-0,2.38,0.94,0.32,1.43,1.08,0.9,-0.06,0.57,5,-0,5,0.9,5366,6,93,44,49,861,283.0,413,467,60,122.0,152,1,310,219,44,0,0,283,250,80,283,-5.59,44.680901,10.024808,28.91,174.3,0,0.0,-1,0.0,0.0,0,2.27,5.5674
334063,1564151681483,-1,2.38,0.94,0.31,1.43,1.08,0.84,-0.04,0.42,5,-2,5,0.84,5343,6,94,44,49,855,282.0,405,465,60,122.0,155,1,308,219,44,0,0,282,250,10686,282,-5.59,,,,,,,,,,,,
334083,1564151681504,0,2.37,0.94,0.31,1.43,1.08,0.93,0.01,0.47,5,-2,5,0.93,5311,6,94,44,49,850,281.0,405,462,60,121.0,155,1,305,223,44,0,0,283,-1527,10686,281,-5.59,,,,,,,,,,,,
334103,1564151681524,-0,2.38,0.94,0.31,1.44,1.09,0.82,0.02,0.35,5,-1,5,0.82,5299,6,94,44,50,846,280.0,406,464,60,121.0,155,1,308,222,44,0,0,280,-1527,-16896,280,-5.59,,,,,,,,,,,,
334123,1564151681544,2,2.37,0.94,0.32,1.43,1.08,0.93,0.07,0.37,5,-1,5,0.93,5317,6,94,44,50,844,278.0,405,465,60,121.0,155,1,310,223,44,0,0,281,2414,41,278,-5.59,,,,,,,,,,,,
334143,1564151681564,-1,2.37,0.94,0.32,1.43,1.08,0.83,0.03,0.37,5,-1,6,0.83,5260,6,94,44,50,844,280.0,408,463,60,121.0,155,1,305,222,44,0,0,281,28160,-1529,280,-5.59,44.680897,10.024799,28.18,174.3,0,0.0,-1,0.0,0.0,0,2.27,5.569
334163,1564151681584,2,2.37,0.93,0.31,1.43,1.08,0.92,0.0,0.48,4,-1,6,0.92,5224,6,94,44,50,845,279.0,396,467,60,121.0,158,1,302,222,44,0,0,278,250,-16896,279,-5.59,,,,,,,,,,,,
334183,1564151681603,-1,2.37,0.94,0.31,1.43,1.09,0.83,-0.02,0.41,4,-0,6,0.83,5206,6,94,44,51,848,278.0,394,461,60,122.0,158,1,305,225,44,0,0,276,28160,250,278,-5.59,,,,,,,,,,,,
334203,1564151681623,0,2.37,0.94,0.31,1.43,1.09,0.92,0.04,0.49,4,-2,5,0.92,5182,6,94,44,51,852,278.0,399,463,60,121.0,158,1,303,225,44,0,0,280,-1,250,278,-5.59,,,,,,,,,,,,
334223,1564151681643,0,2.37,0.94,0.3,1.43,1.09,0.87,0.09,0.37,4,-3,6,0.87,5161,6,94,44,51,856,276.0,384,463,60,122.0,158,1,301,225,44,0,0,276,-1,-1534,276,-5.59,,,,,,,,,,,,
334243,1564151681663,-2,2.38,0.94,0.31,1.43,1.09,0.9,0.11,0.43,5,-1,5,0.91,5185,6,94,44,51,859,275.0,393,463,60,120.0,158,1,303,225,44,0,0,275,-1,30208,274,-5.59,44.680893,10.024791,27.82,174.3,0,0.0,-1,0.0,0.0,0,2.27,5.5707
334263,1564151681683,3,2.37,0.94,0.31,1.43,1.09,0.88,0.09,0.31,4,-1,6,0.88,5183,6,94,44,52,859,274.0,388,463,60,122.0,160,1,307,225,44,0,0,274,-1,250,274,-5.59,,,,,,,,,,,,
334283,1564151681703,-2,2.38,0.94,0.32,1.44,1.08,0.89,0.09,0.34,5,-0,5,0.89,5206,6,94,44,52,858,272.0,392,462,60,120.0,160,1,309,157,44,0,0,271,-1,630,272,-5.59,,,,,,,,,,,,
334303,1564151681723,1,2.38,0.94,0.31,1.43,1.09,0.9,0.05,0.34,4,-3,5,0.9,5156,6,94,44,51,859,272.0,387,464,60,121.0,160,1,300,225,44,0,0,271,-1,250,272,-5.59,,,,,,,,,,,,
334323,1564151681743,-1,2.38,0.94,0.31,1.43,1.08,0.82,0.03,0.38,5,0,5,0.82,5115,6,94,44,52,861,271.0,397,469,60,121.0,160,1,301,227,44,0,0,272,-1,30208,271,-5.59,,,,,,,,,,,,
334343,1564151681763,2,2.37,0.94,0.31,1.43,1.09,0.9,0.05,0.36,4,-1,4,0.9,5124,6,94,44,52,864,270.0,388,461,60,120.0,160,1,302,227,44,0,0,272,-1,-1527,270,-5.59,44.680889,10.024782,27.43,174.3,0,0.0,-1,0.0,0.0,0,2.27,5.5724
334363,1564151681783,-0,2.37,0.93,0.31,1.43,1.09,0.84,0.07,0.28,5,-2,5,0.84,5089,6,94,44,52,865,271.0,383,468,60,122.0,162,1,299,227,44,0,0,269,-1,2414,271,-5.59,,,,,,,,,,,,
334383,1564151681803,-1,2.38,0.94,0.32,1.43,1.09,0.88,0.08,0.38,5,-1,5,0.88,5068,6,94,44,53,867,270.0,390,465,60,121.0,162,1,301,230,44,0,0,270,-1,250,270,-5.59,,,,,,,,,,,,
334403,1564151681823,3,2.37,0.94,0.31,1.44,1.09,0.91,0.04,0.31,4,-2,5,0.91,5078,6,94,44,53,867,269.0,388,466,60,122.0,162,1,302,230,44,0,0,268,-1,28160,269,-5.59,,,,,,,,,,,,
334423,1564151681843,1,2.37,0.94,0.32,1.43,1.09,0.83,0.03,0.37,5,-0,5,0.83,5044,6,94,44,53,867,267.0,382,464,60,123.0,162,1,299,229,44,0,0,268,-1,2414,267,-5.59,,,,,,,,,,,,
334443,1564151681863,0,2.37,0.94,0.31,1.44,1.08,0.9,0.05,0.44,4,-1,5,0.9,5029,6,94,44,53,866,267.0,390,470,60,120.0,162,1,298,229,44,0,0,268,-1,250,267,-5.59,44.680885,10.024773,27.16,174.3,0,0.0,-1,0.0,0.0,0,2.27,5.574
334463,1564151681883,3,2.38,0.94,0.32,1.43,1.08,0.91,0.05,0.37,5,-1,6,0.91,5010,6,94,44,53,862,266.0,380,463,60,123.0,161,1,296,229,43,0,0,267,-1,-1,266,181.28,,,,,,,,,,,,
334483,1564151681903,-0,2.38,0.94,0.32,1.43,1.09,0.83,-0.0,0.42,5,-0,5,0.83,5006,6,94,44,53,859,266.0,379,466,60,122.0,161,1,296,229,43,0,0,265,-1,250,266,-5.59,,,,,,,,,,,,
334503,1564151681923,-1,2.37,0.94,0.31,1.43,1.09,0.92,0.04,0.47,4,-2,5,0.92,5000,6,94,44,53,856,264.0,387,463,60,121.0,161,1,296,229,43,0,0,264,-1,-1,264,-5.59,,,,,,,,,,,,
334523,1564151681943,2,2.37,0.94,0.32,1.43,1.09,0.88,0.02,0.35,4,-2,5,0.88,4988,6,94,44,53,854,263.0,378,465,60,122.0,161,1,294,228,43,0,0,266,-10440,-1,264,-5.59,,,,,,,,,,,,
334543,1564151681963,-1,2.38,0.94,0.32,1.43,1.08,0.82,0.01,0.38,5,0,5,0.82,4953,6,94,44,54,852,263.0,375,463,60,123.0,161,1,294,231,43,0,0,264,-10440,-1,263,-5.59,44.680885,10.024764,26.65,174.3,0,0.0,-1,0.0,0.0,0,2.27,5.5757
334563,1564151681983,-1,2.37,0.94,0.32,1.43,1.08,0.89,0.05,0.46,4,-0,5,0.89,4935,6,94,44,54,850,263.0,378,465,60,121.0,159,1,292,159,42,0,0,263,14337,-1,262,-5.59,,,,,,,,,,,,
334583,1564151681995,2,2.38,0.94,0.32,1.43,1.09,0.93,0.01,0.45,4,-2,5,0.93,4966,6,94,44,54,850,263.0,370,461,60,122.0,159,1,296,231,42,0,0,262,506,-1,263,-5.59,,,,,,,,,,,,
334603,1564151682015,0,2.37,0.94,0.32,1.43,1.09,0.8,0.05,0.4,5,-0,5,0.8,4938,6,94,44,54,850,261.0,372,464,60,123.0,159,1,292,231,42,0,0,260,506,-1,262,-5.59,,,,,,,,,,,,
334623,1564151682035,-1,2.38,0.94,0.31,1.44,1.09,0.86,0.04,0.45,5,0,5,0.86,4896,6,94,44,54,852,261.0,376,465,60,122.0,159,1,287,230,42,0,0,261,-1281,-1,261,-5.59,,,,,,,,,,,,
334643,1564151682055,-1,2.37,0.94,0.31,1.43,1.09,0.95,0.02,0.48,5,-1,5,0.95,4916,6,94,44,54,857,261.0,374,465,60,122.0,159,1,289,231,42,0,0,261,-1281,-1,260,-5.59,44.680885,10.024755,26.44,174.3,0,0.0,-1,0.0,0.0,0,2.28,5.5774
334663,1564151682075,3,2.36,0.94,0.32,1.44,1.09,0.88,0.03,0.43,4,-2,5,0.88,4908,6,94,44,54,861,260.0,361,461,60,122.0,165,1,288,231,43,0,0,260,-1,-1,259,181.28,,,,,,,,,,,,
334683,1564151682103,-1,2.37,0.94,0.32,1.44,1.08,0.8,0.02,0.46,4,-0,5,0.8,4898,6,94,44,54,865,258.0,365,463,60,123.0,165,1,287,230,43,0,0,261,-1,-1,258,-5.59,,,,,,,,,,,,
334703,1564151682123,-1,2.37,0.94,0.32,1.43,1.09,0.87,0.08,0.55,4,-0,5,0.87,4905,6,94,44,55,870,257.0,371,463,60,122.0,165,1,285,234,43,0,0,259,-1,-1,257,-5.59,,,,,,,,,,,,
334723,1564151682143,2,2.36,0.94,0.31,1.43,1.08,0.91,0.06,0.51,4,-3,5,0.91,4885,6,94,44,54,874,257.0,367,462,60,122.0,165,1,285,158,43,0,0,259,-214,-1,257,-5.59,,,,,,,,,,,,
334743,1564151682163,2,2.37,0.95,0.31,1.44,1.09,0.83,0.03,0.45,4,-2,5,0.83,4863,6,94,44,54,876,256.0,368,458,60,123.0,165,1,283,230,43,0,0,256,-214,-1,256,181.28,44.680882,10.024747,25.85,174.3,0,0.0,-1,0.0,0.0,0,2.28,5.5791
334763,1564151682183,-1,2.36,0.94,0.32,1.43,1.09,0.8,0.01,0.46,4,-0,4,0.8,4815,6,94,44,55,877,256.0,358,465,60,123.0,164,1,273,230,42,0,0,258,-214,-41,256,-5.59,,,,,,,,,,,,
334783,1564151682204,-1,2.36,0.94,0.31,1.43,1.08,0.83,0.05,0.55,4,1,4,0.83,4788,6,94,44,54,877,255.0,367,470,60,121.0,164,1,273,229,42,0,0,256,-214,-1,256,-5.59,,,,,,,,,,,,
334803,1564151682224,-1,2.36,0.94,0.31,1.44,1.08,0.92,0.08,0.55,4,-1,4,0.93,4805,6,94,44,54,878,254.0,363,464,60,122.0,164,1,275,158,42,0,0,255,10818,14337,255,-5.59,,,,,,,,,,,,
334823,1564151682244,2,2.36,0.94,0.31,1.43,1.09,0.96,0.04,0.49,4,-4,4,0.96,4788,6,94,44,54,880,254.0,363,468,60,121.0,164,1,273,157,42,0,0,254,10818,14337,254,-5.59,,,,,,,,,,,,
334843,1564151682264,2,2.36,0.94,0.32,1.43,1.08,0.89,0.02,0.44,4,-2,5,0.89,4777,6,94,44,54,881,253.0,362,458,60,124.0,164,1,271,157,42,0,0,254,16896,506,253,-5.59,44.680878,10.024738,25.74,174.3,0,0.0,-1,0.0,0.0,0,2.28,5.5807
334863,1564151682284,0,2.36,0.94,0.32,1.43,1.09,0.82,-0.0,0.42,4,-0,4,0.82,4748,6,94,44,54,883,252.0,357,470,60,122.0,162,1,267,232,41,0,0,254,-1494,-1281,252,-5.59,,,,,,,,,,,,
334883,1564151682304,-0,2.36,0.94,0.32,1.43,1.08,0.83,-0.02,0.47,4,2,4,0.83,4739,6,94,44,54,884,252.0,362,466,60,121.0,162,1,266,229,41,0,0,254,250,-1,252,-5.59,,,,,,,,,,,,
334903,1564151682324,-1,2.37,0.94,0.32,1.43,1.09,0.9,0.03,0.56,4,0,4,0.91,4756,6,94,44,54,886,251.0,364,462,60,121.0,162,1,269,229,41,0,0,252,15360,-1,251,-5.59,,,,,,,,,,,,
334923,1564151682344,-2,2.37,0.94,0.32,1.43,1.09,0.96,0.05,0.56,4,-2,4,0.97,4731,6,94,44,54,886,251.0,362,467,60,120.0,162,1,265,157,41,0,0,252,10812,506,251,-5.59,,,,,,,,,,,,
334943,1564151682364,1,2.35,0.94,0.32,1.43,1.08,0.96,0.03,0.49,4,-3,5,0.96,4746,6,94,44,54,888,250.0,358,459,60,123.0,162,1,267,229,41,0,0,250,15360,-1281,250,-5.59,44.680878,10.02473,25.2,174.3,0,0.0,-1,0.0,0.0,0,2.28,5.5824
334963,1564151682384,2,2.35,0.94,0.32,1.43,1.09,0.91,0.04,0.43,3,-3,5,0.91,4688,6,94,44,54,890,249.0,350,462,60,124.0,160,1,260,228,40,0,0,251,250,-1,249,181.28,,,,,,,,,,,,
334983,1564151682404,2,2.35,0.94,0.31,1.43,1.09,0.84,0.04,0.36,3,-1,5,0.84,4711,6,94,44,55,892,248.0,357,466,60,123.0,160,1,261,232,40,0,0,249,-1445,-1,248,-5.59,,,,,,,,,,,,
335003,1564151682424,-1,2.36,0.94,0.32,1.44,1.08,0.79,0.04,0.36,3,-0,5,0.79,4666,6,94,44,54,894,247.0,356,465,60,123.0,160,1,257,228,40,0,0,249,-1445,-1,247,-5.59,,,,,,,,,,,,
335023,1564151682444,-0,2.35,0.94,0.31,1.43,1.09,0.79,0.05,0.43,3,-0,5,0.8,4644,6,94,44,54,895,247.0,353,465,60,122.0,160,1,254,228,40,0,0,248,-1445,10818,247,-5.59,,,,,,,,,,,,
335043,1564151682464,-0,2.34,0.94,0.32,1.44,1.08,0.85,0.1,0.46,3,0,4,0.86,4664,6,94,44,55,896,245.0,356,467,60,121.0,160,1,254,228,40,0,0,247,-1445,16896,245,-5.59,44.680874,10.024722,24.98,174.3,0,0.0,-1,0.0,0.0,0,2.28,5.5841
335063,1564151682484,-1,2.35,0.94,0.31,1.44,1.08,0.91,0.13,0.53,3,-2,5,0.92,4617,6,94,44,54,897,245.0,352,466,60,121.0,163,1,250,228,40,0,0,246,23482,-1494,244,-5.59,,,,,,,,,,,,
335083,1564151682504,-1,2.35,0.94,0.31,1.43,1.08,0.93,0.16,0.54,3,-4,5,0.95,4613,6,94,44,54,896,245.0,352,465,60,122.0,163,1,250,228,40,0,0,246,-17920,15360,245,-5.59,,,,,,,,,,,,
335103,1564151682524,-1,2.35,0.94,0.31,1.44,1.08,0.93,0.19,0.55,3,-5,4,0.95,4583,6,94,44,54,893,243.0,348,467,60,123.0,163,1,246,227,40,0,0,246,-17920,16896,243,-5.59,,,,,,,,,,,,
335123,1564151682544,-1,2.35,0.94,0.31,1.44,1.08,0.93,0.13,0.52,3,-6,4,0.94,4587,6,94,44,54,888,243.0,345,460,60,123.0,163,1,246,227,40,0,0,244,-17920,15360,243,-5.59,,,,,,,,,,,,
335143,1564151682564,-1,2.35,0.94,0.32,1.43,1.09,0.92,0.1,0.51,2,-6,5,0.93,4576,6,94,44,54,883,242.0,340,460,60,123.0,163,1,245,227,40,0,0,244,-1484,250,242,-5.59,44.68087,10.024714,24.68,174.3,0,0.0,-1,0.0,0.0,0,2.28,5.5857
335163,1564151682584,-1,2.35,0.94,0.31,1.43,1.08,0.93,0.04,0.48,2,-6,4,0.93,4558,6,94,44,54,880,241.0,343,461,60,122.0,161,1,243,227,39,0,0,244,13468,-1494,241,-5.59,,,,,,,,,,,,
335183,1564151682604,0,2.34,0.94,0.31,1.44,1.08,0.98,0.02,0.42,2,-6,4,0.98,4550,6,94,44,54,877,239.0,338,460,60,123.0,161,1,242,227,39,0,0,242,-25600,23482,239,-5.59,,,,,,,,,,,,
335203,1564151682624,1,2.34,0.94,0.31,1.43,1.09,0.97,0.02,0.37,2,-5,5,0.97,4550,6,94,44,54,874,239.0,343,457,60,124.0,161,1,242,227,39,0,0,241,-1483,15360,239,-5.59,,,,,,,,,,,,
335223,1564151682644,1,2.34,0.94,0.32,1.43,1.09,0.97,0.02,0.3,2,-6,5,0.97,4501,6,94,44,54,871,238.0,333,462,60,124.0,161,1,235,227,39,0,0,242,-1483,-17920,238,-5.59,,,,,,,,,,,,
335243,1564151682664,0,2.34,0.94,0.31,1.43,1.09,0.99,0.03,0.29,2,-5,5,0.99,4507,6,94,44,54,871,238.0,338,463,60,123.0,161,1,236,227,39,0,0,241,13602,23482,238,-5.59,44.68087,10.024706,24.09,174.2,0,0.0,-1,0.0,0.0,0,2.28,5.5874
335263,1564151682684,0,2.32,0.94,0.32,1.42,1.09,0.99,-0.0,0.26,2,-4,5,0.99,4483,6,94,44,54,872,237.0,338,458,60,123.0,160,1,233,226,38,0,0,239,8704,-17920,237,-5.59,,,,,,,,,,,,
335283,1564151682704,0,2.32,0.94,0.31,1.44,1.08,0.98,0.0,0.23,2,-4,5,0.98,4487,6,94,44,54,875,235.0,337,460,60,123.0,160,1,233,226,38,0,0,239,13602,-1484,235,-5.59,,,,,,,,,,,,
335303,1564151682724,-0,2.31,0.94,0.31,1.44,1.08,0.99,-0.03,0.21,1,-4,5,0.99,4455,6,94,44,54,879,235.0,331,461,60,124.0,160,1,229,226,38,0,0,239,8704,-25600,235,-5.59,,,,,,,,,,,,
335323,1564151682744,-2,2.31,0.93,0.31,1.43,1.09,1.0,-0.03,0.2,1,-4,5,1.0,4477,6,94,44,54,882,234.0,333,462,60,124.0,160,1,232,226,38,0,0,237,13602,250,233,-5.59,,,,,,,,,,,,
335343,1564151682764,-0,2.3,0.94,0.31,1.43,1.08,1.02,-0.04,0.14,1,-5,5,1.02,4435,6,94,44,53,885,233.0,335,462,60,123.0,160,1,223,222,38,0,0,238,8704,-1483,233,-5.59,44.680866,10.024697,23.81,174.2,0,0.0,-1,0.0,0.0,0,2.28,5.589
335363,1564151682784,-2,2.3,0.94,0.31,1.44,1.08,1.01,-0.02,0.11,0,-5,5,1.01,4477,6,94,44,54,888,232.0,332,460,60,123.0,164,1,232,222,38,0,0,238,-1494,-1484,232,-5.59,,,,,,,,,,,,
335383,1564151682800,-0,2.3,0.93,0.31,1.43,1.08,1.01,-0.02,0.12,0,-6,5,1.01,4443,6,94,44,53,890,232.0,332,459,60,123.0,164,1,225,222,38,0,0,236,250,250,231,-5.59,,,,,,,,,,,,
335403,1564151682820,-2,2.3,0.94,0.31,1.44,1.08,0.99,-0.04,0.16,0,-6,5,0.99,4392,6,94,44,53,890,231.0,336,460,60,122.0,164,1,218,221,38,0,0,238,10824,250,231,-5.59,,,,,,,,,,,,
335423,1564151682840,-1,2.3,0.94,0.32,1.43,1.08,0.98,-0.01,0.2,0,-7,4,0.98,4371,6,94,44,53,889,230.0,332,463,60,122.0,164,1,215,221,38,0,0,237,10824,250,230,-5.59,,,,,,,,,,,,
335443,1564151682860,-1,2.3,0.94,0.31,1.43,1.09,1.01,-0.0,0.24,0,-7,3,1.01,4352,6,94,44,53,883,230.0,334,465,60,120.0,164,1,213,225,38,0,0,236,10824,-1483,230,181.28,44.680866,10.02469,23.58,174.2,0,0.0,-1,0.0,0.0,0,2.28,5.5907
335463,1564151682880,-0,2.29,0.93,0.31,1.44,1.08,1.05,-0.0,0.36,-0,-7,3,1.05,4355,6,94,44,54,878,229.0,328,463,60,122.0,161,1,214,225,37,0,0,233,250,250,229,648.46,,,,,,,,,,,,
335483,1564151682904,-0,2.29,0.94,0.32,1.44,1.09,1.02,0.01,0.45,-0,-6,2,1.02,4379,6,94,44,54,872,228.0,326,463,60,122.0,161,1,219,225,37,0,0,234,250,250,228,414.87,,,,,,,,,,,,
335503,1564151682924,2,2.3,0.94,0.31,1.43,1.09,0.96,0.08,0.46,-0,-5,1,0.97,4354,6,94,44,54,864,227.0,328,466,60,122.0,161,1,216,225,37,0,0,232,-1496,8704,227,414.87,,,,,,,,,,,,
335523,1564151682944,2,2.29,0.94,0.32,1.43,1.08,0.9,0.08,0.47,-0,-3,1,0.91,4350,6,94,44,54,860,227.0,325,465,60,124.0,161,1,215,225,37,0,0,232,-1496,18432,226,-5.59,,,,,,,,,,,,
335543,1564151682964,1,2.3,0.93,0.32,1.43,1.09,0.86,0.09,0.43,-0,-1,1,0.86,4381,6,94,44,54,858,227.0,323,462,60,124.0,161,1,219,225,37,0,0,232,-1496,250,226,-5.59,44.680866,10.024682,23.07,174.2,0,0.0,-1,0.0,0.0,0,2.28,5.5924
335563,1564151682984,1,2.29,0.94,0.32,1.42,1.09,0.86,0.08,0.38,-0,-1,0,0.87,4316,6,94,44,53,856,227.0,322,461,60,124.0,158,1,209,149,36,0,0,232,-1496,18432,227,-5.59,,,,,,,,,,,,
335583,1564151682996,-1,2.29,0.94,0.33,1.43,1.08,0.85,0.09,0.36,-0,-1,1,0.86,4347,6,94,44,54,859,228.0,323,459,60,123.0,158,1,215,221,36,0,0,233,250,18432,225,-5.59,,,,,,,,,,,,
335603,1564151683016,-1,2.29,0.94,0.32,1.42,1.08,0.88,0.04,0.33,-1,-3,1,0.88,4327,6,94,44,54,863,227.0,323,463,60,123.0,158,1,212,221,36,0,0,231,-1496,18432,226,-5.59,,,,,,,,,,,,
335623,1564151683036,-0,2.3,0.93,0.32,1.43,1.09,0.89,0.01,0.33,-1,-4,1,0.89,4308,6,94,44,54,867,226.0,332,469,60,122.0,158,1,210,225,36,0,0,232,10318,18432,224,-5.59,,,,,,,,,,,,
335643,1564151683056,-1,2.3,0.94,0.32,1.43,1.09,0.91,-0.0,0.43,-1,-4,0,0.91,4340,6,94,44,54,872,226.0,327,465,60,121.0,158,1,214,225,36,0,0,231,10318,-1494,223,-5.59,44.680862,10.024674,23.03,174.2,0,0.0,-1,0.0,0.0,0,2.28,5.594
335663,1564151683076,-0,2.29,0.94,0.32,1.43,1.08,0.94,0.03,0.51,-1,-2,-1,0.94,4326,6,94,44,54,875,225.0,325,467,60,122.0,165,1,209,225,37,0,0,231,19968,250,223,-5.59,,,,,,,,,,,,
335683,1564151683104,3,2.29,0.94,0.32,1.44,1.09,0.9,0.07,0.55,-1,-1,-1,0.9,4298,6,94,44,54,881,225.0,326,464,60,123.0,165,1,209,224,37,0,0,230,19968,18432,223,-5.59,,,,,,,,,,,,
335703,1564151683124,1,2.3,0.94,0.32,1.44,1.09,0.84,0.11,0.54,-1,-0,-1,0.85,4316,6,94,44,54,886,225.0,320,460,60,124.0,165,1,211,225,37,0,0,231,19968,-1496,223,-5.59,,,,,,,,,,,,
335723,1564151683144,0,2.29,0.94,0.32,1.43,1.09,0.79,0.11,0.49,-1,1,-1,0.8,4279,6,94,44,54,893,224.0,323,460,60,123.0,165,1,206,224,37,0,0,230,250,18432,223,-5.59,,,,,,,,,,,,
335743,1564151683164,-2,2.29,0.94,0.33,1.43,1.08,0.8,0.09,0.43,-1,1,-0,0.81,4272,6,94,44,54,896,224.0,321,464,60,123.0,165,1,205,152,37,0,0,231,250,250,222,-5.59,44.680862,10.024667,22.66,174.2,0,0.0,-1,0.0,0.0,0,2.28,5.5957
335763,1564151683184,-2,2.29,0.93,0.31,1.43,1.08,0.84,0.08,0.41,-1,-1,-0,0.84,4306,6,94,44,54,900,224.0,328,465,60,122.0,162,1,210,225,36,0,0,229,250,18432,222,-5.59,,,,,,,,,,,,
335783,1564151683203,0,2.28,0.93,0.31,1.43,1.09,0.86,0.04,0.47,-2,-2,-1,0.86,4257,6,94,44,54,909,224.0,326,467,60,121.0,162,1,203,224,36,0,0,229,250,-1496,221,-5.59,,,,,,,,,,,,
335803,1564151683223,-2,2.28,0.93,0.31,1.43,1.09,0.91,0.06,0.52,-2,-2,-1,0.91,4288,6,94,44,54,916,223.0,329,471,60,122.0,162,1,207,224,36,0,0,228,-1530,19968,222,-5.59,,,,,,,,,,,,
335823,1564151683243,3,2.27,0.94,0.31,1.43,1.08,0.88,0.09,0.56,-2,0,-2,0.88,4291,6,94,44,54,920,223.0,331,465,60,123.0,162,1,208,224,36,0,0,230,-1530,19968,220,-5.59,,,,,,,,,,,,
335843,1564151683263,2,2.27,0.94,0.31,1.43,1.08,0.84,0.12,0.51,-2,2,-3,0.85,4251,6,94,44,54,923,223.0,318,459,60,123.0,162,1,202,224,36,0,0,225,-1530,-1530,219,181.28,44.680859,10.024659,22.15,174.2,0,0.0,-1,0.0,0.0,0,2.28,5.5974
335863,1564151683283,-1,2.28,0.93,0.31,1.43,1.08,0.83,0.12,0.44,-2,2,-2,0.84,4272,6,94,44,54,930,222.0,319,462,60,123.0,164,1,205,224,36,0,0,227,1596,19968,220,-5.59,,,,,,,,,,,,
335883,1564151683303,-1,2.27,0.93,0.3,1.43,1.08,0.85,0.09,0.42,-2,0,-2,0.85,4266,6,94,44,54,937,222.0,320,464,60,123.0,164,1,204,152,36,0,0,227,1596,10318,218,-5.59,,,,,,,,,,,,
335903,1564151683323,-1,2.26,0.94,0.31,1.43,1.08,0.86,0.09,0.43,-2,-1,-2,0.87,4258,6,94,44,54,940,222.0,330,467,60,122.0,164,1,203,152,36,0,0,228,1596,250,219,-5.59,,,,,,,,,,,,
335923,1564151683343,-2,2.28,0.93,0.31,1.43,1.09,0.87,0.07,0.49,-2,-2,-3,0.88,4243,6,94,44,54,944,222.0,325,471,60,121.0,164,1,201,224,36,0,0,228,1596,19968,218,181.28,,,,,,,,,,,,
335943,1564151683363,3,2.27,0.94,0.31,1.44,1.08,0.89,0.1,0.52,-2,-0,-3,0.89,4238,6,94,44,54,948,221.0,322,462,60,123.0,164,1,201,224,36,0,0,226,15360,1596,218,648.46,44.680859,10.024652,22.07,174.2,0,0.0,-1,0.0,0.0,0,2.28,5.5991
335963,1564151683383,2,2.26,0.94,0.31,1.43,1.08,0.82,0.13,0.5,-2,1,-3,0.83,4248,6,94,44,54,954,220.0,317,463,60,123.0,161,1,202,224,35,0,0,227,250,250,218,414.87,,,,,,,,,,,,
335983,1564151683403,-1,2.26,0.94,0.31,1.43,1.08,0.83,0.14,0.47,-2,1,-3,0.85,4227,6,94,44,54,956,221.0,312,455,60,123.0,161,1,199,224,35,0,0,225,250,-1532,218,181.28,,,,,,,,,,,,
336003,1564151683423,-2,2.26,0.93,0.3,1.43,1.08,0.84,0.12,0.45,-2,-0,-3,0.85,4226,6,94,44,54,957,220.0,325,463,60,122.0,161,1,199,224,35,0,0,227,250,250,217,-5.59,,,,,,,,,,,,
336023,1564151683443,-1,2.26,0.94,0.31,1.42,1.07,0.86,0.1,0.49,-2,-2,-3,0.87,4177,6,94,44,54,959,221.0,323,463,60,121.0,161,1,193,151,35,0,0,226,15360,1596,216,-5.59,,,,,,,,,,,,
336043,1564151683463,3,2.26,0.94,0.3,1.43,1.07,0.87,0.09,0.56,-3,-1,-4,0.88,4189,6,94,44,55,962,219.0,315,462,60,122.0,161,1,194,223,35,0,0,227,250,-1530,216,-5.59,44.680855,10.024645,21.97,174.2,0,0.0,-1,0.0,0.0,0,2.28,5.6007
336063,1564151683483,2,2.26,0.94,0.3,1.43,1.08,0.83,0.1,0.56,-3,-0,-4,0.83,4193,6,94,44,55,963,220.0,312,463,60,124.0,162,1,195,223,35,0,0,225,250,250,215,181.28,,,,,,,,,,,,
336083,1564151683503,-0,2.26,0.94,0.31,1.43,1.08,0.82,0.12,0.51,-3,-0,-4,0.83,4125,6,94,44,54,963,220.0,316,460,60,122.0,162,1,186,151,35,0,0,225,250,250,215,-5.59,,,,,,,,,,,,
336103,1564151683523,-0,2.27,0.93,0.31,1.42,1.08,0.86,0.11,0.49,-3,-1,-4,0.86,4167,6,94,44,54,964,220.0,315,465,60,122.0,162,1,191,223,35,0,0,224,250,-1532,215,-5.59,,,,,,,,,,,,
336123,1564151683543,-0,2.26,0.93,0.31,1.43,1.08,0.88,0.08,0.53,-3,-1,-4,0.89,4145,6,94,44,54,964,220.0,320,473,60,121.0,162,1,188,223,35,0,0,224,250,15360,214,-5.59,,,,,,,,,,,,
336143,1564151683563,1,2.26,0.93,0.31,1.43,1.08,0.83,0.11,0.52,-3,1,-5,0.84,4099,6,94,44,54,963,220.0,306,460,60,124.0,162,1,182,222,35,0,0,224,250,15360,214,181.28,44.680855,10.024638,21.79,174.2,0,0.0,-1,0.0,0.0,0,2.29,5.6024
336163,1564151683583,-1,2.27,0.94,0.3,1.43,1.08,0.82,0.14,0.47,-3,2,-5,0.84,4130,6,94,44,54,963,219.0,312,458,60,123.0,158,1,187,223,34,0,0,225,-1532,-17920,214,-5.59,,,,,,,,,,,,
336183,1564151683603,-0,2.26,0.93,0.31,1.43,1.08,0.85,0.13,0.46,-3,-0,-4,0.86,4095,6,94,44,54,961,219.0,313,463,60,122.0,158,1,182,222,34,0,0,225,-1532,-1532,213,-5.59,,,,,,,,,,,,
336203,1564151683623,3,2.25,0.93,0.31,1.43,1.08,0.88,0.12,0.49,-4,-0,-5,0.89,4045,6,94,44,54,958,216.0,314,471,60,122.0,158,1,177,222,34,0,0,223,250,1210,213,-5.59,,,,,,,,,,,,
336223,1564151683643,0,2.26,0.93,0.31,1.43,1.08,0.82,0.15,0.5,-3,2,-5,0.83,4115,6,94,44,54,956,216.0,305,458,60,124.0,158,1,185,223,34,0,0,220,250,250,212,-5.59,,,,,,,,,,,,
336243,1564151683663,-0,2.26,0.93,0.3,1.43,1.08,0.83,0.19,0.48,-3,1,-5,0.85,4080,6,94,44,54,954,216.0,311,461,60,123.0,158,1,180,222,34,0,0,220,250,250,211,-5.59,44.680851,10.024631,21.62,174.2,0,0.0,-1,0.0,0.0,0,2.29,5.6041
336263,1564151683683,-0,2.26,0.92,0.3,1.43,1.08,0.87,0.16,0.49,-3,-0,-5,0.88,4050,6,94,44,54,949,215.0,315,472,60,122.0,165,1,176,150,35,0,0,222,-1532,250,211,-5.59,,,,,,,,,,,,
336283,1564151683703,2,2.26,0.93,0.3,1.43,1.08,0.85,0.16,0.52,-3,1,-5,0.86,4110,6,94,44,55,943,215.0,309,461,60,122.0,165,1,184,223,35,0,0,221,-1532,250,211,-5.59,,,,,,,,,,,,
336303,1564151683723,-1,2.26,0.93,0.31,1.42,1.08,0.84,0.16,0.49,-3,2,-6,0.86,4079,6,94,44,54,937,215.0,306,458,60,123.0,165,1,180,222,35,0,0,220,-1532,-1532,210,181.28,,,,,,,,,,,,
336323,1564151683743,-2,2.27,0.93,0.31,1.42,1.09,0.86,0.14,0.48,-3,1,-5,0.87,4067,6,94,44,54,932,214.0,313,465,60,121.0,165,1,178,222,35,0,0,220,1088,-1532,210,-5.59,,,,,,,,,,,,
336343,1564151683763,1,2.27,0.93,0.31,1.42,1.08,0.88,0.13,0.52,-3,0,-5,0.89,4128,6,94,44,55,929,214.0,315,468,60,122.0,165,1,184,227,35,0,0,219,1088,1088,210,-5.59,44.680847,10.024623,21.5,174.2,0,0.0,-1,0.0,0.0,0,2.29,5.6057
336363,1564151683783,1,2.26,0.93,0.31,1.43,1.08,0.83,0.16,0.52,-3,2,-6,0.85,4069,6,94,44,55,926,213.0,303,458,60,124.0,161,1,179,227,34,0,0,217,16384,1088,209,181.28,,,,,,,,,,,,
336383,1564151683803,-1,2.27,0.93,0.31,1.42,1.08,0.84,0.19,0.49,-3,1,-5,0.86,4063,6,94,44,54,924,214.0,312,457,60,122.0,161,1,178,222,34,0,0,218,1088,250,210,-5.59,,,,,,,,,,,,
336403,1564151683823,0,2.26,0.94,0.31,1.43,1.08,0.86,0.15,0.51,-3,-1,-4,0.88,4081,6,94,44,54,925,214.0,313,468,60,122.0,161,1,180,222,34,0,0,218,1088,-1532,208,-5.59,,,,,,,,,,,,
336423,1564151683843,2,2.27,0.94,0.31,1.43,1.08,0.85,0.14,0.55,-3,-0,-5,0.86,4040,6,94,44,54,927,214.0,309,466,60,122.0,161,1,175,150,34,0,0,218,1088,-1532,209,-5.59,,,,,,,,,,,,
336443,1564151683863,-2,2.28,0.93,0.31,1.42,1.08,0.8,0.15,0.52,-3,1,-6,0.82,4040,6,94,44,55,930,213.0,304,456,60,123.0,161,1,175,222,34,0,0,218,16384,16384,208,181.28,44.680847,10.024616,21.38,174.2,0,0.0,-1,0.0,0.0,0,2.29,5.6074
336463,1564151683883,-0,2.28,0.93,0.31,1.42,1.08,0.82,0.12,0.52,-3,-1,-4,0.83,4063,6,94,44,54,933,213.0,312,466,60,122.0,162,1,178,150,34,0,0,216,250,-17920,208,-5.59,,,,,,,,,,,,
336483,1564151683905,2,2.29,0.93,0.31,1.43,1.08,0.83,0.1,0.53,-3,-1,-5,0.83,4026,6,94,44,55,935,211.0,306,468,60,123.0,162,1,173,227,34,0,0,216,-1533,1088,208,-5.59,,,,,,,,,,,,
336503,1564151683925,-0,2.29,0.94,0.31,1.43,1.08,0.78,0.12,0.53,-3,1,-6,0.79,4015,6,94,44,55,937,212.0,302,461,60,123.0,162,1,171,222,34,0,0,215,250,1088,207,181.28,,,,,,,,,,,,
336523,1564151683945,-0,2.29,0.93,0.3,1.43,1.08,0.8,0.1,0.52,-3,-1,-5,0.81,4023,6,94,44,54,941,212.0,309,462,60,121.0,162,1,173,150,34,0,0,215,-1533,1088,206,-5.59,,,,,,,,,,,,
336543,1564151683965,3,2.29,0.93,0.31,1.43,1.08,0.81,0.07,0.56,-3,-1,-5,0.82,3980,6,94,44,54,944,210.0,303,471,60,123.0,162,1,169,149,34,0,0,217,966,250,208,-5.59,44.680847,10.02461,20.94,174.3,0,0.0,-1,0.0,0.0,0,2.29,5.609
336563,1564151683985,-0,2.3,0.93,0.31,1.42,1.09,0.78,0.08,0.54,-3,0,-6,0.78,3981,6,94,44,55,946,209.0,297,462,60,124.0,159,1,169,226,33,0,0,215,-14848,-1533,207,181.28,,,,,,,,,,,,
336583,1564151683997,-1,2.3,0.94,0.31,1.42,1.08,0.79,0.06,0.52,-2,-2,-4,0.79,4000,6,94,44,54,948,209.0,308,462,60,122.0,159,1,170,150,33,0,0,213,-14848,250,206,-5.59,,,,,,,,,,,,
336603,1564151684017,3,2.3,0.93,0.31,1.43,1.08,0.8,0.03,0.54,-2,-1,-5,0.8,3960,6,94,44,55,948,208.0,301,471,60,123.0,159,1,168,225,33,0,0,213,250,-14848,206,-5.59,,,,,,,,,,,,
336623,1564151684037,-1,2.31,0.94,0.31,1.43,1.08,0.76,0.05,0.52,-2,0,-5,0.77,3972,6,94,44,54,947,208.0,300,456,60,122.0,159,1,168,149,33,0,0,213,250,966,206,-5.59,,,,,,,,,,,,
336643,1564151684057,-0,2.32,0.93,0.3,1.43,1.08,0.77,0.04,0.53,-2,-1,-3,0.77,3960,6,94,44,54,946,208.0,305,458,60,122.0,159,1,168,221,33,0,0,212,250,-14848,206,-5.59,44.680847,10.024603,20.93,174.3,0,0.0,-1,0.0,0.0,0,2.29,5.6107
336663,1564151684077,2,2.32,0.94,0.31,1.43,1.08,0.77,0.04,0.56,-2,1,-4,0.77,3942,6,94,44,55,944,208.0,300,473,60,122.0,159,1,167,225,33,0,0,213,250,966,207,-5.59,,,,,,,,,,,,
336683,1564151684095,-1,2.34,0.94,0.31,1.42,1.08,0.76,0.07,0.54,-2,2,-4,0.77,3972,6,94,44,54,944,208.0,302,455,60,123.0,159,1,168,221,33,0,0,213,250,-14848,207,-5.59,,,,,,,,,,,,
336703,1564151684115,-1,2.34,0.93,0.31,1.43,1.08,0.8,0.05,0.57,-1,0,-3,0.8,3920,6,94,44,54,944,208.0,305,462,60,121.0,159,1,166,220,33,0,0,212,-1482,16384,208,-5.59,,,,,,,,,,,,
336723,1564151684135,1,2.36,0.93,0.3,1.43,1.08,0.77,0.03,0.54,-1,3,-4,0.77,3889,6,94,44,55,944,206.0,298,468,60,123.0,159,1,165,223,33,0,0,211,-29696,250,206,181.28,,,,,,,,,,,,
336743,1564151684155,-1,2.36,0.94,0.31,1.42,1.08,0.78,0.04,0.51,-1,2,-2,0.78,3964,6,94,44,55,946,206.0,297,456,60,123.0,159,1,168,221,33,0,0,208,-29696,1088,206,-5.59,44.680843,10.024596,20.92,174.3,0,0.0,-1,0.0,0.0,0,2.29,5.6124
336763,1564151684175,1,2.38,0.94,0.31,1.43,1.08,0.8,0.02,0.54,-0,1,-2,0.81,3950,6,94,44,54,949,206.0,306,467,60,121.0,164,1,168,226,34,0,0,209,-1482,1088,206,-5.59,,,,,,,,,,,,
336783,1564151684204,-1,2.37,0.93,0.31,1.43,1.08,0.79,0.03,0.56,-0,2,-2,0.79,3930,6,94,44,55,953,206.0,295,465,60,123.0,164,1,167,224,34,0,0,208,-1482,966,206,181.28,,,,,,,,,,,,
336803,1564151684224,-1,2.38,0.94,0.31,1.43,1.08,0.8,0.02,0.55,0,1,-1,0.8,3939,6,94,44,54,955,206.0,304,460,60,123.0,164,1,167,220,34,0,0,207,13874,-1533,206,-5.59,,,,,,,,,,,,
336823,1564151684244,1,2.39,0.94,0.31,1.43,1.08,0.8,-0.0,0.55,1,2,-1,0.8,3955,6,94,44,55,957,206.0,302,471,60,122.0,164,1,168,225,34,0,0,209,13874,966,207,-5.59,,,,,,,,,,,,
336843,1564151684264,-0,2.39,0.94,0.31,1.42,1.08,0.79,0.01,0.53,1,2,-1,0.79,3907,6,94,44,55,959,206.0,297,458,60,123.0,164,1,166,224,34,0,0,208,13874,966,206,-5.59,44.68084,10.024589,20.7,174.3,0,0.0,-1,0.0,0.0,0,2.29,5.614
336863,1564151684284,-1,2.4,0.94,0.3,1.42,1.09,0.81,-0.0,0.52,1,-0,0,0.81,3920,6,94,44,54,960,206.0,301,471,60,121.0,160,1,166,220,33,0,0,207,250,-1533,206,-5.59,,,,,,,,,,,,
336883,1564151684304,-0,2.4,0.93,0.31,1.43,1.09,0.77,-0.02,0.52,1,2,0,0.77,3952,6,94,44,55,960,206.0,297,468,60,124.0,160,1,168,225,33,0,0,206,250,-14848,206,181.28,,,,,,,,,,,,
336903,1564151684324,-1,2.4,0.94,0.3,1.42,1.08,0.79,0.0,0.5,2,1,1,0.79,3912,6,94,44,55,959,206.0,296,456,60,123.0,160,1,166,224,33,0,0,206,250,-1533,206,-5.59,,,,,,,,,,,,
336923,1564151684344,3,2.4,0.94,0.3,1.43,1.08,0.84,-0.02,0.53,2,0,1,0.84,3896,6,94,44,55,959,207.0,298,472,60,123.0,160,1,165,223,33,0,0,204,250,966,206,181.28,,,,,,,,,,,,
336943,1564151684364,-1,2.4,0.94,0.31,1.43,1.08,0.83,0.01,0.52,2,1,1,0.83,3935,6,94,44,55,958,206.0,292,455,60,122.0,160,1,167,153,33,0,0,204,250,966,206,-5.59,44.68084,10.024583,20.46,174.3,0,0.0,-1,0.0,0.0,0,2.29,5.6157
336963,1564151684384,-1,2.4,0.94,0.31,1.43,1.08,0.86,-0.02,0.55,3,-2,2,0.86,3893,6,94,44,55,958,206.0,305,468,60,120.0,160,1,165,223,33,0,0,204,-1480,250,206,-5.59,,,,,,,,,,,,
336983,1564151684404,0,2.41,0.93,0.31,1.44,1.08,0.86,-0.02,0.55,3,0,2,0.86,3874,6,94,44,55,958,204.0,290,464,60,122.0,160,1,164,223,33,0,0,204,-1480,250,204,181.28,,,,,,,,,,,,
337003,1564151684424,-1,2.41,0.94,0.31,1.43,1.08,0.84,-0.0,0.55,3,-1,3,0.84,3914,6,94,44,55,957,205.0,302,460,60,123.0,160,1,166,224,33,0,0,204,14412,250,205,-5.59,,,,,,,,,,,,
337023,1564151684444,3,2.41,0.94,0.31,1.42,1.09,0.86,-0.02,0.58,4,-2,3,0.86,3909,6,94,44,55,957,205.0,296,471,60,123.0,160,1,166,152,33,0,0,204,14412,-1533,205,-5.59,,,,,,,,,,,,
337043,1564151684464,-1,2.42,0.94,0.31,1.43,1.09,0.82,-0.01,0.57,4,-1,3,0.82,3887,6,94,44,55,956,205.0,289,463,60,123.0,160,1,165,223,33,0,0,202,14412,966,205,-5.59,44.680836,10.024576,20.43,174.4,0,0.0,-1,0.0,0.0,0,2.29,5.6174
337063,1564151684484,-1,2.41,0.93,0.31,1.43,1.07,0.84,-0.04,0.57,4,-3,4,0.84,3877,6,94,44,55,955,205.0,300,461,60,120.0,156,1,165,223,32,0,0,201,250,-1533,205,-5.59,,,,,,,,,,,,
337083,1564151684504,-1,2.42,0.94,0.31,1.43,1.08,0.81,-0.06,0.54,4,-1,4,0.82,3878,6,94,44,55,954,204.0,288,466,60,123.0,156,1,165,223,32,0,0,202,19456,-14848,204,181.28,,,,,,,,,,,,
337103,1564151684524,-1,2.41,0.94,0.31,1.43,1.08,0.8,-0.06,0.56,4,-3,4,0.8,3867,6,94,44,55,953,203.0,296,459,60,121.0,156,1,164,151,32,0,0,201,19456,-14848,203,-5.59,,,,,,,,,,,,
337123,1564151684544,2,2.41,0.94,0.31,1.44,1.08,0.81,-0.09,0.55,4,-2,4,0.82,3851,6,94,44,55,952,204.0,297,470,60,122.0,156,1,164,223,32,0,0,202,250,-14848,204,-5.59,,,,,,,,,,,,
337143,1564151684564,-0,2.42,0.94,0.31,1.43,1.08,0.79,-0.06,0.53,4,-1,5,0.79,3881,6,94,44,55,952,204.0,292,454,60,123.0,156,1,165,223,32,0,0,201,-1481,-14848,204,-5.59,44.680836,10.024569,20.39,174.4,0,0.0,-1,0.0,0.0,0,2.29,5.6191
337163,1564151684584,2,2.43,0.94,0.31,1.43,1.08,0.81,-0.07,0.54,4,-1,5,0.81,3872,6,94,44,55,952,204.0,299,466,60,120.0,156,1,164,223,32,0,0,201,-1481,-1482,203,-5.59,,,,,,,,,,,,
337183,1564151684604,-2,2.43,0.94,0.31,1.43,1.09,0.81,-0.06,0.53,4,-0,5,0.81,3846,6,94,44,55,952,203.0,291,457,60,123.0,156,1,163,150,32,0,0,201,-1481,13964,203,-5.59,,,,,,,,,,,,
337203,1564151684624,-1,2.42,0.94,0.31,1.44,1.08,0.81,-0.07,0.55,5,-2,6,0.81,3882,6,94,44,55,953,202.0,298,453,60,121.0,156,1,165,223,32,0,0,200,250,250,202,-5.59,,,,,,,,,,,,
337223,1564151684644,1,2.43,0.94,0.31,1.43,1.09,0.8,-0.08,0.52,5,-0,6,0.81,3898,6,94,44,55,953,203.0,295,470,60,122.0,156,1,165,223,32,0,0,199,14326,-1482,203,414.87,,,,,,,,,,,,
337243,1564151684664,-0,2.43,0.94,0.31,1.43,1.08,0.78,-0.04,0.54,5,-1,6,0.78,3854,6,94,44,55,954,202.0,292,454,60,123.0,156,1,164,223,32,0,0,200,-1481,250,202,-5.59,44.680832,10.024563,20.07,174.4,0,0.0,-1,0.0,0.0,0,2.29,5.6207
337263,1564151684684,3,2.42,0.94,0.3,1.43,1.08,0.82,-0.05,0.55,5,-0,6,0.83,3823,6,94,44,55,955,203.0,295,472,60,121.0,158,1,162,222,32,0,0,198,14326,250,203,-5.59,,,,,,,,,,,,
337283,1564151684705,-1,2.43,0.94,0.31,1.44,1.08,0.83,-0.02,0.53,5,-0,6,0.83,3879,6,94,44,55,955,203.0,291,457,60,122.0,158,1,165,223,32,0,0,200,14326,-29696,203,-5.59,,,,,,,,,,,,
337303,1564151684725,-0,2.43,0.94,0.31,1.43,1.09,0.84,-0.05,0.54,5,-1,7,0.84,3888,6,94,44,55,956,202.0,299,465,60,121.0,158,1,165,223,32,0,0,199,14326,13964,202,-5.59,,,,,,,,,,,,
337323,1564151684745,-0,2.43,0.94,0.31,1.44,1.08,0.82,-0.06,0.54,5,-1,6,0.82,3858,6,94,44,55,955,202.0,291,461,60,122.0,158,1,164,223,32,0,0,198,-2560,13964,202,-5.59,,,,,,,,,,,,
337343,1564151684765,-2,2.44,0.94,0.31,1.42,1.09,0.8,-0.08,0.55,6,-2,7,0.8,3857,6,94,44,55,954,201.0,298,461,60,121.0,158,1,164,151,32,0,0,197,250,-1482,202,-5.59,44.680832,10.024555,20.11,174.4,0,0.0,-1,0.0,0.0,0,2.29,5.6224
337363,1564151684785,1,2.45,0.94,0.3,1.43,1.08,0.78,-0.08,0.53,6,-0,7,0.79,3881,6,94,44,55,954,201.0,295,467,60,122.0,158,1,165,223,32,0,0,196,250,13964,201,181.28,,,,,,,,,,,,
337383,1564151684804,-1,2.45,0.94,0.31,1.43,1.08,0.78,-0.05,0.54,6,-1,7,0.78,3878,6,94,44,55,953,202.0,296,455,60,122.0,158,1,165,223,32,0,0,196,-2560,13964,202,-5.59,,,,,,,,,,,,
337403,1564151684824,1,2.45,0.94,0.31,1.42,1.08,0.81,-0.08,0.56,6,-1,7,0.82,3850,6,94,44,55,952,201.0,302,469,60,121.0,158,1,164,222,32,0,0,198,250,-29696,201,-5.59,,,,,,,,,,,,
337423,1564151684844,-1,2.47,0.94,0.31,1.43,1.09,0.8,-0.08,0.55,6,0,7,0.81,3847,6,94,44,55,951,202.0,292,461,60,122.0,158,1,163,150,32,0,0,198,-1281,-1482,202,-5.59,,,,,,,,,,,,
337443,1564151684864,-0,2.47,0.94,0.31,1.43,1.08,0.81,-0.08,0.57,6,-0,8,0.81,3823,6,94,44,55,951,201.0,300,466,60,120.0,158,1,162,222,32,0,0,196,-1281,-29696,201,-5.59,44.680828,10.024549,20.02,174.4,0,0.0,-1,0.0,0.0,0,2.29,5.6241
337463,1564151684884,-1,2.47,0.94,0.31,1.43,1.08,0.81,-0.06,0.54,7,1,7,0.81,3764,6,94,44,56,950,201.0,286,458,60,123.0,154,1,160,221,31,0,0,195,-1,250,201,181.28,,,,,,,,,,,,
337483,1564151684904,-0,2.48,0.94,0.31,1.43,1.08,0.79,-0.07,0.57,7,-1,9,0.79,3786,6,94,44,56,950,201.0,293,464,60,120.0,154,1,161,226,31,0,0,195,-1,13964,201,-5.59,,,,,,,,,,,,
337503,1564151684924,-0,2.5,0.94,0.3,1.43,1.09,0.77,-0.08,0.55,7,1,9,0.77,3792,6,94,44,56,952,202.0,285,470,60,123.0,154,1,161,226,31,0,0,194,-1,250,202,181.28,,,,,,,,,,,,
337523,1564151684944,-0,2.5,0.94,0.31,1.43,1.08,0.76,-0.1,0.61,8,-1,9,0.77,3725,6,94,44,56,955,203.0,292,463,60,121.0,154,1,159,153,31,0,0,194,-1,-29696,203,-5.59,,,,,,,,,,,,
337543,1564151684964,-0,2.52,0.94,0.31,1.43,1.08,0.75,-0.12,0.57,8,1,8,0.76,3728,6,94,44,57,959,203.0,281,471,60,122.0,154,1,159,229,31,0,0,194,-1,-29696,203,181.28,44.680828,10.024543,19.68,174.4,0,0.0,-1,0.0,0.0,0,2.29,5.6257
337563,1564151684984,-2,2.53,0.94,0.31,1.43,1.08,0.76,-0.14,0.62,8,-0,9,0.77,3739,6,94,44,57,961,202.0,291,457,60,120.0,156,1,159,230,32,0,0,193,-1,-1482,202,-5.59,,,,,,,,,,,,
337583,1564151684996,-2,2.55,0.94,0.31,1.43,1.08,0.74,-0.15,0.56,9,2,9,0.76,3693,6,94,44,57,964,204.0,280,471,60,122.0,156,1,157,228,32,0,0,193,-1,250,204,181.28,,,,,,,,,,,,
337603,1564151685016,3,2.56,0.94,0.31,1.43,1.08,0.78,-0.16,0.6,9,1,11,0.8,3656,6,94,44,57,966,204.0,289,460,60,120.0,156,1,156,228,32,0,0,193,-1,250,204,-5.59,,,,,,,,,,,,
337623,1564151685036,-1,2.59,0.94,0.31,1.43,1.09,0.78,-0.17,0.58,10,1,11,0.8,3646,6,94,44,58,966,205.0,278,462,60,123.0,156,1,156,227,32,0,0,193,-1,-14848,205,-5.59,,,,,,,,,,,,
337643,1564151685056,2,2.6,0.94,0.31,1.43,1.08,0.8,-0.21,0.61,11,2,11,0.83,3630,6,94,44,58,966,205.0,280,472,60,122.0,156,1,155,231,32,0,0,190,-1,250,205,181.28,44.680824,10.024535,19.65,174.4,0,0.0,-1,0.0,0.0,0,2.29,5.6274
337663,1564151685076,-1,2.62,0.94,0.31,1.43,1.08,0.8,-0.21,0.62,12,-1,13,0.83,3638,6,94,44,58,966,206.0,285,453,60,121.0,150,1,155,232,31,0,0,187,-1,250,206,-5.59,,,,,,,,,,,,
337683,1564151685104,-0,2.64,0.94,0.31,1.44,1.09,0.8,-0.23,0.57,12,2,13,0.83,3618,6,94,44,59,967,206.0,277,472,60,122.0,150,1,154,235,31,0,0,188,-1,966,206,181.28,,,,,,,,,,,,
337703,1564151685124,3,2.66,0.95,0.31,1.43,1.09,0.82,-0.26,0.61,13,-1,15,0.86,3574,6,94,44,59,968,206.0,282,456,60,120.0,150,1,152,234,31,0,0,185,-1,13964,206,-5.59,,,,,,,,,,,,
337723,1564151685144,-2,2.69,0.94,0.31,1.43,1.09,0.82,-0.27,0.58,14,0,15,0.86,3563,6,94,44,59,969,207.0,273,465,60,122.0,150,1,152,233,31,0,0,185,-1,966,207,-5.59,,,,,,,,,,,,
337743,1564151685164,-1,2.71,0.94,0.31,1.43,1.09,0.83,-0.3,0.58,15,1,16,0.88,3531,6,94,44,60,970,208.0,274,465,60,122.0,150,1,151,236,31,0,0,185,-1,966,208,181.28,44.680824,10.024529,19.78,174.4,0,0.0,-1,0.0,0.0,0,2.29,5.6291
337763,1564151685184,-0,2.71,0.95,0.31,1.43,1.08,0.85,-0.33,0.62,16,-2,18,0.91,3532,6,94,44,60,972,208.0,280,457,60,121.0,149,1,151,236,31,0,0,183,-1,250,208,-5.59,,,,,,,,,,,,
337783,1564151685203,-1,2.74,0.94,0.31,1.43,1.09,0.82,-0.33,0.58,17,0,18,0.88,3549,6,94,44,60,972,209.0,267,470,60,121.0,149,1,151,237,31,0,0,181,-236,250,209,181.28,,,,,,,,,,,,
337803,1564151685223,0,2.75,0.94,0.3,1.43,1.09,0.85,-0.34,0.6,18,1,20,0.91,3529,6,94,44,61,972,210.0,278,464,60,120.0,149,1,151,241,31,0,0,180,5134,966,210,-5.59,,,,,,,,,,,,
337823,1564151685243,-1,2.75,0.95,0.31,1.43,1.08,0.85,-0.35,0.59,18,-3,21,0.91,3535,6,94,44,61,971,209.0,273,453,60,122.0,149,1,151,242,31,0,0,179,5134,966,209,-5.59,,,,,,,,,,,,
337843,1564151685263,-2,2.77,0.94,0.31,1.43,1.08,0.84,-0.34,0.54,19,1,22,0.91,3505,6,94,44,61,971,210.0,270,468,60,122.0,149,1,150,241,31,0,0,177,3584,966,210,-5.59,44.680824,10.024522,19.71,174.4,0,0.0,-1,0.0,0.0,0,2.29,5.6307
337863,1564151685283,2,2.77,0.95,0.31,1.44,1.08,0.85,-0.35,0.55,20,-0,24,0.92,3493,6,94,44,61,970,211.0,272,465,60,121.0,153,1,0,241,32,0,0,178,3584,250,211,-5.59,,,,,,,,,,,,
337883,1564151685303,-1,2.78,0.93,0.3,1.43,1.08,0.86,-0.36,0.53,21,-2,26,0.93,3498,6,94,44,61,969,210.0,273,460,60,123.0,153,1,0,241,32,0,0,176,3584,250,210,-5.59,,,,,,,,,,,,
337903,1564151685323,-1,2.8,0.94,0.31,1.43,1.09,0.84,-0.36,0.48,21,0,26,0.92,3483,6,94,44,62,968,210.0,266,473,60,123.0,153,1,0,243,32,0,0,176,250,250,210,-5.59,,,,,,,,,,,,
337923,1564151685343,-0,2.82,0.94,0.31,1.43,1.08,0.86,-0.36,0.5,22,-0,28,0.93,3416,6,94,44,62,968,210.0,271,463,60,121.0,153,1,0,243,32,0,0,174,250,250,210,414.87,,,,,,,,,,,,
337943,1564151685363,2,2.81,0.95,0.31,1.43,1.08,0.89,-0.38,0.52,23,-3,29,0.96,3318,6,94,44,63,969,210.0,273,458,60,120.0,153,1,0,246,32,0,0,174,10620,-14848,210,-5.59,44.680824,10.024515,19.47,174.4,0,0.0,-1,0.0,0.0,0,2.3,5.6324
337963,1564151685383,1,2.83,0.94,0.31,1.43,1.08,0.86,-0.39,0.5,24,-4,30,0.95,3267,6,94,44,63,969,211.0,262,462,60,121.0,142,1,0,249,30,0,0,174,10620,250,211,-5.59,,,,,,,,,,,,
337983,1564151685403,-1,2.83,0.94,0.32,1.43,1.08,0.86,-0.38,0.45,25,-3,31,0.94,3222,6,94,44,64,972,210.0,256,467,60,123.0,142,1,0,249,30,0,0,170,31744,-29696,210,-5.59,,,,,,,,,,,,
338003,1564151685423,-0,2.83,0.94,0.31,1.44,1.08,0.86,-0.4,0.4,25,-1,31,0.95,3222,6,94,44,65,974,209.0,252,468,60,121.0,142,1,167,251,30,0,0,168,-1281,13964,209,-5.59,,,,,,,,,,,,
338023,1564151685443,-1,2.84,0.95,0.31,1.44,1.08,0.9,-0.4,0.38,26,1,31,0.98,3273,6,94,44,66,978,206.0,257,463,60,121.0,142,1,0,254,30,0,0,166,-1,250,206,-5.59,,,,,,,,,,,,
338043,1564151685463,0,2.84,0.94,0.31,1.43,1.08,0.92,-0.41,0.39,26,-2,33,1.01,3394,6,94,44,66,979,204.0,262,462,60,123.0,142,1,0,254,30,0,0,161,-1,14412,204,-5.59,44.680824,10.024508,19.19,174.4,0,0.0,-1,0.0,0.0,0,2.3,5.634
338063,1564151685483,-2,2.86,0.94,0.31,1.43,1.09,0.93,-0.43,0.39,26,-3,34,1.02,3487,6,94,44,65,984,201.0,268,455,60,120.0,163,1,167,251,33,0,0,161,-253,-1481,201,-5.59,,,,,,,,,,,,
338083,1564151685505,-1,2.85,0.95,0.31,1.43,1.08,0.87,-0.42,0.36,26,2,34,0.97,3527,6,94,44,65,993,200.0,266,473,60,122.0,163,1,167,252,33,0,0,161,250,250,200,-5.59,,,,,,,,,,,,
338103,1564151685525,1,2.86,0.95,0.31,1.43,1.08,0.89,-0.42,0.39,27,1,35,0.98,3505,6,94,44,65,999,200.0,275,457,60,122.0,163,1,167,252,33,0,0,160,-1494,19456,200,-5.59,,,,,,,,,,,,
338123,1564151685545,-1,2.86,0.95,0.31,1.43,1.08,0.86,-0.41,0.39,27,-1,36,0.95,3501,6,94,44,65,1003,201.0,276,461,60,124.0,163,1,167,251,33,0,0,158,3072,19456,201,-5.59,,,,,,,,,,,,
338143,1564151685565,-1,2.86,0.95,0.31,1.43,1.08,0.85,-0.41,0.37,27,2,36,0.94,3578,6,94,44,65,1009,200.0,268,472,60,122.0,163,1,169,254,33,0,0,159,10764,14412,200,181.28,44.680824,10.024502,18.83,174.4,0,0.0,-1,0.0,0.0,0,2.3,5.6357
338163,1564151685585,2,2.88,0.95,0.31,1.43,1.08,0.88,-0.41,0.39,28,-0,37,0.97,3619,6,94,44,64,1015,200.0,282,458,60,120.0,170,1,166,183,34,0,0,158,250,19456,200,-5.59,,,,,,,,,,,,
338183,1564151685603,-1,2.88,0.94,0.31,1.44,1.08,0.87,-0.42,0.38,28,1,38,0.97,3600,6,94,44,63,1020,198.0,272,462,60,123.0,170,1,162,179,34,0,0,158,250,19456,198,-5.59,,,,,,,,,,,,
338203,1564151685623,3,2.88,0.95,0.31,1.43,1.08,0.86,-0.42,0.4,29,-0,38,0.96,3642,6,94,44,63,1021,198.0,279,463,60,123.0,170,1,164,180,34,0,0,156,250,250,199,-5.59,,,,,,,,,,,,
338223,1564151685643,0,2.89,0.94,0.31,1.43,1.09,0.83,-0.41,0.37,29,-0,39,0.93,3663,6,94,44,62,1019,198.0,278,456,60,123.0,170,1,161,251,34,0,0,156,-1281,250,198,-5.59,,,,,,,,,,,,
338243,1564151685663,2,2.9,0.94,0.31,1.43,1.09,0.87,-0.44,0.38,29,2,39,0.97,3667,6,94,44,62,1007,198.0,281,470,60,121.0,170,1,161,249,34,0,0,155,-1281,14326,199,-5.59,44.680824,10.024495,18.21,174.5,0,0.0,-1,0.0,0.0,0,2.3,5.6374
338263,1564151685683,-1,2.9,0.94,0.31,1.43,1.08,0.85,-0.43,0.38,30,-1,40,0.95,3699,6,94,44,62,997,199.0,281,455,60,123.0,170,1,162,249,34,0,0,156,-1281,250,199,-5.59,,,,,,,,,,,,
338283,1564151685703,1,2.9,0.95,0.31,1.44,1.08,0.81,-0.43,0.39,30,2,40,0.92,3730,6,94,44,61,989,198.0,280,472,60,123.0,170,1,161,247,34,0,0,155,-1281,-1481,198,414.87,,,,,,,,,,,,
338303,1564151685723,-2,2.91,0.95,0.31,1.43,1.08,0.79,-0.4,0.46,30,-0,41,0.88,3656,6,94,44,61,979,199.0,283,454,60,120.0,170,1,157,174,34,0,0,156,-1,-1481,199,-5.59,,,,,,,,,,,,
338323,1564151685743,-1,2.91,0.94,0.31,1.43,1.08,0.79,-0.39,0.43,30,2,39,0.88,3563,6,94,44,61,970,199.0,276,472,60,122.0,170,1,153,242,34,0,0,164,250,19456,199,181.28,,,,,,,,,,,,
338343,1564151685763,-0,2.91,0.94,0.31,1.43,1.09,0.79,-0.43,0.49,30,3,40,0.9,3458,6,94,44,62,965,199.0,273,465,60,121.0,170,1,154,243,34,0,0,165,10764,250,199,-5.59,44.680824,10.024488,18.1,174.4,0,0.0,-1,0.0,0.0,0,2.3,5.639
338363,1564151685783,2,2.9,0.95,0.31,1.44,1.08,0.82,-0.39,0.52,30,-0,41,0.91,3206,6,94,44,62,969,202.0,269,459,60,120.0,148,1,0,243,30,0,0,166,250,-1480,202,-5.59,,,,,,,,,,,,
338383,1564151685803,2,2.9,0.94,0.31,1.43,1.09,0.86,-0.38,0.54,30,-3,42,0.94,3070,6,94,44,63,976,203.0,259,462,60,120.0,148,1,0,246,30,0,0,162,250,13874,203,-5.59,,,,,,,,,,,,
338403,1564151685823,1,2.91,0.95,0.31,1.43,1.08,0.87,-0.38,0.51,31,-6,42,0.95,2962,6,94,44,64,989,204.0,253,461,60,119.0,148,1,0,249,30,0,0,158,-1494,-1480,204,-5.59,,,,,,,,,,,,
338423,1564151685843,-0,2.91,0.94,0.31,1.43,1.09,0.89,-0.42,0.52,31,-8,42,0.99,2848,6,94,44,65,999,204.0,246,464,60,122.0,148,1,163,251,30,0,0,158,3072,-1480,204,-5.59,,,,,,,,,,,,
338443,1564151685863,-1,2.9,0.95,0.31,1.43,1.08,0.91,-0.44,0.53,32,-9,43,1.01,2794,6,94,44,66,1011,203.0,239,457,60,124.0,148,1,0,254,30,0,0,159,10764,250,203,181.28,44.680824,10.024484,18.04,174.4,0,0.0,-1,0.0,0.0,0,2.3,5.6407
338463,1564151685883,-1,2.9,0.95,0.31,1.43,1.08,0.89,-0.47,0.55,32,-8,43,1.01,2750,6,94,44,67,1019,204.0,231,467,60,122.0,127,1,167,257,26,0,0,157,3072,250,204,181.28,,,,,,,,,,,,
338483,1564151685905,-2,2.9,0.95,0.31,1.43,1.09,0.9,-0.46,0.51,32,-5,43,1.01,2678,6,94,44,68,1032,204.0,226,463,60,124.0,127,1,0,260,26,0,0,158,3072,-1480,204,181.28,,,,,,,,,,,,
338503,1564151685925,0,2.9,0.95,0.31,1.43,1.08,0.92,-0.47,0.43,32,-6,43,1.04,2588,6,94,44,69,1048,204.0,224,465,60,122.0,127,1,161,259,26,0,0,157,3072,250,204,-5.59,,,,,,,,,,,,
338523,1564151685945,-0,2.91,0.95,0.31,1.43,1.08,1.0,-0.48,0.39,32,-10,43,1.11,2670,6,94,44,70,1051,202.0,226,460,60,123.0,127,1,163,257,26,0,0,154,250,-1,202,-5.59,,,,,,,,,,,,
338543,1564151685965,-1,2.92,0.95,0.31,1.43,1.08,0.97,-0.48,0.42,32,-13,44,1.09,2727,6,94,44,71,1054,195.0,226,461,60,124.0,127,1,0,256,26,0,0,149,-1,-1,195,181.28,44.680828,10.024477,18.03,174.4,0,0.0,-1,0.0,0.0,0,2.3,5.6424
338563,1564151685985,-0,2.91,0.95,0.3,1.43,1.09,0.94,-0.47,0.42,31,-11,44,1.05,2909,6,94,44,71,1060,192.0,230,462,60,123.0,140,1,0,256,27,0,0,148,-1,-1,192,181.28,,,,,,,,,,,,
338583,1564151685997,-0,2.92,0.95,0.31,1.43,1.09,0.94,-0.45,0.38,31,-8,43,1.04,3032,6,94,44,71,1064,191.0,237,462,60,122.0,140,1,0,257,27,0,0,144,-1281,5134,191,414.87,,,,,,,,,,,,
338603,1564151686017,-0,2.92,0.94,0.31,1.43,1.08,0.96,-0.44,0.38,31,-9,43,1.06,3175,6,94,44,71,1064,189.0,244,461,60,122.0,140,1,180,260,27,0,0,142,-1,5134,189,-5.59,,,,,,,,,,,,
338623,1564151686037,1,2.93,0.94,0.31,1.43,1.08,0.99,-0.44,0.39,31,-11,43,1.09,3288,6,94,44,70,1065,186.0,253,455,60,121.0,140,1,180,261,27,0,0,143,-1,-1,186,-5.59,,,,,,,,,,,,
338643,1564151686057,-0,2.94,0.95,0.3,1.42,1.08,0.99,-0.42,0.36,31,-12,44,1.08,3293,6,94,44,70,1065,185.0,255,458,60,121.0,140,1,0,261,27,0,0,142,-1,-1,185,-5.59,44.680828,10.024471,18.1,174.4,0,0.0,-1,0.0,0.0,0,2.3,5.6441
338663,1564151686077,-0,2.94,0.94,0.3,1.43,1.08,0.93,-0.4,0.32,31,-9,44,1.01,3254,6,94,44,70,1064,186.0,252,467,60,122.0,172,1,180,260,32,0,0,141,-1,-1,186,-5.59,,,,,,,,,,,,
338683,1564151686104,-0,2.96,0.95,0.3,1.44,1.08,0.93,-0.42,0.31,31,-4,42,1.02,3190,6,94,44,70,1062,187.0,248,473,60,120.0,172,1,0,260,32,0,0,141,-1,-1,187,-5.59,,,,,,,,,,,,
338703,1564151686124,-0,2.96,0.95,0.31,1.43,1.08,0.93,-0.42,0.33,32,-2,42,1.03,3142,6,94,44,70,1060,186.0,247,462,60,123.0,172,1,0,260,32,0,0,140,-1,-1,186,181.28,,,,,,,,,,,,
338723,1564151686144,-1,2.96,0.95,0.31,1.44,1.08,0.92,-0.42,0.34,32,-1,42,1.02,3112,6,94,44,70,1045,185.0,248,458,60,122.0,172,1,180,259,32,0,0,139,-1,5134,185,414.87,,,,,,,,,,,,
338743,1564151686164,-0,2.96,0.95,0.31,1.44,1.08,0.9,-0.43,0.4,32,-1,42,0.99,3051,6,94,44,70,1022,185.0,246,461,60,123.0,172,1,0,257,32,0,0,137,-1,-1,185,181.28,44.680832,10.024467,16.57,174.4,0,0.0,-1,0.0,0.0,0,2.3,5.6457
338763,1564151686184,-0,2.96,0.95,0.31,1.44,1.09,0.86,-0.43,0.41,33,-1,42,0.96,2975,6,94,44,70,1009,184.0,242,463,60,122.0,157,1,0,257,29,0,0,138,-236,-1,184,181.28,,,,,,,,,,,,
338783,1564151686204,-1,2.97,0.95,0.3,1.43,1.08,0.83,-0.43,0.41,33,-0,42,0.94,2914,6,94,44,71,992,184.0,238,462,60,123.0,157,1,175,256,29,0,0,137,-236,3584,184,181.28,,,,,,,,,,,,
338803,1564151686224,-0,2.96,0.95,0.31,1.43,1.08,0.81,-0.43,0.4,33,1,42,0.91,2854,6,94,44,71,968,183.0,233,462,60,123.0,157,1,0,256,29,0,0,138,-236,-1,183,181.28,,,,,,,,,,,,
338823,1564151686244,-0,2.96,0.95,0.31,1.43,1.08,0.81,-0.42,0.39,32,3,42,0.91,2804,6,94,44,71,953,183.0,233,465,60,122.0,157,1,0,256,29,0,0,137,-236,5134,183,-5.59,,,,,,,,,,,,
338843,1564151686264,2,2.96,0.95,0.31,1.43,1.08,0.83,-0.39,0.36,32,4,42,0.91,2727,11,94,44,71,940,183.0,233,464,60,122.0,157,1,165,256,29,0,0,136,5140,5134,183,-5.59,44.680836,10.024463,16.28,174.4,0,0.0,-1,0.0,0.0,0,2.3,5.6474
338863,1564151686284,-0,2.96,0.95,0.31,1.43,1.08,0.86,-0.39,0.36,32,0,43,0.94,2662,17,94,44,74,936,182.0,232,464,60,123.0,142,1,156,181,26,0,0,137,5140,5134,182,-5.59,,,,,,,,,,,,
338883,1564151686305,-1,2.96,0.95,0.31,1.43,1.08,0.85,-0.38,0.38,33,-3,42,0.94,2645,23,94,44,77,934,181.0,226,461,60,124.0,142,1,150,251,26,0,0,136,5140,-1495,181,181.28,,,,,,,,,,,,
338903,1564151686325,0,2.97,0.94,0.31,1.43,1.09,0.85,-0.36,0.39,32,-1,42,0.92,2702,33,94,44,81,934,181.0,223,464,60,123.0,142,1,152,264,26,0,0,135,5120,10620,179,181.28,,,,,,,,,,,,
338923,1564151686345,-1,2.97,0.95,0.31,1.43,1.09,0.88,-0.36,0.35,32,2,42,0.95,2874,46,94,44,86,936,178.0,225,468,60,124.0,142,1,167,284,26,0,0,132,-1281,-1,178,-5.59,,,,,,,,,,,,
338943,1564151686365,-1,2.97,0.95,0.31,1.43,1.09,0.9,-0.35,0.33,32,3,42,0.97,3013,55,94,44,91,940,176.0,231,469,60,123.0,142,1,187,299,26,0,0,132,-1,250,176,181.28,44.68084,10.024459,15.97,174.4,0,0.0,-1,0.0,0.0,0,2.3,5.649
338963,1564151686385,-0,2.97,0.95,0.31,1.43,1.08,0.9,-0.33,0.35,32,2,42,0.96,3080,61,94,44,94,944,175.0,237,466,60,122.0,274,1,210,460,48,0,0,130,-1,250,175,414.87,,,,,,,,,,,,
338983,1564151686404,0,2.97,0.94,0.31,1.43,1.09,0.88,-0.31,0.37,31,3,42,0.93,3115,62,94,44,95,947,175.0,242,462,60,122.0,274,1,217,502,48,0,0,131,-1,-1,175,-5.59,,,,,,,,,,,,
339003,1564151686424,0,2.96,0.95,0.31,1.44,1.08,0.89,-0.32,0.38,31,3,42,0.94,3063,62,94,44,95,949,175.0,242,458,60,125.0,274,1,217,498,48,0,0,129,-1,-1,175,181.28,,,,,,,,,,,,
339023,1564151686444,1,2.97,0.95,0.31,1.43,1.09,0.87,-0.32,0.41,31,1,43,0.93,3127,62,94,44,95,947,173.0,247,454,60,121.0,274,1,217,503,48,0,0,129,-1,-1,173,-5.59,,,,,,,,,,,,
339043,1564151686464,2,2.97,0.95,0.31,1.43,1.08,0.89,-0.32,0.43,32,-1,43,0.94,3321,62,94,44,95,944,173.0,254,451,60,123.0,274,1,217,461,48,0,0,129,-1,-253,173,-5.59,44.680843,10.024454,15.74,174.4,0,0.0,-1,0.0,0.0,0,2.3,5.6507
339063,1564151686484,0,2.97,0.94,0.31,1.43,1.09,0.88,-0.32,0.4,31,-1,42,0.93,3366,62,94,44,94,935,172.0,253,469,60,123.0,354,1,210,482,61,0,0,128,-1,-253,172,-5.59,,,,,,,,,,,,
339083,1564151686504,1,2.96,0.95,0.31,1.43,1.08,0.84,-0.32,0.35,31,2,41,0.9,3531,62,94,44,94,929,171.0,259,478,60,124.0,354,1,212,495,61,0,0,129,-1,-1,171,181.28,,,,,,,,,,,,
339103,1564151686524,3,2.97,0.95,0.31,1.43,1.09,0.81,-0.36,0.46,31,-1,42,0.89,3640,62,94,44,94,922,173.0,275,451,60,120.0,354,1,219,446,61,0,0,136,-1,-253,173,-5.59,,,,,,,,,,,,
339123,1564151686544,0,2.96,0.95,0.31,1.42,1.09,0.75,-0.38,0.45,31,1,41,0.84,3492,62,94,44,94,932,172.0,269,470,60,122.0,354,1,210,492,61,0,0,162,-1,31744,172,-5.59,,,,,,,,,,,,
339143,1564151686564,-0,2.97,0.95,0.31,1.43,1.09,0.7,-0.39,0.46,31,5,40,0.8,3237,55,94,44,94,1018,177.0,257,466,60,122.0,354,1,210,472,61,0,0,210,250,250,177,181.28,44.680847,10.024452,15.28,174.4,0,0.0,-1,0.0,0.0,0,2.3,5.6524
339163,1564151686584,0,2.96,0.95,0.31,1.43,1.09,0.73,-0.36,0.52,31,5,39,0.81,3198,45,94,44,94,1070,179.0,253,464,60,122.0,322,1,210,469,57,0,0,171,-1,5134,179,181.28,,,,,,,,,,,,
339183,1564151686604,-0,2.96,0.95,0.31,1.43,1.09,0.76,-0.37,0.64,30,4,40,0.85,3225,35,94,44,92,1147,180.0,255,457,60,123.0,322,1,195,393,57,0,0,144,-1,5134,180,-5.59,,,,,,,,,,,,
339203,1564151686624,3,2.92,0.95,0.31,1.43,1.08,0.77,-0.35,0.72,30,1,40,0.84,3224,29,94,44,90,1225,183.0,256,456,60,122.0,322,1,180,247,57,0,0,151,-1,-1,183,-5.59,,,,,,,,,,,,
339223,1564151686644,4,2.92,0.95,0.31,1.43,1.08,0.8,-0.36,0.7,31,-1,40,0.87,3226,25,94,44,88,1317,184.0,258,457,60,119.0,322,1,180,312,57,0,0,159,-1,-1,184,-5.59,,,,,,,,,,,,
339243,1564151686664,1,2.9,0.95,0.31,1.43,1.09,0.78,-0.37,0.64,31,-0,38,0.86,3219,23,94,44,87,1411,187.0,253,459,60,123.0,322,1,180,310,57,0,0,194,250,-1,187,-5.59,44.680847,10.024449,14.92,174.4,0,0.0,-1,0.0,0.0,0,2.3,5.654
339263,1564151686684,2,2.88,0.95,0.31,1.42,1.09,0.78,-0.35,0.6,30,2,38,0.86,3287,20,94,44,86,1435,187.0,250,473,60,123.0,203,1,180,313,38,0,0,196,-23552,-1,187,181.28,,,,,,,,,,,,
339283,1564151686704,3,2.87,0.95,0.31,1.43,1.09,0.74,-0.34,0.6,29,3,38,0.81,3352,15,94,44,84,1448,187.0,255,470,60,123.0,203,1,180,249,38,0,0,154,-23552,-1,187,-5.59,,,,,,,,,,,,
339303,1564151686724,5,2.86,0.95,0.31,1.43,1.09,0.75,-0.31,0.61,29,-0,38,0.82,3328,14,94,44,81,1465,189.0,262,456,60,121.0,203,1,180,300,38,0,0,158,23460,-1,189,-5.59,,,,,,,,,,,,
339323,1564151686744,6,2.86,0.95,0.31,1.43,1.09,0.77,-0.32,0.58,29,-2,38,0.83,3247,14,94,44,80,1478,191.0,260,458,60,123.0,203,1,180,288,38,0,0,162,-165,-1,191,-5.59,,,,,,,,,,,,
339343,1564151686764,3,2.85,0.94,0.32,1.43,1.08,0.77,-0.32,0.52,29,-3,38,0.83,3146,14,94,44,80,1476,191.0,255,462,60,122.0,203,1,180,281,38,0,0,167,-1,-1,191,-5.59,44.680851,10.024447,16.06,174.4,0,0.0,-1,0.0,0.0,0,2.3,5.6557
339363,1564151686784,3,2.84,0.95,0.31,1.44,1.09,0.77,-0.33,0.51,29,-1,38,0.83,3039,14,94,44,80,1472,191.0,251,462,60,123.0,167,1,180,274,32,0,0,157,-1,-1,191,-5.59,,,,,,,,,,,,
339383,1564151686804,4,2.84,0.95,0.31,1.43,1.1,0.74,-0.33,0.47,29,2,38,0.81,3083,14,94,44,80,1438,192.0,245,465,60,123.0,167,1,180,277,32,0,0,154,-1,-1,192,-5.59,,,,,,,,,,,,
339403,1564151686824,5,2.83,0.95,0.31,1.44,1.09,0.73,-0.33,0.46,30,5,37,0.8,3238,14,94,44,80,1417,192.0,247,463,60,123.0,167,1,180,288,32,0,0,153,-165,-1,191,-5.59,,,,,,,,,,,,
339423,1564151686844,5,2.84,0.95,0.31,1.43,1.09,0.76,-0.31,0.46,29,6,37,0.82,3290,14,94,44,79,1391,191.0,249,467,60,125.0,167,1,180,285,32,0,0,154,23460,-1,191,414.87,,,,,,,,,,,,
339443,1564151686864,6,2.84,0.95,0.31,1.43,1.09,0.82,-0.31,0.5,29,3,37,0.88,3282,14,94,44,79,1366,189.0,254,458,60,125.0,167,1,180,284,32,0,0,154,23460,-1,189,-5.59,44.680855,10.024445,17.21,174.4,0,0.0,-1,0.0,0.0,0,2.3,5.6574
339463,1564151686884,5,2.82,0.95,0.31,1.44,1.08,0.83,-0.32,0.48,29,-1,38,0.89,3415,14,94,44,78,1338,188.0,265,457,60,124.0,191,1,180,287,36,0,0,154,23460,-1,188,-5.59,,,,,,,,,,,,
339483,1564151686904,6,2.82,0.95,0.31,1.44,1.08,0.84,-0.3,0.41,29,2,37,0.9,3458,14,94,44,77,1309,186.0,260,463,60,125.0,191,1,180,283,36,0,0,149,250,-1,186,-5.59,,,,,,,,,,,,
339503,1564151686924,7,2.82,0.95,0.31,1.43,1.09,0.86,-0.32,0.4,28,2,37,0.92,3524,14,94,44,76,1298,183.0,268,472,60,125.0,191,1,180,280,36,0,0,147,-1,-1,183,181.28,,,,,,,,,,,,
339523,1564151686944,6,2.82,0.95,0.31,1.43,1.1,0.88,-0.34,0.4,28,0,37,0.94,3555,14,94,44,75,1294,181.0,273,451,60,123.0,191,1,181,279,36,0,0,147,-1,-1,181,-5.59,,,,,,,,,,,,
339543,1564151686964,6,2.81,0.95,0.32,1.43,1.09,0.88,-0.32,0.36,28,2,37,0.94,3572,14,94,44,75,1294,179.0,271,477,60,125.0,191,1,181,280,36,0,0,144,-1,250,177,181.28,44.680862,10.024445,17.42,174.3,0,0.0,-1,0.0,0.0,0,2.3,5.659
339563,1564151686984,8,2.81,0.95,0.31,1.43,1.09,0.92,-0.33,0.38,27,0,37,0.97,3637,14,94,44,74,1293,177.0,278,461,60,123.0,214,1,182,281,38,0,0,143,-1,3584,177,-5.59,,,,,,,,,,,,
339583,1564151686996,6,2.8,0.95,0.31,1.43,1.09,0.89,-0.31,0.33,27,0,37,0.94,3657,14,94,44,73,1296,175.0,275,463,60,125.0,214,1,183,280,38,0,0,141,-236,250,175,-5.59,,,,,,,,,,,,
339603,1564151687016,9,2.79,0.95,0.31,1.43,1.1,0.91,-0.3,0.35,26,1,36,0.96,3794,14,94,44,73,1299,173.0,285,471,60,124.0,214,1,186,284,38,0,0,141,5120,-1,171,-5.59,,,,,,,,,,,,
339623,1564151687036,8,2.78,0.95,0.3,1.42,1.08,0.92,-0.29,0.33,26,1,35,0.96,3876,22,94,44,73,1298,168.0,287,461,60,125.0,214,1,188,292,38,0,0,138,250,-1,168,-5.59,,,,,,,,,,,,
339643,1564151687056,8,2.77,0.95,0.31,1.44,1.09,0.95,-0.28,0.34,25,-1,36,0.99,3911,29,94,44,74,1297,167.0,296,473,60,123.0,214,1,190,297,38,0,0,137,-1,30720,167,-5.59,44.680866,10.024443,16.82,174.3,0,0.0,-1,0.0,0.0,0,2.3,5.6607
339663,1564151687076,11,2.75,0.95,0.31,1.43,1.08,0.95,-0.26,0.32,25,1,34,0.99,4035,31,94,44,76,1293,164.0,300,467,60,125.0,274,1,196,308,45,0,0,135,-1,250,164,181.28,,,,,,,,,,,,
339683,1564151687105,9,2.74,0.95,0.31,1.44,1.09,0.94,-0.24,0.32,25,1,34,0.97,4100,35,94,44,78,1286,160.0,302,457,60,123.0,274,1,203,333,45,0,0,134,-1,-1281,160,-5.59,,,,,,,,,,,,
339703,1564151687125,7,2.73,0.95,0.31,1.43,1.09,0.95,-0.25,0.28,24,-1,34,0.98,4148,35,94,44,80,1289,157.0,313,463,60,121.0,274,1,207,357,45,0,0,132,-1,-1,157,-5.59,,,,,,,,,,,,
339723,1564151687145,8,2.71,0.94,0.31,1.43,1.09,0.98,-0.26,0.31,23,-1,33,1.01,4253,35,94,44,82,1297,155.0,317,466,60,119.0,274,1,217,385,45,0,0,131,-1,-165,155,-5.59,,,,,,,,,,,,
339743,1564151687165,8,2.68,0.95,0.31,1.43,1.08,1.01,-0.26,0.33,22,-1,32,1.05,4420,35,94,44,83,1307,153.0,324,470,60,122.0,274,1,231,345,45,0,0,130,-1,250,153,-5.59,44.680866,10.024443,15.8,174.3,0,0.0,-1,0.0,0.0,0,2.3,5.6624
339763,1564151687185,9,2.67,0.95,0.31,1.43,1.08,1.06,-0.19,0.36,22,-0,31,1.08,4456,35,94,44,83,1323,149.0,331,467,60,121.0,456,1,234,412,68,0,0,129,-202,-1281,149,-5.59,,,,,,,,,,,,
339783,1564151687203,9,2.65,0.95,0.31,1.43,1.08,1.07,-0.15,0.42,21,-1,30,1.08,4678,36,94,44,84,1328,148.0,341,468,60,121.0,456,1,254,425,68,0,0,126,11264,-1,148,-5.59,,,,,,,,,,,,
339803,1564151687223,8,2.65,0.94,0.31,1.43,1.09,1.11,-0.13,0.39,20,-1,29,1.12,4834,36,94,44,84,1329,145.0,354,461,60,121.0,456,1,266,435,68,0,0,125,-1482,-1,141,-5.59,,,,,,,,,,,,
339823,1564151687243,11,2.64,0.94,0.31,1.42,1.09,1.09,-0.12,0.31,19,-2,28,1.1,5028,36,94,44,84,1326,139.0,353,463,60,123.0,456,1,281,444,68,0,0,123,13862,250,139,181.28,,,,,,,,,,,,
339843,1564151687263,9,2.61,0.94,0.31,1.43,1.08,1.07,-0.13,0.33,19,-0,26,1.08,5296,36,94,44,84,1310,137.0,379,462,60,121.0,456,1,297,448,68,0,0,122,250,-1,137,-5.59,44.68087,10.024443,14.53,174.3,0,0.0,-1,0.0,0.0,0,2.3,5.6641
339863,1564151687283,9,2.6,0.95,0.31,1.43,1.09,1.0,-0.11,0.27,18,-2,26,1.0,5545,33,94,44,82,1298,133.0,395,463,60,124.0,664,1,313,441,91,0,0,120,8192,-1,133,-5.59,,,,,,,,,,,,
339883,1564151687303,9,2.58,0.95,0.31,1.43,1.08,1.1,-0.05,0.24,17,-3,25,1.1,5824,26,94,44,79,1276,130.0,412,460,60,124.0,664,1,334,427,91,0,0,118,-1482,-1,130,-5.59,,,,,,,,,,,,
339903,1564151687323,7,2.58,0.94,0.31,1.43,1.08,1.19,-0.02,0.23,16,-4,24,1.19,6190,22,94,44,74,1259,127.0,433,460,60,123.0,664,1,357,392,91,0,0,116,-1482,-1,127,-5.59,,,,,,,,,,,,
339923,1564151687343,11,2.56,0.95,0.31,1.43,1.09,1.14,-0.1,0.33,15,-5,24,1.14,6508,20,94,44,70,1250,124.0,470,463,60,122.0,664,1,373,271,91,0,0,113,6656,13868,124,-5.59,,,,,,,,,,,,
339943,1564151687363,8,2.55,0.94,0.31,1.42,1.09,1.02,-0.04,0.33,14,-2,22,1.02,6567,20,94,44,66,1230,124.0,491,464,60,124.0,664,1,385,296,91,0,0,111,-1482,-1482,121,-5.59,44.680874,10.024443,13.41,174.3,0,0.0,-1,0.0,0.0,0,2.3,5.6657
339963,1564151687383,10,2.54,0.95,0.31,1.43,1.08,1.12,-0.06,0.35,14,-3,21,1.12,6730,19,94,44,64,1178,121.0,494,466,60,124.0,603,1,400,285,73,0,0,111,250,250,121,-5.59,,,,,,,,,,,,
339983,1564151687403,9,2.53,0.94,0.31,1.43,1.09,1.02,-0.07,0.35,13,-4,19,1.02,6934,19,94,44,60,1117,118.0,514,463,60,125.0,603,1,416,285,73,0,0,109,13838,250,118,-5.59,,,,,,,,,,,,
340003,1564151687423,10,2.53,0.94,0.31,1.43,1.09,1.12,-0.07,0.38,12,-3,19,1.12,7009,19,94,44,58,1073,115.0,528,465,60,123.0,603,1,409,277,73,0,0,107,-1482,13856,115,-5.59,,,,,,,,,,,,
340023,1564151687443,9,2.52,0.94,0.3,1.42,1.09,1.06,-0.05,0.28,12,-1,18,1.06,6991,18,94,44,56,1019,112.0,526,465,60,124.0,603,1,398,261,73,0,0,104,-1482,6656,112,-5.59,,,,,,,,,,,,
340043,1564151687463,10,2.5,0.94,0.31,1.43,1.09,1.02,-0.04,0.26,11,-2,17,1.02,7040,17,94,44,54,955,108.0,525,465,60,125.0,603,1,390,251,73,0,0,101,250,-1482,108,-5.59,44.680878,10.024443,12.46,174.3,0,0.0,-1,0.0,0.0,0,2.31,5.6674
340063,1564151687483,12,2.49,0.94,0.32,1.43,1.08,1.06,-0.08,0.43,10,-3,17,1.07,7033,17,94,44,53,901,105.0,529,466,60,123.0,601,1,387,246,65,0,0,101,-22528,-1482,105,-5.59,,,,,,,,,,,,
340083,1564151687503,9,2.47,0.94,0.31,1.42,1.09,1.12,-0.08,0.38,10,-1,16,1.12,7011,17,94,44,51,879,105.0,539,468,60,124.0,601,1,381,236,65,0,0,98,14312,250,105,-5.59,,,,,,,,,,,,
