"Interval"|"ms"|0|0|1,"Utc"|"ms"|0|0|1,"FB_p"|"bar"|0|300|50,"Volant"|"F"|0.0|300.0|50,"xFR"|"mm"|0.0|5.0|50,"xRR"|"mm"|0.0|5.0|50,"xFL"|"mm"|0.0|5.0|50,"xRL"|"mm"|0.0|5.0|50,"AccelX"|"G"|-3.0|3.0|50,"AccelY"|"G"|-3.0|3.0|50,"AccelZ"|"G"|-3.0|3.0|50,"Yaw"|"Deg/Sec"|-120|120|50,"Pitch"|"Deg/Sec"|-120|120|50,"Roll"|"Deg/Sec"|-120|120|50,"Gsum"|"G"|0.0|3.0|50,"RPM"|""|0|14000|50,"TPS"|"%"|0|100|50,"WaterTemp"|"?C"|0|300|50,"AirTemp"|"?C"|-1000|1000|50,"MAP"|"KPa"|0|255|50,"Lambda"|""|0|1024|50,"WheelSpeed"|"MPH"|0.0|150.0|50,"OilPress"|"PSI"|0|150|50,"FuelPress"|"PSI"|0|150|50,"OilTemp"|"F"|0|300|50,"Battery"|"Volts"|0.0|20.0|50,"FuelCon"|"L/h"|-1000|1000|50,"Gear"|""|0|10|50,"Advance"|"Deg"|-360|360|50,"Injection"|"ms"|-1000|1000|50,"FuelCon"|"L/100km"|-1000|1000|50,"LC_But_Pres"|""|-1000|1000|50,"LC_Active"|""|-1000|1000|50,"RD_Speed"|""|-1000|1000|50,"RUD_Speed"|""|-1000|1000|50,"LD_Speed"|""|-1000|1000|50,"LUD_Speed"|""|-1000|1000|50,"Ana1"|"bar"|-1000.0|1000.0|50,"Latitude"|"Degrees"|-180.0|180.0|10,"Longitude"|"Degrees"|-180.0|180.0|10,"Speed"|"kph"|0.0|150.0|10,"Altitude"|"m"|0.0|4000.0|10,"LapCount"|""|0|0|10,"LapTime"|"Min"|0.0|0.0|10,"Sector"|""|0|0|10,"SectorTime"|"Min"|0.0|0.0|10,"ElapsedTime"|"Min"|0.0|0.0|10,"CurrentLap"|""|0|0|10,"Distance"|"km"|0.0|0.0|10,"SessionTime"|"Min"|0.0|0.0|10
304063,1564153048763,-1,2.08,0.91,0.35,1.44,1.08,0.88,0.53,0.7,-25,0,-33,1.03,8577,13,101,43,40,1029,460.0,580,466,60,123.0,177,1,326,211,76,0,0,470,-23623,-18341,426,-5.59,,,,,,,,,,,,
304083,1564153048783,3,2.08,0.92,0.35,1.45,1.08,0.76,0.68,0.55,-25,-0,-31,1.02,8565,12,101,43,40,1030,458.0,590,465,60,123.0,161,1,326,211,69,0,0,471,17628,10305,427,-5.59,,,,,,,,,,,,
304103,1564153048803,1,2.08,0.92,0.35,1.45,1.08,0.8,0.81,0.55,-25,-2,-32,1.14,8538,9,101,43,40,1030,458.0,586,464,60,123.0,161,1,326,211,69,0,0,471,17628,3571,426,-5.59,,,,,,,,,,,,
304123,1564153048823,0,2.08,0.92,0.35,1.45,1.07,0.92,0.64,0.67,-25,-2,-32,1.12,8530,10,101,43,40,1025,459.0,603,464,60,123.0,161,1,326,211,69,0,0,468,2211,21432,427,-5.59,,,,,,,,,,,,
304143,1564153048843,3,2.09,0.92,0.35,1.45,1.07,0.83,0.7,0.53,-24,0,-31,1.08,8565,10,101,43,40,1020,460.0,588,465,60,124.0,161,1,326,211,69,0,0,473,-23623,21432,428,-5.59,44.6814,10.024747,43.54,174.3,0,0.0,-1,0.0,0.0,0,1.93,5.069
304163,1564153048863,2,2.1,0.92,0.35,1.45,1.08,0.8,0.83,0.5,-25,-2,-33,1.15,8581,19,101,43,40,1015,461.0,608,465,60,122.0,161,1,326,211,69,0,0,471,-18108,2131,429,-5.59,,,,,,,,,,,,
304183,1564153048883,1,2.1,0.91,0.35,1.45,1.07,0.89,0.8,0.64,-25,-0,-34,1.19,8600,15,101,43,40,1011,463.0,600,465,60,123.0,160,1,326,211,69,0,0,475,6193,10305,429,-5.59,,,,,,,,,,,,
304203,1564153048903,0,2.11,0.92,0.35,1.45,1.07,0.88,0.64,0.68,-25,1,-34,1.09,8585,10,101,43,40,1004,464.0,587,465,60,124.0,160,1,326,211,69,0,0,473,6193,2131,429,-5.59,,,,,,,,,,,,
304223,1564153048923,4,2.12,0.92,0.35,1.45,1.08,0.73,0.76,0.58,-24,-0,-34,1.06,8608,12,101,43,40,994,460.0,581,467,60,123.0,160,1,326,212,69,0,0,474,-23623,2131,428,-5.59,,,,,,,,,,,,
304243,1564153048943,2,2.13,0.93,0.35,1.46,1.08,0.67,0.88,0.57,-24,-1,-32,1.11,8636,13,101,43,40,988,461.0,581,463,60,124.0,160,1,326,212,69,0,0,473,2211,23400,431,-5.59,44.6814,10.024732,43.95,174.2,0,0.0,-1,0.0,0.0,0,1.93,5.0707
304263,1564153048963,1,2.12,0.92,0.35,1.46,1.07,0.81,0.8,0.63,-24,-0,-32,1.13,8620,9,101,43,40,983,461.0,592,466,60,123.0,160,1,326,210,69,0,0,474,2211,-8985,432,-5.59,,,,,,,,,,,,
304283,1564153048983,-0,2.13,0.93,0.35,1.46,1.08,0.91,0.58,0.63,-24,1,-32,1.08,8648,14,101,43,39,981,461.0,581,467,60,123.0,159,1,320,212,69,0,0,474,2211,8488,433,-5.59,,,,,,,,,,,,
304303,1564153048995,2,2.14,0.93,0.35,1.46,1.07,0.82,0.72,0.46,-23,1,-30,1.09,8640,21,101,43,39,980,461.0,588,464,60,124.0,159,1,320,212,69,0,0,474,2211,15649,434,-5.59,,,,,,,,,,,,
304323,1564153049015,2,2.13,0.92,0.35,1.46,1.08,0.76,0.85,0.45,-22,2,-31,1.14,8620,12,101,43,40,981,462.0,585,464,60,123.0,159,1,326,212,69,0,0,475,12552,-8985,434,-5.59,,,,,,,,,,,,
304343,1564153049035,1,2.13,0.92,0.35,1.46,1.08,0.89,0.65,0.6,-23,1,-32,1.1,8593,9,101,43,39,985,461.0,590,466,60,122.0,159,1,320,210,69,0,0,476,-23623,16648,434,-5.59,44.681396,10.024716,43.94,174.2,0,0.0,-1,0.0,0.0,0,1.93,5.0724
304363,1564153049055,-2,2.14,0.93,0.36,1.46,1.07,0.9,0.51,0.61,-23,2,-31,1.04,8596,5,101,43,39,985,461.0,587,467,60,124.0,159,1,320,210,69,0,0,474,2211,15649,436,-5.59,,,,,,,,,,,,
304383,1564153049075,3,2.13,0.93,0.35,1.46,1.08,0.7,0.66,0.49,-21,2,-29,0.96,8612,21,101,43,39,983,461.0,590,466,60,123.0,155,1,320,212,68,0,0,479,12552,-8985,436,-5.59,,,,,,,,,,,,
304403,1564153049103,1,2.13,0.92,0.35,1.46,1.08,0.7,0.79,0.46,-22,1,-29,1.06,8632,15,101,43,40,978,461.0,597,463,60,123.0,155,1,326,208,68,0,0,474,2211,-6387,436,-5.59,,,,,,,,,,,,
304423,1564153049123,2,2.12,0.93,0.35,1.46,1.08,0.82,0.69,0.58,-23,-0,-29,1.07,8688,9,101,43,39,972,462.0,598,468,60,124.0,155,1,320,210,68,0,0,472,-18108,-3267,436,-5.59,,,,,,,,,,,,
304443,1564153049143,1,2.12,0.93,0.36,1.45,1.08,0.93,0.47,0.63,-23,0,-30,1.04,8708,11,101,43,40,970,461.0,601,465,60,123.0,155,1,326,210,68,0,0,473,2211,-8985,435,-5.59,44.681393,10.024701,44.35,174.2,0,0.0,-1,0.0,0.0,0,1.94,5.074
304463,1564153049163,-0,2.11,0.93,0.36,1.46,1.07,0.89,0.42,0.51,-22,3,-28,0.98,8704,7,101,43,39,972,462.0,587,464,60,124.0,155,1,320,210,68,0,0,477,12552,2524,436,-5.59,,,,,,,,,,,,
304483,1564153049183,3,2.1,0.93,0.36,1.47,1.08,0.76,0.57,0.41,-22,2,-28,0.95,8696,13,101,43,39,976,460.0,582,467,60,123.0,158,1,320,210,69,0,0,473,2211,3571,436,-5.59,,,,,,,,,,,,
304503,1564153049203,1,2.09,0.93,0.35,1.45,1.07,0.73,0.72,0.46,-23,2,-29,1.02,8692,12,101,43,39,985,463.0,581,462,60,122.0,158,1,320,234,69,0,0,480,6193,17628,434,-5.59,,,,,,,,,,,,
304523,1564153049223,1,2.09,0.92,0.36,1.46,1.09,0.86,0.5,0.61,-24,1,-30,0.99,8648,21,101,43,39,992,463.0,578,467,60,123.0,158,1,320,230,69,0,0,476,16408,-26615,435,-5.59,,,,,,,,,,,,
304543,1564153049243,-1,2.09,0.93,0.35,1.46,1.08,0.9,0.35,0.69,-24,1,-30,0.97,8648,9,101,43,39,996,464.0,581,467,60,124.0,158,1,320,210,69,0,0,478,16408,-3267,435,-5.59,44.681389,10.024687,44.24,174.2,0,0.0,-1,0.0,0.0,0,1.94,5.0757
304563,1564153049263,2,2.09,0.93,0.35,1.46,1.08,0.75,0.5,0.51,-23,1,-27,0.9,8652,11,101,43,39,998,465.0,587,466,60,124.0,158,1,320,210,69,0,0,478,30272,-6387,434,-5.59,,,,,,,,,,,,
304583,1564153049283,1,2.08,0.93,0.35,1.47,1.08,0.66,0.65,0.37,-23,0,-26,0.93,8668,11,101,43,39,994,467.0,593,465,60,123.0,158,1,320,210,69,0,0,480,243,-9160,434,-5.59,,,,,,,,,,,,
304603,1564153049303,2,2.09,0.93,0.36,1.46,1.07,0.74,0.75,0.5,-25,-1,-28,1.05,8692,7,101,43,39,988,466.0,610,464,60,124.0,158,1,320,210,69,0,0,481,-3210,-8985,433,-5.59,,,,,,,,,,,,
304623,1564153049323,2,2.08,0.92,0.36,1.45,1.08,0.87,0.58,0.65,-26,-1,-29,1.04,8716,8,101,43,39,980,466.0,618,461,60,123.0,158,1,320,210,69,0,0,477,-3210,2524,434,-5.59,,,,,,,,,,,,
304643,1564153049343,-0,2.09,0.93,0.35,1.46,1.08,0.98,0.32,0.68,-27,-1,-30,1.03,8769,9,101,43,39,974,467.0,606,466,60,124.0,158,1,320,210,69,0,0,481,243,17628,434,-5.59,44.681381,10.024673,44.43,174.1,0,0.0,-1,0.0,0.0,0,1.94,5.0774
304663,1564153049363,-0,2.08,0.93,0.35,1.46,1.08,0.9,0.37,0.53,-25,0,-29,0.98,8773,14,101,43,39,971,467.0,600,467,60,122.0,158,1,320,210,69,0,0,479,243,-26615,434,-5.59,,,,,,,,,,,,
304683,1564153049383,3,2.08,0.93,0.35,1.46,1.08,0.75,0.53,0.38,-25,2,-29,0.92,8761,11,101,43,39,968,464.0,605,463,60,123.0,158,1,320,210,69,0,0,480,16408,14488,434,-5.59,,,,,,,,,,,,
304703,1564153049402,2,2.08,0.93,0.36,1.45,1.08,0.67,0.68,0.33,-25,0,-29,0.96,8729,14,101,43,39,967,464.0,590,462,60,123.0,158,1,320,210,69,0,0,479,16408,-9160,435,-5.59,,,,,,,,,,,,
304723,1564153049422,2,2.08,0.92,0.35,1.46,1.08,0.79,0.75,0.5,-26,-0,-32,1.09,8737,5,101,43,39,966,466.0,586,468,60,122.0,158,1,320,206,69,0,0,480,-3210,-26615,433,-5.59,,,,,,,,,,,,
304743,1564153049442,2,2.07,0.92,0.35,1.46,1.08,0.91,0.49,0.64,-26,-1,-32,1.03,8700,9,101,43,39,969,465.0,584,467,60,124.0,158,1,320,210,69,0,0,478,30272,-6387,435,-5.59,44.681381,10.024657,44.37,174.1,0,0.0,-1,0.0,0.0,0,1.94,5.0791
304763,1564153049462,-1,2.08,0.93,0.36,1.46,1.08,0.93,0.33,0.66,-26,0,-32,0.99,8704,7,101,43,39,970,466.0,579,466,60,123.0,158,1,320,210,69,0,0,479,30272,30272,433,-5.59,,,,,,,,,,,,
304783,1564153049482,2,2.08,0.93,0.35,1.45,1.08,0.73,0.5,0.51,-25,-0,-29,0.88,8712,12,101,43,39,972,467.0,586,467,60,123.0,158,1,320,210,69,0,0,479,243,14488,436,-5.59,,,,,,,,,,,,
304803,1564153049502,3,2.08,0.92,0.35,1.46,1.08,0.61,0.65,0.37,-25,-1,-28,0.89,8708,9,101,43,39,974,465.0,606,470,60,123.0,158,1,320,210,69,0,0,480,-16384,2524,435,-5.59,,,,,,,,,,,,
304823,1564153049522,2,2.08,0.93,0.35,1.45,1.07,0.61,0.78,0.39,-26,-4,-29,0.99,8733,13,101,43,39,974,469.0,594,461,60,123.0,158,1,320,210,69,0,0,484,10432,2524,435,-5.59,,,,,,,,,,,,
304843,1564153049542,0,2.08,0.93,0.35,1.46,1.08,0.75,0.67,0.52,-27,-3,-30,1.01,8753,8,101,43,39,975,469.0,602,466,60,123.0,158,1,320,210,69,0,0,483,10432,14488,434,-5.59,44.681374,10.024645,44.7,174.1,0,0.0,-1,0.0,0.0,0,1.94,5.0807
304863,1564153049562,-1,2.08,0.93,0.36,1.45,1.08,0.88,0.43,0.67,-27,-2,-32,0.98,8778,8,101,43,39,980,468.0,603,467,60,123.0,158,1,320,210,69,0,0,485,243,-26615,434,-5.59,,,,,,,,,,,,
304883,1564153049582,-0,2.07,0.93,0.36,1.45,1.08,0.84,0.33,0.57,-27,-1,-32,0.9,8765,10,101,43,39,984,467.0,604,464,60,123.0,177,1,320,233,77,0,0,482,243,-8985,435,-5.59,,,,,,,,,,,,
304903,1564153049602,3,2.06,0.93,0.35,1.46,1.08,0.64,0.46,0.43,-25,2,-31,0.79,8782,10,101,43,39,988,469.0,597,464,60,123.0,177,1,320,229,77,0,0,484,10432,14488,435,-5.59,,,,,,,,,,,,
304923,1564153049622,2,2.07,0.92,0.35,1.46,1.08,0.5,0.61,0.3,-25,0,-31,0.79,8794,16,101,43,39,992,469.0,590,468,60,122.0,177,1,320,225,77,0,0,479,10432,-23623,435,-5.59,,,,,,,,,,,,
304943,1564153049642,3,2.07,0.93,0.36,1.46,1.08,0.49,0.75,0.32,-25,0,-32,0.9,8782,10,101,43,39,996,469.0,595,461,60,123.0,177,1,320,221,77,0,0,483,10432,-6387,434,-5.59,44.681366,10.024632,44.88,174.1,0,0.0,-1,0.0,0.0,0,1.94,5.0824
304963,1564153049662,0,2.07,0.93,0.35,1.46,1.08,0.64,0.73,0.48,-27,-1,-34,0.98,8790,11,101,43,39,999,469.0,589,463,60,124.0,177,1,320,217,77,0,0,484,32033,17628,436,-5.59,,,,,,,,,,,,
304983,1564153049682,1,2.06,0.93,0.35,1.46,1.08,0.78,0.53,0.63,-27,-1,-36,0.94,8737,10,101,43,39,999,470.0,591,466,60,123.0,163,1,320,213,71,0,0,486,8488,-23623,435,-5.59,,,,,,,,,,,,
305003,1564153049702,-0,2.06,0.92,0.36,1.46,1.08,0.77,0.35,0.58,-26,1,-35,0.85,8716,10,101,43,39,997,468.0,586,466,60,123.0,163,1,320,210,71,0,0,483,-16384,3571,436,-5.59,,,,,,,,,,,,
305023,1564153049722,2,2.05,0.93,0.35,1.46,1.08,0.66,0.47,0.42,-25,1,-33,0.81,8720,12,101,43,39,996,467.0,592,468,60,124.0,163,1,320,135,71,0,0,483,10432,14488,434,-5.59,,,,,,,,,,,,
305043,1564153049742,3,2.06,0.93,0.35,1.46,1.08,0.46,0.63,0.24,-25,-2,-31,0.78,8729,14,101,43,39,993,470.0,595,466,60,124.0,163,1,320,210,71,0,0,480,8488,2524,435,-5.59,44.681362,10.024619,44.7,174.0,0,0.0,-1,0.0,0.0,0,1.94,5.0841
305063,1564153049762,3,2.06,0.93,0.36,1.46,1.08,0.5,0.77,0.23,-26,-3,-31,0.92,8737,12,101,43,39,992,467.0,612,465,60,123.0,163,1,320,210,71,0,0,483,243,17628,435,-5.59,,,,,,,,,,,,
305083,1564153049782,2,2.05,0.93,0.36,1.46,1.09,0.65,0.79,0.33,-27,-4,-32,1.03,8765,7,101,43,39,991,470.0,606,466,60,123.0,158,1,320,210,69,0,0,483,8488,-6387,437,-5.59,,,,,,,,,,,,
305103,1564153049802,-0,2.06,0.93,0.35,1.46,1.08,0.79,0.57,0.49,-28,-4,-34,0.98,8819,11,101,43,39,990,473.0,620,467,60,123.0,158,1,320,210,69,0,0,484,3576,14488,435,-5.59,,,,,,,,,,,,
305123,1564153049822,-1,2.06,0.93,0.36,1.45,1.09,0.91,0.32,0.62,-28,-2,-36,0.97,8823,12,101,43,39,990,471.0,607,468,60,123.0,158,1,320,210,69,0,0,484,-1923,14488,435,-5.59,,,,,,,,,,,,
305143,1564153049842,-0,2.06,0.92,0.35,1.45,1.08,0.89,0.23,0.51,-27,-1,-35,0.92,8823,16,101,43,39,990,473.0,595,464,60,123.0,158,1,320,210,69,0,0,485,3576,17628,436,-5.59,44.681351,10.024608,45.0,174.0,0,0.0,-1,0.0,0.0,0,1.94,5.0857
305163,1564153049862,0,2.05,0.93,0.35,1.46,1.08,0.71,0.37,0.39,-26,3,-34,0.8,8831,12,101,43,39,991,473.0,602,468,60,124.0,158,1,320,210,69,0,0,485,3576,-23623,435,-5.59,,,,,,,,,,,,
305183,1564153049882,2,2.06,0.93,0.36,1.45,1.09,0.52,0.53,0.23,-26,2,-34,0.75,8848,15,101,43,39,991,474.0,587,465,60,124.0,160,1,320,210,70,0,0,487,-17956,12552,436,-5.59,,,,,,,,,,,,
305203,1564153049904,1,2.06,0.92,0.36,1.45,1.09,0.39,0.68,0.09,-26,3,-34,0.79,8848,8,101,43,39,990,477.0,590,466,60,123.0,160,1,320,210,70,0,0,486,2212,14488,436,-5.59,,,,,,,,,,,,
305223,1564153049924,1,2.05,0.93,0.36,1.46,1.08,0.48,0.82,0.18,-27,0,-36,0.94,8840,16,101,43,39,989,475.0,598,463,60,122.0,160,1,320,210,70,0,0,486,-17956,-3267,435,-5.59,,,,,,,,,,,,
305243,1564153049944,2,2.05,0.92,0.36,1.45,1.08,0.63,0.91,0.35,-29,-0,-38,1.11,8802,15,101,43,39,987,474.0,588,469,60,124.0,160,1,320,210,70,0,0,486,-1923,-9160,436,-5.59,44.681343,10.024598,45.0,174.0,0,0.0,-1,0.0,0.0,0,1.95,5.0874
305263,1564153049964,2,2.05,0.93,0.36,1.46,1.08,0.77,0.65,0.51,-30,-0,-39,1.01,8802,17,101,43,39,986,474.0,591,466,60,123.0,160,1,320,210,70,0,0,490,-9203,-23623,437,-5.59,,,,,,,,,,,,
305283,1564153049984,1,2.05,0.93,0.36,1.45,1.09,0.89,0.39,0.66,-30,0,-40,0.97,8778,8,101,43,39,986,476.0,593,468,60,124.0,160,1,320,210,70,0,0,487,-23367,-18108,435,-5.59,,,,,,,,,,,,
305303,1564153049994,0,2.05,0.93,0.36,1.45,1.09,0.82,0.24,0.63,-29,3,-39,0.86,8769,14,101,43,39,987,476.0,593,466,60,124.0,160,1,320,233,70,0,0,487,-23367,17628,436,-5.59,,,,,,,,,,,,
305323,1564153050014,-0,2.04,0.92,0.35,1.45,1.08,0.68,0.39,0.46,-28,3,-38,0.79,8802,12,101,43,39,989,476.0,606,468,60,124.0,160,1,320,229,70,0,0,488,-23367,-8985,438,-5.59,,,,,,,,,,,,
305343,1564153050034,2,2.05,0.93,0.36,1.45,1.09,0.43,0.56,0.27,-27,2,-36,0.7,8811,18,101,43,39,995,475.0,602,467,60,124.0,160,1,320,232,70,0,0,487,-17956,14488,436,-5.59,44.681335,10.024589,44.82,173.9,0,0.0,-1,0.0,0.0,0,1.95,5.089
305363,1564153050054,2,2.05,0.93,0.35,1.45,1.08,0.34,0.7,0.18,-28,1,-36,0.78,8827,15,101,43,39,1005,474.0,606,464,60,123.0,160,1,320,232,70,0,0,486,-9203,17628,436,-5.59,,,,,,,,,,,,
305383,1564153050074,1,2.05,0.93,0.35,1.45,1.09,0.36,0.83,0.22,-29,-2,-35,0.91,8823,21,101,43,39,1014,473.0,598,463,60,122.0,174,1,320,228,76,0,0,488,3576,-18108,437,-5.59,,,,,,,,,,,,
305403,1564153050104,2,2.05,0.93,0.36,1.46,1.09,0.48,0.95,0.36,-30,-2,-37,1.07,8836,12,101,43,39,1021,476.0,595,466,60,123.0,174,1,320,210,76,0,0,487,-23367,3571,437,-5.59,,,,,,,,,,,,
305423,1564153050124,3,2.04,0.93,0.36,1.45,1.08,0.64,0.86,0.5,-31,-3,-39,1.07,8844,11,101,43,39,1028,475.0,596,462,60,123.0,174,1,320,210,76,0,0,488,-23367,16408,436,-5.59,,,,,,,,,,,,
305443,1564153050144,-0,2.05,0.93,0.36,1.46,1.08,0.78,0.62,0.65,-32,-3,-40,1.0,8861,11,101,43,39,1033,474.0,593,468,60,123.0,174,1,320,210,76,0,0,490,-9203,6193,436,-5.59,44.681324,10.02458,44.93,173.9,0,0.0,-1,0.0,0.0,0,1.95,5.0907
305463,1564153050164,1,2.04,0.92,0.36,1.45,1.08,0.9,0.36,0.78,-32,-1,-41,0.97,8894,14,101,43,39,1036,473.0,588,469,60,124.0,174,1,320,210,76,0,0,490,3576,14488,436,-5.59,,,,,,,,,,,,
305483,1564153050184,-1,2.05,0.93,0.36,1.46,1.08,1.01,0.13,0.78,-31,0,-41,1.02,8898,13,101,43,39,1034,476.0,591,467,60,124.0,160,1,320,210,70,0,0,485,-9203,6193,436,-5.59,,,,,,,,,,,,
305503,1564153050204,1,2.05,0.93,0.35,1.45,1.09,1.03,-0.07,0.82,-31,3,-40,1.03,8890,15,101,43,39,1029,474.0,601,468,60,124.0,160,1,320,210,70,0,0,491,-9203,6193,438,-5.59,,,,,,,,,,,,
305523,1564153050224,0,2.05,0.93,0.36,1.46,1.08,0.92,0.01,0.66,-30,4,-39,0.92,8894,14,101,43,39,1020,474.0,601,468,60,124.0,160,1,320,135,70,0,0,486,-9203,12552,438,-5.59,,,,,,,,,,,,
305543,1564153050244,-0,2.04,0.93,0.36,1.46,1.08,0.74,0.17,0.54,-29,6,-37,0.75,8873,13,101,43,39,1011,476.0,602,468,60,124.0,160,1,320,210,70,0,0,489,-23367,2211,437,-5.59,44.681316,10.024573,45.33,173.8,0,0.0,-1,0.0,0.0,0,1.95,5.0924
305563,1564153050264,3,2.04,0.93,0.36,1.45,1.09,0.53,0.35,0.38,-28,6,-36,0.64,8869,15,101,43,39,1004,477.0,605,466,60,123.0,160,1,320,210,70,0,0,489,2212,-16384,439,-5.59,,,,,,,,,,,,
305583,1564153050284,2,2.05,0.93,0.36,1.46,1.09,0.4,0.52,0.28,-28,5,-36,0.66,8886,10,101,43,39,997,475.0,612,466,60,123.0,160,1,320,210,70,0,0,490,-17956,2211,438,-5.59,,,,,,,,,,,,
305603,1564153050304,3,2.05,0.93,0.35,1.46,1.08,0.38,0.67,0.29,-29,3,-36,0.77,8907,16,101,43,39,995,476.0,604,463,60,123.0,160,1,320,210,70,0,0,490,-23367,-18108,439,-5.59,,,,,,,,,,,,
305623,1564153050324,3,2.05,0.93,0.36,1.46,1.09,0.39,0.8,0.36,-30,2,-38,0.89,8915,11,101,43,39,993,476.0,588,467,60,124.0,160,1,320,210,70,0,0,492,-23367,16408,439,-5.59,,,,,,,,,,,,
305643,1564153050344,1,2.06,0.93,0.36,1.46,1.08,0.55,0.91,0.47,-31,1,-40,1.07,8945,17,101,43,39,997,477.0,583,466,60,123.0,160,1,320,210,70,0,0,488,2212,-3210,438,-5.59,44.681301,10.024568,45.29,173.8,0,0.0,-1,0.0,0.0,0,1.95,5.094
305663,1564153050364,3,2.05,0.93,0.36,1.46,1.08,0.7,0.99,0.59,-32,-0,-41,1.22,8962,15,101,43,39,1001,477.0,596,462,60,122.0,160,1,320,210,70,0,0,488,-17956,-23623,438,-5.59,,,,,,,,,,,,
305683,1564153050384,2,2.05,0.93,0.36,1.46,1.08,0.83,0.88,0.72,-33,-2,-42,1.21,8954,10,101,43,39,1002,474.0,597,465,60,123.0,164,1,320,210,72,0,0,488,-9203,-16384,439,-5.59,,,,,,,,,,,,
305703,1564153050403,0,2.07,0.93,0.36,1.46,1.08,0.95,0.79,0.85,-34,-1,-45,1.23,8911,11,101,43,39,1002,477.0,585,470,60,123.0,164,1,320,210,72,0,0,491,2212,8488,441,-5.59,,,,,,,,,,,,
305723,1564153050423,2,2.07,0.93,0.35,1.46,1.09,1.06,0.51,0.96,-34,-2,-46,1.17,8971,11,101,43,39,999,478.0,604,464,60,123.0,164,1,320,233,72,0,0,489,16648,10432,439,-5.59,,,,,,,,,,,,
305743,1564153050443,1,2.08,0.93,0.36,1.46,1.08,1.15,0.37,1.06,-34,-2,-47,1.21,8979,10,101,43,39,995,476.0,607,464,60,123.0,164,1,320,229,72,0,0,492,-23367,12552,440,-5.59,44.681294,10.024563,45.49,173.8,0,0.0,-1,0.0,0.0,0,1.95,5.0957
305763,1564153050463,1,2.09,0.93,0.36,1.46,1.09,1.24,0.13,1.15,-34,-2,-47,1.25,8958,14,101,43,39,988,474.0,607,465,60,123.0,164,1,320,210,72,0,0,491,-9203,6193,441,-5.59,,,,,,,,,,,,
305783,1564153050483,2,2.1,0.93,0.36,1.46,1.09,1.32,-0.08,1.23,-34,-1,-47,1.32,8886,12,101,43,39,980,475.0,604,472,60,124.0,160,1,320,210,71,0,0,487,-23367,6193,441,-5.59,,,,,,,,,,,,
305803,1564153050501,-1,2.12,0.93,0.36,1.46,1.09,1.33,-0.27,1.16,-32,1,-45,1.36,8865,13,101,43,39,974,477.0,603,463,60,124.0,160,1,320,233,71,0,0,494,2212,-17956,442,-5.59,,,,,,,,,,,,
305823,1564153050521,-1,2.13,0.93,0.36,1.46,1.08,1.32,-0.39,1.14,-31,2,-44,1.38,8865,10,101,43,39,970,476.0,598,472,60,124.0,160,1,320,206,71,0,0,488,-23367,10432,445,-5.59,,,,,,,,,,,,
305843,1564153050541,0,2.15,0.94,0.36,1.47,1.09,1.15,-0.41,1.04,-29,3,-41,1.22,8882,14,101,43,39,962,476.0,595,465,60,124.0,160,1,320,212,71,0,0,490,16648,12552,445,-5.59,44.681282,10.024559,45.67,173.7,0,0.0,-1,0.0,0.0,0,1.95,5.0974
305863,1564153050561,-1,2.17,0.94,0.36,1.46,1.09,0.98,-0.31,0.91,-27,4,-39,1.03,8877,15,101,43,40,954,478.0,588,462,60,124.0,160,1,326,237,71,0,0,495,16648,12552,449,-5.59,,,,,,,,,,,,
305883,1564153050581,0,2.17,0.94,0.36,1.47,1.1,0.7,-0.08,0.76,-25,4,-36,0.71,8890,13,101,43,40,949,475.0,591,462,60,122.0,174,1,326,233,78,0,0,487,-17956,6193,449,-5.59,,,,,,,,,,,,
305903,1564153050601,3,2.18,0.94,0.36,1.47,1.09,0.51,0.13,0.61,-23,5,-34,0.53,8890,13,101,43,40,945,476.0,578,465,60,123.0,174,1,326,229,78,0,0,487,-17956,30272,449,-5.59,,,,,,,,,,,,
305923,1564153050621,3,2.19,0.94,0.37,1.48,1.09,0.27,0.32,0.49,-22,3,-31,0.42,8924,15,101,43,40,938,476.0,577,466,60,123.0,174,1,326,137,78,0,0,486,-23367,-16384,451,-5.59,,,,,,,,,,,,
305943,1564153050641,3,2.2,0.94,0.37,1.48,1.09,0.12,0.49,0.41,-21,2,-29,0.5,8937,20,101,43,40,931,473.0,596,466,60,122.0,174,1,326,221,78,0,0,489,3576,8488,451,-5.59,44.681271,10.024557,45.56,173.7,0,0.0,-1,0.0,0.0,0,1.95,5.0991
305963,1564153050661,2,2.2,0.94,0.37,1.47,1.1,-0.02,0.64,0.33,-20,-0,-27,0.64,8949,18,101,43,40,926,472.0,615,462,60,122.0,174,1,326,217,78,0,0,487,32033,8488,452,-5.59,,,,,,,,,,,,
305983,1564153050681,3,2.22,0.95,0.37,1.48,1.1,-0.06,0.78,0.29,-19,-0,-26,0.78,8937,18,101,43,39,922,472.0,619,464,60,123.0,156,1,320,211,71,0,0,487,-1923,-1923,455,-5.59,,,,,,,,,,,,
306003,1564153050701,3,2.23,0.95,0.37,1.49,1.1,-0.09,0.9,0.22,-19,-4,-24,0.91,8915,19,101,43,40,916,473.0,621,461,60,123.0,156,1,326,210,71,0,0,488,3576,-9203,456,-5.59,,,,,,,,,,,,
306023,1564153050721,3,2.24,0.96,0.37,1.49,1.1,0.02,1.01,0.24,-18,-6,-23,1.01,8894,20,101,43,40,907,472.0,622,466,60,123.0,156,1,326,234,71,0,0,483,-1923,3576,460,-5.59,,,,,,,,,,,,
306043,1564153050741,2,2.25,0.95,0.37,1.48,1.1,0.18,1.11,0.31,-18,-8,-22,1.13,8911,17,101,43,40,901,473.0,609,464,60,123.0,156,1,326,210,71,0,0,483,3576,8488,459,-5.59,44.681259,10.024556,45.56,173.7,0,0.0,-1,0.0,0.0,0,1.96,5.1007
306063,1564153050761,3,2.27,0.95,0.37,1.49,1.1,0.37,1.15,0.47,-18,-7,-22,1.21,8928,26,101,43,39,896,473.0,592,471,60,123.0,156,1,320,210,71,0,0,486,3576,10305,460,-5.59,,,,,,,,,,,,
306083,1564153050781,2,2.28,0.95,0.37,1.48,1.09,0.53,1.23,0.53,-17,-8,-21,1.34,8962,27,101,43,39,894,473.0,597,468,60,123.0,154,1,320,212,71,0,0,481,3576,16648,463,-5.59,,,,,,,,,,,,
306103,1564153050801,2,2.3,0.95,0.37,1.48,1.09,0.68,1.24,0.63,-16,-7,-20,1.41,8997,26,101,43,40,895,473.0,590,463,60,122.0,154,1,326,210,71,0,0,485,3576,2212,464,-5.59,,,,,,,,,,,,
306123,1564153050821,3,2.32,0.95,0.37,1.49,1.1,0.82,1.3,0.63,-15,-9,-19,1.53,9031,17,101,43,39,898,471.0,593,466,60,123.0,154,1,320,210,71,0,0,482,10432,16648,465,-5.59,,,,,,,,,,,,
306143,1564153050841,2,2.33,0.95,0.37,1.48,1.1,0.89,1.32,0.64,-13,-8,-18,1.59,9044,27,101,43,40,904,469.0,599,460,60,123.0,154,1,326,234,71,0,0,487,10432,10305,467,-5.59,44.681248,10.024556,46.5,173.6,0,0.0,-1,0.0,0.0,0,1.96,5.1024
306163,1564153050861,4,2.34,0.96,0.37,1.49,1.1,0.91,1.36,0.64,-12,-8,-15,1.63,9049,27,101,43,39,912,470.0,604,463,60,123.0,154,1,320,233,71,0,0,483,8488,-10483,470,-5.59,,,,,,,,,,,,
306183,1564153050881,2,2.34,0.96,0.37,1.49,1.11,0.87,1.33,0.64,-10,-8,-13,1.59,9049,27,101,43,39,923,473.0,603,465,60,123.0,167,1,320,229,79,0,0,485,8488,-6528,473,-5.59,,,,,,,,,,,,
306203,1564153050901,3,2.33,0.96,0.37,1.49,1.1,0.8,1.35,0.6,-9,-9,-10,1.57,9040,27,101,43,39,932,472.0,630,462,60,123.0,167,1,320,225,79,0,0,484,32033,-10483,472,-5.59,,,,,,,,,,,,
306223,1564153050921,2,2.34,0.96,0.38,1.49,1.1,0.76,1.25,0.55,-8,-8,-9,1.46,9053,27,101,43,39,937,471.0,606,465,60,123.0,167,1,320,221,79,0,0,487,32033,-1818,473,-5.59,,,,,,,,,,,,
306243,1564153050941,0,2.34,0.96,0.38,1.49,1.11,0.61,1.18,0.5,-7,-10,-7,1.33,9066,27,101,43,39,941,472.0,630,463,60,123.0,167,1,320,217,79,0,0,486,8488,-6441,472,-5.59,44.681236,10.024556,46.2,173.6,0,0.0,-1,0.0,0.0,0,1.96,5.1041
306263,1564153050961,0,2.34,0.95,0.38,1.49,1.11,0.5,1.02,0.53,-6,-9,-6,1.14,9079,27,101,43,39,940,472.0,620,465,60,124.0,167,1,320,213,79,0,0,485,32033,-1562,472,-5.59,,,,,,,,,,,,
306283,1564153050981,0,2.35,0.96,0.38,1.49,1.1,0.35,0.85,0.5,-5,-7,-4,0.92,9062,27,101,43,39,939,473.0,611,459,60,123.0,152,1,320,210,72,0,0,485,8488,1,473,-5.59,,,,,,,,,,,,
306303,1564153050993,-0,2.35,0.96,0.37,1.5,1.1,0.29,0.67,0.56,-4,-7,-4,0.73,9049,27,101,43,39,933,474.0,605,467,60,124.0,152,1,320,210,72,0,0,483,32033,-32768,474,-5.59,,,,,,,,,,,,
306323,1564153051013,-0,2.36,0.96,0.38,1.49,1.11,0.17,0.42,0.55,-3,-5,-3,0.45,9049,27,101,43,39,928,474.0,593,467,60,124.0,152,1,320,210,72,0,0,485,32033,771,474,-5.59,,,,,,,,,,,,
306343,1564153051033,-1,2.36,0.96,0.37,1.49,1.11,0.2,0.19,0.64,-2,-3,-4,0.28,9049,27,101,43,39,921,478.0,596,468,60,124.0,152,1,320,210,72,0,0,486,8488,-1818,474,-5.59,44.681225,10.024557,47.29,173.6,0,0.0,-1,0.0,0.0,0,1.96,5.1057
306363,1564153051053,1,2.36,0.96,0.38,1.49,1.11,0.18,-0.03,0.65,-2,-1,-3,0.19,9066,27,101,43,39,914,475.0,597,467,60,124.0,152,1,320,210,72,0,0,487,32033,505,475,-5.59,,,,,,,,,,,,
306383,1564153051073,1,2.37,0.97,0.37,1.5,1.1,0.27,-0.12,0.7,-2,-1,-4,0.3,9106,27,101,43,39,912,476.0,601,469,60,124.0,151,1,320,210,72,0,0,486,8488,248,476,-5.59,,,,,,,,,,,,
306403,1564153051101,1,2.37,0.97,0.38,1.49,1.11,0.44,-0.16,0.79,-1,0,-4,0.47,9119,28,101,43,39,912,476.0,599,468,60,123.0,151,1,320,210,72,0,0,486,8488,-32768,477,-5.59,,,,,,,,,,,,
306423,1564153051121,2,2.37,0.96,0.38,1.49,1.11,0.55,-0.05,0.78,-1,-0,-3,0.55,9200,28,101,43,39,914,478.0,623,468,60,122.0,151,1,320,210,72,0,0,487,-1923,998,478,-5.59,,,,,,,,,,,,
306443,1564153051141,4,2.37,0.97,0.38,1.5,1.11,0.66,0.07,0.75,-1,-1,-2,0.67,9200,28,101,43,39,917,478.0,608,462,60,122.0,151,1,320,210,72,0,0,488,3576,3,478,-5.59,44.68121,10.024558,47.18,173.7,0,0.0,-1,0.0,0.0,0,1.96,5.1074
306463,1564153051161,3,2.37,0.97,0.38,1.49,1.11,0.62,0.19,0.64,-0,-1,-1,0.65,9191,28,101,43,39,921,479.0,613,463,60,122.0,151,1,320,211,72,0,0,488,-1923,771,482,-5.59,,,,,,,,,,,,
306483,1564153051181,-1,2.38,0.97,0.38,1.5,1.12,0.64,0.22,0.57,0,-2,1,0.67,9182,27,101,43,38,925,480.0,630,465,60,123.0,151,1,317,207,73,0,0,488,3576,998,480,-5.59,,,,,,,,,,,,
306503,1564153051201,-1,2.39,0.98,0.38,1.5,1.11,0.53,0.1,0.56,1,-1,2,0.54,9182,27,101,43,39,931,479.0,611,463,60,123.0,151,1,320,207,73,0,0,491,32033,248,479,-5.59,,,,,,,,,,,,
306523,1564153051221,-1,2.4,0.98,0.39,1.51,1.12,0.49,-0.06,0.59,1,-1,2,0.49,9191,28,101,43,38,936,480.0,594,470,60,124.0,151,1,317,211,73,0,0,486,32033,-6656,479,-5.59,,,,,,,,,,,,
306543,1564153051241,1,2.39,0.98,0.38,1.51,1.11,0.53,-0.24,0.64,2,0,2,0.58,9200,27,101,43,39,937,481.0,592,462,60,123.0,151,1,320,211,73,0,0,490,-9203,3,481,-5.59,44.681202,10.024558,47.96,173.7,0,0.0,-1,0.0,0.0,0,1.96,5.109
306563,1564153051261,2,2.39,0.98,0.38,1.51,1.12,0.57,-0.29,0.67,2,1,2,0.64,9213,27,101,43,38,938,483.0,590,467,60,123.0,151,1,317,211,73,0,0,490,-9203,-22519,483,-5.59,,,,,,,,,,,,
306583,1564153051281,2,2.39,0.98,0.38,1.51,1.11,0.71,-0.21,0.71,1,0,1,0.74,9222,24,101,43,38,934,483.0,598,466,60,123.0,149,1,317,207,72,0,0,488,-9203,248,483,-5.59,,,,,,,,,,,,
306603,1564153051301,2,2.39,0.99,0.38,1.52,1.11,0.78,-0.03,0.73,1,-1,2,0.78,9191,21,101,43,36,931,483.0,595,473,60,122.0,149,1,311,204,72,0,0,488,3576,-9216,482,-5.59,,,,,,,,,,,,
306623,1564153051321,2,2.4,0.99,0.39,1.51,1.11,0.74,0.09,0.58,2,-3,4,0.75,9177,18,101,43,35,926,481.0,614,466,60,123.0,149,1,308,199,72,0,0,493,-9203,3,481,-5.59,,,,,,,,,,,,
306643,1564153051341,3,2.39,0.99,0.38,1.51,1.12,0.7,0.13,0.48,3,-3,5,0.71,9101,14,101,43,33,921,483.0,601,465,60,122.0,149,1,302,191,72,0,0,486,3576,-6528,483,-5.59,44.681187,10.024558,47.88,173.8,0,0.0,-1,0.0,0.0,0,1.96,5.1107
306663,1564153051361,3,2.4,0.98,0.39,1.51,1.12,0.62,0.17,0.39,3,-6,7,0.65,8979,10,101,43,31,919,484.0,621,465,60,122.0,149,1,295,186,72,0,0,489,-17956,-1818,484,-5.59,,,,,,,,,,,,
306683,1564153051381,3,2.39,0.99,0.39,1.51,1.12,0.61,0.22,0.38,3,-5,8,0.65,8886,7,101,43,29,919,483.0,607,462,60,123.0,128,1,287,186,62,0,0,485,3576,6274,483,-5.59,,,,,,,,,,,,
306703,1564153051400,1,2.39,0.99,0.39,1.51,1.12,0.66,0.34,0.42,4,-7,8,0.74,8778,6,101,43,27,922,482.0,615,467,60,123.0,128,1,278,186,62,0,0,484,3576,3,482,-5.59,,,,,,,,,,,,
306723,1564153051420,1,2.39,0.99,0.38,1.51,1.11,0.8,0.32,0.54,4,-5,7,0.86,8636,6,101,43,26,927,483.0,600,466,60,122.0,128,1,274,186,62,0,0,487,32033,771,483,-5.59,,,,,,,,,,,,
306743,1564153051440,-0,2.39,0.99,0.38,1.52,1.12,0.78,0.17,0.55,4,-4,8,0.8,8573,6,101,43,25,922,483.0,578,466,60,123.0,128,1,270,186,62,0,0,482,32033,2524,482,-5.59,44.681175,10.024558,48.33,173.8,0,0.0,-1,0.0,0.0,0,1.96,5.1124
306763,1564153051460,2,2.39,0.99,0.38,1.5,1.12,0.84,0.11,0.51,4,-6,8,0.85,8370,6,101,43,24,913,482.0,572,467,60,123.0,128,1,270,177,62,0,0,481,8488,248,482,-5.59,,,,,,,,,,,,
306783,1564153051480,2,2.38,0.99,0.38,1.51,1.11,0.79,0.12,0.55,5,-3,7,0.8,8166,6,101,43,24,902,481.0,558,468,60,123.0,105,1,270,161,51,0,0,484,-1923,-1818,481,-5.59,,,,,,,,,,,,
306803,1564153051496,1,2.39,0.98,0.38,1.51,1.11,0.91,0.1,0.46,5,-5,8,0.92,8113,6,101,43,24,889,481.0,552,466,60,123.0,105,1,270,158,51,0,0,474,32033,16648,477,-5.59,,,,,,,,,,,,
306823,1564153051516,3,2.39,0.99,0.37,1.52,1.11,0.89,0.11,0.43,5,-5,8,0.9,8134,5,101,43,24,872,473.0,563,466,60,124.0,105,1,270,160,51,0,0,463,30272,-1923,473,-5.59,,,,,,,,,,,,
306843,1564153051536,2,2.39,0.99,0.37,1.52,1.11,0.97,0.13,0.42,5,-5,8,0.98,8245,5,101,43,24,853,470.0,568,467,60,122.0,105,1,270,165,51,0,0,465,17628,-18108,470,-5.59,44.681164,10.024558,48.69,173.9,0,0.0,-1,0.0,0.0,0,1.97,5.114
306863,1564153051556,4,2.39,0.99,0.38,1.5,1.11,0.87,0.08,0.32,6,-4,8,0.87,8252,5,101,43,24,840,468.0,567,462,60,124.0,105,1,270,166,51,0,0,451,17628,-28332,467,-5.59,,,,,,,,,,,,
306883,1564153051576,2,2.39,0.98,0.37,1.51,1.12,0.99,-0.03,0.35,6,-3,7,0.99,8241,5,101,43,24,834,465.0,590,466,60,122.0,109,1,270,165,51,0,0,450,3571,2524,465,-5.59,,,,,,,,,,,,
306903,1564153051602,3,2.39,0.99,0.38,1.51,1.11,0.94,-0.09,0.36,6,-3,9,0.94,8307,4,101,43,24,834,462.0,570,465,60,124.0,109,1,270,169,51,0,0,438,8488,19477,461,-5.59,,,,,,,,,,,,
306923,1564153051622,3,2.38,0.99,0.38,1.51,1.11,0.99,-0.12,0.39,6,-4,8,1.0,8311,5,101,43,24,839,460.0,586,467,60,123.0,109,1,270,169,51,0,0,438,10305,20625,460,-5.59,,,,,,,,,,,,
306943,1564153051642,5,2.39,0.99,0.37,1.52,1.11,0.93,-0.1,0.33,7,-3,8,0.93,8274,4,101,43,24,847,454.0,572,465,60,123.0,109,1,270,167,51,0,0,441,-18341,2131,454,-5.59,44.681148,10.024558,48.02,174.0,0,0.0,-1,0.0,0.0,0,1.97,5.1157
306963,1564153051662,3,2.39,0.98,0.37,1.51,1.12,0.99,-0.06,0.26,7,-3,9,0.99,8270,0,101,43,23,857,451.0,570,463,60,123.0,109,1,270,163,51,0,0,442,20625,2131,451,-5.59,,,,,,,,,,,,
306983,1564153051682,6,2.39,0.99,0.38,1.51,1.12,0.96,-0.03,0.26,7,-2,8,0.96,8303,0,101,43,23,873,449.0,562,468,60,123.0,113,1,270,164,51,0,0,441,-768,23400,446,-5.59,,,,,,,,,,,,
307003,1564153051700,4,2.39,0.99,0.38,1.51,1.12,1.02,-0.09,0.13,7,-2,9,1.03,8274,0,101,43,23,893,443.0,561,467,60,123.0,113,1,270,163,51,0,0,442,243,2131,443,-5.59,,,,,,,,,,,,
307023,1564153051720,6,2.39,0.99,0.38,1.51,1.12,1.0,-0.13,0.2,7,-2,9,1.01,8205,0,101,43,23,912,440.0,547,464,60,124.0,113,1,270,160,51,0,0,436,3635,5600,438,-5.59,,,,,,,,,,,,
307043,1564153051740,4,2.39,0.99,0.38,1.51,1.12,1.09,-0.18,0.16,7,-2,9,1.1,8166,0,101,43,23,921,434.0,552,466,60,123.0,113,1,270,157,51,0,0,433,31796,243,434,-5.59,44.681141,10.024557,45.77,174.0,0,0.0,-1,0.0,0.0,0,1.97,5.1174
307063,1564153051760,5,2.38,0.99,0.38,1.52,1.11,0.98,-0.21,0.16,7,-1,10,1.0,8138,0,101,43,23,927,433.0,555,466,60,124.0,113,1,270,157,51,0,0,431,-4082,-7939,433,-5.59,,,,,,,,,,,,
307083,1564153051780,3,2.38,0.99,0.38,1.52,1.12,1.05,-0.22,0.21,7,-2,10,1.08,8040,0,101,43,23,926,430.0,554,467,60,124.0,109,1,270,152,47,0,0,427,3826,-7939,431,-5.59,,,,,,,,,,,,
307103,1564153051802,4,2.38,0.99,0.38,1.52,1.12,1.03,-0.19,0.13,6,-3,10,1.05,7965,0,101,43,23,923,427.0,549,466,60,124.0,109,1,269,75,47,0,0,424,-8165,3635,427,-5.59,,,,,,,,,,,,
307123,1564153051822,5,2.38,0.99,0.38,1.51,1.11,0.94,-0.08,0.06,6,-2,10,0.94,7944,0,101,43,23,912,425.0,550,466,60,124.0,109,1,269,152,47,0,0,422,-26615,3826,425,-5.59,,,,,,,,,,,,
307143,1564153051842,6,2.38,0.99,0.38,1.51,1.12,0.93,-0.03,0.03,6,-2,10,0.93,7851,0,101,43,23,901,422.0,537,465,60,123.0,109,1,268,152,47,0,0,420,2524,-21792,422,-5.59,44.681126,10.024555,44.53,174.1,0,0.0,-1,0.0,0.0,0,1.97,5.1191
307163,1564153051862,3,2.38,0.98,0.38,1.51,1.11,1.02,-0.12,0.09,6,-1,10,1.03,7802,0,101,43,23,892,417.0,561,465,60,123.0,109,1,268,152,47,0,0,417,11560,-21792,417,-5.59,,,,,,,,,,,,
307183,1564153051882,4,2.37,0.98,0.37,1.5,1.11,1.06,-0.11,0.12,6,-1,10,1.06,7763,0,101,43,24,884,415.0,542,466,60,123.0,108,1,267,153,45,0,0,409,2524,13040,415,-5.59,,,,,,,,,,,,
307203,1564153051902,5,2.37,0.97,0.37,1.51,1.11,1.11,-0.06,0.15,6,-1,9,1.11,7678,0,101,43,24,886,412.0,531,465,60,124.0,108,1,266,153,45,0,0,410,2524,13040,412,-5.59,,,,,,,,,,,,
307223,1564153051922,4,2.36,0.98,0.37,1.5,1.11,1.09,-0.12,0.15,5,-1,8,1.09,7646,0,101,43,24,886,411.0,523,466,60,124.0,108,1,266,153,45,0,0,410,-8151,9517,411,-5.59,,,,,,,,,,,,
307243,1564153051942,5,2.35,0.98,0.37,1.5,1.11,1.05,-0.08,0.08,5,-3,8,1.05,7584,0,101,43,24,880,406.0,519,465,60,124.0,108,1,265,153,45,0,0,402,11545,11560,406,-5.59,44.681118,10.024553,42.51,174.2,0,0.0,-1,0.0,0.0,0,1.97,5.1207
307263,1564153051962,5,2.36,0.98,0.37,1.49,1.11,0.97,-0.08,0.07,5,-3,8,0.97,7578,0,101,43,24,874,403.0,521,461,60,124.0,108,1,265,153,45,0,0,403,6384,2524,403,-5.59,,,,,,,,,,,,
307283,1564153051982,6,2.35,0.97,0.37,1.49,1.11,0.88,0.02,-0.04,5,-4,7,0.88,7539,0,101,43,24,867,400.0,517,465,60,123.0,110,1,265,156,44,0,0,402,-1818,1504,397,-5.59,,,,,,,,,,,,
307303,1564153051992,5,2.34,0.97,0.37,1.49,1.1,0.77,-0.0,-0.12,5,-2,6,0.77,7521,0,101,43,25,860,397.0,519,463,60,124.0,110,1,265,156,44,0,0,398,-6524,-3968,394,-5.59,,,,,,,,,,,,
307323,1564153052012,6,2.34,0.97,0.37,1.5,1.1,0.65,0.0,-0.2,5,-2,5,0.65,7419,0,101,43,25,859,392.0,511,464,60,123.0,110,1,264,156,44,0,0,394,240,-3968,392,-5.59,,,,,,,,,,,,
307343,1564153052032,5,2.33,0.96,0.37,1.49,1.1,0.65,0.03,-0.22,4,-2,5,0.65,7396,0,101,43,25,859,390.0,513,463,60,124.0,110,1,263,156,44,0,0,392,-6475,11545,390,-5.59,44.681103,10.024552,41.42,174.2,0,0.0,-1,0.0,0.0,0,1.97,5.1224
307363,1564153052052,4,2.34,0.96,0.37,1.49,1.11,0.66,0.02,-0.18,4,-2,5,0.66,7275,0,101,43,25,866,387.0,516,467,60,123.0,110,1,262,156,44,0,0,395,-19019,-32702,387,-5.59,,,,,,,,,,,,
307383,1564153052072,5,2.32,0.96,0.37,1.49,1.11,0.8,-0.03,-0.04,3,-4,6,0.8,7247,0,101,43,25,873,385.0,505,463,60,124.0,111,1,262,156,43,0,0,388,19125,-6524,384,-5.59,,,,,,,,,,,,
307403,1564153052102,8,2.31,0.96,0.37,1.49,1.1,0.92,-0.01,0.08,3,-4,4,0.92,7175,0,101,43,26,879,382.0,512,463,60,123.0,111,1,265,157,43,0,0,384,8200,-18948,379,-5.59,,,,,,,,,,,,
307423,1564153052122,7,2.31,0.95,0.36,1.48,1.09,0.87,0.03,0.06,3,-2,3,0.87,7137,0,101,43,26,885,378.0,498,463,60,123.0,111,1,265,157,43,0,0,2038,-6656,-992,378,-5.59,,,,,,,,,,,,
307443,1564153052142,3,2.31,0.94,0.36,1.47,1.09,0.78,0.13,-0.03,2,-1,3,0.79,7142,0,101,43,27,885,375.0,502,463,60,124.0,111,1,269,157,43,0,0,2038,770,-19126,374,-5.59,44.681095,10.02455,40.17,174.3,0,0.0,-1,0.0,0.0,0,1.97,5.1241
307463,1564153052162,8,2.3,0.93,0.36,1.46,1.09,0.77,0.16,0.05,2,-3,4,0.78,7046,0,101,43,27,884,371.0,493,460,60,124.0,111,1,268,158,43,0,0,2038,486,1,371,-5.59,,,,,,,,,,,,
307483,1564153052182,6,2.31,0.92,0.36,1.45,1.09,0.87,0.14,0.06,1,-3,4,0.88,7035,0,101,43,27,878,369.0,505,467,60,122.0,114,1,268,158,42,0,0,368,-6656,257,367,-5.59,,,,,,,,,,,,
307503,1564153052202,4,2.3,0.92,0.35,1.45,1.08,0.82,0.2,0.02,2,-1,2,0.84,6980,0,101,43,27,871,368.0,490,463,60,124.0,114,1,269,158,42,0,0,370,0,3,366,-5.59,,,,,,,,,,,,
307523,1564153052222,7,2.31,0.92,0.35,1.44,1.08,0.88,0.12,0.09,1,-2,2,0.88,6903,0,101,43,27,866,366.0,487,465,60,123.0,114,1,269,158,42,0,0,371,230,257,364,-5.59,,,,,,,,,,,,
307543,1564153052242,5,2.3,0.91,0.35,1.44,1.07,0.84,0.17,0.09,2,-1,2,0.86,6868,0,101,43,28,861,363.0,485,464,60,123.0,114,1,274,160,42,0,0,366,3082,486,361,-5.59,44.681084,10.024549,38.21,174.4,0,0.0,-1,0.0,0.0,0,1.97,5.1257
307563,1564153052262,8,2.3,0.92,0.35,1.44,1.09,0.77,0.2,0.07,1,-0,3,0.79,6830,0,101,43,28,859,361.0,477,462,60,125.0,114,1,274,160,42,0,0,363,-14707,0,361,-5.59,,,,,,,,,,,,
307583,1564153052282,6,2.3,0.92,0.34,1.45,1.09,0.82,0.2,0.06,1,-1,3,0.84,6788,0,101,43,29,858,358.0,486,466,60,123.0,114,1,278,161,41,0,0,363,-29978,-1268,355,-5.59,,,,,,,,,,,,
307603,1564153052302,6,2.32,0.92,0.36,1.45,1.08,0.8,0.26,0.06,1,-1,2,0.84,6754,0,101,43,29,862,357.0,472,463,60,124.0,114,1,278,161,41,0,0,364,2060,-14707,353,-5.59,,,,,,,,,,,,
307623,1564153052322,3,2.32,0.93,0.36,1.45,1.09,0.92,0.15,0.11,0,-1,1,0.94,6713,0,101,43,29,866,353.0,477,468,60,122.0,114,1,278,161,41,0,0,358,-6644,-14707,352,-5.59,,,,,,,,,,,,
307643,1564153052342,7,2.32,0.93,0.35,1.45,1.09,0.74,0.15,0.18,0,-2,1,0.76,6684,0,101,43,30,871,349.0,467,461,60,125.0,114,1,282,161,41,0,0,358,2811,2060,349,-5.59,44.681076,10.024548,36.93,174.4,0,0.0,-1,0.0,0.0,0,1.98,5.1274
307663,1564153052362,2,2.33,0.92,0.35,1.45,1.09,0.87,0.2,0.14,1,-1,-0,0.9,6597,0,101,43,30,876,348.0,476,468,60,124.0,114,1,282,163,41,0,0,355,-1246,-29978,347,-5.59,,,,,,,,,,,,
307683,1564153052382,4,2.33,0.93,0.36,1.46,1.08,0.86,0.09,0.22,0,-2,0,0.86,6572,0,101,43,30,879,346.0,477,465,60,123.0,115,1,282,163,40,0,0,355,-30438,2060,346,-5.59,,,,,,,,,,,,
307703,1564153052401,5,2.34,0.93,0.36,1.46,1.1,0.78,0.12,0.25,1,0,-0,0.79,6528,0,101,43,30,880,345.0,460,462,60,125.0,115,1,282,164,40,0,0,350,6870,2060,344,-5.59,,,,,,,,,,,,
307723,1564153052421,1,2.33,0.94,0.35,1.47,1.09,0.9,0.11,0.21,0,-1,0,0.91,6503,0,101,43,31,880,343.0,470,468,60,123.0,115,1,286,164,40,0,0,347,-31206,-30438,343,-5.59,,,,,,,,,,,,
307743,1564153052441,5,2.34,0.94,0.36,1.48,1.09,0.82,0.06,0.28,0,-1,1,0.82,6510,0,101,43,31,883,341.0,457,463,60,125.0,115,1,286,164,40,0,0,346,3327,-30438,341,-5.59,44.681065,10.024546,35.63,174.4,0,0.0,-1,0.0,0.0,0,1.98,5.129
307763,1564153052461,6,2.35,0.94,0.36,1.47,1.1,0.82,0.11,0.33,1,0,1,0.82,6452,0,101,43,32,884,340.0,458,466,60,124.0,115,1,290,164,40,0,0,345,2560,6870,340,-5.59,,,,,,,,,,,,
307783,1564153052481,-1,2.35,0.95,0.36,1.48,1.09,0.94,0.09,0.32,1,0,1,0.94,6399,0,101,43,32,884,339.0,463,468,60,124.0,117,1,290,166,40,0,0,343,2560,6668,338,-5.59,,,,,,,,,,,,
307803,1564153052501,2,2.34,0.95,0.36,1.49,1.09,0.88,0.02,0.31,0,-2,1,0.88,6360,0,101,43,32,885,338.0,457,466,60,124.0,117,1,290,166,40,0,0,339,4838,-31206,338,-5.59,,,,,,,,,,,,
307823,1564153052521,2,2.35,0.95,0.36,1.49,1.09,0.73,-0.02,0.42,1,-1,1,0.73,6325,0,101,43,32,887,336.0,443,463,60,125.0,117,1,290,171,40,0,0,339,-6528,-31206,336,-5.59,,,,,,,,,,,,
307843,1564153052541,3,2.35,0.96,0.36,1.48,1.1,0.7,0.1,0.43,1,2,0,0.7,6298,0,101,43,33,888,335.0,438,463,60,125.0,117,1,292,171,40,0,0,338,-32559,13,335,-5.59,44.681061,10.024544,34.44,174.5,0,0.0,-1,0.0,0.0,0,1.98,5.1307
307863,1564153052561,0,2.36,0.95,0.36,1.49,1.09,0.81,0.06,0.35,2,4,0,0.81,6270,0,101,43,33,888,334.0,440,467,60,124.0,117,1,292,171,40,0,0,337,-12032,3327,334,-5.59,,,,,,,,,,,,
307883,1564153052581,-2,2.37,0.96,0.36,1.48,1.1,0.93,0.02,0.32,1,2,1,0.93,6264,0,101,44,34,888,332.0,437,467,60,124.0,123,1,295,175,41,0,0,334,-20736,13,332,-5.59,,,,,,,,,,,,
307903,1564153052601,-0,2.38,0.95,0.36,1.49,1.1,0.9,0.03,0.29,1,-0,2,0.9,6256,0,101,44,34,889,331.0,442,470,60,124.0,123,1,295,175,41,0,0,333,170,-122,331,-5.59,,,,,,,,,,,,
307923,1564153052621,1,2.39,0.96,0.36,1.49,1.1,0.79,-0.07,0.35,1,-1,2,0.79,6268,0,101,43,34,891,329.0,440,465,60,123.0,123,1,295,176,41,0,0,333,-23296,-6528,331,-5.59,,,,,,,,,,,,
307943,1564153052641,2,2.39,0.96,0.36,1.5,1.1,0.68,-0.06,0.4,2,-1,2,0.69,6235,0,101,44,34,891,329.0,441,465,60,125.0,123,1,295,175,41,0,0,328,-24576,3346,329,-5.59,44.681049,10.024543,33.84,174.5,0,0.0,-1,0.0,0.0,0,1.98,5.1324
307963,1564153052661,3,2.4,0.96,0.36,1.49,1.1,0.63,-0.03,0.39,3,1,2,0.63,6239,0,101,44,35,891,329.0,443,466,60,125.0,123,1,298,175,41,0,0,328,155,-6528,329,-5.59,,,,,,,,,,,,
307983,1564153052681,3,2.41,0.97,0.36,1.5,1.1,0.74,-0.07,0.33,4,2,3,0.74,6218,0,101,44,35,893,328.0,449,465,60,124.0,125,1,298,175,41,0,0,327,-27136,-6528,328,-5.59,,,,,,,,,,,,
308003,1564153052701,0,2.42,0.97,0.36,1.49,1.1,0.86,-0.1,0.27,5,2,3,0.87,6155,0,101,44,35,894,328.0,446,468,60,123.0,125,1,298,182,41,0,0,325,145,175,328,-5.59,,,,,,,,,,,,
308023,1564153052721,-1,2.43,0.97,0.36,1.5,1.1,0.97,-0.13,0.21,5,2,4,0.98,6141,0,101,44,35,895,327.0,443,465,60,124.0,125,1,298,182,41,0,0,324,140,-6528,327,-5.59,,,,,,,,,,,,
308043,1564153052741,-0,2.44,0.98,0.36,1.5,1.1,1.08,-0.16,0.19,5,0,5,1.09,6095,0,101,44,35,896,327.0,446,467,60,123.0,125,1,298,107,41,0,0,324,140,4838,327,-5.59,44.681046,10.024541,33.08,174.6,0,0.0,-1,0.0,0.0,0,1.98,5.134
308063,1564153052761,-2,2.45,0.98,0.36,1.51,1.11,1.17,-0.18,0.23,5,-1,7,1.18,6040,0,101,44,35,895,327.0,443,468,60,123.0,125,1,298,182,41,0,0,317,135,-6528,327,-5.59,,,,,,,,,,,,
308083,1564153052781,-2,2.46,0.97,0.37,1.51,1.11,1.26,-0.17,0.25,5,-3,8,1.27,6019,0,101,44,35,896,326.0,441,463,60,123.0,128,1,298,187,42,0,0,318,130,175,326,-5.59,,,,,,,,,,,,
308103,1564153052801,-0,2.46,0.99,0.37,1.5,1.11,1.29,-0.15,0.2,5,-5,9,1.29,6001,0,101,44,36,895,323.0,427,464,60,123.0,128,1,301,112,42,0,0,317,125,-20736,323,-5.59,,,,,,,,,,,,
308123,1564153052821,-1,2.48,0.99,0.37,1.52,1.11,1.31,-0.15,0.17,6,-6,10,1.32,6017,0,101,44,36,895,323.0,432,464,60,123.0,128,1,301,187,42,0,0,315,120,-22016,323,-5.59,,,,,,,,,,,,
308143,1564153052841,-0,2.48,0.98,0.37,1.52,1.11,1.36,-0.17,0.15,6,-7,11,1.37,5959,0,101,44,36,892,324.0,432,466,60,123.0,128,1,298,192,42,0,0,313,120,170,324,-5.59,44.681034,10.024539,32.68,174.6,0,0.0,-1,0.0,0.0,0,1.98,5.1357
308163,1564153052861,-1,2.49,0.99,0.37,1.51,1.11,1.42,-0.2,0.17,7,-9,12,1.43,5929,0,101,44,37,888,323.0,425,462,60,123.0,128,1,299,192,42,0,0,310,29440,-23296,323,-5.59,,,,,,,,,,,,
308183,1564153052881,-2,2.5,0.99,0.37,1.52,1.11,1.48,-0.23,0.17,7,-10,12,1.49,5935,0,101,44,37,886,320.0,423,465,60,122.0,133,1,300,192,43,0,0,310,28160,160,320,-5.59,,,,,,,,,,,,
308203,1564153052901,-0,2.5,0.99,0.37,1.52,1.11,1.53,-0.27,0.21,7,-10,13,1.55,5914,0,101,44,37,883,321.0,420,466,60,122.0,133,1,298,192,43,0,0,308,105,-23296,321,-5.59,,,,,,,,,,,,
308223,1564153052921,3,2.5,0.99,0.37,1.52,1.11,1.58,-0.3,0.18,7,-10,14,1.61,5905,0,101,44,38,881,318.0,418,464,60,123.0,133,1,301,192,43,0,0,308,26880,-22016,318,-5.59,,,,,,,,,,,,
308243,1564153052941,3,2.5,0.99,0.37,1.52,1.12,1.62,-0.34,0.14,8,-8,14,1.66,5868,0,101,44,38,878,318.0,416,465,60,123.0,133,1,299,123,43,0,0,306,25600,-25856,319,-5.59,44.681023,10.024537,32.14,174.7,0,0.0,-1,0.0,0.0,0,1.98,5.1374
308263,1564153052961,2,2.51,0.99,0.37,1.52,1.11,1.61,-0.32,0.13,9,-5,14,1.64,5839,0,101,44,38,876,318.0,412,467,60,123.0,133,1,297,197,43,0,0,304,95,155,318,-5.59,,,,,,,,,,,,
308283,1564153052981,2,2.51,0.99,0.37,1.53,1.11,1.49,-0.27,0.17,10,-2,15,1.51,5848,0,101,44,38,876,318.0,409,466,60,124.0,135,1,297,197,43,0,0,300,24320,150,315,-5.59,,,,,,,,,,,,
308303,1564153052993,1,2.51,0.99,0.37,1.52,1.12,1.27,-0.3,0.23,11,-0,15,1.3,5810,0,101,44,39,876,315.0,410,463,60,124.0,135,1,298,203,43,0,0,304,23040,150,315,-5.59,,,,,,,,,,,,
308323,1564153053013,-1,2.51,0.99,0.37,1.52,1.11,1.09,-0.33,0.21,12,-1,16,1.14,5748,0,101,44,39,877,315.0,416,464,60,123.0,135,1,294,202,43,0,0,301,21760,-28416,315,-5.59,,,,,,,,,,,,
308343,1564153053033,-1,2.52,0.99,0.37,1.52,1.11,1.14,-0.34,0.25,12,-4,16,1.19,5702,0,101,44,40,878,313.0,412,464,60,124.0,135,1,297,203,43,0,0,297,21760,140,313,-5.59,44.681019,10.024534,31.41,174.7,0,0.0,-1,0.0,0.0,0,1.98,5.1391
308363,1564153053053,3,2.52,0.99,0.37,1.52,1.11,1.23,-0.38,0.25,12,-4,17,1.29,5671,0,101,44,41,879,312.0,408,466,60,123.0,135,1,300,205,43,0,0,295,0,135,312,-5.59,,,,,,,,,,,,
308383,1564153053073,2,2.51,0.99,0.37,1.52,1.11,1.22,-0.3,0.29,13,0,17,1.26,5639,0,101,44,41,879,311.0,400,466,60,123.0,141,1,297,205,44,0,0,292,41,-28416,310,-5.59,,,,,,,,,,,,
308403,1564153053101,-1,2.53,0.99,0.37,1.53,1.12,1.04,-0.37,0.33,14,2,17,1.1,5635,0,101,44,41,880,309.0,395,467,60,124.0,141,1,297,205,44,0,0,293,41,130,309,-5.59,,,,,,,,,,,,
308423,1564153053121,-1,2.52,0.99,0.37,1.52,1.12,0.92,-0.37,0.27,14,-0,18,0.99,5652,0,101,44,42,881,308.0,413,464,60,122.0,141,1,303,132,44,0,0,291,10686,32000,308,-5.59,,,,,,,,,,,,
308443,1564153053141,2,2.52,0.99,0.37,1.52,1.12,1.03,-0.41,0.32,13,-3,19,1.11,5645,0,101,44,42,882,307.0,409,466,60,123.0,141,1,303,206,44,0,0,289,-16896,30720,307,-5.59,44.681011,10.024531,30.87,174.8,0,0.0,-1,0.0,0.0,0,1.98,5.1407
308463,1564153053161,2,2.52,0.99,0.37,1.52,1.12,1.13,-0.31,0.34,14,-1,19,1.17,5635,0,101,44,43,880,305.0,400,462,60,123.0,141,1,307,206,44,0,0,291,250,-32256,305,-5.59,,,,,,,,,,,,
308483,1564153053181,-0,2.52,0.99,0.37,1.53,1.11,1.01,-0.36,0.48,14,1,19,1.08,5592,0,101,44,43,877,303.0,400,463,60,124.0,141,1,304,207,43,0,0,287,24064,120,303,181.28,,,,,,,,,,,,
308503,1564153053203,-0,2.53,0.99,0.37,1.52,1.11,0.94,-0.36,0.44,14,-1,19,1.0,5532,0,101,44,44,876,302.0,400,463,60,124.0,141,1,303,135,43,0,0,287,24064,29440,302,-5.59,,,,,,,,,,,,
308523,1564153053223,0,2.54,0.99,0.37,1.51,1.11,1.04,-0.35,0.45,15,-2,20,1.1,5490,0,101,44,44,876,301.0,383,463,60,123.0,141,1,300,209,43,0,0,286,250,29440,301,-5.59,,,,,,,,,,,,
308543,1564153053243,-1,2.55,0.99,0.36,1.52,1.11,0.95,-0.38,0.48,15,1,19,1.03,5466,0,101,44,44,874,299.0,379,462,60,123.0,141,1,298,209,43,0,0,282,30208,110,299,-5.59,44.681004,10.024529,29.91,174.8,0,0.0,-1,0.0,0.0,0,1.98,5.1424
308563,1564153053263,2,2.55,0.99,0.37,1.51,1.12,0.99,-0.4,0.49,15,-1,19,1.07,5433,0,101,44,45,874,300.0,391,465,60,123.0,141,1,299,210,43,0,0,280,30208,26880,300,-5.59,,,,,,,,,,,,
308583,1564153053283,-1,2.56,0.99,0.36,1.52,1.11,0.99,-0.37,0.46,16,-0,19,1.06,5428,0,101,44,46,874,300.0,384,465,60,123.0,143,1,303,210,43,0,0,277,-1527,28160,300,-5.59,,,,,,,,,,,,
308603,1564153053303,-1,2.57,0.99,0.37,1.53,1.11,0.89,-0.37,0.34,16,-2,20,0.97,5400,0,101,44,46,876,298.0,386,467,60,123.0,143,1,302,212,43,0,0,277,28160,105,298,-5.59,,,,,,,,,,,,
308623,1564153053323,1,2.58,0.99,0.36,1.52,1.12,1.0,-0.39,0.36,16,-3,21,1.08,5411,0,101,44,46,875,298.0,389,465,60,123.0,143,1,302,214,43,0,0,275,-1281,100,296,-5.59,,,,,,,,,,,,
308643,1564153053343,-2,2.58,0.99,0.37,1.52,1.11,0.9,-0.44,0.37,17,0,21,1.0,5389,0,101,44,46,871,295.0,377,463,60,123.0,143,1,301,212,43,0,0,276,-1,95,295,-5.59,44.680996,10.024524,29.51,174.8,0,0.0,-1,0.0,0.0,0,1.98,5.1441
308663,1564153053363,3,2.57,1.0,0.37,1.52,1.12,1.01,-0.44,0.43,17,-2,22,1.1,5360,0,101,44,47,868,296.0,392,467,60,123.0,143,1,302,214,43,0,0,273,-1,24320,296,-5.59,,,,,,,,,,,,
308683,1564153053383,-2,2.58,0.99,0.37,1.52,1.12,0.91,-0.47,0.49,17,0,23,1.02,5361,0,101,44,47,863,294.0,384,461,60,123.0,146,1,302,214,43,0,0,273,-1,24320,294,-5.59,,,,,,,,,,,,
308703,1564153053402,1,2.59,0.99,0.37,1.52,1.11,0.85,-0.49,0.47,17,-2,24,0.98,5307,0,101,44,48,857,293.0,388,463,60,123.0,146,1,301,216,43,0,0,270,-1,24320,293,-5.59,,,,,,,,,,,,
308723,1564153053422,-0,2.59,0.99,0.37,1.52,1.11,0.79,-0.51,0.49,18,-0,24,0.94,5259,0,101,44,48,851,293.0,371,463,60,124.0,146,1,297,216,43,0,0,271,-1,24320,293,-5.59,,,,,,,,,,,,
308743,1564153053442,3,2.58,0.98,0.37,1.52,1.11,0.9,-0.57,0.47,18,-1,25,1.06,5253,0,101,44,48,845,292.0,382,465,60,123.0,146,1,296,143,43,0,0,267,-1,85,292,-5.59,44.680988,10.02452,28.9,174.9,0,0.0,-1,0.0,0.0,0,1.99,5.1457
308763,1564153053462,-1,2.6,0.99,0.37,1.52,1.11,0.94,-0.51,0.57,19,-0,24,1.07,5214,0,101,44,49,844,291.0,376,465,60,123.0,146,1,297,216,43,0,0,265,-1,21760,292,-5.59,,,,,,,,,,,,
308783,1564153053482,3,2.59,1.0,0.37,1.53,1.11,1.05,-0.58,0.53,19,-3,24,1.2,5179,0,101,44,49,842,290.0,373,467,60,124.0,147,1,294,219,43,0,0,264,-1,21760,290,-5.59,,,,,,,,,,,,
308803,1564153053502,-0,2.59,1.0,0.37,1.53,1.11,0.9,-0.6,0.5,19,1,24,1.08,5196,0,101,44,49,841,289.0,362,461,60,123.0,147,1,295,219,43,0,0,263,-1,23040,289,-5.59,,,,,,,,,,,,
308823,1564153053522,1,2.58,0.99,0.37,1.52,1.11,0.92,-0.65,0.4,19,-1,25,1.13,5170,0,101,44,49,842,288.0,376,467,60,123.0,147,1,293,222,43,0,0,264,14337,0,288,-5.59,,,,,,,,,,,,
308843,1564153053542,-0,2.6,0.99,0.37,1.52,1.11,0.81,-0.65,0.39,20,1,26,1.04,5180,0,101,44,49,842,286.0,363,461,60,123.0,147,1,294,219,43,0,0,261,506,41,286,-5.59,44.680984,10.024515,28.27,174.9,0,0.0,-1,0.0,0.0,0,1.99,5.1474
308863,1564153053562,1,2.59,0.99,0.37,1.53,1.12,0.89,-0.58,0.48,20,-2,26,1.07,5159,0,101,44,50,845,284.0,367,465,60,122.0,147,1,296,222,43,0,0,263,506,0,284,-5.59,,,,,,,,,,,,
308883,1564153053582,-1,2.61,0.99,0.37,1.52,1.12,0.81,-0.56,0.42,20,-0,26,0.98,5113,0,101,44,50,846,283.0,361,464,60,123.0,150,1,292,222,43,0,0,258,506,41,283,-5.59,,,,,,,,,,,,
308903,1564153053602,0,2.6,1.0,0.37,1.52,1.12,0.81,-0.55,0.55,20,-0,26,0.98,5099,0,101,44,50,850,282.0,360,462,60,124.0,150,1,291,149,43,0,0,260,-1281,10686,282,-5.59,,,,,,,,,,,,
308923,1564153053622,3,2.61,0.99,0.37,1.53,1.12,0.93,-0.57,0.46,20,-3,27,1.09,5048,0,101,44,50,850,283.0,363,466,60,123.0,150,1,286,224,43,0,0,257,506,250,283,-5.59,,,,,,,,,,,,
308943,1564153053642,-1,2.61,1.0,0.37,1.53,1.12,0.82,-0.55,0.51,21,-0,27,0.98,5012,0,101,44,51,852,282.0,347,458,60,124.0,150,1,288,224,43,0,0,398,-1,-16896,282,181.28,44.680977,10.02451,27.54,175.0,0,0.0,-1,0.0,0.0,0,1.99,5.149
308963,1564153053662,-1,2.6,1.0,0.37,1.52,1.12,0.88,-0.49,0.52,21,-0,27,1.01,5009,0,101,44,51,857,282.0,359,469,60,124.0,150,1,285,224,43,0,0,398,-1,-16896,280,-5.59,,,,,,,,,,,,
308983,1564153053682,2,2.61,0.99,0.37,1.52,1.12,0.98,-0.55,0.57,20,-3,28,1.12,4998,0,101,44,51,860,279.0,356,462,60,123.0,150,1,286,223,42,0,0,398,10818,-1529,279,-5.59,,,,,,,,,,,,
309003,1564153053702,-2,2.61,0.99,0.37,1.53,1.12,0.89,-0.53,0.57,21,-1,28,1.04,4961,0,101,44,52,863,277.0,345,464,60,123.0,150,1,286,223,42,0,0,398,10818,24064,277,-5.59,,,,,,,,,,,,
309023,1564153053722,-1,2.6,1.0,0.38,1.53,1.11,0.92,-0.51,0.65,21,-1,27,1.05,5002,0,101,44,52,866,276.0,356,462,60,123.0,150,1,291,227,42,0,0,27,250,1886,276,-5.59,,,,,,,,,,,,
309043,1564153053742,1,2.61,1.0,0.37,1.53,1.11,1.01,-0.49,0.66,21,-3,27,1.12,4966,0,101,44,52,871,275.0,358,466,60,123.0,150,1,287,226,42,0,0,245,250,630,275,-5.59,44.680973,10.024505,27.08,175.0,0,0.0,-1,0.0,0.0,0,1.99,5.1507
309063,1564153053762,-0,2.61,1.0,0.37,1.53,1.11,0.88,-0.48,0.63,21,-1,28,1.01,4914,0,101,44,52,875,276.0,343,461,60,122.0,150,1,280,226,42,0,0,247,10812,-1534,276,181.28,,,,,,,,,,,,
309083,1564153053782,-2,2.62,1.0,0.38,1.52,1.12,0.85,-0.49,0.63,22,1,27,0.98,4905,0,101,44,52,877,275.0,353,463,60,124.0,152,1,280,226,42,0,0,247,15360,250,275,-5.59,,,,,,,,,,,,
309103,1564153053802,-1,2.61,1.0,0.37,1.53,1.12,0.9,-0.39,0.66,22,-1,28,0.98,4895,0,101,44,52,880,272.0,355,465,60,122.0,152,1,278,225,42,0,0,249,250,250,272,-5.59,,,,,,,,,,,,
309123,1564153053822,1,2.61,1.0,0.37,1.53,1.12,0.88,-0.43,0.63,22,-2,28,0.98,4905,0,101,44,52,881,272.0,355,463,60,120.0,152,1,280,153,42,0,0,247,-1445,2414,272,-5.59,,,,,,,,,,,,
309143,1564153053842,0,2.61,1.01,0.37,1.54,1.12,0.82,-0.41,0.54,22,0,29,0.91,4870,0,101,44,52,882,270.0,343,460,60,123.0,152,1,275,225,42,0,0,246,23482,-1527,270,-5.59,44.680965,10.024499,27.11,175.0,0,0.0,-1,0.0,0.0,0,1.99,5.1524
309163,1564153053862,-1,2.62,1.0,0.37,1.53,1.12,0.79,-0.45,0.58,22,1,28,0.91,4849,0,101,44,53,882,269.0,346,466,60,124.0,152,1,277,227,42,0,0,243,-17920,-1527,269,-5.59,,,,,,,,,,,,
309183,1564153053882,0,2.61,1.01,0.38,1.53,1.13,0.84,-0.4,0.59,22,0,28,0.93,4831,0,101,44,53,881,268.0,352,469,60,122.0,152,1,274,227,41,0,0,244,250,-1,268,-5.59,,,,,,,,,,,,
309203,1564153053904,1,2.62,1.0,0.38,1.53,1.12,0.89,-0.4,0.63,22,-2,28,0.97,4799,0,101,44,52,878,268.0,346,465,60,121.0,152,1,266,226,41,0,0,243,-1484,-1281,268,-5.59,,,,,,,,,,,,
309223,1564153053924,2,2.61,1.0,0.38,1.53,1.12,0.9,-0.46,0.61,22,-2,29,1.01,4746,0,101,44,52,875,266.0,341,464,60,122.0,152,1,260,223,41,0,0,242,-1484,-1281,266,-5.59,,,,,,,,,,,,
309243,1564153053944,2,2.61,1.01,0.37,1.53,1.12,0.87,-0.43,0.51,22,-0,29,0.97,4722,0,101,44,52,873,265.0,336,461,60,122.0,152,1,257,223,41,0,0,240,-25600,-1,265,-5.59,44.680962,10.024493,26.08,175.0,0,0.0,-1,0.0,0.0,0,1.99,5.154
309263,1564153053964,-0,2.6,1.0,0.37,1.53,1.12,0.82,-0.42,0.49,22,2,29,0.92,4698,0,101,44,52,871,264.0,323,459,60,123.0,152,1,254,222,41,0,0,239,250,-1,264,181.28,,,,,,,,,,,,
309283,1564153053984,-1,2.61,1.0,0.38,1.53,1.12,0.83,-0.44,0.53,23,2,28,0.94,4726,0,101,44,53,870,264.0,330,465,60,124.0,147,1,261,226,39,0,0,238,250,-1,264,-5.59,,,,,,,,,,,,
309303,1564153053996,-1,2.6,1.01,0.37,1.53,1.12,0.86,-0.39,0.54,23,1,28,0.94,4664,0,101,44,52,868,262.0,326,466,60,124.0,147,1,249,149,39,0,0,238,13602,-1,262,-5.59,,,,,,,,,,,,
309323,1564153054016,-2,2.62,1.0,0.38,1.54,1.12,0.9,-0.33,0.56,22,-1,29,0.96,4663,0,101,44,52,868,261.0,335,466,60,122.0,147,1,249,225,39,0,0,238,13602,-1,261,-5.59,,,,,,,,,,,,
309343,1564153054036,-2,2.61,1.01,0.37,1.53,1.13,0.98,-0.31,0.57,22,-3,29,1.02,4665,0,101,44,52,868,259.0,334,470,60,121.0,147,1,250,222,39,0,0,238,250,-1,259,-5.59,44.680958,10.024487,25.38,175.0,0,0.0,-1,0.0,0.0,0,1.99,5.1557
309363,1564153054056,1,2.61,1.01,0.38,1.54,1.12,0.99,-0.34,0.56,22,-3,29,1.05,4664,0,101,44,53,867,259.0,336,463,60,121.0,147,1,252,152,39,0,0,238,250,-10440,259,-5.59,,,,,,,,,,,,
309383,1564153054076,1,2.61,1.0,0.37,1.53,1.12,0.99,-0.41,0.57,21,-4,30,1.07,4627,0,101,44,52,865,258.0,328,462,60,123.0,147,1,245,222,38,0,0,34,-1494,-10440,258,-5.59,,,,,,,,,,,,
309403,1564153054104,0,2.61,1.01,0.38,1.54,1.13,0.97,-0.4,0.55,21,-4,31,1.05,4617,0,101,44,52,864,257.0,322,461,60,124.0,147,1,244,222,38,0,0,229,-1494,-10440,257,-5.59,,,,,,,,,,,,
309423,1564153054124,2,2.6,1.01,0.38,1.54,1.12,0.96,-0.4,0.49,21,-3,31,1.04,4589,0,101,44,52,862,256.0,328,460,60,124.0,147,1,241,221,38,0,0,231,10824,14337,256,-5.59,,,,,,,,,,,,
309443,1564153054144,1,2.6,1.0,0.38,1.53,1.12,0.95,-0.38,0.44,21,-1,30,1.02,4527,0,101,44,52,860,255.0,318,461,60,124.0,147,1,233,220,38,0,0,231,18432,14337,255,-5.59,44.680954,10.02448,25.02,175.0,0,0.0,-1,0.0,0.0,0,1.99,5.1574
309463,1564153054164,2,2.6,1.01,0.37,1.53,1.12,0.94,-0.38,0.37,21,-0,30,1.01,4544,0,101,44,53,857,254.0,320,463,60,124.0,147,1,238,220,38,0,0,229,250,-10440,254,181.28,,,,,,,,,,,,
309483,1564153054184,2,2.58,1.0,0.37,1.53,1.12,0.9,-0.33,0.3,20,1,31,0.96,4492,0,101,44,53,855,252.0,317,460,60,125.0,150,1,231,219,38,0,0,230,-1496,506,252,-5.59,,,,,,,,,,,,
309503,1564153054204,2,2.56,1.01,0.37,1.53,1.12,0.87,-0.35,0.28,20,2,30,0.94,4528,0,101,44,52,853,251.0,317,458,60,123.0,150,1,233,220,38,0,0,229,10318,-1281,251,181.28,,,,,,,,,,,,
309523,1564153054224,3,2.55,1.0,0.38,1.52,1.12,0.85,-0.35,0.26,20,3,30,0.91,4503,0,101,44,52,851,250.0,315,463,60,124.0,150,1,229,220,38,0,0,228,19968,-1,250,181.28,,,,,,,,,,,,
309543,1564153054244,2,2.54,1.0,0.38,1.53,1.12,0.81,-0.37,0.22,20,3,29,0.9,4488,3,101,44,52,849,249.0,317,460,60,124.0,150,1,228,219,38,0,0,227,250,16896,249,-5.59,44.68095,10.024473,24.49,175.1,0,0.0,-1,0.0,0.0,0,1.99,5.159
309563,1564153054264,2,2.53,1.0,0.37,1.53,1.12,0.79,-0.32,0.18,19,5,29,0.85,4455,3,101,44,52,847,247.0,315,459,60,124.0,150,1,224,219,38,0,0,229,250,10818,247,-5.59,,,,,,,,,,,,
309583,1564153054284,2,2.5,1.0,0.37,1.52,1.12,0.8,-0.33,0.15,18,5,29,0.87,4464,4,101,44,52,846,245.0,316,457,60,124.0,146,1,225,219,36,0,0,229,250,10812,245,-5.59,,,,,,,,,,,,
309603,1564153054304,1,2.48,1.0,0.37,1.53,1.12,0.82,-0.32,0.12,18,5,29,0.88,4450,4,101,44,52,846,244.0,315,461,60,123.0,146,1,223,219,36,0,0,227,-1530,15360,244,-5.59,,,,,,,,,,,,
309623,1564153054324,-1,2.46,0.99,0.36,1.51,1.11,0.83,-0.33,0.07,17,5,28,0.89,4461,5,101,44,52,847,243.0,312,461,60,123.0,146,1,225,219,36,0,0,228,-1530,15360,243,-5.59,,,,,,,,,,,,
309643,1564153054344,-1,2.45,0.98,0.37,1.51,1.11,0.84,-0.37,0.1,16,5,27,0.92,4418,5,101,44,52,849,241.0,309,456,60,123.0,146,1,219,219,36,0,0,228,250,23482,241,-5.59,44.680946,10.024466,23.78,175.1,0,0.0,-1,0.0,0.0,0,1.99,5.1607
309663,1564153054364,-1,2.43,0.96,0.36,1.49,1.09,0.83,-0.32,0.07,15,4,26,0.89,4419,5,101,44,52,851,238.0,320,461,60,122.0,146,1,219,219,36,0,0,228,250,23482,238,-5.59,,,,,,,,,,,,
309683,1564153054384,-1,2.4,0.93,0.35,1.47,1.08,0.85,-0.3,0.08,14,3,26,0.9,4384,5,101,44,52,853,237.0,318,464,60,121.0,151,1,215,145,36,0,0,229,-1530,-1484,237,-5.59,,,,,,,,,,,,
309703,1564153054405,-1,2.39,0.9,0.34,1.43,1.07,0.88,-0.27,0.17,13,1,25,0.92,4386,5,101,44,52,856,236.0,320,467,60,122.0,151,1,215,218,36,0,0,231,250,-17920,235,-5.59,,,,,,,,,,,,
309723,1564153054425,-2,2.39,0.88,0.33,1.41,1.06,0.9,-0.2,0.22,13,-1,23,0.92,4394,5,101,44,52,857,234.0,316,470,60,123.0,151,1,216,218,36,0,0,230,250,-17920,234,-5.59,,,,,,,,,,,,
309743,1564153054445,-0,2.37,0.86,0.33,1.39,1.06,0.93,-0.19,0.31,12,-2,21,0.95,4350,5,101,44,52,857,232.0,316,468,60,122.0,151,1,211,218,36,0,0,230,19968,250,232,-5.59,44.680946,10.024459,23.72,175.1,0,0.0,-1,0.0,0.0,0,1.99,5.1624
309763,1564153054465,-1,2.35,0.85,0.32,1.38,1.05,0.94,-0.14,0.38,11,-3,19,0.95,4348,5,101,44,52,857,231.0,313,467,60,123.0,151,1,212,218,36,0,0,231,250,250,231,-5.59,,,,,,,,,,,,
309783,1564153054485,-0,2.35,0.85,0.33,1.38,1.05,0.91,-0.12,0.42,10,-2,17,0.91,4360,5,101,44,52,857,230.0,309,462,60,124.0,156,1,212,218,36,0,0,229,19968,-1483,230,-5.59,,,,,,,,,,,,
309803,1564153054503,2,2.34,0.85,0.33,1.38,1.05,0.85,-0.08,0.38,9,-1,15,0.85,4331,5,101,44,52,858,229.0,307,463,60,125.0,156,1,209,218,36,0,0,230,19968,13602,229,181.28,,,,,,,,,,,,
309823,1564153054523,3,2.33,0.85,0.32,1.39,1.05,0.82,-0.1,0.37,8,1,14,0.82,4305,5,101,44,52,858,228.0,301,461,60,125.0,156,1,205,218,36,0,0,231,250,8704,228,-5.59,,,,,,,,,,,,
309843,1564153054543,1,2.32,0.86,0.33,1.39,1.06,0.85,-0.11,0.34,7,1,14,0.86,4317,5,101,44,52,860,227.0,308,462,60,124.0,156,1,207,218,36,0,0,231,19968,250,227,-5.59,44.680943,10.024451,22.98,175.1,0,0.0,-1,0.0,0.0,0,1.99,5.1641
309863,1564153054563,-1,2.31,0.87,0.33,1.4,1.06,0.85,-0.12,0.29,6,1,13,0.86,4298,5,101,44,52,867,225.0,310,460,60,123.0,156,1,205,217,36,0,0,231,19968,10824,225,-5.59,,,,,,,,,,,,
309883,1564153054583,-2,2.32,0.86,0.33,1.39,1.06,0.87,-0.1,0.32,5,-0,12,0.88,4334,5,101,44,52,874,225.0,311,462,60,123.0,160,1,209,145,36,0,0,230,250,-1494,225,-5.59,,,,,,,,,,,,
309903,1564153054605,-0,2.31,0.86,0.33,1.4,1.06,0.9,-0.05,0.37,5,-2,10,0.9,4288,5,101,44,52,881,224.0,313,461,60,122.0,160,1,203,221,36,0,0,228,250,18432,223,-5.59,,,,,,,,,,,,
309923,1564153054625,-2,2.31,0.86,0.33,1.39,1.05,0.9,0.02,0.44,4,-2,9,0.9,4282,5,101,44,53,887,224.0,310,470,60,123.0,160,1,204,221,36,0,0,228,-1530,18432,222,-5.59,,,,,,,,,,,,
309943,1564153054645,3,2.3,0.85,0.33,1.4,1.05,0.85,0.05,0.46,4,-1,7,0.85,4298,5,101,44,53,898,223.0,307,467,60,124.0,160,1,207,221,36,0,0,230,-1530,18432,222,-5.59,44.680939,10.024445,22.8,175.1,0,0.0,-1,0.0,0.0,0,1.99,5.1657
309963,1564153054665,1,2.31,0.86,0.33,1.39,1.06,0.82,0.04,0.41,4,0,6,0.83,4227,5,101,44,53,908,222.0,297,462,60,124.0,160,1,197,221,36,0,0,228,1596,-1496,222,181.28,,,,,,,,,,,,
309983,1564153054685,-0,2.3,0.86,0.33,1.39,1.06,0.85,0.01,0.38,3,-0,6,0.85,4223,5,101,44,53,913,221.0,301,458,60,124.0,157,1,197,221,35,0,0,228,15360,250,221,-5.59,,,,,,,,,,,,
310003,1564153054703,-2,2.31,0.86,0.34,1.41,1.06,0.87,-0.03,0.4,3,-1,5,0.87,4239,5,101,44,53,917,222.0,303,462,60,123.0,157,1,199,221,35,0,0,228,1596,250,221,-5.59,,,,,,,,,,,,
310023,1564153054723,-1,2.3,0.86,0.34,1.4,1.06,0.89,-0.04,0.45,3,-2,4,0.89,4181,5,101,44,53,925,221.0,306,470,60,121.0,157,1,191,220,35,0,0,226,15360,19968,220,-5.59,,,,,,,,,,,,
310043,1564153054743,3,2.31,0.87,0.33,1.4,1.06,0.87,-0.01,0.47,2,-1,3,0.87,4189,5,101,44,53,932,221.0,302,463,60,124.0,157,1,192,220,35,0,0,224,15360,19968,220,181.28,44.680935,10.024438,22.24,175.1,0,0.0,-1,0.0,0.0,0,1.99,5.1674
310063,1564153054763,2,2.32,0.87,0.33,1.41,1.06,0.83,-0.01,0.46,2,0,2,0.83,4191,5,101,44,53,935,220.0,295,460,60,125.0,157,1,193,220,35,0,0,225,250,-1530,220,-5.59,,,,,,,,,,,,
310083,1564153054783,-0,2.32,0.86,0.32,1.41,1.06,0.84,-0.01,0.4,2,1,2,0.84,4157,5,101,44,53,938,219.0,298,458,60,124.0,155,1,188,220,34,0,0,224,-1532,250,218,-5.59,,,,,,,,,,,,
310103,1564153054805,-1,2.32,0.87,0.35,1.41,1.06,0.86,-0.04,0.41,2,-0,3,0.86,4203,5,101,44,53,940,219.0,300,461,60,123.0,155,1,194,221,34,0,0,223,-17920,15360,219,-5.59,,,,,,,,,,,,
310123,1564153054825,-2,2.32,0.87,0.34,1.41,1.06,0.89,-0.0,0.48,1,-2,2,0.89,4200,5,101,44,53,943,218.0,305,468,60,122.0,155,1,194,221,34,0,0,224,1210,15360,217,-5.59,,,,,,,,,,,,
310143,1564153054845,3,2.33,0.87,0.33,1.41,1.07,0.85,0.05,0.48,1,-2,1,0.85,4155,5,101,44,53,943,217.0,296,465,60,124.0,155,1,188,220,34,0,0,222,250,1596,216,-5.59,44.680931,10.02443,22.1,175.1,0,0.0,-1,0.0,0.0,0,2.0,5.1691
310163,1564153054865,2,2.33,0.87,0.34,1.42,1.06,0.82,0.03,0.47,1,-0,1,0.82,4189,5,101,44,53,943,217.0,293,459,60,125.0,155,1,192,220,34,0,0,219,250,-1532,217,-5.59,,,,,,,,,,,,
310183,1564153054885,-2,2.32,0.87,0.35,1.41,1.06,0.85,-0.0,0.43,1,-1,2,0.85,4152,5,101,44,53,942,216.0,302,462,60,124.0,156,1,187,147,34,0,0,220,250,15360,215,-5.59,,,,,,,,,,,,
310203,1564153054905,-0,2.32,0.88,0.34,1.42,1.07,0.85,-0.01,0.48,1,-2,2,0.85,4118,5,101,44,53,941,216.0,301,463,60,122.0,156,1,183,219,34,0,0,221,-1532,250,216,-5.59,,,,,,,,,,,,
310223,1564153054925,3,2.32,0.87,0.33,1.42,1.07,0.83,0.03,0.51,1,-1,1,0.83,4150,5,101,44,53,941,215.0,296,470,60,123.0,156,1,188,220,34,0,0,220,-1532,1596,215,-5.59,,,,,,,,,,,,
310243,1564153054945,0,2.32,0.87,0.34,1.42,1.06,0.79,0.04,0.51,1,1,0,0.79,4109,5,101,44,53,940,215.0,291,462,60,124.0,156,1,182,219,34,0,0,220,-1532,250,215,181.28,44.680927,10.024425,21.9,175.1,0,0.0,-1,0.0,0.0,0,2.0,5.1707
310263,1564153054965,-1,2.32,0.87,0.33,1.42,1.06,0.84,0.01,0.5,1,-0,1,0.84,4056,5,101,44,53,938,214.0,291,456,60,125.0,156,1,176,218,34,0,0,220,1088,15360,215,-5.59,,,,,,,,,,,,
310283,1564153054985,-2,2.31,0.87,0.33,1.41,1.07,0.85,-0.01,0.56,1,-1,1,0.85,4092,5,101,44,53,936,214.0,291,470,60,122.0,154,1,180,218,33,0,0,219,1088,-1532,213,-5.59,,,,,,,,,,,,
310303,1564153054995,1,2.3,0.86,0.32,1.41,1.06,0.81,0.03,0.56,0,0,-0,0.81,4062,5,101,44,53,935,213.0,290,460,60,124.0,154,1,177,218,33,0,0,218,16384,1210,213,181.28,,,,,,,,,,,,
310323,1564153055015,-1,2.3,0.87,0.32,1.41,1.05,0.83,0.05,0.51,0,0,-0,0.83,4036,5,101,44,53,933,214.0,286,455,60,124.0,154,1,173,218,33,0,0,218,1088,-17920,213,-5.59,,,,,,,,,,,,
310343,1564153055035,-0,2.29,0.87,0.33,1.4,1.06,0.87,0.01,0.55,-0,-1,0,0.87,4076,5,101,44,53,933,213.0,295,462,60,122.0,154,1,178,218,33,0,0,217,16384,1088,213,-5.59,44.680927,10.024418,21.37,175.2,0,0.0,-1,0.0,0.0,0,2.0,5.1724
310363,1564153055055,2,2.29,0.87,0.33,1.41,1.06,0.87,0.03,0.57,-0,-1,-1,0.87,4064,5,101,44,53,935,213.0,292,468,60,123.0,154,1,177,218,33,0,0,217,16384,-1532,211,-5.59,,,,,,,,,,,,
310383,1564153055075,-0,2.28,0.87,0.32,1.41,1.06,0.85,0.06,0.54,-1,1,-1,0.85,4040,5,101,44,53,936,211.0,286,461,60,125.0,157,1,174,218,33,0,0,217,-1533,16384,210,181.28,,,,,,,,,,,,
310403,1564153055105,-1,2.29,0.87,0.33,1.41,1.07,0.87,0.04,0.52,-1,-0,-0,0.87,4084,5,101,44,53,939,211.0,290,456,60,124.0,157,1,179,218,33,0,0,218,-1533,250,209,-5.59,,,,,,,,,,,,
310423,1564153055125,2,2.28,0.87,0.32,1.41,1.06,0.89,0.06,0.56,-1,-1,-1,0.89,4021,5,101,44,53,942,211.0,293,467,60,122.0,157,1,171,218,33,0,0,216,-1533,250,209,-5.59,,,,,,,,,,,,
310443,1564153055145,-0,2.28,0.87,0.33,1.42,1.07,0.83,0.1,0.55,-1,1,-1,0.84,4011,5,101,44,53,948,210.0,286,458,60,125.0,157,1,170,218,33,0,0,215,966,16384,209,-5.59,44.680923,10.02441,21.39,175.2,0,0.0,-1,0.0,0.0,0,2.0,5.174
310463,1564153055165,-2,2.28,0.87,0.32,1.41,1.06,0.86,0.1,0.52,-1,0,-1,0.87,4013,5,101,44,53,953,210.0,291,460,60,123.0,157,1,170,218,33,0,0,215,966,250,208,-5.59,,,,,,,,,,,,
310483,1564153055185,3,2.26,0.87,0.32,1.42,1.06,0.89,0.11,0.53,-1,-1,-1,0.89,3963,5,101,44,53,956,210.0,290,471,60,123.0,154,1,167,217,32,0,0,216,966,16384,207,414.87,,,,,,,,,,,,
310503,1564153055205,-2,2.25,0.86,0.31,1.41,1.06,0.85,0.14,0.55,-1,1,-1,0.86,3970,5,101,44,53,959,210.0,282,463,60,125.0,154,1,167,217,32,0,0,215,966,250,207,181.28,,,,,,,,,,,,
310523,1564153055225,-1,2.24,0.86,0.31,1.41,1.05,0.88,0.11,0.5,-1,-0,-1,0.88,3984,5,101,44,53,963,209.0,292,459,60,122.0,154,1,168,217,32,0,0,213,-14848,250,206,-5.59,,,,,,,,,,,,
310543,1564153055245,1,2.22,0.85,0.31,1.41,1.04,0.9,0.14,0.54,-2,-1,-2,0.91,3969,5,101,44,53,965,209.0,286,467,60,122.0,154,1,167,217,32,0,0,214,-14848,966,205,414.87,44.680923,10.024405,20.92,175.2,0,0.0,-1,0.0,0.0,0,2.0,5.1757
310563,1564153055265,-1,2.19,0.84,0.31,1.39,1.04,0.88,0.19,0.5,-3,1,-2,0.9,3959,5,101,44,53,965,211.0,281,463,60,125.0,154,1,167,217,32,0,0,214,-1533,966,204,181.28,,,,,,,,,,,,
310583,1564153055285,-0,2.16,0.82,0.3,1.38,1.03,0.91,0.16,0.51,-3,-1,-2,0.92,3958,5,101,44,53,965,210.0,291,466,60,121.0,157,1,167,217,32,0,0,215,966,250,203,-5.59,,,,,,,,,,,,
310603,1564153055305,2,2.14,0.79,0.29,1.36,1.02,0.89,0.18,0.49,-4,-0,-3,0.91,3944,5,101,44,53,966,211.0,287,472,60,123.0,157,1,166,216,32,0,0,216,-1533,-1482,201,-5.59,,,,,,,,,,,,
310623,1564153055325,0,2.11,0.78,0.29,1.36,1.01,0.89,0.23,0.49,-5,0,-4,0.91,3985,6,101,44,53,967,211.0,283,462,60,125.0,157,1,168,217,32,0,0,215,-1533,-1482,201,-5.59,,,,,,,,,,,,
310643,1564153055345,-0,2.1,0.77,0.28,1.35,1.0,0.92,0.2,0.49,-6,-1,-5,0.94,3949,6,101,44,53,968,212.0,292,465,60,122.0,157,1,166,216,32,0,0,217,250,250,199,-5.59,44.68092,10.024398,20.84,175.2,0,0.0,-1,0.0,0.0,0,2.0,5.1774
310663,1564153055365,2,2.08,0.75,0.27,1.34,1.0,0.89,0.24,0.47,-7,0,-7,0.92,3925,5,101,44,53,969,212.0,278,464,60,125.0,157,1,166,216,32,0,0,217,250,13874,199,181.28,,,,,,,,,,,,
310683,1564153055385,-2,2.05,0.74,0.27,1.33,0.99,0.88,0.26,0.47,-8,0,-8,0.92,3974,6,101,44,53,971,213.0,281,455,60,125.0,163,1,167,217,32,0,0,218,16384,-1480,196,-5.59,,,,,,,,,,,,
310703,1564153055404,0,2.03,0.74,0.27,1.33,0.98,0.89,0.27,0.49,-9,-0,-9,0.93,3957,5,101,44,53,973,212.0,290,468,60,122.0,163,1,167,217,32,0,0,217,250,14412,195,-5.59,,,,,,,,,,,,
310723,1564153055424,0,2.01,0.74,0.26,1.33,0.98,0.86,0.33,0.45,-11,1,-11,0.93,3934,6,101,44,54,974,213.0,281,466,60,125.0,163,1,167,221,32,0,0,219,16384,14326,194,181.28,,,,,,,,,,,,
310743,1564153055444,-2,1.99,0.74,0.27,1.33,0.98,0.88,0.33,0.48,-11,0,-12,0.94,3973,6,101,44,53,975,214.0,282,455,60,124.0,163,1,167,217,32,0,0,215,1088,-1481,192,-5.59,44.680916,10.024392,20.32,175.2,0,0.0,-1,0.0,0.0,0,2.0,5.179
310763,1564153055464,1,1.97,0.75,0.27,1.33,0.99,0.85,0.35,0.46,-12,0,-13,0.92,3946,5,101,44,53,976,215.0,289,472,60,122.0,163,1,166,217,32,0,0,218,-1532,250,191,-5.59,,,,,,,,,,,,
310783,1564153055484,-0,1.95,0.75,0.27,1.34,0.99,0.84,0.39,0.46,-13,1,-15,0.93,3908,6,101,44,54,975,215.0,280,461,60,124.0,168,1,166,216,32,0,0,218,-1532,-2560,190,-5.59,,,,,,,,,,,,
310803,1564153055502,-2,1.93,0.75,0.27,1.34,0.98,0.89,0.39,0.49,-14,-0,-16,0.97,3936,6,101,44,53,975,215.0,286,460,60,122.0,168,1,166,216,32,0,0,218,-1532,-1281,189,-5.59,,,,,,,,,,,,
310823,1564153055522,1,1.92,0.76,0.27,1.34,0.99,0.86,0.42,0.45,-15,1,-18,0.96,3943,6,101,44,54,975,215.0,278,467,60,124.0,168,1,167,216,32,0,0,218,-1532,250,189,181.28,,,,,,,,,,,,
310843,1564153055542,-0,1.91,0.77,0.27,1.35,0.99,0.86,0.42,0.45,-16,1,-19,0.95,3916,6,101,44,53,977,216.0,285,455,60,124.0,168,1,165,143,32,0,0,219,-17920,-1,188,-5.59,44.680916,10.024385,19.98,175.2,0,0.0,-1,0.0,0.0,0,2.0,5.1807
310863,1564153055562,2,1.89,0.77,0.27,1.35,0.99,0.88,0.42,0.45,-17,-0,-20,0.98,3890,5,101,44,54,980,217.0,281,468,60,121.0,168,1,165,147,32,0,0,217,-17920,-1,187,-5.59,,,,,,,,,,,,
310883,1564153055582,-1,1.87,0.77,0.27,1.35,1.0,0.86,0.45,0.45,-19,1,-22,0.97,3910,6,101,44,53,983,217.0,277,457,60,125.0,172,1,165,216,32,0,0,219,-17920,-1,185,-5.59,,,,,,,,,,,,
310903,1564153055602,-2,1.86,0.77,0.28,1.35,1.0,0.91,0.44,0.46,-20,-1,-23,1.01,3900,6,101,44,53,985,217.0,286,457,60,123.0,172,1,165,216,32,0,0,220,-17920,-1,185,-5.59,,,,,,,,,,,,
310923,1564153055622,0,1.85,0.78,0.28,1.36,0.99,0.89,0.49,0.43,-21,-0,-25,1.02,3853,6,101,44,54,986,218.0,279,468,60,124.0,172,1,164,220,32,0,0,220,1210,-1,184,181.28,,,,,,,,,,,,
310943,1564153055642,-1,1.84,0.77,0.28,1.35,0.99,0.9,0.49,0.45,-22,-1,-26,1.02,3884,6,101,44,54,986,217.0,277,455,60,124.0,172,1,165,220,32,0,0,217,-17920,-1,183,-5.59,44.680912,10.02438,19.57,175.2,0,0.0,-1,0.0,0.0,0,2.0,5.1824
310963,1564153055662,3,1.81,0.78,0.28,1.36,0.99,0.89,0.49,0.44,-23,-1,-27,1.02,3874,6,101,44,54,984,218.0,285,472,60,121.0,172,1,164,220,32,0,0,218,1210,-1,181,-5.59,,,,,,,,,,,,
310983,1564153055682,-1,1.8,0.78,0.28,1.36,1.0,0.86,0.52,0.41,-24,0,-29,1.0,3837,6,101,44,54,981,217.0,280,458,60,125.0,170,1,163,219,31,0,0,217,-17920,-236,181,-5.59,,,,,,,,,,,,
311003,1564153055702,-1,1.8,0.78,0.28,1.36,0.99,0.88,0.51,0.45,-25,-1,-30,1.02,3865,13,101,44,55,977,218.0,284,461,60,121.0,170,1,164,224,31,0,0,219,1210,5134,180,-5.59,,,,,,,,,,,,
311023,1564153055722,-1,1.79,0.77,0.28,1.36,0.99,0.87,0.56,0.44,-26,-0,-31,1.04,3890,13,101,44,57,972,219.0,278,466,60,124.0,170,1,166,233,31,0,0,217,-1532,5134,179,181.28,,,,,,,,,,,,
311043,1564153055742,-2,1.78,0.77,0.28,1.35,1.0,0.89,0.52,0.45,-26,-1,-32,1.03,3867,14,101,44,58,970,218.0,287,459,60,122.0,170,1,166,238,31,0,0,218,1210,250,179,-5.59,44.680908,10.024375,19.4,175.2,0,0.0,-1,0.0,0.0,0,2.0,5.1841
311063,1564153055762,2,1.77,0.77,0.28,1.37,0.99,0.89,0.57,0.43,-27,-0,-33,1.06,3884,13,101,44,59,968,218.0,281,466,60,124.0,170,1,167,243,31,0,0,216,1210,3584,179,-5.59,,,,,,,,,,,,
311083,1564153055782,-0,1.77,0.78,0.28,1.37,1.0,0.87,0.58,0.44,-27,1,-34,1.05,3913,14,101,44,60,967,218.0,281,452,60,124.0,206,1,169,249,37,0,0,216,1210,5134,178,-5.59,,,,,,,,,,,,
311103,1564153055804,-0,1.77,0.79,0.28,1.37,1.0,0.88,0.59,0.49,-28,0,-35,1.05,3894,14,101,44,61,968,218.0,289,464,60,122.0,206,1,169,252,37,0,0,217,1210,3584,178,-5.59,,,,,,,,,,,,
311123,1564153055824,-0,1.77,0.79,0.29,1.37,1.01,0.86,0.59,0.49,-29,1,-36,1.04,3858,14,101,44,61,970,218.0,277,468,60,124.0,206,1,167,252,37,0,0,218,1210,-1,178,181.28,,,,,,,,,,,,
311143,1564153055844,-1,1.77,0.79,0.28,1.37,1.0,0.84,0.56,0.53,-29,1,-36,1.01,3839,17,101,44,62,972,217.0,282,452,60,123.0,206,1,168,255,37,0,0,218,-17920,-1,179,-5.59,44.680904,10.024371,18.75,175.3,0,0.0,-1,0.0,0.0,0,2.0,5.1857
311163,1564153055864,-2,1.77,0.79,0.29,1.37,1.01,0.84,0.56,0.53,-29,2,-38,1.01,3750,19,101,44,64,975,218.0,272,466,60,124.0,206,1,171,260,37,0,0,219,-1532,-1,180,-5.59,,,,,,,,,,,,
311183,1564153055884,2,1.77,0.79,0.29,1.38,1.0,0.87,0.54,0.56,-30,-0,-38,1.02,3652,19,101,44,66,978,219.0,278,461,60,121.0,193,1,175,262,35,0,0,220,-1532,-1,181,-5.59,,,,,,,,,,,,
311203,1564153055906,-0,1.77,0.8,0.29,1.37,1.01,0.88,0.53,0.54,-30,-0,-39,1.03,3687,19,101,44,68,980,219.0,268,472,60,124.0,193,1,183,271,35,0,0,219,-1532,-1,180,181.28,,,,,,,,,,,,
311223,1564153055926,1,1.76,0.8,0.29,1.38,1.0,0.89,0.49,0.56,-31,-1,-39,1.01,3588,19,101,44,69,981,219.0,271,463,60,121.0,193,1,181,197,35,0,0,220,-1532,5134,180,-5.59,,,,,,,,,,,,
311243,1564153055946,-0,1.77,0.8,0.29,1.38,1.0,0.88,0.5,0.59,-31,-2,-39,1.01,3541,19,101,44,71,984,220.0,265,462,60,124.0,193,1,180,270,35,0,0,220,250,250,179,-5.59,44.680901,10.024367,18.38,175.3,0,0.0,-1,0.0,0.0,0,2.0,5.1874
311263,1564153055966,-1,1.76,0.8,0.29,1.38,1.01,0.85,0.53,0.54,-32,-0,-40,1.0,3588,19,101,44,72,992,220.0,263,470,60,123.0,193,1,181,275,35,0,0,218,250,250,179,414.87,,,,,,,,,,,,
311283,1564153055986,3,1.75,0.8,0.29,1.38,1.0,0.88,0.51,0.54,-32,-1,-41,1.01,3578,19,101,44,73,998,220.0,270,455,60,122.0,206,1,181,276,37,0,0,218,250,3584,179,-5.59,,,,,,,,,,,,
311303,1564153055996,-1,1.74,0.8,0.29,1.38,1.01,0.86,0.53,0.5,-33,-1,-41,1.01,3593,19,101,44,74,1005,221.0,263,470,60,125.0,206,1,181,280,37,0,0,219,15360,250,178,181.28,,,,,,,,,,,,
311323,1564153056016,-0,1.72,0.8,0.28,1.38,0.99,0.85,0.55,0.45,-33,-0,-42,1.02,3560,19,101,44,74,1018,221.0,264,466,60,122.0,206,1,181,208,37,0,0,219,15360,250,178,-5.59,,,,,,,,,,,,
311343,1564153056036,-1,1.7,0.8,0.28,1.37,1.0,0.89,0.55,0.48,-33,-2,-42,1.04,3539,19,101,44,75,1039,219.0,265,451,60,125.0,206,1,180,279,37,0,0,217,-1532,250,177,-5.59,44.680897,10.024364,18.58,175.3,0,0.0,-1,0.0,0.0,0,2.0,5.1891
311363,1564153056056,-2,1.69,0.79,0.28,1.38,1.0,0.88,0.6,0.44,-34,-0,-43,1.06,3541,19,101,44,75,1059,220.0,261,474,60,125.0,206,1,180,279,37,0,0,217,-1532,10620,176,181.28,,,,,,,,,,,,
311383,1564153056076,1,1.67,0.8,0.28,1.38,0.99,0.9,0.6,0.43,-35,-0,-43,1.08,3579,19,101,44,76,1073,220.0,266,455,60,123.0,217,1,182,285,38,0,0,217,250,-1,175,-5.59,,,,,,,,,,,,
311403,1564153056096,-1,1.67,0.8,0.29,1.38,1.0,0.9,0.61,0.45,-35,-2,-44,1.08,3606,19,101,44,75,1093,220.0,266,453,60,125.0,217,1,182,284,38,0,0,216,250,-1,175,-5.59,,,,,,,,,,,,
311423,1564153056116,-1,1.67,0.8,0.29,1.38,1.0,0.89,0.65,0.42,-36,-0,-45,1.1,3554,19,101,44,76,1126,219.0,263,467,60,123.0,217,1,181,284,38,0,0,218,15360,-1,173,-5.59,,,,,,,,,,,,
311443,1564153056136,2,1.67,0.8,0.29,1.37,1.0,0.92,0.65,0.46,-36,-2,-46,1.12,3511,19,101,44,76,1155,220.0,267,453,60,122.0,217,1,180,280,38,0,0,215,250,-253,173,-5.59,44.680893,10.024361,18.61,175.3,0,0.0,-1,0.0,0.0,0,2.0,5.1907
311463,1564153056156,0,1.66,0.79,0.29,1.39,1.0,0.91,0.63,0.46,-36,-1,-46,1.11,3541,19,101,44,77,1173,219.0,259,471,60,125.0,217,1,181,290,38,0,0,215,-1532,-253,172,-5.59,,,,,,,,,,,,
311483,1564153056176,-1,1.67,0.81,0.28,1.39,1.0,0.89,0.68,0.4,-37,1,-47,1.12,3568,19,101,44,77,1198,218.0,262,475,60,123.0,226,1,181,291,39,0,0,214,1210,250,171,414.87,,,,,,,,,,,,
311503,1564153056204,-0,1.67,0.8,0.29,1.38,1.01,0.91,0.66,0.43,-37,-2,-47,1.12,3581,19,101,44,77,1243,218.0,266,454,60,125.0,226,1,182,221,39,0,0,215,1210,30720,171,-5.59,,,,,,,,,,,,
311523,1564153056224,-1,1.68,0.8,0.29,1.39,1.01,0.9,0.66,0.42,-37,-1,-48,1.12,3596,19,101,44,77,1287,217.0,260,472,60,126.0,226,1,182,293,39,0,0,212,-17920,-1494,170,181.28,,,,,,,,,,,,
311543,1564153056244,1,1.68,0.81,0.3,1.39,1.01,0.9,0.64,0.45,-37,-1,-49,1.11,3614,19,101,44,77,1314,216.0,267,461,60,122.0,226,1,183,294,39,0,0,211,250,10764,170,-5.59,44.680885,10.024359,18.24,175.3,0,0.0,-1,0.0,0.0,0,2.0,5.1924
311563,1564153056264,-0,1.69,0.82,0.3,1.4,1.01,0.89,0.64,0.47,-37,-1,-49,1.09,3647,19,101,44,76,1344,216.0,263,469,60,126.0,226,1,184,289,39,0,0,210,250,-1494,169,181.28,,,,,,,,,,,,
311583,1564153056284,1,1.7,0.83,0.3,1.4,1.02,0.89,0.63,0.45,-37,1,-49,1.09,3635,19,101,44,76,1387,215.0,270,467,60,122.0,232,1,183,289,39,0,0,211,-1532,3072,168,-5.59,,,,,,,,,,,,
311603,1564153056300,0,1.71,0.83,0.31,1.4,1.02,0.89,0.64,0.5,-37,-1,-48,1.1,3608,19,101,44,76,1430,215.0,268,448,60,123.0,232,1,183,294,39,0,0,211,-1532,-1494,169,-5.59,,,,,,,,,,,,
311623,1564153056320,-2,1.73,0.83,0.31,1.41,1.03,0.88,0.65,0.49,-37,1,-49,1.09,3584,19,101,44,77,1447,214.0,262,475,60,125.0,232,1,182,286,39,0,0,210,1088,30720,170,-5.59,,,,,,,,,,,,
311643,1564153056340,2,1.74,0.83,0.31,1.4,1.03,0.91,0.61,0.54,-37,0,-49,1.09,3594,20,101,44,77,1464,212.0,268,448,60,121.0,232,1,182,293,39,0,0,210,250,250,169,-5.59,44.680885,10.024358,17.64,175.4,0,0.0,-1,0.0,0.0,0,2.0,5.194
311663,1564153056360,-0,1.75,0.84,0.31,1.4,1.03,0.9,0.59,0.55,-36,0,-48,1.08,3547,20,101,44,76,1480,210.0,263,462,60,124.0,232,1,181,283,39,0,0,207,966,250,168,-5.59,,,,,,,,,,,,
311683,1564153056380,-2,1.76,0.84,0.31,1.41,1.02,0.88,0.59,0.5,-36,1,-48,1.06,3525,20,101,44,77,1496,210.0,261,473,60,123.0,224,1,180,218,38,0,0,206,966,30720,169,-5.59,,,,,,,,,,,,
311703,1564153056403,3,1.76,0.85,0.31,1.42,1.03,0.9,0.59,0.54,-36,-1,-47,1.08,3518,20,101,44,77,1498,209.0,267,451,60,123.0,224,1,180,289,38,0,0,207,-14848,888,168,-5.59,,,,,,,,,,,,
311723,1564153056423,-0,1.77,0.84,0.31,1.42,1.03,0.86,0.55,0.55,-35,-2,-47,1.02,3508,20,101,44,77,1498,207.0,260,466,60,125.0,224,1,180,288,38,0,0,207,-1482,30720,169,-5.59,,,,,,,,,,,,
311743,1564153056443,-2,1.78,0.84,0.31,1.42,1.03,0.87,0.57,0.54,-35,0,-47,1.04,3479,20,101,44,77,1498,209.0,260,465,60,123.0,224,1,180,286,38,0,0,208,-14848,888,169,-5.59,44.680878,10.024357,17.56,175.4,0,0.0,-1,0.0,0.0,0,2.0,5.1957
311763,1564153056463,3,1.77,0.85,0.31,1.42,1.03,0.9,0.53,0.55,-35,-1,-46,1.04,3445,20,101,44,77,1498,207.0,262,455,60,122.0,224,1,180,284,38,0,0,206,-1482,30720,169,-5.59,,,,,,,,,,,,
311783,1564153056483,-0,1.77,0.85,0.31,1.42,1.03,0.88,0.51,0.59,-35,-3,-46,1.02,3406,34,101,44,80,1498,207.0,258,459,60,125.0,255,1,180,231,43,0,0,206,-1482,-1,168,-5.59,,,,,,,,,,,,
311803,1564153056503,-2,1.77,0.84,0.31,1.42,1.03,0.87,0.5,0.56,-34,-1,-46,1.01,3362,39,101,44,84,1498,206.0,251,474,60,124.0,255,1,180,357,43,0,0,206,13964,888,168,181.28,,,,,,,,,,,,
311823,1564153056523,-1,1.77,0.85,0.31,1.42,1.04,0.84,0.53,0.53,-34,0,-45,0.99,3360,40,101,44,87,1498,206.0,254,463,60,122.0,255,1,180,357,43,0,0,202,13964,250,167,181.28,,,,,,,,,,,,
311843,1564153056543,2,1.76,0.85,0.31,1.42,1.02,0.86,0.53,0.54,-34,-1,-45,1.01,3382,40,101,44,88,1498,206.0,257,454,60,123.0,255,1,180,355,43,0,0,203,13964,30720,166,-5.59,44.680874,10.024357,17.54,175.4,0,0.0,-1,0.0,0.0,0,2.0,5.1974
311863,1564153056563,-1,1.76,0.84,0.31,1.43,1.03,0.82,0.49,0.54,-34,-2,-44,0.96,3368,40,101,44,89,1498,207.0,251,473,60,125.0,255,1,180,350,43,0,0,203,-1482,30720,167,-5.59,,,,,,,,,,,,
311883,1564153056583,-1,1.75,0.84,0.31,1.43,1.03,0.83,0.52,0.49,-34,0,-44,0.98,3341,41,101,44,89,1498,206.0,250,474,60,124.0,259,1,180,343,43,0,0,205,13964,250,166,181.28,,,,,,,,,,,,
311903,1564153056603,-1,1.75,0.85,0.31,1.42,1.03,0.85,0.54,0.45,-34,1,-44,1.01,3291,41,101,44,90,1498,204.0,248,466,60,123.0,259,1,180,336,43,0,0,203,250,-1494,166,-5.59,,,,,,,,,,,,
311923,1564153056623,-1,1.75,0.86,0.31,1.43,1.03,0.85,0.53,0.43,-34,1,-44,1.0,3246,41,101,44,91,1498,204.0,250,456,60,123.0,259,1,187,362,43,0,0,202,250,-1494,166,-5.59,,,,,,,,,,,,
311943,1564153056643,-0,1.75,0.85,0.31,1.42,1.03,0.89,0.52,0.45,-34,-0,-44,1.03,3222,45,101,44,92,1498,204.0,252,458,60,123.0,259,1,195,395,43,0,0,202,250,10764,165,-5.59,44.68087,10.024357,17.23,175.4,0,0.0,-1,0.0,0.0,0,2.0,5.199
311963,1564153056663,2,1.74,0.86,0.31,1.42,1.03,0.91,0.51,0.48,-34,-3,-44,1.04,3178,45,101,44,92,1498,204.0,250,457,60,123.0,259,1,195,326,43,0,0,201,250,3072,163,-5.59,,,,,,,,,,,,
311983,1564153056683,3,1.74,0.85,0.32,1.42,1.03,0.91,0.49,0.52,-34,-4,-43,1.04,3135,45,101,44,92,1498,203.0,245,469,60,126.0,312,1,195,388,51,0,0,199,-1482,-1281,163,-5.59,,,,,,,,,,,,
312003,1564153056703,-2,1.74,0.85,0.32,1.43,1.03,0.91,0.49,0.55,-34,-5,-43,1.03,3182,45,101,44,92,1498,204.0,242,470,60,124.0,312,1,195,392,51,0,0,199,-1482,-1,162,181.28,,,,,,,,,,,,
312023,1564153056723,-1,1.73,0.86,0.31,1.42,1.03,0.9,0.48,0.53,-34,-4,-43,1.02,3168,45,101,44,92,1498,202.0,240,474,60,124.0,312,1,195,325,51,0,0,199,13874,-1,162,-5.59,,,,,,,,,,,,
312043,1564153056743,-1,1.74,0.85,0.32,1.43,1.04,0.87,0.5,0.48,-34,-2,-43,1.0,3130,45,101,44,92,1498,201.0,240,469,60,124.0,312,1,195,388,51,0,0,200,12800,-1,162,181.28,44.680866,10.024359,17.13,175.4,0,0.0,-1,0.0,0.0,0,2.01,5.2007
312063,1564153056763,-1,1.73,0.86,0.31,1.42,1.03,0.83,0.53,0.44,-34,-0,-43,0.98,3150,45,101,44,93,1498,200.0,240,458,60,124.0,312,1,202,429,51,0,0,198,250,-1,160,181.28,,,,,,,,,,,,
312083,1564153056783,0,1.72,0.86,0.31,1.43,1.03,0.82,0.56,0.42,-34,1,-44,0.99,3170,45,101,44,92,1498,200.0,242,459,60,123.0,291,1,195,391,47,0,0,198,250,-1,161,-5.59,,,,,,,,,,,,
312103,1564153056803,-1,1.73,0.86,0.31,1.43,1.04,0.86,0.55,0.4,-34,1,-44,1.02,3259,46,101,44,92,1498,199.0,246,452,60,122.0,291,1,195,398,47,0,0,196,-1480,23460,160,-5.59,,,,,,,,,,,,
312123,1564153056823,3,1.72,0.87,0.32,1.44,1.04,0.87,0.52,0.44,-34,-2,-43,1.02,3232,46,101,44,92,1498,199.0,247,463,60,125.0,291,1,195,396,47,0,0,196,-1480,23460,161,-5.59,,,,,,,,,,,,
312143,1564153056843,-2,1.73,0.87,0.32,1.44,1.04,0.89,0.49,0.47,-33,-2,-44,1.01,3247,46,101,44,92,1498,199.0,245,466,60,124.0,291,1,195,397,47,0,0,196,-1480,-165,159,-5.59,44.680862,10.02436,16.94,175.4,0,0.0,-1,0.0,0.0,0,2.01,5.2024
312163,1564153056863,-0,1.73,0.87,0.31,1.44,1.04,0.91,0.5,0.47,-34,-1,-44,1.04,3375,53,101,44,92,1498,197.0,245,474,60,124.0,291,1,195,407,47,0,0,194,19456,250,158,-5.59,,,,,,,,,,,,
312183,1564153056883,-2,1.73,0.86,0.32,1.43,1.05,0.86,0.53,0.47,-34,-0,-44,1.01,3418,53,101,44,92,1498,197.0,252,453,60,122.0,335,1,195,411,53,0,0,194,19456,-23552,158,-5.59,,,,,,,,,,,,
312203,1564153056903,2,1.74,0.87,0.32,1.44,1.04,0.89,0.51,0.47,-33,-1,-43,1.03,3414,56,101,44,93,1498,196.0,256,447,60,123.0,335,1,202,449,53,0,0,194,250,23460,157,-5.59,,,,,,,,,,,,
312223,1564153056923,-1,1.73,0.87,0.32,1.44,1.05,0.88,0.52,0.45,-33,-1,-43,1.03,3460,57,101,44,93,1498,196.0,252,474,60,126.0,335,1,202,452,53,0,0,192,250,-23552,157,-5.59,,,,,,,,,,,,
312243,1564153056943,-1,1.73,0.87,0.32,1.43,1.05,0.88,0.51,0.45,-34,-1,-43,1.02,3446,56,101,44,93,1498,195.0,253,458,60,123.0,335,1,202,451,53,0,0,193,-1481,-23552,156,-5.59,44.680859,10.024363,16.58,175.5,0,0.0,-1,0.0,0.0,0,2.01,5.2041
312263,1564153056963,2,1.72,0.87,0.32,1.44,1.04,0.89,0.49,0.46,-34,-2,-43,1.02,3394,57,101,44,93,1498,196.0,260,447,60,122.0,335,1,202,384,53,0,0,192,250,-23552,156,-5.59,,,,,,,,,,,,
312283,1564153056983,-0,1.72,0.88,0.32,1.43,1.04,0.9,0.47,0.47,-34,-3,-43,1.01,3375,57,101,44,93,1498,193.0,256,465,60,125.0,400,1,202,446,62,0,0,190,-2560,-1,155,-5.59,,,,,,,,,,,,
312303,1564153056995,-0,1.73,0.88,0.32,1.44,1.04,0.88,0.49,0.45,-34,-1,-43,1.0,3396,58,101,44,94,1498,193.0,252,475,60,125.0,400,1,210,488,62,0,0,190,-2560,-1,154,181.28,,,,,,,,,,,,
312323,1564153057015,1,1.72,0.88,0.32,1.44,1.04,0.84,0.5,0.45,-34,-1,-43,0.98,3487,60,101,44,94,1498,192.0,256,452,60,123.0,400,1,210,495,62,0,0,190,250,-1,154,-5.59,,,,,,,,,,,,
312343,1564153057035,0,1.73,0.87,0.32,1.44,1.05,0.86,0.46,0.51,-33,-3,-43,0.97,3505,60,101,44,94,1498,192.0,261,452,60,123.0,400,1,210,435,62,0,0,190,250,-1,154,-5.59,44.680855,10.024364,16.52,175.5,0,0.0,-1,0.0,0.0,0,2.01,5.2057
312363,1564153057055,-1,1.73,0.88,0.33,1.44,1.05,0.85,0.48,0.55,-33,-1,-43,0.97,3550,60,101,44,94,1498,191.0,256,480,60,125.0,400,1,213,501,62,0,0,190,-1281,-1,154,181.28,,,,,,,,,,,,
312383,1564153057075,2,1.73,0.88,0.32,1.44,1.05,0.82,0.46,0.61,-33,-2,-43,0.94,3545,60,101,44,94,1498,192.0,262,446,60,123.0,437,1,213,500,67,0,0,190,250,-1,154,-5.59,,,,,,,,,,,,
312403,1564153057103,-0,1.73,0.88,0.33,1.44,1.06,0.83,0.48,0.67,-33,-3,-42,0.96,3454,60,101,44,94,1498,193.0,261,459,60,123.0,437,1,210,493,67,0,0,192,-2560,3072,156,-5.59,,,,,,,,,,,,
312423,1564153057123,-0,1.73,0.88,0.33,1.44,1.05,0.8,0.49,0.67,-32,-2,-42,0.94,3439,50,101,44,94,1498,194.0,254,476,60,125.0,437,1,210,492,67,0,0,194,14326,-1,157,181.28,,,,,,,,,,,,
312443,1564153057143,-1,1.74,0.88,0.32,1.44,1.05,0.8,0.53,0.65,-32,-0,-42,0.96,3382,30,101,44,91,1498,196.0,254,461,60,123.0,437,1,187,367,67,0,0,196,250,250,160,-5.59,44.680851,10.024368,16.26,175.5,0,0.0,-1,0.0,0.0,0,2.01,5.2074
312463,1564153057163,3,1.74,0.87,0.32,1.45,1.05,0.82,0.47,0.7,-32,-2,-42,0.95,3440,10,101,44,87,1498,197.0,258,455,60,123.0,437,1,180,329,67,0,0,196,19456,3584,162,-5.59,,,,,,,,,,,,
312483,1564153057183,0,1.75,0.89,0.33,1.45,1.05,0.82,0.49,0.67,-31,-2,-42,0.96,3548,0,101,44,82,1498,198.0,257,467,60,125.0,271,1,181,257,44,0,0,197,14412,31744,163,-5.59,,,,,,,,,,,,
312503,1564153057205,-0,1.76,0.89,0.33,1.44,1.05,0.8,0.51,0.64,-31,0,-41,0.95,3529,0,101,44,78,1498,200.0,258,462,60,124.0,271,1,180,303,44,0,0,200,250,5134,164,-5.59,,,,,,,,,,,,
312523,1564153057225,2,1.76,0.88,0.33,1.44,1.05,0.78,0.52,0.62,-31,-1,-41,0.94,3325,0,101,44,76,1498,202.0,260,456,60,122.0,271,1,180,269,44,0,0,201,13874,3584,165,-5.59,,,,,,,,,,,,
312543,1564153057245,3,1.78,0.89,0.33,1.45,1.05,0.79,0.45,0.65,-31,-3,-41,0.91,3370,0,101,44,74,1498,202.0,253,466,60,126.0,271,1,180,269,44,0,0,203,13874,-253,167,-5.59,44.680847,10.024372,16.48,175.5,0,0.0,-1,0.0,0.0,0,2.01,5.2091
312563,1564153057265,-2,1.79,0.89,0.33,1.44,1.06,0.82,0.48,0.62,-31,-2,-41,0.95,3418,0,101,44,73,1498,204.0,252,471,60,124.0,271,1,0,269,44,0,0,202,250,-253,166,-5.59,,,,,,,,,,,,
312583,1564153057285,-1,1.78,0.89,0.33,1.45,1.05,0.83,0.51,0.55,-32,0,-41,0.97,3288,0,101,44,72,1498,203.0,252,461,60,124.0,192,1,180,264,32,0,0,203,-1482,-1,166,181.28,,,,,,,,,,,,
312603,1564153057303,-2,1.79,0.89,0.32,1.45,1.05,0.79,0.54,0.51,-32,1,-41,0.95,3205,0,101,44,72,1498,204.0,246,458,60,124.0,192,1,0,261,32,0,0,202,250,-1494,168,-5.59,,,,,,,,,,,,
312623,1564153057323,-1,1.78,0.88,0.33,1.44,1.04,0.81,0.53,0.54,-33,-0,-41,0.97,3246,0,101,44,72,1498,205.0,252,456,60,122.0,192,1,180,262,32,0,0,203,-29696,888,166,-5.59,,,,,,,,,,,,
312643,1564153057343,2,1.79,0.88,0.33,1.45,1.06,0.83,0.49,0.57,-33,-2,-41,0.96,3221,0,101,44,71,1483,205.0,250,462,60,123.0,192,1,180,261,32,0,0,203,250,30720,166,-5.59,44.680847,10.024376,17.29,175.6,0,0.0,-1,0.0,0.0,0,2.01,5.2107
312663,1564153057363,3,1.77,0.88,0.33,1.45,1.05,0.84,0.47,0.58,-32,-4,-40,0.96,3161,0,101,44,71,1463,204.0,248,468,60,124.0,192,1,0,261,32,0,0,204,250,10764,166,-5.59,,,,,,,,,,,,
312683,1564153057383,2,1.79,0.89,0.33,1.45,1.06,0.86,0.48,0.58,-32,-6,-40,0.98,3120,0,101,44,71,1443,204.0,243,466,60,124.0,180,1,0,260,30,0,0,203,250,-1494,166,-5.59,,,,,,,,,,,,
312703,1564153057402,2,1.79,0.89,0.33,1.45,1.06,0.86,0.47,0.58,-32,-6,-40,0.98,3107,0,101,44,72,1422,203.0,240,472,60,124.0,180,1,180,258,30,0,0,202,-1482,10764,166,-5.59,,,,,,,,,,,,
312723,1564153057422,2,1.79,0.89,0.33,1.45,1.05,0.88,0.45,0.56,-32,-6,-40,0.99,3055,6,101,44,72,1390,202.0,239,472,60,123.0,180,1,180,257,30,0,0,200,13874,-1494,166,-5.59,,,,,,,,,,,,
312743,1564153057442,2,1.78,0.89,0.33,1.46,1.05,0.88,0.43,0.53,-31,-7,-40,0.98,2976,7,101,44,72,1354,203.0,236,467,60,123.0,180,1,179,255,30,0,0,202,-1482,-1494,165,-5.59,44.680843,10.024382,17.84,175.7,0,0.0,-1,0.0,0.0,0,2.01,5.2124
312763,1564153057462,1,1.78,0.89,0.33,1.45,1.06,0.89,0.42,0.54,-31,-9,-39,0.98,2919,7,101,44,73,1328,202.0,234,470,60,124.0,180,1,175,255,30,0,0,198,13874,250,164,-5.59,,,,,,,,,,,,
312783,1564153057482,1,1.78,0.89,0.33,1.46,1.05,0.87,0.42,0.51,-31,-11,-39,0.97,2905,7,101,44,73,1311,202.0,232,467,60,124.0,170,1,0,255,28,0,0,200,12800,3072,164,-5.59,,,,,,,,,,,,
312803,1564153057502,2,1.79,0.89,0.33,1.45,1.06,0.92,0.42,0.49,-31,-13,-38,1.01,2962,7,101,44,73,1284,199.0,232,467,60,123.0,170,1,0,254,28,0,0,194,-1480,-1,163,-5.59,,,,,,,,,,,,
312823,1564153057522,2,1.79,0.89,0.33,1.45,1.06,0.97,0.39,0.49,-31,-15,-38,1.05,3051,13,101,44,74,1252,197.0,233,467,60,123.0,170,1,180,256,28,0,0,192,-1481,-23552,162,-5.59,,,,,,,,,,,,
312843,1564153057542,-2,1.79,0.89,0.32,1.45,1.06,0.98,0.39,0.44,-31,-14,-38,1.06,3183,19,101,44,75,1228,192.0,236,467,60,125.0,170,1,180,261,28,0,0,185,250,-1,157,-5.59,44.68084,10.024386,17.7,175.7,0,0.0,-1,0.0,0.0,0,2.01,5.214
312863,1564153057562,-1,1.78,0.9,0.33,1.46,1.06,0.92,0.41,0.38,-30,-10,-39,1.01,3321,19,101,44,77,1212,191.0,241,471,60,123.0,170,1,180,274,28,0,0,183,-1281,-1,156,-5.59,,,,,,,,,,,,
312883,1564153057582,3,1.78,0.9,0.33,1.46,1.06,0.94,0.39,0.4,-30,-9,-38,1.01,3616,28,101,44,77,1184,188.0,252,453,60,123.0,246,1,183,294,38,0,0,186,-1,-1,154,-5.59,,,,,,,,,,,,
312903,1564153057602,-2,1.79,0.9,0.33,1.46,1.06,0.92,0.41,0.38,-30,-7,-39,1.01,3761,31,101,44,79,1147,189.0,257,472,60,125.0,246,1,187,322,38,0,0,187,-1,-23552,154,181.28,,,,,,,,,,,,
312923,1564153057622,-0,1.78,0.91,0.33,1.46,1.06,0.92,0.37,0.43,-30,-7,-38,0.99,3929,31,101,44,80,1116,189.0,267,452,60,124.0,246,1,194,335,38,0,0,187,-1,-1281,154,-5.59,,,,,,,,,,,,
312943,1564153057642,3,1.79,0.91,0.33,1.45,1.06,0.91,0.38,0.43,-30,-7,-38,0.99,3969,31,102,44,80,1093,188.0,278,472,60,122.0,246,1,195,351,38,0,0,187,-1,-23552,153,-5.59,44.680836,10.024391,17.12,175.7,0,0.0,-1,0.0,0.0,0,2.01,5.2157
312963,1564153057662,-0,1.78,0.91,0.33,1.46,1.06,0.86,0.45,0.41,-30,-4,-38,0.97,3959,31,101,44,81,1058,187.0,277,461,60,124.0,246,1,195,348,38,0,0,188,-1,-1281,153,-5.59,,,,,,,,,,,,
312983,1564153057682,-1,1.79,0.9,0.33,1.46,1.07,0.86,0.43,0.43,-30,-2,-37,0.96,3897,31,101,44,81,1012,188.0,288,465,60,123.0,348,1,193,352,53,0,0,188,-1,-23552,152,-5.59,,,,,,,,,,,,
313003,1564153057700,-2,1.78,0.91,0.34,1.46,1.07,0.84,0.43,0.48,-30,-2,-37,0.95,3717,31,101,44,81,972,190.0,273,467,60,125.0,348,1,187,336,53,0,0,191,-1,-1,154,181.28,,,,,,,,,,,,
313023,1564153057720,3,1.78,0.91,0.34,1.46,1.06,0.77,0.42,0.53,-30,-2,-37,0.87,3613,31,101,44,82,947,191.0,275,457,60,123.0,348,1,183,332,53,0,0,193,-1281,250,157,-5.59,,,,,,,,,,,,
313043,1564153057740,-0,1.79,0.9,0.33,1.47,1.06,0.75,0.4,0.53,-29,-2,-37,0.85,3535,31,101,44,83,934,192.0,267,460,60,124.0,348,1,181,264,53,0,0,194,14326,-1,163,-5.59,44.680832,10.024396,15.84,175.6,0,0.0,-1,0.0,0.0,0,2.01,5.2174
313063,1564153057760,-1,1.8,0.91,0.33,1.47,1.06,0.73,0.39,0.53,-28,-1,-37,0.83,3449,31,102,44,84,935,195.0,260,469,60,124.0,348,1,180,328,53,0,0,195,-1481,-253,164,181.28,,,,,,,,,,,,
313083,1564153057780,-2,1.81,0.91,0.34,1.47,1.06,0.73,0.4,0.52,-28,1,-38,0.83,3280,31,102,44,85,942,198.0,253,458,60,123.0,236,1,180,315,39,0,0,196,14412,250,165,-5.59,,,,,,,,,,,,
313103,1564153057800,-1,1.81,0.91,0.33,1.46,1.06,0.75,0.37,0.5,-29,1,-38,0.84,3181,31,101,44,86,967,198.0,251,457,60,122.0,236,1,180,308,39,0,0,200,14412,-253,167,-5.59,,,,,,,,,,,,
313123,1564153057820,0,1.82,0.91,0.33,1.47,1.06,0.79,0.37,0.52,-29,-0,-38,0.88,3099,32,101,44,87,1007,200.0,249,456,60,122.0,236,1,180,303,39,0,0,200,250,250,166,-5.59,,,,,,,,,,,,
313143,1564153057840,1,1.81,0.9,0.33,1.46,1.06,0.82,0.37,0.55,-29,-2,-38,0.89,3098,32,101,44,88,1094,201.0,245,461,60,122.0,236,1,180,234,39,0,0,200,12800,-1494,165,-5.59,44.680832,10.024402,16.56,175.7,0,0.0,-1,0.0,0.0,0,2.01,5.219
313163,1564153057860,4,1.82,0.91,0.34,1.46,1.06,0.8,0.35,0.58,-30,-3,-37,0.87,3216,32,101,44,88,1175,202.0,246,457,60,124.0,236,1,180,313,39,0,0,200,13874,10764,163,-5.59,,,,,,,,,,,,
313183,1564153057880,-1,1.83,0.91,0.33,1.46,1.06,0.8,0.38,0.56,-30,-3,-37,0.88,3308,32,101,44,87,1237,201.0,244,470,60,124.0,243,1,180,319,40,0,0,200,12800,-1494,164,181.28,,,,,,,,,,,,
313203,1564153057902,-0,1.82,0.91,0.33,1.46,1.06,0.79,0.41,0.5,-30,-1,-37,0.89,3291,32,102,44,87,1301,201.0,246,465,60,123.0,243,1,180,319,40,0,0,199,12800,10764,165,181.28,,,,,,,,,,,,
313223,1564153057922,-2,1.82,0.9,0.33,1.46,1.05,0.77,0.45,0.47,-30,-0,-38,0.9,3323,31,102,44,87,1374,200.0,250,460,60,121.0,243,1,180,322,40,0,0,199,250,10764,164,-5.59,,,,,,,,,,,,
313243,1564153057942,3,1.82,0.91,0.33,1.45,1.06,0.82,0.4,0.52,-29,-2,-37,0.91,3422,31,101,44,87,1446,200.0,255,454,60,123.0,243,1,180,327,40,0,0,199,250,10764,165,-5.59,44.680832,10.024407,17.25,175.7,0,0.0,-1,0.0,0.0,0,2.01,5.2207
313263,1564153057962,-2,1.81,0.9,0.34,1.46,1.06,0.8,0.4,0.52,-29,-2,-37,0.89,3397,32,102,44,86,1458,198.0,251,472,60,124.0,243,1,180,326,40,0,0,198,14412,-1494,164,-5.59,,,,,,,,,,,,
313283,1564153057982,-0,1.82,0.9,0.33,1.46,1.07,0.82,0.41,0.48,-29,0,-38,0.91,3377,32,102,44,86,1469,198.0,251,470,60,123.0,248,1,180,325,41,0,0,198,14412,10764,165,181.28,,,,,,,,,,,,
313303,1564153057992,-1,1.82,0.91,0.33,1.46,1.07,0.81,0.41,0.47,-29,1,-38,0.9,3359,32,102,44,87,1482,197.0,252,461,60,122.0,248,1,180,325,41,0,0,198,19456,-1494,163,-5.59,,,,,,,,,,,,
313323,1564153058012,2,1.82,0.92,0.34,1.46,1.06,0.86,0.39,0.51,-29,-2,-38,0.94,3359,32,101,44,87,1495,198.0,256,453,60,122.0,248,1,180,323,41,0,0,197,14412,10764,163,-5.59,,,,,,,,,,,,
313343,1564153058032,-1,1.82,0.91,0.34,1.46,1.06,0.83,0.39,0.52,-28,-2,-38,0.92,3340,32,102,44,87,1496,197.0,251,472,60,124.0,248,1,180,323,41,0,0,196,19456,-1494,162,-5.59,44.680828,10.024413,17.56,175.7,0,0.0,-1,0.0,0.0,0,2.01,5.2224
313363,1564153058052,0,1.82,0.92,0.34,1.46,1.06,0.82,0.4,0.51,-28,-1,-38,0.91,3328,32,102,44,87,1497,197.0,248,473,60,123.0,248,1,180,322,41,0,0,196,19456,3072,163,-5.59,,,,,,,,,,,,
313383,1564153058072,-0,1.82,0.92,0.33,1.47,1.06,0.81,0.4,0.47,-29,0,-38,0.9,3333,32,102,44,87,1497,197.0,250,466,60,124.0,246,1,180,322,40,0,0,196,19456,250,162,181.28,,,,,,,,,,,,
313403,1564153058100,2,1.83,0.92,0.33,1.47,1.06,0.83,0.39,0.5,-29,-1,-38,0.92,3382,32,101,44,87,1498,196.0,256,452,60,122.0,246,1,180,324,40,0,0,195,250,3072,162,-5.59,,,,,,,,,,,,
313423,1564153058120,-0,1.82,0.92,0.34,1.47,1.07,0.85,0.39,0.52,-28,-3,-37,0.93,3341,32,102,44,86,1498,196.0,254,468,60,125.0,246,1,180,322,40,0,0,196,250,-1281,161,-5.59,,,,,,,,,,,,
313443,1564153058140,0,1.82,0.92,0.34,1.47,1.06,0.83,0.4,0.52,-28,-2,-37,0.92,3328,32,102,44,87,1498,195.0,250,472,60,124.0,246,1,180,322,40,0,0,194,-1481,250,161,-5.59,44.680828,10.02442,16.94,175.7,0,0.0,-1,0.0,0.0,0,2.01,5.2241
313463,1564153058160,-1,1.83,0.91,0.34,1.47,1.06,0.83,0.41,0.51,-29,-0,-37,0.93,3379,32,102,44,87,1498,196.0,250,468,60,124.0,246,1,180,326,40,0,0,194,250,3072,162,-5.59,,,,,,,,,,,,
313483,1564153058180,-0,1.82,0.92,0.34,1.47,1.06,0.85,0.45,0.51,-29,-0,-37,0.96,3328,32,102,44,87,1498,194.0,257,452,60,122.0,254,1,180,322,41,0,0,194,14326,-1281,161,-5.59,,,,,,,,,,,,
313503,1564153058200,3,1.82,0.92,0.34,1.47,1.06,0.85,0.42,0.54,-29,-2,-37,0.94,3339,32,102,44,87,1498,195.0,254,455,60,123.0,254,1,180,323,41,0,0,193,-1481,-1281,161,-5.59,,,,,,,,,,,,
313523,1564153058220,-0,1.82,0.92,0.34,1.48,1.07,0.83,0.4,0.52,-28,-1,-37,0.92,3336,32,102,44,87,1498,195.0,251,470,60,125.0,254,1,180,323,41,0,0,195,-1481,-1,160,-5.59,,,,,,,,,,,,
313543,1564153058240,-0,1.82,0.92,0.34,1.47,1.07,0.81,0.43,0.48,-29,1,-37,0.92,3306,32,102,44,87,1498,194.0,248,467,60,124.0,254,1,180,320,41,0,0,194,14326,-1281,160,181.28,44.680828,10.024425,17.09,175.7,0,0.0,-1,0.0,0.0,0,2.01,5.2257
313563,1564153058260,-2,1.83,0.92,0.34,1.47,1.07,0.8,0.44,0.45,-29,1,-37,0.91,3291,32,102,44,87,1498,194.0,251,456,60,123.0,254,1,180,321,41,0,0,195,14326,-1281,160,-5.59,,,,,,,,,,,,
313583,1564153058280,2,1.82,0.92,0.34,1.48,1.07,0.83,0.4,0.49,-29,0,-37,0.92,3289,32,101,44,87,1498,194.0,253,455,60,122.0,243,1,180,317,39,0,0,194,14326,-1,160,414.87,,,,,,,,,,,,
313603,1564153058302,3,1.82,0.92,0.34,1.48,1.07,0.87,0.4,0.54,-28,-2,-37,0.95,3312,32,102,44,87,1498,194.0,251,461,60,125.0,243,1,180,321,39,0,0,193,14326,-1,160,-5.59,,,,,,,,,,,,
313623,1564153058322,-2,1.83,0.92,0.34,1.48,1.07,0.87,0.39,0.49,-28,-1,-37,0.95,3287,32,102,44,87,1498,193.0,247,475,60,123.0,243,1,180,319,39,0,0,194,-2560,250,160,-5.59,,,,,,,,,,,,
313643,1564153058342,-0,1.82,0.92,0.34,1.47,1.07,0.84,0.42,0.45,-28,1,-37,0.94,3277,32,102,44,87,1498,193.0,247,472,60,124.0,243,1,180,318,39,0,0,192,-2560,-1,160,-5.59,44.680828,10.024431,17.09,175.7,0,0.0,-1,0.0,0.0,0,2.01,5.2274
313663,1564153058362,-1,1.83,0.92,0.34,1.47,1.07,0.83,0.45,0.42,-28,2,-37,0.94,3296,32,102,44,87,1498,193.0,247,463,60,123.0,243,1,180,321,39,0,0,193,-2560,-1,159,414.87,,,,,,,,,,,,
313683,1564153058382,1,1.81,0.93,0.34,1.48,1.07,0.86,0.42,0.47,-28,-0,-37,0.96,3363,32,101,44,87,1498,194.0,251,454,60,122.0,257,1,180,323,41,0,0,192,14326,-1,159,-5.59,,,,,,,,,,,,
313703,1564153058401,-0,1.82,0.92,0.34,1.47,1.07,0.85,0.42,0.53,-28,-1,-37,0.95,3347,32,102,44,86,1498,192.0,251,467,60,125.0,257,1,180,322,41,0,0,192,250,-1,159,-5.59,,,,,,,,,,,,
313723,1564153058421,-1,1.82,0.92,0.34,1.48,1.07,0.82,0.44,0.48,-28,0,-37,0.93,3375,32,102,44,87,1498,192.0,250,475,60,123.0,257,1,180,326,41,0,0,191,250,-1,158,181.28,,,,,,,,,,,,
313743,1564153058441,-1,1.81,0.93,0.34,1.47,1.07,0.8,0.43,0.43,-28,2,-37,0.91,3324,32,102,44,87,1498,192.0,250,461,60,124.0,257,1,180,322,41,0,0,192,250,-1,158,181.28,44.680828,10.024438,16.57,175.7,0,0.0,-1,0.0,0.0,0,2.01,5.2291
313763,1564153058461,-1,1.82,0.93,0.34,1.48,1.07,0.8,0.44,0.42,-28,3,-38,0.91,3256,32,102,44,87,1498,192.0,251,460,60,122.0,257,1,180,315,41,0,0,190,250,-1,158,-5.59,,,,,,,,,,,,
313783,1564153058481,2,1.81,0.93,0.34,1.48,1.07,0.84,0.4,0.45,-28,1,-37,0.93,3281,32,101,44,88,1498,191.0,252,457,60,123.0,246,1,180,318,39,0,0,190,-1281,-1,158,-5.59,,,,,,,,,,,,
313803,1564153058501,2,1.82,0.93,0.34,1.48,1.07,0.84,0.4,0.51,-28,-2,-37,0.93,3267,32,102,44,87,1498,190.0,251,460,60,124.0,246,1,180,317,39,0,0,189,-1,-165,158,-5.59,,,,,,,,,,,,
313823,1564153058521,-1,1.82,0.93,0.34,1.48,1.07,0.84,0.39,0.52,-28,-1,-37,0.93,3262,32,102,44,87,1498,191.0,246,473,60,124.0,246,1,180,317,39,0,0,190,-1281,-1,157,-5.59,,,,,,,,,,,,
313843,1564153058541,-0,1.81,0.93,0.34,1.48,1.07,0.82,0.38,0.47,-28,1,-38,0.9,3250,32,102,44,88,1498,191.0,245,466,60,124.0,246,1,180,318,39,0,0,190,-1281,-1,157,181.28,44.680832,10.024444,17.0,175.7,0,0.0,-1,0.0,0.0,0,2.01,5.2307
313863,1564153058561,-1,1.81,0.93,0.34,1.48,1.07,0.82,0.41,0.46,-28,2,-38,0.91,3292,32,102,44,87,1498,192.0,248,460,60,123.0,246,1,180,321,39,0,0,190,-1,-165,157,-5.59,,,,,,,,,,,,
313883,1564153058581,-1,1.82,0.93,0.34,1.48,1.07,0.85,0.39,0.46,-29,0,-38,0.93,3287,32,102,44,87,1498,191.0,250,453,60,123.0,254,1,180,319,40,0,0,191,-1281,-165,157,-5.59,,,,,,,,,,,,
313903,1564153058601,3,1.82,0.93,0.34,1.48,1.07,0.88,0.38,0.51,-29,-2,-37,0.96,3299,32,102,44,87,1498,190.0,251,462,60,125.0,254,1,180,320,40,0,0,190,-1,-23552,156,-5.59,,,,,,,,,,,,
313923,1564153058621,-1,1.82,0.93,0.34,1.48,1.07,0.87,0.38,0.5,-28,-1,-38,0.94,3256,32,102,44,88,1498,190.0,247,473,60,124.0,254,1,180,318,40,0,0,191,-1,23460,156,-5.59,,,,,,,,,,,,
313943,1564153058641,-1,1.82,0.93,0.34,1.48,1.07,0.84,0.38,0.43,-28,0,-38,0.92,3273,32,102,44,88,1498,191.0,248,473,60,123.0,254,1,180,319,40,0,0,191,-1281,23460,157,-5.59,44.680832,10.024449,16.34,175.7,0,0.0,-1,0.0,0.0,0,2.01,5.2324
313963,1564153058661,-2,1.82,0.93,0.34,1.48,1.07,0.83,0.4,0.39,-28,2,-38,0.92,3255,32,102,44,88,1498,190.0,246,463,60,125.0,254,1,180,319,40,0,0,188,-1,-23552,155,414.87,,,,,,,,,,,,
313983,1564153058681,-0,1.82,0.93,0.34,1.48,1.07,0.83,0.39,0.41,-28,2,-38,0.92,3280,32,102,44,88,1498,189.0,251,453,60,122.0,250,1,180,320,39,0,0,187,-1,-1281,156,-5.59,,,,,,,,,,,,
314003,1564153058701,2,1.82,0.93,0.34,1.48,1.07,0.85,0.37,0.43,-28,-1,-37,0.93,3368,32,102,44,87,1498,189.0,250,454,60,123.0,250,1,180,325,39,0,0,188,-1,-1,154,-5.59,,,,,,,,,,,,
314023,1564153058721,-2,1.82,0.93,0.35,1.48,1.07,0.83,0.37,0.45,-28,-0,-37,0.91,3391,32,102,44,87,1498,189.0,251,467,60,124.0,250,1,180,327,39,0,0,187,-1,-23552,155,-5.59,,,,,,,,,,,,
314043,1564153058741,-1,1.82,0.93,0.34,1.48,1.08,0.85,0.38,0.43,-28,1,-37,0.93,3399,32,102,44,87,1498,189.0,251,472,60,125.0,250,1,180,328,39,0,0,189,-1,-23552,155,181.28,44.680832,10.024454,16.39,175.7,0,0.0,-1,0.0,0.0,0,2.01,5.234
314063,1564153058761,-0,1.82,0.93,0.34,1.49,1.07,0.86,0.38,0.43,-28,1,-37,0.94,3354,32,102,44,86,1498,188.0,256,451,60,123.0,250,1,180,323,39,0,0,187,-1,23460,155,-5.59,,,,,,,,,,,,
314083,1564153058781,1,1.83,0.93,0.34,1.48,1.07,0.91,0.37,0.49,-28,-2,-36,0.98,3283,32,102,44,87,1498,187.0,256,457,60,123.0,258,1,180,319,40,0,0,187,-1,23460,155,-5.59,,,,,,,,,,,,
314103,1564153058799,-1,1.82,0.93,0.34,1.49,1.07,0.88,0.35,0.51,-28,-2,-36,0.95,3280,32,102,44,87,1498,187.0,251,463,60,125.0,258,1,180,320,40,0,0,186,-1,23460,155,-5.59,,,,,,,,,,,,
314123,1564153058819,-1,1.82,0.93,0.34,1.48,1.07,0.87,0.36,0.48,-28,-2,-37,0.94,3285,32,102,44,87,1498,187.0,251,473,60,124.0,258,1,180,319,40,0,0,187,-1,-23552,155,181.28,,,,,,,,,,,,
314143,1564153058839,-1,1.82,0.93,0.34,1.48,1.08,0.83,0.37,0.44,-28,1,-37,0.91,3234,32,102,44,87,1498,188.0,246,461,60,123.0,258,1,180,315,40,0,0,187,-1,-23552,154,181.28,44.680836,10.024459,15.75,175.7,0,0.0,-1,0.0,0.0,0,2.02,5.2357
314163,1564153058859,-0,1.81,0.93,0.34,1.48,1.07,0.81,0.39,0.42,-28,1,-37,0.9,3264,32,102,44,88,1498,187.0,251,458,60,123.0,258,1,180,319,40,0,0,186,-1,23460,154,-5.59,,,,,,,,,,,,
314183,1564153058879,1,1.82,0.93,0.34,1.47,1.08,0.84,0.36,0.43,-28,-1,-36,0.91,3356,32,102,44,87,1498,186.0,252,455,60,122.0,259,1,180,324,40,0,0,187,-1,-1281,154,-5.59,,,,,,,,,,,,
314203,1564153058903,-0,1.81,0.94,0.34,1.49,1.08,0.84,0.37,0.5,-28,-3,-36,0.92,3329,32,102,44,87,1498,186.0,251,469,60,125.0,259,1,180,322,40,0,0,186,-1,-23552,154,-5.59,,,,,,,,,,,,
314223,1564153058923,-1,1.82,0.93,0.35,1.48,1.08,0.84,0.39,0.46,-28,-1,-36,0.93,3427,32,102,44,87,1498,186.0,250,473,60,124.0,259,1,180,330,40,0,0,187,-1,250,154,181.28,,,,,,,,,,,,
314243,1564153058943,-0,1.82,0.94,0.34,1.49,1.07,0.83,0.41,0.41,-28,1,-36,0.93,3397,32,102,44,86,1498,186.0,253,455,60,122.0,259,1,180,326,40,0,0,186,-1,250,154,-5.59,44.68084,10.024464,16.01,175.7,0,0.0,-1,0.0,0.0,0,2.02,5.2374
314263,1564153058963,0,1.82,0.93,0.34,1.48,1.08,0.86,0.39,0.41,-28,-1,-36,0.94,3308,32,102,44,87,1498,186.0,256,452,60,121.0,259,1,180,321,40,0,0,185,-1,250,153,-5.59,,,,,,,,,,,,
314283,1564153058983,3,1.82,0.94,0.35,1.48,1.08,0.85,0.38,0.48,-27,-2,-36,0.93,3266,32,102,44,87,1498,187.0,252,459,60,123.0,254,1,180,317,39,0,0,185,-1,-1281,153,-5.59,,,,,,,,,,,,
314303,1564153058993,-0,1.82,0.94,0.34,1.49,1.07,0.86,0.38,0.5,-27,-2,-36,0.94,3239,32,102,44,88,1498,186.0,252,468,60,123.0,254,1,180,317,39,0,0,184,-1,-1281,153,-5.59,,,,,,,,,,,,
314323,1564153059013,0,1.82,0.94,0.34,1.48,1.07,0.83,0.39,0.48,-28,-1,-37,0.92,3251,32,102,44,88,1498,187.0,246,470,60,124.0,254,1,180,318,39,0,0,185,-1,-1,152,-5.59,,,,,,,,,,,,
314343,1564153059033,-0,1.82,0.93,0.34,1.48,1.08,0.81,0.41,0.45,-27,1,-37,0.9,3294,32,102,44,88,1498,186.0,250,467,60,124.0,254,1,180,321,39,0,0,185,-1,-1,152,181.28,44.68084,10.024469,15.93,175.7,0,0.0,-1,0.0,0.0,0,2.02,5.239
314363,1564153059053,-1,1.82,0.93,0.34,1.49,1.07,0.81,0.43,0.47,-27,0,-37,0.91,3329,32,102,44,87,1498,186.0,251,456,60,123.0,254,1,180,321,39,0,0,185,-1,-1,152,-5.59,,,,,,,,,,,,
314383,1564153059073,3,1.82,0.94,0.34,1.49,1.07,0.83,0.41,0.53,-27,-3,-37,0.92,3320,32,102,43,87,1498,185.0,255,456,60,122.0,263,1,180,324,40,0,0,184,-1,-1281,152,-5.59,,,,,,,,,,,,
314403,1564153059103,-0,1.82,0.94,0.34,1.49,1.07,0.83,0.39,0.54,-27,-3,-36,0.92,3309,32,102,44,87,1498,185.0,252,469,60,123.0,263,1,180,321,40,0,0,184,-1,-1281,152,-5.59,,,,,,,,,,,,
314423,1564153059123,0,1.81,0.94,0.34,1.49,1.07,0.81,0.4,0.55,-27,-1,-37,0.9,3277,32,102,44,87,1498,184.0,248,473,60,123.0,263,1,180,318,40,0,0,184,-1,-1,152,-5.59,,,,,,,,,,,,
314443,1564153059143,-1,1.82,0.93,0.34,1.48,1.08,0.81,0.39,0.52,-27,1,-37,0.91,3243,32,102,44,88,1498,184.0,248,461,60,124.0,263,1,180,317,40,0,0,182,-1,-1281,152,181.28,44.680843,10.024474,16.11,175.7,0,0.0,-1,0.0,0.0,0,2.02,5.2407
314463,1564153059163,-1,1.82,0.94,0.35,1.48,1.08,0.82,0.4,0.52,-27,1,-37,0.91,3221,32,102,43,88,1498,185.0,247,459,60,122.0,263,1,180,317,40,0,0,184,-1,-1,152,181.28,,,,,,,,,,,,
314483,1564153059183,0,1.82,0.93,0.34,1.48,1.07,0.87,0.38,0.57,-27,-1,-37,0.95,3250,32,102,43,89,1498,185.0,250,456,60,122.0,258,1,180,322,39,0,0,183,-1,-1281,151,-5.59,,,,,,,,,,,,
314503,1564153059203,3,1.82,0.94,0.35,1.48,1.07,0.85,0.38,0.6,-27,-2,-37,0.93,3276,32,102,43,89,1498,184.0,246,463,60,124.0,258,1,180,324,39,0,0,184,-1,-1,151,-5.59,,,,,,,,,,,,
314523,1564153059223,-1,1.82,0.93,0.34,1.48,1.08,0.84,0.39,0.56,-27,-1,-37,0.93,3369,32,102,43,88,1498,184.0,248,474,60,123.0,258,1,180,329,39,0,0,183,-1,-1,151,-5.59,,,,,,,,,,,,
314543,1564153059243,-1,1.82,0.94,0.34,1.49,1.07,0.83,0.4,0.5,-27,1,-37,0.92,3407,32,102,43,87,1498,184.0,250,469,60,123.0,258,1,180,330,39,0,0,184,-1,-1,151,181.28,44.680847,10.024478,16.33,175.7,0,0.0,-1,0.0,0.0,0,2.02,5.2424
314563,1564153059263,3,1.82,0.93,0.35,1.48,1.08,0.86,0.35,0.54,-27,-1,-37,0.93,3503,32,102,43,86,1498,184.0,258,453,60,120.0,258,1,180,338,39,0,0,184,-1,-1,151,-5.59,,,,,,,,,,,,
314583,1564153059283,-0,1.82,0.94,0.35,1.48,1.08,0.83,0.37,0.52,-27,-1,-36,0.91,3564,32,102,43,86,1498,184.0,258,476,60,124.0,298,1,182,346,45,0,0,182,-1,-1,151,-5.59,,,,,,,,,,,,
314603,1564153059303,-1,1.82,0.94,0.35,1.48,1.07,0.83,0.4,0.46,-27,0,-37,0.92,3536,32,102,43,86,1498,184.0,258,467,60,122.0,298,1,181,342,45,0,0,182,-1,-1,151,648.46,,,,,,,,,,,,
314623,1564153059323,3,1.81,0.94,0.34,1.49,1.08,0.86,0.37,0.51,-27,-2,-37,0.94,3528,32,102,43,85,1498,184.0,266,450,60,124.0,298,1,181,266,45,0,0,182,-1,-1,151,-5.59,,,,,,,,,,,,
314643,1564153059343,-1,1.82,0.93,0.34,1.48,1.07,0.85,0.39,0.48,-27,-1,-36,0.93,3507,33,102,43,86,1498,184.0,258,478,60,124.0,298,1,180,337,45,0,0,181,-1,-1,151,-5.59,44.680847,10.024482,16.02,175.6,0,0.0,-1,0.0,0.0,0,2.02,5.2441
314663,1564153059363,0,1.82,0.94,0.34,1.49,1.08,0.84,0.4,0.45,-27,0,-37,0.93,3537,32,102,43,85,1498,183.0,266,454,60,121.0,298,1,181,341,45,0,0,183,-1,-1,151,-5.59,,,,,,,,,,,,
314683,1564153059383,-0,1.82,0.94,0.35,1.48,1.08,0.88,0.39,0.51,-27,-2,-37,0.96,3521,32,102,43,85,1498,183.0,265,452,60,123.0,300,1,180,265,45,0,0,184,-1,-1,150,-5.59,,,,,,,,,,,,
314703,1564153059402,-1,1.82,0.94,0.35,1.49,1.07,0.85,0.38,0.49,-27,-1,-37,0.93,3489,33,102,43,86,1498,183.0,260,475,60,124.0,300,1,180,337,45,0,0,181,-1,-1,151,181.28,,,,,,,,,,,,
314723,1564153059422,-0,1.82,0.94,0.34,1.49,1.07,0.84,0.38,0.46,-27,1,-36,0.92,3463,33,102,43,86,1498,183.0,261,456,60,121.0,300,1,180,335,45,0,0,183,-1,-1,151,-5.59,,,,,,,,,,,,
314743,1564153059442,1,1.82,0.94,0.34,1.47,1.07,0.88,0.35,0.5,-27,-1,-36,0.94,3442,33,102,43,86,1498,182.0,263,450,60,121.0,300,1,180,332,45,0,0,182,-1,-1,150,-5.59,44.680851,10.024485,15.89,175.6,0,0.0,-1,0.0,0.0,0,2.02,5.2457
314763,1564153059462,-1,1.82,0.94,0.35,1.49,1.07,0.84,0.37,0.47,-27,-1,-36,0.92,3501,33,102,43,86,1498,182.0,258,469,60,124.0,300,1,180,264,45,0,0,181,-1,-1,151,-5.59,,,,,,,,,,,,
314783,1564153059482,-1,1.82,0.94,0.34,1.49,1.07,0.84,0.37,0.42,-27,1,-36,0.92,3468,33,102,43,86,1498,182.0,258,463,60,122.0,291,1,180,335,44,0,0,181,-1,-1,151,-5.59,,,,,,,,,,,,
314803,1564153059502,2,1.82,0.94,0.35,1.48,1.08,0.9,0.35,0.45,-27,-1,-36,0.96,3465,33,102,43,86,1498,183.0,263,451,60,122.0,291,1,180,335,44,0,0,182,-1,-1,150,181.28,,,,,,,,,,,,
314823,1564153059522,-1,1.82,0.94,0.35,1.48,1.08,0.87,0.36,0.48,-27,-2,-36,0.95,3475,33,102,43,86,1498,182.0,258,462,60,124.0,291,1,180,336,44,0,0,181,-1,-1,150,-5.59,,,,,,,,,,,,
314843,1564153059542,-0,1.82,0.94,0.34,1.49,1.07,0.84,0.37,0.45,-27,0,-36,0.92,3496,33,102,43,86,1498,182.0,258,475,60,123.0,291,1,180,337,44,0,0,182,-1,-1,150,181.28,44.680855,10.024487,15.6,175.6,0,0.0,-1,0.0,0.0,0,2.02,5.2474
314863,1564153059562,3,1.82,0.94,0.35,1.49,1.07,0.86,0.35,0.49,-27,-1,-36,0.93,3504,33,102,43,86,1498,182.0,263,451,60,121.0,291,1,180,338,44,0,0,181,-1,-1,150,-5.59,,,,,,,,,,,,
314883,1564153059582,-1,1.83,0.94,0.34,1.49,1.07,0.85,0.36,0.5,-26,-1,-36,0.93,3452,33,102,43,85,1498,182.0,260,465,60,124.0,295,1,180,331,44,0,0,181,-1,-1,149,-5.59,,,,,,,,,,,,
314903,1564153059602,-1,1.82,0.94,0.35,1.48,1.08,0.85,0.36,0.46,-27,0,-36,0.92,3440,33,102,43,86,1498,182.0,256,472,60,123.0,295,1,180,332,44,0,0,180,-1,-1,149,181.28,,,,,,,,,,,,
314923,1564153059622,2,1.82,0.94,0.35,1.49,1.07,0.84,0.38,0.44,-27,-1,-35,0.92,3447,33,102,43,86,1498,182.0,257,457,60,121.0,295,1,180,259,44,0,0,180,-1,-1,149,-5.59,,,,,,,,,,,,
314943,1564153059642,-0,1.83,0.93,0.34,1.48,1.08,0.84,0.37,0.48,-27,-3,-35,0.92,3454,33,102,43,86,1498,182.0,258,462,60,125.0,295,1,180,333,44,0,0,181,-1,-1,150,-5.59,44.680859,10.02449,15.7,175.6,0,0.0,-1,0.0,0.0,0,2.02,5.2491
314963,1564153059662,-1,1.82,0.94,0.34,1.49,1.08,0.84,0.39,0.42,-27,-1,-35,0.93,3509,33,102,43,86,1498,182.0,258,476,60,123.0,295,1,180,339,44,0,0,180,-1,-1,150,181.28,,,,,,,,,,,,
314983,1564153059682,1,1.82,0.94,0.35,1.48,1.08,0.85,0.4,0.43,-27,-1,-34,0.94,3528,33,102,43,86,1498,181.0,262,460,60,121.0,300,1,181,341,45,0,0,181,-1,-1,150,-5.59,,,,,,,,,,,,
315003,1564153059702,-1,1.84,0.94,0.35,1.49,1.08,0.86,0.38,0.47,-26,-2,-34,0.94,3564,33,102,43,85,1498,181.0,262,454,60,124.0,300,1,182,344,45,0,0,181,-1,-1,150,-5.59,,,,,,,,,,,,
315023,1564153059722,1,1.84,0.94,0.35,1.49,1.07,0.84,0.37,0.45,-26,-0,-35,0.92,3588,33,102,43,85,1498,181.0,263,472,60,123.0,300,1,183,348,45,0,0,180,-1,-1,150,181.28,,,,,,,,,,,,
315043,1564153059742,7,1.84,0.94,0.34,1.49,1.08,0.89,0.34,0.47,-26,-3,-34,0.95,3578,33,102,43,85,1498,180.0,267,455,60,121.0,300,1,182,346,45,0,0,179,-1,-1,150,-5.59,44.680866,10.024492,15.62,175.6,0,0.0,-1,0.0,0.0,0,2.02,5.2507
315063,1564153059762,5,1.84,0.94,0.34,1.49,1.07,0.89,0.35,0.45,-26,-2,-34,0.96,3562,33,102,43,85,1498,178.0,265,470,60,124.0,300,1,182,270,45,0,0,179,5134,-1,148,-5.59,,,,,,,,,,,,
315083,1564153059782,7,1.85,0.93,0.34,1.49,1.07,0.89,0.36,0.4,-26,-1,-34,0.96,3562,33,102,43,85,1498,176.0,265,456,60,120.0,312,1,181,344,46,0,0,174,10620,-1,147,-5.59,,,,,,,,,,,,
315103,1564153059802,6,1.86,0.94,0.34,1.49,1.07,0.9,0.35,0.42,-25,-3,-34,0.97,3598,33,102,43,85,1498,173.0,267,457,60,124.0,312,1,183,349,46,0,0,173,31744,-1,145,-5.59,,,,,,,,,,,,
315123,1564153059822,7,1.88,0.94,0.34,1.48,1.07,0.88,0.33,0.37,-25,-1,-34,0.94,3572,32,102,43,85,1498,172.0,263,478,60,124.0,312,1,182,345,46,0,0,172,250,5140,143,181.28,,,,,,,,,,,,
315143,1564153059842,9,1.9,0.94,0.34,1.49,1.07,0.93,0.3,0.38,-25,-3,-33,0.98,3658,31,102,43,85,1498,170.0,271,450,60,120.0,312,1,186,355,46,0,0,168,-1,250,141,-5.59,44.680866,10.024494,15.33,175.6,0,0.0,-1,0.0,0.0,0,2.02,5.2524
315163,1564153059862,6,1.9,0.94,0.35,1.49,1.08,0.91,0.3,0.35,-24,-2,-33,0.96,3649,29,102,43,84,1498,164.0,267,470,60,123.0,312,1,185,352,46,0,0,166,250,-1281,140,-5.59,,,,,,,,,,,,
315183,1564153059882,10,1.92,0.95,0.34,1.48,1.08,0.94,0.26,0.36,-24,-2,-32,0.98,3672,26,102,43,84,1498,162.0,273,456,60,120.0,352,1,186,355,49,0,0,164,10764,-1,139,-5.59,,,,,,,,,,,,
315203,1564153059902,6,1.94,0.94,0.35,1.49,1.08,0.94,0.26,0.34,-23,-2,-31,0.97,3788,25,102,43,82,1498,160.0,270,467,60,123.0,352,1,189,357,49,0,0,162,250,-1281,137,-5.59,,,,,,,,,,,,
315223,1564153059922,5,1.96,0.95,0.35,1.49,1.08,0.97,0.22,0.35,-22,-2,-30,1.0,3879,23,102,43,81,1498,158.0,280,456,60,121.0,352,1,192,357,49,0,0,159,-1,-1,136,-5.59,,,,,,,,,,,,
315243,1564153059942,9,1.96,0.95,0.34,1.49,1.08,0.98,0.22,0.34,-22,-1,-30,1.0,4054,22,102,43,80,1498,154.0,281,473,60,124.0,352,1,200,361,49,0,0,156,23460,-1,135,181.28,44.68087,10.024495,14.96,175.5,0,0.0,-1,0.0,0.0,0,2.02,5.254
315263,1564153059962,9,1.97,0.94,0.35,1.49,1.08,0.97,0.23,0.31,-22,-0,-29,0.99,4236,21,102,43,79,1498,151.0,289,457,60,124.0,352,1,214,358,49,0,0,155,-1281,-1,133,-5.59,,,,,,,,,,,,
315283,1564153059982,7,1.98,0.95,0.34,1.5,1.08,1.0,0.22,0.27,-21,0,-28,1.03,4314,20,102,43,77,1498,150.0,300,455,60,124.0,427,1,219,338,56,0,0,152,-1,-1,131,-5.59,,,,,,,,,,,,
315303,1564153059994,8,1.99,0.95,0.34,1.5,1.08,1.01,0.21,0.22,-21,1,-27,1.03,4486,18,102,43,76,1498,149.0,308,460,60,124.0,427,1,233,259,56,0,0,151,-1,-1,130,-5.59,,,,,,,,,,,,
315323,1564153060014,9,1.99,0.94,0.34,1.5,1.08,1.01,0.23,0.19,-21,1,-26,1.04,4642,17,102,43,75,1498,147.0,318,460,60,124.0,427,1,245,333,56,0,0,148,-1,-1,128,-5.59,,,,,,,,,,,,
315343,1564153060034,5,2.0,0.95,0.35,1.49,1.08,0.99,0.24,0.2,-20,1,-25,1.02,4721,17,102,43,75,1483,145.0,322,461,60,124.0,427,1,251,337,56,0,0,146,-1,-1,126,181.28,44.680874,10.024496,14.16,175.5,0,0.0,-1,0.0,0.0,0,2.02,5.2557
315363,1564153060054,6,2.0,0.95,0.34,1.5,1.08,0.98,0.22,0.29,-19,1,-25,1.01,4812,16,102,43,75,1461,143.0,335,467,60,123.0,427,1,258,341,56,0,0,143,-236,13868,124,-5.59,,,,,,,,,,,,
315383,1564153060074,7,2.0,0.94,0.34,1.5,1.09,1.04,0.23,0.34,-19,0,-24,1.06,4813,16,102,43,73,1440,140.0,338,466,60,121.0,491,1,258,331,60,0,0,141,250,-1482,122,-5.59,,,,,,,,,,,,
315403,1564153060102,8,2.01,0.95,0.34,1.49,1.08,1.05,0.2,0.3,-18,-0,-23,1.07,4762,16,102,43,72,1418,138.0,342,461,60,122.0,491,1,254,329,60,0,0,138,-1,9728,120,-5.59,,,,,,,,,,,,
315423,1564153060122,9,2.01,0.95,0.34,1.5,1.08,1.02,0.19,0.26,-18,0,-22,1.04,4772,16,102,43,72,1374,135.0,338,462,60,124.0,491,1,255,325,60,0,0,136,-1,-1482,118,-5.59,,,,,,,,,,,,
315443,1564153060142,7,2.01,0.95,0.34,1.5,1.08,1.01,0.2,0.23,-17,1,-22,1.03,4739,16,102,43,71,1316,133.0,333,463,60,125.0,491,1,252,321,60,0,0,134,-1,13856,116,181.28,44.680878,10.024498,13.28,175.5,0,0.0,-1,0.0,0.0,0,2.02,5.2574
315463,1564153060162,7,2.02,0.94,0.34,1.5,1.08,0.99,0.18,0.27,-17,1,-21,1.01,4788,16,102,43,71,1269,131.0,338,460,60,124.0,491,1,256,322,60,0,0,131,-1,250,114,181.28,,,,,,,,,,,,
315483,1564153060182,7,2.04,0.95,0.34,1.5,1.08,1.03,0.16,0.33,-16,-0,-21,1.04,4791,16,102,43,71,1234,128.0,337,468,60,122.0,508,1,258,322,58,0,0,129,13868,250,114,-5.59,,,,,,,,,,,,
315503,1564153060204,8,2.05,0.95,0.35,1.49,1.09,1.04,0.15,0.32,-16,-0,-20,1.05,4796,16,102,43,71,1178,126.0,345,462,60,121.0,508,1,256,322,58,0,0,126,13868,6656,112,-5.59,,,,,,,,,,,,
315523,1564153060224,10,2.07,0.95,0.35,1.5,1.08,1.03,0.1,0.29,-15,-0,-19,1.04,4774,16,102,43,70,1101,124.0,342,463,60,121.0,508,1,255,317,58,0,0,124,250,13844,109,-5.59,,,,,,,,,,,,
315543,1564153060244,11,2.1,0.95,0.35,1.5,1.08,1.0,0.11,0.21,-15,2,-19,1.0,4706,16,102,43,70,1037,121.0,337,461,60,124.0,508,1,249,316,58,0,0,121,9728,5120,107,-5.59,44.680882,10.024498,12.35,175.4,0,0.0,-1,0.0,0.0,0,2.02,5.259
315563,1564153060264,6,2.13,0.95,0.35,1.5,1.08,0.99,0.13,0.19,-14,2,-18,0.99,4686,16,102,43,70,996,117.0,338,461,60,124.0,508,1,247,311,58,0,0,118,8192,-1482,105,181.28,,,,,,,,,,,,
315583,1564153060284,6,2.15,0.95,0.35,1.49,1.09,0.94,0.13,0.22,-13,1,-17,0.95,4654,16,102,43,69,949,114.0,335,464,60,124.0,523,1,244,311,55,0,0,118,13850,3584,105,181.28,,,,,,,,,,,,
315603,1564153060304,7,2.17,0.95,0.34,1.49,1.09,0.96,0.13,0.25,-12,1,-16,0.96,4676,16,102,43,69,895,110.0,335,469,60,123.0,523,1,246,237,55,0,0,114,13844,3584,103,-5.59,,,,,,,,,,,,
315623,1564153060324,8,2.19,0.96,0.34,1.5,1.08,0.97,0.13,0.3,-11,-0,-15,0.98,4606,16,102,43,69,851,106.0,332,466,60,124.0,523,1,240,309,55,0,0,111,13838,-1482,100,414.87,,,,,,,,,,,,
315643,1564153060344,8,2.22,0.95,0.34,1.49,1.08,1.0,0.15,0.35,-10,-2,-14,1.01,4611,16,102,43,69,838,106.0,336,467,60,121.0,523,1,241,310,55,0,0,107,13832,250,98,414.87,44.680885,10.024499,11.36,175.4,0,0.0,-1,0.0,0.0,0,2.02,5.2607
315663,1564153060364,8,2.24,0.95,0.34,1.5,1.09,1.02,0.15,0.37,-9,-2,-13,1.03,4601,16,102,43,69,826,102.0,331,470,60,122.0,523,1,240,310,55,0,0,103,13832,-22528,95,-5.59,,,,,,,,,,,,
315683,1564153060384,8,2.26,0.95,0.34,1.49,1.09,1.03,0.12,0.36,-9,-2,-12,1.03,4633,16,102,43,69,814,98.0,337,462,60,121.0,568,1,243,310,54,0,0,100,13736,-22528,95,-5.59,,,,,,,,,,,,
315703,1564153060403,9,2.28,0.95,0.35,1.49,1.08,1.04,0.06,0.38,-8,-2,-11,1.05,4623,16,102,43,69,805,94.0,332,465,60,120.0,568,1,242,310,54,0,0,100,14312,-1481,92,648.46,,,,,,,,,,,,
315723,1564153060423,9,2.3,0.95,0.34,1.49,1.09,1.07,0.0,0.35,-8,-2,-10,1.07,4593,16,102,43,69,806,94.0,334,462,60,123.0,568,1,239,309,54,0,0,95,14312,-6144,89,-5.59,,,,,,,,,,,,
315743,1564153060443,10,2.31,0.95,0.34,1.49,1.08,1.07,-0.02,0.29,-7,-2,-9,1.07,4585,16,102,43,68,806,90.0,335,462,60,121.0,568,1,239,309,54,0,0,91,14298,-9728,89,181.28,44.680885,10.024499,10.37,175.4,0,0.0,-1,0.0,0.0,0,2.02,5.2624
315763,1564153060463,9,2.31,0.95,0.35,1.49,1.08,1.07,-0.03,0.26,-7,-1,-8,1.07,4485,16,102,43,69,805,86.0,329,462,60,123.0,568,1,230,306,54,0,0,91,14284,-9728,86,-5.59,,,,,,,,,,,,
315783,1564153060483,11,2.32,0.95,0.34,1.5,1.09,1.11,-0.03,0.2,-6,-1,-7,1.11,4593,16,102,43,68,804,86.0,327,465,60,122.0,616,1,239,309,53,0,0,86,14284,-1481,82,-5.59,,,,,,,,,,,,
315803,1564153060503,11,2.31,0.95,0.34,1.5,1.08,1.13,-0.04,0.16,-6,-1,-6,1.13,4463,16,102,43,68,801,82.0,328,461,60,122.0,616,1,228,229,53,0,0,83,-16896,-1481,82,-5.59,,,,,,,,,,,,
315823,1564153060523,11,2.31,0.95,0.34,1.49,1.08,1.13,-0.05,0.12,-5,-1,-5,1.13,4464,16,102,43,68,799,78.0,326,462,60,122.0,616,1,228,303,53,0,0,83,-20480,-16896,78,-5.59,,,,,,,,,,,,
315843,1564153060543,9,2.3,0.94,0.34,1.49,1.08,1.14,-0.04,0.11,-5,-1,-4,1.14,4382,16,102,43,68,796,78.0,324,463,60,122.0,616,1,222,301,53,0,0,78,-20480,-20480,78,-5.59,44.680889,10.024499,9.17,175.3,0,0.0,-1,0.0,0.0,0,2.02,5.264
315863,1564153060563,8,2.3,0.95,0.34,1.49,1.09,1.16,-0.07,0.12,-5,-2,-3,1.16,4423,16,102,43,68,794,73.0,321,464,60,121.0,616,1,225,228,53,0,0,78,-24064,-20480,73,-5.59,,,,,,,,,,,,
315883,1564153060583,9,2.3,0.95,0.34,1.49,1.08,1.16,-0.06,0.14,-4,-3,-3,1.16,4376,16,102,43,68,794,73.0,323,465,60,122.0,684,1,221,301,50,0,0,73,-24064,250,73,-5.59,,,,,,,,,,,,
315903,1564153060603,9,2.29,0.94,0.34,1.49,1.09,1.15,-0.08,0.22,-4,-3,-3,1.15,4321,16,102,43,68,793,69.0,313,468,60,123.0,684,1,216,300,50,0,0,73,250,250,69,-5.59,,,,,,,,,,,,
315923,1564153060623,8,2.29,0.94,0.35,1.48,1.08,1.15,-0.05,0.25,-4,-3,-3,1.15,4310,16,102,43,68,794,69.0,315,471,60,123.0,684,1,214,300,50,0,0,69,250,250,69,-5.59,,,,,,,,,,,,
315943,1564153060643,13,2.3,0.95,0.34,1.49,1.08,1.11,-0.02,0.29,-3,-2,-3,1.11,4344,16,102,43,69,796,64.0,309,465,60,123.0,684,1,218,300,50,0,0,69,-1281,250,64,-5.59,44.680889,10.024499,7.82,175.3,0,0.0,-1,0.0,0.0,0,2.02,5.2657
315963,1564153060663,10,2.3,0.95,0.35,1.49,1.08,1.09,0.01,0.26,-3,-1,-3,1.09,4332,16,102,43,68,798,64.0,313,462,60,125.0,684,1,217,300,50,0,0,63,-1281,-1,64,181.28,,,,,,,,,,,,
315983,1564153060683,11,2.29,0.95,0.35,1.48,1.08,1.08,-0.0,0.24,-3,-1,-3,1.08,4346,16,102,43,68,800,58.0,310,460,60,124.0,844,1,219,226,49,0,0,63,-1,-1,58,-5.59,,,,,,,,,,,,
316003,1564153060703,9,2.29,0.95,0.35,1.5,1.08,1.09,-0.01,0.21,-2,-1,-3,1.09,4356,16,102,43,68,801,58.0,313,464,60,125.0,844,1,219,301,49,0,0,58,-1,-1,58,181.28,,,,,,,,,,,,
316023,1564153060723,8,2.3,0.95,0.34,1.49,1.08,1.09,-0.01,0.17,-2,-0,-2,1.09,4407,16,102,43,68,802,57.0,312,455,60,124.0,844,1,224,302,49,0,0,58,-1,-1,53,-5.59,,,,,,,,,,,,
316043,1564153060743,6,2.3,0.95,0.35,1.49,1.08,1.09,-0.02,0.14,-2,1,-2,1.09,4400,16,102,43,68,801,53.0,315,456,60,124.0,844,1,223,228,49,0,0,52,-1,-1,53,-5.59,44.680893,10.024499,6.77,175.2,0,0.0,-1,0.0,0.0,0,2.02,5.2674
316063,1564153060763,6,2.29,0.95,0.34,1.5,1.08,1.08,-0.02,0.13,-2,1,-1,1.08,4428,16,102,43,68,799,53.0,318,467,60,123.0,844,1,225,302,49,0,0,52,-1,-1,53,-5.59,,,,,,,,,,,,
316083,1564153060783,5,2.3,0.95,0.35,1.5,1.09,1.08,-0.07,0.13,-2,0,-1,1.09,4487,16,102,43,68,798,52.0,320,466,60,123.0,1085,1,230,303,51,0,0,52,-1,-1,47,-5.59,,,,,,,,,,,,
316103,1564153060803,5,2.29,0.95,0.35,1.49,1.09,1.08,-0.09,0.13,-2,0,-0,1.08,4500,16,102,43,68,796,47.0,327,468,60,122.0,1085,1,232,304,51,0,0,47,-1,-1,47,-5.59,,,,,,,,,,,,
316123,1564153060823,4,2.3,0.95,0.35,1.49,1.09,1.08,-0.06,0.1,-2,0,-0,1.08,4510,16,102,43,68,796,47.0,325,467,60,122.0,1085,1,232,304,51,0,0,47,-1,-1,47,-5.59,,,,,,,,,,,,
316143,1564153060843,5,2.3,0.95,0.35,1.49,1.08,1.06,-0.06,0.1,-2,1,0,1.06,4499,16,102,43,68,796,47.0,325,459,60,123.0,1085,1,231,303,51,0,0,47,-1,-1,42,-5.59,44.680893,10.024499,5.4,175.2,0,0.0,-1,0.0,0.0,0,2.02,5.2691
316163,1564153060863,4,2.3,0.95,0.35,1.5,1.09,1.08,-0.08,0.11,-2,-0,0,1.08,4485,16,102,43,68,795,42.0,326,458,60,123.0,1085,1,230,303,51,0,0,42,5470,-1,42,-5.59,,,,,,,,,,,,
316183,1564153060883,4,2.3,0.95,0.35,1.5,1.08,1.06,-0.12,0.14,-2,-0,0,1.07,4491,16,102,43,68,795,42.0,326,468,60,121.0,1214,1,231,303,51,0,0,42,5470,24067,42,-5.59,,,,,,,,,,,,
316203,1564153060903,3,2.31,0.95,0.35,1.49,1.09,1.06,-0.09,0.11,-2,0,0,1.06,4470,16,102,43,68,794,42.0,324,462,60,123.0,1214,1,229,303,51,0,0,42,5470,24067,42,-5.59,,,,,,,,,,,,
316223,1564153060923,4,2.31,0.95,0.34,1.5,1.08,1.06,-0.11,0.13,-2,0,1,1.07,4403,16,102,43,68,793,38.0,324,467,60,122.0,1214,1,223,302,51,0,0,42,-1,24067,38,-5.59,,,,,,,,,,,,
316243,1564153060943,4,2.31,0.95,0.35,1.49,1.09,1.06,-0.12,0.18,-2,-1,1,1.07,4419,16,102,43,68,792,38.0,320,463,60,123.0,1214,1,225,228,51,0,0,37,-1,-1,38,-5.59,44.680897,10.024499,4.69,175.1,0,0.0,-1,0.0,0.0,0,2.02,5.2707
316263,1564153060963,2,2.3,0.94,0.34,1.49,1.08,1.07,-0.09,0.21,-2,-2,1,1.07,4367,16,102,42,68,790,38.0,321,472,60,123.0,1214,1,220,227,51,0,0,37,-1,-1,38,-5.59,,,,,,,,,,,,
316283,1564153060983,4,2.31,0.94,0.34,1.49,1.09,1.04,-0.1,0.29,-2,-2,1,1.05,4323,17,102,42,68,789,38.0,312,469,60,123.0,1289,1,217,300,49,0,0,37,-1,-1,32,-5.59,,,,,,,,,,,,
316303,1564153060995,3,2.31,0.95,0.35,1.5,1.08,1.04,-0.05,0.32,-1,-2,0,1.04,4418,24,102,42,69,788,32.0,317,466,60,123.0,1289,1,223,305,49,0,0,32,-1,-1,32,-5.59,,,,,,,,,,,,
316323,1564153061015,2,2.31,0.95,0.34,1.49,1.09,1.01,-0.0,0.36,-1,-2,-0,1.01,4374,29,102,42,71,789,32.0,313,460,60,125.0,1289,1,222,311,49,0,0,32,-1,-1,32,-5.59,,,,,,,,,,,,
316343,1564153061035,3,2.31,0.94,0.34,1.49,1.09,0.97,-0.01,0.4,-1,-2,-1,0.97,4413,30,102,42,74,793,32.0,315,462,60,126.0,1289,1,226,323,49,0,0,32,-1,-1,32,181.28,44.680897,10.024499,3.93,175.1,0,0.0,-1,0.0,0.0,0,2.02,5.2724
316363,1564153061055,4,2.3,0.95,0.34,1.5,1.08,0.94,0.02,0.41,-1,-2,-1,0.94,4520,30,102,42,76,797,32.0,316,467,60,124.0,1289,1,236,329,49,0,0,32,-1,-1,32,-5.59,,,,,,,,,,,,
316383,1564153061075,1,2.3,0.94,0.34,1.49,1.08,0.94,0.05,0.43,-1,-1,-1,0.94,4593,36,102,42,78,801,32.0,322,466,60,125.0,2222,1,242,362,60,0,0,32,-1,-1,27,181.28,,,,,,,,,,,,
316403,1564153061099,3,2.31,0.95,0.34,1.49,1.08,0.95,0.05,0.47,-1,-2,-1,0.95,4802,37,102,42,80,804,27.0,333,463,60,122.0,2222,1,259,397,60,0,0,27,-235,-1,27,-5.59,,,,,,,,,,,,
316423,1564153061119,6,2.3,0.94,0.34,1.49,1.08,0.98,0.04,0.44,-1,-1,-0,0.98,4879,37,102,42,82,805,27.0,338,466,60,123.0,2222,1,265,429,60,0,0,27,-235,5442,27,-5.59,,,,,,,,,,,,
316443,1564153061139,4,2.31,0.94,0.34,1.5,1.07,0.92,0.05,0.43,-1,-1,-1,0.93,5088,37,102,42,83,805,27.0,346,461,60,124.0,2222,1,281,452,60,0,0,27,-235,5442,27,-5.59,44.680897,10.024499,3.19,175.1,0,0.0,-1,0.0,0.0,0,2.02,5.274
316463,1564153061159,7,2.3,0.94,0.34,1.48,1.07,0.99,0.07,0.36,-1,-2,-1,0.99,5319,37,102,42,83,802,27.0,360,463,60,123.0,2222,1,297,457,60,0,0,27,-235,5442,27,-5.59,,,,,,,,,,,,
316483,1564153061179,6,2.31,0.94,0.34,1.49,1.07,0.93,0.08,0.38,-0,-1,-1,0.94,5529,37,102,42,82,796,27.0,372,465,60,123.0,3518,1,312,451,95,0,0,27,-235,5442,27,-5.59,,,,,,,,,,,,
316503,1564153061203,7,2.31,0.94,0.34,1.49,1.08,0.83,0.03,0.47,-0,1,-1,0.83,5832,37,102,42,80,788,27.0,389,464,60,123.0,3518,1,333,374,95,0,0,27,-235,5442,22,-5.59,,,,,,,,,,,,
316523,1564153061223,5,2.31,0.94,0.34,1.48,1.08,0.76,0.05,0.46,0,4,-1,0.76,6192,38,102,42,78,781,22.0,416,464,60,124.0,3518,1,353,445,95,0,0,21,-1,5442,22,-5.59,,,,,,,,,,,,
316543,1564153061243,7,2.3,0.94,0.34,1.49,1.08,0.86,0.09,0.35,0,3,-1,0.86,6597,38,102,42,76,776,22.0,441,466,60,122.0,3518,1,367,435,95,0,0,21,-1,5442,22,-5.59,44.680901,10.024499,2.37,175.0,0,0.0,-1,0.0,0.0,0,2.02,5.2757
316563,1564153061263,4,2.31,0.94,0.34,1.49,1.07,0.85,0.07,0.43,0,1,-1,0.85,6759,38,102,42,75,771,22.0,466,465,60,124.0,3518,1,375,422,95,0,0,21,-1,-235,22,-5.59,,,,,,,,,,,,
