"Interval"|"ms"|0|0|1,"Utc"|"ms"|0|0|1,"FB_p"|"bar"|0|300|50,"Volant"|"F"|0.0|300.0|50,"xFR"|"mm"|0.0|5.0|50,"xRR"|"mm"|0.0|5.0|50,"xFL"|"mm"|0.0|5.0|50,"xRL"|"mm"|0.0|5.0|50,"AccelX"|"G"|-3.0|3.0|50,"AccelY"|"G"|-3.0|3.0|50,"AccelZ"|"G"|-3.0|3.0|50,"Yaw"|"Deg/Sec"|-120|120|50,"Pitch"|"Deg/Sec"|-120|120|50,"Roll"|"Deg/Sec"|-120|120|50,"Gsum"|"G"|0.0|3.0|50,"RPM"|""|0|14000|50,"TPS"|"%"|0|100|50,"WaterTemp"|"?C"|0|300|50,"AirTemp"|"?C"|-1000|1000|50,"MAP"|"KPa"|0|255|50,"Lambda"|""|0|1024|50,"WheelSpeed"|"MPH"|0.0|150.0|50,"OilPress"|"PSI"|0|150|50,"FuelPress"|"PSI"|0|150|50,"OilTemp"|"F"|0|300|50,"Battery"|"Volts"|0.0|20.0|50,"FuelCon"|"L/h"|-1000|1000|50,"Gear"|""|0|10|50,"Advance"|"Deg"|-360|360|50,"Injection"|"ms"|-1000|1000|50,"FuelCon"|"L/100km"|-1000|1000|50,"LC_But_Pres"|""|-1000|1000|50,"LC_Active"|""|-1000|1000|50,"RD_Speed"|""|-1000|1000|50,"RUD_Speed"|""|-1000|1000|50,"LD_Speed"|""|-1000|1000|50,"LUD_Speed"|""|-1000|1000|50,"Ana1"|"bar"|-1000.0|1000.0|50,"Latitude"|"Degrees"|-180.0|180.0|10,"Longitude"|"Degrees"|-180.0|180.0|10,"Speed"|"kph"|0.0|150.0|10,"Altitude"|"m"|0.0|4000.0|10,"LapCount"|""|0|0|10,"LapTime"|"Min"|0.0|0.0|10,"Sector"|""|0|0|10,"SectorTime"|"Min"|0.0|0.0|10,"ElapsedTime"|"Min"|0.0|0.0|10,"CurrentLap"|""|0|0|10,"Distance"|"km"|0.0|0.0|10,"SessionTime"|"Min"|0.0|0.0|10
102463,1564152847157,-0,2.21,0.88,0.3,1.44,1.05,1.15,-0.62,0.77,-16,9,-22,1.31,8954,9,86,43,31,823,486.0,655,462,60,123.0,140,1,295,200,66,0,0,494,-1562,32033,468,-5.59,,,,,,,,,,,,
102483,1564152847177,-0,2.21,0.88,0.3,1.43,1.05,1.17,-0.7,0.72,-16,10,-21,1.36,8798,10,86,43,30,814,485.0,648,462,60,123.0,140,1,291,197,66,0,0,495,-6441,10305,469,-5.59,,,,,,,,,,,,
102503,1564152847196,2,2.21,0.88,0.3,1.43,1.06,1.0,-0.52,0.56,-15,10,-20,1.13,8612,6,86,43,29,816,483.0,643,467,60,124.0,140,1,287,194,66,0,0,499,3580,-9203,468,-5.59,,,,,,,,,,,,
102523,1564152847216,2,2.2,0.87,0.3,1.44,1.05,1.08,-0.32,0.62,-14,9,-21,1.13,8415,3,86,43,28,818,483.0,653,465,60,123.0,140,1,282,184,66,0,0,492,3580,3580,467,-5.59,,,,,,,,,,,,
102543,1564152847236,1,2.21,0.88,0.3,1.44,1.05,1.03,-0.33,0.62,-14,9,-21,1.08,8220,6,86,43,28,819,482.0,645,466,60,124.0,140,1,280,175,66,0,0,492,-899,-9203,465,-5.59,44.681282,10.025024,47.49,178.0,0,0.0,-1,0.0,0.0,0,0.3,1.709
102563,1564152847256,1,2.2,0.88,0.3,1.44,1.05,1.13,-0.25,0.67,-15,7,-20,1.15,8223,5,86,43,28,820,480.0,636,461,60,124.0,140,1,280,171,66,0,0,478,8488,6193,463,-5.59,,,,,,,,,,,,
102583,1564152847276,2,2.22,0.88,0.3,1.44,1.06,1.01,-0.2,0.61,-14,7,-18,1.03,8173,6,86,43,28,819,475.0,636,463,60,124.0,112,1,279,168,52,0,0,473,-17956,17628,462,-5.59,,,,,,,,,,,,
102603,1564152847296,-0,2.22,0.88,0.3,1.44,1.05,1.09,-0.16,0.67,-14,3,-19,1.11,8220,6,86,43,28,819,474.0,641,463,60,125.0,112,1,280,171,52,0,0,458,-9203,2524,458,-5.59,,,,,,,,,,,,
102623,1564152847316,2,2.22,0.89,0.3,1.45,1.05,0.95,-0.05,0.55,-14,3,-18,0.95,8263,6,86,43,28,824,470.0,643,467,60,124.0,112,1,280,173,52,0,0,456,8488,-8985,456,-5.59,,,,,,,,,,,,
102643,1564152847336,-0,2.22,0.88,0.3,1.43,1.06,1.06,0.01,0.59,-13,3,-17,1.06,8285,6,86,43,29,829,465.0,645,463,60,123.0,112,1,284,175,52,0,0,454,6193,-8985,453,-5.59,44.68129,10.025015,47.33,178.0,0,0.0,-1,0.0,0.0,0,0.31,1.7107
102663,1564152847356,3,2.21,0.89,0.3,1.44,1.05,1.01,0.01,0.53,-13,3,-18,1.01,8285,5,86,43,28,835,461.0,637,465,60,125.0,112,1,281,175,52,0,0,443,2211,-3267,450,-5.59,,,,,,,,,,,,
102683,1564152847376,2,2.22,0.89,0.3,1.44,1.05,1.1,0.05,0.55,-13,2,-17,1.1,8289,5,86,43,28,845,459.0,640,466,60,125.0,122,1,280,174,55,0,0,452,-18108,15649,447,-5.59,,,,,,,,,,,,
102703,1564152847396,-1,2.21,0.88,0.3,1.44,1.05,1.08,0.13,0.48,-13,3,-16,1.09,8307,6,86,43,28,869,458.0,647,465,60,124.0,122,1,281,176,55,0,0,452,17628,23400,444,-5.59,,,,,,,,,,,,
102723,1564152847416,0,2.22,0.89,0.31,1.44,1.06,1.06,0.18,0.37,-13,2,-15,1.07,8351,6,86,43,28,893,453.0,649,464,60,124.0,122,1,281,177,55,0,0,449,-8985,16648,440,-5.59,,,,,,,,,,,,
102743,1564152847436,-1,2.22,0.89,0.3,1.45,1.05,1.12,0.12,0.44,-13,2,-15,1.13,8359,5,86,43,28,912,448.0,647,463,60,123.0,122,1,281,177,55,0,0,446,8488,-768,438,-5.59,44.681301,10.025005,46.04,178.0,0,0.0,-1,0.0,0.0,0,0.31,1.7124
102763,1564152847456,1,2.22,0.89,0.31,1.45,1.06,1.04,0.12,0.36,-12,2,-15,1.05,8318,6,86,43,28,931,446.0,642,468,60,125.0,122,1,281,176,55,0,0,446,16648,20625,435,-5.59,,,,,,,,,,,,
102783,1564152847476,-1,2.23,0.89,0.3,1.44,1.06,1.11,0.1,0.47,-12,3,-15,1.11,8278,5,86,43,28,968,442.0,647,462,60,124.0,127,1,280,174,55,0,0,443,23400,-768,433,-5.59,,,,,,,,,,,,
102803,1564152847496,2,2.22,0.89,0.3,1.45,1.05,1.06,0.14,0.42,-11,3,-15,1.07,8252,5,86,43,28,1005,442.0,640,467,60,124.0,127,1,280,173,55,0,0,440,23400,-768,430,-5.59,,,,,,,,,,,,
102823,1564152847516,-0,2.22,0.88,0.31,1.44,1.06,1.14,0.12,0.42,-12,3,-15,1.15,8194,6,86,43,28,1024,439.0,641,463,60,124.0,127,1,279,169,55,0,0,442,-28332,5600,428,-5.59,,,,,,,,,,,,
102843,1564152847536,0,2.23,0.89,0.31,1.44,1.06,1.13,0.16,0.44,-12,2,-15,1.14,8099,6,86,43,28,1042,437.0,642,462,60,125.0,127,1,279,164,55,0,0,439,19477,-7939,426,-5.59,44.681309,10.024995,44.37,178.1,0,0.0,-1,0.0,0.0,0,0.31,1.7141
102863,1564152847556,3,2.22,0.89,0.3,1.45,1.05,1.11,0.19,0.42,-12,2,-14,1.13,8023,6,86,43,29,1065,434.0,642,463,60,124.0,127,1,281,162,55,0,0,434,-7939,-3856,423,-5.59,,,,,,,,,,,,
102883,1564152847576,0,2.23,0.89,0.3,1.44,1.06,1.2,0.16,0.45,-12,1,-15,1.21,7999,6,86,43,29,1088,432.0,637,463,60,123.0,113,1,281,161,48,0,0,434,-3322,-21792,421,-5.59,,,,,,,,,,,,
102903,1564152847596,0,2.22,0.89,0.31,1.45,1.06,1.2,0.13,0.43,-12,2,-15,1.21,7931,6,86,43,28,1096,429.0,635,462,60,124.0,113,1,278,160,48,0,0,434,3635,-21792,418,-5.59,,,,,,,,,,,,
102923,1564152847616,3,2.22,0.89,0.3,1.45,1.05,1.08,0.16,0.37,-12,3,-14,1.1,7921,6,87,43,29,1100,427.0,636,466,60,124.0,113,1,281,161,48,0,0,424,13552,-21792,416,-5.59,,,,,,,,,,,,
102943,1564152847636,-1,2.22,0.89,0.3,1.44,1.05,1.12,0.22,0.38,-11,3,-15,1.14,7881,6,86,43,29,1103,424.0,636,462,60,124.0,113,1,280,161,48,0,0,424,-4082,-21792,414,-5.59,44.681316,10.024984,43.32,178.1,0,0.0,-1,0.0,0.0,0,0.31,1.7157
102963,1564152847656,-0,2.22,0.89,0.31,1.44,1.06,1.21,0.16,0.48,-12,3,-15,1.22,7815,6,86,43,29,1106,424.0,643,462,60,123.0,113,1,280,161,48,0,0,424,-4082,18584,412,-5.59,,,,,,,,,,,,
102983,1564152847676,1,2.2,0.88,0.3,1.43,1.05,1.23,0.13,0.45,-12,3,-14,1.24,7815,6,87,43,29,1107,420.0,632,463,60,125.0,114,1,280,161,47,0,0,421,-8165,-9166,409,-5.59,,,,,,,,,,,,
103003,1564152847696,0,2.23,0.89,0.31,1.45,1.05,1.15,0.19,0.38,-12,3,-15,1.16,7738,5,87,43,28,1106,419.0,627,466,60,124.0,114,1,276,160,47,0,0,418,7154,13040,406,-5.59,,,,,,,,,,,,
103023,1564152847716,2,2.22,0.89,0.3,1.44,1.05,1.05,0.3,0.34,-11,1,-15,1.09,7706,6,87,43,28,1104,416.0,634,464,60,123.0,114,1,276,160,47,0,0,415,18584,10392,404,-5.59,,,,,,,,,,,,
103043,1564152847736,2,2.22,0.89,0.31,1.45,1.05,1.0,0.28,0.33,-11,3,-14,1.03,7719,6,87,43,28,1102,412.0,631,461,60,123.0,114,1,276,160,47,0,0,415,13040,10392,400,-5.59,44.681324,10.024974,41.92,178.1,0,0.0,-1,0.0,0.0,0,0.31,1.7174
103063,1564152847756,4,2.22,0.89,0.3,1.45,1.05,1.01,0.29,0.31,-11,2,-13,1.06,7646,5,87,43,27,1100,409.0,631,463,60,124.0,114,1,272,160,47,0,0,412,11560,2524,398,-5.59,,,,,,,,,,,,
103083,1564152847776,-0,2.21,0.89,0.3,1.45,1.05,1.12,0.23,0.44,-11,2,-14,1.14,7637,5,87,43,27,1099,410.0,628,464,60,124.0,113,1,272,158,45,0,0,409,9517,-8151,397,-5.59,,,,,,,,,,,,
103103,1564152847796,-0,2.22,0.89,0.3,1.45,1.06,1.21,0.13,0.51,-11,3,-13,1.21,7591,6,87,43,27,1090,408.0,626,464,60,125.0,113,1,272,158,45,0,0,411,-26615,2524,396,-5.59,,,,,,,,,,,,
103123,1564152847816,-1,2.22,0.89,0.3,1.44,1.06,1.29,0.12,0.62,-12,2,-13,1.29,7609,6,87,43,26,1078,406.0,626,461,60,125.0,113,1,269,158,45,0,0,408,1504,6384,394,-5.59,,,,,,,,,,,,
103143,1564152847836,-1,2.22,0.89,0.31,1.44,1.06,1.31,0.05,0.67,-12,0,-14,1.31,7545,5,86,43,26,1067,403.0,628,465,60,124.0,113,1,268,158,45,0,0,407,-8151,-6656,392,-5.59,44.681332,10.024963,40.82,178.1,0,0.0,-1,0.0,0.0,0,0.31,1.719
103163,1564152847856,-1,2.21,0.89,0.31,1.45,1.06,1.38,0.08,0.7,-13,-1,-15,1.38,7515,5,86,43,27,1056,401.0,620,463,60,125.0,113,1,272,158,45,0,0,407,6512,-32702,389,-5.59,,,,,,,,,,,,
103183,1564152847876,-0,2.21,0.89,0.3,1.45,1.05,1.43,0.01,0.74,-13,0,-14,1.43,7440,6,87,44,26,1039,400.0,618,462,60,125.0,113,1,267,157,44,0,0,406,6512,17144,389,-5.59,,,,,,,,,,,,
103203,1564152847896,-2,2.21,0.89,0.31,1.44,1.06,1.49,-0.02,0.8,-13,0,-13,1.49,7425,5,86,44,26,1016,398.0,625,464,60,123.0,113,1,267,156,44,0,0,403,6384,-6656,386,-5.59,,,,,,,,,,,,
103223,1564152847916,-1,2.21,0.89,0.31,1.44,1.06,1.52,-0.05,0.92,-13,-1,-15,1.52,7355,5,87,44,26,999,396.0,622,466,60,125.0,113,1,266,156,44,0,0,400,-32702,505,385,-5.59,,,,,,,,,,,,
103243,1564152847936,3,2.22,0.89,0.31,1.45,1.05,1.56,-0.05,0.91,-13,-1,-15,1.56,7367,6,87,44,27,987,394.0,624,464,60,123.0,113,1,270,157,44,0,0,401,-1818,-6524,381,-5.59,44.681339,10.024953,39.64,178.1,0,0.0,-1,0.0,0.0,0,0.31,1.7207
103263,1564152847956,3,2.22,0.89,0.3,1.45,1.06,1.5,-0.09,0.89,-12,0,-14,1.5,7309,5,87,44,26,972,392.0,629,465,60,123.0,113,1,266,157,44,0,0,395,1,505,381,-5.59,,,,,,,,,,,,
103283,1564152847976,1,2.23,0.89,0.3,1.44,1.05,1.34,0.01,0.73,-11,1,-13,1.34,7298,5,87,44,27,954,393.0,621,465,60,122.0,112,1,270,157,43,0,0,392,-6656,-3866,380,-5.59,,,,,,,,,,,,
103303,1564152847996,1,2.23,0.9,0.3,1.44,1.06,1.2,0.09,0.57,-10,2,-13,1.2,7270,6,87,44,27,939,390.0,613,464,60,124.0,112,1,270,157,43,0,0,392,-1562,-6475,379,-5.59,,,,,,,,,,,,
103323,1564152848008,-0,2.23,0.9,0.31,1.45,1.06,1.14,0.1,0.56,-10,0,-13,1.15,7225,5,87,44,27,933,388.0,610,460,60,124.0,112,1,270,157,43,0,0,392,-31744,19125,376,-5.59,,,,,,,,,,,,
103343,1564152848028,-1,2.23,0.89,0.31,1.44,1.06,1.23,0.04,0.62,-11,-1,-14,1.23,7222,5,87,44,27,925,384.0,618,462,60,123.0,112,1,270,157,43,0,0,389,-19019,-992,375,-5.59,44.681343,10.024942,38.81,178.2,0,0.0,-1,0.0,0.0,0,0.31,1.7224
103363,1564152848048,3,2.22,0.89,0.31,1.45,1.06,1.29,-0.04,0.69,-11,-0,-13,1.29,7148,5,87,44,27,916,382.0,621,463,60,123.0,112,1,269,157,43,0,0,388,19125,3,376,-5.59,,,,,,,,,,,,
103383,1564152848068,2,2.22,0.89,0.31,1.45,1.06,1.22,-0.0,0.6,-11,0,-12,1.22,7134,5,87,44,27,909,381.0,610,465,60,123.0,112,1,269,157,42,0,0,386,-18948,-6656,371,-5.59,,,,,,,,,,,,
103403,1564152848088,-0,2.22,0.9,0.31,1.44,1.06,1.17,0.1,0.52,-10,2,-13,1.18,7110,5,87,44,27,906,379.0,609,459,60,125.0,112,1,269,157,42,0,0,384,8200,2278,371,-5.59,,,,,,,,,,,,
103423,1564152848108,-1,2.22,0.9,0.31,1.45,1.06,1.14,0.09,0.49,-11,-0,-13,1.15,7048,5,87,44,28,904,381.0,605,462,60,125.0,112,1,272,159,42,0,0,388,-18948,-6656,370,-5.59,,,,,,,,,,,,
103443,1564152848128,2,2.22,0.89,0.31,1.45,1.06,1.15,0.09,0.52,-10,1,-12,1.15,7051,5,87,44,28,905,378.0,608,462,60,124.0,112,1,272,159,42,0,0,379,2278,742,368,-5.59,44.681351,10.024932,38.21,178.2,0,0.0,-1,0.0,0.0,0,0.32,1.7241
103463,1564152848148,-1,2.22,0.89,0.31,1.44,1.06,1.04,0.17,0.42,-10,2,-12,1.06,7022,5,87,44,28,906,376.0,603,463,60,124.0,112,1,272,159,42,0,0,377,770,742,365,-5.59,,,,,,,,,,,,
103483,1564152848168,-0,2.22,0.89,0.32,1.45,1.07,1.03,0.11,0.46,-10,1,-12,1.03,6985,5,87,44,28,908,376.0,596,460,60,125.0,115,1,273,159,42,0,0,377,3,0,364,-5.59,,,,,,,,,,,,
103503,1564152848195,1,2.22,0.89,0.31,1.45,1.06,1.03,0.01,0.49,-10,3,-11,1.03,6991,5,87,44,29,912,373.0,598,466,60,124.0,115,1,277,159,42,0,0,377,-6656,230,361,-5.59,,,,,,,,,,,,
103523,1564152848215,-0,2.21,0.9,0.3,1.45,1.06,0.94,0.13,0.43,-9,3,-12,0.95,6962,5,87,44,29,918,371.0,602,463,60,124.0,115,1,277,159,42,0,0,375,257,-6405,359,414.87,,,,,,,,,,,,
103543,1564152848235,3,2.2,0.89,0.31,1.45,1.06,0.91,0.14,0.46,-10,0,-12,0.92,6908,5,87,44,29,924,372.0,594,462,60,125.0,115,1,277,160,42,0,0,371,1,-6405,356,181.28,44.681358,10.024921,37.09,178.2,0,0.0,-1,0.0,0.0,0,0.32,1.7257
103563,1564152848255,1,2.19,0.9,0.31,1.45,1.06,0.89,0.24,0.38,-11,2,-12,0.92,6883,5,87,44,29,926,369.0,589,466,60,123.0,115,1,278,160,42,0,0,374,-6656,-6458,355,414.87,,,,,,,,,,,,
103583,1564152848275,-0,2.19,0.89,0.31,1.45,1.06,0.81,0.38,0.28,-11,1,-11,0.89,6863,5,87,44,29,930,368.0,590,463,60,126.0,115,1,278,160,41,0,0,370,0,-6458,352,-5.59,,,,,,,,,,,,
103603,1564152848297,2,2.2,0.89,0.31,1.45,1.05,0.86,0.39,0.31,-11,1,-12,0.94,6813,6,87,44,29,935,368.0,597,462,60,124.0,115,1,278,162,41,0,0,373,0,4104,351,-5.59,,,,,,,,,,,,
103623,1564152848317,-1,2.18,0.9,0.31,1.45,1.06,0.87,0.41,0.28,-12,1,-13,0.96,6764,5,87,44,30,941,367.0,584,463,60,126.0,115,1,282,162,41,0,0,372,0,-6640,350,-5.59,,,,,,,,,,,,
103643,1564152848337,1,2.19,0.89,0.3,1.44,1.06,0.9,0.28,0.36,-13,0,-13,0.94,6764,5,87,44,30,943,365.0,582,463,60,123.0,115,1,282,162,41,0,0,370,-6405,3302,348,-5.59,44.681362,10.024911,36.24,178.2,0,0.0,-1,0.0,0.0,0,0.32,1.7274
103663,1564152848357,-0,2.18,0.9,0.3,1.45,1.06,0.87,0.32,0.32,-12,2,-14,0.93,6744,5,87,44,30,947,363.0,576,461,60,125.0,115,1,282,162,41,0,0,369,3082,28553,345,-5.59,,,,,,,,,,,,
103683,1564152848377,0,2.18,0.89,0.31,1.44,1.06,0.86,0.35,0.32,-12,-0,-14,0.92,6682,6,87,44,30,946,362.0,580,464,60,123.0,118,1,282,162,41,0,0,366,2790,-1246,344,-5.59,,,,,,,,,,,,
103703,1564152848397,-0,2.18,0.89,0.31,1.44,1.06,0.81,0.41,0.33,-12,1,-14,0.91,6682,6,87,44,31,946,359.0,568,462,60,125.0,118,1,286,162,41,0,0,365,-6458,28553,342,-5.59,,,,,,,,,,,,
103723,1564152848417,0,2.17,0.89,0.31,1.45,1.05,0.92,0.38,0.3,-13,1,-15,0.99,6658,6,87,44,31,943,359.0,570,465,60,122.0,118,1,286,163,41,0,0,366,-29302,2811,342,-5.59,,,,,,,,,,,,
103743,1564152848437,2,2.17,0.89,0.31,1.45,1.05,0.92,0.32,0.32,-13,1,-15,0.97,6625,6,87,44,31,940,359.0,571,465,60,125.0,118,1,286,163,41,0,0,365,-29302,2811,341,-5.59,44.681366,10.024901,35.73,178.2,0,0.0,-1,0.0,0.0,0,0.32,1.729
103763,1564152848457,-1,2.17,0.9,0.31,1.44,1.06,0.92,0.37,0.28,-13,1,-15,1.0,6632,6,87,44,32,938,357.0,578,463,60,124.0,118,1,290,165,41,0,0,362,-6640,-14714,340,-5.59,,,,,,,,,,,,
103783,1564152848477,2,2.17,0.89,0.31,1.45,1.06,0.91,0.36,0.3,-13,-0,-15,0.98,6555,6,87,44,31,934,355.0,575,461,60,125.0,120,1,286,165,41,0,0,360,2060,6870,338,-5.59,,,,,,,,,,,,
103803,1564152848497,-1,2.17,0.89,0.31,1.44,1.05,0.95,0.36,0.35,-13,2,-16,1.01,6528,6,87,44,32,934,354.0,565,463,60,125.0,120,1,290,165,41,0,0,357,3302,-31206,336,-5.59,,,,,,,,,,,,
103823,1564152848517,0,2.16,0.89,0.31,1.44,1.06,0.95,0.38,0.32,-13,1,-16,1.03,6528,6,87,44,32,934,353.0,567,465,60,122.0,120,1,290,165,41,0,0,387,-6644,-122,335,-5.59,,,,,,,,,,,,
103843,1564152848537,3,2.16,0.9,0.31,1.46,1.06,0.9,0.34,0.42,-13,1,-16,0.96,6524,6,87,44,32,933,351.0,566,463,60,125.0,120,1,290,165,41,0,0,387,28553,-122,333,-5.59,44.681374,10.024891,34.69,178.2,0,0.0,-1,0.0,0.0,0,0.32,1.7307
103863,1564152848557,-0,2.16,0.89,0.31,1.45,1.06,0.91,0.38,0.4,-13,3,-17,0.99,6517,6,87,44,33,934,350.0,568,465,60,125.0,120,1,292,170,41,0,0,387,-30454,13,333,-5.59,,,,,,,,,,,,
103883,1564152848577,-1,2.16,0.9,0.31,1.45,1.06,1.02,0.33,0.38,-14,1,-17,1.08,6476,6,87,44,33,934,349.0,571,464,60,123.0,126,1,292,170,42,0,0,350,2811,13,331,-5.59,,,,,,,,,,,,
103903,1564152848597,1,2.17,0.89,0.31,1.45,1.05,0.9,0.34,0.43,-13,1,-17,0.96,6454,6,87,44,33,934,350.0,559,462,60,126.0,126,1,292,170,42,0,0,352,-30454,3327,329,-5.59,,,,,,,,,,,,
103923,1564152848617,5,2.17,0.89,0.31,1.45,1.06,0.91,0.4,0.45,-13,2,-19,0.99,6432,6,87,44,33,935,348.0,553,465,60,126.0,126,1,292,170,42,0,0,351,-30438,13,329,-5.59,,,,,,,,,,,,
103943,1564152848637,-1,2.16,0.89,0.31,1.45,1.06,1.01,0.38,0.34,-13,2,-19,1.08,6381,6,87,44,34,936,345.0,548,465,60,125.0,126,1,295,170,42,0,0,351,6870,4838,328,-5.59,44.681377,10.02488,33.72,178.2,0,0.0,-1,0.0,0.0,0,0.32,1.7324
103963,1564152848657,1,2.16,0.9,0.31,1.45,1.06,0.97,0.35,0.32,-13,1,-18,1.03,6390,6,87,44,34,936,344.0,555,463,60,124.0,126,1,295,175,42,0,0,350,-10554,-32559,326,-5.59,,,,,,,,,,,,
103983,1564152848677,2,2.17,0.89,0.31,1.45,1.06,0.92,0.36,0.35,-13,2,-18,0.99,6347,6,87,44,34,936,343.0,548,462,60,126.0,128,1,295,175,42,0,0,347,-31206,4838,325,-5.59,,,,,,,,,,,,
104003,1564152848697,1,2.16,0.9,0.31,1.45,1.07,0.93,0.39,0.39,-13,3,-18,1.01,6325,6,87,44,34,935,342.0,546,462,60,126.0,128,1,295,175,42,0,0,349,-31206,165,325,-5.59,,,,,,,,,,,,
104023,1564152848717,-2,2.17,0.9,0.31,1.44,1.06,1.02,0.34,0.4,-13,1,-19,1.08,6311,6,87,44,35,934,339.0,549,463,60,125.0,128,1,298,175,42,0,0,344,-122,175,323,-5.59,,,,,,,,,,,,
104043,1564152848737,-1,2.16,0.9,0.32,1.44,1.06,1.07,0.32,0.37,-14,-2,-19,1.12,6266,6,87,44,35,933,337.0,558,465,60,124.0,128,1,298,181,42,0,0,345,2560,-22016,319,-5.59,44.681381,10.024869,33.37,178.2,0,0.0,-1,0.0,0.0,0,0.32,1.7341
104063,1564152848757,1,2.17,0.9,0.31,1.45,1.06,0.95,0.33,0.36,-13,-3,-18,1.0,6268,6,87,44,35,930,337.0,552,465,60,124.0,128,1,298,181,42,0,0,342,2560,170,319,-5.59,,,,,,,,,,,,
104083,1564152848777,1,2.17,0.9,0.32,1.45,1.07,0.84,0.29,0.41,-13,-0,-18,0.89,6208,6,87,44,35,927,337.0,546,462,60,126.0,131,1,298,181,42,0,0,340,13,165,318,-5.59,,,,,,,,,,,,
104103,1564152848797,2,2.16,0.9,0.32,1.45,1.07,0.81,0.39,0.5,-13,2,-18,0.9,6210,6,87,44,35,923,335.0,536,464,60,126.0,131,1,298,181,42,0,0,339,3346,-23296,317,-5.59,,,,,,,,,,,,
104123,1564152848817,3,2.15,0.9,0.31,1.45,1.06,0.88,0.41,0.49,-13,5,-19,0.97,6186,6,87,44,35,919,334.0,544,461,60,126.0,131,1,298,181,42,0,0,337,4838,-24576,316,-5.59,,,,,,,,,,,,
104143,1564152848837,3,2.15,0.9,0.31,1.44,1.06,0.99,0.4,0.51,-14,5,-19,1.07,6147,6,87,44,35,916,333.0,533,463,60,125.0,131,1,298,181,42,0,0,339,-6528,-27136,315,-5.59,44.681385,10.024858,32.7,178.2,0,0.0,-1,0.0,0.0,0,0.32,1.7357
104163,1564152848857,-1,2.15,0.9,0.31,1.45,1.06,1.1,0.4,0.51,-15,3,-20,1.17,6173,6,87,44,36,913,333.0,543,462,60,125.0,131,1,301,186,42,0,0,341,-6528,-24576,313,-5.59,,,,,,,,,,,,
104183,1564152848877,-0,2.15,0.9,0.32,1.45,1.06,1.12,0.41,0.46,-15,1,-19,1.19,6113,7,87,44,36,910,331.0,542,466,60,124.0,137,1,301,186,43,0,0,336,-12032,150,313,-5.59,,,,,,,,,,,,
104203,1564152848897,-2,2.15,0.9,0.32,1.44,1.07,1.08,0.38,0.45,-15,-1,-19,1.15,6115,7,87,44,36,907,330.0,538,463,60,124.0,137,1,301,186,43,0,0,338,175,-29696,311,-5.59,,,,,,,,,,,,
104223,1564152848917,-2,2.15,0.9,0.31,1.45,1.06,1.04,0.36,0.44,-16,-3,-19,1.1,6058,7,87,44,36,906,328.0,533,466,60,123.0,137,1,301,186,43,0,0,335,170,135,309,-5.59,,,,,,,,,,,,
104243,1564152848937,-1,2.13,0.9,0.31,1.45,1.06,0.96,0.38,0.41,-16,-4,-19,1.03,6058,7,87,44,37,904,327.0,529,461,60,124.0,137,1,304,192,43,0,0,333,-22016,-27136,309,-5.59,44.681389,10.024848,32.19,178.2,0,0.0,-1,0.0,0.0,0,0.32,1.7374
104263,1564152848957,-2,2.13,0.89,0.31,1.45,1.07,0.87,0.4,0.37,-16,-4,-18,0.95,6015,7,87,44,37,902,327.0,524,465,60,124.0,137,1,304,192,43,0,0,331,170,-30976,308,-5.59,,,,,,,,,,,,
104283,1564152848977,-0,2.12,0.9,0.31,1.44,1.06,0.78,0.42,0.3,-16,-5,-18,0.88,6005,7,87,44,37,901,326.0,524,463,60,124.0,140,1,304,192,43,0,0,331,165,135,306,-5.59,,,,,,,,,,,,
104303,1564152848997,-1,2.13,0.9,0.31,1.45,1.06,0.72,0.4,0.27,-16,-4,-18,0.82,5990,7,87,44,38,900,325.0,523,464,60,124.0,140,1,306,196,43,0,0,329,165,125,304,-5.59,,,,,,,,,,,,
104323,1564152849009,-1,2.11,0.9,0.31,1.45,1.06,0.71,0.41,0.24,-16,-5,-17,0.82,5969,7,87,44,38,899,325.0,519,461,60,124.0,140,1,305,196,43,0,0,333,-23296,125,303,-5.59,,,,,,,,,,,,
104343,1564152849029,-1,2.12,0.89,0.31,1.45,1.07,0.69,0.44,0.2,-16,-6,-17,0.82,6001,7,87,44,38,898,324.0,524,463,60,123.0,140,1,307,197,43,0,0,84,160,120,301,-5.59,44.681393,10.024837,31.75,178.2,0,0.0,-1,0.0,0.0,0,0.32,1.739
104363,1564152849049,-1,2.12,0.9,0.31,1.45,1.06,0.68,0.46,0.2,-16,-7,-18,0.82,5946,7,87,44,38,897,323.0,520,462,60,123.0,140,1,303,196,43,0,0,323,-24576,115,300,-5.59,,,,,,,,,,,,
104383,1564152849069,-0,2.11,0.9,0.31,1.45,1.06,0.74,0.47,0.25,-17,-8,-18,0.87,5927,7,87,44,39,897,320.0,518,465,60,124.0,146,1,305,196,44,0,0,324,-25856,110,298,-5.59,,,,,,,,,,,,
104403,1564152849097,-1,2.12,0.9,0.31,1.45,1.06,0.82,0.5,0.29,-18,-9,-19,0.96,5898,7,87,44,39,896,320.0,519,466,60,124.0,146,1,303,202,44,0,0,323,150,105,297,-5.59,,,,,,,,,,,,
104423,1564152849117,3,2.11,0.9,0.31,1.44,1.06,0.92,0.49,0.33,-19,-9,-20,1.05,5822,7,87,44,39,895,319.0,509,463,60,126.0,146,1,299,202,44,0,0,326,-27136,26880,297,-5.59,,,,,,,,,,,,
104443,1564152849137,1,2.12,0.9,0.31,1.45,1.07,1.03,0.43,0.39,-19,-8,-20,1.12,5808,7,87,44,39,895,319.0,507,464,60,125.0,146,1,298,202,44,0,0,323,-27136,110,297,-5.59,44.681393,10.024826,31.04,178.2,0,0.0,-1,0.0,0.0,0,0.32,1.7407
104463,1564152849157,1,2.11,0.9,0.31,1.45,1.06,1.05,0.47,0.42,-19,-6,-20,1.16,5756,7,87,44,40,896,317.0,506,462,60,125.0,146,1,300,202,44,0,0,321,-28416,105,295,-5.59,,,,,,,,,,,,
104483,1564152849177,0,2.12,0.9,0.31,1.46,1.06,0.98,0.51,0.49,-19,-3,-20,1.1,5728,7,87,44,41,896,315.0,511,461,60,125.0,149,1,303,204,44,0,0,319,-29696,100,294,-5.59,,,,,,,,,,,,
104503,1564152849196,-1,2.12,0.9,0.31,1.45,1.06,0.85,0.48,0.47,-18,-2,-21,0.97,5742,7,87,44,41,892,315.0,505,462,60,124.0,149,1,304,204,44,0,0,320,-29696,24320,294,-5.59,,,,,,,,,,,,
104523,1564152849216,-1,2.11,0.89,0.31,1.45,1.06,0.81,0.47,0.41,-18,-3,-22,0.94,5723,9,87,44,42,887,314.0,510,462,60,123.0,149,1,308,205,44,0,0,319,135,85,292,-5.59,,,,,,,,,,,,
104543,1564152849236,1,2.12,0.9,0.31,1.45,1.06,0.9,0.4,0.48,-18,-5,-22,0.98,5744,12,87,44,44,883,311.0,503,464,60,124.0,149,1,319,208,44,0,0,314,-32256,23040,289,-5.59,44.681396,10.024817,30.39,178.2,0,0.0,-1,0.0,0.0,0,0.33,1.7424
104563,1564152849256,2,2.12,0.9,0.31,1.44,1.06,0.98,0.31,0.55,-19,-6,-22,1.03,5739,13,87,44,44,880,308.0,499,460,60,126.0,149,1,320,208,44,0,0,313,120,21760,289,-5.59,,,,,,,,,,,,
104583,1564152849276,1,2.13,0.89,0.3,1.46,1.06,0.98,0.33,0.6,-20,-4,-21,1.04,5755,15,87,44,46,877,308.0,508,463,60,125.0,156,1,331,211,45,0,0,315,120,80,288,-5.59,,,,,,,,,,,,
104603,1564152849296,0,2.14,0.9,0.31,1.45,1.07,0.92,0.32,0.62,-19,-2,-21,0.97,5721,15,87,44,48,873,308.0,506,463,60,125.0,156,1,337,216,45,0,0,316,120,23040,287,-5.59,,,,,,,,,,,,
104623,1564152849316,-0,2.15,0.9,0.32,1.45,1.07,0.85,0.34,0.51,-18,-1,-21,0.91,5737,15,87,44,49,872,308.0,503,464,60,124.0,156,1,343,221,45,0,0,314,115,21760,287,-5.59,,,,,,,,,,,,
104643,1564152849336,-1,2.15,0.9,0.31,1.45,1.06,0.85,0.37,0.49,-18,-3,-22,0.92,5755,15,87,44,50,873,305.0,499,465,60,123.0,156,1,348,226,45,0,0,311,29440,0,286,-5.59,44.681396,10.024806,29.63,178.2,0,0.0,-1,0.0,0.0,0,0.33,1.7441
104663,1564152849356,3,2.16,0.9,0.31,1.46,1.06,0.94,0.35,0.49,-17,-5,-22,1.01,5742,16,88,44,51,873,304.0,501,463,60,124.0,156,1,350,231,45,0,0,311,110,20480,286,-5.59,,,,,,,,,,,,
104683,1564152849376,1,2.17,0.9,0.31,1.46,1.06,1.0,0.33,0.51,-17,-6,-22,1.05,5772,19,87,44,52,873,303.0,502,463,60,125.0,174,1,357,236,50,0,0,309,28160,23040,286,-5.59,,,,,,,,,,,,
104703,1564152849396,1,2.17,0.9,0.31,1.45,1.06,0.97,0.3,0.54,-17,-5,-22,1.02,5828,20,87,44,53,873,302.0,506,463,60,125.0,174,1,365,241,50,0,0,310,105,20480,285,181.28,,,,,,,,,,,,
104723,1564152849416,2,2.17,0.9,0.31,1.46,1.07,0.9,0.26,0.57,-17,-4,-21,0.93,5877,20,87,44,54,873,302.0,501,464,60,125.0,174,1,373,248,50,0,0,308,105,80,285,-5.59,,,,,,,,,,,,
104743,1564152849436,1,2.17,0.91,0.32,1.45,1.07,0.82,0.24,0.6,-17,-4,-21,0.85,5975,20,87,44,54,870,300.0,507,461,60,126.0,174,1,381,249,50,0,0,305,26880,0,286,-5.59,44.6814,10.024796,29.27,178.2,0,0.0,-1,0.0,0.0,0,0.33,1.7457
104763,1564152849456,2,2.18,0.91,0.31,1.46,1.06,0.74,0.23,0.61,-17,-3,-21,0.78,6067,21,87,44,55,866,301.0,517,461,60,126.0,174,1,384,250,50,0,0,305,26880,20480,285,-5.59,,,,,,,,,,,,
104783,1564152849476,3,2.18,0.9,0.31,1.45,1.06,0.72,0.22,0.63,-17,-3,-20,0.75,6181,21,87,44,55,862,300.0,522,463,60,126.0,203,1,385,251,58,0,0,306,100,0,285,-5.59,,,,,,,,,,,,
104803,1564152849496,-1,2.19,0.91,0.31,1.46,1.07,0.75,0.24,0.59,-16,-2,-21,0.78,6256,21,87,44,55,858,300.0,532,466,60,124.0,203,1,386,251,58,0,0,307,25600,20480,285,-5.59,,,,,,,,,,,,
104823,1564152849516,-1,2.2,0.91,0.31,1.46,1.06,0.78,0.24,0.53,-16,-2,-20,0.82,6233,22,87,44,55,853,300.0,539,465,60,124.0,203,1,385,251,58,0,0,309,100,105,285,-5.59,,,,,,,,,,,,
104843,1564152849536,-2,2.2,0.9,0.32,1.45,1.07,0.81,0.22,0.54,-16,-2,-18,0.84,6060,22,87,44,55,849,300.0,537,468,60,123.0,203,1,384,250,58,0,0,312,100,155,289,-5.59,44.6814,10.024785,29.15,178.2,0,0.0,-1,0.0,0.0,0,0.33,1.7474
104863,1564152849556,-2,2.2,0.9,0.31,1.45,1.07,0.86,0.2,0.52,-15,-2,-18,0.89,5861,22,87,44,56,846,303.0,523,466,60,124.0,203,1,370,247,58,0,0,316,29440,165,294,-5.59,,,,,,,,,,,,
104883,1564152849576,3,2.19,0.9,0.31,1.46,1.06,0.94,0.17,0.55,-14,-4,-18,0.95,5700,22,88,44,57,847,306.0,498,465,60,124.0,183,1,355,245,54,0,0,316,115,32000,296,-5.59,,,,,,,,,,,,
104903,1564152849596,0,2.2,0.9,0.32,1.45,1.07,0.94,0.12,0.58,-14,-6,-17,0.95,5550,22,88,44,58,855,306.0,478,463,60,126.0,183,1,338,246,54,0,0,318,115,120,297,181.28,,,,,,,,,,,,
104923,1564152849616,-0,2.2,0.9,0.31,1.46,1.07,0.9,0.19,0.49,-13,-6,-17,0.92,5487,22,87,44,60,871,308.0,480,461,60,124.0,183,1,328,250,54,0,0,316,30720,110,297,-5.59,,,,,,,,,,,,
104943,1564152849636,2,2.2,0.9,0.32,1.45,1.07,0.97,0.13,0.48,-13,-7,-18,0.98,5532,22,88,44,62,887,306.0,473,463,60,123.0,183,1,328,257,54,0,0,316,115,115,296,181.28,44.6814,10.024775,29.16,178.2,0,0.0,-1,0.0,0.0,0,0.33,1.749
104963,1564152849656,0,2.2,0.91,0.31,1.46,1.06,1.0,0.1,0.48,-14,-5,-17,1.0,5548,22,88,44,62,904,307.0,476,460,60,125.0,183,1,330,257,54,0,0,316,30720,105,294,-5.59,,,,,,,,,,,,
104983,1564152849676,0,2.19,0.9,0.31,1.45,1.07,0.86,0.1,0.49,-14,-4,-16,0.87,5625,22,87,44,63,930,308.0,475,463,60,125.0,190,1,336,264,56,0,0,316,120,26880,294,-5.59,,,,,,,,,,,,
105003,1564152849696,-0,2.18,0.9,0.31,1.45,1.06,0.84,0.1,0.44,-14,-6,-16,0.84,5702,22,88,44,63,964,309.0,484,460,60,123.0,190,1,344,263,56,0,0,315,32000,105,294,-5.59,,,,,,,,,,,,
105023,1564152849716,-1,2.17,0.9,0.31,1.44,1.06,0.91,0.13,0.43,-15,-7,-16,0.92,5769,23,88,44,64,994,310.0,495,467,60,123.0,190,1,352,269,56,0,0,315,125,24320,293,-5.59,,,,,,,,,,,,
105043,1564152849736,1,2.16,0.9,0.31,1.45,1.06,1.01,0.18,0.43,-15,-5,-16,1.03,5841,23,88,44,63,1013,311.0,496,467,60,123.0,190,1,358,260,56,0,0,315,-32256,24320,293,-5.59,44.6814,10.024764,30.1,178.2,0,0.0,-1,0.0,0.0,0,0.33,1.7507
105063,1564152849756,1,2.14,0.89,0.31,1.45,1.06,1.08,0.15,0.44,-16,-3,-17,1.09,5959,23,88,44,63,1034,310.0,503,465,60,124.0,190,1,370,250,56,0,0,317,125,110,294,-5.59,,,,,,,,,,,,
105083,1564152849776,0,2.13,0.89,0.3,1.45,1.07,1.16,0.16,0.42,-16,-1,-17,1.17,6048,23,88,44,62,1055,312.0,513,464,60,123.0,191,1,380,243,56,0,0,316,130,28160,294,-5.59,,,,,,,,,,,,
105103,1564152849796,-2,2.12,0.9,0.31,1.45,1.06,1.17,0.19,0.39,-16,-2,-17,1.19,6186,23,88,44,61,1071,310.0,526,464,60,124.0,191,1,390,250,56,0,0,320,125,100,291,-5.59,,,,,,,,,,,,
105123,1564152849816,-1,2.1,0.89,0.31,1.45,1.07,1.13,0.21,0.39,-17,-2,-17,1.15,6123,23,88,44,61,1074,312.0,537,465,60,124.0,191,1,386,247,56,0,0,319,130,29440,292,-5.59,,,,,,,,,,,,
105143,1564152849836,-1,2.1,0.9,0.31,1.45,1.06,1.1,0.26,0.43,-17,-2,-17,1.13,6028,23,88,44,60,1076,314.0,525,466,60,125.0,191,1,383,244,56,0,0,322,135,30720,294,-5.59,44.6814,10.024754,29.92,178.2,0,0.0,-1,0.0,0.0,0,0.33,1.7524
105163,1564152849856,-1,2.08,0.89,0.31,1.45,1.06,1.12,0.31,0.44,-17,-3,-18,1.16,5898,24,88,44,60,1080,316.0,512,461,60,125.0,191,1,367,245,56,0,0,327,140,-27136,294,-5.59,,,,,,,,,,,,
105183,1564152849876,3,2.07,0.9,0.31,1.45,1.06,1.2,0.31,0.5,-17,-5,-19,1.24,5746,24,88,44,61,1084,318.0,502,462,60,125.0,182,1,353,247,54,0,0,327,145,120,297,-5.59,,,,,,,,,,,,
105203,1564152849892,3,2.07,0.9,0.31,1.45,1.06,1.27,0.28,0.55,-18,-4,-19,1.3,5725,24,88,44,61,1087,318.0,497,461,60,124.0,182,1,351,247,54,0,0,327,145,115,296,181.28,,,,,,,,,,,,
105223,1564152849912,0,2.08,0.9,0.31,1.45,1.06,1.23,0.31,0.59,-19,-2,-20,1.27,5760,24,88,44,62,1093,319.0,492,461,60,125.0,182,1,352,253,54,0,0,325,-27136,105,296,181.28,,,,,,,,,,,,
105243,1564152849932,1,2.08,0.9,0.32,1.44,1.07,1.12,0.35,0.67,-19,-0,-20,1.18,5803,24,88,44,62,1107,319.0,494,462,60,126.0,182,1,357,252,54,0,0,326,-27136,110,294,-5.59,44.6814,10.024743,29.83,178.2,0,0.0,-1,0.0,0.0,0,0.33,1.754
105263,1564152849952,1,2.08,0.9,0.31,1.44,1.06,0.99,0.38,0.73,-19,1,-21,1.06,5907,24,88,45,62,1121,322.0,505,460,60,125.0,182,1,368,258,54,0,0,328,155,28160,296,-5.59,,,,,,,,,,,,
105283,1564152849972,1,2.08,0.89,0.31,1.45,1.07,0.9,0.35,0.8,-19,1,-22,0.97,5961,24,88,44,62,1133,322.0,514,460,60,125.0,197,1,373,250,58,0,0,332,155,110,295,-5.59,,,,,,,,,,,,
105303,1564152849992,0,2.08,0.89,0.31,1.44,1.07,0.83,0.36,0.82,-19,1,-22,0.91,6038,24,88,44,62,1145,323.0,519,460,60,126.0,197,1,379,250,58,0,0,330,-24576,105,294,-5.59,,,,,,,,,,,,
105323,1564152850008,1,2.08,0.9,0.32,1.44,1.07,0.73,0.39,0.89,-19,2,-23,0.83,6085,25,88,44,61,1165,323.0,518,458,60,124.0,197,1,384,245,58,0,0,330,-24576,29440,297,-5.59,,,,,,,,,,,,
105343,1564152850028,2,2.08,0.9,0.31,1.45,1.06,0.7,0.45,1.0,-19,3,-23,0.83,6042,25,88,44,61,1185,321.0,524,462,60,125.0,197,1,382,243,58,0,0,331,155,-32256,298,-5.59,44.6814,10.024733,30.77,178.1,0,0.0,-1,0.0,0.0,0,0.33,1.7557
105363,1564152850048,1,2.08,0.89,0.31,1.45,1.07,0.66,0.49,1.09,-18,4,-23,0.82,5996,25,88,44,61,1195,322.0,518,458,60,125.0,197,1,380,242,58,0,0,331,155,-30976,300,-5.59,,,,,,,,,,,,
105383,1564152850068,2,2.08,0.9,0.32,1.44,1.06,0.63,0.55,1.12,-18,6,-24,0.84,5952,25,88,44,61,1205,325.0,514,460,60,126.0,180,1,375,242,54,0,0,332,165,130,301,-5.59,,,,,,,,,,,,
105403,1564152850096,1,2.08,0.9,0.31,1.45,1.06,0.6,0.57,1.11,-17,7,-24,0.83,5933,25,88,44,61,1207,327.0,514,462,60,126.0,180,1,373,243,54,0,0,332,-22016,32000,301,-5.59,,,,,,,,,,,,
105423,1564152850116,1,2.08,0.9,0.32,1.45,1.06,0.53,0.57,1.12,-17,7,-24,0.78,5935,25,88,44,61,1209,327.0,514,462,60,125.0,180,1,373,251,54,0,0,331,-22016,30720,300,-5.59,,,,,,,,,,,,
105443,1564152850136,2,2.08,0.9,0.32,1.45,1.07,0.46,0.56,1.14,-17,7,-25,0.72,6001,25,88,44,61,1203,327.0,518,462,60,126.0,180,1,381,249,54,0,0,335,-22016,32000,300,-5.59,44.6814,10.024722,30.56,178.1,0,0.0,-1,0.0,0.0,0,0.33,1.7574
105463,1564152850156,1,2.09,0.9,0.32,1.45,1.06,0.42,0.55,1.21,-17,8,-25,0.69,6062,25,88,44,62,1195,328.0,521,460,60,126.0,180,1,380,251,54,0,0,336,-22016,32000,302,-5.59,,,,,,,,,,,,
105483,1564152850176,2,2.09,0.9,0.32,1.45,1.07,0.44,0.58,1.27,-18,9,-26,0.72,6105,25,88,44,61,1193,328.0,521,463,60,126.0,186,1,385,253,56,0,0,334,170,125,302,-5.59,,,,,,,,,,,,
105503,1564152850195,2,2.09,0.9,0.31,1.45,1.06,0.42,0.64,1.27,-18,9,-25,0.76,6103,26,88,44,61,1192,330.0,526,465,60,126.0,186,1,385,253,56,0,0,335,175,130,302,-5.59,,,,,,,,,,,,
105523,1564152850215,2,2.09,0.9,0.31,1.45,1.07,0.42,0.68,1.24,-18,10,-26,0.8,6091,26,88,44,61,1197,328.0,524,463,60,125.0,186,1,384,245,56,0,0,338,170,-27136,303,-5.59,,,,,,,,,,,,
105543,1564152850235,3,2.09,0.9,0.32,1.45,1.06,0.47,0.71,1.22,-18,12,-26,0.85,6038,26,88,44,61,1204,329.0,515,462,60,125.0,186,1,382,242,56,0,0,336,-20736,-29696,304,-5.59,44.681396,10.024712,30.77,178.1,0,0.0,-1,0.0,0.0,0,0.33,1.759
105563,1564152850255,2,2.1,0.9,0.31,1.45,1.06,0.57,0.72,1.21,-18,12,-26,0.92,6013,26,88,44,61,1214,329.0,517,460,60,126.0,186,1,381,241,56,0,0,336,-20736,-30976,304,-5.59,,,,,,,,,,,,
105583,1564152850275,3,2.09,0.9,0.31,1.44,1.06,0.67,0.74,1.21,-18,11,-26,0.99,6023,26,88,44,62,1225,330.0,520,462,60,125.0,183,1,378,250,56,0,0,336,175,-30976,305,-5.59,,,,,,,,,,,,
105603,1564152850295,1,2.1,0.9,0.31,1.45,1.07,0.74,0.7,1.16,-19,12,-26,1.02,6044,26,88,44,62,1231,330.0,521,464,60,125.0,183,1,379,251,56,0,0,336,175,130,305,-5.59,,,,,,,,,,,,
105623,1564152850315,2,2.09,0.9,0.32,1.45,1.07,0.81,0.66,1.08,-19,12,-27,1.04,6056,26,88,44,62,1235,330.0,512,465,60,125.0,183,1,380,251,56,0,0,337,175,-30976,305,-5.59,,,,,,,,,,,,
105643,1564152850335,-0,2.09,0.9,0.31,1.45,1.06,0.86,0.62,1.02,-20,12,-27,1.06,6119,26,88,44,62,1241,332.0,514,465,60,125.0,183,1,383,253,56,0,0,336,-12032,140,304,-5.59,44.681396,10.024701,31.39,178.1,0,0.0,-1,0.0,0.0,0,0.33,1.7607
105663,1564152850355,-1,2.09,0.9,0.32,1.45,1.06,0.96,0.58,0.97,-21,11,-27,1.12,6135,26,88,44,62,1247,331.0,520,465,60,124.0,183,1,383,254,56,0,0,337,-12032,-28416,306,-5.59,,,,,,,,,,,,
105683,1564152850375,-1,2.1,0.9,0.31,1.45,1.06,0.96,0.55,0.93,-21,8,-27,1.1,6175,26,88,44,62,1252,331.0,521,463,60,124.0,194,1,385,255,59,0,0,337,-12032,135,305,-5.59,,,,,,,,,,,,
105703,1564152850395,-0,2.09,0.9,0.31,1.45,1.06,0.89,0.54,0.87,-21,7,-26,1.04,6137,27,88,44,62,1254,331.0,522,466,60,124.0,194,1,383,254,59,0,0,341,-12032,145,306,-5.59,,,,,,,,,,,,
105723,1564152850415,-0,2.11,0.9,0.32,1.45,1.06,0.8,0.52,0.86,-21,5,-26,0.96,6163,27,88,44,62,1260,330.0,529,465,60,124.0,194,1,385,255,59,0,0,340,175,145,307,-5.59,,,,,,,,,,,,
105743,1564152850435,1,2.11,0.9,0.31,1.45,1.07,0.71,0.46,0.88,-20,3,-25,0.85,6147,27,88,44,62,1269,332.0,528,462,60,125.0,194,1,384,254,59,0,0,340,-32559,-30976,308,-5.59,44.681393,10.02469,31.33,178.1,0,0.0,-1,0.0,0.0,0,0.34,1.7624
105763,1564152850455,1,2.11,0.9,0.31,1.45,1.07,0.62,0.41,0.91,-20,3,-24,0.74,6105,27,88,44,62,1278,332.0,526,460,60,125.0,194,1,382,253,59,0,0,339,-32559,-29696,308,-5.59,,,,,,,,,,,,
105783,1564152850475,2,2.11,0.9,0.31,1.45,1.06,0.53,0.38,0.99,-19,4,-25,0.66,6127,27,88,44,62,1285,332.0,529,461,60,126.0,190,1,383,262,59,0,0,340,-32559,140,309,-5.59,,,,,,,,,,,,
105803,1564152850495,3,2.11,0.9,0.31,1.46,1.06,0.54,0.42,1.06,-19,6,-25,0.68,6147,27,88,44,62,1294,331.0,526,462,60,126.0,190,1,384,254,59,0,0,340,-12032,-25856,310,-5.59,,,,,,,,,,,,
105823,1564152850515,3,2.12,0.9,0.32,1.45,1.07,0.61,0.49,1.04,-18,7,-25,0.78,6153,27,88,44,63,1305,334.0,526,463,60,126.0,190,1,381,255,59,0,0,339,-32559,150,310,-5.59,,,,,,,,,,,,
105843,1564152850535,2,2.12,0.9,0.31,1.45,1.06,0.7,0.53,0.97,-18,7,-25,0.87,6190,27,88,44,63,1312,333.0,528,463,60,125.0,190,1,382,256,59,0,0,343,-6528,-25856,311,-5.59,44.681389,10.02468,31.33,178.1,0,0.0,-1,0.0,0.0,0,0.34,1.764
105863,1564152850555,-1,2.12,0.9,0.31,1.45,1.07,0.79,0.52,0.89,-19,7,-24,0.94,6237,27,88,44,63,1315,333.0,537,465,60,124.0,190,1,384,266,59,0,0,343,-6528,-27136,309,-5.59,,,,,,,,,,,,
105883,1564152850575,-1,2.13,0.9,0.31,1.45,1.06,0.84,0.47,0.81,-19,5,-24,0.96,6241,27,88,44,63,1321,332.0,543,465,60,124.0,202,1,384,267,63,0,0,343,-32559,160,311,-5.59,,,,,,,,,,,,
105903,1564152850595,-0,2.13,0.9,0.31,1.45,1.06,0.8,0.46,0.75,-19,4,-24,0.92,6223,28,88,44,63,1329,333.0,543,464,60,124.0,202,1,383,266,63,0,0,342,-6528,160,311,-5.59,,,,,,,,,,,,
105923,1564152850615,1,2.12,0.9,0.32,1.45,1.06,0.76,0.42,0.77,-19,2,-23,0.87,6194,28,88,44,63,1338,334.0,539,462,60,124.0,202,1,382,264,63,0,0,341,4838,-22016,313,-5.59,,,,,,,,,,,,
105943,1564152850635,2,2.12,0.9,0.31,1.45,1.06,0.69,0.4,0.8,-19,2,-23,0.8,6165,28,88,44,63,1346,335.0,534,458,60,125.0,202,1,381,263,63,0,0,342,3346,165,313,-5.59,44.681385,10.02467,31.57,178.1,0,0.0,-1,0.0,0.0,0,0.34,1.7657
105963,1564152850655,3,2.12,0.9,0.32,1.44,1.07,0.68,0.41,0.81,-19,2,-23,0.79,6202,28,88,44,63,1352,336.0,529,462,60,126.0,202,1,382,265,63,0,0,344,3346,-23296,314,-5.59,,,,,,,,,,,,
105983,1564152850675,0,2.12,0.9,0.32,1.45,1.06,0.76,0.42,0.75,-19,3,-23,0.86,6181,28,88,44,63,1354,336.0,527,463,60,125.0,198,1,382,264,62,0,0,345,13,-24576,314,-5.59,,,,,,,,,,,,
106003,1564152850697,-1,2.12,0.9,0.32,1.45,1.06,0.83,0.45,0.65,-19,3,-23,0.94,6212,28,88,44,64,1354,336.0,532,467,60,124.0,198,1,380,265,62,0,0,344,13,-23296,315,-5.59,,,,,,,,,,,,
106023,1564152850717,-1,2.12,0.9,0.31,1.44,1.07,0.81,0.45,0.53,-19,3,-23,0.93,6237,28,88,44,63,1347,336.0,530,466,60,124.0,198,1,385,266,62,0,0,343,13,-22016,315,-5.59,,,,,,,,,,,,
106043,1564152850737,1,2.12,0.9,0.31,1.45,1.06,0.81,0.4,0.49,-19,3,-23,0.9,6275,28,88,44,63,1339,336.0,534,462,60,124.0,198,1,385,267,62,0,0,346,13,-23296,316,-5.59,44.681381,10.02466,31.73,178.1,0,0.0,-1,0.0,0.0,0,0.34,1.7674
106063,1564152850757,2,2.13,0.9,0.31,1.45,1.06,0.75,0.44,0.53,-19,2,-23,0.86,6260,28,88,44,63,1331,336.0,534,462,60,126.0,198,1,385,274,62,0,0,345,13,-23296,316,-5.59,,,,,,,,,,,,
106083,1564152850777,3,2.13,0.9,0.32,1.45,1.06,0.77,0.45,0.57,-19,3,-22,0.89,6281,28,88,44,63,1324,336.0,541,459,60,126.0,199,1,386,268,63,0,0,344,13,-24576,316,-5.59,,,,,,,,,,,,
106103,1564152850797,-1,2.13,0.9,0.31,1.45,1.06,0.84,0.43,0.55,-20,1,-23,0.94,6321,28,88,44,64,1323,338.0,541,463,60,125.0,199,1,383,270,63,0,0,344,2560,-20736,315,-5.59,,,,,,,,,,,,
106123,1564152850817,-1,2.12,0.9,0.31,1.45,1.06,0.82,0.45,0.51,-20,-1,-23,0.94,6325,28,88,44,64,1322,337.0,539,463,60,125.0,199,1,384,275,63,0,0,345,2560,-22016,316,-5.59,,,,,,,,,,,,
106143,1564152850837,0,2.13,0.9,0.31,1.45,1.06,0.78,0.38,0.48,-19,-3,-23,0.87,6308,28,88,44,64,1321,337.0,548,461,60,124.0,199,1,383,275,63,0,0,345,2560,-22016,316,-5.59,44.681377,10.024651,32.11,178.1,0,0.0,-1,0.0,0.0,0,0.34,1.769
106163,1564152850857,1,2.13,0.9,0.31,1.46,1.06,0.7,0.39,0.55,-19,-1,-23,0.81,6273,28,88,44,64,1323,338.0,543,465,60,124.0,199,1,382,274,63,0,0,348,-122,175,318,-5.59,,,,,,,,,,,,
106183,1564152850877,3,2.12,0.9,0.31,1.45,1.06,0.75,0.49,0.63,-18,1,-23,0.9,6279,28,88,44,64,1325,339.0,539,460,60,126.0,204,1,382,274,65,0,0,344,-122,165,318,-5.59,,,,,,,,,,,,
106203,1564152850897,-0,2.12,0.9,0.31,1.46,1.06,0.85,0.5,0.62,-18,1,-23,0.99,6287,28,88,44,64,1326,340.0,535,462,60,126.0,204,1,382,274,65,0,0,346,3327,175,319,-5.59,,,,,,,,,,,,
106223,1564152850917,-0,2.12,0.9,0.31,1.44,1.07,0.86,0.52,0.63,-18,-1,-23,1.01,6390,28,88,44,64,1325,339.0,542,465,60,123.0,204,1,386,277,65,0,0,349,-122,175,319,-5.59,,,,,,,,,,,,
106243,1564152850937,1,2.13,0.9,0.31,1.46,1.06,0.74,0.39,0.68,-19,-2,-23,0.84,6377,28,88,44,64,1323,340.0,550,462,60,124.0,204,1,386,278,65,0,0,348,3327,-32559,318,-5.59,44.681374,10.024642,32.25,178.1,0,0.0,-1,0.0,0.0,0,0.34,1.7707
106263,1564152850957,3,2.12,0.91,0.31,1.45,1.06,0.71,0.42,0.8,-19,-0,-23,0.83,6397,28,88,44,63,1323,341.0,539,460,60,126.0,204,1,391,278,65,0,0,349,-31206,-22016,319,-5.59,,,,,,,,,,,,
106283,1564152850977,-1,2.13,0.9,0.31,1.45,1.06,0.76,0.49,0.72,-19,2,-23,0.9,6377,28,88,44,64,1324,342.0,538,466,60,125.0,203,1,386,271,65,0,0,352,-31206,-6528,320,-5.59,,,,,,,,,,,,
106303,1564152850997,-2,2.13,0.9,0.31,1.45,1.06,0.81,0.51,0.69,-18,1,-23,0.96,6394,28,88,44,64,1322,343.0,543,463,60,123.0,203,1,386,279,65,0,0,352,-14714,-12032,322,-5.59,,,,,,,,,,,,
106323,1564152851007,0,2.13,0.9,0.31,1.45,1.07,0.74,0.43,0.69,-19,-1,-23,0.86,6381,28,88,44,64,1320,344.0,546,465,60,124.0,203,1,386,278,65,0,0,352,-10554,3346,321,-5.59,,,,,,,,,,,,
106343,1564152851027,3,2.12,0.9,0.31,1.45,1.06,0.73,0.47,0.8,-19,-1,-23,0.87,6394,28,88,44,63,1321,345.0,542,460,60,125.0,203,1,390,278,65,0,0,353,6870,-6528,322,-5.59,44.681366,10.024632,32.72,178.1,0,0.0,-1,0.0,0.0,0,0.34,1.7724
106363,1564152851047,-2,2.13,0.9,0.31,1.45,1.05,0.77,0.53,0.72,-18,-1,-24,0.94,6427,28,88,44,64,1323,344.0,539,463,60,125.0,203,1,388,273,65,0,0,355,-10554,2560,323,-5.59,,,,,,,,,,,,
106383,1564152851067,-0,2.13,0.9,0.31,1.44,1.06,0.76,0.47,0.63,-18,-1,-24,0.89,6441,28,88,44,64,1318,346.0,543,465,60,124.0,210,1,388,280,68,0,0,355,-30438,4838,323,-5.59,,,,,,,,,,,,
106403,1564152851097,3,2.13,0.9,0.31,1.45,1.07,0.73,0.42,0.66,-18,0,-23,0.84,6496,28,88,44,63,1312,346.0,551,462,60,126.0,210,1,394,275,68,0,0,355,-30438,3346,323,-5.59,,,,,,,,,,,,
106423,1564152851117,-0,2.12,0.9,0.31,1.44,1.07,0.8,0.47,0.64,-19,-1,-24,0.93,6492,28,88,44,64,1307,347.0,548,464,60,124.0,210,1,390,275,68,0,0,354,8841,13,324,-5.59,,,,,,,,,,,,
106443,1564152851137,0,2.13,0.9,0.32,1.45,1.07,0.75,0.46,0.59,-18,-2,-24,0.88,6499,28,88,44,63,1302,348.0,558,461,60,124.0,210,1,394,275,68,0,0,356,-1246,13,324,-5.59,44.681362,10.024623,33.0,178.1,0,0.0,-1,0.0,0.0,0,0.34,1.774
106463,1564152851157,2,2.13,0.9,0.32,1.45,1.07,0.68,0.47,0.62,-19,-1,-23,0.82,6501,28,88,44,63,1294,349.0,561,462,60,125.0,210,1,395,276,68,0,0,356,2811,3327,326,-5.59,,,,,,,,,,,,
106483,1564152851177,-2,2.13,0.9,0.32,1.45,1.07,0.78,0.54,0.61,-19,-0,-24,0.95,6512,28,88,44,63,1285,350.0,552,461,60,126.0,204,1,395,276,67,0,0,358,-30454,-122,328,-5.59,,,,,,,,,,,,
106503,1564152851196,-0,2.13,0.9,0.32,1.45,1.06,0.69,0.51,0.59,-18,-1,-23,0.86,6574,28,88,44,63,1279,350.0,560,463,60,124.0,204,1,397,279,67,0,0,361,-30454,3327,328,-5.59,,,,,,,,,,,,
106523,1564152851216,3,2.12,0.9,0.31,1.45,1.06,0.64,0.48,0.65,-18,-1,-24,0.8,6597,28,88,44,63,1276,352.0,555,462,60,126.0,204,1,398,280,67,0,0,360,3183,-14714,328,-5.59,,,,,,,,,,,,
106543,1564152851236,-0,2.12,0.9,0.31,1.44,1.06,0.74,0.55,0.59,-17,-1,-24,0.93,6609,28,88,44,63,1270,352.0,559,465,60,124.0,204,1,397,281,67,0,0,359,3183,-14714,329,-5.59,44.681358,10.024614,33.25,178.1,0,0.0,-1,0.0,0.0,0,0.34,1.7757
106563,1564152851256,2,2.13,0.9,0.32,1.45,1.07,0.65,0.49,0.66,-18,-2,-24,0.82,6627,28,88,44,63,1262,353.0,556,461,60,125.0,204,1,399,281,67,0,0,362,-6644,-1246,331,-5.59,,,,,,,,,,,,
106583,1564152851276,-2,2.13,0.9,0.32,1.45,1.06,0.66,0.5,0.59,-17,-1,-25,0.82,6672,28,88,44,63,1257,353.0,557,461,60,126.0,213,1,401,283,71,0,0,364,-6644,2811,332,-5.59,,,,,,,,,,,,
106603,1564152851296,3,2.13,0.9,0.31,1.45,1.07,0.69,0.44,0.55,-17,-1,-24,0.82,6720,28,88,44,63,1252,354.0,572,460,60,125.0,213,1,403,285,71,0,0,364,3302,-1246,333,-5.59,,,,,,,,,,,,
106623,1564152851316,-1,2.13,0.9,0.31,1.45,1.06,0.71,0.57,0.56,-17,-1,-24,0.91,6754,28,88,44,63,1248,357.0,567,465,60,125.0,213,1,405,286,71,0,0,366,-6640,-6644,334,-5.59,,,,,,,,,,,,
106643,1564152851336,3,2.14,0.9,0.31,1.46,1.06,0.71,0.51,0.65,-17,-1,-24,0.87,6781,28,88,44,62,1243,360.0,572,462,60,124.0,213,1,410,283,71,0,0,370,-14707,3302,337,-5.59,44.681351,10.024607,34.05,178.1,0,0.0,-1,0.0,0.0,0,0.34,1.7774
106663,1564152851356,-0,2.15,0.9,0.32,1.45,1.07,0.69,0.56,0.64,-17,0,-24,0.89,6825,28,88,44,62,1239,360.0,571,461,60,125.0,213,1,412,285,71,0,0,373,-14707,3302,339,-5.59,,,,,,,,,,,,
106683,1564152851376,4,2.15,0.9,0.32,1.45,1.06,0.67,0.43,0.77,-17,-1,-24,0.8,6858,28,88,44,61,1237,360.0,580,463,60,124.0,217,1,417,281,74,0,0,370,-14707,-6405,341,-5.59,,,,,,,,,,,,
106703,1564152851396,1,2.15,0.9,0.31,1.44,1.06,0.69,0.44,0.68,-16,0,-23,0.81,6888,28,88,44,62,1227,362.0,577,466,60,124.0,217,1,414,283,74,0,0,372,2790,-6656,344,-5.59,,,,,,,,,,,,
106723,1564152851416,-0,2.15,0.9,0.32,1.45,1.06,0.62,0.38,0.73,-16,-1,-23,0.72,6923,28,88,44,61,1209,365.0,578,461,60,125.0,217,1,420,285,74,0,0,372,-6405,-6458,345,-5.59,,,,,,,,,,,,
106743,1564152851436,3,2.15,0.9,0.32,1.45,1.06,0.66,0.28,0.74,-15,-0,-23,0.72,6985,28,88,44,61,1190,365.0,585,468,60,123.0,217,1,423,288,74,0,0,378,-6405,-6656,348,-5.59,44.681343,10.024598,34.09,178.1,0,0.0,-1,0.0,0.0,0,0.34,1.779
106763,1564152851456,1,2.15,0.9,0.32,1.44,1.07,0.57,0.34,0.62,-15,1,-22,0.66,7006,28,88,44,61,1174,367.0,588,463,60,124.0,217,1,424,283,74,0,0,376,0,-6656,351,-5.59,,,,,,,,,,,,
106783,1564152851476,-0,2.15,0.9,0.32,1.45,1.07,0.57,0.37,0.63,-15,0,-22,0.68,6988,28,88,44,60,1146,369.0,584,460,60,125.0,210,1,418,282,74,0,0,379,486,770,352,-5.59,,,,,,,,,,,,
106803,1564152851496,2,2.16,0.9,0.32,1.45,1.07,0.62,0.19,0.7,-15,1,-22,0.64,7056,28,88,44,60,1105,371.0,596,464,60,124.0,210,1,420,283,74,0,0,381,257,770,354,-5.59,,,,,,,,,,,,
106823,1564152851516,1,2.16,0.91,0.32,1.45,1.06,0.59,0.23,0.63,-14,2,-22,0.63,7078,28,88,44,60,1067,372.0,598,465,60,124.0,210,1,420,283,74,0,0,386,1,1,355,-5.59,,,,,,,,,,,,
106843,1564152851536,-1,2.16,0.9,0.31,1.45,1.06,0.6,0.33,0.64,-15,1,-21,0.68,7083,28,88,44,59,1043,375.0,596,460,60,126.0,210,1,415,277,74,0,0,384,770,257,357,-5.59,44.681339,10.024591,35.12,178.0,0,0.0,-1,0.0,0.0,0,0.35,1.7807
106863,1564152851556,0,2.16,0.91,0.32,1.46,1.06,0.74,0.24,0.77,-15,1,-21,0.78,7137,28,88,44,59,1017,375.0,602,461,60,126.0,210,1,416,278,74,0,0,385,770,-992,358,-5.59,,,,,,,,,,,,
106883,1564152851576,3,2.16,0.9,0.32,1.45,1.06,0.78,0.18,0.89,-15,3,-21,0.8,7164,28,88,44,59,990,378.0,607,464,60,124.0,208,1,417,278,75,0,0,390,2278,19125,360,-5.59,,,,,,,,,,,,
106903,1564152851596,2,2.16,0.91,0.32,1.44,1.07,0.65,0.29,0.81,-14,4,-21,0.72,7233,28,88,44,59,967,377.0,604,466,60,124.0,208,1,418,279,75,0,0,390,-6656,19125,361,-5.59,,,,,,,,,,,,
106923,1564152851616,1,2.16,0.9,0.32,1.45,1.06,0.54,0.46,0.66,-13,4,-21,0.71,7270,28,88,44,58,964,379.0,608,462,60,125.0,208,1,413,273,75,0,0,390,8200,-19019,362,-5.59,,,,,,,,,,,,
106943,1564152851636,1,2.16,0.9,0.32,1.45,1.07,0.52,0.49,0.62,-14,1,-20,0.72,7253,28,88,44,58,960,381.0,606,461,60,124.0,208,1,412,273,75,0,0,390,-18948,-6475,365,-5.59,44.681332,10.024584,36.11,178.0,0,0.0,-1,0.0,0.0,0,0.35,1.7824
106963,1564152851656,-1,2.17,0.9,0.31,1.45,1.06,0.65,0.51,0.7,-15,0,-20,0.83,7315,28,88,44,57,953,383.0,612,461,60,126.0,208,1,408,270,75,0,0,393,-19019,1,366,-5.59,,,,,,,,,,,,
106983,1564152851676,-2,2.17,0.9,0.32,1.45,1.06,0.79,0.58,0.76,-16,1,-19,0.98,7352,28,88,44,57,946,384.0,613,462,60,125.0,203,1,408,270,75,0,0,397,-6475,-19019,368,-5.59,,,,,,,,,,,,
107003,1564152851696,0,2.16,0.9,0.32,1.45,1.06,0.84,0.37,0.88,-16,1,-20,0.92,7408,28,88,44,57,942,386.0,620,462,60,123.0,203,1,408,270,75,0,0,394,240,11545,370,-5.59,,,,,,,,,,,,
107023,1564152851716,-0,2.17,0.9,0.32,1.45,1.07,0.96,0.26,0.99,-16,1,-20,0.99,7425,28,88,44,56,938,386.0,627,465,60,123.0,203,1,402,265,75,0,0,397,-31744,-6656,371,-5.59,,,,,,,,,,,,
107043,1564152851736,-0,2.18,0.9,0.32,1.45,1.07,1.02,0.14,1.08,-15,2,-19,1.03,7467,28,88,44,56,933,388.0,624,461,60,124.0,203,1,403,265,75,0,0,400,-6524,505,374,-5.59,44.681324,10.024577,36.6,178.0,0,0.0,-1,0.0,0.0,0,0.35,1.784
107063,1564152851756,2,2.17,0.91,0.32,1.46,1.06,1.05,0.03,1.17,-15,5,-20,1.05,7461,28,88,44,55,928,388.0,626,462,60,124.0,203,1,396,265,75,0,0,401,-1562,6384,375,-5.59,,,,,,,,,,,,
107083,1564152851776,-1,2.18,0.9,0.32,1.45,1.07,1.03,-0.04,1.25,-15,5,-18,1.03,7512,28,88,44,55,927,389.0,621,466,60,124.0,194,1,396,259,73,0,0,402,1,6512,377,-5.59,,,,,,,,,,,,
107103,1564152851796,-2,2.18,0.9,0.31,1.44,1.06,1.09,-0.2,1.33,-15,5,-19,1.11,7506,28,87,44,55,926,393.0,626,465,60,124.0,194,1,396,260,73,0,0,405,-6656,6384,379,-5.59,,,,,,,,,,,,
107123,1564152851816,-0,2.17,0.9,0.32,1.46,1.06,1.14,-0.21,1.3,-15,6,-19,1.16,7554,28,88,44,54,915,394.0,630,464,60,124.0,194,1,390,260,73,0,0,408,-32702,-8151,379,-5.59,,,,,,,,,,,,
107143,1564152851836,0,2.17,0.9,0.32,1.46,1.06,1.21,-0.32,1.37,-15,8,-18,1.25,7551,28,88,44,54,904,396.0,629,465,60,125.0,194,1,390,260,73,0,0,406,-32702,-8151,382,-5.59,44.681316,10.02457,37.64,178.0,0,0.0,-1,0.0,0.0,0,0.35,1.7857
107163,1564152851856,-1,2.18,0.91,0.31,1.46,1.06,1.25,-0.29,1.43,-15,7,-18,1.28,7618,28,88,44,54,895,398.0,626,465,60,123.0,194,1,390,256,73,0,0,408,-3968,-21944,383,-5.59,,,,,,,,,,,,
107183,1564152851876,-0,2.17,0.91,0.32,1.44,1.06,1.32,-0.33,1.48,-16,5,-20,1.36,7609,28,88,44,53,885,399.0,631,463,60,125.0,192,1,387,256,74,0,0,409,28696,-26615,385,-5.59,,,,,,,,,,,,
107203,1564152851896,0,2.18,0.9,0.32,1.45,1.07,1.34,-0.19,1.4,-16,3,-19,1.35,7674,28,88,44,53,875,401.0,627,463,60,125.0,192,1,387,251,74,0,0,412,11545,1504,387,-5.59,,,,,,,,,,,,
107223,1564152851916,1,2.18,0.9,0.32,1.46,1.06,1.29,0.02,1.27,-17,2,-18,1.29,7678,28,88,44,53,866,402.0,627,463,60,125.0,192,1,387,251,74,0,0,413,10541,11560,387,-5.59,,,,,,,,,,,,
107243,1564152851936,2,2.17,0.9,0.31,1.45,1.07,1.16,0.15,1.09,-16,2,-18,1.17,7722,28,88,44,53,863,403.0,629,465,60,124.0,192,1,387,246,74,0,0,413,-8151,2524,389,-5.59,44.681305,10.024564,38.48,178.0,0,0.0,-1,0.0,0.0,0,0.35,1.7874
107263,1564152851956,2,2.18,0.9,0.32,1.45,1.07,0.99,0.26,0.88,-15,2,-19,1.02,7722,28,88,44,53,863,405.0,623,465,60,125.0,192,1,387,251,74,0,0,412,-9211,-9166,389,-5.59,,,,,,,,,,,,
107283,1564152851976,3,2.17,0.9,0.32,1.45,1.06,0.96,0.18,0.93,-15,5,-18,0.97,7744,28,88,44,52,857,406.0,634,465,60,123.0,184,1,384,246,72,0,0,416,2524,11560,390,-5.59,,,,,,,,,,,,
107303,1564152851996,-1,2.17,0.9,0.32,1.44,1.07,1.01,-0.0,1.04,-15,4,-17,1.01,7799,28,88,44,52,850,408.0,631,462,60,124.0,184,1,384,246,72,0,0,416,11560,7154,393,-5.59,,,,,,,,,,,,
107323,1564152852008,1,2.18,0.9,0.32,1.45,1.07,1.05,0.06,1.09,-15,2,-17,1.06,7796,28,88,44,51,844,410.0,631,465,60,125.0,184,1,381,246,72,0,0,423,9517,-21792,395,-5.59,,,,,,,,,,,,
107343,1564152852028,2,2.18,0.9,0.32,1.46,1.06,0.98,0.23,0.92,-15,1,-17,1.01,7855,28,88,44,51,837,411.0,630,459,60,125.0,184,1,381,240,72,0,0,423,-4059,13040,395,-5.59,44.681297,10.024558,39.42,178.0,0,0.0,-1,0.0,0.0,0,0.35,1.789
107363,1564152852048,2,2.19,0.9,0.32,1.45,1.06,0.87,0.25,0.82,-15,1,-15,0.91,7858,28,88,44,51,830,410.0,630,465,60,124.0,184,1,381,240,72,0,0,424,9517,7154,396,-5.59,,,,,,,,,,,,
107383,1564152852068,-1,2.17,0.9,0.32,1.45,1.06,0.92,0.14,0.93,-15,2,-15,0.93,7874,28,88,44,51,822,412.0,635,466,60,124.0,176,1,381,241,70,0,0,425,13040,-8165,397,-5.59,,,,,,,,,,,,
107403,1564152852098,1,2.18,0.91,0.32,1.45,1.06,0.97,0.2,0.96,-16,1,-15,0.99,7898,28,88,44,50,818,414.0,628,462,60,125.0,176,1,378,234,70,0,0,427,2524,-4082,402,-5.59,,,,,,,,,,,,
107423,1564152852118,1,2.19,0.91,0.31,1.45,1.06,0.86,0.38,0.76,-15,1,-14,0.94,7901,28,88,44,50,817,416.0,630,463,60,125.0,176,1,378,234,70,0,0,427,18584,7154,401,-5.59,,,,,,,,,,,,
107443,1564152852138,2,2.19,0.9,0.32,1.45,1.06,0.82,0.37,0.72,-15,1,-14,0.9,7941,28,88,44,50,816,416.0,639,468,60,123.0,176,1,378,234,70,0,0,425,18584,-21792,401,-5.59,44.681286,10.024552,40.0,178.0,0,0.0,-1,0.0,0.0,0,0.35,1.7907
107463,1564152852158,1,2.19,0.9,0.32,1.45,1.07,0.93,0.37,0.82,-15,0,-15,1.0,8012,28,88,43,49,814,416.0,638,462,60,125.0,176,1,375,237,70,0,0,429,18584,31796,404,-5.59,,,,,,,,,,,,
107483,1564152852178,2,2.18,0.9,0.32,1.45,1.06,0.84,0.5,0.73,-14,1,-15,0.98,8033,27,88,43,49,813,418.0,636,463,60,125.0,170,1,375,230,69,0,0,431,-3414,3826,406,-5.59,,,,,,,,,,,,
107503,1564152852195,0,2.18,0.91,0.32,1.45,1.07,0.84,0.34,0.79,-14,2,-14,0.91,8043,27,88,43,48,812,418.0,640,463,60,123.0,170,1,372,224,69,0,0,432,-8165,31796,406,-5.59,,,,,,,,,,,,
107523,1564152852215,-0,2.19,0.9,0.32,1.45,1.07,0.93,0.39,0.88,-15,-0,-16,1.01,8071,27,88,44,48,811,420.0,638,466,60,124.0,170,1,372,223,69,0,0,436,-3414,-3322,407,-5.59,,,,,,,,,,,,
107543,1564152852235,2,2.19,0.9,0.32,1.45,1.07,0.78,0.45,0.76,-14,1,-14,0.91,8050,27,88,43,47,810,423.0,637,463,60,125.0,170,1,370,219,69,0,0,434,3826,-3314,407,-5.59,44.681282,10.024547,40.67,178.0,0,0.0,-1,0.0,0.0,0,0.35,1.7924
107563,1564152852255,-2,2.19,0.9,0.32,1.46,1.06,0.84,0.3,0.89,-15,1,-14,0.89,8054,27,88,43,47,809,425.0,638,462,60,124.0,170,1,370,224,69,0,0,434,-3856,3826,410,-5.59,,,,,,,,,,,,
107583,1564152852275,2,2.19,0.9,0.32,1.45,1.07,0.8,0.45,0.86,-15,0,-16,0.92,8085,27,88,43,47,808,426.0,633,464,60,125.0,161,1,370,219,66,0,0,435,31796,3635,410,-5.59,,,,,,,,,,,,
107603,1564152852295,3,2.19,0.9,0.32,1.45,1.06,0.71,0.38,0.73,-14,3,-14,0.8,8074,27,88,43,47,811,425.0,632,464,60,125.0,161,1,370,219,66,0,0,439,-3856,19477,412,-5.59,,,,,,,,,,,,
107623,1564152852315,1,2.19,0.9,0.32,1.45,1.07,0.8,0.36,0.83,-15,2,-15,0.87,8116,27,88,43,46,816,428.0,636,465,60,125.0,161,1,362,220,66,0,0,437,13180,243,412,-5.59,,,,,,,,,,,,
107643,1564152852335,2,2.2,0.9,0.31,1.45,1.06,0.65,0.36,0.72,-14,2,-15,0.75,8191,27,88,43,46,821,427.0,635,462,60,124.0,161,1,362,218,66,0,0,437,31796,-768,413,-5.59,44.681267,10.024541,41.25,178.1,0,0.0,-1,0.0,0.0,0,0.35,1.794
107663,1564152852355,1,2.19,0.91,0.32,1.44,1.06,0.79,0.21,0.83,-15,2,-15,0.82,8241,26,88,43,46,826,429.0,641,466,60,124.0,161,1,363,219,66,0,0,441,3635,-3314,415,-5.59,,,,,,,,,,,,
107683,1564152852375,3,2.2,0.9,0.32,1.46,1.06,0.68,0.26,0.74,-14,2,-15,0.73,8230,26,88,43,45,832,430.0,636,463,60,125.0,161,1,356,217,67,0,0,444,-3314,-768,417,-5.59,,,,,,,,,,,,
107703,1564152852395,1,2.19,0.9,0.32,1.45,1.07,0.81,0.2,0.86,-14,2,-16,0.83,8230,26,88,43,45,838,431.0,643,462,60,124.0,161,1,356,217,67,0,0,444,1779,243,417,-5.59,,,,,,,,,,,,
107723,1564152852415,2,2.2,0.9,0.32,1.45,1.06,0.67,0.35,0.72,-13,2,-15,0.75,8259,25,88,43,44,843,434.0,640,463,60,125.0,161,1,349,215,67,0,0,445,-768,26704,419,-5.59,,,,,,,,,,,,
107743,1564152852435,1,2.2,0.9,0.32,1.45,1.06,0.8,0.38,0.8,-13,2,-16,0.88,8256,22,88,43,43,843,433.0,643,466,60,124.0,161,1,342,215,67,0,0,447,243,23400,420,-5.59,44.681259,10.024536,41.75,178.1,0,0.0,-1,0.0,0.0,0,0.36,1.7957
107763,1564152852455,3,2.21,0.9,0.32,1.45,1.07,0.7,0.52,0.68,-13,2,-15,0.87,8209,21,88,43,42,845,434.0,641,463,60,124.0,161,1,335,212,67,0,0,447,-768,26704,421,-5.59,,,,,,,,,,,,
107783,1564152852475,-1,2.2,0.9,0.32,1.44,1.07,0.81,0.37,0.8,-13,1,-15,0.89,8191,20,88,43,41,850,434.0,642,462,60,124.0,156,1,327,210,66,0,0,448,-768,-28332,423,-5.59,,,,,,,,,,,,
107803,1564152852497,1,2.22,0.9,0.32,1.44,1.07,0.69,0.48,0.68,-13,0,-15,0.84,8223,20,88,43,40,856,435.0,638,463,60,125.0,156,1,321,208,66,0,0,449,-7939,23400,422,-5.59,,,,,,,,,,,,
107823,1564152852517,-0,2.22,0.9,0.31,1.46,1.06,0.78,0.32,0.71,-13,1,-14,0.84,8227,19,88,43,39,861,436.0,645,465,60,123.0,156,1,314,207,66,0,0,452,21580,-3322,422,-5.59,,,,,,,,,,,,
107843,1564152852537,2,2.23,0.91,0.32,1.46,1.06,0.73,0.44,0.66,-13,0,-14,0.85,8166,19,88,43,39,867,437.0,640,465,60,124.0,156,1,313,206,66,0,0,448,19477,-7939,422,-5.59,44.681248,10.024531,42.43,178.1,0,0.0,-1,0.0,0.0,0,0.36,1.7974
107863,1564152852557,-0,2.23,0.91,0.32,1.45,1.06,0.76,0.29,0.74,-13,3,-15,0.81,8198,18,88,43,38,871,438.0,645,462,60,123.0,156,1,310,202,66,0,0,449,21580,-28332,423,-5.59,,,,,,,,,,,,
107883,1564152852577,2,2.24,0.9,0.32,1.46,1.06,0.73,0.44,0.67,-12,2,-15,0.86,8212,18,88,43,37,876,436.0,637,466,60,125.0,144,1,308,198,61,0,0,451,5600,-7939,425,-5.59,,,,,,,,,,,,
107903,1564152852597,0,2.24,0.91,0.32,1.44,1.07,0.76,0.38,0.6,-11,3,-15,0.85,8169,18,88,43,37,875,436.0,632,464,60,123.0,144,1,308,197,61,0,0,446,5600,21580,424,-5.59,,,,,,,,,,,,
107923,1564152852617,0,2.24,0.9,0.32,1.45,1.06,0.83,0.42,0.64,-12,2,-15,0.93,8152,18,88,43,36,874,434.0,643,463,60,124.0,144,1,304,196,61,0,0,446,-768,5600,424,-5.59,,,,,,,,,,,,
107943,1564152852637,2,2.25,0.9,0.32,1.45,1.07,0.78,0.39,0.62,-11,3,-14,0.87,8145,18,88,43,36,863,435.0,636,464,60,125.0,144,1,303,190,61,0,0,447,-7939,5600,423,-5.59,44.68124,10.024528,43.04,178.1,0,0.0,-1,0.0,0.0,0,0.36,1.799
107963,1564152852657,0,2.24,0.91,0.32,1.45,1.06,0.91,0.34,0.7,-11,3,-15,0.97,8102,17,88,43,36,851,435.0,637,463,60,124.0,144,1,303,190,61,0,0,445,-7939,13180,423,-5.59,,,,,,,,,,,,
107983,1564152852677,2,2.24,0.9,0.32,1.45,1.06,0.82,0.42,0.62,-11,3,-14,0.92,8074,15,88,43,36,841,434.0,639,465,60,125.0,136,1,302,184,58,0,0,446,-768,1779,422,-5.59,,,,,,,,,,,,
108003,1564152852697,0,2.24,0.9,0.32,1.45,1.07,0.85,0.36,0.62,-11,4,-13,0.93,8023,13,88,43,35,831,433.0,645,467,60,124.0,136,1,298,183,58,0,0,445,-7939,-28332,423,-5.59,,,,,,,,,,,,
108023,1564152852717,-0,2.25,0.9,0.32,1.45,1.07,0.97,0.36,0.7,-11,3,-13,1.03,7992,12,88,43,34,816,434.0,639,464,60,123.0,136,1,295,176,58,0,0,443,-768,243,423,-5.59,,,,,,,,,,,,
108043,1564152852737,1,2.26,0.9,0.31,1.45,1.06,0.92,0.44,0.63,-11,2,-13,1.02,7898,11,88,43,33,802,433.0,634,463,60,125.0,136,1,292,171,58,0,0,443,243,-768,424,-5.59,44.681229,10.024524,43.01,178.1,0,0.0,-1,0.0,0.0,0,0.36,1.8007
108063,1564152852757,3,2.25,0.9,0.32,1.45,1.06,0.86,0.43,0.6,-11,2,-12,0.97,7871,9,88,43,32,795,431.0,632,461,60,124.0,136,1,290,166,58,0,0,442,1779,-3314,422,-5.59,,,,,,,,,,,,
108083,1564152852777,4,2.26,0.9,0.31,1.45,1.06,0.87,0.37,0.58,-10,3,-12,0.95,7786,8,88,43,31,791,431.0,630,467,60,124.0,116,1,286,164,49,0,0,441,1779,-768,422,-5.59,,,,,,,,,,,,
108103,1564152852797,-1,2.28,0.9,0.32,1.45,1.06,0.92,0.28,0.62,-9,4,-12,0.96,7640,7,88,43,30,787,430.0,633,462,60,124.0,116,1,283,164,49,0,0,440,-3314,-3314,423,-5.59,,,,,,,,,,,,
108123,1564152852817,-2,2.28,0.9,0.32,1.45,1.06,0.98,0.17,0.76,-9,6,-11,1.0,7560,6,88,43,30,783,428.0,630,466,60,125.0,116,1,282,163,49,0,0,442,-3314,3826,422,-5.59,,,,,,,,,,,,
108143,1564152852837,0,2.28,0.9,0.31,1.45,1.06,1.09,0.14,0.81,-9,5,-11,1.09,7440,6,88,43,29,782,429.0,631,466,60,124.0,116,1,278,161,49,0,0,434,3635,13552,419,-5.59,44.681217,10.02452,42.58,178.1,0,0.0,-1,0.0,0.0,0,0.36,1.8024
108163,1564152852857,-1,2.29,0.9,0.32,1.44,1.06,1.18,0.05,0.87,-9,4,-12,1.18,7530,6,88,43,28,783,426.0,623,463,60,124.0,116,1,275,161,49,0,0,427,13552,-3414,417,-5.59,,,,,,,,,,,,
108183,1564152852877,-1,2.29,0.9,0.31,1.45,1.06,1.26,-0.03,0.93,-9,4,-11,1.26,7581,6,88,43,28,786,420.0,627,463,60,125.0,107,1,275,160,45,0,0,419,7154,-21944,414,-5.59,,,,,,,,,,,,
108203,1564152852897,-2,2.31,0.9,0.31,1.45,1.06,1.28,0.01,0.93,-8,4,-10,1.28,7684,6,88,43,28,790,417.0,625,462,60,126.0,107,1,276,160,45,0,0,415,-21944,13040,413,181.28,,,,,,,,,,,,
108223,1564152852917,-1,2.31,0.9,0.31,1.45,1.07,1.3,0.03,0.92,-8,2,-11,1.3,7687,6,88,43,27,793,414.0,636,463,60,124.0,107,1,272,158,45,0,0,411,2524,-26615,410,-5.59,,,,,,,,,,,,
108243,1564152852937,1,2.32,0.91,0.31,1.46,1.06,1.18,0.02,0.83,-8,0,-11,1.18,7751,6,88,43,27,796,413.0,628,465,60,125.0,107,1,273,158,45,0,0,408,-9166,13040,409,-5.59,44.681206,10.024517,42.4,178.1,0,0.0,-1,0.0,0.0,0,0.36,1.804
108263,1564152852957,3,2.31,0.9,0.3,1.45,1.06,1.06,0.14,0.7,-7,1,-9,1.07,7725,6,88,43,27,804,409.0,626,466,60,125.0,107,1,273,158,45,0,0,409,11560,-26615,407,-5.59,,,,,,,,,,,,
108283,1564152852977,2,2.32,0.9,0.31,1.45,1.07,1.03,0.12,0.66,-6,1,-8,1.04,7703,6,88,43,27,813,407.0,629,465,60,124.0,113,1,273,158,46,0,0,410,-26615,2524,403,-5.59,,,,,,,,,,,,
108303,1564152852997,2,2.32,0.9,0.31,1.44,1.06,1.04,0.07,0.66,-5,2,-8,1.05,7716,6,88,43,27,820,404.0,635,466,60,123.0,113,1,273,158,46,0,0,409,-9211,13040,402,-5.59,,,,,,,,,,,,
108323,1564152853009,-1,2.31,0.9,0.31,1.46,1.06,1.1,0.06,0.64,-5,3,-8,1.1,7646,6,88,43,26,826,403.0,636,463,60,124.0,113,1,269,158,46,0,0,408,10541,-4059,403,-5.59,,,,,,,,,,,,
108343,1564152853029,-2,2.32,0.9,0.31,1.45,1.07,1.16,-0.06,0.73,-5,4,-7,1.16,7618,6,88,43,27,836,399.0,632,460,60,123.0,113,1,272,158,46,0,0,406,6384,10392,399,-5.59,44.681198,10.024514,41.29,178.1,0,0.0,-1,0.0,0.0,0,0.36,1.8057
108363,1564152853049,-1,2.32,0.9,0.31,1.45,1.06,1.24,-0.02,0.76,-4,3,-6,1.24,7536,6,88,43,26,850,398.0,636,466,60,123.0,113,1,268,157,46,0,0,404,-3968,10392,398,-5.59,,,,,,,,,,,,
108383,1564152853069,-2,2.32,0.9,0.31,1.45,1.06,1.32,-0.07,0.78,-5,2,-7,1.32,7524,6,88,43,26,861,396.0,626,462,60,126.0,111,1,268,157,44,0,0,404,-32702,6512,396,-5.59,,,,,,,,,,,,
108403,1564152853097,-2,2.32,0.9,0.31,1.45,1.06,1.39,-0.13,0.8,-5,1,-5,1.39,7455,6,88,43,26,869,394.0,636,463,60,125.0,111,1,267,157,44,0,0,398,-1818,-8151,394,-5.59,,,,,,,,,,,,
108423,1564152853117,-1,2.32,0.9,0.31,1.45,1.07,1.38,-0.18,0.87,-5,2,-5,1.4,7419,6,88,43,26,879,392.0,622,463,60,124.0,111,1,267,157,44,0,0,399,1,-32702,391,-5.59,,,,,,,,,,,,
108443,1564152853137,4,2.32,0.9,0.31,1.45,1.07,1.45,-0.23,0.92,-5,1,-4,1.47,7367,6,88,43,26,891,390.0,627,463,60,124.0,111,1,266,158,44,0,0,394,-1562,11545,389,-5.59,44.681187,10.024512,39.53,178.1,0,0.0,-1,0.0,0.0,0,0.36,1.8074
108463,1564152853157,3,2.32,0.91,0.31,1.46,1.06,1.48,-0.21,0.93,-4,1,-4,1.5,7393,6,88,43,26,901,389.0,623,465,60,123.0,111,1,266,158,44,0,0,394,-6524,17144,389,-5.59,,,,,,,,,,,,
108483,1564152853177,3,2.32,0.91,0.31,1.46,1.06,1.4,-0.21,0.82,-3,2,-4,1.41,7344,6,88,43,27,905,387.0,623,466,60,124.0,113,1,270,157,44,0,0,392,-6475,-6656,387,-5.59,,,,,,,,,,,,
108503,1564152853196,1,2.33,0.91,0.31,1.46,1.06,1.32,-0.19,0.77,-3,3,-3,1.34,7321,6,88,43,27,910,385.0,616,466,60,124.0,113,1,270,158,44,0,0,390,-19019,240,385,-5.59,,,,,,,,,,,,
108523,1564152853216,-0,2.33,0.9,0.31,1.45,1.06,1.21,-0.06,0.68,-2,2,-3,1.21,7295,6,88,43,27,915,384.0,615,464,60,125.0,113,1,270,158,44,0,0,393,-18948,1,383,-5.59,,,,,,,,,,,,
108543,1564152853236,-0,2.32,0.9,0.31,1.46,1.06,1.1,0.03,0.55,-2,1,-3,1.1,7242,6,88,43,27,919,382.0,610,464,60,124.0,113,1,270,158,44,0,0,386,19125,-6524,381,-5.59,44.681179,10.024509,39.37,178.1,0,0.0,-1,0.0,0.0,0,0.36,1.8091
108563,1564152853256,-1,2.32,0.91,0.31,1.45,1.06,1.09,-0.01,0.57,-2,-1,-3,1.09,7222,6,88,43,27,920,381.0,617,465,60,125.0,113,1,270,158,44,0,0,386,8200,-19126,380,-5.59,,,,,,,,,,,,
108583,1564152853276,2,2.32,0.91,0.31,1.45,1.06,1.17,-0.07,0.64,-2,0,-2,1.17,7153,5,88,43,27,920,379.0,622,466,60,124.0,113,1,269,158,43,0,0,386,2278,-19019,379,-5.59,,,,,,,,,,,,
108603,1564152853296,1,2.33,0.9,0.31,1.45,1.07,1.16,-0.13,0.59,-2,2,-1,1.17,7137,5,88,43,27,918,376.0,612,466,60,122.0,113,1,269,158,43,0,0,385,3,-19126,376,-5.59,,,,,,,,,,,,
108623,1564152853316,-0,2.32,0.9,0.32,1.46,1.06,1.09,-0.05,0.48,-1,2,-2,1.09,7118,5,88,43,27,916,376.0,603,463,60,126.0,113,1,269,158,43,0,0,379,770,-19019,374,-5.59,,,,,,,,,,,,
108643,1564152853336,-0,2.31,0.91,0.31,1.45,1.07,1.06,0.01,0.45,-1,0,-2,1.06,7083,5,88,43,27,912,373.0,601,464,60,126.0,113,1,268,158,43,0,0,378,257,-6656,373,-5.59,44.681168,10.024508,38.39,178.1,0,0.0,-1,0.0,0.0,0,0.37,1.8107
108663,1564152853356,3,2.31,0.91,0.31,1.46,1.07,1.15,-0.01,0.47,-2,-0,-1,1.15,7086,5,88,43,28,909,373.0,607,463,60,124.0,113,1,272,160,43,0,0,378,-6656,3,370,-5.59,,,,,,,,,,,,
108683,1564152853376,1,2.31,0.9,0.32,1.46,1.06,1.07,0.03,0.36,-1,1,-1,1.07,7048,5,88,43,28,906,369.0,601,466,60,125.0,113,1,272,160,42,0,0,376,-6656,3,368,-5.59,,,,,,,,,,,,
108703,1564152853396,-1,2.31,0.91,0.31,1.45,1.07,0.97,0.14,0.33,-1,2,-2,0.98,7001,5,88,43,28,902,368.0,598,463,60,126.0,113,1,272,160,42,0,0,377,0,486,368,-5.59,,,,,,,,,,,,
108723,1564152853416,3,2.31,0.9,0.32,1.45,1.07,0.96,0.09,0.48,-2,1,-0,0.96,6991,5,88,43,28,901,368.0,602,467,60,123.0,113,1,273,160,42,0,0,376,230,1,366,-5.59,,,,,,,,,,,,
108743,1564152853436,1,2.31,0.9,0.32,1.46,1.06,0.93,0.16,0.41,-1,2,-0,0.95,6939,5,88,43,28,901,365.0,593,466,60,126.0,113,1,273,160,42,0,0,373,-6405,3,365,-5.59,44.68116,10.024505,37.66,178.1,0,0.0,-1,0.0,0.0,0,0.37,1.8124
108763,1564152853456,-1,2.32,0.9,0.32,1.45,1.07,0.86,0.2,0.4,-1,0,-1,0.88,6906,5,88,43,29,901,364.0,586,462,60,126.0,113,1,277,160,42,0,0,374,-1268,-6656,364,-5.59,,,,,,,,,,,,
108783,1564152853476,2,2.31,0.91,0.31,1.46,1.07,0.9,0.22,0.34,-0,0,1,0.93,6880,6,88,43,29,901,363.0,589,466,60,123.0,116,1,278,161,42,0,0,367,2790,257,362,-5.59,,,,,,,,,,,,
108803,1564152853496,-2,2.32,0.9,0.32,1.45,1.07,0.81,0.27,0.28,-0,-0,0,0.86,6850,6,88,43,29,902,361.0,586,463,60,126.0,116,1,278,161,42,0,0,367,-29302,3082,361,-5.59,,,,,,,,,,,,
108823,1564152853516,1,2.32,0.91,0.32,1.45,1.07,0.88,0.24,0.34,-1,-2,0,0.91,6833,6,88,43,29,903,359.0,588,461,60,124.0,116,1,278,161,42,0,0,367,-29978,-6405,359,-5.59,,,,,,,,,,,,
108843,1564152853536,-1,2.31,0.91,0.31,1.45,1.07,0.94,0.28,0.33,-1,-0,-0,0.98,6808,6,88,43,29,905,358.0,584,461,60,125.0,116,1,278,161,42,0,0,393,-29978,230,358,-5.59,44.681148,10.024504,36.42,178.1,0,0.0,-1,0.0,0.0,0,0.37,1.814
108863,1564152853556,3,2.31,0.9,0.31,1.45,1.07,0.91,0.22,0.49,-1,-0,-1,0.94,6803,5,88,43,30,906,356.0,586,465,60,123.0,116,1,282,163,42,0,0,393,4104,-6458,356,-5.59,,,,,,,,,,,,
108883,1564152853576,-1,2.32,0.9,0.32,1.46,1.07,0.95,0.23,0.42,-0,1,-2,0.97,6751,6,88,43,30,908,356.0,581,465,60,125.0,115,1,282,163,41,0,0,393,4104,-29978,354,-5.59,,,,,,,,,,,,
108903,1564152853596,1,2.31,0.9,0.31,1.45,1.07,0.87,0.22,0.48,-0,-1,-1,0.9,6703,5,88,43,30,909,353.0,577,463,60,126.0,115,1,282,163,41,0,0,353,-6644,-14707,353,-5.59,,,,,,,,,,,,
108923,1564152853616,-0,2.31,0.91,0.32,1.45,1.07,0.83,0.18,0.55,0,0,-2,0.85,6660,5,88,43,30,911,353.0,572,466,60,125.0,115,1,282,163,41,0,0,357,3183,-14707,352,-5.59,,,,,,,,,,,,
108943,1564152853636,2,2.31,0.91,0.31,1.45,1.07,0.88,0.14,0.53,-0,-0,-2,0.89,6672,6,88,43,31,913,351.0,578,463,60,124.0,115,1,286,164,41,0,0,355,28553,-14707,351,-5.59,44.681141,10.024501,35.84,178.1,0,0.0,-1,0.0,0.0,0,0.37,1.8157
108963,1564152853656,-2,2.31,0.91,0.32,1.45,1.07,0.79,0.13,0.5,-0,1,-2,0.8,6646,6,88,43,31,914,349.0,573,461,60,126.0,115,1,286,164,41,0,0,355,-1246,3302,349,-5.59,,,,,,,,,,,,
108983,1564152853676,1,2.3,0.91,0.32,1.45,1.07,0.85,0.12,0.44,-1,-1,-2,0.86,6625,6,88,43,31,914,347.0,577,465,60,125.0,117,1,286,164,41,0,0,356,8841,3183,347,-5.59,,,,,,,,,,,,
109003,1564152853696,3,2.3,0.9,0.31,1.46,1.06,0.86,0.12,0.44,-1,0,-1,0.87,6618,6,88,43,31,915,346.0,565,462,60,126.0,117,1,286,164,41,0,0,355,6870,28553,346,-5.59,,,,,,,,,,,,
109023,1564152853716,-1,2.3,0.91,0.31,1.46,1.06,0.86,0.18,0.44,-1,1,-1,0.88,6585,6,88,43,32,917,345.0,563,468,60,125.0,117,1,290,164,41,0,0,352,6870,-30454,345,-5.59,,,,,,,,,,,,
109043,1564152853736,1,2.3,0.91,0.31,1.46,1.06,0.91,0.13,0.46,-2,-1,-1,0.91,6576,6,88,43,32,917,344.0,559,461,60,125.0,117,1,290,166,41,0,0,350,-10554,28553,344,-5.59,44.681129,10.024499,35.19,178.1,0,0.0,-1,0.0,0.0,0,0.37,1.8174
109063,1564152853756,-0,2.29,0.91,0.32,1.45,1.07,0.92,0.17,0.45,-1,2,-1,0.93,6544,6,88,43,32,918,342.0,560,460,60,126.0,117,1,290,166,41,0,0,353,-31206,2811,342,-5.59,,,,,,,,,,,,
109083,1564152853776,-2,2.29,0.91,0.31,1.45,1.07,0.98,0.2,0.42,-1,1,-2,1.0,6467,6,88,43,32,919,342.0,561,466,60,124.0,119,1,290,166,41,0,0,348,-14714,-30438,342,-5.59,,,,,,,,,,,,
109103,1564152853796,1,2.29,0.9,0.32,1.45,1.07,1.09,0.14,0.42,-1,-2,-0,1.1,6454,6,88,43,32,918,341.0,557,459,60,125.0,119,1,290,171,41,0,0,348,6668,-30438,340,-5.59,,,,,,,,,,,,
109123,1564152853816,2,2.29,0.9,0.32,1.46,1.06,1.04,0.13,0.4,-1,1,-1,1.05,6434,6,88,43,33,919,339.0,551,462,60,126.0,119,1,292,171,41,0,0,346,-122,28553,339,-5.59,,,,,,,,,,,,
109143,1564152853836,-1,2.28,0.91,0.31,1.46,1.06,1.06,0.13,0.39,-1,2,-2,1.07,6410,6,88,43,33,918,338.0,546,462,60,126.0,119,1,292,171,41,0,0,344,-31222,6870,337,-5.59,44.681122,10.024498,34.7,178.1,0,0.0,-1,0.0,0.0,0,0.37,1.8191
109163,1564152853856,0,2.28,0.9,0.32,1.46,1.06,1.16,0.14,0.23,-2,0,-1,1.17,6412,6,88,43,33,917,336.0,551,463,60,124.0,119,1,292,171,41,0,0,344,13,-31206,336,-5.59,,,,,,,,,,,,
109183,1564152853876,2,2.28,0.91,0.32,1.45,1.07,0.99,0.15,0.26,-2,1,-1,1.01,6399,6,88,43,33,916,336.0,550,461,60,126.0,122,1,292,171,41,0,0,344,13,-14714,334,-5.59,,,,,,,,,,,,
109203,1564152853896,2,2.28,0.9,0.32,1.46,1.06,0.87,0.17,0.28,-2,2,-2,0.89,6384,6,88,43,33,915,335.0,556,463,60,126.0,122,1,292,176,41,0,0,342,3346,-122,332,-5.59,,,,,,,,,,,,
109223,1564152853916,-1,2.28,0.9,0.32,1.45,1.06,0.93,0.16,0.31,-2,1,-3,0.94,6349,6,88,43,34,916,334.0,553,462,60,125.0,122,1,295,176,41,0,0,339,4838,4838,332,-5.59,,,,,,,,,,,,
109243,1564152853936,-0,2.28,0.9,0.31,1.46,1.06,0.91,0.11,0.3,-2,-2,-2,0.92,6319,6,88,43,34,915,333.0,552,463,60,124.0,122,1,295,176,41,0,0,340,-6528,4838,331,-5.59,44.681114,10.024496,33.9,178.1,0,0.0,-1,0.0,0.0,0,0.37,1.8207
109263,1564152853956,1,2.29,0.91,0.31,1.46,1.06,0.91,0.05,0.26,-2,-3,-1,0.91,6258,6,88,43,34,913,332.0,552,462,60,124.0,122,1,295,176,41,0,0,340,-32559,-31222,329,-5.59,,,,,,,,,,,,
109283,1564152853976,3,2.28,0.91,0.31,1.47,1.07,0.78,0.08,0.32,-2,-1,-1,0.79,6254,6,88,43,35,913,331.0,538,462,60,126.0,124,1,298,182,41,0,0,335,-12032,3346,328,-5.59,,,,,,,,,,,,
109303,1564152853996,2,2.29,0.9,0.31,1.45,1.07,0.85,0.09,0.37,-2,2,-2,0.86,6227,6,88,43,35,913,329.0,535,465,60,125.0,124,1,298,182,41,0,0,336,-20736,-6528,327,-5.59,,,,,,,,,,,,
109323,1564152854008,-2,2.29,0.9,0.32,1.46,1.06,0.88,0.13,0.45,-2,2,-3,0.89,6214,6,88,43,35,913,328.0,539,464,60,125.0,124,1,298,182,41,0,0,336,165,-6528,325,-5.59,,,,,,,,,,,,
109343,1564152854028,-1,2.29,0.91,0.31,1.46,1.06,0.98,0.14,0.45,-2,2,-3,0.99,6220,6,88,43,35,911,326.0,532,462,60,126.0,124,1,298,182,41,0,0,333,165,-6528,324,-5.59,44.681103,10.024494,33.28,178.1,0,0.0,-1,0.0,0.0,0,0.37,1.8224
109363,1564152854048,-1,2.29,0.91,0.31,1.46,1.06,0.96,0.1,0.45,-3,-1,-2,0.96,6208,6,88,43,36,910,325.0,542,463,60,123.0,124,1,301,187,41,0,0,331,-23296,-20736,322,-5.59,,,,,,,,,,,,
109383,1564152854068,-0,2.29,0.91,0.32,1.46,1.07,1.01,0.11,0.45,-3,-3,-1,1.02,6173,6,88,43,36,910,324.0,535,462,60,125.0,136,1,301,187,44,0,0,330,160,-20736,322,-5.59,,,,,,,,,,,,
109403,1564152854096,1,2.3,0.9,0.31,1.46,1.07,0.93,0.1,0.44,-3,-2,-1,0.93,6157,6,88,43,36,908,324.0,533,462,60,124.0,136,1,301,187,44,0,0,329,160,160,320,-5.59,,,,,,,,,,,,
109423,1564152854116,2,2.3,0.91,0.31,1.46,1.07,0.82,0.04,0.44,-3,-1,-2,0.82,6127,6,88,43,36,905,323.0,530,460,60,126.0,136,1,301,187,44,0,0,331,-24576,170,320,-5.59,,,,,,,,,,,,
109443,1564152854136,2,2.3,0.91,0.32,1.46,1.07,0.71,-0.01,0.49,-2,1,-2,0.71,6079,7,88,43,36,902,321.0,530,458,60,125.0,136,1,301,187,44,0,0,327,-25856,165,320,-5.59,44.681099,10.024493,32.82,178.1,0,0.0,-1,0.0,0.0,0,0.37,1.824
109463,1564152854156,1,2.31,0.91,0.31,1.47,1.07,0.6,-0.05,0.6,-1,3,-2,0.6,6093,7,88,43,36,899,320.0,531,459,60,126.0,136,1,301,187,44,0,0,326,150,-23296,318,-5.59,,,,,,,,,,,,
109483,1564152854176,3,2.31,0.91,0.31,1.46,1.06,0.5,-0.04,0.67,-1,5,-2,0.5,6060,7,88,43,36,897,319.0,530,462,60,126.0,135,1,301,187,43,0,0,323,145,-24576,317,-5.59,,,,,,,,,,,,
109503,1564152854195,3,2.32,0.91,0.32,1.46,1.07,0.41,-0.04,0.72,-0,7,-2,0.41,6056,7,88,43,37,896,317.0,526,465,60,126.0,135,1,304,193,43,0,0,323,-28416,-24576,317,-5.59,,,,,,,,,,,,
109523,1564152854215,1,2.32,0.9,0.32,1.46,1.06,0.34,-0.04,0.8,-0,8,-3,0.34,6019,7,88,43,37,894,315.0,531,463,60,126.0,135,1,304,193,43,0,0,323,-29696,150,315,-5.59,,,,,,,,,,,,
109543,1564152854235,3,2.32,0.91,0.31,1.46,1.06,0.31,-0.05,0.89,-0,9,-3,0.31,6009,7,88,43,37,894,315.0,525,460,60,126.0,135,1,304,193,43,0,0,321,-29696,155,314,-5.59,44.681088,10.024491,32.18,178.1,0,0.0,-1,0.0,0.0,0,0.37,1.8257
109563,1564152854255,2,2.33,0.91,0.31,1.46,1.06,0.23,-0.03,0.94,0,11,-3,0.23,6001,7,88,43,38,894,314.0,523,463,60,126.0,135,1,307,199,43,0,0,318,135,-28416,313,-5.59,,,,,,,,,,,,
109583,1564152854275,2,2.34,0.9,0.31,1.47,1.07,0.15,-0.04,0.98,1,12,-3,0.16,5942,7,88,43,38,892,313.0,522,461,60,126.0,141,1,303,198,44,0,0,319,-30976,-28416,311,-5.59,,,,,,,,,,,,
109603,1564152854295,2,2.35,0.91,0.31,1.46,1.07,0.07,-0.06,0.96,2,13,-2,0.09,5920,7,88,43,38,890,311.0,517,462,60,126.0,141,1,302,198,44,0,0,319,125,-29696,311,-5.59,,,,,,,,,,,,
109623,1564152854315,0,2.37,0.91,0.31,1.46,1.07,-0.01,-0.11,0.91,2,13,-2,0.11,5909,7,88,43,38,888,313.0,517,462,60,126.0,141,1,301,203,44,0,0,315,125,145,311,-5.59,,,,,,,,,,,,
109643,1564152854335,1,2.37,0.91,0.32,1.46,1.07,-0.07,-0.12,0.77,2,13,-1,0.14,5890,7,88,43,39,885,311.0,518,460,60,123.0,141,1,303,203,44,0,0,313,120,-28416,311,-5.59,44.681084,10.024489,31.57,178.1,0,0.0,-1,0.0,0.0,0,0.38,1.8274
109663,1564152854355,-0,2.38,0.91,0.32,1.46,1.07,-0.03,-0.1,0.67,3,11,1,0.11,5853,7,88,43,40,881,311.0,512,462,60,125.0,141,1,306,204,44,0,0,310,110,140,311,-5.59,,,,,,,,,,,,
109683,1564152854375,-2,2.4,0.91,0.32,1.46,1.07,0.14,-0.05,0.63,3,7,2,0.15,5835,7,88,44,40,876,310.0,503,465,60,123.0,145,1,305,203,45,0,0,308,110,-29696,309,-5.59,,,,,,,,,,,,
109703,1564152854395,-1,2.41,0.91,0.31,1.46,1.07,0.33,-0.07,0.61,3,5,3,0.33,5819,7,87,43,41,873,309.0,507,465,60,123.0,145,1,310,205,45,0,0,309,26880,130,309,-5.59,,,,,,,,,,,,
109723,1564152854415,-1,2.41,0.91,0.32,1.46,1.06,0.47,-0.12,0.58,3,4,4,0.49,5795,7,88,44,41,871,308.0,503,463,60,123.0,145,1,308,204,45,0,0,308,100,135,308,-5.59,,,,,,,,,,,,
109743,1564152854435,1,2.43,0.91,0.31,1.46,1.07,0.52,-0.1,0.54,3,6,4,0.53,5794,8,88,44,41,869,307.0,498,462,60,123.0,145,1,308,204,45,0,0,305,24320,125,307,-5.59,44.681072,10.024488,30.83,178.1,0,0.0,-1,0.0,0.0,0,0.38,1.8291
109763,1564152854455,2,2.42,0.91,0.31,1.47,1.07,0.4,-0.09,0.6,4,8,4,0.41,5721,8,88,44,41,868,306.0,495,463,60,125.0,145,1,303,204,45,0,0,304,24320,130,306,181.28,,,,,,,,,,,,
109783,1564152854475,0,2.44,0.91,0.32,1.46,1.07,0.31,-0.12,0.59,5,10,5,0.33,5699,8,88,44,42,868,306.0,507,463,60,124.0,143,1,306,205,44,0,0,303,23040,-32256,306,-5.59,,,,,,,,,,,,
109803,1564152854497,-0,2.44,0.9,0.31,1.46,1.08,0.42,-0.08,0.55,6,7,7,0.43,5661,8,88,44,43,868,306.0,507,463,60,124.0,143,1,309,207,44,0,0,301,85,-32256,306,-5.59,,,,,,,,,,,,
109823,1564152854517,-1,2.43,0.9,0.32,1.47,1.07,0.58,-0.13,0.61,6,4,8,0.6,5632,8,88,44,44,868,304.0,503,465,60,124.0,143,1,311,207,44,0,0,298,20480,-32256,304,-5.59,,,,,,,,,,,,
109843,1564152854537,1,2.43,0.9,0.31,1.47,1.07,0.57,-0.13,0.63,6,4,7,0.59,5640,8,88,44,44,868,303.0,492,461,60,125.0,143,1,312,208,44,0,0,295,20480,32000,303,-5.59,44.681065,10.024487,30.78,178.1,0,0.0,-1,0.0,0.0,0,0.38,1.8307
109863,1564152854557,0,2.44,0.91,0.32,1.47,1.07,0.49,-0.22,0.64,6,6,7,0.54,5634,8,88,44,45,868,302.0,495,463,60,125.0,143,1,317,210,44,0,0,296,0,115,302,-5.59,,,,,,,,,,,,
109883,1564152854577,-0,2.44,0.92,0.31,1.47,1.07,0.57,-0.17,0.57,6,3,8,0.6,5650,8,88,44,45,868,300.0,496,465,60,124.0,146,1,318,210,44,0,0,294,0,120,300,-5.59,,,,,,,,,,,,
109903,1564152854597,-0,2.44,0.91,0.31,1.46,1.07,0.72,-0.16,0.53,7,0,9,0.73,5620,8,88,44,46,868,299.0,494,466,60,124.0,146,1,320,210,44,0,0,294,0,28160,299,-5.59,,,,,,,,,,,,
109923,1564152854617,1,2.44,0.91,0.31,1.47,1.07,0.66,-0.19,0.49,7,1,8,0.69,5622,8,88,44,46,870,298.0,487,462,60,125.0,146,1,320,211,44,0,0,293,-16896,28160,298,-5.59,,,,,,,,,,,,
109943,1564152854637,-1,2.44,0.91,0.32,1.47,1.08,0.51,-0.26,0.44,7,3,8,0.57,5573,8,88,44,46,872,298.0,493,461,60,125.0,146,1,316,211,44,0,0,290,-1529,29440,298,-5.59,44.681061,10.024486,29.94,178.2,0,0.0,-1,0.0,0.0,0,0.38,1.8324
109963,1564152854657,-0,2.45,0.91,0.32,1.47,1.07,0.66,-0.2,0.42,7,0,10,0.69,5511,8,88,44,47,873,297.0,490,464,60,124.0,146,1,315,213,44,0,0,291,-1529,100,297,-5.59,,,,,,,,,,,,
109983,1564152854677,2,2.44,0.91,0.31,1.48,1.07,0.76,-0.17,0.42,8,1,9,0.78,5516,8,88,44,47,872,297.0,478,462,60,126.0,148,1,316,213,44,0,0,289,-1529,100,297,181.28,,,,,,,,,,,,
110003,1564152854693,0,2.45,0.91,0.32,1.48,1.07,0.57,-0.24,0.41,8,4,9,0.62,5461,8,88,44,48,872,295.0,479,463,60,126.0,148,1,315,216,44,0,0,288,1886,105,295,-5.59,,,,,,,,,,,,
110023,1564152854713,0,2.45,0.91,0.31,1.48,1.07,0.71,-0.23,0.4,8,1,11,0.74,5452,8,88,44,48,872,294.0,482,464,60,123.0,148,1,314,216,44,0,0,287,24064,28160,294,-5.59,,,,,,,,,,,,
110043,1564152854733,2,2.45,0.92,0.32,1.48,1.08,0.75,-0.24,0.43,8,0,11,0.79,5434,8,88,44,49,871,293.0,468,462,60,125.0,148,1,317,220,44,0,0,286,250,100,294,-5.59,44.681049,10.024484,29.43,178.2,0,0.0,-1,0.0,0.0,0,0.38,1.834
110063,1564152854753,-1,2.45,0.92,0.32,1.48,1.08,0.62,-0.25,0.43,9,2,11,0.67,5408,8,88,44,49,869,292.0,469,465,60,125.0,148,1,314,220,44,0,0,284,630,95,292,-5.59,,,,,,,,,,,,
110083,1564152854773,2,2.46,0.91,0.32,1.46,1.08,0.76,-0.26,0.51,9,-1,12,0.81,5433,8,88,44,50,868,291.0,473,464,60,124.0,157,1,319,224,46,0,0,283,30208,90,291,-5.59,,,,,,,,,,,,
110103,1564152854797,0,2.45,0.91,0.32,1.47,1.07,0.69,-0.28,0.53,9,2,12,0.75,5448,8,88,44,50,869,290.0,473,463,60,126.0,157,1,322,224,46,0,0,282,250,85,290,181.28,,,,,,,,,,,,
110123,1564152854817,-1,2.46,0.91,0.32,1.48,1.07,0.73,-0.21,0.48,9,1,12,0.76,5448,8,88,44,50,869,289.0,472,463,60,124.0,157,1,322,224,46,0,0,282,-1527,21760,289,-5.59,,,,,,,,,,,,
110143,1564152854837,1,2.45,0.92,0.32,1.48,1.07,0.79,-0.18,0.51,9,-1,12,0.82,5401,8,88,44,51,869,289.0,468,462,60,125.0,157,1,322,228,46,0,0,281,-1527,21760,289,-5.59,44.681046,10.024482,28.75,178.2,0,0.0,-1,0.0,0.0,0,0.38,1.8357
110163,1564152854857,-2,2.45,0.91,0.32,1.47,1.08,0.68,-0.22,0.44,9,0,12,0.72,5369,8,88,44,51,868,287.0,467,462,60,126.0,157,1,319,227,46,0,0,279,28160,85,287,-5.59,,,,,,,,,,,,
110183,1564152854877,3,2.45,0.91,0.31,1.47,1.08,0.81,-0.18,0.44,9,-2,12,0.83,5317,8,88,44,51,865,287.0,470,466,60,124.0,156,1,314,226,45,0,0,278,28160,80,287,-5.59,,,,,,,,,,,,
110203,1564152854897,-2,2.46,0.91,0.31,1.48,1.07,0.7,-0.24,0.43,9,1,12,0.74,5293,8,88,44,51,865,286.0,465,463,60,124.0,156,1,312,229,45,0,0,278,250,23040,286,-5.59,,,,,,,,,,,,
110223,1564152854917,3,2.45,0.92,0.32,1.47,1.08,0.83,-0.18,0.45,9,-1,12,0.85,5296,8,88,44,52,863,287.0,467,463,60,124.0,156,1,316,229,45,0,0,278,250,21760,284,-5.59,,,,,,,,,,,,
110243,1564152854937,-2,2.45,0.92,0.32,1.47,1.07,0.77,-0.25,0.45,9,1,12,0.81,5249,8,88,44,52,861,284.0,458,461,60,126.0,156,1,312,229,45,0,0,276,-1,0,284,181.28,44.681038,10.024479,28.63,178.2,0,0.0,-1,0.0,0.0,0,0.38,1.8374
110263,1564152854957,2,2.45,0.91,0.32,1.48,1.07,0.87,-0.21,0.52,9,-2,13,0.89,5257,8,88,44,53,860,285.0,458,463,60,124.0,156,1,317,229,45,0,0,275,-1,0,285,-5.59,,,,,,,,,,,,
110283,1564152854977,-1,2.44,0.91,0.32,1.48,1.07,0.79,-0.24,0.53,9,1,13,0.83,5298,8,88,44,53,860,283.0,462,462,60,125.0,162,1,320,232,46,0,0,274,-1,41,283,181.28,,,,,,,,,,,,
110303,1564152854997,1,2.44,0.92,0.31,1.48,1.07,0.88,-0.2,0.54,9,-0,12,0.9,5290,8,88,44,53,859,282.0,462,465,60,123.0,162,1,320,232,46,0,0,273,-1,41,282,-5.59,,,,,,,,,,,,
110323,1564152855009,-1,2.43,0.91,0.32,1.48,1.07,0.82,-0.27,0.56,9,1,13,0.86,5277,8,88,44,53,857,281.0,452,460,60,125.0,162,1,318,232,46,0,0,275,-1,10686,281,181.28,,,,,,,,,,,,
110343,1564152855029,1,2.43,0.92,0.32,1.47,1.08,0.87,-0.25,0.52,9,-1,12,0.9,5247,8,88,44,53,854,280.0,464,462,60,123.0,162,1,316,235,46,0,0,274,-1,10686,280,-5.59,44.68103,10.024477,27.72,178.2,0,0.0,-1,0.0,0.0,0,0.38,1.8391
110363,1564152855049,-0,2.42,0.92,0.32,1.48,1.07,0.8,-0.27,0.51,9,0,12,0.85,5234,8,88,44,53,852,278.0,461,461,60,125.0,162,1,315,232,46,0,0,272,-1,1886,278,181.28,,,,,,,,,,,,
110383,1564152855069,4,2.42,0.92,0.32,1.48,1.08,0.86,-0.24,0.49,9,-1,12,0.89,5211,8,88,44,54,850,278.0,457,463,60,123.0,164,1,318,235,46,0,0,270,-1,-1534,278,-5.59,,,,,,,,,,,,
110403,1564152855097,-1,2.41,0.92,0.32,1.48,1.07,0.8,-0.28,0.48,9,0,11,0.85,5166,8,88,44,54,851,278.0,442,460,60,126.0,164,1,314,234,46,0,0,271,-1,-1529,278,181.28,,,,,,,,,,,,
110423,1564152855117,3,2.42,0.91,0.32,1.48,1.08,0.86,-0.28,0.56,9,-2,12,0.9,5161,8,88,44,55,852,278.0,452,469,60,124.0,164,1,311,237,46,0,0,271,-1,24064,278,-5.59,,,,,,,,,,,,
110443,1564152855137,-1,2.4,0.92,0.32,1.48,1.08,0.8,-0.3,0.49,9,-0,12,0.85,5151,9,88,44,54,856,276.0,446,460,60,124.0,164,1,313,234,46,0,0,271,-1,-1529,276,-5.59,44.681023,10.024474,27.63,178.3,0,0.0,-1,0.0,0.0,0,0.38,1.8407
110463,1564152855157,1,2.4,0.91,0.32,1.47,1.08,0.88,-0.23,0.52,9,-1,11,0.91,5146,9,88,44,55,859,275.0,436,462,60,125.0,164,1,310,236,46,0,0,270,-1,1886,275,-5.59,,,,,,,,,,,,
110483,1564152855177,0,2.39,0.92,0.32,1.47,1.07,0.88,-0.2,0.41,8,-2,12,0.9,5088,8,88,44,55,860,275.0,446,461,60,123.0,163,1,305,236,45,0,0,269,-1,250,274,-5.59,,,,,,,,,,,,
110503,1564152855196,-2,2.4,0.91,0.32,1.47,1.08,0.84,-0.23,0.48,8,-2,11,0.87,5093,9,88,44,55,862,273.0,439,463,60,125.0,163,1,305,236,45,0,0,270,-1,-1534,273,181.28,,,,,,,,,,,,
110523,1564152855216,2,2.4,0.91,0.32,1.47,1.07,0.92,-0.22,0.47,8,-2,10,0.95,5097,8,88,44,56,859,272.0,433,462,60,124.0,163,1,302,240,45,0,0,267,-1,-1534,272,-5.59,,,,,,,,,,,,
110543,1564152855236,-2,2.39,0.91,0.32,1.48,1.07,0.82,-0.21,0.42,8,0,10,0.85,5086,9,88,44,55,857,271.0,439,462,60,124.0,163,1,305,236,45,0,0,269,-1,250,271,-5.59,44.681019,10.024471,27.38,178.3,0,0.0,-1,0.0,0.0,0,0.38,1.8424
110563,1564152855256,1,2.38,0.92,0.32,1.48,1.07,0.86,-0.15,0.54,7,-2,10,0.87,5092,9,88,44,56,856,270.0,436,460,60,126.0,163,1,301,240,45,0,0,268,-1,2414,270,181.28,,,,,,,,,,,,
110583,1564152855276,0,2.38,0.92,0.32,1.47,1.08,0.88,-0.13,0.47,7,-1,10,0.89,5103,9,88,44,56,855,269.0,438,464,60,124.0,171,1,302,240,46,0,0,266,-1,28160,269,-5.59,,,,,,,,,,,,
110603,1564152855296,-1,2.38,0.91,0.32,1.47,1.08,0.86,-0.18,0.55,7,-1,10,0.87,5070,9,88,44,56,856,268.0,437,461,60,124.0,171,1,299,240,46,0,0,267,-1,250,268,181.28,,,,,,,,,,,,
110623,1564152855316,2,2.37,0.91,0.32,1.47,1.07,0.9,-0.14,0.54,6,-3,9,0.91,5059,9,88,44,56,857,268.0,443,464,60,124.0,171,1,298,240,46,0,0,267,-1,2414,268,-5.59,,,,,,,,,,,,
110643,1564152855336,-2,2.37,0.91,0.32,1.47,1.08,0.8,-0.1,0.48,6,-1,9,0.8,5048,9,88,44,56,859,268.0,437,464,60,124.0,171,1,297,239,46,0,0,268,-1,2414,268,-5.59,44.681011,10.024468,26.99,178.3,0,0.0,-1,0.0,0.0,0,0.38,1.844
110663,1564152855356,-0,2.36,0.91,0.32,1.47,1.08,0.86,-0.08,0.52,6,-1,8,0.87,5030,9,88,44,57,861,266.0,430,461,60,125.0,171,1,291,243,46,0,0,266,-1,-1281,266,181.28,,,,,,,,,,,,
110683,1564152855376,3,2.35,0.91,0.32,1.47,1.07,0.91,-0.11,0.5,6,-3,8,0.92,5012,9,88,44,57,861,266.0,437,468,60,124.0,168,1,289,243,45,0,0,268,-1,-1,266,-5.59,,,,,,,,,,,,
110703,1564152855396,-2,2.35,0.91,0.32,1.47,1.08,0.82,-0.07,0.45,5,-0,8,0.82,5018,9,88,44,56,862,265.0,432,458,60,124.0,168,1,294,243,45,0,0,265,-41,-1,265,-5.59,,,,,,,,,,,,
110723,1564152855416,-0,2.34,0.91,0.32,1.48,1.08,0.89,-0.05,0.55,5,-2,7,0.89,4994,9,88,44,57,863,264.0,430,462,60,126.0,168,1,288,242,45,0,0,265,-1,-1,264,-5.59,,,,,,,,,,,,
110743,1564152855436,1,2.36,0.91,0.32,1.47,1.07,0.91,-0.07,0.48,5,-2,7,0.92,4964,9,88,44,57,864,263.0,432,460,60,124.0,168,1,284,242,45,0,0,264,-10440,-1,263,-5.59,44.681004,10.024464,26.54,178.3,0,0.0,-1,0.0,0.0,0,0.38,1.8457
110763,1564152855456,-1,2.35,0.91,0.32,1.48,1.07,0.83,-0.01,0.44,5,0,7,0.83,4988,9,88,44,57,865,262.0,432,466,60,123.0,168,1,287,242,45,0,0,265,-41,-1,262,-5.59,,,,,,,,,,,,
110783,1564152855476,-1,2.35,0.91,0.32,1.47,1.07,0.89,-0.0,0.5,5,-1,6,0.89,4956,9,88,44,57,866,262.0,425,457,60,125.0,171,1,283,242,45,0,0,266,-10440,-1,262,181.28,,,,,,,,,,,,
110803,1564152855496,1,2.37,0.91,0.32,1.47,1.07,0.89,-0.04,0.52,4,-3,6,0.9,4953,13,88,44,58,871,261.0,430,467,60,125.0,171,1,279,247,45,0,0,264,14337,-1,261,-5.59,,,,,,,,,,,,
110823,1564152855516,-1,2.37,0.91,0.32,1.48,1.07,0.83,-0.01,0.42,4,-1,6,0.83,4939,14,88,44,58,878,260.0,432,460,60,124.0,171,1,278,251,45,0,0,263,506,-1,260,-5.59,,,,,,,,,,,,
110843,1564152855536,-2,2.37,0.91,0.32,1.47,1.08,0.83,-0.08,0.48,4,-0,5,0.84,4921,14,88,44,59,885,259.0,423,462,60,125.0,171,1,272,251,45,0,0,263,506,-1,259,181.28,44.681,10.024461,26.27,178.3,0,0.0,-1,0.0,0.0,0,0.38,1.8474
110863,1564152855556,1,2.37,0.91,0.32,1.47,1.06,0.89,-0.03,0.52,4,-2,4,0.89,4948,14,88,44,61,891,260.0,423,462,60,126.0,171,1,266,259,45,0,0,262,506,-1,259,181.28,,,,,,,,,,,,
110883,1564152855576,3,2.36,0.91,0.32,1.47,1.07,0.85,-0.05,0.45,3,-1,5,0.85,4978,14,88,44,61,898,261.0,427,467,60,124.0,181,1,269,259,47,0,0,262,506,-1,258,-5.59,,,,,,,,,,,,
110903,1564152855596,-2,2.37,0.91,0.32,1.47,1.08,0.84,-0.07,0.48,3,-0,5,0.84,4965,14,88,44,61,907,260.0,421,458,60,125.0,181,1,268,259,47,0,0,260,-1281,-1,259,-5.59,,,,,,,,,,,,
110923,1564152855616,1,2.37,0.91,0.32,1.47,1.08,0.86,-0.03,0.55,3,-2,5,0.86,4992,14,88,44,62,912,259.0,426,466,60,125.0,181,1,271,266,47,0,0,260,-1281,-1,258,-5.59,,,,,,,,,,,,
110943,1564152855636,4,2.37,0.91,0.31,1.47,1.08,0.89,-0.05,0.48,3,-1,5,0.89,5009,14,88,44,62,913,258.0,435,462,60,123.0,181,1,272,267,47,0,0,258,-1,-1,258,-5.59,44.680992,10.024458,25.94,178.4,0,0.0,-1,0.0,0.0,0,0.39,1.849
110963,1564152855656,-1,2.38,0.91,0.32,1.47,1.07,0.84,-0.11,0.51,3,-1,5,0.85,5026,14,88,44,63,916,257.0,430,464,60,125.0,181,1,274,267,47,0,0,259,-1,-1,258,-5.59,,,,,,,,,,,,
110983,1564152855676,1,2.38,0.91,0.32,1.47,1.07,0.88,-0.04,0.54,3,-2,5,0.88,5041,14,88,44,63,919,257.0,432,462,60,125.0,201,1,276,273,52,0,0,260,-1,-1,257,-5.59,,,,,,,,,,,,
111003,1564152855696,-1,2.39,0.91,0.32,1.47,1.07,0.85,-0.05,0.46,3,-0,5,0.85,5041,14,88,44,63,921,258.0,435,465,60,124.0,201,1,276,273,52,0,0,258,-1,-1,258,-5.59,,,,,,,,,,,,
111023,1564152855716,-2,2.41,0.91,0.32,1.47,1.08,0.85,-0.1,0.48,4,0,4,0.86,5045,14,88,44,63,922,257.0,431,460,60,124.0,201,1,276,273,52,0,0,259,-1,-1,257,181.28,,,,,,,,,,,,
111043,1564152855736,2,2.43,0.9,0.32,1.47,1.07,0.9,-0.05,0.52,4,-2,5,0.91,5067,14,88,44,64,920,257.0,434,463,60,125.0,201,1,279,272,52,0,0,257,10818,-1,257,-5.59,44.680984,10.024454,25.67,178.4,0,0.0,-1,0.0,0.0,0,0.39,1.8507
111063,1564152855756,-1,2.44,0.9,0.31,1.47,1.07,0.82,-0.06,0.44,4,0,6,0.82,5120,14,88,44,63,916,257.0,444,463,60,124.0,201,1,285,278,52,0,0,256,10818,-1,257,-5.59,,,,,,,,,,,,
111083,1564152855776,1,2.45,0.9,0.31,1.47,1.06,0.87,-0.05,0.51,5,-1,5,0.87,5134,14,88,44,64,912,258.0,439,462,60,125.0,210,1,286,271,54,0,0,253,250,-1,258,-5.59,,,,,,,,,,,,
111103,1564152855796,0,2.46,0.91,0.31,1.47,1.06,0.87,-0.08,0.44,6,-1,7,0.88,5148,14,88,44,64,908,259.0,446,464,60,124.0,210,1,288,278,54,0,0,254,-1494,-1,259,-5.59,,,,,,,,,,,,
111123,1564152855816,-0,2.48,0.91,0.31,1.48,1.07,0.88,-0.12,0.51,6,-1,7,0.88,5224,15,88,44,63,903,259.0,445,462,60,125.0,210,1,295,270,54,0,0,252,10812,-1,259,181.28,,,,,,,,,,,,
111143,1564152855836,-0,2.48,0.91,0.31,1.48,1.07,0.87,-0.16,0.45,7,-0,8,0.89,5250,15,88,44,63,899,260.0,448,461,60,124.0,210,1,298,276,54,0,0,252,15360,-1,260,-5.59,44.680981,10.02445,25.36,178.4,0,0.0,-1,0.0,0.0,0,0.39,1.8524
111163,1564152855856,-1,2.49,0.91,0.31,1.48,1.07,0.88,-0.12,0.48,8,0,9,0.89,5246,15,88,44,63,896,259.0,442,461,60,124.0,210,1,297,270,54,0,0,254,250,-1,259,181.28,,,,,,,,,,,,
111183,1564152855876,2,2.5,0.91,0.32,1.47,1.08,0.84,-0.11,0.52,8,-1,10,0.84,5113,15,88,44,63,896,261.0,450,463,60,123.0,203,1,284,270,53,0,0,258,15360,-1,261,-5.59,,,,,,,,,,,,
111203,1564152855896,-0,2.51,0.91,0.32,1.47,1.08,0.76,-0.18,0.56,9,2,10,0.78,4980,15,88,44,63,897,264.0,438,461,60,126.0,203,1,270,272,53,0,0,265,250,-1,264,-5.59,,,,,,,,,,,,
111223,1564152855916,-2,2.52,0.91,0.32,1.48,1.07,0.83,-0.17,0.58,9,-0,10,0.85,4805,15,88,44,64,897,264.0,412,461,60,126.0,203,1,254,278,53,0,0,263,16896,-1,264,181.28,,,,,,,,,,,,
111243,1564152855936,-1,2.52,0.9,0.31,1.47,1.07,0.86,-0.17,0.62,9,-3,11,0.87,4692,15,88,44,64,898,266.0,406,463,60,125.0,203,1,244,282,53,0,0,257,-214,-1281,264,-5.59,44.680977,10.024446,25.64,178.4,0,0.0,-1,0.0,0.0,0,0.39,1.854
111263,1564152855956,-0,2.51,0.91,0.31,1.48,1.07,0.88,-0.18,0.58,9,-4,12,0.9,4641,15,88,44,65,898,265.0,396,465,60,125.0,203,1,240,282,53,0,0,255,16896,-1,265,-5.59,,,,,,,,,,,,
111283,1564152855976,1,2.51,0.91,0.31,1.48,1.07,0.89,-0.23,0.55,10,-4,13,0.92,4661,15,88,44,65,898,266.0,401,462,60,124.0,181,1,242,282,48,0,0,252,-1494,-1,266,-5.59,,,,,,,,,,,,
111303,1564152855996,2,2.51,0.91,0.31,1.48,1.07,0.9,-0.21,0.48,11,-3,14,0.92,4682,15,88,44,65,895,267.0,401,464,60,123.0,181,1,244,282,48,0,0,252,10812,-1,267,-5.59,,,,,,,,,,,,
111323,1564152856008,4,2.51,0.91,0.32,1.47,1.08,0.89,-0.19,0.43,11,-2,15,0.91,4691,15,88,44,65,892,266.0,398,466,60,123.0,181,1,245,282,48,0,0,252,-1494,28160,266,-5.59,,,,,,,,,,,,
111343,1564152856028,-0,2.51,0.91,0.31,1.48,1.07,0.85,-0.24,0.44,11,-2,15,0.88,4659,15,88,44,65,889,266.0,397,460,60,126.0,181,1,242,282,48,0,0,252,-1494,-1,266,-5.59,44.680969,10.024443,25.74,178.5,0,0.0,-1,0.0,0.0,0,0.39,1.8557
111363,1564152856048,-1,2.51,0.92,0.32,1.48,1.07,0.82,-0.31,0.46,12,0,14,0.88,4698,15,88,44,65,885,266.0,395,456,60,126.0,181,1,245,282,48,0,0,253,-1494,-1281,266,-5.59,,,,,,,,,,,,
111383,1564152856068,-0,2.51,0.92,0.32,1.48,1.07,0.84,-0.3,0.53,12,-1,15,0.89,4758,15,88,44,66,880,265.0,398,463,60,126.0,196,1,251,289,52,0,0,254,-1494,-1281,265,181.28,,,,,,,,,,,,
111403,1564152856096,-1,2.51,0.91,0.31,1.48,1.08,0.87,-0.24,0.54,12,-2,15,0.91,4699,15,88,44,66,875,265.0,400,463,60,126.0,196,1,246,289,52,0,0,252,10812,-1,265,-5.59,,,,,,,,,,,,
111423,1564152856116,1,2.52,0.92,0.31,1.48,1.08,0.9,-0.23,0.48,12,-2,16,0.93,4815,15,88,44,66,874,265.0,405,460,60,124.0,196,1,257,290,52,0,0,289,10812,-1,265,-5.59,,,,,,,,,,,,
111443,1564152856136,3,2.52,0.92,0.32,1.48,1.08,0.85,-0.23,0.44,12,-2,16,0.88,4817,15,88,44,66,873,264.0,410,466,60,124.0,196,1,256,290,52,0,0,289,10812,-1,264,-5.59,44.680965,10.024438,25.93,178.5,0,0.0,-1,0.0,0.0,0,0.39,1.8574
111463,1564152856156,-2,2.52,0.92,0.31,1.48,1.07,0.82,-0.3,0.45,13,-0,16,0.87,4901,15,88,44,66,869,264.0,417,460,60,125.0,196,1,264,292,52,0,0,243,-1445,-1,264,-5.59,,,,,,,,,,,,
111483,1564152856176,-1,2.51,0.92,0.32,1.48,1.07,0.87,-0.23,0.52,13,-2,16,0.9,4926,15,88,44,66,866,263.0,417,457,60,126.0,205,1,266,292,54,0,0,248,15360,-1,263,181.28,,,,,,,,,,,,
111503,1564152856195,2,2.51,0.92,0.32,1.48,1.08,0.89,-0.24,0.49,13,-2,17,0.92,4945,15,88,44,67,862,263.0,420,462,60,125.0,205,1,268,299,54,0,0,248,250,-1,263,-5.59,,,,,,,,,,,,
111523,1564152856215,-0,2.5,0.92,0.32,1.48,1.08,0.81,-0.25,0.4,13,-1,17,0.85,4988,15,88,44,66,860,262.0,421,463,60,124.0,205,1,271,292,54,0,0,247,23482,-1,262,-5.59,,,,,,,,,,,,
111543,1564152856235,-0,2.5,0.92,0.32,1.48,1.08,0.88,-0.27,0.51,14,-3,17,0.92,5030,15,88,44,66,855,262.0,422,458,60,125.0,205,1,275,293,54,0,0,248,-1445,-1,262,181.28,44.680958,10.024433,25.8,178.5,0,0.0,-1,0.0,0.0,0,0.39,1.859
111563,1564152856255,3,2.5,0.92,0.32,1.48,1.08,0.9,-0.29,0.43,13,-2,18,0.94,5066,15,88,44,66,849,262.0,431,465,60,125.0,205,1,279,293,54,0,0,248,23482,-1,262,-5.59,,,,,,,,,,,,
111583,1564152856275,-2,2.49,0.92,0.32,1.47,1.08,0.84,-0.35,0.48,14,-1,17,0.91,5084,15,88,44,66,847,261.0,437,463,60,124.0,214,1,281,293,56,0,0,247,23482,-1,261,-5.59,,,,,,,,,,,,
111603,1564152856295,3,2.47,0.92,0.32,1.48,1.08,0.88,-0.3,0.5,13,-2,18,0.93,5138,15,88,44,66,845,260.0,438,464,60,125.0,214,1,286,292,56,0,0,246,23482,-1,260,-5.59,,,,,,,,,,,,
111623,1564152856315,-2,2.47,0.92,0.31,1.48,1.08,0.81,-0.28,0.4,13,-1,18,0.86,5203,15,88,44,65,844,259.0,440,461,60,124.0,214,1,293,291,56,0,0,248,23482,-1,259,-5.59,,,,,,,,,,,,
111643,1564152856335,2,2.46,0.92,0.32,1.48,1.07,0.88,-0.2,0.45,13,-2,17,0.91,5225,15,88,44,65,843,258.0,441,465,60,125.0,214,1,294,284,56,0,0,246,23482,-1,258,-5.59,44.680954,10.024428,25.43,178.5,0,0.0,-1,0.0,0.0,0,0.39,1.8607
111663,1564152856355,-1,2.45,0.92,0.32,1.49,1.07,0.81,-0.18,0.37,13,-1,18,0.83,5280,15,88,44,65,844,257.0,447,462,60,124.0,214,1,300,284,56,0,0,247,23482,-1,257,-5.59,,,,,,,,,,,,
111683,1564152856375,3,2.44,0.92,0.32,1.48,1.07,0.89,-0.12,0.41,12,-1,18,0.9,5332,15,88,44,64,845,257.0,451,461,60,124.0,220,1,305,275,57,0,0,247,-1445,-1,257,-5.59,,,,,,,,,,,,
111703,1564152856397,-1,2.44,0.91,0.32,1.47,1.07,0.76,-0.14,0.43,13,1,17,0.77,5398,15,88,44,64,848,257.0,460,462,60,124.0,220,1,312,268,57,0,0,250,23482,-1,257,-5.59,,,,,,,,,,,,
111723,1564152856417,-2,2.45,0.91,0.31,1.48,1.07,0.82,-0.12,0.37,12,-1,17,0.83,5474,15,88,44,63,851,255.0,468,462,60,123.0,220,1,321,266,57,0,0,249,-1445,-1,255,-5.59,,,,,,,,,,,,
111743,1564152856437,2,2.44,0.92,0.31,1.48,1.07,0.89,-0.1,0.4,12,-2,17,0.9,5504,15,88,44,63,854,255.0,465,464,60,123.0,220,1,324,257,57,0,0,248,23482,-1,255,-5.59,44.680946,10.024423,25.43,178.5,0,0.0,-1,0.0,0.0,0,0.39,1.8624
111763,1564152856457,1,2.45,0.9,0.31,1.48,1.06,0.77,-0.14,0.51,12,0,15,0.79,5618,15,88,44,62,857,256.0,472,463,60,125.0,220,1,337,256,57,0,0,246,-17920,-41,256,-5.59,,,,,,,,,,,,
111783,1564152856477,0,2.45,0.9,0.32,1.48,1.06,0.69,-0.16,0.5,12,2,15,0.71,5730,15,88,44,60,858,255.0,491,460,60,125.0,208,1,353,247,53,0,0,247,-17920,-41,255,-5.59,,,,,,,,,,,,
111803,1564152856497,0,2.45,0.92,0.31,1.48,1.07,0.72,-0.14,0.5,11,1,16,0.74,5861,15,88,44,60,858,253.0,502,463,60,125.0,208,1,366,245,53,0,0,248,250,-1,253,-5.59,,,,,,,,,,,,
111823,1564152856517,0,2.45,0.91,0.31,1.48,1.07,0.83,-0.14,0.5,11,-1,16,0.84,6015,15,88,44,58,857,254.0,511,461,60,124.0,208,1,383,246,53,0,0,246,250,-10440,254,-5.59,,,,,,,,,,,,
111843,1564152856537,0,2.46,0.91,0.32,1.47,1.07,0.87,-0.15,0.56,11,-3,16,0.88,6169,15,88,44,56,855,254.0,523,463,60,125.0,208,1,385,251,53,0,0,248,250,-41,254,-5.59,44.680943,10.024417,25.0,178.6,0,0.0,-1,0.0,0.0,0,0.39,1.864
111863,1564152856557,3,2.45,0.91,0.31,1.47,1.07,0.78,-0.15,0.62,11,-2,16,0.8,6323,15,88,44,55,854,253.0,531,462,60,126.0,208,1,386,251,53,0,0,245,250,-41,253,-5.59,,,,,,,,,,,,
111883,1564152856577,-1,2.44,0.91,0.31,1.48,1.07,0.74,-0.19,0.7,11,0,15,0.77,6454,15,88,44,54,853,253.0,543,466,60,124.0,237,1,386,245,60,0,0,245,250,-41,253,-5.59,,,,,,,,,,,,
111903,1564152856597,0,2.45,0.91,0.31,1.47,1.07,0.87,-0.13,0.66,10,-1,15,0.88,6611,15,88,44,52,851,253.0,561,464,60,123.0,237,1,381,245,60,0,0,245,-1484,14337,253,-5.59,,,,,,,,,,,,
111923,1564152856617,0,2.44,0.91,0.31,1.48,1.07,0.74,-0.18,0.76,11,1,14,0.76,6703,15,88,44,51,851,252.0,570,465,60,126.0,237,1,379,235,60,0,0,244,-1484,-10440,252,-5.59,,,,,,,,,,,,
111943,1564152856637,3,2.43,0.91,0.31,1.47,1.07,0.83,-0.15,0.72,10,-1,15,0.85,6791,15,88,44,50,852,252.0,581,463,60,122.0,237,1,376,230,60,0,0,245,-1484,-1,252,-5.59,44.680939,10.024411,24.85,178.6,0,0.0,-1,0.0,0.0,0,0.39,1.8657
111963,1564152856657,-1,2.42,0.91,0.31,1.47,1.07,0.78,-0.17,0.76,10,-1,14,0.79,6850,10,88,44,48,853,251.0,575,463,60,126.0,237,1,371,221,60,0,0,244,-1484,506,251,-5.59,,,,,,,,,,,,
111983,1564152856677,3,2.4,0.91,0.31,1.48,1.07,0.85,-0.11,0.72,10,-1,14,0.86,6941,7,88,44,46,853,250.0,588,464,60,125.0,223,1,361,216,56,0,0,244,-1484,-1,250,-5.59,,,,,,,,,,,,
112003,1564152856697,1,2.39,0.91,0.32,1.47,1.07,0.78,-0.09,0.63,10,0,14,0.79,6983,6,88,44,44,853,250.0,591,465,60,125.0,223,1,346,211,56,0,0,244,13468,506,250,-5.59,,,,,,,,,,,,
112023,1564152856717,-0,2.37,0.91,0.31,1.48,1.06,0.83,-0.06,0.67,9,-1,14,0.83,6952,0,88,44,41,855,248.0,595,463,60,125.0,223,1,324,206,56,0,0,246,13468,-1281,248,-5.59,,,,,,,,,,,,
112043,1564152856737,1,2.37,0.9,0.32,1.47,1.07,0.85,-0.04,0.61,8,-1,14,0.85,6967,0,88,44,40,864,246.0,597,465,60,124.0,223,1,317,131,56,0,0,245,13468,-1,246,-5.59,44.680935,10.024405,24.69,178.6,0,0.0,-1,0.0,0.0,0,0.39,1.8674
112063,1564152856757,-1,2.35,0.91,0.31,1.47,1.07,0.77,0.07,0.58,8,1,13,0.77,6911,0,88,44,38,873,245.0,598,463,60,125.0,223,1,307,197,56,0,0,246,-1484,10818,245,-5.59,,,,,,,,,,,,
112083,1564152856777,3,2.32,0.91,0.31,1.47,1.07,0.84,0.04,0.62,7,-2,12,0.85,6833,0,88,44,37,883,244.0,592,462,60,125.0,207,1,304,192,51,0,0,246,250,-214,244,-5.59,,,,,,,,,,,,
112103,1564152856797,-2,2.31,0.9,0.3,1.46,1.07,0.8,0.06,0.57,6,-1,10,0.81,6739,0,88,44,36,890,243.0,582,467,60,125.0,207,1,301,186,51,0,0,246,250,-1,243,-5.59,,,,,,,,,,,,
112123,1564152856817,3,2.28,0.9,0.31,1.47,1.06,0.84,0.1,0.51,5,-1,11,0.85,6660,0,88,44,35,890,244.0,576,462,60,126.0,207,1,298,181,51,0,0,247,250,16896,244,-5.59,,,,,,,,,,,,
112143,1564152856837,0,2.25,0.89,0.31,1.46,1.07,0.83,0.07,0.53,4,-1,9,0.83,6555,0,88,44,35,890,242.0,571,464,60,126.0,207,1,298,181,51,0,0,247,-17920,15360,241,-5.59,44.680927,10.0244,24.65,178.6,0,0.0,-1,0.0,0.0,0,0.39,1.869
112163,1564152856857,-0,2.21,0.9,0.31,1.47,1.06,0.89,0.13,0.5,3,-4,8,0.9,6456,0,88,44,35,881,242.0,570,463,60,123.0,207,1,298,181,51,0,0,247,23482,15360,240,181.28,,,,,,,,,,,,
112183,1564152856877,1,2.19,0.9,0.31,1.46,1.06,0.81,0.12,0.44,2,-2,7,0.82,6355,0,88,44,34,871,244.0,566,462,60,123.0,183,1,295,175,44,0,0,249,250,23482,238,-5.59,,,,,,,,,,,,
112203,1564152856897,2,2.17,0.89,0.31,1.46,1.06,0.75,0.16,0.52,1,-0,5,0.77,6302,0,88,44,34,855,244.0,549,463,60,126.0,183,1,295,175,44,0,0,250,250,-17920,236,-5.59,,,,,,,,,,,,
112223,1564152856917,3,2.13,0.9,0.31,1.45,1.06,0.77,0.23,0.6,-1,1,3,0.81,6173,0,88,44,35,839,245.0,543,462,60,125.0,183,1,298,175,44,0,0,252,15360,13468,234,-5.59,,,,,,,,,,,,
112243,1564152856937,3,2.11,0.89,0.31,1.46,1.06,0.81,0.29,0.63,-3,1,1,0.86,6054,0,88,44,34,833,246.0,528,462,60,126.0,183,1,295,175,44,0,0,252,10812,13468,233,-5.59,44.680923,10.024395,24.28,178.6,0,0.0,-1,0.0,0.0,0,0.39,1.8707
112263,1564152856957,2,2.07,0.89,0.31,1.46,1.06,0.83,0.36,0.66,-5,0,-1,0.9,5939,0,88,44,35,827,245.0,517,460,60,126.0,183,1,294,180,44,0,0,253,10812,-1483,231,-5.59,,,,,,,,,,,,
112283,1564152856977,1,2.03,0.9,0.31,1.45,1.07,0.8,0.42,0.78,-7,0,-2,0.91,5794,0,88,44,35,824,247.0,510,462,60,126.0,168,1,286,178,39,0,0,252,250,-1483,230,-5.59,,,,,,,,,,,,
112303,1564152856997,-0,1.98,0.89,0.31,1.46,1.06,0.73,0.42,0.81,-9,2,-4,0.84,5647,0,88,44,36,823,248.0,508,464,60,126.0,168,1,281,184,39,0,0,254,250,250,229,-5.59,,,,,,,,,,,,
112323,1564152857009,-1,1.96,0.88,0.31,1.45,1.06,0.78,0.46,0.82,-10,1,-6,0.9,5488,0,88,43,37,825,250.0,495,461,60,123.0,168,1,274,189,39,0,0,255,10818,250,225,-5.59,,,,,,,,,,,,
112343,1564152857029,1,1.92,0.89,0.31,1.45,1.06,0.82,0.53,0.86,-12,0,-9,0.98,5394,0,88,44,38,828,252.0,476,464,60,123.0,168,1,271,193,39,0,0,256,-1,10318,224,-5.59,44.68092,10.024389,23.92,178.6,0,0.0,-1,0.0,0.0,0,0.4,1.8724
112363,1564152857049,-1,1.91,0.89,0.3,1.46,1.06,0.81,0.58,0.72,-14,2,-11,1.0,5228,0,88,43,39,834,253.0,473,462,60,124.0,168,1,263,200,39,0,0,256,-1,10824,223,-5.59,,,,,,,,,,,,
112383,1564152857069,-2,1.88,0.88,0.31,1.45,1.06,0.84,0.6,0.79,-16,1,-14,1.04,5092,0,88,43,40,841,253.0,454,460,60,125.0,175,1,257,200,39,0,0,256,-1,250,222,181.28,,,,,,,,,,,,
112403,1564152857097,2,1.87,0.89,0.31,1.44,1.05,0.88,0.57,0.71,-18,-2,-17,1.05,4947,0,88,43,42,845,255.0,443,462,60,125.0,175,1,252,203,39,0,0,257,-1281,15360,219,-5.59,,,,,,,,,,,,
112423,1564152857117,4,1.87,0.88,0.31,1.44,1.07,0.84,0.63,0.6,-19,0,-19,1.05,4866,0,88,43,43,848,256.0,435,464,60,124.0,175,1,246,202,39,0,0,258,506,-1532,219,-5.59,,,,,,,,,,,,
112443,1564152857137,-2,1.87,0.89,0.31,1.45,1.06,0.8,0.67,0.57,-20,2,-22,1.04,4715,0,88,43,44,854,254.0,422,462,60,125.0,175,1,234,200,39,0,0,258,-1,250,218,-5.59,44.680916,10.024384,23.39,178.6,0,0.0,-1,0.0,0.0,0,0.4,1.874
112463,1564152857157,-2,1.87,0.89,0.31,1.45,1.05,0.76,0.65,0.55,-22,2,-24,1.0,4595,0,88,43,45,860,256.0,408,462,60,126.0,175,1,223,200,39,0,0,258,506,-1532,216,-5.59,,,,,,,,,,,,
112483,1564152857177,-1,1.86,0.89,0.31,1.45,1.06,0.71,0.63,0.57,-23,1,-27,0.95,4502,0,88,43,46,864,256.0,396,457,60,126.0,157,1,215,199,34,0,0,256,506,-1532,216,-5.59,,,,,,,,,,,,
112503,1564152857196,2,1.83,0.88,0.31,1.44,1.06,0.67,0.66,0.55,-24,2,-29,0.94,4390,0,88,43,46,867,255.0,389,457,60,126.0,157,1,203,199,34,0,0,257,-1281,1210,215,-5.59,,,,,,,,,,,,
112523,1564152857216,1,1.82,0.88,0.31,1.45,1.06,0.68,0.73,0.49,-25,3,-31,0.99,4255,0,88,43,47,873,255.0,379,459,60,126.0,157,1,191,200,34,0,0,256,-1281,1088,214,-5.59,,,,,,,,,,,,
112543,1564152857236,-1,1.8,0.89,0.31,1.46,1.06,0.72,0.73,0.51,-26,3,-32,1.03,4134,0,88,43,47,880,255.0,369,468,60,125.0,157,1,179,197,34,0,0,257,-1281,250,214,181.28,44.680908,10.02438,22.71,178.6,0,0.0,-1,0.0,0.0,0,0.4,1.8757
112563,1564152857256,-1,1.8,0.89,0.31,1.46,1.06,0.77,0.71,0.53,-27,2,-33,1.05,4078,0,88,43,48,886,256.0,354,458,60,127.0,157,1,174,200,34,0,0,255,506,250,213,181.28,,,,,,,,,,,,
112583,1564152857276,2,1.79,0.89,0.3,1.46,1.06,0.77,0.73,0.51,-29,2,-35,1.06,3983,0,88,43,48,890,256.0,346,455,60,126.0,141,1,164,198,30,0,0,255,506,-14848,212,-5.59,,,,,,,,,,,,
112603,1564152857296,-1,1.8,0.89,0.31,1.46,1.06,0.78,0.74,0.49,-29,2,-37,1.08,3901,0,88,43,49,898,257.0,346,463,60,123.0,141,1,163,200,30,0,0,255,14337,966,211,-5.59,,,,,,,,,,,,
112623,1564152857316,2,1.8,0.89,0.31,1.46,1.05,0.79,0.73,0.53,-30,1,-37,1.08,3869,0,88,43,50,910,255.0,334,466,60,126.0,141,1,162,203,30,0,0,255,-1281,-14848,210,181.28,,,,,,,,,,,,
112643,1564152857336,-1,1.79,0.89,0.31,1.45,1.06,0.79,0.74,0.51,-31,2,-39,1.08,3770,0,88,43,50,919,255.0,335,465,60,124.0,141,1,158,201,30,0,0,254,-1281,-14848,210,-5.59,44.680904,10.024375,22.33,178.7,0,0.0,-1,0.0,0.0,0,0.4,1.8774
112663,1564152857356,2,1.79,0.9,0.3,1.46,1.06,0.81,0.74,0.52,-32,0,-39,1.1,3768,0,88,43,51,927,253.0,321,455,60,127.0,141,1,159,206,30,0,0,251,-1,13964,209,181.28,,,,,,,,,,,,
112683,1564152857376,-0,1.78,0.89,0.31,1.45,1.07,0.83,0.77,0.49,-32,1,-41,1.13,3687,0,88,43,52,934,252.0,323,459,60,125.0,138,1,156,208,29,0,0,251,-1,250,207,181.28,,,,,,,,,,,,
112703,1564152857396,2,1.77,0.89,0.31,1.46,1.07,0.83,0.74,0.47,-33,2,-41,1.11,3605,0,88,43,53,939,252.0,314,467,60,127.0,138,1,153,211,29,0,0,250,-1,250,207,181.28,,,,,,,,,,,,
112723,1564152857416,-0,1.76,0.9,0.31,1.46,1.06,0.85,0.74,0.49,-33,-0,-42,1.12,3576,0,88,44,54,942,252.0,309,463,60,125.0,138,1,153,213,29,0,0,251,-1,250,206,-5.59,,,,,,,,,,,,
112743,1564152857436,-2,1.76,0.89,0.31,1.46,1.05,0.84,0.77,0.45,-34,2,-43,1.13,3468,0,88,43,55,939,250.0,308,457,60,126.0,138,1,150,218,29,0,0,249,-214,13874,205,-5.59,44.680901,10.024372,22.42,178.7,0,0.0,-1,0.0,0.0,0,0.4,1.879
112763,1564152857456,-1,1.74,0.89,0.3,1.46,1.05,0.85,0.75,0.44,-34,3,-45,1.14,3367,0,88,43,56,932,251.0,298,466,60,126.0,138,1,150,222,29,0,0,250,10818,250,204,-5.59,,,,,,,,,,,,
112783,1564152857476,1,1.73,0.9,0.31,1.46,1.06,0.88,0.75,0.46,-35,1,-45,1.15,3282,0,88,44,57,919,251.0,287,467,60,125.0,137,1,150,224,28,0,0,250,10818,-1480,203,181.28,,,,,,,,,,,,
112803,1564152857496,2,1.71,0.89,0.31,1.46,1.06,0.89,0.76,0.49,-35,-2,-45,1.17,3237,0,88,44,58,906,250.0,286,460,60,126.0,137,1,0,229,28,0,0,248,10818,12800,203,181.28,,,,,,,,,,,,
112823,1564152857516,1,1.71,0.89,0.31,1.46,1.05,0.92,0.73,0.46,-36,-3,-46,1.17,3141,0,88,44,59,896,249.0,277,460,60,126.0,137,1,0,232,28,0,0,247,16896,19456,201,181.28,,,,,,,,,,,,
112843,1564152857536,1,1.7,0.89,0.31,1.45,1.06,0.93,0.73,0.42,-37,-6,-46,1.18,3021,0,88,44,60,885,249.0,271,460,60,126.0,137,1,0,236,28,0,0,246,16896,19456,201,414.87,44.680897,10.02437,21.63,178.7,0,0.0,-1,0.0,0.0,0,0.4,1.8807
112863,1564152857556,-1,1.69,0.89,0.3,1.46,1.05,0.93,0.71,0.43,-37,-10,-46,1.17,2901,0,88,44,61,871,249.0,263,458,60,126.0,137,1,150,241,28,0,0,245,16896,-1481,199,181.28,,,,,,,,,,,,
112883,1564152857576,-1,1.69,0.89,0.31,1.46,1.06,0.9,0.73,0.43,-38,-13,-46,1.15,2801,0,88,44,63,859,248.0,255,462,60,126.0,130,1,156,246,26,0,0,246,250,250,198,181.28,,,,,,,,,,,,
112903,1564152857596,-2,1.67,0.89,0.31,1.45,1.06,0.85,0.75,0.48,-38,-11,-47,1.13,2710,0,88,44,63,856,248.0,252,466,60,126.0,130,1,0,246,26,0,0,244,250,-1281,197,181.28,,,,,,,,,,,,
112923,1564152857616,-1,1.66,0.89,0.31,1.45,1.05,0.89,0.76,0.48,-39,-5,-50,1.17,2615,0,88,44,64,854,249.0,249,460,60,124.0,130,1,156,249,26,0,0,243,16896,-1,196,-5.59,,,,,,,,,,,,
112943,1564152857636,-1,1.65,0.89,0.31,1.46,1.05,0.96,0.76,0.4,-40,-2,-50,1.22,2561,0,88,44,66,857,247.0,241,457,60,126.0,130,1,0,254,26,0,0,244,-1494,-1281,195,181.28,44.680889,10.024369,20.93,178.7,0,0.0,-1,0.0,0.0,0,0.4,1.8824
112963,1564152857656,-1,1.63,0.88,0.31,1.46,1.05,0.94,0.77,0.4,-40,-5,-50,1.22,2425,0,88,44,67,859,245.0,233,463,60,126.0,130,1,0,257,26,0,0,240,15360,-1,195,181.28,,,,,,,,,,,,
112983,1564152857676,-1,1.61,0.89,0.31,1.45,1.05,0.92,0.8,0.46,-41,-6,-51,1.22,2306,0,88,44,69,864,244.0,229,462,60,125.0,118,1,0,259,23,0,0,241,250,-1,193,-5.59,,,,,,,,,,,,
113003,1564152857696,-1,1.6,0.88,0.31,1.45,1.05,0.91,0.79,0.42,-41,-6,-52,1.2,2240,0,88,44,71,870,244.0,221,463,60,126.0,118,1,153,257,23,0,0,241,250,-1,192,181.28,,,,,,,,,,,,
113023,1564152857716,-1,1.59,0.88,0.31,1.45,1.06,0.96,0.83,0.45,-42,-4,-52,1.27,2185,0,88,44,72,882,244.0,218,462,60,126.0,118,1,150,254,23,0,0,241,250,-1,191,-5.59,,,,,,,,,,,,
113043,1564152857736,2,1.58,0.88,0.31,1.45,1.05,0.92,0.83,0.5,-42,-4,-55,1.24,2048,0,88,44,73,892,245.0,217,462,60,126.0,118,1,0,253,23,0,0,239,15360,-1,191,-5.59,44.680885,10.024369,20.59,178.7,0,0.0,-1,0.0,0.0,0,0.4,1.884
113063,1564152857756,-1,1.56,0.88,0.31,1.45,1.05,0.94,0.83,0.41,-43,-3,-55,1.25,1977,0,88,44,75,898,245.0,205,458,60,126.0,118,1,0,251,23,0,0,238,15360,-236,189,181.28,,,,,,,,,,,,
113083,1564152857776,-1,1.56,0.88,0.3,1.45,1.05,0.94,0.86,0.41,-43,-3,-55,1.27,1883,0,88,44,77,904,242.0,200,462,60,126.0,89,1,139,250,17,0,0,238,23482,-1,187,181.28,,,,,,,,,,,,
113103,1564152857796,-0,1.53,0.88,0.3,1.45,1.05,0.94,0.86,0.39,-44,-3,-57,1.28,1789,0,88,44,78,910,241.0,196,457,60,126.0,89,1,138,251,17,0,0,236,-17920,3584,187,-5.59,,,,,,,,,,,,
113123,1564152857816,-1,1.52,0.88,0.3,1.44,1.05,0.97,0.83,0.38,-44,-3,-58,1.27,1570,0,88,44,79,917,242.0,193,458,60,125.0,89,1,136,252,17,0,0,234,23482,250,185,-5.59,,,,,,,,,,,,
113143,1564152857836,-1,1.52,0.88,0.3,1.45,1.05,0.98,0.85,0.39,-45,-3,-59,1.3,1485,0,88,44,81,920,241.0,185,457,60,125.0,89,1,0,255,17,0,0,235,250,3584,184,-5.59,44.680882,10.02437,19.98,178.7,0,0.0,-1,0.0,0.0,0,0.4,1.8857
113163,1564152857856,-1,1.51,0.88,0.3,1.45,1.05,1.0,0.84,0.38,-46,-4,-60,1.3,1485,10,88,44,83,921,240.0,179,458,60,126.0,89,1,128,430,17,0,0,233,250,-1281,183,181.28,,,,,,,,,,,,
113183,1564152857876,-0,1.5,0.88,0.3,1.45,1.05,1.0,0.83,0.4,-46,-4,-60,1.3,1443,18,88,44,85,922,241.0,175,456,60,126.0,125,1,125,434,23,0,0,233,-17920,-1,183,181.28,,,,,,,,,,,,
113203,1564152857896,-0,1.5,0.88,0.3,1.45,1.05,0.99,0.83,0.4,-47,-5,-62,1.29,1384,21,88,44,88,922,239.0,173,461,60,126.0,125,1,120,440,23,0,0,232,-1484,-1,181,-5.59,,,,,,,,,,,,
113223,1564152857916,-1,1.5,0.88,0.3,1.45,1.04,0.99,0.82,0.35,-47,-4,-62,1.29,1262,21,88,44,91,922,238.0,167,463,60,125.0,125,1,123,202,23,0,0,232,13468,-253,180,-5.59,,,,,,,,,,,,
113243,1564152857936,-1,1.5,0.88,0.3,1.44,1.05,1.0,0.84,0.33,-48,-4,-62,1.3,1099,21,88,44,92,920,237.0,166,467,60,124.0,125,1,124,464,23,0,0,230,-25600,30720,180,-5.59,44.680874,10.024371,19.06,178.7,0,0.0,-1,0.0,0.0,0,0.4,1.8874
113263,1564152857956,-1,1.5,0.88,0.31,1.45,1.05,0.98,0.83,0.35,-48,-6,-64,1.28,1099,21,88,44,94,919,236.0,158,460,60,125.0,125,1,152,224,23,0,0,228,-1483,250,178,-5.59,,,,,,,,,,,,
113283,1564152857976,-0,1.49,0.88,0.3,1.44,1.05,0.98,0.82,0.32,-48,-5,-63,1.28,917,21,88,44,95,916,235.0,153,461,60,123.0,89,1,158,498,16,0,0,227,-1483,30720,177,-5.59,,,,,,,,,,,,
113303,1564152857996,0,1.5,0.87,0.3,1.45,1.05,0.98,0.83,0.38,-48,-6,-64,1.28,917,21,88,44,96,915,233.0,152,463,60,123.0,89,1,172,513,16,0,0,224,8704,-1494,176,-5.59,,,,,,,,,,,,
113323,1564152858008,2,1.5,0.88,0.3,1.45,1.05,0.98,0.83,0.36,-48,-5,-64,1.28,847,21,88,44,96,915,232.0,151,455,60,125.0,89,1,172,513,16,0,0,222,250,250,176,-5.59,,,,,,,,,,,,
113343,1564152858028,-0,1.49,0.88,0.3,1.46,1.05,0.99,0.84,0.34,-48,-5,-64,1.29,1028,21,88,44,95,913,231.0,152,470,60,126.0,89,1,160,231,16,0,0,221,-1494,-1494,176,-5.59,44.68087,10.024374,18.75,178.7,0,0.0,-1,0.0,0.0,0,0.4,1.889
113363,1564152858048,-0,1.49,0.88,0.3,1.44,1.05,0.97,0.84,0.37,-48,-5,-65,1.28,1147,21,88,44,95,912,231.0,159,459,60,123.0,89,1,169,491,16,0,0,222,-1494,-1,173,-5.59,,,,,,,,,,,,
113383,1564152858068,-1,1.49,0.88,0.3,1.45,1.05,0.99,0.84,0.39,-48,-3,-66,1.3,1147,21,88,44,95,910,230.0,157,463,60,124.0,121,1,179,231,21,0,0,220,10824,-1281,172,-5.59,,,,,,,,,,,,
113403,1564152858098,-1,1.49,0.88,0.3,1.45,1.05,0.99,0.82,0.4,-48,-3,-65,1.29,1268,21,88,44,94,909,228.0,163,463,60,123.0,121,1,166,224,21,0,0,219,250,-1,172,-5.59,,,,,,,,,,,,
113423,1564152858118,-0,1.49,0.88,0.3,1.45,1.05,0.99,0.82,0.44,-48,-4,-66,1.28,1461,21,88,44,95,909,227.0,162,464,60,125.0,121,1,194,478,21,0,0,219,-1496,-1,171,181.28,,,,,,,,,,,,
113443,1564152858138,-2,1.5,0.88,0.3,1.45,1.06,0.99,0.8,0.46,-48,-4,-66,1.27,1394,21,88,44,95,909,225.0,164,458,60,126.0,121,1,189,478,21,0,0,219,19968,-1,170,181.28,44.680866,10.024377,18.04,178.7,0,0.0,-1,0.0,0.0,0,0.4,1.8907
113463,1564152858158,-0,1.5,0.88,0.3,1.46,1.05,0.99,0.78,0.44,-48,-4,-65,1.26,1389,21,88,44,95,909,226.0,165,465,60,126.0,121,1,189,478,21,0,0,216,10318,-1,170,414.87,,,,,,,,,,,,
113483,1564152858178,-0,1.49,0.88,0.3,1.46,1.05,1.0,0.77,0.44,-48,-5,-65,1.26,1433,21,88,44,95,909,223.0,167,462,60,126.0,142,1,192,472,24,0,0,215,-1530,-165,169,181.28,,,,,,,,,,,,
113503,1564152858197,-1,1.49,0.88,0.3,1.45,1.06,1.03,0.78,0.44,-48,-6,-66,1.29,1553,21,88,44,94,911,222.0,173,463,60,126.0,142,1,185,454,24,0,0,214,1596,-23552,167,181.28,,,,,,,,,,,,
113523,1564152858217,-0,1.49,0.88,0.31,1.46,1.05,1.01,0.76,0.46,-49,-6,-66,1.26,1843,21,88,44,93,912,221.0,182,461,60,123.0,142,1,171,447,24,0,0,214,15360,-23552,167,-5.59,,,,,,,,,,,,
113543,1564152858237,3,1.49,0.89,0.31,1.45,1.05,0.97,0.74,0.43,-49,-5,-65,1.22,1847,21,88,44,93,913,221.0,183,465,60,125.0,142,1,171,441,24,0,0,212,15360,-23552,166,-5.59,44.680866,10.024381,17.57,178.7,0,0.0,-1,0.0,0.0,0,0.4,1.8924
113563,1564152858257,-1,1.48,0.88,0.31,1.45,1.05,1.0,0.74,0.36,-48,-4,-64,1.24,1875,21,88,44,94,914,219.0,184,456,60,126.0,142,1,185,455,24,0,0,211,-1532,250,164,181.28,,,,,,,,,,,,
113583,1564152858277,-0,1.49,0.88,0.3,1.44,1.05,0.99,0.76,0.41,-48,-4,-65,1.25,1885,21,88,44,93,911,218.0,188,464,60,125.0,189,1,171,448,31,0,0,210,-1532,-1281,164,-5.59,,,,,,,,,,,,
113603,1564152858297,3,1.49,0.88,0.3,1.46,1.05,0.98,0.74,0.4,-48,-3,-66,1.23,2062,21,88,44,92,905,217.0,194,454,60,124.0,189,1,157,417,31,0,0,209,-17920,-1281,164,-5.59,,,,,,,,,,,,
113623,1564152858317,-1,1.49,0.89,0.3,1.46,1.05,1.02,0.73,0.35,-48,-3,-64,1.25,2135,21,88,44,93,899,216.0,196,461,60,126.0,189,1,171,430,31,0,0,208,250,-1,164,181.28,,,,,,,,,,,,
113643,1564152858337,3,1.49,0.88,0.31,1.46,1.05,0.95,0.73,0.43,-48,-3,-65,1.2,2249,21,88,44,92,893,216.0,204,458,60,125.0,189,1,157,214,31,0,0,207,250,-1,163,-5.59,44.680862,10.024385,17.64,178.7,0,0.0,-1,0.0,0.0,0,0.4,1.894
113663,1564152858357,-2,1.49,0.88,0.31,1.45,1.06,1.02,0.69,0.36,-48,-4,-64,1.23,2311,21,88,44,92,886,216.0,206,461,60,126.0,189,1,157,406,31,0,0,206,250,-1,161,181.28,,,,,,,,,,,,
113683,1564152858377,-2,1.49,0.88,0.31,1.45,1.05,0.98,0.7,0.44,-48,-5,-64,1.2,2428,21,88,44,91,876,213.0,212,465,60,127.0,217,1,143,386,35,0,0,205,16384,-1,161,181.28,,,,,,,,,,,,
113703,1564152858397,-1,1.5,0.88,0.3,1.46,1.06,0.97,0.7,0.4,-47,0,-64,1.19,2628,21,88,44,90,867,212.0,223,460,60,124.0,217,1,142,377,35,0,0,204,250,-1,161,-5.59,,,,,,,,,,,,
113723,1564152858417,3,1.49,0.89,0.3,1.46,1.05,1.04,0.71,0.32,-47,1,-63,1.26,2699,21,88,44,89,864,212.0,228,455,60,126.0,217,1,149,377,35,0,0,204,250,-1,159,181.28,,,,,,,,,,,,
113743,1564152858437,1,1.49,0.89,0.31,1.45,1.06,1.04,0.69,0.37,-47,-5,-62,1.25,2767,21,88,44,89,862,210.0,232,458,60,126.0,217,1,156,384,35,0,0,203,966,-236,159,181.28,44.680859,10.024391,17.14,178.8,0,0.0,-1,0.0,0.0,0,0.4,1.8957
113763,1564152858457,-1,1.5,0.89,0.3,1.46,1.05,0.98,0.67,0.47,-47,-10,-62,1.19,2853,21,88,44,88,862,210.0,239,464,60,126.0,217,1,165,385,35,0,0,201,966,-1,158,181.28,,,,,,,,,,,,
113783,1564152858477,1,1.5,0.88,0.31,1.45,1.05,0.96,0.63,0.52,-47,-10,-62,1.15,3003,21,88,44,87,863,210.0,245,462,60,126.0,265,1,180,392,42,0,0,202,966,-236,158,181.28,,,,,,,,,,,,
113803,1564152858499,3,1.51,0.89,0.31,1.45,1.06,0.98,0.59,0.51,-47,-10,-62,1.15,3158,18,88,44,86,867,208.0,256,463,60,126.0,265,1,180,400,42,0,0,199,250,-1,156,181.28,,,,,,,,,,,,
113823,1564152858519,-1,1.51,0.89,0.31,1.46,1.06,0.95,0.56,0.41,-46,-8,-61,1.11,3338,12,88,44,84,872,207.0,267,457,60,124.0,265,1,180,392,42,0,0,201,-1482,-1,156,-5.59,,,,,,,,,,,,
113843,1564152858539,-1,1.54,0.88,0.31,1.46,1.05,0.92,0.63,0.35,-46,-7,-61,1.12,3503,8,88,44,81,881,207.0,278,463,60,126.0,265,1,180,390,42,0,0,200,-1482,-1,156,-5.59,44.680859,10.024396,16.82,178.8,0,0.0,-1,0.0,0.0,0,0.4,1.8974
113863,1564152858559,-1,1.56,0.89,0.31,1.46,1.05,0.92,0.59,0.39,-45,-8,-60,1.09,3680,6,88,44,78,889,205.0,293,471,60,125.0,265,1,185,374,42,0,0,198,-29696,-1,156,181.28,,,,,,,,,,,,
113883,1564152858579,1,1.57,0.89,0.31,1.47,1.06,0.93,0.6,0.35,-46,-6,-60,1.11,3844,6,88,44,75,894,204.0,308,450,60,125.0,335,1,188,355,52,0,0,197,250,-236,155,-5.59,,,,,,,,,,,,
113903,1564152858597,-1,1.58,0.89,0.31,1.46,1.06,0.94,0.57,0.4,-45,-5,-60,1.1,3980,6,88,44,73,899,203.0,318,471,60,125.0,335,1,191,345,52,0,0,196,-1482,-1,154,181.28,,,,,,,,,,,,
113923,1564152858617,-0,1.6,0.89,0.31,1.46,1.06,0.93,0.52,0.46,-44,-6,-59,1.07,4080,6,88,44,71,925,202.0,325,459,60,126.0,335,1,197,338,52,0,0,195,13874,-1,153,-5.59,,,,,,,,,,,,
113943,1564152858637,2,1.62,0.89,0.31,1.46,1.06,0.89,0.56,0.46,-44,-4,-58,1.05,4122,6,88,44,69,950,201.0,341,458,60,126.0,335,1,200,325,52,0,0,193,12800,-1,153,-5.59,44.680855,10.024402,16.61,178.8,0,0.0,-1,0.0,0.0,0,0.4,1.899
113963,1564152858657,1,1.62,0.89,0.31,1.46,1.06,0.86,0.58,0.42,-43,-3,-58,1.04,4163,6,88,44,67,971,199.0,346,457,60,125.0,335,1,201,286,52,0,0,194,-1480,-1,154,-5.59,,,,,,,,,,,,
113983,1564152858677,-1,1.62,0.89,0.32,1.46,1.06,0.87,0.58,0.4,-43,-3,-57,1.04,4267,6,88,44,66,992,200.0,354,467,60,124.0,290,1,208,282,45,0,0,195,250,-1,155,-5.59,,,,,,,,,,,,
114003,1564152858699,-1,1.63,0.89,0.31,1.46,1.06,0.88,0.57,0.42,-42,-2,-56,1.05,4223,5,88,44,65,1019,199.0,355,471,60,126.0,290,1,202,276,45,0,0,193,-1480,-1,154,-5.59,,,,,,,,,,,,
114023,1564152858719,-2,1.64,0.89,0.31,1.46,1.06,0.86,0.56,0.45,-42,-3,-55,1.03,4251,5,88,44,64,1047,198.0,349,463,60,126.0,290,1,204,271,45,0,0,193,14412,-1,153,-5.59,,,,,,,,,,,,
114043,1564152858739,-2,1.65,0.89,0.31,1.46,1.06,0.86,0.57,0.48,-42,-4,-54,1.03,4342,6,88,44,63,1060,196.0,358,458,60,127.0,290,1,210,267,45,0,0,192,250,-236,153,-5.59,44.680855,10.024407,16.31,178.8,0,0.0,-1,0.0,0.0,0,0.4,1.9007
114063,1564152858759,2,1.65,0.89,0.31,1.46,1.06,0.83,0.58,0.47,-41,-4,-54,1.02,4236,5,88,44,62,1067,196.0,355,459,60,126.0,290,1,198,261,45,0,0,191,250,-1,153,-5.59,,,,,,,,,,,,
114083,1564152858779,3,1.66,0.89,0.3,1.46,1.07,0.81,0.61,0.45,-41,-2,-54,1.01,4344,5,88,44,61,1064,196.0,366,461,60,124.0,276,1,208,261,42,0,0,192,250,-1,152,-5.59,,,,,,,,,,,,
114103,1564152858797,1,1.66,0.88,0.31,1.47,1.05,0.82,0.61,0.45,-40,-1,-53,1.02,4281,5,88,44,61,1061,195.0,366,457,60,124.0,276,1,202,256,42,0,0,188,-1481,-1,152,-5.59,,,,,,,,,,,,
114123,1564152858817,-1,1.67,0.89,0.31,1.46,1.06,0.84,0.56,0.45,-39,-1,-53,1.01,4249,5,88,44,60,1054,194.0,362,471,60,124.0,276,1,200,256,42,0,0,190,14326,-1,152,-5.59,,,,,,,,,,,,
114143,1564152858837,-2,1.67,0.89,0.31,1.47,1.06,0.83,0.55,0.45,-39,-0,-52,1.0,4302,5,88,44,60,1044,193.0,364,461,60,127.0,276,1,205,251,42,0,0,188,-2560,-1,151,-5.59,44.680855,10.024413,15.96,178.8,0,0.0,-1,0.0,0.0,0,0.41,1.9024
114163,1564152858857,-0,1.66,0.9,0.31,1.46,1.06,0.8,0.56,0.46,-38,-1,-51,0.98,4224,5,88,44,60,1021,192.0,355,460,60,127.0,276,1,197,251,42,0,0,188,250,-1,151,414.87,,,,,,,,,,,,
114183,1564152858877,-2,1.67,0.89,0.31,1.46,1.06,0.82,0.59,0.48,-38,-2,-51,1.0,4252,5,88,44,59,994,193.0,357,461,60,127.0,258,1,201,247,39,0,0,188,-2560,-1,151,181.28,,,,,,,,,,,,
114203,1564152858897,2,1.66,0.89,0.31,1.46,1.07,0.78,0.61,0.44,-38,-3,-50,0.99,4292,5,88,44,59,973,192.0,359,460,60,125.0,258,1,205,247,39,0,0,188,250,-236,150,-5.59,,,,,,,,,,,,
114223,1564152858917,-0,1.66,0.89,0.32,1.46,1.06,0.79,0.6,0.41,-38,-2,-50,0.99,4186,5,88,44,58,955,192.0,366,464,60,124.0,258,1,194,246,39,0,0,188,250,-1,151,-5.59,,,,,,,,,,,,
114243,1564152858937,-1,1.66,0.89,0.31,1.46,1.06,0.83,0.57,0.42,-37,-1,-50,1.01,4222,5,88,44,58,932,192.0,356,467,60,126.0,258,1,199,242,39,0,0,187,250,-1,150,-5.59,44.680855,10.024419,17.12,178.9,0,0.0,-1,0.0,0.0,0,0.41,1.904
114263,1564152858957,-2,1.67,0.89,0.31,1.46,1.06,0.84,0.53,0.43,-37,-1,-49,0.99,4237,5,88,44,58,906,190.0,355,461,60,127.0,258,1,199,242,39,0,0,187,-1,-1,150,-5.59,,,,,,,,,,,,
114283,1564152858977,-0,1.66,0.9,0.31,1.47,1.06,0.83,0.5,0.46,-37,-3,-49,0.97,4142,5,88,44,58,890,190.0,354,456,60,126.0,246,1,188,236,37,0,0,187,-1,-236,150,-5.59,,,,,,,,,,,,
114303,1564152858997,3,1.66,0.9,0.32,1.46,1.06,0.79,0.5,0.45,-37,-2,-50,0.94,4180,5,88,44,58,882,190.0,351,459,60,126.0,246,1,193,236,37,0,0,187,-1,-1,150,-5.59,,,,,,,,,,,,
114323,1564152858993,-0,1.67,0.9,0.32,1.46,1.06,0.81,0.51,0.4,-36,1,-49,0.96,4151,5,88,44,57,873,189.0,356,461,60,123.0,246,1,189,236,37,0,0,185,-1,-1,148,-5.59,,,,,,,,,,,,
114343,1564152859013,-1,1.66,0.9,0.31,1.46,1.06,0.86,0.47,0.42,-36,0,-48,0.98,4119,5,88,44,57,864,189.0,347,466,60,127.0,246,1,185,236,37,0,0,186,-1,-236,149,414.87,44.680855,10.024425,16.0,178.9,0,0.0,-1,0.0,0.0,0,0.41,1.9057
114363,1564152859033,-2,1.67,0.89,0.32,1.47,1.06,0.84,0.47,0.45,-36,-1,-48,0.97,4092,5,88,44,57,858,189.0,347,458,60,127.0,246,1,182,236,37,0,0,185,-1,-236,148,181.28,,,,,,,,,,,,
114383,1564152859053,1,1.67,0.89,0.31,1.46,1.07,0.81,0.5,0.45,-36,-1,-48,0.95,4076,5,88,44,57,857,188.0,348,464,60,126.0,243,1,180,236,36,0,0,184,-1,-236,148,-5.59,,,,,,,,,,,,
114403,1564152859091,-1,1.68,0.89,0.31,1.47,1.06,0.84,0.48,0.43,-35,0,-47,0.97,4026,5,88,44,57,856,188.0,349,466,60,125.0,243,1,174,236,36,0,0,185,-1,5120,148,-5.59,,,,,,,,,,,,
114423,1564152859111,-2,1.68,0.89,0.32,1.47,1.06,0.85,0.47,0.46,-35,-1,-47,0.97,4070,5,88,44,57,857,188.0,341,465,60,126.0,243,1,179,236,36,0,0,184,-1,5140,148,414.87,,,,,,,,,,,,
114443,1564152859131,2,1.68,0.89,0.32,1.46,1.06,0.84,0.5,0.47,-35,-1,-46,0.98,4036,5,88,44,57,858,188.0,345,456,60,126.0,243,1,175,236,36,0,0,185,-1,5120,148,-5.59,44.680859,10.024429,15.82,178.9,0,0.0,-1,0.0,0.0,0,0.41,1.9074
114463,1564152859151,-2,1.68,0.89,0.31,1.46,1.07,0.84,0.5,0.45,-35,-0,-46,0.97,4001,5,88,44,56,861,188.0,343,462,60,124.0,243,1,171,232,36,0,0,183,-1,5120,147,-5.59,,,,,,,,,,,,
114483,1564152859171,-1,1.67,0.89,0.31,1.47,1.06,0.86,0.43,0.49,-35,-1,-46,0.97,4053,5,88,44,57,866,187.0,340,467,60,126.0,236,1,177,236,35,0,0,183,-1,5120,148,181.28,,,,,,,,,,,,
114503,1564152859202,3,1.68,0.9,0.31,1.47,1.06,0.86,0.45,0.5,-35,-2,-46,0.97,4039,5,88,44,56,873,187.0,341,456,60,127.0,236,1,175,232,35,0,0,183,-1,-236,146,181.28,,,,,,,,,,,,
114523,1564152859222,-0,1.68,0.9,0.32,1.47,1.06,0.85,0.45,0.44,-35,-0,-46,0.96,3981,5,88,44,56,880,187.0,343,462,60,124.0,236,1,170,231,35,0,0,183,-1,5120,147,-5.59,,,,,,,,,,,,
114543,1564152859242,-1,1.68,0.9,0.31,1.46,1.06,0.89,0.38,0.46,-34,-1,-45,0.97,4021,5,88,44,56,885,186.0,340,464,60,126.0,236,1,173,232,35,0,0,182,-1,5120,146,181.28,44.680859,10.024434,15.09,178.9,0,0.0,-1,0.0,0.0,0,0.41,1.909
114563,1564152859262,3,1.68,0.89,0.31,1.46,1.07,0.89,0.4,0.46,-35,-2,-45,0.98,3990,5,88,44,56,891,186.0,341,458,60,127.0,236,1,170,231,35,0,0,181,-1,-1281,146,181.28,,,,,,,,,,,,
114583,1564152859282,-2,1.68,0.89,0.32,1.46,1.07,0.88,0.42,0.41,-34,-0,-45,0.97,3903,5,88,44,56,899,184.0,338,462,60,123.0,232,1,167,229,34,0,0,181,-1,250,146,-5.59,,,,,,,,,,,,
114603,1564152859294,-1,1.68,0.9,0.32,1.46,1.06,0.87,0.4,0.43,-34,-1,-44,0.96,3954,5,88,44,56,906,184.0,336,462,60,126.0,232,1,169,230,34,0,0,181,-1,250,145,414.87,,,,,,,,,,,,
114623,1564152859314,2,1.68,0.9,0.31,1.47,1.06,0.85,0.45,0.43,-34,-1,-45,0.96,3939,5,88,44,56,910,185.0,335,452,60,126.0,232,1,168,230,34,0,0,181,-1,-1281,145,-5.59,,,,,,,,,,,,
114643,1564152859334,-1,1.69,0.9,0.31,1.47,1.07,0.87,0.44,0.45,-34,-1,-44,0.98,3829,5,88,44,56,913,184.0,333,470,60,124.0,232,1,163,228,34,0,0,180,-1,250,145,-5.59,44.680862,10.024439,15.2,178.9,0,0.0,-1,0.0,0.0,0,0.41,1.9107
114663,1564152859354,3,1.68,0.9,0.31,1.47,1.06,0.89,0.44,0.48,-34,-2,-44,0.99,3888,5,88,44,56,917,183.0,327,460,60,126.0,232,1,166,228,34,0,0,181,-1,250,145,181.28,,,,,,,,,,,,
114683,1564152859374,-1,1.69,0.89,0.31,1.46,1.07,0.86,0.44,0.46,-34,-1,-44,0.97,3909,5,88,44,56,921,184.0,335,460,60,123.0,234,1,167,229,34,0,0,180,-1,5120,146,-5.59,,,,,,,,,,,,
114703,1564152859394,-2,1.68,0.89,0.32,1.47,1.06,0.87,0.39,0.47,-34,-3,-44,0.95,3829,5,89,44,56,922,183.0,329,468,60,126.0,234,1,163,227,34,0,0,179,-1,5120,145,414.87,,,,,,,,,,,,
114723,1564152859404,-0,1.68,0.89,0.31,1.47,1.06,0.85,0.44,0.48,-33,-1,-44,0.96,3846,5,88,44,56,923,183.0,328,454,60,122.0,234,1,164,227,34,0,0,179,-1,-1281,144,-5.59,,,,,,,,,,,,
114743,1564152859424,-1,1.68,0.9,0.31,1.47,1.06,0.85,0.38,0.52,-33,-1,-44,0.93,3894,5,89,44,57,923,183.0,331,468,60,125.0,234,1,166,232,34,0,0,179,-1,-1281,144,181.28,44.680862,10.024445,15.17,178.9,0,0.0,-1,0.0,0.0,0,0.41,1.9124
114763,1564152859444,1,1.68,0.89,0.31,1.47,1.06,0.85,0.41,0.5,-33,-1,-44,0.94,3820,5,88,44,56,923,183.0,327,453,60,126.0,234,1,163,227,34,0,0,179,-1,5120,144,-5.59,,,,,,,,,,,,
114783,1564152859464,-2,1.69,0.89,0.32,1.46,1.06,0.86,0.37,0.53,-33,-1,-43,0.94,3784,5,89,44,57,922,183.0,323,467,60,126.0,229,1,162,231,33,0,0,179,-1,250,144,-5.59,,,,,,,,,,,,
114803,1564152859500,3,1.68,0.89,0.31,1.47,1.06,0.88,0.4,0.54,-33,-2,-44,0.97,3854,5,88,44,57,921,182.0,323,460,60,126.0,229,1,165,232,33,0,0,181,-1,250,144,181.28,,,,,,,,,,,,
114823,1564152859520,-0,1.69,0.89,0.31,1.46,1.07,0.89,0.41,0.5,-33,-1,-43,0.98,3793,5,89,44,57,919,182.0,328,464,60,124.0,229,1,162,232,33,0,0,177,-1,-1,145,-5.59,,,,,,,,,,,,
114843,1564152859540,3,1.69,0.89,0.31,1.46,1.06,0.89,0.43,0.51,-33,-1,-42,0.99,3768,6,88,44,57,916,181.0,322,455,60,127.0,229,1,161,231,33,0,0,179,-1,250,144,181.28,44.680866,10.024449,15.46,178.9,0,0.0,-1,0.0,0.0,0,0.41,1.914
114863,1564152859560,-1,1.68,0.9,0.32,1.46,1.06,0.89,0.41,0.48,-33,-1,-43,0.98,3800,5,89,44,57,915,181.0,325,466,60,123.0,229,1,163,232,33,0,0,179,-1,-1,144,-5.59,,,,,,,,,,,,
114883,1564152859580,3,1.69,0.89,0.31,1.46,1.07,0.88,0.42,0.5,-33,-2,-42,0.98,3767,5,89,44,57,913,182.0,320,462,60,126.0,229,1,161,231,33,0,0,179,-1,-1,144,181.28,,,,,,,,,,,,
114903,1564152859600,-1,1.7,0.89,0.31,1.46,1.07,0.87,0.44,0.5,-32,-1,-42,0.98,3701,5,89,44,58,911,182.0,325,462,60,123.0,229,1,159,233,33,0,0,177,-1,-1,144,-5.59,,,,,,,,,,,,
114923,1564152859610,2,1.7,0.89,0.31,1.47,1.06,0.85,0.46,0.49,-32,-1,-42,0.97,3696,5,89,44,58,910,180.0,316,457,60,126.0,229,1,158,232,33,0,0,177,-1,250,143,-5.59,,,,,,,,,,,,
114943,1564152859630,-0,1.7,0.9,0.32,1.47,1.07,0.86,0.46,0.5,-32,-1,-42,0.97,3666,5,89,44,58,908,181.0,318,461,60,123.0,229,1,157,232,33,0,0,177,-1,-1,143,-5.59,44.680866,10.024453,15.39,178.9,0,0.0,-1,0.0,0.0,0,0.41,1.9157
114963,1564152859650,-1,1.71,0.89,0.32,1.47,1.06,0.84,0.48,0.48,-32,-0,-42,0.97,3635,5,89,44,59,908,180.0,313,458,60,126.0,229,1,155,235,33,0,0,178,-1,-1,143,-5.59,,,,,,,,,,,,
114983,1564152859670,-1,1.72,0.89,0.32,1.46,1.07,0.86,0.42,0.52,-32,-2,-42,0.96,3587,5,89,44,59,907,181.0,307,466,60,125.0,225,1,153,234,32,0,0,177,-1,-1,142,414.87,,,,,,,,,,,,
115003,1564152859706,-0,1.71,0.9,0.32,1.46,1.06,0.85,0.41,0.48,-32,-1,-42,0.95,3567,5,89,44,60,905,179.0,315,455,60,123.0,225,1,152,238,32,0,0,176,-236,-1,142,-5.59,,,,,,,,,,,,
115023,1564152859726,2,1.72,0.9,0.32,1.47,1.06,0.84,0.41,0.47,-32,-1,-42,0.93,3539,5,89,44,60,904,178.0,305,469,60,127.0,225,1,151,237,32,0,0,175,5134,-1,142,181.28,,,,,,,,,,,,
115043,1564152859746,0,1.72,0.9,0.32,1.47,1.07,0.86,0.4,0.51,-32,-4,-42,0.95,3498,5,89,44,61,904,178.0,305,460,60,124.0,225,1,150,241,32,0,0,175,5134,-1,141,-5.59,44.68087,10.024457,14.67,178.9,0,0.0,-1,0.0,0.0,0,0.41,1.9174
