"Interval"|"ms"|0|0|1,"Utc"|"ms"|0|0|1,"FB_p"|"bar"|0|300|50,"Volant"|"F"|0.0|300.0|50,"xFR"|"mm"|0.0|5.0|50,"xRR"|"mm"|0.0|5.0|50,"xFL"|"mm"|0.0|5.0|50,"xRL"|"mm"|0.0|5.0|50,"AccelX"|"G"|-3.0|3.0|50,"AccelY"|"G"|-3.0|3.0|50,"AccelZ"|"G"|-3.0|3.0|50,"Yaw"|"Deg/Sec"|-120|120|50,"Pitch"|"Deg/Sec"|-120|120|50,"Roll"|"Deg/Sec"|-120|120|50,"Gsum"|"G"|0.0|3.0|50,"RPM"|""|0|14000|50,"TPS"|"%"|0|100|50,"WaterTemp"|"?C"|0|300|50,"AirTemp"|"?C"|-1000|1000|50,"MAP"|"KPa"|0|255|50,"Lambda"|""|0|1024|50,"WheelSpeed"|"MPH"|0.0|150.0|50,"OilPress"|"PSI"|0|150|50,"FuelPress"|"PSI"|0|150|50,"OilTemp"|"F"|0|300|50,"Battery"|"Volts"|0.0|20.0|50,"FuelCon"|"L/h"|-1000|1000|50,"Gear"|""|0|10|50,"Advance"|"Deg"|-360|360|50,"Injection"|"ms"|-1000|1000|50,"FuelCon"|"L/100km"|-1000|1000|50,"LC_But_Pres"|""|-1000|1000|50,"LC_Active"|""|-1000|1000|50,"RD_Speed"|""|-1000|1000|50,"RUD_Speed"|""|-1000|1000|50,"LD_Speed"|""|-1000|1000|50,"LUD_Speed"|""|-1000|1000|50,"Ana1"|"bar"|-1000.0|1000.0|50,"Latitude"|"Degrees"|-180.0|180.0|10,"Longitude"|"Degrees"|-180.0|180.0|10,"Speed"|"kph"|0.0|150.0|10,"Altitude"|"m"|0.0|4000.0|10,"LapCount"|""|0|0|10,"LapTime"|"Min"|0.0|0.0|10,"Sector"|""|0|0|10,"SectorTime"|"Min"|0.0|0.0|10,"ElapsedTime"|"Min"|0.0|0.0|10,"CurrentLap"|""|0|0|10,"Distance"|"km"|0.0|0.0|10,"SessionTime"|"Min"|0.0|0.0|10
405963,1564153150663,2,2.54,1.17,0.49,1.55,1.16,0.57,-0.59,0.28,22,3,29,0.82,11055,53,105,44,58,914,567.0,636,465,60,121.0,275,1,428,377,155,0,0,589,-30064,2048,567,-5.59,,,,,,,,,,,,
405983,1564153150683,1,2.53,1.16,0.49,1.56,1.16,0.64,-0.72,0.42,22,2,27,0.96,11029,53,105,44,58,909,569.0,636,466,60,123.0,277,1,428,378,158,0,0,590,-8186,-13043,569,-5.59,,,,,,,,,,,,
406003,1564153150705,1,2.52,1.17,0.49,1.56,1.16,0.63,-0.66,0.43,21,1,30,0.91,11048,53,105,44,58,906,572.0,643,467,60,122.0,277,1,428,379,158,0,0,593,1779,-16179,572,-5.59,,,,,,,,,,,,
406023,1564153150725,3,2.51,1.16,0.48,1.57,1.16,0.56,-0.68,0.4,21,-0,29,0.88,11114,53,105,44,58,904,575.0,637,467,60,122.0,277,1,427,379,158,0,0,593,14504,-13043,575,-5.59,,,,,,,,,,,,
406043,1564153150745,1,2.5,1.17,0.49,1.55,1.15,0.69,-0.74,0.55,20,2,26,1.01,11081,53,105,44,58,902,574.0,650,468,60,123.0,277,1,428,378,158,0,0,600,2524,23619,575,-5.59,44.681328,10.024954,55.56,174.2,0,0.0,-1,0.0,0.0,0,2.81,6.7674
406063,1564153150765,2,2.5,1.16,0.49,1.55,1.16,0.63,-0.63,0.29,20,3,26,0.89,11174,53,105,44,57,903,576.0,646,462,60,122.0,277,1,420,371,158,0,0,600,2104,23619,576,-5.59,,,,,,,,,,,,
406083,1564153150785,0,2.5,1.17,0.49,1.55,1.16,0.7,-0.75,0.46,19,3,26,1.02,11214,53,105,44,57,904,580.0,650,463,60,123.0,279,1,419,371,161,0,0,594,-9072,-3820,579,-5.59,,,,,,,,,,,,
406103,1564153150805,1,2.49,1.17,0.5,1.55,1.17,0.64,-0.67,0.3,19,3,28,0.92,11261,53,105,44,58,900,581.0,657,466,60,122.0,279,1,425,371,161,0,0,602,2524,5344,581,-5.59,,,,,,,,,,,,
406123,1564153150825,1,2.49,1.16,0.49,1.56,1.16,0.73,-0.74,0.47,19,4,25,1.04,11194,53,105,44,57,894,582.0,638,467,60,123.0,279,1,420,371,161,0,0,599,2524,5344,582,-5.59,,,,,,,,,,,,
406143,1564153150845,2,2.51,1.17,0.49,1.55,1.16,0.71,-0.61,0.33,19,3,26,0.93,11247,53,105,44,57,888,583.0,651,468,60,121.0,279,1,420,371,161,0,0,613,-32504,30227,583,-5.59,44.68132,10.024968,56.1,174.2,0,0.0,-1,0.0,0.0,0,2.81,6.7691
406163,1564153150865,-0,2.51,1.16,0.49,1.55,1.16,0.66,-0.74,0.46,18,2,24,0.99,11281,53,105,44,57,881,585.0,635,468,60,122.0,279,1,419,371,161,0,0,601,2216,1010,584,-5.59,,,,,,,,,,,,
406183,1564153150885,3,2.52,1.16,0.49,1.55,1.16,0.65,-0.54,0.41,18,1,26,0.85,11336,53,105,44,57,869,588.0,643,467,60,121.0,272,1,418,371,159,0,0,603,-28648,28675,588,-5.59,,,,,,,,,,,,
406203,1564153150905,1,2.52,1.16,0.49,1.55,1.16,0.76,-0.66,0.56,18,2,24,1.01,11308,53,105,44,57,856,588.0,638,465,60,121.0,272,1,418,372,159,0,0,604,12552,5344,587,-5.59,,,,,,,,,,,,
406223,1564153150925,3,2.53,1.17,0.49,1.56,1.16,0.73,-0.7,0.31,18,2,24,1.01,11349,53,105,44,57,846,588.0,641,466,60,122.0,272,1,418,372,159,0,0,602,-2934,17740,588,-5.59,,,,,,,,,,,,
406243,1564153150945,2,2.53,1.17,0.49,1.56,1.16,0.76,-0.53,0.48,19,6,24,0.92,11412,53,105,44,56,839,590.0,645,465,60,122.0,272,1,412,363,159,0,0,620,12552,-3446,590,-5.59,44.681309,10.024982,56.83,174.2,0,0.0,-1,0.0,0.0,0,2.82,6.7707
406263,1564153150965,2,2.53,1.17,0.49,1.55,1.16,0.78,-0.68,0.45,18,3,24,1.03,11460,53,105,44,56,831,594.0,649,463,60,121.0,272,1,411,363,159,0,0,615,-30159,19304,594,-5.59,,,,,,,,,,,,
406283,1564153150985,4,2.53,1.16,0.49,1.55,1.16,0.75,-0.69,0.33,18,2,25,1.02,11503,53,105,44,56,822,592.0,647,464,60,122.0,265,1,411,363,158,0,0,615,-30159,16529,595,-5.59,,,,,,,,,,,,
406303,1564153150995,1,2.53,1.16,0.49,1.55,1.16,0.78,-0.64,0.49,19,2,25,1.01,11496,53,105,44,56,816,596.0,645,467,60,123.0,265,1,411,363,158,0,0,607,-8186,16529,596,-5.59,,,,,,,,,,,,
406323,1564153151015,1,2.53,1.17,0.49,1.55,1.16,0.8,-0.68,0.48,19,1,24,1.05,11524,53,105,44,56,813,597.0,651,468,60,122.0,265,1,411,364,158,0,0,614,-3190,269,597,-5.59,,,,,,,,,,,,
406343,1564153151035,3,2.53,1.17,0.49,1.55,1.16,0.78,-0.61,0.34,20,-1,24,0.99,11574,53,105,44,56,808,599.0,650,467,60,121.0,265,1,411,364,158,0,0,630,-29984,269,600,-5.59,44.681301,10.024996,58.02,174.2,0,0.0,-1,0.0,0.0,0,2.82,6.7724
406363,1564153151055,3,2.53,1.17,0.49,1.56,1.15,0.74,-0.64,0.48,20,-0,25,0.98,11574,53,105,44,56,802,602.0,654,469,60,123.0,265,1,411,364,158,0,0,616,-3190,3403,602,-5.59,,,,,,,,,,,,
406383,1564153151075,2,2.54,1.16,0.49,1.56,1.16,0.71,-0.78,0.61,19,-0,25,1.05,11631,53,105,44,56,796,604.0,645,466,60,121.0,265,1,411,364,160,0,0,616,-3190,-14655,604,-5.59,,,,,,,,,,,,
406403,1564153151105,1,2.56,1.16,0.48,1.55,1.16,0.64,-0.9,0.58,19,-1,24,1.1,11667,53,105,44,55,793,603.0,642,465,60,122.0,265,1,405,356,160,0,0,613,1267,30721,603,-5.59,,,,,,,,,,,,
406423,1564153151125,2,2.57,1.16,0.49,1.55,1.16,0.62,-0.7,0.49,20,-2,26,0.94,11667,53,105,44,55,787,601.0,654,463,60,122.0,265,1,405,356,160,0,0,620,-3190,3395,601,-5.59,,,,,,,,,,,,
406443,1564153151145,2,2.58,1.16,0.49,1.55,1.16,0.71,-0.53,0.55,21,-3,27,0.89,11624,53,105,43,55,781,603.0,635,467,60,122.0,265,1,405,358,160,0,0,627,1267,17336,601,-5.59,44.681286,10.02501,58.81,174.2,0,0.0,-1,0.0,0.0,0,2.82,6.774
406463,1564153151165,2,2.58,1.16,0.49,1.56,1.16,0.81,-0.68,0.69,21,-1,26,1.06,11609,53,105,44,55,776,605.0,662,464,60,122.0,265,1,405,354,160,0,0,628,-8188,771,605,-5.59,,,,,,,,,,,,
406483,1564153151185,1,2.58,1.17,0.49,1.56,1.16,0.87,-0.81,0.47,20,-1,25,1.19,11624,53,105,43,56,774,609.0,648,465,60,121.0,260,1,411,358,157,0,0,634,1760,966,609,-5.59,,,,,,,,,,,,
406503,1564153151205,4,2.57,1.17,0.48,1.56,1.16,0.81,-0.85,0.34,21,1,25,1.18,11660,53,105,43,55,771,603.0,661,463,60,122.0,260,1,405,360,157,0,0,611,-3190,20993,604,-5.59,,,,,,,,,,,,
406523,1564153151225,3,2.57,1.16,0.49,1.56,1.16,0.71,-0.63,0.37,22,3,27,0.94,11748,53,105,43,55,765,605.0,652,464,60,123.0,260,1,405,360,157,0,0,630,-8188,-18357,605,-5.59,,,,,,,,,,,,
406543,1564153151245,1,2.57,1.17,0.49,1.56,1.15,0.67,-0.49,0.53,23,6,26,0.84,11733,53,105,43,55,761,605.0,651,462,60,122.0,260,1,405,360,157,0,0,636,259,17336,605,-5.59,44.681274,10.025022,59.6,174.2,0,0.0,-1,0.0,0.0,0,2.82,6.7757
406563,1564153151265,2,2.56,1.17,0.49,1.55,1.16,0.7,-0.63,0.53,23,9,25,0.95,11645,53,105,43,56,758,609.0,656,463,60,122.0,260,1,411,358,157,0,0,625,774,771,609,-5.59,,,,,,,,,,,,
406583,1564153151285,1,2.57,1.16,0.48,1.55,1.16,0.8,-0.77,0.36,22,7,25,1.11,11624,53,105,43,56,755,608.0,657,463,60,122.0,265,1,411,367,161,0,0,625,1,-18357,609,-5.59,,,,,,,,,,,,
406603,1564153151305,3,2.56,1.17,0.49,1.56,1.16,0.78,-0.69,0.34,22,5,27,1.04,11517,53,105,43,56,752,609.0,660,464,60,122.0,265,1,411,366,161,0,0,614,-8188,3395,609,-5.59,,,,,,,,,,,,
406623,1564153151325,2,2.56,1.17,0.49,1.56,1.15,0.83,-0.78,0.5,22,5,27,1.13,11481,53,105,43,56,749,605.0,650,468,60,123.0,265,1,411,365,161,0,0,608,1760,-16883,605,-5.59,,,,,,,,,,,,
406643,1564153151345,-4,2.57,1.16,0.49,1.56,1.16,0.88,-0.83,0.37,23,3,27,1.21,11467,53,105,43,57,749,608.0,651,467,60,122.0,265,1,417,377,161,0,0,601,1760,506,610,-5.59,44.681263,10.025033,59.58,174.2,0,0.0,-1,0.0,0.0,0,2.82,6.7774
406663,1564153151365,2,2.56,1.17,0.49,1.56,1.16,0.87,-0.73,0.38,24,1,30,1.13,11517,53,105,43,57,749,611.0,650,472,60,122.0,265,1,417,366,161,0,0,603,1,-16883,611,-5.59,,,,,,,,,,,,
406683,1564153151385,2,2.56,1.17,0.48,1.56,1.16,0.8,-0.85,0.54,23,1,28,1.17,11609,53,105,43,56,750,608.0,653,468,60,122.0,261,1,411,367,160,0,0,611,-8188,3395,608,-5.59,,,,,,,,,,,,
406703,1564153151405,2,2.55,1.16,0.48,1.56,1.15,0.7,-0.97,0.44,23,2,27,1.19,11711,53,105,43,56,752,605.0,648,467,60,121.0,261,1,411,368,160,0,0,615,-8188,20993,607,-5.59,,,,,,,,,,,,
406723,1564153151425,0,2.56,1.17,0.48,1.56,1.15,0.69,-1.05,0.42,23,2,28,1.26,11785,53,105,43,56,753,606.0,650,467,60,122.0,261,1,411,369,160,0,0,627,-8188,19320,606,-5.59,,,,,,,,,,,,
406743,1564153151445,4,2.56,1.16,0.47,1.56,1.16,0.71,-0.99,0.49,23,-2,29,1.21,11792,53,105,43,55,755,605.0,661,469,60,122.0,261,1,405,360,160,0,0,629,1760,771,605,-5.59,44.681248,10.025043,59.6,174.2,0,0.0,-1,0.0,0.0,0,2.82,6.779
406763,1564153151465,3,2.55,1.17,0.48,1.55,1.15,0.78,-0.72,0.55,23,-3,30,1.06,11718,53,105,43,55,757,608.0,646,466,60,122.0,261,1,405,360,160,0,0,640,30208,966,609,-5.59,,,,,,,,,,,,
406783,1564153151485,2,2.56,1.16,0.48,1.55,1.16,0.87,-0.62,0.65,23,-2,32,1.07,11689,53,105,43,55,759,608.0,653,463,60,122.0,259,1,405,359,159,0,0,641,259,-14655,608,-5.59,,,,,,,,,,,,
406803,1564153151504,2,2.56,1.17,0.48,1.56,1.15,0.95,-0.71,0.72,22,1,33,1.19,11748,53,105,43,55,759,605.0,650,462,60,122.0,259,1,405,360,159,0,0,621,1760,506,605,-5.59,,,,,,,,,,,,
406823,1564153151524,0,2.57,1.16,0.48,1.56,1.16,0.95,-0.84,0.61,22,3,30,1.27,11755,53,105,43,55,760,608.0,652,465,60,122.0,259,1,405,361,159,0,0,613,1760,-14655,607,-5.59,,,,,,,,,,,,
406843,1564153151544,0,2.56,1.17,0.48,1.55,1.16,1.0,-0.96,0.47,22,3,28,1.38,11726,53,105,43,55,761,607.0,656,466,60,121.0,259,1,405,360,159,0,0,630,243,771,606,-5.59,44.681236,10.025052,59.84,174.2,0,0.0,-1,0.0,0.0,0,2.83,6.7807
406863,1564153151564,2,2.57,1.17,0.47,1.56,1.15,0.92,-0.91,0.4,23,6,30,1.29,11718,53,105,43,55,763,610.0,648,465,60,122.0,259,1,405,361,159,0,0,640,10432,-16046,610,-5.59,,,,,,,,,,,,
406883,1564153151584,3,2.58,1.17,0.48,1.55,1.16,0.79,-0.7,0.37,24,8,30,1.06,11814,53,105,43,55,764,610.0,662,464,60,123.0,263,1,405,362,161,0,0,641,259,-14655,611,-5.59,,,,,,,,,,,,
406903,1564153151606,2,2.6,1.17,0.48,1.56,1.16,0.73,-0.59,0.45,24,9,31,0.94,11859,53,105,43,55,765,608.0,653,461,60,122.0,263,1,405,362,161,0,0,619,774,-16883,610,-5.59,,,,,,,,,,,,
406923,1564153151626,3,2.59,1.17,0.48,1.56,1.16,0.65,-0.42,0.6,25,11,32,0.77,11859,53,105,43,55,764,610.0,652,461,60,123.0,263,1,405,362,161,0,0,637,1760,-14655,610,-5.59,,,,,,,,,,,,
406943,1564153151646,3,2.6,1.17,0.48,1.56,1.15,0.65,-0.38,0.74,26,12,32,0.75,11859,53,105,43,55,763,612.0,667,465,60,122.0,263,1,405,362,161,0,0,633,10432,-4876,610,-5.59,44.681225,10.02506,59.84,174.2,0,0.0,-1,0.0,0.0,0,2.83,6.7824
406963,1564153151666,3,2.61,1.16,0.47,1.56,1.16,0.68,-0.49,0.74,26,16,30,0.83,11859,53,105,43,55,761,612.0,645,460,60,122.0,263,1,405,362,161,0,0,646,-3210,-2580,614,-5.59,,,,,,,,,,,,
406983,1564153151686,2,2.62,1.17,0.48,1.56,1.15,0.73,-0.64,0.68,25,13,29,0.97,11844,53,105,43,55,758,610.0,650,465,60,122.0,267,1,405,362,163,0,0,609,-3210,-10251,610,-5.59,,,,,,,,,,,,
407003,1564153151706,1,2.63,1.17,0.48,1.56,1.16,0.7,-0.77,0.58,25,12,27,1.04,11814,53,105,43,55,756,610.0,645,466,60,121.0,267,1,405,361,163,0,0,648,-8188,16599,610,-5.59,,,,,,,,,,,,
407023,1564153151726,3,2.64,1.17,0.47,1.56,1.15,0.81,-0.89,0.45,24,9,28,1.21,11785,53,105,43,55,753,608.0,656,465,60,122.0,267,1,405,361,163,0,0,635,1760,771,611,-5.59,,,,,,,,,,,,
407043,1564153151746,3,2.64,1.17,0.47,1.56,1.15,0.83,-0.98,0.38,24,5,30,1.29,11852,53,105,43,54,752,609.0,650,467,60,123.0,267,1,400,362,163,0,0,621,30208,-14655,609,-5.59,44.681206,10.025065,60.26,174.3,0,0.0,-1,0.0,0.0,0,2.83,6.784
407063,1564153151766,3,2.64,1.17,0.48,1.56,1.16,0.83,-0.94,0.38,25,4,31,1.25,11927,53,105,43,55,752,612.0,643,466,60,122.0,267,1,405,362,163,0,0,647,-8188,-10251,612,-5.59,,,,,,,,,,,,
407083,1564153151786,3,2.64,1.17,0.48,1.56,1.16,0.8,-0.93,0.43,25,3,32,1.22,11897,53,105,43,55,754,612.0,646,468,60,123.0,266,1,405,362,163,0,0,645,30208,16599,612,-5.59,,,,,,,,,,,,
407103,1564153151806,2,2.65,1.17,0.48,1.55,1.16,0.77,-0.94,0.47,25,3,33,1.21,11942,53,105,43,55,756,614.0,645,468,60,123.0,266,1,405,362,163,0,0,652,774,3,611,-5.59,,,,,,,,,,,,
407123,1564153151826,2,2.66,1.17,0.48,1.56,1.15,0.79,-0.93,0.51,25,3,34,1.22,11957,53,105,43,55,757,611.0,648,468,60,122.0,266,1,405,363,163,0,0,623,1760,-3584,611,-5.59,,,,,,,,,,,,
407143,1564153151846,2,2.65,1.16,0.48,1.55,1.15,0.81,-0.88,0.53,26,1,35,1.2,11942,53,105,43,55,759,610.0,645,467,60,123.0,266,1,405,362,163,0,0,628,774,-8429,610,-5.59,44.68119,10.02507,60.28,174.3,0,0.0,-1,0.0,0.0,0,2.83,6.7857
407163,1564153151866,2,2.65,1.17,0.47,1.55,1.16,0.79,-0.85,0.6,27,1,36,1.16,11882,53,105,43,55,761,612.0,649,471,60,123.0,266,1,405,362,163,0,0,655,1760,-4876,612,-5.59,,,,,,,,,,,,
407183,1564153151886,3,2.65,1.17,0.48,1.56,1.16,0.84,-0.82,0.65,26,0,37,1.17,11852,53,105,43,55,764,611.0,652,470,60,121.0,267,1,405,362,163,0,0,643,774,3,611,-5.59,,,,,,,,,,,,
407203,1564153151906,2,2.65,1.16,0.48,1.55,1.15,0.82,-0.81,0.78,26,-2,35,1.15,11867,53,105,43,55,766,611.0,653,467,60,122.0,267,1,405,362,163,0,0,632,259,6208,611,-5.59,,,,,,,,,,,,
407223,1564153151926,2,2.67,1.16,0.48,1.55,1.16,0.82,-0.89,0.9,27,-4,34,1.21,11904,53,105,43,55,766,610.0,653,471,60,122.0,267,1,405,362,163,0,0,626,1760,24,612,-5.59,,,,,,,,,,,,
407243,1564153151946,3,2.66,1.16,0.48,1.56,1.15,0.77,-0.97,1.0,27,-3,34,1.24,11882,53,105,43,54,766,608.0,636,468,60,122.0,267,1,400,362,163,0,0,640,-8188,24,612,-5.59,44.681179,10.025074,60.53,174.3,0,0.0,-1,0.0,0.0,0,2.83,6.7874
407263,1564153151966,3,2.66,1.17,0.48,1.55,1.16,0.81,-1.02,1.09,28,-2,34,1.3,11912,53,105,43,55,765,608.0,635,467,60,122.0,267,1,405,362,163,0,0,645,30208,244,608,-5.59,,,,,,,,,,,,
407283,1564153151986,3,2.67,1.16,0.47,1.55,1.16,0.85,-1.06,1.15,28,-3,33,1.35,11927,53,105,43,55,763,612.0,539,468,60,122.0,267,1,405,362,164,0,0,634,774,-3584,612,-5.59,,,,,,,,,,,,
407303,1564153151998,2,2.67,1.17,0.47,1.56,1.15,0.85,-1.15,1.15,28,-2,33,1.43,11935,53,105,43,55,761,611.0,504,471,60,123.0,267,1,405,362,164,0,0,632,774,-4876,607,-5.59,,,,,,,,,,,,
407323,1564153152018,2,2.68,1.16,0.48,1.55,1.15,0.91,-1.18,1.08,28,-2,35,1.49,11897,53,105,43,55,760,611.0,583,471,60,123.0,267,1,405,362,164,0,0,642,1267,11776,611,-5.59,,,,,,,,,,,,
407343,1564153152038,1,2.68,1.17,0.47,1.55,1.15,0.88,-1.22,0.94,29,-3,35,1.51,11919,53,105,43,55,759,609.0,488,471,60,122.0,267,1,405,363,164,0,0,641,259,-8429,609,-5.59,44.681164,10.025075,60.42,174.4,0,0.0,-1,0.0,0.0,0,2.83,6.7891
407363,1564153152058,1,2.68,1.16,0.48,1.56,1.16,0.96,-1.25,0.88,29,-4,34,1.58,11912,53,105,43,55,759,606.0,585,472,60,122.0,267,1,405,362,164,0,0,620,-3190,-3584,609,-5.59,,,,,,,,,,,,
407383,1564153152078,2,2.68,1.16,0.48,1.55,1.15,0.91,-1.3,0.83,29,-6,35,1.59,11859,53,105,43,54,760,609.0,607,471,60,122.0,267,1,400,353,163,0,0,654,-8188,-14655,609,-5.59,,,,,,,,,,,,
407403,1564153152106,1,2.67,1.17,0.48,1.55,1.15,0.95,-1.29,0.73,29,-9,36,1.6,11837,53,105,43,55,761,609.0,621,467,60,123.0,267,1,405,362,163,0,0,655,1267,-2580,609,-5.59,,,,,,,,,,,,
407423,1564153152126,1,2.69,1.17,0.47,1.55,1.16,0.92,-1.26,0.61,28,-9,38,1.56,11904,53,105,43,55,761,609.0,651,470,60,121.0,267,1,405,363,163,0,0,635,-3190,-3584,606,-5.59,,,,,,,,,,,,
407443,1564153152146,1,2.69,1.16,0.47,1.55,1.15,0.93,-1.14,0.58,29,-10,38,1.47,11957,53,105,43,55,761,609.0,633,471,60,122.0,267,1,405,363,163,0,0,621,-3190,966,607,-5.59,44.681145,10.025076,60.81,174.4,0,0.0,-1,0.0,0.0,0,2.84,6.7907
407463,1564153152166,3,2.69,1.16,0.48,1.55,1.16,0.97,-1.09,0.47,29,-12,37,1.46,11988,53,105,43,54,760,608.0,636,471,60,122.0,267,1,400,363,163,0,0,633,-8186,966,608,-5.59,,,,,,,,,,,,
407483,1564153152186,2,2.7,1.17,0.48,1.55,1.15,0.98,-1.04,0.37,28,-11,39,1.43,11882,53,105,43,55,759,608.0,648,471,60,122.0,269,1,405,362,164,0,0,654,1760,-4876,608,-5.59,,,,,,,,,,,,
407503,1564153152206,4,2.69,1.16,0.48,1.56,1.15,0.98,-0.96,0.25,28,-11,40,1.37,11919,53,105,43,55,757,607.0,630,470,60,123.0,269,1,405,363,164,0,0,649,-3190,-2580,608,-5.59,,,,,,,,,,,,
407523,1564153152226,4,2.68,1.17,0.47,1.56,1.15,0.97,-0.9,0.15,28,-11,42,1.33,11965,53,105,43,55,756,604.0,647,472,60,123.0,269,1,405,357,164,0,0,635,-8186,-10251,604,-5.59,,,,,,,,,,,,
407543,1564153152246,2,2.68,1.17,0.48,1.56,1.15,0.96,-0.87,0.14,28,-11,43,1.3,11957,53,105,43,54,756,604.0,603,468,60,123.0,269,1,400,357,164,0,0,626,-29984,16599,604,-5.59,44.681133,10.025075,60.38,174.4,0,0.0,-1,0.0,0.0,0,2.84,6.7924
407563,1564153152266,3,2.67,1.17,0.48,1.56,1.15,0.96,-0.79,0.11,29,-14,43,1.24,11988,53,105,43,54,756,606.0,583,468,60,123.0,269,1,400,354,164,0,0,648,1267,16599,606,-5.59,,,,,,,,,,,,
407583,1564153152286,3,2.66,1.17,0.48,1.56,1.16,0.9,-0.77,0.16,29,-14,43,1.19,11965,53,105,43,54,758,609.0,595,467,60,123.0,265,1,400,356,161,0,0,646,-29984,966,609,-5.59,,,,,,,,,,,,
407603,1564153152302,3,2.66,1.16,0.47,1.56,1.15,0.88,-0.77,0.16,29,-15,44,1.17,11942,53,105,43,55,759,609.0,611,469,60,122.0,265,1,405,354,161,0,0,639,1267,11776,609,-5.59,,,,,,,,,,,,
407623,1564153152322,2,2.67,1.16,0.48,1.55,1.15,0.84,-0.75,0.21,29,-13,45,1.13,11957,53,105,43,55,762,609.0,580,466,60,123.0,265,1,405,356,161,0,0,639,-8188,11566,610,-5.59,,,,,,,,,,,,
407643,1564153152342,3,2.66,1.16,0.48,1.56,1.15,0.89,-0.73,0.34,29,-11,47,1.15,11973,53,105,43,55,764,611.0,525,466,60,123.0,265,1,405,363,161,0,0,634,-3190,16599,611,-5.59,44.681118,10.025071,60.56,174.4,0,0.0,-1,0.0,0.0,0,2.84,6.7941
407663,1564153152362,2,2.66,1.17,0.48,1.55,1.15,0.81,-0.73,0.44,28,-11,47,1.09,11973,53,105,43,54,766,612.0,564,470,60,123.0,265,1,400,356,161,0,0,647,1267,24,612,-5.59,,,,,,,,,,,,
407683,1564153152382,1,2.67,1.16,0.47,1.55,1.15,0.75,-0.84,0.46,27,-9,44,1.13,11996,52,105,43,54,768,609.0,587,467,60,123.0,265,1,400,356,162,0,0,632,1760,-2580,608,-5.59,,,,,,,,,,,,
407703,1564153152406,3,2.67,1.16,0.48,1.56,1.15,0.76,-0.96,0.46,27,-8,45,1.22,11988,52,105,43,54,769,606.0,586,468,60,123.0,265,1,400,356,162,0,0,626,-3190,24,606,-5.59,,,,,,,,,,,,
407723,1564153152426,2,2.67,1.16,0.48,1.55,1.16,0.73,-1.06,0.6,26,-5,45,1.29,11950,52,105,43,54,769,606.0,594,467,60,122.0,265,1,400,356,162,0,0,628,1267,-10251,606,-5.59,,,,,,,,,,,,
407743,1564153152446,2,2.67,1.17,0.47,1.56,1.15,0.73,-1.15,0.74,25,-5,43,1.37,11882,52,105,43,54,772,606.0,521,466,60,122.0,265,1,400,353,162,0,0,652,1267,-14655,607,-5.59,44.681103,10.025066,60.77,174.4,0,0.0,-1,0.0,0.0,0,2.84,6.7957
407763,1564153152466,2,2.67,1.16,0.48,1.55,1.16,0.69,-1.24,0.74,25,-6,41,1.42,11867,52,105,43,54,774,606.0,502,466,60,123.0,265,1,400,353,162,0,0,646,1267,966,606,-5.59,,,,,,,,,,,,
407783,1564153152486,1,2.65,1.16,0.48,1.55,1.15,0.7,-1.31,0.65,24,-6,41,1.49,11867,52,105,43,55,777,607.0,535,469,60,122.0,260,1,405,353,158,0,0,650,259,966,607,-5.59,,,,,,,,,,,,
407803,1564153152505,-0,2.66,1.16,0.47,1.55,1.15,0.63,-1.38,0.66,24,-6,40,1.52,11957,52,105,43,55,779,613.0,513,466,60,121.0,260,1,405,356,158,0,0,639,774,-10251,613,-5.59,,,,,,,,,,,,
407823,1564153152525,2,2.64,1.15,0.47,1.54,1.16,0.59,-1.44,0.61,25,-4,38,1.56,12011,52,105,43,55,781,611.0,556,468,60,122.0,260,1,405,364,158,0,0,624,1760,-2836,614,-5.59,,,,,,,,,,,,
407843,1564153152545,2,2.65,1.16,0.47,1.56,1.15,0.61,-1.5,0.62,25,-3,37,1.62,12050,52,105,43,55,782,614.0,570,469,60,122.0,260,1,405,357,158,0,0,640,1760,24,614,-5.59,44.681088,10.02506,60.17,174.4,0,0.0,-1,0.0,0.0,0,2.84,6.7974
407863,1564153152565,2,2.66,1.16,0.48,1.55,1.16,0.58,-1.54,0.6,25,-2,36,1.65,12042,52,105,43,55,781,614.0,596,464,60,122.0,260,1,405,363,158,0,0,641,774,16599,614,-5.59,,,,,,,,,,,,
407883,1564153152585,0,2.66,1.16,0.48,1.55,1.15,0.58,-1.59,0.56,25,-3,37,1.69,12034,52,105,43,54,780,611.0,616,468,60,123.0,266,1,400,356,163,0,0,628,-8188,244,613,-5.59,,,,,,,,,,,,
407903,1564153152605,3,2.66,1.16,0.48,1.55,1.15,0.54,-1.63,0.6,25,-3,35,1.71,11996,52,105,43,54,778,611.0,603,465,60,122.0,266,1,400,356,163,0,0,646,774,16599,611,-5.59,,,,,,,,,,,,
407923,1564153152625,0,2.66,1.16,0.47,1.55,1.16,0.56,-1.66,0.61,24,-4,35,1.75,11957,52,105,43,54,775,613.0,612,467,60,123.0,266,1,400,362,163,0,0,642,1760,6208,613,-5.59,,,,,,,,,,,,
407943,1564153152645,1,2.67,1.16,0.47,1.55,1.15,0.56,-1.69,0.62,23,-6,36,1.78,11965,52,105,43,54,774,612.0,618,468,60,121.0,266,1,400,356,163,0,0,648,-8188,24,612,-5.59,44.681076,10.025052,60.62,174.4,0,0.0,-1,0.0,0.0,0,2.84,6.799
407963,1564153152665,1,2.67,1.15,0.47,1.54,1.16,0.53,-1.62,0.63,23,-7,35,1.71,11950,52,105,43,54,773,607.0,598,466,60,122.0,266,1,400,354,163,0,0,630,-8188,966,607,-5.59,,,,,,,,,,,,
407983,1564153152685,4,2.65,1.16,0.48,1.55,1.15,0.52,-1.49,0.55,24,-8,36,1.57,11935,52,105,43,54,773,610.0,595,465,60,122.0,269,1,400,354,164,0,0,638,259,11566,610,-5.59,,,,,,,,,,,,
408003,1564153152705,4,2.64,1.16,0.48,1.54,1.16,0.55,-1.29,0.56,24,-7,36,1.41,11889,52,105,43,54,773,612.0,608,468,60,123.0,269,1,400,353,164,0,0,645,-3210,-4876,612,-5.59,,,,,,,,,,,,
408023,1564153152725,2,2.63,1.16,0.48,1.55,1.15,0.57,-1.04,0.47,25,-8,36,1.19,11897,52,105,43,55,775,616.0,622,467,60,123.0,269,1,405,362,164,0,0,652,774,244,615,-5.59,,,,,,,,,,,,
408043,1564153152745,3,2.62,1.16,0.47,1.55,1.15,0.65,-0.81,0.39,25,-7,38,1.04,11919,52,105,43,55,776,616.0,502,466,60,122.0,269,1,405,362,164,0,0,654,30208,-2836,616,-5.59,44.681061,10.025043,60.9,174.4,0,0.0,-1,0.0,0.0,0,2.85,6.8007
408063,1564153152765,4,2.62,1.16,0.47,1.55,1.15,0.63,-0.66,0.34,26,-8,40,0.92,11996,52,105,43,55,777,614.0,557,467,60,121.0,269,1,405,363,164,0,0,648,1760,-10251,614,-5.59,,,,,,,,,,,,
408083,1564153152785,3,2.62,1.16,0.47,1.55,1.16,0.67,-0.54,0.26,27,-10,40,0.86,12096,52,105,43,55,777,614.0,552,470,60,123.0,270,1,405,364,166,0,0,632,243,-2580,614,-5.59,,,,,,,,,,,,
408103,1564153152805,3,2.61,1.16,0.47,1.55,1.15,0.7,-0.46,0.22,27,-12,40,0.84,12003,52,105,43,55,775,615.0,564,467,60,123.0,270,1,405,364,166,0,0,623,1760,-3584,617,-5.59,,,,,,,,,,,,
408123,1564153152825,1,2.61,1.16,0.48,1.55,1.16,0.75,-0.35,0.23,28,-12,41,0.82,11980,52,105,43,55,773,615.0,590,467,60,123.0,270,1,405,354,166,0,0,646,-3210,6208,614,-5.59,,,,,,,,,,,,
408143,1564153152845,2,2.62,1.16,0.47,1.55,1.15,0.79,-0.21,0.23,27,-13,42,0.82,11904,52,105,43,55,770,611.0,607,465,60,123.0,270,1,405,362,166,0,0,650,1,-4876,611,-5.59,44.681046,10.025031,60.8,174.4,0,0.0,-1,0.0,0.0,0,2.85,6.8024
408163,1564153152865,1,2.63,1.16,0.48,1.56,1.16,0.8,-0.14,0.19,27,-11,45,0.81,11912,52,105,43,55,766,613.0,602,465,60,122.0,270,1,405,362,166,0,0,640,-8188,-4876,612,-5.59,,,,,,,,,,,,
408183,1564153152885,2,2.61,1.16,0.47,1.54,1.15,0.79,-0.04,0.25,27,-10,44,0.79,11927,52,105,43,55,762,612.0,593,458,60,123.0,267,1,405,362,164,0,0,642,774,-10251,610,-5.59,,,,,,,,,,,,
408203,1564153152907,3,2.61,1.16,0.47,1.55,1.16,0.78,0.05,0.25,27,-9,43,0.78,11919,52,105,43,55,760,611.0,621,465,60,123.0,267,1,405,362,164,0,0,639,1,-8429,611,-5.59,,,,,,,,,,,,
408223,1564153152927,4,2.6,1.16,0.47,1.55,1.15,0.86,0.14,0.27,28,-9,44,0.87,11912,52,105,43,55,759,613.0,637,463,60,122.0,267,1,405,276,164,0,0,653,-16384,11566,613,-5.59,,,,,,,,,,,,
408243,1564153152947,2,2.6,1.16,0.48,1.55,1.16,0.88,0.07,0.31,27,-9,44,0.89,11919,52,105,43,54,758,614.0,614,461,60,122.0,267,1,400,362,164,0,0,643,-3210,-30207,614,-5.59,44.681038,10.025019,60.57,174.4,0,0.0,-1,0.0,0.0,0,2.85,6.804
408263,1564153152967,3,2.6,1.16,0.47,1.55,1.15,0.9,0.1,0.36,28,-8,44,0.91,11988,52,105,43,54,757,614.0,601,463,60,123.0,267,1,400,356,164,0,0,631,30208,11776,614,-5.59,,,,,,,,,,,,
408283,1564153152987,2,2.6,1.16,0.47,1.55,1.15,0.97,0.11,0.44,29,-8,43,0.98,11988,52,105,43,54,758,613.0,538,461,60,122.0,269,1,400,356,165,0,0,627,10432,-10251,613,-5.59,,,,,,,,,,,,
408303,1564153152997,3,2.58,1.16,0.47,1.55,1.15,1.01,0.08,0.51,29,-8,43,1.01,11965,52,105,43,54,758,615.0,456,464,60,123.0,269,1,400,356,165,0,0,648,243,16599,615,-5.59,,,,,,,,,,,,
408323,1564153153017,2,2.59,1.16,0.47,1.55,1.16,1.07,0.07,0.54,29,-5,45,1.07,11957,52,105,43,54,759,618.0,562,464,60,122.0,269,1,400,356,165,0,0,657,8488,6208,618,-5.59,,,,,,,,,,,,
408343,1564153153037,1,2.58,1.16,0.48,1.55,1.15,1.07,0.14,0.61,29,-2,44,1.08,11950,52,105,43,54,761,619.0,610,463,60,122.0,269,1,400,356,165,0,0,638,30208,-8429,619,-5.59,44.681023,10.025005,60.76,174.4,0,0.0,-1,0.0,0.0,0,2.85,6.8057
408363,1564153153057,3,2.58,1.16,0.47,1.55,1.15,1.09,0.1,0.57,28,-1,42,1.09,11935,52,105,43,55,761,618.0,602,460,60,122.0,269,1,405,362,165,0,0,630,30208,11566,618,-5.59,,,,,,,,,,,,
408383,1564153153077,2,2.58,1.16,0.47,1.54,1.16,1.13,0.05,0.56,28,-0,43,1.13,11957,52,105,43,54,762,614.0,571,463,60,123.0,260,1,400,356,160,0,0,634,30208,-2830,614,-5.59,,,,,,,,,,,,
408403,1564153153107,2,2.55,1.16,0.47,1.55,1.15,1.16,0.02,0.66,28,2,42,1.16,11927,52,105,43,54,765,614.0,507,462,60,122.0,260,1,400,354,160,0,0,636,-16384,6208,617,-5.59,,,,,,,,,,,,
408423,1564153153127,2,2.54,1.16,0.47,1.55,1.15,1.23,-0.08,0.78,28,1,40,1.24,11889,52,105,43,54,768,618.0,559,464,60,122.0,260,1,400,353,160,0,0,646,15649,24,619,-5.59,,,,,,,,,,,,
408443,1564153153147,1,2.52,1.16,0.47,1.54,1.16,1.29,-0.26,0.79,26,2,39,1.32,11912,52,105,43,55,770,619.0,539,465,60,122.0,260,1,405,362,160,0,0,654,-25872,16599,619,-5.59,44.681015,10.02499,60.39,174.4,0,0.0,-1,0.0,0.0,0,2.85,6.8074
408463,1564153153167,2,2.5,1.15,0.46,1.54,1.15,1.35,-0.36,0.77,25,3,40,1.4,11965,52,105,43,54,772,619.0,586,462,60,122.0,260,1,400,356,160,0,0,651,-25872,244,619,-5.59,,,,,,,,,,,,
408483,1564153153187,1,2.5,1.15,0.47,1.55,1.15,1.36,-0.47,0.87,25,4,39,1.44,12011,52,105,43,55,774,618.0,613,463,60,122.0,268,1,405,357,166,0,0,622,15649,-10251,619,-5.59,,,,,,,,,,,,
408503,1564153153207,2,2.47,1.16,0.47,1.55,1.15,1.37,-0.5,0.84,25,6,37,1.46,11988,52,105,43,54,775,619.0,612,463,60,122.0,268,1,400,363,166,0,0,627,2048,16599,620,-5.59,,,,,,,,,,,,
408523,1564153153227,2,2.46,1.15,0.47,1.55,1.15,1.36,-0.61,0.83,24,6,35,1.49,11912,52,105,42,55,775,621.0,616,463,60,122.0,268,1,405,362,166,0,0,631,-28648,16599,623,-5.59,,,,,,,,,,,,
408543,1564153153247,2,2.45,1.14,0.47,1.55,1.15,1.4,-0.75,0.69,22,8,34,1.59,11852,52,105,42,55,774,621.0,613,463,60,122.0,268,1,405,362,166,0,0,657,-28648,11776,621,-5.59,44.681004,10.024974,60.86,174.4,0,0.0,-1,0.0,0.0,0,2.85,6.8091
408563,1564153153267,3,2.44,1.15,0.47,1.54,1.15,1.45,-0.87,0.58,20,9,33,1.69,11867,52,105,42,55,771,620.0,610,460,60,122.0,268,1,405,362,166,0,0,640,-28648,-5120,620,-5.59,,,,,,,,,,,,
408583,1564153153287,2,2.44,1.15,0.46,1.54,1.15,1.41,-0.98,0.52,19,10,30,1.72,11897,52,105,42,55,769,619.0,617,458,60,121.0,264,1,405,363,163,0,0,627,-16179,-2836,617,-5.59,,,,,,,,,,,,
408603,1564153153307,1,2.42,1.15,0.46,1.54,1.15,1.4,-1.08,0.41,18,9,27,1.77,11897,52,105,42,55,767,620.0,617,461,60,122.0,264,1,405,363,163,0,0,630,4956,-4876,620,-5.59,,,,,,,,,,,,
408623,1564153153327,-0,2.41,1.15,0.47,1.54,1.14,1.36,-1.17,0.35,17,9,26,1.79,11874,52,105,42,55,765,621.0,611,463,60,121.0,264,1,405,354,163,0,0,638,-7939,-2830,621,-5.59,,,,,,,,,,,,
408643,1564153153347,3,2.4,1.15,0.46,1.53,1.15,1.29,-1.13,0.24,16,10,26,1.72,11897,52,105,42,54,763,621.0,607,463,60,122.0,264,1,400,362,163,0,0,642,-768,-4876,621,-5.59,44.680996,10.024957,61.6,174.4,0,0.0,-1,0.0,0.0,0,2.86,6.8107
408663,1564153153367,3,2.4,1.14,0.47,1.53,1.14,1.17,-0.99,0.25,15,11,25,1.53,11844,52,105,42,55,762,620.0,627,463,60,123.0,264,1,405,362,163,0,0,635,-23055,244,620,-5.59,,,,,,,,,,,,
408683,1564153153387,2,2.39,1.12,0.46,1.52,1.15,1.05,-0.76,0.23,15,13,24,1.29,11919,52,105,42,55,761,621.0,634,460,60,122.0,262,1,405,362,163,0,0,635,17740,-10251,619,-5.59,,,,,,,,,,,,
408703,1564153153407,2,2.37,1.11,0.46,1.5,1.14,0.94,-0.48,0.25,15,16,22,1.05,11919,52,105,42,54,762,620.0,630,462,60,122.0,262,1,400,354,163,0,0,635,17740,771,620,-5.59,,,,,,,,,,,,
408723,1564153153427,3,2.35,1.07,0.45,1.49,1.12,0.83,-0.23,0.43,14,18,21,0.86,11935,52,105,42,54,763,618.0,629,457,60,121.0,262,1,400,354,163,0,0,636,28675,-10251,618,-5.59,,,,,,,,,,,,
408743,1564153153447,3,2.35,1.03,0.44,1.45,1.11,0.66,-0.01,0.57,13,20,21,0.66,11973,52,105,42,54,764,620.0,627,463,60,122.0,262,1,400,356,163,0,0,639,1010,-2580,620,-5.59,44.680984,10.024939,61.52,174.5,0,0.0,-1,0.0,0.0,0,2.86,6.8124
408763,1564153153467,4,2.34,0.98,0.42,1.41,1.09,0.55,0.19,0.69,13,22,20,0.58,12011,52,105,42,54,765,619.0,626,461,60,122.0,262,1,400,357,163,0,0,637,16529,-2830,619,-5.59,,,,,,,,,,,,
408783,1564153153487,3,2.33,0.94,0.4,1.39,1.06,0.48,0.37,0.82,13,22,18,0.61,11996,47,105,42,54,766,622.0,612,460,60,122.0,261,1,400,356,162,0,0,641,19304,-3584,620,-5.59,,,,,,,,,,,,
408803,1564153153506,1,2.34,0.88,0.39,1.33,1.03,0.43,0.52,0.93,12,21,18,0.68,11935,42,105,42,52,767,622.0,614,462,60,122.0,261,1,394,328,162,0,0,643,269,16599,622,-5.59,,,,,,,,,,,,
408823,1564153153526,3,2.33,0.81,0.37,1.25,1.01,0.41,0.5,1.03,11,20,16,0.65,11874,39,105,42,50,769,625.0,622,463,60,121.0,261,1,388,300,162,0,0,641,269,-6006,625,-5.59,,,,,,,,,,,,
408843,1564153153546,0,2.34,0.74,0.34,1.19,0.98,0.49,0.25,0.9,9,18,14,0.55,11638,36,105,42,48,770,623.0,631,457,60,122.0,261,1,382,268,162,0,0,641,269,6208,623,-5.59,44.680981,10.02492,61.87,174.5,0,0.0,-1,0.0,0.0,0,2.86,6.8141
408863,1564153153566,2,2.35,0.69,0.33,1.16,0.96,0.52,0.36,0.78,9,15,13,0.63,11384,34,105,42,48,771,619.0,628,466,60,122.0,261,1,382,266,162,0,0,636,269,-10251,622,-5.59,,,,,,,,,,,,
408883,1564153153586,4,2.36,0.68,0.32,1.15,0.96,0.64,0.19,0.8,8,12,12,0.66,11140,31,105,42,47,773,621.0,621,465,60,123.0,173,1,380,254,108,0,0,632,269,-2830,622,-5.59,,,,,,,,,,,,
408903,1564153153604,5,2.37,0.69,0.32,1.15,0.96,0.62,0.07,0.9,7,12,9,0.62,10997,29,105,42,46,776,620.0,610,466,60,122.0,173,1,372,251,108,0,0,629,269,966,620,-5.59,,,,,,,,,,,,
408923,1564153153624,6,2.39,0.71,0.32,1.18,0.96,0.69,0.25,0.76,8,9,9,0.73,10751,27,105,42,45,779,619.0,603,465,60,122.0,173,1,365,246,108,0,0,627,1010,-4876,619,-5.59,,,,,,,,,,,,
408943,1564153153644,10,2.4,0.73,0.33,1.22,0.97,0.63,0.42,0.48,9,9,10,0.76,10641,24,105,42,44,782,616.0,617,465,60,122.0,173,1,357,242,108,0,0,613,17740,19304,613,-5.59,44.680973,10.024901,62.13,174.5,0,0.0,-1,0.0,0.0,0,2.86,6.8157
408963,1564153153664,12,2.42,0.79,0.34,1.27,0.99,0.63,0.43,0.23,10,9,11,0.76,10671,23,105,42,43,793,607.0,599,463,60,123.0,173,1,350,239,108,0,0,585,23619,-7939,610,-5.59,,,,,,,,,,,,
408983,1564153153684,12,2.42,0.86,0.36,1.32,1.02,0.73,0.32,0.22,10,4,11,0.8,10677,23,105,42,42,813,604.0,610,470,60,122.0,157,1,342,236,95,0,0,584,-32504,4956,604,-5.59,,,,,,,,,,,,
409003,1564153153702,14,2.42,0.94,0.4,1.37,1.06,0.7,0.09,0.18,10,3,10,0.7,10738,23,105,42,41,833,598.0,598,468,60,122.0,157,1,335,234,95,0,0,554,2048,-22519,598,-5.59,,,,,,,,,,,,
409023,1564153153722,11,2.43,1.02,0.43,1.44,1.1,0.75,-0.12,0.26,10,8,8,0.76,10581,23,105,42,41,851,599.0,603,465,60,122.0,157,1,335,231,95,0,0,518,8488,-13043,599,-5.59,,,,,,,,,,,,
409043,1564153153742,11,2.43,1.07,0.44,1.46,1.11,0.83,-0.31,0.42,11,7,7,0.88,10457,23,105,42,40,874,594.0,610,463,60,123.0,157,1,327,226,95,0,0,505,-3210,-7939,594,-5.59,44.680965,10.024881,62.76,174.7,0,0.0,-1,0.0,0.0,0,2.86,6.8174
409063,1564153153762,8,2.43,1.09,0.44,1.47,1.13,0.86,-0.33,0.39,11,5,8,0.92,10217,23,105,42,40,905,593.0,604,467,60,121.0,157,1,327,226,95,0,0,486,774,-7939,594,-5.59,,,,,,,,,,,,
409083,1564153153782,10,2.43,1.11,0.45,1.49,1.13,0.91,-0.11,0.15,13,6,10,0.91,10129,23,105,42,40,933,591.0,585,470,60,122.0,146,1,327,226,87,0,0,510,-29984,243,591,-5.59,,,,,,,,,,,,
409103,1564153153804,14,2.43,1.11,0.44,1.48,1.12,1.02,-0.15,0.3,13,3,10,1.03,10086,22,105,42,39,946,583.0,575,460,60,122.0,146,1,320,223,87,0,0,542,-18032,4956,583,-5.59,,,,,,,,,,,,
409123,1564153153824,14,2.43,1.1,0.44,1.49,1.12,1.12,-0.33,0.46,12,2,8,1.17,10140,22,105,42,38,962,578.0,578,467,60,122.0,146,1,317,221,87,0,0,528,2216,-3210,578,-5.59,,,,,,,,,,,,
409143,1564153153844,13,2.43,1.09,0.44,1.48,1.13,1.12,-0.5,0.4,12,1,10,1.22,10313,22,105,42,37,985,573.0,568,467,60,121.0,146,1,314,221,87,0,0,494,2104,30208,571,-5.59,44.680958,10.024863,60.36,174.7,0,0.0,-1,0.0,0.0,0,2.86,6.819
409163,1564153153864,11,2.43,1.09,0.44,1.48,1.12,0.96,-0.43,0.15,13,-0,13,1.05,10206,22,105,42,37,1006,568.0,573,469,60,122.0,146,1,314,221,87,0,0,467,2524,-3210,568,-5.59,,,,,,,,,,,,
409183,1564153153884,13,2.43,1.09,0.43,1.48,1.12,0.99,-0.32,-0.0,13,1,14,1.04,10069,22,105,42,37,1015,567.0,578,470,60,123.0,147,1,314,220,84,0,0,453,-506,-3190,567,-5.59,,,,,,,,,,,,
409203,1564153153904,11,2.43,1.09,0.44,1.48,1.12,0.97,-0.43,0.07,13,-2,14,1.06,9920,22,105,42,37,1019,564.0,577,465,60,122.0,147,1,314,218,84,0,0,436,-2336,1760,562,-5.59,,,,,,,,,,,,
409223,1564153153924,9,2.43,1.09,0.43,1.48,1.13,0.86,-0.36,0.01,13,1,15,0.94,9786,22,105,42,36,1004,563.0,576,465,60,122.0,147,1,311,218,84,0,0,444,6274,-3190,563,-5.59,,,,,,,,,,,,
409243,1564153153944,10,2.44,1.1,0.44,1.48,1.13,0.97,-0.45,-0.06,13,1,15,1.07,9730,22,105,42,36,989,556.0,567,465,60,122.0,147,1,311,214,84,0,0,473,14504,-8186,556,-5.59,44.68095,10.024845,57.75,174.8,0,0.0,-1,0.0,0.0,0,2.87,6.8207
409263,1564153153964,10,2.43,1.1,0.45,1.49,1.13,0.95,-0.33,-0.03,14,-3,16,1.0,9770,22,105,42,35,964,551.0,497,462,60,122.0,147,1,308,213,84,0,0,528,6274,12552,550,-5.59,,,,,,,,,,,,
409283,1564153153984,10,2.42,1.1,0.44,1.49,1.12,1.04,-0.5,0.1,14,-1,14,1.15,9780,22,105,42,34,938,546.0,481,461,60,123.0,140,1,305,211,77,0,0,536,-9212,-28648,546,-5.59,,,,,,,,,,,,
409303,1564153153994,10,2.41,1.1,0.44,1.48,1.12,1.05,-0.41,0.14,13,-3,16,1.13,9755,22,105,42,33,904,542.0,478,464,60,123.0,140,1,302,209,77,0,0,518,-22519,-9072,542,-5.59,,,,,,,,,,,,
409323,1564153154014,10,2.39,1.1,0.44,1.48,1.11,1.07,-0.53,0.15,13,-2,15,1.2,9811,21,105,42,33,870,543.0,460,467,60,122.0,140,1,302,209,77,0,0,516,-22519,-28648,543,-5.59,,,,,,,,,,,,
409343,1564153154034,10,2.39,1.09,0.44,1.48,1.12,0.98,-0.41,0.11,13,-2,16,1.06,9811,22,105,42,32,861,537.0,468,460,60,122.0,140,1,300,208,77,0,0,518,16383,-32248,537,-5.59,44.680946,10.024826,55.78,174.8,0,0.0,-1,0.0,0.0,0,2.87,6.8224
409363,1564153154054,13,2.38,1.09,0.44,1.48,1.12,1.03,-0.47,0.05,12,-1,15,1.13,9796,22,105,42,32,852,531.0,512,466,60,123.0,140,1,300,208,77,0,0,507,-3482,-8186,531,-5.59,,,,,,,,,,,,
409383,1564153154074,10,2.37,1.08,0.44,1.48,1.13,0.93,-0.44,0.07,12,-1,16,1.03,9816,22,105,42,32,842,529.0,526,464,60,122.0,145,1,300,208,77,0,0,511,-3414,6274,529,-5.59,,,,,,,,,,,,
409403,1564153154104,14,2.36,1.07,0.44,1.48,1.11,1.03,-0.43,-0.0,11,-0,15,1.12,9852,21,105,42,32,831,522.0,543,467,60,122.0,145,1,300,208,77,0,0,516,-3856,2524,522,-5.59,,,,,,,,,,,,
409423,1564153154124,12,2.33,1.04,0.43,1.45,1.11,0.96,-0.41,0.02,11,-2,15,1.05,9832,22,105,42,32,826,519.0,557,470,60,122.0,145,1,300,208,77,0,0,510,-28648,2524,519,-5.59,,,,,,,,,,,,
409443,1564153154144,13,2.32,0.97,0.41,1.42,1.08,1.04,-0.3,0.01,9,-1,14,1.08,9760,22,104,42,32,823,514.0,571,465,60,122.0,145,1,300,206,77,0,0,514,-28648,6274,517,-5.59,44.680943,10.024809,54.25,174.8,0,0.0,-1,0.0,0.0,0,2.87,6.824
409463,1564153154164,13,2.3,0.86,0.38,1.32,1.02,1.12,-0.28,0.09,8,-0,13,1.16,9745,22,105,42,32,825,510.0,573,468,60,123.0,145,1,300,207,77,0,0,512,-32248,15679,510,-5.59,,,,,,,,,,,,
409483,1564153154184,13,2.29,0.69,0.32,1.18,0.95,1.18,-0.2,0.12,7,-2,13,1.19,9755,21,105,42,32,827,504.0,575,461,60,122.0,153,1,300,208,77,0,0,513,10408,26178,504,-5.59,,,,,,,,,,,,
409503,1564153154204,12,2.28,0.51,0.25,1.05,0.85,1.11,-0.15,0.13,6,0,10,1.12,9709,21,105,42,32,832,497.0,575,461,60,122.0,153,1,300,207,77,0,0,511,3,16383,497,-5.59,,,,,,,,,,,,
409523,1564153154224,12,2.26,0.36,0.18,0.93,0.75,1.15,-0.18,0.14,4,-1,9,1.17,9640,21,105,42,31,837,499.0,576,467,60,123.0,153,1,295,205,77,0,0,510,-22519,-3856,493,-5.59,,,,,,,,,,,,
409543,1564153154244,10,2.24,0.24,0.12,0.85,0.68,1.06,0.02,0.1,3,0,9,1.06,9615,21,105,42,31,841,497.0,575,467,60,122.0,153,1,295,203,77,0,0,503,-9216,-28648,485,-5.59,44.680935,10.024792,52.27,174.8,0,0.0,-1,0.0,0.0,0,2.87,6.8257
409563,1564153154264,13,2.24,0.16,0.08,0.78,0.62,1.1,-0.05,0.12,2,-1,6,1.1,9620,21,105,42,31,844,496.0,555,460,60,123.0,153,1,295,201,77,0,0,508,3,10408,486,-5.59,,,,,,,,,,,,
409583,1564153154284,13,2.22,0.14,0.13,0.76,0.6,1.19,0.1,0.18,-0,-2,5,1.2,9590,21,105,42,31,845,495.0,555,472,60,123.0,153,1,295,201,74,0,0,504,-6528,505,478,-5.59,,,,,,,,,,,,
409603,1564153154304,11,2.22,0.12,0.12,0.74,0.58,1.13,0.24,0.12,-1,-2,3,1.16,9556,21,105,42,32,843,489.0,563,465,60,122.0,153,1,300,201,74,0,0,505,1,-6656,471,-5.59,,,,,,,,,,,,
409623,1564153154324,12,2.19,0.12,0.1,0.73,0.57,1.09,0.15,0.08,-3,-0,1,1.1,9498,21,105,42,31,842,486.0,575,467,60,123.0,153,1,295,203,74,0,0,501,-1562,16648,468,-5.59,,,,,,,,,,,,
409643,1564153154344,12,2.18,0.12,0.1,0.74,0.56,1.1,0.31,0.13,-4,-2,-0,1.14,9464,21,105,42,32,841,486.0,587,461,60,123.0,153,1,300,201,74,0,0,494,-1562,16648,463,-5.59,44.680931,10.024775,50.2,174.8,0,0.0,-1,0.0,0.0,0,2.87,6.8274
409663,1564153154364,9,2.17,0.12,0.1,0.73,0.56,1.07,0.43,0.05,-5,-2,-2,1.15,9441,20,105,42,32,841,485.0,570,465,60,123.0,153,1,300,200,74,0,0,496,-10483,3576,460,-5.59,,,,,,,,,,,,
409683,1564153154384,11,2.16,0.18,0.17,0.74,0.59,1.05,0.31,0.15,-6,-1,-4,1.1,9403,21,104,42,32,842,484.0,563,468,60,123.0,158,1,300,198,72,0,0,495,-10483,8488,454,-5.59,,,,,,,,,,,,
409703,1564153154404,9,2.15,0.2,0.17,0.76,0.59,1.06,0.19,0.25,-8,-2,-7,1.08,9346,21,104,42,32,844,484.0,573,462,60,121.0,158,1,300,196,72,0,0,497,-10483,16648,453,-5.59,,,,,,,,,,,,
409723,1564153154424,10,2.14,0.2,0.17,0.78,0.6,1.16,0.16,0.37,-10,-2,-10,1.17,9209,21,104,42,32,844,482.0,560,464,60,123.0,158,1,300,194,72,0,0,497,8488,1,447,-5.59,,,,,,,,,,,,
409743,1564153154444,11,2.13,0.21,0.17,0.77,0.6,1.24,0.22,0.43,-11,-2,-12,1.26,9062,20,104,42,32,845,479.0,547,461,60,122.0,158,1,300,191,72,0,0,496,10305,10305,441,-5.59,44.680927,10.024758,48.59,174.8,0,0.0,-1,0.0,0.0,0,2.87,6.8291
409763,1564153154464,9,2.13,0.21,0.17,0.79,0.6,1.32,0.22,0.52,-12,-3,-13,1.34,8958,16,104,42,32,844,477.0,530,466,60,123.0,158,1,300,190,72,0,0,489,2212,-17956,444,-5.59,,,,,,,,,,,,
409783,1564153154484,10,2.12,0.25,0.21,0.8,0.6,1.39,0.19,0.56,-14,-3,-16,1.41,8882,20,104,43,33,843,477.0,537,457,60,122.0,147,1,302,193,65,0,0,490,16648,30272,442,-5.59,,,,,,,,,,,,
409803,1564153154503,9,2.12,0.25,0.21,0.8,0.61,1.46,0.05,0.53,-15,-2,-18,1.46,8827,21,104,43,34,842,475.0,535,462,60,123.0,147,1,305,197,65,0,0,489,-9203,17628,440,-5.59,,,,,,,,,,,,
409823,1564153154523,9,2.11,0.26,0.21,0.82,0.61,1.32,-0.0,0.42,-16,-1,-19,1.32,8802,21,105,43,34,840,471.0,546,462,60,122.0,147,1,305,199,65,0,0,484,32033,-23623,435,-5.59,,,,,,,,,,,,
409843,1564153154543,12,2.12,0.26,0.21,0.81,0.62,1.12,0.06,0.27,-16,2,-19,1.12,8773,21,105,43,34,839,470.0,541,467,60,123.0,147,1,305,199,65,0,0,483,8488,-3267,434,-5.59,44.680923,10.024742,47.26,174.9,0,0.0,-1,0.0,0.0,0,2.87,6.8307
409863,1564153154563,10,2.12,0.28,0.22,0.83,0.62,1.0,0.25,0.14,-16,0,-20,1.03,8720,21,105,43,34,844,469.0,541,462,60,123.0,147,1,305,199,65,0,0,480,10432,-18341,429,-5.59,,,,,,,,,,,,
409883,1564153154583,9,2.12,0.29,0.24,0.83,0.63,1.06,0.43,0.22,-17,-1,-21,1.15,8692,21,105,43,35,856,466.0,531,466,60,123.0,156,1,308,203,67,0,0,480,-3210,10305,424,-5.59,,,,,,,,,,,,
409903,1564153154603,8,2.12,0.3,0.24,0.84,0.64,1.16,0.38,0.37,-18,-2,-23,1.22,8656,21,105,43,35,868,467.0,531,462,60,122.0,156,1,308,203,67,0,0,479,30272,-8985,423,-5.59,,,,,,,,,,,,
409923,1564153154623,5,2.13,0.31,0.25,0.85,0.65,1.09,0.28,0.35,-19,0,-25,1.13,8616,21,104,43,35,881,465.0,522,448,60,123.0,156,1,308,200,67,0,0,476,30272,8488,428,-5.59,,,,,,,,,,,,
409943,1564153154643,8,2.13,0.31,0.26,0.85,0.65,0.93,0.41,0.17,-18,-0,-24,1.01,8624,21,104,43,36,895,466.0,519,456,60,123.0,156,1,311,200,67,0,0,476,12552,16648,423,-5.59,44.68092,10.024728,45.98,174.9,0,0.0,-1,0.0,0.0,0,2.88,6.8324
409963,1564153154663,5,2.15,0.33,0.26,0.86,0.65,1.02,0.55,0.28,-19,-1,-24,1.16,8589,21,104,43,36,913,461.0,516,460,60,123.0,156,1,311,204,67,0,0,472,2211,21432,420,-5.59,,,,,,,,,,,,
409983,1564153154683,3,2.17,0.35,0.27,0.87,0.66,1.07,0.45,0.4,-19,-0,-25,1.16,8553,21,104,43,36,928,458.0,512,458,60,122.0,154,1,311,204,66,0,0,473,17628,10305,426,-5.59,,,,,,,,,,,,
410003,1564153154703,4,2.19,0.35,0.27,0.89,0.67,0.94,0.41,0.34,-19,-0,-26,1.02,8530,21,104,43,36,932,456.0,513,455,60,122.0,154,1,311,203,66,0,0,468,14488,-18341,427,-5.59,,,,,,,,,,,,
410023,1564153154723,3,2.22,0.38,0.28,0.9,0.68,0.99,0.54,0.35,-17,0,-26,1.12,8472,21,105,43,36,933,456.0,520,460,60,124.0,154,1,310,205,66,0,0,463,14488,21432,430,-5.59,,,,,,,,,,,,
410043,1564153154743,-0,2.26,0.39,0.29,0.91,0.69,0.95,0.5,0.45,-16,1,-26,1.08,8461,21,104,43,37,925,457.0,527,432,60,123.0,154,1,313,206,66,0,0,464,-9160,26704,431,-5.59,44.680912,10.024714,44.61,174.9,0,0.0,-1,0.0,0.0,0,2.88,6.8341
410063,1564153154763,2,2.28,0.4,0.3,0.92,0.7,0.88,0.46,0.38,-15,-0,-26,0.99,8488,21,105,43,37,915,454.0,526,436,60,123.0,154,1,313,208,66,0,0,463,2524,10305,436,-5.59,,,,,,,,,,,,
410083,1564153154783,1,2.32,0.42,0.31,0.94,0.72,0.96,0.51,0.4,-14,-1,-24,1.09,8480,21,104,43,37,902,450.0,528,458,60,123.0,150,1,313,206,66,0,0,460,-3267,2131,437,-5.59,,,,,,,,,,,,
410103,1564153154803,1,2.36,0.45,0.32,0.96,0.74,0.92,0.48,0.41,-12,2,-24,1.04,8495,21,104,43,37,889,448.0,522,458,60,123.0,150,1,313,206,66,0,0,463,8488,3571,438,-5.59,,,,,,,,,,,,
410123,1564153154823,3,2.4,0.5,0.34,0.99,0.76,0.81,0.42,0.37,-10,3,-22,0.91,8472,21,105,43,37,880,445.0,515,460,60,123.0,150,1,313,208,66,0,0,456,2131,3571,440,-5.59,,,,,,,,,,,,
410143,1564153154843,1,2.45,0.62,0.4,1.07,0.84,0.92,0.38,0.45,-7,2,-20,1.0,8503,21,105,43,37,871,442.0,509,453,60,124.0,150,1,314,209,66,0,0,450,-28332,-6387,441,-5.59,44.680904,10.024701,44.59,174.9,0,0.0,-1,0.0,0.0,0,2.88,6.8357
410163,1564153154863,-1,2.51,0.82,0.5,1.23,0.97,0.9,0.26,0.53,-4,2,-19,0.93,8514,21,105,43,37,876,443.0,508,456,60,123.0,150,1,314,209,66,0,0,451,20625,-9160,444,-5.59,,,,,,,,,,,,
410183,1564153154883,3,2.55,1.09,0.6,1.4,1.11,0.77,0.11,0.47,-0,1,-16,0.78,8530,21,105,43,37,880,446.0,510,461,60,124.0,150,1,313,209,67,0,0,448,243,-9160,446,-5.59,,,,,,,,,,,,
410203,1564153154905,2,2.6,1.25,0.65,1.5,1.18,0.9,0.06,0.52,2,0,-13,0.9,8503,21,105,43,37,887,447.0,506,461,60,123.0,150,1,314,209,67,0,0,442,-3322,6193,450,-5.59,,,,,,,,,,,,
410223,1564153154925,-0,2.65,1.31,0.67,1.54,1.2,0.85,-0.08,0.51,4,1,-10,0.85,8457,21,104,43,37,895,450.0,506,468,60,123.0,150,1,313,206,67,0,0,442,31796,6193,450,-5.59,,,,,,,,,,,,
410243,1564153154945,1,2.72,1.31,0.68,1.56,1.2,0.9,-0.11,0.51,6,-1,-5,0.91,8393,21,104,43,37,899,450.0,501,460,60,123.0,150,1,311,206,67,0,0,442,-4082,12552,450,-5.59,44.680901,10.024688,43.97,175.0,0,0.0,-1,0.0,0.0,0,2.88,6.8374
410263,1564153154965,1,2.78,1.31,0.67,1.56,1.19,0.93,-0.21,0.53,9,-2,-2,0.96,8374,21,104,43,37,902,445.0,502,467,60,123.0,150,1,311,209,67,0,0,442,-21944,2524,445,-5.59,,,,,,,,,,,,
410283,1564153154985,3,2.84,1.31,0.67,1.57,1.19,0.71,-0.31,0.45,11,-2,0,0.78,8389,21,104,43,38,909,444.0,513,458,60,123.0,148,1,314,209,66,0,0,445,-21944,-8985,444,-5.59,,,,,,,,,,,,
410303,1564153154993,2,2.9,1.3,0.68,1.55,1.19,0.84,-0.42,0.44,13,-1,4,0.94,8374,21,105,43,37,915,444.0,502,464,60,123.0,148,1,311,211,66,0,0,445,13040,2211,443,-5.59,,,,,,,,,,,,
410323,1564153155013,0,2.93,1.3,0.67,1.55,1.18,0.77,-0.49,0.42,15,0,9,0.92,8393,21,105,43,38,920,441.0,514,466,60,122.0,148,1,314,211,66,0,0,446,9517,-23623,441,-5.59,,,,,,,,,,,,
410343,1564153155033,2,2.96,1.29,0.67,1.55,1.18,0.85,-0.56,0.5,17,-1,10,1.02,8370,21,104,43,38,925,440.0,505,462,60,123.0,148,1,314,206,66,0,0,440,-8151,-26615,440,-5.59,44.680893,10.024675,44.41,175.0,0,0.0,-1,0.0,0.0,0,2.88,6.839
410363,1564153155053,1,0.33,1.27,0.66,1.53,1.16,0.91,-0.65,0.59,18,-2,9,1.11,8385,21,104,43,38,930,436.0,510,465,60,123.0,148,1,314,209,66,0,0,438,10541,14488,436,-5.59,,,,,,,,,,,,
410383,1564153155073,2,0.36,1.27,0.66,1.53,1.16,0.77,-0.76,0.46,20,-3,12,1.08,8404,21,105,43,38,936,432.0,510,463,60,122.0,154,1,315,212,67,0,0,441,-32702,17628,432,-5.59,,,,,,,,,,,,
410403,1564153155105,0,0.38,1.26,0.65,1.53,1.17,0.89,-0.81,0.38,22,-2,18,1.2,8445,21,105,43,37,939,429.0,498,463,60,123.0,154,1,312,208,67,0,0,448,505,2211,429,-5.59,,,,,,,,,,,,
410423,1564153155125,1,0.39,1.26,0.66,1.53,1.17,0.79,-0.82,0.46,23,-1,21,1.14,8465,21,104,43,38,941,425.0,497,463,60,122.0,154,1,316,210,67,0,0,450,-31744,-6387,425,-5.59,,,,,,,,,,,,
410443,1564153155145,4,0.39,1.26,0.66,1.54,1.17,0.74,-0.87,0.43,25,-2,22,1.14,8442,21,104,43,37,936,422.0,495,462,60,123.0,154,1,312,206,67,0,0,455,19125,10305,422,-5.59,44.680889,10.024663,43.83,175.0,0,0.0,-1,0.0,0.0,0,2.88,6.8407
410463,1564153155165,0,0.39,1.26,0.66,1.54,1.16,0.86,-0.88,0.47,27,-2,24,1.24,8442,21,105,43,37,929,420.0,488,463,60,124.0,154,1,312,208,67,0,0,450,19125,14488,420,-5.59,,,,,,,,,,,,
410483,1564153155185,-1,0.39,1.26,0.66,1.54,1.16,0.82,-0.86,0.4,29,0,30,1.19,8415,21,105,43,37,922,419.0,499,463,60,122.0,157,1,312,208,66,0,0,450,-6656,10305,422,-5.59,,,,,,,,,,,,
410503,1564153155205,2,0.38,1.26,0.66,1.54,1.17,0.94,-0.86,0.43,29,-4,31,1.27,8426,21,105,43,38,912,422.0,373,467,60,123.0,157,1,315,212,66,0,0,453,8200,2131,422,-5.59,,,,,,,,,,,,
410523,1564153155225,-0,0.38,1.26,0.66,1.53,1.16,0.91,-0.93,0.41,30,-3,31,1.31,8393,21,105,43,38,903,419.0,307,464,60,123.0,157,1,314,211,66,0,0,456,-6656,23400,419,-5.59,,,,,,,,,,,,
410543,1564153155245,2,0.38,1.26,0.65,1.54,1.17,0.86,-1.01,0.3,31,-3,36,1.32,8344,21,105,43,37,893,417.0,292,467,60,123.0,157,1,310,211,66,0,0,444,-6656,-28332,417,-5.59,44.680885,10.024649,43.0,175.1,0,0.0,-1,0.0,0.0,0,2.88,6.8424
410563,1564153155265,1,0.38,1.26,0.66,1.54,1.16,0.93,-1.03,0.42,33,-2,37,1.38,8281,21,105,43,38,887,414.0,278,462,60,123.0,157,1,312,210,66,0,0,440,0,2131,414,-5.59,,,,,,,,,,,,
410583,1564153155285,3,0.39,1.25,0.66,1.54,1.16,0.82,-1.01,0.45,34,-2,38,1.3,8234,21,105,43,38,885,414.0,268,467,60,123.0,157,1,311,210,65,0,0,445,0,-18341,413,-5.59,,,,,,,,,,,,
410603,1564153155305,-0,0.4,1.26,0.65,1.54,1.15,0.91,-1.01,0.41,34,-2,40,1.36,8241,21,105,43,38,885,411.0,273,466,60,124.0,157,1,311,215,65,0,0,443,-6405,20625,411,-5.59,,,,,,,,,,,,
410623,1564153155325,3,0.4,1.25,0.66,1.53,1.16,0.89,-1.01,0.37,34,-4,42,1.34,8184,21,105,43,39,885,406.0,269,463,60,123.0,157,1,313,208,65,0,0,441,2790,243,406,-5.59,,,,,,,,,,,,
410643,1564153155345,-1,0.38,1.26,0.66,1.54,1.15,0.85,-0.96,0.39,35,-3,42,1.28,8120,21,105,43,39,887,406.0,268,466,60,124.0,157,1,312,214,65,0,0,434,-29302,-7939,406,-5.59,44.680882,10.024635,41.73,175.1,0,0.0,-1,0.0,0.0,0,2.88,6.844
410663,1564153155365,2,0.39,1.26,0.65,1.55,1.16,0.97,-1.04,0.4,35,-5,42,1.42,8127,21,105,43,39,888,406.0,267,465,60,124.0,157,1,312,214,65,0,0,432,-14707,-768,406,-5.59,,,,,,,,,,,,
410683,1564153155385,3,0.39,1.25,0.65,1.55,1.16,0.87,-1.07,0.24,36,-5,42,1.37,8054,21,105,43,40,891,406.0,261,467,60,122.0,160,1,318,215,65,0,0,428,-6640,-3856,406,-5.59,,,,,,,,,,,,
410703,1564153155405,0,0.39,1.25,0.66,1.54,1.15,0.92,-1.03,0.16,36,-4,45,1.38,7982,21,105,43,40,893,403.0,270,465,60,124.0,160,1,317,214,65,0,0,435,-29302,-3322,403,-5.59,,,,,,,,,,,,
410723,1564153155425,1,0.42,1.24,0.65,1.54,1.16,1.02,-1.06,0.15,35,-3,48,1.47,7992,21,105,43,41,895,400.0,267,467,60,123.0,160,1,325,214,65,0,0,430,3302,-4082,400,-5.59,,,,,,,,,,,,
410743,1564153155445,2,0.43,1.25,0.65,1.53,1.15,0.96,-1.03,0.15,34,-5,47,1.41,7965,21,105,43,41,896,397.0,267,465,60,123.0,160,1,325,216,65,0,0,421,3183,-3314,396,-5.59,44.680878,10.024622,40.79,175.1,0,0.0,-1,0.0,0.0,0,2.89,6.8457
410763,1564153155465,3,0.44,1.25,0.65,1.54,1.16,0.93,-1.07,0.1,35,-5,47,1.42,7911,21,105,43,41,897,394.0,270,465,60,123.0,160,1,325,216,65,0,0,418,-30454,-3856,394,-5.59,,,,,,,,,,,,
410783,1564153155485,-1,0.45,1.25,0.66,1.54,1.16,1.04,-1.08,0.13,36,-3,49,1.5,7914,21,105,43,41,897,393.0,267,462,60,124.0,162,1,325,216,64,0,0,419,-1246,3826,393,-5.59,,,,,,,,,,,,
410803,1564153155504,0,0.45,1.25,0.66,1.53,1.16,1.09,-1.08,0.18,36,-2,49,1.54,7838,21,105,43,42,898,393.0,272,467,60,123.0,162,1,332,216,64,0,0,426,8841,-21792,392,-5.59,,,,,,,,,,,,
410823,1564153155524,1,0.45,1.25,0.66,1.54,1.15,1.06,-1.11,0.2,36,-3,51,1.53,7783,21,105,43,42,897,390.0,272,465,60,124.0,162,1,332,219,64,0,0,426,6870,-26615,390,-5.59,,,,,,,,,,,,
410843,1564153155544,3,0.44,1.25,0.66,1.53,1.16,0.95,-1.07,0.15,37,-0,51,1.43,7796,21,105,43,42,895,390.0,285,465,60,124.0,162,1,332,219,64,0,0,420,6870,-8165,390,-5.59,44.680878,10.024608,39.96,175.1,0,0.0,-1,0.0,0.0,0,2.89,6.8474
410863,1564153155564,-1,0.45,1.24,0.65,1.54,1.16,0.95,-1.05,0.22,38,-1,49,1.41,7773,21,105,43,43,891,389.0,285,466,60,124.0,162,1,340,221,64,0,0,412,6668,-26615,387,-5.59,,,,,,,,,,,,
410883,1564153155584,-0,0.45,1.24,0.65,1.53,1.15,1.02,-1.1,0.27,38,-2,50,1.5,7793,21,105,43,43,886,386.0,281,462,60,124.0,168,1,340,219,65,0,0,411,-122,-21792,387,-5.59,,,,,,,,,,,,
410903,1564153155604,2,0.45,1.25,0.65,1.53,1.16,1.06,-1.19,0.33,38,-2,53,1.6,7747,21,105,43,43,883,386.0,282,463,60,123.0,168,1,340,219,65,0,0,422,-31222,9517,385,-5.59,,,,,,,,,,,,
410923,1564153155624,0,0.46,1.24,0.65,1.53,1.16,0.99,-1.15,0.33,37,-1,52,1.52,7731,21,105,43,43,880,384.0,280,463,60,123.0,168,1,340,221,65,0,0,420,4838,-9166,383,-5.59,,,,,,,,,,,,
410943,1564153155644,2,0.46,1.25,0.65,1.53,1.15,0.94,-1.14,0.27,37,-3,50,1.48,7770,21,105,43,43,878,381.0,292,466,60,123.0,168,1,340,221,65,0,0,419,4838,2524,382,-5.59,44.680878,10.024593,38.99,175.1,0,0.0,-1,0.0,0.0,0,2.89,6.849
410963,1564153155664,2,0.46,1.24,0.65,1.54,1.15,0.88,-1.12,0.18,38,-1,52,1.42,7725,21,105,43,43,877,379.0,295,465,60,123.0,168,1,340,221,65,0,0,397,-6528,10392,379,-5.59,,,,,,,,,,,,
410983,1564153155684,3,0.45,1.24,0.65,1.54,1.15,0.85,-1.02,0.14,39,1,54,1.33,7678,21,105,43,43,879,379.0,301,462,60,125.0,168,1,340,222,64,0,0,414,-32559,10392,379,-5.59,,,,,,,,,,,,
411003,1564153155704,3,0.45,1.25,0.65,1.54,1.15,0.83,-1.0,0.2,40,0,51,1.3,7572,21,105,43,44,881,381.0,297,460,60,124.0,168,1,347,222,64,0,0,432,-32559,10392,381,-5.59,,,,,,,,,,,,
411023,1564153155724,-1,0.45,1.24,0.65,1.53,1.15,0.83,-1.1,0.19,39,1,50,1.37,7575,21,105,43,44,887,380.0,295,464,60,124.0,168,1,347,222,64,0,0,405,175,2524,380,-5.59,,,,,,,,,,,,
411043,1564153155744,0,0.45,1.24,0.65,1.54,1.15,0.89,-1.05,0.2,39,-1,53,1.38,7545,21,105,43,44,894,376.0,300,464,60,124.0,168,1,347,222,64,0,0,394,-22016,-8151,376,-5.59,44.680878,10.024581,37.95,175.1,0,0.0,-1,0.0,0.0,0,2.89,6.8507
411063,1564153155764,-1,0.45,1.24,0.65,1.53,1.16,0.95,-1.07,0.26,40,-1,52,1.43,7548,21,105,43,44,899,375.0,294,461,60,124.0,168,1,347,222,64,0,0,405,170,6512,375,-5.59,,,,,,,,,,,,
411083,1564153155784,0,0.45,1.24,0.65,1.54,1.16,0.99,-1.1,0.26,40,0,52,1.48,7476,21,105,43,44,904,376.0,291,468,60,124.0,167,1,347,222,63,0,0,413,-23296,10541,376,-5.59,,,,,,,,,,,,
411103,1564153155804,1,0.45,1.24,0.64,1.53,1.16,0.97,-1.11,0.25,40,0,53,1.48,7476,21,105,43,45,912,375.0,292,465,60,124.0,167,1,355,224,63,0,0,413,-23296,17144,375,-5.59,,,,,,,,,,,,
411123,1564153155824,-1,0.45,1.24,0.66,1.53,1.16,1.0,-1.16,0.24,40,0,55,1.54,7479,21,105,44,45,920,372.0,292,466,60,124.0,167,1,355,222,63,0,0,408,160,1,372,-5.59,,,,,,,,,,,,
411143,1564153155844,0,0.45,1.24,0.65,1.54,1.16,1.08,-1.16,0.23,41,2,56,1.58,7527,21,105,43,45,925,372.0,294,466,60,124.0,167,1,355,224,63,0,0,401,-24576,-6656,372,-5.59,44.680882,10.024569,37.32,175.1,0,0.0,-1,0.0,0.0,0,2.89,6.8524
411163,1564153155864,0,0.45,1.24,0.65,1.53,1.15,1.05,-1.14,0.25,42,2,54,1.55,7497,22,105,44,45,928,372.0,291,467,60,125.0,167,1,355,222,63,0,0,397,155,-3968,372,-5.59,,,,,,,,,,,,
411183,1564153155884,-0,0.45,1.24,0.65,1.53,1.15,1.01,-1.1,0.37,43,2,53,1.49,7497,22,105,44,45,940,372.0,288,463,60,124.0,169,1,355,222,63,0,0,396,155,6384,372,-5.59,,,,,,,,,,,,
411203,1564153155904,3,0.44,1.24,0.65,1.54,1.15,0.99,-1.06,0.43,43,1,55,1.45,7416,29,105,43,46,953,372.0,293,463,60,124.0,169,1,362,226,63,0,0,407,-27136,17144,372,-5.59,,,,,,,,,,,,
411223,1564153155924,3,0.44,1.24,0.65,1.53,1.14,0.92,-0.93,0.51,43,2,54,1.31,7428,30,105,44,49,964,370.0,293,463,60,124.0,169,1,375,231,63,0,0,403,145,505,370,-5.59,,,,,,,,,,,,
411243,1564153155944,3,0.43,1.24,0.65,1.54,1.15,0.86,-0.88,0.55,43,2,53,1.23,7405,35,105,43,51,974,369.0,296,465,60,124.0,169,1,381,251,63,0,0,388,140,-6524,369,-5.59,44.680885,10.024555,36.56,175.0,0,0.0,-1,0.0,0.0,0,2.89,6.8541
411263,1564153155964,3,0.42,1.24,0.65,1.54,1.15,0.79,-0.85,0.5,43,1,54,1.16,7413,36,105,43,54,985,367.0,297,463,60,124.0,169,1,390,268,63,0,0,400,-29696,505,369,-5.59,,,,,,,,,,,,
411283,1564153155984,2,0.4,1.23,0.64,1.54,1.15,0.78,-0.81,0.41,44,1,55,1.12,7376,36,105,43,57,996,366.0,304,463,60,124.0,213,1,408,285,78,0,0,419,-29696,-31744,368,-5.59,,,,,,,,,,,,
411303,1564153155994,2,0.39,1.24,0.65,1.54,1.15,0.71,-0.79,0.36,44,2,54,1.06,7402,36,105,43,59,1000,368.0,295,465,60,123.0,213,1,421,297,78,0,0,416,135,-6524,368,-5.59,,,,,,,,,,,,
411323,1564153156014,1,0.37,1.23,0.65,1.53,1.16,0.72,-0.82,0.3,44,-1,51,1.09,7461,39,105,44,61,1000,368.0,310,463,60,122.0,213,1,435,306,78,0,0,414,-28416,-1562,368,-5.59,,,,,,,,,,,,
411343,1564153156034,3,0.34,1.24,0.65,1.55,1.15,0.69,-0.9,0.28,45,-1,53,1.14,7603,39,105,44,62,1006,368.0,296,466,60,123.0,213,1,438,315,78,0,0,412,-29696,-31744,368,-5.59,44.680885,10.024544,35.99,175.0,0,0.0,-1,0.0,0.0,0,2.89,6.8557
411363,1564153156054,4,2.94,1.27,0.66,1.56,1.18,0.66,-0.89,0.31,48,2,54,1.1,7693,40,105,44,63,1013,379.0,322,466,60,123.0,213,1,440,323,78,0,0,423,145,240,379,-5.59,,,,,,,,,,,,
411383,1564153156074,-1,2.88,1.26,0.66,1.56,1.17,0.66,-0.87,0.46,49,4,54,1.09,7805,40,105,44,64,1019,381.0,314,468,60,124.0,255,1,442,326,98,0,0,436,145,-1818,381,-5.59,,,,,,,,,,,,
411403,1564153156104,2,2.82,1.26,0.66,1.56,1.17,0.7,-0.94,0.52,49,6,57,1.18,7871,40,105,44,64,1025,382.0,323,463,60,125.0,255,1,445,335,98,0,0,441,-30976,-1818,382,-5.59,,,,,,,,,,,,
411423,1564153156124,2,2.75,1.25,0.66,1.54,1.17,0.64,-0.94,0.45,49,7,60,1.14,8002,40,105,44,64,1039,384.0,320,466,60,123.0,255,1,450,338,98,0,0,466,-28416,-3968,384,-5.59,,,,,,,,,,,,
411443,1564153156144,-0,2.7,1.24,0.66,1.54,1.16,0.66,-0.85,0.5,48,7,60,1.08,8127,40,105,43,63,1058,385.0,324,461,60,123.0,255,1,449,338,98,0,0,462,140,-32702,385,-5.59,44.680893,10.024533,35.4,174.9,0,0.0,-1,0.0,0.0,0,2.89,6.8574
411463,1564153156164,1,2.65,1.24,0.65,1.54,1.17,0.59,-0.87,0.49,48,8,62,1.05,8166,40,105,44,63,1074,383.0,316,461,60,124.0,255,1,448,341,98,0,0,443,160,10392,383,-5.59,,,,,,,,,,,,
411483,1564153156184,-0,2.61,1.24,0.65,1.53,1.16,0.59,-0.82,0.57,47,9,62,1.01,8169,41,105,44,61,1087,386.0,320,463,60,124.0,267,1,449,330,103,0,0,451,160,18584,386,-5.59,,,,,,,,,,,,
411503,1564153156206,1,2.6,1.24,0.65,1.54,1.16,0.56,-0.86,0.64,45,7,62,1.03,8127,41,105,44,61,1097,388.0,319,463,60,123.0,267,1,449,320,103,0,0,430,170,9517,385,-5.59,,,,,,,,,,,,
411523,1564153156226,3,2.59,1.24,0.65,1.54,1.17,0.43,-0.9,0.62,45,7,60,1.0,7941,41,105,44,62,1103,386.0,313,465,60,121.0,267,1,448,320,103,0,0,404,13,1779,386,-5.59,,,,,,,,,,,,
411543,1564153156246,3,2.58,1.25,0.65,1.54,1.17,0.46,-0.84,0.63,45,5,57,0.96,7668,41,105,44,63,1106,389.0,322,461,60,125.0,267,1,438,323,103,0,0,370,-31206,13040,389,-5.59,44.680901,10.024524,34.8,174.9,0,0.0,-1,0.0,0.0,0,2.89,6.859
411563,1564153156266,1,2.57,1.25,0.65,1.54,1.16,0.43,-0.86,0.55,44,5,53,0.96,7376,41,105,44,64,1100,390.0,323,461,60,124.0,267,1,425,330,103,0,0,457,2811,13040,391,-5.59,,,,,,,,,,,,
411583,1564153156286,1,2.56,1.25,0.65,1.54,1.17,0.49,-0.95,0.38,42,0,50,1.07,7239,41,105,44,66,1095,393.0,337,463,60,123.0,228,1,413,336,90,0,0,468,-1246,11560,393,-5.59,,,,,,,,,,,,
411603,1564153156304,0,2.55,1.24,0.66,1.54,1.17,0.57,-1.0,0.36,39,-2,48,1.15,7422,41,105,44,68,1092,388.0,340,461,60,122.0,228,1,416,349,90,0,0,406,3183,11545,388,-5.59,,,,,,,,,,,,
411623,1564153156324,2,2.53,1.24,0.66,1.54,1.17,0.58,-1.0,0.3,37,-2,47,1.16,7578,41,105,44,68,1091,388.0,353,462,60,122.0,228,1,425,356,90,0,0,368,-29978,6512,388,-5.59,,,,,,,,,,,,
411643,1564153156344,3,2.5,1.24,0.66,1.53,1.17,0.48,-0.98,0.28,36,-1,45,1.09,7706,41,105,44,68,1094,390.0,363,464,60,123.0,228,1,432,362,90,0,0,405,-29978,10541,390,-5.59,44.680904,10.024516,36.31,174.8,0,0.0,-1,0.0,0.0,0,2.9,6.8607
411663,1564153156364,-1,2.48,1.24,0.64,1.53,1.17,0.42,-0.89,0.39,34,-2,42,0.98,7825,41,105,44,67,1098,391.0,376,465,60,123.0,228,1,440,366,90,0,0,454,2790,-9211,391,-5.59,,,,,,,,,,,,
411683,1564153156384,1,2.46,1.21,0.65,1.51,1.16,0.47,-0.89,0.55,32,-3,38,1.01,8050,42,105,44,66,1104,392.0,389,461,60,123.0,280,1,450,365,110,0,0,446,0,11560,393,-5.59,,,,,,,,,,,,
411703,1564153156404,2,2.45,1.2,0.65,1.51,1.16,0.4,-0.86,0.52,30,0,37,0.95,8230,42,105,44,66,1111,393.0,395,463,60,122.0,280,1,444,364,110,0,0,406,257,-9211,393,-5.59,,,,,,,,,,,,
411723,1564153156424,2,2.44,1.2,0.65,1.51,1.16,0.47,-0.82,0.67,29,2,36,0.94,8162,42,105,44,64,1114,397.0,412,464,60,123.0,280,1,448,353,110,0,0,402,-6656,-3414,397,-5.59,,,,,,,,,,,,
411743,1564153156444,1,2.45,1.19,0.64,1.49,1.16,0.46,-0.79,0.67,27,3,34,0.91,7978,42,105,44,64,1116,400.0,418,465,60,122.0,280,1,449,331,110,0,0,432,-18948,243,400,-5.59,44.680912,10.024508,37.5,174.8,0,0.0,-1,0.0,0.0,0,2.9,6.8624
411763,1564153156464,3,2.44,1.17,0.63,1.49,1.15,0.36,-0.7,0.7,26,4,31,0.79,7841,42,105,44,64,1112,405.0,423,462,60,122.0,280,1,443,334,110,0,0,423,240,13552,405,-5.59,,,,,,,,,,,,
411783,1564153156484,3,2.44,1.18,0.64,1.49,1.15,0.33,-0.61,0.7,25,3,29,0.69,7659,42,105,44,65,1107,409.0,427,459,60,124.0,238,1,435,337,97,0,0,413,-1562,13552,409,-5.59,,,,,,,,,,,,
411803,1564153156503,3,2.45,1.19,0.64,1.51,1.16,0.26,-0.67,0.7,24,5,28,0.72,7609,42,105,44,66,1099,411.0,430,460,60,124.0,238,1,431,344,97,0,0,416,-1818,1779,411,-5.59,,,,,,,,,,,,
411823,1564153156523,0,2.44,1.21,0.65,1.51,1.17,0.33,-0.6,0.67,23,5,29,0.68,7572,42,105,44,66,1090,413.0,435,461,60,124.0,238,1,429,348,97,0,0,413,6384,31796,412,-5.59,,,,,,,,,,,,
411843,1564153156543,0,2.45,1.23,0.65,1.52,1.17,0.49,-0.62,0.74,22,4,26,0.79,7703,42,105,44,67,1077,413.0,435,461,60,123.0,238,1,434,353,97,0,0,418,6384,-4082,415,-5.59,44.680923,10.024502,38.46,174.8,0,0.0,-1,0.0,0.0,0,2.9,6.864
411863,1564153156563,2,2.45,1.23,0.65,1.53,1.16,0.62,-0.58,0.76,21,1,23,0.85,7835,42,105,44,67,1064,416.0,442,463,60,123.0,238,1,441,359,97,0,0,415,28696,3826,416,-5.59,,,,,,,,,,,,
411883,1564153156583,-1,2.46,1.24,0.66,1.53,1.18,0.48,-0.53,0.62,20,2,24,0.72,8054,42,105,44,67,1060,417.0,450,465,60,123.0,257,1,450,365,107,0,0,424,6512,-3856,417,-5.59,,,,,,,,,,,,
411903,1564153156603,2,2.47,1.24,0.66,1.54,1.18,0.63,-0.51,0.68,19,1,24,0.81,8252,42,105,44,65,1055,417.0,458,457,60,123.0,257,1,444,364,107,0,0,439,10541,5600,417,-5.59,,,,,,,,,,,,
411923,1564153156623,-0,2.49,1.24,0.65,1.54,1.17,0.53,-0.57,0.68,18,1,22,0.78,8419,42,105,44,65,1050,418.0,463,462,60,122.0,257,1,441,354,107,0,0,456,1504,5600,421,-5.59,,,,,,,,,,,,
411943,1564153156643,3,2.51,1.23,0.66,1.54,1.17,0.53,-0.58,0.68,17,0,22,0.79,8507,42,105,44,62,1045,424.0,478,460,60,123.0,257,1,444,349,107,0,0,442,1504,26704,424,-5.59,44.680931,10.024494,40.73,174.7,0,0.0,-1,0.0,0.0,0,2.9,6.8657
411963,1564153156663,1,2.56,1.24,0.66,1.54,1.17,0.54,-0.57,0.79,18,3,22,0.78,8503,43,105,44,61,1044,428.0,478,463,60,123.0,257,1,446,344,107,0,0,444,10392,2131,428,-5.59,,,,,,,,,,,,
411983,1564153156683,-1,2.59,1.24,0.65,1.54,1.17,0.44,-0.54,0.91,19,4,21,0.7,8438,43,105,44,60,1044,432.0,480,459,60,122.0,239,1,438,330,103,0,0,463,-4059,-8985,432,-5.59,,,,,,,,,,,,
412003,1564153156705,3,2.62,1.24,0.66,1.55,1.18,0.54,-0.58,0.92,19,3,22,0.79,8438,43,105,44,59,1046,437.0,480,461,60,123.0,239,1,430,322,103,0,0,442,9517,2524,437,-5.59,,,,,,,,,,,,
412023,1564153156725,-1,2.65,1.25,0.66,1.55,1.18,0.54,-0.61,1.03,20,4,21,0.82,8381,43,105,44,59,1049,441.0,478,463,60,124.0,239,1,430,319,103,0,0,443,13040,-26615,441,-5.59,,,,,,,,,,,,
412043,1564153156745,3,2.66,1.25,0.66,1.55,1.18,0.55,-0.72,0.87,20,3,23,0.91,8381,43,105,44,60,1052,442.0,481,462,60,123.0,239,1,438,317,103,0,0,470,13040,16408,444,-5.59,44.680939,10.024488,41.27,174.7,0,0.0,-1,0.0,0.0,0,2.9,6.8674
412063,1564153156765,1,2.69,1.25,0.65,1.55,1.18,0.65,-0.72,0.87,21,2,24,0.97,8442,43,105,44,60,1054,445.0,483,458,60,123.0,239,1,438,330,103,0,0,454,-9166,2524,445,-5.59,,,,,,,,,,,,
412083,1564153156785,1,2.7,1.25,0.65,1.55,1.18,0.61,-0.7,0.98,22,3,23,0.93,8604,43,105,44,59,1063,447.0,487,461,60,122.0,238,1,423,328,106,0,0,447,-4059,-18108,447,-5.59,,,,,,,,,,,,
412103,1564153156803,-0,2.72,1.24,0.65,1.55,1.17,0.61,-0.77,0.88,23,3,24,0.98,8724,43,105,44,58,1073,448.0,495,460,60,122.0,238,1,411,323,106,0,0,484,-9166,12552,448,-5.59,,,,,,,,,,,,
412123,1564153156823,0,2.74,1.25,0.65,1.55,1.18,0.53,-0.82,0.96,23,2,25,0.97,8903,43,105,44,57,1082,450.0,505,468,60,123.0,238,1,401,321,106,0,0,513,-9166,6193,450,-5.59,,,,,,,,,,,,
412143,1564153156843,1,2.74,1.25,0.65,1.55,1.17,0.57,-0.93,0.93,24,1,25,1.09,9132,43,105,44,56,1089,451.0,511,471,60,123.0,238,1,400,321,106,0,0,477,-9166,30272,451,-5.59,44.680946,10.024482,42.94,174.6,0,0.0,-1,0.0,0.0,0,2.9,6.869
412163,1564153156863,2,2.76,1.24,0.65,1.54,1.18,0.49,-0.91,1.0,26,1,26,1.03,9200,43,105,44,55,1091,452.0,529,470,60,123.0,238,1,400,317,106,0,0,482,-4059,32033,452,-5.59,,,,,,,,,,,,
412183,1564153156883,2,2.76,1.25,0.65,1.56,1.17,0.53,-0.9,0.96,28,2,28,1.05,9222,43,105,44,54,1092,458.0,526,472,60,123.0,241,1,400,311,110,0,0,507,-9166,-1562,458,-5.59,,,,,,,,,,,,
412203,1564153156903,3,2.76,1.25,0.65,1.55,1.18,0.63,-0.87,0.96,29,3,30,1.07,9241,43,105,44,54,1089,460.0,540,464,60,124.0,241,1,400,312,110,0,0,504,-9166,-1562,460,-5.59,,,,,,,,,,,,
412223,1564153156923,-1,2.77,1.25,0.66,1.55,1.17,0.58,-0.86,0.9,31,2,32,1.04,9236,43,105,44,53,1082,464.0,529,463,60,123.0,241,1,396,301,110,0,0,482,-4059,-1818,464,-5.59,,,,,,,,,,,,
412243,1564153156943,0,2.77,1.25,0.65,1.56,1.18,0.62,-0.98,0.77,32,1,35,1.16,9186,43,105,44,53,1073,465.0,538,462,60,124.0,241,1,396,299,110,0,0,493,9517,-6528,464,-5.59,44.680962,10.024476,43.77,174.6,0,0.0,-1,0.0,0.0,0,2.9,6.8707
412263,1564153156963,-0,2.78,1.25,0.65,1.55,1.18,0.54,-1.07,0.86,33,1,35,1.2,9119,42,105,44,53,1064,466.0,525,470,60,124.0,241,1,396,297,110,0,0,501,13040,771,466,-5.59,,,,,,,,,,,,
412283,1564153156983,0,2.77,1.25,0.65,1.54,1.17,0.57,-1.14,0.86,34,1,36,1.27,9150,41,105,44,53,1058,467.0,527,464,60,123.0,220,1,396,297,103,0,0,489,2524,3,469,-5.59,,,,,,,,,,,,
412303,1564153156995,1,2.77,1.24,0.65,1.56,1.18,0.55,-1.22,0.96,34,2,36,1.34,9177,41,105,44,53,1056,467.0,524,464,60,122.0,220,1,396,298,103,0,0,484,13040,-22519,467,-5.59,,,,,,,,,,,,
412323,1564153157015,1,2.78,1.25,0.65,1.55,1.18,0.55,-1.19,0.93,35,1,37,1.31,9222,41,105,44,53,1055,470.0,529,461,60,122.0,220,1,396,299,103,0,0,499,-26615,3,470,-5.59,,,,,,,,,,,,
412343,1564153157035,3,2.77,1.25,0.65,1.55,1.18,0.69,-1.15,0.77,35,0,39,1.34,9291,41,105,44,52,1053,469.0,534,460,60,124.0,220,1,392,291,103,0,0,510,18584,248,470,-5.59,44.680969,10.024472,44.49,174.6,0,0.0,-1,0.0,0.0,0,2.9,6.8724
412363,1564153157055,1,2.78,1.24,0.65,1.54,1.18,0.59,-1.12,0.8,35,-0,41,1.27,9403,41,105,44,52,1052,470.0,547,468,60,124.0,220,1,393,297,103,0,0,504,-21944,-6656,470,-5.59,,,,,,,,,,,,
412383,1564153157075,1,2.78,1.25,0.65,1.55,1.17,0.56,-1.14,0.81,35,-2,42,1.28,9484,41,105,44,51,1052,470.0,446,471,60,123.0,217,1,391,286,102,0,0,502,18584,11560,470,-5.59,,,,,,,,,,,,
412403,1564153157101,3,2.78,1.25,0.65,1.55,1.18,0.62,-1.15,0.77,36,-1,42,1.31,9508,40,105,43,51,1053,469.0,394,460,60,123.0,217,1,391,289,102,0,0,505,-21944,26178,469,-5.59,,,,,,,,,,,,
412423,1564153157121,-1,2.79,1.25,0.65,1.55,1.18,0.7,-1.21,0.75,37,0,43,1.4,9541,41,105,43,51,1054,471.0,348,466,60,123.0,217,1,391,289,102,0,0,517,18584,-3414,471,-5.59,,,,,,,,,,,,
412443,1564153157141,2,2.78,1.25,0.66,1.55,1.18,0.68,-1.25,0.78,37,1,43,1.42,9551,40,105,43,50,1056,473.0,342,468,60,123.0,217,1,388,279,102,0,0,509,-3414,2109,470,-5.59,44.680981,10.024469,45.83,174.6,0,0.0,-1,0.0,0.0,0,2.9,6.8741
412463,1564153157161,3,2.79,1.25,0.66,1.56,1.18,0.65,-1.25,0.85,38,1,43,1.41,9585,40,105,43,50,1057,472.0,383,467,60,123.0,217,1,388,279,102,0,0,510,-21944,6274,472,-5.59,,,,,,,,,,,,
412483,1564153157181,1,2.78,1.25,0.65,1.55,1.18,0.62,-1.26,0.74,38,-0,45,1.4,9551,40,105,43,50,1056,472.0,338,467,60,123.0,211,1,388,279,100,0,0,519,-3414,-3856,472,-5.59,,,,,,,,,,,,
412503,1564153157205,1,2.78,1.25,0.66,1.55,1.17,0.72,-1.25,0.72,38,-1,45,1.44,9503,40,105,43,50,1052,473.0,328,467,60,123.0,211,1,388,279,100,0,0,526,-21944,26178,471,-5.59,,,,,,,,,,,,
412523,1564153157225,0,2.78,1.24,0.66,1.54,1.17,0.67,-1.26,0.7,38,-1,46,1.43,9546,40,105,43,49,1047,473.0,343,464,60,123.0,211,1,385,266,100,0,0,513,-21944,26178,473,-5.59,,,,,,,,,,,,
412543,1564153157245,1,2.78,1.25,0.65,1.55,1.18,0.6,-1.27,0.78,38,-1,46,1.4,9561,40,105,43,49,1042,468.0,326,465,60,124.0,211,1,385,267,100,0,0,510,-21944,-14,468,-5.59,44.680992,10.024467,45.6,174.5,0,0.0,-1,0.0,0.0,0,2.91,6.8757
412563,1564153157265,3,2.78,1.25,0.66,1.54,1.19,0.58,-1.22,0.8,38,-1,46,1.35,9615,40,105,43,49,1035,470.0,350,462,60,123.0,211,1,385,268,100,0,0,507,-21944,-3856,470,-5.59,,,,,,,,,,,,
412583,1564153157285,1,2.77,1.25,0.66,1.55,1.18,0.6,-1.24,0.62,38,-2,48,1.38,9580,40,105,43,49,1022,472.0,362,458,60,123.0,203,1,385,267,96,0,0,517,7154,6274,472,-5.59,,,,,,,,,,,,
412603,1564153157305,1,2.78,1.25,0.66,1.55,1.18,0.68,-1.29,0.66,38,-2,47,1.46,9541,40,105,43,49,1010,473.0,397,469,60,123.0,203,1,385,267,96,0,0,526,-8165,-28648,473,-5.59,,,,,,,,,,,,
412623,1564153157325,0,2.77,1.25,0.65,1.55,1.18,0.67,-1.29,0.69,38,-2,47,1.45,9576,40,105,43,49,1003,472.0,418,461,60,123.0,203,1,385,267,96,0,0,521,-3414,2109,472,-5.59,,,,,,,,,,,,
412643,1564153157345,0,2.77,1.25,0.66,1.55,1.18,0.63,-1.29,0.69,39,-2,48,1.43,9615,40,105,43,49,996,474.0,431,463,60,123.0,203,1,385,268,96,0,0,522,-21792,-3482,474,-5.59,44.681004,10.024467,46.56,174.5,0,0.0,-1,0.0,0.0,0,2.91,6.8774
412663,1564153157365,3,2.75,1.24,0.66,1.55,1.18,0.66,-1.27,0.66,38,-2,48,1.42,9730,40,105,43,49,995,474.0,456,461,60,122.0,203,1,385,269,96,0,0,532,-8165,-21872,476,-5.59,,,,,,,,,,,,
412683,1564153157385,2,2.75,1.24,0.66,1.55,1.18,0.64,-1.34,0.64,38,-2,48,1.48,9775,40,105,43,48,993,473.0,471,467,60,123.0,208,1,382,259,99,0,0,536,-21792,-28648,473,-5.59,,,,,,,,,,,,
412703,1564153157405,-1,2.73,1.25,0.65,1.55,1.18,0.68,-1.32,0.63,38,-2,48,1.48,9796,40,105,43,48,999,473.0,489,467,60,123.0,208,1,382,259,99,0,0,540,-3414,10994,473,-5.59,,,,,,,,,,,,
412723,1564153157425,2,2.7,1.24,0.66,1.54,1.18,0.75,-1.38,0.51,38,-2,48,1.57,9827,40,105,43,48,1004,474.0,447,471,60,123.0,208,1,382,259,99,0,0,542,-21792,-3414,473,-5.59,,,,,,,,,,,,
412743,1564153157445,2,2.66,1.24,0.66,1.55,1.18,0.76,-1.41,0.5,38,-2,48,1.6,9868,40,105,43,48,1011,476.0,408,471,60,122.0,208,1,382,260,99,0,0,544,3826,1341,476,-5.59,44.681015,10.024469,46.48,174.4,0,0.0,-1,0.0,0.0,0,2.91,6.8791
412763,1564153157465,3,2.61,1.24,0.66,1.55,1.18,0.84,-1.36,0.44,38,-3,49,1.6,9899,40,105,43,48,1017,478.0,430,464,60,122.0,208,1,382,260,99,0,0,552,-4082,-3856,478,-5.59,,,,,,,,,,,,
412783,1564153157485,1,2.56,1.24,0.65,1.54,1.18,0.91,-1.42,0.55,38,-2,48,1.69,9894,40,105,43,48,1019,478.0,412,466,60,121.0,202,1,382,260,97,0,0,546,-4082,10994,480,-5.59,,,,,,,,,,,,
412803,1564153157504,2,2.49,1.24,0.66,1.54,1.18,0.94,-1.35,0.56,37,-2,49,1.64,9952,40,105,43,48,1020,481.0,412,462,60,121.0,202,1,382,261,97,0,0,536,-3856,-3856,481,-5.59,,,,,,,,,,,,
412823,1564153157524,2,2.42,1.24,0.65,1.55,1.17,0.91,-1.33,0.54,36,-2,48,1.61,9925,40,105,43,48,1013,480.0,381,457,60,122.0,202,1,382,261,97,0,0,539,13552,-14,480,-5.59,,,,,,,,,,,,
412843,1564153157544,-1,2.36,1.24,0.66,1.55,1.17,0.87,-1.27,0.62,35,-1,48,1.54,9821,40,105,43,48,1006,482.0,365,467,60,122.0,202,1,382,259,97,0,0,527,-768,-32248,482,-5.59,44.681026,10.024473,46.81,174.4,0,0.0,-1,0.0,0.0,0,2.91,6.8807
412863,1564153157564,2,2.29,1.23,0.65,1.52,1.17,0.85,-1.23,0.64,33,-1,46,1.5,9740,39,105,43,48,999,483.0,375,460,60,123.0,202,1,382,258,97,0,0,514,23400,-32248,484,-5.59,,,,,,,,,,,,
412883,1564153157584,3,2.24,1.2,0.64,1.51,1.16,0.71,-1.1,0.68,31,-1,44,1.32,9679,40,105,43,48,990,483.0,366,471,60,122.0,197,1,382,258,95,0,0,510,-6387,2524,483,-5.59,,,,,,,,,,,,
412903,1564153157604,1,2.21,1.11,0.61,1.45,1.14,0.69,-1.12,0.58,28,-2,41,1.32,9580,40,105,43,48,984,482.0,391,463,60,123.0,197,1,382,256,95,0,0,514,-23623,-21872,482,-5.59,,,,,,,,,,,,
412923,1564153157624,1,2.19,0.96,0.58,1.35,1.08,0.75,-1.06,0.62,24,-2,35,1.3,9498,39,105,43,48,978,478.0,370,457,60,122.0,197,1,381,254,95,0,0,510,-3210,-3414,478,-5.59,,,,,,,,,,,,
412943,1564153157644,1,2.18,0.77,0.52,1.2,1.0,0.71,-0.93,0.75,20,-1,31,1.17,9365,39,105,43,48,977,476.0,393,460,60,123.0,197,1,380,252,95,0,0,502,-9203,15661,476,-5.59,44.681038,10.024479,47.16,174.3,0,0.0,-1,0.0,0.0,0,2.91,6.8824
412963,1564153157664,3,2.17,0.55,0.44,1.04,0.89,0.69,-0.78,0.65,15,0,29,1.04,9272,39,105,43,49,979,483.0,403,462,60,122.0,197,1,382,260,95,0,0,505,3580,-21872,475,-5.59,,,,,,,,,,,,
412983,1564153157684,0,2.18,0.33,0.36,0.87,0.79,0.79,-0.76,0.56,10,-2,25,1.09,9209,39,105,43,49,983,492.0,428,463,60,124.0,191,1,381,260,91,0,0,504,-32768,11560,474,-5.59,,,,,,,,,,,,
413003,1564153157704,0,2.18,0.13,0.27,0.72,0.66,0.7,-0.71,0.66,5,-2,22,0.99,9195,39,105,43,49,988,494.0,443,462,60,124.0,191,1,381,259,91,0,0,510,998,2524,473,-5.59,,,,,,,,,,,,
413023,1564153157724,1,2.16,0.0,0.19,0.6,0.55,0.73,-0.69,0.65,2,-2,17,1.01,9295,39,105,43,49,991,492.0,458,465,60,124.0,191,1,382,261,91,0,0,504,3,-6528,474,-5.59,,,,,,,,,,,,
413043,1564153157744,1,2.16,0.0,0.13,0.53,0.47,0.86,-0.56,0.78,-1,-4,13,1.03,9389,38,105,43,49,994,495.0,468,461,60,123.0,191,1,383,264,91,0,0,506,-6528,-9216,470,-5.59,44.681049,10.024485,47.51,174.3,0,0.0,-1,0.0,0.0,0,2.91,6.884
413063,1564153157764,-1,2.14,0.15,0.16,0.5,0.45,0.79,-0.35,0.75,-3,-4,10,0.86,9512,38,105,43,49,1006,495.0,481,452,60,123.0,191,1,385,182,91,0,0,513,771,3,473,-5.59,,,,,,,,,,,,
413083,1564153157784,2,2.1,0.14,0.15,0.5,0.44,0.68,-0.31,0.61,-4,-3,7,0.74,9585,39,105,43,49,1023,498.0,497,471,60,124.0,202,1,385,267,96,0,0,510,2524,-4054,473,-5.59,,,,,,,,,,,,
413103,1564153157804,0,2.09,0.15,0.14,0.5,0.45,0.69,-0.12,0.59,-5,-2,4,0.7,9625,33,105,43,49,1038,499.0,497,472,60,122.0,202,1,385,268,96,0,0,515,2524,2524,473,-5.59,,,,,,,,,,,,
413123,1564153157824,2,2.07,0.17,0.15,0.5,0.46,0.69,0.08,0.52,-7,-3,1,0.7,9694,33,105,43,48,1051,497.0,506,467,60,123.0,202,1,382,258,96,0,0,516,2524,15679,475,-5.59,,,,,,,,,,,,
413143,1564153157844,0,2.07,0.2,0.15,0.51,0.46,0.78,0.21,0.64,-8,-3,-2,0.81,9780,39,105,43,48,1062,501.0,511,466,60,123.0,202,1,382,259,96,0,0,520,6274,16383,474,-5.59,44.681061,10.024492,48.52,174.3,0,0.0,-1,0.0,0.0,0,2.91,6.8857
413163,1564153157864,1,2.07,0.25,0.21,0.54,0.48,0.78,0.33,0.61,-9,-2,-5,0.85,9796,39,105,43,48,1068,504.0,517,443,60,124.0,202,1,382,259,96,0,0,523,-32248,-22519,477,-5.59,,,,,,,,,,,,
413183,1564153157884,0,2.06,0.24,0.21,0.55,0.49,0.84,0.33,0.74,-11,-2,-7,0.9,9755,39,105,43,48,1069,502.0,523,443,60,123.0,199,1,382,259,95,0,0,524,15661,-3482,475,-5.59,,,,,,,,,,,,
413203,1564153157904,2,2.06,0.27,0.22,0.55,0.49,0.79,0.39,0.63,-11,1,-8,0.88,9725,39,105,43,47,1062,505.0,533,465,60,124.0,199,1,380,247,95,0,0,523,6274,10408,478,-5.59,,,,,,,,,,,,
413223,1564153157924,1,2.05,0.28,0.22,0.57,0.5,0.78,0.39,0.66,-13,-1,-11,0.88,9725,38,105,43,48,1053,506.0,541,462,60,123.0,199,1,382,258,95,0,0,522,-28648,-8186,478,-5.59,,,,,,,,,,,,
413243,1564153157944,2,2.06,0.28,0.22,0.58,0.51,0.63,0.47,0.52,-13,0,-11,0.79,9750,38,105,43,47,1041,507.0,557,452,60,124.0,199,1,380,249,95,0,0,524,-21872,1248,481,-5.59,44.681072,10.024499,48.49,174.3,0,0.0,-1,0.0,0.0,0,2.91,6.8874
413263,1564153157964,-1,2.05,0.3,0.24,0.59,0.52,0.65,0.56,0.54,-14,-1,-13,0.86,9730,38,105,43,47,1031,509.0,551,453,60,123.0,199,1,380,258,95,0,0,521,10994,-3482,480,-5.59,,,,,,,,,,,,
413283,1564153157984,1,2.04,0.31,0.23,0.59,0.52,0.65,0.68,0.54,-14,-1,-16,0.94,9745,32,105,43,47,1026,508.0,553,465,60,124.0,190,1,380,247,92,0,0,527,-3414,2524,481,-5.59,,,,,,,,,,,,
413303,1564153157994,1,2.04,0.32,0.23,0.61,0.52,0.78,0.78,0.6,-16,-3,-17,1.1,9775,38,105,43,47,1023,510.0,553,460,60,124.0,190,1,380,249,92,0,0,527,-4054,2524,484,-5.59,,,,,,,,,,,,
413323,1564153158014,1,2.04,0.33,0.23,0.61,0.52,0.72,0.77,0.58,-17,-2,-18,1.06,9811,38,105,43,47,1021,512.0,555,442,60,123.0,190,1,380,250,92,0,0,524,17136,-9072,483,-5.59,,,,,,,,,,,,
413343,1564153158034,1,2.03,0.34,0.23,0.63,0.53,0.78,0.8,0.59,-18,-3,-20,1.12,9827,36,105,43,47,1020,514.0,553,449,60,123.0,190,1,380,250,92,0,0,531,17136,-9212,482,-5.59,44.681084,10.024506,48.95,174.2,0,0.0,-1,0.0,0.0,0,2.92,6.889
413363,1564153158054,3,2.02,0.35,0.25,0.63,0.53,0.82,0.77,0.59,-19,-1,-22,1.12,9873,38,105,43,47,1023,515.0,557,454,60,124.0,190,1,380,252,92,0,0,528,-14,-32248,482,-5.59,,,,,,,,,,,,
413383,1564153158074,1,2.02,0.36,0.25,0.64,0.54,0.82,0.7,0.73,-20,-0,-24,1.08,9978,38,105,43,47,1024,517.0,561,459,60,124.0,197,1,380,253,95,0,0,537,-14,-32248,482,-5.59,,,,,,,,,,,,
413403,1564153158104,-0,2.01,0.37,0.25,0.65,0.55,0.82,0.69,0.75,-21,-0,-26,1.07,9978,34,105,43,47,1022,516.0,561,455,60,124.0,197,1,380,253,95,0,0,530,-3482,-2934,481,-5.59,,,,,,,,,,,,
413423,1564153158124,3,2.0,0.38,0.26,0.66,0.55,0.91,0.66,0.73,-22,1,-27,1.12,9994,37,105,43,47,1019,512.0,567,443,60,123.0,197,1,380,287,95,0,0,534,15679,-8962,481,-5.59,,,,,,,,,,,,
413443,1564153158144,1,2.01,0.39,0.26,0.66,0.55,0.93,0.63,0.84,-23,1,-28,1.12,10096,29,105,43,47,1014,518.0,574,421,60,124.0,197,1,380,248,95,0,0,537,15679,14504,482,-5.59,44.681095,10.02451,49.64,174.2,0,0.0,-1,0.0,0.0,0,2.92,6.8907
413463,1564153158164,-0,2.01,0.39,0.27,0.67,0.57,0.92,0.65,0.8,-24,2,-30,1.13,10064,33,105,43,47,1008,516.0,574,441,60,123.0,197,1,380,283,95,0,0,542,1341,-32248,482,-5.59,,,,,,,,,,,,
413483,1564153158184,1,2.0,0.41,0.27,0.68,0.57,1.03,0.78,0.79,-24,1,-30,1.29,10118,37,105,43,47,997,520.0,575,441,60,122.0,221,1,380,278,107,0,0,542,1248,6274,482,-5.59,,,,,,,,,,,,
413503,1564153158204,1,2.01,0.42,0.28,0.69,0.57,1.01,0.81,0.86,-25,-1,-32,1.3,10157,38,105,43,47,987,522.0,587,435,60,123.0,221,1,380,273,107,0,0,542,1248,-30064,482,-5.59,,,,,,,,,,,,
413523,1564153158224,2,2.01,0.43,0.27,0.7,0.58,1.06,0.79,0.85,-25,-0,-34,1.32,10124,38,105,43,47,981,520.0,576,434,60,123.0,221,1,380,266,107,0,0,545,-8187,-22519,484,-5.59,,,,,,,,,,,,
413543,1564153158244,-0,2.02,0.44,0.27,0.7,0.59,1.0,0.91,0.82,-25,-1,-32,1.35,10151,38,105,43,47,975,522.0,587,430,60,123.0,221,1,380,260,107,0,0,540,-9212,2216,482,-5.59,44.681107,10.024514,49.6,174.2,0,0.0,-1,0.0,0.0,0,2.92,6.8924
413563,1564153158264,1,2.04,0.45,0.28,0.7,0.58,0.96,1.02,0.71,-26,-2,-32,1.4,10135,35,105,43,47,967,522.0,580,426,60,122.0,221,1,380,254,107,0,0,542,-22519,1779,484,-5.59,,,,,,,,,,,,
413583,1564153158284,3,2.04,0.45,0.28,0.71,0.6,0.98,1.12,0.68,-26,-3,-32,1.49,10157,31,105,43,47,959,523.0,582,415,60,123.0,226,1,380,283,110,0,0,540,2524,-2934,485,-5.59,,,,,,,,,,,,
413603,1564153158304,2,2.05,0.47,0.3,0.72,0.6,0.85,1.01,0.77,-26,-2,-32,1.32,10212,37,105,43,47,956,524.0,587,413,60,123.0,226,1,380,278,110,0,0,544,-22519,6274,487,-5.59,,,,,,,,,,,,
413623,1564153158324,1,2.07,0.48,0.29,0.73,0.6,0.82,0.93,0.76,-25,1,-33,1.24,10173,37,105,43,47,953,524.0,592,402,60,124.0,226,1,380,271,110,0,0,546,2088,2524,486,-5.59,,,,,,,,,,,,
413643,1564153158344,-0,2.1,0.49,0.3,0.74,0.6,0.72,0.94,0.73,-25,-0,-32,1.18,10234,37,105,43,47,952,526.0,594,389,60,124.0,226,1,380,266,110,0,0,547,-32248,-22263,490,-5.59,44.681122,10.024518,49.84,174.2,0,0.0,-1,0.0,0.0,0,2.92,6.8941
413663,1564153158364,0,2.12,0.5,0.31,0.75,0.61,0.68,0.98,0.74,-25,3,-33,1.2,10240,37,105,43,47,951,528.0,601,387,60,123.0,226,1,380,259,110,0,0,546,6274,-8962,492,-5.59,,,,,,,,,,,,
413683,1564153158384,3,2.14,0.51,0.31,0.75,0.62,0.82,0.91,0.72,-26,1,-34,1.22,10190,34,105,43,46,953,530.0,597,400,60,124.0,194,1,372,284,96,0,0,549,2524,-28648,493,-5.59,,,,,,,,,,,,
413703,1564153158404,3,2.17,0.53,0.32,0.77,0.63,0.8,0.78,0.85,-26,-0,-35,1.11,10262,27,105,43,47,954,530.0,601,410,60,123.0,194,1,380,250,96,0,0,545,2524,-506,494,-5.59,,,,,,,,,,,,
413723,1564153158424,2,2.19,0.54,0.32,0.78,0.64,0.84,0.73,0.84,-25,3,-36,1.12,10212,31,105,43,46,955,531.0,595,408,60,123.0,194,1,372,282,96,0,0,549,-22519,-8962,499,-5.59,,,,,,,,,,,,
413743,1564153158444,1,2.22,0.56,0.33,0.79,0.65,0.79,0.81,0.83,-23,1,-34,1.14,10240,35,105,43,46,955,527.0,591,382,60,123.0,194,1,372,285,96,0,0,546,6274,-32248,502,-5.59,44.681133,10.024519,50.38,174.1,0,0.0,-1,0.0,0.0,0,2.92,6.8957
413763,1564153158464,0,2.25,0.59,0.35,0.83,0.67,0.73,0.93,0.77,-21,-0,-32,1.18,10179,33,105,43,46,954,525.0,597,378,60,122.0,194,1,372,273,96,0,0,550,2088,-22519,508,-5.59,,,,,,,,,,,,
413783,1564153158484,3,2.28,0.62,0.37,0.85,0.68,0.77,0.98,0.7,-19,-1,-30,1.25,10168,28,105,43,46,953,528.0,594,421,60,123.0,203,1,372,268,104,0,0,548,-28648,-3082,512,-5.59,,,,,,,,,,,,
413803,1564153158503,2,2.32,0.67,0.39,0.9,0.72,0.69,0.77,0.81,-17,-1,-28,1.03,10184,37,105,43,46,956,525.0,592,452,60,123.0,203,1,372,261,104,0,0,540,2088,1779,518,-5.59,,,,,,,,,,,,
413823,1564153158523,1,2.35,0.71,0.41,0.93,0.75,0.64,0.62,0.87,-14,2,-26,0.89,10118,37,105,43,46,961,526.0,596,454,60,123.0,203,1,372,256,104,0,0,548,-32248,-22519,522,-5.59,,,,,,,,,,,,
413843,1564153158543,-0,2.38,0.81,0.47,0.99,0.81,0.57,0.58,0.74,-11,0,-23,0.81,10157,37,105,43,46,967,524.0,599,442,60,122.0,203,1,372,251,104,0,0,543,10408,14504,525,-5.59,44.681145,10.024519,50.88,174.1,0,0.0,-1,0.0,0.0,0,2.92,6.8974
413863,1564153158563,4,2.4,0.98,0.55,1.12,0.91,0.5,0.56,0.54,-9,0,-20,0.75,10151,37,105,43,46,974,526.0,598,442,60,123.0,203,1,372,250,104,0,0,538,-9212,2524,529,-5.59,,,,,,,,,,,,
413883,1564153158583,2,2.43,1.27,0.66,1.31,1.07,0.59,0.3,0.66,-6,2,-19,0.67,10124,37,105,43,46,977,531.0,584,450,60,123.0,180,1,372,250,96,0,0,546,-22519,2524,532,-5.59,,,,,,,,,,,,
413903,1564153158603,2,2.46,1.55,0.76,1.46,1.2,0.58,0.07,0.79,-4,2,-18,0.59,10201,37,105,43,46,980,535.0,581,451,60,123.0,180,1,372,250,96,0,0,546,-22519,1779,535,-5.59,,,,,,,,,,,,
413923,1564153158623,1,2.47,1.71,0.8,1.56,1.24,0.63,0.0,0.75,-2,3,-14,0.63,10195,37,105,43,46,980,536.0,585,464,60,122.0,180,1,372,250,96,0,0,539,-9212,-9072,536,-5.59,,,,,,,,,,,,
413943,1564153158643,0,2.49,1.73,0.8,1.58,1.25,0.68,0.13,0.54,-0,1,-9,0.69,10285,37,105,43,46,976,538.0,581,465,60,123.0,180,1,372,250,96,0,0,546,-8187,-28648,538,-5.59,44.68116,10.024518,52.26,174.1,0,0.0,-1,0.0,0.0,0,2.92,6.899
413963,1564153158663,1,2.49,1.72,0.8,1.58,1.24,0.63,0.31,0.42,2,2,-6,0.71,10319,37,105,43,46,975,539.0,587,467,60,123.0,180,1,372,250,96,0,0,543,2524,-22263,539,-5.59,,,,,,,,,,,,
413983,1564153158683,-0,2.49,1.71,0.81,1.58,1.24,0.68,0.3,0.3,3,1,-4,0.74,10376,37,105,43,46,976,540.0,587,461,60,123.0,181,1,372,250,98,0,0,552,-9212,-18032,542,-5.59,,,,,,,,,,,,
414003,1564153158703,3,2.49,1.71,0.8,1.58,1.23,0.67,0.14,0.43,4,0,-2,0.68,10422,37,105,43,46,979,542.0,591,466,60,122.0,181,1,372,250,98,0,0,554,2524,-22359,543,-5.59,,,,,,,,,,,,
414023,1564153158723,2,2.5,1.69,0.8,1.57,1.23,0.8,-0.01,0.53,4,3,-2,0.8,10410,37,106,43,46,984,542.0,598,458,60,123.0,181,1,372,250,98,0,0,549,10408,-22359,542,-5.59,,,,,,,,,,,,
414043,1564153158743,3,2.49,1.69,0.79,1.57,1.21,0.88,-0.15,0.63,5,3,-2,0.9,10469,36,106,43,46,988,543.0,592,461,60,123.0,181,1,372,250,98,0,0,558,10408,12552,543,-5.59,44.681171,10.024517,53.42,174.1,0,0.0,-1,0.0,0.0,0,2.93,6.9007
414063,1564153158763,3,2.49,1.68,0.79,1.55,1.22,0.98,-0.3,0.77,6,2,-1,1.03,10416,36,106,43,46,991,546.0,596,460,60,122.0,181,1,372,250,98,0,0,551,2088,-23623,546,-5.59,,,,,,,,,,,,
414083,1564153158783,2,2.5,1.68,0.79,1.56,1.22,0.91,-0.47,0.89,7,4,-0,1.03,10463,36,106,43,46,993,546.0,594,466,60,123.0,180,1,372,250,99,0,0,559,10408,-22359,547,-5.59,,,,,,,,,,,,
414103,1564153158803,2,2.51,1.68,0.8,1.57,1.22,0.99,-0.62,0.99,7,5,-0,1.17,10422,36,106,43,46,992,549.0,589,457,60,123.0,180,1,372,250,99,0,0,560,10408,-8186,548,-5.59,,,,,,,,,,,,
414123,1564153158823,2,2.53,1.68,0.8,1.58,1.22,1.02,-0.76,1.09,8,5,0,1.27,10492,36,106,43,45,988,552.0,588,460,60,123.0,180,1,365,245,99,0,0,551,6274,-2934,552,-5.59,,,,,,,,,,,,
414143,1564153158843,1,2.54,1.69,0.8,1.58,1.23,1.08,-0.88,1.18,9,6,0,1.39,10463,36,106,43,46,982,550.0,577,462,60,122.0,180,1,372,250,99,0,0,556,-32248,-23623,550,-5.59,44.681183,10.024516,53.77,174.1,0,0.0,-1,0.0,0.0,0,2.93,6.9024
414163,1564153158863,1,2.55,1.68,0.8,1.58,1.22,1.0,-0.99,1.26,10,5,2,1.41,10527,36,106,43,46,975,553.0,583,463,60,122.0,180,1,372,250,99,0,0,558,-28648,-29984,553,-5.59,,,,,,,,,,,,
414183,1564153158883,3,2.55,1.68,0.8,1.59,1.22,1.03,-1.09,1.33,11,6,3,1.5,10463,36,106,43,46,970,555.0,595,458,60,123.0,179,1,372,250,99,0,0,562,2088,1760,552,-5.59,,,,,,,,,,,,
414203,1564153158903,2,2.56,1.69,0.79,1.59,1.22,1.07,-1.18,1.39,12,7,3,1.59,10539,36,106,43,46,963,554.0,603,463,60,123.0,179,1,372,250,99,0,0,568,2088,1780,554,-5.59,,,,,,,,,,,,
414223,1564153158923,3,2.56,1.69,0.8,1.59,1.22,1.14,-1.26,1.45,13,6,4,1.7,10533,36,106,43,46,956,557.0,605,465,60,123.0,179,1,372,250,99,0,0,561,-22519,-8188,557,-5.59,,,,,,,,,,,,
414243,1564153158943,3,2.56,1.68,0.79,1.58,1.22,1.06,-1.33,1.5,14,5,5,1.7,10623,36,106,43,46,949,554.0,603,467,60,122.0,179,1,372,250,99,0,0,557,2088,30208,555,-5.59,44.681198,10.024517,54.41,174.0,0,0.0,-1,0.0,0.0,0,2.93,6.904
414263,1564153158963,3,2.55,1.69,0.8,1.58,1.21,1.15,-1.34,1.55,14,7,6,1.77,10593,36,106,43,46,948,555.0,609,462,60,122.0,179,1,372,250,99,0,0,570,-32248,-8188,557,-5.59,,,,,,,,,,,,
414283,1564153158983,1,2.55,1.69,0.79,1.59,1.22,1.12,-1.15,1.45,16,7,8,1.61,10665,36,106,43,46,945,561.0,607,465,60,122.0,181,1,372,250,101,0,0,573,2088,-3190,561,-5.59,,,,,,,,,,,,
414303,1564153158995,1,2.54,1.68,0.79,1.59,1.22,1.08,-0.96,1.16,16,6,11,1.44,10635,36,106,43,46,939,559.0,603,465,60,122.0,181,1,372,250,101,0,0,577,2088,30208,559,-5.59,,,,,,,,,,,,
414323,1564153159015,2,2.54,1.68,0.79,1.58,1.22,1.0,-0.77,0.84,17,6,13,1.26,10653,36,106,43,46,933,557.0,605,465,60,122.0,181,1,372,250,101,0,0,574,10408,-8188,557,-5.59,,,,,,,,,,,,
414343,1564153159035,1,2.52,1.68,0.8,1.58,1.22,0.91,-0.63,0.63,18,1,18,1.11,10732,36,106,43,46,929,557.0,595,466,60,121.0,181,1,372,250,101,0,0,548,10408,-3190,557,-5.59,44.68121,10.024518,54.54,174.1,0,0.0,-1,0.0,0.0,0,2.93,6.9057
414363,1564153159055,1,2.5,1.68,0.79,1.58,1.21,0.86,-0.73,0.59,19,1,20,1.13,10671,36,106,43,46,924,560.0,598,463,60,122.0,181,1,372,250,101,0,0,566,6274,-8188,560,-5.59,,,,,,,,,,,,
414383,1564153159075,3,2.48,1.68,0.79,1.6,1.22,0.85,-0.85,0.73,19,3,20,1.2,10702,36,106,43,46,916,558.0,592,468,60,122.0,181,1,372,250,101,0,0,568,6274,-29984,559,-5.59,,,,,,,,,,,,
414403,1564153159103,3,2.47,1.67,0.79,1.58,1.22,0.94,-0.97,0.85,18,3,18,1.35,10635,36,106,43,46,908,559.0,593,465,60,122.0,181,1,372,250,101,0,0,575,14504,-3210,559,-5.59,,,,,,,,,,,,
414423,1564153159123,4,2.46,1.66,0.79,1.59,1.21,0.91,-1.07,0.96,17,3,17,1.4,10720,36,106,43,46,904,560.0,598,467,60,122.0,181,1,372,250,101,0,0,580,-22519,259,560,-5.59,,,,,,,,,,,,
414443,1564153159143,1,2.47,1.66,0.79,1.58,1.22,1.0,-0.97,1.03,17,4,16,1.39,10708,36,106,43,46,899,558.0,604,465,60,122.0,181,1,372,250,101,0,0,556,2104,1760,561,-5.59,44.681225,10.02452,54.75,174.0,0,0.0,-1,0.0,0.0,0,2.93,6.9074
414463,1564153159163,-0,2.48,1.66,0.79,1.58,1.2,0.92,-0.71,0.76,16,6,18,1.17,10695,36,106,43,46,887,559.0,603,466,60,122.0,181,1,372,250,101,0,0,575,-28648,-8188,559,-5.59,,,,,,,,,,,,
414483,1564153159183,1,2.49,1.65,0.78,1.57,1.21,0.84,-0.69,0.48,15,3,21,1.09,10726,36,106,43,46,874,559.0,598,465,60,122.0,180,1,372,250,101,0,0,577,-30064,30208,559,-5.59,,,,,,,,,,,,
414503,1564153159205,2,2.51,1.66,0.79,1.57,1.21,0.84,-0.72,0.51,16,2,22,1.11,10647,36,106,43,46,866,559.0,587,472,60,122.0,180,1,372,250,101,0,0,566,-2934,8488,559,-5.59,,,,,,,,,,,,
414523,1564153159225,1,2.54,1.66,0.79,1.58,1.21,0.79,-0.81,0.5,16,0,23,1.13,10695,36,106,43,46,858,559.0,563,470,60,122.0,180,1,372,250,101,0,0,574,1780,-3210,558,-5.59,,,,,,,,,,,,
414543,1564153159245,3,2.56,1.67,0.79,1.59,1.21,0.8,-0.93,0.64,17,-0,22,1.23,10647,36,106,43,46,854,562.0,557,470,60,122.0,180,1,372,250,101,0,0,566,-28648,1267,562,-5.59,44.68124,10.024524,55.15,174.0,0,0.0,-1,0.0,0.0,0,2.93,6.909
414563,1564153159265,3,2.59,1.66,0.79,1.59,1.21,0.88,-1.04,0.78,17,2,21,1.36,10689,36,106,43,46,850,562.0,575,460,60,123.0,180,1,372,250,101,0,0,565,6274,1,563,-5.59,,,,,,,,,,,,
414583,1564153159285,2,2.61,1.66,0.79,1.59,1.21,0.93,-1.05,0.9,18,4,19,1.41,10647,36,106,43,46,852,562.0,584,465,60,122.0,179,1,372,250,101,0,0,576,-32248,-3210,565,-5.59,,,,,,,,,,,,
414603,1564153159303,0,2.61,1.67,0.79,1.6,1.22,0.94,-1.03,0.85,19,2,20,1.39,10726,36,106,43,46,857,566.0,600,467,60,122.0,179,1,372,250,101,0,0,568,6274,243,566,-5.59,,,,,,,,,,,,
414623,1564153159323,2,2.61,1.66,0.79,1.59,1.21,0.91,-0.78,0.59,19,-1,24,1.2,10702,36,106,43,46,862,567.0,601,462,60,122.0,179,1,372,250,101,0,0,570,-22519,-3210,567,-5.59,,,,,,,,,,,,
414643,1564153159343,3,2.61,1.66,0.79,1.59,1.22,0.77,-0.69,0.33,21,2,26,1.04,10757,36,106,43,46,868,568.0,597,471,60,121.0,179,1,372,250,101,0,0,575,14504,-4035,568,-5.59,44.681252,10.024529,55.57,174.0,0,0.0,-1,0.0,0.0,0,2.93,6.9107
414663,1564153159363,3,2.61,1.66,0.79,1.59,1.21,0.83,-0.82,0.42,21,3,27,1.17,10831,36,106,43,46,871,566.0,608,464,60,122.0,179,1,372,251,101,0,0,562,-9072,-1894,566,-5.59,,,,,,,,,,,,
414683,1564153159383,2,2.6,1.66,0.79,1.58,1.22,0.91,-0.94,0.57,21,1,26,1.31,10782,36,106,43,46,873,566.0,610,465,60,122.0,179,1,372,250,102,0,0,572,-28648,-16384,565,-5.59,,,,,,,,,,,,
414703,1564153159405,1,2.57,1.65,0.79,1.6,1.21,0.87,-0.94,0.68,22,2,26,1.28,10844,36,106,43,46,878,567.0,600,467,60,122.0,179,1,372,251,102,0,0,572,2524,30208,567,-5.59,,,,,,,,,,,,
414723,1564153159425,0,2.55,1.66,0.8,1.59,1.22,0.88,-0.68,0.47,22,1,29,1.11,10850,36,106,43,46,884,568.0,598,465,60,122.0,179,1,372,250,102,0,0,579,2524,208,568,-5.59,,,,,,,,,,,,
414743,1564153159445,2,2.51,1.66,0.8,1.59,1.21,0.79,-0.69,0.29,22,1,31,1.05,10806,36,106,43,46,889,570.0,605,464,60,121.0,179,1,372,251,102,0,0,588,14504,-4035,566,-5.59,44.681263,10.024534,55.57,174.0,0,0.0,-1,0.0,0.0,0,2.94,6.9124
414763,1564153159465,3,2.47,1.65,0.8,1.59,1.21,0.8,-0.82,0.46,22,2,31,1.14,10875,36,106,43,46,893,569.0,610,463,60,121.0,179,1,372,251,102,0,0,563,-9072,-16384,569,-5.59,,,,,,,,,,,,
414783,1564153159485,-2,2.45,1.65,0.79,1.58,1.21,0.87,-0.85,0.61,20,3,28,1.21,10819,36,106,43,46,896,566.0,610,466,60,121.0,181,1,372,251,103,0,0,572,6274,15649,566,-5.59,,,,,,,,,,,,
414803,1564153159504,2,2.43,1.65,0.79,1.59,1.21,0.82,-0.72,0.37,20,3,29,1.09,10844,36,106,43,46,900,564.0,613,468,60,122.0,181,1,372,251,103,0,0,574,1780,-25872,564,-5.59,,,,,,,,,,,,
414823,1564153159524,1,2.42,1.64,0.79,1.57,1.2,0.78,-0.46,0.15,19,1,30,0.91,10800,36,106,43,46,901,564.0,612,468,60,122.0,181,1,372,250,103,0,0,572,-2336,10432,564,-5.59,,,,,,,,,,,,
414843,1564153159544,2,2.43,1.63,0.78,1.58,1.2,0.67,-0.47,0.02,18,2,30,0.82,10726,36,106,43,46,901,567.0,612,463,60,121.0,181,1,372,250,103,0,0,578,-506,-3210,564,-5.59,44.681278,10.024542,55.7,174.0,0,0.0,-1,0.0,0.0,0,2.94,6.9141
414863,1564153159564,3,2.45,1.63,0.79,1.57,1.21,0.7,-0.62,0.15,17,3,28,0.93,10751,35,106,43,46,899,564.0,610,465,60,122.0,181,1,372,250,103,0,0,569,-8962,774,564,-5.59,,,,,,,,,,,,
414883,1564153159584,3,2.47,1.64,0.79,1.58,1.2,0.79,-0.76,0.33,16,1,26,1.09,10702,36,106,43,45,898,562.0,607,460,60,122.0,179,1,365,250,101,0,0,572,2524,1267,562,-5.59,,,,,,,,,,,,
414903,1564153159604,-1,2.5,1.63,0.78,1.57,1.21,0.71,-0.88,0.49,15,1,23,1.13,10751,35,106,43,45,896,563.0,608,465,60,122.0,179,1,365,246,101,0,0,570,2524,-8188,562,-5.59,,,,,,,,,,,,
414923,1564153159624,1,2.51,1.64,0.79,1.58,1.22,0.84,-0.68,0.59,15,2,22,1.08,10689,35,106,43,45,895,565.0,576,465,60,122.0,179,1,365,246,101,0,0,575,-22519,15649,565,-5.59,,,,,,,,,,,,
414943,1564153159644,1,2.51,1.64,0.78,1.59,1.21,0.78,-0.41,0.37,16,3,24,0.88,10744,34,106,43,45,894,566.0,583,460,60,122.0,179,1,365,246,101,0,0,567,-8962,30208,566,-5.59,44.68129,10.024549,56.45,174.0,0,0.0,-1,0.0,0.0,0,2.94,6.9157
414963,1564153159664,1,2.51,1.64,0.78,1.59,1.22,0.69,-0.37,0.14,17,2,25,0.79,10708,33,106,43,45,896,571.0,582,465,60,122.0,179,1,365,246,101,0,0,564,-8962,15649,571,-5.59,,,,,,,,,,,,
414983,1564153159684,2,2.52,1.64,0.78,1.59,1.22,0.77,-0.44,0.19,17,1,26,0.89,10708,33,106,43,44,898,569.0,599,461,60,122.0,176,1,357,243,100,0,0,568,-8186,-25872,569,-5.59,,,,,,,,,,,,
415003,1564153159704,1,2.52,1.64,0.78,1.59,1.2,0.8,-0.6,0.35,18,1,28,1.0,10763,32,106,43,44,901,569.0,605,468,60,122.0,176,1,357,243,100,0,0,568,-8186,243,570,-5.59,,,,,,,,,,,,
415023,1564153159724,3,2.52,1.63,0.78,1.58,1.2,0.91,-0.63,0.51,19,4,27,1.11,10714,33,106,43,43,904,572.0,610,464,60,121.0,176,1,350,240,100,0,0,566,-3082,-28648,572,-5.59,,,,,,,,,,,,
415043,1564153159744,1,2.54,1.64,0.78,1.58,1.2,0.93,-0.59,0.34,20,5,28,1.1,10769,33,106,43,43,906,570.0,614,461,60,122.0,176,1,350,240,100,0,0,565,-3082,15649,570,-5.59,44.681301,10.024559,55.92,174.0,0,0.0,-1,0.0,0.0,0,2.94,6.9174
415063,1564153159764,1,2.56,1.64,0.78,1.59,1.2,0.87,-0.57,0.1,20,4,29,1.04,10726,33,106,43,43,907,571.0,608,464,60,122.0,176,1,350,239,100,0,0,569,-8186,8488,573,-5.59,,,,,,,,,,,,
415083,1564153159784,1,2.56,1.64,0.78,1.58,1.21,0.84,-0.55,0.02,21,2,30,1.0,10689,33,106,43,43,905,573.0,607,471,60,121.0,168,1,350,240,97,0,0,560,-8186,15649,573,-5.59,,,,,,,,,,,,
415103,1564153159804,2,2.57,1.64,0.78,1.59,1.21,0.83,-0.63,0.1,22,-1,32,1.04,10726,33,106,43,43,903,572.0,599,464,60,121.0,168,1,350,239,97,0,0,565,-2934,2048,573,-5.59,,,,,,,,,,,,
415123,1564153159824,2,2.55,1.64,0.78,1.59,1.21,0.81,-0.76,0.28,23,1,31,1.11,10641,33,106,43,43,897,572.0,601,462,60,122.0,168,1,350,239,97,0,0,558,-28648,17344,572,-5.59,,,,,,,,,,,,
415143,1564153159844,2,2.54,1.64,0.78,1.59,1.21,0.84,-0.88,0.45,23,3,29,1.22,10671,33,106,43,43,891,572.0,603,467,60,122.0,168,1,350,242,97,0,0,553,-30064,-25872,574,-5.59,44.681313,10.02457,55.82,174.1,0,0.0,-1,0.0,0.0,0,2.94,6.9191
415163,1564153159864,2,2.53,1.64,0.78,1.58,1.2,0.94,-0.99,0.6,23,5,28,1.37,10599,33,106,43,44,887,573.0,607,464,60,122.0,168,1,357,242,97,0,0,556,6274,6273,573,-5.59,,,,,,,,,,,,
415183,1564153159884,3,2.51,1.64,0.78,1.58,1.21,0.96,-1.09,0.68,24,6,27,1.45,10671,33,106,43,44,881,572.0,615,466,60,122.0,169,1,357,242,97,0,0,552,-28648,208,572,-5.59,,,,,,,,,,,,
415203,1564153159906,3,2.51,1.63,0.77,1.59,1.2,1.06,-1.04,0.56,24,8,28,1.49,10653,32,106,43,43,869,570.0,612,467,60,123.0,169,1,350,239,97,0,0,552,2104,8488,569,-5.59,,,,,,,,,,,,
415223,1564153159926,1,2.54,1.63,0.78,1.58,1.2,1.0,-0.93,0.35,24,7,28,1.36,10720,32,106,43,43,857,569.0,609,467,60,122.0,169,1,350,240,97,0,0,556,-32248,-4035,569,-5.59,,,,,,,,,,,,
415243,1564153159946,0,2.58,1.62,0.77,1.57,1.2,0.9,-0.86,0.11,24,4,30,1.24,10720,32,106,43,43,850,566.0,617,467,60,122.0,169,1,350,239,97,0,0,557,-32248,-12040,566,-5.59,44.681324,10.024581,56.0,174.1,0,0.0,-1,0.0,0.0,0,2.94,6.9207
415263,1564153159966,2,2.62,1.62,0.77,1.58,1.2,0.85,-0.82,-0.02,24,1,30,1.18,10653,32,106,43,43,842,563.0,601,467,60,122.0,169,1,350,240,97,0,0,559,6274,-3210,564,-5.59,,,,,,,,,,,,
415283,1564153159986,2,2.67,1.63,0.77,1.58,1.2,0.84,-0.89,0.17,24,-2,31,1.22,10695,32,106,43,43,832,560.0,602,467,60,122.0,172,1,350,239,97,0,0,565,14504,30208,560,-5.59,,,,,,,,,,,,
415303,1564153159996,1,2.72,1.62,0.78,1.58,1.21,0.81,-0.97,0.35,25,-2,30,1.27,10629,32,106,43,42,820,560.0,607,466,60,121.0,172,1,342,235,97,0,0,571,-9072,-3210,560,-5.59,,,,,,,,,,,,
415323,1564153160016,2,2.76,1.63,0.77,1.59,1.2,0.86,-1.08,0.51,25,-3,27,1.38,10677,32,106,43,42,817,559.0,604,462,60,122.0,172,1,342,236,97,0,0,571,-28648,-12040,557,-5.59,,,,,,,,,,,,
415343,1564153160036,2,2.81,1.63,0.78,1.59,1.21,0.93,-1.17,0.66,25,-3,25,1.49,10641,32,106,43,42,813,556.0,618,467,60,121.0,172,1,342,235,97,0,0,571,10408,259,556,-5.59,44.681335,10.024593,55.44,174.1,0,0.0,-1,0.0,0.0,0,2.95,6.9224
415363,1564153160056,3,2.84,1.63,0.78,1.58,1.21,0.93,-1.25,0.7,25,-4,26,1.56,10714,32,106,43,42,818,554.0,598,466,60,122.0,172,1,342,236,97,0,0,577,2524,1267,554,-5.59,,,,,,,,,,,,
415383,1564153160076,1,2.85,1.63,0.78,1.58,1.21,0.97,-1.16,0.69,26,-4,26,1.51,10695,32,106,43,42,823,552.0,469,466,60,123.0,172,1,342,236,95,0,0,579,15679,1760,552,-5.59,,,,,,,,,,,,
415403,1564153160094,2,2.85,1.63,0.77,1.59,1.21,0.87,-0.97,0.46,28,-3,29,1.3,10763,32,106,43,42,831,549.0,523,467,60,123.0,172,1,342,237,95,0,0,572,26178,774,549,-5.59,,,,,,,,,,,,
415423,1564153160114,2,2.85,1.63,0.77,1.59,1.21,0.81,-0.94,0.31,29,-2,32,1.24,10782,32,106,43,42,839,549.0,539,467,60,122.0,172,1,342,236,95,0,0,575,26178,-16384,549,-5.59,,,,,,,,,,,,
415443,1564153160134,1,2.87,1.63,0.77,1.59,1.21,0.88,-1.04,0.33,29,-2,33,1.36,10751,32,106,43,41,853,548.0,569,466,60,122.0,172,1,335,237,95,0,0,578,10994,243,548,-5.59,44.681343,10.024607,55.56,174.2,0,0.0,-1,0.0,0.0,0,2.95,6.924
415463,1564153160154,3,2.88,1.62,0.77,1.58,1.21,0.9,-1.14,0.49,29,-5,33,1.45,10825,32,106,43,41,867,546.0,587,468,60,123.0,172,1,335,235,95,0,0,568,-3414,-3210,545,-5.59,,,,,,,,,,,,
415483,1564153160174,1,2.88,1.62,0.76,1.59,1.2,0.96,-1.11,0.62,28,-4,36,1.47,10788,32,106,43,41,875,542.0,595,466,60,123.0,175,1,335,234,95,0,0,586,-28648,30208,540,-5.59,,,,,,,,,,,,
415503,1564153160206,-1,2.88,1.62,0.77,1.58,1.21,0.85,-0.93,0.42,30,-1,37,1.26,10813,32,107,43,41,881,539.0,591,465,60,123.0,175,1,335,235,95,0,0,572,-32248,1267,539,-5.59,,,,,,,,,,,,
415523,1564153160226,0,2.87,1.62,0.78,1.58,1.21,0.83,-0.85,0.2,31,-2,37,1.18,10744,32,106,43,41,885,536.0,600,466,60,123.0,175,1,335,234,95,0,0,564,10408,30208,536,-5.59,,,,,,,,,,,,
415543,1564153160246,0,2.87,1.63,0.77,1.58,1.21,0.8,-0.86,0.09,31,-5,38,1.17,10593,31,107,43,41,888,534.0,598,470,60,121.0,175,1,335,233,95,0,0,573,10408,1760,534,-5.59,44.681354,10.02462,54.81,174.2,0,0.0,-1,0.0,0.0,0,2.95,6.9257
415563,1564153160266,2,2.84,1.63,0.77,1.59,1.21,0.79,-0.9,0.04,31,-6,42,1.2,10581,31,106,43,41,887,535.0,603,466,60,122.0,175,1,335,231,95,0,0,587,-22519,2211,535,-5.59,,,,,,,,,,,,
415583,1564153160286,1,2.82,1.62,0.77,1.59,1.21,0.75,-0.91,-0.01,31,-5,44,1.18,10527,31,106,43,41,884,535.0,538,465,60,122.0,171,1,335,230,91,0,0,592,771,1780,535,-5.59,,,,,,,,,,,,
415603,1564153160304,1,2.79,1.63,0.77,1.59,1.2,0.78,-1.02,0.02,30,-4,44,1.28,10593,31,107,43,41,882,534.0,551,465,60,122.0,171,1,335,231,91,0,0,587,771,-22359,534,-5.59,,,,,,,,,,,,
415623,1564153160324,2,2.76,1.62,0.77,1.59,1.2,0.78,-1.12,0.16,30,-4,44,1.36,10551,31,107,43,41,879,532.0,566,465,60,123.0,171,1,335,231,91,0,0,583,-6528,-22359,532,-5.59,,,,,,,,,,,,
415643,1564153160344,2,2.71,1.62,0.77,1.59,1.2,0.79,-1.2,0.34,31,-3,45,1.44,10623,31,107,43,41,878,536.0,521,472,60,122.0,171,1,335,233,91,0,0,575,-6528,-22359,537,-5.59,44.681362,10.024635,54.07,174.2,0,0.0,-1,0.0,0.0,0,2.95,6.9274
415663,1564153160364,2,2.72,1.62,0.76,1.58,1.2,0.83,-1.27,0.51,32,0,44,1.52,10581,31,107,43,41,878,539.0,472,465,60,122.0,171,1,335,231,91,0,0,568,3,-3190,540,-5.59,,,,,,,,,,,,
415683,1564153160384,3,2.73,1.61,0.77,1.59,1.21,0.86,-1.34,0.65,32,3,44,1.59,10629,31,107,43,41,881,541.0,407,466,60,122.0,173,1,335,233,94,0,0,568,771,6273,541,-5.59,,,,,,,,,,,,
415703,1564153160404,4,2.76,1.61,0.77,1.59,1.2,0.93,-1.38,0.65,32,5,43,1.66,10587,31,106,43,41,885,538.0,423,465,60,123.0,173,1,335,231,94,0,0,546,-6528,-28648,538,-5.59,,,,,,,,,,,,
415723,1564153160424,3,2.8,1.61,0.77,1.59,1.2,0.96,-1.4,0.49,32,4,42,1.7,10611,31,106,43,41,888,530.0,398,468,60,123.0,173,1,335,233,94,0,0,555,-32768,2104,530,-5.59,,,,,,,,,,,,
415743,1564153160444,4,2.87,1.62,0.76,1.58,1.2,0.95,-1.33,0.39,32,4,41,1.63,10463,31,106,43,41,892,528.0,398,465,60,122.0,173,1,335,230,94,0,0,573,248,-28648,528,-5.59,44.68137,10.024652,53.75,174.3,0,0.0,-1,0.0,0.0,0,2.95,6.929
415763,1564153160464,3,2.94,1.62,0.76,1.58,1.2,0.98,-1.38,0.39,31,2,39,1.69,10451,31,107,43,41,897,521.0,411,463,60,123.0,173,1,335,230,94,0,0,571,-1818,-28648,521,-5.59,,,,,,,,,,,,
415783,1564153160484,2,0.33,1.59,0.76,1.57,1.19,1.04,-1.44,0.45,31,2,37,1.77,10370,31,107,43,41,903,513.0,364,466,60,122.0,175,1,335,230,90,0,0,555,1,-28648,513,-5.59,,,,,,,,,,,,
415803,1564153160505,2,0.36,1.59,0.76,1.57,1.19,1.05,-1.49,0.6,31,2,37,1.82,10382,31,107,43,41,908,505.0,371,468,60,122.0,175,1,335,230,90,0,0,551,8488,-22263,505,-5.59,,,,,,,,,,,,
415823,1564153160525,2,0.37,1.58,0.76,1.57,1.18,1.05,-1.51,0.74,31,2,37,1.84,10290,31,107,43,41,911,502.0,385,469,60,123.0,175,1,335,230,90,0,0,561,2212,-32248,502,-5.59,,,,,,,,,,,,
415843,1564153160545,1,0.35,1.58,0.76,1.57,1.18,0.94,-1.48,0.86,30,1,37,1.75,10302,31,107,43,41,915,500.0,396,463,60,122.0,175,1,335,230,90,0,0,568,-1923,6274,500,-5.59,44.681377,10.024668,52.89,174.3,0,0.0,-1,0.0,0.0,0,2.95,6.9307
415863,1564153160565,0,2.99,1.61,0.76,1.58,1.2,0.85,-1.43,0.76,30,1,39,1.66,10273,31,107,43,41,920,496.0,405,465,60,123.0,175,1,335,230,90,0,0,569,243,14504,496,-5.59,,,,,,,,,,,,
415883,1564153160585,0,2.93,1.61,0.76,1.58,1.2,0.86,-1.39,0.49,31,0,40,1.64,10302,31,107,43,41,925,499.0,405,464,60,123.0,181,1,335,230,90,0,0,569,243,14504,500,-5.59,,,,,,,,,,,,
415903,1564153160605,2,2.89,1.61,0.77,1.58,1.21,0.88,-1.35,0.25,32,1,42,1.61,10302,31,107,43,41,927,504.0,429,470,60,123.0,181,1,335,230,90,0,0,571,30272,-30064,504,-5.59,,,,,,,,,,,,
415923,1564153160625,3,2.85,1.6,0.77,1.58,1.21,0.93,-1.3,0.06,32,2,42,1.6,10319,31,107,43,41,932,506.0,456,465,60,123.0,181,1,335,230,90,0,0,565,243,-32248,506,-5.59,,,,,,,,,,,,
415943,1564153160645,3,2.8,1.61,0.76,1.59,1.2,0.98,-1.35,-0.02,31,3,43,1.67,10387,31,107,43,41,945,508.0,454,463,60,123.0,181,1,335,230,90,0,0,569,243,2104,508,-5.59,44.681381,10.024684,52.17,174.4,0,0.0,-1,0.0,0.0,0,2.95,6.9324
415963,1564153160665,2,2.75,1.6,0.76,1.58,1.2,1.02,-1.41,0.18,31,5,42,1.74,10347,31,107,43,41,957,511.0,446,465,60,123.0,181,1,335,230,90,0,0,564,-3210,14504,511,-5.59,,,,,,,,,,,,
415983,1564153160685,2,2.71,1.6,0.77,1.58,1.2,1.01,-1.47,0.36,32,7,41,1.78,10399,31,107,43,41,967,512.0,395,466,60,122.0,176,1,335,230,90,0,0,563,8488,-30064,512,-5.59,,,,,,,,,,,,
416003,1564153160705,1,2.69,1.6,0.76,1.58,1.2,1.09,-1.52,0.52,33,7,40,1.87,10324,31,107,43,41,977,516.0,381,467,60,123.0,176,1,335,230,90,0,0,548,3576,-2934,516,-5.59,,,,,,,,,,,,
416023,1564153160725,1,2.65,1.61,0.77,1.59,1.2,1.04,-1.54,0.63,34,7,41,1.86,10285,31,107,43,41,987,519.0,412,469,60,122.0,176,1,335,230,90,0,0,540,-9203,-3082,519,-5.59,,,,,,,,,,,,
416043,1564153160745,-1,2.63,1.59,0.76,1.57,1.2,1.01,-1.44,0.5,34,6,43,1.76,10113,31,107,43,41,996,518.0,378,461,60,123.0,176,1,335,230,90,0,0,564,3576,-2934,518,-5.59,44.681385,10.024702,51.13,174.4,0,0.0,-1,0.0,0.0,0,2.96,6.9341
416063,1564153160765,1,2.63,1.6,0.76,1.57,1.19,1.03,-1.41,0.34,33,5,43,1.74,10064,31,107,43,41,995,520.0,378,462,60,123.0,176,1,335,230,90,0,0,551,32033,-506,520,-5.59,,,,,,,,,,,,
416083,1564153160785,1,2.62,1.59,0.76,1.57,1.19,1.03,-1.45,0.45,33,4,42,1.78,10048,32,107,43,41,995,517.0,384,466,60,122.0,167,1,335,230,87,0,0,526,-1923,-8186,517,-5.59,,,,,,,,,,,,
416103,1564153160803,-0,2.63,1.6,0.76,1.57,1.2,1.01,-1.35,0.41,32,3,42,1.69,9936,32,107,43,41,993,518.0,378,467,60,121.0,167,1,335,229,87,0,0,536,-23367,-2934,518,-5.59,,,,,,,,,,,,
416123,1564153160823,2,2.64,1.59,0.76,1.57,1.2,1.03,-1.37,0.31,32,2,41,1.72,9884,32,107,43,41,992,515.0,419,464,60,122.0,167,1,335,229,87,0,0,539,-17956,2524,515,-5.59,,,,,,,,,,,,
416143,1564153160843,2,2.63,1.59,0.75,1.57,1.2,1.05,-1.39,0.32,31,-0,41,1.74,9889,32,107,43,41,991,513.0,445,471,60,122.0,167,1,335,229,87,0,0,524,-9203,-22519,513,-5.59,44.681389,10.024719,50.57,174.4,0,0.0,-1,0.0,0.0,0,2.96,6.9357
416163,1564153160863,3,2.63,1.6,0.76,1.58,1.2,1.05,-1.33,0.28,31,-1,40,1.69,9832,32,107,43,41,990,516.0,472,471,60,122.0,167,1,335,229,87,0,0,530,-23367,2524,516,-5.59,,,,,,,,,,,,
416183,1564153160883,1,2.63,1.59,0.75,1.57,1.2,1.09,-1.35,0.35,31,-1,40,1.74,9832,32,107,43,41,998,519.0,493,471,60,121.0,164,1,335,228,85,0,0,532,-23367,6274,519,-5.59,,,,,,,,,,,,
416203,1564153160905,1,2.62,1.59,0.76,1.57,1.19,1.08,-1.26,0.32,30,-2,40,1.66,9852,32,107,43,41,1006,515.0,504,468,60,122.0,164,1,335,229,85,0,0,530,-17956,-28648,515,-5.59,,,,,,,,,,,,
416223,1564153160925,2,2.62,1.59,0.76,1.57,1.2,1.07,-1.28,0.3,29,-2,40,1.67,9920,32,107,43,41,1015,514.0,514,463,60,123.0,164,1,335,229,85,0,0,522,-23367,-32248,514,-5.59,,,,,,,,,,,,
416243,1564153160945,-1,2.62,1.59,0.76,1.56,1.2,0.99,-1.25,0.4,29,-2,40,1.59,9904,32,107,43,41,1024,512.0,525,466,60,122.0,164,1,335,229,85,0,0,521,3576,14504,512,-5.59,44.681389,10.024737,50.78,174.4,0,0.0,-1,0.0,0.0,0,2.96,6.9374
416263,1564153160965,2,2.62,1.58,0.76,1.57,1.2,1.01,-1.2,0.29,29,-4,38,1.57,9884,32,107,43,41,1045,512.0,528,471,60,122.0,164,1,335,229,85,0,0,505,-17956,-28648,512,-5.59,,,,,,,,,,,,
416283,1564153160985,1,2.61,1.58,0.76,1.58,1.2,0.99,-1.25,0.46,29,-3,38,1.59,9858,32,107,43,41,1066,516.0,538,468,60,122.0,165,1,335,229,85,0,0,520,2212,6274,516,-5.59,,,,,,,,,,,,
416303,1564153160995,3,2.59,1.59,0.76,1.58,1.2,0.97,-1.2,0.39,29,-3,37,1.54,9745,32,107,43,41,1080,517.0,539,469,60,122.0,165,1,335,228,85,0,0,546,-23367,2524,515,-5.59,,,,,,,,,,,,
416323,1564153161015,-2,2.58,1.6,0.76,1.58,1.2,0.94,-1.19,0.39,29,-3,38,1.52,9745,32,107,43,41,1092,516.0,535,465,60,122.0,165,1,335,227,85,0,0,543,2212,-28648,517,-5.59,,,,,,,,,,,,
416343,1564153161035,1,2.56,1.59,0.76,1.57,1.2,0.93,-1.15,0.39,28,-2,39,1.48,9780,32,107,43,41,1103,516.0,501,467,60,121.0,165,1,335,228,85,0,0,533,-23367,2088,517,-5.59,44.681389,10.024755,50.58,174.5,0,0.0,-1,0.0,0.0,0,2.96,6.9391
416363,1564153161055,2,2.53,1.58,0.76,1.57,1.2,0.89,-1.21,0.44,28,-1,40,1.5,9858,32,107,43,41,1114,516.0,476,466,60,122.0,165,1,335,229,85,0,0,509,10305,2524,519,-5.59,,,,,,,,,,,,
416383,1564153161075,3,2.5,1.59,0.76,1.58,1.2,0.83,-1.07,0.41,28,-1,39,1.36,9847,32,107,43,41,1117,517.0,482,471,60,121.0,163,1,335,228,85,0,0,497,32033,-28648,517,-5.59,,,,,,,,,,,,
416403,1564153161105,2,2.49,1.58,0.76,1.56,1.2,0.91,-1.09,0.35,27,0,39,1.42,9816,32,107,43,41,1116,519.0,432,462,60,122.0,163,1,335,228,85,0,0,515,32033,-30064,519,-5.59,,,,,,,,,,,,
416423,1564153161125,-1,2.51,1.57,0.75,1.56,1.2,0.87,-1.07,0.27,26,0,38,1.38,9832,32,106,43,41,1117,517.0,399,468,60,122.0,163,1,335,228,85,0,0,511,32033,-28648,518,-5.59,,,,,,,,,,,,
416443,1564153161145,2,2.51,1.58,0.75,1.57,1.19,0.88,-1.05,0.32,25,1,37,1.37,9801,32,107,43,41,1119,516.0,405,465,60,122.0,163,1,335,228,85,0,0,508,-6441,-28648,515,-5.59,44.681389,10.024772,50.2,174.4,0,0.0,-1,0.0,0.0,0,2.96,6.9407
416463,1564153161165,3,2.51,1.58,0.76,1.56,1.2,0.83,-0.97,0.38,25,1,37,1.28,9689,32,107,43,41,1121,514.0,390,467,60,122.0,163,1,335,227,85,0,0,522,505,-32248,515,-5.59,,,,,,,,,,,,
416483,1564153161185,1,2.51,1.58,0.76,1.56,1.2,0.8,-0.95,0.53,24,2,35,1.25,9635,32,107,43,41,1123,514.0,401,471,60,123.0,161,1,335,227,83,0,0,506,505,2088,515,-5.59,,,,,,,,,,,,
416503,1564153161203,4,2.51,1.58,0.75,1.57,1.2,0.82,-0.88,0.5,23,-0,35,1.2,9630,32,107,43,41,1128,513.0,413,461,60,122.0,161,1,335,226,83,0,0,510,-1818,-28648,513,-5.59,,,,,,,,,,,,
416523,1564153161223,0,2.5,1.57,0.76,1.56,1.2,0.75,-0.89,0.47,23,-3,33,1.16,9610,32,107,43,41,1133,512.0,418,467,60,123.0,161,1,335,227,83,0,0,506,-6656,-9072,517,-5.59,,,,,,,,,,,,
416543,1564153161243,0,2.49,1.58,0.76,1.57,1.2,0.83,-0.93,0.43,23,-3,31,1.25,9546,35,107,43,41,1138,516.0,452,466,60,122.0,161,1,335,226,83,0,0,507,1,2524,514,-5.59,44.681385,10.02479,49.86,174.4,0,0.0,-1,0.0,0.0,0,2.96,6.9424
416563,1564153161263,3,2.47,1.56,0.75,1.56,1.2,0.78,-0.83,0.48,22,-3,30,1.14,9561,39,106,43,43,1142,514.0,471,460,60,122.0,161,1,350,233,83,0,0,504,1,6274,514,-5.59,,,,,,,,,,,,
416583,1564153161283,-0,2.46,1.55,0.76,1.55,1.19,0.77,-0.86,0.55,22,-2,29,1.16,9576,47,107,43,47,1146,515.0,482,462,60,122.0,168,1,380,241,87,0,0,503,-6656,-22519,515,-5.59,,,,,,,,,,,,
416603,1564153161303,2,2.45,1.55,0.75,1.55,1.19,0.76,-0.79,0.49,21,-2,29,1.09,9635,53,107,43,50,1152,515.0,497,465,60,123.0,168,1,388,280,87,0,0,502,-6656,1248,515,-5.59,,,,,,,,,,,,
416623,1564153161323,-1,2.45,1.54,0.75,1.53,1.19,0.74,-0.8,0.41,20,-2,29,1.09,9645,57,106,43,54,1155,514.0,509,467,60,122.0,168,1,400,326,87,0,0,507,-32768,2524,514,-5.59,,,,,,,,,,,,
416643,1564153161343,2,2.45,1.55,0.75,1.54,1.19,0.8,-0.77,0.31,20,-2,27,1.11,9689,58,107,43,57,1157,514.0,518,464,60,121.0,168,1,405,344,87,0,0,506,-6528,2088,514,-5.59,44.681381,10.024807,50.59,174.4,0,0.0,-1,0.0,0.0,0,2.96,6.944
416663,1564153161363,1,2.46,1.54,0.75,1.54,1.2,0.85,-0.8,0.47,20,0,26,1.17,9821,58,106,43,59,1166,512.0,529,467,60,122.0,168,1,407,362,87,0,0,507,248,2088,512,-5.59,,,,,,,,,,,,
416683,1564153161383,1,2.46,1.55,0.75,1.54,1.19,0.86,-0.7,0.4,19,-0,26,1.11,9989,58,106,43,59,1183,515.0,527,467,60,121.0,267,1,407,368,138,0,0,518,248,6274,515,-5.59,,,,,,,,,,,,
416703,1564153161403,3,2.46,1.55,0.75,1.55,1.19,0.86,-0.57,0.35,18,-1,26,1.03,10096,58,106,43,60,1199,512.0,541,467,60,122.0,267,1,413,379,138,0,0,521,-32768,-32248,512,-5.59,,,,,,,,,,,,
416723,1564153161423,2,2.47,1.55,0.75,1.55,1.19,0.9,-0.58,0.43,18,1,24,1.07,10118,58,106,43,60,1214,514.0,548,463,60,122.0,267,1,415,380,138,0,0,530,3,-22519,514,-5.59,,,,,,,,,,,,
416743,1564153161443,-0,2.46,1.55,0.75,1.55,1.19,0.88,-0.7,0.51,18,1,23,1.13,10146,58,106,43,60,1233,515.0,557,469,60,121.0,267,1,417,380,138,0,0,541,-22519,14504,515,-5.59,44.681381,10.024824,50.29,174.4,0,0.0,-1,0.0,0.0,0,2.97,6.9457
416763,1564153161463,3,2.46,1.54,0.75,1.55,1.19,0.89,-0.67,0.56,17,1,23,1.11,10064,58,106,43,61,1259,522.0,561,465,60,121.0,267,1,414,389,138,0,0,545,2109,-22519,522,-5.59,,,,,,,,,,,,
416783,1564153161483,2,2.47,1.54,0.74,1.54,1.19,0.95,-0.54,0.44,16,-0,23,1.09,10042,58,106,43,61,1281,524.0,562,462,60,123.0,284,1,412,388,148,0,0,540,-32248,-22519,524,-5.59,,,,,,,,,,,,
416803,1564153161502,2,2.46,1.53,0.75,1.53,1.19,0.92,-0.57,0.51,16,0,21,1.08,10124,58,106,43,61,1292,524.0,565,466,60,122.0,284,1,419,380,148,0,0,542,-21872,-8186,524,-5.59,,,,,,,,,,,,
416823,1564153161522,1,2.46,1.53,0.75,1.54,1.19,0.81,-0.58,0.56,15,1,21,1.0,10140,58,106,43,61,1298,526.0,566,463,60,122.0,284,1,420,390,148,0,0,546,-4054,2524,526,-5.59,,,,,,,,,,,,
416843,1564153161542,1,2.46,1.54,0.75,1.54,1.19,0.75,-0.58,0.46,15,-1,22,0.94,10279,58,106,43,61,1288,527.0,566,465,60,122.0,284,1,431,391,148,0,0,545,-3856,2524,527,-5.59,44.681377,10.024841,50.9,174.4,0,0.0,-1,0.0,0.0,0,2.97,6.9474
416863,1564153161562,1,2.46,1.54,0.75,1.53,1.2,0.68,-0.43,0.36,15,-1,23,0.8,10330,58,106,43,61,1277,531.0,565,470,60,122.0,284,1,436,393,148,0,0,549,15679,-23623,531,-5.59,,,,,,,,,,,,
416883,1564153161582,3,2.47,1.53,0.75,1.54,1.2,0.73,-0.3,0.28,15,-0,23,0.79,10324,59,106,43,61,1257,534.0,567,465,60,122.0,289,1,435,393,155,0,0,554,15679,6273,537,-5.59,,,,,,,,,,,,
416903,1564153161602,3,2.49,1.53,0.75,1.54,1.2,0.73,-0.2,0.21,15,0,22,0.75,10428,59,106,43,61,1236,535.0,581,463,60,122.0,289,1,444,395,155,0,0,554,15679,-32248,537,-5.59,,,,,,,,,,,,
416923,1564153161622,3,2.51,1.53,0.75,1.54,1.19,0.74,-0.14,0.09,14,-0,22,0.75,10439,59,106,43,61,1209,539.0,573,460,60,122.0,289,1,444,395,155,0,0,557,-8187,6273,539,-5.59,,,,,,,,,,,,
416943,1564153161642,2,2.54,1.53,0.74,1.54,1.19,0.67,-0.13,0.04,15,-1,21,0.68,10521,59,106,43,62,1182,543.0,579,471,60,122.0,289,1,449,407,155,0,0,561,2524,-32504,543,-5.59,44.68137,10.024858,52.29,174.4,0,0.0,-1,0.0,0.0,0,2.97,6.949
416963,1564153161662,4,2.56,1.54,0.75,1.55,1.2,0.72,-0.06,0.06,15,-0,21,0.72,10515,59,106,43,61,1175,544.0,580,461,60,122.0,289,1,450,397,155,0,0,565,10408,1267,544,-5.59,,,,,,,,,,,,
416983,1564153161682,2,2.58,1.54,0.75,1.55,1.19,0.73,-0.06,-0.05,16,-0,21,0.73,10629,59,106,43,62,1168,551.0,590,461,60,122.0,300,1,450,409,164,0,0,571,2088,774,550,-5.59,,,,,,,,,,,,
417003,1564153161702,1,2.58,1.55,0.75,1.55,1.2,0.69,-0.06,-0.19,16,-1,22,0.7,10653,59,106,43,62,1156,551.0,591,465,60,122.0,300,1,450,409,164,0,0,583,-22519,-8188,552,-5.59,,,,,,,,,,,,
417023,1564153161722,2,2.59,1.55,0.75,1.56,1.2,0.66,-0.14,-0.13,17,-1,24,0.68,10775,59,106,43,62,1143,553.0,593,464,60,122.0,300,1,450,411,164,0,0,575,10408,30208,553,-5.59,,,,,,,,,,,,
417043,1564153161742,2,2.6,1.55,0.75,1.56,1.2,0.66,-0.32,0.08,18,-2,24,0.73,10901,59,106,43,62,1137,553.0,596,466,60,121.0,300,1,450,412,164,0,0,580,-22519,-3210,553,-5.59,44.681366,10.024875,53.1,174.4,0,0.0,-1,0.0,0.0,0,2.97,6.9507
417063,1564153161762,-0,2.59,1.55,0.75,1.55,1.2,0.65,-0.29,0.15,18,-0,24,0.71,10907,59,106,43,62,1131,557.0,600,466,60,122.0,300,1,450,413,164,0,0,592,10408,243,558,-5.59,,,,,,,,,,,,
417083,1564153161782,2,2.58,1.55,0.75,1.55,1.2,0.59,-0.27,0.01,20,-0,26,0.65,11042,60,106,43,62,1116,560.0,603,464,60,122.0,315,1,450,414,176,0,0,592,-28648,3472,560,-5.59,,,,,,,,,,,,
417103,1564153161802,2,2.57,1.55,0.75,1.56,1.21,0.65,-0.44,0.21,20,-1,25,0.79,11134,60,106,43,62,1101,566.0,607,465,60,122.0,315,1,448,417,176,0,0,600,-28648,-32504,566,-5.59,,,,,,,,,,,,
417123,1564153161822,1,2.54,1.56,0.75,1.57,1.2,0.6,-0.41,0.08,20,-0,26,0.73,11147,60,106,43,62,1090,568.0,621,466,60,123.0,315,1,448,425,176,0,0,603,14504,-32504,566,-5.59,,,,,,,,,,,,
417143,1564153161842,2,2.51,1.55,0.75,1.56,1.2,0.69,-0.51,0.27,20,1,26,0.86,11194,60,106,43,62,1080,569.0,618,467,60,121.0,315,1,447,420,176,0,0,589,2104,-768,570,-5.59,44.681362,10.024891,54.45,174.4,0,0.0,-1,0.0,0.0,0,2.97,6.9524
417163,1564153161862,1,2.49,1.55,0.76,1.55,1.21,0.61,-0.46,0.15,21,2,27,0.77,11254,60,106,43,62,1059,572.0,623,469,60,122.0,315,1,445,420,176,0,0,606,-28648,-30139,572,-5.59,,,,,,,,,,,,
417183,1564153161882,3,2.46,1.54,0.75,1.56,1.2,0.66,-0.59,0.33,20,1,27,0.89,11254,60,106,43,62,1036,574.0,626,470,60,121.0,312,1,445,418,179,0,0,600,-3082,-28648,574,-5.59,,,,,,,,,,,,
417203,1564153161900,2,2.46,1.54,0.75,1.55,1.21,0.69,-0.5,0.32,19,1,27,0.85,11187,60,106,43,62,1021,573.0,628,464,60,122.0,312,1,447,418,179,0,0,602,14504,-3210,573,-5.59,,,,,,,,,,,,
417223,1564153161920,2,2.46,1.54,0.75,1.55,1.2,0.74,-0.63,0.48,19,2,26,0.98,11254,60,106,43,62,1008,576.0,625,463,60,120.0,312,1,447,420,179,0,0,603,-9072,23619,578,-5.59,,,,,,,,,,,,
417243,1564153161940,1,2.47,1.54,0.75,1.55,1.2,0.68,-0.52,0.5,19,2,26,0.85,11261,60,106,43,62,989,578.0,626,462,60,121.0,312,1,445,420,179,0,0,600,-9072,-3820,578,-5.59,44.681354,10.024909,55.39,174.4,0,0.0,-1,0.0,0.0,0,2.97,6.9541
417263,1564153161960,3,2.47,1.54,0.75,1.56,1.2,0.73,-0.66,0.65,18,1,24,0.99,11281,60,106,43,62,968,581.0,633,462,60,122.0,312,1,445,419,179,0,0,603,2216,19621,580,-5.59,,,,,,,,,,,,
417283,1564153161980,1,2.49,1.54,0.75,1.56,1.19,0.7,-0.52,0.55,17,0,24,0.88,11247,60,106,43,62,956,580.0,625,469,60,120.0,304,1,446,419,178,0,0,611,-18032,-3820,580,-5.59,,,,,,,,,,,,
417303,1564153161994,2,2.49,1.54,0.75,1.55,1.21,0.81,-0.61,0.69,17,0,23,1.02,11349,60,106,43,62,947,588.0,628,466,60,121.0,304,1,444,421,178,0,0,608,-2934,17740,588,-5.59,,,,,,,,,,,,
417323,1564153162014,2,2.5,1.54,0.75,1.56,1.21,0.73,-0.53,0.51,17,1,23,0.91,11419,60,106,43,62,935,587.0,628,467,60,122.0,304,1,442,422,178,0,0,607,-8186,19304,587,-5.59,,,,,,,,,,,,
417343,1564153162034,3,2.52,1.53,0.75,1.55,1.2,0.71,-0.62,0.62,17,2,22,0.94,11412,60,106,43,62,922,591.0,638,468,60,121.0,304,1,442,421,178,0,0,609,-8186,1010,592,-5.59,44.681343,10.024925,56.95,174.4,0,0.0,-1,0.0,0.0,0,2.97,6.9557
417363,1564153162054,3,2.54,1.53,0.74,1.55,1.2,0.7,-0.7,0.62,17,-0,23,0.99,11432,60,106,43,61,912,594.0,647,463,60,121.0,304,1,441,415,178,0,0,616,1780,17740,594,-5.59,,,,,,,,,,,,
417383,1564153162074,2,2.57,1.53,0.75,1.55,1.2,0.69,-0.56,0.45,18,-1,24,0.89,11524,60,106,43,62,907,594.0,637,462,60,120.0,310,1,440,424,185,0,0,609,1267,17336,594,-5.59,,,,,,,,,,,,
417403,1564153162104,1,2.59,1.54,0.74,1.56,1.2,0.75,-0.52,0.47,18,1,23,0.91,11566,60,106,43,61,897,600.0,637,465,60,121.0,310,1,440,418,185,0,0,616,-8188,-18357,600,-5.59,,,,,,,,,,,,
417423,1564153162124,4,2.6,1.55,0.75,1.56,1.2,0.81,-0.64,0.62,19,2,22,1.03,11660,61,106,43,61,882,603.0,640,464,60,122.0,310,1,440,418,185,0,0,624,1267,269,603,-5.59,,,,,,,,,,,,
417443,1564153162144,3,2.63,1.54,0.75,1.57,1.2,0.8,-0.76,0.64,19,1,23,1.1,11704,60,106,43,61,870,600.0,641,461,60,122.0,310,1,440,418,185,0,0,628,1267,3395,600,-5.59,44.681339,10.024941,57.92,174.4,0,0.0,-1,0.0,0.0,0,2.98,6.9574
417463,1564153162164,2,2.65,1.55,0.74,1.57,1.21,0.68,-0.69,0.58,20,1,24,0.97,11755,61,106,43,61,861,601.0,647,461,60,121.0,310,1,440,418,185,0,0,633,-3190,20993,601,-5.59,,,,,,,,,,,,
417483,1564153162184,1,2.65,1.55,0.75,1.56,1.21,0.57,-0.59,0.64,21,1,25,0.82,11814,61,106,43,61,849,601.0,650,461,60,121.0,311,1,440,418,187,0,0,627,-8186,-5120,601,-5.59,,,,,,,,,,,,
417503,1564153162204,2,2.63,1.54,0.76,1.56,1.2,0.5,-0.59,0.64,21,2,25,0.77,11844,61,106,43,61,834,606.0,649,466,60,121.0,311,1,440,418,187,0,0,633,1267,-4876,601,-5.59,,,,,,,,,,,,
417523,1564153162224,2,2.61,1.55,0.75,1.57,1.21,0.5,-0.64,0.68,21,3,24,0.81,11844,61,106,43,61,822,607.0,642,468,60,123.0,311,1,440,418,187,0,0,631,-8188,-2580,607,-5.59,,,,,,,,,,,,
417543,1564153162244,2,2.59,1.54,0.74,1.56,1.21,0.55,-0.75,0.69,21,3,24,0.93,11807,61,106,43,60,816,608.0,643,467,60,121.0,311,1,434,418,187,0,0,659,259,966,607,-5.59,44.681328,10.024958,58.88,174.3,0,0.0,-1,0.0,0.0,0,2.98,6.9591
417563,1564153162264,1,2.56,1.54,0.76,1.57,1.22,0.65,-0.88,0.67,21,2,24,1.09,11867,61,106,43,61,808,612.0,645,467,60,122.0,311,1,440,418,187,0,0,645,-8188,-5120,610,-5.59,,,,,,,,,,,,
417583,1564153162284,3,2.53,1.54,0.75,1.56,1.21,0.72,-0.99,0.76,20,3,26,1.22,11867,61,106,43,61,798,613.0,639,470,60,121.0,306,1,440,418,188,0,0,620,1,24,613,-5.59,,,,,,,,,,,,
417603,1564153162304,3,2.5,1.54,0.75,1.55,1.21,0.77,-1.09,0.68,20,1,27,1.33,11740,61,106,43,61,790,615.0,648,470,60,121.0,306,1,440,418,188,0,0,634,10432,-10251,615,-5.59,,,,,,,,,,,,
417623,1564153162324,3,2.49,1.54,0.75,1.56,1.2,0.72,-0.97,0.42,20,1,27,1.21,11740,61,105,43,61,787,617.0,638,468,60,121.0,306,1,440,418,188,0,0,631,15649,771,617,-5.59,,,,,,,,,,,,
417643,1564153162344,3,2.5,1.54,0.75,1.56,1.21,0.77,-0.85,0.44,19,2,27,1.14,11696,61,105,43,61,782,615.0,635,472,60,120.0,306,1,440,418,188,0,0,626,-12040,-2836,614,-5.59,44.68132,10.024974,60.01,174.3,0,0.0,-1,0.0,0.0,0,2.98,6.9607
417663,1564153162364,1,2.52,1.54,0.75,1.56,1.21,0.82,-0.81,0.52,19,3,25,1.15,11631,61,105,43,62,774,617.0,632,470,60,121.0,306,1,440,424,188,0,0,626,-25872,-2580,617,-5.59,,,,,,,,,,,,
417683,1564153162384,3,2.54,1.54,0.75,1.55,1.21,0.9,-0.9,0.67,19,3,25,1.27,11609,60,105,43,62,766,615.0,639,471,60,121.0,305,1,440,424,188,0,0,615,-1894,-5120,615,-5.59,,,,,,,,,,,,
417703,1564153162404,3,2.56,1.54,0.75,1.56,1.21,0.77,-0.85,0.4,20,1,25,1.15,11588,59,105,43,62,761,613.0,638,470,60,122.0,305,1,440,430,188,0,0,619,-1894,-10251,615,-5.59,,,,,,,,,,,,
417723,1564153162424,1,2.57,1.54,0.75,1.57,1.21,0.74,-0.91,0.51,20,2,24,1.18,11496,59,105,43,62,756,613.0,639,467,60,120.0,305,1,441,423,188,0,0,611,-1894,-16046,612,-5.59,,,,,,,,,,,,
417743,1564153162444,3,2.58,1.54,0.76,1.57,1.21,0.77,-1.02,0.63,20,-0,25,1.28,11481,58,105,43,63,754,612.0,630,464,60,121.0,305,1,441,430,188,0,0,605,-25872,-2580,612,-5.59,44.681305,10.024988,60.3,174.3,0,0.0,-1,0.0,0.0,0,2.98,6.9624
417763,1564153162464,2,2.57,1.54,0.76,1.56,1.22,0.79,-1.03,0.49,20,-2,27,1.29,11574,58,105,43,62,751,613.0,634,467,60,121.0,305,1,440,424,188,0,0,605,243,3,613,-5.59,,,,,,,,,,,,
417783,1564153162484,2,2.56,1.54,0.76,1.56,1.22,0.84,-0.92,0.27,21,-3,30,1.25,11733,58,105,43,61,754,617.0,633,466,60,120.0,306,1,440,418,188,0,0,613,15649,506,616,-5.59,,,,,,,,,,,,
417803,1564153162503,3,2.54,1.55,0.76,1.57,1.22,0.86,-0.84,0.07,21,-4,33,1.2,11859,58,105,43,60,757,617.0,635,465,60,121.0,306,1,434,409,188,0,0,630,10432,-5120,615,-5.59,,,,,,,,,,,,
417823,1564153162523,1,2.55,1.54,0.76,1.56,1.22,0.87,-0.77,-0.02,22,-3,35,1.16,11904,58,105,43,60,760,616.0,637,467,60,121.0,306,1,434,409,188,0,0,636,8488,-5120,616,-5.59,,,,,,,,,,,,
417843,1564153162543,2,2.56,1.54,0.76,1.56,1.22,0.88,-0.67,-0.05,23,-3,36,1.11,11942,58,105,43,60,762,617.0,641,467,60,122.0,306,1,434,409,188,0,0,643,15649,-2830,618,-5.59,44.681297,10.025002,60.91,174.2,0,0.0,-1,0.0,0.0,0,2.98,6.964
417863,1564153162563,4,2.57,1.54,0.76,1.56,1.22,0.91,-0.59,-0.08,23,-2,37,1.08,11973,58,105,43,59,762,618.0,645,466,60,122.0,306,1,428,399,188,0,0,625,10432,-3584,617,-5.59,,,,,,,,,,,,
417883,1564153162583,3,2.56,1.54,0.76,1.57,1.22,0.91,-0.51,-0.05,23,-1,37,1.05,11957,58,105,43,59,762,615.0,645,465,60,121.0,291,1,428,399,180,0,0,643,8488,11776,615,-5.59,,,,,,,,,,,,
417903,1564153162603,1,2.58,1.54,0.76,1.57,1.22,0.91,-0.46,-0.02,23,-1,38,1.02,11973,58,105,43,59,758,615.0,650,464,60,121.0,291,1,428,399,180,0,0,644,15649,-3584,615,-5.59,,,,,,,,,,,,
417923,1564153162623,2,2.56,1.54,0.75,1.56,1.21,0.91,-0.4,0.04,23,0,37,0.99,11973,58,105,43,59,755,616.0,642,463,60,122.0,291,1,428,399,180,0,0,638,-4035,-8429,616,-5.59,,,,,,,,,,,,
417943,1564153162643,3,2.55,1.54,0.76,1.56,1.22,0.92,-0.33,-0.01,23,-0,37,0.97,11950,58,105,43,59,751,620.0,645,464,60,122.0,291,1,428,399,180,0,0,645,-32504,4909,620,-5.59,44.681282,10.025015,60.37,174.2,0,0.0,-1,0.0,0.0,0,2.98,6.9657
417963,1564153162663,1,2.55,1.54,0.76,1.56,1.22,0.97,-0.24,-0.09,23,-1,38,1.0,11980,58,105,43,59,748,620.0,645,465,60,122.0,291,1,428,399,180,0,0,648,2048,-3488,621,-5.59,,,,,,,,,,,,
417983,1564153162683,2,2.54,1.53,0.76,1.56,1.22,0.99,-0.23,-0.13,22,-2,39,1.02,12003,58,105,43,59,745,621.0,645,461,60,122.0,293,1,428,399,182,0,0,656,-1894,4909,621,-5.59,,,,,,,,,,,,
418003,1564153162703,2,2.51,1.54,0.75,1.57,1.22,0.99,-0.14,-0.2,21,-2,40,1.0,11996,58,105,43,59,741,621.0,655,462,60,121.0,293,1,428,399,182,0,0,647,2048,6208,621,-5.59,,,,,,,,,,,,
418023,1564153162723,3,2.51,1.53,0.75,1.56,1.22,1.02,-0.07,-0.21,22,-2,40,1.03,11927,58,105,43,59,739,624.0,645,462,60,122.0,293,1,428,399,182,0,0,630,-13043,479,624,-5.59,,,,,,,,,,,,
418043,1564153162743,2,2.51,1.53,0.76,1.56,1.22,1.01,-0.08,-0.13,22,-1,37,1.01,11829,57,105,43,60,739,626.0,646,464,60,121.0,293,1,434,398,182,0,0,645,4956,479,624,-5.59,44.681271,10.025027,60.78,174.2,0,0.0,-1,0.0,0.0,0,2.99,6.9674
418063,1564153162763,1,2.5,1.53,0.75,1.56,1.22,1.02,-0.2,0.03,21,2,35,1.04,11726,57,105,43,60,739,624.0,633,460,60,120.0,293,1,434,408,182,0,0,648,-16179,244,623,-5.59,,,,,,,,,,,,
418083,1564153162783,4,2.52,1.53,0.76,1.55,1.22,1.03,-0.34,0.23,21,2,33,1.09,11696,58,105,43,60,740,625.0,635,464,60,122.0,291,1,434,408,182,0,0,622,17344,-2580,625,-5.59,,,,,,,,,,,,
418103,1564153162803,2,2.52,1.53,0.76,1.56,1.22,1.03,-0.51,0.4,21,2,33,1.15,11829,58,105,43,60,742,622.0,636,463,60,120.0,291,1,434,408,182,0,0,614,-16179,11776,622,-5.59,,,,,,,,,,,,
418123,1564153162823,3,2.54,1.53,0.75,1.57,1.21,0.95,-0.59,0.42,21,3,33,1.12,11874,58,105,43,60,744,626.0,635,463,60,121.0,291,1,434,409,182,0,0,621,30227,4909,626,-5.59,,,,,,,,,,,,
418143,1564153162843,3,2.56,1.52,0.75,1.55,1.22,0.95,-0.72,0.43,22,3,32,1.19,11988,57,105,43,60,747,626.0,637,463,60,121.0,291,1,434,409,182,0,0,623,4956,-8429,624,-5.59,44.681259,10.025038,61.25,174.2,0,0.0,-1,0.0,0.0,0,2.99,6.969
418163,1564153162863,3,2.58,1.53,0.76,1.55,1.21,0.93,-0.83,0.49,22,2,32,1.24,12073,58,105,43,59,751,625.0,636,466,60,122.0,291,1,428,409,182,0,0,639,-13043,24,625,-5.59,,,,,,,,,,,,
418183,1564153162883,4,2.62,1.53,0.76,1.56,1.22,0.95,-0.94,0.63,23,4,31,1.33,12159,58,105,43,59,754,623.0,640,466,60,122.0,292,1,428,401,184,0,0,646,-13043,-2830,623,-5.59,,,,,,,,,,,,
418203,1564153162903,1,2.65,1.52,0.75,1.55,1.22,0.99,-0.95,0.77,23,5,29,1.37,12207,58,105,43,59,756,622.0,641,463,60,122.0,292,1,428,401,184,0,0,651,-28648,31988,622,-5.59,,,,,,,,,,,,
418223,1564153162923,2,2.68,1.53,0.75,1.56,1.22,1.0,-0.96,0.83,24,5,28,1.39,12151,58,105,43,59,755,621.0,639,463,60,122.0,292,1,428,401,184,0,0,643,6273,479,621,-5.59,,,,,,,,,,,,
418243,1564153162943,1,2.7,1.53,0.76,1.56,1.22,1.06,-0.93,0.82,24,6,27,1.41,12128,58,105,43,59,753,625.0,635,461,60,122.0,292,1,428,401,184,0,0,670,-32504,-26380,623,-5.59,44.681244,10.025047,61.41,174.2,0,0.0,-1,0.0,0.0,0,2.99,6.9707
418263,1564153162963,3,2.7,1.53,0.76,1.56,1.22,1.16,-0.84,0.61,24,5,28,1.43,12167,58,105,43,59,750,623.0,636,460,60,122.0,292,1,428,401,184,0,0,676,208,-6006,620,-5.59,,,,,,,,,,,,
418283,1564153162983,2,2.71,1.53,0.75,1.56,1.22,1.13,-0.75,0.42,24,3,30,1.36,12214,58,105,42,59,745,621.0,643,459,60,122.0,300,1,428,401,185,0,0,638,-12040,-3488,621,-5.59,,,,,,,,,,,,
418303,1564153162993,2,2.69,1.53,0.76,1.56,1.23,1.16,-0.7,0.3,24,1,31,1.36,12175,58,105,42,59,743,620.0,636,461,60,122.0,300,1,428,401,185,0,0,648,6273,-6006,620,-5.59,,,,,,,,,,,,
418323,1564153163013,3,2.65,1.53,0.76,1.57,1.23,1.14,-0.71,0.19,25,-1,33,1.34,12128,58,105,42,59,741,619.0,635,466,60,122.0,300,1,428,401,185,0,0,663,208,31988,622,-5.59,,,,,,,,,,,,
