"Interval"|"ms"|0|0|1,"Utc"|"ms"|0|0|1,"FB_p"|"bar"|0|300|50,"Volant"|"F"|0.0|300.0|50,"xFR"|"mm"|0.0|5.0|50,"xRR"|"mm"|0.0|5.0|50,"xFL"|"mm"|0.0|5.0|50,"xRL"|"mm"|0.0|5.0|50,"AccelX"|"G"|-3.0|3.0|50,"AccelY"|"G"|-3.0|3.0|50,"AccelZ"|"G"|-3.0|3.0|50,"Yaw"|"Deg/Sec"|-120|120|50,"Pitch"|"Deg/Sec"|-120|120|50,"Roll"|"Deg/Sec"|-120|120|50,"Gsum"|"G"|0.0|3.0|50,"RPM"|""|0|14000|50,"TPS"|"%"|0|100|50,"WaterTemp"|"?C"|0|300|50,"AirTemp"|"?C"|-1000|1000|50,"MAP"|"KPa"|0|255|50,"Lambda"|""|0|1024|50,"WheelSpeed"|"MPH"|0.0|150.0|50,"OilPress"|"PSI"|0|150|50,"FuelPress"|"PSI"|0|150|50,"OilTemp"|"F"|0|300|50,"Battery"|"Volts"|0.0|20.0|50,"FuelCon"|"L/h"|-1000|1000|50,"Gear"|""|0|10|50,"Advance"|"Deg"|-360|360|50,"Injection"|"ms"|-1000|1000|50,"FuelCon"|"L/100km"|-1000|1000|50,"LC_But_Pres"|""|-1000|1000|50,"LC_Active"|""|-1000|1000|50,"RD_Speed"|""|-1000|1000|50,"RUD_Speed"|""|-1000|1000|50,"LD_Speed"|""|-1000|1000|50,"LUD_Speed"|""|-1000|1000|50,"Ana1"|"bar"|-1000.0|1000.0|50,"Latitude"|"Degrees"|-180.0|180.0|10,"Longitude"|"Degrees"|-180.0|180.0|10,"Speed"|"kph"|0.0|150.0|10,"Altitude"|"m"|0.0|4000.0|10,"LapCount"|""|0|0|10,"LapTime"|"Min"|0.0|0.0|10,"Sector"|""|0|0|10,"SectorTime"|"Min"|0.0|0.0|10,"ElapsedTime"|"Min"|0.0|0.0|10,"CurrentLap"|""|0|0|10,"Distance"|"km"|0.0|0.0|10,"SessionTime"|"Min"|0.0|0.0|10
476163,1564153220867,2,2.53,1.13,0.39,1.53,1.13,0.72,-0.94,0.69,22,-3,32,1.18,8438,51,107,44,65,896,602.0,497,463,60,122.0,202,1,441,364,119,0,0,632,-29984,506,602,-5.59,,,,,,,,,,,,
476183,1564153220887,1,2.52,1.12,0.39,1.53,1.13,0.73,-0.88,0.77,22,-0,30,1.15,8465,51,107,44,65,899,602.0,493,462,60,121.0,192,1,440,366,116,0,0,643,1267,-16046,602,-5.59,,,,,,,,,,,,
476203,1564153220907,0,2.53,1.13,0.39,1.53,1.13,0.61,-0.85,0.7,22,2,29,1.05,8569,51,107,44,64,900,604.0,485,464,60,122.0,192,1,436,368,116,0,0,618,1267,3,604,-5.59,,,,,,,,,,,,
476223,1564153220927,3,2.53,1.13,0.39,1.53,1.13,0.64,-0.91,0.66,22,1,31,1.12,8656,51,107,44,64,905,605.0,487,465,60,123.0,192,1,430,364,116,0,0,628,1760,-16046,607,-5.59,,,,,,,,,,,,
476243,1564153220947,1,2.54,1.13,0.39,1.53,1.13,0.75,-0.87,0.79,21,-3,29,1.15,8648,51,107,44,63,909,610.0,483,460,60,122.0,192,1,431,357,116,0,0,627,-3210,-2830,610,-5.59,44.681332,10.024984,57.92,173.7,0,0.0,-1,0.0,0.0,0,3.5,7.9374
476263,1564153220967,2,2.53,1.13,0.39,1.53,1.13,0.78,-0.78,0.91,22,-2,27,1.1,8616,51,107,44,63,913,611.0,480,463,60,123.0,192,1,430,358,116,0,0,636,8488,-2830,611,-5.59,,,,,,,,,,,,
476283,1564153220987,1,2.53,1.13,0.39,1.53,1.12,0.76,-0.9,0.74,21,-0,25,1.18,8628,51,107,44,63,915,610.0,478,462,60,123.0,191,1,433,357,117,0,0,644,-4035,11776,610,-5.59,,,,,,,,,,,,
476303,1564153220997,1,2.54,1.13,0.39,1.52,1.14,0.64,-0.97,0.61,20,-0,27,1.16,8692,51,107,44,63,918,614.0,487,461,60,123.0,191,1,427,359,117,0,0,644,8488,-10251,612,-5.59,,,,,,,,,,,,
476323,1564153221017,2,2.54,1.13,0.39,1.53,1.12,0.59,-0.91,0.58,19,-1,29,1.09,8757,51,107,44,62,921,610.0,499,466,60,122.0,191,1,421,359,117,0,0,654,10432,24,610,-5.59,,,,,,,,,,,,
476343,1564153221037,3,2.53,1.13,0.39,1.53,1.13,0.62,-0.84,0.64,19,-1,29,1.04,8836,51,107,44,62,921,612.0,506,465,60,123.0,191,1,414,356,117,0,0,649,15649,244,612,-5.59,44.68132,10.024999,59.49,173.7,0,0.0,-1,0.0,0.0,0,3.5,7.9391
476363,1564153221057,1,2.54,1.13,0.39,1.53,1.12,0.63,-0.74,0.75,19,-1,27,0.97,8856,51,107,44,62,921,617.0,514,462,60,122.0,191,1,412,356,117,0,0,652,6273,4909,618,-5.59,,,,,,,,,,,,
476383,1564153221077,1,2.53,1.13,0.39,1.52,1.13,0.77,-0.74,0.81,19,-2,27,1.07,8852,51,107,44,62,923,622.0,520,465,60,122.0,192,1,412,350,119,0,0,658,3472,-3488,618,-5.59,,,,,,,,,,,,
476403,1564153221107,1,2.53,1.12,0.39,1.52,1.13,0.82,-0.75,0.84,19,-3,26,1.11,8894,51,107,44,62,925,624.0,519,460,60,122.0,192,1,411,357,119,0,0,658,3472,31988,624,-5.59,,,,,,,,,,,,
476423,1564153221127,2,2.53,1.13,0.39,1.53,1.13,0.94,-0.81,0.87,19,-2,28,1.24,8898,51,107,44,61,928,624.0,519,467,60,122.0,192,1,407,352,119,0,0,654,-28648,-2826,624,-5.59,,,,,,,,,,,,
476443,1564153221147,1,2.53,1.13,0.39,1.53,1.13,1.01,-0.81,0.92,19,-1,27,1.3,8945,51,107,44,61,930,630.0,511,467,60,123.0,192,1,402,352,119,0,0,651,17344,8958,630,-5.59,44.681309,10.025011,60.93,173.7,0,0.0,-1,0.0,0.0,0,3.51,7.9407
476463,1564153221167,1,2.53,1.13,0.39,1.53,1.13,0.97,-0.91,0.88,20,2,26,1.33,8924,51,107,44,61,939,632.0,508,461,60,122.0,192,1,404,352,119,0,0,655,-7939,-2826,632,-5.59,,,,,,,,,,,,
476483,1564153221187,2,2.54,1.13,0.39,1.53,1.13,0.97,-1.0,0.84,20,1,26,1.39,8937,50,107,44,61,951,633.0,512,464,60,123.0,187,1,403,352,118,0,0,659,5344,8958,634,-5.59,,,,,,,,,,,,
476503,1564153221207,0,2.54,1.13,0.39,1.52,1.13,0.86,-1.1,0.8,20,4,26,1.39,8971,50,107,44,61,961,633.0,502,463,60,123.0,187,1,399,353,118,0,0,667,-768,-3578,633,-5.59,,,,,,,,,,,,
476523,1564153221227,1,2.54,1.12,0.39,1.53,1.13,0.88,-1.18,0.85,20,3,25,1.47,9049,50,107,44,61,970,635.0,509,467,60,123.0,187,1,397,354,118,0,0,660,-7939,3543,635,-5.59,,,,,,,,,,,,
476543,1564153221247,0,2.55,1.12,0.39,1.52,1.14,0.84,-1.25,0.83,21,4,25,1.51,9075,50,107,44,60,983,637.0,511,466,60,122.0,187,1,399,354,118,0,0,657,-23055,3543,637,-5.59,44.681297,10.025023,61.91,173.6,0,0.0,-1,0.0,0.0,0,3.51,7.9424
476563,1564153221267,2,2.54,1.13,0.39,1.53,1.13,0.84,-1.28,0.87,21,4,23,1.53,9088,51,107,44,60,999,638.0,521,464,60,122.0,187,1,400,347,118,0,0,677,-3446,1549,638,-5.59,,,,,,,,,,,,
476583,1564153221287,1,2.55,1.13,0.39,1.52,1.12,0.93,-1.27,0.88,21,4,25,1.58,9106,51,107,44,60,1011,641.0,524,462,60,122.0,185,1,399,347,119,0,0,673,28675,-10344,641,-5.59,,,,,,,,,,,,
476603,1564153221307,2,2.56,1.13,0.39,1.52,1.14,0.96,-1.22,0.98,20,3,25,1.56,9155,51,107,44,60,1018,645.0,535,459,60,122.0,185,1,400,347,119,0,0,673,1010,-2345,645,-5.59,,,,,,,,,,,,
476623,1564153221327,1,2.55,1.13,0.39,1.52,1.14,1.07,-1.07,1.08,20,5,25,1.51,9173,50,107,44,60,1026,648.0,546,458,60,121.0,185,1,401,347,119,0,0,663,1010,-3038,648,-5.59,,,,,,,,,,,,
476643,1564153221347,-1,2.56,1.13,0.39,1.52,1.14,0.99,-0.94,1.01,21,4,24,1.37,9177,50,107,44,59,1035,646.0,532,471,60,122.0,185,1,401,342,119,0,0,682,16529,-2345,646,-5.59,44.681282,10.025035,62.82,173.6,0,0.0,-1,0.0,0.0,0,3.51,7.944
476663,1564153221367,0,2.56,1.12,0.39,1.52,1.13,1.05,-0.94,1.0,22,3,25,1.41,9168,50,107,44,60,1043,647.0,539,459,60,123.0,185,1,401,347,119,0,0,673,3403,-10344,647,-5.59,,,,,,,,,,,,
476683,1564153221387,2,2.55,1.13,0.39,1.53,1.12,0.92,-0.96,0.88,22,3,27,1.33,9173,45,107,44,59,1045,651.0,539,460,60,123.0,183,1,401,334,119,0,0,684,3403,3543,651,-5.59,,,,,,,,,,,,
476703,1564153221407,2,2.55,1.13,0.39,1.53,1.13,0.82,-1.06,0.94,22,3,28,1.34,9200,39,107,44,56,1047,655.0,525,465,60,123.0,183,1,400,323,119,0,0,697,30721,16599,655,-5.59,,,,,,,,,,,,
476723,1564153221427,2,2.55,1.13,0.39,1.53,1.13,0.83,-1.16,1.03,21,3,26,1.42,9277,37,107,43,53,1049,655.0,530,468,60,123.0,183,1,396,316,119,0,0,675,269,-10399,655,-5.59,,,,,,,,,,,,
476743,1564153221447,2,2.55,1.13,0.39,1.53,1.13,0.91,-1.09,1.03,22,2,26,1.42,9282,36,107,44,51,1049,653.0,523,466,60,123.0,183,1,389,282,119,0,0,669,19320,-10344,653,-5.59,44.681267,10.025044,63.67,173.6,0,0.0,-1,0.0,0.0,0,3.51,7.9457
476763,1564153221467,3,2.54,1.13,0.39,1.53,1.13,1.02,-0.95,1.05,22,0,27,1.4,9209,34,107,44,49,1048,656.0,530,464,60,123.0,183,1,381,259,119,0,0,682,-18357,-26380,656,-5.59,,,,,,,,,,,,
476783,1564153221487,4,2.54,1.13,0.39,1.53,1.13,1.04,-0.86,0.99,22,-1,28,1.35,9137,29,107,43,47,1044,656.0,526,464,60,122.0,131,1,372,239,86,0,0,689,17336,-10344,656,-5.59,,,,,,,,,,,,
476803,1564153221507,1,2.55,1.13,0.39,1.52,1.14,0.99,-0.86,0.98,22,-3,27,1.31,9132,24,107,43,45,1033,657.0,538,458,60,122.0,131,1,359,234,86,0,0,671,-18357,-26892,659,-5.59,,,,,,,,,,,,
476823,1564153221527,2,2.54,1.12,0.39,1.52,1.13,0.9,-0.89,0.87,22,-3,27,1.27,9101,22,107,43,42,1022,654.0,536,465,60,123.0,131,1,339,225,86,0,0,663,3395,8958,653,-5.59,,,,,,,,,,,,
476843,1564153221547,7,2.53,1.13,0.39,1.53,1.13,0.82,-0.85,0.73,22,-3,27,1.19,8984,21,107,43,39,1013,655.0,539,462,60,122.0,131,1,320,218,86,0,0,661,17336,3543,655,-5.59,44.681252,10.025055,64.73,173.6,0,0.0,-1,0.0,0.0,0,3.51,7.9474
476863,1564153221567,5,2.53,1.13,0.39,1.53,1.12,0.94,-0.83,0.75,22,-4,28,1.26,8737,21,107,43,38,1000,653.0,535,463,60,122.0,131,1,317,213,86,0,0,652,30721,-10348,650,-5.59,,,,,,,,,,,,
476883,1564153221587,5,2.53,1.12,0.39,1.52,1.13,1.0,-0.83,0.81,22,-4,28,1.3,8526,21,107,43,37,972,648.0,507,466,60,122.0,104,1,314,209,68,0,0,631,1010,-3578,650,-5.59,,,,,,,,,,,,
476903,1564153221606,8,2.52,1.12,0.39,1.52,1.13,0.92,-0.87,0.69,22,-4,28,1.26,8370,21,107,43,37,944,648.0,498,466,60,123.0,104,1,311,208,68,0,0,613,-7939,-10344,650,-5.59,,,,,,,,,,,,
476923,1564153221626,7,2.51,1.13,0.39,1.53,1.13,1.01,-0.9,0.73,22,-4,30,1.35,8166,21,107,43,37,926,645.0,493,463,60,120.0,104,1,307,206,68,0,0,597,-3210,-3038,645,-5.59,,,,,,,,,,,,
476943,1564153221646,8,2.5,1.13,0.38,1.52,1.12,1.08,-0.86,0.67,23,-3,28,1.38,8009,21,107,43,37,907,639.0,477,465,60,124.0,104,1,304,203,68,0,0,584,-30139,479,645,-5.59,44.68124,10.025063,64.83,173.6,0,0.0,-1,0.0,0.0,0,3.51,7.949
476963,1564153221666,10,2.49,1.13,0.39,1.53,1.13,1.07,-0.86,0.61,24,-3,30,1.37,7805,20,107,43,38,881,646.0,465,463,60,123.0,104,1,307,208,68,0,0,589,23619,-2345,644,-5.59,,,,,,,,,,,,
476983,1564153221686,10,2.5,1.13,0.38,1.51,1.12,1.05,-0.81,0.47,24,-5,30,1.33,7681,20,107,43,38,855,634.0,466,462,60,123.0,94,1,307,208,60,0,0,572,-3210,24583,634,-5.59,,,,,,,,,,,,
477003,1564153221706,13,2.49,1.13,0.39,1.52,1.13,0.97,-0.93,0.38,23,-3,29,1.34,7662,20,107,43,39,847,634.0,454,465,60,123.0,94,1,310,213,60,0,0,495,1,-2836,634,-5.59,,,,,,,,,,,,
477023,1564153221726,13,2.49,1.12,0.39,1.52,1.13,0.96,-0.93,0.22,23,-2,30,1.33,7671,20,107,43,40,840,623.0,479,461,60,122.0,94,1,317,214,60,0,0,427,259,-2836,623,-5.59,,,,,,,,,,,,
477043,1564153221746,10,2.48,1.12,0.39,1.52,1.13,0.99,-0.89,0.13,24,-2,31,1.33,7643,20,107,43,40,840,627.0,473,465,60,122.0,94,1,317,214,60,0,0,405,-1894,-2836,627,-5.59,44.681225,10.025069,64.21,173.7,0,0.0,-1,0.0,0.0,0,3.52,7.9507
477063,1564153221766,10,2.47,1.13,0.39,1.53,1.12,0.99,-0.86,0.1,26,1,31,1.31,7500,20,107,43,40,841,624.0,471,458,60,123.0,94,1,317,214,60,0,0,398,1760,-3584,623,181.28,,,,,,,,,,,,
477083,1564153221786,11,2.48,1.13,0.39,1.53,1.13,1.0,-0.87,0.01,26,2,33,1.33,7329,20,107,43,40,848,619.0,452,462,60,123.0,97,1,317,213,60,0,0,370,1,-16046,617,181.28,,,,,,,,,,,,
477103,1564153221806,11,2.48,1.13,0.38,1.53,1.13,0.96,-0.88,-0.12,25,4,34,1.3,7086,20,107,43,41,856,617.0,450,460,60,123.0,97,1,325,215,60,0,0,339,6273,-14655,617,181.28,,,,,,,,,,,,
477123,1564153221826,10,2.48,1.13,0.38,1.52,1.12,0.94,-0.94,0.04,25,2,35,1.33,6843,20,108,43,42,868,606.0,423,458,60,123.0,97,1,331,219,60,0,0,328,-32248,3395,606,181.28,,,,,,,,,,,,
477143,1564153221846,14,2.48,1.13,0.39,1.53,1.12,0.9,-0.97,0.06,25,4,31,1.33,6494,20,107,43,43,879,607.0,408,460,60,122.0,97,1,337,356,60,0,0,392,6273,3395,604,181.28,44.681206,10.025074,62.79,173.7,0,0.0,-1,0.0,0.0,0,3.52,7.9524
477163,1564153221866,10,2.48,1.13,0.38,1.52,1.12,1.01,-0.99,0.01,26,4,30,1.42,6289,20,107,43,45,885,605.0,397,465,60,122.0,97,1,349,334,60,0,0,407,-32504,3395,605,-5.59,,,,,,,,,,,,
477183,1564153221886,9,2.47,1.13,0.38,1.53,1.13,1.12,-0.88,-0.1,26,4,32,1.42,6315,20,107,43,47,888,601.0,387,458,60,121.0,125,1,363,316,75,0,0,397,-9072,19304,601,-5.59,,,,,,,,,,,,
477203,1564153221906,14,2.48,1.12,0.38,1.52,1.12,1.17,-0.87,-0.04,24,4,30,1.46,6353,20,107,43,49,884,594.0,387,455,60,123.0,125,1,369,287,75,0,0,405,-2934,-8186,596,-5.59,,,,,,,,,,,,
477223,1564153221926,11,2.48,1.12,0.39,1.51,1.13,1.01,-0.88,-0.06,23,2,29,1.34,6465,20,107,43,50,878,1666.0,390,462,60,123.0,125,1,373,266,75,0,0,102,6273,-8186,1666,-5.59,,,,,,,,,,,,
477243,1564153221946,13,2.47,1.13,0.38,1.53,1.12,1.11,-0.95,-0.01,23,4,29,1.46,6761,20,107,43,50,870,1666.0,398,462,60,124.0,125,1,376,241,75,0,0,102,6273,-16384,1666,-5.59,44.68119,10.025077,61.07,173.7,0,0.0,-1,0.0,0.0,0,3.52,7.9541
477263,1564153221966,12,2.47,1.12,0.39,1.52,1.13,0.99,-0.96,-0.14,24,7,31,1.38,6906,20,107,43,50,860,1666.0,413,466,60,123.0,125,1,377,242,75,0,0,102,-30064,6273,1666,-5.59,,,,,,,,,,,,
477283,1564153221986,11,2.46,1.13,0.38,1.52,1.12,0.96,-1.05,0.07,24,7,30,1.42,7011,20,107,43,49,871,568.0,416,466,60,124.0,112,1,375,238,64,0,0,102,-2934,8488,572,-5.59,,,,,,,,,,,,
477303,1564153221996,13,2.47,1.12,0.38,1.52,1.13,1.07,-0.95,0.12,24,10,30,1.43,7062,20,107,43,49,889,576.0,425,463,60,125.0,112,1,375,238,64,0,0,31,-22519,2048,576,-5.59,,,,,,,,,,,,
477323,1564153222016,11,2.46,1.13,0.38,1.53,1.13,0.89,-0.91,0.07,25,9,29,1.27,6983,20,107,43,49,913,571.0,422,463,60,123.0,112,1,374,237,64,0,0,31,1341,243,571,-5.59,,,,,,,,,,,,
477343,1564153222036,14,2.46,1.13,0.38,1.52,1.12,0.98,-0.91,0.1,24,6,29,1.34,6686,20,107,43,49,940,566.0,413,461,60,123.0,112,1,372,236,64,0,0,31,-3414,-25872,568,-5.59,44.681179,10.025079,58.74,173.7,0,0.0,-1,0.0,0.0,0,3.52,7.9557
477363,1564153222056,12,2.46,1.13,0.38,1.52,1.13,0.9,-0.92,0.09,24,8,27,1.29,6667,20,107,43,49,952,557.0,405,463,60,124.0,112,1,372,153,64,0,0,31,-6528,-12040,557,-5.59,,,,,,,,,,,,
477383,1564153222076,14,2.46,1.13,0.38,1.52,1.12,1.02,-0.97,0.0,24,4,26,1.4,6727,20,107,43,49,954,550.0,411,461,60,123.0,110,1,373,241,61,0,0,31,2109,-30159,550,-5.59,,,,,,,,,,,,
477403,1564153222106,13,2.46,1.13,0.39,1.53,1.12,0.95,-0.83,-0.08,24,3,28,1.26,6908,19,107,43,49,943,2276.0,407,460,60,122.0,110,1,374,237,61,0,0,688,-4091,-22519,566,-5.59,,,,,,,,,,,,
477423,1564153222126,9,2.47,1.12,0.38,1.51,1.13,0.85,-0.82,-0.12,23,4,27,1.18,7290,19,107,43,49,917,2276.0,423,463,60,124.0,110,1,375,238,61,0,0,688,-4091,-28648,566,-5.59,,,,,,,,,,,,
477443,1564153222146,8,2.46,1.13,0.38,1.52,1.13,0.8,-0.85,-0.03,22,2,26,1.17,7399,19,107,43,48,889,2276.0,431,463,60,124.0,110,1,372,234,61,0,0,688,-4091,-32248,566,-5.59,44.681164,10.02508,56.64,173.7,0,0.0,-1,0.0,0.0,0,3.52,7.9574
477463,1564153222166,9,2.46,1.13,0.39,1.52,1.13,0.79,-0.85,0.06,21,1,26,1.16,7512,19,107,43,47,859,496.0,444,466,60,123.0,110,1,370,228,61,0,0,688,15661,6273,42,-5.59,,,,,,,,,,,,
477483,1564153222186,7,2.46,1.12,0.39,1.52,1.12,0.76,-0.85,0.16,20,1,26,1.14,7542,19,107,43,46,838,532.0,441,466,60,123.0,120,1,362,226,64,0,0,688,6274,2216,532,-5.59,,,,,,,,,,,,
477503,1564153222206,7,2.46,1.12,0.39,1.51,1.13,0.85,-0.95,0.29,20,1,25,1.27,7387,19,107,43,45,832,537.0,442,462,60,123.0,120,1,355,226,64,0,0,688,-28648,-2934,537,-5.59,,,,,,,,,,,,
477523,1564153222226,11,2.47,1.13,0.39,1.52,1.13,0.96,-0.93,0.29,21,1,27,1.34,7051,19,107,43,46,832,533.0,424,462,60,124.0,120,1,362,226,64,0,0,688,10408,2524,534,-5.59,,,,,,,,,,,,
477543,1564153222246,13,2.47,1.12,0.39,1.53,1.12,0.99,-0.89,0.33,21,8,23,1.33,7118,19,107,43,46,835,526.0,431,466,60,122.0,120,1,362,226,64,0,0,688,1,-8186,525,-5.59,44.681148,10.025079,55.15,173.7,0,0.0,-1,0.0,0.0,0,3.52,7.9591
477563,1564153222266,11,2.47,1.12,0.38,1.51,1.12,0.96,-0.9,0.22,21,6,22,1.32,7242,19,107,43,46,841,2067.0,434,462,60,124.0,120,1,362,143,64,0,0,2064,-2295,15661,2067,-5.59,,,,,,,,,,,,
477583,1564153222286,11,2.46,1.12,0.38,1.52,1.12,0.9,-0.95,0.14,20,3,24,1.31,7476,19,107,43,46,850,2067.0,436,463,60,122.0,30,1,362,226,63,0,0,2064,-16384,-8186,2067,-5.59,,,,,,,,,,,,
477603,1564153222308,8,2.46,1.11,0.38,1.53,1.12,0.92,-0.96,0.11,19,7,24,1.33,7851,19,107,43,45,857,504.0,471,461,60,123.0,30,1,355,224,63,0,0,2064,-23367,771,503,-5.59,,,,,,,,,,,,
477623,1564153222328,6,2.46,1.12,0.38,1.52,1.12,1.03,-0.95,0.16,17,4,25,1.4,8085,19,107,43,44,860,502.0,481,466,60,124.0,30,1,347,224,63,0,0,2064,-899,-1562,506,-5.59,,,,,,,,,,,,
477643,1564153222348,9,2.46,1.12,0.38,1.52,1.13,0.89,-0.95,0.13,18,4,25,1.31,8109,19,107,43,43,860,501.0,487,463,60,123.0,30,1,341,222,63,0,0,2064,10305,16383,501,-5.59,44.681137,10.025077,52.55,173.8,0,0.0,-1,0.0,0.0,0,3.53,7.9607
477663,1564153222368,5,2.47,1.12,0.38,1.51,1.12,1.01,-0.98,0.2,17,2,25,1.4,8159,19,107,43,42,853,504.0,503,466,60,122.0,30,1,334,220,63,0,0,2064,2212,1341,504,-5.59,,,,,,,,,,,,
477683,1564153222388,6,2.47,1.12,0.39,1.51,1.13,0.84,-0.96,0.14,18,2,26,1.28,8191,19,107,43,40,847,501.0,496,463,60,123.0,133,1,320,216,67,0,0,2064,32033,1248,501,-5.59,,,,,,,,,,,,
477703,1564153222408,4,2.47,1.12,0.38,1.51,1.12,0.96,-0.95,0.18,18,3,26,1.35,8198,19,107,43,40,840,500.0,500,467,60,122.0,133,1,320,216,67,0,0,2064,32033,1248,500,-5.59,,,,,,,,,,,,
477723,1564153222428,7,2.46,1.12,0.38,1.51,1.13,0.9,-0.92,0.21,18,2,25,1.29,8071,19,107,43,39,833,498.0,491,463,60,123.0,133,1,311,214,67,0,0,386,243,10994,497,-5.59,,,,,,,,,,,,
477743,1564153222448,9,2.47,1.12,0.38,1.52,1.12,0.86,-0.93,0.24,19,4,24,1.26,8078,19,107,43,39,834,492.0,482,463,60,123.0,133,1,311,214,67,0,0,463,30272,-32248,494,-5.59,44.681122,10.025074,50.73,173.8,0,0.0,-1,0.0,0.0,0,3.53,7.9624
477763,1564153222468,6,2.46,1.11,0.38,1.52,1.12,0.97,-0.95,0.3,19,4,24,1.36,8036,19,107,43,39,833,490.0,481,465,60,123.0,133,1,310,214,67,0,0,468,6193,10408,490,-5.59,,,,,,,,,,,,
477783,1564153222488,5,2.47,1.12,0.38,1.51,1.12,0.84,-1.0,0.29,18,5,24,1.31,8054,19,107,43,39,825,487.0,474,465,60,124.0,133,1,311,214,65,0,0,465,17628,10408,487,-5.59,,,,,,,,,,,,
477803,1564153222508,6,2.46,1.11,0.38,1.52,1.12,0.96,-1.0,0.36,18,7,21,1.39,8162,19,107,43,39,817,484.0,491,466,60,122.0,133,1,313,208,65,0,0,443,-9160,-10483,484,-5.59,,,,,,,,,,,,
477823,1564153222528,7,2.47,1.12,0.38,1.51,1.12,0.93,-1.02,0.32,17,4,21,1.38,8366,19,107,43,38,809,478.0,495,463,60,123.0,133,1,314,211,65,0,0,436,2524,10432,477,-5.59,,,,,,,,,,,,
477843,1564153222548,5,2.47,1.11,0.38,1.51,1.13,0.94,-0.92,0.28,16,3,23,1.32,8604,19,107,43,38,801,472.0,507,462,60,122.0,133,1,317,213,65,0,0,423,3571,243,472,-5.59,44.68111,10.02507,49.01,173.8,0,0.0,-1,0.0,0.0,0,3.53,7.964
477863,1564153222568,4,2.46,1.12,0.38,1.51,1.13,1.05,-0.81,0.4,16,3,23,1.33,8712,19,107,43,37,791,468.0,520,466,60,122.0,133,1,314,209,65,0,0,436,16648,-1923,468,-5.59,,,,,,,,,,,,
477883,1564153222588,2,2.47,1.11,0.38,1.51,1.13,1.07,-0.76,0.43,16,4,23,1.31,8676,19,107,43,36,782,467.0,525,464,60,123.0,144,1,311,207,68,0,0,447,2131,-9203,467,-5.59,,,,,,,,,,,,
477903,1564153222607,1,2.47,1.12,0.38,1.51,1.12,0.99,-0.88,0.42,16,4,22,1.32,8672,19,107,43,35,780,467.0,526,465,60,123.0,144,1,308,203,68,0,0,447,21432,3576,467,-5.59,,,,,,,,,,,,
477923,1564153222627,3,2.46,1.11,0.38,1.52,1.12,0.94,-0.84,0.36,17,4,23,1.26,8668,19,107,43,34,779,466.0,544,467,60,123.0,144,1,305,199,68,0,0,450,23400,-23367,465,-5.59,,,,,,,,,,,,
477943,1564153222647,2,2.47,1.12,0.38,1.51,1.13,0.99,-0.72,0.43,17,4,22,1.23,8620,19,107,43,34,780,466.0,530,461,60,121.0,144,1,305,199,68,0,0,449,26704,10305,466,-5.59,44.681099,10.025064,47.46,173.8,0,0.0,-1,0.0,0.0,0,3.53,7.9657
477963,1564153222667,1,2.47,1.11,0.39,1.51,1.13,1.07,-0.71,0.57,16,3,22,1.28,8664,19,107,43,34,782,463.0,517,465,60,122.0,144,1,305,199,68,0,0,451,26704,10432,463,-5.59,,,,,,,,,,,,
477983,1564153222687,0,2.47,1.12,0.38,1.51,1.12,1.03,-0.79,0.55,16,5,21,1.3,8656,19,107,43,34,785,464.0,512,464,60,123.0,140,1,305,199,65,0,0,450,20625,2212,464,-5.59,,,,,,,,,,,,
478003,1564153222707,4,2.46,1.12,0.38,1.52,1.13,0.91,-0.73,0.42,16,4,23,1.17,8608,19,107,43,34,788,460.0,509,462,60,123.0,140,1,305,199,65,0,0,449,-28332,-3210,460,-5.59,,,,,,,,,,,,
478023,1564153222727,2,2.46,1.12,0.38,1.52,1.12,1.01,-0.66,0.42,16,4,22,1.2,8581,19,107,43,34,794,459.0,505,462,60,122.0,140,1,305,199,65,0,0,449,-28332,-16384,458,-5.59,,,,,,,,,,,,
478043,1564153222747,1,2.46,1.12,0.38,1.52,1.12,1.02,-0.72,0.5,16,6,21,1.25,8530,19,107,43,34,800,457.0,495,467,60,124.0,140,1,305,199,65,0,0,446,-28332,30272,457,-5.59,44.681088,10.02506,46.08,173.9,0,0.0,-1,0.0,0.0,0,3.53,7.9674
478063,1564153222767,3,2.46,1.12,0.38,1.51,1.12,0.91,-0.67,0.42,16,4,21,1.13,8518,19,107,43,34,803,457.0,506,462,60,123.0,140,1,305,199,65,0,0,442,5600,8488,457,-5.59,,,,,,,,,,,,
478083,1564153222787,3,2.46,1.12,0.38,1.52,1.12,1.02,-0.57,0.4,15,3,22,1.17,8499,19,107,43,34,806,456.0,521,465,60,122.0,140,1,304,198,64,0,0,447,-7939,30272,456,-5.59,,,,,,,,,,,,
478103,1564153222807,1,2.46,1.12,0.38,1.52,1.12,1.03,-0.6,0.52,15,4,21,1.19,8503,19,107,43,34,805,454.0,523,464,60,123.0,140,1,305,199,64,0,0,445,-768,16408,454,-5.59,,,,,,,,,,,,
478123,1564153222827,4,2.45,1.11,0.38,1.51,1.13,0.91,-0.57,0.4,15,3,21,1.07,8538,19,107,43,34,803,454.0,521,463,60,123.0,140,1,305,199,64,0,0,443,-768,2211,454,-5.59,,,,,,,,,,,,
478143,1564153222847,3,2.45,1.11,0.38,1.52,1.13,0.96,-0.47,0.36,15,2,21,1.07,8480,19,107,43,35,800,451.0,520,464,60,122.0,140,1,307,198,64,0,0,441,243,-23623,452,-5.59,44.681076,10.025054,45.27,173.9,0,0.0,-1,0.0,0.0,0,3.53,7.969
478163,1564153222867,2,2.45,1.12,0.38,1.52,1.12,0.98,-0.45,0.37,15,2,20,1.08,8457,19,107,43,35,795,449.0,515,464,60,123.0,140,1,307,197,64,0,0,439,1779,-9160,449,-5.59,,,,,,,,,,,,
478183,1564153222887,2,2.45,1.12,0.38,1.51,1.12,0.89,-0.47,0.3,15,1,21,1.01,8430,19,107,43,35,790,447.0,516,462,60,122.0,140,1,306,200,63,0,0,438,3635,-9160,447,-5.59,,,,,,,,,,,,
478203,1564153222907,2,2.45,1.11,0.38,1.51,1.12,1.01,-0.39,0.33,15,-0,21,1.08,8438,19,107,43,35,786,447.0,507,465,60,122.0,140,1,306,200,63,0,0,434,31796,-9160,447,-5.59,,,,,,,,,,,,
478223,1564153222927,2,2.44,1.11,0.38,1.51,1.12,0.9,-0.46,0.35,15,1,19,1.01,8457,19,107,43,34,783,446.0,508,468,60,123.0,140,1,304,201,63,0,0,440,13552,2524,446,-5.59,,,,,,,,,,,,
478243,1564153222947,3,2.45,1.12,0.38,1.51,1.12,0.86,-0.41,0.27,15,-0,20,0.96,8449,19,107,43,35,783,444.0,497,466,60,123.0,140,1,306,200,63,0,0,431,31796,-8985,444,-5.59,44.681065,10.025047,44.83,173.9,0,0.0,-1,0.0,0.0,0,3.53,7.9707
478263,1564153222967,2,2.44,1.12,0.38,1.52,1.12,0.96,-0.43,0.36,15,1,19,1.05,8393,19,107,43,35,785,444.0,493,462,60,123.0,140,1,306,199,63,0,0,431,13552,-3267,444,-5.59,,,,,,,,,,,,
478283,1564153222987,4,2.44,1.11,0.38,1.51,1.13,0.83,-0.46,0.25,14,2,19,0.95,8359,19,107,43,35,788,441.0,496,466,60,123.0,142,1,305,198,63,0,0,433,-4082,-3267,441,-5.59,,,,,,,,,,,,
478303,1564153222997,5,2.43,1.12,0.38,1.51,1.13,0.95,-0.42,0.29,14,0,19,1.04,8374,19,107,43,35,791,440.0,507,462,60,121.0,142,1,305,198,63,0,0,429,-8165,21432,440,-5.59,,,,,,,,,,,,
478323,1564153223017,3,2.44,1.12,0.38,1.52,1.12,0.8,-0.49,0.33,14,2,18,0.94,8408,19,107,43,35,793,438.0,512,466,60,122.0,142,1,306,200,63,0,0,428,-3414,16648,438,-5.59,,,,,,,,,,,,
478343,1564153223037,6,2.44,1.11,0.37,1.51,1.12,0.81,-0.44,0.29,14,1,18,0.93,8389,19,107,43,35,797,436.0,513,466,60,122.0,142,1,305,199,63,0,0,429,-8165,2131,436,-5.59,44.681057,10.02504,44.17,173.9,0,0.0,-1,0.0,0.0,0,3.53,7.9724
478363,1564153223057,4,2.43,1.11,0.38,1.51,1.12,0.89,-0.42,0.35,14,2,18,0.98,8393,19,107,43,36,803,434.0,515,462,60,122.0,142,1,308,198,63,0,0,429,-21944,21580,434,-5.59,,,,,,,,,,,,
478383,1564153223077,5,2.44,1.11,0.38,1.5,1.12,0.79,-0.42,0.28,14,3,18,0.89,8348,19,107,43,36,809,434.0,525,463,60,122.0,145,1,307,203,63,0,0,425,18584,8488,434,-5.59,,,,,,,,,,,,
478403,1564153223107,5,2.43,1.11,0.38,1.52,1.12,0.91,-0.39,0.36,13,2,18,0.99,8333,19,107,43,36,813,432.0,514,463,60,121.0,145,1,307,198,63,0,0,422,2524,-7939,430,-5.59,,,,,,,,,,,,
478423,1564153223127,6,2.44,1.11,0.38,1.51,1.12,0.74,-0.38,0.27,14,2,18,0.84,8355,19,107,43,35,818,430.0,508,464,60,123.0,145,1,305,198,63,0,0,425,2524,-7939,430,-5.59,,,,,,,,,,,,
478443,1564153223147,4,2.44,1.11,0.38,1.51,1.12,0.87,-0.36,0.39,14,2,17,0.94,8311,19,107,43,36,827,430.0,505,463,60,122.0,145,1,307,201,63,0,0,424,13040,23400,430,-5.59,44.681046,10.025033,43.46,173.9,0,0.0,-1,0.0,0.0,0,3.54,7.974
478463,1564153223167,6,2.43,1.11,0.37,1.51,1.13,0.75,-0.33,0.37,14,2,17,0.82,8202,19,107,43,36,835,428.0,489,464,60,123.0,145,1,305,200,63,0,0,430,13040,23400,425,-5.59,,,,,,,,,,,,
478483,1564153223187,3,2.44,1.11,0.37,1.51,1.12,0.88,-0.35,0.48,13,3,16,0.95,8074,19,107,43,37,840,426.0,492,465,60,122.0,140,1,305,203,60,0,0,428,9517,-7939,426,-5.59,,,,,,,,,,,,
478503,1564153223207,3,2.44,1.11,0.38,1.51,1.13,0.85,-0.32,0.52,13,2,15,0.91,8019,19,107,43,36,845,424.0,478,463,60,123.0,140,1,301,203,60,0,0,432,11560,20625,424,-5.59,,,,,,,,,,,,
478523,1564153223227,4,2.42,1.11,0.38,1.5,1.12,0.79,-0.27,0.44,13,3,15,0.83,7914,19,107,43,37,849,426.0,474,465,60,123.0,140,1,304,201,60,0,0,426,-4059,-768,424,-5.59,,,,,,,,,,,,
478543,1564153223247,3,2.42,1.11,0.38,1.51,1.12,0.8,-0.28,0.52,14,4,14,0.85,7851,19,107,43,38,853,424.0,487,464,60,122.0,140,1,307,208,60,0,0,421,9517,1779,424,-5.59,44.681038,10.025025,42.7,173.9,0,0.0,-1,0.0,0.0,0,3.54,7.9757
478563,1564153223267,2,2.43,1.11,0.38,1.51,1.13,0.9,-0.3,0.6,13,4,13,0.94,7838,19,107,43,38,853,421.0,482,463,60,123.0,140,1,307,208,60,0,0,421,-4059,-3322,421,-5.59,,,,,,,,,,,,
478583,1564153223287,1,2.43,1.11,0.38,1.51,1.12,0.94,-0.29,0.61,13,3,14,0.98,7802,19,107,43,38,852,424.0,472,462,60,123.0,144,1,307,208,61,0,0,419,11560,1779,424,-5.59,,,,,,,,,,,,
478603,1564153223307,3,2.42,1.1,0.37,1.5,1.13,0.87,-0.22,0.55,12,2,14,0.9,7815,19,107,43,39,851,423.0,482,466,60,123.0,144,1,310,213,61,0,0,420,9517,13180,421,-5.59,,,,,,,,,,,,
478623,1564153223327,4,2.42,1.1,0.38,1.51,1.12,0.73,-0.17,0.41,12,2,13,0.75,7802,19,107,43,39,849,421.0,472,466,60,122.0,144,1,310,131,61,0,0,416,-26615,31796,421,-5.59,,,,,,,,,,,,
478643,1564153223347,1,2.42,1.11,0.37,1.51,1.12,0.78,-0.22,0.41,12,2,15,0.81,7799,19,107,43,40,847,420.0,482,464,60,123.0,144,1,317,214,61,0,0,420,-9211,3635,420,-5.59,44.681026,10.025017,42.09,173.9,0,0.0,-1,0.0,0.0,0,3.54,7.9774
478663,1564153223367,1,2.42,1.11,0.38,1.51,1.12,0.9,-0.27,0.53,11,0,15,0.94,7851,19,107,43,39,846,419.0,477,465,60,123.0,144,1,310,214,61,0,0,414,-8151,13180,419,-5.59,,,,,,,,,,,,
478683,1564153223387,2,2.42,1.1,0.37,1.5,1.12,0.92,-0.27,0.57,11,-1,13,0.96,7838,19,107,43,40,840,420.0,475,462,60,123.0,150,1,317,214,63,0,0,412,1504,-21792,418,-5.59,,,,,,,,,,,,
478703,1564153223407,2,2.42,1.11,0.38,1.5,1.13,0.8,-0.24,0.46,11,0,14,0.83,7888,19,107,43,40,834,418.0,478,468,60,122.0,150,1,317,214,63,0,0,413,1504,3826,418,-5.59,,,,,,,,,,,,
478723,1564153223427,1,2.42,1.11,0.38,1.51,1.12,0.84,-0.23,0.44,12,1,15,0.87,7918,19,107,43,40,831,418.0,476,465,60,122.0,150,1,317,214,63,0,0,414,10541,-3314,418,-5.59,,,,,,,,,,,,
478743,1564153223447,0,2.43,1.11,0.38,1.51,1.13,0.96,-0.22,0.54,12,1,14,0.98,7871,19,107,43,40,827,416.0,474,463,60,122.0,150,1,317,214,63,0,0,412,6512,13180,416,-5.59,44.681023,10.025008,41.47,173.9,0,0.0,-1,0.0,0.0,0,3.54,7.9791
478763,1564153223467,2,2.42,1.11,0.38,1.5,1.12,0.9,-0.21,0.54,12,-0,13,0.92,7908,19,107,43,40,824,416.0,474,465,60,123.0,150,1,317,214,63,0,0,412,11545,13180,416,-5.59,,,,,,,,,,,,
478783,1564153223487,3,2.43,1.11,0.37,1.51,1.12,0.78,-0.18,0.43,12,1,14,0.8,7878,19,107,43,40,820,415.0,472,462,60,123.0,154,1,317,214,64,0,0,412,6512,-4082,414,-5.59,,,,,,,,,,,,
478803,1564153223507,1,2.42,1.11,0.38,1.5,1.13,0.85,-0.17,0.49,12,2,13,0.86,7898,19,107,43,40,819,413.0,480,468,60,122.0,154,1,317,214,64,0,0,410,11545,-4082,413,-5.59,,,,,,,,,,,,
478823,1564153223527,-0,2.42,1.11,0.38,1.5,1.13,0.9,-0.15,0.52,12,1,13,0.91,7958,19,107,43,40,819,414.0,486,466,60,122.0,154,1,317,214,64,0,0,410,11545,3826,414,-5.59,,,,,,,,,,,,
478843,1564153223547,3,2.42,1.1,0.37,1.51,1.12,0.75,-0.09,0.41,12,2,14,0.75,7928,19,107,43,40,820,414.0,482,463,60,123.0,154,1,317,214,64,0,0,415,10541,-21792,414,-5.59,44.681011,10.025001,40.98,173.9,0,0.0,-1,0.0,0.0,0,3.54,7.9807
478863,1564153223567,5,2.42,1.11,0.38,1.5,1.13,0.67,-0.09,0.45,13,4,12,0.68,7891,19,107,43,40,821,413.0,495,463,60,122.0,154,1,317,214,64,0,0,414,10541,31796,413,-5.59,,,,,,,,,,,,
478883,1564153223587,-0,2.42,1.11,0.37,1.5,1.12,0.74,-0.2,0.6,12,4,11,0.76,7891,19,107,43,40,821,413.0,487,466,60,122.0,154,1,317,214,64,0,0,419,11545,3635,413,-5.59,,,,,,,,,,,,
478903,1564153223606,1,2.43,1.1,0.37,1.51,1.12,0.8,-0.2,0.61,12,2,12,0.83,7796,19,107,43,39,822,414.0,486,461,60,122.0,154,1,310,214,64,0,0,415,10541,-4082,415,-5.59,,,,,,,,,,,,
478923,1564153223626,1,2.42,1.1,0.37,1.51,1.12,0.76,-0.08,0.58,11,-0,12,0.77,7796,19,107,43,40,825,413.0,478,464,60,123.0,154,1,317,214,64,0,0,414,11545,13180,413,-5.59,,,,,,,,,,,,
478943,1564153223646,2,2.43,1.09,0.38,1.49,1.12,0.7,-0.09,0.48,11,0,12,0.7,7754,19,107,43,40,828,414.0,472,466,60,122.0,154,1,317,214,64,0,0,416,-8151,-4082,414,-5.59,44.681004,10.02499,41.04,173.9,0,0.0,-1,0.0,0.0,0,3.54,7.9824
478963,1564153223666,2,2.42,1.1,0.38,1.49,1.12,0.72,-0.14,0.44,11,0,13,0.73,7747,19,107,43,40,830,411.0,482,464,60,122.0,154,1,317,214,64,0,0,414,11545,-3856,411,-5.59,,,,,,,,,,,,
478983,1564153223686,-0,2.42,1.1,0.38,1.49,1.13,0.85,-0.18,0.53,11,1,14,0.87,7799,19,107,43,40,832,412.0,473,463,60,122.0,152,1,317,214,63,0,0,412,-8151,31796,412,-5.59,,,,,,,,,,,,
479003,1564153223706,1,2.42,1.09,0.37,1.5,1.12,0.97,-0.19,0.6,11,1,12,0.99,7789,19,107,43,40,837,414.0,478,464,60,124.0,152,1,317,214,63,0,0,412,11545,-4082,413,-5.59,,,,,,,,,,,,
479023,1564153223726,2,2.42,1.1,0.38,1.51,1.12,0.89,-0.18,0.55,11,-0,12,0.91,7845,19,107,43,40,842,414.0,475,463,60,123.0,152,1,317,214,63,0,0,413,10541,-3414,414,-5.59,,,,,,,,,,,,
479043,1564153223746,3,2.42,1.1,0.37,1.5,1.12,0.78,-0.16,0.47,11,1,13,0.8,7841,19,107,43,40,846,413.0,479,465,60,122.0,152,1,317,214,63,0,0,413,-8151,3826,413,-5.59,44.680996,10.024981,40.64,174.0,0,0.0,-1,0.0,0.0,0,3.54,7.984
479063,1564153223766,-1,2.43,1.1,0.37,1.5,1.12,0.78,-0.15,0.49,11,3,12,0.8,7841,19,107,43,40,850,413.0,487,464,60,122.0,152,1,317,214,63,0,0,414,10541,-21944,413,-5.59,,,,,,,,,,,,
479083,1564153223786,0,2.42,1.1,0.38,1.5,1.12,0.88,-0.18,0.57,12,3,11,0.9,7871,19,107,43,40,855,413.0,484,464,60,121.0,152,1,317,214,63,0,0,417,6512,7154,413,-5.59,,,,,,,,,,,,
479103,1564153223806,1,2.42,1.1,0.37,1.5,1.12,0.87,-0.17,0.57,11,2,12,0.89,7825,19,107,43,40,861,412.0,480,463,60,123.0,152,1,317,214,63,0,0,415,11545,3826,412,-5.59,,,,,,,,,,,,
479123,1564153223826,1,2.43,1.1,0.38,1.5,1.12,0.7,-0.16,0.51,11,1,11,0.72,7845,19,107,43,40,865,413.0,481,465,60,123.0,152,1,317,214,63,0,0,417,10541,-21944,412,-5.59,,,,,,,,,,,,
479143,1564153223846,1,2.43,1.1,0.38,1.5,1.13,0.63,-0.17,0.46,11,2,11,0.66,7802,19,107,43,40,868,412.0,478,465,60,120.0,152,1,317,214,63,0,0,413,10541,-3856,412,-5.59,44.680988,10.024972,40.83,174.0,0,0.0,-1,0.0,0.0,0,3.54,7.9857
479163,1564153223866,0,2.43,1.09,0.37,1.5,1.12,0.71,-0.26,0.52,11,2,12,0.76,7783,19,107,43,40,870,412.0,481,464,60,122.0,152,1,317,214,63,0,0,413,11545,-4082,412,-5.59,,,,,,,,,,,,
479183,1564153223886,1,2.43,1.1,0.37,1.5,1.12,0.84,-0.27,0.59,10,-0,12,0.88,7812,19,107,43,40,872,413.0,485,462,60,122.0,152,1,317,214,63,0,0,414,28696,31796,413,-5.59,,,,,,,,,,,,
479203,1564153223908,1,2.42,1.1,0.38,1.51,1.13,0.89,-0.23,0.59,10,-1,11,0.92,7754,19,107,43,40,872,412.0,469,461,60,123.0,152,1,317,214,63,0,0,413,28696,3826,412,-5.59,,,,,,,,,,,,
479223,1564153223928,2,2.42,1.1,0.38,1.51,1.12,0.79,-0.21,0.48,10,-1,12,0.82,7789,19,107,43,40,870,413.0,470,466,60,123.0,152,1,317,214,63,0,0,412,6512,-4082,414,-5.59,,,,,,,,,,,,
479243,1564153223948,3,2.42,1.1,0.38,1.5,1.12,0.71,-0.2,0.47,11,1,13,0.74,7780,19,107,44,40,868,415.0,467,467,60,122.0,152,1,317,213,63,0,0,410,6512,31796,415,-5.59,44.680981,10.024962,41.12,174.0,0,0.0,-1,0.0,0.0,0,3.55,7.9874
479263,1564153223968,-1,2.42,1.09,0.38,1.5,1.12,0.79,-0.21,0.52,11,2,11,0.82,7793,19,107,43,40,866,412.0,478,465,60,122.0,152,1,317,214,63,0,0,408,6512,-8165,412,-5.59,,,,,,,,,,,,
479283,1564153223988,0,2.43,1.1,0.37,1.5,1.12,0.88,-0.19,0.55,11,1,11,0.9,7838,19,107,43,40,864,413.0,470,464,60,122.0,152,1,317,214,63,0,0,410,28696,13552,413,-5.59,,,,,,,,,,,,
479303,1564153223998,3,2.43,1.1,0.37,1.51,1.13,0.85,-0.19,0.53,11,-0,13,0.87,7796,19,107,44,40,863,413.0,472,463,60,123.0,152,1,317,213,63,0,0,413,28696,-4082,413,-5.59,,,,,,,,,,,,
479323,1564153224018,2,2.43,1.1,0.38,1.51,1.12,0.69,-0.23,0.48,11,1,11,0.72,7825,19,107,44,40,863,411.0,477,465,60,122.0,152,1,317,213,63,0,0,411,6384,7154,410,-5.59,,,,,,,,,,,,
479343,1564153224038,4,2.42,1.1,0.37,1.51,1.12,0.57,-0.27,0.45,11,3,11,0.63,7809,19,107,44,40,865,410.0,477,468,60,123.0,152,1,317,213,63,0,0,414,28696,18584,410,-5.59,44.680973,10.024953,40.85,174.0,0,0.0,-1,0.0,0.0,0,3.55,7.989
479363,1564153224058,1,2.43,1.1,0.38,1.5,1.12,0.65,-0.3,0.48,11,3,13,0.72,7722,19,107,43,40,867,410.0,483,463,60,123.0,152,1,317,214,63,0,0,413,28696,-3414,410,-5.59,,,,,,,,,,,,
479383,1564153224078,1,2.42,1.1,0.38,1.5,1.12,0.79,-0.28,0.6,11,2,13,0.84,7738,19,107,43,40,869,410.0,475,463,60,123.0,151,1,317,214,62,0,0,409,17144,-8165,410,-5.59,,,,,,,,,,,,
479403,1564153224108,2,2.43,1.1,0.37,1.5,1.12,0.9,-0.29,0.67,11,1,10,0.94,7687,19,107,44,40,872,407.0,469,461,60,123.0,151,1,317,213,62,0,0,407,17144,2524,407,-5.59,,,,,,,,,,,,
479423,1564153224128,5,2.42,1.1,0.37,1.5,1.12,0.92,-0.21,0.61,11,-1,11,0.94,7703,19,107,44,41,873,407.0,473,463,60,123.0,151,1,325,213,62,0,0,408,17144,-21944,407,-5.59,,,,,,,,,,,,
479443,1564153224148,3,2.42,1.1,0.38,1.5,1.12,0.83,-0.18,0.59,11,-2,12,0.85,7653,19,107,44,41,875,406.0,467,463,60,122.0,151,1,325,213,62,0,0,408,-1818,-21944,406,-5.59,44.680965,10.024942,40.84,174.0,0,0.0,-1,0.0,0.0,0,3.55,7.9907
479463,1564153224168,4,2.42,1.1,0.37,1.51,1.12,0.69,-0.14,0.45,11,-2,11,0.71,7665,19,107,44,41,874,406.0,471,464,60,123.0,151,1,325,215,62,0,0,404,-6656,-26615,406,-5.59,,,,,,,,,,,,
479483,1564153224188,3,2.43,1.1,0.38,1.5,1.12,0.57,-0.17,0.33,11,-1,11,0.59,7618,19,107,44,41,874,405.0,459,464,60,122.0,150,1,325,213,61,0,0,403,1,9517,405,-5.59,,,,,,,,,,,,
479503,1564153224208,5,2.43,1.1,0.38,1.5,1.13,0.49,-0.2,0.23,11,0,13,0.53,7628,19,107,44,41,874,404.0,470,465,60,122.0,150,1,325,215,61,0,0,404,-6656,-26615,404,-5.59,,,,,,,,,,,,
479523,1564153224228,6,2.42,1.1,0.38,1.5,1.12,0.47,-0.21,0.19,11,2,14,0.52,7628,19,107,44,41,875,401.0,468,466,60,121.0,150,1,325,215,61,0,0,403,-1562,-4059,401,-5.59,,,,,,,,,,,,
479543,1564153224248,6,2.42,1.1,0.38,1.49,1.12,0.49,-0.18,0.29,12,4,11,0.52,7594,19,107,44,41,877,401.0,467,464,60,122.0,150,1,325,215,61,0,0,401,-31744,-26615,401,-5.59,44.680962,10.024932,40.43,174.0,0,0.0,-1,0.0,0.0,0,3.55,7.9924
479563,1564153224268,2,2.42,1.1,0.38,1.49,1.13,0.58,-0.28,0.41,11,5,11,0.65,7603,19,107,44,41,879,399.0,467,465,60,122.0,150,1,325,215,61,0,0,401,-31744,10392,399,-5.59,,,,,,,,,,,,
479583,1564153224288,1,2.43,1.1,0.38,1.5,1.12,0.69,-0.31,0.5,11,5,14,0.76,7566,18,107,44,41,883,400.0,466,462,60,122.0,155,1,325,215,62,0,0,403,-31744,-9166,400,-5.59,,,,,,,,,,,,
479603,1564153224302,3,2.42,1.1,0.38,1.5,1.13,0.82,-0.32,0.65,11,5,14,0.88,7575,19,107,44,41,888,399.0,467,461,60,123.0,155,1,325,215,62,0,0,400,-6475,-4059,399,-5.59,,,,,,,,,,,,
479623,1564153224322,3,2.42,1.1,0.37,1.51,1.12,0.94,-0.31,0.78,11,5,11,1.0,7524,19,107,44,41,891,398.0,461,465,60,123.0,155,1,325,215,62,0,0,398,-3866,11560,398,-5.59,,,,,,,,,,,,
479643,1564153224342,2,2.43,1.1,0.38,1.5,1.13,1.05,-0.37,0.9,10,6,11,1.12,7509,19,107,44,41,894,398.0,467,462,60,123.0,155,1,325,215,62,0,0,397,-19019,13040,398,-5.59,44.680954,10.024921,40.16,174.0,0,0.0,-1,0.0,0.0,0,3.55,7.994
479663,1564153224362,3,2.42,1.1,0.38,1.5,1.13,1.15,-0.36,0.95,10,6,13,1.21,7452,19,107,44,41,897,397.0,460,465,60,123.0,155,1,325,214,62,0,0,398,-19126,1504,398,-5.59,,,,,,,,,,,,
479683,1564153224382,2,2.42,1.1,0.37,1.5,1.12,1.24,-0.37,1.04,10,5,13,1.29,7473,19,107,44,41,900,395.0,458,463,60,123.0,151,1,325,214,60,0,0,393,-18948,-8151,396,-5.59,,,,,,,,,,,,
479703,1564153224408,2,2.43,1.09,0.37,1.5,1.13,1.26,-0.31,1.07,10,6,11,1.3,7437,19,107,44,41,901,395.0,472,468,60,123.0,151,1,325,214,60,0,0,393,-992,10541,394,-5.59,,,,,,,,,,,,
479723,1564153224428,6,2.42,1.1,0.38,1.5,1.13,1.23,-0.41,1.11,10,8,12,1.29,7449,18,107,44,42,901,393.0,462,463,60,123.0,151,1,332,216,60,0,0,393,-992,2524,393,-5.59,,,,,,,,,,,,
479743,1564153224448,5,2.43,1.1,0.37,1.5,1.12,1.21,-0.4,1.08,10,9,15,1.27,7411,19,107,44,42,905,393.0,463,467,60,121.0,151,1,332,216,60,0,0,395,8200,1504,394,-5.59,44.680946,10.024911,39.42,174.0,0,0.0,-1,0.0,0.0,0,3.55,7.9957
479763,1564153224468,5,2.42,1.1,0.37,1.5,1.12,1.11,-0.34,0.99,11,11,14,1.16,7434,19,107,44,42,910,391.0,454,466,60,122.0,151,1,332,216,60,0,0,390,-992,10541,391,-5.59,,,,,,,,,,,,
479783,1564153224488,5,2.42,1.1,0.37,1.5,1.13,0.96,-0.33,0.97,11,12,12,1.01,7396,19,107,44,42,915,392.0,460,465,60,121.0,153,1,332,216,60,0,0,390,2278,6512,392,-5.59,,,,,,,,,,,,
479803,1564153224508,4,2.43,1.1,0.38,1.5,1.12,0.78,-0.32,0.76,11,11,13,0.85,7390,19,107,44,42,921,391.0,450,465,60,122.0,153,1,332,216,60,0,0,391,3,11545,391,-5.59,,,,,,,,,,,,
479823,1564153224528,3,2.43,1.1,0.38,1.49,1.13,0.65,-0.31,0.57,12,11,14,0.72,7350,19,107,44,42,927,388.0,464,468,60,122.0,153,1,332,216,60,0,0,389,3,6512,388,-5.59,,,,,,,,,,,,
479843,1564153224548,3,2.43,1.09,0.37,1.5,1.13,0.53,-0.24,0.48,12,10,14,0.58,7338,19,107,44,42,934,390.0,450,462,60,123.0,153,1,332,216,60,0,0,390,742,-3968,387,-5.59,44.680943,10.0249,39.16,174.1,0,0.0,-1,0.0,0.0,0,3.55,7.9974
479863,1564153224568,2,2.43,1.1,0.37,1.5,1.12,0.5,-0.2,0.35,11,6,13,0.54,7341,19,107,44,43,938,387.0,453,465,60,123.0,153,1,340,216,60,0,0,388,770,-32702,388,-5.59,,,,,,,,,,,,
479883,1564153224588,2,2.43,1.1,0.37,1.51,1.12,0.64,-0.26,0.39,10,3,12,0.69,7301,19,107,44,43,939,387.0,447,463,60,123.0,155,1,340,216,60,0,0,385,3,6512,386,-5.59,,,,,,,,,,,,
479903,1564153224607,2,2.43,1.09,0.38,1.5,1.13,0.78,-0.29,0.55,10,2,12,0.83,7335,18,107,44,43,941,386.0,451,462,60,124.0,155,1,340,219,60,0,0,386,742,-3968,386,-5.59,,,,,,,,,,,,
479923,1564153224627,2,2.43,1.09,0.38,1.5,1.12,0.91,-0.29,0.64,9,1,14,0.95,7298,19,107,44,43,944,384.0,461,465,60,121.0,155,1,340,219,60,0,0,386,770,17144,384,-5.59,,,,,,,,,,,,
479943,1564153224647,6,2.42,1.1,0.38,1.51,1.13,0.99,-0.26,0.73,9,2,14,1.02,7318,18,107,44,43,947,386.0,458,460,60,122.0,155,1,340,219,60,0,0,386,-6656,1,384,-5.59,44.680935,10.024889,38.78,174.1,0,0.0,-1,0.0,0.0,0,3.55,7.9991
479963,1564153224667,5,2.42,1.09,0.38,1.5,1.12,0.84,-0.25,0.75,10,4,11,0.88,7261,18,107,44,44,948,384.0,460,464,60,122.0,155,1,347,219,60,0,0,388,742,-3866,383,-5.59,,,,,,,,,,,,
479983,1564153224687,4,2.42,1.09,0.37,1.5,1.12,0.69,-0.2,0.55,10,5,12,0.72,7233,18,107,44,43,952,383.0,447,465,60,123.0,156,1,340,219,60,0,0,385,257,-6656,383,-5.59,,,,,,,,,,,,
480003,1564153224707,3,2.42,1.09,0.37,1.5,1.12,0.62,-0.16,0.44,10,5,12,0.64,7228,18,107,44,44,957,382.0,450,465,60,123.0,156,1,347,221,60,0,0,382,486,-6656,382,-5.59,,,,,,,,,,,,
480023,1564153224727,2,2.43,1.09,0.38,1.5,1.12,0.71,-0.2,0.49,10,1,13,0.74,7164,18,107,44,44,961,382.0,447,463,60,123.0,156,1,347,139,60,0,0,383,0,-6656,382,-5.59,,,,,,,,,,,,
480043,1564153224747,5,2.43,1.09,0.38,1.49,1.13,0.84,-0.22,0.54,10,1,13,0.87,7178,18,107,44,44,964,381.0,443,463,60,122.0,156,1,347,221,60,0,0,382,0,-6656,381,-5.59,44.680927,10.024879,38.25,174.1,0,0.0,-1,0.0,0.0,0,3.55,8.0007
480063,1564153224767,5,2.42,1.1,0.37,1.5,1.12,0.72,-0.2,0.5,10,2,12,0.75,7145,18,107,44,44,967,379.0,447,465,60,121.0,156,1,347,221,60,0,0,378,0,-6524,379,-5.59,,,,,,,,,,,,
480083,1564153224787,3,2.42,1.09,0.38,1.5,1.12,0.65,-0.17,0.37,10,3,13,0.67,7145,18,107,44,44,968,379.0,432,466,60,122.0,158,1,347,139,60,0,0,378,0,240,379,-5.59,,,,,,,,,,,,
480103,1564153224807,3,2.42,1.09,0.38,1.51,1.13,0.71,-0.17,0.44,10,2,13,0.73,7161,18,107,44,44,968,379.0,441,466,60,122.0,158,1,347,221,60,0,0,376,230,-6524,379,-5.59,,,,,,,,,,,,
480123,1564153224827,6,2.41,1.1,0.38,1.5,1.12,0.83,-0.16,0.58,10,1,14,0.85,7110,18,107,44,44,966,377.0,446,465,60,122.0,158,1,347,222,60,0,0,378,-6405,19125,377,-5.59,,,,,,,,,,,,
480143,1564153224847,5,2.42,1.09,0.37,1.5,1.13,0.85,-0.1,0.48,10,2,13,0.85,7159,18,107,44,45,965,375.0,442,464,60,122.0,158,1,355,222,60,0,0,375,-1268,19125,375,-5.59,44.680923,10.024867,37.97,174.1,0,0.0,-1,0.0,0.0,0,3.55,8.0024
480163,1564153224867,4,2.41,1.09,0.37,1.5,1.12,0.7,-0.09,0.35,10,3,12,0.71,7153,18,107,44,45,964,376.0,452,467,60,122.0,158,1,355,222,60,0,0,373,2790,-3866,376,-5.59,,,,,,,,,,,,
480183,1564153224887,3,2.41,1.09,0.37,1.5,1.12,0.72,-0.16,0.37,10,1,11,0.74,7086,18,107,44,45,964,372.0,437,462,60,123.0,158,1,355,221,59,0,0,376,-6458,-31744,372,-5.59,,,,,,,,,,,,
480203,1564153224907,6,2.41,1.09,0.38,1.5,1.13,0.75,-0.25,0.52,9,1,12,0.79,7086,18,107,44,45,966,373.0,446,465,60,122.0,158,1,355,222,59,0,0,374,2790,-19126,373,-5.59,,,,,,,,,,,,
480223,1564153224927,3,2.42,1.09,0.37,1.49,1.13,0.77,-0.25,0.44,10,3,13,0.81,7046,18,107,44,45,968,371.0,447,467,60,121.0,158,1,355,222,59,0,0,374,2790,19125,371,-5.59,,,,,,,,,,,,
480243,1564153224947,3,2.41,1.08,0.37,1.51,1.12,0.59,-0.23,0.42,10,3,11,0.63,7040,18,107,44,45,972,372.0,435,463,60,123.0,158,1,355,222,59,0,0,371,-6458,-992,372,-5.59,44.68092,10.024857,37.51,174.2,0,0.0,-1,0.0,0.0,0,3.56,8.0041
480263,1564153224967,6,2.41,1.09,0.37,1.5,1.12,0.73,-0.26,0.52,9,1,11,0.78,7067,18,107,44,45,976,371.0,438,464,60,122.0,158,1,355,222,59,0,0,375,-6458,8200,371,-5.59,,,,,,,,,,,,
480283,1564153224987,5,2.41,1.09,0.38,1.49,1.12,0.72,-0.21,0.5,10,3,10,0.75,7014,18,107,44,45,979,369.0,447,465,60,122.0,159,1,355,222,59,0,0,372,-29978,2278,369,-5.59,,,,,,,,,,,,
480303,1564153224997,3,2.4,1.09,0.37,1.5,1.12,0.67,-0.18,0.44,10,2,11,0.7,6996,18,107,44,45,982,370.0,438,466,60,121.0,159,1,355,222,59,0,0,373,-29978,3,370,-5.59,,,,,,,,,,,,
480323,1564153225017,4,2.4,1.09,0.38,1.5,1.12,0.71,-0.21,0.6,9,1,11,0.74,6993,18,107,44,45,987,369.0,433,465,60,122.0,159,1,354,222,59,0,0,371,-6640,-992,369,-5.59,,,,,,,,,,,,
480343,1564153225037,4,2.4,1.09,0.38,1.5,1.12,0.82,-0.13,0.58,9,2,12,0.83,6939,18,107,44,45,991,366.0,437,463,60,122.0,159,1,354,223,59,0,0,371,-29978,8200,369,-5.59,44.680916,10.024845,37.21,174.2,0,0.0,-1,0.0,0.0,0,3.56,8.0057
480363,1564153225057,4,2.4,1.08,0.37,1.5,1.12,0.72,-0.13,0.53,9,2,10,0.73,6934,18,107,44,46,993,369.0,424,463,60,123.0,159,1,361,222,59,0,0,368,-6640,8200,369,-5.59,,,,,,,,,,,,
480383,1564153225077,5,2.4,1.09,0.37,1.49,1.12,0.85,-0.13,0.61,9,-0,10,0.86,6936,18,107,44,46,995,367.0,433,463,60,123.0,157,1,361,223,58,0,0,368,4104,-6656,367,-5.59,,,,,,,,,,,,
480403,1564153225097,4,2.4,1.09,0.37,1.5,1.12,0.78,-0.11,0.53,9,2,10,0.79,6916,18,107,44,46,995,372.0,436,464,60,123.0,157,1,361,223,58,0,0,465,-29978,742,372,-5.59,,,,,,,,,,,,
480423,1564153225117,3,2.39,1.08,0.35,1.49,1.12,0.82,-0.12,0.54,9,0,11,0.83,6921,18,107,44,46,994,362.0,428,462,60,123.0,157,1,361,223,58,0,0,465,3183,1,362,-5.59,,,,,,,,,,,,
480443,1564153225137,5,2.39,1.09,0.37,1.49,1.13,0.86,-0.08,0.58,9,1,12,0.86,6941,18,107,44,46,992,363.0,432,466,60,121.0,157,1,361,223,58,0,0,465,-6644,-6656,363,-5.59,44.680908,10.024834,36.98,174.2,0,0.0,-1,0.0,0.0,0,3.56,8.0074
480463,1564153225157,3,2.39,1.08,0.37,1.49,1.12,0.77,0.01,0.44,9,3,12,0.77,6939,18,107,44,46,990,360.0,438,463,60,121.0,157,1,361,223,58,0,0,465,-6644,-6656,360,-5.59,,,,,,,,,,,,
480483,1564153225177,7,2.38,1.08,0.37,1.5,1.12,0.83,-0.06,0.58,8,-0,12,0.83,6903,18,107,44,46,988,360.0,426,457,60,123.0,160,1,361,223,58,0,0,465,3183,-6656,360,-5.59,,,,,,,,,,,,
480503,1564153225207,4,2.37,1.08,0.37,1.49,1.12,0.8,0.02,0.46,8,2,11,0.8,6880,18,107,44,46,985,359.0,431,464,60,122.0,160,1,360,223,58,0,0,465,28553,-6656,359,-5.59,,,,,,,,,,,,
480523,1564153225227,6,2.36,1.07,0.37,1.49,1.11,0.81,-0.06,0.48,7,-0,10,0.82,6855,18,107,44,46,985,357.0,428,465,60,123.0,160,1,360,223,58,0,0,359,2811,1,357,-5.59,,,,,,,,,,,,
480543,1564153225247,5,2.35,1.06,0.37,1.48,1.12,0.81,-0.07,0.43,7,1,9,0.81,6781,18,107,44,47,985,358.0,432,465,60,122.0,160,1,367,224,58,0,0,361,28553,230,357,-5.59,44.680904,10.024821,36.35,174.2,0,0.0,-1,0.0,0.0,0,3.56,8.0091
480563,1564153225267,5,2.34,1.06,0.37,1.48,1.11,0.77,-0.07,0.36,6,1,10,0.77,6781,18,107,44,47,981,356.0,414,461,60,124.0,160,1,367,224,58,0,0,360,28553,0,356,-5.59,,,,,,,,,,,,
480583,1564153225287,4,2.34,1.03,0.36,1.46,1.11,0.84,-0.01,0.42,6,-0,11,0.84,6800,18,107,44,47,979,355.0,425,462,60,123.0,160,1,368,225,57,0,0,362,-30454,3082,355,-5.59,,,,,,,,,,,,
480603,1564153225307,4,2.33,1.02,0.35,1.44,1.09,0.76,0.06,0.46,5,1,9,0.76,6788,18,107,44,47,976,354.0,420,462,60,123.0,160,1,367,224,57,0,0,361,-30454,230,353,-5.59,,,,,,,,,,,,
480623,1564153225327,5,2.31,0.99,0.34,1.41,1.08,0.88,0.07,0.54,5,0,8,0.89,6754,18,107,44,47,974,352.0,418,462,60,123.0,160,1,367,224,57,0,0,362,2811,-29978,352,-5.59,,,,,,,,,,,,
480643,1564153225347,3,2.31,0.95,0.34,1.38,1.07,0.77,0.08,0.49,4,-0,7,0.77,6730,18,107,44,47,972,353.0,412,463,60,123.0,160,1,367,224,57,0,0,365,2811,2060,353,-5.59,44.680904,10.024811,35.87,174.3,0,0.0,-1,0.0,0.0,0,3.56,8.0107
480663,1564153225367,4,2.31,0.92,0.32,1.35,1.05,0.88,0.11,0.44,4,0,6,0.89,6742,18,107,44,47,972,349.0,423,468,60,121.0,160,1,367,224,57,0,0,363,2811,-14707,349,-5.59,,,,,,,,,,,,
480683,1564153225387,4,2.3,0.89,0.32,1.33,1.05,0.84,0.07,0.44,3,-0,5,0.84,6732,18,107,44,48,974,348.0,416,463,60,124.0,163,1,370,229,57,0,0,360,-1246,2790,348,-5.59,,,,,,,,,,,,
480703,1564153225407,5,2.31,0.88,0.31,1.32,1.04,0.87,0.09,0.48,3,0,4,0.88,6696,18,107,44,48,976,348.0,420,461,60,123.0,163,1,369,229,57,0,0,358,-1246,-29978,348,-5.59,,,,,,,,,,,,
480723,1564153225427,6,2.3,0.88,0.31,1.32,1.04,0.8,0.11,0.51,2,1,4,0.81,6677,18,107,44,48,981,349.0,415,465,60,123.0,163,1,369,229,57,0,0,357,2811,4104,347,-5.59,,,,,,,,,,,,
480743,1564153225447,2,2.31,0.88,0.31,1.32,1.04,0.91,0.18,0.48,2,2,4,0.93,6667,18,107,44,48,987,349.0,420,464,60,121.0,163,1,369,229,57,0,0,358,2811,-29302,348,-5.59,44.680901,10.024799,35.47,174.3,0,0.0,-1,0.0,0.0,0,3.56,8.0124
480763,1564153225467,5,2.31,0.89,0.32,1.32,1.04,0.8,0.08,0.55,2,1,3,0.81,6670,18,107,44,48,992,347.0,412,461,60,123.0,163,1,369,229,57,0,0,358,-30438,3302,347,-5.59,,,,,,,,,,,,
480783,1564153225487,1,2.33,0.89,0.32,1.32,1.05,0.87,0.18,0.45,2,3,3,0.89,6653,18,107,44,48,995,348.0,423,465,60,122.0,163,1,369,235,57,0,0,358,8841,2060,346,-5.59,,,,,,,,,,,,
480803,1564153225507,3,2.34,0.89,0.32,1.33,1.05,0.88,0.12,0.57,2,-1,2,0.88,6648,17,107,44,48,1001,348.0,411,461,60,123.0,163,1,369,229,57,0,0,354,-1246,-6640,347,-5.59,,,,,,,,,,,,
480823,1564153225527,1,2.35,0.91,0.32,1.33,1.05,0.8,0.12,0.47,2,0,1,0.81,6648,17,107,44,48,1006,346.0,415,465,60,121.0,163,1,369,148,57,0,0,354,6870,3302,346,-5.59,,,,,,,,,,,,
480843,1564153225547,2,2.35,0.93,0.32,1.36,1.06,0.89,0.11,0.49,3,-0,1,0.89,6691,17,107,44,48,1010,345.0,417,463,60,124.0,163,1,369,235,57,0,0,356,-10554,-6640,345,-5.59,44.680893,10.024788,35.15,174.3,0,0.0,-1,0.0,0.0,0,3.56,8.014
480863,1564153225567,-1,2.37,0.95,0.34,1.38,1.07,0.84,0.07,0.56,2,1,0,0.84,6691,17,107,44,48,1012,347.0,416,461,60,124.0,163,1,369,229,57,0,0,353,-10554,2060,347,-5.59,,,,,,,,,,,,
480883,1564153225587,1,2.36,0.98,0.34,1.4,1.08,0.86,0.05,0.53,3,-0,0,0.86,6641,17,107,44,48,1014,347.0,428,465,60,121.0,164,1,369,229,57,0,0,357,6870,-6640,347,-5.59,,,,,,,,,,,,
480903,1564153225606,4,2.36,0.98,0.34,1.42,1.09,0.79,0.06,0.5,3,1,2,0.79,6625,17,107,44,48,1016,349.0,408,461,60,123.0,164,1,369,229,57,0,0,355,-30438,-1268,349,-5.59,,,,,,,,,,,,
480923,1564153225626,-0,2.36,0.99,0.34,1.42,1.08,0.88,0.1,0.52,3,1,2,0.89,6630,17,107,44,48,1017,349.0,420,465,60,121.0,164,1,369,235,57,0,0,356,6870,-6644,347,-5.59,,,,,,,,,,,,
480943,1564153225646,1,2.37,0.99,0.35,1.43,1.08,0.77,0.01,0.63,3,-0,1,0.77,6644,17,107,44,48,1018,347.0,411,463,60,123.0,164,1,369,229,57,0,0,354,-10554,2060,347,-5.59,44.680889,10.024777,34.67,174.3,0,0.0,-1,0.0,0.0,0,3.56,8.0157
480963,1564153225666,0,2.37,0.98,0.34,1.41,1.09,0.78,0.09,0.47,3,3,1,0.79,6644,17,107,44,48,1019,347.0,421,466,60,122.0,164,1,369,229,57,0,0,357,-10554,2060,347,-5.59,,,,,,,,,,,,
480983,1564153225686,2,2.36,0.98,0.35,1.41,1.09,0.87,-0.01,0.57,3,-1,1,0.87,6656,16,107,44,48,1022,349.0,415,462,60,123.0,167,1,369,229,58,0,0,354,6870,-14707,349,-5.59,,,,,,,,,,,,
481003,1564153225706,-0,2.37,0.97,0.33,1.4,1.08,0.76,0.03,0.53,3,-0,-0,0.76,6667,16,107,44,48,1024,348.0,412,466,60,122.0,167,1,369,229,58,0,0,359,-10554,4104,348,-5.59,,,,,,,,,,,,
481023,1564153225726,1,2.36,0.96,0.33,1.39,1.08,0.86,0.05,0.53,3,-1,1,0.86,6691,16,107,44,47,1027,347.0,418,463,60,121.0,167,1,366,229,58,0,0,359,6870,-6640,347,-5.59,,,,,,,,,,,,
481043,1564153225746,0,2.35,0.96,0.34,1.4,1.07,0.78,-0.01,0.5,2,-0,1,0.78,6701,16,107,44,47,1030,349.0,413,462,60,123.0,167,1,367,224,58,0,0,358,-30438,-29978,347,-5.59,44.680885,10.024767,34.63,174.3,0,0.0,-1,0.0,0.0,0,3.56,8.0174
481063,1564153225766,0,2.36,0.96,0.34,1.39,1.08,0.83,-0.0,0.46,3,-1,2,0.83,6658,16,107,44,47,1035,349.0,422,461,60,122.0,167,1,366,224,58,0,0,358,-30438,-29978,349,-5.59,,,,,,,,,,,,
481083,1564153225786,3,2.36,0.96,0.34,1.39,1.08,0.77,-0.0,0.52,3,-0,2,0.77,6663,16,107,44,47,1039,349.0,412,462,60,124.0,160,1,366,224,56,0,0,358,-30438,-29978,349,-5.59,,,,,,,,,,,,
481103,1564153225806,-0,2.37,0.96,0.34,1.39,1.08,0.86,0.09,0.51,3,1,3,0.87,6686,16,107,44,47,1041,348.0,421,468,60,122.0,160,1,366,224,56,0,0,358,-30438,2060,348,-5.59,,,,,,,,,,,,
481123,1564153225826,3,2.36,0.96,0.33,1.4,1.08,0.77,-0.03,0.59,3,-2,3,0.77,6679,16,107,44,47,1043,350.0,416,462,60,124.0,160,1,366,224,56,0,0,358,-30438,-6640,350,-5.59,,,,,,,,,,,,
481143,1564153225846,-1,2.38,0.95,0.34,1.38,1.08,0.78,0.09,0.42,4,1,3,0.78,6677,16,107,44,47,1042,351.0,432,464,60,121.0,160,1,366,224,56,0,0,358,-10554,3082,351,-5.59,44.680885,10.024755,34.77,174.3,0,0.0,-1,0.0,0.0,0,3.56,8.019
481163,1564153225866,1,2.39,0.96,0.34,1.39,1.08,0.84,0.02,0.57,4,-2,2,0.84,6703,16,107,43,47,1042,351.0,418,463,60,123.0,160,1,367,226,56,0,0,358,-30438,-29302,351,-5.59,,,,,,,,,,,,
481183,1564153225886,0,2.39,0.97,0.33,1.4,1.08,0.76,0.1,0.51,4,0,1,0.77,6751,16,107,44,47,1038,349.0,425,463,60,121.0,163,1,367,224,57,0,0,358,6870,-29302,350,-5.59,,,,,,,,,,,,
481203,1564153225906,1,2.4,0.97,0.34,1.41,1.08,0.81,0.01,0.56,4,-1,2,0.81,6749,16,107,43,46,1035,351.0,424,463,60,122.0,163,1,359,224,57,0,0,359,6870,3082,351,-5.59,,,,,,,,,,,,
481223,1564153225926,-0,2.4,0.99,0.34,1.41,1.08,0.74,0.05,0.45,4,0,2,0.74,6742,16,107,44,46,1029,352.0,424,461,60,122.0,163,1,359,222,57,0,0,357,-30438,2790,352,-5.59,,,,,,,,,,,,
481243,1564153225946,1,2.4,1.0,0.35,1.44,1.09,0.76,-0.05,0.5,5,-1,2,0.76,6715,16,107,43,46,1023,352.0,411,462,60,123.0,163,1,359,224,57,0,0,359,8841,-1268,352,-5.59,44.680882,10.024744,34.92,174.4,0,0.0,-1,0.0,0.0,0,3.57,8.0207
481263,1564153225966,-1,2.4,1.02,0.35,1.45,1.09,0.81,-0.01,0.47,5,1,4,0.81,6720,16,107,43,46,1021,353.0,419,465,60,122.0,163,1,359,224,57,0,0,356,8841,-29302,353,-5.59,,,,,,,,,,,,
481283,1564153225986,1,2.41,1.02,0.36,1.46,1.1,0.79,-0.06,0.57,5,-2,4,0.8,6737,16,107,43,46,1019,353.0,418,461,60,122.0,161,1,359,224,57,0,0,361,-30438,-6458,353,-5.59,,,,,,,,,,,,
481303,1564153225996,0,2.4,1.02,0.35,1.46,1.1,0.73,0.01,0.46,6,2,4,0.73,6722,16,107,43,46,1016,354.0,419,465,60,122.0,161,1,359,224,57,0,0,358,-30438,0,354,-5.59,,,,,,,,,,,,
481323,1564153226016,2,2.41,1.02,0.35,1.46,1.09,0.79,-0.07,0.56,6,-1,5,0.79,6718,15,107,43,45,1014,354.0,423,459,60,122.0,161,1,352,224,57,0,0,357,2811,-6458,354,-5.59,,,,,,,,,,,,
481343,1564153226036,1,2.4,1.02,0.35,1.46,1.1,0.75,-0.06,0.49,6,-1,3,0.75,6730,15,107,43,45,1014,354.0,412,462,60,122.0,161,1,352,222,57,0,0,358,-30438,-6405,354,-5.59,44.680878,10.024733,35.01,174.4,0,0.0,-1,0.0,0.0,0,3.57,8.0224
481363,1564153226056,2,2.41,1.02,0.36,1.45,1.1,0.85,-0.08,0.53,6,-1,4,0.85,6751,15,107,43,45,1015,353.0,418,461,60,123.0,161,1,352,222,57,0,0,357,6870,2790,353,-5.59,,,,,,,,,,,,
481383,1564153226076,2,2.4,1.02,0.35,1.45,1.09,0.78,-0.1,0.52,6,-1,5,0.78,6747,15,107,43,45,1012,353.0,424,462,60,122.0,158,1,352,222,56,0,0,359,6870,-6458,353,-5.59,,,,,,,,,,,,
481403,1564153226106,5,2.4,1.01,0.35,1.46,1.09,0.8,-0.14,0.56,6,-1,5,0.81,6715,15,107,43,45,1009,352.0,425,461,60,121.0,158,1,352,222,56,0,0,355,6870,230,351,-5.59,,,,,,,,,,,,
481423,1564153226126,3,2.4,1.02,0.36,1.45,1.09,0.75,-0.15,0.48,6,1,6,0.77,6706,15,107,43,45,1006,351.0,414,466,60,122.0,158,1,352,222,56,0,0,355,-10554,-14707,351,-5.59,,,,,,,,,,,,
481443,1564153226146,5,2.4,1.02,0.36,1.45,1.1,0.88,-0.1,0.52,6,-0,7,0.88,6701,15,107,43,45,1003,349.0,420,464,60,121.0,158,1,352,222,56,0,0,356,-14714,-29978,349,-5.59,44.680874,10.024722,35.12,174.4,0,0.0,-1,0.0,0.0,0,3.57,8.024
481463,1564153226166,7,2.4,1.01,0.36,1.45,1.09,0.72,-0.1,0.54,7,2,7,0.73,6686,15,107,43,45,999,349.0,414,458,60,122.0,158,1,352,222,56,0,0,355,-10554,-6640,350,-5.59,,,,,,,,,,,,
481483,1564153226186,5,2.39,1.0,0.34,1.44,1.1,0.85,-0.07,0.46,7,2,7,0.86,6625,15,107,43,45,993,347.0,425,465,60,121.0,157,1,352,222,55,0,0,352,3327,4104,347,-5.59,,,,,,,,,,,,
481503,1564153226208,6,2.39,1.01,0.36,1.45,1.09,0.81,-0.13,0.54,6,-1,7,0.82,6625,15,107,43,45,990,347.0,407,461,60,122.0,157,1,352,222,55,0,0,356,3327,-6405,347,-5.59,,,,,,,,,,,,
481523,1564153226228,3,2.39,1.01,0.35,1.45,1.1,0.8,-0.11,0.54,7,1,5,0.81,6602,15,107,43,45,988,347.0,410,464,60,122.0,157,1,352,222,55,0,0,354,-122,2060,346,-5.59,,,,,,,,,,,,
481543,1564153226248,4,2.39,1.02,0.36,1.45,1.1,0.85,-0.08,0.51,7,-0,6,0.85,6602,15,107,43,45,985,346.0,416,465,60,121.0,157,1,352,222,55,0,0,352,-31222,3302,346,-5.59,44.68087,10.024711,35.09,174.4,0,0.0,-1,0.0,0.0,0,3.57,8.0257
481563,1564153226268,7,2.4,1.03,0.35,1.46,1.1,0.78,-0.13,0.48,6,1,6,0.8,6592,15,107,43,45,981,345.0,412,465,60,122.0,157,1,351,222,55,0,0,350,2560,-29978,345,-5.59,,,,,,,,,,,,
481583,1564153226288,3,2.39,1.02,0.36,1.46,1.1,0.86,-0.06,0.47,6,1,6,0.86,6533,15,107,43,46,979,343.0,413,465,60,122.0,160,1,358,223,55,0,0,345,2560,2811,343,-5.59,,,,,,,,,,,,
481603,1564153226308,5,2.4,1.02,0.35,1.46,1.1,0.79,-0.13,0.51,6,-1,6,0.8,6512,15,107,43,45,977,342.0,409,462,60,123.0,160,1,351,223,55,0,0,348,2560,28553,342,-5.59,,,,,,,,,,,,
481623,1564153226328,6,2.4,1.02,0.36,1.46,1.09,0.82,-0.08,0.48,7,1,8,0.82,6485,15,107,43,46,972,341.0,407,466,60,123.0,160,1,357,223,55,0,0,347,3346,2811,341,-5.59,,,,,,,,,,,,
481643,1564153226348,4,2.4,1.02,0.35,1.46,1.1,0.94,-0.03,0.54,7,1,8,0.94,6494,14,107,43,46,966,342.0,410,460,60,122.0,160,1,357,223,55,0,0,344,-6528,-30438,343,-5.59,44.680866,10.024699,34.7,174.4,0,0.0,-1,0.0,0.0,0,3.57,8.0274
481663,1564153226368,5,2.41,1.02,0.35,1.47,1.09,0.82,-0.1,0.54,7,-1,8,0.83,6483,14,107,43,46,959,341.0,408,461,60,122.0,160,1,357,223,55,0,0,345,-12032,28553,341,-5.59,,,,,,,,,,,,
481683,1564153226388,7,2.41,1.03,0.36,1.46,1.1,0.76,-0.08,0.6,7,2,8,0.77,6465,14,107,43,46,954,342.0,400,461,60,122.0,158,1,357,223,54,0,0,343,-20736,-30438,342,-5.59,,,,,,,,,,,,
481703,1564153226406,2,2.43,1.03,0.36,1.46,1.1,0.8,0.01,0.44,7,2,9,0.8,6423,14,107,43,46,949,340.0,407,463,60,122.0,158,1,357,223,54,0,0,340,-20736,28553,340,-5.59,,,,,,,,,,,,
481723,1564153226426,3,2.44,1.03,0.36,1.47,1.11,0.88,-0.0,0.54,8,-0,8,0.88,6423,14,107,43,46,942,340.0,397,461,60,123.0,158,1,357,223,54,0,0,341,160,8841,340,-5.59,,,,,,,,,,,,
481743,1564153226446,6,2.45,1.04,0.36,1.48,1.1,0.75,-0.08,0.52,8,-1,7,0.75,6401,14,107,43,46,938,338.0,398,463,60,123.0,158,1,357,223,54,0,0,338,160,6870,337,-5.59,44.680866,10.024688,34.28,174.4,0,0.0,-1,0.0,0.0,0,3.57,8.029
481763,1564153226466,7,2.45,1.06,0.37,1.48,1.11,0.75,-0.06,0.5,8,-0,8,0.76,6377,14,107,43,46,936,336.0,399,463,60,121.0,158,1,356,222,54,0,0,337,-24576,-10554,336,-5.59,,,,,,,,,,,,
481783,1564153226486,4,2.46,1.07,0.37,1.49,1.11,0.85,-0.04,0.43,9,-0,8,0.85,6364,14,107,43,46,936,334.0,408,468,60,121.0,157,1,356,222,53,0,0,335,-25856,-10554,334,-5.59,,,,,,,,,,,,
481803,1564153226508,2,2.47,1.08,0.38,1.5,1.12,0.95,-0.09,0.45,10,-0,8,0.95,6338,14,107,43,46,936,336.0,398,460,60,123.0,157,1,356,222,53,0,0,336,155,-31206,337,-5.59,,,,,,,,,,,,
481823,1564153226528,6,2.47,1.09,0.38,1.51,1.12,0.89,-0.16,0.47,10,-1,9,0.91,6311,14,107,43,46,936,339.0,391,458,60,123.0,157,1,356,222,53,0,0,334,-25856,6870,339,-5.59,,,,,,,,,,,,
481843,1564153226548,7,2.45,1.09,0.38,1.51,1.12,0.85,-0.23,0.47,9,2,10,0.88,6298,14,107,43,47,935,339.0,389,464,60,123.0,157,1,362,224,53,0,0,331,-27136,8841,337,-5.59,44.680862,10.024677,33.83,174.4,0,0.0,-1,0.0,0.0,0,3.57,8.0307
481863,1564153226568,9,2.45,1.1,0.37,1.51,1.12,0.87,-0.24,0.42,9,3,11,0.91,6277,14,107,43,47,938,336.0,389,464,60,122.0,157,1,362,141,53,0,0,331,-28416,6870,336,-5.59,,,,,,,,,,,,
481883,1564153226588,4,2.45,1.09,0.36,1.51,1.12,0.88,-0.2,0.43,9,3,11,0.9,6273,14,107,43,47,942,331.0,398,466,60,121.0,159,1,362,224,53,0,0,326,140,-31206,331,-5.59,,,,,,,,,,,,
481903,1564153226607,5,2.45,1.09,0.37,1.51,1.12,0.91,-0.21,0.38,10,1,11,0.93,6258,14,107,43,46,945,330.0,392,462,60,124.0,159,1,355,224,53,0,0,330,-29696,13,330,-5.59,,,,,,,,,,,,
481923,1564153226627,4,2.45,1.08,0.37,1.5,1.12,0.87,-0.28,0.38,10,-1,12,0.92,6235,14,107,43,47,947,329.0,389,458,60,124.0,159,1,362,224,53,0,0,327,135,13,329,-5.59,,,,,,,,,,,,
481943,1564153226647,7,2.45,1.08,0.37,1.5,1.12,0.77,-0.35,0.46,9,-1,12,0.85,6214,13,107,43,47,949,328.0,383,465,60,123.0,159,1,362,224,53,0,0,329,-29696,3346,328,-5.59,44.680859,10.024666,33.3,174.4,0,0.0,-1,0.0,0.0,0,3.57,8.0324
481963,1564153226667,7,2.45,1.07,0.37,1.5,1.11,0.72,-0.32,0.53,9,1,13,0.79,6181,13,107,43,47,950,329.0,379,462,60,123.0,159,1,361,223,53,0,0,328,-30976,3346,329,-5.59,,,,,,,,,,,,
481983,1564153226687,8,2.44,1.08,0.36,1.5,1.11,0.68,-0.24,0.5,9,3,13,0.72,6159,13,107,43,47,951,327.0,384,464,60,122.0,159,1,361,223,52,0,0,327,135,13,327,-5.59,,,,,,,,,,,,
482003,1564153226707,8,2.43,1.07,0.37,1.49,1.12,0.76,-0.15,0.53,10,4,14,0.77,6149,13,107,43,47,949,327.0,393,465,60,121.0,159,1,361,223,52,0,0,323,125,4838,327,-5.59,,,,,,,,,,,,
482023,1564153226727,8,2.41,1.07,0.36,1.5,1.11,0.88,-0.07,0.54,10,5,15,0.88,6115,13,107,43,47,947,325.0,388,462,60,121.0,159,1,361,223,52,0,0,319,-32256,13,325,-5.59,,,,,,,,,,,,
482043,1564153226747,5,2.4,1.06,0.36,1.48,1.11,0.99,-0.06,0.55,10,5,15,1.0,6099,13,107,43,47,940,324.0,384,464,60,121.0,159,1,360,223,52,0,0,321,32000,3346,324,-5.59,44.680855,10.024654,32.75,174.4,0,0.0,-1,0.0,0.0,0,3.57,8.034
482063,1564153226767,7,2.39,1.06,0.36,1.48,1.1,1.09,-0.08,0.57,10,6,14,1.09,6069,13,107,43,48,933,321.0,388,463,60,120.0,159,1,363,228,52,0,0,319,30720,-32559,321,-5.59,,,,,,,,,,,,
482083,1564153226787,7,2.39,1.05,0.35,1.47,1.1,1.18,-0.09,0.65,10,5,12,1.19,6042,13,107,43,48,928,317.0,392,463,60,122.0,163,1,363,228,52,0,0,320,115,-20736,317,-5.59,,,,,,,,,,,,
482103,1564153226807,7,2.39,1.05,0.35,1.47,1.11,1.27,-0.14,0.7,10,5,11,1.28,6021,13,107,43,48,923,316.0,391,467,60,122.0,163,1,363,228,52,0,0,318,110,165,316,-5.59,,,,,,,,,,,,
482123,1564153226827,7,2.38,1.04,0.35,1.47,1.1,1.34,-0.15,0.71,10,5,11,1.35,5982,13,107,43,48,913,312.0,384,461,60,122.0,163,1,361,228,52,0,0,318,110,150,312,-5.59,,,,,,,,,,,,
482143,1564153226847,8,2.39,1.04,0.36,1.47,1.1,1.41,-0.15,0.72,10,5,11,1.42,5946,13,107,43,49,904,312.0,380,462,60,121.0,163,1,361,228,52,0,0,317,110,155,312,-5.59,44.680855,10.024643,32.13,174.4,0,0.0,-1,0.0,0.0,0,3.57,8.0357
482163,1564153226867,9,2.39,1.04,0.36,1.47,1.11,1.43,-0.07,0.72,10,6,10,1.43,5879,13,107,43,49,901,311.0,374,465,60,120.0,163,1,355,234,52,0,0,314,28160,-28416,310,-5.59,,,,,,,,,,,,
482183,1564153226887,8,2.38,1.05,0.35,1.47,1.1,1.34,0.03,0.69,10,8,10,1.34,5828,13,107,43,50,898,309.0,367,464,60,121.0,165,1,354,234,51,0,0,313,26880,-28416,309,-5.59,,,,,,,,,,,,
482203,1564153226907,8,2.38,1.05,0.36,1.49,1.1,1.15,-0.01,0.65,9,9,11,1.15,5772,13,107,43,50,891,308.0,358,465,60,122.0,165,1,350,238,51,0,0,307,25600,135,308,-5.59,,,,,,,,,,,,
482223,1564153226927,7,2.36,1.04,0.36,1.49,1.1,1.02,-0.08,0.53,9,7,12,1.02,5744,13,107,43,51,884,305.0,358,465,60,122.0,165,1,350,237,51,0,0,307,24320,-29696,305,-5.59,,,,,,,,,,,,
482243,1564153226947,7,2.35,1.04,0.36,1.47,1.1,1.02,-0.02,0.51,8,3,12,1.02,5680,13,107,43,51,879,303.0,354,459,60,123.0,165,1,345,241,51,0,0,305,90,135,303,-5.59,44.680851,10.024632,31.51,174.4,0,0.0,-1,0.0,0.0,0,3.58,8.0374
482263,1564153226967,10,2.34,1.03,0.35,1.46,1.1,1.12,-0.04,0.54,8,2,10,1.12,5666,13,107,43,52,874,298.0,360,460,60,123.0,165,1,348,246,51,0,0,303,80,29440,298,-5.59,,,,,,,,,,,,
482283,1564153226987,12,2.33,1.01,0.35,1.44,1.1,1.12,-0.01,0.55,7,3,9,1.12,5635,13,107,43,53,865,296.0,362,463,60,123.0,179,1,348,251,53,0,0,298,0,110,294,-5.59,,,,,,,,,,,,
482303,1564153226997,10,2.31,1.0,0.34,1.44,1.08,0.99,-0.06,0.43,6,4,10,0.99,5640,13,107,43,53,855,292.0,361,461,60,122.0,179,1,350,251,53,0,0,298,41,25600,292,-5.59,,,,,,,,,,,,
482323,1564153227017,8,2.31,0.99,0.34,1.42,1.09,1.0,-0.03,0.38,5,2,9,1.0,5598,13,107,43,54,847,288.0,352,465,60,123.0,179,1,350,255,53,0,0,294,10686,90,288,181.28,,,,,,,,,,,,
482343,1564153227037,11,2.3,0.98,0.34,1.41,1.08,1.07,0.07,0.42,5,1,7,1.07,5553,13,107,43,54,841,285.0,358,458,60,122.0,179,1,346,255,53,0,0,294,-16896,90,285,-5.59,44.680851,10.024622,30.58,174.4,0,0.0,-1,0.0,0.0,0,3.58,8.0391
482363,1564153227057,10,2.29,0.97,0.34,1.4,1.08,0.97,-0.0,0.4,4,1,8,0.97,5482,13,107,43,55,834,285.0,352,463,60,121.0,179,1,339,254,53,0,0,296,-16896,23040,284,-5.59,,,,,,,,,,,,
482383,1564153227077,11,2.28,0.96,0.34,1.39,1.07,1.05,-0.03,0.28,3,-0,6,1.05,5386,13,107,43,56,826,283.0,348,463,60,122.0,185,1,328,255,52,0,0,289,-1529,0,277,-5.59,,,,,,,,,,,,
482403,1564153227107,10,2.26,0.94,0.33,1.39,1.07,1.01,0.04,0.37,3,3,4,1.01,5351,13,107,43,57,822,280.0,357,465,60,122.0,185,1,322,257,52,0,0,289,630,10686,277,-5.59,,,,,,,,,,,,
482423,1564153227127,7,2.25,0.94,0.33,1.39,1.06,1.01,0.05,0.24,1,1,4,1.01,5340,13,107,43,57,819,278.0,341,460,60,122.0,185,1,321,257,52,0,0,288,630,10686,275,-5.59,,,,,,,,,,,,
482443,1564153227147,10,2.24,0.93,0.33,1.38,1.06,1.05,0.17,0.31,1,1,3,1.07,5295,13,107,43,58,813,275.0,348,461,60,122.0,185,1,313,259,52,0,0,284,-1527,24064,270,-5.59,44.680847,10.024611,29.26,174.4,0,0.0,-1,0.0,0.0,0,3.58,8.0407
482463,1564153227167,8,2.24,0.92,0.32,1.36,1.05,0.98,0.14,0.28,0,-1,3,0.99,5244,13,107,43,58,807,274.0,332,457,60,122.0,185,1,308,259,52,0,0,282,2414,2414,268,-5.59,,,,,,,,,,,,
482483,1564153227187,9,2.26,0.9,0.32,1.35,1.06,0.95,0.22,0.36,0,1,1,0.98,5219,13,107,43,59,800,273.0,345,462,60,123.0,195,1,302,262,52,0,0,280,28160,30208,264,-5.59,,,,,,,,,,,,
482503,1564153227207,9,2.27,0.91,0.32,1.36,1.06,0.99,0.14,0.29,-1,0,2,1.01,5176,13,107,43,59,796,269.0,335,460,60,124.0,195,1,298,264,52,0,0,281,-1,2414,265,-5.59,,,,,,,,,,,,
482523,1564153227227,8,2.29,0.92,0.32,1.36,1.06,0.93,0.12,0.31,-1,-0,0,0.94,5106,12,107,43,60,792,268.0,337,462,60,122.0,195,1,287,268,52,0,0,277,-1,-1281,261,648.46,,,,,,,,,,,,
482543,1564153227247,8,2.3,0.93,0.33,1.36,1.06,0.99,0.16,0.35,-1,-2,-0,1.0,5041,12,107,43,61,786,266.0,320,461,60,122.0,195,1,276,274,52,0,0,273,-1,-1,260,-5.59,44.680847,10.024602,27.91,174.4,0,0.0,-1,0.0,0.0,0,3.58,8.0424
482563,1564153227267,10,2.32,0.94,0.33,1.38,1.07,0.9,0.12,0.3,-1,-1,-0,0.91,5018,13,107,43,61,784,265.0,320,459,60,124.0,195,1,273,274,52,0,0,272,-1,-1,259,181.28,,,,,,,,,,,,
482583,1564153227287,7,2.32,0.95,0.33,1.4,1.07,0.91,0.08,0.35,-0,2,-1,0.92,4989,12,107,43,62,783,262.0,324,466,60,123.0,205,1,270,196,53,0,0,267,-1,-1,258,-5.59,,,,,,,,,,,,
482603,1564153227307,6,2.32,0.96,0.33,1.41,1.07,1.0,0.14,0.43,-0,-1,-1,1.01,4942,13,107,43,62,782,260.0,313,459,60,121.0,205,1,266,281,53,0,0,263,-1,-1,257,181.28,,,,,,,,,,,,
482623,1564153227327,7,2.32,0.99,0.33,1.42,1.08,1.04,0.05,0.43,-0,-2,-1,1.05,4917,12,107,43,62,782,256.0,314,462,60,121.0,205,1,263,281,53,0,0,264,506,-1,256,-5.59,,,,,,,,,,,,
482643,1564153227347,10,2.32,1.0,0.34,1.44,1.08,0.98,0.09,0.34,-0,-1,-1,0.99,4838,12,107,43,63,782,256.0,312,459,60,123.0,205,1,257,202,53,0,0,262,-1,-1,256,-5.59,44.680847,10.024592,26.9,174.4,0,0.0,-1,0.0,0.0,0,3.58,8.0441
482663,1564153227367,8,2.33,1.0,0.34,1.44,1.08,0.97,0.07,0.36,-0,0,-1,0.98,4836,12,107,43,63,782,253.0,320,466,60,122.0,205,1,257,202,53,0,0,260,-1,-41,253,-5.59,,,,,,,,,,,,
482683,1564153227387,5,2.33,0.99,0.34,1.44,1.08,1.06,0.13,0.41,-0,0,-1,1.07,4849,13,107,43,63,783,251.0,312,458,60,120.0,207,1,258,294,52,0,0,257,10818,506,251,-5.59,,,,,,,,,,,,
482703,1564153227407,8,2.32,0.98,0.34,1.43,1.08,1.1,0.08,0.41,-1,-2,-1,1.1,4803,12,107,43,64,786,248.0,304,460,60,123.0,207,1,254,286,52,0,0,256,250,506,248,181.28,,,,,,,,,,,,
482723,1564153227427,8,2.32,0.98,0.34,1.42,1.08,1.09,0.03,0.4,-1,-2,-1,1.09,4788,12,107,43,64,789,244.0,306,461,60,123.0,207,1,253,285,52,0,0,252,250,-10440,244,-5.59,,,,,,,,,,,,
482743,1564153227447,8,2.34,0.98,0.34,1.42,1.08,1.04,0.05,0.37,-1,-1,-1,1.04,4722,12,107,43,64,792,244.0,304,463,60,123.0,207,1,247,291,52,0,0,251,-1445,-214,243,-5.59,44.680847,10.024583,25.92,174.4,0,0.0,-1,0.0,0.0,0,3.58,8.0457
482763,1564153227467,10,2.34,0.97,0.33,1.42,1.08,0.97,0.06,0.35,-1,-0,-1,0.97,4683,12,107,43,64,795,243.0,311,462,60,122.0,207,1,241,291,52,0,0,249,23482,250,243,-5.59,,,,,,,,,,,,
482783,1564153227487,7,2.35,0.97,0.34,1.41,1.08,0.95,0.03,0.38,-0,1,-2,0.95,4641,12,107,43,64,799,241.0,305,464,60,119.0,211,1,239,290,51,0,0,249,-1484,16896,241,-5.59,,,,,,,,,,,,
482803,1564153227507,7,2.36,0.97,0.33,1.42,1.08,0.93,0.02,0.41,0,2,-1,0.93,4586,13,107,43,64,802,240.0,304,469,60,121.0,211,1,234,289,51,0,0,246,13468,10812,240,-5.59,,,,,,,,,,,,
482823,1564153227527,6,2.37,0.98,0.33,1.42,1.08,0.94,-0.04,0.46,1,2,-2,0.94,4549,12,107,43,64,803,238.0,303,460,60,122.0,211,1,231,289,51,0,0,243,-25600,15360,238,-5.59,,,,,,,,,,,,
482843,1564153227547,6,2.39,0.98,0.33,1.41,1.07,0.94,-0.03,0.46,1,1,-1,0.94,4489,12,107,43,64,804,238.0,296,458,60,122.0,211,1,225,289,51,0,0,241,-1483,10812,238,-5.59,44.680847,10.024574,24.93,174.4,0,0.0,-1,0.0,0.0,0,3.58,8.0474
482863,1564153227567,6,2.41,0.98,0.33,1.42,1.08,0.97,-0.02,0.46,2,2,-1,0.97,4493,12,107,43,64,806,236.0,296,465,60,122.0,211,1,225,289,51,0,0,240,250,-1445,236,-5.59,,,,,,,,,,,,
482883,1564153227587,10,2.43,1.0,0.34,1.43,1.08,0.96,-0.03,0.48,2,3,-1,0.96,4480,12,107,43,64,808,235.0,293,463,60,121.0,208,1,224,289,49,0,0,237,18432,23482,235,-5.59,,,,,,,,,,,,
482903,1564153227606,8,2.45,1.02,0.34,1.45,1.1,0.95,-0.06,0.48,3,4,-0,0.95,4433,12,107,43,64,809,235.0,294,462,60,121.0,208,1,220,288,49,0,0,235,250,250,235,-5.59,,,,,,,,,,,,
482923,1564153227626,8,2.47,1.03,0.35,1.46,1.1,0.91,-0.06,0.48,4,4,1,0.91,4427,12,107,43,64,811,233.0,295,462,60,120.0,208,1,219,288,49,0,0,233,250,-1484,233,-5.59,,,,,,,,,,,,
482943,1564153227646,7,2.48,1.05,0.35,1.47,1.1,0.92,-0.1,0.46,4,3,2,0.92,4390,12,107,43,64,814,232.0,292,469,60,120.0,208,1,216,287,49,0,0,230,15360,250,232,-5.59,44.680847,10.024567,24.04,174.4,0,0.0,-1,0.0,0.0,0,3.58,8.0491
482963,1564153227666,6,2.5,1.06,0.36,1.48,1.11,0.89,-0.08,0.4,5,4,4,0.9,4333,12,107,43,64,818,230.0,290,467,60,123.0,208,1,211,287,49,0,0,229,250,13602,230,-5.59,,,,,,,,,,,,
482983,1564153227686,5,2.52,1.06,0.36,1.49,1.11,0.9,-0.14,0.36,5,4,5,0.91,4339,12,107,43,64,820,232.0,280,462,60,123.0,202,1,211,203,47,0,0,226,1210,250,232,-5.59,,,,,,,,,,,,
483003,1564153227706,3,2.54,1.08,0.35,1.5,1.11,0.88,-0.15,0.33,6,4,7,0.89,4297,12,107,43,64,822,231.0,276,461,60,124.0,202,1,207,286,47,0,0,224,-1532,-1483,231,181.28,,,,,,,,,,,,
483023,1564153227726,4,2.55,1.08,0.36,1.49,1.12,0.9,-0.14,0.35,7,2,8,0.91,4256,12,107,43,64,822,229.0,275,459,60,124.0,202,1,204,286,47,0,0,222,-1532,250,229,181.28,,,,,,,,,,,,
483043,1564153227746,4,2.56,1.08,0.36,1.5,1.11,0.91,-0.17,0.39,8,2,9,0.92,4285,12,107,43,64,823,229.0,280,458,60,124.0,202,1,206,286,47,0,0,221,250,13602,229,-5.59,44.680843,10.024558,23.16,174.4,0,0.0,-1,0.0,0.0,0,3.58,8.0507
483063,1564153227766,6,2.59,1.08,0.35,1.5,1.11,0.86,-0.15,0.41,9,2,10,0.88,4211,12,107,43,64,821,230.0,283,458,60,121.0,202,1,200,202,47,0,0,220,-1533,250,229,-5.59,,,,,,,,,,,,
483083,1564153227786,3,2.6,1.07,0.36,1.5,1.12,0.88,-0.15,0.38,10,2,11,0.89,4187,12,107,44,64,819,229.0,280,470,60,121.0,196,1,199,202,45,0,0,216,-14848,-1483,229,-5.59,,,,,,,,,,,,
483103,1564153227806,3,2.61,1.08,0.36,1.5,1.11,0.87,-0.18,0.32,11,2,13,0.89,4219,12,107,44,65,815,229.0,280,470,60,122.0,196,1,202,289,45,0,0,215,250,-1483,229,-5.59,,,,,,,,,,,,
483123,1564153227826,1,2.63,1.07,0.36,1.5,1.11,0.89,-0.2,0.32,11,0,14,0.91,4172,12,107,43,65,810,229.0,270,460,60,123.0,196,1,198,285,45,0,0,213,250,13602,229,181.28,,,,,,,,,,,,
483143,1564153227846,7,2.64,1.08,0.36,1.49,1.11,0.92,-0.21,0.37,12,1,14,0.95,4140,12,107,43,64,806,228.0,272,461,60,122.0,196,1,193,200,45,0,0,211,-29696,250,229,-5.59,44.680843,10.02455,22.54,174.4,0,0.0,-1,0.0,0.0,0,3.58,8.0524
483163,1564153227866,4,2.65,1.08,0.36,1.49,1.11,0.92,-0.21,0.4,13,1,15,0.95,4092,12,107,43,64,803,228.0,276,463,60,121.0,196,1,189,285,45,0,0,212,-1482,-1494,228,-5.59,,,,,,,,,,,,
483183,1564153227886,2,2.67,1.08,0.36,1.49,1.11,0.95,-0.24,0.41,14,1,17,0.98,4101,12,107,44,65,804,228.0,274,474,60,122.0,192,1,192,288,44,0,0,208,-1482,18432,228,-5.59,,,,,,,,,,,,
483203,1564153227906,3,2.67,1.08,0.36,1.5,1.11,0.94,-0.28,0.38,14,0,18,0.98,4099,12,107,44,65,805,227.0,264,458,60,123.0,192,1,192,287,44,0,0,207,250,-1494,227,-5.59,,,,,,,,,,,,
483223,1564153227926,6,2.69,1.08,0.36,1.49,1.11,0.94,-0.26,0.41,15,0,19,0.97,4101,12,107,44,64,809,227.0,268,455,60,123.0,192,1,190,283,44,0,0,205,12800,-1494,227,-5.59,,,,,,,,,,,,
483243,1564153227946,3,2.7,1.08,0.36,1.5,1.11,0.9,-0.24,0.4,16,1,20,0.93,4104,12,107,43,64,813,227.0,277,466,60,121.0,192,1,190,285,44,0,0,204,-1480,-1494,227,-5.59,44.680843,10.024543,22.04,174.4,0,0.0,-1,0.0,0.0,0,3.58,8.0541
483263,1564153227966,3,2.71,1.07,0.35,1.5,1.1,0.89,-0.29,0.39,17,0,22,0.94,4034,12,107,44,65,824,226.0,266,461,60,123.0,192,1,186,287,44,0,0,204,14412,10824,226,-5.59,,,,,,,,,,,,
483283,1564153227986,6,2.73,1.08,0.36,1.49,1.11,0.9,-0.29,0.43,18,0,22,0.94,4010,12,107,43,64,838,225.0,265,455,60,123.0,190,1,181,200,43,0,0,201,250,250,225,-5.59,,,,,,,,,,,,
483303,1564153227998,3,2.73,1.07,0.35,1.5,1.11,0.87,-0.29,0.45,19,1,23,0.92,4047,12,107,43,64,850,226.0,275,468,60,121.0,190,1,185,200,43,0,0,200,-1481,250,226,-5.59,,,,,,,,,,,,
483323,1564153228018,2,2.74,1.08,0.36,1.5,1.11,0.9,-0.31,0.43,20,1,25,0.95,4005,12,107,44,65,859,227.0,263,466,60,123.0,190,1,183,283,43,0,0,200,14326,18432,227,181.28,,,,,,,,,,,,
483343,1564153228038,4,2.75,1.08,0.36,1.5,1.1,0.92,-0.33,0.46,20,1,26,0.97,3975,12,107,43,64,876,226.0,263,453,60,122.0,190,1,179,198,43,0,0,199,14326,250,226,-5.59,44.680843,10.024535,21.41,174.4,0,0.0,-1,0.0,0.0,0,3.58,8.0557
483363,1564153228058,2,2.76,1.07,0.35,1.5,1.11,0.89,-0.29,0.44,21,2,26,0.94,3986,12,107,43,64,897,226.0,271,472,60,122.0,190,1,180,199,43,0,0,197,-2560,18432,226,-5.59,,,,,,,,,,,,
483383,1564153228078,1,2.77,1.08,0.35,1.5,1.11,0.88,-0.32,0.44,22,1,28,0.94,3959,12,107,43,64,914,226.0,263,467,60,122.0,185,1,179,282,42,0,0,196,-2560,-1496,226,414.87,,,,,,,,,,,,
483403,1564153228106,4,2.77,1.07,0.36,1.5,1.11,0.89,-0.34,0.43,23,2,28,0.96,3945,12,107,43,64,926,226.0,260,452,60,122.0,185,1,178,282,42,0,0,195,250,10318,226,-5.59,,,,,,,,,,,,
483423,1564153228126,2,2.77,1.08,0.36,1.5,1.11,0.86,-0.34,0.45,23,2,29,0.92,3937,12,107,43,64,941,226.0,267,470,60,121.0,185,1,178,281,42,0,0,194,-1281,10318,226,-5.59,,,,,,,,,,,,
483443,1564153228146,2,2.78,1.08,0.36,1.5,1.11,0.87,-0.36,0.43,24,1,31,0.94,3944,12,107,43,64,958,226.0,258,463,60,123.0,185,1,178,282,42,0,0,194,-1,-1496,226,-5.59,44.680843,10.024529,21.22,174.3,0,0.0,-1,0.0,0.0,0,3.58,8.0574
483463,1564153228166,3,2.8,1.08,0.36,1.5,1.1,0.84,-0.39,0.43,24,1,30,0.93,3903,12,107,43,64,969,225.0,263,456,60,122.0,185,1,177,280,42,0,0,194,-1,19968,225,-5.59,,,,,,,,,,,,
483483,1564153228186,1,2.8,1.08,0.36,1.5,1.11,0.86,-0.36,0.41,25,-0,32,0.93,3913,12,107,43,64,975,224.0,261,467,60,123.0,183,1,177,280,41,0,0,192,-1,-1496,224,-5.59,,,,,,,,,,,,
483503,1564153228206,5,2.8,1.08,0.35,1.5,1.11,0.87,-0.41,0.4,26,-0,33,0.96,3898,12,107,43,64,980,224.0,261,452,60,124.0,183,1,176,194,41,0,0,192,-1,-1530,224,-5.59,,,,,,,,,,,,
483523,1564153228226,2,2.81,1.08,0.35,1.5,1.11,0.84,-0.39,0.39,26,-0,33,0.92,3871,12,107,43,64,987,224.0,263,475,60,122.0,183,1,176,279,41,0,0,192,-1,-1530,224,-5.59,,,,,,,,,,,,
483543,1564153228246,5,2.81,1.08,0.36,1.5,1.11,0.87,-0.39,0.38,27,-0,34,0.95,3844,12,107,43,64,992,224.0,255,462,60,124.0,183,1,175,192,41,0,0,192,-1,250,224,-5.59,44.680843,10.024521,20.71,174.3,0,0.0,-1,0.0,0.0,0,3.58,8.059
483563,1564153228266,1,2.82,1.08,0.35,1.5,1.11,0.86,-0.4,0.38,27,1,34,0.95,3886,12,107,43,64,994,224.0,267,463,60,122.0,183,1,176,279,41,0,0,190,-1,-1530,224,-5.59,,,,,,,,,,,,
483583,1564153228286,2,2.81,1.08,0.36,1.5,1.11,0.84,-0.43,0.43,27,-1,35,0.95,3896,12,107,43,65,997,223.0,255,468,60,123.0,183,1,179,279,41,0,0,191,-1,250,223,-5.59,,,,,,,,,,,,
483603,1564153228306,3,2.83,1.08,0.35,1.5,1.11,0.86,-0.41,0.39,27,0,35,0.95,3854,12,107,43,64,1003,223.0,256,451,60,122.0,183,1,175,277,41,0,0,189,-1,250,223,-5.59,,,,,,,,,,,,
483623,1564153228326,1,2.83,1.08,0.36,1.49,1.11,0.84,-0.4,0.43,28,-1,36,0.93,3860,12,107,43,65,1010,224.0,260,475,60,123.0,183,1,178,282,41,0,0,189,-1,250,224,181.28,,,,,,,,,,,,
483643,1564153228346,3,2.84,1.08,0.35,1.5,1.11,0.87,-0.45,0.46,28,-1,36,0.98,3855,12,107,43,65,1014,223.0,255,457,60,123.0,183,1,178,277,41,0,0,188,-1,19968,223,181.28,44.680843,10.024513,20.41,174.2,0,0.0,-1,0.0,0.0,0,3.59,8.0607
483663,1564153228366,0,2.86,1.07,0.36,1.49,1.11,0.86,-0.45,0.48,29,-1,36,0.97,3830,12,107,43,64,1020,223.0,263,463,60,121.0,183,1,174,275,41,0,0,188,-1,250,223,-5.59,,,,,,,,,,,,
483683,1564153228386,5,2.85,1.08,0.35,1.5,1.11,0.9,-0.44,0.46,30,-2,37,1.0,3846,12,107,43,65,1027,224.0,253,465,60,123.0,183,1,177,276,41,0,0,187,-1,1596,224,181.28,,,,,,,,,,,,
483703,1564153228404,-0,2.86,1.08,0.36,1.5,1.11,0.88,-0.45,0.43,30,0,37,0.99,3835,12,107,43,64,1033,224.0,261,458,60,121.0,183,1,174,282,41,0,0,186,-1,19968,224,-5.59,,,,,,,,,,,,
483723,1564153228424,1,2.86,1.08,0.36,1.5,1.11,0.88,-0.49,0.42,30,-1,38,1.0,3805,12,107,43,65,1035,224.0,257,471,60,123.0,183,1,177,280,41,0,0,188,-1,250,224,181.28,,,,,,,,,,,,
483743,1564153228444,-0,2.87,1.08,0.36,1.5,1.11,0.87,-0.51,0.4,30,-0,38,1.01,3800,12,107,43,65,1037,224.0,256,449,60,122.0,183,1,177,280,41,0,0,186,-1,-1530,224,-5.59,44.680847,10.024507,20.24,174.2,0,0.0,-1,0.0,0.0,0,3.59,8.0624
483763,1564153228464,1,2.87,1.08,0.35,1.5,1.11,0.86,-0.48,0.41,31,-2,40,0.98,3814,12,107,43,65,1041,225.0,254,467,60,122.0,183,1,177,280,41,0,0,185,-1,250,224,181.28,,,,,,,,,,,,
483783,1564153228484,3,2.88,1.08,0.36,1.49,1.11,0.84,-0.5,0.37,31,0,39,0.98,3835,12,107,43,65,1044,225.0,259,456,60,123.0,182,1,177,282,41,0,0,184,-1,15360,225,-5.59,,,,,,,,,,,,
483803,1564153228504,1,2.89,1.07,0.35,1.49,1.11,0.81,-0.5,0.39,31,-1,40,0.95,3837,12,107,43,65,1046,223.0,258,468,60,123.0,182,1,177,197,41,0,0,184,-1,19968,223,-5.59,,,,,,,,,,,,
483823,1564153228524,4,2.89,1.08,0.35,1.49,1.11,0.83,-0.52,0.41,32,-1,41,0.98,3807,12,107,43,65,1047,224.0,255,446,60,124.0,182,1,177,280,41,0,0,184,-1,15360,224,-5.59,,,,,,,,,,,,
483843,1564153228544,2,2.89,1.09,0.35,1.5,1.11,0.79,-0.49,0.4,32,-2,41,0.94,3798,12,107,43,65,1048,223.0,261,473,60,124.0,182,1,176,279,41,0,0,183,-236,1596,223,-5.59,44.680847,10.0245,20.41,174.3,0,0.0,-1,0.0,0.0,0,3.59,8.064
483863,1564153228564,5,2.9,1.09,0.35,1.5,1.11,0.82,-0.49,0.4,32,-2,40,0.96,3790,12,107,43,65,1048,223.0,253,450,60,122.0,182,1,176,279,41,0,0,183,-1,-1530,223,181.28,,,,,,,,,,,,
483883,1564153228584,2,2.9,1.08,0.36,1.5,1.12,0.82,-0.49,0.41,32,-3,41,0.96,3765,12,107,43,65,1048,223.0,259,467,60,123.0,175,1,174,277,39,0,0,182,-1,-1532,223,-5.59,,,,,,,,,,,,
483903,1564153228605,4,2.9,1.09,0.36,1.5,1.11,0.86,-0.51,0.41,33,-1,42,1.0,3756,12,107,43,65,1047,222.0,248,462,60,124.0,175,1,175,277,39,0,0,183,-1,15360,222,181.28,,,,,,,,,,,,
483923,1564153228625,3,2.89,1.08,0.36,1.5,1.1,0.85,-0.51,0.39,33,-2,42,0.99,3732,12,107,43,66,1048,223.0,255,471,60,122.0,175,1,177,280,39,0,0,183,-236,250,223,-5.59,,,,,,,,,,,,
483943,1564153228645,5,2.9,1.09,0.35,1.5,1.11,0.87,-0.55,0.41,33,-1,42,1.03,3692,12,107,43,66,1048,222.0,249,448,60,123.0,175,1,176,193,39,0,0,180,5134,-1532,222,-5.59,44.680847,10.024494,20.35,174.3,0,0.0,-1,0.0,0.0,0,3.59,8.0657
483963,1564153228665,4,2.9,1.08,0.35,1.49,1.11,0.88,-0.53,0.4,33,-3,43,1.03,3715,12,107,43,66,1049,221.0,253,473,60,123.0,175,1,177,279,39,0,0,178,3584,15360,221,-5.59,,,,,,,,,,,,
483983,1564153228685,4,2.91,1.08,0.35,1.49,1.11,0.89,-0.54,0.39,34,-1,44,1.04,3701,12,107,43,66,1049,222.0,247,458,60,124.0,175,1,177,279,39,0,0,177,3584,-17920,222,-5.59,,,,,,,,,,,,
484003,1564153228705,3,2.91,1.08,0.35,1.5,1.11,0.88,-0.54,0.42,34,-3,44,1.03,3680,12,107,43,67,1046,220.0,255,470,60,122.0,175,1,179,281,39,0,0,175,250,250,220,-5.59,,,,,,,,,,,,
484023,1564153228725,4,2.91,1.08,0.36,1.49,1.11,0.88,-0.54,0.36,34,-1,44,1.03,3678,12,107,43,67,1042,217.0,250,449,60,123.0,175,1,179,281,39,0,0,175,-1495,-1532,217,-5.59,,,,,,,,,,,,
484043,1564153228745,8,2.91,1.09,0.35,1.5,1.11,0.89,-0.52,0.35,34,-3,45,1.03,3642,12,107,43,67,1038,217.0,249,472,60,123.0,175,1,178,279,39,0,0,174,10620,16384,216,181.28,44.680851,10.024487,20.22,174.3,0,0.0,-1,0.0,0.0,0,3.59,8.0674
484063,1564153228765,5,2.92,1.09,0.35,1.5,1.11,0.89,-0.52,0.31,34,-2,45,1.03,3643,12,107,43,68,1032,215.0,253,452,60,121.0,175,1,182,283,39,0,0,172,31744,16384,215,-5.59,,,,,,,,,,,,
484083,1564153228785,6,2.93,1.08,0.35,1.49,1.11,0.9,-0.51,0.31,34,-2,46,1.03,3596,12,107,43,68,1034,214.0,244,462,60,123.0,182,1,181,280,39,0,0,173,-1281,-1533,214,-5.59,,,,,,,,,,,,
484103,1564153228805,5,2.93,1.09,0.35,1.5,1.11,0.89,-0.53,0.34,34,-4,46,1.03,3534,12,107,43,68,1037,213.0,248,468,60,123.0,182,1,180,276,39,0,0,171,-1281,-1533,213,-5.59,,,,,,,,,,,,
484123,1564153228825,5,2.94,1.08,0.35,1.49,1.11,0.87,-0.51,0.26,34,-2,45,1.01,3483,12,107,43,69,1044,212.0,245,454,60,122.0,182,1,180,276,39,0,0,169,-1,250,212,-5.59,,,,,,,,,,,,
484143,1564153228845,5,2.94,1.08,0.36,1.49,1.12,0.9,-0.53,0.27,34,0,45,1.04,3434,12,107,43,69,1052,211.0,238,467,60,124.0,182,1,180,275,39,0,0,168,-1,13964,211,181.28,44.680855,10.024483,19.61,174.2,0,0.0,-1,0.0,0.0,0,3.59,8.069
484163,1564153228865,8,2.94,1.09,0.35,1.49,1.1,0.92,-0.53,0.28,35,-3,46,1.06,3389,12,107,43,70,1059,210.0,235,467,60,122.0,182,1,180,277,39,0,0,166,888,250,210,181.28,,,,,,,,,,,,
484183,1564153228885,4,2.95,1.08,0.36,1.49,1.11,0.91,-0.55,0.25,35,-3,46,1.06,3389,12,107,43,71,1065,209.0,243,457,60,121.0,166,1,180,194,35,0,0,161,250,-1482,209,-5.59,,,,,,,,,,,,
484203,1564153228905,4,2.95,1.08,0.35,1.49,1.12,0.92,-0.49,0.21,35,1,46,1.04,3407,12,107,43,71,1067,207.0,240,457,60,122.0,166,1,180,280,35,0,0,159,250,250,207,-5.59,,,,,,,,,,,,
484223,1564153228925,6,2.94,1.09,0.35,1.49,1.1,0.94,-0.51,0.25,35,0,46,1.07,3405,12,107,43,72,1066,205.0,235,471,60,123.0,166,1,180,279,35,0,0,157,10764,250,205,414.87,,,,,,,,,,,,
484243,1564153228945,7,2.95,1.08,0.36,1.5,1.11,0.96,-0.5,0.29,35,-2,46,1.08,3399,12,107,43,72,1066,202.0,239,468,60,121.0,166,1,180,281,35,0,0,157,250,12800,202,-5.59,44.680859,10.024478,18.62,174.2,0,0.0,-1,0.0,0.0,0,3.59,8.0707
484263,1564153228965,4,2.97,1.08,0.36,1.49,1.11,0.92,-0.5,0.29,35,-1,46,1.05,3388,12,107,43,72,1069,202.0,245,453,60,120.0,166,1,180,196,35,0,0,156,-1281,19456,202,-5.59,,,,,,,,,,,,
484283,1564153228985,5,2.96,1.09,0.35,1.49,1.11,0.91,-0.49,0.24,34,2,45,1.03,3359,12,107,43,72,1072,199.0,238,457,60,124.0,180,1,180,195,36,0,0,155,-1,19456,199,-5.59,,,,,,,,,,,,
484303,1564153228997,3,2.98,1.08,0.36,1.49,1.1,0.94,-0.48,0.25,34,2,45,1.06,3288,12,107,43,73,1076,198.0,231,472,60,122.0,180,1,180,277,36,0,0,156,-1,14412,198,-5.59,,,,,,,,,,,,
484323,1564153229017,4,2.98,1.08,0.35,1.49,1.11,0.96,-0.46,0.3,34,0,46,1.07,3234,12,107,43,74,1085,196.0,234,462,60,123.0,180,1,180,275,36,0,0,154,-165,-2560,196,181.28,,,,,,,,,,,,
484343,1564153229037,6,2.97,1.08,0.36,1.49,1.12,1.01,-0.46,0.33,34,-3,46,1.11,3184,12,107,43,74,1098,195.0,232,459,60,123.0,180,1,180,274,36,0,0,153,23460,250,195,181.28,44.680862,10.024474,17.99,174.2,0,0.0,-1,0.0,0.0,0,3.59,8.0724
484363,1564153229057,6,2.98,1.09,0.36,1.5,1.11,1.04,-0.45,0.35,34,-5,47,1.13,3172,12,107,43,75,1110,194.0,235,456,60,122.0,180,1,180,274,36,0,0,150,-23552,-1,194,-5.59,,,,,,,,,,,,
484383,1564153229077,8,2.98,1.09,0.36,1.51,1.12,1.03,-0.43,0.34,34,-6,47,1.12,3122,12,107,43,76,1119,193.0,233,456,60,121.0,165,1,180,269,32,0,0,148,250,-1,193,-5.59,,,,,,,,,,,,
484403,1564153229101,9,2.97,1.09,0.36,1.5,1.11,1.0,-0.45,0.33,34,-5,47,1.1,3069,12,107,43,76,1131,191.0,232,457,60,121.0,165,1,180,182,32,0,0,146,-1281,-1,191,-5.59,,,,,,,,,,,,
484423,1564153229121,6,2.97,1.09,0.35,1.5,1.11,1.0,-0.44,0.32,34,-5,47,1.09,3045,12,107,43,77,1145,190.0,231,457,60,120.0,165,1,180,186,32,0,0,146,-1,-1,190,-5.59,,,,,,,,,,,,
484443,1564153229141,6,2.98,1.09,0.36,1.5,1.11,1.0,-0.45,0.29,34,-4,46,1.09,3082,12,107,43,77,1157,188.0,230,455,60,121.0,165,1,180,273,32,0,0,143,-1,-1,186,-5.59,44.680866,10.02447,17.32,174.1,0,0.0,-1,0.0,0.0,0,3.59,8.074
484463,1564153229161,6,2.98,1.1,0.36,1.5,1.11,0.96,-0.43,0.3,34,-2,46,1.06,3145,12,107,43,77,1162,185.0,226,458,60,123.0,165,1,180,277,32,0,0,141,-1,-1,185,-5.59,,,,,,,,,,,,
484483,1564153229181,6,2.97,1.1,0.36,1.5,1.11,0.97,-0.42,0.27,34,-0,45,1.06,3208,12,107,43,77,1167,183.0,223,467,60,124.0,180,1,180,282,33,0,0,138,-1,5134,183,181.28,,,,,,,,,,,,
484503,1564153229205,6,2.98,1.1,0.36,1.5,1.11,1.0,-0.42,0.31,34,-1,45,1.08,3296,12,107,43,77,1173,180.0,227,470,60,122.0,180,1,180,286,33,0,0,135,5120,3584,180,-5.59,,,,,,,,,,,,
484523,1564153229225,10,2.98,1.1,0.36,1.5,1.12,1.04,-0.41,0.3,33,-4,45,1.12,3377,12,107,43,77,1178,177.0,235,461,60,124.0,180,1,180,292,33,0,0,133,-1281,250,177,181.28,,,,,,,,,,,,
484543,1564153229245,5,2.97,1.1,0.36,1.5,1.12,1.03,-0.4,0.26,33,-3,44,1.11,3469,12,107,43,76,1179,175.0,241,452,60,122.0,180,1,180,292,33,0,0,131,-1,-1,174,-5.59,44.680866,10.024467,16.41,174.1,0,0.0,-1,0.0,0.0,0,3.59,8.0757
484563,1564153229265,8,2.97,1.1,0.36,1.51,1.11,1.03,-0.41,0.26,33,-2,44,1.11,3561,12,107,43,75,1178,170.0,238,462,60,123.0,180,1,181,295,33,0,0,129,-1,-1,170,181.28,,,,,,,,,,,,
484583,1564153229285,7,2.97,1.1,0.36,1.5,1.11,1.05,-0.39,0.26,32,-3,44,1.12,3622,12,107,43,74,1171,169.0,242,468,60,120.0,236,1,182,297,40,0,0,126,-1,250,169,-5.59,,,,,,,,,,,,
484603,1564153229307,8,2.96,1.1,0.36,1.5,1.11,1.06,-0.37,0.24,32,-1,44,1.13,3716,12,107,43,72,1164,166.0,246,449,60,122.0,236,1,185,212,40,0,0,123,-1,10764,166,-5.59,,,,,,,,,,,,
484623,1564153229327,7,2.96,1.1,0.36,1.51,1.12,1.06,-0.33,0.23,31,-2,43,1.12,3747,12,107,43,71,1156,161.0,250,469,60,120.0,236,1,184,299,40,0,0,122,-1,-1,161,-5.59,,,,,,,,,,,,
484643,1564153229347,11,2.96,1.09,0.35,1.5,1.12,1.06,-0.31,0.26,31,-2,43,1.11,3898,12,107,43,70,1147,159.0,253,448,60,122.0,236,1,188,303,40,0,0,119,11264,-165,159,-5.59,44.68087,10.024466,15.78,174.1,0,0.0,-1,0.0,0.0,0,3.59,8.0774
484663,1564153229367,8,2.96,1.09,0.36,1.5,1.12,1.05,-0.32,0.23,31,1,41,1.1,3996,12,107,43,69,1134,156.0,263,470,60,122.0,236,1,189,310,40,0,0,117,-1482,23460,156,-5.59,,,,,,,,,,,,
484683,1564153229387,6,2.96,1.09,0.36,1.49,1.11,1.06,-0.28,0.22,31,0,41,1.1,4015,12,107,43,69,1121,153.0,258,466,60,123.0,300,1,191,307,46,0,0,115,250,-1,153,414.87,,,,,,,,,,,,
484703,1564153229405,7,2.96,1.09,0.35,1.5,1.12,1.07,-0.3,0.22,30,-1,41,1.11,4162,12,107,43,69,1116,150.0,263,457,60,124.0,300,1,203,311,46,0,0,112,8192,-1,150,181.28,,,,,,,,,,,,
484723,1564153229425,6,2.96,1.1,0.35,1.5,1.12,1.06,-0.29,0.25,30,-0,40,1.1,4165,12,107,43,68,1112,148.0,271,455,60,120.0,300,1,203,223,46,0,0,112,-1482,-1,146,-5.59,,,,,,,,,,,,
484743,1564153229445,9,2.96,1.09,0.36,1.5,1.11,1.03,-0.27,0.27,29,-0,40,1.06,4277,12,107,43,67,1118,144.0,278,466,60,121.0,300,1,211,311,46,0,0,110,250,5140,144,-5.59,44.680874,10.024464,14.35,174.1,0,0.0,-1,0.0,0.0,0,3.59,8.0791
484763,1564153229465,8,2.96,1.1,0.35,1.51,1.11,1.0,-0.24,0.29,29,1,38,1.02,4353,12,107,43,67,1125,141.0,281,463,60,119.0,300,1,217,312,46,0,0,108,250,-1281,141,-5.59,,,,,,,,,,,,
484783,1564153229485,8,2.95,1.09,0.36,1.51,1.11,0.97,-0.24,0.26,29,2,37,1.0,4383,12,107,43,67,1136,140.0,283,467,60,121.0,354,1,220,306,50,0,0,104,13844,-1,140,-5.59,,,,,,,,,,,,
484803,1564153229507,7,2.95,1.09,0.35,1.5,1.11,0.95,-0.24,0.21,28,3,37,0.98,4499,12,107,43,67,1146,137.0,287,469,60,122.0,354,1,229,308,50,0,0,102,250,-1,137,-5.59,,,,,,,,,,,,
484823,1564153229527,7,2.96,1.09,0.36,1.5,1.12,0.99,-0.21,0.2,28,3,36,1.01,4499,13,107,43,66,1160,135.0,292,468,60,122.0,354,1,228,302,50,0,0,102,13838,-1,135,-5.59,,,,,,,,,,,,
484843,1564153229547,8,2.94,1.09,0.36,1.51,1.12,0.97,-0.23,0.22,27,3,35,1.0,4519,13,107,43,66,1174,133.0,295,465,60,122.0,354,1,230,302,50,0,0,101,250,-1,133,-5.59,44.680882,10.024464,12.95,174.1,0,0.0,-1,0.0,0.0,0,3.59,8.0807
484863,1564153229567,7,2.95,1.09,0.36,1.5,1.12,0.97,-0.24,0.24,27,5,34,1.0,4524,13,107,43,66,1181,130.0,295,465,60,121.0,354,1,231,302,50,0,0,98,2048,13868,130,-5.59,,,,,,,,,,,,
484883,1564153229587,6,2.94,1.09,0.35,1.5,1.11,0.93,-0.23,0.25,26,5,34,0.96,4507,13,107,43,66,1184,128.0,294,465,60,123.0,398,1,229,302,51,0,0,96,2048,13868,128,-5.59,,,,,,,,,,,,
484903,1564153229606,6,2.93,1.08,0.35,1.5,1.12,0.91,-0.19,0.22,26,5,33,0.93,4537,13,107,43,66,1168,127.0,293,466,60,120.0,398,1,232,217,51,0,0,96,250,13868,127,-5.59,,,,,,,,,,,,
484923,1564153229626,5,2.93,1.08,0.36,1.5,1.11,0.89,-0.19,0.25,25,5,32,0.91,4492,13,107,43,66,1147,125.0,296,463,60,122.0,398,1,228,302,51,0,0,94,13736,-1482,125,-5.59,,,,,,,,,,,,
484943,1564153229646,5,2.92,1.08,0.36,1.49,1.11,0.86,-0.2,0.26,25,6,32,0.88,4545,13,107,43,66,1123,123.0,292,467,60,120.0,398,1,232,302,51,0,0,93,-22528,13862,123,-5.59,44.680882,10.024464,12.16,174.1,0,0.0,-1,0.0,0.0,0,3.59,8.0824
484963,1564153229666,5,2.92,1.08,0.35,1.49,1.11,0.85,-0.21,0.32,25,7,31,0.87,4543,13,107,43,66,1098,122.0,298,465,60,121.0,398,1,232,302,51,0,0,91,-22528,250,122,-5.59,,,,,,,,,,,,
484983,1564153229686,5,2.9,1.08,0.35,1.5,1.11,0.84,-0.2,0.34,25,7,31,0.86,4537,11,107,43,65,1053,121.0,299,465,60,120.0,409,1,231,296,50,0,0,91,-1481,13856,121,-5.59,,,,,,,,,,,,
485003,1564153229706,3,2.88,1.08,0.35,1.5,1.11,0.82,-0.16,0.35,24,6,30,0.83,4560,8,107,43,64,1002,120.0,296,463,60,121.0,409,1,232,297,50,0,0,91,-1481,13856,120,-5.59,,,,,,,,,,,,
485023,1564153229726,5,2.89,1.08,0.35,1.49,1.1,0.84,-0.13,0.36,24,7,29,0.85,4512,6,107,43,64,964,120.0,298,467,60,121.0,409,1,227,289,50,0,0,91,-1481,250,120,-5.59,,,,,,,,,,,,
485043,1564153229746,5,2.87,1.07,0.35,1.49,1.11,0.85,-0.11,0.41,24,8,28,0.86,4465,0,107,43,62,937,118.0,298,470,60,122.0,409,1,221,277,50,0,0,91,-6144,13850,118,-5.59,44.680885,10.024463,11.08,174.1,0,0.0,-1,0.0,0.0,0,3.59,8.0841
485063,1564153229766,6,2.85,1.07,0.35,1.49,1.1,0.83,-0.13,0.42,23,7,28,0.84,4507,0,107,43,61,903,116.0,296,467,60,121.0,409,1,224,277,50,0,0,90,250,250,116,-5.59,,,,,,,,,,,,
485083,1564153229786,6,2.84,1.07,0.35,1.48,1.11,0.81,-0.1,0.41,23,7,27,0.82,4372,0,107,43,60,864,114.0,297,468,60,120.0,385,1,212,265,44,0,0,88,-1481,-1482,114,-5.59,,,,,,,,,,,,
485103,1564153229806,4,2.82,1.07,0.35,1.48,1.1,0.79,-0.09,0.38,22,7,26,0.8,4340,0,107,43,59,838,112.0,290,468,60,121.0,385,1,209,259,44,0,0,88,-1481,-1482,112,-5.59,,,,,,,,,,,,
485123,1564153229826,3,2.8,1.06,0.35,1.48,1.11,0.82,-0.07,0.33,22,6,26,0.82,4356,0,107,43,59,826,110.0,288,468,60,122.0,385,1,207,255,44,0,0,87,-9728,13844,110,-5.59,,,,,,,,,,,,
485143,1564153229846,4,2.78,1.06,0.35,1.48,1.1,0.84,-0.05,0.28,21,5,26,0.84,4240,0,107,43,58,814,107.0,277,464,60,123.0,385,1,200,255,44,0,0,86,250,-1482,107,-5.59,44.680885,10.024463,10.35,174.1,0,0.0,-1,0.0,0.0,0,3.59,8.0857
485163,1564153229866,6,2.74,1.06,0.35,1.47,1.1,0.86,-0.05,0.29,20,3,26,0.86,4265,0,107,43,58,802,107.0,278,460,60,124.0,385,1,202,255,44,0,0,86,250,3584,107,-5.59,,,,,,,,,,,,
485183,1564153229886,7,2.7,1.06,0.34,1.48,1.1,0.88,-0.03,0.32,19,3,25,0.88,4247,0,107,43,57,796,105.0,283,457,60,122.0,390,1,201,166,41,0,0,86,14284,13832,105,-5.59,,,,,,,,,,,,
485203,1564153229906,9,2.67,1.05,0.34,1.47,1.1,0.87,0.01,0.31,18,3,23,0.87,4145,0,107,43,57,797,101.0,283,462,60,122.0,390,1,188,249,41,0,0,84,250,13832,101,-5.59,,,,,,,,,,,,
485223,1564153229926,5,2.63,1.03,0.34,1.45,1.09,0.87,0.01,0.33,17,3,22,0.87,4204,0,107,43,57,798,97.0,281,471,60,122.0,390,1,196,249,41,0,0,84,250,250,97,-5.59,,,,,,,,,,,,
485243,1564153229946,7,2.59,1.02,0.34,1.44,1.09,0.9,0.01,0.3,16,2,22,0.9,4153,0,108,43,57,801,97.0,273,465,60,123.0,390,1,190,245,41,0,0,82,14270,-1481,97,-5.59,44.680889,10.024464,9.96,174.1,0,0.0,-1,0.0,0.0,0,3.59,8.0874
485263,1564153229966,9,2.53,1.01,0.33,1.43,1.08,0.93,0.01,0.31,15,1,21,0.93,4043,0,107,43,56,802,93.0,273,454,60,124.0,390,1,176,243,41,0,0,80,14270,250,93,-5.59,,,,,,,,,,,,
485283,1564153229986,8,2.49,1.0,0.33,1.43,1.08,0.91,0.03,0.3,14,2,19,0.91,4062,0,107,43,56,804,89.0,276,460,60,120.0,415,1,178,243,37,0,0,80,-1481,250,89,-5.59,,,,,,,,,,,,
485303,1564153229996,6,2.45,1.0,0.33,1.42,1.08,0.93,0.04,0.3,13,1,18,0.93,4021,0,107,43,56,805,89.0,269,462,60,124.0,415,1,173,243,37,0,0,79,-20480,250,89,-5.59,,,,,,,,,,,,
485323,1564153230016,11,2.4,1.0,0.33,1.43,1.08,0.97,0.05,0.28,12,0,17,0.97,3989,0,107,43,56,806,84.0,269,451,60,123.0,415,1,170,237,37,0,0,79,-20480,-1481,84,-5.59,,,,,,,,,,,,
485343,1564153230036,7,2.37,1.0,0.33,1.41,1.08,0.94,0.08,0.29,11,1,15,0.94,4015,0,107,43,55,807,78.0,272,463,60,120.0,415,1,171,238,37,0,0,77,14242,-1481,78,-5.59,44.680893,10.024464,9.11,174.1,0,0.0,-1,0.0,0.0,0,3.59,8.0891
485363,1564153230056,6,2.33,0.99,0.33,1.41,1.08,0.96,0.08,0.3,10,-0,14,0.97,3968,0,108,43,55,807,78.0,268,470,60,122.0,415,1,168,238,37,0,0,74,14242,-1481,78,-5.59,,,,,,,,,,,,
485383,1564153230076,8,2.31,1.0,0.33,1.43,1.09,0.96,0.07,0.28,9,0,12,0.96,3902,0,107,43,55,808,73.0,271,452,60,124.0,465,1,166,235,34,0,0,74,250,-1481,73,-5.59,,,,,,,,,,,,
485403,1564153230106,6,2.29,1.01,0.33,1.42,1.08,0.94,0.08,0.29,8,1,11,0.95,3981,0,107,43,55,814,73.0,270,465,60,120.0,465,1,169,237,34,0,0,72,250,-24064,73,-5.59,,,,,,,,,,,,
485423,1564153230126,7,2.29,1.0,0.33,1.43,1.09,0.97,0.07,0.31,7,-1,10,0.98,3974,0,108,43,55,820,69.0,265,465,60,123.0,465,1,168,238,34,0,0,72,-27648,-24064,68,414.87,,,,,,,,,,,,
485443,1564153230146,6,2.3,1.01,0.33,1.43,1.08,0.95,0.09,0.28,6,-0,8,0.96,3902,0,107,43,55,825,69.0,268,451,60,122.0,465,1,166,152,34,0,0,68,-27648,-27648,68,-5.59,44.680893,10.024464,7.77,174.1,0,0.0,-1,0.0,0.0,0,3.59,8.0907
485463,1564153230166,4,2.31,1.02,0.34,1.44,1.09,0.95,0.1,0.3,6,-0,8,0.95,3938,0,108,43,55,831,65.0,264,467,60,121.0,465,1,167,153,34,0,0,68,-6656,-27648,64,-5.59,,,,,,,,,,,,
485483,1564153230186,7,2.32,1.02,0.34,1.44,1.09,1.0,0.07,0.31,5,-1,7,1.0,3947,0,107,43,54,835,65.0,261,458,60,122.0,546,1,167,231,35,0,0,63,-6656,250,64,-5.59,,,,,,,,,,,,
485503,1564153230206,4,2.32,1.03,0.34,1.45,1.09,0.99,0.07,0.32,4,0,6,0.99,3885,0,107,43,54,839,61.0,269,466,60,120.0,546,1,165,230,35,0,0,63,-1,250,60,882.05,,,,,,,,,,,,
485523,1564153230226,3,2.33,1.04,0.34,1.46,1.1,1.0,0.04,0.32,4,-1,6,1.0,3946,0,108,43,54,839,61.0,261,467,60,122.0,546,1,167,233,35,0,0,60,-1,-1,60,414.87,,,,,,,,,,,,
485543,1564153230246,4,2.33,1.04,0.34,1.46,1.1,1.02,0.04,0.33,4,-0,5,1.02,3920,0,107,43,54,837,57.0,263,453,60,123.0,546,1,166,231,35,0,0,60,-1,-1,57,-5.59,44.680897,10.024464,6.8,174.1,0,0.0,-1,0.0,0.0,0,3.59,8.0924
485563,1564153230266,4,2.33,1.05,0.34,1.48,1.1,0.97,0.07,0.32,3,0,5,0.98,3886,0,107,43,54,837,57.0,262,473,60,122.0,546,1,165,230,35,0,0,60,-1,-1,57,648.46,,,,,,,,,,,,
485583,1564153230286,3,2.33,1.05,0.35,1.47,1.1,1.01,0.07,0.34,3,-0,5,1.01,3929,0,108,43,54,837,57.0,262,453,60,123.0,596,1,167,233,34,0,0,56,-1,-1,57,181.28,,,,,,,,,,,,
485603,1564153230306,4,2.33,1.05,0.35,1.47,1.1,0.98,0.06,0.33,3,2,4,0.98,3920,0,107,43,54,837,53.0,271,468,60,122.0,596,1,166,148,34,0,0,56,-1,-1,53,-5.59,,,,,,,,,,,,
485623,1564153230326,4,2.32,1.04,0.34,1.46,1.1,1.02,0.05,0.36,2,0,4,1.02,3861,0,108,43,54,839,53.0,257,464,60,123.0,596,1,164,232,34,0,0,52,-1,-1,53,-5.59,,,,,,,,,,,,
485643,1564153230346,5,2.33,1.03,0.34,1.46,1.09,1.01,0.06,0.34,2,1,3,1.01,3916,0,107,43,54,842,50.0,265,454,60,122.0,596,1,166,148,34,0,0,52,-1,-1,49,-5.59,44.680897,10.024464,6.19,174.1,0,0.0,-1,0.0,0.0,0,3.59,8.0941
485663,1564153230366,2,2.32,1.02,0.34,1.45,1.09,0.98,0.07,0.34,2,1,3,0.98,3896,0,107,43,54,846,50.0,268,466,60,120.0,596,1,165,230,34,0,0,52,-1,-1,49,-5.59,,,,,,,,,,,,
485683,1564153230386,7,2.33,1.02,0.34,1.45,1.09,1.01,0.07,0.34,2,0,3,1.01,3831,0,108,43,54,849,50.0,257,455,60,123.0,673,1,163,231,33,0,0,48,-1,-1,49,-5.59,,,,,,,,,,,,
485703,1564153230406,4,2.33,1.02,0.34,1.45,1.09,0.97,0.07,0.34,1,1,2,0.98,3857,0,107,43,54,851,46.0,266,469,60,120.0,673,1,164,230,33,0,0,48,-1,-1,46,-5.59,,,,,,,,,,,,
485723,1564153230426,2,2.33,1.02,0.34,1.45,1.09,1.0,0.06,0.35,1,-0,2,1.01,3865,0,108,43,54,855,46.0,258,459,60,123.0,673,1,164,232,33,0,0,48,-1,-1,46,181.28,,,,,,,,,,,,
485743,1564153230446,3,2.33,1.02,0.34,1.44,1.09,0.97,0.06,0.32,1,1,2,0.97,3801,0,108,43,54,859,46.0,262,458,60,120.0,673,1,162,231,33,0,0,44,-1,-1,46,-5.59,44.680901,10.024464,4.82,174.1,0,0.0,-1,0.0,0.0,0,3.59,8.0957
485763,1564153230466,4,2.33,1.02,0.34,1.44,1.09,0.98,0.04,0.37,1,-1,2,0.98,3818,0,108,43,54,861,42.0,256,467,60,122.0,673,1,162,231,33,0,0,44,5470,-1,41,414.87,,,,,,,,,,,,
485783,1564153230486,4,2.33,1.02,0.34,1.45,1.09,0.98,0.05,0.34,1,0,1,0.98,3810,0,108,43,54,863,42.0,260,448,60,123.0,804,1,162,231,33,0,0,44,5470,24067,41,-5.59,,,,,,,,,,,,
485803,1564153230506,3,2.33,1.03,0.34,1.45,1.09,0.98,0.04,0.37,1,-1,2,0.99,3763,0,108,43,54,864,42.0,260,470,60,121.0,804,1,160,230,33,0,0,40,5470,24067,41,414.87,,,,,,,,,,,,
485823,1564153230526,4,2.33,1.03,0.34,1.46,1.09,0.97,0.06,0.32,1,0,2,0.97,3746,0,108,43,54,866,41.0,256,451,60,123.0,804,1,159,229,33,0,0,40,-1,24067,41,-5.59,,,,,,,,,,,,
485843,1564153230546,4,2.32,1.02,0.34,1.45,1.09,0.99,0.04,0.38,1,-1,1,0.99,3729,0,108,43,55,867,38.0,253,472,60,121.0,804,1,159,233,33,0,0,40,-1,24067,37,414.87,44.680901,10.024464,4.38,174.1,0,0.0,-1,0.0,0.0,0,3.59,8.0974
485863,1564153230566,2,2.33,1.03,0.33,1.45,1.09,0.96,0.04,0.35,0,0,1,0.96,3693,0,108,43,55,867,38.0,261,456,60,123.0,804,1,157,232,33,0,0,36,-1,-1,37,-5.59,,,,,,,,,,,,
485883,1564153230586,3,2.32,1.03,0.34,1.45,1.1,0.98,0.02,0.4,0,-2,2,0.98,3683,11,108,43,56,869,38.0,252,471,60,123.0,1000,1,157,267,37,0,0,36,-1,-1,37,181.28,,,,,,,,,,,,
485903,1564153230605,3,2.32,1.03,0.33,1.46,1.09,0.95,0.03,0.38,0,0,1,0.95,3618,11,107,43,58,870,37.0,257,447,60,121.0,1000,1,154,267,37,0,0,36,-1,-1,33,-5.59,,,,,,,,,,,,
485923,1564153230625,6,2.32,1.02,0.34,1.45,1.09,0.97,0.01,0.4,0,0,1,0.97,3602,11,108,43,59,871,33.0,250,475,60,122.0,1000,1,154,272,37,0,0,36,-1,-1,33,181.28,,,,,,,,,,,,
485943,1564153230645,4,2.32,1.02,0.33,1.45,1.09,0.96,0.03,0.43,0,-2,1,0.96,3581,21,108,43,62,872,33.0,250,468,60,120.0,1000,1,157,282,37,0,0,31,-1,-1,33,181.28,44.680901,10.024464,3.69,174.1,0,0.0,-1,0.0,0.0,0,3.59,8.099
485963,1564153230665,3,2.32,1.01,0.33,1.44,1.09,0.93,0.04,0.38,0,1,1,0.93,3554,21,108,43,65,873,33.0,252,447,60,123.0,1000,1,168,287,37,0,0,31,-1,-1,33,-5.59,,,,,,,,,,,,
485983,1564153230685,6,2.32,1.0,0.33,1.43,1.08,0.96,0.03,0.42,0,-1,1,0.96,3587,32,108,43,69,874,33.0,247,473,60,123.0,1212,1,181,300,40,0,0,31,-1,-1,33,181.28,,,,,,,,,,,,
486003,1564153230705,4,2.32,0.99,0.33,1.44,1.08,0.94,0.04,0.41,0,0,0,0.94,3646,35,108,43,74,874,28.0,252,456,60,120.0,1212,1,183,305,40,0,0,31,-1,-1,27,-5.59,,,,,,,,,,,,
486023,1564153230725,2,2.33,0.99,0.33,1.44,1.07,0.98,0.03,0.43,0,-1,1,0.98,3756,42,108,43,79,874,28.0,250,461,60,123.0,1212,1,187,336,40,0,0,31,-1,-235,27,-5.59,,,,,,,,,,,,
486043,1564153230745,2,2.32,0.99,0.33,1.43,1.07,0.97,0.04,0.41,-0,-0,0,0.97,3883,45,108,43,83,873,28.0,257,450,60,121.0,1212,1,194,395,40,0,0,26,-1,-235,27,-5.59,44.680904,10.024464,2.94,174.1,0,0.0,-1,0.0,0.0,0,3.59,8.1007
486063,1564153230765,2,2.32,0.98,0.33,1.43,1.07,0.97,0.04,0.41,-0,-1,1,0.97,3944,49,108,43,85,873,28.0,258,471,60,123.0,1212,1,197,412,40,0,0,26,-1,-235,27,181.28,,,,,,,,,,,,
486083,1564153230785,4,2.32,0.99,0.33,1.43,1.08,0.95,0.04,0.39,-0,-1,1,0.95,3871,49,108,43,88,872,28.0,261,448,60,123.0,2222,1,196,412,60,0,0,26,-1,-235,27,-5.59,,,,,,,,,,,,
486103,1564153230807,3,2.32,0.99,0.33,1.43,1.08,0.95,0.07,0.39,-0,0,-0,0.96,3966,49,108,43,89,872,28.0,264,463,60,121.0,2222,1,201,339,60,0,0,26,-1,-235,27,-5.59,,,,,,,,,,,,
486123,1564153230827,1,2.33,0.99,0.33,1.43,1.08,0.95,0.06,0.38,0,-0,1,0.95,4030,49,108,43,89,873,22.0,261,467,60,124.0,2222,1,206,438,60,0,0,26,-1,-235,22,181.28,,,,,,,,,,,,
486143,1564153230847,3,2.32,0.99,0.33,1.43,1.08,0.96,0.04,0.4,-0,-1,1,0.96,4076,49,108,43,89,875,22.0,268,453,60,122.0,2222,1,210,441,60,0,0,26,-1,-235,22,181.28,44.680904,10.024464,2.37,174.1,0,0.0,-1,0.0,0.0,0,3.59,8.1024
486163,1564153230867,4,2.32,0.99,0.33,1.43,1.07,0.94,0.07,0.41,-0,-0,0,0.94,4116,49,108,43,89,877,22.0,272,455,60,122.0,2222,1,214,442,60,0,0,26,-1,-1,22,-5.59,,,,,,,,,,,,
486183,1564153230887,4,2.32,0.99,0.33,1.43,1.08,0.94,0.06,0.39,-0,-0,-0,0.94,4204,49,108,43,90,880,22.0,271,469,60,122.0,3227,1,225,454,71,0,0,19,-1,-1,22,-5.59,,,,,,,,,,,,
486203,1564153230907,3,2.33,0.99,0.33,1.43,1.08,0.95,0.03,0.36,-0,-1,0,0.95,4213,49,108,43,90,900,22.0,273,466,60,123.0,3227,1,226,454,71,0,0,19,-1,-1,22,648.46,,,,,,,,,,,,
486223,1564153230927,4,2.32,0.99,0.33,1.42,1.09,0.97,0.01,0.39,-0,-2,0,0.97,4276,49,108,43,90,977,22.0,276,459,60,124.0,3227,1,232,459,71,0,0,19,-1,-1,22,181.28,,,,,,,,,,,,
486243,1564153230947,3,2.33,0.99,0.33,1.43,1.08,0.99,0.03,0.4,-0,-2,1,0.99,4431,50,108,43,90,1052,22.0,281,458,60,123.0,3227,1,248,468,71,0,0,19,-1,-1,22,-5.59,44.680904,10.024464,1.73,174.1,0,0.0,-1,0.0,0.0,0,3.59,8.104
486263,1564153230967,5,2.33,0.99,0.33,1.43,1.08,1.01,0.02,0.39,-0,-2,1,1.01,4613,50,108,43,91,1127,22.0,286,462,60,123.0,3227,1,271,506,71,0,0,19,-1,-1,22,-5.59,,,,,,,,,,,,
486283,1564153230987,4,2.33,0.99,0.33,1.44,1.08,0.97,0.03,0.35,-0,-1,1,0.97,4784,49,108,43,91,1204,22.0,297,461,60,122.0,4227,1,287,517,93,0,0,19,-1,-1,22,181.28,,,,,,,,,,,,
486303,1564153230997,5,2.32,1.0,0.33,1.43,1.08,0.94,0.05,0.43,-0,-2,0,0.95,5129,41,108,43,90,1293,22.0,310,465,60,121.0,4227,1,309,505,93,0,0,19,-1,-1,13,-5.59,,,,,,,,,,,,
486323,1564153231017,5,2.32,1.0,0.33,1.44,1.08,0.94,0.01,0.37,-0,-1,2,0.94,5453,32,108,43,87,1383,14.0,321,459,60,121.0,4227,1,309,496,93,0,0,19,-1,-1,13,414.87,,,,,,,,,,,,
486343,1564153231037,6,2.32,1.0,0.33,1.44,1.08,0.97,0.03,0.36,-1,-1,1,0.97,5890,24,108,43,82,1399,14.0,342,467,60,122.0,4227,1,336,483,93,0,0,19,-1,-1,13,181.28,44.680904,10.024464,0.0,174.1,0,0.0,-1,0.0,0.0,0,3.59,8.1057
486363,1564153231057,2,2.32,1.0,0.33,1.43,1.08,0.94,-0.05,0.41,-1,-1,1,0.94,6332,18,108,43,76,1412,14.0,367,462,60,121.0,4227,1,358,455,93,0,0,19,-1,-1,13,648.46,,,,,,,,,,,,
486383,1564153231077,6,2.32,1.01,0.33,1.44,1.09,0.93,-0.01,0.35,-1,-1,1,0.93,6672,14,108,43,70,1398,14.0,401,461,60,122.0,0,1,378,362,99,0,0,19,-1,-1,13,-5.59,,,,,,,,,,,,
486403,1564153231107,4,2.32,1.01,0.33,1.44,1.08,0.91,0.01,0.36,-1,-0,2,0.91,6749,14,108,43,65,1382,14.0,415,466,60,122.0,0,1,396,315,99,0,0,19,-1,-1,13,-5.59,,,,,,,,,,,,
486423,1564153231127,6,2.33,1.0,0.33,1.44,1.08,0.93,0.09,0.38,-1,-1,2,0.94,6771,14,108,43,61,1352,14.0,426,463,60,121.0,0,1,414,294,99,0,0,19,-1,-1,13,414.87,,,,,,,,,,,,
486443,1564153231147,4,2.32,1.01,0.33,1.44,1.08,0.82,0.04,0.44,-0,1,2,0.82,6830,14,108,43,58,1320,14.0,433,466,60,121.0,0,1,404,284,99,0,0,19,-1,-1,13,-5.59,44.680904,10.024464,0.0,174.1,0,0.0,-1,0.0,0.0,0,3.59,8.1074
486463,1564153231167,4,2.33,1.01,0.34,1.44,1.09,0.94,0.08,0.52,-1,-1,1,0.94,6808,14,108,43,55,1234,14.0,433,462,60,123.0,0,1,391,274,99,0,0,19,-1,-1,13,-5.59,,,,,,,,,,,,
486483,1564153231187,3,2.31,1.01,0.33,1.45,1.08,0.83,-0.01,0.51,-0,-1,-1,0.83,6747,14,108,43,53,1147,14.0,430,463,60,120.0,0,1,385,260,68,0,0,19,-1,-1,13,-5.59,,,,,,,,,,,,
486503,1564153231207,3,2.32,1.01,0.34,1.45,1.08,0.89,0.07,0.44,-0,-1,-0,0.89,6658,14,108,43,51,1084,14.0,432,463,60,122.0,0,1,378,249,68,0,0,19,-1,-1,13,-5.59,,,,,,,,,,,,
486523,1564153231227,7,2.31,1.01,0.33,1.44,1.08,0.88,0.05,0.5,-1,-0,0,0.88,6567,14,108,43,50,1027,14.0,427,464,60,123.0,0,1,374,243,68,0,0,19,-1,-1,13,-5.59,,,,,,,,,,,,
486543,1564153231247,2,2.32,1.01,0.33,1.44,1.09,0.83,0.03,0.46,-0,1,1,0.83,6537,14,108,43,49,955,14.0,422,461,60,121.0,0,1,371,236,68,0,0,19,-1,-1,13,-5.59,44.680904,10.024464,0.0,174.0,0,0.0,-1,0.0,0.0,0,3.59,8.109
486563,1564153231267,5,2.31,1.01,0.33,1.45,1.09,0.89,0.03,0.47,-0,-1,0,0.89,6519,13,108,43,49,879,14.0,413,462,60,123.0,0,1,371,236,68,0,0,19,-1,-1,13,-5.59,,,,,,,,,,,,
486583,1564153231287,5,2.32,1.01,0.34,1.45,1.08,0.77,0.04,0.47,-0,1,1,0.77,6508,14,108,43,48,846,14.0,411,462,60,122.0,0,1,368,232,57,0,0,19,-1,-1,13,-5.59,,,,,,,,,,,,
486603,1564153231307,2,2.32,1.01,0.33,1.45,1.08,0.82,0.04,0.49,-0,1,1,0.82,6474,13,108,43,48,828,14.0,412,461,60,120.0,0,1,367,232,57,0,0,6,-1,-1,13,-5.59,,,,,,,,,,,,
486623,1564153231327,5,2.32,1.01,0.33,1.45,1.08,0.94,0.11,0.55,-0,-2,0,0.94,6461,13,108,43,47,812,14.0,417,459,60,123.0,0,1,364,226,57,0,0,6,-1,-1,13,181.28,,,,,,,,,,,,
486643,1564153231347,6,2.31,1.01,0.33,1.46,1.08,0.81,-0.0,0.59,-0,-1,0,0.81,6449,14,108,43,47,799,14.0,414,462,60,121.0,0,1,364,226,57,0,0,6,-1,-1,13,-5.59,44.680904,10.024464,0.0,174.0,0,0.0,-1,0.0,0.0,0,3.59,8.1107
486663,1564153231367,2,2.32,1.02,0.33,1.46,1.09,0.72,0.04,0.54,0,2,0,0.72,6492,14,108,43,47,798,14.0,420,464,60,122.0,0,1,364,226,57,0,0,6,-1,250,13,-5.59,,,,,,,,,,,,
486683,1564153231387,3,2.31,1.02,0.33,1.45,1.09,0.85,0.08,0.58,-0,-1,-0,0.85,6476,14,108,43,47,803,14.0,420,461,60,122.0,0,1,364,226,55,0,0,6,-1,250,13,-5.59,,,,,,,,,,,,
486703,1564153231407,6,2.31,1.02,0.34,1.45,1.09,0.84,0.03,0.59,-0,-2,-1,0.84,6469,17,108,43,47,805,14.0,418,460,60,121.0,0,1,364,224,55,0,0,6,-1,250,13,-5.59,,,,,,,,,,,,
486723,1564153231427,3,2.32,1.02,0.34,1.45,1.09,0.73,0.01,0.56,0,0,-1,0.73,6519,21,108,43,48,806,14.0,422,466,60,119.0,0,1,368,232,55,0,0,6,-1,250,13,-5.59,,,,,,,,,,,,
486743,1564153231447,4,2.32,1.02,0.33,1.46,1.09,0.85,0.09,0.5,0,-1,-1,0.85,6562,27,108,43,49,804,14.0,426,459,60,123.0,0,1,371,236,55,0,0,6,-1,250,13,-5.59,44.680904,10.024464,0.0,174.0,0,0.0,-1,0.0,0.0,0,3.59,8.1124
486763,1564153231467,3,2.31,1.02,0.34,1.46,1.09,0.82,0.01,0.52,-0,-0,-0,0.82,6632,31,108,43,52,799,14.0,423,463,60,124.0,0,1,381,254,55,0,0,16,-1,250,13,-5.59,,,,,,,,,,,,
486783,1564153231487,4,2.32,1.01,0.33,1.45,1.09,0.81,0.04,0.49,-0,-1,0,0.82,6759,35,108,43,56,796,13.0,431,462,60,123.0,0,1,395,273,68,0,0,16,250,250,13,-5.59,,,,,,,,,,,,
486803,1564153231507,3,2.32,1.01,0.33,1.46,1.09,0.77,0.03,0.43,-0,1,1,0.77,6895,40,108,43,60,792,13.0,428,467,60,122.0,0,1,414,290,68,0,0,16,250,250,13,414.87,,,,,,,,,,,,
486823,1564153231527,3,2.32,1.02,0.33,1.45,1.09,0.85,-0.05,0.59,-0,-1,0,0.85,7131,45,108,43,64,792,0.0,440,462,60,123.0,0,1,415,317,68,0,0,16,250,250,0,-5.59,,,,,,,,,,,,
486843,1564153231547,3,2.32,1.02,0.34,1.46,1.09,0.96,-0.1,0.68,-1,-3,-1,0.97,7367,50,108,43,67,793,0.0,454,457,60,122.0,0,1,416,258,68,0,0,16,250,250,0,-5.59,44.680904,10.024464,0.0,173.9,0,0.0,-1,0.0,0.0,0,3.59,8.114
486863,1564153231567,3,2.32,1.01,0.34,1.45,1.09,1.07,-0.13,0.75,-2,-4,-2,1.08,7690,56,108,43,71,793,0.0,466,464,60,121.0,0,1,428,401,68,0,0,16,250,250,0,-5.59,,,,,,,,,,,,
486883,1564153231587,4,2.32,1.02,0.34,1.46,1.09,0.9,-0.07,0.7,-1,-2,-1,0.9,7988,60,108,43,74,793,0.0,480,461,60,123.0,0,1,440,431,130,0,0,16,250,250,0,-5.59,,,,,,,,,,,,
486903,1564153231606,6,2.32,1.02,0.34,1.45,1.09,1.01,-0.0,0.66,-1,-3,2,1.01,8480,64,108,43,75,792,0.0,507,464,60,122.0,0,1,428,369,130,0,0,16,250,250,0,-5.59,,,,,,,,,,,,
486923,1564153231626,4,2.32,1.02,0.34,1.45,1.1,0.96,0.17,0.64,-1,-1,1,0.97,9018,67,108,43,74,791,0.0,530,463,60,122.0,0,1,413,360,130,0,0,16,250,250,0,-5.59,,,,,,,,,,,,
486943,1564153231646,5,2.32,1.02,0.34,1.45,1.09,0.96,0.1,0.69,-1,-2,0,0.97,9590,68,108,43,72,790,0.0,555,463,60,123.0,0,1,413,441,130,0,0,16,250,250,0,-5.59,44.680904,10.024464,0.0,173.9,0,0.0,-1,0.0,0.0,0,3.59,8.1157
486963,1564153231666,6,2.31,1.02,0.34,1.46,1.09,0.87,0.05,0.66,-1,-1,-0,0.87,10229,68,108,43,71,790,0.0,573,468,60,122.0,0,1,415,477,130,0,0,16,250,250,0,-5.59,,,,,,,,,,,,
486983,1564153231686,4,2.32,1.01,0.34,1.45,1.09,0.92,-0.16,0.67,-1,-0,-1,0.94,10702,68,108,43,69,792,0.0,605,461,60,121.0,0,1,444,380,191,0,0,16,250,250,0,-5.59,,,,,,,,,,,,
487003,1564153231706,5,2.32,1.01,0.34,1.45,1.09,0.84,0.05,0.61,-0,-0,-0,0.84,11200,68,108,43,69,794,0.0,638,465,60,122.0,0,1,446,473,191,0,0,16,250,250,0,882.05,,,,,,,,,,,,
487023,1564153231726,5,2.32,1.02,0.34,1.45,1.09,0.75,0.16,0.73,0,3,0,0.77,11638,68,107,43,69,797,0.0,640,463,60,121.0,0,1,440,469,191,0,0,16,250,250,0,-5.59,,,,,,,,,,,,
487043,1564153231746,6,2.31,1.02,0.34,1.46,1.09,0.67,0.3,0.75,1,6,0,0.74,12050,61,107,43,66,802,0.0,647,464,60,122.0,0,1,440,457,191,0,0,16,250,250,0,-5.59,44.680904,10.024464,0.0,173.9,0,0.0,-1,0.0,0.0,0,3.59,8.1174
487063,1564153231766,7,2.31,1.02,0.34,1.46,1.08,0.61,0.47,0.74,1,8,0,0.77,12319,47,107,43,62,807,0.0,652,465,60,121.0,0,1,440,424,191,0,0,16,250,250,0,-5.59,,,,,,,,,,,,
487083,1564153231786,7,2.31,1.01,0.33,1.45,1.09,0.56,0.57,0.74,1,9,-0,0.8,12175,34,108,43,56,809,0.0,660,468,60,122.0,0,1,411,287,182,0,0,16,250,250,0,-5.59,,,,,,,,,,,,
487103,1564153231806,6,2.31,1.02,0.34,1.46,1.09,0.51,0.71,0.78,1,10,-0,0.88,11965,24,108,43,51,810,0.0,644,467,60,122.0,0,1,391,230,182,0,0,16,250,250,0,-5.59,,,,,,,,,,,,
487123,1564153231826,7,2.32,1.02,0.34,1.45,1.09,0.5,0.75,0.9,2,11,0,0.9,11740,18,108,43,46,806,0.0,643,465,60,122.0,0,1,373,257,182,0,0,16,250,250,0,-5.59,,,,,,,,,,,,
487143,1564153231846,5,2.32,1.01,0.34,1.46,1.09,0.56,0.54,0.81,1,11,-1,0.78,11488,16,108,43,42,802,0.0,632,464,60,122.0,0,1,342,242,182,0,0,16,250,250,0,-5.59,44.680904,10.024464,0.0,173.8,0,0.0,-1,0.0,0.0,0,3.59,8.1191
487163,1564153231866,5,2.32,1.02,0.34,1.45,1.09,0.59,0.62,0.69,1,9,0,0.86,11261,16,108,43,40,795,0.0,645,469,60,122.0,0,1,327,236,182,0,0,16,250,250,0,-5.59,,,,,,,,,,,,
487183,1564153231886,5,2.32,1.01,0.34,1.45,1.09,0.65,0.55,0.61,1,8,-1,0.85,11114,15,108,43,38,791,0.0,642,466,60,121.0,0,1,317,233,98,0,0,16,250,250,0,-5.59,,,,,,,,,,,,
487203,1564153231906,4,2.32,1.02,0.33,1.45,1.09,0.61,0.32,0.75,1,7,-2,0.69,10882,15,108,43,37,798,0.0,643,466,60,121.0,0,1,314,145,98,0,0,16,250,250,0,-5.59,,,,,,,,,,,,
487223,1564153231926,3,2.32,1.01,0.33,1.45,1.09,0.7,0.14,0.87,1,6,-2,0.72,10629,15,108,43,36,806,0.0,633,465,60,120.0,0,1,311,225,98,0,0,16,250,250,0,-5.59,,,,,,,,,,,,
487243,1564153231946,5,2.32,1.02,0.34,1.46,1.08,0.79,0.02,0.98,1,6,-2,0.79,10474,15,108,43,35,820,0.0,618,461,60,121.0,0,1,308,223,98,0,0,16,250,250,0,-5.59,44.680904,10.024464,0.0,173.8,0,0.0,-1,0.0,0.0,0,3.59,8.1207
487263,1564153231966,6,2.31,1.02,0.34,1.46,1.09,0.84,-0.07,0.99,0,4,-2,0.84,10217,15,108,43,35,834,0.0,605,469,60,122.0,0,1,308,220,98,0,0,0,250,250,0,-5.59,,,,,,,,,,,,
487283,1564153231986,5,2.31,1.02,0.33,1.45,1.09,0.82,0.04,0.95,0,3,-3,0.83,10032,15,108,43,35,842,0.0,593,462,60,122.0,0,1,308,134,84,0,0,0,250,250,0,-5.59,,,,,,,,,,,,
487303,1564153231996,6,2.32,1.02,0.34,1.45,1.1,0.87,0.03,0.81,0,3,-2,0.87,9868,15,108,43,34,849,0.0,588,462,60,122.0,0,1,305,213,84,0,0,0,250,250,0,-5.59,,,,,,,,,,,,
487323,1564153232016,3,2.32,1.01,0.34,1.45,1.1,0.88,0.09,0.9,0,2,-1,0.89,9590,15,108,43,34,844,0.0,596,467,60,122.0,0,1,305,210,84,0,0,0,250,250,0,-5.59,,,,,,,,,,,,
487343,1564153232036,5,2.32,1.02,0.34,1.46,1.09,0.77,0.1,0.72,0,4,-1,0.78,9384,15,108,43,33,837,0.0,581,467,60,121.0,0,1,302,203,84,0,0,0,250,250,0,-5.59,44.680904,10.024464,0.0,173.8,0,0.0,-1,0.0,0.0,0,3.59,8.1224
487363,1564153232056,5,2.32,1.02,0.33,1.46,1.09,0.67,0.09,0.57,0,5,-1,0.68,9218,15,108,43,32,825,0.0,580,460,60,122.0,0,1,300,114,84,0,0,0,250,250,0,-5.59,,,,,,,,,,,,
487383,1564153232076,5,2.32,1.02,0.34,1.46,1.1,0.49,0.04,0.53,0,6,-2,0.49,9057,15,108,43,32,812,0.0,565,471,60,123.0,0,1,300,111,67,0,0,0,250,250,0,-5.59,,,,,,,,,,,,
487403,1564153232106,5,2.32,1.02,0.34,1.46,1.09,0.4,-0.02,0.38,0,7,-2,0.4,8890,15,108,43,32,804,0.0,549,467,60,123.0,0,1,300,110,67,0,0,0,250,250,0,-5.59,,,,,,,,,,,,
487423,1564153232126,4,2.33,1.02,0.34,1.46,1.1,0.3,-0.02,0.24,0,8,-1,0.3,8786,15,108,43,32,797,0.0,547,460,60,122.0,0,1,300,110,67,0,0,0,250,250,0,-5.59,,,,,,,,,,,,
487443,1564153232146,7,2.32,1.01,0.34,1.45,1.1,0.37,0.04,0.17,0,6,-0,0.37,8720,15,108,43,31,807,0.0,541,463,60,122.0,0,1,295,110,67,0,0,0,250,250,0,-5.59,44.680904,10.024464,0.0,173.8,0,0.0,-1,0.0,0.0,0,3.59,8.1241
487463,1564153232166,6,2.32,1.02,0.34,1.47,1.09,0.52,0.14,0.24,0,5,-0,0.54,8648,15,108,43,30,821,0.0,526,465,60,122.0,0,1,291,110,67,0,0,0,250,250,0,-5.59,,,,,,,,,,,,
487483,1564153232186,4,2.33,1.02,0.34,1.46,1.1,0.55,0.12,0.38,0,4,-0,0.56,8656,15,108,43,30,838,0.0,528,465,60,121.0,0,1,291,193,63,0,0,0,250,250,0,-5.59,,,,,,,,,,,,
487503,1564153232206,3,2.32,1.02,0.34,1.46,1.09,0.46,0.08,0.3,0,5,-1,0.47,8585,15,108,43,30,858,0.0,527,462,60,122.0,0,1,291,110,63,0,0,0,250,250,0,-5.59,,,,,,,,,,,,
487523,1564153232226,7,2.32,1.02,0.34,1.46,1.1,0.59,0.06,0.29,0,3,-0,0.59,8511,15,108,43,30,870,0.0,530,466,60,122.0,0,1,291,193,63,0,0,0,250,250,0,-5.59,,,,,,,,,,,,
487543,1564153232246,3,2.32,1.02,0.34,1.45,1.1,0.59,0.11,0.33,0,3,-0,0.6,8442,15,108,43,30,879,0.0,522,462,60,123.0,0,1,290,191,63,0,0,0,250,250,0,-5.59,44.680904,10.024464,0.0,173.8,0,0.0,-1,0.0,0.0,0,3.59,8.1257
487563,1564153232266,6,2.32,1.02,0.34,1.46,1.09,0.54,0.07,0.3,0,4,-1,0.54,8370,15,108,43,30,877,0.0,520,466,60,123.0,0,1,289,185,63,0,0,0,250,250,0,-5.59,,,,,,,,,,,,
487583,1564153232286,4,2.32,1.02,0.34,1.46,1.09,0.69,0.1,0.38,-0,1,-1,0.69,8300,15,108,43,30,867,0.0,528,463,60,121.0,0,1,288,100,57,0,0,0,250,250,0,-5.59,,,,,,,,,,,,
487603,1564153232308,7,2.32,1.02,0.34,1.46,1.09,0.55,0.07,0.32,0,2,-1,0.56,8311,15,108,43,31,851,0.0,524,466,60,123.0,0,1,292,183,57,0,0,0,250,250,0,-5.59,,,,,,,,,,,,
487623,1564153232328,4,2.32,1.02,0.34,1.47,1.09,0.67,0.08,0.36,-0,1,-1,0.68,8212,15,108,43,31,833,0.0,520,463,60,123.0,0,1,290,180,57,0,0,0,250,250,0,-5.59,,,,,,,,,,,,
487643,1564153232348,6,2.32,1.03,0.34,1.45,1.1,0.57,0.02,0.34,0,2,-1,0.57,8152,15,108,43,31,821,0.0,519,465,60,123.0,0,1,289,95,57,0,0,0,250,250,0,-5.59,44.680904,10.024464,0.0,173.8,0,0.0,-1,0.0,0.0,0,3.59,8.1274
487663,1564153232368,3,2.32,1.03,0.34,1.46,1.09,0.53,0.04,0.39,1,3,-2,0.53,8106,15,108,43,32,813,0.0,511,466,60,123.0,0,1,291,92,57,0,0,0,250,250,0,-5.59,,,,,,,,,,,,
487683,1564153232388,4,2.32,1.03,0.34,1.46,1.1,0.61,-0.03,0.42,1,2,-1,0.62,8047,15,108,43,32,807,0.0,502,463,60,122.0,0,1,290,173,54,0,0,0,250,250,0,181.28,,,,,,,,,,,,
487703,1564153232406,6,2.32,1.02,0.34,1.46,1.1,0.51,-0.01,0.4,1,4,0,0.51,7948,15,108,43,32,802,0.0,492,463,60,124.0,0,1,290,172,54,0,0,0,250,250,0,-5.59,,,,,,,,,,,,
487723,1564153232426,10,2.32,1.02,0.34,1.47,1.09,0.46,-0.0,0.41,1,4,-2,0.46,7941,15,108,43,33,801,0.0,504,466,60,123.0,0,1,292,95,54,0,0,0,250,250,0,-5.59,,,,,,,,,,,,
487743,1564153232446,3,2.32,1.02,0.34,1.46,1.1,0.55,-0.02,0.39,1,3,-2,0.55,7888,15,108,43,33,803,0.0,495,464,60,123.0,0,1,292,95,54,0,0,0,250,250,0,-5.59,44.680904,10.024464,0.0,173.8,0,0.0,-1,0.0,0.0,0,3.59,8.1291
487763,1564153232466,4,2.32,1.03,0.34,1.46,1.09,0.65,-0.1,0.45,1,3,0,0.66,7799,15,108,43,34,807,0.0,499,466,60,124.0,0,1,295,101,54,0,0,0,250,250,0,-5.59,,,,,,,,,,,,
487783,1564153232486,3,2.32,1.02,0.34,1.46,1.09,0.67,-0.04,0.5,1,1,-1,0.67,7812,15,108,43,34,813,0.0,497,461,60,124.0,0,1,295,101,54,0,0,0,250,250,0,-5.59,,,,,,,,,,,,
487803,1564153232506,6,2.32,1.02,0.34,1.46,1.1,0.63,-0.01,0.46,1,1,-1,0.63,7725,15,108,43,34,819,0.0,489,465,60,124.0,0,1,295,101,54,0,0,0,250,250,0,-5.59,,,,,,,,,,,,
487823,1564153232526,6,2.32,1.02,0.34,1.46,1.1,0.6,0.03,0.32,1,1,2,0.61,7681,15,108,43,35,822,0.0,501,466,60,123.0,0,1,298,190,54,0,0,0,250,250,0,-5.59,,,,,,,,,,,,
487843,1564153232546,5,2.32,1.02,0.34,1.46,1.09,0.58,0.12,0.3,1,3,1,0.59,7709,15,108,43,35,826,0.0,488,463,60,124.0,0,1,298,190,54,0,0,0,250,250,0,181.28,44.680904,10.024464,0.0,173.8,0,0.0,-1,0.0,0.0,0,3.59,8.1307
487863,1564153232566,3,2.32,1.02,0.33,1.46,1.09,0.58,0.12,0.33,1,3,-1,0.59,7646,15,108,43,35,828,0.0,494,463,60,123.0,0,1,298,196,54,0,0,0,250,250,0,-5.59,,,,,,,,,,,,
487883,1564153232586,2,2.31,1.02,0.34,1.46,1.09,0.62,0.03,0.37,1,3,-0,0.63,7653,15,108,43,36,829,0.0,487,466,60,124.0,0,1,301,113,56,0,0,0,250,250,0,-5.59,,,,,,,,,,,,
487903,1564153232605,4,2.32,1.02,0.34,1.46,1.1,0.74,-0.0,0.51,0,1,1,0.74,7603,15,108,43,35,828,0.0,477,461,60,125.0,0,1,298,190,56,0,0,0,250,250,0,-5.59,,,,,,,,,,,,
487923,1564153232625,3,2.32,1.02,0.34,1.46,1.09,0.87,-0.01,0.66,-1,-1,-1,0.87,7631,15,108,43,36,826,0.0,482,463,60,124.0,0,1,301,196,56,0,0,0,250,250,0,-5.59,,,,,,,,,,,,
487943,1564153232645,4,2.32,1.02,0.34,1.47,1.1,0.97,-0.05,0.74,-1,-2,-3,0.97,7578,15,108,43,36,823,0.0,475,463,60,126.0,0,1,301,113,56,0,0,0,250,250,0,-5.59,44.680904,10.024464,0.0,173.8,0,0.0,-1,0.0,0.0,0,3.59,8.1324
487963,1564153232665,4,2.32,1.03,0.34,1.47,1.09,0.98,-0.07,0.78,-1,-2,-0,0.98,7597,15,108,43,36,820,0.0,478,462,60,125.0,0,1,301,113,56,0,0,0,250,250,0,-5.59,,,,,,,,,,,,
487983,1564153232685,4,2.31,1.03,0.34,1.47,1.1,0.99,-0.06,0.81,-0,-3,-0,1.0,7548,15,108,43,36,818,0.0,477,464,60,124.0,0,1,301,196,56,0,0,0,250,250,0,-5.59,,,,,,,,,,,,
488003,1564153232705,4,2.32,1.03,0.34,1.47,1.08,1.04,-0.03,0.87,-1,-5,-3,1.04,7566,15,108,43,36,817,0.0,481,462,60,124.0,0,1,301,196,56,0,0,0,250,250,0,-5.59,,,,,,,,,,,,
488023,1564153232725,5,2.32,1.03,0.33,1.46,1.09,1.09,-0.06,0.85,-1,-5,-2,1.09,7548,15,108,43,36,819,0.0,476,466,60,124.0,0,1,301,196,56,0,0,0,250,250,0,-5.59,,,,,,,,,,,,
488043,1564153232745,4,2.32,1.02,0.34,1.47,1.09,1.05,-0.02,0.79,-1,-4,1,1.05,7581,15,108,43,37,820,0.0,485,465,60,124.0,0,1,304,119,56,0,0,0,250,250,0,-5.59,44.680904,10.024464,0.0,173.8,0,0.0,-1,0.0,0.0,0,3.59,8.1341
488063,1564153232765,5,2.32,1.02,0.33,1.47,1.09,0.94,0.04,0.76,-0,-3,0,0.94,7545,15,108,43,37,823,0.0,476,464,60,124.0,0,1,304,119,56,0,0,0,250,250,0,-5.59,,,,,,,,,,,,
488083,1564153232785,6,2.32,1.02,0.33,1.46,1.09,0.87,0.04,0.68,-0,-4,-3,0.87,7566,15,108,43,37,827,0.0,476,463,60,124.0,0,1,304,203,58,0,0,0,250,250,0,-5.59,,,,,,,,,,,,
488103,1564153232805,6,2.31,0.99,0.33,1.46,1.08,0.82,0.04,0.55,-0,-3,-1,0.82,7536,15,108,43,37,835,0.0,482,465,60,124.0,0,1,304,203,58,0,0,0,250,250,0,-5.59,,,,,,,,,,,,
488123,1564153232825,7,2.32,1.01,0.33,1.46,1.08,0.74,0.11,0.38,0,-2,3,0.74,7581,15,108,43,37,844,0.0,482,466,60,124.0,0,1,304,119,58,0,0,0,250,250,0,-5.59,,,,,,,,,,,,
488143,1564153232845,6,2.32,1.0,0.33,1.45,1.07,0.59,0.22,0.28,1,0,2,0.63,7536,15,107,43,37,850,0.0,469,463,60,124.0,0,1,304,201,58,0,0,0,250,250,0,181.28,44.680904,10.024464,0.0,173.8,0,0.0,-1,0.0,0.0,0,3.59,8.1357
488163,1564153232865,6,2.32,0.99,0.32,1.44,1.07,0.46,0.18,0.18,2,1,-1,0.5,7548,15,107,43,37,855,0.0,488,466,60,123.0,0,1,304,201,58,0,0,0,250,250,0,181.28,,,,,,,,,,,,
488183,1564153232885,7,2.32,0.97,0.31,1.43,1.06,0.41,0.21,0.05,2,2,1,0.46,7575,15,108,43,37,862,0.0,482,464,60,123.0,0,1,304,119,58,0,0,0,250,250,0,-5.59,,,,,,,,,,,,
488203,1564153232905,6,2.32,0.95,0.31,1.41,1.05,0.4,0.24,-0.0,2,2,4,0.47,7533,15,107,43,37,869,0.0,487,465,60,122.0,0,1,304,201,58,0,0,0,250,250,0,-5.59,,,,,,,,,,,,
488223,1564153232925,7,2.32,0.94,0.29,1.41,1.03,0.37,0.31,-0.01,2,3,2,0.48,7578,15,107,43,37,872,0.0,475,467,60,122.0,0,1,304,119,58,0,0,0,250,250,0,-5.59,,,,,,,,,,,,
488243,1564153232945,6,2.32,0.93,0.29,1.4,1.02,0.34,0.26,0.04,2,4,-0,0.43,7536,15,107,43,37,874,0.0,485,466,60,123.0,0,1,304,201,58,0,0,0,250,250,0,-5.59,44.680904,10.024464,0.0,173.8,0,0.0,-1,0.0,0.0,0,3.59,8.1374
488263,1564153232965,4,2.33,0.92,0.28,1.39,1.02,0.33,0.2,-0.02,2,5,2,0.38,7588,15,107,43,37,877,0.0,482,465,60,123.0,0,1,304,119,58,0,0,0,250,250,0,-5.59,,,,,,,,,,,,
488283,1564153232985,4,2.32,0.91,0.28,1.39,1.02,0.41,0.18,0.06,2,4,4,0.45,7542,15,107,43,37,881,0.0,483,462,60,124.0,0,1,304,119,57,0,0,0,250,250,0,-5.59,,,,,,,,,,,,
488303,1564153232995,4,2.32,0.91,0.28,1.39,1.01,0.5,0.18,0.16,1,3,0,0.53,7578,15,107,43,37,884,0.0,481,466,60,122.0,0,1,304,201,57,0,0,0,250,250,0,-5.59,,,,,,,,,,,,
488323,1564153233015,4,2.33,0.91,0.28,1.38,1.02,0.55,0.18,0.24,1,4,-1,0.58,7551,15,107,43,37,886,0.0,486,467,60,122.0,0,1,304,119,57,0,0,0,250,250,0,-5.59,,,,,,,,,,,,
488343,1564153233035,2,2.33,0.91,0.28,1.38,1.02,0.59,0.06,0.34,1,4,1,0.6,7569,15,107,43,37,887,0.0,480,464,60,122.0,0,1,304,201,57,0,0,0,250,250,0,-5.59,44.680904,10.024464,0.0,173.8,0,0.0,-1,0.0,0.0,0,3.59,8.139
488363,1564153233055,4,2.33,0.91,0.28,1.39,1.02,0.69,-0.01,0.5,0,2,2,0.69,7548,15,107,43,37,887,0.0,477,465,60,124.0,0,1,304,119,57,0,0,0,250,250,0,-5.59,,,,,,,,,,,,
488383,1564153233075,5,2.33,0.91,0.28,1.39,1.02,0.82,-0.04,0.65,-1,0,-2,0.83,7591,15,107,43,37,886,0.0,481,466,60,122.0,0,1,304,119,57,0,0,0,250,250,0,-5.59,,,,,,,,,,,,
488403,1564153233105,4,2.32,0.92,0.28,1.39,1.02,0.93,-0.05,0.69,-1,-0,-3,0.93,7548,15,107,43,37,884,0.0,473,462,60,124.0,0,1,304,201,57,0,0,0,250,250,0,-5.59,,,,,,,,,,,,
488423,1564153233125,5,2.32,0.92,0.28,1.4,1.02,0.97,-0.11,0.78,-1,-0,-0,0.98,7581,15,107,43,37,885,0.0,477,464,60,123.0,0,1,304,119,57,0,0,0,250,250,0,-5.59,,,,,,,,,,,,
488443,1564153233145,5,2.32,0.93,0.28,1.4,1.03,1.04,-0.13,0.84,-1,-2,-0,1.04,7557,15,108,43,37,886,0.0,477,464,60,123.0,0,1,304,203,57,0,0,0,250,250,0,-5.59,44.680904,10.024464,0.0,173.8,0,0.0,-1,0.0,0.0,0,3.59,8.1407
488463,1564153233165,4,2.33,0.93,0.28,1.4,1.02,1.13,-0.1,0.9,-2,-4,-3,1.13,7575,15,107,43,37,889,0.0,473,464,60,123.0,0,1,304,119,57,0,0,0,250,250,0,-5.59,,,,,,,,,,,,
488483,1564153233185,5,2.33,0.94,0.28,1.41,1.03,1.19,-0.13,0.88,-2,-5,-3,1.2,7551,15,107,43,37,893,0.0,470,465,60,124.0,0,1,304,119,57,0,0,0,250,250,0,-5.59,,,,,,,,,,,,
488503,1564153233205,5,2.32,0.93,0.29,1.4,1.03,1.18,-0.07,0.85,-1,-4,1,1.18,7591,15,107,43,37,896,0.0,475,462,60,124.0,0,1,304,119,57,0,0,0,250,250,0,-5.59,,,,,,,,,,,,
488523,1564153233225,7,2.32,0.93,0.29,1.4,1.02,1.09,-0.02,0.83,-1,-4,0,1.09,7545,15,107,43,37,900,0.0,476,463,60,122.0,0,1,304,119,57,0,0,0,250,250,0,-5.59,,,,,,,,,,,,
488543,1564153233245,5,2.33,0.93,0.29,1.41,1.03,1.03,-0.04,0.75,-1,-5,-3,1.03,7581,15,107,43,37,901,0.0,476,466,60,123.0,0,1,304,119,57,0,0,0,250,250,0,-5.59,44.680904,10.024464,0.0,173.8,0,0.0,-1,0.0,0.0,0,3.59,8.1424
488563,1564153233265,6,2.33,0.94,0.29,1.41,1.03,1.0,-0.02,0.65,-1,-4,-0,1.0,7569,15,107,43,37,900,0.0,472,463,60,124.0,0,1,304,201,57,0,0,0,250,250,0,-5.59,,,,,,,,,,,,
488583,1564153233285,7,2.33,0.93,0.29,1.41,1.03,0.91,0.07,0.51,-0,-3,3,0.92,7603,15,107,43,37,900,0.0,488,467,60,123.0,0,1,304,201,57,0,0,0,250,250,0,-5.59,,,,,,,,,,,,
488603,1564153233305,6,2.33,0.94,0.29,1.41,1.03,0.78,0.17,0.45,0,-2,1,0.8,7615,15,107,43,37,900,0.0,484,462,60,122.0,0,1,304,201,57,0,0,0,250,250,0,-5.59,,,,,,,,,,,,
488623,1564153233325,8,2.32,0.94,0.29,1.41,1.03,0.68,0.12,0.44,1,-1,-2,0.7,7588,15,107,43,37,900,0.0,492,465,60,122.0,0,1,304,201,57,0,0,0,250,250,0,414.87,,,,,,,,,,,,
488643,1564153233345,6,2.33,0.94,0.29,1.42,1.03,0.61,0.11,0.36,1,0,1,0.62,7615,15,107,43,37,900,0.0,483,468,60,123.0,0,1,304,119,57,0,0,0,250,250,0,-5.59,44.680904,10.024464,0.0,173.8,0,0.0,-1,0.0,0.0,0,3.59,8.144
488663,1564153233365,4,2.33,0.94,0.29,1.41,1.04,0.62,0.12,0.39,1,0,3,0.63,7597,15,107,43,37,901,0.0,487,464,60,122.0,0,1,304,119,57,0,0,0,250,250,0,-5.59,,,,,,,,,,,,
488683,1564153233385,4,2.32,0.95,0.29,1.41,1.03,0.67,0.14,0.47,0,0,-0,0.69,7618,15,107,43,37,901,0.0,483,466,60,122.0,0,1,304,201,58,0,0,0,250,250,0,181.28,,,,,,,,,,,,
488703,1564153233405,5,2.33,0.95,0.29,1.42,1.03,0.71,0.15,0.51,1,1,-2,0.72,7581,15,107,43,37,902,0.0,475,462,60,123.0,0,1,304,201,58,0,0,0,250,250,0,-5.59,,,,,,,,,,,,
488723,1564153233425,2,2.33,0.95,0.29,1.41,1.03,0.74,0.02,0.6,0,2,0,0.74,7603,15,107,44,37,902,0.0,478,463,60,122.0,0,1,304,119,58,0,0,0,250,250,0,-5.59,,,,,,,,,,,,
488743,1564153233445,3,2.33,0.95,0.3,1.42,1.03,0.83,-0.04,0.71,-0,-0,1,0.83,7584,15,107,43,37,901,0.0,480,465,60,122.0,0,1,304,201,58,0,0,0,250,250,0,-5.59,44.680904,10.024464,0.0,173.8,0,0.0,-1,0.0,0.0,0,3.59,8.1457
488763,1564153233465,5,2.33,0.95,0.3,1.43,1.04,0.95,-0.04,0.8,-1,-3,-2,0.95,7606,15,107,43,37,900,0.0,479,464,60,123.0,0,1,304,201,58,0,0,0,250,250,0,-5.59,,,,,,,,,,,,
488783,1564153233485,5,2.32,0.96,0.3,1.43,1.04,1.04,-0.09,0.81,-1,-3,-3,1.05,7581,15,107,44,37,899,0.0,473,463,60,124.0,0,1,304,119,58,0,0,0,250,250,0,-5.59,,,,,,,,,,,,
488803,1564153233505,5,2.33,0.96,0.3,1.43,1.04,1.07,-0.1,0.78,-1,-3,1,1.07,7609,15,107,43,37,898,0.0,476,463,60,123.0,0,1,304,119,58,0,0,0,250,250,0,-5.59,,,,,,,,,,,,
488823,1564153233525,5,2.33,0.96,0.31,1.43,1.05,1.03,-0.06,0.78,-1,-3,0,1.03,7584,15,107,44,37,896,0.0,475,465,60,123.0,0,1,304,200,58,0,0,0,250,250,0,-5.59,,,,,,,,,,,,
488843,1564153233545,4,2.33,0.96,0.31,1.44,1.04,0.98,-0.06,0.73,-1,-4,-3,0.98,7615,15,107,44,37,894,0.0,486,465,60,123.0,0,1,304,119,58,0,0,0,250,250,0,-5.59,44.680904,10.024464,0.0,173.8,0,0.0,-1,0.0,0.0,0,3.59,8.1474
488863,1564153233565,5,2.33,0.96,0.31,1.43,1.05,0.94,-0.05,0.64,-1,-3,-1,0.95,7600,15,107,44,37,891,0.0,476,463,60,124.0,0,1,304,119,58,0,0,0,250,250,0,-5.59,,,,,,,,,,,,
488883,1564153233585,7,2.33,0.96,0.31,1.44,1.05,0.86,0.04,0.5,-0,-2,3,0.86,7625,15,107,44,37,890,0.0,480,464,60,123.0,0,1,304,119,57,0,0,0,250,250,0,-5.59,,,,,,,,,,,,
