"Interval"|"ms"|0|0|1,"Utc"|"ms"|0|0|1,"FB_p"|"bar"|0|300|50,"Volant"|"F"|0.0|300.0|50,"xFR"|"mm"|0.0|5.0|50,"xRR"|"mm"|0.0|5.0|50,"xFL"|"mm"|0.0|5.0|50,"xRL"|"mm"|0.0|5.0|50,"AccelX"|"G"|-3.0|3.0|50,"AccelY"|"G"|-3.0|3.0|50,"AccelZ"|"G"|-3.0|3.0|50,"Yaw"|"Deg/Sec"|-120|120|50,"Pitch"|"Deg/Sec"|-120|120|50,"Roll"|"Deg/Sec"|-120|120|50,"Gsum"|"G"|0.0|3.0|50,"RPM"|""|0|14000|50,"TPS"|"%"|0|100|50,"WaterTemp"|"?C"|0|300|50,"AirTemp"|"?C"|-1000|1000|50,"MAP"|"KPa"|0|255|50,"Lambda"|""|0|1024|50,"WheelSpeed"|"MPH"|0.0|150.0|50,"OilPress"|"PSI"|0|150|50,"FuelPress"|"PSI"|0|150|50,"OilTemp"|"F"|0|300|50,"Battery"|"Volts"|0.0|20.0|50,"FuelCon"|"L/h"|-1000|1000|50,"Gear"|""|0|10|50,"Advance"|"Deg"|-360|360|50,"Injection"|"ms"|-1000|1000|50,"FuelCon"|"L/100km"|-1000|1000|50,"LC_But_Pres"|""|-1000|1000|50,"LC_Active"|""|-1000|1000|50,"RD_Speed"|""|-1000|1000|50,"RUD_Speed"|""|-1000|1000|50,"LD_Speed"|""|-1000|1000|50,"LUD_Speed"|""|-1000|1000|50,"Ana1"|"bar"|-1000.0|1000.0|50,"Latitude"|"Degrees"|-180.0|180.0|10,"Longitude"|"Degrees"|-180.0|180.0|10,"Speed"|"kph"|0.0|150.0|10,"Altitude"|"m"|0.0|4000.0|10,"LapCount"|""|0|0|10,"LapTime"|"Min"|0.0|0.0|10,"Sector"|""|0|0|10,"SectorTime"|"Min"|0.0|0.0|10,"ElapsedTime"|"Min"|0.0|0.0|10,"CurrentLap"|""|0|0|10,"Distance"|"km"|0.0|0.0|10,"SessionTime"|"Min"|0.0|0.0|10
12664,1564156367911,2,2.4,1.16,0.56,1.43,1.11,0.75,-0.71,0.73,24,-1,37,1.03,8668,39,112,43,52,1018,464.0,512,463,60,119.0,201,1,386,280,93,0,0,470,26704,-9203,464,-5.59,,,,,,,,,,,,
12684,1564156367931,-1,2.36,1.16,0.55,1.42,1.1,0.76,-0.64,0.69,22,-2,36,0.99,8708,39,112,43,52,1019,463.0,511,466,60,121.0,200,1,387,282,93,0,0,464,16648,16408,463,-5.59,,,,,,,,,,,,
12704,1564156367951,-1,2.31,1.15,0.54,1.41,1.1,0.67,-0.6,0.71,19,-2,33,0.89,8773,39,112,43,52,1022,463.0,515,469,60,120.0,200,1,387,283,93,0,0,468,-3267,10432,463,-5.59,,,,,,,,,,,,
12724,1564156367971,-1,2.26,1.13,0.53,1.39,1.1,0.56,-0.52,0.8,16,-2,31,0.77,8811,39,112,43,52,1030,462.0,517,465,60,121.0,200,1,388,285,93,0,0,466,-8985,30272,463,-5.59,,,,,,,,,,,,
12744,1564156367991,2,2.23,1.08,0.52,1.36,1.08,0.54,-0.42,0.71,13,-2,29,0.68,8856,39,112,43,51,1039,460.0,532,465,60,121.0,200,1,385,286,93,0,0,473,-23623,30272,460,-5.59,44.680973,10.024961,44.55,176.5,0,0.0,-1,0.0,0.0,0,0.1,0.2124
12764,1564156368001,2,2.19,0.99,0.49,1.29,1.02,0.52,-0.25,0.58,10,-4,27,0.58,8886,39,112,43,52,1047,465.0,532,463,60,120.0,200,1,389,287,93,0,0,476,30272,8488,460,-5.59,,,,,,,,,,,,
12784,1564156368021,2,2.15,0.76,0.42,1.15,0.92,0.66,-0.21,0.48,6,-6,25,0.69,8898,40,111,43,52,1054,470.0,537,463,60,120.0,200,1,389,286,92,0,0,478,8488,-9203,457,-5.59,,,,,,,,,,,,
12804,1564156368041,2,2.12,0.54,0.34,1.02,0.82,0.78,-0.17,0.48,3,-7,21,0.8,8915,40,111,43,51,1054,473.0,528,463,60,119.0,200,1,386,277,92,0,0,485,-23367,3576,455,-5.59,,,,,,,,,,,,
12824,1564156368061,1,2.08,0.45,0.3,0.95,0.77,0.9,-0.28,0.51,-1,-8,16,0.95,8932,32,110,43,51,1055,478.0,536,460,60,119.0,200,1,386,278,92,0,0,484,16648,16648,456,-5.59,,,,,,,,,,,,
12844,1564156368091,0,2.07,0.43,0.29,0.93,0.77,1.02,-0.33,0.55,-4,-8,12,1.07,8975,14,111,43,51,1048,479.0,526,461,60,120.0,200,1,386,272,92,0,0,486,10305,10305,455,-5.59,44.680969,10.02493,45.97,176.5,0,0.0,-1,0.0,0.0,0,0.1,0.2141
12864,1564156368111,2,2.05,0.44,0.29,0.95,0.76,1.12,-0.5,0.57,-8,-8,8,1.22,9023,40,110,43,51,1041,482.0,531,463,60,120.0,200,1,387,192,92,0,0,491,3580,8488,455,-5.59,,,,,,,,,,,,
12884,1564156368131,2,2.03,0.46,0.29,0.95,0.76,1.2,-0.56,0.65,-10,-9,3,1.33,9088,40,110,43,51,1031,484.0,528,466,60,119.0,235,1,387,311,107,0,0,487,-10483,-6656,452,-5.59,,,,,,,,,,,,
12904,1564156368151,2,2.03,0.47,0.29,0.95,0.76,1.28,-0.69,0.7,-13,-10,0,1.46,9191,40,110,43,50,1022,482.0,532,462,60,120.0,235,1,384,297,107,0,0,490,-899,771,450,-5.59,,,,,,,,,,,,
12924,1564156368171,-0,2.04,0.47,0.29,0.93,0.77,1.28,-0.47,0.65,-15,-11,-3,1.36,9305,40,110,43,50,1018,483.0,540,466,60,121.0,235,1,386,294,107,0,0,494,3580,11560,450,-5.59,,,,,,,,,,,,
12944,1564156368191,-0,2.04,0.49,0.29,0.94,0.77,1.11,-0.22,0.45,-16,-8,-4,1.14,9436,40,110,43,49,1015,488.0,549,467,60,121.0,235,1,384,279,107,0,0,492,248,-14,450,-5.59,44.680969,10.02493,45.97,176.5,0,0.0,-1,0.0,0.0,0,0.1,0.2157
12964,1564156368209,2,2.04,0.5,0.3,0.94,0.78,1.12,-0.2,0.5,-18,-9,-8,1.14,9537,40,110,43,49,1026,489.0,558,465,60,119.0,235,1,385,273,107,0,0,496,-6656,-32248,449,-5.59,,,,,,,,,,,,
12984,1564156368229,0,2.03,0.51,0.31,0.95,0.78,1.12,-0.13,0.55,-20,-7,-12,1.13,9605,39,110,43,48,1037,493.0,568,461,60,119.0,218,1,382,260,98,0,0,503,-6528,-32248,450,-5.59,,,,,,,,,,,,
13004,1564156368249,2,2.03,0.52,0.31,0.94,0.8,0.95,0.08,0.5,-22,-4,-15,0.95,9595,39,110,42,48,1050,495.0,587,468,60,120.0,218,1,382,259,98,0,0,507,771,-3856,450,-5.59,,,,,,,,,,,,
13024,1564156368269,2,2.03,0.52,0.31,0.94,0.8,1.0,0.07,0.55,-23,-4,-18,1.0,9571,35,110,42,48,1065,499.0,577,468,60,120.0,218,1,382,259,98,0,0,511,3,26178,447,-5.59,,,,,,,,,,,,
13044,1564156368291,-1,2.04,0.52,0.31,0.94,0.8,0.97,0.26,0.57,-24,-4,-20,1.01,9498,40,110,42,48,1069,497.0,583,456,60,120.0,218,1,382,257,98,0,0,512,3,10994,451,-5.59,44.680965,10.024898,46.09,176.5,0,0.0,-1,0.0,0.0,0,0.1,0.2174
13064,1564156368311,-0,2.03,0.54,0.32,0.95,0.8,0.9,0.44,0.56,-26,-3,-22,1.0,9445,37,110,42,47,1071,501.0,563,470,60,120.0,218,1,378,257,98,0,0,510,11560,-22519,450,-5.59,,,,,,,,,,,,
13084,1564156368331,2,2.02,0.53,0.31,0.96,0.8,0.84,0.24,0.61,-28,-3,-26,0.88,9346,38,110,42,48,1063,500.0,571,465,60,119.0,200,1,379,255,90,0,0,505,10408,6274,450,-5.59,,,,,,,,,,,,
13104,1564156368351,-1,2.02,0.54,0.31,0.96,0.8,0.92,0.29,0.56,-27,-3,-27,0.97,9346,33,110,42,48,1050,497.0,546,463,60,119.0,200,1,379,255,90,0,0,509,-9216,10994,449,-5.59,,,,,,,,,,,,
13124,1564156368371,0,2.02,0.54,0.3,0.97,0.8,0.91,0.47,0.49,-27,-5,-27,1.02,9370,40,110,42,48,1044,498.0,549,459,60,120.0,200,1,380,255,90,0,0,508,2524,-3414,448,-5.59,,,,,,,,,,,,
13144,1564156368391,1,2.02,0.53,0.3,0.96,0.8,0.76,0.62,0.39,-28,-4,-29,0.98,9455,40,110,42,48,1039,497.0,551,462,60,120.0,200,1,382,257,90,0,0,505,-9216,15661,452,-5.59,44.680965,10.024881,46.65,176.5,0,0.0,-1,0.0,0.0,0,0.1,0.2191
13164,1564156368411,2,2.02,0.54,0.31,0.96,0.8,0.87,0.5,0.49,-29,-5,-31,1.0,9493,38,110,42,48,1040,497.0,556,473,60,120.0,200,1,382,257,90,0,0,506,-9216,-3482,453,-5.59,,,,,,,,,,,,
13184,1564156368431,-1,2.03,0.55,0.31,0.96,0.8,0.9,0.65,0.51,-29,-3,-30,1.11,9546,39,110,42,48,1048,501.0,573,466,60,120.0,203,1,382,258,93,0,0,507,2109,6274,453,-5.59,,,,,,,,,,,,
13204,1564156368451,0,2.02,0.56,0.31,0.97,0.8,0.84,0.79,0.49,-31,-5,-32,1.15,9576,38,110,42,48,1064,502.0,573,468,60,119.0,203,1,382,259,93,0,0,510,15661,17136,456,-5.59,,,,,,,,,,,,
13224,1564156368471,0,2.02,0.56,0.31,0.98,0.81,0.96,0.56,0.64,-32,-4,-34,1.11,9561,37,110,42,48,1085,504.0,578,460,60,120.0,203,1,382,259,93,0,0,510,-32248,2524,453,-5.59,,,,,,,,,,,,
13244,1564156368491,1,2.03,0.56,0.31,0.98,0.8,0.81,0.7,0.53,-31,-3,-34,1.07,9640,40,110,42,48,1102,502.0,581,465,60,120.0,203,1,382,260,93,0,0,507,15661,2104,453,-5.59,44.680965,10.024881,46.65,176.5,0,0.0,-1,0.0,0.0,0,0.1,0.2207
13264,1564156368507,-0,2.02,0.56,0.31,0.97,0.8,0.84,0.66,0.58,-32,-3,-37,1.07,9775,37,109,42,48,1115,500.0,596,465,60,120.0,203,1,382,261,93,0,0,505,10408,-28648,454,-5.59,,,,,,,,,,,,
13284,1564156368527,1,2.04,0.57,0.31,0.98,0.8,0.76,0.8,0.49,-32,-1,-37,1.1,9868,40,109,42,48,1129,498.0,583,465,60,120.0,214,1,382,262,97,0,0,512,2524,6274,454,-5.59,,,,,,,,,,,,
13304,1564156368547,0,2.03,0.58,0.31,0.99,0.81,0.81,0.8,0.51,-33,-1,-38,1.13,9889,36,109,42,47,1145,504.0,581,465,60,120.0,214,1,380,252,97,0,0,515,-32248,-506,455,-5.59,,,,,,,,,,,,
13324,1564156368567,2,2.03,0.58,0.32,0.99,0.8,0.81,0.92,0.56,-33,-3,-39,1.23,9920,35,109,42,47,1156,502.0,576,470,60,120.0,214,1,380,263,97,0,0,513,-32248,-506,453,-5.59,,,,,,,,,,,,
13344,1564156368587,1,2.04,0.59,0.32,0.99,0.82,0.74,1.03,0.56,-34,-1,-38,1.27,9978,37,109,42,47,1158,504.0,578,463,60,119.0,214,1,380,264,97,0,0,517,-32248,-9072,452,-5.59,44.680958,10.024866,47.04,176.5,0,0.0,-1,0.0,0.0,0,0.1,0.2224
13364,1564156368604,-1,2.06,0.59,0.32,1.0,0.82,0.83,1.05,0.58,-34,-1,-40,1.34,9952,40,109,42,47,1156,506.0,586,458,60,120.0,214,1,380,264,97,0,0,516,6274,-28648,452,-5.59,,,,,,,,,,,,
13384,1564156368624,1,2.07,0.6,0.32,1.0,0.81,0.8,1.15,0.61,-33,-4,-41,1.4,9973,40,109,42,48,1148,502.0,581,462,60,120.0,221,1,382,265,100,0,0,511,15661,-23623,452,-5.59,,,,,,,,,,,,
13404,1564156368644,2,2.08,0.61,0.33,1.01,0.83,0.77,1.24,0.58,-32,-1,-40,1.45,10064,40,109,42,47,1139,499.0,601,461,60,120.0,221,1,380,256,100,0,0,512,-22519,-28648,452,-5.59,,,,,,,,,,,,
13424,1564156368664,1,2.1,0.62,0.33,1.02,0.83,0.82,1.31,0.58,-32,-5,-40,1.55,10037,39,109,42,48,1128,502.0,596,467,60,120.0,221,1,382,265,100,0,0,516,15661,-8962,456,-5.59,,,,,,,,,,,,
13444,1564156368684,2,2.12,0.62,0.34,1.02,0.83,0.8,1.38,0.65,-31,-5,-40,1.6,10048,39,109,42,48,1114,502.0,591,469,60,119.0,221,1,382,265,100,0,0,517,15661,-22519,454,-5.59,44.68095,10.024852,46.66,176.5,0,0.0,-1,0.0,0.0,0,0.11,0.2241
13464,1564156368704,2,2.14,0.63,0.33,1.03,0.83,0.74,1.44,0.6,-31,-1,-40,1.62,10026,39,109,42,48,1094,507.0,592,471,60,120.0,221,1,382,265,100,0,0,523,-21872,-506,456,-5.59,,,,,,,,,,,,
13484,1564156368724,1,2.17,0.64,0.34,1.03,0.85,0.77,1.41,0.59,-30,-3,-41,1.61,9936,36,109,42,48,1077,511.0,590,464,60,121.0,215,1,382,263,99,0,0,523,-3856,6274,458,-5.59,,,,,,,,,,,,
13504,1564156368744,2,2.18,0.66,0.34,1.03,0.85,0.78,1.47,0.69,-30,-3,-41,1.67,9873,37,109,42,48,1068,510.0,586,464,60,119.0,215,1,382,263,99,0,0,530,-4054,-4054,457,-5.59,,,,,,,,,,,,
13524,1564156368764,1,2.2,0.67,0.35,1.05,0.85,0.84,1.38,0.7,-29,-4,-40,1.62,9786,37,109,42,48,1059,509.0,577,465,60,121.0,215,1,382,261,99,0,0,525,-4054,-14,459,-5.59,,,,,,,,,,,,
13544,1564156368784,1,2.21,0.68,0.35,1.05,0.86,0.77,1.44,0.69,-28,-3,-39,1.64,9595,33,109,42,48,1047,511.0,567,470,60,119.0,215,1,382,260,99,0,0,523,10994,-28648,461,-5.59,44.680946,10.024838,47.02,176.6,0,0.0,-1,0.0,0.0,0,0.11,0.2257
13564,1564156368806,0,2.24,0.69,0.35,1.07,0.86,0.85,1.18,0.81,-27,-5,-39,1.46,9566,40,109,42,48,1036,509.0,562,470,60,119.0,215,1,382,258,99,0,0,518,-21872,-21872,462,-5.59,,,,,,,,,,,,
13584,1564156368826,1,2.27,0.71,0.36,1.09,0.87,0.66,1.27,0.69,-23,-2,-37,1.43,9527,38,109,42,48,1034,507.0,567,471,60,120.0,199,1,382,257,93,0,0,518,-28648,-28648,471,-5.59,,,,,,,,,,,,
13604,1564156368846,2,2.31,0.75,0.38,1.11,0.89,0.64,1.21,0.72,-21,-7,-36,1.37,9493,39,109,42,48,1031,504.0,557,475,60,120.0,199,1,382,256,93,0,0,512,-32248,-4054,479,-5.59,,,,,,,,,,,,
13624,1564156368866,-0,2.34,0.81,0.39,1.17,0.92,0.78,1.04,0.82,-18,-8,-34,1.3,9522,40,109,42,48,1029,501.0,557,461,60,121.0,199,1,382,257,93,0,0,512,11560,-28648,493,-5.59,,,,,,,,,,,,
13644,1564156368886,1,2.38,0.89,0.42,1.24,0.96,0.68,0.97,0.78,-14,-6,-33,1.19,9522,31,108,42,48,1026,503.0,558,471,60,120.0,199,1,382,257,93,0,0,509,2109,-3414,497,-5.59,44.680939,10.024826,47.53,176.6,0,0.0,-1,0.0,0.0,0,0.11,0.2274
13664,1564156368910,2,2.41,1.01,0.46,1.31,1.01,0.61,0.75,0.83,-11,-6,-30,0.97,9541,40,108,42,48,1027,501.0,556,467,60,118.0,199,1,382,257,93,0,0,511,10408,10994,501,-5.59,,,,,,,,,,,,
13684,1564156368930,-1,2.44,1.11,0.48,1.37,1.05,0.66,0.69,0.7,-8,-7,-28,0.95,9503,40,108,42,48,1027,503.0,552,462,60,120.0,181,1,382,257,92,0,0,514,2524,1248,503,-5.59,,,,,,,,,,,,
13704,1564156368950,2,2.46,1.16,0.51,1.4,1.09,0.63,0.58,0.71,-5,-7,-25,0.86,9546,40,108,42,48,1048,509.0,545,467,60,120.0,181,1,382,257,92,0,0,513,3,-3482,509,-5.59,,,,,,,,,,,,
13724,1564156368970,2,2.48,1.18,0.54,1.42,1.11,0.73,0.4,0.68,-3,-6,-20,0.83,9679,40,108,42,48,1070,513.0,550,464,60,119.0,181,1,382,260,92,0,0,518,2524,2088,513,-5.59,,,,,,,,,,,,
13744,1564156368990,1,2.51,1.19,0.54,1.43,1.11,0.61,0.24,0.67,0,-2,-19,0.66,9755,40,108,42,48,1092,517.0,550,465,60,120.0,181,1,382,261,92,0,0,514,771,-22519,517,-5.59,44.680927,10.024815,48.5,176.7,0,0.0,-1,0.0,0.0,0,0.11,0.2291
13764,1564156369000,2,2.54,1.2,0.54,1.44,1.11,0.64,0.22,0.65,3,-2,-12,0.68,9770,40,108,42,47,1113,519.0,546,467,60,120.0,181,1,380,250,92,0,0,521,-9216,-9212,519,-5.59,,,,,,,,,,,,
13784,1564156369020,2,2.57,1.19,0.54,1.44,1.11,0.56,0.09,0.74,5,2,-9,0.56,9806,40,108,42,47,1122,520.0,547,472,60,121.0,178,1,380,166,93,0,0,524,-6528,-22519,520,-5.59,,,,,,,,,,,,
13804,1564156369040,-1,2.61,1.19,0.54,1.44,1.1,0.64,0.04,0.57,7,2,-5,0.64,9858,40,108,42,47,1131,522.0,553,468,60,120.0,178,1,380,252,93,0,0,524,-6656,-32248,522,-5.59,,,,,,,,,,,,
13824,1564156369060,2,2.64,1.17,0.53,1.42,1.1,0.62,-0.1,0.71,9,2,-1,0.63,9873,40,108,42,47,1123,519.0,556,471,60,120.0,178,1,380,252,93,0,0,532,248,2088,519,-5.59,,,,,,,,,,,,
13844,1564156369092,0,2.69,1.16,0.52,1.42,1.08,0.67,-0.18,0.54,11,0,3,0.7,9878,40,108,42,47,1111,519.0,554,465,60,120.0,178,1,380,252,93,0,0,542,-6656,2088,519,-5.59,44.680908,10.024792,50.28,176.8,0,0.0,-1,0.0,0.0,0,0.11,0.2307
13864,1564156369112,3,2.72,1.17,0.52,1.43,1.08,0.79,-0.2,0.52,12,-2,7,0.81,9989,40,108,42,47,1087,521.0,556,470,60,119.0,178,1,380,254,93,0,0,527,505,14504,521,-5.59,,,,,,,,,,,,
13884,1564156369132,1,2.74,1.17,0.52,1.42,1.08,0.77,-0.31,0.56,14,-1,10,0.83,10048,40,108,42,47,1061,523.0,566,464,60,121.0,183,1,380,256,96,0,0,551,-6656,14504,523,-5.59,,,,,,,,,,,,
13904,1564156369152,2,2.74,1.17,0.52,1.42,1.08,0.77,-0.36,0.35,16,-1,14,0.85,10080,40,108,42,47,1044,523.0,564,469,60,119.0,183,1,380,256,96,0,0,576,-10483,6274,523,-5.59,,,,,,,,,,,,
13924,1564156369172,-0,2.75,1.17,0.52,1.42,1.08,0.77,-0.37,0.24,17,-2,17,0.86,10257,40,108,42,47,1031,523.0,572,472,60,119.0,183,1,380,256,96,0,0,573,32033,-8186,523,-5.59,,,,,,,,,,,,
13944,1564156369192,-1,2.75,1.17,0.51,1.42,1.08,0.75,-0.44,0.23,19,-2,20,0.87,10353,40,108,42,47,1020,523.0,572,470,60,119.0,183,1,380,266,96,0,0,571,32033,-9072,523,-5.59,44.680908,10.024792,50.28,176.8,0,0.0,-1,0.0,0.0,0,0.11,0.2324
13964,1564156369210,-1,2.74,1.17,0.52,1.43,1.07,0.78,-0.46,0.23,21,-2,24,0.9,10521,40,108,42,48,1010,522.0,572,466,60,119.0,183,1,382,266,96,0,0,571,8488,-2934,522,-5.59,,,,,,,,,,,,
13984,1564156369230,-0,2.73,1.16,0.52,1.42,1.07,0.79,-0.52,0.3,24,-2,27,0.95,10569,40,108,42,48,1007,524.0,577,470,60,119.0,202,1,382,266,106,0,0,573,16648,-28648,524,-5.59,,,,,,,,,,,,
14004,1564156369250,-0,2.74,1.17,0.51,1.43,1.07,0.86,-0.55,0.28,25,-3,31,1.02,10533,40,107,42,48,1009,525.0,579,472,60,119.0,202,1,382,266,106,0,0,580,-17956,-2336,525,-5.59,,,,,,,,,,,,
14024,1564156369270,-1,2.73,1.17,0.52,1.43,1.07,0.87,-0.61,0.21,27,-4,33,1.06,10445,40,107,42,48,999,526.0,582,466,60,119.0,202,1,382,265,106,0,0,603,-23367,-30064,526,-5.59,,,,,,,,,,,,
14044,1564156369290,-0,2.72,1.17,0.51,1.42,1.08,0.95,-0.65,0.21,29,-6,35,1.15,10557,40,107,42,48,982,524.0,581,465,60,119.0,202,1,382,265,106,0,0,599,-9203,6274,524,-5.59,44.680901,10.024779,50.59,176.8,0,0.0,-1,0.0,0.0,0,0.11,0.2341
14064,1564156369310,1,2.71,1.16,0.51,1.43,1.07,0.99,-0.64,0.14,31,-8,38,1.18,10575,40,107,42,49,965,522.0,459,465,60,120.0,202,1,385,265,106,0,0,609,-17956,-2336,522,-5.59,,,,,,,,,,,,
14084,1564156369330,2,2.7,1.16,0.51,1.43,1.07,0.98,-0.61,0.14,31,-9,40,1.15,10702,40,107,42,49,945,520.0,372,472,60,119.0,206,1,385,279,107,0,0,617,3576,-28648,520,-5.59,,,,,,,,,,,,
14104,1564156369350,1,2.69,1.17,0.51,1.42,1.07,0.92,-0.61,-0.02,33,-8,39,1.1,10720,40,107,42,48,920,517.0,343,466,60,119.0,206,1,382,266,107,0,0,617,-23367,2524,517,-5.59,,,,,,,,,,,,
14124,1564156369370,1,2.69,1.17,0.52,1.42,1.07,0.97,-0.75,-0.0,34,-8,38,1.23,10825,40,107,42,49,889,521.0,330,468,60,120.0,206,1,385,279,107,0,0,630,-9203,14504,521,-5.59,,,,,,,,,,,,
14144,1564156369390,-0,2.67,1.17,0.51,1.43,1.07,0.97,-0.87,0.17,34,-7,37,1.31,10825,40,107,42,48,867,519.0,341,469,60,120.0,206,1,382,279,107,0,0,631,-17956,2524,519,-5.59,44.680893,10.024766,50.42,176.9,0,0.0,-1,0.0,0.0,0,0.12,0.2357
14164,1564156369410,1,2.66,1.18,0.51,1.43,1.07,0.88,-0.88,0.21,35,-5,39,1.25,10901,40,107,42,48,856,523.0,337,472,60,119.0,206,1,382,266,107,0,0,647,3576,-22519,523,-5.59,,,,,,,,,,,,
14184,1564156369430,3,2.63,1.17,0.51,1.43,1.06,0.85,-0.82,0.13,36,-5,40,1.18,11009,40,107,42,48,845,522.0,329,471,60,119.0,210,1,382,280,110,0,0,646,-9203,6274,522,-5.59,,,,,,,,,,,,
14204,1564156369450,-1,2.63,1.16,0.51,1.42,1.06,0.89,-0.94,0.31,36,-4,40,1.29,11016,40,107,42,48,832,522.0,323,469,60,119.0,210,1,382,266,110,0,0,649,-17956,6274,522,-5.59,,,,,,,,,,,,
14224,1564156369470,-2,2.62,1.16,0.51,1.42,1.06,0.85,-0.88,0.27,36,-4,42,1.22,11094,40,107,42,48,822,522.0,328,468,60,120.0,210,1,382,266,110,0,0,662,8488,2524,522,-5.59,,,,,,,,,,,,
14244,1564156369490,3,2.6,1.16,0.51,1.42,1.06,0.88,-0.96,0.26,36,-4,41,1.3,11134,40,107,42,48,821,521.0,321,468,60,120.0,210,1,382,254,110,0,0,667,8488,2088,521,-5.59,44.680885,10.024752,50.66,176.9,0,0.0,-1,0.0,0.0,0,0.12,0.2374
14264,1564156369508,2,2.6,1.16,0.51,1.42,1.06,0.93,-0.97,0.23,37,-5,44,1.34,11200,40,107,42,48,818,522.0,323,467,60,120.0,210,1,382,266,110,0,0,670,32033,-22519,521,-5.59,,,,,,,,,,,,
14284,1564156369528,3,2.6,1.15,0.51,1.42,1.06,0.9,-1.05,0.14,37,-2,42,1.38,11214,40,107,42,47,815,521.0,325,470,60,121.0,216,1,380,254,113,0,0,675,10432,-9212,520,-5.59,,,,,,,,,,,,
14304,1564156369548,-1,2.61,1.16,0.51,1.43,1.07,0.89,-1.07,0.23,37,-2,43,1.39,11301,40,107,42,47,813,1101.0,325,471,60,120.0,216,1,380,254,113,0,0,1113,3,-9212,1117,-5.59,,,,,,,,,,,,
14324,1564156369568,-1,2.61,1.17,0.51,1.42,1.07,0.9,-1.16,0.14,38,-2,42,1.47,11261,40,107,42,47,812,514.0,314,467,60,122.0,216,1,380,254,113,0,0,1113,-3210,-9212,514,181.28,,,,,,,,,,,,
14344,1564156369588,-0,2.6,1.16,0.51,1.43,1.07,0.91,-1.24,0.33,37,-2,42,1.54,10952,40,107,42,48,814,514.0,308,463,60,123.0,216,1,382,266,113,0,0,1113,-3210,26178,514,181.28,44.680878,10.024736,50.35,176.9,0,0.0,-1,0.0,0.0,0,0.12,0.2391
14364,1564156369606,-2,2.62,1.17,0.51,1.43,1.06,0.92,-1.27,0.3,37,-3,43,1.56,10695,40,107,42,49,822,512.0,307,463,60,122.0,216,1,385,279,113,0,0,1113,-3210,1341,512,-5.59,,,,,,,,,,,,
14384,1564156369626,2,2.61,1.17,0.51,1.43,1.06,0.97,-1.23,0.33,37,-4,44,1.56,10623,40,107,42,51,831,510.0,308,461,60,120.0,225,1,391,288,115,0,0,670,16408,1248,510,-5.59,,,,,,,,,,,,
14404,1564156369646,-2,2.61,1.17,0.51,1.42,1.07,0.99,-1.15,0.3,37,-4,46,1.52,10653,40,107,42,51,840,508.0,307,471,60,120.0,225,1,391,290,115,0,0,666,30272,-21872,508,-5.59,,,,,,,,,,,,
14424,1564156369666,-1,2.62,1.17,0.51,1.43,1.07,0.97,-1.14,0.12,36,-5,46,1.5,10751,40,106,42,50,855,506.0,310,470,60,120.0,225,1,388,290,115,0,0,664,6193,-14,506,-5.59,,,,,,,,,,,,
14444,1564156369686,1,2.61,1.17,0.51,1.43,1.08,0.98,-1.22,0.19,36,-3,44,1.57,10738,40,106,42,50,894,506.0,320,467,60,120.0,225,1,388,290,115,0,0,664,16408,-3856,506,-5.59,44.680874,10.02472,49.89,176.9,0,0.0,-1,0.0,0.0,0,0.12,0.2407
14464,1564156369705,1,2.6,1.17,0.51,1.43,1.07,0.9,-1.3,0.31,36,-3,43,1.58,10913,40,106,42,49,932,506.0,319,465,60,121.0,225,1,385,280,115,0,0,653,6193,-21872,506,-5.59,,,,,,,,,,,,
14484,1564156369725,1,2.59,1.16,0.52,1.42,1.08,0.93,-1.2,0.31,35,-5,45,1.52,11029,40,106,42,49,961,508.0,321,465,60,120.0,230,1,385,280,117,0,0,656,6193,-32248,508,-5.59,,,,,,,,,,,,
14504,1564156369745,1,2.55,1.17,0.52,1.43,1.07,0.94,-1.2,0.27,35,-3,44,1.52,11048,40,106,42,49,989,507.0,336,470,60,121.0,230,1,385,280,117,0,0,646,2211,26178,507,-5.59,,,,,,,,,,,,
14524,1564156369765,0,2.54,1.16,0.52,1.42,1.08,0.87,-1.21,0.4,35,-1,45,1.49,11207,40,106,42,48,985,505.0,330,472,60,120.0,230,1,382,266,117,0,0,644,2211,-3414,508,-5.59,,,,,,,,,,,,
14544,1564156369785,1,2.52,1.16,0.51,1.43,1.06,0.86,-1.18,0.31,34,-1,45,1.47,11308,40,106,42,48,980,504.0,342,471,60,120.0,230,1,382,266,117,0,0,639,-18108,16383,504,-5.59,44.680866,10.024703,49.7,176.9,0,0.0,-1,0.0,0.0,0,0.12,0.2424
14564,1564156369805,0,2.51,1.16,0.52,1.43,1.06,0.83,-1.16,0.36,32,-1,46,1.43,11288,40,106,42,48,946,505.0,337,469,60,120.0,230,1,382,266,117,0,0,633,-18108,11560,505,-5.59,,,,,,,,,,,,
14584,1564156369825,2,2.49,1.16,0.51,1.43,1.07,0.86,-1.23,0.45,31,1,44,1.5,11336,40,106,42,47,911,503.0,333,467,60,120.0,216,1,380,254,109,0,0,643,2211,26178,503,-5.59,,,,,,,,,,,,
14604,1564156369845,1,2.48,1.16,0.52,1.43,1.08,0.77,-1.19,0.52,31,3,44,1.41,11147,40,106,42,47,883,508.0,328,468,60,120.0,216,1,380,251,109,0,0,614,243,-30064,508,-5.59,,,,,,,,,,,,
14624,1564156369865,2,2.48,1.17,0.53,1.42,1.09,0.72,-1.07,0.49,31,3,43,1.29,10838,40,106,42,47,856,508.0,337,464,60,120.0,216,1,380,254,109,0,0,554,8488,-8962,508,-5.59,,,,,,,,,,,,
14644,1564156369891,-0,2.49,1.17,0.54,1.43,1.1,0.69,-1.04,0.51,31,5,43,1.25,10296,40,106,42,48,856,514.0,322,463,60,121.0,216,1,382,264,109,0,0,563,3576,-30159,514,-5.59,44.680866,10.024668,48.22,176.9,0,0.0,-1,0.0,0.0,0,0.12,0.2441
14664,1564156369911,2,2.5,1.17,0.53,1.43,1.09,0.67,-0.97,0.63,30,3,43,1.18,9873,40,106,42,48,864,518.0,316,467,60,121.0,216,1,382,260,109,0,0,537,32033,2104,518,-5.59,,,,,,,,,,,,
14684,1564156369931,-1,2.53,1.17,0.53,1.43,1.09,0.7,-1.01,0.46,29,-2,40,1.23,9620,40,106,42,48,878,517.0,318,463,60,121.0,182,1,382,257,94,0,0,508,-9203,-30064,517,-5.59,,,,,,,,,,,,
14704,1564156369951,-0,2.54,1.17,0.53,1.44,1.09,0.72,-1.06,0.59,28,-4,37,1.28,9412,39,106,42,48,893,516.0,322,463,60,121.0,182,1,381,254,94,0,0,525,16648,6274,516,-5.59,,,,,,,,,,,,
14724,1564156369971,1,2.57,1.17,0.53,1.43,1.09,0.68,-1.09,0.73,28,-6,36,1.28,9227,33,106,42,47,902,515.0,324,465,60,120.0,182,1,374,240,94,0,0,514,-6656,6274,515,-5.59,,,,,,,,,,,,
14744,1564156369991,1,2.59,1.16,0.52,1.42,1.08,0.72,-1.11,0.82,27,-7,35,1.32,9268,27,106,42,45,909,519.0,324,471,60,120.0,182,1,361,234,94,0,0,512,505,1341,519,-5.59,44.680866,10.024668,48.22,176.9,0,0.0,-1,0.0,0.0,0,0.12,0.2457
14764,1564156370001,-0,2.59,1.14,0.51,1.42,1.06,0.73,-1.04,0.69,28,-7,36,1.27,9384,24,106,42,42,921,522.0,321,460,60,120.0,182,1,341,227,94,0,0,508,-1818,6274,522,-5.59,,,,,,,,,,,,
14784,1564156370021,1,2.59,1.14,0.51,1.42,1.06,0.65,-1.03,0.65,29,-5,36,1.22,9493,23,106,42,40,935,526.0,331,468,60,121.0,152,1,327,222,80,0,0,507,505,-32248,526,-5.59,,,,,,,,,,,,
14804,1564156370041,1,2.59,1.15,0.51,1.41,1.07,0.73,-1.03,0.61,29,-4,37,1.27,9630,23,106,42,38,945,529.0,337,471,60,121.0,152,1,317,218,80,0,0,509,1,2524,529,-5.59,,,,,,,,,,,,
14824,1564156370061,-0,2.61,1.15,0.5,1.41,1.06,0.73,-1.07,0.52,30,-4,38,1.29,9704,23,106,42,37,952,531.0,352,462,60,121.0,152,1,314,216,80,0,0,508,3580,6274,531,-5.59,,,,,,,,,,,,
14844,1564156370081,2,2.61,1.14,0.51,1.41,1.07,0.75,-1.09,0.57,31,-4,38,1.33,9709,23,106,42,36,988,531.0,361,468,60,120.0,152,1,311,214,80,0,0,511,32033,-28648,531,-5.59,44.680866,10.024652,49.84,176.9,0,0.0,-1,0.0,0.0,0,0.13,0.2474
14864,1564156370109,0,2.62,1.15,0.51,1.42,1.06,0.75,-1.12,0.5,31,-3,38,1.34,9684,23,106,42,35,1034,526.0,379,467,60,121.0,152,1,308,211,80,0,0,517,32033,6274,526,-5.59,,,,,,,,,,,,
14884,1564156370129,1,2.63,1.16,0.51,1.42,1.07,0.73,-1.13,0.62,31,-2,38,1.35,9740,23,106,42,35,1078,525.0,402,467,60,120.0,148,1,308,211,78,0,0,510,10305,10408,524,-5.59,,,,,,,,,,,,
14904,1564156370149,-1,2.64,1.16,0.51,1.43,1.07,0.73,-1.17,0.54,32,-2,38,1.38,9740,23,106,42,34,1118,524.0,425,471,60,120.0,148,1,305,210,78,0,0,513,2212,-28648,522,-5.59,,,,,,,,,,,,
14924,1564156370169,2,2.63,1.15,0.52,1.42,1.07,0.69,-1.18,0.66,33,-2,38,1.37,9650,23,106,42,34,1131,522.0,447,466,60,121.0,148,1,305,209,78,0,0,505,2212,1248,521,-5.59,,,,,,,,,,,,
14944,1564156370191,-1,2.64,1.16,0.51,1.42,1.07,0.78,-1.21,0.55,33,-2,39,1.44,9645,23,106,42,34,1126,523.0,465,462,60,120.0,148,1,305,208,78,0,0,503,-17956,2088,524,-5.59,44.680866,10.024615,50.13,176.8,0,0.0,-1,0.0,0.0,0,0.13,0.2491
14964,1564156370211,2,2.64,1.15,0.52,1.42,1.08,0.83,-1.29,0.56,33,-3,40,1.53,9605,23,106,42,34,1103,522.0,440,471,60,121.0,148,1,305,208,78,0,0,505,-9203,10408,519,-5.59,,,,,,,,,,,,
14984,1564156370231,3,2.63,1.16,0.52,1.43,1.07,0.88,-1.32,0.6,33,-3,40,1.58,9600,23,106,42,33,1058,519.0,420,471,60,120.0,144,1,302,206,75,0,0,512,-1923,1341,520,-5.59,,,,,,,,,,,,
15004,1564156370251,1,2.64,1.16,0.52,1.43,1.07,0.8,-1.31,0.53,34,-4,41,1.54,9561,23,106,42,33,1005,517.0,408,470,60,121.0,144,1,302,206,75,0,0,508,-9203,1341,518,-5.59,,,,,,,,,,,,
15024,1564156370271,1,2.63,1.16,0.51,1.43,1.07,0.8,-1.34,0.62,34,-4,41,1.56,9512,23,106,42,33,943,520.0,381,468,60,120.0,144,1,302,205,75,0,0,514,-1923,1341,517,-5.59,,,,,,,,,,,,
15044,1564156370291,3,2.63,1.16,0.51,1.42,1.07,0.87,-1.32,0.55,34,-5,42,1.58,9393,23,105,42,33,896,516.0,362,471,60,120.0,144,1,302,204,75,0,0,511,8488,2524,517,-5.59,44.680866,10.024615,50.13,176.8,0,0.0,-1,0.0,0.0,0,0.13,0.2507
15064,1564156370309,-0,2.63,1.15,0.51,1.42,1.07,0.89,-1.24,0.43,34,-6,44,1.53,9337,23,105,42,33,878,518.0,344,468,60,121.0,144,1,302,201,75,0,0,518,8488,-3482,514,-5.59,,,,,,,,,,,,
15084,1564156370329,0,2.64,1.16,0.51,1.41,1.08,0.81,-1.2,0.36,34,-5,44,1.45,9250,23,105,42,33,858,513.0,333,473,60,120.0,136,1,302,200,70,0,0,513,8488,-14,513,-5.59,,,,,,,,,,,,
15104,1564156370349,-1,2.64,1.16,0.51,1.42,1.06,0.77,-1.25,0.33,34,-4,44,1.47,9155,23,105,42,33,837,515.0,325,470,60,121.0,136,1,302,198,70,0,0,515,10432,-8187,514,-5.59,,,,,,,,,,,,
15124,1564156370369,1,2.64,1.17,0.52,1.42,1.08,0.68,-1.31,0.49,34,-3,43,1.47,9137,23,105,42,33,819,513.0,322,465,60,120.0,136,1,302,197,70,0,0,514,243,26178,513,-5.59,,,,,,,,,,,,
15144,1564156370391,0,2.63,1.16,0.51,1.42,1.08,0.67,-1.35,0.56,35,-2,43,1.51,9101,23,105,42,33,815,513.0,323,474,60,120.0,136,1,302,200,70,0,0,511,12552,-21872,513,-5.59,44.680874,10.024581,49.5,176.7,0,0.0,-1,0.0,0.0,0,0.13,0.2524
15164,1564156370411,1,2.63,1.16,0.52,1.42,1.08,0.65,-1.38,0.7,36,-2,43,1.52,9213,23,105,42,34,812,516.0,341,461,60,120.0,136,1,305,203,70,0,0,481,2211,6274,516,-5.59,,,,,,,,,,,,
15184,1564156370431,2,2.63,1.16,0.51,1.42,1.08,0.78,-1.37,0.61,36,-4,44,1.58,9282,23,105,42,34,810,509.0,330,465,60,120.0,138,1,305,204,71,0,0,456,17628,-3856,509,-5.59,,,,,,,,,,,,
15204,1564156370451,-1,2.63,1.16,0.52,1.42,1.08,0.91,-1.36,0.55,36,-5,46,1.63,9286,23,105,42,34,808,508.0,337,467,60,120.0,138,1,305,204,71,0,0,447,17628,26178,508,-5.59,,,,,,,,,,,,
15224,1564156370471,0,2.61,1.16,0.51,1.43,1.07,0.91,-1.36,0.44,36,-5,45,1.64,9277,23,105,42,34,810,508.0,337,472,60,121.0,138,1,305,204,71,0,0,445,17628,-3856,508,-5.59,,,,,,,,,,,,
15244,1564156370491,1,2.61,1.16,0.51,1.42,1.08,0.85,-1.42,0.35,36,-4,46,1.66,9245,23,105,42,34,814,505.0,352,469,60,120.0,138,1,305,203,71,0,0,449,14488,-3414,505,-5.59,44.680874,10.024581,49.5,176.7,0,0.0,-1,0.0,0.0,0,0.13,0.2541
15264,1564156370509,1,2.6,1.16,0.51,1.43,1.07,0.77,-1.48,0.5,36,-3,45,1.67,9168,23,105,42,34,823,505.0,336,470,60,120.0,138,1,305,203,71,0,0,450,-26615,-32248,505,-5.59,,,,,,,,,,,,
15284,1564156370529,1,2.6,1.16,0.52,1.42,1.08,0.69,-1.49,0.65,36,-3,45,1.64,9191,23,105,42,34,833,505.0,354,465,60,120.0,136,1,305,201,69,0,0,452,-26615,-28648,503,-5.59,,,,,,,,,,,,
15304,1564156370549,2,2.59,1.16,0.52,1.42,1.08,0.7,-1.49,0.71,36,-3,44,1.64,9132,23,105,42,34,840,502.0,342,465,60,119.0,136,1,305,200,69,0,0,454,-8985,-3856,506,-5.59,,,,,,,,,,,,
15324,1564156370569,0,2.59,1.16,0.52,1.42,1.08,0.76,-1.43,0.62,36,-4,44,1.62,9124,23,105,42,34,848,503.0,335,464,60,120.0,136,1,305,200,69,0,0,455,-3267,-21872,504,-5.59,,,,,,,,,,,,
15344,1564156370589,2,2.59,1.16,0.51,1.43,1.07,0.89,-1.4,0.45,36,-4,46,1.66,9101,23,105,42,34,857,503.0,350,461,60,120.0,136,1,305,200,69,0,0,462,-6387,-22519,503,-5.59,44.680878,10.024565,48.61,176.7,0,0.0,-1,0.0,0.0,0,0.13,0.2557
15364,1564156370607,2,2.58,1.16,0.52,1.43,1.07,0.97,-1.38,0.4,36,-5,46,1.68,9101,23,105,42,34,867,501.0,332,471,60,121.0,136,1,305,200,69,0,0,458,-8985,2524,501,-5.59,,,,,,,,,,,,
15384,1564156370627,2,2.57,1.16,0.52,1.42,1.08,1.06,-1.33,0.3,36,-5,48,1.7,9097,23,105,42,34,869,499.0,326,470,60,121.0,138,1,305,199,69,0,0,462,2524,-22519,499,-5.59,,,,,,,,,,,,
15404,1564156370647,-2,2.57,1.16,0.52,1.42,1.08,1.06,-1.3,0.23,36,-6,48,1.68,9101,23,105,42,35,872,498.0,326,474,60,121.0,138,1,308,204,69,0,0,468,-8985,6274,498,-5.59,,,,,,,,,,,,
15424,1564156370667,-2,2.57,1.16,0.52,1.43,1.08,0.99,-1.24,0.19,35,-4,48,1.58,9106,23,105,42,35,877,498.0,315,471,60,121.0,138,1,308,204,69,0,0,464,-8985,-4054,500,-5.59,,,,,,,,,,,,
15444,1564156370687,-0,2.56,1.16,0.52,1.44,1.08,0.94,-1.27,0.11,35,-3,47,1.58,9101,24,105,42,35,882,496.0,322,471,60,121.0,138,1,308,204,69,0,0,472,-8985,-9216,497,-5.59,44.680885,10.02455,48.15,176.6,0,0.0,-1,0.0,0.0,0,0.13,0.2574
15464,1564156370708,-1,2.56,1.16,0.52,1.42,1.08,0.83,-1.29,0.2,35,-1,46,1.54,9101,24,105,42,35,885,495.0,315,470,60,121.0,138,1,308,204,69,0,0,475,17628,998,495,-5.59,,,,,,,,,,,,
15484,1564156370728,1,2.56,1.16,0.52,1.42,1.08,0.81,-1.36,0.36,33,-1,45,1.58,9093,24,105,42,35,887,493.0,325,466,60,120.0,141,1,308,204,70,0,0,484,14488,-9216,493,-5.59,,,,,,,,,,,,
15504,1564156370748,1,2.54,1.17,0.52,1.43,1.09,0.75,-1.42,0.52,33,1,44,1.61,9128,24,105,42,35,903,489.0,318,464,60,120.0,141,1,308,204,70,0,0,482,17628,248,489,-5.59,,,,,,,,,,,,
15524,1564156370768,1,2.54,1.17,0.52,1.43,1.08,0.73,-1.43,0.6,33,3,43,1.6,9088,24,105,42,35,919,497.0,316,463,60,119.0,141,1,308,204,70,0,0,470,-18108,-32768,497,-5.59,,,,,,,,,,,,
15544,1564156370788,1,2.54,1.16,0.52,1.43,1.09,0.73,-1.43,0.73,33,5,41,1.6,9075,24,105,42,35,934,497.0,314,466,60,120.0,141,1,308,204,70,0,0,460,14488,2524,495,-5.59,44.680889,10.024537,47.61,176.6,0,0.0,-1,0.0,0.0,0,0.13,0.2591
15564,1564156370806,1,2.54,1.17,0.53,1.43,1.08,0.82,-1.36,0.69,32,4,41,1.59,9093,24,105,42,35,948,493.0,316,464,60,119.0,141,1,308,204,70,0,0,460,-26615,3,492,-5.59,,,,,,,,,,,,
15584,1564156370826,0,2.54,1.16,0.52,1.43,1.09,0.87,-1.32,0.68,31,3,41,1.58,9084,24,105,42,35,963,492.0,319,461,60,120.0,142,1,308,203,70,0,0,463,2524,3,492,-5.59,,,,,,,,,,,,
15604,1564156370846,1,2.54,1.16,0.53,1.42,1.09,0.96,-1.26,0.59,29,0,41,1.59,9023,24,105,42,35,979,491.0,330,466,60,120.0,142,1,308,203,70,0,0,461,2524,-1562,491,-5.59,,,,,,,,,,,,
15624,1564156370866,0,2.55,1.16,0.52,1.43,1.08,0.99,-1.25,0.64,27,-0,41,1.59,8945,24,105,42,35,985,488.0,332,461,60,120.0,142,1,308,203,70,0,0,458,2524,-10483,488,-5.59,,,,,,,,,,,,
15644,1564156370892,1,2.54,1.16,0.53,1.43,1.09,1.0,-1.18,0.59,28,-3,40,1.55,8894,24,105,42,36,986,486.0,340,473,60,121.0,142,1,311,207,70,0,0,461,-26615,-1818,486,-5.59,44.680908,10.024513,46.46,176.5,0,0.0,-1,0.0,0.0,0,0.14,0.2607
15664,1564156370912,0,2.54,1.15,0.53,1.43,1.08,0.97,-1.2,0.66,29,-3,38,1.54,8836,25,105,42,36,989,484.0,341,464,60,120.0,142,1,311,207,70,0,0,463,2524,-32768,484,-5.59,,,,,,,,,,,,
15684,1564156370932,-1,2.54,1.15,0.53,1.43,1.09,0.9,-1.22,0.62,29,-3,37,1.52,8778,25,105,42,36,993,489.0,351,471,60,121.0,141,1,311,207,69,0,0,474,2524,248,489,-5.59,,,,,,,,,,,,
15704,1564156370952,-1,2.54,1.16,0.52,1.43,1.09,0.81,-1.2,0.6,29,-2,37,1.45,8802,25,105,42,37,995,492.0,366,470,60,121.0,141,1,314,209,69,0,0,481,-3267,-9216,492,-5.59,,,,,,,,,,,,
15724,1564156370972,-0,2.53,1.17,0.52,1.43,1.09,0.71,-1.17,0.57,29,-1,38,1.37,8836,25,105,42,37,997,491.0,382,467,60,121.0,141,1,314,209,69,0,0,479,3571,-6656,490,-5.59,,,,,,,,,,,,
15744,1564156370992,0,2.53,1.16,0.52,1.43,1.1,0.7,-1.1,0.59,29,-0,39,1.31,8873,25,105,42,37,1007,490.0,396,468,60,121.0,141,1,314,209,69,0,0,482,-8985,-1562,490,-5.59,44.680908,10.024513,46.46,176.5,0,0.0,-1,0.0,0.0,0,0.14,0.2624
15764,1564156371002,1,2.53,1.17,0.53,1.43,1.09,0.73,-1.08,0.61,30,0,39,1.3,8920,25,105,42,38,1023,491.0,411,465,60,120.0,141,1,317,213,69,0,0,472,-6387,-6656,491,-5.59,,,,,,,,,,,,
15784,1564156371022,2,2.53,1.17,0.53,1.44,1.1,0.81,-1.01,0.59,30,0,40,1.3,8962,25,105,42,38,1037,490.0,423,461,60,121.0,142,1,317,209,70,0,0,457,-6387,-6528,490,-5.59,,,,,,,,,,,,
15804,1564156371042,2,2.53,1.17,0.53,1.43,1.1,0.91,-0.99,0.55,30,-0,39,1.35,8979,26,105,42,37,1051,487.0,437,463,60,121.0,142,1,314,209,70,0,0,451,-6387,248,487,-5.59,,,,,,,,,,,,
15824,1564156371062,2,2.52,1.17,0.53,1.44,1.11,0.97,-0.92,0.5,30,-0,40,1.34,9014,26,105,42,37,1057,486.0,450,465,60,122.0,142,1,314,209,70,0,0,450,-3267,-1818,488,-5.59,,,,,,,,,,,,
15844,1564156371092,2,2.51,1.17,0.54,1.44,1.1,1.03,-0.87,0.47,30,-0,40,1.35,8997,26,105,42,37,1057,486.0,463,470,60,122.0,142,1,314,209,70,0,0,456,-3267,-6656,486,-5.59,44.680927,10.024494,46.47,176.5,0,0.0,-1,0.0,0.0,0,0.14,0.2641
15864,1564156371112,2,2.5,1.17,0.54,1.44,1.1,1.04,-0.8,0.48,30,1,40,1.31,8992,26,105,42,37,1051,484.0,475,468,60,122.0,142,1,314,209,70,0,0,456,3571,3580,484,-5.59,,,,,,,,,,,,
15884,1564156371132,1,2.51,1.16,0.53,1.44,1.1,1.07,-0.79,0.46,29,1,40,1.33,8967,34,105,42,38,1037,486.0,485,468,60,122.0,146,1,317,213,71,0,0,472,2524,-6441,486,-5.59,,,,,,,,,,,,
15904,1564156371152,2,2.49,1.16,0.53,1.44,1.1,1.02,-0.72,0.47,28,2,40,1.25,8971,39,105,42,42,1021,484.0,488,460,60,122.0,146,1,338,222,71,0,0,486,-9160,3580,484,-5.59,,,,,,,,,,,,
15924,1564156371172,0,2.5,1.17,0.53,1.43,1.1,1.0,-0.68,0.44,27,1,39,1.21,8975,44,105,42,46,1005,482.0,494,468,60,121.0,146,1,363,234,71,0,0,480,14488,-6441,482,-5.59,,,,,,,,,,,,
15944,1564156371192,-0,2.49,1.17,0.53,1.43,1.11,0.95,-0.64,0.42,26,1,39,1.15,9023,45,105,42,49,993,480.0,497,460,60,121.0,146,1,378,257,71,0,0,471,-26615,8488,480,-5.59,44.680939,10.024486,46.32,176.5,0,0.0,-1,0.0,0.0,0,0.14,0.2657
15964,1564156371212,0,2.49,1.17,0.54,1.44,1.11,0.9,-0.68,0.46,25,1,37,1.13,9010,48,105,42,52,991,480.0,502,465,60,121.0,146,1,391,285,71,0,0,470,2524,16648,480,-5.59,,,,,,,,,,,,
15984,1564156371232,-1,2.49,1.16,0.54,1.43,1.11,0.84,-0.61,0.52,25,1,37,1.04,9010,49,105,42,54,992,482.0,504,462,60,121.0,210,1,400,305,101,0,0,470,-9160,-6441,482,-5.59,,,,,,,,,,,,
16004,1564156371252,0,2.49,1.17,0.54,1.44,1.12,0.79,-0.6,0.58,25,0,35,1.0,8928,51,105,42,55,1003,483.0,504,470,60,121.0,210,1,398,316,101,0,0,478,14488,-6656,483,-5.59,,,,,,,,,,,,
16024,1564156371272,1,2.49,1.17,0.55,1.44,1.11,0.81,-0.57,0.68,24,0,35,0.99,8949,53,105,42,57,1014,487.0,503,465,60,121.0,210,1,399,332,101,0,0,477,14488,248,487,-5.59,,,,,,,,,,,,
16044,1564156371292,1,2.49,1.17,0.55,1.43,1.12,0.88,-0.58,0.66,24,-0,34,1.05,8932,58,105,42,59,1027,488.0,510,468,60,122.0,210,1,401,340,101,0,0,479,-23623,248,487,-5.59,44.680946,10.024479,47.15,176.5,0,0.0,-1,0.0,0.0,0,0.14,0.2674
16064,1564156371312,3,2.49,1.17,0.55,1.44,1.12,0.88,-0.52,0.61,24,2,35,1.02,8979,64,105,42,62,1049,490.0,511,463,60,120.0,210,1,401,361,101,0,0,476,2211,1,490,-5.59,,,,,,,,,,,,
16084,1564156371332,2,2.48,1.17,0.55,1.44,1.12,0.95,-0.52,0.46,24,1,35,1.09,8988,75,105,42,68,1100,488.0,512,465,60,120.0,264,1,414,390,130,0,0,473,-23623,-6528,488,-5.59,,,,,,,,,,,,
16104,1564156371352,-0,2.48,1.17,0.55,1.43,1.12,0.96,-0.49,0.41,24,2,36,1.08,9027,86,104,42,75,1149,491.0,513,468,60,121.0,264,1,413,452,130,0,0,470,-23623,-1818,491,-5.59,,,,,,,,,,,,
16124,1564156371372,0,2.48,1.16,0.55,1.44,1.11,0.99,-0.53,0.45,24,2,35,1.13,9079,96,104,42,82,1186,489.0,521,467,60,121.0,264,1,417,563,130,0,0,474,12552,-9216,488,-5.59,,,,,,,,,,,,
16144,1564156371392,1,2.49,1.17,0.55,1.44,1.12,0.88,-0.51,0.46,23,4,35,1.01,9241,100,104,42,85,1230,492.0,521,467,60,121.0,264,1,418,597,130,0,0,481,16408,-6528,492,-5.59,44.680962,10.024473,46.78,176.5,0,0.0,-1,0.0,0.0,0,0.14,0.2691
16164,1564156371412,2,2.49,1.17,0.55,1.44,1.12,0.88,-0.52,0.61,22,4,34,1.02,9498,100,104,42,86,1298,491.0,524,470,60,121.0,264,1,418,600,130,0,0,482,30272,-32248,491,-5.59,,,,,,,,,,,,
16184,1564156371432,2,2.48,1.17,0.55,1.43,1.12,0.91,-0.56,0.52,21,4,34,1.07,9791,100,104,42,86,1368,492.0,537,463,60,119.0,455,1,406,606,223,0,0,506,-16384,-22519,492,-5.59,,,,,,,,,,,,
16204,1564156371452,1,2.48,1.17,0.55,1.43,1.13,0.88,-0.55,0.66,21,5,32,1.04,9957,100,104,42,85,1400,494.0,545,468,60,119.0,455,1,397,609,223,0,0,549,-1923,26178,494,-5.59,,,,,,,,,,,,
16224,1564156371472,2,2.46,1.17,0.55,1.44,1.13,0.84,-0.56,0.79,21,5,32,1.01,10118,100,104,43,85,1432,500.0,554,466,60,120.0,455,1,404,591,223,0,0,534,-9203,2524,499,-5.59,,,,,,,,,,,,
16244,1564156371492,2,2.46,1.17,0.55,1.44,1.12,0.85,-0.69,0.73,20,6,31,1.1,10206,100,104,43,85,1440,503.0,558,467,60,120.0,455,1,410,508,223,0,0,519,16648,6274,504,-5.59,44.680962,10.024473,46.78,176.5,0,0.0,-1,0.0,0.0,0,0.14,0.2707
16264,1564156371508,1,2.44,1.17,0.56,1.44,1.12,0.88,-0.7,0.67,20,5,32,1.12,10113,100,104,43,85,1448,512.0,561,465,60,120.0,455,1,403,591,223,0,0,555,-1562,-3082,514,-5.59,,,,,,,,,,,,
16284,1564156371528,2,2.43,1.17,0.56,1.44,1.13,0.86,-0.64,0.78,20,5,32,1.07,10124,100,104,43,85,1425,516.0,561,467,60,120.0,439,1,404,591,227,0,0,544,-6528,6274,517,-5.59,,,,,,,,,,,,
16304,1564156371548,2,2.42,1.17,0.55,1.43,1.12,0.74,-0.63,0.83,19,4,31,0.97,10096,100,104,43,85,1401,521.0,562,467,60,120.0,439,1,402,591,227,0,0,530,3,-8962,522,-5.59,,,,,,,,,,,,
16324,1564156371568,2,2.42,1.17,0.55,1.43,1.12,0.65,-0.64,0.63,19,3,30,0.91,10064,100,104,43,85,1337,524.0,565,461,60,120.0,439,1,399,591,227,0,0,551,11560,2104,524,-5.59,,,,,,,,,,,,
16344,1564156371588,0,2.42,1.16,0.55,1.43,1.13,0.65,-0.65,0.62,19,1,28,0.92,10184,100,104,43,85,1273,527.0,569,462,60,120.0,439,1,408,591,227,0,0,554,-21872,-9072,528,-5.59,44.680969,10.024467,47.14,176.5,0,0.0,-1,0.0,0.0,0,0.15,0.2724
16364,1564156371610,1,2.42,1.17,0.54,1.43,1.13,0.57,-0.55,0.59,18,-0,26,0.8,10302,100,104,43,85,1228,532.0,577,464,60,120.0,439,1,414,591,227,0,0,566,-3856,-32248,532,-5.59,,,,,,,,,,,,
16384,1564156371630,-0,2.42,1.17,0.55,1.43,1.13,0.61,-0.5,0.71,17,-2,26,0.78,10486,100,104,43,85,1188,535.0,579,462,60,120.0,437,1,430,591,234,0,0,551,-14,2211,535,-5.59,,,,,,,,,,,,
16404,1564156371650,1,2.41,1.17,0.55,1.43,1.12,0.57,-0.39,0.7,16,-3,27,0.69,10557,100,104,43,85,1146,541.0,587,472,60,120.0,437,1,432,591,234,0,0,551,2524,-2934,541,-5.59,,,,,,,,,,,,
16424,1564156371670,1,2.41,1.17,0.55,1.44,1.13,0.51,-0.27,0.66,16,-3,26,0.58,10708,100,104,43,85,1104,545.0,590,470,60,120.0,437,1,436,591,234,0,0,577,6274,-8188,545,-5.59,,,,,,,,,,,,
16444,1564156371690,2,2.41,1.17,0.55,1.44,1.12,0.47,-0.22,0.59,16,-2,24,0.52,10775,100,104,43,85,1092,550.0,593,464,60,119.0,437,1,438,591,234,0,0,569,14504,-2934,550,-5.59,44.680984,10.024463,49.5,176.5,0,0.0,-1,0.0,0.0,0,0.15,0.2741
16464,1564156371709,2,2.41,1.17,0.55,1.44,1.12,0.53,-0.38,0.7,16,-1,23,0.65,10913,100,104,43,85,1089,554.0,595,463,60,120.0,437,1,441,591,234,0,0,594,6274,-16384,556,-5.59,,,,,,,,,,,,
16484,1564156371729,1,2.41,1.17,0.54,1.44,1.12,0.46,-0.39,0.83,15,-0,22,0.6,10964,100,104,43,85,1080,562.0,602,466,60,120.0,438,1,444,591,245,0,0,590,-3082,10432,562,-5.59,,,,,,,,,,,,
16504,1564156371749,3,2.4,1.17,0.55,1.44,1.13,0.48,-0.51,0.94,14,0,21,0.7,11016,100,104,43,85,1069,564.0,606,468,60,120.0,438,1,444,591,245,0,0,576,2524,-28648,564,-5.59,,,,,,,,,,,,
16524,1564156371769,3,2.4,1.17,0.55,1.44,1.12,0.52,-0.62,1.04,14,-1,19,0.81,11114,100,104,43,85,1059,568.0,613,470,60,119.0,438,1,443,591,245,0,0,597,2524,-16179,569,-5.59,,,,,,,,,,,,
16544,1564156371789,0,2.4,1.17,0.55,1.43,1.13,0.5,-0.48,0.91,14,-2,20,0.69,11107,100,104,43,85,1050,575.0,615,465,60,120.0,438,1,443,591,245,0,0,597,6273,-16179,575,-5.59,44.680996,10.024459,52.07,176.5,0,0.0,-1,0.0,0.0,0,0.15,0.2757
16564,1564156371809,2,2.39,1.17,0.55,1.44,1.12,0.53,-0.42,0.96,13,-1,18,0.67,11147,100,104,43,85,1038,579.0,619,467,60,120.0,438,1,443,591,245,0,0,605,2211,-3820,580,-5.59,,,,,,,,,,,,
16584,1564156371829,2,2.39,1.16,0.54,1.43,1.13,0.44,-0.42,1.02,13,-1,18,0.6,11261,100,104,43,85,1024,582.0,625,462,60,120.0,430,1,442,591,252,0,0,603,-8186,5344,582,-5.59,,,,,,,,,,,,
16604,1564156371849,0,2.38,1.16,0.55,1.43,1.13,0.51,-0.51,1.03,12,-1,16,0.72,11432,100,104,43,85,1015,586.0,633,464,60,120.0,430,1,441,572,252,0,0,598,1760,-30139,588,-5.59,,,,,,,,,,,,
16624,1564156371869,2,2.38,1.16,0.55,1.43,1.13,0.62,-0.62,1.12,11,-3,16,0.88,11552,100,104,43,84,1011,591.0,630,465,60,119.0,430,1,440,572,252,0,0,623,-16384,30721,591,-5.59,,,,,,,,,,,,
16644,1564156371893,2,2.37,1.17,0.55,1.43,1.13,0.56,-0.52,1.19,10,-3,17,0.77,11609,100,104,43,84,1005,594.0,624,470,60,120.0,430,1,440,574,252,0,0,619,15649,3395,597,-5.59,44.681023,10.024452,56.79,176.4,0,0.0,-1,0.0,0.0,0,0.15,0.2774
16664,1564156371913,2,2.38,1.16,0.55,1.44,1.13,0.62,-0.66,1.27,10,-0,15,0.9,11667,100,104,43,84,999,599.0,626,466,60,120.0,430,1,440,576,252,0,0,628,2048,3395,599,-5.59,,,,,,,,,,,,
16684,1564156371933,-0,2.37,1.17,0.55,1.43,1.13,0.67,-0.57,1.29,9,1,13,0.88,11748,100,104,43,84,995,606.0,628,469,60,120.0,426,1,440,578,257,0,0,631,-28648,3,606,-5.59,,,,,,,,,,,,
16704,1564156371953,-2,2.37,1.16,0.54,1.43,1.13,0.57,-0.57,1.28,9,2,10,0.81,11829,100,104,43,84,993,612.0,638,471,60,119.0,426,1,440,579,257,0,0,625,-3210,-5120,609,-5.59,,,,,,,,,,,,
16724,1564156371973,-1,2.37,1.17,0.55,1.44,1.13,0.45,-0.51,1.18,9,3,9,0.68,11882,100,104,43,84,985,614.0,633,470,60,119.0,426,1,440,581,257,0,0,641,-23055,-3584,614,-5.59,,,,,,,,,,,,
16744,1564156371993,-1,2.37,1.16,0.55,1.43,1.12,0.45,-0.54,1.15,9,1,10,0.7,11412,100,105,43,84,971,618.0,629,464,60,122.0,426,1,441,581,257,0,0,635,-23055,11776,618,181.28,44.681023,10.024452,56.79,176.4,0,0.0,-1,0.0,0.0,0,0.15,0.2791
16764,1564156372001,-0,2.36,1.16,0.55,1.43,1.12,0.38,-0.5,0.99,8,-1,7,0.63,10971,100,105,43,86,959,621.0,620,467,60,120.0,426,1,444,620,257,0,0,626,16529,16599,621,181.28,,,,,,,,,,,,
16784,1564156372021,-1,2.37,1.15,0.55,1.41,1.13,0.44,-0.54,1.04,8,-2,4,0.69,10659,100,105,43,87,946,622.0,612,461,60,120.0,418,1,437,640,260,0,0,621,1010,-18357,619,181.28,,,,,,,,,,,,
16804,1564156372041,-0,2.37,1.15,0.55,1.42,1.12,0.45,-0.6,1.12,8,-2,4,0.74,10521,100,105,43,88,938,622.0,607,461,60,120.0,418,1,434,659,260,0,0,619,1010,-16046,622,181.28,,,,,,,,,,,,
16824,1564156372061,3,2.37,1.15,0.55,1.41,1.13,0.35,-0.57,1.03,7,1,3,0.67,10296,100,105,43,88,934,619.0,594,463,60,119.0,418,1,419,1232,260,0,0,614,1010,3403,619,181.28,,,,,,,,,,,,
16844,1564156372081,2,2.37,1.15,0.55,1.41,1.12,0.16,-0.5,1.0,8,3,3,0.53,10285,100,104,43,88,931,621.0,606,458,60,119.0,418,1,418,1092,260,0,0,623,26688,11776,621,-5.59,44.681038,10.024449,58.91,176.4,0,0.0,-1,0.0,0.0,0,0.15,0.2807
16864,1564156372101,-0,2.38,1.16,0.55,1.42,1.13,0.19,-0.51,0.94,8,7,5,0.54,10059,100,104,43,87,938,625.0,590,467,60,119.0,418,1,400,954,260,0,0,737,3403,687,628,-5.59,,,,,,,,,,,,
16884,1564156372121,2,2.38,1.15,0.55,1.42,1.12,0.07,-0.44,1.0,9,9,5,0.45,9585,100,105,43,87,966,636.0,577,460,60,121.0,492,1,416,827,311,0,0,744,30721,-13580,636,-5.59,,,,,,,,,,,,
16904,1564156372141,2,2.37,1.16,0.55,1.43,1.12,0.12,-0.43,1.06,9,8,6,0.45,9412,100,104,43,88,1059,639.0,563,466,60,119.0,492,1,418,704,311,0,0,650,-1346,-26380,640,-5.59,,,,,,,,,,,,
16924,1564156372161,1,2.37,1.15,0.55,1.43,1.13,0.15,-0.39,0.99,9,7,7,0.42,9464,100,104,43,87,1151,641.0,561,461,60,119.0,492,1,418,609,311,0,0,656,-16046,8958,645,-5.59,,,,,,,,,,,,
16944,1564156372193,0,2.36,1.16,0.56,1.44,1.13,0.15,-0.35,1.04,9,7,7,0.38,9295,100,104,43,87,1237,647.0,552,461,60,120.0,492,1,418,609,311,0,0,684,-2580,-26562,649,-5.59,44.681065,10.024446,61.77,176.4,0,0.0,-1,0.0,0.0,0,0.15,0.2824
16964,1564156372213,1,2.37,1.16,0.56,1.43,1.14,0.08,-0.37,1.06,10,7,7,0.38,9159,100,104,43,87,1297,652.0,546,467,60,120.0,492,1,418,609,311,0,0,678,-10251,-26562,653,-5.59,,,,,,,,,,,,
16984,1564156372233,0,2.37,1.16,0.55,1.44,1.13,0.18,-0.43,1.06,9,7,5,0.47,9093,100,104,43,87,1274,653.0,530,467,60,120.0,319,1,418,609,209,0,0,687,-3584,-26562,659,-5.59,,,,,,,,,,,,
17004,1564156372253,2,2.37,1.15,0.55,1.43,1.14,0.1,-0.48,1.11,9,6,4,0.49,9177,100,104,43,87,1250,658.0,531,465,60,120.0,319,1,418,620,209,0,0,680,-30207,-26562,660,-5.59,,,,,,,,,,,,
17024,1564156372273,2,2.37,1.16,0.56,1.43,1.14,0.15,-0.54,1.14,9,4,4,0.56,9300,100,104,43,87,1138,661.0,535,460,60,120.0,319,1,418,609,209,0,0,682,-2830,-10399,663,-5.59,,,,,,,,,,,,
17044,1564156372293,2,2.37,1.16,0.56,1.43,1.14,0.2,-0.52,1.06,8,3,5,0.56,9450,100,104,43,87,1030,668.0,542,462,60,120.0,319,1,418,609,209,0,0,695,-26380,-10399,668,-5.59,44.681084,10.024445,64.23,176.4,0,0.0,-1,0.0,0.0,0,0.16,0.2841
17064,1564156372313,1,2.38,1.15,0.55,1.43,1.13,0.12,-0.43,0.94,8,3,6,0.45,9512,100,104,43,87,943,672.0,554,460,60,120.0,319,1,419,609,209,0,0,703,-10344,19188,672,-5.59,,,,,,,,,,,,
17084,1564156372333,2,2.37,1.16,0.55,1.43,1.13,0.07,-0.41,0.87,8,3,5,0.42,9664,100,104,43,86,856,676.0,555,469,60,120.0,324,1,411,601,219,0,0,714,-3578,24,676,-5.59,,,,,,,,,,,,
17104,1564156372353,1,2.38,1.15,0.55,1.42,1.13,0.06,-0.38,0.95,7,2,6,0.38,9720,100,104,43,86,878,683.0,571,462,60,119.0,324,1,409,602,219,0,0,704,-3038,-23490,682,-5.59,,,,,,,,,,,,
17124,1564156372373,3,2.38,1.15,0.55,1.42,1.14,0.18,-0.39,1.05,7,1,7,0.43,9720,100,104,43,86,903,689.0,575,470,60,119.0,324,1,409,603,219,0,0,718,-26562,-25858,689,-5.59,,,,,,,,,,,,
17144,1564156372393,1,2.37,1.16,0.55,1.43,1.13,0.28,-0.43,0.9,8,1,6,0.51,9735,100,104,43,86,930,691.0,573,464,60,119.0,324,1,408,603,219,0,0,705,16118,-3450,691,-5.59,44.681103,10.024444,66.41,176.4,0,0.0,-1,0.0,0.0,0,0.16,0.2857
17164,1564156372413,3,2.37,1.16,0.55,1.42,1.14,0.41,-0.43,0.94,7,1,5,0.59,9780,100,104,43,86,958,698.0,566,465,60,120.0,324,1,406,603,219,0,0,728,3543,-23490,694,-5.59,,,,,,,,,,,,
17184,1564156372433,1,2.37,1.15,0.55,1.43,1.13,0.32,-0.46,0.87,7,1,5,0.56,9821,100,104,43,86,963,700.0,563,465,60,119.0,322,1,404,606,225,0,0,722,-2830,-2830,698,-5.59,,,,,,,,,,,,
17204,1564156372453,2,2.36,1.16,0.55,1.43,1.13,0.29,-0.37,0.98,7,0,6,0.47,9847,100,104,43,86,966,703.0,564,466,60,119.0,322,1,403,607,225,0,0,725,14342,-2830,703,-5.59,,,,,,,,,,,,
17224,1564156372473,2,2.36,1.16,0.55,1.43,1.14,0.31,-0.35,1.08,8,0,5,0.47,9904,100,104,43,85,964,706.0,566,468,60,119.0,322,1,400,589,225,0,0,730,-3584,-2826,710,-5.59,,,,,,,,,,,,
17244,1564156372493,1,2.36,1.15,0.55,1.42,1.14,0.29,-0.35,1.03,8,0,5,0.45,10037,100,104,43,86,962,711.0,569,465,60,120.0,322,1,398,591,225,0,0,744,15647,-4091,711,-5.59,44.681103,10.024444,66.41,176.4,0,0.0,-1,0.0,0.0,0,0.16,0.2874
17264,1564156372509,1,2.37,1.15,0.55,1.42,1.14,0.22,-0.27,1.12,7,1,5,0.35,10129,98,104,43,86,958,717.0,563,463,60,119.0,322,1,402,610,225,0,0,742,-12152,6790,718,-5.59,,,,,,,,,,,,
17284,1564156372529,3,2.38,1.15,0.55,1.43,1.13,0.31,-0.19,1.21,7,1,6,0.36,10140,79,104,43,83,952,720.0,566,466,60,119.0,306,1,407,553,221,0,0,754,-2560,-3038,723,-5.59,,,,,,,,,,,,
17304,1564156372549,3,2.37,1.15,0.55,1.42,1.14,0.2,-0.26,1.2,8,2,5,0.33,10190,59,104,43,76,943,727.0,578,467,60,119.0,306,1,409,505,221,0,0,745,-31068,-30694,728,-5.59,,,,,,,,,,,,
17324,1564156372569,4,2.37,1.15,0.55,1.42,1.13,0.2,-0.23,1.24,7,2,4,0.3,10059,35,104,43,66,933,731.0,577,466,60,119.0,306,1,404,425,221,0,0,759,-3450,-30694,727,-5.59,,,,,,,,,,,,
17344,1564156372589,6,2.36,1.15,0.55,1.41,1.13,0.35,-0.24,1.12,7,-1,4,0.42,9941,14,104,43,55,927,729.0,576,466,60,118.0,306,1,401,337,221,0,0,745,-2830,136,729,-5.59,44.681118,10.024443,68.49,176.3,0,0.0,-1,0.0,0.0,0,0.16,0.2891
17364,1564156372608,7,2.36,1.15,0.55,1.41,1.13,0.31,-0.22,1.02,7,-2,3,0.38,9654,0,104,43,46,922,727.0,575,462,60,119.0,306,1,372,239,221,0,0,741,-2830,-31066,729,-5.59,,,,,,,,,,,,
17384,1564156372628,11,2.36,1.14,0.55,1.4,1.13,0.27,-0.15,0.8,7,-3,4,0.31,9375,0,104,43,40,912,729.0,583,465,60,120.0,108,1,327,219,79,0,0,727,-3450,-31066,729,-5.59,,,,,,,,,,,,
17404,1564156372648,13,2.36,1.14,0.55,1.41,1.12,0.44,-0.25,0.78,7,-2,3,0.51,9177,0,104,43,37,900,727.0,555,470,60,119.0,108,1,314,209,79,0,0,709,-12152,1524,727,-5.59,,,,,,,,,,,,
17424,1564156372668,13,2.37,1.13,0.53,1.39,1.11,0.32,-0.36,0.76,7,-2,3,0.48,8898,0,104,43,35,891,721.0,544,469,60,119.0,108,1,308,200,79,0,0,702,204,204,722,-5.59,,,,,,,,,,,,
17444,1564156372688,11,2.36,1.13,0.54,1.39,1.11,0.38,-0.45,0.65,7,-1,4,0.59,8765,0,104,43,33,884,720.0,529,475,60,119.0,108,1,302,193,79,0,0,687,204,204,720,-5.59,44.681133,10.024443,70.95,176.3,0,0.0,-1,0.0,0.0,0,0.16,0.2907
17464,1564156372706,9,2.37,1.12,0.54,1.38,1.11,0.35,-0.5,0.47,7,-1,3,0.61,8652,0,105,43,31,871,718.0,540,461,60,120.0,108,1,295,192,79,0,0,672,-12152,6658,716,181.28,,,,,,,,,,,,
17484,1564156372726,10,2.37,1.12,0.54,1.38,1.12,0.43,-0.5,0.41,7,-3,5,0.66,8676,0,105,43,29,853,715.0,543,460,60,121.0,88,1,287,192,63,0,0,649,11069,-2826,715,181.28,,,,,,,,,,,,
17504,1564156372746,11,2.35,1.12,0.54,1.4,1.12,0.58,-0.46,0.44,7,-1,4,0.74,8680,0,105,43,28,839,710.0,546,465,60,120.0,88,1,282,192,63,0,0,648,19188,-2830,709,181.28,,,,,,,,,,,,
17524,1564156372766,10,2.36,1.12,0.54,1.39,1.12,0.72,-0.38,0.36,7,-0,4,0.82,8676,0,105,43,27,829,705.0,550,463,60,120.0,88,1,278,192,63,0,0,658,16599,-2826,705,181.28,,,,,,,,,,,,
17544,1564156372786,12,2.35,1.13,0.54,1.4,1.11,0.79,-0.41,0.3,7,0,5,0.89,8672,0,105,42,27,822,699.0,556,461,60,119.0,88,1,278,301,63,0,0,658,-3584,-2826,698,181.28,44.681152,10.024443,72.24,176.3,0,0.0,-1,0.0,0.0,0,0.17,0.2924
17564,1564156372808,15,2.35,1.13,0.54,1.39,1.12,0.77,-0.43,0.21,7,-1,6,0.88,8684,0,104,42,27,819,696.0,553,462,60,116.0,88,1,278,276,63,0,0,654,-26562,31988,694,-5.59,,,,,,,,,,,,
17584,1564156372828,14,2.35,1.13,0.54,1.4,1.11,0.76,-0.39,0.18,6,2,5,0.85,8716,0,104,42,26,820,687.0,530,466,60,117.0,123,1,274,254,85,0,0,658,-26892,-26380,687,-5.59,,,,,,,,,,,,
17604,1564156372848,13,2.35,1.13,0.54,1.39,1.11,0.88,-0.34,0.21,6,1,5,0.94,8724,0,104,42,26,828,682.0,529,465,60,116.0,123,1,274,231,85,0,0,644,-26892,-3038,682,-5.59,,,,,,,,,,,,
17624,1564156372868,13,2.35,1.13,0.53,1.4,1.11,1.0,-0.3,0.24,6,2,4,1.04,8729,0,104,42,26,831,679.0,527,466,60,117.0,123,1,274,209,85,0,0,640,-2830,479,675,-5.59,,,,,,,,,,,,
17644,1564156372892,12,2.35,1.12,0.54,1.39,1.12,1.0,-0.3,0.2,5,1,4,1.04,8765,0,104,42,25,829,3272.0,525,470,60,118.0,123,1,270,190,85,0,0,19320,-2830,-3038,1233,-5.59,44.681187,10.024445,68.69,176.3,0,0.0,-1,0.0,0.0,0,0.17,0.2941
17664,1564156372912,14,2.35,1.11,0.53,1.39,1.11,1.0,-0.38,0.08,5,1,4,1.07,8761,0,104,42,25,826,652.0,523,467,60,119.0,123,1,270,190,85,0,0,19320,-6006,11566,652,-5.59,,,,,,,,,,,,
17684,1564156372932,14,2.35,1.12,0.54,1.4,1.12,0.88,-0.41,0.02,5,3,5,0.97,8724,0,104,42,25,816,4978.0,529,470,60,119.0,12,1,270,190,62,0,0,63,-30694,11566,4978,-5.59,,,,,,,,,,,,
17704,1564156372952,12,2.36,1.12,0.53,1.39,1.11,0.97,-0.36,0.1,5,1,6,1.04,8672,0,104,42,25,809,646.0,518,462,60,117.0,12,1,270,190,62,0,0,63,244,-3584,645,-5.59,,,,,,,,,,,,
17724,1564156372972,12,2.36,1.13,0.53,1.4,1.11,1.08,-0.34,0.24,4,1,6,1.13,8628,0,104,42,25,812,646.0,519,467,60,117.0,12,1,270,190,62,0,0,63,244,-4876,646,-5.59,,,,,,,,,,,,
17744,1564156372992,15,2.35,1.12,0.54,1.4,1.11,1.03,-0.28,0.22,4,1,5,1.07,8546,0,104,42,25,818,645.0,520,467,60,118.0,12,1,270,190,62,0,0,63,-10251,506,645,-5.59,44.681187,10.024445,68.69,176.3,0,0.0,-1,0.0,0.0,0,0.17,0.2957
17764,1564156373002,13,2.35,1.12,0.54,1.39,1.11,1.04,-0.27,0.11,4,1,5,1.08,8491,0,104,42,25,832,640.0,520,467,60,118.0,12,1,270,189,62,0,0,63,-5120,20993,640,-5.59,,,,,,,,,,,,
17784,1564156373022,14,2.35,1.11,0.53,1.39,1.11,1.14,-0.2,0.1,4,1,5,1.16,8465,0,104,42,25,845,633.0,515,472,60,118.0,92,1,270,187,59,0,0,614,771,269,633,-5.59,,,,,,,,,,,,
17804,1564156373042,14,2.35,1.12,0.54,1.39,1.12,1.08,-0.19,0.07,3,2,4,1.09,8374,0,104,42,25,858,631.0,514,467,60,119.0,92,1,270,181,59,0,0,612,-16046,30721,631,-5.59,,,,,,,,,,,,
17824,1564156373062,12,2.34,1.12,0.54,1.39,1.12,1.17,-0.24,0.1,3,1,5,1.2,8292,0,104,42,25,871,626.0,506,465,60,116.0,92,1,270,176,59,0,0,611,-16883,26688,626,-5.59,,,,,,,,,,,,
17844,1564156373092,15,2.34,1.12,0.54,1.39,1.11,1.09,-0.17,0.05,3,2,5,1.1,8223,0,104,42,25,871,623.0,496,466,60,118.0,92,1,270,173,59,0,0,602,16529,4956,620,-5.59,44.681221,10.024447,63.56,176.3,0,0.0,-1,0.0,0.0,0,0.17,0.2974
17864,1564156373112,14,2.34,1.12,0.53,1.39,1.11,1.18,-0.21,0.12,3,3,4,1.2,8155,0,104,42,26,871,615.0,501,466,60,117.0,92,1,273,90,59,0,0,599,-28304,-16179,615,-5.59,,,,,,,,,,,,
17884,1564156373132,15,2.35,1.11,0.54,1.38,1.11,1.11,-0.18,0.12,2,2,3,1.12,8120,0,104,42,25,873,611.0,495,467,60,119.0,83,1,270,87,51,0,0,599,17740,-28648,611,-5.59,,,,,,,,,,,,
17904,1564156373152,17,2.35,1.11,0.53,1.38,1.11,1.16,-0.16,0.03,3,3,4,1.17,8029,0,104,42,25,874,604.0,489,464,60,117.0,83,1,270,161,51,0,0,589,-768,17344,604,-5.59,,,,,,,,,,,,
17924,1564156373172,16,2.35,1.1,0.53,1.39,1.11,1.24,-0.18,0.04,3,3,3,1.26,7958,0,104,42,25,876,600.0,496,467,60,117.0,83,1,269,159,51,0,0,586,-13043,-28648,600,-5.59,,,,,,,,,,,,
17944,1564156373194,17,2.34,1.11,0.53,1.38,1.1,1.17,-0.15,-0.0,2,3,1,1.18,7931,0,104,42,25,878,594.0,493,465,60,117.0,83,1,269,159,51,0,0,583,-12040,8488,594,-5.59,44.681236,10.024449,60.89,176.3,0,0.0,-1,0.0,0.0,0,0.17,0.2991
17964,1564156373214,17,2.34,1.11,0.53,1.39,1.1,1.11,-0.14,-0.08,3,4,3,1.12,7825,0,104,42,25,880,588.0,495,469,60,117.0,83,1,268,159,51,0,0,571,-25872,1267,588,-5.59,,,,,,,,,,,,
17984,1564156373234,18,2.34,1.11,0.53,1.38,1.1,1.14,-0.09,-0.05,3,5,3,1.14,7770,0,104,42,25,881,583.0,492,465,60,118.0,79,1,267,159,46,0,0,572,10432,1,583,-5.59,,,,,,,,,,,,
18004,1564156373254,14,2.35,1.1,0.53,1.38,1.11,1.22,-0.17,0.06,3,5,2,1.23,7681,0,104,42,25,881,579.0,491,468,60,118.0,79,1,266,159,46,0,0,563,259,1267,578,-5.59,,,,,,,,,,,,
18024,1564156373274,16,2.35,1.1,0.53,1.38,1.1,1.3,-0.23,0.0,2,4,3,1.32,7588,0,104,42,25,881,572.0,490,467,60,117.0,79,1,265,159,46,0,0,560,-29984,2211,572,-5.59,,,,,,,,,,,,
18044,1564156373294,14,2.35,1.1,0.53,1.39,1.1,1.37,-0.23,0.06,2,4,4,1.39,7563,0,104,42,25,883,568.0,482,467,60,117.0,79,1,265,159,46,0,0,560,-23623,-28648,568,-5.59,44.681252,10.024451,58.44,176.3,0,0.0,-1,0.0,0.0,0,0.17,0.3007
18064,1564156373314,15,2.35,1.11,0.52,1.39,1.1,1.44,-0.23,0.15,2,4,3,1.45,7503,0,104,42,25,885,562.0,481,465,60,117.0,79,1,265,159,46,0,0,546,-22359,-22263,559,-5.59,,,,,,,,,,,,
18084,1564156373334,14,2.34,1.11,0.53,1.38,1.1,1.46,-0.24,0.21,2,3,4,1.48,7461,0,105,42,25,888,554.0,476,466,60,117.0,81,1,264,161,45,0,0,543,2524,2524,554,-5.59,,,,,,,,,,,,
18104,1564156373354,16,2.34,1.1,0.53,1.39,1.1,1.51,-0.25,0.26,1,2,6,1.53,7370,0,105,42,25,891,551.0,473,467,60,117.0,81,1,263,161,45,0,0,544,2104,2104,551,-5.59,,,,,,,,,,,,
18124,1564156373374,17,2.33,1.11,0.53,1.39,1.1,1.56,-0.22,0.3,1,2,5,1.58,7338,0,105,42,25,901,549.0,465,468,60,117.0,81,1,263,161,45,0,0,534,-2336,-30064,549,-5.59,,,,,,,,,,,,
18144,1564156373394,17,2.34,1.1,0.53,1.39,1.1,1.57,-0.17,0.28,2,2,4,1.57,7233,0,105,42,25,912,545.0,464,468,60,118.0,81,1,262,161,45,0,0,535,1780,1780,542,-5.59,44.681263,10.024453,55.91,176.3,0,0.0,-1,0.0,0.0,0,0.18,0.3024
18164,1564156373414,16,2.33,1.1,0.53,1.38,1.1,1.48,-0.13,0.18,1,3,5,1.49,7192,0,105,42,25,921,535.0,460,465,60,119.0,81,1,261,161,45,0,0,529,14504,2524,538,-5.59,,,,,,,,,,,,
18184,1564156373434,15,2.33,1.1,0.53,1.38,1.1,1.42,-0.11,0.16,1,3,6,1.43,7151,0,105,42,25,930,533.0,457,466,60,118.0,80,1,261,161,43,0,0,523,-28648,6274,530,-5.59,,,,,,,,,,,,
18204,1564156373454,15,2.33,1.1,0.53,1.38,1.1,1.41,-0.14,0.22,1,1,6,1.41,7059,0,105,42,26,942,525.0,455,467,60,117.0,80,1,264,162,43,0,0,519,-22519,2524,525,-5.59,,,,,,,,,,,,
18224,1564156373474,16,2.32,1.1,0.52,1.38,1.1,1.41,-0.07,0.18,1,2,4,1.41,6993,0,105,42,26,955,522.0,451,470,60,117.0,80,1,265,162,43,0,0,514,-8187,-8187,522,-5.59,,,,,,,,,,,,
18244,1564156373492,13,2.33,1.09,0.53,1.37,1.09,1.33,-0.04,0.15,1,1,3,1.33,6952,0,105,42,26,964,517.0,451,465,60,119.0,80,1,265,162,43,0,0,510,-14,-3482,517,-5.59,44.681278,10.024454,53.27,176.3,0,0.0,-1,0.0,0.0,0,0.18,0.3041
18264,1564156373512,13,2.33,1.08,0.52,1.38,1.09,1.35,-0.1,0.17,1,2,3,1.36,6895,0,105,42,26,970,513.0,448,465,60,117.0,80,1,266,163,43,0,0,507,10994,-4054,513,-5.59,,,,,,,,,,,,
18284,1564156373532,7,2.33,1.08,0.51,1.37,1.08,1.32,-0.02,0.16,1,3,3,1.32,6840,0,105,42,27,966,509.0,443,466,60,119.0,82,1,270,163,42,0,0,504,-3414,2109,509,-5.59,,,,,,,,,,,,
18304,1564156373552,4,2.33,1.08,0.52,1.37,1.08,1.22,-0.03,0.2,1,3,3,1.22,6783,0,105,42,27,960,509.0,444,467,60,118.0,82,1,270,163,42,0,0,503,-21872,3,506,-5.59,,,,,,,,,,,,
18324,1564156373572,0,2.32,1.09,0.52,1.37,1.09,1.26,0.0,0.21,1,5,3,1.26,6766,0,105,42,27,951,507.0,435,468,60,117.0,82,1,270,163,42,0,0,499,-28648,11560,506,-5.59,,,,,,,,,,,,
18344,1564156373592,1,2.33,1.09,0.52,1.38,1.09,1.18,-0.04,0.26,1,4,3,1.19,6771,0,105,42,28,940,508.0,433,468,60,118.0,82,1,274,165,42,0,0,502,6274,6274,505,-5.59,44.681278,10.024454,53.27,176.3,0,0.0,-1,0.0,0.0,0,0.18,0.3057
18364,1564156373610,-0,2.33,1.09,0.51,1.38,1.1,1.21,0.01,0.21,1,5,3,1.21,6776,0,105,42,28,925,504.0,432,466,60,120.0,82,1,274,165,42,0,0,501,-32248,6274,504,-5.59,,,,,,,,,,,,
18384,1564156373630,3,2.34,1.08,0.52,1.38,1.09,1.19,-0.05,0.28,1,4,3,1.19,6835,0,105,42,28,909,502.0,437,464,60,119.0,83,1,274,165,42,0,0,500,-22519,2109,502,-5.59,,,,,,,,,,,,
18404,1564156373650,1,2.34,1.09,0.52,1.39,1.1,1.18,-0.06,0.31,1,5,3,1.18,6878,0,105,42,28,897,499.0,437,465,60,118.0,83,1,274,165,42,0,0,497,2524,-22519,499,-5.59,,,,,,,,,,,,
18424,1564156373670,-0,2.33,1.09,0.52,1.39,1.09,1.12,-0.05,0.3,1,6,3,1.12,6800,0,105,42,28,892,499.0,436,465,60,119.0,83,1,274,165,42,0,0,498,2524,2109,499,-5.59,,,,,,,,,,,,
18444,1564156373690,1,2.34,1.1,0.53,1.39,1.1,1.07,-0.08,0.39,1,6,3,1.08,6734,0,105,42,29,885,497.0,433,466,60,117.0,83,1,278,165,42,0,0,499,-9216,2524,497,-5.59,44.68129,10.024457,51.12,176.4,0,0.0,-1,0.0,0.0,0,0.18,0.3074
18464,1564156373709,2,2.35,1.11,0.52,1.4,1.11,1.16,0.08,0.31,1,4,3,1.16,6670,0,105,42,29,877,498.0,431,465,60,119.0,83,1,278,166,42,0,0,496,3,11560,500,-5.59,,,,,,,,,,,,
18484,1564156373729,0,2.35,1.1,0.52,1.38,1.09,1.09,0.02,0.25,1,6,4,1.09,6613,0,105,42,29,869,3056.0,429,466,60,120.0,82,1,278,166,41,0,0,9718,-2830,-1818,777,-5.59,,,,,,,,,,,,
18504,1564156373749,2,2.37,1.1,0.52,1.39,1.09,1.07,0.0,0.25,1,1,2,1.07,6501,0,105,43,29,866,3056.0,423,466,60,120.0,82,1,279,168,41,0,0,9718,-2830,2212,777,-5.59,,,,,,,,,,,,
18524,1564156373769,-1,2.39,1.11,0.52,1.39,1.09,1.01,0.03,0.05,2,-0,5,1.01,6803,0,105,43,30,861,3056.0,427,466,60,122.0,82,1,282,166,41,0,0,9718,-2830,-899,777,-5.59,,,,,,,,,,,,
18544,1564156373789,1,2.43,1.11,0.52,1.39,1.11,1.06,-0.02,0.09,2,1,6,1.06,6835,0,105,43,30,856,476.0,433,467,60,119.0,82,1,282,168,41,0,0,9718,32033,-16384,476,-5.59,44.681301,10.024459,49.51,176.4,0,0.0,-1,0.0,0.0,0,0.18,0.3091
18564,1564156373809,-0,2.46,1.11,0.52,1.39,1.1,1.01,-0.08,0.07,4,2,6,1.01,7035,0,105,43,30,851,480.0,442,468,60,120.0,82,1,281,166,41,0,0,9718,-1923,-16384,481,-5.59,,,,,,,,,,,,
18584,1564156373829,-0,2.5,1.12,0.53,1.4,1.1,0.96,-0.04,0.01,6,2,6,0.96,7110,0,105,43,29,850,483.0,453,465,60,121.0,91,1,277,166,44,0,0,9718,8488,-16384,483,-5.59,,,,,,,,,,,,
18604,1564156373849,-0,2.56,1.12,0.53,1.41,1.1,0.93,-0.15,0.04,8,1,6,0.94,7275,0,105,43,29,849,485.0,458,466,60,122.0,91,1,278,166,44,0,0,9718,16408,-17956,485,-5.59,,,,,,,,,,,,
18624,1564156373869,-1,2.62,1.13,0.53,1.41,1.11,1.01,-0.33,0.06,10,4,11,1.07,7384,0,105,43,28,848,484.0,465,467,60,120.0,91,1,274,166,44,0,0,436,-18108,8488,484,-5.59,,,,,,,,,,,,
18644,1564156373893,-1,2.68,1.13,0.53,1.42,1.11,1.03,-0.4,0.1,12,5,14,1.1,7521,0,105,43,28,847,485.0,472,468,60,120.0,91,1,275,165,44,0,0,418,-3267,-1923,483,-5.59,44.681328,10.024463,47.89,176.5,0,0.0,-1,0.0,0.0,0,0.18,0.3107
18664,1564156373913,-1,2.75,1.13,0.53,1.42,1.11,1.05,-0.47,0.22,14,5,16,1.15,7659,0,105,43,27,848,481.0,480,466,60,121.0,91,1,272,163,44,0,0,381,10305,10305,481,-5.59,,,,,,,,,,,,
18684,1564156373933,1,2.8,1.13,0.53,1.42,1.11,1.04,-0.58,0.26,17,6,18,1.19,7783,0,105,43,27,849,476.0,483,467,60,120.0,98,1,273,163,47,0,0,338,-18341,3576,476,-5.59,,,,,,,,,,,,
18704,1564156373953,1,2.85,1.14,0.53,1.43,1.1,1.0,-0.67,0.24,19,6,19,1.2,7786,0,105,43,26,850,474.0,486,467,60,121.0,98,1,270,162,47,0,0,316,21580,8488,472,-5.59,,,,,,,,,,,,
18724,1564156373973,2,2.87,1.13,0.53,1.43,1.11,0.9,-0.68,0.24,22,8,21,1.13,7728,0,105,43,26,851,470.0,491,469,60,121.0,98,1,269,162,47,0,0,306,-3314,-17956,470,-5.59,,,,,,,,,,,,
18744,1564156373993,1,2.9,1.14,0.53,1.42,1.11,0.88,-0.7,0.27,23,7,23,1.12,7597,0,105,43,26,852,469.0,486,466,60,120.0,98,1,268,161,47,0,0,305,3635,10305,468,-5.59,44.681328,10.024463,47.89,176.5,0,0.0,-1,0.0,0.0,0,0.18,0.3124
18764,1564156374003,3,2.9,1.13,0.53,1.42,1.1,0.87,-0.62,0.26,25,5,27,1.07,7476,0,105,43,25,852,465.0,483,466,60,121.0,98,1,264,161,47,0,0,306,3826,3576,465,-5.59,,,,,,,,,,,,
18784,1564156374023,0,2.9,1.13,0.53,1.43,1.1,0.84,-0.6,0.25,25,5,29,1.04,7315,0,106,43,26,854,463.0,475,469,60,121.0,97,1,266,161,45,0,0,308,-3414,2212,463,-5.59,,,,,,,,,,,,
18804,1564156374043,-1,2.89,1.13,0.53,1.42,1.11,0.86,-0.67,0.22,26,4,30,1.09,7203,0,106,43,26,855,458.0,468,467,60,121.0,97,1,266,161,45,0,0,309,18584,-16384,459,-5.59,,,,,,,,,,,,
18824,1564156374063,-1,2.86,1.14,0.53,1.42,1.1,0.97,-0.75,0.15,28,3,32,1.22,7017,0,106,43,26,856,458.0,462,467,60,122.0,97,1,264,162,45,0,0,310,-26615,243,458,-5.59,,,,,,,,,,,,
18844,1564156374093,2,2.84,1.13,0.54,1.43,1.11,0.87,-0.87,0.25,29,3,33,1.23,6903,0,106,43,26,857,456.0,456,469,60,120.0,97,1,265,162,45,0,0,305,-21944,-16384,457,-5.59,44.681351,10.024469,45.27,176.5,0,0.0,-1,0.0,0.0,0,0.19,0.3141
18864,1564156374113,-1,2.83,1.14,0.53,1.42,1.11,0.88,-0.88,0.22,31,4,34,1.25,6791,0,106,43,27,860,458.0,421,466,60,121.0,97,1,270,162,45,0,0,300,2524,30272,458,-5.59,,,,,,,,,,,,
18884,1564156374133,2,2.8,1.14,0.52,1.43,1.1,0.9,-0.96,0.22,32,1,35,1.32,6730,0,106,43,27,863,460.0,335,467,60,119.0,89,1,270,163,41,0,0,280,-9166,6193,460,-5.59,,,,,,,,,,,,
18904,1564156374153,-1,2.78,1.13,0.52,1.43,1.1,0.87,-0.98,0.2,33,2,36,1.31,6725,0,106,43,27,865,457.0,301,466,60,121.0,89,1,270,163,41,0,0,251,9517,17628,457,-5.59,,,,,,,,,,,,
18924,1564156374173,1,2.76,1.15,0.52,1.43,1.11,0.89,-1.06,0.29,33,2,38,1.38,6686,7,106,43,28,867,457.0,277,468,60,119.0,89,1,275,181,41,0,0,232,2524,17628,457,-5.59,,,,,,,,,,,,
18944,1564156374193,1,2.77,1.15,0.52,1.42,1.11,0.85,-1.08,0.28,34,3,39,1.37,6574,10,106,43,29,869,456.0,260,467,60,120.0,89,1,279,85,41,0,0,228,-9211,-8985,456,-5.59,44.681362,10.024474,44.0,176.5,0,0.0,-1,0.0,0.0,0,0.19,0.3157
18964,1564156374213,-0,2.75,1.14,0.53,1.43,1.1,0.85,-1.1,0.33,35,3,41,1.38,6465,13,106,43,31,870,457.0,254,468,60,121.0,89,1,286,182,41,0,0,226,-8151,3571,454,-5.59,,,,,,,,,,,,
18984,1564156374233,-1,2.76,1.15,0.53,1.43,1.1,0.89,-1.16,0.33,35,0,43,1.47,6347,13,106,43,33,870,453.0,270,468,60,119.0,96,1,292,188,44,0,0,226,11545,2524,453,-5.59,,,,,,,,,,,,
19004,1564156374253,0,2.76,1.15,0.52,1.43,1.11,0.82,-1.22,0.34,36,-1,45,1.47,6241,13,106,43,34,871,454.0,254,465,60,120.0,96,1,295,192,44,0,0,224,28696,-6387,451,-5.59,,,,,,,,,,,,
19024,1564156374273,2,2.75,1.14,0.53,1.43,1.1,0.75,-1.22,0.34,37,-0,45,1.43,6163,13,106,43,36,871,448.0,251,463,60,121.0,96,1,301,203,44,0,0,223,-3968,-8985,448,-5.59,,,,,,,,,,,,
19044,1564156374293,1,2.76,1.15,0.53,1.43,1.1,0.69,-1.23,0.33,38,2,45,1.41,6081,14,106,43,37,871,448.0,262,466,60,122.0,96,1,304,207,44,0,0,221,-32702,10305,446,-5.59,44.68137,10.024482,43.26,176.5,0,0.0,-1,0.0,0.0,0,0.19,0.3174
19064,1564156374313,1,2.76,1.15,0.53,1.43,1.1,0.67,-1.25,0.36,41,4,44,1.42,6027,17,106,43,39,871,447.0,274,467,60,121.0,96,1,310,217,44,0,0,218,-6656,10305,447,-5.59,,,,,,,,,,,,
19084,1564156374333,2,2.76,1.15,0.53,1.42,1.11,0.69,-1.24,0.37,43,6,44,1.42,6017,20,106,43,41,871,446.0,272,468,60,122.0,109,1,322,216,49,0,0,198,505,23400,447,-5.59,,,,,,,,,,,,
19104,1564156374353,2,2.76,1.15,0.53,1.43,1.11,0.7,-1.25,0.41,44,8,44,1.43,6000,29,106,43,45,869,447.0,279,465,60,121.0,109,1,347,220,49,0,0,184,505,16648,447,-5.59,,,,,,,,,,,,
19124,1564156374373,3,2.75,1.15,0.53,1.43,1.11,0.72,-1.23,0.44,45,10,45,1.43,6036,36,106,43,50,867,445.0,280,468,60,121.0,109,1,370,240,49,0,0,181,-6524,3571,445,-5.59,,,,,,,,,,,,
19144,1564156374393,-0,2.76,1.15,0.53,1.43,1.11,0.78,-1.24,0.42,46,12,46,1.46,6129,40,106,43,57,864,445.0,282,467,60,122.0,109,1,384,262,49,0,0,178,-31744,21432,445,-5.59,44.681381,10.024489,42.46,176.6,0,0.0,-1,0.0,0.0,0,0.19,0.3191
19164,1564156374413,-0,2.75,1.15,0.53,1.43,1.11,0.84,-1.22,0.39,45,11,47,1.48,6252,44,106,43,63,862,445.0,268,468,60,121.0,109,1,384,273,49,0,0,179,-3866,21432,445,-5.59,,,,,,,,,,,,
19184,1564156374433,1,2.77,1.14,0.52,1.42,1.11,0.83,-1.26,0.42,44,8,50,1.51,6399,45,106,43,67,859,440.0,279,468,60,119.0,168,1,375,315,74,0,0,182,-3866,19477,440,-5.59,,,,,,,,,,,,
19204,1564156374453,2,2.77,1.14,0.52,1.42,1.11,0.76,-1.27,0.42,43,8,52,1.48,6452,47,106,43,70,856,436.0,273,465,60,120.0,168,1,371,372,74,0,0,185,-6475,-7939,436,-5.59,,,,,,,,,,,,
19224,1564156374473,-0,2.78,1.15,0.52,1.43,1.11,0.75,-1.23,0.41,44,8,53,1.44,6461,48,106,43,74,853,432.0,266,466,60,121.0,168,1,366,405,74,0,0,185,-19126,23400,432,-5.59,,,,,,,,,,,,
19244,1564156374493,0,2.79,1.15,0.53,1.42,1.11,0.82,-1.21,0.35,42,7,52,1.46,6472,48,106,43,76,851,429.0,257,468,60,119.0,168,1,362,453,74,0,0,201,-19126,19477,428,-5.59,44.681381,10.024489,42.46,176.6,0,0.0,-1,0.0,0.0,0,0.19,0.3207
19264,1564156374509,1,2.8,1.15,0.52,1.42,1.1,0.82,-1.28,0.34,41,5,52,1.52,6443,48,106,43,77,853,426.0,267,467,60,120.0,168,1,362,459,74,0,0,268,-992,5600,426,-5.59,,,,,,,,,,,,
19284,1564156374529,-1,2.8,1.15,0.53,1.42,1.1,0.79,-1.31,0.35,41,5,50,1.53,6585,48,107,43,78,857,424.0,272,465,60,121.0,272,1,366,467,116,0,0,317,-6656,-3314,424,-5.59,,,,,,,,,,,,
19304,1564156374549,2,2.78,1.15,0.52,1.43,1.11,0.84,-1.3,0.32,41,1,50,1.55,6888,49,106,43,79,861,423.0,261,466,60,119.0,272,1,376,479,116,0,0,353,770,3635,422,-5.59,,,,,,,,,,,,
19324,1564156374569,1,2.76,1.14,0.52,1.43,1.1,0.83,-1.28,0.29,41,1,49,1.53,7115,49,107,43,79,866,421.0,261,467,60,119.0,272,1,386,481,116,0,0,371,770,-21792,421,-5.59,,,,,,,,,,,,
19344,1564156374589,2,2.74,1.16,0.53,1.43,1.1,0.8,-1.29,0.28,41,0,49,1.51,7422,49,106,43,78,901,422.0,260,463,60,121.0,272,1,405,474,116,0,0,370,1,-3856,422,-5.59,44.681385,10.024499,41.49,176.6,0,0.0,-1,0.0,0.0,0,0.19,0.3224
19364,1564156374608,3,2.73,1.16,0.52,1.43,1.11,0.77,-1.25,0.25,41,1,48,1.47,7793,49,106,43,76,969,423.0,261,467,60,122.0,272,1,426,459,116,0,0,372,257,13180,423,-5.59,,,,,,,,,,,,
19384,1564156374628,1,2.71,1.14,0.52,1.42,1.11,0.82,-1.23,0.29,41,-1,49,1.48,8220,49,106,43,75,1034,423.0,269,465,60,120.0,327,1,435,453,138,0,0,376,-6656,13552,423,-5.59,,,,,,,,,,,,
19404,1564156374648,-1,2.7,1.15,0.52,1.43,1.11,0.79,-1.2,0.41,41,0,50,1.44,8495,49,107,43,70,1096,423.0,285,469,60,120.0,327,1,432,409,138,0,0,400,-6656,31796,423,-5.59,,,,,,,,,,,,
19424,1564156374668,2,2.7,1.14,0.52,1.42,1.11,0.74,-1.23,0.34,42,1,51,1.43,8620,49,107,43,67,1147,426.0,279,466,60,121.0,327,1,429,384,138,0,0,504,-6656,21580,426,-5.59,,,,,,,,,,,,
19444,1564156374688,2,2.69,1.14,0.52,1.42,1.1,0.65,-1.15,0.36,42,1,54,1.32,8790,50,107,43,65,1166,429.0,295,468,60,121.0,327,1,419,374,138,0,0,543,0,-768,429,-5.59,44.681393,10.024509,40.48,176.6,0,0.0,-1,0.0,0.0,0,0.19,0.3241
19464,1564156374708,3,2.7,1.14,0.52,1.42,1.1,0.62,-1.17,0.33,42,0,55,1.32,8997,50,107,43,63,1170,427.0,291,467,60,120.0,327,1,401,365,138,0,0,548,0,31796,427,-5.59,,,,,,,,,,,,
19484,1564156374728,-0,2.71,1.15,0.52,1.42,1.11,0.47,-1.13,0.34,43,-1,57,1.23,9259,50,107,43,61,1128,427.0,292,466,60,121.0,293,1,405,358,125,0,0,553,0,13180,427,-5.59,,,,,,,,,,,,
19504,1564156374748,-2,2.7,1.15,0.52,1.42,1.11,0.5,-1.18,0.47,43,-0,56,1.28,9337,50,107,43,60,1088,426.0,298,472,60,120.0,293,1,406,351,125,0,0,564,0,-768,426,-5.59,,,,,,,,,,,,
19524,1564156374768,1,2.71,1.15,0.52,1.43,1.1,0.61,-1.22,0.45,44,-0,54,1.36,9445,50,107,43,59,1058,426.0,302,463,60,120.0,293,1,408,347,125,0,0,580,-6656,243,426,-5.59,,,,,,,,,,,,
19544,1564156374788,-1,2.71,1.15,0.52,1.42,1.11,0.63,-1.25,0.4,44,-2,55,1.4,9532,50,107,43,59,1029,425.0,308,470,60,120.0,293,1,410,348,125,0,0,584,230,-3322,425,-5.59,44.6814,10.024522,40.21,176.6,0,0.0,-1,0.0,0.0,0,0.19,0.3257
19564,1564156374810,1,2.69,1.15,0.52,1.42,1.1,0.54,-1.25,0.56,44,-1,54,1.36,9605,50,107,43,58,1042,426.0,320,460,60,122.0,293,1,407,347,125,0,0,577,0,243,426,-5.59,,,,,,,,,,,,
19584,1564156374830,2,2.69,1.15,0.52,1.42,1.1,0.64,-1.31,0.56,44,-0,53,1.46,9605,50,107,43,58,1060,427.0,323,470,60,120.0,294,1,407,347,125,0,0,556,-6656,23400,427,-5.59,,,,,,,,,,,,
19604,1564156374850,-1,2.69,1.15,0.52,1.42,1.11,0.67,-1.36,0.54,43,1,54,1.52,9508,50,107,43,58,1095,426.0,336,465,60,121.0,294,1,408,343,125,0,0,559,257,23400,429,-5.59,,,,,,,,,,,,
19624,1564156374870,0,2.68,1.15,0.51,1.41,1.11,0.65,-1.3,0.68,43,2,54,1.45,9370,50,107,43,57,1130,430.0,349,465,60,121.0,294,1,403,341,125,0,0,565,257,16648,430,-5.59,,,,,,,,,,,,
19644,1564156374892,-1,2.68,1.15,0.52,1.42,1.11,0.64,-1.23,0.62,43,2,55,1.39,9182,51,107,43,58,1152,433.0,350,468,60,121.0,294,1,401,337,125,0,0,531,1,21432,433,-5.59,44.681408,10.024547,40.1,176.6,0,0.0,-1,0.0,0.0,0,0.2,0.3274
19664,1564156374912,-1,2.66,1.14,0.52,1.41,1.11,0.73,-1.17,0.55,43,2,55,1.38,9031,51,107,43,58,1175,549.0,357,465,60,123.0,294,1,399,335,125,0,0,1852,230,-3267,549,-5.59,,,,,,,,,,,,
19684,1564156374932,0,2.66,1.14,0.52,1.42,1.11,0.79,-1.17,0.48,43,1,54,1.42,8511,51,107,43,59,1187,433.0,356,461,60,123.0,251,1,429,328,108,0,0,1852,1,-26615,433,-5.59,,,,,,,,,,,,
19704,1564156374952,1,2.66,1.15,0.52,1.42,1.1,0.84,-1.2,0.56,43,1,53,1.47,8050,51,107,43,62,1199,437.0,365,463,60,121.0,251,1,450,327,108,0,0,50,3,2131,437,-5.59,,,,,,,,,,,,
19724,1564156374972,1,2.66,1.14,0.52,1.42,1.1,0.82,-1.2,0.54,43,1,53,1.45,8134,51,107,43,64,1190,436.0,378,467,60,122.0,251,1,448,347,108,0,0,424,2278,-18341,436,-5.59,,,,,,,,,,,,
19744,1564156374992,1,2.66,1.14,0.52,1.42,1.1,0.88,-1.15,0.57,42,-2,53,1.45,8363,51,107,43,65,1179,436.0,383,468,60,120.0,251,1,442,362,108,0,0,434,3,21580,436,-5.59,44.681408,10.024547,40.1,176.6,0,0.0,-1,0.0,0.0,0,0.2,0.3291
19764,1564156375004,-0,2.65,1.14,0.52,1.42,1.1,0.8,-1.15,0.63,42,-1,53,1.4,8534,51,107,43,64,1206,437.0,401,467,60,122.0,251,1,438,364,108,0,0,468,-18948,23400,435,-5.59,,,,,,,,,,,,
19784,1564156375024,0,2.65,1.14,0.52,1.42,1.1,0.79,-1.23,0.59,42,-0,52,1.46,8757,51,107,43,64,1233,438.0,417,468,60,121.0,273,1,421,362,120,0,0,484,-19126,-6387,438,-5.59,,,,,,,,,,,,
19804,1564156375044,-1,2.65,1.14,0.52,1.42,1.1,0.66,-1.25,0.67,42,1,53,1.42,8958,51,107,43,62,1267,441.0,435,471,60,122.0,273,1,403,361,120,0,0,501,-6475,-8985,441,-5.59,,,,,,,,,,,,
19824,1564156375064,-0,2.64,1.14,0.52,1.42,1.11,0.64,-1.33,0.76,43,1,52,1.47,9110,52,107,43,61,1304,442.0,446,465,60,121.0,273,1,399,358,120,0,0,503,-3866,14488,442,-5.59,,,,,,,,,,,,
19844,1564156375094,0,2.64,1.14,0.52,1.42,1.11,0.6,-1.3,0.88,43,3,51,1.43,9177,52,107,43,60,1308,446.0,460,467,60,121.0,273,1,401,358,120,0,0,507,240,14488,446,-5.59,44.681412,10.024574,41.29,176.7,0,0.0,-1,0.0,0.0,0,0.2,0.3307
19864,1564156375114,0,2.64,1.14,0.52,1.42,1.1,0.63,-1.22,0.96,43,3,49,1.37,9150,52,107,43,60,1311,445.0,465,472,60,121.0,273,1,400,350,120,0,0,503,-31744,6193,444,-5.59,,,,,,,,,,,,
19884,1564156375134,1,2.62,1.15,0.51,1.42,1.1,0.72,-1.19,0.99,42,5,49,1.39,9075,52,107,43,60,1285,445.0,478,465,60,122.0,270,1,399,350,121,0,0,493,-6524,32033,445,-5.59,,,,,,,,,,,,
19904,1564156375154,1,2.62,1.14,0.52,1.42,1.1,0.76,-1.12,0.91,41,5,49,1.36,8975,52,107,43,60,1250,448.0,466,469,60,122.0,270,1,399,348,121,0,0,493,-1562,32033,448,-5.59,,,,,,,,,,,,
19924,1564156375174,1,2.61,1.15,0.52,1.42,1.11,0.81,-1.1,0.89,40,4,48,1.36,8898,52,107,43,60,1214,452.0,421,465,60,121.0,270,1,403,346,121,0,0,486,-6656,16648,452,-5.59,,,,,,,,,,,,
19944,1564156375194,0,2.6,1.15,0.52,1.42,1.1,0.79,-1.03,0.83,40,4,48,1.3,8861,52,107,43,60,1177,455.0,378,467,60,121.0,270,1,408,353,121,0,0,474,28696,32033,455,-5.59,44.681416,10.024589,42.31,176.7,0,0.0,-1,0.0,0.0,0,0.2,0.3324
19964,1564156375214,-0,2.59,1.14,0.52,1.42,1.11,0.79,-1.02,0.86,41,3,47,1.29,8848,52,108,43,61,1166,458.0,348,470,60,122.0,270,1,412,356,121,0,0,486,6512,3580,458,-5.59,,,,,,,,,,,,
19984,1564156375234,-0,2.58,1.15,0.52,1.42,1.11,0.77,-1.05,0.88,41,3,47,1.31,8877,52,107,43,61,1165,459.0,333,470,60,122.0,257,1,409,354,119,0,0,477,1504,32033,463,-5.59,,,,,,,,,,,,
20004,1564156375254,-1,2.58,1.14,0.52,1.42,1.11,0.65,-1.03,0.99,41,4,47,1.22,8941,52,107,43,61,1164,463.0,353,463,60,121.0,257,1,402,356,119,0,0,473,-26615,8488,463,-5.59,,,,,,,,,,,,
20024,1564156375274,-0,2.55,1.13,0.52,1.42,1.1,0.62,-1.13,1.09,41,4,46,1.29,8958,53,108,43,61,1163,463.0,342,469,60,120.0,257,1,401,359,119,0,0,478,-4059,-10483,466,-5.59,,,,,,,,,,,,
20044,1564156375294,0,2.55,1.15,0.52,1.42,1.11,0.51,-1.12,1.17,41,4,45,1.23,9036,53,108,43,61,1163,467.0,359,463,60,121.0,257,1,397,360,119,0,0,485,2524,1,467,-5.59,44.681412,10.024604,43.64,176.6,0,0.0,-1,0.0,0.0,0,0.2,0.3341
20064,1564156375314,1,2.53,1.15,0.53,1.42,1.12,0.54,-1.17,1.23,41,3,45,1.29,9101,53,108,43,61,1163,467.0,379,458,60,121.0,257,1,399,360,119,0,0,484,7154,-899,468,-5.59,,,,,,,,,,,,
20084,1564156375334,1,2.51,1.14,0.52,1.43,1.11,0.55,-1.13,1.31,40,5,44,1.25,9173,53,108,43,60,1164,469.0,393,470,60,121.0,262,1,401,360,123,0,0,489,-8165,1,469,-5.59,,,,,,,,,,,,
20104,1564156375354,-0,2.47,1.15,0.53,1.42,1.12,0.58,-1.0,1.23,38,5,43,1.16,9213,53,108,43,60,1166,473.0,415,476,60,121.0,262,1,402,353,123,0,0,493,3826,-6528,473,-5.59,,,,,,,,,,,,
20124,1564156375374,2,2.43,1.14,0.52,1.43,1.11,0.72,-1.04,1.03,36,5,42,1.26,9254,53,108,43,61,1168,471.0,429,460,60,120.0,262,1,405,353,123,0,0,486,1779,2524,471,-5.59,,,,,,,,,,,,
20144,1564156375392,2,2.4,1.15,0.52,1.42,1.11,0.67,-1.01,0.9,34,3,43,1.21,9222,53,108,43,60,1170,473.0,433,462,60,120.0,262,1,402,353,123,0,0,486,5600,998,473,-5.59,44.681412,10.024619,44.6,176.6,0,0.0,-1,0.0,0.0,0,0.2,0.3357
20164,1564156375412,2,2.37,1.14,0.52,1.42,1.11,0.62,-1.04,0.76,32,2,43,1.21,9213,53,108,43,61,1166,474.0,452,460,60,121.0,262,1,403,353,123,0,0,494,-18341,-6528,474,-5.59,,,,,,,,,,,,
20184,1564156375432,-0,2.32,1.13,0.52,1.42,1.11,0.49,-1.0,0.85,30,2,41,1.12,9195,52,108,43,60,1156,475.0,465,471,60,120.0,258,1,402,353,123,0,0,485,-3267,998,474,-5.59,,,,,,,,,,,,
20204,1564156375452,0,2.27,1.12,0.51,1.41,1.11,0.4,-0.98,0.96,27,2,40,1.06,9173,51,108,43,60,1145,473.0,480,467,60,121.0,258,1,401,353,123,0,0,482,-18108,-1562,475,-5.59,,,,,,,,,,,,
20224,1564156375472,-1,2.23,1.11,0.52,1.39,1.11,0.34,-0.9,1.06,23,3,36,0.96,9115,50,108,43,59,1133,475.0,481,467,60,120.0,258,1,400,353,123,0,0,488,243,-6528,475,-5.59,,,,,,,,,,,,
20244,1564156375492,-1,2.18,1.08,0.51,1.37,1.08,0.31,-0.77,1.15,18,3,33,0.83,9066,50,108,43,59,1118,473.0,486,473,60,121.0,258,1,399,353,123,0,0,489,-23367,-6441,470,-5.59,44.681412,10.024619,44.6,176.6,0,0.0,-1,0.0,0.0,0,0.2,0.3374
20264,1564156375510,-1,2.13,1.01,0.48,1.31,1.05,0.34,-0.65,1.19,14,2,30,0.73,9066,49,108,43,60,1102,480.0,487,464,60,121.0,258,1,399,353,123,0,0,490,8488,-6528,468,-5.59,,,,,,,,,,,,
20284,1564156375530,1,2.07,0.74,0.41,1.13,0.94,0.29,-0.41,1.26,9,-1,26,0.5,9101,49,108,43,59,1088,482.0,486,471,60,121.0,252,1,400,345,118,0,0,493,-899,-32768,467,-5.59,,,,,,,,,,,,
20304,1564156375550,1,2.04,0.47,0.32,0.98,0.82,0.38,-0.36,1.34,6,-4,20,0.52,9186,48,108,43,59,1084,487.0,491,463,60,121.0,252,1,401,346,118,0,0,497,505,10408,468,-5.59,,,,,,,,,,,,
20324,1564156375570,2,2.0,0.36,0.27,0.92,0.76,0.48,-0.39,1.33,2,-4,15,0.62,9282,48,108,43,58,1082,487.0,493,462,60,120.0,252,1,403,342,118,0,0,499,-32768,2109,466,-5.59,,,,,,,,,,,,
20344,1564156375590,3,1.97,0.34,0.25,0.89,0.74,0.49,-0.15,1.18,-0,-7,10,0.52,9431,48,108,43,58,1087,489.0,500,467,60,119.0,252,1,406,344,118,0,0,504,-6656,-14,465,-5.59,44.681408,10.024635,45.41,176.6,0,0.0,-1,0.0,0.0,0,0.2,0.3391
20364,1564156375608,0,1.96,0.37,0.26,0.9,0.75,0.53,0.06,1.07,-2,-6,8,0.53,9551,48,108,43,57,1093,488.0,515,462,60,120.0,252,1,406,342,118,0,0,502,1,-8187,464,-5.59,,,,,,,,,,,,
20384,1564156375628,3,1.95,0.38,0.26,0.9,0.75,0.63,0.04,1.14,-5,-6,4,0.63,9735,48,108,43,56,1102,493.0,517,464,60,119.0,273,1,403,339,127,0,0,511,-6528,2524,466,-5.59,,,,,,,,,,,,
20404,1564156375648,1,1.95,0.4,0.26,0.91,0.75,0.58,0.13,0.96,-8,-5,-0,0.6,9858,48,108,43,56,1108,497.0,521,468,60,119.0,273,1,403,342,127,0,0,517,-9216,2104,465,-5.59,,,,,,,,,,,,
20424,1564156375668,0,1.95,0.44,0.27,0.93,0.77,0.54,0.06,0.94,-11,-4,-4,0.55,9910,48,108,43,55,1104,500.0,539,461,60,119.0,273,1,401,335,127,0,0,519,2109,-2336,466,-5.59,,,,,,,,,,,,
20444,1564156375688,1,1.95,0.44,0.28,0.93,0.78,0.64,0.12,0.92,-13,-3,-8,0.65,9989,48,108,43,55,1099,502.0,543,465,60,120.0,273,1,401,337,127,0,0,515,-32248,-28648,464,-5.59,44.681404,10.024651,47.06,176.6,0,0.0,-1,0.0,0.0,0,0.21,0.3407
20464,1564156375709,2,1.95,0.45,0.28,0.92,0.78,0.67,0.19,0.96,-16,-1,-11,0.69,10091,48,108,43,55,1085,502.0,544,465,60,119.0,273,1,402,338,127,0,0,522,15661,-2336,464,-5.59,,,,,,,,,,,,
20484,1564156375729,0,1.96,0.43,0.28,0.91,0.77,0.67,0.23,0.92,-19,-1,-14,0.71,10059,47,108,43,55,1069,504.0,552,468,60,119.0,276,1,401,338,129,0,0,530,-32248,-32248,468,-5.59,,,,,,,,,,,,
20504,1564156375749,1,1.97,0.45,0.27,0.92,0.79,0.74,0.36,0.92,-21,0,-16,0.83,10053,47,108,43,55,1048,512.0,556,464,60,120.0,276,1,401,337,129,0,0,537,17136,-2336,466,-5.59,,,,,,,,,,,,
20524,1564156375769,0,1.97,0.46,0.28,0.93,0.78,0.79,0.49,0.95,-23,0,-18,0.94,10010,47,108,43,54,1026,515.0,555,464,60,119.0,276,1,400,328,129,0,0,535,-14,-8962,466,-5.59,,,,,,,,,,,,
20544,1564156375789,1,1.97,0.47,0.28,0.94,0.79,0.73,0.48,0.93,-25,-0,-22,0.87,9968,47,108,43,55,1019,517.0,561,457,60,120.0,276,1,401,337,129,0,0,537,15679,-2934,466,-5.59,44.6814,10.024667,47.97,176.6,0,0.0,-1,0.0,0.0,0,0.21,0.3424
20564,1564156375809,2,1.97,0.47,0.27,0.94,0.78,0.83,0.63,0.91,-27,1,-24,1.04,9984,47,108,43,55,1012,520.0,567,463,60,120.0,276,1,401,328,129,0,0,543,1248,2524,467,-5.59,,,,,,,,,,,,
20584,1564156375829,1,1.98,0.48,0.27,0.93,0.78,0.84,0.69,0.94,-28,0,-27,1.09,10037,47,108,43,54,1000,520.0,573,465,60,121.0,272,1,400,328,128,0,0,537,1248,1780,467,-5.59,,,,,,,,,,,,
20604,1564156375849,-1,1.98,0.48,0.28,0.95,0.78,0.78,0.75,0.97,-29,2,-29,1.09,10021,47,108,42,54,989,523.0,577,460,60,120.0,272,1,400,328,128,0,0,540,-22519,-28648,468,-5.59,,,,,,,,,,,,
20624,1564156375869,0,1.97,0.49,0.27,0.95,0.79,0.86,0.86,0.95,-30,1,-32,1.22,10151,47,108,42,54,984,521.0,578,463,60,119.0,272,1,400,331,128,0,0,540,-9212,2524,468,-5.59,,,,,,,,,,,,
20644,1564156375893,1,1.98,0.5,0.28,0.95,0.79,0.87,0.96,0.94,-31,0,-34,1.3,10217,47,108,43,54,980,524.0,585,470,60,121.0,272,1,400,332,128,0,0,539,10408,-8186,468,-5.59,44.681396,10.024699,48.46,176.6,0,0.0,-1,0.0,0.0,0,0.21,0.3441
20664,1564156375913,-0,1.99,0.51,0.28,0.96,0.79,0.93,1.07,1.05,-32,-1,-36,1.42,10229,47,108,42,54,972,522.0,597,462,60,120.0,272,1,400,332,128,0,0,544,2524,2524,470,-5.59,,,,,,,,,,,,
20684,1564156375933,0,1.99,0.51,0.28,0.97,0.8,0.9,1.07,1.07,-32,-0,-36,1.39,10307,46,108,42,54,964,522.0,582,460,60,120.0,277,1,400,334,130,0,0,548,2524,-506,470,-5.59,,,,,,,,,,,,
20704,1564156375953,-0,1.99,0.51,0.28,0.96,0.8,0.81,1.05,1.06,-32,1,-37,1.32,10257,42,108,42,53,960,526.0,586,468,60,119.0,277,1,397,321,130,0,0,548,-32248,2104,469,-5.59,,,,,,,,,,,,
20724,1564156375973,1,1.99,0.52,0.29,0.97,0.8,0.73,1.03,0.96,-32,-2,-39,1.27,10290,38,108,42,51,956,522.0,583,468,60,119.0,277,1,391,311,130,0,0,547,2524,-30159,469,-5.59,,,,,,,,,,,,
20744,1564156375993,-0,2.02,0.52,0.29,0.97,0.79,0.7,1.04,0.9,-33,-0,-37,1.26,10313,37,108,42,50,954,523.0,603,468,60,120.0,277,1,388,288,130,0,0,549,-22519,1760,469,-5.59,44.681396,10.024699,48.46,176.6,0,0.0,-1,0.0,0.0,0,0.21,0.3457
20764,1564156376005,-1,2.05,0.53,0.29,0.97,0.81,0.83,1.12,0.86,-33,-1,-41,1.39,10353,37,108,42,49,952,526.0,591,463,60,120.0,277,1,385,277,130,0,0,539,-22519,1,473,-5.59,,,,,,,,,,,,
20784,1564156376025,3,2.07,0.53,0.29,0.97,0.8,0.87,1.17,0.87,-35,-3,-42,1.46,10376,37,108,42,48,952,525.0,606,465,60,120.0,217,1,382,266,103,0,0,543,-28648,243,476,-5.59,,,,,,,,,,,,
20804,1564156376045,1,2.11,0.53,0.29,0.97,0.8,0.93,1.25,0.88,-35,-4,-41,1.56,10399,37,108,42,47,954,527.0,603,460,60,120.0,217,1,380,266,103,0,0,533,-32248,-1894,479,-5.59,,,,,,,,,,,,
20824,1564156376065,0,2.16,0.54,0.29,0.98,0.81,0.88,1.16,0.95,-36,-3,-42,1.46,10439,37,108,42,48,946,523.0,610,464,60,119.0,217,1,382,256,103,0,0,533,-22519,-1894,481,-5.59,,,,,,,,,,,,
20844,1564156376093,2,2.2,0.54,0.29,0.99,0.8,0.99,0.99,0.99,-36,-1,-40,1.4,10422,37,108,42,47,936,524.0,610,462,60,121.0,217,1,380,256,103,0,0,529,2088,6273,481,-5.59,44.681396,10.024734,49.91,176.6,0,0.0,-1,0.0,0.0,0,0.21,0.3474
20864,1564156376113,2,2.26,0.56,0.3,0.99,0.81,0.95,0.93,1.03,-35,-3,-41,1.33,10480,37,109,42,47,925,521.0,612,469,60,120.0,217,1,380,256,103,0,0,531,-9212,-3210,484,-5.59,,,,,,,,,,,,
20884,1564156376133,2,2.32,0.61,0.31,1.05,0.84,0.97,0.82,1.08,-32,-4,-42,1.27,10504,36,109,42,47,914,522.0,603,462,60,120.0,208,1,380,256,101,0,0,528,1248,-3820,486,-5.59,,,,,,,,,,,,
20904,1564156376153,2,2.36,0.68,0.33,1.11,0.86,0.95,0.62,1.17,-28,-5,-42,1.13,10599,36,109,42,47,893,519.0,604,465,60,120.0,208,1,380,256,101,0,0,524,16383,-23055,491,-5.59,,,,,,,,,,,,
20924,1564156376173,3,2.4,0.74,0.35,1.17,0.89,0.98,0.43,1.25,-25,-1,-42,1.07,10569,37,109,42,47,869,514.0,602,473,60,119.0,208,1,380,256,101,0,0,526,26178,1010,495,-5.59,,,,,,,,,,,,
20944,1564156376193,2,2.44,0.84,0.39,1.21,0.95,1.01,0.59,1.32,-23,4,-40,1.17,10587,36,109,42,47,851,515.0,616,468,60,120.0,208,1,380,256,101,0,0,525,15679,-2336,502,-5.59,44.6814,10.024752,50.08,176.6,0,0.0,-1,0.0,0.0,0,0.21,0.3491
20964,1564156376213,2,2.46,0.99,0.43,1.32,1.01,1.05,0.54,1.39,-21,4,-35,1.19,10285,37,109,42,47,838,512.0,601,463,60,118.0,208,1,380,265,101,0,0,529,-4054,-32248,512,-5.59,,,,,,,,,,,,
20984,1564156376233,1,2.49,1.06,0.47,1.35,1.04,0.93,0.51,1.44,-17,5,-32,1.06,10026,37,109,42,48,826,522.0,596,464,60,121.0,194,1,382,265,101,0,0,526,-21872,-506,522,-5.59,,,,,,,,,,,,
21004,1564156376253,2,2.52,1.1,0.49,1.37,1.07,1.01,0.38,1.29,-12,5,-28,1.08,9770,36,109,42,48,812,525.0,596,471,60,120.0,194,1,382,261,101,0,0,524,-3414,-32248,525,-5.59,,,,,,,,,,,,
21024,1564156376273,0,2.56,1.12,0.5,1.4,1.09,0.98,0.19,1.34,-6,3,-25,0.99,9595,36,109,42,47,804,530.0,568,463,60,120.0,194,1,380,246,101,0,0,518,6274,2104,530,-5.59,,,,,,,,,,,,
21044,1564156376293,1,2.59,1.14,0.51,1.42,1.09,1.08,-0.0,1.32,-1,4,-21,1.08,9571,37,109,42,46,804,533.0,569,467,60,120.0,194,1,372,243,101,0,0,521,-32248,-506,533,-5.59,44.6814,10.024769,50.04,176.6,0,0.0,-1,0.0,0.0,0,0.21,0.3507
21064,1564156376313,-1,2.62,1.15,0.51,1.42,1.09,1.03,-0.16,1.21,4,0,-16,1.05,9684,36,109,42,46,802,532.0,556,470,60,119.0,194,1,372,244,101,0,0,518,10408,1780,532,-5.59,,,,,,,,,,,,
21084,1564156376333,2,2.63,1.15,0.51,1.42,1.09,1.02,-0.3,1.14,7,-2,-12,1.07,9796,36,109,42,46,799,535.0,562,466,60,120.0,168,1,372,246,90,0,0,518,3,-2336,534,-5.59,,,,,,,,,,,,
21104,1564156376353,1,2.65,1.15,0.5,1.42,1.08,0.93,-0.41,1.1,9,-2,-7,1.02,9894,37,109,42,45,796,533.0,559,470,60,120.0,168,1,365,245,90,0,0,532,998,-32248,534,-5.59,,,,,,,,,,,,
21124,1564156376373,2,2.67,1.14,0.5,1.42,1.08,0.9,-0.41,0.92,11,-0,-0,0.98,10075,36,109,42,45,794,534.0,562,473,60,119.0,168,1,365,247,90,0,0,553,-6528,2104,533,-5.59,,,,,,,,,,,,
21144,1564156376393,2,2.69,1.14,0.5,1.42,1.07,0.86,-0.53,0.84,15,2,2,1.01,10217,37,109,42,45,804,532.0,570,469,60,120.0,168,1,365,247,90,0,0,557,-32768,-8186,532,-5.59,44.6814,10.024787,52.04,176.7,0,0.0,-1,0.0,0.0,0,0.21,0.3524
21164,1564156376413,2,2.71,1.14,0.5,1.42,1.07,0.94,-0.6,0.9,18,4,5,1.12,10319,36,109,42,45,830,535.0,592,468,60,120.0,168,1,365,247,90,0,0,553,-32768,-3082,535,-5.59,,,,,,,,,,,,
21184,1564156376433,0,2.72,1.14,0.5,1.42,1.07,0.95,-0.73,1.01,21,5,7,1.2,10492,36,109,42,45,856,535.0,600,467,60,120.0,182,1,365,247,98,0,0,559,-32768,-3082,535,-5.59,,,,,,,,,,,,
21204,1564156376453,-2,2.74,1.14,0.5,1.42,1.07,0.94,-0.8,1.02,23,6,10,1.24,10515,37,109,42,45,884,531.0,595,469,60,120.0,182,1,365,247,98,0,0,3445,1,14504,531,-5.59,,,,,,,,,,,,
21224,1564156376473,-1,2.74,1.14,0.5,1.41,1.07,0.89,-0.9,0.99,25,6,13,1.27,10336,36,109,42,45,913,531.0,587,461,60,122.0,182,1,365,247,98,0,0,3445,1,1780,531,181.28,,,,,,,,,,,,
21244,1564156376491,-0,2.75,1.13,0.49,1.41,1.06,0.85,-1.01,0.79,26,6,17,1.32,10032,36,109,42,47,939,529.0,578,460,60,121.0,182,1,380,256,98,0,0,3445,1,2104,528,-5.59,44.681404,10.024804,51.26,176.7,0,0.0,-1,0.0,0.0,0,0.22,0.3541
21264,1564156376511,-0,2.75,1.13,0.49,1.41,1.06,0.93,-0.97,0.68,27,4,20,1.34,9842,37,109,42,48,961,524.0,566,470,60,123.0,182,1,382,261,98,0,0,3445,1,-2934,526,181.28,,,,,,,,,,,,
21284,1564156376531,-1,2.76,1.12,0.47,1.4,1.05,0.88,-1.06,0.59,27,4,23,1.38,9654,37,109,42,48,958,522.0,555,460,60,122.0,181,1,382,260,95,0,0,29,505,14504,522,181.28,,,,,,,,,,,,
21304,1564156376551,2,2.76,1.12,0.47,1.41,1.05,0.94,-1.1,0.55,27,2,24,1.45,9770,37,109,42,49,958,519.0,552,465,60,122.0,181,1,385,272,95,0,0,565,-6441,-28648,519,-5.59,,,,,,,,,,,,
21324,1564156376571,1,2.76,1.12,0.47,1.41,1.04,0.96,-1.19,0.66,27,2,27,1.53,9931,37,109,42,48,968,519.0,553,473,60,119.0,181,1,382,263,95,0,0,561,-1562,-22519,519,-5.59,,,,,,,,,,,,
21344,1564156376591,0,2.76,1.12,0.48,1.4,1.05,0.94,-1.19,0.61,27,1,29,1.52,10146,37,109,42,47,977,514.0,569,465,60,120.0,181,1,380,256,95,0,0,557,3580,-8187,514,-5.59,44.681404,10.024804,51.26,176.7,0,0.0,-1,0.0,0.0,0,0.22,0.3557
21364,1564156376608,0,2.76,1.11,0.48,1.4,1.06,0.95,-1.12,0.43,28,1,31,1.47,10285,37,109,42,47,988,517.0,510,472,60,121.0,181,1,380,251,95,0,0,548,16648,2524,516,-5.59,,,,,,,,,,,,
21384,1564156376628,3,2.75,1.12,0.48,1.41,1.05,0.93,-1.13,0.32,29,1,32,1.47,10428,37,109,42,46,1000,519.0,405,465,60,119.0,191,1,372,251,99,0,0,540,-17956,14504,519,-5.59,,,,,,,,,,,,
21404,1564156376648,1,2.75,1.13,0.48,1.4,1.06,0.92,-1.07,0.22,31,1,34,1.41,10611,37,109,42,46,1008,517.0,353,466,60,121.0,191,1,372,251,99,0,0,539,3576,6274,517,-5.59,,,,,,,,,,,,
21424,1564156376668,-1,2.76,1.12,0.48,1.4,1.06,0.9,-1.06,0.12,31,-0,37,1.39,10689,37,109,42,46,1017,511.0,315,465,60,122.0,191,1,372,251,99,0,0,1436,-3210,2524,511,-5.59,,,,,,,,,,,,
21444,1564156376688,-0,2.75,1.12,0.48,1.41,1.05,0.82,-1.1,0.02,31,0,38,1.37,10492,37,109,42,46,1015,511.0,298,462,60,121.0,191,1,372,251,99,0,0,1436,-16384,10408,512,-5.59,44.681404,10.024822,51.0,176.7,0,0.0,-1,0.0,0.0,0,0.22,0.3574
21464,1564156376710,-1,2.75,1.12,0.48,1.4,1.05,0.81,-1.11,0.01,31,1,40,1.38,10173,37,109,42,47,1013,512.0,289,465,60,122.0,191,1,380,256,99,0,0,1436,243,-28648,512,181.28,,,,,,,,,,,,
21484,1564156376730,-0,2.75,1.11,0.47,1.39,1.03,0.75,-1.17,0.09,32,0,41,1.39,9873,37,109,42,48,993,511.0,285,458,60,122.0,191,1,382,262,98,0,0,1436,243,-28648,511,-5.59,,,,,,,,,,,,
21504,1564156376750,1,2.75,1.1,0.46,1.39,1.04,0.76,-1.26,0.08,32,0,41,1.47,9654,37,109,42,49,972,510.0,283,473,60,120.0,191,1,385,271,98,0,0,568,-3210,-22519,510,-5.59,,,,,,,,,,,,
21524,1564156376770,0,2.75,1.1,0.46,1.39,1.02,0.77,-1.33,0.13,33,0,40,1.54,9821,37,109,42,49,954,509.0,277,470,60,120.0,191,1,385,273,98,0,0,565,16408,2524,509,-5.59,,,,,,,,,,,,
21544,1564156376790,0,2.74,1.11,0.46,1.39,1.02,0.81,-1.39,0.05,33,-1,41,1.61,10053,37,109,42,48,935,508.0,277,467,60,120.0,191,1,382,265,98,0,0,561,16408,-3482,508,-5.59,44.681404,10.02484,50.33,176.8,0,0.0,-1,0.0,0.0,0,0.22,0.3591
21564,1564156376810,0,2.75,1.11,0.47,1.4,1.03,0.81,-1.42,-0.01,34,-1,41,1.63,10195,37,109,42,47,952,509.0,290,466,60,120.0,191,1,380,256,98,0,0,556,6193,16383,509,-5.59,,,,,,,,,,,,
21584,1564156376830,2,2.74,1.1,0.46,1.39,1.03,0.83,-1.38,-0.02,35,-1,42,1.61,10330,37,109,42,47,972,508.0,287,465,60,120.0,197,1,380,256,100,0,0,558,12552,-14,508,-5.59,,,,,,,,,,,,
21604,1564156376850,3,2.74,1.11,0.46,1.39,1.03,0.78,-1.36,0.07,36,-1,42,1.57,10510,37,109,42,47,1004,507.0,289,466,60,120.0,197,1,380,256,100,0,0,554,-9160,16383,507,-5.59,,,,,,,,,,,,
21624,1564156376870,-0,2.74,1.1,0.46,1.39,1.03,0.81,-1.28,0.02,36,-1,44,1.52,10557,37,109,42,46,1042,509.0,286,465,60,121.0,197,1,372,251,100,0,0,555,17628,-9212,509,-5.59,,,,,,,,,,,,
21644,1564156376892,-0,2.75,1.1,0.46,1.38,1.02,0.78,-1.24,-0.08,37,1,46,1.46,10557,37,109,42,46,1053,509.0,288,471,60,120.0,197,1,372,251,100,0,0,584,17628,-32248,509,-5.59,44.6814,10.024874,48.7,176.8,0,0.0,-1,0.0,0.0,0,0.22,0.3607
21664,1564156376912,3,2.74,1.09,0.45,1.38,1.02,0.76,-1.2,-0.13,38,2,48,1.43,10405,37,109,42,46,1055,511.0,283,463,60,120.0,197,1,372,251,100,0,0,609,17628,-22519,512,-5.59,,,,,,,,,,,,
21684,1564156376932,1,2.75,1.08,0.45,1.37,1.01,0.73,-1.21,-0.11,38,2,48,1.41,10439,37,109,42,46,1030,512.0,289,465,60,120.0,195,1,372,251,100,0,0,625,2524,-32248,511,-5.59,,,,,,,,,,,,
21704,1564156376952,3,2.74,1.07,0.44,1.37,0.99,0.76,-1.19,-0.04,39,1,48,1.42,10445,37,109,42,46,993,509.0,292,468,60,120.0,195,1,372,251,100,0,0,624,-9160,-14,509,-5.59,,,,,,,,,,,,
21724,1564156376972,4,2.75,1.07,0.44,1.36,1.0,0.74,-1.2,-0.06,39,1,48,1.41,10587,37,109,42,46,955,505.0,298,464,60,120.0,195,1,372,251,100,0,0,627,14488,16383,505,-5.59,,,,,,,,,,,,
21744,1564156376992,1,2.74,1.08,0.43,1.37,1.0,0.73,-1.2,-0.06,39,-1,48,1.4,10569,37,109,42,47,917,501.0,313,470,60,120.0,195,1,380,256,100,0,0,621,14488,-3856,501,-5.59,44.6814,10.024874,48.7,176.8,0,0.0,-1,0.0,0.0,0,0.22,0.3624
21764,1564156377004,1,2.74,1.08,0.44,1.38,1.01,0.71,-1.18,-0.19,40,-1,48,1.38,10695,37,109,42,46,898,499.0,313,468,60,119.0,195,1,372,256,100,0,0,620,-6387,10994,499,-5.59,,,,,,,,,,,,
21784,1564156377024,1,2.72,1.08,0.45,1.37,1.01,0.72,-1.19,-0.26,41,-2,49,1.39,10751,37,109,42,47,898,502.0,311,465,60,119.0,208,1,380,256,104,0,0,625,3571,-28648,502,-5.59,,,,,,,,,,,,
21804,1564156377044,1,2.71,1.09,0.45,1.37,1.02,0.78,-1.27,-0.17,42,-2,49,1.49,10695,37,109,42,47,900,502.0,310,467,60,120.0,208,1,380,256,104,0,0,633,3571,-21872,502,-5.59,,,,,,,,,,,,
21824,1564156377064,-0,2.7,1.08,0.45,1.37,1.02,0.81,-1.28,0.04,43,-2,48,1.52,10726,38,109,42,47,903,505.0,323,466,60,121.0,208,1,380,256,104,0,0,642,-3267,-4054,505,-5.59,,,,,,,,,,,,
21844,1564156377094,3,2.69,1.09,0.44,1.37,1.0,0.85,-1.3,0.12,42,-1,49,1.55,10653,38,109,42,47,906,506.0,324,464,60,120.0,208,1,380,256,104,0,0,650,16648,-21872,502,-5.59,44.681389,10.024905,48.04,176.7,0,0.0,-1,0.0,0.0,0,0.22,0.3641
21864,1564156377114,2,2.69,1.07,0.43,1.35,0.99,0.84,-1.34,0.1,42,-1,49,1.58,10751,38,109,42,47,909,501.0,336,465,60,120.0,208,1,380,267,104,0,0,656,8488,-4054,501,-5.59,,,,,,,,,,,,
21884,1564156377134,-0,2.67,1.06,0.42,1.35,0.98,0.85,-1.28,0.09,41,-1,50,1.54,10732,38,109,42,48,908,500.0,325,466,60,120.0,215,1,382,267,108,0,0,645,10305,-21872,500,-5.59,,,,,,,,,,,,
21904,1564156377154,2,2.69,1.07,0.42,1.36,0.98,0.83,-1.27,-0.12,41,0,51,1.51,10751,38,109,42,47,904,498.0,321,467,60,119.0,215,1,380,256,108,0,0,656,8488,771,498,-5.59,,,,,,,,,,,,
21924,1564156377174,2,2.69,1.07,0.43,1.36,0.98,0.84,-1.32,0.04,40,-1,52,1.56,10869,38,109,42,48,898,496.0,327,472,60,120.0,215,1,382,267,108,0,0,647,2131,10408,496,-5.59,,,,,,,,,,,,
21944,1564156377194,2,2.69,1.08,0.43,1.37,1.0,0.83,-1.28,0.23,39,0,51,1.53,10806,38,109,42,48,890,495.0,321,468,60,120.0,215,1,382,267,108,0,0,653,10305,2109,494,-5.59,44.681389,10.024905,48.04,176.7,0,0.0,-1,0.0,0.0,0,0.23,0.3657
21964,1564156377208,-2,2.7,1.08,0.43,1.36,1.0,0.84,-1.33,0.23,39,0,50,1.57,10819,38,109,42,48,881,493.0,312,465,60,121.0,215,1,382,267,108,0,0,658,2131,-32248,493,-5.59,,,,,,,,,,,,
21984,1564156377228,0,2.7,1.09,0.43,1.38,1.0,0.84,-1.27,0.2,39,0,51,1.52,10744,38,109,42,48,870,495.0,303,466,60,121.0,220,1,382,267,109,0,0,662,-18341,-32248,495,-5.59,,,,,,,,,,,,
22004,1564156377248,2,2.69,1.09,0.44,1.37,1.02,0.82,-1.27,-0.02,38,0,51,1.51,10819,38,109,42,48,861,491.0,302,471,60,120.0,220,1,382,267,109,0,0,662,23400,11560,491,-5.59,,,,,,,,,,,,
22024,1564156377268,-2,2.7,1.1,0.44,1.38,1.02,0.86,-1.34,0.14,37,-1,51,1.59,10825,38,109,42,48,858,490.0,295,466,60,120.0,220,1,382,267,109,0,0,657,26704,771,490,-5.59,,,,,,,,,,,,
22044,1564156377294,2,2.7,1.11,0.45,1.38,1.02,0.9,-1.36,0.33,37,-2,50,1.63,10763,38,109,42,48,856,485.0,292,468,60,119.0,220,1,382,267,109,0,0,646,26704,-32768,485,-5.59,44.681377,10.024931,47.09,176.7,0,0.0,-1,0.0,0.0,0,0.23,0.3674
22064,1564156377314,2,2.68,1.11,0.45,1.38,1.03,0.87,-1.43,0.4,37,-1,48,1.67,10813,38,109,42,48,855,486.0,287,463,60,120.0,220,1,382,267,109,0,0,617,-18341,2109,486,-5.59,,,,,,,,,,,,
22084,1564156377334,2,2.65,1.12,0.46,1.39,1.03,0.93,-1.35,0.37,37,-1,48,1.64,10665,38,109,42,49,855,488.0,281,470,60,121.0,232,1,385,279,114,0,0,623,23400,-3414,488,-5.59,,,,,,,,,,,,
22104,1564156377354,-0,2.64,1.11,0.46,1.39,1.04,0.92,-1.31,0.33,36,2,47,1.6,10575,38,109,42,49,857,494.0,283,466,60,120.0,232,1,385,279,114,0,0,634,-18341,-21872,494,-5.59,,,,,,,,,,,,
22124,1564156377374,2,2.61,1.11,0.46,1.39,1.04,0.91,-1.22,0.31,35,1,48,1.52,10393,38,109,42,49,861,493.0,276,468,60,120.0,232,1,385,278,114,0,0,625,-18341,-28648,493,-5.59,,,,,,,,,,,,
22144,1564156377394,2,2.6,1.11,0.46,1.39,1.04,0.88,-1.17,0.3,35,1,48,1.46,10434,39,109,42,49,867,493.0,277,463,60,121.0,232,1,385,278,114,0,0,601,23400,-21872,494,-5.59,44.681366,10.024941,46.99,176.6,0,0.0,-1,0.0,0.0,0,0.23,0.3691
22164,1564156377414,2,2.58,1.11,0.46,1.4,1.04,0.89,-1.13,0.37,34,1,48,1.44,10364,39,109,42,49,872,496.0,280,465,60,120.0,232,1,385,278,114,0,0,572,2131,-3414,495,-5.59,,,,,,,,,,,,
22184,1564156377434,2,2.55,1.12,0.47,1.4,1.05,0.83,-1.16,0.49,33,1,48,1.43,10313,39,109,42,48,876,496.0,286,471,60,120.0,210,1,382,265,104,0,0,561,2131,1248,496,-5.59,,,,,,,,,,,,
22204,1564156377454,1,2.52,1.12,0.48,1.4,1.07,0.85,-1.19,0.64,34,2,47,1.46,10102,39,109,42,48,879,502.0,296,465,60,120.0,210,1,382,265,104,0,0,523,-9160,-2934,502,-5.59,,,,,,,,,,,,
22224,1564156377474,2,2.48,1.13,0.49,1.41,1.08,0.9,-1.18,0.67,34,4,46,1.48,9910,39,109,42,47,884,507.0,300,463,60,119.0,210,1,380,253,104,0,0,538,-18108,-9072,507,-5.59,,,,,,,,,,,,
22244,1564156377494,-0,2.46,1.12,0.49,1.4,1.08,0.83,-1.18,0.8,33,5,44,1.44,9725,39,109,42,47,889,508.0,300,457,60,121.0,210,1,380,249,104,0,0,533,2211,-9072,508,-5.59,44.681358,10.024951,47.33,176.6,0,0.0,-1,0.0,0.0,0,0.23,0.3707
22264,1564156377514,1,2.42,1.13,0.49,1.41,1.08,0.86,-1.12,0.78,32,4,43,1.41,9527,39,109,42,47,890,509.0,313,468,60,119.0,210,1,380,247,104,0,0,498,16408,-32248,509,-5.59,,,,,,,,,,,,
22284,1564156377534,2,2.38,1.13,0.49,1.41,1.07,0.78,-1.11,0.67,30,4,42,1.36,9398,39,109,42,47,892,508.0,315,467,60,120.0,171,1,377,243,87,0,0,521,32033,-8187,504,-5.59,,,,,,,,,,,,
22304,1564156377554,-1,2.35,1.12,0.48,1.4,1.07,0.86,-1.14,0.77,28,2,40,1.43,9319,39,110,42,48,911,506.0,317,463,60,121.0,171,1,379,255,87,0,0,502,-899,15679,505,-5.59,,,,,,,,,,,,
22324,1564156377574,1,2.32,1.11,0.48,1.41,1.06,0.86,-1.07,0.85,25,3,37,1.37,9319,39,110,42,47,931,500.0,334,467,60,121.0,171,1,377,255,87,0,0,499,-6441,-28648,501,-5.59,,,,,,,,,,,,
22344,1564156377594,2,2.29,1.1,0.47,1.39,1.05,0.92,-0.95,0.73,22,1,34,1.33,9337,39,110,42,48,949,499.0,351,470,60,120.0,171,1,379,254,87,0,0,505,-6656,2109,499,-5.59,44.681347,10.024961,48.62,176.6,0,0.0,-1,0.0,0.0,0,0.23,0.3724
22364,1564156377614,3,2.26,1.06,0.45,1.37,1.03,0.89,-0.78,0.56,17,-0,33,1.19,9407,40,110,42,48,967,496.0,374,466,60,120.0,171,1,381,255,87,0,0,503,3,11560,494,-5.59,,,,,,,,,,,,
22384,1564156377634,0,2.25,1.04,0.45,1.35,1.02,0.84,-0.7,0.7,13,-1,31,1.1,9455,40,110,42,48,1016,498.0,393,463,60,121.0,185,1,382,257,92,0,0,503,-22519,2524,496,-5.59,,,,,,,,,,,,
22404,1564156377654,1,2.22,0.98,0.43,1.3,0.99,0.81,-0.56,0.79,9,1,28,0.99,9512,40,110,42,48,1066,503.0,414,463,60,121.0,185,1,382,258,92,0,0,510,6274,11560,495,-5.59,,,,,,,,,,,,
22424,1564156377674,2,2.21,0.74,0.37,1.15,0.9,0.8,-0.38,0.53,6,-0,24,0.89,9508,40,110,42,48,1103,507.0,435,470,60,120.0,185,1,382,258,92,0,0,513,-21872,-28648,493,-5.59,,,,,,,,,,,,
22444,1564156377693,0,2.19,0.48,0.29,0.99,0.79,0.83,-0.24,0.47,4,-2,20,0.87,9503,40,110,42,48,1135,509.0,455,455,60,119.0,185,1,382,258,92,0,0,516,10994,26178,492,-5.59,44.681339,10.024968,49.35,176.5,0,0.0,-1,0.0,0.0,0,0.23,0.3741
22464,1564156377713,2,2.18,0.31,0.23,0.86,0.72,0.85,-0.25,0.62,2,-3,14,0.88,9527,40,110,42,48,1169,508.0,472,467,60,119.0,185,1,382,258,92,0,0,519,-3414,-21872,493,-5.59,,,,,,,,,,,,
22484,1564156377733,0,2.16,0.24,0.19,0.82,0.67,0.83,-0.13,0.66,-0,-4,9,0.84,9600,40,110,42,48,1203,510.0,484,468,60,119.0,191,1,382,260,94,0,0,515,-4054,-3414,493,-5.59,,,,,,,,,,,,
22504,1564156377753,0,2.14,0.22,0.19,0.8,0.64,0.79,-0.02,0.61,-2,-3,8,0.79,9650,39,110,42,48,1214,508.0,488,467,60,120.0,191,1,382,262,94,0,0,513,-3414,-21872,490,-5.59,,,,,,,,,,,,
22524,1564156377773,2,2.14,0.26,0.19,0.82,0.66,0.89,-0.02,0.62,-5,-4,5,0.89,9630,28,110,42,48,1216,512.0,493,466,60,119.0,191,1,382,262,94,0,0,516,17136,15679,490,-5.59,,,,,,,,,,,,
22544,1564156377793,1,2.15,0.28,0.19,0.84,0.66,0.85,0.19,0.59,-6,-4,2,0.87,9625,40,110,42,48,1210,516.0,502,453,60,119.0,191,1,382,290,94,0,0,520,16383,10408,490,-5.59,44.681324,10.024976,49.51,176.5,0,0.0,-1,0.0,0.0,0,0.23,0.3757
22564,1564156377813,1,2.14,0.31,0.2,0.86,0.67,0.96,0.13,0.66,-8,-4,-0,0.97,9679,41,110,42,48,1203,515.0,514,463,60,120.0,191,1,382,174,94,0,0,518,-14,15679,491,-5.59,,,,,,,,,,,,
22584,1564156377833,1,2.14,0.33,0.21,0.87,0.68,0.84,0.23,0.64,-9,-4,-3,0.87,9791,41,110,42,48,1194,519.0,521,465,60,119.0,214,1,382,283,105,0,0,520,-8187,-22519,494,-5.59,,,,,,,,,,,,
22604,1564156377853,3,2.14,0.34,0.22,0.87,0.69,0.85,0.24,0.64,-10,-2,-5,0.88,9796,41,110,42,48,1185,517.0,534,467,60,120.0,214,1,382,275,105,0,0,524,15679,14504,491,-5.59,,,,,,,,,,,,
22624,1564156377873,0,2.15,0.36,0.22,0.88,0.7,0.83,0.32,0.62,-11,-1,-8,0.89,9873,41,110,42,48,1174,520.0,541,463,60,120.0,214,1,382,271,105,0,0,525,1248,-8187,493,-5.59,,,,,,,,,,,,
22644,1564156377893,-1,2.15,0.37,0.24,0.88,0.7,0.73,0.3,0.61,-12,-3,-10,0.79,9941,41,110,42,48,1163,523.0,541,469,60,120.0,214,1,382,266,105,0,0,527,-22519,6274,495,-5.59,44.681316,10.024984,49.7,176.4,0,0.0,-1,0.0,0.0,0,0.24,0.3774
22664,1564156377913,1,2.14,0.37,0.24,0.89,0.71,0.74,0.34,0.6,-13,0,-11,0.82,9957,41,110,42,48,1157,524.0,546,460,60,120.0,214,1,382,266,105,0,0,529,10408,-32248,493,-5.59,,,,,,,,,,,,
22684,1564156377933,1,2.14,0.39,0.24,0.89,0.71,0.69,0.44,0.6,-14,-1,-12,0.82,9925,41,110,42,48,1156,526.0,547,462,60,120.0,200,1,382,265,99,0,0,533,-32248,2524,496,-5.59,,,,,,,,,,,,
22704,1564156377953,2,2.15,0.4,0.24,0.91,0.72,0.7,0.5,0.58,-15,-2,-13,0.86,9899,41,110,42,48,1143,526.0,548,467,60,119.0,200,1,382,264,99,0,0,534,-32248,14504,497,-5.59,,,,,,,,,,,,
22724,1564156377973,0,2.14,0.4,0.25,0.9,0.72,0.65,0.57,0.59,-15,0,-15,0.86,9931,41,110,42,48,1120,525.0,555,466,60,120.0,200,1,382,265,99,0,0,532,2088,14504,498,-5.59,,,,,,,,,,,,
22744,1564156377993,1,2.14,0.41,0.25,0.92,0.72,0.59,0.63,0.53,-15,-2,-15,0.86,9878,41,110,42,48,1097,528.0,572,469,60,120.0,200,1,382,264,99,0,0,530,-28648,6274,499,-5.59,44.681316,10.024984,49.7,176.4,0,0.0,-1,0.0,0.0,0,0.24,0.3791
22764,1564156378003,1,2.14,0.42,0.25,0.92,0.72,0.66,0.71,0.54,-15,-3,-16,0.96,9868,41,110,42,48,1075,528.0,560,460,60,120.0,200,1,382,264,99,0,0,533,-28648,-30064,500,-5.59,,,,,,,,,,,,
22784,1564156378023,1,2.14,0.42,0.25,0.92,0.72,0.62,0.84,0.56,-16,-2,-17,1.04,9936,41,110,42,48,1058,529.0,572,466,60,119.0,197,1,382,265,99,0,0,539,-9072,-9072,501,-5.59,,,,,,,,,,,,
22804,1564156378043,2,2.15,0.43,0.25,0.94,0.73,0.69,0.92,0.48,-17,-2,-17,1.15,9915,41,110,42,48,1046,530.0,562,468,60,119.0,197,1,382,265,99,0,0,535,2524,-28648,503,-5.59,,,,,,,,,,,,
22824,1564156378063,2,2.16,0.44,0.27,0.94,0.73,0.73,0.98,0.55,-17,-2,-19,1.22,9936,41,110,42,48,1039,531.0,568,472,60,120.0,197,1,382,265,99,0,0,536,2104,2524,504,-5.59,,,,,,,,,,,,
22844,1564156378091,1,2.17,0.46,0.27,0.96,0.74,0.67,1.06,0.54,-17,-1,-19,1.25,10042,41,110,42,48,1049,531.0,567,466,60,120.0,197,1,382,267,99,0,0,535,-22519,-30064,503,-5.59,44.681294,10.025003,50.44,176.4,0,0.0,-1,0.0,0.0,0,0.24,0.3807
22864,1564156378111,-1,2.17,0.46,0.26,0.95,0.73,0.69,1.13,0.44,-17,-2,-19,1.32,10053,41,110,42,48,1065,532.0,576,469,60,119.0,197,1,382,278,99,0,0,539,14504,-3082,505,-5.59,,,,,,,,,,,,
22884,1564156378131,2,2.17,0.46,0.26,0.95,0.74,0.76,1.17,0.52,-18,-2,-19,1.39,10080,41,110,42,48,1087,532.0,571,463,60,120.0,210,1,382,267,106,0,0,535,14504,-2934,507,-5.59,,,,,,,,,,,,
22904,1564156378151,1,2.17,0.48,0.27,0.97,0.74,0.74,1.13,0.63,-18,-0,-20,1.35,10140,41,110,42,48,1107,533.0,574,462,60,120.0,210,1,382,267,106,0,0,540,2104,-9072,509,-5.59,,,,,,,,,,,,
22924,1564156378171,1,2.18,0.49,0.28,0.98,0.75,0.66,1.06,0.54,-18,-2,-19,1.25,10075,41,110,42,49,1120,535.0,575,468,60,120.0,210,1,385,278,106,0,0,541,6274,-8186,509,-5.59,,,,,,,,,,,,
22944,1564156378191,2,2.2,0.51,0.28,0.99,0.76,0.61,1.06,0.5,-17,-3,-19,1.23,10064,41,110,42,49,1132,536.0,577,461,60,120.0,210,1,385,278,106,0,0,542,-28648,-2336,510,-5.59,44.681282,10.025015,50.56,176.3,0,0.0,-1,0.0,0.0,0,0.24,0.3824
22964,1564156378211,1,2.23,0.53,0.3,1.01,0.77,0.61,1.09,0.52,-16,-0,-20,1.25,10118,42,110,42,49,1140,533.0,577,464,60,120.0,210,1,385,278,106,0,0,538,2104,6274,512,-5.59,,,,,,,,,,,,
22984,1564156378231,1,2.25,0.56,0.31,1.03,0.79,0.62,0.96,0.56,-15,-0,-20,1.14,10080,42,110,42,49,1146,537.0,588,467,60,119.0,207,1,385,190,106,0,0,544,-28648,1780,516,-5.59,,,,,,,,,,,,
23004,1564156378251,-1,2.29,0.62,0.33,1.07,0.82,0.57,0.76,0.57,-14,-1,-19,0.95,10107,42,110,42,49,1142,535.0,591,468,60,120.0,207,1,385,278,106,0,0,544,6274,-8962,518,-5.59,,,,,,,,,,,,
23024,1564156378271,2,2.31,0.7,0.36,1.13,0.86,0.57,0.81,0.49,-13,1,-19,0.99,10129,42,110,42,49,1137,535.0,582,460,60,119.0,207,1,385,278,106,0,0,543,-32248,-3082,523,-5.59,,,,,,,,,,,,
23044,1564156378291,1,2.35,0.83,0.4,1.2,0.92,0.66,0.68,0.59,-11,3,-19,0.95,10102,42,110,42,49,1128,533.0,575,466,60,119.0,207,1,385,278,106,0,0,539,2104,1779,527,-5.59,44.681274,10.025026,51.66,176.3,0,0.0,-1,0.0,0.0,0,0.24,0.3841
23064,1564156378311,1,2.39,0.95,0.43,1.27,0.98,0.65,0.41,0.72,-9,1,-19,0.77,10151,42,110,42,49,1119,531.0,570,465,60,119.0,207,1,385,278,106,0,0,544,-22519,-3082,531,-5.59,,,,,,,,,,,,
23084,1564156378331,-1,2.42,1.06,0.47,1.34,1.02,0.6,0.34,0.63,-7,2,-15,0.69,10118,42,110,42,49,1115,533.0,571,463,60,119.0,198,1,385,278,106,0,0,539,2524,2104,532,-5.59,,,,,,,,,,,,
23104,1564156378351,2,2.45,1.11,0.49,1.38,1.05,0.66,0.44,0.61,-4,1,-14,0.79,10184,42,110,42,49,1110,539.0,581,468,60,120.0,198,1,385,278,106,0,0,540,2524,-3082,537,-5.59,,,,,,,,,,,,
23124,1564156378371,2,2.48,1.14,0.51,1.4,1.08,0.71,0.38,0.75,-2,1,-14,0.81,10206,42,110,42,49,1100,539.0,581,470,60,120.0,198,1,385,279,106,0,0,539,6274,-8962,539,-5.59,,,,,,,,,,,,
23144,1564156378391,1,2.52,1.16,0.52,1.42,1.09,0.83,0.15,0.87,1,3,-13,0.84,10184,42,110,42,49,1091,544.0,580,463,60,120.0,198,1,385,278,106,0,0,544,10408,-22263,544,-5.59,44.681263,10.02504,52.24,176.3,0,0.0,-1,0.0,0.0,0,0.24,0.3857
23164,1564156378411,1,2.54,1.16,0.53,1.41,1.09,0.78,-0.01,0.96,4,3,-9,0.78,10273,42,110,42,49,1086,548.0,581,465,60,120.0,198,1,385,279,106,0,0,546,6274,-28648,548,-5.59,,,,,,,,,,,,
23184,1564156378431,1,2.58,1.16,0.53,1.43,1.09,0.71,-0.06,0.82,6,5,-4,0.71,10285,42,110,42,49,1081,549.0,574,472,60,120.0,196,1,385,279,108,0,0,553,1248,-22359,550,-5.59,,,,,,,,,,,,
23204,1564156378451,1,2.62,1.15,0.51,1.42,1.09,0.65,-0.13,0.62,9,3,1,0.66,10393,42,110,42,49,1076,549.0,575,470,60,119.0,196,1,385,280,108,0,0,553,2524,-23623,549,-5.59,,,,,,,,,,,,
23224,1564156378471,-0,2.65,1.16,0.52,1.43,1.08,0.59,-0.15,0.4,12,4,4,0.61,10445,42,110,42,50,1072,550.0,583,470,60,120.0,196,1,388,291,108,0,0,562,1248,12552,550,-5.59,,,,,,,,,,,,
23244,1564156378491,-0,2.68,1.16,0.52,1.42,1.08,0.63,-0.13,0.27,13,4,9,0.64,10474,42,110,42,50,1071,551.0,585,467,60,120.0,196,1,388,291,108,0,0,586,1341,-22263,551,-5.59,44.681255,10.025052,53.01,176.4,0,0.0,-1,0.0,0.0,0,0.24,0.3874
23264,1564156378511,1,2.7,1.15,0.51,1.41,1.07,0.57,-0.2,0.06,15,4,12,0.6,10587,42,110,42,50,1071,550.0,590,468,60,119.0,196,1,388,293,108,0,0,561,-14,-23623,550,-5.59,,,,,,,,,,,,
23284,1564156378531,1,2.71,1.14,0.5,1.42,1.06,0.57,-0.31,0.03,17,3,16,0.65,10708,43,110,42,50,1068,548.0,592,473,60,120.0,217,1,388,293,119,0,0,582,26178,-23623,546,-5.59,,,,,,,,,,,,
23304,1564156378551,0,2.72,1.14,0.5,1.41,1.06,0.56,-0.47,0.22,19,3,18,0.73,10726,43,110,42,50,1064,549.0,594,469,60,119.0,217,1,388,294,119,0,0,597,-21872,12552,549,-5.59,,,,,,,,,,,,
23324,1564156378571,2,2.73,1.14,0.5,1.41,1.05,0.58,-0.6,0.23,21,3,18,0.83,10856,43,110,42,50,1060,549.0,592,467,60,119.0,217,1,388,295,119,0,0,602,-21872,-2934,549,-5.59,,,,,,,,,,,,
23344,1564156378591,-1,2.73,1.14,0.5,1.41,1.05,0.65,-0.55,0.3,22,3,20,0.85,10901,43,110,42,50,1056,547.0,597,467,60,120.0,217,1,388,295,119,0,0,605,-32248,2216,547,-5.59,44.681244,10.025064,53.4,176.4,0,0.0,-1,0.0,0.0,0,0.25,0.3891
23364,1564156378611,2,2.72,1.14,0.5,1.4,1.05,0.67,-0.65,0.24,25,3,24,0.93,10997,43,110,42,50,1043,550.0,620,472,60,120.0,217,1,388,296,119,0,0,610,10994,1780,550,-5.59,,,,,,,,,,,,
23384,1564156378631,2,2.72,1.14,0.5,1.41,1.05,0.66,-0.69,0.4,26,4,24,0.96,11107,43,110,42,50,1027,552.0,616,471,60,119.0,224,1,388,296,124,0,0,620,-32248,-2934,553,-5.59,,,,,,,,,,,,
23404,1564156378651,1,2.72,1.13,0.49,1.41,1.06,0.61,-0.71,0.22,27,3,28,0.94,11107,43,110,42,50,1015,549.0,634,467,60,119.0,224,1,388,296,124,0,0,630,11560,-8186,549,-5.59,,,,,,,,,,,,
23424,1564156378671,3,2.71,1.14,0.5,1.41,1.05,0.66,-0.84,0.39,29,2,27,1.06,11134,43,110,42,50,1003,548.0,625,468,60,118.0,224,1,388,296,124,0,0,627,11560,12552,552,-5.59,,,,,,,,,,,,
23444,1564156378691,0,2.72,1.14,0.5,1.41,1.06,0.63,-0.82,0.28,30,2,29,1.04,11220,43,110,42,50,985,548.0,642,470,60,119.0,224,1,388,296,124,0,0,637,-22519,-2934,546,-5.59,44.681244,10.025064,53.4,176.4,0,0.0,-1,0.0,0.0,0,0.25,0.3907
23464,1564156378710,2,2.72,1.13,0.5,1.4,1.06,0.73,-0.94,0.45,32,-0,30,1.19,11268,43,110,42,50,964,550.0,558,466,60,119.0,224,1,388,296,124,0,0,645,-22519,12552,548,-5.59,,,,,,,,,,,,
23484,1564156378730,2,2.72,1.14,0.5,1.4,1.06,0.75,-0.88,0.33,32,-1,33,1.16,11281,43,110,42,50,949,546.0,450,468,60,120.0,229,1,388,296,126,0,0,653,10408,-32504,546,-5.59,,,,,,,,,,,,
23504,1564156378750,3,2.71,1.13,0.5,1.41,1.05,0.79,-0.99,0.49,33,0,34,1.27,11322,43,110,42,49,939,546.0,371,473,60,120.0,229,1,385,283,126,0,0,661,-9216,6273,546,-5.59,,,,,,,,,,,,
23524,1564156378770,1,2.72,1.13,0.5,1.4,1.05,0.8,-1.02,0.26,35,1,35,1.29,11398,43,110,42,49,924,546.0,333,472,60,120.0,229,1,385,283,126,0,0,666,998,2216,546,-5.59,,,,,,,,,,,,
23544,1564156378790,1,2.71,1.13,0.5,1.4,1.05,0.73,-0.98,0.36,36,2,36,1.22,11517,43,110,42,49,907,544.0,316,471,60,119.0,229,1,385,283,126,0,0,670,998,-32504,545,-5.59,44.681236,10.025075,53.14,176.4,0,0.0,-1,0.0,0.0,0,0.25,0.3924
23564,1564156378810,3,2.72,1.13,0.5,1.4,1.05,0.76,-1.08,0.52,36,1,36,1.32,11538,43,110,42,49,895,543.0,317,468,60,118.0,229,1,385,283,126,0,0,680,771,2216,543,-5.59,,,,,,,,,,,,
23584,1564156378830,2,2.71,1.13,0.5,1.4,1.04,0.78,-1.13,0.3,36,-0,38,1.37,11545,43,110,42,49,888,542.0,331,468,60,120.0,226,1,385,283,123,0,0,685,-32768,2104,542,-5.59,,,,,,,,,,,,
23604,1564156378850,2,2.72,1.12,0.5,1.4,1.05,0.73,-1.07,0.36,36,0,39,1.29,11545,43,110,42,49,880,540.0,323,468,60,119.0,226,1,385,283,123,0,0,692,-32768,6274,540,-5.59,,,,,,,,,,,,
23624,1564156378870,2,2.74,1.13,0.5,1.4,1.04,0.77,-1.09,0.44,36,1,39,1.34,11566,43,110,42,49,873,538.0,321,468,60,119.0,226,1,385,284,123,0,0,689,248,-32248,538,-5.59,,,,,,,,,,,,
23644,1564156378892,3,2.72,1.13,0.5,1.4,1.04,0.87,-1.16,0.51,36,-0,39,1.45,11517,43,110,42,49,868,538.0,332,463,60,119.0,226,1,385,283,123,0,0,698,-6656,-506,539,-5.59,44.681213,10.025093,52.24,176.4,0,0.0,-1,0.0,0.0,0,0.25,0.3941
23664,1564156378912,-0,2.72,1.13,0.5,1.41,1.04,0.82,-1.11,0.43,37,-0,40,1.38,11545,43,110,42,49,867,536.0,328,466,60,121.0,226,1,385,283,123,0,0,700,1,-8962,533,-5.59,,,,,,,,,,,,
23684,1564156378932,0,2.72,1.13,0.5,1.41,1.05,0.81,-1.2,0.43,37,-1,40,1.45,11517,44,110,42,49,866,531.0,325,465,60,118.0,232,1,385,283,124,0,0,694,-1562,-2336,531,-5.59,,,,,,,,,,,,
23704,1564156378952,2,2.72,1.12,0.5,1.41,1.04,0.91,-1.28,0.45,36,-3,41,1.57,11538,44,110,42,49,866,529.0,321,466,60,118.0,232,1,385,283,124,0,0,695,-10483,-8186,529,-5.59,,,,,,,,,,,,
23724,1564156378972,2,2.71,1.12,0.5,1.4,1.04,0.92,-1.17,0.26,36,-3,42,1.49,11488,44,110,42,49,866,530.0,322,470,60,120.0,232,1,385,283,124,0,0,695,-6441,1780,530,-5.59,,,,,,,,,,,,
23744,1564156378992,0,2.71,1.13,0.5,1.4,1.05,0.93,-1.18,0.34,36,-2,42,1.5,11538,44,110,42,49,866,528.0,342,470,60,120.0,232,1,385,296,124,0,0,692,-10483,-30064,528,-5.59,44.681213,10.025093,52.24,176.4,0,0.0,-1,0.0,0.0,0,0.25,0.3957
23764,1564156379002,-0,2.71,1.12,0.49,1.41,1.04,1.0,-1.26,0.43,36,-1,41,1.6,11531,44,110,42,49,864,525.0,342,468,60,119.0,232,1,385,284,124,0,0,689,32033,-30064,525,-5.59,,,,,,,,,,,,
23784,1564156379022,1,2.72,1.13,0.5,1.4,1.05,0.94,-1.24,0.25,36,-1,41,1.56,11574,44,110,42,49,859,525.0,333,471,60,119.0,236,1,385,284,124,0,0,688,10305,6274,525,-5.59,,,,,,,,,,,,
23804,1564156379042,0,2.71,1.13,0.49,1.41,1.04,0.85,-1.15,0.32,36,1,41,1.43,11566,44,110,42,49,853,523.0,346,470,60,118.0,236,1,385,284,124,0,0,705,8488,-30064,523,-5.59,,,,,,,,,,,,
23824,1564156379062,0,2.71,1.13,0.49,1.4,1.04,0.84,-1.19,0.49,36,1,42,1.46,11574,44,110,42,49,847,523.0,342,466,60,120.0,236,1,385,284,124,0,0,701,16648,2088,523,-5.59,,,,,,,,,,,,
23844,1564156379092,2,2.71,1.13,0.49,1.4,1.04,0.86,-1.23,0.4,35,-1,43,1.5,11474,44,110,42,50,841,522.0,345,471,60,119.0,236,1,388,296,124,0,0,711,16648,-32248,522,-5.59,44.681187,10.025104,51.36,176.4,0,0.0,-1,0.0,0.0,0,0.25,0.3974
23864,1564156379112,-0,2.7,1.12,0.5,1.41,1.04,0.8,-1.15,0.41,36,-1,44,1.4,11474,44,110,42,49,834,522.0,345,465,60,120.0,236,1,385,283,124,0,0,707,-17956,-2934,522,-5.59,,,,,,,,,,,,
23884,1564156379132,2,2.7,1.13,0.49,1.41,1.04,0.84,-1.18,0.53,36,-0,43,1.45,11467,44,110,42,50,826,522.0,352,468,60,120.0,236,1,388,296,123,0,0,709,2212,-9072,522,-5.59,,,,,,,,,,,,
23904,1564156379152,2,2.7,1.13,0.49,1.41,1.05,0.88,-1.21,0.43,36,-1,43,1.5,11538,44,110,42,50,824,521.0,356,465,60,119.0,236,1,388,296,123,0,0,709,-9203,10408,521,-5.59,,,,,,,,,,,,
23924,1564156379172,-0,2.69,1.13,0.5,1.41,1.05,0.83,-1.19,0.36,36,-1,44,1.45,11588,44,111,42,50,823,519.0,364,467,60,120.0,236,1,388,298,123,0,0,708,3576,2088,519,-5.59,,,,,,,,,,,,
23944,1564156379192,2,2.69,1.14,0.5,1.41,1.05,0.83,-1.27,0.36,36,-0,43,1.52,11559,44,110,42,50,825,518.0,379,466,60,119.0,236,1,388,298,123,0,0,708,32033,2088,518,-5.59,44.681175,10.025105,50.12,176.4,0,0.0,-1,0.0,0.0,0,0.25,0.3991
23964,1564156379212,2,2.69,1.14,0.5,1.41,1.05,0.92,-1.34,0.47,36,-2,44,1.62,11595,44,110,42,50,826,517.0,393,468,60,121.0,236,1,388,298,123,0,0,706,8488,1248,517,-5.59,,,,,,,,,,,,
23984,1564156379232,2,2.68,1.13,0.5,1.42,1.06,0.95,-1.19,0.3,36,-3,46,1.52,11496,44,110,42,50,830,516.0,398,470,60,119.0,249,1,388,296,129,0,0,705,8488,-32248,516,-5.59,,,,,,,,,,,,
24004,1564156379252,1,2.67,1.14,0.51,1.41,1.05,0.96,-1.22,0.4,36,-1,45,1.55,11488,44,110,42,50,833,515.0,413,469,60,119.0,249,1,388,296,129,0,0,714,-16384,1248,515,-5.59,,,,,,,,,,,,
24024,1564156379272,-0,2.67,1.14,0.5,1.41,1.06,0.99,-1.29,0.51,36,-1,44,1.63,11496,44,111,42,50,837,514.0,405,468,60,121.0,249,1,388,296,129,0,0,709,-16384,2524,514,-5.59,,,,,,,,,,,,
24044,1564156379292,3,2.67,1.15,0.51,1.42,1.06,0.9,-1.21,0.33,36,-0,46,1.51,11524,44,110,42,50,841,514.0,402,471,60,120.0,249,1,388,296,129,0,0,713,-3210,-3482,514,-5.59,44.681164,10.025105,49.56,176.4,0,0.0,-1,0.0,0.0,0,0.26,0.4007
24064,1564156379312,-2,2.67,1.15,0.51,1.41,1.07,0.81,-1.18,0.48,36,1,45,1.43,11552,45,110,42,50,841,512.0,412,468,60,121.0,249,1,388,298,129,0,0,720,243,-14,512,-5.59,,,,,,,,,,,,
24084,1564156379332,-2,2.66,1.15,0.51,1.42,1.06,0.84,-1.26,0.6,36,-0,45,1.51,11384,44,112,42,50,842,512.0,420,463,60,122.0,251,1,388,298,129,0,0,1512,30272,15679,512,-5.59,,,,,,,,,,,,
24104,1564156379352,-1,2.65,1.15,0.51,1.42,1.07,0.84,-1.22,0.51,36,-1,45,1.48,11081,45,112,42,51,844,512.0,402,460,60,122.0,251,1,391,313,129,0,0,1512,30272,16383,512,-5.59,,,,,,,,,,,,
24124,1564156379372,-1,2.65,1.15,0.51,1.42,1.07,0.86,-1.14,0.39,36,-2,46,1.43,10894,45,112,42,53,846,510.0,401,462,60,122.0,251,1,397,337,129,0,0,1512,6193,-3856,512,-5.59,,,,,,,,,,,,
24144,1564156379392,1,2.62,1.15,0.51,1.42,1.07,0.88,-1.19,0.29,36,-3,48,1.48,10744,45,111,42,55,847,509.0,432,465,60,120.0,251,1,407,352,129,0,0,695,-23623,17136,509,-5.59,44.681148,10.025105,49.29,176.4,0,0.0,-1,0.0,0.0,0,0.26,0.4024
24164,1564156379412,2,2.61,1.14,0.51,1.42,1.07,0.87,-1.27,0.46,36,-2,47,1.54,10856,45,111,42,54,848,508.0,429,466,60,120.0,251,1,400,348,129,0,0,695,-18108,6274,507,-5.59,,,,,,,,,,,,
24184,1564156379432,2,2.59,1.14,0.51,1.42,1.07,0.86,-1.28,0.37,36,-1,46,1.54,10997,45,111,42,54,876,508.0,442,469,60,120.0,285,1,400,350,145,0,0,690,2211,17136,508,-5.59,,,,,,,,,,,,
24204,1564156379452,1,2.56,1.14,0.51,1.42,1.07,0.84,-1.23,0.18,35,-2,48,1.49,11055,45,111,42,54,910,508.0,454,468,60,120.0,285,1,400,351,145,0,0,679,12552,10994,506,-5.59,,,,,,,,,,,,
24224,1564156379472,2,2.51,1.15,0.51,1.43,1.07,0.86,-1.27,0.36,35,-0,46,1.54,11187,45,111,42,53,942,510.0,462,465,60,120.0,285,1,397,338,145,0,0,674,12552,-21872,510,-5.59,,,,,,,,,,,,
24244,1564156379492,1,2.51,1.14,0.51,1.42,1.07,0.87,-1.17,0.16,34,-0,47,1.46,11349,45,111,42,52,975,506.0,458,466,60,120.0,285,1,394,324,145,0,0,667,6193,10994,506,-5.59,44.681137,10.025101,48.84,176.4,0,0.0,-1,0.0,0.0,0,0.26,0.4041
24264,1564156379512,1,2.5,1.15,0.51,1.42,1.07,0.8,-1.22,0.18,33,2,45,1.46,11453,45,111,42,52,987,504.0,446,465,60,120.0,285,1,394,324,145,0,0,659,6193,-28648,504,-5.59,,,,,,,,,,,,
24284,1564156379532,2,2.48,1.14,0.51,1.42,1.07,0.82,-1.3,0.25,32,1,44,1.53,11588,45,111,42,51,993,501.0,442,467,60,120.0,272,1,391,311,137,0,0,591,30272,10408,501,-5.59,,,,,,,,,,,,
24304,1564156379552,-1,2.49,1.14,0.52,1.42,1.07,0.79,-1.18,0.2,30,0,45,1.42,11617,45,111,42,50,980,499.0,469,468,60,122.0,272,1,388,313,137,0,0,532,-16384,10408,499,-5.59,,,,,,,,,,,,
24324,1564156379572,-1,2.49,1.15,0.52,1.42,1.09,0.74,-1.15,0.37,29,2,42,1.37,10844,45,113,42,51,954,505.0,488,465,60,122.0,272,1,391,313,137,0,0,605,3576,-28648,505,181.28,,,,,,,,,,,,
24344,1564156379592,-0,2.49,1.15,0.53,1.43,1.09,0.64,-1.17,0.41,28,3,42,1.33,10048,45,113,42,52,929,511.0,475,462,60,121.0,272,1,394,314,137,0,0,582,2212,-29984,511,181.28,44.681126,10.025096,48.0,176.3,0,0.0,-1,0.0,0.0,0,0.26,0.4057
24364,1564156379612,-1,2.5,1.15,0.53,1.42,1.09,0.62,-1.09,0.56,29,3,41,1.25,9508,45,113,42,54,903,518.0,477,464,60,119.0,272,1,400,335,137,0,0,496,8488,-22519,518,181.28,,,,,,,,,,,,
24384,1564156379632,-0,2.5,1.15,0.53,1.43,1.1,0.7,-1.1,0.53,29,0,37,1.3,9018,45,113,42,55,890,515.0,477,463,60,119.0,215,1,400,320,111,0,0,495,-10483,-22519,516,181.28,,,,,,,,,,,,
24404,1564156379652,0,2.5,1.15,0.53,1.43,1.1,0.7,-1.1,0.57,28,-2,36,1.31,8692,46,113,42,57,891,512.0,468,463,60,119.0,215,1,407,552,111,0,0,489,3580,16383,513,-5.59,,,,,,,,,,,,
24424,1564156379672,3,2.49,1.16,0.53,1.43,1.1,0.72,-1.12,0.57,26,-4,35,1.33,8507,46,112,42,59,928,512.0,473,463,60,120.0,215,1,430,536,111,0,0,484,-899,16383,510,-5.59,,,,,,,,,,,,
24444,1564156379692,-1,2.49,1.15,0.53,1.42,1.09,0.75,-1.03,0.58,25,-4,35,1.27,8844,50,112,42,60,999,512.0,472,461,60,119.0,215,1,409,496,111,0,0,486,-6441,17136,512,-5.59,44.681126,10.025096,48.0,176.3,0,0.0,-1,0.0,0.0,0,0.26,0.4074
24464,1564156379709,0,2.48,1.15,0.53,1.42,1.09,0.75,-1.01,0.54,24,-5,37,1.26,9132,57,111,42,60,1070,513.0,475,467,60,118.0,215,1,400,448,111,0,0,484,505,-3482,514,-5.59,,,,,,,,,,,,
24484,1564156379729,-2,2.48,1.15,0.53,1.43,1.09,0.77,-0.96,0.62,23,-2,38,1.23,8873,62,112,42,63,1142,519.0,482,462,60,120.0,282,1,411,405,145,0,0,664,248,2048,520,-5.59,,,,,,,,,,,,
24504,1564156379749,0,2.47,1.15,0.54,1.42,1.1,0.64,-0.86,0.59,24,3,39,1.07,8223,62,113,42,65,1227,528.0,485,461,60,121.0,282,1,445,369,145,0,0,707,-32768,-4876,529,-5.59,,,,,,,,,,,,
24524,1564156379769,-0,2.48,1.15,0.54,1.42,1.1,0.68,-0.93,0.68,25,2,37,1.15,7934,62,112,42,70,1324,534.0,478,462,60,118.0,282,1,443,403,145,0,0,583,248,14504,532,-5.59,,,,,,,,,,,,
24544,1564156379791,1,2.48,1.15,0.54,1.43,1.12,0.67,-1.0,0.78,25,3,34,1.2,7914,62,112,42,72,1404,528.0,471,466,60,118.0,282,1,439,436,145,0,0,527,-9216,-22359,529,-5.59,44.681103,10.025084,49.85,176.3,0,0.0,-1,0.0,0.0,0,0.26,0.4091
24564,1564156379811,1,2.48,1.16,0.55,1.43,1.12,0.72,-1.07,0.8,25,3,30,1.29,7482,62,112,42,76,1429,534.0,463,464,60,121.0,282,1,408,470,145,0,0,583,10408,-22263,534,-5.59,,,,,,,,,,,,
24584,1564156379831,-0,2.48,1.15,0.54,1.44,1.12,0.79,-1.1,0.83,24,2,30,1.36,7250,62,112,42,80,1436,536.0,449,462,60,120.0,251,1,394,501,135,0,0,573,11560,-28648,536,-5.59,,,,,,,,,,,,
24604,1564156379851,-1,2.48,1.15,0.54,1.43,1.11,0.83,-1.12,0.87,23,0,29,1.39,7244,63,112,42,82,1413,532.0,440,464,60,120.0,251,1,393,516,135,0,0,518,-32248,14504,532,-5.59,,,,,,,,,,,,
24624,1564156379871,1,2.46,1.15,0.54,1.43,1.11,0.84,-1.04,0.89,22,-1,30,1.34,7341,63,112,42,84,1384,532.0,437,463,60,120.0,251,1,398,533,135,0,0,528,-4054,-3082,532,-5.59,,,,,,,,,,,,
24644,1564156379891,2,2.46,1.16,0.54,1.43,1.11,0.85,-0.94,0.87,22,-2,29,1.27,7419,63,113,42,84,1336,537.0,432,465,60,120.0,251,1,402,538,135,0,0,545,-3482,2524,537,-5.59,44.681091,10.025075,51.38,176.2,0,0.0,-1,0.0,0.0,0,0.26,0.4107
24664,1564156379911,0,2.46,1.15,0.53,1.42,1.1,0.87,-0.86,0.88,21,-1,29,1.22,7584,63,113,42,84,1284,539.0,426,466,60,120.0,251,1,412,540,135,0,0,556,15679,-18032,541,-5.59,,,,,,,,,,,,
24684,1564156379931,-0,2.45,1.15,0.54,1.42,1.1,0.88,-0.78,0.94,20,-1,30,1.18,7697,63,113,42,83,1223,542.0,429,465,60,120.0,284,1,419,532,154,0,0,560,1248,-9072,542,-5.59,,,,,,,,,,,,
24704,1564156379951,0,2.45,1.14,0.54,1.42,1.11,0.82,-0.81,0.9,20,-1,30,1.15,7825,63,113,42,82,1168,548.0,431,469,60,119.0,284,1,427,526,154,0,0,568,10408,-2934,548,-5.59,,,,,,,,,,,,
24724,1564156379971,0,2.46,1.15,0.54,1.43,1.11,0.75,-0.83,0.86,20,-0,29,1.12,7832,63,113,42,81,1154,551.0,437,462,60,121.0,284,1,428,517,154,0,0,564,6274,2211,551,-5.59,,,,,,,,,,,,
24744,1564156379991,2,2.45,1.16,0.54,1.44,1.11,0.67,-0.83,0.8,20,2,28,1.07,7815,63,113,42,81,1134,555.0,437,465,60,121.0,284,1,427,517,154,0,0,571,2524,259,555,-5.59,44.681091,10.025075,51.38,176.2,0,0.0,-1,0.0,0.0,0,0.26,0.4124
24764,1564156380003,3,2.45,1.15,0.55,1.43,1.12,0.69,-0.8,0.79,19,3,27,1.06,7712,63,113,42,82,1090,556.0,441,466,60,119.0,284,1,421,516,154,0,0,568,14504,774,558,-5.59,,,,,,,,,,,,
24784,1564156380023,0,2.44,1.16,0.54,1.43,1.11,0.75,-0.75,0.77,19,1,27,1.06,7687,63,113,42,82,1045,559.0,440,465,60,119.0,273,1,419,525,153,0,0,576,6274,-8186,559,-5.59,,,,,,,,,,,,
24804,1564156380043,-1,2.45,1.15,0.55,1.43,1.12,0.76,-0.74,0.89,17,-1,26,1.06,7763,64,113,42,82,1015,560.0,439,465,60,120.0,273,1,424,525,153,0,0,559,1780,1760,560,-5.59,,,,,,,,,,,,
24824,1564156380063,1,2.44,1.15,0.54,1.43,1.12,0.7,-0.74,0.92,17,-2,26,1.02,7793,64,114,42,81,985,563.0,441,464,60,121.0,273,1,425,533,153,0,0,581,-506,1267,563,-5.59,,,,,,,,,,,,
24844,1564156380091,1,2.44,1.15,0.55,1.43,1.12,0.61,-0.71,0.85,16,-1,25,0.93,7891,64,114,42,81,947,566.0,443,463,60,120.0,273,1,431,525,153,0,0,583,14504,8488,566,-5.59,44.681068,10.025055,53.92,176.2,0,0.0,-1,0.0,0.0,0,0.27,0.4141
24864,1564156380111,-0,2.43,1.15,0.55,1.42,1.11,0.67,-0.59,0.88,16,-0,24,0.89,7982,64,113,42,81,908,569.0,444,466,60,119.0,273,1,436,518,153,0,0,579,-32248,-4035,571,-5.59,,,,,,,,,,,,
24884,1564156380131,0,2.43,1.15,0.54,1.43,1.11,0.67,-0.55,0.94,15,-1,24,0.86,8019,64,113,42,80,899,572.0,450,467,60,120.0,269,1,438,404,154,0,0,587,-28648,3472,573,-5.59,,,,,,,,,,,,
24904,1564156380151,2,2.42,1.15,0.54,1.43,1.11,0.58,-0.52,0.95,15,0,23,0.78,8109,64,114,42,79,891,578.0,455,463,60,120.0,269,1,436,513,154,0,0,593,-22263,3472,578,-5.59,,,,,,,,,,,,
24924,1564156380171,1,2.41,1.15,0.55,1.43,1.11,0.71,-0.43,0.97,14,0,23,0.83,8138,64,113,42,79,880,577.0,459,465,60,120.0,269,1,435,507,154,0,0,590,-28648,30227,577,-5.59,,,,,,,,,,,,
24944,1564156380191,2,2.41,1.15,0.55,1.43,1.12,0.6,-0.44,0.99,14,-0,23,0.74,8113,64,113,42,78,869,581.0,463,467,60,120.0,269,1,436,506,154,0,0,599,-23623,243,581,-5.59,44.681057,10.025043,55.81,176.2,0,0.0,-1,0.0,0.0,0,0.27,0.4157
24964,1564156380211,0,2.41,1.15,0.55,1.43,1.12,0.64,-0.36,0.95,14,0,21,0.73,8162,64,114,42,78,864,584.0,473,467,60,119.0,269,1,435,393,154,0,0,597,-3190,17740,584,-5.59,,,,,,,,,,,,
24984,1564156380231,1,2.4,1.15,0.55,1.43,1.11,0.62,-0.36,1.0,13,-1,21,0.72,8177,64,114,42,78,861,586.0,471,466,60,119.0,267,1,434,507,157,0,0,606,1267,-23055,586,-5.59,,,,,,,,,,,,
25004,1564156380251,-0,2.4,1.15,0.54,1.43,1.12,0.66,-0.38,1.01,12,1,20,0.76,8209,65,114,42,77,859,590.0,477,465,60,120.0,267,1,433,495,157,0,0,613,1,-768,592,-5.59,,,,,,,,,,,,
25024,1564156380271,0,2.4,1.15,0.55,1.43,1.11,0.58,-0.46,1.02,12,-1,20,0.74,8300,65,115,42,77,857,593.0,481,463,60,120.0,267,1,431,507,157,0,0,607,10432,1010,593,-5.59,,,,,,,,,,,,
25044,1564156380291,0,2.41,1.14,0.55,1.42,1.11,0.62,-0.36,1.01,12,-0,19,0.71,8378,69,114,42,76,858,595.0,482,463,60,121.0,267,1,429,487,157,0,0,618,15649,3403,595,-5.59,44.681046,10.02503,57.35,176.1,0,0.0,-1,0.0,0.0,0,0.27,0.4174
25064,1564156380311,2,2.4,1.15,0.54,1.43,1.11,0.54,-0.35,0.91,12,1,18,0.65,8438,71,115,42,77,859,601.0,486,465,60,121.0,267,1,428,526,157,0,0,610,208,16529,599,-5.59,,,,,,,,,,,,
25084,1564156380331,1,2.39,1.15,0.55,1.42,1.11,0.52,-0.35,1.02,11,1,17,0.63,8468,71,114,42,78,858,604.0,483,466,60,119.0,282,1,427,519,169,0,0,621,2048,17336,604,-5.59,,,,,,,,,,,,
