"Interval"|"ms"|0|0|1,"Utc"|"ms"|0|0|1,"FB_p"|"bar"|0|300|50,"Volant"|"F"|0.0|300.0|50,"xFR"|"mm"|0.0|5.0|50,"xRR"|"mm"|0.0|5.0|50,"xFL"|"mm"|0.0|5.0|50,"xRL"|"mm"|0.0|5.0|50,"AccelX"|"G"|-3.0|3.0|50,"AccelY"|"G"|-3.0|3.0|50,"AccelZ"|"G"|-3.0|3.0|50,"Yaw"|"Deg/Sec"|-120|120|50,"Pitch"|"Deg/Sec"|-120|120|50,"Roll"|"Deg/Sec"|-120|120|50,"Gsum"|"G"|0.0|3.0|50,"RPM"|""|0|14000|50,"TPS"|"%"|0|100|50,"WaterTemp"|"?C"|0|300|50,"AirTemp"|"?C"|-1000|1000|50,"MAP"|"KPa"|0|255|50,"Lambda"|""|0|1024|50,"WheelSpeed"|"MPH"|0.0|150.0|50,"OilPress"|"PSI"|0|150|50,"FuelPress"|"PSI"|0|150|50,"OilTemp"|"F"|0|300|50,"Battery"|"Volts"|0.0|20.0|50,"FuelCon"|"L/h"|-1000|1000|50,"Gear"|""|0|10|50,"Advance"|"Deg"|-360|360|50,"Injection"|"ms"|-1000|1000|50,"FuelCon"|"L/100km"|-1000|1000|50,"LC_But_Pres"|""|-1000|1000|50,"LC_Active"|""|-1000|1000|50,"RD_Speed"|""|-1000|1000|50,"RUD_Speed"|""|-1000|1000|50,"LD_Speed"|""|-1000|1000|50,"LUD_Speed"|""|-1000|1000|50,"Ana1"|"bar"|-1000.0|1000.0|50,"Latitude"|"Degrees"|-180.0|180.0|10,"Longitude"|"Degrees"|-180.0|180.0|10,"Speed"|"kph"|0.0|150.0|10,"Altitude"|"m"|0.0|4000.0|10,"LapCount"|""|0|0|10,"LapTime"|"Min"|0.0|0.0|10,"Sector"|""|0|0|10,"SectorTime"|"Min"|0.0|0.0|10,"ElapsedTime"|"Min"|0.0|0.0|10,"CurrentLap"|""|0|0|10,"Distance"|"km"|0.0|0.0|10,"SessionTime"|"Min"|0.0|0.0|10
11264,1564133152481,5,2.39,1.06,0.45,1.52,1.12,0.64,-0.62,0.78,12,-1,13,0.89,10201,100,90,41,86,966,729.0,623,462,60,122.0,305,1,410,585,220,0,0,759,-12152,-22796,731,-5.59,,,,,,,,,,,,
11284,1564133152499,6,2.39,1.06,0.46,1.52,1.11,0.64,-0.58,0.68,12,-2,13,0.87,10285,93,90,41,85,961,734.0,634,465,60,122.0,305,1,415,567,220,0,0,750,204,-3450,734,-5.59,,,,,,,,,,,,
11304,1564133152519,5,2.39,1.06,0.45,1.52,1.12,0.56,-0.57,0.81,12,-2,13,0.8,10262,76,90,41,83,960,735.0,635,467,60,123.0,305,1,412,531,220,0,0,767,-13072,-10218,736,-5.59,,,,,,,,,,,,
11324,1564133152539,6,2.4,1.06,0.46,1.52,1.12,0.57,-0.58,0.86,12,-2,13,0.82,10296,60,90,41,76,960,738.0,637,465,60,123.0,279,1,416,478,206,0,0,760,204,-2826,735,-5.59,,,,,,,,,,,,
11344,1564133152559,7,2.38,1.06,0.46,1.53,1.12,0.52,-0.63,0.89,12,-3,13,0.81,10262,48,90,41,68,960,740.0,635,471,60,123.0,279,1,415,438,206,0,0,754,-2560,-3038,740,-5.59,44.681076,10.024448,70.41,176.5,0,0.0,-1,0.0,0.0,0,0.08,0.1891
11364,1564133152579,8,2.39,1.06,0.47,1.52,1.13,0.48,-0.6,0.87,12,-4,13,0.77,10107,35,90,41,62,960,739.0,635,460,60,123.0,279,1,416,377,206,0,0,755,204,6389,739,-5.59,,,,,,,,,,,,
11384,1564133152598,15,2.39,1.06,0.46,1.53,1.12,0.58,-0.62,0.89,12,-5,13,0.85,10021,24,90,41,54,959,739.0,635,464,60,123.0,279,1,400,310,206,0,0,749,-2560,-22795,742,-5.59,,,,,,,,,,,,
11404,1564133152618,14,2.39,1.06,0.46,1.52,1.12,0.52,-0.64,0.9,12,-7,11,0.83,9827,20,90,41,48,958,740.0,633,467,60,123.0,279,1,382,248,206,0,0,731,-13312,-2830,740,-5.59,,,,,,,,,,,,
11424,1564133152638,19,2.38,1.06,0.45,1.53,1.12,0.62,-0.69,0.83,12,-8,11,0.93,9561,19,91,41,44,943,733.0,628,462,60,123.0,124,1,357,225,92,0,0,723,-12152,-22796,733,-5.59,,,,,,,,,,,,
11444,1564133152658,20,2.37,1.06,0.46,1.52,1.11,0.63,-0.59,0.79,11,-9,11,0.86,9346,18,90,41,41,926,730.0,624,463,60,124.0,124,1,334,218,92,0,0,685,8010,-2830,728,-5.59,44.681091,10.024446,72.42,176.4,0,0.0,-1,0.0,0.0,0,0.08,0.1907
11464,1564133152678,19,2.38,1.06,0.45,1.52,1.11,0.69,-0.49,0.69,10,-9,12,0.84,9124,18,90,41,40,910,727.0,626,472,60,123.0,124,1,326,211,92,0,0,651,6658,-388,727,-5.59,,,,,,,,,,,,
11484,1564133152698,16,2.37,1.06,0.45,1.52,1.11,0.67,-0.43,0.64,10,-8,12,0.79,8903,18,91,41,39,894,726.0,626,470,60,124.0,124,1,320,135,92,0,0,616,-12152,-3344,726,-5.59,,,,,,,,,,,,
11504,1564133152718,13,2.37,1.06,0.46,1.52,1.11,0.78,-0.44,0.65,9,-8,11,0.9,8684,18,91,41,39,869,722.0,620,463,60,124.0,94,1,320,209,68,0,0,593,6658,-2918,722,-5.59,,,,,,,,,,,,
11524,1564133152738,11,2.37,1.06,0.45,1.52,1.11,0.81,-0.45,0.64,10,-7,11,0.93,8457,18,91,41,38,841,719.0,613,465,60,123.0,94,1,316,204,68,0,0,611,15647,204,719,-5.59,,,,,,,,,,,,
11544,1564133152758,12,2.36,1.06,0.45,1.52,1.12,0.8,-0.45,0.6,10,-7,11,0.92,8249,17,91,41,38,825,715.0,604,466,60,123.0,94,1,311,202,68,0,0,651,-2830,-13312,716,-5.59,44.68111,10.024446,72.99,176.2,0,0.0,-1,0.0,0.0,0,0.09,0.1924
11564,1564133152778,10,2.37,1.05,0.45,1.51,1.11,0.86,-0.43,0.56,10,-5,11,0.96,8169,16,91,41,38,813,714.0,583,463,60,124.0,94,1,310,201,68,0,0,646,-10448,6208,714,181.28,,,,,,,,,,,,
11584,1564133152798,12,2.37,1.06,0.45,1.52,1.11,0.97,-0.4,0.44,9,-6,13,1.05,8162,16,91,41,38,816,703.0,570,458,60,125.0,94,1,310,196,68,0,0,648,-10448,12333,707,414.87,,,,,,,,,,,,
11604,1564133152818,13,2.37,1.06,0.45,1.51,1.11,0.96,-0.38,0.51,9,-4,11,1.03,8148,16,91,41,37,823,700.0,562,460,60,123.0,94,1,306,196,68,0,0,632,3543,3543,699,181.28,,,,,,,,,,,,
11624,1564133152838,13,2.37,1.06,0.45,1.52,1.11,1.07,-0.42,0.48,8,-5,11,1.15,8209,16,91,41,37,836,696.0,526,461,60,121.0,85,1,308,198,60,0,0,626,3543,-2345,696,-5.59,,,,,,,,,,,,
11644,1564133152858,14,2.37,1.05,0.45,1.52,1.11,1.07,-0.41,0.43,8,-5,12,1.15,8241,16,91,41,37,856,691.0,461,460,60,123.0,85,1,308,198,60,0,0,609,-26892,-388,688,-5.59,44.681129,10.024446,71.88,176.2,0,0.0,-1,0.0,0.0,0,0.09,0.1941
11664,1564133152878,17,2.37,1.05,0.45,1.52,1.1,1.17,-0.45,0.38,7,-6,12,1.25,8238,16,90,41,36,875,682.0,465,461,60,123.0,85,1,305,292,60,0,0,591,-388,24,682,-5.59,,,,,,,,,,,,
11684,1564133152900,17,2.37,1.05,0.45,1.51,1.1,1.1,-0.44,0.33,8,-4,12,1.18,8318,16,90,41,36,894,679.0,476,469,60,121.0,85,1,307,276,60,0,0,595,-2826,-8429,679,-5.59,,,,,,,,,,,,
11704,1564133152920,17,2.36,1.05,0.45,1.52,1.1,1.13,-0.41,0.31,8,-5,11,1.21,8351,16,90,41,35,903,673.0,500,465,60,122.0,114,1,305,244,77,0,0,581,31988,-2580,673,-5.59,,,,,,,,,,,,
11724,1564133152940,13,2.37,1.06,0.45,1.51,1.11,1.15,-0.42,0.22,8,-4,11,1.23,8303,16,90,41,34,902,668.0,485,465,60,122.0,114,1,301,214,77,0,0,570,-2830,-2830,667,-5.59,,,,,,,,,,,,
11744,1564133152960,17,2.36,1.06,0.45,1.51,1.11,1.21,-0.41,0.17,8,-2,11,1.27,8202,16,90,41,34,902,665.0,513,464,60,122.0,114,1,299,192,77,0,0,556,-8429,16599,661,-5.59,44.681145,10.024446,68.73,176.1,0,0.0,-1,0.0,0.0,0,0.09,0.1957
11764,1564133152980,17,2.37,1.06,0.45,1.51,1.11,1.18,-0.41,0.14,8,-2,11,1.25,8113,16,90,41,33,905,661.0,519,465,60,122.0,114,1,294,179,77,0,0,547,11776,6208,659,-5.59,,,,,,,,,,,,
11784,1564133152994,13,2.37,1.05,0.45,1.52,1.11,1.27,-0.43,0.16,9,-2,11,1.34,8064,15,90,41,34,907,654.0,525,464,60,123.0,114,1,296,178,77,0,0,559,-2836,-10251,652,-5.59,,,,,,,,,,,,
11804,1564133153014,10,2.37,1.05,0.44,1.51,1.11,1.24,-0.41,0.15,9,-2,10,1.31,8081,15,90,41,34,910,651.0,538,468,60,121.0,82,1,296,177,54,0,0,567,-5120,16599,649,-5.59,,,,,,,,,,,,
11824,1564133153034,4,2.36,1.04,0.45,1.52,1.1,1.28,-0.42,0.16,8,-2,12,1.35,8109,15,90,41,33,910,648.0,520,461,60,121.0,82,1,294,179,54,0,0,557,-4876,771,645,-5.59,,,,,,,,,,,,
11844,1564133153054,2,2.37,1.05,0.44,1.51,1.11,1.24,-0.41,0.11,8,-2,12,1.31,8209,15,90,41,33,906,645.0,530,465,60,122.0,82,1,296,178,54,0,0,577,966,-2580,644,-5.59,44.681164,10.024447,66.94,176.1,0,0.0,-1,0.0,0.0,0,0.09,0.1974
11864,1564133153074,0,2.36,1.05,0.44,1.51,1.11,1.29,-0.44,0.17,7,1,11,1.37,8348,15,90,41,33,901,640.0,525,465,60,123.0,82,1,298,182,54,0,0,608,20993,3395,640,-5.59,,,,,,,,,,,,
11884,1564133153100,3,2.35,1.05,0.45,1.51,1.1,1.2,-0.41,0.16,7,-0,11,1.27,8442,15,90,41,32,895,637.0,532,464,60,123.0,82,1,299,182,54,0,0,617,506,-1346,638,-5.59,,,,,,,,,,,,
11904,1564133153120,2,2.36,1.05,0.44,1.51,1.11,1.22,-0.4,0.17,7,0,11,1.29,8522,15,90,41,32,888,634.0,538,463,60,122.0,93,1,300,185,59,0,0,619,-16883,17336,634,-5.59,,,,,,,,,,,,
11924,1564133153140,1,2.35,1.05,0.45,1.51,1.11,1.26,-0.4,0.27,6,2,11,1.32,8577,15,90,41,31,884,632.0,554,465,60,122.0,93,1,295,185,59,0,0,619,17336,3395,632,-5.59,,,,,,,,,,,,
11944,1564133153160,2,2.35,1.05,0.44,1.51,1.1,1.19,-0.41,0.24,6,2,11,1.26,8546,15,90,41,31,882,629.0,570,461,60,121.0,93,1,295,185,59,0,0,619,19320,-1346,629,-5.59,44.681183,10.024448,63.84,176.1,0,0.0,-1,0.0,0.0,0,0.09,0.1991
11964,1564133153180,2,2.34,1.05,0.45,1.5,1.11,1.14,-0.35,0.21,6,1,11,1.2,8503,15,90,41,31,884,630.0,577,464,60,121.0,93,1,295,185,59,0,0,621,19320,506,630,-5.59,,,,,,,,,,,,
11984,1564133153200,-0,2.34,1.05,0.45,1.51,1.1,1.23,-0.52,0.34,5,3,9,1.34,8396,13,90,41,30,884,625.0,584,463,60,123.0,93,1,289,179,59,0,0,617,19320,3395,625,-5.59,,,,,,,,,,,,
12004,1564133153220,1,2.35,1.05,0.45,1.51,1.1,1.08,-0.57,0.25,5,4,10,1.22,8311,11,90,41,30,872,946.0,587,463,60,122.0,93,1,288,176,59,0,0,1865,-7939,-7939,946,-5.59,,,,,,,,,,,,
12024,1564133153240,-1,2.35,1.05,0.44,1.5,1.1,1.04,-0.5,0.32,4,9,9,1.15,8318,10,90,41,29,861,946.0,583,463,60,123.0,58,1,284,176,55,0,0,1865,-7939,-3820,946,-5.59,,,,,,,,,,,,
12044,1564133153260,3,2.35,1.05,0.44,1.5,1.11,0.98,-0.44,0.29,4,8,9,1.08,8526,10,90,41,29,847,946.0,588,463,60,121.0,58,1,287,185,55,0,0,1865,-7939,17344,946,-5.59,44.681198,10.02445,62.27,176.0,0,0.0,-1,0.0,0.0,0,0.1,0.2007
12064,1564133153280,2,2.35,1.05,0.45,1.5,1.11,0.92,-0.41,0.22,4,8,9,1.01,8589,10,90,41,28,833,946.0,594,467,60,121.0,58,1,282,185,55,0,0,1865,-7939,243,946,-5.59,,,,,,,,,,,,
12084,1564133153300,3,2.34,1.05,0.44,1.51,1.1,1.02,-0.34,0.26,4,5,9,1.08,8672,10,90,41,27,820,595.0,599,464,60,122.0,58,1,278,185,55,0,0,1865,-16179,208,600,-5.59,,,,,,,,,,,,
12104,1564133153320,2,2.35,1.05,0.44,1.51,1.11,1.12,-0.35,0.3,4,5,8,1.18,8737,10,90,41,27,807,602.0,603,460,60,121.0,58,1,278,185,55,0,0,1865,23619,23619,602,-5.59,,,,,,,,,,,,
12124,1564133153340,4,2.34,1.05,0.44,1.51,1.1,1.14,-0.31,0.26,4,5,9,1.19,8737,10,90,41,27,808,597.0,608,463,60,121.0,101,1,278,185,61,0,0,1865,17344,1267,597,-5.59,,,,,,,,,,,,
12144,1564133153360,7,2.34,1.05,0.44,1.5,1.1,1.14,-0.32,0.18,4,5,9,1.18,8815,10,90,41,27,809,601.0,613,464,60,121.0,101,1,278,185,61,0,0,571,208,774,597,-5.59,44.68121,10.024453,61.58,176.0,0,0.0,-1,0.0,0.0,0,0.1,0.2024
12164,1564133153380,7,2.35,1.05,0.44,1.51,1.1,1.04,-0.34,0.08,4,5,9,1.1,8786,10,90,41,27,811,593.0,620,461,60,122.0,101,1,278,185,61,0,0,566,-1894,-2934,593,-5.59,,,,,,,,,,,,
12184,1564133153400,8,2.34,1.05,0.44,1.51,1.1,0.95,-0.28,-0.03,5,6,9,0.99,8840,10,90,41,26,812,589.0,623,467,60,122.0,101,1,274,185,61,0,0,559,10432,1780,589,-5.59,,,,,,,,,,,,
12204,1564133153420,8,2.35,1.05,0.45,1.51,1.1,0.98,-0.27,-0.0,5,4,9,1.01,8894,10,90,41,26,812,583.0,627,465,60,122.0,106,1,274,185,62,0,0,546,-3210,2211,583,-5.59,,,,,,,,,,,,
12224,1564133153440,10,2.35,1.05,0.45,1.51,1.1,0.94,-0.21,0.0,5,3,9,0.97,8886,10,90,41,26,813,578.0,628,465,60,122.0,106,1,274,185,62,0,0,544,1760,6274,578,-5.59,,,,,,,,,,,,
12244,1564133153460,14,2.35,1.06,0.44,1.51,1.1,1.04,-0.2,-0.02,4,2,9,1.05,8928,10,90,41,27,823,576.0,627,461,60,122.0,106,1,278,185,62,0,0,546,-30159,14504,576,-5.59,44.681225,10.024455,59.87,176.0,0,0.0,-1,0.0,0.0,0,0.1,0.2041
12264,1564133153480,17,2.35,1.05,0.44,1.51,1.11,1.12,-0.14,0.02,5,2,8,1.12,8924,10,90,41,27,834,568.0,627,465,60,123.0,106,1,278,185,62,0,0,508,6273,2088,566,-5.59,,,,,,,,,,,,
12284,1564133153498,16,2.36,1.05,0.44,1.5,1.1,1.21,-0.13,0.11,5,1,8,1.21,8949,10,90,41,27,845,561.0,625,470,60,122.0,106,1,278,185,62,0,0,501,2104,-22519,561,-5.59,,,,,,,,,,,,
12304,1564133153518,15,2.35,1.05,0.45,1.5,1.1,1.29,-0.11,0.17,5,-0,7,1.29,8958,10,90,41,27,855,558.0,620,467,60,122.0,106,1,278,185,62,0,0,476,-506,3576,558,-5.59,,,,,,,,,,,,
12324,1564133153538,15,2.35,1.05,0.44,1.5,1.11,1.36,-0.07,0.21,5,-0,8,1.36,8852,10,90,41,27,873,551.0,619,468,60,122.0,111,1,278,185,62,0,0,471,-2934,-1562,552,-5.59,,,,,,,,,,,,
12344,1564133153558,17,2.36,1.05,0.44,1.51,1.1,1.43,-0.1,0.23,5,-0,9,1.43,8769,10,90,41,27,892,547.0,615,464,60,122.0,111,1,278,110,62,0,0,475,-22519,12552,545,-5.59,44.681244,10.024458,57.77,176.0,0,0.0,-1,0.0,0.0,0,0.1,0.2057
12364,1564133153578,14,2.36,1.05,0.45,1.51,1.1,1.41,-0.14,0.17,6,1,9,1.41,8664,9,90,41,27,904,540.0,618,464,60,121.0,111,1,278,185,62,0,0,469,-32248,8488,540,-5.59,,,,,,,,,,,,
12384,1564133153597,16,2.36,1.05,0.45,1.51,1.1,1.36,-0.19,0.13,6,-0,9,1.38,8585,9,90,41,27,912,535.0,615,464,60,122.0,111,1,278,185,62,0,0,446,15679,-10483,535,-5.59,,,,,,,,,,,,
12404,1564133153617,15,2.35,1.05,0.44,1.51,1.1,1.39,-0.15,0.14,7,-2,10,1.39,8569,9,90,41,27,927,529.0,615,465,60,122.0,111,1,278,185,62,0,0,434,10994,-9203,529,-5.59,,,,,,,,,,,,
12424,1564133153637,12,2.36,1.05,0.44,1.51,1.1,1.36,-0.19,0.13,7,0,10,1.38,8499,9,90,41,28,943,524.0,614,464,60,122.0,113,1,282,184,60,0,0,429,-21872,243,524,-5.59,,,,,,,,,,,,
12444,1564133153657,15,2.36,1.05,0.44,1.51,1.11,1.33,-0.21,0.06,8,2,10,1.34,8389,9,90,41,28,955,516.0,611,462,60,122.0,113,1,281,178,60,0,0,428,-22519,505,516,-5.59,44.681255,10.024461,55.12,176.0,0,0.0,-1,0.0,0.0,0,0.1,0.2074
12464,1564133153677,14,2.36,1.05,0.44,1.51,1.1,1.4,-0.18,0.05,8,1,11,1.41,8333,9,90,41,28,963,512.0,608,462,60,121.0,113,1,281,176,60,0,0,420,771,-23367,512,-5.59,,,,,,,,,,,,
12484,1564133153697,16,2.36,1.05,0.44,1.51,1.11,1.31,-0.23,-0.05,8,-0,11,1.33,8329,9,90,41,28,975,506.0,599,463,60,120.0,113,1,281,176,60,0,0,409,248,-1562,506,-5.59,,,,,,,,,,,,
12504,1564133153717,13,2.35,1.05,0.44,1.51,1.1,1.33,-0.23,-0.01,8,0,11,1.35,8314,9,90,41,27,988,499.0,596,464,60,122.0,110,1,277,175,55,0,0,390,-10483,3580,499,-5.59,,,,,,,,,,,,
12524,1564133153737,15,2.35,1.05,0.44,1.51,1.1,1.24,-0.25,-0.06,8,2,11,1.26,8238,9,90,41,27,999,495.0,587,464,60,122.0,110,1,276,170,55,0,0,371,2212,-899,494,-5.59,,,,,,,,,,,,
12544,1564133153757,10,2.35,1.05,0.45,1.51,1.1,1.32,-0.26,0.01,8,1,11,1.34,8095,9,90,41,27,1005,490.0,588,465,60,123.0,110,1,276,163,55,0,0,369,2212,248,486,-5.59,44.681267,10.024464,52.17,176.0,0,0.0,-1,0.0,0.0,0,0.1,0.2091
12564,1564133153777,13,2.36,1.04,0.44,1.51,1.11,1.29,-0.28,0.0,8,2,10,1.32,7938,9,90,41,27,1010,484.0,570,465,60,123.0,110,1,275,158,55,0,0,394,-17956,8488,484,-5.59,,,,,,,,,,,,
12584,1564133153797,14,2.36,1.05,0.45,1.51,1.11,1.23,-0.25,-0.05,7,2,9,1.26,7884,9,90,41,27,1013,479.0,492,465,60,122.0,110,1,274,158,55,0,0,412,-16384,32033,479,-5.59,,,,,,,,,,,,
12604,1564133153817,12,2.35,1.04,0.44,1.51,1.1,1.28,-0.22,-0.01,7,3,9,1.3,7864,9,90,41,27,1014,472.0,502,463,60,122.0,110,1,274,158,55,0,0,404,16408,2524,471,-5.59,,,,,,,,,,,,
12624,1564133153837,11,2.36,1.05,0.44,1.52,1.1,1.36,-0.22,0.07,5,2,9,1.37,7938,9,90,41,27,1011,465.0,472,465,60,124.0,99,1,275,158,47,0,0,394,-23623,-28332,465,-5.59,,,,,,,,,,,,
12644,1564133153857,12,2.36,1.05,0.45,1.52,1.1,1.27,-0.2,0.02,5,2,8,1.28,7941,9,90,41,27,998,460.0,509,466,60,122.0,99,1,275,158,47,0,0,412,2524,13180,458,-5.59,44.681282,10.024467,49.31,176.1,0,0.0,-1,0.0,0.0,0,0.11,0.2107
12664,1564133153877,12,2.36,1.05,0.44,1.51,1.11,1.14,-0.18,0.0,5,4,8,1.15,7888,9,90,41,27,974,455.0,524,465,60,123.0,99,1,274,158,47,0,0,428,-3267,-21944,455,-5.59,,,,,,,,,,,,
12684,1564133153899,7,2.37,1.05,0.45,1.51,1.1,1.16,-0.1,0.05,5,5,9,1.17,7894,9,90,41,27,950,453.0,541,465,60,124.0,99,1,274,158,47,0,0,428,16648,3826,453,-5.59,,,,,,,,,,,,
12704,1564133153919,9,2.36,1.05,0.44,1.51,1.1,1.21,-0.09,0.01,5,3,9,1.22,7884,9,90,41,27,928,446.0,551,463,60,123.0,99,1,274,158,47,0,0,426,-28332,-3322,446,-5.59,,,,,,,,,,,,
12724,1564133153939,9,2.38,1.05,0.45,1.51,1.11,1.16,-0.13,-0.03,5,2,8,1.17,7931,9,90,41,28,905,442.0,557,465,60,123.0,105,1,278,160,47,0,0,420,-768,-3414,443,-5.59,,,,,,,,,,,,
12744,1564133153959,7,2.38,1.05,0.44,1.51,1.11,1.14,-0.21,0.03,5,3,9,1.16,7955,9,90,41,28,881,437.0,562,462,60,122.0,105,1,278,160,47,0,0,417,3635,-4082,437,-5.59,44.681294,10.02447,46.98,176.1,0,0.0,-1,0.0,0.0,0,0.11,0.2124
12764,1564133153979,6,2.4,1.05,0.45,1.51,1.11,1.19,-0.22,0.07,6,1,9,1.21,7928,9,90,41,28,863,434.0,561,464,60,124.0,105,1,278,160,47,0,0,419,-21792,3826,434,-5.59,,,,,,,,,,,,
12784,1564133153993,6,2.41,1.05,0.44,1.51,1.1,1.16,-0.24,0.05,6,-1,9,1.19,7901,9,90,41,27,861,431.0,562,466,60,124.0,105,1,275,158,47,0,0,413,-3414,13552,431,-5.59,,,,,,,,,,,,
12804,1564133154013,7,2.43,1.05,0.44,1.51,1.1,1.1,-0.28,0.05,7,-0,9,1.13,7848,9,90,41,28,859,429.0,560,464,60,123.0,109,1,277,160,47,0,0,407,18584,-3414,429,-5.59,,,,,,,,,,,,
12824,1564133154033,6,2.47,1.05,0.44,1.51,1.1,1.08,-0.3,0.09,8,-0,10,1.12,7725,9,90,41,28,855,430.0,558,464,60,124.0,109,1,276,160,47,0,0,405,-9166,3826,430,-5.59,,,,,,,,,,,,
12844,1564133154053,4,2.49,1.05,0.44,1.52,1.1,1.09,-0.32,0.11,9,1,11,1.13,7659,9,90,41,28,851,426.0,556,464,60,123.0,109,1,276,160,47,0,0,406,10392,-8165,427,-5.59,44.681301,10.024474,43.9,176.1,0,0.0,-1,0.0,0.0,0,0.11,0.2141
12864,1564133154073,3,2.52,1.05,0.44,1.52,1.1,1.11,-0.39,0.12,11,1,11,1.18,7615,9,90,41,28,849,427.0,557,465,60,124.0,109,1,276,160,47,0,0,396,1504,31796,427,-5.59,,,,,,,,,,,,
12884,1564133154099,1,2.55,1.06,0.44,1.52,1.1,1.09,-0.44,0.21,12,2,12,1.17,7563,9,90,41,28,847,426.0,548,465,60,124.0,109,1,275,160,47,0,0,386,6384,-21792,426,-5.59,,,,,,,,,,,,
12904,1564133154119,1,2.57,1.05,0.45,1.51,1.11,1.13,-0.53,0.3,14,1,15,1.25,7488,9,90,41,29,847,425.0,543,463,60,124.0,105,1,278,160,45,0,0,378,-1818,-3414,425,-5.59,,,,,,,,,,,,
12924,1564133154139,-1,2.58,1.05,0.44,1.51,1.11,1.15,-0.6,0.29,15,1,17,1.3,7452,9,90,41,29,847,425.0,546,463,60,124.0,105,1,278,161,45,0,0,368,-1562,-3856,426,-5.59,,,,,,,,,,,,
12944,1564133154159,3,2.6,1.06,0.45,1.51,1.11,1.16,-0.65,0.28,17,2,19,1.33,7350,9,90,41,29,849,424.0,546,463,60,123.0,105,1,278,161,45,0,0,366,240,-8165,424,-5.59,44.681316,10.024479,41.92,176.2,0,0.0,-1,0.0,0.0,0,0.11,0.2157
12964,1564133154179,3,2.62,1.05,0.45,1.52,1.11,1.12,-0.75,0.31,18,4,21,1.35,7281,9,90,41,30,851,424.0,539,465,60,122.0,105,1,282,163,45,0,0,362,-3866,3826,424,-5.59,,,,,,,,,,,,
12984,1564133154201,2,2.64,1.06,0.45,1.52,1.11,1.05,-0.74,0.32,20,4,23,1.28,7211,9,90,41,30,854,423.0,533,467,60,122.0,105,1,282,163,45,0,0,361,-19126,-3414,423,-5.59,,,,,,,,,,,,
13004,1564133154221,1,2.68,1.05,0.45,1.52,1.11,1.01,-0.77,0.25,21,4,25,1.27,7192,9,90,41,31,858,421.0,526,463,60,123.0,104,1,285,164,44,0,0,362,8200,-21944,421,-5.59,,,,,,,,,,,,
13024,1564133154241,0,2.68,1.06,0.45,1.51,1.12,1.07,-0.85,0.29,23,3,26,1.37,7170,9,90,41,31,859,419.0,525,466,60,123.0,104,1,285,164,44,0,0,356,-6656,-9166,419,-5.59,,,,,,,,,,,,
13044,1564133154261,2,2.7,1.06,0.44,1.52,1.11,1.09,-0.88,0.35,24,2,29,1.4,7151,9,90,41,31,861,417.0,520,462,60,124.0,104,1,285,164,44,0,0,332,770,2524,417,-5.59,44.681324,10.024484,41.49,176.2,0,0.0,-1,0.0,0.0,0,0.11,0.2174
13064,1564133154281,2,2.69,1.06,0.45,1.52,1.11,0.99,-0.88,0.44,26,3,31,1.33,7110,9,90,41,31,860,418.0,523,465,60,123.0,104,1,285,164,44,0,0,322,257,-26615,418,-5.59,,,,,,,,,,,,
13084,1564133154301,-1,2.69,1.06,0.45,1.52,1.11,0.98,-0.89,0.35,27,3,32,1.33,6993,9,90,41,32,859,417.0,520,467,60,122.0,104,1,290,166,44,0,0,320,0,2524,418,-5.59,,,,,,,,,,,,
13104,1564133154321,3,2.69,1.06,0.45,1.52,1.12,1.0,-0.96,0.37,29,1,35,1.38,6939,9,90,41,32,857,418.0,514,466,60,123.0,102,1,290,166,43,0,0,312,0,7154,418,-5.59,,,,,,,,,,,,
13124,1564133154341,1,2.7,1.05,0.45,1.52,1.11,0.97,-0.88,0.42,29,2,36,1.31,6883,9,90,41,33,856,418.0,510,464,60,123.0,102,1,292,171,43,0,0,309,-6405,-21944,418,-5.59,,,,,,,,,,,,
13144,1564133154361,0,2.7,1.05,0.45,1.52,1.11,0.94,-0.99,0.42,31,2,38,1.36,6815,9,90,41,33,854,417.0,510,465,60,124.0,102,1,292,171,43,0,0,314,-6405,-21944,417,-5.59,44.681335,10.024488,41.15,176.2,0,0.0,-1,0.0,0.0,0,0.11,0.2191
13164,1564133154381,-1,2.71,1.05,0.45,1.51,1.11,0.98,-1.01,0.43,31,2,39,1.41,6679,9,90,41,33,854,416.0,492,463,60,123.0,102,1,292,176,43,0,0,317,-1268,18584,416,-5.59,,,,,,,,,,,,
13184,1564133154401,3,2.7,1.06,0.45,1.51,1.11,0.96,-1.06,0.4,33,2,41,1.43,6637,9,90,41,34,854,415.0,398,465,60,123.0,102,1,295,176,43,0,0,330,2790,-4059,414,-5.59,,,,,,,,,,,,
13204,1564133154421,-1,2.71,1.05,0.45,1.51,1.12,1.0,-1.07,0.41,33,2,41,1.47,6560,9,90,41,35,856,411.0,339,468,60,122.0,102,1,298,182,43,0,0,345,-14707,9517,411,-5.59,,,,,,,,,,,,
13224,1564133154441,2,2.72,1.05,0.45,1.52,1.12,1.04,-1.13,0.43,34,1,43,1.53,6565,9,90,41,35,857,410.0,305,465,60,124.0,109,1,298,182,45,0,0,334,-6640,-3968,410,-5.59,,,,,,,,,,,,
13244,1564133154461,-0,2.71,1.06,0.45,1.52,1.11,0.96,-1.12,0.42,36,2,43,1.47,6646,9,90,41,35,858,407.0,304,464,60,124.0,109,1,298,182,45,0,0,313,2060,28696,407,-5.59,44.681343,10.024494,39.36,176.3,0,0.0,-1,0.0,0.0,0,0.11,0.2207
13264,1564133154481,1,2.72,1.06,0.45,1.52,1.11,1.07,-1.14,0.4,36,-0,45,1.56,6682,9,90,41,35,860,405.0,305,462,60,124.0,109,1,298,187,45,0,0,289,-6644,6384,405,-5.59,,,,,,,,,,,,
13284,1564133154499,2,2.72,1.06,0.44,1.51,1.11,1.0,-1.17,0.39,37,1,46,1.54,6663,9,90,41,36,859,403.0,286,465,60,123.0,109,1,301,187,45,0,0,275,3183,-9211,403,-5.59,,,,,,,,,,,,
13304,1564133154519,0,2.72,1.06,0.45,1.52,1.12,1.03,-1.11,0.4,36,1,47,1.51,6613,9,90,41,36,861,404.0,277,467,60,122.0,113,1,301,187,46,0,0,274,28553,6512,404,-5.59,,,,,,,,,,,,
13324,1564133154539,1,2.74,1.05,0.45,1.51,1.12,0.99,-1.14,0.42,36,0,49,1.51,6546,9,90,41,36,862,403.0,273,462,60,124.0,113,1,301,187,46,0,0,276,2811,6384,403,-5.59,,,,,,,,,,,,
13344,1564133154559,-0,2.75,1.06,0.45,1.52,1.11,0.92,-1.14,0.43,37,2,49,1.47,6487,9,90,41,37,863,402.0,268,465,60,123.0,113,1,304,193,46,0,0,278,8841,28696,402,-5.59,44.681351,10.024503,38.95,176.3,0,0.0,-1,0.0,0.0,0,0.11,0.2224
13364,1564133154579,-1,2.78,1.06,0.45,1.52,1.12,1.0,-1.14,0.4,37,1,50,1.51,6353,13,90,41,38,865,400.0,260,465,60,122.0,113,1,307,199,46,0,0,281,6870,6384,400,-5.59,,,,,,,,,,,,
13384,1564133154598,-2,2.79,1.06,0.45,1.52,1.12,1.01,-1.19,0.38,37,-1,51,1.56,6291,18,90,41,39,866,397.0,253,462,60,123.0,113,1,310,204,46,0,0,302,-10554,-6656,397,-5.59,,,,,,,,,,,,
13404,1564133154618,0,2.8,1.06,0.45,1.52,1.12,0.94,-1.2,0.39,38,-2,51,1.52,6260,29,90,41,43,868,393.0,247,464,60,124.0,124,1,336,209,49,0,0,343,6668,-1818,393,-5.59,,,,,,,,,,,,
13424,1564133154638,3,2.79,1.06,0.45,1.52,1.12,0.91,-1.19,0.4,39,-1,50,1.5,6283,41,90,41,49,868,392.0,247,466,60,123.0,124,1,368,225,49,0,0,330,-122,-6475,392,-5.59,,,,,,,,,,,,
13444,1564133154658,-2,2.79,1.06,0.45,1.52,1.12,0.97,-1.2,0.35,38,-1,50,1.54,6530,55,90,41,59,869,387.0,243,466,60,122.0,124,1,398,261,49,0,0,312,2560,-19126,387,-5.59,44.681358,10.024511,37.97,176.3,0,0.0,-1,0.0,0.0,0,0.11,0.2241
13464,1564133154678,1,2.77,1.06,0.45,1.52,1.12,0.92,-1.27,0.39,38,-2,51,1.57,6623,68,90,41,69,870,385.0,242,461,60,123.0,124,1,378,326,49,0,0,289,13,-19126,385,-5.59,,,,,,,,,,,,
13484,1564133154698,-1,2.76,1.06,0.45,1.52,1.11,0.86,-1.26,0.4,39,-0,51,1.53,6611,82,90,41,81,869,385.0,240,463,60,123.0,124,1,366,462,49,0,0,284,13,-19126,385,-5.59,,,,,,,,,,,,
13504,1564133154718,0,2.73,1.06,0.45,1.52,1.12,0.93,-1.2,0.39,39,-1,52,1.52,6463,95,90,41,91,869,387.0,237,463,60,122.0,317,1,342,504,123,0,0,283,13,-6475,387,-5.59,,,,,,,,,,,,
13524,1564133154738,1,2.72,1.06,0.46,1.52,1.12,0.94,-1.23,0.4,39,-2,53,1.55,6349,100,90,41,94,868,388.0,243,465,60,123.0,317,1,335,458,123,0,0,288,3346,19125,388,-5.59,,,,,,,,,,,,
13544,1564133154758,3,2.71,1.06,0.45,1.53,1.12,0.84,-1.24,0.41,40,-1,54,1.5,6273,100,90,41,95,869,389.0,251,467,60,124.0,317,1,331,526,123,0,0,290,-32559,240,389,-5.59,44.681362,10.024521,36.99,176.3,0,0.0,-1,0.0,0.0,0,0.12,0.2257
13564,1564133154778,-0,2.69,1.06,0.45,1.53,1.12,0.81,-1.25,0.42,41,0,54,1.49,6315,100,90,41,95,872,388.0,256,466,60,124.0,317,1,333,526,123,0,0,292,-32559,19125,388,-5.59,,,,,,,,,,,,
13584,1564133154798,-0,2.69,1.06,0.45,1.52,1.11,0.89,-1.18,0.4,40,0,54,1.48,6447,100,90,41,95,876,387.0,268,466,60,123.0,317,1,340,462,123,0,0,297,-12032,19125,387,-5.59,,,,,,,,,,,,
13604,1564133154818,1,2.69,1.06,0.46,1.52,1.12,0.9,-1.15,0.42,39,-1,55,1.46,6625,100,90,41,95,881,385.0,269,463,60,123.0,340,1,349,521,131,0,0,301,-12032,-992,385,-5.59,,,,,,,,,,,,
13624,1564133154838,-0,2.67,1.06,0.45,1.52,1.12,0.85,-1.17,0.36,40,-0,53,1.45,6865,100,90,41,95,912,384.0,276,466,60,123.0,340,1,364,516,131,0,0,314,-12032,2278,383,-5.59,,,,,,,,,,,,
13644,1564133154858,-1,2.66,1.06,0.45,1.52,1.12,0.96,-1.22,0.35,40,-0,52,1.55,7159,100,90,41,95,1013,381.0,282,463,60,123.0,340,1,380,523,131,0,0,328,-12032,-6656,381,-5.59,44.68137,10.024531,36.56,176.3,0,0.0,-1,0.0,0.0,0,0.12,0.2274
13664,1564133154878,1,2.63,1.06,0.45,1.52,1.12,0.97,-1.22,0.44,40,0,52,1.56,7606,100,90,42,94,1115,379.0,286,463,60,124.0,340,1,415,545,131,0,0,331,-12032,-6656,378,-5.59,,,,,,,,,,,,
13684,1564133154900,3,2.6,1.06,0.45,1.53,1.11,0.93,-1.17,0.4,39,2,51,1.49,8092,100,90,42,93,1211,378.0,292,465,60,122.0,340,1,445,576,131,0,0,346,-32559,19125,379,-5.59,,,,,,,,,,,,
13704,1564133154920,-0,2.58,1.06,0.45,1.52,1.12,0.94,-1.15,0.47,38,3,52,1.48,8209,100,90,42,92,1297,381.0,303,464,60,122.0,480,1,443,589,183,0,0,475,4838,-1818,381,-5.59,,,,,,,,,,,,
13724,1564133154940,3,2.56,1.06,0.45,1.52,1.12,0.79,-1.03,0.45,38,5,53,1.3,8344,100,90,42,91,1350,386.0,316,463,60,123.0,480,1,440,599,183,0,0,502,-31222,-21792,386,-5.59,,,,,,,,,,,,
13744,1564133154960,2,2.53,1.05,0.45,1.51,1.12,0.76,-1.0,0.6,36,5,53,1.26,8491,100,90,42,90,1401,390.0,314,462,60,123.0,480,1,437,615,183,0,0,445,6870,13180,390,-5.59,44.681374,10.024543,35.53,176.2,0,0.0,-1,0.0,0.0,0,0.12,0.2291
13764,1564133154980,-1,2.52,1.05,0.46,1.52,1.11,0.76,-0.94,0.73,36,7,52,1.21,8445,100,90,42,90,1358,395.0,308,467,60,123.0,480,1,438,610,183,0,0,402,-1246,-18108,396,-5.59,,,,,,,,,,,,
13784,1564133154992,3,2.5,1.06,0.45,1.52,1.11,0.73,-0.92,0.71,36,6,51,1.18,8363,100,90,42,90,1310,400.0,310,464,60,122.0,480,1,440,588,183,0,0,441,2060,21432,402,-5.59,,,,,,,,,,,,
13804,1564133155012,-1,2.5,1.06,0.46,1.51,1.12,0.67,-0.85,0.76,36,6,49,1.08,8227,100,90,42,90,1244,405.0,313,465,60,123.0,449,1,444,585,182,0,0,482,2790,21580,405,-5.59,,,,,,,,,,,,
13824,1564133155032,1,2.49,1.05,0.45,1.52,1.11,0.64,-0.84,0.72,36,6,48,1.06,8245,100,90,42,90,1178,409.0,321,462,60,123.0,449,1,444,584,182,0,0,436,0,26704,409,-5.59,,,,,,,,,,,,
13844,1564133155052,1,2.48,1.05,0.45,1.52,1.12,0.56,-0.76,0.83,35,5,46,0.94,8285,100,90,42,91,1155,412.0,333,465,60,122.0,449,1,442,595,182,0,0,420,486,3571,412,-5.59,44.681377,10.024553,35.77,176.2,0,0.0,-1,0.0,0.0,0,0.12,0.2307
13864,1564133155072,3,2.46,1.06,0.45,1.53,1.11,0.51,-0.71,0.86,34,5,44,0.87,8278,100,90,42,90,1133,416.0,345,462,60,123.0,449,1,443,591,182,0,0,457,770,15649,416,-5.59,,,,,,,,,,,,
13884,1564133155100,1,2.46,1.05,0.46,1.52,1.12,0.57,-0.7,0.93,33,3,43,0.9,8355,100,90,42,90,1119,421.0,357,465,60,123.0,449,1,441,600,182,0,0,464,-6475,6193,421,-5.59,,,,,,,,,,,,
13904,1564133155120,-1,2.45,1.05,0.45,1.52,1.11,0.54,-0.74,0.91,32,2,41,0.91,8461,100,90,42,90,1106,424.0,373,462,60,122.0,449,1,438,602,182,0,0,449,1,-3267,427,-5.59,,,,,,,,,,,,
13924,1564133155140,3,2.43,1.06,0.45,1.52,1.12,0.46,-0.7,0.82,31,1,41,0.84,8616,100,90,42,89,1114,428.0,385,465,60,123.0,459,1,431,606,196,0,0,457,6384,2524,428,-5.59,,,,,,,,,,,,
13944,1564133155160,2,2.43,1.05,0.45,1.52,1.12,0.52,-0.7,0.91,30,0,39,0.88,8786,100,90,42,89,1122,433.0,399,466,60,123.0,459,1,425,606,196,0,0,473,-8151,6193,433,-5.59,44.681381,10.024567,38.39,176.2,0,0.0,-1,0.0,0.0,0,0.12,0.2324
13964,1564133155180,3,2.43,1.05,0.46,1.52,1.12,0.57,-0.69,0.93,28,1,38,0.9,8806,100,90,42,88,1131,438.0,428,464,60,122.0,459,1,424,595,196,0,0,472,9517,-23367,438,-5.59,,,,,,,,,,,,
13984,1564133155200,2,2.42,1.06,0.45,1.52,1.11,0.58,-0.61,0.97,27,1,36,0.84,8903,100,90,42,88,1140,443.0,451,463,60,122.0,459,1,421,595,196,0,0,472,18584,-9203,443,-5.59,,,,,,,,,,,,
14004,1564133155220,2,2.43,1.05,0.46,1.52,1.12,0.65,-0.59,1.07,26,2,34,0.88,9044,100,90,42,88,1142,445.0,491,466,60,123.0,458,1,418,595,204,0,0,465,-21792,505,448,-5.59,,,,,,,,,,,,
14024,1564133155240,3,2.42,1.06,0.46,1.52,1.12,0.68,-0.53,1.05,25,2,33,0.87,9101,100,90,42,88,1141,452.0,512,467,60,123.0,458,1,418,595,204,0,0,483,13180,32033,452,-5.59,,,,,,,,,,,,
14044,1564133155260,3,2.42,1.06,0.45,1.53,1.12,0.8,-0.55,0.9,24,1,32,0.97,9141,100,90,42,88,1149,457.0,537,467,60,123.0,458,1,418,595,204,0,0,513,-3322,505,457,-5.59,44.681381,10.02458,40.83,176.2,0,0.0,-1,0.0,0.0,0,0.12,0.2341
14064,1564133155280,2,2.43,1.05,0.46,1.52,1.12,0.78,-0.49,0.89,22,-0,32,0.92,9227,100,90,42,87,1157,463.0,551,470,60,123.0,458,1,418,595,204,0,0,486,-7939,248,463,-5.59,,,,,,,,,,,,
14084,1564133155300,-1,2.43,1.06,0.46,1.53,1.11,0.74,-0.54,0.73,21,-2,32,0.92,9323,100,90,42,87,1166,466.0,572,466,60,123.0,458,1,418,584,204,0,0,467,-18341,-28648,466,-5.59,,,,,,,,,,,,
14104,1564133155320,1,2.42,1.06,0.45,1.53,1.12,0.64,-0.54,0.86,21,-2,31,0.83,9319,100,90,42,87,1174,472.0,580,470,60,123.0,436,1,418,584,206,0,0,505,15649,-21872,472,-5.59,,,,,,,,,,,,
14124,1564133155340,3,2.42,1.06,0.46,1.53,1.12,0.55,-0.53,0.97,21,-1,29,0.76,9431,100,90,42,87,1179,479.0,592,461,60,123.0,436,1,418,584,206,0,0,527,14488,-21872,479,-5.59,,,,,,,,,,,,
14144,1564133155360,-0,2.42,1.05,0.45,1.52,1.12,0.56,-0.49,0.89,21,-1,29,0.75,9576,100,90,42,87,1183,484.0,600,467,60,123.0,436,1,416,586,206,0,0,497,-23623,17136,484,-5.59,44.681385,10.024594,43.25,176.2,0,0.0,-1,0.0,0.0,0,0.12,0.2357
14164,1564133155380,1,2.42,1.05,0.46,1.53,1.11,0.59,-0.49,0.91,20,-1,28,0.76,9725,100,90,42,87,1182,488.0,611,465,60,122.0,436,1,409,592,206,0,0,513,16408,17136,488,-5.59,,,,,,,,,,,,
14184,1564133155400,1,2.42,1.06,0.46,1.53,1.12,0.53,-0.5,0.83,20,-1,28,0.73,9821,100,90,42,86,1177,492.0,617,457,60,123.0,436,1,404,581,206,0,0,546,10432,-9212,492,-5.59,,,,,,,,,,,,
14204,1564133155420,3,2.42,1.06,0.45,1.52,1.12,0.53,-0.51,0.94,19,-1,27,0.73,9920,100,90,42,86,1166,498.0,625,462,60,122.0,441,1,400,584,220,0,0,518,3576,-22519,498,-5.59,,,,,,,,,,,,
14224,1564133155440,1,2.43,1.06,0.46,1.53,1.11,0.5,-0.54,0.95,19,-1,26,0.74,10032,100,90,42,86,1152,503.0,622,471,60,122.0,441,1,398,584,220,0,0,522,16648,-3082,503,-5.59,,,,,,,,,,,,
14244,1564133155460,-0,2.43,1.06,0.45,1.52,1.12,0.5,-0.55,0.96,19,-0,26,0.75,10080,100,90,42,86,1140,510.0,631,460,60,122.0,441,1,401,585,220,0,0,550,3580,-2934,510,-5.59,44.681385,10.02461,45.73,176.2,0,0.0,-1,0.0,0.0,0,0.12,0.2374
14264,1564133155480,4,2.41,1.06,0.46,1.53,1.11,0.51,-0.58,1.0,19,-0,25,0.77,10096,100,90,42,86,1130,514.0,627,462,60,122.0,441,1,402,585,220,0,0,536,-1818,-3082,514,-5.59,,,,,,,,,,,,
14284,1564133155498,1,2.42,1.06,0.46,1.52,1.11,0.5,-0.53,1.07,18,-1,24,0.73,10184,100,90,42,86,1114,520.0,625,466,60,122.0,441,1,409,585,220,0,0,548,998,6274,520,-5.59,,,,,,,,,,,,
14304,1564133155518,3,2.42,1.05,0.45,1.52,1.12,0.48,-0.6,0.99,17,-1,24,0.76,10223,100,90,42,86,1090,523.0,638,461,60,121.0,441,1,412,585,220,0,0,546,10408,-22519,523,-5.59,,,,,,,,,,,,
14324,1564133155538,1,2.43,1.06,0.46,1.52,1.12,0.42,-0.66,0.98,17,-1,24,0.78,10273,100,90,42,85,1071,527.0,636,467,60,123.0,432,1,418,585,226,0,0,555,-32248,-22263,527,-5.59,,,,,,,,,,,,
14344,1564133155558,1,2.42,1.05,0.45,1.52,1.12,0.41,-0.7,0.95,17,-1,24,0.81,10428,100,90,42,86,1058,534.0,637,466,60,122.0,432,1,427,585,226,0,0,562,-3414,-23623,534,-5.59,44.681389,10.024627,48.13,176.2,0,0.0,-1,0.0,0.0,0,0.12,0.2391
14364,1564133155578,3,2.42,1.05,0.45,1.52,1.12,0.4,-0.73,1.01,17,-0,23,0.83,10515,100,90,42,86,1045,537.0,638,466,60,122.0,432,1,432,585,226,0,0,555,26178,1780,537,-5.59,,,,,,,,,,,,
14384,1564133155597,2,2.42,1.06,0.46,1.52,1.12,0.42,-0.74,0.91,17,-1,24,0.85,10653,100,90,42,86,1034,544.0,640,462,60,122.0,432,1,435,585,226,0,0,568,1341,-16384,544,-5.59,,,,,,,,,,,,
14404,1564133155617,3,2.42,1.06,0.46,1.52,1.11,0.44,-0.81,0.97,16,-1,22,0.92,10794,100,90,42,85,1026,547.0,644,465,60,122.0,420,1,438,567,230,0,0,576,-9212,-3190,548,-5.59,,,,,,,,,,,,
14424,1564133155637,4,2.43,1.05,0.46,1.52,1.12,0.41,-0.8,1.0,16,-1,22,0.89,10882,100,90,42,85,1028,551.0,641,467,60,122.0,420,1,439,567,230,0,0,577,2524,-4035,552,-5.59,,,,,,,,,,,,
14444,1564133155657,1,2.42,1.05,0.45,1.53,1.12,0.41,-0.72,1.02,16,-1,23,0.83,10984,100,90,42,85,1027,558.0,641,469,60,122.0,420,1,443,567,230,0,0,597,14504,8488,558,-5.59,44.681389,10.024644,50.99,176.2,0,0.0,-1,0.0,0.0,0,0.13,0.2407
14464,1564133155677,3,2.43,1.05,0.46,1.53,1.12,0.46,-0.78,1.01,16,-1,22,0.91,11029,100,90,42,85,1020,564.0,648,466,60,123.0,420,1,444,567,230,0,0,596,-30064,3472,565,-5.59,,,,,,,,,,,,
14484,1564133155695,4,2.42,1.06,0.45,1.53,1.12,0.39,-0.8,1.01,16,-1,22,0.89,11147,100,90,42,85,1014,570.0,649,462,60,122.0,420,1,443,567,230,0,0,592,-3082,30227,570,-5.59,,,,,,,,,,,,
14504,1564133155715,3,2.42,1.06,0.46,1.52,1.12,0.38,-0.76,0.94,16,-2,23,0.85,11254,100,90,42,85,1005,574.0,654,463,60,122.0,420,1,442,567,230,0,0,598,-8962,17344,574,-5.59,,,,,,,,,,,,
14524,1564133155735,1,2.42,1.06,0.46,1.52,1.12,0.37,-0.74,1.03,16,-1,22,0.83,11343,100,90,42,85,997,576.0,651,464,60,121.0,421,1,441,567,242,0,0,594,2524,30227,579,-5.59,,,,,,,,,,,,
14544,1564133155755,1,2.42,1.06,0.46,1.52,1.13,0.39,-0.82,1.04,16,0,21,0.91,11356,100,90,42,85,988,583.0,652,467,60,122.0,421,1,441,567,242,0,0,623,-22263,3403,583,-5.59,44.681389,10.024663,53.29,176.1,0,0.0,-1,0.0,0.0,0,0.13,0.2424
14564,1564133155775,1,2.43,1.06,0.46,1.53,1.12,0.39,-0.72,0.97,17,0,22,0.82,11425,100,90,42,85,981,586.0,649,468,60,122.0,421,1,441,567,242,0,0,614,-23623,19304,589,-5.59,,,,,,,,,,,,
14584,1564133155795,1,2.43,1.06,0.46,1.53,1.13,0.38,-0.74,1.06,17,1,22,0.83,11559,100,90,42,84,981,594.0,653,466,60,122.0,421,1,440,549,242,0,0,611,1780,19320,594,-5.59,,,,,,,,,,,,
14604,1564133155815,3,2.42,1.06,0.46,1.53,1.12,0.42,-0.81,1.15,16,-0,21,0.91,11653,100,90,42,84,979,597.0,649,468,60,122.0,408,1,440,552,244,0,0,626,-8188,3395,597,-5.59,,,,,,,,,,,,
14624,1564133155835,3,2.42,1.06,0.46,1.53,1.12,0.41,-0.74,1.03,16,-0,22,0.85,11696,100,90,42,84,972,601.0,655,470,60,122.0,408,1,440,553,244,0,0,625,1,3,603,-5.59,,,,,,,,,,,,
14644,1564133155855,2,2.42,1.06,0.46,1.52,1.12,0.4,-0.68,1.04,17,1,22,0.79,11770,100,90,42,84,964,609.0,657,469,60,122.0,408,1,440,555,244,0,0,638,15649,-16046,609,-5.59,44.681385,10.024682,55.43,176.1,0,0.0,-1,0.0,0.0,0,0.13,0.2441
14664,1564133155875,2,2.42,1.06,0.46,1.53,1.12,0.38,-0.62,0.96,17,1,22,0.73,11852,100,90,42,84,956,611.0,655,464,60,121.0,408,1,440,557,244,0,0,626,-25872,771,611,-5.59,,,,,,,,,,,,
14684,1564133155899,1,2.42,1.06,0.46,1.52,1.12,0.35,-0.54,0.91,16,1,22,0.64,11935,100,90,42,84,948,612.0,656,468,60,121.0,408,1,440,558,244,0,0,648,208,-5120,615,-5.59,,,,,,,,,,,,
14704,1564133155919,2,2.41,1.06,0.46,1.53,1.12,0.36,-0.47,0.97,15,2,21,0.59,12003,100,90,42,84,930,618.0,656,467,60,121.0,412,1,440,560,255,0,0,640,-13043,-10251,618,-5.59,,,,,,,,,,,,
14724,1564133155939,1,2.42,1.06,0.46,1.53,1.12,0.32,-0.45,1.03,15,1,21,0.55,12019,100,90,41,84,912,622.0,656,466,60,122.0,412,1,440,560,255,0,0,631,6273,-30207,622,-5.59,,,,,,,,,,,,
14744,1564133155959,1,2.43,1.06,0.46,1.52,1.12,0.27,-0.39,0.96,15,1,21,0.47,12112,100,90,41,84,901,624.0,657,465,60,120.0,412,1,440,560,255,0,0,648,-7939,-8429,624,-5.59,44.681385,10.024701,57.59,176.0,0,0.0,-1,0.0,0.0,0,0.13,0.2457
14764,1564133155979,3,2.41,1.06,0.46,1.53,1.12,0.25,-0.34,0.83,15,0,21,0.42,12183,100,90,41,84,891,629.0,656,468,60,121.0,412,1,440,560,255,0,0,661,-7939,2024,633,-5.59,,,,,,,,,,,,
14784,1564133155991,2,2.42,1.06,0.46,1.53,1.13,0.27,-0.27,0.87,14,-0,21,0.38,12270,100,90,41,84,870,634.0,659,466,60,121.0,412,1,440,560,255,0,0,662,5344,-3038,635,-5.59,,,,,,,,,,,,
14804,1564133156011,0,2.41,1.06,0.46,1.53,1.12,0.29,-0.31,0.75,14,-3,21,0.43,12351,100,90,41,84,851,636.0,662,468,60,122.0,411,1,440,560,262,0,0,685,5344,3543,635,-5.59,,,,,,,,,,,,
14824,1564133156031,-1,2.4,1.06,0.46,1.53,1.12,0.36,-0.42,0.69,13,-5,21,0.55,12159,100,90,42,83,840,639.0,657,469,60,124.0,411,1,440,545,262,0,0,678,1010,-3578,639,181.28,,,,,,,,,,,,
14844,1564133156051,-3,2.41,1.06,0.46,1.53,1.11,0.35,-0.45,0.5,14,-7,21,0.57,11704,100,90,42,85,833,642.0,652,463,60,124.0,411,1,440,571,262,0,0,635,19320,2024,642,181.28,44.681381,10.024722,59.9,176.0,0,0.0,-1,0.0,0.0,0,0.13,0.2474
14864,1564133156071,-1,2.39,1.05,0.46,1.53,1.11,0.41,-0.4,0.49,13,-8,20,0.58,11363,100,90,42,86,817,643.0,650,465,60,122.0,411,1,441,585,262,0,0,628,17336,11776,645,-5.59,,,,,,,,,,,,
14884,1564133156099,0,2.39,1.06,0.46,1.53,1.11,0.46,-0.46,0.46,13,-8,20,0.65,11107,100,90,42,87,801,645.0,646,460,60,123.0,411,1,445,604,262,0,0,628,-1346,244,645,181.28,,,,,,,,,,,,
14904,1564133156119,3,2.4,1.06,0.46,1.53,1.12,0.44,-0.61,0.49,13,-9,18,0.76,10894,100,90,42,87,792,644.0,646,462,60,123.0,389,1,443,604,251,0,0,623,20993,-2830,644,181.28,,,,,,,,,,,,
14924,1564133156139,4,2.39,1.06,0.46,1.53,1.11,0.52,-0.62,0.64,13,-5,19,0.81,10469,100,90,41,88,784,647.0,645,463,60,122.0,389,1,431,1082,251,0,0,665,771,8958,647,-5.59,,,,,,,,,,,,
14944,1564133156159,2,2.4,1.06,0.46,1.53,1.12,0.4,-0.62,0.75,14,0,20,0.74,9889,100,90,41,88,864,657.0,632,467,60,122.0,389,1,402,558,251,0,0,801,3,6658,657,-5.59,44.681381,10.024742,62.38,175.9,0,0.0,-1,0.0,0.0,0,0.13,0.2491
14964,1564133156179,4,2.39,1.06,0.46,1.53,1.12,0.34,-0.59,0.87,14,4,19,0.68,9775,100,90,41,87,973,665.0,625,462,60,123.0,389,1,407,536,251,0,0,746,-4876,24,667,-5.59,,,,,,,,,,,,
14984,1564133156199,2,2.39,1.06,0.45,1.53,1.12,0.26,-0.61,0.88,16,5,19,0.67,9730,100,90,41,86,1087,666.0,630,465,60,122.0,389,1,408,700,251,0,0,672,4909,24,669,-5.59,,,,,,,,,,,,
15004,1564133156219,2,2.4,1.05,0.46,1.53,1.12,0.33,-0.58,0.99,16,5,19,0.67,9493,100,90,41,87,1204,676.0,620,460,60,123.0,315,1,418,592,213,0,0,690,-30207,15647,676,-5.59,,,,,,,,,,,,
15024,1564133156239,3,2.4,1.06,0.46,1.52,1.12,0.4,-0.61,0.91,16,4,19,0.73,9333,100,90,41,87,1321,675.0,631,465,60,123.0,315,1,418,584,213,0,0,685,-3488,24,675,-5.59,,,,,,,,,,,,
15044,1564133156259,4,2.4,1.06,0.46,1.52,1.12,0.43,-0.59,0.92,16,1,18,0.73,9268,100,90,41,87,1438,676.0,622,468,60,123.0,315,1,418,584,213,0,0,701,-2830,-10448,676,-5.59,44.681377,10.024764,62.93,175.9,0,0.0,-1,0.0,0.0,0,0.14,0.2507
15064,1564133156279,1,2.39,1.06,0.46,1.53,1.11,0.46,-0.61,0.76,15,-2,19,0.77,9384,100,90,41,87,1498,680.0,616,466,60,122.0,315,1,418,584,213,0,0,700,-2345,24,681,-5.59,,,,,,,,,,,,
15084,1564133156299,3,2.4,1.06,0.46,1.53,1.11,0.43,-0.66,0.86,14,-2,17,0.78,9556,100,90,41,87,1498,681.0,616,466,60,122.0,315,1,417,585,213,0,0,710,3543,19188,683,-5.59,,,,,,,,,,,,
15104,1564133156319,1,2.39,1.05,0.45,1.53,1.12,0.45,-0.66,0.89,14,-2,17,0.8,9725,100,90,41,87,1442,688.0,626,462,60,123.0,315,1,409,534,213,0,0,708,-3578,687,688,-5.59,,,,,,,,,,,,
15124,1564133156339,4,2.4,1.05,0.45,1.52,1.12,0.42,-0.65,1.0,14,-1,16,0.77,9878,100,90,41,86,1349,693.0,631,468,60,122.0,316,1,402,583,218,0,0,734,-26380,1524,693,-5.59,,,,,,,,,,,,
15144,1564133156359,1,2.4,1.05,0.46,1.52,1.12,0.29,-0.65,1.09,14,1,16,0.71,9989,100,90,41,86,1256,696.0,631,466,60,122.0,316,1,397,585,218,0,0,736,-2826,-2830,699,-5.59,44.681374,10.024786,64.83,175.9,0,0.0,-1,0.0,0.0,0,0.14,0.2524
15164,1564133156379,1,2.41,1.06,0.46,1.52,1.12,0.25,-0.59,1.05,14,1,16,0.64,10005,100,90,41,86,1163,702.0,635,468,60,123.0,316,1,396,585,218,0,0,727,-26562,-31068,702,-5.59,,,,,,,,,,,,
15184,1564133156401,2,2.42,1.06,0.46,1.52,1.12,0.29,-0.59,1.14,14,1,16,0.65,10059,100,90,41,86,1072,705.0,640,462,60,123.0,316,1,400,585,218,0,0,730,-10399,-31066,707,-5.59,,,,,,,,,,,,
15204,1564133156421,3,2.42,1.06,0.46,1.52,1.12,0.23,-0.61,1.18,14,2,16,0.65,9941,100,90,41,86,984,712.0,632,468,60,122.0,310,1,399,584,221,0,0,742,-3584,-2356,712,-5.59,,,,,,,,,,,,
15224,1564133156441,4,2.42,1.06,0.46,1.53,1.12,0.29,-0.58,1.2,15,0,16,0.65,9941,100,90,41,86,928,716.0,635,463,60,123.0,310,1,399,584,221,0,0,742,14342,-22796,717,-5.59,,,,,,,,,,,,
15244,1564133156461,3,2.43,1.06,0.46,1.53,1.12,0.31,-0.57,1.28,15,0,15,0.65,10042,100,90,41,86,934,721.0,640,460,60,122.0,310,1,398,585,221,0,0,727,-2830,-2356,721,-5.59,44.681366,10.024807,67.55,175.8,0,0.0,-1,0.0,0.0,0,0.14,0.2541
15264,1564133156481,1,2.43,1.06,0.46,1.52,1.12,0.25,-0.66,1.3,16,1,14,0.7,10080,100,90,41,86,938,723.0,635,470,60,122.0,310,1,401,585,221,0,0,763,11069,-4096,726,-5.59,,,,,,,,,,,,
15284,1564133156499,6,2.43,1.06,0.46,1.53,1.11,0.29,-0.68,1.29,16,2,14,0.74,10173,100,90,41,86,943,730.0,638,461,60,123.0,310,1,408,585,221,0,0,732,-20693,-4096,730,-5.59,,,,,,,,,,,,
15304,1564133156519,8,2.42,1.06,0.46,1.53,1.12,0.36,-0.62,1.19,16,1,15,0.71,10268,89,90,41,85,947,726.0,645,461,60,122.0,304,1,414,567,221,0,0,738,24,-3344,726,-5.59,,,,,,,,,,,,
15324,1564133156539,12,2.42,1.07,0.46,1.52,1.12,0.44,-0.58,1.21,16,1,15,0.73,10173,74,90,41,82,947,727.0,638,462,60,123.0,304,1,407,523,221,0,0,754,-3584,-31066,727,-5.59,,,,,,,,,,,,
15344,1564133156559,12,2.42,1.06,0.46,1.53,1.12,0.54,-0.6,1.24,16,-1,15,0.8,10168,59,90,41,75,947,731.0,631,466,60,122.0,304,1,408,471,221,0,0,764,14342,-3038,731,-5.59,44.681362,10.02483,69.44,175.8,0,0.0,-1,0.0,0.0,0,0.14,0.2557
15364,1564133156579,10,2.43,1.06,0.46,1.53,1.11,0.57,-0.69,1.04,16,-2,16,0.9,10140,46,90,41,67,949,730.0,636,465,60,122.0,304,1,405,419,221,0,0,744,12333,-22795,730,-5.59,,,,,,,,,,,,
15384,1564133156596,11,2.43,1.06,0.45,1.53,1.11,0.64,-0.7,0.9,16,-3,16,0.94,10059,36,90,41,61,951,733.0,638,466,60,123.0,304,1,413,368,221,0,0,743,11576,-2574,733,-5.59,,,,,,,,,,,,
15404,1564133156616,14,2.42,1.07,0.46,1.53,1.11,0.77,-0.7,0.79,16,-4,17,1.04,9973,26,90,41,54,953,730.0,640,465,60,123.0,160,1,400,310,117,0,0,737,16118,-3450,730,-5.59,,,,,,,,,,,,
15424,1564133156636,12,2.43,1.06,0.46,1.53,1.12,0.77,-0.76,0.64,16,-5,18,1.08,9847,24,90,41,49,952,733.0,637,467,60,123.0,160,1,385,259,117,0,0,746,3543,-2314,731,-5.59,,,,,,,,,,,,
15444,1564133156656,13,2.42,1.07,0.46,1.53,1.12,0.82,-0.79,0.72,17,-6,18,1.14,9551,23,90,41,45,942,731.0,637,465,60,122.0,160,1,365,228,117,0,0,705,19188,3462,731,-5.59,44.681354,10.024852,71.12,175.7,0,0.0,-1,0.0,0.0,0,0.14,0.2574
15464,1564133156676,15,2.42,1.07,0.46,1.53,1.11,0.85,-0.82,0.73,17,-6,18,1.18,9309,23,90,41,43,931,729.0,632,458,60,122.0,160,1,348,221,117,0,0,688,11576,-3344,729,-5.59,,,,,,,,,,,,
15484,1564133156694,14,2.42,1.07,0.46,1.52,1.11,0.9,-0.83,0.64,18,-5,19,1.22,9079,23,90,41,43,920,730.0,627,468,60,123.0,160,1,345,219,117,0,0,653,-2830,-25858,728,-5.59,,,,,,,,,,,,
15504,1564133156714,15,2.42,1.06,0.45,1.52,1.12,0.98,-0.84,0.63,18,-4,20,1.29,8856,23,90,41,42,905,727.0,618,462,60,123.0,99,1,338,215,72,0,0,607,16118,31988,727,-5.59,,,,,,,,,,,,
15524,1564133156734,13,2.42,1.06,0.46,1.53,1.12,1.03,-0.85,0.65,18,-4,21,1.33,8636,23,90,41,42,874,723.0,611,467,60,124.0,99,1,338,215,72,0,0,569,16118,-2830,722,-5.59,,,,,,,,,,,,
15544,1564133156754,15,2.42,1.07,0.46,1.53,1.12,1.0,-0.86,0.56,19,-3,21,1.31,8411,23,90,41,42,843,1918.0,605,466,60,123.0,99,1,337,213,72,0,0,640,-7436,-23490,1918,-5.59,44.681347,10.024875,72.07,175.7,0,0.0,-1,0.0,0.0,0,0.15,0.2591
15564,1564133156774,13,2.41,1.06,0.46,1.53,1.11,1.06,-0.86,0.52,19,-3,21,1.37,8256,23,90,41,42,823,1918.0,587,466,60,124.0,99,1,335,212,72,0,0,640,250,-30694,1918,-5.59,,,,,,,,,,,,
15584,1564133156794,14,2.42,1.07,0.45,1.53,1.11,1.06,-0.9,0.48,19,-3,22,1.39,8016,23,90,41,43,804,705.0,540,464,60,122.0,99,1,340,212,72,0,0,640,3543,204,705,-5.59,,,,,,,,,,,,
15604,1564133156814,14,2.42,1.06,0.45,1.53,1.11,1.09,-0.89,0.42,18,-2,24,1.41,7805,23,90,41,43,808,707.0,508,467,60,124.0,99,1,340,212,72,0,0,640,-3038,6658,706,-5.59,,,,,,,,,,,,
15624,1564133156834,10,2.42,1.06,0.46,1.53,1.11,1.08,-0.83,0.35,18,-2,24,1.37,7722,22,90,41,43,812,709.0,426,463,60,123.0,87,1,340,212,62,0,0,640,-3578,15647,709,-5.59,,,,,,,,,,,,
15644,1564133156854,10,2.42,1.07,0.46,1.53,1.11,1.06,-0.83,0.37,19,-1,25,1.35,7631,22,90,41,42,833,703.0,357,458,60,125.0,87,1,332,212,62,0,0,400,3543,12333,703,181.28,44.681339,10.024897,70.91,175.7,0,0.0,-1,0.0,0.0,0,0.15,0.2607
15664,1564133156874,8,2.41,1.06,0.46,1.52,1.11,1.01,-0.84,0.38,19,-0,25,1.31,7479,22,91,41,43,858,699.0,330,461,60,125.0,87,1,340,211,62,0,0,362,8958,-2830,699,414.87,,,,,,,,,,,,
15684,1564133156900,9,2.42,1.06,0.46,1.53,1.11,1.04,-0.82,0.45,19,-1,26,1.32,7264,22,91,41,43,890,699.0,311,461,60,124.0,87,1,340,211,62,0,0,329,-26380,16599,697,181.28,,,,,,,,,,,,
15704,1564133156920,9,2.42,1.06,0.44,1.52,1.12,1.05,-0.79,0.38,19,-0,26,1.31,7086,22,91,41,44,923,696.0,313,457,60,124.0,81,1,347,213,57,0,0,322,8958,14342,697,181.28,,,,,,,,,,,,
15724,1564133156940,9,2.42,1.06,0.46,1.53,1.11,1.03,-0.91,0.39,19,-1,26,1.37,6921,22,91,41,45,938,694.0,320,460,60,124.0,81,1,354,214,57,0,0,319,31988,24845,694,181.28,,,,,,,,,,,,
15744,1564133156960,10,2.42,1.06,0.45,1.53,1.11,1.11,-0.9,0.44,19,-0,27,1.43,6773,22,90,41,46,947,690.0,308,456,60,123.0,81,1,359,328,57,0,0,300,11566,12333,687,-5.59,44.681328,10.024918,69.45,175.6,0,0.0,-1,0.0,0.0,0,0.15,0.2624
15764,1564133156980,8,2.43,1.06,0.46,1.52,1.11,1.14,-1.01,0.31,18,-0,25,1.52,6913,22,90,41,48,951,685.0,315,468,60,122.0,81,1,371,314,57,0,0,280,-3584,-26892,685,-5.59,,,,,,,,,,,,
15784,1564133156992,10,2.42,1.06,0.46,1.52,1.11,1.16,-0.97,0.37,18,-0,27,1.51,6944,22,90,41,49,954,682.0,332,465,60,123.0,81,1,374,287,57,0,0,209,4909,479,682,-5.59,,,,,,,,,,,,
15804,1564133157012,12,2.43,1.06,0.45,1.53,1.11,1.14,-0.93,0.42,17,1,28,1.47,7156,22,90,41,49,951,674.0,355,467,60,122.0,105,1,375,263,71,0,0,167,-3584,31988,674,-5.59,,,,,,,,,,,,
15824,1564133157032,11,2.43,1.07,0.45,1.53,1.12,1.06,-0.93,0.28,18,2,27,1.41,7434,22,90,41,49,944,671.0,350,465,60,122.0,105,1,375,234,71,0,0,116,6208,-30207,671,-5.59,,,,,,,,,,,,
15844,1564133157052,9,2.44,1.06,0.45,1.53,1.11,1.06,-0.99,0.25,19,3,27,1.45,7515,22,90,41,48,939,669.0,370,466,60,123.0,105,1,372,224,71,0,0,116,3,1549,672,-5.59,44.68132,10.024938,67.84,175.6,0,0.0,-1,0.0,0.0,0,0.15,0.2641
15864,1564133157072,9,2.44,1.06,0.45,1.53,1.12,1.05,-0.99,0.21,19,5,28,1.44,7603,22,90,41,48,935,669.0,355,462,60,124.0,105,1,372,224,71,0,0,116,-4876,31988,668,-5.59,,,,,,,,,,,,
15884,1564133157100,9,2.44,1.06,0.46,1.53,1.11,1.04,-0.94,0.13,19,4,29,1.4,7653,22,90,41,47,935,667.0,348,462,60,123.0,105,1,370,224,71,0,0,48,-14655,-3038,667,-5.59,,,,,,,,,,,,
15904,1564133157120,7,2.45,1.07,0.45,1.52,1.12,0.97,-0.91,0.19,20,5,28,1.33,7646,22,90,41,47,936,664.0,338,465,60,123.0,105,1,370,219,71,0,0,48,3395,-388,664,-5.59,,,,,,,,,,,,
15924,1564133157140,5,2.47,1.06,0.46,1.52,1.12,0.94,-0.91,0.23,21,5,29,1.31,7461,22,90,41,47,926,662.0,339,467,60,123.0,94,1,370,145,63,0,0,66,3403,-10344,662,-5.59,,,,,,,,,,,,
15944,1564133157160,6,2.47,1.07,0.46,1.53,1.11,0.86,-0.92,0.28,21,6,29,1.26,7506,22,90,41,47,912,656.0,348,466,60,123.0,94,1,370,219,63,0,0,260,1010,-2345,656,-5.59,44.681309,10.024956,66.2,175.6,0,0.0,-1,0.0,0.0,0,0.15,0.2657
15964,1564133157180,5,2.48,1.07,0.45,1.52,1.11,0.85,-0.93,0.32,22,4,30,1.26,7524,22,90,41,47,898,656.0,336,463,60,123.0,94,1,370,219,63,0,0,262,-3820,-6006,656,-5.59,,,,,,,,,,,,
15984,1564133157198,2,2.5,1.06,0.46,1.53,1.11,0.85,-0.92,0.34,22,3,31,1.25,7659,22,90,41,47,882,654.0,350,462,60,123.0,94,1,370,219,63,0,0,257,-3820,-8429,654,-5.59,,,,,,,,,,,,
16004,1564133157218,3,2.49,1.06,0.45,1.52,1.12,0.87,-0.95,0.37,23,2,32,1.29,7738,22,90,41,47,859,652.0,382,464,60,124.0,96,1,370,217,63,0,0,229,-3446,11776,652,-5.59,,,,,,,,,,,,
16024,1564133157238,5,2.48,1.06,0.46,1.53,1.12,0.88,-1.03,0.4,23,2,32,1.35,7904,22,90,41,46,830,650.0,400,465,60,123.0,96,1,362,217,63,0,0,171,17740,479,650,-5.59,,,,,,,,,,,,
16044,1564133157258,4,2.49,1.06,0.45,1.53,1.11,0.89,-1.02,0.34,24,3,32,1.36,8029,22,90,41,46,808,650.0,416,466,60,123.0,96,1,362,215,63,0,0,145,-30139,4909,650,-5.59,44.681301,10.024973,64.13,175.6,0,0.0,-1,0.0,0.0,0,0.15,0.2674
16064,1564133157278,1,2.49,1.07,0.45,1.53,1.11,0.9,-1.05,0.39,25,4,32,1.38,8081,22,90,41,45,794,650.0,393,463,60,124.0,96,1,355,215,63,0,0,123,19621,-6006,650,-5.59,,,,,,,,,,,,
16084,1564133157300,3,2.49,1.07,0.46,1.52,1.11,0.91,-1.09,0.35,25,5,33,1.42,8145,22,90,41,44,779,647.0,400,465,60,123.0,96,1,348,214,63,0,0,123,5344,11776,647,-5.59,,,,,,,,,,,,
16104,1564133157320,0,2.49,1.06,0.46,1.52,1.12,0.91,-1.08,0.39,25,5,33,1.42,8159,22,90,41,43,765,646.0,393,465,60,123.0,102,1,341,213,66,0,0,106,-23055,2024,646,-5.59,,,,,,,,,,,,
16124,1564133157340,2,2.48,1.06,0.45,1.53,1.11,0.93,-1.12,0.43,26,6,33,1.46,7941,22,90,41,43,755,645.0,370,465,60,123.0,102,1,340,210,66,0,0,236,-7939,24583,645,-5.59,,,,,,,,,,,,
16144,1564133157360,1,2.5,1.06,0.46,1.52,1.12,0.98,-1.17,0.36,26,6,33,1.52,7884,22,90,41,43,754,642.0,345,467,60,122.0,102,1,340,212,66,0,0,361,-7939,11776,642,-5.59,44.681286,10.024989,62.87,175.6,0,0.0,-1,0.0,0.0,0,0.16,0.2691
16164,1564133157380,-1,2.5,1.06,0.46,1.53,1.11,0.96,-1.24,0.44,26,4,33,1.57,7901,22,90,41,42,755,638.0,323,464,60,124.0,102,1,332,212,66,0,0,404,243,-2836,638,-5.59,,,,,,,,,,,,
16184,1564133157400,1,2.5,1.06,0.45,1.53,1.11,1.06,-1.22,0.46,26,2,33,1.62,8012,22,90,41,43,758,637.0,335,465,60,124.0,102,1,340,210,66,0,0,405,-3210,-7939,637,-5.59,,,,,,,,,,,,
16204,1564133157420,2,2.5,1.06,0.45,1.52,1.12,1.01,-1.3,0.46,26,2,34,1.65,8289,22,90,41,42,761,630.0,353,462,60,122.0,102,1,335,212,66,0,0,354,4956,-4876,630,-5.59,,,,,,,,,,,,
16224,1564133157440,1,2.49,1.07,0.45,1.52,1.11,1.09,-1.27,0.44,26,0,35,1.67,8581,22,90,41,41,763,631.0,335,464,60,123.0,104,1,332,212,66,0,0,333,3472,1010,631,-5.59,,,,,,,,,,,,
16244,1564133157460,0,2.51,1.06,0.45,1.53,1.11,1.09,-1.23,0.41,26,1,35,1.64,8852,22,90,41,40,767,629.0,325,466,60,124.0,104,1,326,211,66,0,0,274,6273,506,626,-5.59,44.681278,10.025002,62.04,175.6,0,0.0,-1,0.0,0.0,0,0.16,0.2707
16264,1564133157480,2,2.49,1.06,0.45,1.53,1.11,1.06,-1.21,0.41,26,1,36,1.61,8949,22,90,41,39,770,628.0,325,463,60,122.0,104,1,320,209,66,0,0,262,2048,20993,629,-5.59,,,,,,,,,,,,
16284,1564133157498,2,2.49,1.06,0.46,1.53,1.11,1.07,-1.23,0.47,26,2,35,1.63,8979,22,90,41,37,773,628.0,336,469,60,124.0,104,1,314,205,66,0,0,264,-12040,3,630,-5.59,,,,,,,,,,,,
16304,1564133157518,2,2.49,1.06,0.45,1.53,1.11,1.1,-1.24,0.51,26,3,35,1.66,9014,22,90,41,37,774,630.0,327,470,60,123.0,104,1,314,201,66,0,0,269,208,-16046,630,-5.59,,,,,,,,,,,,
16324,1564133157538,2,2.49,1.07,0.45,1.53,1.12,1.13,-1.24,0.56,26,3,35,1.68,9044,22,90,41,36,775,626.0,331,470,60,123.0,107,1,311,199,68,0,0,272,8488,20993,626,-5.59,,,,,,,,,,,,
16344,1564133157558,1,2.49,1.06,0.46,1.52,1.11,1.16,-1.23,0.51,26,2,35,1.69,9036,22,90,41,36,780,624.0,327,461,60,122.0,107,1,311,199,68,0,0,299,-4035,966,621,-5.59,44.681263,10.025015,61.57,175.6,0,0.0,-1,0.0,0.0,0,0.16,0.2724
16364,1564133157578,2,2.51,1.05,0.45,1.53,1.11,1.21,-1.24,0.53,26,1,35,1.73,9027,22,90,41,35,785,621.0,318,469,60,123.0,107,1,308,199,68,0,0,374,-16384,-16883,622,-5.59,,,,,,,,,,,,
16384,1564133157597,1,2.52,1.06,0.45,1.52,1.11,1.23,-1.25,0.54,27,1,34,1.75,9010,22,90,41,35,790,618.0,316,469,60,123.0,107,1,308,120,68,0,0,430,-3210,19320,622,-5.59,,,,,,,,,,,,
16404,1564133157617,-0,2.51,1.07,0.45,1.52,1.12,1.29,-1.3,0.61,26,-0,34,1.83,9005,22,90,40,35,795,619.0,316,468,60,124.0,106,1,308,195,66,0,0,463,30208,-16883,619,-5.59,,,,,,,,,,,,
16424,1564133157637,2,2.51,1.06,0.46,1.52,1.12,1.37,-1.3,0.59,26,-1,34,1.89,9044,22,90,40,35,807,615.0,320,462,60,122.0,106,1,308,195,66,0,0,468,259,30721,615,-5.59,,,,,,,,,,,,
16444,1564133157657,2,2.51,1.06,0.46,1.53,1.11,1.41,-1.27,0.54,25,-0,35,1.9,9213,22,90,40,35,819,614.0,317,467,60,124.0,106,1,308,198,66,0,0,414,774,-16179,612,-5.59,44.681252,10.025026,60.1,175.6,0,0.0,-1,0.0,0.0,0,0.16,0.2741
16464,1564133157677,0,2.52,1.06,0.46,1.52,1.12,1.37,-1.29,0.46,24,-2,35,1.88,9426,22,90,40,34,827,607.0,327,469,60,123.0,106,1,305,198,66,0,0,383,-8188,-16179,607,-5.59,,,,,,,,,,,,
16484,1564133157697,-0,2.51,1.07,0.46,1.52,1.12,1.24,-1.31,0.46,25,0,35,1.81,9412,22,90,40,34,834,607.0,342,473,60,123.0,106,1,305,199,66,0,0,362,-3190,243,607,-5.59,,,,,,,,,,,,
16504,1564133157717,1,2.51,1.06,0.46,1.53,1.12,1.19,-1.29,0.5,27,0,35,1.76,9370,22,90,40,33,838,609.0,353,465,60,124.0,113,1,302,194,69,0,0,362,-8186,-3446,610,-5.59,,,,,,,,,,,,
16524,1564133157737,3,2.52,1.06,0.46,1.52,1.12,1.19,-1.25,0.45,27,1,36,1.73,9342,22,90,40,33,843,609.0,344,462,60,122.0,113,1,302,194,69,0,0,360,1780,-23055,609,-5.59,,,,,,,,,,,,
16544,1564133157757,0,2.52,1.07,0.45,1.53,1.11,1.17,-1.18,0.4,27,2,37,1.67,9305,22,90,40,33,841,607.0,337,466,60,123.0,113,1,302,193,69,0,0,364,2211,243,607,-5.59,44.68124,10.025035,59.8,175.6,0,0.0,-1,0.0,0.0,0,0.16,0.2757
16564,1564133157777,1,2.53,1.07,0.46,1.52,1.12,1.14,-1.25,0.37,27,2,37,1.69,9291,22,90,40,33,838,602.0,338,472,60,122.0,113,1,302,193,69,0,0,369,-23623,23619,605,-5.59,,,,,,,,,,,,
16584,1564133157797,-2,2.54,1.06,0.46,1.53,1.11,1.04,-1.25,0.47,28,3,35,1.63,9250,22,90,40,33,834,599.0,347,472,60,123.0,113,1,302,192,69,0,0,400,-23623,30227,599,-5.59,,,,,,,,,,,,
16604,1564133157817,2,2.53,1.06,0.46,1.53,1.12,1.02,-1.32,0.62,29,4,34,1.67,9222,22,90,40,33,831,599.0,330,462,60,123.0,111,1,302,192,67,0,0,451,-18032,-7939,599,-5.59,,,,,,,,,,,,
16624,1564133157837,1,2.54,1.06,0.46,1.53,1.12,1.06,-1.34,0.68,29,3,34,1.71,9200,22,90,40,33,829,597.0,324,461,60,123.0,111,1,302,192,67,0,0,466,2216,-12040,599,-5.59,,,,,,,,,,,,
16644,1564133157857,3,2.53,1.07,0.45,1.52,1.12,1.07,-1.34,0.64,28,3,35,1.71,9323,22,90,40,33,829,595.0,318,465,60,124.0,111,1,302,193,67,0,0,433,-22263,-4035,595,-5.59,44.681225,10.025043,58.5,175.6,0,0.0,-1,0.0,0.0,0,0.16,0.2774
16664,1564133157877,0,2.53,1.06,0.45,1.53,1.11,1.07,-1.39,0.49,28,2,37,1.75,9464,22,90,40,33,825,592.0,315,464,60,124.0,111,1,302,196,67,0,0,393,-28648,-3210,591,-5.59,,,,,,,,,,,,
16684,1564133157899,0,2.53,1.06,0.46,1.52,1.12,1.0,-1.38,0.63,28,1,36,1.71,9469,28,90,40,33,820,589.0,313,461,60,123.0,111,1,302,196,67,0,0,379,-28648,30227,592,-5.59,,,,,,,,,,,,
16704,1564133157919,3,2.53,1.07,0.46,1.52,1.12,1.03,-1.36,0.58,29,2,36,1.7,9460,34,90,40,35,815,592.0,306,460,60,123.0,119,1,308,200,71,0,0,380,6274,3472,592,-5.59,,,,,,,,,,,,
16724,1564133157939,1,2.53,1.07,0.46,1.52,1.12,0.98,-1.32,0.46,30,3,37,1.65,9522,44,90,40,39,810,591.0,306,463,60,123.0,119,1,320,211,71,0,0,381,2104,2048,590,-5.59,,,,,,,,,,,,
16744,1564133157959,1,2.53,1.06,0.45,1.53,1.12,0.95,-1.32,0.6,29,4,37,1.62,9561,53,90,40,44,809,588.0,309,471,60,122.0,119,1,357,225,71,0,0,384,-506,-12040,588,-5.59,44.68121,10.025049,57.95,175.6,0,0.0,-1,0.0,0.0,0,0.17,0.2791
16764,1564133157979,3,2.53,1.06,0.46,1.53,1.11,0.94,-1.34,0.48,29,5,37,1.64,9571,62,90,40,51,808,586.0,316,471,60,123.0,119,1,391,277,71,0,0,389,-506,-1894,588,-5.59,,,,,,,,,,,,
16784,1564133157991,1,2.53,1.07,0.45,1.52,1.12,0.93,-1.31,0.38,29,3,38,1.61,9450,69,90,40,58,810,585.0,314,467,60,122.0,119,1,406,321,71,0,0,397,-506,-25872,585,-5.59,,,,,,,,,,,,
16804,1564133158011,1,2.53,1.06,0.45,1.52,1.12,0.88,-1.31,0.54,30,2,37,1.58,9445,76,90,40,65,814,584.0,329,471,60,122.0,119,1,413,289,71,0,0,430,-8962,-25872,582,-5.59,,,,,,,,,,,,
16824,1564133158031,2,2.53,1.06,0.45,1.53,1.12,0.99,-1.35,0.38,30,1,37,1.68,9450,81,90,40,72,833,583.0,330,467,60,123.0,219,1,415,407,128,0,0,460,1780,10432,583,-5.59,,,,,,,,,,,,
16844,1564133158051,1,2.52,1.07,0.46,1.53,1.12,0.97,-1.36,0.39,31,2,36,1.67,9441,84,90,40,79,864,582.0,332,470,60,122.0,219,1,416,485,128,0,0,474,-3082,10432,582,-5.59,44.681198,10.025053,57.26,175.6,0,0.0,-1,0.0,0.0,0,0.17,0.2807
16864,1564133158071,3,2.52,1.07,0.45,1.52,1.11,0.97,-1.31,0.55,30,3,37,1.63,9537,88,90,40,83,894,583.0,330,460,60,123.0,219,1,417,527,128,0,0,479,-28648,-16384,583,-5.59,,,,,,,,,,,,
16884,1564133158093,1,2.52,1.06,0.46,1.53,1.11,0.94,-1.34,0.39,29,2,38,1.64,9735,91,90,40,84,922,576.0,336,459,60,122.0,219,1,408,550,128,0,0,482,-30064,1,578,-5.59,,,,,,,,,,,,
16904,1564133158113,4,2.51,1.07,0.45,1.53,1.11,0.94,-1.32,0.42,29,1,37,1.62,10102,93,90,40,84,990,578.0,352,464,60,122.0,363,1,401,549,210,0,0,483,1780,-16384,578,-5.59,,,,,,,,,,,,
16924,1564133158133,3,2.51,1.07,0.45,1.53,1.11,0.92,-1.35,0.56,29,1,37,1.63,10581,94,90,40,84,1098,577.0,337,466,60,122.0,363,1,432,549,210,0,0,496,-8186,774,577,-5.59,,,,,,,,,,,,
16944,1564133158153,0,2.51,1.06,0.45,1.52,1.12,0.95,-1.27,0.55,30,1,37,1.59,10894,95,90,40,84,1197,577.0,348,470,60,121.0,363,1,440,549,210,0,0,506,1780,30208,574,-5.59,44.681183,10.025056,56.42,175.6,0,0.0,-1,0.0,0.0,0,0.17,0.2824
16964,1564133158173,3,2.51,1.07,0.45,1.52,1.11,0.92,-1.32,0.46,29,1,37,1.61,11281,95,90,40,84,1277,574.0,336,468,60,122.0,363,1,441,549,210,0,0,522,-28648,30208,574,-5.59,,,,,,,,,,,,
16984,1564133158199,2,2.5,1.07,0.45,1.53,1.11,0.9,-1.28,0.52,29,2,38,1.56,11453,95,90,40,84,1344,574.0,343,471,60,121.0,363,1,441,549,210,0,0,585,-32248,-13043,575,-5.59,,,,,,,,,,,,
17004,1564133158219,2,2.48,1.06,0.45,1.53,1.11,0.9,-1.25,0.66,29,3,38,1.54,11531,96,90,40,84,1393,575.0,340,471,60,121.0,417,1,440,549,240,0,0,650,-2934,3472,575,-5.59,,,,,,,,,,,,
17024,1564133158239,2,2.48,1.06,0.44,1.53,1.12,0.87,-1.3,0.68,28,4,37,1.56,11574,96,90,41,83,1422,578.0,329,468,60,122.0,417,1,440,550,240,0,0,636,-8186,-13043,577,-5.59,,,,,,,,,,,,
17044,1564133158259,1,2.46,1.06,0.46,1.53,1.11,0.84,-1.28,0.64,28,4,37,1.53,11733,96,89,41,84,1391,578.0,327,463,60,122.0,417,1,440,494,240,0,0,596,-506,-30139,578,-5.59,44.681168,10.025056,55.88,175.6,0,0.0,-1,0.0,0.0,0,0.17,0.2841
17064,1564133158279,3,2.42,1.07,0.45,1.52,1.12,0.75,-1.24,0.68,28,5,37,1.46,11696,96,90,41,83,1354,584.0,343,465,60,122.0,417,1,440,536,240,0,0,645,2104,1010,583,-5.59,,,,,,,,,,,,
17084,1564133158299,2,2.4,1.07,0.45,1.53,1.11,0.67,-1.25,0.7,27,5,37,1.42,11667,96,90,41,83,1298,587.0,340,462,60,121.0,417,1,440,536,240,0,0,634,-32248,771,587,-5.59,,,,,,,,,,,,
17104,1564133158319,0,2.39,1.06,0.45,1.52,1.11,0.7,-1.28,0.83,26,5,37,1.46,11653,97,89,41,83,1249,588.0,348,467,60,121.0,403,1,440,536,237,0,0,598,-9072,966,589,-5.59,,,,,,,,,,,,
17124,1564133158339,2,2.39,1.06,0.45,1.53,1.11,0.66,-1.2,0.77,25,4,37,1.37,11581,97,90,41,83,1224,592.0,378,463,60,122.0,403,1,440,533,237,0,0,619,-28648,20993,592,-5.59,,,,,,,,,,,,
17144,1564133158359,2,2.39,1.06,0.45,1.52,1.12,0.64,-1.07,0.82,25,3,36,1.24,11545,97,90,41,84,1197,595.0,400,465,60,122.0,403,1,440,532,237,0,0,607,1267,30721,594,-5.59,44.681152,10.025055,55.76,175.7,0,0.0,-1,0.0,0.0,0,0.17,0.2857
17164,1564133158379,1,2.4,1.06,0.46,1.53,1.11,0.67,-1.09,0.93,25,4,33,1.28,11488,97,89,41,84,1162,597.0,441,462,60,122.0,403,1,441,549,237,0,0,629,-3210,30721,597,-5.59,,,,,,,,,,,,
17184,1564133158399,4,2.41,1.07,0.45,1.52,1.12,0.64,-1.08,0.9,24,4,30,1.25,11503,97,89,41,84,1127,601.0,468,466,60,122.0,403,1,440,549,237,0,0,660,259,26688,601,-5.59,,,,,,,,,,,,
17204,1564133158419,3,2.43,1.06,0.45,1.53,1.11,0.58,-0.96,0.82,23,5,29,1.12,11638,97,90,41,84,1117,600.0,502,465,60,122.0,405,1,440,552,243,0,0,618,774,-16883,601,-5.59,,,,,,,,,,,,
17224,1564133158439,3,2.46,1.06,0.45,1.53,1.11,0.47,-0.89,0.78,22,5,29,1.01,11844,97,89,41,83,1108,602.0,524,471,60,122.0,405,1,440,540,243,0,0,619,259,20993,602,-5.59,,,,,,,,,,,,
17244,1564133158459,2,2.47,1.06,0.46,1.53,1.11,0.37,-0.79,0.74,23,5,29,0.87,11919,97,90,41,83,1104,608.0,551,471,60,122.0,405,1,440,542,243,0,0,613,-4035,-10251,608,-5.59,44.681141,10.025053,57.02,175.7,0,0.0,-1,0.0,0.0,0,0.17,0.2874
17264,1564133158479,3,2.46,1.07,0.45,1.53,1.12,0.3,-0.73,0.69,24,5,28,0.79,11950,98,89,41,84,1100,615.0,581,471,60,122.0,405,1,440,560,243,0,0,627,6273,966,616,-5.59,,,,,,,,,,,,
17284,1564133158497,3,2.48,1.07,0.45,1.53,1.11,0.27,-0.68,0.62,24,5,29,0.73,11957,98,89,41,83,1107,618.0,615,469,60,123.0,405,1,440,543,243,0,0,691,2048,479,618,-5.59,,,,,,,,,,,,
17304,1564133158517,3,2.48,1.07,0.45,1.53,1.12,0.15,-0.66,0.51,24,5,29,0.67,12120,98,90,41,83,1114,624.0,638,468,60,122.0,400,1,440,545,250,0,0,702,208,3,624,-5.59,,,,,,,,,,,,
17324,1564133158537,4,2.49,1.06,0.46,1.52,1.12,0.11,-0.63,0.41,24,5,28,0.64,12425,98,89,41,83,1104,621.0,643,468,60,122.0,400,1,440,545,250,0,0,628,-32504,11566,621,-5.59,,,,,,,,,,,,
17344,1564133158557,1,2.49,1.06,0.46,1.53,1.11,0.2,-0.76,0.57,25,5,26,0.79,12567,98,89,41,83,1094,625.0,651,470,60,122.0,400,1,440,545,250,0,0,676,4956,4909,625,-5.59,44.681126,10.025049,58.88,175.7,0,0.0,-1,0.0,0.0,0,0.18,0.2891
17364,1564133158577,2,2.47,1.06,0.46,1.53,1.12,0.19,-0.78,0.57,25,5,27,0.8,12567,98,90,41,83,1077,635.0,653,470,60,122.0,400,1,440,545,250,0,0,734,30227,-10344,634,-5.59,,,,,,,,,,,,
17384,1564133158596,2,2.47,1.07,0.45,1.53,1.11,0.23,-0.74,0.5,25,4,29,0.78,12711,98,89,41,83,1060,641.0,651,462,60,121.0,400,1,440,545,250,0,0,695,4956,-2826,639,-5.59,,,,,,,,,,,,
17404,1564133158616,3,2.48,1.06,0.46,1.53,1.11,0.18,-0.86,0.65,25,4,30,0.88,12789,98,89,41,84,1024,640.0,642,464,60,121.0,412,1,440,545,264,0,0,655,-768,31988,640,-5.59,,,,,,,,,,,,
17424,1564133158636,1,2.46,1.06,0.45,1.53,1.11,0.23,-0.88,0.68,26,4,30,0.91,12789,98,89,41,84,988,647.0,637,463,60,122.0,412,1,440,560,264,0,0,693,5344,3543,647,-5.59,,,,,,,,,,,,
17444,1564133158656,2,2.48,1.06,0.45,1.53,1.11,0.25,-0.84,0.61,26,4,31,0.87,12842,98,89,41,84,964,651.0,611,465,60,121.0,412,1,440,560,264,0,0,699,-7939,-10399,649,-5.59,44.68111,10.025043,60.5,175.7,0,0.0,-1,0.0,0.0,0,0.18,0.2907
17464,1564133158676,3,2.47,1.06,0.45,1.52,1.12,0.34,-0.95,0.74,26,4,32,1.01,12877,98,89,41,84,944,653.0,615,466,60,122.0,412,1,440,560,264,0,0,701,-3446,-3584,654,-5.59,,,,,,,,,,,,
17484,1564133158696,5,2.47,1.06,0.46,1.53,1.11,0.28,-0.9,0.6,27,3,31,0.94,12939,98,89,41,84,914,658.0,643,472,60,121.0,412,1,440,560,264,0,0,704,-28304,-3584,660,-5.59,,,,,,,,,,,,
17504,1564133158716,4,2.47,1.06,0.45,1.53,1.12,0.32,-0.91,0.74,28,3,31,0.97,13057,98,89,41,84,881,662.0,658,470,60,120.0,418,1,440,560,277,0,0,665,26688,8010,661,-5.59,,,,,,,,,,,,
17524,1564133158736,0,2.47,1.07,0.45,1.53,1.11,0.33,-0.94,0.77,28,3,32,1.0,13066,99,90,41,84,862,666.0,662,467,60,121.0,418,1,440,560,277,0,0,742,30721,19188,665,-5.59,,,,,,,,,,,,
17544,1564133158756,2,2.46,1.06,0.46,1.53,1.11,0.32,-0.98,0.73,29,3,33,1.03,13148,99,90,41,84,849,668.0,663,460,60,121.0,418,1,440,560,277,0,0,738,26688,24,668,-5.59,44.681099,10.025037,62.18,175.7,0,0.0,-1,0.0,0.0,0,0.18,0.2924
17564,1564133158776,1,2.45,1.06,0.46,1.53,1.11,0.31,-1.02,0.72,29,2,33,1.07,13345,99,89,41,84,835,668.0,664,465,60,121.0,418,1,440,560,277,0,0,687,30721,-20693,668,-5.59,,,,,,,,,,,,
17584,1564133158796,5,2.44,1.06,0.45,1.53,1.11,0.37,-1.02,0.55,29,1,34,1.08,13316,99,89,41,84,821,673.0,670,468,60,121.0,418,1,440,560,277,0,0,714,3395,-30694,673,-5.59,,,,,,,,,,,,
17604,1564133158816,4,2.44,1.07,0.46,1.52,1.11,0.38,-1.0,0.68,29,0,35,1.07,13335,99,89,41,84,813,676.0,641,469,60,121.0,418,1,440,560,283,0,0,758,-16883,-13312,675,-5.59,,,,,,,,,,,,
17624,1564133158836,4,2.45,1.07,0.46,1.53,1.11,0.36,-1.05,0.75,29,0,36,1.11,13412,99,90,41,84,812,680.0,569,463,60,121.0,418,1,440,560,283,0,0,728,506,-31068,675,-5.59,,,,,,,,,,,,
17644,1564133158856,3,2.43,1.06,0.46,1.53,1.11,0.36,-1.04,0.81,29,-0,36,1.1,13508,99,89,41,84,806,681.0,543,462,60,121.0,418,1,440,560,283,0,0,709,771,16118,681,-5.59,44.681084,10.025029,64.24,175.8,0,0.0,-1,0.0,0.0,0,0.18,0.2941
17664,1564133158876,4,2.43,1.06,0.45,1.53,1.12,0.41,-1.04,0.93,29,-0,36,1.12,13528,99,89,41,84,798,681.0,564,465,60,121.0,418,1,440,560,283,0,0,703,-2580,-2560,681,-5.59,,,,,,,,,,,,
17684,1564133158900,4,2.41,1.07,0.45,1.53,1.11,0.41,-1.05,0.99,29,1,36,1.13,13450,99,89,41,84,790,683.0,517,471,60,121.0,418,1,440,560,283,0,0,754,24,-2830,687,-5.59,,,,,,,,,,,,
17704,1564133158920,5,2.4,1.06,0.46,1.53,1.12,0.44,-1.09,1.04,29,1,36,1.18,13489,99,89,41,84,783,686.0,526,462,60,122.0,416,1,440,560,286,0,0,749,24,-23490,688,-5.59,,,,,,,,,,,,
17724,1564133158940,5,2.39,1.06,0.46,1.53,1.12,0.44,-1.12,1.05,28,2,35,1.21,13567,99,89,41,84,774,687.0,490,461,60,121.0,416,1,440,560,286,0,0,715,-3584,-13580,687,-5.59,,,,,,,,,,,,
17744,1564133158960,5,2.36,1.07,0.46,1.54,1.11,0.45,-1.09,1.13,28,2,35,1.18,13606,99,89,41,84,763,689.0,471,466,60,121.0,416,1,440,560,286,0,0,716,479,31988,689,-5.59,44.681065,10.02502,65.56,175.8,0,0.0,-1,0.0,0.0,0,0.18,0.2957
17764,1564133158980,5,2.35,1.07,0.46,1.53,1.11,0.41,-1.02,1.2,27,1,34,1.1,13596,99,89,41,84,754,690.0,442,473,60,120.0,416,1,440,560,286,0,0,734,-3488,-25858,691,-5.59,,,,,,,,,,,,
17784,1564133158992,5,2.35,1.06,0.45,1.53,1.11,0.39,-1.1,1.25,26,-1,33,1.17,13557,99,89,41,84,749,693.0,434,465,60,120.0,416,1,440,560,286,0,0,742,-3038,-2830,693,-5.59,,,,,,,,,,,,
17804,1564133159012,4,2.35,1.07,0.45,1.53,1.12,0.35,-1.05,1.16,25,-1,32,1.11,13616,99,89,41,84,744,697.0,418,465,60,120.0,416,1,440,560,286,0,0,728,-2826,1524,697,-5.59,,,,,,,,,,,,
17824,1564133159032,2,2.35,1.07,0.45,1.54,1.11,0.34,-1.05,1.02,24,-1,30,1.11,13606,99,89,41,84,738,695.0,438,468,60,121.0,414,1,440,560,289,0,0,705,-2830,-23490,693,-5.59,,,,,,,,,,,,
17844,1564133159052,3,2.35,1.07,0.45,1.53,1.12,0.37,-0.92,0.86,22,-3,29,0.99,13656,99,89,41,84,733,697.0,423,475,60,122.0,414,1,440,560,289,0,0,736,-10344,16118,697,-5.59,44.681053,10.025008,66.45,175.8,0,0.0,-1,0.0,0.0,0,0.18,0.2974
17864,1564133159072,0,2.35,1.07,0.46,1.53,1.11,0.33,-0.97,0.88,21,-2,28,1.02,13626,99,89,41,84,731,700.0,413,463,60,120.0,414,1,440,560,289,0,0,741,-2345,-2830,700,-5.59,,,,,,,,,,,,
17884,1564133159100,3,2.35,1.07,0.45,1.54,1.11,0.39,-1.03,0.85,20,-1,27,1.1,13676,99,89,41,84,730,698.0,432,464,60,122.0,414,1,440,560,289,0,0,717,-10346,-2314,698,-5.59,,,,,,,,,,,,
17904,1564133159120,1,2.35,1.07,0.46,1.53,1.12,0.46,-1.07,0.85,18,0,25,1.16,13577,99,89,41,84,727,704.0,425,471,60,121.0,409,1,440,560,288,0,0,731,24,1037,704,-5.59,,,,,,,,,,,,
17924,1564133159140,1,2.36,1.07,0.46,1.53,1.11,0.51,-0.95,0.87,16,1,24,1.08,13616,99,89,41,84,725,704.0,474,468,60,122.0,409,1,440,560,288,0,0,727,-3584,1037,707,-5.59,,,,,,,,,,,,
17944,1564133159160,3,2.35,1.07,0.46,1.53,1.11,0.48,-0.94,0.95,14,2,23,1.06,13537,99,89,41,84,723,709.0,500,457,60,122.0,409,1,440,560,288,0,0,728,12333,-388,709,-5.59,44.681042,10.024995,67.59,175.8,0,0.0,-1,0.0,0.0,0,0.19,0.2991
17964,1564133159180,3,2.36,1.06,0.46,1.53,1.12,0.55,-0.94,1.0,13,2,23,1.09,13596,99,89,41,84,722,710.0,512,458,60,121.0,409,1,440,560,288,0,0,725,-2830,-2314,709,-5.59,,,,,,,,,,,,
17984,1564133159200,3,2.36,1.06,0.46,1.53,1.12,0.58,-0.92,1.08,12,3,21,1.09,13537,100,89,41,84,722,713.0,538,469,60,122.0,409,1,440,560,288,0,0,731,-20693,-2358,713,-5.59,,,,,,,,,,,,
18004,1564133159220,3,2.36,1.07,0.46,1.53,1.11,0.64,-0.85,1.14,11,1,20,1.06,13596,100,89,41,84,722,716.0,564,468,60,122.0,409,1,440,560,288,0,0,726,-20693,-13068,715,-5.59,,,,,,,,,,,,
18024,1564133159240,2,2.37,1.06,0.46,1.53,1.12,0.65,-0.79,1.19,10,2,19,1.02,13567,100,89,41,84,724,720.0,578,458,60,122.0,402,1,440,560,288,0,0,730,-12152,-2826,720,-5.59,,,,,,,,,,,,
18044,1564133159260,2,2.37,1.06,0.46,1.53,1.11,0.77,-0.75,1.14,10,-0,19,1.07,13547,100,89,41,84,725,721.0,618,463,60,121.0,402,1,440,560,288,0,0,730,204,-2826,719,-5.59,44.681023,10.024981,68.71,175.8,0,0.0,-1,0.0,0.0,0,0.19,0.3007
18064,1564133159280,5,2.36,1.06,0.46,1.53,1.11,0.71,-0.68,1.13,9,-1,18,0.98,13716,100,89,41,84,727,724.0,657,473,60,120.0,402,1,440,560,288,0,0,733,-13312,-13068,724,-5.59,,,,,,,,,,,,
18084,1564133159300,3,2.37,1.06,0.46,1.53,1.12,0.72,-0.72,1.16,9,-2,16,1.02,13807,100,89,41,84,730,725.0,665,472,60,122.0,402,1,440,560,288,0,0,732,-2560,-3580,725,-5.59,,,,,,,,,,,,
18104,1564133159320,2,2.37,1.07,0.45,1.53,1.11,0.68,-0.68,1.13,9,-2,15,0.96,13817,100,89,41,84,731,727.0,667,457,60,121.0,402,1,440,577,288,0,0,741,-31068,-3580,727,-5.59,,,,,,,,,,,,
18124,1564133159340,1,2.39,1.06,0.45,1.52,1.11,0.7,-0.72,1.09,9,-1,13,1.0,13817,100,89,41,84,732,730.0,667,462,60,122.0,403,1,440,560,293,0,0,739,-23490,1037,730,-5.59,,,,,,,,,,,,
18144,1564133159360,3,2.39,1.06,0.45,1.53,1.11,0.77,-0.66,1.06,9,-2,13,1.01,13817,100,89,41,84,739,733.0,667,479,60,124.0,403,1,440,560,293,0,0,737,-3450,-2314,734,-5.59,44.681011,10.024964,70.21,175.9,0,0.0,-1,0.0,0.0,0,0.19,0.3024
18164,1564133159380,6,2.39,1.06,0.45,1.52,1.11,0.76,-0.64,0.98,9,-2,12,0.99,13837,100,89,41,84,745,735.0,666,457,60,122.0,403,1,440,560,293,0,0,741,-3450,136,735,-5.59,,,,,,,,,,,,
18184,1564133159400,3,2.39,1.06,0.45,1.52,1.11,0.81,-0.59,0.85,10,-3,13,1.01,13776,100,89,41,84,750,737.0,675,455,60,121.0,403,1,440,560,293,0,0,742,31988,-4096,737,-5.59,,,,,,,,,,,,
18204,1564133159420,8,2.4,1.06,0.45,1.52,1.11,0.87,-0.45,0.6,10,-6,14,0.98,13858,100,90,41,84,755,741.0,675,468,60,122.0,403,1,440,560,293,0,0,736,-23490,-13068,737,-5.59,,,,,,,,,,,,
18224,1564133159440,13,2.4,1.06,0.45,1.52,1.11,0.85,-0.45,0.45,11,-6,15,0.96,13796,100,90,41,84,761,734.0,677,462,60,122.0,398,1,440,560,294,0,0,743,204,-3580,735,-5.59,,,,,,,,,,,,
18244,1564133159460,14,2.4,1.07,0.45,1.53,1.11,0.91,-0.46,0.43,11,-5,15,1.02,13796,79,89,41,83,768,735.0,676,450,60,121.0,398,1,440,545,294,0,0,735,-12152,3462,735,-5.59,44.681,10.024947,71.28,175.9,0,0.0,-1,0.0,0.0,0,0.19,0.3041
18264,1564133159480,18,2.39,1.07,0.45,1.52,1.11,0.87,-0.46,0.48,12,-3,15,0.98,13726,59,89,41,75,770,733.0,679,466,60,121.0,398,1,440,494,294,0,0,736,-12152,6790,731,-5.59,,,,,,,,,,,,
18284,1564133159492,16,2.4,1.06,0.45,1.51,1.11,0.9,-0.53,0.6,12,-2,15,1.05,13373,42,89,41,68,771,730.0,676,468,60,121.0,398,1,440,440,294,0,0,735,15647,-2830,730,-5.59,,,,,,,,,,,,
18304,1564133159512,17,2.4,1.06,0.45,1.52,1.1,0.97,-0.61,0.48,12,-1,15,1.14,13139,31,89,41,60,779,730.0,676,460,60,121.0,398,1,434,396,294,0,0,720,11576,-3344,725,-5.59,,,,,,,,,,,,
18324,1564133159532,15,2.38,1.07,0.45,1.52,1.11,1.03,-0.6,0.44,12,-5,16,1.19,12939,25,89,41,53,788,721.0,674,469,60,122.0,267,1,397,333,194,0,0,697,16599,31988,726,-5.59,,,,,,,,,,,,
18344,1564133159552,14,2.38,1.06,0.45,1.53,1.11,1.1,-0.66,0.59,12,-3,17,1.28,12643,24,89,41,48,797,722.0,674,476,60,121.0,267,1,382,265,194,0,0,681,-3584,-2560,722,-5.59,44.680984,10.02493,72.18,175.9,0,0.0,-1,0.0,0.0,0,0.19,0.3057
18364,1564133159572,11,2.38,1.06,0.45,1.51,1.11,1.05,-0.52,0.43,12,-1,19,1.17,12417,24,90,41,44,805,719.0,672,471,60,122.0,267,1,361,241,194,0,0,680,16599,204,724,-5.59,,,,,,,,,,,,
18384,1564133159597,9,2.38,1.06,0.45,1.52,1.1,0.92,-0.28,0.36,13,0,19,0.96,12199,23,90,41,42,826,718.0,663,470,60,123.0,267,1,348,234,194,0,0,675,6208,204,718,-5.59,,,,,,,,,,,,
18404,1564133159617,10,2.37,1.06,0.45,1.52,1.11,0.84,-0.08,0.2,13,0,18,0.84,11980,23,90,41,41,851,717.0,660,468,60,122.0,145,1,341,230,104,0,0,680,24,204,716,-5.59,,,,,,,,,,,,
18424,1564133159637,12,2.36,1.06,0.44,1.52,1.1,0.8,0.08,0.11,13,1,19,0.8,11837,23,89,41,40,872,711.0,658,466,60,122.0,145,1,332,226,104,0,0,665,11576,12333,711,-5.59,,,,,,,,,,,,
18444,1564133159657,14,2.35,1.06,0.45,1.52,1.1,0.77,0.26,0.15,14,3,19,0.81,11807,21,90,41,38,890,704.0,661,466,60,122.0,145,1,323,224,104,0,0,657,6208,24,700,-5.59,44.680973,10.024912,71.64,176.0,0,0.0,-1,0.0,0.0,0,0.2,0.3074
18464,1564133159677,13,2.36,1.06,0.45,1.51,1.1,0.77,0.33,0.23,13,4,18,0.83,11844,21,90,41,38,908,692.0,658,467,60,122.0,145,1,323,223,104,0,0,643,-10346,-2345,692,-5.59,,,,,,,,,,,,
18484,1564133159697,12,2.36,1.06,0.45,1.51,1.1,0.81,0.28,0.32,13,4,18,0.86,11829,21,90,41,37,925,687.0,661,466,60,122.0,145,1,320,222,104,0,0,625,-2345,-2345,687,-5.59,,,,,,,,,,,,
18504,1564133159717,12,2.35,1.06,0.42,1.51,1.1,0.89,0.11,0.4,12,4,17,0.89,11807,21,89,41,37,933,681.0,662,468,60,122.0,145,1,320,222,99,0,0,609,-2345,-2830,681,-5.59,,,,,,,,,,,,
18524,1564133159737,11,2.36,1.05,0.45,1.51,1.1,0.99,-0.1,0.38,11,3,14,1.0,11740,21,90,41,36,932,677.0,661,471,60,122.0,145,1,315,220,99,0,0,605,-3038,-30207,677,-5.59,,,,,,,,,,,,
18544,1564133159757,14,2.36,1.05,0.44,1.51,1.1,1.03,-0.17,0.26,11,3,12,1.04,11711,21,90,41,36,931,673.0,658,467,60,122.0,145,1,315,220,99,0,0,608,1549,11566,673,-5.59,44.680962,10.024894,70.22,176.0,0,0.0,-1,0.0,0.0,0,0.2,0.3091
18564,1564133159777,13,2.36,1.06,0.44,1.52,1.1,1.04,-0.03,0.13,10,2,11,1.04,11617,21,90,41,36,930,669.0,660,470,60,123.0,145,1,312,220,99,0,0,592,-27404,-8429,669,-5.59,,,,,,,,,,,,
18584,1564133159797,9,2.36,1.05,0.45,1.51,1.1,1.11,-0.07,0.3,9,1,11,1.11,11531,21,90,41,36,931,664.0,657,468,60,123.0,145,1,311,219,99,0,0,604,-2345,16599,664,-5.59,,,,,,,,,,,,
18604,1564133159817,9,2.37,1.05,0.44,1.51,1.09,1.17,-0.17,0.23,8,-0,9,1.19,11488,21,89,41,36,931,659.0,655,467,60,122.0,144,1,311,219,95,0,0,621,-388,966,659,-5.59,,,,,,,,,,,,
18624,1564133159837,8,2.36,1.05,0.44,1.51,1.1,1.11,-0.04,0.11,8,-1,9,1.11,11425,20,89,41,35,928,654.0,657,467,60,123.0,144,1,308,218,95,0,0,627,24583,269,654,-5.59,,,,,,,,,,,,
18644,1564133159857,5,2.36,1.05,0.44,1.51,1.1,1.09,-0.23,0.29,8,-1,8,1.12,11419,20,90,41,35,922,648.0,657,465,60,122.0,144,1,308,218,95,0,0,629,244,771,651,-5.59,44.68095,10.024876,67.85,176.1,0,0.0,-1,0.0,0.0,0,0.2,0.3107
18664,1564133159877,6,2.36,1.06,0.44,1.51,1.1,1.1,-0.16,0.2,7,-3,8,1.11,11398,20,90,41,35,916,648.0,659,465,60,123.0,144,1,308,218,95,0,0,617,-3584,30721,648,-5.59,,,,,,,,,,,,
18684,1564133159901,3,2.37,1.05,0.44,1.51,1.1,1.15,-0.05,0.24,7,-3,9,1.15,11439,20,90,41,35,909,642.0,658,462,60,123.0,144,1,308,218,95,0,0,627,6208,19320,644,-5.59,,,,,,,,,,,,
18704,1564133159921,2,2.37,1.05,0.44,1.51,1.1,1.19,-0.25,0.23,7,-2,7,1.21,11432,20,90,41,35,901,639.0,655,463,60,122.0,144,1,308,218,95,0,0,614,-2836,-28304,639,-5.59,,,,,,,,,,,,
18724,1564133159941,4,2.38,1.05,0.44,1.51,1.1,1.09,-0.02,0.09,7,-1,7,1.09,11363,20,90,41,35,893,637.0,655,467,60,123.0,147,1,308,218,94,0,0,611,20993,17740,637,-5.59,,,,,,,,,,,,
18744,1564133159961,3,2.38,1.05,0.45,1.51,1.09,1.08,-0.16,0.27,8,1,7,1.1,11336,20,90,41,35,888,635.0,653,463,60,122.0,147,1,308,218,94,0,0,608,17336,-3820,635,-5.59,44.680939,10.024858,64.76,176.1,0,0.0,-1,0.0,0.0,0,0.2,0.3124
18764,1564133159981,4,2.39,1.05,0.45,1.5,1.1,1.08,-0.12,0.06,8,-0,6,1.09,11356,20,90,41,35,887,632.0,651,467,60,123.0,147,1,308,218,94,0,0,603,3395,1010,632,-5.59,,,,,,,,,,,,
18784,1564133159991,4,2.39,1.05,0.45,1.51,1.09,1.12,-0.14,0.23,9,-0,7,1.13,11329,20,89,41,35,889,629.0,652,466,60,122.0,147,1,308,218,94,0,0,602,3403,-7939,629,-5.59,,,,,,,,,,,,
18804,1564133160011,11,2.4,1.06,0.45,1.51,1.1,1.09,-0.17,0.1,9,-0,6,1.11,11234,20,90,41,35,896,627.0,656,461,60,122.0,147,1,308,218,94,0,0,589,-3446,-7939,624,-5.59,,,,,,,,,,,,
18824,1564133160031,12,2.41,1.06,0.44,1.51,1.1,1.11,-0.29,0.29,10,-2,8,1.14,11140,20,90,41,35,902,620.0,655,466,60,123.0,149,1,308,218,93,0,0,588,4956,-28304,620,-5.59,,,,,,,,,,,,
18844,1564133160051,13,2.41,1.06,0.45,1.51,1.1,1.08,-0.13,0.12,11,-3,8,1.08,11107,20,90,41,35,909,614.0,656,462,60,122.0,149,1,308,218,93,0,0,575,6273,243,614,-5.59,44.680927,10.02484,63.35,176.2,0,0.0,-1,0.0,0.0,0,0.2,0.3141
18864,1564133160071,15,2.41,1.06,0.44,1.52,1.1,1.14,-0.32,0.18,11,-1,8,1.18,10984,20,90,41,35,918,609.0,656,463,60,123.0,149,1,308,217,93,0,0,559,6273,4956,609,-5.59,,,,,,,,,,,,
18884,1564133160101,13,2.4,1.06,0.44,1.51,1.09,1.18,-0.36,0.35,12,1,10,1.24,10800,20,89,41,35,937,610.0,653,470,60,122.0,149,1,308,216,93,0,0,550,-4035,-3820,608,-5.59,,,,,,,,,,,,
18904,1564133160121,12,2.4,1.06,0.44,1.51,1.1,1.24,-0.22,0.28,13,-2,13,1.26,10702,20,90,41,35,955,605.0,651,466,60,123.0,143,1,308,215,87,0,0,532,-16384,4956,606,-5.59,,,,,,,,,,,,
18924,1564133160141,13,2.4,1.06,0.44,1.5,1.1,1.17,-0.11,0.15,13,-1,15,1.18,10480,20,90,41,35,967,604.0,645,466,60,123.0,143,1,308,213,87,0,0,507,1760,17344,604,-5.59,,,,,,,,,,,,
18944,1564133160161,11,2.4,1.05,0.44,1.51,1.1,1.26,-0.1,0.15,14,-0,18,1.26,10364,19,90,41,35,980,600.0,645,463,60,122.0,143,1,308,212,87,0,0,490,1780,23619,597,-5.59,44.68092,10.024823,61.52,176.2,0,0.0,-1,0.0,0.0,0,0.21,0.3157
18964,1564133160181,13,2.4,1.05,0.45,1.5,1.1,1.3,-0.22,0.24,14,1,17,1.32,10140,17,90,41,34,1002,596.0,642,465,60,122.0,143,1,305,209,87,0,0,491,1780,3472,596,-5.59,,,,,,,,,,,,
18984,1564133160201,12,2.39,1.06,0.44,1.51,1.1,1.29,-0.37,0.31,14,-1,17,1.34,10042,16,90,41,34,1025,592.0,641,467,60,122.0,143,1,305,206,87,0,0,500,-18032,-4035,592,-5.59,,,,,,,,,,,,
19004,1564133160221,11,2.39,1.05,0.45,1.51,1.09,1.36,-0.34,0.28,14,-3,18,1.41,9884,16,90,41,33,1036,586.0,642,460,60,123.0,143,1,302,202,87,0,0,515,2216,-3210,586,-5.59,,,,,,,,,,,,
19024,1564133160241,12,2.39,1.05,0.45,1.51,1.1,1.36,-0.43,0.24,14,-2,18,1.43,9684,16,90,41,33,1048,581.0,636,462,60,122.0,127,1,302,200,75,0,0,516,-28648,243,581,-5.59,,,,,,,,,,,,
19044,1564133160261,13,2.37,1.06,0.44,1.52,1.1,1.37,-0.36,0.2,13,-2,17,1.41,9684,16,90,41,32,1036,574.0,638,464,60,123.0,127,1,300,198,75,0,0,488,-32248,6273,574,-5.59,44.680908,10.024806,59.63,176.2,0,0.0,-1,0.0,0.0,0,0.21,0.3174
19064,1564133160281,14,2.37,1.06,0.44,1.52,1.09,1.25,-0.39,0.19,13,-2,17,1.31,9735,16,90,41,32,1023,570.0,637,465,60,122.0,127,1,300,199,75,0,0,455,-32248,-22263,570,-5.59,,,,,,,,,,,,
19084,1564133160301,14,2.36,1.06,0.44,1.52,1.09,1.33,-0.43,0.19,12,-1,17,1.39,9645,15,90,41,32,1002,566.0,636,472,60,123.0,127,1,300,197,75,0,0,428,2104,-18032,566,-5.59,,,,,,,,,,,,
19104,1564133160321,11,2.36,1.05,0.44,1.52,1.09,1.27,-0.33,0.18,11,-1,17,1.31,9417,15,90,41,32,979,563.0,615,470,60,123.0,122,1,300,192,69,0,0,422,2524,2211,563,-5.59,,,,,,,,,,,,
19124,1564133160341,12,2.36,1.06,0.44,1.52,1.1,1.22,-0.37,0.05,11,0,17,1.28,9286,15,90,41,31,950,557.0,488,472,60,123.0,122,1,295,189,69,0,0,442,-3082,-22359,557,-5.59,,,,,,,,,,,,
19144,1564133160361,12,2.37,1.06,0.44,1.52,1.09,1.16,-0.46,0.04,11,-0,16,1.25,9182,15,90,41,31,922,551.0,428,465,60,123.0,122,1,295,187,69,0,0,509,-28648,2216,551,-5.59,44.680901,10.024789,57.56,176.1,0,0.0,-1,0.0,0.0,0,0.21,0.3191
19164,1564133160381,13,2.37,1.05,0.44,1.52,1.1,1.25,-0.48,0.18,10,-2,15,1.34,9177,15,90,41,30,911,548.0,432,462,60,123.0,122,1,291,187,69,0,0,512,-22519,-8186,548,-5.59,,,,,,,,,,,,
19184,1564133160401,13,2.36,1.05,0.44,1.51,1.1,1.3,-0.44,0.21,9,-3,14,1.37,9291,15,90,41,29,906,537.0,430,468,60,123.0,122,1,287,187,69,0,0,493,-9072,-4054,537,-5.59,,,,,,,,,,,,
19204,1564133160421,12,2.37,1.05,0.44,1.5,1.1,1.26,-0.32,0.17,9,-2,14,1.3,9426,15,90,41,29,900,535.0,453,465,60,124.0,122,1,287,189,69,0,0,488,10408,-4054,535,-5.59,,,,,,,,,,,,
19224,1564133160441,11,2.37,1.05,0.44,1.51,1.1,1.22,-0.37,0.17,8,-2,12,1.27,9522,15,90,41,28,893,529.0,471,463,60,123.0,127,1,282,189,68,0,0,479,-8187,10994,528,-5.59,,,,,,,,,,,,
19244,1564133160461,13,2.36,1.06,0.44,1.51,1.1,1.27,-0.42,0.22,8,-3,12,1.34,9488,15,90,41,27,889,528.0,498,458,60,123.0,127,1,278,187,68,0,0,482,1341,26178,523,-5.59,44.680893,10.024772,55.19,176.1,0,0.0,-1,0.0,0.0,0,0.21,0.3207
19264,1564133160481,10,2.36,1.05,0.44,1.51,1.1,1.23,-0.31,0.27,8,-3,11,1.27,9384,15,90,41,27,887,521.0,536,467,60,123.0,127,1,278,187,68,0,0,486,26178,10408,521,-5.59,,,,,,,,,,,,
19284,1564133160499,10,2.36,1.06,0.44,1.5,1.09,1.18,-0.23,0.15,8,-3,10,1.2,9263,15,90,41,27,880,520.0,563,465,60,122.0,127,1,278,186,68,0,0,490,-3856,-3856,518,-5.59,,,,,,,,,,,,
19304,1564133160519,9,2.37,1.05,0.44,1.51,1.1,1.09,-0.32,0.08,7,-2,9,1.14,9191,15,90,41,27,871,513.0,580,461,60,122.0,127,1,278,185,68,0,0,491,10994,-28648,514,-5.59,,,,,,,,,,,,
19324,1564133160539,8,2.36,1.05,0.44,1.51,1.1,1.03,-0.42,0.03,7,-2,8,1.11,9173,14,90,41,27,863,509.0,590,465,60,123.0,124,1,278,185,64,0,0,492,15661,-32248,509,-5.59,,,,,,,,,,,,
19344,1564133160559,9,2.36,1.05,0.45,1.51,1.09,1.07,-0.44,0.09,7,-1,7,1.15,9182,14,90,41,27,856,505.0,592,468,60,123.0,124,1,278,185,64,0,0,482,10408,-32768,505,-5.59,44.680885,10.024755,53.3,176.1,0,0.0,-1,0.0,0.0,0,0.21,0.3224
19364,1564133160579,11,2.36,1.06,0.44,1.51,1.09,1.13,-0.38,0.16,7,-3,7,1.19,9168,14,90,41,26,847,499.0,603,466,60,123.0,124,1,274,185,64,0,0,484,-6528,3,499,-5.59,,,,,,,,,,,,
19384,1564133160596,10,2.37,1.05,0.44,1.51,1.1,1.22,-0.24,0.24,7,-2,6,1.24,9137,14,90,41,26,837,499.0,607,468,60,123.0,124,1,274,185,64,0,0,485,248,1,499,-5.59,,,,,,,,,,,,
19404,1564133160616,10,2.37,1.05,0.45,1.5,1.1,1.3,-0.14,0.34,7,-3,7,1.3,9084,14,90,41,26,830,496.0,608,466,60,123.0,124,1,274,185,64,0,0,478,-6656,-32768,496,-5.59,,,,,,,,,,,,
19424,1564133160636,10,2.37,1.05,0.44,1.51,1.1,1.35,-0.03,0.4,7,-1,7,1.35,9018,13,90,41,26,827,494.0,623,465,60,123.0,127,1,274,185,63,0,0,483,-1562,-899,496,-5.59,,,,,,,,,,,,
19444,1564133160656,10,2.38,1.05,0.44,1.52,1.09,1.39,0.04,0.43,7,-1,8,1.39,8975,13,90,41,26,824,491.0,625,467,60,124.0,127,1,274,185,63,0,0,476,3580,-10483,490,-5.59,44.680882,10.024739,50.73,176.1,0,0.0,-1,0.0,0.0,0,0.21,0.3241
19464,1564133160676,9,2.38,1.05,0.45,1.51,1.1,1.44,0.14,0.47,8,-1,8,1.44,8920,13,90,41,26,820,489.0,622,465,60,123.0,127,1,274,185,63,0,0,474,2212,3580,489,-5.59,,,,,,,,,,,,
19484,1564133160696,9,2.37,1.05,0.44,1.51,1.09,1.5,0.17,0.55,8,-2,8,1.5,8882,13,90,41,26,817,482.0,615,466,60,123.0,127,1,274,185,63,0,0,473,2212,-1923,482,-5.59,,,,,,,,,,,,
19504,1564133160716,9,2.39,1.05,0.44,1.51,1.1,1.55,0.16,0.63,9,-3,7,1.56,8836,13,90,41,26,817,481.0,614,461,60,123.0,128,1,274,185,62,0,0,472,32033,8488,481,-5.59,,,,,,,,,,,,
19524,1564133160736,8,2.4,1.06,0.44,1.51,1.1,1.54,0.16,0.61,9,-3,7,1.55,8786,13,90,41,26,818,478.0,609,465,60,124.0,128,1,274,185,62,0,0,465,-16384,-23367,479,-5.59,,,,,,,,,,,,
19544,1564133160756,7,2.41,1.04,0.44,1.51,1.1,1.47,0.04,0.6,9,-3,6,1.47,8708,13,90,41,26,821,477.0,605,467,60,124.0,128,1,274,110,62,0,0,461,-3210,10305,477,-5.59,44.680874,10.024724,48.74,176.1,0,0.0,-1,0.0,0.0,0,0.21,0.3257
19564,1564133160776,6,2.43,1.05,0.44,1.52,1.1,1.33,-0.03,0.44,9,-3,8,1.33,8632,13,90,41,27,824,475.0,598,463,60,122.0,128,1,278,185,62,0,0,457,12552,-1923,475,-5.59,,,,,,,,,,,,
19584,1564133160798,9,2.43,1.04,0.44,1.51,1.1,1.2,-0.09,0.35,10,-3,8,1.2,8612,13,90,41,27,827,472.0,596,462,60,123.0,128,1,278,185,62,0,0,446,-9160,243,473,-5.59,,,,,,,,,,,,
19604,1564133160818,6,2.44,1.05,0.45,1.51,1.09,1.25,-0.22,0.46,11,-4,9,1.27,8511,12,90,41,27,832,474.0,597,467,60,123.0,128,1,278,185,62,0,0,445,2524,-16384,474,-5.59,,,,,,,,,,,,
19624,1564133160838,6,2.45,1.05,0.44,1.51,1.09,1.17,-0.26,0.4,12,-2,10,1.2,8434,12,90,41,27,841,470.0,593,464,60,123.0,124,1,278,181,59,0,0,444,10305,243,470,-5.59,,,,,,,,,,,,
19644,1564133160858,7,2.47,1.05,0.44,1.51,1.1,1.11,-0.31,0.32,13,-3,10,1.15,8355,12,90,41,27,848,469.0,595,465,60,124.0,124,1,277,176,59,0,0,432,23400,16408,469,-5.59,44.680866,10.024709,47.23,176.1,0,0.0,-1,0.0,0.0,0,0.22,0.3274
19664,1564133160878,5,2.48,1.06,0.44,1.52,1.1,1.15,-0.36,0.38,14,-2,12,1.21,8311,12,90,41,27,853,466.0,595,464,60,122.0,124,1,277,175,59,0,0,421,20625,6193,466,-5.59,,,,,,,,,,,,
19684,1564133160900,6,2.49,1.05,0.44,1.52,1.1,1.1,-0.42,0.32,14,-3,14,1.18,8285,12,90,41,27,858,467.0,588,466,60,123.0,124,1,277,174,59,0,0,420,21580,-9160,465,-5.59,,,,,,,,,,,,
19704,1564133160920,4,2.5,1.06,0.44,1.51,1.1,1.12,-0.48,0.36,15,-1,15,1.22,8198,12,90,41,28,863,463.0,583,466,60,124.0,112,1,279,169,52,0,0,414,-768,14488,463,-5.59,,,,,,,,,,,,
19724,1564133160940,6,2.51,1.05,0.44,1.51,1.11,1.08,-0.52,0.32,17,-2,15,1.2,8109,12,90,41,28,867,462.0,575,465,60,124.0,112,1,279,165,52,0,0,421,3635,2524,463,-5.59,,,,,,,,,,,,
19744,1564133160960,7,2.53,1.05,0.44,1.51,1.1,1.06,-0.56,0.33,18,-1,17,1.2,8047,12,90,41,28,867,459.0,567,464,60,123.0,112,1,278,161,52,0,0,416,31796,-9160,459,-5.59,44.680866,10.024693,46.24,176.0,0,0.0,-1,0.0,0.0,0,0.22,0.3291
19764,1564133160980,3,2.55,1.05,0.45,1.51,1.11,1.09,-0.57,0.35,20,-1,17,1.23,8071,12,90,41,28,866,458.0,563,465,60,124.0,112,1,279,163,52,0,0,409,-8165,17628,458,-5.59,,,,,,,,,,,,
19784,1564133160992,4,2.54,1.06,0.45,1.51,1.1,1.05,-0.64,0.32,20,-1,18,1.23,8026,12,90,42,29,862,457.0,556,467,60,124.0,112,1,282,162,52,0,0,395,7154,-6387,457,-5.59,,,,,,,,,,,,
19804,1564133161012,6,2.55,1.06,0.44,1.52,1.1,1.03,-0.64,0.31,21,-0,21,1.21,7944,12,90,41,29,858,460.0,562,466,60,123.0,112,1,281,161,52,0,0,375,-21944,15649,460,-5.59,,,,,,,,,,,,
19824,1564133161032,3,2.55,1.05,0.44,1.51,1.1,1.04,-0.68,0.33,21,1,24,1.24,7911,12,90,41,29,855,456.0,557,465,60,123.0,104,1,281,161,48,0,0,366,-9166,15649,456,-5.59,,,,,,,,,,,,
19844,1564133161052,4,2.57,1.05,0.44,1.52,1.1,1.02,-0.71,0.37,23,-1,24,1.24,7812,12,90,41,30,851,452.0,550,467,60,123.0,104,1,283,163,48,0,0,383,-4059,2131,452,-5.59,44.680859,10.024679,44.56,176.0,0,0.0,-1,0.0,0.0,0,0.22,0.3307
19864,1564133161072,4,2.58,1.06,0.45,1.51,1.11,0.95,-0.75,0.35,24,-4,25,1.21,7722,12,90,41,30,848,449.0,552,464,60,124.0,104,1,283,87,48,0,0,404,10392,21432,449,-5.59,,,,,,,,,,,,
19884,1564133161100,4,2.6,1.05,0.44,1.51,1.1,0.89,-0.76,0.37,25,-5,26,1.16,7631,12,90,42,30,845,446.0,548,467,60,123.0,104,1,283,163,48,0,0,396,11545,-18341,446,-5.59,,,,,,,,,,,,
19904,1564133161120,4,2.6,1.06,0.44,1.51,1.1,0.88,-0.8,0.25,26,-4,28,1.19,7536,12,90,42,31,845,446.0,543,465,60,123.0,104,1,286,88,48,0,0,375,-8151,8488,446,-5.59,,,,,,,,,,,,
19924,1564133161140,3,2.6,1.06,0.44,1.52,1.1,0.88,-0.84,0.21,26,-3,30,1.22,7506,12,90,42,31,846,447.0,458,465,60,123.0,103,1,286,164,46,0,0,351,6512,21432,447,-5.59,,,,,,,,,,,,
19944,1564133161160,2,2.61,1.06,0.44,1.52,1.1,0.82,-0.91,0.23,26,-2,31,1.22,7411,12,90,42,32,845,444.0,370,468,60,123.0,103,1,290,166,46,0,0,339,11545,-28332,444,-5.59,44.680855,10.024664,43.42,176.0,0,0.0,-1,0.0,0.0,0,0.22,0.3324
19964,1564133161180,1,2.61,1.05,0.45,1.51,1.1,0.82,-0.92,0.15,27,-2,33,1.23,7373,12,90,42,32,844,443.0,331,465,60,122.0,103,1,290,166,46,0,0,320,28696,-28332,445,-5.59,,,,,,,,,,,,
19984,1564133161200,2,2.6,1.06,0.45,1.51,1.1,0.86,-0.98,0.15,28,-1,35,1.31,7324,11,90,42,33,843,442.0,306,465,60,123.0,103,1,292,166,46,0,0,320,6384,-3322,442,-5.59,,,,,,,,,,,,
20004,1564133161220,1,2.6,1.06,0.45,1.52,1.11,0.88,-1.04,0.11,29,-2,36,1.36,7231,12,90,42,33,843,443.0,329,466,60,124.0,103,1,292,171,46,0,0,320,6384,20625,443,-5.59,,,,,,,,,,,,
20024,1564133161240,2,2.61,1.06,0.44,1.51,1.11,0.94,-1.04,0.19,30,-1,38,1.4,7189,11,90,42,33,844,446.0,321,463,60,124.0,103,1,292,171,46,0,0,268,-1818,-28332,446,-5.59,,,,,,,,,,,,
20044,1564133161260,1,2.62,1.06,0.45,1.51,1.11,0.85,-1.0,0.26,31,-0,39,1.31,7080,11,90,42,34,846,443.0,304,466,60,123.0,103,1,295,176,46,0,0,264,-1562,21580,443,-5.59,44.680851,10.02465,42.49,176.0,0,0.0,-1,0.0,0.0,0,0.22,0.3341
20064,1564133161280,-1,2.62,1.06,0.44,1.51,1.1,0.88,-1.05,0.2,31,0,39,1.36,6993,11,90,42,34,848,441.0,289,466,60,123.0,103,1,295,176,46,0,0,263,-1562,21580,441,-5.59,,,,,,,,,,,,
20084,1564133161300,4,2.61,1.05,0.44,1.52,1.1,0.93,-1.11,0.18,32,-0,41,1.45,6908,11,90,42,35,851,437.0,284,462,60,124.0,103,1,298,182,46,0,0,316,-6524,5600,437,-5.59,,,,,,,,,,,,
20104,1564133161320,1,2.62,1.05,0.44,1.52,1.11,0.91,-1.05,0.2,32,0,41,1.39,6793,11,90,42,35,854,437.0,292,463,60,121.0,103,1,298,182,46,0,0,344,-31744,-3322,437,-5.59,,,,,,,,,,,,
20124,1564133161340,4,2.62,1.05,0.44,1.51,1.11,0.93,-1.13,0.21,33,-1,42,1.46,6732,11,90,42,36,856,435.0,285,465,60,123.0,105,1,301,187,46,0,0,371,-6524,13552,435,-5.59,,,,,,,,,,,,
20144,1564133161360,-1,2.62,1.05,0.45,1.52,1.1,0.91,-1.09,0.23,34,0,42,1.42,6696,11,90,42,37,857,435.0,278,466,60,122.0,105,1,304,193,46,0,0,369,-3866,31796,435,-5.59,44.680847,10.024635,42.0,176.0,0,0.0,-1,0.0,0.0,0,0.22,0.3357
20164,1564133161380,1,2.63,1.06,0.45,1.51,1.11,0.95,-1.14,0.25,34,-1,43,1.48,6658,11,90,42,37,857,434.0,272,462,60,123.0,105,1,304,193,46,0,0,367,240,243,434,-5.59,,,,,,,,,,,,
20184,1564133161400,-0,2.61,1.05,0.45,1.52,1.1,0.95,-1.12,0.24,34,-1,43,1.48,6641,11,90,42,38,858,432.0,268,465,60,123.0,105,1,307,199,46,0,0,345,-6475,-21792,432,-5.59,,,,,,,,,,,,
20204,1564133161420,3,2.62,1.05,0.44,1.52,1.1,1.02,-1.14,0.26,34,-2,44,1.53,6754,11,90,42,38,859,430.0,270,462,60,124.0,118,1,307,199,51,0,0,311,19125,-21792,430,-5.59,,,,,,,,,,,,
20224,1564133161440,-2,2.63,1.06,0.44,1.52,1.11,0.98,-1.11,0.24,33,-1,44,1.49,6900,11,90,42,38,860,427.0,284,468,60,122.0,118,1,307,199,51,0,0,276,-18948,-3856,427,-5.59,,,,,,,,,,,,
20244,1564133161460,3,2.61,1.06,0.45,1.52,1.1,0.93,-1.16,0.28,34,-0,45,1.48,6903,11,90,42,38,861,426.0,280,463,60,124.0,118,1,307,199,51,0,0,261,19125,-3414,426,-5.59,44.680847,10.02462,40.83,176.0,0,0.0,-1,0.0,0.0,0,0.22,0.3374
20264,1564133161480,-1,2.63,1.06,0.44,1.51,1.1,0.94,-1.05,0.25,34,-0,46,1.41,6850,11,90,42,38,864,426.0,283,468,60,121.0,118,1,307,199,51,0,0,258,8200,-3414,426,-5.59,,,,,,,,,,,,
20284,1564133161498,0,2.63,1.05,0.44,1.52,1.11,0.9,-1.14,0.22,35,-1,46,1.45,6823,11,90,42,38,868,429.0,282,461,60,124.0,118,1,307,199,51,0,0,262,-6656,3826,429,-5.59,,,,,,,,,,,,
20304,1564133161518,1,2.63,1.06,0.45,1.52,1.11,0.94,-1.05,0.23,34,-1,46,1.41,6798,11,90,42,38,873,428.0,287,462,60,123.0,118,1,307,199,51,0,0,264,-6656,13552,427,-5.59,,,,,,,,,,,,
20324,1564133161538,0,2.62,1.06,0.44,1.52,1.11,0.93,-1.12,0.24,35,-1,46,1.46,6759,11,90,42,38,876,426.0,286,463,60,123.0,119,1,307,199,51,0,0,285,770,3826,426,-5.59,,,,,,,,,,,,
20344,1564133161558,0,2.63,1.06,0.44,1.53,1.1,0.97,-1.12,0.28,36,-2,45,1.49,6713,11,90,42,38,879,421.0,281,462,60,124.0,119,1,307,204,51,0,0,353,770,-21944,421,-5.59,44.680847,10.024606,40.4,176.0,0,0.0,-1,0.0,0.0,0,0.22,0.3391
20364,1564133161578,3,2.62,1.06,0.45,1.52,1.1,1.0,-1.21,0.29,36,-2,46,1.57,6672,11,90,42,39,880,420.0,289,466,60,124.0,119,1,310,199,51,0,0,372,1,-3856,420,-5.59,,,,,,,,,,,,
20384,1564133161597,0,2.62,1.06,0.45,1.52,1.11,1.03,-1.19,0.35,35,-2,46,1.57,6672,11,90,42,39,881,421.0,298,468,60,122.0,119,1,310,204,51,0,0,372,-6656,-26615,419,-5.59,,,,,,,,,,,,
20404,1564133161617,2,2.63,1.06,0.44,1.52,1.1,0.96,-1.19,0.36,36,-2,46,1.53,6737,11,90,42,39,878,418.0,289,467,60,124.0,119,1,310,204,51,0,0,347,257,2524,417,-5.59,,,,,,,,,,,,
20424,1564133161637,1,2.63,1.06,0.44,1.53,1.11,0.95,-1.12,0.28,35,-4,47,1.47,6863,11,90,42,39,876,416.0,298,467,60,121.0,124,1,310,204,52,0,0,317,-6656,-8151,416,-5.59,,,,,,,,,,,,
20444,1564133161657,-1,2.63,1.06,0.45,1.52,1.11,0.93,-1.16,0.23,35,-4,47,1.49,6941,11,90,42,39,873,414.0,295,465,60,124.0,124,1,310,204,52,0,0,289,486,-9166,414,-5.59,44.680851,10.024592,39.27,176.0,0,0.0,-1,0.0,0.0,0,0.23,0.3407
20464,1564133161677,3,2.62,1.06,0.44,1.52,1.11,0.92,-1.11,0.32,35,-3,47,1.45,6931,11,90,42,38,872,415.0,291,463,60,124.0,124,1,307,199,52,0,0,282,0,-9166,415,-5.59,,,,,,,,,,,,
20484,1564133161697,-0,2.63,1.06,0.44,1.52,1.11,0.88,-1.1,0.31,35,-2,48,1.4,6921,12,90,42,39,872,415.0,292,468,60,123.0,124,1,310,199,52,0,0,281,0,-4059,417,-5.59,,,,,,,,,,,,
20504,1564133161717,3,2.62,1.06,0.45,1.52,1.11,0.92,-1.15,0.29,35,-1,48,1.47,6843,20,90,42,39,872,415.0,291,466,60,123.0,124,1,310,204,52,0,0,288,230,11560,415,-5.59,,,,,,,,,,,,
20524,1564133161737,1,2.62,1.06,0.45,1.52,1.11,0.89,-1.11,0.29,36,-2,48,1.42,6830,32,90,42,43,872,414.0,293,468,60,122.0,127,1,339,211,53,0,0,307,-1268,-4059,414,-5.59,,,,,,,,,,,,
20544,1564133161757,-1,2.63,1.06,0.44,1.53,1.11,0.9,-1.18,0.27,37,-1,47,1.48,6860,47,90,42,50,872,412.0,292,466,60,123.0,127,1,377,232,53,0,0,354,3082,10392,412,-5.59,44.680851,10.024578,38.94,176.0,0,0.0,-1,0.0,0.0,0,0.23,0.3424
20564,1564133161777,2,2.62,1.06,0.45,1.53,1.11,0.92,-1.13,0.34,36,-2,47,1.45,6830,58,90,42,60,872,407.0,285,463,60,123.0,127,1,412,277,53,0,0,365,3082,-9211,407,-5.59,,,,,,,,,,,,
20584,1564133161797,-1,2.63,1.06,0.45,1.52,1.11,0.89,-1.16,0.28,36,-2,46,1.46,6778,67,90,42,70,872,408.0,285,467,60,123.0,127,1,382,344,53,0,0,364,3082,1504,408,-5.59,,,,,,,,,,,,
20604,1564133161817,2,2.61,1.06,0.45,1.53,1.11,0.95,-1.13,0.35,35,-2,46,1.48,6730,74,90,42,80,873,408.0,281,463,60,121.0,127,1,370,457,53,0,0,361,3082,1504,408,-5.59,,,,,,,,,,,,
20624,1564133161837,0,2.61,1.06,0.45,1.52,1.11,0.9,-1.14,0.33,35,-2,46,1.45,6708,80,90,42,87,872,408.0,283,465,60,123.0,284,1,361,495,116,0,0,346,2790,28696,407,-5.59,,,,,,,,,,,,
20644,1564133161857,2,2.6,1.06,0.45,1.53,1.1,0.93,-1.12,0.35,34,-2,46,1.46,6810,84,90,42,91,873,403.0,275,462,60,124.0,284,1,361,514,116,0,0,328,2790,-3968,403,-5.59,44.680855,10.024565,38.42,175.9,0,0.0,-1,0.0,0.0,0,0.23,0.3441
20664,1564133161877,-1,2.61,1.06,0.45,1.52,1.1,0.92,-1.12,0.3,34,-1,46,1.45,6957,89,90,42,93,873,403.0,266,465,60,123.0,284,1,367,519,116,0,0,331,-29302,17144,403,-5.59,,,,,,,,,,,,
20684,1564133161901,-1,2.61,1.06,0.44,1.53,1.11,0.88,-1.14,0.33,34,-0,46,1.44,7156,91,90,42,94,910,402.0,261,465,60,123.0,284,1,381,525,116,0,0,348,-6640,-32702,402,-5.59,,,,,,,,,,,,
20704,1564133161921,0,2.6,1.06,0.45,1.53,1.11,0.83,-1.1,0.49,34,-1,46,1.38,7399,92,90,42,94,948,403.0,256,464,60,123.0,372,1,399,536,150,0,0,355,2060,-1818,403,-5.59,,,,,,,,,,,,
20724,1564133161941,2,2.61,1.06,0.45,1.52,1.12,0.84,-1.09,0.5,34,-2,46,1.38,7838,92,90,42,93,983,402.0,261,460,60,123.0,372,1,434,556,150,0,0,352,4104,-3968,402,-5.59,,,,,,,,,,,,
20744,1564133161961,1,2.61,1.05,0.44,1.52,1.12,0.88,-1.03,0.51,34,-1,46,1.35,8449,93,90,42,92,1019,403.0,267,462,60,123.0,372,1,436,600,150,0,0,356,2060,28696,403,-5.59,44.680862,10.024553,38.04,175.9,0,0.0,-1,0.0,0.0,0,0.23,0.3457
20764,1564133161981,1,2.59,1.06,0.45,1.53,1.11,0.88,-1.03,0.5,34,-0,46,1.36,8898,93,89,42,89,1119,400.0,265,461,60,122.0,372,1,419,606,150,0,0,366,4104,-9211,400,-5.59,,,,,,,,,,,,
20784,1564133162001,0,2.59,1.06,0.45,1.52,1.11,0.71,-0.99,0.64,34,1,47,1.21,8967,93,89,42,87,1219,402.0,267,461,60,121.0,372,1,419,584,150,0,0,482,-29978,13552,403,-5.59,,,,,,,,,,,,
20804,1564133162009,2,2.58,1.05,0.45,1.52,1.11,0.66,-1.01,0.66,34,3,48,1.21,8827,94,89,42,87,1291,410.0,278,468,60,123.0,372,1,423,525,150,0,0,569,3082,2131,412,-5.59,,,,,,,,,,,,
20824,1564133162029,-2,2.56,1.05,0.45,1.52,1.11,0.51,-0.96,0.69,34,4,49,1.08,8941,94,89,42,87,1355,417.0,297,466,60,124.0,473,1,420,584,195,0,0,506,3082,1779,417,-5.59,,,,,,,,,,,,
20844,1564133162049,-0,2.55,1.06,0.45,1.52,1.11,0.43,-1.02,0.75,34,5,48,1.11,9010,95,89,42,87,1372,419.0,310,470,60,123.0,473,1,418,584,195,0,0,441,486,3571,419,-5.59,44.680866,10.024542,38.16,175.9,0,0.0,-1,0.0,0.0,0,0.23,0.3474
20864,1564133162069,2,2.53,1.06,0.45,1.52,1.11,0.28,-0.96,0.83,35,6,48,1.0,8856,95,89,42,87,1388,425.0,331,462,60,123.0,473,1,422,584,195,0,0,440,770,-23367,425,-5.59,,,,,,,,,,,,
20884,1564133162099,2,2.53,1.05,0.45,1.52,1.11,0.34,-0.99,0.84,34,5,47,1.05,8538,95,90,42,88,1357,433.0,350,466,60,123.0,473,1,433,595,195,0,0,511,8200,3576,433,-5.59,,,,,,,,,,,,
20904,1564133162119,1,2.52,1.06,0.45,1.52,1.11,0.33,-0.95,0.85,35,4,46,1.01,8553,95,90,42,89,1309,437.0,375,461,60,122.0,448,1,433,606,196,0,0,464,-992,16648,437,-5.59,,,,,,,,,,,,
20924,1564133162139,0,2.53,1.05,0.45,1.52,1.12,0.29,-0.97,0.92,35,3,45,1.02,8620,96,89,42,88,1267,441.0,405,466,60,123.0,448,1,430,595,196,0,0,427,-6524,2211,441,-5.59,,,,,,,,,,,,
20944,1564133162159,4,2.52,1.06,0.45,1.52,1.12,0.29,-0.98,0.9,35,0,44,1.02,8648,96,89,42,88,1227,443.0,428,461,60,123.0,448,1,429,595,196,0,0,483,-1818,-16384,443,-5.59,44.68087,10.02453,38.45,175.8,0,0.0,-1,0.0,0.0,0,0.23,0.3491
20964,1564133162179,3,2.52,1.06,0.45,1.53,1.11,0.37,-1.01,0.9,34,-0,43,1.07,8761,96,90,42,88,1221,446.0,449,468,60,123.0,448,1,425,595,196,0,0,499,-3968,8488,446,-5.59,,,,,,,,,,,,
20984,1564133162201,2,2.51,1.06,0.46,1.52,1.12,0.39,-0.97,0.93,32,-1,42,1.04,8815,96,89,42,88,1228,454.0,458,463,60,122.0,448,1,424,595,196,0,0,476,-8151,16648,454,-5.59,,,,,,,,,,,,
21004,1564133162221,2,2.48,1.06,0.45,1.53,1.12,0.49,-0.97,0.99,31,1,41,1.09,8979,97,89,42,88,1229,459.0,476,466,60,123.0,442,1,419,595,203,0,0,456,-4059,-1562,459,-5.59,,,,,,,,,,,,
21024,1564133162241,2,2.48,1.06,0.45,1.53,1.12,0.47,-0.93,0.97,31,2,40,1.05,9128,97,89,42,87,1227,465.0,490,465,60,123.0,442,1,418,584,203,0,0,487,-3856,998,465,-5.59,,,,,,,,,,,,
21044,1564133162261,3,2.45,1.06,0.45,1.53,1.11,0.63,-0.93,0.83,30,1,39,1.12,9218,97,89,42,87,1221,468.0,490,462,60,123.0,442,1,418,584,203,0,0,501,-768,-1562,471,-5.59,44.680878,10.02452,41.03,175.8,0,0.0,-1,0.0,0.0,0,0.23,0.3507
21064,1564133162281,4,2.44,1.06,0.45,1.52,1.11,0.61,-0.92,0.77,30,2,39,1.1,9351,97,89,42,87,1211,474.0,502,463,60,123.0,442,1,418,584,203,0,0,481,-28332,998,474,-5.59,,,,,,,,,,,,
21084,1564133162299,1,2.43,1.06,0.45,1.52,1.11,0.48,-0.91,0.81,29,2,39,1.03,9365,98,89,42,87,1206,476.0,521,468,60,123.0,442,1,418,584,203,0,0,515,16648,3,476,-5.59,,,,,,,,,,,,
21104,1564133162319,2,2.43,1.06,0.46,1.53,1.11,0.49,-0.95,0.92,28,4,36,1.07,9398,98,89,42,87,1203,479.0,496,468,60,123.0,434,1,418,584,208,0,0,506,15649,-32248,481,-5.59,,,,,,,,,,,,
21124,1564133162339,2,2.43,1.05,0.45,1.52,1.12,0.64,-0.92,0.86,25,3,35,1.12,9445,98,89,42,87,1205,483.0,457,462,60,123.0,434,1,418,584,208,0,0,489,2524,771,483,-5.59,,,,,,,,,,,,
21144,1564133162359,1,2.43,1.06,0.45,1.53,1.11,0.52,-0.82,0.84,24,3,35,0.97,9450,98,89,42,87,1211,485.0,435,466,60,122.0,434,1,418,584,208,0,0,515,6193,1341,485,-5.59,44.680885,10.024509,43.34,175.8,0,0.0,-1,0.0,0.0,0,0.23,0.3524
21164,1564133162379,1,2.44,1.06,0.46,1.52,1.12,0.49,-0.74,0.95,24,1,33,0.88,9546,98,89,42,87,1213,490.0,413,472,60,122.0,434,1,417,584,208,0,0,481,8488,-28648,490,-5.59,,,,,,,,,,,,
21184,1564133162399,2,2.43,1.06,0.45,1.52,1.11,0.59,-0.7,0.78,23,1,31,0.92,9537,98,89,42,87,1208,494.0,417,463,60,123.0,434,1,418,585,208,0,0,534,2212,-8187,497,-5.59,,,,,,,,,,,,
21204,1564133162419,1,2.43,1.06,0.46,1.52,1.12,0.52,-0.68,0.83,23,-1,30,0.86,9625,98,89,42,87,1202,499.0,419,466,60,123.0,434,1,414,588,208,0,0,543,32033,-8187,499,-5.59,,,,,,,,,,,,
21224,1564133162439,2,2.44,1.06,0.45,1.52,1.11,0.47,-0.62,0.87,22,-1,29,0.78,9755,99,89,42,86,1191,504.0,402,466,60,122.0,428,1,407,579,214,0,0,505,-6441,-28648,504,-5.59,,,,,,,,,,,,
21244,1564133162459,2,2.44,1.06,0.45,1.53,1.11,0.4,-0.6,0.98,22,-1,28,0.72,9962,99,89,42,86,1177,511.0,435,467,60,123.0,428,1,398,583,214,0,0,521,-1818,-2336,511,-5.59,44.680893,10.0245,45.38,175.7,0,0.0,-1,0.0,0.0,0,0.23,0.3541
21264,1564133162479,0,2.44,1.06,0.46,1.52,1.1,0.36,-0.66,1.02,22,-2,26,0.75,10129,99,89,42,86,1161,516.0,461,465,60,123.0,428,1,405,585,214,0,0,553,998,-8962,516,-5.59,,,,,,,,,,,,
21284,1564133162497,1,2.45,1.05,0.46,1.52,1.12,0.37,-0.61,1.01,22,-1,26,0.71,10229,98,89,42,85,1147,523.0,501,467,60,122.0,428,1,411,585,214,0,0,573,3,-8186,523,-5.59,,,,,,,,,,,,
21304,1564133162517,0,2.45,1.06,0.45,1.52,1.12,0.39,-0.55,0.99,22,-0,26,0.67,10457,99,89,42,85,1141,528.0,531,462,60,123.0,426,1,428,567,225,0,0,544,11560,2104,528,-5.59,,,,,,,,,,,,
21324,1564133162537,-0,2.45,1.06,0.46,1.52,1.11,0.39,-0.55,0.92,22,1,26,0.67,10515,99,89,42,85,1132,534.0,555,463,60,123.0,426,1,431,567,225,0,0,540,-32248,-28648,535,-5.59,,,,,,,,,,,,
21344,1564133162557,0,2.45,1.06,0.46,1.52,1.11,0.37,-0.57,0.89,23,1,26,0.68,10557,99,89,42,86,1114,539.0,584,468,60,123.0,426,1,433,585,225,0,0,567,-4054,-2934,543,-5.59,44.680904,10.024489,48.68,175.7,0,0.0,-1,0.0,0.0,0,0.24,0.3557
21364,1564133162577,1,2.45,1.05,0.46,1.52,1.11,0.39,-0.59,0.87,23,1,25,0.71,10527,99,89,42,86,1096,547.0,605,462,60,122.0,426,1,432,585,225,0,0,570,-14,1267,547,-5.59,,,,,,,,,,,,
21384,1564133162596,2,2.45,1.06,0.46,1.53,1.11,0.41,-0.59,0.79,23,1,25,0.72,10629,99,89,42,85,1084,551.0,621,464,60,121.0,426,1,434,585,225,0,0,577,-14,259,551,-5.59,,,,,,,,,,,,
21404,1564133162616,2,2.45,1.06,0.45,1.53,1.11,0.4,-0.67,0.75,22,1,25,0.78,10665,99,89,42,86,1071,554.0,625,466,60,122.0,427,1,436,585,237,0,0,563,-14,-3190,554,-5.59,,,,,,,,,,,,
21424,1564133162636,1,2.44,1.06,0.46,1.52,1.11,0.41,-0.72,0.88,22,-1,25,0.83,10757,99,89,42,85,1054,555.0,633,466,60,122.0,427,1,437,567,237,0,0,569,-8187,8488,556,-5.59,,,,,,,,,,,,
21444,1564133162656,3,2.44,1.05,0.46,1.52,1.11,0.45,-0.71,0.9,21,-1,24,0.84,10844,99,89,42,85,1039,560.0,633,465,60,122.0,427,1,439,567,237,0,0,602,-9072,-1894,560,-5.59,44.680916,10.02448,50.66,175.7,0,0.0,-1,0.0,0.0,0,0.24,0.3574
21464,1564133162676,4,2.46,1.06,0.46,1.52,1.11,0.4,-0.73,0.92,21,-1,25,0.83,10907,99,89,42,85,1035,567.0,641,463,60,121.0,427,1,441,567,237,0,0,584,-2934,2048,567,-5.59,,,,,,,,,,,,
21484,1564133162694,3,2.45,1.06,0.45,1.52,1.11,0.39,-0.68,0.82,21,-2,26,0.78,11081,99,89,42,85,1030,571.0,640,461,60,123.0,427,1,444,567,237,0,0,595,-2336,208,573,-5.59,,,,,,,,,,,,
21504,1564133162714,4,2.45,1.06,0.46,1.53,1.11,0.42,-0.72,0.93,21,-1,25,0.83,11187,99,89,42,85,1023,576.0,643,468,60,122.0,427,1,442,567,237,0,0,610,-2336,-3210,576,-5.59,,,,,,,,,,,,
21524,1564133162734,2,2.45,1.06,0.46,1.52,1.12,0.37,-0.73,0.83,21,-0,26,0.82,11370,99,89,42,85,1017,579.0,643,464,60,122.0,420,1,441,567,242,0,0,4917,-506,-28304,582,-5.59,,,,,,,,,,,,
21544,1564133162754,2,2.45,1.06,0.46,1.53,1.12,0.31,-0.66,0.88,22,1,27,0.72,11496,99,89,42,84,1014,585.0,647,467,60,121.0,420,1,441,567,242,0,0,4917,6274,-16883,585,-5.59,44.680923,10.024471,53.2,175.6,0,0.0,-1,0.0,0.0,0,0.24,0.3591
21564,1564133162774,3,2.46,1.06,0.46,1.52,1.12,0.33,-0.7,0.94,22,1,27,0.78,11624,99,89,42,84,1011,588.0,647,472,60,122.0,420,1,440,551,242,0,0,4917,-22359,-16883,593,-5.59,,,,,,,,,,,,
21584,1564133162796,4,2.44,1.06,0.46,1.52,1.11,0.36,-0.79,1.05,23,0,26,0.87,11682,99,89,42,84,1001,596.0,652,469,60,122.0,420,1,440,553,242,0,0,4917,2211,19320,596,-5.59,,,,,,,,,,,,
21604,1564133162816,2,2.45,1.06,0.46,1.53,1.11,0.37,-0.82,1.01,23,-0,26,0.9,11792,99,89,42,84,992,599.0,649,467,60,122.0,420,1,440,555,242,0,0,4917,12552,20993,600,-5.59,,,,,,,,,,,,
21624,1564133162836,2,2.44,1.07,0.45,1.53,1.11,0.39,-0.85,0.99,22,1,27,0.94,11889,99,89,42,84,985,604.0,652,467,60,122.0,413,1,440,558,248,0,0,620,12552,3,605,-5.59,,,,,,,,,,,,
21644,1564133162856,3,2.44,1.06,0.45,1.53,1.11,0.4,-0.84,0.91,22,1,26,0.93,11912,99,89,42,84,977,608.0,648,466,60,122.0,413,1,440,557,248,0,0,640,-29984,244,608,-5.59,44.680939,10.024463,55.74,175.6,0,0.0,-1,0.0,0.0,0,0.24,0.3607
21664,1564133162876,3,2.43,1.07,0.45,1.53,1.12,0.42,-0.82,0.89,22,1,26,0.92,11942,99,89,42,84,961,612.0,645,466,60,121.0,413,1,440,560,248,0,0,627,774,-3584,612,-5.59,,,,,,,,,,,,
21684,1564133162900,2,2.43,1.06,0.46,1.52,1.12,0.45,-0.8,0.84,22,0,27,0.92,11965,99,89,42,84,944,616.0,643,466,60,120.0,413,1,440,559,248,0,0,654,10432,479,617,-5.59,,,,,,,,,,,,
21704,1564133162920,3,2.42,1.06,0.46,1.53,1.11,0.45,-0.75,0.84,21,0,27,0.87,12050,99,89,42,84,933,618.0,631,467,60,120.0,414,1,440,560,256,0,0,659,-1894,24,618,-5.59,,,,,,,,,,,,
21724,1564133162940,0,2.43,1.06,0.46,1.52,1.12,0.42,-0.74,0.84,21,0,28,0.85,12175,99,89,42,84,924,623.0,644,465,60,122.0,414,1,440,560,256,0,0,637,2048,-388,623,-5.59,,,,,,,,,,,,
21744,1564133162960,4,2.41,1.06,0.46,1.53,1.12,0.41,-0.77,0.8,21,0,28,0.87,12262,100,89,42,84,908,626.0,631,466,60,122.0,414,1,440,560,256,0,0,654,-16179,8958,626,-5.59,44.68095,10.024454,57.86,175.6,0,0.0,-1,0.0,0.0,0,0.24,0.3624
21764,1564133162980,4,2.41,1.06,0.46,1.53,1.11,0.42,-0.82,0.76,21,-0,27,0.92,12327,100,89,42,84,891,631.0,643,471,60,121.0,414,1,440,560,256,0,0,660,-768,-2345,631,-5.59,,,,,,,,,,,,
21784,1564133163000,2,2.4,1.06,0.45,1.53,1.11,0.49,-0.89,0.88,21,-0,27,1.01,12425,100,89,42,84,881,637.0,656,473,60,122.0,414,1,440,560,256,0,0,669,-23055,-2345,636,-5.59,,,,,,,,,,,,
21804,1564133163010,3,2.4,1.07,0.46,1.53,1.11,0.42,-0.85,0.74,22,-0,27,0.95,12500,100,89,42,84,873,641.0,658,468,60,122.0,414,1,440,501,256,0,0,650,-30139,-10344,640,-5.59,,,,,,,,,,,,
21824,1564133163030,5,2.4,1.06,0.46,1.53,1.12,0.36,-0.84,0.7,22,1,26,0.91,12491,100,89,42,84,857,643.0,658,475,60,122.0,411,1,440,560,264,0,0,675,-3446,3543,643,-5.59,,,,,,,,,,,,
21844,1564133163050,-2,2.41,1.06,0.46,1.53,1.12,0.45,-0.93,0.83,21,2,24,1.03,12491,100,89,42,84,840,644.0,650,471,60,120.0,411,1,440,560,264,0,0,663,28675,-10346,647,-5.59,44.680965,10.024447,60.0,175.6,0,0.0,-1,0.0,0.0,0,0.24,0.3641
21864,1564133163070,-0,2.4,1.06,0.46,1.52,1.12,0.43,-0.89,0.92,21,3,23,0.99,12104,100,90,42,83,829,648.0,651,458,60,124.0,411,1,440,545,264,0,0,663,-18357,-10348,648,181.28,,,,,,,,,,,,
21884,1564133163100,-1,2.39,1.06,0.46,1.53,1.11,0.51,-0.97,1.0,20,2,21,1.1,11581,100,90,42,85,821,650.0,630,462,60,123.0,411,1,440,568,264,0,0,655,3395,-2345,649,181.28,,,,,,,,,,,,
21904,1564133163120,-1,2.4,1.07,0.45,1.53,1.12,0.5,-0.84,0.82,19,-0,22,0.98,11234,100,90,42,86,810,646.0,611,461,60,121.0,385,1,443,585,249,0,0,630,-16046,31988,647,-5.59,,,,,,,,,,,,
21924,1564133163140,-2,2.4,1.06,0.46,1.52,1.12,0.56,-0.91,0.9,18,-3,20,1.06,11088,100,90,42,87,798,643.0,592,465,60,123.0,385,1,446,604,249,0,0,633,-14655,-2830,646,181.28,,,,,,,,,,,,
21944,1564133163160,2,2.4,1.06,0.45,1.53,1.11,0.61,-0.96,0.96,18,-4,20,1.14,10850,100,90,42,88,792,643.0,563,465,60,122.0,385,1,443,622,249,0,0,629,771,11566,648,414.87,44.680981,10.024442,61.98,175.6,0,0.0,-1,0.0,0.0,0,0.24,0.3657
21964,1564133163180,4,2.4,1.06,0.45,1.52,1.11,0.65,-0.87,1.03,17,-5,22,1.09,10324,100,89,42,89,789,646.0,605,461,60,122.0,385,1,422,1093,249,0,0,692,966,-2826,646,-5.59,,,,,,,,,,,,
21984,1564133163200,1,2.39,1.06,0.46,1.52,1.1,0.57,-0.83,1.0,17,-2,23,1.01,9915,100,89,42,88,843,655.0,592,466,60,122.0,385,1,401,937,249,0,0,828,-4876,-2358,655,-5.59,,,,,,,,,,,,
22004,1564133163220,4,2.4,1.06,0.46,1.52,1.12,0.54,-0.8,0.9,17,-1,24,0.96,10010,100,89,42,87,954,660.0,601,463,60,123.0,466,1,396,813,308,0,0,782,-2836,-2830,661,-5.59,,,,,,,,,,,,
22024,1564133163240,2,2.42,1.06,0.45,1.52,1.11,0.47,-0.74,0.9,18,-1,23,0.88,10268,100,89,42,86,1066,664.0,612,468,60,122.0,466,1,415,527,308,0,0,683,-10251,8010,666,-5.59,,,,,,,,,,,,
22044,1564133163260,3,2.41,1.06,0.46,1.53,1.11,0.42,-0.68,1.01,18,0,23,0.79,10064,100,90,42,86,1181,667.0,608,467,60,123.0,466,1,398,590,308,0,0,737,11776,-31066,669,-5.59,44.680996,10.024436,63.41,175.5,0,0.0,-1,0.0,0.0,0,0.25,0.3674
22064,1564133163280,-0,2.41,1.06,0.45,1.52,1.11,0.37,-0.69,1.01,19,-0,22,0.79,9842,100,90,42,86,1287,679.0,605,462,60,123.0,466,1,403,582,308,0,0,742,4909,15647,679,-5.59,,,,,,,,,,,,
22084,1564133163300,3,2.41,1.06,0.45,1.52,1.11,0.33,-0.66,1.09,19,-1,22,0.73,9770,100,89,42,86,1385,678.0,606,462,60,122.0,466,1,407,580,308,0,0,700,-8429,-2358,678,-5.59,,,,,,,,,,,,
22104,1564133163320,4,2.41,1.07,0.46,1.53,1.11,0.33,-0.69,1.01,19,-2,21,0.77,9650,100,90,42,86,1453,687.0,611,465,60,123.0,307,1,412,576,211,0,0,715,479,-3344,685,-5.59,,,,,,,,,,,,
22124,1564133163340,2,2.41,1.06,0.46,1.53,1.11,0.39,-0.72,0.97,19,-2,21,0.82,9605,100,90,42,86,1436,687.0,604,465,60,122.0,307,1,414,576,211,0,0,740,-2830,-2918,687,-5.59,,,,,,,,,,,,
22144,1564133163360,3,2.41,1.06,0.46,1.53,1.12,0.45,-0.76,0.98,19,-2,19,0.88,9709,100,90,42,87,1385,695.0,620,460,60,123.0,307,1,410,578,211,0,0,708,-26380,-3450,695,-5.59,44.681011,10.024432,64.38,175.5,0,0.0,-1,0.0,0.0,0,0.25,0.3691
22164,1564133163380,1,2.4,1.06,0.46,1.53,1.11,0.5,-0.77,1.06,19,-3,19,0.91,9796,100,89,42,86,1287,695.0,621,468,60,122.0,307,1,405,581,211,0,0,720,3543,-2358,698,-5.59,,,,,,,,,,,,
22184,1564133163400,2,2.4,1.06,0.46,1.53,1.11,0.48,-0.82,1.03,19,-2,19,0.95,9899,100,90,42,86,1194,701.0,631,465,60,123.0,307,1,401,583,211,0,0,742,8958,-4091,702,-5.59,,,,,,,,,,,,
22204,1564133163420,2,2.41,1.06,0.45,1.53,1.11,0.5,-0.79,1.13,19,-1,19,0.94,10080,100,90,42,86,1116,706.0,633,464,60,122.0,307,1,401,527,211,0,0,740,8958,-31066,706,-5.59,,,,,,,,,,,,
22224,1564133163440,1,2.41,1.07,0.45,1.53,1.11,0.49,-0.79,1.21,18,0,20,0.93,10173,100,90,42,86,1039,709.0,634,466,60,123.0,315,1,405,585,223,0,0,738,-3038,-2826,709,-5.59,,,,,,,,,,,,
22244,1564133163460,2,2.4,1.06,0.46,1.53,1.12,0.51,-0.83,1.19,18,1,20,0.97,10129,100,90,41,86,974,711.0,632,468,60,123.0,315,1,405,585,223,0,0,749,-26892,-3344,711,-5.59,44.681026,10.024429,66.63,175.5,0,0.0,-1,0.0,0.0,0,0.25,0.3707
22264,1564133163480,2,2.4,1.06,0.46,1.53,1.11,0.55,-0.88,1.09,18,0,20,1.04,10168,100,90,41,86,921,716.0,631,462,60,122.0,315,1,408,585,223,0,0,753,6208,-2830,716,-5.59,,,,,,,,,,,,
22284,1564133163500,4,2.38,1.07,0.46,1.53,1.11,0.58,-0.9,1.1,18,0,20,1.07,10190,100,90,41,86,934,721.0,631,467,60,122.0,315,1,409,585,223,0,0,748,24,-3344,721,-5.59,,,,,,,,,,,,
22304,1564133163520,3,2.38,1.07,0.46,1.53,1.11,0.62,-0.86,1.16,17,-0,20,1.06,10268,100,90,41,86,946,726.0,633,469,60,123.0,314,1,415,585,228,0,0,746,14342,-3450,726,-5.59,,,,,,,,,,,,
22324,1564133163540,2,2.38,1.06,0.46,1.53,1.12,0.57,-0.93,1.14,17,-1,20,1.09,10245,100,90,41,86,956,725.0,621,460,60,122.0,314,1,413,585,228,0,0,766,12333,-3450,725,-5.59,,,,,,,,,,,,
22344,1564133163560,2,2.38,1.07,0.46,1.54,1.11,0.5,-0.93,1.05,17,-0,20,1.05,10251,100,90,41,86,965,729.0,534,463,60,122.0,314,1,414,585,228,0,0,762,-20693,13016,729,-5.59,44.681046,10.024426,69.53,175.5,0,0.0,-1,0.0,0.0,0,0.25,0.3724
22364,1564133163580,2,2.36,1.07,0.46,1.53,1.12,0.43,-0.93,1.0,16,-1,21,1.02,10376,100,90,41,86,960,731.0,490,466,60,122.0,314,1,423,585,228,0,0,753,-12152,5876,735,-5.59,,,,,,,,,,,,
22384,1564133163599,2,2.37,1.06,0.46,1.53,1.12,0.42,-0.91,1.04,16,-1,20,1.01,10376,100,90,41,86,956,738.0,479,464,60,122.0,314,1,423,585,228,0,0,760,204,-31066,738,-5.59,,,,,,,,,,,,
22404,1564133163619,2,2.37,1.06,0.46,1.53,1.12,0.46,-0.87,0.98,15,-1,20,0.98,10416,100,90,41,86,951,738.0,487,464,60,122.0,313,1,426,585,231,0,0,781,-2830,-23308,738,-5.59,,,,,,,,,,,,
22424,1564133163639,2,2.36,1.07,0.46,1.53,1.12,0.48,-0.81,0.82,14,-1,20,0.95,10451,100,90,41,86,946,742.0,468,461,60,123.0,313,1,428,585,231,0,0,758,-2830,-31068,742,-5.59,,,,,,,,,,,,
22444,1564133163659,3,2.37,1.06,0.46,1.53,1.12,0.46,-0.77,0.7,13,-2,19,0.9,10539,100,90,41,86,946,745.0,420,470,60,122.0,313,1,433,585,231,0,0,769,-4091,-23308,747,-5.59,44.681065,10.024425,70.1,175.4,0,0.0,-1,0.0,0.0,0,0.25,0.3741
22464,1564133163679,5,2.36,1.06,0.46,1.53,1.11,0.41,-0.73,0.69,13,-3,19,0.84,10510,97,90,41,86,945,751.0,442,466,60,122.0,313,1,432,585,231,0,0,765,-2830,-2570,751,-5.59,,,,,,,,,,,,
22484,1564133163699,5,2.37,1.06,0.46,1.53,1.11,0.45,-0.67,0.64,12,-4,19,0.81,10515,81,90,41,84,942,751.0,463,462,60,123.0,313,1,430,549,231,0,0,777,-2826,-3368,751,-5.59,,,,,,,,,,,,
22504,1564133163719,9,2.36,1.07,0.46,1.53,1.11,0.48,-0.6,0.53,11,-5,19,0.76,10439,63,90,41,78,938,754.0,415,462,60,123.0,258,1,426,492,195,0,0,769,-22796,5876,754,-5.59,,,,,,,,,,,,
22524,1564133163739,11,2.36,1.06,0.46,1.53,1.11,0.52,-0.55,0.43,11,-7,19,0.76,10428,45,90,41,69,935,753.0,400,465,60,123.0,258,1,435,446,195,0,0,766,-2358,-10212,752,-5.59,,,,,,,,,,,,
22544,1564133163759,13,2.37,1.06,0.46,1.53,1.11,0.49,-0.49,0.34,10,-8,18,0.69,10268,32,90,41,61,933,752.0,432,464,60,123.0,258,1,430,372,195,0,0,764,-2830,-10216,752,-5.59,44.681084,10.024425,73.24,175.4,0,0.0,-1,0.0,0.0,0,0.26,0.3757
22564,1564133163779,14,2.35,1.06,0.46,1.52,1.11,0.56,-0.51,0.5,9,-8,15,0.76,10140,24,90,41,54,926,751.0,465,465,60,123.0,258,1,400,312,195,0,0,765,-22796,-10212,751,-5.59,,,,,,,,,,,,
22584,1564133163799,14,2.35,1.06,0.46,1.52,1.1,0.49,-0.48,0.41,9,-11,14,0.69,9873,13,90,41,47,919,749.0,510,470,60,122.0,258,1,380,240,195,0,0,740,1037,5876,749,-5.59,,,,,,,,,,,,
22604,1564133163819,15,2.36,1.06,0.46,1.52,1.11,0.53,-0.53,0.3,8,-9,14,0.75,9566,12,90,41,43,914,748.0,542,470,60,122.0,106,1,350,223,80,0,0,725,-22796,-2574,748,-5.59,,,,,,,,,,,,
22624,1564133163839,14,2.35,1.06,0.45,1.52,1.1,0.6,-0.47,0.33,8,-10,13,0.76,9351,12,90,41,40,910,746.0,567,463,60,123.0,106,1,327,213,80,0,0,711,-2358,-31066,746,-5.59,,,,,,,,,,,,
22644,1564133163859,12,2.34,1.06,0.45,1.51,1.1,0.72,-0.35,0.35,7,-10,13,0.8,9141,12,90,41,38,892,744.0,581,463,60,123.0,106,1,317,205,80,0,0,707,-3580,-2830,744,-5.59,44.681099,10.024426,74.79,175.3,0,0.0,-1,0.0,0.0,0,0.26,0.3774
22664,1564133163879,11,2.34,1.05,0.45,1.52,1.1,0.75,-0.23,0.39,7,-8,12,0.79,8937,12,90,41,36,870,744.0,587,465,60,123.0,106,1,311,199,80,0,0,723,-31066,-30694,744,-5.59,,,,,,,,,,,,
22684,1564133163899,8,2.35,1.06,0.44,1.52,1.1,0.88,-0.23,0.4,7,-7,12,0.91,8811,12,90,41,34,851,742.0,586,469,60,124.0,106,1,305,195,80,0,0,701,-2826,-25858,739,-5.59,,,,,,,,,,,,
22704,1564133163919,8,2.35,1.06,0.44,1.52,1.11,1.0,-0.2,0.44,7,-7,11,1.02,8819,11,90,41,33,834,736.0,588,466,60,123.0,84,1,302,188,62,0,0,720,-3344,-4091,738,-5.59,,,,,,,,,,,,
22724,1564133163939,7,2.35,1.05,0.45,1.52,1.1,1.0,-0.2,0.48,6,-5,9,1.02,8798,12,90,41,32,826,732.0,587,464,60,122.0,84,1,300,110,62,0,0,709,-2918,204,732,-5.59,,,,,,,,,,,,
22744,1564133163959,6,2.34,1.05,0.45,1.52,1.1,1.02,-0.24,0.42,6,-5,10,1.05,8815,11,90,41,31,822,729.0,596,460,60,123.0,84,1,295,185,62,0,0,705,-2830,-388,727,-5.59,44.681118,10.024427,74.9,175.2,0,0.0,-1,0.0,0.0,0,0.26,0.3791
22764,1564133163979,5,2.35,1.06,0.45,1.51,1.1,0.92,-0.29,0.41,6,-3,9,0.97,8840,11,90,41,31,826,722.0,603,459,60,121.0,84,1,295,185,62,0,0,703,-2830,15647,722,-5.59,,,,,,,,,,,,
22784,1564133163991,4,2.35,1.05,0.45,1.51,1.1,0.88,-0.31,0.32,6,-4,9,0.93,8856,11,90,41,31,839,720.0,610,461,60,121.0,84,1,295,185,62,0,0,709,-2560,19188,720,-5.59,,,,,,,,,,,,
22804,1564133164011,7,2.34,1.05,0.44,1.52,1.1,0.78,-0.28,0.16,5,-4,10,0.82,8831,11,90,41,30,850,720.0,609,464,60,122.0,86,1,291,185,62,0,0,693,204,-10448,717,-5.59,,,,,,,,,,,,
22824,1564133164031,4,2.34,1.06,0.45,1.51,1.1,0.78,-0.26,0.09,5,-5,9,0.82,8877,11,90,41,30,859,717.0,610,467,60,124.0,86,1,291,185,62,0,0,696,6658,-3584,717,181.28,,,,,,,,,,,,
22844,1564133164051,3,2.35,1.05,0.45,1.51,1.11,0.78,-0.22,0.1,5,-5,9,0.81,8886,11,91,41,29,864,713.0,598,462,60,125.0,86,1,287,185,62,0,0,690,11069,14342,709,414.87,44.681137,10.024429,72.98,175.2,0,0.0,-1,0.0,0.0,0,0.26,0.3807
22864,1564133164071,5,2.34,1.06,0.44,1.52,1.1,0.85,-0.18,0.13,5,-5,9,0.87,8873,11,91,41,30,862,710.0,595,462,60,124.0,86,1,291,185,62,0,0,690,-3584,16118,710,181.28,,,,,,,,,,,,
22884,1564133164099,6,2.34,1.06,0.45,1.51,1.1,0.97,-0.18,0.19,5,-6,8,0.98,8869,11,91,41,30,864,703.0,592,465,60,123.0,86,1,291,185,62,0,0,680,16599,24845,704,-5.59,,,,,,,,,,,,
22904,1564133164119,6,2.36,1.05,0.45,1.51,1.1,1.07,-0.12,0.29,5,-6,8,1.08,8894,11,91,41,30,872,701.0,585,458,60,123.0,88,1,291,185,62,0,0,675,1780,-2826,699,181.28,,,,,,,,,,,,
22924,1564133164139,10,2.35,1.05,0.44,1.51,1.1,1.17,-0.16,0.36,4,-5,7,1.18,8907,11,90,41,30,882,693.0,586,461,60,122.0,88,1,291,281,62,0,0,671,6208,-26892,693,-5.59,,,,,,,,,,,,
22944,1564133164159,11,2.35,1.06,0.45,1.52,1.1,1.21,-0.15,0.34,4,-5,8,1.22,8920,11,90,41,30,892,687.0,591,461,60,121.0,88,1,291,261,62,0,0,668,-26562,31988,692,-5.59,44.681156,10.024432,71.24,175.1,0,0.0,-1,0.0,0.0,0,0.26,0.3824
22964,1564133164179,11,2.35,1.06,0.45,1.51,1.1,1.26,-0.21,0.37,4,-4,7,1.28,8924,11,90,41,30,906,687.0,598,460,60,120.0,88,1,291,239,62,0,0,662,-10346,-3038,686,-5.59,,,,,,,,,,,,
22984,1564133164199,11,2.35,1.06,0.44,1.51,1.09,1.2,-0.18,0.3,4,-3,8,1.22,8920,11,90,41,30,926,682.0,597,467,60,121.0,88,1,291,218,62,0,0,652,-26380,-30207,682,-5.59,,,,,,,,,,,,
23004,1564133164219,11,2.36,1.05,0.45,1.52,1.09,1.16,-0.23,0.22,5,-1,7,1.18,8894,11,90,41,30,942,678.0,609,467,60,120.0,97,1,291,197,66,0,0,658,-2830,-2345,678,-5.59,,,,,,,,,,,,
23024,1564133164239,8,2.35,1.05,0.45,1.51,1.09,1.08,-0.27,0.13,5,1,8,1.11,8865,11,90,41,30,951,673.0,614,463,60,121.0,97,1,291,185,66,0,0,647,-27404,11566,673,-5.59,,,,,,,,,,,,
23044,1564133164259,12,2.35,1.05,0.44,1.52,1.1,0.99,-0.24,0.0,5,1,8,1.01,8831,11,90,41,30,962,669.0,611,462,60,121.0,97,1,291,185,66,0,0,651,-26380,2024,669,-5.59,44.681171,10.024434,69.56,175.1,0,0.0,-1,0.0,0.0,0,0.27,0.3841
23064,1564133164279,10,2.34,1.05,0.44,1.51,1.09,1.01,-0.26,0.01,4,1,8,1.04,8778,11,90,41,30,983,665.0,610,465,60,122.0,97,1,291,185,66,0,0,645,-3038,11776,664,-5.59,,,,,,,,,,,,
23084,1564133164295,6,2.35,1.05,0.44,1.52,1.09,1.03,-0.24,0.07,4,2,7,1.06,8745,11,90,41,30,1001,662.0,601,465,60,122.0,97,1,291,185,66,0,0,644,31988,-3488,662,-5.59,,,,,,,,,,,,
23104,1564133164315,3,2.35,1.05,0.45,1.51,1.1,1.13,-0.24,0.13,4,2,7,1.16,8692,11,90,41,30,1011,659.0,598,460,60,122.0,97,1,291,185,66,0,0,644,-2830,-3584,659,-5.59,,,,,,,,,,,,
23124,1564133164335,2,2.35,1.05,0.45,1.51,1.1,1.08,-0.23,0.21,4,3,6,1.1,8668,11,90,41,30,1019,656.0,595,463,60,121.0,92,1,291,185,61,0,0,636,479,244,656,-5.59,,,,,,,,,,,,
23144,1564133164355,4,2.35,1.05,0.44,1.51,1.09,0.97,-0.25,0.16,4,4,6,1.01,8652,11,90,41,30,1020,653.0,591,463,60,121.0,92,1,291,185,61,0,0,640,11566,-3584,653,-5.59,44.681187,10.024438,67.1,175.1,0,0.0,-1,0.0,0.0,0,0.27,0.3857
23164,1564133164375,3,2.35,1.05,0.44,1.51,1.1,1.05,-0.24,0.1,4,3,6,1.08,8664,11,90,41,30,1021,652.0,592,462,60,122.0,92,1,291,185,61,0,0,633,-2830,244,652,-5.59,,,,,,,,,,,,
23184,1564133164399,0,2.35,1.05,0.44,1.51,1.1,1.12,-0.24,0.21,3,2,6,1.14,8644,11,90,41,30,1012,646.0,594,465,60,123.0,92,1,291,185,61,0,0,638,-3584,6208,646,-5.59,,,,,,,,,,,,
23204,1564133164419,1,2.34,1.04,0.44,1.52,1.09,1.12,-0.21,0.29,4,3,6,1.14,8620,11,90,41,30,1004,645.0,594,465,60,121.0,93,1,291,185,60,0,0,631,6208,16599,645,-5.59,,,,,,,,,,,,
23224,1564133164439,3,2.35,1.05,0.44,1.51,1.1,1.03,-0.19,0.22,4,5,6,1.04,8604,9,90,41,30,1003,645.0,600,463,60,121.0,93,1,291,185,60,0,0,633,-2580,966,645,-5.59,,,,,,,,,,,,
23244,1564133164459,2,2.34,1.05,0.45,1.51,1.09,1.05,-0.24,0.23,3,2,6,1.08,8565,9,90,41,30,1001,641.0,603,463,60,123.0,93,1,291,110,60,0,0,628,-4876,-16046,641,-5.59,44.681202,10.02444,65.04,175.2,0,0.0,-1,0.0,0.0,0,0.27,0.3874
23264,1564133164479,1,2.34,1.05,0.44,1.5,1.09,1.11,-0.24,0.34,3,3,6,1.14,8542,8,90,41,29,1010,637.0,605,466,60,122.0,93,1,287,185,60,0,0,632,-5120,966,637,-5.59,,,,,,,,,,,,
23284,1564133164499,1,2.34,1.05,0.45,1.51,1.1,1.04,-0.18,0.36,3,4,5,1.06,8507,8,90,41,29,1017,635.0,598,463,60,122.0,93,1,287,185,60,0,0,631,-14655,966,637,-5.59,,,,,,,,,,,,
23304,1564133164519,7,2.34,1.05,0.45,1.51,1.09,1.08,-0.2,0.28,3,2,6,1.1,8507,8,90,41,28,1034,630.0,595,462,60,123.0,92,1,282,185,59,0,0,622,-16046,-18357,630,-5.59,,,,,,,,,,,,
23324,1564133164539,10,2.35,1.05,0.45,1.51,1.1,1.17,-0.24,0.3,3,2,7,1.2,8465,8,90,41,28,1050,630.0,591,466,60,123.0,92,1,282,182,59,0,0,622,-18357,3395,628,-5.59,,,,,,,,,,,,
23344,1564133164559,13,2.35,1.05,0.45,1.51,1.09,1.1,-0.19,0.27,3,1,5,1.12,8381,7,90,41,28,1059,622.0,585,463,60,121.0,92,1,282,178,59,0,0,615,26688,-3446,622,-5.59,44.681221,10.024444,63.76,175.2,0,0.0,-1,0.0,0.0,0,0.27,0.3891
23364,1564133164579,15,2.34,1.06,0.45,1.51,1.1,1.18,-0.21,0.23,3,1,6,1.2,8278,7,90,41,27,1067,618.0,581,463,60,122.0,92,1,277,173,59,0,0,611,-3446,17740,618,-5.59,,,,,,,,,,,,
23384,1564133164598,18,2.35,1.05,0.45,1.51,1.1,1.15,-0.17,0.21,4,2,6,1.16,8166,7,90,41,27,1071,615.0,577,464,60,121.0,92,1,276,91,59,0,0,598,19621,-23055,615,-5.59,,,,,,,,,,,,
23404,1564133164618,18,2.37,1.06,0.45,1.52,1.1,1.23,-0.18,0.2,4,2,6,1.25,8123,7,90,41,26,1075,608.0,574,465,60,121.0,82,1,273,164,50,0,0,588,30227,23619,609,-5.59,,,,,,,,,,,,
23424,1564133164638,18,2.38,1.05,0.45,1.51,1.1,1.22,-0.18,0.16,4,1,6,1.24,8019,7,91,41,26,1073,606.0,569,466,60,120.0,82,1,272,158,50,0,0,583,-16179,-13043,606,-5.59,,,,,,,,,,,,
23444,1564133164658,19,2.38,1.05,0.44,1.51,1.1,1.25,-0.02,0.09,5,0,8,1.25,7841,7,90,41,26,1069,599.0,568,461,60,120.0,82,1,271,157,50,0,0,576,2048,30227,599,-5.59,44.681236,10.024447,62.32,175.2,0,0.0,-1,0.0,0.0,0,0.27,0.3907
23464,1564133164678,16,2.39,1.04,0.45,1.52,1.09,1.21,-0.07,0.1,6,2,9,1.21,7796,7,90,41,26,1046,600.0,562,463,60,122.0,82,1,270,157,50,0,0,525,-4035,1780,600,-5.59,,,,,,,,,,,,
23484,1564133164698,12,2.4,1.05,0.44,1.51,1.09,1.29,-0.16,0.13,6,3,8,1.3,7776,6,91,41,26,1022,594.0,567,466,60,124.0,82,1,270,157,50,0,0,461,-3210,-3414,594,-5.59,,,,,,,,,,,,
23504,1564133164718,13,2.4,1.05,0.44,1.51,1.1,1.35,-0.23,0.15,6,0,10,1.37,7928,6,91,41,26,1001,588.0,565,460,60,123.0,82,1,272,157,50,0,0,449,-3190,-3082,591,-5.59,,,,,,,,,,,,
23524,1564133164738,13,2.39,1.05,0.45,1.51,1.09,1.28,-0.27,0.13,7,-2,11,1.31,8023,6,90,41,26,982,588.0,560,465,60,120.0,79,1,272,158,47,0,0,425,12552,-6656,588,-5.59,,,,,,,,,,,,
23544,1564133164758,8,2.4,1.05,0.45,1.51,1.09,1.24,-0.33,0.15,8,0,12,1.28,8009,6,91,41,25,943,582.0,565,462,60,123.0,79,1,270,157,47,0,0,419,-18032,-3414,582,-5.59,44.681252,10.02445,60.7,175.2,0,0.0,-1,0.0,0.0,0,0.28,0.3924
23564,1564133164778,10,2.39,1.06,0.44,1.51,1.1,1.3,-0.32,0.13,10,2,12,1.34,8109,6,91,41,26,898,580.0,566,465,60,123.0,79,1,273,162,47,0,0,406,-22263,-1562,580,-5.59,,,,,,,,,,,,
23584,1564133164798,9,2.38,1.05,0.44,1.5,1.09,1.22,-0.3,0.05,11,2,15,1.26,8162,6,90,41,25,866,575.0,567,462,60,122.0,79,1,270,165,47,0,0,406,-22519,-6441,576,-5.59,,,,,,,,,,,,
23604,1564133164818,10,2.38,1.06,0.44,1.52,1.1,1.28,-0.28,0.03,12,1,16,1.31,8180,6,91,41,24,840,569.0,568,465,60,123.0,87,1,270,162,50,0,0,396,-8186,-6656,569,-5.59,,,,,,,,,,,,
23624,1564133164838,8,2.37,1.04,0.44,1.51,1.1,1.26,-0.31,0.02,13,2,16,1.3,8245,6,90,41,24,825,567.0,568,461,60,120.0,87,1,270,170,50,0,0,391,2104,10408,563,-5.59,,,,,,,,,,,,
23644,1564133164858,8,2.37,1.05,0.44,1.51,1.1,1.32,-0.38,-0.0,14,2,17,1.37,8325,6,91,41,24,813,561.0,577,466,60,122.0,87,1,270,170,50,0,0,371,2524,2109,559,-5.59,44.681263,10.024454,58.02,175.3,0,0.0,-1,0.0,0.0,0,0.28,0.3941
23664,1564133164878,5,2.35,1.05,0.44,1.51,1.09,1.3,-0.44,0.06,14,2,18,1.37,8333,6,90,41,24,815,554.0,581,465,60,122.0,87,1,270,170,50,0,0,360,-28648,-22519,554,-5.59,,,,,,,,,,,,
23684,1564133164898,4,2.34,1.05,0.44,1.52,1.09,1.27,-0.53,0.05,14,1,19,1.38,8281,6,91,41,23,829,552.0,583,466,60,123.0,87,1,270,163,50,0,0,330,-32248,-28648,552,-5.59,,,,,,,,,,,,
23704,1564133164918,1,2.34,1.05,0.44,1.51,1.1,1.22,-0.54,0.12,15,3,18,1.33,8162,6,91,41,24,843,548.0,582,466,60,122.0,89,1,270,161,49,0,0,333,-32248,-28648,547,-5.59,,,,,,,,,,,,
23724,1564133164938,3,2.32,1.05,0.44,1.51,1.09,1.23,-0.57,0.13,15,4,17,1.36,8088,6,91,41,24,858,543.0,578,465,60,123.0,89,1,270,157,49,0,0,345,-22519,6274,543,-5.59,,,,,,,,,,,,
23744,1564133164958,4,2.32,1.05,0.44,1.52,1.1,1.22,-0.58,0.12,14,3,16,1.35,8054,5,91,41,24,867,536.0,568,465,60,122.0,89,1,270,156,49,0,0,370,2524,6274,536,-5.59,44.681282,10.024459,55.51,175.3,0,0.0,-1,0.0,0.0,0,0.28,0.3957
23764,1564133164978,1,2.32,1.05,0.44,1.51,1.1,1.26,-0.54,0.18,12,2,15,1.38,8040,3,90,41,24,867,530.0,548,465,60,122.0,89,1,270,155,49,0,0,366,10408,15679,530,-5.59,,,,,,,,,,,,
23784,1564133164992,1,2.32,1.05,0.44,1.51,1.1,1.27,-0.53,0.18,9,1,14,1.38,8106,0,91,41,24,869,523.0,512,466,60,123.0,89,1,270,155,49,0,0,364,2524,-4054,523,-5.59,,,,,,,,,,,,
