"Interval"|"ms"|0|0|1,"Utc"|"ms"|0|0|1,"FB_p"|"bar"|0|300|50,"Volant"|"F"|0.0|300.0|50,"xFR"|"mm"|0.0|5.0|50,"xRR"|"mm"|0.0|5.0|50,"xFL"|"mm"|0.0|5.0|50,"xRL"|"mm"|0.0|5.0|50,"AccelX"|"G"|-3.0|3.0|50,"AccelY"|"G"|-3.0|3.0|50,"AccelZ"|"G"|-3.0|3.0|50,"Yaw"|"Deg/Sec"|-120|120|50,"Pitch"|"Deg/Sec"|-120|120|50,"Roll"|"Deg/Sec"|-120|120|50,"Gsum"|"G"|0.0|3.0|50,"RPM"|""|0|14000|50,"TPS"|"%"|0|100|50,"WaterTemp"|"?C"|0|300|50,"AirTemp"|"?C"|-1000|1000|50,"MAP"|"KPa"|0|255|50,"Lambda"|""|0|1024|50,"WheelSpeed"|"MPH"|0.0|150.0|50,"OilPress"|"PSI"|0|150|50,"FuelPress"|"PSI"|0|150|50,"OilTemp"|"F"|0|300|50,"Battery"|"Volts"|0.0|20.0|50,"FuelCon"|"L/h"|-1000|1000|50,"Gear"|""|0|10|50,"Advance"|"Deg"|-360|360|50,"Injection"|"ms"|-1000|1000|50,"FuelCon"|"L/100km"|-1000|1000|50,"LC_But_Pres"|""|-1000|1000|50,"LC_Active"|""|-1000|1000|50,"RD_Speed"|""|-1000|1000|50,"RUD_Speed"|""|-1000|1000|50,"LD_Speed"|""|-1000|1000|50,"LUD_Speed"|""|-1000|1000|50,"Ana1"|"bar"|-1000.0|1000.0|50,"Latitude"|"Degrees"|-180.0|180.0|10,"Longitude"|"Degrees"|-180.0|180.0|10,"Speed"|"kph"|0.0|150.0|10,"Altitude"|"m"|0.0|4000.0|10,"LapCount"|""|0|0|10,"LapTime"|"Min"|0.0|0.0|10,"Sector"|""|0|0|10,"SectorTime"|"Min"|0.0|0.0|10,"ElapsedTime"|"Min"|0.0|0.0|10,"CurrentLap"|""|0|0|10,"Distance"|"km"|0.0|0.0|10,"SessionTime"|"Min"|0.0|0.0|10
57963,1564154453995,0,2.05,0.88,0.54,1.29,1.01,0.77,0.65,0.32,-29,-2,-36,1.01,9484,26,98,45,37,1064,518.0,657,464,60,120.0,155,1,314,204,74,0,0,520,1341,11560,479,-5.59,,,,,,,,,,,,
57983,1564154454015,1,2.06,0.88,0.53,1.28,1.02,0.74,0.61,0.37,-27,-2,-35,0.95,9469,26,98,45,37,1063,515.0,661,460,60,122.0,155,1,314,204,74,0,0,518,-14,-21872,476,-5.59,,,,,,,,,,,,
58003,1564154454035,2,2.06,0.88,0.54,1.28,1.01,0.85,0.4,0.51,-27,-1,-38,0.94,9488,26,98,45,37,1060,513.0,653,464,60,120.0,155,1,314,204,74,0,0,517,26178,505,477,-5.59,,,,,,,,,,,,
58023,1564154454055,4,2.05,0.88,0.54,1.29,1.01,0.8,0.56,0.38,-27,-4,-38,0.98,9484,26,98,45,37,1058,513.0,657,466,60,122.0,155,1,314,204,74,0,0,517,26178,-6441,476,-5.59,,,,,,,,,,,,
58043,1564154454075,1,2.05,0.88,0.53,1.29,1.02,0.81,0.71,0.31,-27,-2,-35,1.07,9426,26,98,45,37,1054,512.0,651,457,60,120.0,155,1,314,204,74,0,0,517,17136,-1562,479,-5.59,44.681374,10.024628,48.77,180.4,0,0.0,-1,0.0,0.0,0,0.14,0.9674
58063,1564154454103,2,2.05,0.88,0.53,1.28,1.02,0.87,0.44,0.47,-27,-1,-35,0.97,9389,26,98,45,37,1049,515.0,660,463,60,121.0,152,1,314,204,73,0,0,518,-14,505,479,-5.59,,,,,,,,,,,,
58083,1564154454123,2,2.06,0.88,0.53,1.28,1.02,0.89,0.49,0.47,-28,-2,-38,1.01,9370,26,98,45,37,1042,515.0,647,468,60,122.0,152,1,314,204,73,0,0,519,-14,-6656,477,-5.59,,,,,,,,,,,,
58103,1564154454143,-0,2.05,0.89,0.54,1.28,1.01,0.8,0.64,0.37,-27,-2,-38,1.03,9360,26,98,45,37,1041,514.0,640,471,60,121.0,152,1,314,204,73,0,0,521,-3482,-28648,476,-5.59,,,,,,,,,,,,
58123,1564154454163,0,2.06,0.88,0.53,1.29,1.01,0.77,0.66,0.33,-27,-1,-36,1.01,9403,26,98,45,37,1039,516.0,647,462,60,122.0,152,1,314,204,73,0,0,519,16383,-6528,475,-5.59,,,,,,,,,,,,
58143,1564154454183,1,2.06,0.89,0.53,1.29,1.02,0.88,0.43,0.5,-27,0,-37,0.98,9412,26,98,45,37,1037,517.0,652,463,60,122.0,152,1,314,204,73,0,0,521,16383,-1562,476,-5.59,44.681362,10.024613,48.93,180.3,0,0.0,-1,0.0,0.0,0,0.14,0.969
58163,1564154454203,2,2.06,0.88,0.54,1.28,1.02,0.99,0.58,0.52,-29,-2,-39,1.15,9417,26,98,45,37,1036,518.0,653,466,60,122.0,151,1,314,204,72,0,0,516,1341,-10483,477,-5.59,,,,,,,,,,,,
58183,1564154454223,1,2.06,0.88,0.53,1.29,1.01,0.81,0.73,0.38,-29,-0,-38,1.09,9389,26,98,45,37,1035,516.0,657,464,60,121.0,151,1,314,204,72,0,0,519,16383,-899,475,-5.59,,,,,,,,,,,,
58203,1564154454243,0,2.06,0.88,0.54,1.28,1.01,0.79,0.62,0.37,-28,0,-36,1.01,9407,26,98,45,37,1035,514.0,671,470,60,121.0,151,1,314,204,72,0,0,517,-3482,2212,473,-5.59,,,,,,,,,,,,
58223,1564154454263,2,2.06,0.88,0.53,1.28,1.02,0.9,0.47,0.53,-29,-1,-40,1.02,9389,26,98,45,37,1035,512.0,651,462,60,122.0,151,1,314,204,72,0,0,518,15679,-6528,473,-5.59,,,,,,,,,,,,
58243,1564154454283,4,2.05,0.88,0.54,1.29,1.01,0.93,0.62,0.45,-30,-0,-41,1.12,9407,26,98,45,37,1035,516.0,659,463,60,122.0,151,1,314,204,72,0,0,520,26178,-32768,473,-5.59,44.681358,10.0246,48.82,180.2,0,0.0,-1,0.0,0.0,0,0.14,0.9707
58263,1564154454303,0,2.06,0.88,0.53,1.29,1.01,0.7,0.76,0.26,-29,2,-39,1.03,9412,26,98,45,37,1036,514.0,667,465,60,121.0,152,1,314,204,72,0,0,516,-3482,-6441,474,-5.59,,,,,,,,,,,,
58283,1564154454323,2,2.06,0.88,0.53,1.28,1.02,0.8,0.63,0.31,-29,2,-39,1.02,9412,26,98,45,37,1037,516.0,659,465,60,122.0,152,1,314,204,72,0,0,518,-3482,-23367,474,-5.59,,,,,,,,,,,,
58303,1564154454343,2,2.07,0.88,0.54,1.28,1.02,0.92,0.4,0.48,-30,2,-41,1.0,9384,26,98,45,37,1038,512.0,648,470,60,122.0,152,1,314,204,72,0,0,515,26178,-6441,473,-5.59,,,,,,,,,,,,
58323,1564154454363,3,2.06,0.89,0.54,1.29,1.02,0.9,0.56,0.41,-30,2,-41,1.06,9360,26,98,45,37,1039,513.0,656,465,60,122.0,152,1,314,204,72,0,0,515,26178,-6441,474,-5.59,,,,,,,,,,,,
58343,1564154454383,0,2.07,0.88,0.54,1.29,1.01,0.69,0.71,0.2,-29,0,-39,0.99,9309,26,98,45,37,1039,513.0,647,461,60,121.0,152,1,314,204,72,0,0,510,26178,-1818,475,-5.59,44.681347,10.024589,48.59,180.1,0,0.0,-1,0.0,0.0,0,0.14,0.9724
58363,1564154454403,0,2.07,0.88,0.54,1.29,1.02,0.68,0.63,0.22,-29,-0,-37,0.93,9295,26,98,45,37,1039,509.0,640,467,60,122.0,149,1,314,203,71,0,0,514,-4054,3,472,-5.59,,,,,,,,,,,,
58383,1564154454423,3,2.09,0.89,0.54,1.28,1.01,0.8,0.37,0.39,-29,0,-38,0.88,9295,26,98,45,37,1039,510.0,650,463,60,121.0,149,1,314,203,71,0,0,510,-4054,3580,472,-5.59,,,,,,,,,,,,
58403,1564154454443,4,2.09,0.88,0.54,1.29,1.02,0.9,0.43,0.49,-30,-1,-40,1.0,9305,26,98,45,37,1039,510.0,640,465,60,122.0,149,1,314,203,71,0,0,513,-4054,16648,471,-5.59,,,,,,,,,,,,
58423,1564154454463,8,2.1,0.88,0.53,1.29,1.02,0.93,0.59,0.43,-31,0,-40,1.1,9291,26,98,45,37,1038,507.0,657,468,60,120.0,149,1,314,203,71,0,0,504,-21872,16648,472,-5.59,,,,,,,,,,,,
58443,1564154454483,6,2.1,0.88,0.54,1.29,1.01,0.68,0.73,0.18,-30,-0,-38,1.0,9282,26,98,45,37,1038,508.0,657,466,60,121.0,149,1,314,203,71,0,0,505,-3414,32033,468,-5.59,44.681339,10.024578,48.64,180.1,0,0.0,-1,0.0,0.0,0,0.14,0.974
58463,1564154454504,7,2.11,0.88,0.54,1.29,1.02,0.6,0.86,0.04,-29,0,-36,1.05,9236,26,98,45,37,1039,504.0,655,463,60,121.0,150,1,314,202,70,0,0,504,-32248,505,467,-5.59,,,,,,,,,,,,
58483,1564154454524,9,2.11,0.89,0.54,1.28,1.02,0.68,0.6,0.18,-28,3,-35,0.91,9209,26,98,45,37,1047,501.0,652,466,60,122.0,150,1,314,202,70,0,0,509,11560,8488,465,-5.59,,,,,,,,,,,,
58503,1564154454544,12,2.11,0.89,0.54,1.3,1.02,0.81,0.36,0.29,-28,4,-36,0.89,9204,26,98,45,37,1051,500.0,651,469,60,122.0,150,1,314,202,70,0,0,504,11560,-1923,462,-5.59,,,,,,,,,,,,
58523,1564154454564,12,2.11,0.89,0.53,1.3,1.02,0.93,0.13,0.46,-29,2,-38,0.94,9177,26,98,45,37,1059,499.0,648,465,60,122.0,150,1,314,202,70,0,0,501,2524,3576,459,-5.59,,,,,,,,,,,,
58543,1564154454584,12,2.12,0.89,0.53,1.3,1.02,1.04,-0.0,0.57,-30,1,-39,1.04,9115,26,98,45,37,1066,496.0,637,468,60,122.0,150,1,314,201,70,0,0,502,3,-23367,455,-5.59,44.681324,10.024569,47.89,180.0,0,0.0,-1,0.0,0.0,0,0.15,0.9757
58563,1564154454604,14,2.11,0.88,0.53,1.29,1.02,1.14,-0.07,0.7,-31,-0,-40,1.14,9023,26,98,45,38,1073,493.0,635,466,60,122.0,149,1,317,204,68,0,0,493,-6528,-9203,454,-5.59,,,,,,,,,,,,
58583,1564154454624,14,2.12,0.89,0.54,1.29,1.02,1.23,-0.23,0.76,-32,-1,-40,1.25,8975,26,98,45,38,1081,490.0,640,465,60,121.0,149,1,317,204,68,0,0,495,-1818,30272,449,-5.59,,,,,,,,,,,,
58603,1564154454644,14,2.12,0.89,0.54,1.3,1.02,1.31,-0.4,0.86,-32,-1,-41,1.37,8920,26,99,45,38,1083,484.0,630,467,60,122.0,149,1,317,204,68,0,0,487,-10483,6193,448,-5.59,,,,,,,,,,,,
58623,1564154454664,16,2.11,0.89,0.54,1.3,1.02,1.38,-0.54,0.81,-32,-1,-40,1.48,8865,26,99,45,38,1091,482.0,635,464,60,122.0,149,1,317,204,68,0,0,486,-10483,2211,445,-5.59,,,,,,,,,,,,
58643,1564154454684,15,2.11,0.89,0.54,1.3,1.01,1.44,-0.61,0.75,-31,1,-39,1.57,8827,26,99,45,38,1103,481.0,637,466,60,122.0,149,1,317,204,68,0,0,483,32033,3571,440,-5.59,44.681316,10.02456,48.15,180.0,0,0.0,-1,0.0,0.0,0,0.15,0.9774
58663,1564154454704,17,2.12,0.89,0.54,1.31,1.02,1.32,-0.35,0.52,-30,2,-38,1.37,8794,26,99,45,38,1112,477.0,630,465,60,122.0,151,1,317,204,67,0,0,485,2212,-3267,440,-5.59,,,,,,,,,,,,
58683,1564154454724,18,2.11,0.89,0.54,1.3,1.02,1.15,-0.11,0.39,-29,3,-36,1.15,8741,26,99,45,39,1124,477.0,650,465,60,120.0,151,1,320,204,67,0,0,478,2212,-23623,435,-5.59,,,,,,,,,,,,
58703,1564154454744,18,2.12,0.89,0.54,1.3,1.02,1.15,0.09,0.39,-29,3,-37,1.15,8680,26,99,45,38,1133,472.0,637,466,60,120.0,151,1,317,208,67,0,0,478,-1923,2524,430,-5.59,,,,,,,,,,,,
58723,1564154454764,17,2.11,0.89,0.54,1.3,1.02,1.23,0.04,0.52,-29,1,-38,1.23,8656,26,99,45,39,1149,467.0,649,468,60,122.0,151,1,320,208,67,0,0,465,-3210,2524,426,-5.59,,,,,,,,,,,,
58743,1564154454784,17,2.12,0.89,0.54,1.31,1.02,1.25,0.03,0.44,-28,1,-36,1.25,8608,25,99,45,39,1167,464.0,638,466,60,121.0,151,1,320,208,67,0,0,465,16408,-6387,418,-5.59,44.681301,10.024553,47.01,179.9,0,0.0,-1,0.0,0.0,0,0.15,0.979
58763,1564154454802,19,2.12,0.89,0.54,1.31,1.02,1.17,0.23,0.31,-27,1,-34,1.19,8573,25,99,45,39,1172,461.0,620,465,60,121.0,162,1,320,208,68,0,0,463,2211,-9160,420,-5.59,,,,,,,,,,,,
58783,1564154454822,17,2.12,0.89,0.54,1.3,1.03,1.2,0.32,0.43,-28,-0,-35,1.24,8507,25,99,45,40,1179,461.0,638,467,60,120.0,162,1,326,208,68,0,0,463,2211,10305,418,-5.59,,,,,,,,,,,,
58803,1564154454842,17,2.12,0.89,0.54,1.31,1.02,1.2,0.26,0.43,-27,-0,-35,1.23,8488,25,99,45,40,1180,456.0,617,467,60,122.0,162,1,325,208,68,0,0,465,14488,8488,416,-5.59,,,,,,,,,,,,
58823,1564154454862,19,2.13,0.89,0.54,1.31,1.03,1.15,0.43,0.27,-27,1,-33,1.23,8411,25,99,45,40,1181,454.0,634,466,60,121.0,162,1,324,208,68,0,0,454,2524,16648,413,-5.59,,,,,,,,,,,,
58843,1564154454882,17,2.14,0.89,0.54,1.3,1.03,1.22,0.28,0.43,-27,1,-35,1.25,8340,25,99,45,41,1175,450.0,616,466,60,121.0,162,1,330,208,68,0,0,454,-3267,23400,409,-5.59,44.681294,10.024549,45.83,179.9,0,0.0,-1,0.0,0.0,0,0.15,0.9807
58863,1564154454904,19,2.13,0.89,0.54,1.31,1.02,1.12,0.45,0.34,-26,0,-33,1.21,8292,25,99,45,41,1171,445.0,630,465,60,122.0,162,1,328,209,66,0,0,450,2131,23400,407,-5.59,,,,,,,,,,,,
58883,1564154454924,18,2.12,0.9,0.54,1.31,1.02,1.21,0.36,0.51,-27,1,-34,1.26,8300,25,99,45,42,1149,443.0,637,466,60,120.0,162,1,335,209,66,0,0,443,-18341,-7939,406,-5.59,,,,,,,,,,,,
58903,1564154454944,20,2.13,0.89,0.54,1.31,1.02,1.11,0.52,0.35,-26,1,-33,1.23,8259,25,99,45,42,1134,440.0,630,465,60,120.0,162,1,335,211,66,0,0,445,20625,20625,405,-5.59,,,,,,,,,,,,
58923,1564154454964,16,2.13,0.89,0.54,1.31,1.02,1.19,0.47,0.4,-25,1,-33,1.27,8198,25,99,45,43,1116,437.0,630,467,60,120.0,162,1,342,210,66,0,0,441,-768,243,401,-5.59,,,,,,,,,,,,
58943,1564154454984,18,2.13,0.89,0.54,1.31,1.02,1.06,0.62,0.24,-24,1,-32,1.23,8162,25,99,45,43,1105,432.0,631,465,60,122.0,162,1,341,212,66,0,0,436,-3322,-3322,396,-5.59,44.681282,10.024544,44.14,179.8,0,0.0,-1,0.0,0.0,0,0.15,0.9824
58963,1564154454994,18,2.13,0.9,0.54,1.31,1.02,1.1,0.57,0.25,-24,2,-33,1.24,8155,25,99,45,43,1089,429.0,618,465,60,122.0,164,1,341,212,65,0,0,432,3635,-3856,394,-5.59,,,,,,,,,,,,
58983,1564154455014,19,2.13,0.9,0.54,1.31,1.02,1.15,0.67,0.22,-24,2,-32,1.33,8074,25,99,45,44,1079,428.0,614,468,60,121.0,164,1,347,213,65,0,0,430,-3314,-3414,401,-5.59,,,,,,,,,,,,
59003,1564154455034,20,2.13,0.89,0.54,1.3,1.02,1.01,0.8,0.03,-23,0,-31,1.29,7955,25,99,45,44,1074,427.0,598,466,60,122.0,164,1,347,212,65,0,0,429,31796,3826,393,-5.59,,,,,,,,,,,,
59023,1564154455054,19,2.14,0.9,0.53,1.31,1.03,0.98,0.73,0.11,-22,1,-31,1.23,7918,25,99,45,45,1075,423.0,591,462,60,121.0,164,1,355,212,65,0,0,426,3826,-21944,388,-5.59,,,,,,,,,,,,
59043,1564154455074,15,2.14,0.89,0.54,1.31,1.02,1.04,0.62,0.28,-22,3,-32,1.21,7845,25,99,45,46,1063,422.0,597,467,60,120.0,164,1,362,215,65,0,0,426,-3414,-26615,390,-5.59,44.681271,10.024541,42.82,179.8,0,0.0,-1,0.0,0.0,0,0.15,0.984
59063,1564154455100,13,2.15,0.89,0.54,1.32,1.02,1.11,0.59,0.28,-22,2,-32,1.26,7757,25,99,45,47,1054,420.0,593,466,60,120.0,161,1,370,215,63,0,0,428,-3414,-4059,384,-5.59,,,,,,,,,,,,
59083,1564154455120,14,2.16,0.89,0.54,1.31,1.02,1.15,0.63,0.3,-22,-0,-32,1.32,7738,25,99,45,47,1042,418.0,580,463,60,121.0,161,1,370,217,63,0,0,418,-3414,-9166,385,-5.59,,,,,,,,,,,,
59103,1564154455140,13,2.17,0.89,0.53,1.31,1.03,1.12,0.65,0.24,-22,-1,-31,1.29,7668,25,99,45,47,1029,418.0,577,463,60,121.0,161,1,370,217,63,0,0,415,-3414,2524,387,-5.59,,,,,,,,,,,,
59123,1564154455160,10,2.18,0.89,0.54,1.31,1.02,0.98,0.78,0.13,-21,0,-29,1.26,7665,25,99,45,48,1012,415.0,585,464,60,122.0,161,1,372,222,63,0,0,419,-26615,-3968,390,-5.59,,,,,,,,,,,,
59143,1564154455180,9,2.2,0.89,0.54,1.31,1.03,0.8,0.82,0.13,-20,2,-29,1.14,7597,25,99,45,48,1001,413.0,582,463,60,122.0,161,1,372,222,63,0,0,414,-9166,-26615,388,-5.59,44.681263,10.024539,41.34,179.7,0,0.0,-1,0.0,0.0,0,0.15,0.9857
59163,1564154455204,6,2.2,0.89,0.54,1.31,1.02,0.68,0.88,0.06,-18,3,-28,1.11,7594,25,99,45,49,993,412.0,580,466,60,121.0,164,1,375,228,64,0,0,415,13040,-8151,390,-5.59,,,,,,,,,,,,
59183,1564154455224,5,2.23,0.9,0.54,1.31,1.02,0.59,0.79,0.11,-17,4,-27,0.98,7548,25,99,45,49,991,411.0,577,466,60,122.0,164,1,375,228,64,0,0,414,-4059,11545,394,-5.59,,,,,,,,,,,,
59203,1564154455244,4,2.25,0.9,0.54,1.3,1.02,0.48,0.74,0.11,-15,4,-25,0.88,7572,25,99,45,50,989,412.0,586,466,60,121.0,164,1,378,228,64,0,0,410,13040,11545,394,-5.59,,,,,,,,,,,,
59223,1564154455264,4,2.27,0.89,0.53,1.31,1.02,0.46,0.62,0.2,-14,6,-25,0.78,7575,25,99,45,50,987,410.0,585,467,60,121.0,164,1,378,233,64,0,0,412,9517,1504,396,-5.59,,,,,,,,,,,,
59243,1564154455284,0,2.3,0.89,0.53,1.31,1.02,0.53,0.54,0.28,-12,7,-24,0.76,7603,25,99,45,50,986,407.0,591,466,60,120.0,164,1,378,233,64,0,0,409,-26615,1504,398,-5.59,44.681248,10.024539,40.06,179.7,0,0.0,-1,0.0,0.0,0,0.15,0.9874
59263,1564154455304,-1,2.31,0.89,0.54,1.31,1.02,0.62,0.38,0.39,-11,9,-22,0.73,7618,25,99,45,50,986,408.0,576,466,60,122.0,168,1,378,233,67,0,0,409,10392,10541,399,-5.59,,,,,,,,,,,,
59283,1564154455324,-0,2.33,0.9,0.54,1.3,1.02,0.7,0.22,0.55,-10,9,-20,0.74,7640,25,99,45,50,991,406.0,576,463,60,120.0,168,1,378,233,67,0,0,410,-9211,2524,402,-5.59,,,,,,,,,,,,
59303,1564154455344,-1,2.36,0.89,0.54,1.31,1.03,0.83,0.2,0.64,-9,8,-19,0.86,7674,25,99,45,50,1005,404.0,573,465,60,121.0,168,1,378,233,67,0,0,408,-8151,9517,403,-5.59,,,,,,,,,,,,
59323,1564154455364,1,2.38,0.89,0.54,1.31,1.02,0.91,0.11,0.7,-9,6,-18,0.92,7649,25,99,45,50,1017,405.0,553,463,60,122.0,168,1,378,233,67,0,0,407,-9211,-9166,406,-5.59,,,,,,,,,,,,
59343,1564154455384,2,2.39,0.9,0.54,1.31,1.03,0.86,0.17,0.57,-8,5,-14,0.87,7709,25,99,45,50,1025,409.0,576,465,60,121.0,168,1,378,234,67,0,0,409,1504,-4059,409,-5.59,44.68124,10.024538,39.48,179.6,0,0.0,-1,0.0,0.0,0,0.16,0.989
59363,1564154455404,2,2.41,0.9,0.53,1.31,1.02,0.75,0.23,0.5,-6,4,-11,0.79,7684,25,99,45,50,1043,408.0,567,461,60,122.0,165,1,378,233,67,0,0,409,1504,13040,408,-5.59,,,,,,,,,,,,
59383,1564154455424,3,2.43,0.9,0.55,1.32,1.03,0.65,0.19,0.47,-4,4,-11,0.68,7693,25,99,45,49,1056,410.0,577,462,60,121.0,165,1,375,233,67,0,0,407,1504,-26615,410,-5.59,,,,,,,,,,,,
59403,1564154455444,-4,2.45,0.9,0.54,1.31,1.04,0.6,0.16,0.42,-2,4,-8,0.62,7681,25,99,45,50,1072,411.0,583,466,60,121.0,165,1,378,233,67,0,0,408,10541,-3414,411,-5.59,,,,,,,,,,,,
59423,1564154455464,-2,2.47,0.9,0.54,1.32,1.04,0.66,-0.01,0.58,-1,3,-6,0.66,7719,25,99,45,50,1077,414.0,603,464,60,120.0,165,1,378,234,67,0,0,410,11545,-21944,414,-5.59,,,,,,,,,,,,
59443,1564154455484,0,2.48,0.91,0.55,1.32,1.03,0.75,-0.14,0.67,0,2,-4,0.76,7776,25,99,45,49,1079,415.0,594,466,60,120.0,165,1,375,234,67,0,0,407,6512,-21944,414,-5.59,44.681229,10.024539,39.35,179.6,0,0.0,-1,0.0,0.0,0,0.16,0.9907
59463,1564154455503,-0,2.49,0.9,0.54,1.32,1.03,0.75,-0.15,0.63,2,-0,-3,0.76,7741,25,99,45,50,1077,417.0,593,466,60,120.0,160,1,378,234,67,0,0,409,10541,-4082,417,-5.59,,,,,,,,,,,,
59483,1564154455523,2,2.51,0.91,0.54,1.32,1.04,0.75,-0.16,0.58,3,-1,0,0.76,7760,25,99,45,49,1076,418.0,597,467,60,122.0,160,1,375,234,67,0,0,415,11545,7154,418,-5.59,,,,,,,,,,,,
59503,1564154455543,3,2.53,0.91,0.54,1.32,1.03,0.7,-0.19,0.51,5,-0,4,0.72,7786,25,99,45,49,1069,421.0,587,465,60,122.0,160,1,375,229,67,0,0,410,11545,-8165,421,-5.59,,,,,,,,,,,,
59523,1564154455563,-1,2.54,0.91,0.55,1.31,1.04,0.72,-0.24,0.6,7,1,5,0.76,7841,25,99,45,49,1061,423.0,598,466,60,120.0,160,1,375,229,67,0,0,407,28696,13552,423,-5.59,,,,,,,,,,,,
59543,1564154455583,1,2.55,0.91,0.55,1.32,1.04,0.83,-0.3,0.65,8,1,6,0.88,7888,25,99,45,49,1057,425.0,585,470,60,120.0,160,1,375,229,67,0,0,408,-3968,-3856,425,-5.59,44.681221,10.024539,40.74,179.6,0,0.0,-1,0.0,0.0,0,0.16,0.9924
59563,1564154455601,2,2.57,0.91,0.55,1.32,1.03,0.82,-0.32,0.61,10,-1,9,0.88,7888,25,99,45,49,1052,425.0,588,465,60,120.0,160,1,375,229,68,0,0,412,-3968,1779,425,-5.59,,,,,,,,,,,,
59583,1564154455621,3,2.59,0.91,0.55,1.32,1.04,0.76,-0.38,0.57,12,1,10,0.85,7921,25,99,45,48,1054,428.0,578,466,60,121.0,160,1,372,223,68,0,0,417,-3968,-3314,427,-5.59,,,,,,,,,,,,
59603,1564154455641,-1,2.59,0.91,0.54,1.32,1.03,0.78,-0.46,0.65,13,1,11,0.9,7928,25,99,45,49,1055,428.0,591,470,60,120.0,160,1,375,223,68,0,0,416,-3968,19477,428,-5.59,,,,,,,,,,,,
59623,1564154455661,1,2.6,0.91,0.54,1.33,1.03,0.83,-0.51,0.66,14,1,14,0.98,7928,25,99,45,48,1057,430.0,588,465,60,121.0,160,1,372,223,68,0,0,419,6384,1779,430,-5.59,,,,,,,,,,,,
59643,1564154455681,1,2.6,0.9,0.54,1.31,1.03,0.75,-0.49,0.58,16,1,17,0.89,7975,25,99,45,48,1059,429.0,584,465,60,121.0,160,1,372,223,68,0,0,416,6384,1779,429,-5.59,44.68121,10.024539,40.74,179.6,0,0.0,-1,0.0,0.0,0,0.16,0.994
59663,1564154455699,-0,2.6,0.91,0.54,1.32,1.04,0.73,-0.49,0.64,17,2,16,0.88,7951,25,100,45,48,1060,431.0,598,469,60,120.0,155,1,372,217,67,0,0,413,28696,-7939,431,-5.59,,,,,,,,,,,,
59683,1564154455719,-1,2.62,0.91,0.54,1.32,1.03,0.83,-0.56,0.7,18,2,19,1.0,7944,25,100,45,48,1060,431.0,609,468,60,121.0,155,1,372,217,67,0,0,419,28696,19477,431,-5.59,,,,,,,,,,,,
59703,1564154455739,2,2.62,0.91,0.54,1.32,1.03,0.78,-0.57,0.65,19,0,21,0.97,7968,25,99,45,47,1056,433.0,602,463,60,120.0,155,1,370,217,67,0,0,425,6384,-3314,433,-5.59,,,,,,,,,,,,
59723,1564154455759,-1,2.62,0.9,0.55,1.32,1.04,0.72,-0.64,0.7,20,0,20,0.96,7938,25,100,45,47,1052,432.0,603,466,60,120.0,155,1,370,217,67,0,0,419,6384,5600,431,-5.59,,,,,,,,,,,,
59743,1564154455779,-0,2.62,0.91,0.54,1.32,1.03,0.78,-0.69,0.76,21,1,22,1.04,7968,25,99,45,47,1046,433.0,618,464,60,119.0,155,1,370,217,67,0,0,411,6384,-28332,433,-5.59,44.681198,10.024538,41.33,179.5,0,0.0,-1,0.0,0.0,0,0.16,0.9957
59763,1564154455801,1,2.61,0.91,0.55,1.32,1.03,0.75,-0.69,0.75,21,1,25,1.02,7999,25,99,45,47,1043,433.0,613,465,60,119.0,149,1,370,217,65,0,0,421,6384,-28332,433,-5.59,,,,,,,,,,,,
59783,1564154455821,0,2.62,0.91,0.55,1.32,1.03,0.66,-0.71,0.73,22,1,25,0.97,7985,25,100,45,46,1041,434.0,573,463,60,122.0,149,1,362,215,65,0,0,422,6384,19477,434,-5.59,,,,,,,,,,,,
59803,1564154455841,1,2.62,0.9,0.54,1.32,1.04,0.71,-0.76,0.77,23,2,26,1.05,8009,25,99,45,47,1040,433.0,598,467,60,119.0,149,1,370,217,65,0,0,409,6384,21580,433,-5.59,,,,,,,,,,,,
59823,1564154455861,1,2.62,0.91,0.55,1.32,1.03,0.66,-0.75,0.71,24,2,28,1.0,8036,23,100,45,46,1044,435.0,582,463,60,122.0,149,1,362,215,65,0,0,421,6512,5600,434,-5.59,,,,,,,,,,,,
59843,1564154455881,0,2.61,0.9,0.54,1.32,1.03,0.64,-0.77,0.73,25,2,28,1.0,7988,20,100,45,45,1047,436.0,592,468,60,121.0,149,1,355,213,65,0,0,436,-3968,5600,436,-5.59,44.681187,10.024536,41.4,179.5,0,0.0,-1,0.0,0.0,0,0.16,0.9974
59863,1564154455901,1,2.61,0.91,0.55,1.32,1.04,0.69,-0.8,0.78,26,2,29,1.06,8040,18,99,45,44,1050,437.0,595,468,60,121.0,148,1,347,213,65,0,0,422,28696,20625,437,-5.59,,,,,,,,,,,,
59883,1564154455921,2,2.59,0.92,0.54,1.32,1.03,0.66,-0.8,0.7,26,3,30,1.04,8088,14,100,45,41,1054,436.0,595,463,60,121.0,148,1,325,209,65,0,0,409,-3968,-18341,438,-5.59,,,,,,,,,,,,
59903,1564154455941,-1,2.59,0.91,0.54,1.32,1.04,0.68,-0.85,0.77,27,4,30,1.09,8043,14,100,45,40,1054,437.0,603,467,60,121.0,148,1,318,206,65,0,0,414,-3968,19477,437,-5.59,,,,,,,,,,,,
59923,1564154455961,1,2.58,0.91,0.55,1.32,1.03,0.76,-0.89,0.83,27,3,30,1.17,7982,13,100,45,39,1054,435.0,615,465,60,120.0,148,1,310,199,65,0,0,422,28696,21580,435,-5.59,,,,,,,,,,,,
59943,1564154455981,2,2.55,0.91,0.54,1.32,1.04,0.69,-0.86,0.69,27,3,31,1.1,7955,12,99,45,37,1055,435.0,592,465,60,121.0,148,1,304,193,65,0,0,423,11545,-7939,438,-5.59,44.681179,10.024533,41.59,179.5,0,0.0,-1,0.0,0.0,0,0.16,0.999
59963,1564154455991,3,2.54,0.91,0.55,1.32,1.03,0.66,-0.9,0.71,27,4,30,1.12,7871,11,100,45,36,1056,436.0,586,466,60,121.0,131,1,301,187,57,0,0,412,11545,19477,436,-5.59,,,,,,,,,,,,
59983,1564154456011,-0,2.52,0.91,0.55,1.32,1.04,0.74,-0.96,0.77,26,4,31,1.21,7805,11,100,45,36,1057,434.0,607,466,60,120.0,131,1,301,181,57,0,0,408,10541,-7939,434,-5.59,,,,,,,,,,,,
60003,1564154456031,1,2.49,0.9,0.55,1.31,1.04,0.86,-0.95,0.79,25,3,32,1.28,7786,11,100,45,35,1059,433.0,606,466,60,120.0,131,1,298,181,57,0,0,402,6512,5600,433,-5.59,,,,,,,,,,,,
60023,1564154456051,1,2.46,0.9,0.55,1.31,1.04,0.92,-0.86,0.74,24,0,31,1.26,7693,11,100,45,34,1055,432.0,580,465,60,121.0,131,1,295,175,57,0,0,405,6512,-7939,432,-5.59,,,,,,,,,,,,
60043,1564154456071,0,2.43,0.9,0.55,1.31,1.03,0.91,-0.79,0.68,22,-0,31,1.21,7640,11,99,45,34,1049,431.0,590,465,60,120.0,131,1,295,175,57,0,0,407,1504,243,431,-5.59,44.681168,10.024529,41.75,179.5,0,0.0,-1,0.0,0.0,0,0.16,1.0007
60063,1564154456101,2,2.39,0.9,0.54,1.31,1.03,0.88,-0.66,0.59,21,-1,31,1.1,7566,11,100,45,34,1042,428.0,581,466,60,121.0,117,1,295,175,50,0,0,408,-9211,3635,427,-5.59,,,,,,,,,,,,
60083,1564154456121,1,2.37,0.89,0.54,1.3,1.01,0.81,-0.56,0.54,19,-3,29,0.99,7551,11,100,45,34,1032,424.0,570,464,60,121.0,117,1,295,175,50,0,0,406,-26615,3826,424,-5.59,,,,,,,,,,,,
60103,1564154456141,4,2.35,0.87,0.52,1.28,1.0,0.71,-0.5,0.43,17,-5,27,0.87,7476,11,100,45,33,1018,420.0,550,466,60,121.0,117,1,292,175,50,0,0,406,-26615,-3856,420,-5.59,,,,,,,,,,,,
60123,1564154456161,4,2.32,0.85,0.51,1.25,0.99,0.76,-0.4,0.4,15,-5,26,0.86,7437,11,100,45,34,993,417.0,561,463,60,120.0,117,1,295,175,50,0,0,408,-26615,7154,417,-5.59,,,,,,,,,,,,
60143,1564154456181,3,2.31,0.81,0.49,1.21,0.95,0.83,-0.29,0.41,13,-6,24,0.88,7355,11,100,45,34,971,414.0,570,461,60,120.0,117,1,295,175,50,0,0,414,-26615,-3414,412,-5.59,44.68116,10.024524,42.05,179.5,0,0.0,-1,0.0,0.0,0,0.16,1.0024
60163,1564154456203,3,2.28,0.77,0.47,1.18,0.93,0.95,-0.27,0.48,10,-9,21,0.99,7335,11,100,45,34,955,409.0,566,463,60,119.0,116,1,295,175,48,0,0,407,-26615,-9166,408,-5.59,,,,,,,,,,,,
60183,1564154456223,2,2.27,0.73,0.45,1.15,0.9,1.06,-0.32,0.54,7,-9,19,1.11,7250,11,100,45,34,929,407.0,567,466,60,120.0,116,1,295,175,48,0,0,407,10392,9517,407,-5.59,,,,,,,,,,,,
60203,1564154456243,6,2.24,0.71,0.44,1.13,0.89,1.09,-0.29,0.57,6,-5,18,1.13,7242,11,100,45,35,910,409.0,563,467,60,120.0,116,1,298,175,48,0,0,411,11560,10541,402,-5.59,,,,,,,,,,,,
60223,1564154456263,6,2.21,0.69,0.42,1.12,0.87,0.98,-0.14,0.47,4,-4,16,0.99,7231,11,100,45,35,889,409.0,570,465,60,121.0,116,1,298,181,48,0,0,407,11560,6512,399,-5.59,,,,,,,,,,,,
60243,1564154456283,6,2.18,0.68,0.42,1.11,0.86,0.83,0.07,0.28,3,-3,12,0.84,7244,11,100,45,35,881,407.0,557,457,60,121.0,116,1,298,181,48,0,0,403,-26615,-6656,395,-5.59,44.681148,10.024518,41.46,179.4,0,0.0,-1,0.0,0.0,0,0.17,1.0041
60263,1564154456303,7,2.17,0.67,0.42,1.11,0.86,0.75,0.12,0.22,1,-4,8,0.76,7358,11,100,45,35,872,404.0,561,461,60,122.0,126,1,298,181,50,0,0,399,1504,8200,390,-5.59,,,,,,,,,,,,
60283,1564154456323,8,2.13,0.68,0.41,1.11,0.85,0.76,0.25,0.23,-2,-5,6,0.8,7393,11,100,45,35,861,404.0,564,462,60,122.0,126,1,298,181,50,0,0,402,1504,19125,384,-5.59,,,,,,,,,,,,
60303,1564154456343,8,2.13,0.67,0.41,1.11,0.86,0.86,0.35,0.25,-4,-6,3,0.93,7449,11,100,45,35,853,403.0,578,463,60,120.0,126,1,298,181,50,0,0,403,-8151,3,380,-5.59,,,,,,,,,,,,
60323,1564154456363,6,2.12,0.67,0.41,1.11,0.86,0.94,0.44,0.3,-7,-7,-1,1.04,7399,11,100,45,35,852,401.0,562,461,60,121.0,126,1,298,181,50,0,0,402,28696,-6656,374,-5.59,,,,,,,,,,,,
60343,1564154456383,5,2.1,0.68,0.41,1.11,0.86,1.02,0.41,0.36,-9,-8,-4,1.1,7396,11,100,45,34,851,400.0,576,465,60,122.0,126,1,295,181,50,0,0,404,28696,257,371,-5.59,44.681141,10.024512,40.59,179.4,0,0.0,-1,0.0,0.0,0,0.17,1.0057
60363,1564154456403,6,2.08,0.68,0.41,1.11,0.86,1.12,0.33,0.47,-12,-9,-7,1.17,7329,11,100,45,35,852,401.0,575,463,60,120.0,130,1,298,181,48,0,0,398,11545,0,367,-5.59,,,,,,,,,,,,
60383,1564154456423,9,2.07,0.67,0.42,1.12,0.86,1.15,0.29,0.49,-13,-6,-9,1.18,7318,11,100,45,35,852,399.0,571,464,60,120.0,130,1,298,181,48,0,0,398,28696,230,363,-5.59,,,,,,,,,,,,
60403,1564154456443,7,2.07,0.68,0.41,1.11,0.86,1.07,0.28,0.41,-14,-4,-10,1.11,7236,11,100,45,35,854,396.0,572,465,60,119.0,130,1,298,181,48,0,0,397,-32702,2790,362,-5.59,,,,,,,,,,,,
60423,1564154456463,7,2.06,0.68,0.42,1.12,0.87,0.98,0.44,0.28,-15,-5,-13,1.07,7197,11,100,45,35,855,396.0,548,462,60,120.0,130,1,298,181,48,0,0,397,-32702,-6640,360,-5.59,,,,,,,,,,,,
60443,1564154456483,4,2.06,0.68,0.42,1.12,0.86,0.95,0.59,0.27,-16,-5,-16,1.12,7148,11,100,45,35,858,395.0,558,463,60,122.0,130,1,298,181,48,0,0,395,17144,3302,357,-5.59,44.681129,10.024506,39.25,179.4,0,0.0,-1,0.0,0.0,0,0.17,1.0074
60463,1564154456502,6,2.07,0.68,0.42,1.13,0.86,1.06,0.52,0.32,-18,-5,-18,1.18,7083,11,100,45,36,860,394.0,569,468,60,122.0,140,1,301,186,50,0,0,389,-1818,2060,355,-5.59,,,,,,,,,,,,
60483,1564154456522,6,2.06,0.69,0.42,1.13,0.87,1.02,0.53,0.32,-18,-3,-19,1.15,7062,11,100,45,36,861,390.0,553,464,60,122.0,140,1,301,186,50,0,0,388,-1562,-6644,353,-5.59,,,,,,,,,,,,
60503,1564154456542,4,2.06,0.69,0.42,1.12,0.87,0.99,0.68,0.24,-19,-4,-21,1.2,7019,11,100,45,36,862,389.0,552,466,60,121.0,140,1,301,186,50,0,0,390,-6524,28553,351,-5.59,,,,,,,,,,,,
60523,1564154456562,7,2.06,0.69,0.42,1.13,0.87,1.02,0.65,0.33,-21,-4,-23,1.21,6944,11,100,45,36,863,388.0,556,465,60,121.0,140,1,301,186,50,0,0,389,-31744,2811,350,-5.59,,,,,,,,,,,,
60543,1564154456582,5,2.05,0.68,0.42,1.13,0.87,1.05,0.68,0.31,-21,-4,-24,1.25,6900,11,100,45,37,864,387.0,547,466,60,122.0,140,1,304,192,50,0,0,386,240,2811,349,-5.59,44.681122,10.024501,37.35,179.4,0,0.0,-1,0.0,0.0,0,0.17,1.0091
60563,1564154456602,3,2.06,0.69,0.42,1.13,0.87,0.95,0.71,0.32,-22,-3,-27,1.19,6895,11,100,45,37,864,384.0,543,465,60,122.0,144,1,304,192,50,0,0,383,-19019,6870,347,-5.59,,,,,,,,,,,,
60583,1564154456622,5,2.06,0.69,0.42,1.14,0.88,1.0,0.66,0.32,-23,-3,-27,1.19,6813,11,100,45,37,864,384.0,537,465,60,121.0,144,1,304,192,50,0,0,381,-19019,3327,346,-5.59,,,,,,,,,,,,
60603,1564154456642,3,2.06,0.69,0.42,1.13,0.88,0.97,0.74,0.34,-23,-3,-29,1.22,6791,11,100,45,37,864,383.0,522,464,60,122.0,144,1,304,192,50,0,0,382,-19126,3327,344,-5.59,,,,,,,,,,,,
60623,1564154456662,3,2.06,0.69,0.42,1.13,0.87,0.94,0.68,0.38,-24,-2,-30,1.16,6776,11,100,45,38,864,381.0,535,466,60,120.0,144,1,307,197,50,0,0,380,-18948,6870,342,-5.59,,,,,,,,,,,,
60643,1564154456682,1,2.06,0.69,0.43,1.13,0.88,0.97,0.74,0.35,-24,-2,-31,1.22,6756,11,100,45,38,865,378.0,524,465,60,122.0,144,1,307,197,50,0,0,378,2278,6668,341,-5.59,44.68111,10.024497,36.02,179.5,0,0.0,-1,0.0,0.0,0,0.17,1.0107
60663,1564154456702,3,2.06,0.69,0.42,1.14,0.89,0.93,0.66,0.36,-24,-2,-31,1.14,6679,11,100,45,39,865,377.0,529,467,60,121.0,146,1,310,203,50,0,0,376,-6656,-31206,342,-5.59,,,,,,,,,,,,
60683,1564154456722,0,2.08,0.7,0.43,1.14,0.88,0.93,0.73,0.33,-25,-1,-32,1.18,6670,11,100,45,39,867,377.0,519,463,60,123.0,146,1,310,203,50,0,0,375,2278,3327,340,-5.59,,,,,,,,,,,,
60703,1564154456742,3,2.08,0.7,0.43,1.15,0.88,0.94,0.73,0.32,-25,-2,-32,1.19,6656,11,100,45,39,868,377.0,514,466,60,122.0,146,1,310,203,50,0,0,376,-6656,-31206,340,-5.59,,,,,,,,,,,,
60723,1564154456762,5,2.1,0.7,0.42,1.15,0.88,0.87,0.65,0.39,-25,-2,-33,1.09,6639,11,100,45,39,869,375.0,508,463,60,123.0,146,1,310,204,50,0,0,373,770,2560,339,-5.59,,,,,,,,,,,,
60743,1564154456782,1,2.13,0.7,0.43,1.14,0.89,0.91,0.75,0.31,-24,-1,-33,1.18,6616,11,100,45,40,870,373.0,517,467,60,121.0,146,1,317,204,50,0,0,373,-6656,2560,337,-5.59,44.681103,10.024494,35.21,179.5,0,0.0,-1,0.0,0.0,0,0.17,1.0124
60763,1564154456802,4,2.16,0.71,0.43,1.15,0.89,0.9,0.67,0.35,-24,-2,-33,1.12,6565,11,100,45,40,866,370.0,517,462,60,120.0,147,1,316,204,50,0,0,369,486,3346,338,-5.59,,,,,,,,,,,,
60783,1564154456822,1,2.18,0.71,0.44,1.16,0.89,0.85,0.65,0.36,-23,-1,-33,1.08,6558,11,100,45,40,863,366.0,501,462,60,122.0,147,1,316,204,50,0,0,368,230,-122,338,-5.59,,,,,,,,,,,,
60803,1564154456842,2,2.22,0.72,0.43,1.16,0.9,0.88,0.62,0.34,-22,-2,-32,1.08,6565,11,100,45,41,858,364.0,517,467,60,121.0,147,1,323,206,50,0,0,366,-1268,3327,338,-5.59,,,,,,,,,,,,
60823,1564154456862,4,2.25,0.72,0.44,1.16,0.9,0.83,0.54,0.37,-21,-1,-31,0.99,6549,11,100,45,41,854,362.0,516,456,60,121.0,147,1,323,206,50,0,0,361,2790,-14714,339,-5.59,,,,,,,,,,,,
60843,1564154456882,1,2.29,0.73,0.44,1.17,0.9,0.86,0.53,0.34,-19,0,-30,1.01,6539,11,100,45,41,848,360.0,506,462,60,122.0,147,1,323,206,50,0,0,355,-14707,6668,340,-5.59,44.681095,10.024493,34.77,179.5,0,0.0,-1,0.0,0.0,0,0.17,1.0141
60863,1564154456902,2,2.33,0.74,0.45,1.18,0.91,0.88,0.45,0.35,-17,-0,-28,0.98,6510,11,100,45,41,842,355.0,521,464,60,120.0,149,1,323,206,51,0,0,356,2060,3327,341,-5.59,,,,,,,,,,,,
60883,1564154456922,3,2.35,0.76,0.46,1.19,0.93,0.81,0.34,0.45,-15,-0,-26,0.88,6501,11,100,45,41,840,353.0,506,460,60,122.0,149,1,323,206,51,0,0,349,28553,-10554,343,-5.59,,,,,,,,,,,,
60903,1564154456942,-1,2.39,0.78,0.46,1.21,0.94,0.82,0.36,0.4,-13,1,-24,0.9,6499,11,100,45,41,838,348.0,509,465,60,122.0,149,1,323,206,51,0,0,346,-1246,-30438,344,-5.59,,,,,,,,,,,,
60923,1564154456962,0,2.41,0.8,0.47,1.22,0.96,0.9,0.26,0.38,-11,-0,-21,0.94,6524,11,100,45,41,837,346.0,512,460,60,120.0,149,1,323,206,51,0,0,346,-30438,-30438,344,-5.59,,,,,,,,,,,,
60943,1564154456982,3,2.44,0.82,0.48,1.24,0.97,0.84,0.13,0.46,-9,-2,-18,0.85,6508,11,100,45,41,838,345.0,508,460,60,120.0,149,1,323,207,51,0,0,340,-122,6870,345,-5.59,44.681084,10.024493,34.51,179.5,0,0.0,-1,0.0,0.0,0,0.17,1.0157
60963,1564154456994,1,2.46,0.84,0.5,1.26,1.0,0.86,0.11,0.37,-6,-1,-17,0.86,6505,11,100,45,41,839,345.0,497,459,60,122.0,147,1,323,206,51,0,0,335,13,6870,346,-5.59,,,,,,,,,,,,
60983,1564154457014,2,2.48,0.85,0.51,1.28,1.0,0.92,0.06,0.34,-4,-1,-14,0.92,6481,11,100,45,42,841,345.0,504,461,60,120.0,147,1,330,207,51,0,0,333,-6528,-1246,345,-5.59,,,,,,,,,,,,
61003,1564154457034,3,2.51,0.87,0.52,1.28,1.01,0.9,-0.07,0.38,-2,-2,-10,0.9,6458,11,100,45,41,846,346.0,493,462,60,122.0,147,1,323,207,51,0,0,332,-12032,28553,346,-5.59,,,,,,,,,,,,
61023,1564154457054,-1,2.53,0.87,0.52,1.29,1.0,0.88,-0.1,0.36,-0,-1,-8,0.89,6452,11,100,45,42,851,346.0,495,462,60,121.0,147,1,330,207,51,0,0,326,-20736,8841,348,-5.59,,,,,,,,,,,,
61043,1564154457074,1,2.53,0.87,0.51,1.29,1.01,0.92,-0.17,0.29,2,-1,-5,0.94,6461,11,100,45,42,854,347.0,495,463,60,121.0,147,1,330,207,51,0,0,323,-22016,8841,347,-5.59,44.681076,10.024493,33.67,179.5,0,0.0,-1,0.0,0.0,0,0.17,1.0174
61063,1564154457102,3,2.55,0.87,0.52,1.29,1.0,0.85,-0.27,0.38,4,-2,-2,0.89,6445,11,100,45,42,858,348.0,497,460,60,122.0,144,1,330,207,50,0,0,322,-24576,-1246,348,-5.59,,,,,,,,,,,,
61083,1564154457122,4,2.55,0.87,0.51,1.29,1.0,0.86,-0.29,0.47,5,-1,1,0.91,6397,11,100,45,42,864,348.0,491,462,60,121.0,144,1,329,207,50,0,0,324,155,6870,347,-5.59,,,,,,,,,,,,
61103,1564154457142,-0,2.57,0.87,0.51,1.28,1.01,0.9,-0.31,0.42,7,0,3,0.95,6338,11,100,45,43,869,347.0,487,466,60,121.0,144,1,336,207,50,0,0,327,155,-30438,347,-5.59,,,,,,,,,,,,
61123,1564154457162,-1,2.57,0.87,0.51,1.28,1.01,0.98,-0.33,0.46,8,-0,6,1.03,6270,11,100,45,43,875,347.0,490,460,60,120.0,144,1,336,207,50,0,0,321,150,6870,347,-5.59,,,,,,,,,,,,
61143,1564154457182,-0,2.58,0.87,0.51,1.29,1.0,0.99,-0.35,0.39,9,-2,8,1.05,6167,11,101,45,43,877,347.0,492,467,60,120.0,144,1,335,209,50,0,0,322,145,8841,348,-5.59,44.681065,10.024493,34.06,179.5,0,0.0,-1,0.0,0.0,0,0.17,1.0191
61163,1564154457204,-0,2.58,0.87,0.51,1.29,1.0,0.91,-0.41,0.37,10,-4,11,1.0,6111,11,101,45,43,879,348.0,492,462,60,120.0,138,1,335,209,48,0,0,320,145,-30454,348,-5.59,,,,,,,,,,,,
61183,1564154457224,1,2.57,0.87,0.52,1.29,1.01,0.82,-0.5,0.39,11,-6,14,0.96,6075,11,101,45,44,884,348.0,486,464,60,120.0,138,1,341,210,48,0,0,314,140,-1246,348,-5.59,,,,,,,,,,,,
61203,1564154457244,1,2.57,0.87,0.52,1.29,1.01,0.7,-0.61,0.42,12,-6,16,0.93,6064,11,101,45,44,889,347.0,478,462,60,121.0,138,1,341,210,48,0,0,316,140,-14714,346,-5.59,,,,,,,,,,,,
61223,1564154457264,0,2.58,0.88,0.52,1.3,1.01,0.58,-0.7,0.46,14,-7,18,0.91,6046,11,101,45,44,890,346.0,461,462,60,121.0,138,1,341,210,48,0,0,312,-29696,8841,346,-5.59,,,,,,,,,,,,
61243,1564154457284,1,2.58,0.87,0.52,1.29,1.02,0.49,-0.77,0.51,15,-7,20,0.91,6021,11,101,45,44,893,346.0,462,462,60,121.0,138,1,341,210,48,0,0,313,135,-30438,346,-5.59,44.681061,10.024492,33.98,179.5,0,0.0,-1,0.0,0.0,0,0.18,1.0207
61263,1564154457302,1,2.57,0.88,0.52,1.29,1.01,0.36,-0.84,0.58,15,-6,21,0.92,6032,11,100,45,45,894,345.0,468,461,60,122.0,136,1,347,210,47,0,0,312,135,6668,343,-5.59,,,,,,,,,,,,
61283,1564154457322,2,2.57,0.88,0.52,1.3,1.01,0.23,-0.91,0.63,16,-4,22,0.94,5996,11,101,45,45,895,343.0,465,462,60,120.0,136,1,346,211,47,0,0,311,130,-122,343,-5.59,,,,,,,,,,,,
61303,1564154457342,2,2.56,0.87,0.52,1.29,1.02,0.12,-0.96,0.65,17,-2,24,0.97,6003,11,101,45,45,893,341.0,465,463,60,120.0,136,1,347,211,47,0,0,311,-32256,-31206,341,-5.59,,,,,,,,,,,,
61323,1564154457362,2,2.54,0.88,0.52,1.3,1.01,0.04,-0.97,0.68,18,-1,25,0.97,6009,11,101,45,45,891,341.0,454,461,60,121.0,136,1,347,211,47,0,0,311,32000,3327,340,-5.59,,,,,,,,,,,,
61343,1564154457382,2,2.52,0.88,0.52,1.3,1.02,-0.03,-0.96,0.73,18,1,25,0.96,6013,11,101,45,45,887,339.0,464,463,60,120.0,136,1,347,212,47,0,0,309,125,3327,339,-5.59,44.681049,10.02449,33.13,179.5,0,0.0,-1,0.0,0.0,0,0.18,1.0224
61363,1564154457402,1,2.51,0.88,0.53,1.3,1.01,-0.09,-0.92,0.77,19,2,26,0.93,6032,11,101,45,45,882,338.0,463,467,60,121.0,141,1,347,212,48,0,0,311,32000,3327,338,-5.59,,,,,,,,,,,,
61383,1564154457422,1,2.49,0.88,0.53,1.3,1.02,-0.13,-0.89,0.83,19,5,27,0.89,6046,11,101,45,45,879,337.0,462,466,60,122.0,141,1,347,212,48,0,0,310,130,2560,337,-5.59,,,,,,,,,,,,
61403,1564154457442,2,2.47,0.87,0.52,1.29,1.02,-0.15,-0.78,0.84,19,8,27,0.8,6052,11,101,45,45,876,335.0,461,461,60,122.0,141,1,347,211,48,0,0,311,-30976,13,335,-5.59,,,,,,,,,,,,
61423,1564154457462,2,2.44,0.87,0.52,1.29,1.01,-0.11,-0.67,0.8,19,10,27,0.68,6062,11,101,45,45,866,334.0,459,466,60,121.0,141,1,347,211,48,0,0,311,130,2560,335,181.28,,,,,,,,,,,,
61443,1564154457482,3,2.4,0.86,0.51,1.29,1.0,-0.04,-0.53,0.74,18,11,27,0.53,6091,11,101,45,45,860,331.0,460,461,60,122.0,141,1,347,211,48,0,0,314,-30976,-32559,331,-5.59,44.681042,10.024488,32.74,179.5,0,0.0,-1,0.0,0.0,0,0.18,1.024
61463,1564154457501,4,2.39,0.85,0.51,1.27,0.99,0.1,-0.39,0.68,17,13,26,0.41,6101,11,101,45,45,854,329.0,461,465,60,121.0,148,1,348,211,49,0,0,315,135,175,329,-5.59,,,,,,,,,,,,
61483,1564154457521,-0,2.35,0.83,0.5,1.25,0.97,0.29,-0.28,0.59,16,13,25,0.41,6113,11,101,45,45,849,327.0,460,465,60,121.0,148,1,348,211,49,0,0,319,-29696,170,327,-5.59,,,,,,,,,,,,
61503,1564154457541,-2,2.34,0.8,0.48,1.23,0.96,0.46,-0.21,0.51,15,11,24,0.51,6125,11,101,45,45,842,324.0,460,462,60,122.0,148,1,348,211,49,0,0,319,140,-32559,324,-5.59,,,,,,,,,,,,
61523,1564154457561,-0,2.31,0.77,0.46,1.2,0.93,0.62,-0.19,0.52,13,8,22,0.65,6153,11,101,45,45,832,323.0,475,465,60,120.0,148,1,348,211,49,0,0,319,140,-23296,323,-5.59,,,,,,,,,,,,
61543,1564154457581,-0,2.28,0.75,0.45,1.17,0.92,0.75,-0.16,0.57,11,5,19,0.76,6165,11,101,45,45,829,322.0,468,467,60,121.0,148,1,348,137,49,0,0,315,-27136,-23296,321,-5.59,44.681034,10.024486,32.26,179.5,0,0.0,-1,0.0,0.0,0,0.18,1.0257
61563,1564154457601,-0,2.25,0.71,0.43,1.15,0.89,0.78,-0.12,0.55,9,1,18,0.79,6163,11,101,45,45,826,321.0,475,463,60,120.0,152,1,348,211,49,0,0,318,-25856,150,319,-5.59,,,,,,,,,,,,
61583,1564154457621,0,2.24,0.7,0.42,1.13,0.88,0.66,-0.14,0.48,7,-1,16,0.67,6167,11,101,45,45,825,322.0,473,461,60,123.0,152,1,348,211,49,0,0,322,155,160,317,-5.59,,,,,,,,,,,,
61603,1564154457641,1,2.21,0.68,0.42,1.12,0.87,0.52,-0.09,0.45,5,-2,13,0.53,6135,11,101,45,45,826,325.0,469,461,60,123.0,152,1,348,211,49,0,0,323,-23296,150,317,-5.59,,,,,,,,,,,,
61623,1564154457661,1,2.18,0.67,0.41,1.12,0.86,0.42,-0.07,0.48,3,-1,11,0.42,6095,11,101,45,45,827,326.0,469,460,60,122.0,152,1,347,211,49,0,0,326,165,-25856,316,-5.59,,,,,,,,,,,,
61643,1564154457681,0,2.16,0.67,0.4,1.11,0.86,0.35,-0.02,0.49,1,0,10,0.35,6038,11,101,45,45,831,328.0,458,461,60,123.0,152,1,347,211,49,0,0,329,170,150,315,-5.59,44.681023,10.024483,32.28,179.5,0,0.0,-1,0.0,0.0,0,0.18,1.0274
61663,1564154457701,2,2.13,0.66,0.4,1.11,0.85,0.31,0.03,0.51,-0,1,8,0.31,5980,11,101,45,45,837,327.0,458,460,60,123.0,152,1,345,211,48,0,0,332,-22016,-25856,315,-5.59,,,,,,,,,,,,
61683,1564154457721,1,2.11,0.67,0.4,1.11,0.86,0.27,0.09,0.5,-2,0,6,0.29,5963,11,101,45,46,842,331.0,457,455,60,123.0,152,1,349,212,48,0,0,328,-12032,-27136,311,-5.59,,,,,,,,,,,,
61703,1564154457741,-0,2.1,0.67,0.4,1.12,0.86,0.2,0.16,0.46,-4,-0,4,0.26,5952,11,101,45,46,846,331.0,459,461,60,124.0,152,1,349,212,48,0,0,332,-12032,-30976,310,-5.59,,,,,,,,,,,,
61723,1564154457761,1,2.08,0.66,0.4,1.12,0.86,0.15,0.21,0.39,-6,-1,2,0.26,5926,11,101,45,46,850,332.0,460,456,60,123.0,152,1,347,212,48,0,0,333,-32559,-30976,309,-5.59,,,,,,,,,,,,
61743,1564154457781,-1,2.07,0.67,0.4,1.12,0.86,0.12,0.25,0.28,-7,-2,-1,0.28,5924,11,101,45,47,854,334.0,463,460,60,122.0,152,1,353,214,48,0,0,335,4838,32000,309,-5.59,44.681019,10.024479,32.16,179.4,0,0.0,-1,0.0,0.0,0,0.18,1.029
61763,1564154457801,-1,2.07,0.67,0.41,1.11,0.86,0.11,0.33,0.15,-8,-4,-4,0.35,5903,11,101,45,47,860,335.0,465,465,60,121.0,156,1,351,214,48,0,0,336,3346,32000,306,-5.59,,,,,,,,,,,,
61783,1564154457821,-2,2.07,0.67,0.4,1.12,0.86,0.22,0.4,0.1,-9,-6,-7,0.46,5886,11,101,45,48,865,337.0,463,462,60,122.0,156,1,352,218,48,0,0,336,2560,120,306,-5.59,,,,,,,,,,,,
61803,1564154457841,-2,2.06,0.67,0.4,1.12,0.87,0.36,0.45,0.16,-11,-8,-10,0.58,5896,11,101,45,48,867,337.0,455,457,60,121.0,156,1,353,218,48,0,0,336,2560,28160,304,-5.59,,,,,,,,,,,,
61823,1564154457861,-1,2.05,0.67,0.41,1.12,0.87,0.53,0.47,0.27,-12,-8,-14,0.71,5890,11,101,45,48,869,337.0,457,462,60,122.0,156,1,354,218,48,0,0,337,2560,110,304,-5.59,,,,,,,,,,,,
61843,1564154457881,-0,2.04,0.67,0.41,1.12,0.87,0.68,0.49,0.35,-14,-7,-17,0.84,5886,11,101,45,48,871,335.0,455,461,60,122.0,156,1,352,218,48,0,0,336,2560,105,302,-5.59,44.681007,10.024476,31.64,179.4,0,0.0,-1,0.0,0.0,0,0.18,1.0307
61863,1564154457901,-1,2.03,0.68,0.41,1.13,0.87,0.81,0.54,0.41,-15,-6,-20,0.97,5926,11,101,45,48,872,336.0,450,461,60,122.0,158,1,356,218,48,0,0,334,13,29440,303,-5.59,,,,,,,,,,,,
61883,1564154457921,-0,2.02,0.68,0.41,1.13,0.87,0.92,0.57,0.45,-16,-5,-22,1.08,5954,11,101,45,48,871,335.0,455,452,60,121.0,158,1,358,218,48,0,0,334,3346,26880,302,-5.59,,,,,,,,,,,,
61903,1564154457941,-0,2.0,0.67,0.41,1.12,0.87,1.01,0.58,0.47,-18,-4,-24,1.16,6001,11,101,45,48,869,335.0,451,464,60,122.0,158,1,363,218,48,0,0,335,3346,28160,300,-5.59,,,,,,,,,,,,
61923,1564154457961,-1,1.99,0.67,0.41,1.13,0.87,1.11,0.59,0.49,-19,-4,-26,1.26,6046,11,101,45,47,865,335.0,455,462,60,122.0,158,1,360,214,48,0,0,334,3346,25600,301,-5.59,,,,,,,,,,,,
61943,1564154457981,-0,1.98,0.68,0.41,1.13,0.88,1.19,0.6,0.52,-21,-5,-28,1.34,6085,11,101,45,47,860,337.0,460,464,60,121.0,158,1,360,214,48,0,0,332,2560,24320,299,-5.59,44.681004,10.024474,31.44,179.4,0,0.0,-1,0.0,0.0,0,0.18,1.0324
61963,1564154457993,-1,1.98,0.69,0.41,1.13,0.87,1.19,0.6,0.53,-22,-6,-30,1.33,6155,11,101,45,47,856,339.0,468,461,60,121.0,164,1,361,140,49,0,0,335,-122,25600,297,-5.59,,,,,,,,,,,,
61983,1564154458013,0,1.98,0.69,0.41,1.14,0.87,1.09,0.58,0.5,-23,-7,-31,1.24,6173,11,101,45,46,852,338.0,468,457,60,122.0,164,1,354,214,49,0,0,334,-31222,25600,298,-5.59,,,,,,,,,,,,
62003,1564154458033,0,1.97,0.69,0.42,1.13,0.88,1.0,0.54,0.43,-24,-7,-32,1.14,6179,11,101,45,46,846,339.0,475,460,60,121.0,164,1,354,212,49,0,0,335,-122,100,297,-5.59,,,,,,,,,,,,
62023,1564154458053,1,1.96,0.68,0.41,1.13,0.88,0.88,0.54,0.37,-25,-7,-31,1.03,6121,11,101,45,46,840,339.0,471,461,60,123.0,164,1,354,212,49,0,0,338,-122,29440,297,-5.59,,,,,,,,,,,,
62043,1564154458073,1,1.96,0.7,0.41,1.14,0.87,0.76,0.51,0.37,-25,-6,-33,0.91,6034,11,101,45,46,838,338.0,470,460,60,123.0,164,1,353,212,49,0,0,335,-31222,-30976,299,-5.59,44.680992,10.024472,30.51,179.4,0,0.0,-1,0.0,0.0,0,0.18,1.034
62063,1564154458101,-0,1.96,0.7,0.42,1.14,0.88,0.66,0.51,0.31,-25,-5,-33,0.83,5946,11,101,45,46,838,337.0,465,456,60,122.0,160,1,348,212,48,0,0,337,2560,115,300,-5.59,,,,,,,,,,,,
62083,1564154458121,-2,1.97,0.69,0.42,1.15,0.87,0.58,0.56,0.23,-25,-6,-34,0.81,5890,11,101,45,47,839,338.0,457,460,60,121.0,160,1,350,214,48,0,0,339,2560,29440,299,-5.59,,,,,,,,,,,,
62103,1564154458141,-1,1.96,0.69,0.42,1.14,0.87,0.58,0.64,0.16,-26,-8,-35,0.86,5848,11,101,45,48,840,338.0,458,451,60,122.0,160,1,349,218,48,0,0,337,-31222,26880,298,-5.59,,,,,,,,,,,,
62123,1564154458161,-1,1.96,0.7,0.41,1.14,0.87,0.69,0.69,0.2,-26,-9,-37,0.98,5821,11,101,45,48,842,340.0,460,451,60,121.0,160,1,346,218,48,0,0,335,3327,24320,299,-5.59,,,,,,,,,,,,
62143,1564154458181,-2,1.97,0.7,0.42,1.15,0.88,0.82,0.7,0.28,-27,-10,-39,1.08,5794,11,101,45,49,843,341.0,450,461,60,121.0,160,1,348,150,48,0,0,338,6668,90,298,-5.59,44.680984,10.024471,30.34,179.4,0,0.0,-1,0.0,0.0,0,0.18,1.0357
62163,1564154458203,2,1.98,0.7,0.42,1.15,0.88,0.93,0.71,0.34,-28,-8,-40,1.17,5778,11,101,45,50,851,341.0,448,461,60,122.0,161,1,350,223,48,0,0,337,6668,24320,297,-5.59,,,,,,,,,,,,
62183,1564154458223,2,1.98,0.7,0.41,1.16,0.88,0.93,0.76,0.33,-29,-5,-39,1.2,5772,11,101,45,49,856,341.0,441,458,60,122.0,161,1,346,228,48,0,0,338,6668,23040,297,-5.59,,,,,,,,,,,,
62203,1564154458243,-0,1.98,0.7,0.42,1.15,0.89,0.83,0.74,0.34,-29,-2,-38,1.12,5753,11,101,45,50,861,340.0,452,449,60,123.0,161,1,348,228,48,0,0,336,3327,23040,296,-5.59,,,,,,,,,,,,
62223,1564154458263,-0,1.97,0.7,0.42,1.16,0.88,0.68,0.69,0.28,-30,-1,-38,0.97,5746,11,101,45,50,866,338.0,445,434,60,122.0,161,1,347,232,48,0,0,333,-31222,90,296,-5.59,,,,,,,,,,,,
62243,1564154458283,-2,1.98,0.7,0.42,1.16,0.89,0.64,0.71,0.23,-29,-3,-39,0.96,5769,11,101,45,51,875,337.0,453,431,60,122.0,161,1,353,233,48,0,0,333,2560,20480,296,-5.59,44.680981,10.024472,29.93,179.4,0,0.0,-1,0.0,0.0,0,0.18,1.0374
62263,1564154458303,-1,1.96,0.71,0.42,1.16,0.88,0.77,0.77,0.35,-30,-6,-41,1.09,5779,11,101,45,51,881,336.0,442,452,60,121.0,169,1,352,233,50,0,0,336,13,0,295,-5.59,,,,,,,,,,,,
62283,1564154458323,-2,1.97,0.71,0.42,1.16,0.88,0.89,0.77,0.51,-30,-8,-43,1.18,5821,12,101,45,51,885,337.0,441,446,60,122.0,169,1,357,233,50,0,0,334,2560,90,295,-5.59,,,,,,,,,,,,
62303,1564154458343,1,1.97,0.71,0.43,1.16,0.88,0.97,0.73,0.59,-31,-7,-43,1.22,5844,11,101,45,51,887,336.0,443,430,60,121.0,169,1,359,233,50,0,0,332,13,20480,295,181.28,,,,,,,,,,,,
62323,1564154458363,3,1.97,0.71,0.43,1.17,0.89,1.0,0.79,0.61,-32,-4,-43,1.27,5881,12,101,45,51,882,336.0,445,417,60,122.0,169,1,363,233,50,0,0,334,13,20480,295,-5.59,,,,,,,,,,,,
62343,1564154458383,3,1.96,0.71,0.43,1.16,0.89,1.0,0.84,0.58,-32,-2,-42,1.31,5937,12,101,45,51,878,335.0,447,401,60,122.0,169,1,367,233,50,0,0,331,13,80,294,-5.59,44.680969,10.024474,30.16,179.5,0,0.0,-1,0.0,0.0,0,0.19,1.039
62363,1564154458403,2,1.97,0.72,0.43,1.17,0.89,0.98,0.89,0.56,-33,-0,-41,1.33,5982,12,101,45,50,873,336.0,455,413,60,122.0,177,1,368,234,52,0,0,333,13,21760,293,-5.59,,,,,,,,,,,,
62383,1564154458423,1,1.97,0.71,0.43,1.16,0.89,1.01,0.93,0.53,-33,1,-40,1.37,6038,12,101,45,50,867,334.0,462,442,60,121.0,177,1,370,230,52,0,0,331,4838,20480,292,-5.59,,,,,,,,,,,,
62403,1564154458443,2,1.97,0.71,0.42,1.16,0.9,1.06,0.94,0.53,-34,1,-40,1.42,6097,12,101,45,49,858,333.0,461,440,60,122.0,177,1,366,224,52,0,0,331,-6528,0,292,-5.59,,,,,,,,,,,,
62423,1564154458463,-0,1.96,0.72,0.43,1.16,0.89,1.16,0.94,0.53,-34,1,-40,1.49,6135,12,101,45,49,848,332.0,476,430,60,121.0,177,1,367,224,52,0,0,330,-32559,0,292,-5.59,,,,,,,,,,,,
62443,1564154458483,-2,1.97,0.72,0.43,1.18,0.89,1.2,0.91,0.66,-34,-1,-41,1.5,6179,12,101,45,48,840,332.0,473,429,60,122.0,177,1,364,218,52,0,0,333,4838,85,292,-5.59,44.680965,10.024476,30.25,179.5,0,0.0,-1,0.0,0.0,0,0.19,1.0407
62463,1564154458500,-1,1.97,0.73,0.43,1.18,0.9,1.22,0.91,0.73,-35,-2,-42,1.52,6121,12,101,45,48,835,335.0,481,442,60,122.0,175,1,363,218,51,0,0,334,3346,125,293,-5.59,,,,,,,,,,,,
62483,1564154458520,-2,1.98,0.73,0.43,1.18,0.9,1.23,0.89,0.83,-34,-4,-42,1.52,6036,12,101,45,48,833,336.0,470,437,60,122.0,175,1,362,218,51,0,0,334,13,-22016,294,-5.59,,,,,,,,,,,,
62503,1564154458540,-2,1.98,0.73,0.44,1.18,0.89,1.29,0.88,0.89,-34,-4,-43,1.56,5956,12,101,45,48,829,335.0,467,454,60,120.0,175,1,359,218,51,0,0,330,3346,155,295,-5.59,,,,,,,,,,,,
62523,1564154458560,-1,1.98,0.73,0.43,1.18,0.9,1.36,0.86,0.96,-34,-6,-44,1.61,5944,12,101,45,48,828,334.0,462,458,60,122.0,175,1,357,218,51,0,0,372,4838,85,296,-5.59,,,,,,,,,,,,
62543,1564154458580,-1,2.0,0.73,0.44,1.18,0.91,1.41,0.8,1.06,-34,-6,-45,1.62,5924,12,101,45,48,829,334.0,454,448,60,121.0,175,1,356,218,51,0,0,372,4838,24320,295,-5.59,44.680954,10.024479,29.94,179.6,0,0.0,-1,0.0,0.0,0,0.19,1.0424
62563,1564154458600,1,2.02,0.73,0.44,1.19,0.9,1.44,0.74,1.12,-35,-5,-45,1.62,5903,12,101,45,49,835,335.0,451,453,60,123.0,168,1,357,223,50,0,0,372,3346,85,295,-5.59,,,,,,,,,,,,
62583,1564154458620,2,2.02,0.74,0.44,1.18,0.91,1.43,0.75,1.09,-35,-3,-44,1.62,5864,12,101,45,49,845,336.0,449,450,60,123.0,168,1,354,223,50,0,0,323,4838,100,296,-5.59,,,,,,,,,,,,
62603,1564154458640,0,2.03,0.73,0.44,1.18,0.91,1.33,0.83,0.99,-34,-0,-41,1.56,5852,12,101,45,49,855,333.0,448,450,60,122.0,168,1,353,223,50,0,0,329,-6528,24320,297,-5.59,,,,,,,,,,,,
62623,1564154458660,0,2.02,0.74,0.44,1.19,0.9,1.16,0.85,0.97,-33,2,-40,1.44,5846,12,101,45,50,864,333.0,445,458,60,123.0,168,1,356,228,50,0,0,332,4838,24320,296,-5.59,,,,,,,,,,,,
62643,1564154458680,-1,2.02,0.74,0.44,1.19,0.91,1.03,0.75,0.91,-33,5,-39,1.27,5846,12,101,45,50,876,332.0,455,459,60,121.0,168,1,356,228,50,0,0,331,-32559,24320,297,-5.59,44.680946,10.024484,29.98,179.6,0,0.0,-1,0.0,0.0,0,0.19,1.044
62663,1564154458700,-1,2.01,0.75,0.44,1.19,0.92,0.89,0.68,0.84,-32,5,-39,1.12,5859,12,101,45,50,895,334.0,453,455,60,122.0,167,1,357,228,50,0,0,331,4838,23040,297,-5.59,,,,,,,,,,,,
62683,1564154458720,-1,2.0,0.75,0.44,1.19,0.91,0.81,0.71,0.79,-31,3,-40,1.08,5859,12,101,45,50,906,333.0,453,460,60,121.0,167,1,357,233,50,0,0,331,-6528,25600,297,-5.59,,,,,,,,,,,,
62703,1564154458740,-2,1.99,0.74,0.44,1.19,0.91,0.84,0.78,0.8,-30,-0,-42,1.14,5874,12,101,45,51,912,334.0,450,461,60,121.0,167,1,362,233,50,0,0,332,4838,95,296,-5.59,,,,,,,,,,,,
62723,1564154458760,-1,1.96,0.75,0.44,1.2,0.91,0.92,0.85,0.87,-30,-3,-43,1.26,5896,12,101,45,51,915,333.0,454,461,60,121.0,167,1,364,233,50,0,0,84,-32559,23040,296,-5.59,,,,,,,,,,,,
62743,1564154458780,-2,1.94,0.75,0.44,1.19,0.92,1.03,0.88,0.95,-31,-5,-44,1.36,5905,12,101,45,51,916,334.0,451,458,60,122.0,167,1,365,229,50,0,0,327,4838,23040,294,-5.59,44.680943,10.024488,30.55,179.6,0,0.0,-1,0.0,0.0,0,0.19,1.0457
62763,1564154458800,-0,1.92,0.75,0.44,1.19,0.92,1.1,0.89,0.99,-32,-7,-45,1.42,5937,12,101,45,51,916,334.0,454,462,60,122.0,176,1,367,229,52,0,0,327,4838,23040,292,-5.59,,,,,,,,,,,,
62783,1564154458820,-0,1.92,0.75,0.44,1.2,0.91,1.15,0.93,1.01,-33,-7,-45,1.48,5954,12,102,45,50,911,334.0,454,462,60,121.0,176,1,365,230,52,0,0,330,4838,90,291,-5.59,,,,,,,,,,,,
62803,1564154458840,0,1.92,0.75,0.44,1.2,0.91,1.19,0.91,1.03,-34,-9,-48,1.5,5973,13,101,45,50,906,337.0,455,458,60,122.0,176,1,367,229,52,0,0,334,2560,95,292,-5.59,,,,,,,,,,,,
62823,1564154458860,0,1.91,0.74,0.44,1.19,0.92,1.23,0.87,1.07,-34,-9,-48,1.51,5948,13,102,45,50,896,340.0,463,460,60,121.0,176,1,365,224,52,0,0,336,-122,29440,291,-5.59,,,,,,,,,,,,
62843,1564154458880,2,1.9,0.75,0.43,1.2,0.91,1.3,0.85,1.11,-35,-9,-48,1.56,5944,13,102,45,49,887,339.0,461,461,60,122.0,176,1,361,224,52,0,0,335,-122,95,292,-5.59,44.680935,10.024495,30.43,179.6,0,0.0,-1,0.0,0.0,0,0.19,1.0474
62863,1564154458900,3,1.9,0.75,0.44,1.19,0.91,1.38,0.81,1.09,-36,-9,-49,1.6,5914,13,102,45,49,881,337.0,456,460,60,122.0,171,1,358,224,50,0,0,337,2560,21760,292,-5.59,,,,,,,,,,,,
62883,1564154458920,2,1.89,0.76,0.44,1.19,0.91,1.37,0.77,1.03,-37,-8,-48,1.58,5875,13,102,45,49,875,337.0,452,459,60,122.0,171,1,355,224,50,0,0,335,2560,100,292,-5.59,,,,,,,,,,,,
62903,1564154458940,2,1.89,0.75,0.44,1.2,0.91,1.33,0.8,0.92,-37,-6,-46,1.56,5859,13,102,45,50,868,337.0,453,459,60,122.0,171,1,357,229,50,0,0,335,2560,100,291,-5.59,,,,,,,,,,,,
62923,1564154458960,2,1.89,0.76,0.44,1.2,0.91,1.24,0.85,0.87,-37,-4,-45,1.5,5839,13,102,45,50,861,337.0,449,455,60,123.0,171,1,355,229,50,0,0,85,2560,85,291,-5.59,,,,,,,,,,,,
62943,1564154458980,-0,1.9,0.76,0.45,1.19,0.92,1.14,0.83,0.74,-37,-4,-44,1.41,5835,13,102,45,51,861,336.0,451,462,60,122.0,171,1,359,235,50,0,0,332,13,21760,290,-5.59,44.680927,10.024502,30.35,179.7,0,0.0,-1,0.0,0.0,0,0.19,1.049
62963,1564154459000,-2,1.91,0.75,0.45,1.2,0.91,1.06,0.83,0.63,-37,-5,-44,1.34,5821,13,102,45,51,861,338.0,450,458,60,121.0,174,1,357,235,51,0,0,331,-31222,20480,291,-5.59,,,,,,,,,,,,
62983,1564154459010,-1,1.93,0.75,0.45,1.2,0.92,1.05,0.85,0.56,-36,-6,-46,1.35,5813,13,102,45,51,864,339.0,451,462,60,122.0,174,1,357,235,51,0,0,335,-122,21760,289,-5.59,,,,,,,,,,,,
63003,1564154459030,-1,1.93,0.76,0.45,1.2,0.92,1.1,0.87,0.58,-36,-7,-48,1.4,5790,13,102,45,52,866,338.0,448,461,60,119.0,174,1,358,239,51,0,0,333,-31222,80,291,-5.59,,,,,,,,,,,,
63023,1564154459050,-1,1.94,0.76,0.45,1.2,0.93,1.19,0.89,0.6,-36,-8,-49,1.48,5828,13,102,45,52,867,338.0,445,461,60,122.0,174,1,361,239,51,0,0,333,-122,0,291,-5.59,,,,,,,,,,,,
63043,1564154459070,3,1.94,0.76,0.44,1.21,0.93,1.24,0.89,0.59,-36,-8,-49,1.53,5852,13,102,45,52,869,339.0,446,463,60,122.0,174,1,363,240,51,0,0,335,-122,80,291,-5.59,44.680923,10.024509,30.39,179.7,0,0.0,-1,0.0,0.0,0,0.19,1.0507
63063,1564154459094,2,1.94,0.77,0.45,1.21,0.92,1.25,0.9,0.54,-36,-6,-48,1.54,5861,14,102,45,52,873,337.0,447,460,60,121.0,182,1,364,240,53,0,0,333,2560,21760,291,-5.59,,,,,,,,,,,,
63083,1564154459114,2,1.94,0.76,0.45,1.21,0.93,1.18,0.91,0.56,-36,-5,-47,1.49,5885,14,102,45,52,877,335.0,451,462,60,122.0,182,1,366,240,53,0,0,332,3346,85,291,-5.59,,,,,,,,,,,,
63103,1564154459134,1,1.95,0.77,0.45,1.22,0.92,1.09,0.93,0.61,-36,-4,-46,1.44,5909,14,102,45,52,878,337.0,457,462,60,123.0,182,1,368,241,53,0,0,333,2560,23040,289,181.28,,,,,,,,,,,,
63123,1564154459154,2,1.94,0.76,0.45,1.2,0.93,1.03,0.97,0.6,-36,-2,-45,1.42,5926,14,102,45,52,879,330.0,455,461,60,123.0,182,1,370,241,53,0,0,331,-20736,23040,290,181.28,,,,,,,,,,,,
63143,1564154459174,2,1.96,0.77,0.45,1.22,0.93,0.94,0.93,0.61,-36,-2,-44,1.33,5937,14,102,45,52,879,333.0,462,461,60,122.0,182,1,371,241,53,0,0,331,-6528,90,294,-5.59,44.68092,10.024518,30.28,179.7,0,0.0,-1,0.0,0.0,0,0.19,1.0524
63163,1564154459200,1,1.97,0.77,0.46,1.22,0.94,0.81,0.88,0.6,-36,-0,-44,1.2,5916,14,102,45,52,878,337.0,460,461,60,122.0,186,1,369,241,54,0,0,335,-31222,24320,291,-5.59,,,,,,,,,,,,
63183,1564154459220,0,1.99,0.77,0.46,1.23,0.93,0.76,0.85,0.5,-35,-0,-44,1.14,5901,14,102,45,52,876,340.0,462,460,60,123.0,186,1,368,241,54,0,0,338,3327,95,293,-5.59,,,,,,,,,,,,
63203,1564154459240,-1,1.99,0.77,0.46,1.22,0.93,0.71,0.83,0.39,-34,-1,-43,1.1,5901,14,102,45,52,874,339.0,457,461,60,123.0,186,1,368,241,54,0,0,337,-122,23040,295,-5.59,,,,,,,,,,,,
63223,1564154459260,-1,1.99,0.77,0.46,1.22,0.93,0.77,0.86,0.28,-33,-3,-44,1.16,5890,14,102,45,52,870,338.0,456,465,60,120.0,186,1,367,240,54,0,0,336,3346,95,294,-5.59,,,,,,,,,,,,
63243,1564154459280,-1,1.99,0.78,0.46,1.22,0.94,0.89,0.87,0.3,-33,-4,-44,1.25,5909,14,102,45,52,865,336.0,456,463,60,120.0,186,1,368,241,54,0,0,335,13,24320,296,-5.59,44.680912,10.024527,30.53,179.7,0,0.0,-1,0.0,0.0,0,0.19,1.054
63263,1564154459300,-1,1.99,0.79,0.46,1.23,0.94,1.0,0.85,0.36,-33,-4,-45,1.31,5894,14,102,45,52,863,336.0,448,465,60,121.0,181,1,369,240,54,0,0,335,-31222,95,295,-5.59,,,,,,,,,,,,
63283,1564154459320,-2,1.99,0.78,0.46,1.23,0.94,1.1,0.86,0.41,-34,-4,-46,1.4,5901,15,102,45,52,860,337.0,446,463,60,121.0,181,1,368,241,54,0,0,335,2560,25600,295,-5.59,,,,,,,,,,,,
63303,1564154459340,-1,1.99,0.78,0.46,1.23,0.94,1.16,0.83,0.46,-33,-4,-47,1.43,5926,15,102,45,52,859,339.0,446,466,60,121.0,181,1,370,241,54,0,0,338,-122,110,294,-5.59,,,,,,,,,,,,
63323,1564154459360,-2,2.0,0.78,0.46,1.22,0.94,1.2,0.82,0.44,-33,-2,-47,1.46,5950,15,102,45,52,860,338.0,443,462,60,121.0,181,1,372,241,54,0,0,570,2560,21760,295,-5.59,,,,,,,,,,,,
63343,1564154459380,-1,2.01,0.78,0.46,1.22,0.94,1.24,0.84,0.49,-33,-1,-47,1.5,5980,15,102,45,52,861,337.0,450,466,60,120.0,181,1,377,241,54,0,0,570,2560,95,295,-5.59,44.680908,10.024536,30.74,179.6,0,0.0,-1,0.0,0.0,0,0.19,1.0557
63363,1564154459400,-2,2.02,0.78,0.46,1.23,0.94,1.27,0.8,0.54,-32,-1,-48,1.5,5996,15,102,45,52,863,337.0,452,466,60,122.0,181,1,376,236,54,0,0,330,-31222,100,298,-5.59,,,,,,,,,,,,
63383,1564154459420,-1,2.04,0.79,0.47,1.23,0.95,1.31,0.79,0.56,-31,-1,-48,1.53,5998,15,102,45,52,866,337.0,454,463,60,122.0,181,1,376,241,54,0,0,332,2560,28160,297,-5.59,,,,,,,,,,,,
63403,1564154459440,-0,2.06,0.79,0.46,1.24,0.94,1.38,0.78,0.59,-30,-2,-48,1.58,5965,17,102,45,52,871,334.0,452,463,60,121.0,181,1,373,236,54,0,0,334,4838,110,299,-5.59,,,,,,,,,,,,
63423,1564154459460,0,2.09,0.79,0.46,1.24,0.95,1.39,0.74,0.58,-29,-2,-47,1.57,5939,23,102,45,53,874,336.0,450,461,60,122.0,181,1,374,241,54,0,0,334,13,120,300,-5.59,,,,,,,,,,,,
63443,1564154459480,-0,2.12,0.79,0.47,1.23,0.95,1.41,0.72,0.55,-28,-2,-46,1.58,5931,30,102,45,56,877,335.0,452,465,60,121.0,181,1,377,252,54,0,0,334,3346,115,303,-5.59,44.680904,10.024546,30.86,179.6,0,0.0,-1,0.0,0.0,0,0.19,1.0574
63463,1564154459499,-0,2.14,0.79,0.47,1.24,0.95,1.39,0.67,0.5,-27,-1,-44,1.55,5969,36,102,45,60,880,334.0,453,462,60,121.0,184,1,378,248,56,0,0,332,4838,115,304,-5.59,,,,,,,,,,,,
63483,1564154459519,-0,2.16,0.8,0.47,1.25,0.95,1.37,0.64,0.49,-26,1,-43,1.52,6042,42,102,45,64,884,331.0,457,462,60,121.0,184,1,373,269,56,0,0,333,-12032,125,306,-5.59,,,,,,,,,,,,
63503,1564154459539,-1,2.16,0.8,0.47,1.24,0.96,1.42,0.64,0.5,-25,1,-41,1.56,6079,47,102,45,69,885,331.0,457,465,60,120.0,184,1,359,318,56,0,0,333,-12032,140,306,-5.59,,,,,,,,,,,,
63523,1564154459559,-2,2.17,0.8,0.47,1.24,0.96,1.43,0.61,0.56,-23,0,-40,1.56,6085,53,102,45,74,886,331.0,462,461,60,120.0,184,1,353,380,56,0,0,332,-12032,-30976,308,-5.59,,,,,,,,,,,,
63543,1564154459579,-0,2.18,0.8,0.47,1.25,0.95,1.43,0.59,0.61,-22,1,-40,1.55,6065,55,102,45,78,890,332.0,467,465,60,120.0,184,1,349,439,56,0,0,333,-32559,-29696,310,648.46,44.680904,10.024557,31.01,179.6,0,0.0,-1,0.0,0.0,0,0.2,1.059
63563,1564154459599,-0,2.17,0.8,0.47,1.24,0.96,1.43,0.53,0.67,-22,2,-38,1.53,6077,57,102,45,81,893,332.0,465,463,60,120.0,331,1,348,456,103,0,0,332,-32559,-28416,311,-5.59,,,,,,,,,,,,
63583,1564154459619,-0,2.18,0.81,0.48,1.25,0.96,1.44,0.5,0.67,-22,-0,-36,1.52,6264,57,102,45,83,897,332.0,465,464,60,121.0,331,1,352,465,103,0,0,335,-32559,-24576,313,-5.59,,,,,,,,,,,,
63603,1564154459639,2,2.17,0.81,0.48,1.25,0.96,1.25,0.39,0.67,-22,-1,-34,1.31,6423,57,102,45,83,903,333.0,474,460,60,123.0,331,1,357,474,103,0,0,337,4838,160,315,-5.59,,,,,,,,,,,,
63623,1564154459659,-0,2.17,0.81,0.48,1.25,0.97,1.19,0.48,0.65,-20,1,-33,1.28,6510,58,102,45,84,930,336.0,472,465,60,122.0,331,1,358,480,103,0,0,341,13,-22016,316,-5.59,,,,,,,,,,,,
63643,1564154459679,2,2.17,0.81,0.48,1.25,0.97,1.18,0.47,0.69,-20,2,-30,1.27,6510,58,102,45,85,976,338.0,482,464,60,121.0,331,1,356,484,103,0,0,342,-31222,-30438,321,-5.59,44.680904,10.024568,32.11,179.5,0,0.0,-1,0.0,0.0,0,0.2,1.0607
63663,1564154459699,3,2.16,0.81,0.48,1.25,0.96,1.11,0.41,0.71,-19,-0,-29,1.18,6505,58,102,45,85,1020,339.0,483,462,60,123.0,369,1,356,484,119,0,0,346,-122,-29302,324,-5.59,,,,,,,,,,,,
63683,1564154459719,1,2.16,0.81,0.48,1.25,0.96,1.06,0.51,0.72,-18,-2,-27,1.18,6542,58,102,45,85,1062,343.0,485,467,60,121.0,369,1,357,484,119,0,0,350,-14714,-29302,327,-5.59,,,,,,,,,,,,
63703,1564154459739,2,2.17,0.81,0.48,1.26,0.96,0.97,0.4,0.84,-17,-2,-27,1.05,6623,58,102,45,85,1107,348.0,492,461,60,121.0,369,1,361,491,119,0,0,354,-1246,-30438,331,-5.59,,,,,,,,,,,,
63723,1564154459759,-0,2.17,0.81,0.47,1.25,0.96,0.9,0.4,0.8,-16,1,-27,0.98,6653,58,102,45,86,1142,350.0,490,465,60,122.0,369,1,360,488,119,0,0,358,-30454,2060,336,-5.59,,,,,,,,,,,,
63743,1564154459779,3,2.16,0.81,0.48,1.26,0.96,0.92,0.35,0.84,-16,-2,-26,0.99,6710,58,102,45,85,1185,352.0,498,460,60,119.0,369,1,364,489,119,0,0,361,3183,-29302,337,-5.59,44.680901,10.024578,32.01,179.5,0,0.0,-1,0.0,0.0,0,0.2,1.0624
63763,1564154459801,-1,2.17,0.82,0.48,1.26,0.96,0.84,0.43,0.83,-16,-1,-26,0.94,6788,58,102,45,85,1193,357.0,498,463,60,122.0,368,1,368,491,125,0,0,363,-6640,-14707,340,-5.59,,,,,,,,,,,,
63783,1564154459821,1,2.17,0.82,0.48,1.26,0.97,0.93,0.3,0.91,-16,-2,-24,0.98,6883,58,102,45,86,1192,359.0,509,465,60,121.0,368,1,370,497,125,0,0,368,-14707,-6656,344,-5.59,,,,,,,,,,,,
63803,1564154459841,0,2.18,0.81,0.48,1.25,0.97,0.84,0.37,0.91,-15,-0,-24,0.92,6978,58,102,45,85,1173,364.0,512,465,60,121.0,368,1,375,496,125,0,0,372,-1268,-19126,347,-5.59,,,,,,,,,,,,
63823,1564154459861,0,2.17,0.81,0.48,1.25,0.97,0.78,0.44,0.97,-15,-1,-24,0.9,7075,58,102,45,84,1157,367.0,521,460,60,123.0,368,1,382,492,125,0,0,376,0,-992,351,-5.59,,,,,,,,,,,,
63843,1564154459881,-0,2.16,0.82,0.48,1.25,0.97,0.88,0.44,0.98,-16,-1,-22,0.98,7217,59,102,45,84,1141,371.0,538,465,60,121.0,368,1,390,494,125,0,0,380,257,770,354,-5.59,44.680901,10.02459,33.24,179.4,0,0.0,-1,0.0,0.0,0,0.2,1.064
63863,1564154459897,1,2.16,0.82,0.48,1.26,0.97,0.85,0.27,1.07,-16,-1,-22,0.89,7284,59,102,45,84,1120,376.0,537,461,60,120.0,382,1,394,429,136,0,0,385,3,-6656,357,-5.59,,,,,,,,,,,,
63883,1564154459917,3,2.16,0.82,0.48,1.26,0.96,0.81,0.13,1.1,-16,1,-23,0.82,7315,59,102,46,83,1079,380.0,532,463,60,121.0,382,1,398,489,136,0,0,389,-992,-6475,360,-5.59,,,,,,,,,,,,
63903,1564154459937,3,2.15,0.82,0.48,1.25,0.97,0.79,0.2,1.03,-15,1,-21,0.81,7387,59,102,46,83,1036,382.0,546,462,60,121.0,382,1,400,489,136,0,0,392,19125,-4059,364,-5.59,,,,,,,,,,,,
63923,1564154459957,1,2.15,0.82,0.48,1.26,0.97,0.62,0.13,0.98,-15,1,-21,0.63,7437,59,102,45,83,1014,388.0,545,465,60,121.0,382,1,403,482,136,0,0,400,-31744,-6524,370,-5.59,,,,,,,,,,,,
63943,1564154459977,3,2.14,0.82,0.48,1.26,0.97,0.57,0.23,1.0,-15,2,-21,0.62,7527,59,102,45,82,985,392.0,547,462,60,122.0,382,1,409,483,136,0,0,404,1,-32702,373,-5.59,44.680901,10.024602,35.36,179.4,0,0.0,-1,0.0,0.0,0,0.2,1.0657
63963,1564154459991,0,2.14,0.82,0.48,1.26,0.97,0.51,0.12,0.92,-15,2,-21,0.52,7572,59,102,45,81,959,397.0,539,463,60,121.0,364,1,412,475,136,0,0,406,-3968,11560,377,-5.59,,,,,,,,,,,,
63983,1564154460011,-0,2.15,0.82,0.48,1.25,0.97,0.64,0.15,0.93,-16,2,-21,0.65,7665,59,102,45,81,916,399.0,552,463,60,121.0,364,1,418,476,136,0,0,409,28696,10392,381,-5.59,,,,,,,,,,,,
64003,1564154460031,1,2.15,0.82,0.48,1.26,0.97,0.73,0.03,1.02,-17,2,-21,0.73,7776,59,102,45,80,903,404.0,562,463,60,121.0,364,1,424,468,136,0,0,414,1504,-21792,385,-5.59,,,,,,,,,,,,
64023,1564154460051,2,2.15,0.82,0.48,1.25,0.97,0.64,0.23,0.93,-16,-1,-20,0.68,7848,59,102,45,79,893,409.0,563,462,60,122.0,364,1,429,461,136,0,0,422,11560,5600,388,-5.59,,,,,,,,,,,,
64043,1564154460071,-0,2.16,0.82,0.48,1.26,0.97,0.53,0.32,0.87,-16,1,-22,0.62,8036,59,102,45,78,878,415.0,565,465,60,122.0,364,1,438,455,136,0,0,425,18584,5600,392,-5.59,44.680897,10.024614,36.56,179.4,0,0.0,-1,0.0,0.0,0,0.2,1.0674
64063,1564154460097,1,2.15,0.83,0.48,1.26,0.97,0.59,0.37,0.86,-16,3,-21,0.7,8223,59,102,45,77,868,419.0,581,465,60,121.0,356,1,433,441,141,0,0,429,-3414,-21792,398,-5.59,,,,,,,,,,,,
64083,1564154460117,-0,2.16,0.83,0.48,1.27,0.97,0.54,0.35,0.78,-16,2,-21,0.65,8281,59,102,45,73,867,424.0,590,462,60,122.0,356,1,435,423,141,0,0,439,-4082,2524,399,-5.59,,,,,,,,,,,,
64103,1564154460137,2,2.15,0.82,0.48,1.26,0.97,0.48,0.43,0.86,-17,1,-21,0.65,8393,59,102,45,72,868,429.0,607,461,60,121.0,356,1,433,416,141,0,0,443,3635,17628,402,-5.59,,,,,,,,,,,,
64123,1564154460157,1,2.15,0.83,0.48,1.26,0.97,0.61,0.28,0.97,-18,0,-22,0.67,8507,59,102,45,71,869,430.0,601,465,60,121.0,356,1,430,400,141,0,0,449,-3314,-3856,406,-5.59,,,,,,,,,,,,
64143,1564154460177,-1,2.16,0.83,0.48,1.25,0.97,0.53,0.37,0.86,-17,1,-20,0.65,8480,60,103,45,70,872,435.0,607,465,60,121.0,356,1,432,396,141,0,0,458,-7939,-8985,413,-5.59,44.680897,10.024628,38.76,179.3,0,0.0,-1,0.0,0.0,0,0.2,1.069
64163,1564154460199,2,2.17,0.82,0.48,1.26,0.97,0.51,0.45,0.89,-17,2,-21,0.68,8472,60,102,45,69,874,444.0,609,466,60,121.0,304,1,434,380,127,0,0,459,21432,243,420,-5.59,,,,,,,,,,,,
64183,1564154460219,1,2.19,0.82,0.48,1.27,0.97,0.62,0.25,1.0,-18,1,-22,0.67,8468,60,103,45,68,875,447.0,597,467,60,122.0,304,1,434,386,127,0,0,460,15649,-18108,426,-5.59,,,,,,,,,,,,
64203,1564154460239,-1,2.21,0.83,0.48,1.26,0.98,0.52,0.35,0.92,-17,1,-21,0.63,8503,60,102,45,69,890,451.0,597,462,60,122.0,304,1,432,381,127,0,0,465,3571,-3267,427,-5.59,,,,,,,,,,,,
64223,1564154460259,3,2.21,0.83,0.48,1.26,0.97,0.42,0.51,0.9,-15,1,-22,0.66,8581,60,102,45,69,915,453.0,605,463,60,121.0,304,1,429,372,127,0,0,468,-8985,-23623,431,-5.59,,,,,,,,,,,,
64243,1564154460279,3,2.22,0.82,0.48,1.26,0.98,0.49,0.47,0.97,-15,-0,-22,0.68,8672,60,102,45,67,930,456.0,597,465,60,121.0,304,1,428,367,127,0,0,472,14488,-18108,437,-5.59,44.680897,10.024642,40.6,179.3,0,0.0,-1,0.0,0.0,0,0.2,1.0707
64263,1564154460299,0,2.23,0.83,0.48,1.26,0.98,0.65,0.23,1.03,-16,-1,-22,0.68,8765,60,103,45,67,953,459.0,603,466,60,122.0,277,1,421,373,122,0,0,475,-18108,243,443,-5.59,,,,,,,,,,,,
64283,1564154460319,2,2.21,0.83,0.48,1.27,0.97,0.7,0.12,1.02,-16,-2,-21,0.72,8852,60,103,45,67,975,462.0,613,463,60,122.0,277,1,417,373,122,0,0,473,12552,243,448,-5.59,,,,,,,,,,,,
64303,1564154460339,2,2.22,0.83,0.48,1.26,0.98,0.63,-0.04,0.95,-16,-1,-19,0.63,8898,60,103,45,66,1017,469.0,622,465,60,122.0,277,1,414,374,122,0,0,474,10432,32033,451,-5.59,,,,,,,,,,,,
64323,1564154460359,-0,2.23,0.83,0.48,1.26,0.98,0.53,0.06,0.89,-15,2,-19,0.53,8988,60,102,45,66,1034,470.0,616,467,60,122.0,277,1,409,363,122,0,0,476,8488,-10483,453,-5.59,,,,,,,,,,,,
64343,1564154460379,0,2.24,0.83,0.49,1.26,0.98,0.49,-0.08,0.87,-14,2,-20,0.5,9097,60,102,45,66,1049,473.0,645,462,60,121.0,277,1,409,363,122,0,0,483,3576,248,458,-5.59,44.680897,10.024657,43.27,179.3,0,0.0,-1,0.0,0.0,0,0.2,1.0724
64363,1564154460399,2,2.23,0.83,0.49,1.27,0.98,0.5,-0.21,0.96,-13,0,-20,0.54,9186,60,103,45,66,1073,476.0,633,466,60,121.0,276,1,410,369,127,0,0,484,-23367,8488,462,-5.59,,,,,,,,,,,,
64383,1564154460419,2,2.25,0.84,0.48,1.27,0.98,0.65,-0.39,1.06,-14,-3,-21,0.76,9263,60,103,45,65,1091,477.0,633,463,60,121.0,276,1,410,369,127,0,0,492,2212,3,468,-5.59,,,,,,,,,,,,
64403,1564154460439,-1,2.25,0.84,0.49,1.26,0.99,0.69,-0.28,1.04,-13,-1,-19,0.74,9323,60,103,45,65,1111,483.0,638,463,60,120.0,276,1,411,364,127,0,0,500,3580,-32768,472,-5.59,,,,,,,,,,,,
64423,1564154460459,1,2.25,0.84,0.49,1.27,0.99,0.47,-0.05,0.82,-12,-2,-16,0.47,9360,60,103,45,66,1117,488.0,645,462,60,121.0,276,1,413,364,127,0,0,501,1,10408,477,-5.59,,,,,,,,,,,,
64443,1564154460479,2,2.25,0.84,0.49,1.28,0.99,0.52,-0.1,0.9,-12,0,-18,0.53,9412,60,103,45,65,1123,491.0,640,460,60,121.0,276,1,412,364,127,0,0,505,248,6274,481,-5.59,44.680901,10.024673,44.99,179.3,0,0.0,-1,0.0,0.0,0,0.2,1.074
64463,1564154460500,3,2.25,0.84,0.49,1.28,0.98,0.63,-0.23,1.01,-12,-1,-18,0.67,9455,60,103,45,65,1127,494.0,629,461,60,121.0,271,1,414,364,131,0,0,510,3,-9216,483,-5.59,,,,,,,,,,,,
64483,1564154460520,1,2.25,0.84,0.49,1.28,0.99,0.45,-0.01,0.85,-11,2,-15,0.45,9546,60,103,45,65,1128,499.0,635,468,60,121.0,271,1,414,369,131,0,0,509,-22519,17136,488,-5.59,,,,,,,,,,,,
64503,1564154460540,3,2.25,0.84,0.49,1.28,0.99,0.5,-0.02,0.8,-11,-1,-15,0.5,9595,60,103,45,64,1122,499.0,643,463,60,121.0,271,1,414,367,131,0,0,518,-22519,-3856,493,-5.59,,,,,,,,,,,,
64523,1564154460560,0,2.25,0.84,0.49,1.28,0.99,0.58,0.06,0.88,-10,-2,-15,0.58,9659,60,103,45,64,1111,504.0,648,464,60,120.0,271,1,413,373,131,0,0,518,-32248,16383,496,-5.59,,,,,,,,,,,,
64543,1564154460580,1,2.26,0.84,0.49,1.27,0.99,0.56,0.09,0.84,-10,-1,-14,0.57,9689,60,103,45,64,1096,509.0,652,463,60,119.0,271,1,412,375,131,0,0,520,10994,10408,498,-5.59,44.680901,10.024689,48.04,179.2,0,0.0,-1,0.0,0.0,0,0.21,1.0757
64563,1564154460600,-0,2.25,0.84,0.49,1.27,0.98,0.65,0.04,0.92,-11,-1,-14,0.65,9745,60,103,45,63,1077,511.0,655,464,60,121.0,280,1,411,373,140,0,0,526,-3856,-9212,503,-5.59,,,,,,,,,,,,
64583,1564154460620,3,2.25,0.84,0.49,1.27,0.98,0.65,-0.01,0.91,-10,-1,-14,0.65,9868,60,103,45,63,1057,516.0,656,465,60,121.0,280,1,409,381,140,0,0,528,16383,2524,503,-5.59,,,,,,,,,,,,
64603,1564154460640,2,2.24,0.85,0.49,1.28,0.98,0.55,-0.05,0.87,-10,1,-15,0.55,9910,58,103,45,63,1045,520.0,645,463,60,121.0,280,1,407,384,140,0,0,532,1248,-28648,508,-5.59,,,,,,,,,,,,
64623,1564154460660,0,2.24,0.84,0.49,1.28,0.98,0.61,-0.06,0.98,-10,1,-15,0.61,9994,54,103,45,61,1029,521.0,657,461,60,120.0,280,1,410,375,140,0,0,537,-9212,-3082,510,-5.59,,,,,,,,,,,,
64643,1564154460680,3,2.23,0.85,0.49,1.27,0.99,0.62,-0.11,0.97,-10,0,-14,0.63,10091,49,103,45,59,1014,526.0,647,467,60,121.0,280,1,411,358,140,0,0,540,-32248,-8186,515,-5.59,44.680904,10.024706,48.92,179.2,0,0.0,-1,0.0,0.0,0,0.21,1.0774
64663,1564154460700,2,2.21,0.84,0.49,1.28,0.98,0.6,-0.11,1.01,-11,2,-14,0.61,10075,44,103,45,57,1014,529.0,653,464,60,120.0,259,1,406,343,134,0,0,542,-9072,-3082,519,-5.59,,,,,,,,,,,,
64683,1564154460720,1,2.2,0.85,0.49,1.27,0.99,0.63,-0.1,1.03,-11,1,-14,0.64,10080,40,103,45,55,1011,534.0,646,463,60,122.0,259,1,402,325,134,0,0,547,-32248,-8186,519,-5.59,,,,,,,,,,,,
64703,1564154460740,1,2.19,0.84,0.49,1.28,0.98,0.77,0.01,1.13,-12,0,-14,0.77,10113,39,103,45,53,1005,535.0,653,463,60,121.0,259,1,397,307,134,0,0,545,6274,-32248,522,-5.59,,,,,,,,,,,,
64723,1564154460760,1,2.18,0.84,0.49,1.27,0.98,0.79,0.06,1.14,-13,-0,-15,0.79,10032,38,103,45,52,997,539.0,654,467,60,121.0,259,1,394,297,134,0,0,546,1780,1779,522,-5.59,,,,,,,,,,,,
64743,1564154460780,2,2.18,0.83,0.49,1.28,0.98,0.75,0.1,1.08,-13,-2,-17,0.75,10032,38,103,45,51,989,542.0,658,465,60,122.0,259,1,391,286,134,0,0,548,-3082,1780,523,-5.59,44.680904,10.024723,50.9,179.2,0,0.0,-1,0.0,0.0,0,0.21,1.079
64763,1564154460800,-1,2.19,0.83,0.49,1.27,0.97,0.87,0.16,1.09,-14,-3,-16,0.89,10000,38,103,45,51,975,544.0,657,463,60,120.0,207,1,391,277,108,0,0,544,-506,-8962,522,-5.59,,,,,,,,,,,,
64783,1564154460820,0,2.19,0.83,0.48,1.28,0.97,0.89,0.14,1.12,-15,-3,-18,0.9,9910,38,103,45,51,954,545.0,656,469,60,120.0,207,1,391,285,108,0,0,548,-8962,-2934,523,-5.59,,,,,,,,,,,,
64803,1564154460840,1,2.18,0.84,0.48,1.26,0.97,0.88,0.21,1.04,-16,-3,-18,0.91,9904,38,103,45,50,925,546.0,659,467,60,122.0,207,1,388,275,108,0,0,553,2524,-32248,523,-5.59,,,,,,,,,,,,
64823,1564154460860,3,2.18,0.83,0.48,1.27,0.97,1.0,0.18,1.1,-16,-5,-19,1.01,9873,38,103,45,50,898,548.0,656,462,60,122.0,207,1,388,275,108,0,0,550,14504,2524,522,-5.59,,,,,,,,,,,,
64843,1564154460880,1,2.18,0.83,0.48,1.27,0.98,0.87,0.32,0.97,-16,-2,-20,0.93,9786,38,103,45,50,875,547.0,657,466,60,120.0,207,1,388,274,108,0,0,547,-506,6274,522,-5.59,44.680904,10.024741,52.21,179.2,0,0.0,-1,0.0,0.0,0,0.21,1.0807
64863,1564154460900,1,2.19,0.83,0.48,1.27,0.98,0.97,0.22,1.02,-17,-4,-21,1.0,9750,38,103,45,50,851,547.0,645,468,60,122.0,193,1,388,274,101,0,0,548,-22519,6274,521,-5.59,,,,,,,,,,,,
64883,1564154460920,2,2.18,0.83,0.48,1.27,0.97,0.78,0.38,0.83,-17,-1,-20,0.86,9816,38,103,45,50,812,547.0,648,465,60,120.0,193,1,388,274,101,0,0,549,-22519,2524,520,-5.59,,,,,,,,,,,,
64903,1564154460940,2,2.2,0.84,0.48,1.28,0.97,0.9,0.41,0.85,-17,-1,-21,0.99,9811,38,103,44,50,804,547.0,654,461,60,121.0,193,1,388,274,101,0,0,545,-22519,-22519,521,-5.59,,,,,,,,,,,,
64923,1564154460960,2,2.21,0.83,0.47,1.27,0.97,0.7,0.55,0.71,-17,-2,-21,0.89,9811,38,103,44,50,793,547.0,647,467,60,122.0,193,1,388,274,101,0,0,545,2524,-22519,523,-5.59,,,,,,,,,,,,
64943,1564154460980,1,2.23,0.83,0.48,1.28,0.97,0.77,0.6,0.72,-16,-0,-23,0.97,9868,38,103,44,50,783,546.0,655,460,60,121.0,193,1,388,275,101,0,0,550,2524,-9212,518,-5.59,44.680908,10.024758,52.96,179.2,0,0.0,-1,0.0,0.0,0,0.21,1.0824
64963,1564154461000,3,2.24,0.84,0.48,1.28,0.98,0.82,0.62,0.7,-16,-2,-22,1.03,10000,38,103,44,50,773,543.0,655,459,60,120.0,198,1,388,277,103,0,0,542,1779,1248,520,-5.59,,,,,,,,,,,,
64983,1564154461010,2,2.25,0.84,0.48,1.27,0.97,0.72,0.6,0.65,-15,-2,-23,0.94,10064,38,103,44,49,775,542.0,658,462,60,120.0,198,1,385,267,103,0,0,541,-3082,-32248,521,-5.59,,,,,,,,,,,,
65003,1564154461030,1,2.26,0.84,0.48,1.27,0.97,0.62,0.65,0.46,-14,-2,-22,0.9,10179,38,103,44,49,778,541.0,656,462,60,122.0,198,1,385,267,103,0,0,539,-2336,1248,524,-5.59,,,,,,,,,,,,
65023,1564154461050,1,2.27,0.83,0.49,1.27,0.98,0.58,0.73,0.23,-13,0,-21,0.93,10330,38,103,44,49,781,539.0,662,460,60,121.0,198,1,385,268,103,0,0,542,1780,-28648,524,-5.59,,,,,,,,,,,,
65043,1564154461070,1,2.27,0.84,0.49,1.28,0.98,0.65,0.79,0.17,-12,1,-20,1.02,10393,38,103,44,49,784,539.0,660,465,60,121.0,198,1,385,269,103,0,0,540,-30064,2524,521,-5.59,44.680912,10.024776,52.49,179.2,0,0.0,-1,0.0,0.0,0,0.21,1.084
65063,1564154461100,1,2.26,0.84,0.48,1.28,0.98,0.69,0.89,0.2,-11,-3,-17,1.13,10504,38,103,44,49,784,534.0,661,463,60,120.0,202,1,385,269,106,0,0,537,-32248,2104,524,-5.59,,,,,,,,,,,,
65083,1564154461120,0,2.27,0.84,0.49,1.28,0.99,0.63,1.0,0.17,-10,1,-16,1.18,10474,38,103,44,49,784,535.0,676,466,60,120.0,202,1,385,269,106,0,0,546,6274,1780,525,-5.59,,,,,,,,,,,,
65103,1564154461140,1,2.26,0.85,0.5,1.27,0.99,0.67,1.1,0.13,-9,1,-15,1.29,10445,38,103,44,49,782,539.0,661,463,60,120.0,202,1,385,269,106,0,0,547,1780,-3082,527,-5.59,,,,,,,,,,,,
65123,1564154461160,0,2.26,0.85,0.49,1.28,0.98,0.64,1.08,0.24,-8,0,-14,1.26,10268,38,103,44,49,779,541.0,666,464,60,120.0,202,1,385,268,106,0,0,554,-2336,6274,528,-5.59,,,,,,,,,,,,
65143,1564154461180,2,2.27,0.85,0.5,1.28,0.99,0.67,0.91,0.29,-8,3,-14,1.13,10217,38,103,44,49,776,543.0,651,466,60,121.0,202,1,385,268,106,0,0,550,1779,-8962,531,-5.59,44.68092,10.024794,52.2,179.1,0,0.0,-1,0.0,0.0,0,0.21,1.0857
65163,1564154461200,2,2.28,0.85,0.49,1.29,0.99,0.63,0.75,0.39,-8,3,-15,0.98,10129,38,103,44,49,773,543.0,669,466,60,120.0,191,1,385,267,102,0,0,554,-506,2216,534,-5.59,,,,,,,,,,,,
65183,1564154461220,1,2.28,0.85,0.49,1.29,0.99,0.58,0.67,0.35,-7,2,-14,0.89,10146,38,103,44,48,771,544.0,658,464,60,121.0,191,1,382,257,102,0,0,550,-506,14504,535,-5.59,,,,,,,,,,,,
65203,1564154461240,-0,2.28,0.85,0.5,1.27,0.99,0.72,0.75,0.42,-7,0,-12,1.04,10234,38,103,44,48,769,545.0,660,465,60,120.0,191,1,382,257,102,0,0,545,-8962,-22519,535,-5.59,,,,,,,,,,,,
65223,1564154461260,1,2.29,0.85,0.5,1.29,0.99,0.78,0.78,0.58,-6,-1,-12,1.1,10257,38,103,44,48,769,546.0,667,462,60,121.0,191,1,382,257,102,0,0,551,2524,-32248,538,-5.59,,,,,,,,,,,,
65243,1564154461280,4,2.29,0.85,0.5,1.28,1.0,0.85,0.73,0.71,-6,0,-12,1.12,10364,38,103,44,48,770,547.0,664,465,60,120.0,191,1,382,257,102,0,0,552,-22519,-22519,541,-5.59,44.680923,10.024811,52.55,179.1,0,0.0,-1,0.0,0.0,0,0.22,1.0874
65263,1564154461302,1,2.29,0.85,0.5,1.29,1.0,0.79,0.51,0.81,-6,-1,-12,0.94,10347,38,103,44,48,777,549.0,660,465,60,120.0,184,1,382,257,100,0,0,551,14504,-22263,543,-5.59,,,,,,,,,,,,
65283,1564154461322,3,2.26,0.85,0.5,1.29,0.99,0.74,0.26,0.9,-6,-1,-12,0.79,10376,38,103,44,48,784,548.0,654,463,60,120.0,184,1,382,257,100,0,0,559,14504,-22359,541,-5.59,,,,,,,,,,,,
65303,1564154461342,3,2.26,0.86,0.5,1.29,0.99,0.71,0.09,0.91,-6,3,-15,0.71,10370,38,103,44,48,796,551.0,664,466,60,120.0,184,1,382,257,100,0,0,560,6274,2524,543,-5.59,,,,,,,,,,,,
65323,1564154461362,2,2.25,0.85,0.49,1.3,0.99,0.76,0.04,0.88,-7,2,-14,0.76,10451,38,103,44,48,802,553.0,660,463,60,120.0,184,1,382,257,100,0,0,553,-9072,2524,545,-5.59,,,,,,,,,,,,
65343,1564154461382,2,2.25,0.85,0.5,1.29,0.99,0.59,0.01,0.79,-7,1,-13,0.59,10474,38,103,44,48,812,552.0,657,466,60,121.0,184,1,382,257,100,0,0,560,-9072,2216,544,-5.59,44.680927,10.024827,53.18,179.1,0,0.0,-1,0.0,0.0,0,0.22,1.0891
65363,1564154461402,1,2.24,0.85,0.5,1.29,0.99,0.53,0.01,0.64,-7,4,-14,0.53,10492,38,103,44,48,825,554.0,661,466,60,121.0,187,1,382,257,102,0,0,560,2524,-30159,543,-5.59,,,,,,,,,,,,
65383,1564154461422,2,2.23,0.86,0.5,1.3,1.0,0.54,-0.13,0.6,-8,3,-15,0.55,10510,38,103,44,48,832,558.0,663,466,60,120.0,187,1,382,257,102,0,0,566,-32504,-30159,547,-5.59,,,,,,,,,,,,
65403,1564154461442,1,2.24,0.85,0.5,1.29,1.0,0.53,-0.15,0.59,-9,3,-16,0.55,10527,38,103,44,48,835,557.0,658,462,60,121.0,187,1,382,257,102,0,0,561,2216,-18032,545,-5.59,,,,,,,,,,,,
65423,1564154461462,2,2.23,0.85,0.49,1.28,0.99,0.46,-0.09,0.46,-9,3,-16,0.47,10504,38,103,44,48,838,560.0,663,465,60,120.0,187,1,382,257,102,0,0,565,-28648,-8186,547,-5.59,,,,,,,,,,,,
65443,1564154461482,2,2.22,0.85,0.49,1.29,0.99,0.45,-0.14,0.45,-9,2,-16,0.47,10521,38,103,44,48,839,559.0,660,466,60,120.0,187,1,382,257,102,0,0,565,6273,12552,546,-5.59,44.680935,10.024845,54.08,179.0,0,0.0,-1,0.0,0.0,0,0.22,1.0907
65463,1564154461501,1,2.21,0.85,0.5,1.29,1.0,0.45,-0.29,0.53,-10,4,-18,0.54,10545,38,103,44,48,840,563.0,662,465,60,120.0,186,1,382,257,102,0,0,566,-23623,6273,547,-5.59,,,,,,,,,,,,
65483,1564154461521,1,2.2,0.86,0.5,1.29,0.99,0.55,-0.27,0.58,-10,6,-19,0.61,10617,38,103,44,48,840,565.0,656,461,60,122.0,186,1,382,257,102,0,0,569,-30159,-8186,551,-5.59,,,,,,,,,,,,
65503,1564154461541,2,2.21,0.86,0.49,1.29,0.99,0.54,-0.36,0.72,-11,3,-19,0.65,10605,38,103,44,48,840,565.0,673,467,60,121.0,186,1,382,270,102,0,0,571,-30159,-8186,549,-5.59,,,,,,,,,,,,
65523,1564154461561,0,2.19,0.85,0.49,1.29,0.99,0.65,-0.39,0.85,-12,2,-19,0.76,10683,38,103,44,48,843,568.0,657,462,60,120.0,186,1,382,257,102,0,0,571,1780,-9072,548,-5.59,,,,,,,,,,,,
65543,1564154461581,1,2.19,0.85,0.49,1.3,0.99,0.71,-0.24,0.96,-12,4,-19,0.75,10647,38,103,44,49,846,569.0,667,467,60,120.0,186,1,385,270,102,0,0,574,-29984,-3190,549,-5.59,44.680943,10.024861,54.25,179.0,0,0.0,-1,0.0,0.0,0,0.22,1.0924
65563,1564154461601,-1,2.19,0.85,0.5,1.29,0.99,0.73,-0.01,0.87,-11,3,-18,0.73,10714,38,103,44,48,851,568.0,661,465,60,120.0,189,1,382,258,104,0,0,575,-8186,-23623,551,-5.59,,,,,,,,,,,,
65583,1564154461621,1,2.18,0.86,0.49,1.29,0.98,0.71,0.14,0.87,-12,3,-18,0.72,10629,38,103,44,48,854,571.0,667,465,60,121.0,189,1,382,257,104,0,0,569,-3190,1,551,-5.59,,,,,,,,,,,,
65603,1564154461641,2,2.18,0.85,0.49,1.29,0.99,0.69,0.32,0.62,-12,1,-17,0.76,10689,38,103,44,48,857,569.0,662,467,60,120.0,189,1,382,257,104,0,0,573,-29984,1,551,-5.59,,,,,,,,,,,,
65623,1564154461661,2,2.18,0.85,0.5,1.3,0.99,0.58,0.43,0.46,-12,0,-17,0.73,10683,38,103,44,48,859,572.0,663,462,60,121.0,189,1,382,270,104,0,0,580,-8188,-29984,552,-5.59,,,,,,,,,,,,
65643,1564154461681,1,2.18,0.85,0.49,1.29,0.99,0.57,0.22,0.51,-14,1,-19,0.62,10720,38,103,44,48,858,574.0,661,465,60,122.0,189,1,382,258,104,0,0,573,774,1267,551,-5.59,44.680946,10.024879,54.86,178.9,0,0.0,-1,0.0,0.0,0,0.22,1.0941
65663,1564154461701,1,2.16,0.86,0.49,1.29,0.99,0.69,0.26,0.59,-14,3,-20,0.74,10788,38,103,44,48,857,573.0,661,465,60,121.0,189,1,382,258,105,0,0,580,1760,243,551,-5.59,,,,,,,,,,,,
65683,1564154461721,-0,2.17,0.86,0.5,1.28,0.99,0.73,0.33,0.71,-14,2,-20,0.8,10769,38,103,44,48,854,579.0,665,466,60,122.0,189,1,382,258,105,0,0,578,243,774,553,-5.59,,,,,,,,,,,,
65703,1564154461741,2,2.17,0.85,0.49,1.28,1.0,0.72,0.5,0.69,-15,-2,-19,0.87,10869,38,103,44,48,853,579.0,657,466,60,121.0,189,1,382,258,105,0,0,583,243,-8188,550,-5.59,,,,,,,,,,,,
65723,1564154461761,1,2.17,0.86,0.49,1.29,0.99,0.6,0.58,0.51,-15,1,-20,0.83,10838,38,103,44,48,851,577.0,658,466,60,120.0,189,1,382,258,105,0,0,587,-16384,1760,552,-5.59,,,,,,,,,,,,
65743,1564154461781,3,2.17,0.85,0.49,1.29,0.99,0.67,0.35,0.64,-16,2,-22,0.76,10838,38,103,44,48,850,578.0,678,465,60,120.0,189,1,382,258,105,0,0,581,-3210,15649,554,-5.59,44.680954,10.024896,55.09,178.9,0,0.0,-1,0.0,0.0,0,0.22,1.0957
65763,1564154461801,1,2.17,0.86,0.49,1.3,0.99,0.74,0.52,0.74,-16,1,-22,0.91,10888,38,103,44,48,851,581.0,666,466,60,121.0,191,1,382,258,106,0,0,585,243,8488,556,-5.59,,,,,,,,,,,,
65783,1564154461821,0,2.19,0.86,0.5,1.29,0.99,0.73,0.64,0.67,-16,2,-22,0.97,10850,38,103,44,48,851,583.0,671,465,60,121.0,191,1,382,258,106,0,0,584,15649,-25872,555,-5.59,,,,,,,,,,,,
65803,1564154461841,3,2.18,0.86,0.5,1.3,0.99,0.67,0.71,0.47,-16,1,-22,0.98,10869,38,103,44,48,854,585.0,660,471,60,121.0,191,1,382,258,106,0,0,589,15649,-25872,559,-5.59,,,,,,,,,,,,
65823,1564154461861,0,2.19,0.86,0.49,1.3,0.99,0.74,0.48,0.62,-16,-0,-24,0.88,10932,38,103,44,48,855,583.0,659,462,60,121.0,191,1,382,258,106,0,0,585,15649,1760,557,-5.59,,,,,,,,,,,,
65843,1564154461881,1,2.2,0.86,0.49,1.3,0.99,0.71,0.58,0.76,-16,1,-23,0.92,10901,38,103,44,48,858,584.0,667,463,60,121.0,191,1,382,258,106,0,0,587,15649,-3210,558,-5.59,44.680962,10.024912,55.67,178.8,0,0.0,-1,0.0,0.0,0,0.23,1.0974
65863,1564154461901,2,2.21,0.86,0.5,1.29,0.99,0.65,0.65,0.55,-16,4,-24,0.92,10952,39,103,44,48,863,585.0,660,461,60,122.0,192,1,382,258,107,0,0,594,-25872,1760,559,-5.59,,,,,,,,,,,,
65883,1564154461921,2,2.21,0.86,0.49,1.3,0.99,0.72,0.6,0.47,-16,3,-25,0.94,10894,39,103,44,48,865,584.0,661,467,60,121.0,192,1,382,258,107,0,0,591,10432,15649,562,-5.59,,,,,,,,,,,,
65903,1564154461941,0,2.21,0.86,0.49,1.3,0.99,0.71,0.48,0.62,-16,0,-24,0.85,10888,39,103,44,48,867,583.0,669,467,60,121.0,192,1,382,258,107,0,0,589,15649,-12040,562,-5.59,,,,,,,,,,,,
65923,1564154461961,3,2.2,0.86,0.5,1.29,1.0,0.76,0.63,0.67,-15,-3,-22,0.99,10939,39,103,44,48,873,584.0,664,465,60,120.0,192,1,382,258,107,0,0,589,10432,-25872,566,-5.59,,,,,,,,,,,,
65943,1564154461981,3,2.19,0.86,0.5,1.3,0.99,0.66,0.75,0.4,-15,0,-21,1.0,10907,39,103,44,48,883,585.0,660,463,60,121.0,192,1,382,258,107,0,0,585,-25872,-25872,565,-5.59,44.680965,10.024928,55.9,178.8,0,0.0,-1,0.0,0.0,0,0.23,1.0991
65963,1564154461993,1,2.18,0.86,0.49,1.3,0.99,0.74,0.53,0.56,-15,1,-22,0.91,10926,39,103,44,48,888,585.0,664,463,60,121.0,187,1,382,258,106,0,0,594,-25872,10432,565,-5.59,,,,,,,,,,,,
65983,1564154462013,0,2.17,0.86,0.49,1.3,0.99,0.79,0.68,0.68,-15,0,-22,1.04,10997,39,103,44,48,897,586.0,663,463,60,121.0,187,1,382,258,106,0,0,586,-1894,2048,566,-5.59,,,,,,,,,,,,
66003,1564154462033,1,2.17,0.86,0.5,1.3,1.0,0.72,0.72,0.52,-16,1,-22,1.02,10952,39,103,44,48,903,589.0,665,462,60,122.0,187,1,382,258,106,0,0,596,2048,-25872,567,-5.59,,,,,,,,,,,,
66023,1564154462053,0,2.16,0.86,0.5,1.3,0.99,0.71,0.6,0.59,-17,1,-22,0.93,10990,39,103,44,48,914,590.0,675,465,60,121.0,187,1,382,258,106,0,0,593,-32504,10432,564,-5.59,,,,,,,,,,,,
66043,1564154462073,-0,2.16,0.86,0.5,1.3,0.99,0.84,0.74,0.73,-18,-2,-21,1.12,11068,39,103,44,48,919,590.0,662,464,60,120.0,187,1,382,258,106,0,0,589,6273,-4035,563,-5.59,44.680977,10.024944,56.1,178.7,0,0.0,-1,0.0,0.0,0,0.23,1.1007
66063,1564154462101,2,2.16,0.87,0.49,1.3,0.99,0.71,0.85,0.46,-18,-3,-21,1.11,11035,39,103,44,48,922,591.0,657,458,60,121.0,191,1,382,258,108,0,0,589,6273,-1894,563,-5.59,,,,,,,,,,,,
66083,1564154462121,-1,2.16,0.86,0.49,1.29,1.0,0.73,0.74,0.62,-19,-0,-23,1.04,11055,39,103,44,48,924,594.0,668,460,60,121.0,191,1,382,258,108,0,0,589,-13043,15649,565,-5.59,,,,,,,,,,,,
66103,1564154462141,2,2.15,0.86,0.5,1.29,1.0,0.7,0.86,0.44,-19,3,-21,1.11,11101,39,103,44,48,926,594.0,661,462,60,122.0,191,1,382,258,108,0,0,589,17344,243,565,-5.59,,,,,,,,,,,,
66123,1564154462161,2,2.16,0.86,0.5,1.29,1.0,0.78,0.81,0.41,-19,1,-23,1.13,11061,39,103,44,48,926,594.0,670,465,60,121.0,191,1,382,258,108,0,0,301,-13043,-28648,566,-5.59,,,,,,,,,,,,
66143,1564154462181,1,2.15,0.86,0.51,1.29,0.99,0.8,0.73,0.57,-20,0,-24,1.09,11081,39,103,44,48,924,596.0,672,470,60,120.0,191,1,382,258,108,0,0,606,3472,-12040,565,-5.59,44.680984,10.02496,56.55,178.7,0,0.0,-1,0.0,0.0,0,0.23,1.1024
66163,1564154462203,2,2.15,0.86,0.5,1.3,1.0,0.73,0.85,0.35,-20,-2,-23,1.13,11147,39,103,44,47,925,594.0,671,464,60,121.0,183,1,380,247,104,0,0,594,-13043,-28648,567,-5.59,,,,,,,,,,,,
66183,1564154462223,-1,2.16,0.86,0.49,1.29,0.99,0.85,0.69,0.52,-20,-2,-24,1.09,11154,39,103,44,47,928,595.0,659,462,60,121.0,183,1,380,247,104,0,0,707,-16179,-13043,566,-5.59,,,,,,,,,,,,
66203,1564154462243,3,2.16,0.86,0.5,1.29,0.99,0.72,0.82,0.34,-20,-1,-24,1.1,11120,39,103,44,47,933,595.0,666,464,60,121.0,183,1,380,258,104,0,0,603,23619,243,567,-5.59,,,,,,,,,,,,
66223,1564154462263,1,2.16,0.86,0.49,1.3,0.99,0.77,0.61,0.49,-20,0,-26,0.98,11194,39,103,44,47,938,597.0,665,464,60,121.0,183,1,380,247,104,0,0,603,23619,3472,567,-5.59,,,,,,,,,,,,
66243,1564154462283,0,2.17,0.86,0.5,1.3,0.99,0.77,0.75,0.43,-20,1,-26,1.07,11200,39,103,44,47,945,597.0,666,463,60,120.0,183,1,380,247,104,0,0,603,23619,3472,568,-5.59,44.680996,10.024974,56.82,178.6,0,0.0,-1,0.0,0.0,0,0.23,1.1041
66263,1564154462303,3,2.17,0.86,0.5,1.29,1.0,0.8,0.75,0.35,-20,3,-26,1.1,11220,39,103,44,47,959,597.0,665,463,60,121.0,184,1,380,247,105,0,0,597,23619,6273,568,-5.59,,,,,,,,,,,,
66283,1564154462323,2,2.18,0.86,0.5,1.3,1.0,0.81,0.75,0.51,-21,2,-26,1.11,11154,39,103,44,47,966,599.0,683,468,60,121.0,184,1,380,247,105,0,0,602,-3210,-16179,571,-5.59,,,,,,,,,,,,
66303,1564154462343,2,2.17,0.87,0.5,1.29,0.99,0.77,0.75,0.33,-21,-1,-27,1.07,11207,39,103,44,47,974,599.0,667,467,60,120.0,184,1,380,247,105,0,0,601,30227,-30139,570,-5.59,,,,,,,,,,,,
66323,1564154462363,0,2.18,0.87,0.49,1.3,1.0,0.86,0.77,0.49,-20,-2,-25,1.16,11227,39,103,44,47,981,600.0,666,464,60,121.0,184,1,380,247,105,0,0,602,-3210,-7939,573,-5.59,,,,,,,,,,,,
66343,1564154462383,2,2.17,0.86,0.49,1.3,1.0,0.79,0.82,0.25,-20,0,-26,1.14,11180,39,103,44,47,988,600.0,660,463,60,120.0,184,1,380,247,105,0,0,600,30227,208,571,-5.59,44.681004,10.024988,56.96,178.8,0,0.0,-1,0.0,0.0,0,0.23,1.1057
66363,1564154462403,1,2.17,0.87,0.5,1.3,0.99,0.83,0.84,0.43,-20,2,-26,1.18,11180,39,103,44,47,994,600.0,673,463,60,120.0,182,1,380,247,104,0,0,602,-3210,-13043,573,-5.59,,,,,,,,,,,,
66383,1564154462423,3,2.18,0.87,0.5,1.3,1.0,0.77,0.81,0.24,-20,2,-27,1.12,11220,39,103,44,47,997,601.0,670,463,60,122.0,182,1,380,247,104,0,0,600,243,2048,574,-5.59,,,,,,,,,,,,
66403,1564154462443,0,2.18,0.87,0.5,1.31,1.0,0.84,0.87,0.41,-20,4,-27,1.21,11214,39,103,44,47,999,601.0,666,463,60,122.0,182,1,380,247,104,0,0,607,243,5344,575,-5.59,,,,,,,,,,,,
66423,1564154462463,3,2.18,0.87,0.5,1.31,1.0,0.79,0.92,0.29,-20,3,-26,1.21,11180,39,103,44,47,1005,599.0,664,465,60,121.0,182,1,380,247,104,0,0,603,30227,3472,576,-5.59,,,,,,,,,,,,
66443,1564154462483,1,2.17,0.87,0.5,1.31,1.0,0.79,0.78,0.44,-20,3,-27,1.11,11207,39,103,44,47,1009,601.0,676,465,60,121.0,182,1,380,247,104,0,0,604,243,-23055,574,-5.59,44.681015,10.025002,57.19,178.9,0,0.0,-1,0.0,0.0,0,0.23,1.1074
66463,1564154462502,2,2.17,0.87,0.5,1.3,1.0,0.77,0.91,0.39,-20,-1,-25,1.19,11295,39,103,44,47,1013,601.0,678,465,60,121.0,182,1,380,247,105,0,0,610,-768,-32504,575,-5.59,,,,,,,,,,,,
66483,1564154462522,-0,2.19,0.86,0.5,1.3,1.01,0.86,0.68,0.54,-20,-2,-26,1.1,11268,40,103,44,47,1015,600.0,667,464,60,122.0,182,1,380,247,105,0,0,606,-3210,30227,578,-5.59,,,,,,,,,,,,
66503,1564154462542,2,2.19,0.86,0.5,1.3,1.01,0.68,0.81,0.35,-19,1,-26,1.06,11207,40,103,44,47,1022,603.0,674,463,60,121.0,182,1,380,247,105,0,0,611,-7939,-7939,576,-5.59,,,,,,,,,,,,
66523,1564154462562,0,2.2,0.87,0.5,1.31,1.0,0.74,0.62,0.51,-19,4,-27,0.97,11207,40,103,44,47,1026,601.0,680,463,60,120.0,182,1,380,247,105,0,0,608,243,30227,577,-5.59,,,,,,,,,,,,
66543,1564154462582,2,2.22,0.87,0.5,1.3,1.01,0.76,0.74,0.35,-19,3,-26,1.06,11261,40,103,44,47,1030,605.0,690,463,60,120.0,182,1,380,247,105,0,0,606,-3820,-13043,578,-5.59,44.681026,10.025014,57.37,178.9,0,0.0,-1,0.0,0.0,0,0.24,1.1091
66563,1564154462602,1,2.23,0.87,0.5,1.31,1.0,0.84,0.67,0.51,-19,2,-27,1.07,11274,40,103,44,47,1033,604.0,671,463,60,120.0,180,1,380,247,105,0,0,608,-23055,243,580,-5.59,,,,,,,,,,,,
66583,1564154462622,3,2.23,0.87,0.5,1.3,1.01,0.76,0.69,0.51,-18,1,-27,1.03,11214,40,103,44,47,1037,603.0,676,467,60,120.0,180,1,380,247,105,0,0,607,-7939,-3820,583,-5.59,,,,,,,,,,,,
66603,1564154462642,-0,2.24,0.87,0.5,1.3,1.01,0.7,0.51,0.58,-17,2,-27,0.86,11220,40,103,44,47,1042,603.0,675,465,60,120.0,180,1,380,247,105,0,0,609,-7939,23619,582,-5.59,,,,,,,,,,,,
66623,1564154462662,2,2.22,0.87,0.5,1.31,1.0,0.69,0.66,0.47,-17,-1,-24,0.95,11308,40,103,44,47,1043,601.0,668,465,60,120.0,180,1,380,247,105,0,0,611,30227,243,587,-5.59,,,,,,,,,,,,
66643,1564154462682,1,2.22,0.87,0.5,1.32,1.0,0.82,0.5,0.62,-17,-1,-24,0.96,11329,40,103,44,47,1044,602.0,673,466,60,119.0,180,1,380,247,105,0,0,607,-768,30227,587,-5.59,44.681038,10.025025,58.07,179.0,0,0.0,-1,0.0,0.0,0,0.24,1.1107
66663,1564154462702,2,2.2,0.87,0.5,1.32,1.01,0.71,0.65,0.41,-16,0,-22,0.97,11281,40,103,44,47,1046,602.0,670,463,60,120.0,180,1,380,247,106,0,0,607,-768,23619,585,-5.59,,,,,,,,,,,,
66683,1564154462722,1,2.18,0.87,0.5,1.31,1.0,0.74,0.6,0.57,-17,3,-23,0.95,11268,40,103,44,47,1050,604.0,680,463,60,120.0,180,1,380,247,106,0,0,606,-768,243,586,-5.59,,,,,,,,,,,,
66703,1564154462742,1,2.17,0.87,0.51,1.3,1.01,0.75,0.56,0.33,-17,3,-24,0.94,11308,40,103,44,47,1052,607.0,667,465,60,121.0,180,1,380,247,106,0,0,610,19621,-23055,586,-5.59,,,,,,,,,,,,
66723,1564154462762,2,2.15,0.87,0.5,1.31,1.01,0.83,0.7,0.47,-17,5,-23,1.09,11336,40,103,44,47,1055,605.0,671,463,60,120.0,180,1,380,247,106,0,0,609,-3820,-23055,583,-5.59,,,,,,,,,,,,
66743,1564154462782,3,2.14,0.87,0.5,1.31,1.0,0.88,0.73,0.35,-18,2,-23,1.15,11301,40,103,44,47,1054,608.0,663,466,60,121.0,180,1,380,247,106,0,0,611,-30139,17344,586,-5.59,44.681049,10.025035,58.15,179.1,0,0.0,-1,0.0,0.0,0,0.24,1.1124
66763,1564154462802,2,2.14,0.87,0.51,1.3,1.01,0.86,0.77,0.52,-18,2,-23,1.16,11329,40,103,44,47,1053,610.0,667,468,60,120.0,182,1,380,247,106,0,0,611,-3446,243,582,-5.59,,,,,,,,,,,,
66783,1564154462822,0,2.14,0.87,0.5,1.3,1.0,0.82,0.63,0.44,-19,1,-25,1.03,11349,40,103,44,47,1050,611.0,668,468,60,122.0,182,1,380,247,106,0,0,612,1010,-3210,582,-5.59,,,,,,,,,,,,
66803,1564154462842,2,2.14,0.87,0.5,1.3,1.0,0.79,0.77,0.37,-20,-1,-24,1.1,11412,40,103,44,47,1047,618.0,672,465,60,122.0,182,1,380,247,106,0,0,619,-3446,-7939,580,-5.59,,,,,,,,,,,,
66823,1564154462862,1,2.14,0.87,0.5,1.31,1.0,0.91,0.62,0.53,-20,-2,-25,1.1,11439,40,103,44,47,1039,611.0,679,467,60,119.0,182,1,380,247,106,0,0,613,1010,-30139,581,-5.59,,,,,,,,,,,,
66843,1564154462882,2,2.14,0.87,0.5,1.3,1.0,0.88,0.63,0.35,-21,-3,-25,1.08,11405,40,103,44,46,1032,611.0,673,463,60,120.0,182,1,372,244,106,0,0,615,1010,-768,580,-5.59,44.681065,10.025044,58.47,179.1,0,0.0,-1,0.0,0.0,0,0.24,1.1141
66863,1564154462902,2,2.14,0.87,0.5,1.3,1.0,0.77,0.77,0.49,-20,-0,-24,1.09,11398,40,103,44,47,1026,611.0,673,465,60,121.0,183,1,380,247,106,0,0,617,-30139,-30139,580,-5.59,,,,,,,,,,,,
66883,1564154462922,1,2.14,0.87,0.5,1.3,1.0,0.8,0.57,0.55,-21,1,-26,0.98,11398,40,103,44,46,1020,609.0,660,464,60,121.0,183,1,372,244,106,0,0,620,16529,-23055,581,-5.59,,,,,,,,,,,,
66903,1564154462942,2,2.15,0.87,0.5,1.3,1.0,0.79,0.66,0.39,-21,1,-26,1.03,11446,38,103,44,46,1016,610.0,666,465,60,120.0,183,1,372,244,106,0,0,615,-3446,17336,582,-5.59,,,,,,,,,,,,
66923,1564154462962,0,2.15,0.87,0.5,1.3,1.0,0.84,0.79,0.54,-21,3,-26,1.16,11481,38,103,44,46,1010,609.0,676,463,60,119.0,183,1,372,244,106,0,0,615,-3446,-16883,582,-5.59,,,,,,,,,,,,
66943,1564154462982,1,2.14,0.87,0.5,1.31,1.0,0.85,0.78,0.45,-21,3,-27,1.16,11474,38,103,44,45,1005,614.0,676,466,60,120.0,183,1,365,242,106,0,0,615,-28304,-16179,583,-5.59,44.681076,10.025054,58.15,179.2,0,0.0,-1,0.0,0.0,0,0.24,1.1157
66963,1564154462992,2,2.15,0.87,0.51,1.29,1.01,0.83,0.87,0.46,-22,1,-27,1.2,11481,37,103,44,45,1004,611.0,686,463,60,120.0,180,1,365,242,105,0,0,615,1010,-7939,580,-5.59,,,,,,,,,,,,
66983,1564154463012,2,2.15,0.87,0.5,1.29,1.01,0.8,0.77,0.61,-23,2,-28,1.11,11467,37,103,44,45,1004,617.0,683,465,60,120.0,180,1,365,242,105,0,0,615,3403,26688,582,-5.59,,,,,,,,,,,,
67003,1564154463032,-0,2.14,0.87,0.51,1.3,1.01,0.77,0.65,0.5,-23,2,-29,1.01,11531,36,103,44,45,1003,613.0,678,465,60,120.0,180,1,365,242,105,0,0,613,28675,-16883,579,-5.59,,,,,,,,,,,,
67023,1564154463052,2,2.14,0.88,0.5,1.3,1.0,0.74,0.79,0.47,-23,-0,-28,1.08,11545,35,103,44,44,1003,615.0,678,465,60,121.0,180,1,357,239,105,0,0,612,-28304,-23055,580,-5.59,,,,,,,,,,,,
67043,1564154463072,2,2.14,0.87,0.5,1.31,1.0,0.87,0.8,0.62,-23,-2,-26,1.18,11510,35,103,44,43,1004,614.0,672,465,60,120.0,180,1,350,238,105,0,0,621,16529,269,577,-5.59,44.681088,10.025062,58.77,179.2,0,0.0,-1,0.0,0.0,0,0.24,1.1174
67063,1564154463102,1,2.12,0.87,0.5,1.29,1.01,0.9,0.69,0.49,-23,-3,-27,1.13,11453,34,103,44,43,1000,612.0,673,461,60,122.0,177,1,350,238,103,0,0,614,28675,5344,582,-5.59,,,,,,,,,,,,
67083,1564154463122,1,2.12,0.87,0.51,1.29,1.01,0.78,0.82,0.48,-23,-0,-26,1.13,11356,34,103,44,43,992,614.0,673,460,60,122.0,177,1,350,238,103,0,0,619,-28304,16529,582,-5.59,,,,,,,,,,,,
67103,1564154463142,-0,2.12,0.87,0.5,1.3,1.01,0.82,0.64,0.55,-23,1,-29,1.04,11377,34,103,44,43,985,613.0,670,461,60,122.0,177,1,350,238,103,0,0,618,-28304,16529,580,-5.59,,,,,,,,,,,,
67123,1564154463162,0,2.11,0.87,0.5,1.29,1.01,0.8,0.73,0.39,-23,1,-29,1.09,11370,34,103,44,42,972,615.0,667,461,60,121.0,177,1,342,238,103,0,0,619,26688,-3210,581,-5.59,,,,,,,,,,,,
67143,1564154463182,2,2.1,0.87,0.5,1.3,1.0,0.88,0.86,0.55,-22,2,-29,1.23,11384,34,103,44,43,959,614.0,678,462,60,120.0,177,1,350,238,103,0,0,626,16529,-13043,580,-5.59,44.681103,10.025068,58.54,179.2,0,0.0,-1,0.0,0.0,0,0.25,1.1191
67163,1564154463202,2,2.12,0.87,0.5,1.29,1.01,0.88,0.92,0.45,-23,-0,-30,1.27,11336,34,103,44,43,942,614.0,667,465,60,122.0,176,1,350,234,102,0,0,614,-28304,-12040,580,-5.59,,,,,,,,,,,,
67183,1564154463222,0,2.14,0.87,0.51,1.3,1.0,0.86,0.81,0.6,-24,1,-31,1.18,11322,34,103,44,42,930,613.0,666,464,60,120.0,176,1,342,234,102,0,0,618,-28304,-23055,578,-5.59,,,,,,,,,,,,
67203,1564154463242,1,2.14,0.87,0.51,1.29,1.01,0.8,0.81,0.45,-24,1,-32,1.14,11370,34,103,44,42,924,614.0,675,465,60,121.0,176,1,342,234,102,0,0,620,16529,-3210,578,-5.59,,,,,,,,,,,,
67223,1564154463262,0,2.15,0.87,0.51,1.29,1.01,0.88,0.93,0.49,-24,-2,-31,1.28,11384,34,103,44,42,915,614.0,673,466,60,121.0,176,1,342,238,102,0,0,619,3403,-3210,577,-5.59,,,,,,,,,,,,
67243,1564154463282,0,2.15,0.87,0.51,1.3,1.01,0.98,0.67,0.52,-25,-2,-32,1.19,11391,34,103,44,42,904,613.0,668,466,60,121.0,176,1,342,234,102,0,0,615,16529,-28648,576,-5.59,44.681118,10.025073,59.04,179.2,0,0.0,-1,0.0,0.0,0,0.25,1.1207
67263,1564154463302,1,2.15,0.87,0.5,1.29,1.0,0.84,0.81,0.35,-24,-2,-32,1.17,11322,34,103,44,42,896,615.0,674,462,60,121.0,173,1,342,234,100,0,0,609,26688,30227,575,-5.59,,,,,,,,,,,,
67283,1564154463322,0,2.15,0.87,0.51,1.29,1.01,0.86,0.84,0.51,-24,2,-32,1.2,11315,34,103,44,42,892,611.0,671,463,60,120.0,173,1,342,234,100,0,0,620,1010,-30139,577,-5.59,,,,,,,,,,,,
67303,1564154463342,3,2.15,0.87,0.51,1.3,1.0,0.85,0.81,0.34,-24,2,-32,1.17,11343,34,103,44,42,886,613.0,664,461,60,121.0,173,1,342,234,100,0,0,617,28675,-3820,577,-5.59,,,,,,,,,,,,
67323,1564154463362,2,2.12,0.87,0.5,1.3,1.01,0.89,0.93,0.45,-24,4,-32,1.29,11343,34,103,44,42,884,611.0,670,462,60,120.0,173,1,342,234,100,0,0,614,1010,3472,577,-5.59,,,,,,,,,,,,
67343,1564154463382,3,2.11,0.87,0.5,1.29,1.01,0.9,0.93,0.32,-24,3,-33,1.29,11288,34,103,44,42,881,608.0,665,466,60,121.0,173,1,342,234,100,0,0,613,17740,-16179,576,-5.59,44.681133,10.025077,58.31,179.2,0,0.0,-1,0.0,0.0,0,0.25,1.1224
67363,1564154463402,0,2.08,0.87,0.49,1.29,1.01,0.85,0.84,0.49,-24,3,-33,1.2,11261,34,103,44,43,882,607.0,680,469,60,121.0,175,1,350,238,101,0,0,614,-30139,23619,577,-5.59,,,,,,,,,,,,
67383,1564154463422,4,2.08,0.86,0.5,1.3,1.01,0.81,0.87,0.36,-24,1,-33,1.19,11247,34,103,44,42,885,606.0,665,464,60,121.0,175,1,342,234,101,0,0,617,17740,243,574,-5.59,,,,,,,,,,,,
67403,1564154463442,2,2.07,0.87,0.51,1.29,1.01,0.9,0.99,0.5,-24,-0,-31,1.34,11301,34,103,44,42,888,603.0,666,464,60,120.0,175,1,342,234,101,0,0,613,-7939,17344,573,-5.59,,,,,,,,,,,,
67423,1564154463462,2,2.07,0.87,0.5,1.29,1.01,0.93,0.89,0.36,-24,-1,-33,1.29,11227,34,103,44,42,893,607.0,670,463,60,121.0,175,1,342,234,101,0,0,613,17740,6273,574,-5.59,,,,,,,,,,,,
67443,1564154463482,1,2.09,0.87,0.5,1.29,1.0,0.88,1.0,0.46,-24,0,-32,1.33,11234,34,103,44,42,897,608.0,674,463,60,120.0,175,1,342,234,101,0,0,617,17740,208,571,-5.59,44.681145,10.025079,57.98,179.2,0,0.0,-1,0.0,0.0,0,0.25,1.1241
67463,1564154463501,2,2.1,0.87,0.51,1.3,1.0,0.88,0.81,0.36,-26,1,-33,1.2,11227,34,103,44,42,901,609.0,662,461,60,122.0,173,1,342,234,99,0,0,616,-30139,208,572,-5.59,,,,,,,,,,,,
67483,1564154463521,1,2.1,0.87,0.5,1.3,1.0,0.86,0.93,0.41,-25,5,-35,1.27,11254,34,103,44,43,902,610.0,661,462,60,121.0,173,1,350,238,99,0,0,615,-3446,5344,571,-5.59,,,,,,,,,,,,
67503,1564154463541,2,2.12,0.87,0.51,1.29,1.01,0.89,0.95,0.32,-25,4,-36,1.3,11214,34,103,44,43,903,608.0,666,466,60,122.0,173,1,350,238,99,0,0,608,19621,23619,571,-5.59,,,,,,,,,,,,
67523,1564154463561,1,2.1,0.87,0.5,1.29,1.01,0.83,0.93,0.49,-25,3,-35,1.25,11227,34,103,44,42,902,608.0,669,466,60,121.0,173,1,342,234,99,0,0,617,17740,208,569,-5.59,,,,,,,,,,,,
67543,1564154463581,3,2.1,0.87,0.51,1.3,1.01,0.81,0.89,0.42,-26,0,-35,1.21,11234,34,103,44,42,900,606.0,669,466,60,121.0,173,1,342,234,99,0,0,606,-23055,-12040,570,-5.59,44.681164,10.02508,58.4,179.2,0,0.0,-1,0.0,0.0,0,0.25,1.1257
67563,1564154463603,1,2.1,0.87,0.51,1.29,1.01,0.83,1.0,0.54,-26,0,-34,1.3,11261,34,103,44,42,900,602.0,666,465,60,122.0,175,1,342,238,100,0,0,611,-7939,208,569,-5.59,,,,,,,,,,,,
67583,1564154463623,2,2.11,0.87,0.5,1.3,1.0,0.82,0.9,0.36,-26,4,-36,1.22,11187,34,103,44,42,901,606.0,671,462,60,120.0,175,1,342,234,100,0,0,610,-23055,17740,570,-5.59,,,,,,,,,,,,
67603,1564154463643,2,2.1,0.87,0.5,1.3,1.01,0.84,1.01,0.52,-25,6,-36,1.31,11180,34,103,44,43,902,603.0,673,463,60,120.0,175,1,350,238,100,0,0,607,-768,17740,568,-5.59,,,,,,,,,,,,
67623,1564154463663,2,2.1,0.87,0.5,1.29,1.01,0.84,0.94,0.38,-26,2,-36,1.26,11254,34,103,44,43,905,604.0,663,464,60,122.0,175,1,350,234,100,0,0,605,-23055,17344,566,-5.59,,,,,,,,,,,,
67643,1564154463683,2,2.1,0.87,0.5,1.29,1.01,0.86,1.05,0.45,-25,4,-36,1.36,11274,34,103,44,43,907,601.0,663,463,60,122.0,175,1,350,238,100,0,0,601,243,6273,566,-5.59,44.681175,10.025079,58.05,179.2,0,0.0,-1,0.0,0.0,0,0.25,1.1274
67663,1564154463703,1,2.11,0.87,0.51,1.3,1.0,0.89,0.99,0.32,-26,5,-37,1.33,11220,34,103,44,42,909,601.0,672,461,60,122.0,177,1,342,234,101,0,0,612,243,-25872,568,-5.59,,,,,,,,,,,,
67683,1564154463723,2,2.09,0.87,0.5,1.3,1.01,0.93,0.93,0.48,-27,7,-38,1.31,11194,34,103,44,43,909,606.0,666,465,60,121.0,177,1,350,238,101,0,0,610,-23055,208,566,-5.59,,,,,,,,,,,,
67703,1564154463743,3,2.09,0.87,0.5,1.3,1.01,0.84,1.04,0.26,-27,3,-36,1.33,11214,34,103,44,43,908,601.0,667,465,60,120.0,177,1,350,238,101,0,0,608,243,17344,565,-5.59,,,,,,,,,,,,
67723,1564154463763,0,2.09,0.87,0.51,1.3,1.01,0.92,0.9,0.43,-27,2,-36,1.28,11194,34,103,44,43,908,600.0,674,465,60,121.0,177,1,350,238,101,0,0,640,-768,-7939,564,-5.59,,,,,,,,,,,,
67743,1564154463783,1,2.09,0.87,0.5,1.29,1.01,0.85,1.01,0.27,-26,4,-36,1.32,11160,34,103,44,43,908,599.0,661,461,60,121.0,177,1,350,238,101,0,0,605,-16179,243,565,-5.59,44.68119,10.025075,57.77,179.2,0,0.0,-1,0.0,0.0,0,0.26,1.1291
67763,1564154463803,-1,2.09,0.87,0.51,1.29,1.01,0.89,0.86,0.44,-26,6,-37,1.23,11154,34,103,44,43,908,600.0,683,463,60,121.0,176,1,350,238,100,0,0,605,-3210,15649,566,-5.59,,,,,,,,,,,,
67783,1564154463823,2,2.08,0.87,0.5,1.3,1.01,0.82,0.97,0.31,-26,6,-38,1.27,11167,34,103,44,43,908,603.0,676,462,60,121.0,176,1,350,238,100,0,0,606,30227,-32504,567,-5.59,,,,,,,,,,,,
67803,1564154463843,3,2.08,0.87,0.5,1.3,1.01,0.88,0.95,0.32,-26,5,-38,1.3,11147,34,103,44,43,907,593.0,667,465,60,121.0,176,1,350,238,100,0,0,601,3472,17740,563,-5.59,,,,,,,,,,,,
67823,1564154463863,2,2.08,0.87,0.5,1.3,1.01,0.85,0.9,0.46,-26,5,-39,1.24,11114,34,103,44,43,905,601.0,663,466,60,122.0,176,1,350,238,100,0,0,601,243,6273,562,-5.59,,,,,,,,,,,,
67843,1564154463883,3,2.07,0.87,0.5,1.3,1.01,0.81,1.01,0.23,-26,4,-37,1.3,11200,34,103,44,43,902,595.0,657,467,60,121.0,176,1,350,238,100,0,0,602,4956,8488,562,-5.59,44.681202,10.025071,57.62,179.1,0,0.0,-1,0.0,0.0,0,0.26,1.1307
67863,1564154463903,2,2.07,0.88,0.5,1.3,1.01,0.93,0.97,0.41,-27,3,-37,1.35,11187,34,103,44,43,900,596.0,661,465,60,122.0,179,1,350,238,101,0,0,601,17344,-3210,560,-5.59,,,,,,,,,,,,
67883,1564154463923,3,2.07,0.87,0.51,1.3,1.01,0.81,1.08,0.16,-28,4,-36,1.34,11114,34,103,44,43,898,600.0,662,462,60,121.0,179,1,350,238,101,0,0,606,-16179,-1894,560,-5.59,,,,,,,,,,,,
67903,1564154463943,1,2.07,0.87,0.5,1.3,1.01,0.85,0.87,0.34,-28,3,-37,1.21,11088,34,103,44,43,896,596.0,679,464,60,120.0,179,1,350,238,101,0,0,598,17344,30227,557,-5.59,,,,,,,,,,,,
67923,1564154463963,2,2.06,0.87,0.5,1.29,1.01,0.88,0.98,0.33,-28,6,-38,1.32,11134,34,103,44,43,896,597.0,667,463,60,122.0,179,1,350,238,101,0,0,607,23619,6273,558,-5.59,,,,,,,,,,,,
67943,1564154463983,2,2.08,0.87,0.51,1.3,1.02,0.94,1.01,0.25,-28,5,-37,1.38,11154,34,103,44,43,896,595.0,671,463,60,122.0,179,1,350,238,101,0,0,599,-13043,1760,556,-5.59,44.681217,10.025065,57.32,179.1,0,0.0,-1,0.0,0.0,0,0.26,1.1324
67963,1564154463993,2,2.08,0.87,0.5,1.3,1.01,0.91,0.98,0.42,-29,5,-38,1.34,11094,34,103,44,43,897,592.0,666,465,60,121.0,179,1,350,238,100,0,0,600,-28648,-25872,557,-5.59,,,,,,,,,,,,
67983,1564154464013,2,2.1,0.88,0.5,1.3,1.01,0.85,1.09,0.24,-29,3,-36,1.38,11127,34,103,44,43,899,598.0,667,467,60,121.0,179,1,350,238,100,0,0,597,-13043,-1894,558,-5.59,,,,,,,,,,,,
68003,1564154464033,1,2.12,0.87,0.51,1.29,1.01,0.97,0.91,0.42,-29,4,-37,1.33,11114,34,102,44,43,901,593.0,675,463,60,120.0,179,1,350,235,100,0,0,598,3472,-3820,557,-5.59,,,,,,,,,,,,
68023,1564154464053,2,2.16,0.87,0.51,1.3,1.01,0.87,1.02,0.37,-28,5,-36,1.34,11081,34,103,44,43,902,594.0,670,462,60,121.0,179,1,350,238,100,0,0,606,-13043,3472,555,-5.59,,,,,,,,,,,,
68043,1564154464073,3,2.18,0.87,0.5,1.3,1.01,0.93,0.84,0.37,-28,4,-37,1.25,11094,34,102,44,43,904,594.0,668,460,60,122.0,179,1,350,235,100,0,0,596,-13043,259,555,-5.59,44.681232,10.02506,56.84,179.1,0,0.0,-1,0.0,0.0,0,0.26,1.1341
68063,1564154464103,2,2.19,0.87,0.5,1.3,1.01,0.92,0.96,0.51,-27,5,-35,1.33,11107,34,102,44,43,907,591.0,663,465,60,122.0,179,1,350,235,100,0,0,600,6273,-4035,557,-5.59,,,,,,,,,,,,
68083,1564154464123,1,2.2,0.87,0.51,1.3,1.02,0.88,0.96,0.46,-27,6,-36,1.3,11009,34,103,44,43,911,593.0,660,466,60,122.0,179,1,350,238,100,0,0,597,-28648,-4035,560,-5.59,,,,,,,,,,,,
68103,1564154464143,-1,2.21,0.88,0.51,1.3,1.02,0.87,0.82,0.45,-26,4,-36,1.19,10977,34,102,44,43,913,589.0,667,465,60,122.0,179,1,350,234,100,0,0,593,2048,-4035,561,-5.59,,,,,,,,,,,,
68123,1564154464163,1,2.22,0.87,0.51,1.3,1.02,0.97,0.83,0.6,-24,1,-33,1.28,11029,34,102,44,43,914,590.0,667,468,60,121.0,179,1,350,235,100,0,0,597,208,15649,561,-5.59,,,,,,,,,,,,
68143,1564154464183,1,2.22,0.88,0.5,1.31,1.01,0.85,0.95,0.4,-23,4,-32,1.28,10958,34,103,44,43,915,586.0,653,460,60,122.0,179,1,350,237,100,0,0,594,-1894,-3210,565,-5.59,44.681244,10.02505,56.51,179.0,0,0.0,-1,0.0,0.0,0,0.26,1.1357
68163,1564154464203,3,2.21,0.88,0.5,1.31,1.01,0.92,0.69,0.43,-23,6,-32,1.15,10926,34,102,44,44,914,587.0,677,462,60,121.0,173,1,357,234,98,0,0,594,-25872,-3210,566,-5.59,,,,,,,,,,,,
68183,1564154464223,0,2.22,0.88,0.51,1.32,1.01,1.01,0.72,0.59,-22,4,-31,1.24,10932,34,102,44,43,913,587.0,667,463,60,121.0,173,1,350,235,98,0,0,591,-12040,1,567,-5.59,,,,,,,,,,,,
68203,1564154464243,1,2.22,0.88,0.5,1.32,1.01,0.93,0.77,0.54,-20,3,-29,1.2,10856,34,102,44,44,911,584.0,663,467,60,122.0,173,1,357,235,98,0,0,588,-4035,15649,566,-5.59,,,,,,,,,,,,
68223,1564154464263,1,2.22,0.88,0.5,1.31,1.02,0.9,0.89,0.37,-19,2,-28,1.26,10869,34,102,44,44,910,587.0,661,468,60,122.0,173,1,357,235,98,0,0,594,-12040,243,566,-5.59,,,,,,,,,,,,
68243,1564154464283,-0,2.21,0.89,0.51,1.32,1.02,0.95,0.69,0.43,-19,4,-28,1.17,10907,34,102,44,44,909,585.0,667,468,60,121.0,173,1,357,235,98,0,0,591,208,-8186,568,-5.59,44.681255,10.025041,56.7,179.0,0,0.0,-1,0.0,0.0,0,0.26,1.1374
68263,1564154464303,0,2.21,0.88,0.51,1.32,1.02,0.95,0.72,0.59,-19,5,-27,1.2,10863,34,102,44,44,910,587.0,662,466,60,122.0,168,1,357,235,96,0,0,594,-12040,774,567,-5.59,,,,,,,,,,,,
68283,1564154464323,1,2.21,0.88,0.51,1.32,1.01,0.95,0.83,0.49,-18,5,-26,1.26,10856,34,102,44,44,911,588.0,661,467,60,122.0,168,1,357,235,96,0,0,588,-1894,1760,567,-5.59,,,,,,,,,,,,
68303,1564154464343,1,2.21,0.88,0.51,1.32,1.02,0.92,0.79,0.43,-18,5,-27,1.22,10825,34,102,44,44,906,586.0,660,466,60,121.0,168,1,357,235,96,0,0,597,-1894,259,563,-5.59,,,,,,,,,,,,
68323,1564154464363,2,2.2,0.88,0.51,1.32,1.02,0.92,0.75,0.42,-18,1,-26,1.18,10819,34,102,44,44,904,586.0,671,466,60,122.0,168,1,357,235,96,0,0,597,-1894,30208,565,-5.59,,,,,,,,,,,,
68343,1564154464383,1,2.19,0.88,0.51,1.32,1.02,1.03,0.61,0.58,-19,-1,-25,1.19,10863,34,102,44,44,899,585.0,660,468,60,122.0,168,1,357,235,96,0,0,597,-25872,1267,563,-5.59,44.681267,10.02503,56.91,178.9,0,0.0,-1,0.0,0.0,0,0.27,1.1391
68363,1564154464403,0,2.19,0.88,0.51,1.32,1.02,0.98,0.75,0.58,-19,3,-24,1.23,10813,34,102,44,44,895,587.0,666,463,60,121.0,170,1,357,235,96,0,0,597,-12040,-8186,563,-5.59,,,,,,,,,,,,
68383,1564154464423,2,2.19,0.89,0.51,1.31,1.02,0.96,0.8,0.37,-19,4,-24,1.24,10856,34,102,44,44,882,587.0,658,463,60,122.0,170,1,357,235,96,0,0,597,-12040,-8186,564,-5.59,,,,,,,,,,,,
68403,1564154464443,2,2.19,0.89,0.51,1.31,1.02,0.96,0.77,0.34,-19,1,-25,1.23,10875,34,102,44,44,873,586.0,660,466,60,122.0,170,1,357,235,96,0,0,586,-1894,1,560,-5.59,,,,,,,,,,,,
68423,1564154464463,1,2.19,0.89,0.51,1.32,1.01,0.89,0.65,0.5,-20,1,-25,1.11,10831,34,102,44,44,865,589.0,660,468,60,121.0,170,1,357,235,96,0,0,590,2048,774,558,-5.59,,,,,,,,,,,,
68443,1564154464483,1,2.2,0.89,0.51,1.31,1.02,1.01,0.73,0.64,-20,1,-25,1.24,10913,34,102,44,44,858,586.0,679,466,60,121.0,170,1,357,235,96,0,0,588,-12040,-8188,560,-5.59,44.681282,10.025018,56.79,178.9,0,0.0,-1,0.0,0.0,0,0.27,1.1407
68463,1564154464502,2,2.2,0.89,0.51,1.32,1.02,0.88,0.86,0.43,-20,1,-24,1.23,10882,33,102,44,44,847,589.0,661,465,60,122.0,173,1,357,235,97,0,0,595,-12040,259,562,-5.59,,,,,,,,,,,,
68483,1564154464522,2,2.22,0.89,0.5,1.32,1.02,0.8,0.59,0.46,-20,2,-25,0.99,10863,31,102,44,44,840,586.0,666,463,60,122.0,173,1,357,235,97,0,0,590,-1894,-8186,562,-5.59,,,,,,,,,,,,
68503,1564154464542,1,2.21,0.89,0.5,1.33,1.02,0.89,0.6,0.6,-19,5,-26,1.07,10888,29,102,44,43,833,584.0,661,468,60,122.0,173,1,350,233,97,0,0,589,-4035,259,563,-5.59,,,,,,,,,,,,
68523,1564154464562,0,2.22,0.89,0.51,1.32,1.02,0.91,0.62,0.67,-19,4,-24,1.1,10794,29,102,44,42,830,585.0,662,463,60,122.0,173,1,342,228,97,0,0,593,-25872,259,562,-5.59,,,,,,,,,,,,
68543,1564154464582,1,2.22,0.89,0.51,1.32,1.02,0.93,0.76,0.65,-18,-1,-22,1.2,10819,29,102,44,41,829,585.0,660,464,60,122.0,173,1,335,226,97,0,0,586,15649,1267,562,-5.59,44.68129,10.025005,56.94,178.9,0,0.0,-1,0.0,0.0,0,0.27,1.1424
68563,1564154464602,3,2.22,0.89,0.51,1.33,1.02,0.73,0.88,0.46,-18,3,-22,1.15,10708,29,102,44,41,828,584.0,656,466,60,121.0,163,1,335,224,92,0,0,592,-4035,-3210,564,-5.59,,,,,,,,,,,,
68583,1564154464622,1,2.22,0.89,0.51,1.32,1.02,0.75,0.83,0.3,-18,5,-23,1.12,10599,29,102,44,41,829,583.0,655,462,60,122.0,163,1,335,222,92,0,0,592,-4035,1267,563,-5.59,,,,,,,,,,,,
68603,1564154464642,2,2.22,0.88,0.51,1.32,1.02,0.74,0.83,0.29,-18,1,-23,1.11,10439,29,102,44,42,831,581.0,662,468,60,122.0,163,1,342,225,92,0,0,584,10432,-2934,561,-5.59,,,,,,,,,,,,
68623,1564154464662,2,2.21,0.88,0.51,1.32,1.02,0.72,0.94,0.2,-18,-1,-21,1.18,10359,29,102,43,42,831,583.0,662,468,60,121.0,163,1,342,226,92,0,0,581,15649,-29984,560,-5.59,,,,,,,,,,,,
68643,1564154464682,0,2.21,0.89,0.51,1.32,1.02,0.74,1.05,0.16,-17,2,-21,1.28,10319,29,102,43,42,830,582.0,671,468,60,122.0,163,1,342,151,92,0,0,584,8488,1780,562,-5.59,44.681301,10.02499,56.65,178.8,0,0.0,-1,0.0,0.0,0,0.27,1.144
68663,1564154464698,1,2.21,0.88,0.51,1.33,1.02,0.8,1.13,0.19,-17,3,-20,1.39,10382,29,102,43,41,829,582.0,658,461,60,121.0,157,1,335,226,88,0,0,583,8488,12552,559,-5.59,,,,,,,,,,,,
68683,1564154464718,-1,2.22,0.89,0.51,1.32,1.02,0.84,1.07,0.33,-17,2,-21,1.36,10324,29,102,44,41,826,581.0,659,462,60,122.0,157,1,335,221,88,0,0,586,10432,2211,558,-5.59,,,,,,,,,,,,
68703,1564154464738,-1,2.22,0.89,0.5,1.32,1.02,0.96,1.02,0.45,-17,1,-21,1.4,10399,29,102,43,41,824,576.0,667,466,60,121.0,157,1,335,223,88,0,0,580,1,-30159,558,-5.59,,,,,,,,,,,,
68723,1564154464758,3,2.22,0.89,0.51,1.32,1.03,1.02,0.87,0.6,-17,1,-21,1.34,10336,29,102,43,41,824,580.0,661,466,60,122.0,157,1,335,226,88,0,0,583,-16384,2211,557,-5.59,,,,,,,,,,,,
68743,1564154464778,1,2.22,0.89,0.51,1.33,1.02,1.12,0.78,0.68,-17,1,-21,1.37,10405,28,102,43,41,825,579.0,652,462,60,121.0,157,1,335,223,88,0,0,582,243,-30159,555,-5.59,44.681313,10.024976,56.54,178.8,0,0.0,-1,0.0,0.0,0,0.27,1.1457
68763,1564154464802,2,2.21,0.88,0.51,1.32,1.02,1.09,0.69,0.8,-17,-1,-20,1.29,10434,28,102,43,41,827,576.0,657,467,60,121.0,156,1,335,223,87,0,0,578,30208,6273,555,-5.59,,,,,,,,,,,,
68783,1564154464822,3,2.21,0.89,0.51,1.33,1.02,1.17,0.45,0.91,-17,-1,-21,1.25,10569,28,102,44,40,828,577.0,652,467,60,121.0,156,1,327,217,87,0,0,575,30208,-28648,557,-5.59,,,,,,,,,,,,
68803,1564154464842,1,2.22,0.89,0.51,1.33,1.03,1.19,0.35,1.02,-17,-1,-21,1.24,10605,28,102,43,40,824,574.0,659,465,60,121.0,156,1,327,221,87,0,0,574,1267,2216,552,-5.59,,,,,,,,,,,,
68823,1564154464862,1,2.22,0.89,0.51,1.33,1.02,1.23,0.42,1.07,-17,1,-21,1.3,10695,28,102,43,40,819,573.0,654,464,60,121.0,156,1,327,222,87,0,0,572,1760,-22359,553,-5.59,,,,,,,,,,,,
68843,1564154464882,-0,2.22,0.89,0.51,1.32,1.03,1.28,0.41,1.05,-16,1,-21,1.34,10665,28,102,44,40,813,574.0,657,465,60,121.0,156,1,327,220,87,0,0,579,774,-28648,552,-5.59,44.681324,10.024961,56.1,178.7,0,0.0,-1,0.0,0.0,0,0.27,1.1474
68863,1564154464902,2,2.22,0.9,0.51,1.32,1.03,1.3,0.57,1.12,-16,-4,-19,1.42,10671,28,102,43,39,810,572.0,658,465,60,121.0,162,1,320,222,89,0,0,572,-29984,2524,549,-5.59,,,,,,,,,,,,
68883,1564154464922,1,2.22,0.89,0.51,1.33,1.02,1.15,0.72,0.93,-16,0,-19,1.35,10569,28,102,44,40,812,568.0,659,465,60,122.0,162,1,327,218,89,0,0,570,-8186,2524,549,-5.59,,,,,,,,,,,,
68903,1564154464942,0,2.22,0.89,0.5,1.33,1.03,1.12,0.81,0.66,-15,3,-19,1.38,10515,28,102,43,41,813,570.0,659,462,60,122.0,162,1,335,223,89,0,0,566,-8186,-22263,549,-5.59,,,,,,,,,,,,
68923,1564154464962,0,2.22,0.89,0.51,1.33,1.02,1.1,0.82,0.7,-16,-0,-18,1.37,10428,28,102,44,41,821,567.0,652,467,60,122.0,162,1,335,221,89,0,0,569,1780,-506,549,-5.59,,,,,,,,,,,,
68943,1564154464982,2,2.2,0.89,0.51,1.33,1.02,1.13,0.92,0.71,-16,-1,-17,1.46,10504,28,102,44,41,829,569.0,656,465,60,122.0,162,1,335,221,89,0,0,570,-3190,-28648,546,-5.59,44.681332,10.024946,55.81,178.7,0,0.0,-1,0.0,0.0,0,0.27,1.149
68963,1564154464994,1,2.21,0.89,0.51,1.33,1.02,1.14,1.03,0.63,-15,1,-18,1.54,10474,28,102,44,41,837,567.0,654,466,60,122.0,161,1,335,221,88,0,0,565,-2934,6274,547,-5.59,,,,,,,,,,,,
68983,1564154465014,1,2.19,0.89,0.51,1.32,1.02,1.07,1.13,0.48,-16,3,-17,1.55,10545,28,102,43,40,843,569.0,648,462,60,121.0,161,1,327,219,88,0,0,571,-29984,14504,546,-5.59,,,,,,,,,,,,
69003,1564154465034,0,2.19,0.89,0.51,1.33,1.02,1.03,1.15,0.45,-16,1,-17,1.54,10515,28,102,44,40,845,567.0,657,465,60,121.0,161,1,327,217,88,0,0,567,-29984,2104,544,-5.59,,,,,,,,,,,,
69023,1564154465054,2,2.17,0.89,0.51,1.32,1.02,1.0,1.24,0.37,-17,-1,-17,1.59,10587,28,102,44,40,846,564.0,654,468,60,121.0,161,1,327,218,88,0,0,568,12552,14504,542,-5.59,,,,,,,,,,,,
69043,1564154465074,2,2.17,0.89,0.51,1.33,1.02,0.84,1.32,0.22,-17,1,-17,1.56,10527,28,102,44,40,843,566.0,659,466,60,122.0,161,1,327,217,88,0,0,571,-2934,-8962,539,-5.59,44.681339,10.024931,55.22,178.7,0,0.0,-1,0.0,0.0,0,0.28,1.1507
69063,1564154465102,1,2.17,0.89,0.51,1.32,1.02,0.81,1.34,0.11,-17,3,-19,1.57,10575,28,102,44,39,841,568.0,659,462,60,122.0,161,1,320,215,87,0,0,569,-2934,2524,539,-5.59,,,,,,,,,,,,
69083,1564154465122,1,2.17,0.89,0.51,1.33,1.02,0.8,1.34,0.11,-18,-0,-20,1.56,10575,28,102,44,40,836,569.0,656,465,60,122.0,161,1,327,215,87,0,0,571,-29984,-506,536,-5.59,,,,,,,,,,,,
69103,1564154465142,2,2.17,0.89,0.51,1.32,1.02,0.7,1.4,0.04,-18,-2,-19,1.57,10569,28,102,44,40,833,564.0,666,468,60,122.0,161,1,327,218,87,0,0,567,12552,-506,534,-5.59,,,,,,,,,,,,
69123,1564154465162,1,2.17,0.89,0.51,1.32,1.02,0.61,1.38,-0.13,-19,2,-21,1.51,10581,28,102,44,40,838,562.0,660,466,60,122.0,161,1,327,215,87,0,0,568,2211,-32248,534,-5.59,,,,,,,,,,,,
69143,1564154465182,1,2.17,0.89,0.51,1.33,1.02,0.6,1.26,-0.18,-20,1,-22,1.4,10539,28,102,44,39,843,564.0,661,465,60,121.0,161,1,320,215,87,0,0,566,12552,6274,533,-5.59,44.681347,10.024915,54.88,178.6,0,0.0,-1,0.0,0.0,0,0.28,1.1524
69163,1564154465204,2,2.17,0.89,0.51,1.32,1.03,0.63,1.22,-0.16,-21,-0,-24,1.37,10539,28,102,44,39,850,564.0,656,466,60,122.0,161,1,320,215,86,0,0,562,12552,2524,534,-5.59,,,,,,,,,,,,
69183,1564154465224,3,2.17,0.89,0.51,1.32,1.02,0.64,1.17,-0.18,-21,-1,-24,1.33,10521,28,102,44,39,861,561.0,667,466,60,122.0,161,1,320,215,86,0,0,564,2211,-8186,532,-5.59,,,,,,,,,,,,
69203,1564154465244,1,2.16,0.89,0.51,1.32,1.02,0.6,1.0,-0.1,-22,-1,-25,1.17,10569,28,102,44,39,866,562.0,656,467,60,122.0,161,1,320,215,86,0,0,568,-23623,-28648,532,-5.59,,,,,,,,,,,,
69223,1564154465264,3,2.16,0.89,0.51,1.31,1.02,0.63,0.84,-0.01,-23,0,-27,1.05,10480,28,102,44,39,874,563.0,672,463,60,121.0,161,1,320,215,86,0,0,566,2211,14504,532,-5.59,,,,,,,,,,,,
69243,1564154465284,2,2.17,0.88,0.51,1.32,1.03,0.7,0.85,0.07,-23,-1,-28,1.1,10451,28,102,44,39,873,567.0,657,462,60,122.0,161,1,320,215,86,0,0,564,1780,14504,532,-5.59,44.681354,10.024899,54.42,178.6,0,0.0,-1,0.0,0.0,0,0.28,1.154
69263,1564154465302,1,2.15,0.89,0.51,1.32,1.02,0.65,0.97,0.09,-23,-2,-27,1.16,10393,28,102,44,39,871,567.0,656,467,60,122.0,157,1,320,215,84,0,0,568,1780,2211,531,-5.59,,,,,,,,,,,,
69283,1564154465322,2,2.15,0.89,0.51,1.31,1.03,0.58,1.07,-0.03,-23,1,-28,1.22,10307,28,102,44,39,872,564.0,663,460,60,122.0,157,1,320,215,84,0,0,563,12552,-22519,530,-5.59,,,,,,,,,,,,
69303,1564154465342,2,2.14,0.9,0.51,1.32,1.02,0.6,1.11,-0.1,-23,1,-28,1.26,10336,28,102,44,39,875,562.0,657,465,60,122.0,157,1,320,215,84,0,0,569,-23623,1779,529,-5.59,,,,,,,,,,,,
69323,1564154465362,1,2.14,0.88,0.51,1.32,1.02,0.61,1.08,-0.02,-24,1,-28,1.25,10279,28,102,44,39,878,563.0,656,470,60,122.0,157,1,320,215,84,0,0,569,2211,-2934,529,-5.59,,,,,,,,,,,,
69343,1564154465382,1,2.13,0.89,0.51,1.32,1.02,0.76,1.07,0.05,-24,-0,-28,1.31,10324,28,102,44,39,883,561.0,658,465,60,121.0,157,1,320,215,84,0,0,567,-18032,-30064,526,-5.59,44.681362,10.024881,53.87,178.6,0,0.0,-1,0.0,0.0,0,0.28,1.1557
69363,1564154465402,3,2.14,0.89,0.51,1.32,1.02,0.79,1.0,0.21,-24,-2,-28,1.28,10251,28,102,44,39,894,560.0,652,464,60,122.0,157,1,320,215,83,0,0,561,-28648,-30064,527,-5.59,,,,,,,,,,,,
69383,1564154465422,3,2.14,0.89,0.51,1.31,1.03,0.81,1.05,0.24,-24,-2,-29,1.33,10290,28,102,44,39,901,558.0,647,465,60,122.0,157,1,320,215,83,0,0,567,-32504,-28648,526,-5.59,,,,,,,,,,,,
69403,1564154465442,1,2.15,0.89,0.51,1.32,1.02,0.78,1.15,0.17,-24,-2,-29,1.39,10234,28,102,44,39,910,562.0,668,470,60,121.0,157,1,320,215,83,0,0,561,-23623,-3082,529,-5.59,,,,,,,,,,,,
69423,1564154465462,2,2.14,0.88,0.51,1.32,1.02,0.66,1.21,0.12,-23,-2,-29,1.37,10234,28,102,44,39,913,560.0,649,462,60,122.0,157,1,320,215,83,0,0,568,-23623,2104,525,-5.59,,,,,,,,,,,,
69443,1564154465482,1,2.16,0.88,0.51,1.31,1.03,0.64,1.24,0.07,-23,1,-30,1.4,10279,28,102,44,39,923,561.0,663,466,60,121.0,157,1,320,215,83,0,0,561,-18032,2524,526,-5.59,44.681366,10.024864,53.78,178.6,0,0.0,-1,0.0,0.0,0,0.28,1.1574
69463,1564154465503,1,2.16,0.89,0.51,1.32,1.02,0.7,1.15,0.16,-23,1,-31,1.35,10240,28,102,44,39,930,560.0,653,468,60,122.0,159,1,320,215,84,0,0,563,-28648,-28648,526,-5.59,,,,,,,,,,,,
69483,1564154465523,4,2.16,0.89,0.51,1.32,1.02,0.76,1.03,0.27,-24,-1,-30,1.27,10290,28,102,44,39,938,562.0,655,464,60,121.0,159,1,320,215,84,0,0,559,6273,-30064,525,-5.59,,,,,,,,,,,,
69503,1564154465543,1,2.17,0.89,0.51,1.31,1.03,0.78,0.92,0.37,-24,1,-32,1.2,10245,28,102,44,38,941,559.0,662,459,60,121.0,159,1,317,214,84,0,0,561,6273,-30064,526,-5.59,,,,,,,,,,,,
69523,1564154465563,0,2.17,0.89,0.51,1.32,1.02,0.8,0.96,0.37,-24,-1,-32,1.25,10273,28,102,44,39,948,558.0,666,463,60,120.0,159,1,320,215,84,0,0,561,-32504,1780,523,-5.59,,,,,,,,,,,,
69543,1564154465583,2,2.16,0.89,0.51,1.31,1.03,0.75,1.04,0.37,-23,-2,-31,1.28,10206,28,102,44,39,955,556.0,655,465,60,121.0,159,1,320,215,84,0,0,555,-22359,-28648,525,-5.59,44.68137,10.024846,53.56,178.5,0,0.0,-1,0.0,0.0,0,0.28,1.159
69563,1564154465603,1,2.16,0.89,0.51,1.32,1.02,0.76,1.13,0.34,-22,-0,-31,1.36,10190,28,102,44,39,959,557.0,652,469,60,122.0,157,1,320,215,83,0,0,560,2216,-9072,526,-5.59,,,,,,,,,,,,
69583,1564154465623,1,2.15,0.89,0.51,1.32,1.02,0.83,1.19,0.32,-22,-2,-30,1.45,10223,28,102,44,39,963,558.0,650,460,60,122.0,157,1,320,215,83,0,0,561,-32504,14504,526,-5.59,,,,,,,,,,,,
69603,1564154465643,3,2.12,0.89,0.51,1.32,1.02,0.76,1.17,0.33,-23,0,-30,1.4,10157,28,102,44,39,966,556.0,666,468,60,121.0,157,1,320,215,83,0,0,550,-22359,-32248,524,-5.59,,,,,,,,,,,,
69623,1564154465663,1,2.12,0.89,0.51,1.32,1.03,0.7,1.19,0.26,-23,0,-30,1.38,10184,28,102,44,39,969,558.0,667,466,60,121.0,157,1,320,215,83,0,0,560,2216,-2934,524,-5.59,,,,,,,,,,,,
69643,1564154465683,2,2.11,0.89,0.51,1.32,1.02,0.65,1.2,0.26,-24,2,-30,1.36,10190,28,102,44,39,970,559.0,668,467,60,121.0,157,1,320,215,83,0,0,558,6273,-9072,523,-5.59,44.681377,10.024829,53.22,178.5,0,0.0,-1,0.0,0.0,0,0.29,1.1607
69663,1564154465703,-1,2.11,0.89,0.51,1.32,1.02,0.75,1.13,0.29,-25,3,-32,1.36,10140,28,102,44,39,969,557.0,656,463,60,122.0,159,1,320,215,83,0,0,562,-32504,2088,521,-5.59,,,,,,,,,,,,
69683,1564154465723,1,2.11,0.89,0.51,1.31,1.02,0.78,1.07,0.37,-26,1,-31,1.32,10184,28,102,44,39,969,560.0,661,463,60,122.0,159,1,320,215,83,0,0,563,-32504,6274,520,-5.59,,,,,,,,,,,,
69703,1564154465743,3,2.1,0.88,0.51,1.31,1.02,0.77,1.03,0.46,-27,5,-34,1.29,10157,28,102,44,38,973,558.0,657,458,60,121.0,159,1,317,215,83,0,0,563,-32504,6274,521,-5.59,,,,,,,,,,,,
69723,1564154465763,1,2.12,0.89,0.51,1.32,1.02,0.81,1.05,0.44,-27,4,-34,1.32,10157,28,102,44,39,975,561.0,652,468,60,122.0,159,1,320,215,83,0,0,561,-18032,-32248,519,-5.59,,,,,,,,,,,,
69743,1564154465783,2,2.11,0.89,0.51,1.31,1.03,0.84,1.15,0.5,-27,1,-34,1.42,10206,28,102,44,38,978,558.0,651,463,60,122.0,159,1,317,215,83,0,0,561,-22359,14504,522,-5.59,44.681377,10.02481,53.37,178.5,0,0.0,-1,0.0,0.0,0,0.29,1.1624
69763,1564154465803,-1,2.12,0.89,0.51,1.31,1.03,0.93,1.13,0.6,-26,2,-35,1.46,10162,28,102,44,39,984,554.0,648,460,60,121.0,161,1,320,215,83,0,0,554,2524,-32248,517,-5.59,,,,,,,,,,,,
69783,1564154465823,2,2.11,0.88,0.51,1.31,1.03,0.94,1.13,0.62,-26,0,-34,1.47,10190,28,101,44,39,988,551.0,652,465,60,122.0,161,1,320,214,83,0,0,556,6274,2088,517,-5.59,,,,,,,,,,,,
69803,1564154465843,1,2.12,0.89,0.51,1.32,1.02,0.8,1.22,0.55,-26,1,-33,1.46,10113,28,101,44,39,996,549.0,664,466,60,121.0,161,1,320,214,83,0,0,553,2104,-32248,516,-5.59,,,,,,,,,,,,
69823,1564154465863,1,2.13,0.88,0.51,1.31,1.03,0.74,1.29,0.43,-25,0,-32,1.49,10118,28,101,44,39,999,548.0,649,466,60,122.0,161,1,320,214,83,0,0,555,2104,-22519,516,-5.59,,,,,,,,,,,,
69843,1564154465883,0,2.14,0.89,0.51,1.32,1.02,0.78,1.31,0.34,-25,-1,-31,1.52,10107,28,101,44,39,1002,551.0,653,462,60,122.0,161,1,320,214,83,0,0,549,6274,-8186,519,-5.59,44.681381,10.024792,52.82,178.4,0,0.0,-1,0.0,0.0,0,0.29,1.164
69863,1564154465903,2,2.15,0.89,0.52,1.32,1.03,0.73,1.31,0.31,-25,-1,-31,1.5,10075,28,101,44,39,1003,551.0,680,464,60,122.0,158,1,320,214,82,0,0,549,6274,14504,518,-5.59,,,,,,,,,,,,
69883,1564154465923,1,2.15,0.89,0.51,1.32,1.02,0.54,1.29,0.27,-24,-1,-32,1.4,10113,28,101,44,38,1006,547.0,665,467,60,120.0,158,1,317,212,82,0,0,554,-22519,-506,516,-5.59,,,,,,,,,,,,
69903,1564154465943,1,2.14,0.89,0.51,1.33,1.02,0.58,1.27,0.21,-24,1,-32,1.39,10129,28,101,44,39,1005,547.0,663,467,60,121.0,158,1,320,214,82,0,0,552,2104,-28648,515,-5.59,,,,,,,,,,,,
69923,1564154465963,-1,2.12,0.89,0.51,1.31,1.03,0.63,1.15,0.17,-24,-1,-31,1.31,10096,28,101,44,39,1004,548.0,652,465,60,122.0,158,1,320,214,82,0,0,548,14504,14504,517,-5.59,,,,,,,,,,,,
69943,1564154465983,1,2.11,0.89,0.52,1.32,1.02,0.59,1.05,0.21,-25,-0,-31,1.21,10151,28,101,44,39,1004,548.0,649,469,60,121.0,158,1,320,214,82,0,0,548,14504,-22519,517,-5.59,44.681381,10.024773,52.8,178.4,0,0.0,-1,0.0,0.0,0,0.29,1.1657
69963,1564154465993,1,2.09,0.89,0.51,1.31,1.02,0.57,1.11,0.2,-26,1,-31,1.24,10151,28,101,44,39,1005,547.0,652,462,60,122.0,159,1,320,214,82,0,0,555,-22519,2524,515,-5.59,,,,,,,,,,,,
69983,1564154466013,-0,2.09,0.89,0.51,1.31,1.03,0.61,1.02,0.32,-27,0,-32,1.19,10113,28,101,44,39,1007,547.0,643,463,60,122.0,159,1,320,212,82,0,0,546,-22519,-9212,512,-5.59,,,,,,,,,,,,
70003,1564154466033,1,2.08,0.88,0.5,1.31,1.03,0.75,1.01,0.36,-28,1,-32,1.26,10157,28,101,44,39,1009,549.0,650,468,60,122.0,159,1,320,213,82,0,0,551,-28648,2088,512,-5.59,,,,,,,,,,,,
70023,1564154466053,2,2.08,0.88,0.51,1.32,1.02,0.78,1.0,0.39,-28,-1,-33,1.27,10102,28,101,44,39,1012,552.0,663,467,60,121.0,159,1,320,214,82,0,0,549,-28648,2524,510,-5.59,,,,,,,,,,,,
70043,1564154466073,2,2.08,0.89,0.51,1.32,1.02,0.74,1.02,0.46,-28,-1,-34,1.26,10080,28,101,44,39,1015,551.0,661,469,60,122.0,159,1,320,214,82,0,0,555,6274,-32248,511,-5.59,44.681381,10.024755,52.68,178.4,0,0.0,-1,0.0,0.0,0,0.29,1.1674
70063,1564154466105,1,2.08,0.89,0.51,1.32,1.03,0.87,1.08,0.51,-28,-0,-35,1.39,10107,28,101,44,39,1017,551.0,659,466,60,122.0,159,1,320,212,81,0,0,552,2104,-30064,508,-5.59,,,,,,,,,,,,
70083,1564154466125,2,2.09,0.89,0.51,1.32,1.02,0.92,1.07,0.62,-28,-1,-36,1.41,10086,28,101,44,39,1018,552.0,660,462,60,122.0,159,1,320,214,81,0,0,553,2524,-32248,509,-5.59,,,,,,,,,,,,
70103,1564154466145,2,2.09,0.89,0.51,1.31,1.03,0.96,1.17,0.56,-29,-1,-35,1.51,10129,28,101,44,39,1017,552.0,657,458,60,121.0,159,1,320,214,81,0,0,553,-28648,1341,510,-5.59,,,,,,,,,,,,
70123,1564154466165,1,2.09,0.89,0.51,1.31,1.02,0.91,1.25,0.57,-29,-2,-34,1.55,10102,28,101,44,39,1015,552.0,650,464,60,122.0,159,1,320,214,81,0,0,553,-28648,15679,508,-5.59,,,,,,,,,,,,
70143,1564154466185,0,2.09,0.89,0.51,1.31,1.02,0.97,1.22,0.65,-29,0,-36,1.56,10026,28,101,44,39,1013,549.0,649,464,60,121.0,159,1,320,214,81,0,0,550,2104,-32248,506,-5.59,44.681381,10.024736,52.28,178.3,0,0.0,-1,0.0,0.0,0,0.29,1.169
70163,1564154466205,2,2.12,0.89,0.51,1.31,1.03,1.0,1.3,0.52,-28,-1,-37,1.64,10059,28,101,44,39,1009,548.0,658,467,60,121.0,160,1,320,214,81,0,0,548,2524,-30064,508,-5.59,,,,,,,,,,,,
70183,1564154466225,2,2.13,0.89,0.51,1.32,1.02,0.89,1.37,0.54,-28,-2,-36,1.64,10026,28,101,44,39,1007,551.0,662,465,60,121.0,160,1,320,214,81,0,0,548,6274,-22519,507,-5.59,,,,,,,,,,,,
70203,1564154466245,-1,2.15,0.89,0.51,1.32,1.02,0.92,1.37,0.48,-28,3,-36,1.65,10048,28,101,44,39,1006,548.0,645,458,60,121.0,160,1,320,214,81,0,0,550,14504,-14,509,-5.59,,,,,,,,,,,,
70223,1564154466265,3,2.14,0.89,0.51,1.32,1.03,0.94,1.37,0.47,-28,-0,-35,1.67,10107,28,101,44,38,1007,546.0,655,462,60,120.0,160,1,317,214,81,0,0,552,2524,16383,511,-5.59,,,,,,,,,,,,
70243,1564154466285,2,2.14,0.9,0.52,1.32,1.03,0.89,1.26,0.49,-27,1,-34,1.54,10053,28,101,44,39,1010,545.0,656,464,60,121.0,160,1,320,214,81,0,0,541,-3082,15679,508,-5.59,44.681377,10.024717,51.78,178.3,0,0.0,-1,0.0,0.0,0,0.29,1.1707
70263,1564154466305,2,2.13,0.89,0.52,1.32,1.03,0.89,1.33,0.41,-26,3,-34,1.6,10005,28,101,44,39,1013,541.0,651,460,60,122.0,159,1,320,214,81,0,0,547,1779,6274,508,-5.59,,,,,,,,,,,,
70283,1564154466325,2,2.1,0.89,0.52,1.32,1.02,0.95,1.27,0.39,-26,1,-33,1.59,10016,28,101,44,39,1019,541.0,650,461,60,122.0,159,1,320,214,81,0,0,546,-2336,6274,510,-5.59,,,,,,,,,,,,
70303,1564154466345,2,2.07,0.9,0.51,1.32,1.02,0.98,1.08,0.37,-26,1,-33,1.46,9946,28,101,44,39,1021,536.0,653,466,60,121.0,159,1,320,213,81,0,0,546,-28648,2088,509,-5.59,,,,,,,,,,,,
70323,1564154466365,-0,2.07,0.89,0.52,1.32,1.03,0.95,1.16,0.35,-26,1,-32,1.5,9925,28,101,44,39,1024,541.0,648,470,60,122.0,159,1,320,213,81,0,0,543,-2336,-3482,510,-5.59,,,,,,,,,,,,
70343,1564154466385,2,2.06,0.89,0.51,1.32,1.02,1.01,1.17,0.28,-27,2,-32,1.55,9915,28,101,44,38,1027,543.0,646,463,60,121.0,159,1,317,211,81,0,0,542,1779,-9212,506,-5.59,44.681374,10.0247,51.64,178.2,0,0.0,-1,0.0,0.0,0,0.3,1.1724
70363,1564154466405,2,2.05,0.89,0.51,1.32,1.02,0.92,1.24,0.2,-27,-0,-31,1.54,9863,28,101,44,38,1029,543.0,648,464,60,120.0,156,1,317,211,79,0,0,545,-2336,-22519,505,-5.59,,,,,,,,,,,,
