"Interval"|"ms"|0|0|1,"Utc"|"ms"|0|0|1,"FB_p"|"bar"|0|300|50,"Volant"|"F"|0.0|300.0|50,"xFR"|"mm"|0.0|5.0|50,"xRR"|"mm"|0.0|5.0|50,"xFL"|"mm"|0.0|5.0|50,"xRL"|"mm"|0.0|5.0|50,"AccelX"|"G"|-3.0|3.0|50,"AccelY"|"G"|-3.0|3.0|50,"AccelZ"|"G"|-3.0|3.0|50,"Yaw"|"Deg/Sec"|-120|120|50,"Pitch"|"Deg/Sec"|-120|120|50,"Roll"|"Deg/Sec"|-120|120|50,"Gsum"|"G"|0.0|3.0|50,"RPM"|""|0|14000|50,"TPS"|"%"|0|100|50,"WaterTemp"|"?C"|0|300|50,"AirTemp"|"?C"|-1000|1000|50,"MAP"|"KPa"|0|255|50,"Lambda"|""|0|1024|50,"WheelSpeed"|"MPH"|0.0|150.0|50,"OilPress"|"PSI"|0|150|50,"FuelPress"|"PSI"|0|150|50,"OilTemp"|"F"|0|300|50,"Battery"|"Volts"|0.0|20.0|50,"FuelCon"|"L/h"|-1000|1000|50,"Gear"|""|0|10|50,"Advance"|"Deg"|-360|360|50,"Injection"|"ms"|-1000|1000|50,"FuelCon"|"L/100km"|-1000|1000|50,"LC_But_Pres"|""|-1000|1000|50,"LC_Active"|""|-1000|1000|50,"RD_Speed"|""|-1000|1000|50,"RUD_Speed"|""|-1000|1000|50,"LD_Speed"|""|-1000|1000|50,"LUD_Speed"|""|-1000|1000|50,"Ana1"|"bar"|-1000.0|1000.0|50,"Latitude"|"Degrees"|-180.0|180.0|10,"Longitude"|"Degrees"|-180.0|180.0|10,"Speed"|"kph"|0.0|150.0|10,"Altitude"|"m"|0.0|4000.0|10,"LapCount"|""|0|0|10,"LapTime"|"Min"|0.0|0.0|10,"Sector"|""|0|0|10,"SectorTime"|"Min"|0.0|0.0|10,"ElapsedTime"|"Min"|0.0|0.0|10,"CurrentLap"|""|0|0|10,"Distance"|"km"|0.0|0.0|10,"SessionTime"|"Min"|0.0|0.0|10
502763,1564153247469,10,2.24,0.45,0.24,1.07,0.86,0.32,0.39,-0.34,-4,-1,-11,0.5,7440,15,107,44,36,820,395.0,456,463,60,123.0,132,1,301,193,52,0,0,399,17144,-32702,379,-5.59,,,,,,,,,,,,
502783,1564153247489,9,2.25,0.46,0.25,1.07,0.87,0.26,0.43,-0.38,-4,-2,-13,0.5,7378,15,107,44,36,820,392.0,437,461,60,122.0,143,1,301,193,54,0,0,403,1,-19019,375,181.28,,,,,,,,,,,,
502803,1564153247509,7,2.25,0.47,0.25,1.08,0.87,0.26,0.47,-0.45,-5,-3,-12,0.54,7381,15,107,44,37,819,389.0,448,462,60,123.0,143,1,304,193,54,0,0,395,-6524,-31744,374,-5.59,,,,,,,,,,,,
502823,1564153247529,7,2.24,0.49,0.26,1.08,0.89,0.44,0.47,-0.36,-6,-5,-11,0.64,7329,15,107,44,37,817,387.0,449,461,60,123.0,143,1,304,199,54,0,0,394,240,240,372,-5.59,,,,,,,,,,,,
502843,1564153247549,7,2.25,0.49,0.26,1.09,0.9,0.59,0.48,-0.13,-6,-6,-11,0.77,7301,15,107,44,37,818,383.0,443,457,60,124.0,143,1,304,199,54,0,0,393,-19126,-19019,369,-5.59,44.680923,10.024782,39.77,173.1,0,0.0,-1,0.0,0.0,0,3.74,8.3807
502863,1564153247569,10,2.24,0.5,0.26,1.11,0.9,0.74,0.39,0.02,-6,-5,-12,0.83,7208,15,107,44,38,819,380.0,445,460,60,122.0,143,1,307,205,54,0,0,392,-992,-6475,367,-5.59,,,,,,,,,,,,
502883,1564153247589,8,2.25,0.51,0.26,1.11,0.91,0.71,0.41,-0.06,-5,-3,-12,0.82,7175,15,107,44,38,820,377.0,437,462,60,120.0,153,1,307,205,56,0,0,391,-6656,8200,367,181.28,,,,,,,,,,,,
502903,1564153247608,6,2.24,0.53,0.27,1.12,0.9,0.56,0.44,-0.1,-5,-2,-12,0.71,7118,15,107,44,38,823,376.0,432,460,60,123.0,153,1,307,205,56,0,0,382,3,257,363,-5.59,,,,,,,,,,,,
502923,1564153247628,5,2.25,0.53,0.27,1.12,0.91,0.64,0.43,-0.03,-6,-4,-12,0.77,7056,15,107,44,38,830,373.0,436,457,60,124.0,153,1,307,211,56,0,0,382,1,257,363,-5.59,,,,,,,,,,,,
502943,1564153247648,8,2.25,0.54,0.27,1.12,0.92,0.74,0.39,0.11,-5,-4,-10,0.84,7040,15,107,44,39,839,371.0,433,465,60,122.0,153,1,310,211,56,0,0,380,-6656,-6656,361,181.28,44.680916,10.024771,38.2,173.1,0,0.0,-1,0.0,0.0,0,3.74,8.3824
502963,1564153247668,4,2.27,0.54,0.27,1.13,0.92,0.7,0.44,-0.03,-5,-1,-11,0.83,7022,15,107,44,39,847,369.0,434,457,60,121.0,153,1,310,211,56,0,0,378,-6656,486,360,-5.59,,,,,,,,,,,,
502983,1564153247688,6,2.27,0.56,0.29,1.14,0.93,0.69,0.37,0.07,-5,-4,-11,0.79,6947,15,107,44,40,854,367.0,421,448,60,123.0,155,1,317,212,56,0,0,375,0,-6656,360,-5.59,,,,,,,,,,,,
503003,1564153247708,5,2.27,0.56,0.29,1.14,0.93,0.82,0.42,0.08,-4,-1,-11,0.92,6929,15,107,44,40,865,367.0,430,432,60,121.0,155,1,317,212,56,0,0,373,0,0,360,-5.59,,,,,,,,,,,,
503023,1564153247728,3,2.26,0.58,0.29,1.16,0.94,0.7,0.4,0.01,-5,-2,-11,0.81,6918,15,107,44,40,876,364.0,421,448,60,123.0,155,1,317,212,56,0,0,374,-1268,-6656,359,-5.59,,,,,,,,,,,,
503043,1564153247748,5,2.28,0.57,0.29,1.17,0.94,0.81,0.35,0.14,-5,-2,-11,0.88,6873,15,107,44,40,886,365.0,433,451,60,123.0,155,1,317,214,56,0,0,374,2790,-1268,356,-5.59,44.680908,10.024759,37.2,173.2,0,0.0,-1,0.0,0.0,0,3.74,8.3841
503063,1564153247768,1,2.29,0.58,0.29,1.17,0.94,0.75,0.38,0.07,-4,0,-9,0.84,6883,15,107,44,41,891,362.0,412,453,60,123.0,155,1,324,214,56,0,0,372,2790,-6405,355,181.28,,,,,,,,,,,,
503083,1564153247788,3,2.3,0.59,0.3,1.17,0.95,0.7,0.33,0.18,-5,-0,-10,0.77,6898,15,107,44,41,897,361.0,425,462,60,123.0,154,1,324,214,55,0,0,370,-6458,0,355,-5.59,,,,,,,,,,,,
503103,1564153247808,2,2.33,0.6,0.29,1.17,0.94,0.82,0.32,0.23,-4,-0,-10,0.87,6875,15,107,44,41,902,359.0,423,459,60,121.0,154,1,324,214,55,0,0,370,-29302,2790,356,-5.59,,,,,,,,,,,,
503123,1564153247828,-1,2.34,0.61,0.3,1.18,0.96,0.73,0.26,0.22,-4,-1,-10,0.77,6870,15,107,44,41,905,359.0,409,459,60,123.0,154,1,324,214,55,0,0,368,-29302,-1268,354,-5.59,,,,,,,,,,,,
503143,1564153247848,2,2.36,0.62,0.31,1.2,0.97,0.83,0.18,0.31,-3,-1,-8,0.85,6870,15,107,44,41,905,359.0,415,453,60,122.0,154,1,324,214,55,0,0,364,-29978,-6405,355,-5.59,44.680904,10.024749,36.38,173.2,0,0.0,-1,0.0,0.0,0,3.74,8.3857
503163,1564153247868,-1,2.37,0.65,0.32,1.21,0.98,0.82,0.24,0.24,-3,1,-8,0.86,6860,15,107,44,42,905,358.0,418,457,60,123.0,154,1,331,216,55,0,0,363,-6640,-6656,358,-5.59,,,,,,,,,,,,
503183,1564153247888,3,2.38,0.68,0.33,1.23,0.99,0.81,0.13,0.39,-2,-0,-7,0.82,6805,15,107,44,42,904,358.0,409,460,60,123.0,156,1,331,216,56,0,0,364,2060,-6656,358,-5.59,,,,,,,,,,,,
503203,1564153247908,-1,2.39,0.7,0.35,1.26,1.0,0.85,0.27,0.36,-1,2,-4,0.89,6810,15,107,44,42,903,358.0,407,458,60,123.0,156,1,331,216,56,0,0,366,-6644,0,360,-5.59,,,,,,,,,,,,
503223,1564153247928,4,2.39,0.73,0.36,1.27,1.02,0.76,0.11,0.51,-1,1,-4,0.77,6840,15,107,44,42,902,360.0,410,460,60,124.0,156,1,331,216,56,0,0,360,3183,-6405,360,-5.59,,,,,,,,,,,,
503243,1564153247948,-0,2.41,0.76,0.36,1.29,1.04,0.87,0.16,0.5,1,2,-3,0.88,6830,15,107,44,43,903,359.0,423,460,60,122.0,156,1,339,219,56,0,0,364,3183,230,359,-5.59,44.680901,10.024739,36.0,173.3,0,0.0,-1,0.0,0.0,0,3.74,8.3874
503263,1564153247968,-0,2.41,0.79,0.38,1.33,1.06,0.72,0.05,0.5,1,0,-3,0.72,6810,15,107,44,42,905,360.0,416,460,60,123.0,156,1,331,216,56,0,0,364,3183,3082,360,-5.59,,,,,,,,,,,,
503283,1564153247988,1,2.41,0.83,0.4,1.34,1.08,0.81,0.07,0.45,2,1,-2,0.81,6823,15,107,44,42,908,360.0,418,461,60,122.0,152,1,331,219,55,0,0,364,28553,0,361,-5.59,,,,,,,,,,,,
503303,1564153247998,-0,2.42,0.87,0.41,1.38,1.09,0.7,0.04,0.37,2,1,-1,0.7,6818,15,107,44,43,910,360.0,416,460,60,123.0,152,1,339,216,55,0,0,363,-30454,230,359,-5.59,,,,,,,,,,,,
503323,1564153248018,2,2.42,0.89,0.42,1.4,1.11,0.78,-0.04,0.45,3,1,1,0.78,6795,15,107,44,43,914,360.0,423,463,60,123.0,152,1,338,218,55,0,0,360,3183,230,360,-5.59,,,,,,,,,,,,
503343,1564153248038,0,2.43,0.91,0.43,1.4,1.12,0.83,0.0,0.41,3,1,2,0.83,6815,15,107,44,43,919,360.0,407,461,60,123.0,152,1,339,219,55,0,0,362,-30454,486,360,-5.59,44.680893,10.02473,35.86,173.3,0,0.0,-1,0.0,0.0,0,3.74,8.389
503363,1564153248058,1,2.42,0.91,0.43,1.41,1.12,0.8,-0.14,0.54,4,-0,3,0.81,6820,15,107,44,43,924,360.0,421,457,60,123.0,152,1,339,219,55,0,0,362,-30454,-1268,360,-5.59,,,,,,,,,,,,
503383,1564153248078,0,2.44,0.92,0.43,1.42,1.11,0.8,-0.03,0.4,5,2,4,0.8,6845,15,107,44,43,926,361.0,414,463,60,122.0,155,1,339,219,56,0,0,358,-1246,0,361,-5.59,,,,,,,,,,,,
503403,1564153248108,2,2.45,0.93,0.43,1.42,1.11,0.81,-0.11,0.55,5,-1,4,0.81,6795,15,107,44,43,929,360.0,416,460,60,121.0,155,1,338,218,56,0,0,358,-1246,257,360,-5.59,,,,,,,,,,,,
503423,1564153248128,-0,2.46,0.92,0.42,1.42,1.11,0.79,-0.06,0.46,6,1,4,0.79,6786,15,107,44,43,933,359.0,409,466,60,122.0,155,1,339,218,56,0,0,361,-30438,-6656,359,-5.59,,,,,,,,,,,,
503443,1564153248148,3,2.48,0.91,0.42,1.42,1.11,0.8,-0.19,0.54,6,-0,4,0.82,6798,15,107,44,43,938,362.0,412,462,60,124.0,155,1,338,218,56,0,0,359,-30438,0,362,-5.59,44.680885,10.024719,35.61,173.3,0,0.0,-1,0.0,0.0,0,3.74,8.3907
503463,1564153248168,-2,2.49,0.92,0.42,1.41,1.11,0.79,-0.2,0.49,7,1,6,0.82,6798,15,107,44,43,940,360.0,416,464,60,123.0,155,1,338,218,56,0,0,357,6870,257,360,-5.59,,,,,,,,,,,,
503483,1564153248188,3,2.51,0.95,0.43,1.43,1.12,0.8,-0.21,0.54,8,1,8,0.83,6771,15,107,44,43,942,361.0,416,462,60,124.0,155,1,338,218,56,0,0,355,-30438,257,361,-5.59,,,,,,,,,,,,
503503,1564153248208,-0,2.53,0.98,0.44,1.45,1.14,0.84,-0.14,0.57,9,2,10,0.85,6781,15,107,44,43,944,362.0,413,463,60,122.0,155,1,338,218,56,0,0,353,-10554,486,362,-5.59,,,,,,,,,,,,
503523,1564153248228,2,2.55,1.02,0.45,1.47,1.16,0.79,-0.18,0.66,10,1,10,0.81,6766,15,107,44,43,945,363.0,413,463,60,123.0,155,1,338,218,56,0,0,352,-31206,257,363,-5.59,,,,,,,,,,,,
503543,1564153248248,-0,2.56,1.06,0.47,1.49,1.16,0.83,-0.18,0.58,12,2,12,0.85,6751,15,107,44,43,945,364.0,417,465,60,121.0,155,1,338,218,56,0,0,352,-31206,486,364,-5.59,44.680885,10.024709,35.66,173.4,0,0.0,-1,0.0,0.0,0,3.75,8.3924
503563,1564153248268,4,2.56,1.09,0.47,1.51,1.17,0.77,-0.25,0.59,13,-1,13,0.81,6715,15,107,44,43,944,363.0,413,462,60,123.0,155,1,338,218,56,0,0,349,-122,-6656,363,-5.59,,,,,,,,,,,,
503583,1564153248288,0,2.57,1.09,0.47,1.51,1.18,0.79,-0.22,0.44,15,1,14,0.82,6730,15,107,44,44,941,365.0,411,466,60,121.0,150,1,345,220,55,0,0,346,13,1,364,-5.59,,,,,,,,,,,,
503603,1564153248304,4,2.57,1.1,0.47,1.53,1.18,0.82,-0.28,0.52,15,-1,14,0.87,6696,15,107,44,44,939,364.0,408,462,60,124.0,150,1,345,220,55,0,0,345,4838,1,364,-5.59,,,,,,,,,,,,
503623,1564153248324,1,2.58,1.1,0.47,1.52,1.18,0.78,-0.3,0.45,16,2,16,0.83,6665,15,107,44,44,937,361.0,411,465,60,123.0,150,1,345,220,55,0,0,345,-32559,-6405,361,-5.59,,,,,,,,,,,,
503643,1564153248344,2,2.59,1.1,0.47,1.52,1.18,0.78,-0.4,0.43,17,0,18,0.87,6602,15,107,44,44,935,362.0,406,466,60,123.0,150,1,345,220,55,0,0,342,-6528,0,362,-5.59,44.680878,10.024698,35.73,173.5,0,0.0,-1,0.0,0.0,0,3.75,8.394
503663,1564153248364,2,2.58,1.1,0.47,1.53,1.17,0.78,-0.4,0.36,18,1,19,0.87,6585,15,107,44,44,934,362.0,394,464,60,123.0,150,1,344,219,55,0,0,341,4838,0,362,-5.59,,,,,,,,,,,,
503683,1564153248384,2,2.58,1.1,0.47,1.52,1.17,0.82,-0.38,0.4,19,1,21,0.9,6606,15,107,44,45,934,363.0,394,463,60,122.0,148,1,352,219,54,0,0,337,-32559,-6656,363,-5.59,,,,,,,,,,,,
503703,1564153248410,4,2.59,1.09,0.47,1.52,1.17,0.78,-0.49,0.5,18,1,21,0.92,6590,15,107,44,45,936,359.0,398,463,60,123.0,148,1,351,221,54,0,0,336,170,230,359,-5.59,,,,,,,,,,,,
503723,1564153248430,1,2.58,1.09,0.47,1.52,1.16,0.78,-0.41,0.35,20,3,22,0.88,6588,15,107,44,45,937,357.0,393,464,60,122.0,148,1,351,221,54,0,0,335,-20736,-6405,357,-5.59,,,,,,,,,,,,
503743,1564153248450,3,2.59,1.09,0.47,1.52,1.18,0.85,-0.45,0.5,20,0,23,0.97,6565,15,107,44,45,937,355.0,402,463,60,121.0,148,1,351,221,54,0,0,336,-22016,3082,355,-5.59,44.680874,10.024688,35.2,173.5,0,0.0,-1,0.0,0.0,0,3.75,8.3957
503763,1564153248470,5,2.59,1.09,0.47,1.52,1.18,0.74,-0.53,0.5,20,-1,23,0.91,6530,15,107,44,45,936,355.0,393,462,60,123.0,148,1,351,221,54,0,0,339,-22016,-29302,355,-5.59,,,,,,,,,,,,
503783,1564153248490,1,2.59,1.09,0.47,1.52,1.17,0.82,-0.45,0.43,21,1,23,0.93,6499,15,107,44,45,934,356.0,391,463,60,122.0,151,1,351,221,54,0,0,339,165,2790,356,-5.59,,,,,,,,,,,,
503803,1564153248510,2,2.6,1.09,0.47,1.51,1.17,0.85,-0.52,0.47,21,-1,24,1.0,6490,15,107,44,45,933,354.0,397,464,60,123.0,151,1,350,221,54,0,0,335,-23296,3082,354,-5.59,,,,,,,,,,,,
503823,1564153248530,3,2.61,1.09,0.46,1.51,1.16,0.83,-0.54,0.43,22,-1,24,0.99,6490,15,107,44,45,930,354.0,392,460,60,124.0,151,1,350,221,54,0,0,333,-23296,2790,354,-5.59,,,,,,,,,,,,
503843,1564153248550,0,2.61,1.08,0.47,1.52,1.16,0.85,-0.52,0.42,22,0,25,1.0,6461,15,107,44,46,928,354.0,394,462,60,122.0,151,1,357,221,54,0,0,331,-23296,2790,354,-5.59,44.68087,10.024677,34.88,173.5,0,0.0,-1,0.0,0.0,0,3.75,8.3974
503863,1564153248570,-1,2.61,1.08,0.46,1.52,1.17,0.91,-0.58,0.38,23,-0,26,1.08,6445,15,107,44,46,927,355.0,398,465,60,122.0,151,1,357,222,54,0,0,329,160,-29302,355,-5.59,,,,,,,,,,,,
503883,1564153248590,1,2.63,1.09,0.47,1.53,1.16,0.85,-0.59,0.44,24,-2,26,1.04,6438,15,107,44,46,926,356.0,386,464,60,123.0,151,1,357,222,54,0,0,330,-25856,-29978,356,-5.59,,,,,,,,,,,,
503903,1564153248609,1,2.63,1.09,0.47,1.52,1.17,0.86,-0.58,0.38,24,-0,27,1.04,6432,15,107,44,46,928,354.0,390,465,60,122.0,151,1,357,222,54,0,0,327,-25856,-14707,354,-5.59,,,,,,,,,,,,
503923,1564153248629,-1,2.63,1.1,0.47,1.52,1.17,0.95,-0.57,0.42,25,1,28,1.11,6443,15,107,44,46,931,354.0,394,465,60,121.0,151,1,357,222,54,0,0,326,150,-14707,354,-5.59,,,,,,,,,,,,
503943,1564153248649,2,2.65,1.09,0.47,1.53,1.18,0.87,-0.68,0.45,25,-1,29,1.1,6423,15,107,44,46,934,356.0,401,463,60,122.0,151,1,357,222,54,0,0,330,-28416,-29302,356,-5.59,44.680866,10.024666,34.52,173.6,0,0.0,-1,0.0,0.0,0,3.75,8.399
503963,1564153248669,4,2.66,1.09,0.47,1.52,1.17,0.77,-0.68,0.54,26,1,29,1.03,6405,15,107,44,46,936,356.0,385,465,60,123.0,151,1,357,222,54,0,0,326,140,-1268,356,-5.59,,,,,,,,,,,,
503983,1564153248689,-0,2.66,1.1,0.47,1.52,1.17,0.82,-0.66,0.45,27,2,30,1.05,6410,15,107,44,46,940,353.0,387,465,60,121.0,150,1,356,222,53,0,0,324,-29696,-29978,354,-5.59,,,,,,,,,,,,
504003,1564153248709,-1,2.67,1.09,0.47,1.53,1.17,0.94,-0.68,0.53,28,1,31,1.16,6373,15,107,44,46,948,354.0,391,462,60,121.0,150,1,356,222,53,0,0,322,-29696,3082,354,-5.59,,,,,,,,,,,,
504023,1564153248729,2,2.67,1.09,0.47,1.53,1.18,0.88,-0.75,0.54,28,-2,32,1.16,6362,15,107,44,46,953,354.0,391,463,60,123.0,150,1,356,222,53,0,0,323,135,-29302,354,-5.59,,,,,,,,,,,,
504043,1564153248749,4,2.66,1.1,0.47,1.54,1.17,0.81,-0.74,0.58,28,-1,32,1.1,6364,15,107,44,46,956,353.0,382,464,60,123.0,150,1,356,221,53,0,0,320,130,4104,353,-5.59,44.680866,10.024654,34.05,173.6,0,0.0,-1,0.0,0.0,0,3.75,8.4007
504063,1564153248769,-0,2.66,1.1,0.47,1.53,1.17,0.86,-0.73,0.53,29,-1,33,1.13,6340,15,107,44,47,960,354.0,381,464,60,122.0,150,1,363,222,53,0,0,321,130,-14707,352,-5.59,,,,,,,,,,,,
504083,1564153248789,1,2.66,1.11,0.47,1.54,1.17,0.92,-0.72,0.47,30,-0,34,1.17,6321,15,107,44,47,965,353.0,383,468,60,120.0,150,1,363,222,53,0,0,320,130,-6640,353,-5.59,,,,,,,,,,,,
504103,1564153248809,1,2.67,1.1,0.47,1.53,1.17,0.95,-0.77,0.52,30,-1,35,1.22,6308,15,107,44,47,969,353.0,384,464,60,121.0,150,1,363,222,53,0,0,321,-32256,2060,353,-5.59,,,,,,,,,,,,
504123,1564153248829,3,2.67,1.1,0.47,1.54,1.17,0.86,-0.82,0.57,30,-1,34,1.19,6319,15,107,44,47,969,352.0,377,463,60,123.0,150,1,363,222,53,0,0,321,125,-6644,352,-5.59,,,,,,,,,,,,
504143,1564153248849,3,2.67,1.1,0.47,1.54,1.18,0.9,-0.86,0.44,30,-0,35,1.25,6317,15,107,44,47,968,351.0,380,465,60,122.0,150,1,363,222,53,0,0,320,125,-6640,351,-5.59,44.680862,10.024643,33.64,173.6,0,0.0,-1,0.0,0.0,0,3.75,8.4024
504163,1564153248869,1,2.67,1.09,0.47,1.53,1.18,0.88,-0.78,0.52,30,-0,35,1.18,6323,15,107,44,47,969,352.0,387,466,60,121.0,150,1,362,222,53,0,0,319,32000,-6640,352,-5.59,,,,,,,,,,,,
504183,1564153248889,-1,2.69,1.1,0.47,1.53,1.17,0.89,-0.8,0.49,31,-3,35,1.2,6311,15,107,44,47,970,352.0,385,463,60,122.0,150,1,363,227,53,0,0,320,120,-29978,352,-5.59,,,,,,,,,,,,
504203,1564153248909,1,2.69,1.1,0.47,1.53,1.17,0.79,-0.9,0.43,31,-4,35,1.2,6323,15,107,44,47,968,349.0,379,462,60,123.0,150,1,363,222,53,0,0,319,120,-6640,350,-5.59,,,,,,,,,,,,
504223,1564153248929,3,2.7,1.1,0.47,1.53,1.17,0.82,-0.87,0.51,32,-3,36,1.2,6315,15,107,44,47,967,350.0,375,463,60,123.0,150,1,363,222,53,0,0,319,32000,-29302,350,-5.59,,,,,,,,,,,,
504243,1564153248949,4,2.71,1.1,0.47,1.54,1.17,0.82,-0.82,0.54,32,-2,36,1.16,6300,15,107,44,47,967,350.0,380,467,60,122.0,150,1,363,222,53,0,0,321,120,4104,350,-5.59,44.680862,10.024632,33.43,173.7,0,0.0,-1,0.0,0.0,0,3.75,8.404
504263,1564153248969,-0,2.71,1.1,0.46,1.54,1.17,0.85,-0.78,0.61,32,-1,36,1.15,6300,15,107,44,48,968,350.0,387,467,60,121.0,150,1,366,227,53,0,0,319,120,3302,350,-5.59,,,,,,,,,,,,
504283,1564153248989,-2,2.71,1.1,0.47,1.52,1.16,0.88,-0.82,0.52,31,-2,37,1.2,6300,15,107,44,47,969,351.0,391,463,60,122.0,154,1,363,227,54,0,0,316,30720,4104,351,-5.59,,,,,,,,,,,,
504303,1564153249001,1,2.71,1.1,0.47,1.54,1.17,0.8,-0.94,0.56,31,-3,38,1.23,6306,15,107,44,47,969,351.0,382,462,60,122.0,154,1,363,222,54,0,0,317,115,-29978,351,-5.59,,,,,,,,,,,,
504323,1564153249021,2,2.71,1.09,0.47,1.53,1.17,0.74,-0.97,0.59,32,-2,39,1.22,6289,15,107,44,48,968,351.0,378,459,60,123.0,154,1,365,222,54,0,0,321,115,2060,351,-5.59,,,,,,,,,,,,
504343,1564153249041,3,2.72,1.1,0.47,1.54,1.17,0.73,-0.9,0.54,33,-1,39,1.16,6281,15,107,44,48,968,350.0,376,465,60,121.0,154,1,365,227,54,0,0,317,29440,-29978,350,-5.59,44.680862,10.024619,33.43,173.7,0,0.0,-1,0.0,0.0,0,3.75,8.4057
504363,1564153249061,-1,2.7,1.1,0.47,1.53,1.17,0.75,-0.8,0.62,34,-2,40,1.09,6264,15,107,44,48,967,349.0,379,464,60,121.0,154,1,365,227,54,0,0,316,29440,-6640,349,-5.59,,,,,,,,,,,,
504383,1564153249081,-0,2.71,1.1,0.47,1.54,1.17,0.88,-0.8,0.61,34,-4,42,1.19,6273,15,107,44,48,967,349.0,380,463,60,121.0,154,1,365,227,54,0,0,317,115,3302,349,-5.59,,,,,,,,,,,,
504403,1564153249109,1,2.69,1.11,0.47,1.54,1.18,0.84,-0.84,0.69,34,-7,42,1.18,6285,15,107,44,48,967,350.0,379,460,60,123.0,154,1,365,227,54,0,0,320,115,-6644,350,-5.59,,,,,,,,,,,,
504423,1564153249129,0,2.67,1.1,0.47,1.54,1.17,0.72,-0.89,0.69,33,-8,42,1.14,6291,15,107,44,48,967,350.0,375,462,60,123.0,154,1,365,227,54,0,0,317,30720,-6644,350,-5.59,,,,,,,,,,,,
504443,1564153249149,3,2.64,1.1,0.47,1.54,1.18,0.6,-0.95,0.66,33,-6,41,1.12,6306,15,107,44,48,968,350.0,374,463,60,122.0,154,1,366,227,54,0,0,318,115,4104,350,-5.59,44.680862,10.024608,32.98,173.7,0,0.0,-1,0.0,0.0,0,3.75,8.4074
504463,1564153249169,-1,2.6,1.1,0.47,1.54,1.17,0.74,-0.83,0.53,33,-3,42,1.11,6336,15,107,44,48,970,351.0,376,465,60,121.0,154,1,366,227,54,0,0,318,30720,-6644,350,-5.59,,,,,,,,,,,,
504483,1564153249189,-2,2.58,1.1,0.46,1.53,1.17,0.86,-0.75,0.38,32,-1,43,1.15,6325,16,107,44,48,973,349.0,385,466,60,121.0,154,1,366,227,54,0,0,319,125,-6644,349,-5.59,,,,,,,,,,,,
504503,1564153249209,-0,2.56,1.09,0.47,1.52,1.16,0.9,-0.71,0.33,30,-1,42,1.15,6298,16,107,44,48,974,348.0,384,462,60,123.0,154,1,365,227,54,0,0,324,-30976,3302,348,-5.59,,,,,,,,,,,,
504523,1564153249229,2,2.57,1.09,0.46,1.52,1.16,0.93,-0.76,0.25,29,-2,42,1.2,6306,16,107,44,48,974,346.0,383,458,60,123.0,154,1,366,146,54,0,0,322,-30976,-6640,347,-5.59,,,,,,,,,,,,
504543,1564153249249,3,2.58,1.09,0.46,1.52,1.17,0.9,-0.8,0.2,29,-1,41,1.2,6302,16,107,44,48,974,344.0,378,462,60,123.0,154,1,366,227,54,0,0,326,135,8841,344,-5.59,44.680862,10.024596,32.98,173.7,0,0.0,-1,0.0,0.0,0,3.76,8.409
504563,1564153249269,-2,2.59,1.08,0.47,1.52,1.16,0.88,-0.75,0.3,29,-2,39,1.16,6300,16,107,44,49,975,343.0,382,465,60,121.0,154,1,369,234,54,0,0,324,-29696,3183,343,-5.59,,,,,,,,,,,,
504583,1564153249289,0,2.61,1.09,0.47,1.53,1.16,0.88,-0.77,0.28,28,-3,38,1.17,6317,16,107,44,49,975,344.0,387,462,60,122.0,162,1,369,234,56,0,0,324,135,-1246,343,-5.59,,,,,,,,,,,,
504603,1564153249309,1,2.63,1.09,0.46,1.52,1.16,0.9,-0.79,0.23,27,-4,38,1.2,6308,16,107,44,48,974,344.0,380,461,60,123.0,162,1,366,234,56,0,0,324,135,2811,344,-5.59,,,,,,,,,,,,
504623,1564153249329,1,2.65,1.09,0.47,1.54,1.16,0.88,-0.88,0.27,28,-3,37,1.24,6304,16,107,44,48,973,347.0,381,461,60,123.0,162,1,366,146,56,0,0,325,-29696,3183,347,-5.59,,,,,,,,,,,,
504643,1564153249349,3,2.66,1.1,0.46,1.54,1.17,0.9,-0.81,0.4,28,-1,36,1.21,6321,16,107,44,49,974,345.0,374,467,60,123.0,162,1,369,234,56,0,0,324,-30976,-6644,348,-5.59,44.680866,10.024585,33.38,173.7,0,0.0,-1,0.0,0.0,0,3.76,8.4107
504663,1564153249369,-1,2.67,1.1,0.46,1.54,1.17,0.99,-0.79,0.45,28,-1,35,1.27,6343,16,107,44,49,977,349.0,376,465,60,121.0,162,1,369,234,56,0,0,325,135,4104,349,-5.59,,,,,,,,,,,,
504683,1564153249391,0,2.69,1.1,0.46,1.54,1.17,0.97,-0.75,0.46,28,-1,36,1.23,6366,17,107,44,49,979,350.0,386,462,60,123.0,160,1,369,234,56,0,0,325,32000,2060,350,-5.59,,,,,,,,,,,,
504703,1564153249411,2,2.7,1.09,0.45,1.53,1.17,0.91,-0.86,0.5,29,-0,37,1.25,6364,17,107,44,49,980,351.0,381,460,60,123.0,160,1,369,234,56,0,0,323,130,-29978,351,-5.59,,,,,,,,,,,,
504723,1564153249431,4,2.7,1.1,0.46,1.54,1.17,0.82,-0.96,0.53,31,1,38,1.26,6355,17,107,44,49,982,352.0,380,465,60,122.0,160,1,369,234,56,0,0,324,125,-29302,352,-5.59,,,,,,,,,,,,
504743,1564153249451,0,2.72,1.09,0.46,1.53,1.17,0.8,-0.85,0.54,31,0,39,1.17,6373,17,107,44,49,985,351.0,380,465,60,122.0,160,1,369,234,56,0,0,322,125,-29302,351,-5.59,44.680866,10.024573,33.09,173.7,0,0.0,-1,0.0,0.0,0,3.76,8.4124
504763,1564153249471,1,2.71,1.1,0.47,1.53,1.16,0.85,-0.8,0.5,30,-2,40,1.17,6355,17,107,44,49,987,350.0,388,460,60,121.0,160,1,369,234,56,0,0,323,120,-14707,350,-5.59,,,,,,,,,,,,
504783,1564153249491,2,2.72,1.09,0.46,1.54,1.17,0.94,-0.85,0.43,30,-3,41,1.26,6371,17,107,44,49,987,352.0,385,463,60,122.0,159,1,369,234,56,0,0,323,32000,2060,352,-5.59,,,,,,,,,,,,
504803,1564153249509,3,2.73,1.1,0.47,1.53,1.16,0.83,-0.92,0.41,31,-1,40,1.24,6355,17,107,44,49,987,353.0,381,466,60,122.0,159,1,369,234,56,0,0,327,125,-14707,353,-5.59,,,,,,,,,,,,
504823,1564153249529,-1,2.72,1.1,0.46,1.53,1.17,0.89,-0.85,0.34,31,-2,39,1.23,6351,17,107,44,49,990,352.0,381,465,60,121.0,159,1,369,234,56,0,0,329,-32256,-29978,352,-5.59,,,,,,,,,,,,
504843,1564153249549,0,2.7,1.1,0.47,1.54,1.17,0.92,-0.77,0.24,31,-4,39,1.21,6392,17,107,44,49,994,351.0,385,463,60,122.0,159,1,369,239,56,0,0,327,-32256,-1268,352,-5.59,44.68087,10.024564,33.27,173.7,0,0.0,-1,0.0,0.0,0,3.76,8.4141
504863,1564153249569,1,2.69,1.1,0.47,1.54,1.18,0.93,-0.78,0.33,31,-3,41,1.21,6412,17,107,44,50,995,354.0,387,465,60,123.0,159,1,373,240,56,0,0,324,-32256,-29302,354,-5.59,,,,,,,,,,,,
504883,1564153249589,-0,2.67,1.1,0.47,1.53,1.18,0.88,-0.75,0.4,32,-2,41,1.16,6443,18,107,44,49,997,354.0,388,464,60,123.0,161,1,370,234,57,0,0,321,125,2060,354,-5.59,,,,,,,,,,,,
504903,1564153249610,-0,2.65,1.1,0.47,1.53,1.17,0.89,-0.69,0.47,31,-3,41,1.12,6423,18,107,44,50,1001,354.0,392,465,60,121.0,161,1,373,240,57,0,0,323,-32256,-6405,354,-5.59,,,,,,,,,,,,
504923,1564153249630,-0,2.64,1.1,0.46,1.53,1.17,0.89,-0.77,0.51,31,-3,41,1.17,6392,18,107,44,49,1004,354.0,389,461,60,123.0,161,1,369,239,57,0,0,325,130,-6458,354,-5.59,,,,,,,,,,,,
504943,1564153249650,2,2.62,1.1,0.47,1.53,1.17,0.92,-0.81,0.49,30,-3,42,1.23,6366,18,107,44,49,1005,353.0,383,461,60,123.0,161,1,369,239,57,0,0,328,135,-29978,353,-5.59,44.680874,10.024553,33.46,173.7,0,0.0,-1,0.0,0.0,0,3.76,8.4157
504963,1564153249670,0,2.61,1.1,0.47,1.53,1.18,0.89,-0.76,0.49,31,-2,40,1.17,6377,18,107,44,50,1005,353.0,377,466,60,123.0,161,1,372,239,57,0,0,328,140,3082,353,-5.59,,,,,,,,,,,,
504983,1564153249690,-2,2.61,1.1,0.46,1.53,1.18,0.94,-0.68,0.59,30,-3,39,1.16,6425,19,107,44,50,1007,354.0,384,462,60,121.0,164,1,373,240,58,0,0,329,-28416,-29978,354,-5.59,,,,,,,,,,,,
505003,1564153249708,1,2.6,1.1,0.47,1.53,1.18,0.91,-0.73,0.52,29,-2,39,1.17,6438,19,107,44,50,1009,353.0,391,463,60,122.0,164,1,373,240,58,0,0,326,145,-29302,354,-5.59,,,,,,,,,,,,
505023,1564153249728,3,2.6,1.1,0.47,1.53,1.18,0.88,-0.82,0.53,29,-1,38,1.2,6441,19,107,44,50,1009,353.0,384,465,60,122.0,164,1,373,240,58,0,0,329,145,3082,353,-5.59,,,,,,,,,,,,
505043,1564153249748,-1,2.59,1.1,0.47,1.53,1.17,0.93,-0.73,0.43,29,0,38,1.18,6445,19,107,44,50,1009,351.0,384,465,60,121.0,164,1,373,240,58,0,0,327,-28416,-6458,351,-5.59,44.680878,10.024543,33.19,173.6,0,0.0,-1,0.0,0.0,0,3.76,8.4174
505063,1564153249768,1,2.57,1.1,0.46,1.55,1.17,0.96,-0.65,0.52,28,1,38,1.16,6425,19,107,44,50,1010,351.0,380,462,60,123.0,164,1,373,240,58,0,0,331,150,-6458,355,-5.59,,,,,,,,,,,,
505083,1564153249788,2,2.56,1.1,0.46,1.53,1.17,0.99,-0.73,0.49,28,2,40,1.23,6443,20,107,44,50,1011,353.0,380,462,60,122.0,164,1,373,240,58,0,0,330,150,-14707,353,-5.59,,,,,,,,,,,,
505103,1564153249808,0,2.55,1.1,0.47,1.52,1.18,0.91,-0.73,0.48,28,3,36,1.17,6454,20,107,44,51,1010,356.0,387,470,60,122.0,164,1,376,244,58,0,0,333,-24576,-14707,356,-5.59,,,,,,,,,,,,
505123,1564153249828,1,2.54,1.09,0.47,1.54,1.17,1.02,-0.66,0.45,27,3,36,1.22,6492,20,107,44,51,1011,352.0,391,464,60,122.0,164,1,376,244,58,0,0,334,-24576,-14707,352,-5.59,,,,,,,,,,,,
505143,1564153249848,2,2.54,1.09,0.46,1.53,1.17,0.98,-0.7,0.56,26,1,35,1.21,6528,20,107,44,51,1011,353.0,392,462,60,124.0,164,1,377,240,58,0,0,334,-23296,-6640,352,-5.59,44.680885,10.024533,33.0,173.6,0,0.0,-1,0.0,0.0,0,3.76,8.4191
505163,1564153249868,-0,2.54,1.08,0.46,1.52,1.17,0.87,-0.65,0.57,26,0,34,1.08,6514,23,107,44,51,1011,352.0,396,462,60,122.0,164,1,376,244,58,0,0,337,-23296,-14707,352,-5.59,,,,,,,,,,,,
505183,1564153249888,1,2.53,1.09,0.46,1.53,1.17,0.88,-0.58,0.54,25,0,33,1.05,6490,24,107,44,52,1010,351.0,398,466,60,122.0,176,1,379,251,62,0,0,339,-23296,2790,351,-5.59,,,,,,,,,,,,
505203,1564153249908,3,2.53,1.09,0.46,1.53,1.17,0.88,-0.64,0.58,25,-0,33,1.09,6526,25,107,44,53,1010,351.0,393,461,60,123.0,176,1,383,174,62,0,0,340,-22016,-6458,352,-5.59,,,,,,,,,,,,
505223,1564153249928,-0,2.51,1.09,0.46,1.54,1.18,0.93,-0.57,0.6,23,1,33,1.09,6544,25,107,44,54,1012,351.0,393,466,60,123.0,176,1,387,262,62,0,0,337,-22016,-6640,351,-5.59,,,,,,,,,,,,
505243,1564153249948,2,2.5,1.09,0.46,1.53,1.17,0.92,-0.53,0.62,22,0,32,1.06,6604,25,107,44,54,1013,351.0,401,461,60,124.0,176,1,387,262,62,0,0,341,165,-6458,351,-5.59,44.680889,10.024525,33.01,173.5,0,0.0,-1,0.0,0.0,0,3.76,8.4207
505263,1564153249968,-1,2.49,1.09,0.46,1.53,1.17,0.8,-0.59,0.68,22,2,29,0.99,6616,25,107,44,55,1015,351.0,397,463,60,123.0,176,1,389,264,62,0,0,340,-20736,-14707,351,-5.59,,,,,,,,,,,,
505283,1564153249988,-1,2.49,1.09,0.46,1.52,1.17,0.86,-0.43,0.63,22,-1,29,0.96,6599,25,106,44,55,1018,349.0,397,464,60,121.0,189,1,389,264,66,0,0,343,175,-29302,348,-5.59,,,,,,,,,,,,
505303,1564153250000,2,2.48,1.09,0.46,1.53,1.16,0.86,-0.46,0.72,21,-1,27,0.97,6592,25,107,44,55,1023,350.0,396,461,60,123.0,189,1,389,264,66,0,0,358,-12032,3082,350,-5.59,,,,,,,,,,,,
505323,1564153250020,0,2.47,1.07,0.45,1.52,1.16,0.72,-0.43,0.68,21,1,26,0.84,6599,25,107,44,56,1029,350.0,393,470,60,120.0,189,1,392,267,66,0,0,348,3346,-6458,350,-5.59,,,,,,,,,,,,
505343,1564153250040,1,2.47,1.07,0.45,1.5,1.17,0.85,-0.42,0.58,19,0,26,0.95,6637,25,106,44,56,1033,350.0,398,466,60,121.0,189,1,393,268,66,0,0,351,4838,-29302,351,-5.59,44.680897,10.024517,33.56,173.4,0,0.0,-1,0.0,0.0,0,3.76,8.4224
505363,1564153250060,-1,2.48,1.06,0.45,1.5,1.16,0.75,-0.42,0.64,19,1,25,0.86,6658,25,107,44,56,1036,351.0,399,461,60,123.0,189,1,393,186,66,0,0,349,13,-29978,351,-5.59,,,,,,,,,,,,
505383,1564153250080,-2,2.5,1.06,0.45,1.5,1.16,0.79,-0.38,0.63,19,0,23,0.88,6644,25,107,44,56,1046,353.0,405,463,60,122.0,190,1,393,271,67,0,0,347,13,-14707,353,-5.59,,,,,,,,,,,,
505403,1564153250108,1,2.5,1.07,0.45,1.51,1.16,0.76,-0.45,0.63,19,1,23,0.88,6656,25,107,44,56,1054,350.0,393,460,60,124.0,190,1,393,268,67,0,0,695,4838,-1268,349,181.28,,,,,,,,,,,,
505423,1564153250128,-1,2.52,1.08,0.45,1.51,1.16,0.81,-0.42,0.58,19,1,24,0.91,6456,25,107,44,56,1062,352.0,401,463,60,124.0,190,1,390,265,67,0,0,695,13,2790,353,-5.59,,,,,,,,,,,,
505443,1564153250148,-0,2.52,1.08,0.46,1.52,1.16,0.93,-0.41,0.63,19,-1,23,1.01,6285,25,107,44,56,1069,355.0,392,460,60,124.0,190,1,387,181,67,0,0,695,2560,3082,355,-5.59,44.680904,10.024508,34.52,173.4,0,0.0,-1,0.0,0.0,0,3.76,8.4241
505463,1564153250168,-0,2.54,1.09,0.45,1.53,1.16,1.03,-0.41,0.66,19,-3,22,1.11,6135,25,107,44,57,1078,357.0,383,457,60,124.0,190,1,384,261,67,0,0,695,3346,-6405,357,181.28,,,,,,,,,,,,
505483,1564153250188,-0,2.57,1.09,0.46,1.54,1.16,1.07,-0.46,0.71,19,-3,23,1.17,5986,26,107,44,57,1089,357.0,371,460,60,124.0,161,1,381,258,58,0,0,695,4838,230,357,-5.59,,,,,,,,,,,,
505503,1564153250208,-0,2.59,1.09,0.46,1.53,1.17,1.08,-0.48,0.76,19,-3,23,1.18,5975,26,107,44,58,1095,357.0,367,463,60,123.0,161,1,380,256,58,0,0,337,-6528,0,358,-5.59,,,,,,,,,,,,
505523,1564153250228,1,2.6,1.09,0.46,1.53,1.16,1.08,-0.51,0.65,19,-3,25,1.19,6198,26,107,44,59,1099,359.0,370,462,60,123.0,161,1,387,262,58,0,0,340,-12032,0,359,-5.59,,,,,,,,,,,,
505543,1564153250248,2,2.64,1.09,0.46,1.53,1.17,1.01,-0.65,0.68,20,-1,25,1.2,6373,26,107,44,60,1117,361.0,378,463,60,123.0,161,1,395,268,58,0,0,337,-12032,230,361,-5.59,44.680908,10.024501,34.28,173.4,0,0.0,-1,0.0,0.0,0,3.76,8.4257
505563,1564153250268,-0,2.65,1.09,0.46,1.53,1.17,0.94,-0.66,0.67,22,-0,26,1.15,6549,26,107,44,60,1141,362.0,383,467,60,121.0,161,1,401,276,58,0,0,336,-20736,486,362,-5.59,,,,,,,,,,,,
505583,1564153250288,-1,2.66,1.09,0.46,1.53,1.17,1.01,-0.68,0.58,22,-2,29,1.22,6718,26,107,44,59,1164,362.0,394,462,60,121.0,196,1,404,280,71,0,0,553,-22016,-6405,362,-5.59,,,,,,,,,,,,
505603,1564153250308,-1,2.68,1.09,0.46,1.53,1.17,0.96,-0.74,0.57,23,-0,29,1.22,6776,27,107,44,59,1184,361.0,394,462,60,123.0,196,1,406,283,71,0,0,553,160,-6405,361,181.28,,,,,,,,,,,,
505623,1564153250328,3,2.68,1.09,0.46,1.53,1.17,1.01,-0.68,0.62,24,-1,31,1.22,6768,26,107,44,58,1227,361.0,405,461,60,123.0,196,1,402,279,71,0,0,553,160,3082,361,-5.59,,,,,,,,,,,,
505643,1564153250348,1,2.68,1.09,0.45,1.53,1.17,0.96,-0.75,0.59,25,-1,31,1.22,6742,27,107,44,58,1283,363.0,406,466,60,123.0,196,1,401,277,71,0,0,322,-25856,0,363,-5.59,44.680916,10.024494,34.2,173.3,0,0.0,-1,0.0,0.0,0,3.77,8.4274
505663,1564153250368,-1,2.67,1.1,0.46,1.53,1.16,1.02,-0.76,0.6,26,-1,33,1.27,6898,27,107,44,58,1328,362.0,407,462,60,123.0,196,1,406,282,71,0,0,324,150,-6656,362,-5.59,,,,,,,,,,,,
505683,1564153250388,3,2.67,1.1,0.46,1.53,1.16,0.99,-0.71,0.61,26,-0,34,1.22,7088,27,107,44,58,1363,363.0,413,468,60,123.0,206,1,410,284,75,0,0,325,150,0,361,-5.59,,,,,,,,,,,,
505703,1564153250408,2,2.68,1.1,0.45,1.54,1.17,0.89,-0.72,0.53,27,0,35,1.14,7194,27,107,44,57,1371,362.0,422,466,60,124.0,206,1,406,198,75,0,0,327,-27136,0,362,-5.59,,,,,,,,,,,,
505723,1564153250428,2,2.68,1.08,0.45,1.53,1.16,0.83,-0.81,0.4,28,2,36,1.16,7347,27,107,44,56,1353,361.0,426,465,60,124.0,206,1,402,276,75,0,0,326,150,486,361,-5.59,,,,,,,,,,,,
505743,1564153250448,1,2.68,1.09,0.45,1.53,1.17,0.77,-0.91,0.4,29,2,36,1.19,7341,27,107,44,56,1321,362.0,435,465,60,124.0,206,1,402,270,75,0,0,377,150,742,362,-5.59,44.680923,10.024487,33.94,173.3,0,0.0,-1,0.0,0.0,0,3.77,8.4291
505763,1564153250468,-1,2.69,1.09,0.46,1.53,1.16,0.83,-0.91,0.49,29,2,37,1.23,7186,27,107,44,55,1270,366.0,423,466,60,123.0,206,1,395,268,75,0,0,436,155,-18948,366,-5.59,,,,,,,,,,,,
505783,1564153250488,-0,2.7,1.09,0.46,1.52,1.16,0.82,-0.86,0.59,29,2,38,1.19,7172,27,106,44,55,1219,367.0,431,466,60,122.0,201,1,395,268,74,0,0,405,160,2278,368,-5.59,,,,,,,,,,,,
505803,1564153250510,2,2.7,1.09,0.46,1.53,1.16,0.72,-0.75,0.61,30,0,39,1.04,7099,27,107,44,56,1168,368.0,426,468,60,121.0,201,1,400,268,74,0,0,345,165,-992,370,-5.59,,,,,,,,,,,,
505823,1564153250530,-1,2.73,1.09,0.46,1.53,1.16,0.73,-0.81,0.6,30,0,38,1.09,6996,27,107,44,56,1131,371.0,418,463,60,123.0,201,1,398,267,74,0,0,361,170,-19019,371,-5.59,,,,,,,,,,,,
505843,1564153250550,2,2.74,1.09,0.46,1.53,1.17,0.85,-0.76,0.65,30,-0,39,1.15,6911,27,107,44,56,1132,372.0,420,462,60,123.0,201,1,397,272,74,0,0,386,170,240,372,-5.59,44.680927,10.024482,34.19,173.3,0,0.0,-1,0.0,0.0,0,3.77,8.4307
505863,1564153250570,1,2.74,1.09,0.46,1.53,1.16,0.76,-0.77,0.66,30,-1,38,1.09,6888,27,107,44,57,1126,372.0,398,466,60,123.0,201,1,401,271,74,0,0,384,-20736,8200,372,-5.59,,,,,,,,,,,,
505883,1564153250590,-2,2.76,1.09,0.45,1.53,1.17,0.84,-0.82,0.64,30,-1,39,1.17,6916,27,107,44,56,1101,370.0,406,462,60,123.0,191,1,397,190,71,0,0,355,175,-19126,370,-5.59,,,,,,,,,,,,
505903,1564153250607,2,2.76,1.09,0.45,1.53,1.17,0.83,-0.78,0.71,30,-1,40,1.14,6967,27,106,44,57,1076,372.0,406,468,60,121.0,191,1,403,279,71,0,0,357,-6528,19125,372,-5.59,,,,,,,,,,,,
505923,1564153250627,1,2.75,1.1,0.46,1.53,1.17,0.76,-0.82,0.69,31,-1,40,1.12,7001,27,107,44,57,1050,376.0,409,465,60,122.0,191,1,404,280,71,0,0,371,-6528,-18948,376,-5.59,,,,,,,,,,,,
505943,1564153250647,0,2.75,1.1,0.46,1.53,1.17,0.87,-0.9,0.66,32,-2,40,1.25,7017,27,107,44,56,1023,378.0,412,465,60,123.0,191,1,399,273,71,0,0,377,-6528,-3866,378,-5.59,44.680939,10.024478,34.86,173.2,0,0.0,-1,0.0,0.0,0,3.77,8.4324
505963,1564153250667,-0,2.76,1.09,0.46,1.53,1.17,0.9,-0.82,0.74,32,-2,41,1.22,7123,27,107,43,56,991,378.0,418,463,60,123.0,191,1,400,276,71,0,0,379,3346,-31744,379,-5.59,,,,,,,,,,,,
505983,1564153250687,2,2.76,1.09,0.46,1.53,1.18,0.77,-0.83,0.67,33,-1,42,1.13,7194,27,106,43,56,960,379.0,422,463,60,122.0,195,1,401,276,74,0,0,380,-6528,-1562,378,-5.59,,,,,,,,,,,,
506003,1564153250707,3,2.75,1.09,0.46,1.53,1.17,0.75,-0.9,0.59,33,-0,43,1.18,7309,27,107,44,56,953,379.0,426,466,60,122.0,195,1,402,275,74,0,0,384,-32559,-1562,379,-5.59,,,,,,,,,,,,
506023,1564153250727,2,2.78,1.09,0.45,1.52,1.17,0.74,-0.98,0.45,34,-0,43,1.23,7367,28,107,44,56,946,379.0,435,465,60,122.0,195,1,402,270,74,0,0,379,-12032,240,379,-5.59,,,,,,,,,,,,
506043,1564153250747,0,2.77,1.09,0.45,1.53,1.17,0.78,-1.06,0.33,34,-0,43,1.31,7352,28,107,44,55,942,379.0,434,463,60,123.0,195,1,396,270,74,0,0,395,-32559,-31744,379,-5.59,44.680946,10.024474,35.49,173.2,0,0.0,-1,0.0,0.0,0,3.77,8.434
506063,1564153250767,-0,2.77,1.09,0.46,1.53,1.18,0.88,-1.11,0.41,34,-1,43,1.42,7355,28,107,43,55,938,379.0,446,463,60,124.0,195,1,396,272,74,0,0,413,-6528,-6524,379,-5.59,,,,,,,,,,,,
506083,1564153250787,0,2.77,1.09,0.46,1.53,1.18,0.94,-1.07,0.5,34,-2,44,1.43,7347,28,107,44,55,940,381.0,440,460,60,123.0,200,1,396,270,76,0,0,401,3346,-31744,381,-5.59,,,,,,,,,,,,
506103,1564153250809,-1,2.77,1.09,0.46,1.53,1.17,0.99,-1.02,0.56,34,-2,44,1.42,7402,28,107,43,55,942,382.0,438,465,60,123.0,200,1,396,273,76,0,0,380,13,505,382,-5.59,,,,,,,,,,,,
506123,1564153250829,0,2.76,1.09,0.46,1.53,1.17,1.0,-0.98,0.7,34,-3,44,1.4,7370,28,106,43,54,941,385.0,442,465,60,123.0,200,1,390,272,76,0,0,393,13,17144,385,-5.59,,,,,,,,,,,,
506143,1564153250849,-0,2.76,1.09,0.46,1.54,1.17,0.99,-0.87,0.79,34,-3,45,1.32,7355,28,107,43,54,940,385.0,440,463,60,123.0,200,1,390,267,76,0,0,410,2560,17144,385,-5.59,44.680954,10.024472,35.86,173.2,0,0.0,-1,0.0,0.0,0,3.77,8.4357
506163,1564153250869,-1,2.76,1.09,0.46,1.53,1.17,0.86,-0.84,0.82,35,-2,46,1.21,7358,28,106,43,54,937,387.0,437,462,60,122.0,200,1,390,267,76,0,0,393,-31222,6384,387,-5.59,,,,,,,,,,,,
506183,1564153250889,3,2.76,1.09,0.46,1.53,1.18,0.79,-0.86,0.82,36,-1,46,1.17,7425,28,107,43,54,934,386.0,425,468,60,121.0,193,1,390,184,75,0,0,391,-122,28696,386,-5.59,,,,,,,,,,,,
506203,1564153250909,3,2.76,1.1,0.46,1.53,1.18,0.74,-0.84,0.74,36,-2,47,1.12,7431,28,107,43,54,922,388.0,436,463,60,120.0,193,1,390,268,75,0,0,407,-31222,-3968,388,-5.59,,,,,,,,,,,,
506223,1564153250929,-2,2.76,1.09,0.46,1.53,1.17,0.67,-0.82,0.73,37,-1,47,1.05,7527,28,106,43,54,911,388.0,436,464,60,121.0,193,1,390,269,75,0,0,413,2560,-3968,388,-5.59,,,,,,,,,,,,
506243,1564153250949,-1,2.76,1.09,0.46,1.53,1.17,0.61,-0.83,0.75,38,-0,48,1.03,7551,28,106,43,54,902,388.0,438,467,60,123.0,193,1,390,269,75,0,0,399,3327,10541,388,-5.59,44.680965,10.02447,36.63,173.2,0,0.0,-1,0.0,0.0,0,3.77,8.4374
506263,1564153250969,-1,2.75,1.09,0.46,1.52,1.17,0.55,-0.85,0.81,38,1,47,1.02,7591,28,106,43,53,894,390.0,443,466,60,119.0,193,1,387,269,75,0,0,387,6668,6384,390,-5.59,,,,,,,,,,,,
506283,1564153250989,-1,2.74,1.1,0.46,1.53,1.17,0.55,-0.81,0.83,38,0,48,0.98,7539,28,107,43,53,884,391.0,441,465,60,122.0,190,1,387,262,75,0,0,411,-31206,-9211,391,-5.59,,,,,,,,,,,,
506303,1564153250999,-1,2.74,1.09,0.46,1.53,1.17,0.54,-0.73,0.95,38,1,48,0.91,7578,28,106,43,53,873,393.0,448,463,60,122.0,190,1,387,262,75,0,0,416,-14714,10541,393,-5.59,,,,,,,,,,,,
506323,1564153251019,-0,2.74,1.09,0.46,1.53,1.17,0.57,-0.66,0.95,38,-0,48,0.87,7569,28,107,43,53,869,393.0,450,465,60,121.0,190,1,387,262,75,0,0,376,-14714,1504,393,-5.59,,,,,,,,,,,,
506343,1564153251039,-1,2.73,1.09,0.46,1.53,1.18,0.57,-0.66,1.05,38,0,47,0.87,7524,28,107,43,53,867,393.0,453,461,60,123.0,190,1,387,262,75,0,0,395,6870,-26615,393,-5.59,44.680973,10.02447,36.64,173.2,0,0.0,-1,0.0,0.0,0,3.77,8.439
506363,1564153251059,0,2.7,1.09,0.46,1.52,1.18,0.6,-0.6,1.06,37,-1,48,0.85,7419,28,107,43,53,866,394.0,445,464,60,122.0,190,1,387,261,75,0,0,429,-30438,-8151,394,-5.59,,,,,,,,,,,,
506383,1564153251079,-1,2.69,1.09,0.46,1.52,1.18,0.58,-0.52,1.13,37,-2,48,0.78,7482,28,107,43,53,866,394.0,446,465,60,122.0,185,1,387,261,73,0,0,422,-30438,6512,394,-5.59,,,,,,,,,,,,
506403,1564153251099,-1,2.66,1.09,0.46,1.52,1.17,0.6,-0.49,1.15,36,-2,48,0.77,7554,28,106,43,53,867,394.0,442,463,60,122.0,185,1,387,262,73,0,0,382,2811,-26615,394,-5.59,,,,,,,,,,,,
506423,1564153251119,-1,2.64,1.09,0.46,1.53,1.17,0.63,-0.48,1.19,36,-2,47,0.79,7600,29,107,43,53,868,394.0,447,463,60,123.0,185,1,387,264,73,0,0,387,28553,-8151,394,-5.59,,,,,,,,,,,,
506443,1564153251139,1,2.6,1.09,0.46,1.52,1.18,0.68,-0.49,1.19,35,-3,47,0.84,7563,29,106,43,53,867,396.0,443,465,60,123.0,185,1,387,262,73,0,0,430,-6644,2524,396,-5.59,44.680984,10.024472,37.44,173.2,0,0.0,-1,0.0,0.0,0,3.77,8.4407
506463,1564153251159,2,2.57,1.08,0.46,1.53,1.17,0.81,-0.52,1.2,33,-4,46,0.96,7646,29,107,43,53,864,396.0,447,463,60,124.0,185,1,387,264,73,0,0,414,4104,1504,396,-5.59,,,,,,,,,,,,
506483,1564153251179,0,2.54,1.09,0.46,1.52,1.18,0.91,-0.55,1.01,32,-5,47,1.06,7665,29,107,43,53,861,396.0,445,462,60,123.0,194,1,387,264,77,0,0,377,-29302,2524,396,-5.59,,,,,,,,,,,,
506503,1564153251209,0,2.52,1.08,0.46,1.52,1.17,0.91,-0.58,0.93,31,-4,46,1.08,7649,29,107,43,53,857,395.0,443,464,60,123.0,194,1,387,264,77,0,0,399,2790,10392,395,-5.59,,,,,,,,,,,,
506523,1564153251229,1,2.48,1.08,0.46,1.51,1.17,0.9,-0.59,0.75,29,-4,44,1.08,7545,29,107,43,53,854,396.0,440,462,60,122.0,194,1,387,262,77,0,0,423,-6405,2524,396,-5.59,,,,,,,,,,,,
506543,1564153251249,2,2.45,1.08,0.46,1.52,1.18,0.96,-0.69,0.54,27,-5,42,1.18,7551,29,107,43,53,852,396.0,440,461,60,122.0,194,1,387,262,77,0,0,397,0,-4059,395,-5.59,44.680992,10.024475,38.12,173.1,0,0.0,-1,0.0,0.0,0,3.77,8.4424
506563,1564153251269,1,2.41,1.06,0.46,1.5,1.16,0.92,-0.57,0.4,25,-5,41,1.08,7494,29,107,43,53,852,394.0,434,463,60,123.0,194,1,387,261,77,0,0,394,1,1504,394,-5.59,,,,,,,,,,,,
506583,1564153251289,0,2.39,1.03,0.44,1.49,1.16,0.87,-0.51,0.38,23,-4,41,1.01,7497,29,107,43,54,854,395.0,436,467,60,122.0,187,1,390,261,74,0,0,403,-6656,9517,394,-5.59,,,,,,,,,,,,
506603,1564153251309,2,2.35,0.98,0.43,1.45,1.14,0.86,-0.32,0.4,21,-4,38,0.92,7476,29,107,43,53,854,392.0,435,462,60,123.0,187,1,387,261,74,0,0,400,19125,1504,392,-5.59,,,,,,,,,,,,
506623,1564153251329,1,2.32,0.87,0.4,1.36,1.09,0.83,-0.26,0.38,19,-5,34,0.87,7503,29,107,43,54,852,392.0,438,463,60,123.0,187,1,390,269,74,0,0,401,-19019,1504,392,-5.59,,,,,,,,,,,,
506643,1564153251349,2,2.28,0.71,0.35,1.23,1.02,0.9,-0.17,0.41,16,-5,32,0.92,7470,29,107,43,54,850,392.0,435,462,60,124.0,187,1,390,268,74,0,0,406,240,6512,394,-5.59,44.681004,10.024479,38.98,173.1,0,0.0,-1,0.0,0.0,0,3.78,8.444
506663,1564153251369,1,2.26,0.55,0.28,1.11,0.92,0.87,-0.06,0.44,14,-4,30,0.87,7518,29,107,43,54,846,392.0,440,462,60,124.0,187,1,390,269,74,0,0,407,-1562,6384,392,-5.59,,,,,,,,,,,,
506683,1564153251389,2,2.24,0.4,0.23,1.0,0.84,0.83,0.09,0.42,13,-4,26,0.83,7551,29,107,43,54,845,392.0,431,461,60,123.0,196,1,390,269,77,0,0,406,1,2524,391,-5.59,,,,,,,,,,,,
506703,1564153251409,4,2.21,0.29,0.18,0.92,0.78,0.74,0.14,0.4,11,-3,21,0.75,7640,29,107,43,54,850,395.0,437,463,60,124.0,196,1,390,270,77,0,0,411,17144,-9211,390,-5.59,,,,,,,,,,,,
506723,1564153251429,2,2.18,0.24,0.15,0.88,0.74,0.64,0.26,0.35,9,-2,20,0.69,7700,29,107,43,54,856,398.0,435,467,60,123.0,196,1,390,270,77,0,0,412,6384,-9211,389,-5.59,,,,,,,,,,,,
506743,1564153251449,-0,2.16,0.23,0.16,0.88,0.73,0.63,0.22,0.34,6,-2,18,0.67,7712,29,107,43,54,865,401.0,441,463,60,122.0,196,1,390,265,77,0,0,414,11545,10392,391,-5.59,44.681011,10.024485,39.53,173.1,0,0.0,-1,0.0,0.0,0,3.78,8.4457
506763,1564153251469,1,2.14,0.24,0.16,0.88,0.73,0.68,0.27,0.42,4,-1,13,0.73,7773,29,107,43,53,872,404.0,443,462,60,123.0,196,1,387,271,77,0,0,419,1504,-8151,389,-5.59,,,,,,,,,,,,
506783,1564153251489,1,2.12,0.24,0.16,0.89,0.74,0.82,0.3,0.45,1,-1,11,0.87,7757,29,106,43,53,876,406.0,449,458,60,123.0,200,1,387,265,78,0,0,422,2524,9517,389,-5.59,,,,,,,,,,,,
506803,1564153251509,1,2.09,0.26,0.17,0.9,0.75,0.84,0.42,0.53,-0,-2,10,0.94,7799,29,107,43,53,878,408.0,452,448,60,124.0,200,1,387,265,78,0,0,423,10392,2524,389,-5.59,,,,,,,,,,,,
506823,1564153251529,3,2.06,0.26,0.16,0.91,0.74,0.71,0.58,0.44,-1,-1,7,0.92,7773,29,107,43,53,872,411.0,453,451,60,123.0,200,1,387,265,78,0,0,423,9517,-26615,391,-5.59,,,,,,,,,,,,
506843,1564153251549,-1,2.05,0.27,0.18,0.91,0.75,0.61,0.64,0.41,-3,2,2,0.88,7780,29,106,43,53,868,411.0,460,460,60,122.0,200,1,387,265,78,0,0,426,-4059,-3414,390,-5.59,44.681023,10.024489,39.74,173.1,0,0.0,-1,0.0,0.0,0,3.78,8.4474
506863,1564153251569,2,2.04,0.27,0.18,0.92,0.75,0.59,0.53,0.48,-5,2,-1,0.79,7848,30,106,43,53,868,411.0,456,461,60,123.0,200,1,387,265,78,0,0,427,-4059,-3414,391,-5.59,,,,,,,,,,,,
506883,1564153251589,2,2.03,0.27,0.18,0.92,0.75,0.73,0.53,0.53,-7,1,-3,0.9,7796,29,107,43,52,868,415.0,463,456,60,124.0,195,1,384,259,76,0,0,430,-26615,-9166,390,-5.59,,,,,,,,,,,,
506903,1564153251608,4,2.03,0.29,0.18,0.93,0.75,0.79,0.67,0.54,-9,-0,-6,1.04,7878,30,107,43,52,873,418.0,468,455,60,124.0,195,1,384,259,76,0,0,433,-3414,9517,390,-5.59,,,,,,,,,,,,
506923,1564153251628,-2,2.04,0.28,0.19,0.93,0.76,0.68,0.76,0.47,-11,1,-9,1.02,7914,30,107,43,52,877,421.0,461,463,60,123.0,195,1,384,259,76,0,0,433,-21792,9517,390,-5.59,,,,,,,,,,,,
506943,1564153251648,-0,2.03,0.29,0.19,0.93,0.76,0.78,0.7,0.55,-12,-2,-11,1.05,7921,30,107,43,51,879,424.0,465,461,60,123.0,195,1,381,259,76,0,0,435,-4082,-8151,390,-5.59,44.68103,10.024494,39.83,173.0,0,0.0,-1,0.0,0.0,0,3.78,8.449
506963,1564153251668,2,2.02,0.3,0.2,0.94,0.76,0.83,0.8,0.58,-14,-3,-13,1.15,8002,30,107,43,51,880,423.0,470,458,60,123.0,195,1,381,254,76,0,0,436,3826,-26615,389,-5.59,,,,,,,,,,,,
506983,1564153251688,-0,2.02,0.3,0.2,0.93,0.77,0.78,0.85,0.58,-15,-2,-16,1.15,7999,30,107,43,51,876,423.0,463,458,60,124.0,197,1,381,254,77,0,0,436,3826,13180,389,-5.59,,,,,,,,,,,,
507003,1564153251708,1,2.01,0.31,0.21,0.95,0.76,0.89,0.74,0.67,-17,-3,-18,1.16,8054,30,106,43,51,873,424.0,468,462,60,122.0,197,1,381,255,77,0,0,439,-3856,18584,391,-5.59,,,,,,,,,,,,
507023,1564153251728,3,2.02,0.31,0.2,0.95,0.78,0.82,0.78,0.64,-18,-2,-19,1.14,8120,30,107,43,50,865,427.0,471,462,60,124.0,197,1,378,165,77,0,0,439,31796,31796,391,-5.59,,,,,,,,,,,,
507043,1564153251748,0,2.01,0.31,0.21,0.95,0.77,0.81,0.76,0.68,-19,-2,-22,1.11,8127,30,106,43,50,857,427.0,470,465,60,123.0,197,1,378,247,77,0,0,440,31796,13552,391,-5.59,44.681042,10.024499,40.06,173.0,0,0.0,-1,0.0,0.0,0,3.78,8.4507
507063,1564153251768,1,2.02,0.34,0.22,0.96,0.78,0.79,0.75,0.64,-20,-2,-22,1.09,8095,30,106,43,50,852,428.0,483,460,60,123.0,197,1,378,247,77,0,0,442,13180,-3322,394,-5.59,,,,,,,,,,,,
507083,1564153251788,-1,2.01,0.34,0.23,0.96,0.79,0.69,0.8,0.61,-20,1,-23,1.06,8141,30,107,43,50,847,431.0,477,446,60,123.0,192,1,378,249,76,0,0,445,1779,13552,395,-5.59,,,,,,,,,,,,
507103,1564153251808,0,2.01,0.34,0.23,0.97,0.78,0.76,0.73,0.75,-20,-2,-26,1.05,8145,30,107,43,50,845,429.0,476,426,60,123.0,192,1,378,249,76,0,0,442,3635,-7939,395,-5.59,,,,,,,,,,,,
507123,1564153251828,-0,2.01,0.35,0.22,0.98,0.78,0.7,0.81,0.68,-20,-1,-26,1.07,8145,30,107,43,49,842,428.0,480,449,60,122.0,192,1,375,242,76,0,0,442,3635,3635,396,-5.59,,,,,,,,,,,,
507143,1564153251848,1,2.01,0.36,0.23,0.99,0.8,0.78,0.8,0.74,-22,-1,-28,1.12,8177,30,107,43,49,843,429.0,485,461,60,123.0,192,1,375,243,76,0,0,441,-3314,-3414,397,-5.59,44.681049,10.024502,40.12,172.9,0,0.0,-1,0.0,0.0,0,3.78,8.4524
507163,1564153251868,-0,2.01,0.36,0.25,0.99,0.79,0.68,0.92,0.62,-22,-1,-28,1.15,8241,30,107,43,49,845,433.0,488,457,60,124.0,192,1,375,243,76,0,0,444,243,13180,398,-5.59,,,,,,,,,,,,
507183,1564153251888,2,2.0,0.37,0.24,1.0,0.8,0.8,0.96,0.67,-23,-2,-27,1.25,8278,30,106,43,49,847,434.0,491,446,60,123.0,185,1,375,243,74,0,0,448,-768,16648,398,-5.59,,,,,,,,,,,,
507203,1564153251908,-0,2.01,0.38,0.24,1.0,0.8,0.77,1.04,0.65,-24,-1,-29,1.29,8278,30,107,43,48,848,435.0,488,426,60,124.0,185,1,372,243,74,0,0,447,243,2524,400,-5.59,,,,,,,,,,,,
507223,1564153251928,1,2.01,0.38,0.25,1.0,0.8,0.83,1.01,0.62,-25,-3,-29,1.31,8363,30,106,43,48,848,437.0,492,422,60,123.0,185,1,372,238,74,0,0,450,19477,243,398,-5.59,,,,,,,,,,,,
507243,1564153251948,1,2.01,0.38,0.25,1.01,0.81,0.78,0.98,0.64,-25,-1,-30,1.25,8419,31,107,43,47,846,439.0,493,430,60,123.0,185,1,370,239,74,0,0,451,-28332,16648,400,-5.59,44.681061,10.024504,40.98,172.9,0,0.0,-1,0.0,0.0,0,3.78,8.4541
507263,1564153251968,2,2.01,0.39,0.25,1.01,0.81,0.65,1.07,0.63,-25,-0,-31,1.25,8434,31,106,43,47,848,437.0,491,430,60,122.0,185,1,370,233,74,0,0,452,19477,12552,400,-5.59,,,,,,,,,,,,
507283,1564153251988,1,2.01,0.4,0.26,1.01,0.82,0.79,1.11,0.65,-26,-3,-31,1.36,8507,31,107,43,47,850,438.0,487,421,60,122.0,187,1,370,234,75,0,0,450,21580,10305,400,-5.59,,,,,,,,,,,,
507303,1564153252000,1,2.01,0.41,0.26,1.02,0.82,0.8,0.99,0.67,-27,-1,-32,1.27,8507,31,107,43,47,854,439.0,491,411,60,124.0,187,1,370,234,75,0,0,453,21580,21580,402,-5.59,,,,,,,,,,,,
507323,1564153252020,0,2.01,0.41,0.26,1.02,0.82,0.71,1.09,0.54,-27,-1,-32,1.3,8511,31,106,43,47,858,442.0,500,417,60,123.0,187,1,370,234,75,0,0,453,23400,-1923,402,-5.59,,,,,,,,,,,,
507343,1564153252040,1,2.02,0.42,0.27,1.03,0.83,0.74,1.18,0.53,-26,-1,-32,1.4,8534,31,106,43,46,862,441.0,508,421,60,122.0,187,1,363,231,75,0,0,460,26704,-23367,403,-5.59,44.681068,10.024505,41.18,172.8,0,0.0,-1,0.0,0.0,0,3.78,8.4557
507363,1564153252060,-0,2.02,0.42,0.27,1.03,0.83,0.79,1.06,0.65,-27,-1,-33,1.33,8624,31,107,43,46,867,440.0,497,424,60,123.0,187,1,363,233,75,0,0,456,20625,1779,403,-5.59,,,,,,,,,,,,
507383,1564153252080,-2,2.03,0.43,0.27,1.04,0.83,0.71,1.06,0.62,-27,-0,-34,1.28,8589,31,106,43,45,870,443.0,507,419,60,124.0,182,1,357,231,74,0,0,461,-18341,-18341,405,-5.59,,,,,,,,,,,,
507403,1564153252108,1,2.04,0.44,0.27,1.04,0.84,0.68,1.16,0.59,-27,-2,-34,1.34,8546,31,107,43,45,871,443.0,508,409,60,123.0,182,1,357,229,74,0,0,460,21432,-23367,407,-5.59,,,,,,,,,,,,
507423,1564153252128,2,2.04,0.44,0.27,1.05,0.83,0.78,1.1,0.67,-27,-2,-33,1.35,8546,31,107,43,46,874,444.0,499,411,60,122.0,182,1,363,231,74,0,0,460,21432,2524,407,-5.59,,,,,,,,,,,,
507443,1564153252148,1,2.06,0.45,0.28,1.05,0.84,0.83,0.98,0.67,-28,-2,-34,1.29,8577,31,107,43,46,879,444.0,502,426,60,124.0,182,1,363,231,74,0,0,459,21432,-28332,409,-5.59,44.68108,10.024505,41.54,172.8,0,0.0,-1,0.0,0.0,0,3.78,8.4574
507463,1564153252168,0,2.09,0.46,0.28,1.07,0.84,0.73,1.02,0.53,-27,-2,-33,1.25,8557,31,107,43,46,884,446.0,506,422,60,122.0,182,1,363,231,74,0,0,460,16648,-23623,412,-5.59,,,,,,,,,,,,
507483,1564153252188,2,2.12,0.47,0.29,1.07,0.85,0.71,1.12,0.55,-26,-2,-33,1.32,8546,31,107,43,46,888,447.0,496,421,60,123.0,179,1,363,231,74,0,0,462,10305,16648,415,-5.59,,,,,,,,,,,,
507503,1564153252208,0,2.17,0.48,0.3,1.08,0.85,0.77,0.98,0.69,-25,-2,-34,1.25,8640,31,106,43,46,895,448.0,489,415,60,123.0,179,1,363,230,74,0,0,465,8488,-3267,417,-5.59,,,,,,,,,,,,
507523,1564153252228,0,2.19,0.5,0.3,1.1,0.86,0.72,0.83,0.74,-24,0,-34,1.1,8656,31,107,43,45,905,448.0,488,409,60,123.0,179,1,357,230,74,0,0,459,8488,10305,419,-5.59,,,,,,,,,,,,
507543,1564153252248,-1,2.24,0.52,0.31,1.11,0.89,0.55,0.86,0.64,-22,-0,-32,1.02,8636,31,107,43,45,914,446.0,499,411,60,123.0,179,1,357,230,74,0,0,463,16648,-18108,426,-5.59,44.681091,10.024504,42.34,172.8,0,0.0,-1,0.0,0.0,0,3.79,8.4591
507563,1564153252268,1,2.28,0.54,0.33,1.13,0.89,0.59,0.81,0.69,-21,-0,-30,1.0,8612,32,106,43,46,920,446.0,501,419,60,122.0,179,1,363,230,74,0,0,464,16648,-9160,429,-5.59,,,,,,,,,,,,
507583,1564153252288,1,2.31,0.56,0.33,1.14,0.91,0.69,0.71,0.73,-19,-1,-29,0.99,8557,32,107,43,45,925,448.0,496,450,60,123.0,173,1,357,229,75,0,0,457,10305,2524,434,-5.59,,,,,,,,,,,,
507603,1564153252308,-1,2.34,0.58,0.34,1.16,0.92,0.58,0.51,0.65,-17,-0,-27,0.77,8542,32,106,43,46,932,447.0,505,445,60,123.0,173,1,363,231,75,0,0,462,10305,2211,439,-5.59,,,,,,,,,,,,
507623,1564153252328,3,2.38,0.63,0.37,1.2,0.95,0.55,0.45,0.65,-14,1,-26,0.71,8538,32,107,43,46,937,447.0,504,438,60,122.0,173,1,363,231,75,0,0,460,2131,30272,443,-5.59,,,,,,,,,,,,
507643,1564153252348,0,2.43,0.73,0.42,1.28,1.02,0.65,0.37,0.73,-11,-0,-23,0.74,8557,32,107,43,46,938,446.0,503,438,60,122.0,173,1,363,231,75,0,0,460,16648,12552,445,-5.59,44.681103,10.024501,42.81,172.8,0,0.0,-1,0.0,0.0,0,3.79,8.4607
507663,1564153252368,1,2.47,0.88,0.48,1.38,1.1,0.61,0.2,0.74,-9,-0,-21,0.64,8620,32,107,43,46,938,449.0,499,452,60,122.0,173,1,363,233,75,0,0,458,20625,-1923,449,-5.59,,,,,,,,,,,,
507683,1564153252388,-2,2.51,1.03,0.52,1.46,1.18,0.46,0.12,0.68,-6,0,-17,0.47,8664,32,106,43,46,936,450.0,502,460,60,121.0,165,1,363,233,75,0,0,457,20625,243,450,-5.59,,,,,,,,,,,,
507703,1564153252410,3,2.53,1.12,0.54,1.52,1.2,0.51,0.09,0.72,-3,-1,-15,0.52,8712,32,106,43,46,933,455.0,503,465,60,121.0,165,1,363,233,75,0,0,457,-28332,10432,455,-5.59,,,,,,,,,,,,
507723,1564153252430,2,2.56,1.14,0.55,1.54,1.2,0.66,0.08,0.84,-1,-3,-11,0.66,8741,32,107,43,46,930,457.0,496,463,60,122.0,165,1,363,230,75,0,0,465,-28332,3576,458,-5.59,,,,,,,,,,,,
507743,1564153252450,2,2.58,1.14,0.55,1.55,1.2,0.74,0.03,0.82,1,-3,-8,0.74,8733,32,107,43,45,928,460.0,487,466,60,122.0,165,1,357,230,75,0,0,470,21580,3576,460,-5.59,44.68111,10.024498,44.01,172.8,0,0.0,-1,0.0,0.0,0,3.79,8.4624
507763,1564153252470,-0,2.6,1.14,0.55,1.55,1.19,0.77,-0.12,0.74,3,-4,-5,0.78,8782,32,107,43,45,928,460.0,485,461,60,123.0,165,1,357,230,75,0,0,466,21580,-17956,460,-5.59,,,,,,,,,,,,
507783,1564153252490,-0,2.62,1.13,0.55,1.54,1.19,0.71,-0.3,0.68,5,-2,-3,0.77,8840,32,107,43,45,929,461.0,493,466,60,123.0,166,1,357,231,77,0,0,477,21580,3580,461,-5.59,,,,,,,,,,,,
507803,1564153252510,0,2.64,1.13,0.55,1.54,1.2,0.64,-0.47,0.61,6,-2,-1,0.79,8915,32,107,43,45,932,462.0,488,462,60,122.0,166,1,357,233,77,0,0,487,19477,32033,464,-5.59,,,,,,,,,,,,
507823,1564153252530,2,2.66,1.12,0.55,1.53,1.19,0.6,-0.62,0.62,7,-1,2,0.86,8992,32,107,43,45,935,465.0,501,464,60,123.0,166,1,357,233,77,0,0,471,-7939,16648,465,-5.59,,,,,,,,,,,,
507843,1564153252550,2,2.68,1.12,0.54,1.53,1.18,0.56,-0.76,0.63,8,-1,5,0.94,9023,32,106,43,44,944,465.0,492,468,60,123.0,166,1,351,147,77,0,0,490,5600,32033,464,-5.59,44.681122,10.024494,45.17,172.8,0,0.0,-1,0.0,0.0,0,3.79,8.4641
507863,1564153252570,1,2.71,1.13,0.54,1.53,1.19,0.52,-0.86,0.62,10,-1,6,1.0,9049,32,106,43,44,952,465.0,512,455,60,122.0,166,1,351,230,77,0,0,497,-7939,32033,465,-5.59,,,,,,,,,,,,
507883,1564153252590,2,2.71,1.12,0.55,1.54,1.19,0.55,-0.97,0.5,12,-2,8,1.12,9057,32,107,43,43,958,468.0,500,465,60,123.0,168,1,345,230,79,0,0,478,5600,-1562,468,-5.59,,,,,,,,,,,,
507903,1564153252609,2,2.71,1.13,0.54,1.54,1.2,0.58,-1.03,0.39,14,-0,11,1.18,9040,32,107,43,43,963,469.0,508,455,60,123.0,168,1,345,228,79,0,0,483,-768,505,470,-5.59,,,,,,,,,,,,
507923,1564153252629,1,2.72,1.13,0.55,1.55,1.19,0.68,-1.1,0.41,15,-2,14,1.3,9036,32,107,43,43,968,472.0,511,463,60,123.0,168,1,345,228,79,0,0,493,-768,-1818,472,-5.59,,,,,,,,,,,,
507943,1564153252649,0,2.72,1.13,0.54,1.54,1.2,0.76,-1.07,0.36,16,-2,16,1.31,9097,32,107,43,43,974,472.0,506,463,60,123.0,168,1,345,228,79,0,0,485,-768,248,472,-5.59,44.681133,10.024491,45.7,172.8,0,0.0,-1,0.0,0.0,0,3.79,8.4657
507963,1564153252669,2,2.71,1.13,0.55,1.54,1.19,0.89,-0.94,0.44,18,-4,19,1.29,9195,32,107,43,43,974,473.0,507,466,60,122.0,168,1,346,228,79,0,0,496,243,1,474,-5.59,,,,,,,,,,,,
507983,1564153252689,-0,2.72,1.13,0.55,1.54,1.2,0.88,-0.83,0.58,20,-4,21,1.21,9241,32,107,43,43,974,473.0,506,464,60,122.0,169,1,347,229,80,0,0,503,-768,-1562,473,-5.59,,,,,,,,,,,,
508003,1564153252709,1,2.72,1.13,0.55,1.54,1.19,0.78,-0.83,0.52,22,-4,24,1.14,9295,32,107,43,43,982,476.0,510,462,60,123.0,169,1,347,226,80,0,0,499,-768,248,476,-5.59,,,,,,,,,,,,
508023,1564153252729,-1,2.72,1.13,0.55,1.55,1.2,0.73,-0.94,0.56,23,-3,25,1.2,9351,32,107,43,42,991,478.0,508,463,60,123.0,169,1,341,227,80,0,0,504,-768,248,476,-5.59,,,,,,,,,,,,
508043,1564153252749,-1,2.72,1.13,0.55,1.54,1.19,0.7,-0.97,0.6,25,-5,27,1.2,9389,32,107,43,42,1000,478.0,516,461,60,124.0,169,1,341,227,80,0,0,914,1779,-9216,478,181.28,44.681145,10.024489,46.29,172.8,0,0.0,-1,0.0,0.0,0,3.79,8.4674
508063,1564153252769,3,2.72,1.13,0.55,1.54,1.19,0.77,-0.98,0.59,26,-4,28,1.25,9132,32,107,43,41,1011,477.0,507,467,60,124.0,169,1,333,223,80,0,0,914,-3322,3,477,181.28,,,,,,,,,,,,
508083,1564153252789,2,2.72,1.13,0.55,1.54,1.2,0.8,-0.94,0.69,27,-4,29,1.23,9018,32,107,43,42,1015,477.0,500,463,60,123.0,158,1,338,225,76,0,0,462,1779,-1818,480,-5.59,,,,,,,,,,,,
508103,1564153252809,3,2.72,1.13,0.55,1.54,1.19,0.9,-0.93,0.66,28,-4,32,1.3,9062,32,107,43,43,1016,477.0,514,467,60,122.0,158,1,345,228,76,0,0,470,-3314,248,477,-5.59,,,,,,,,,,,,
508123,1564153252829,2,2.72,1.12,0.55,1.54,1.19,0.89,-0.88,0.66,29,-4,33,1.25,9115,32,107,43,43,1012,476.0,480,468,60,124.0,158,1,346,228,76,0,0,486,1779,3580,476,-5.59,,,,,,,,,,,,
508143,1564153252849,3,2.72,1.13,0.55,1.55,1.19,0.95,-0.83,0.6,30,-4,35,1.26,9186,32,107,43,43,1003,474.0,356,466,60,123.0,158,1,346,229,76,0,0,490,1779,771,475,-5.59,44.68116,10.024489,46.24,172.7,0,0.0,-1,0.0,0.0,0,3.79,8.4691
508163,1564153252869,0,2.72,1.12,0.55,1.54,1.19,0.98,-0.85,0.48,30,-4,37,1.3,9209,32,107,43,42,1000,474.0,307,466,60,122.0,158,1,340,226,76,0,0,506,-3322,-6528,474,-5.59,,,,,,,,,,,,
508183,1564153252889,2,2.71,1.12,0.55,1.54,1.19,0.89,-0.89,0.47,31,-3,37,1.26,9277,32,107,43,42,999,476.0,311,460,60,121.0,165,1,340,226,79,0,0,508,-3322,-6656,476,-5.59,,,,,,,,,,,,
508203,1564153252909,2,2.71,1.12,0.55,1.55,1.19,0.92,-1.0,0.46,31,-3,38,1.36,9365,32,107,43,42,1002,476.0,362,463,60,122.0,165,1,341,227,79,0,0,496,-3314,-1818,477,-5.59,,,,,,,,,,,,
508223,1564153252929,2,2.7,1.12,0.56,1.54,1.19,0.95,-0.99,0.43,31,-4,39,1.37,9407,32,107,43,42,1011,475.0,323,462,60,123.0,165,1,341,228,79,0,0,502,3635,-32768,475,-5.59,,,,,,,,,,,,
508243,1564153252949,-1,2.68,1.12,0.55,1.55,1.18,0.85,-1.02,0.54,31,-3,39,1.33,9412,32,107,43,42,1017,478.0,321,459,60,123.0,165,1,342,225,79,0,0,503,31796,2524,478,-5.59,44.681168,10.02449,46.24,172.7,0,0.0,-1,0.0,0.0,0,3.79,8.4707
508263,1564153252969,1,2.66,1.13,0.55,1.54,1.19,0.82,-1.12,0.47,32,-3,41,1.39,9422,32,107,43,41,1021,477.0,326,473,60,123.0,165,1,334,225,79,0,0,498,-3314,-32248,477,-5.59,,,,,,,,,,,,
508283,1564153252989,1,2.62,1.13,0.55,1.54,1.19,0.78,-1.17,0.51,32,-1,40,1.41,9360,32,107,43,41,1020,479.0,326,465,60,123.0,167,1,334,225,80,0,0,497,-3314,-22519,479,-5.59,,,,,,,,,,,,
508303,1564153252999,3,2.58,1.13,0.55,1.54,1.19,0.78,-1.06,0.65,33,-3,41,1.32,9282,32,107,43,41,1015,481.0,312,461,60,124.0,167,1,333,224,80,0,0,498,-3322,-22519,481,-5.59,,,,,,,,,,,,
508323,1564153253019,3,2.52,1.12,0.55,1.54,1.19,0.81,-0.94,0.67,33,-2,41,1.24,9222,32,107,43,41,1009,481.0,330,468,60,123.0,167,1,333,224,80,0,0,484,-7939,11560,481,-5.59,,,,,,,,,,,,
508343,1564153253039,3,2.47,1.11,0.55,1.54,1.18,0.87,-0.79,0.76,32,-3,42,1.18,9137,32,107,43,42,1003,480.0,318,462,60,123.0,167,1,339,225,80,0,0,487,-7939,-32768,480,-5.59,44.681183,10.024494,46.57,172.7,0,0.0,-1,0.0,0.0,0,3.8,8.4724
508363,1564153253059,3,2.41,1.12,0.55,1.54,1.19,0.86,-0.63,0.66,30,-3,42,1.07,9079,32,107,43,42,999,479.0,347,472,60,123.0,167,1,338,225,80,0,0,490,-28332,505,479,-5.59,,,,,,,,,,,,
508383,1564153253079,4,2.36,1.11,0.55,1.53,1.19,0.95,-0.49,0.68,28,-3,42,1.07,8997,32,107,43,42,999,477.0,371,462,60,123.0,160,1,338,225,77,0,0,476,10305,-32768,477,-5.59,,,,,,,,,,,,
508403,1564153253105,1,2.32,1.08,0.54,1.52,1.18,0.88,-0.32,0.61,25,-2,40,0.94,9010,32,107,43,42,999,474.0,393,469,60,122.0,160,1,338,225,77,0,0,477,-6387,505,474,-5.59,,,,,,,,,,,,
508423,1564153253125,-0,2.27,0.99,0.51,1.45,1.14,0.95,-0.19,0.53,21,-2,38,0.97,9005,32,107,43,43,998,471.0,424,466,60,122.0,160,1,345,228,77,0,0,476,-9160,-6441,471,-5.59,,,,,,,,,,,,
508443,1564153253145,3,2.22,0.78,0.45,1.3,1.05,0.92,0.02,0.48,18,-0,36,0.92,9023,32,107,43,42,998,468.0,440,470,60,123.0,160,1,338,228,77,0,0,478,6193,16648,466,-5.59,44.68119,10.024498,46.45,172.7,0,0.0,-1,0.0,0.0,0,3.8,8.474
508463,1564153253165,1,2.21,0.49,0.35,1.09,0.9,0.98,0.18,0.48,14,-1,33,1.0,8958,32,107,43,43,997,468.0,457,460,60,122.0,160,1,345,227,77,0,0,484,-16384,8488,464,-5.59,,,,,,,,,,,,
508483,1564153253185,3,2.18,0.22,0.24,0.89,0.73,0.99,0.37,0.47,11,-0,30,1.05,8907,32,107,43,43,1001,469.0,463,458,60,123.0,164,1,345,227,76,0,0,488,8488,3576,461,-5.59,,,,,,,,,,,,
508503,1564153253209,2,2.16,0.05,0.15,0.76,0.62,1.09,0.49,0.53,8,-2,26,1.19,8890,32,107,43,43,1018,472.0,478,465,60,123.0,164,1,345,227,76,0,0,488,-1923,2212,461,-5.59,,,,,,,,,,,,
508523,1564153253229,3,2.15,0.02,0.1,0.71,0.58,1.15,0.64,0.57,5,-1,24,1.32,8941,32,107,43,44,1036,474.0,492,461,60,123.0,164,1,351,227,76,0,0,491,-9203,-9203,459,-5.59,,,,,,,,,,,,
508543,1564153253249,3,2.14,0.05,0.08,0.71,0.56,1.24,0.76,0.68,3,-2,20,1.45,8997,32,107,43,44,1054,475.0,502,462,60,123.0,164,1,351,228,76,0,0,486,-23367,-17956,457,-5.59,44.681202,10.024504,47.08,172.7,0,0.0,-1,0.0,0.0,0,3.8,8.4757
508563,1564153253269,3,2.13,0.06,0.09,0.71,0.56,1.25,0.89,0.68,1,-2,17,1.53,9062,31,107,43,43,1073,475.0,510,465,60,123.0,164,1,345,228,76,0,0,491,-17956,8488,456,-5.59,,,,,,,,,,,,
508583,1564153253289,3,2.12,0.09,0.09,0.73,0.57,1.27,0.99,0.64,-1,-3,15,1.61,9066,31,107,43,43,1100,477.0,520,463,60,123.0,172,1,345,228,79,0,0,488,2212,32033,457,-5.59,,,,,,,,,,,,
508603,1564153253309,-1,2.13,0.17,0.16,0.74,0.59,1.17,1.09,0.51,-2,-1,13,1.6,9049,32,107,43,43,1127,477.0,516,455,60,122.0,172,1,345,228,79,0,0,492,-23367,10305,456,-5.59,,,,,,,,,,,,
508623,1564153253329,-1,2.12,0.19,0.16,0.75,0.6,1.11,1.18,0.42,-3,-1,10,1.62,9053,32,107,43,43,1137,477.0,514,437,60,124.0,172,1,345,228,79,0,0,489,2212,8488,454,-5.59,,,,,,,,,,,,
508643,1564153253349,-0,2.12,0.2,0.16,0.77,0.6,0.97,1.27,0.26,-4,1,8,1.59,9040,32,107,43,43,1145,479.0,514,436,60,123.0,172,1,345,228,79,0,0,492,10305,3580,458,-5.59,44.681213,10.024509,46.62,172.7,0,0.0,-1,0.0,0.0,0,3.8,8.4774
508663,1564153253369,-0,2.13,0.21,0.16,0.78,0.6,0.85,1.33,0.15,-5,0,5,1.58,9053,32,107,43,43,1147,480.0,514,438,60,123.0,172,1,345,228,79,0,0,492,8488,-23367,456,-5.59,,,,,,,,,,,,
508683,1564153253389,-1,2.14,0.21,0.17,0.78,0.61,0.7,1.38,0.03,-6,3,3,1.54,9053,32,107,43,43,1149,479.0,512,455,60,123.0,171,1,345,228,78,0,0,493,10305,-17956,456,-5.59,,,,,,,,,,,,
508703,1564153253409,-1,2.14,0.23,0.19,0.79,0.62,0.57,1.33,-0.02,-7,3,-1,1.45,9057,32,107,43,43,1142,479.0,510,458,60,123.0,171,1,345,228,78,0,0,495,10305,10305,455,-5.59,,,,,,,,,,,,
508723,1564153253429,1,2.15,0.24,0.2,0.8,0.63,0.49,1.19,0.04,-9,5,-4,1.29,9071,32,107,43,43,1134,481.0,523,455,60,122.0,171,1,345,228,78,0,0,498,-899,32033,457,-5.59,,,,,,,,,,,,
508743,1564153253449,2,2.16,0.25,0.2,0.81,0.63,0.44,1.0,0.07,-10,5,-7,1.09,9049,32,107,43,43,1133,482.0,518,461,60,124.0,171,1,345,228,78,0,0,495,32033,-16384,459,-5.59,44.681225,10.024515,46.22,172.7,0,0.0,-1,0.0,0.0,0,3.8,8.479
508763,1564153253469,2,2.19,0.25,0.21,0.81,0.63,0.41,0.74,0.17,-11,7,-10,0.85,9049,32,107,43,43,1132,482.0,530,461,60,124.0,171,1,345,228,78,0,0,494,-899,-23367,458,-5.59,,,,,,,,,,,,
508783,1564153253489,2,2.2,0.27,0.21,0.82,0.64,0.44,0.56,0.26,-12,7,-13,0.71,9062,32,107,43,43,1137,483.0,525,457,60,123.0,167,1,345,228,77,0,0,497,3580,32033,461,-5.59,,,,,,,,,,,,
508803,1564153253509,2,2.23,0.27,0.22,0.82,0.65,0.53,0.31,0.43,-13,5,-15,0.61,9071,32,107,43,43,1144,483.0,533,465,60,124.0,167,1,345,228,77,0,0,493,32033,-899,461,-5.59,,,,,,,,,,,,
508823,1564153253529,1,2.27,0.28,0.22,0.82,0.65,0.61,0.13,0.53,-13,5,-16,0.62,9062,32,107,43,43,1149,481.0,530,455,60,123.0,167,1,345,228,77,0,0,493,32033,2212,464,-5.59,,,,,,,,,,,,
508843,1564153253549,1,2.3,0.3,0.23,0.84,0.65,0.75,0.01,0.64,-13,3,-16,0.75,9075,32,107,43,43,1153,479.0,523,465,60,123.0,167,1,345,228,77,0,0,494,10305,16648,465,-5.59,44.681236,10.02452,46.64,172.7,0,0.0,-1,0.0,0.0,0,3.8,8.4807
508863,1564153253569,2,2.33,0.32,0.24,0.86,0.67,0.88,-0.0,0.7,-12,1,-16,0.88,9097,32,107,43,43,1153,477.0,516,457,60,124.0,167,1,345,228,77,0,0,491,-23367,32033,466,-5.59,,,,,,,,,,,,
508883,1564153253589,3,2.37,0.35,0.26,0.89,0.7,0.99,0.04,0.76,-10,-2,-14,0.99,9115,32,107,43,43,1151,476.0,518,466,60,123.0,168,1,346,228,79,0,0,490,-17956,32033,469,-5.59,,,,,,,,,,,,
508903,1564153253608,3,2.41,0.42,0.28,0.93,0.73,1.06,0.13,0.75,-8,-2,-12,1.07,9177,32,107,43,43,1151,474.0,524,462,60,123.0,168,1,346,225,79,0,0,485,-9203,-6656,473,-5.59,,,,,,,,,,,,
508923,1564153253628,0,2.44,0.52,0.34,1.0,0.8,1.08,0.22,0.67,-6,-3,-10,1.1,9182,32,107,43,42,1152,475.0,516,464,60,122.0,168,1,339,226,79,0,0,488,-1923,505,475,-5.59,,,,,,,,,,,,
508943,1564153253648,-0,2.47,0.69,0.42,1.13,0.92,0.99,0.2,0.65,-3,-3,-8,1.01,9159,32,107,43,42,1154,478.0,510,469,60,123.0,168,1,339,225,79,0,0,486,32033,-32768,477,-5.59,44.681248,10.024524,46.59,172.6,0,0.0,-1,0.0,0.0,0,3.8,8.4824
508963,1564153253668,0,2.52,1.0,0.55,1.34,1.08,0.85,0.12,0.56,-1,-2,-6,0.85,9128,32,107,43,43,1156,480.0,524,460,60,121.0,168,1,346,228,79,0,0,485,-3210,-6528,480,-5.59,,,,,,,,,,,,
508983,1564153253688,1,2.57,1.23,0.61,1.46,1.19,0.7,-0.01,0.53,1,-0,-5,0.7,9155,32,107,43,42,1157,483.0,516,464,60,123.0,161,1,339,225,78,0,0,484,30272,998,483,-5.59,,,,,,,,,,,,
509003,1564153253708,1,2.6,1.34,0.65,1.54,1.21,0.59,-0.21,0.52,4,1,-2,0.62,9159,32,107,43,42,1158,485.0,512,462,60,122.0,161,1,339,225,78,0,0,484,12552,2109,483,-5.59,,,,,,,,,,,,
509023,1564153253728,2,2.64,1.35,0.65,1.57,1.22,0.6,-0.39,0.6,5,1,0,0.72,9213,32,107,43,42,1157,484.0,523,457,60,123.0,161,1,340,226,78,0,0,480,2211,10408,484,-5.59,,,,,,,,,,,,
509043,1564153253748,3,2.66,1.34,0.65,1.57,1.21,0.55,-0.38,0.66,8,2,3,0.67,9236,32,107,43,42,1155,486.0,521,465,60,121.0,161,1,340,226,78,0,0,480,-23623,-22519,486,-5.59,44.681259,10.024528,47.22,172.6,0,0.0,-1,0.0,0.0,0,3.8,8.484
509063,1564153253768,2,2.69,1.35,0.66,1.57,1.21,0.61,-0.31,0.65,11,0,5,0.69,9277,32,107,43,42,1156,486.0,520,466,60,122.0,161,1,340,226,78,0,0,482,17628,2109,486,-5.59,,,,,,,,,,,,
509083,1564153253788,0,2.7,1.33,0.65,1.57,1.21,0.73,-0.3,0.69,12,1,8,0.79,9286,32,107,43,42,1159,485.0,513,465,60,122.0,162,1,340,226,79,0,0,496,2524,10408,486,-5.59,,,,,,,,,,,,
509103,1564153253808,1,2.7,1.34,0.65,1.55,1.2,0.65,-0.4,0.66,14,2,11,0.76,9305,32,107,43,42,1162,486.0,508,464,60,122.0,162,1,341,227,79,0,0,499,-8985,11560,486,-5.59,,,,,,,,,,,,
509123,1564153253828,1,2.7,1.34,0.65,1.56,1.21,0.67,-0.56,0.63,14,3,14,0.87,9370,32,107,43,42,1166,486.0,516,465,60,123.0,162,1,341,227,79,0,0,503,3571,-9216,486,-5.59,,,,,,,,,,,,
509143,1564153253848,1,2.68,1.33,0.66,1.56,1.21,0.72,-0.52,0.63,16,-1,17,0.89,9441,32,107,43,41,1166,487.0,511,468,60,122.0,162,1,334,225,79,0,0,513,15649,11560,487,-5.59,44.681271,10.02453,47.35,172.7,0,0.0,-1,0.0,0.0,0,3.81,8.4857
509163,1564153253868,1,2.66,1.34,0.65,1.57,1.2,0.73,-0.61,0.72,17,1,18,0.95,9556,32,107,43,41,1160,488.0,520,460,60,121.0,162,1,335,226,79,0,0,490,3571,-32248,485,-5.59,,,,,,,,,,,,
509183,1564153253888,0,2.66,1.33,0.66,1.56,1.2,0.69,-0.66,0.68,18,0,22,0.96,9561,32,107,43,41,1152,487.0,519,461,60,121.0,168,1,335,226,82,0,0,492,3571,-21872,487,-5.59,,,,,,,,,,,,
509203,1564153253908,3,2.64,1.33,0.65,1.56,1.21,0.71,-0.64,0.62,19,1,24,0.96,9503,32,107,43,41,1142,488.0,520,470,60,122.0,168,1,334,226,82,0,0,525,2524,17136,488,-5.59,,,,,,,,,,,,
509223,1564153253928,1,2.64,1.33,0.66,1.57,1.2,0.76,-0.72,0.64,20,2,25,1.05,9431,32,107,43,41,1120,491.0,525,464,60,122.0,168,1,334,225,82,0,0,513,-6387,-32248,491,-5.59,,,,,,,,,,,,
509243,1564153253948,2,2.63,1.33,0.66,1.57,1.2,0.77,-0.78,0.71,21,2,26,1.09,9422,32,107,43,41,1086,492.0,520,463,60,123.0,168,1,334,225,82,0,0,493,-8985,-3414,492,-5.59,44.681282,10.024535,47.25,172.7,0,0.0,-1,0.0,0.0,0,3.81,8.4874
509263,1564153253968,1,2.65,1.33,0.65,1.57,1.2,0.8,-0.76,0.66,21,2,27,1.11,9417,32,107,43,41,1053,492.0,530,459,60,123.0,168,1,334,225,82,0,0,501,3571,17136,493,-5.59,,,,,,,,,,,,
509283,1564153253988,0,2.64,1.33,0.65,1.57,1.2,0.83,-0.74,0.61,21,1,30,1.11,9389,32,107,43,41,1030,494.0,515,464,60,123.0,160,1,334,225,79,0,0,506,-8985,-4054,494,-5.59,,,,,,,,,,,,
509303,1564153254000,2,2.64,1.33,0.65,1.57,1.2,0.78,-0.87,0.64,22,1,29,1.16,9426,32,107,43,41,1006,492.0,516,459,60,121.0,160,1,334,225,79,0,0,511,-26615,-32248,492,-5.59,,,,,,,,,,,,
509323,1564153254020,1,2.64,1.33,0.65,1.56,1.2,0.71,-0.88,0.62,22,0,30,1.13,9445,32,107,43,41,981,492.0,507,463,60,122.0,160,1,334,225,79,0,0,505,-8985,-32248,492,-5.59,,,,,,,,,,,,
509343,1564153254040,-0,2.62,1.33,0.66,1.57,1.2,0.7,-0.76,0.64,24,1,31,1.04,9484,32,107,43,41,962,493.0,508,470,60,123.0,160,1,334,225,79,0,0,492,-8985,-28648,493,-5.59,44.681294,10.024541,47.81,172.7,0,0.0,-1,0.0,0.0,0,3.81,8.489
509363,1564153254060,1,2.62,1.32,0.66,1.57,1.2,0.75,-0.84,0.66,24,2,32,1.13,9422,32,107,43,41,960,493.0,510,458,60,120.0,160,1,334,225,79,0,0,508,-26615,26178,494,-5.59,,,,,,,,,,,,
509383,1564153254080,2,2.59,1.33,0.65,1.57,1.21,0.75,-0.93,0.72,23,3,32,1.2,9422,32,107,43,41,961,496.0,401,465,60,121.0,161,1,334,225,80,0,0,521,-26615,26178,496,-5.59,,,,,,,,,,,,
509403,1564153254108,1,2.58,1.32,0.65,1.56,1.21,0.71,-0.9,0.68,23,3,33,1.15,9474,32,107,43,41,970,494.0,426,466,60,122.0,161,1,334,225,80,0,0,491,2524,-4054,494,-5.59,,,,,,,,,,,,
509423,1564153254128,1,2.56,1.32,0.65,1.56,1.2,0.7,-0.94,0.62,24,3,34,1.17,9517,32,107,43,41,978,492.0,444,468,60,122.0,161,1,335,226,80,0,0,487,-9160,-3414,492,-5.59,,,,,,,,,,,,
509443,1564153254148,2,2.55,1.32,0.65,1.57,1.2,0.76,-0.99,0.64,23,3,33,1.24,9469,32,107,43,41,988,494.0,467,468,60,122.0,161,1,334,225,80,0,0,507,-18108,6274,494,-5.59,44.681301,10.024549,48.04,172.8,0,0.0,-1,0.0,0.0,0,3.81,8.4907
509463,1564153254168,2,2.56,1.31,0.65,1.56,1.2,0.76,-0.94,0.75,23,3,33,1.21,9441,32,107,43,41,998,495.0,480,461,60,123.0,161,1,334,225,80,0,0,518,12552,10994,495,-5.59,,,,,,,,,,,,
509483,1564153254188,-1,2.57,1.31,0.65,1.55,1.2,0.7,-0.86,0.69,23,3,34,1.11,9403,33,107,43,41,1011,495.0,489,470,60,122.0,161,1,334,225,80,0,0,509,16408,-3856,495,-5.59,,,,,,,,,,,,
509503,1564153254210,1,2.57,1.31,0.65,1.55,1.2,0.77,-0.95,0.6,23,2,34,1.22,9426,33,107,43,41,1024,496.0,482,462,60,122.0,161,1,334,225,80,0,0,497,2211,-3856,496,-5.59,,,,,,,,,,,,
509523,1564153254230,1,2.59,1.31,0.65,1.55,1.19,0.76,-0.96,0.67,23,2,33,1.22,9431,33,107,43,41,1028,496.0,496,463,60,122.0,161,1,334,225,80,0,0,489,12552,17136,496,-5.59,,,,,,,,,,,,
509543,1564153254250,2,2.6,1.31,0.64,1.55,1.2,0.74,-0.9,0.72,24,2,33,1.17,9412,33,107,43,41,1031,495.0,487,467,60,122.0,161,1,334,225,80,0,0,504,6193,-4054,495,-5.59,44.681316,10.024557,47.99,172.8,0,0.0,-1,0.0,0.0,0,3.81,8.4924
509563,1564153254270,0,2.62,1.31,0.65,1.55,1.2,0.72,-0.95,0.6,24,1,34,1.19,9384,33,107,43,41,1035,496.0,492,469,60,122.0,161,1,334,225,80,0,0,514,-3210,10994,497,-5.59,,,,,,,,,,,,
509583,1564153254290,1,2.63,1.31,0.65,1.55,1.2,0.74,-1.03,0.63,25,1,33,1.27,9445,33,107,43,41,1039,498.0,495,463,60,121.0,160,1,334,225,80,0,0,502,16408,10994,497,-5.59,,,,,,,,,,,,
509603,1564153254310,1,2.64,1.31,0.65,1.55,1.2,0.73,-0.96,0.68,25,2,32,1.2,9474,33,107,43,41,1040,499.0,496,460,60,122.0,160,1,334,225,80,0,0,501,12552,26178,499,-5.59,,,,,,,,,,,,
509623,1564153254330,-1,2.64,1.31,0.65,1.55,1.2,0.68,-0.94,0.69,26,2,32,1.16,9474,33,107,43,41,1041,499.0,497,459,60,121.0,160,1,334,226,80,0,0,494,2211,15679,499,-5.59,,,,,,,,,,,,
509643,1564153254350,1,2.64,1.31,0.65,1.56,1.2,0.77,-1.01,0.62,27,2,32,1.27,9474,33,107,43,41,1042,499.0,502,473,60,121.0,160,1,334,225,80,0,0,498,-23623,26178,499,-5.59,44.681324,10.024567,48.62,172.8,0,0.0,-1,0.0,0.0,0,3.81,8.4941
509663,1564153254370,1,2.63,1.31,0.65,1.55,1.19,0.86,-0.98,0.59,27,1,34,1.3,9464,33,108,43,41,1043,499.0,508,465,60,122.0,160,1,334,226,80,0,0,510,2211,-3856,499,-5.59,,,,,,,,,,,,
509683,1564153254390,0,2.62,1.31,0.65,1.55,1.19,0.79,-0.99,0.62,27,2,34,1.27,9484,33,107,43,41,1043,499.0,505,462,60,122.0,162,1,335,225,81,0,0,521,2211,-3482,500,-5.59,,,,,,,,,,,,
509703,1564153254410,2,2.61,1.3,0.65,1.56,1.2,0.71,-1.02,0.67,27,2,33,1.25,9576,33,107,43,41,1043,499.0,505,465,60,121.0,162,1,335,226,81,0,0,503,2211,16383,498,-5.59,,,,,,,,,,,,
509723,1564153254430,1,2.62,1.3,0.65,1.55,1.2,0.7,-0.96,0.63,28,3,34,1.19,9610,33,108,43,41,1045,497.0,517,459,60,122.0,162,1,335,229,81,0,0,499,-23623,1341,497,-5.59,,,,,,,,,,,,
509743,1564153254450,1,2.62,1.3,0.65,1.55,1.2,0.79,-1.01,0.59,28,2,34,1.29,9566,33,107,43,41,1046,496.0,521,465,60,121.0,162,1,335,226,81,0,0,513,-23623,15679,496,-5.59,44.681335,10.024577,48.48,172.9,0,0.0,-1,0.0,0.0,0,3.81,8.4957
509763,1564153254470,2,2.63,1.3,0.65,1.55,1.19,0.8,-1.02,0.61,28,2,33,1.3,9541,33,108,43,41,1048,497.0,514,465,60,122.0,162,1,335,227,81,0,0,525,-18108,-21872,497,-5.59,,,,,,,,,,,,
509783,1564153254490,0,2.62,1.3,0.65,1.56,1.2,0.74,-1.07,0.64,28,1,34,1.3,9561,33,108,43,41,1049,495.0,516,458,60,122.0,165,1,335,229,82,0,0,514,17628,-3856,495,-5.59,,,,,,,,,,,,
509803,1564153254508,-1,2.63,1.3,0.65,1.55,1.2,0.7,-1.11,0.59,28,1,34,1.31,9630,33,108,43,41,1052,496.0,512,460,60,121.0,165,1,335,229,82,0,0,497,-18108,-4054,494,-5.59,,,,,,,,,,,,
509823,1564153254528,3,2.62,1.31,0.65,1.55,1.19,0.73,-1.05,0.55,29,1,35,1.27,9610,33,108,43,41,1054,498.0,514,468,60,122.0,165,1,335,229,82,0,0,510,12552,-3856,497,-5.59,,,,,,,,,,,,
509843,1564153254548,1,2.62,1.3,0.65,1.55,1.2,0.76,-1.02,0.54,29,1,36,1.27,9566,33,108,43,41,1056,498.0,516,465,60,121.0,165,1,335,227,82,0,0,539,2211,16383,498,-5.59,44.681343,10.024589,48.55,172.9,0,0.0,-1,0.0,0.0,0,3.82,8.4974
509863,1564153254568,2,2.62,1.3,0.65,1.54,1.19,0.79,-1.05,0.53,29,2,35,1.31,9551,33,108,43,41,1057,498.0,543,462,60,122.0,165,1,335,227,82,0,0,535,-18108,15679,498,-5.59,,,,,,,,,,,,
509883,1564153254588,-0,2.64,1.29,0.64,1.54,1.2,0.74,-1.07,0.51,29,2,36,1.3,9620,33,108,43,41,1057,499.0,535,467,60,122.0,167,1,335,229,83,0,0,510,-18108,16383,499,-5.59,,,,,,,,,,,,
509903,1564153254609,1,2.64,1.29,0.65,1.54,1.19,0.7,-1.12,0.54,29,3,36,1.32,9715,33,108,43,41,1057,499.0,539,472,60,122.0,167,1,335,229,83,0,0,503,-9160,17136,499,-5.59,,,,,,,,,,,,
509923,1564153254629,-0,2.65,1.29,0.64,1.55,1.19,0.65,-1.09,0.49,30,3,36,1.27,9704,33,108,43,41,1057,498.0,522,464,60,122.0,167,1,335,229,83,0,0,508,-18108,17136,498,-5.59,,,,,,,,,,,,
509943,1564153254649,0,2.66,1.29,0.64,1.55,1.2,0.7,-1.11,0.52,30,3,36,1.32,9620,33,108,43,41,1057,500.0,532,467,60,122.0,167,1,335,229,83,0,0,514,-18108,-3856,499,-5.59,44.681351,10.024601,48.8,173.0,0,0.0,-1,0.0,0.0,0,3.82,8.4991
509963,1564153254669,2,2.65,1.3,0.64,1.56,1.19,0.77,-1.08,0.59,30,3,36,1.32,9571,33,108,43,41,1058,497.0,521,455,60,122.0,167,1,335,227,83,0,0,522,-23623,1341,497,-5.59,,,,,,,,,,,,
509983,1564153254689,1,2.67,1.29,0.64,1.55,1.19,0.74,-1.1,0.59,30,3,36,1.32,9615,33,108,43,41,1062,499.0,514,463,60,122.0,166,1,335,227,83,0,0,509,17628,2524,499,-5.59,,,,,,,,,,,,
510003,1564153254709,2,2.67,1.28,0.64,1.54,1.19,0.69,-1.08,0.67,30,2,36,1.28,9580,33,108,43,41,1065,499.0,515,461,60,121.0,166,1,335,227,83,0,0,506,-18108,1248,499,-5.59,,,,,,,,,,,,
510023,1564153254729,1,2.69,1.29,0.64,1.54,1.19,0.73,-1.06,0.68,30,2,37,1.28,9537,34,108,43,41,1069,497.0,520,465,60,122.0,166,1,335,227,83,0,0,524,14488,2109,497,-5.59,,,,,,,,,,,,
510043,1564153254749,1,2.7,1.29,0.65,1.54,1.19,0.74,-1.11,0.61,30,1,37,1.34,9493,34,108,43,41,1073,496.0,524,465,60,121.0,166,1,334,226,83,0,0,516,14488,-4054,496,-5.59,44.681358,10.024614,48.55,173.0,0,0.0,-1,0.0,0.0,0,3.82,8.5007
510063,1564153254769,2,2.71,1.28,0.64,1.54,1.19,0.73,-1.14,0.69,29,0,36,1.35,9527,34,108,43,41,1078,493.0,517,462,60,122.0,166,1,335,227,83,0,0,496,14488,-28648,494,-5.59,,,,,,,,,,,,
510083,1564153254789,1,2.71,1.29,0.64,1.55,1.19,0.71,-1.12,0.65,29,-1,37,1.33,9527,34,108,43,42,1081,492.0,528,462,60,122.0,167,1,342,227,83,0,0,514,-9160,16383,492,-5.59,,,,,,,,,,,,
510103,1564153254809,1,2.69,1.29,0.64,1.55,1.19,0.69,-1.19,0.63,30,-1,37,1.37,9576,34,108,43,41,1082,494.0,527,466,60,120.0,167,1,335,227,83,0,0,523,14488,26178,494,-5.59,,,,,,,,,,,,
510123,1564153254829,3,2.66,1.3,0.64,1.55,1.19,0.79,-1.17,0.61,30,-2,38,1.41,9630,34,108,43,41,1083,497.0,527,463,60,121.0,167,1,335,229,83,0,0,514,14488,1341,497,-5.59,,,,,,,,,,,,
510143,1564153254849,1,2.64,1.28,0.64,1.54,1.19,0.79,-1.16,0.56,30,-1,39,1.4,9600,34,108,43,41,1084,499.0,523,466,60,121.0,167,1,335,229,83,0,0,520,2524,-3856,499,-5.59,44.681362,10.024629,48.89,173.1,0,0.0,-1,0.0,0.0,0,3.82,8.5024
510163,1564153254869,3,2.62,1.29,0.64,1.55,1.19,0.79,-1.16,0.61,30,-0,39,1.4,9625,34,108,43,42,1086,497.0,524,461,60,122.0,167,1,342,232,83,0,0,514,2524,26178,497,-5.59,,,,,,,,,,,,
510183,1564153254889,-0,2.61,1.29,0.64,1.55,1.19,0.73,-1.21,0.64,30,1,39,1.41,9635,34,108,43,42,1086,500.0,521,462,60,122.0,169,1,342,232,84,0,0,499,2524,15679,499,-5.59,,,,,,,,,,,,
510203,1564153254909,0,2.62,1.28,0.64,1.55,1.18,0.68,-1.21,0.65,31,1,39,1.39,9654,34,108,43,41,1086,500.0,517,469,60,122.0,169,1,335,229,84,0,0,505,-9160,1341,500,-5.59,,,,,,,,,,,,
510223,1564153254929,2,2.64,1.28,0.64,1.55,1.19,0.77,-1.2,0.67,31,1,39,1.42,9566,34,108,43,42,1086,501.0,513,457,60,122.0,169,1,342,232,84,0,0,517,-9160,-4054,501,-5.59,,,,,,,,,,,,
510243,1564153254949,1,2.66,1.29,0.64,1.55,1.2,0.84,-1.22,0.6,31,0,39,1.48,9566,34,108,43,42,1086,500.0,517,464,60,123.0,169,1,342,231,84,0,0,507,17628,16383,500,-5.59,44.68137,10.024644,48.94,173.1,0,0.0,-1,0.0,0.0,0,3.82,8.5041
510263,1564153254969,2,2.68,1.29,0.64,1.55,1.19,0.79,-1.23,0.68,30,1,38,1.46,9488,34,108,43,42,1086,497.0,518,462,60,123.0,169,1,342,230,84,0,0,522,17628,6274,497,-5.59,,,,,,,,,,,,
510283,1564153254989,3,2.68,1.28,0.63,1.55,1.19,0.8,-1.18,0.65,29,1,38,1.43,9498,34,108,43,42,1086,493.0,524,458,60,123.0,167,1,342,230,83,0,0,512,14488,10994,493,-5.59,,,,,,,,,,,,
510303,1564153254999,1,2.67,1.29,0.64,1.55,1.19,0.72,-1.24,0.58,29,0,39,1.43,9522,34,108,43,42,1087,493.0,517,464,60,122.0,167,1,342,231,83,0,0,502,14488,16383,493,-5.59,,,,,,,,,,,,
510323,1564153255019,2,2.66,1.29,0.64,1.55,1.2,0.76,-1.22,0.56,29,-1,38,1.44,9576,34,108,43,42,1088,494.0,520,463,60,123.0,167,1,342,231,83,0,0,499,14488,-3482,494,-5.59,,,,,,,,,,,,
510343,1564153255039,-0,2.63,1.29,0.64,1.55,1.2,0.79,-1.14,0.6,29,-1,39,1.39,9561,34,108,43,42,1089,496.0,516,466,60,124.0,167,1,342,231,83,0,0,518,17628,16383,496,-5.59,44.681374,10.02466,48.67,173.2,0,0.0,-1,0.0,0.0,0,3.82,8.5057
510363,1564153255059,0,2.59,1.29,0.64,1.55,1.19,0.77,-1.11,0.69,29,1,39,1.35,9537,34,108,43,42,1091,500.0,514,466,60,122.0,167,1,342,231,83,0,0,528,17628,15679,500,-5.59,,,,,,,,,,,,
510383,1564153255079,2,2.56,1.28,0.64,1.55,1.19,0.81,-1.06,0.64,29,1,40,1.34,9585,34,108,43,42,1093,501.0,523,460,60,123.0,166,1,342,231,83,0,0,521,-9160,26178,501,-5.59,,,,,,,,,,,,
510403,1564153255109,2,2.54,1.29,0.64,1.55,1.19,0.75,-1.14,0.62,29,2,40,1.36,9635,34,108,43,42,1096,501.0,516,467,60,123.0,166,1,342,232,83,0,0,498,-9160,16383,499,-5.59,,,,,,,,,,,,
510423,1564153255129,2,2.54,1.28,0.63,1.55,1.19,0.8,-1.08,0.63,29,2,39,1.34,9674,34,108,43,42,1097,500.0,523,464,60,123.0,166,1,342,232,83,0,0,497,12552,26178,501,-5.59,,,,,,,,,,,,
510443,1564153255149,-1,2.55,1.28,0.63,1.54,1.18,0.81,-1.04,0.62,29,3,39,1.32,9590,34,108,43,42,1098,500.0,511,466,60,123.0,166,1,342,231,83,0,0,524,6193,-3482,502,-5.59,44.681381,10.024676,48.73,173.2,0,0.0,-1,0.0,0.0,0,3.82,8.5074
510463,1564153255169,-0,2.56,1.28,0.64,1.55,1.18,0.79,-1.04,0.67,29,3,38,1.31,9503,34,108,43,42,1098,500.0,515,461,60,123.0,166,1,342,231,83,0,0,501,30272,-14,500,-5.59,,,,,,,,,,,,
510483,1564153255189,1,2.55,1.29,0.63,1.55,1.18,0.83,-1.01,0.74,27,2,37,1.31,9431,34,108,43,42,1098,499.0,519,461,60,123.0,167,1,341,230,83,0,0,502,30272,-3856,499,-5.59,,,,,,,,,,,,
510503,1564153255209,4,2.56,1.28,0.63,1.56,1.19,0.89,-0.96,0.64,27,1,37,1.31,9370,35,108,43,42,1098,498.0,526,467,60,123.0,167,1,341,229,83,0,0,502,10432,10994,498,-5.59,,,,,,,,,,,,
510523,1564153255229,1,2.56,1.29,0.64,1.54,1.19,0.85,-0.94,0.56,26,1,36,1.27,9360,39,108,43,43,1097,498.0,517,475,60,122.0,167,1,349,232,83,0,0,493,10432,-3482,498,-5.59,,,,,,,,,,,,
510543,1564153255249,2,2.56,1.28,0.64,1.54,1.19,0.8,-0.96,0.67,26,2,36,1.25,9398,40,108,43,45,1098,498.0,510,463,60,123.0,167,1,362,236,83,0,0,496,243,26178,498,-5.59,44.681381,10.024693,48.48,173.3,0,0.0,-1,0.0,0.0,0,3.82,8.5091
510563,1564153255269,2,2.56,1.28,0.64,1.55,1.18,0.85,-0.96,0.68,26,2,35,1.28,9412,45,108,43,47,1099,499.0,526,466,60,123.0,167,1,378,244,83,0,0,491,-16384,-4054,499,-5.59,,,,,,,,,,,,
510583,1564153255289,2,2.56,1.28,0.64,1.53,1.19,0.9,-0.89,0.65,26,1,35,1.26,9370,47,108,43,49,1101,500.0,511,466,60,123.0,186,1,383,276,93,0,0,488,-16384,-3856,500,-5.59,,,,,,,,,,,,
510603,1564153255309,0,2.57,1.27,0.64,1.53,1.19,0.79,-0.85,0.62,26,2,34,1.16,9384,50,108,43,53,1103,502.0,521,459,60,123.0,186,1,396,300,93,0,0,489,8488,-3414,502,-5.59,,,,,,,,,,,,
510623,1564153255329,2,2.55,1.28,0.64,1.54,1.18,0.81,-0.88,0.6,26,1,34,1.19,9412,50,108,43,54,1107,499.0,508,469,60,122.0,186,1,400,236,93,0,0,489,-16384,6274,499,-5.59,,,,,,,,,,,,
510643,1564153255349,0,2.55,1.28,0.63,1.55,1.18,0.83,-0.85,0.62,26,-1,34,1.19,9532,52,108,43,56,1111,500.0,507,462,60,123.0,186,1,404,338,93,0,0,499,243,-3482,500,-5.59,44.681381,10.02471,48.7,173.3,0,0.0,-1,0.0,0.0,0,3.83,8.5107
510663,1564153255369,2,2.54,1.28,0.64,1.54,1.19,0.81,-0.88,0.64,25,-0,33,1.2,9689,52,108,43,57,1114,499.0,518,464,60,122.0,186,1,405,345,93,0,0,504,10432,-9212,499,-5.59,,,,,,,,,,,,
510683,1564153255389,1,2.53,1.28,0.63,1.54,1.19,0.81,-0.8,0.7,25,0,32,1.13,9750,53,108,43,57,1117,501.0,519,466,60,121.0,253,1,405,347,127,0,0,523,-16384,1248,501,-5.59,,,,,,,,,,,,
510703,1564153255409,0,2.53,1.27,0.63,1.54,1.19,0.74,-0.77,0.8,24,0,32,1.07,9821,53,108,43,57,1139,502.0,523,468,60,120.0,253,1,405,357,127,0,0,517,32033,-9212,503,-5.59,,,,,,,,,,,,
510723,1564153255429,1,2.52,1.27,0.64,1.53,1.19,0.73,-0.82,0.75,23,1,32,1.1,9863,53,108,43,57,1167,503.0,534,465,60,121.0,253,1,404,351,127,0,0,530,3576,-14,503,-5.59,,,,,,,,,,,,
510743,1564153255449,2,2.52,1.27,0.63,1.53,1.19,0.64,-0.74,0.68,22,0,32,0.98,9946,53,108,43,57,1195,503.0,535,463,60,121.0,253,1,404,361,127,0,0,532,-17956,2524,503,-5.59,44.681381,10.024727,48.87,173.3,0,0.0,-1,0.0,0.0,0,3.83,8.5124
510763,1564153255469,2,2.51,1.27,0.64,1.53,1.18,0.51,-0.73,0.58,22,0,31,0.89,9973,53,108,43,58,1222,505.0,530,467,60,122.0,253,1,405,362,127,0,0,520,2212,2524,505,-5.59,,,,,,,,,,,,
510783,1564153255489,1,2.52,1.27,0.64,1.52,1.19,0.5,-0.72,0.7,22,0,30,0.87,9946,53,108,43,58,1238,509.0,534,463,60,122.0,265,1,405,361,135,0,0,549,32033,14504,509,-5.59,,,,,,,,,,,,
510803,1564153255509,1,2.52,1.27,0.64,1.53,1.18,0.45,-0.64,0.63,22,-2,30,0.78,10026,53,108,43,58,1247,510.0,535,466,60,120.0,265,1,406,364,135,0,0,515,3580,14504,510,-5.59,,,,,,,,,,,,
510823,1564153255529,1,2.51,1.27,0.62,1.53,1.18,0.4,-0.7,0.6,21,-1,29,0.81,10005,53,108,43,58,1244,514.0,533,466,60,122.0,265,1,405,364,135,0,0,552,-6441,6274,514,-5.59,,,,,,,,,,,,
510843,1564153255549,-1,2.51,1.27,0.63,1.53,1.19,0.45,-0.65,0.55,21,-2,31,0.79,9989,53,108,43,58,1226,515.0,525,465,60,123.0,265,1,405,362,135,0,0,564,-6656,-2934,515,-5.59,44.681381,10.024744,49.51,173.3,0,0.0,-1,0.0,0.0,0,3.83,8.514
510863,1564153255569,2,2.51,1.28,0.62,1.54,1.19,0.41,-0.66,0.54,21,-2,31,0.78,10135,53,108,43,58,1200,519.0,536,466,60,121.0,265,1,411,365,135,0,0,529,998,-22519,519,-5.59,,,,,,,,,,,,
510883,1564153255589,2,2.51,1.27,0.62,1.54,1.18,0.37,-0.72,0.69,22,-0,29,0.81,10195,53,108,43,58,1165,523.0,539,461,60,122.0,268,1,411,365,140,0,0,525,3,1779,523,-5.59,,,,,,,,,,,,
510903,1564153255608,1,2.51,1.27,0.63,1.53,1.19,0.34,-0.81,0.81,23,2,28,0.88,10184,53,108,43,58,1137,527.0,546,464,60,122.0,268,1,413,366,140,0,0,558,-22519,14504,527,-5.59,,,,,,,,,,,,
510923,1564153255628,2,2.51,1.27,0.62,1.54,1.19,0.35,-0.81,0.82,23,4,27,0.88,10290,54,108,43,58,1121,529.0,544,467,60,121.0,268,1,418,279,140,0,0,553,-22519,-32248,529,-5.59,,,,,,,,,,,,
510943,1564153255648,-0,2.52,1.26,0.63,1.54,1.18,0.37,-0.72,0.81,22,4,29,0.81,10319,54,109,43,58,1103,533.0,543,461,60,122.0,268,1,420,369,140,0,0,548,10408,-9072,533,-5.59,44.681381,10.024762,50.81,173.4,0,0.0,-1,0.0,0.0,0,3.83,8.5157
510963,1564153255668,1,2.54,1.27,0.63,1.54,1.19,0.41,-0.68,0.71,22,4,29,0.79,10428,54,109,43,58,1083,533.0,546,461,60,121.0,268,1,425,371,140,0,0,536,-32248,-9072,533,-5.59,,,,,,,,,,,,
510983,1564153255688,1,2.54,1.27,0.62,1.54,1.19,0.49,-0.64,0.7,23,3,30,0.8,10353,54,109,43,58,1068,534.0,545,467,60,120.0,271,1,421,370,145,0,0,540,-3414,-18032,534,-5.59,,,,,,,,,,,,
511003,1564153255708,1,2.55,1.26,0.62,1.54,1.19,0.46,-0.66,0.68,23,2,30,0.8,10376,54,109,43,58,1066,537.0,539,466,60,121.0,271,1,422,370,145,0,0,578,-3414,-28648,539,-5.59,,,,,,,,,,,,
511023,1564153255728,0,2.55,1.27,0.62,1.54,1.19,0.54,-0.57,0.62,23,0,30,0.79,10382,54,109,43,58,1061,540.0,538,462,60,121.0,271,1,422,370,145,0,0,557,-3856,6273,540,-5.59,,,,,,,,,,,,
511043,1564153255748,-1,2.55,1.26,0.62,1.54,1.19,0.61,-0.55,0.5,23,-1,31,0.82,10492,54,109,43,58,1049,541.0,546,462,60,122.0,271,1,428,372,145,0,0,544,-3856,-30159,541,-5.59,44.681381,10.02478,51.45,173.3,0,0.0,-1,0.0,0.0,0,3.83,8.5174
511063,1564153255768,1,2.53,1.27,0.63,1.53,1.19,0.61,-0.53,0.36,23,-2,31,0.81,10469,54,109,43,59,1038,544.0,549,465,60,120.0,271,1,433,382,145,0,0,568,26178,-18032,544,-5.59,,,,,,,,,,,,
511083,1564153255788,-0,2.51,1.27,0.62,1.54,1.19,0.55,-0.51,0.24,23,-2,31,0.75,10581,54,109,43,59,1029,545.0,544,465,60,121.0,280,1,435,382,153,0,0,579,-14,2211,545,-5.59,,,,,,,,,,,,
511103,1564153255808,1,2.48,1.27,0.62,1.54,1.19,0.62,-0.42,0.19,22,-4,32,0.75,10629,55,109,43,59,1020,546.0,553,465,60,121.0,280,1,435,385,153,0,0,577,16383,30208,546,-5.59,,,,,,,,,,,,
511123,1564153255828,1,2.46,1.27,0.62,1.53,1.18,0.56,-0.33,0.12,23,-3,32,0.65,10788,55,109,43,59,1014,548.0,562,463,60,121.0,280,1,435,387,153,0,0,567,-9212,-2934,548,-5.59,,,,,,,,,,,,
511143,1564153255848,1,2.45,1.26,0.62,1.52,1.18,0.55,-0.48,0.23,22,-2,31,0.73,10769,55,109,43,59,1008,550.0,567,464,60,122.0,280,1,435,387,153,0,0,568,2088,1760,550,-5.59,44.681381,10.024798,52.99,173.3,0,0.0,-1,0.0,0.0,0,3.83,8.519
511163,1564153255868,2,2.46,1.25,0.62,1.52,1.19,0.66,-0.56,0.41,21,-0,28,0.86,10825,55,109,43,59,1011,554.0,567,462,60,121.0,280,1,435,397,153,0,0,596,-28648,10432,554,-5.59,,,,,,,,,,,,
511183,1564153255888,0,2.47,1.25,0.61,1.53,1.18,0.59,-0.55,0.43,20,0,27,0.81,10794,55,109,43,60,1012,552.0,570,465,60,121.0,293,1,442,396,163,0,0,577,2524,774,557,-5.59,,,,,,,,,,,,
511203,1564153255908,2,2.47,1.25,0.62,1.52,1.19,0.59,-0.39,0.34,19,-2,28,0.71,10794,55,109,43,60,1005,556.0,563,465,60,121.0,293,1,442,396,163,0,0,572,6274,-12040,556,-5.59,,,,,,,,,,,,
511223,1564153255928,1,2.49,1.25,0.61,1.52,1.18,0.56,-0.44,0.22,19,-1,27,0.72,10863,55,109,43,60,998,558.0,567,462,60,121.0,293,1,442,398,163,0,0,574,-30064,-16384,558,-5.59,,,,,,,,,,,,
511243,1564153255948,2,2.49,1.25,0.62,1.53,1.19,0.6,-0.6,0.4,19,-1,25,0.84,10800,55,109,43,60,987,559.0,575,466,60,121.0,293,1,442,397,163,0,0,576,-8186,3472,559,-5.59,44.681377,10.024817,53.82,173.3,0,0.0,-1,0.0,0.0,0,3.83,8.5207
511263,1564153255968,3,2.49,1.27,0.62,1.54,1.19,0.66,-0.62,0.56,18,-1,23,0.91,10844,55,109,43,60,977,562.0,575,466,60,121.0,293,1,442,397,163,0,0,584,-3082,-4035,562,-5.59,,,,,,,,,,,,
511283,1564153255988,1,2.49,1.26,0.62,1.54,1.18,0.61,-0.57,0.42,18,-2,23,0.83,10856,55,109,43,60,960,564.0,567,468,60,122.0,288,1,442,397,164,0,0,579,-506,3472,564,-5.59,,,,,,,,,,,,
511303,1564153256000,2,2.49,1.26,0.62,1.55,1.19,0.61,-0.44,0.32,18,-4,24,0.75,10856,55,109,43,60,942,567.0,575,465,60,120.0,288,1,442,398,164,0,0,588,14504,-25872,566,-5.59,,,,,,,,,,,,
511323,1564153256020,2,2.49,1.26,0.62,1.54,1.19,0.65,-0.56,0.48,18,-2,23,0.86,10984,56,109,43,60,934,569.0,586,461,60,122.0,288,1,442,400,164,0,0,595,2104,-12040,569,-5.59,,,,,,,,,,,,
511343,1564153256040,2,2.5,1.25,0.62,1.53,1.18,0.63,-0.49,0.47,18,-1,23,0.79,11101,56,109,43,60,928,572.0,591,465,60,121.0,288,1,441,401,164,0,0,581,-32248,3472,572,-5.59,44.681374,10.024836,55.11,173.3,0,0.0,-1,0.0,0.0,0,3.84,8.5224
511363,1564153256060,2,2.52,1.25,0.62,1.54,1.18,0.63,-0.58,0.38,18,-1,23,0.86,11120,56,109,43,60,916,573.0,590,466,60,120.0,288,1,441,404,164,0,0,601,6274,-13043,573,-5.59,,,,,,,,,,,,
511383,1564153256080,1,2.54,1.25,0.62,1.53,1.19,0.62,-0.51,0.43,18,-1,23,0.8,11234,56,109,43,60,905,578.0,595,468,60,121.0,300,1,439,405,172,0,0,600,6274,30227,578,-5.59,,,,,,,,,,,,
511403,1564153256108,2,2.55,1.26,0.62,1.54,1.19,0.59,-0.56,0.35,18,-0,23,0.81,11261,56,109,43,59,899,578.0,589,467,60,121.0,300,1,432,406,172,0,0,600,6274,-768,578,-5.59,,,,,,,,,,,,
511423,1564153256128,1,2.58,1.26,0.62,1.53,1.19,0.58,-0.61,0.49,18,-0,22,0.84,11241,56,109,43,59,894,579.0,590,466,60,121.0,300,1,432,395,172,0,0,603,2524,-7939,579,-5.59,,,,,,,,,,,,
511443,1564153256148,2,2.58,1.27,0.62,1.54,1.19,0.62,-0.69,0.39,19,-1,22,0.93,11214,56,109,43,59,885,580.0,588,463,60,121.0,300,1,432,395,172,0,0,594,-28648,-30139,581,-5.59,44.68137,10.024854,56.1,173.3,0,0.0,-1,0.0,0.0,0,3.84,8.524
511463,1564153256168,2,2.58,1.26,0.62,1.54,1.2,0.68,-0.64,0.54,19,-2,23,0.94,11281,56,109,43,59,874,583.0,587,463,60,121.0,300,1,432,396,172,0,0,610,-22263,-3210,583,-5.59,,,,,,,,,,,,
511483,1564153256188,2,2.58,1.27,0.62,1.55,1.2,0.69,-0.74,0.53,19,-0,23,1.01,11336,56,109,43,59,867,584.0,603,462,60,120.0,290,1,431,397,170,0,0,610,2524,1010,586,-5.59,,,,,,,,,,,,
511503,1564153256210,1,2.58,1.27,0.62,1.54,1.19,0.61,-0.65,0.56,20,-0,25,0.89,11336,56,109,43,59,861,588.0,600,470,60,121.0,290,1,431,397,170,0,0,614,-22359,-3820,588,-5.59,,,,,,,,,,,,
511523,1564153256230,-0,2.57,1.26,0.63,1.54,1.19,0.63,-0.74,0.66,20,-0,24,0.97,11425,56,109,43,59,855,588.0,603,467,60,121.0,290,1,430,398,170,0,0,610,-32504,-30139,587,-5.59,,,,,,,,,,,,
511543,1564153256250,1,2.56,1.26,0.63,1.54,1.19,0.6,-0.77,0.5,21,-0,24,0.97,11488,56,109,43,59,848,589.0,616,470,60,120.0,290,1,429,399,170,0,0,610,-28648,3403,589,-5.59,44.681362,10.024872,57.1,173.3,0,0.0,-1,0.0,0.0,0,3.84,8.5257
511563,1564153256270,2,2.57,1.26,0.62,1.53,1.19,0.65,-0.75,0.65,21,-1,25,0.99,11566,56,109,43,58,843,594.0,606,470,60,121.0,290,1,422,391,170,0,0,630,-28648,26688,594,-5.59,,,,,,,,,,,,
511583,1564153256290,2,2.59,1.26,0.62,1.54,1.19,0.64,-0.77,0.73,21,1,24,1.0,11617,56,109,43,58,842,593.0,596,470,60,121.0,287,1,422,391,172,0,0,633,2211,-16883,593,-5.59,,,,,,,,,,,,
511603,1564153256310,3,2.61,1.26,0.62,1.54,1.19,0.7,-0.83,0.82,21,2,24,1.08,11660,56,109,43,58,837,596.0,602,466,60,121.0,287,1,422,391,172,0,0,621,-28648,966,596,-5.59,,,,,,,,,,,,
511623,1564153256330,3,2.63,1.26,0.62,1.55,1.19,0.67,-0.85,0.54,22,0,25,1.09,11609,56,109,43,58,832,596.0,610,467,60,121.0,287,1,422,391,172,0,0,620,2211,3395,596,-5.59,,,,,,,,,,,,
511643,1564153256350,2,2.65,1.26,0.62,1.56,1.19,0.64,-0.84,0.6,22,1,25,1.06,11609,56,109,43,58,828,596.0,613,465,60,121.0,287,1,422,391,172,0,0,617,-28648,506,596,-5.59,44.681358,10.024891,58.13,173.3,0,0.0,-1,0.0,0.0,0,3.84,8.5274
511663,1564153256370,0,2.65,1.27,0.62,1.54,1.19,0.6,-0.96,0.7,23,2,24,1.13,11531,57,109,43,58,824,598.0,608,466,60,120.0,287,1,422,391,172,0,0,625,-18032,17336,597,-5.59,,,,,,,,,,,,
511683,1564153256390,3,2.65,1.27,0.62,1.55,1.2,0.61,-1.05,0.62,23,-0,25,1.21,11524,57,109,43,58,817,597.0,605,463,60,122.0,285,1,422,391,171,0,0,624,-28648,-16046,597,-5.59,,,,,,,,,,,,
511703,1564153256410,1,2.63,1.27,0.62,1.54,1.2,0.69,-0.91,0.52,23,-3,28,1.14,11566,57,109,43,58,805,599.0,608,466,60,121.0,285,1,422,391,171,0,0,618,-23623,3395,597,-5.59,,,,,,,,,,,,
511723,1564153256430,1,2.62,1.26,0.62,1.55,1.19,0.78,-0.94,0.56,23,-3,28,1.22,11588,57,109,43,58,796,597.0,602,466,60,122.0,285,1,422,391,171,0,0,619,2211,19320,597,-5.59,,,,,,,,,,,,
511743,1564153256450,1,2.59,1.26,0.62,1.54,1.2,0.86,-1.03,0.71,24,-2,27,1.34,11682,57,109,43,58,788,599.0,605,468,60,121.0,285,1,422,391,171,0,0,617,-23623,-16883,599,-5.59,44.681351,10.02491,58.65,173.3,0,0.0,-1,0.0,0.0,0,3.84,8.529
511763,1564153256470,4,2.55,1.27,0.62,1.55,1.19,0.75,-1.03,0.59,24,-1,29,1.28,11696,57,109,43,58,778,599.0,602,463,60,121.0,285,1,422,391,171,0,0,640,-2934,19320,601,-5.59,,,,,,,,,,,,
511783,1564153256490,3,2.53,1.26,0.62,1.54,1.19,0.66,-0.92,0.49,25,-1,30,1.13,11792,57,109,43,58,767,601.0,604,470,60,121.0,286,1,422,391,173,0,0,636,-8188,19320,601,-5.59,,,,,,,,,,,,
511803,1564153256510,3,2.53,1.26,0.62,1.54,1.2,0.59,-0.86,0.46,26,-1,32,1.04,11792,57,109,43,58,757,604.0,602,469,60,121.0,286,1,422,392,173,0,0,631,-2934,771,604,-5.59,,,,,,,,,,,,
511823,1564153256530,2,2.52,1.26,0.62,1.54,1.2,0.56,-0.85,0.53,26,1,32,1.02,11814,57,109,43,58,754,606.0,619,467,60,121.0,286,1,422,392,173,0,0,624,1267,3,603,-5.59,,,,,,,,,,,,
511843,1564153256550,2,2.53,1.26,0.62,1.54,1.2,0.54,-0.85,0.62,26,2,32,1.01,11785,57,109,43,58,751,607.0,645,471,60,120.0,286,1,422,392,173,0,0,625,-3190,17336,607,-5.59,44.681343,10.024927,58.93,173.3,0,0.0,-1,0.0,0.0,0,3.84,8.5307
511863,1564153256570,1,2.53,1.26,0.62,1.54,1.2,0.56,-0.93,0.7,26,2,32,1.08,11711,57,109,43,58,748,609.0,609,470,60,122.0,286,1,422,391,173,0,0,627,1267,-16046,609,-5.59,,,,,,,,,,,,
511883,1564153256590,2,2.54,1.26,0.62,1.54,1.19,0.66,-1.03,0.83,26,3,31,1.23,11711,57,109,43,58,746,608.0,601,471,60,121.0,284,1,422,392,173,0,0,624,-3210,771,612,-5.59,,,,,,,,,,,,
511903,1564153256609,4,2.55,1.27,0.62,1.56,1.19,0.67,-1.08,0.69,26,2,31,1.27,11726,57,109,43,58,747,608.0,601,467,60,120.0,284,1,422,391,173,0,0,630,30208,-16046,611,-5.59,,,,,,,,,,,,
511923,1564153256629,2,2.57,1.26,0.62,1.55,1.19,0.66,-1.03,0.52,24,0,31,1.23,11682,57,109,43,58,747,607.0,581,473,60,121.0,284,1,422,391,173,0,0,618,1,-2580,607,-5.59,,,,,,,,,,,,
511943,1564153256649,1,2.57,1.26,0.62,1.55,1.19,0.7,-0.97,0.66,23,-0,31,1.2,11696,57,109,43,58,747,607.0,598,467,60,121.0,284,1,422,391,173,0,0,631,30208,-1346,606,-5.59,44.681335,10.024944,58.65,173.3,0,0.0,-1,0.0,0.0,0,3.85,8.5324
511963,1564153256669,2,2.57,1.27,0.62,1.54,1.19,0.74,-1.03,0.75,23,1,29,1.27,11645,57,109,43,58,748,611.0,588,466,60,121.0,284,1,422,391,173,0,0,620,-16384,-4876,607,-5.59,,,,,,,,,,,,
511983,1564153256689,1,2.58,1.26,0.62,1.55,1.19,0.79,-1.05,0.88,22,2,28,1.31,11718,57,109,43,58,748,612.0,585,470,60,121.0,285,1,422,391,173,0,0,627,-16384,244,612,-5.59,,,,,,,,,,,,
512003,1564153256709,3,2.57,1.26,0.61,1.55,1.19,0.78,-1.01,0.65,22,0,28,1.28,11822,57,109,43,58,748,608.0,601,467,60,120.0,285,1,422,392,173,0,0,628,8488,20993,608,-5.59,,,,,,,,,,,,
512023,1564153256729,3,2.56,1.26,0.62,1.54,1.19,0.77,-0.99,0.41,21,-1,28,1.25,11822,57,109,43,58,749,608.0,613,465,60,121.0,285,1,422,392,173,0,0,639,-16384,-5120,611,-5.59,,,,,,,,,,,,
512043,1564153256749,2,2.55,1.26,0.61,1.54,1.2,0.67,-0.91,0.25,21,-1,29,1.13,11912,57,109,43,58,751,611.0,596,468,60,121.0,285,1,422,393,173,0,0,634,10432,-10251,611,-5.59,44.681324,10.024961,59.22,173.2,0,0.0,-1,0.0,0.0,0,3.85,8.534
512063,1564153256769,3,2.53,1.27,0.62,1.55,1.19,0.6,-0.82,0.17,22,-1,29,1.01,11897,57,109,43,58,752,612.0,606,465,60,121.0,285,1,422,393,173,0,0,625,8488,-16046,612,-5.59,,,,,,,,,,,,
512083,1564153256789,2,2.53,1.26,0.62,1.54,1.2,0.54,-0.8,0.27,23,-1,29,0.96,11822,57,109,43,58,753,617.0,612,466,60,121.0,284,1,422,401,175,0,0,637,10432,-2580,617,-5.59,,,,,,,,,,,,
512103,1564153256809,1,2.52,1.26,0.62,1.54,1.2,0.57,-0.92,0.33,23,0,28,1.08,11704,57,109,43,59,756,616.0,610,462,60,121.0,284,1,428,401,175,0,0,636,-4035,-4876,615,-5.59,,,,,,,,,,,,
512123,1564153256829,2,2.54,1.26,0.62,1.55,1.19,0.68,-1.02,0.5,22,0,27,1.23,11581,57,109,43,60,758,615.0,598,463,60,120.0,284,1,434,411,175,0,0,618,15649,-4876,615,-5.59,,,,,,,,,,,,
512143,1564153256849,2,2.53,1.26,0.62,1.54,1.19,0.68,-0.88,0.24,22,-2,30,1.11,11524,57,109,43,60,759,612.0,583,463,60,121.0,284,1,434,411,175,0,0,614,-4035,-4876,612,-5.59,44.681316,10.024976,59.42,173.2,0,0.0,-1,0.0,0.0,0,3.85,8.5357
512163,1564153256869,3,2.54,1.26,0.61,1.55,1.2,0.73,-0.81,0.4,22,-3,31,1.09,11574,58,109,43,60,760,614.0,603,466,60,121.0,284,1,434,411,175,0,0,604,-1894,6208,615,-5.59,,,,,,,,,,,,
512183,1564153256889,1,2.55,1.27,0.62,1.55,1.2,0.82,-0.85,0.49,23,-2,31,1.19,11726,58,109,43,59,763,615.0,597,464,60,120.0,287,1,428,401,177,0,0,607,-1894,-2580,615,-5.59,,,,,,,,,,,,
512203,1564153256909,1,2.55,1.26,0.62,1.55,1.2,0.89,-0.9,0.63,23,0,30,1.27,11829,58,109,43,59,765,615.0,612,462,60,121.0,287,1,428,401,177,0,0,623,15649,-2580,615,-5.59,,,,,,,,,,,,
512223,1564153256929,1,2.56,1.26,0.62,1.55,1.19,0.96,-1.01,0.77,22,2,29,1.39,11919,58,109,43,59,767,615.0,600,465,60,121.0,287,1,428,402,177,0,0,640,15649,3,615,-5.59,,,,,,,,,,,,
512243,1564153256949,1,2.56,1.26,0.62,1.54,1.19,0.97,-1.06,0.86,23,3,28,1.44,11942,58,109,43,59,768,616.0,600,466,60,120.0,287,1,428,402,177,0,0,638,8488,-4876,614,-5.59,44.681305,10.02499,60.42,173.2,0,0.0,-1,0.0,0.0,0,3.85,8.5374
512263,1564153256969,1,2.56,1.26,0.61,1.55,1.2,0.99,-1.15,0.89,24,5,26,1.52,11965,58,109,43,59,764,615.0,610,466,60,121.0,287,1,428,402,177,0,0,626,-1894,-10251,615,-5.59,,,,,,,,,,,,
512283,1564153256989,3,2.56,1.25,0.62,1.55,1.2,0.95,-1.21,0.83,24,5,25,1.54,11957,58,109,43,59,760,617.0,611,467,60,121.0,296,1,428,402,182,0,0,640,15649,-2580,617,-5.59,,,,,,,,,,,,
512303,1564153257001,4,2.56,1.25,0.62,1.55,1.19,0.95,-1.22,0.83,24,6,25,1.55,11912,58,109,43,58,754,617.0,619,467,60,121.0,296,1,422,393,182,0,0,638,-12040,6208,619,-5.59,,,,,,,,,,,,
512323,1564153257021,4,2.56,1.26,0.62,1.55,1.2,0.86,-1.25,0.81,24,6,26,1.52,11965,58,109,43,58,749,618.0,617,466,60,122.0,296,1,422,393,182,0,0,643,15649,6208,620,-5.59,,,,,,,,,,,,
512343,1564153257041,3,2.56,1.26,0.62,1.54,1.2,0.87,-1.23,0.74,24,6,26,1.5,11973,58,109,43,58,744,618.0,629,466,60,123.0,296,1,422,394,182,0,0,628,-1894,479,618,-5.59,44.681294,10.025005,60.74,173.2,0,0.0,-1,0.0,0.0,0,3.85,8.5391
512363,1564153257061,-4,2.56,1.26,0.61,1.55,1.19,0.86,-1.27,0.78,24,7,26,1.53,11942,58,109,43,58,739,620.0,629,470,60,121.0,296,1,422,393,182,0,0,641,-1894,-10251,620,-5.59,,,,,,,,,,,,
512383,1564153257081,2,2.56,1.25,0.61,1.55,1.2,0.88,-1.33,0.79,24,7,25,1.59,11942,58,109,43,59,737,618.0,635,465,60,122.0,297,1,428,402,183,0,0,653,2048,3,618,-5.59,,,,,,,,,,,,
512403,1564153257107,4,2.56,1.25,0.61,1.55,1.2,0.85,-1.4,0.72,24,7,25,1.64,11988,58,109,43,58,737,621.0,630,466,60,121.0,297,1,422,393,183,0,0,633,2048,-4876,620,-5.59,,,,,,,,,,,,
512423,1564153257127,3,2.57,1.26,0.62,1.54,1.2,0.83,-1.45,0.67,24,7,25,1.67,11980,58,109,43,58,738,622.0,641,468,60,121.0,297,1,422,393,183,0,0,653,208,-10251,620,-5.59,,,,,,,,,,,,
512443,1564153257147,4,2.57,1.25,0.62,1.55,1.2,0.8,-1.45,0.65,24,7,25,1.66,11980,58,109,43,58,740,621.0,638,470,60,121.0,297,1,422,393,183,0,0,637,-12040,11566,621,-5.59,44.681282,10.025018,60.87,173.2,0,0.0,-1,0.0,0.0,0,3.85,8.5407
512463,1564153257167,-0,2.57,1.26,0.61,1.55,1.2,0.78,-1.5,0.63,24,8,25,1.69,12073,58,109,43,58,742,618.0,626,465,60,121.0,297,1,422,394,183,0,0,648,2048,-2580,618,-5.59,,,,,,,,,,,,
512483,1564153257187,0,2.57,1.25,0.62,1.54,1.2,0.88,-1.52,0.68,24,8,25,1.76,12104,59,109,43,59,744,622.0,629,467,60,120.0,289,1,428,402,180,0,0,639,-13043,-8429,622,-5.59,,,,,,,,,,,,
512503,1564153257207,1,2.57,1.26,0.61,1.54,1.2,0.96,-1.54,0.81,24,8,24,1.82,12065,59,109,43,59,745,624.0,623,464,60,121.0,289,1,428,404,180,0,0,643,3472,11566,620,-5.59,,,,,,,,,,,,
512523,1564153257227,2,2.59,1.26,0.62,1.55,1.2,0.99,-1.49,0.92,24,9,23,1.79,12065,59,109,43,59,746,623.0,617,469,60,121.0,289,1,428,402,180,0,0,648,-13043,4909,623,-5.59,,,,,,,,,,,,
512543,1564153257247,1,2.61,1.25,0.62,1.55,1.2,1.01,-1.45,1.03,24,10,24,1.77,12057,60,109,43,59,747,625.0,610,468,60,122.0,289,1,428,402,180,0,0,653,6273,16599,625,-5.59,44.681271,10.025029,61.29,173.3,0,0.0,-1,0.0,0.0,0,3.86,8.5424
512563,1564153257267,3,2.62,1.25,0.62,1.54,1.19,1.02,-1.43,1.12,25,9,24,1.76,12135,60,109,43,59,746,624.0,617,467,60,121.0,289,1,428,402,180,0,0,639,-13043,-8429,624,-5.59,,,,,,,,,,,,
512583,1564153257287,3,2.64,1.25,0.62,1.55,1.2,1.0,-1.4,1.17,25,10,25,1.72,12183,60,109,43,59,745,623.0,626,470,60,121.0,299,1,428,404,186,0,0,638,3472,-2830,623,-5.59,,,,,,,,,,,,
512603,1564153257307,2,2.64,1.25,0.62,1.55,1.2,0.92,-1.28,1.15,26,9,27,1.57,12199,60,109,43,59,744,625.0,630,466,60,120.0,299,1,428,404,186,0,0,665,-13043,31988,624,-5.59,,,,,,,,,,,,
512623,1564153257327,2,2.65,1.25,0.62,1.55,1.21,0.9,-1.13,1.12,26,7,30,1.44,12183,60,109,43,59,743,626.0,616,465,60,122.0,299,1,428,404,186,0,0,661,6273,-6006,627,-5.59,,,,,,,,,,,,
512643,1564153257347,3,2.65,1.26,0.61,1.56,1.2,0.95,-0.99,0.86,25,3,32,1.38,12238,60,109,43,59,742,625.0,605,463,60,121.0,299,1,428,404,186,0,0,647,208,2024,625,-5.59,44.681255,10.02504,61.04,173.3,0,0.0,-1,0.0,0.0,0,3.86,8.5441
512663,1564153257367,3,2.65,1.26,0.62,1.55,1.2,0.92,-0.99,0.77,26,1,34,1.35,12278,60,109,43,59,741,622.0,618,463,60,122.0,299,1,428,404,186,0,0,649,2048,-6006,622,-5.59,,,,,,,,,,,,
512683,1564153257387,1,2.66,1.26,0.61,1.56,1.2,1.01,-1.04,0.85,27,0,33,1.45,12230,60,109,43,59,741,625.0,622,464,60,121.0,299,1,428,404,187,0,0,650,3472,-6006,625,-5.59,,,,,,,,,,,,
512703,1564153257409,1,2.66,1.25,0.61,1.55,1.2,1.01,-1.14,0.96,28,0,32,1.52,12191,60,109,43,59,741,625.0,626,463,60,121.0,299,1,428,404,187,0,0,665,-28648,-3038,626,-5.59,,,,,,,,,,,,
512723,1564153257429,3,2.67,1.25,0.62,1.56,1.2,0.97,-1.22,0.94,27,1,33,1.56,12191,60,109,43,59,742,627.0,631,462,60,123.0,299,1,428,404,187,0,0,674,-28648,-6006,624,-5.59,,,,,,,,,,,,
512743,1564153257449,3,2.68,1.24,0.62,1.55,1.2,0.99,-1.23,0.86,27,-0,34,1.58,12287,60,109,43,59,742,626.0,626,463,60,121.0,299,1,428,404,187,0,0,682,6273,-10348,626,-5.59,44.681244,10.025049,62.3,173.3,0,0.0,-1,0.0,0.0,0,3.86,8.5457
512763,1564153257469,4,2.69,1.25,0.61,1.55,1.19,0.91,-1.26,0.71,28,-1,33,1.55,12368,60,109,43,60,742,621.0,635,459,60,121.0,299,1,434,412,187,0,0,635,208,-2830,621,-5.59,,,,,,,,,,,,
512783,1564153257489,2,2.7,1.25,0.61,1.54,1.2,0.98,-1.26,0.71,28,0,32,1.59,12351,60,109,43,59,741,622.0,616,463,60,122.0,302,1,428,404,189,0,0,653,6273,-3488,622,-5.59,,,,,,,,,,,,
512803,1564153257509,2,2.7,1.25,0.61,1.55,1.2,0.91,-1.19,0.8,28,1,32,1.49,12376,60,109,43,59,740,627.0,611,467,60,121.0,302,1,428,404,189,0,0,687,208,-26380,625,-5.59,,,,,,,,,,,,
512823,1564153257529,3,2.71,1.25,0.61,1.54,1.19,0.9,-1.15,0.73,27,1,32,1.46,12384,61,109,43,59,739,624.0,631,467,60,121.0,302,1,428,404,189,0,0,690,-32504,-3578,625,-5.59,,,,,,,,,,,,
512843,1564153257549,4,2.72,1.26,0.62,1.55,1.21,0.84,-1.23,0.71,26,2,32,1.49,12433,61,109,43,59,739,625.0,620,470,60,120.0,302,1,428,405,189,0,0,663,208,-30207,623,-5.59,44.681229,10.025058,61.97,173.3,0,0.0,-1,0.0,0.0,0,3.86,8.5474
512863,1564153257569,2,2.71,1.26,0.62,1.56,1.2,0.92,-1.3,0.81,27,3,31,1.59,12409,61,109,43,59,738,623.0,624,471,60,122.0,302,1,428,405,189,0,0,641,2048,8958,623,-5.59,,,,,,,,,,,,
512883,1564153257589,2,2.71,1.25,0.62,1.55,1.2,0.86,-1.23,0.71,28,2,32,1.5,12392,61,109,43,59,738,624.0,650,473,60,120.0,304,1,428,404,190,0,0,665,2048,-2830,624,-5.59,,,,,,,,,,,,
512903,1564153257608,3,2.72,1.25,0.61,1.55,1.2,0.82,-1.14,0.68,28,3,33,1.41,12343,61,109,42,59,738,626.0,638,474,60,122.0,304,1,428,404,190,0,0,684,-25872,-2345,626,-5.59,,,,,,,,,,,,
512923,1564153257628,2,2.71,1.25,0.62,1.54,1.2,0.84,-1.14,0.66,27,2,33,1.42,12287,61,109,42,60,739,623.0,633,471,60,122.0,304,1,434,412,190,0,0,668,-25872,8958,622,-5.59,,,,,,,,,,,,
512943,1564153257648,0,2.73,1.25,0.62,1.54,1.2,0.93,-1.22,0.75,27,4,32,1.53,12287,61,109,42,60,741,620.0,626,470,60,122.0,304,1,434,412,190,0,0,652,15649,-3578,622,-5.59,44.681213,10.025064,62.45,173.4,0,0.0,-1,0.0,0.0,0,3.86,8.5491
512963,1564153257668,2,2.72,1.26,0.62,1.55,1.2,0.9,-1.16,0.75,27,4,32,1.47,12368,61,109,42,60,742,619.0,625,469,60,121.0,304,1,434,412,190,0,0,646,-25872,-10344,619,-5.59,,,,,,,,,,,,
512983,1564153257688,2,2.71,1.25,0.61,1.54,1.21,0.9,-1.04,0.74,27,3,33,1.38,12343,61,109,42,60,743,620.0,633,471,60,121.0,309,1,434,412,192,0,0,667,2048,-10348,620,-5.59,,,,,,,,,,,,
513003,1564153257708,3,2.7,1.25,0.62,1.55,1.2,0.92,-1.0,0.6,27,1,34,1.36,12359,61,109,42,60,747,623.0,630,468,60,121.0,309,1,434,412,192,0,0,679,-32504,1549,623,-5.59,,,,,,,,,,,,
513023,1564153257728,2,2.69,1.25,0.61,1.55,1.2,0.95,-1.06,0.61,27,0,34,1.42,12368,61,109,42,60,751,625.0,627,463,60,122.0,309,1,434,413,192,0,0,676,-32504,-388,622,-5.59,,,,,,,,,,,,
513043,1564153257748,3,2.69,1.26,0.62,1.56,1.2,0.93,-1.15,0.74,27,2,33,1.48,12425,61,109,42,60,753,625.0,647,463,60,122.0,309,1,434,413,192,0,0,653,-32504,8958,625,-5.59,44.681198,10.025069,62.59,173.4,0,0.0,-1,0.0,0.0,0,3.86,8.5507
513063,1564153257768,3,2.7,1.25,0.62,1.56,1.2,0.97,-1.21,0.65,27,1,33,1.55,12425,61,109,42,60,756,625.0,642,463,60,121.0,309,1,434,413,192,0,0,645,208,-27404,625,-5.59,,,,,,,,,,,,
513083,1564153257788,5,2.7,1.25,0.61,1.55,1.2,0.92,-1.21,0.54,28,0,33,1.52,12384,61,109,43,60,756,623.0,635,460,60,123.0,308,1,434,412,193,0,0,666,2048,1549,623,-5.59,,,,,,,,,,,,
513103,1564153257808,1,2.71,1.25,0.62,1.55,1.21,1.01,-1.2,0.6,27,1,32,1.57,12359,61,109,42,60,757,625.0,625,467,60,123.0,308,1,434,412,193,0,0,681,2048,-388,625,-5.59,,,,,,,,,,,,
513123,1564153257828,3,2.71,1.25,0.62,1.55,1.2,0.97,-1.22,0.59,26,2,32,1.56,12417,61,109,42,60,755,627.0,613,464,60,122.0,308,1,434,413,193,0,0,650,2048,-27404,626,-5.59,,,,,,,,,,,,
513143,1564153257848,3,2.71,1.26,0.62,1.56,1.21,1.01,-1.19,0.52,25,1,31,1.56,12433,61,109,42,60,753,625.0,618,467,60,122.0,308,1,434,413,193,0,0,659,-28648,-2345,625,-5.59,44.681183,10.025073,62.59,173.4,0,0.0,-1,0.0,0.0,0,3.87,8.5524
513163,1564153257868,6,2.71,1.25,0.62,1.54,1.21,1.04,-1.23,0.5,24,1,31,1.61,12417,61,109,42,60,749,628.0,596,471,60,122.0,308,1,434,413,193,0,0,666,-32504,3543,625,-5.59,,,,,,,,,,,,
513183,1564153257888,1,2.71,1.25,0.62,1.54,1.2,1.14,-1.3,0.62,24,2,30,1.73,12327,61,109,42,60,745,624.0,586,472,60,120.0,309,1,434,412,194,0,0,671,6273,-10344,624,-5.59,,,,,,,,,,,,
513203,1564153257904,2,2.71,1.25,0.62,1.54,1.2,1.03,-1.31,0.54,25,2,30,1.67,12343,62,109,42,60,743,627.0,625,473,60,120.0,309,1,434,412,194,0,0,659,3472,-27404,627,-5.59,,,,,,,,,,,,
513223,1564153257924,2,2.71,1.25,0.62,1.56,1.21,0.91,-1.27,0.53,24,3,29,1.56,12368,62,109,42,60,740,628.0,615,472,60,122.0,309,1,434,412,194,0,0,657,-13043,-2826,627,-5.59,,,,,,,,,,,,
513243,1564153257944,2,2.71,1.26,0.62,1.56,1.21,0.82,-1.34,0.64,25,5,29,1.57,12368,62,109,42,60,739,628.0,588,472,60,121.0,309,1,434,412,194,0,0,668,-13043,-2826,627,-5.59,44.681168,10.025075,62.51,173.4,0,0.0,-1,0.0,0.0,0,3.87,8.5541
513263,1564153257964,1,2.72,1.26,0.62,1.55,1.21,0.89,-1.27,0.73,26,4,29,1.55,12425,62,109,42,60,739,628.0,622,470,60,121.0,309,1,434,412,194,0,0,655,3472,1549,626,-5.59,,,,,,,,,,,,
513283,1564153257984,1,2.73,1.25,0.62,1.55,1.21,0.95,-1.2,0.74,26,2,31,1.53,12417,62,109,42,60,738,627.0,527,468,60,122.0,310,1,434,413,194,0,0,663,-13043,-3578,627,-5.59,,,,,,,,,,,,
513303,1564153257998,3,2.72,1.26,0.62,1.55,1.21,1.0,-1.05,0.55,25,1,34,1.45,12368,62,108,42,61,740,627.0,505,466,60,123.0,310,1,440,421,194,0,0,668,-32504,3543,627,-5.59,,,,,,,,,,,,
513323,1564153258018,2,2.72,1.25,0.62,1.56,1.21,0.99,-1.14,0.58,26,-0,34,1.51,12441,62,108,42,60,741,628.0,565,463,60,122.0,310,1,434,413,194,0,0,658,-13043,-2830,628,-5.59,,,,,,,,,,,,
513343,1564153258038,2,2.74,1.25,0.63,1.55,1.22,1.01,-1.22,0.62,26,-1,34,1.59,12400,62,108,42,61,742,630.0,582,462,60,121.0,310,1,440,421,194,0,0,652,23619,-26380,630,-5.59,44.681152,10.025075,63.05,173.5,0,0.0,-1,0.0,0.0,0,3.87,8.5557
513363,1564153258058,4,2.75,1.25,0.62,1.55,1.21,1.04,-1.29,0.61,26,-2,33,1.66,12417,62,108,42,61,742,628.0,562,465,60,122.0,310,1,440,421,194,0,0,674,17344,3543,628,-5.59,,,,,,,,,,,,
513383,1564153258078,1,2.75,1.25,0.62,1.55,1.22,1.03,-1.27,0.45,26,-3,33,1.63,12450,62,108,42,60,741,627.0,585,463,60,122.0,310,1,434,413,195,0,0,679,6273,-3578,626,-5.59,,,,,,,,,,,,
513403,1564153258108,2,2.75,1.25,0.62,1.54,1.22,0.93,-1.28,0.61,26,0,32,1.58,12483,62,108,42,61,741,629.0,610,465,60,122.0,310,1,440,421,195,0,0,663,2048,-2826,629,-5.59,,,,,,,,,,,,
513423,1564153258128,3,2.76,1.25,0.62,1.55,1.22,0.98,-1.2,0.52,26,-0,31,1.55,12533,62,108,42,61,740,627.0,610,465,60,122.0,310,1,440,421,195,0,0,667,-16179,-10348,627,-5.59,,,,,,,,,,,,
513443,1564153258148,0,2.77,1.25,0.62,1.55,1.21,1.0,-1.21,0.56,25,0,31,1.57,12516,62,108,42,60,739,628.0,602,467,60,122.0,310,1,434,413,195,0,0,672,-13043,-10344,628,-5.59,44.681137,10.025074,62.72,173.5,0,0.0,-1,0.0,0.0,0,3.87,8.5574
513463,1564153258168,2,2.78,1.24,0.62,1.55,1.21,1.06,-1.28,0.57,25,1,30,1.66,12516,62,108,42,61,738,627.0,610,469,60,121.0,310,1,440,421,195,0,0,678,-13043,-2830,627,-5.59,,,,,,,,,,,,
513483,1564153258188,2,2.79,1.25,0.63,1.55,1.21,0.9,-1.23,0.54,25,3,31,1.52,12516,62,108,42,61,739,626.0,614,467,60,120.0,318,1,440,421,200,0,0,667,6273,-2345,629,-5.59,,,,,,,,,,,,
513503,1564153258208,0,2.79,1.26,0.62,1.55,1.22,0.9,-1.3,0.64,26,3,29,1.58,12475,62,108,42,61,741,628.0,623,474,60,120.0,318,1,440,421,200,0,0,668,208,31988,625,-5.59,,,,,,,,,,,,
513523,1564153258228,1,2.78,1.25,0.63,1.54,1.22,0.97,-1.21,0.75,26,5,29,1.55,12533,62,108,42,61,743,626.0,641,471,60,121.0,318,1,440,421,200,0,0,679,17344,3543,628,-5.59,,,,,,,,,,,,
513543,1564153258248,2,2.8,1.25,0.62,1.54,1.22,1.06,-1.07,0.66,26,2,32,1.5,12533,62,108,42,61,746,628.0,629,466,60,121.0,318,1,440,421,200,0,0,681,17344,-388,628,-5.59,44.681122,10.02507,63.04,173.5,0,0.0,-1,0.0,0.0,0,3.87,8.559
513563,1564153258268,1,2.82,1.25,0.62,1.55,1.22,1.04,-1.05,0.62,26,1,34,1.48,12508,61,108,42,61,748,631.0,618,462,60,122.0,318,1,440,421,200,0,0,673,3472,8958,631,-5.59,,,,,,,,,,,,
513583,1564153258288,0,2.83,1.25,0.63,1.54,1.22,0.99,-1.15,0.76,25,-0,32,1.52,12508,61,108,42,61,748,625.0,626,462,60,122.0,318,1,440,421,200,0,0,649,6273,-3038,625,-5.59,,,,,,,,,,,,
513603,1564153258308,3,2.84,1.24,0.63,1.55,1.22,1.0,-1.21,0.77,26,-1,31,1.56,12409,57,108,42,60,747,625.0,631,458,60,121.0,318,1,434,413,200,0,0,656,-1894,3543,625,-5.59,,,,,,,,,,,,
513623,1564153258328,4,2.85,1.25,0.62,1.55,1.22,0.95,-1.2,0.6,26,-3,31,1.53,12368,55,108,42,59,745,619.0,618,462,60,121.0,318,1,428,404,200,0,0,665,-32504,1549,620,-5.59,,,,,,,,,,,,
513643,1564153258348,1,2.84,1.25,0.63,1.56,1.22,1.0,-1.19,0.45,25,-4,32,1.56,12262,49,108,42,57,743,619.0,605,458,60,123.0,318,1,417,386,200,0,0,691,2048,-2826,619,-5.59,44.681103,10.025066,63.49,173.6,0,0.0,-1,0.0,0.0,0,3.87,8.5607
513663,1564153258368,1,2.83,1.25,0.63,1.55,1.23,0.99,-1.18,0.48,25,-5,33,1.54,12262,49,108,42,56,741,616.0,620,461,60,122.0,318,1,411,378,200,0,0,660,208,-10348,616,-5.59,,,,,,,,,,,,
513683,1564153258388,2,2.78,1.25,0.63,1.55,1.22,0.98,-1.16,0.6,25,-3,33,1.52,12238,49,108,42,55,739,618.0,602,466,60,122.0,276,1,405,369,171,0,0,671,2048,-3488,618,-5.59,,,,,,,,,,,,
513703,1564153258408,-0,2.74,1.25,0.63,1.55,1.22,0.96,-1.08,0.61,25,-0,33,1.45,12167,49,108,42,55,740,621.0,596,471,60,122.0,276,1,405,368,171,0,0,651,-12040,-26380,621,-5.59,,,,,,,,,,,,
513723,1564153258428,1,2.72,1.25,0.63,1.55,1.22,0.97,-1.05,0.68,25,2,32,1.43,11980,49,108,42,55,741,627.0,617,470,60,122.0,276,1,405,366,171,0,0,648,3472,-2826,626,-5.59,,,,,,,,,,,,
513743,1564153258448,1,2.7,1.25,0.63,1.55,1.22,1.05,-1.1,0.74,26,3,30,1.52,11829,49,108,42,55,743,628.0,584,470,60,121.0,276,1,405,365,171,0,0,628,3472,-6006,628,-5.59,44.681088,10.02506,63.31,173.6,0,0.0,-1,0.0,0.0,0,3.88,8.5624
513763,1564153258468,3,2.7,1.25,0.63,1.55,1.22,1.0,-1.09,0.52,26,2,30,1.48,11602,49,108,42,56,744,630.0,527,466,60,121.0,276,1,411,370,171,0,0,618,-13043,24583,630,-5.59,,,,,,,,,,,,
513783,1564153258488,1,2.72,1.25,0.64,1.55,1.23,1.02,-1.16,0.57,27,3,29,1.54,11363,48,108,42,57,745,627.0,477,468,60,122.0,260,1,418,378,164,0,0,616,-28648,-8429,627,-5.59,,,,,,,,,,,,
513803,1564153258508,3,2.72,1.25,0.63,1.55,1.23,1.05,-1.16,0.37,27,1,31,1.56,11234,48,108,42,58,746,626.0,485,465,60,121.0,260,1,427,386,164,0,0,611,-1894,-30207,625,-5.59,,,,,,,,,,,,
513823,1564153258528,1,2.73,1.25,0.63,1.55,1.23,1.1,-1.18,0.47,27,2,32,1.61,11234,48,108,42,58,756,622.0,490,465,60,122.0,260,1,426,386,164,0,0,607,-13043,11776,624,-5.59,,,,,,,,,,,,
513843,1564153258548,3,2.74,1.26,0.63,1.56,1.22,1.06,-1.2,0.37,27,1,32,1.6,11517,48,108,42,57,766,619.0,493,463,60,122.0,260,1,418,378,164,0,0,609,-1894,4909,619,-5.59,44.681076,10.025053,62.95,173.6,0,0.0,-1,0.0,0.0,0,3.88,8.564
513863,1564153258568,3,2.75,1.25,0.62,1.55,1.22,0.9,-1.07,0.3,28,0,33,1.4,11517,48,108,42,55,776,615.0,519,467,60,122.0,260,1,405,359,164,0,0,605,15649,-5120,615,-5.59,,,,,,,,,,,,
513883,1564153258588,1,2.75,1.25,0.63,1.55,1.23,0.81,-0.96,0.39,28,3,32,1.26,11718,48,108,42,54,785,614.0,537,467,60,123.0,261,1,400,362,160,0,0,600,10432,-10251,614,-5.59,,,,,,,,,,,,
513903,1564153258607,3,2.75,1.25,0.63,1.56,1.23,0.77,-0.93,0.38,29,5,34,1.21,11889,48,108,42,54,803,615.0,549,468,60,121.0,261,1,400,356,160,0,0,597,8488,11566,614,-5.59,,,,,,,,,,,,
513923,1564153258627,3,2.75,1.25,0.63,1.55,1.23,0.7,-0.87,0.38,30,6,35,1.12,12112,48,108,42,53,821,613.0,548,472,60,121.0,261,1,397,345,160,0,0,597,10432,16599,613,-5.59,,,,,,,,,,,,
513943,1564153258647,3,2.75,1.25,0.63,1.55,1.23,0.61,-0.81,0.25,30,6,37,1.01,12112,48,108,42,53,832,615.0,582,471,60,121.0,261,1,397,346,160,0,0,598,1,-10251,615,-5.59,44.681061,10.025044,62.46,173.6,0,0.0,-1,0.0,0.0,0,3.88,8.5657
513963,1564153258667,4,2.75,1.25,0.63,1.54,1.23,0.52,-0.75,0.28,30,5,38,0.91,12214,48,108,42,53,840,612.0,528,470,60,122.0,261,1,397,346,160,0,0,604,259,-5120,612,-5.59,,,,,,,,,,,,
513983,1564153258687,2,2.75,1.25,0.63,1.55,1.23,0.47,-0.87,0.39,30,7,35,0.99,12351,48,108,42,52,838,608.0,525,468,60,122.0,253,1,394,333,155,0,0,611,1760,-2580,608,-5.59,,,,,,,,,,,,
514003,1564153258707,1,2.75,1.25,0.63,1.55,1.23,0.52,-0.89,0.55,31,9,34,1.04,12343,48,108,42,52,834,606.0,565,464,60,122.0,253,1,394,334,155,0,0,635,1267,-8429,606,-5.59,,,,,,,,,,,,
514023,1564153258727,2,2.74,1.25,0.63,1.55,1.23,0.62,-0.93,0.65,31,10,35,1.11,12230,48,108,42,52,823,608.0,529,469,60,121.0,253,1,394,333,155,0,0,678,-8188,11566,606,-5.59,,,,,,,,,,,,
514043,1564153258747,2,2.75,1.25,0.63,1.55,1.23,0.64,-0.85,0.61,31,8,36,1.07,12135,48,107,42,52,811,606.0,516,466,60,120.0,253,1,394,331,155,0,0,654,-3190,16599,607,-5.59,44.681046,10.025034,61.45,173.6,0,0.0,-1,0.0,0.0,0,3.88,8.5674
514063,1564153258767,3,2.73,1.25,0.63,1.55,1.23,0.64,-0.81,0.55,31,5,37,1.03,12050,48,108,42,52,797,606.0,547,466,60,121.0,253,1,394,332,155,0,0,634,1780,24,606,-5.59,,,,,,,,,,,,
514083,1564153258787,1,2.73,1.25,0.63,1.55,1.23,0.65,-0.78,0.58,30,4,38,1.01,11950,48,108,42,52,782,604.0,576,466,60,121.0,248,1,394,331,150,0,0,649,-29984,479,604,-5.59,,,,,,,,,,,,
514103,1564153258807,2,2.7,1.25,0.63,1.55,1.23,0.67,-0.78,0.66,29,5,37,1.03,11912,48,108,42,52,774,604.0,593,465,60,122.0,248,1,394,330,150,0,0,647,-8186,244,603,-5.59,,,,,,,,,,,,
514123,1564153258827,1,2.68,1.25,0.63,1.54,1.22,0.73,-0.85,0.77,29,6,35,1.12,11912,48,107,42,52,772,607.0,531,464,60,121.0,248,1,394,328,150,0,0,635,259,6208,607,-5.59,,,,,,,,,,,,
514143,1564153258847,1,2.67,1.25,0.63,1.55,1.23,0.81,-0.9,0.89,29,7,33,1.21,11935,48,107,42,52,770,609.0,566,465,60,120.0,248,1,394,328,150,0,0,629,259,4909,609,-5.59,44.681034,10.025022,60.63,173.7,0,0.0,-1,0.0,0.0,0,3.88,8.569
514163,1564153258867,2,2.66,1.25,0.63,1.55,1.23,0.79,-0.99,1.0,29,9,31,1.27,11927,48,107,42,52,768,609.0,561,466,60,121.0,248,1,394,328,150,0,0,645,-8188,24,610,-5.59,,,,,,,,,,,,
514183,1564153258887,0,2.64,1.24,0.63,1.54,1.22,0.79,-1.09,1.09,29,9,30,1.35,11927,48,107,42,52,767,608.0,594,463,60,120.0,243,1,394,328,148,0,0,641,30208,-3584,608,-5.59,,,,,,,,,,,,
514203,1564153258907,3,2.64,1.25,0.62,1.55,1.23,0.78,-1.18,1.18,29,10,29,1.42,11889,48,107,42,52,768,611.0,596,466,60,121.0,243,1,394,329,148,0,0,623,1760,244,611,-5.59,,,,,,,,,,,,
514223,1564153258927,2,2.64,1.25,0.63,1.56,1.23,0.76,-1.2,1.17,30,10,30,1.42,11889,48,107,42,52,770,612.0,606,467,60,121.0,243,1,394,327,148,0,0,630,-16384,-10251,612,-5.59,,,,,,,,,,,,
514243,1564153258947,3,2.62,1.25,0.63,1.55,1.23,0.7,-1.19,1.04,30,10,31,1.38,11859,48,107,42,52,773,614.0,600,468,60,121.0,243,1,394,327,148,0,0,646,30208,-2580,614,-5.59,44.681023,10.025009,60.35,173.7,0,0.0,-1,0.0,0.0,0,3.88,8.5707
514263,1564153258967,3,2.63,1.25,0.63,1.55,1.23,0.57,-1.14,0.88,29,8,32,1.28,11912,48,107,42,52,776,613.0,590,469,60,121.0,243,1,394,327,148,0,0,650,30208,16599,613,-5.59,,,,,,,,,,,,
514283,1564153258987,3,2.63,1.24,0.62,1.54,1.23,0.44,-1.12,0.77,29,7,32,1.2,11942,48,107,42,52,779,613.0,595,468,60,120.0,240,1,394,328,147,0,0,629,30208,-3584,613,-5.59,,,,,,,,,,,,
514303,1564153258997,3,2.62,1.25,0.63,1.54,1.23,0.35,-1.06,0.67,29,6,32,1.12,11942,48,107,42,52,782,612.0,578,472,60,120.0,240,1,394,328,147,0,0,619,774,16599,611,-5.59,,,,,,,,,,,,
514323,1564153259017,3,2.61,1.23,0.62,1.55,1.23,0.3,-0.97,0.61,29,5,33,1.02,11919,48,107,42,52,786,614.0,592,470,60,122.0,240,1,394,328,147,0,0,627,30208,-4876,614,-5.59,,,,,,,,,,,,
514343,1564153259037,3,2.62,1.25,0.63,1.55,1.23,0.31,-0.87,0.56,29,6,34,0.93,11867,48,107,42,52,790,613.0,563,472,60,121.0,240,1,394,327,147,0,0,653,10432,-3584,613,-5.59,44.681011,10.024995,60.84,173.7,0,0.0,-1,0.0,0.0,0,3.89,8.5724
514363,1564153259057,2,2.62,1.25,0.63,1.55,1.23,0.23,-0.81,0.5,29,6,35,0.85,11859,48,107,42,52,792,614.0,428,471,60,121.0,240,1,394,327,147,0,0,654,-3210,24,614,-5.59,,,,,,,,,,,,
514383,1564153259077,3,2.61,1.25,0.63,1.55,1.23,0.21,-0.78,0.45,29,6,36,0.8,11904,48,107,42,52,794,615.0,399,468,60,121.0,239,1,394,328,147,0,0,639,-3210,-3584,615,-5.59,,,,,,,,,,,,
514403,1564153259107,1,2.61,1.25,0.63,1.54,1.23,0.16,-0.77,0.54,29,7,36,0.79,11919,48,107,42,52,796,615.0,405,468,60,121.0,239,1,394,328,147,0,0,626,-3210,-2830,615,-5.59,,,,,,,,,,,,
514423,1564153259127,2,2.61,1.25,0.63,1.55,1.23,0.13,-0.75,0.55,30,8,36,0.76,11874,48,107,42,52,798,615.0,381,473,60,120.0,239,1,394,327,147,0,0,630,10432,24,615,-5.59,,,,,,,,,,,,
514443,1564153259147,2,2.6,1.25,0.62,1.55,1.23,0.17,-0.78,0.57,30,9,34,0.8,11852,48,107,42,52,798,617.0,426,467,60,121.0,239,1,394,327,147,0,0,651,15649,-2830,616,-5.59,44.681004,10.02498,60.65,173.7,0,0.0,-1,0.0,0.0,0,3.89,8.574
514463,1564153259167,2,2.6,1.24,0.63,1.55,1.23,0.22,-0.86,0.64,29,9,34,0.88,11882,47,107,42,52,799,616.0,425,470,60,121.0,239,1,394,327,147,0,0,637,-16384,-2830,619,-5.59,,,,,,,,,,,,
514483,1564153259187,2,2.59,1.25,0.63,1.55,1.23,0.33,-0.97,0.64,28,10,32,1.02,11912,47,107,42,52,800,613.0,476,471,60,121.0,239,1,394,328,148,0,0,637,243,-10251,613,-5.59,,,,,,,,,,,,
514503,1564153259209,0,2.58,1.24,0.63,1.55,1.24,0.37,-1.07,0.67,27,10,31,1.13,11897,47,107,42,52,801,616.0,511,468,60,121.0,239,1,394,328,148,0,0,627,-16384,-2836,616,-5.59,,,,,,,,,,,,
514523,1564153259229,1,2.55,1.24,0.64,1.55,1.24,0.48,-1.16,0.77,27,10,30,1.26,11874,47,107,42,52,801,615.0,555,470,60,122.0,239,1,394,329,148,0,0,628,15649,16599,615,-5.59,,,,,,,,,,,,
514543,1564153259249,1,2.51,1.24,0.63,1.54,1.24,0.49,-1.23,0.89,27,10,28,1.32,11935,47,107,42,52,801,618.0,557,470,60,122.0,239,1,394,328,148,0,0,648,-25872,-2580,618,-5.59,44.680992,10.024963,60.77,173.7,0,0.0,-1,0.0,0.0,0,3.89,8.5757
514563,1564153259269,-0,2.48,1.24,0.63,1.55,1.23,0.57,-1.29,0.91,25,9,27,1.41,11980,47,107,42,52,799,620.0,573,467,60,123.0,239,1,394,328,148,0,0,638,-25872,-3584,620,-5.59,,,,,,,,,,,,
514583,1564153259289,0,2.44,1.24,0.63,1.55,1.23,0.63,-1.36,0.89,23,8,27,1.5,11996,47,107,42,52,798,618.0,586,466,60,123.0,239,1,394,329,148,0,0,643,-1894,771,619,-5.59,,,,,,,,,,,,
514603,1564153259309,3,2.42,1.24,0.63,1.55,1.23,0.69,-1.37,0.86,21,7,26,1.54,11996,47,107,42,52,797,616.0,581,467,60,123.0,239,1,394,329,148,0,0,617,-32504,771,617,-5.59,,,,,,,,,,,,
514623,1564153259329,2,2.4,1.24,0.63,1.55,1.23,0.75,-1.36,0.74,19,7,26,1.55,11935,47,107,42,52,795,617.0,580,469,60,122.0,239,1,394,328,148,0,0,636,-16179,16599,617,-5.59,,,,,,,,,,,,
514643,1564153259349,3,2.38,1.24,0.63,1.54,1.24,0.76,-1.26,0.51,17,5,25,1.47,11874,47,107,42,52,796,618.0,598,470,60,122.0,239,1,394,327,148,0,0,637,4956,-2580,618,-5.59,44.680984,10.024945,60.95,173.7,0,0.0,-1,0.0,0.0,0,3.89,8.5774
514663,1564153259369,3,2.37,1.23,0.63,1.53,1.23,0.77,-1.07,0.64,16,5,24,1.32,11852,43,107,42,51,797,616.0,589,468,60,122.0,239,1,391,313,148,0,0,637,-3210,966,616,-5.59,,,,,,,,,,,,
514683,1564153259389,3,2.37,1.21,0.63,1.52,1.23,0.81,-0.99,0.77,14,6,22,1.28,11807,39,107,42,49,799,616.0,583,463,60,123.0,218,1,385,285,134,0,0,633,5344,-2836,613,-5.59,,,,,,,,,,,,
514703,1564153259409,4,2.36,1.19,0.62,1.51,1.22,0.91,-0.92,0.78,13,5,21,1.29,11617,34,107,42,47,801,611.0,582,468,60,122.0,218,1,380,271,134,0,0,628,-3820,506,613,-5.59,,,,,,,,,,,,
514723,1564153259429,8,2.34,1.15,0.61,1.49,1.21,0.95,-0.84,0.67,12,2,20,1.27,11419,32,107,42,46,801,611.0,585,462,60,122.0,218,1,372,252,134,0,0,629,5344,-14655,611,-5.59,,,,,,,,,,,,
514743,1564153259449,9,2.35,1.09,0.59,1.44,1.18,0.86,-0.71,0.78,11,4,19,1.11,11419,32,107,42,45,800,610.0,571,464,60,121.0,218,1,365,249,134,0,0,623,-7939,20993,608,-5.59,44.680977,10.024927,61.4,173.7,0,0.0,-1,0.0,0.0,0,3.89,8.5791
514763,1564153259469,10,2.34,0.98,0.56,1.36,1.14,0.87,-0.73,0.57,9,2,18,1.14,11167,31,107,42,44,798,602.0,568,466,60,122.0,218,1,357,245,134,0,0,617,30227,-18357,604,-5.59,,,,,,,,,,,,
514783,1564153259489,10,2.34,0.89,0.52,1.29,1.09,0.99,-0.84,0.71,8,2,15,1.3,11009,30,107,42,44,795,602.0,567,461,60,121.0,170,1,357,245,103,0,0,609,23619,16529,602,-5.59,,,,,,,,,,,,
514803,1564153259509,9,2.34,0.79,0.5,1.21,1.06,0.96,-0.69,0.75,8,4,14,1.18,10813,30,107,42,44,791,597.0,559,461,60,122.0,170,1,357,243,103,0,0,600,17344,28675,597,-5.59,,,,,,,,,,,,
514823,1564153259529,9,2.34,0.7,0.47,1.16,1.01,0.99,-0.5,0.61,8,5,13,1.1,10617,30,107,42,44,786,592.0,558,458,60,120.0,170,1,357,242,103,0,0,604,-12040,-3820,592,-5.59,,,,,,,,,,,,
514843,1564153259549,9,2.34,0.64,0.44,1.1,0.98,0.99,-0.36,0.58,8,2,12,1.06,10504,30,107,42,44,784,592.0,557,461,60,120.0,170,1,357,241,103,0,0,601,208,16529,592,-5.59,44.680965,10.024909,61.41,173.8,0,0.0,-1,0.0,0.0,0,3.9,8.5807
514863,1564153259569,10,2.33,0.59,0.43,1.09,0.95,1.08,-0.33,0.57,7,3,10,1.13,10330,30,107,42,44,783,587.0,544,456,60,120.0,170,1,357,241,103,0,0,596,-25872,-16179,587,-5.59,,,,,,,,,,,,
514883,1564153259589,11,2.33,0.61,0.43,1.1,0.96,1.18,-0.3,0.69,6,4,8,1.21,10445,30,107,42,44,796,585.0,547,456,60,121.0,161,1,357,241,95,0,0,570,243,15649,585,-5.59,,,,,,,,,,,,
514903,1564153259608,12,2.34,0.64,0.44,1.11,0.98,1.26,-0.24,0.76,6,-0,8,1.28,10575,30,107,42,44,813,577.0,550,454,60,122.0,161,1,357,242,95,0,0,558,1,2216,577,-5.59,,,,,,,,,,,,
514923,1564153259628,12,2.33,0.69,0.46,1.15,1.02,1.19,-0.18,0.72,5,1,7,1.21,10714,30,107,42,43,831,572.0,562,447,60,123.0,161,1,350,240,95,0,0,551,1267,2104,572,-5.59,,,,,,,,,,,,
514943,1564153259648,11,2.32,0.72,0.47,1.17,1.02,1.22,0.04,0.45,5,-1,9,1.22,10671,29,107,42,42,850,567.0,570,459,60,122.0,161,1,342,236,95,0,0,571,1780,-29984,565,-5.59,44.680962,10.02489,60.24,173.8,0,0.0,-1,0.0,0.0,0,3.9,8.5824
514963,1564153259668,13,2.32,0.7,0.47,1.17,1.02,1.12,0.24,0.2,5,-2,10,1.15,10611,29,107,42,42,863,564.0,553,459,60,123.0,161,1,342,235,95,0,0,566,-18032,-8188,562,-5.59,,,,,,,,,,,,
514983,1564153259688,13,2.32,0.71,0.47,1.17,1.02,1.06,0.37,-0.02,5,-2,10,1.12,10451,29,107,42,43,876,560.0,559,466,60,122.0,167,1,350,238,94,0,0,568,-22263,-8188,560,-5.59,,,,,,,,,,,,
515003,1564153259708,13,2.32,0.71,0.47,1.17,1.02,1.06,0.53,-0.22,4,0,11,1.18,10463,29,107,42,43,879,556.0,545,461,60,123.0,167,1,350,238,94,0,0,562,-22359,-18032,554,-5.59,,,,,,,,,,,,
515023,1564153259728,13,2.32,0.7,0.46,1.17,1.02,1.08,0.68,-0.36,4,-5,13,1.28,10515,29,107,42,42,874,549.0,554,458,60,122.0,167,1,342,234,94,0,0,556,2104,-32504,547,-5.59,,,,,,,,,,,,
515043,1564153259748,14,2.31,0.71,0.46,1.17,1.02,0.98,0.74,-0.45,4,-3,13,1.23,10617,29,107,42,42,863,547.0,547,463,60,122.0,167,1,342,235,94,0,0,561,-22519,-9072,545,-5.59,44.680954,10.024871,58.16,173.8,0,0.0,-1,0.0,0.0,0,3.9,8.5841
515063,1564153259768,13,2.32,0.69,0.45,1.16,1.01,0.94,0.76,-0.58,4,-0,12,1.21,10605,29,107,42,41,850,541.0,552,461,60,123.0,167,1,335,233,94,0,0,554,-2336,-28648,540,-5.59,,,,,,,,,,,,
515083,1564153259788,14,2.31,0.68,0.45,1.16,1.01,1.03,0.7,-0.56,4,-2,11,1.24,10647,29,107,42,41,839,537.0,553,464,60,123.0,175,1,335,233,94,0,0,552,6274,6274,537,-5.59,,,,,,,,,,,,
515103,1564153259808,13,2.32,0.69,0.46,1.16,1.02,0.96,0.48,-0.36,3,-4,10,1.07,10708,29,107,42,40,831,535.0,567,466,60,122.0,175,1,327,228,94,0,0,549,6274,-3082,533,-5.59,,,,,,,,,,,,
515123,1564153259828,13,2.32,0.69,0.46,1.16,1.01,1.02,0.23,-0.2,2,-0,6,1.05,10708,29,107,42,40,821,531.0,560,460,60,122.0,175,1,327,230,94,0,0,536,-22519,-2336,528,-5.59,,,,,,,,,,,,
515143,1564153259848,12,2.32,0.69,0.45,1.17,1.01,1.09,0.21,0.02,2,1,5,1.11,10714,29,107,42,40,809,528.0,561,464,60,123.0,175,1,327,229,94,0,0,537,-28648,-32248,524,-5.59,44.680946,10.024854,55.86,173.8,0,0.0,-1,0.0,0.0,0,3.9,8.5857
