"Interval"|"ms"|0|0|1,"Utc"|"ms"|0|0|1,"FB_p"|"bar"|0|300|50,"Volant"|"F"|0.0|300.0|50,"xFR"|"mm"|0.0|5.0|50,"xRR"|"mm"|0.0|5.0|50,"xFL"|"mm"|0.0|5.0|50,"xRL"|"mm"|0.0|5.0|50,"AccelX"|"G"|-3.0|3.0|50,"AccelY"|"G"|-3.0|3.0|50,"AccelZ"|"G"|-3.0|3.0|50,"Yaw"|"Deg/Sec"|-120|120|50,"Pitch"|"Deg/Sec"|-120|120|50,"Roll"|"Deg/Sec"|-120|120|50,"Gsum"|"G"|0.0|3.0|50,"RPM"|""|0|14000|50,"TPS"|"%"|0|100|50,"WaterTemp"|"?C"|0|300|50,"AirTemp"|"?C"|-1000|1000|50,"MAP"|"KPa"|0|255|50,"Lambda"|""|0|1024|50,"WheelSpeed"|"MPH"|0.0|150.0|50,"OilPress"|"PSI"|0|150|50,"FuelPress"|"PSI"|0|150|50,"OilTemp"|"F"|0|300|50,"Battery"|"Volts"|0.0|20.0|50,"FuelCon"|"L/h"|-1000|1000|50,"Gear"|""|0|10|50,"Advance"|"Deg"|-360|360|50,"Injection"|"ms"|-1000|1000|50,"FuelCon"|"L/100km"|-1000|1000|50,"LC_But_Pres"|""|-1000|1000|50,"LC_Active"|""|-1000|1000|50,"RD_Speed"|""|-1000|1000|50,"RUD_Speed"|""|-1000|1000|50,"LD_Speed"|""|-1000|1000|50,"LUD_Speed"|""|-1000|1000|50,"Ana1"|"bar"|-1000.0|1000.0|50,"Latitude"|"Degrees"|-180.0|180.0|10,"Longitude"|"Degrees"|-180.0|180.0|10,"Speed"|"kph"|0.0|150.0|10,"Altitude"|"m"|0.0|4000.0|10,"LapCount"|""|0|0|10,"LapTime"|"Min"|0.0|0.0|10,"Sector"|""|0|0|10,"SectorTime"|"Min"|0.0|0.0|10,"ElapsedTime"|"Min"|0.0|0.0|10,"CurrentLap"|""|0|0|10,"Distance"|"km"|0.0|0.0|10,"SessionTime"|"Min"|0.0|0.0|10
327963,1564153072663,-0,2.52,0.99,0.34,1.51,1.11,0.88,-1.02,1.04,21,0,25,1.35,12311,67,100,44,65,798,632.0,655,462,60,123.0,303,1,440,417,189,0,0,675,243,-10344,632,-5.59,,,,,,,,,,,,
327983,1564153072683,1,2.5,0.99,0.35,1.51,1.11,0.81,-0.96,0.98,20,-1,25,1.25,12384,67,100,44,65,793,634.0,661,462,60,122.0,308,1,440,417,195,0,0,653,-768,-10344,634,-5.59,,,,,,,,,,,,
328003,1564153072703,3,2.48,0.99,0.35,1.51,1.11,0.68,-0.79,0.93,21,-1,25,1.05,12384,67,100,44,65,794,637.0,666,462,60,122.0,308,1,440,417,195,0,0,649,5344,8958,636,-5.59,,,,,,,,,,,,
328023,1564153072723,-0,2.48,0.98,0.34,1.5,1.11,0.72,-0.85,1.0,21,1,24,1.11,12409,67,100,44,65,797,639.0,653,460,60,123.0,308,1,440,417,195,0,0,669,26688,-3038,644,-5.59,,,,,,,,,,,,
328043,1564153072743,1,2.49,0.98,0.34,1.5,1.1,0.81,-0.97,0.99,20,0,23,1.26,12433,67,100,44,65,795,642.0,658,460,60,122.0,308,1,440,417,195,0,0,665,1010,-10348,639,-5.59,44.681324,10.02497,61.89,173.8,0,0.0,-1,0.0,0.0,0,2.11,5.4674
328063,1564153072763,3,2.51,0.98,0.34,1.5,1.1,0.9,-0.85,1.0,19,-1,24,1.24,12450,67,100,44,65,793,643.0,663,463,60,122.0,308,1,440,417,195,0,0,659,-28304,-2826,643,-5.59,,,,,,,,,,,,
328083,1564153072783,1,2.54,0.98,0.34,1.5,1.11,0.85,-0.7,0.98,19,-2,25,1.11,12516,67,100,44,65,788,641.0,661,465,60,123.0,307,1,440,417,198,0,0,667,16529,-26380,641,-5.59,,,,,,,,,,,,
328103,1564153072805,2,2.56,0.98,0.34,1.5,1.11,0.85,-0.83,0.97,19,-2,24,1.19,12458,67,100,44,65,782,643.0,661,466,60,122.0,307,1,440,417,198,0,0,666,30721,-2826,643,-5.59,,,,,,,,,,,,
328123,1564153072825,2,2.59,0.99,0.34,1.51,1.11,0.82,-0.95,1.07,19,-4,24,1.25,12458,67,100,44,65,776,644.0,640,471,60,123.0,307,1,440,417,198,0,0,662,30721,-2830,644,-5.59,,,,,,,,,,,,
328143,1564153072845,4,2.6,0.99,0.34,1.51,1.11,0.79,-0.89,1.01,19,-6,24,1.19,12475,65,100,44,65,771,646.0,663,473,60,123.0,307,1,440,417,198,0,0,681,269,-3578,646,-5.59,44.681313,10.024985,62.86,173.7,0,0.0,-1,0.0,0.0,0,2.11,5.469
328163,1564153072865,2,2.61,0.99,0.34,1.51,1.12,0.77,-0.84,0.83,19,-5,26,1.14,12533,64,100,44,64,771,646.0,656,472,60,122.0,307,1,440,411,198,0,0,678,30721,-2826,646,-5.59,,,,,,,,,,,,
328183,1564153072885,3,2.6,0.99,0.35,1.51,1.11,0.77,-0.93,0.87,20,-5,26,1.2,12677,63,100,44,63,771,648.0,666,471,60,122.0,297,1,440,404,193,0,0,667,17336,-26892,648,-5.59,,,,,,,,,,,,
328203,1564153072905,0,2.59,0.99,0.34,1.5,1.11,0.8,-1.03,0.94,21,-6,25,1.31,12677,63,100,44,63,773,653.0,662,467,60,123.0,297,1,440,404,193,0,0,676,-18357,-10344,653,-5.59,,,,,,,,,,,,
328223,1564153072925,4,2.58,0.98,0.34,1.51,1.11,0.75,-0.88,0.84,22,-4,26,1.16,12643,62,100,44,62,775,653.0,657,466,60,123.0,297,1,440,399,193,0,0,686,3395,-2826,654,-5.59,,,,,,,,,,,,
328243,1564153072945,0,2.61,0.98,0.34,1.51,1.11,0.78,-0.99,0.8,22,-2,28,1.26,12720,61,100,44,62,777,657.0,653,458,60,123.0,297,1,440,399,193,0,0,687,269,6208,656,-5.59,44.681301,10.025001,63.87,173.7,0,0.0,-1,0.0,0.0,0,2.11,5.4707
328263,1564153072965,4,2.62,0.99,0.34,1.51,1.11,0.85,-0.91,0.76,23,-0,31,1.24,12851,58,100,44,61,779,657.0,661,463,60,123.0,297,1,440,393,193,0,0,669,19320,16118,658,-5.59,,,,,,,,,,,,
328283,1564153072985,2,2.63,0.98,0.34,1.51,1.1,0.81,-0.99,0.78,23,-1,32,1.28,12763,57,100,44,59,778,656.0,671,467,60,123.0,285,1,428,378,187,0,0,679,30721,14342,656,-5.59,,,,,,,,,,,,
328303,1564153072995,3,2.65,0.99,0.34,1.51,1.11,0.82,-1.09,0.9,23,-2,31,1.36,12626,55,100,44,58,776,657.0,669,472,60,123.0,285,1,422,370,187,0,0,680,3403,-2345,655,-5.59,,,,,,,,,,,,
328323,1564153073015,3,2.67,0.99,0.35,1.51,1.12,0.84,-1.06,0.85,24,-5,32,1.35,12525,54,100,44,58,772,653.0,663,472,60,123.0,285,1,422,363,187,0,0,680,30721,24845,653,-5.59,,,,,,,,,,,,
328343,1564153073035,1,2.67,1.0,0.34,1.51,1.12,0.83,-1.05,0.7,24,-6,32,1.33,12491,54,100,44,57,768,654.0,661,476,60,123.0,285,1,417,363,187,0,0,680,19320,-3584,653,-5.59,44.681286,10.025015,64.46,173.7,0,0.0,-1,0.0,0.0,0,2.12,5.4724
328363,1564153073055,3,2.66,0.97,0.34,1.52,1.11,0.86,-1.06,0.73,23,-6,34,1.36,12583,53,100,44,56,764,651.0,664,470,60,123.0,285,1,411,355,187,0,0,674,3403,-2345,651,-5.59,,,,,,,,,,,,
328383,1564153073075,-0,2.65,0.99,0.35,1.51,1.1,0.98,-1.15,0.77,23,-8,34,1.51,12600,53,100,43,56,759,649.0,654,466,60,123.0,260,1,411,359,169,0,0,670,26688,-10344,652,-5.59,,,,,,,,,,,,
328403,1564153073103,3,2.61,1.0,0.34,1.51,1.11,0.86,-1.1,0.68,24,-7,33,1.4,12651,53,100,44,55,755,652.0,660,465,60,123.0,260,1,405,348,169,0,0,669,30721,24845,649,-5.59,,,,,,,,,,,,
328423,1564153073123,3,2.58,1.0,0.34,1.51,1.11,0.77,-0.93,0.68,26,-3,34,1.21,12567,52,100,43,55,755,653.0,670,462,60,122.0,260,1,405,350,169,0,0,668,3403,6208,654,-5.59,,,,,,,,,,,,
328443,1564153073143,2,2.57,1.0,0.34,1.51,1.11,0.86,-1.04,0.74,26,1,35,1.35,12575,52,100,43,55,754,655.0,662,461,60,122.0,260,1,405,350,169,0,0,689,17336,-10346,656,-5.59,44.681274,10.025028,64.89,173.7,0,0.0,-1,0.0,0.0,0,2.12,5.4741
328463,1564153073163,5,2.58,0.99,0.34,1.5,1.11,0.91,-0.92,0.71,25,3,37,1.3,12643,52,100,43,54,753,656.0,671,462,60,123.0,260,1,400,344,169,0,0,685,26688,8958,656,-5.59,,,,,,,,,,,,
328483,1564153073183,1,2.59,0.98,0.34,1.51,1.11,0.87,-0.96,0.72,25,0,37,1.29,12660,52,100,43,54,752,652.0,605,463,60,122.0,252,1,400,344,165,0,0,658,30721,-3578,652,-5.59,,,,,,,,,,,,
328503,1564153073203,1,2.61,0.99,0.34,1.51,1.1,0.9,-1.06,0.84,26,3,36,1.39,12592,52,100,43,54,751,651.0,413,468,60,123.0,252,1,400,344,165,0,0,658,16529,-2345,653,-5.59,,,,,,,,,,,,
328523,1564153073223,4,2.6,0.99,0.34,1.52,1.11,0.94,-1.0,0.64,27,1,38,1.38,12508,52,100,43,54,751,654.0,419,468,60,122.0,252,1,400,344,165,0,0,670,30721,-2826,654,-5.59,,,,,,,,,,,,
328543,1564153073243,-0,2.64,0.99,0.34,1.51,1.11,0.88,-1.02,0.72,26,-0,37,1.35,12491,52,100,43,54,750,652.0,378,470,60,122.0,252,1,400,343,165,0,0,691,19304,-26380,652,-5.59,44.681259,10.02504,64.64,173.8,0,0.0,-1,0.0,0.0,0,2.12,5.4757
328563,1564153073263,2,2.66,0.99,0.34,1.5,1.11,0.81,-0.91,0.85,26,0,38,1.22,12558,52,100,43,54,749,647.0,511,472,60,123.0,252,1,400,344,165,0,0,664,269,-3038,647,-5.59,,,,,,,,,,,,
328583,1564153073283,6,2.67,0.99,0.33,1.5,1.11,0.9,-1.01,0.92,26,-1,35,1.35,12609,52,100,43,54,749,644.0,460,464,60,122.0,253,1,400,344,164,0,0,657,1010,3543,644,-5.59,,,,,,,,,,,,
328603,1564153073305,3,2.67,0.99,0.34,1.52,1.11,0.93,-1.1,0.7,26,-0,33,1.44,12592,52,100,43,54,749,643.0,432,465,60,123.0,253,1,400,344,164,0,0,655,28675,-3038,643,-5.59,,,,,,,,,,,,
328623,1564153073325,4,2.67,0.99,0.34,1.52,1.11,0.84,-0.94,0.74,26,1,36,1.26,12475,52,100,43,54,749,644.0,500,465,60,124.0,253,1,400,343,164,0,0,687,-28304,-3038,643,-5.59,,,,,,,,,,,,
328643,1564153073345,4,2.67,0.99,0.34,1.51,1.11,0.78,-0.96,0.74,26,6,38,1.24,12458,52,100,43,54,749,644.0,566,462,60,122.0,253,1,400,343,164,0,0,709,-3446,1549,644,-5.59,44.681244,10.02505,64.09,173.8,0,0.0,-1,0.0,0.0,0,2.12,5.4774
328663,1564153073365,2,2.68,0.99,0.34,1.51,1.11,0.78,-1.07,0.77,25,10,37,1.32,12516,52,100,43,54,748,640.0,637,462,60,123.0,253,1,400,344,164,0,0,675,17740,-2826,640,-5.59,,,,,,,,,,,,
328683,1564153073385,4,2.67,0.99,0.34,1.51,1.11,0.8,-0.81,0.58,27,7,37,1.14,12651,52,100,43,54,748,639.0,660,466,60,122.0,258,1,400,344,165,0,0,643,-30139,3543,639,-5.59,,,,,,,,,,,,
328703,1564153073404,1,2.68,1.0,0.34,1.52,1.11,0.88,-0.89,0.72,27,6,37,1.25,12617,52,100,43,54,749,641.0,654,466,60,122.0,258,1,400,344,165,0,0,649,19621,-388,642,-5.59,,,,,,,,,,,,
328723,1564153073424,1,2.69,0.99,0.34,1.52,1.1,0.93,-0.99,0.84,27,7,37,1.36,12567,52,100,43,54,750,643.0,656,472,60,122.0,258,1,400,344,165,0,0,701,17740,-2830,643,-5.59,,,,,,,,,,,,
328743,1564153073444,5,2.71,0.99,0.34,1.51,1.11,0.83,-0.9,0.78,26,4,35,1.23,12525,52,100,43,54,752,644.0,661,469,60,121.0,258,1,400,344,165,0,0,708,19621,-10348,640,-5.59,44.681229,10.025059,64.0,173.8,0,0.0,-1,0.0,0.0,0,2.12,5.4791
328763,1564153073464,3,2.73,0.99,0.34,1.5,1.11,0.79,-0.92,0.55,26,3,36,1.21,12583,52,100,43,54,753,637.0,648,471,60,123.0,258,1,400,344,165,0,0,683,-768,-26380,635,-5.59,,,,,,,,,,,,
328783,1564153073484,3,2.72,0.99,0.34,1.51,1.11,0.85,-0.9,0.57,28,3,36,1.23,12609,52,100,43,54,753,636.0,656,471,60,123.0,260,1,400,344,165,0,0,644,-7939,-3038,636,-5.59,,,,,,,,,,,,
328803,1564153073504,0,2.74,0.99,0.34,1.5,1.12,0.95,-1.0,0.53,28,1,34,1.38,12567,52,100,43,54,754,634.0,657,469,60,122.0,260,1,400,344,165,0,0,661,-3210,-26380,634,-5.59,,,,,,,,,,,,
328823,1564153073524,2,2.74,0.99,0.34,1.51,1.1,0.98,-1.03,0.42,26,1,34,1.42,12475,52,100,43,53,753,633.0,659,467,60,123.0,260,1,397,329,165,0,0,698,30227,-2830,633,-5.59,,,,,,,,,,,,
328843,1564153073544,2,2.74,0.99,0.35,1.51,1.11,0.83,-0.9,0.38,26,4,32,1.22,12458,52,100,43,54,752,630.0,655,465,60,121.0,260,1,400,344,165,0,0,680,-16179,-3038,630,-5.59,44.681213,10.025065,63.43,173.8,0,0.0,-1,0.0,0.0,0,2.12,5.4807
328863,1564153073564,1,2.73,1.0,0.34,1.52,1.11,0.86,-1.01,0.54,26,5,33,1.33,12516,52,100,43,54,752,628.0,656,464,60,123.0,260,1,400,344,165,0,0,655,-3210,1549,628,-5.59,,,,,,,,,,,,
328883,1564153073584,1,2.71,0.99,0.34,1.5,1.12,0.81,-1.11,0.69,26,7,30,1.37,12483,52,100,43,54,751,629.0,657,461,60,122.0,258,1,400,343,162,0,0,655,17344,3543,630,-5.59,,,,,,,,,,,,
328903,1564153073604,3,2.68,0.99,0.34,1.52,1.11,0.82,-1.01,0.46,26,9,33,1.31,12433,52,100,43,54,751,631.0,660,466,60,123.0,258,1,400,329,162,0,0,701,17344,-2830,632,-5.59,,,,,,,,,,,,
328923,1564153073624,4,2.67,1.0,0.34,1.51,1.1,0.88,-0.97,0.34,25,7,34,1.31,12441,52,100,43,54,751,632.0,588,465,60,124.0,258,1,400,342,162,0,0,705,-3210,-388,632,-5.59,,,,,,,,,,,,
328943,1564153073644,2,2.68,0.99,0.34,1.51,1.11,0.95,-1.07,0.51,25,8,33,1.43,12516,52,100,43,54,753,631.0,552,471,60,122.0,258,1,400,344,162,0,0,676,-13043,-10344,635,-5.59,44.681198,10.02507,63.44,173.8,0,0.0,-1,0.0,0.0,0,2.13,5.4824
328963,1564153073664,3,2.68,1.0,0.34,1.51,1.11,0.95,-1.15,0.45,25,8,34,1.49,12525,53,100,43,54,755,629.0,560,476,60,123.0,258,1,400,344,162,0,0,640,23619,-2830,629,-5.59,,,,,,,,,,,,
328983,1564153073684,2,2.69,0.99,0.34,1.5,1.12,0.94,-1.16,0.4,26,6,34,1.49,12516,57,100,43,55,757,630.0,632,473,60,122.0,263,1,405,350,166,0,0,662,30227,-26380,630,-5.59,,,,,,,,,,,,
329003,1564153073704,2,2.7,1.0,0.34,1.52,1.11,0.9,-1.19,0.54,26,7,33,1.49,12475,60,100,43,56,759,634.0,653,472,60,121.0,263,1,411,358,166,0,0,684,23619,3543,634,-5.59,,,,,,,,,,,,
329023,1564153073724,3,2.72,0.99,0.34,1.51,1.11,0.84,-1.15,0.51,25,7,34,1.42,12533,61,100,43,57,762,630.0,648,467,60,122.0,263,1,417,366,166,0,0,687,17344,3543,629,-5.59,,,,,,,,,,,,
329043,1564153073744,1,2.73,0.99,0.34,1.51,1.11,0.95,-1.23,0.44,25,6,33,1.55,12583,61,100,43,58,765,630.0,632,467,60,122.0,263,1,422,373,166,0,0,649,-13043,3543,629,-5.59,44.681183,10.025075,63.25,173.9,0,0.0,-1,0.0,0.0,0,2.13,5.484
329063,1564153073764,2,2.74,0.99,0.34,1.51,1.12,0.94,-1.16,0.41,25,7,33,1.49,12575,65,100,43,59,767,627.0,648,463,60,122.0,263,1,428,381,166,0,0,660,3472,1549,627,-5.59,,,,,,,,,,,,
329083,1564153073784,4,2.73,0.99,0.34,1.51,1.1,0.74,-1.11,0.46,25,7,31,1.33,12508,65,100,43,61,769,626.0,650,461,60,122.0,300,1,440,396,188,0,0,698,3472,3543,626,-5.59,,,,,,,,,,,,
329103,1564153073804,1,2.74,0.99,0.34,1.5,1.11,0.79,-1.19,0.62,25,9,28,1.43,12558,65,100,43,62,775,629.0,656,459,60,122.0,300,1,440,402,188,0,0,674,-13043,31988,629,-5.59,,,,,,,,,,,,
329123,1564153073824,3,2.75,0.99,0.34,1.51,1.12,0.77,-1.11,0.53,25,9,29,1.35,12660,65,100,43,62,784,627.0,642,464,60,123.0,300,1,440,408,188,0,0,665,-28648,16118,627,-5.59,,,,,,,,,,,,
329143,1564153073844,2,2.75,0.99,0.34,1.51,1.11,0.76,-1.1,0.6,24,7,30,1.34,12660,65,100,43,63,793,628.0,636,466,60,123.0,300,1,440,408,188,0,0,667,3472,-2345,629,-5.59,44.681164,10.025076,63.01,173.9,0,0.0,-1,0.0,0.0,0,2.13,5.4857
329163,1564153073864,2,2.74,0.99,0.34,1.5,1.12,0.77,-1.19,0.66,24,7,28,1.42,12660,66,100,43,63,800,629.0,643,466,60,123.0,300,1,440,408,188,0,0,677,-28648,-10399,629,-5.59,,,,,,,,,,,,
329183,1564153073884,5,2.74,0.99,0.34,1.51,1.11,0.77,-1.16,0.53,25,6,29,1.39,12626,66,100,43,63,811,630.0,660,468,60,121.0,308,1,440,408,195,0,0,673,3472,-2345,629,-5.59,,,,,,,,,,,,
329203,1564153073904,2,2.75,0.99,0.34,1.5,1.11,0.75,-1.12,0.52,25,7,29,1.35,12617,66,100,43,64,824,633.0,657,471,60,123.0,308,1,440,415,195,0,0,681,23619,8958,633,-5.59,,,,,,,,,,,,
329223,1564153073924,3,2.76,0.99,0.34,1.5,1.12,0.69,-1.06,0.54,25,7,28,1.27,12703,66,100,43,64,834,635.0,653,471,60,122.0,308,1,440,415,195,0,0,671,23619,-26562,635,-5.59,,,,,,,,,,,,
329243,1564153073944,2,2.77,0.99,0.34,1.5,1.12,0.81,-1.16,0.51,24,7,28,1.41,12720,66,100,43,64,840,634.0,626,466,60,123.0,308,1,440,415,195,0,0,670,-13043,24845,634,-5.59,44.681152,10.025077,63.06,173.9,0,0.0,-1,0.0,0.0,0,2.13,5.4874
329263,1564153073964,3,2.78,0.99,0.34,1.5,1.11,0.75,-1.08,0.28,24,6,29,1.31,12720,66,100,43,64,843,632.0,633,463,60,123.0,308,1,440,415,195,0,0,683,23619,-10346,632,-5.59,,,,,,,,,,,,
329283,1564153073984,2,2.78,0.99,0.34,1.51,1.11,0.76,-1.17,0.45,24,7,25,1.4,12686,66,100,43,64,845,631.0,645,462,60,123.0,315,1,440,415,199,0,0,675,17344,-10346,631,-5.59,,,,,,,,,,,,
329303,1564153073996,2,2.79,0.99,0.35,1.51,1.11,0.78,-0.99,0.29,25,5,28,1.26,12746,66,100,43,64,846,631.0,640,463,60,123.0,315,1,440,415,199,0,0,678,17344,3543,632,-5.59,,,,,,,,,,,,
329323,1564153074016,0,2.78,0.99,0.34,1.51,1.11,0.76,-1.07,0.29,25,3,28,1.31,12746,66,100,43,64,842,633.0,647,468,60,123.0,315,1,440,415,199,0,0,676,4956,14342,633,-5.59,,,,,,,,,,,,
329343,1564153074036,3,2.78,0.99,0.34,1.51,1.11,0.8,-1.16,0.42,24,5,28,1.41,12746,67,100,43,64,838,634.0,636,466,60,122.0,315,1,440,415,199,0,0,695,-3210,-10344,631,-5.59,44.681137,10.025075,63.68,173.9,0,0.0,-1,0.0,0.0,0,2.13,5.489
329363,1564153074056,1,2.78,0.99,0.35,1.5,1.11,0.74,-1.17,0.36,24,4,30,1.38,12737,67,100,43,64,832,633.0,650,472,60,122.0,315,1,440,415,199,0,0,679,4956,-2826,633,-5.59,,,,,,,,,,,,
329383,1564153074076,5,2.76,1.0,0.34,1.5,1.11,0.71,-1.16,0.52,25,2,30,1.36,12824,67,100,43,64,827,634.0,645,473,60,122.0,316,1,440,415,201,0,0,680,30227,6208,634,-5.59,,,,,,,,,,,,
329403,1564153074104,2,2.75,0.99,0.34,1.51,1.12,0.83,-1.24,0.49,25,2,29,1.49,12842,67,100,43,64,825,637.0,632,467,60,122.0,316,1,440,415,201,0,0,677,5344,16599,637,-5.59,,,,,,,,,,,,
329423,1564153074124,4,2.74,1.0,0.34,1.5,1.11,0.73,-1.17,0.42,26,3,28,1.38,12789,67,100,43,64,822,641.0,574,463,60,123.0,316,1,440,415,201,0,0,708,-30139,16599,641,-5.59,,,,,,,,,,,,
329443,1564153074144,0,2.75,0.99,0.35,1.51,1.11,0.66,-1.12,0.58,25,9,26,1.3,12824,67,100,43,64,818,645.0,590,459,60,123.0,316,1,440,415,201,0,0,694,-3820,-10344,645,-5.59,44.681122,10.025072,63.96,173.9,0,0.0,-1,0.0,0.0,0,2.13,5.4907
329463,1564153074164,1,2.76,1.0,0.34,1.51,1.11,0.65,-1.07,0.32,24,6,29,1.25,12922,67,100,43,64,815,642.0,583,461,60,122.0,316,1,440,415,201,0,0,680,-3820,-2830,642,-5.59,,,,,,,,,,,,
329483,1564153074184,3,2.77,0.99,0.35,1.5,1.12,0.67,-1.16,0.47,23,6,27,1.34,12931,67,100,43,65,813,640.0,523,465,60,123.0,321,1,440,420,206,0,0,675,-30139,16599,640,-5.59,,,,,,,,,,,,
329503,1564153074204,1,2.77,1.0,0.34,1.5,1.12,0.68,-1.12,0.39,24,5,28,1.31,12842,67,100,43,65,811,643.0,440,471,60,122.0,321,1,440,420,206,0,0,678,-3820,24,643,-5.59,,,,,,,,,,,,
329523,1564153074224,2,2.77,1.0,0.34,1.51,1.11,0.7,-1.1,0.54,24,3,25,1.3,12842,67,100,43,65,807,643.0,498,474,60,122.0,321,1,440,420,206,0,0,720,-23055,-2830,643,-5.59,,,,,,,,,,,,
329543,1564153074244,1,2.76,1.0,0.34,1.51,1.11,0.78,-1.18,0.56,23,1,25,1.41,12877,67,100,43,64,802,642.0,551,465,60,123.0,321,1,440,415,206,0,0,682,5344,-26562,642,-5.59,44.681103,10.025068,64.61,174.0,0,0.0,-1,0.0,0.0,0,2.14,5.4924
329563,1564153074264,5,2.75,1.0,0.34,1.51,1.12,0.7,-1.19,0.44,23,2,27,1.38,12851,67,100,43,65,799,639.0,525,464,60,123.0,321,1,440,420,206,0,0,706,19621,19188,644,-5.59,,,,,,,,,,,,
329583,1564153074284,2,2.74,1.0,0.34,1.51,1.11,0.74,-1.1,0.6,23,3,26,1.33,12895,67,100,43,65,796,642.0,530,459,60,123.0,318,1,440,420,205,0,0,681,-3446,24,647,-5.59,,,,,,,,,,,,
329603,1564153074304,3,2.73,1.0,0.34,1.51,1.11,0.62,-1.03,0.46,24,2,25,1.21,12948,67,100,43,65,792,650.0,600,462,60,124.0,318,1,440,420,205,0,0,690,28675,11576,650,-5.59,,,,,,,,,,,,
329623,1564153074324,4,2.72,1.0,0.34,1.52,1.11,0.59,-1.13,0.61,24,2,24,1.27,12975,67,100,43,65,788,650.0,612,467,60,123.0,318,1,440,420,205,0,0,705,30721,11576,652,-5.59,,,,,,,,,,,,
329643,1564153074344,3,2.72,1.0,0.34,1.51,1.12,0.59,-1.1,0.38,24,3,27,1.25,12975,67,100,43,65,787,654.0,568,475,60,122.0,318,1,440,420,205,0,0,687,26688,11576,654,-5.59,44.681088,10.025062,65.04,174.0,0,0.0,-1,0.0,0.0,0,2.14,5.4941
329663,1564153074364,0,2.73,0.99,0.34,1.5,1.11,0.73,-1.19,0.44,25,2,27,1.4,13057,68,100,43,65,786,656.0,543,473,60,122.0,318,1,440,420,205,0,0,683,26688,24,656,-5.59,,,,,,,,,,,,
329683,1564153074384,4,2.73,0.99,0.35,1.5,1.12,0.72,-1.12,0.42,26,2,31,1.33,13048,68,100,43,65,784,657.0,550,470,60,122.0,316,1,440,420,207,0,0,714,-28304,12333,657,-5.59,,,,,,,,,,,,
329703,1564153074403,2,2.72,1.0,0.34,1.51,1.11,0.82,-1.05,0.5,26,3,29,1.33,12975,68,100,43,65,781,653.0,566,461,60,122.0,316,1,440,420,207,0,0,698,-18357,16599,653,-5.59,,,,,,,,,,,,
329723,1564153074423,2,2.74,0.99,0.34,1.51,1.12,0.77,-1.05,0.58,25,-1,30,1.31,13038,68,100,43,65,779,652.0,581,461,60,121.0,316,1,440,420,207,0,0,696,16529,-2830,652,-5.59,,,,,,,,,,,,
329743,1564153074443,4,2.74,1.0,0.34,1.51,1.11,0.84,-1.15,0.48,24,-3,30,1.43,13002,68,100,43,65,778,649.0,514,466,60,123.0,316,1,440,420,207,0,0,695,269,11069,649,-5.59,44.681072,10.025055,65.14,174.0,0,0.0,-1,0.0,0.0,0,2.14,5.4957
329763,1564153074463,4,2.73,0.99,0.34,1.5,1.11,0.81,-1.11,0.42,25,-4,30,1.37,13002,68,100,43,65,775,651.0,581,469,60,122.0,316,1,440,420,207,0,0,699,30721,6208,651,-5.59,,,,,,,,,,,,
329783,1564153074483,2,2.72,0.99,0.34,1.5,1.12,0.93,-1.2,0.49,25,-6,30,1.52,13093,68,100,43,65,772,655.0,613,476,60,123.0,316,1,440,420,208,0,0,694,269,-20693,655,-5.59,,,,,,,,,,,,
329803,1564153074503,2,2.71,0.99,0.34,1.5,1.12,0.81,-1.02,0.42,26,-5,32,1.3,13102,68,100,43,65,770,658.0,625,469,60,123.0,316,1,440,420,208,0,0,732,20993,15647,658,-5.59,,,,,,,,,,,,
329823,1564153074523,4,2.7,0.99,0.34,1.51,1.11,0.91,-0.95,0.44,26,-3,34,1.32,13111,68,100,43,66,769,663.0,631,458,60,123.0,316,1,440,427,208,0,0,729,269,-2830,663,-5.59,,,,,,,,,,,,
329843,1564153074543,3,2.71,0.99,0.34,1.51,1.12,0.81,-1.05,0.6,26,-2,33,1.33,13297,68,100,43,66,767,662.0,616,462,60,122.0,316,1,440,420,208,0,0,698,-16046,-2830,662,-5.59,44.681057,10.025044,65.94,174.0,0,0.0,-1,0.0,0.0,0,2.14,5.4974
329863,1564153074563,3,2.71,1.0,0.34,1.5,1.12,0.82,-1.0,0.37,26,1,35,1.29,13297,68,100,43,66,766,660.0,561,469,60,123.0,316,1,440,427,208,0,0,701,506,15647,660,-5.59,,,,,,,,,,,,
329883,1564153074583,1,2.71,0.99,0.34,1.5,1.12,0.85,-1.08,0.27,27,2,34,1.37,13326,68,100,43,66,766,663.0,558,476,60,122.0,327,1,440,427,216,0,0,701,-18357,-20693,659,-5.59,,,,,,,,,,,,
329903,1564153074603,2,2.71,0.99,0.34,1.5,1.12,0.76,-1.15,0.44,27,5,33,1.38,13194,68,100,43,66,766,662.0,578,468,60,123.0,327,1,440,427,216,0,0,718,-1346,-2560,662,-5.59,,,,,,,,,,,,
329923,1564153074623,-3,2.71,1.0,0.34,1.51,1.11,0.71,-1.02,0.26,26,2,32,1.24,13232,68,100,43,66,764,663.0,567,459,60,122.0,327,1,440,427,216,0,0,705,-1346,-13072,660,-5.59,,,,,,,,,,,,
329943,1564153074643,3,2.71,1.0,0.34,1.5,1.11,0.76,-1.12,0.43,25,1,29,1.35,13222,68,100,43,66,762,658.0,517,467,60,123.0,327,1,440,427,216,0,0,710,-16883,-12152,657,-5.59,44.681046,10.025035,66.64,174.0,0,0.0,-1,0.0,0.0,0,2.14,5.4991
329963,1564153074663,-0,2.7,1.0,0.34,1.5,1.12,0.74,-0.89,0.28,26,-2,30,1.16,13130,68,100,43,66,760,655.0,490,471,60,122.0,327,1,440,427,216,0,0,699,17336,11069,655,-5.59,,,,,,,,,,,,
329983,1564153074683,1,2.67,0.99,0.35,1.51,1.11,0.87,-1.0,0.44,25,-5,29,1.32,13167,68,99,43,66,758,660.0,438,472,60,123.0,323,1,440,427,213,0,0,711,966,8010,660,-5.59,,,,,,,,,,,,
330003,1564153074705,3,2.65,1.0,0.34,1.51,1.11,0.76,-1.03,0.53,26,-7,26,1.28,13139,68,100,43,66,755,667.0,479,468,60,122.0,323,1,440,427,213,0,0,704,771,-20693,667,-5.59,,,,,,,,,,,,
330023,1564153074725,6,2.63,0.99,0.34,1.51,1.11,0.84,-0.82,0.45,26,-6,28,1.17,13260,68,100,43,66,751,670.0,544,462,60,123.0,323,1,440,427,213,0,0,716,-5120,687,670,-5.59,,,,,,,,,,,,
330043,1564153074745,4,2.61,0.99,0.35,1.51,1.12,0.81,-0.93,0.6,25,-5,28,1.24,13326,63,100,43,65,749,672.0,491,466,60,123.0,323,1,440,420,213,0,0,705,-5120,11069,670,-5.59,44.681026,10.025023,66.79,174.0,0,0.0,-1,0.0,0.0,0,2.15,5.5007
330063,1564153074765,2,2.59,1.0,0.34,1.51,1.12,0.7,-0.88,0.56,26,-4,29,1.12,13279,58,100,43,63,748,675.0,440,472,60,122.0,323,1,440,408,213,0,0,691,-5120,-13312,671,-5.59,,,,,,,,,,,,
330083,1564153074785,1,2.57,0.99,0.34,1.5,1.12,0.83,-0.97,0.62,27,-5,26,1.28,13176,54,100,43,61,747,674.0,445,473,60,122.0,298,1,440,396,201,0,0,709,-2830,-13072,677,-5.59,,,,,,,,,,,,
330103,1564153074805,5,2.55,0.99,0.34,1.51,1.12,0.72,-0.92,0.51,27,-2,27,1.16,12948,49,100,43,59,746,675.0,481,465,60,122.0,298,1,428,382,201,0,0,726,-2830,8010,675,-5.59,,,,,,,,,,,,
330123,1564153074825,1,2.54,1.0,0.34,1.51,1.11,0.83,-0.91,0.5,26,-0,27,1.24,12913,45,99,43,56,745,677.0,528,462,60,122.0,298,1,411,361,201,0,0,698,24,-2830,677,-5.59,,,,,,,,,,,,
330143,1564153074845,1,2.52,0.99,0.34,1.51,1.11,0.84,-0.89,0.37,25,-1,29,1.22,12824,41,100,43,53,746,674.0,555,460,60,123.0,298,1,397,332,201,0,0,677,16599,12333,674,-5.59,44.681015,10.025008,66.96,174.1,0,0.0,-1,0.0,0.0,0,2.15,5.5024
330163,1564153074865,2,2.5,0.99,0.35,1.51,1.11,0.83,-1.0,0.42,24,-1,27,1.29,12609,37,100,43,50,746,673.0,512,473,60,123.0,298,1,388,304,201,0,0,670,6208,19188,672,-5.59,,,,,,,,,,,,
330183,1564153074885,4,2.48,0.99,0.34,1.51,1.11,0.82,-1.04,0.57,24,-1,26,1.32,12327,35,100,43,49,745,675.0,476,474,60,123.0,193,1,385,277,130,0,0,657,4909,6208,672,-5.59,,,,,,,,,,,,
330203,1564153074903,3,2.48,0.99,0.34,1.51,1.12,0.78,-0.97,0.61,23,-1,26,1.25,12159,33,100,43,47,744,674.0,423,471,60,121.0,193,1,380,252,130,0,0,657,244,-3584,674,-5.59,,,,,,,,,,,,
330223,1564153074923,4,2.48,0.99,0.34,1.51,1.12,0.72,-0.9,0.64,22,-2,27,1.15,11980,32,100,43,45,743,671.0,456,470,60,121.0,193,1,367,244,130,0,0,640,11776,3543,671,-5.59,,,,,,,,,,,,
330243,1564153074943,2,2.47,0.99,0.35,1.5,1.12,0.68,-0.98,0.78,22,-1,26,1.2,11762,29,100,43,44,745,666.0,467,474,60,122.0,193,1,359,239,130,0,0,633,-3584,16599,666,-5.59,44.681004,10.024994,66.24,174.0,0,0.0,-1,0.0,0.0,0,2.15,5.5041
330263,1564153074963,5,2.46,0.99,0.34,1.5,1.11,0.63,-1.08,0.7,22,-2,24,1.25,11517,27,100,43,43,759,666.0,453,470,60,122.0,193,1,350,233,130,0,0,641,244,24845,668,-5.59,,,,,,,,,,,,
330283,1564153074983,5,2.46,0.99,0.34,1.51,1.11,0.68,-0.84,0.49,21,-3,25,1.08,11377,25,100,43,42,773,664.0,450,468,60,121.0,151,1,342,230,101,0,0,639,24,-10344,664,-5.59,,,,,,,,,,,,
330303,1564153074995,2,2.45,0.99,0.34,1.5,1.11,0.81,-0.96,0.63,20,-2,22,1.26,11247,24,100,43,41,788,660.0,440,469,60,123.0,151,1,335,228,101,0,0,618,-2836,-27404,661,-5.59,,,,,,,,,,,,
330323,1564153075015,5,2.45,0.99,0.34,1.51,1.11,0.76,-0.69,0.39,19,1,23,1.02,11174,23,100,43,40,806,655.0,456,462,60,123.0,151,1,327,225,101,0,0,551,-4876,-30207,654,-5.59,,,,,,,,,,,,
330343,1564153075035,7,2.43,0.98,0.34,1.51,1.11,0.78,-0.82,0.39,18,1,23,1.13,11147,23,100,43,39,833,648.0,441,467,60,122.0,151,1,320,224,101,0,0,510,966,8958,648,-5.59,44.680988,10.024978,66.19,174.1,0,0.0,-1,0.0,0.0,0,2.15,5.5057
330363,1564153075055,5,2.42,0.99,0.33,1.5,1.11,0.87,-0.72,0.41,17,-1,23,1.13,11035,23,100,43,39,861,647.0,426,467,60,122.0,151,1,320,224,101,0,0,524,20993,-2345,647,-5.59,,,,,,,,,,,,
330383,1564153075075,5,2.43,0.98,0.34,1.49,1.11,0.81,-0.54,0.26,17,-2,24,0.98,10788,22,100,43,38,873,645.0,441,467,60,123.0,138,1,317,218,90,0,0,524,-16883,-26380,645,-5.59,,,,,,,,,,,,
330403,1564153075105,5,2.43,0.98,0.34,1.5,1.11,0.73,-0.39,0.12,17,-1,25,0.83,10659,21,100,43,38,887,643.0,466,468,60,123.0,138,1,317,216,90,0,0,60,506,-3488,642,-5.59,,,,,,,,,,,,
330423,1564153075125,6,2.42,0.97,0.34,1.5,1.11,0.71,-0.26,-0.09,18,0,26,0.76,10405,19,100,43,38,906,640.0,487,467,60,123.0,138,1,317,213,90,0,0,526,30721,31988,638,-5.59,,,,,,,,,,,,
330443,1564153075145,5,2.43,0.98,0.34,1.5,1.1,0.72,-0.05,-0.29,18,-3,28,0.72,10319,19,100,43,37,925,634.0,510,462,60,123.0,138,1,314,212,90,0,0,541,26688,-5120,635,-5.59,44.680981,10.024961,65.51,174.1,0,0.0,-1,0.0,0.0,0,2.15,5.5074
330463,1564153075165,9,2.42,0.98,0.34,1.49,1.11,0.73,0.07,-0.29,18,-1,27,0.74,10285,19,100,43,36,933,628.0,527,461,60,123.0,138,1,311,211,90,0,0,525,-30139,17740,629,-5.59,,,,,,,,,,,,
330483,1564153075185,8,2.42,0.97,0.34,1.48,1.11,0.86,0.04,-0.17,17,-2,26,0.86,10376,19,100,43,36,939,622.0,535,468,60,123.0,132,1,311,212,83,0,0,519,-7939,5344,622,-5.59,,,,,,,,,,,,
330503,1564153075203,11,2.4,0.97,0.33,1.49,1.11,0.9,-0.07,0.02,15,-2,24,0.9,10341,19,100,43,36,953,619.0,552,470,60,123.0,132,1,311,211,83,0,0,476,243,243,619,-5.59,,,,,,,,,,,,
330523,1564153075223,9,2.4,0.96,0.33,1.48,1.11,1.0,-0.27,0.13,15,1,22,1.04,10273,19,100,43,35,966,613.0,561,464,60,123.0,132,1,308,211,83,0,0,448,17344,16529,616,-5.59,,,,,,,,,,,,
330543,1564153075243,8,2.4,0.97,0.34,1.48,1.1,0.95,-0.24,0.15,15,-3,22,0.98,10026,19,100,43,35,973,613.0,566,468,60,123.0,132,1,308,208,83,0,0,443,3472,-16883,612,-5.59,44.680969,10.024943,63.62,174.1,0,0.0,-1,0.0,0.0,0,2.15,5.509
330563,1564153075263,10,2.39,0.98,0.34,1.49,1.11,0.99,-0.21,0.16,15,-1,21,1.01,9878,19,100,43,34,979,608.0,576,457,60,122.0,132,1,305,204,83,0,0,466,208,506,608,-5.59,,,,,,,,,,,,
330583,1564153075283,10,2.39,0.97,0.34,1.49,1.11,1.09,-0.33,0.26,14,-1,19,1.14,9816,19,100,43,34,987,607.0,578,464,60,122.0,123,1,305,203,75,0,0,505,-1894,-7939,607,-5.59,,,,,,,,,,,,
330603,1564153075305,12,2.39,0.97,0.34,1.49,1.1,1.1,-0.17,0.16,14,-5,20,1.12,9868,19,100,43,34,996,596.0,582,469,60,123.0,123,1,305,202,75,0,0,495,-16384,-25872,596,-5.59,,,,,,,,,,,,
330623,1564153075325,12,2.37,0.97,0.34,1.49,1.11,1.2,-0.29,0.24,13,-1,17,1.23,9915,19,100,43,33,1000,590.0,589,470,60,123.0,123,1,302,203,75,0,0,460,259,10432,590,-5.59,,,,,,,,,,,,
330643,1564153075345,11,2.35,0.94,0.33,1.47,1.1,1.17,-0.27,0.23,11,-3,18,1.2,9889,18,100,43,33,1002,583.0,585,470,60,123.0,123,1,302,202,75,0,0,448,-8188,-13043,583,-5.59,44.680962,10.024926,61.64,174.1,0,0.0,-1,0.0,0.0,0,2.16,5.5107
330663,1564153075365,12,2.35,0.94,0.33,1.47,1.09,1.19,-0.39,0.21,10,1,17,1.25,9775,19,100,43,33,1001,575.0,591,463,60,123.0,123,1,302,201,75,0,0,444,1780,-32504,575,-5.59,,,,,,,,,,,,
330683,1564153075385,12,2.34,0.91,0.32,1.45,1.09,1.17,-0.23,0.13,10,-0,16,1.19,9615,19,100,43,33,1000,574.0,596,470,60,124.0,125,1,302,200,72,0,0,471,-18032,243,571,-5.59,,,,,,,,,,,,
330703,1564153075404,10,2.33,0.89,0.32,1.43,1.08,1.17,-0.35,0.14,9,0,14,1.22,9585,19,100,43,33,995,566.0,585,470,60,123.0,125,1,302,198,72,0,0,499,6273,2216,566,-5.59,,,,,,,,,,,,
330723,1564153075424,13,2.34,0.85,0.31,1.42,1.07,1.19,-0.19,0.1,8,-3,14,1.2,9595,19,100,43,33,990,560.0,576,472,60,123.0,125,1,302,198,72,0,0,501,-22359,2524,560,-5.59,,,,,,,,,,,,
330743,1564153075444,11,2.34,0.81,0.3,1.39,1.05,1.19,-0.26,0.21,7,-0,12,1.22,9699,19,100,43,32,973,555.0,578,467,60,123.0,125,1,300,198,72,0,0,505,6274,26178,555,-5.59,44.68095,10.024909,59.18,174.2,0,0.0,-1,0.0,0.0,0,2.16,5.5124
330763,1564153075464,12,2.34,0.78,0.28,1.35,1.02,1.27,-0.23,0.21,6,-2,11,1.3,9715,19,100,43,32,952,551.0,585,465,60,123.0,125,1,300,199,72,0,0,512,14504,998,547,-5.59,,,,,,,,,,,,
330783,1564153075484,11,2.35,0.72,0.26,1.32,1.0,1.11,-0.2,0.25,6,-0,10,1.13,9610,19,100,43,32,932,545.0,587,466,60,123.0,130,1,300,197,71,0,0,528,1780,-9212,545,-5.59,,,,,,,,,,,,
330803,1564153075500,10,2.36,0.66,0.25,1.28,0.97,1.18,-0.26,0.16,6,-2,10,1.21,9576,19,100,43,32,915,538.0,596,465,60,123.0,130,1,300,196,71,0,0,510,-32248,10408,538,-5.59,,,,,,,,,,,,
330823,1564153075520,12,2.36,0.63,0.23,1.23,0.95,1.09,-0.08,0.15,5,-2,8,1.09,9615,19,100,43,32,897,534.0,601,458,60,123.0,130,1,300,197,71,0,0,507,14504,10408,534,-5.59,,,,,,,,,,,,
330843,1564153075540,13,2.38,0.62,0.23,1.23,0.95,1.18,-0.22,0.26,5,-1,6,1.2,9709,19,100,43,31,879,529.0,595,462,60,123.0,130,1,295,197,71,0,0,519,6274,-21872,529,-5.59,44.680943,10.024892,56.74,174.2,0,0.0,-1,0.0,0.0,0,2.16,5.514
330863,1564153075560,11,2.39,0.64,0.24,1.26,0.96,1.16,-0.01,0.12,5,-3,8,1.16,9740,19,100,43,31,870,524.0,593,461,60,123.0,130,1,295,197,71,0,0,517,-8187,2524,524,-5.59,,,,,,,,,,,,
330883,1564153075580,11,2.38,0.68,0.24,1.29,0.97,1.25,-0.21,0.28,5,-0,5,1.26,9725,19,100,43,30,869,519.0,600,462,60,123.0,136,1,291,195,71,0,0,518,17136,-9212,519,-5.59,,,,,,,,,,,,
330903,1564153075604,12,2.39,0.7,0.25,1.31,0.99,1.2,-0.05,0.13,6,-2,7,1.2,9735,19,100,43,30,867,516.0,598,462,60,124.0,136,1,291,195,71,0,0,514,-21872,1341,516,-5.59,,,,,,,,,,,,
330923,1564153075624,11,2.39,0.72,0.26,1.34,1.0,1.19,-0.23,0.23,6,0,6,1.21,9765,19,100,43,30,862,512.0,591,468,60,124.0,136,1,291,195,71,0,0,503,-22519,1341,512,-5.59,,,,,,,,,,,,
330943,1564153075644,11,2.38,0.74,0.27,1.34,1.01,1.21,-0.13,0.13,6,-1,7,1.22,9709,18,100,43,29,857,511.0,590,463,60,123.0,136,1,287,193,71,0,0,507,10408,15679,511,-5.59,44.680935,10.024876,53.96,174.2,0,0.0,-1,0.0,0.0,0,2.16,5.5157
330963,1564153075664,9,2.39,0.76,0.27,1.36,1.02,1.12,-0.17,0.17,7,-1,8,1.13,9585,19,100,43,29,853,506.0,600,466,60,123.0,136,1,287,191,71,0,0,506,3,-14,506,-5.59,,,,,,,,,,,,
330983,1564153075684,11,2.38,0.76,0.27,1.37,1.02,1.21,-0.24,0.16,6,-2,7,1.23,9551,19,100,43,29,847,504.0,601,472,60,124.0,136,1,287,116,69,0,0,500,-6528,26178,504,-5.59,,,,,,,,,,,,
331003,1564153075704,10,2.38,0.77,0.28,1.37,1.02,1.19,-0.11,0.24,7,-1,7,1.19,9522,19,100,43,29,838,499.0,610,468,60,124.0,136,1,287,190,69,0,0,498,505,-4054,499,-5.59,,,,,,,,,,,,
331023,1564153075724,9,2.38,0.76,0.28,1.37,1.02,1.11,-0.17,0.15,7,-1,8,1.12,9479,19,100,43,29,830,496.0,597,462,60,123.0,136,1,287,190,69,0,0,495,3580,-28648,495,-5.59,,,,,,,,,,,,
331043,1564153075744,9,2.38,0.77,0.29,1.37,1.02,1.11,-0.3,0.13,7,-0,8,1.15,9431,19,100,43,29,825,493.0,600,466,60,122.0,136,1,287,189,69,0,0,488,8488,-32248,493,-5.59,44.680927,10.024861,51.71,174.2,0,0.0,-1,0.0,0.0,0,2.16,5.5174
331063,1564153075764,11,2.37,0.77,0.28,1.37,1.02,1.2,-0.24,0.25,7,-1,7,1.23,9365,19,100,43,29,821,490.0,600,465,60,123.0,136,1,287,189,69,0,0,483,10305,-6528,490,-5.59,,,,,,,,,,,,
331083,1564153075784,11,2.37,0.78,0.28,1.37,1.03,1.25,-0.07,0.31,7,-1,8,1.25,9259,19,100,43,29,817,485.0,594,470,60,123.0,133,1,287,188,65,0,0,483,-1923,2524,485,-5.59,,,,,,,,,,,,
331103,1564153075804,13,2.36,0.78,0.29,1.38,1.03,1.18,0.04,0.22,7,-3,9,1.19,9213,19,100,43,29,814,481.0,586,461,60,123.0,133,1,287,187,65,0,0,476,3576,248,480,-5.59,,,,,,,,,,,,
331123,1564153075824,10,2.36,0.78,0.29,1.38,1.03,1.07,0.01,0.13,7,-3,9,1.07,9173,19,100,43,29,815,478.0,576,466,60,124.0,133,1,287,186,65,0,0,477,30272,-1562,478,-5.59,,,,,,,,,,,,
331143,1564153075844,10,2.35,0.78,0.29,1.39,1.03,0.87,-0.09,0.1,7,-1,10,0.88,9137,19,100,43,29,816,474.0,588,464,60,123.0,133,1,287,186,65,0,0,475,243,3580,474,-5.59,44.68092,10.024846,49.93,174.3,0,0.0,-1,0.0,0.0,0,2.16,5.5191
331163,1564153075864,11,2.35,0.77,0.29,1.37,1.03,0.84,-0.22,0.15,7,-0,8,0.86,9106,19,100,43,29,819,472.0,577,471,60,124.0,133,1,287,186,65,0,0,469,2211,16648,470,-5.59,,,,,,,,,,,,
331183,1564153075884,12,2.35,0.75,0.28,1.34,1.01,0.81,-0.33,0.18,7,1,8,0.87,9075,19,100,44,30,821,467.0,578,466,60,124.0,134,1,291,184,63,0,0,468,14488,-9203,467,-5.59,,,,,,,,,,,,
331203,1564153075904,11,2.35,0.74,0.28,1.33,1.01,0.92,-0.42,0.21,6,2,7,1.01,9036,19,100,44,30,822,462.0,589,463,60,123.0,134,1,291,184,63,0,0,460,-9160,-1923,462,-5.59,,,,,,,,,,,,
331223,1564153075924,13,2.35,0.74,0.28,1.34,1.01,0.93,-0.47,0.21,6,3,7,1.04,8992,19,100,43,30,825,459.0,586,469,60,124.0,134,1,291,185,63,0,0,458,-8985,32033,459,-5.59,,,,,,,,,,,,
331243,1564153075944,12,2.36,0.74,0.29,1.33,1.02,0.99,-0.56,0.22,6,4,6,1.14,8937,19,100,44,30,831,455.0,592,468,60,124.0,134,1,291,184,63,0,0,461,10305,6193,455,-5.59,44.680916,10.024832,48.21,174.3,0,0.0,-1,0.0,0.0,0,2.17,5.5207
331263,1564153075964,12,2.35,0.75,0.29,1.33,1.02,0.92,-0.57,0.22,6,5,7,1.08,8827,19,100,44,30,838,452.0,577,462,60,123.0,134,1,291,184,63,0,0,466,2131,243,452,-5.59,,,,,,,,,,,,
331283,1564153075984,13,2.36,0.75,0.29,1.34,1.03,0.87,-0.54,0.12,6,5,7,1.02,8640,19,100,44,31,842,448.0,568,464,60,124.0,133,1,295,184,60,0,0,460,-18341,12552,448,-5.59,,,,,,,,,,,,
331303,1564153075996,14,2.34,0.77,0.29,1.37,1.03,0.95,-0.43,0.2,5,3,7,1.04,8480,19,100,44,31,847,449.0,557,467,60,124.0,133,1,294,182,60,0,0,458,19477,12552,449,-5.59,,,,,,,,,,,,
331323,1564153076016,11,2.35,0.77,0.3,1.37,1.03,0.87,-0.35,0.18,6,4,7,0.94,8415,19,100,44,31,868,444.0,548,471,60,124.0,133,1,294,179,60,0,0,456,21580,-16384,442,-5.59,,,,,,,,,,,,
331343,1564153076036,14,2.33,0.78,0.3,1.37,1.03,0.95,-0.29,0.13,5,3,7,0.99,8333,19,100,44,32,889,442.0,538,466,60,123.0,133,1,296,181,60,0,0,450,5600,14488,442,-5.59,44.680908,10.024817,46.31,174.3,0,0.0,-1,0.0,0.0,0,2.17,5.5224
331363,1564153076056,12,2.33,0.76,0.29,1.35,1.03,0.94,-0.21,0.15,5,2,7,0.96,8241,19,100,44,33,906,438.0,541,464,60,124.0,133,1,296,177,60,0,0,443,-7939,2131,435,-5.59,,,,,,,,,,,,
331383,1564153076076,15,2.33,0.74,0.28,1.34,1.01,1.03,-0.2,0.08,4,0,7,1.05,8184,19,100,44,34,923,433.0,538,466,60,123.0,129,1,298,181,56,0,0,441,3635,16648,433,-5.59,,,,,,,,,,,,
331403,1564153076104,17,2.32,0.72,0.28,1.31,1.01,0.93,-0.17,0.05,4,1,6,0.95,8173,19,100,44,34,949,426.0,538,462,60,124.0,129,1,298,180,56,0,0,438,13552,20625,426,-5.59,,,,,,,,,,,,
331423,1564153076124,15,2.32,0.71,0.27,1.3,1.0,1.04,-0.23,0.12,3,-1,5,1.07,8138,19,100,44,35,974,421.0,539,466,60,123.0,129,1,300,184,56,0,0,430,-21792,3635,421,-5.59,,,,,,,,,,,,
331443,1564153076144,16,2.33,0.7,0.28,1.29,1.01,0.9,-0.21,0.06,3,-1,5,0.93,8057,19,100,44,35,988,421.0,538,463,60,124.0,129,1,299,183,56,0,0,428,-21944,-3322,418,-5.59,44.680904,10.024803,45.13,174.3,0,0.0,-1,0.0,0.0,0,2.17,5.524
331463,1564153076164,13,2.34,0.71,0.28,1.3,1.0,0.95,-0.18,0.08,3,1,5,0.97,8026,18,100,44,36,998,416.0,545,463,60,124.0,129,1,301,188,56,0,0,427,2524,13180,414,-5.59,,,,,,,,,,,,
331483,1564153076184,13,2.35,0.71,0.27,1.3,1.01,1.05,-0.2,0.16,2,1,5,1.07,7968,19,100,44,36,989,413.0,531,464,60,124.0,135,1,301,187,56,0,0,425,13040,3826,411,-5.59,,,,,,,,,,,,
331503,1564153076204,16,2.35,0.72,0.27,1.31,1.0,1.01,-0.09,0.07,2,-1,5,1.01,7864,18,100,44,36,978,408.0,524,461,60,123.0,135,1,301,187,56,0,0,422,10392,13552,408,-5.59,,,,,,,,,,,,
331523,1564153076224,14,2.37,0.73,0.28,1.32,1.01,0.91,-0.02,-0.03,3,-0,5,0.91,7815,19,100,44,37,960,406.0,519,455,60,125.0,135,1,304,193,56,0,0,418,-8151,-3414,406,-5.59,,,,,,,,,,,,
331543,1564153076244,16,2.37,0.75,0.28,1.34,1.01,0.88,0.01,-0.05,4,1,5,0.88,7722,19,100,44,38,939,401.0,521,463,60,124.0,135,1,307,198,56,0,0,415,6512,-3414,401,-5.59,44.680897,10.02479,43.1,174.3,0,0.0,-1,0.0,0.0,0,2.17,5.5257
331563,1564153076264,16,2.38,0.76,0.29,1.35,1.02,0.89,0.01,-0.03,4,2,5,0.89,7646,19,100,44,38,914,401.0,512,463,60,123.0,135,1,307,198,56,0,0,410,-1818,11560,401,-5.59,,,,,,,,,,,,
331583,1564153076284,14,2.37,0.78,0.29,1.37,1.03,0.98,-0.02,0.07,5,3,4,0.98,7606,19,100,44,39,887,397.0,509,463,60,123.0,143,1,310,198,57,0,0,402,-1562,2524,397,-5.59,,,,,,,,,,,,
331603,1564153076304,13,2.37,0.79,0.3,1.38,1.04,1.08,-0.08,0.19,5,4,4,1.08,7554,18,100,44,39,873,394.0,513,461,60,123.0,143,1,310,204,57,0,0,398,240,-26615,394,-5.59,,,,,,,,,,,,
331623,1564153076324,12,2.37,0.81,0.31,1.38,1.05,1.17,-0.14,0.26,5,2,5,1.18,7597,19,100,44,39,866,393.0,503,464,60,123.0,143,1,310,205,57,0,0,389,-6475,11545,390,-5.59,,,,,,,,,,,,
331643,1564153076344,14,2.36,0.82,0.31,1.4,1.05,1.26,-0.12,0.31,4,2,5,1.26,7575,19,100,44,40,859,389.0,505,469,60,123.0,143,1,317,205,57,0,0,384,19125,11545,386,-5.59,44.680893,10.024776,41.22,174.4,0,0.0,-1,0.0,0.0,0,2.17,5.5274
331663,1564153076364,14,2.37,0.81,0.3,1.39,1.05,1.33,-0.15,0.33,4,1,4,1.34,7631,19,100,44,39,850,382.0,511,460,60,123.0,143,1,310,205,57,0,0,381,-6656,17144,381,-5.59,,,,,,,,,,,,
331683,1564153076384,13,2.37,0.82,0.3,1.39,1.05,1.35,-0.15,0.37,4,0,4,1.36,7634,19,100,44,40,846,378.0,516,467,60,122.0,156,1,317,205,59,0,0,380,742,505,378,-5.59,,,,,,,,,,,,
331703,1564153076403,14,2.36,0.82,0.31,1.39,1.05,1.32,-0.11,0.29,4,0,3,1.33,7687,19,100,44,40,844,373.0,516,461,60,124.0,156,1,317,205,59,0,0,369,486,19125,373,-5.59,,,,,,,,,,,,
331723,1564153076423,14,2.36,0.82,0.31,1.4,1.05,1.17,-0.11,0.17,4,-1,3,1.18,7703,19,100,44,40,845,371.0,514,461,60,124.0,156,1,317,205,59,0,0,368,-1268,2278,371,-5.59,,,,,,,,,,,,
331743,1564153076443,16,2.36,0.82,0.3,1.4,1.04,1.07,-0.05,0.06,4,0,4,1.07,7757,19,100,44,40,848,365.0,524,463,60,124.0,156,1,317,205,59,0,0,367,-14707,-6656,365,-5.59,44.680885,10.024764,39.8,174.4,0,0.0,-1,0.0,0.0,0,2.17,5.529
331763,1564153076463,13,2.36,0.82,0.31,1.38,1.05,1.11,-0.04,0.08,4,0,5,1.11,7760,19,100,44,40,851,360.0,517,463,60,123.0,156,1,317,205,59,0,0,364,-29302,0,360,-5.59,,,,,,,,,,,,
331783,1564153076483,12,2.36,0.81,0.31,1.39,1.05,1.2,-0.06,0.17,3,-0,4,1.2,7819,19,100,44,40,855,360.0,514,460,60,123.0,166,1,317,205,60,0,0,362,4104,-6405,357,-5.59,,,,,,,,,,,,
331803,1564153076503,13,2.36,0.82,0.31,1.4,1.05,1.2,-0.05,0.19,3,-0,3,1.2,7888,19,100,44,40,863,353.0,522,463,60,124.0,166,1,317,205,60,0,0,356,-6644,-1268,353,-5.59,,,,,,,,,,,,
331823,1564153076523,16,2.35,0.82,0.31,1.39,1.05,1.13,0.01,0.13,4,1,4,1.13,7894,19,100,44,40,874,351.0,526,465,60,124.0,166,1,317,205,60,0,0,352,-1246,-29978,351,-5.59,,,,,,,,,,,,
331843,1564153076543,12,2.36,0.82,0.31,1.38,1.05,1.22,-0.03,0.14,4,1,4,1.22,7968,19,100,44,40,883,349.0,522,464,60,122.0,166,1,317,205,60,0,0,349,-14714,-29302,345,-5.59,44.680885,10.024752,37.57,174.4,0,0.0,-1,0.0,0.0,0,2.17,5.5307
331863,1564153076563,12,2.37,0.81,0.31,1.4,1.04,1.24,-0.02,0.14,4,1,3,1.24,8009,19,100,44,39,890,343.0,526,463,60,123.0,166,1,310,206,60,0,0,346,-31222,28553,343,-5.59,,,,,,,,,,,,
331883,1564153076583,14,2.36,0.81,0.31,1.39,1.05,1.18,0.04,0.07,4,1,3,1.18,8002,19,100,44,39,897,339.0,525,462,60,124.0,181,1,310,205,62,0,0,340,4838,8841,339,-5.59,,,,,,,,,,,,
331903,1564153076603,12,2.37,0.82,0.31,1.4,1.05,1.26,-0.01,0.07,4,1,3,1.26,8081,19,100,44,39,904,336.0,530,462,60,124.0,181,1,311,205,62,0,0,335,-12032,6668,334,-5.59,,,,,,,,,,,,
331923,1564153076623,12,2.37,0.81,0.31,1.4,1.04,1.21,0.0,0.09,4,-0,3,1.21,8109,19,100,44,38,910,328.0,533,463,60,124.0,181,1,309,205,62,0,0,332,-22016,-31222,328,-5.59,,,,,,,,,,,,
331943,1564153076643,10,2.36,0.81,0.3,1.4,1.05,1.27,0.02,0.13,4,0,4,1.27,8113,19,100,44,38,910,328.0,537,460,60,125.0,181,1,309,199,62,0,0,330,160,-31222,327,-5.59,44.680878,10.024741,35.45,174.4,0,0.0,-1,0.0,0.0,0,2.17,5.5324
331963,1564153076663,9,2.37,0.82,0.31,1.39,1.04,1.28,0.04,0.13,3,-1,3,1.28,8120,19,100,44,38,910,326.0,545,465,60,123.0,181,1,309,199,62,0,0,324,160,-6528,326,-5.59,,,,,,,,,,,,
331983,1564153076683,9,2.37,0.8,0.3,1.38,1.04,1.18,0.05,0.13,4,1,3,1.18,8191,19,100,44,38,907,324.0,539,464,60,125.0,188,1,310,200,61,0,0,325,-25856,-32559,325,-5.59,,,,,,,,,,,,
332003,1564153076703,5,2.37,0.79,0.3,1.38,1.04,1.22,0.01,0.17,3,-1,3,1.22,8230,19,100,44,37,904,322.0,548,462,60,123.0,188,1,308,195,61,0,0,324,-27136,170,322,-5.59,,,,,,,,,,,,
332023,1564153076723,4,2.37,0.79,0.3,1.39,1.03,1.08,-0.01,0.16,3,-0,4,1.08,8198,19,100,44,37,900,322.0,543,466,60,124.0,188,1,307,195,61,0,0,324,140,-22016,320,-5.59,,,,,,,,,,,,
332043,1564153076743,1,2.37,0.8,0.3,1.38,1.04,1.12,-0.04,0.24,3,-1,4,1.12,8212,19,100,44,37,897,320.0,551,463,60,124.0,188,1,308,196,61,0,0,324,-28416,-22016,320,-5.59,44.680874,10.024731,33.59,174.4,0,0.0,-1,0.0,0.0,0,2.17,5.534
332063,1564153076763,3,2.36,0.81,0.3,1.38,1.04,0.98,0.04,0.24,4,1,4,0.98,8267,19,100,44,37,895,320.0,540,464,60,125.0,188,1,309,196,61,0,0,320,-29696,-22016,319,-5.59,,,,,,,,,,,,
332083,1564153076783,1,2.36,0.8,0.3,1.38,1.03,1.07,0.04,0.26,4,0,4,1.07,8278,19,100,44,37,892,319.0,536,467,60,124.0,187,1,309,196,60,0,0,321,-29696,160,319,-5.59,,,,,,,,,,,,
332103,1564153076803,3,2.36,0.8,0.29,1.38,1.02,0.94,0.06,0.3,4,1,3,0.94,8256,19,100,44,36,893,320.0,546,464,60,125.0,187,1,306,192,60,0,0,323,135,170,318,-5.59,,,,,,,,,,,,
332123,1564153076823,1,2.37,0.8,0.29,1.39,1.02,1.05,0.03,0.38,4,-1,3,1.05,8245,19,100,44,36,895,319.0,539,465,60,123.0,187,1,305,192,60,0,0,323,135,165,319,-5.59,,,,,,,,,,,,
332143,1564153076843,3,2.37,0.8,0.29,1.38,1.03,0.97,0.04,0.44,4,1,2,0.97,8303,19,100,44,36,900,318.0,545,465,60,124.0,187,1,307,119,60,0,0,322,-29696,-20736,318,-5.59,44.68087,10.02472,32.2,174.4,0,0.0,-1,0.0,0.0,0,2.18,5.5357
332163,1564153076863,1,2.37,0.8,0.3,1.39,1.03,1.01,-0.02,0.42,4,-1,2,1.01,8325,19,100,44,36,905,317.0,547,465,60,122.0,187,1,307,194,60,0,0,319,135,-23296,317,-5.59,,,,,,,,,,,,
332183,1564153076883,0,2.36,0.81,0.3,1.4,1.03,0.96,-0.03,0.47,4,-0,3,0.96,8292,19,101,44,36,910,317.0,550,467,60,125.0,192,1,306,194,61,0,0,322,-30976,160,317,-5.59,,,,,,,,,,,,
332203,1564153076903,0,2.37,0.81,0.3,1.4,1.04,0.88,-0.07,0.48,4,-1,3,0.89,8303,19,101,44,36,914,318.0,563,462,60,124.0,192,1,307,194,61,0,0,320,-30976,155,316,-5.59,,,,,,,,,,,,
332223,1564153076923,0,2.36,0.81,0.3,1.39,1.03,0.96,-0.03,0.53,4,0,2,0.96,8333,19,101,44,35,921,316.0,557,465,60,125.0,192,1,304,190,61,0,0,322,135,150,316,-5.59,,,,,,,,,,,,
332243,1564153076943,2,2.35,0.8,0.29,1.38,1.02,0.84,-0.05,0.5,4,1,2,0.84,8344,19,101,44,35,929,316.0,551,467,60,124.0,192,1,304,195,61,0,0,321,-32256,-23296,316,-5.59,44.680866,10.024711,31.66,174.4,0,0.0,-1,0.0,0.0,0,2.18,5.5374
332263,1564153076963,-1,2.36,0.79,0.28,1.37,1.01,0.95,-0.02,0.58,3,1,3,0.95,8307,19,101,44,35,932,316.0,560,464,60,125.0,192,1,304,190,61,0,0,320,125,-27136,316,-5.59,,,,,,,,,,,,
332283,1564153076983,3,2.35,0.79,0.28,1.38,1.01,0.82,-0.03,0.47,3,0,3,0.82,8296,19,101,44,35,935,314.0,543,465,60,123.0,194,1,303,189,61,0,0,321,-32256,-24576,314,-5.59,,,,,,,,,,,,
332303,1564153076995,1,2.37,0.78,0.28,1.38,1.01,0.94,-0.01,0.52,4,-1,2,0.94,8285,19,101,44,36,937,314.0,552,467,60,124.0,194,1,306,190,61,0,0,317,125,-24576,314,-5.59,,,,,,,,,,,,
332323,1564153077015,2,2.38,0.78,0.28,1.37,1.01,0.8,0.04,0.45,4,1,3,0.8,8337,19,101,44,35,938,314.0,543,464,60,124.0,194,1,304,191,61,0,0,318,125,-24576,314,-5.59,,,,,,,,,,,,
332343,1564153077035,1,2.39,0.77,0.28,1.36,1.01,0.89,0.04,0.46,4,1,3,0.89,8296,19,101,44,35,937,314.0,538,465,60,124.0,194,1,304,189,61,0,0,319,32000,155,315,-5.59,44.680866,10.0247,31.3,174.5,0,0.0,-1,0.0,0.0,0,2.18,5.5391
332363,1564153077055,3,2.39,0.78,0.28,1.37,1.01,0.82,0.03,0.48,5,1,3,0.82,8314,19,101,44,35,936,315.0,541,463,60,125.0,194,1,304,190,61,0,0,316,120,-25856,315,-5.59,,,,,,,,,,,,
332383,1564153077075,2,2.4,0.8,0.28,1.39,1.02,0.91,-0.0,0.45,5,0,4,0.91,8318,19,101,44,35,932,315.0,545,465,60,123.0,190,1,304,194,60,0,0,316,30720,-25856,315,-5.59,,,,,,,,,,,,
332403,1564153077103,-1,2.4,0.82,0.29,1.4,1.03,0.92,-0.0,0.52,5,2,4,0.92,8351,19,101,44,35,928,315.0,554,463,60,125.0,190,1,305,191,60,0,0,317,120,-24576,315,-5.59,,,,,,,,,,,,
332423,1564153077123,2,2.41,0.82,0.3,1.4,1.04,0.84,-0.06,0.46,5,0,5,0.84,8351,19,101,44,35,924,316.0,560,465,60,124.0,190,1,305,195,60,0,0,315,115,-24576,314,-5.59,,,,,,,,,,,,
332443,1564153077143,-0,2.41,0.83,0.3,1.41,1.04,0.9,-0.03,0.57,5,1,5,0.9,8307,19,101,44,35,922,315.0,555,465,60,125.0,190,1,304,190,60,0,0,314,29440,150,315,-5.59,44.680862,10.024691,31.49,174.5,0,0.0,-1,0.0,0.0,0,2.18,5.5407
332463,1564153077163,1,2.4,0.83,0.3,1.4,1.03,0.74,-0.07,0.51,6,0,5,0.74,8318,19,101,44,35,920,313.0,556,464,60,125.0,190,1,304,190,60,0,0,312,110,-28416,313,-5.59,,,,,,,,,,,,
332483,1564153077183,1,2.4,0.83,0.3,1.41,1.03,0.87,-0.07,0.54,6,-0,5,0.87,8348,19,101,44,35,919,313.0,552,462,60,124.0,188,1,304,191,59,0,0,313,110,140,312,-5.59,,,,,,,,,,,,
332503,1564153077205,3,2.39,0.82,0.29,1.39,1.03,0.77,-0.06,0.49,6,-0,5,0.77,8311,19,101,44,35,919,314.0,550,465,60,125.0,188,1,304,190,59,0,0,310,28160,-25856,314,-5.59,,,,,,,,,,,,
332523,1564153077225,-1,2.4,0.82,0.3,1.41,1.03,0.89,-0.09,0.56,5,-2,6,0.9,8274,19,101,44,35,921,313.0,543,466,60,123.0,188,1,304,189,59,0,0,309,105,-27136,311,-5.59,,,,,,,,,,,,
332543,1564153077245,3,2.4,0.84,0.31,1.4,1.04,0.79,-0.12,0.5,6,-3,6,0.8,8285,19,101,44,35,925,312.0,540,467,60,125.0,188,1,303,189,59,0,0,311,110,-27136,312,-5.59,44.680859,10.024681,31.08,174.5,0,0.0,-1,0.0,0.0,0,2.18,5.5424
332563,1564153077265,0,2.39,0.83,0.31,1.4,1.04,0.87,-0.13,0.56,6,-4,6,0.88,8340,19,101,44,35,929,314.0,541,465,60,124.0,188,1,304,191,59,0,0,311,29440,140,314,-5.59,,,,,,,,,,,,
332583,1564153077285,-1,2.39,0.83,0.31,1.4,1.04,0.82,-0.06,0.59,6,-1,7,0.82,8340,19,101,44,35,933,311.0,542,466,60,124.0,188,1,304,191,59,0,0,312,110,-27136,311,-5.59,,,,,,,,,,,,
332603,1564153077305,2,2.39,0.83,0.31,1.4,1.05,0.84,-0.05,0.58,6,-2,6,0.84,8322,19,101,44,35,936,310.0,542,467,60,123.0,188,1,304,190,59,0,0,311,26880,135,310,-5.59,,,,,,,,,,,,
332623,1564153077325,-0,2.4,0.84,0.31,1.41,1.05,0.87,-0.03,0.61,6,-2,7,0.87,8292,19,101,44,35,940,309.0,545,464,60,124.0,188,1,303,189,59,0,0,308,28160,135,309,-5.59,,,,,,,,,,,,
332643,1564153077345,3,2.4,0.83,0.31,1.41,1.04,0.84,-0.04,0.55,5,-3,6,0.85,8307,19,101,44,35,943,308.0,551,468,60,124.0,188,1,304,190,59,0,0,309,28160,-30976,308,-5.59,44.680855,10.024671,31.19,174.5,0,0.0,-1,0.0,0.0,0,2.18,5.5441
332663,1564153077365,-2,2.4,0.82,0.31,1.41,1.04,0.91,-0.04,0.57,5,-2,6,0.91,8344,19,101,44,35,946,309.0,555,465,60,125.0,188,1,304,191,59,0,0,309,28160,-25856,309,-5.59,,,,,,,,,,,,
332683,1564153077385,2,2.41,0.82,0.3,1.4,1.04,0.76,-0.05,0.5,5,-2,7,0.76,8355,19,101,44,35,947,311.0,567,466,60,124.0,194,1,305,191,60,0,0,309,26880,-30976,311,-5.59,,,,,,,,,,,,
332703,1564153077404,-1,2.42,0.82,0.31,1.4,1.05,0.84,-0.02,0.59,6,-0,7,0.84,8322,19,101,44,35,946,309.0,555,466,60,124.0,194,1,304,190,60,0,0,310,105,145,309,-5.59,,,,,,,,,,,,
332723,1564153077424,3,2.43,0.83,0.31,1.41,1.04,0.68,-0.04,0.53,6,1,7,0.68,8318,19,101,44,35,944,310.0,561,466,60,125.0,194,1,304,190,60,0,0,307,105,140,310,-5.59,,,,,,,,,,,,
332743,1564153077444,-0,2.44,0.83,0.31,1.41,1.03,0.82,-0.09,0.57,6,1,7,0.82,8329,19,101,44,35,942,310.0,553,465,60,125.0,194,1,304,190,60,0,0,307,26880,-30976,310,-5.59,44.680851,10.024661,30.78,174.6,0,0.0,-1,0.0,0.0,0,2.18,5.5457
332763,1564153077464,4,2.47,0.83,0.31,1.41,1.05,0.76,-0.09,0.63,7,2,7,0.76,8374,19,101,44,35,939,310.0,555,467,60,125.0,194,1,305,191,60,0,0,305,100,140,310,-5.59,,,,,,,,,,,,
332783,1564153077484,1,2.47,0.84,0.31,1.42,1.05,0.76,-0.19,0.55,7,2,9,0.79,8374,19,101,44,36,936,310.0,553,466,60,123.0,193,1,308,190,60,0,0,307,95,-28416,310,-5.59,,,,,,,,,,,,
332803,1564153077504,0,2.48,0.85,0.31,1.43,1.05,0.75,-0.14,0.69,9,2,8,0.77,8314,19,101,44,35,933,312.0,543,466,60,124.0,193,1,304,190,60,0,0,306,23040,-29696,312,-5.59,,,,,,,,,,,,
332823,1564153077524,2,2.49,0.86,0.32,1.42,1.05,0.72,-0.23,0.56,9,1,9,0.75,8325,19,101,44,35,930,312.0,538,468,60,124.0,193,1,304,190,60,0,0,302,23040,145,312,-5.59,,,,,,,,,,,,
332843,1564153077544,-0,2.5,0.88,0.32,1.43,1.06,0.78,-0.21,0.71,11,2,9,0.81,8359,19,101,44,35,930,310.0,543,467,60,124.0,193,1,304,191,60,0,0,299,21760,-29696,310,-5.59,44.680847,10.024651,30.53,174.6,0,0.0,-1,0.0,0.0,0,2.18,5.5474
332863,1564153077564,3,2.51,0.89,0.33,1.44,1.07,0.73,-0.26,0.63,11,3,10,0.78,8366,19,101,44,35,930,312.0,543,467,60,123.0,193,1,305,191,60,0,0,298,20480,-29696,312,-5.59,,,,,,,,,,,,
332883,1564153077584,-0,2.53,0.89,0.32,1.44,1.06,0.79,-0.25,0.66,12,2,11,0.83,8385,19,101,44,35,931,313.0,551,465,60,124.0,191,1,305,192,60,0,0,299,0,140,313,-5.59,,,,,,,,,,,,
332903,1564153077604,2,2.53,0.89,0.32,1.44,1.06,0.71,-0.31,0.64,13,1,12,0.78,8325,19,101,44,35,932,312.0,553,467,60,125.0,191,1,304,190,60,0,0,297,0,140,312,-5.59,,,,,,,,,,,,
332923,1564153077624,2,2.54,0.9,0.32,1.44,1.07,0.75,-0.34,0.57,13,1,13,0.83,8337,19,101,44,35,933,311.0,559,466,60,123.0,191,1,304,191,60,0,0,296,0,140,311,-5.59,,,,,,,,,,,,
332943,1564153077644,-0,2.54,0.9,0.32,1.45,1.07,0.76,-0.32,0.62,14,1,14,0.82,8366,19,101,44,35,934,311.0,560,467,60,124.0,191,1,305,191,60,0,0,298,0,-29696,311,-5.59,44.680847,10.024641,30.39,174.6,0,0.0,-1,0.0,0.0,0,2.18,5.549
332963,1564153077664,2,2.55,0.89,0.32,1.44,1.06,0.75,-0.35,0.57,14,2,15,0.83,8355,19,101,44,35,937,311.0,557,468,60,123.0,191,1,305,191,60,0,0,296,0,-27136,311,-5.59,,,,,,,,,,,,
332983,1564153077684,0,2.55,0.9,0.32,1.45,1.07,0.78,-0.3,0.64,15,2,17,0.84,8325,19,101,44,35,940,311.0,551,466,60,124.0,193,1,304,190,60,0,0,293,0,-29696,311,-5.59,,,,,,,,,,,,
333003,1564153077704,1,2.57,0.88,0.31,1.44,1.05,0.74,-0.37,0.49,15,2,18,0.83,8314,19,101,45,35,941,312.0,550,462,60,122.0,193,1,304,190,60,0,0,294,10686,140,312,-5.59,,,,,,,,,,,,
333023,1564153077724,-1,2.59,0.88,0.31,1.44,1.06,0.81,-0.36,0.53,16,2,19,0.89,8325,19,101,44,35,943,311.0,547,465,60,123.0,193,1,304,191,60,0,0,291,10686,140,311,-5.59,,,,,,,,,,,,
333043,1564153077744,3,2.61,0.88,0.31,1.43,1.05,0.75,-0.43,0.47,17,2,20,0.86,8355,19,101,45,35,943,311.0,545,466,60,124.0,193,1,305,191,60,0,0,289,250,-27136,311,-5.59,44.680847,10.024631,30.4,174.6,0,0.0,-1,0.0,0.0,0,2.18,5.5507
333063,1564153077764,2,2.64,0.88,0.31,1.44,1.05,0.83,-0.42,0.49,18,1,20,0.93,8355,19,101,45,35,942,313.0,543,467,60,124.0,193,1,305,190,60,0,0,291,-1529,145,313,-5.59,,,,,,,,,,,,
333083,1564153077784,-4,2.67,0.88,0.3,1.43,1.06,0.81,-0.47,0.53,20,1,21,0.93,8322,19,101,45,35,941,313.0,547,466,60,124.0,191,1,304,190,60,0,0,288,24064,150,312,-5.59,,,,,,,,,,,,
333103,1564153077804,2,2.7,0.9,0.32,1.45,1.06,0.85,-0.49,0.46,20,-0,22,0.98,8303,19,101,45,35,939,313.0,543,466,60,123.0,191,1,304,190,60,0,0,285,250,-25856,313,-5.59,,,,,,,,,,,,
333123,1564153077824,-0,2.73,0.95,0.34,1.46,1.09,0.81,-0.48,0.53,22,0,23,0.94,8348,19,101,45,35,939,313.0,545,467,60,124.0,191,1,304,191,60,0,0,282,-1534,145,313,-5.59,,,,,,,,,,,,
333143,1564153077844,2,2.74,0.97,0.34,1.48,1.1,0.84,-0.61,0.42,23,-0,25,1.04,8329,19,101,45,35,938,313.0,562,468,60,123.0,191,1,304,190,60,0,0,280,250,-28416,313,-5.59,44.680843,10.02462,30.25,174.6,0,0.0,-1,0.0,0.0,0,2.18,5.5524
333163,1564153077864,-0,2.76,0.98,0.34,1.48,1.1,0.87,-0.61,0.51,25,1,27,1.06,8263,19,101,45,35,939,313.0,548,464,60,124.0,191,1,303,189,60,0,0,278,28160,-25856,313,-5.59,,,,,,,,,,,,
333183,1564153077884,1,2.75,0.98,0.35,1.48,1.09,0.87,-0.71,0.44,26,1,29,1.12,8259,19,101,45,35,940,317.0,550,470,60,123.0,187,1,303,189,59,0,0,274,250,140,317,-5.59,,,,,,,,,,,,
333203,1564153077904,-1,2.77,0.97,0.34,1.48,1.09,0.85,-0.68,0.54,27,2,30,1.09,8285,19,101,45,35,938,316.0,558,463,60,124.0,187,1,302,189,59,0,0,275,-1,145,316,-5.59,,,,,,,,,,,,
333223,1564153077924,1,2.77,0.96,0.35,1.47,1.09,0.87,-0.74,0.5,28,1,32,1.14,8252,19,101,45,35,936,315.0,551,467,60,124.0,187,1,303,193,59,0,0,271,-1,-28416,315,-5.59,,,,,,,,,,,,
333243,1564153077944,-0,2.78,0.97,0.34,1.48,1.09,0.86,-0.73,0.54,30,1,34,1.13,8198,19,101,45,35,932,315.0,544,465,60,124.0,187,1,301,112,59,0,0,271,-1,140,315,-5.59,44.680843,10.02461,29.86,174.6,0,0.0,-1,0.0,0.0,0,2.19,5.554
333263,1564153077964,2,2.78,0.96,0.34,1.47,1.1,0.89,-0.78,0.44,31,-1,36,1.18,8166,19,101,45,36,929,316.0,538,467,60,122.0,187,1,304,191,59,0,0,267,-1,140,316,-5.59,,,,,,,,,,,,
333283,1564153077984,0,2.77,0.97,0.34,1.48,1.09,0.88,-0.74,0.47,31,-0,36,1.15,8194,19,101,45,36,926,314.0,537,468,60,123.0,187,1,304,192,59,0,0,268,-1,145,314,-5.59,,,,,,,,,,,,
333303,1564153077996,1,2.78,0.97,0.34,1.47,1.1,0.92,-0.79,0.45,31,-2,38,1.22,8166,19,101,45,36,924,312.0,531,465,60,123.0,187,1,304,191,59,0,0,269,-1,-28416,312,-5.59,,,,,,,,,,,,
333323,1564153078016,3,2.78,0.97,0.35,1.48,1.1,0.87,-0.81,0.41,32,-3,39,1.19,8109,19,101,45,36,924,312.0,534,465,60,125.0,187,1,303,190,59,0,0,266,-1,135,312,-5.59,,,,,,,,,,,,
333343,1564153078036,-0,2.78,0.98,0.35,1.48,1.1,0.88,-0.81,0.47,32,-2,40,1.2,8099,19,101,45,36,925,313.0,529,466,60,123.0,187,1,302,190,59,0,0,264,-1,140,313,-5.59,44.680843,10.024599,29.58,174.5,0,0.0,-1,0.0,0.0,0,2.19,5.5557
333363,1564153078056,1,2.78,0.98,0.35,1.48,1.1,0.9,-0.88,0.37,32,-4,42,1.26,8057,19,101,45,36,925,310.0,532,465,60,124.0,187,1,302,195,59,0,0,264,-1,125,310,-5.59,,,,,,,,,,,,
333383,1564153078076,3,2.78,0.98,0.35,1.49,1.09,0.87,-0.87,0.41,33,-4,43,1.23,8026,19,101,45,37,926,310.0,527,465,60,124.0,190,1,304,195,59,0,0,262,-1,125,310,-5.59,,,,,,,,,,,,
333403,1564153078104,-1,2.78,0.98,0.35,1.49,1.1,0.89,-0.86,0.45,34,-3,43,1.23,8005,19,101,45,37,925,310.0,531,465,60,123.0,190,1,304,195,59,0,0,262,-1,130,310,-5.59,,,,,,,,,,,,
333423,1564153078124,2,2.78,0.98,0.35,1.48,1.1,0.84,-0.89,0.41,35,-3,44,1.22,8026,18,101,45,37,924,312.0,532,466,60,125.0,190,1,304,195,59,0,0,262,-1,125,312,-5.59,,,,,,,,,,,,
333443,1564153078144,5,2.78,0.98,0.34,1.49,1.09,0.83,-0.87,0.47,35,-3,44,1.2,7968,19,101,45,38,923,312.0,533,467,60,124.0,190,1,307,125,59,0,0,260,-1,135,312,-5.59,44.680843,10.024589,28.91,174.5,0,0.0,-1,0.0,0.0,0,2.19,5.5574
333463,1564153078164,-0,2.77,0.98,0.34,1.49,1.1,0.81,-0.89,0.46,36,-3,45,1.21,7938,19,101,45,38,921,311.0,538,468,60,124.0,190,1,307,199,59,0,0,259,-1,130,309,-5.59,,,,,,,,,,,,
333483,1564153078184,1,2.78,0.98,0.34,1.49,1.1,0.82,-0.93,0.39,36,-4,46,1.24,7985,19,101,45,38,919,308.0,526,466,60,123.0,194,1,307,199,60,0,0,259,-10440,125,308,-5.59,,,,,,,,,,,,
333503,1564153078204,3,2.78,0.98,0.35,1.48,1.1,0.8,-0.95,0.34,36,-3,46,1.25,7921,19,101,45,38,918,307.0,521,466,60,125.0,194,1,307,199,60,0,0,261,14337,120,307,-5.59,,,,,,,,,,,,
333523,1564153078224,-0,2.77,0.98,0.35,1.48,1.1,0.79,-0.91,0.39,36,-2,47,1.2,7908,19,101,45,38,916,306.0,523,470,60,123.0,194,1,307,199,60,0,0,260,14337,110,306,-5.59,,,,,,,,,,,,
333543,1564153078244,0,2.78,0.98,0.35,1.49,1.09,0.81,-0.93,0.37,36,-2,48,1.23,7921,19,101,45,38,913,306.0,524,466,60,124.0,194,1,307,199,60,0,0,257,506,120,306,-5.59,44.680843,10.024579,28.65,174.5,0,0.0,-1,0.0,0.0,0,2.19,5.5591
333563,1564153078264,1,2.78,0.98,0.35,1.49,1.1,0.81,-0.99,0.3,35,-3,49,1.28,7871,19,101,45,38,910,306.0,515,466,60,124.0,194,1,307,199,60,0,0,257,14337,110,306,-5.59,,,,,,,,,,,,
333583,1564153078284,3,2.78,0.98,0.35,1.49,1.1,0.79,-0.97,0.3,36,-2,48,1.25,7874,19,101,45,39,908,303.0,515,463,60,125.0,200,1,310,205,61,0,0,257,506,28160,303,-5.59,,,,,,,,,,,,
333603,1564153078304,-1,2.78,0.98,0.34,1.49,1.1,0.83,-0.93,0.36,36,-4,49,1.25,7864,19,101,45,39,906,303.0,519,466,60,124.0,200,1,310,205,61,0,0,256,506,105,303,-5.59,,,,,,,,,,,,
333623,1564153078324,0,2.78,0.98,0.35,1.48,1.1,0.91,-0.9,0.36,36,-4,48,1.28,7835,19,101,45,39,903,301.0,517,466,60,122.0,200,1,310,205,61,0,0,254,506,26880,301,-5.59,,,,,,,,,,,,
333643,1564153078344,2,2.77,0.97,0.35,1.49,1.1,0.95,-0.93,0.32,36,-5,49,1.33,7841,19,101,45,39,902,302.0,521,466,60,123.0,200,1,310,205,61,0,0,254,-1281,26880,302,-5.59,44.680847,10.02457,28.2,174.5,0,0.0,-1,0.0,0.0,0,2.19,5.5607
333663,1564153078364,2,2.78,0.98,0.35,1.48,1.1,0.94,-0.94,0.22,36,-4,49,1.33,7789,19,101,45,39,901,302.0,519,465,60,124.0,200,1,310,205,61,0,0,253,-1281,105,302,-5.59,,,,,,,,,,,,
333683,1564153078384,4,2.77,0.97,0.34,1.49,1.1,0.93,-0.89,0.24,36,-3,49,1.29,7835,19,101,45,40,901,302.0,521,466,60,124.0,198,1,317,205,60,0,0,252,-1,100,302,-5.59,,,,,,,,,,,,
333703,1564153078403,-1,2.78,0.98,0.35,1.48,1.1,0.96,-0.83,0.29,37,-3,49,1.26,7822,19,101,45,40,898,300.0,520,468,60,123.0,198,1,317,206,60,0,0,253,-1,24320,300,-5.59,,,,,,,,,,,,
333723,1564153078423,1,2.78,0.98,0.35,1.49,1.1,0.95,-0.86,0.3,37,-2,49,1.28,7805,19,101,45,40,896,299.0,524,463,60,123.0,198,1,317,206,60,0,0,252,-1,95,299,-5.59,,,,,,,,,,,,
333743,1564153078443,3,2.77,0.98,0.35,1.49,1.1,0.92,-0.87,0.26,37,-3,48,1.27,7858,19,101,45,40,895,298.0,526,468,60,124.0,198,1,317,206,60,0,0,250,10818,100,298,-5.59,44.680847,10.02456,28.47,174.5,0,0.0,-1,0.0,0.0,0,2.19,5.5624
333763,1564153078463,4,2.77,0.98,0.35,1.48,1.1,0.84,-0.88,0.29,37,-1,48,1.22,7815,19,101,45,40,894,298.0,514,462,60,125.0,198,1,317,206,60,0,0,248,10818,25600,297,-5.59,,,,,,,,,,,,
333783,1564153078483,1,2.78,0.98,0.34,1.48,1.1,0.84,-0.85,0.3,37,-1,48,1.19,7841,19,101,45,40,895,296.0,515,468,60,123.0,205,1,317,206,61,0,0,249,10818,85,296,-5.59,,,,,,,,,,,,
333803,1564153078505,-2,2.78,0.98,0.34,1.48,1.1,0.86,-0.84,0.39,38,-1,49,1.2,7838,19,101,45,40,896,296.0,516,463,60,123.0,205,1,317,206,61,0,0,248,10818,90,296,-5.59,,,,,,,,,,,,
333823,1564153078525,3,2.77,0.98,0.34,1.48,1.1,0.89,-0.86,0.37,37,-1,49,1.24,7812,19,101,45,40,899,297.0,512,465,60,123.0,205,1,317,206,61,0,0,248,250,23040,297,-5.59,,,,,,,,,,,,
333843,1564153078545,2,2.77,0.97,0.34,1.49,1.1,0.87,-0.88,0.31,37,-1,49,1.24,7832,19,101,45,40,902,295.0,520,466,60,124.0,205,1,317,206,61,0,0,247,250,85,295,-5.59,44.680847,10.024552,27.48,174.5,0,0.0,-1,0.0,0.0,0,2.19,5.5641
333863,1564153078565,3,2.78,0.98,0.35,1.48,1.1,0.88,-0.85,0.29,38,-2,49,1.23,7805,19,101,45,40,908,293.0,517,463,60,125.0,205,1,317,206,61,0,0,246,-1494,85,293,-5.59,,,,,,,,,,,,
333883,1564153078585,0,2.78,0.97,0.34,1.48,1.1,0.93,-0.84,0.37,38,-1,48,1.25,7825,19,101,45,40,913,293.0,515,465,60,124.0,204,1,317,206,60,0,0,244,10812,21760,293,-5.59,,,,,,,,,,,,
333903,1564153078603,-0,2.78,0.98,0.34,1.48,1.1,0.94,-0.83,0.46,38,-1,49,1.25,7812,19,101,45,40,916,293.0,520,465,60,123.0,204,1,317,206,60,0,0,245,10812,80,292,-5.59,,,,,,,,,,,,
333923,1564153078623,1,2.78,0.98,0.35,1.47,1.1,0.94,-0.87,0.41,38,0,48,1.29,7793,19,101,45,40,919,292.0,530,466,60,123.0,204,1,317,206,60,0,0,241,-1445,0,292,-5.59,,,,,,,,,,,,
333943,1564153078643,1,2.79,0.97,0.34,1.48,1.09,0.89,-0.87,0.33,38,0,48,1.25,7815,19,101,45,40,922,290.0,521,466,60,125.0,204,1,317,206,60,0,0,241,-1445,0,290,-5.59,44.680855,10.024544,27.35,174.6,0,0.0,-1,0.0,0.0,0,2.19,5.5657
333963,1564153078663,4,2.79,0.97,0.34,1.47,1.09,0.89,-0.88,0.33,38,-0,48,1.25,7776,19,101,45,40,926,288.0,523,466,60,124.0,204,1,317,206,60,0,0,240,23482,0,288,-5.59,,,,,,,,,,,,
333983,1564153078683,0,2.8,0.97,0.34,1.48,1.1,0.86,-0.85,0.38,37,0,48,1.21,7793,19,101,45,40,926,288.0,526,466,60,125.0,208,1,317,206,60,0,0,240,-1484,-16896,288,-5.59,,,,,,,,,,,,
334003,1564153078703,0,2.8,0.97,0.34,1.48,1.1,0.88,-0.83,0.42,37,-2,49,1.21,7789,19,101,45,40,926,285.0,527,464,60,123.0,208,1,317,206,60,0,0,237,13468,10686,285,-5.59,,,,,,,,,,,,
334023,1564153078723,1,2.81,0.97,0.34,1.48,1.09,0.9,-0.86,0.39,36,-2,49,1.24,7747,19,101,45,40,928,285.0,514,465,60,124.0,208,1,317,206,60,0,0,236,-25600,250,285,-5.59,,,,,,,,,,,,
334043,1564153078743,3,2.8,0.98,0.34,1.49,1.09,0.89,-0.86,0.35,37,-2,49,1.24,7783,19,101,45,40,930,285.0,517,466,60,124.0,208,1,317,206,60,0,0,234,-25600,250,285,-5.59,44.680859,10.024536,26.28,174.6,0,0.0,-1,0.0,0.0,0,2.19,5.5674
334063,1564153078763,5,2.8,0.98,0.34,1.48,1.1,0.91,-0.84,0.28,37,-2,50,1.24,7744,19,101,45,40,931,285.0,516,465,60,125.0,208,1,317,206,60,0,0,231,8704,-1529,285,-5.59,,,,,,,,,,,,
334083,1564153078783,5,2.81,0.97,0.34,1.47,1.09,0.92,-0.76,0.31,38,-1,49,1.2,7789,19,101,45,40,933,283.0,514,462,60,125.0,212,1,317,206,60,0,0,231,8704,24064,283,-5.59,,,,,,,,,,,,
334103,1564153078803,2,2.81,0.96,0.34,1.47,1.09,0.93,-0.73,0.34,39,-2,49,1.18,7786,19,101,45,40,934,281.0,509,467,60,124.0,212,1,317,206,60,0,0,228,10824,-1534,279,-5.59,,,,,,,,,,,,
334123,1564153078823,4,2.8,0.97,0.34,1.48,1.09,0.92,-0.75,0.39,38,-1,49,1.19,7760,19,101,45,40,936,277.0,512,466,60,123.0,212,1,317,206,60,0,0,226,10824,2414,277,-5.59,,,,,,,,,,,,
334143,1564153078843,6,2.8,0.98,0.34,1.48,1.09,0.95,-0.82,0.34,38,-3,49,1.26,7805,19,101,45,40,937,276.0,519,466,60,122.0,212,1,317,206,60,0,0,223,250,250,276,-5.59,44.680862,10.024529,26.15,174.5,0,0.0,-1,0.0,0.0,0,2.19,5.569
334163,1564153078863,6,2.81,0.97,0.33,1.49,1.1,0.95,-0.86,0.26,38,-3,49,1.28,7773,19,101,45,40,938,273.0,516,466,60,125.0,212,1,317,206,60,0,0,222,10318,-1281,273,-5.59,,,,,,,,,,,,
334183,1564153078883,6,2.81,0.96,0.33,1.47,1.09,0.98,-0.81,0.15,37,-3,50,1.27,7789,19,101,45,40,935,271.0,519,466,60,124.0,219,1,317,206,60,0,0,217,-1530,-1,271,-5.59,,,,,,,,,,,,
334203,1564153078905,4,2.8,0.97,0.34,1.48,1.09,0.97,-0.75,0.25,37,-4,51,1.22,7763,19,101,45,40,932,269.0,519,466,60,122.0,219,1,317,206,60,0,0,215,1596,-1,269,-5.59,,,,,,,,,,,,
334223,1564153078925,3,2.81,0.97,0.34,1.48,1.09,0.97,-0.71,0.33,36,-2,51,1.2,7773,19,101,45,40,928,268.0,520,464,60,123.0,219,1,317,206,60,0,0,208,15360,-1,268,-5.59,,,,,,,,,,,,
334243,1564153078945,6,2.81,0.96,0.34,1.47,1.08,0.99,-0.75,0.3,35,-3,51,1.24,7805,19,101,45,40,925,266.0,519,464,60,125.0,219,1,317,206,60,0,0,197,-17920,-1,266,-5.59,44.680866,10.024524,25.51,174.5,0,0.0,-1,0.0,0.0,0,2.19,5.5707
334263,1564153078965,7,2.81,0.97,0.33,1.47,1.09,1.01,-0.77,0.2,35,-3,50,1.27,7770,19,101,45,40,920,263.0,526,466,60,125.0,219,1,317,208,60,0,0,197,250,-1,263,-5.59,,,,,,,,,,,,
334283,1564153078985,7,2.82,0.96,0.34,1.47,1.09,0.99,-0.75,0.17,36,-2,49,1.24,7793,19,101,45,40,915,261.0,519,464,60,124.0,229,1,317,206,60,0,0,212,16384,-41,261,-5.59,,,,,,,,,,,,
334303,1564153078995,5,2.81,0.94,0.33,1.47,1.08,0.99,-0.69,0.22,37,-2,49,1.21,7767,19,101,45,40,911,259.0,515,465,60,124.0,229,1,317,206,60,0,0,210,250,-41,259,-5.59,,,,,,,,,,,,
334323,1564153079015,5,2.82,0.96,0.34,1.48,1.09,0.98,-0.7,0.31,37,-1,49,1.21,7767,19,101,45,40,910,258.0,520,466,60,122.0,229,1,317,206,60,0,0,208,-1533,506,258,-5.59,,,,,,,,,,,,
334343,1564153079035,4,2.82,0.97,0.34,1.47,1.09,1.06,-0.76,0.27,37,-2,49,1.3,7773,19,101,45,40,907,257.0,514,463,60,123.0,229,1,317,206,60,0,0,205,250,-1,257,-5.59,44.680874,10.02452,24.16,174.5,0,0.0,-1,0.0,0.0,0,2.19,5.5724
334363,1564153079055,6,2.82,0.97,0.34,1.47,1.09,1.1,-0.81,0.22,36,-2,49,1.37,7770,19,101,45,40,904,254.0,511,464,60,125.0,229,1,317,206,60,0,0,204,-1482,10818,254,-5.59,,,,,,,,,,,,
334383,1564153079075,7,2.82,0.97,0.34,1.47,1.09,1.14,-0.8,0.18,36,-2,49,1.39,7796,18,101,45,40,900,252.0,514,465,60,125.0,238,1,317,206,60,0,0,201,-1482,16896,252,-5.59,,,,,,,,,,,,
334403,1564153079105,8,2.82,0.97,0.34,1.48,1.1,1.15,-0.75,0.15,36,-2,50,1.37,7754,19,101,45,40,898,250.0,521,464,60,125.0,238,1,317,206,60,0,0,201,13874,10812,250,-5.59,,,,,,,,,,,,
334423,1564153079125,6,2.82,0.97,0.34,1.47,1.09,1.16,-0.69,0.2,36,-2,49,1.35,7770,19,101,45,41,896,246.0,519,464,60,123.0,238,1,325,206,60,0,0,203,13874,-1445,246,-5.59,,,,,,,,,,,,
334443,1564153079145,6,2.82,0.97,0.34,1.47,1.09,1.15,-0.68,0.27,36,-2,48,1.34,7789,19,101,45,40,894,243.0,518,465,60,124.0,238,1,317,206,60,0,0,195,-1480,23482,243,-5.59,44.680878,10.024516,24.01,174.5,0,0.0,-1,0.0,0.0,0,2.19,5.574
334463,1564153079165,5,2.82,0.96,0.34,1.47,1.1,1.12,-0.71,0.26,35,-1,47,1.33,7754,19,101,45,40,892,240.0,526,464,60,124.0,238,1,317,206,60,0,0,191,19456,-1484,240,-5.59,,,,,,,,,,,,
334483,1564153079185,5,2.83,0.96,0.34,1.47,1.09,1.03,-0.68,0.21,35,-2,47,1.24,7802,19,101,45,40,893,238.0,521,466,60,124.0,256,1,317,206,61,0,0,190,-1481,-1483,237,-5.59,,,,,,,,,,,,
334503,1564153079205,7,2.83,0.96,0.34,1.47,1.1,1.0,-0.61,0.27,35,-2,46,1.18,7783,19,101,45,40,893,236.0,525,463,60,125.0,256,1,317,132,61,0,0,189,14326,8704,236,-5.59,,,,,,,,,,,,
334523,1564153079225,4,2.82,0.97,0.34,1.47,1.1,0.99,-0.62,0.36,35,-2,45,1.16,7796,19,101,45,40,891,234.0,523,466,60,123.0,256,1,317,206,61,0,0,187,-1281,13602,234,-5.59,,,,,,,,,,,,
334543,1564153079245,6,2.82,0.97,0.34,1.48,1.09,1.05,-0.69,0.4,34,-3,45,1.26,7828,19,101,45,40,890,231.0,523,465,60,124.0,256,1,317,206,61,0,0,183,-1,18432,231,-5.59,44.680885,10.024513,22.26,174.5,0,0.0,-1,0.0,0.0,0,2.19,5.5757
334563,1564153079265,7,2.82,0.97,0.34,1.48,1.1,1.11,-0.66,0.38,33,-4,45,1.29,7815,19,101,45,40,888,228.0,519,465,60,124.0,256,1,317,206,61,0,0,179,-1,18432,228,-5.59,,,,,,,,,,,,
334583,1564153079285,8,2.82,0.98,0.35,1.49,1.1,1.04,-0.57,0.3,33,-4,44,1.19,7819,18,101,45,40,886,227.0,521,462,60,125.0,268,1,317,206,61,0,0,180,-1,250,227,-5.59,,,,,,,,,,,,
334603,1564153079305,11,2.81,0.98,0.35,1.48,1.11,1.06,-0.54,0.28,33,-4,45,1.19,7796,19,101,45,40,884,223.0,517,463,60,125.0,268,1,317,206,61,0,0,180,-1,250,223,-5.59,,,,,,,,,,,,
334623,1564153079325,7,2.81,0.97,0.35,1.48,1.11,1.13,-0.57,0.36,32,-2,45,1.26,7799,19,101,45,40,881,220.0,516,465,60,124.0,268,1,317,206,61,0,0,179,-1,250,220,-5.59,,,,,,,,,,,,
334643,1564153079345,8,2.79,0.98,0.35,1.48,1.1,1.21,-0.59,0.39,32,-3,43,1.35,7841,19,101,45,40,881,218.0,518,463,60,124.0,268,1,317,206,61,0,0,174,-1,-17920,216,-5.59,44.680889,10.024512,21.2,174.5,0,0.0,-1,0.0,0.0,0,2.2,5.5774
334663,1564153079365,10,2.79,0.97,0.35,1.48,1.1,1.17,-0.57,0.29,31,-2,43,1.3,7809,19,101,45,40,881,214.0,519,463,60,125.0,268,1,317,206,61,0,0,173,3584,250,214,-5.59,,,,,,,,,,,,
334683,1564153079385,12,2.76,0.97,0.35,1.48,1.1,1.09,-0.47,0.18,31,-1,44,1.18,7861,19,101,45,40,882,210.0,521,465,60,125.0,287,1,317,206,61,0,0,171,250,-14848,210,-5.59,,,,,,,,,,,,
334703,1564153079404,9,2.75,0.97,0.35,1.48,1.1,1.09,-0.43,0.25,31,-0,42,1.17,7881,19,101,45,40,882,207.0,526,468,60,124.0,287,1,317,206,61,0,0,169,31744,-29696,207,-5.59,,,,,,,,,,,,
334723,1564153079424,9,2.73,0.96,0.35,1.48,1.1,1.13,-0.47,0.31,30,0,41,1.22,7848,19,101,45,40,884,202.0,534,465,60,123.0,287,1,317,206,61,0,0,169,-1,13874,202,-5.59,,,,,,,,,,,,
334743,1564153079444,11,2.7,0.96,0.34,1.47,1.09,1.07,-0.4,0.23,29,-1,41,1.14,7898,19,101,45,40,885,200.0,529,465,60,123.0,287,1,317,206,61,0,0,168,-1,12800,200,-5.59,44.680893,10.024511,20.6,174.5,0,0.0,-1,0.0,0.0,0,2.2,5.5791
334763,1564153079464,13,2.68,0.94,0.34,1.46,1.09,1.01,-0.37,0.22,29,-1,39,1.07,7864,19,101,45,40,890,195.0,528,464,60,125.0,287,1,317,206,61,0,0,165,888,-1481,195,-5.59,,,,,,,,,,,,
334783,1564153079484,11,2.65,0.93,0.33,1.45,1.08,1.04,-0.39,0.23,28,-0,38,1.11,7894,19,101,45,40,895,191.0,524,467,60,123.0,319,1,317,205,61,0,0,162,-1494,250,191,-5.59,,,,,,,,,,,,
334803,1564153079502,10,2.64,0.91,0.33,1.44,1.08,1.09,-0.4,0.23,26,-0,37,1.16,7904,19,101,45,40,898,186.0,528,465,60,124.0,319,1,317,206,61,0,0,161,250,-1,186,-5.59,,,,,,,,,,,,
334823,1564153079522,13,2.61,0.9,0.32,1.42,1.07,1.04,-0.35,0.15,25,-2,35,1.09,7884,19,101,45,40,902,181.0,524,464,60,125.0,319,1,317,206,61,0,0,158,-1,-1,181,-5.59,,,,,,,,,,,,
334843,1564153079542,13,2.58,0.89,0.32,1.41,1.06,1.01,-0.26,0.09,24,-1,34,1.04,7924,19,101,45,40,904,178.0,528,463,60,125.0,319,1,317,206,61,0,0,157,-165,-236,175,-5.59,44.680901,10.024511,18.69,174.4,0,0.0,-1,0.0,0.0,0,2.2,5.5807
334863,1564153079562,10,2.55,0.88,0.32,1.41,1.06,1.1,-0.29,0.17,23,-2,33,1.14,7941,19,101,45,40,907,172.0,524,466,60,125.0,319,1,317,206,61,0,0,155,-23552,3584,172,-5.59,,,,,,,,,,,,
334883,1564153079582,11,2.52,0.87,0.31,1.4,1.05,1.13,-0.24,0.17,21,-3,32,1.16,7888,19,101,45,39,906,169.0,523,464,60,124.0,360,1,310,205,61,0,0,152,-1281,-1,169,-5.59,,,,,,,,,,,,
334903,1564153079602,13,2.48,0.85,0.31,1.39,1.05,1.07,-0.12,0.08,20,-2,30,1.08,7901,18,101,45,39,905,165.0,528,465,60,125.0,360,1,310,205,61,0,0,151,-1,888,165,-5.59,,,,,,,,,,,,
334923,1564153079622,15,2.45,0.85,0.31,1.37,1.05,1.13,-0.11,0.08,18,-3,29,1.13,7904,19,101,45,39,901,157.0,526,466,60,125.0,360,1,310,205,61,0,0,149,-1,250,157,-5.59,,,,,,,,,,,,
334943,1564153079642,12,2.42,0.83,0.3,1.36,1.04,1.22,-0.11,0.16,16,-3,27,1.22,7924,19,101,45,39,897,153.0,532,465,60,123.0,360,1,310,205,61,0,0,147,5140,-1,153,-5.59,44.680904,10.024511,17.33,174.4,0,0.0,-1,0.0,0.0,0,2.2,5.5824
334963,1564153079662,11,2.4,0.8,0.3,1.35,1.02,1.18,-0.05,0.16,15,-2,24,1.18,7982,19,101,45,39,894,149.0,529,465,60,125.0,360,1,310,131,61,0,0,145,5120,-1281,149,-5.59,,,,,,,,,,,,
334983,1564153079682,14,2.36,0.78,0.28,1.34,1.01,1.18,0.02,0.11,14,-1,23,1.18,7938,19,101,45,39,892,145.0,532,464,60,125.0,420,1,310,205,61,0,0,143,-1,-1,145,-5.59,,,,,,,,,,,,
335003,1564153079702,10,2.34,0.77,0.28,1.31,1.01,1.26,-0.02,0.19,12,-0,20,1.26,7955,19,101,45,39,886,142.0,532,468,60,124.0,420,1,310,205,61,0,0,141,-1,-1,142,-5.59,,,,,,,,,,,,
335023,1564153079722,12,2.3,0.76,0.28,1.31,1.01,1.24,0.01,0.21,11,-0,18,1.24,7992,19,101,45,39,880,137.0,534,466,60,123.0,420,1,310,205,61,0,0,138,-1,-1281,137,-5.59,,,,,,,,,,,,
335043,1564153079742,14,2.27,0.76,0.28,1.32,1.01,1.22,0.1,0.12,10,-0,17,1.22,7944,19,101,45,39,874,134.0,535,466,60,124.0,420,1,310,205,61,0,0,136,-1,-1,134,-5.59,44.680908,10.024512,15.38,174.4,0,0.0,-1,0.0,0.0,0,2.2,5.5841
335063,1564153079762,10,2.25,0.76,0.28,1.32,1.01,1.27,0.06,0.15,9,0,15,1.27,7995,19,101,45,39,870,130.0,530,466,60,124.0,420,1,310,205,61,0,0,133,-1,-1,130,181.28,,,,,,,,,,,,
335083,1564153079782,11,2.22,0.77,0.28,1.32,1.01,1.26,0.03,0.19,8,1,12,1.26,7948,19,101,45,39,867,127.0,535,466,60,124.0,492,1,310,205,62,0,0,129,-202,-202,126,-5.59,,,,,,,,,,,,
335103,1564153079802,12,2.21,0.76,0.28,1.32,1.0,1.23,0.12,0.1,7,0,11,1.23,7904,19,101,45,39,865,124.0,528,464,60,125.0,492,1,310,205,62,0,0,129,250,250,121,-5.59,,,,,,,,,,,,
335123,1564153079822,9,2.2,0.76,0.27,1.32,1.01,1.23,0.1,0.08,6,2,9,1.23,7985,19,101,45,39,864,121.0,530,468,60,124.0,492,1,310,205,62,0,0,127,9728,250,118,-5.59,,,,,,,,,,,,
335143,1564153079842,10,2.2,0.77,0.28,1.32,1.01,1.23,0.05,0.14,5,1,6,1.23,7999,19,101,45,39,866,118.0,528,467,60,124.0,492,1,310,205,62,0,0,124,13856,-1482,114,-5.59,44.680912,10.024512,14.17,174.4,0,0.0,-1,0.0,0.0,0,2.2,5.5857
335163,1564153079862,11,2.21,0.76,0.28,1.33,1.01,1.17,0.11,0.1,4,1,6,1.18,7985,19,101,45,39,869,115.0,540,465,60,125.0,492,1,310,205,62,0,0,120,-1482,-1482,111,-5.59,,,,,,,,,,,,
335183,1564153079882,9,2.22,0.78,0.28,1.33,1.01,1.22,0.09,0.09,4,2,5,1.23,8029,19,101,45,39,873,115.0,532,467,60,124.0,558,1,310,200,62,0,0,117,-1482,250,108,-5.59,,,,,,,,,,,,
335203,1564153079902,9,2.23,0.79,0.29,1.35,1.03,1.2,0.04,0.14,3,1,3,1.2,8043,19,101,45,39,876,112.0,534,465,60,124.0,558,1,310,200,62,0,0,114,250,13844,108,-5.59,,,,,,,,,,,,
335223,1564153079922,10,2.24,0.8,0.29,1.34,1.03,1.15,0.12,0.06,3,1,3,1.16,8047,19,101,45,38,878,108.0,539,463,60,125.0,558,1,307,200,62,0,0,111,250,13838,105,-5.59,,,,,,,,,,,,
335243,1564153079942,9,2.25,0.81,0.3,1.37,1.03,1.24,0.04,0.11,2,2,2,1.24,8109,19,101,45,38,878,104.0,542,465,60,125.0,558,1,309,200,62,0,0,106,250,-1482,101,-5.59,44.680916,10.024512,11.91,174.3,0,0.0,-1,0.0,0.0,0,2.2,5.5874
335263,1564153079962,9,2.26,0.82,0.3,1.36,1.04,1.15,0.01,0.16,2,2,1,1.15,8127,19,101,45,38,877,101.0,540,467,60,124.0,558,1,309,200,62,0,0,106,2048,-1483,97,-5.59,,,,,,,,,,,,
335283,1564153079982,9,2.26,0.83,0.3,1.38,1.04,1.22,0.06,0.17,2,2,1,1.23,8106,19,101,45,38,875,101.0,550,463,60,125.0,628,1,309,200,61,0,0,102,2048,-1483,97,-5.59,,,,,,,,,,,,
335303,1564153079992,11,2.26,0.83,0.3,1.39,1.04,1.25,0.04,0.16,1,0,1,1.25,8134,19,101,45,38,872,96.0,539,466,60,123.0,628,1,309,201,61,0,0,98,250,-1481,94,-5.59,,,,,,,,,,,,
335323,1564153080012,13,2.26,0.83,0.3,1.39,1.04,1.21,0.09,0.15,0,1,0,1.21,8180,19,101,45,37,869,92.0,539,465,60,125.0,628,1,307,196,61,0,0,94,250,-1481,90,-5.59,,,,,,,,,,,,
335343,1564153080032,10,2.28,0.83,0.31,1.38,1.05,1.28,-0.01,0.19,-0,-1,0,1.28,8198,19,101,45,38,867,92.0,539,465,60,123.0,628,1,310,195,61,0,0,94,250,-1481,90,-5.59,44.680916,10.024512,10.65,174.3,0,0.0,-1,0.0,0.0,0,2.2,5.589
335363,1564153080052,11,2.29,0.83,0.31,1.38,1.04,1.15,0.0,0.15,-0,0,-0,1.15,8162,19,101,45,37,865,87.0,541,463,60,125.0,628,1,307,195,61,0,0,89,-1481,-1481,85,-5.59,,,,,,,,,,,,
335383,1564153080072,10,2.29,0.83,0.3,1.39,1.04,1.23,-0.05,0.2,-1,-1,-0,1.23,8209,19,101,45,37,867,82.0,539,463,60,125.0,705,1,308,123,60,0,0,84,14270,14270,81,-5.59,,,,,,,,,,,,
335403,1564153080104,14,2.3,0.83,0.3,1.39,1.05,1.06,0.04,0.12,-0,1,0,1.06,8230,19,101,45,37,869,82.0,556,465,60,125.0,705,1,308,197,60,0,0,84,14270,14270,81,-5.59,,,,,,,,,,,,
335423,1564153080124,10,2.32,0.84,0.31,1.38,1.05,1.16,0.04,0.16,-0,1,-0,1.16,8263,19,101,45,37,876,77.0,538,469,60,123.0,705,1,309,197,60,0,0,79,-20480,-20480,76,-5.59,,,,,,,,,,,,
335443,1564153080144,12,2.33,0.84,0.31,1.39,1.05,1.02,0.06,0.14,0,1,-0,1.02,8245,19,101,45,37,883,77.0,548,463,60,124.0,705,1,308,197,60,0,0,79,-20480,-20480,76,-5.59,44.68092,10.024512,9.13,174.3,0,0.0,-1,0.0,0.0,0,2.2,5.5907
335463,1564153080164,9,2.33,0.84,0.31,1.38,1.05,1.12,-0.0,0.17,-0,1,-0,1.12,8234,19,101,45,37,889,71.0,551,466,60,124.0,705,1,308,193,60,0,0,74,-1481,250,71,-5.59,,,,,,,,,,,,
335483,1564153080184,11,2.33,0.84,0.31,1.39,1.05,1.0,0.02,0.19,-0,2,-1,1.0,8274,19,101,45,37,896,71.0,553,463,60,123.0,845,1,309,197,60,0,0,74,-1481,250,71,-5.59,,,,,,,,,,,,
335503,1564153080204,10,2.33,0.84,0.31,1.39,1.05,1.1,-0.03,0.23,-1,-0,-0,1.1,8234,19,101,45,36,907,66.0,551,462,60,125.0,845,1,306,193,60,0,0,67,-6656,-1482,66,-5.59,,,,,,,,,,,,
335523,1564153080224,12,2.33,0.84,0.31,1.39,1.06,0.98,-0.04,0.17,-1,0,-0,0.98,8259,19,101,45,36,919,66.0,551,459,60,124.0,845,1,306,197,60,0,0,67,-6656,-1482,66,-5.59,,,,,,,,,,,,
335543,1564153080244,11,2.32,0.85,0.31,1.39,1.06,1.07,-0.07,0.21,-1,-1,-0,1.07,8263,19,101,45,37,924,59.0,549,466,60,124.0,845,1,309,194,60,0,0,61,-1,-1,59,-5.59,44.680923,10.024512,7.36,174.3,0,0.0,-1,0.0,0.0,0,2.2,5.5924
335563,1564153080264,13,2.33,0.85,0.31,1.39,1.06,0.95,0.03,0.17,-0,1,-0,0.95,8303,19,101,45,35,930,59.0,550,462,60,124.0,845,1,304,194,60,0,0,61,-1,-1,59,-5.59,,,,,,,,,,,,
335583,1564153080284,12,2.32,0.84,0.31,1.4,1.05,1.0,0.03,0.18,0,0,0,1.0,8278,19,101,45,36,934,52.0,544,463,60,124.0,1033,1,307,194,61,0,0,54,-1,-1,52,-5.59,,,,,,,,,,,,
335603,1564153080300,5,2.32,0.85,0.31,1.39,1.06,0.97,0.1,0.16,1,1,0,0.98,8292,19,101,45,36,939,52.0,545,465,60,125.0,1033,1,306,194,61,0,0,54,-1,-1,52,-5.59,,,,,,,,,,,,
335623,1564153080320,11,2.33,0.84,0.31,1.39,1.06,1.04,0.06,0.16,-0,-0,0,1.04,8307,19,101,45,36,939,52.0,544,461,60,124.0,1033,1,307,195,61,0,0,54,-1,-1,52,-5.59,,,,,,,,,,,,
335643,1564153080340,9,2.33,0.85,0.31,1.39,1.05,1.08,0.09,0.17,-0,1,0,1.08,8351,19,101,45,36,939,45.0,552,467,60,125.0,1033,1,308,195,61,0,0,47,-1,-1,44,-5.59,44.680923,10.024512,6.09,174.3,0,0.0,-1,0.0,0.0,0,2.2,5.594
335663,1564153080360,10,2.33,0.85,0.31,1.39,1.06,0.98,0.06,0.13,-0,0,0,0.98,8370,19,101,45,36,937,45.0,558,456,60,124.0,1033,1,308,195,61,0,0,47,-1,-1,44,-5.59,,,,,,,,,,,,
335683,1564153080380,10,2.32,0.85,0.31,1.4,1.06,1.08,0.08,0.22,0,0,-0,1.08,8348,19,101,45,35,937,45.0,553,455,60,125.0,1386,1,304,191,61,0,0,47,-1,-1,44,-5.59,,,,,,,,,,,,
335703,1564153080403,13,2.33,0.84,0.31,1.39,1.05,0.95,0.08,0.19,0,1,-0,0.96,8355,19,101,45,35,936,45.0,564,461,60,125.0,1386,1,305,195,61,0,0,37,-1,-1,44,-5.59,,,,,,,,,,,,
335723,1564153080423,11,2.33,0.84,0.31,1.4,1.05,1.06,0.04,0.23,-0,0,-0,1.06,8370,19,101,45,35,935,35.0,556,465,60,124.0,1386,1,305,191,61,0,0,37,-1,-1,35,-5.59,,,,,,,,,,,,
335743,1564153080443,10,2.33,0.84,0.31,1.39,1.05,1.04,0.08,0.26,-0,1,-0,1.04,8419,19,101,45,35,933,35.0,557,458,60,125.0,1386,1,306,193,61,0,0,37,-1,-1,35,-5.59,44.680923,10.024511,4.55,174.3,0,0.0,-1,0.0,0.0,0,2.2,5.5957
335763,1564153080463,12,2.33,0.84,0.31,1.39,1.05,1.0,0.01,0.24,-1,-0,-1,1.0,8385,19,101,45,35,931,35.0,566,458,60,123.0,1386,1,305,191,61,0,0,37,-1,-1,35,-5.59,,,,,,,,,,,,
335783,1564153080483,10,2.32,0.84,0.31,1.39,1.05,1.06,0.04,0.27,-0,1,-1,1.06,8366,19,101,45,35,930,35.0,555,464,60,125.0,1742,1,305,191,61,0,0,37,-1,-1,35,-5.59,,,,,,,,,,,,
335803,1564153080503,12,2.33,0.85,0.32,1.4,1.05,0.93,0.02,0.25,0,1,-1,0.93,8374,19,101,45,35,929,35.0,553,462,60,125.0,1742,1,305,191,61,0,0,24,-1,-1,35,-5.59,,,,,,,,,,,,
335823,1564153080523,10,2.32,0.85,0.31,1.4,1.05,1.04,0.0,0.27,-0,0,-1,1.04,8396,19,101,45,35,930,35.0,556,463,60,124.0,1742,1,305,193,61,0,0,24,-1,-1281,35,-5.59,,,,,,,,,,,,
335843,1564153080543,10,2.33,0.85,0.31,1.39,1.05,1.0,0.02,0.29,-0,2,-1,1.0,8438,19,101,45,35,932,22.0,553,461,60,124.0,1742,1,306,193,61,0,0,24,-1,-1281,21,-5.59,44.680923,10.024511,3.07,174.3,0,0.0,-1,0.0,0.0,0,2.2,5.5974
335863,1564153080563,10,2.34,0.85,0.31,1.4,1.06,0.96,-0.02,0.26,-0,1,-0,0.96,8442,19,101,45,35,935,22.0,552,466,60,124.0,1742,1,306,193,61,0,0,24,-1,-1281,21,-5.59,,,,,,,,,,,,
335883,1564153080583,10,2.33,0.85,0.31,1.4,1.04,1.03,0.02,0.31,0,1,-1,1.03,8415,19,101,45,35,938,22.0,548,465,60,124.0,2904,1,306,193,61,0,0,24,-1,-1281,21,-5.59,,,,,,,,,,,,
335903,1564153080605,11,2.33,0.85,0.31,1.41,1.06,0.93,-0.01,0.29,0,1,-1,0.93,8426,19,101,45,35,943,22.0,559,464,60,125.0,2904,1,306,193,61,0,0,24,-1,-1281,21,-5.59,,,,,,,,,,,,
335923,1564153080625,10,2.33,0.85,0.31,1.4,1.06,1.03,-0.03,0.31,-0,-1,-0,1.03,8411,19,101,45,35,949,22.0,555,464,60,123.0,2904,1,306,193,61,0,0,24,-1,-1281,21,-5.59,,,,,,,,,,,,
335943,1564153080645,8,2.33,0.85,0.31,1.4,1.06,1.02,0.0,0.38,-0,1,-1,1.02,8453,19,101,45,35,954,22.0,558,463,60,124.0,2904,1,307,194,61,0,0,24,-1,-1281,21,-5.59,44.680923,10.024511,1.49,174.3,0,0.0,-1,0.0,0.0,0,2.2,5.5991
335963,1564153080665,10,2.33,0.86,0.32,1.4,1.06,0.87,0.03,0.34,-0,1,-0,0.87,8465,19,101,45,35,957,22.0,558,464,60,123.0,2904,1,307,194,61,0,0,24,-1,-1281,21,-5.59,,,,,,,,,,,,
335983,1564153080685,8,2.33,0.85,0.31,1.4,1.06,0.96,0.05,0.38,-0,1,-1,0.96,8434,19,101,45,35,956,22.0,563,463,60,124.0,2952,1,306,193,62,0,0,24,-1,-1281,21,-5.59,,,,,,,,,,,,
336003,1564153080705,5,2.33,0.85,0.31,1.41,1.06,0.9,0.09,0.43,0,2,-0,0.91,8445,19,101,45,35,954,22.0,574,464,60,123.0,2952,1,306,193,62,0,0,24,-1,-1281,21,-5.59,,,,,,,,,,,,
336023,1564153080725,8,2.32,0.86,0.32,1.42,1.06,0.86,0.08,0.38,-0,0,-0,0.87,8445,19,101,45,35,951,22.0,556,465,60,124.0,2952,1,306,193,62,0,0,24,-1,-1281,21,-5.59,,,,,,,,,,,,
336043,1564153080745,8,2.33,0.86,0.32,1.41,1.05,0.96,0.1,0.42,-0,-0,-1,0.96,8488,19,101,45,35,946,22.0,559,459,60,124.0,2952,1,307,194,62,0,0,24,-1,-1281,21,-5.59,44.680923,10.024511,0.0,174.3,0,0.0,-1,0.0,0.0,0,2.2,5.6007
336063,1564153080765,7,2.33,0.86,0.31,1.41,1.06,0.85,0.12,0.42,0,1,-0,0.86,8495,19,101,45,34,941,22.0,559,466,60,124.0,2952,1,304,194,62,0,0,24,-1,-1281,21,-5.59,,,,,,,,,,,,
336083,1564153080785,8,2.33,0.85,0.32,1.41,1.06,0.79,0.1,0.37,0,1,-0,0.8,8495,19,101,45,34,935,22.0,553,466,60,124.0,2904,1,304,191,61,0,0,24,-1,-1281,21,-5.59,,,,,,,,,,,,
336103,1564153080805,8,2.32,0.86,0.31,1.4,1.06,0.92,0.12,0.43,-0,-0,0,0.93,8480,19,101,45,34,932,22.0,562,459,60,124.0,2904,1,305,191,61,0,0,24,-1,-1281,21,-5.59,,,,,,,,,,,,
336123,1564153080825,7,2.33,0.86,0.31,1.41,1.06,0.79,0.08,0.44,-0,-0,-0,0.79,8480,19,101,45,34,931,22.0,555,467,60,125.0,2904,1,304,191,61,0,0,24,-1,-1281,21,-5.59,,,,,,,,,,,,
336143,1564153080845,8,2.33,0.86,0.31,1.41,1.05,0.73,0.07,0.4,-0,-2,0,0.73,8484,19,101,45,34,930,22.0,558,463,60,123.0,2904,1,304,191,61,0,0,24,-1,-1281,21,-5.59,44.680923,10.024511,0.0,174.3,0,0.0,-1,0.0,0.0,0,2.2,5.6024
336163,1564153080865,9,2.33,0.86,0.31,1.41,1.06,0.86,0.09,0.46,-0,-2,0,0.86,8522,19,101,45,34,930,22.0,570,462,60,124.0,2904,1,305,192,61,0,0,24,-1,-1281,21,-5.59,,,,,,,,,,,,
336183,1564153080885,8,2.33,0.87,0.31,1.41,1.06,0.77,0.06,0.5,-0,0,-0,0.78,8538,18,101,45,34,930,22.0,565,465,60,125.0,2904,1,305,192,61,0,0,24,-1,-1281,21,-5.59,,,,,,,,,,,,
336203,1564153080905,11,2.32,0.86,0.31,1.42,1.06,0.69,0.03,0.43,-0,-1,0,0.69,8526,19,101,45,34,931,22.0,582,464,60,123.0,2904,1,305,191,61,0,0,24,-1,-1281,21,-5.59,,,,,,,,,,,,
336223,1564153080925,8,2.33,0.87,0.32,1.42,1.06,0.82,0.09,0.51,-0,-1,-1,0.82,8484,19,101,45,34,932,22.0,569,464,60,124.0,2904,1,305,191,61,0,0,24,-1,-1281,21,-5.59,,,,,,,,,,,,
336243,1564153080945,8,2.33,0.87,0.31,1.42,1.06,0.74,0.08,0.57,0,-0,0,0.75,8488,19,101,45,34,936,22.0,568,463,60,125.0,2904,1,304,191,61,0,0,24,-1,-1281,21,-5.59,44.680923,10.024511,0.0,174.3,0,0.0,-1,0.0,0.0,0,2.2,5.6041
336263,1564153080965,10,2.32,0.87,0.32,1.42,1.05,0.73,0.04,0.46,-0,-2,-0,0.74,8488,19,101,45,34,939,22.0,567,464,60,123.0,2904,1,304,191,61,0,0,24,-1,-1281,21,-5.59,,,,,,,,,,,,
336283,1564153080985,8,2.33,0.87,0.31,1.42,1.06,0.86,0.07,0.5,-0,-3,-1,0.87,8526,19,101,45,34,941,22.0,558,466,60,123.0,2904,1,304,192,61,0,0,24,-1,-1281,21,-5.59,,,,,,,,,,,,
336303,1564153080997,8,2.32,0.87,0.32,1.42,1.05,0.78,0.11,0.5,0,-1,-0,0.79,8534,19,101,45,34,944,22.0,556,463,60,124.0,2904,1,305,192,61,0,0,0,-1,-1281,21,-5.59,,,,,,,,,,,,
336323,1564153081017,11,2.32,0.87,0.31,1.42,1.06,0.68,0.06,0.41,0,-1,0,0.69,8522,19,101,45,34,944,22.0,555,464,60,123.0,2904,1,305,192,61,0,0,0,-1,250,21,-5.59,,,,,,,,,,,,
336343,1564153081037,10,2.33,0.86,0.31,1.41,1.06,0.82,0.08,0.47,-0,-2,0,0.82,8488,19,101,45,34,944,0.0,550,466,60,124.0,2904,1,304,117,61,0,0,0,250,250,0,-5.59,44.680923,10.024511,0.0,174.3,0,0.0,-1,0.0,0.0,0,2.2,5.6057
336363,1564153081057,7,2.33,0.87,0.31,1.41,1.06,0.74,0.05,0.5,-0,-1,-0,0.75,8499,18,101,45,34,943,0.0,548,466,60,124.0,2904,1,304,116,61,0,0,0,250,250,0,-5.59,,,,,,,,,,,,
336383,1564153081077,12,2.32,0.87,0.32,1.42,1.06,0.63,0.02,0.42,0,-2,1,0.63,8491,18,101,45,34,941,0.0,550,464,60,123.0,0,1,304,191,61,0,0,0,250,250,0,-5.59,,,,,,,,,,,,
336403,1564153081105,11,2.32,0.86,0.31,1.42,1.06,0.77,0.06,0.49,-0,-2,0,0.77,8503,18,101,45,34,941,0.0,556,468,60,123.0,0,1,305,117,61,0,0,0,250,250,0,-5.59,,,,,,,,,,,,
336423,1564153081125,9,2.32,0.87,0.32,1.42,1.06,0.75,0.05,0.56,-0,-0,-0,0.75,8538,18,101,45,34,941,0.0,572,465,60,124.0,0,1,305,192,61,0,0,0,250,250,0,-5.59,,,,,,,,,,,,
336443,1564153081145,11,2.33,0.87,0.31,1.42,1.05,0.61,0.03,0.45,-0,-1,0,0.61,8549,18,101,45,34,942,0.0,580,462,60,123.0,0,1,305,117,61,0,0,0,250,250,0,-5.59,44.680923,10.024511,0.0,174.2,0,0.0,-1,0.0,0.0,0,2.2,5.6074
336463,1564153081165,10,2.32,0.86,0.31,1.42,1.06,0.75,0.08,0.49,0,-1,-0,0.75,8534,18,101,45,34,944,0.0,572,465,60,123.0,0,1,305,117,61,0,0,0,250,250,0,-5.59,,,,,,,,,,,,
336483,1564153081185,7,2.33,0.86,0.32,1.41,1.05,0.78,0.08,0.56,0,-0,0,0.78,8518,18,101,45,34,947,0.0,570,465,60,124.0,0,1,305,117,62,0,0,0,250,250,0,-5.59,,,,,,,,,,,,
336503,1564153081205,11,2.33,0.86,0.32,1.41,1.06,0.65,0.02,0.43,-0,-1,0,0.65,8518,17,101,45,34,949,0.0,568,464,60,124.0,0,1,305,192,62,0,0,0,250,250,0,-5.59,,,,,,,,,,,,
336523,1564153081225,11,2.33,0.86,0.32,1.42,1.06,0.74,0.05,0.42,-0,-3,0,0.74,8561,17,101,45,33,950,0.0,563,467,60,123.0,0,1,302,113,62,0,0,0,250,250,0,-5.59,,,,,,,,,,,,
336543,1564153081245,9,2.33,0.86,0.32,1.41,1.06,0.86,0.08,0.51,0,-1,-0,0.86,8557,16,101,45,33,951,0.0,560,466,60,124.0,0,1,302,188,62,0,0,0,250,250,0,-5.59,44.680923,10.024511,0.0,174.2,0,0.0,-1,0.0,0.0,0,2.2,5.609
336563,1564153081265,12,2.33,0.87,0.32,1.41,1.06,0.71,0.02,0.48,0,1,0,0.71,8538,16,101,46,33,948,0.0,553,467,60,124.0,0,1,302,113,62,0,0,0,250,250,0,-5.59,,,,,,,,,,,,
336583,1564153081285,9,2.34,0.86,0.32,1.41,1.06,0.76,-0.02,0.44,-0,-2,0,0.76,8534,16,101,46,33,944,0.0,550,465,60,122.0,0,1,302,185,60,0,0,0,250,250,0,-5.59,,,,,,,,,,,,
336603,1564153081305,10,2.32,0.86,0.31,1.42,1.05,0.85,0.04,0.56,0,-1,-1,0.85,8480,16,101,46,32,939,0.0,550,465,60,124.0,0,1,299,184,60,0,0,0,250,250,0,-5.59,,,,,,,,,,,,
336623,1564153081325,13,2.33,0.86,0.31,1.41,1.06,0.7,-0.02,0.55,0,-0,-0,0.7,8476,16,101,46,32,934,0.0,556,463,60,124.0,0,1,299,184,60,0,0,0,250,250,0,-5.59,,,,,,,,,,,,
336643,1564153081345,11,2.33,0.86,0.32,1.41,1.06,0.82,-0.02,0.55,-0,-2,-1,0.82,8453,16,101,46,32,927,0.0,577,465,60,123.0,0,1,299,108,60,0,0,0,250,250,0,-5.59,44.680923,10.024511,0.0,174.2,0,0.0,-1,0.0,0.0,0,2.2,5.6107
336663,1564153081365,9,2.33,0.87,0.32,1.42,1.06,0.89,0.01,0.6,-0,-1,-1,0.89,8468,16,101,46,32,919,0.0,563,469,60,124.0,0,1,299,108,60,0,0,0,250,250,0,-5.59,,,,,,,,,,,,
336683,1564153081385,11,2.33,0.86,0.32,1.42,1.05,0.71,0.0,0.51,-0,-1,0,0.71,8442,16,101,46,32,914,0.0,562,466,60,124.0,0,1,298,107,58,0,0,0,250,250,0,-5.59,,,,,,,,,,,,
336703,1564153081404,10,2.32,0.87,0.32,1.43,1.06,0.84,0.05,0.56,0,-1,-1,0.84,8370,16,101,46,32,911,0.0,562,465,60,124.0,0,1,297,181,58,0,0,0,250,250,0,-5.59,,,,,,,,,,,,
336723,1564153081424,11,2.33,0.87,0.32,1.42,1.06,0.79,0.03,0.56,0,-0,-0,0.79,8340,16,101,46,32,906,0.0,562,463,60,123.0,0,1,296,103,58,0,0,0,250,250,0,-5.59,,,,,,,,,,,,
336743,1564153081444,9,2.33,0.86,0.31,1.42,1.06,0.89,0.01,0.57,-0,-2,-0,0.89,8285,16,101,46,32,901,0.0,560,468,60,123.0,0,1,295,101,58,0,0,0,250,250,0,-5.59,44.680923,10.024511,0.0,174.2,0,0.0,-1,0.0,0.0,0,2.2,5.6124
336763,1564153081464,12,2.32,0.86,0.32,1.42,1.05,0.85,0.04,0.59,-0,-0,-1,0.85,8289,15,101,46,32,897,0.0,551,467,60,124.0,0,1,295,175,58,0,0,0,250,250,0,-5.59,,,,,,,,,,,,
336783,1564153081484,9,2.33,0.85,0.31,1.41,1.05,0.87,-0.01,0.57,-0,-2,-0,0.87,8241,16,101,46,32,895,0.0,547,465,60,124.0,0,1,294,99,54,0,0,0,250,250,0,-5.59,,,,,,,,,,,,
336803,1564153081504,12,2.32,0.85,0.31,1.41,1.04,0.78,0.02,0.59,-0,-1,-1,0.78,8166,15,101,46,32,892,0.0,544,467,60,125.0,0,1,293,171,54,0,0,0,250,250,0,-5.59,,,,,,,,,,,,
336823,1564153081524,9,2.33,0.84,0.3,1.41,1.04,0.84,-0.03,0.61,-0,-2,-1,0.85,8152,15,101,46,33,888,0.0,545,465,60,125.0,0,1,294,174,54,0,0,0,250,250,0,-5.59,,,,,,,,,,,,
336843,1564153081544,11,2.33,0.84,0.3,1.4,1.04,0.69,0.01,0.55,-0,-1,0,0.69,8102,15,101,46,33,885,0.0,536,469,60,124.0,0,1,294,99,54,0,0,0,250,250,0,-5.59,44.680923,10.024511,0.0,174.2,0,0.0,-1,0.0,0.0,0,2.2,5.614
336863,1564153081564,15,2.33,0.85,0.31,1.4,1.05,0.75,0.03,0.6,0,0,-1,0.75,8036,15,101,46,33,883,0.0,538,466,60,124.0,0,1,292,96,54,0,0,0,250,250,0,-5.59,,,,,,,,,,,,
336883,1564153081584,10,2.33,0.85,0.31,1.4,1.05,0.76,-0.05,0.59,0,-1,-1,0.76,7985,15,101,46,33,883,0.0,539,466,60,123.0,0,1,292,170,51,0,0,0,250,250,0,-5.59,,,,,,,,,,,,
336903,1564153081604,11,2.32,0.85,0.31,1.42,1.05,0.66,0.02,0.54,0,0,-0,0.66,7988,15,101,46,33,885,0.0,538,464,60,124.0,0,1,292,95,51,0,0,0,250,250,0,-5.59,,,,,,,,,,,,
336923,1564153081624,11,2.33,0.86,0.31,1.41,1.06,0.66,0.05,0.56,1,0,-2,0.66,7898,15,101,46,34,888,0.0,534,465,60,125.0,0,1,295,175,51,0,0,0,250,250,0,-5.59,,,,,,,,,,,,
336943,1564153081644,8,2.33,0.86,0.31,1.41,1.06,0.69,-0.03,0.6,1,0,-1,0.69,7904,15,101,46,34,891,0.0,533,464,60,124.0,0,1,295,101,51,0,0,0,250,250,0,-5.59,44.680923,10.024511,0.0,174.2,0,0.0,-1,0.0,0.0,0,2.2,5.6157
336963,1564153081664,10,2.32,0.85,0.31,1.42,1.05,0.71,-0.07,0.61,0,-0,0,0.71,7851,15,101,46,35,895,0.0,528,465,60,124.0,0,1,298,182,51,0,0,0,250,250,0,-5.59,,,,,,,,,,,,
336983,1564153081684,10,2.33,0.86,0.32,1.41,1.06,0.65,-0.02,0.6,-0,-2,-2,0.65,7796,15,101,46,34,899,0.0,525,466,60,125.0,0,1,295,101,54,0,0,0,250,250,0,-5.59,,,,,,,,,,,,
337003,1564153081704,11,2.32,0.87,0.32,1.42,1.05,0.61,0.05,0.5,-0,-1,-1,0.61,7805,15,101,46,35,901,0.0,529,462,60,125.0,0,1,298,107,54,0,0,0,250,250,0,-5.59,,,,,,,,,,,,
337023,1564153081724,12,2.32,0.87,0.32,1.42,1.06,0.63,0.07,0.46,0,-1,2,0.64,7719,15,101,46,35,901,0.0,516,463,60,124.0,0,1,298,107,54,0,0,0,250,250,0,-5.59,,,,,,,,,,,,
337043,1564153081744,9,2.33,0.87,0.31,1.42,1.06,0.74,0.04,0.54,0,0,0,0.74,7757,15,101,46,35,900,0.0,514,467,60,124.0,0,1,298,182,54,0,0,0,250,250,0,-5.59,44.680923,10.024511,0.0,174.2,0,0.0,-1,0.0,0.0,0,2.2,5.6174
337063,1564153081764,8,2.33,0.87,0.32,1.42,1.06,0.82,0.0,0.57,0,0,-1,0.82,7725,15,101,46,36,899,0.0,516,463,60,123.0,0,1,301,188,54,0,0,0,250,250,0,-5.59,,,,,,,,,,,,
337083,1564153081784,9,2.33,0.87,0.32,1.42,1.06,0.84,-0.04,0.61,0,1,1,0.84,7684,15,101,46,36,897,0.0,522,469,60,124.0,0,1,301,113,55,0,0,0,250,250,0,-5.59,,,,,,,,,,,,
337103,1564153081804,10,2.33,0.87,0.32,1.43,1.06,0.8,0.02,0.62,-0,-1,1,0.8,7697,15,101,46,36,895,0.0,517,465,60,123.0,0,1,301,188,55,0,0,0,250,250,0,-5.59,,,,,,,,,,,,
337123,1564153081824,10,2.33,0.87,0.32,1.43,1.07,0.72,0.04,0.58,-0,-2,-2,0.72,7656,15,101,46,36,892,0.0,515,464,60,125.0,0,1,301,113,55,0,0,0,250,250,0,-5.59,,,,,,,,,,,,
337143,1564153081844,11,2.33,0.87,0.32,1.43,1.06,0.67,0.08,0.46,-1,-2,-0,0.67,7678,15,101,46,36,886,0.0,516,463,60,124.0,0,1,301,188,55,0,0,0,250,250,0,-5.59,44.680923,10.024511,0.0,174.2,0,0.0,-1,0.0,0.0,0,2.2,5.6191
337163,1564153081864,12,2.32,0.88,0.32,1.42,1.06,0.64,0.15,0.37,-0,-1,3,0.66,7621,15,101,46,36,881,0.0,515,465,60,125.0,0,1,301,188,55,0,0,0,250,250,0,-5.59,,,,,,,,,,,,
337183,1564153081884,11,2.33,0.87,0.32,1.42,1.06,0.62,0.22,0.34,1,0,0,0.65,7646,15,101,46,36,878,0.0,520,466,60,125.0,0,1,301,113,54,0,0,0,250,250,0,-5.59,,,,,,,,,,,,
337203,1564153081904,13,2.32,0.87,0.32,1.43,1.06,0.6,0.19,0.34,1,1,-2,0.63,7575,15,101,46,36,875,0.0,514,467,60,124.0,0,1,301,113,54,0,0,0,250,250,0,-5.59,,,,,,,,,,,,
337223,1564153081924,12,2.33,0.87,0.32,1.43,1.06,0.6,0.12,0.32,1,2,1,0.61,7566,15,101,46,36,875,0.0,516,466,60,124.0,0,1,301,113,54,0,0,0,250,250,0,-5.59,,,,,,,,,,,,
337243,1564153081944,13,2.33,0.87,0.32,1.42,1.07,0.67,0.11,0.41,1,2,3,0.68,7536,15,101,46,37,873,0.0,518,466,60,123.0,0,1,304,194,54,0,0,0,250,250,0,-5.59,44.680923,10.024511,0.0,174.2,0,0.0,-1,0.0,0.0,0,2.2,5.6207
337263,1564153081964,12,2.33,0.88,0.32,1.43,1.06,0.75,0.12,0.49,1,3,-0,0.76,7542,15,101,46,37,876,0.0,510,466,60,125.0,0,1,304,119,54,0,0,0,250,250,0,-5.59,,,,,,,,,,,,
337283,1564153081984,12,2.33,0.88,0.33,1.43,1.06,0.77,0.12,0.5,2,5,-1,0.78,7512,15,101,46,37,878,0.0,507,467,60,123.0,0,1,304,119,55,0,0,0,250,250,0,-5.59,,,,,,,,,,,,
337303,1564153081996,12,2.33,0.88,0.32,1.44,1.06,0.78,0.03,0.53,2,6,3,0.78,7509,15,101,46,37,885,0.0,511,465,60,124.0,0,1,304,194,55,0,0,0,250,250,0,-5.59,,,,,,,,,,,,
337323,1564153082016,12,2.32,0.88,0.32,1.44,1.06,0.85,0.03,0.64,2,5,3,0.85,7491,15,101,46,37,893,0.0,510,466,60,124.0,0,1,304,118,55,0,0,0,250,250,0,-5.59,,,,,,,,,,,,
337343,1564153082036,13,2.33,0.88,0.32,1.43,1.06,0.93,0.05,0.69,2,6,-0,0.93,7497,15,101,46,37,899,0.0,503,467,60,124.0,0,1,304,193,55,0,0,0,250,250,0,-5.59,44.680923,10.024511,0.0,174.2,0,0.0,-1,0.0,0.0,0,2.2,5.6224
337363,1564153082056,11,2.33,0.88,0.33,1.43,1.06,0.94,0.06,0.69,2,7,-1,0.94,7503,15,101,46,37,905,0.0,502,467,60,124.0,0,1,304,119,55,0,0,0,250,250,0,-5.59,,,,,,,,,,,,
337383,1564153082076,13,2.33,0.88,0.32,1.43,1.06,0.91,-0.01,0.69,2,7,3,0.91,7491,15,101,46,37,919,0.0,506,466,60,125.0,0,1,304,118,54,0,0,0,250,250,0,-5.59,,,,,,,,,,,,
337403,1564153082096,13,2.33,0.87,0.32,1.44,1.06,0.95,0.01,0.74,2,7,4,0.95,7476,15,101,46,37,933,0.0,508,461,60,124.0,0,1,304,118,54,0,0,0,250,250,0,-5.59,,,,,,,,,,,,
337423,1564153082116,12,2.32,0.88,0.32,1.44,1.07,0.99,0.04,0.74,2,7,1,0.99,7515,15,101,46,37,942,0.0,503,468,60,125.0,0,1,304,194,54,0,0,0,250,250,0,-5.59,,,,,,,,,,,,
337443,1564153082136,12,2.34,0.88,0.32,1.43,1.07,0.98,0.04,0.72,3,8,-0,0.98,7476,15,101,46,38,950,0.0,504,467,60,125.0,0,1,307,124,54,0,0,0,250,250,0,-5.59,44.680923,10.024511,0.0,174.2,0,0.0,-1,0.0,0.0,0,2.2,5.6241
337463,1564153082156,11,2.32,0.88,0.32,1.43,1.06,0.93,-0.01,0.7,3,8,3,0.93,7494,15,101,46,37,960,0.0,505,469,60,124.0,0,1,304,118,54,0,0,0,250,250,0,-5.59,,,,,,,,,,,,
337483,1564153082176,12,2.33,0.87,0.32,1.42,1.06,0.95,0.01,0.71,2,8,4,0.95,7461,15,101,46,37,970,0.0,508,462,60,125.0,0,1,304,118,54,0,0,0,250,250,0,-5.59,,,,,,,,,,,,
337503,1564153082204,12,2.32,0.85,0.3,1.42,1.04,0.95,0.06,0.68,3,9,1,0.95,7491,15,101,46,38,974,0.0,505,466,60,124.0,0,1,307,124,54,0,0,0,250,250,0,-5.59,,,,,,,,,,,,
337523,1564153082224,12,2.32,0.85,0.29,1.42,1.02,0.9,0.04,0.66,3,9,0,0.9,7461,15,101,46,37,976,0.0,507,463,60,124.0,0,1,304,118,54,0,0,0,250,250,0,-5.59,,,,,,,,,,,,
337543,1564153082244,12,2.33,0.84,0.3,1.42,1.02,0.81,0.02,0.59,3,10,3,0.81,7491,15,101,46,38,976,0.0,508,467,60,124.0,0,1,307,124,54,0,0,0,250,250,0,-5.59,44.680923,10.024511,0.0,174.2,0,0.0,-1,0.0,0.0,0,2.2,5.6257
337563,1564153082264,13,2.32,0.84,0.29,1.4,1.02,0.79,0.05,0.6,3,10,4,0.79,7461,15,101,46,38,976,0.0,508,462,60,124.0,0,1,307,124,54,0,0,0,250,250,0,-5.59,,,,,,,,,,,,
337583,1564153082284,12,2.32,0.83,0.29,1.41,1.01,0.75,0.11,0.52,4,10,1,0.76,7503,15,101,46,38,974,0.0,510,467,60,124.0,0,1,307,125,54,0,0,0,250,250,0,-5.59,,,,,,,,,,,,
337603,1564153082304,12,2.33,0.82,0.28,1.4,1.01,0.67,0.07,0.45,4,11,0,0.67,7449,15,101,46,37,971,0.0,505,465,60,124.0,0,1,304,118,54,0,0,0,250,250,0,-5.59,,,,,,,,,,,,
337623,1564153082324,11,2.33,0.8,0.27,1.38,1.0,0.6,0.11,0.35,3,11,3,0.61,7467,15,101,46,37,967,0.0,506,462,60,125.0,0,1,304,193,54,0,0,0,250,250,0,-5.59,,,,,,,,,,,,
337643,1564153082344,10,2.34,0.79,0.27,1.38,0.98,0.55,0.17,0.33,3,10,5,0.58,7446,15,101,46,37,963,0.0,504,464,60,124.0,0,1,304,118,54,0,0,0,250,250,0,-5.59,44.680923,10.024511,0.0,174.2,0,0.0,-1,0.0,0.0,0,2.2,5.6274
337663,1564153082364,12,2.33,0.76,0.25,1.36,0.97,0.48,0.25,0.24,4,10,2,0.54,7461,15,101,46,37,959,0.0,500,464,60,124.0,0,1,304,193,54,0,0,0,250,250,0,-5.59,,,,,,,,,,,,
337683,1564153082384,10,2.33,0.74,0.25,1.34,0.95,0.39,0.19,0.18,3,9,0,0.43,7434,15,101,46,37,958,0.0,503,464,60,125.0,0,1,304,118,54,0,0,0,250,250,0,-5.59,,,,,,,,,,,,
337703,1564153082403,9,2.33,0.72,0.24,1.33,0.93,0.32,0.21,0.1,3,8,3,0.38,7440,15,101,46,37,957,0.0,505,465,60,125.0,0,1,304,118,54,0,0,0,250,250,0,-5.59,,,,,,,,,,,,
337723,1564153082423,10,2.33,0.71,0.22,1.32,0.92,0.29,0.26,0.05,3,8,4,0.39,7425,15,101,46,38,958,0.0,508,465,60,125.0,0,1,307,124,54,0,0,0,250,250,0,-5.59,,,,,,,,,,,,
337743,1564153082443,9,2.33,0.7,0.22,1.3,0.92,0.25,0.3,0.02,3,6,1,0.39,7446,15,101,46,38,959,0.0,506,463,60,124.0,0,1,307,198,54,0,0,0,250,250,0,-5.59,44.680923,10.024511,0.0,174.2,0,0.0,-1,0.0,0.0,0,2.2,5.6291
337763,1564153082463,9,2.33,0.69,0.21,1.31,0.9,0.23,0.25,-0.06,2,4,-0,0.34,7440,15,101,46,38,961,0.0,503,467,60,124.0,0,1,307,198,54,0,0,0,250,250,0,-5.59,,,,,,,,,,,,
337783,1564153082483,8,2.34,0.68,0.22,1.31,0.92,0.26,0.22,-0.07,1,3,1,0.34,7446,15,101,46,38,963,0.0,511,467,60,123.0,0,1,307,198,55,0,0,0,250,250,0,-5.59,,,,,,,,,,,,
337803,1564153082503,7,2.33,0.68,0.22,1.3,0.92,0.29,0.27,-0.04,1,2,3,0.39,7413,14,101,46,37,965,0.0,505,462,60,124.0,0,1,304,198,55,0,0,0,250,250,0,-5.59,,,,,,,,,,,,
337823,1564153082523,8,2.33,0.68,0.22,1.31,0.91,0.33,0.25,0.04,1,-0,1,0.41,7446,15,101,46,38,967,0.0,503,464,60,123.0,0,1,307,124,55,0,0,0,250,250,0,-5.59,,,,,,,,,,,,
337843,1564153082543,8,2.33,0.69,0.22,1.31,0.91,0.45,0.2,0.13,-0,-2,-2,0.49,7399,15,101,46,38,967,0.0,505,463,60,124.0,0,1,307,124,55,0,0,0,250,250,0,-5.59,44.680923,10.024511,0.0,174.2,0,0.0,-1,0.0,0.0,0,2.2,5.6307
337863,1564153082563,9,2.33,0.69,0.22,1.31,0.91,0.6,0.13,0.24,-0,-2,-1,0.62,7419,15,101,46,38,967,0.0,506,462,60,123.0,0,1,307,124,55,0,0,0,250,250,0,-5.59,,,,,,,,,,,,
337883,1564153082583,8,2.33,0.7,0.23,1.31,0.93,0.7,0.07,0.4,-0,-2,1,0.7,7384,15,101,46,38,967,0.0,508,470,60,124.0,0,1,307,198,55,0,0,0,250,250,0,-5.59,,,,,,,,,,,,
337903,1564153082603,9,2.33,0.71,0.25,1.33,0.93,0.82,0.06,0.55,-1,-4,0,0.82,7422,15,101,46,38,967,0.0,501,464,60,123.0,0,1,307,198,55,0,0,0,250,250,0,-5.59,,,,,,,,,,,,
337923,1564153082623,11,2.33,0.71,0.25,1.32,0.93,0.94,0.03,0.67,-1,-3,-3,0.94,7387,15,101,46,38,966,0.0,505,467,60,123.0,0,1,307,124,55,0,0,0,250,250,0,-5.59,,,,,,,,,,,,
337943,1564153082643,13,2.34,0.72,0.25,1.33,0.93,0.98,0.04,0.7,-0,-1,-2,0.98,7373,14,101,46,38,966,0.0,500,463,60,124.0,0,1,307,124,55,0,0,0,250,250,0,-5.59,44.680923,10.024511,0.0,174.2,0,0.0,-1,0.0,0.0,0,2.2,5.6324
337963,1564153082663,11,2.34,0.72,0.25,1.33,0.93,0.94,-0.01,0.69,-0,-0,1,0.94,7402,14,101,46,38,965,0.0,502,464,60,125.0,0,1,307,124,55,0,0,0,250,250,0,-5.59,,,,,,,,,,,,
337983,1564153082683,10,2.34,0.71,0.25,1.32,0.94,0.93,0.03,0.67,0,0,2,0.93,7347,14,101,46,38,965,0.0,502,461,60,125.0,0,1,307,124,55,0,0,0,250,250,0,-5.59,,,,,,,,,,,,
338003,1564153082703,10,2.34,0.71,0.25,1.33,0.94,0.84,0.1,0.52,1,2,-1,0.84,7376,14,101,46,38,965,0.0,501,465,60,124.0,0,1,307,124,55,0,0,0,250,250,0,-5.59,,,,,,,,,,,,
338023,1564153082723,9,2.33,0.72,0.26,1.33,0.94,0.71,0.09,0.39,1,1,-1,0.71,7341,14,101,46,38,964,0.0,500,463,60,124.0,0,1,307,124,55,0,0,0,250,250,0,-5.59,,,,,,,,,,,,
338043,1564153082743,9,2.33,0.72,0.26,1.33,0.94,0.64,0.11,0.32,0,1,1,0.65,7390,14,101,46,38,961,0.0,506,466,60,125.0,0,1,307,124,55,0,0,0,250,250,0,-5.59,44.680923,10.024511,0.0,174.2,0,0.0,-1,0.0,0.0,0,2.2,5.634
338063,1564153082763,10,2.33,0.71,0.26,1.33,0.94,0.6,0.18,0.29,1,1,2,0.63,7358,15,101,46,38,958,0.0,505,462,60,125.0,0,1,307,124,55,0,0,0,250,250,0,-5.59,,,,,,,,,,,,
338083,1564153082783,7,2.33,0.72,0.25,1.33,0.95,0.6,0.17,0.33,0,-2,0,0.62,7367,15,101,46,38,955,0.0,509,466,60,122.0,0,1,307,124,55,0,0,0,250,250,0,-5.59,,,,,,,,,,,,
338103,1564153082803,8,2.33,0.73,0.27,1.33,0.94,0.7,0.12,0.4,-1,-3,-2,0.71,7364,14,101,46,38,953,0.0,501,467,60,123.0,0,1,307,124,55,0,0,0,250,250,0,-5.59,,,,,,,,,,,,
338123,1564153082823,7,2.33,0.73,0.27,1.34,0.95,0.82,0.07,0.5,-1,-3,-1,0.82,7390,14,101,46,38,952,0.0,506,463,60,123.0,0,1,307,198,55,0,0,0,250,250,0,-5.59,,,,,,,,,,,,
338143,1564153082843,8,2.33,0.74,0.27,1.34,0.96,0.87,-0.0,0.64,-1,-2,1,0.87,7384,15,101,46,38,951,0.0,509,467,60,123.0,0,1,307,124,55,0,0,0,250,250,0,-5.59,44.680923,10.024511,0.0,174.2,0,0.0,-1,0.0,0.0,0,2.2,5.6357
338163,1564153082863,12,2.34,0.75,0.28,1.35,0.97,0.96,-0.01,0.75,-1,-3,0,0.96,7408,14,101,46,38,953,0.0,503,467,60,123.0,0,1,307,124,55,0,0,0,250,250,0,-5.59,,,,,,,,,,,,
338183,1564153082883,11,2.32,0.76,0.29,1.36,0.97,1.04,-0.03,0.79,-1,-2,-2,1.04,7381,14,101,46,38,954,0.0,497,468,60,123.0,0,1,307,124,55,0,0,0,250,250,0,-5.59,,,,,,,,,,,,
338203,1564153082903,12,2.33,0.77,0.29,1.38,0.99,1.02,-0.02,0.75,-0,-0,-2,1.02,7408,14,101,46,38,960,0.0,502,465,60,123.0,0,1,307,124,55,0,0,0,250,250,0,-5.59,,,,,,,,,,,,
338223,1564153082923,11,2.33,0.78,0.3,1.38,0.99,0.94,-0.03,0.7,0,1,1,0.94,7431,14,101,46,38,967,0.0,506,466,60,125.0,0,1,307,198,55,0,0,0,250,250,0,-5.59,,,,,,,,,,,,
338243,1564153082943,11,2.33,0.8,0.31,1.39,1.0,0.91,0.01,0.66,0,1,2,0.91,7408,14,101,46,38,971,0.0,506,464,60,124.0,0,1,307,124,55,0,0,0,250,250,0,-5.59,44.680923,10.024511,0.0,174.2,0,0.0,-1,0.0,0.0,0,2.2,5.6374
338263,1564153082963,7,2.33,0.82,0.32,1.4,1.02,0.85,0.07,0.57,1,2,0,0.85,7458,14,101,46,38,975,0.0,501,466,60,124.0,0,1,307,124,55,0,0,0,250,250,0,-5.59,,,,,,,,,,,,
338283,1564153082983,8,2.33,0.84,0.34,1.42,1.04,0.75,0.04,0.51,1,2,-2,0.75,7425,14,101,46,38,977,0.0,504,463,60,125.0,0,1,307,124,56,0,0,0,250,250,0,-5.59,,,,,,,,,,,,
338303,1564153082995,9,2.33,0.86,0.34,1.44,1.06,0.64,0.09,0.37,1,2,1,0.65,7455,14,101,46,38,978,0.0,506,468,60,124.0,0,1,307,193,56,0,0,0,250,250,0,-5.59,,,,,,,,,,,,
338323,1564153083015,8,2.32,0.87,0.35,1.45,1.06,0.58,0.15,0.29,1,2,3,0.6,7425,14,101,46,38,975,0.0,505,464,60,125.0,0,1,307,117,56,0,0,0,250,250,0,-5.59,,,,,,,,,,,,
338343,1564153083035,8,2.33,0.88,0.36,1.45,1.07,0.5,0.22,0.22,2,1,0,0.55,7458,14,101,46,37,972,0.0,500,465,60,125.0,0,1,304,193,56,0,0,0,250,250,0,-5.59,44.680923,10.024511,0.0,174.2,0,0.0,-1,0.0,0.0,0,2.2,5.639
338363,1564153083055,6,2.33,0.88,0.36,1.46,1.07,0.42,0.18,0.13,1,0,-1,0.46,7405,14,101,46,38,968,0.0,503,464,60,125.0,0,1,307,124,56,0,0,0,250,250,0,-5.59,,,,,,,,,,,,
338383,1564153083075,7,2.33,0.89,0.36,1.45,1.08,0.41,0.19,0.09,1,-0,1,0.45,7455,14,101,46,37,964,0.0,506,465,60,125.0,0,1,304,118,55,0,0,0,250,250,0,-5.59,,,,,,,,,,,,
338403,1564153083105,5,2.33,0.89,0.37,1.46,1.08,0.4,0.27,0.07,1,-1,2,0.49,7428,14,101,46,37,962,0.0,508,462,60,125.0,0,1,304,118,55,0,0,0,250,250,0,-5.59,,,,,,,,,,,,
338423,1564153083125,5,2.33,0.9,0.37,1.47,1.08,0.39,0.28,0.09,1,-3,-1,0.48,7470,14,101,46,37,962,0.0,507,466,60,125.0,0,1,304,118,55,0,0,0,250,250,0,-5.59,,,,,,,,,,,,
338443,1564153083145,4,2.32,0.9,0.37,1.47,1.09,0.42,0.23,0.09,-0,-4,-2,0.48,7443,14,101,46,37,959,0.0,505,466,60,123.0,0,1,304,193,55,0,0,0,250,250,0,-5.59,44.680923,10.024511,0.0,174.2,0,0.0,-1,0.0,0.0,0,2.2,5.6407
338463,1564153083165,4,2.32,0.9,0.37,1.47,1.08,0.5,0.17,0.11,-1,-5,0,0.53,7476,14,101,46,37,955,0.0,507,464,60,123.0,0,1,304,193,55,0,0,0,250,250,0,-5.59,,,,,,,,,,,,
338483,1564153083185,4,2.31,0.9,0.37,1.47,1.08,0.52,0.22,0.18,-1,-4,2,0.57,7452,14,101,46,37,952,0.0,506,465,60,124.0,0,1,304,118,56,0,0,0,250,250,0,-5.59,,,,,,,,,,,,
338503,1564153083205,2,2.32,0.9,0.37,1.47,1.08,0.56,0.22,0.23,-1,-7,-1,0.6,7476,15,101,46,37,948,0.0,506,462,60,124.0,0,1,304,193,56,0,0,0,250,250,0,-5.59,,,,,,,,,,,,
338523,1564153083225,1,2.32,0.9,0.37,1.47,1.09,0.63,0.2,0.3,-2,-8,-3,0.66,7470,15,101,46,37,942,0.0,512,465,60,123.0,0,1,304,118,56,0,0,0,250,250,0,-5.59,,,,,,,,,,,,
338543,1564153083245,1,2.31,0.9,0.37,1.46,1.08,0.72,0.13,0.35,-2,-7,-1,0.73,7503,15,101,46,37,935,0.0,505,462,60,124.0,0,1,304,119,56,0,0,0,250,250,0,-5.59,44.680923,10.024511,0.0,174.2,0,0.0,-1,0.0,0.0,0,2.2,5.6424
338563,1564153083265,1,2.31,0.88,0.35,1.45,1.06,0.75,0.18,0.42,-2,-7,1,0.77,7452,23,101,46,39,929,0.0,514,469,60,123.0,0,1,310,204,56,0,0,0,250,250,0,-5.59,,,,,,,,,,,,
338583,1564153083285,0,2.32,0.85,0.34,1.44,1.04,0.77,0.19,0.46,-2,-8,-1,0.79,7524,33,101,46,41,926,0.0,511,463,60,124.0,0,1,325,134,59,0,0,0,250,250,0,-5.59,,,,,,,,,,,,
338603,1564153083305,1,2.32,0.84,0.33,1.43,1.04,0.8,0.16,0.49,-3,-9,-4,0.82,7494,43,101,46,47,921,0.0,512,467,60,123.0,0,1,370,218,59,0,0,0,250,250,0,-5.59,,,,,,,,,,,,
338623,1564153083325,2,2.31,0.82,0.33,1.41,1.03,0.85,0.12,0.47,-3,-8,-2,0.86,7575,51,101,46,54,917,0.0,510,463,60,124.0,0,1,390,256,59,0,0,0,250,250,0,-5.59,,,,,,,,,,,,
338643,1564153083345,1,2.32,0.81,0.33,1.4,1.03,0.81,0.19,0.43,-2,-7,0,0.83,7569,61,101,46,62,913,0.0,512,463,60,124.0,0,1,437,231,59,0,0,0,250,250,0,-5.59,44.680923,10.024511,0.0,174.2,0,0.0,-1,0.0,0.0,0,2.2,5.6441
338663,1564153083365,1,2.32,0.81,0.32,1.4,1.03,0.7,0.2,0.43,-2,-8,-2,0.72,7621,70,101,46,71,913,0.0,507,464,60,124.0,0,1,424,310,59,0,0,0,250,250,0,-5.59,,,,,,,,,,,,
338683,1564153083385,1,2.31,0.8,0.32,1.39,1.03,0.64,0.15,0.36,-2,-9,-4,0.66,7597,78,101,46,80,914,0.0,506,462,60,123.0,0,1,414,463,129,0,0,0,250,250,0,-5.59,,,,,,,,,,,,
338703,1564153083404,3,2.3,0.79,0.32,1.4,1.02,0.58,0.18,0.31,-2,-8,-1,0.61,7621,87,101,46,87,917,0.0,508,465,60,124.0,0,1,417,520,129,0,0,0,250,250,0,-5.59,,,,,,,,,,,,
338723,1564153083424,1,2.31,0.8,0.31,1.39,1.02,0.67,0.18,0.34,-2,-6,2,0.7,7796,93,101,46,90,921,0.0,507,463,60,124.0,0,1,434,550,129,0,0,0,250,250,0,-5.59,,,,,,,,,,,,
338743,1564153083444,2,2.31,0.8,0.31,1.39,1.01,0.68,0.22,0.43,-2,-8,-1,0.72,8155,95,101,46,92,925,0.0,516,464,60,122.0,0,1,444,523,129,0,0,0,250,250,0,-5.59,44.680923,10.024511,0.0,174.2,0,0.0,-1,0.0,0.0,0,2.2,5.6457
338763,1564153083464,3,2.31,0.79,0.32,1.38,1.02,0.81,0.26,0.46,-2,-8,-2,0.85,8773,98,101,46,89,960,0.0,541,464,60,124.0,0,1,426,548,129,0,0,0,250,250,0,-5.59,,,,,,,,,,,,
338783,1564153083484,1,2.31,0.8,0.31,1.39,1.02,0.78,0.21,0.47,-2,-6,0,0.8,9450,100,101,46,87,1045,0.0,564,469,60,124.0,0,1,418,583,210,0,0,0,250,250,0,-5.59,,,,,,,,,,,,
338803,1564153083504,-2,2.31,0.8,0.32,1.39,1.03,0.65,0.28,0.36,-1,-7,1,0.71,10124,100,101,46,86,1131,0.0,602,465,60,123.0,0,1,404,527,210,0,0,0,250,250,0,-5.59,,,,,,,,,,,,
338823,1564153083524,-1,2.31,0.8,0.32,1.39,1.01,0.56,0.31,0.24,-1,-7,2,0.64,10813,100,101,46,85,1212,0.0,629,473,60,125.0,0,1,439,566,210,0,0,0,250,250,0,-5.59,,,,,,,,,,,,
338843,1564153083544,-1,2.31,0.8,0.31,1.39,1.02,0.55,0.23,0.2,-0,-6,3,0.6,10617,100,101,46,86,1284,0.0,630,458,60,125.0,0,1,435,585,210,0,0,0,250,250,0,181.28,44.680923,10.024511,0.0,174.2,0,0.0,-1,0.0,0.0,0,2.2,5.6474
338863,1564153083564,1,2.31,0.8,0.31,1.39,1.02,0.49,0.2,0.23,-0,-6,4,0.53,10457,100,101,46,88,1325,0.0,635,460,60,124.0,0,1,431,621,210,0,0,0,250,250,0,-5.59,,,,,,,,,,,,
338883,1564153083584,-0,2.31,0.8,0.32,1.4,1.02,0.47,0.22,0.15,0,-6,5,0.52,10251,100,101,46,89,1355,0.0,640,464,60,123.0,0,1,416,584,249,0,0,0,250,250,0,-5.59,,,,,,,,,,,,
338903,1564153083604,-1,2.3,0.8,0.32,1.4,1.02,0.42,0.2,0.14,0,-8,6,0.46,10751,100,101,46,86,1313,0.0,638,465,60,124.0,0,1,438,585,249,0,0,0,250,250,0,181.28,,,,,,,,,,,,
338923,1564153083624,2,2.31,0.81,0.32,1.4,1.02,0.38,0.12,0.11,1,-6,7,0.4,10486,100,101,46,87,1284,0.0,630,463,60,125.0,0,1,432,603,249,0,0,0,250,250,0,181.28,,,,,,,,,,,,
338943,1564153083644,0,2.31,0.8,0.32,1.39,1.03,0.32,0.17,0.08,1,-5,8,0.36,10336,100,101,46,88,1293,0.0,638,463,60,122.0,0,1,422,621,249,0,0,0,250,250,0,-5.59,44.680923,10.024511,0.0,174.2,0,0.0,-1,0.0,0.0,0,2.2,5.649
338963,1564153083664,1,2.31,0.8,0.31,1.39,1.02,0.31,0.17,0.01,1,-5,8,0.35,10587,100,101,46,87,1299,0.0,634,468,60,125.0,0,1,435,546,249,0,0,0,250,250,0,-5.59,,,,,,,,,,,,
338983,1564153083684,3,2.3,0.8,0.32,1.39,1.02,0.28,0.14,0.06,1,-7,9,0.31,10605,100,101,46,86,1348,0.0,630,463,60,125.0,0,1,434,585,235,0,0,0,250,250,0,414.87,,,,,,,,,,,,
339003,1564153083704,3,2.31,0.8,0.32,1.4,1.02,0.19,0.19,-0.05,2,-4,10,0.27,10353,100,101,46,88,1398,0.0,632,465,60,122.0,0,1,423,621,235,0,0,0,250,250,0,-5.59,,,,,,,,,,,,
339023,1564153083724,-1,2.31,0.8,0.32,1.4,1.01,0.23,0.19,-0.14,2,-4,10,0.3,10498,100,101,46,88,1448,0.0,636,464,60,123.0,0,1,433,565,235,0,0,0,250,250,0,-5.59,,,,,,,,,,,,
339043,1564153083744,-1,2.31,0.8,0.32,1.39,1.01,0.26,0.1,-0.07,2,-5,10,0.28,10659,100,101,46,86,1497,0.0,633,460,60,125.0,0,1,436,585,235,0,0,0,250,250,0,181.28,44.680923,10.024511,0.0,174.2,0,0.0,-1,0.0,0.0,0,2.2,5.6507
339063,1564153083764,3,2.31,0.79,0.31,1.39,1.02,0.22,0.02,0.03,2,-6,11,0.23,10492,100,101,46,88,1498,0.0,632,465,60,123.0,0,1,433,603,235,0,0,0,250,250,0,-5.59,,,,,,,,,,,,
339083,1564153083784,-0,2.31,0.8,0.32,1.39,1.02,0.16,0.11,-0.14,2,-4,11,0.19,10279,100,101,46,89,1498,0.0,633,468,60,123.0,0,1,418,639,243,0,0,0,250,250,0,-5.59,,,,,,,,,,,,
339103,1564153083804,2,2.31,0.79,0.31,1.39,1.02,0.18,0.08,-0.11,2,-4,11,0.2,10671,100,101,46,86,1498,0.0,638,460,60,124.0,0,1,436,527,243,0,0,0,250,250,0,-5.59,,,,,,,,,,,,
339123,1564153083824,1,2.31,0.8,0.32,1.4,1.01,0.17,0.06,-0.11,2,-5,11,0.18,10422,100,101,46,88,1498,0.0,634,456,60,123.0,0,1,428,603,243,0,0,0,250,250,0,-5.59,,,,,,,,,,,,
339143,1564153083844,-1,2.31,0.8,0.32,1.39,1.02,0.14,0.19,-0.2,2,-5,12,0.23,10382,100,101,46,88,1498,0.0,635,470,60,122.0,0,1,425,621,243,0,0,0,250,250,0,-5.59,44.680923,10.024511,0.0,174.2,0,0.0,-1,0.0,0.0,0,2.2,5.6524
339163,1564153083864,-0,2.3,0.8,0.31,1.4,1.01,0.16,0.16,-0.24,2,-3,12,0.22,10775,100,101,46,86,1498,0.0,650,459,60,125.0,0,1,439,527,243,0,0,0,250,250,0,-5.59,,,,,,,,,,,,
339183,1564153083884,3,2.31,0.79,0.31,1.39,1.01,0.19,0.03,-0.12,2,-2,12,0.2,10605,100,101,46,87,1498,0.0,632,457,60,125.0,0,1,435,585,237,0,0,0,250,250,0,181.28,,,,,,,,,,,,
339203,1564153083904,1,2.31,0.8,0.31,1.39,1.01,0.21,-0.06,-0.03,2,-2,11,0.22,10364,100,101,46,88,1498,0.0,633,466,60,123.0,0,1,424,621,237,0,0,0,250,250,0,-5.59,,,,,,,,,,,,
339223,1564153083924,-1,2.31,0.79,0.3,1.39,1.0,0.22,-0.04,0.06,2,-5,12,0.22,10463,100,101,46,88,1498,0.0,633,466,60,122.0,0,1,431,621,237,0,0,0,250,250,0,-5.59,,,,,,,,,,,,
339243,1564153083944,-2,2.31,0.79,0.31,1.39,1.0,0.23,-0.17,0.17,2,-3,11,0.29,10629,100,101,46,86,1498,0.0,629,458,60,125.0,0,1,435,585,237,0,0,0,250,250,0,181.28,44.680923,10.024511,0.0,174.2,0,0.0,-1,0.0,0.0,0,2.2,5.654
339263,1564153083964,2,2.31,0.79,0.3,1.39,1.0,0.29,-0.26,0.25,2,-3,10,0.38,10463,100,101,46,88,1498,0.0,633,463,60,123.0,0,1,426,565,237,0,0,0,250,250,0,-5.59,,,,,,,,,,,,
339283,1564153083984,-0,2.31,0.79,0.31,1.39,1.01,0.28,-0.25,0.16,2,-4,11,0.37,10251,100,101,46,89,1498,0.0,636,465,60,123.0,0,1,416,639,249,0,0,0,250,250,0,-5.59,,,,,,,,,,,,
339303,1564153083994,-0,2.3,0.79,0.3,1.39,1.0,0.25,-0.29,0.19,2,-5,12,0.39,10788,100,101,46,86,1498,0.0,630,473,60,125.0,0,1,439,585,249,0,0,0,250,250,0,-5.59,,,,,,,,,,,,
339323,1564153084014,1,2.3,0.79,0.31,1.39,1.0,0.3,-0.46,0.35,2,-3,10,0.55,10593,100,101,46,86,1498,0.0,630,461,60,125.0,0,1,435,527,249,0,0,0,250,250,0,-5.59,,,,,,,,,,,,
339343,1564153084034,1,2.3,0.79,0.31,1.39,1.0,0.33,-0.55,0.45,3,-2,10,0.64,10434,100,101,46,88,1498,0.0,636,455,60,122.0,0,1,429,565,249,0,0,0,250,250,0,-5.59,44.680923,10.024511,0.0,174.2,0,0.0,-1,0.0,0.0,0,2.2,5.6557
339363,1564153084054,0,2.3,0.8,0.31,1.39,0.99,0.37,-0.56,0.5,2,-3,9,0.67,10422,100,101,46,88,1498,0.0,633,461,60,123.0,0,1,428,621,249,0,0,0,250,250,0,-5.59,,,,,,,,,,,,
339383,1564153084074,-1,2.3,0.79,0.31,1.39,1.01,0.41,-0.7,0.59,2,-4,10,0.81,10732,100,101,46,86,1498,0.0,630,466,60,124.0,0,1,438,585,237,0,0,0,250,250,0,414.87,,,,,,,,,,,,
339403,1564153084104,3,2.3,0.79,0.31,1.39,1.0,0.46,-0.83,0.73,2,-2,8,0.95,10486,100,101,46,87,1498,0.0,627,466,60,125.0,0,1,432,603,237,0,0,0,250,250,0,414.87,,,,,,,,,,,,
339423,1564153084124,-1,2.3,0.8,0.31,1.39,1.0,0.47,-0.88,0.74,2,-1,7,1.0,10313,100,101,46,89,1498,0.0,633,468,60,123.0,0,1,417,621,237,0,0,0,250,250,0,-5.59,,,,,,,,,,,,
339443,1564153084144,-1,2.3,0.8,0.31,1.39,1.0,0.54,-0.91,0.86,2,-1,7,1.06,10659,100,101,46,87,1498,0.0,635,470,60,125.0,0,1,437,603,237,0,0,0,250,250,0,181.28,44.680923,10.024511,0.0,174.2,0,0.0,-1,0.0,0.0,0,2.2,5.6574
339463,1564153084164,3,2.3,0.8,0.3,1.4,1.0,0.53,-0.96,0.92,2,-1,7,1.1,10492,100,101,46,87,1498,0.0,630,460,60,123.0,0,1,432,546,237,0,0,0,250,250,0,-5.59,,,,,,,,,,,,
339483,1564153084184,-2,2.3,0.8,0.31,1.39,1.01,0.47,-0.91,0.82,2,0,7,1.02,10279,100,101,46,88,1498,0.0,632,468,60,122.0,0,1,417,565,243,0,0,0,250,250,0,-5.59,,,,,,,,,,,,
339503,1564153084204,-1,2.3,0.8,0.3,1.4,1.0,0.51,-0.97,0.88,2,0,7,1.1,10794,100,101,46,86,1498,0.0,635,468,60,125.0,0,1,439,585,243,0,0,0,250,250,0,-5.59,,,,,,,,,,,,
339523,1564153084224,3,2.3,0.8,0.3,1.41,1.0,0.61,-1.05,0.99,2,0,5,1.22,10599,100,101,46,86,1498,0.0,635,458,60,125.0,0,1,434,585,243,0,0,0,250,250,0,181.28,,,,,,,,,,,,
339543,1564153084244,3,2.3,0.79,0.3,1.4,1.0,0.63,-1.14,1.09,2,0,5,1.31,10445,100,101,46,88,1498,0.0,639,457,60,122.0,0,1,425,621,243,0,0,0,250,250,0,-5.59,44.680923,10.024511,0.0,174.2,0,0.0,-1,0.0,0.0,0,2.2,5.659
339563,1564153084264,-0,2.3,0.79,0.3,1.39,1.01,0.69,-1.21,1.17,2,1,3,1.39,10422,100,101,46,88,1498,0.0,633,465,60,123.0,0,1,428,565,243,0,0,0,250,250,0,-5.59,,,,,,,,,,,,
339583,1564153084284,3,2.3,0.8,0.3,1.4,1.01,0.73,-1.28,1.25,1,1,2,1.48,10551,100,101,46,86,1498,0.0,628,461,60,125.0,0,1,433,585,235,0,0,0,250,250,0,181.28,,,,,,,,,,,,
339603,1564153084304,3,2.3,0.8,0.31,1.41,1.0,0.68,-1.0,1.02,1,1,2,1.2,10370,100,101,46,88,1498,0.0,637,465,60,123.0,0,1,424,565,235,0,0,0,250,250,0,-5.59,,,,,,,,,,,,
339623,1564153084324,-0,2.3,0.81,0.31,1.4,1.01,0.68,-1.03,1.02,1,-1,3,1.23,10463,100,101,46,88,1498,0.0,622,466,60,122.0,0,1,431,565,235,0,0,0,250,250,0,-5.59,,,,,,,,,,,,
339643,1564153084344,-2,2.3,0.8,0.31,1.4,1.0,0.57,-0.75,0.79,1,0,2,0.94,10623,100,101,46,86,1498,0.0,636,461,60,124.0,0,1,435,527,235,0,0,0,250,250,0,-5.59,44.680923,10.024511,0.0,174.2,0,0.0,-1,0.0,0.0,0,2.2,5.6607
339663,1564153084364,3,2.3,0.81,0.31,1.41,1.01,0.51,-0.5,0.51,1,2,2,0.71,10451,100,101,46,87,1498,0.0,635,466,60,123.0,0,1,429,546,235,0,0,0,250,250,0,-5.59,,,,,,,,,,,,
339683,1564153084384,-0,2.29,0.81,0.31,1.41,1.01,0.54,-0.54,0.65,1,2,3,0.76,10285,100,101,46,88,1498,0.0,635,465,60,123.0,0,1,418,621,250,0,0,0,250,250,0,-5.59,,,,,,,,,,,,
339703,1564153084404,3,2.3,0.81,0.32,1.4,1.02,0.49,-0.28,0.39,1,1,4,0.56,10683,100,101,46,86,1498,0.0,630,467,60,124.0,0,1,436,585,250,0,0,0,250,250,0,-5.59,,,,,,,,,,,,
339723,1564153084424,2,2.3,0.82,0.32,1.41,1.02,0.49,-0.43,0.55,2,3,3,0.65,10422,100,101,46,87,1498,0.0,631,461,60,122.0,0,1,428,603,250,0,0,0,250,250,0,-5.59,,,,,,,,,,,,
339743,1564153084444,-2,2.3,0.81,0.32,1.41,1.02,0.49,-0.48,0.56,2,2,4,0.68,10330,100,101,46,88,1498,0.0,628,462,60,122.0,0,1,421,621,250,0,0,0,250,250,0,-5.59,44.680923,10.024511,0.0,174.2,0,0.0,-1,0.0,0.0,0,2.2,5.6624
339763,1564153084464,-0,2.31,0.82,0.32,1.42,1.01,0.44,-0.26,0.35,2,1,4,0.51,10702,100,101,46,86,1498,0.0,635,463,60,125.0,0,1,437,585,250,0,0,0,250,250,0,181.28,,,,,,,,,,,,
339783,1564153084484,3,2.3,0.82,0.32,1.41,1.03,0.41,-0.03,0.15,2,1,5,0.41,10539,100,101,46,87,1498,0.0,631,463,60,124.0,0,1,434,603,241,0,0,0,250,250,0,414.87,,,,,,,,,,,,
339803,1564153084503,2,2.3,0.82,0.32,1.41,1.03,0.35,-0.14,0.25,2,1,4,0.38,10290,100,101,46,88,1498,0.0,636,462,60,122.0,0,1,418,621,241,0,0,0,250,250,0,-5.59,,,,,,,,,,,,
339823,1564153084523,-1,2.3,0.82,0.32,1.42,1.02,0.36,0.07,0.03,2,1,5,0.36,10641,100,101,46,87,1498,0.0,634,463,60,123.0,0,1,436,603,241,0,0,0,250,250,0,-5.59,,,,,,,,,,,,
339843,1564153084543,0,2.3,0.82,0.32,1.41,1.02,0.34,0.19,-0.04,2,0,4,0.39,10683,100,101,46,86,1498,0.0,636,462,60,125.0,0,1,437,585,241,0,0,0,250,250,0,414.87,44.680923,10.024511,0.0,174.2,0,0.0,-1,0.0,0.0,0,2.2,5.6641
339863,1564153084563,3,2.3,0.82,0.32,1.42,1.02,0.39,-0.03,0.16,2,-1,3,0.39,10527,100,101,46,87,1498,0.0,638,461,60,124.0,0,1,433,546,241,0,0,0,250,250,0,181.28,,,,,,,,,,,,
339883,1564153084583,-2,2.3,0.82,0.33,1.41,1.03,0.31,0.18,0.04,2,1,2,0.35,10279,100,101,46,89,1498,0.0,641,463,60,123.0,0,1,418,584,243,0,0,0,250,250,0,-5.59,,,,,,,,,,,,
339903,1564153084603,-2,2.3,0.83,0.32,1.42,1.02,0.31,0.31,-0.17,2,1,2,0.44,10653,100,101,46,87,1498,0.0,629,471,60,125.0,0,1,436,603,243,0,0,0,250,250,0,-5.59,,,,,,,,,,,,
339923,1564153084623,4,2.3,0.83,0.32,1.41,1.03,0.39,0.1,0.05,1,1,1,0.4,10469,100,101,46,86,1498,0.0,632,457,60,126.0,0,1,429,585,243,0,0,0,250,250,0,181.28,,,,,,,,,,,,
339943,1564153084643,-2,2.3,0.83,0.33,1.41,1.04,0.43,0.29,-0.04,1,-1,3,0.52,10307,100,101,46,88,1498,0.0,626,464,60,123.0,0,1,419,565,243,0,0,0,250,250,0,-5.59,44.680923,10.024511,0.0,174.2,0,0.0,-1,0.0,0.0,0,2.2,5.6657
339963,1564153084663,-1,2.29,0.84,0.33,1.42,1.04,0.35,0.46,-0.18,1,0,3,0.58,10695,100,101,46,86,1498,0.0,627,473,60,125.0,0,1,437,585,243,0,0,0,250,250,0,-5.59,,,,,,,,,,,,
339983,1564153084683,2,2.3,0.83,0.33,1.42,1.04,0.43,0.22,0.04,1,1,2,0.48,10515,100,101,46,86,1498,0.0,627,461,60,125.0,0,1,432,527,235,0,0,0,250,250,0,-5.59,,,,,,,,,,,,
340003,1564153084703,2,2.3,0.83,0.33,1.42,1.04,0.39,0.38,-0.08,1,1,2,0.55,10347,100,101,46,88,1498,0.0,640,466,60,122.0,0,1,423,565,235,0,0,0,250,250,0,-5.59,,,,,,,,,,,,
340023,1564153084723,-2,2.3,0.84,0.33,1.42,1.04,0.39,0.54,-0.24,1,1,4,0.67,10515,100,101,46,88,1498,0.0,632,466,60,122.0,0,1,434,565,235,0,0,0,250,250,0,-5.59,,,,,,,,,,,,
340043,1564153084743,2,2.29,0.84,0.34,1.42,1.03,0.47,0.29,-0.03,1,1,3,0.56,10557,100,101,46,86,1498,0.0,633,461,60,125.0,0,1,433,527,235,0,0,0,250,250,0,181.28,44.680923,10.024511,0.0,174.2,0,0.0,-1,0.0,0.0,0,2.2,5.6674
340063,1564153084763,1,2.3,0.84,0.33,1.42,1.03,0.49,0.46,-0.23,1,1,3,0.67,10393,100,101,46,88,1498,0.0,639,450,60,122.0,0,1,426,565,235,0,0,0,250,250,0,-5.59,,,,,,,,,,,,
340083,1564153084783,-2,2.3,0.84,0.34,1.42,1.04,0.49,0.57,-0.39,1,1,4,0.76,10422,100,101,46,88,1498,0.0,638,465,60,123.0,0,1,428,621,245,0,0,0,250,250,0,-5.59,,,,,,,,,,,,
340103,1564153084803,3,2.29,0.84,0.33,1.44,1.04,0.45,0.72,-0.53,2,-1,5,0.85,10665,100,101,46,86,1498,0.0,628,457,60,125.0,0,1,436,585,245,0,0,0,250,250,0,414.87,,,,,,,,,,,,
340123,1564153084823,3,2.29,0.85,0.34,1.42,1.05,0.41,0.85,-0.63,2,1,5,0.94,10405,100,101,46,88,1498,0.0,631,456,60,123.0,0,1,427,621,245,0,0,0,250,250,0,-5.59,,,,,,,,,,,,
340143,1564153084843,-0,2.29,0.85,0.34,1.44,1.04,0.43,0.96,-0.7,2,1,6,1.06,10370,100,101,46,89,1498,0.0,629,462,60,122.0,0,1,425,584,245,0,0,0,250,250,0,-5.59,44.680923,10.024511,0.0,174.2,0,0.0,-1,0.0,0.0,0,2.2,5.6691
340163,1564153084863,0,2.29,0.84,0.34,1.43,1.04,0.42,1.04,-0.78,2,-0,6,1.12,10708,100,101,46,86,1498,0.0,632,465,60,125.0,0,1,437,585,245,0,0,0,250,250,0,181.28,,,,,,,,,,,,
340183,1564153084883,2,2.3,0.85,0.34,1.44,1.05,0.4,1.11,-0.87,2,-0,6,1.18,10539,100,102,46,87,1498,0.0,631,461,60,124.0,0,1,434,608,243,0,0,0,250,250,0,181.28,,,,,,,,,,,,
340203,1564153084903,-2,2.3,0.85,0.34,1.44,1.05,0.39,1.2,-0.89,2,0,6,1.26,10290,100,101,45,89,1498,0.0,631,469,60,122.0,0,1,419,621,243,0,0,0,250,250,0,-5.59,,,,,,,,,,,,
340223,1564153084923,-1,2.3,0.86,0.34,1.44,1.05,0.38,1.28,-1.0,2,-0,7,1.34,10695,100,101,46,87,1498,0.0,625,469,60,125.0,0,1,438,546,243,0,0,0,250,250,0,-5.59,,,,,,,,,,,,
340243,1564153084943,4,2.29,0.86,0.34,1.43,1.05,0.39,1.34,-1.03,2,-1,7,1.39,10510,100,102,46,86,1498,0.0,633,458,60,125.0,0,1,432,527,243,0,0,0,250,250,0,414.87,44.680923,10.024511,0.0,174.2,0,0.0,-1,0.0,0.0,0,2.2,5.6707
340263,1564153084963,3,2.29,0.86,0.34,1.43,1.06,0.45,1.41,-0.91,2,-3,7,1.48,10347,100,101,45,88,1498,0.0,629,463,60,123.0,0,1,423,565,243,0,0,0,250,250,0,-5.59,,,,,,,,,,,,
340283,1564153084983,-2,2.3,0.86,0.34,1.43,1.06,0.43,1.47,-0.92,2,-2,8,1.53,10457,100,101,45,87,1498,0.0,631,467,60,123.0,0,1,430,621,246,0,0,0,250,250,0,-5.59,,,,,,,,,,,,
340303,1564153084995,2,2.29,0.86,0.35,1.44,1.06,0.41,1.48,-1.03,2,-2,8,1.54,10702,100,102,46,86,1498,0.0,627,461,60,125.0,0,1,435,590,246,0,0,0,250,250,0,181.28,,,,,,,,,,,,
340323,1564153085015,3,2.3,0.86,0.34,1.44,1.06,0.4,1.49,-1.05,2,-3,7,1.54,10439,100,102,46,87,1498,0.0,631,457,60,125.0,0,1,428,608,246,0,0,0,250,250,0,414.87,,,,,,,,,,,,
340343,1564153085035,-2,2.29,0.86,0.34,1.44,1.06,0.53,1.49,-0.96,2,-5,9,1.58,10268,100,101,45,89,1498,0.0,622,474,60,123.0,0,1,417,584,246,0,0,0,250,250,0,-5.59,44.680923,10.024511,0.0,174.2,0,0.0,-1,0.0,0.0,0,2.2,5.6724
340363,1564153085055,2,2.29,0.86,0.35,1.44,1.05,0.5,1.54,-1.0,2,-3,9,1.62,10575,100,102,45,86,1498,0.0,627,458,60,125.0,0,1,433,590,246,0,0,0,250,250,0,-5.59,,,,,,,,,,,,
340383,1564153085075,2,2.29,0.86,0.34,1.44,1.06,0.6,1.56,-1.01,3,-3,10,1.67,10376,100,101,45,87,1498,0.0,635,457,60,122.0,0,1,424,603,239,0,0,0,250,250,0,-5.59,,,,,,,,,,,,
340403,1564153085099,-1,2.3,0.86,0.35,1.44,1.06,0.62,1.41,-0.78,3,-4,10,1.55,10341,100,101,45,88,1498,0.0,631,464,60,123.0,0,1,422,621,239,0,0,0,250,250,0,-5.59,,,,,,,,,,,,
340423,1564153085119,-1,2.29,0.86,0.35,1.44,1.06,0.69,1.41,-0.69,3,-5,12,1.57,10806,100,102,45,86,1498,0.0,640,466,60,125.0,0,1,439,590,239,0,0,0,250,250,0,414.87,,,,,,,,,,,,
340443,1564153085139,2,2.29,0.87,0.35,1.45,1.06,0.66,1.47,-0.76,3,-3,12,1.61,10510,100,102,45,87,1498,0.0,630,463,60,125.0,0,1,433,546,239,0,0,0,250,250,0,-5.59,44.680923,10.024511,0.0,174.2,0,0.0,-1,0.0,0.0,0,2.2,5.674
340463,1564153085159,2,2.29,0.87,0.35,1.44,1.07,0.74,1.47,-0.75,3,-3,12,1.64,10302,100,101,45,88,1498,0.0,633,462,60,122.0,0,1,419,565,239,0,0,0,250,250,0,-5.59,,,,,,,,,,,,
340483,1564153085179,-1,2.29,0.87,0.35,1.44,1.07,0.78,1.32,-0.53,3,-4,12,1.53,10463,100,101,45,88,1498,0.0,627,468,60,122.0,0,1,431,621,243,0,0,0,250,250,0,-5.59,,,,,,,,,,,,
340503,1564153085205,2,2.29,0.87,0.35,1.45,1.07,0.88,1.31,-0.44,3,-6,14,1.58,10617,100,102,45,86,1498,0.0,636,461,60,125.0,0,1,435,590,243,0,0,0,250,250,0,414.87,,,,,,,,,,,,
340523,1564153085225,5,2.29,0.88,0.35,1.45,1.07,0.92,1.23,-0.27,2,-6,13,1.54,10217,100,101,45,88,1498,0.0,632,464,60,123.0,0,1,412,621,243,0,0,0,250,250,0,-5.59,,,,,,,,,,,,
340543,1564153085245,3,2.29,0.88,0.35,1.45,1.06,0.94,1.01,-0.08,2,-5,11,1.38,10146,100,101,45,88,1498,0.0,626,465,60,123.0,0,1,407,621,243,0,0,0,250,250,0,-5.59,44.680923,10.024511,0.0,174.2,0,0.0,-1,0.0,0.0,0,2.2,5.6757
340563,1564153085265,-0,2.29,0.88,0.35,1.45,1.06,0.87,0.75,0.13,2,-3,10,1.15,10457,100,101,45,86,1498,0.0,621,468,60,123.0,0,1,429,527,243,0,0,0,250,250,0,-5.59,,,,,,,,,,,,
340583,1564153085285,3,2.29,0.87,0.36,1.45,1.07,0.8,0.55,0.31,1,-2,8,0.97,10376,100,101,45,86,1498,0.0,627,465,60,124.0,0,1,423,585,227,0,0,0,250,250,0,414.87,,,,,,,,,,,,
340603,1564153085305,-0,2.28,0.87,0.35,1.45,1.07,0.76,0.41,0.47,1,1,5,0.87,9915,100,101,45,87,1498,0.0,630,468,60,123.0,0,1,402,599,227,0,0,0,250,250,0,-5.59,,,,,,,,,,,,
340623,1564153085325,2,2.28,0.86,0.35,1.44,1.06,0.63,0.42,0.31,1,1,6,0.75,9863,100,101,45,87,1498,0.0,620,462,60,123.0,0,1,403,540,227,0,0,0,250,250,0,-5.59,,,,,,,,,,,,
340643,1564153085345,2,2.27,0.86,0.34,1.45,1.05,0.5,0.39,0.42,1,3,7,0.64,10010,100,101,45,86,1496,0.0,614,470,60,123.0,0,1,396,585,227,0,0,0,250,250,0,-5.59,44.680923,10.024511,0.0,174.2,0,0.0,-1,0.0,0.0,0,2.2,5.6774
340663,1564153085365,1,2.27,0.84,0.33,1.43,1.05,0.5,0.29,0.58,1,5,4,0.58,9984,100,101,45,86,1487,0.0,612,466,60,123.0,0,1,397,526,227,0,0,0,250,250,0,-5.59,,,,,,,,,,,,
340683,1564153085385,2,2.26,0.85,0.33,1.43,1.03,0.33,0.44,0.49,1,4,6,0.55,9837,100,101,45,85,1479,0.0,612,467,60,123.0,0,1,403,506,217,0,0,0,250,250,0,-5.59,,,,,,,,,,,,
340703,1564153085404,-0,2.27,0.83,0.33,1.43,1.03,0.41,0.25,0.64,0,4,4,0.48,9775,100,101,45,86,1469,39.0,601,465,60,124.0,0,1,406,521,217,0,0,0,250,16383,39,-5.59,,,,,,,,,,,,
340723,1564153085424,1,2.27,0.83,0.33,1.42,1.03,0.29,0.38,0.51,1,3,5,0.48,9605,100,101,45,86,1461,39.0,591,459,60,124.0,0,1,414,575,217,0,0,0,250,-21872,39,-5.59,,,,,,,,,,,,
