"Interval"|"ms"|0|0|1,"Utc"|"ms"|0|0|1,"FB_p"|"bar"|0|300|50,"Volant"|"F"|0.0|300.0|50,"xFR"|"mm"|0.0|5.0|50,"xRR"|"mm"|0.0|5.0|50,"xFL"|"mm"|0.0|5.0|50,"xRL"|"mm"|0.0|5.0|50,"AccelX"|"G"|-3.0|3.0|50,"AccelY"|"G"|-3.0|3.0|50,"AccelZ"|"G"|-3.0|3.0|50,"Yaw"|"Deg/Sec"|-120|120|50,"Pitch"|"Deg/Sec"|-120|120|50,"Roll"|"Deg/Sec"|-120|120|50,"Gsum"|"G"|0.0|3.0|50,"RPM"|""|0|14000|50,"TPS"|"%"|0|100|50,"WaterTemp"|"?C"|0|300|50,"AirTemp"|"?C"|-1000|1000|50,"MAP"|"KPa"|0|255|50,"Lambda"|""|0|1024|50,"WheelSpeed"|"MPH"|0.0|150.0|50,"OilPress"|"PSI"|0|150|50,"FuelPress"|"PSI"|0|150|50,"OilTemp"|"F"|0|300|50,"Battery"|"Volts"|0.0|20.0|50,"FuelCon"|"L/h"|-1000|1000|50,"Gear"|""|0|10|50,"Advance"|"Deg"|-360|360|50,"Injection"|"ms"|-1000|1000|50,"FuelCon"|"L/100km"|-1000|1000|50,"LC_But_Pres"|""|-1000|1000|50,"LC_Active"|""|-1000|1000|50,"RD_Speed"|""|-1000|1000|50,"RUD_Speed"|""|-1000|1000|50,"LD_Speed"|""|-1000|1000|50,"LUD_Speed"|""|-1000|1000|50,"Ana1"|"bar"|-1000.0|1000.0|50,"Latitude"|"Degrees"|-180.0|180.0|10,"Longitude"|"Degrees"|-180.0|180.0|10,"Speed"|"kph"|0.0|150.0|10,"Altitude"|"m"|0.0|4000.0|10,"LapCount"|""|0|0|10,"LapTime"|"Min"|0.0|0.0|10,"Sector"|""|0|0|10,"SectorTime"|"Min"|0.0|0.0|10,"ElapsedTime"|"Min"|0.0|0.0|10,"CurrentLap"|""|0|0|10,"Distance"|"km"|0.0|0.0|10,"SessionTime"|"Min"|0.0|0.0|10
32164,1564156119104,3,2.15,0.84,0.47,1.15,0.95,0.64,0.8,0.97,-19,3,-23,1.02,8491,51,102,43,69,503,605.0,637,464,60,119.0,261,1,433,383,148,0,0,623,-3820,24,578,-5.59,,,,,,,,,,,,
32184,1564156119124,0,2.15,0.84,0.47,1.13,0.95,0.75,0.7,0.92,-19,2,-23,1.03,8553,42,102,43,65,503,608.0,638,468,60,118.0,201,1,435,358,117,0,0,631,-30139,-1346,579,-5.59,,,,,,,,,,,,
32204,1564156119144,-0,2.14,0.83,0.47,1.14,0.95,0.68,0.66,0.8,-19,2,-22,0.95,8526,31,102,43,59,503,614.0,642,467,60,117.0,201,1,428,316,117,0,0,630,16529,26688,585,-5.59,,,,,,,,,,,,
32224,1564156119164,2,2.12,0.84,0.47,1.14,0.95,0.79,0.59,0.9,-21,2,-23,0.99,8400,22,102,43,53,503,615.0,635,464,60,118.0,201,1,387,273,117,0,0,631,16529,-14655,585,-5.59,,,,,,,,,,,,
32244,1564156119184,1,2.11,0.83,0.47,1.14,0.95,0.82,0.51,0.86,-21,3,-23,0.96,8292,16,102,43,48,503,614.0,632,465,60,118.0,201,1,372,228,117,0,0,625,269,3,589,-5.59,44.681179,10.025053,56.65,179.6,0,0.0,-1,0.0,0.0,0,0.1,0.5374
32264,1564156119202,3,2.1,0.82,0.47,1.14,0.95,0.77,0.66,0.79,-20,2,-23,1.01,8314,14,102,43,43,503,616.0,636,464,60,118.0,201,1,343,218,117,0,0,622,19304,28675,586,-5.59,,,,,,,,,,,,
32284,1564156119222,0,2.1,0.83,0.46,1.14,0.95,0.67,0.53,0.75,-20,2,-25,0.85,8351,14,102,43,41,503,616.0,647,468,60,116.0,114,1,330,213,67,0,0,626,19304,5344,589,-5.59,,,,,,,,,,,,
32304,1564156119242,2,2.1,0.83,0.47,1.13,0.94,0.59,0.68,0.65,-20,3,-23,0.9,8337,14,102,43,38,503,617.0,651,466,60,118.0,114,1,313,204,67,0,0,622,3403,16529,588,-5.59,,,,,,,,,,,,
32324,1564156119262,0,2.1,0.83,0.46,1.13,0.94,0.73,0.65,0.77,-21,3,-25,0.98,8252,14,102,43,36,503,618.0,635,467,60,119.0,114,1,306,200,67,0,0,621,30721,19320,587,-5.59,,,,,,,,,,,,
32344,1564156119282,1,2.1,0.83,0.46,1.13,0.94,0.59,0.66,0.63,-22,4,-25,0.89,8249,14,102,43,35,503,622.0,643,467,60,118.0,114,1,302,190,67,0,0,623,17336,30227,588,-5.59,44.681194,10.025055,58.01,179.6,0,0.0,-1,0.0,0.0,0,0.1,0.5391
32364,1564156119304,1,2.09,0.83,0.47,1.14,0.94,0.73,0.68,0.69,-22,2,-27,1.0,8267,14,102,43,34,503,620.0,642,466,60,119.0,114,1,300,186,67,0,0,628,19320,17344,585,-5.59,,,,,,,,,,,,
32384,1564156119324,1,2.1,0.82,0.46,1.13,0.95,0.59,0.75,0.6,-22,3,-28,0.96,8177,14,102,43,33,503,621.0,631,465,60,118.0,97,1,295,178,57,0,0,622,-18357,6273,582,-5.59,,,,,,,,,,,,
32404,1564156119344,-1,2.09,0.82,0.47,1.13,0.94,0.73,0.69,0.69,-23,2,-30,1.01,8054,14,102,43,33,503,619.0,627,468,60,119.0,97,1,293,174,57,0,0,619,-18357,4956,583,-5.59,,,,,,,,,,,,
32424,1564156119364,2,2.08,0.82,0.46,1.13,0.94,0.75,0.82,0.6,-24,1,-29,1.12,8009,15,102,43,33,503,619.0,632,467,60,118.0,97,1,292,173,57,0,0,623,3395,8488,584,-5.59,,,,,,,,,,,,
32444,1564156119384,1,2.09,0.82,0.47,1.12,0.95,0.64,0.86,0.53,-24,3,-29,1.07,7911,14,102,43,33,503,617.0,626,465,60,117.0,97,1,292,172,57,0,0,615,3403,-12040,582,-5.59,44.681206,10.025055,59.07,179.5,0,0.0,-1,0.0,0.0,0,0.1,0.5407
32464,1564156119403,-0,2.1,0.82,0.47,1.12,0.95,0.78,0.88,0.61,-25,2,-32,1.17,7881,15,102,43,33,503,617.0,633,468,60,118.0,97,1,292,172,57,0,0,618,3403,-25872,578,-5.59,,,,,,,,,,,,
32484,1564156119423,1,2.09,0.82,0.46,1.13,0.94,0.9,0.95,0.62,-25,-0,-33,1.31,7828,15,102,43,33,503,618.0,622,466,60,119.0,87,1,292,172,51,0,0,617,19304,-12040,579,-5.59,,,,,,,,,,,,
32504,1564156119443,1,2.1,0.82,0.47,1.13,0.94,0.9,1.05,0.49,-25,-0,-32,1.39,7722,15,102,43,33,503,616.0,617,466,60,119.0,87,1,292,172,51,0,0,615,3403,208,580,-5.59,,,,,,,,,,,,
32524,1564156119463,1,2.1,0.82,0.45,1.12,0.94,0.75,1.04,0.45,-25,1,-34,1.29,7700,15,102,43,33,503,613.0,618,466,60,119.0,87,1,292,172,51,0,0,617,-28304,-25872,580,-5.59,,,,,,,,,,,,
32544,1564156119483,2,2.11,0.82,0.46,1.12,0.94,0.65,0.95,0.35,-26,3,-33,1.15,7815,15,102,43,33,503,612.0,623,466,60,118.0,87,1,292,172,51,0,0,609,28675,-8186,575,-5.59,44.681225,10.025054,59.16,179.5,0,0.0,-1,0.0,0.0,0,0.1,0.5424
32564,1564156119503,-0,2.12,0.82,0.46,1.12,0.93,0.72,0.89,0.38,-27,3,-32,1.15,7938,15,102,43,34,504,611.0,637,465,60,118.0,87,1,295,172,51,0,0,607,-30139,-3082,574,-5.59,,,,,,,,,,,,
32584,1564156119523,1,2.14,0.81,0.46,1.12,0.93,0.85,1.01,0.41,-27,1,-33,1.32,8050,15,102,43,34,504,611.0,628,468,60,120.0,94,1,296,179,54,0,0,611,1010,6274,573,-5.59,,,,,,,,,,,,
32604,1564156119543,2,2.14,0.81,0.46,1.12,0.94,0.7,1.1,0.28,-26,2,-33,1.3,7988,15,102,43,34,504,610.0,645,467,60,119.0,94,1,295,172,54,0,0,606,-3446,-30064,570,-5.59,,,,,,,,,,,,
32624,1564156119563,-1,2.15,0.81,0.45,1.12,0.94,0.79,1.02,0.34,-27,2,-35,1.29,7951,15,102,43,33,504,609.0,642,470,60,118.0,94,1,292,172,54,0,0,610,-30139,-8962,569,-5.59,,,,,,,,,,,,
32644,1564156119583,1,2.15,0.81,0.46,1.11,0.93,0.91,1.12,0.42,-28,0,-35,1.44,7938,15,102,43,33,504,610.0,626,466,60,119.0,94,1,292,172,54,0,0,603,-3446,-30159,570,-5.59,44.68124,10.025051,58.63,179.5,0,0.0,-1,0.0,0.0,0,0.1,0.5441
32664,1564156119601,0,2.16,0.81,0.46,1.11,0.93,0.79,1.21,0.31,-28,1,-34,1.44,7864,15,102,43,33,504,607.0,641,468,60,118.0,94,1,292,172,54,0,0,609,19621,-2934,566,-5.59,,,,,,,,,,,,
32684,1564156119621,3,2.15,0.81,0.45,1.12,0.94,0.7,1.13,0.36,-28,1,-35,1.33,7861,15,102,43,33,504,605.0,634,465,60,119.0,89,1,292,172,51,0,0,608,-23055,2211,566,-5.59,,,,,,,,,,,,
32704,1564156119641,-1,2.17,0.81,0.46,1.12,0.94,0.83,1.1,0.45,-28,0,-36,1.38,7809,15,102,43,33,504,603.0,622,465,60,118.0,89,1,292,177,51,0,0,603,-7939,30208,564,-5.59,,,,,,,,,,,,
32724,1564156119661,1,2.18,0.81,0.46,1.11,0.94,0.95,1.11,0.48,-28,-1,-37,1.46,7770,15,102,43,33,504,602.0,617,468,60,120.0,89,1,292,172,51,0,0,606,-768,2211,564,-5.59,,,,,,,,,,,,
32744,1564156119681,1,2.2,0.82,0.46,1.12,0.93,1.0,1.16,0.39,-27,-1,-35,1.53,7809,15,102,43,34,504,599.0,618,467,60,119.0,89,1,295,172,51,0,0,596,-3210,-9072,564,-5.59,44.681252,10.025046,58.16,179.4,0,0.0,-1,0.0,0.0,0,0.11,0.5457
32764,1564156119703,1,2.22,0.82,0.46,1.13,0.94,0.89,1.19,0.3,-26,-1,-35,1.48,7809,15,102,43,34,504,596.0,636,465,60,116.0,89,1,295,172,51,0,0,594,17344,-28648,565,-5.59,,,,,,,,,,,,
32784,1564156119723,-2,2.23,0.82,0.46,1.13,0.95,0.8,1.06,0.33,-26,0,-36,1.33,7835,15,102,43,34,503,594.0,639,466,60,116.0,90,1,295,177,51,0,0,596,-13043,-22519,562,-5.59,,,,,,,,,,,,
32804,1564156119743,-0,2.24,0.82,0.45,1.13,0.95,0.92,0.99,0.49,-25,-1,-35,1.35,7881,15,102,43,34,504,593.0,636,468,60,119.0,90,1,295,177,51,0,0,592,6273,12552,567,-5.59,,,,,,,,,,,,
32824,1564156119763,-0,2.24,0.83,0.46,1.13,0.95,1.02,1.05,0.5,-24,-2,-33,1.46,7835,15,102,43,34,503,588.0,627,467,60,119.0,90,1,295,177,51,0,0,587,208,-29984,569,-5.59,,,,,,,,,,,,
32844,1564156119783,2,2.24,0.83,0.47,1.14,0.94,0.94,1.12,0.36,-22,-1,-32,1.47,7848,15,102,43,34,503,586.0,629,467,60,119.0,90,1,295,177,51,0,0,579,-25872,-18032,568,-5.59,44.681267,10.025041,57.54,179.4,0,0.0,-1,0.0,0.0,0,0.11,0.5474
32864,1564156119803,1,2.24,0.84,0.47,1.15,0.95,0.81,1.06,0.3,-20,1,-30,1.33,7845,15,102,43,34,503,581.0,623,468,60,118.0,90,1,295,177,51,0,0,588,10432,-30159,571,-5.59,,,,,,,,,,,,
32884,1564156119823,-1,2.25,0.84,0.47,1.16,0.95,0.89,0.95,0.37,-19,1,-28,1.3,7812,15,102,43,34,503,580.0,633,466,60,118.0,91,1,295,177,52,0,0,583,10432,-29984,568,-5.59,,,,,,,,,,,,
32904,1564156119843,0,2.25,0.85,0.47,1.16,0.96,1.0,0.89,0.48,-18,-0,-27,1.34,7822,15,102,43,34,503,580.0,620,465,60,119.0,91,1,295,177,52,0,0,582,-16384,2211,568,-5.59,,,,,,,,,,,,
32924,1564156119863,2,2.24,0.85,0.47,1.17,0.96,1.05,0.94,0.45,-17,-0,-24,1.41,7754,15,102,43,34,503,582.0,617,467,60,118.0,91,1,295,177,52,0,0,587,-16384,1267,566,-5.59,,,,,,,,,,,,
32944,1564156119883,2,2.24,0.85,0.47,1.17,0.96,0.93,0.94,0.38,-16,0,-23,1.33,7796,15,102,43,34,503,581.0,624,468,60,117.0,91,1,295,177,52,0,0,584,10432,-30159,568,-5.59,44.681282,10.025035,57.01,179.4,0,0.0,-1,0.0,0.0,0,0.11,0.5491
32964,1564156119903,3,2.23,0.85,0.47,1.18,0.95,0.81,0.93,0.37,-15,2,-24,1.23,7741,15,102,43,34,503,576.0,614,468,60,118.0,91,1,295,177,52,0,0,578,1,2211,562,-5.59,,,,,,,,,,,,
32984,1564156119923,-1,2.23,0.85,0.47,1.18,0.96,0.79,0.83,0.36,-15,4,-22,1.15,7789,15,102,43,34,503,578.0,621,467,60,117.0,92,1,295,184,52,0,0,575,-3210,-30159,564,-5.59,,,,,,,,,,,,
33004,1564156119943,0,2.22,0.85,0.47,1.18,0.96,0.91,0.74,0.5,-15,2,-22,1.17,7799,15,102,43,34,503,577.0,615,466,60,119.0,92,1,295,184,52,0,0,574,-3210,-23623,562,-5.59,,,,,,,,,,,,
33024,1564156119963,1,2.23,0.85,0.47,1.17,0.96,1.01,0.72,0.51,-15,1,-21,1.25,7770,15,102,43,34,503,578.0,616,466,60,119.0,92,1,295,184,52,0,0,578,1,2216,561,-5.59,,,,,,,,,,,,
33044,1564156119983,1,2.23,0.85,0.47,1.18,0.96,0.96,0.79,0.44,-15,0,-20,1.24,7763,23,102,43,36,503,575.0,632,469,60,118.0,92,1,301,190,52,0,0,582,259,-30159,558,-5.59,44.681294,10.025025,56.57,179.4,0,0.0,-1,0.0,0.0,0,0.11,0.5507
33064,1564156119991,3,2.22,0.85,0.47,1.17,0.96,0.76,0.84,0.29,-15,2,-18,1.13,7738,29,102,43,39,503,572.0,623,467,60,118.0,92,1,310,131,52,0,0,576,1,-30159,561,-5.59,,,,,,,,,,,,
33084,1564156120011,-1,2.23,0.85,0.48,1.17,0.95,0.69,0.78,0.23,-15,3,-17,1.04,7776,30,102,43,42,503,575.0,632,468,60,117.0,109,1,332,212,61,0,0,576,259,1780,556,-5.59,,,,,,,,,,,,
33104,1564156120031,0,2.22,0.85,0.47,1.17,0.96,0.82,0.7,0.34,-15,2,-17,1.08,7888,31,102,43,44,503,576.0,633,467,60,117.0,109,1,347,215,61,0,0,574,259,2524,556,-5.59,,,,,,,,,,,,
33124,1564156120051,0,2.22,0.85,0.48,1.17,0.96,0.94,0.76,0.43,-16,1,-18,1.21,7928,31,102,43,46,503,576.0,617,468,60,119.0,109,1,362,219,61,0,0,575,1,12552,559,-5.59,,,,,,,,,,,,
33144,1564156120071,3,2.21,0.85,0.47,1.18,0.96,0.77,0.79,0.31,-16,2,-17,1.1,8064,31,102,43,47,503,577.0,636,468,60,117.0,109,1,370,221,61,0,0,573,30208,-28648,555,-5.59,44.681305,10.025017,56.42,179.4,0,0.0,-1,0.0,0.0,0,0.11,0.5524
33164,1564156120103,0,2.22,0.85,0.47,1.17,0.96,0.89,0.65,0.46,-17,1,-17,1.1,8187,31,102,43,47,503,574.0,628,465,60,119.0,109,1,370,227,61,0,0,580,774,-18032,554,-5.59,,,,,,,,,,,,
33184,1564156120123,3,2.22,0.85,0.47,1.18,0.96,0.83,0.78,0.42,-16,2,-17,1.14,8267,31,102,43,48,503,572.0,635,469,60,118.0,128,1,372,223,71,0,0,581,-8188,-22263,557,-5.59,,,,,,,,,,,,
33204,1564156120143,1,2.21,0.84,0.47,1.18,0.96,0.95,0.67,0.53,-17,0,-18,1.16,8363,31,102,43,47,503,575.0,627,466,60,119.0,128,1,370,224,71,0,0,574,259,-2934,554,-5.59,,,,,,,,,,,,
33224,1564156120163,3,2.21,0.85,0.47,1.17,0.96,0.77,0.66,0.53,-17,3,-17,1.02,8230,31,102,43,47,503,573.0,635,465,60,118.0,128,1,370,221,71,0,0,587,1760,-4035,554,-5.59,,,,,,,,,,,,
33244,1564156120183,-0,2.22,0.85,0.47,1.18,0.96,0.84,0.54,0.62,-17,4,-18,1.01,7908,31,102,43,47,503,575.0,619,465,60,118.0,128,1,370,221,71,0,0,587,30208,269,559,-5.59,44.68132,10.025006,55.98,179.3,0,0.0,-1,0.0,0.0,0,0.11,0.5541
33264,1564156120203,-0,2.22,0.85,0.48,1.18,0.97,0.96,0.52,0.68,-17,3,-18,1.09,7731,31,102,43,48,503,577.0,611,465,60,119.0,128,1,372,226,71,0,0,589,30208,259,561,-5.59,,,,,,,,,,,,
33284,1564156120223,-0,2.22,0.85,0.47,1.18,0.96,1.05,0.55,0.68,-17,1,-19,1.18,7674,31,102,43,49,503,578.0,603,463,60,118.0,123,1,375,238,69,0,0,583,-3210,1780,556,-5.59,,,,,,,,,,,,
33304,1564156120243,0,2.21,0.85,0.48,1.17,0.97,1.01,0.61,0.59,-16,-1,-17,1.18,7681,31,102,43,51,503,576.0,602,467,60,118.0,123,1,381,244,69,0,0,579,1,1780,556,-5.59,,,,,,,,,,,,
33324,1564156120263,3,2.21,0.85,0.47,1.18,0.96,0.8,0.65,0.49,-16,-0,-17,1.03,7760,31,102,43,52,503,576.0,623,471,60,117.0,123,1,384,251,69,0,0,576,1,-32504,553,-5.59,,,,,,,,,,,,
33344,1564156120283,0,2.2,0.85,0.47,1.17,0.96,0.74,0.65,0.38,-15,0,-19,0.99,7855,31,102,43,52,503,575.0,618,469,60,117.0,123,1,384,251,69,0,0,582,259,-28648,557,-5.59,44.681328,10.024997,55.36,179.3,0,0.0,-1,0.0,0.0,0,0.11,0.5557
33364,1564156120303,0,2.2,0.85,0.47,1.17,0.96,0.83,0.6,0.44,-15,0,-19,1.02,7819,31,102,43,52,503,580.0,626,465,60,119.0,123,1,384,251,69,0,0,576,-16384,1760,560,-5.59,,,,,,,,,,,,
33384,1564156120323,1,2.2,0.85,0.48,1.18,0.96,0.94,0.63,0.59,-16,-1,-20,1.13,7888,31,102,43,52,503,580.0,622,467,60,119.0,135,1,384,251,76,0,0,584,243,1267,561,-5.59,,,,,,,,,,,,
33404,1564156120343,2,2.2,0.85,0.47,1.18,0.97,0.83,0.65,0.54,-17,0,-20,1.05,7878,31,102,43,52,503,581.0,615,465,60,118.0,135,1,384,251,76,0,0,585,10432,1760,561,-5.59,,,,,,,,,,,,
33424,1564156120363,-1,2.2,0.85,0.48,1.18,0.95,0.71,0.54,0.44,-17,3,-20,0.89,7891,31,102,43,52,503,581.0,622,467,60,117.0,135,1,384,251,76,0,0,583,15649,-25872,559,-5.59,,,,,,,,,,,,
33444,1564156120383,1,2.18,0.84,0.48,1.18,0.96,0.84,0.43,0.6,-17,2,-19,0.95,7965,31,102,43,53,503,578.0,620,466,60,117.0,135,1,387,257,76,0,0,584,-3210,-3210,558,-5.59,44.681343,10.024985,55.95,179.3,0,0.0,-1,0.0,0.0,0,0.12,0.5574
33464,1564156120402,2,2.17,0.85,0.47,1.17,0.96,0.9,0.59,0.61,-16,2,-20,1.08,7955,31,102,43,52,503,576.0,634,466,60,118.0,135,1,384,251,76,0,0,586,-3210,243,561,-5.59,,,,,,,,,,,,
33484,1564156120422,3,2.17,0.84,0.46,1.16,0.97,0.78,0.53,0.51,-17,5,-19,0.94,7908,31,102,43,52,503,577.0,631,467,60,117.0,133,1,384,251,75,0,0,581,30208,774,559,-5.59,,,,,,,,,,,,
33504,1564156120442,-0,2.17,0.84,0.47,1.17,0.96,0.81,0.47,0.54,-18,4,-18,0.93,7845,32,102,43,52,503,579.0,621,463,60,118.0,133,1,384,256,75,0,0,582,-3210,-25872,560,-5.59,,,,,,,,,,,,
33524,1564156120462,1,2.16,0.83,0.47,1.18,0.96,0.93,0.5,0.63,-19,1,-20,1.06,7812,32,102,43,53,503,580.0,621,467,60,117.0,133,1,387,256,75,0,0,582,-16384,-4035,558,-5.59,,,,,,,,,,,,
33544,1564156120482,1,2.16,0.84,0.47,1.17,0.96,0.94,0.62,0.6,-19,1,-18,1.13,7858,32,102,43,53,503,583.0,620,466,60,119.0,133,1,387,251,75,0,0,587,-4035,15649,556,-5.59,44.681351,10.024974,55.82,179.3,0,0.0,-1,0.0,0.0,0,0.12,0.5591
33564,1564156120502,3,2.18,0.85,0.47,1.17,0.96,0.76,0.68,0.45,-19,2,-18,1.02,7888,32,102,43,53,503,585.0,622,466,60,119.0,133,1,387,256,75,0,0,581,-25872,-3210,559,-5.59,,,,,,,,,,,,
33584,1564156120522,-0,2.19,0.85,0.47,1.18,0.96,0.74,0.61,0.48,-19,3,-19,0.96,7958,32,102,43,52,504,583.0,620,466,60,118.0,137,1,384,257,77,0,0,590,15649,259,558,-5.59,,,,,,,,,,,,
33604,1564156120542,0,2.18,0.84,0.47,1.17,0.96,0.87,0.69,0.53,-20,2,-19,1.11,8005,32,102,43,52,504,586.0,616,466,60,118.0,137,1,384,252,77,0,0,587,-1894,-32504,557,-5.59,,,,,,,,,,,,
33624,1564156120562,1,2.19,0.84,0.48,1.17,0.96,0.69,0.79,0.43,-20,4,-19,1.05,8036,32,102,43,53,504,586.0,641,468,60,118.0,137,1,387,251,77,0,0,592,-1894,-16384,559,-5.59,,,,,,,,,,,,
33644,1564156120582,-1,2.19,0.84,0.47,1.17,0.96,0.69,0.67,0.47,-20,3,-20,0.96,8005,32,102,43,52,503,588.0,628,467,60,118.0,137,1,384,258,77,0,0,595,208,208,559,-5.59,44.681362,10.024961,56.07,179.2,0,0.0,-1,0.0,0.0,0,0.12,0.5607
33664,1564156120602,1,2.18,0.84,0.47,1.17,0.96,0.83,0.8,0.57,-20,2,-19,1.15,7992,32,102,43,52,504,586.0,617,468,60,118.0,137,1,384,251,77,0,0,587,-4035,23619,562,-5.59,,,,,,,,,,,,
33684,1564156120622,3,2.18,0.84,0.47,1.17,0.96,0.69,0.85,0.47,-19,3,-20,1.09,7924,32,102,43,52,504,584.0,613,468,60,118.0,133,1,384,251,75,0,0,589,-4035,243,563,-5.59,,,,,,,,,,,,
33704,1564156120642,-1,2.19,0.84,0.47,1.17,0.97,0.65,0.77,0.46,-19,3,-20,1.01,7924,31,102,43,52,503,585.0,621,466,60,117.0,133,1,384,251,75,0,0,591,-4035,259,564,-5.59,,,,,,,,,,,,
33724,1564156120662,1,2.19,0.84,0.47,1.17,0.95,0.78,0.82,0.61,-19,1,-20,1.14,7924,22,102,43,51,503,585.0,612,467,60,119.0,133,1,381,246,75,0,0,587,-25872,259,563,-5.59,,,,,,,,,,,,
33744,1564156120682,1,2.18,0.84,0.48,1.17,0.96,0.82,0.89,0.64,-19,1,-21,1.21,7888,17,102,43,49,503,584.0,624,466,60,118.0,133,1,375,233,75,0,0,589,-12040,-25872,562,-5.59,44.681374,10.024948,56.33,179.2,0,0.0,-1,0.0,0.0,0,0.12,0.5624
33764,1564156120702,2,2.19,0.84,0.47,1.17,0.97,0.66,0.9,0.46,-18,1,-20,1.11,7928,13,102,43,46,503,586.0,637,470,60,118.0,133,1,362,219,75,0,0,587,-1894,259,564,-5.59,,,,,,,,,,,,
33784,1564156120722,-1,2.19,0.84,0.47,1.16,0.97,0.76,0.83,0.55,-18,0,-21,1.13,7968,11,102,43,42,503,582.0,626,468,60,118.0,113,1,332,214,64,0,0,592,-25872,10432,565,-5.59,,,,,,,,,,,,
33804,1564156120742,2,2.18,0.84,0.47,1.17,0.97,0.88,0.89,0.64,-18,-1,-21,1.25,7918,11,102,43,40,503,586.0,627,463,60,118.0,113,1,317,208,64,0,0,587,-1894,774,564,-5.59,,,,,,,,,,,,
33824,1564156120762,5,2.18,0.84,0.48,1.18,0.96,0.79,1.0,0.52,-18,-1,-19,1.28,7894,11,102,43,38,503,585.0,626,467,60,119.0,113,1,307,202,64,0,0,585,-1894,774,564,-5.59,,,,,,,,,,,,
33844,1564156120782,9,2.17,0.84,0.47,1.16,0.96,0.69,0.93,0.45,-18,1,-21,1.15,7825,11,102,43,37,503,586.0,636,469,60,117.0,113,1,304,196,64,0,0,589,-1894,-2934,555,-5.59,44.681381,10.024934,56.31,179.2,0,0.0,-1,0.0,0.0,0,0.12,0.5641
33864,1564156120802,9,2.15,0.84,0.47,1.16,0.95,0.78,0.92,0.46,-19,1,-22,1.2,7731,11,102,43,36,503,588.0,632,469,60,118.0,113,1,301,190,64,0,0,588,-12040,-8186,549,-5.59,,,,,,,,,,,,
33884,1564156120822,11,2.15,0.83,0.47,1.16,0.96,0.9,0.89,0.61,-20,-1,-24,1.27,7700,10,102,43,35,503,582.0,616,464,60,119.0,96,1,298,107,53,0,0,588,8488,-22263,547,-5.59,,,,,,,,,,,,
33904,1564156120842,16,2.16,0.83,0.47,1.16,0.95,1.02,0.91,0.62,-22,-3,-25,1.36,7606,10,102,43,34,503,582.0,607,466,60,119.0,96,1,295,177,53,0,0,582,243,-8962,541,-5.59,,,,,,,,,,,,
33924,1564156120862,15,2.15,0.83,0.47,1.15,0.96,1.06,0.94,0.57,-23,-4,-25,1.42,7572,10,102,43,34,503,578.0,608,467,60,119.0,96,1,295,177,53,0,0,579,-3210,-28648,530,-5.59,,,,,,,,,,,,
33944,1564156120882,15,2.15,0.83,0.46,1.16,0.96,1.14,0.99,0.55,-23,-4,-26,1.51,7497,10,102,43,33,503,576.0,606,467,60,118.0,96,1,292,172,53,0,0,574,1,1341,522,-5.59,44.681393,10.02492,56.72,179.2,0,0.0,-1,0.0,0.0,0,0.12,0.5657
33964,1564156120902,12,2.15,0.83,0.47,1.16,0.95,1.14,1.09,0.45,-22,-4,-27,1.57,7437,10,102,43,33,503,573.0,598,466,60,119.0,96,1,292,172,53,0,0,567,1760,6274,527,-5.59,,,,,,,,,,,,
33984,1564156120922,9,2.16,0.83,0.46,1.16,0.95,1.21,1.11,0.53,-23,-4,-27,1.64,7287,11,102,43,33,503,571.0,595,466,60,117.0,92,1,292,172,49,0,0,572,1267,1341,529,-5.59,,,,,,,,,,,,
34004,1564156120942,6,2.16,0.83,0.47,1.16,0.95,1.29,1.07,0.54,-24,-4,-28,1.67,7239,10,102,43,34,503,565.0,585,462,60,117.0,92,1,295,177,49,0,0,572,1267,2524,528,-5.59,,,,,,,,,,,,
34024,1564156120962,8,2.16,0.83,0.47,1.15,0.96,1.24,1.02,0.57,-24,-3,-29,1.6,7134,10,102,43,34,504,567.0,586,468,60,116.0,92,1,295,177,49,0,0,567,1780,-28648,525,-5.59,,,,,,,,,,,,
34044,1564156120982,8,2.15,0.83,0.46,1.16,0.95,1.1,1.12,0.48,-24,-2,-28,1.56,7110,10,102,43,34,504,563.0,568,467,60,118.0,92,1,295,177,49,0,0,564,2211,1341,523,-5.59,44.6814,10.024904,56.21,179.1,0,0.0,-1,0.0,0.0,0,0.13,0.5674
34064,1564156120992,8,2.16,0.83,0.46,1.16,0.95,1.1,1.21,0.45,-23,-2,-29,1.63,7083,10,102,43,34,504,557.0,571,466,60,118.0,92,1,295,177,49,0,0,560,2216,15661,523,-5.59,,,,,,,,,,,,
34084,1564156121012,12,2.15,0.83,0.47,1.16,0.96,1.15,1.16,0.54,-24,-5,-30,1.64,7017,10,102,43,35,504,557.0,582,466,60,118.0,94,1,298,184,49,0,0,559,2216,-6656,522,-5.59,,,,,,,,,,,,
34104,1564156121032,11,2.15,0.83,0.47,1.16,0.95,1.08,1.15,0.42,-23,-2,-29,1.57,6978,10,102,43,35,504,551.0,569,466,60,119.0,94,1,298,184,49,0,0,552,6274,-16384,518,-5.59,,,,,,,,,,,,
34124,1564156121052,6,2.16,0.83,0.46,1.16,0.96,1.04,1.21,0.43,-23,-2,-30,1.59,6957,10,102,43,35,504,553.0,564,468,60,120.0,94,1,298,184,49,0,0,550,-9072,21432,519,-5.59,,,,,,,,,,,,
34144,1564156121072,7,2.16,0.83,0.47,1.16,0.96,1.12,1.13,0.42,-23,-2,-29,1.59,6878,10,102,43,35,504,550.0,586,466,60,117.0,94,1,298,189,49,0,0,552,-32248,21432,518,-5.59,44.681408,10.024888,54.52,179.1,0,0.0,-1,0.0,0.0,0,0.13,0.5691
34164,1564156121102,2,2.14,0.84,0.47,1.16,0.95,1.01,1.22,0.36,-23,-1,-28,1.59,6845,10,102,43,36,504,552.0,558,469,60,120.0,94,1,301,189,49,0,0,551,-28648,6193,519,-5.59,,,,,,,,,,,,
34184,1564156121122,-1,2.13,0.83,0.47,1.15,0.95,1.06,1.18,0.48,-24,-3,-29,1.59,6818,10,102,43,36,504,550.0,568,465,60,118.0,92,1,301,189,48,0,0,547,-32248,-3482,515,-5.59,,,,,,,,,,,,
34204,1564156121142,1,2.12,0.84,0.47,1.16,0.96,1.02,1.16,0.43,-24,-2,-29,1.55,6803,10,102,43,37,504,546.0,574,468,60,118.0,92,1,304,189,48,0,0,550,-22519,-14,515,-5.59,,,,,,,,,,,,
34224,1564156121162,-1,2.09,0.83,0.47,1.15,0.96,1.04,1.12,0.49,-24,-4,-29,1.53,6742,10,102,43,37,504,548.0,560,465,60,118.0,92,1,304,195,48,0,0,545,-8962,-8187,515,-5.59,,,,,,,,,,,,
34244,1564156121182,1,2.07,0.84,0.46,1.15,0.95,1.03,1.12,0.45,-24,-3,-29,1.52,6747,10,102,43,37,504,546.0,546,466,60,119.0,92,1,304,195,48,0,0,540,2524,-3482,510,-5.59,44.681416,10.024873,53.27,179.0,0,0.0,-1,0.0,0.0,0,0.13,0.5707
34264,1564156121202,-1,2.02,0.83,0.47,1.15,0.96,1.11,1.15,0.46,-25,-6,-29,1.6,6906,10,102,43,37,504,540.0,553,466,60,119.0,92,1,304,195,48,0,0,538,-8186,-9216,510,-5.59,,,,,,,,,,,,
34284,1564156121222,2,1.98,0.83,0.47,1.14,0.95,1.11,1.12,0.39,-26,-6,-30,1.58,7088,10,102,43,37,504,537.0,565,470,60,117.0,100,1,304,195,51,0,0,537,-30064,8488,506,-5.59,,,,,,,,,,,,
34304,1564156121242,1,1.95,0.83,0.47,1.15,0.95,1.02,1.15,0.39,-27,-6,-31,1.54,7148,10,102,43,37,504,540.0,565,466,60,120.0,100,1,304,195,51,0,0,544,-8186,-16384,503,-5.59,,,,,,,,,,,,
34324,1564156121262,0,1.92,0.83,0.46,1.15,0.95,0.94,1.24,0.37,-27,-4,-34,1.55,7148,10,102,43,36,504,537.0,565,464,60,119.0,100,1,301,189,51,0,0,544,1780,243,498,-5.59,,,,,,,,,,,,
34344,1564156121282,-1,1.89,0.83,0.46,1.16,0.95,1.05,1.12,0.38,-28,-5,-35,1.54,7107,10,102,43,36,504,539.0,583,466,60,118.0,100,1,301,189,51,0,0,542,-28648,243,497,-5.59,44.681423,10.024857,52.1,179.0,0,0.0,-1,0.0,0.0,0,0.13,0.5724
34364,1564156121302,2,1.86,0.82,0.47,1.15,0.95,1.06,1.1,0.4,-29,-4,-33,1.53,7078,10,102,43,36,504,533.0,585,468,60,117.0,100,1,301,189,51,0,0,539,-22519,-3210,492,-5.59,,,,,,,,,,,,
34384,1564156121322,1,1.84,0.82,0.46,1.15,0.95,0.93,1.14,0.36,-29,-4,-37,1.47,7067,10,102,43,36,504,532.0,593,465,60,119.0,101,1,301,189,50,0,0,540,14504,32033,493,-5.59,,,,,,,,,,,,
34404,1564156121342,-0,1.82,0.82,0.46,1.15,0.95,1.03,1.17,0.35,-29,-5,-37,1.56,7033,10,102,43,36,504,525.0,562,463,60,119.0,101,1,301,189,50,0,0,533,2088,-9203,489,-5.59,,,,,,,,,,,,
34424,1564156121362,3,1.81,0.82,0.46,1.14,0.95,1.09,1.1,0.47,-30,-4,-39,1.55,7017,10,102,43,36,504,524.0,585,463,60,119.0,101,1,301,189,50,0,0,537,10408,-10483,485,-5.59,,,,,,,,,,,,
34444,1564156121382,-0,1.82,0.82,0.46,1.14,0.95,0.96,1.15,0.4,-30,-2,-38,1.5,6998,10,102,43,36,504,519.0,593,468,60,118.0,101,1,301,189,50,0,0,533,-8187,-10483,482,-5.59,44.681427,10.02484,51.51,178.9,0,0.0,-1,0.0,0.0,0,0.13,0.5741
34464,1564156121401,-0,1.81,0.82,0.46,1.15,0.95,0.97,1.24,0.5,-30,-4,-40,1.57,6921,10,102,43,36,504,518.0,558,458,60,120.0,101,1,301,189,50,0,0,531,1341,-9216,481,-5.59,,,,,,,,,,,,
34484,1564156121421,2,1.81,0.82,0.47,1.14,0.95,1.07,1.14,0.51,-30,-4,-39,1.57,6908,10,102,43,37,503,515.0,575,467,60,119.0,102,1,304,189,49,0,0,525,-14,-6528,480,-5.59,,,,,,,,,,,,
34504,1564156121441,-0,1.83,0.82,0.46,1.14,0.95,0.94,1.23,0.49,-30,-3,-38,1.55,6895,10,102,43,36,504,514.0,554,465,60,119.0,102,1,301,189,49,0,0,526,-3482,505,480,-5.59,,,,,,,,,,,,
34524,1564156121461,3,1.83,0.82,0.46,1.15,0.95,1.05,1.23,0.55,-30,-4,-39,1.62,6843,10,102,43,37,504,514.0,560,463,60,118.0,102,1,304,195,49,0,0,519,-3482,-1818,477,-5.59,,,,,,,,,,,,
34544,1564156121481,1,1.82,0.82,0.46,1.14,0.95,0.93,1.29,0.44,-30,-2,-38,1.59,6803,10,102,43,37,504,511.0,548,462,60,118.0,102,1,304,118,49,0,0,524,-3856,-10483,476,-5.59,44.681431,10.024823,50.59,178.9,0,0.0,-1,0.0,0.0,0,0.13,0.5757
34564,1564156121501,-0,1.84,0.81,0.46,1.14,0.95,1.01,1.3,0.48,-31,-3,-38,1.64,6791,10,102,43,37,504,511.0,556,466,60,118.0,102,1,304,195,49,0,0,522,-3856,8488,474,-5.59,,,,,,,,,,,,
34584,1564156121521,1,1.84,0.82,0.46,1.15,0.94,0.99,1.29,0.47,-30,-4,-39,1.63,6771,10,102,43,37,504,510.0,546,463,60,118.0,105,1,304,195,50,0,0,518,-4054,505,473,-5.59,,,,,,,,,,,,
34604,1564156121541,0,1.84,0.82,0.46,1.14,0.95,1.0,1.31,0.54,-30,-4,-40,1.65,6722,10,102,43,37,504,509.0,553,462,60,119.0,105,1,304,201,50,0,0,518,6274,-899,472,-5.59,,,,,,,,,,,,
34624,1564156121561,1,1.86,0.81,0.46,1.13,0.95,0.98,1.29,0.48,-30,-2,-41,1.62,6698,10,102,43,38,504,505.0,551,462,60,120.0,105,1,307,124,50,0,0,513,10994,3580,470,-5.59,,,,,,,,,,,,
34644,1564156121581,2,1.89,0.81,0.46,1.13,0.94,1.03,1.27,0.47,-31,-4,-40,1.64,6691,11,102,43,38,504,510.0,544,464,60,118.0,105,1,307,201,50,0,0,520,10994,-899,470,-5.59,44.681435,10.024807,49.92,178.9,0,0.0,-1,0.0,0.0,0,0.13,0.5774
34664,1564156121601,1,1.93,0.81,0.46,1.14,0.94,0.95,1.28,0.47,-31,-3,-42,1.59,6665,10,102,43,38,504,511.0,560,465,60,119.0,105,1,307,201,50,0,0,514,-3856,-23367,470,-5.59,,,,,,,,,,,,
34684,1564156121621,3,1.95,0.81,0.46,1.13,0.93,1.02,1.19,0.5,-32,-3,-42,1.57,6625,10,102,43,39,504,509.0,567,468,60,118.0,107,1,310,130,50,0,0,517,10994,8488,467,-5.59,,,,,,,,,,,,
34704,1564156121641,-2,2.02,0.81,0.46,1.14,0.95,0.96,1.27,0.48,-31,-3,-42,1.59,6597,10,102,43,38,504,511.0,551,460,60,118.0,107,1,307,201,50,0,0,514,-3856,10432,468,-5.59,,,,,,,,,,,,
34724,1564156121661,0,2.06,0.81,0.46,1.13,0.95,0.99,1.18,0.49,-32,-4,-43,1.54,6578,10,102,43,39,504,510.0,547,468,60,118.0,107,1,310,206,50,0,0,514,-4054,-17956,469,-5.59,,,,,,,,,,,,
34744,1564156121681,-0,2.12,0.81,0.45,1.14,0.94,0.96,1.26,0.54,-31,-3,-43,1.58,6558,10,102,43,39,504,511.0,555,466,60,118.0,107,1,310,206,50,0,0,511,-3856,8488,470,-5.59,44.681435,10.024789,49.05,178.9,0,0.0,-1,0.0,0.0,0,0.14,0.5791
34764,1564156121701,-1,2.19,0.81,0.46,1.14,0.95,0.97,1.25,0.51,-31,-2,-43,1.58,6553,10,102,43,39,504,511.0,531,464,60,119.0,107,1,310,206,50,0,0,512,-3856,-1923,471,-5.59,,,,,,,,,,,,
34784,1564156121721,2,2.24,0.83,0.46,1.16,0.95,0.92,1.1,0.53,-30,-3,-43,1.44,6539,10,102,43,39,504,507.0,542,465,60,119.0,108,1,310,206,51,0,0,507,-21872,243,472,-5.59,,,,,,,,,,,,
34804,1564156121741,-0,2.3,0.84,0.46,1.18,0.95,0.91,1.06,0.6,-27,-2,-42,1.4,6535,10,102,43,40,504,502.0,548,466,60,118.0,108,1,316,207,51,0,0,502,15661,-9203,475,-5.59,,,,,,,,,,,,
34824,1564156121761,-0,2.34,0.84,0.47,1.18,0.96,0.91,0.99,0.52,-24,-2,-40,1.34,6535,10,102,43,40,504,496.0,532,463,60,120.0,108,1,316,207,51,0,0,499,3,248,479,-5.59,,,,,,,,,,,,
34844,1564156121781,2,2.39,0.85,0.46,1.19,0.96,0.85,0.85,0.58,-21,-1,-37,1.2,6562,10,102,43,40,504,491.0,542,467,60,118.0,108,1,316,207,51,0,0,493,-1818,3580,484,-5.59,44.681435,10.024772,48.34,178.8,0,0.0,-1,0.0,0.0,0,0.14,0.5807
34864,1564156121803,-1,2.43,0.86,0.46,1.19,0.96,0.81,0.77,0.57,-17,-0,-35,1.12,6606,10,102,43,40,504,485.0,525,465,60,120.0,108,1,317,207,51,0,0,487,-10483,505,487,-5.59,,,,,,,,,,,,
34884,1564156121823,2,2.45,0.86,0.47,1.19,0.97,0.84,0.59,0.53,-12,-1,-31,1.02,6653,10,102,43,40,504,489.0,534,468,60,119.0,106,1,317,207,52,0,0,480,8488,-6528,491,-5.59,,,,,,,,,,,,
34904,1564156121843,-2,2.48,0.86,0.48,1.2,0.98,0.82,0.4,0.59,-8,0,-30,0.91,6677,10,102,43,39,504,489.0,524,465,60,119.0,106,1,310,207,52,0,0,479,-17956,-32768,489,-5.59,,,,,,,,,,,,
34924,1564156121863,1,2.47,0.87,0.48,1.2,0.97,0.82,0.32,0.46,-5,-2,-24,0.88,6660,10,102,43,40,504,490.0,533,466,60,119.0,106,1,317,206,52,0,0,474,-9203,248,490,-5.59,,,,,,,,,,,,
34944,1564156121883,-0,2.47,0.87,0.47,1.2,0.98,0.81,0.18,0.6,-3,-1,-21,0.83,6689,11,102,43,40,504,491.0,544,467,60,118.0,106,1,317,131,52,0,0,474,-1923,10408,491,-5.59,44.681435,10.024755,47.79,178.8,0,0.0,-1,0.0,0.0,0,0.14,0.5824
34964,1564156121903,0,2.45,0.87,0.46,1.2,0.97,0.85,0.18,0.54,-1,-1,-16,0.87,6698,10,102,43,39,504,493.0,539,468,60,120.0,106,1,310,207,52,0,0,473,8488,-22519,495,-5.59,,,,,,,,,,,,
34984,1564156121923,2,2.4,0.87,0.46,1.19,0.97,0.84,0.0,0.64,0,-1,-13,0.84,6663,11,102,43,40,504,491.0,558,466,60,118.0,105,1,317,207,52,0,0,473,32033,-32768,491,-5.59,,,,,,,,,,,,
35004,1564156121943,-1,2.37,0.86,0.47,1.2,0.97,0.81,0.05,0.52,1,1,-9,0.81,6667,10,102,43,39,504,490.0,540,466,60,120.0,105,1,310,206,52,0,0,472,-1923,-32768,490,-5.59,,,,,,,,,,,,
35024,1564156121963,3,2.32,0.86,0.46,1.19,0.97,0.9,0.01,0.53,-0,-1,-6,0.9,6667,11,102,43,40,504,485.0,556,466,60,118.0,105,1,317,206,52,0,0,476,32033,248,485,-5.59,,,,,,,,,,,,
35044,1564156121983,-1,2.32,0.85,0.47,1.19,0.97,0.81,0.02,0.49,-1,1,-4,0.81,6660,10,102,43,39,504,482.0,542,463,60,120.0,105,1,310,206,52,0,0,479,-23367,-6441,481,-5.59,44.681435,10.024739,48.09,178.7,0,0.0,-1,0.0,0.0,0,0.14,0.5841
35064,1564156121993,2,2.31,0.84,0.47,1.18,0.96,0.86,0.0,0.49,-2,0,-3,0.86,6637,11,102,43,40,504,479.0,558,468,60,119.0,105,1,317,206,52,0,0,480,10305,3580,479,-5.59,,,,,,,,,,,,
35084,1564156122013,-1,2.29,0.83,0.46,1.16,0.95,0.86,-0.01,0.51,-2,1,-3,0.86,6623,11,102,43,39,504,480.0,541,464,60,119.0,108,1,310,207,52,0,0,480,8488,3580,479,-5.59,,,,,,,,,,,,
35104,1564156122033,1,2.24,0.82,0.46,1.17,0.94,0.85,0.08,0.49,-3,1,-2,0.86,6611,11,102,43,40,504,482.0,538,468,60,119.0,108,1,317,207,52,0,0,479,-899,-10483,475,-5.59,,,,,,,,,,,,
35124,1564156122053,3,2.2,0.8,0.45,1.14,0.93,0.83,0.06,0.56,-5,1,-3,0.83,6616,11,102,43,40,504,481.0,547,466,60,118.0,108,1,317,207,52,0,0,481,32033,3576,472,-5.59,,,,,,,,,,,,
35144,1564156122073,-0,2.16,0.73,0.43,1.08,0.92,0.89,0.18,0.51,-7,1,-3,0.91,6609,11,102,43,40,504,482.0,532,465,60,120.0,108,1,317,207,52,0,0,485,32033,-23367,470,-5.59,44.681431,10.024722,47.75,178.7,0,0.0,-1,0.0,0.0,0,0.14,0.5857
35164,1564156122103,1,2.11,0.65,0.4,1.01,0.87,0.93,0.18,0.56,-10,-0,-4,0.95,6588,11,102,43,40,504,484.0,544,467,60,118.0,108,1,316,207,52,0,0,490,505,30272,463,-5.59,,,,,,,,,,,,
35184,1564156122123,-0,2.06,0.58,0.38,0.97,0.84,0.86,0.26,0.55,-12,1,-6,0.9,6565,11,102,43,40,504,487.0,531,461,60,119.0,110,1,316,207,51,0,0,488,505,243,463,-5.59,,,,,,,,,,,,
35204,1564156122143,0,2.02,0.55,0.35,0.94,0.82,0.88,0.36,0.45,-14,1,-7,0.95,6560,11,102,43,40,504,487.0,541,466,60,119.0,110,1,316,207,51,0,0,489,505,-3210,459,-5.59,,,,,,,,,,,,
35224,1564156122163,1,1.99,0.55,0.35,0.93,0.81,0.93,0.41,0.45,-16,-0,-9,1.02,6574,11,102,43,40,504,488.0,544,466,60,118.0,110,1,316,207,51,0,0,489,1,6193,457,-5.59,,,,,,,,,,,,
35244,1564156122183,-2,1.97,0.55,0.34,0.93,0.81,0.88,0.57,0.4,-16,1,-11,1.04,6555,11,102,43,40,504,487.0,545,461,60,119.0,110,1,316,207,51,0,0,489,505,-18108,455,-5.59,44.681431,10.024706,47.67,178.6,0,0.0,-1,0.0,0.0,0,0.14,0.5874
35264,1564156122203,1,1.95,0.56,0.34,0.95,0.81,0.91,0.56,0.44,-18,-0,-15,1.07,6535,11,102,43,40,504,486.0,544,465,60,119.0,110,1,316,207,51,0,0,491,-1562,-16384,454,-5.59,,,,,,,,,,,,
35284,1564156122223,2,1.94,0.58,0.35,0.96,0.81,0.9,0.58,0.43,-19,-1,-17,1.07,6463,11,102,43,41,504,484.0,555,468,60,118.0,113,1,323,207,51,0,0,487,-10483,32033,451,-5.59,,,,,,,,,,,,
35304,1564156122243,-1,1.93,0.59,0.35,0.97,0.82,0.91,0.7,0.43,-20,1,-19,1.15,6461,11,102,43,40,504,486.0,537,463,60,120.0,113,1,316,131,51,0,0,490,-10483,-1923,448,-5.59,,,,,,,,,,,,
35324,1564156122263,0,1.92,0.59,0.35,0.98,0.82,0.92,0.7,0.46,-21,0,-22,1.15,6454,11,102,43,41,503,484.0,541,468,60,119.0,113,1,323,209,51,0,0,488,-10483,6193,446,-5.59,,,,,,,,,,,,
35344,1564156122283,2,1.93,0.6,0.35,0.98,0.82,0.91,0.64,0.49,-22,-1,-24,1.11,6467,11,102,43,41,516,482.0,546,465,60,118.0,113,1,323,209,51,0,0,487,-899,17628,445,-5.59,44.681431,10.02469,46.92,178.6,0,0.0,-1,0.0,0.0,0,0.14,0.5891
35364,1564156122303,-2,1.93,0.6,0.35,0.97,0.82,0.87,0.78,0.46,-22,-0,-23,1.17,6456,11,102,43,41,560,482.0,539,462,60,117.0,113,1,323,209,51,0,0,579,10305,15649,446,-5.59,,,,,,,,,,,,
35384,1564156122323,0,1.93,0.6,0.35,0.98,0.83,0.91,0.82,0.51,-24,1,-26,1.23,6461,11,102,43,41,617,482.0,523,465,60,119.0,114,1,323,209,51,0,0,579,-899,-6387,443,-5.59,,,,,,,,,,,,
35404,1564156122343,2,1.93,0.61,0.36,0.98,0.83,0.97,0.78,0.47,-25,-1,-26,1.24,6427,12,102,43,41,676,482.0,535,465,60,118.0,114,1,323,209,51,0,0,579,-899,3571,441,-5.59,,,,,,,,,,,,
35424,1564156122363,2,1.93,0.62,0.36,0.99,0.83,0.88,0.9,0.52,-25,-1,-28,1.26,6381,12,102,43,41,748,484.0,524,465,60,118.0,114,1,323,210,51,0,0,579,-10483,15649,441,-5.59,,,,,,,,,,,,
35444,1564156122383,-1,1.93,0.61,0.36,0.98,0.83,0.84,1.0,0.45,-26,1,-29,1.3,6347,12,102,43,42,791,482.0,521,464,60,119.0,114,1,329,210,51,0,0,579,3580,-3267,439,-5.59,44.681427,10.024673,45.96,178.5,0,0.0,-1,0.0,0.0,0,0.15,0.5907
35464,1564156122404,-1,1.94,0.61,0.36,0.98,0.84,0.9,1.01,0.45,-27,1,-30,1.35,6332,13,102,43,42,848,480.0,510,463,60,119.0,114,1,329,210,51,0,0,24,8488,-8985,439,-5.59,,,,,,,,,,,,
35484,1564156122424,2,1.93,0.61,0.36,0.98,0.84,0.93,0.94,0.38,-28,0,-32,1.33,6319,17,102,43,43,863,480.0,512,466,60,118.0,114,1,336,211,50,0,0,480,8488,3571,438,-5.59,,,,,,,,,,,,
35504,1564156122444,2,1.94,0.62,0.35,0.99,0.83,0.89,0.98,0.36,-29,0,-32,1.32,6340,18,102,43,44,861,479.0,512,468,60,118.0,114,1,343,212,50,0,0,483,10305,3571,438,-5.59,,,,,,,,,,,,
35524,1564156122464,-1,1.95,0.61,0.36,0.99,0.84,0.88,1.09,0.39,-29,0,-33,1.4,6362,21,102,43,45,860,480.0,512,464,60,119.0,114,1,349,214,50,0,0,482,16648,-6387,436,-5.59,,,,,,,,,,,,
35544,1564156122484,0,1.95,0.62,0.36,0.99,0.84,0.87,1.15,0.39,-30,-0,-34,1.44,6384,27,102,43,48,860,476.0,512,464,60,120.0,114,1,366,222,50,0,0,479,-23367,3571,436,-5.59,44.681427,10.024657,45.52,178.5,0,0.0,-1,0.0,0.0,0,0.15,0.5924
35564,1564156122504,2,1.96,0.62,0.36,0.98,0.84,0.9,1.04,0.42,-31,-1,-37,1.38,6427,36,102,43,52,860,480.0,522,465,60,117.0,114,1,379,245,50,0,0,479,8488,-6387,435,-5.59,,,,,,,,,,,,
35584,1564156122524,1,1.97,0.62,0.36,0.99,0.84,0.85,1.1,0.37,-31,1,-36,1.39,6410,43,102,43,58,860,478.0,525,462,60,118.0,145,1,392,260,63,0,0,480,-23367,17628,432,-5.59,,,,,,,,,,,,
35604,1564156122544,-1,1.98,0.62,0.36,1.01,0.84,0.84,1.16,0.45,-31,0,-39,1.43,6472,50,102,43,65,862,476.0,516,465,60,120.0,145,1,386,287,63,0,0,481,-23367,-9160,432,-5.59,,,,,,,,,,,,
35624,1564156122564,-1,1.99,0.63,0.36,1.0,0.84,0.87,1.17,0.41,-32,-2,-39,1.45,6438,56,102,43,72,865,476.0,539,467,60,118.0,145,1,367,358,63,0,0,478,-23367,-1923,433,-5.59,,,,,,,,,,,,
35644,1564156122584,2,2.0,0.64,0.36,1.01,0.85,0.82,1.08,0.52,-32,-1,-39,1.35,6321,61,102,43,77,866,475.0,537,464,60,119.0,145,1,358,441,63,0,0,478,2212,30272,432,-5.59,44.681423,10.024643,45.13,178.4,0,0.0,-1,0.0,0.0,0,0.15,0.5941
35664,1564156122604,3,2.0,0.64,0.36,1.01,0.84,0.74,1.15,0.5,-32,1,-40,1.37,6330,65,102,43,82,867,477.0,516,466,60,119.0,145,1,355,470,63,0,0,475,2212,15649,434,-5.59,,,,,,,,,,,,
35684,1564156122624,-2,2.02,0.64,0.36,1.01,0.84,0.77,1.2,0.47,-32,3,-39,1.43,6410,71,102,43,86,877,475.0,500,468,60,120.0,268,1,350,491,116,0,0,478,-17956,2131,434,-5.59,,,,,,,,,,,,
35704,1564156122644,1,2.02,0.64,0.36,1.02,0.85,0.89,1.17,0.52,-32,0,-40,1.47,6572,74,102,43,89,888,476.0,508,466,60,120.0,268,1,351,507,116,0,0,479,-17956,12552,434,-5.59,,,,,,,,,,,,
35724,1564156122664,-1,2.03,0.65,0.37,1.01,0.85,0.77,1.13,0.53,-32,1,-39,1.37,6670,77,102,43,92,900,476.0,538,466,60,118.0,268,1,352,520,116,0,0,478,-23367,2109,435,-5.59,,,,,,,,,,,,
35744,1564156122684,0,2.02,0.65,0.37,1.02,0.86,0.76,1.14,0.44,-32,3,-39,1.37,6820,77,102,43,92,914,478.0,535,465,60,119.0,268,1,361,522,116,0,0,486,16648,1248,435,-5.59,44.681419,10.024628,44.58,178.4,0,0.0,-1,0.0,0.0,0,0.15,0.5957
35764,1564156122704,-0,2.03,0.67,0.38,1.04,0.86,0.73,1.16,0.48,-31,3,-39,1.37,7096,77,102,43,91,979,477.0,550,463,60,120.0,268,1,379,530,116,0,0,492,-23367,-28648,435,-5.59,,,,,,,,,,,,
35784,1564156122724,-1,2.04,0.69,0.38,1.04,0.87,0.84,1.11,0.58,-32,2,-39,1.39,7118,77,102,43,91,1063,479.0,567,465,60,119.0,325,1,381,532,142,0,0,498,10305,16383,438,-5.59,,,,,,,,,,,,
35804,1564156122744,1,2.03,0.72,0.4,1.07,0.88,0.76,1.12,0.62,-32,3,-39,1.35,7059,77,102,44,92,1141,484.0,564,467,60,118.0,325,1,376,525,142,0,0,516,-10483,1780,439,-5.59,,,,,,,,,,,,
35824,1564156122764,1,2.02,0.73,0.4,1.09,0.9,0.63,1.18,0.57,-31,5,-41,1.34,7062,77,102,43,92,1214,488.0,550,466,60,119.0,325,1,375,529,142,0,0,527,1,15679,441,-5.59,,,,,,,,,,,,
35844,1564156122784,-2,2.04,0.72,0.4,1.07,0.9,0.73,1.1,0.69,-32,3,-42,1.32,7080,77,102,44,92,1252,491.0,555,464,60,118.0,325,1,377,525,142,0,0,524,248,-6656,443,-5.59,44.681416,10.024614,44.15,178.3,0,0.0,-1,0.0,0.0,0,0.15,0.5974
35864,1564156122804,2,2.03,0.71,0.4,1.07,0.89,0.81,1.04,0.71,-34,3,-40,1.32,6998,77,102,44,92,1277,493.0,552,465,60,119.0,325,1,370,522,142,0,0,523,-6528,-9072,447,-5.59,,,,,,,,,,,,
35884,1564156122824,-0,2.03,0.7,0.4,1.06,0.89,0.62,1.14,0.63,-34,4,-41,1.3,6988,77,102,44,92,1288,495.0,543,464,60,120.0,309,1,370,522,138,0,0,520,771,-3082,448,-5.59,,,,,,,,,,,,
35904,1564156122844,-0,2.04,0.69,0.4,1.05,0.88,0.65,1.16,0.59,-34,4,-41,1.33,7121,77,102,44,92,1241,495.0,561,466,60,118.0,309,1,380,527,138,0,0,525,771,17136,447,-5.59,,,,,,,,,,,,
35924,1564156122864,-1,2.04,0.67,0.39,1.04,0.88,0.76,0.99,0.73,-35,0,-44,1.25,7267,78,102,44,92,1188,499.0,576,466,60,118.0,309,1,391,533,138,0,0,531,-22519,-3482,450,-5.59,,,,,,,,,,,,
35944,1564156122884,3,2.04,0.66,0.37,1.03,0.87,0.74,0.85,0.73,-35,-1,-44,1.13,7307,78,102,44,91,1104,503.0,577,468,60,117.0,309,1,395,536,138,0,0,546,11560,-23623,450,-5.59,44.681408,10.024602,44.5,178.3,0,0.0,-1,0.0,0.0,0,0.15,0.5991
35964,1564156122904,1,2.05,0.66,0.38,1.03,0.86,0.67,0.86,0.64,-35,1,-46,1.09,7321,78,102,44,91,1059,505.0,573,464,60,119.0,309,1,397,536,138,0,0,553,6274,2524,455,-5.59,,,,,,,,,,,,
35984,1564156122924,1,2.05,0.66,0.38,1.02,0.86,0.59,0.81,0.61,-37,3,-45,1.0,7557,78,102,44,90,1037,507.0,577,463,60,119.0,337,1,416,547,154,0,0,545,-21872,-22519,457,-5.59,,,,,,,,,,,,
36004,1564156122944,0,2.07,0.67,0.38,1.04,0.87,0.58,0.77,0.59,-38,3,-46,0.96,7674,78,102,44,90,1017,512.0,593,468,60,118.0,337,1,424,550,154,0,0,547,17136,-3210,458,-5.59,,,,,,,,,,,,
36024,1564156122964,-1,2.09,0.68,0.4,1.04,0.88,0.61,0.69,0.7,-39,0,-49,0.92,7621,78,102,44,89,993,513.0,606,467,60,119.0,337,1,419,548,154,0,0,562,26178,23619,458,-5.59,,,,,,,,,,,,
36044,1564156122984,0,2.1,0.68,0.39,1.05,0.87,0.74,0.61,0.71,-39,1,-47,0.96,7770,77,102,44,89,978,516.0,598,465,60,119.0,337,1,430,545,154,0,0,555,16383,1,457,-5.59,44.6814,10.024589,46.39,178.2,0,0.0,-1,0.0,0.0,0,0.15,0.6007
36064,1564156123004,0,2.13,0.67,0.39,1.04,0.88,0.79,0.74,0.76,-39,1,-48,1.08,7841,78,102,44,88,980,515.0,595,463,60,119.0,337,1,434,539,154,0,0,569,-14,-22359,459,-5.59,,,,,,,,,,,,
36084,1564156123024,-0,2.16,0.67,0.39,1.03,0.88,0.69,0.87,0.69,-38,1,-48,1.11,7861,77,102,44,88,983,520.0,612,467,60,119.0,344,1,435,529,158,0,0,591,1248,-13043,465,-5.59,,,,,,,,,,,,
36104,1564156123044,2,2.21,0.68,0.4,1.04,0.88,0.55,0.88,0.56,-39,3,-48,1.03,7722,68,102,44,86,986,523.0,604,461,60,119.0,344,1,423,518,158,0,0,577,-22519,30227,467,-5.59,,,,,,,,,,,,
36124,1564156122992,0,2.25,0.69,0.4,1.06,0.88,0.59,0.79,0.59,-40,1,-49,0.98,7958,56,102,44,82,991,525.0,610,465,60,119.0,344,1,435,486,158,0,0,566,2088,-22359,468,-5.59,,,,,,,,,,,,
36144,1564156123012,-0,2.3,0.69,0.4,1.05,0.88,0.68,0.86,0.73,-40,-3,-50,1.1,8019,50,102,44,76,996,529.0,620,464,60,119.0,344,1,438,438,158,0,0,582,-28648,208,470,-5.59,44.681393,10.024576,47.56,178.2,0,0.0,-1,0.0,0.0,0,0.15,0.6024
36164,1564156123102,1,2.34,0.69,0.39,1.05,0.88,0.5,0.98,0.59,-38,0,-52,1.09,7881,40,102,44,71,999,531.0,625,465,60,119.0,344,1,439,396,158,0,0,597,-22519,-23055,471,-5.59,,,,,,,,,,,,
36184,1564156123122,0,2.37,0.69,0.39,1.06,0.88,0.42,0.86,0.6,-37,0,-53,0.96,7848,30,102,44,66,1015,531.0,636,464,60,118.0,219,1,443,338,104,0,0,601,2524,-2934,473,-5.59,,,,,,,,,,,,
36204,1564156123142,-1,2.4,0.7,0.4,1.06,0.89,0.58,0.76,0.73,-38,-0,-52,0.96,7971,21,102,44,59,1028,529.0,621,463,60,120.0,219,1,432,295,104,0,0,572,-28648,-3190,482,-5.59,,,,,,,,,,,,
36224,1564156123162,1,2.42,0.73,0.41,1.08,0.89,0.64,0.88,0.72,-38,-2,-51,1.09,7874,12,102,44,53,1038,530.0,613,466,60,119.0,219,1,387,261,104,0,0,574,2524,-7939,487,-5.59,,,,,,,,,,,,
36244,1564156123182,2,2.43,0.77,0.42,1.12,0.91,0.46,0.94,0.67,-36,-3,-49,1.05,7835,8,102,44,49,1046,528.0,607,469,60,119.0,219,1,375,231,104,0,0,579,-28648,-1894,491,-5.59,44.681381,10.024565,48.68,178.1,0,0.0,-1,0.0,0.0,0,0.16,0.6041
36264,1564156123204,-1,2.45,0.76,0.42,1.12,0.92,0.33,0.83,0.58,-35,-1,-48,0.89,7747,6,102,44,45,1040,529.0,619,467,60,118.0,219,1,355,215,104,0,0,575,-9072,-18032,496,-5.59,,,,,,,,,,,,
36284,1564156123224,-0,2.46,0.76,0.43,1.11,0.92,0.34,0.78,0.67,-34,-1,-47,0.85,7536,6,102,44,42,1036,528.0,602,466,60,119.0,122,1,332,211,61,0,0,567,-28648,6273,499,-5.59,,,,,,,,,,,,
36304,1564156123244,2,2.48,0.76,0.43,1.11,0.92,0.29,0.76,0.65,-33,2,-43,0.81,7270,6,102,44,39,1024,528.0,583,466,60,119.0,122,1,310,205,61,0,0,550,-28648,6274,503,-5.59,,,,,,,,,,,,
36324,1564156123264,-1,2.48,0.78,0.43,1.13,0.93,0.18,0.83,0.61,-30,2,-41,0.85,7104,6,102,44,37,1006,525.0,578,467,60,119.0,122,1,304,194,61,0,0,535,2088,-32248,507,-5.59,,,,,,,,,,,,
36344,1564156123284,-2,2.47,0.78,0.44,1.14,0.93,0.27,0.89,0.57,-27,2,-38,0.93,6934,6,102,44,36,983,521.0,565,468,60,120.0,122,1,301,188,61,0,0,524,-9212,2524,510,-5.59,44.681374,10.024553,49.51,178.0,0,0.0,-1,0.0,0.0,0,0.16,0.6057
36364,1564156123306,1,2.46,0.78,0.43,1.13,0.92,0.36,0.75,0.63,-25,2,-36,0.83,6858,5,102,44,35,943,516.0,554,466,60,118.0,122,1,298,183,61,0,0,519,16383,2524,514,-5.59,,,,,,,,,,,,
36384,1564156123326,-1,2.44,0.75,0.42,1.11,0.92,0.35,0.88,0.54,-22,3,-31,0.94,6768,5,102,44,35,925,517.0,550,466,60,120.0,89,1,298,183,46,0,0,512,-14,-8187,517,-5.59,,,,,,,,,,,,
36404,1564156123346,2,2.41,0.74,0.42,1.11,0.91,0.45,0.81,0.61,-20,1,-26,0.93,6686,5,102,44,34,912,517.0,560,467,60,119.0,89,1,295,176,46,0,0,511,17136,16383,518,-5.59,,,,,,,,,,,,
36424,1564156123366,-1,2.38,0.75,0.42,1.12,0.91,0.42,0.91,0.56,-16,3,-22,1.0,6508,5,102,44,34,886,519.0,549,466,60,120.0,89,1,295,176,46,0,0,515,-4054,26178,518,-5.59,,,,,,,,,,,,
36444,1564156123386,0,2.39,0.76,0.42,1.13,0.92,0.5,0.9,0.55,-13,2,-19,1.03,6412,6,102,44,34,849,522.0,541,466,60,119.0,89,1,295,176,46,0,0,509,10994,-9212,522,-5.59,44.681362,10.024544,50.55,177.9,0,0.0,-1,0.0,0.0,0,0.16,0.6074
36464,1564156123405,0,2.39,0.77,0.43,1.14,0.92,0.45,0.79,0.56,-8,3,-16,0.91,6345,6,102,44,34,836,522.0,533,468,60,119.0,89,1,295,176,46,0,0,509,15661,1341,522,-5.59,,,,,,,,,,,,
36484,1564156123425,2,2.37,0.78,0.43,1.15,0.91,0.44,0.74,0.51,-4,4,-14,0.86,6399,6,102,44,34,823,521.0,532,466,60,119.0,80,1,295,176,42,0,0,505,15661,-32248,521,-5.59,,,,,,,,,,,,
36504,1564156123445,-1,2.35,0.8,0.42,1.17,0.92,0.55,0.65,0.54,-0,2,-13,0.85,6490,6,102,43,34,813,520.0,527,463,60,119.0,80,1,295,177,42,0,0,501,11560,-3856,520,-5.59,,,,,,,,,,,,
36524,1564156123465,2,2.31,0.83,0.43,1.18,0.93,0.63,0.53,0.45,1,1,-11,0.83,6618,6,102,43,34,802,514.0,541,464,60,119.0,80,1,295,177,42,0,0,496,10408,2109,514,-5.59,,,,,,,,,,,,
36544,1564156123485,-0,2.28,0.83,0.43,1.19,0.93,0.68,0.41,0.48,1,3,-10,0.79,6771,9,102,43,34,801,507.0,556,467,60,120.0,80,1,295,177,42,0,0,499,15661,-9216,510,-5.59,44.681351,10.024534,51.28,177.9,0,0.0,-1,0.0,0.0,0,0.16,0.6091
36564,1564156123501,2,2.24,0.84,0.44,1.19,0.95,0.72,0.39,0.43,0,2,-9,0.82,6845,9,102,43,34,805,506.0,566,470,60,118.0,80,1,295,177,42,0,0,500,-32248,505,504,-5.59,,,,,,,,,,,,
36584,1564156123521,-2,2.23,0.84,0.44,1.19,0.95,0.71,0.4,0.34,-1,2,-9,0.81,6875,11,102,43,34,813,506.0,557,465,60,120.0,92,1,295,177,46,0,0,503,-28648,998,500,-5.59,,,,,,,,,,,,
36604,1564156123541,2,2.2,0.84,0.44,1.18,0.94,0.77,0.38,0.44,-3,1,-9,0.86,6828,11,102,43,34,819,511.0,562,467,60,119.0,92,1,295,177,46,0,0,507,-3856,2109,497,-5.59,,,,,,,,,,,,
36624,1564156123561,-1,2.2,0.82,0.44,1.17,0.94,0.8,0.42,0.34,-4,4,-11,0.91,6835,11,102,43,34,826,515.0,558,467,60,120.0,92,1,295,177,46,0,0,511,-14,3,492,181.28,,,,,,,,,,,,
36644,1564156123581,0,2.18,0.81,0.44,1.16,0.94,0.88,0.39,0.43,-7,2,-9,0.96,6830,11,102,43,35,830,511.0,563,470,60,119.0,92,1,298,184,46,0,0,510,-3856,248,490,-5.59,44.681339,10.024528,51.24,177.8,0,0.0,-1,0.0,0.0,0,0.16,0.6107
36664,1564156123599,0,2.18,0.8,0.44,1.14,0.94,0.84,0.46,0.4,-9,2,-10,0.96,6845,11,102,43,35,836,510.0,542,465,60,120.0,92,1,298,184,46,0,0,511,-4054,505,487,-5.59,,,,,,,,,,,,
36684,1564156123619,-2,2.18,0.77,0.43,1.13,0.92,0.89,0.49,0.39,-10,3,-13,1.01,6791,11,102,43,35,842,510.0,543,466,60,119.0,96,1,298,184,47,0,0,507,10994,-1562,485,-5.59,,,,,,,,,,,,
36704,1564156123639,1,2.18,0.75,0.42,1.11,0.92,0.86,0.54,0.37,-12,2,-13,1.01,6764,11,102,43,35,846,507.0,558,470,60,119.0,96,1,298,184,47,0,0,508,10994,505,486,-5.59,,,,,,,,,,,,
36724,1564156123659,-2,2.18,0.74,0.43,1.1,0.92,0.85,0.59,0.4,-13,2,-15,1.04,6766,11,102,43,35,846,510.0,564,464,60,118.0,96,1,298,189,47,0,0,511,-3414,-6441,483,-5.59,,,,,,,,,,,,
36744,1564156123679,1,2.17,0.74,0.42,1.11,0.91,0.87,0.64,0.41,-13,1,-15,1.08,6701,12,102,43,36,849,508.0,567,467,60,119.0,96,1,301,189,47,0,0,503,-21872,-1562,484,-5.59,44.681324,10.02452,49.76,177.7,0,0.0,-1,0.0,0.0,0,0.16,0.6124
36764,1564156123699,0,2.18,0.74,0.4,1.1,0.91,0.86,0.64,0.46,-14,1,-16,1.07,6670,13,102,43,37,851,508.0,569,467,60,119.0,96,1,304,195,47,0,0,508,-3414,-1562,483,-5.59,,,,,,,,,,,,
36784,1564156123719,1,2.17,0.74,0.41,1.11,0.9,0.87,0.72,0.38,-14,1,-16,1.13,6686,13,102,43,37,855,505.0,541,463,60,119.0,101,1,304,118,49,0,0,500,6274,-1562,481,-5.59,,,,,,,,,,,,
36804,1564156123739,1,2.18,0.75,0.42,1.11,0.91,0.88,0.71,0.42,-15,1,-16,1.13,6720,13,102,43,38,857,505.0,554,471,60,119.0,101,1,307,201,49,0,0,504,6274,-17956,483,-5.59,,,,,,,,,,,,
36824,1564156123759,0,2.16,0.76,0.42,1.13,0.92,0.89,0.73,0.38,-15,1,-17,1.15,6730,13,102,43,38,859,505.0,546,465,60,120.0,101,1,307,201,49,0,0,503,6274,16648,480,-5.59,,,,,,,,,,,,
36844,1564156123779,1,2.17,0.78,0.43,1.15,0.92,0.88,0.73,0.39,-15,1,-18,1.14,6734,13,102,43,39,859,506.0,551,470,60,119.0,101,1,310,206,49,0,0,507,-28648,-1562,479,-5.59,44.681316,10.024513,49.2,177.7,0,0.0,-1,0.0,0.0,0,0.16,0.6141
36864,1564156123801,0,2.16,0.79,0.42,1.15,0.92,0.87,0.83,0.36,-16,2,-18,1.2,6715,14,102,43,39,859,506.0,537,466,60,120.0,101,1,310,130,49,0,0,500,6274,32033,480,-5.59,,,,,,,,,,,,
36884,1564156123821,2,2.16,0.79,0.43,1.16,0.92,0.89,0.75,0.45,-16,2,-19,1.16,6694,14,102,43,39,856,504.0,544,469,60,119.0,108,1,310,206,52,0,0,505,-32248,-6441,478,-5.59,,,,,,,,,,,,
36904,1564156123841,-1,2.16,0.79,0.42,1.15,0.92,0.9,0.84,0.42,-17,3,-20,1.23,6696,14,102,43,39,852,504.0,540,464,60,120.0,108,1,310,207,52,0,0,508,2109,32033,478,-5.59,,,,,,,,,,,,
36924,1564156123861,3,2.15,0.79,0.44,1.16,0.93,0.94,0.78,0.46,-18,1,-20,1.22,6706,14,102,43,40,844,505.0,548,470,60,118.0,108,1,317,207,52,0,0,502,6274,2212,476,-5.59,,,,,,,,,,,,
36944,1564156123881,-1,2.16,0.79,0.44,1.16,0.93,0.91,0.85,0.42,-18,2,-21,1.24,6677,14,102,43,40,836,503.0,544,464,60,120.0,108,1,317,207,52,0,0,507,2109,-23367,475,-5.59,44.681301,10.024507,48.95,177.7,0,0.0,-1,0.0,0.0,0,0.17,0.6157
36964,1564156123905,1,2.15,0.79,0.43,1.16,0.93,0.95,0.78,0.44,-19,3,-22,1.23,6710,14,102,43,41,831,504.0,553,467,60,119.0,108,1,324,209,52,0,0,504,-32248,-3210,474,-5.59,,,,,,,,,,,,
36984,1564156123925,-1,2.15,0.78,0.43,1.15,0.92,0.93,0.85,0.43,-19,2,-22,1.26,6722,14,102,43,40,825,502.0,542,462,60,121.0,112,1,317,207,53,0,0,501,15661,-23367,474,-5.59,,,,,,,,,,,,
37004,1564156123945,0,2.15,0.78,0.43,1.15,0.93,0.93,0.81,0.41,-20,2,-23,1.23,6720,23,102,43,43,819,501.0,550,468,60,120.0,112,1,338,210,53,0,0,506,11560,16648,473,-5.59,,,,,,,,,,,,
37024,1564156123965,-1,2.13,0.79,0.43,1.15,0.93,0.95,0.82,0.41,-20,2,-24,1.26,6754,37,102,43,47,810,500.0,545,465,60,120.0,112,1,367,219,53,0,0,501,10408,3576,471,-5.59,,,,,,,,,,,,
37044,1564156123985,2,2.14,0.78,0.44,1.15,0.93,0.95,0.8,0.44,-21,2,-25,1.24,6868,47,102,43,55,804,503.0,550,467,60,119.0,112,1,393,259,53,0,0,502,2109,-17956,473,-5.59,44.68129,10.024501,48.35,177.6,0,0.0,-1,0.0,0.0,0,0.17,0.6174
37064,1564156123995,1,2.13,0.79,0.43,1.16,0.92,0.87,0.9,0.36,-21,3,-26,1.26,6975,57,102,43,64,800,500.0,548,466,60,120.0,112,1,409,300,53,0,0,500,11560,10432,470,-5.59,,,,,,,,,,,,
37084,1564156124015,-1,2.14,0.79,0.43,1.15,0.93,0.97,0.81,0.47,-22,1,-26,1.27,7025,67,102,43,72,796,500.0,573,468,60,118.0,200,1,388,382,94,0,0,503,10408,-1923,468,-5.59,,,,,,,,,,,,
37104,1564156124035,2,2.14,0.79,0.43,1.16,0.93,0.95,0.86,0.44,-22,1,-26,1.28,7064,76,102,43,81,791,500.0,562,465,60,119.0,200,1,382,475,94,0,0,497,10408,243,468,-5.59,,,,,,,,,,,,
37124,1564156124055,1,2.13,0.78,0.43,1.15,0.92,0.78,0.96,0.37,-22,0,-26,1.23,7140,83,102,43,88,789,500.0,565,466,60,119.0,200,1,384,521,94,0,0,498,10408,2212,468,-5.59,,,,,,,,,,,,
37144,1564156124075,1,2.13,0.79,0.43,1.15,0.93,0.81,0.99,0.39,-22,0,-27,1.28,7140,85,102,43,91,788,500.0,570,467,60,119.0,200,1,382,534,94,0,0,505,10408,11560,468,-5.59,44.681282,10.024497,47.62,177.5,0,0.0,-1,0.0,0.0,0,0.17,0.6191
37164,1564156124095,-0,2.14,0.79,0.44,1.15,0.94,0.93,0.86,0.54,-23,0,-28,1.27,7197,85,102,43,92,805,505.0,571,466,60,119.0,200,1,386,535,94,0,0,508,6274,-3082,471,-5.59,,,,,,,,,,,,
37184,1564156124115,2,2.14,0.79,0.44,1.15,0.94,0.95,0.81,0.57,-24,1,-28,1.25,7281,85,102,43,93,829,506.0,565,467,60,119.0,312,1,391,540,147,0,0,519,-28648,-28648,476,-5.59,,,,,,,,,,,,
37204,1564156124135,1,2.14,0.8,0.44,1.15,0.94,0.85,0.83,0.53,-24,2,-29,1.19,7387,85,102,43,93,853,509.0,568,462,60,119.0,312,1,402,545,147,0,0,520,10994,6274,475,-5.59,,,,,,,,,,,,
37224,1564156124155,2,2.14,0.79,0.44,1.15,0.94,0.73,0.84,0.52,-24,2,-30,1.11,7443,85,102,43,92,876,514.0,559,465,60,119.0,312,1,402,545,147,0,0,535,-3482,-32248,477,-5.59,,,,,,,,,,,,
37244,1564156124099,0,2.14,0.79,0.44,1.14,0.94,0.57,0.95,0.46,-23,4,-30,1.11,7327,85,102,43,92,945,517.0,567,466,60,119.0,312,1,396,543,147,0,0,539,1341,-28648,482,-5.59,44.681267,10.024494,47.42,177.5,0,0.0,-1,0.0,0.0,0,0.17,0.6207
37264,1564156124197,0,2.14,0.79,0.44,1.14,0.94,0.49,1.06,0.42,-22,5,-29,1.17,7270,85,102,43,93,1027,519.0,564,462,60,120.0,312,1,391,539,147,0,0,543,10408,-28648,487,-5.59,,,,,,,,,,,,
37284,1564156124217,-1,2.16,0.79,0.44,1.14,0.95,0.48,1.11,0.5,-22,4,-29,1.21,7247,78,102,43,92,1098,524.0,563,463,60,120.0,305,1,390,537,149,0,0,542,2524,2524,488,-5.59,,,,,,,,,,,,
37304,1564156124237,-0,2.17,0.8,0.44,1.14,0.93,0.61,1.01,0.65,-23,3,-29,1.18,7214,57,102,43,89,1172,523.0,570,463,60,120.0,305,1,389,530,149,0,0,544,-22519,2524,493,-5.59,,,,,,,,,,,,
37324,1564156124257,-1,2.2,0.8,0.43,1.15,0.94,0.71,0.89,0.76,-24,3,-29,1.14,7228,35,102,43,84,1184,527.0,573,468,60,119.0,305,1,391,498,149,0,0,540,6274,-22263,497,-5.59,,,,,,,,,,,,
37344,1564156124277,2,2.22,0.8,0.44,1.16,0.94,0.62,0.83,0.72,-23,3,-30,1.04,7301,32,102,43,77,1197,529.0,572,468,60,119.0,305,1,399,448,149,0,0,542,6274,2088,502,-5.59,44.681255,10.024491,47.25,177.4,0,0.0,-1,0.0,0.0,0,0.17,0.6224
37364,1564156124305,2,2.24,0.81,0.44,1.16,0.95,0.49,0.88,0.56,-22,3,-28,1.01,7318,31,102,43,73,1181,530.0,570,470,60,119.0,305,1,404,401,149,0,0,542,2524,-9072,507,-5.59,,,,,,,,,,,,
37384,1564156124325,1,2.25,0.81,0.45,1.17,0.94,0.37,0.95,0.53,-20,4,-27,1.02,7228,31,102,43,69,1135,530.0,578,468,60,119.0,194,1,404,346,99,0,0,538,2524,-2934,512,-5.59,,,,,,,,,,,,
37404,1564156124345,1,2.28,0.83,0.45,1.19,0.96,0.44,0.96,0.62,-18,2,-25,1.06,7247,30,102,43,67,1067,529.0,565,467,60,120.0,194,1,410,326,99,0,0,542,-9072,-9072,516,-5.59,,,,,,,,,,,,
37424,1564156124365,-2,2.3,0.83,0.45,1.19,0.95,0.54,0.89,0.71,-17,2,-25,1.04,7236,30,102,43,65,1008,531.0,560,465,60,120.0,194,1,416,322,99,0,0,541,-22519,-22519,522,-5.59,,,,,,,,,,,,
37444,1564156124385,-1,2.31,0.83,0.45,1.2,0.96,0.62,0.72,0.82,-16,2,-25,0.95,7273,30,102,43,65,984,532.0,571,469,60,118.0,194,1,418,317,99,0,0,539,14504,-22519,523,-5.59,44.681244,10.02449,48.73,177.3,0,0.0,-1,0.0,0.0,0,0.17,0.6241
37464,1564156124404,2,2.32,0.85,0.46,1.21,0.96,0.59,0.62,0.8,-14,1,-23,0.85,7259,30,102,43,63,971,530.0,570,467,60,118.0,194,1,424,312,99,0,0,536,2524,2524,527,-5.59,,,,,,,,,,,,
37484,1564156124424,1,2.35,0.85,0.46,1.19,0.96,0.47,0.57,0.62,-11,3,-21,0.74,7292,31,102,43,63,940,530.0,572,468,60,119.0,160,1,426,307,85,0,0,540,6274,-32248,530,414.87,,,,,,,,,,,,
37504,1564156124444,2,2.38,0.85,0.46,1.2,0.97,0.41,0.52,0.53,-9,4,-18,0.66,7338,30,102,43,62,916,532.0,557,466,60,120.0,160,1,429,302,85,0,0,540,-22519,1779,532,-5.59,,,,,,,,,,,,
37524,1564156124464,2,2.41,0.86,0.46,1.21,0.97,0.44,0.43,0.5,-6,4,-16,0.62,7341,30,102,44,61,887,535.0,552,467,60,120.0,160,1,432,295,85,0,0,544,2524,-8186,535,-5.59,,,,,,,,,,,,
37544,1564156124484,1,2.45,0.87,0.47,1.22,0.98,0.49,0.38,0.5,-4,3,-14,0.62,7381,30,102,44,60,863,538.0,562,465,60,120.0,160,1,426,290,85,0,0,543,-9072,6274,538,-5.59,44.681232,10.024489,50.3,177.3,0,0.0,-1,0.0,0.0,0,0.17,0.6257
37564,1564156124502,0,2.49,0.88,0.47,1.22,0.98,0.55,0.25,0.62,-1,0,-12,0.61,7378,30,102,43,59,851,542.0,568,464,60,119.0,160,1,420,286,85,0,0,544,2524,-8962,542,-5.59,,,,,,,,,,,,
37584,1564156124522,1,2.52,0.88,0.47,1.22,0.98,0.69,0.07,0.73,0,-1,-10,0.69,7443,30,102,43,59,838,546.0,566,467,60,120.0,150,1,422,287,82,0,0,544,-28648,14504,546,-5.59,,,,,,,,,,,,
37604,1564156124542,0,2.56,0.89,0.47,1.23,0.99,0.81,-0.09,0.82,2,-2,-9,0.81,7464,31,102,43,59,834,546.0,595,465,60,119.0,150,1,422,287,82,0,0,548,-28648,-9072,546,-5.59,,,,,,,,,,,,
37624,1564156124562,-0,2.59,0.88,0.48,1.22,1.0,0.9,-0.21,0.89,3,-1,-6,0.93,7551,30,102,43,58,842,549.0,596,467,60,120.0,150,1,417,281,82,0,0,553,-22519,-22519,549,-5.59,,,,,,,,,,,,
37644,1564156124582,1,2.62,0.88,0.47,1.22,1.0,0.94,-0.27,0.9,5,-1,-3,0.98,7575,30,102,43,57,851,546.0,585,467,60,120.0,150,1,410,276,82,0,0,558,2524,-9072,549,-5.59,44.681217,10.024491,51.91,177.2,0,0.0,-1,0.0,0.0,0,0.17,0.6274
37664,1564156124600,1,2.63,0.89,0.47,1.22,0.99,0.94,-0.34,0.95,6,-2,-2,1.0,7631,30,102,43,57,857,547.0,605,468,60,120.0,150,1,411,277,82,0,0,568,-9212,6273,547,-5.59,,,,,,,,,,,,
37684,1564156124620,2,2.64,0.88,0.47,1.22,0.98,0.95,-0.43,0.92,7,-2,2,1.05,7631,30,102,43,57,863,547.0,592,466,60,119.0,145,1,411,272,80,0,0,565,-22519,-32504,547,-5.59,,,,,,,,,,,,
37704,1564156124640,1,2.62,0.88,0.47,1.22,0.99,0.93,-0.44,0.88,9,-1,7,1.02,7671,30,102,43,56,861,549.0,593,467,60,119.0,145,1,404,272,80,0,0,562,-22519,-22359,549,-5.59,,,,,,,,,,,,
37724,1564156124660,1,2.61,0.88,0.47,1.22,0.99,0.82,-0.46,0.86,10,-2,8,0.94,7634,30,102,43,56,861,550.0,582,467,60,119.0,145,1,404,266,80,0,0,561,10408,-28648,550,-5.59,,,,,,,,,,,,
37744,1564156124680,2,2.6,0.88,0.47,1.23,0.99,0.71,-0.51,0.79,11,-1,9,0.88,7591,30,102,43,56,861,554.0,589,466,60,119.0,145,1,404,272,80,0,0,553,-22519,-32504,554,-5.59,44.681202,10.024492,52.98,177.2,0,0.0,-1,0.0,0.0,0,0.18,0.6291
37764,1564156124700,1,2.58,0.88,0.47,1.22,0.98,0.64,-0.5,0.69,13,-1,12,0.81,7521,30,102,43,56,860,555.0,580,471,60,120.0,145,1,403,265,80,0,0,554,6274,-23623,555,-5.59,,,,,,,,,,,,
37784,1564156124720,2,2.57,0.88,0.46,1.22,0.98,0.59,-0.5,0.62,14,-0,14,0.78,7518,25,102,43,55,862,555.0,582,468,60,118.0,135,1,396,260,75,0,0,559,6274,-23623,555,-5.59,,,,,,,,,,,,
37804,1564156124740,-0,2.58,0.88,0.47,1.22,0.99,0.58,-0.5,0.53,15,1,13,0.77,7566,22,102,43,53,863,557.0,573,467,60,120.0,135,1,387,254,75,0,0,555,-28648,2211,558,-5.59,,,,,,,,,,,,
37824,1564156124760,-1,2.57,0.88,0.47,1.23,0.98,0.56,-0.55,0.45,16,1,14,0.79,7551,20,102,43,51,855,557.0,570,466,60,119.0,135,1,381,243,75,0,0,558,6274,2216,557,-5.59,,,,,,,,,,,,
37844,1564156124780,-1,2.58,0.88,0.47,1.23,0.98,0.54,-0.61,0.44,17,2,17,0.81,7625,20,102,43,49,850,557.0,575,467,60,119.0,135,1,375,238,75,0,0,554,-32248,2211,557,-5.59,44.68119,10.024492,53.46,177.2,0,0.0,-1,0.0,0.0,0,0.18,0.6307
37864,1564156124800,-0,2.58,0.88,0.47,1.23,0.99,0.58,-0.66,0.43,18,2,19,0.88,7575,20,102,43,48,841,560.0,588,466,60,119.0,135,1,372,226,75,0,0,560,-28648,-2934,558,-5.59,,,,,,,,,,,,
37884,1564156124820,-1,2.58,0.88,0.46,1.22,0.98,0.65,-0.66,0.47,18,2,18,0.92,7584,20,102,43,47,831,560.0,610,463,60,120.0,112,1,370,221,63,0,0,573,2088,-18032,560,-5.59,,,,,,,,,,,,
37904,1564156124840,-1,2.59,0.87,0.47,1.22,0.99,0.7,-0.72,0.47,19,2,19,1.01,7566,20,102,43,46,816,558.0,596,466,60,120.0,112,1,362,221,63,0,0,560,-32248,-18032,558,-5.59,,,,,,,,,,,,
37924,1564156124860,-0,2.59,0.88,0.47,1.22,0.98,0.75,-0.82,0.53,19,2,21,1.11,7578,20,102,43,45,804,556.0,606,465,60,120.0,112,1,355,217,63,0,0,544,10408,-18032,556,-5.59,,,,,,,,,,,,
37944,1564156124880,-0,2.59,0.88,0.46,1.22,0.98,0.88,-0.9,0.64,19,0,21,1.26,7533,20,102,43,44,792,557.0,593,465,60,119.0,112,1,347,217,63,0,0,537,10408,-30159,557,-5.59,44.681179,10.024491,53.93,177.2,0,0.0,-1,0.0,0.0,0,0.18,0.6324
37964,1564156124904,-1,2.6,0.88,0.46,1.22,0.98,0.96,-0.94,0.7,20,-1,21,1.35,7536,20,102,43,44,785,555.0,597,467,60,120.0,112,1,347,217,63,0,0,543,-22519,-23623,555,-5.59,,,,,,,,,,,,
37984,1564156124924,-0,2.59,0.88,0.46,1.23,0.98,1.03,-0.98,0.74,20,-2,21,1.42,7434,20,102,43,44,777,556.0,584,467,60,120.0,109,1,347,215,61,0,0,549,-9212,-30159,556,-5.59,,,,,,,,,,,,
38004,1564156124944,-0,2.59,0.88,0.46,1.23,0.98,1.08,-1.04,0.81,20,-2,22,1.5,7434,20,102,43,44,771,556.0,568,465,60,118.0,109,1,347,215,61,0,0,537,-9212,-28648,554,-5.59,,,,,,,,,,,,
38024,1564156124964,-2,2.59,0.88,0.47,1.22,0.98,1.12,-1.06,0.82,21,-4,23,1.55,7387,20,102,43,44,770,557.0,472,466,60,120.0,109,1,347,215,61,0,0,529,-9212,-18032,556,-5.59,,,,,,,,,,,,
38044,1564156124984,-1,2.58,0.88,0.46,1.23,0.98,1.15,-1.05,0.78,21,-4,23,1.55,7393,20,102,43,44,771,555.0,388,467,60,119.0,109,1,347,215,61,0,0,531,-9212,-22359,555,-5.59,44.681164,10.024488,54.54,177.2,0,0.0,-1,0.0,0.0,0,0.18,0.6341
38064,1564156124994,-1,2.56,0.88,0.47,1.22,0.99,1.09,-1.05,0.69,22,-3,26,1.51,7373,20,102,43,44,775,555.0,415,467,60,119.0,109,1,347,215,61,0,0,533,2524,-22359,555,-5.59,,,,,,,,,,,,
38084,1564156125014,2,2.54,0.88,0.46,1.23,0.98,0.98,-1.03,0.63,23,-1,28,1.42,7413,20,102,43,44,781,555.0,362,466,60,118.0,107,1,347,215,60,0,0,529,1341,-28648,554,-5.59,,,,,,,,,,,,
38104,1564156125034,3,2.49,0.88,0.45,1.22,0.99,0.94,-1.0,0.55,23,-1,29,1.37,7443,20,102,43,44,785,555.0,357,468,60,119.0,107,1,347,215,60,0,0,530,-8187,-2934,555,-5.59,,,,,,,,,,,,
38124,1564156125054,3,2.45,0.88,0.46,1.22,0.98,0.87,-0.92,0.45,23,-1,30,1.26,7437,20,102,43,44,788,553.0,336,467,60,119.0,107,1,347,215,60,0,0,527,-9212,-22359,553,-5.59,,,,,,,,,,,,
38144,1564156125074,2,2.4,0.88,0.46,1.22,0.98,0.77,-0.88,0.37,23,0,29,1.17,7431,20,102,43,44,791,552.0,403,467,60,120.0,107,1,347,215,60,0,0,531,-22519,-28648,552,-5.59,44.681148,10.024486,54.22,177.2,0,0.0,-1,0.0,0.0,0,0.18,0.6357
38164,1564156125096,1,2.35,0.88,0.46,1.22,0.98,0.71,-0.81,0.29,21,3,32,1.07,7367,20,102,43,44,793,549.0,362,470,60,119.0,107,1,347,215,60,0,0,529,2524,6274,547,-5.59,,,,,,,,,,,,
38184,1564156125116,1,2.28,0.86,0.46,1.21,0.98,0.7,-0.7,0.26,19,2,31,0.99,7378,20,102,43,44,793,546.0,323,468,60,119.0,110,1,347,215,60,0,0,535,6274,-28648,546,-5.59,,,,,,,,,,,,
38204,1564156125136,1,2.23,0.83,0.45,1.17,0.96,0.72,-0.58,0.31,16,2,29,0.92,7284,20,102,43,44,791,539.0,309,461,60,120.0,110,1,347,215,60,0,0,533,2104,-8962,539,-5.59,,,,,,,,,,,,
38224,1564156125156,-0,2.17,0.71,0.41,1.08,0.9,0.85,-0.5,0.39,11,0,27,0.98,7298,20,102,43,44,787,539.0,348,465,60,120.0,110,1,347,215,60,0,0,541,1780,-2934,532,-5.59,,,,,,,,,,,,
38244,1564156125176,-0,2.12,0.59,0.37,1.0,0.85,0.96,-0.42,0.46,6,-2,23,1.05,7253,20,102,43,44,780,542.0,364,465,60,119.0,110,1,347,217,60,0,0,547,1779,6274,525,-5.59,44.681137,10.024481,53.51,177.2,0,0.0,-1,0.0,0.0,0,0.18,0.6374
38264,1564156125204,-1,2.07,0.54,0.34,0.96,0.82,1.01,-0.36,0.53,1,-1,19,1.07,7324,20,102,43,45,776,542.0,354,463,60,119.0,110,1,355,217,60,0,0,547,-8962,-22519,522,-5.59,,,,,,,,,,,,
38284,1564156125224,0,2.01,0.49,0.34,0.93,0.79,1.01,-0.26,0.56,-3,-2,16,1.04,7321,19,102,43,45,771,545.0,412,463,60,118.0,115,1,355,217,60,0,0,547,-8962,-28648,520,-5.59,,,,,,,,,,,,
38304,1564156125244,2,1.96,0.47,0.31,0.92,0.77,0.85,-0.08,0.46,-6,0,12,0.85,7358,19,102,43,45,770,541.0,443,467,60,118.0,115,1,355,217,60,0,0,551,-2336,-28648,516,-5.59,,,,,,,,,,,,
38324,1564156125264,0,1.93,0.48,0.3,0.91,0.76,0.71,0.09,0.39,-7,2,8,0.71,7373,19,102,43,45,770,537.0,478,463,60,118.0,115,1,355,217,60,0,0,550,-30064,-506,514,-5.59,,,,,,,,,,,,
38344,1564156125284,0,1.91,0.48,0.3,0.92,0.76,0.6,0.28,0.27,-7,3,6,0.66,7378,19,102,43,45,772,539.0,510,466,60,119.0,115,1,355,217,60,0,0,549,1780,14504,510,-5.59,44.681122,10.024474,53.6,177.2,0,0.0,-1,0.0,0.0,0,0.18,0.6391
38364,1564156125304,1,1.91,0.5,0.3,0.93,0.76,0.55,0.45,0.19,-8,3,3,0.71,7455,19,102,43,45,776,533.0,538,466,60,119.0,115,1,355,217,60,0,0,549,2104,-28648,509,-5.59,,,,,,,,,,,,
38384,1564156125324,0,1.92,0.52,0.31,0.94,0.77,0.46,0.61,0.09,-7,3,-2,0.76,7485,19,102,43,44,782,534.0,553,466,60,118.0,120,1,347,215,61,0,0,543,14504,-8186,506,-5.59,,,,,,,,,,,,
38404,1564156125344,1,1.94,0.54,0.33,0.95,0.79,0.43,0.75,-0.01,-8,3,-4,0.87,7512,19,102,43,44,787,533.0,562,465,60,119.0,120,1,347,215,61,0,0,548,6274,2524,505,-5.59,,,,,,,,,,,,
38424,1564156125364,1,1.99,0.56,0.33,0.96,0.81,0.43,0.88,-0.09,-9,3,-6,0.97,7449,19,102,43,44,791,535.0,573,467,60,119.0,120,1,347,215,61,0,0,542,-2934,1780,505,-5.59,,,,,,,,,,,,
38444,1564156125384,0,2.03,0.58,0.35,0.98,0.81,0.38,0.99,-0.16,-10,3,-7,1.06,7473,19,102,43,44,792,537.0,577,463,60,119.0,120,1,347,215,61,0,0,545,-30064,2104,505,-5.59,44.68111,10.024468,53.01,177.2,0,0.0,-1,0.0,0.0,0,0.19,0.6407
38464,1564156125405,1,2.08,0.61,0.36,1.0,0.84,0.39,1.09,-0.16,-11,3,-10,1.16,7458,19,102,43,44,792,542.0,573,464,60,120.0,120,1,347,215,61,0,0,549,-3082,2524,507,-5.59,,,,,,,,,,,,
38484,1564156125425,3,2.13,0.63,0.36,1.03,0.84,0.45,1.18,-0.12,-12,1,-13,1.27,7387,19,102,43,44,792,542.0,578,467,60,119.0,118,1,347,215,60,0,0,544,-3082,2088,509,-5.59,,,,,,,,,,,,
38504,1564156125445,9,2.19,0.64,0.37,1.04,0.85,0.61,1.17,-0.02,-13,0,-14,1.32,7222,19,102,43,44,792,537.0,576,466,60,119.0,118,1,347,139,60,0,0,543,-30064,-28648,502,-5.59,,,,,,,,,,,,
38524,1564156125465,11,2.23,0.66,0.38,1.07,0.86,0.72,0.98,0.08,-14,-1,-17,1.21,7156,19,102,43,44,790,536.0,567,464,60,119.0,118,1,347,217,60,0,0,537,-22519,6274,499,-5.59,,,,,,,,,,,,
38544,1564156125485,18,2.26,0.67,0.38,1.08,0.86,0.69,0.94,0.06,-13,-1,-17,1.17,7075,17,102,43,45,792,528.0,566,469,60,119.0,118,1,355,217,60,0,0,533,10408,16383,503,-5.59,44.681099,10.024463,52.25,177.2,0,0.0,-1,0.0,0.0,0,0.19,0.6424
38564,1564156125501,15,2.28,0.7,0.38,1.09,0.87,0.67,0.96,0.04,-10,-1,-18,1.17,7038,17,102,43,45,796,523.0,551,462,60,119.0,118,1,355,217,60,0,0,523,1248,-3482,499,-5.59,,,,,,,,,,,,
38584,1564156125521,14,2.3,0.76,0.39,1.14,0.89,0.8,0.81,0.15,-10,-3,-19,1.13,7001,17,102,43,45,801,515.0,553,468,60,118.0,113,1,355,217,57,0,0,517,-14,17136,503,-5.59,,,,,,,,,,,,
38604,1564156125541,17,2.3,0.81,0.41,1.18,0.92,0.8,0.72,0.22,-9,-3,-17,1.08,6890,17,102,43,45,808,513.0,561,467,60,118.0,113,1,353,216,57,0,0,511,26178,-4054,505,-5.59,,,,,,,,,,,,
38624,1564156125561,14,2.31,0.83,0.43,1.19,0.94,0.83,0.65,0.21,-8,-2,-16,1.06,6845,17,102,43,45,816,511.0,544,468,60,120.0,113,1,353,216,57,0,0,508,10994,-21872,504,-5.59,,,,,,,,,,,,
38644,1564156125581,17,2.32,0.84,0.43,1.19,0.95,0.84,0.54,0.28,-8,-2,-16,1.0,6798,17,102,43,45,826,506.0,550,466,60,118.0,113,1,352,215,57,0,0,502,2109,-21872,499,-5.59,44.681084,10.024459,51.78,177.2,0,0.0,-1,0.0,0.0,0,0.19,0.6441
38664,1564156125601,15,2.33,0.85,0.43,1.2,0.95,0.84,0.5,0.2,-6,-1,-15,0.98,6773,17,102,43,45,834,499.0,547,467,60,120.0,113,1,352,215,57,0,0,501,-22519,-32248,498,-5.59,,,,,,,,,,,,
38684,1564156125621,17,2.34,0.86,0.43,1.21,0.96,0.93,0.37,0.26,-6,-3,-14,1.0,6793,17,102,43,46,836,498.0,555,469,60,119.0,113,1,359,218,56,0,0,496,2524,11560,493,-5.59,,,,,,,,,,,,
38704,1564156125641,18,2.36,0.85,0.43,1.2,0.96,0.9,0.38,0.22,-4,-1,-14,0.97,6754,17,102,43,46,841,492.0,537,465,60,120.0,113,1,359,217,56,0,0,494,-1818,3,492,-5.59,,,,,,,,,,,,
38724,1564156125661,16,2.36,0.85,0.44,1.21,0.95,0.99,0.25,0.23,-4,-2,-12,1.02,6744,17,102,43,46,848,489.0,544,466,60,119.0,113,1,359,217,56,0,0,485,-1562,-32768,489,-5.59,,,,,,,,,,,,
38744,1564156125681,18,2.36,0.86,0.44,1.21,0.96,0.96,0.29,0.22,-3,-1,-10,1.0,6653,17,102,43,46,854,488.0,534,466,60,120.0,113,1,359,217,56,0,0,486,-899,505,489,-5.59,44.681072,10.024455,51.3,177.2,0,0.0,-1,0.0,0.0,0,0.19,0.6457
38764,1564156125699,21,2.37,0.85,0.43,1.2,0.97,1.0,0.2,0.23,-2,-2,-8,1.02,6521,17,102,43,47,858,487.0,546,469,60,119.0,113,1,365,218,56,0,0,483,-23367,-1562,487,-5.59,,,,,,,,,,,,
38784,1564156125719,17,2.37,0.86,0.44,1.21,0.96,0.98,0.17,0.25,-1,-0,-7,1.0,6485,17,102,43,47,860,480.0,529,468,60,118.0,109,1,364,218,53,0,0,479,-1923,-1818,480,-5.59,,,,,,,,,,,,
38804,1564156125739,20,2.36,0.86,0.44,1.21,0.96,1.03,0.2,0.23,-1,-1,-5,1.05,6469,16,102,43,47,861,475.0,521,466,60,120.0,109,1,364,218,53,0,0,475,10432,-899,475,-5.59,,,,,,,,,,,,
38824,1564156125759,23,2.37,0.86,0.44,1.21,0.97,1.05,0.1,0.23,-1,-1,-4,1.05,6449,16,102,43,48,861,472.0,526,470,60,120.0,109,1,367,223,53,0,0,468,-3210,2212,472,-5.59,,,,,,,,,,,,
38844,1564156125779,21,2.38,0.85,0.44,1.21,0.97,0.99,0.09,0.3,-0,-0,-3,0.99,6392,16,102,43,48,859,467.0,515,464,60,119.0,109,1,366,222,53,0,0,467,2211,3576,467,-5.59,44.681061,10.024453,49.53,177.1,0,0.0,-1,0.0,0.0,0,0.19,0.6474
38864,1564156125801,21,2.39,0.85,0.45,1.21,0.96,1.0,0.11,0.23,1,1,-3,1.0,6334,16,102,43,48,856,465.0,503,467,60,120.0,109,1,366,222,53,0,0,464,-9160,12552,463,-5.59,,,,,,,,,,,,
38884,1564156125821,22,2.38,0.86,0.44,1.21,0.96,1.06,0.08,0.21,1,-0,-2,1.06,6262,15,102,43,48,856,462.0,503,466,60,120.0,113,1,365,222,52,0,0,458,-6387,16408,462,-5.59,,,,,,,,,,,,
38904,1564156125841,24,2.37,0.85,0.45,1.22,0.96,1.14,0.06,0.2,1,-2,-1,1.14,6202,15,102,43,49,856,458.0,505,468,60,119.0,113,1,368,222,52,0,0,457,10305,2211,456,-5.59,,,,,,,,,,,,
38924,1564156125861,24,2.38,0.86,0.45,1.22,0.97,1.18,-0.0,0.18,1,-3,0,1.18,6151,15,102,43,49,858,451.0,501,466,60,119.0,113,1,367,226,52,0,0,450,23400,-9160,451,-5.59,,,,,,,,,,,,
38944,1564156125881,24,2.37,0.87,0.45,1.22,0.97,1.15,-0.08,0.17,1,-4,1,1.15,6064,15,102,43,49,860,448.0,496,470,60,119.0,113,1,366,226,52,0,0,447,20625,10305,447,-5.59,44.681046,10.02445,48.23,177.1,0,0.0,-1,0.0,0.0,0,0.19,0.6491
38964,1564156125905,23,2.38,0.87,0.45,1.21,0.96,1.08,-0.15,0.19,1,-4,2,1.09,6032,14,102,43,49,864,443.0,495,466,60,119.0,113,1,366,226,52,0,0,438,5600,2131,443,-5.59,,,,,,,,,,,,
38984,1564156125925,22,2.39,0.86,0.44,1.22,0.96,1.04,-0.21,0.26,2,-2,2,1.06,5963,13,102,43,49,868,439.0,493,468,60,118.0,115,1,362,226,51,0,0,438,243,20625,439,-5.59,,,,,,,,,,,,
39004,1564156125945,21,2.4,0.86,0.45,1.21,0.97,0.99,-0.26,0.29,3,-2,3,1.02,5935,13,102,43,49,869,435.0,487,469,60,119.0,115,1,357,226,51,0,0,433,3635,-768,435,-5.59,,,,,,,,,,,,
39024,1564156125965,24,2.41,0.86,0.45,1.22,0.96,0.98,-0.3,0.27,4,-3,4,1.03,5857,13,102,43,49,871,433.0,477,468,60,119.0,115,1,354,226,51,0,0,428,3826,5600,433,-5.59,,,,,,,,,,,,
39044,1564156125985,23,2.42,0.87,0.45,1.22,0.97,1.02,-0.35,0.2,4,-4,4,1.08,5778,13,102,43,49,874,430.0,465,466,60,121.0,115,1,347,150,51,0,0,425,18584,-768,430,-5.59,44.681038,10.024448,46.66,177.1,0,0.0,-1,0.0,0.0,0,0.19,0.6507
39064,1564156125995,22,2.43,0.87,0.46,1.22,0.98,1.12,-0.4,0.18,4,-5,5,1.19,5678,13,102,43,50,879,425.0,466,466,60,120.0,115,1,342,229,51,0,0,414,11560,-4082,424,-5.59,,,,,,,,,,,,
39084,1564156126015,28,2.43,0.87,0.46,1.22,0.98,1.21,-0.38,0.15,5,-6,5,1.27,5583,13,102,43,51,883,418.0,458,468,60,120.0,116,1,337,233,49,0,0,402,-9211,18584,418,-5.59,,,,,,,,,,,,
39104,1564156126035,29,2.43,0.87,0.45,1.23,0.97,1.14,-0.39,0.21,6,-4,7,1.2,5477,13,102,43,52,885,414.0,448,463,60,119.0,116,1,332,236,49,0,0,389,-3968,-3414,414,-5.59,,,,,,,,,,,,
39124,1564156126055,26,2.43,0.88,0.46,1.22,0.97,1.19,-0.39,0.14,6,-4,8,1.25,5341,13,102,43,53,887,409.0,441,466,60,119.0,116,1,324,238,49,0,0,382,1,1504,409,-5.59,,,,,,,,,,,,
39144,1564156126075,28,2.43,0.88,0.45,1.23,0.98,1.19,-0.36,0.13,7,-4,9,1.24,5191,13,102,43,55,888,405.0,440,470,60,119.0,116,1,313,243,49,0,0,365,-3866,11545,405,-5.59,44.681023,10.024446,44.4,177.1,0,0.0,-1,0.0,0.0,0,0.2,0.6524
39164,1564156126095,21,2.44,0.87,0.46,1.22,0.98,1.17,-0.38,0.04,7,-4,11,1.23,5161,13,102,43,56,888,402.0,422,466,60,118.0,116,1,307,245,49,0,0,350,-19126,6384,401,-5.59,,,,,,,,,,,,
39184,1564156126115,10,2.44,0.88,0.45,1.23,0.98,1.16,-0.41,0.18,8,-3,10,1.23,5034,12,102,43,57,886,401.0,415,465,60,119.0,119,1,291,248,48,0,0,360,-19126,-3968,399,-5.59,,,,,,,,,,,,
39204,1564156126135,4,2.43,0.88,0.46,1.23,0.98,1.2,-0.42,0.17,9,-5,10,1.27,4997,12,102,43,58,882,400.0,418,466,60,118.0,119,1,284,251,48,0,0,372,-19126,6512,400,-5.59,,,,,,,,,,,,
39224,1564156126155,0,2.44,0.88,0.46,1.23,0.98,1.14,-0.45,0.12,9,-2,12,1.23,4955,13,102,43,58,876,401.0,402,464,60,120.0,119,1,279,251,48,0,0,382,-6475,10541,401,-5.59,,,,,,,,,,,,
39244,1564156126105,-1,2.44,0.87,0.46,1.23,0.98,1.05,-0.42,0.26,9,-0,11,1.13,4942,13,102,43,60,872,400.0,397,463,60,120.0,119,1,270,255,48,0,0,385,19125,-8151,400,-5.59,44.681015,10.024443,42.31,177.1,0,0.0,-1,0.0,0.0,0,0.2,0.6541
39264,1564156126203,-0,2.43,0.88,0.46,1.23,0.98,1.14,-0.42,0.25,10,-1,12,1.21,4947,12,102,43,60,866,399.0,402,468,60,119.0,119,1,270,259,48,0,0,383,19125,6512,399,-5.59,,,,,,,,,,,,
39284,1564156126223,3,2.44,0.88,0.46,1.23,0.98,1.13,-0.42,0.27,9,-1,14,1.21,4956,13,102,43,60,859,395.0,395,467,60,120.0,120,1,271,259,48,0,0,382,-18948,-32702,395,-5.59,,,,,,,,,,,,
39304,1564156126243,-1,2.45,0.88,0.46,1.23,0.98,0.99,-0.48,0.34,9,2,12,1.1,4964,13,102,43,61,850,394.0,392,462,60,120.0,120,1,268,264,48,0,0,383,8200,6384,394,181.28,,,,,,,,,,,,
39324,1564156126263,-0,2.44,0.88,0.46,1.22,0.98,1.06,-0.44,0.34,10,-1,12,1.15,4986,12,102,43,62,843,392.0,402,468,60,119.0,120,1,270,272,48,0,0,379,8200,-32702,392,-5.59,,,,,,,,,,,,
39344,1564156126283,2,2.45,0.88,0.46,1.23,0.99,1.09,-0.45,0.3,10,-1,13,1.18,5092,13,102,43,61,839,392.0,397,466,60,120.0,120,1,282,271,48,0,0,376,-6656,-1562,392,-5.59,44.681004,10.024439,39.8,177.1,0,0.0,-1,0.0,0.0,0,0.2,0.6557
39364,1564156126305,-1,2.43,0.87,0.46,1.23,0.98,0.94,-0.5,0.43,10,0,12,1.07,5193,13,102,43,62,835,391.0,400,463,60,121.0,120,1,293,269,48,0,0,374,770,-6524,391,181.28,,,,,,,,,,,,
39384,1564156126325,3,2.41,0.88,0.46,1.24,0.99,1.05,-0.53,0.42,10,-1,13,1.17,5337,13,102,43,62,829,388.0,412,467,60,119.0,133,1,308,266,52,0,0,375,3,505,388,-5.59,,,,,,,,,,,,
39404,1564156126345,0,2.38,0.88,0.46,1.23,0.98,0.97,-0.45,0.57,10,0,13,1.07,5426,13,102,43,61,821,390.0,420,468,60,119.0,133,1,318,257,52,0,0,377,3,-6524,390,-5.59,,,,,,,,,,,,
39424,1564156126365,-1,2.35,0.87,0.46,1.23,0.99,0.94,-0.43,0.46,9,0,14,1.04,5503,13,102,43,61,819,388.0,427,466,60,120.0,133,1,326,253,52,0,0,376,-6656,-19126,388,181.28,,,,,,,,,,,,
39444,1564156126385,3,2.3,0.88,0.46,1.23,0.98,1.03,-0.39,0.54,8,-1,12,1.1,5562,13,102,43,60,819,386.0,439,465,60,118.0,133,1,335,252,52,0,0,380,-6656,-6524,386,-5.59,44.680996,10.024436,38.28,177.0,0,0.0,-1,0.0,0.0,0,0.2,0.6574
39464,1564156126404,2,2.26,0.87,0.46,1.21,0.97,1.0,-0.31,0.59,6,-1,12,1.05,5669,13,102,43,60,823,385.0,443,467,60,119.0,133,1,346,252,52,0,0,385,-992,19125,385,-5.59,,,,,,,,,,,,
39484,1564156126424,1,2.21,0.86,0.45,1.21,0.97,0.91,-0.26,0.47,4,1,12,0.94,5714,13,102,43,59,826,381.0,445,467,60,119.0,142,1,353,251,54,0,0,382,19125,-992,380,-5.59,,,,,,,,,,,,
39504,1564156126444,-1,2.16,0.82,0.45,1.18,0.96,0.85,-0.18,0.36,2,1,11,0.86,5812,13,102,43,57,831,382.0,449,465,60,119.0,142,1,365,251,54,0,0,385,-3866,-992,374,-5.59,,,,,,,,,,,,
39524,1564156126464,-2,2.1,0.78,0.43,1.14,0.94,0.89,-0.15,0.41,-1,1,9,0.9,5756,13,102,43,56,838,386.0,455,465,60,120.0,142,1,361,251,54,0,0,395,-1562,-6524,371,-5.59,,,,,,,,,,,,
39544,1564156126484,1,2.04,0.75,0.43,1.11,0.93,0.94,0.05,0.45,-3,-0,5,0.94,5425,13,102,43,56,844,393.0,452,465,60,119.0,142,1,331,172,54,0,0,403,-6656,-21944,371,-5.59,44.680984,10.024432,38.38,177.0,0,0.0,-1,0.0,0.0,0,0.2,0.6591
39564,1564156126504,-0,1.96,0.76,0.42,1.13,0.92,0.82,0.1,0.52,-6,2,1,0.82,5185,13,102,43,57,851,395.0,433,460,60,120.0,142,1,306,249,54,0,0,403,-32702,-4059,372,181.28,,,,,,,,,,,,
39584,1564156126524,-1,1.88,0.74,0.42,1.12,0.91,0.91,0.2,0.4,-7,-1,-1,0.93,4948,13,102,43,58,854,394.0,418,467,60,118.0,126,1,278,251,47,0,0,396,505,742,372,-5.59,,,,,,,,,,,,
39604,1564156126544,1,1.81,0.71,0.41,1.08,0.89,0.92,0.29,0.31,-8,-0,-3,0.96,4926,13,102,43,59,856,390.0,407,465,60,119.0,126,1,272,255,47,0,0,395,-6524,0,367,-5.59,,,,,,,,,,,,
39624,1564156126564,-1,1.75,0.68,0.38,1.07,0.87,0.86,0.34,0.36,-10,-0,-5,0.92,4957,13,102,43,61,857,388.0,401,461,60,120.0,126,1,267,259,47,0,0,394,240,0,363,181.28,,,,,,,,,,,,
39644,1564156126584,-1,1.71,0.67,0.38,1.07,0.87,0.91,0.39,0.4,-12,-3,-8,0.99,4936,13,102,43,61,857,386.0,400,462,60,119.0,126,1,265,264,47,0,0,397,-6475,0,360,-5.59,44.680977,10.024428,37.75,177.0,0,0.0,-1,0.0,0.0,0,0.2,0.6607
39664,1564156126604,2,1.7,0.69,0.38,1.07,0.87,0.94,0.42,0.32,-14,-2,-11,1.02,4960,13,102,43,62,856,386.0,399,468,60,118.0,126,1,268,196,47,0,0,399,-3866,0,356,-5.59,,,,,,,,,,,,
39684,1564156126624,-0,1.7,0.69,0.38,1.08,0.88,0.89,0.51,0.25,-16,-2,-15,1.02,4974,13,102,43,62,854,387.0,394,464,60,120.0,141,1,269,271,50,0,0,397,240,-6656,353,181.28,,,,,,,,,,,,
39704,1564156126644,-2,1.7,0.7,0.38,1.07,0.88,0.91,0.54,0.3,-18,-3,-18,1.06,4972,14,102,43,63,853,390.0,397,466,60,119.0,141,1,269,277,50,0,0,397,-1562,0,349,-5.59,,,,,,,,,,,,
39724,1564156126664,2,1.69,0.71,0.39,1.08,0.89,0.97,0.58,0.2,-20,-2,-19,1.13,4989,14,102,43,63,852,392.0,403,469,60,118.0,141,1,270,285,50,0,0,398,-6524,-6656,349,-5.59,,,,,,,,,,,,
39744,1564156126684,0,1.67,0.71,0.39,1.08,0.88,0.87,0.63,0.24,-22,-0,-24,1.07,5002,14,102,43,64,852,387.0,398,466,60,120.0,141,1,272,278,50,0,0,395,-1562,257,347,-5.59,44.680965,10.024425,37.67,177.0,0,0.0,-1,0.0,0.0,0,0.2,0.6624
39764,1564156126704,-0,1.67,0.7,0.38,1.07,0.87,0.95,0.67,0.27,-24,-1,-24,1.17,5028,14,102,43,64,851,388.0,400,464,60,119.0,141,1,275,211,50,0,0,392,-31744,2790,345,-5.59,,,,,,,,,,,,
39784,1564156126724,3,1.64,0.7,0.38,1.07,0.88,1.01,0.73,0.28,-25,-1,-27,1.24,5084,13,102,43,64,851,384.0,408,462,60,117.0,158,1,281,210,54,0,0,391,-19019,-30438,341,-5.59,,,,,,,,,,,,
39804,1564156126744,2,1.62,0.69,0.38,1.06,0.87,0.94,0.85,0.27,-26,-1,-31,1.27,5152,13,102,43,64,849,377.0,402,464,60,119.0,158,1,288,209,54,0,0,387,-6656,-6528,335,-5.59,,,,,,,,,,,,
39824,1564156126764,4,1.6,0.7,0.38,1.07,0.87,1.0,0.91,0.24,-27,-2,-33,1.36,5178,13,102,43,64,848,373.0,411,465,60,118.0,158,1,290,284,54,0,0,384,-6656,150,326,-5.59,,,,,,,,,,,,
39844,1564156126784,2,1.61,0.7,0.38,1.06,0.88,0.95,0.96,0.15,-28,1,-33,1.36,5208,13,102,43,63,846,371.0,412,465,60,119.0,158,1,294,275,54,0,0,383,257,140,324,181.28,44.680958,10.024422,37.23,177.0,0,0.0,-1,0.0,0.0,0,0.2,0.6641
39864,1564156126804,2,1.61,0.69,0.38,1.06,0.88,1.03,1.0,0.25,-31,-1,-37,1.43,5269,13,102,43,63,844,375.0,420,466,60,118.0,158,1,300,275,54,0,0,382,770,28160,324,-5.59,,,,,,,,,,,,
39884,1564156126824,-1,1.61,0.69,0.38,1.06,0.87,0.95,0.98,0.16,-32,1,-37,1.36,5283,13,102,43,63,841,374.0,422,465,60,119.0,168,1,301,275,55,0,0,383,742,32000,324,181.28,,,,,,,,,,,,
39904,1564156126844,-1,1.62,0.7,0.38,1.06,0.87,0.98,0.96,0.23,-33,-2,-41,1.38,5108,13,102,43,63,839,375.0,417,467,60,119.0,168,1,283,276,55,0,0,384,-6656,19125,325,-5.59,,,,,,,,,,,,
39924,1564156126864,-1,1.61,0.69,0.38,1.07,0.87,0.98,0.96,0.09,-33,1,-41,1.37,5008,13,102,43,63,837,374.0,409,462,60,119.0,168,1,272,278,55,0,0,383,-6656,19477,324,-5.59,,,,,,,,,,,,
39944,1564156126884,-0,1.61,0.68,0.37,1.06,0.86,0.93,1.02,0.22,-35,-1,-44,1.38,5010,13,102,43,63,836,371.0,403,466,60,120.0,168,1,273,278,55,0,0,376,1,21580,322,-5.59,44.680946,10.02442,35.73,177.0,0,0.0,-1,0.0,0.0,0,0.2,0.6657
39964,1564156126904,0,1.61,0.68,0.36,1.06,0.87,0.94,0.99,0.18,-35,-2,-45,1.37,5043,13,102,43,64,835,369.0,405,466,60,118.0,168,1,276,286,55,0,0,375,-6656,1779,322,-5.59,,,,,,,,,,,,
39984,1564156126924,-2,1.62,0.69,0.38,1.08,0.87,0.9,1.03,0.09,-35,1,-46,1.36,5059,13,102,43,63,834,369.0,402,463,60,118.0,169,1,278,277,54,0,0,376,-6656,31796,319,-5.59,,,,,,,,,,,,
40004,1564156126944,-2,1.62,0.7,0.38,1.08,0.88,0.9,1.11,0.22,-36,1,-48,1.44,5075,13,102,43,64,836,366.0,409,466,60,118.0,169,1,280,285,54,0,0,373,230,9517,317,-5.59,,,,,,,,,,,,
40024,1564156126964,1,1.62,0.71,0.39,1.08,0.89,1.01,1.06,0.18,-37,-0,-47,1.46,5085,13,102,43,64,836,363.0,408,466,60,119.0,169,1,281,285,54,0,0,370,3082,770,315,-5.59,,,,,,,,,,,,
40044,1564156126984,-1,1.64,0.71,0.38,1.09,0.88,0.98,1.15,0.36,-37,1,-48,1.51,5089,13,102,43,64,835,364.0,406,462,60,120.0,169,1,281,285,54,0,0,368,-6405,2560,314,181.28,44.680943,10.02442,34.95,177.0,0,0.0,-1,0.0,0.0,0,0.21,0.6674
40064,1564156126994,1,1.66,0.71,0.39,1.08,0.88,1.06,1.15,0.38,-39,-0,-50,1.57,5110,13,102,43,64,835,363.0,416,466,60,117.0,169,1,283,284,54,0,0,369,3082,-25856,314,-5.59,,,,,,,,,,,,
40084,1564156127014,-0,1.7,0.71,0.38,1.09,0.88,1.04,1.2,0.24,-39,-0,-48,1.59,5158,13,102,43,64,834,366.0,408,462,60,120.0,175,1,289,284,55,0,0,369,230,145,312,-5.59,,,,,,,,,,,,
40104,1564156127034,-1,1.76,0.71,0.39,1.09,0.88,1.05,1.2,0.22,-39,-0,-51,1.6,5180,13,102,43,64,833,368.0,415,467,60,119.0,175,1,292,284,55,0,0,364,0,-28416,312,-5.59,,,,,,,,,,,,
40124,1564156127054,-0,1.81,0.7,0.38,1.09,0.88,1.08,1.2,0.06,-39,-1,-50,1.62,5156,13,102,43,64,832,366.0,418,465,60,119.0,175,1,289,284,55,0,0,366,230,-27136,313,-5.59,,,,,,,,,,,,
40144,1564156127074,-2,1.88,0.71,0.38,1.08,0.89,1.03,1.26,0.25,-40,-1,-53,1.63,5077,13,102,43,64,830,372.0,418,465,60,120.0,175,1,280,285,55,0,0,372,1,257,313,-5.59,44.680931,10.024421,33.74,177.0,0,0.0,-1,0.0,0.0,0,0.21,0.6691
40164,1564156127104,-0,1.91,0.71,0.38,1.09,0.89,1.03,1.17,0.23,-41,-1,-52,1.56,4927,13,102,43,64,830,372.0,407,468,60,116.0,175,1,265,285,55,0,0,367,257,-26615,313,-5.59,,,,,,,,,,,,
40184,1564156127124,3,1.93,0.72,0.39,1.1,0.89,0.99,1.11,0.21,-40,1,-53,1.49,4909,13,102,43,64,829,368.0,401,462,60,119.0,169,1,264,285,53,0,0,366,-6656,-19126,313,-5.59,,,,,,,,,,,,
40204,1564156127144,-1,1.93,0.73,0.39,1.1,0.89,1.02,1.09,0.34,-41,0,-54,1.49,4939,13,102,43,65,829,367.0,396,462,60,120.0,169,1,267,292,53,0,0,364,0,-29302,314,-5.59,,,,,,,,,,,,
40224,1564156127164,-0,1.93,0.73,0.39,1.11,0.89,1.03,1.11,0.4,-40,-2,-54,1.51,4935,14,102,43,65,828,365.0,398,466,60,119.0,169,1,266,292,53,0,0,362,-6405,-27136,314,-5.59,,,,,,,,,,,,
40244,1564156127184,1,1.94,0.74,0.39,1.11,0.89,1.04,1.06,0.34,-40,-2,-54,1.49,4881,14,102,43,65,828,364.0,402,467,60,118.0,169,1,262,291,53,0,0,363,-1268,140,313,-5.59,44.680923,10.024425,32.8,177.0,0,0.0,-1,0.0,0.0,0,0.21,0.6707
40264,1564156127204,1,1.94,0.74,0.4,1.12,0.89,0.97,1.09,0.38,-40,-0,-53,1.46,4773,14,102,43,65,828,365.0,391,458,60,120.0,169,1,251,289,53,0,0,362,-6405,4104,313,-5.59,,,,,,,,,,,,
40284,1564156127224,-0,1.94,0.74,0.4,1.12,0.91,0.92,1.16,0.38,-39,1,-53,1.48,4642,14,102,43,66,828,364.0,381,459,60,120.0,165,1,241,288,52,0,0,360,2790,-14707,315,-5.59,,,,,,,,,,,,
40304,1564156127244,-0,1.93,0.74,0.4,1.12,0.91,0.92,1.19,0.48,-39,-1,-54,1.5,4667,14,102,43,66,828,362.0,379,461,60,119.0,165,1,244,295,52,0,0,361,2790,175,316,-5.59,,,,,,,,,,,,
40324,1564156127264,-1,1.93,0.75,0.4,1.12,0.9,0.9,1.17,0.51,-39,-3,-55,1.48,4699,14,102,43,66,828,364.0,376,465,60,119.0,165,1,246,220,52,0,0,359,-1268,135,314,-5.59,,,,,,,,,,,,
40344,1564156127204,-1,1.93,0.75,0.4,1.13,0.9,0.92,1.19,0.52,-39,-4,-54,1.51,4668,14,102,43,66,828,363.0,374,466,60,120.0,165,1,244,295,52,0,0,359,3082,140,314,181.28,44.680916,10.024428,32.47,177.0,0,0.0,-1,0.0,0.0,0,0.21,0.6724
40364,1564156127302,-1,1.94,0.75,0.4,1.12,0.9,0.88,1.18,0.5,-39,-4,-54,1.47,4609,14,102,43,66,828,363.0,370,470,60,120.0,165,1,239,293,52,0,0,360,3082,155,314,-5.59,,,,,,,,,,,,
40384,1564156127322,-0,1.93,0.75,0.4,1.12,0.91,0.91,1.14,0.47,-39,-5,-53,1.46,4531,14,102,43,66,827,364.0,368,468,60,118.0,159,1,230,292,50,0,0,360,-6458,-27136,314,-5.59,,,,,,,,,,,,
40404,1564156127342,-1,1.93,0.75,0.4,1.12,0.91,0.91,1.12,0.4,-39,-4,-52,1.44,4533,18,102,43,66,826,362.0,368,466,60,118.0,159,1,235,292,50,0,0,356,2790,-32256,314,-5.59,,,,,,,,,,,,
40424,1564156127362,-0,1.93,0.75,0.4,1.13,0.91,0.93,1.08,0.32,-39,-3,-51,1.42,4560,27,102,43,68,826,364.0,367,469,60,119.0,159,1,237,231,50,0,0,359,-1268,135,313,-5.59,,,,,,,,,,,,
40444,1564156127382,-1,1.93,0.75,0.4,1.13,0.9,0.96,1.03,0.3,-39,-3,-51,1.41,4567,34,102,43,72,826,363.0,365,470,60,117.0,159,1,238,319,50,0,0,362,3082,-29696,313,-5.59,44.680908,10.024433,32.18,177.0,0,0.0,-1,0.0,0.0,0,0.21,0.6741
40464,1564156127405,1,1.93,0.74,0.4,1.12,0.91,0.93,1.01,0.24,-39,-1,-50,1.38,4643,40,102,43,77,826,361.0,368,468,60,118.0,159,1,246,339,50,0,0,361,2790,130,313,-5.59,,,,,,,,,,,,
40484,1564156127425,2,1.92,0.75,0.4,1.12,0.9,0.93,1.05,0.24,-39,0,-50,1.41,4751,45,102,43,81,828,361.0,370,467,60,118.0,223,1,255,409,70,0,0,357,-6458,-28416,312,-5.59,,,,,,,,,,,,
40504,1564156127445,-2,1.93,0.75,0.4,1.12,0.91,0.92,1.06,0.36,-38,1,-50,1.4,4789,46,102,43,85,829,361.0,371,462,60,120.0,223,1,266,443,70,0,0,358,-6458,3346,313,-5.59,,,,,,,,,,,,
40524,1564156127465,-1,1.95,0.76,0.41,1.14,0.91,0.89,1.06,0.45,-39,1,-51,1.38,4796,47,102,43,87,829,362.0,375,464,60,120.0,223,1,274,455,70,0,0,359,2790,-14707,313,181.28,,,,,,,,,,,,
40544,1564156127485,-1,1.96,0.77,0.41,1.14,0.91,0.87,1.01,0.41,-39,0,-51,1.34,4879,47,102,43,88,829,362.0,378,469,60,119.0,223,1,286,464,70,0,0,357,2790,-29978,313,-5.59,44.680901,10.024439,32.02,177.0,0,0.0,-1,0.0,0.0,0,0.21,0.6757
40564,1564156127501,1,2.0,0.78,0.41,1.15,0.93,0.87,0.99,0.32,-38,1,-51,1.31,5002,47,102,43,88,828,361.0,389,464,60,119.0,223,1,298,475,70,0,0,361,-6458,2790,315,-5.59,,,,,,,,,,,,
40584,1564156127521,-2,2.02,0.78,0.41,1.16,0.92,0.83,1.01,0.48,-37,1,-50,1.31,5117,47,102,43,88,827,359.0,391,463,60,120.0,288,1,301,472,91,0,0,361,-29302,-1268,316,-5.59,,,,,,,,,,,,
40604,1564156127541,-0,2.04,0.78,0.42,1.16,0.93,0.82,0.97,0.36,-36,0,-49,1.27,5142,48,102,43,88,831,360.0,402,466,60,119.0,288,1,302,472,91,0,0,362,-14707,19125,320,-5.59,,,,,,,,,,,,
40624,1564156127561,-0,2.05,0.8,0.42,1.18,0.94,0.71,0.95,0.43,-35,2,-47,1.19,5135,48,102,43,88,836,361.0,398,470,60,120.0,288,1,302,472,91,0,0,365,-6458,17144,322,-5.59,,,,,,,,,,,,
40644,1564156127581,-0,2.04,0.81,0.43,1.17,0.94,0.72,0.89,0.46,-34,2,-46,1.15,5129,48,102,43,88,840,363.0,401,463,60,120.0,288,1,301,402,91,0,0,369,3082,2060,327,-5.59,44.680893,10.024446,32.65,177.0,0,0.0,-1,0.0,0.0,0,0.21,0.6774
40664,1564156127601,2,2.03,0.82,0.43,1.18,0.95,0.66,0.84,0.47,-33,3,-45,1.07,4973,48,102,43,88,845,366.0,401,465,60,118.0,288,1,295,470,91,0,0,372,230,3302,331,-5.59,,,,,,,,,,,,
40684,1564156127621,-0,2.03,0.81,0.43,1.18,0.94,0.7,0.91,0.6,-32,4,-44,1.15,4810,48,102,43,89,867,369.0,393,463,60,120.0,259,1,284,464,86,0,0,370,-6656,486,334,-5.59,,,,,,,,,,,,
40704,1564156127641,-0,2.03,0.79,0.42,1.18,0.94,0.73,0.87,0.7,-32,-0,-45,1.13,4781,49,102,43,90,902,369.0,380,467,60,120.0,259,1,285,467,86,0,0,371,-6656,-30438,336,-5.59,,,,,,,,,,,,
40724,1564156127661,-2,2.03,0.79,0.43,1.16,0.93,0.69,0.91,0.66,-32,-1,-45,1.15,4827,49,102,43,91,920,371.0,379,465,60,120.0,259,1,291,470,86,0,0,371,257,3082,335,-5.59,,,,,,,,,,,,
40744,1564156127681,1,2.03,0.79,0.42,1.16,0.94,0.71,0.9,0.5,-31,-1,-42,1.15,4948,49,102,43,90,949,371.0,387,465,60,119.0,259,1,302,476,86,0,0,372,257,0,336,-5.59,44.680889,10.024455,32.69,177.0,0,0.0,-1,0.0,0.0,0,0.21,0.6791
40764,1564156127701,-1,2.03,0.79,0.42,1.17,0.93,0.7,0.95,0.6,-31,1,-41,1.18,5114,49,102,43,90,972,374.0,388,465,60,120.0,259,1,309,481,86,0,0,371,742,742,338,-5.59,,,,,,,,,,,,
40784,1564156127721,1,2.04,0.79,0.42,1.17,0.94,0.68,0.88,0.59,-31,-0,-43,1.11,5335,49,102,43,89,1012,375.0,401,462,60,118.0,279,1,309,479,95,0,0,374,770,-1562,338,-5.59,,,,,,,,,,,,
40804,1564156127741,0,2.04,0.79,0.42,1.16,0.93,0.66,0.92,0.7,-30,3,-41,1.13,5433,49,102,43,87,1027,379.0,411,467,60,120.0,279,1,308,472,95,0,0,384,8200,1,339,-5.59,,,,,,,,,,,,
40824,1564156127761,-0,2.03,0.8,0.42,1.17,0.93,0.64,0.85,0.49,-30,2,-42,1.07,5484,50,102,43,86,1038,380.0,424,465,60,120.0,279,1,309,470,95,0,0,387,-18948,-3968,340,-5.59,,,,,,,,,,,,
40844,1564156127781,1,2.02,0.81,0.42,1.19,0.94,0.66,0.87,0.64,-30,0,-42,1.1,5441,50,102,43,86,1043,382.0,426,466,60,119.0,279,1,307,470,95,0,0,390,-19126,-8151,343,-5.59,44.680885,10.024464,33.94,177.0,0,0.0,-1,0.0,0.0,0,0.21,0.6807
40864,1564156127801,-1,2.02,0.8,0.43,1.18,0.94,0.62,0.89,0.63,-30,0,-39,1.09,5412,50,102,43,86,1045,384.0,425,466,60,120.0,279,1,306,470,95,0,0,391,-3866,240,347,-5.59,,,,,,,,,,,,
40884,1564156127821,0,2.02,0.8,0.43,1.17,0.95,0.63,0.79,0.49,-31,-0,-40,1.01,5278,50,102,43,86,1044,388.0,420,465,60,119.0,266,1,300,467,93,0,0,393,-1562,10541,351,-5.59,,,,,,,,,,,,
40904,1564156127841,-1,2.02,0.82,0.43,1.19,0.95,0.61,0.8,0.64,-31,1,-38,1.01,5227,50,102,43,86,1036,390.0,410,467,60,121.0,266,1,299,467,93,0,0,395,1,2278,352,-5.59,,,,,,,,,,,,
40924,1564156127861,1,2.03,0.82,0.43,1.19,0.95,0.74,0.8,0.57,-31,-1,-38,1.09,5205,50,102,43,87,1028,393.0,410,462,60,118.0,266,1,300,471,93,0,0,395,505,6512,353,-5.59,,,,,,,,,,,,
40944,1564156127881,-2,2.06,0.8,0.43,1.18,0.95,0.69,0.87,0.71,-31,-2,-38,1.11,5316,50,102,43,87,1021,391.0,411,468,60,120.0,266,1,304,471,93,0,0,395,-6656,-32702,355,-5.59,44.680878,10.024474,34.51,177.0,0,0.0,-1,0.0,0.0,0,0.21,0.6824
40964,1564156127901,1,2.08,0.8,0.43,1.17,0.95,0.65,0.79,0.61,-30,-4,-40,1.02,5453,50,102,43,86,1014,394.0,415,463,60,120.0,266,1,308,473,93,0,0,400,-1818,-6656,358,-5.59,,,,,,,,,,,,
40984,1564156127903,1,2.1,0.82,0.43,1.19,0.95,0.71,0.81,0.75,-30,-4,-39,1.08,5597,50,102,43,86,1013,398.0,427,463,60,119.0,274,1,315,471,99,0,0,403,6384,-28332,362,-5.59,,,,,,,,,,,,
41004,1564156127923,0,2.12,0.82,0.44,1.2,0.96,0.64,0.76,0.72,-29,-5,-39,0.99,5756,50,102,43,85,1011,399.0,437,471,60,120.0,274,1,323,471,99,0,0,405,28696,2131,365,181.28,,,,,,,,,,,,
41024,1564156127943,0,2.12,0.83,0.44,1.2,0.95,0.52,0.75,0.71,-28,-4,-38,0.91,5980,50,102,43,84,1006,401.0,453,467,60,120.0,274,1,338,471,99,0,0,413,11545,-4059,367,-5.59,,,,,,,,,,,,
41044,1564156127963,0,2.13,0.83,0.44,1.21,0.96,0.47,0.74,0.73,-28,-3,-36,0.88,5971,50,102,43,83,1001,405.0,462,468,60,120.0,274,1,341,470,99,0,0,425,-9211,-26615,370,-5.59,44.680874,10.024486,35.76,177.0,0,0.0,-1,0.0,0.0,0,0.21,0.6841
41064,1564156127995,-0,2.12,0.85,0.44,1.2,0.96,0.46,0.69,0.79,-28,-3,-36,0.83,5756,50,102,43,83,998,411.0,457,466,60,120.0,274,1,326,466,99,0,0,422,-4059,16648,375,-5.59,,,,,,,,,,,,
41084,1564156128015,-1,2.12,0.84,0.44,1.21,0.97,0.52,0.65,0.66,-28,-2,-36,0.84,5637,50,102,43,84,996,412.0,456,463,60,119.0,261,1,318,466,99,0,0,427,13040,13552,377,-5.59,,,,,,,,,,,,
41104,1564156128035,2,2.12,0.83,0.44,1.21,0.97,0.62,0.71,0.71,-28,-4,-38,0.94,5552,51,102,43,84,997,414.0,444,466,60,119.0,261,1,312,465,99,0,0,423,-26615,6384,384,-5.59,,,,,,,,,,,,
41124,1564156128055,0,2.13,0.84,0.44,1.2,0.96,0.56,0.72,0.84,-27,-4,-36,0.91,5516,51,102,43,85,998,417.0,433,465,60,119.0,261,1,310,464,99,0,0,423,-21944,-26615,388,-5.59,,,,,,,,,,,,
41144,1564156128075,-1,2.13,0.83,0.45,1.2,0.97,0.53,0.75,0.57,-26,-3,-33,0.92,5492,51,102,43,85,1002,418.0,432,465,60,120.0,261,1,309,467,99,0,0,423,-3414,10392,391,-5.59,44.68087,10.024497,36.72,177.0,0,0.0,-1,0.0,0.0,0,0.22,0.6857
41164,1564156128105,1,2.13,0.84,0.45,1.21,0.96,0.6,0.74,0.69,-25,-4,-35,0.95,5557,51,102,43,86,1004,420.0,430,468,60,119.0,261,1,313,471,99,0,0,425,-8165,9517,394,-5.59,,,,,,,,,,,,
41184,1564156128125,1,2.13,0.84,0.44,1.2,0.97,0.6,0.75,0.73,-25,-2,-32,0.96,5662,51,102,43,85,996,423.0,432,466,60,119.0,252,1,322,470,100,0,0,425,-21792,18584,396,-5.59,,,,,,,,,,,,
41204,1564156128145,-1,2.14,0.84,0.44,1.2,0.96,0.46,0.76,0.68,-24,-2,-30,0.89,5822,51,102,43,84,991,424.0,440,464,60,119.0,252,1,329,399,100,0,0,423,3826,13180,397,-5.59,,,,,,,,,,,,
41224,1564156128165,-0,2.13,0.84,0.44,1.2,0.96,0.3,0.79,0.64,-22,-3,-29,0.85,6013,51,102,43,84,981,424.0,453,470,60,120.0,252,1,340,472,100,0,0,431,-4082,-8985,400,-5.59,,,,,,,,,,,,
41244,1564156128185,1,2.13,0.84,0.44,1.21,0.97,0.15,0.81,0.65,-21,-3,-29,0.82,6167,51,102,43,84,972,428.0,468,465,60,119.0,252,1,345,473,100,0,0,436,13180,-3267,403,-5.59,44.680866,10.024509,37.99,177.0,0,0.0,-1,0.0,0.0,0,0.22,0.6874
41264,1564156128205,2,2.13,0.85,0.44,1.21,0.97,0.14,0.82,0.78,-20,-2,-29,0.83,6155,51,102,43,84,969,432.0,475,465,60,119.0,252,1,345,476,100,0,0,445,243,-28332,404,-5.59,,,,,,,,,,,,
41284,1564156128225,1,2.14,0.85,0.44,1.21,0.98,0.11,0.89,0.9,-20,0,-28,0.9,6027,52,102,43,84,966,436.0,469,465,60,119.0,264,1,340,473,108,0,0,445,5600,21432,409,-5.59,,,,,,,,,,,,
41304,1564156128245,0,2.13,0.85,0.44,1.21,0.98,0.1,0.98,0.96,-19,3,-27,0.98,5918,52,102,43,84,975,440.0,462,464,60,118.0,264,1,334,471,108,0,0,449,20625,20625,414,-5.59,,,,,,,,,,,,
41324,1564156128265,1,2.13,0.85,0.45,1.22,0.97,0.06,1.0,0.99,-19,6,-25,1.0,5881,52,102,43,84,980,441.0,452,467,60,119.0,264,1,333,471,108,0,0,448,26704,-3322,416,-5.59,,,,,,,,,,,,
41344,1564156128285,1,2.13,0.85,0.45,1.21,0.97,-0.03,1.02,0.96,-19,6,-23,1.02,5927,52,102,43,84,988,443.0,452,465,60,119.0,264,1,335,471,108,0,0,450,-18341,20625,418,-5.59,44.680866,10.024524,39.87,177.0,0,0.0,-1,0.0,0.0,0,0.22,0.6891
41364,1564156128305,2,2.13,0.84,0.45,1.21,0.96,-0.12,1.07,0.94,-18,6,-23,1.08,6050,52,102,43,84,993,443.0,460,466,60,119.0,264,1,341,474,108,0,0,449,23400,15649,420,-5.59,,,,,,,,,,,,
41384,1564156128325,1,2.14,0.84,0.45,1.22,0.97,-0.18,1.14,0.89,-17,6,-22,1.15,6188,52,102,43,84,994,446.0,467,468,60,118.0,263,1,348,476,111,0,0,451,16648,2524,424,-5.59,,,,,,,,,,,,
41404,1564156128345,2,2.14,0.85,0.45,1.22,0.97,-0.16,1.14,0.87,-16,8,-22,1.15,6321,55,102,43,84,994,451.0,480,465,60,119.0,263,1,352,479,111,0,0,456,3571,10432,424,-5.59,,,,,,,,,,,,
41424,1564156128365,-2,2.15,0.85,0.45,1.21,0.98,-0.02,1.09,0.87,-17,10,-22,1.09,6364,59,102,43,85,991,455.0,490,463,60,119.0,263,1,350,484,111,0,0,462,-26615,-8985,426,-5.59,,,,,,,,,,,,
41444,1564156128385,0,2.15,0.85,0.45,1.22,0.97,0.09,1.0,0.83,-17,8,-23,1.01,6371,61,102,43,86,989,457.0,493,465,60,120.0,263,1,348,489,111,0,0,468,-9160,30272,431,-5.59,44.680862,10.024537,41.1,177.0,0,0.0,-1,0.0,0.0,0,0.22,0.6907
41464,1564156128404,0,2.14,0.85,0.45,1.22,0.97,0.05,0.92,0.81,-18,7,-22,0.93,6336,62,102,43,87,986,457.0,490,466,60,120.0,263,1,344,492,111,0,0,470,-9160,32033,433,-5.59,,,,,,,,,,,,
41484,1564156128424,1,2.14,0.84,0.45,1.21,0.98,0.02,0.95,0.83,-18,7,-21,0.95,6332,62,102,43,88,982,462.0,491,466,60,119.0,271,1,341,496,118,0,0,468,2211,6193,437,-5.59,,,,,,,,,,,,
41504,1564156128444,-1,2.15,0.85,0.45,1.22,0.97,0.07,0.96,0.74,-18,8,-21,0.96,6381,63,102,43,87,975,463.0,496,464,60,120.0,271,1,346,497,118,0,0,473,6193,30272,439,-5.59,,,,,,,,,,,,
41524,1564156128464,-0,2.14,0.85,0.45,1.23,0.97,0.21,0.89,0.78,-18,7,-22,0.92,6399,63,102,43,88,968,467.0,495,464,60,120.0,271,1,344,497,118,0,0,473,243,2212,441,-5.59,,,,,,,,,,,,
41544,1564156128484,0,2.15,0.85,0.45,1.22,0.98,0.21,0.82,0.75,-18,5,-22,0.85,6434,67,102,43,89,965,467.0,496,465,60,119.0,271,1,343,498,118,0,0,476,243,3576,443,-5.59,44.680862,10.024551,42.72,177.0,0,0.0,-1,0.0,0.0,0,0.22,0.6924
41564,1564156128500,-1,2.15,0.85,0.45,1.21,0.97,0.2,0.92,0.74,-18,4,-22,0.94,6539,71,102,43,90,960,470.0,497,467,60,118.0,271,1,346,511,118,0,0,473,8488,-6656,445,-5.59,,,,,,,,,,,,
41584,1564156128520,-0,2.15,0.84,0.44,1.21,0.97,0.31,0.82,0.76,-19,4,-21,0.88,6618,73,102,43,91,960,472.0,501,463,60,120.0,286,1,350,517,128,0,0,480,3576,-9216,450,-5.59,,,,,,,,,,,,
41604,1564156128540,2,2.14,0.84,0.45,1.21,0.97,0.23,0.84,0.7,-19,2,-22,0.88,6751,74,102,43,92,961,477.0,505,466,60,119.0,286,1,357,521,128,0,0,483,2212,6274,452,-5.59,,,,,,,,,,,,
41624,1564156128560,1,2.15,0.84,0.44,1.21,0.97,0.3,0.8,0.75,-19,3,-22,0.85,6843,74,102,43,92,964,478.0,514,466,60,120.0,286,1,362,523,128,0,0,497,16648,771,452,-5.59,,,,,,,,,,,,
41644,1564156128580,-1,2.14,0.84,0.45,1.2,0.97,0.21,0.88,0.73,-19,3,-24,0.9,6878,75,102,43,92,967,484.0,516,466,60,118.0,286,1,364,524,128,0,0,499,-10483,3580,455,-5.59,44.680859,10.024567,43.93,177.0,0,0.0,-1,0.0,0.0,0,0.22,0.6941
41664,1564156128600,1,2.15,0.83,0.45,1.2,0.97,0.35,0.83,0.82,-20,2,-23,0.9,6773,75,102,43,92,969,487.0,516,465,60,119.0,286,1,358,522,128,0,0,504,505,2109,461,-5.59,,,,,,,,,,,,
41684,1564156128620,-1,2.15,0.83,0.44,1.2,0.97,0.27,0.88,0.79,-20,2,-23,0.92,6641,75,102,43,92,968,492.0,512,466,60,118.0,282,1,351,520,131,0,0,503,-32768,998,464,-5.59,,,,,,,,,,,,
41704,1564156128640,1,2.15,0.83,0.44,1.21,0.97,0.43,0.87,0.83,-20,2,-22,0.96,6701,75,102,43,92,965,494.0,510,463,60,120.0,282,1,354,521,131,0,0,503,998,1,463,-5.59,,,,,,,,,,,,
41724,1564156128660,0,2.14,0.82,0.44,1.2,0.96,0.34,0.93,0.8,-20,1,-22,0.99,6798,75,102,43,92,959,495.0,513,465,60,119.0,282,1,359,522,131,0,0,500,771,-4054,467,-5.59,,,,,,,,,,,,
41744,1564156128680,1,2.15,0.8,0.44,1.19,0.96,0.5,0.81,0.9,-20,-0,-23,0.95,6883,75,102,43,92,942,496.0,516,464,60,120.0,282,1,364,524,131,0,0,510,771,15661,471,-5.59,44.680859,10.024583,45.4,177.0,0,0.0,-1,0.0,0.0,0,0.22,0.6957
41764,1564156128700,-1,2.16,0.81,0.43,1.19,0.96,0.4,0.9,0.8,-20,0,-24,0.98,6975,75,102,43,92,912,499.0,525,467,60,118.0,282,1,369,527,131,0,0,509,15661,10994,473,-5.59,,,,,,,,,,,,
41784,1564156128720,3,2.16,0.81,0.44,1.19,0.96,0.46,0.86,0.91,-20,-2,-25,0.97,7072,75,102,43,92,883,504.0,528,467,60,118.0,296,1,376,529,141,0,0,515,-32248,2524,477,-5.59,,,,,,,,,,,,
41804,1564156128740,2,2.16,0.82,0.44,1.19,0.96,0.52,0.76,0.9,-20,-1,-24,0.92,7115,75,102,43,91,858,505.0,532,464,60,120.0,296,1,380,533,141,0,0,522,6274,-9072,479,-5.59,,,,,,,,,,,,
41824,1564156128760,1,2.17,0.82,0.44,1.2,0.96,0.4,0.81,0.8,-19,1,-24,0.9,7161,75,102,43,91,832,511.0,539,465,60,119.0,296,1,384,535,141,0,0,524,-3856,1248,483,-5.59,,,,,,,,,,,,
41844,1564156128780,0,2.18,0.82,0.44,1.2,0.96,0.32,0.93,0.82,-19,1,-25,0.98,7211,75,102,43,91,795,513.0,544,464,60,120.0,296,1,388,537,141,0,0,524,26178,-32248,486,-5.59,44.680859,10.024598,46.75,176.9,0,0.0,-1,0.0,0.0,0,0.22,0.6974
41864,1564156128800,-1,2.18,0.83,0.44,1.2,0.96,0.4,0.91,0.84,-19,1,-25,1.0,7200,75,102,43,91,777,515.0,546,467,60,119.0,296,1,387,537,141,0,0,531,-14,10408,491,-5.59,,,,,,,,,,,,
41884,1564156128820,1,2.17,0.82,0.44,1.2,0.97,0.55,0.77,0.95,-20,0,-25,0.95,7205,75,102,43,91,773,519.0,546,469,60,118.0,298,1,387,536,147,0,0,536,-8187,10408,494,-5.59,,,,,,,,,,,,
41904,1564156128840,2,2.17,0.82,0.44,1.21,0.96,0.59,0.73,0.98,-19,2,-24,0.94,7197,75,102,43,91,769,523.0,544,469,60,119.0,298,1,387,536,147,0,0,532,-22519,-3082,502,-5.59,,,,,,,,,,,,
41924,1564156128860,1,2.18,0.83,0.44,1.21,0.97,0.41,0.79,0.81,-18,4,-24,0.89,7214,75,102,43,91,765,528.0,543,462,60,119.0,298,1,388,537,147,0,0,536,-28648,14504,502,-5.59,,,,,,,,,,,,
41944,1564156128880,1,2.17,0.82,0.43,1.2,0.97,0.3,0.91,0.75,-18,3,-24,0.96,7367,76,102,43,91,763,530.0,548,466,60,120.0,298,1,400,544,147,0,0,541,2524,-28648,505,-5.59,44.680859,10.024615,48.45,176.9,0,0.0,-1,0.0,0.0,0,0.23,0.6991
41964,1564156128904,1,2.17,0.83,0.44,1.2,0.96,0.26,0.94,0.67,-18,2,-24,0.98,7449,75,102,43,90,763,532.0,555,465,60,119.0,298,1,407,546,147,0,0,544,14504,14504,506,-5.59,,,,,,,,,,,,
41984,1564156128924,-0,2.16,0.83,0.44,1.21,0.97,0.23,1.0,0.7,-18,-0,-24,1.02,7518,76,102,43,90,765,530.0,563,466,60,119.0,304,1,412,549,155,0,0,546,-9072,-30159,511,-5.59,,,,,,,,,,,,
42004,1564156128944,1,2.17,0.82,0.44,1.2,0.97,0.24,1.03,0.78,-18,0,-24,1.06,7563,76,102,43,89,770,534.0,568,465,60,119.0,304,1,414,543,155,0,0,552,6274,-2336,513,-5.59,,,,,,,,,,,,
42024,1564156128964,0,2.17,0.83,0.44,1.21,0.97,0.24,1.08,0.75,-19,-1,-25,1.11,7578,76,102,43,89,777,540.0,564,464,60,120.0,304,1,416,544,155,0,0,556,-8186,2211,516,-5.59,,,,,,,,,,,,
42044,1564156128984,2,2.17,0.83,0.45,1.2,0.97,0.14,1.14,0.7,-18,-2,-23,1.15,7584,76,102,43,89,781,543.0,571,465,60,120.0,304,1,416,544,155,0,0,555,1779,10432,518,-5.59,44.680859,10.024632,49.63,176.9,0,0.0,-1,0.0,0.0,0,0.23,0.7007
42064,1564156128992,2,2.17,0.83,0.44,1.21,0.97,0.05,1.19,0.53,-18,-2,-22,1.19,7712,76,102,43,89,786,546.0,581,463,60,119.0,304,1,426,548,155,0,0,562,2524,-22359,522,-5.59,,,,,,,,,,,,
42084,1564156129012,2,2.18,0.83,0.45,1.2,0.97,0.01,1.14,0.44,-18,-0,-24,1.14,7751,76,102,43,89,789,547.0,574,467,60,118.0,303,1,428,542,159,0,0,572,-22519,208,526,-5.59,,,,,,,,,,,,
42104,1564156129032,0,2.19,0.82,0.44,1.21,0.97,0.15,1.02,0.58,-18,0,-25,1.03,7931,76,102,43,88,789,554.0,602,468,60,118.0,303,1,440,546,159,0,0,571,-22359,10432,528,-5.59,,,,,,,,,,,,
42124,1564156129052,1,2.19,0.83,0.45,1.2,0.97,0.19,1.12,0.72,-19,-1,-25,1.13,8078,76,102,43,86,787,563.0,595,467,60,118.0,303,1,441,547,159,0,0,585,2211,12552,532,-5.59,,,,,,,,,,,,
42144,1564156129072,1,2.21,0.83,0.45,1.22,0.97,0.13,1.03,0.7,-18,-0,-26,1.04,8061,76,102,43,85,782,566.0,607,467,60,119.0,303,1,439,525,159,0,0,588,-2934,5344,537,-5.59,44.680862,10.024651,51.43,176.9,0,0.0,-1,0.0,0.0,0,0.23,0.7024
42164,1564156129104,1,2.2,0.84,0.45,1.22,0.97,0.28,0.99,0.83,-19,1,-25,1.03,8061,76,102,43,85,776,569.0,605,466,60,119.0,303,1,439,525,159,0,0,593,-8186,1010,542,-5.59,,,,,,,,,,,,
42184,1564156129124,1,2.19,0.84,0.45,1.22,0.98,0.2,1.09,0.81,-19,-0,-25,1.11,8120,77,102,43,85,771,573.0,606,462,60,119.0,299,1,438,531,162,0,0,598,1760,243,546,-5.59,,,,,,,,,,,,
42204,1564156129144,0,2.2,0.83,0.44,1.2,0.98,0.22,0.98,0.85,-18,-0,-26,1.01,8092,77,102,43,85,769,576.0,603,463,60,118.0,299,1,439,526,162,0,0,596,774,-4035,548,-5.59,,,,,,,,,,,,
42224,1564156129164,-0,2.21,0.83,0.45,1.2,0.98,0.32,1.06,0.96,-18,0,-24,1.11,8023,77,102,43,85,767,580.0,600,467,60,118.0,299,1,440,521,162,0,0,597,-16384,243,554,-5.59,,,,,,,,,,,,
42244,1564156129184,1,2.2,0.83,0.45,1.2,0.98,0.2,1.11,0.84,-17,-1,-24,1.13,8071,77,102,43,86,770,583.0,612,463,60,119.0,299,1,441,526,162,0,0,606,10432,-4035,560,-5.59,44.680862,10.024668,53.03,176.9,0,0.0,-1,0.0,0.0,0,0.23,0.7041
42264,1564156129204,-1,2.21,0.83,0.45,1.2,0.97,0.31,1.0,0.78,-16,-0,-25,1.04,8145,77,102,43,85,772,584.0,603,465,60,118.0,299,1,438,533,162,0,0,599,-4035,5344,565,-5.59,,,,,,,,,,,,
42284,1564156129224,1,2.21,0.83,0.44,1.21,0.98,0.24,1.1,0.77,-16,-2,-24,1.12,8230,77,102,43,84,777,588.0,603,464,60,119.0,298,1,434,532,169,0,0,607,2048,17740,566,-5.59,,,,,,,,,,,,
42304,1564156129244,0,2.21,0.83,0.44,1.21,0.97,0.32,0.91,0.86,-15,-2,-24,0.96,8393,77,102,43,83,782,592.0,618,468,60,118.0,298,1,430,539,169,0,0,611,-28648,28675,572,-5.59,,,,,,,,,,,,
42324,1564156129264,2,2.21,0.84,0.45,1.22,0.97,0.25,0.88,0.87,-15,-1,-24,0.92,8499,77,102,42,83,794,596.0,612,462,60,118.0,298,1,429,533,169,0,0,620,23619,20993,576,-5.59,,,,,,,,,,,,
42344,1564156129284,3,2.22,0.83,0.45,1.21,0.98,0.26,0.99,0.96,-15,-2,-24,1.02,8589,77,102,42,82,803,601.0,624,466,60,119.0,298,1,426,534,169,0,0,626,243,19320,579,-5.59,44.680866,10.024687,54.44,176.9,0,0.0,-1,0.0,0.0,0,0.23,0.7057
42364,1564156129304,0,2.2,0.83,0.45,1.21,0.97,0.4,0.9,0.92,-15,-2,-24,0.98,8640,78,102,42,82,814,605.0,621,467,60,119.0,298,1,425,534,169,0,0,630,-3820,-6006,583,-5.59,,,,,,,,,,,,
42384,1564156129324,-0,2.21,0.83,0.44,1.22,0.97,0.46,0.73,0.9,-15,1,-23,0.86,8676,78,102,42,81,819,609.0,620,466,60,118.0,292,1,423,520,171,0,0,635,-3446,-16046,588,-5.59,,,,,,,,,,,,
42404,1564156129344,3,2.2,0.83,0.45,1.22,0.97,0.35,0.76,0.87,-14,0,-24,0.83,8692,78,102,42,80,831,614.0,630,466,60,119.0,292,1,423,507,171,0,0,647,16529,506,590,-5.59,,,,,,,,,,,,
42424,1564156129364,2,2.2,0.84,0.46,1.22,0.97,0.2,0.88,0.92,-14,0,-22,0.9,8664,78,102,42,81,848,619.0,626,468,60,119.0,292,1,424,520,171,0,0,639,30721,16599,597,-5.59,,,,,,,,,,,,
42444,1564156129384,1,2.21,0.83,0.45,1.21,0.98,0.31,0.88,1.02,-15,-0,-21,0.94,8656,78,102,42,81,857,623.0,631,468,60,119.0,292,1,424,520,171,0,0,639,3395,244,601,-5.59,44.68087,10.024706,57.34,176.9,0,0.0,-1,0.0,0.0,0,0.23,0.7074
42464,1564156129403,0,2.21,0.83,0.44,1.22,0.97,0.43,0.68,1.03,-16,-1,-21,0.8,8724,79,102,42,81,862,625.0,631,465,60,118.0,292,1,423,520,171,0,0,645,17336,-30207,604,-5.59,,,,,,,,,,,,
42484,1564156129423,1,2.2,0.83,0.45,1.21,0.97,0.47,0.52,0.97,-15,0,-21,0.7,8827,79,102,42,81,873,629.0,638,463,60,118.0,285,1,420,520,173,0,0,649,-14655,4909,608,-5.59,,,,,,,,,,,,
42504,1564156129443,0,2.2,0.84,0.45,1.21,0.97,0.43,0.42,0.96,-14,1,-21,0.6,8890,79,102,42,81,891,631.0,634,465,60,118.0,285,1,419,520,173,0,0,654,-2836,-10344,611,-5.59,,,,,,,,,,,,
42524,1564156129463,0,2.21,0.83,0.45,1.21,0.98,0.2,0.54,0.92,-13,2,-19,0.58,8958,79,102,42,80,899,637.0,637,467,60,119.0,285,1,417,520,173,0,0,662,-10251,-3578,614,-5.59,,,,,,,,,,,,
42544,1564156129483,1,2.2,0.83,0.44,1.21,0.98,0.1,0.59,0.9,-12,3,-18,0.6,9044,79,102,42,81,909,638.0,640,463,60,118.0,285,1,416,520,173,0,0,664,16599,-10344,617,-5.59,44.680874,10.024725,58.64,176.9,0,0.0,-1,0.0,0.0,0,0.23,0.7091
42564,1564156129501,0,2.2,0.83,0.44,1.21,0.97,-0.09,0.67,0.8,-11,4,-17,0.68,9137,68,102,42,78,917,647.0,637,463,60,117.0,285,1,414,493,173,0,0,666,-8429,1780,623,-5.59,,,,,,,,,,,,
42584,1564156129521,1,2.2,0.82,0.44,1.21,0.97,0.04,0.48,0.86,-11,6,-18,0.48,9200,51,102,42,72,932,648.0,639,463,60,118.0,239,1,414,413,150,0,0,677,479,-2830,626,-5.59,,,,,,,,,,,,
42604,1564156129541,1,2.21,0.83,0.45,1.2,0.97,0.14,0.24,0.97,-11,7,-19,0.28,9150,37,102,42,65,939,653.0,636,461,60,118.0,239,1,407,362,150,0,0,681,-3488,16118,629,-5.59,,,,,,,,,,,,
42624,1564156129561,1,2.22,0.83,0.44,1.21,0.97,0.33,0.01,1.01,-13,6,-21,0.33,9031,23,102,42,57,944,658.0,643,462,60,119.0,239,1,399,316,150,0,0,676,-3038,8958,633,-5.59,,,,,,,,,,,,
42644,1564156129581,3,2.22,0.83,0.44,1.21,0.97,0.5,-0.19,1.11,-13,6,-22,0.53,8894,10,102,42,49,944,661.0,637,461,60,119.0,239,1,377,246,150,0,0,678,-2345,31988,636,-5.59,44.680882,10.024745,61.39,176.9,0,0.0,-1,0.0,0.0,0,0.24,0.7107
42664,1564156129599,10,2.21,0.82,0.44,1.2,0.97,0.62,-0.37,1.04,-13,7,-23,0.72,8612,0,102,42,42,941,658.0,636,460,60,118.0,239,1,338,217,150,0,0,666,-3038,-26380,636,-5.59,,,,,,,,,,,,
42684,1564156129619,25,2.22,0.81,0.43,1.21,0.95,0.59,-0.16,0.82,-12,4,-22,0.61,8449,0,102,42,37,937,646.0,626,465,60,119.0,105,1,312,202,66,0,0,655,-3584,6208,616,-5.59,,,,,,,,,,,,
42704,1564156129639,29,2.22,0.8,0.42,1.2,0.94,0.73,-0.2,0.84,-13,2,-22,0.76,8223,0,102,42,35,931,638.0,642,466,60,119.0,105,1,302,190,66,0,0,642,16599,-30139,594,-5.59,,,,,,,,,,,,
42724,1564156129659,33,2.22,0.77,0.41,1.19,0.94,0.69,0.0,0.66,-13,-2,-21,0.69,8002,0,102,42,34,920,636.0,629,467,60,119.0,105,1,295,178,66,0,0,628,-2580,10432,592,-5.59,,,,,,,,,,,,
42744,1564156129679,32,2.24,0.78,0.41,1.19,0.93,0.7,0.05,0.53,-12,-2,-23,0.71,7780,0,102,42,33,883,627.0,613,470,60,118.0,105,1,292,172,66,0,0,615,20993,-8187,584,-5.59,44.680885,10.024765,62.91,176.8,0,0.0,-1,0.0,0.0,0,0.24,0.7124
42764,1564156129701,32,2.25,0.79,0.42,1.19,0.94,0.84,0.06,0.47,-12,-2,-24,0.84,7609,0,102,42,33,856,624.0,602,469,60,118.0,105,1,292,172,66,0,0,599,-16883,243,601,-5.59,,,,,,,,,,,,
42784,1564156129721,31,2.25,0.81,0.42,1.2,0.96,0.95,0.15,0.45,-12,1,-23,0.96,7361,0,102,42,33,833,633.0,588,466,60,117.0,78,1,292,172,47,0,0,578,-5120,10392,600,-5.59,,,,,,,,,,,,
42804,1564156129741,28,2.26,0.82,0.44,1.21,0.97,0.95,0.17,0.39,-13,2,-24,0.96,6957,0,102,42,32,814,630.0,568,468,60,119.0,78,1,290,167,47,0,0,604,-16046,8488,596,-5.59,,,,,,,,,,,,
42824,1564156129761,27,2.25,0.84,0.44,1.22,0.97,0.97,0.26,0.34,-14,4,-23,1.0,6533,0,102,42,32,798,626.0,544,469,60,118.0,78,1,290,172,47,0,0,611,506,-9203,582,-5.59,,,,,,,,,,,,
42844,1564156129781,25,2.25,0.82,0.42,1.21,0.96,1.07,0.42,0.32,-15,5,-23,1.15,6364,0,102,42,32,790,621.0,525,467,60,119.0,78,1,290,167,47,0,0,610,-18357,10432,561,-5.59,44.680893,10.024785,64.31,176.8,0,0.0,-1,0.0,0.0,0,0.24,0.7141
42864,1564156129801,22,2.26,0.8,0.41,1.2,0.94,1.09,0.39,0.27,-16,3,-24,1.16,6196,0,102,42,32,798,611.0,512,465,60,120.0,78,1,290,167,47,0,0,609,1010,2211,567,-5.59,,,,,,,,,,,,
42884,1564156129821,22,2.26,0.77,0.4,1.18,0.92,1.09,0.36,0.23,-18,-1,-24,1.15,6147,0,102,42,32,804,603.0,502,463,60,120.0,67,1,290,167,38,0,0,559,-7939,243,554,-5.59,,,,,,,,,,,,
42904,1564156129841,21,2.27,0.76,0.39,1.17,0.92,1.03,0.44,0.26,-17,-1,-25,1.12,6231,0,102,42,33,810,599.0,502,465,60,119.0,67,1,292,172,38,0,0,843,30227,-6656,541,-5.59,,,,,,,,,,,,
42924,1564156129861,21,2.3,0.77,0.4,1.18,0.92,0.98,0.5,0.22,-16,-1,-27,1.1,6233,0,102,42,33,816,592.0,507,465,60,118.0,67,1,292,172,38,0,0,843,-28648,160,555,-5.59,,,,,,,,,,,,
42944,1564156129881,22,2.32,0.79,0.4,1.19,0.94,0.97,0.54,0.18,-16,-4,-26,1.11,6127,0,102,42,33,812,589.0,515,467,60,117.0,67,1,292,172,38,0,0,843,-12040,250,553,-5.59,44.680901,10.024805,62.12,176.8,0,0.0,-1,0.0,0.0,0,0.24,0.7157
42964,1564156129905,18,2.34,0.81,0.42,1.2,0.95,1.05,0.58,0.2,-15,-2,-26,1.2,5971,0,102,42,33,807,581.0,507,468,60,118.0,67,1,290,171,38,0,0,567,10432,8704,555,-5.59,,,,,,,,,,,,
42984,1564156129925,16,2.35,0.84,0.43,1.23,0.96,1.03,0.6,0.22,-15,-2,-27,1.2,5803,0,102,42,34,792,577.0,493,466,60,119.0,70,1,285,176,39,0,0,564,-3210,-1482,555,-5.59,,,,,,,,,,,,
43004,1564156129945,11,2.36,0.84,0.43,1.24,0.96,0.94,0.62,0.2,-14,-0,-25,1.13,5685,0,102,42,34,778,574.0,456,468,60,118.0,70,1,278,175,39,0,0,558,774,250,551,181.28,,,,,,,,,,,,
43024,1564156129965,5,2.38,0.86,0.43,1.23,0.97,0.85,0.59,0.08,-13,-0,-23,1.03,5482,0,102,42,35,768,571.0,383,465,60,120.0,70,1,270,178,39,0,0,567,1267,3584,555,-5.59,,,,,,,,,,,,
43044,1564156129985,3,2.38,0.86,0.43,1.23,0.98,0.91,0.57,0.18,-13,-0,-23,1.08,5211,0,102,42,36,760,568.0,379,468,60,119.0,70,1,253,184,39,0,0,566,1267,10818,555,-5.59,44.680908,10.024823,59.6,176.7,0,0.0,-1,0.0,0.0,0,0.24,0.7174
43064,1564156129995,3,2.38,0.87,0.44,1.25,0.97,0.81,0.59,0.04,-12,1,-19,1.0,5006,0,102,42,38,753,565.0,392,466,60,119.0,70,1,248,195,39,0,0,563,-30159,30720,559,-5.59,,,,,,,,,,,,
43084,1564156130015,0,2.36,0.87,0.45,1.24,0.99,0.9,0.56,0.24,-11,4,-19,1.06,4890,0,102,42,39,746,563.0,388,461,60,120.0,66,1,240,198,37,0,0,555,2211,257,558,181.28,,,,,,,,,,,,
43104,1564156130035,1,2.34,0.87,0.45,1.24,0.99,0.93,0.63,0.16,-9,1,-16,1.12,4839,0,102,42,41,748,557.0,380,463,60,119.0,66,1,237,200,37,0,0,524,-22263,10392,557,-5.59,,,,,,,,,,,,
43124,1564156130055,5,2.3,0.87,0.44,1.24,0.97,1.04,0.66,0.11,-8,-2,-15,1.23,4994,0,102,42,42,753,552.0,382,465,60,118.0,66,1,256,205,37,0,0,531,2104,2211,552,-5.59,,,,,,,,,,,,
43144,1564156130075,8,2.28,0.86,0.43,1.23,0.97,1.02,0.68,0.04,-7,-3,-11,1.23,5025,0,102,42,43,764,546.0,384,466,60,118.0,66,1,261,208,37,0,0,533,1779,-899,546,-5.59,44.680916,10.02484,56.46,176.7,0,0.0,-1,0.0,0.0,0,0.24,0.7191
43164,1564156130105,12,2.26,0.86,0.44,1.23,0.98,1.12,0.73,0.11,-7,-4,-9,1.34,5145,0,102,42,43,778,540.0,387,466,60,119.0,66,1,270,208,37,0,0,521,-8186,15661,537,-5.59,,,,,,,,,,,,
43184,1564156130125,13,2.26,0.86,0.44,1.24,0.98,1.0,0.67,-0.02,-6,-2,-9,1.21,5308,0,102,42,44,793,536.0,396,463,60,119.0,77,1,286,210,41,0,0,520,-28648,-21872,530,-5.59,,,,,,,,,,,,
43204,1564156130145,15,2.26,0.86,0.44,1.24,0.98,1.11,0.62,0.12,-6,-4,-10,1.27,5436,0,102,42,44,804,534.0,408,469,60,118.0,77,1,296,210,41,0,0,515,-32248,-6441,525,-5.59,,,,,,,,,,,,
43224,1564156130165,14,2.25,0.87,0.44,1.25,0.99,0.99,0.56,0.11,-6,-1,-9,1.14,5535,0,102,42,44,828,530.0,418,467,60,118.0,77,1,304,211,41,0,0,498,2524,-10483,521,-5.59,,,,,,,,,,,,
43244,1564156130185,14,2.22,0.86,0.45,1.25,0.98,0.94,0.52,0.14,-5,-3,-11,1.08,5690,0,102,42,43,847,524.0,431,464,60,119.0,77,1,311,211,41,0,0,481,2088,10305,513,-5.59,44.680923,10.024857,55.15,176.6,0,0.0,-1,0.0,0.0,0,0.25,0.7207
43264,1564156130205,14,2.2,0.86,0.44,1.24,0.97,1.05,0.56,0.06,-7,-5,-12,1.19,5879,0,102,42,43,867,520.0,443,463,60,118.0,77,1,325,210,41,0,0,469,2524,-17956,504,-5.59,,,,,,,,,,,,
43284,1564156130225,17,2.17,0.86,0.44,1.24,0.98,1.15,0.49,0.07,-10,-7,-13,1.25,5996,0,102,42,42,881,520.0,460,467,60,119.0,94,1,327,209,47,0,0,469,1341,20625,499,-5.59,,,,,,,,,,,,
43304,1564156130245,18,2.16,0.86,0.43,1.24,0.97,1.24,0.43,0.15,-12,-8,-16,1.31,6143,0,102,42,41,895,513.0,475,461,60,120.0,94,1,322,208,47,0,0,485,-3856,-8151,488,-5.59,,,,,,,,,,,,
43324,1564156130265,17,2.15,0.85,0.43,1.24,0.97,1.29,0.48,0.13,-14,-8,-17,1.37,6227,0,102,42,40,907,515.0,488,466,60,120.0,94,1,316,207,47,0,0,1844,17136,3082,474,-5.59,,,,,,,,,,,,
43344,1564156130285,17,2.16,0.86,0.43,1.24,0.97,1.24,0.46,0.06,-16,-8,-19,1.32,6184,0,102,42,39,914,511.0,493,469,60,119.0,94,1,310,206,47,0,0,1844,-4054,6668,471,-5.59,44.680931,10.024872,53.69,176.6,0,0.0,-1,0.0,0.0,0,0.25,0.7224
43364,1564156130305,14,2.17,0.85,0.43,1.23,0.97,1.17,0.47,0.07,-17,-7,-21,1.26,6123,0,102,42,39,912,510.0,496,466,60,120.0,94,1,310,130,47,0,0,1844,26178,115,472,-5.59,,,,,,,,,,,,
43384,1564156130325,9,2.18,0.85,0.43,1.24,0.97,1.09,0.47,0.1,-18,-6,-22,1.19,6023,0,102,42,38,908,513.0,494,464,60,119.0,97,1,307,201,46,0,0,1844,26178,90,469,-5.59,,,,,,,,,,,,
43404,1564156130345,3,2.22,0.86,0.44,1.23,0.98,0.98,0.49,0.1,-18,-6,-24,1.09,5941,0,102,42,38,904,508.0,491,466,60,119.0,97,1,303,200,46,0,0,502,-3414,100,471,-5.59,,,,,,,,,,,,
43424,1564156130365,-1,2.28,0.86,0.45,1.24,0.98,0.87,0.45,0.12,-18,-6,-25,0.99,5812,0,102,42,38,901,507.0,483,464,60,119.0,97,1,295,200,46,0,0,505,-21872,-29978,475,-5.59,,,,,,,,,,,,
43444,1564156130385,-1,2.34,0.86,0.44,1.24,0.98,0.84,0.46,0.11,-18,-7,-26,0.96,5669,0,102,42,38,899,503.0,469,467,60,119.0,97,1,287,199,46,0,0,498,2109,20625,474,-5.59,44.680943,10.024886,51.21,176.5,0,0.0,-1,0.0,0.0,0,0.25,0.7241
43464,1564156130404,2,2.4,0.87,0.44,1.25,0.99,0.93,0.42,0.3,-16,-6,-26,1.02,5539,0,102,42,39,894,494.0,465,467,60,119.0,97,1,282,203,46,0,0,496,998,32033,477,-5.59,,,,,,,,,,,,
43484,1564156130424,-1,2.47,0.87,0.44,1.25,0.98,0.9,0.45,0.3,-13,-4,-23,1.0,5487,0,102,42,40,884,490.0,451,466,60,120.0,87,1,283,203,42,0,0,477,-1562,-17956,482,-5.59,,,,,,,,,,,,
43504,1564156130444,-0,2.5,0.88,0.44,1.26,0.98,0.85,0.3,0.29,-9,-7,-22,0.9,5535,0,102,42,40,875,485.0,450,465,60,119.0,87,1,286,204,42,0,0,473,10305,-1562,486,181.28,,,,,,,,,,,,
43524,1564156130464,2,2.53,0.89,0.44,1.26,0.99,0.96,0.22,0.27,-5,-8,-19,0.99,5681,0,102,42,40,867,492.0,452,465,60,119.0,87,1,295,129,42,0,0,462,-16384,3580,489,-5.59,,,,,,,,,,,,
43544,1564156130484,2,2.53,0.89,0.45,1.26,1.01,1.07,0.13,0.33,-1,-6,-17,1.08,5899,0,102,42,40,854,488.0,460,466,60,118.0,87,1,308,207,42,0,0,458,16408,3580,488,-5.59,44.680946,10.024899,48.64,176.5,0,0.0,-1,0.0,0.0,0,0.25,0.7257
43564,1564156130504,3,2.54,0.9,0.45,1.27,1.01,1.1,0.06,0.3,3,-5,-13,1.1,5978,0,102,42,40,840,487.0,472,463,60,117.0,87,1,314,206,42,0,0,444,-18108,-6441,487,-5.59,,,,,,,,,,,,
43584,1564156130524,1,2.53,0.9,0.45,1.26,1.01,1.09,-0.07,0.3,6,-2,-9,1.09,6115,0,102,42,39,832,491.0,477,469,60,119.0,95,1,310,206,47,0,0,440,14488,16648,491,-5.59,,,,,,,,,,,,
43604,1564156130544,-1,2.52,0.9,0.46,1.27,1.01,1.18,-0.14,0.25,8,2,-4,1.18,6296,0,102,42,38,828,488.0,490,468,60,119.0,95,1,307,201,47,0,0,423,-26615,505,488,-5.59,,,,,,,,,,,,
43624,1564156130564,-1,2.53,0.91,0.46,1.27,1.01,1.26,-0.25,0.31,10,2,-0,1.29,6302,0,102,42,37,827,487.0,495,467,60,118.0,95,1,304,195,47,0,0,410,3571,-6656,487,-5.59,,,,,,,,,,,,
43644,1564156130584,0,2.53,0.9,0.46,1.26,1.01,1.23,-0.41,0.36,11,-0,2,1.3,6298,0,102,42,37,832,491.0,501,465,60,119.0,95,1,304,195,47,0,0,421,2524,-1818,491,-5.59,44.680958,10.024911,47.5,176.4,0,0.0,-1,0.0,0.0,0,0.25,0.7274
43664,1564156130604,1,2.52,0.9,0.46,1.26,1.01,1.16,-0.52,0.4,12,-1,5,1.27,6214,0,102,42,37,838,1070.0,500,468,60,118.0,95,1,304,195,47,0,0,1553,-22284,-6656,1070,-5.59,,,,,,,,,,,,
43684,1564156130624,1,2.52,0.9,0.46,1.27,1.01,1.06,-0.48,0.38,14,1,8,1.17,6161,0,102,42,36,848,1070.0,502,467,60,119.0,41,1,301,189,44,0,0,1553,5600,-1562,1070,-5.59,,,,,,,,,,,,
43704,1564156130644,2,2.52,0.89,0.46,1.27,1.0,0.99,-0.45,0.34,15,3,10,1.09,6157,0,102,42,36,858,473.0,496,463,60,118.0,41,1,301,189,44,0,0,1553,21432,-10483,473,-5.59,,,,,,,,,,,,
43724,1564156130664,-1,2.51,0.9,0.46,1.26,1.0,1.1,-0.54,0.28,16,3,11,1.22,6208,0,102,42,36,865,475.0,492,467,60,118.0,41,1,301,112,44,0,0,1553,2131,-17956,475,-5.59,,,,,,,,,,,,
43744,1564156130684,-1,2.49,0.89,0.45,1.27,1.01,1.19,-0.62,0.31,17,2,12,1.34,6245,0,102,42,36,875,475.0,501,465,60,119.0,41,1,301,189,44,0,0,1553,2131,-23367,475,-5.59,44.680965,10.024923,47.22,176.4,0,0.0,-1,0.0,0.0,0,0.25,0.7291
43764,1564156130704,-1,2.46,0.9,0.45,1.27,1.01,1.27,-0.66,0.29,16,-1,14,1.43,6266,0,102,42,35,876,475.0,501,466,60,120.0,41,1,298,184,44,0,0,427,2131,10305,475,-5.59,,,,,,,,,,,,
43784,1564156130724,0,2.43,0.9,0.45,1.27,1.01,1.19,-0.75,0.32,15,-3,16,1.41,6262,0,101,42,36,875,473.0,506,467,60,119.0,90,1,301,183,43,0,0,437,8488,10432,473,-5.59,,,,,,,,,,,,
43804,1564156130744,1,2.43,0.89,0.45,1.26,1.01,1.05,-0.73,0.39,14,-2,18,1.28,6179,4,101,42,35,870,471.0,501,466,60,119.0,90,1,298,183,43,0,0,444,8488,-17956,471,-5.59,,,,,,,,,,,,
43824,1564156130764,2,2.42,0.9,0.45,1.27,1.0,0.89,-0.62,0.41,14,0,18,1.08,6169,4,101,42,35,864,468.0,496,468,60,119.0,90,1,298,183,43,0,0,447,15649,-3210,468,-5.59,,,,,,,,,,,,
43844,1564156130784,2,2.43,0.9,0.45,1.26,1.01,0.82,-0.55,0.4,15,3,18,0.99,6159,4,101,42,35,859,466.0,495,464,60,119.0,90,1,298,183,43,0,0,447,-3267,-16384,466,-5.59,44.680973,10.024936,46.45,176.4,0,0.0,-1,0.0,0.0,0,0.25,0.7307
43864,1564156130804,3,2.42,0.89,0.44,1.26,1.01,0.89,-0.49,0.39,15,6,18,1.02,6137,5,101,42,35,851,464.0,496,466,60,119.0,90,1,298,183,43,0,0,445,15649,-3210,465,-5.59,,,,,,,,,,,,
43884,1564156130824,-1,2.42,0.89,0.46,1.27,1.0,1.0,-0.43,0.39,14,6,17,1.09,6192,5,101,42,35,843,463.0,496,463,60,120.0,90,1,298,183,42,0,0,447,10305,10432,463,-5.59,,,,,,,,,,,,
43904,1564156130844,-1,2.42,0.89,0.46,1.26,1.0,1.07,-0.46,0.39,13,6,17,1.17,6184,5,101,42,35,838,460.0,500,465,60,119.0,90,1,298,183,42,0,0,443,16648,17628,461,-5.59,,,,,,,,,,,,
43924,1564156130864,-1,2.42,0.88,0.45,1.26,1.0,1.09,-0.49,0.46,12,3,16,1.19,6135,5,101,42,35,836,460.0,495,462,60,120.0,90,1,298,183,42,0,0,447,2131,6193,460,-5.59,,,,,,,,,,,,
43944,1564156130884,-2,2.43,0.88,0.45,1.25,0.99,1.06,-0.51,0.49,11,1,17,1.18,6141,5,101,42,35,835,457.0,489,465,60,119.0,90,1,298,183,42,0,0,447,21432,-18108,459,-5.59,44.680981,10.024948,45.65,176.3,0,0.0,-1,0.0,0.0,0,0.26,0.7324
43964,1564156130904,0,2.43,0.88,0.45,1.26,1.0,0.97,-0.59,0.46,10,-2,16,1.13,6123,6,101,42,35,834,458.0,494,467,60,119.0,90,1,298,183,42,0,0,444,2131,2524,458,-5.59,,,,,,,,,,,,
43984,1564156130924,1,2.43,0.89,0.45,1.27,1.0,0.89,-0.67,0.5,10,-4,16,1.12,6071,9,101,42,35,832,456.0,492,467,60,120.0,92,1,298,183,42,0,0,440,2131,-9160,457,-5.59,,,,,,,,,,,,
44004,1564156130944,0,2.41,0.89,0.46,1.26,1.01,0.76,-0.7,0.58,10,-2,16,1.03,6081,16,101,42,37,832,456.0,493,465,60,119.0,92,1,304,194,42,0,0,445,-18341,-6387,456,-5.59,,,,,,,,,,,,
44024,1564156130964,0,2.41,0.89,0.46,1.27,1.0,0.63,-0.63,0.58,10,-0,16,0.9,6077,18,101,42,39,830,458.0,495,467,60,119.0,92,1,310,205,42,0,0,439,21580,14488,458,-5.59,,,,,,,,,,,,
44044,1564156130984,2,2.38,0.9,0.46,1.27,1.0,0.58,-0.5,0.55,11,1,17,0.77,6165,19,101,42,42,832,453.0,495,466,60,119.0,92,1,329,207,42,0,0,439,20625,2524,453,-5.59,44.680984,10.024961,45.53,176.3,0,0.0,-1,0.0,0.0,0,0.26,0.7341
44064,1564156130994,2,2.35,0.89,0.46,1.26,1.0,0.57,-0.39,0.56,12,3,17,0.69,6171,19,101,42,43,835,452.0,498,466,60,118.0,92,1,335,210,42,0,0,442,-28332,-6387,452,-5.59,,,,,,,,,,,,
44084,1564156131014,-1,2.31,0.88,0.45,1.25,1.0,0.62,-0.3,0.54,12,5,17,0.69,6214,19,101,42,45,838,452.0,498,466,60,119.0,108,1,349,213,49,0,0,440,20625,2524,452,-5.59,,,,,,,,,,,,
44104,1564156131034,-3,2.25,0.87,0.44,1.24,0.99,0.75,-0.25,0.53,10,6,16,0.79,6260,19,101,42,45,842,448.0,503,464,60,119.0,108,1,349,214,49,0,0,441,26704,3571,448,-5.59,,,,,,,,,,,,
44124,1564156131054,0,2.21,0.84,0.43,1.21,0.97,0.86,-0.22,0.56,7,6,16,0.89,6304,19,101,42,46,846,445.0,502,466,60,120.0,108,1,356,214,49,0,0,446,21432,21432,444,-5.59,,,,,,,,,,,,
44144,1564156131074,1,2.16,0.78,0.42,1.16,0.95,0.85,-0.24,0.53,4,5,13,0.89,6358,19,101,42,47,851,450.0,502,466,60,118.0,108,1,363,216,49,0,0,450,-3267,26704,436,-5.59,44.680992,10.024975,44.68,176.3,0,0.0,-1,0.0,0.0,0,0.26,0.7357
44164,1564156131104,2,2.13,0.7,0.39,1.11,0.92,0.79,-0.14,0.52,1,4,11,0.8,6425,19,101,42,48,852,447.0,511,464,60,118.0,108,1,367,222,49,0,0,1182,15649,21580,425,-5.59,,,,,,,,,,,,
44184,1564156131124,-2,2.09,0.62,0.37,1.05,0.88,0.81,0.06,0.44,-2,4,8,0.81,6474,20,101,42,48,853,453.0,514,463,60,120.0,126,1,367,222,54,0,0,1182,-8985,243,427,-5.59,,,,,,,,,,,,
44204,1564156131144,1,2.06,0.59,0.36,1.04,0.87,0.85,0.06,0.42,-6,5,5,0.86,6517,20,101,42,48,850,455.0,510,462,60,120.0,126,1,368,222,54,0,0,1182,-26615,-3322,424,-5.59,,,,,,,,,,,,
44224,1564156131164,-0,2.04,0.6,0.35,1.04,0.86,0.85,0.17,0.46,-9,4,3,0.86,6526,28,101,42,50,844,455.0,514,466,60,117.0,126,1,374,232,54,0,0,1182,-26615,20625,422,-5.59,,,,,,,,,,,,
44244,1564156131184,-1,2.02,0.62,0.36,1.05,0.86,0.9,0.35,0.43,-11,3,-1,0.96,6225,33,101,42,53,840,457.0,517,459,60,120.0,126,1,381,248,54,0,0,1182,-23623,8488,424,-5.59,44.681,10.024988,44.19,176.3,0,0.0,-1,0.0,0.0,0,0.26,0.7374
44264,1564156131204,-1,2.02,0.64,0.35,1.06,0.87,0.93,0.4,0.44,-13,2,-5,1.01,5977,38,101,42,58,837,462.0,497,462,60,119.0,126,1,380,249,54,0,0,453,12552,-22519,422,-5.59,,,,,,,,,,,,
44284,1564156131224,-1,2.0,0.61,0.35,1.05,0.86,0.94,0.45,0.5,-15,-1,-8,1.04,6161,46,101,42,64,838,458.0,488,466,60,119.0,139,1,377,273,59,0,0,472,-26615,2524,420,-5.59,,,,,,,,,,,,
44304,1564156131244,-1,1.99,0.58,0.34,1.02,0.83,0.93,0.47,0.47,-16,-3,-13,1.04,6252,55,101,42,71,842,455.0,492,461,60,119.0,139,1,363,337,59,0,0,451,-26615,-3314,418,-5.59,,,,,,,,,,,,
44324,1564156131264,2,1.99,0.56,0.33,1.01,0.83,0.88,0.5,0.45,-18,-4,-16,1.01,6355,59,101,42,77,847,451.0,490,467,60,120.0,139,1,359,431,59,0,0,456,2524,3635,419,-5.59,,,,,,,,,,,,
44344,1564156131284,2,2.01,0.58,0.33,1.02,0.84,0.82,0.65,0.48,-19,-2,-19,1.04,6315,61,101,42,81,855,456.0,495,464,60,118.0,139,1,354,460,59,0,0,461,14488,16408,419,-5.59,44.681004,10.025001,43.66,176.3,0,0.0,-1,0.0,0.0,0,0.26,0.7391
44364,1564156131306,-0,2.02,0.61,0.35,1.05,0.85,0.84,0.69,0.52,-21,1,-22,1.09,6364,62,101,42,84,880,462.0,495,468,60,118.0,139,1,353,476,59,0,0,465,12552,-1818,418,-5.59,,,,,,,,,,,,
44384,1564156131326,0,2.04,0.66,0.36,1.09,0.88,0.9,0.78,0.5,-22,1,-25,1.19,6549,65,101,42,86,925,463.0,501,464,60,120.0,287,1,356,490,120,0,0,463,6193,32033,417,-5.59,,,,,,,,,,,,
44404,1564156131346,2,2.06,0.69,0.37,1.09,0.89,0.86,0.78,0.61,-23,-1,-28,1.16,6639,66,101,42,88,968,463.0,508,466,60,118.0,287,1,357,496,120,0,0,474,6193,-16384,418,-5.59,,,,,,,,,,,,
44424,1564156131366,-1,2.08,0.68,0.37,1.11,0.89,0.81,0.86,0.61,-24,1,-29,1.19,6674,66,101,42,88,1004,464.0,511,460,60,119.0,287,1,358,502,120,0,0,477,243,771,421,-5.59,,,,,,,,,,,,
44444,1564156131386,0,2.1,0.7,0.38,1.11,0.91,0.84,0.77,0.7,-25,0,-31,1.14,6646,66,101,42,89,1064,469.0,514,465,60,118.0,287,1,354,506,120,0,0,482,10432,2524,422,-5.59,44.681007,10.025014,43.23,176.3,0,0.0,-1,0.0,0.0,0,0.26,0.7407
44464,1564156131403,-2,2.11,0.71,0.38,1.12,0.9,0.77,0.86,0.66,-25,2,-32,1.16,6656,66,101,42,89,1113,468.0,515,463,60,118.0,287,1,355,507,120,0,0,484,10432,8488,426,-5.59,,,,,,,,,,,,
44484,1564156131423,-0,2.12,0.7,0.38,1.12,0.9,0.78,0.81,0.7,-26,2,-32,1.12,6616,67,101,42,89,1171,470.0,512,460,60,120.0,299,1,352,505,128,0,0,487,8488,-17956,428,-5.59,,,,,,,,,,,,
44504,1564156131443,2,2.12,0.7,0.38,1.12,0.9,0.72,0.83,0.76,-26,2,-32,1.1,6560,67,101,42,89,1198,472.0,503,465,60,119.0,299,1,350,503,128,0,0,488,-1923,3,432,-5.59,,,,,,,,,,,,
44524,1564156131463,-0,2.13,0.71,0.38,1.13,0.9,0.69,0.9,0.73,-26,3,-32,1.13,6544,67,101,42,89,1220,472.0,505,460,60,120.0,299,1,349,507,128,0,0,490,3576,-10483,436,-5.59,,,,,,,,,,,,
44544,1564156131483,2,2.13,0.71,0.38,1.13,0.91,0.69,0.88,0.75,-26,1,-33,1.11,6562,67,101,42,89,1220,474.0,503,466,60,119.0,299,1,350,503,128,0,0,487,-9203,32033,441,-5.59,44.681015,10.025025,42.77,176.3,0,0.0,-1,0.0,0.0,0,0.26,0.7424
44564,1564156131503,-0,2.13,0.72,0.38,1.12,0.9,0.62,0.88,0.73,-25,2,-33,1.07,6549,67,101,42,90,1220,478.0,502,463,60,118.0,299,1,347,507,128,0,0,488,16648,-6656,445,-5.59,,,,,,,,,,,,
44584,1564156131523,1,2.13,0.71,0.39,1.13,0.9,0.68,0.85,0.73,-25,2,-32,1.09,6616,67,101,42,89,1193,478.0,510,464,60,120.0,281,1,352,505,126,0,0,485,16648,771,446,-5.59,,,,,,,,,,,,
44604,1564156131543,3,2.13,0.72,0.39,1.13,0.92,0.6,0.82,0.79,-25,1,-32,1.02,6703,67,101,42,90,1163,481.0,507,465,60,118.0,281,1,355,514,126,0,0,489,32033,-32768,451,-5.59,,,,,,,,,,,,
44624,1564156131563,-1,2.14,0.72,0.39,1.14,0.91,0.62,0.89,0.76,-24,4,-32,1.08,6768,67,101,42,89,1120,482.0,520,464,60,120.0,281,1,361,511,126,0,0,495,-899,-1818,452,-5.59,,,,,,,,,,,,
