"Interval"|"ms"|0|0|1,"Utc"|"ms"|0|0|1,"FB_p"|"bar"|0|300|50,"Volant"|"F"|0.0|300.0|50,"xFR"|"mm"|0.0|5.0|50,"xRR"|"mm"|0.0|5.0|50,"xFL"|"mm"|0.0|5.0|50,"xRL"|"mm"|0.0|5.0|50,"AccelX"|"G"|-3.0|3.0|50,"AccelY"|"G"|-3.0|3.0|50,"AccelZ"|"G"|-3.0|3.0|50,"Yaw"|"Deg/Sec"|-120|120|50,"Pitch"|"Deg/Sec"|-120|120|50,"Roll"|"Deg/Sec"|-120|120|50,"Gsum"|"G"|0.0|3.0|50,"RPM"|""|0|14000|50,"TPS"|"%"|0|100|50,"WaterTemp"|"?C"|0|300|50,"AirTemp"|"?C"|-1000|1000|50,"MAP"|"KPa"|0|255|50,"Lambda"|""|0|1024|50,"WheelSpeed"|"MPH"|0.0|150.0|50,"OilPress"|"PSI"|0|150|50,"FuelPress"|"PSI"|0|150|50,"OilTemp"|"F"|0|300|50,"Battery"|"Volts"|0.0|20.0|50,"FuelCon"|"L/h"|-1000|1000|50,"Gear"|""|0|10|50,"Advance"|"Deg"|-360|360|50,"Injection"|"ms"|-1000|1000|50,"FuelCon"|"L/100km"|-1000|1000|50,"LC_But_Pres"|""|-1000|1000|50,"LC_Active"|""|-1000|1000|50,"RD_Speed"|""|-1000|1000|50,"RUD_Speed"|""|-1000|1000|50,"LD_Speed"|""|-1000|1000|50,"LUD_Speed"|""|-1000|1000|50,"Ana1"|"bar"|-1000.0|1000.0|50,"Latitude"|"Degrees"|-180.0|180.0|10,"Longitude"|"Degrees"|-180.0|180.0|10,"Speed"|"kph"|0.0|150.0|10,"Altitude"|"m"|0.0|4000.0|10,"LapCount"|""|0|0|10,"LapTime"|"Min"|0.0|0.0|10,"Sector"|""|0|0|10,"SectorTime"|"Min"|0.0|0.0|10,"ElapsedTime"|"Min"|0.0|0.0|10,"CurrentLap"|""|0|0|10,"Distance"|"km"|0.0|0.0|10,"SessionTime"|"Min"|0.0|0.0|10
184364,1564133353358,2,2.18,1.02,0.4,1.52,1.13,0.89,0.66,0.59,-15,2,-19,1.11,9842,24,104,41,34,946,536.0,645,471,60,121.0,152,1,305,209,78,0,0,538,-28648,1341,514,-5.59,,,,,,,,,,,,
184384,1564133353378,0,2.19,1.03,0.4,1.51,1.13,0.81,0.69,0.5,-16,3,-19,1.06,9847,24,104,41,34,956,536.0,618,461,60,122.0,152,1,305,209,78,0,0,537,-28648,15679,514,-5.59,,,,,,,,,,,,
184404,1564133353398,2,2.18,1.03,0.4,1.52,1.13,0.9,0.64,0.53,-16,2,-20,1.1,9796,25,104,41,34,969,536.0,635,470,60,122.0,152,1,305,209,78,0,0,537,-28648,-3482,514,-5.59,,,,,,,,,,,,
184424,1564133353418,1,2.19,1.02,0.4,1.51,1.13,0.79,0.67,0.42,-16,2,-19,1.03,9786,25,104,41,34,984,532.0,621,473,60,123.0,151,1,305,209,78,0,0,533,2104,-14,514,-5.59,,,,,,,,,,,,
184444,1564133353438,1,2.19,1.02,0.4,1.52,1.13,0.85,0.66,0.43,-16,2,-20,1.08,9811,25,104,41,34,997,534.0,616,461,60,122.0,151,1,305,209,78,0,0,540,-32248,-4054,513,-5.59,44.681316,10.025027,51.89,176.1,0,0.0,-1,0.0,0.0,0,2.34,3.0741
184464,1564133353458,-0,2.19,1.02,0.4,1.51,1.13,0.72,0.71,0.35,-16,2,-19,1.02,9806,24,104,41,34,1003,535.0,614,470,60,122.0,151,1,305,209,78,0,0,533,-28648,-3482,511,-5.59,,,,,,,,,,,,
184484,1564133353478,3,2.19,1.02,0.4,1.51,1.14,0.81,0.69,0.41,-17,1,-20,1.07,9755,25,104,41,34,1009,532.0,610,466,60,122.0,151,1,305,209,78,0,0,532,14504,26178,511,-5.59,,,,,,,,,,,,
184504,1564133353498,1,2.19,1.02,0.4,1.51,1.14,0.75,0.74,0.37,-17,0,-19,1.06,9745,24,104,41,34,1013,532.0,622,473,60,122.0,151,1,305,208,78,0,0,536,14504,-21872,509,-5.59,,,,,,,,,,,,
184524,1564133353518,2,2.18,1.02,0.4,1.52,1.13,0.88,0.71,0.48,-17,-0,-20,1.13,9786,25,104,41,34,1016,532.0,627,469,60,122.0,148,1,305,209,76,0,0,537,14504,-4054,512,-5.59,,,,,,,,,,,,
184544,1564133353538,-0,2.19,1.02,0.4,1.51,1.14,0.85,0.68,0.5,-17,1,-20,1.09,9775,25,104,41,34,1014,530.0,641,471,60,122.0,148,1,305,209,76,0,0,533,2524,-3482,513,-5.59,44.681328,10.025019,51.47,176.1,0,0.0,-1,0.0,0.0,0,2.34,3.0757
184564,1564133353558,2,2.19,1.03,0.4,1.52,1.13,0.97,0.62,0.6,-18,-1,-20,1.15,9720,25,104,41,34,1013,529.0,641,469,60,122.0,148,1,305,208,76,0,0,537,-9072,10994,512,-5.59,,,,,,,,,,,,
184584,1564133353578,0,2.19,1.03,0.4,1.52,1.14,0.83,0.65,0.56,-17,-0,-19,1.05,9715,24,104,41,34,1015,530.0,626,472,60,122.0,148,1,305,208,76,0,0,528,2524,-4054,510,-5.59,,,,,,,,,,,,
184604,1564133353597,1,2.19,1.02,0.4,1.51,1.14,0.92,0.63,0.6,-17,-1,-19,1.12,9760,24,104,41,34,1018,529.0,610,463,60,122.0,148,1,305,209,76,0,0,531,-9072,-8187,510,-5.59,,,,,,,,,,,,
184624,1564133353617,1,2.19,1.02,0.4,1.52,1.13,0.78,0.66,0.56,-17,-1,-19,1.02,9760,24,104,41,34,1021,528.0,618,472,60,123.0,149,1,305,209,76,0,0,531,-28648,-3482,511,-5.59,,,,,,,,,,,,
184644,1564133353637,3,2.19,1.02,0.39,1.51,1.14,0.87,0.66,0.64,-17,-0,-20,1.09,9704,24,104,41,34,1026,530.0,607,465,60,122.0,149,1,305,208,76,0,0,534,-28648,-14,511,-5.59,44.681339,10.025009,51.4,176.2,0,0.0,-1,0.0,0.0,0,2.34,3.0774
184664,1564133353657,1,2.19,1.03,0.4,1.52,1.13,0.77,0.76,0.57,-17,0,-21,1.08,9689,24,104,41,34,1030,529.0,606,458,60,122.0,149,1,305,207,76,0,0,533,-28648,26178,509,-5.59,,,,,,,,,,,,
184684,1564133353677,1,2.19,1.02,0.4,1.52,1.13,0.9,0.68,0.65,-17,0,-20,1.13,9725,24,104,41,34,1035,530.0,603,472,60,122.0,149,1,305,208,76,0,0,530,2524,26178,509,-5.59,,,,,,,,,,,,
184704,1564133353697,-1,2.19,1.02,0.4,1.51,1.13,0.78,0.79,0.56,-17,1,-20,1.11,9725,24,104,41,34,1036,530.0,613,469,60,122.0,149,1,305,208,76,0,0,532,2524,26178,509,-5.59,,,,,,,,,,,,
184724,1564133353717,1,2.19,1.02,0.4,1.51,1.13,0.9,0.66,0.62,-18,1,-20,1.12,9674,25,104,41,34,1037,528.0,623,466,60,122.0,149,1,305,207,76,0,0,528,-28648,17136,507,-5.59,,,,,,,,,,,,
184744,1564133353737,-1,2.18,1.02,0.4,1.51,1.14,0.73,0.76,0.48,-17,1,-20,1.05,9674,25,104,41,34,1033,528.0,613,462,60,122.0,149,1,305,207,76,0,0,532,-28648,-3856,507,-5.59,44.681347,10.025,50.99,176.2,0,0.0,-1,0.0,0.0,0,2.34,3.0791
184764,1564133353757,2,2.18,1.03,0.4,1.51,1.14,0.81,0.69,0.54,-17,2,-21,1.07,9720,25,104,41,34,1029,524.0,631,466,60,122.0,149,1,305,208,76,0,0,527,10408,6274,506,-5.59,,,,,,,,,,,,
184784,1564133353777,0,2.18,1.03,0.4,1.52,1.13,0.78,0.77,0.5,-17,1,-20,1.1,9730,25,104,41,34,1024,525.0,613,461,60,123.0,149,1,305,208,76,0,0,531,2088,2109,504,-5.59,,,,,,,,,,,,
184804,1564133353797,2,2.18,1.02,0.4,1.52,1.13,0.8,0.71,0.53,-17,2,-21,1.07,9735,24,104,41,34,1019,527.0,623,473,60,123.0,149,1,305,208,76,0,0,526,6274,6274,504,-5.59,,,,,,,,,,,,
184824,1564133353817,3,2.18,1.02,0.39,1.51,1.14,0.83,0.76,0.54,-18,-0,-21,1.13,9689,24,104,41,34,1018,527.0,612,465,60,123.0,151,1,305,207,76,0,0,525,6274,-4054,501,-5.59,,,,,,,,,,,,
184844,1564133353837,0,2.18,1.02,0.4,1.52,1.13,0.83,0.65,0.58,-18,1,-21,1.05,9689,24,104,41,34,1017,524.0,610,468,60,122.0,151,1,305,207,76,0,0,528,10408,10994,501,-5.59,44.681362,10.024989,50.68,176.2,0,0.0,-1,0.0,0.0,0,2.34,3.0807
184864,1564133353857,1,2.17,1.02,0.4,1.52,1.13,0.86,0.71,0.59,-18,1,-21,1.12,9735,25,104,41,34,1021,526.0,612,465,60,123.0,151,1,305,208,76,0,0,530,-32248,-3414,500,-5.59,,,,,,,,,,,,
184884,1564133353877,0,2.17,1.02,0.4,1.51,1.13,0.77,0.69,0.62,-18,1,-21,1.04,9730,25,104,41,34,1025,526.0,608,467,60,123.0,151,1,305,207,76,0,0,525,-32248,10408,500,-5.59,,,,,,,,,,,,
184904,1564133353897,3,2.16,1.02,0.4,1.51,1.14,0.82,0.77,0.63,-18,2,-22,1.13,9679,25,104,41,34,1026,527.0,617,467,60,122.0,151,1,305,207,76,0,0,531,6274,6274,501,-5.59,,,,,,,,,,,,
184924,1564133353917,1,2.16,1.02,0.4,1.52,1.13,0.77,0.86,0.59,-19,2,-22,1.15,9684,24,104,41,34,1028,528.0,610,467,60,123.0,151,1,305,207,76,0,0,528,-28648,10408,501,-5.59,,,,,,,,,,,,
184944,1564133353937,3,2.16,1.02,0.4,1.52,1.13,0.9,0.88,0.72,-20,1,-22,1.26,9699,24,104,41,34,1026,528.0,611,465,60,122.0,151,1,305,207,76,0,0,528,-28648,10994,500,-5.59,44.68137,10.024977,50.61,176.3,0,0.0,-1,0.0,0.0,0,2.34,3.0824
184964,1564133353957,-0,2.16,1.02,0.4,1.51,1.13,0.77,0.9,0.68,-20,3,-22,1.19,9679,24,104,41,34,1023,525.0,620,465,60,123.0,151,1,305,207,76,0,0,534,-9072,-28648,501,-5.59,,,,,,,,,,,,
184984,1564133353977,3,2.16,1.02,0.4,1.52,1.12,0.9,0.78,0.77,-20,3,-24,1.19,9620,25,104,41,34,1019,527.0,634,464,60,122.0,151,1,305,206,76,0,0,527,2088,-32248,501,-5.59,,,,,,,,,,,,
185004,1564133353997,-1,2.17,1.02,0.4,1.51,1.14,0.74,0.89,0.56,-20,4,-23,1.16,9590,24,104,42,34,1015,525.0,617,465,60,123.0,151,1,305,206,76,0,0,529,2088,2524,502,-5.59,,,,,,,,,,,,
185024,1564133354010,2,2.16,1.03,0.4,1.51,1.14,0.8,0.81,0.63,-20,5,-24,1.14,9585,24,104,42,34,1013,526.0,612,462,60,122.0,148,1,305,206,74,0,0,528,-32248,15661,502,-5.59,,,,,,,,,,,,
185044,1564133354030,4,2.16,1.02,0.4,1.52,1.13,0.89,0.93,0.62,-20,2,-24,1.28,9620,24,104,42,34,1011,526.0,606,467,60,123.0,148,1,305,206,74,0,0,525,10408,2109,498,-5.59,44.681381,10.024965,50.06,176.3,0,0.0,-1,0.0,0.0,0,2.35,3.0841
185064,1564133354050,1,2.16,1.02,0.4,1.52,1.13,0.76,0.91,0.59,-19,3,-24,1.19,9600,24,104,42,34,1011,523.0,599,468,60,123.0,148,1,305,206,74,0,0,520,-9212,-9216,495,-5.59,,,,,,,,,,,,
185084,1564133354070,1,2.16,1.02,0.39,1.51,1.13,0.87,0.8,0.71,-19,2,-26,1.19,9556,24,104,42,34,1012,521.0,600,461,60,122.0,148,1,305,206,74,0,0,524,-9212,2524,495,-5.59,,,,,,,,,,,,
185104,1564133354097,0,2.15,1.02,0.4,1.51,1.13,0.77,0.92,0.57,-18,3,-26,1.2,9541,25,104,42,34,1013,522.0,593,466,60,123.0,148,1,305,206,74,0,0,520,2524,2524,494,-5.59,,,,,,,,,,,,
185124,1564133354117,1,2.16,1.02,0.4,1.52,1.13,0.75,0.84,0.56,-19,2,-26,1.13,9527,24,104,42,34,1016,520.0,613,464,60,122.0,149,1,305,206,74,0,0,525,-9212,-9216,493,-5.59,,,,,,,,,,,,
185144,1564133354137,2,2.15,1.02,0.4,1.51,1.13,0.88,0.82,0.66,-20,1,-26,1.2,9546,24,104,42,34,1020,520.0,603,465,60,123.0,149,1,305,206,74,0,0,520,1248,10408,491,-5.59,44.681385,10.024953,49.71,176.3,0,0.0,-1,0.0,0.0,0,2.35,3.0857
185164,1564133354157,0,2.16,1.02,0.4,1.51,1.13,0.8,0.94,0.49,-20,-1,-25,1.23,9537,24,104,42,34,1024,519.0,611,461,60,122.0,149,1,305,206,74,0,0,518,-8187,6274,492,-5.59,,,,,,,,,,,,
185184,1564133354177,1,2.16,1.03,0.4,1.52,1.13,0.68,0.78,0.56,-20,0,-25,1.04,9488,24,104,42,34,1027,520.0,636,470,60,122.0,149,1,305,206,74,0,0,518,1248,-32248,493,-5.59,,,,,,,,,,,,
185204,1564133354197,3,2.15,1.03,0.4,1.52,1.13,0.81,0.79,0.61,-20,-0,-26,1.13,9474,24,104,42,34,1029,521.0,620,465,60,122.0,149,1,305,204,74,0,0,524,-9212,6274,493,-5.59,,,,,,,,,,,,
185224,1564133354217,-1,2.16,1.02,0.4,1.51,1.13,0.74,0.91,0.47,-20,-1,-26,1.17,9484,20,104,42,34,1030,520.0,608,467,60,123.0,149,1,305,204,74,0,0,522,1248,10994,496,-5.59,,,,,,,,,,,,
185244,1564133354237,2,2.15,1.02,0.4,1.52,1.13,0.78,0.72,0.56,-21,2,-25,1.06,9493,24,104,42,34,1032,522.0,603,478,60,123.0,149,1,305,204,74,0,0,522,2524,2524,495,-5.59,44.681396,10.02494,50.19,176.4,0,0.0,-1,0.0,0.0,0,2.35,3.0874
185264,1564133354257,2,2.16,1.02,0.4,1.51,1.13,0.9,0.74,0.59,-21,2,-26,1.17,9541,24,104,42,34,1033,522.0,591,461,60,122.0,149,1,305,206,74,0,0,522,2524,3,495,-5.59,,,,,,,,,,,,
185284,1564133354277,1,2.16,1.02,0.4,1.51,1.13,0.73,0.87,0.43,-21,0,-24,1.13,9551,24,104,42,34,1033,518.0,593,473,60,123.0,149,1,305,206,74,0,0,521,1341,11560,495,-5.59,,,,,,,,,,,,
185304,1564133354297,1,2.16,1.02,0.4,1.52,1.12,0.8,0.69,0.55,-21,2,-25,1.06,9561,24,104,42,34,1032,517.0,607,469,60,122.0,149,1,305,206,74,0,0,523,15679,998,495,-5.59,,,,,,,,,,,,
185324,1564133354317,3,2.16,1.02,0.4,1.52,1.13,0.92,0.69,0.52,-22,1,-26,1.16,9522,24,104,42,34,1030,518.0,596,466,60,123.0,149,1,305,206,74,0,0,519,1341,-22519,492,-5.59,,,,,,,,,,,,
185344,1564133354337,1,2.16,1.02,0.4,1.52,1.13,0.76,0.76,0.39,-21,4,-24,1.07,9517,24,104,42,34,1028,516.0,599,473,60,122.0,149,1,305,206,74,0,0,515,16383,-22519,491,-5.59,44.6814,10.024926,49.69,176.4,0,0.0,-1,0.0,0.0,0,2.35,3.0891
185364,1564133354357,3,2.15,1.03,0.4,1.52,1.14,0.88,0.66,0.46,-21,2,-25,1.1,9537,24,104,42,34,1026,516.0,614,462,60,121.0,149,1,305,206,74,0,0,516,16383,-6528,491,-5.59,,,,,,,,,,,,
185384,1564133354377,2,2.17,1.02,0.4,1.51,1.13,0.94,0.77,0.43,-21,-0,-25,1.21,9537,24,104,42,34,1024,517.0,613,471,60,123.0,149,1,305,206,74,0,0,515,-14,998,491,-5.59,,,,,,,,,,,,
185404,1564133354397,-0,2.17,1.03,0.4,1.51,1.14,0.85,0.78,0.43,-21,-0,-24,1.15,9512,24,104,42,34,1020,516.0,622,466,60,123.0,149,1,305,206,74,0,0,513,16383,-6528,491,-5.59,,,,,,,,,,,,
185424,1564133354417,3,2.16,1.03,0.4,1.51,1.13,0.91,0.59,0.58,-21,0,-25,1.08,9464,24,104,42,34,1017,518.0,626,467,60,122.0,151,1,305,204,74,0,0,521,1341,2524,490,-5.59,,,,,,,,,,,,
185444,1564133354437,4,2.16,1.03,0.4,1.51,1.13,0.93,0.73,0.49,-21,0,-26,1.18,9436,24,104,42,34,1014,516.0,615,466,60,122.0,151,1,305,203,74,0,0,517,16383,998,490,-5.59,44.681412,10.024911,49.43,176.4,0,0.0,-1,0.0,0.0,0,2.35,3.0907
185464,1564133354457,2,2.16,1.02,0.4,1.52,1.13,0.81,0.83,0.35,-20,1,-25,1.16,9417,24,104,42,34,1013,515.0,596,468,60,123.0,151,1,305,203,74,0,0,518,-14,-6528,489,-5.59,,,,,,,,,,,,
185484,1564133354477,2,2.16,1.02,0.4,1.51,1.13,0.87,0.6,0.47,-21,1,-25,1.06,9455,24,104,42,34,1014,516.0,592,473,60,123.0,151,1,305,204,74,0,0,519,16383,-9216,489,-5.59,,,,,,,,,,,,
185504,1564133354497,4,2.17,1.03,0.4,1.52,1.13,0.97,0.59,0.56,-21,1,-26,1.13,9431,24,104,42,34,1015,515.0,601,465,60,122.0,151,1,305,203,74,0,0,513,-3482,248,489,-5.59,,,,,,,,,,,,
185524,1564133354517,2,2.17,1.02,0.4,1.51,1.14,0.9,0.73,0.41,-21,-2,-25,1.16,9389,24,104,42,34,1019,515.0,591,467,60,123.0,145,1,305,202,71,0,0,513,-3482,-22519,488,-5.59,,,,,,,,,,,,
185544,1564133354537,3,2.17,1.03,0.4,1.52,1.13,0.74,0.72,0.43,-20,0,-25,1.03,9389,24,104,42,34,1022,515.0,595,463,60,123.0,145,1,305,202,71,0,0,515,-3482,-6656,489,-5.59,44.681419,10.024896,49.46,176.4,0,0.0,-1,0.0,0.0,0,2.35,3.0924
185564,1564133354557,5,2.17,1.02,0.4,1.51,1.14,0.79,0.52,0.57,-20,1,-26,0.94,9351,24,104,42,34,1026,513.0,616,466,60,122.0,145,1,305,202,71,0,0,516,-4054,248,486,-5.59,,,,,,,,,,,,
185584,1564133354577,6,2.17,1.03,0.4,1.51,1.14,0.91,0.55,0.57,-20,0,-27,1.07,9351,24,104,42,34,1029,510.0,617,468,60,122.0,145,1,305,202,71,0,0,516,-3856,-6656,486,-5.59,,,,,,,,,,,,
185604,1564133354596,4,2.16,1.03,0.4,1.52,1.13,0.88,0.7,0.43,-20,-1,-26,1.12,9342,23,104,42,34,1029,510.0,611,474,60,123.0,145,1,305,202,71,0,0,514,-4054,1,485,-5.59,,,,,,,,,,,,
185624,1564133354616,3,2.17,1.03,0.4,1.51,1.13,0.73,0.71,0.38,-19,2,-25,1.02,9328,23,104,42,34,1028,510.0,611,468,60,122.0,146,1,305,201,71,0,0,507,-4054,-10483,486,-5.59,,,,,,,,,,,,
185644,1564133354636,6,2.17,1.03,0.4,1.51,1.14,0.78,0.54,0.5,-19,3,-26,0.95,9342,23,104,42,34,1024,510.0,605,470,60,123.0,146,1,305,202,71,0,0,511,-4054,-6656,485,-5.59,44.681423,10.02488,49.37,176.5,0,0.0,-1,0.0,0.0,0,2.35,3.0941
185664,1564133354656,7,2.17,1.02,0.4,1.52,1.14,0.9,0.48,0.59,-20,3,-27,1.02,9309,23,104,42,34,1020,508.0,600,471,60,122.0,146,1,305,201,71,0,0,513,-3414,-10483,482,-5.59,,,,,,,,,,,,
185684,1564133354676,8,2.16,1.03,0.4,1.52,1.14,0.98,0.63,0.5,-20,1,-27,1.17,9291,23,104,42,34,1016,506.0,596,465,60,122.0,146,1,305,201,71,0,0,507,-28648,-1562,480,-5.59,,,,,,,,,,,,
185704,1564133354696,6,2.18,1.02,0.4,1.51,1.14,0.86,0.77,0.32,-19,-1,-24,1.15,9282,23,104,42,34,1013,505.0,577,474,60,123.0,146,1,305,201,71,0,0,508,6274,2212,478,-5.59,,,,,,,,,,,,
185724,1564133354716,4,2.16,1.02,0.4,1.51,1.13,0.69,0.8,0.32,-19,-0,-23,1.06,9272,23,104,42,34,1011,504.0,585,468,60,122.0,147,1,305,201,70,0,0,506,-32248,-899,476,-5.59,,,,,,,,,,,,
185744,1564133354736,6,2.17,1.02,0.4,1.51,1.14,0.6,0.61,0.42,-18,2,-24,0.86,9231,23,104,42,34,1009,502.0,586,467,60,122.0,147,1,305,200,70,0,0,500,2109,-17956,478,-5.59,44.681427,10.024864,49.18,176.5,0,0.0,-1,0.0,0.0,0,2.36,3.0957
185764,1564133354756,6,2.16,1.02,0.4,1.52,1.13,0.7,0.4,0.56,-19,3,-25,0.81,9146,23,104,42,34,1009,501.0,587,468,60,122.0,147,1,305,198,70,0,0,505,15661,32033,474,-5.59,,,,,,,,,,,,
185784,1564133354776,6,2.18,1.03,0.4,1.52,1.13,0.84,0.25,0.66,-19,3,-27,0.87,9106,23,104,42,34,1011,501.0,582,464,60,121.0,147,1,305,198,70,0,0,504,15661,3580,475,-5.59,,,,,,,,,,,,
185804,1564133354798,7,2.18,1.02,0.4,1.52,1.14,0.95,0.26,0.67,-20,1,-29,0.99,9049,23,104,42,34,1013,497.0,605,461,60,122.0,147,1,305,197,70,0,0,502,-9216,2212,474,-5.59,,,,,,,,,,,,
185824,1564133354818,7,2.18,1.03,0.41,1.52,1.13,1.06,0.28,0.73,-20,-2,-29,1.1,9023,22,104,42,34,1015,498.0,593,463,60,122.0,143,1,305,197,68,0,0,503,2524,-9203,473,-5.59,,,,,,,,,,,,
185844,1564133354838,8,2.18,1.03,0.41,1.51,1.14,1.16,0.39,0.69,-20,-2,-30,1.22,8997,22,104,42,34,1016,496.0,599,469,60,122.0,143,1,305,117,68,0,0,498,3,3576,470,-5.59,44.681431,10.024848,48.31,176.5,0,0.0,-1,0.0,0.0,0,2.36,3.0974
185864,1564133354858,8,2.18,1.02,0.4,1.52,1.13,1.24,0.47,0.69,-21,-4,-30,1.33,8967,22,103,42,34,1017,495.0,589,465,60,122.0,143,1,305,196,68,0,0,493,771,243,469,-5.59,,,,,,,,,,,,
185884,1564133354878,6,2.18,1.03,0.4,1.51,1.14,1.32,0.53,0.69,-21,-5,-29,1.43,8920,22,104,42,35,1028,492.0,586,463,60,122.0,143,1,308,197,68,0,0,496,998,10432,469,-5.59,,,,,,,,,,,,
185904,1564133354896,9,2.18,1.03,0.4,1.51,1.14,1.39,0.51,0.73,-21,-6,-30,1.48,8882,22,103,42,34,1042,492.0,576,466,60,121.0,143,1,305,196,68,0,0,493,-32768,-16384,465,-5.59,,,,,,,,,,,,
185924,1564133354916,8,2.18,1.03,0.4,1.52,1.13,1.46,0.44,0.78,-21,-6,-31,1.52,8852,22,103,42,34,1055,487.0,573,466,60,123.0,141,1,305,196,66,0,0,491,505,8488,464,-5.59,,,,,,,,,,,,
185944,1564133354936,8,2.18,1.03,0.4,1.52,1.13,1.51,0.21,0.74,-21,-5,-30,1.53,8827,22,103,42,35,1068,486.0,574,467,60,122.0,141,1,308,199,66,0,0,494,-1562,-16384,461,-5.59,44.681438,10.024832,48.13,176.6,0,0.0,-1,0.0,0.0,0,2.36,3.0991
185964,1564133354956,5,2.19,1.03,0.4,1.52,1.13,1.5,0.06,0.76,-20,-4,-30,1.5,8865,22,103,42,35,1089,484.0,573,467,60,122.0,141,1,308,199,66,0,0,483,-10483,12552,463,-5.59,,,,,,,,,,,,
185984,1564133354976,6,2.19,1.03,0.4,1.52,1.13,1.32,-0.01,0.72,-19,-3,-30,1.32,8823,22,103,42,35,1115,484.0,575,466,60,123.0,141,1,308,199,66,0,0,483,-10483,6193,462,-5.59,,,,,,,,,,,,
186004,1564133354996,9,2.2,1.03,0.4,1.52,1.13,1.09,0.04,0.65,-19,-1,-29,1.09,8782,22,104,42,35,1134,482.0,569,470,60,123.0,141,1,308,200,66,0,0,485,-899,-23623,460,-5.59,,,,,,,,,,,,
186024,1564133355008,8,2.2,1.03,0.41,1.51,1.14,0.95,0.24,0.59,-18,-2,-27,0.98,8757,22,103,42,35,1147,480.0,573,466,60,122.0,143,1,308,199,66,0,0,482,16648,14488,458,-5.59,,,,,,,,,,,,
186044,1564133355028,9,2.21,1.03,0.41,1.52,1.14,1.03,0.4,0.62,-18,-3,-26,1.11,8765,22,103,42,35,1160,475.0,571,467,60,122.0,143,1,308,199,66,0,0,480,-9203,16408,457,-5.59,44.681442,10.024816,47.2,176.6,0,0.0,-1,0.0,0.0,0,2.36,3.1007
186064,1564133355048,8,2.2,1.03,0.41,1.53,1.13,1.13,0.35,0.68,-18,-5,-26,1.18,8741,22,103,42,35,1174,473.0,575,470,60,123.0,143,1,308,199,66,0,0,478,3576,2524,457,-5.59,,,,,,,,,,,,
186084,1564133355068,6,2.21,1.03,0.4,1.52,1.14,1.21,0.23,0.63,-17,-3,-26,1.24,8757,21,103,42,35,1183,473.0,572,472,60,123.0,143,1,308,199,66,0,0,473,3576,-9160,452,-5.59,,,,,,,,,,,,
186104,1564133355088,5,2.21,1.03,0.41,1.53,1.13,1.16,0.12,0.59,-17,-0,-25,1.17,8765,21,103,42,35,1185,470.0,568,468,60,123.0,143,1,308,203,66,0,0,469,8488,-26615,453,-5.59,,,,,,,,,,,,
186124,1564133355110,7,2.21,1.04,0.4,1.52,1.14,1.0,0.13,0.51,-16,1,-24,1.01,8782,21,103,42,35,1184,469.0,565,467,60,123.0,145,1,308,203,66,0,0,469,10432,-3267,452,-5.59,,,,,,,,,,,,
186144,1564133355130,8,2.21,1.03,0.4,1.52,1.14,0.78,0.27,0.37,-15,2,-23,0.82,8782,21,103,42,35,1180,466.0,563,468,60,122.0,145,1,308,199,66,0,0,470,-16384,-8985,449,-5.59,44.681442,10.024799,46.51,176.6,0,0.0,-1,0.0,0.0,0,2.36,3.1024
186164,1564133355150,9,2.21,1.03,0.41,1.52,1.14,0.8,0.4,0.45,-15,1,-21,0.89,8741,21,103,42,35,1176,465.0,555,466,60,123.0,145,1,308,199,66,0,0,469,30272,-6387,449,-5.59,,,,,,,,,,,,
186184,1564133355170,9,2.21,1.04,0.41,1.52,1.14,0.88,0.46,0.51,-15,0,-22,1.0,8660,21,103,42,35,1170,465.0,564,468,60,122.0,145,1,308,199,66,0,0,465,6193,16408,449,-5.59,,,,,,,,,,,,
186204,1564133355196,7,2.21,1.03,0.4,1.53,1.14,0.98,0.3,0.54,-15,1,-21,1.03,8573,21,103,42,35,1156,464.0,563,466,60,122.0,145,1,308,199,66,0,0,468,16408,-23623,448,-5.59,,,,,,,,,,,,
186224,1564133355216,9,2.21,1.03,0.41,1.52,1.14,0.87,0.3,0.44,-14,1,-21,0.92,8542,21,103,42,36,1130,461.0,551,470,60,123.0,147,1,311,203,66,0,0,466,2211,2524,449,-5.59,,,,,,,,,,,,
186244,1564133355236,7,2.22,1.03,0.41,1.53,1.13,0.91,0.44,0.46,-13,-1,-20,1.01,8499,21,103,42,36,1104,463.0,551,467,60,123.0,147,1,310,202,66,0,0,463,2211,2524,447,-5.59,44.681442,10.024782,46.44,176.7,0,0.0,-1,0.0,0.0,0,2.36,3.1041
186264,1564133355256,8,2.22,1.03,0.4,1.52,1.13,0.97,0.4,0.49,-13,-1,-21,1.05,8442,21,103,42,36,1082,458.0,553,467,60,122.0,147,1,309,201,66,0,0,463,17628,-3267,447,-5.59,,,,,,,,,,,,
186284,1564133355276,10,2.21,1.03,0.4,1.53,1.13,0.85,0.42,0.41,-13,-0,-20,0.95,8419,20,103,42,36,1058,458.0,553,468,60,123.0,147,1,309,201,66,0,0,461,-9160,21432,443,-5.59,,,,,,,,,,,,
186304,1564133355298,9,2.22,1.03,0.4,1.52,1.14,0.97,0.45,0.42,-14,-2,-18,1.07,8393,20,103,42,36,1028,455.0,548,466,60,122.0,147,1,308,200,66,0,0,459,-26615,3571,441,-5.59,,,,,,,,,,,,
186324,1564133355318,7,2.23,1.03,0.4,1.52,1.14,0.86,0.36,0.43,-13,-1,-19,0.94,8400,20,103,42,36,1001,453.0,552,470,60,123.0,145,1,309,201,64,0,0,461,2524,10305,440,-5.59,,,,,,,,,,,,
186344,1564133355338,9,2.23,1.03,0.4,1.52,1.14,0.88,0.43,0.4,-13,-3,-18,0.98,8378,20,103,42,37,994,454.0,548,466,60,123.0,145,1,311,204,64,0,0,452,2524,21432,437,-5.59,44.681442,10.024767,45.47,176.8,0,0.0,-1,0.0,0.0,0,2.36,3.1057
186364,1564133355358,7,2.23,1.04,0.4,1.53,1.13,0.92,0.35,0.38,-13,-2,-18,0.98,8344,20,103,42,37,983,451.0,541,469,60,122.0,145,1,311,204,64,0,0,451,-3267,-18341,437,-5.59,,,,,,,,,,,,
186384,1564133355378,10,2.23,1.04,0.4,1.53,1.14,0.83,0.39,0.35,-12,-1,-17,0.92,8337,20,103,42,36,965,448.0,532,467,60,123.0,145,1,307,204,64,0,0,451,8488,-7939,438,-5.59,,,,,,,,,,,,
186404,1564133355396,8,2.23,1.03,0.4,1.52,1.14,0.94,0.36,0.41,-13,-2,-16,1.01,8318,20,103,42,37,946,445.0,542,466,60,122.0,145,1,310,203,64,0,0,451,10305,-7939,435,-5.59,,,,,,,,,,,,
186424,1564133355416,12,2.23,1.03,0.4,1.53,1.14,0.82,0.35,0.36,-12,-3,-16,0.89,8318,20,103,42,36,936,444.0,529,467,60,123.0,147,1,307,203,64,0,0,445,21432,20625,434,-5.59,,,,,,,,,,,,
186444,1564133355436,8,2.23,1.03,0.41,1.52,1.14,0.91,0.29,0.43,-13,-2,-15,0.95,8256,20,103,42,37,926,443.0,540,466,60,123.0,147,1,309,202,64,0,0,443,-18341,19477,434,-5.59,44.681446,10.024751,44.75,176.8,0,0.0,-1,0.0,0.0,0,2.37,3.1074
186464,1564133355456,9,2.24,1.03,0.41,1.53,1.14,0.82,0.32,0.4,-12,-2,-16,0.88,8166,20,103,42,37,911,443.0,533,467,60,123.0,147,1,307,200,64,0,0,446,-18341,-28332,433,-5.59,,,,,,,,,,,,
186484,1564133355476,10,2.23,1.03,0.4,1.53,1.14,0.9,0.26,0.4,-11,0,-15,0.94,8138,20,103,42,37,896,443.0,537,468,60,121.0,147,1,305,200,64,0,0,441,-18341,-768,432,-5.59,,,,,,,,,,,,
186504,1564133355497,10,2.23,1.03,0.41,1.53,1.13,0.9,0.33,0.38,-10,-0,-14,0.95,8127,20,103,42,37,892,437.0,529,465,60,123.0,147,1,306,204,64,0,0,439,-7939,-3322,427,-5.59,,,,,,,,,,,,
186524,1564133355517,10,2.23,1.03,0.41,1.52,1.14,0.89,0.32,0.37,-10,0,-15,0.95,8092,20,103,42,37,888,436.0,526,465,60,123.0,142,1,305,199,61,0,0,439,5600,3826,425,-5.59,,,,,,,,,,,,
186544,1564133355537,11,2.22,1.03,0.4,1.52,1.14,1.0,0.32,0.39,-11,0,-14,1.05,8106,20,103,42,38,884,436.0,535,466,60,122.0,142,1,309,204,61,0,0,438,5600,-4082,422,-5.59,44.681446,10.024734,43.69,176.8,0,0.0,-1,0.0,0.0,0,2.37,3.1091
186564,1564133355557,14,2.2,1.03,0.4,1.52,1.14,0.87,0.3,0.33,-11,2,-14,0.92,8102,20,103,42,38,880,434.0,520,467,60,123.0,142,1,309,126,61,0,0,435,1779,13552,420,-5.59,,,,,,,,,,,,
186584,1564133355577,11,2.2,1.02,0.4,1.53,1.13,0.98,0.26,0.42,-12,1,-15,1.02,7975,19,103,42,38,880,433.0,519,466,60,123.0,142,1,307,204,61,0,0,436,243,-8165,417,-5.59,,,,,,,,,,,,
186604,1564133355598,12,2.2,1.04,0.41,1.52,1.14,1.08,0.3,0.43,-13,0,-14,1.12,7924,20,103,42,39,880,430.0,523,467,60,122.0,142,1,310,131,61,0,0,431,-3314,7154,412,-5.59,,,,,,,,,,,,
186624,1564133355618,13,2.2,1.03,0.4,1.52,1.13,0.97,0.35,0.35,-13,0,-14,1.03,7938,19,103,42,38,877,428.0,504,465,60,123.0,152,1,307,204,63,0,0,428,13180,13040,411,-5.59,,,,,,,,,,,,
186644,1564133355638,10,2.19,1.03,0.41,1.53,1.13,0.97,0.36,0.3,-12,1,-15,1.04,7864,19,103,42,39,873,427.0,504,467,60,123.0,152,1,310,210,63,0,0,428,31796,-4059,407,-5.59,44.681446,10.024719,42.71,176.8,0,0.0,-1,0.0,0.0,0,2.37,3.1107
186664,1564133355658,12,2.18,1.04,0.41,1.52,1.13,1.08,0.38,0.31,-13,1,-14,1.14,7822,19,103,42,40,869,424.0,514,466,60,121.0,152,1,317,211,63,0,0,426,-4082,-26615,407,-5.59,,,,,,,,,,,,
186684,1564133355678,13,2.18,1.03,0.41,1.53,1.13,1.05,0.39,0.39,-13,0,-15,1.12,7809,19,103,42,40,865,424.0,507,467,60,123.0,152,1,317,211,63,0,0,428,-4082,10392,401,-5.59,,,,,,,,,,,,
186704,1564133355697,13,2.17,1.04,0.4,1.53,1.13,0.98,0.44,0.32,-13,-2,-17,1.07,7728,19,103,42,40,861,416.0,508,464,60,122.0,152,1,317,132,63,0,0,419,18584,11560,394,-5.59,,,,,,,,,,,,
186724,1564133355717,14,2.15,1.04,0.41,1.52,1.14,0.89,0.43,0.25,-13,-1,-17,0.99,7716,19,103,42,40,856,416.0,508,467,60,123.0,156,1,317,132,62,0,0,421,-21944,-8151,396,-5.59,,,,,,,,,,,,
186744,1564133355737,13,2.16,1.03,0.4,1.52,1.14,0.81,0.48,0.15,-14,0,-16,0.94,7646,19,103,42,41,854,418.0,502,466,60,123.0,156,1,325,213,62,0,0,420,-3414,-9211,396,-5.59,44.681446,10.024705,41.76,176.8,0,0.0,-1,0.0,0.0,0,2.37,3.1124
186764,1564133355757,15,2.15,1.04,0.4,1.53,1.13,0.82,0.5,0.11,-14,1,-17,0.96,7637,19,103,42,41,854,417.0,508,466,60,123.0,156,1,325,213,62,0,0,418,-21944,-8151,392,-5.59,,,,,,,,,,,,
186784,1564133355777,11,2.15,1.03,0.41,1.52,1.13,0.9,0.46,0.18,-14,2,-18,1.01,7603,19,103,42,41,852,415.0,495,466,60,123.0,156,1,325,213,62,0,0,417,-26615,6512,387,-5.59,,,,,,,,,,,,
186804,1564133355797,11,2.15,1.03,0.4,1.52,1.14,0.99,0.52,0.22,-14,2,-17,1.12,7563,19,103,42,41,849,412.0,509,468,60,122.0,156,1,325,213,62,0,0,414,13040,-1818,387,-5.59,,,,,,,,,,,,
186824,1564133355817,13,2.13,1.04,0.4,1.52,1.13,1.05,0.5,0.39,-15,1,-18,1.17,7533,19,103,42,41,846,409.0,494,468,60,123.0,157,1,325,213,61,0,0,412,-4059,-1562,385,-5.59,,,,,,,,,,,,
186844,1564133355837,12,2.12,1.03,0.4,1.53,1.13,1.1,0.52,0.48,-16,1,-19,1.21,7506,19,103,42,42,843,408.0,502,467,60,122.0,157,1,332,215,61,0,0,406,10392,-3968,380,-5.59,44.681446,10.02469,40.82,176.8,0,0.0,-1,0.0,0.0,0,2.37,3.1141
186864,1564133355857,13,2.11,1.03,0.41,1.52,1.13,1.19,0.45,0.58,-17,1,-20,1.27,7434,19,103,42,42,841,408.0,491,468,60,122.0,157,1,332,214,61,0,0,411,10392,-31744,379,-5.59,,,,,,,,,,,,
186884,1564133355877,13,2.1,1.03,0.4,1.52,1.13,1.23,0.48,0.63,-18,2,-20,1.32,7425,19,103,42,42,840,405.0,488,465,60,122.0,157,1,332,214,61,0,0,411,-9211,240,373,-5.59,,,,,,,,,,,,
186904,1564133355897,16,2.09,1.03,0.41,1.52,1.14,1.19,0.44,0.69,-18,2,-21,1.26,7370,19,103,42,42,840,403.0,472,466,60,124.0,157,1,332,214,61,0,0,406,-8151,-19019,371,-5.59,,,,,,,,,,,,
186924,1564133355917,15,2.08,1.03,0.4,1.52,1.14,1.21,0.49,0.66,-19,2,-22,1.3,7367,19,103,42,43,842,402.0,486,467,60,123.0,161,1,340,216,60,0,0,405,10541,8200,370,-5.59,,,,,,,,,,,,
186944,1564133355937,15,2.08,1.03,0.4,1.52,1.14,1.17,0.59,0.58,-19,3,-23,1.31,7281,19,103,42,43,850,400.0,472,465,60,123.0,161,1,340,216,60,0,0,403,6512,770,365,-5.59,44.681446,10.024675,39.89,176.9,0,0.0,-1,0.0,0.0,0,2.37,3.1157
186964,1564133355957,13,2.07,1.03,0.41,1.52,1.14,1.04,0.66,0.42,-19,3,-24,1.23,7244,19,103,42,43,862,398.0,482,462,60,123.0,161,1,340,216,60,0,0,400,-3968,3,364,-5.59,,,,,,,,,,,,
186984,1564133355977,14,2.07,1.03,0.4,1.53,1.13,1.06,0.72,0.36,-20,2,-24,1.28,7175,19,103,42,44,874,398.0,476,466,60,122.0,161,1,347,218,60,0,0,398,-3968,-6656,360,-5.59,,,,,,,,,,,,
187004,1564133355997,14,2.05,1.03,0.4,1.52,1.13,1.12,0.65,0.48,-21,1,-26,1.29,7137,19,103,42,44,885,394.0,473,466,60,122.0,161,1,347,218,60,0,0,396,-1818,-6656,352,-5.59,,,,,,,,,,,,
187024,1564133356007,17,2.05,1.03,0.4,1.52,1.13,1.18,0.6,0.5,-22,1,-28,1.32,7107,19,103,42,44,899,391.0,470,463,60,123.0,164,1,347,218,58,0,0,396,505,-6656,353,-5.59,,,,,,,,,,,,
187044,1564133356027,15,2.04,1.03,0.4,1.51,1.13,1.16,0.72,0.38,-22,0,-28,1.36,7043,19,103,42,45,917,392.0,465,465,60,123.0,164,1,355,220,58,0,0,391,505,0,349,-5.59,44.681446,10.024662,38.78,176.9,0,0.0,-1,0.0,0.0,0,2.37,3.1174
187064,1564133356047,14,2.03,1.03,0.4,1.51,1.13,1.16,0.81,0.31,-23,-1,-28,1.41,7030,19,103,42,45,933,389.0,476,465,60,121.0,164,1,355,220,58,0,0,391,-6524,2790,348,-5.59,,,,,,,,,,,,
187084,1564133356067,16,2.02,1.03,0.4,1.52,1.13,1.18,0.75,0.37,-24,-0,-29,1.4,7011,19,103,42,45,940,386.0,453,462,60,123.0,164,1,355,220,58,0,0,388,-31744,-6458,345,-5.59,,,,,,,,,,,,
187104,1564133356097,14,2.02,1.03,0.4,1.52,1.13,1.14,0.85,0.26,-24,-1,-29,1.42,6959,19,103,42,46,948,385.0,460,465,60,123.0,164,1,361,221,58,0,0,388,-6475,4104,342,-5.59,,,,,,,,,,,,
187124,1564133356117,13,2.02,1.03,0.4,1.51,1.14,1.11,0.9,0.22,-25,-1,-31,1.43,6949,19,103,42,46,959,382.0,465,466,60,121.0,172,1,361,221,58,0,0,386,-19126,2060,336,-5.59,,,,,,,,,,,,
187144,1564133356137,14,2.01,1.03,0.4,1.52,1.13,1.12,0.84,0.26,-26,-2,-31,1.41,6913,19,103,42,46,967,379.0,452,465,60,124.0,172,1,361,221,58,0,0,378,8200,28553,339,-5.59,44.681442,10.024648,37.58,176.9,0,0.0,-1,0.0,0.0,0,2.37,3.1191
187164,1564133356157,14,2.01,1.03,0.4,1.52,1.13,1.08,0.95,0.17,-26,-2,-33,1.43,6845,18,103,42,46,971,378.0,457,467,60,123.0,172,1,360,223,58,0,0,379,2278,-14707,334,-5.59,,,,,,,,,,,,
187184,1564133356177,15,2.0,1.03,0.4,1.52,1.13,1.15,0.88,0.16,-27,-3,-32,1.45,6771,19,103,42,47,975,375.0,442,466,60,122.0,172,1,367,222,58,0,0,378,770,0,330,-5.59,,,,,,,,,,,,
187204,1564133356197,14,1.99,1.03,0.4,1.52,1.13,1.09,0.93,0.14,-27,-2,-33,1.43,6805,19,103,42,47,982,374.0,443,465,60,123.0,172,1,368,223,58,0,0,375,742,3302,329,-5.59,,,,,,,,,,,,
187224,1564133356217,14,2.0,1.03,0.4,1.51,1.14,1.13,0.91,0.23,-27,-1,-34,1.45,6793,18,103,42,48,987,373.0,453,468,60,122.0,173,1,370,222,57,0,0,372,-6656,6668,328,-5.59,,,,,,,,,,,,
187244,1564133356237,13,1.99,1.03,0.4,1.52,1.13,1.08,0.94,0.22,-28,0,-35,1.43,6720,18,103,42,47,991,372.0,443,463,60,123.0,173,1,367,227,57,0,0,370,1,-14714,327,-5.59,44.681442,10.024636,35.87,176.9,0,0.0,-1,0.0,0.0,0,2.37,3.1207
187264,1564133356257,15,1.99,1.03,0.4,1.52,1.14,1.01,0.86,0.27,-29,-1,-37,1.32,6658,18,103,42,48,994,368.0,451,465,60,122.0,173,1,369,227,57,0,0,370,0,28553,323,-5.59,,,,,,,,,,,,
187284,1564133356277,12,1.99,1.03,0.4,1.52,1.14,1.04,0.9,0.19,-29,0,-38,1.38,6639,18,103,42,48,1000,365.0,443,466,60,123.0,173,1,369,231,57,0,0,367,230,-1246,321,-5.59,,,,,,,,,,,,
187304,1564133356297,15,1.97,1.03,0.4,1.52,1.13,1.1,0.81,0.25,-29,-2,-37,1.37,6611,18,103,42,49,1005,363.0,442,463,60,122.0,173,1,372,227,57,0,0,363,3082,175,318,-5.59,,,,,,,,,,,,
187324,1564133356317,14,1.97,1.02,0.4,1.51,1.14,1.03,0.89,0.26,-29,-2,-39,1.36,6535,18,103,42,49,1006,358.0,443,465,60,122.0,180,1,371,230,57,0,0,360,-29978,4838,319,-5.59,,,,,,,,,,,,
187344,1564133356337,12,1.97,1.03,0.4,1.51,1.14,1.11,0.9,0.17,-30,-1,-39,1.43,6481,18,103,42,49,1008,358.0,426,460,60,124.0,180,1,370,230,57,0,0,363,-29978,-14714,315,-5.59,44.681438,10.024626,34.3,176.9,0,0.0,-1,0.0,0.0,0,2.38,3.1224
187364,1564133356357,14,1.97,1.03,0.41,1.52,1.14,1.05,0.85,0.13,-30,1,-38,1.35,6441,18,103,42,50,1013,357.0,427,465,60,123.0,180,1,373,230,57,0,0,358,-6640,6870,310,-5.59,,,,,,,,,,,,
187384,1564133356377,15,1.97,1.03,0.41,1.52,1.14,1.05,0.89,0.22,-30,0,-39,1.38,6423,18,103,42,50,1018,356.0,431,466,60,122.0,180,1,373,237,57,0,0,355,4104,-12032,310,-5.59,,,,,,,,,,,,
187404,1564133356398,9,1.98,1.03,0.41,1.52,1.14,1.09,0.88,0.21,-31,-1,-39,1.41,6445,18,103,42,50,1022,354.0,431,467,60,122.0,180,1,373,237,57,0,0,353,3302,-25856,308,-5.59,,,,,,,,,,,,
187424,1564133356418,13,1.97,1.02,0.4,1.52,1.14,1.04,0.8,0.11,-32,-1,-39,1.31,6401,18,103,42,50,1026,352.0,420,463,60,124.0,184,1,373,237,57,0,0,353,3183,-23296,308,-5.59,,,,,,,,,,,,
187444,1564133356438,13,1.97,1.02,0.41,1.52,1.14,0.99,0.81,0.22,-31,0,-39,1.28,6349,18,103,42,51,1031,350.0,420,466,60,123.0,184,1,376,236,57,0,0,351,-30454,175,306,-5.59,44.681435,10.024615,33.15,177.0,0,0.0,-1,0.0,0.0,0,2.38,3.1241
187464,1564133356458,14,1.96,1.03,0.4,1.52,1.13,1.0,0.87,0.29,-31,2,-40,1.32,6313,18,103,42,51,1037,348.0,420,469,60,122.0,184,1,375,242,57,0,0,349,-1246,155,303,-5.59,,,,,,,,,,,,
187484,1564133356478,11,1.97,1.02,0.4,1.52,1.13,1.09,0.84,0.26,-32,2,-41,1.38,6364,18,103,42,51,1041,344.0,422,465,60,122.0,184,1,376,242,57,0,0,346,-10554,115,301,-5.59,,,,,,,,,,,,
187504,1564133356497,13,1.97,1.02,0.4,1.52,1.14,1.08,0.85,0.19,-32,0,-40,1.37,6432,17,103,42,51,1043,341.0,419,464,60,123.0,184,1,376,242,57,0,0,342,3327,95,298,-5.59,,,,,,,,,,,,
187524,1564133356517,13,1.98,1.03,0.4,1.52,1.13,1.02,0.76,0.28,-32,1,-41,1.27,6490,17,103,42,51,1045,339.0,429,465,60,123.0,197,1,376,242,59,0,0,336,-122,80,296,-5.59,,,,,,,,,,,,
187544,1564133356537,11,1.97,1.02,0.4,1.51,1.14,1.03,0.82,0.24,-32,1,-42,1.32,6599,17,103,42,51,1049,337.0,437,463,60,123.0,197,1,377,242,59,0,0,337,2560,41,295,-5.59,44.681427,10.024606,32.63,177.0,0,0.0,-1,0.0,0.0,0,2.38,3.1257
187564,1564133356557,14,1.97,1.03,0.4,1.52,1.14,1.1,0.79,0.21,-32,-1,-41,1.35,6648,17,103,42,50,1051,335.0,433,467,60,123.0,197,1,375,237,59,0,0,332,3346,-1534,291,-5.59,,,,,,,,,,,,
187584,1564133356577,12,1.98,1.03,0.4,1.52,1.13,1.0,0.79,0.22,-32,-1,-42,1.28,6737,17,103,42,50,1053,332.0,447,471,60,121.0,197,1,376,237,59,0,0,331,-32559,250,288,-5.59,,,,,,,,,,,,
187604,1564133356596,15,1.98,1.03,0.4,1.52,1.14,1.1,0.79,0.13,-32,-1,-42,1.36,6805,17,103,42,49,1052,329.0,442,463,60,123.0,197,1,373,232,59,0,0,328,-20736,-1527,286,-5.59,,,,,,,,,,,,
187624,1564133356616,12,1.97,1.02,0.4,1.52,1.14,1.08,0.82,0.12,-32,-1,-42,1.36,6895,17,103,42,49,1052,323.0,454,469,60,122.0,212,1,374,232,60,0,0,324,-24576,30208,280,-5.59,,,,,,,,,,,,
187644,1564133356636,17,1.96,1.03,0.4,1.51,1.13,1.12,0.8,0.18,-32,-0,-41,1.37,6952,17,103,42,49,1051,321.0,462,468,60,122.0,212,1,374,228,60,0,0,318,-25856,2414,277,-5.59,44.681423,10.024598,31.38,177.0,0,0.0,-1,0.0,0.0,0,2.38,3.1274
187664,1564133356656,14,1.97,1.03,0.4,1.52,1.13,1.09,0.84,0.08,-32,0,-41,1.37,7014,17,103,42,48,1049,315.0,457,462,60,124.0,212,1,372,229,60,0,0,317,-29696,28160,275,-5.59,,,,,,,,,,,,
187684,1564133356676,15,1.97,1.03,0.4,1.52,1.13,1.04,0.86,0.06,-31,-0,-41,1.35,7148,17,103,42,47,1047,313.0,473,465,60,122.0,212,1,370,224,60,0,0,312,-30976,-1,272,-5.59,,,,,,,,,,,,
187704,1564133356696,14,1.97,1.03,0.4,1.52,1.13,1.11,0.81,0.15,-32,-3,-42,1.37,7200,17,103,42,47,1046,309.0,481,470,60,123.0,212,1,370,224,60,0,0,307,30720,-1,267,-5.59,,,,,,,,,,,,
187724,1564133356716,18,1.96,1.02,0.4,1.52,1.13,1.15,0.75,0.21,-31,-3,-42,1.38,7256,17,103,42,46,1045,306.0,472,464,60,123.0,228,1,362,222,61,0,0,302,115,-41,266,-5.59,,,,,,,,,,,,
187744,1564133356736,18,1.97,1.02,0.4,1.52,1.13,1.08,0.77,0.2,-31,-1,-40,1.33,7364,17,103,42,45,1045,303.0,477,465,60,123.0,228,1,355,220,61,0,0,299,28160,506,264,-5.59,44.681419,10.02459,29.59,177.1,0,0.0,-1,0.0,0.0,0,2.38,3.1291
187764,1564133356756,17,1.97,1.03,0.4,1.52,1.13,1.03,0.8,0.09,-30,-1,-40,1.31,7413,17,103,42,45,1044,300.0,476,468,60,123.0,228,1,355,220,61,0,0,298,95,506,260,-5.59,,,,,,,,,,,,
187784,1564133356776,18,1.97,1.03,0.4,1.52,1.14,1.03,0.87,0.02,-30,-1,-39,1.35,7491,17,103,42,44,1042,295.0,488,466,60,123.0,228,1,347,216,61,0,0,293,23040,-1,256,-5.59,,,,,,,,,,,,
187804,1564133356796,18,1.96,1.03,0.4,1.51,1.13,0.97,0.89,-0.08,-29,2,-40,1.32,7530,17,103,42,43,1040,292.0,485,465,60,123.0,228,1,340,217,61,0,0,293,80,10818,254,-5.59,,,,,,,,,,,,
187824,1564133356816,18,1.96,1.03,0.4,1.52,1.13,0.95,0.86,-0.13,-28,3,-39,1.28,7625,17,103,42,43,1038,287.0,500,466,60,123.0,244,1,340,217,62,0,0,288,41,-214,250,-5.59,,,,,,,,,,,,
187844,1564133356836,20,1.96,1.02,0.4,1.52,1.13,0.99,0.8,-0.11,-28,3,-39,1.27,7646,17,103,42,42,1032,285.0,496,465,60,124.0,244,1,332,215,62,0,0,282,-1529,15360,247,-5.59,44.681416,10.024583,27.46,177.1,0,0.0,-1,0.0,0.0,0,2.38,3.1307
187864,1564133356856,15,1.97,1.03,0.4,1.51,1.14,1.09,0.76,-0.01,-28,1,-39,1.33,7719,17,103,42,42,1025,279.0,513,465,60,123.0,244,1,332,215,62,0,0,279,-1534,23482,243,-5.59,,,,,,,,,,,,
187884,1564133356876,15,1.96,1.02,0.4,1.52,1.13,1.18,0.75,0.09,-28,-0,-39,1.4,7773,17,103,42,42,1018,275.0,515,466,60,122.0,244,1,332,215,62,0,0,274,-1527,250,240,-5.59,,,,,,,,,,,,
187904,1564133356896,16,1.97,1.03,0.4,1.51,1.14,1.22,0.68,0.24,-29,-0,-39,1.4,7776,17,103,42,41,1013,271.0,528,465,60,123.0,244,1,325,213,62,0,0,272,-1281,-1483,237,-5.59,,,,,,,,,,,,
187924,1564133356916,16,1.96,1.03,0.4,1.52,1.14,1.08,0.72,0.18,-28,0,-40,1.3,7789,17,103,42,41,1007,268.0,514,468,60,123.0,265,1,325,213,63,0,0,267,-1,250,236,-5.59,,,,,,,,,,,,
187944,1564133356936,17,1.97,1.03,0.4,1.52,1.14,0.97,0.7,0.06,-27,2,-39,1.2,7747,17,103,42,40,1001,264.0,514,463,60,123.0,265,1,317,211,63,0,0,263,-1,250,232,-5.59,44.681408,10.024578,26.58,177.0,0,0.0,-1,0.0,0.0,0,2.38,3.1324
187964,1564133356956,14,1.96,1.03,0.4,1.52,1.13,0.97,0.69,-0.0,-26,4,-38,1.19,7793,16,103,42,40,995,262.0,520,465,60,123.0,265,1,317,211,63,0,0,261,-1,19968,227,-5.59,,,,,,,,,,,,
187984,1564133356976,14,1.97,1.02,0.41,1.52,1.14,1.07,0.64,0.1,-26,2,-38,1.25,7825,17,103,42,40,993,258.0,520,467,60,122.0,265,1,317,211,63,0,0,257,-10440,-1530,225,-5.59,,,,,,,,,,,,
188004,1564133356996,16,1.97,1.02,0.4,1.52,1.14,1.13,0.59,0.18,-27,-0,-38,1.27,7789,17,103,42,40,989,256.0,520,469,60,122.0,265,1,317,211,63,0,0,253,506,1596,223,-5.59,,,,,,,,,,,,
188024,1564133357008,17,1.96,1.03,0.4,1.52,1.13,1.04,0.55,0.16,-26,0,-38,1.18,7796,17,103,42,39,976,251.0,508,464,60,124.0,280,1,310,210,62,0,0,250,-214,1210,219,-5.59,,,,,,,,,,,,
188044,1564133357028,16,1.97,1.02,0.41,1.52,1.13,0.99,0.61,0.09,-26,2,-37,1.16,7809,17,103,42,39,963,246.0,503,465,60,123.0,280,1,310,210,62,0,0,246,10812,250,215,-5.59,44.6814,10.024573,24.62,177.0,0,0.0,-1,0.0,0.0,0,2.38,3.1341
188064,1564133357048,14,1.97,1.02,0.41,1.52,1.14,1.09,0.6,0.06,-25,0,-36,1.24,7838,16,103,42,39,951,243.0,515,471,60,123.0,280,1,310,210,62,0,0,241,-1445,966,214,-5.59,,,,,,,,,,,,
188084,1564133357068,14,1.98,1.03,0.4,1.52,1.14,1.18,0.55,0.1,-26,-0,-35,1.3,7757,16,103,42,39,937,241.0,516,467,60,122.0,280,1,310,210,62,0,0,236,13468,-14848,208,-5.59,,,,,,,,,,,,
188104,1564133357096,15,1.97,1.03,0.41,1.52,1.14,1.26,0.53,0.19,-26,-0,-35,1.37,7744,16,103,42,39,913,236.0,516,468,60,122.0,280,1,310,210,62,0,0,235,250,-1482,206,-5.59,,,,,,,,,,,,
188124,1564133357116,18,1.97,1.03,0.4,1.53,1.13,1.15,0.54,0.17,-25,-0,-35,1.27,7809,17,103,42,39,888,232.0,507,465,60,123.0,303,1,310,131,62,0,0,230,250,250,201,-5.59,,,,,,,,,,,,
188144,1564133357136,19,1.96,1.03,0.4,1.52,1.13,0.99,0.56,0.07,-24,1,-36,1.14,7789,17,103,42,39,875,226.0,512,467,60,123.0,303,1,310,210,62,0,0,227,10318,250,199,-5.59,44.6814,10.02457,22.87,177.0,0,0.0,-1,0.0,0.0,0,2.38,3.1357
188164,1564133357156,17,1.96,1.03,0.41,1.53,1.13,0.97,0.53,0.01,-23,3,-34,1.11,7809,16,103,42,39,861,222.0,515,467,60,124.0,303,1,310,210,62,0,0,221,1596,-1481,195,-5.59,,,,,,,,,,,,
188184,1564133357176,16,1.96,1.03,0.4,1.53,1.14,1.05,0.46,0.08,-23,2,-34,1.15,7815,17,103,42,39,848,219.0,520,468,60,122.0,303,1,310,210,62,0,0,217,-1532,-1,192,-5.59,,,,,,,,,,,,
188204,1564133357198,17,1.97,1.02,0.41,1.52,1.14,1.15,0.39,0.13,-24,-2,-34,1.21,7773,17,103,42,39,834,215.0,536,468,60,123.0,303,1,310,210,62,0,0,213,-1532,-1,189,-5.59,,,,,,,,,,,,
188224,1564133357218,18,1.97,1.04,0.4,1.52,1.13,1.12,0.39,0.17,-23,-2,-34,1.19,7841,17,103,42,39,833,212.0,522,464,60,124.0,328,1,310,210,62,0,0,208,966,-1,185,-5.59,,,,,,,,,,,,
188244,1564133357238,18,1.98,1.03,0.41,1.52,1.14,1.05,0.42,0.18,-23,-1,-33,1.13,7805,17,103,42,38,832,207.0,506,466,60,123.0,328,1,307,204,62,0,0,206,-1482,-236,180,-5.59,44.681393,10.024567,21.11,177.0,0,0.0,-1,0.0,0.0,0,2.38,3.1374
188264,1564133357258,15,1.97,1.03,0.41,1.52,1.13,1.08,0.42,0.13,-22,-2,-32,1.16,7832,17,103,42,39,830,203.0,510,463,60,123.0,328,1,310,210,62,0,0,200,-1482,-1495,177,-5.59,,,,,,,,,,,,
188284,1564133357278,17,1.98,1.03,0.4,1.53,1.13,1.18,0.4,0.11,-22,-2,-31,1.24,7793,17,103,42,39,829,200.0,511,468,60,122.0,328,1,310,210,62,0,0,198,250,-1281,176,-5.59,,,,,,,,,,,,
188304,1564133357298,17,1.97,1.03,0.4,1.53,1.14,1.24,0.38,0.17,-22,-1,-30,1.3,7751,17,103,42,39,828,194.0,506,468,60,122.0,328,1,310,210,62,0,0,193,14326,-1,170,-5.59,,,,,,,,,,,,
188324,1564133357318,18,1.98,1.03,0.4,1.52,1.14,1.19,0.39,0.23,-22,-1,-31,1.25,7796,17,103,42,39,827,191.0,503,467,60,122.0,364,1,310,210,62,0,0,189,-1281,-1,168,-5.59,,,,,,,,,,,,
188344,1564133357338,19,1.98,1.03,0.4,1.53,1.14,1.06,0.44,0.2,-20,-0,-31,1.15,7793,17,103,42,38,823,185.0,501,464,60,123.0,364,1,307,210,62,0,0,184,-1,-1281,164,-5.59,44.681389,10.024565,18.85,176.9,0,0.0,-1,0.0,0.0,0,2.38,3.1391
188364,1564133357358,17,1.98,1.03,0.41,1.53,1.14,1.02,0.4,0.13,-19,1,-31,1.09,7841,17,103,42,39,818,182.0,509,466,60,123.0,364,1,310,210,62,0,0,181,-1,-1,158,-5.59,,,,,,,,,,,,
188384,1564133357378,15,1.97,1.02,0.41,1.53,1.14,1.07,0.32,0.11,-19,0,-29,1.12,7744,16,103,42,39,814,178.0,504,467,60,123.0,364,1,310,210,62,0,0,177,5134,-165,156,-5.59,,,,,,,,,,,,
188404,1564133357398,17,1.97,1.03,0.41,1.53,1.13,1.17,0.25,0.15,-19,-2,-28,1.2,7747,17,103,42,39,810,172.0,514,469,60,122.0,364,1,310,210,62,0,0,171,250,250,152,-5.59,,,,,,,,,,,,
188424,1564133357418,17,1.98,1.03,0.41,1.52,1.13,1.25,0.26,0.26,-20,-5,-28,1.28,7754,17,103,42,39,808,170.0,514,471,60,122.0,401,1,310,210,61,0,0,168,-1,-1,149,-5.59,,,,,,,,,,,,
188444,1564133357438,17,1.98,1.02,0.41,1.53,1.14,1.2,0.28,0.28,-19,-4,-28,1.24,7735,17,103,42,39,808,167.0,517,468,60,123.0,401,1,310,210,61,0,0,166,-253,-1,146,-5.59,44.681381,10.024564,17.38,176.9,0,0.0,-1,0.0,0.0,0,2.38,3.1407
188464,1564133357458,16,1.98,1.03,0.4,1.53,1.14,1.09,0.31,0.23,-19,-2,-26,1.14,7751,17,103,42,38,810,163.0,508,464,60,123.0,401,1,307,210,61,0,0,164,3072,-236,144,-5.59,,,,,,,,,,,,
188484,1564133357478,14,1.98,1.03,0.41,1.52,1.13,1.0,0.32,0.06,-18,1,-26,1.05,7716,17,103,42,38,813,158.0,504,463,60,124.0,401,1,307,204,61,0,0,157,-1,-1,142,-5.59,,,,,,,,,,,,
188504,1564133357498,12,2.0,1.03,0.4,1.52,1.13,1.01,0.31,-0.01,-17,2,-25,1.06,7712,17,103,42,39,818,156.0,517,470,60,122.0,401,1,310,210,61,0,0,154,-1,-1,138,-5.59,,,,,,,,,,,,
188524,1564133357518,11,2.0,1.03,0.41,1.52,1.13,1.06,0.23,0.07,-17,2,-24,1.08,7709,17,103,42,39,825,153.0,506,467,60,123.0,448,1,310,210,61,0,0,152,-23552,-1,136,-5.59,,,,,,,,,,,,
188544,1564133357538,11,2.02,1.03,0.41,1.52,1.14,1.15,0.19,0.23,-17,-0,-24,1.17,7712,17,103,42,39,830,151.0,512,468,60,122.0,448,1,310,210,61,0,0,149,-1281,-1,134,-5.59,44.681381,10.024562,15.15,176.9,0,0.0,-1,0.0,0.0,0,2.38,3.1424
188564,1564133357558,10,2.05,1.03,0.4,1.52,1.14,1.16,0.18,0.31,-17,-2,-24,1.18,7731,17,103,42,39,833,149.0,511,469,60,122.0,448,1,310,210,61,0,0,147,-1,-1,131,-5.59,,,,,,,,,,,,
188584,1564133357578,12,2.08,1.03,0.41,1.52,1.14,1.09,0.21,0.3,-16,-1,-23,1.11,7731,17,103,42,39,835,146.0,506,464,60,122.0,448,1,310,210,61,0,0,144,-236,-202,129,-5.59,,,,,,,,,,,,
188604,1564133357597,11,2.11,1.03,0.41,1.53,1.13,1.02,0.23,0.23,-15,0,-21,1.04,7754,17,103,42,39,836,140.0,503,465,60,123.0,448,1,310,210,61,0,0,142,250,250,127,-5.59,,,,,,,,,,,,
188624,1564133357617,9,2.13,1.03,0.41,1.53,1.13,1.0,0.18,0.15,-14,1,-21,1.02,7747,17,103,42,39,835,136.0,508,468,60,122.0,488,1,310,210,61,0,0,135,-1,-1482,125,-5.59,,,,,,,,,,,,
188644,1564133357637,8,2.18,1.04,0.4,1.53,1.14,1.04,0.13,0.14,-13,2,-20,1.05,7751,17,103,42,39,833,133.0,525,468,60,122.0,488,1,310,210,61,0,0,133,-1,-1482,124,-5.59,44.681377,10.024562,13.81,176.8,0,0.0,-1,0.0,0.0,0,2.38,3.1441
188664,1564133357657,9,2.21,1.03,0.41,1.52,1.15,1.06,0.06,0.25,-13,1,-19,1.06,7783,17,103,42,39,830,130.0,519,467,60,122.0,488,1,310,210,61,0,0,130,-1,9728,122,-5.59,,,,,,,,,,,,
188684,1564133357677,11,2.23,1.04,0.41,1.53,1.14,1.05,0.04,0.33,-11,0,-18,1.05,7751,17,103,42,39,825,126.0,514,467,60,123.0,488,1,310,210,61,0,0,125,13868,9728,121,-5.59,,,,,,,,,,,,
188704,1564133357697,12,2.27,1.04,0.41,1.53,1.14,1.01,-0.01,0.33,-11,-1,-18,1.01,7757,17,103,42,38,821,122.0,513,465,60,123.0,488,1,307,210,61,0,0,125,13862,-1482,119,-5.59,,,,,,,,,,,,
188724,1564133357717,13,2.3,1.04,0.4,1.53,1.14,0.97,-0.01,0.28,-10,-0,-16,0.97,7770,17,103,42,39,819,122.0,521,467,60,123.0,512,1,310,210,61,0,0,123,-1482,250,117,-5.59,,,,,,,,,,,,
188744,1564133357737,10,2.31,1.04,0.41,1.53,1.14,1.03,-0.01,0.28,-9,-1,-14,1.03,7822,17,103,42,39,816,119.0,525,467,60,122.0,512,1,310,131,61,0,0,119,-1482,-1482,116,-5.59,44.681374,10.024561,12.86,176.8,0,0.0,-1,0.0,0.0,0,2.38,3.1457
188764,1564133357757,12,2.34,1.04,0.41,1.53,1.15,1.13,-0.02,0.3,-8,-3,-13,1.13,7845,17,103,42,39,811,115.0,519,466,60,122.0,512,1,310,210,61,0,0,115,-1482,6656,113,-5.59,,,,,,,,,,,,
188784,1564133357777,13,2.35,1.04,0.41,1.53,1.14,1.15,-0.05,0.31,-8,-2,-11,1.15,7812,17,103,42,39,807,112.0,525,468,60,121.0,512,1,310,210,61,0,0,112,250,250,111,-5.59,,,,,,,,,,,,
188804,1564133357797,14,2.37,1.04,0.41,1.52,1.15,1.09,-0.01,0.3,-7,-1,-10,1.09,7868,17,103,42,39,804,111.0,513,465,60,123.0,512,1,310,210,61,0,0,108,250,250,111,-5.59,,,,,,,,,,,,
188824,1564133357817,10,2.38,1.03,0.41,1.52,1.15,1.04,0.02,0.24,-6,-0,-9,1.04,7845,17,103,42,38,802,108.0,507,464,60,123.0,574,1,307,204,62,0,0,105,250,250,108,-5.59,,,,,,,,,,,,
188844,1564133357837,12,2.38,1.04,0.41,1.53,1.14,1.09,-0.01,0.24,-5,-0,-8,1.09,7861,17,103,42,39,800,105.0,517,470,60,123.0,574,1,310,131,62,0,0,105,250,13838,105,-5.59,44.68137,10.024561,11.66,176.7,0,0.0,-1,0.0,0.0,0,2.38,3.1474
188864,1564133357857,14,2.39,1.03,0.41,1.53,1.15,1.08,-0.0,0.25,-4,-1,-6,1.08,7904,17,103,42,38,799,102.0,516,466,60,123.0,574,1,307,210,62,0,0,100,250,13832,102,-5.59,,,,,,,,,,,,
188884,1564133357877,15,2.39,1.04,0.41,1.53,1.15,0.97,0.04,0.17,-3,1,-6,0.97,7868,17,103,42,38,801,98.0,512,467,60,123.0,574,1,307,204,62,0,0,96,250,13736,98,-5.59,,,,,,,,,,,,
188904,1564133357897,12,2.38,1.04,0.41,1.53,1.14,0.95,0.07,0.15,-2,2,-5,0.95,7918,17,103,42,38,801,98.0,519,467,60,123.0,574,1,307,204,62,0,0,93,-6144,13736,98,-5.59,,,,,,,,,,,,
188924,1564133357917,12,2.37,1.03,0.41,1.53,1.14,1.01,0.03,0.24,-2,0,-4,1.01,7918,17,103,42,38,802,93.0,520,466,60,122.0,622,1,307,204,61,0,0,93,-6144,-1481,93,-5.59,,,,,,,,,,,,
188944,1564133357937,15,2.36,1.04,0.41,1.53,1.14,1.0,0.02,0.23,-2,-0,-4,1.0,7931,17,103,42,38,803,89.0,518,465,60,123.0,622,1,307,204,61,0,0,88,-9728,-1481,89,-5.59,44.681366,10.02456,10.3,176.7,0,0.0,-1,0.0,0.0,0,2.39,3.1491
188964,1564133357957,13,2.37,1.04,0.41,1.53,1.15,0.93,-0.0,0.2,-1,1,-4,0.93,7978,17,103,42,38,802,89.0,526,468,60,123.0,622,1,307,204,61,0,0,84,-13312,14284,89,-5.59,,,,,,,,,,,,
188984,1564133357977,12,2.36,1.04,0.41,1.52,1.14,1.0,0.0,0.27,-1,-0,-3,1.0,8026,17,103,42,38,801,85.0,529,468,60,121.0,622,1,307,204,61,0,0,84,-13312,14284,85,-5.59,,,,,,,,,,,,
189004,1564133357997,12,2.36,1.04,0.41,1.53,1.14,0.99,0.0,0.28,-0,-1,-3,0.99,8005,17,103,42,38,799,80.0,525,465,60,123.0,622,1,307,204,61,0,0,79,250,-16896,80,-5.59,,,,,,,,,,,,
189024,1564133358009,11,2.35,1.04,0.41,1.52,1.14,0.91,-0.02,0.25,0,-0,-3,0.91,8040,17,103,42,37,796,80.0,524,465,60,123.0,750,1,304,199,60,0,0,79,250,-16896,80,-5.59,,,,,,,,,,,,
189044,1564133358029,13,2.35,1.04,0.41,1.52,1.14,0.99,-0.02,0.31,0,-1,-2,0.99,8047,17,103,42,38,794,76.0,523,467,60,122.0,750,1,307,204,60,0,0,75,250,-20480,76,-5.59,44.681362,10.02456,9.22,176.6,0,0.0,-1,0.0,0.0,0,2.39,3.1507
189064,1564133358049,12,2.35,1.04,0.41,1.53,1.14,0.95,-0.01,0.3,1,-2,-2,0.95,8005,17,103,42,37,792,76.0,518,467,60,123.0,750,1,304,199,60,0,0,75,-1481,-20480,76,-5.59,,,,,,,,,,,,
189084,1564133358069,10,2.35,1.04,0.41,1.52,1.15,0.91,-0.0,0.25,1,-1,-2,0.91,8026,17,103,42,37,792,71.0,515,465,60,123.0,750,1,304,199,60,0,0,70,-1481,-1481,71,-5.59,,,,,,,,,,,,
189104,1564133358097,11,2.34,1.04,0.41,1.52,1.15,0.98,-0.01,0.34,1,-1,-2,0.98,8019,17,103,42,37,792,71.0,525,466,60,121.0,750,1,304,199,60,0,0,70,14054,-1481,71,-5.59,,,,,,,,,,,,
189124,1564133358117,14,2.34,1.04,0.41,1.53,1.14,0.91,0.0,0.31,1,-2,-2,0.91,8005,17,103,42,37,794,66.0,521,468,60,122.0,845,1,304,199,60,0,0,65,14054,14054,65,-5.59,,,,,,,,,,,,
189144,1564133358137,12,2.33,1.04,0.41,1.53,1.14,0.9,0.0,0.28,2,-1,-2,0.9,8043,17,103,42,37,797,65.0,529,467,60,122.0,845,1,304,199,60,0,0,65,-1,14054,65,-5.59,44.681362,10.024559,7.48,176.6,0,0.0,-1,0.0,0.0,0,2.39,3.1524
189164,1564133358157,12,2.34,1.03,0.4,1.53,1.15,0.97,-0.02,0.35,2,-2,-1,0.97,8050,17,103,42,37,803,60.0,527,467,60,122.0,845,1,305,199,60,0,0,59,-1,-1,59,-5.59,,,,,,,,,,,,
189184,1564133358177,13,2.32,1.03,0.41,1.53,1.14,0.87,0.01,0.3,2,-1,-2,0.87,8002,17,103,42,37,808,60.0,527,465,60,123.0,845,1,304,199,60,0,0,59,-1,-1,59,-5.59,,,,,,,,,,,,
189204,1564133358197,9,2.33,1.04,0.41,1.53,1.13,0.91,0.03,0.29,2,-1,-1,0.91,8050,17,103,42,37,812,59.0,538,467,60,123.0,845,1,305,199,60,0,0,53,-1,-1,53,-5.59,,,,,,,,,,,,
189224,1564133358217,11,2.33,1.04,0.41,1.53,1.15,0.94,-0.0,0.35,2,-2,-1,0.94,8026,17,103,42,37,816,55.0,541,468,60,122.0,1132,1,304,204,60,0,0,53,-1,-1,53,-5.59,,,,,,,,,,,,
189244,1564133358237,14,2.32,1.04,0.41,1.53,1.14,0.85,0.03,0.31,2,-1,-1,0.85,8002,17,103,42,37,819,55.0,532,465,60,123.0,1132,1,304,199,60,0,0,53,-1,-1,53,-5.59,44.681362,10.024559,6.37,176.6,0,0.0,-1,0.0,0.0,0,2.39,3.1541
189264,1564133358257,11,2.31,1.04,0.41,1.53,1.14,0.88,0.03,0.29,2,-0,-1,0.88,8043,17,103,42,37,823,48.0,528,468,60,123.0,1132,1,304,199,60,0,0,47,-1,-1,46,-5.59,,,,,,,,,,,,
189284,1564133358277,12,2.31,1.03,0.41,1.53,1.15,0.9,0.0,0.32,2,-1,-1,0.9,8036,17,103,42,37,825,48.0,525,465,60,122.0,1132,1,304,199,60,0,0,47,-1,-1,46,-5.59,,,,,,,,,,,,
189304,1564133358297,14,2.3,1.04,0.41,1.53,1.14,0.81,0.04,0.3,3,0,-1,0.81,8009,17,103,42,37,825,48.0,520,466,60,123.0,1132,1,304,199,60,0,0,47,-1,-1,46,-5.59,,,,,,,,,,,,
189324,1564133358317,10,2.3,1.03,0.41,1.52,1.15,0.85,0.05,0.24,2,1,-1,0.85,8016,17,103,42,37,825,46.0,528,467,60,122.0,1304,1,304,199,60,0,0,40,24067,1018,46,-5.59,,,,,,,,,,,,
189344,1564133358337,11,2.29,1.03,0.41,1.53,1.14,0.86,0.05,0.26,2,1,-1,0.86,8043,17,103,42,37,826,41.0,523,468,60,122.0,1304,1,304,199,60,0,0,40,24067,1018,38,-5.59,44.681362,10.024558,4.79,176.5,0,0.0,-1,0.0,0.0,0,2.39,3.1557
189364,1564133358357,14,2.28,1.04,0.41,1.53,1.15,0.77,0.09,0.24,3,2,-1,0.78,8026,17,103,42,37,826,41.0,517,465,60,123.0,1304,1,304,199,60,0,0,40,24067,1018,38,-5.59,,,,,,,,,,,,
189384,1564133358377,9,2.29,1.04,0.41,1.53,1.14,0.86,0.09,0.2,2,2,-1,0.86,8033,17,103,42,37,827,41.0,534,469,60,122.0,1304,1,304,199,60,0,0,40,-1,1018,38,-5.59,,,,,,,,,,,,
189404,1564133358397,12,2.28,1.04,0.41,1.52,1.15,0.82,0.1,0.23,2,2,-1,0.82,8054,17,103,42,37,827,38.0,526,466,60,123.0,1304,1,305,199,60,0,0,31,-1,-1,38,-5.59,,,,,,,,,,,,
189424,1564133358417,9,2.28,1.03,0.41,1.52,1.15,0.79,0.09,0.21,2,3,-2,0.79,8016,17,103,42,37,828,32.0,529,465,60,123.0,1578,1,304,199,60,0,0,31,-1,-1,29,-5.59,,,,,,,,,,,,
189444,1564133358437,11,2.28,1.04,0.41,1.53,1.14,0.87,0.08,0.18,2,3,-1,0.88,8023,17,103,42,37,829,32.0,544,467,60,121.0,1578,1,304,199,60,0,0,31,-1,-1,29,-5.59,44.681362,10.024558,3.62,176.5,0,0.0,-1,0.0,0.0,0,2.39,3.1574
189464,1564133358457,12,2.28,1.03,0.41,1.53,1.15,0.81,0.1,0.23,2,3,-1,0.82,8036,17,103,42,37,830,32.0,534,467,60,122.0,1578,1,304,199,60,0,0,31,-1,-1,29,-5.59,,,,,,,,,,,,
189484,1564133358477,9,2.28,1.03,0.41,1.53,1.15,0.8,0.12,0.19,2,4,-2,0.81,7995,17,103,42,37,832,32.0,538,466,60,122.0,1578,1,304,198,60,0,0,31,-1,-1,29,-5.59,,,,,,,,,,,,
189504,1564133358497,9,2.28,1.04,0.41,1.53,1.15,0.88,0.09,0.16,2,3,-2,0.89,7988,17,103,42,37,835,29.0,543,468,60,122.0,1578,1,304,199,60,0,0,31,-1,-1,29,-5.59,,,,,,,,,,,,
189524,1564133358517,10,2.28,1.03,0.41,1.52,1.15,0.81,0.12,0.2,2,4,-1,0.82,8026,17,103,42,37,837,29.0,531,466,60,123.0,2068,1,304,199,60,0,0,31,-1,-1,29,-5.59,,,,,,,,,,,,
189544,1564133358537,8,2.27,1.04,0.41,1.52,1.15,0.81,0.14,0.17,2,4,-2,0.82,7975,17,103,42,37,840,29.0,524,467,60,122.0,2068,1,304,198,60,0,0,20,-1,-1,29,-5.59,44.681358,10.024558,2.47,176.4,0,0.0,-1,0.0,0.0,0,2.39,3.1591
189564,1564133358557,8,2.27,1.03,0.41,1.53,1.14,0.89,0.11,0.14,1,4,-1,0.89,7975,17,103,42,37,842,22.0,532,467,60,121.0,2068,1,304,198,60,0,0,20,-1,-1,18,-5.59,,,,,,,,,,,,
189584,1564133358577,8,2.28,1.03,0.4,1.53,1.15,0.79,0.13,0.19,1,4,-1,0.8,8012,17,103,42,37,843,22.0,526,465,60,122.0,2068,1,304,199,60,0,0,20,-1,-1,18,-5.59,,,,,,,,,,,,
189604,1564133358596,5,2.27,1.04,0.41,1.52,1.14,0.78,0.15,0.19,1,5,-2,0.8,7985,17,103,42,37,844,22.0,521,467,60,122.0,2068,1,304,198,60,0,0,20,-1,-1,18,-5.59,,,,,,,,,,,,
189624,1564133358616,5,2.28,1.04,0.4,1.52,1.15,0.85,0.12,0.15,1,4,-1,0.86,7978,17,103,42,37,844,22.0,526,468,60,122.0,0,1,304,199,60,0,0,20,-1,-1,18,-5.59,,,,,,,,,,,,
189644,1564133358636,6,2.27,1.03,0.41,1.53,1.14,0.76,0.16,0.22,1,5,-1,0.78,8036,17,103,42,37,843,22.0,526,468,60,123.0,0,1,304,199,60,0,0,20,-1,-1,18,-5.59,44.681358,10.024558,1.48,176.4,0,0.0,-1,0.0,0.0,0,2.39,3.1607
189664,1564133358656,2,2.28,1.04,0.41,1.53,1.14,0.77,0.15,0.21,1,5,-2,0.78,7985,17,103,42,37,843,22.0,529,468,60,122.0,0,1,304,198,60,0,0,20,-1,-1,18,-5.59,,,,,,,,,,,,
189684,1564133358676,1,2.28,1.04,0.41,1.53,1.15,0.84,0.12,0.17,1,5,-1,0.85,7971,17,103,42,37,843,22.0,537,466,60,122.0,0,1,304,198,60,0,0,20,-1,-1,18,-5.59,,,,,,,,,,,,
189704,1564133358696,5,2.27,1.04,0.41,1.53,1.14,0.76,0.14,0.25,1,5,-1,0.78,8019,31,103,42,38,843,22.0,529,465,60,122.0,0,1,307,204,60,0,0,20,-1,-1,18,-5.59,,,,,,,,,,,,
189724,1564133358716,2,2.28,1.03,0.4,1.52,1.15,0.77,0.13,0.23,1,5,-2,0.78,8043,45,103,42,45,843,22.0,533,467,60,123.0,0,1,355,219,63,0,0,20,-1,-1,18,-5.59,,,,,,,,,,,,
189744,1564133358736,4,2.27,1.04,0.41,1.53,1.15,0.84,0.11,0.25,1,4,-1,0.85,8116,56,103,42,53,843,22.0,547,468,60,122.0,0,1,387,264,63,0,0,20,-1,-1,18,-5.59,44.681358,10.024558,0.0,176.4,0,0.0,-1,0.0,0.0,0,2.39,3.1624
189764,1564133358756,1,2.28,1.04,0.41,1.53,1.15,0.76,0.13,0.29,1,5,-0,0.77,8184,67,103,42,61,843,22.0,531,465,60,123.0,0,1,449,320,63,0,0,20,-1,-1,18,-5.59,,,,,,,,,,,,
189784,1564133358776,2,2.28,1.04,0.41,1.53,1.14,0.88,0.14,0.32,0,3,-1,0.89,8322,84,103,42,74,842,22.0,538,469,60,123.0,0,1,433,356,63,0,0,20,-1,-1,18,-5.59,,,,,,,,,,,,
189804,1564133358798,2,2.28,1.03,0.41,1.53,1.15,0.82,0.12,0.31,0,4,-0,0.83,8370,98,103,42,85,843,22.0,537,462,60,122.0,0,1,433,556,63,0,0,20,-1,-1,18,-5.59,,,,,,,,,,,,
189824,1564133358818,4,2.28,1.04,0.41,1.52,1.15,0.78,0.15,0.33,0,2,0,0.8,8546,100,103,42,88,850,18.0,541,464,60,122.0,0,1,433,615,189,0,0,20,1018,-1,18,-5.59,,,,,,,,,,,,
189844,1564133358838,5,2.27,1.04,0.41,1.53,1.15,0.81,0.21,0.34,1,3,1,0.84,9137,100,103,42,88,858,18.0,552,465,60,122.0,0,1,418,615,189,0,0,20,1018,-1,18,-5.59,44.681358,10.024558,0.0,176.4,0,0.0,-1,0.0,0.0,0,2.39,3.1641
189864,1564133358858,4,2.27,1.04,0.41,1.53,1.15,0.87,0.19,0.37,0,2,1,0.89,9740,100,103,42,87,865,18.0,576,464,60,123.0,0,1,408,613,189,0,0,20,1018,-1,18,-5.59,,,,,,,,,,,,
189884,1564133358878,3,2.28,1.04,0.41,1.53,1.15,0.87,0.24,0.31,0,1,2,0.9,10410,100,103,42,86,872,18.0,608,467,60,121.0,0,1,425,605,189,0,0,20,1018,-1,18,-5.59,,,,,,,,,,,,
189904,1564133358898,5,2.27,1.04,0.41,1.53,1.14,0.83,0.29,0.18,0,1,1,0.88,10932,100,103,42,85,961,18.0,627,466,60,122.0,0,1,444,586,189,0,0,20,1018,-1,18,-5.59,,,,,,,,,,,,
189924,1564133358918,4,2.27,1.04,0.41,1.52,1.15,0.83,0.21,0.36,0,1,1,0.86,11552,100,103,42,85,1048,18.0,639,465,60,122.0,0,1,440,586,246,0,0,20,1018,-1,18,-5.59,,,,,,,,,,,,
189944,1564133358938,4,2.28,1.04,0.41,1.53,1.14,0.84,0.13,0.25,0,2,1,0.84,12151,100,103,42,84,1129,18.0,648,465,60,122.0,0,1,440,579,246,0,0,20,1018,-1,18,-5.59,44.681358,10.024558,0.0,176.4,0,0.0,-1,0.0,0.0,0,2.39,3.1657
189964,1564133358958,6,2.27,1.04,0.41,1.53,1.14,0.78,0.24,0.23,1,3,1,0.82,12720,100,103,42,84,1209,18.0,655,463,60,121.0,0,1,440,579,246,0,0,20,1018,-1,18,-5.59,,,,,,,,,,,,
189984,1564133358978,4,2.28,1.04,0.41,1.53,1.14,0.78,0.16,0.26,1,4,0,0.8,13316,100,103,42,84,1242,18.0,664,468,60,121.0,0,1,440,579,246,0,0,20,1018,-1,18,-5.59,,,,,,,,,,,,
190004,1564133358998,7,2.28,1.03,0.41,1.52,1.15,0.82,0.05,0.28,0,3,0,0.82,13756,100,103,42,85,1274,18.0,667,471,60,120.0,0,1,440,596,246,0,0,20,1018,-1,18,-5.59,,,,,,,,,,,,
190024,1564133359010,1,2.27,1.03,0.41,1.52,1.15,0.77,-0.01,0.27,1,2,-0,0.77,14226,100,103,42,84,1247,18.0,670,484,60,123.0,0,1,440,480,313,0,0,20,1018,250,18,-5.59,,,,,,,,,,,,
190044,1564133359030,4,2.28,1.03,0.41,1.53,1.14,0.79,-0.09,0.27,0,2,-1,0.79,14150,100,103,42,85,1200,18.0,679,470,60,123.0,0,1,440,596,313,0,0,0,1018,250,18,-5.59,44.681358,10.024558,0.0,176.4,0,0.0,-1,0.0,0.0,0,2.39,3.1674
190064,1564133359050,7,2.28,1.03,0.41,1.53,1.15,0.83,-0.22,0.39,-0,2,-1,0.86,13950,92,103,42,85,1121,8.0,695,458,60,121.0,0,1,440,518,313,0,0,0,1018,250,0,-5.59,,,,,,,,,,,,
190084,1564133359070,4,2.28,1.03,0.41,1.53,1.15,0.81,-0.22,0.4,-0,2,-2,0.84,13847,71,103,42,81,1037,8.0,666,471,60,122.0,0,1,440,548,313,0,0,0,1018,250,0,-5.59,,,,,,,,,,,,
190104,1564133359098,1,2.28,1.04,0.41,1.52,1.15,0.84,-0.27,0.36,-0,1,-2,0.88,13930,53,103,42,72,990,8.0,680,457,60,121.0,0,1,440,488,313,0,0,0,1018,250,0,-5.59,,,,,,,,,,,,
190124,1564133359118,4,2.28,1.04,0.41,1.53,1.14,0.86,-0.28,0.31,-1,2,-2,0.9,13746,42,103,42,66,955,8.0,665,457,60,121.0,0,1,440,447,250,0,0,0,1018,250,0,-5.59,,,,,,,,,,,,
190144,1564133359138,5,2.28,1.04,0.41,1.53,1.14,0.81,-0.25,0.25,-0,2,-2,0.84,13807,36,103,42,60,943,8.0,678,480,60,121.0,0,1,434,401,250,0,0,0,1018,250,0,-5.59,44.681358,10.024558,0.0,176.5,0,0.0,-1,0.0,0.0,0,2.39,3.1691
190164,1564133359158,6,2.27,1.04,0.41,1.53,1.14,0.82,-0.17,0.29,0,1,-1,0.83,13557,30,103,42,55,939,8.0,681,467,60,121.0,0,1,405,366,250,0,0,0,1018,250,0,-5.59,,,,,,,,,,,,
190184,1564133359178,6,2.27,1.04,0.41,1.53,1.14,0.78,-0.13,0.36,0,3,-1,0.79,13421,29,103,42,51,959,8.0,678,463,60,122.0,0,1,391,316,250,0,0,0,1018,250,0,-5.59,,,,,,,,,,,,
190204,1564133359198,5,2.27,1.04,0.41,1.52,1.15,0.78,-0.23,0.38,-0,2,-1,0.81,13139,29,103,42,48,991,8.0,678,472,60,122.0,0,1,382,194,250,0,0,0,1018,250,0,-5.59,,,,,,,,,,,,
190224,1564133359218,4,2.26,1.04,0.41,1.53,1.14,0.79,-0.2,0.41,0,2,-1,0.81,13020,29,103,42,45,1001,8.0,666,480,60,122.0,0,1,367,251,128,0,0,0,1018,250,0,-5.59,,,,,,,,,,,,
190244,1564133359238,4,2.27,1.04,0.41,1.52,1.15,0.8,-0.15,0.5,0,1,-1,0.81,12895,29,103,42,43,1002,8.0,673,462,60,122.0,0,1,355,247,128,0,0,0,1018,250,0,-5.59,44.681358,10.024558,0.0,176.5,0,0.0,-1,0.0,0.0,0,2.39,3.1707
190264,1564133359258,3,2.28,1.03,0.41,1.53,1.15,0.9,-0.25,0.5,-0,-0,-2,0.93,12617,29,103,42,42,987,8.0,676,457,60,121.0,0,1,348,240,128,0,0,0,1018,250,0,-5.59,,,,,,,,,,,,
190284,1564133359278,3,2.28,1.04,0.41,1.52,1.15,0.83,-0.13,0.53,0,1,-1,0.84,12400,29,103,42,42,956,8.0,666,460,60,121.0,0,1,348,161,128,0,0,0,1018,250,0,-5.59,,,,,,,,,,,,
190304,1564133359298,5,2.28,1.04,0.41,1.53,1.15,0.73,0.07,0.49,1,3,-1,0.73,12214,29,103,42,41,923,8.0,652,467,60,122.0,0,1,342,236,128,0,0,0,1018,250,0,-5.59,,,,,,,,,,,,
190324,1564133359318,5,2.27,1.04,0.41,1.52,1.15,0.68,0.26,0.47,1,5,-0,0.72,12073,29,103,42,40,887,0.0,651,472,60,122.0,0,1,336,231,109,0,0,0,250,250,0,-5.59,,,,,,,,,,,,
190344,1564133359338,4,2.28,1.03,0.42,1.53,1.15,0.62,0.42,0.44,1,6,-0,0.75,11897,29,103,42,40,866,0.0,648,467,60,122.0,0,1,333,231,109,0,0,0,250,250,0,-5.59,44.681358,10.024558,0.0,176.5,0,0.0,-1,0.0,0.0,0,2.39,3.1724
190364,1564133359358,5,2.27,1.03,0.41,1.53,1.15,0.58,0.58,0.51,2,7,1,0.82,11660,29,103,42,41,863,0.0,657,467,60,122.0,0,1,337,155,109,0,0,0,250,250,0,-5.59,,,,,,,,,,,,
190384,1564133359378,4,2.26,1.03,0.41,1.53,1.15,0.58,0.5,0.66,2,7,0,0.77,11432,29,103,42,42,862,0.0,666,470,60,122.0,0,1,342,157,109,0,0,0,250,250,0,-5.59,,,,,,,,,,,,
190404,1564133359398,4,2.28,1.04,0.41,1.53,1.14,0.62,0.45,0.43,2,6,-0,0.77,11281,29,103,42,42,864,0.0,652,467,60,122.0,0,1,342,157,109,0,0,0,250,250,0,-5.59,,,,,,,,,,,,
190424,1564133359418,2,2.28,1.04,0.41,1.53,1.15,0.7,0.39,0.58,2,6,-1,0.8,11134,29,103,42,42,867,0.0,663,468,60,122.0,0,1,342,157,100,0,0,0,250,250,0,-5.59,,,,,,,,,,,,
190444,1564133359438,4,2.27,1.04,0.41,1.53,1.14,0.66,0.49,0.46,2,5,0,0.83,11009,29,103,42,42,873,0.0,658,468,60,122.0,0,1,342,236,100,0,0,0,250,250,0,-5.59,44.681358,10.024558,0.0,176.5,0,0.0,-1,0.0,0.0,0,2.39,3.1741
190464,1564133359458,4,2.27,1.04,0.41,1.53,1.15,0.65,0.25,0.53,1,2,-0,0.7,10977,29,103,42,41,883,0.0,662,470,60,122.0,0,1,335,232,100,0,0,0,250,250,0,-5.59,,,,,,,,,,,,
190484,1564133359478,3,2.28,1.03,0.41,1.53,1.15,0.72,0.23,0.64,1,2,1,0.75,11003,29,103,42,41,897,0.0,662,467,60,122.0,0,1,335,155,100,0,0,0,250,250,0,-5.59,,,,,,,,,,,,
190504,1564133359498,2,2.28,1.03,0.41,1.53,1.15,0.64,0.4,0.52,1,3,1,0.76,10939,29,103,42,41,910,0.0,656,468,60,122.0,0,1,335,231,100,0,0,0,250,250,0,-5.59,,,,,,,,,,,,
190524,1564133359518,4,2.27,1.04,0.41,1.53,1.15,0.66,0.22,0.46,1,4,-1,0.7,10971,29,103,42,40,918,0.0,647,466,60,122.0,0,1,327,150,95,0,0,0,250,250,0,-5.59,,,,,,,,,,,,
190544,1564133359538,2,2.27,1.04,0.42,1.53,1.15,0.73,0.11,0.55,1,4,-1,0.74,10932,29,103,42,40,922,0.0,642,466,60,122.0,0,1,327,229,95,0,0,0,250,250,0,-5.59,44.681358,10.024558,0.0,176.5,0,0.0,-1,0.0,0.0,0,2.39,3.1757
190564,1564133359558,4,2.27,1.04,0.41,1.53,1.14,0.7,0.23,0.61,1,3,-0,0.74,10869,29,103,42,39,913,0.0,656,467,60,121.0,0,1,320,147,95,0,0,0,250,250,0,-5.59,,,,,,,,,,,,
190584,1564133359578,3,2.27,1.04,0.41,1.53,1.15,0.71,0.26,0.45,1,0,1,0.76,10913,29,103,42,39,902,0.0,653,470,60,122.0,0,1,320,227,95,0,0,0,250,250,0,-5.59,,,,,,,,,,,,
190604,1564133359597,4,2.27,1.04,0.41,1.53,1.15,0.71,0.05,0.42,0,2,-0,0.71,10913,29,103,42,39,885,0.0,655,469,60,122.0,0,1,320,227,95,0,0,0,250,250,0,-5.59,,,,,,,,,,,,
190624,1564133359617,2,2.28,1.03,0.42,1.53,1.15,0.73,0.08,0.58,1,3,-1,0.74,10875,29,103,42,39,867,0.0,665,469,60,122.0,0,1,320,147,93,0,0,0,250,250,0,-5.59,,,,,,,,,,,,
190644,1564133359637,3,2.27,1.04,0.41,1.53,1.15,0.77,0.21,0.49,1,3,0,0.8,10901,29,103,42,39,843,0.0,659,465,60,121.0,0,1,320,227,93,0,0,0,250,250,0,-5.59,44.681358,10.024558,0.0,176.5,0,0.0,-1,0.0,0.0,0,2.39,3.1774
190664,1564133359657,4,2.28,1.03,0.42,1.52,1.15,0.75,0.2,0.34,0,2,-0,0.77,10913,29,103,42,39,820,0.0,662,470,60,122.0,0,1,320,148,93,0,0,0,250,250,0,-5.59,,,,,,,,,,,,
190684,1564133359677,5,2.27,1.04,0.41,1.53,1.15,0.73,-0.0,0.43,0,1,-1,0.73,10844,29,103,42,39,814,0.0,667,470,60,121.0,0,1,320,225,93,0,0,0,250,250,0,-5.59,,,,,,,,,,,,
190704,1564133359695,1,2.28,1.04,0.41,1.53,1.15,0.8,-0.03,0.56,0,0,-0,0.8,10901,29,103,42,39,808,0.0,660,473,60,122.0,0,1,320,227,93,0,0,0,250,250,0,-5.59,,,,,,,,,,,,
190724,1564133359715,3,2.27,1.03,0.41,1.52,1.15,0.75,0.16,0.57,0,2,0,0.77,10838,29,103,42,38,807,0.0,650,469,60,121.0,0,1,317,145,93,0,0,0,250,250,0,-5.59,,,,,,,,,,,,
190744,1564133359735,3,2.27,1.03,0.42,1.53,1.15,0.74,0.21,0.39,1,2,0,0.77,10863,29,103,42,39,806,0.0,651,470,60,122.0,0,1,320,225,93,0,0,0,250,250,0,-5.59,44.681358,10.024558,0.0,176.5,0,0.0,-1,0.0,0.0,0,2.39,3.1791
190764,1564133359755,5,2.28,1.03,0.41,1.53,1.15,0.8,0.04,0.46,0,2,-1,0.8,10856,29,103,42,38,811,0.0,647,468,60,122.0,0,1,317,225,93,0,0,0,250,250,0,-5.59,,,,,,,,,,,,
190784,1564133359775,2,2.28,1.03,0.42,1.53,1.15,0.73,-0.08,0.55,0,1,-1,0.73,10794,29,103,42,39,817,0.0,670,471,60,121.0,0,1,320,145,93,0,0,0,250,250,0,-5.59,,,,,,,,,,,,
190804,1564133359795,3,2.27,1.04,0.41,1.53,1.15,0.84,0.04,0.58,0,0,1,0.84,10838,29,103,42,38,823,0.0,660,469,60,121.0,0,1,317,145,93,0,0,0,250,250,0,-5.59,,,,,,,,,,,,
190824,1564133359815,3,2.27,1.04,0.41,1.52,1.15,0.79,0.18,0.49,0,1,1,0.81,10769,29,103,42,39,829,0.0,653,466,60,122.0,0,1,320,224,92,0,0,0,250,250,0,-5.59,,,,,,,,,,,,
190844,1564133359835,4,2.27,1.04,0.41,1.53,1.15,0.76,0.17,0.35,0,1,1,0.77,10757,29,103,42,39,830,0.0,658,465,60,122.0,0,1,320,145,92,0,0,0,250,250,0,-5.59,44.681358,10.024558,0.0,176.5,0,0.0,-1,0.0,0.0,0,2.39,3.1807
190864,1564133359855,4,2.27,1.04,0.41,1.53,1.15,0.79,0.03,0.4,-0,1,-1,0.79,10702,29,103,42,40,831,0.0,658,468,60,121.0,0,1,327,147,92,0,0,0,250,250,0,-5.59,,,,,,,,,,,,
190884,1564133359875,3,2.28,1.03,0.42,1.53,1.15,0.75,-0.11,0.49,-0,0,-1,0.76,10611,29,103,42,40,831,0.0,655,467,60,120.0,0,1,327,145,92,0,0,0,250,250,0,-5.59,,,,,,,,,,,,
190904,1564133359895,4,2.28,1.03,0.41,1.53,1.15,0.77,-0.29,0.53,-0,1,-2,0.82,10635,29,103,42,40,832,0.0,650,471,60,122.0,0,1,327,145,92,0,0,0,250,250,0,-5.59,,,,,,,,,,,,
190924,1564133359915,4,2.27,1.03,0.41,1.52,1.15,0.78,-0.31,0.67,-0,1,-2,0.84,10599,29,103,42,39,832,0.0,647,467,60,121.0,0,1,320,141,89,0,0,0,250,250,0,-5.59,,,,,,,,,,,,
190944,1564133359935,-0,2.28,1.04,0.41,1.53,1.14,0.88,-0.27,0.77,-0,1,-2,0.92,10671,29,103,42,39,832,0.0,656,471,60,121.0,0,1,320,143,89,0,0,0,250,250,0,-5.59,44.681358,10.024558,0.0,176.5,0,0.0,-1,0.0,0.0,0,2.39,3.1824
190964,1564133359955,1,2.27,1.04,0.41,1.53,1.14,0.83,-0.2,0.83,-0,1,-1,0.85,10641,29,103,42,39,829,0.0,657,469,60,121.0,0,1,320,221,89,0,0,0,250,250,0,-5.59,,,,,,,,,,,,
190984,1564133359975,2,2.28,1.04,0.42,1.53,1.14,0.9,-0.03,0.78,0,-1,1,0.9,10702,29,103,42,39,825,0.0,655,468,60,122.0,0,1,320,223,89,0,0,0,250,250,0,-5.59,,,,,,,,,,,,
191004,1564133359995,2,2.27,1.03,0.41,1.52,1.15,0.85,0.13,0.61,0,1,1,0.86,10677,29,103,42,39,821,0.0,650,467,60,122.0,0,1,320,222,89,0,0,0,250,250,0,-5.59,,,,,,,,,,,,
191024,1564133360007,2,2.27,1.04,0.41,1.52,1.14,0.82,0.16,0.45,0,0,1,0.83,10726,31,103,42,39,817,0.0,652,463,60,122.0,0,1,320,223,89,0,0,0,250,250,0,-5.59,,,,,,,,,,,,
191044,1564133360027,3,2.27,1.04,0.41,1.53,1.15,0.82,0.03,0.44,-0,-0,-0,0.82,10751,40,103,42,41,818,0.0,657,466,60,121.0,0,1,335,151,89,0,0,0,250,250,0,-5.59,44.681358,10.024558,0.0,176.5,0,0.0,-1,0.0,0.0,0,2.39,3.1841
191064,1564133360047,3,2.27,1.03,0.41,1.53,1.15,0.78,-0.16,0.55,-0,-1,-1,0.8,10788,45,103,42,45,820,0.0,660,467,60,121.0,0,1,365,242,89,0,0,0,250,250,0,-5.59,,,,,,,,,,,,
191084,1564133360067,1,2.27,1.04,0.41,1.53,1.15,0.86,-0.14,0.69,-0,-1,-0,0.87,10952,52,103,42,48,825,0.0,658,472,60,122.0,0,1,382,182,89,0,0,0,250,250,0,-5.59,,,,,,,,,,,,
191104,1564133360095,1,2.28,1.04,0.41,1.53,1.15,0.79,0.08,0.6,0,1,0,0.8,10977,58,103,42,52,832,0.0,644,467,60,122.0,0,1,394,233,89,0,0,0,250,250,0,-5.59,,,,,,,,,,,,
191124,1564133360115,2,2.27,1.03,0.41,1.52,1.15,0.8,-0.11,0.58,-0,1,-1,0.81,11107,63,103,42,57,843,0.0,662,468,60,121.0,0,1,420,286,141,0,0,0,250,250,0,-5.59,,,,,,,,,,,,
191144,1564133360135,2,2.27,1.04,0.41,1.52,1.14,0.86,0.0,0.65,0,1,-0,0.86,11356,66,103,42,61,855,0.0,653,467,60,122.0,0,1,443,405,141,0,0,0,250,250,0,-5.59,44.681358,10.024558,0.0,176.5,0,0.0,-1,0.0,0.0,0,2.39,3.1857
191164,1564133360155,1,2.28,1.03,0.42,1.53,1.15,0.9,-0.15,0.65,-0,-0,-1,0.92,11574,67,103,42,63,865,0.0,663,466,60,122.0,0,1,440,342,141,0,0,0,250,250,0,-5.59,,,,,,,,,,,,
191184,1564133360175,-0,2.27,1.04,0.42,1.52,1.16,0.85,-0.06,0.54,-0,-3,-1,0.85,11852,67,103,42,64,871,0.0,672,467,60,121.0,0,1,440,349,141,0,0,0,250,250,0,-5.59,,,,,,,,,,,,
191204,1564133360195,0,2.28,1.04,0.42,1.53,1.14,0.82,0.04,0.49,-0,-4,-0,0.82,12159,67,103,42,64,896,0.0,676,465,60,121.0,0,1,440,428,141,0,0,0,250,250,0,-5.59,,,,,,,,,,,,
191224,1564133360215,1,2.28,1.03,0.42,1.53,1.15,0.78,0.06,0.39,0,-5,0,0.78,12466,68,103,42,65,941,0.0,660,465,60,121.0,0,1,440,355,199,0,0,0,250,250,0,-5.59,,,,,,,,,,,,
191244,1564133360235,2,2.28,1.03,0.42,1.53,1.15,0.75,0.04,0.46,0,-4,0,0.75,12763,68,103,42,65,984,0.0,659,461,60,121.0,0,1,440,433,199,0,0,0,250,250,0,-5.59,44.681358,10.024558,0.0,176.5,0,0.0,-1,0.0,0.0,0,2.39,3.1874
191264,1564133360255,3,2.27,1.04,0.42,1.52,1.15,0.85,-0.03,0.48,0,-5,-0,0.85,13038,68,103,42,65,1022,0.0,664,466,60,122.0,0,1,440,433,199,0,0,0,250,250,0,-5.59,,,,,,,,,,,,
191284,1564133360275,1,2.28,1.04,0.41,1.53,1.14,0.78,-0.04,0.43,0,-4,-1,0.78,13392,69,103,42,65,1054,0.0,687,466,60,121.0,0,1,440,355,199,0,0,0,250,250,0,-5.59,,,,,,,,,,,,
191304,1564133360295,2,2.28,1.03,0.41,1.53,1.15,0.85,0.09,0.33,-0,-5,0,0.85,13596,69,103,42,67,1077,0.0,683,472,60,121.0,0,1,440,447,199,0,0,0,250,250,0,-5.59,,,,,,,,,,,,
191324,1564133360315,4,2.28,1.03,0.42,1.53,1.15,0.81,0.12,0.33,0,-4,1,0.82,13909,69,103,42,68,1092,0.0,675,478,60,122.0,0,1,440,454,231,0,0,0,250,250,0,-5.59,,,,,,,,,,,,
191344,1564133360335,0,2.28,1.04,0.42,1.53,1.15,0.85,0.17,0.38,0,-4,1,0.87,13878,69,103,42,69,1077,0.0,680,474,60,123.0,0,1,440,382,231,0,0,0,250,250,0,-5.59,44.681358,10.024558,0.0,176.5,0,0.0,-1,0.0,0.0,0,2.39,3.1891
191364,1564133360355,0,2.29,1.04,0.41,1.52,1.15,0.84,0.27,0.4,1,-2,1,0.88,13982,69,103,42,69,1053,0.0,667,463,60,121.0,0,1,440,460,231,0,0,0,250,250,0,-5.59,,,,,,,,,,,,
191384,1564133360375,-0,2.29,1.04,0.42,1.53,1.15,0.86,0.23,0.47,0,-3,2,0.89,13982,69,103,42,69,1011,0.0,686,483,60,123.0,0,1,440,460,231,0,0,0,250,250,0,-5.59,,,,,,,,,,,,
191404,1564133360397,3,2.29,1.04,0.41,1.53,1.15,0.92,0.27,0.51,1,-3,2,0.96,13786,70,103,42,70,973,0.0,662,471,60,123.0,0,1,440,389,231,0,0,0,250,250,0,-5.59,,,,,,,,,,,,
191424,1564133360417,1,2.29,1.03,0.42,1.52,1.15,0.86,0.24,0.55,1,-1,2,0.89,13950,70,103,42,69,946,0.0,685,463,60,122.0,0,1,440,460,244,0,0,0,250,250,0,-5.59,,,,,,,,,,,,
191444,1564133360437,2,2.29,1.04,0.42,1.53,1.15,0.88,0.09,0.69,0,-2,1,0.88,13796,70,103,42,70,922,0.0,677,464,60,120.0,0,1,440,389,244,0,0,0,250,250,0,-5.59,44.681358,10.024558,0.0,176.5,0,0.0,-1,0.0,0.0,0,2.39,3.1907
191464,1564133360457,1,2.3,1.04,0.41,1.53,1.15,0.91,-0.06,0.78,0,-2,0,0.91,13827,70,103,42,70,908,0.0,675,470,60,123.0,0,1,440,389,244,0,0,0,250,250,0,-5.59,,,,,,,,,,,,
191484,1564133360477,2,2.29,1.04,0.41,1.53,1.15,0.84,-0.2,0.78,-0,1,-1,0.86,13827,70,103,42,70,895,0.0,665,466,60,121.0,0,1,440,389,244,0,0,0,250,250,0,-5.59,,,,,,,,,,,,
191504,1564133360497,4,2.29,1.04,0.42,1.53,1.15,0.85,-0.3,0.87,-1,0,-1,0.9,13567,70,102,42,70,907,0.0,674,463,60,121.0,0,1,440,389,244,0,0,0,250,250,0,-5.59,,,,,,,,,,,,
191524,1564133360517,2,2.29,1.03,0.41,1.52,1.16,0.77,-0.25,0.86,-0,2,-1,0.8,13498,70,103,42,69,918,0.0,681,480,60,121.0,0,1,440,460,240,0,0,0,250,250,0,-5.59,,,,,,,,,,,,
191544,1564133360537,4,2.28,1.04,0.41,1.53,1.15,0.8,-0.23,0.9,-0,2,-1,0.83,13260,70,103,42,69,921,0.0,677,468,60,121.0,0,1,440,460,240,0,0,0,250,250,6,-5.59,44.681358,10.024558,0.0,176.5,0,0.0,-1,0.0,0.0,0,2.39,3.1924
191564,1564133360557,2,2.29,1.03,0.41,1.52,1.15,0.7,-0.28,0.94,-0,5,-2,0.76,13093,70,103,42,69,923,6.0,676,464,60,121.0,0,1,440,382,240,0,0,0,250,250,6,-5.59,,,,,,,,,,,,
191584,1564133360577,3,2.29,1.03,0.41,1.53,1.16,0.75,-0.12,0.97,-0,4,-1,0.76,12904,70,103,42,68,912,6.0,667,465,60,122.0,0,1,440,454,240,0,0,0,250,250,6,-5.59,,,,,,,,,,,,
191604,1564133360596,4,2.28,1.04,0.42,1.52,1.16,0.7,-0.15,0.88,-1,3,-1,0.71,12626,71,103,43,68,902,24.0,666,474,60,121.0,0,1,440,454,240,0,0,29,1018,250,6,-5.59,,,,,,,,,,,,
191624,1564133360616,2,2.29,1.04,0.41,1.53,1.15,0.62,-0.33,0.98,-1,3,-1,0.7,12433,77,103,43,69,884,33.0,675,471,60,121.0,0,1,440,458,217,0,0,29,1018,250,33,-5.59,,,,,,,,,,,,
191644,1564133360636,4,2.28,1.03,0.42,1.53,1.14,0.61,-0.22,1.08,-1,1,-1,0.65,12327,83,103,43,73,866,33.0,672,470,60,122.0,0,1,440,481,217,0,0,29,1018,250,33,-5.59,44.681358,10.024559,1.5,175.7,0,0.0,-1,0.0,0.0,0,2.39,3.1941
191664,1564133360656,0,2.29,1.03,0.42,1.53,1.15,0.6,-0.03,1.02,-0,-0,-1,0.6,12207,89,103,43,76,858,45.0,680,470,60,121.0,0,1,440,496,217,0,0,47,-1,-1,33,-5.59,,,,,,,,,,,,
191684,1564133360676,2,2.3,1.04,0.41,1.53,1.14,0.56,0.08,0.91,0,-2,-0,0.57,12088,95,103,43,80,850,49.0,668,463,60,121.0,0,1,440,533,217,0,0,47,-1,-1,49,-5.59,,,,,,,,,,,,
191704,1564133360696,2,2.3,1.03,0.41,1.53,1.15,0.57,0.17,0.79,1,-2,-0,0.59,11965,100,102,43,82,867,57.0,661,467,60,121.0,0,1,440,543,217,0,0,61,-1,-1,49,-5.59,,,,,,,,,,,,
191724,1564133360716,1,2.3,1.03,0.41,1.52,1.16,0.55,0.25,0.74,1,-3,-1,0.61,11912,100,103,43,83,884,61.0,655,466,60,121.0,5122,1,440,559,251,0,0,61,-1,-1,61,-5.59,,,,,,,,,,,,
191744,1564133360736,1,2.29,1.04,0.42,1.53,1.15,0.54,0.33,0.73,1,-4,-1,0.63,11919,100,102,43,84,906,68.0,658,466,60,121.0,5122,1,440,567,251,0,0,71,250,-1481,61,-5.59,44.681354,10.024559,4.02,175.6,0,0.0,-1,0.0,0.0,0,2.39,3.1957
191764,1564133360756,2,2.29,1.03,0.41,1.53,1.15,0.53,0.47,0.7,1,-5,-0,0.71,11996,100,102,43,84,930,72.0,666,466,60,122.0,5122,1,440,569,251,0,0,71,250,-1481,72,-5.59,,,,,,,,,,,,
191784,1564133360776,2,2.3,1.04,0.41,1.53,1.15,0.51,0.62,0.68,1,-5,-0,0.8,12034,100,103,43,84,972,77.0,661,467,60,121.0,5122,1,440,501,251,0,0,79,-20480,-1481,80,-5.59,,,,,,,,,,,,
191804,1564133360796,1,2.3,1.03,0.42,1.53,1.16,0.55,0.7,0.69,1,-5,-0,0.89,12104,100,103,43,84,1018,85.0,670,465,60,121.0,5122,1,440,579,251,0,0,88,-13312,250,80,-5.59,,,,,,,,,,,,
191824,1564133360816,1,2.3,1.04,0.41,1.53,1.15,0.57,0.78,0.67,2,-5,-0,0.96,12175,100,103,43,84,1047,88.0,661,470,60,121.0,3275,1,440,579,262,0,0,88,-13312,250,88,-5.59,,,,,,,,,,,,
191844,1564133360836,2,2.3,1.03,0.42,1.53,1.16,0.5,0.83,0.61,2,-4,-0,0.97,12262,100,102,43,84,1069,95.0,653,467,60,121.0,3275,1,440,569,262,0,0,95,250,14312,95,-5.59,44.681354,10.024559,6.63,175.5,0,0.0,-1,0.0,0.0,0,2.39,3.1974
191864,1564133360856,4,2.3,1.04,0.42,1.52,1.16,0.5,0.73,0.62,2,-3,-1,0.88,12319,100,103,43,84,1076,100.0,667,465,60,121.0,3275,1,440,579,262,0,0,102,250,13832,95,-5.59,,,,,,,,,,,,
191884,1564133360876,3,2.31,1.04,0.41,1.53,1.15,0.48,0.58,0.72,2,-4,-1,0.75,12351,100,102,43,84,1076,106.0,652,461,60,121.0,3275,1,440,569,262,0,0,109,13838,5120,102,-5.59,,,,,,,,,,,,
191904,1564133360896,4,2.3,1.04,0.42,1.53,1.15,0.48,0.45,0.83,1,-5,-1,0.66,12351,100,102,43,84,1065,112.0,657,463,60,121.0,3275,1,440,569,262,0,0,115,250,8192,108,-5.59,,,,,,,,,,,,
191924,1564133360916,2,2.31,1.03,0.42,1.53,1.15,0.57,0.36,0.8,1,-6,-1,0.68,12384,100,103,43,83,1043,113.0,655,466,60,121.0,2472,1,440,563,267,0,0,122,250,9728,113,-5.59,,,,,,,,,,,,
191944,1564133360936,3,2.31,1.03,0.42,1.53,1.16,0.56,0.36,0.79,1,-5,-1,0.67,12417,100,103,43,84,1018,119.0,643,465,60,121.0,2472,1,440,579,267,0,0,127,13856,-202,119,-5.59,44.681351,10.024558,9.2,175.4,0,0.0,-1,0.0,0.0,0,2.39,3.1991
191964,1564133360956,4,2.3,1.04,0.42,1.53,1.15,0.4,0.52,0.75,1,-3,0,0.66,12466,100,103,43,84,991,125.0,661,465,60,121.0,2472,1,440,579,267,0,0,133,-1482,-1,125,-5.59,,,,,,,,,,,,
191984,1564133360976,2,2.3,1.03,0.42,1.53,1.15,0.35,0.33,0.8,1,-2,-1,0.48,12550,100,102,43,84,975,130.0,678,468,60,121.0,2472,1,440,501,267,0,0,138,-1,-1,130,-5.59,,,,,,,,,,,,
192004,1564133360996,4,2.3,1.04,0.42,1.53,1.15,0.43,0.23,0.91,1,-2,-1,0.49,12592,100,102,43,84,970,135.0,678,467,60,120.0,2472,1,440,569,267,0,0,143,-1281,5140,135,-5.59,,,,,,,,,,,,
192024,1564133361008,4,2.31,1.04,0.41,1.54,1.15,0.47,0.41,0.92,1,-3,1,0.62,12609,100,102,43,84,961,144.0,666,472,60,121.0,2051,1,440,569,277,0,0,147,-1,-1,140,-5.59,,,,,,,,,,,,
192044,1564133361028,2,2.3,1.04,0.42,1.53,1.15,0.38,0.35,0.81,0,-2,-0,0.52,12583,100,102,43,84,950,149.0,666,471,60,121.0,2051,1,440,569,277,0,0,153,-1,-1,145,-5.59,44.681347,10.024558,11.24,175.4,0,0.0,-1,0.0,0.0,0,2.39,3.2007
192064,1564133361048,4,2.3,1.04,0.41,1.53,1.16,0.35,0.12,0.9,0,-3,-0,0.37,12592,100,102,43,84,941,153.0,666,470,60,121.0,2051,1,440,569,277,0,0,164,-23552,250,155,-5.59,,,,,,,,,,,,
192084,1564133361068,2,2.3,1.04,0.42,1.53,1.15,0.43,0.24,1.0,0,-4,0,0.49,12609,100,102,43,84,934,159.0,670,466,60,121.0,2051,1,440,569,277,0,0,166,-1281,-253,159,-5.59,,,,,,,,,,,,
192104,1564133361098,3,2.31,1.03,0.42,1.52,1.15,0.36,0.32,0.96,1,-3,-0,0.48,12583,100,103,43,84,923,164.0,668,467,60,121.0,2051,1,440,579,277,0,0,171,-253,250,164,-5.59,,,,,,,,,,,,
192124,1564133361118,4,2.3,1.03,0.42,1.53,1.15,0.32,0.15,1.02,0,-4,-1,0.36,12508,100,102,43,84,908,172.0,662,462,60,122.0,1652,1,440,569,271,0,0,184,250,-1,168,-5.59,,,,,,,,,,,,
192144,1564133361138,1,2.31,1.04,0.41,1.53,1.15,0.41,0.0,0.99,-0,-4,-2,0.41,12466,100,102,43,84,893,178.0,664,463,60,121.0,1652,1,440,569,271,0,0,188,250,-2560,178,-5.59,44.681343,10.024558,14.21,175.3,0,0.0,-1,0.0,0.0,0,2.39,3.2024
192164,1564133361158,2,2.31,1.04,0.42,1.53,1.16,0.4,0.09,1.0,0,-4,-1,0.41,12433,100,103,43,84,884,186.0,656,462,60,121.0,1652,1,440,579,271,0,0,198,-1,19456,183,-5.59,,,,,,,,,,,,
192184,1564133361178,3,2.3,1.04,0.42,1.53,1.15,0.26,0.23,0.99,1,-2,-1,0.35,12376,100,102,43,84,874,190.0,655,467,60,122.0,1652,1,440,569,271,0,0,201,-1,-1480,190,-5.59,,,,,,,,,,,,
192204,1564133361198,1,2.31,1.04,0.41,1.53,1.15,0.14,0.23,0.95,1,-0,-2,0.27,12343,100,102,43,84,862,197.0,669,465,60,121.0,1652,1,440,569,271,0,0,209,19456,13964,195,-5.59,,,,,,,,,,,,
192224,1564133361218,2,2.3,1.04,0.42,1.53,1.15,0.2,0.01,0.92,1,0,-4,0.2,12270,100,102,43,84,851,202.0,652,467,60,121.0,1336,1,440,569,266,0,0,222,12800,250,202,-5.59,,,,,,,,,,,,
192244,1564133361238,1,2.3,1.03,0.42,1.52,1.15,0.26,-0.19,0.97,-0,2,-4,0.32,12214,100,103,43,83,848,209.0,652,470,60,121.0,1336,1,440,563,266,0,0,223,-14848,250,207,-5.59,44.681343,10.024557,16.9,175.3,0,0.0,-1,0.0,0.0,0,2.39,3.2041
192264,1564133361258,2,2.31,1.03,0.42,1.53,1.16,0.37,-0.29,1.04,-0,2,-4,0.47,12151,100,102,43,84,845,214.0,655,470,60,121.0,1336,1,440,569,266,0,0,232,-17920,8704,214,-5.59,,,,,,,,,,,,
192284,1564133361278,3,2.31,1.04,0.41,1.54,1.15,0.46,-0.32,1.07,-1,2,-3,0.56,12088,100,102,43,84,844,221.0,670,467,60,122.0,1336,1,440,569,266,0,0,236,15360,-17920,221,-5.59,,,,,,,,,,,,
192304,1564133361298,2,2.31,1.03,0.42,1.52,1.15,0.54,-0.29,1.12,-1,2,-2,0.61,12034,100,102,43,84,844,228.0,652,471,60,122.0,1336,1,440,569,266,0,0,247,250,16896,229,-5.59,,,,,,,,,,,,
192324,1564133361318,2,2.31,1.03,0.41,1.53,1.16,0.62,-0.32,1.21,-1,0,-1,0.7,11980,100,102,43,84,846,236.0,668,467,60,122.0,1131,1,440,569,259,0,0,249,250,-1,233,-5.59,,,,,,,,,,,,
192344,1564133361338,3,2.31,1.04,0.42,1.53,1.16,0.71,-0.37,1.22,-1,0,-0,0.8,11927,100,102,43,84,850,243.0,655,466,60,122.0,1131,1,440,568,259,0,0,263,-1445,-1,241,-5.59,44.681339,10.024556,19.99,175.2,0,0.0,-1,0.0,0.0,0,2.39,3.2057
192364,1564133361358,1,2.32,1.04,0.42,1.53,1.16,0.74,-0.49,1.28,-1,1,-1,0.89,11859,100,103,43,84,855,248.0,657,470,60,121.0,1131,1,440,576,259,0,0,270,10818,-1,248,-5.59,,,,,,,,,,,,
192384,1564133361378,2,2.31,1.04,0.42,1.53,1.15,0.75,-0.64,1.27,-1,2,-3,0.98,11785,100,102,43,84,860,256.0,642,470,60,121.0,1131,1,440,564,259,0,0,278,506,-16896,256,-5.59,,,,,,,,,,,,
192404,1564133361398,3,2.32,1.04,0.41,1.53,1.15,0.64,-0.62,1.16,-1,4,-3,0.9,11711,100,102,43,84,862,262.0,652,469,60,121.0,1131,1,440,561,259,0,0,285,-1,41,262,-5.59,,,,,,,,,,,,
192424,1564133361418,1,2.32,1.03,0.42,1.53,1.15,0.52,-0.37,1.13,-0,5,-3,0.64,11566,100,103,43,84,864,269.0,642,465,60,122.0,946,1,440,567,248,0,0,293,-1281,85,269,-5.59,,,,,,,,,,,,
192444,1564133361438,2,2.31,1.04,0.42,1.53,1.15,0.56,-0.33,1.22,-0,6,-3,0.65,11481,100,103,43,85,862,276.0,657,467,60,121.0,946,1,441,586,248,0,0,303,250,90,276,-5.59,44.681332,10.024555,23.11,175.2,0,0.0,-1,0.0,0.0,0,2.39,3.2074
192464,1564133361458,4,2.31,1.04,0.42,1.53,1.16,0.51,-0.44,1.12,-0,6,-5,0.67,11398,100,102,43,85,859,282.0,663,467,60,122.0,946,1,441,576,248,0,0,308,1886,28160,284,-5.59,,,,,,,,,,,,
192484,1564133361478,3,2.31,1.04,0.42,1.53,1.15,0.48,-0.33,1.08,-0,5,-4,0.59,11343,100,102,43,85,855,291.0,651,465,60,122.0,946,1,441,576,248,0,0,322,0,-28416,291,-5.59,,,,,,,,,,,,
192504,1564133361498,0,2.32,1.04,0.42,1.52,1.16,0.55,-0.39,1.17,-0,4,-4,0.67,11268,100,102,43,85,850,296.0,647,466,60,122.0,946,1,442,576,248,0,0,330,85,-20736,296,-5.59,,,,,,,,,,,,
192524,1564133361518,2,2.32,1.04,0.42,1.52,1.15,0.5,-0.28,1.1,-1,2,-2,0.57,11140,100,103,43,85,856,304.0,637,466,60,122.0,831,1,443,586,246,0,0,337,110,-10554,303,-5.59,,,,,,,,,,,,
192544,1564133361538,3,2.31,1.03,0.41,1.53,1.15,0.43,-0.35,1.19,-1,1,-3,0.55,11048,100,102,43,85,863,312.0,647,468,60,121.0,831,1,444,576,246,0,0,341,-32256,3302,312,-5.59,44.681324,10.024553,26.48,175.1,0,0.0,-1,0.0,0.0,0,2.39,3.2091
192564,1564133361558,2,2.31,1.04,0.42,1.53,1.15,0.46,-0.33,1.27,-1,0,-1,0.56,11022,100,103,43,86,872,320.0,633,470,60,121.0,831,1,445,605,246,0,0,351,150,28553,318,-5.59,,,,,,,,,,,,
192584,1564133361578,2,2.31,1.04,0.41,1.53,1.15,0.39,-0.18,1.08,-0,2,-1,0.43,10882,100,103,43,86,883,327.0,617,465,60,122.0,831,1,441,605,246,0,0,356,160,4104,327,-5.59,,,,,,,,,,,,
192604,1564133361597,3,2.31,1.04,0.42,1.53,1.15,0.34,-0.25,1.11,-0,3,-2,0.42,10819,100,102,43,86,893,333.0,620,462,60,122.0,831,1,440,595,246,0,0,370,-6528,0,332,-5.59,,,,,,,,,,,,
192624,1564133361617,3,2.32,1.03,0.42,1.53,1.16,0.4,-0.25,1.2,-0,1,-2,0.47,10689,100,102,43,86,904,342.0,626,466,60,121.0,726,1,436,595,244,0,0,389,3327,19125,342,-5.59,,,,,,,,,,,,
192644,1564133361637,3,2.31,1.04,0.42,1.53,1.15,0.28,-0.27,1.16,-0,1,-2,0.39,10527,100,102,43,86,906,347.0,633,468,60,121.0,726,1,432,595,244,0,0,398,8841,6512,350,-5.59,44.68132,10.024553,29.77,175.1,0,0.0,-1,0.0,0.0,0,2.39,3.2107
192664,1564133361657,4,2.32,1.04,0.41,1.53,1.15,0.23,-0.2,1.18,0,4,-1,0.3,10445,100,102,43,86,906,355.0,617,468,60,122.0,726,1,428,527,244,0,0,420,3302,31796,355,-5.59,,,,,,,,,,,,
192684,1564133361677,2,2.32,1.04,0.41,1.53,1.15,0.23,-0.11,1.26,0,5,-1,0.26,10313,100,102,43,86,903,362.0,605,465,60,122.0,726,1,414,595,244,0,0,437,-29302,20625,362,-5.59,,,,,,,,,,,,
192704,1564133361697,2,2.32,1.04,0.41,1.53,1.16,0.25,-0.14,1.28,-0,4,-1,0.28,10140,100,103,43,86,899,370.0,605,467,60,122.0,726,1,407,605,244,0,0,461,0,-8985,370,-5.59,,,,,,,,,,,,
192724,1564133361717,1,2.32,1.03,0.42,1.52,1.16,0.38,-0.23,1.35,-1,4,-1,0.45,10048,100,102,43,86,895,379.0,596,470,60,122.0,620,1,399,595,232,0,0,466,2278,-6441,379,-5.59,,,,,,,,,,,,
192744,1564133361737,1,2.32,1.03,0.42,1.53,1.15,0.36,-0.09,1.4,-1,4,-2,0.37,9837,100,102,43,86,891,385.0,582,468,60,122.0,620,1,404,591,232,0,0,494,-6475,-32248,384,-5.59,44.681309,10.024551,33.23,175.1,0,0.0,-1,0.0,0.0,0,2.39,3.2124
192764,1564133361757,1,2.31,1.04,0.41,1.52,1.14,0.44,-0.1,1.44,-1,2,-2,0.45,9709,100,103,43,86,884,394.0,581,464,60,122.0,620,1,409,597,232,0,0,550,1,-22519,394,-5.59,,,,,,,,,,,,
192784,1564133361777,2,2.31,1.03,0.42,1.52,1.15,0.37,-0.1,1.44,-1,3,-3,0.39,9755,100,102,43,87,877,402.0,565,471,60,122.0,620,1,408,603,232,0,0,533,6512,-22519,402,-5.59,,,,,,,,,,,,
192804,1564133361797,0,2.31,1.03,0.42,1.52,1.15,0.32,-0.2,1.49,-1,4,-2,0.38,9811,100,103,43,87,871,409.0,567,465,60,122.0,620,1,405,616,232,0,0,499,2524,771,409,-5.59,,,,,,,,,,,,
192824,1564133361817,2,2.31,1.03,0.42,1.53,1.15,0.18,-0.17,1.46,-1,4,-2,0.25,9684,100,103,43,86,867,418.0,568,470,60,122.0,541,1,410,598,223,0,0,513,18584,-22519,418,-5.59,,,,,,,,,,,,
192844,1564133361837,1,2.31,1.03,0.41,1.53,1.15,0.2,-0.16,1.43,-0,4,-1,0.26,9650,100,102,43,87,862,424.0,567,463,60,122.0,541,1,413,599,223,0,0,532,-4082,-32248,426,-5.59,44.681301,10.024549,37.25,175.0,0,0.0,-1,0.0,0.0,0,2.39,3.2141
192864,1564133361857,3,2.31,1.03,0.41,1.53,1.15,0.18,-0.12,1.35,0,4,-0,0.22,9786,100,102,43,87,856,433.0,568,467,60,122.0,541,1,406,605,223,0,0,529,-3322,-6528,433,-5.59,,,,,,,,,,,,
192884,1564133361877,1,2.31,1.04,0.42,1.52,1.16,0.3,-0.15,1.42,0,1,0,0.34,9827,100,103,43,86,853,442.0,577,464,60,122.0,541,1,404,601,223,0,0,508,26704,-22519,442,-5.59,,,,,,,,,,,,
192904,1564133361897,3,2.31,1.03,0.41,1.52,1.15,0.27,-0.05,1.43,0,3,-0,0.28,9740,100,102,43,86,851,448.0,573,470,60,122.0,541,1,408,588,223,0,0,514,8488,-28648,451,-5.59,,,,,,,,,,,,
192924,1564133361917,-0,2.31,1.04,0.42,1.52,1.15,0.39,-0.09,1.45,0,1,1,0.4,9750,100,103,43,87,848,457.0,577,463,60,122.0,503,1,408,598,227,0,0,528,2524,2109,457,-5.59,,,,,,,,,,,,
192944,1564133361937,2,2.32,1.04,0.41,1.53,1.15,0.23,-0.09,1.45,0,3,-0,0.24,9760,100,102,43,86,845,465.0,567,472,60,122.0,503,1,407,588,227,0,0,513,2211,-4054,465,-5.59,44.681294,10.024548,40.94,175.0,0,0.0,-1,0.0,0.0,0,2.39,3.2157
192964,1564133361957,1,2.31,1.03,0.41,1.53,1.16,0.31,-0.15,1.5,0,4,-0,0.34,9684,100,103,43,87,842,470.0,566,461,60,122.0,503,1,411,611,227,0,0,524,-16384,-9072,470,-5.59,,,,,,,,,,,,
192984,1564133361977,2,2.31,1.04,0.41,1.53,1.15,0.11,-0.09,1.39,0,6,1,0.14,9645,100,102,43,86,840,480.0,546,470,60,122.0,503,1,412,586,227,0,0,522,-23367,15679,480,-5.59,,,,,,,,,,,,
193004,1564133361997,1,2.31,1.04,0.42,1.52,1.16,0.26,-0.21,1.39,-0,4,-0,0.33,9654,100,102,43,87,839,485.0,550,464,60,122.0,503,1,412,599,227,0,0,515,-10483,1341,487,-5.59,,,,,,,,,,,,
193024,1564133362009,1,2.31,1.03,0.41,1.53,1.15,0.25,-0.08,1.29,0,2,1,0.26,9674,100,103,43,87,839,492.0,548,466,60,122.0,448,1,411,610,219,0,0,527,248,1248,494,-5.59,,,,,,,,,,,,
193044,1564133362029,1,2.31,1.04,0.41,1.53,1.15,0.38,-0.21,1.36,-0,-0,1,0.43,9775,100,102,43,86,840,499.0,569,468,60,123.0,448,1,406,590,219,0,0,533,-22519,2524,499,-5.59,44.681282,10.024546,44.81,174.9,0,0.0,-1,0.0,0.0,0,2.4,3.2174
193064,1564133362049,3,2.31,1.04,0.41,1.53,1.15,0.33,-0.07,1.39,-0,2,2,0.34,9899,100,103,43,86,841,505.0,568,467,60,122.0,448,1,402,603,219,0,0,528,-32248,2524,505,-5.59,,,,,,,,,,,,
193084,1564133362069,1,2.32,1.04,0.41,1.54,1.15,0.43,-0.13,1.39,-1,2,-0,0.45,10005,100,102,43,86,844,510.0,581,461,60,122.0,448,1,396,595,219,0,0,534,-21872,-506,510,-5.59,,,,,,,,,,,,
193104,1564133362097,-0,2.32,1.03,0.42,1.53,1.16,0.47,-0.12,1.4,-1,1,0,0.48,10201,100,102,42,86,851,517.0,601,471,60,121.0,448,1,410,595,219,0,0,543,16383,2104,517,-5.59,,,,,,,,,,,,
193124,1564133362117,2,2.32,1.04,0.42,1.52,1.16,0.53,-0.04,1.46,-0,2,-0,0.53,10290,100,102,42,86,859,524.0,597,468,60,122.0,444,1,416,595,230,0,0,550,10408,-22359,524,-5.59,,,,,,,,,,,,
193144,1564133362137,3,2.31,1.04,0.41,1.54,1.15,0.64,-0.05,1.51,-0,-1,0,0.64,10451,100,102,42,86,864,530.0,600,466,60,122.0,444,1,428,595,230,0,0,556,6274,-9072,530,-5.59,44.681271,10.024544,48.91,174.9,0,0.0,-1,0.0,0.0,0,2.4,3.2191
193164,1564133362157,3,2.31,1.04,0.41,1.54,1.15,0.56,-0.18,1.55,-0,-0,1,0.59,10492,100,102,42,86,869,534.0,613,467,60,121.0,444,1,431,595,230,0,0,560,2104,-22359,535,-5.59,,,,,,,,,,,,
193184,1564133362177,3,2.31,1.04,0.42,1.53,1.16,0.54,-0.25,1.49,-0,2,0,0.6,10611,100,102,42,86,871,537.0,606,466,60,122.0,444,1,434,595,230,0,0,565,-30064,1,539,-5.59,,,,,,,,,,,,
193204,1564133362197,-0,2.31,1.03,0.42,1.53,1.15,0.61,-0.19,1.54,-0,2,0,0.64,10641,100,102,42,86,872,544.0,603,465,60,122.0,444,1,435,595,230,0,0,570,-2336,-30159,544,-5.59,,,,,,,,,,,,
193224,1564133362217,1,2.31,1.03,0.41,1.53,1.15,0.65,-0.12,1.58,0,0,1,0.66,10751,100,102,42,86,868,552.0,618,465,60,121.0,439,1,438,595,241,0,0,573,-28648,8488,552,-5.59,,,,,,,,,,,,
193244,1564133362237,1,2.31,1.04,0.42,1.53,1.16,0.6,-0.06,1.43,0,1,2,0.61,10782,100,103,42,86,863,554.0,625,468,60,122.0,439,1,439,605,241,0,0,578,2524,774,554,-5.59,44.681259,10.02454,51.4,174.9,0,0.0,-1,0.0,0.0,0,2.4,3.2207
193264,1564133362257,3,2.31,1.04,0.42,1.53,1.15,0.59,0.11,1.23,0,-1,2,0.6,10945,100,102,42,86,859,562.0,628,468,60,122.0,439,1,443,595,241,0,0,594,-32504,-4035,561,-5.59,,,,,,,,,,,,
193284,1564133362277,4,2.31,1.04,0.41,1.53,1.15,0.54,-0.1,1.31,-0,-1,0,0.55,11075,100,102,42,86,855,567.0,647,470,60,121.0,439,1,445,595,241,0,0,594,-30159,3472,567,-5.59,,,,,,,,,,,,
193304,1564133362297,2,2.3,1.04,0.41,1.53,1.15,0.54,0.1,1.37,-0,1,3,0.55,11167,100,102,42,86,855,571.0,648,467,60,122.0,439,1,444,595,241,0,0,600,1780,-3210,571,-5.59,,,,,,,,,,,,
193324,1564133362317,1,2.31,1.03,0.42,1.53,1.15,0.54,-0.01,1.28,-1,3,1,0.54,11308,100,102,42,86,856,577.0,651,465,60,121.0,426,1,442,595,245,0,0,597,259,-768,577,-5.59,,,,,,,,,,,,
193344,1564133362337,3,2.3,1.03,0.42,1.53,1.16,0.54,0.06,1.19,-0,2,1,0.54,11453,100,102,42,85,855,583.0,643,463,60,121.0,426,1,441,576,245,0,0,605,10432,19320,583,-5.59,44.681244,10.024538,54.18,174.9,0,0.0,-1,0.0,0.0,0,2.4,3.2224
193364,1564133362357,2,2.3,1.04,0.42,1.52,1.16,0.57,-0.0,1.27,-0,1,1,0.57,11538,100,103,42,85,855,590.0,641,465,60,122.0,426,1,440,586,245,0,0,614,-25872,-23055,590,-5.59,,,,,,,,,,,,
193384,1564133362377,2,2.29,1.04,0.42,1.53,1.15,0.59,0.01,1.13,-0,1,1,0.59,11595,100,102,42,85,853,595.0,648,464,60,120.0,426,1,440,577,245,0,0,625,-28648,-18357,595,-5.59,,,,,,,,,,,,
193404,1564133362397,4,2.3,1.04,0.41,1.53,1.15,0.51,0.06,1.08,-1,1,2,0.51,11602,100,102,42,85,853,598.0,650,467,60,122.0,426,1,440,578,245,0,0,618,23619,30721,598,-5.59,,,,,,,,,,,,
193424,1564133362417,4,2.29,1.03,0.41,1.53,1.16,0.5,-0.05,1.17,-2,2,1,0.5,11653,100,103,42,84,845,603.0,651,466,60,122.0,426,1,440,570,255,0,0,623,5344,-2836,603,-5.59,,,,,,,,,,,,
193444,1564133362437,1,2.29,1.04,0.41,1.53,1.16,0.46,-0.17,1.13,-2,4,1,0.49,11689,100,103,42,85,837,610.0,654,470,60,121.0,426,1,440,589,255,0,0,630,-23055,-2580,610,-5.59,44.681229,10.024534,56.81,174.9,0,0.0,-1,0.0,0.0,0,2.4,3.2241
193464,1564133362457,1,2.28,1.04,0.42,1.52,1.15,0.43,-0.26,1.03,-3,3,1,0.5,11777,100,102,42,85,830,612.0,653,470,60,121.0,426,1,440,513,255,0,0,635,-3446,-16046,612,-5.59,,,,,,,,,,,,
193484,1564133362477,2,2.28,1.04,0.42,1.52,1.16,0.4,-0.21,1.01,-3,1,1,0.45,11867,100,102,42,84,822,615.0,661,468,60,121.0,426,1,440,568,255,0,0,638,19304,24583,614,-5.59,,,,,,,,,,,,
193504,1564133362497,2,2.28,1.03,0.41,1.53,1.15,0.39,-0.09,0.95,-4,-1,1,0.4,11988,100,102,42,84,809,618.0,657,470,60,121.0,426,1,440,569,255,0,0,645,269,244,619,-5.59,,,,,,,,,,,,
193524,1564133362517,1,2.29,1.03,0.41,1.52,1.15,0.34,-0.02,0.81,-4,-0,0,0.34,12081,100,103,42,84,796,624.0,652,472,60,121.0,418,1,440,579,259,0,0,644,-16883,11776,624,-5.59,,,,,,,,,,,,
193544,1564133362537,3,2.28,1.04,0.42,1.52,1.16,0.29,-0.07,0.71,-4,-1,0,0.3,12112,100,102,42,84,788,627.0,646,471,60,121.0,418,1,440,569,259,0,0,662,20993,-388,625,-5.59,44.681217,10.024531,59.56,174.9,0,0.0,-1,0.0,0.0,0,2.4,3.2257
193564,1564133362557,3,2.29,1.03,0.41,1.52,1.15,0.26,-0.21,0.71,-5,-1,-1,0.34,12191,100,102,42,84,783,631.0,651,471,60,121.0,418,1,440,569,259,0,0,655,771,4909,631,-5.59,,,,,,,,,,,,
193584,1564133362577,0,2.29,1.03,0.42,1.52,1.15,0.21,-0.39,0.8,-5,2,-2,0.44,12246,100,102,42,84,774,635.0,662,472,60,120.0,418,1,440,569,259,0,0,655,-2580,-3578,635,-5.59,,,,,,,,,,,,
193604,1564133362596,4,2.29,1.04,0.41,1.53,1.15,0.25,-0.55,0.91,-5,3,-2,0.6,12278,100,102,42,84,765,639.0,655,468,60,121.0,418,1,440,569,259,0,0,659,24,-2345,638,-5.59,,,,,,,,,,,,
193624,1564133362616,2,2.28,1.03,0.41,1.53,1.15,0.28,-0.46,1.02,-5,2,-2,0.54,12400,100,102,42,84,759,644.0,656,471,60,121.0,416,1,440,569,266,0,0,666,4909,3543,641,-5.59,,,,,,,,,,,,
193644,1564133362636,2,2.29,1.04,0.41,1.53,1.16,0.3,-0.24,0.88,-4,2,-1,0.38,12592,100,102,42,84,754,646.0,652,465,60,121.0,416,1,440,569,266,0,0,667,-8429,-2345,645,-5.59,44.681202,10.024529,61.85,174.9,0,0.0,-1,0.0,0.0,0,2.4,3.2274
193664,1564133362656,5,2.29,1.03,0.41,1.53,1.15,0.32,-0.21,0.99,-4,3,-2,0.38,12668,100,102,42,84,748,652.0,655,466,60,121.0,416,1,440,569,266,0,0,666,-3488,6208,650,-5.59,,,,,,,,,,,,
193684,1564133362676,1,2.29,1.03,0.42,1.53,1.14,0.41,-0.31,1.01,-5,3,-3,0.51,12558,100,102,42,84,741,654.0,659,465,60,121.0,416,1,440,569,266,0,0,680,31988,16118,653,-5.59,,,,,,,,,,,,
193704,1564133362696,4,2.29,1.04,0.41,1.53,1.15,0.42,-0.23,0.92,-4,4,-3,0.48,12617,100,102,42,84,736,659.0,657,462,60,121.0,416,1,440,569,266,0,0,680,-10344,-26380,656,-5.59,,,,,,,,,,,,
193724,1564133362716,2,2.29,1.03,0.42,1.52,1.15,0.29,-0.07,0.92,-4,6,-3,0.29,12668,100,102,42,84,733,663.0,661,462,60,121.0,414,1,440,569,273,0,0,679,-2345,3543,660,-5.59,,,,,,,,,,,,
193744,1564133362736,7,2.29,1.03,0.41,1.52,1.14,0.41,-0.18,0.9,-4,7,-2,0.45,12789,100,102,42,84,732,666.0,675,468,60,120.0,414,1,440,569,273,0,0,686,1549,24,663,-5.59,44.681183,10.024525,63.03,174.9,0,0.0,-1,0.0,0.0,0,2.41,3.2291
193764,1564133362756,16,2.29,1.02,0.41,1.51,1.15,0.46,0.04,0.75,-4,5,-2,0.46,12860,81,102,42,83,734,662.0,668,467,60,121.0,414,1,440,485,273,0,0,679,-2826,14342,656,-5.59,,,,,,,,,,,,
193784,1564133362776,20,2.29,1.03,0.41,1.52,1.15,0.41,-0.12,0.76,-4,7,-3,0.43,12737,46,102,42,73,737,660.0,665,476,60,121.0,414,1,440,477,273,0,0,687,-10344,3543,653,-5.59,,,,,,,,,,,,
193804,1564133362798,20,2.29,1.02,0.41,1.51,1.15,0.47,-0.09,0.77,-4,4,-3,0.48,12319,25,102,42,61,741,661.0,665,473,60,122.0,414,1,440,408,273,0,0,685,-2345,-2826,658,-5.59,,,,,,,,,,,,
193824,1564133362818,27,2.29,1.02,0.41,1.52,1.14,0.52,0.08,0.66,-4,1,-3,0.53,11882,15,102,42,52,745,658.0,655,472,60,122.0,272,1,394,315,178,0,0,672,-3038,-3038,658,-5.59,,,,,,,,,,,,
193844,1564133362838,30,2.29,1.02,0.41,1.51,1.14,0.57,0.2,0.64,-3,-1,-2,0.6,11602,8,103,42,46,750,657.0,653,467,60,121.0,272,1,372,248,178,0,0,649,8958,4909,650,-5.59,44.681168,10.024522,65.59,175.0,0,0.0,-1,0.0,0.0,0,2.41,3.2307
193864,1564133362858,30,2.28,1.02,0.4,1.51,1.14,0.62,-0.01,0.71,-3,-3,-3,0.62,11398,6,103,42,41,753,646.0,649,467,60,122.0,272,1,335,233,178,0,0,640,4909,-2580,641,-5.59,,,,,,,,,,,,
193884,1564133362878,31,2.29,1.01,0.41,1.5,1.14,0.65,0.19,0.45,-3,-4,-3,0.68,11254,6,103,42,38,754,645.0,662,472,60,122.0,272,1,317,227,178,0,0,635,11566,-16883,638,-5.59,,,,,,,,,,,,
193904,1564133362896,24,2.29,1.01,0.41,1.5,1.14,0.79,-0.0,0.56,-3,-3,-4,0.79,11048,6,103,42,35,761,643.0,646,469,60,122.0,272,1,308,223,178,0,0,622,244,19304,638,-5.59,,,,,,,,,,,,
193924,1564133362916,21,2.29,1.02,0.41,1.5,1.14,0.78,0.2,0.49,-3,-2,-2,0.81,10806,6,103,42,34,778,644.0,657,470,60,122.0,144,1,305,220,92,0,0,619,11776,-28304,634,-5.59,,,,,,,,,,,,
193944,1564133362936,17,2.29,1.02,0.41,1.51,1.13,0.75,0.35,0.24,-3,-1,-2,0.83,10689,6,103,42,32,795,641.0,655,468,60,122.0,144,1,300,219,92,0,0,627,-3584,17740,634,-5.59,44.681152,10.024519,66.15,175.0,0,0.0,-1,0.0,0.0,0,2.41,3.2324
193964,1564133362956,16,2.29,1.01,0.41,1.5,1.14,0.79,0.47,0.11,-4,-1,-4,0.92,10623,6,103,42,31,812,635.0,647,468,60,123.0,144,1,295,217,92,0,0,594,-4876,-12040,627,-5.59,,,,,,,,,,,,
193984,1564133362976,15,2.28,1.02,0.4,1.5,1.13,0.77,0.46,-0.03,-4,-3,-5,0.9,10671,5,103,42,31,827,629.0,667,473,60,122.0,144,1,295,216,92,0,0,576,-14655,8488,623,-5.59,,,,,,,,,,,,
194004,1564133362996,12,2.29,1.02,0.4,1.51,1.13,0.83,0.22,0.01,-4,1,-6,0.86,10744,5,103,42,30,836,627.0,658,470,60,121.0,144,1,291,216,92,0,0,582,20993,2048,621,-5.59,,,,,,,,,,,,
194024,1564133363008,11,2.29,1.01,0.4,1.51,1.13,0.93,0.04,0.18,-4,0,-7,0.93,10726,6,103,42,29,842,620.0,662,465,60,121.0,139,1,287,214,86,0,0,603,19304,-1894,616,-5.59,,,,,,,,,,,,
194044,1564133363028,7,2.28,1.0,0.4,1.51,1.13,1.03,0.01,0.31,-4,-3,-6,1.03,10794,6,103,42,29,835,615.0,647,467,60,122.0,139,1,287,214,86,0,0,590,26688,-13043,612,-5.59,44.681137,10.024516,63.72,175.0,0,0.0,-1,0.0,0.0,0,2.41,3.2341
194064,1564133363048,7,2.28,1.01,0.4,1.5,1.13,0.98,0.18,0.26,-4,-2,-4,1.0,10794,7,103,42,28,823,611.0,650,470,60,121.0,139,1,282,213,86,0,0,584,1010,-28648,607,-5.59,,,,,,,,,,,,
194084,1564133363068,6,2.28,1.01,0.41,1.5,1.13,0.99,0.37,0.07,-4,-1,-4,1.06,10863,6,103,42,28,796,609.0,647,467,60,122.0,139,1,282,213,86,0,0,581,-30139,30208,605,-5.59,,,,,,,,,,,,
194104,1564133363098,6,2.28,1.01,0.41,1.5,1.14,0.96,0.14,0.07,-4,-2,-5,0.97,10813,7,103,42,27,768,605.0,628,464,60,122.0,139,1,278,211,86,0,0,577,-3820,30208,597,-5.59,,,,,,,,,,,,
194124,1564133363118,6,2.29,1.02,0.4,1.51,1.13,1.0,-0.03,0.25,-4,1,-6,1.0,10806,7,103,42,27,747,597.0,650,467,60,122.0,145,1,278,211,87,0,0,581,17344,-29984,597,-5.59,,,,,,,,,,,,
194144,1564133363138,6,2.28,1.02,0.4,1.51,1.14,1.05,0.05,0.29,-3,2,-5,1.05,10819,7,103,42,27,727,597.0,658,466,60,122.0,145,1,278,211,87,0,0,576,3472,10432,591,-5.59,44.681122,10.024513,61.44,175.1,0,0.0,-1,0.0,0.0,0,2.41,3.2357
194164,1564133363158,7,2.29,1.01,0.4,1.5,1.14,1.05,0.25,0.19,-2,-0,-4,1.08,10732,7,103,42,27,710,591.0,653,468,60,122.0,145,1,278,211,87,0,0,572,6273,-4035,589,-5.59,,,,,,,,,,,,
194184,1564133363178,7,2.29,1.01,0.41,1.51,1.14,1.0,0.4,0.09,-3,-2,-3,1.07,10726,7,103,42,27,692,588.0,661,470,60,122.0,145,1,278,211,87,0,0,577,2048,259,587,-5.59,,,,,,,,,,,,
194204,1564133363198,7,2.29,1.01,0.4,1.5,1.14,0.91,0.33,-0.05,-3,2,-4,0.96,10635,7,103,42,27,694,586.0,641,470,60,122.0,145,1,278,211,87,0,0,568,-1894,-3190,583,-5.59,,,,,,,,,,,,
194224,1564133363218,9,2.29,1.02,0.4,1.51,1.14,0.96,0.21,-0.05,-3,1,-5,0.98,10623,7,103,42,27,696,581.0,642,470,60,122.0,146,1,278,211,85,0,0,571,-3210,-28648,581,-5.59,,,,,,,,,,,,
194244,1564133363238,9,2.3,1.02,0.4,1.5,1.14,0.97,0.07,0.06,-3,-2,-6,0.98,10569,7,103,42,27,707,576.0,646,468,60,122.0,146,1,278,211,85,0,0,563,1,-8186,576,-5.59,44.681103,10.024511,59.16,175.1,0,0.0,-1,0.0,0.0,0,2.41,3.2374
194264,1564133363258,9,2.29,1.01,0.4,1.5,1.14,0.91,-0.09,0.13,-3,0,-8,0.91,10463,7,103,42,27,718,571.0,636,466,60,120.0,146,1,278,211,85,0,0,555,1760,-30159,572,-5.59,,,,,,,,,,,,
194284,1564133363278,10,2.29,1.02,0.4,1.51,1.14,0.96,-0.23,0.1,-3,2,-9,0.99,10399,7,103,42,27,727,570.0,613,465,60,122.0,146,1,278,206,85,0,0,556,-3190,-32504,568,-5.59,,,,,,,,,,,,
194304,1564133363298,10,2.29,1.02,0.41,1.5,1.14,0.87,-0.28,0.06,-3,-0,-8,0.91,10364,7,103,42,27,735,565.0,635,463,60,122.0,146,1,278,205,85,0,0,551,-30159,-9072,567,-5.59,,,,,,,,,,,,
194324,1564133363318,9,2.29,1.02,0.4,1.5,1.13,0.84,-0.17,-0.05,-4,1,-9,0.86,10240,7,103,42,27,748,564.0,642,470,60,122.0,141,1,278,202,80,0,0,550,-23623,-8962,560,-5.59,,,,,,,,,,,,
194344,1564133363338,8,2.29,1.02,0.4,1.52,1.14,0.96,0.05,-0.19,-3,0,-7,0.96,10212,7,103,42,27,761,560.0,645,472,60,123.0,141,1,278,201,80,0,0,551,-28648,-8962,557,-5.59,44.681091,10.024509,57.9,175.1,0,0.0,-1,0.0,0.0,0,2.42,3.2391
194364,1564133363358,8,2.3,1.02,0.41,1.51,1.14,0.98,0.14,-0.09,-2,-0,-6,0.99,10091,7,103,41,27,769,557.0,644,472,60,122.0,141,1,278,197,80,0,0,537,2216,2524,555,-5.59,,,,,,,,,,,,
194384,1564133363378,6,2.3,1.02,0.41,1.5,1.15,1.08,-0.0,0.08,-3,0,-6,1.08,10064,7,103,41,26,774,553.0,636,468,60,121.0,141,1,274,193,80,0,0,543,-9072,-22519,553,-5.59,,,,,,,,,,,,
194404,1564133363398,4,2.3,1.02,0.41,1.5,1.15,1.01,0.06,0.05,-3,-1,-6,1.02,10021,7,103,42,26,786,550.0,633,470,60,122.0,141,1,274,191,80,0,0,539,-32248,-32248,550,-5.59,,,,,,,,,,,,
194424,1564133363418,2,2.29,1.02,0.41,1.52,1.15,1.05,0.24,-0.03,-2,1,-5,1.07,9941,7,103,42,26,800,548.0,636,465,60,122.0,131,1,274,191,72,0,0,533,14504,2104,548,-5.59,,,,,,,,,,,,
194444,1564133363438,4,2.29,1.02,0.41,1.51,1.13,1.11,0.09,0.09,-2,-0,-5,1.11,9946,7,103,42,26,810,545.0,625,468,60,121.0,131,1,274,191,72,0,0,538,-8962,-2934,544,-5.59,44.681076,10.024508,55.73,175.2,0,0.0,-1,0.0,0.0,0,2.42,3.2407
194464,1564133363458,3,2.29,1.02,0.41,1.51,1.14,1.03,0.24,0.05,-2,-2,-5,1.06,9920,7,103,42,25,819,540.0,607,471,60,122.0,131,1,270,189,72,0,0,523,1780,-32248,540,-5.59,,,,,,,,,,,,
194484,1564133363478,4,2.29,1.03,0.41,1.52,1.14,1.13,0.19,0.15,-2,-0,-5,1.15,9837,7,103,42,25,834,538.0,620,471,60,122.0,131,1,270,189,72,0,0,521,-2934,6274,539,-5.59,,,,,,,,,,,,
194504,1564133363498,3,2.3,1.02,0.41,1.51,1.15,1.18,0.1,0.25,-2,-3,-4,1.19,9780,7,103,42,25,852,537.0,622,467,60,123.0,131,1,270,189,72,0,0,527,-30064,2088,535,-5.59,,,,,,,,,,,,
194524,1564133363518,4,2.29,1.02,0.41,1.51,1.14,1.23,0.09,0.2,-2,-1,-3,1.23,9765,7,103,42,24,865,534.0,608,468,60,122.0,130,1,270,189,70,0,0,519,-32248,2088,534,-5.59,,,,,,,,,,,,
194544,1564133363538,2,2.29,1.02,0.41,1.51,1.15,1.14,0.06,0.2,-2,-1,-4,1.15,9715,7,103,42,24,874,531.0,621,465,60,122.0,130,1,270,184,70,0,0,515,2524,15679,531,-5.59,44.681065,10.024507,54.38,175.2,0,0.0,-1,0.0,0.0,0,2.42,3.2424
194564,1564133363558,5,2.3,1.02,0.41,1.51,1.15,1.1,0.16,0.14,-2,-2,-3,1.11,9595,7,103,42,24,891,527.0,626,465,60,121.0,130,1,270,182,70,0,0,519,6274,-3856,526,-5.59,,,,,,,,,,,,
194584,1564133363578,4,2.29,1.02,0.41,1.52,1.14,1.05,0.27,0.11,-2,-2,-3,1.08,9551,7,103,42,24,913,524.0,621,473,60,122.0,130,1,270,182,70,0,0,513,10408,17136,523,-5.59,,,,,,,,,,,,
194604,1564133363598,5,2.29,1.02,0.41,1.51,1.14,1.09,0.14,0.13,-2,-1,-4,1.1,9493,7,103,42,24,930,521.0,604,472,60,122.0,130,1,270,181,70,0,0,510,-9212,26178,520,-5.59,,,,,,,,,,,,
194624,1564133363618,6,2.29,1.02,0.41,1.51,1.15,1.14,0.24,0.17,-2,-3,-3,1.16,9479,7,103,42,24,942,519.0,592,464,60,122.0,125,1,270,181,65,0,0,509,-8187,-32248,516,-5.59,,,,,,,,,,,,
194644,1564133363638,4,2.28,1.02,0.41,1.52,1.14,1.12,0.32,0.21,-2,-1,-4,1.16,9431,7,103,42,24,961,514.0,592,468,60,122.0,125,1,270,103,65,0,0,501,-3482,6274,510,-5.59,44.681049,10.024506,52.81,175.2,0,0.0,-1,0.0,0.0,0,2.42,3.2441
194664,1564133363658,6,2.28,1.02,0.41,1.52,1.13,1.08,0.31,0.18,-2,-2,-3,1.13,9384,7,103,42,24,987,510.0,605,472,60,122.0,125,1,270,181,65,0,0,498,-4054,998,508,-5.59,,,,,,,,,,,,
194684,1564133363678,6,2.28,1.02,0.41,1.51,1.13,1.11,0.34,0.2,-2,-1,-5,1.17,9314,7,103,42,24,1009,509.0,590,467,60,122.0,125,1,270,181,65,0,0,501,10994,-1818,506,-5.59,,,,,,,,,,,,
194704,1564133363697,7,2.28,1.02,0.4,1.51,1.14,1.2,0.42,0.24,-2,-3,-4,1.27,9177,7,103,42,25,1023,506.0,606,471,60,121.0,125,1,270,181,65,0,0,500,-28648,1,504,-5.59,,,,,,,,,,,,
194724,1564133363717,8,2.27,1.02,0.41,1.52,1.14,1.21,0.5,0.26,-2,-2,-5,1.31,9093,7,103,42,25,1041,504.0,587,466,60,122.0,126,1,270,189,63,0,0,494,-32248,-32768,500,-5.59,,,,,,,,,,,,
194744,1564133363737,7,2.27,1.02,0.41,1.52,1.14,1.22,0.53,0.21,-3,-4,-4,1.33,9036,7,103,42,25,1064,502.0,604,466,60,122.0,126,1,270,189,63,0,0,490,11560,505,498,-5.59,44.681038,10.024504,51.18,175.3,0,0.0,-1,0.0,0.0,0,2.42,3.2457
194764,1564133363757,7,2.27,1.02,0.41,1.51,1.15,1.09,0.57,0.11,-3,-4,-4,1.23,8988,7,103,42,25,1084,498.0,590,466,60,122.0,126,1,270,189,63,0,0,484,3,3580,491,-5.59,,,,,,,,,,,,
194784,1564133363777,7,2.27,1.03,0.41,1.51,1.14,0.99,0.53,0.06,-3,-4,-4,1.12,8945,7,103,42,25,1092,492.0,605,466,60,122.0,126,1,270,189,63,0,0,483,-32768,2212,490,-5.59,,,,,,,,,,,,
194804,1564133363797,7,2.26,1.02,0.41,1.51,1.14,0.91,0.55,0.0,-3,-4,-5,1.06,8903,7,103,42,26,1101,491.0,602,472,60,121.0,126,1,274,189,63,0,0,480,248,-17956,486,-5.59,,,,,,,,,,,,
194824,1564133363817,6,2.25,1.02,0.41,1.51,1.14,0.91,0.59,0.04,-3,-5,-4,1.09,8865,7,103,42,26,1113,487.0,575,463,60,122.0,132,1,274,189,64,0,0,474,505,-9203,481,-5.59,,,,,,,,,,,,
194844,1564133363837,7,2.25,1.01,0.4,1.51,1.14,1.0,0.63,0.15,-4,-6,-6,1.18,8819,7,103,42,26,1123,486.0,576,472,60,122.0,132,1,274,189,64,0,0,474,-6441,32033,478,-5.59,44.681023,10.024504,49.7,175.3,0,0.0,-1,0.0,0.0,0,2.42,3.2474
194864,1564133363857,6,2.25,1.02,0.41,1.51,1.14,1.1,0.66,0.27,-4,-6,-6,1.28,8761,7,103,42,25,1126,484.0,563,469,60,123.0,132,1,270,189,64,0,0,477,-10483,243,476,-5.59,,,,,,,,,,,,
194884,1564133363877,5,2.24,1.02,0.41,1.51,1.14,1.19,0.63,0.36,-5,-5,-6,1.34,8749,7,103,42,25,1128,478.0,565,468,60,123.0,132,1,270,189,64,0,0,472,16648,243,470,-5.59,,,,,,,,,,,,
194904,1564133363897,8,2.23,1.01,0.4,1.51,1.13,1.14,0.56,0.33,-5,-5,-6,1.27,8688,7,103,42,25,1127,478.0,561,469,60,123.0,132,1,270,189,64,0,0,468,3576,17628,468,-5.59,,,,,,,,,,,,
194924,1564133363917,7,2.22,1.02,0.41,1.51,1.13,1.06,0.53,0.24,-6,-4,-7,1.19,8628,7,103,42,25,1126,473.0,566,465,60,122.0,132,1,270,189,62,0,0,467,3576,2211,463,-5.59,,,,,,,,,,,,
194944,1564133363937,6,2.22,1.02,0.4,1.51,1.13,1.09,0.6,0.19,-6,-5,-7,1.25,8565,7,103,42,25,1122,471.0,567,466,60,122.0,132,1,270,189,62,0,0,458,32033,-8985,460,-5.59,44.681011,10.024503,48.04,175.3,0,0.0,-1,0.0,0.0,0,2.43,3.2491
194964,1564133363957,4,2.21,1.02,0.41,1.51,1.13,1.16,0.55,0.3,-7,-3,-8,1.28,8476,7,103,42,25,1115,470.0,565,466,60,123.0,132,1,270,187,62,0,0,459,10432,2524,458,-5.59,,,,,,,,,,,,
194984,1564133363977,6,2.19,1.02,0.4,1.5,1.13,1.05,0.51,0.25,-8,-2,-8,1.17,8442,7,103,42,24,1098,469.0,560,469,60,123.0,132,1,270,179,62,0,0,460,10432,8488,454,-5.59,,,,,,,,,,,,
195004,1564133363997,4,2.19,1.01,0.41,1.5,1.14,1.13,0.53,0.24,-9,-3,-8,1.25,8465,7,103,42,24,1081,467.0,565,467,60,123.0,132,1,270,179,62,0,0,459,243,-18341,451,-5.59,,,,,,,,,,,,
195024,1564133364009,7,2.18,1.01,0.41,1.5,1.14,1.09,0.48,0.23,-9,-2,-9,1.19,8449,7,103,42,24,1068,464.0,550,470,60,123.0,126,1,270,179,57,0,0,457,16408,-18341,448,-5.59,,,,,,,,,,,,
195044,1564133364029,4,2.17,1.01,0.41,1.5,1.13,1.03,0.51,0.17,-10,-2,-9,1.15,8423,7,103,42,24,1056,461.0,558,467,60,122.0,126,1,270,178,57,0,0,458,2211,-768,444,-5.59,44.681,10.024502,46.69,175.3,0,0.0,-1,0.0,0.0,0,2.43,3.2507
195064,1564133364049,3,2.16,1.01,0.41,1.49,1.13,1.12,0.53,0.23,-11,-0,-11,1.24,8325,7,103,42,24,1004,460.0,548,466,60,123.0,126,1,270,173,57,0,0,460,-23623,243,438,-5.59,,,,,,,,,,,,
195084,1564133364069,4,2.16,1.01,0.4,1.49,1.13,1.05,0.58,0.15,-12,1,-11,1.2,8241,7,103,42,24,954,459.0,530,468,60,123.0,126,1,270,168,57,0,0,457,-18108,-768,436,-5.59,,,,,,,,,,,,
195104,1564133364097,2,2.15,1.0,0.4,1.49,1.13,1.15,0.66,0.22,-14,1,-12,1.33,8227,7,103,43,24,915,461.0,533,468,60,123.0,126,1,270,167,57,0,0,458,-18108,243,433,-5.59,,,,,,,,,,,,
195124,1564133364117,3,2.14,1.01,0.4,1.49,1.12,1.08,0.71,0.16,-15,-2,-14,1.3,8180,8,103,43,24,877,458.0,532,470,60,123.0,120,1,270,165,52,0,0,451,17628,-3856,431,-5.59,,,,,,,,,,,,
195144,1564133364137,-0,2.12,1.0,0.4,1.48,1.13,1.06,0.71,0.16,-15,-0,-14,1.28,8088,7,103,43,24,840,455.0,528,467,60,123.0,120,1,270,160,52,0,0,454,14488,-8165,429,-5.59,44.680988,10.024501,44.36,175.4,0,0.0,-1,0.0,0.0,0,2.43,3.2524
195164,1564133364157,2,2.12,1.01,0.4,1.49,1.13,1.07,0.77,0.16,-16,-2,-14,1.32,8050,7,103,43,24,803,453.0,539,466,60,122.0,120,1,270,159,52,0,0,446,-8985,-8165,426,-5.59,,,,,,,,,,,,
195184,1564133364177,3,2.11,1.0,0.39,1.49,1.12,0.95,0.81,0.11,-16,-2,-18,1.25,8078,8,103,43,24,794,452.0,533,466,60,123.0,120,1,270,160,52,0,0,449,3571,18584,424,-5.59,,,,,,,,,,,,
195204,1564133364197,-1,2.11,1.0,0.39,1.49,1.13,1.02,0.82,0.19,-17,-1,-18,1.31,8012,8,103,43,25,795,449.0,535,467,60,123.0,120,1,270,159,52,0,0,445,15649,-26615,422,-5.59,,,,,,,,,,,,
195224,1564133364217,0,2.1,1.0,0.4,1.49,1.12,1.03,0.85,0.2,-18,-2,-19,1.33,7982,8,103,43,25,804,447.0,546,466,60,123.0,114,1,269,159,48,0,0,441,10305,-9166,419,-5.59,,,,,,,,,,,,
195244,1564133364237,3,2.1,1.0,0.4,1.49,1.13,0.96,0.87,0.22,-18,-2,-22,1.3,7982,8,103,43,25,814,449.0,525,467,60,122.0,114,1,269,159,48,0,0,443,15649,13040,414,-5.59,44.680977,10.024502,43.05,175.4,0,0.0,-1,0.0,0.0,0,2.43,3.2541
195264,1564133364257,-2,2.1,1.0,0.4,1.48,1.13,0.99,0.79,0.31,-19,-1,-23,1.27,7928,8,103,43,25,824,448.0,526,464,60,123.0,114,1,269,159,48,0,0,442,10305,9517,413,-5.59,,,,,,,,,,,,
195284,1564133364277,1,2.09,1.01,0.4,1.48,1.13,1.03,0.79,0.35,-20,-2,-24,1.3,7858,8,103,43,25,834,446.0,529,467,60,122.0,114,1,268,159,48,0,0,438,16648,10541,411,-5.59,,,,,,,,,,,,
195304,1564133364297,1,2.08,1.0,0.4,1.49,1.13,0.99,0.85,0.25,-21,-4,-26,1.31,7864,8,103,43,25,844,445.0,511,465,60,123.0,114,1,268,160,48,0,0,437,2131,10541,411,-5.59,,,,,,,,,,,,
195324,1564133364317,3,2.07,1.0,0.4,1.49,1.12,0.95,0.89,0.24,-21,-2,-26,1.3,7799,8,103,43,25,855,442.0,505,466,60,123.0,114,1,267,160,47,0,0,440,20625,6384,408,-5.59,,,,,,,,,,,,
195344,1564133364337,3,2.06,1.0,0.4,1.49,1.13,0.98,0.87,0.34,-22,-3,-27,1.31,7773,8,103,43,26,859,439.0,509,466,60,123.0,114,1,270,160,47,0,0,435,-28332,-6656,406,-5.59,44.680965,10.024504,41.6,175.4,0,0.0,-1,0.0,0.0,0,2.43,3.2557
195364,1564133364357,-0,2.05,1.0,0.4,1.49,1.13,1.04,0.84,0.37,-23,-3,-28,1.34,7725,8,103,43,26,860,438.0,508,467,60,123.0,114,1,270,160,47,0,0,435,21580,-1818,403,-5.59,,,,,,,,,,,,
195384,1564133364377,-0,2.06,1.0,0.4,1.48,1.13,1.14,0.86,0.38,-24,-2,-28,1.43,7728,8,103,43,26,860,438.0,511,463,60,122.0,114,1,269,160,47,0,0,435,21580,-6524,401,-5.59,,,,,,,,,,,,
195404,1564133364398,-1,2.05,1.0,0.4,1.48,1.13,1.12,0.92,0.39,-25,-3,-28,1.45,7678,8,103,43,26,860,436.0,503,464,60,122.0,114,1,269,160,47,0,0,430,5600,-6524,398,-5.59,,,,,,,,,,,,
195424,1564133364418,-0,2.03,0.99,0.4,1.49,1.12,1.05,1.03,0.28,-26,-5,-30,1.47,7606,8,103,43,27,861,434.0,510,468,60,122.0,115,1,272,161,46,0,0,432,-768,-3866,396,-5.59,,,,,,,,,,,,
195444,1564133364438,1,2.03,0.99,0.4,1.49,1.12,0.98,1.05,0.21,-27,-6,-32,1.44,7603,8,103,43,27,860,436.0,506,466,60,122.0,115,1,272,161,46,0,0,431,5600,-6656,394,-5.59,44.680958,10.024506,41.42,175.5,0,0.0,-1,0.0,0.0,0,2.43,3.2574
195464,1564133364458,-0,2.04,1.0,0.4,1.48,1.13,0.88,1.14,0.12,-27,-5,-31,1.44,7524,8,103,43,27,861,435.0,497,466,60,122.0,115,1,272,161,46,0,0,433,-7939,-6656,395,-5.59,,,,,,,,,,,,
195484,1564133364478,1,2.04,1.0,0.4,1.49,1.13,0.85,1.17,0.14,-27,-5,-33,1.45,7521,8,103,43,27,863,434.0,498,466,60,123.0,115,1,272,161,46,0,0,425,243,770,392,-5.59,,,,,,,,,,,,
195504,1564133364497,1,2.03,1.0,0.4,1.48,1.12,0.8,1.24,0.06,-28,-6,-34,1.48,7458,7,103,43,27,864,432.0,492,465,60,123.0,115,1,271,161,46,0,0,425,-3322,2278,390,-5.59,,,,,,,,,,,,
195524,1564133364517,-0,2.04,1.0,0.39,1.48,1.13,0.77,1.24,0.06,-28,-6,-34,1.46,7482,8,103,43,28,866,429.0,490,464,60,123.0,115,1,275,163,45,0,0,424,3635,3,389,-5.59,,,,,,,,,,,,
195544,1564133364537,-0,2.04,1.0,0.39,1.48,1.13,0.72,1.32,0.03,-29,-6,-34,1.5,7437,8,103,43,28,865,429.0,503,468,60,122.0,115,1,275,163,45,0,0,425,13180,742,386,-5.59,44.680946,10.024508,40.63,175.5,0,0.0,-1,0.0,0.0,0,2.43,3.2591
195564,1564133364557,-0,2.02,1.0,0.4,1.49,1.12,0.64,1.33,0.01,-29,-6,-35,1.48,7440,8,103,43,28,864,427.0,492,467,60,122.0,115,1,275,163,45,0,0,424,31796,257,386,-5.59,,,,,,,,,,,,
195584,1564133364577,-1,2.04,1.0,0.39,1.48,1.12,0.67,1.33,0.01,-30,-7,-37,1.49,7396,20,103,43,29,862,425.0,487,468,60,121.0,115,1,278,166,45,0,0,425,-3856,-1268,385,-5.59,,,,,,,,,,,,
195604,1564133364598,-1,2.02,1.0,0.4,1.48,1.12,0.66,1.4,-0.09,-29,-8,-38,1.55,7419,34,103,43,34,859,422.0,486,466,60,122.0,115,1,295,179,45,0,0,420,-3414,-6656,384,-5.59,,,,,,,,,,,,
195624,1564133364618,-0,2.02,0.99,0.4,1.48,1.13,0.8,1.32,0.09,-30,-8,-39,1.54,7449,48,103,43,43,856,420.0,488,467,60,121.0,138,1,340,216,53,0,0,416,-3414,2278,380,-5.59,,,,,,,,,,,,
195644,1564133364638,0,2.03,0.99,0.4,1.48,1.13,0.86,1.3,0.12,-32,-7,-38,1.55,7482,58,103,43,53,854,422.0,486,465,60,121.0,138,1,387,256,53,0,0,418,-3414,1,380,-5.59,44.680939,10.024513,39.72,175.5,0,0.0,-1,0.0,0.0,0,2.43,3.2607
195664,1564133364658,1,2.02,0.99,0.4,1.49,1.13,0.84,1.3,0.15,-32,-8,-40,1.55,7437,63,103,43,64,853,421.0,491,468,60,121.0,138,1,428,315,53,0,0,423,-21792,257,378,-5.59,,,,,,,,,,,,
195684,1564133364678,-0,2.02,1.0,0.4,1.49,1.12,0.92,1.26,0.19,-32,-10,-42,1.56,7539,66,103,43,72,854,422.0,485,465,60,121.0,138,1,417,399,53,0,0,419,-21792,1,375,-5.59,,,,,,,,,,,,
195704,1564133364696,-1,2.02,1.0,0.4,1.49,1.12,1.01,1.16,0.24,-33,-9,-41,1.54,7542,66,103,43,78,856,418.0,488,465,60,123.0,138,1,411,463,53,0,0,416,-3414,257,374,-5.59,,,,,,,,,,,,
195724,1564133364716,1,2.01,1.0,0.39,1.49,1.13,1.05,1.24,0.26,-33,-10,-41,1.63,7735,66,103,43,80,862,414.0,492,465,60,123.0,358,1,422,480,134,0,0,412,2524,3,371,-5.59,,,,,,,,,,,,
195744,1564133364736,3,2.01,1.0,0.4,1.49,1.12,0.93,1.2,0.25,-32,-10,-43,1.52,7999,66,103,43,81,868,415.0,495,466,60,124.0,358,1,437,490,134,0,0,413,-26615,257,374,-5.59,44.680927,10.024519,38.8,175.5,0,0.0,-1,0.0,0.0,0,2.43,3.2624
195764,1564133364756,1,2.01,1.0,0.4,1.49,1.12,1.04,1.12,0.32,-32,-11,-44,1.52,8491,66,103,43,80,873,417.0,531,467,60,121.0,358,1,428,510,134,0,0,413,-21944,-18948,375,-5.59,,,,,,,,,,,,
195784,1564133364776,1,2.01,1.0,0.4,1.48,1.12,1.12,0.99,0.46,-33,-7,-44,1.49,8941,66,103,43,76,892,416.0,546,468,60,123.0,358,1,415,473,134,0,0,413,18584,257,373,-5.59,,,,,,,,,,,,
195804,1564133364796,2,2.03,1.0,0.4,1.49,1.12,1.21,0.89,0.61,-34,-4,-46,1.5,9079,67,103,43,74,965,424.0,567,465,60,122.0,358,1,413,438,134,0,0,428,13552,10305,376,-5.59,,,,,,,,,,,,
195824,1564133364816,-0,2.04,1.0,0.4,1.5,1.12,1.27,0.76,0.73,-33,-1,-48,1.48,8975,67,103,43,73,1036,431.0,560,471,60,123.0,398,1,414,429,150,0,0,450,1779,2524,376,-5.59,,,,,,,,,,,,
195844,1564133364836,2,2.03,1.0,0.4,1.49,1.13,1.24,0.63,0.77,-34,2,-48,1.4,8949,68,103,43,73,1104,431.0,555,465,60,122.0,398,1,415,429,150,0,0,465,1779,-26615,382,-5.59,44.68092,10.024526,36.95,175.5,0,0.0,-1,0.0,0.0,0,2.44,3.2641
195864,1564133364856,0,2.03,1.01,0.4,1.5,1.12,1.11,0.56,0.89,-35,7,-48,1.24,8749,68,103,43,73,1171,439.0,547,470,60,123.0,398,1,422,429,150,0,0,452,-28332,20625,387,-5.59,,,,,,,,,,,,
195884,1564133364876,3,2.03,1.01,0.4,1.5,1.13,0.92,0.64,1.0,-35,6,-47,1.12,8411,68,103,43,74,1221,441.0,530,468,60,123.0,398,1,431,436,150,0,0,465,26704,2212,391,-5.59,,,,,,,,,,,,
195904,1564133364896,-0,2.03,1.01,0.39,1.49,1.12,1.02,0.54,1.1,-36,8,-49,1.15,8230,68,103,43,75,1270,443.0,510,467,60,122.0,398,1,435,364,150,0,0,455,20625,-3322,393,-5.59,,,,,,,,,,,,
195924,1564133364916,2,2.02,1.01,0.4,1.49,1.13,0.88,0.64,0.99,-34,6,-48,1.09,8234,68,103,43,77,1255,437.0,521,467,60,122.0,358,1,433,463,141,0,0,453,19477,-6387,387,-5.59,,,,,,,,,,,,
195944,1564133364936,1,2.01,1.0,0.4,1.49,1.12,0.96,0.66,1.03,-32,3,-48,1.16,8318,68,103,43,78,1237,435.0,528,463,60,122.0,358,1,431,479,141,0,0,453,-7939,18584,388,-5.59,44.680912,10.024533,37.77,175.5,0,0.0,-1,0.0,0.0,0,2.44,3.2657
195964,1564133364956,3,2.01,1.0,0.39,1.49,1.13,0.8,0.79,0.91,-31,1,-45,1.13,8322,67,103,43,77,1246,433.0,520,463,60,123.0,358,1,431,479,141,0,0,456,243,-768,405,-5.59,,,,,,,,,,,,
195984,1564133364976,2,2.02,1.0,0.4,1.48,1.13,0.91,0.81,0.89,-32,1,-44,1.22,8340,68,103,44,78,1256,441.0,529,466,60,122.0,358,1,430,547,141,0,0,451,26704,-21872,408,-5.59,,,,,,,,,,,,
196004,1564133364996,-1,2.05,1.0,0.4,1.48,1.13,0.8,0.79,0.88,-32,0,-42,1.13,8557,69,103,44,78,1278,447.0,524,464,60,123.0,358,1,425,408,141,0,0,453,10305,10432,408,-5.59,,,,,,,,,,,,
196024,1564133365008,2,2.06,1.0,0.4,1.48,1.13,0.7,0.77,0.88,-32,-1,-42,1.04,8937,68,103,43,76,1306,451.0,552,465,60,122.0,425,1,415,507,174,0,0,461,3571,16648,410,-5.59,,,,,,,,,,,,
196044,1564133365028,1,2.08,1.0,0.4,1.49,1.13,0.43,0.81,0.87,-31,1,-42,0.91,9137,69,103,43,75,1309,455.0,567,465,60,123.0,425,1,413,473,174,0,0,478,-26615,-3856,410,-5.59,44.680904,10.024543,39.48,175.5,0,0.0,-1,0.0,0.0,0,2.44,3.2674
196064,1564133365048,1,2.09,1.01,0.39,1.49,1.13,0.33,0.75,0.89,-31,1,-42,0.82,9342,68,103,44,74,1309,461.0,564,463,60,123.0,425,1,415,360,174,0,0,494,2211,-3482,413,-5.59,,,,,,,,,,,,
196084,1564133365068,3,2.08,1.0,0.4,1.5,1.12,0.5,0.58,1.0,-32,2,-45,0.77,9479,68,103,44,73,1290,464.0,566,478,60,122.0,425,1,415,439,174,0,0,491,16408,8488,416,-5.59,,,,,,,,,,,,
196104,1564133365098,0,2.07,1.0,0.39,1.49,1.13,0.45,0.71,0.97,-33,2,-44,0.84,9527,68,103,44,72,1263,470.0,573,464,60,122.0,425,1,415,421,174,0,0,499,8488,-6656,421,-5.59,,,,,,,,,,,,
196124,1564133365118,-0,2.08,1.0,0.4,1.5,1.13,0.28,0.84,0.96,-33,2,-42,0.89,9469,64,103,44,71,1226,473.0,572,465,60,122.0,347,1,415,406,146,0,0,496,3576,-32248,421,-5.59,,,,,,,,,,,,
196144,1564133365138,2,2.07,1.0,0.4,1.49,1.12,0.45,0.73,1.06,-34,3,-44,0.86,9393,62,103,44,69,1184,474.0,562,472,60,122.0,347,1,414,387,146,0,0,502,-9203,-21872,423,-5.59,44.680897,10.024553,41.92,175.5,0,0.0,-1,0.0,0.0,0,2.44,3.2691
196164,1564133365158,2,2.08,1.0,0.4,1.49,1.13,0.61,0.71,1.0,-35,2,-43,0.94,9231,61,103,43,68,1161,476.0,581,470,60,122.0,347,1,414,381,146,0,0,528,-23367,8488,425,-5.59,,,,,,,,,,,,
196184,1564133365178,3,2.08,1.0,0.39,1.48,1.12,0.58,0.84,0.88,-34,-0,-41,1.02,8984,61,103,43,68,1146,479.0,567,466,60,122.0,347,1,414,381,146,0,0,528,10305,15661,425,-5.59,,,,,,,,,,,,
196204,1564133365198,1,2.08,1.0,0.4,1.48,1.13,0.71,0.96,0.85,-34,-2,-42,1.2,8882,60,103,44,68,1141,482.0,551,465,60,122.0,347,1,418,303,146,0,0,528,-899,3,424,-5.59,,,,,,,,,,,,
196224,1564133365218,2,2.09,0.99,0.4,1.48,1.13,0.76,1.04,0.78,-33,-5,-42,1.29,8915,59,103,43,67,1138,481.0,563,463,60,122.0,300,1,415,377,128,0,0,528,32033,6193,439,-5.59,,,,,,,,,,,,
196244,1564133365238,1,2.09,1.0,0.39,1.49,1.12,0.89,1.05,0.74,-33,-5,-41,1.38,8975,40,103,43,67,1142,481.0,562,468,60,123.0,300,1,411,377,128,0,0,528,32033,-17956,441,-5.59,44.680889,10.024565,43.45,175.6,0,0.0,-1,0.0,0.0,0,2.44,3.2707
196264,1564133365258,2,2.08,1.0,0.39,1.49,1.12,0.96,1.11,0.64,-33,-7,-41,1.47,9115,59,103,43,67,1154,483.0,556,464,60,122.0,300,1,411,430,128,0,0,482,3580,6274,446,-5.59,,,,,,,,,,,,
196284,1564133365278,3,2.09,1.0,0.39,1.49,1.12,1.0,1.2,0.51,-33,-8,-40,1.57,9337,59,103,43,66,1181,482.0,575,461,60,121.0,300,1,413,415,128,0,0,489,-899,-9216,448,-5.59,,,,,,,,,,,,
196304,1564133365298,1,2.08,1.0,0.39,1.49,1.12,0.86,1.24,0.46,-31,-5,-38,1.51,9566,59,103,43,65,1220,485.0,573,472,60,122.0,300,1,414,413,128,0,0,496,-6441,-32248,453,-5.59,,,,,,,,,,,,
196324,1564133365318,2,2.09,1.01,0.39,1.5,1.13,0.82,1.26,0.49,-31,-6,-39,1.51,9740,59,103,43,64,1253,492.0,585,463,60,121.0,328,1,410,414,149,0,0,501,-32768,14504,452,-5.59,,,,,,,,,,,,
196344,1564133365338,0,2.09,1.0,0.4,1.49,1.13,0.71,1.27,0.46,-30,-5,-37,1.45,9847,59,103,43,64,1279,493.0,585,470,60,122.0,328,1,408,408,149,0,0,512,248,-32248,454,-5.59,44.680885,10.024578,45.62,175.7,0,0.0,-1,0.0,0.0,0,2.44,3.2724
196364,1564133365358,3,2.08,1.01,0.4,1.49,1.12,0.74,1.28,0.53,-31,-6,-38,1.48,9858,58,103,43,63,1290,494.0,581,465,60,122.0,328,1,409,437,149,0,0,518,-6528,2524,457,-5.59,,,,,,,,,,,,
196384,1564133365378,3,2.09,1.0,0.4,1.49,1.13,0.78,1.34,0.62,-31,-6,-39,1.55,9884,59,103,43,63,1286,499.0,589,465,60,123.0,328,1,408,423,149,0,0,529,-22519,-8187,457,-5.59,,,,,,,,,,,,
196404,1564133365398,1,2.09,1.0,0.4,1.49,1.12,0.73,1.41,0.51,-32,-6,-38,1.59,9910,59,103,43,62,1274,503.0,593,467,60,123.0,328,1,409,414,149,0,0,526,2109,-22519,460,-5.59,,,,,,,,,,,,
196424,1564133365418,3,2.08,1.01,0.4,1.49,1.12,0.82,1.35,0.66,-32,-5,-37,1.58,9821,59,103,43,62,1244,506.0,630,467,60,122.0,335,1,410,401,154,0,0,530,-28648,-4054,463,-5.59,,,,,,,,,,,,
196444,1564133365438,-0,2.09,1.0,0.4,1.49,1.12,0.75,1.4,0.59,-33,-5,-37,1.58,9760,59,103,43,63,1208,510.0,605,466,60,123.0,335,1,411,385,154,0,0,530,-4054,-8186,465,-5.59,44.680882,10.024592,46.67,175.7,0,0.0,-1,0.0,0.0,0,2.44,3.2741
196464,1564133365458,3,2.08,1.01,0.4,1.5,1.12,0.88,1.28,0.73,-33,-4,-37,1.55,9780,59,103,43,62,1165,511.0,613,468,60,121.0,335,1,411,384,154,0,0,531,-3856,-8186,466,-5.59,,,,,,,,,,,,
196484,1564133365478,1,2.09,1.0,0.4,1.49,1.13,0.73,1.28,0.67,-33,-2,-37,1.47,9842,59,103,43,62,1130,512.0,601,466,60,122.0,335,1,410,376,154,0,0,535,17136,1341,469,-5.59,,,,,,,,,,,,
196504,1564133365498,3,2.08,1.0,0.4,1.48,1.13,0.78,1.2,0.78,-32,-3,-37,1.43,9863,59,103,43,62,1117,516.0,607,468,60,122.0,335,1,410,378,154,0,0,530,16383,2524,472,-5.59,,,,,,,,,,,,
196524,1564133365518,2,2.08,1.0,0.39,1.49,1.12,0.71,1.15,0.74,-32,-1,-37,1.35,9904,58,103,43,62,1104,517.0,606,463,60,122.0,300,1,409,379,142,0,0,537,15679,-8962,474,-5.59,,,,,,,,,,,,
196544,1564133365538,1,2.08,1.0,0.39,1.49,1.12,0.62,1.16,0.62,-32,-2,-38,1.31,10037,59,103,43,62,1091,523.0,607,463,60,123.0,300,1,410,386,142,0,0,538,-22519,-30064,483,-5.59,44.680874,10.024608,47.89,175.7,0,0.0,-1,0.0,0.0,0,2.44,3.2757
196564,1564133365558,2,2.09,1.0,0.39,1.49,1.12,0.66,1.14,0.73,-32,-0,-38,1.32,10124,59,103,43,62,1080,526.0,608,470,60,121.0,300,1,418,388,142,0,0,543,-32248,1780,484,-5.59,,,,,,,,,,,,
196584,1564133365578,1,2.09,1.0,0.4,1.49,1.12,0.72,1.07,0.78,-32,0,-38,1.29,10257,58,103,43,62,1080,529.0,601,471,60,122.0,300,1,429,390,142,0,0,543,-9072,-30064,485,-5.59,,,,,,,,,,,,
196604,1564133365597,1,2.09,1.0,0.4,1.48,1.13,0.64,0.99,0.88,-32,1,-39,1.18,10273,59,103,43,62,1080,530.0,609,465,60,122.0,300,1,430,392,142,0,0,548,2524,12552,484,-5.59,,,,,,,,,,,,
196624,1564133365617,2,2.08,1.0,0.39,1.5,1.13,0.62,0.99,0.77,-31,2,-39,1.17,10302,58,103,43,62,1083,526.0,626,467,60,122.0,316,1,432,393,153,0,0,548,-32248,1780,484,-5.59,,,,,,,,,,,,
196644,1564133365637,1,2.08,1.0,0.4,1.49,1.12,0.51,1.09,0.6,-31,1,-37,1.2,10353,57,103,43,62,1087,526.0,618,470,60,122.0,316,1,436,458,153,0,0,552,-32248,-28648,482,-5.59,44.68087,10.024624,49.23,175.8,0,0.0,-1,0.0,0.0,0,2.45,3.2774
196664,1564133365657,1,2.08,1.0,0.39,1.49,1.12,0.43,1.18,0.48,-30,1,-37,1.25,10273,58,103,43,62,1091,532.0,608,467,60,122.0,316,1,430,441,153,0,0,554,14504,12552,490,-5.59,,,,,,,,,,,,
196684,1564133365677,0,2.09,1.0,0.4,1.49,1.13,0.46,1.26,0.51,-29,1,-37,1.34,10324,59,103,43,62,1094,534.0,612,464,60,122.0,316,1,434,434,153,0,0,553,-32248,2524,497,-5.59,,,,,,,,,,,,
196704,1564133365697,2,2.1,1.0,0.4,1.5,1.12,0.49,1.29,0.64,-29,-1,-36,1.37,10330,59,103,43,62,1094,535.0,619,470,60,122.0,316,1,435,422,153,0,0,553,6274,2211,498,-5.59,,,,,,,,,,,,
196724,1564133365717,2,2.1,1.0,0.39,1.49,1.13,0.64,1.23,0.77,-29,-1,-37,1.38,10422,59,103,43,62,1093,539.0,617,470,60,122.0,328,1,442,413,164,0,0,555,-28648,-32504,501,-5.59,,,,,,,,,,,,
196744,1564133365737,1,2.1,1.01,0.4,1.49,1.13,0.76,1.24,0.89,-28,-4,-38,1.46,10445,58,103,43,62,1088,542.0,610,468,60,122.0,328,1,444,402,164,0,0,563,-3082,208,506,-5.59,44.680866,10.024641,50.48,175.8,0,0.0,-1,0.0,0.0,0,2.45,3.2791
196764,1564133365757,1,2.11,1.0,0.4,1.5,1.12,0.78,1.28,1.0,-29,-5,-39,1.5,10599,49,103,43,62,1083,545.0,627,467,60,122.0,328,1,450,389,164,0,0,570,-8962,-2336,508,-5.59,,,,,,,,,,,,
196784,1564133365777,3,2.11,1.0,0.39,1.49,1.13,0.82,1.22,1.1,-29,-2,-39,1.47,10581,57,103,43,63,1066,550.0,630,473,60,121.0,328,1,449,460,164,0,0,566,-32248,1780,513,-5.59,,,,,,,,,,,,
196804,1564133365797,0,2.12,1.0,0.39,1.49,1.13,0.94,1.26,1.18,-30,-2,-39,1.57,10635,59,103,43,63,1049,550.0,629,470,60,122.0,328,1,449,460,164,0,0,569,6274,-13043,514,-5.59,,,,,,,,,,,,
196824,1564133365817,2,2.11,1.01,0.39,1.5,1.13,0.88,1.33,1.18,-30,-2,-38,1.59,10689,59,103,43,63,1037,557.0,621,468,60,122.0,354,1,449,447,183,0,0,577,2216,-2934,516,-5.59,,,,,,,,,,,,
196844,1564133365837,0,2.12,1.0,0.4,1.5,1.12,0.76,1.36,1.0,-30,0,-38,1.56,10813,59,103,43,63,1025,555.0,636,468,60,121.0,354,1,450,439,183,0,0,569,-22263,12552,515,-5.59,44.680866,10.024658,51.93,175.8,0,0.0,-1,0.0,0.0,0,2.45,3.2807
196864,1564133365857,1,2.13,1.0,0.4,1.5,1.13,0.75,1.31,0.88,-30,0,-38,1.51,10751,59,103,43,63,1006,554.0,631,469,60,122.0,354,1,449,426,183,0,0,575,2524,259,518,-5.59,,,,,,,,,,,,
196884,1564133365877,3,2.12,1.01,0.4,1.5,1.12,0.69,1.1,0.9,-29,-1,-37,1.3,10813,57,103,43,63,986,557.0,633,471,60,121.0,354,1,450,416,183,0,0,577,2216,3472,519,-5.59,,,,,,,,,,,,
196904,1564133365897,3,2.12,1.01,0.39,1.5,1.13,0.79,0.99,1.0,-29,1,-37,1.27,10856,58,103,43,63,976,560.0,613,468,60,122.0,354,1,450,410,183,0,0,582,-28648,243,523,-5.59,,,,,,,,,,,,
