"Interval"|"ms"|0|0|1,"Utc"|"ms"|0|0|1,"FB_p"|"bar"|0|300|50,"Volant"|"F"|0.0|300.0|50,"xFR"|"mm"|0.0|5.0|50,"xRR"|"mm"|0.0|5.0|50,"xFL"|"mm"|0.0|5.0|50,"xRL"|"mm"|0.0|5.0|50,"AccelX"|"G"|-3.0|3.0|50,"AccelY"|"G"|-3.0|3.0|50,"AccelZ"|"G"|-3.0|3.0|50,"Yaw"|"Deg/Sec"|-120|120|50,"Pitch"|"Deg/Sec"|-120|120|50,"Roll"|"Deg/Sec"|-120|120|50,"Gsum"|"G"|0.0|3.0|50,"RPM"|""|0|14000|50,"TPS"|"%"|0|100|50,"WaterTemp"|"?C"|0|300|50,"AirTemp"|"?C"|-1000|1000|50,"MAP"|"KPa"|0|255|50,"Lambda"|""|0|1024|50,"WheelSpeed"|"MPH"|0.0|150.0|50,"OilPress"|"PSI"|0|150|50,"FuelPress"|"PSI"|0|150|50,"OilTemp"|"F"|0|300|50,"Battery"|"Volts"|0.0|20.0|50,"FuelCon"|"L/h"|-1000|1000|50,"Gear"|""|0|10|50,"Advance"|"Deg"|-360|360|50,"Injection"|"ms"|-1000|1000|50,"FuelCon"|"L/100km"|-1000|1000|50,"LC_But_Pres"|""|-1000|1000|50,"LC_Active"|""|-1000|1000|50,"RD_Speed"|""|-1000|1000|50,"RUD_Speed"|""|-1000|1000|50,"LD_Speed"|""|-1000|1000|50,"LUD_Speed"|""|-1000|1000|50,"Ana1"|"bar"|-1000.0|1000.0|50,"Latitude"|"Degrees"|-180.0|180.0|10,"Longitude"|"Degrees"|-180.0|180.0|10,"Speed"|"kph"|0.0|150.0|10,"Altitude"|"m"|0.0|4000.0|10,"LapCount"|""|0|0|10,"LapTime"|"Min"|0.0|0.0|10,"Sector"|""|0|0|10,"SectorTime"|"Min"|0.0|0.0|10,"ElapsedTime"|"Min"|0.0|0.0|10,"CurrentLap"|""|0|0|10,"Distance"|"km"|0.0|0.0|10,"SessionTime"|"Min"|0.0|0.0|10
171164,1564149774151,4,2.45,0.94,0.42,1.37,1.07,0.36,-0.6,0.72,16,5,23,0.7,9551,52,81,42,61,1364,502.0,670,462,60,127.0,257,1,414,346,128,0,0,507,-899,-14,502,-5.59,,,,,,,,,,,,
171184,1564149774171,0,2.46,0.93,0.42,1.37,1.07,0.47,-0.48,0.84,16,3,22,0.67,9546,48,81,42,60,1342,507.0,668,472,60,128.0,257,1,412,337,128,0,0,512,-6441,-4054,507,-5.59,,,,,,,,,,,,
171204,1564149774197,2,2.46,0.93,0.41,1.37,1.07,0.45,-0.48,0.82,16,4,22,0.66,9576,45,81,42,57,1318,508.0,668,464,60,126.0,257,1,406,329,128,0,0,514,-1562,-14,508,-5.59,,,,,,,,,,,,
171224,1564149774217,3,2.45,0.93,0.42,1.36,1.07,0.48,-0.51,0.77,16,2,22,0.7,9585,45,81,42,56,1287,511.0,667,470,60,128.0,257,1,404,320,128,0,0,518,248,-3482,511,-5.59,,,,,,,,,,,,
171244,1564149774237,1,2.46,0.93,0.42,1.37,1.07,0.42,-0.44,0.84,16,2,21,0.61,9571,44,81,42,55,1254,513.0,666,472,60,127.0,227,1,402,315,116,0,0,519,771,15679,513,-5.59,44.681393,10.024827,48.44,178.5,0,0.0,-1,0.0,0.0,0,0.29,2.8541
171264,1564149774257,4,2.45,0.94,0.42,1.37,1.07,0.47,-0.48,0.73,16,2,21,0.67,9625,44,81,42,54,1215,515.0,672,466,60,127.0,227,1,400,310,116,0,0,526,-22519,2524,517,-5.59,,,,,,,,,,,,
171284,1564149774277,2,2.45,0.93,0.42,1.37,1.07,0.5,-0.36,0.85,16,2,20,0.62,9715,44,81,42,54,1174,520.0,667,472,60,128.0,227,1,400,310,116,0,0,531,-9216,-9212,520,-5.59,,,,,,,,,,,,
171304,1564149774307,2,2.46,0.93,0.42,1.36,1.07,0.56,-0.39,0.8,16,1,20,0.68,9852,44,81,42,53,1155,522.0,671,462,60,127.0,227,1,397,299,116,0,0,514,11560,2088,522,-5.59,,,,,,,,,,,,
171324,1564149774327,2,2.47,0.93,0.42,1.36,1.07,0.57,-0.46,0.92,15,2,19,0.73,9904,44,81,42,53,1148,522.0,672,471,60,128.0,214,1,397,299,112,0,0,524,10408,-28648,522,-5.59,,,,,,,,,,,,
171344,1564149774347,2,2.48,0.93,0.42,1.36,1.07,0.65,-0.48,0.82,15,1,19,0.81,9889,44,81,42,52,1126,522.0,672,468,60,128.0,214,1,394,299,112,0,0,529,6274,2088,523,-5.59,44.681389,10.024843,49.95,178.5,0,0.0,-1,0.0,0.0,0,0.29,2.8557
171364,1564149774367,4,2.48,0.93,0.42,1.37,1.07,0.71,-0.51,0.88,15,2,19,0.88,9925,44,81,42,52,1099,526.0,671,468,60,127.0,214,1,394,299,112,0,0,533,10994,-32248,526,-5.59,,,,,,,,,,,,
171384,1564149774387,0,2.48,0.92,0.42,1.36,1.06,0.69,-0.56,0.95,15,1,18,0.89,9946,44,81,42,52,1077,527.0,671,471,60,128.0,214,1,394,290,112,0,0,527,10994,6274,527,-5.59,,,,,,,,,,,,
171404,1564149774391,2,2.49,0.93,0.42,1.37,1.07,0.76,-0.61,0.78,14,-0,19,0.98,9936,44,81,42,52,1058,531.0,671,466,60,127.0,214,1,394,290,112,0,0,531,-4054,-9072,531,-5.59,,,,,,,,,,,,
171424,1564149774411,2,2.49,0.93,0.42,1.37,1.07,0.81,-0.63,0.89,15,2,19,1.03,9989,44,81,42,53,1030,531.0,674,466,60,128.0,212,1,397,299,113,0,0,532,-4054,-2336,531,-5.59,,,,,,,,,,,,
171444,1564149774431,2,2.49,0.94,0.42,1.36,1.07,0.78,-0.66,0.89,14,-1,19,1.02,10010,44,81,42,52,996,531.0,674,463,60,127.0,212,1,394,291,113,0,0,535,-3856,-3082,531,-5.59,44.681381,10.02486,50.51,178.5,0,0.0,-1,0.0,0.0,0,0.29,2.8574
171464,1564149774451,5,2.48,0.93,0.42,1.37,1.07,0.84,-0.68,0.78,14,-1,19,1.08,10005,44,81,42,52,971,534.0,677,465,60,128.0,212,1,394,300,113,0,0,536,26178,-2336,534,-5.59,,,,,,,,,,,,
171484,1564149774471,4,2.49,0.94,0.42,1.37,1.07,0.87,-0.72,0.9,14,1,20,1.13,10091,44,81,42,52,956,535.0,674,469,60,127.0,212,1,394,291,113,0,0,535,16383,1779,537,-5.59,,,,,,,,,,,,
171504,1564149774501,1,2.5,0.93,0.42,1.37,1.08,0.81,-0.77,0.99,14,1,19,1.12,10118,44,81,42,52,941,539.0,675,469,60,129.0,212,1,394,292,113,0,0,543,-3482,-8186,537,-5.59,,,,,,,,,,,,
171524,1564149774521,1,2.5,0.93,0.42,1.36,1.07,0.81,-0.66,0.87,14,-0,20,1.05,10157,44,81,42,52,928,541.0,677,471,60,127.0,208,1,394,293,112,0,0,541,1341,-8186,541,-5.59,,,,,,,,,,,,
171544,1564149774541,1,2.49,0.94,0.42,1.37,1.07,0.86,-0.56,0.71,15,-0,21,1.03,10245,43,81,42,52,919,544.0,674,472,60,127.0,208,1,394,293,112,0,0,548,1341,-506,544,-5.59,44.681377,10.024877,51.73,178.5,0,0.0,-1,0.0,0.0,0,0.29,2.8591
171564,1564149774561,3,2.5,0.94,0.42,1.37,1.07,0.93,-0.56,0.8,15,-1,21,1.08,10212,42,81,42,52,921,546.0,678,468,60,126.0,208,1,394,293,112,0,0,555,1341,6274,546,-5.59,,,,,,,,,,,,
171584,1564149774581,5,2.5,0.93,0.42,1.37,1.07,0.86,-0.68,0.91,16,0,21,1.09,10251,41,81,42,52,921,545.0,672,476,60,127.0,208,1,394,293,112,0,0,546,-9212,-9072,545,-5.59,,,,,,,,,,,,
171604,1564149774601,2,2.51,0.93,0.42,1.36,1.08,0.8,-0.71,0.94,16,2,20,1.07,10290,41,81,42,51,919,547.0,674,472,60,128.0,208,1,391,283,112,0,0,548,2524,2524,548,-5.59,,,,,,,,,,,,
171624,1564149774604,2,2.5,0.93,0.42,1.37,1.07,0.76,-0.72,0.79,16,2,20,1.05,10285,40,81,42,51,917,552.0,678,470,60,128.0,200,1,391,283,110,0,0,547,10408,-28648,552,-5.59,,,,,,,,,,,,
171644,1564149774624,2,2.51,0.93,0.42,1.37,1.08,0.74,-0.65,0.65,17,1,22,0.98,10330,39,81,42,50,913,550.0,681,466,60,128.0,200,1,388,273,110,0,0,548,2088,2524,550,-5.59,44.681374,10.024893,52.67,178.5,0,0.0,-1,0.0,0.0,0,0.29,2.8607
171664,1564149774644,1,2.49,0.93,0.42,1.37,1.07,0.78,-0.57,0.59,17,-2,22,0.97,10290,39,81,42,50,906,549.0,676,466,60,129.0,200,1,388,273,110,0,0,561,2524,-22519,549,-5.59,,,,,,,,,,,,
171684,1564149774664,2,2.5,0.94,0.42,1.37,1.08,0.83,-0.51,0.53,17,0,25,0.98,10359,39,81,42,50,892,552.0,673,465,60,128.0,200,1,388,274,110,0,0,556,10408,-22359,551,-5.59,,,,,,,,,,,,
171704,1564149774684,1,2.5,0.93,0.42,1.37,1.07,0.9,-0.5,0.53,16,-2,26,1.03,10347,39,81,42,50,879,552.0,676,470,60,128.0,200,1,388,273,110,0,0,553,-32248,12552,553,-5.59,,,,,,,,,,,,
171724,1564149774710,5,2.49,0.93,0.42,1.36,1.07,0.87,-0.56,0.65,16,-3,25,1.04,10405,39,81,42,50,870,552.0,671,471,60,128.0,195,1,388,274,108,0,0,553,-28648,-9072,552,-5.59,,,,,,,,,,,,
171744,1564149774730,2,2.49,0.93,0.42,1.37,1.07,0.96,-0.7,0.77,16,-2,25,1.18,10382,39,81,42,50,860,553.0,676,467,60,127.0,195,1,388,274,108,0,0,554,-28648,2216,553,-5.59,44.681366,10.02491,53.11,178.5,0,0.0,-1,0.0,0.0,0,0.3,2.8624
171764,1564149774750,4,2.48,0.92,0.42,1.37,1.07,1.01,-0.81,0.89,17,-1,23,1.29,10405,39,81,42,49,850,551.0,672,467,60,128.0,195,1,385,264,108,0,0,571,14504,-28648,554,-5.59,,,,,,,,,,,,
171784,1564149774770,4,2.48,0.94,0.42,1.36,1.07,1.02,-0.93,1.0,16,0,23,1.38,10428,36,81,42,49,841,555.0,670,467,60,128.0,195,1,385,264,108,0,0,561,-28648,-28648,555,-5.59,,,,,,,,,,,,
171804,1564149774802,2,2.48,0.93,0.42,1.37,1.07,0.95,-0.97,1.1,16,1,21,1.36,10405,33,81,42,48,841,557.0,681,474,60,129.0,195,1,382,253,108,0,0,556,-22519,-32504,557,-5.59,,,,,,,,,,,,
171824,1564149774822,3,2.48,0.93,0.42,1.36,1.08,0.86,-1.05,1.09,16,2,20,1.35,10416,30,81,42,46,841,558.0,675,464,60,129.0,195,1,372,239,108,0,0,554,14504,2216,558,-5.59,,,,,,,,,,,,
171844,1564149774842,2,2.47,0.92,0.42,1.37,1.07,0.78,-1.07,0.97,16,4,19,1.33,10341,30,81,42,45,839,561.0,681,468,60,129.0,168,1,365,235,94,0,0,555,-28648,-28648,559,-5.59,44.681358,10.024925,53.74,178.5,0,0.0,-1,0.0,0.0,0,0.3,2.8641
171864,1564149774862,1,2.48,0.93,0.42,1.37,1.07,0.74,-0.97,0.72,17,3,20,1.22,10285,29,81,42,43,837,561.0,678,470,60,127.0,168,1,350,228,94,0,0,550,14504,-22359,561,-5.59,,,,,,,,,,,,
171884,1564149774882,3,2.49,0.93,0.42,1.36,1.08,0.84,-0.85,0.51,17,4,24,1.19,10146,27,81,42,42,834,564.0,677,468,60,129.0,168,1,342,224,94,0,0,546,6274,-28648,564,-5.59,,,,,,,,,,,,
171904,1564149774902,2,2.48,0.93,0.42,1.37,1.08,0.95,-0.95,0.66,17,4,23,1.34,10080,25,81,42,42,832,559.0,676,471,60,129.0,168,1,342,224,94,0,0,538,14504,-30159,561,-5.59,,,,,,,,,,,,
171924,1564149774906,-0,2.48,0.93,0.42,1.37,1.07,0.85,-0.91,0.6,17,3,24,1.24,9910,23,81,42,40,825,562.0,670,471,60,129.0,144,1,327,216,81,0,0,537,-32248,2216,562,-5.59,,,,,,,,,,,,
171944,1564149774926,1,2.48,0.93,0.42,1.37,1.07,0.87,-0.91,0.62,17,5,24,1.25,9610,21,81,42,40,818,562.0,667,463,60,129.0,144,1,327,215,81,0,0,540,14504,2216,562,-5.59,44.681351,10.02494,53.82,178.5,0,0.0,-1,0.0,0.0,0,0.3,2.8657
171964,1564149774946,3,2.48,0.93,0.42,1.36,1.08,0.88,-0.99,0.62,17,4,24,1.32,9431,16,81,42,38,812,560.0,665,467,60,129.0,144,1,317,208,81,0,0,536,14504,2216,558,-5.59,,,,,,,,,,,,
171984,1564149774966,2,2.48,0.93,0.42,1.37,1.08,0.92,-0.87,0.52,17,3,27,1.27,9259,15,81,42,36,807,558.0,665,470,60,130.0,144,1,311,201,81,0,0,539,14504,-22359,558,-5.59,,,,,,,,,,,,
172004,1564149774994,4,2.48,0.93,0.42,1.36,1.08,0.93,-0.77,0.49,18,3,25,1.21,9119,13,81,42,34,800,558.0,662,463,60,129.0,144,1,305,193,81,0,0,525,-28648,2524,558,-5.59,,,,,,,,,,,,
172024,1564149775014,3,2.47,0.93,0.42,1.37,1.07,1.04,-0.71,0.5,18,1,25,1.25,9101,12,81,42,33,794,555.0,661,472,60,129.0,117,1,302,190,65,0,0,505,2088,-2336,553,-5.59,,,,,,,,,,,,
172044,1564149775034,0,2.48,0.93,0.42,1.37,1.07,1.06,-0.74,0.53,17,0,28,1.29,9177,12,81,42,32,792,552.0,659,465,60,128.0,117,1,300,187,65,0,0,493,2524,-3082,551,-5.59,44.681343,10.024956,54.15,178.5,0,0.0,-1,0.0,0.0,0,0.3,2.8674
172064,1564149775054,0,2.48,0.93,0.42,1.36,1.07,0.93,-0.74,0.6,18,-0,27,1.19,9173,12,81,42,31,791,552.0,659,466,60,128.0,117,1,295,187,65,0,0,487,-9212,-9212,552,-5.59,,,,,,,,,,,,
172084,1564149775074,0,2.47,0.94,0.42,1.37,1.08,0.9,-0.76,0.55,18,3,27,1.17,9200,12,81,42,31,808,548.0,661,470,60,129.0,117,1,295,188,65,0,0,485,15679,10408,548,-5.59,,,,,,,,,,,,
172104,1564149775100,2,2.47,0.93,0.42,1.37,1.07,0.84,-0.76,0.52,19,3,26,1.13,9186,12,81,42,30,830,547.0,660,473,60,129.0,117,1,291,187,65,0,0,481,26178,26178,547,-5.59,,,,,,,,,,,,
172124,1564149775120,1,2.47,0.94,0.42,1.37,1.07,0.93,-0.78,0.51,20,3,27,1.22,9191,12,81,42,30,853,541.0,657,469,60,130.0,120,1,291,187,65,0,0,486,10994,1248,540,-5.59,,,,,,,,,,,,
172144,1564149775140,1,2.48,0.94,0.42,1.37,1.07,0.96,-0.78,0.47,19,2,29,1.23,9186,12,81,42,29,877,539.0,657,473,60,130.0,120,1,287,186,65,0,0,474,-3414,1248,536,-5.59,44.681332,10.02497,53.25,178.5,0,0.0,-1,0.0,0.0,0,0.3,2.8691
172164,1564149775160,5,2.47,0.93,0.42,1.36,1.08,1.01,-0.73,0.43,19,2,30,1.25,9204,12,81,42,29,909,537.0,660,474,60,130.0,120,1,287,187,65,0,0,461,6274,-8187,537,-5.59,,,,,,,,,,,,
172184,1564149775180,3,2.47,0.94,0.42,1.37,1.07,1.08,-0.75,0.42,19,2,29,1.31,9173,12,81,42,29,945,529.0,666,469,60,129.0,120,1,287,186,65,0,0,470,15661,10994,529,-5.59,,,,,,,,,,,,
172204,1564149775200,4,2.46,0.93,0.42,1.37,1.06,1.04,-0.73,0.39,20,1,28,1.27,9106,12,81,42,29,968,525.0,599,471,60,129.0,120,1,287,186,65,0,0,470,-22519,10994,525,-5.59,,,,,,,,,,,,
172224,1564149775206,4,2.46,0.94,0.42,1.37,1.08,1.09,-0.74,0.43,20,1,27,1.32,9119,12,82,42,29,980,523.0,488,470,60,129.0,120,1,287,186,65,0,0,475,771,10408,523,-5.59,,,,,,,,,,,,
172244,1564149775226,1,2.46,0.94,0.42,1.37,1.07,1.01,-0.73,0.43,19,3,26,1.25,9079,12,81,42,29,996,521.0,409,468,60,128.0,120,1,287,185,63,0,0,462,-32768,-3414,521,-5.59,44.681324,10.024983,51.98,178.5,0,0.0,-1,0.0,0.0,0,0.3,2.8707
172264,1564149775246,-1,2.47,0.93,0.42,1.37,1.08,1.02,-0.74,0.43,19,3,28,1.26,9066,12,81,42,29,1014,519.0,541,466,60,128.0,120,1,287,185,63,0,0,457,-32768,-28648,519,-5.59,,,,,,,,,,,,
172284,1564149775266,0,2.46,0.92,0.42,1.37,1.07,0.92,-0.75,0.51,18,3,27,1.19,9027,12,81,42,29,1026,513.0,497,468,60,129.0,120,1,287,185,63,0,0,461,-6656,-22519,513,-5.59,,,,,,,,,,,,
172304,1564149775294,1,2.46,0.93,0.42,1.37,1.07,0.94,-0.78,0.5,18,4,25,1.22,8954,12,81,42,29,1032,512.0,426,466,60,128.0,120,1,287,185,63,0,0,471,-1818,2524,512,-5.59,,,,,,,,,,,,
172324,1564149775314,2,2.46,0.93,0.41,1.36,1.08,0.85,-0.72,0.42,18,5,25,1.12,8915,12,81,42,29,1037,510.0,383,472,60,128.0,121,1,287,185,62,0,0,473,-1562,998,510,-5.59,,,,,,,,,,,,
172344,1564149775334,3,2.47,0.93,0.42,1.37,1.07,0.88,-0.72,0.48,18,5,26,1.14,8924,12,81,42,29,1041,505.0,430,468,60,127.0,121,1,287,185,62,0,0,471,3580,505,505,-5.59,44.681316,10.024995,50.29,178.5,0,0.0,-1,0.0,0.0,0,0.31,2.8724
172364,1564149775354,2,2.46,0.93,0.42,1.37,1.07,0.85,-0.65,0.49,18,7,27,1.07,8920,12,81,42,30,1042,501.0,487,476,60,129.0,121,1,291,185,62,0,0,471,2212,-1818,501,-5.59,,,,,,,,,,,,
172384,1564149775374,3,2.46,0.93,0.42,1.37,1.08,0.88,-0.6,0.53,18,4,26,1.06,8890,12,81,42,30,1040,501.0,433,470,60,128.0,121,1,291,185,62,0,0,465,-23367,-10483,499,-5.59,,,,,,,,,,,,
172404,1564149775404,2,2.46,0.93,0.41,1.37,1.08,0.91,-0.48,0.59,18,5,26,1.03,8869,12,81,42,30,1036,498.0,436,468,60,128.0,121,1,291,185,62,0,0,467,3576,8488,496,-5.59,,,,,,,,,,,,
172424,1564149775424,2,2.46,0.93,0.42,1.37,1.07,0.97,-0.47,0.63,17,4,24,1.08,8873,12,81,42,30,1030,495.0,460,471,60,128.0,125,1,291,185,62,0,0,464,-1923,-899,495,-5.59,,,,,,,,,,,,
172444,1564149775444,1,2.47,0.93,0.41,1.37,1.08,1.04,-0.44,0.61,17,4,23,1.13,8819,12,81,42,30,1024,493.0,443,471,60,129.0,125,1,291,185,62,0,0,465,8488,10305,493,-5.59,44.681305,10.025006,49.13,178.5,0,0.0,-1,0.0,0.0,0,0.31,2.8741
172464,1564149775464,1,2.46,0.93,0.42,1.37,1.07,1.05,-0.49,0.59,17,5,24,1.15,8765,12,81,42,31,1021,490.0,456,467,60,129.0,125,1,295,185,62,0,0,461,-16384,10305,490,-5.59,,,,,,,,,,,,
172484,1564149775484,-0,2.47,0.93,0.42,1.37,1.08,1.0,-0.5,0.45,16,4,24,1.12,8704,12,81,42,31,1017,486.0,425,469,60,129.0,125,1,295,185,62,0,0,455,6193,10305,486,-5.59,,,,,,,,,,,,
172504,1564149775504,2,2.46,0.93,0.42,1.37,1.07,0.97,-0.53,0.45,16,3,24,1.11,8664,13,81,42,31,1015,484.0,456,467,60,127.0,125,1,295,185,62,0,0,455,12552,3576,484,-5.59,,,,,,,,,,,,
172524,1564149775506,2,2.46,0.93,0.42,1.37,1.07,1.02,-0.43,0.48,16,4,24,1.11,8616,13,81,42,31,1013,480.0,491,471,60,129.0,125,1,295,185,60,0,0,452,-23623,10432,480,-5.59,,,,,,,,,,,,
172544,1564149775526,0,2.46,0.93,0.42,1.37,1.08,1.05,-0.49,0.44,15,3,22,1.15,8573,13,81,42,32,1015,479.0,555,470,60,128.0,125,1,300,185,60,0,0,451,17628,243,479,-5.59,44.681294,10.025016,47.49,178.5,0,0.0,-1,0.0,0.0,0,0.31,2.8757
172564,1564149775546,4,2.46,0.93,0.42,1.36,1.08,1.05,-0.56,0.37,15,4,24,1.18,8511,13,81,42,32,1015,476.0,618,466,60,127.0,125,1,300,185,60,0,0,449,-26615,6193,476,-5.59,,,,,,,,,,,,
172584,1564149775566,1,2.46,0.93,0.42,1.36,1.07,1.04,-0.45,0.43,16,3,23,1.14,8468,13,81,42,32,1010,474.0,641,467,60,127.0,125,1,299,108,60,0,0,451,-8985,-23623,474,-5.59,,,,,,,,,,,,
172604,1564149775595,-0,2.47,0.93,0.41,1.38,1.07,1.02,-0.47,0.39,16,4,23,1.12,8465,13,81,42,32,1005,473.0,638,468,60,129.0,125,1,299,183,60,0,0,443,-3267,17628,471,-5.59,,,,,,,,,,,,
172624,1564149775615,2,2.46,0.93,0.42,1.37,1.07,1.08,-0.51,0.35,16,4,24,1.2,8457,14,81,42,32,999,469.0,641,468,60,128.0,125,1,299,183,60,0,0,444,10305,-23623,469,-5.59,,,,,,,,,,,,
172644,1564149775635,1,2.47,0.93,0.42,1.37,1.07,1.12,-0.48,0.46,15,3,22,1.22,8472,14,81,42,32,993,469.0,642,467,60,128.0,123,1,299,181,58,0,0,443,2131,-18108,469,-5.59,44.681282,10.025025,46.39,178.5,0,0.0,-1,0.0,0.0,0,0.31,2.8774
172664,1564149775655,-0,2.46,0.93,0.42,1.36,1.07,1.05,-0.52,0.36,15,3,23,1.17,8411,14,82,42,31,991,464.0,650,468,60,129.0,123,1,294,180,58,0,0,437,-18341,-6387,465,-5.59,,,,,,,,,,,,
172684,1564149775675,3,2.47,0.93,0.42,1.37,1.07,1.06,-0.47,0.37,15,3,23,1.16,8423,14,82,42,31,988,462.0,651,466,60,128.0,123,1,294,180,58,0,0,438,23400,-9160,462,-5.59,,,,,,,,,,,,
172704,1564149775703,1,2.46,0.93,0.42,1.36,1.08,1.02,-0.48,0.47,15,2,21,1.13,8426,14,82,42,30,992,462.0,642,467,60,129.0,123,1,290,181,58,0,0,440,26704,17628,460,-5.59,,,,,,,,,,,,
172724,1564149775723,4,2.46,0.93,0.42,1.37,1.07,0.97,-0.5,0.37,16,3,21,1.09,8411,14,82,42,30,997,461.0,652,468,60,129.0,123,1,290,180,57,0,0,440,-28332,17628,461,-5.59,,,,,,,,,,,,
172744,1564149775743,2,2.46,0.93,0.42,1.37,1.07,1.04,-0.46,0.41,16,4,22,1.13,8389,15,82,42,30,989,458.0,653,468,60,128.0,123,1,289,179,57,0,0,435,21580,-18108,458,-5.59,44.681274,10.025033,45.27,178.5,0,0.0,-1,0.0,0.0,0,0.31,2.8791
172764,1564149775763,4,2.46,0.93,0.42,1.37,1.07,1.0,-0.45,0.41,16,4,20,1.09,8318,15,81,42,30,981,456.0,651,469,60,130.0,123,1,288,176,57,0,0,439,19477,-23623,456,-5.59,,,,,,,,,,,,
172784,1564149775783,1,2.47,0.93,0.42,1.37,1.07,1.01,-0.41,0.39,16,3,21,1.09,8278,15,81,42,30,969,458.0,646,466,60,128.0,123,1,287,175,57,0,0,434,5600,-18108,458,-5.59,,,,,,,,,,,,
172804,1564149775803,4,2.47,0.93,0.42,1.37,1.07,0.94,-0.43,0.39,15,5,21,1.03,8263,15,81,42,30,957,455.0,643,470,60,129.0,123,1,287,174,57,0,0,431,19477,-6387,455,-5.59,,,,,,,,,,,,
172824,1564149775807,1,2.46,0.93,0.42,1.37,1.08,1.02,-0.39,0.39,14,5,21,1.09,8223,15,81,42,30,935,454.0,645,468,60,127.0,116,1,287,172,53,0,0,436,-7939,-3267,454,-5.59,,,,,,,,,,,,
172844,1564149775827,4,2.47,0.93,0.42,1.37,1.07,0.93,-0.45,0.35,15,6,21,1.03,8166,16,81,42,30,912,453.0,647,470,60,129.0,116,1,286,170,53,0,0,435,243,-18341,453,-5.59,44.681263,10.02504,44.07,178.5,0,0.0,-1,0.0,0.0,0,0.31,2.8807
172864,1564149775847,1,2.46,0.93,0.42,1.37,1.07,0.99,-0.43,0.42,15,4,22,1.08,8152,21,81,42,32,898,451.0,648,470,60,127.0,116,1,293,172,53,0,0,427,-3322,8488,451,-5.59,,,,,,,,,,,,
172884,1564149775867,4,2.46,0.93,0.42,1.37,1.07,0.98,-0.45,0.44,15,4,19,1.08,8191,27,81,42,33,888,450.0,644,469,60,129.0,116,1,295,177,53,0,0,426,-3314,21432,450,-5.59,,,,,,,,,,,,
172904,1564149775895,0,2.47,0.92,0.42,1.36,1.08,1.01,-0.48,0.47,15,4,20,1.12,8198,28,81,42,36,878,450.0,646,469,60,128.0,116,1,305,192,53,0,0,428,13552,10305,450,-5.59,,,,,,,,,,,,
172924,1564149775915,4,2.46,0.93,0.42,1.37,1.07,0.92,-0.49,0.49,15,5,20,1.04,8245,31,81,42,38,869,448.0,652,465,60,128.0,116,1,311,202,53,0,0,427,31796,2131,448,-5.59,,,,,,,,,,,,
172944,1564149775935,0,2.46,0.93,0.42,1.37,1.07,0.98,-0.46,0.5,15,5,19,1.08,8314,31,81,42,41,867,446.0,643,471,60,129.0,140,1,328,210,63,0,0,426,13180,-18341,446,-5.59,44.681255,10.025046,43.65,178.6,0,0.0,-1,0.0,0.0,0,0.31,2.8824
172964,1564149775955,4,2.46,0.93,0.42,1.37,1.07,0.86,-0.44,0.44,15,6,19,0.96,8351,31,81,42,42,868,447.0,645,468,60,129.0,140,1,336,213,63,0,0,427,-3856,-18341,447,-5.59,,,,,,,,,,,,
172984,1564149775975,3,2.47,0.93,0.41,1.37,1.07,0.95,-0.43,0.47,16,5,19,1.05,8419,31,82,42,43,872,446.0,650,467,60,127.0,140,1,344,215,63,0,0,431,13552,21432,445,-5.59,,,,,,,,,,,,
173004,1564149776001,1,2.46,0.93,0.42,1.37,1.07,0.93,-0.46,0.43,16,5,19,1.03,8419,31,82,42,43,877,447.0,650,470,60,128.0,140,1,344,217,63,0,0,423,-4082,-28332,447,-5.59,,,,,,,,,,,,
173024,1564149776021,5,2.47,0.93,0.42,1.37,1.08,0.84,-0.45,0.4,16,5,20,0.96,8507,31,81,42,44,881,447.0,653,467,60,129.0,156,1,351,218,70,0,0,424,3826,8488,443,-5.59,,,,,,,,,,,,
173044,1564149776041,3,2.48,0.93,0.42,1.36,1.07,0.88,-0.42,0.41,16,4,20,0.97,8569,31,81,42,44,886,443.0,648,471,60,127.0,156,1,351,218,70,0,0,423,-21792,2131,443,-5.59,44.681244,10.025053,43.41,178.6,0,0.0,-1,0.0,0.0,0,0.31,2.8841
173064,1564149776061,2,2.49,0.93,0.42,1.37,1.07,0.91,-0.48,0.44,16,4,21,1.03,8604,32,81,42,44,899,443.0,648,470,60,129.0,156,1,351,219,70,0,0,423,-3414,23400,443,-5.59,,,,,,,,,,,,
173084,1564149776081,-1,2.49,0.93,0.41,1.37,1.07,0.85,-0.5,0.43,16,5,19,0.99,8644,32,81,42,44,915,442.0,651,469,60,128.0,156,1,351,219,70,0,0,424,3826,16648,442,-5.59,,,,,,,,,,,,
173104,1564149776107,2,2.48,0.93,0.42,1.37,1.06,0.77,-0.5,0.43,16,5,19,0.92,8636,32,81,42,44,930,443.0,651,468,60,127.0,156,1,351,219,70,0,0,428,-3414,-18341,443,-5.59,,,,,,,,,,,,
173124,1564149776127,1,2.49,0.93,0.42,1.37,1.07,0.86,-0.48,0.47,16,5,21,0.98,8573,32,81,42,44,941,443.0,651,468,60,128.0,158,1,351,218,70,0,0,442,-8165,23400,444,-5.59,,,,,,,,,,,,
173144,1564149776147,0,2.48,0.93,0.42,1.36,1.08,0.78,-0.45,0.44,16,6,20,0.9,8419,32,81,42,44,967,444.0,653,470,60,128.0,158,1,350,219,70,0,0,441,-3856,-6387,444,-5.59,44.681236,10.025058,42.94,178.6,0,0.0,-1,0.0,0.0,0,0.32,2.8857
173164,1564149776167,1,2.48,0.93,0.42,1.37,1.07,0.83,-0.46,0.51,16,3,20,0.95,8234,32,81,42,45,1003,448.0,651,472,60,128.0,158,1,356,217,70,0,0,459,13552,8488,448,-5.59,,,,,,,,,,,,
173184,1564149776187,4,2.47,0.93,0.42,1.37,1.07,0.79,-0.46,0.53,16,4,20,0.91,8180,33,81,42,45,1034,448.0,647,468,60,128.0,158,1,355,216,70,0,0,441,13552,3571,448,-5.59,,,,,,,,,,,,
173204,1564149776191,-1,2.48,0.93,0.42,1.36,1.08,0.84,-0.48,0.55,16,4,20,0.97,8109,33,81,42,47,1059,447.0,643,468,60,127.0,158,1,370,220,70,0,0,438,31796,-6387,447,-5.59,,,,,,,,,,,,
173224,1564149776211,1,2.48,0.93,0.42,1.37,1.07,0.82,-0.48,0.55,16,1,19,0.95,8067,33,81,43,48,1095,447.0,650,466,60,128.0,158,1,372,151,70,0,0,429,31796,10305,448,-5.59,,,,,,,,,,,,
173244,1564149776231,1,2.49,0.93,0.42,1.36,1.07,0.73,-0.51,0.57,17,2,21,0.89,8054,33,81,43,49,1141,446.0,641,469,60,128.0,151,1,375,224,68,0,0,425,13552,3571,446,-5.59,44.681225,10.025063,42.99,178.6,0,0.0,-1,0.0,0.0,0,0.32,2.8874
173264,1564149776251,0,2.49,0.93,0.42,1.36,1.08,0.8,-0.52,0.6,17,1,21,0.95,8019,33,81,43,49,1180,446.0,641,472,60,128.0,151,1,375,230,68,0,0,430,13552,3571,446,-5.59,,,,,,,,,,,,
173284,1564149776271,4,2.48,0.94,0.42,1.37,1.08,0.75,-0.5,0.6,18,1,20,0.9,8033,33,81,43,49,1201,448.0,642,468,60,129.0,151,1,375,230,68,0,0,452,-3856,-3267,448,-5.59,,,,,,,,,,,,
173304,1564149776297,-0,2.48,0.93,0.42,1.37,1.07,0.73,-0.52,0.66,18,2,20,0.89,8057,33,81,43,50,1224,450.0,645,470,60,128.0,151,1,378,231,68,0,0,427,-4082,10305,449,-5.59,,,,,,,,,,,,
173324,1564149776317,2,2.49,0.93,0.42,1.36,1.08,0.77,-0.54,0.7,18,1,20,0.94,8081,33,81,43,50,1250,447.0,642,467,60,128.0,161,1,378,237,72,0,0,424,3826,-3267,447,-5.59,,,,,,,,,,,,
173344,1564149776337,2,2.49,0.93,0.42,1.37,1.07,0.69,-0.55,0.69,18,3,21,0.88,8109,33,81,43,50,1271,448.0,646,466,60,128.0,161,1,378,238,72,0,0,424,-3414,3571,448,-5.59,44.681213,10.025065,43.43,178.6,0,0.0,-1,0.0,0.0,0,0.32,2.8891
173364,1564149776357,-0,2.49,0.93,0.42,1.37,1.07,0.72,-0.54,0.72,18,2,20,0.9,8148,34,81,43,50,1276,447.0,649,468,60,127.0,161,1,378,238,72,0,0,425,3826,16648,447,-5.59,,,,,,,,,,,,
173384,1564149776377,3,2.49,0.93,0.42,1.36,1.08,0.65,-0.52,0.65,19,3,20,0.83,8198,34,81,43,50,1282,446.0,646,469,60,128.0,161,1,378,239,72,0,0,423,3826,26704,446,-5.59,,,,,,,,,,,,
173404,1564149776407,1,2.49,0.94,0.42,1.37,1.07,0.77,-0.52,0.64,18,2,21,0.92,8256,34,81,43,50,1293,447.0,650,471,60,127.0,161,1,378,240,72,0,0,424,-3414,-18341,447,-5.59,,,,,,,,,,,,
173424,1564149776427,4,2.48,0.93,0.42,1.36,1.07,0.71,-0.51,0.55,18,3,21,0.87,8263,34,81,43,49,1303,448.0,651,468,60,129.0,161,1,375,240,72,0,0,426,7154,-6387,448,-5.59,,,,,,,,,,,,
173444,1564149776447,3,2.49,0.93,0.42,1.36,1.08,0.83,-0.53,0.53,18,2,22,0.99,8340,34,81,43,49,1309,447.0,653,466,60,127.0,162,1,375,234,73,0,0,427,-8165,2131,445,-5.59,44.681202,10.025069,43.03,178.7,0,0.0,-1,0.0,0.0,0,0.32,2.8907
173464,1564149776467,-0,2.48,0.93,0.42,1.37,1.07,0.74,-0.6,0.59,18,3,22,0.96,8381,34,81,43,49,1314,445.0,649,468,60,128.0,162,1,375,235,73,0,0,425,-21792,23400,445,-5.59,,,,,,,,,,,,
173484,1564149776487,2,2.49,0.93,0.42,1.37,1.08,0.79,-0.55,0.59,18,2,22,0.96,8370,34,81,43,49,1316,444.0,648,470,60,127.0,162,1,375,227,73,0,0,431,-3414,10305,443,-5.59,,,,,,,,,,,,
173504,1564149776507,-1,2.48,0.93,0.41,1.37,1.07,0.74,-0.53,0.64,18,3,22,0.9,8307,34,81,43,48,1317,445.0,647,467,60,128.0,162,1,372,227,73,0,0,436,3826,-18341,445,-5.59,,,,,,,,,,,,
173524,1564149776507,4,2.48,0.93,0.41,1.37,1.07,0.75,-0.5,0.59,17,3,22,0.91,8245,35,81,43,49,1313,445.0,649,468,60,127.0,162,1,375,226,73,0,0,437,3826,10305,445,-5.59,,,,,,,,,,,,
173544,1564149776527,-2,2.48,0.93,0.42,1.36,1.08,0.72,-0.51,0.57,17,3,23,0.88,8241,35,81,43,48,1308,445.0,643,466,60,128.0,161,1,372,233,72,0,0,440,-4082,3571,445,-5.59,44.681194,10.025071,42.91,178.7,0,0.0,-1,0.0,0.0,0,0.32,2.8924
173564,1564149776547,2,2.48,0.93,0.42,1.37,1.07,0.84,-0.45,0.54,17,1,22,0.95,8180,35,81,43,49,1309,446.0,645,471,60,128.0,161,1,375,232,72,0,0,443,-4082,15649,446,-5.59,,,,,,,,,,,,
173584,1564149776567,4,2.47,0.93,0.42,1.37,1.07,0.76,-0.44,0.53,17,1,22,0.87,8113,35,81,43,49,1309,445.0,645,468,60,128.0,161,1,375,232,72,0,0,434,-4082,2131,446,-5.59,,,,,,,,,,,,
173604,1564149776596,1,2.48,0.93,0.41,1.37,1.07,0.88,-0.42,0.53,16,-0,24,0.98,8095,35,81,43,50,1314,446.0,643,468,60,128.0,161,1,378,237,72,0,0,431,-4082,23400,446,-5.59,,,,,,,,,,,,
173624,1564149776616,4,2.48,0.93,0.42,1.36,1.08,0.82,-0.4,0.58,17,-1,22,0.91,8123,35,81,43,50,1319,447.0,645,468,60,128.0,167,1,378,245,75,0,0,427,-4082,10305,448,-5.59,,,,,,,,,,,,
173644,1564149776636,1,2.48,0.93,0.42,1.37,1.07,0.86,-0.44,0.54,17,0,23,0.97,8127,35,81,43,51,1319,447.0,645,469,60,128.0,167,1,381,245,75,0,0,424,-3414,21580,447,-5.59,44.681183,10.025074,43.04,178.7,0,0.0,-1,0.0,0.0,0,0.32,2.8941
173664,1564149776656,4,2.48,0.93,0.41,1.37,1.07,0.87,-0.43,0.55,17,2,24,0.97,8187,35,81,43,51,1319,445.0,650,470,60,128.0,167,1,381,245,75,0,0,430,-3856,-26615,447,-5.59,,,,,,,,,,,,
173684,1564149776676,1,2.48,0.93,0.41,1.36,1.08,0.85,-0.47,0.57,17,1,22,0.97,8241,35,81,43,51,1315,446.0,647,469,60,128.0,167,1,381,246,75,0,0,427,3826,15649,446,-5.59,,,,,,,,,,,,
173704,1564149776702,3,2.48,0.93,0.42,1.36,1.07,0.8,-0.43,0.57,18,2,23,0.9,8337,36,81,43,51,1310,448.0,651,471,60,127.0,167,1,381,248,75,0,0,432,-21792,-8985,448,-5.59,,,,,,,,,,,,
173724,1564149776722,2,2.48,0.93,0.41,1.37,1.07,0.82,-0.44,0.6,17,0,22,0.93,8340,36,81,43,51,1311,447.0,651,467,60,128.0,170,1,378,241,76,0,0,432,3826,15649,447,-5.59,,,,,,,,,,,,
173744,1564149776742,3,2.49,0.93,0.42,1.36,1.08,0.75,-0.44,0.56,17,1,22,0.87,8318,36,81,43,50,1313,447.0,655,466,60,128.0,170,1,378,241,76,0,0,436,3826,15649,447,-5.59,44.681171,10.025075,42.92,178.7,0,0.0,-1,0.0,0.0,0,0.32,2.8957
173764,1564149776762,2,2.48,0.93,0.42,1.36,1.07,0.83,-0.45,0.56,17,2,24,0.94,8303,36,81,43,50,1318,448.0,650,467,60,127.0,170,1,378,241,76,0,0,441,-3856,10305,446,-5.59,,,,,,,,,,,,
173784,1564149776782,4,2.49,0.93,0.41,1.37,1.07,0.76,-0.42,0.61,17,0,22,0.87,8270,36,81,43,50,1325,447.0,648,470,60,128.0,170,1,378,240,76,0,0,439,-3856,-3267,447,-5.59,,,,,,,,,,,,
173804,1564149776802,2,2.49,0.93,0.41,1.37,1.07,0.83,-0.46,0.6,17,-0,23,0.95,8270,36,81,43,50,1326,447.0,647,470,60,127.0,170,1,378,240,76,0,0,437,13552,8488,446,-5.59,,,,,,,,,,,,
173824,1564149776804,5,2.48,0.94,0.42,1.37,1.08,0.72,-0.48,0.62,17,0,22,0.86,8256,36,81,43,50,1324,448.0,650,467,60,128.0,167,1,378,240,75,0,0,435,31796,3571,448,-5.59,,,,,,,,,,,,
173844,1564149776824,3,2.48,0.93,0.42,1.37,1.07,0.79,-0.49,0.67,17,0,21,0.93,8278,37,81,43,52,1318,451.0,648,467,60,126.0,167,1,384,247,75,0,0,439,-3856,8488,447,-5.59,44.681164,10.025075,43.06,178.7,0,0.0,-1,0.0,0.0,0,0.32,2.8974
173864,1564149776844,-0,2.49,0.93,0.42,1.37,1.07,0.73,-0.55,0.66,17,2,22,0.91,8363,37,81,43,52,1310,449.0,647,470,60,129.0,167,1,384,255,75,0,0,441,13180,8488,449,-5.59,,,,,,,,,,,,
173884,1564149776864,2,2.49,0.93,0.41,1.37,1.07,0.81,-0.49,0.66,16,1,22,0.94,8445,37,81,43,51,1303,452.0,651,471,60,128.0,167,1,381,249,75,0,0,444,31796,-6387,451,-5.59,,,,,,,,,,,,
173904,1564149776894,2,2.49,0.93,0.42,1.36,1.08,0.85,-0.55,0.67,16,-0,21,1.01,8449,44,81,43,53,1295,451.0,653,470,60,128.0,167,1,387,263,75,0,0,445,13180,-3267,451,-5.59,,,,,,,,,,,,
173924,1564149776914,0,2.49,0.93,0.42,1.37,1.08,0.73,-0.59,0.62,16,1,21,0.94,8461,45,81,43,55,1293,451.0,656,467,60,128.0,167,1,398,278,75,0,0,453,-3314,15649,451,-5.59,,,,,,,,,,,,
173944,1564149776934,3,2.49,0.93,0.42,1.37,1.06,0.75,-0.57,0.68,17,1,21,0.94,8434,47,81,43,57,1294,452.0,652,468,60,127.0,197,1,414,293,89,0,0,452,1779,-6387,452,-5.59,44.681148,10.025074,43.5,178.7,0,0.0,-1,0.0,0.0,0,0.32,2.8991
173964,1564149776954,1,2.5,0.93,0.41,1.37,1.07,0.76,-0.59,0.67,16,2,22,0.96,8457,47,81,43,58,1283,453.0,650,468,60,127.0,197,1,422,294,89,0,0,448,243,-9160,453,-5.59,,,,,,,,,,,,
173984,1564149776974,4,2.49,0.93,0.42,1.36,1.07,0.74,-0.6,0.65,16,3,20,0.95,8438,50,81,43,59,1267,456.0,648,470,60,128.0,197,1,430,309,89,0,0,447,1779,-26615,456,-5.59,,,,,,,,,,,,
174004,1564149777000,3,2.49,0.93,0.42,1.37,1.07,0.85,-0.63,0.67,16,2,21,1.05,8449,54,81,43,61,1250,456.0,648,470,60,127.0,197,1,447,317,89,0,0,451,243,-23623,456,-5.59,,,,,,,,,,,,
174024,1564149777020,2,2.48,0.93,0.42,1.36,1.07,0.79,-0.61,0.69,16,2,20,1.0,8472,57,81,43,62,1232,456.0,655,470,60,128.0,197,1,446,333,89,0,0,450,-768,-26615,456,-5.59,,,,,,,,,,,,
174044,1564149777040,4,2.49,0.93,0.42,1.36,1.08,0.75,-0.59,0.6,16,3,22,0.96,8468,58,81,43,64,1223,456.0,652,467,60,126.0,234,1,442,344,107,0,0,452,-7939,-26615,457,-5.59,44.681141,10.025072,43.58,178.8,0,0.0,-1,0.0,0.0,0,0.33,2.9007
174064,1564149777060,2,2.49,0.94,0.41,1.37,1.07,0.85,-0.55,0.65,16,2,22,1.01,8480,59,81,43,65,1223,457.0,653,467,60,126.0,234,1,439,344,107,0,0,451,5600,12552,457,-5.59,,,,,,,,,,,,
174084,1564149777080,2,2.49,0.93,0.42,1.37,1.07,0.8,-0.57,0.68,17,2,20,0.99,8499,59,81,43,65,1230,458.0,650,470,60,128.0,234,1,439,351,107,0,0,455,19477,-23623,460,-5.59,,,,,,,,,,,,
174104,1564149777106,-1,2.5,0.93,0.42,1.37,1.07,0.71,-0.51,0.58,17,3,23,0.88,8608,59,81,43,66,1247,461.0,651,466,60,127.0,234,1,431,359,107,0,0,452,19477,16408,461,-5.59,,,,,,,,,,,,
174124,1564149777126,4,2.49,0.93,0.42,1.37,1.07,0.67,-0.44,0.66,17,2,22,0.8,8737,59,81,43,66,1277,460.0,653,468,60,126.0,254,1,423,354,117,0,0,458,21580,2211,461,-5.59,,,,,,,,,,,,
174144,1564149777146,3,2.5,0.93,0.42,1.37,1.08,0.74,-0.46,0.76,17,1,22,0.87,8806,59,81,43,65,1321,461.0,653,473,60,127.0,254,1,415,355,117,0,0,461,20625,-3210,461,-5.59,44.681126,10.02507,43.98,178.8,0,0.0,-1,0.0,0.0,0,0.33,2.9024
174164,1564149777166,1,2.48,0.93,0.42,1.37,1.07,0.85,-0.39,0.77,17,1,22,0.94,8798,60,81,43,65,1362,463.0,657,471,60,128.0,254,1,419,355,117,0,0,475,20625,-3210,463,-5.59,,,,,,,,,,,,
174184,1564149777186,3,2.49,0.93,0.42,1.36,1.07,0.92,-0.48,0.76,17,1,21,1.04,8696,60,81,43,65,1388,465.0,654,468,60,128.0,254,1,426,354,117,0,0,473,-18341,-16384,465,-5.59,,,,,,,,,,,,
174204,1564149777206,1,2.49,0.93,0.42,1.36,1.08,0.86,-0.52,0.75,17,1,21,1.01,8802,60,81,43,65,1412,468.0,658,468,60,128.0,254,1,418,355,117,0,0,465,16648,-17956,468,-5.59,,,,,,,,,,,,
174224,1564149777206,-0,2.49,0.93,0.42,1.36,1.07,0.75,-0.55,0.7,16,3,21,0.93,8877,60,81,43,66,1430,467.0,660,463,60,127.0,254,1,415,356,117,0,0,475,10305,-17956,469,-5.59,,,,,,,,,,,,
174244,1564149777226,0,2.48,0.93,0.42,1.37,1.07,0.65,-0.62,0.67,16,5,21,0.9,8861,60,81,43,65,1442,470.0,661,461,60,126.0,259,1,415,355,121,0,0,478,8488,-9203,470,-5.59,44.681118,10.025067,44.89,178.8,0,0.0,-1,0.0,0.0,0,0.33,2.9041
174264,1564149777246,1,2.49,0.92,0.42,1.37,1.07,0.52,-0.54,0.64,17,6,21,0.75,8831,60,81,43,65,1433,473.0,655,468,60,127.0,259,1,417,355,121,0,0,472,3571,2212,473,-5.59,,,,,,,,,,,,
174284,1564149777266,-0,2.48,0.93,0.42,1.36,1.07,0.48,-0.52,0.7,17,6,22,0.7,8924,60,81,43,65,1424,474.0,655,465,60,128.0,259,1,410,356,121,0,0,472,-6387,-23367,474,-5.59,,,,,,,,,,,,
174304,1564149777296,1,2.49,0.93,0.41,1.36,1.08,0.35,-0.45,0.71,17,8,21,0.57,9001,60,81,43,65,1413,474.0,657,468,60,127.0,259,1,405,357,121,0,0,483,3571,16648,474,-5.59,,,,,,,,,,,,
174324,1564149777316,1,2.49,0.93,0.42,1.37,1.07,0.26,-0.45,0.68,17,9,21,0.52,9101,60,81,43,65,1402,476.0,659,465,60,128.0,258,1,407,357,123,0,0,477,2524,505,476,-5.59,,,,,,,,,,,,
174344,1564149777336,-2,2.49,0.93,0.42,1.36,1.08,0.1,-0.44,0.66,17,9,21,0.45,9119,60,81,43,65,1399,479.0,657,467,60,128.0,258,1,407,357,123,0,0,499,-26615,-1818,480,-5.59,44.681107,10.025064,45.19,178.8,0,0.0,-1,0.0,0.0,0,0.33,2.9057
174364,1564149777356,2,2.48,0.93,0.42,1.37,1.07,0.09,-0.45,0.61,17,10,22,0.46,9084,60,81,43,65,1394,481.0,660,461,60,127.0,258,1,407,357,123,0,0,505,-18108,-6656,481,-5.59,,,,,,,,,,,,
174384,1564149777376,3,2.49,0.93,0.42,1.36,1.08,0.09,-0.5,0.62,17,9,21,0.51,9075,59,81,43,65,1379,482.0,660,471,60,128.0,258,1,406,357,123,0,0,486,-23623,998,482,-5.59,,,,,,,,,,,,
174404,1564149777402,3,2.48,0.93,0.42,1.37,1.07,0.12,-0.56,0.61,17,8,22,0.58,9106,58,81,43,65,1364,484.0,662,471,60,128.0,258,1,407,357,123,0,0,491,6193,1,487,-5.59,,,,,,,,,,,,
174424,1564149777422,5,2.48,0.93,0.42,1.37,1.07,0.27,-0.64,0.66,16,5,22,0.7,9186,57,81,43,65,1351,488.0,665,467,60,128.0,258,1,408,352,123,0,0,499,16408,-1818,488,-5.59,,,,,,,,,,,,
174444,1564149777442,-0,2.49,0.93,0.42,1.36,1.07,0.37,-0.59,0.63,16,5,22,0.69,9286,57,81,43,63,1338,489.0,663,471,60,127.0,254,1,409,352,124,0,0,493,-3210,-32768,489,-5.59,44.681095,10.025059,46.5,178.8,0,0.0,-1,0.0,0.0,0,0.33,2.9074
174464,1564149777462,2,2.48,0.94,0.42,1.37,1.07,0.4,-0.48,0.64,17,4,22,0.63,9365,57,81,43,63,1324,492.0,663,471,60,128.0,254,1,411,348,124,0,0,495,10432,-28648,492,-5.59,,,,,,,,,,,,
174484,1564149777482,2,2.49,0.93,0.42,1.36,1.07,0.41,-0.51,0.64,17,4,22,0.65,9460,57,81,43,63,1311,493.0,663,463,60,128.0,254,1,412,348,124,0,0,502,32033,2109,493,-5.59,,,,,,,,,,,,
174504,1564149777502,0,2.49,0.93,0.42,1.36,1.08,0.42,-0.5,0.68,17,4,22,0.66,9551,56,81,43,63,1308,496.0,666,460,60,128.0,254,1,414,351,124,0,0,508,-17956,-21872,496,-5.59,,,,,,,,,,,,
174524,1564149777503,3,2.48,0.93,0.42,1.37,1.07,0.44,-0.46,0.74,17,5,22,0.64,9576,54,81,43,62,1307,498.0,665,472,60,127.0,254,1,414,349,124,0,0,514,-23367,-3414,498,-5.59,,,,,,,,,,,,
174544,1564149777523,3,2.5,0.94,0.42,1.36,1.07,0.43,-0.43,0.65,17,5,22,0.61,9585,52,81,43,60,1295,502.0,667,471,60,128.0,253,1,412,339,126,0,0,511,-23367,-3414,502,-5.59,44.681084,10.025053,47.34,178.8,0,0.0,-1,0.0,0.0,0,0.33,2.9091
174564,1564149777543,-1,2.49,0.93,0.42,1.37,1.07,0.48,-0.36,0.79,17,3,22,0.6,9595,50,81,43,59,1283,503.0,665,477,60,128.0,253,1,409,334,126,0,0,513,10305,-14,503,-5.59,,,,,,,,,,,,
174584,1564149777563,2,2.49,0.93,0.42,1.37,1.08,0.49,-0.4,0.74,17,2,22,0.63,9595,50,81,43,58,1272,508.0,666,466,60,127.0,253,1,408,329,126,0,0,511,3580,-9212,508,-5.59,,,,,,,,,,,,
174604,1564149777583,-0,2.49,0.93,0.42,1.36,1.08,0.49,-0.45,0.71,17,2,21,0.66,9600,49,81,43,58,1262,509.0,663,467,60,128.0,253,1,407,324,126,0,0,520,505,-3482,509,-5.59,,,,,,,,,,,,
174624,1564149777609,1,2.49,0.93,0.42,1.37,1.07,0.46,-0.37,0.82,17,3,22,0.59,9605,48,81,43,57,1231,511.0,666,471,60,126.0,230,1,405,324,118,0,0,516,-6656,1341,511,-5.59,,,,,,,,,,,,
174644,1564149777629,2,2.5,0.93,0.42,1.37,1.06,0.48,-0.36,0.64,17,2,22,0.6,9654,46,81,43,56,1197,513.0,671,463,60,127.0,230,1,403,320,118,0,0,520,248,-9212,513,-5.59,44.681072,10.025046,48.35,178.8,0,0.0,-1,0.0,0.0,0,0.33,2.9107
174664,1564149777649,3,2.49,0.93,0.42,1.37,1.07,0.45,-0.35,0.78,18,1,20,0.57,9720,45,81,43,55,1171,515.0,669,470,60,128.0,230,1,401,316,118,0,0,524,-32768,-8187,515,-5.59,,,,,,,,,,,,
174684,1564149777669,3,2.49,0.93,0.42,1.36,1.08,0.5,-0.36,0.58,18,0,22,0.62,9816,42,81,43,53,1149,516.0,673,467,60,128.0,230,1,397,299,118,0,0,518,-6528,2088,516,-5.59,,,,,,,,,,,,
174704,1564149777697,2,2.5,0.92,0.42,1.36,1.08,0.54,-0.43,0.72,18,-1,22,0.7,9816,39,81,43,52,1122,520.0,671,468,60,127.0,230,1,394,289,118,0,0,528,771,2524,520,-5.59,,,,,,,,,,,,
174724,1564149777717,-0,2.49,0.94,0.42,1.36,1.07,0.56,-0.43,0.7,18,-0,21,0.71,9842,37,81,43,50,1093,523.0,672,469,60,128.0,191,1,388,269,100,0,0,536,-9216,2088,523,-5.59,,,,,,,,,,,,
174744,1564149777737,4,2.49,0.93,0.42,1.36,1.07,0.66,-0.46,0.74,18,1,22,0.81,9894,34,81,43,48,1079,525.0,671,471,60,128.0,191,1,382,249,100,0,0,530,-22519,-28648,525,-5.59,44.681065,10.02504,49.59,178.8,0,0.0,-1,0.0,0.0,0,0.33,2.9124
174764,1564149777757,0,2.5,0.93,0.42,1.36,1.07,0.64,-0.5,0.7,19,1,21,0.81,9889,33,81,43,47,1074,526.0,667,468,60,128.0,191,1,380,240,100,0,0,518,11560,2104,526,-5.59,,,,,,,,,,,,
174784,1564149777777,4,2.49,0.93,0.42,1.36,1.08,0.7,-0.53,0.64,19,0,22,0.88,9796,33,81,43,45,1058,528.0,665,469,60,127.0,191,1,365,231,100,0,0,525,15661,-30064,528,-5.59,,,,,,,,,,,,
174804,1564149777803,1,2.5,0.93,0.42,1.36,1.08,0.65,-0.56,0.67,19,2,21,0.86,9760,33,81,43,45,1037,527.0,669,470,60,128.0,191,1,365,231,100,0,0,531,-22519,-28648,527,-5.59,,,,,,,,,,,,
174824,1564149777823,2,2.5,0.93,0.42,1.36,1.07,0.69,-0.58,0.62,18,1,22,0.9,9780,33,81,42,44,1018,528.0,666,467,60,128.0,159,1,357,228,84,0,0,523,2109,2104,528,-5.59,,,,,,,,,,,,
174844,1564149777843,-0,2.49,0.93,0.42,1.36,1.07,0.59,-0.55,0.63,18,4,22,0.81,9765,33,81,42,44,1002,527.0,668,465,60,128.0,159,1,357,227,84,0,0,519,6274,-28648,527,-5.59,44.681049,10.025031,50.74,178.8,0,0.0,-1,0.0,0.0,0,0.34,2.9141
174864,1564149777863,2,2.49,0.93,0.43,1.36,1.07,0.73,-0.59,0.61,18,1,22,0.94,9715,33,81,42,43,977,528.0,668,463,60,128.0,159,1,350,224,84,0,0,516,-32248,-9072,528,-5.59,,,,,,,,,,,,
174884,1564149777883,2,2.48,0.93,0.42,1.37,1.08,0.66,-0.53,0.64,19,-1,23,0.84,9709,33,81,42,43,944,529.0,670,475,60,128.0,159,1,350,224,84,0,0,516,6274,2524,529,-5.59,,,,,,,,,,,,
174904,1564149777903,4,2.49,0.93,0.42,1.36,1.08,0.77,-0.6,0.63,19,-1,23,0.97,9760,33,81,42,43,917,529.0,669,465,60,128.0,159,1,350,225,84,0,0,515,-32248,-9072,529,-5.59,,,,,,,,,,,,
174924,1564149777905,0,2.49,0.93,0.42,1.37,1.08,0.72,-0.6,0.6,19,-0,22,0.94,9791,33,81,42,43,900,530.0,671,466,60,128.0,156,1,350,225,83,0,0,517,15661,-28648,530,-5.59,,,,,,,,,,,,
174944,1564149777925,3,2.48,0.93,0.42,1.37,1.07,0.85,-0.68,0.59,18,-0,22,1.09,9755,33,81,42,43,881,533.0,662,467,60,127.0,156,1,350,225,83,0,0,516,-32248,-22519,529,-5.59,44.681042,10.025023,51.25,178.8,0,0.0,-1,0.0,0.0,0,0.34,2.9157
174964,1564149777945,1,2.46,0.92,0.42,1.37,1.07,0.74,-0.69,0.56,19,1,23,1.01,9801,33,81,42,43,859,531.0,670,472,60,128.0,156,1,350,225,83,0,0,517,6274,2104,531,-5.59,,,,,,,,,,,,
174984,1564149777965,3,2.46,0.93,0.42,1.36,1.07,0.8,-0.68,0.54,19,0,24,1.05,9811,31,81,42,43,842,533.0,667,473,60,127.0,156,1,350,225,83,0,0,515,-28648,14504,533,-5.59,,,,,,,,,,,,
175004,1564149777985,3,2.47,0.92,0.42,1.37,1.07,0.66,-0.62,0.57,19,2,22,0.9,9801,29,81,42,42,837,530.0,667,471,60,128.0,156,1,342,223,83,0,0,516,6274,2524,530,-5.59,,,,,,,,,,,,
175024,1564149778007,3,2.47,0.93,0.42,1.36,1.08,0.77,-0.61,0.43,19,3,23,0.98,9786,28,81,42,41,832,530.0,676,460,60,127.0,156,1,335,219,83,0,0,515,2109,-28648,530,-5.59,,,,,,,,,,,,
175044,1564149778027,-0,2.47,0.93,0.42,1.37,1.07,0.7,-0.56,0.57,19,1,22,0.9,9745,28,81,42,40,824,531.0,671,472,60,128.0,152,1,327,215,81,0,0,514,-32248,2524,531,-5.59,44.681026,10.025013,51.76,178.8,0,0.0,-1,0.0,0.0,0,0.34,2.9174
175064,1564149778047,3,2.47,0.93,0.42,1.37,1.07,0.79,-0.65,0.56,19,1,23,1.02,9694,28,81,42,40,818,531.0,675,465,60,126.0,152,1,327,215,81,0,0,511,-32248,14504,531,-5.59,,,,,,,,,,,,
175084,1564149778067,-0,2.46,0.93,0.42,1.36,1.08,0.78,-0.62,0.59,19,1,21,1.0,9689,28,81,42,39,816,531.0,668,468,60,128.0,152,1,320,212,81,0,0,507,6274,14504,531,-5.59,,,,,,,,,,,,
175104,1564149778095,3,2.46,0.92,0.42,1.36,1.08,0.83,-0.74,0.55,19,1,23,1.11,9585,28,81,42,39,815,529.0,664,466,60,128.0,152,1,320,212,81,0,0,508,6274,2088,529,-5.59,,,,,,,,,,,,
175124,1564149778115,4,2.46,0.94,0.42,1.37,1.08,0.85,-0.67,0.47,19,1,23,1.08,9580,28,81,42,39,813,527.0,666,475,60,127.0,146,1,320,212,77,0,0,506,6274,2524,527,-5.59,,,,,,,,,,,,
175144,1564149778135,1,2.46,0.93,0.42,1.37,1.08,0.82,-0.59,0.6,18,-0,21,1.01,9541,28,81,42,38,813,527.0,662,475,60,126.0,146,1,317,212,77,0,0,508,-32248,2104,527,-5.59,44.681019,10.025002,50.9,178.8,0,0.0,-1,0.0,0.0,0,0.34,2.9191
175164,1564149778155,4,2.45,0.93,0.42,1.37,1.08,0.86,-0.73,0.54,18,1,22,1.13,9503,27,81,42,38,814,528.0,665,467,60,128.0,146,1,317,209,77,0,0,506,6274,2088,528,-5.59,,,,,,,,,,,,
175184,1564149778175,4,2.46,0.93,0.43,1.36,1.08,0.87,-0.68,0.48,17,1,22,1.1,9455,27,81,42,38,814,525.0,661,472,60,128.0,146,1,317,208,77,0,0,508,-32248,2088,525,-5.59,,,,,,,,,,,,
175204,1564149778199,-1,2.46,0.93,0.42,1.36,1.08,0.81,-0.54,0.52,18,1,22,0.97,9398,26,81,42,38,810,525.0,660,478,60,129.0,146,1,317,208,77,0,0,503,-32248,-32248,524,-5.59,,,,,,,,,,,,
175224,1564149778219,2,2.45,0.93,0.42,1.37,1.08,0.8,-0.59,0.48,18,3,22,0.99,9360,24,81,42,38,807,523.0,658,464,60,128.0,139,1,317,208,73,0,0,504,15661,-22519,524,-5.59,,,,,,,,,,,,
175244,1564149778239,2,2.45,0.93,0.42,1.36,1.08,0.76,-0.65,0.51,17,3,21,1.0,9231,23,81,42,37,802,523.0,662,465,60,127.0,139,1,314,203,73,0,0,505,-32248,-22519,523,-5.59,44.681007,10.02499,51.2,178.8,0,0.0,-1,0.0,0.0,0,0.34,2.9207
175264,1564149778259,0,2.46,0.93,0.42,1.36,1.08,0.78,-0.74,0.53,17,2,21,1.07,9132,23,81,42,37,798,525.0,661,467,60,129.0,139,1,314,202,73,0,0,507,10408,-22519,525,-5.59,,,,,,,,,,,,
175284,1564149778279,2,2.45,0.93,0.42,1.37,1.07,0.87,-0.8,0.58,16,2,21,1.18,9036,23,81,42,36,796,520.0,657,471,60,128.0,139,1,311,201,73,0,0,501,2109,-8187,520,-5.59,,,,,,,,,,,,
175304,1564149778299,2,2.45,0.93,0.42,1.36,1.08,0.93,-0.8,0.59,16,2,22,1.23,8975,23,81,42,36,793,522.0,657,467,60,128.0,139,1,311,199,73,0,0,501,15661,1341,522,-5.59,,,,,,,,,,,,
175324,1564149778303,2,2.45,0.93,0.42,1.36,1.08,1.04,-0.85,0.56,15,-0,21,1.34,9010,22,81,42,36,796,520.0,659,468,60,128.0,139,1,311,199,73,0,0,495,11560,-4054,519,-5.59,,,,,,,,,,,,
175344,1564149778323,2,2.45,0.93,0.42,1.36,1.08,1.08,-0.77,0.43,15,1,20,1.33,9141,22,81,42,35,798,516.0,660,471,60,129.0,131,1,308,200,68,0,0,484,-9216,-28648,516,-5.59,44.681,10.02498,50.73,178.8,0,0.0,-1,0.0,0.0,0,0.34,2.9224
175364,1564149778343,0,2.45,0.93,0.42,1.36,1.07,1.11,-0.65,0.44,15,-0,20,1.29,9305,22,81,42,35,802,512.0,661,470,60,128.0,131,1,308,199,68,0,0,484,771,-3414,512,-5.59,,,,,,,,,,,,
175384,1564149778363,1,2.43,0.93,0.42,1.37,1.08,1.12,-0.72,0.51,15,2,19,1.33,9455,22,81,42,34,807,512.0,660,461,60,127.0,131,1,305,200,68,0,0,488,-6528,15661,511,-5.59,,,,,,,,,,,,
175404,1564149778383,4,2.43,0.93,0.42,1.37,1.07,1.08,-0.77,0.5,14,-0,19,1.33,9484,22,81,42,34,809,509.0,662,467,60,128.0,131,1,305,199,68,0,0,485,-6528,10408,510,-5.59,,,,,,,,,,,,
175424,1564149778409,4,2.43,0.93,0.42,1.37,1.07,1.08,-0.64,0.5,14,0,20,1.26,9417,22,81,42,34,810,509.0,663,466,60,128.0,137,1,305,198,70,0,0,489,-1818,-3856,509,-5.59,,,,,,,,,,,,
175444,1564149778429,1,2.43,0.93,0.42,1.37,1.08,1.13,-0.5,0.48,14,-0,20,1.24,9300,22,81,42,34,812,508.0,661,470,60,128.0,137,1,305,196,70,0,0,492,998,15661,508,-5.59,44.680988,10.024966,50.29,178.8,0,0.0,-1,0.0,0.0,0,0.34,2.9241
175464,1564149778449,-1,2.44,0.93,0.42,1.36,1.08,1.05,-0.4,0.55,15,2,18,1.12,9137,22,81,42,35,815,506.0,663,463,60,128.0,137,1,308,196,70,0,0,489,1,-9216,506,-5.59,,,,,,,,,,,,
175484,1564149778469,0,2.43,0.93,0.42,1.37,1.07,0.99,-0.44,0.51,15,2,17,1.08,9049,22,81,42,36,816,504.0,662,465,60,128.0,137,1,311,199,70,0,0,480,-1818,6274,504,-5.59,,,,,,,,,,,,
175504,1564149778497,-1,2.43,0.93,0.42,1.36,1.07,0.83,-0.45,0.46,15,4,16,0.95,9049,22,81,42,36,816,501.0,661,471,60,129.0,137,1,311,199,70,0,0,483,3580,3,501,-5.59,,,,,,,,,,,,
175524,1564149778517,1,2.42,0.93,0.42,1.36,1.07,0.78,-0.55,0.43,14,3,16,0.96,9119,22,81,42,36,820,500.0,665,465,60,128.0,138,1,311,200,69,0,0,474,-6441,-32768,500,-5.59,,,,,,,,,,,,
175544,1564149778537,3,2.42,0.93,0.42,1.37,1.07,0.9,-0.55,0.39,13,2,16,1.06,9213,22,81,42,35,824,498.0,665,465,60,128.0,138,1,308,198,69,0,0,477,-899,3,496,-5.59,44.680981,10.024954,49.7,178.8,0,0.0,-1,0.0,0.0,0,0.35,2.9257
175564,1564149778557,4,2.43,0.92,0.42,1.36,1.08,0.92,-0.58,0.41,13,2,16,1.09,9268,22,81,42,35,827,496.0,663,470,60,129.0,138,1,308,199,69,0,0,482,10305,998,496,-5.59,,,,,,,,,,,,
175584,1564149778577,3,2.43,0.93,0.42,1.37,1.07,1.03,-0.52,0.39,13,0,16,1.15,9291,22,81,42,34,831,496.0,663,470,60,128.0,138,1,305,196,69,0,0,480,32033,-6528,496,-5.59,,,,,,,,,,,,
175604,1564149778602,-0,2.43,0.92,0.42,1.37,1.08,0.93,-0.56,0.37,13,2,16,1.08,9277,22,81,42,34,833,496.0,666,465,60,128.0,138,1,305,196,69,0,0,478,8488,-22519,496,-5.59,,,,,,,,,,,,
175624,1564149778622,-0,2.43,0.93,0.42,1.36,1.08,0.82,-0.49,0.37,14,1,15,0.96,9291,22,81,42,34,835,496.0,665,468,60,127.0,139,1,305,196,69,0,0,480,10305,2524,496,-5.59,,,,,,,,,,,,
175644,1564149778642,1,2.43,0.93,0.42,1.36,1.08,0.75,-0.59,0.36,13,2,15,0.95,9272,22,81,42,34,836,494.0,661,466,60,128.0,139,1,305,196,69,0,0,478,-23367,998,494,-5.59,44.680973,10.02494,48.75,178.8,0,0.0,-1,0.0,0.0,0,0.35,2.9274
175664,1564149778662,2,2.42,0.93,0.42,1.36,1.07,0.88,-0.54,0.32,13,1,15,1.03,9263,22,81,42,33,834,494.0,663,461,60,127.0,139,1,302,193,69,0,0,474,2212,771,492,-5.59,,,,,,,,,,,,
175684,1564149778682,1,2.42,0.93,0.42,1.36,1.07,0.95,-0.56,0.38,12,1,16,1.1,9250,22,81,42,33,836,493.0,660,471,60,129.0,139,1,302,193,69,0,0,479,2212,248,492,-5.59,,,,,,,,,,,,
175704,1564149778702,2,2.43,0.93,0.43,1.37,1.07,1.06,-0.48,0.35,12,0,15,1.16,9241,22,81,42,33,838,490.0,665,475,60,128.0,139,1,302,192,69,0,0,477,-23367,-6528,490,-5.59,,,,,,,,,,,,
175724,1564149778706,-1,2.43,0.93,0.42,1.37,1.08,0.9,-0.47,0.32,13,2,15,1.01,9231,22,81,42,33,841,490.0,662,462,60,127.0,139,1,302,192,69,0,0,478,-9203,-6528,490,-5.59,,,,,,,,,,,,
175744,1564149778726,-0,2.42,0.93,0.42,1.36,1.07,0.82,-0.57,0.24,13,2,15,1.0,9168,22,81,42,33,845,490.0,665,469,60,127.0,136,1,302,191,67,0,0,481,-17956,998,490,-5.59,44.680965,10.024927,48.07,178.8,0,0.0,-1,0.0,0.0,0,0.35,2.9291
175764,1564149778746,1,2.42,0.93,0.42,1.37,1.07,0.85,-0.69,0.28,12,3,14,1.09,9173,22,81,42,33,848,488.0,662,464,60,128.0,136,1,302,191,67,0,0,477,-1923,3580,491,-5.59,,,,,,,,,,,,
175784,1564149778766,1,2.42,0.93,0.42,1.37,1.07,0.93,-0.7,0.29,12,3,15,1.16,9159,22,81,42,33,852,488.0,660,466,60,127.0,136,1,302,191,67,0,0,477,-1923,-899,488,-5.59,,,,,,,,,,,,
175804,1564149778792,3,2.43,0.93,0.42,1.37,1.08,1.04,-0.67,0.32,11,3,15,1.24,9146,22,81,42,33,854,488.0,661,461,60,126.0,136,1,302,190,67,0,0,472,-1923,505,488,-5.59,,,,,,,,,,,,
175824,1564149778812,3,2.42,0.93,0.42,1.37,1.07,1.12,-0.54,0.32,11,3,15,1.25,9132,22,81,42,33,854,486.0,660,470,60,128.0,133,1,302,190,65,0,0,477,-1923,-10483,486,-5.59,,,,,,,,,,,,
175844,1564149778832,2,2.43,0.92,0.43,1.36,1.08,1.21,-0.42,0.39,10,1,15,1.28,9119,22,81,42,33,856,485.0,660,469,60,128.0,133,1,302,190,65,0,0,475,10432,505,486,-5.59,44.680958,10.024914,47.77,178.8,0,0.0,-1,0.0,0.0,0,0.35,2.9307
175864,1564149778852,2,2.43,0.93,0.43,1.37,1.08,1.22,-0.28,0.47,10,0,14,1.25,9079,22,81,42,33,862,488.0,660,470,60,128.0,133,1,302,189,65,0,0,473,32033,-6441,486,-5.59,,,,,,,,,,,,
175884,1564149778872,3,2.43,0.93,0.43,1.36,1.08,1.22,-0.16,0.57,10,-2,14,1.23,9044,21,81,42,33,867,485.0,660,467,60,128.0,133,1,302,188,65,0,0,477,-16384,505,485,-5.59,,,,,,,,,,,,
175904,1564149778902,3,2.42,0.93,0.43,1.36,1.08,1.22,-0.04,0.63,10,-2,15,1.22,9005,21,81,42,33,873,486.0,660,471,60,128.0,133,1,302,188,65,0,0,471,-1923,-10483,486,-5.59,,,,,,,,,,,,
175924,1564149778922,3,2.41,0.93,0.42,1.37,1.08,1.23,0.02,0.74,10,-4,14,1.23,8941,21,81,42,33,881,484.0,661,471,60,128.0,130,1,302,188,63,0,0,476,-1923,3580,485,-5.59,,,,,,,,,,,,
175944,1564149778942,2,2.41,0.93,0.42,1.37,1.07,1.27,0.1,0.81,10,-3,13,1.27,8911,19,81,42,33,897,485.0,659,470,60,129.0,130,1,302,188,63,0,0,472,32033,-10483,485,-5.59,44.68095,10.0249,47.64,178.7,0,0.0,-1,0.0,0.0,0,0.35,2.9324
175964,1564149778962,1,2.41,0.93,0.43,1.36,1.07,1.35,0.11,0.85,9,-3,13,1.35,8856,16,81,42,32,911,484.0,655,472,60,128.0,130,1,300,185,63,0,0,476,8488,-6441,484,-5.59,,,,,,,,,,,,
175984,1564149778982,1,2.4,0.93,0.42,1.37,1.07,1.41,0.07,0.89,9,-2,13,1.41,8815,16,80,42,32,922,483.0,658,467,60,129.0,130,1,300,185,63,0,0,468,10432,-10483,484,-5.59,,,,,,,,,,,,
176004,1564149779002,0,2.41,0.92,0.42,1.37,1.07,1.45,-0.07,0.83,9,-1,13,1.45,8745,13,81,42,31,934,484.0,656,463,60,127.0,130,1,295,110,63,0,0,475,243,-10483,482,-5.59,,,,,,,,,,,,
176024,1564149779002,4,2.4,0.93,0.42,1.37,1.08,1.28,-0.14,0.7,9,0,14,1.29,8672,9,80,42,30,949,481.0,657,465,60,128.0,124,1,291,185,60,0,0,470,-3210,-899,481,-5.59,,,,,,,,,,,,
176044,1564149779022,2,2.4,0.93,0.42,1.37,1.08,1.18,-0.11,0.66,9,-0,13,1.19,8632,7,81,42,28,964,481.0,655,470,60,128.0,124,1,282,185,60,0,0,470,10432,32033,481,-5.59,44.680946,10.024886,47.11,178.7,0,0.0,-1,0.0,0.0,0,0.35,2.9341
176064,1564149779042,0,2.4,0.93,0.42,1.36,1.07,1.22,-0.14,0.74,9,-0,13,1.23,8488,6,81,42,26,969,479.0,653,469,60,128.0,124,1,274,184,60,0,0,469,10432,-1923,480,-5.59,,,,,,,,,,,,
176084,1564149779062,2,2.4,0.93,0.42,1.37,1.08,1.15,-0.14,0.66,9,-1,13,1.16,8285,6,81,42,26,974,478.0,650,468,60,128.0,124,1,273,173,60,0,0,472,-16384,-1562,478,-5.59,,,,,,,,,,,,
176104,1564149779092,3,2.4,0.93,0.43,1.36,1.08,1.1,-0.16,0.59,9,-0,13,1.11,8074,6,81,42,25,981,479.0,646,468,60,130.0,124,1,270,160,60,0,0,465,243,10305,479,-5.59,,,,,,,,,,,,
176124,1564149779112,-0,2.41,0.92,0.42,1.36,1.08,1.19,-0.18,0.58,8,-2,13,1.2,7951,6,81,42,26,987,478.0,647,468,60,127.0,124,1,272,156,60,0,0,465,-3210,3576,480,-5.59,,,,,,,,,,,,
176144,1564149779132,1,2.4,0.93,0.42,1.36,1.08,1.23,-0.2,0.59,8,-3,12,1.24,7944,6,80,42,25,989,474.0,643,468,60,128.0,97,1,269,157,47,0,0,448,12552,12552,474,-5.59,44.680939,10.024872,47.27,178.7,0,0.0,-1,0.0,0.0,0,0.35,2.9357
176164,1564149779152,3,2.39,0.93,0.42,1.36,1.07,1.16,-0.15,0.51,7,-3,12,1.17,7961,6,80,42,25,991,468.0,643,469,60,128.0,97,1,269,156,47,0,0,450,-23623,-26615,468,-5.59,,,,,,,,,,,,
176184,1564149779172,-0,2.4,0.92,0.42,1.36,1.08,1.22,-0.11,0.48,7,-2,13,1.23,8012,6,81,42,25,986,466.0,645,468,60,128.0,97,1,269,156,47,0,0,444,-9160,16648,465,-5.59,,,,,,,,,,,,
176204,1564149779198,1,2.38,0.92,0.42,1.36,1.07,1.2,-0.1,0.43,7,-4,12,1.21,8074,6,81,42,25,981,463.0,645,470,60,128.0,97,1,270,160,47,0,0,450,14488,21432,463,-5.59,,,,,,,,,,,,
176224,1564149779218,2,2.38,0.92,0.43,1.36,1.08,1.14,-0.15,0.38,6,-4,12,1.15,8054,6,81,42,25,974,461.0,642,469,60,129.0,104,1,270,159,48,0,0,436,3571,23400,461,-5.59,,,,,,,,,,,,
176244,1564149779238,-0,2.38,0.93,0.42,1.37,1.07,1.2,-0.18,0.33,6,-3,14,1.22,8106,6,81,42,25,966,457.0,645,469,60,128.0,104,1,270,162,48,0,0,437,15649,-18341,457,-5.59,44.680931,10.024858,46.79,178.7,0,0.0,-1,0.0,0.0,0,0.36,2.9374
176264,1564149779258,3,2.38,0.93,0.41,1.37,1.07,1.13,-0.25,0.33,6,-2,12,1.16,8155,6,81,42,25,958,456.0,646,469,60,129.0,104,1,270,165,48,0,0,442,2131,243,456,-5.59,,,,,,,,,,,,
176284,1564149779278,-0,2.38,0.92,0.41,1.36,1.07,1.2,-0.24,0.44,6,-2,10,1.22,8148,6,81,42,25,949,451.0,647,468,60,128.0,104,1,270,164,48,0,0,432,23400,21580,451,-5.59,,,,,,,,,,,,
176304,1564149779308,2,2.38,0.93,0.41,1.37,1.07,1.1,-0.32,0.39,6,-2,11,1.15,8145,6,80,42,25,945,449.0,652,468,60,128.0,104,1,270,164,48,0,0,433,20625,-7939,449,-5.59,,,,,,,,,,,,
176324,1564149779328,-1,2.38,0.92,0.41,1.36,1.07,1.13,-0.29,0.51,6,-1,11,1.17,8155,6,81,42,24,944,445.0,650,471,60,129.0,110,1,270,161,49,0,0,434,-28332,243,445,-5.59,,,,,,,,,,,,
176344,1564149779348,1,2.38,0.92,0.41,1.36,1.07,1.11,-0.3,0.52,6,-1,9,1.15,8134,6,80,42,25,939,441.0,648,467,60,128.0,110,1,270,164,49,0,0,433,-768,-7939,441,-5.59,44.680923,10.024843,45.0,178.7,0,0.0,-1,0.0,0.0,0,0.36,2.9391
176364,1564149779368,2,2.38,0.92,0.41,1.36,1.07,1.02,-0.3,0.43,6,-0,9,1.06,8071,6,81,42,25,934,440.0,652,467,60,129.0,110,1,270,160,49,0,0,427,1779,-3314,440,-5.59,,,,,,,,,,,,
176384,1564149779388,-1,2.37,0.92,0.42,1.36,1.07,1.08,-0.21,0.45,6,0,8,1.11,8036,6,80,42,25,929,438.0,650,467,60,128.0,110,1,270,158,49,0,0,429,1779,31796,438,-5.59,,,,,,,,,,,,
176404,1564149779408,2,2.37,0.93,0.42,1.37,1.07,1.07,-0.16,0.4,6,-2,8,1.09,7985,6,80,42,25,925,434.0,647,471,60,128.0,110,1,269,156,49,0,0,430,13180,13552,434,-5.59,,,,,,,,,,,,
176424,1564149779408,3,2.37,0.93,0.41,1.37,1.07,0.98,-0.09,0.33,6,-2,8,0.99,7924,6,80,42,25,922,432.0,645,470,60,129.0,106,1,269,156,46,0,0,426,31796,-3856,432,-5.59,,,,,,,,,,,,
176444,1564149779428,3,2.37,0.92,0.42,1.36,1.08,1.0,-0.08,0.37,6,-1,7,1.0,7924,6,80,42,25,918,432.0,643,467,60,128.0,106,1,269,156,46,0,0,421,-4082,-21792,432,-5.59,44.680923,10.02483,43.56,178.7,0,0.0,-1,0.0,0.0,0,0.36,2.9407
176464,1564149779448,-2,2.38,0.92,0.42,1.37,1.08,1.06,-0.17,0.39,5,-1,7,1.07,7864,6,80,42,25,918,428.0,641,468,60,127.0,106,1,268,156,46,0,0,421,3826,-9166,428,-5.59,,,,,,,,,,,,
176484,1564149779468,1,2.37,0.92,0.42,1.37,1.07,1.06,-0.14,0.4,5,-2,8,1.07,7783,6,80,42,25,919,426.0,641,468,60,128.0,106,1,267,156,46,0,0,421,-21792,7154,426,-5.59,,,,,,,,,,,,
176504,1564149779494,0,2.38,0.92,0.41,1.35,1.07,1.0,-0.11,0.37,5,-2,6,1.01,7767,6,80,42,25,923,425.0,638,467,60,129.0,106,1,267,156,46,0,0,413,-21944,-9166,425,-5.59,,,,,,,,,,,,
176524,1564149779514,2,2.37,0.93,0.42,1.36,1.07,0.93,-0.12,0.33,5,-0,7,0.94,7700,6,80,42,25,928,423.0,642,467,60,129.0,106,1,267,156,46,0,0,413,-21944,-26615,423,-5.59,,,,,,,,,,,,
176544,1564149779534,2,2.37,0.93,0.42,1.36,1.08,0.89,-0.04,0.27,5,-0,8,0.89,7678,6,80,42,25,933,420.0,639,465,60,128.0,106,1,266,156,45,0,0,413,2524,-4059,420,-5.59,44.680916,10.024817,42.55,178.7,0,0.0,-1,0.0,0.0,0,0.36,2.9424
176564,1564149779554,3,2.37,0.92,0.41,1.36,1.07,0.88,-0.06,0.3,5,0,6,0.89,7646,6,80,42,25,938,418.0,638,469,60,128.0,106,1,266,156,45,0,0,410,13040,13040,418,-5.59,,,,,,,,,,,,
176584,1564149779574,3,2.37,0.92,0.41,1.36,1.07,0.89,-0.06,0.3,5,1,6,0.89,7656,6,80,42,26,940,416.0,641,468,60,128.0,106,1,269,156,45,0,0,406,-4059,-8151,416,-5.59,,,,,,,,,,,,
176604,1564149779601,5,2.37,0.92,0.42,1.37,1.07,0.95,-0.09,0.4,5,3,7,0.95,7621,6,80,42,26,939,413.0,635,468,60,129.0,106,1,269,157,45,0,0,404,11560,1504,413,-5.59,,,,,,,,,,,,
176624,1564149779621,3,2.37,0.92,0.41,1.36,1.08,1.03,-0.1,0.47,5,2,8,1.04,7554,6,80,42,26,936,412.0,637,468,60,128.0,109,1,268,157,45,0,0,404,-26615,-8151,410,-5.59,,,,,,,,,,,,
176644,1564149779641,5,2.37,0.93,0.42,1.35,1.07,1.13,-0.08,0.55,4,2,7,1.13,7518,6,80,42,26,930,410.0,637,467,60,127.0,109,1,268,157,45,0,0,400,1504,2524,410,-5.59,44.680908,10.024803,41.41,178.7,0,0.0,-1,0.0,0.0,0,0.36,2.9441
176664,1564149779661,3,2.39,0.92,0.42,1.36,1.07,1.15,-0.08,0.56,5,3,7,1.15,7473,6,80,42,26,926,409.0,635,468,60,128.0,109,1,267,81,45,0,0,401,-8151,6512,409,-5.59,,,,,,,,,,,,
176684,1564149779681,3,2.4,0.92,0.42,1.36,1.08,1.16,-0.2,0.66,5,4,7,1.18,7458,6,80,42,26,923,407.0,636,470,60,127.0,109,1,267,157,45,0,0,399,6512,-3968,407,-5.59,,,,,,,,,,,,
176704,1564149779701,4,2.4,0.93,0.41,1.35,1.07,1.23,-0.14,0.7,4,3,6,1.23,7431,6,80,43,26,921,405.0,638,468,60,127.0,109,1,267,157,45,0,0,399,-3968,6384,405,-5.59,,,,,,,,,,,,
176724,1564149779701,3,2.41,0.92,0.41,1.36,1.07,1.2,-0.15,0.63,5,5,6,1.21,7405,6,80,43,26,924,403.0,634,468,60,127.0,109,1,266,157,44,0,0,392,17144,-32702,403,-5.59,,,,,,,,,,,,
176744,1564149779721,4,2.41,0.93,0.42,1.37,1.07,1.17,-0.21,0.58,5,6,6,1.19,7396,6,80,43,26,925,401.0,632,466,60,129.0,109,1,266,157,44,0,0,391,-1818,1,401,-5.59,44.680904,10.024791,40.43,178.7,0,0.0,-1,0.0,0.0,0,0.36,2.9457
176764,1564149779741,0,2.41,0.93,0.41,1.36,1.07,1.09,-0.14,0.51,6,7,7,1.1,7341,6,80,43,26,925,401.0,632,468,60,129.0,109,1,266,157,44,0,0,390,-1562,-1818,401,-5.59,,,,,,,,,,,,
176784,1564149779761,1,2.42,0.93,0.41,1.37,1.07,0.99,-0.11,0.46,7,6,7,0.99,7335,6,80,43,27,925,400.0,633,470,60,129.0,109,1,270,157,44,0,0,389,-1562,505,399,-5.59,,,,,,,,,,,,
176804,1564149779791,0,2.42,0.93,0.41,1.37,1.07,0.97,-0.15,0.44,7,3,6,0.98,7278,6,80,43,27,922,398.0,637,466,60,128.0,109,1,270,158,44,0,0,386,240,-31744,398,-5.59,,,,,,,,,,,,
176824,1564149779811,-2,2.45,0.93,0.42,1.36,1.08,1.04,-0.16,0.51,7,2,6,1.06,7250,6,80,43,27,919,398.0,632,469,60,128.0,108,1,270,158,43,0,0,383,-6475,-32702,396,-5.59,,,,,,,,,,,,
176844,1564149779831,2,2.46,0.93,0.41,1.37,1.07,1.05,-0.16,0.55,7,3,7,1.06,7192,6,80,43,27,913,395.0,632,471,60,127.0,108,1,269,158,43,0,0,383,19125,240,394,-5.59,44.680904,10.024777,39.52,178.7,0,0.0,-1,0.0,0.0,0,0.36,2.9474
176864,1564149779851,1,2.47,0.93,0.41,1.36,1.07,1.01,-0.2,0.49,8,4,9,1.03,7159,6,80,43,27,906,394.0,630,470,60,130.0,108,1,269,158,43,0,0,380,-992,240,394,-5.59,,,,,,,,,,,,
176884,1564149779871,1,2.48,0.92,0.41,1.37,1.08,0.93,-0.21,0.41,9,3,9,0.96,7151,6,80,43,28,902,393.0,631,467,60,130.0,108,1,273,158,43,0,0,377,-6656,-19019,393,-5.59,,,,,,,,,,,,
176904,1564149779897,-0,2.48,0.93,0.42,1.36,1.08,0.88,-0.3,0.42,9,1,10,0.93,7107,6,80,43,28,898,391.0,629,467,60,130.0,108,1,273,160,43,0,0,375,3,240,391,-5.59,,,,,,,,,,,,
176924,1564149779917,3,2.49,0.92,0.41,1.36,1.08,0.98,-0.38,0.45,10,2,11,1.05,7072,6,80,43,28,895,391.0,630,470,60,128.0,107,1,272,160,42,0,0,371,742,-6524,391,-5.59,,,,,,,,,,,,
176944,1564149779937,2,2.5,0.92,0.41,1.37,1.07,0.95,-0.38,0.42,12,3,11,1.03,7054,6,80,43,28,892,391.0,623,468,60,130.0,107,1,272,160,42,0,0,367,257,-18948,390,-5.59,44.680897,10.024766,38.76,178.7,0,0.0,-1,0.0,0.0,0,0.36,2.9491
176964,1564149779957,-0,2.51,0.93,0.41,1.37,1.07,0.97,-0.43,0.39,12,2,11,1.06,7009,6,80,43,28,893,390.0,628,468,60,130.0,107,1,272,160,42,0,0,367,0,240,390,-5.59,,,,,,,,,,,,
176984,1564149779977,3,2.51,0.93,0.41,1.37,1.08,0.98,-0.54,0.5,12,2,12,1.12,7004,6,80,43,28,895,388.0,626,468,60,127.0,107,1,272,161,42,0,0,361,230,19125,388,-5.59,,,,,,,,,,,,
177004,1564149780003,-1,2.52,0.93,0.41,1.36,1.08,1.02,-0.53,0.47,13,3,13,1.15,6983,6,80,43,29,899,387.0,624,469,60,128.0,107,1,277,85,42,0,0,364,2790,-19126,388,-5.59,,,,,,,,,,,,
177024,1564149780023,-1,2.53,0.93,0.42,1.36,1.07,0.98,-0.59,0.48,14,2,13,1.14,6929,6,80,43,29,903,386.0,626,467,60,130.0,108,1,277,161,42,0,0,359,-6458,-19126,386,-5.59,,,,,,,,,,,,
177044,1564149780043,2,2.54,0.93,0.41,1.36,1.07,1.04,-0.64,0.47,15,2,14,1.22,6926,6,80,43,29,907,385.0,629,469,60,127.0,108,1,277,161,42,0,0,357,-14707,8200,385,-5.59,44.680893,10.024753,37.98,178.7,0,0.0,-1,0.0,0.0,0,0.36,2.9507
177064,1564149780063,0,2.55,0.92,0.42,1.36,1.08,1.0,-0.62,0.41,16,2,15,1.18,6880,6,80,43,30,910,384.0,625,467,60,130.0,108,1,282,163,42,0,0,354,-29302,-992,383,-5.59,,,,,,,,,,,,
177084,1564149780083,3,2.55,0.93,0.42,1.37,1.08,0.97,-0.68,0.46,16,2,17,1.18,6820,6,80,43,30,914,383.0,624,468,60,128.0,108,1,282,163,42,0,0,354,-6640,-6656,382,-5.59,,,,,,,,,,,,
177104,1564149780103,-2,2.57,0.93,0.42,1.37,1.07,0.95,-0.58,0.39,18,3,18,1.12,6805,6,80,43,30,919,382.0,625,470,60,129.0,108,1,282,163,42,0,0,351,3302,-992,384,-5.59,,,,,,,,,,,,
177124,1564149780103,3,2.57,0.93,0.42,1.37,1.07,0.87,-0.64,0.49,18,2,20,1.08,6768,6,80,43,30,922,383.0,627,468,60,130.0,108,1,282,163,42,0,0,349,28553,8200,383,-5.59,,,,,,,,,,,,
177144,1564149780123,-0,2.6,0.93,0.42,1.37,1.07,0.94,-0.61,0.43,19,3,21,1.12,6768,6,80,43,31,923,382.0,619,468,60,130.0,107,1,286,164,41,0,0,347,28553,8200,382,-5.59,44.680889,10.024741,37.02,178.7,0,0.0,-1,0.0,0.0,0,0.37,2.9524
177164,1564149780143,2,2.61,0.93,0.42,1.36,1.07,0.9,-0.72,0.46,19,1,22,1.16,6710,6,80,43,31,925,382.0,626,467,60,130.0,107,1,286,164,41,0,0,342,8841,742,382,-5.59,,,,,,,,,,,,
177184,1564149780163,0,2.62,0.93,0.42,1.37,1.07,0.93,-0.69,0.36,21,1,22,1.16,6703,6,80,43,31,926,379.0,619,471,60,130.0,107,1,286,164,41,0,0,341,-10554,742,379,-5.59,,,,,,,,,,,,
177204,1564149780191,2,2.62,0.93,0.42,1.37,1.08,0.91,-0.69,0.36,22,1,25,1.14,6689,6,80,43,31,927,377.0,623,468,60,126.0,107,1,286,164,41,0,0,338,-10554,1,377,-5.59,,,,,,,,,,,,
177224,1564149780211,-0,2.64,0.93,0.42,1.37,1.08,0.93,-0.68,0.39,23,0,25,1.15,6646,6,80,43,32,927,379.0,617,468,60,129.0,108,1,290,166,41,0,0,332,6668,1,379,-5.59,,,,,,,,,,,,
177244,1564149780231,-1,2.63,0.92,0.42,1.36,1.08,0.97,-0.8,0.34,23,-1,26,1.26,6602,6,80,43,32,925,378.0,623,469,60,128.0,108,1,290,166,41,0,0,335,3327,742,378,-5.59,44.680885,10.024728,36.34,178.7,0,0.0,-1,0.0,0.0,0,0.37,2.9541
177264,1564149780251,4,2.63,0.94,0.42,1.37,1.07,0.91,-0.78,0.35,25,-0,28,1.2,6542,6,80,43,32,924,379.0,620,468,60,130.0,108,1,290,166,41,0,0,332,-31222,-6656,379,-5.59,,,,,,,,,,,,
177284,1564149780271,0,2.63,0.93,0.43,1.37,1.07,0.96,-0.72,0.38,26,0,28,1.2,6508,6,80,43,33,921,378.0,617,470,60,130.0,108,1,292,171,41,0,0,332,2560,742,378,-5.59,,,,,,,,,,,,
177304,1564149780297,1,2.63,0.93,0.42,1.37,1.07,1.0,-0.84,0.36,25,-1,29,1.3,6492,6,80,43,33,920,374.0,617,469,60,129.0,108,1,292,171,41,0,0,325,4838,-6405,374,-5.59,,,,,,,,,,,,
177324,1564149780317,2,2.62,0.93,0.43,1.37,1.07,0.9,-0.82,0.45,26,-1,31,1.21,6465,6,80,43,33,917,374.0,615,467,60,130.0,109,1,292,171,41,0,0,323,-6528,-6656,372,-5.59,,,,,,,,,,,,
177344,1564149780337,0,2.63,0.93,0.43,1.38,1.07,0.9,-0.78,0.47,27,1,32,1.19,6443,6,80,43,34,916,372.0,613,468,60,128.0,109,1,295,171,41,0,0,322,175,-6405,372,-5.59,44.680885,10.024716,35.63,178.7,0,0.0,-1,0.0,0.0,0,0.37,2.9557
177364,1564149780357,-1,2.63,0.93,0.42,1.37,1.08,1.01,-0.77,0.41,27,0,33,1.27,6419,6,80,43,34,916,369.0,519,468,60,128.0,109,1,295,176,41,0,0,324,175,-6405,369,-5.59,,,,,,,,,,,,
177384,1564149780377,-0,2.63,0.93,0.42,1.37,1.07,1.02,-0.86,0.42,26,-2,35,1.33,6375,6,80,43,34,916,369.0,471,468,60,130.0,109,1,295,176,41,0,0,322,-20736,0,369,-5.59,,,,,,,,,,,,
177404,1564149780407,3,2.62,0.93,0.43,1.37,1.08,0.9,-0.83,0.49,27,-2,34,1.23,6355,6,80,43,34,917,368.0,421,468,60,130.0,109,1,295,176,41,0,0,321,-22016,4104,368,-5.59,,,,,,,,,,,,
177424,1564149780427,4,2.6,0.94,0.43,1.37,1.08,0.9,-0.79,0.44,28,0,34,1.2,6349,6,80,43,35,917,366.0,362,470,60,130.0,109,1,298,176,41,0,0,322,-22016,-6458,366,-5.59,,,,,,,,,,,,
177444,1564149780447,-2,2.56,0.93,0.43,1.37,1.07,0.98,-0.76,0.35,28,0,34,1.24,6345,6,80,43,35,918,364.0,328,466,60,128.0,117,1,298,182,43,0,0,320,-23296,-29978,365,-5.59,44.680885,10.024704,35.11,178.7,0,0.0,-1,0.0,0.0,0,0.37,2.9574
177464,1564149780467,0,2.54,0.93,0.42,1.37,1.08,1.03,-0.78,0.3,26,-0,36,1.29,6340,6,80,43,35,919,361.0,332,468,60,128.0,117,1,298,182,43,0,0,321,165,2060,360,-5.59,,,,,,,,,,,,
177484,1564149780487,1,2.51,0.93,0.42,1.36,1.07,0.99,-0.71,0.33,25,-1,36,1.21,6302,6,80,43,35,917,359.0,351,466,60,131.0,117,1,298,182,43,0,0,322,-23296,3183,359,-5.59,,,,,,,,,,,,
177504,1564149780507,4,2.47,0.92,0.42,1.37,1.07,0.93,-0.63,0.36,25,-1,35,1.12,6302,6,80,43,36,914,355.0,405,466,60,130.0,117,1,301,187,43,0,0,323,-22016,3183,355,-5.59,,,,,,,,,,,,
177524,1564149780505,2,2.46,0.93,0.42,1.37,1.07,0.93,-0.6,0.38,24,0,33,1.11,6291,6,80,43,36,913,350.0,370,467,60,130.0,125,1,301,187,44,0,0,326,165,-1246,350,-5.59,,,,,,,,,,,,
177544,1564149780525,-1,2.43,0.92,0.41,1.36,1.07,0.98,-0.54,0.33,22,-0,30,1.12,6250,6,80,43,36,913,349.0,369,467,60,127.0,125,1,301,187,44,0,0,327,-22016,6870,349,-5.59,44.680885,10.024692,34.08,178.7,0,0.0,-1,0.0,0.0,0,0.37,2.9591
177564,1564149780545,-1,2.41,0.91,0.41,1.35,1.07,1.05,-0.57,0.26,20,-1,29,1.19,6258,6,80,43,36,911,345.0,373,466,60,129.0,125,1,301,187,44,0,0,327,170,6668,345,-5.59,,,,,,,,,,,,
177584,1564149780565,1,2.37,0.91,0.41,1.34,1.06,1.06,-0.53,0.31,18,-2,28,1.18,6225,7,80,43,36,908,342.0,370,467,60,130.0,125,1,301,187,44,0,0,327,-20736,-122,342,-5.59,,,,,,,,,,,,
177604,1564149780592,1,2.35,0.89,0.4,1.35,1.05,0.96,-0.39,0.39,16,-2,26,1.04,6214,6,80,43,36,905,339.0,403,465,60,131.0,125,1,301,187,44,0,0,327,-20736,-31222,339,-5.59,,,,,,,,,,,,
177624,1564149780612,3,2.32,0.89,0.4,1.34,1.05,0.91,-0.3,0.45,15,0,26,0.96,6196,6,80,43,37,904,337.0,414,466,60,130.0,133,1,304,193,45,0,0,329,175,13,337,-5.59,,,,,,,,,,,,
177644,1564149780632,2,2.3,0.88,0.4,1.33,1.05,0.92,-0.21,0.51,14,1,23,0.94,6145,7,80,43,37,901,336.0,461,469,60,130.0,133,1,304,193,45,0,0,328,170,-6528,335,-5.59,44.680885,10.02468,33.27,178.7,0,0.0,-1,0.0,0.0,0,0.37,2.9607
177664,1564149780652,3,2.28,0.88,0.39,1.33,1.04,0.96,-0.15,0.49,12,0,20,0.97,6151,6,80,43,37,897,331.0,496,469,60,130.0,133,1,304,193,45,0,0,338,-22016,165,331,-5.59,,,,,,,,,,,,
177684,1564149780672,4,2.24,0.88,0.39,1.34,1.04,0.98,-0.14,0.48,10,1,18,0.99,6105,6,80,43,37,893,329.0,534,467,60,129.0,133,1,304,193,45,0,0,327,170,-20736,329,-5.59,,,,,,,,,,,,
177704,1564149780698,-0,2.21,0.87,0.39,1.33,1.04,1.05,-0.16,0.48,7,1,15,1.06,6113,6,80,43,37,891,327.0,563,468,60,129.0,133,1,304,199,45,0,0,326,-22016,155,326,-5.59,,,,,,,,,,,,
177724,1564149780718,-2,2.2,0.87,0.38,1.32,1.03,1.15,-0.14,0.52,4,0,13,1.15,6073,5,80,43,38,889,328.0,582,467,60,129.0,133,1,307,199,45,0,0,329,170,145,323,-5.59,,,,,,,,,,,,
177744,1564149780738,-0,2.17,0.86,0.39,1.33,1.04,1.22,-0.11,0.52,1,-0,10,1.22,6044,6,80,43,38,886,331.0,596,465,60,128.0,139,1,307,199,45,0,0,451,-12032,150,320,-5.59,44.680885,10.024668,32.96,178.7,0,0.0,-1,0.0,0.0,0,0.37,2.9624
177764,1564149780758,-1,2.14,0.86,0.39,1.32,1.03,1.29,-0.06,0.53,-1,-1,8,1.29,6003,6,80,43,38,883,332.0,603,470,60,130.0,139,1,307,199,45,0,0,451,175,150,318,-5.59,,,,,,,,,,,,
177784,1564149780778,-0,2.13,0.87,0.38,1.32,1.03,1.34,-0.01,0.57,-4,-2,5,1.34,5988,6,80,43,39,882,333.0,606,466,60,128.0,139,1,309,203,45,0,0,63,-6528,140,316,-5.59,,,,,,,,,,,,
177804,1564149780806,4,2.11,0.86,0.38,1.31,1.03,1.35,0.01,0.6,-6,-1,3,1.35,5959,6,80,43,39,880,332.0,604,468,60,128.0,139,1,307,203,45,0,0,327,-6528,130,314,-5.59,,,,,,,,,,,,
177824,1564149780826,4,2.11,0.86,0.38,1.32,1.03,1.4,0.04,0.62,-9,-0,1,1.4,5958,6,80,43,39,878,332.0,600,467,60,128.0,149,1,307,204,46,0,0,329,-32559,115,308,-5.59,,,,,,,,,,,,
177844,1564149780846,3,2.1,0.86,0.38,1.32,1.03,1.41,0.05,0.66,-11,1,-2,1.41,5948,1,80,43,40,877,330.0,600,468,60,129.0,149,1,312,204,46,0,0,329,175,29440,307,-5.59,44.680885,10.024657,32.17,178.7,0,0.0,-1,0.0,0.0,0,0.37,2.9641
177864,1564149780866,3,2.09,0.86,0.38,1.32,1.03,1.43,0.05,0.68,-13,2,-5,1.43,5924,0,80,43,40,877,333.0,599,470,60,129.0,149,1,311,204,46,0,0,329,-6528,105,305,-5.59,,,,,,,,,,,,
177884,1564149780886,1,2.09,0.86,0.38,1.31,1.03,1.42,0.1,0.69,-15,4,-7,1.42,5886,0,80,43,40,877,332.0,597,470,60,130.0,149,1,308,204,46,0,0,159,-32559,100,304,-5.59,,,,,,,,,,,,
177904,1564149780906,1,2.08,0.85,0.38,1.31,1.03,1.36,0.2,0.71,-16,6,-8,1.37,5842,0,80,43,40,875,330.0,597,473,60,129.0,149,1,305,204,46,0,0,323,175,95,303,-5.59,,,,,,,,,,,,
177924,1564149780908,1,2.07,0.85,0.38,1.31,1.03,1.26,0.3,0.71,-16,8,-10,1.29,5815,0,80,43,41,873,329.0,597,468,60,130.0,149,1,309,204,45,0,0,325,-20736,25600,302,-5.59,,,,,,,,,,,,
177944,1564149780928,1,2.05,0.86,0.38,1.32,1.02,1.18,0.34,0.68,-16,7,-12,1.22,5781,0,80,43,41,869,328.0,596,468,60,130.0,149,1,307,205,45,0,0,321,170,90,299,-5.59,44.680885,10.024646,31.42,178.7,0,0.0,-1,0.0,0.0,0,0.37,2.9657
177964,1564149780948,0,2.05,0.86,0.38,1.32,1.02,1.15,0.39,0.67,-16,4,-14,1.22,5746,0,80,43,42,866,328.0,598,470,60,128.0,149,1,310,206,45,0,0,322,170,23040,298,-5.59,,,,,,,,,,,,
177984,1564149780968,3,2.05,0.85,0.38,1.31,1.03,1.24,0.37,0.7,-17,2,-18,1.3,5716,0,80,43,42,863,326.0,596,468,60,129.0,149,1,307,208,45,0,0,323,-22016,85,296,-5.59,,,,,,,,,,,,
178004,1564149780992,3,2.05,0.86,0.38,1.31,1.03,1.27,0.36,0.7,-19,2,-19,1.32,5668,0,80,43,43,860,326.0,595,470,60,128.0,149,1,310,208,45,0,0,321,165,20480,293,-5.59,,,,,,,,,,,,
178024,1564149781012,1,2.05,0.85,0.38,1.32,1.02,1.16,0.42,0.68,-20,3,-20,1.23,5678,0,80,43,43,860,325.0,586,467,60,129.0,149,1,310,208,45,0,0,319,-24576,0,292,-5.59,,,,,,,,,,,,
178044,1564149781032,0,2.05,0.86,0.38,1.31,1.03,1.04,0.47,0.56,-19,3,-22,1.14,5659,0,80,43,43,859,323.0,587,466,60,130.0,150,1,309,209,44,0,0,319,-24576,41,291,-5.59,44.680885,10.024635,30.43,178.7,0,0.0,-1,0.0,0.0,0,0.37,2.9674
178064,1564149781052,0,2.05,0.86,0.38,1.31,1.03,1.04,0.53,0.5,-20,0,-23,1.16,5676,1,80,43,44,861,323.0,589,467,60,127.0,150,1,315,209,44,0,0,316,-25856,-16896,290,-5.59,,,,,,,,,,,,
178084,1564149781072,2,2.05,0.85,0.38,1.31,1.03,1.09,0.48,0.48,-21,-2,-25,1.19,5656,0,80,43,45,863,320.0,584,471,60,129.0,150,1,319,137,44,0,0,315,150,-16896,288,-5.59,,,,,,,,,,,,
178104,1564149781098,2,2.05,0.85,0.38,1.32,1.02,1.09,0.51,0.51,-22,-1,-25,1.21,5627,3,80,43,45,865,318.0,581,472,60,127.0,150,1,316,211,44,0,0,317,145,1886,285,-5.59,,,,,,,,,,,,
178124,1564149781118,1,2.04,0.85,0.38,1.32,1.03,0.98,0.53,0.41,-22,-1,-26,1.12,5602,0,80,43,45,866,317.0,585,458,60,129.0,154,1,314,211,44,0,0,315,-28416,1886,285,-5.59,,,,,,,,,,,,
178144,1564149781138,4,2.04,0.86,0.38,1.32,1.02,1.03,0.52,0.4,-22,-2,-28,1.15,5532,0,80,43,46,866,316.0,587,465,60,129.0,154,1,312,212,44,0,0,312,140,250,284,-5.59,44.680885,10.024624,29.75,178.7,0,0.0,-1,0.0,0.0,0,0.38,2.9691
178164,1564149781158,1,2.04,0.85,0.38,1.31,1.02,1.03,0.58,0.44,-23,0,-28,1.18,5480,0,80,43,47,868,315.0,582,466,60,128.0,154,1,313,214,44,0,0,314,-29696,630,283,-5.59,,,,,,,,,,,,
178184,1564149781178,-1,2.05,0.86,0.37,1.32,1.02,0.9,0.59,0.35,-23,1,-29,1.07,5471,4,80,43,47,869,314.0,574,463,60,128.0,154,1,312,214,44,0,0,310,135,30208,282,-5.59,,,,,,,,,,,,
178204,1564149781198,3,2.04,0.86,0.38,1.32,1.03,0.99,0.54,0.39,-23,-1,-30,1.13,5463,0,80,43,47,869,314.0,576,458,60,129.0,154,1,311,214,44,0,0,309,-32256,30208,282,-5.59,,,,,,,,,,,,
178224,1564149781202,-2,2.04,0.85,0.38,1.31,1.03,0.98,0.61,0.39,-23,2,-29,1.16,5433,0,80,43,48,871,312.0,572,457,60,127.0,157,1,313,218,44,0,0,309,130,630,279,-5.59,,,,,,,,,,,,
178244,1564149781222,1,2.04,0.85,0.38,1.31,1.03,0.9,0.64,0.33,-23,1,-29,1.1,5405,0,80,43,48,873,310.0,571,459,60,130.0,157,1,310,144,44,0,0,307,125,250,280,-5.59,44.680885,10.024614,29.19,178.7,0,0.0,-1,0.0,0.0,0,0.38,2.9707
178264,1564149781242,2,2.04,0.86,0.38,1.31,1.02,1.01,0.62,0.44,-24,-1,-30,1.18,5400,0,80,43,49,877,307.0,572,466,60,128.0,157,1,314,222,44,0,0,339,30720,2414,277,-5.59,,,,,,,,,,,,
178284,1564149781262,-1,2.05,0.86,0.37,1.31,1.03,0.91,0.63,0.39,-23,2,-29,1.11,5426,0,80,43,49,880,306.0,572,457,60,128.0,157,1,316,222,44,0,0,339,115,-1,275,-5.59,,,,,,,,,,,,
178304,1564149781282,3,2.04,0.86,0.38,1.32,1.03,1.0,0.63,0.47,-23,-1,-31,1.18,5397,3,80,43,49,880,305.0,570,459,60,128.0,157,1,313,221,44,0,0,60,29440,250,275,-5.59,,,,,,,,,,,,
178324,1564149781306,-1,2.05,0.86,0.37,1.31,1.02,0.98,0.61,0.53,-24,-0,-31,1.16,5364,0,80,43,50,881,305.0,564,460,60,128.0,157,1,314,151,44,0,0,295,29440,-1,274,-5.59,,,,,,,,,,,,
178344,1564149781326,4,2.04,0.86,0.38,1.32,1.03,0.93,0.61,0.44,-24,-2,-33,1.11,5331,3,80,43,50,879,305.0,567,463,60,130.0,164,1,311,224,45,0,0,298,29440,-1,272,-5.59,44.680882,10.024605,28.59,178.7,0,0.0,-1,0.0,0.0,0,0.38,2.9724
178364,1564149781346,-0,2.04,0.86,0.38,1.32,1.02,0.99,0.62,0.49,-24,-0,-33,1.16,5323,4,80,43,51,877,304.0,566,467,60,129.0,164,1,312,224,45,0,0,299,29440,-1,271,-5.59,,,,,,,,,,,,
178384,1564149781366,3,2.05,0.85,0.38,1.31,1.03,0.91,0.65,0.32,-23,0,-34,1.11,5287,4,80,43,51,875,302.0,557,461,60,129.0,164,1,311,227,45,0,0,300,105,-1,270,-5.59,,,,,,,,,,,,
178404,1564149781396,0,2.04,0.85,0.38,1.32,1.03,0.99,0.67,0.37,-23,0,-33,1.19,5250,1,80,43,51,875,301.0,556,467,60,129.0,164,1,308,227,45,0,0,300,26880,-1,268,-5.59,,,,,,,,,,,,
178424,1564149781416,4,2.04,0.85,0.38,1.32,1.02,0.89,0.68,0.27,-23,-1,-33,1.12,5235,0,80,43,51,876,300.0,552,462,60,129.0,164,1,307,226,44,0,0,295,100,-1,268,-5.59,,,,,,,,,,,,
178444,1564149781436,-0,2.05,0.86,0.38,1.32,1.03,0.95,0.69,0.34,-24,1,-32,1.18,5185,0,79,43,52,878,298.0,550,466,60,130.0,164,1,307,229,44,0,0,294,95,-1,267,-5.59,44.680882,10.024595,27.75,178.7,0,0.0,-1,0.0,0.0,0,0.38,2.9741
178464,1564149781456,3,2.06,0.86,0.38,1.31,1.03,0.91,0.7,0.25,-23,0,-34,1.15,5214,0,80,43,52,879,297.0,550,468,60,130.0,164,1,309,230,44,0,0,295,24320,-1,265,-5.59,,,,,,,,,,,,
178484,1564149781476,-2,2.06,0.86,0.38,1.31,1.03,0.94,0.66,0.32,-23,0,-33,1.15,5227,5,80,43,53,879,296.0,551,462,60,128.0,164,1,314,233,44,0,0,292,90,-1,264,-5.59,,,,,,,,,,,,
178504,1564149781502,2,2.06,0.86,0.38,1.31,1.03,0.91,0.64,0.31,-23,-1,-34,1.11,5175,4,80,43,52,877,296.0,547,462,60,129.0,164,1,306,229,44,0,0,292,21760,-1,264,-5.59,,,,,,,,,,,,
178524,1564149781522,-2,2.08,0.86,0.38,1.32,1.03,0.89,0.58,0.32,-23,1,-33,1.06,5195,0,80,43,53,874,293.0,547,467,60,129.0,171,1,312,232,45,0,0,289,21760,-1,263,-5.59,,,,,,,,,,,,
178544,1564149781542,2,2.07,0.86,0.38,1.32,1.03,0.94,0.57,0.41,-23,-1,-34,1.1,5161,0,79,43,53,871,292.0,548,462,60,128.0,171,1,309,232,45,0,0,287,80,-1,263,-5.59,44.680878,10.024587,27.29,178.8,0,0.0,-1,0.0,0.0,0,0.38,2.9757
178564,1564149781562,-1,2.09,0.86,0.38,1.32,1.04,0.85,0.57,0.33,-22,1,-33,1.02,5120,0,80,43,53,870,291.0,539,466,60,129.0,171,1,305,231,45,0,0,289,20480,-1,262,-5.59,,,,,,,,,,,,
178584,1564149781582,-1,2.1,0.86,0.38,1.32,1.03,0.91,0.58,0.44,-22,-1,-32,1.08,5090,0,79,43,54,868,289.0,543,461,60,128.0,171,1,308,234,45,0,0,288,0,-10440,262,-5.59,,,,,,,,,,,,
178604,1564149781602,3,2.1,0.86,0.38,1.33,1.03,0.9,0.56,0.37,-22,-1,-32,1.06,5079,0,80,43,54,869,288.0,544,468,60,129.0,171,1,307,234,45,0,0,286,0,14337,261,-5.59,,,,,,,,,,,,
178624,1564149781599,-0,2.12,0.86,0.38,1.32,1.03,0.86,0.51,0.37,-21,0,-31,1.0,5037,2,80,43,54,871,287.0,534,461,60,128.0,171,1,304,233,45,0,0,284,41,-41,262,-5.59,,,,,,,,,,,,
178644,1564149781619,-1,2.13,0.86,0.39,1.32,1.04,0.92,0.52,0.47,-21,-2,-32,1.05,5020,0,79,43,55,871,285.0,537,466,60,128.0,167,1,298,237,44,0,0,283,-16896,-10440,261,-5.59,44.680874,10.024578,26.8,178.8,0,0.0,-1,0.0,0.0,0,0.38,2.9774
178664,1564149781639,3,2.14,0.87,0.38,1.32,1.03,0.88,0.5,0.33,-20,-1,-31,1.01,5036,7,80,43,55,873,283.0,534,463,60,129.0,167,1,299,237,44,0,0,280,-1529,-10440,260,-5.59,,,,,,,,,,,,
178684,1564149781659,0,2.13,0.87,0.38,1.33,1.03,0.87,0.46,0.38,-19,2,-30,0.98,5053,0,79,43,56,872,282.0,533,464,60,128.0,167,1,297,242,44,0,0,281,1886,-41,260,-5.59,,,,,,,,,,,,
178704,1564149781679,1,2.14,0.87,0.38,1.33,1.03,0.93,0.43,0.45,-19,-1,-29,1.02,5043,7,79,43,56,872,280.0,533,466,60,129.0,167,1,296,273,44,0,0,279,250,-10440,259,-5.59,,,,,,,,,,,,
178724,1564149781707,4,2.16,0.87,0.39,1.33,1.04,0.87,0.46,0.35,-18,1,-28,0.98,5034,9,79,43,56,874,279.0,530,459,60,130.0,196,1,294,271,51,0,0,275,-1534,506,259,-5.59,,,,,,,,,,,,
178744,1564149781727,-1,2.16,0.88,0.38,1.33,1.04,0.9,0.41,0.47,-18,1,-27,0.99,5034,9,79,43,57,876,278.0,532,468,60,128.0,196,1,291,273,51,0,0,276,630,-10440,258,-5.59,44.68087,10.02457,26.49,178.8,0,0.0,-1,0.0,0.0,0,0.38,2.9791
178764,1564149781747,1,2.17,0.88,0.38,1.33,1.04,0.91,0.41,0.47,-18,-1,-27,1.0,4986,6,80,43,57,878,277.0,529,462,60,128.0,196,1,287,268,51,0,0,276,30208,-10440,257,-5.59,,,,,,,,,,,,
178784,1564149781767,5,2.18,0.87,0.39,1.34,1.04,0.86,0.39,0.42,-18,0,-25,0.95,4969,9,80,43,57,880,276.0,524,462,60,129.0,196,1,284,266,51,0,0,276,250,-1281,258,-5.59,,,,,,,,,,,,
178804,1564149781791,-1,2.2,0.88,0.39,1.33,1.05,0.87,0.37,0.48,-17,2,-25,0.94,4949,9,79,43,58,887,275.0,521,468,60,128.0,196,1,279,268,51,0,0,274,2414,14337,257,-5.59,,,,,,,,,,,,
178824,1564149781811,-1,2.22,0.88,0.39,1.33,1.04,0.89,0.36,0.55,-16,0,-24,0.96,4908,8,79,43,58,893,273.0,525,467,60,127.0,190,1,274,264,49,0,0,273,250,-1,257,-5.59,,,,,,,,,,,,
178844,1564149781831,2,2.24,0.88,0.39,1.34,1.04,0.91,0.31,0.52,-16,-0,-23,0.96,4891,8,80,43,58,897,271.0,514,461,60,129.0,190,1,272,263,49,0,0,273,-1281,-41,257,-5.59,44.680866,10.024563,26.15,178.8,0,0.0,-1,0.0,0.0,0,0.38,2.9807
178864,1564149781851,-0,2.26,0.89,0.39,1.34,1.04,0.85,0.32,0.48,-14,1,-22,0.9,4889,10,79,43,59,902,270.0,505,461,60,128.0,190,1,269,264,49,0,0,271,-1,14337,257,-5.59,,,,,,,,,,,,
178884,1564149781871,-2,2.27,0.88,0.39,1.33,1.05,0.85,0.29,0.52,-13,2,-22,0.9,4918,10,79,43,59,907,267.0,514,470,60,127.0,190,1,272,180,49,0,0,269,-1,14337,258,-5.59,,,,,,,,,,,,
178904,1564149781901,0,2.28,0.89,0.39,1.34,1.05,0.9,0.29,0.48,-13,-0,-20,0.95,4891,10,79,43,59,913,266.0,514,465,60,129.0,190,1,271,180,49,0,0,264,-1,14337,257,-5.59,,,,,,,,,,,,
178924,1564149781921,3,2.31,0.89,0.4,1.34,1.05,0.89,0.24,0.47,-12,-0,-18,0.92,4891,10,79,43,59,916,265.0,506,463,60,129.0,190,1,269,180,49,0,0,266,-1,506,257,-5.59,,,,,,,,,,,,
178944,1564149781941,-1,2.33,0.89,0.39,1.35,1.06,0.83,0.22,0.48,-10,2,-17,0.86,4901,10,79,43,59,918,263.0,513,466,60,129.0,182,1,269,252,47,0,0,262,-1,14337,258,414.87,44.680862,10.024555,25.79,178.8,0,0.0,-1,0.0,0.0,0,0.38,2.9824
178964,1564149781961,-2,2.34,0.9,0.4,1.34,1.06,0.87,0.2,0.54,-10,1,-17,0.9,4896,10,79,43,59,916,262.0,514,467,60,127.0,182,1,269,252,47,0,0,263,-1,14337,257,-5.59,,,,,,,,,,,,
178984,1564149781981,-0,2.35,0.9,0.4,1.35,1.05,0.9,0.19,0.52,-9,-1,-15,0.92,4872,10,79,43,59,914,261.0,509,461,60,129.0,182,1,267,252,47,0,0,259,-1,-1,258,-5.59,,,,,,,,,,,,
179004,1564149782001,2,2.37,0.9,0.4,1.35,1.05,0.9,0.14,0.49,-8,0,-12,0.91,4870,10,79,43,59,911,259.0,508,463,60,128.0,182,1,266,252,47,0,0,260,-41,-41,258,181.28,,,,,,,,,,,,
179024,1564149781999,-0,2.37,0.91,0.4,1.35,1.05,0.86,0.13,0.52,-7,2,-11,0.87,4857,10,79,43,60,908,259.0,503,465,60,128.0,182,1,262,184,47,0,0,260,14337,14337,259,-5.59,,,,,,,,,,,,
179044,1564149782019,-2,2.38,0.9,0.4,1.35,1.06,0.86,0.09,0.55,-6,1,-10,0.87,4822,10,79,43,60,906,259.0,507,466,60,127.0,181,1,258,256,47,0,0,256,-1281,-41,259,-5.59,44.680859,10.024549,25.66,178.8,0,0.0,-1,0.0,0.0,0,0.38,2.9841
179064,1564149782039,-3,2.4,0.9,0.4,1.35,1.05,0.87,0.08,0.53,-5,0,-8,0.87,4823,10,79,43,60,905,260.0,506,466,60,129.0,181,1,258,256,47,0,0,256,-1281,-1,260,-5.59,,,,,,,,,,,,
179084,1564149782059,1,2.43,0.91,0.4,1.35,1.06,0.87,0.04,0.45,-4,0,-7,0.87,4801,10,79,43,60,907,260.0,500,465,60,128.0,181,1,256,256,47,0,0,255,-1,-1,260,-5.59,,,,,,,,,,,,
179104,1564149782079,4,2.44,0.91,0.4,1.36,1.05,0.84,-0.01,0.47,-3,1,-6,0.84,4825,10,79,43,60,910,260.0,501,468,60,128.0,181,1,259,256,47,0,0,254,-1,-10440,260,-5.59,,,,,,,,,,,,
179124,1564149782107,0,2.46,0.91,0.4,1.36,1.06,0.82,-0.07,0.46,-1,2,-4,0.82,4803,10,79,43,60,913,259.0,505,468,60,128.0,177,1,256,256,46,0,0,252,-1,-1,259,-5.59,,,,,,,,,,,,
179144,1564149782127,-1,2.47,0.91,0.4,1.36,1.05,0.81,-0.08,0.53,0,1,-3,0.82,4769,10,79,43,60,917,260.0,495,471,60,127.0,177,1,252,255,46,0,0,252,16896,-1,260,-5.59,44.680855,10.024541,25.41,178.8,0,0.0,-1,0.0,0.0,0,0.38,2.9857
179164,1564149782147,-2,2.49,0.91,0.4,1.35,1.06,0.81,-0.08,0.54,1,0,-1,0.82,4783,10,79,43,60,919,261.0,496,463,60,130.0,177,1,254,255,46,0,0,250,250,-10440,261,-5.59,,,,,,,,,,,,
179184,1564149782167,1,2.49,0.91,0.4,1.35,1.06,0.87,-0.06,0.51,2,-0,0,0.87,4769,10,79,43,60,919,262.0,492,462,60,129.0,177,1,252,255,46,0,0,247,-1494,-41,262,-5.59,,,,,,,,,,,,
179204,1564149782193,4,2.51,0.91,0.4,1.35,1.07,0.84,-0.12,0.45,3,-1,2,0.85,4797,10,79,43,60,922,261.0,492,465,60,128.0,177,1,256,183,46,0,0,247,250,-1,261,-5.59,,,,,,,,,,,,
179224,1564149782213,-1,2.53,0.91,0.4,1.35,1.07,0.83,-0.17,0.46,4,-0,4,0.84,4777,10,79,43,60,926,261.0,496,467,60,128.0,177,1,253,183,46,0,0,246,10812,-10440,261,-5.59,,,,,,,,,,,,
179244,1564149782233,-1,2.54,0.91,0.4,1.36,1.06,0.82,-0.17,0.52,5,0,5,0.84,4761,10,79,43,60,930,261.0,495,467,60,128.0,176,1,251,255,46,0,0,245,15360,-10440,261,-5.59,44.680851,10.024533,25.38,178.7,0,0.0,-1,0.0,0.0,0,0.38,2.9874
179264,1564149782253,-1,2.54,0.92,0.4,1.36,1.06,0.82,-0.18,0.56,7,-1,6,0.84,4778,10,79,43,60,933,261.0,493,467,60,126.0,176,1,253,255,46,0,0,243,-1445,-10440,261,-5.59,,,,,,,,,,,,
179284,1564149782273,-1,2.55,0.91,0.4,1.36,1.07,0.83,-0.13,0.55,8,-2,8,0.84,4763,10,79,43,60,939,260.0,491,463,60,128.0,176,1,252,183,46,0,0,241,-17920,-41,260,-5.59,,,,,,,,,,,,
179304,1564149782301,1,2.54,0.92,0.4,1.35,1.06,0.82,-0.14,0.49,8,-2,9,0.83,4734,11,79,43,61,947,260.0,482,468,60,129.0,176,1,246,255,46,0,0,242,-17920,-10440,260,-5.59,,,,,,,,,,,,
179324,1564149782321,3,2.53,0.92,0.4,1.36,1.06,0.82,-0.16,0.49,9,-2,10,0.83,4716,11,79,43,61,956,261.0,478,463,60,129.0,176,1,244,255,46,0,0,240,250,14337,261,-5.59,,,,,,,,,,,,
179344,1564149782341,3,2.54,0.92,0.4,1.36,1.06,0.81,-0.18,0.49,9,-0,11,0.83,4715,10,79,43,60,961,261.0,475,468,60,128.0,176,1,247,183,46,0,0,241,250,-1,261,-5.59,44.680847,10.024528,25.43,178.8,0,0.0,-1,0.0,0.0,0,0.38,2.9891
179364,1564149782361,0,2.53,0.92,0.4,1.36,1.06,0.79,-0.2,0.49,10,-0,12,0.82,4712,10,79,43,61,967,260.0,477,470,60,127.0,176,1,244,260,46,0,0,240,-1484,-1,260,-5.59,,,,,,,,,,,,
179384,1564149782381,-1,2.53,0.92,0.4,1.36,1.06,0.79,-0.21,0.52,10,-0,12,0.81,4711,11,79,43,61,974,259.0,485,466,60,127.0,176,1,243,260,46,0,0,239,-1484,-1,259,-5.59,,,,,,,,,,,,
179404,1564149782405,-2,2.54,0.92,0.41,1.36,1.06,0.82,-0.16,0.55,11,-0,13,0.84,4693,11,79,43,60,980,258.0,482,463,60,128.0,176,1,245,260,46,0,0,241,250,-1,258,-5.59,,,,,,,,,,,,
179424,1564149782425,-2,2.54,0.92,0.41,1.35,1.07,0.82,-0.18,0.56,11,-2,14,0.84,4668,11,79,43,60,981,259.0,478,463,60,129.0,173,1,242,255,45,0,0,238,-1484,506,259,-5.59,,,,,,,,,,,,
179444,1564149782445,-0,2.53,0.92,0.4,1.36,1.07,0.83,-0.21,0.53,12,-2,15,0.86,4680,11,79,43,61,982,258.0,476,460,60,129.0,173,1,240,255,45,0,0,238,-1484,14337,258,-5.59,44.680843,10.02452,24.86,178.8,0,0.0,-1,0.0,0.0,0,0.38,2.9907
179464,1564149782465,0,2.54,0.92,0.4,1.35,1.06,0.87,-0.22,0.46,12,-2,16,0.9,4661,11,79,43,61,980,258.0,474,462,60,129.0,173,1,239,260,45,0,0,238,-1484,-41,258,-5.59,,,,,,,,,,,,
179484,1564149782485,2,2.54,0.92,0.4,1.36,1.06,0.88,-0.24,0.48,12,-2,16,0.91,4688,11,79,43,61,978,257.0,481,465,60,130.0,173,1,241,260,45,0,0,238,13468,506,257,-5.59,,,,,,,,,,,,
179504,1564149782505,4,2.55,0.92,0.4,1.36,1.06,0.85,-0.24,0.48,13,-2,16,0.88,4637,11,79,43,61,974,256.0,473,465,60,130.0,173,1,236,260,45,0,0,238,-1484,-1281,256,-5.59,,,,,,,,,,,,
179524,1564149782507,4,2.56,0.91,0.39,1.35,1.06,0.82,-0.25,0.48,14,-0,15,0.86,4598,11,79,43,61,969,256.0,475,468,60,128.0,173,1,237,260,45,0,0,237,13468,-1281,256,-5.59,,,,,,,,,,,,
179544,1564149782527,0,2.58,0.92,0.4,1.35,1.06,0.81,-0.27,0.5,14,-0,15,0.85,4598,11,79,43,61,964,257.0,468,471,60,128.0,175,1,235,259,45,0,0,237,-25600,506,257,-5.59,44.68084,10.024513,24.61,178.8,0,0.0,-1,0.0,0.0,0,0.39,2.9924
179564,1564149782547,0,2.59,0.92,0.4,1.36,1.06,0.79,-0.29,0.53,15,-1,16,0.84,4627,11,79,43,61,960,257.0,470,466,60,126.0,175,1,235,260,45,0,0,235,-1483,-1281,257,-5.59,,,,,,,,,,,,
179584,1564149782567,-0,2.61,0.92,0.4,1.36,1.06,0.82,-0.27,0.55,15,-0,16,0.86,4627,11,79,43,61,959,256.0,473,468,60,127.0,175,1,235,260,45,0,0,235,-1483,-1281,256,-5.59,,,,,,,,,,,,
179604,1564149782592,-1,2.63,0.92,0.4,1.36,1.06,0.83,-0.28,0.61,16,-1,17,0.87,4630,11,79,43,61,959,257.0,466,467,60,128.0,175,1,236,260,45,0,0,233,8704,506,257,-5.59,,,,,,,,,,,,
179624,1564149782612,-0,2.65,0.92,0.4,1.37,1.06,0.84,-0.3,0.6,17,-2,18,0.89,4584,11,79,43,61,961,258.0,465,460,60,129.0,174,1,231,259,45,0,0,231,8704,-1281,258,-5.59,,,,,,,,,,,,
179644,1564149782632,0,2.67,0.92,0.4,1.37,1.06,0.85,-0.31,0.6,18,-3,19,0.91,4568,11,79,43,61,962,258.0,466,463,60,128.0,174,1,230,187,45,0,0,231,-1494,-1281,258,-5.59,44.680836,10.024506,24.38,178.8,0,0.0,-1,0.0,0.0,0,0.39,2.9941
179664,1564149782652,-2,2.7,0.92,0.41,1.36,1.06,0.87,-0.35,0.58,19,-3,20,0.93,4592,11,79,43,61,965,259.0,458,464,60,128.0,174,1,232,259,45,0,0,230,10824,-10440,259,-5.59,,,,,,,,,,,,
179684,1564149782672,-2,2.72,0.92,0.4,1.37,1.07,0.87,-0.39,0.58,20,-4,22,0.96,4565,11,79,43,61,966,258.0,453,458,60,129.0,174,1,228,259,45,0,0,227,10824,14337,258,-5.59,,,,,,,,,,,,
179704,1564149782700,-0,2.73,0.93,0.4,1.37,1.06,0.89,-0.44,0.57,21,-5,23,0.99,4565,11,79,43,61,966,260.0,453,460,60,129.0,174,1,229,259,45,0,0,225,250,506,260,-5.59,,,,,,,,,,,,
179724,1564149782720,0,2.76,0.92,0.4,1.36,1.07,0.9,-0.45,0.55,22,-5,25,1.0,4519,11,79,43,62,966,260.0,456,466,60,130.0,169,1,226,259,44,0,0,222,-1496,506,260,-5.59,,,,,,,,,,,,
179744,1564149782740,0,2.78,0.93,0.4,1.36,1.06,0.89,-0.47,0.52,23,-5,27,1.01,4539,11,79,43,62,964,262.0,456,465,60,128.0,169,1,228,259,44,0,0,222,19968,14337,262,-5.59,44.680832,10.024498,24.35,178.9,0,0.0,-1,0.0,0.0,0,0.39,2.9957
179764,1564149782760,-1,2.81,0.92,0.4,1.36,1.07,0.9,-0.5,0.51,24,-6,29,1.03,4507,11,79,43,61,962,262.0,451,462,60,130.0,169,1,224,259,44,0,0,221,250,-1,262,-5.59,,,,,,,,,,,,
179784,1564149782780,-1,2.81,0.93,0.4,1.36,1.06,0.94,-0.54,0.49,25,-6,30,1.08,4527,11,79,43,61,958,263.0,455,465,60,128.0,169,1,226,259,44,0,0,220,-1530,-1281,263,-5.59,,,,,,,,,,,,
179804,1564149782806,-0,2.82,0.93,0.4,1.36,1.06,0.94,-0.54,0.44,26,-6,32,1.09,4531,11,79,43,61,953,265.0,455,466,60,129.0,169,1,226,259,44,0,0,219,15360,-10440,265,-5.59,,,,,,,,,,,,
179824,1564149782826,-1,2.84,0.92,0.4,1.36,1.07,0.96,-0.54,0.4,27,-5,34,1.1,4521,11,79,43,61,950,265.0,456,463,60,129.0,169,1,225,259,44,0,0,217,250,-1,265,-5.59,,,,,,,,,,,,
179844,1564149782846,0,2.84,0.93,0.4,1.36,1.06,0.99,-0.56,0.39,28,-7,35,1.14,4532,11,79,43,62,947,264.0,455,463,60,129.0,166,1,227,265,44,0,0,214,-1532,-1,264,-5.59,44.680828,10.024489,24.24,178.9,0,0.0,-1,0.0,0.0,0,0.39,2.9974
179864,1564149782866,1,2.85,0.93,0.4,1.36,1.07,1.02,-0.58,0.38,28,-7,37,1.17,4539,11,79,43,62,942,263.0,452,466,60,130.0,166,1,228,265,44,0,0,215,-1532,-41,263,-5.59,,,,,,,,,,,,
179884,1564149782886,1,2.86,0.92,0.41,1.36,1.06,1.06,-0.59,0.36,29,-8,39,1.22,4516,11,79,43,61,936,263.0,461,466,60,130.0,166,1,225,187,44,0,0,213,1210,-41,263,-5.59,,,,,,,,,,,,
179904,1564149782906,-0,2.89,0.93,0.4,1.36,1.07,1.06,-0.61,0.33,30,-8,40,1.23,4510,11,79,43,62,932,264.0,455,465,60,129.0,166,1,225,265,44,0,0,213,-17920,506,264,-5.59,,,,,,,,,,,,
179924,1564149782908,-0,2.91,0.92,0.4,1.36,1.07,1.06,-0.66,0.33,31,-9,42,1.25,4468,12,79,43,62,930,263.0,452,463,60,129.0,166,1,219,259,44,0,0,212,-17920,506,263,-5.59,,,,,,,,,,,,
179944,1564149782928,-0,2.91,0.93,0.4,1.37,1.07,1.06,-0.68,0.32,32,-9,43,1.26,4468,12,79,43,62,927,264.0,450,461,60,130.0,167,1,221,259,44,0,0,211,-1532,506,264,-5.59,44.680828,10.024482,23.85,178.9,0,0.0,-1,0.0,0.0,0,0.39,2.9991
179964,1564149782948,-0,2.94,0.93,0.4,1.37,1.06,1.06,-0.71,0.29,33,-9,45,1.27,4454,12,79,43,61,923,265.0,447,467,60,130.0,167,1,219,265,44,0,0,209,1088,-10440,265,-5.59,,,,,,,,,,,,
179984,1564149782968,-1,2.96,0.92,0.39,1.36,1.07,1.09,-0.72,0.25,34,-8,47,1.3,4479,12,79,43,62,920,266.0,453,464,60,130.0,167,1,222,265,44,0,0,209,1088,14337,266,-5.59,,,,,,,,,,,,
180004,1564149782992,-2,2.99,0.93,0.41,1.37,1.06,1.09,-0.75,0.27,35,-9,49,1.33,4472,12,79,43,62,919,267.0,447,463,60,131.0,167,1,221,265,44,0,0,210,16384,-1,267,-5.59,,,,,,,,,,,,
180024,1564149783012,-0,0.34,0.91,0.39,1.34,1.05,1.11,-0.78,0.28,36,-10,51,1.36,4426,12,79,43,61,917,268.0,451,460,60,130.0,160,1,216,259,43,0,0,216,250,-10440,268,-5.59,,,,,,,,,,,,
180044,1564149783032,-0,0.36,0.9,0.39,1.35,1.05,1.14,-0.79,0.28,38,-9,52,1.39,4415,12,79,43,62,915,267.0,448,461,60,130.0,160,1,216,259,43,0,0,212,16384,-1,267,-5.59,44.680828,10.024474,23.8,178.9,0,0.0,-1,0.0,0.0,0,0.39,3.0007
180064,1564149783052,-1,0.38,0.9,0.4,1.35,1.05,1.15,-0.85,0.27,39,-9,54,1.42,4371,12,79,43,62,914,267.0,442,460,60,129.0,160,1,211,258,43,0,0,207,-1533,-1,267,-5.59,,,,,,,,,,,,
180084,1564149783072,-1,0.38,0.91,0.39,1.35,1.05,1.12,-0.85,0.24,40,-7,54,1.41,4335,12,79,43,62,914,267.0,437,462,60,130.0,160,1,208,263,43,0,0,208,-1533,14337,267,-5.59,,,,,,,,,,,,
180104,1564149783100,4,0.38,0.9,0.4,1.35,1.04,1.07,-0.86,0.3,41,-7,54,1.38,4317,12,79,43,62,914,270.0,436,465,60,128.0,160,1,206,263,43,0,0,207,966,506,270,-5.59,,,,,,,,,,,,
180124,1564149783120,3,0.38,0.9,0.39,1.35,1.05,1.03,-0.89,0.33,41,-6,54,1.36,4257,12,79,43,62,915,269.0,440,469,60,128.0,156,1,200,263,42,0,0,202,966,14337,269,-5.59,,,,,,,,,,,,
180144,1564149783140,0,0.4,0.9,0.39,1.35,1.05,0.96,-0.91,0.26,42,-6,56,1.33,4227,12,79,43,62,916,268.0,426,470,60,129.0,156,1,199,191,42,0,0,199,250,-1,268,-5.59,44.680828,10.024466,23.38,178.9,0,0.0,-1,0.0,0.0,0,0.39,3.0024
180164,1564149783160,-0,0.39,0.91,0.4,1.35,1.04,0.98,-0.9,0.23,44,-7,59,1.33,4227,12,79,43,62,917,270.0,427,466,60,130.0,156,1,198,263,42,0,0,199,-1482,-1,270,-5.59,,,,,,,,,,,,
180184,1564149783180,-0,0.4,0.9,0.39,1.34,1.04,1.0,-0.92,0.27,44,-8,61,1.36,4194,12,79,43,63,919,269.0,419,463,60,130.0,156,1,196,267,42,0,0,199,250,-10440,269,-5.59,,,,,,,,,,,,
180204,1564149783206,-0,0.39,0.9,0.4,1.34,1.05,1.0,-0.92,0.29,45,-7,61,1.35,4220,12,79,43,63,921,270.0,422,462,60,131.0,156,1,199,268,42,0,0,201,-1482,506,270,-5.59,,,,,,,,,,,,
180224,1564149783226,2,0.39,0.9,0.39,1.34,1.04,0.95,-0.92,0.27,46,-2,62,1.32,4176,12,79,43,63,922,271.0,421,465,60,127.0,154,1,195,267,42,0,0,200,-1482,-1,271,-5.59,,,,,,,,,,,,
180244,1564149783246,-1,0.39,0.9,0.4,1.34,1.04,0.95,-0.92,0.26,46,-2,62,1.33,4153,12,79,43,63,923,270.0,406,473,60,129.0,154,1,192,195,42,0,0,207,-1482,506,271,-5.59,44.680828,10.024458,23.29,178.9,0,0.0,-1,0.0,0.0,0,0.39,3.0041
180264,1564149783266,-1,0.4,0.9,0.4,1.35,1.04,0.98,-0.91,0.26,46,-3,64,1.34,4204,12,79,43,63,923,269.0,343,470,60,131.0,154,1,197,268,42,0,0,209,13964,-1,269,-5.59,,,,,,,,,,,,
180284,1564149783286,-2,0.4,0.9,0.4,1.35,1.04,1.0,-0.89,0.28,46,-5,65,1.33,4166,12,79,43,63,922,268.0,295,462,60,129.0,154,1,194,267,42,0,0,204,13964,506,268,-5.59,,,,,,,,,,,,
180304,1564149783306,4,0.4,0.9,0.4,1.35,1.04,0.99,-0.91,0.31,47,-5,64,1.35,4186,12,79,43,63,921,265.0,283,461,60,129.0,154,1,196,267,42,0,0,193,-1482,-1,265,-5.59,,,,,,,,,,,,
180324,1564149783310,1,0.41,0.9,0.39,1.35,1.04,0.96,-0.93,0.29,47,-2,64,1.33,4166,12,79,43,63,921,266.0,297,473,60,129.0,157,1,194,267,42,0,0,192,250,-1,266,-5.59,,,,,,,,,,,,
180344,1564149783330,-1,0.41,0.9,0.4,1.35,1.04,0.98,-0.94,0.25,48,-1,66,1.36,4136,12,79,43,63,921,266.0,320,466,60,130.0,157,1,191,267,42,0,0,190,-29696,-1,266,-5.59,44.680828,10.024449,23.63,178.9,0,0.0,-1,0.0,0.0,0,0.39,3.0057
180364,1564149783350,-1,0.41,0.9,0.4,1.35,1.04,0.99,-0.95,0.27,48,-3,67,1.37,4179,12,79,43,64,923,266.0,282,466,60,131.0,157,1,197,272,42,0,0,190,250,-1,266,-5.59,,,,,,,,,,,,
180384,1564149783370,-1,0.41,0.9,0.39,1.35,1.04,0.99,-0.96,0.3,48,-3,67,1.38,4139,12,79,43,63,925,265.0,266,463,60,130.0,157,1,191,267,42,0,0,189,250,-1,265,-5.59,,,,,,,,,,,,
180404,1564149783394,3,0.41,0.9,0.39,1.34,1.05,0.98,-0.97,0.3,49,-0,66,1.37,4148,12,79,43,63,929,265.0,255,467,60,128.0,157,1,192,267,42,0,0,191,13874,16896,265,-5.59,,,,,,,,,,,,
180424,1564149783414,-1,0.42,0.9,0.39,1.34,1.05,0.93,-0.96,0.29,49,1,67,1.34,4135,12,79,43,64,933,265.0,254,473,60,130.0,162,1,198,272,43,0,0,189,-1482,16896,265,-5.59,,,,,,,,,,,,
180444,1564149783434,-1,0.41,0.9,0.4,1.34,1.05,0.97,-0.94,0.29,49,-1,68,1.35,4135,12,79,43,63,941,265.0,250,467,60,130.0,162,1,191,267,43,0,0,189,250,250,265,-5.59,44.680832,10.024442,22.6,178.8,0,0.0,-1,0.0,0.0,0,0.39,3.0074
180464,1564149783454,-1,0.42,0.9,0.39,1.34,1.05,0.97,-0.95,0.37,49,-4,67,1.36,4157,12,79,43,64,950,263.0,249,456,60,131.0,162,1,195,272,43,0,0,189,12800,10818,263,-5.59,,,,,,,,,,,,
180484,1564149783474,2,0.42,0.9,0.39,1.35,1.04,0.94,-0.93,0.42,49,-3,66,1.32,4162,12,79,43,63,955,262.0,258,463,60,129.0,162,1,193,272,43,0,0,188,12800,10818,262,-5.59,,,,,,,,,,,,
180504,1564149783504,1,0.41,0.9,0.39,1.34,1.04,0.9,-0.91,0.44,49,-2,66,1.28,4101,12,79,43,64,960,262.0,270,472,60,128.0,162,1,190,272,43,0,0,187,12800,16896,262,-5.59,,,,,,,,,,,,
180524,1564149783524,-0,0.41,0.9,0.39,1.35,1.05,0.87,-0.91,0.43,49,-4,67,1.26,4138,12,79,43,64,967,262.0,285,465,60,132.0,162,1,193,200,43,0,0,187,12800,10818,262,-5.59,,,,,,,,,,,,
180544,1564149783544,-2,0.42,0.89,0.4,1.34,1.04,0.98,-0.95,0.33,50,-5,68,1.37,4138,12,79,43,64,974,263.0,279,460,60,130.0,160,1,193,272,42,0,0,187,12800,16896,263,-5.59,44.680836,10.024435,22.48,178.8,0,0.0,-1,0.0,0.0,0,0.39,3.0091
180564,1564149783564,3,0.42,0.9,0.39,1.35,1.04,0.95,-0.95,0.42,49,-4,66,1.34,4108,12,79,43,64,976,262.0,275,458,60,129.0,160,1,191,272,42,0,0,184,250,16896,262,-5.59,,,,,,,,,,,,
180584,1564149783584,1,0.41,0.9,0.39,1.35,1.05,0.9,-0.93,0.44,49,-3,66,1.29,4103,12,79,43,64,978,260.0,287,476,60,130.0,160,1,190,272,42,0,0,187,-1480,-1494,260,-5.59,,,,,,,,,,,,
180604,1564149783604,-0,0.41,0.9,0.39,1.34,1.04,0.9,-0.94,0.42,49,-4,67,1.3,4107,12,79,43,64,983,260.0,291,460,60,130.0,160,1,190,272,42,0,0,187,250,250,260,-5.59,,,,,,,,,,,,
180624,1564149783603,2,0.42,0.89,0.39,1.35,1.05,0.95,-0.96,0.39,49,-5,67,1.35,4055,12,79,43,64,988,260.0,301,459,60,129.0,160,1,186,272,42,0,0,188,-1480,-1494,260,-5.59,,,,,,,,,,,,
180644,1564149783623,1,0.42,0.9,0.39,1.35,1.05,0.91,-0.96,0.43,49,-3,65,1.32,4035,12,79,43,63,992,260.0,309,463,60,127.0,157,1,182,272,41,0,0,188,250,-1445,260,-5.59,44.68084,10.024429,22.05,178.8,0,0.0,-1,0.0,0.0,0,0.39,3.0107
180664,1564149783643,-1,0.42,0.9,0.39,1.35,1.04,0.89,-0.95,0.46,49,-4,65,1.3,4058,12,79,43,64,996,259.0,312,471,60,129.0,157,1,186,272,41,0,0,187,14412,-1494,259,-5.59,,,,,,,,,,,,
180684,1564149783663,-1,0.41,0.89,0.39,1.35,1.04,0.95,-0.97,0.41,50,-5,67,1.36,4028,12,79,43,64,999,258.0,325,462,60,128.0,157,1,183,272,41,0,0,187,-1480,15360,258,-5.59,,,,,,,,,,,,
180704,1564149783691,2,0.41,0.9,0.39,1.35,1.04,0.93,-0.96,0.42,50,-4,66,1.34,4010,12,79,43,64,1002,260.0,336,468,60,128.0,157,1,181,272,41,0,0,186,-1480,10812,260,-5.59,,,,,,,,,,,,
180724,1564149783711,-1,0.42,0.89,0.39,1.34,1.05,0.89,-0.96,0.45,49,-3,65,1.31,3998,12,79,43,64,1002,260.0,345,470,60,130.0,157,1,183,272,41,0,0,185,14412,15360,260,-5.59,,,,,,,,,,,,
180744,1564149783731,0,0.42,0.89,0.39,1.34,1.05,0.96,-0.98,0.4,49,-5,67,1.37,3998,12,79,43,64,1000,259.0,356,458,60,130.0,157,1,180,271,41,0,0,185,250,-1494,259,-5.59,44.680843,10.024425,21.69,178.8,0,0.0,-1,0.0,0.0,0,0.39,3.0124
180764,1564149783751,2,0.43,0.89,0.38,1.34,1.05,0.92,-0.97,0.39,50,-3,65,1.34,4021,12,79,43,64,999,258.0,365,461,60,129.0,157,1,183,272,41,0,0,185,19456,10812,258,-5.59,,,,,,,,,,,,
180784,1564149783771,-1,0.43,0.9,0.39,1.34,1.05,0.9,-0.92,0.43,49,-2,66,1.29,4050,12,79,43,64,996,257.0,373,471,60,130.0,157,1,185,272,41,0,0,185,19456,250,257,-5.59,,,,,,,,,,,,
180804,1564149783799,-0,0.43,0.89,0.39,1.35,1.05,0.93,-0.93,0.38,50,-4,67,1.32,4003,12,79,43,64,994,258.0,378,461,60,130.0,157,1,181,272,41,0,0,185,19456,15360,258,-5.59,,,,,,,,,,,,
180824,1564149783819,3,0.43,0.9,0.39,1.34,1.04,0.93,-0.94,0.34,50,-4,67,1.32,4004,12,79,43,64,993,257.0,385,463,60,129.0,157,1,181,200,41,0,0,183,250,-1445,257,-5.59,,,,,,,,,,,,
180844,1564149783839,-1,0.43,0.9,0.39,1.35,1.04,0.89,-0.91,0.36,50,-2,66,1.27,4047,12,79,43,64,993,257.0,387,478,60,130.0,159,1,184,272,41,0,0,183,250,250,257,-5.59,44.680847,10.02442,22.01,178.8,0,0.0,-1,0.0,0.0,0,0.39,3.0141
180864,1564149783859,-1,0.43,0.89,0.39,1.35,1.04,0.93,-0.93,0.35,50,-4,67,1.32,3988,12,79,43,64,993,257.0,392,462,60,130.0,159,1,180,271,41,0,0,183,19456,250,257,-5.59,,,,,,,,,,,,
180884,1564149783879,1,0.44,0.89,0.39,1.34,1.04,0.93,-0.93,0.32,50,-4,67,1.32,3966,12,79,43,64,994,257.0,388,463,60,129.0,159,1,179,197,41,0,0,181,250,250,257,-5.59,,,,,,,,,,,,
180904,1564149783899,-0,0.44,0.89,0.39,1.35,1.04,0.91,-0.9,0.35,50,-2,66,1.27,3959,12,79,43,64,996,257.0,379,471,60,130.0,159,1,181,200,41,0,0,182,-1481,250,257,-5.59,,,,,,,,,,,,
180924,1564149783901,-1,0.44,0.9,0.39,1.34,1.04,0.94,-0.91,0.32,51,-4,68,1.31,3959,12,79,43,64,997,257.0,364,461,60,131.0,159,1,179,197,41,0,0,183,-1481,-17920,257,-5.59,,,,,,,,,,,,
180944,1564149783921,2,0.46,0.9,0.39,1.35,1.04,0.92,-0.91,0.32,51,-2,67,1.3,3943,12,79,43,64,1000,256.0,359,458,60,128.0,155,1,178,269,40,0,0,182,-1481,-17920,256,-5.59,44.680851,10.024417,22.19,178.8,0,0.0,-1,0.0,0.0,0,0.39,3.0157
180964,1564149783941,-1,0.46,0.89,0.4,1.35,1.04,0.91,-0.89,0.31,50,-1,68,1.28,3968,12,79,43,64,1001,256.0,360,471,60,131.0,155,1,180,271,40,0,0,182,-1481,250,256,-5.59,,,,,,,,,,,,
180984,1564149783961,-2,0.47,0.89,0.39,1.34,1.05,0.96,-0.92,0.29,51,-3,69,1.33,3968,12,79,43,64,1001,256.0,355,460,60,130.0,155,1,179,270,40,0,0,182,-1481,23482,256,-5.59,,,,,,,,,,,,
181004,1564149783981,1,0.47,0.89,0.39,1.34,1.05,0.94,-0.92,0.32,51,-1,68,1.32,3945,12,79,43,64,1002,256.0,358,470,60,129.0,155,1,178,269,40,0,0,180,14326,-17920,256,-5.59,,,,,,,,,,,,
181024,1564149784007,0,0.47,0.9,0.39,1.35,1.04,0.96,-0.89,0.34,51,-1,68,1.31,4003,12,79,43,64,1001,256.0,329,478,60,131.0,160,1,181,272,41,0,0,181,14326,250,256,-5.59,,,,,,,,,,,,
181044,1564149784027,4,0.49,0.9,0.39,1.34,1.05,0.98,-0.9,0.31,51,-3,70,1.33,3967,12,79,43,64,1000,254.0,329,456,60,130.0,160,1,179,270,41,0,0,183,-2560,-17920,254,-5.59,44.680859,10.024414,21.82,178.7,0,0.0,-1,0.0,0.0,0,0.4,3.0174
181064,1564149784047,1,0.49,0.89,0.39,1.34,1.05,0.96,-0.91,0.33,50,-1,68,1.32,3947,12,79,43,64,999,254.0,343,475,60,129.0,160,1,178,268,41,0,0,181,250,-17920,254,-5.59,,,,,,,,,,,,
181084,1564149784067,-1,0.49,0.9,0.39,1.35,1.04,0.97,-0.91,0.31,50,-2,68,1.33,3956,12,79,43,64,999,254.0,318,476,60,131.0,160,1,180,271,41,0,0,181,-2560,15360,254,-5.59,,,,,,,,,,,,
181104,1564149784095,4,0.49,0.9,0.39,1.35,1.04,1.01,-0.94,0.29,51,-4,69,1.38,3956,12,79,43,64,1001,253.0,303,458,60,129.0,160,1,179,197,41,0,0,187,-2560,23482,253,-5.59,,,,,,,,,,,,
181124,1564149784115,0,0.5,0.9,0.39,1.35,1.04,0.96,-0.93,0.33,50,-1,68,1.34,3954,12,79,43,64,1004,253.0,309,470,60,130.0,158,1,179,269,40,0,0,188,-2560,-1484,253,-5.59,,,,,,,,,,,,
181144,1564149784135,-1,0.49,0.9,0.39,1.35,1.04,1.01,-0.92,0.32,51,-3,69,1.36,3965,12,79,43,64,1008,253.0,322,463,60,130.0,158,1,180,271,40,0,0,183,250,-1484,253,-5.59,44.680866,10.024414,21.23,178.7,0,0.0,-1,0.0,0.0,0,0.4,3.0191
181164,1564149784155,3,0.5,0.9,0.39,1.35,1.04,1.01,-0.95,0.33,51,-4,69,1.38,3965,12,79,43,64,1011,254.0,312,458,60,128.0,158,1,179,269,40,0,0,182,250,-17920,254,-5.59,,,,,,,,,,,,
181184,1564149784175,-0,0.48,0.89,0.39,1.35,1.04,0.97,-0.9,0.38,51,-1,68,1.32,3925,12,79,43,64,1013,254.0,327,470,60,130.0,158,1,177,268,40,0,0,183,-2560,23482,254,-5.59,,,,,,,,,,,,
181204,1564149784201,0,0.49,0.89,0.39,1.34,1.04,1.02,-0.9,0.32,52,-3,70,1.36,3952,12,79,43,64,1013,255.0,332,466,60,131.0,158,1,179,269,40,0,0,183,-1281,23482,255,-5.59,,,,,,,,,,,,
181224,1564149784221,1,0.5,0.89,0.39,1.34,1.05,0.98,-0.92,0.33,51,-2,69,1.35,3951,12,79,43,64,1010,253.0,333,465,60,129.0,156,1,179,269,40,0,0,182,250,250,253,-5.59,,,,,,,,,,,,
181244,1564149784241,-1,0.5,0.89,0.39,1.34,1.05,0.97,-0.91,0.32,51,-1,68,1.33,3906,12,79,43,64,1007,254.0,320,472,60,131.0,156,1,177,267,40,0,0,177,250,250,253,-5.59,44.680866,10.024414,21.27,178.7,0,0.0,-1,0.0,0.0,0,0.4,3.0207
181264,1564149784261,2,0.5,0.89,0.39,1.34,1.04,0.98,-0.92,0.32,53,-3,70,1.35,3933,12,79,43,64,1000,254.0,326,457,60,131.0,156,1,178,268,40,0,0,178,-1281,23482,254,-5.59,,,,,,,,,,,,
181284,1564149784281,1,0.5,0.89,0.39,1.34,1.05,0.92,-0.91,0.34,52,-0,68,1.29,3949,12,79,43,64,994,253.0,310,465,60,129.0,156,1,178,269,40,0,0,179,-1,250,253,-5.59,,,,,,,,,,,,
181304,1564149784301,-0,0.5,0.89,0.39,1.35,1.04,0.95,-0.94,0.35,52,-2,70,1.33,3898,12,79,43,65,991,252.0,303,474,60,131.0,156,1,179,266,40,0,0,180,-1,23482,252,181.28,,,,,,,,,,,,
181324,1564149784303,3,0.5,0.9,0.39,1.35,1.05,0.92,-0.96,0.37,53,-2,70,1.33,3893,12,79,43,65,988,253.0,315,461,60,128.0,154,1,179,271,39,0,0,180,-1281,13468,253,-5.59,,,,,,,,,,,,
181344,1564149784323,-2,0.51,0.89,0.39,1.35,1.04,0.91,-0.93,0.37,52,0,68,1.3,3929,12,79,43,65,987,253.0,321,474,60,131.0,154,1,180,272,39,0,0,177,-1,13468,253,-5.59,44.680874,10.024415,21.29,178.6,0,0.0,-1,0.0,0.0,0,0.4,3.0224
181364,1564149784343,2,0.51,0.89,0.39,1.34,1.05,0.93,-0.93,0.37,53,-3,71,1.32,3885,12,79,43,64,986,253.0,309,464,60,130.0,154,1,176,266,39,0,0,180,-1,-1484,253,-5.59,,,,,,,,,,,,
181384,1564149784363,-0,0.49,0.89,0.39,1.35,1.04,0.91,-0.92,0.38,52,-0,69,1.29,3899,12,79,43,65,987,253.0,306,468,60,129.0,154,1,179,271,39,0,0,184,-1281,13468,253,-5.59,,,,,,,,,,,,
181404,1564149784391,-2,0.5,0.89,0.4,1.35,1.04,0.95,-0.92,0.37,53,-2,70,1.32,3928,12,79,43,65,989,254.0,311,468,60,131.0,154,1,180,272,39,0,0,177,-1,250,254,-5.59,,,,,,,,,,,,
181424,1564149784411,2,0.5,0.89,0.4,1.34,1.05,0.94,-0.93,0.39,53,-3,70,1.33,3908,12,79,43,64,990,252.0,303,462,60,130.0,154,1,177,195,39,0,0,178,-1,-25600,252,-5.59,,,,,,,,,,,,
181444,1564149784431,-1,0.5,0.89,0.4,1.34,1.05,0.93,-0.91,0.4,52,-0,69,1.3,3869,12,79,43,65,990,252.0,312,476,60,131.0,154,1,178,270,39,0,0,178,-1,-25600,252,-5.59,44.680882,10.024418,21.7,178.6,0,0.0,-1,0.0,0.0,0,0.4,3.0241
181464,1564149784451,4,0.5,0.89,0.39,1.34,1.05,0.95,-0.91,0.41,53,-3,71,1.32,3882,12,79,43,65,988,251.0,309,464,60,131.0,154,1,179,270,39,0,0,176,-1,-25600,251,-5.59,,,,,,,,,,,,
181484,1564149784471,0,0.5,0.89,0.39,1.35,1.04,0.91,-0.91,0.44,52,0,69,1.29,3911,12,79,43,65,987,251.0,316,469,60,129.0,154,1,180,272,39,0,0,176,-1,13468,251,-5.59,,,,,,,,,,,,
181504,1564149784499,-0,0.5,0.9,0.39,1.35,1.04,0.93,-0.93,0.44,53,-1,70,1.32,3867,12,79,43,65,987,252.0,312,466,60,132.0,154,1,178,270,39,0,0,176,-1,250,252,181.28,,,,,,,,,,,,
181524,1564149784519,-0,0.5,0.9,0.4,1.34,1.05,0.91,-0.97,0.43,53,-1,70,1.33,3867,12,79,43,65,986,251.0,321,461,60,128.0,154,1,178,198,39,0,0,176,-1,-1483,251,-5.59,,,,,,,,,,,,
181544,1564149784539,-2,0.51,0.89,0.39,1.35,1.04,0.9,-0.95,0.43,52,0,69,1.31,3908,12,79,43,65,987,250.0,311,474,60,131.0,155,1,180,272,39,0,0,176,-1,-25600,250,-5.59,44.680885,10.024422,21.16,178.6,0,0.0,-1,0.0,0.0,0,0.4,3.0257
181564,1564149784559,3,0.5,0.9,0.39,1.35,1.04,0.89,-0.96,0.42,53,-3,71,1.31,3849,12,79,43,65,987,251.0,318,461,60,131.0,155,1,178,270,39,0,0,180,-1,250,251,-5.59,,,,,,,,,,,,
181584,1564149784579,-1,0.5,0.9,0.4,1.34,1.05,0.85,-0.95,0.43,52,0,69,1.28,3869,26,79,43,65,989,250.0,308,475,60,131.0,155,1,177,269,39,0,0,179,-1,13468,251,-5.59,,,,,,,,,,,,
181604,1564149784608,0,0.5,0.89,0.4,1.34,1.05,0.88,-0.93,0.39,53,-2,71,1.28,3869,26,79,43,66,991,250.0,301,462,60,131.0,155,1,181,274,39,0,0,177,-1,-25600,251,-5.59,,,,,,,,,,,,
181624,1564149784628,-0,0.5,0.89,0.39,1.35,1.04,0.86,-0.94,0.42,52,-1,69,1.27,3881,32,79,43,70,992,250.0,312,460,60,128.0,168,1,187,288,42,0,0,178,-1,250,250,-5.59,,,,,,,,,,,,
181644,1564149784648,0,0.5,0.89,0.4,1.35,1.04,0.88,-0.93,0.43,52,-1,69,1.28,3967,41,79,43,75,993,249.0,318,472,60,131.0,168,1,190,301,42,0,0,179,-1,250,249,181.28,44.680885,10.024426,21.42,178.6,0,0.0,-1,0.0,0.0,0,0.4,3.0274
181664,1564149784668,4,0.51,0.9,0.39,1.35,1.04,0.9,-0.96,0.44,52,-3,70,1.31,3916,59,79,43,81,990,249.0,296,457,60,129.0,168,1,195,361,42,0,0,187,-1,-1483,249,-5.59,,,,,,,,,,,,
181684,1564149784688,-1,0.5,0.89,0.39,1.35,1.04,0.87,-0.93,0.44,51,-0,68,1.28,3916,59,79,43,86,987,249.0,312,475,60,130.0,168,1,195,387,42,0,0,195,-1,250,249,-5.59,,,,,,,,,,,,
181704,1564149784708,1,0.5,0.89,0.39,1.35,1.05,0.92,-0.95,0.42,52,-3,70,1.32,3864,63,79,43,91,983,247.0,311,476,60,131.0,168,1,206,394,42,0,0,181,-1,250,247,-5.59,,,,,,,,,,,,
181724,1564149784710,-0,0.5,0.89,0.4,1.35,1.05,0.9,-0.94,0.41,51,-2,69,1.3,3756,65,79,43,93,978,247.0,313,463,60,130.0,168,1,219,481,42,0,0,172,-1,13602,247,-5.59,,,,,,,,,,,,
181744,1564149784730,4,0.5,0.89,0.4,1.34,1.05,0.92,-0.93,0.39,52,-3,70,1.31,3663,65,79,43,94,974,247.0,307,483,60,131.0,275,1,221,510,68,0,0,172,-1,-1483,247,-5.59,44.680889,10.024431,21.55,178.6,0,0.0,-1,0.0,0.0,0,0.4,3.0291
181764,1564149784750,-0,0.5,0.9,0.39,1.35,1.04,0.95,-0.91,0.38,52,-3,70,1.31,3562,65,79,43,94,969,248.0,313,454,60,130.0,275,1,214,501,68,0,0,170,-1,-1483,248,-5.59,,,,,,,,,,,,
181784,1564149784770,-0,0.5,0.89,0.39,1.35,1.04,0.91,-0.91,0.37,52,-1,69,1.29,3421,65,79,43,94,967,248.0,300,458,60,129.0,275,1,210,428,68,0,0,169,-1,250,248,-5.59,,,,,,,,,,,,
181804,1564149784800,0,0.5,0.9,0.4,1.34,1.05,0.93,-0.93,0.32,52,-2,69,1.31,3353,65,79,43,95,968,247.0,302,479,60,131.0,275,1,217,525,68,0,0,167,-1,13602,247,-5.59,,,,,,,,,,,,
181824,1564149784820,0,0.5,0.89,0.4,1.34,1.05,0.98,-0.92,0.31,52,-4,70,1.34,3265,65,79,43,95,982,247.0,300,475,60,131.0,275,1,217,457,68,0,0,168,-1,-1494,247,-5.59,,,,,,,,,,,,
181844,1564149784840,2,0.5,0.9,0.39,1.35,1.04,1.01,-0.92,0.32,52,-4,70,1.37,3205,65,79,43,95,1010,245.0,292,463,60,130.0,259,1,217,513,64,0,0,167,-1,250,247,-5.59,44.680893,10.024437,20.94,178.6,0,0.0,-1,0.0,0.0,0,0.4,3.0307
181864,1564149784860,0,0.51,0.89,0.4,1.35,1.04,1.02,-0.93,0.33,53,-5,71,1.38,3208,65,79,43,95,1037,245.0,291,461,60,132.0,259,1,217,513,64,0,0,164,-1,10824,245,-5.59,,,,,,,,,,,,
181884,1564149784880,-0,0.5,0.9,0.4,1.35,1.04,0.97,-0.92,0.34,52,-4,69,1.34,3305,65,79,43,95,1065,245.0,283,457,60,127.0,259,1,217,521,64,0,0,164,-1,250,245,-5.59,,,,,,,,,,,,
181904,1564149784900,-1,0.5,0.89,0.4,1.34,1.05,0.96,-0.9,0.36,52,-3,69,1.32,3483,65,79,43,95,1113,244.0,283,467,60,130.0,259,1,217,535,64,0,0,161,-1,10318,244,-5.59,,,,,,,,,,,,
181924,1564149784902,-1,0.49,0.89,0.39,1.35,1.04,0.97,-0.89,0.38,52,-5,68,1.32,3700,65,79,43,95,1197,241.0,288,466,60,131.0,302,1,223,540,73,0,0,155,-1,-1530,241,-5.59,,,,,,,,,,,,
181944,1564149784922,1,0.48,0.89,0.4,1.34,1.05,0.95,-0.88,0.36,52,-2,67,1.29,3700,65,79,43,95,1275,238.0,280,453,60,128.0,302,1,232,488,73,0,0,158,-1,-1530,238,-5.59,44.680897,10.024444,20.75,178.5,0,0.0,-1,0.0,0.0,0,0.4,3.0324
181964,1564149784942,-0,0.46,0.89,0.4,1.34,1.04,0.96,-0.89,0.38,51,-3,67,1.31,3744,65,79,43,95,1332,237.0,290,480,60,131.0,302,1,236,550,73,0,0,161,5134,10318,237,-5.59,,,,,,,,,,,,
181984,1564149784962,3,0.45,0.89,0.39,1.35,1.04,0.95,-0.89,0.38,51,-2,66,1.3,3821,65,79,43,95,1390,237.0,291,452,60,128.0,302,1,242,555,73,0,0,161,3584,15360,237,-5.59,,,,,,,,,,,,
182004,1564149784982,0,0.42,0.89,0.39,1.35,1.04,0.97,-0.86,0.37,51,-2,66,1.3,3909,65,79,43,94,1446,234.0,296,475,60,131.0,302,1,239,467,73,0,0,162,3584,15360,234,-5.59,,,,,,,,,,,,
182024,1564149785010,-1,0.41,0.89,0.4,1.34,1.05,0.98,-0.84,0.39,50,-4,65,1.29,4011,65,79,43,94,1498,233.0,286,465,60,131.0,347,1,247,536,81,0,0,160,5134,250,233,-5.59,,,,,,,,,,,,
182044,1564149785030,-1,0.38,0.89,0.4,1.34,1.04,0.95,-0.83,0.36,50,-4,64,1.26,4193,65,79,43,94,1498,232.0,268,459,60,130.0,347,1,258,540,81,0,0,161,250,1596,232,-5.59,44.680901,10.02445,20.27,178.5,0,0.0,-1,0.0,0.0,0,0.4,3.0341
182064,1564149785050,-1,0.37,0.89,0.39,1.35,1.04,0.96,-0.77,0.38,50,-3,64,1.23,4343,65,79,43,94,1498,231.0,271,465,60,128.0,347,1,267,572,81,0,0,161,3584,250,231,-5.59,,,,,,,,,,,,
182084,1564149785070,-1,0.35,0.89,0.39,1.35,1.04,0.9,-0.73,0.47,49,-3,63,1.16,4497,65,79,43,94,1498,230.0,287,468,60,129.0,347,1,276,549,81,0,0,169,-1495,1210,229,-5.59,,,,,,,,,,,,
182104,1564149785098,-2,3.0,0.91,0.41,1.36,1.06,0.87,-0.72,0.52,48,-3,62,1.13,4505,65,79,43,94,1498,230.0,294,467,60,129.0,347,1,277,576,81,0,0,197,5134,-1530,230,-5.59,,,,,,,,,,,,
182124,1564149785118,-0,2.97,0.91,0.4,1.37,1.06,0.85,-0.73,0.56,48,-3,62,1.12,4613,65,79,43,94,1498,231.0,280,462,60,129.0,406,1,278,550,94,0,0,278,-1,19968,231,-5.59,,,,,,,,,,,,
182144,1564149785138,-1,2.94,0.92,0.4,1.37,1.06,0.84,-0.7,0.58,48,-3,62,1.1,4613,65,79,43,94,1498,232.0,286,463,60,128.0,406,1,284,553,94,0,0,274,-1,10824,232,-5.59,44.680901,10.024457,19.73,178.5,0,0.0,-1,0.0,0.0,0,0.4,3.0357
182164,1564149785158,-1,2.91,0.92,0.4,1.37,1.06,0.85,-0.69,0.61,48,-2,62,1.1,4661,65,79,43,94,1485,237.0,301,466,60,129.0,406,1,287,554,94,0,0,210,-1,13602,237,-5.59,,,,,,,,,,,,
182184,1564149785178,0,2.86,0.91,0.41,1.36,1.06,0.81,-0.68,0.64,47,-2,61,1.06,4573,65,79,43,94,1472,238.0,293,465,60,130.0,406,1,281,552,94,0,0,234,250,23482,242,-5.59,,,,,,,,,,,,
182204,1564149785208,-0,2.83,0.92,0.4,1.36,1.06,0.75,-0.68,0.7,47,-2,60,1.01,4458,65,78,43,94,1459,243.0,305,465,60,130.0,406,1,272,547,94,0,0,269,-1481,23482,243,-5.59,,,,,,,,,,,,
182224,1564149785228,-0,2.79,0.92,0.4,1.36,1.06,0.69,-0.65,0.73,46,-2,58,0.95,4458,65,78,43,94,1446,246.0,318,463,60,129.0,406,1,274,488,94,0,0,223,250,250,246,-5.59,,,,,,,,,,,,
182244,1564149785248,-1,2.76,0.92,0.4,1.36,1.07,0.64,-0.64,0.74,45,-2,57,0.9,4439,65,79,43,94,1386,247.0,331,463,60,129.0,373,1,273,548,92,0,0,204,13874,10812,247,-5.59,44.680901,10.024464,19.95,178.6,0,0.0,-1,0.0,0.0,0,0.4,3.0374
182264,1564149785268,-2,2.72,0.91,0.4,1.36,1.07,0.63,-0.63,0.76,43,-2,54,0.89,4388,65,79,43,94,1325,249.0,345,461,60,130.0,373,1,270,546,92,0,0,243,-14848,250,249,-5.59,,,,,,,,,,,,
182284,1564149785288,-2,2.69,0.91,0.4,1.36,1.06,0.61,-0.61,0.8,42,-5,52,0.87,4436,65,78,43,95,1274,250.0,357,461,60,127.0,373,1,279,575,92,0,0,265,-1533,16896,250,-5.59,,,,,,,,,,,,
182304,1564149785308,-1,2.64,0.92,0.4,1.36,1.06,0.58,-0.56,0.84,39,-4,50,0.8,4595,65,78,43,94,1226,249.0,369,464,60,130.0,373,1,282,552,92,0,0,242,-1532,16896,249,-5.59,,,,,,,,,,,,
182324,1564149785310,-1,2.59,0.91,0.41,1.36,1.06,0.56,-0.49,0.84,37,-4,48,0.74,4700,65,79,43,94,1153,250.0,383,468,60,129.0,396,1,289,556,99,0,0,231,-1532,16896,250,-5.59,,,,,,,,,,,,
182344,1564149785330,1,2.55,0.92,0.4,1.36,1.06,0.56,-0.46,0.82,35,-3,46,0.72,4737,65,78,43,95,1076,252.0,385,466,60,131.0,396,1,294,557,99,0,0,255,250,-1,252,-5.59,44.680901,10.024471,22.06,178.6,0,0.0,-1,0.0,0.0,0,0.4,3.0391
182364,1564149785350,3,2.52,0.92,0.4,1.36,1.06,0.6,-0.42,0.8,33,-2,43,0.73,4769,65,79,43,94,1035,253.0,385,467,60,130.0,396,1,293,558,99,0,0,267,250,-1,253,-5.59,,,,,,,,,,,,
182384,1564149785370,0,2.48,0.91,0.41,1.36,1.06,0.57,-0.37,0.83,30,-2,41,0.68,4856,65,79,43,95,1006,253.0,393,467,60,128.0,396,1,301,584,99,0,0,242,13602,-1281,253,-5.59,,,,,,,,,,,,
182404,1564149785400,-1,2.45,0.91,0.4,1.36,1.05,0.54,-0.37,0.93,28,-1,38,0.65,4930,65,78,43,94,974,256.0,405,462,60,128.0,396,1,303,561,99,0,0,253,13468,-41,256,-5.59,,,,,,,,,,,,
182424,1564149785420,2,2.43,0.91,0.4,1.36,1.05,0.57,-0.33,0.91,26,-1,35,0.66,4957,65,78,43,94,938,258.0,415,470,60,131.0,406,1,305,562,105,0,0,259,250,-1,258,-5.59,,,,,,,,,,,,
182444,1564149785440,-2,2.39,0.9,0.4,1.35,1.04,0.56,-0.3,0.91,24,-1,33,0.64,4969,65,78,43,94,922,260.0,435,463,60,131.0,406,1,306,563,105,0,0,268,16896,-1,260,-5.59,44.680897,10.024479,23.73,178.6,0,0.0,-1,0.0,0.0,0,0.4,3.0407
182464,1564149785460,-1,2.36,0.9,0.4,1.35,1.05,0.55,-0.28,1.01,22,-2,29,0.61,4992,65,78,43,94,915,261.0,453,466,60,128.0,406,1,307,563,105,0,0,269,-1,-1,261,-5.59,,,,,,,,,,,,
182484,1564149785480,2,2.33,0.9,0.39,1.34,1.05,0.56,-0.2,0.91,20,-2,27,0.59,4973,65,78,43,93,902,263.0,461,464,60,130.0,406,1,306,540,105,0,0,273,-41,-1,263,-5.59,,,,,,,,,,,,
182504,1564149785508,-0,2.31,0.89,0.39,1.35,1.04,0.53,-0.17,0.92,18,-2,25,0.55,5032,65,78,43,93,888,267.0,460,466,60,130.0,406,1,308,540,105,0,0,271,-1,2414,267,-5.59,,,,,,,,,,,,
182524,1564149785528,2,2.29,0.89,0.39,1.35,1.04,0.52,-0.14,0.95,16,-2,21,0.54,5159,65,78,43,93,876,268.0,475,461,60,129.0,391,1,309,536,105,0,0,298,-1,-1527,268,-5.59,,,,,,,,,,,,
182544,1564149785548,-1,2.26,0.89,0.39,1.35,1.04,0.54,-0.13,0.93,14,-2,20,0.56,5272,65,78,43,92,867,269.0,493,468,60,131.0,391,1,310,513,105,0,0,278,-1,-1527,269,-5.59,44.680897,10.024487,25.15,178.6,0,0.0,-1,0.0,0.0,0,0.4,3.0424
182564,1564149785568,4,2.25,0.88,0.38,1.33,1.05,0.54,-0.05,1.04,12,-3,16,0.54,5430,65,78,43,91,854,275.0,517,464,60,129.0,391,1,311,511,105,0,0,285,-1527,-16896,272,-5.59,,,,,,,,,,,,
182584,1564149785588,3,2.25,0.89,0.39,1.34,1.04,0.54,-0.04,1.03,10,-3,14,0.54,5580,65,78,43,91,838,281.0,533,463,60,128.0,391,1,313,492,105,0,0,291,24064,85,276,-5.59,,,,,,,,,,,,
182604,1564149785591,0,2.25,0.88,0.38,1.34,1.05,0.51,-0.07,1.12,8,-1,12,0.51,5685,65,78,43,90,825,286.0,550,468,60,130.0,391,1,314,479,105,0,0,298,10686,21760,279,-5.59,,,,,,,,,,,,
182624,1564149785611,0,2.25,0.88,0.38,1.34,1.04,0.48,-0.06,1.07,7,-0,11,0.49,5778,65,78,43,90,817,291.0,567,464,60,129.0,391,1,315,480,105,0,0,308,23040,23040,285,-5.59,,,,,,,,,,,,
182644,1564149785631,-1,2.25,0.88,0.39,1.34,1.04,0.47,0.01,1.0,6,-0,9,0.47,5833,64,78,43,89,809,299.0,577,467,60,130.0,368,1,318,477,105,0,0,309,25600,-32256,291,-5.59,44.680897,10.024496,26.67,178.5,0,0.0,-1,0.0,0.0,0,0.4,3.0441
182664,1564149785651,1,2.25,0.89,0.39,1.34,1.04,0.5,0.07,0.96,5,-1,6,0.5,5875,64,78,43,89,801,303.0,583,463,60,130.0,368,1,318,478,105,0,0,316,28160,130,295,-5.59,,,,,,,,,,,,
182684,1564149785671,-1,2.25,0.89,0.39,1.34,1.04,0.58,0.11,0.96,5,-1,3,0.59,5909,64,78,43,89,797,311.0,588,464,60,128.0,368,1,319,479,105,0,0,320,-32256,140,299,-5.59,,,,,,,,,,,,
182704,1564149785699,-0,2.24,0.89,0.39,1.35,1.04,0.67,0.12,0.96,4,-1,1,0.68,5959,64,78,43,89,797,311.0,596,461,60,129.0,368,1,320,479,105,0,0,324,-32256,-27136,304,-5.59,,,,,,,,,,,,
182724,1564149785719,-1,2.25,0.89,0.39,1.34,1.05,0.71,0.14,0.88,4,-2,-0,0.72,6032,64,78,43,89,799,317.0,599,463,60,128.0,358,1,322,481,110,0,0,332,145,175,307,-5.59,,,,,,,,,,,,
182744,1564149785739,1,2.25,0.89,0.4,1.34,1.05,0.71,0.1,0.82,3,-3,-2,0.72,6161,64,78,43,88,804,320.0,603,465,60,129.0,358,1,332,485,110,0,0,345,150,160,313,-5.59,44.680893,10.024506,28.41,178.4,0,0.0,-1,0.0,0.0,0,0.41,3.0457
182764,1564149785759,3,2.24,0.9,0.39,1.34,1.05,0.67,0.12,0.79,2,-2,-2,0.68,6281,63,78,43,88,808,325.0,606,465,60,130.0,358,1,338,486,110,0,0,331,-22016,-6528,316,-5.59,,,,,,,,,,,,
182784,1564149785779,1,2.24,0.89,0.39,1.35,1.05,0.59,0.21,0.83,2,-0,-4,0.63,6364,63,78,43,89,811,328.0,611,465,60,130.0,358,1,340,488,110,0,0,339,170,-14707,320,-5.59,,,,,,,,,,,,
182804,1564149785799,-0,2.24,0.89,0.4,1.35,1.04,0.67,0.22,0.79,1,0,-3,0.7,6469,63,78,43,89,814,332.0,613,465,60,129.0,358,1,345,495,110,0,0,341,-12032,-22016,326,-5.59,,,,,,,,,,,,
182824,1564149785803,3,2.25,0.89,0.4,1.35,1.05,0.65,0.12,0.89,0,-2,-4,0.66,6481,63,78,43,88,816,337.0,618,462,60,129.0,368,1,348,492,121,0,0,345,2560,-1246,328,-5.59,,,,,,,,,,,,
182844,1564149785823,-0,2.24,0.89,0.39,1.35,1.06,0.57,0.18,0.92,0,-0,-4,0.6,6499,63,78,43,88,816,342.0,615,464,60,130.0,368,1,349,492,121,0,0,349,-31206,2811,332,-5.59,44.680893,10.024516,31.07,178.4,0,0.0,-1,0.0,0.0,0,0.41,3.0474
182864,1564149785843,0,2.24,0.89,0.4,1.34,1.05,0.66,0.19,0.95,-1,0,-5,0.68,6533,63,78,43,88,815,343.0,617,468,60,130.0,368,1,351,494,121,0,0,353,-14714,8841,338,-5.59,,,,,,,,,,,,
182884,1564149785863,3,2.24,0.89,0.39,1.35,1.05,0.63,0.1,1.01,-2,-2,-6,0.64,6562,63,78,43,88,814,348.0,618,463,60,130.0,368,1,352,495,121,0,0,357,-1246,-6640,338,-5.59,,,,,,,,,,,,
182904,1564149785891,1,2.24,0.9,0.4,1.34,1.05,0.56,0.21,0.99,-2,0,-6,0.6,6620,62,78,42,88,817,352.0,620,466,60,129.0,368,1,355,496,121,0,0,360,3183,3302,342,414.87,,,,,,,,,,,,
182924,1564149785911,3,2.23,0.9,0.39,1.35,1.05,0.65,0.12,1.02,-3,-1,-6,0.66,6706,62,78,42,88,819,355.0,620,462,60,129.0,368,1,359,500,127,0,0,362,3302,-6640,346,-5.59,,,,,,,,,,,,
182944,1564149785931,0,2.24,0.89,0.4,1.34,1.05,0.56,0.19,0.96,-3,-0,-7,0.59,6890,62,78,42,88,822,357.0,621,467,60,129.0,368,1,363,502,127,0,0,364,-6640,-6656,348,-5.59,44.680893,10.024528,32.83,178.4,0,0.0,-1,0.0,0.0,0,0.41,3.0491
182964,1564149785951,2,2.24,0.89,0.39,1.35,1.05,0.64,0.15,1.01,-4,-2,-6,0.66,6934,62,78,42,87,826,361.0,623,466,60,128.0,368,1,369,506,127,0,0,366,-6458,-1268,352,-5.59,,,,,,,,,,,,
182984,1564149785971,1,2.23,0.89,0.4,1.34,1.05,0.55,0.18,1.0,-4,-0,-7,0.58,6934,62,78,42,87,821,365.0,623,466,60,129.0,368,1,371,502,127,0,0,371,-6405,486,356,-5.59,,,,,,,,,,,,
183004,1564149785999,-0,2.23,0.9,0.4,1.35,1.05,0.54,0.18,1.01,-4,0,-8,0.57,6954,63,78,42,87,817,368.0,628,463,60,130.0,368,1,372,503,127,0,0,374,0,1,358,-5.59,,,,,,,,,,,,
183024,1564149786019,4,2.23,0.89,0.4,1.35,1.06,0.55,0.12,1.03,-5,-0,-8,0.57,6911,63,78,42,87,809,370.0,628,463,60,129.0,362,1,370,501,131,0,0,377,257,486,361,-5.59,,,,,,,,,,,,
183044,1564149786039,1,2.23,0.89,0.39,1.35,1.05,0.43,0.23,0.9,-5,2,-9,0.49,6993,63,78,42,87,801,372.0,631,467,60,129.0,362,1,374,503,131,0,0,377,1,3,363,-5.59,44.680889,10.024539,34.85,178.4,0,0.0,-1,0.0,0.0,0,0.41,3.0507
183064,1564149786059,-1,2.24,0.89,0.4,1.35,1.06,0.49,0.25,0.96,-5,1,-10,0.56,7064,63,78,42,86,784,374.0,626,464,60,130.0,362,1,379,500,131,0,0,379,742,-6656,365,-5.59,,,,,,,,,,,,
183084,1564149786079,1,2.23,0.89,0.4,1.35,1.06,0.65,0.22,1.04,-7,-0,-9,0.68,7278,63,78,42,86,767,375.0,630,465,60,129.0,362,1,394,505,131,0,0,380,770,8200,367,-5.59,,,,,,,,,,,,
183104,1564149786105,-2,2.24,0.9,0.4,1.35,1.05,0.7,0.28,1.02,-7,-1,-7,0.75,7393,64,78,42,86,756,377.0,634,468,60,129.0,362,1,401,507,131,0,0,385,-6656,-6656,370,-5.59,,,,,,,,,,,,
183124,1564149786125,-0,2.23,0.9,0.4,1.35,1.05,0.72,0.17,1.12,-8,-2,-8,0.74,7482,68,78,42,85,747,381.0,637,466,60,129.0,386,1,406,509,144,0,0,394,-18948,-1562,373,-5.59,,,,,,,,,,,,
183144,1564149786145,0,2.23,0.89,0.4,1.35,1.05,0.78,0.18,1.14,-8,-3,-7,0.8,7503,71,78,42,87,737,387.0,639,470,60,129.0,386,1,409,517,144,0,0,395,240,10541,376,-5.59,44.680889,10.024552,35.88,178.4,0,0.0,-1,0.0,0.0,0,0.41,3.0524
183164,1564149786165,1,2.23,0.9,0.39,1.36,1.05,0.85,0.12,1.22,-9,-4,-8,0.86,7597,76,78,42,88,727,389.0,637,468,60,129.0,386,1,416,527,144,0,0,399,-6524,-4059,380,-5.59,,,,,,,,,,,,
183184,1564149786185,2,2.22,0.89,0.39,1.35,1.05,0.81,0.16,1.2,-9,-3,-6,0.83,7674,81,78,42,89,723,394.0,636,465,60,129.0,386,1,423,546,144,0,0,406,-1818,-26615,385,-5.59,,,,,,,,,,,,
183204,1564149786205,4,2.23,0.9,0.39,1.36,1.05,0.69,0.34,1.21,-8,-2,-7,0.77,7789,88,78,42,91,722,398.0,641,466,60,130.0,386,1,432,551,144,0,0,411,6384,2524,389,-5.59,,,,,,,,,,,,
183224,1564149786209,1,2.23,0.89,0.4,1.35,1.06,0.68,0.3,1.24,-8,-1,-9,0.74,7898,95,78,42,92,721,404.0,642,465,60,129.0,421,1,440,556,166,0,0,420,1504,18584,394,-5.59,,,,,,,,,,,,
183244,1564149786229,2,2.23,0.89,0.4,1.35,1.06,0.69,0.26,1.25,-8,-1,-8,0.74,8230,100,78,42,92,720,409.0,641,468,60,128.0,421,1,447,569,166,0,0,427,11560,13180,397,-5.59,44.680889,10.024565,37.52,178.4,0,0.0,-1,0.0,0.0,0,0.41,3.0541
183264,1564149786249,0,2.23,0.89,0.39,1.35,1.05,0.6,0.25,1.24,-8,0,-8,0.65,8230,100,78,42,91,720,411.0,646,467,60,129.0,421,1,443,588,166,0,0,436,-26615,-18341,402,-5.59,,,,,,,,,,,,
183284,1564149786269,4,2.22,0.89,0.4,1.34,1.05,0.51,0.42,1.15,-8,-0,-9,0.66,8408,100,78,42,90,720,421.0,650,466,60,129.0,421,1,439,548,166,0,0,442,-21792,20625,407,-5.59,,,,,,,,,,,,
183304,1564149786295,3,2.22,0.88,0.38,1.34,1.05,0.61,0.28,1.19,-9,-2,-8,0.67,8704,100,78,42,89,727,427.0,651,466,60,129.0,421,1,434,606,166,0,0,454,31796,8488,414,-5.59,,,,,,,,,,,,
183324,1564149786315,3,2.22,0.89,0.39,1.35,1.04,0.7,0.21,1.18,-9,-1,-10,0.73,8704,100,78,42,89,737,432.0,660,467,60,129.0,421,1,428,606,166,0,0,464,-3322,14488,419,-5.59,,,,,,,,,,,,
183344,1564149786335,-0,2.22,0.88,0.39,1.34,1.04,0.73,0.11,1.14,-10,0,-12,0.73,8836,100,78,42,88,747,441.0,654,466,60,128.0,477,1,423,595,200,0,0,470,26704,16408,424,-5.59,44.680889,10.024578,39.4,178.4,0,0.0,-1,0.0,0.0,0,0.41,3.0557
183364,1564149786355,1,2.21,0.88,0.39,1.33,1.05,0.71,0.03,1.13,-11,2,-12,0.71,8915,100,78,42,88,758,445.0,660,467,60,129.0,477,1,421,595,200,0,0,480,2131,8488,428,-5.59,,,,,,,,,,,,
183384,1564149786375,0,2.21,0.88,0.38,1.33,1.05,0.66,-0.04,1.22,-11,3,-13,0.66,9159,100,78,42,88,774,449.0,657,465,60,129.0,477,1,418,584,200,0,0,482,-6387,10408,435,-5.59,,,,,,,,,,,,
183404,1564149786405,4,2.2,0.88,0.39,1.34,1.04,0.74,-0.14,1.29,-12,0,-15,0.75,9159,100,78,42,87,794,459.0,663,465,60,128.0,477,1,418,584,200,0,0,486,-18108,8488,440,-5.59,,,,,,,,,,,,
183424,1564149786425,3,2.2,0.88,0.39,1.33,1.04,0.86,-0.23,1.35,-13,-1,-16,0.89,9241,100,78,42,87,808,466.0,663,464,60,129.0,459,1,418,584,204,0,0,499,-3210,2109,445,-5.59,,,,,,,,,,,,
183444,1564149786445,-0,2.21,0.88,0.39,1.33,1.05,0.77,-0.01,1.25,-14,-0,-16,0.77,9360,100,78,42,87,817,470.0,667,468,60,129.0,459,1,418,584,204,0,0,509,-9203,-3856,452,-5.59,44.680889,10.024593,42.4,178.4,0,0.0,-1,0.0,0.0,0,0.41,3.0574
183464,1564149786465,4,2.2,0.88,0.39,1.33,1.04,0.58,0.01,1.13,-14,1,-16,0.58,9566,72,78,42,86,831,479.0,664,471,60,129.0,459,1,416,568,204,0,0,505,10305,2524,458,-5.59,,,,,,,,,,,,
183484,1564149786485,-0,2.21,0.87,0.39,1.33,1.05,0.64,0.02,1.18,-14,-2,-17,0.64,9679,93,78,42,86,851,485.0,671,465,60,129.0,459,1,411,677,204,0,0,518,-6441,-28648,463,-5.59,,,,,,,,,,,,
183504,1564149786505,3,2.21,0.87,0.39,1.32,1.05,0.65,0.16,1.26,-15,-2,-16,0.67,9827,100,78,42,86,867,489.0,671,472,60,129.0,459,1,404,581,204,0,0,523,-6656,-22519,469,-5.59,,,,,,,,,,,,
183524,1564149786507,2,2.21,0.87,0.39,1.33,1.04,0.54,0.31,1.25,-15,-2,-17,0.63,9968,100,78,42,86,877,496.0,667,470,60,129.0,467,1,398,584,220,0,0,528,3,1248,471,-5.59,,,,,,,,,,,,
183544,1564149786527,-0,2.22,0.87,0.39,1.32,1.04,0.5,0.33,1.13,-15,-1,-17,0.6,10102,100,78,42,85,886,502.0,675,467,60,129.0,467,1,402,567,220,0,0,549,15661,-32504,477,-5.59,44.680889,10.024609,45.44,178.4,0,0.0,-1,0.0,0.0,0,0.41,3.0591
183564,1564149786547,2,2.22,0.86,0.38,1.32,1.04,0.55,0.49,1.02,-16,-2,-18,0.74,10251,100,78,42,85,891,507.0,680,468,60,129.0,467,1,413,567,220,0,0,544,-21872,6274,480,-5.59,,,,,,,,,,,,
183584,1564149786567,4,2.23,0.87,0.39,1.32,1.04,0.55,0.51,1.05,-16,-2,-18,0.75,10296,100,78,42,85,895,512.0,671,466,60,128.0,467,1,419,567,220,0,0,546,17136,-28648,492,-5.59,,,,,,,,,,,,
183604,1564149786592,4,2.26,0.87,0.38,1.33,1.04,0.61,0.53,1.14,-17,-2,-18,0.81,10319,100,78,42,85,890,521.0,674,466,60,130.0,467,1,417,567,220,0,0,561,-9212,-4035,497,-5.59,,,,,,,,,,,,
183624,1564149786612,4,2.27,0.87,0.39,1.33,1.05,0.66,0.55,1.23,-17,-2,-18,0.86,10451,100,78,42,85,884,524.0,685,468,60,129.0,467,1,427,567,220,0,0,549,10408,2524,504,-5.59,,,,,,,,,,,,
183644,1564149786632,4,2.27,0.88,0.39,1.34,1.04,0.68,0.68,1.3,-16,-4,-18,0.96,10551,100,78,42,85,877,528.0,673,470,60,129.0,444,1,432,567,224,0,0,567,-28648,-8962,508,-5.59,44.680889,10.024626,48.04,178.4,0,0.0,-1,0.0,0.0,0,0.41,3.0607
183664,1564149786652,1,2.27,0.87,0.39,1.33,1.04,0.66,0.68,1.37,-15,-3,-17,0.95,10551,100,78,42,85,871,534.0,675,470,60,130.0,444,1,432,567,224,0,0,577,-32248,-3820,511,-5.59,,,,,,,,,,,,
183684,1564149786672,2,2.27,0.87,0.39,1.34,1.05,0.7,0.73,1.21,-15,-3,-16,1.01,10732,100,78,42,85,869,539.0,670,465,60,129.0,444,1,437,567,224,0,0,573,-30064,-1894,520,-5.59,,,,,,,,,,,,
