"Interval"|"ms"|0|0|1,"Utc"|"ms"|0|0|1,"FB_p"|"bar"|0|300|50,"Volant"|"F"|0.0|300.0|50,"xFR"|"mm"|0.0|5.0|50,"xRR"|"mm"|0.0|5.0|50,"xFL"|"mm"|0.0|5.0|50,"xRL"|"mm"|0.0|5.0|50,"AccelX"|"G"|-3.0|3.0|50,"AccelY"|"G"|-3.0|3.0|50,"AccelZ"|"G"|-3.0|3.0|50,"Yaw"|"Deg/Sec"|-120|120|50,"Pitch"|"Deg/Sec"|-120|120|50,"Roll"|"Deg/Sec"|-120|120|50,"Gsum"|"G"|0.0|3.0|50,"RPM"|""|0|14000|50,"TPS"|"%"|0|100|50,"WaterTemp"|"?C"|0|300|50,"AirTemp"|"?C"|-1000|1000|50,"MAP"|"KPa"|0|255|50,"Lambda"|""|0|1024|50,"WheelSpeed"|"MPH"|0.0|150.0|50,"OilPress"|"PSI"|0|150|50,"FuelPress"|"PSI"|0|150|50,"OilTemp"|"F"|0|300|50,"Battery"|"Volts"|0.0|20.0|50,"FuelCon"|"L/h"|-1000|1000|50,"Gear"|""|0|10|50,"Advance"|"Deg"|-360|360|50,"Injection"|"ms"|-1000|1000|50,"FuelCon"|"L/100km"|-1000|1000|50,"LC_But_Pres"|""|-1000|1000|50,"LC_Active"|""|-1000|1000|50,"RD_Speed"|""|-1000|1000|50,"RUD_Speed"|""|-1000|1000|50,"LD_Speed"|""|-1000|1000|50,"LUD_Speed"|""|-1000|1000|50,"Ana1"|"bar"|-1000.0|1000.0|50,"Latitude"|"Degrees"|-180.0|180.0|10,"Longitude"|"Degrees"|-180.0|180.0|10,"Speed"|"kph"|0.0|150.0|10,"Altitude"|"m"|0.0|4000.0|10,"LapCount"|""|0|0|10,"LapTime"|"Min"|0.0|0.0|10,"Sector"|""|0|0|10,"SectorTime"|"Min"|0.0|0.0|10,"ElapsedTime"|"Min"|0.0|0.0|10,"CurrentLap"|""|0|0|10,"Distance"|"km"|0.0|0.0|10,"SessionTime"|"Min"|0.0|0.0|10
448464,1564150051466,-0,2.47,1.0,0.32,1.46,1.12,0.91,-0.29,0.67,20,-5,26,0.96,10515,18,95,44,41,793,640.0,641,471,60,121.0,156,1,335,219,100,0,0,590,-30139,30721,640,-5.59,,,,,,,,,,,,
448484,1564150051486,1,2.48,1.0,0.33,1.46,1.12,0.84,-0.13,0.4,20,-6,30,0.85,10451,15,95,44,39,793,635.0,651,466,60,122.0,156,1,320,213,100,0,0,562,-23055,19304,632,-5.59,,,,,,,,,,,,
448504,1564150051506,-1,2.48,1.0,0.33,1.46,1.12,0.81,-0.01,0.17,20,-4,33,0.81,10557,13,95,44,37,793,632.0,650,468,60,122.0,134,1,314,213,85,0,0,565,243,17740,632,-5.59,,,,,,,,,,,,
448524,1564150051526,1,2.47,1.0,0.32,1.46,1.12,0.83,0.15,-0.02,21,-5,33,0.85,10515,13,95,44,36,807,629.0,643,471,60,122.0,134,1,311,213,85,0,0,539,243,17740,631,-5.59,,,,,,,,,,,,
448544,1564150051546,1,2.46,1.0,0.32,1.47,1.12,0.85,0.3,-0.18,21,-8,34,0.9,10575,13,95,44,35,821,628.0,647,472,60,123.0,134,1,308,213,85,0,0,545,17344,5344,628,-5.59,44.681362,10.024981,62.18,176.6,0,0.0,-1,0.0,0.0,0,3.27,7.4757
448564,1564150051566,2,2.46,1.0,0.33,1.46,1.13,0.78,0.38,-0.37,22,-4,35,0.87,10533,13,95,43,34,834,623.0,639,468,60,123.0,134,1,305,214,85,0,0,526,-28648,-23055,623,-5.59,,,,,,,,,,,,
448584,1564150051586,1,2.47,1.0,0.32,1.47,1.13,0.76,0.42,-0.53,23,-4,38,0.87,10563,13,95,43,33,848,623.0,637,463,60,123.0,134,1,302,214,85,0,0,517,2048,19621,623,-5.59,,,,,,,,,,,,
448604,1564150051606,0,2.47,1.0,0.33,1.46,1.13,0.72,0.41,-0.6,22,-7,39,0.83,10480,13,95,43,33,853,618.0,640,467,60,123.0,135,1,302,213,84,0,0,499,208,-30139,619,-5.59,,,,,,,,,,,,
448624,1564150051626,0,2.47,1.0,0.33,1.46,1.12,0.72,0.49,-0.74,22,-6,39,0.87,10434,13,95,43,33,858,618.0,650,472,60,122.0,135,1,302,212,84,0,0,503,-1894,16529,618,-5.59,,,,,,,,,,,,
448644,1564150051646,1,2.46,1.0,0.33,1.46,1.12,0.71,0.54,-0.86,23,-6,40,0.9,10307,13,95,43,32,853,614.0,623,466,60,122.0,135,1,300,210,84,0,0,535,-25872,19621,614,-5.59,44.681354,10.024996,61.26,176.6,0,0.0,-1,0.0,0.0,0,3.27,7.4774
448664,1564150051666,1,2.46,1.0,0.32,1.47,1.12,0.71,0.62,-0.98,23,-7,40,0.94,10319,13,95,43,32,844,610.0,610,466,60,123.0,135,1,300,210,84,0,0,550,-16384,208,610,-5.59,,,,,,,,,,,,
448684,1564150051686,1,2.46,1.0,0.33,1.46,1.13,0.78,0.52,-0.82,23,-5,38,0.94,10268,13,95,43,32,838,604.0,595,468,60,122.0,135,1,300,209,84,0,0,540,1,-4035,605,-5.59,,,,,,,,,,,,
448704,1564150051706,2,2.46,1.0,0.32,1.47,1.12,0.9,0.27,-0.54,22,-5,36,0.94,10268,13,95,43,31,832,602.0,606,472,60,122.0,135,1,295,206,84,0,0,530,774,10432,602,-5.59,,,,,,,,,,,,
448724,1564150051726,2,2.46,1.0,0.32,1.46,1.12,0.95,0.04,-0.29,21,-4,35,0.95,10307,13,95,43,31,833,601.0,570,463,60,123.0,134,1,295,208,81,0,0,504,1267,15649,604,-5.59,,,,,,,,,,,,
448744,1564150051746,2,2.45,1.0,0.32,1.47,1.12,0.97,-0.16,-0.11,20,-0,33,0.98,10184,13,95,43,31,836,596.0,526,469,60,122.0,134,1,295,204,81,0,0,494,1267,-25872,596,-5.59,44.681343,10.025011,59.56,176.6,0,0.0,-1,0.0,0.0,0,3.27,7.4791
448764,1564150051766,1,2.46,1.0,0.33,1.46,1.13,0.95,-0.05,-0.22,21,-3,34,0.95,10124,13,95,43,30,843,596.0,461,466,60,122.0,134,1,291,203,81,0,0,516,-3190,259,596,-5.59,,,,,,,,,,,,
448784,1564150051786,2,2.46,1.0,0.32,1.46,1.12,0.97,0.02,-0.32,21,-2,34,0.97,10016,13,95,43,31,851,593.0,536,475,60,120.0,134,1,295,202,81,0,0,536,-18032,-8188,593,-5.59,,,,,,,,,,,,
448804,1564150051807,1,2.46,1.0,0.32,1.46,1.12,1.08,-0.18,-0.09,21,-3,29,1.09,9962,13,95,43,30,858,586.0,573,469,60,123.0,126,1,291,198,74,0,0,541,6273,-16384,586,-5.59,,,,,,,,,,,,
448824,1564150051827,1,2.46,0.99,0.32,1.46,1.12,0.96,-0.26,-0.1,21,-6,30,1.0,10026,13,95,43,30,863,585.0,620,473,60,122.0,126,1,291,199,74,0,0,532,-22359,-8188,585,-5.59,,,,,,,,,,,,
448844,1564150051847,3,2.45,1.0,0.32,1.47,1.12,1.07,-0.13,-0.26,20,-3,32,1.08,10005,12,95,43,30,877,580.0,623,476,60,122.0,126,1,291,199,74,0,0,514,-22359,-8186,580,-5.59,44.681332,10.025025,58.2,176.6,0,0.0,-1,0.0,0.0,0,3.28,7.4807
448864,1564150051867,2,2.45,0.99,0.32,1.46,1.12,1.11,-0.31,-0.04,19,-4,31,1.15,9941,13,95,43,29,896,577.0,627,471,60,123.0,126,1,287,195,74,0,0,501,-28648,1267,579,-5.59,,,,,,,,,,,,
448884,1564150051887,0,2.44,1.0,0.32,1.46,1.1,1.04,-0.23,-0.1,19,-4,31,1.06,9936,13,95,43,29,912,574.0,633,470,60,122.0,126,1,287,195,74,0,0,503,-32248,6273,574,-5.59,,,,,,,,,,,,
448904,1564150051907,2,2.45,1.0,0.33,1.46,1.13,1.14,-0.22,-0.02,18,-4,30,1.16,9904,12,95,43,29,925,571.0,638,471,60,123.0,126,1,287,195,74,0,0,511,2104,-28648,571,-5.59,,,,,,,,,,,,
448924,1564150051927,-0,2.45,1.0,0.33,1.46,1.13,1.13,-0.39,0.18,18,-4,28,1.19,9832,13,95,43,29,947,568.0,640,472,60,122.0,126,1,287,194,72,0,0,509,-22519,-28648,571,-5.59,,,,,,,,,,,,
448944,1564150051947,3,2.45,1.0,0.32,1.46,1.12,1.22,-0.27,0.01,17,-4,29,1.25,9863,12,95,43,28,978,565.0,633,475,60,122.0,126,1,282,192,72,0,0,523,1779,-28648,565,-5.59,44.68132,10.025037,56.96,176.6,0,0.0,-1,0.0,0.0,0,3.28,7.4824
448964,1564150051967,1,2.44,1.0,0.32,1.46,1.12,1.23,-0.44,0.2,17,-3,27,1.31,9873,13,95,43,28,1004,561.0,632,471,60,122.0,126,1,282,192,72,0,0,527,-8186,-2336,558,-5.59,,,,,,,,,,,,
448984,1564150051987,1,2.45,0.99,0.33,1.46,1.11,1.17,-0.32,-0.02,18,-2,26,1.22,9816,12,95,43,28,1022,556.0,638,476,60,121.0,126,1,282,192,72,0,0,522,6274,-30064,558,-5.59,,,,,,,,,,,,
449004,1564150051999,2,2.45,0.99,0.32,1.46,1.12,1.26,-0.49,0.15,17,-1,25,1.35,9806,12,95,43,27,1045,554.0,636,467,60,122.0,126,1,278,189,70,0,0,515,-22519,-8186,554,-5.59,,,,,,,,,,,,
449024,1564150052019,-1,2.46,0.99,0.32,1.45,1.11,1.13,-0.47,0.1,17,-1,26,1.23,9842,12,95,43,28,1076,551.0,648,465,60,122.0,126,1,282,191,70,0,0,515,-28648,2104,551,-5.59,,,,,,,,,,,,
449044,1564150052039,2,2.46,0.99,0.32,1.46,1.11,1.12,-0.54,0.08,17,-2,24,1.25,9816,12,95,43,28,1101,546.0,637,468,60,123.0,126,1,282,191,70,0,0,515,2088,-28648,549,-5.59,44.681309,10.025048,55.13,176.6,0,0.0,-1,0.0,0.0,0,3.28,7.4841
449064,1564150052059,1,2.45,1.0,0.33,1.47,1.12,0.99,-0.55,0.05,17,0,24,1.13,9725,12,95,43,28,1113,546.0,640,466,60,122.0,126,1,282,191,70,0,0,508,10408,2104,546,-5.59,,,,,,,,,,,,
449084,1564150052079,2,2.45,1.0,0.33,1.47,1.12,1.1,-0.55,0.01,17,-0,24,1.23,9669,12,95,43,28,1117,544.0,639,469,60,122.0,126,1,282,190,70,0,0,516,1341,-28648,544,-5.59,,,,,,,,,,,,
449104,1564150052107,2,2.46,1.0,0.32,1.46,1.12,1.0,-0.45,0.08,17,-0,24,1.1,9664,13,95,43,28,1095,542.0,633,475,60,122.0,127,1,282,190,69,0,0,502,1248,6274,542,-5.59,,,,,,,,,,,,
449124,1564150052127,1,2.46,1.0,0.32,1.46,1.12,1.1,-0.6,0.19,17,2,23,1.25,9640,12,95,43,28,1071,540.0,631,466,60,122.0,127,1,282,190,69,0,0,505,-14,10408,540,-5.59,,,,,,,,,,,,
449144,1564150052147,2,2.46,1.0,0.33,1.45,1.13,1.03,-0.54,0.09,17,-1,24,1.16,9546,12,95,44,28,1038,536.0,643,468,60,121.0,127,1,282,188,69,0,0,505,-3482,-9212,537,-5.59,44.681297,10.025058,53.81,176.6,0,0.0,-1,0.0,0.0,0,3.28,7.4857
449164,1564150052167,0,2.45,1.0,0.32,1.46,1.12,1.02,-0.53,0.21,17,2,22,1.15,9498,12,95,44,28,1006,534.0,630,470,60,122.0,127,1,282,187,69,0,0,502,-3856,6274,532,-5.59,,,,,,,,,,,,
449184,1564150052187,2,2.46,0.99,0.33,1.46,1.12,1.07,-0.59,0.2,17,1,23,1.22,9464,12,95,44,28,977,533.0,622,469,60,123.0,127,1,282,187,69,0,0,490,-3414,15679,530,-5.59,,,,,,,,,,,,
449204,1564150052207,3,2.45,1.0,0.33,1.46,1.12,1.13,-0.48,0.12,16,1,24,1.23,9474,13,95,44,28,948,528.0,627,465,60,122.0,126,1,282,187,67,0,0,494,-21872,2524,528,-5.59,,,,,,,,,,,,
449224,1564150052227,-0,2.47,0.99,0.32,1.46,1.12,1.12,-0.52,0.24,16,1,24,1.23,9436,12,95,44,29,952,525.0,636,467,60,123.0,126,1,287,188,67,0,0,492,-32248,-14,525,-5.59,,,,,,,,,,,,
449244,1564150052247,1,2.46,1.0,0.33,1.46,1.13,1.08,-0.62,0.24,16,-0,23,1.24,9389,12,95,44,28,955,522.0,633,467,60,123.0,126,1,282,187,67,0,0,488,-22519,-4054,522,-5.59,44.681286,10.025066,52.14,176.6,0,0.0,-1,0.0,0.0,0,3.28,7.4874
449264,1564150052267,0,2.46,1.0,0.32,1.46,1.12,1.06,-0.62,0.24,16,0,23,1.23,9375,13,95,44,28,959,521.0,636,472,60,123.0,126,1,282,187,67,0,0,488,-22519,16383,521,-5.59,,,,,,,,,,,,
449284,1564150052287,1,2.46,1.0,0.33,1.46,1.13,1.16,-0.57,0.2,16,0,24,1.29,9282,13,95,44,28,962,518.0,636,473,60,123.0,126,1,282,186,67,0,0,487,-9216,-32248,518,-5.59,,,,,,,,,,,,
449304,1564150052307,3,2.46,0.99,0.32,1.46,1.12,1.13,-0.49,0.28,16,0,24,1.23,9222,12,95,44,29,962,518.0,637,471,60,122.0,126,1,287,186,67,0,0,483,-6528,-21872,518,-5.59,,,,,,,,,,,,
449324,1564150052327,-2,2.46,1.0,0.33,1.46,1.12,1.15,-0.54,0.36,16,-2,23,1.27,9177,13,95,44,29,961,513.0,617,463,60,123.0,125,1,287,185,65,0,0,482,-1818,-32248,513,-5.59,,,,,,,,,,,,
449344,1564150052347,-1,2.47,0.99,0.33,1.46,1.12,0.96,-0.64,0.35,16,1,23,1.16,9164,13,95,44,28,960,512.0,621,462,60,122.0,125,1,282,185,65,0,0,480,-6656,3,511,-5.59,44.681274,10.025075,51.22,176.6,0,0.0,-1,0.0,0.0,0,3.28,7.4891
449364,1564150052367,2,2.47,0.99,0.33,1.46,1.12,0.89,-0.74,0.32,16,1,22,1.16,9164,12,95,44,28,958,511.0,613,470,60,123.0,125,1,282,185,65,0,0,479,-1562,771,510,-5.59,,,,,,,,,,,,
449384,1564150052387,1,2.46,0.99,0.32,1.46,1.12,0.88,-0.85,0.26,16,3,22,1.22,9155,13,95,44,27,957,506.0,609,471,60,123.0,125,1,278,184,65,0,0,480,-10483,-28648,509,-5.59,,,,,,,,,,,,
449404,1564150052407,2,2.46,0.99,0.32,1.46,1.12,0.97,-0.79,0.18,16,3,22,1.25,9150,12,95,44,27,956,504.0,614,476,60,122.0,125,1,278,184,65,0,0,478,3580,-9216,505,-5.59,,,,,,,,,,,,
449424,1564150052427,1,2.46,0.99,0.32,1.46,1.12,1.07,-0.71,0.2,16,2,22,1.28,9195,13,95,44,26,949,503.0,617,470,60,121.0,125,1,274,184,63,0,0,478,32033,2524,502,-5.59,,,,,,,,,,,,
449444,1564150052447,3,2.46,0.99,0.32,1.46,1.12,1.17,-0.57,0.21,16,0,22,1.3,9159,13,95,44,26,942,502.0,618,470,60,121.0,125,1,274,184,63,0,0,478,2212,3,502,-5.59,44.681263,10.025082,49.76,176.6,0,0.0,-1,0.0,0.0,0,3.29,7.4907
449464,1564150052467,3,2.45,1.0,0.32,1.46,1.12,1.25,-0.41,0.27,16,-2,23,1.32,9101,13,95,44,25,936,500.0,629,467,60,121.0,125,1,270,184,63,0,0,479,16648,998,500,-5.59,,,,,,,,,,,,
449484,1564150052487,3,2.46,1.0,0.32,1.47,1.12,1.21,-0.34,0.36,16,-2,23,1.26,9066,13,95,44,25,930,499.0,627,461,60,122.0,125,1,270,184,63,0,0,472,-17956,-32768,499,-5.59,,,,,,,,,,,,
449504,1564150052507,2,2.46,1.0,0.33,1.46,1.12,1.23,-0.23,0.44,16,-4,23,1.25,9005,13,95,44,25,914,498.0,620,468,60,121.0,125,1,270,184,63,0,0,473,-9203,771,498,-5.59,,,,,,,,,,,,
449524,1564150052527,2,2.45,1.0,0.33,1.46,1.12,1.2,-0.16,0.59,16,-3,24,1.21,8971,13,95,44,25,897,496.0,620,467,60,121.0,124,1,270,184,62,0,0,476,3576,1,497,-5.59,,,,,,,,,,,,
449544,1564150052547,1,2.47,0.99,0.32,1.46,1.13,1.22,-0.06,0.71,16,-5,24,1.22,8937,13,95,44,25,884,495.0,610,468,60,122.0,124,1,270,184,62,0,0,467,3576,-6441,495,-5.59,44.681252,10.025087,48.76,176.6,0,0.0,-1,0.0,0.0,0,3.29,7.4924
449564,1564150052567,3,2.46,1.0,0.33,1.46,1.13,1.26,0.01,0.77,16,-5,23,1.26,8898,13,95,44,25,873,491.0,614,465,60,121.0,124,1,270,184,62,0,0,467,32033,1,491,-5.59,,,,,,,,,,,,
449584,1564150052587,2,2.46,1.0,0.33,1.46,1.13,1.34,0.1,0.82,16,-7,23,1.34,8873,13,95,44,26,864,491.0,600,469,60,122.0,124,1,274,184,62,0,0,469,10432,3580,491,-5.59,,,,,,,,,,,,
449604,1564150052607,1,2.46,0.99,0.33,1.46,1.12,1.41,0.06,0.81,16,-7,24,1.41,8819,13,95,44,25,856,490.0,603,471,60,122.0,124,1,270,110,62,0,0,465,-3210,3580,491,-5.59,,,,,,,,,,,,
449624,1564150052627,1,2.46,0.99,0.32,1.47,1.12,1.47,-0.08,0.74,15,-7,23,1.47,8798,13,95,44,26,855,487.0,600,471,60,122.0,124,1,274,184,61,0,0,461,243,1,489,-5.59,,,,,,,,,,,,
449644,1564150052647,0,2.46,1.0,0.33,1.46,1.13,1.44,-0.23,0.6,14,-5,24,1.46,8790,13,95,44,26,858,486.0,607,467,60,122.0,124,1,274,184,61,0,0,463,30272,3580,486,-5.59,44.68124,10.025092,47.94,176.7,0,0.0,-1,0.0,0.0,0,3.29,7.4941
449664,1564150052667,-1,2.46,1.0,0.33,1.45,1.12,1.34,-0.4,0.44,15,-3,23,1.39,8765,13,95,44,26,865,483.0,604,469,60,122.0,124,1,274,184,61,0,0,463,6193,32033,483,-5.59,,,,,,,,,,,,
449684,1564150052687,3,2.46,1.0,0.33,1.46,1.12,1.17,-0.41,0.44,15,-2,23,1.24,8733,13,95,44,26,875,483.0,612,467,60,122.0,124,1,274,184,61,0,0,457,6193,-17956,483,-5.59,,,,,,,,,,,,
449704,1564150052705,1,2.47,1.0,0.33,1.46,1.12,1.1,-0.31,0.43,16,-0,22,1.14,8704,13,95,44,26,882,483.0,615,467,60,122.0,124,1,274,184,61,0,0,459,2211,10305,483,-5.59,,,,,,,,,,,,
449724,1564150052725,0,2.46,1.0,0.33,1.47,1.13,1.19,-0.19,0.58,16,-1,22,1.2,8676,14,95,44,26,888,480.0,620,466,60,122.0,124,1,274,184,60,0,0,458,14488,-23367,480,-5.59,,,,,,,,,,,,
449744,1564150052745,1,2.46,1.0,0.32,1.46,1.12,1.27,-0.23,0.65,16,-2,21,1.29,8708,14,95,44,26,894,478.0,596,472,60,123.0,124,1,274,184,60,0,0,451,-26615,-1923,478,-5.59,44.681229,10.025096,47.3,176.7,0,0.0,-1,0.0,0.0,0,3.29,7.4957
449764,1564150052765,-1,2.46,1.0,0.32,1.47,1.12,1.22,-0.41,0.6,16,-1,21,1.29,8672,14,95,44,27,900,476.0,599,468,60,123.0,124,1,278,184,60,0,0,457,-26615,32033,476,-5.59,,,,,,,,,,,,
449784,1564150052785,3,2.45,1.0,0.33,1.47,1.12,1.08,-0.49,0.41,15,-0,22,1.19,8644,14,95,44,27,903,473.0,592,466,60,121.0,124,1,278,184,60,0,0,454,2524,-9203,473,-5.59,,,,,,,,,,,,
449804,1564150052806,2,2.46,1.0,0.33,1.46,1.12,1.11,-0.37,0.45,16,-1,22,1.17,8604,14,95,44,27,903,474.0,585,470,60,122.0,124,1,278,184,60,0,0,450,-8985,-1923,474,-5.59,,,,,,,,,,,,
449824,1564150052826,1,2.47,1.0,0.33,1.47,1.12,1.17,-0.32,0.49,16,0,22,1.21,8553,14,95,44,27,900,472.0,595,468,60,123.0,126,1,278,184,60,0,0,449,15649,10432,473,-5.59,,,,,,,,,,,,
449844,1564150052846,0,2.46,1.0,0.33,1.46,1.12,1.06,-0.48,0.45,15,0,22,1.17,8534,15,95,44,28,896,473.0,591,466,60,121.0,126,1,282,184,60,0,0,450,15649,-16384,473,-5.59,44.681217,10.0251,46.61,176.7,0,0.0,-1,0.0,0.0,0,3.29,7.4974
449864,1564150052866,2,2.45,1.0,0.33,1.46,1.12,1.06,-0.48,0.37,16,-1,21,1.16,8499,15,95,44,28,891,472.0,596,467,60,122.0,126,1,282,183,60,0,0,447,10305,-9160,472,-5.59,,,,,,,,,,,,
449884,1564150052886,1,2.46,1.0,0.33,1.47,1.12,1.15,-0.39,0.53,16,0,21,1.21,8488,15,95,44,28,887,467.0,586,471,60,122.0,126,1,282,183,60,0,0,444,16648,243,467,-5.59,,,,,,,,,,,,
449904,1564150052906,3,2.46,0.99,0.33,1.46,1.12,0.98,-0.52,0.42,16,1,21,1.11,8476,15,95,44,28,882,468.0,587,468,60,123.0,123,1,282,182,58,0,0,442,16648,16408,468,-5.59,,,,,,,,,,,,
449924,1564150052926,2,2.46,1.0,0.33,1.45,1.12,1.06,-0.49,0.41,15,0,22,1.17,8472,15,95,44,28,876,466.0,590,469,60,122.0,123,1,282,180,58,0,0,441,2131,2211,464,-5.59,,,,,,,,,,,,
449944,1564150052946,0,2.46,1.0,0.32,1.46,1.12,1.14,-0.45,0.5,15,1,21,1.22,8430,15,95,44,28,871,464.0,591,468,60,122.0,123,1,282,179,58,0,0,440,21432,12552,464,-5.59,44.681202,10.025102,45.94,176.7,0,0.0,-1,0.0,0.0,0,3.29,7.4991
449964,1564150052966,3,2.46,1.0,0.33,1.45,1.12,0.96,-0.48,0.32,16,1,22,1.08,8419,16,94,44,29,870,462.0,601,467,60,121.0,123,1,286,179,58,0,0,441,26704,-9160,464,-5.59,,,,,,,,,,,,
449984,1564150052986,1,2.46,1.0,0.32,1.46,1.12,1.07,-0.41,0.4,16,1,22,1.15,8400,16,95,44,29,869,463.0,593,470,60,122.0,123,1,286,180,58,0,0,440,23400,17628,463,-5.59,,,,,,,,,,,,
450004,1564150053000,-0,2.46,1.0,0.32,1.47,1.12,1.02,-0.44,0.48,16,3,21,1.11,8396,16,95,44,29,867,462.0,586,469,60,122.0,121,1,285,178,56,0,0,440,-28332,-9160,462,-5.59,,,,,,,,,,,,
450024,1564150053020,2,2.45,0.99,0.32,1.46,1.12,1.06,-0.4,0.41,16,1,22,1.13,8370,16,95,44,30,867,460.0,586,467,60,121.0,121,1,289,177,56,0,0,439,-28332,-18108,460,-5.59,,,,,,,,,,,,
450044,1564150053040,-0,2.46,1.0,0.32,1.45,1.12,1.07,-0.41,0.47,15,2,21,1.14,8325,16,95,44,30,867,458.0,577,467,60,122.0,121,1,288,175,56,0,0,433,-28332,-9160,458,-5.59,44.681194,10.025104,45.1,176.7,0,0.0,-1,0.0,0.0,0,3.29,7.5007
450064,1564150053060,3,2.45,1.0,0.32,1.46,1.12,0.95,-0.47,0.41,16,3,22,1.06,8278,16,94,44,30,868,456.0,577,466,60,122.0,121,1,287,174,56,0,0,434,-7939,17628,459,-5.59,,,,,,,,,,,,
450084,1564150053080,1,2.46,1.0,0.32,1.47,1.12,1.02,-0.43,0.56,16,3,21,1.11,8311,16,95,44,30,869,456.0,573,472,60,123.0,121,1,288,175,56,0,0,434,-7939,-26615,456,-5.59,,,,,,,,,,,,
450104,1564150053106,3,2.45,0.99,0.33,1.46,1.12,0.9,-0.5,0.46,16,2,20,1.03,8285,16,94,44,31,871,455.0,582,470,60,122.0,121,1,291,174,56,0,0,435,-768,-8985,456,-5.59,,,,,,,,,,,,
450124,1564150053126,0,2.47,0.99,0.32,1.46,1.12,1.01,-0.51,0.57,16,3,21,1.13,8241,16,95,45,31,871,456.0,578,466,60,123.0,120,1,290,173,55,0,0,433,-768,-8985,456,-5.59,,,,,,,,,,,,
450144,1564150053146,3,2.46,1.0,0.33,1.46,1.12,0.88,-0.5,0.46,16,4,20,1.01,8227,17,94,45,31,873,455.0,585,468,60,123.0,120,1,290,173,55,0,0,431,1779,-3267,453,-5.59,44.681183,10.025105,44.42,176.7,0,0.0,-1,0.0,0.0,0,3.29,7.5024
450164,1564150053166,-1,2.46,0.99,0.33,1.46,1.12,0.99,-0.46,0.55,15,3,21,1.09,8259,17,95,45,32,875,452.0,585,468,60,123.0,120,1,295,174,55,0,0,434,-3314,8488,452,-5.59,,,,,,,,,,,,
450184,1564150053186,3,2.46,1.0,0.32,1.45,1.12,0.88,-0.47,0.4,15,2,22,1.0,8252,17,94,45,32,877,451.0,586,471,60,122.0,120,1,295,175,55,0,0,428,1779,15649,450,-5.59,,,,,,,,,,,,
450204,1564150053206,0,2.46,1.0,0.32,1.46,1.12,0.97,-0.45,0.46,16,1,21,1.07,8212,17,95,45,32,878,449.0,581,468,60,122.0,120,1,294,173,55,0,0,429,3635,16648,449,-5.59,,,,,,,,,,,,
450224,1564150053226,2,2.47,0.99,0.32,1.46,1.12,0.87,-0.45,0.4,16,1,21,0.98,8184,17,94,45,32,879,449.0,595,468,60,122.0,118,1,293,172,53,0,0,428,13180,-3267,448,-5.59,,,,,,,,,,,,
450244,1564150053246,-1,2.47,0.99,0.32,1.46,1.12,0.89,-0.42,0.47,16,2,21,0.98,8187,17,95,45,32,882,450.0,582,469,60,123.0,118,1,293,172,53,0,0,427,31796,8488,450,-5.59,44.681171,10.025105,43.97,176.7,0,0.0,-1,0.0,0.0,0,3.3,7.5041
450264,1564150053266,2,2.46,0.99,0.32,1.46,1.11,0.86,-0.43,0.45,16,1,21,0.96,8148,17,95,45,32,885,446.0,582,469,60,122.0,118,1,292,175,53,0,0,425,13552,16648,449,-5.59,,,,,,,,,,,,
450284,1564150053286,0,2.46,0.99,0.33,1.46,1.11,0.81,-0.44,0.41,17,3,21,0.92,8106,17,95,45,32,886,447.0,586,466,60,123.0,118,1,292,169,53,0,0,422,-4082,20625,447,-5.59,,,,,,,,,,,,
450304,1564150053308,1,2.47,0.99,0.32,1.47,1.12,0.93,-0.41,0.44,16,1,21,1.02,8064,17,94,45,33,888,446.0,573,468,60,122.0,118,1,293,173,53,0,0,425,-4082,-6387,446,-5.59,,,,,,,,,,,,
450324,1564150053328,3,2.47,1.0,0.33,1.46,1.12,0.81,-0.41,0.35,17,1,20,0.91,8085,17,94,45,33,892,445.0,565,468,60,122.0,118,1,293,173,53,0,0,422,-4082,21432,444,-5.59,,,,,,,,,,,,
450344,1564150053348,0,2.47,1.0,0.32,1.46,1.12,0.93,-0.4,0.38,17,2,21,1.02,8040,17,95,45,33,897,444.0,563,470,60,122.0,118,1,292,171,53,0,0,423,-3414,21432,444,-5.59,44.681164,10.025104,43.63,176.7,0,0.0,-1,0.0,0.0,0,3.3,7.5057
450364,1564150053368,-0,2.48,0.99,0.33,1.46,1.12,0.96,-0.37,0.35,16,-0,21,1.03,8040,17,94,45,34,901,443.0,575,469,60,121.0,118,1,295,177,53,0,0,421,-21792,5600,443,-5.59,,,,,,,,,,,,
450384,1564150053388,2,2.48,0.99,0.33,1.46,1.12,0.86,-0.39,0.32,17,1,22,0.95,8047,17,95,45,33,904,443.0,574,467,60,123.0,118,1,292,176,53,0,0,419,7154,-18341,443,-5.59,,,,,,,,,,,,
450404,1564150053406,0,2.47,1.0,0.33,1.47,1.12,0.98,-0.36,0.37,17,1,23,1.04,8002,17,95,45,34,907,443.0,579,469,60,123.0,118,1,295,176,53,0,0,420,-8165,21432,443,-5.59,,,,,,,,,,,,
450424,1564150053426,1,2.48,0.99,0.32,1.46,1.12,0.99,-0.38,0.4,16,-1,21,1.06,7992,17,94,45,34,912,441.0,587,466,60,121.0,119,1,295,175,53,0,0,419,-3414,-28332,441,-5.59,,,,,,,,,,,,
450444,1564150053446,1,2.48,1.0,0.33,1.46,1.12,0.89,-0.41,0.37,16,1,22,0.98,8012,17,94,45,34,914,441.0,585,465,60,122.0,119,1,295,176,53,0,0,416,-3414,-18341,441,-5.59,44.681148,10.025103,43.28,176.7,0,0.0,-1,0.0,0.0,0,3.3,7.5074
450464,1564150053466,-0,2.48,0.99,0.33,1.46,1.12,1.0,-0.41,0.43,16,1,24,1.09,7978,17,95,45,35,916,441.0,571,470,60,123.0,119,1,298,175,53,0,0,415,-3414,-3322,438,-5.59,,,,,,,,,,,,
450484,1564150053486,1,2.48,1.0,0.33,1.46,1.12,1.0,-0.47,0.49,16,-0,22,1.1,7971,17,95,45,34,917,438.0,575,468,60,121.0,119,1,295,176,53,0,0,412,2524,-28332,438,-5.59,,,,,,,,,,,,
450504,1564150053508,3,2.47,1.0,0.32,1.47,1.12,0.9,-0.47,0.42,16,1,22,1.02,7988,17,95,45,34,918,437.0,570,467,60,123.0,123,1,295,181,54,0,0,413,-26615,21580,437,-5.59,,,,,,,,,,,,
450524,1564150053528,-0,2.48,0.99,0.32,1.46,1.12,1.01,-0.48,0.45,16,1,24,1.12,7934,17,95,45,35,918,437.0,565,468,60,124.0,123,1,298,181,54,0,0,414,13040,-768,439,-5.59,,,,,,,,,,,,
450544,1564150053548,1,2.47,1.0,0.33,1.46,1.12,1.09,-0.47,0.47,15,-1,22,1.19,7901,17,94,45,35,917,436.0,562,470,60,123.0,123,1,298,181,54,0,0,415,13040,5600,436,-5.59,44.681141,10.0251,42.76,176.7,0,0.0,-1,0.0,0.0,0,3.3,7.5091
450564,1564150053568,1,2.48,0.99,0.33,1.46,1.12,0.94,-0.45,0.39,16,-0,23,1.05,7921,17,94,45,35,918,436.0,565,467,60,123.0,123,1,298,181,54,0,0,415,9517,5600,435,-5.59,,,,,,,,,,,,
450584,1564150053588,2,2.48,1.0,0.33,1.47,1.11,0.93,-0.43,0.37,16,2,24,1.02,7871,17,95,45,35,919,435.0,552,467,60,123.0,123,1,298,181,54,0,0,414,-9166,5600,435,-5.59,,,,,,,,,,,,
450604,1564150053608,0,2.47,1.0,0.32,1.47,1.12,1.04,-0.41,0.43,16,0,22,1.12,7888,17,95,45,35,921,433.0,561,469,60,123.0,123,1,298,181,54,0,0,411,-4059,243,433,-5.59,,,,,,,,,,,,
450624,1564150053628,-0,2.47,0.99,0.33,1.46,1.12,1.04,-0.46,0.45,16,-0,22,1.14,7888,17,94,45,36,922,433.0,561,468,60,123.0,124,1,301,187,54,0,0,411,9517,5600,433,-5.59,,,,,,,,,,,,
450644,1564150053648,2,2.48,0.99,0.32,1.46,1.12,0.9,-0.44,0.39,16,0,25,1.0,7851,17,94,45,36,925,434.0,567,468,60,123.0,124,1,301,187,54,0,0,409,10392,3635,434,-5.59,44.681129,10.025098,42.27,176.7,0,0.0,-1,0.0,0.0,0,3.3,7.5107
450664,1564150053668,3,2.47,1.0,0.32,1.46,1.12,0.82,-0.41,0.49,17,2,22,0.91,7871,17,94,45,36,928,434.0,574,467,60,123.0,124,1,301,187,54,0,0,410,11560,13180,434,-5.59,,,,,,,,,,,,
450684,1564150053688,-1,2.47,1.0,0.32,1.46,1.12,0.92,-0.48,0.52,17,3,21,1.03,7812,17,94,45,36,930,432.0,566,471,60,123.0,124,1,301,187,54,0,0,410,-4059,-3322,430,-5.59,,,,,,,,,,,,
450704,1564150053708,1,2.47,1.0,0.33,1.46,1.13,0.98,-0.5,0.52,17,2,24,1.1,7835,17,95,45,36,931,431.0,574,468,60,122.0,124,1,301,187,54,0,0,403,-26615,31796,431,-5.59,,,,,,,,,,,,
450724,1564150053728,1,2.48,0.99,0.33,1.46,1.12,0.91,-0.47,0.52,17,1,23,1.03,7789,17,94,45,36,930,430.0,577,468,60,122.0,127,1,301,113,55,0,0,407,2524,-3314,430,-5.59,,,,,,,,,,,,
450744,1564150053748,3,2.47,1.0,0.32,1.47,1.12,0.77,-0.48,0.5,17,1,21,0.9,7783,17,94,45,36,928,429.0,570,467,60,123.0,127,1,301,187,55,0,0,406,-26615,3635,429,-5.59,44.681118,10.025095,41.75,176.7,0,0.0,-1,0.0,0.0,0,3.3,7.5124
450764,1564150053768,3,2.46,0.99,0.32,1.47,1.12,0.79,-0.51,0.43,17,3,23,0.94,7786,17,95,45,36,925,428.0,562,468,60,123.0,127,1,301,187,55,0,0,409,-26615,3635,427,-5.59,,,,,,,,,,,,
450784,1564150053788,-1,2.47,0.99,0.32,1.46,1.11,0.91,-0.45,0.49,16,2,24,1.02,7767,17,95,45,36,920,428.0,556,467,60,123.0,127,1,301,187,55,0,0,400,-26615,-3414,428,-5.59,,,,,,,,,,,,
450804,1564150053807,1,2.47,1.0,0.33,1.47,1.12,1.02,-0.43,0.57,16,-0,21,1.11,7763,17,94,45,37,917,429.0,556,465,60,122.0,128,1,304,187,55,0,0,406,2524,-8165,429,-5.59,,,,,,,,,,,,
450824,1564150053827,2,2.47,1.0,0.32,1.47,1.12,0.98,-0.41,0.53,16,0,22,1.07,7793,17,95,45,37,916,424.0,547,468,60,122.0,128,1,304,187,55,0,0,403,2524,13180,427,-5.59,,,,,,,,,,,,
450844,1564150053847,2,2.47,0.99,0.32,1.46,1.12,0.84,-0.4,0.45,17,1,23,0.93,7754,18,94,45,37,916,426.0,571,470,60,122.0,128,1,304,193,55,0,0,404,1504,-3856,426,-5.59,44.681107,10.025089,41.75,176.6,0,0.0,-1,0.0,0.0,0,3.3,7.5141
450864,1564150053867,3,2.47,0.99,0.31,1.46,1.12,0.71,-0.41,0.46,17,2,21,0.82,7760,18,94,45,37,919,424.0,560,468,60,123.0,128,1,304,193,55,0,0,403,10541,3826,424,-5.59,,,,,,,,,,,,
450884,1564150053887,0,2.47,1.0,0.32,1.47,1.11,0.73,-0.46,0.42,17,3,21,0.87,7738,18,95,45,37,922,423.0,552,468,60,123.0,128,1,304,193,55,0,0,405,11545,3826,423,-5.59,,,,,,,,,,,,
450904,1564150053907,-1,2.46,0.99,0.33,1.46,1.12,0.86,-0.46,0.42,16,2,23,0.98,7757,18,94,45,37,924,422.0,567,468,60,123.0,132,1,304,193,56,0,0,405,10541,-21792,422,-5.59,,,,,,,,,,,,
450924,1564150053927,0,2.47,1.0,0.33,1.45,1.12,0.96,-0.39,0.51,16,1,22,1.04,7719,18,94,45,37,927,422.0,561,468,60,123.0,132,1,304,193,56,0,0,403,11545,-21792,422,-5.59,,,,,,,,,,,,
450944,1564150053947,1,2.46,1.0,0.33,1.46,1.12,0.94,-0.42,0.52,16,-0,20,1.03,7719,18,94,45,37,926,423.0,583,469,60,122.0,132,1,304,193,56,0,0,403,11545,3826,423,-5.59,44.681099,10.025084,41.18,176.6,0,0.0,-1,0.0,0.0,0,3.3,7.5157
450964,1564150053967,0,2.46,0.99,0.33,1.45,1.12,0.81,-0.42,0.4,16,1,22,0.91,7747,18,94,45,37,926,420.0,573,468,60,123.0,132,1,304,198,56,0,0,403,6384,-21792,420,-5.59,,,,,,,,,,,,
450984,1564150053987,3,2.46,0.99,0.32,1.47,1.12,0.71,-0.36,0.38,17,3,23,0.8,7725,18,94,45,37,925,420.0,563,466,60,123.0,132,1,304,193,56,0,0,402,6512,3826,421,-5.59,,,,,,,,,,,,
451004,1564150053999,2,2.46,0.99,0.32,1.46,1.12,0.68,-0.36,0.43,17,4,20,0.77,7744,18,94,45,37,924,422.0,568,467,60,123.0,132,1,304,193,56,0,0,398,-3968,-3414,422,-5.59,,,,,,,,,,,,
451024,1564150054019,-0,2.45,0.99,0.32,1.46,1.12,0.75,-0.42,0.45,16,4,20,0.86,7719,18,94,45,37,923,418.0,553,467,60,124.0,132,1,304,193,56,0,0,401,6384,-21792,418,-5.59,,,,,,,,,,,,
451044,1564150054039,0,2.46,0.99,0.33,1.46,1.12,0.85,-0.46,0.47,16,3,22,0.97,7744,18,94,45,37,924,419.0,561,468,60,123.0,132,1,304,193,56,0,0,401,28696,-21944,419,-5.59,44.681088,10.02508,41.45,176.6,0,0.0,-1,0.0,0.0,0,3.31,7.5174
451064,1564150054059,1,2.46,0.99,0.33,1.46,1.12,0.92,-0.41,0.53,15,1,21,1.01,7703,18,95,45,38,925,418.0,552,468,60,123.0,132,1,307,193,56,0,0,398,28696,18584,418,-5.59,,,,,,,,,,,,
451084,1564150054079,0,2.46,0.99,0.33,1.46,1.12,0.86,-0.47,0.54,15,0,19,0.98,7693,18,94,45,37,926,419.0,558,468,60,122.0,132,1,304,198,56,0,0,397,6384,13040,419,-5.59,,,,,,,,,,,,
451104,1564150054107,1,2.46,1.0,0.32,1.46,1.12,0.76,-0.43,0.39,15,1,21,0.87,7728,18,94,45,38,927,418.0,556,470,60,124.0,132,1,307,198,56,0,0,401,-32702,7154,418,-5.59,,,,,,,,,,,,
451124,1564150054127,2,2.45,0.99,0.33,1.46,1.12,0.71,-0.37,0.37,16,3,21,0.8,7674,18,94,45,37,928,417.0,549,467,60,123.0,138,1,304,193,58,0,0,402,6384,18584,417,-5.59,,,,,,,,,,,,
451144,1564150054147,3,2.46,1.0,0.32,1.46,1.12,0.71,-0.36,0.43,16,3,19,0.79,7697,18,94,45,37,928,415.0,554,466,60,123.0,138,1,304,193,58,0,0,397,-32702,18584,416,-5.59,44.68108,10.025074,40.63,176.6,0,0.0,-1,0.0,0.0,0,3.31,7.5191
451164,1564150054167,-1,2.45,0.99,0.33,1.46,1.12,0.75,-0.42,0.43,16,5,19,0.86,7674,18,95,45,38,929,415.0,557,469,60,123.0,138,1,307,198,58,0,0,396,-3968,2524,415,-5.59,,,,,,,,,,,,
451184,1564150054187,0,2.44,1.0,0.33,1.47,1.12,0.87,-0.42,0.48,15,4,21,0.97,7687,18,95,45,38,928,414.0,559,466,60,123.0,138,1,307,193,58,0,0,398,17144,2524,414,-5.59,,,,,,,,,,,,
451204,1564150054207,1,2.45,0.99,0.33,1.46,1.12,0.98,-0.41,0.56,14,1,19,1.06,7665,18,94,45,38,928,414.0,558,468,60,122.0,137,1,307,198,57,0,0,400,-3968,13040,414,-5.59,,,,,,,,,,,,
451224,1564150054227,1,2.44,0.99,0.33,1.47,1.12,1.04,-0.44,0.54,14,-1,18,1.13,7649,18,94,45,38,929,414.0,580,466,60,121.0,137,1,307,198,57,0,0,398,-32702,-26615,414,-5.59,,,,,,,,,,,,
451244,1564150054247,1,2.44,0.99,0.32,1.47,1.12,0.97,-0.4,0.48,13,-1,20,1.05,7678,18,94,45,38,931,413.0,561,471,60,122.0,137,1,307,198,57,0,0,396,-32702,-9211,413,-5.59,44.681068,10.025068,40.39,176.6,0,0.0,-1,0.0,0.0,0,3.31,7.5207
451264,1564150054267,2,2.44,0.99,0.33,1.46,1.12,0.85,-0.36,0.47,14,-1,20,0.92,7637,18,94,45,38,933,413.0,580,470,60,122.0,137,1,307,198,57,0,0,398,-6656,-4059,412,-5.59,,,,,,,,,,,,
451284,1564150054287,3,2.43,1.0,0.32,1.47,1.12,0.67,-0.35,0.48,14,-1,16,0.76,7674,18,94,45,38,934,412.0,564,468,60,122.0,137,1,307,198,57,0,0,397,-32702,-4059,412,-5.59,,,,,,,,,,,,
451304,1564150054307,3,2.44,0.99,0.33,1.46,1.12,0.56,-0.36,0.36,14,1,17,0.66,7625,18,94,45,38,938,410.0,552,468,60,124.0,139,1,307,198,57,0,0,399,-1818,-9166,410,-5.59,,,,,,,,,,,,
451324,1564150054327,3,2.44,0.99,0.33,1.46,1.12,0.58,-0.36,0.32,14,3,20,0.68,7656,18,94,45,38,942,410.0,553,467,60,124.0,139,1,307,198,57,0,0,396,-1818,13040,410,-5.59,,,,,,,,,,,,
451344,1564150054347,-0,2.43,1.0,0.33,1.46,1.12,0.68,-0.31,0.4,14,2,19,0.75,7628,18,94,45,38,945,411.0,549,468,60,123.0,139,1,307,198,57,0,0,395,-1818,10392,411,-5.59,44.681065,10.025061,40.3,176.6,0,0.0,-1,0.0,0.0,0,3.31,7.5224
451364,1564150054367,-1,2.43,1.0,0.33,1.46,1.12,0.81,-0.3,0.44,14,2,16,0.87,7646,18,94,45,38,948,411.0,557,468,60,123.0,139,1,307,198,57,0,0,393,-1818,11560,411,-5.59,,,,,,,,,,,,
451384,1564150054387,-1,2.43,0.99,0.33,1.47,1.12,0.93,-0.35,0.52,13,1,18,1.0,7609,18,94,45,38,950,409.0,546,467,60,122.0,139,1,307,198,57,0,0,395,-1818,9517,411,-5.59,,,,,,,,,,,,
451404,1564150054407,-1,2.44,0.99,0.33,1.47,1.12,1.04,-0.33,0.6,13,-1,20,1.09,7631,18,94,45,38,952,409.0,560,470,60,122.0,139,1,307,198,57,0,0,399,-1818,9517,409,-5.59,,,,,,,,,,,,
451424,1564150054427,1,2.43,0.99,0.32,1.47,1.12,1.13,-0.29,0.69,12,-3,18,1.17,7584,18,94,45,38,953,410.0,550,465,60,123.0,139,1,307,198,57,0,0,396,-1818,-26615,410,-5.59,,,,,,,,,,,,
451444,1564150054447,1,2.42,0.99,0.31,1.45,1.12,1.19,-0.31,0.68,11,-4,15,1.22,7588,18,94,45,38,952,408.0,557,467,60,122.0,139,1,307,198,57,0,0,396,-1818,11560,408,-5.59,44.681053,10.025054,40.07,176.6,0,0.0,-1,0.0,0.0,0,3.31,7.5241
451464,1564150054467,1,2.42,0.99,0.32,1.46,1.12,1.16,-0.31,0.66,11,-4,18,1.2,7572,18,94,45,38,952,409.0,563,468,60,122.0,139,1,307,204,57,0,0,395,1,10392,409,-5.59,,,,,,,,,,,,
451484,1564150054487,2,2.42,1.0,0.32,1.46,1.12,1.06,-0.25,0.64,11,-4,18,1.09,7554,18,94,45,39,951,408.0,562,471,60,122.0,139,1,310,198,57,0,0,396,-6656,11560,408,-5.59,,,,,,,,,,,,
451504,1564150054507,1,2.42,0.99,0.32,1.46,1.12,0.93,-0.22,0.61,11,-6,15,0.96,7563,18,94,45,38,952,408.0,555,466,60,122.0,139,1,307,204,57,0,0,394,-6656,10392,406,-5.59,,,,,,,,,,,,
451524,1564150054527,1,2.4,0.99,0.32,1.47,1.12,0.82,-0.21,0.53,11,-5,15,0.85,7506,18,94,45,39,952,408.0,561,467,60,122.0,137,1,310,204,56,0,0,396,-6656,-26615,405,-5.59,,,,,,,,,,,,
451544,1564150054547,1,2.4,0.99,0.33,1.45,1.11,0.73,-0.17,0.44,11,-4,17,0.75,7536,18,94,45,39,953,405.0,556,468,60,123.0,137,1,310,204,56,0,0,396,17144,2524,405,-5.59,44.681046,10.025046,39.8,176.6,0,0.0,-1,0.0,0.0,0,3.31,7.5257
451564,1564150054567,2,2.41,0.99,0.32,1.46,1.11,0.58,-0.12,0.44,11,-3,16,0.59,7494,18,94,45,39,955,406.0,556,467,60,123.0,137,1,310,203,56,0,0,398,-1818,9517,406,-5.59,,,,,,,,,,,,
451584,1564150054587,0,2.4,0.99,0.33,1.46,1.11,0.46,-0.12,0.38,11,-4,12,0.48,7512,18,94,45,39,957,405.0,553,469,60,122.0,137,1,310,204,56,0,0,400,17144,2524,405,-5.59,,,,,,,,,,,,
451604,1564150054607,2,2.4,0.99,0.32,1.45,1.12,0.4,-0.1,0.31,10,-4,14,0.41,7461,18,94,45,39,959,404.0,551,466,60,122.0,141,1,310,203,57,0,0,394,-6656,1504,404,-5.59,,,,,,,,,,,,
451624,1564150054627,1,2.39,0.99,0.33,1.46,1.11,0.32,-0.07,0.21,10,-2,15,0.33,7494,18,94,45,39,960,404.0,547,467,60,122.0,141,1,310,203,57,0,0,395,1,-26615,404,-5.59,,,,,,,,,,,,
451644,1564150054647,1,2.4,0.99,0.32,1.46,1.11,0.27,-0.04,0.27,11,-2,14,0.28,7458,18,94,45,39,962,404.0,550,466,60,122.0,141,1,310,203,57,0,0,398,-6656,11545,404,-5.59,44.681038,10.025039,39.54,176.6,0,0.0,-1,0.0,0.0,0,3.31,7.5274
451664,1564150054667,1,2.39,0.99,0.32,1.46,1.12,0.23,-0.03,0.2,10,-4,11,0.23,7479,18,94,45,39,964,405.0,551,468,60,122.0,141,1,310,203,57,0,0,395,-6656,-9211,406,-5.59,,,,,,,,,,,,
451684,1564150054687,1,2.39,0.99,0.32,1.46,1.12,0.25,-0.07,0.22,10,-5,11,0.26,7437,18,94,45,39,965,405.0,541,468,60,122.0,141,1,310,203,57,0,0,397,-1818,6512,404,-5.59,,,,,,,,,,,,
451704,1564150054707,1,2.4,0.99,0.32,1.46,1.11,0.25,-0.02,0.19,10,-4,14,0.26,7440,18,94,45,39,965,404.0,550,468,60,121.0,141,1,317,204,57,0,0,396,-1818,10392,404,-5.59,,,,,,,,,,,,
451724,1564150054727,0,2.4,0.99,0.32,1.46,1.12,0.3,0.01,0.26,10,-6,13,0.3,7431,18,94,45,39,964,406.0,561,470,60,122.0,141,1,310,203,57,0,0,397,-6656,-9211,406,-5.59,,,,,,,,,,,,
451744,1564150054747,-0,2.4,0.99,0.32,1.46,1.12,0.43,0.03,0.39,9,-9,10,0.43,7446,18,94,45,40,963,403.0,556,467,60,121.0,141,1,317,203,57,0,0,394,-6656,1504,403,-5.59,44.681026,10.02503,39.54,176.6,0,0.0,-1,0.0,0.0,0,3.31,7.5291
451764,1564150054767,0,2.4,0.99,0.32,1.46,1.12,0.59,-0.01,0.45,8,-9,10,0.59,7449,18,94,45,40,962,403.0,546,465,60,123.0,141,1,317,131,57,0,0,394,1,-9211,403,-5.59,,,,,,,,,,,,
451784,1564150054787,-0,2.39,0.99,0.33,1.46,1.12,0.73,-0.01,0.58,8,-9,11,0.73,7408,18,94,45,40,959,403.0,544,468,60,123.0,141,1,317,204,57,0,0,397,1,-26615,403,-5.59,,,,,,,,,,,,
451804,1564150054807,-1,2.4,0.99,0.32,1.46,1.12,0.86,0.01,0.68,7,-12,12,0.86,7428,18,94,45,40,956,402.0,551,468,60,122.0,141,1,317,203,57,0,0,396,-6656,1504,402,-5.59,,,,,,,,,,,,
451824,1564150054827,0,2.4,0.98,0.32,1.46,1.12,0.98,-0.02,0.79,6,-13,10,0.98,7399,18,94,45,40,952,402.0,543,468,60,123.0,141,1,317,203,57,0,0,396,-6656,6512,402,-5.59,,,,,,,,,,,,
451844,1564150054847,-1,2.4,0.99,0.32,1.46,1.11,1.08,-0.02,0.83,6,-11,10,1.08,7437,18,95,45,40,950,401.0,544,466,60,122.0,141,1,317,204,57,0,0,396,1,11545,403,-5.59,44.681023,10.025022,39.21,176.6,0,0.0,-1,0.0,0.0,0,3.31,7.5307
451864,1564150054867,-1,2.4,0.99,0.32,1.46,1.11,1.18,-0.08,0.9,6,-8,12,1.18,7393,18,95,45,40,948,402.0,530,467,60,123.0,141,1,317,203,57,0,0,395,-6656,1504,402,-5.59,,,,,,,,,,,,
451884,1564150054887,3,2.4,0.99,0.33,1.46,1.12,1.26,-0.11,0.92,6,-8,12,1.27,7431,18,94,45,40,948,402.0,539,469,60,123.0,141,1,317,204,57,0,0,395,-6656,-8151,400,-5.59,,,,,,,,,,,,
451904,1564150054906,3,2.39,0.99,0.32,1.46,1.12,1.26,-0.11,0.88,7,-7,10,1.27,7434,18,94,45,40,948,401.0,537,466,60,122.0,142,1,317,204,57,0,0,391,-6524,11545,401,-5.59,,,,,,,,,,,,
451924,1564150054926,3,2.41,0.99,0.33,1.46,1.12,1.22,-0.17,0.88,7,-4,8,1.23,7467,18,95,45,40,950,400.0,542,466,60,123.0,142,1,317,204,57,0,0,394,-1562,10541,400,-5.59,,,,,,,,,,,,
451944,1564150054946,3,2.4,0.99,0.33,1.46,1.12,1.11,-0.21,0.74,7,-0,11,1.13,7443,18,95,45,40,952,401.0,538,466,60,123.0,142,1,317,204,57,0,0,392,505,-8151,401,-5.59,44.681011,10.025013,39.33,176.6,0,0.0,-1,0.0,0.0,0,3.32,7.5324
451964,1564150054966,2,2.4,0.99,0.32,1.45,1.12,1.06,-0.21,0.69,8,1,12,1.08,7473,18,95,45,40,955,403.0,544,465,60,123.0,142,1,317,204,57,0,0,391,1,6384,403,-5.59,,,,,,,,,,,,
451984,1564150054986,2,2.4,0.99,0.32,1.46,1.11,0.95,-0.15,0.59,8,3,10,0.96,7455,18,94,45,40,959,401.0,553,466,60,123.0,142,1,317,204,57,0,0,392,1,10541,401,-5.59,,,,,,,,,,,,
452004,1564150055000,3,2.39,0.99,0.32,1.46,1.11,0.81,-0.21,0.51,9,5,8,0.84,7494,18,94,45,40,961,400.0,548,467,60,124.0,145,1,317,204,58,0,0,394,505,1504,400,-5.59,,,,,,,,,,,,
452024,1564150055020,3,2.4,0.99,0.33,1.46,1.12,0.7,-0.22,0.36,9,7,10,0.73,7470,18,94,45,39,962,401.0,544,468,60,123.0,145,1,310,204,58,0,0,393,-6524,6512,401,-5.59,,,,,,,,,,,,
452044,1564150055040,4,2.4,0.99,0.33,1.46,1.12,0.64,-0.17,0.33,9,8,12,0.67,7500,18,94,45,39,962,398.0,547,465,60,123.0,145,1,310,205,58,0,0,395,-1562,6512,398,-5.59,44.681004,10.025004,39.14,176.6,0,0.0,-1,0.0,0.0,0,3.32,7.5341
452064,1564150055060,1,2.4,0.99,0.33,1.46,1.11,0.56,-0.07,0.27,10,10,10,0.57,7467,18,94,45,39,963,399.0,547,466,60,123.0,145,1,310,203,58,0,0,397,240,11545,398,-5.59,,,,,,,,,,,,
452084,1564150055080,2,2.4,0.99,0.32,1.46,1.12,0.43,-0.13,0.22,10,11,8,0.45,7494,18,94,45,39,961,399.0,556,468,60,123.0,145,1,310,204,58,0,0,394,-31744,-8151,398,-5.59,,,,,,,,,,,,
452104,1564150055104,3,2.4,0.99,0.33,1.46,1.11,0.35,-0.13,0.14,10,11,10,0.37,7455,18,95,45,39,960,397.0,554,466,60,122.0,143,1,310,203,57,0,0,392,-6524,-32702,399,-5.59,,,,,,,,,,,,
452124,1564150055124,1,2.4,0.99,0.33,1.46,1.12,0.29,-0.09,0.11,10,12,11,0.3,7449,18,95,45,39,959,397.0,541,468,60,123.0,143,1,310,203,57,0,0,395,505,17144,399,-5.59,,,,,,,,,,,,
452144,1564150055144,1,2.4,0.99,0.32,1.46,1.12,0.18,-0.03,0.07,11,12,9,0.19,7387,18,95,45,39,958,399.0,543,465,60,123.0,143,1,310,204,57,0,0,395,505,-32702,399,-5.59,44.681,10.024995,39.03,176.6,0,0.0,-1,0.0,0.0,0,3.32,7.5357
452164,1564150055164,2,2.4,0.99,0.33,1.46,1.12,0.07,-0.07,-0.01,11,11,7,0.09,7396,18,94,45,40,958,399.0,543,466,60,122.0,143,1,317,204,57,0,0,394,-1562,28696,399,-5.59,,,,,,,,,,,,
452184,1564150055184,1,2.4,0.99,0.33,1.46,1.12,0.05,-0.07,0.01,10,11,9,0.09,7344,18,94,45,40,958,398.0,542,470,60,122.0,143,1,317,204,57,0,0,395,-1562,6512,398,-5.59,,,,,,,,,,,,
452204,1564150055208,0,2.39,0.98,0.33,1.47,1.12,0.09,-0.02,0.05,10,10,11,0.1,7367,18,95,45,40,959,400.0,532,468,60,123.0,140,1,317,204,56,0,0,389,-6524,6384,400,-5.59,,,,,,,,,,,,
452224,1564150055228,-1,2.39,0.99,0.33,1.45,1.12,0.18,-0.02,0.18,10,6,9,0.18,7358,18,94,45,40,959,400.0,536,467,60,123.0,140,1,317,204,56,0,0,390,-31744,28696,400,-5.59,,,,,,,,,,,,
452244,1564150055248,-1,2.4,0.99,0.33,1.46,1.12,0.36,-0.05,0.3,9,3,7,0.37,7341,18,95,45,40,958,399.0,537,467,60,122.0,140,1,317,204,56,0,0,390,-31744,6384,399,-5.59,44.680988,10.024985,39.0,176.6,0,0.0,-1,0.0,0.0,0,3.32,7.5374
452264,1564150055268,-0,2.4,0.99,0.32,1.46,1.12,0.53,-0.07,0.36,8,2,8,0.53,7367,18,95,45,40,958,399.0,545,466,60,122.0,140,1,317,204,56,0,0,392,240,-6656,399,-5.59,,,,,,,,,,,,
452284,1564150055288,4,2.4,0.99,0.33,1.47,1.12,0.63,-0.16,0.47,8,2,11,0.65,7318,18,95,45,40,957,398.0,535,468,60,123.0,140,1,317,204,56,0,0,389,-6524,10541,398,-5.59,,,,,,,,,,,,
452304,1564150055308,3,2.4,1.0,0.33,1.47,1.12,0.72,-0.15,0.54,8,2,11,0.74,7350,18,95,45,41,957,398.0,540,466,60,123.0,140,1,325,204,56,0,0,390,-31744,6512,398,-5.59,,,,,,,,,,,,
452324,1564150055328,1,2.41,0.99,0.33,1.46,1.12,0.68,-0.1,0.47,9,4,8,0.69,7324,18,95,45,40,958,400.0,536,466,60,124.0,143,1,317,204,57,0,0,393,240,6512,400,-5.59,,,,,,,,,,,,
452344,1564150055348,1,2.41,0.99,0.32,1.47,1.12,0.54,-0.16,0.37,9,5,8,0.57,7332,18,95,45,40,958,397.0,541,465,60,123.0,143,1,317,206,57,0,0,390,240,28696,398,-5.59,44.680984,10.024976,38.85,176.6,0,0.0,-1,0.0,0.0,0,3.32,7.5391
452364,1564150055368,0,2.41,0.99,0.33,1.46,1.12,0.48,-0.14,0.31,9,6,10,0.5,7324,18,94,45,41,959,398.0,544,470,60,122.0,143,1,325,206,57,0,0,391,-6475,6512,397,-5.59,,,,,,,,,,,,
452384,1564150055388,1,2.41,0.99,0.33,1.46,1.12,0.42,-0.07,0.29,10,5,10,0.43,7358,18,95,45,41,962,396.0,535,470,60,122.0,143,1,325,206,57,0,0,390,-6475,-32702,396,-5.59,,,,,,,,,,,,
452404,1564150055408,1,2.4,0.99,0.33,1.47,1.12,0.41,-0.08,0.31,9,3,9,0.42,7341,18,95,45,41,964,397.0,548,468,60,122.0,143,1,325,206,57,0,0,388,-6475,11545,397,-5.59,,,,,,,,,,,,
452424,1564150055428,-0,2.41,0.99,0.33,1.47,1.12,0.54,-0.09,0.41,9,1,8,0.55,7341,18,95,45,41,966,397.0,529,468,60,122.0,143,1,325,206,57,0,0,386,240,28696,397,-5.59,,,,,,,,,,,,
452444,1564150055448,-1,2.41,0.99,0.33,1.47,1.12,0.69,-0.1,0.49,8,-1,9,0.7,7373,18,95,45,41,969,396.0,542,468,60,122.0,143,1,325,204,57,0,0,388,-3866,-32702,396,-5.59,44.680977,10.024966,39.28,176.6,0,0.0,-1,0.0,0.0,0,3.32,7.5407
452464,1564150055468,-0,2.41,0.99,0.33,1.47,1.12,0.81,-0.16,0.61,8,-1,11,0.83,7332,18,95,45,41,974,397.0,533,469,60,123.0,143,1,325,204,57,0,0,389,-6475,-8151,397,-5.59,,,,,,,,,,,,
452484,1564150055488,2,2.41,0.99,0.33,1.46,1.12,0.93,-0.14,0.64,8,-1,11,0.94,7378,18,95,45,40,977,397.0,537,465,60,123.0,143,1,317,206,57,0,0,392,-19019,-32702,397,-5.59,,,,,,,,,,,,
452504,1564150055508,3,2.42,0.99,0.33,1.46,1.11,1.0,-0.12,0.59,8,-0,10,1.0,7355,18,95,45,40,979,397.0,544,466,60,122.0,141,1,317,204,56,0,0,388,-6475,-1818,397,-5.59,,,,,,,,,,,,
452524,1564150055528,2,2.42,0.99,0.33,1.47,1.11,0.92,-0.17,0.53,8,2,10,0.93,7387,18,95,45,40,980,397.0,539,467,60,124.0,141,1,317,204,56,0,0,387,-19019,6384,397,-5.59,,,,,,,,,,,,
452544,1564150055548,3,2.41,0.99,0.33,1.47,1.12,0.8,-0.15,0.39,8,4,12,0.82,7367,18,95,45,40,980,396.0,541,467,60,123.0,141,1,317,206,56,0,0,391,-19019,-32702,396,-5.59,44.680969,10.024957,39.21,176.6,0,0.0,-1,0.0,0.0,0,3.32,7.5424
452564,1564150055568,2,2.42,0.99,0.33,1.46,1.12,0.69,-0.13,0.3,9,5,12,0.7,7399,18,95,45,41,979,397.0,556,469,60,122.0,141,1,325,206,56,0,0,387,-3866,-6656,397,-5.59,,,,,,,,,,,,
452584,1564150055588,-0,2.41,0.99,0.33,1.46,1.11,0.57,-0.09,0.32,10,5,10,0.57,7367,18,94,45,40,977,395.0,559,465,60,122.0,141,1,317,206,56,0,0,388,-6475,28696,395,-5.59,,,,,,,,,,,,
452604,1564150055608,1,2.41,0.99,0.33,1.45,1.12,0.49,-0.1,0.25,9,4,9,0.5,7376,18,95,45,40,976,396.0,551,470,60,121.0,143,1,317,206,57,0,0,388,-3866,6512,396,-5.59,,,,,,,,,,,,
452624,1564150055628,1,2.4,0.99,0.33,1.46,1.12,0.51,-0.12,0.23,9,3,10,0.52,7367,18,95,45,41,975,396.0,547,466,60,122.0,143,1,325,204,57,0,0,389,-6475,6384,396,-5.59,,,,,,,,,,,,
452644,1564150055648,0,2.41,0.99,0.33,1.46,1.12,0.59,-0.12,0.38,9,3,11,0.6,7312,18,95,45,41,975,395.0,530,469,60,123.0,143,1,325,204,57,0,0,391,-3866,-32702,395,-5.59,44.680962,10.024946,38.84,176.6,0,0.0,-1,0.0,0.0,0,3.32,7.5441
452664,1564150055668,-2,2.41,0.99,0.33,1.46,1.11,0.73,-0.12,0.53,8,0,11,0.74,7321,18,95,45,41,977,396.0,544,466,60,123.0,143,1,325,204,57,0,0,385,-6475,-1818,396,-5.59,,,,,,,,,,,,
452684,1564150055688,3,2.4,0.99,0.33,1.46,1.11,0.86,-0.13,0.56,8,-0,9,0.87,7267,18,95,45,41,979,395.0,526,464,60,123.0,143,1,325,204,57,0,0,386,-19126,505,394,-5.59,,,,,,,,,,,,
452704,1564150055708,2,2.41,0.99,0.32,1.46,1.12,0.87,-0.21,0.57,8,1,9,0.89,7301,18,95,45,41,980,394.0,537,466,60,123.0,143,1,325,206,57,0,0,386,-19019,1,394,-5.59,,,,,,,,,,,,
452724,1564150055728,2,2.4,0.99,0.33,1.46,1.11,0.77,-0.19,0.49,8,2,11,0.79,7275,18,95,45,41,981,393.0,531,467,60,123.0,144,1,325,206,57,0,0,385,-19126,17144,394,-5.59,,,,,,,,,,,,
452744,1564150055748,1,2.41,0.99,0.33,1.46,1.12,0.69,-0.15,0.41,9,3,11,0.7,7292,18,95,45,41,981,394.0,538,467,60,122.0,144,1,325,206,57,0,0,386,-19019,-6656,396,-5.59,44.680954,10.024936,38.43,176.6,0,0.0,-1,0.0,0.0,0,3.32,7.5457
452764,1564150055768,-0,2.41,0.99,0.33,1.46,1.11,0.58,-0.18,0.39,9,3,9,0.61,7284,18,95,45,41,980,395.0,535,466,60,122.0,144,1,325,206,57,0,0,386,-6475,-6656,395,-5.59,,,,,,,,,,,,
452784,1564150055788,-1,2.41,0.99,0.32,1.47,1.12,0.64,-0.21,0.46,8,1,8,0.67,7298,18,95,45,41,980,395.0,535,469,60,122.0,144,1,325,206,57,0,0,387,-19126,-3968,393,-5.59,,,,,,,,,,,,
452804,1564150055808,-2,2.42,0.99,0.33,1.47,1.11,0.78,-0.18,0.5,8,-0,9,0.8,7301,18,95,45,41,980,395.0,540,468,60,123.0,144,1,325,206,57,0,0,391,-19126,17144,394,-5.59,,,,,,,,,,,,
452824,1564150055828,3,2.4,0.99,0.33,1.47,1.11,0.83,-0.26,0.58,8,1,11,0.87,7270,18,95,45,41,980,395.0,530,466,60,123.0,144,1,325,206,57,0,0,384,-19126,-32702,395,-5.59,,,,,,,,,,,,
452844,1564150055848,2,2.41,0.98,0.33,1.46,1.12,0.88,-0.28,0.61,8,1,11,0.93,7309,18,95,45,41,980,394.0,535,468,60,124.0,144,1,325,206,57,0,0,384,19125,-1562,394,-5.59,44.680946,10.024925,38.7,176.6,0,0.0,-1,0.0,0.0,0,3.32,7.5474
452864,1564150055868,2,2.4,0.99,0.33,1.46,1.12,0.81,-0.21,0.55,9,2,9,0.84,7290,18,95,45,41,981,395.0,543,463,60,123.0,144,1,325,206,57,0,0,386,-18948,-32702,395,-5.59,,,,,,,,,,,,
452884,1564150055888,2,2.4,0.99,0.33,1.46,1.11,0.7,-0.26,0.49,9,3,7,0.74,7312,18,95,45,41,981,393.0,544,468,60,123.0,144,1,325,206,57,0,0,384,19125,17144,393,-5.59,,,,,,,,,,,,
452904,1564150055907,-0,2.42,0.99,0.33,1.46,1.12,0.65,-0.24,0.44,9,3,10,0.7,7295,18,95,45,41,981,392.0,546,468,60,122.0,144,1,325,206,57,0,0,384,19125,6384,392,-5.59,,,,,,,,,,,,
452924,1564150055927,-0,2.41,0.99,0.33,1.46,1.12,0.63,-0.18,0.47,9,3,11,0.65,7295,18,95,45,41,981,393.0,546,469,60,122.0,145,1,325,206,57,0,0,385,-18948,1,393,-5.59,,,,,,,,,,,,
452944,1564150055947,-1,2.41,0.99,0.33,1.46,1.12,0.71,-0.18,0.55,8,1,11,0.73,7292,18,95,45,41,981,392.0,534,470,60,123.0,145,1,325,206,57,0,0,387,19125,505,392,-5.59,44.680946,10.024915,38.74,176.6,0,0.0,-1,0.0,0.0,0,3.33,7.5491
452964,1564150055967,-1,2.42,0.99,0.33,1.46,1.12,0.84,-0.19,0.62,8,-1,9,0.87,7264,18,95,45,41,982,392.0,532,466,60,123.0,145,1,325,206,57,0,0,386,19125,-3968,392,-5.59,,,,,,,,,,,,
452984,1564150055987,2,2.41,0.99,0.33,1.46,1.12,0.85,-0.23,0.6,8,1,10,0.88,7281,18,95,45,41,983,393.0,530,466,60,124.0,145,1,325,206,57,0,0,385,-18948,1,393,-5.59,,,,,,,,,,,,
453004,1564150055999,1,2.42,0.99,0.33,1.46,1.11,0.78,-0.2,0.54,8,2,12,0.8,7236,18,95,45,41,983,392.0,538,466,60,122.0,145,1,325,206,57,0,0,386,-992,505,392,-5.59,,,,,,,,,,,,
453024,1564150056019,1,2.42,0.99,0.32,1.46,1.12,0.7,-0.17,0.49,9,2,12,0.72,7259,18,95,45,42,984,391.0,535,470,60,123.0,142,1,332,208,56,0,0,384,-992,-1562,391,-5.59,,,,,,,,,,,,
453044,1564150056039,-1,2.41,0.99,0.33,1.46,1.12,0.64,-0.16,0.48,9,1,10,0.66,7233,18,95,45,42,985,392.0,543,472,60,122.0,142,1,332,208,56,0,0,385,-18948,505,392,-5.59,44.680939,10.024904,38.32,176.6,0,0.0,-1,0.0,0.0,0,3.33,7.5507
453064,1564150056059,-1,2.41,0.99,0.33,1.47,1.12,0.76,-0.19,0.54,8,-0,9,0.78,7233,18,95,45,42,985,392.0,534,468,60,123.0,142,1,332,206,56,0,0,383,-18948,-1818,392,-5.59,,,,,,,,,,,,
453084,1564150056079,-1,2.42,0.99,0.33,1.47,1.12,0.88,-0.19,0.58,8,-1,11,0.9,7261,18,95,45,42,985,392.0,538,468,60,123.0,142,1,332,206,56,0,0,383,-18948,6384,392,-5.59,,,,,,,,,,,,
453104,1564150056105,3,2.41,0.99,0.33,1.46,1.12,0.91,-0.26,0.6,8,0,12,0.95,7261,18,95,45,41,986,392.0,533,469,60,123.0,142,1,325,206,56,0,0,383,-992,1,392,-5.59,,,,,,,,,,,,
453124,1564150056125,2,2.41,0.99,0.33,1.47,1.12,0.85,-0.26,0.59,9,2,12,0.89,7290,18,95,45,41,987,392.0,544,468,60,123.0,142,1,325,133,56,0,0,382,-18948,17144,392,-5.59,,,,,,,,,,,,
453144,1564150056145,0,2.41,0.99,0.33,1.46,1.12,0.7,-0.19,0.47,9,2,10,0.72,7250,18,95,45,41,988,391.0,547,467,60,122.0,142,1,325,206,56,0,0,383,8200,1,391,-5.59,44.680931,10.024893,38.25,176.6,0,0.0,-1,0.0,0.0,0,3.33,7.5524
453164,1564150056165,1,2.4,0.99,0.33,1.47,1.12,0.64,-0.19,0.42,9,1,9,0.67,7273,18,95,45,41,988,391.0,546,470,60,122.0,142,1,325,208,56,0,0,387,-992,240,391,-5.59,,,,,,,,,,,,
453184,1564150056185,-0,2.41,0.99,0.33,1.46,1.12,0.72,-0.22,0.45,8,0,10,0.75,7250,18,95,45,42,989,393.0,538,468,60,123.0,142,1,332,208,56,0,0,384,-18948,505,393,-5.59,,,,,,,,,,,,
453204,1564150056207,1,2.41,0.99,0.33,1.46,1.12,0.8,-0.27,0.58,8,-0,11,0.84,7203,18,95,45,42,990,390.0,524,468,60,123.0,143,1,332,206,56,0,0,385,-18948,17144,390,-5.59,,,,,,,,,,,,
453224,1564150056227,2,2.41,0.99,0.32,1.46,1.12,0.88,-0.27,0.59,8,-1,11,0.92,7222,18,95,45,41,992,392.0,531,465,60,123.0,143,1,325,206,56,0,0,384,-18948,17144,392,-5.59,,,,,,,,,,,,
453244,1564150056247,1,2.41,0.99,0.33,1.46,1.12,0.79,-0.2,0.5,9,1,10,0.81,7205,18,95,45,42,993,391.0,538,466,60,121.0,143,1,332,208,56,0,0,383,-992,-1562,391,-5.59,44.680923,10.024881,38.86,176.6,0,0.0,-1,0.0,0.0,0,3.33,7.5541
453264,1564150056267,-0,2.4,0.99,0.33,1.46,1.12,0.67,-0.21,0.43,9,1,9,0.7,7236,18,95,45,42,993,392.0,535,468,60,122.0,143,1,332,208,56,0,0,385,2278,505,392,-5.59,,,,,,,,,,,,
453284,1564150056287,-1,2.41,1.0,0.33,1.47,1.12,0.71,-0.2,0.45,9,1,10,0.74,7247,18,95,45,42,991,391.0,534,468,60,122.0,143,1,332,206,56,0,0,382,8200,-6656,391,-5.59,,,,,,,,,,,,
453304,1564150056307,-1,2.4,0.99,0.33,1.47,1.12,0.79,-0.24,0.6,9,-0,10,0.82,7231,18,95,45,42,988,392.0,526,468,60,123.0,142,1,332,206,56,0,0,381,2278,-31744,392,-5.59,,,,,,,,,,,,
453324,1564150056327,3,2.4,0.99,0.34,1.46,1.12,0.9,-0.26,0.68,8,-2,10,0.94,7253,18,95,45,41,984,392.0,525,467,60,123.0,142,1,325,208,56,0,0,382,8200,-1562,392,-5.59,,,,,,,,,,,,
453344,1564150056347,3,2.39,0.98,0.33,1.47,1.12,0.92,-0.22,0.61,9,-1,9,0.95,7222,18,95,45,42,981,389.0,535,467,60,123.0,142,1,332,208,56,0,0,382,-992,-6656,389,-5.59,44.680923,10.024871,37.91,176.6,0,0.0,-1,0.0,0.0,0,3.33,7.5557
453364,1564150056367,2,2.4,0.99,0.33,1.47,1.12,0.78,-0.22,0.52,9,0,9,0.81,7225,18,95,45,41,979,391.0,533,468,60,123.0,142,1,325,208,56,0,0,383,-992,505,391,-5.59,,,,,,,,,,,,
453384,1564150056387,1,2.4,0.99,0.33,1.46,1.12,0.7,-0.22,0.51,8,1,10,0.73,7205,18,95,45,42,977,390.0,543,467,60,121.0,142,1,332,208,56,0,0,382,8200,240,390,-5.59,,,,,,,,,,,,
453404,1564150056407,-2,2.4,0.99,0.34,1.47,1.12,0.73,-0.21,0.6,8,-0,9,0.75,7194,18,95,45,42,978,390.0,540,468,60,122.0,143,1,332,208,56,0,0,381,8200,1,390,-5.59,,,,,,,,,,,,
453424,1564150056427,-0,2.39,0.98,0.33,1.46,1.12,0.83,-0.19,0.63,8,-2,10,0.85,7222,18,95,45,42,979,389.0,538,468,60,122.0,143,1,332,208,56,0,0,383,8200,-31744,389,-5.59,,,,,,,,,,,,
453444,1564150056447,3,2.39,1.0,0.33,1.47,1.12,0.89,-0.17,0.6,8,-1,9,0.91,7217,18,95,45,41,977,389.0,541,463,60,123.0,143,1,325,208,56,0,0,381,2278,-31744,389,-5.59,44.680916,10.024859,38.0,176.6,0,0.0,-1,0.0,0.0,0,3.33,7.5574
453464,1564150056467,1,2.39,0.99,0.33,1.46,1.12,0.78,-0.19,0.52,9,0,9,0.8,7231,18,95,45,42,976,388.0,542,469,60,122.0,143,1,332,208,56,0,0,378,2278,-1562,388,-5.59,,,,,,,,,,,,
453484,1564150056487,1,2.39,0.99,0.33,1.45,1.12,0.7,-0.18,0.52,9,1,9,0.72,7194,18,95,45,42,973,387.0,542,468,60,122.0,143,1,332,208,56,0,0,383,2278,-31744,387,-5.59,,,,,,,,,,,,
453504,1564150056507,-2,2.39,0.99,0.34,1.46,1.12,0.7,-0.15,0.62,9,0,10,0.72,7211,18,95,45,42,971,389.0,527,468,60,123.0,143,1,332,208,56,0,0,383,-992,-1562,389,-5.59,,,,,,,,,,,,
453524,1564150056527,-2,2.39,0.99,0.34,1.47,1.11,0.81,-0.15,0.71,8,-3,9,0.83,7233,18,95,45,42,969,389.0,528,465,60,123.0,143,1,332,208,56,0,0,381,8200,-31744,389,-5.59,,,,,,,,,,,,
453544,1564150056547,3,2.38,0.99,0.33,1.47,1.11,0.93,-0.13,0.73,8,-2,8,0.94,7217,18,95,45,42,967,387.0,521,465,60,123.0,143,1,332,206,56,0,0,384,-18948,-6475,387,-5.59,44.680912,10.024847,38.38,176.6,0,0.0,-1,0.0,0.0,0,3.33,7.5591
453564,1564150056567,2,2.38,0.99,0.33,1.46,1.12,0.85,-0.2,0.68,8,1,9,0.88,7233,18,95,45,42,969,389.0,537,468,60,124.0,143,1,332,208,56,0,0,384,19125,-6524,389,-5.59,,,,,,,,,,,,
453584,1564150056587,-0,2.38,0.99,0.34,1.46,1.12,0.72,-0.15,0.55,8,3,11,0.73,7217,18,95,45,42,970,388.0,537,467,60,123.0,143,1,332,208,56,0,0,383,-19126,1,388,-5.59,,,,,,,,,,,,
453604,1564150056607,-0,2.38,0.99,0.33,1.47,1.12,0.68,-0.06,0.55,8,2,9,0.69,7208,18,95,45,42,970,387.0,527,468,60,122.0,143,1,332,208,56,0,0,383,-18948,240,387,-5.59,,,,,,,,,,,,
453624,1564150056627,-0,2.37,0.99,0.33,1.47,1.11,0.74,-0.07,0.58,7,0,8,0.75,7225,18,95,45,42,969,389.0,531,470,60,122.0,147,1,332,208,57,0,0,384,-992,-19126,389,-5.59,,,,,,,,,,,,
453644,1564150056647,3,2.38,0.99,0.33,1.46,1.11,0.87,-0.08,0.63,7,-0,8,0.87,7203,18,95,45,42,966,388.0,525,466,60,123.0,147,1,332,208,57,0,0,387,-18948,-1562,388,-5.59,44.680904,10.024836,37.99,176.6,0,0.0,-1,0.0,0.0,0,3.33,7.5607
453664,1564150056667,2,2.38,0.99,0.33,1.47,1.12,0.82,-0.13,0.61,7,1,8,0.83,7217,18,95,45,42,964,388.0,537,468,60,123.0,147,1,332,208,57,0,0,383,-18948,-1562,388,-5.59,,,,,,,,,,,,
453684,1564150056687,2,2.37,0.99,0.33,1.46,1.12,0.67,-0.08,0.45,7,3,10,0.68,7164,15,95,45,42,966,387.0,535,467,60,123.0,147,1,332,208,57,0,0,381,19125,505,387,-5.59,,,,,,,,,,,,
453704,1564150056707,0,2.37,0.99,0.34,1.46,1.11,0.61,-0.0,0.44,7,3,8,0.61,7183,14,96,45,41,967,388.0,531,471,60,122.0,147,1,325,206,57,0,0,383,19125,505,388,-5.59,,,,,,,,,,,,
453724,1564150056727,-2,2.38,0.99,0.34,1.46,1.11,0.72,-0.03,0.49,7,-0,7,0.73,7192,13,96,45,41,971,388.0,535,467,60,123.0,144,1,325,206,56,0,0,382,-992,1,388,-5.59,,,,,,,,,,,,
453744,1564150056747,2,2.38,0.99,0.33,1.46,1.12,0.84,-0.05,0.53,7,-1,7,0.84,7172,13,96,45,40,975,386.0,528,467,60,123.0,144,1,317,204,56,0,0,381,8200,-3866,386,-5.59,44.680904,10.024824,38.0,176.6,0,0.0,-1,0.0,0.0,0,3.33,7.5624
453764,1564150056767,1,2.38,0.99,0.33,1.46,1.12,0.79,-0.07,0.46,7,1,7,0.79,7186,12,96,45,39,980,388.0,530,469,60,123.0,144,1,310,204,56,0,0,382,8200,-3866,388,-5.59,,,,,,,,,,,,
453784,1564150056787,-0,2.38,0.98,0.33,1.46,1.12,0.69,-0.02,0.35,7,3,9,0.69,7164,11,96,45,39,984,389.0,542,470,60,123.0,144,1,310,203,56,0,0,383,8200,240,389,-5.59,,,,,,,,,,,,
453804,1564150056806,-1,2.38,0.99,0.33,1.46,1.11,0.64,0.04,0.41,7,1,8,0.64,7140,11,96,45,39,986,387.0,524,470,60,122.0,144,1,310,197,56,0,0,382,-992,-6524,387,-5.59,,,,,,,,,,,,
453824,1564150056826,0,2.39,0.99,0.33,1.46,1.12,0.75,0.01,0.5,7,-1,7,0.75,7134,11,96,45,38,986,386.0,528,468,60,123.0,142,1,307,197,55,0,0,381,8200,-3866,386,-5.59,,,,,,,,,,,,
453844,1564150056846,2,2.38,0.99,0.33,1.46,1.12,0.8,0.03,0.47,7,0,7,0.8,7080,11,96,45,38,985,386.0,521,465,60,124.0,142,1,307,197,55,0,0,383,8200,240,386,-5.59,44.680897,10.024812,38.1,176.6,0,0.0,-1,0.0,0.0,0,3.34,7.5641
453864,1564150056866,1,2.38,0.99,0.33,1.47,1.11,0.65,0.02,0.35,7,2,8,0.65,7094,10,96,45,37,982,385.0,524,471,60,122.0,142,1,304,192,55,0,0,381,8200,-3866,385,-5.59,,,,,,,,,,,,
453884,1564150056886,-0,2.38,0.98,0.33,1.46,1.12,0.68,0.01,0.42,7,1,8,0.68,7070,10,96,45,37,979,385.0,528,470,60,123.0,142,1,304,192,55,0,0,379,8200,-6475,385,-5.59,,,,,,,,,,,,
453904,1564150056906,2,2.38,0.99,0.34,1.46,1.12,0.76,-0.07,0.51,7,1,8,0.76,6991,10,96,45,37,976,385.0,520,467,60,122.0,142,1,304,192,55,0,0,380,8200,-19126,385,-5.59,,,,,,,,,,,,
453924,1564150056926,-1,2.38,0.99,0.34,1.46,1.11,0.7,-0.06,0.45,7,2,7,0.71,7014,10,96,45,37,969,385.0,525,471,60,123.0,129,1,304,192,50,0,0,378,2278,-19019,385,-5.59,,,,,,,,,,,,
453944,1564150056946,-2,2.38,0.98,0.33,1.46,1.11,0.68,-0.12,0.5,7,-0,6,0.69,6993,10,96,45,37,960,384.0,522,468,60,123.0,129,1,304,192,50,0,0,380,2278,-19019,384,-5.59,44.680893,10.0248,37.85,176.6,0,0.0,-1,0.0,0.0,0,3.34,7.5657
453964,1564150056966,1,2.38,0.99,0.33,1.46,1.12,0.8,-0.07,0.52,6,-0,6,0.8,6954,10,96,45,36,953,384.0,514,464,60,124.0,129,1,301,186,50,0,0,378,2278,-992,384,-5.59,,,,,,,,,,,,
453984,1564150056986,-1,2.37,0.99,0.34,1.46,1.12,0.7,-0.06,0.4,7,1,7,0.71,6936,10,96,45,36,947,383.0,521,466,60,121.0,129,1,301,192,50,0,0,377,-6656,-6475,383,-5.59,,,,,,,,,,,,
454004,1564150057000,-2,2.38,0.98,0.34,1.46,1.11,0.76,-0.03,0.47,6,-0,7,0.76,6911,10,96,45,37,939,382.0,524,468,60,123.0,125,1,304,186,48,0,0,376,-6656,-6475,382,-5.59,,,,,,,,,,,,
454024,1564150057020,1,2.37,0.99,0.33,1.47,1.11,0.82,-0.03,0.46,6,-1,8,0.82,6863,10,96,45,36,931,383.0,517,464,60,123.0,125,1,301,192,48,0,0,379,-6656,-992,383,-5.59,,,,,,,,,,,,
454044,1564150057040,-1,2.38,0.98,0.33,1.46,1.12,0.67,0.04,0.47,7,1,6,0.68,6818,10,96,45,37,925,383.0,508,471,60,124.0,125,1,304,118,48,0,0,378,3,-6475,383,-5.59,44.680889,10.024788,37.8,176.6,0,0.0,-1,0.0,0.0,0,3.34,7.5674
454064,1564150057060,1,2.37,0.99,0.33,1.46,1.11,0.81,0.02,0.47,6,-1,7,0.81,6813,10,96,45,37,924,382.0,501,467,60,124.0,125,1,304,192,48,0,0,378,3,8200,382,-5.59,,,,,,,,,,,,
454084,1564150057080,-0,2.37,0.99,0.34,1.45,1.11,0.68,0.04,0.5,7,-0,6,0.68,6776,10,96,45,37,919,381.0,516,467,60,122.0,125,1,304,192,48,0,0,375,742,-992,381,-5.59,,,,,,,,,,,,
454104,1564150057102,1,2.37,0.98,0.32,1.46,1.12,0.81,0.02,0.49,6,-2,6,0.81,6759,10,96,45,37,913,382.0,501,467,60,125.0,125,1,304,192,48,0,0,384,742,8200,381,-5.59,,,,,,,,,,,,
454124,1564150057122,-0,2.36,0.99,0.33,1.45,1.12,0.73,0.02,0.42,6,0,6,0.73,6786,10,96,45,37,908,379.0,495,469,60,123.0,128,1,304,192,49,0,0,384,742,-6656,379,-5.59,,,,,,,,,,,,
454144,1564150057142,1,2.37,0.98,0.34,1.46,1.11,0.86,0.01,0.49,6,-2,6,0.86,6835,10,96,45,37,904,379.0,497,465,60,125.0,128,1,304,192,49,0,0,384,-6656,3,378,-5.59,44.680885,10.024776,37.45,176.6,0,0.0,-1,0.0,0.0,0,3.34,7.5691
454164,1564150057162,-1,2.37,0.98,0.34,1.45,1.12,0.87,0.06,0.4,6,-1,6,0.87,6913,10,96,45,37,900,376.0,514,467,60,122.0,128,1,304,192,49,0,0,384,257,-6656,376,-5.59,,,,,,,,,,,,
454184,1564150057182,-1,2.36,0.98,0.34,1.46,1.12,0.9,0.05,0.54,5,-3,6,0.9,6988,10,96,45,37,892,374.0,514,470,60,124.0,128,1,304,192,49,0,0,359,486,-6656,374,-5.59,,,,,,,,,,,,
454204,1564150057206,1,2.37,0.98,0.33,1.46,1.11,1.01,0.04,0.57,5,-3,6,1.01,7075,10,96,45,37,887,373.0,518,466,60,124.0,136,1,304,192,51,0,0,365,-6656,0,373,-5.59,,,,,,,,,,,,
454224,1564150057226,0,2.36,0.98,0.32,1.46,1.12,0.86,0.04,0.46,6,0,4,0.86,7054,10,96,44,36,883,374.0,535,470,60,123.0,136,1,301,186,51,0,0,368,0,257,374,-5.59,,,,,,,,,,,,
454244,1564150057246,-0,2.36,0.98,0.33,1.46,1.11,0.89,0.0,0.45,5,-1,5,0.89,7033,10,96,44,36,880,374.0,530,471,60,123.0,136,1,301,112,51,0,0,369,0,-6656,374,-5.59,44.680882,10.024764,37.58,176.6,0,0.0,-1,0.0,0.0,0,3.34,7.5707
454264,1564150057266,3,2.36,0.98,0.33,1.46,1.12,0.99,-0.0,0.53,5,-2,6,0.99,7040,10,96,44,36,875,372.0,526,467,60,124.0,136,1,301,186,51,0,0,370,0,1,372,-5.59,,,,,,,,,,,,
454284,1564150057286,1,2.36,0.98,0.33,1.46,1.11,0.88,0.05,0.46,5,-0,6,0.89,6983,10,96,44,36,871,371.0,544,472,60,123.0,136,1,301,186,51,0,0,364,230,3,372,-5.59,,,,,,,,,,,,
454304,1564150057306,-1,2.37,0.98,0.33,1.46,1.12,0.85,0.11,0.49,5,-0,5,0.85,6965,10,96,44,36,870,373.0,530,470,60,123.0,131,1,301,186,49,0,0,367,230,770,372,-5.59,,,,,,,,,,,,
454324,1564150057326,3,2.36,0.98,0.33,1.45,1.12,0.97,0.09,0.54,4,-2,5,0.97,6952,10,96,44,36,869,372.0,515,468,60,124.0,131,1,301,186,49,0,0,365,0,1,372,-5.59,,,,,,,,,,,,
454344,1564150057346,-1,2.37,0.98,0.33,1.46,1.11,0.86,0.12,0.47,5,-0,5,0.87,6895,10,96,44,36,869,372.0,526,468,60,122.0,131,1,301,186,49,0,0,366,-6405,1,372,-5.59,44.680878,10.024752,36.7,176.6,0,0.0,-1,0.0,0.0,0,3.34,7.5724
454364,1564150057366,-1,2.36,0.98,0.33,1.46,1.12,0.94,0.04,0.49,4,-1,5,0.94,6863,9,96,44,36,868,372.0,517,468,60,123.0,131,1,301,186,49,0,0,367,-6405,486,372,-5.59,,,,,,,,,,,,
454384,1564150057386,0,2.36,0.98,0.34,1.46,1.12,0.9,0.04,0.49,5,0,6,0.9,6865,9,96,44,36,870,371.0,510,467,60,123.0,131,1,301,186,49,0,0,365,230,0,371,-5.59,,,,,,,,,,,,
454404,1564150057406,-0,2.36,0.98,0.33,1.45,1.11,0.86,0.02,0.51,4,-0,5,0.86,6848,9,96,44,36,871,369.0,503,468,60,123.0,131,1,301,186,49,0,0,364,-1268,-6656,369,-5.59,,,,,,,,,,,,
454424,1564150057426,2,2.35,0.98,0.33,1.46,1.11,0.94,-0.04,0.5,4,-1,6,0.94,6793,9,96,44,36,873,370.0,510,466,60,122.0,130,1,301,186,48,0,0,364,3082,-6656,370,-5.59,,,,,,,,,,,,
454444,1564150057446,-2,2.36,0.97,0.33,1.45,1.12,0.84,0.0,0.49,5,1,5,0.84,6793,9,96,44,36,875,368.0,508,470,60,122.0,130,1,301,186,48,0,0,125,-1268,742,369,-5.59,44.680874,10.02474,36.38,176.6,0,0.0,-1,0.0,0.0,0,3.34,7.5741
454464,1564150057466,2,2.36,0.97,0.33,1.45,1.11,0.94,-0.0,0.47,4,-1,6,0.94,6776,9,96,44,36,877,369.0,500,468,60,124.0,130,1,301,186,48,0,0,359,3082,0,369,-5.59,,,,,,,,,,,,
454484,1564150057486,-1,2.36,0.98,0.34,1.46,1.11,0.8,0.02,0.47,5,-0,4,0.8,6754,9,96,44,36,879,368.0,507,470,60,123.0,130,1,301,186,48,0,0,364,-6405,486,368,-5.59,,,,,,,,,,,,
454504,1564150057504,1,2.35,0.97,0.33,1.46,1.1,0.92,-0.0,0.46,4,-1,5,0.92,6703,9,96,44,37,880,367.0,496,464,60,124.0,130,1,304,192,48,0,0,362,3082,0,367,-5.59,,,,,,,,,,,,
454524,1564150057524,-1,2.35,0.98,0.32,1.46,1.11,0.87,-0.01,0.4,4,1,5,0.87,6727,9,96,44,37,882,366.0,503,471,60,122.0,130,1,304,192,48,0,0,362,2790,0,366,-5.59,,,,,,,,,,,,
454544,1564150057544,2,2.34,0.97,0.33,1.46,1.11,0.98,-0.08,0.52,3,-2,4,0.98,6751,9,96,44,37,882,365.0,507,470,60,124.0,130,1,304,192,48,0,0,363,2790,-6458,363,-5.59,44.68087,10.024728,36.42,176.6,0,0.0,-1,0.0,0.0,0,3.34,7.5757
454564,1564150057564,-0,2.34,0.97,0.33,1.45,1.11,0.83,-0.06,0.53,3,0,4,0.84,6783,8,96,44,37,881,363.0,514,467,60,123.0,130,1,304,192,48,0,0,361,-14707,-29978,363,-5.59,,,,,,,,,,,,
454584,1564150057584,2,2.34,0.97,0.33,1.46,1.11,0.9,-0.08,0.53,3,-2,5,0.9,6773,7,96,44,36,877,362.0,514,467,60,123.0,130,1,301,186,48,0,0,360,-6640,-29978,362,-5.59,,,,,,,,,,,,
454604,1564150057608,-0,2.34,0.97,0.33,1.45,1.11,0.76,0.01,0.47,4,1,3,0.76,6759,7,96,44,36,872,361.0,511,471,60,122.0,130,1,301,186,48,0,0,357,-29302,-29302,361,-5.59,,,,,,,,,,,,
454624,1564150057628,2,2.33,0.97,0.33,1.46,1.1,0.88,-0.01,0.48,3,-2,3,0.88,6761,7,96,44,35,868,362.0,503,467,60,124.0,130,1,298,181,47,0,0,359,-14707,-6458,362,-5.59,,,,,,,,,,,,
454644,1564150057648,-2,2.34,0.96,0.33,1.45,1.11,0.73,0.02,0.51,4,-0,2,0.73,6730,7,96,44,35,864,361.0,516,467,60,122.0,130,1,298,181,47,0,0,357,-29978,2790,359,-5.59,44.680866,10.024716,35.97,176.5,0,0.0,-1,0.0,0.0,0,3.34,7.5774
454664,1564150057668,0,2.34,0.97,0.33,1.45,1.1,0.86,-0.02,0.57,3,-1,2,0.86,6708,7,96,44,35,859,362.0,496,466,60,124.0,130,1,298,181,47,0,0,4293,-29978,-14707,360,-5.59,,,,,,,,,,,,
454684,1564150057688,-0,2.33,0.97,0.33,1.46,1.11,0.74,-0.05,0.5,3,1,2,0.74,6674,6,96,44,35,855,361.0,492,469,60,124.0,130,1,298,181,47,0,0,664,-29978,2790,361,-5.59,,,,,,,,,,,,
454704,1564150057708,1,2.34,0.97,0.33,1.45,1.11,0.85,-0.09,0.52,2,-0,2,0.85,6660,6,96,44,35,853,359.0,498,466,60,124.0,125,1,298,181,45,0,0,664,2060,-14707,359,-5.59,,,,,,,,,,,,
454724,1564150057728,3,2.33,0.96,0.33,1.46,1.1,0.77,-0.09,0.51,2,0,3,0.77,6646,6,96,44,35,853,358.0,487,469,60,124.0,125,1,298,181,45,0,0,664,4104,-6640,358,-5.59,,,,,,,,,,,,
454744,1564150057748,-2,2.34,0.97,0.33,1.46,1.1,0.84,-0.03,0.5,2,1,3,0.84,6595,6,96,44,34,852,359.0,497,466,60,123.0,125,1,295,175,45,0,0,664,2060,-6644,359,-5.59,44.680866,10.024705,35.52,176.5,0,0.0,-1,0.0,0.0,0,3.34,7.5791
454764,1564150057768,1,2.34,0.97,0.33,1.45,1.11,0.77,-0.06,0.58,2,0,3,0.77,6590,6,96,44,34,851,355.0,488,467,60,124.0,125,1,295,175,45,0,0,664,-6644,2060,355,-5.59,,,,,,,,,,,,
454784,1564150057788,0,2.34,0.97,0.33,1.45,1.1,0.81,0.01,0.51,2,2,2,0.81,6569,6,96,44,34,850,355.0,492,470,60,123.0,125,1,295,175,45,0,0,346,-6644,-29978,355,-5.59,,,,,,,,,,,,
454804,1564150057807,-0,2.35,0.97,0.33,1.46,1.1,0.93,-0.04,0.49,2,-1,3,0.93,6576,6,96,44,34,850,354.0,501,466,60,124.0,125,1,295,175,45,0,0,348,3183,-6644,355,-5.59,,,,,,,,,,,,
454824,1564150057827,3,2.34,0.97,0.34,1.46,1.11,0.79,-0.02,0.53,2,-0,3,0.79,6558,6,96,44,34,848,354.0,490,465,60,124.0,121,1,295,175,43,0,0,350,-6644,3302,354,-5.59,,,,,,,,,,,,
454844,1564150057847,-1,2.34,0.97,0.33,1.45,1.11,0.91,0.02,0.47,2,-0,2,0.91,6535,6,96,44,34,847,355.0,503,465,60,122.0,121,1,295,175,43,0,0,349,28553,2811,355,-5.59,44.680862,10.024693,35.32,176.5,0,0.0,-1,0.0,0.0,0,3.35,7.5807
454864,1564150057867,0,2.35,0.97,0.34,1.46,1.1,0.93,-0.04,0.43,1,-1,3,0.93,6533,6,96,44,34,845,353.0,482,467,60,124.0,121,1,295,175,43,0,0,350,-1246,-6644,353,-5.59,,,,,,,,,,,,
454884,1564150057887,3,2.34,0.97,0.33,1.45,1.11,0.86,-0.01,0.4,1,0,2,0.86,6524,6,96,44,34,843,349.0,484,466,60,124.0,121,1,295,175,43,0,0,349,2811,8841,350,-5.59,,,,,,,,,,,,
454904,1564150057907,-2,2.36,0.97,0.33,1.45,1.11,0.94,0.0,0.39,1,-1,2,0.94,6514,6,96,44,34,843,350.0,495,468,60,122.0,122,1,295,175,43,0,0,344,-30438,28553,350,-5.59,,,,,,,,,,,,
454924,1564150057927,2,2.36,0.97,0.33,1.46,1.11,0.89,-0.05,0.41,1,-3,2,0.89,6499,6,96,44,34,843,348.0,484,467,60,124.0,122,1,295,175,43,0,0,347,6870,6870,348,-5.59,,,,,,,,,,,,
454944,1564150057947,3,2.36,0.98,0.33,1.46,1.11,0.84,-0.0,0.42,2,-2,3,0.84,6469,6,96,44,34,845,346.0,481,466,60,124.0,122,1,295,175,43,0,0,345,-14714,-30438,347,-5.59,44.680859,10.024682,34.76,176.5,0,0.0,-1,0.0,0.0,0,3.35,7.5824
454964,1564150057967,-0,2.36,0.98,0.33,1.46,1.11,0.92,0.06,0.42,2,-1,3,0.92,6390,6,96,44,34,848,348.0,492,466,60,120.0,122,1,295,175,43,0,0,342,-14714,-30454,348,-5.59,,,,,,,,,,,,
454984,1564150057987,-0,2.37,0.97,0.34,1.46,1.12,0.94,-0.02,0.44,2,-3,3,0.94,6375,6,96,44,34,852,347.0,476,466,60,124.0,122,1,295,181,43,0,0,343,-10554,2811,347,-5.59,,,,,,,,,,,,
455004,1564150057999,1,2.37,0.98,0.34,1.46,1.11,0.81,-0.06,0.56,2,-1,3,0.81,6368,6,96,44,34,858,345.0,470,464,60,123.0,122,1,295,101,43,0,0,341,-31206,-10554,346,-5.59,,,,,,,,,,,,
455024,1564150058019,3,2.36,0.99,0.34,1.46,1.11,0.8,0.03,0.55,2,0,2,0.8,6345,6,96,44,35,862,345.0,463,468,60,124.0,121,1,298,181,42,0,0,339,3327,3327,345,-5.59,,,,,,,,,,,,
455044,1564150058039,-0,2.36,0.98,0.33,1.46,1.11,0.87,0.0,0.47,3,1,3,0.87,6373,6,96,44,35,865,342.0,473,467,60,122.0,121,1,298,107,42,0,0,341,-31222,-31206,342,-5.59,44.680855,10.02467,34.56,176.5,0,0.0,-1,0.0,0.0,0,3.35,7.5841
455064,1564150058059,0,2.36,0.98,0.34,1.45,1.12,0.98,-0.04,0.44,2,-3,3,0.98,6366,6,96,44,35,870,342.0,478,466,60,123.0,121,1,298,181,42,0,0,337,3327,-122,342,-5.59,,,,,,,,,,,,
455084,1564150058079,1,2.37,0.98,0.33,1.46,1.11,0.85,-0.03,0.5,2,-4,2,0.85,6364,6,96,44,35,874,342.0,477,467,60,124.0,121,1,298,181,42,0,0,337,-31222,4838,342,-5.59,,,,,,,,,,,,
455104,1564150058105,3,2.37,0.97,0.34,1.46,1.11,0.77,0.01,0.52,3,-2,2,0.77,6325,6,96,44,35,877,341.0,471,466,60,123.0,121,1,298,181,42,0,0,339,-122,3327,341,-5.59,,,,,,,,,,,,
455124,1564150058125,0,2.38,0.98,0.34,1.46,1.11,0.79,0.05,0.42,3,-1,2,0.79,6315,6,96,44,35,879,341.0,474,467,60,123.0,126,1,298,181,43,0,0,336,2560,3327,342,-5.59,,,,,,,,,,,,
455144,1564150058145,-0,2.38,0.98,0.34,1.45,1.12,0.87,0.05,0.3,3,0,3,0.87,6250,6,96,44,35,882,339.0,475,466,60,122.0,126,1,298,181,43,0,0,336,3346,2560,339,-5.59,44.680851,10.024658,34.13,176.5,0,0.0,-1,0.0,0.0,0,3.35,7.5857
455164,1564150058165,-1,2.4,0.98,0.34,1.46,1.12,0.93,0.01,0.29,3,-0,4,0.93,6273,6,96,44,35,882,338.0,471,465,60,124.0,126,1,298,186,43,0,0,333,4838,2560,338,-5.59,,,,,,,,,,,,
455184,1564150058185,1,2.4,0.99,0.34,1.46,1.12,0.85,-0.06,0.34,3,1,4,0.85,6231,5,96,44,35,882,339.0,476,464,60,125.0,126,1,298,181,43,0,0,334,-12032,2560,339,-5.59,,,,,,,,,,,,
455204,1564150058207,2,2.41,0.99,0.34,1.47,1.11,0.8,-0.03,0.38,4,1,4,0.8,6210,5,96,44,36,881,338.0,465,467,60,124.0,127,1,301,186,43,0,0,331,175,3346,338,-5.59,,,,,,,,,,,,
455224,1564150058227,2,2.41,0.99,0.33,1.46,1.11,0.76,0.04,0.38,5,3,4,0.76,6192,5,96,44,36,880,337.0,470,469,60,123.0,127,1,301,186,43,0,0,329,-22016,-32559,337,-5.59,,,,,,,,,,,,
455244,1564150058247,-1,2.42,0.99,0.34,1.46,1.12,0.85,0.0,0.37,5,2,4,0.85,6175,5,96,44,36,877,337.0,468,468,60,122.0,127,1,301,186,43,0,0,326,-22016,-6528,337,-5.59,44.680847,10.024648,33.13,176.5,0,0.0,-1,0.0,0.0,0,3.35,7.5874
455264,1564150058267,-1,2.41,0.99,0.34,1.47,1.12,0.96,-0.05,0.33,5,1,5,0.97,6161,5,96,44,36,873,336.0,472,470,60,122.0,127,1,301,186,43,0,0,325,-23296,-32559,336,-5.59,,,,,,,,,,,,
455284,1564150058287,-0,2.42,0.99,0.34,1.46,1.11,1.03,-0.09,0.31,5,-1,6,1.04,6163,5,96,44,36,871,336.0,468,471,60,121.0,127,1,301,186,43,0,0,325,-24576,-31222,336,-5.59,,,,,,,,,,,,
455304,1564150058307,-2,2.43,0.99,0.34,1.46,1.11,1.04,-0.11,0.3,5,-3,7,1.04,6123,5,96,44,37,870,335.0,465,467,60,123.0,131,1,304,192,44,0,0,323,160,175,335,-5.59,,,,,,,,,,,,
455324,1564150058327,-1,2.44,0.99,0.34,1.47,1.12,1.07,-0.16,0.3,6,-5,8,1.08,6060,5,96,44,37,868,334.0,456,466,60,123.0,131,1,304,192,44,0,0,322,-25856,-6528,334,-5.59,,,,,,,,,,,,
455344,1564150058347,0,2.45,0.99,0.34,1.46,1.12,1.1,-0.2,0.31,5,-8,8,1.11,6060,5,96,44,37,867,333.0,447,467,60,123.0,131,1,304,192,44,0,0,320,-25856,-20736,333,-5.59,44.680847,10.024636,33.14,176.5,0,0.0,-1,0.0,0.0,0,3.35,7.5891
455364,1564150058367,0,2.46,1.0,0.34,1.47,1.12,1.08,-0.26,0.33,5,-9,9,1.11,6052,5,96,44,37,866,333.0,451,466,60,124.0,131,1,304,192,44,0,0,316,-27136,175,332,-5.59,,,,,,,,,,,,
455384,1564150058387,-0,2.46,0.99,0.34,1.47,1.11,0.98,-0.3,0.31,6,-10,10,1.02,6013,5,96,44,37,866,332.0,455,470,60,122.0,131,1,304,192,44,0,0,317,140,-20736,332,-5.59,,,,,,,,,,,,
455404,1564150058407,-1,2.47,0.99,0.34,1.47,1.12,0.91,-0.33,0.28,6,-10,10,0.97,6021,5,96,44,37,864,331.0,448,465,60,123.0,132,1,304,197,44,0,0,316,-29696,170,331,-5.59,,,,,,,,,,,,
455424,1564150058427,0,2.48,1.0,0.34,1.47,1.12,0.9,-0.42,0.29,6,-11,11,0.99,6001,5,96,44,37,862,331.0,446,467,60,123.0,132,1,304,197,44,0,0,310,-30976,170,331,-5.59,,,,,,,,,,,,
455444,1564150058447,-0,2.49,1.0,0.34,1.48,1.12,0.88,-0.48,0.3,7,-12,11,1.0,5967,5,96,44,38,861,329.0,443,466,60,122.0,132,1,305,196,44,0,0,311,130,165,329,-5.59,44.680847,10.024625,32.56,176.5,0,0.0,-1,0.0,0.0,0,3.35,7.5907
455464,1564150058467,-0,2.49,1.0,0.34,1.47,1.12,0.9,-0.49,0.31,7,-13,12,1.03,5924,5,96,44,38,860,329.0,450,467,60,121.0,132,1,302,202,44,0,0,310,32000,175,329,-5.59,,,,,,,,,,,,
455484,1564150058487,-1,2.49,1.0,0.34,1.47,1.12,0.96,-0.46,0.32,7,-15,13,1.06,5875,5,96,44,38,858,329.0,451,466,60,122.0,132,1,299,202,44,0,0,310,120,-22016,329,-5.59,,,,,,,,,,,,
455504,1564150058507,-2,2.49,0.99,0.34,1.47,1.12,1.06,-0.42,0.33,7,-17,14,1.14,5894,5,96,44,39,857,327.0,442,467,60,122.0,132,1,303,202,44,0,0,307,30720,165,327,-5.59,,,,,,,,,,,,
455524,1564150058527,-1,2.5,1.0,0.33,1.47,1.12,1.15,-0.41,0.39,8,-18,14,1.22,5874,5,96,44,39,857,324.0,444,469,60,122.0,137,1,302,202,45,0,0,305,115,155,324,-5.59,,,,,,,,,,,,
455544,1564150058547,2,2.49,0.99,0.34,1.47,1.12,1.24,-0.4,0.42,8,-18,13,1.3,5839,5,96,44,39,856,324.0,440,467,60,123.0,137,1,300,129,45,0,0,304,29440,155,324,-5.59,44.680843,10.024613,31.89,176.5,0,0.0,-1,0.0,0.0,0,3.35,7.5924
455564,1564150058567,2,2.5,1.0,0.34,1.47,1.12,1.25,-0.37,0.41,9,-15,14,1.3,5797,5,97,44,40,855,323.0,432,469,60,124.0,137,1,302,129,45,0,0,302,110,150,323,-5.59,,,,,,,,,,,,
455584,1564150058587,2,2.5,1.0,0.34,1.48,1.12,1.17,-0.34,0.45,9,-12,14,1.21,5794,5,96,44,40,853,322.0,423,467,60,124.0,137,1,302,202,45,0,0,300,28160,145,322,-5.59,,,,,,,,,,,,
455604,1564150058607,0,2.51,0.99,0.34,1.47,1.12,1.03,-0.34,0.44,10,-9,14,1.08,5758,5,96,44,40,851,321.0,428,469,60,124.0,137,1,300,202,45,0,0,303,26880,-27136,321,-5.59,,,,,,,,,,,,
455624,1564150058627,-0,2.52,0.99,0.34,1.47,1.12,0.93,-0.37,0.43,11,-9,15,1.0,5756,5,96,44,41,849,321.0,431,468,60,124.0,137,1,305,131,44,0,0,297,26880,145,321,-5.59,,,,,,,,,,,,
455644,1564150058647,-1,2.53,0.99,0.34,1.47,1.12,0.92,-0.34,0.43,12,-11,15,0.98,5704,5,96,44,41,850,318.0,441,470,60,122.0,137,1,302,204,44,0,0,298,25600,145,318,-5.59,44.680843,10.024603,31.42,176.5,0,0.0,-1,0.0,0.0,0,3.35,7.5941
455664,1564150058667,2,2.55,1.0,0.34,1.47,1.12,1.03,-0.38,0.4,12,-12,15,1.1,5659,5,96,44,41,850,318.0,434,466,60,122.0,137,1,299,204,44,0,0,297,90,-29696,318,-5.59,,,,,,,,,,,,
455684,1564150058687,3,2.55,1.0,0.34,1.48,1.12,1.1,-0.36,0.37,12,-10,16,1.16,5680,5,96,44,42,852,317.0,414,467,60,124.0,137,1,305,132,44,0,0,293,85,-30976,317,-5.59,,,,,,,,,,,,
455704,1564150058707,-1,2.56,1.0,0.35,1.47,1.13,0.99,-0.37,0.4,14,-8,16,1.06,5681,5,96,44,42,853,317.0,420,467,60,124.0,137,1,305,205,44,0,0,292,21760,-29696,317,-5.59,,,,,,,,,,,,
455724,1564150058727,-0,2.56,1.01,0.34,1.48,1.12,0.86,-0.42,0.32,14,-7,18,0.96,5640,5,96,44,43,856,318.0,426,468,60,122.0,138,1,307,207,44,0,0,289,20480,-30976,318,-5.59,,,,,,,,,,,,
455744,1564150058747,-2,2.56,1.0,0.34,1.46,1.12,0.98,-0.49,0.33,15,-9,19,1.09,5583,5,96,44,43,859,317.0,423,470,60,122.0,138,1,303,206,44,0,0,288,0,-32256,317,-5.59,44.68084,10.024592,30.97,176.5,0,0.0,-1,0.0,0.0,0,3.35,7.5957
455764,1564150058767,2,2.57,1.0,0.35,1.48,1.12,1.05,-0.41,0.27,15,-7,20,1.12,5547,5,96,44,44,861,316.0,407,467,60,122.0,138,1,305,208,44,0,0,285,0,130,316,-5.59,,,,,,,,,,,,
455784,1564150058787,-0,2.57,1.0,0.34,1.48,1.12,0.89,-0.47,0.33,16,-5,21,1.01,5572,5,96,44,44,861,314.0,416,468,60,124.0,138,1,307,208,44,0,0,284,0,-32256,314,-5.59,,,,,,,,,,,,
455804,1564150058807,-1,2.59,1.0,0.34,1.48,1.12,0.86,-0.45,0.32,17,-6,21,0.97,5553,5,96,44,44,862,313.0,425,468,60,122.0,140,1,305,209,44,0,0,286,10686,115,313,-5.59,,,,,,,,,,,,
455824,1564150058827,2,2.6,1.0,0.34,1.48,1.13,0.98,-0.49,0.34,17,-6,22,1.09,5519,4,96,45,45,866,312.0,426,467,60,123.0,140,1,307,209,44,0,0,281,250,29440,312,-5.59,,,,,,,,,,,,
455844,1564150058847,0,2.61,1.0,0.34,1.48,1.12,0.9,-0.49,0.4,18,-3,22,1.02,5484,4,96,44,45,868,312.0,408,467,60,123.0,140,1,304,209,44,0,0,281,-1529,30720,312,-5.59,44.68084,10.024582,30.2,176.5,0,0.0,-1,0.0,0.0,0,3.35,7.5974
455864,1564150058867,-0,2.62,1.01,0.34,1.49,1.12,0.84,-0.5,0.37,19,-4,24,0.98,5476,5,96,45,46,869,312.0,415,468,60,122.0,140,1,307,211,44,0,0,276,250,125,312,-5.59,,,,,,,,,,,,
455884,1564150058887,2,2.63,1.01,0.34,1.47,1.13,0.95,-0.5,0.4,19,-4,25,1.07,5422,5,96,45,46,870,312.0,404,467,60,123.0,140,1,303,138,44,0,0,276,-1534,30720,312,-5.59,,,,,,,,,,,,
455904,1564150058906,-2,2.65,1.0,0.35,1.48,1.13,0.83,-0.55,0.42,21,-2,25,1.0,5409,5,96,45,46,870,310.0,407,468,60,122.0,138,1,302,211,43,0,0,275,630,115,310,-5.59,,,,,,,,,,,,
455924,1564150058926,2,2.66,1.01,0.34,1.48,1.13,0.91,-0.58,0.41,21,-4,26,1.08,5434,5,96,45,47,871,310.0,411,466,60,122.0,138,1,306,213,43,0,0,271,250,115,310,-5.59,,,,,,,,,,,,
455944,1564150058946,0,2.66,1.01,0.34,1.49,1.13,0.93,-0.55,0.44,22,-3,27,1.08,5394,5,96,45,47,869,310.0,401,468,60,123.0,138,1,305,213,43,0,0,270,-1527,28160,310,181.28,44.68084,10.024571,29.52,176.5,0,0.0,-1,0.0,0.0,0,3.36,7.5991
455964,1564150058966,-2,2.68,1.01,0.34,1.49,1.13,0.83,-0.56,0.35,23,-4,29,1.01,5403,5,96,45,48,868,309.0,412,467,60,122.0,138,1,310,216,43,0,0,268,250,110,309,-5.59,,,,,,,,,,,,
455984,1564150058986,0,2.69,1.0,0.34,1.48,1.13,0.95,-0.53,0.36,23,-4,30,1.09,5343,4,96,45,48,866,309.0,394,466,60,123.0,138,1,304,215,43,0,0,267,-1,28160,309,-5.59,,,,,,,,,,,,
456004,1564150059000,-2,2.7,1.0,0.35,1.49,1.12,0.83,-0.59,0.34,25,-1,32,1.02,5299,5,96,45,48,862,310.0,405,468,60,123.0,138,1,300,215,43,0,0,265,-1,29440,310,-5.59,,,,,,,,,,,,
456024,1564150059020,1,2.7,1.0,0.35,1.48,1.13,0.95,-0.62,0.36,25,-3,33,1.13,5290,5,96,45,49,861,308.0,389,468,60,123.0,138,1,304,215,43,0,0,263,-1,28160,308,-5.59,,,,,,,,,,,,
456044,1564150059040,-0,2.72,1.0,0.34,1.49,1.13,0.84,-0.67,0.46,26,-0,33,1.07,5237,5,96,45,49,858,308.0,394,467,60,122.0,138,1,299,218,43,0,0,261,-1,115,308,-5.59,44.68084,10.024561,29.26,176.5,0,0.0,-1,0.0,0.0,0,3.36,7.6007
456064,1564150059060,1,2.73,1.01,0.33,1.49,1.13,0.94,-0.74,0.45,26,-3,35,1.2,5198,5,97,45,49,854,307.0,375,465,60,123.0,138,1,295,218,43,0,0,259,-1,28160,307,-5.59,,,,,,,,,,,,
456084,1564150059080,-0,2.74,1.01,0.33,1.49,1.13,0.85,-0.77,0.47,28,-0,35,1.14,5205,4,96,45,49,850,307.0,391,468,60,124.0,138,1,296,222,43,0,0,258,-1,25600,307,-5.59,,,,,,,,,,,,
456104,1564150059106,-0,2.75,1.01,0.32,1.48,1.13,0.94,-0.75,0.46,28,-3,35,1.2,5195,4,96,45,50,848,307.0,378,467,60,124.0,138,1,299,218,43,0,0,257,-1,105,307,-5.59,,,,,,,,,,,,
456124,1564150059126,0,2.76,1.01,0.33,1.49,1.12,0.84,-0.74,0.37,29,-2,37,1.12,5149,5,96,45,50,845,306.0,385,467,60,123.0,140,1,295,221,43,0,0,254,-1,95,306,-5.59,,,,,,,,,,,,
456144,1564150059146,-0,2.77,1.0,0.33,1.48,1.13,0.91,-0.69,0.37,30,-2,39,1.14,5118,5,96,45,50,841,306.0,377,466,60,124.0,140,1,292,221,43,0,0,252,14337,24320,306,-5.59,44.68084,10.02455,28.63,176.4,0,0.0,-1,0.0,0.0,0,3.36,7.6024
456164,1564150059166,3,2.78,1.01,0.33,1.49,1.12,0.89,-0.73,0.27,31,-2,41,1.15,5102,5,96,45,51,838,304.0,385,469,60,122.0,140,1,296,224,43,0,0,249,14337,23040,304,-5.59,,,,,,,,,,,,
456184,1564150059186,0,2.79,1.01,0.33,1.5,1.12,0.89,-0.77,0.38,31,-0,41,1.17,5141,5,96,45,50,835,304.0,380,466,60,123.0,140,1,294,149,43,0,0,246,506,24320,305,-5.59,,,,,,,,,,,,
456204,1564150059206,1,2.81,1.01,0.32,1.49,1.12,0.98,-0.85,0.39,31,-2,43,1.3,5093,5,96,45,51,834,304.0,373,464,60,124.0,140,1,295,224,43,0,0,243,-1281,24320,304,-5.59,,,,,,,,,,,,
456224,1564150059226,-1,2.81,1.01,0.33,1.49,1.12,0.89,-0.85,0.4,32,-0,44,1.23,5032,5,96,45,51,835,305.0,382,472,60,122.0,141,1,289,226,43,0,0,244,-1,90,305,-5.59,,,,,,,,,,,,
456244,1564150059246,-2,2.81,1.01,0.32,1.49,1.13,0.95,-0.82,0.42,33,-1,45,1.26,5034,5,96,45,52,837,304.0,376,466,60,124.0,141,1,294,226,43,0,0,243,-1,90,304,181.28,44.68084,10.024541,28.27,176.4,0,0.0,-1,0.0,0.0,0,3.36,7.6041
456264,1564150059266,2,2.82,1.01,0.33,1.49,1.12,0.97,-0.85,0.34,34,-3,46,1.29,4960,5,96,45,52,839,303.0,381,469,60,123.0,141,1,286,225,43,0,0,245,-1,85,303,-5.59,,,,,,,,,,,,
456284,1564150059286,-0,2.82,1.01,0.33,1.49,1.12,0.84,-0.83,0.37,35,-1,45,1.18,4960,5,96,45,52,842,298.0,373,467,60,123.0,141,1,286,225,43,0,0,244,-214,20480,298,-5.59,,,,,,,,,,,,
456304,1564150059306,-1,2.82,1.01,0.33,1.48,1.12,0.96,-0.82,0.35,36,-1,46,1.26,4970,5,96,45,52,848,298.0,371,467,60,123.0,141,1,288,225,43,0,0,241,16896,20480,299,-5.59,,,,,,,,,,,,
456324,1564150059326,0,2.82,1.01,0.33,1.49,1.13,1.01,-0.84,0.42,36,-4,48,1.32,4916,5,96,45,53,853,299.0,358,465,60,124.0,140,1,285,156,42,0,0,235,-1494,20480,299,-5.59,,,,,,,,,,,,
456344,1564150059346,3,2.83,1.01,0.33,1.49,1.13,0.95,-0.83,0.4,36,-2,49,1.26,4905,5,96,45,53,857,298.0,370,470,60,122.0,140,1,282,228,42,0,0,233,10812,0,298,-5.59,44.680843,10.024531,27.65,176.4,0,0.0,-1,0.0,0.0,0,3.36,7.6057
456364,1564150059366,-1,2.82,1.01,0.32,1.5,1.12,0.93,-0.8,0.39,36,-0,49,1.23,4866,5,96,45,53,859,297.0,368,468,60,123.0,140,1,279,227,42,0,0,230,10812,0,298,-5.59,,,,,,,,,,,,
456384,1564150059386,-0,2.83,1.01,0.33,1.49,1.12,1.01,-0.79,0.37,37,-2,50,1.28,4853,5,96,45,53,865,297.0,349,466,60,123.0,140,1,277,227,42,0,0,232,15360,250,297,-5.59,,,,,,,,,,,,
456404,1564150059408,1,2.83,1.01,0.32,1.49,1.12,1.06,-0.8,0.38,37,-3,51,1.33,4837,5,96,45,53,871,295.0,350,462,60,123.0,140,1,275,226,42,0,0,234,15360,10686,295,-5.59,,,,,,,,,,,,
456424,1564150059428,2,2.84,1.01,0.32,1.49,1.13,1.0,-0.85,0.31,37,-2,51,1.32,4806,9,96,45,54,875,295.0,356,469,60,123.0,138,1,275,230,41,0,0,232,-1445,250,295,-5.59,,,,,,,,,,,,
456444,1564150059448,0,2.83,1.01,0.32,1.49,1.12,0.95,-0.83,0.3,38,-1,51,1.26,4791,11,96,45,54,879,293.0,361,469,60,122.0,138,1,273,232,41,0,0,232,-1445,250,293,-5.59,44.680847,10.024523,27.09,176.3,0,0.0,-1,0.0,0.0,0,3.36,7.6074
456464,1564150059468,-1,2.84,1.01,0.33,1.49,1.13,0.97,-0.86,0.34,38,-1,50,1.3,4802,12,96,45,55,883,292.0,353,465,60,123.0,138,1,272,233,41,0,0,231,250,24064,292,-5.59,,,,,,,,,,,,
456484,1564150059488,-1,2.83,1.01,0.32,1.49,1.12,1.02,-0.87,0.38,39,-2,51,1.34,4797,12,96,45,56,889,292.0,345,464,60,124.0,138,1,268,236,41,0,0,230,-17920,1886,292,-5.59,,,,,,,,,,,,
456504,1564150059508,1,2.84,1.01,0.33,1.49,1.13,1.05,-0.89,0.33,39,-1,52,1.38,4858,20,96,45,58,892,290.0,356,466,60,123.0,155,1,269,246,45,0,0,229,250,-16896,290,-5.59,,,,,,,,,,,,
456524,1564150059528,3,2.83,1.01,0.33,1.49,1.12,0.98,-0.89,0.33,39,-2,52,1.33,4857,29,96,45,62,893,289.0,362,472,60,122.0,155,1,258,259,45,0,0,227,250,-1534,289,-5.59,,,,,,,,,,,,
456544,1564150059548,-1,2.84,1.01,0.32,1.5,1.12,0.95,-0.9,0.35,39,-1,52,1.31,4917,34,96,45,66,893,288.0,357,465,60,123.0,155,1,265,292,45,0,0,227,250,250,288,-5.59,44.680847,10.024515,26.05,176.3,0,0.0,-1,0.0,0.0,0,3.36,7.6091
456564,1564150059568,-3,2.84,1.01,0.33,1.49,1.12,0.99,-0.86,0.38,40,-1,52,1.32,4965,37,96,45,71,892,288.0,356,463,60,124.0,155,1,271,315,45,0,0,227,8704,24064,288,181.28,,,,,,,,,,,,
456584,1564150059588,3,2.84,1.02,0.33,1.49,1.13,0.98,-0.86,0.3,39,-2,53,1.3,5100,41,96,45,76,890,286.0,369,472,60,122.0,155,1,282,348,45,0,0,227,13602,250,286,-5.59,,,,,,,,,,,,
456604,1564150059606,-2,2.84,1.01,0.33,1.49,1.12,0.89,-0.89,0.38,39,-0,52,1.25,5183,43,96,45,79,886,287.0,367,467,60,123.0,268,1,288,395,77,0,0,230,-1483,250,285,-5.59,,,,,,,,,,,,
456624,1564150059626,2,2.84,1.01,0.33,1.49,1.12,0.96,-0.88,0.36,39,-2,53,1.31,5271,45,96,45,83,880,285.0,378,469,60,123.0,268,1,294,445,77,0,0,228,-1483,630,285,-5.59,,,,,,,,,,,,
456644,1564150059646,-1,2.84,1.01,0.33,1.49,1.13,0.9,-0.85,0.44,39,2,52,1.24,5488,45,96,45,84,871,285.0,389,466,60,123.0,268,1,308,452,77,0,0,228,13602,-1527,285,-5.59,44.680851,10.024508,25.78,176.2,0,0.0,-1,0.0,0.0,0,3.36,7.6107
456664,1564150059666,1,2.83,1.01,0.32,1.49,1.13,0.8,-0.92,0.41,39,3,53,1.22,5661,45,96,45,83,862,283.0,403,463,60,122.0,268,1,320,456,77,0,0,228,250,250,283,-5.59,,,,,,,,,,,,
456684,1564150059686,-1,2.83,1.0,0.32,1.49,1.12,0.82,-0.92,0.48,39,-0,53,1.24,5712,46,96,45,83,856,283.0,416,466,60,121.0,268,1,323,454,77,0,0,255,-1483,1886,283,-5.59,,,,,,,,,,,,
456704,1564150059708,1,2.83,1.01,0.33,1.49,1.13,0.84,-0.86,0.49,39,1,53,1.21,5686,46,96,45,83,858,285.0,410,468,60,122.0,340,1,321,453,97,0,0,327,-1484,20480,285,-5.59,,,,,,,,,,,,
456724,1564150059728,2,2.81,1.01,0.32,1.49,1.12,0.83,-0.83,0.56,40,2,52,1.17,5725,46,96,45,82,867,292.0,405,468,60,123.0,340,1,325,446,97,0,0,355,-17920,20480,292,-5.59,,,,,,,,,,,,
456744,1564150059748,1,2.81,1.01,0.32,1.49,1.12,0.78,-0.87,0.63,40,3,52,1.16,5852,46,96,45,82,877,295.0,414,465,60,124.0,340,1,334,450,97,0,0,293,23482,95,295,-5.59,44.680859,10.024502,25.63,176.2,0,0.0,-1,0.0,0.0,0,3.36,7.6124
456764,1564150059768,1,2.8,1.01,0.32,1.5,1.12,0.69,-0.9,0.65,40,3,52,1.14,5832,46,96,45,82,893,299.0,421,468,60,124.0,340,1,332,448,97,0,0,259,250,29440,299,-5.59,,,,,,,,,,,,
456784,1564150059788,0,2.78,1.01,0.33,1.5,1.13,0.71,-0.92,0.58,39,1,53,1.17,5683,47,96,45,82,914,305.0,420,466,60,123.0,340,1,322,444,97,0,0,345,-1,30720,305,-5.59,,,,,,,,,,,,
456804,1564150059806,-0,2.77,1.01,0.33,1.49,1.13,0.81,-0.9,0.56,38,-0,54,1.21,5673,47,96,45,82,947,308.0,411,467,60,123.0,308,1,322,444,95,0,0,329,506,120,308,-5.59,,,,,,,,,,,,
456824,1564150059826,3,2.75,1.01,0.32,1.49,1.13,0.86,-0.85,0.59,37,-1,53,1.21,5755,47,96,45,82,976,311.0,404,467,60,124.0,308,1,327,447,95,0,0,275,-1,125,311,-5.59,,,,,,,,,,,,
456844,1564150059846,1,2.75,1.01,0.33,1.49,1.13,0.79,-0.78,0.71,38,-2,52,1.11,5767,47,96,45,82,993,314.0,403,466,60,123.0,308,1,328,447,95,0,0,290,-1,-32256,314,-5.59,44.680862,10.024496,26.04,176.2,0,0.0,-1,0.0,0.0,0,3.36,7.6141
456864,1564150059866,1,2.74,1.0,0.33,1.49,1.13,0.67,-0.83,0.71,38,-1,51,1.06,5748,47,96,45,82,1008,315.0,405,469,60,123.0,308,1,327,446,95,0,0,359,-1,-28416,315,-5.59,,,,,,,,,,,,
456884,1564150059886,1,2.74,1.0,0.33,1.49,1.13,0.61,-0.88,0.72,38,-2,51,1.07,5892,47,96,45,82,1017,320.0,412,470,60,125.0,308,1,336,450,95,0,0,349,250,155,320,-5.59,,,,,,,,,,,,
456904,1564150059907,2,2.73,1.0,0.33,1.49,1.13,0.55,-0.92,0.78,37,-3,51,1.07,6149,48,96,45,82,1025,322.0,430,463,60,123.0,329,1,349,456,106,0,0,308,-1527,-23296,322,-5.59,,,,,,,,,,,,
456924,1564150059927,2,2.71,1.01,0.33,1.49,1.13,0.39,-0.92,0.8,37,-2,49,1.0,6347,48,96,45,81,1017,325.0,440,466,60,124.0,329,1,357,393,106,0,0,301,30208,-24576,325,-5.59,,,,,,,,,,,,
456944,1564150059947,-1,2.7,1.01,0.33,1.49,1.12,0.45,-0.87,0.73,38,-0,49,0.98,6397,48,96,45,81,1009,328.0,455,465,60,123.0,329,1,358,454,106,0,0,358,1886,175,328,-5.59,44.680866,10.02449,28.25,176.1,0,0.0,-1,0.0,0.0,0,3.36,7.6157
456964,1564150059967,1,2.67,1.01,0.33,1.49,1.13,0.45,-0.78,0.79,38,-0,50,0.9,6394,48,96,45,81,1004,334.0,461,466,60,123.0,329,1,358,454,106,0,0,357,-16896,3346,334,-5.59,,,,,,,,,,,,
456984,1564150059987,2,2.64,1.01,0.33,1.49,1.12,0.5,-0.82,0.77,38,0,50,0.96,6427,48,96,45,81,1000,336.0,451,467,60,124.0,329,1,359,455,106,0,0,310,0,-31222,336,-5.59,,,,,,,,,,,,
457004,1564150059999,3,2.63,1.01,0.32,1.49,1.12,0.44,-0.79,0.89,37,3,49,0.91,6379,48,96,45,81,1002,338.0,455,470,60,124.0,325,1,358,454,110,0,0,317,21760,-14714,338,-5.59,,,,,,,,,,,,
457024,1564150060019,-1,2.61,1.0,0.33,1.49,1.12,0.49,-0.71,0.91,36,1,48,0.87,6287,48,96,45,81,1006,339.0,461,470,60,122.0,325,1,355,452,110,0,0,349,100,3327,340,-5.59,,,,,,,,,,,,
457044,1564150060039,-1,2.59,1.0,0.33,1.48,1.13,0.52,-0.71,0.92,34,-1,46,0.88,6277,48,96,45,81,1012,342.0,457,462,60,122.0,325,1,354,452,110,0,0,343,115,-31206,342,-5.59,44.680874,10.024486,29.66,176.1,0,0.0,-1,0.0,0.0,0,3.36,7.6174
457064,1564150060059,1,2.56,1.0,0.33,1.49,1.12,0.58,-0.77,0.95,32,-2,44,0.96,6315,47,96,45,81,1017,342.0,451,463,60,124.0,325,1,356,453,110,0,0,337,125,-30438,342,-5.59,,,,,,,,,,,,
457084,1564150060079,1,2.56,1.0,0.32,1.49,1.12,0.48,-0.73,0.94,31,-2,42,0.87,6360,47,96,45,81,1018,344.0,451,468,60,124.0,325,1,357,394,110,0,0,331,140,2811,345,-5.59,,,,,,,,,,,,
457104,1564150060105,0,2.54,1.0,0.33,1.48,1.12,0.46,-0.69,0.93,30,2,40,0.83,6427,47,96,45,81,1020,346.0,445,470,60,124.0,320,1,359,455,111,0,0,351,-25856,3183,346,-5.59,,,,,,,,,,,,
457124,1564150060125,0,2.54,1.0,0.33,1.49,1.12,0.61,-0.61,0.85,28,-1,40,0.87,6512,47,96,45,81,1019,349.0,463,467,60,123.0,320,1,362,457,111,0,0,351,165,-6644,349,-5.59,,,,,,,,,,,,
457144,1564150060145,2,2.54,1.0,0.33,1.49,1.12,0.52,-0.67,0.96,27,-1,38,0.85,6625,46,96,45,81,1017,352.0,462,467,60,123.0,320,1,366,458,111,0,0,355,-22016,3302,352,-5.59,44.680882,10.024482,31.4,176.0,0,0.0,-1,0.0,0.0,0,3.36,7.6191
457164,1564150060165,-2,2.54,1.0,0.33,1.48,1.12,0.56,-0.56,0.9,27,1,36,0.79,6783,46,96,45,80,1014,355.0,480,465,60,122.0,320,1,372,453,111,0,0,363,-20736,-29978,355,-5.59,,,,,,,,,,,,
457184,1564150060185,1,2.53,1.0,0.33,1.48,1.13,0.53,-0.64,0.96,25,-2,35,0.83,6838,46,96,45,80,1010,358.0,476,468,60,123.0,320,1,374,455,111,0,0,361,3346,-14707,358,-5.59,,,,,,,,,,,,
457204,1564150060207,2,2.53,1.0,0.33,1.49,1.12,0.52,-0.55,0.82,25,0,34,0.76,6880,46,96,45,80,997,362.0,490,466,60,122.0,320,1,375,456,111,0,0,359,2560,257,362,-5.59,,,,,,,,,,,,
457224,1564150060227,-0,2.52,1.01,0.33,1.48,1.12,0.47,-0.65,0.9,24,0,32,0.8,6858,46,96,45,79,983,364.0,482,466,60,124.0,328,1,375,449,119,0,0,370,-122,257,366,-5.59,,,,,,,,,,,,
457244,1564150060247,2,2.52,1.01,0.33,1.49,1.13,0.59,-0.67,0.84,23,-0,32,0.89,6911,46,96,45,79,970,367.0,493,467,60,123.0,328,1,377,450,119,0,0,371,-10554,742,369,-5.59,44.680889,10.024479,33.34,176.0,0,0.0,-1,0.0,0.0,0,3.37,7.6207
457264,1564150060267,-0,2.5,1.0,0.33,1.48,1.12,0.52,-0.64,0.77,22,1,32,0.82,6939,46,96,45,79,959,371.0,497,467,60,122.0,328,1,376,450,119,0,0,372,8841,1,371,-5.59,,,,,,,,,,,,
457284,1564150060287,2,2.5,1.0,0.34,1.48,1.13,0.57,-0.7,0.89,21,1,31,0.91,6936,46,96,45,79,936,373.0,488,466,60,123.0,328,1,377,450,119,0,0,367,28553,-6656,373,-5.59,,,,,,,,,,,,
457304,1564150060307,2,2.48,1.01,0.33,1.49,1.13,0.65,-0.6,0.81,21,1,31,0.89,6978,46,96,45,78,910,375.0,508,465,60,123.0,317,1,380,450,119,0,0,374,3302,-6656,375,-5.59,,,,,,,,,,,,
457324,1564150060327,-1,2.47,1.0,0.33,1.48,1.12,0.61,-0.65,0.69,20,1,30,0.89,7054,46,96,45,79,892,378.0,510,468,60,122.0,317,1,383,451,119,0,0,379,-29978,-992,378,-5.59,,,,,,,,,,,,
457344,1564150060347,-0,2.47,1.0,0.33,1.49,1.12,0.71,-0.64,0.82,18,-0,28,0.95,7153,50,96,45,78,878,379.0,508,462,60,124.0,317,1,389,444,119,0,0,384,2790,-992,379,-5.59,44.680897,10.024476,34.7,175.9,0,0.0,-1,0.0,0.0,0,3.37,7.6224
457364,1564150060367,3,2.46,0.99,0.33,1.49,1.12,0.69,-0.58,0.93,18,0,27,0.91,7301,58,96,45,79,853,382.0,529,467,60,123.0,317,1,397,452,119,0,0,386,3082,-19019,382,-5.59,,,,,,,,,,,,
457384,1564150060387,0,2.46,1.0,0.33,1.48,1.12,0.65,-0.56,0.86,17,3,28,0.86,7393,66,96,45,82,824,384.0,523,465,60,123.0,317,1,402,474,119,0,0,392,230,-6656,384,-5.59,,,,,,,,,,,,
457404,1564150060407,2,2.46,1.0,0.33,1.47,1.12,0.55,-0.4,0.78,17,6,28,0.68,7530,73,96,45,85,802,386.0,529,464,60,124.0,367,1,410,498,142,0,0,392,-6656,-6656,386,-5.59,,,,,,,,,,,,
457424,1564150060427,1,2.47,1.0,0.33,1.48,1.12,0.41,-0.32,0.89,17,7,27,0.52,7606,80,96,45,88,787,392.0,543,467,60,122.0,367,1,417,523,142,0,0,412,742,6512,392,-5.59,,,,,,,,,,,,
457444,1564150060447,-1,2.46,1.0,0.33,1.48,1.13,0.39,-0.21,0.97,17,7,25,0.44,7773,84,96,45,90,774,395.0,551,466,60,123.0,367,1,432,545,142,0,0,412,8200,1504,395,-5.59,44.680904,10.024474,35.86,175.9,0,0.0,-1,0.0,0.0,0,3.37,7.6241
457464,1564150060467,1,2.45,1.0,0.34,1.48,1.12,0.43,-0.22,1.04,16,8,24,0.48,7835,87,96,45,91,763,399.0,545,463,60,124.0,367,1,436,549,142,0,0,414,-19126,9517,399,-5.59,,,,,,,,,,,,
457484,1564150060487,2,2.45,1.0,0.34,1.48,1.13,0.43,-0.31,1.05,16,8,23,0.53,7924,89,96,45,91,759,403.0,558,467,60,123.0,367,1,443,553,142,0,0,421,-1562,3826,403,-5.59,,,,,,,,,,,,
457504,1564150060507,-0,2.45,0.99,0.34,1.48,1.13,0.41,-0.34,1.11,16,8,21,0.53,8043,89,96,45,91,764,410.0,571,467,60,123.0,367,1,448,560,142,0,0,435,17144,-21792,410,-5.59,,,,,,,,,,,,
457524,1564150060527,1,2.46,0.99,0.34,1.48,1.12,0.45,-0.41,1.17,15,7,20,0.61,8099,89,96,45,90,770,415.0,562,465,60,123.0,417,1,448,565,171,0,0,443,28696,1779,415,-5.59,,,,,,,,,,,,
457544,1564150060547,3,2.44,0.99,0.33,1.48,1.12,0.37,-0.42,1.23,15,7,19,0.56,8252,92,96,45,90,780,421.0,578,466,60,122.0,417,1,443,583,171,0,0,446,1504,26704,421,-5.59,44.680916,10.024471,37.49,175.9,0,0.0,-1,0.0,0.0,0,3.37,7.6257
457564,1564150060567,1,2.45,0.99,0.34,1.48,1.13,0.44,-0.41,1.3,15,7,18,0.6,8404,95,96,45,90,788,427.0,590,466,60,123.0,417,1,439,590,171,0,0,442,9517,23400,427,-5.59,,,,,,,,,,,,
457584,1564150060587,0,2.44,1.0,0.33,1.48,1.12,0.36,-0.38,1.37,15,7,17,0.52,8534,98,96,45,89,793,432.0,589,465,60,123.0,417,1,434,600,171,0,0,453,18584,-8985,432,-5.59,,,,,,,,,,,,
457604,1564150060607,2,2.43,1.0,0.33,1.48,1.12,0.3,-0.4,1.32,15,6,17,0.5,8676,100,96,45,89,798,440.0,602,464,60,123.0,417,1,429,590,171,0,0,465,-3414,16408,439,-5.59,,,,,,,,,,,,
457624,1564150060627,1,2.44,0.99,0.33,1.48,1.12,0.32,-0.39,1.06,15,4,19,0.51,8831,100,96,44,88,805,444.0,615,466,60,123.0,448,1,424,590,197,0,0,474,3635,-1923,444,-5.59,,,,,,,,,,,,
457644,1564150060647,1,2.43,0.99,0.34,1.48,1.13,0.3,-0.33,1.01,15,3,19,0.45,8979,100,96,44,88,810,450.0,620,463,60,122.0,448,1,419,578,197,0,0,475,5600,10305,453,-5.59,44.680923,10.024469,39.75,175.8,0,0.0,-1,0.0,0.0,0,3.37,7.6274
457664,1564150060667,1,2.43,0.99,0.33,1.47,1.13,0.41,-0.33,0.76,14,2,20,0.53,9101,100,96,44,87,812,458.0,622,470,60,123.0,448,1,418,578,197,0,0,490,20625,3580,458,-5.59,,,,,,,,,,,,
457684,1564150060687,3,2.43,0.99,0.33,1.47,1.13,0.34,-0.3,0.74,14,2,21,0.46,9227,100,96,44,88,816,465.0,634,462,60,123.0,448,1,418,578,197,0,0,483,-18341,771,465,-5.59,,,,,,,,,,,,
457704,1564150060707,-1,2.43,0.99,0.34,1.48,1.12,0.26,-0.31,0.56,14,1,22,0.41,9305,100,96,44,87,827,471.0,632,466,60,122.0,433,1,418,578,204,0,0,500,3571,3,471,-5.59,,,,,,,,,,,,
457724,1564150060727,1,2.43,0.98,0.33,1.48,1.13,0.25,-0.37,0.7,13,1,21,0.45,9393,100,96,44,87,837,476.0,632,470,60,124.0,433,1,418,578,204,0,0,504,-9160,-21872,476,-5.59,,,,,,,,,,,,
457744,1564150060747,2,2.41,0.99,0.33,1.47,1.13,0.21,-0.35,0.83,14,1,19,0.41,9464,100,96,44,87,845,485.0,634,470,60,122.0,433,1,418,578,204,0,0,501,-3210,-3856,485,-5.59,44.680935,10.024469,42.83,175.8,0,0.0,-1,0.0,0.0,0,3.37,7.6291
457764,1564150060767,1,2.4,0.99,0.33,1.48,1.12,0.22,-0.31,0.54,14,-0,21,0.38,9580,100,96,44,87,858,488.0,638,464,60,123.0,433,1,416,570,204,0,0,508,3576,-3482,489,-5.59,,,,,,,,,,,,
457784,1564150060787,2,2.4,0.99,0.34,1.48,1.12,0.26,-0.33,0.63,13,0,20,0.42,9684,100,96,44,86,883,496.0,633,463,60,122.0,433,1,410,573,204,0,0,533,10305,26178,496,-5.59,,,,,,,,,,,,
457804,1564150060807,1,2.39,0.99,0.33,1.48,1.12,0.27,-0.35,0.59,13,0,20,0.45,9899,100,96,44,86,909,499.0,648,471,60,122.0,433,1,401,577,204,0,0,527,-899,-28648,499,-5.59,,,,,,,,,,,,
457824,1564150060827,2,2.4,0.98,0.33,1.47,1.13,0.35,-0.35,0.73,12,1,17,0.5,10016,100,96,44,86,926,505.0,639,468,60,122.0,432,1,396,580,216,0,0,524,505,14504,505,-5.59,,,,,,,,,,,,
457844,1564150060847,1,2.39,0.99,0.33,1.48,1.12,0.41,-0.35,0.7,11,0,17,0.54,10096,100,96,44,85,943,511.0,653,466,60,122.0,432,1,402,562,216,0,0,544,3,2524,511,-5.59,44.680946,10.024467,46.0,175.8,0,0.0,-1,0.0,0.0,0,3.37,7.6307
457864,1564150060867,1,2.38,0.99,0.33,1.47,1.12,0.33,-0.39,0.77,11,-0,16,0.51,10223,100,96,44,85,954,517.0,659,470,60,122.0,432,1,411,562,216,0,0,541,2109,2104,517,-5.59,,,,,,,,,,,,
457884,1564150060887,1,2.37,0.98,0.33,1.48,1.12,0.34,-0.37,0.8,10,0,16,0.5,10229,100,96,44,85,965,523.0,662,467,60,121.0,432,1,411,562,216,0,0,546,-4054,2104,523,-5.59,,,,,,,,,,,,
457904,1564150060906,0,2.37,0.99,0.33,1.48,1.12,0.28,-0.23,0.61,11,-1,17,0.37,10273,100,96,44,85,960,526.0,646,470,60,123.0,432,1,417,562,216,0,0,562,16383,2104,526,-5.59,,,,,,,,,,,,
457924,1564150060926,2,2.37,0.98,0.33,1.47,1.13,0.24,-0.14,0.6,11,-0,17,0.27,10393,100,96,44,85,953,533.0,648,468,60,122.0,418,1,423,562,220,0,0,562,1248,2524,533,-5.59,,,,,,,,,,,,
457944,1564150060946,-1,2.36,0.99,0.33,1.47,1.13,0.32,-0.1,0.69,10,1,17,0.33,10545,100,95,44,85,944,539.0,646,471,60,122.0,418,1,432,562,220,0,0,556,6274,-3190,539,-5.59,44.680958,10.024467,48.88,175.8,0,0.0,-1,0.0,0.0,0,3.37,7.6324
457964,1564150060966,1,2.35,0.99,0.33,1.48,1.12,0.34,0.11,0.78,10,1,16,0.36,10629,100,96,44,85,936,543.0,651,462,60,122.0,418,1,433,562,220,0,0,563,-32248,1267,543,-5.59,,,,,,,,,,,,
457984,1564150060986,1,2.36,0.99,0.33,1.47,1.12,0.35,0.21,0.69,9,-0,17,0.4,10714,100,96,44,85,932,547.0,662,467,60,121.0,418,1,436,562,220,0,0,575,-8186,15649,550,-5.59,,,,,,,,,,,,
458004,1564150061000,2,2.37,0.99,0.33,1.48,1.13,0.32,0.25,0.57,9,-1,16,0.4,10782,100,96,44,85,929,553.0,673,471,60,122.0,418,1,438,562,220,0,0,584,-506,-4035,553,-5.59,,,,,,,,,,,,
458024,1564150061020,1,2.37,0.98,0.33,1.48,1.12,0.23,0.18,0.53,9,-2,16,0.29,10932,100,96,44,85,927,558.0,653,468,60,122.0,415,1,442,562,230,0,0,590,6274,8488,558,-5.59,,,,,,,,,,,,
458044,1564150061040,1,2.36,0.98,0.33,1.48,1.12,0.33,-0.04,0.67,8,0,12,0.34,11061,100,96,44,85,925,563.0,656,466,60,122.0,415,1,444,562,230,0,0,590,-9072,-25872,564,-5.59,44.680969,10.024467,51.61,175.7,0,0.0,-1,0.0,0.0,0,3.37,7.6341
458064,1564150061060,0,2.36,0.98,0.33,1.47,1.13,0.31,0.12,0.58,8,3,13,0.33,11101,100,96,44,85,926,570.0,671,461,60,121.0,415,1,443,562,230,0,0,597,-28648,-13043,570,-5.59,,,,,,,,,,,,
458084,1564150061080,2,2.35,0.98,0.33,1.48,1.12,0.32,0.0,0.55,7,1,13,0.32,11187,100,96,44,85,927,577.0,664,465,60,121.0,415,1,443,544,230,0,0,600,-2934,-3446,577,-5.59,,,,,,,,,,,,
458104,1564150061106,1,2.34,0.98,0.33,1.47,1.12,0.29,0.04,0.65,7,1,12,0.3,11261,100,96,44,85,927,577.0,669,463,60,120.0,415,1,442,562,240,0,0,603,1760,-23055,579,-5.59,,,,,,,,,,,,
458124,1564150061126,3,2.35,0.99,0.33,1.47,1.13,0.33,-0.05,0.69,7,0,11,0.33,11308,100,96,44,85,927,585.0,660,467,60,122.0,415,1,441,562,240,0,0,608,259,5344,585,-5.59,,,,,,,,,,,,
458144,1564150061146,3,2.35,0.98,0.33,1.48,1.12,0.3,0.03,0.64,7,-0,11,0.3,11412,100,96,44,84,926,588.0,663,469,60,121.0,415,1,441,544,240,0,0,618,-16384,19621,588,-5.59,44.680984,10.024467,54.37,175.7,0,0.0,-1,0.0,0.0,0,3.38,7.6357
458164,1564150061166,1,2.35,0.99,0.33,1.48,1.12,0.25,-0.17,0.77,6,0,10,0.3,11538,100,95,44,84,924,593.0,671,470,60,121.0,415,1,440,545,240,0,0,623,-1894,-28304,593,-5.59,,,,,,,,,,,,
458184,1564150061186,2,2.35,0.99,0.33,1.47,1.13,0.18,-0.31,0.73,5,-0,9,0.36,11696,100,95,44,84,924,600.0,672,468,60,122.0,415,1,440,548,240,0,0,625,6273,771,600,-5.59,,,,,,,,,,,,
458204,1564150061206,2,2.35,0.98,0.33,1.47,1.13,0.15,-0.14,0.63,5,-1,10,0.2,11799,100,95,44,84,926,600.0,660,469,60,122.0,410,1,440,550,246,0,0,640,4956,3,603,-5.59,,,,,,,,,,,,
458224,1564150061226,2,2.35,0.98,0.33,1.47,1.12,0.18,0.08,0.55,5,-3,11,0.2,11912,100,95,44,84,928,606.0,681,470,60,121.0,410,1,440,554,246,0,0,635,-768,16599,606,-5.59,,,,,,,,,,,,
458244,1564150061246,2,2.35,0.99,0.33,1.48,1.13,0.2,0.27,0.57,6,-3,12,0.34,12003,100,95,44,83,931,613.0,676,469,60,121.0,410,1,440,555,246,0,0,645,-3820,6208,613,-5.59,44.681,10.024468,57.18,175.7,0,0.0,-1,0.0,0.0,0,3.38,7.6374
458264,1564150061266,3,2.35,0.99,0.33,1.48,1.12,0.25,0.45,0.62,5,-4,13,0.51,12050,100,95,44,83,924,616.0,680,469,60,121.0,410,1,440,555,246,0,0,644,28675,-6006,618,-5.59,,,,,,,,,,,,
458284,1564150061286,3,2.34,0.99,0.33,1.48,1.13,0.27,0.6,0.58,5,-4,13,0.66,12104,100,95,44,84,912,623.0,680,467,60,120.0,410,1,440,555,246,0,0,642,3403,-30207,623,-5.59,,,,,,,,,,,,
458304,1564150061306,3,2.35,0.98,0.33,1.48,1.12,0.28,0.74,0.58,5,-5,13,0.8,12183,100,95,44,84,899,626.0,664,472,60,121.0,408,1,440,555,256,0,0,654,3395,24583,626,-5.59,,,,,,,,,,,,
458324,1564150061326,1,2.34,0.99,0.33,1.48,1.12,0.24,0.67,0.65,5,-6,12,0.72,12270,100,95,44,83,883,632.0,669,467,60,122.0,408,1,440,540,256,0,0,650,-16046,8958,632,-5.59,,,,,,,,,,,,
458344,1564150061346,0,2.34,0.98,0.32,1.47,1.13,0.16,0.41,0.72,4,-6,11,0.44,12351,100,95,44,83,863,637.0,672,473,60,121.0,408,1,440,540,256,0,0,661,771,-2826,637,-5.59,44.681015,10.024469,59.5,175.6,0,0.0,-1,0.0,0.0,0,3.38,7.6391
458364,1564150061366,3,2.34,0.98,0.33,1.48,1.12,0.12,0.17,0.75,4,-4,8,0.21,12384,100,95,44,83,838,641.0,684,470,60,121.0,408,1,440,540,256,0,0,661,-5120,-2830,641,-5.59,,,,,,,,,,,,
458384,1564150061386,3,2.34,0.99,0.33,1.48,1.12,0.13,0.14,0.83,3,-3,9,0.19,12441,100,95,44,83,819,648.0,675,471,60,121.0,408,1,440,540,256,0,0,670,-3584,-26380,648,-5.59,,,,,,,,,,,,
458404,1564150061406,-1,2.34,0.99,0.33,1.47,1.12,0.19,0.25,0.79,3,-4,10,0.32,12516,100,95,44,83,809,649.0,675,471,60,122.0,394,1,440,540,256,0,0,676,11776,-2345,649,-5.59,,,,,,,,,,,,
458424,1564150061426,-1,2.34,0.98,0.33,1.47,1.13,0.23,0.23,0.91,4,-5,9,0.32,12278,100,96,44,83,800,653.0,691,468,60,124.0,394,1,440,540,256,0,0,674,479,-10346,653,-5.59,,,,,,,,,,,,
458444,1564150061446,-2,2.34,0.98,0.33,1.47,1.12,0.33,0.11,0.98,4,-5,7,0.35,11755,100,96,44,85,792,659.0,672,461,60,124.0,394,1,440,567,256,0,0,667,2024,-2826,659,181.28,44.681026,10.02447,61.86,175.6,0,0.0,-1,0.0,0.0,0,3.38,7.6407
458464,1564150061466,-1,2.33,0.98,0.33,1.47,1.12,0.41,0.06,0.87,3,-8,8,0.41,11446,100,96,44,86,786,658.0,673,462,60,123.0,394,1,441,580,256,0,0,656,-3488,8958,658,181.28,,,,,,,,,,,,
458484,1564150061486,-1,2.33,0.99,0.33,1.46,1.12,0.42,0.15,0.88,3,-9,8,0.45,11241,100,96,44,86,788,654.0,669,464,60,123.0,394,1,443,580,256,0,0,654,-3488,-3488,654,181.28,,,,,,,,,,,,
458504,1564150061508,3,2.34,0.98,0.33,1.47,1.13,0.38,-0.05,0.78,3,-10,7,0.38,11088,100,96,44,87,807,657.0,666,466,60,123.0,382,1,446,598,251,0,0,651,24583,-27404,657,181.28,,,,,,,,,,,,
458524,1564150061528,1,2.33,0.99,0.33,1.47,1.12,0.48,-0.19,0.9,2,-7,5,0.51,10844,100,95,44,88,875,654.0,657,466,60,120.0,382,1,443,1050,251,0,0,657,24583,24583,654,-5.59,,,,,,,,,,,,
458544,1564150061548,-0,2.33,0.99,0.34,1.47,1.13,0.54,-0.04,0.92,2,-3,4,0.54,10510,100,95,44,88,942,658.0,678,467,60,121.0,382,1,434,942,251,0,0,715,8958,16118,658,-5.59,44.681046,10.024472,64.19,175.6,0,0.0,-1,0.0,0.0,0,3.38,7.6424
458564,1564150061568,2,2.33,0.99,0.34,1.46,1.13,0.47,0.03,0.81,2,-4,6,0.47,9973,100,95,44,87,1007,665.0,656,465,60,122.0,382,1,398,812,251,0,0,807,-2826,-23490,665,-5.59,,,,,,,,,,,,
458584,1564150061588,2,2.34,0.98,0.32,1.46,1.12,0.36,0.08,0.86,2,-3,6,0.37,10206,100,95,44,86,1085,670.0,650,466,60,122.0,382,1,411,685,251,0,0,734,-3578,-2830,672,-5.59,,,,,,,,,,,,
458604,1564150061608,0,2.35,0.97,0.32,1.46,1.12,0.28,0.03,0.84,3,1,4,0.28,10229,100,95,44,86,1198,673.0,658,465,60,122.0,325,1,412,566,219,0,0,703,-26380,-12152,675,-5.59,,,,,,,,,,,,
458624,1564150061628,-0,2.36,0.97,0.32,1.46,1.11,0.31,-0.08,0.84,3,1,3,0.32,9894,100,95,44,86,1310,684.0,649,465,60,122.0,325,1,401,578,219,0,0,743,-3038,5876,684,-5.59,,,,,,,,,,,,
458644,1564150061648,2,2.35,0.97,0.33,1.45,1.11,0.17,-0.05,0.74,3,2,5,0.17,9715,93,95,44,85,1356,687.0,636,470,60,123.0,325,1,409,559,219,0,0,728,-26562,-31068,687,-5.59,44.681061,10.024474,64.91,175.6,0,0.0,-1,0.0,0.0,0,3.38,7.6441
458664,1564150061668,1,2.36,0.97,0.33,1.45,1.12,0.32,-0.1,0.86,3,2,3,0.33,9630,82,95,44,83,1391,693.0,627,468,60,122.0,325,1,414,546,219,0,0,721,24,-31068,693,-5.59,,,,,,,,,,,,
458684,1564150061688,1,2.35,0.97,0.32,1.46,1.12,0.35,0.01,0.84,3,-1,4,0.35,9600,72,95,44,79,1327,697.0,629,467,60,123.0,325,1,412,497,219,0,0,730,14342,204,697,-5.59,,,,,,,,,,,,
458704,1564150061708,2,2.35,0.98,0.33,1.46,1.12,0.45,-0.19,0.95,3,-2,2,0.49,9664,62,95,44,74,1263,701.0,626,468,60,123.0,226,1,408,437,159,0,0,723,-10448,-2830,701,-5.59,,,,,,,,,,,,
458724,1564150061728,0,2.36,0.97,0.33,1.46,1.13,0.43,-0.1,0.95,3,-1,2,0.44,9796,54,95,44,68,1152,705.0,645,465,60,121.0,226,1,404,406,159,0,0,722,6208,-2358,702,-5.59,,,,,,,,,,,,
458744,1564150061748,2,2.35,0.98,0.33,1.45,1.12,0.41,-0.19,0.88,3,-2,3,0.45,9827,45,96,44,63,1041,708.0,660,470,60,122.0,226,1,409,369,159,0,0,724,8010,-2830,708,-5.59,44.68108,10.024477,66.53,175.6,0,0.0,-1,0.0,0.0,0,3.39,7.6457
458764,1564150061768,1,2.36,0.98,0.33,1.47,1.12,0.3,-0.12,0.81,3,-1,4,0.33,9842,36,95,44,58,955,709.0,646,465,60,122.0,226,1,406,334,159,0,0,728,-12152,1524,712,-5.59,,,,,,,,,,,,
458784,1564150061788,1,2.36,0.98,0.33,1.46,1.12,0.29,-0.15,0.68,3,-1,4,0.33,9847,26,95,44,52,868,714.0,655,464,60,122.0,226,1,394,287,159,0,0,730,687,-2358,714,-5.59,,,,,,,,,,,,
458804,1564150061807,1,2.37,0.98,0.33,1.46,1.13,0.26,-0.21,0.67,4,-1,4,0.33,9765,21,96,44,47,878,718.0,658,473,60,123.0,226,1,380,236,159,0,0,728,204,-13580,719,-5.59,,,,,,,,,,,,
458824,1564150061827,4,2.36,0.99,0.33,1.47,1.12,0.35,-0.19,0.65,4,-2,4,0.39,9527,20,95,44,42,903,720.0,666,466,60,121.0,121,1,342,218,87,0,0,726,-13072,-4091,720,-5.59,,,,,,,,,,,,
458844,1564150061847,0,2.37,0.98,0.33,1.46,1.13,0.43,-0.09,0.62,4,-2,5,0.44,9365,20,95,44,40,918,720.0,648,471,60,121.0,121,1,327,212,87,0,0,715,-12152,204,719,-5.59,44.681095,10.024479,69.57,175.6,0,0.0,-1,0.0,0.0,0,3.39,7.6474
458864,1564150061867,1,2.37,0.98,0.34,1.47,1.13,0.3,-0.17,0.55,4,-1,5,0.35,9173,20,96,44,39,932,718.0,637,466,60,122.0,121,1,320,209,87,0,0,711,-13072,-2560,718,-5.59,,,,,,,,,,,,
458884,1564150061887,0,2.37,0.99,0.33,1.47,1.12,0.23,-0.3,0.53,5,1,4,0.38,8992,20,95,44,38,929,721.0,616,461,60,123.0,121,1,317,204,87,0,0,706,-12152,-2830,715,-5.59,,,,,,,,,,,,
458904,1564150061907,1,2.36,0.99,0.34,1.46,1.13,0.14,-0.44,0.46,5,2,4,0.46,8778,20,95,44,38,918,715.0,611,468,60,123.0,93,1,317,204,67,0,0,710,-3888,-23490,721,-5.59,,,,,,,,,,,,
458924,1564150061927,5,2.36,0.99,0.33,1.47,1.12,0.14,-0.45,0.4,5,2,5,0.47,8668,16,95,44,37,893,717.0,625,467,60,122.0,93,1,314,200,67,0,0,697,-30694,6658,717,-5.59,,,,,,,,,,,,
458944,1564150061947,5,2.37,0.99,0.33,1.47,1.12,0.22,-0.28,0.46,5,2,5,0.35,8704,14,95,44,36,865,710.0,630,470,60,123.0,93,1,311,197,67,0,0,693,-20693,-3584,711,-5.59,44.68111,10.024482,70.81,175.6,0,0.0,-1,0.0,0.0,0,3.39,7.6491
458964,1564150061967,4,2.37,0.99,0.34,1.47,1.12,0.4,-0.21,0.59,5,-1,5,0.45,8716,13,95,44,35,845,709.0,636,470,60,122.0,93,1,308,194,67,0,0,686,24,1780,709,-5.59,,,,,,,,,,,,
458984,1564150061987,3,2.37,0.99,0.33,1.48,1.13,0.47,-0.21,0.54,5,-1,4,0.51,8786,12,95,44,34,827,708.0,627,471,60,123.0,93,1,305,191,67,0,0,682,-3584,-10344,708,-5.59,,,,,,,,,,,,
459004,1564150061999,4,2.36,0.99,0.33,1.46,1.12,0.54,-0.34,0.48,4,1,5,0.64,8811,11,95,44,33,825,1189.0,623,468,60,121.0,93,1,302,187,67,0,0,597,-10346,6208,1189,-5.59,,,,,,,,,,,,
459024,1564150062019,4,2.37,0.99,0.33,1.47,1.12,0.54,-0.45,0.4,4,1,5,0.7,8869,10,95,44,32,829,1189.0,630,471,60,123.0,52,1,300,184,62,0,0,597,-10346,-10344,1189,-5.59,,,,,,,,,,,,
459044,1564150062039,5,2.36,0.99,0.34,1.46,1.12,0.38,-0.44,0.21,5,1,5,0.58,8890,9,95,44,31,843,1189.0,646,466,60,121.0,52,1,295,184,62,0,0,597,-10346,-3038,1189,-5.59,44.681129,10.024485,70.67,175.5,0,0.0,-1,0.0,0.0,0,3.39,7.6507
459064,1564150062059,9,2.36,0.98,0.33,1.47,1.12,0.33,-0.43,0.18,5,1,4,0.54,8907,9,95,44,31,865,680.0,620,465,60,122.0,52,1,295,184,62,0,0,597,-2345,-388,680,-5.59,,,,,,,,,,,,
459084,1564150062079,10,2.37,0.99,0.33,1.47,1.12,0.3,-0.3,0.14,5,1,5,0.43,8928,9,95,43,30,887,681.0,626,463,60,122.0,52,1,291,185,62,0,0,597,-2826,-27404,681,-5.59,,,,,,,,,,,,
459104,1564150062105,9,2.37,0.99,0.33,1.47,1.12,0.37,-0.22,0.17,5,0,5,0.43,8945,9,95,44,30,910,683.0,624,470,60,123.0,52,1,291,184,62,0,0,597,-10344,-2345,681,-5.59,,,,,,,,,,,,
459124,1564150062125,10,2.36,0.99,0.33,1.46,1.12,0.41,-0.07,0.2,6,-2,6,0.42,8954,9,95,43,29,922,678.0,628,472,60,123.0,90,1,287,185,62,0,0,655,-388,-30207,678,-5.59,,,,,,,,,,,,
459144,1564150062145,10,2.37,0.99,0.34,1.47,1.12,0.53,0.03,0.3,6,-2,6,0.53,8945,9,95,43,29,924,676.0,643,467,60,121.0,90,1,287,185,62,0,0,651,-3578,1549,676,-5.59,44.681145,10.024487,69.3,175.5,0,0.0,-1,0.0,0.0,0,3.39,7.6524
459164,1564150062165,9,2.37,0.99,0.33,1.48,1.12,0.68,0.13,0.39,5,-5,7,0.69,8932,9,95,43,29,925,672.0,637,465,60,122.0,90,1,287,185,62,0,0,647,3543,-2830,672,-5.59,,,,,,,,,,,,
459184,1564150062185,9,2.38,1.0,0.33,1.48,1.13,0.81,0.17,0.43,5,-5,7,0.83,8873,9,95,43,28,927,670.0,622,473,60,123.0,90,1,282,185,62,0,0,653,-2345,-3488,670,-5.59,,,,,,,,,,,,
459204,1564150062207,8,2.37,0.99,0.34,1.46,1.13,0.94,0.17,0.5,5,-7,7,0.95,8806,9,95,43,28,928,663.0,640,472,60,122.0,92,1,282,185,61,0,0,649,31988,2024,664,-5.59,,,,,,,,,,,,
459224,1564150062227,8,2.38,0.99,0.33,1.47,1.13,1.03,0.12,0.45,5,-6,7,1.04,8749,9,95,43,28,928,662.0,629,467,60,123.0,92,1,282,185,61,0,0,646,2024,11776,664,-5.59,,,,,,,,,,,,
459244,1564150062247,7,2.38,1.0,0.33,1.48,1.12,1.07,-0.04,0.39,5,-5,7,1.07,8688,9,95,43,28,931,659.0,633,472,60,124.0,92,1,282,185,61,0,0,1525,479,11776,659,-5.59,44.681164,10.024491,67.4,175.5,0,0.0,-1,0.0,0.0,0,3.4,7.6541
459264,1564150062267,10,2.38,1.0,0.33,1.47,1.12,1.0,-0.15,0.29,5,-5,7,1.01,8640,8,95,43,28,938,656.0,623,468,60,123.0,92,1,282,185,61,0,0,1525,4909,244,653,-5.59,,,,,,,,,,,,
459284,1564150062287,8,2.38,1.0,0.34,1.47,1.13,1.02,-0.1,0.26,6,-3,8,1.02,8600,8,95,43,28,944,652.0,613,468,60,121.0,92,1,282,185,61,0,0,1525,16599,771,652,-5.59,,,,,,,,,,,,
459304,1564150062303,8,2.39,1.0,0.34,1.47,1.14,1.12,-0.08,0.39,6,-3,8,1.12,8593,8,95,43,28,950,649.0,615,471,60,123.0,92,1,282,185,60,0,0,1525,-2580,16599,646,-5.59,,,,,,,,,,,,
459324,1564150062323,5,2.39,1.0,0.33,1.47,1.13,1.08,-0.15,0.37,6,-3,7,1.09,8538,8,95,43,28,957,645.0,602,467,60,122.0,92,1,282,185,60,0,0,619,-2836,-16046,645,-5.59,,,,,,,,,,,,
459344,1564150062343,9,2.39,1.0,0.34,1.48,1.13,1.04,-0.17,0.27,6,-2,7,1.06,8480,8,95,43,28,968,638.0,601,468,60,123.0,92,1,282,183,60,0,0,610,-14655,-14655,642,-5.59,44.681183,10.024494,65.52,175.4,0,0.0,-1,0.0,0.0,0,3.4,7.6557
459364,1564150062363,8,2.39,1.0,0.34,1.47,1.13,1.13,-0.16,0.34,6,-2,8,1.14,8411,8,95,43,28,977,637.0,597,469,60,124.0,92,1,282,179,60,0,0,620,-1346,3,638,-5.59,,,,,,,,,,,,
459384,1564150062383,10,2.39,1.0,0.33,1.48,1.12,1.07,-0.24,0.31,6,-1,7,1.1,8363,8,95,43,28,981,631.0,593,468,60,124.0,92,1,281,177,60,0,0,610,-18357,30721,633,-5.59,,,,,,,,,,,,
459404,1564150062407,7,2.4,1.0,0.34,1.48,1.12,1.17,-0.29,0.31,6,-3,8,1.2,8311,8,95,43,28,986,629.0,619,469,60,123.0,87,1,281,176,55,0,0,610,19304,20993,629,-5.59,,,,,,,,,,,,
459424,1564150062427,5,2.41,1.0,0.33,1.47,1.12,1.05,-0.3,0.35,7,-2,8,1.09,8311,8,95,43,28,991,629.0,608,470,60,124.0,87,1,281,175,55,0,0,602,-28304,269,629,-5.59,,,,,,,,,,,,
459444,1564150062447,7,2.4,1.0,0.34,1.48,1.13,1.1,-0.32,0.31,7,-3,9,1.14,8252,8,95,43,28,996,623.0,615,470,60,123.0,87,1,280,171,55,0,0,594,-3446,-30139,623,-5.59,44.681198,10.024499,63.53,175.4,0,0.0,-1,0.0,0.0,0,3.4,7.6574
459464,1564150062467,5,2.41,1.0,0.34,1.47,1.13,1.0,-0.29,0.34,8,-1,10,1.04,8173,8,95,43,28,998,622.0,598,471,60,124.0,87,1,279,168,55,0,0,600,17740,19621,622,-5.59,,,,,,,,,,,,
459484,1564150062487,4,2.41,1.0,0.34,1.47,1.13,1.1,-0.3,0.31,9,0,10,1.14,8191,8,96,44,27,999,619.0,592,471,60,125.0,87,1,276,167,55,0,0,589,-7939,-7939,621,181.28,,,,,,,,,,,,
459504,1564150062507,4,2.42,1.0,0.34,1.48,1.13,0.99,-0.32,0.31,9,1,11,1.04,8102,8,96,44,27,1001,618.0,603,461,60,125.0,87,1,276,163,55,0,0,592,23619,5344,618,414.87,,,,,,,,,,,,
459524,1564150062527,3,2.42,1.0,0.33,1.48,1.13,1.09,-0.33,0.27,10,0,12,1.14,8023,8,96,44,27,1002,614.0,575,467,60,125.0,80,1,275,158,50,0,0,589,23619,17740,614,181.28,,,,,,,,,,,,
459544,1564150062547,2,2.42,1.0,0.34,1.47,1.14,1.14,-0.36,0.31,10,0,11,1.19,8029,8,96,44,27,1002,610.0,588,462,60,124.0,80,1,275,158,50,0,0,575,-28648,23619,609,181.28,44.681213,10.024503,62.09,175.4,0,0.0,-1,0.0,0.0,0,3.4,7.6591
459564,1564150062567,7,2.41,1.0,0.33,1.47,1.13,1.03,-0.36,0.29,10,1,12,1.09,7992,7,96,44,26,1002,606.0,576,466,60,123.0,80,1,272,233,50,0,0,584,2048,-16179,609,-5.59,,,,,,,,,,,,
459584,1564150062587,3,2.42,1.0,0.33,1.48,1.13,1.13,-0.36,0.19,10,1,14,1.19,8057,8,95,44,27,1005,603.0,577,467,60,122.0,80,1,276,223,50,0,0,577,-12040,17344,603,-5.59,,,,,,,,,,,,
459604,1564150062607,4,2.41,1.0,0.33,1.48,1.13,1.1,-0.37,0.24,10,1,14,1.16,8033,8,95,44,27,1007,604.0,597,470,60,122.0,80,1,275,204,50,0,0,577,10432,-3210,604,-5.59,,,,,,,,,,,,
459624,1564150062627,3,2.42,1.0,0.33,1.48,1.12,1.02,-0.35,0.21,11,3,14,1.07,7918,8,95,44,27,1010,603.0,576,468,60,122.0,100,1,275,82,61,0,0,578,8488,-768,603,-5.59,,,,,,,,,,,,
459644,1564150062647,1,2.42,1.0,0.33,1.47,1.13,1.05,-0.35,0.16,11,3,15,1.11,7835,7,95,44,26,1012,597.0,580,468,60,123.0,100,1,271,171,61,0,0,571,-16384,-28648,597,-5.59,44.681225,10.024508,60.07,175.4,0,0.0,-1,0.0,0.0,0,3.4,7.6607
459664,1564150062667,1,2.42,1.0,0.33,1.47,1.13,1.13,-0.43,0.15,11,3,15,1.2,7845,7,95,44,27,989,595.0,583,468,60,123.0,100,1,274,157,61,0,0,570,-3210,-32504,595,-5.59,,,,,,,,,,,,
459684,1564150062687,2,2.41,1.0,0.34,1.47,1.13,1.09,-0.43,0.21,11,3,15,1.17,7864,7,95,44,27,965,591.0,587,468,60,122.0,100,1,274,157,61,0,0,568,1,-16384,591,-5.59,,,,,,,,,,,,
459704,1564150062707,4,2.42,0.99,0.33,1.47,1.13,0.98,-0.39,0.15,11,4,15,1.05,7828,7,95,44,27,938,592.0,587,468,60,121.0,100,1,271,156,61,0,0,567,1267,15649,588,-5.59,,,,,,,,,,,,
459724,1564150062727,4,2.41,1.0,0.33,1.48,1.12,0.94,-0.36,0.18,12,4,15,1.01,7832,7,95,44,26,912,588.0,576,468,60,122.0,78,1,271,156,46,0,0,569,-3190,-25872,588,-5.59,,,,,,,,,,,,
459744,1564150062747,-0,2.42,0.99,0.33,1.47,1.13,1.01,-0.43,0.24,12,4,15,1.1,7767,7,95,44,27,886,585.0,571,469,60,122.0,78,1,273,156,46,0,0,566,1267,243,585,-5.59,44.681244,10.024513,58.83,175.4,0,0.0,-1,0.0,0.0,0,3.41,7.6624
459764,1564150062767,2,2.41,1.0,0.34,1.47,1.13,1.08,-0.51,0.26,11,3,16,1.19,7754,7,95,44,27,862,584.0,569,470,60,122.0,78,1,273,156,46,0,0,563,1780,243,584,-5.59,,,,,,,,,,,,
459784,1564150062787,1,2.42,1.0,0.34,1.47,1.12,1.12,-0.52,0.35,11,2,16,1.24,7716,8,95,44,27,857,581.0,573,467,60,121.0,78,1,273,157,46,0,0,564,12552,1760,581,-5.59,,,,,,,,,,,,
459804,1564150062807,2,2.42,1.0,0.33,1.48,1.12,1.08,-0.51,0.33,10,2,14,1.19,7678,7,95,44,27,859,581.0,576,470,60,122.0,78,1,272,157,46,0,0,559,-23623,-29984,581,-5.59,,,,,,,,,,,,
459824,1564150062827,2,2.42,0.99,0.33,1.47,1.13,0.98,-0.49,0.22,10,2,16,1.1,7674,7,95,44,27,863,577.0,567,470,60,122.0,77,1,272,157,45,0,0,558,6273,259,577,-5.59,,,,,,,,,,,,
459844,1564150062847,2,2.43,1.0,0.33,1.47,1.13,0.94,-0.4,0.18,11,4,18,1.02,7649,7,95,44,27,867,575.0,545,468,60,123.0,77,1,272,157,45,0,0,555,-28648,1760,575,-5.59,44.681255,10.024519,57.28,175.4,0,0.0,-1,0.0,0.0,0,3.41,7.6641
459864,1564150062867,3,2.43,1.0,0.33,1.48,1.13,0.87,-0.36,0.23,12,5,16,0.94,7674,7,95,44,27,869,575.0,561,468,60,123.0,77,1,272,157,45,0,0,559,6273,-3190,574,-5.59,,,,,,,,,,,,
459884,1564150062887,3,2.42,1.0,0.33,1.48,1.13,0.9,-0.43,0.2,12,6,15,1.0,7615,7,95,44,27,871,573.0,552,470,60,123.0,77,1,272,157,45,0,0,551,-22263,-8186,573,-5.59,,,,,,,,,,,,
459904,1564150062906,-0,2.43,1.0,0.33,1.48,1.13,0.98,-0.48,0.22,12,5,18,1.09,7637,7,95,44,27,871,573.0,557,467,60,123.0,77,1,272,157,45,0,0,552,2524,-8186,573,-5.59,,,,,,,,,,,,
459924,1564150062926,-1,2.43,0.99,0.32,1.48,1.12,1.05,-0.52,0.31,12,4,19,1.17,7588,7,95,44,27,870,572.0,556,469,60,123.0,78,1,272,157,45,0,0,547,6274,-3190,572,-5.59,,,,,,,,,,,,
459944,1564150062946,-1,2.44,1.0,0.33,1.47,1.12,1.1,-0.58,0.35,12,4,17,1.25,7591,7,95,44,27,869,573.0,578,468,60,123.0,78,1,272,157,45,0,0,554,-32248,259,573,-5.59,44.681271,10.024526,56.43,175.5,0,0.0,-1,0.0,0.0,0,3.41,7.6657
459964,1564150062966,-1,2.45,1.0,0.33,1.47,1.13,1.13,-0.64,0.44,12,4,18,1.3,7542,7,95,44,27,866,569.0,546,468,60,123.0,78,1,272,157,45,0,0,547,2104,-8186,568,-5.59,,,,,,,,,,,,
459984,1564150062986,0,2.45,1.0,0.33,1.47,1.13,1.21,-0.74,0.51,12,1,20,1.42,7554,7,95,44,27,864,568.0,573,469,60,123.0,78,1,272,157,45,0,0,545,2524,-29984,568,-5.59,,,,,,,,,,,,
460004,1564150063000,-0,2.45,1.0,0.33,1.47,1.12,1.29,-0.79,0.63,11,-0,19,1.51,7515,7,95,44,27,862,567.0,553,468,60,123.0,78,1,272,157,45,0,0,540,-8962,-18032,567,-5.59,,,,,,,,,,,,
460024,1564150063020,-0,2.46,1.0,0.32,1.47,1.12,1.32,-0.83,0.69,11,-1,18,1.56,7497,7,95,44,27,862,568.0,555,468,60,123.0,77,1,271,157,44,0,0,547,-3082,-3190,568,-5.59,,,,,,,,,,,,
460044,1564150063040,-1,2.46,1.0,0.33,1.47,1.13,1.29,-0.88,0.68,12,0,19,1.56,7467,7,95,44,28,863,564.0,557,468,60,122.0,77,1,275,159,44,0,0,542,-2336,-32504,564,-5.59,44.681282,10.024533,55.64,175.5,0,0.0,-1,0.0,0.0,0,3.41,7.6674
460064,1564150063060,-1,2.45,1.0,0.32,1.47,1.12,1.31,-0.93,0.72,12,-1,22,1.61,7461,7,95,44,28,864,564.0,549,469,60,123.0,77,1,275,159,44,0,0,534,1780,-23623,564,-5.59,,,,,,,,,,,,
460084,1564150063080,-2,2.46,1.0,0.33,1.47,1.13,1.39,-0.94,0.79,11,-3,21,1.67,7431,7,95,44,28,867,561.0,549,468,60,123.0,77,1,275,159,44,0,0,535,1780,-28648,561,-5.59,,,,,,,,,,,,
460104,1564150063106,-0,2.46,1.01,0.33,1.47,1.13,1.41,-0.94,0.78,12,-3,19,1.7,7425,7,95,44,28,869,560.0,544,467,60,123.0,77,1,275,159,44,0,0,536,6274,-9072,560,-5.59,,,,,,,,,,,,
460124,1564150063126,-1,2.47,1.01,0.32,1.48,1.13,1.4,-0.99,0.78,13,-1,21,1.71,7390,7,95,44,28,870,562.0,540,471,60,123.0,78,1,274,159,44,0,0,532,-32248,-22263,560,-5.59,,,,,,,,,,,,
460144,1564150063146,3,2.45,1.0,0.33,1.48,1.12,1.42,-0.98,0.76,13,-1,24,1.73,7376,7,95,44,28,871,561.0,548,469,60,123.0,78,1,274,159,44,0,0,530,-22519,-9072,561,-5.59,44.681297,10.024541,54.9,175.5,0,0.0,-1,0.0,0.0,0,3.41,7.6691
460164,1564150063166,3,2.46,1.0,0.32,1.47,1.13,1.42,-0.88,0.73,13,-1,25,1.67,7275,7,95,44,28,872,556.0,542,470,60,123.0,78,1,274,160,44,0,0,531,-22519,-22359,556,-5.59,,,,,,,,,,,,
460184,1564150063186,0,2.47,1.0,0.32,1.48,1.12,1.2,-0.97,0.63,14,1,22,1.54,7197,7,95,44,29,872,557.0,535,469,60,123.0,78,1,277,160,44,0,0,532,-22519,-22359,556,-5.59,,,,,,,,,,,,
460204,1564150063206,0,2.47,1.0,0.32,1.48,1.12,1.06,-1.03,0.38,15,2,23,1.48,7142,7,95,44,29,871,555.0,541,468,60,123.0,78,1,277,160,44,0,0,639,-28648,1780,556,-5.59,,,,,,,,,,,,
460224,1564150063226,-0,2.47,1.0,0.32,1.48,1.12,1.16,-0.99,0.45,15,-3,24,1.52,7072,7,95,44,29,871,547.0,519,465,60,124.0,77,1,277,160,43,0,0,639,10408,6274,547,-5.59,,,,,,,,,,,,
460244,1564150063246,-1,2.47,1.0,0.33,1.47,1.13,1.25,-1.0,0.43,16,-6,23,1.6,7376,7,95,44,30,873,553.0,537,472,60,124.0,77,1,282,160,43,0,0,639,-8187,-9212,553,-5.59,44.681309,10.024549,54.41,175.6,0,0.0,-1,0.0,0.0,0,3.41,7.6707
460264,1564150063266,1,2.47,1.0,0.33,1.47,1.14,1.32,-0.99,0.41,15,-1,25,1.65,7428,7,95,44,30,874,547.0,538,467,60,124.0,77,1,282,162,43,0,0,639,1341,-2336,545,-5.59,,,,,,,,,,,,
460284,1564150063286,-0,2.47,1.0,0.32,1.47,1.12,1.32,-0.94,0.4,16,-2,25,1.62,7621,7,95,44,29,877,546.0,555,469,60,124.0,77,1,279,160,43,0,0,29,16383,-8187,543,-5.59,,,,,,,,,,,,
460304,1564150063306,-0,2.47,1.0,0.32,1.47,1.13,1.32,-0.98,0.43,16,-1,24,1.64,7712,7,95,44,29,879,540.0,551,470,60,124.0,77,1,280,160,43,0,0,445,-14,14504,540,-5.59,,,,,,,,,,,,
460324,1564150063326,-2,2.48,1.0,0.32,1.48,1.13,1.39,-1.01,0.37,17,-3,25,1.72,7841,7,95,44,29,884,538.0,567,468,60,124.0,85,1,280,160,46,0,0,457,-4054,2524,538,-5.59,,,,,,,,,,,,
460344,1564150063346,1,2.48,1.0,0.32,1.47,1.13,1.27,-0.94,0.32,18,-2,26,1.58,7982,8,95,44,28,888,534.0,573,469,60,123.0,85,1,278,160,46,0,0,469,-28648,10408,534,-5.59,44.68132,10.024558,53.83,175.6,0,0.0,-1,0.0,0.0,0,3.41,7.6724
460364,1564150063366,0,2.48,1.01,0.32,1.47,1.13,1.24,-0.93,0.33,18,-1,25,1.55,8057,7,95,44,28,891,530.0,575,467,60,124.0,85,1,279,161,46,0,0,470,15661,-22519,530,-5.59,,,,,,,,,,,,
460384,1564150063386,1,2.48,1.0,0.32,1.47,1.13,1.32,-0.97,0.29,18,-2,25,1.64,8205,7,95,44,27,893,526.0,584,470,60,123.0,85,1,276,168,46,0,0,464,-9216,-3482,526,-5.59,,,,,,,,,,,,
460404,1564150063408,-2,2.49,1.0,0.32,1.47,1.13,1.23,-0.98,0.39,19,-1,24,1.57,8340,7,95,44,27,897,520.0,591,471,60,124.0,105,1,277,175,55,0,0,460,-9216,1341,520,-5.59,,,,,,,,,,,,
460424,1564150063428,2,2.49,1.0,0.32,1.47,1.13,1.18,-0.99,0.25,19,-1,24,1.54,8453,7,95,44,26,900,519.0,601,469,60,123.0,105,1,274,178,55,0,0,443,998,-28648,519,-5.59,,,,,,,,,,,,
460444,1564150063448,-1,2.49,1.0,0.33,1.48,1.12,1.25,-0.9,0.3,19,1,25,1.54,8499,7,95,44,26,901,515.0,608,467,60,124.0,105,1,274,183,55,0,0,436,-1818,2109,515,-5.59,44.681332,10.024569,52.3,175.6,0,0.0,-1,0.0,0.0,0,3.42,7.6741
460464,1564150063468,0,2.49,1.0,0.33,1.47,1.12,1.18,-0.96,0.34,18,1,25,1.52,8585,7,95,44,25,903,513.0,613,467,60,124.0,105,1,270,184,55,0,0,448,505,2524,513,-5.59,,,,,,,,,,,,
460484,1564150063488,3,2.49,1.01,0.32,1.48,1.12,1.14,-0.95,0.19,19,0,25,1.49,8668,7,95,44,24,903,505.0,626,465,60,123.0,105,1,270,184,55,0,0,453,8488,-9216,505,-5.59,,,,,,,,,,,,
460504,1564150063506,3,2.5,1.0,0.32,1.47,1.13,1.11,-0.87,0.21,19,0,24,1.4,8724,7,95,44,24,904,503.0,633,467,60,122.0,105,1,270,177,55,0,0,449,-17956,-6528,503,-5.59,,,,,,,,,,,,
460524,1564150063526,2,2.51,0.99,0.32,1.48,1.12,1.16,-0.81,0.29,20,-1,25,1.41,8753,7,95,44,24,903,501.0,654,468,60,122.0,115,1,270,177,58,0,0,444,-9203,-1562,501,-5.59,,,,,,,,,,,,
460544,1564150063546,0,2.51,1.0,0.32,1.47,1.13,1.18,-0.7,0.4,20,-1,24,1.37,8802,7,95,44,23,902,499.0,627,469,60,123.0,115,1,270,172,58,0,0,448,32033,248,499,-5.59,44.681343,10.024578,50.59,175.7,0,0.0,-1,0.0,0.0,0,3.42,7.6757
460564,1564150063566,1,2.51,1.0,0.32,1.47,1.12,1.21,-0.75,0.35,20,-2,27,1.42,8802,7,95,44,23,898,497.0,618,470,60,123.0,115,1,270,172,58,0,0,442,-3210,-1818,498,-5.59,,,,,,,,,,,,
460584,1564150063586,1,2.51,1.01,0.32,1.48,1.13,1.16,-0.84,0.33,21,-1,26,1.43,8753,8,95,44,23,894,497.0,615,475,60,124.0,115,1,270,172,58,0,0,432,6193,3580,497,-5.59,,,,,,,,,,,,
460604,1564150063608,1,2.52,1.0,0.33,1.47,1.13,1.04,-0.95,0.19,22,-0,26,1.41,8660,8,95,44,23,890,493.0,618,472,60,123.0,115,1,270,172,58,0,0,439,12552,-6528,493,-5.59,,,,,,,,,,,,
460624,1564150063628,0,2.52,1.0,0.32,1.47,1.13,1.05,-0.9,0.24,22,0,27,1.39,8557,8,95,44,23,887,493.0,605,468,60,122.0,113,1,270,172,56,0,0,438,-18108,-1562,493,-5.59,,,,,,,,,,,,
460644,1564150063648,-1,2.53,1.0,0.32,1.48,1.12,1.07,-0.86,0.27,23,1,27,1.37,8480,8,95,44,23,884,489.0,598,472,60,124.0,113,1,270,171,56,0,0,436,-9160,-1818,491,-5.59,44.681351,10.02459,49.04,175.8,0,0.0,-1,0.0,0.0,0,3.42,7.6774
460664,1564150063668,3,2.52,1.0,0.32,1.48,1.12,1.02,-0.96,0.2,23,1,27,1.4,8476,8,95,44,23,881,487.0,605,469,60,123.0,113,1,270,171,56,0,0,437,-9160,-899,487,-5.59,,,,,,,,,,,,
460684,1564150063688,-0,2.53,1.0,0.32,1.47,1.13,1.09,-0.9,0.24,23,-1,27,1.41,8488,8,95,44,23,879,484.0,617,472,60,124.0,113,1,270,171,56,0,0,432,-8985,2212,484,-5.59,,,,,,,,,,,,
460704,1564150063706,-1,2.53,1.0,0.32,1.48,1.12,1.11,-0.86,0.24,23,-1,29,1.4,8507,8,95,44,23,879,482.0,620,469,60,123.0,114,1,270,172,55,0,0,419,-3267,-23367,482,-5.59,,,,,,,,,,,,
460724,1564150063726,4,2.53,1.0,0.32,1.47,1.13,0.99,-0.94,0.2,23,0,29,1.37,8449,8,95,44,23,881,483.0,613,471,60,123.0,114,1,270,169,55,0,0,413,16648,32033,480,-5.59,,,,,,,,,,,,
460744,1564150063746,1,2.53,1.0,0.33,1.47,1.12,1.04,-0.89,0.26,23,-0,29,1.37,8355,8,95,44,23,884,479.0,620,472,60,123.0,114,1,270,164,55,0,0,417,21432,-17956,479,-5.59,44.681362,10.024601,47.79,175.8,0,0.0,-1,0.0,0.0,0,3.42,7.6791
460764,1564150063766,3,2.53,1.0,0.33,1.47,1.13,0.95,-0.86,0.24,23,1,30,1.28,8252,8,95,44,24,887,477.0,621,467,60,122.0,114,1,270,165,55,0,0,421,23400,-1923,477,-5.59,,,,,,,,,,,,
460784,1564150063786,1,2.54,1.0,0.32,1.48,1.12,1.04,-0.78,0.21,24,1,30,1.29,8230,8,95,44,24,891,475.0,600,468,60,124.0,114,1,270,163,55,0,0,432,20625,3576,474,-5.59,,,,,,,,,,,,
460804,1564150063808,3,2.54,1.0,0.32,1.47,1.12,1.0,-0.76,0.18,24,0,31,1.26,8245,9,95,44,24,894,471.0,595,468,60,124.0,108,1,270,164,51,0,0,427,21580,2211,471,-5.59,,,,,,,,,,,,
460824,1564150063828,2,2.54,1.01,0.32,1.48,1.13,1.08,-0.75,0.18,24,-2,31,1.32,8249,9,95,44,24,896,468.0,595,468,60,123.0,108,1,270,164,51,0,0,417,-768,14488,468,-5.59,,,,,,,,,,,,
460844,1564150063848,3,2.53,1.0,0.32,1.48,1.12,1.0,-0.82,0.17,24,-1,31,1.3,8252,13,95,44,25,897,467.0,598,468,60,122.0,108,1,270,170,51,0,0,403,1779,-3210,468,-5.59,44.681366,10.024613,46.44,175.8,0,0.0,-1,0.0,0.0,0,3.42,7.6807
460864,1564150063868,1,2.54,1.0,0.32,1.48,1.12,1.06,-0.85,0.19,23,-3,33,1.35,8184,16,95,44,26,895,466.0,593,469,60,123.0,108,1,273,168,51,0,0,401,1779,30272,466,-5.59,,,,,,,,,,,,
460884,1564150063888,3,2.54,1.0,0.33,1.47,1.13,0.92,-0.89,0.18,24,-1,33,1.28,8148,17,95,44,27,894,467.0,585,470,60,123.0,108,1,276,165,51,0,0,410,13180,2211,467,-5.59,,,,,,,,,,,,
460904,1564150063907,-0,2.54,1.0,0.32,1.47,1.12,0.96,-0.93,0.24,24,-0,32,1.33,8067,17,95,44,28,891,466.0,577,469,60,124.0,108,1,279,87,51,0,0,420,13552,6193,466,-5.59,,,,,,,,,,,,
460924,1564150063927,1,2.53,1.0,0.33,1.47,1.12,0.92,-1.0,0.23,25,-0,33,1.36,8061,17,95,44,29,889,462.0,599,467,60,123.0,105,1,282,163,49,0,0,417,13552,-23623,462,-5.59,,,,,,,,,,,,
460944,1564150063947,-0,2.54,1.0,0.32,1.47,1.13,0.88,-1.02,0.29,25,1,32,1.35,8109,17,95,44,30,888,459.0,593,469,60,124.0,105,1,285,166,49,0,0,417,-4082,-3267,458,-5.59,44.681377,10.024626,45.36,175.9,0,0.0,-1,0.0,0.0,0,3.42,7.6824
460964,1564150063967,1,2.54,1.01,0.32,1.48,1.12,0.96,-1.0,0.31,25,-0,32,1.39,8123,17,95,44,31,887,457.0,596,468,60,123.0,105,1,288,167,49,0,0,413,-21792,15649,457,-5.59,,,,,,,,,,,,
460984,1564150063987,3,2.54,1.0,0.32,1.47,1.13,0.87,-1.01,0.26,25,1,33,1.33,8130,17,94,44,31,886,454.0,610,470,60,122.0,105,1,288,168,49,0,0,412,-8165,2131,454,-5.59,,,,,,,,,,,,
461004,1564150063999,-1,2.54,1.0,0.32,1.47,1.13,0.94,-0.97,0.34,24,1,32,1.35,8148,17,95,44,32,885,454.0,601,468,60,124.0,114,1,292,170,52,0,0,412,-8165,-6387,454,-5.59,,,,,,,,,,,,
461024,1564150064019,2,2.53,1.0,0.32,1.47,1.12,0.88,-0.97,0.32,25,1,32,1.31,8102,17,95,44,32,885,452.0,590,471,60,123.0,114,1,292,169,52,0,0,415,18584,15649,454,-5.59,,,,,,,,,,,,
