"Interval"|"ms"|0|0|1,"Utc"|"ms"|0|0|1,"FB_p"|"bar"|0|300|50,"Volant"|"F"|0.0|300.0|50,"xFR"|"mm"|0.0|5.0|50,"xRR"|"mm"|0.0|5.0|50,"xFL"|"mm"|0.0|5.0|50,"xRL"|"mm"|0.0|5.0|50,"AccelX"|"G"|-3.0|3.0|50,"AccelY"|"G"|-3.0|3.0|50,"AccelZ"|"G"|-3.0|3.0|50,"Yaw"|"Deg/Sec"|-120|120|50,"Pitch"|"Deg/Sec"|-120|120|50,"Roll"|"Deg/Sec"|-120|120|50,"Gsum"|"G"|0.0|3.0|50,"RPM"|""|0|14000|50,"TPS"|"%"|0|100|50,"WaterTemp"|"?C"|0|300|50,"AirTemp"|"?C"|-1000|1000|50,"MAP"|"KPa"|0|255|50,"Lambda"|""|0|1024|50,"WheelSpeed"|"MPH"|0.0|150.0|50,"OilPress"|"PSI"|0|150|50,"FuelPress"|"PSI"|0|150|50,"OilTemp"|"F"|0|300|50,"Battery"|"Volts"|0.0|20.0|50,"FuelCon"|"L/h"|-1000|1000|50,"Gear"|""|0|10|50,"Advance"|"Deg"|-360|360|50,"Injection"|"ms"|-1000|1000|50,"FuelCon"|"L/100km"|-1000|1000|50,"LC_But_Pres"|""|-1000|1000|50,"LC_Active"|""|-1000|1000|50,"RD_Speed"|""|-1000|1000|50,"RUD_Speed"|""|-1000|1000|50,"LD_Speed"|""|-1000|1000|50,"LUD_Speed"|""|-1000|1000|50,"Ana1"|"bar"|-1000.0|1000.0|50,"Latitude"|"Degrees"|-180.0|180.0|10,"Longitude"|"Degrees"|-180.0|180.0|10,"Speed"|"kph"|0.0|150.0|10,"Altitude"|"m"|0.0|4000.0|10,"LapCount"|""|0|0|10,"LapTime"|"Min"|0.0|0.0|10,"Sector"|""|0|0|10,"SectorTime"|"Min"|0.0|0.0|10,"ElapsedTime"|"Min"|0.0|0.0|10,"CurrentLap"|""|0|0|10,"Distance"|"km"|0.0|0.0|10,"SessionTime"|"Min"|0.0|0.0|10
135463,1564151482878,3,2.49,0.92,0.43,1.33,1.05,0.76,-0.49,0.37,17,-2,22,0.9,10958,33,88,44,43,912,587.0,666,465,60,121.0,164,1,350,233,97,0,0,578,1780,4956,587,-5.59,,,,,,,,,,,,
135483,1564151482891,-1,2.49,0.91,0.43,1.33,1.04,0.8,-0.62,0.53,17,-0,19,1.01,10831,33,88,44,43,904,590.0,664,466,60,120.0,164,1,350,230,97,0,0,769,-28648,-768,590,-5.59,,,,,,,,,,,,
135503,1564151482911,-2,2.49,0.91,0.44,1.33,1.05,0.82,-0.45,0.45,18,-2,22,0.94,10677,33,88,44,44,888,591.0,666,468,60,121.0,164,1,357,232,97,0,0,769,-30159,-3446,591,-5.59,,,,,,,,,,,,
135523,1564151482931,-0,2.49,0.91,0.43,1.33,1.05,0.7,-0.32,0.23,19,-0,24,0.77,10581,33,88,44,44,871,591.0,661,467,60,121.0,164,1,357,230,97,0,0,769,-23623,243,591,-5.59,,,,,,,,,,,,
135543,1564151482951,1,2.48,0.91,0.43,1.33,1.04,0.75,-0.23,0.09,19,-0,25,0.78,10399,33,88,44,45,862,588.0,660,466,60,121.0,164,1,365,233,97,0,0,570,-18032,243,588,-5.59,44.681324,10.025001,57.82,174.7,0,0.0,-1,0.0,0.0,0,0.67,2.259
135563,1564151482971,-1,2.5,0.91,0.43,1.33,1.04,0.78,-0.18,-0.02,20,-2,27,0.8,10190,33,88,44,45,853,590.0,650,463,60,122.0,154,1,365,233,91,0,0,572,-23623,-16179,590,-5.59,,,,,,,,,,,,
135583,1564151483001,2,2.49,0.91,0.43,1.33,1.05,0.83,-0.29,0.13,20,-0,27,0.88,10069,32,88,44,46,842,592.0,653,462,60,122.0,154,1,372,237,91,0,0,570,-28648,4956,591,-5.59,,,,,,,,,,,,
135603,1564151483021,2,2.5,0.91,0.43,1.33,1.04,0.86,-0.37,0.29,21,2,25,0.94,10157,32,88,44,45,830,588.0,656,466,60,120.0,154,1,365,233,91,0,0,564,-22359,-1894,588,-5.59,,,,,,,,,,,,
135623,1564151483041,2,2.49,0.91,0.43,1.33,1.04,0.77,-0.47,0.23,20,0,25,0.9,10515,32,88,44,44,825,582.0,656,463,60,120.0,154,1,357,230,91,0,0,549,-22263,-16384,583,-5.59,,,,,,,,,,,,
135643,1564151483061,2,2.49,0.91,0.43,1.33,1.04,0.73,-0.6,0.01,19,1,25,0.95,10732,32,88,44,44,823,576.0,666,464,60,121.0,154,1,357,229,91,0,0,552,-9072,8488,576,-5.59,44.681313,10.025014,57.89,174.7,0,0.0,-1,0.0,0.0,0,0.67,2.2607
135663,1564151483081,3,2.48,0.91,0.43,1.33,1.04,0.86,-0.74,0.21,19,1,22,1.13,10907,32,88,44,43,831,577.0,668,463,60,121.0,162,1,350,231,94,0,0,557,2104,10432,576,-5.59,,,,,,,,,,,,
135683,1564151483098,0,2.49,0.91,0.43,1.34,1.04,0.85,-0.84,0.38,20,-0,23,1.2,10888,32,88,44,42,841,578.0,667,465,60,122.0,162,1,342,227,94,0,0,555,6274,-25872,578,-5.59,,,,,,,,,,,,
135703,1564151483118,2,2.48,0.91,0.43,1.33,1.05,0.87,-0.6,0.32,20,-1,26,1.05,10863,28,88,44,42,852,580.0,662,468,60,121.0,162,1,342,228,94,0,0,559,-22519,-13043,580,-5.59,,,,,,,,,,,,
135723,1564151483138,2,2.49,0.91,0.43,1.34,1.04,0.81,-0.48,0.09,19,2,27,0.94,10819,26,88,44,40,864,578.0,666,466,60,121.0,162,1,327,221,94,0,0,558,-22519,8488,576,-5.59,,,,,,,,,,,,
135743,1564151483158,2,2.48,0.91,0.44,1.33,1.04,0.8,-0.63,0.01,19,2,26,1.02,10623,25,88,44,40,862,575.0,658,466,60,121.0,162,1,327,217,94,0,0,562,-22519,8488,575,-5.59,44.681301,10.025025,57.27,174.7,0,0.0,-1,0.0,0.0,0,0.68,2.2624
135763,1564151483178,2,2.5,0.91,0.43,1.33,1.04,0.89,-0.77,0.17,19,3,24,1.17,10474,25,88,44,39,855,575.0,622,462,60,121.0,150,1,320,215,86,0,0,560,-22519,-4035,574,-5.59,,,,,,,,,,,,
135783,1564151483198,2,2.49,0.91,0.43,1.33,1.04,0.87,-0.86,0.21,20,4,24,1.23,10257,25,88,44,40,841,573.0,519,470,60,121.0,150,1,327,213,86,0,0,552,-8962,10432,573,-5.59,,,,,,,,,,,,
135803,1564151483209,0,2.49,0.91,0.43,1.32,1.04,0.78,-0.83,0.13,20,3,24,1.14,10223,25,88,44,39,822,570.0,493,467,60,120.0,150,1,320,215,86,0,0,544,-2336,-16384,571,-5.59,,,,,,,,,,,,
135823,1564151483229,1,2.48,0.91,0.43,1.34,1.04,0.78,-0.81,-0.06,20,3,26,1.12,10229,25,88,44,39,807,566.0,558,461,60,121.0,150,1,320,213,86,0,0,542,-2934,-3190,565,-5.59,,,,,,,,,,,,
135843,1564151483249,1,2.49,0.91,0.43,1.33,1.05,0.86,-0.75,-0.17,20,4,27,1.14,10229,25,88,44,39,794,565.0,566,465,60,122.0,150,1,320,213,86,0,0,527,-2934,2216,565,-5.59,44.68129,10.025037,56.24,174.7,0,0.0,-1,0.0,0.0,0,0.68,2.264
135863,1564151483269,3,2.49,0.92,0.43,1.34,1.04,0.97,-0.84,0.05,19,1,29,1.28,10313,25,88,44,39,790,562.0,628,469,60,121.0,145,1,320,213,82,0,0,521,6274,12552,564,-5.59,,,,,,,,,,,,
135883,1564151483289,1,2.49,0.91,0.43,1.34,1.04,0.95,-0.95,0.24,19,2,27,1.35,10240,25,88,44,38,795,561.0,648,462,60,120.0,145,1,317,213,82,0,0,528,14504,-32504,561,-5.59,,,,,,,,,,,,
135903,1564151483305,2,2.48,0.91,0.43,1.33,1.05,0.99,-1.06,0.41,19,4,24,1.45,10268,25,88,44,38,813,561.0,652,466,60,121.0,145,1,317,212,82,0,0,532,-9072,12552,561,-5.59,,,,,,,,,,,,
135923,1564151483325,2,2.48,0.91,0.43,1.34,1.04,0.9,-0.99,0.34,19,1,26,1.34,10206,25,88,44,38,836,559.0,652,465,60,120.0,145,1,317,212,82,0,0,532,-28648,-3190,555,-5.59,,,,,,,,,,,,
135943,1564151483345,0,2.48,0.91,0.44,1.33,1.04,0.87,-0.78,0.11,19,4,27,1.17,10223,25,88,44,38,857,555.0,648,466,60,122.0,145,1,317,212,82,0,0,530,-32248,-28648,555,-5.59,44.681278,10.025047,55.56,174.7,0,0.0,-1,0.0,0.0,0,0.68,2.2657
135963,1564151483365,1,2.49,0.91,0.43,1.33,1.04,0.99,-0.72,0.03,19,2,28,1.22,10195,25,88,44,38,876,551.0,648,462,60,122.0,148,1,317,212,82,0,0,531,6274,2524,551,-5.59,,,,,,,,,,,,
135983,1564151483399,2,2.49,0.91,0.43,1.33,1.05,0.96,-0.82,0.23,19,3,27,1.26,10140,25,88,43,38,888,549.0,650,465,60,122.0,148,1,317,212,82,0,0,528,10408,-22263,549,-5.59,,,,,,,,,,,,
136003,1564151483419,2,2.49,0.91,0.43,1.34,1.04,0.88,-0.83,0.3,19,6,24,1.21,10135,25,88,43,38,895,548.0,652,467,60,120.0,148,1,317,212,82,0,0,525,2524,-22263,547,-5.59,,,,,,,,,,,,
136023,1564151483439,1,2.48,0.91,0.43,1.33,1.05,0.85,-0.76,0.07,19,5,26,1.14,10113,25,88,43,38,894,545.0,652,465,60,121.0,148,1,317,212,82,0,0,527,1248,2524,545,-5.59,,,,,,,,,,,,
136043,1564151483459,2,2.49,0.92,0.43,1.34,1.05,0.89,-0.7,0.05,19,4,28,1.13,10059,25,88,43,38,882,545.0,658,466,60,120.0,148,1,317,212,82,0,0,528,1341,-9072,545,-5.59,44.681267,10.025056,54.34,174.8,0,0.0,-1,0.0,0.0,0,0.68,2.2674
136063,1564151483479,2,2.48,0.91,0.44,1.33,1.04,0.98,-0.83,0.24,19,4,26,1.28,10091,25,88,43,37,867,543.0,657,466,60,119.0,147,1,314,212,80,0,0,526,1341,6274,543,-5.59,,,,,,,,,,,,
136083,1564151483493,2,2.49,0.91,0.43,1.33,1.05,0.9,-0.81,0.16,19,5,26,1.21,10032,25,88,43,37,849,540.0,653,463,60,119.0,147,1,314,211,80,0,0,525,16383,-28648,540,-5.59,,,,,,,,,,,,
136103,1564151483513,0,2.48,0.92,0.43,1.33,1.05,0.92,-0.69,-0.06,19,4,28,1.15,10010,25,88,43,37,833,540.0,657,466,60,120.0,147,1,314,211,80,0,0,525,-14,2104,540,-5.59,,,,,,,,,,,,
136123,1564151483533,1,2.49,0.91,0.44,1.33,1.05,0.99,-0.82,0.14,18,4,26,1.28,10037,25,88,43,37,825,538.0,653,466,60,121.0,147,1,314,211,80,0,0,518,-14,6274,539,-5.59,,,,,,,,,,,,
136143,1564151483553,1,2.48,0.91,0.44,1.34,1.05,0.95,-0.84,0.15,19,5,24,1.27,9978,25,88,43,36,817,538.0,653,469,60,120.0,147,1,311,208,80,0,0,524,26178,-32248,537,-5.59,44.681255,10.025064,53.69,174.8,0,0.0,-1,0.0,0.0,0,0.68,2.2691
136163,1564151483573,-1,2.49,0.91,0.43,1.33,1.04,0.98,-0.77,0.02,19,2,26,1.25,10000,25,88,43,36,807,538.0,650,468,60,121.0,147,1,311,209,79,0,0,523,-3414,1780,538,-5.59,,,,,,,,,,,,
136183,1564151483593,2,2.49,0.91,0.43,1.33,1.05,1.02,-0.89,0.17,18,3,25,1.36,10037,25,88,43,36,799,534.0,656,462,60,121.0,147,1,311,209,79,0,0,518,10994,1779,534,-5.59,,,,,,,,,,,,
136203,1564151483605,1,2.49,0.91,0.44,1.34,1.04,0.95,-0.87,0.17,18,4,24,1.29,9962,25,88,43,35,797,535.0,653,468,60,122.0,147,1,308,208,79,0,0,523,10994,-506,535,-5.59,,,,,,,,,,,,
136223,1564151483625,-1,2.49,0.91,0.43,1.33,1.05,0.95,-0.8,0.07,18,3,25,1.24,9936,25,88,44,35,795,533.0,656,466,60,122.0,147,1,308,205,79,0,0,519,10994,-2336,533,-5.59,,,,,,,,,,,,
136243,1564151483645,2,2.49,0.91,0.43,1.34,1.04,0.97,-0.91,0.24,18,5,24,1.33,9973,25,88,44,35,794,534.0,657,463,60,120.0,147,1,308,206,79,0,0,519,-28648,2524,534,-5.59,44.681244,10.02507,52.86,174.8,0,0.0,-1,0.0,0.0,0,0.68,2.2707
136263,1564151483665,2,2.49,0.92,0.43,1.34,1.05,0.89,-0.82,0.18,19,6,24,1.2,9952,25,88,43,35,793,535.0,656,463,60,121.0,143,1,308,207,77,0,0,521,-32248,2104,535,-5.59,,,,,,,,,,,,
136283,1564151483703,3,2.49,0.91,0.44,1.33,1.05,0.93,-0.85,0.11,19,4,24,1.26,9904,25,88,43,35,794,530.0,656,465,60,121.0,143,1,308,206,77,0,0,517,-32248,1779,533,-5.59,,,,,,,,,,,,
136303,1564151483723,-0,2.5,0.91,0.44,1.33,1.05,0.86,-0.96,0.23,19,5,23,1.29,9936,25,88,43,35,797,531.0,653,465,60,121.0,143,1,308,206,77,0,0,514,6274,-506,530,-5.59,,,,,,,,,,,,
136323,1564151483743,1,2.49,0.91,0.44,1.34,1.05,0.82,-0.86,0.06,20,5,23,1.19,9931,25,88,44,35,809,531.0,655,462,60,122.0,143,1,308,205,77,0,0,516,6274,-8186,531,-5.59,,,,,,,,,,,,
136343,1564151483763,2,2.49,0.91,0.44,1.34,1.05,0.82,-0.95,0.17,20,6,24,1.26,9873,25,88,43,34,821,530.0,652,464,60,120.0,143,1,305,204,77,0,0,513,-32248,6274,528,-5.59,44.681229,10.025077,52.17,174.9,0,0.0,-1,0.0,0.0,0,0.69,2.2724
136363,1564151483783,1,2.49,0.91,0.41,1.32,1.05,0.71,-0.83,0.16,20,6,24,1.09,9915,25,88,44,34,831,528.0,649,470,60,120.0,143,1,305,205,76,0,0,512,15661,1780,528,-5.59,,,,,,,,,,,,
136383,1564151483793,3,2.5,0.91,0.43,1.33,1.05,0.79,-0.87,0.11,20,4,25,1.18,9910,25,88,44,35,842,527.0,651,470,60,122.0,143,1,308,205,76,0,0,514,-22519,6274,527,-5.59,,,,,,,,,,,,
136403,1564151483813,2,2.49,0.91,0.44,1.34,1.05,0.67,-0.87,0.21,20,3,24,1.1,9852,25,88,44,35,858,526.0,650,463,60,121.0,143,1,308,205,76,0,0,507,11560,-28648,526,-5.59,,,,,,,,,,,,
136423,1564151483833,-1,2.5,0.91,0.43,1.33,1.05,0.69,-0.72,0.09,20,5,26,1.0,9842,25,88,44,34,875,526.0,650,464,60,122.0,143,1,305,202,76,0,0,513,2524,2104,526,-5.59,,,,,,,,,,,,
136443,1564151483853,2,2.49,0.92,0.43,1.33,1.05,0.81,-0.82,0.23,20,3,25,1.15,9852,25,88,43,34,881,524.0,655,462,60,122.0,143,1,305,204,76,0,0,514,10408,-2336,524,-5.59,44.681217,10.025081,51.94,174.9,0,0.0,-1,0.0,0.0,0,0.69,2.274
136463,1564151483873,-0,2.49,0.91,0.44,1.33,1.05,0.77,-0.68,0.26,21,3,25,1.03,9765,25,88,44,34,887,526.0,649,467,60,122.0,142,1,305,202,75,0,0,506,2524,-32248,526,-5.59,,,,,,,,,,,,
136483,1564151483893,3,2.49,0.91,0.43,1.33,1.06,0.86,-0.81,0.36,20,1,25,1.19,9750,25,88,44,34,894,526.0,652,463,60,122.0,142,1,305,202,75,0,0,511,3,14504,526,-5.59,,,,,,,,,,,,
136503,1564151483905,-0,2.5,0.91,0.44,1.33,1.05,0.81,-0.7,0.35,20,2,26,1.07,9745,25,88,44,34,902,525.0,654,465,60,122.0,142,1,305,201,75,0,0,510,-6528,-28648,525,-5.59,,,,,,,,,,,,
136523,1564151483925,1,2.5,0.91,0.43,1.33,1.06,0.92,-0.83,0.34,19,2,25,1.23,9770,25,88,44,34,905,522.0,650,463,60,122.0,142,1,305,202,75,0,0,507,3,-9072,522,-5.59,,,,,,,,,,,,
136543,1564151483945,-0,2.5,0.91,0.43,1.33,1.05,0.82,-0.72,0.37,20,3,24,1.09,9704,25,88,44,34,907,520.0,646,468,60,121.0,142,1,305,201,75,0,0,511,771,-30064,520,-5.59,44.681202,10.025084,51.64,175.0,0,0.0,-1,0.0,0.0,0,0.69,2.2757
136563,1564151483965,1,2.49,0.91,0.43,1.34,1.05,0.8,-0.79,0.36,20,4,25,1.13,9694,25,88,44,34,912,522.0,647,460,60,122.0,142,1,305,200,74,0,0,508,3,-22519,522,-5.59,,,,,,,,,,,,
136583,1564151483996,-1,2.48,0.91,0.44,1.33,1.04,0.71,-0.64,0.36,20,4,25,0.95,9694,25,88,44,35,917,520.0,641,471,60,121.0,142,1,308,202,74,0,0,507,3,2104,520,-5.59,,,,,,,,,,,,
136603,1564151484016,2,2.48,0.92,0.43,1.34,1.05,0.79,-0.76,0.35,20,3,25,1.09,9725,25,88,44,34,921,520.0,650,463,60,122.0,142,1,305,201,74,0,0,510,998,2524,520,-5.59,,,,,,,,,,,,
136623,1564151484036,1,2.48,0.91,0.43,1.33,1.05,0.81,-0.62,0.4,19,2,26,1.02,9715,25,88,44,34,924,517.0,647,467,60,120.0,142,1,305,201,74,0,0,509,-32768,14504,517,-5.59,,,,,,,,,,,,
136643,1564151484056,1,2.48,0.91,0.43,1.33,1.05,0.87,-0.68,0.49,19,3,25,1.1,9654,25,88,44,34,931,519.0,649,468,60,120.0,142,1,305,200,74,0,0,505,-6528,-32248,519,-5.59,44.68119,10.025087,51.11,175.0,0,0.0,-1,0.0,0.0,0,0.69,2.2774
136663,1564151484076,2,2.48,0.91,0.44,1.32,1.05,0.9,-0.66,0.41,19,1,25,1.12,9650,25,88,44,34,937,519.0,655,467,60,120.0,140,1,305,200,73,0,0,506,998,6274,519,-5.59,,,,,,,,,,,,
136683,1564151484096,0,2.47,0.91,0.44,1.33,1.05,0.82,-0.66,0.4,19,3,24,1.05,9674,25,88,44,34,941,516.0,654,465,60,119.0,140,1,305,200,73,0,0,506,-6528,-32248,516,-5.59,,,,,,,,,,,,
136703,1564151484108,2,2.47,0.91,0.44,1.33,1.06,0.9,-0.67,0.32,19,2,24,1.12,9679,25,88,44,34,944,518.0,653,462,60,120.0,140,1,305,200,73,0,0,500,998,-28648,518,-5.59,,,,,,,,,,,,
136723,1564151484128,-0,2.48,0.91,0.44,1.33,1.06,0.8,-0.57,0.39,19,1,25,0.98,9669,25,88,44,34,953,516.0,651,467,60,120.0,140,1,305,200,73,0,0,502,248,-32248,516,-5.59,,,,,,,,,,,,
136743,1564151484148,3,2.48,0.91,0.44,1.33,1.05,0.92,-0.71,0.41,18,-0,25,1.16,9620,25,88,44,34,964,516.0,645,462,60,121.0,140,1,305,199,73,0,0,507,1,10408,516,-5.59,44.681179,10.025089,50.99,175.1,0,0.0,-1,0.0,0.0,0,0.69,2.279
136763,1564151484168,-1,2.48,0.91,0.43,1.33,1.04,0.9,-0.58,0.44,18,0,25,1.07,9610,25,88,44,34,973,513.0,648,463,60,120.0,142,1,305,199,73,0,0,504,1,-8187,513,-5.59,,,,,,,,,,,,
136783,1564151484204,2,2.47,0.91,0.44,1.33,1.05,0.88,-0.66,0.42,18,0,24,1.1,9640,25,88,44,35,981,512.0,647,460,60,121.0,142,1,308,201,73,0,0,499,-1818,6274,512,-5.59,,,,,,,,,,,,
136803,1564151484224,3,2.47,0.91,0.43,1.34,1.05,0.9,-0.6,0.33,18,1,25,1.08,9650,25,88,44,34,987,512.0,651,459,60,121.0,142,1,305,200,73,0,0,501,-1818,-9212,512,-5.59,,,,,,,,,,,,
136823,1564151484244,1,2.46,0.91,0.43,1.34,1.05,0.8,-0.55,0.35,18,1,25,0.97,9600,25,88,44,34,993,512.0,648,465,60,120.0,142,1,305,199,73,0,0,500,-6656,-8187,512,-5.59,,,,,,,,,,,,
136843,1564151484264,3,2.47,0.91,0.44,1.33,1.06,0.85,-0.65,0.35,17,2,25,1.07,9595,25,88,44,34,996,513.0,651,465,60,121.0,142,1,305,198,73,0,0,497,-6656,1248,513,-5.59,44.681164,10.025089,50.56,175.1,0,0.0,-1,0.0,0.0,0,0.69,2.2807
136863,1564151484284,1,2.47,0.91,0.43,1.34,1.05,0.89,-0.56,0.41,17,2,24,1.05,9645,25,88,44,34,994,510.0,656,465,60,120.0,141,1,305,198,72,0,0,502,505,15679,510,-5.59,,,,,,,,,,,,
136883,1564151484296,1,2.47,0.91,0.43,1.34,1.05,0.9,-0.7,0.44,17,1,24,1.14,9640,25,88,44,35,992,509.0,655,461,60,120.0,141,1,308,201,72,0,0,502,-1562,1341,509,-5.59,,,,,,,,,,,,
136903,1564151484316,5,2.47,0.9,0.43,1.33,1.06,0.92,-0.6,0.41,17,3,25,1.1,9635,25,88,44,35,989,508.0,652,469,60,120.0,141,1,308,201,72,0,0,497,-1562,2524,508,-5.59,,,,,,,,,,,,
136923,1564151484336,1,2.47,0.91,0.44,1.33,1.05,0.81,-0.58,0.39,17,2,25,1.0,9590,25,88,44,35,987,508.0,647,470,60,120.0,141,1,308,201,72,0,0,499,-1562,2088,510,-5.59,,,,,,,,,,,,
136943,1564151484356,3,2.47,0.91,0.43,1.33,1.05,0.89,-0.62,0.46,17,3,24,1.09,9610,25,88,44,35,985,509.0,648,466,60,120.0,141,1,308,201,72,0,0,499,-6441,1341,508,-5.59,44.681152,10.025089,50.35,175.1,0,0.0,-1,0.0,0.0,0,0.69,2.2824
136963,1564151484376,1,2.46,0.91,0.43,1.33,1.05,0.88,-0.54,0.49,17,3,23,1.03,9650,25,88,44,35,986,507.0,651,460,60,120.0,145,1,308,201,74,0,0,496,-6441,16383,509,-5.59,,,,,,,,,,,,
136983,1564151484396,2,2.46,0.9,0.43,1.33,1.05,0.99,-0.68,0.52,16,3,23,1.2,9659,25,88,44,35,988,507.0,647,466,60,120.0,145,1,308,202,74,0,0,502,3580,16383,507,-5.59,,,,,,,,,,,,
137003,1564151484408,-0,2.47,0.9,0.43,1.33,1.05,0.9,-0.51,0.54,16,3,24,1.04,9650,25,88,44,35,990,507.0,647,465,60,120.0,145,1,308,200,74,0,0,499,3580,16383,507,-5.59,,,,,,,,,,,,
137023,1564151484428,0,2.46,0.91,0.44,1.33,1.05,0.88,-0.58,0.52,16,1,23,1.05,9600,25,88,44,34,994,504.0,650,462,60,120.0,145,1,305,199,74,0,0,497,-899,2524,504,-5.59,,,,,,,,,,,,
137043,1564151484448,3,2.46,0.9,0.43,1.34,1.05,0.84,-0.53,0.57,16,0,23,1.0,9571,25,88,44,34,997,504.0,648,470,60,120.0,145,1,305,198,74,0,0,496,-10483,1341,504,-5.59,44.681141,10.025087,50.02,175.1,0,0.0,-1,0.0,0.0,0,0.7,2.284
137063,1564151484468,1,2.47,0.91,0.44,1.33,1.05,0.86,-0.47,0.56,16,3,22,0.98,9595,25,88,44,35,1000,505.0,653,462,60,120.0,144,1,308,201,73,0,0,495,3580,-3856,505,-5.59,,,,,,,,,,,,
137083,1564151484502,2,2.46,0.91,0.44,1.33,1.05,0.92,-0.62,0.66,16,1,22,1.11,9556,25,88,44,34,1001,507.0,650,466,60,120.0,144,1,305,198,73,0,0,499,32033,16383,507,-5.59,,,,,,,,,,,,
137103,1564151484522,3,2.46,0.9,0.43,1.33,1.05,0.9,-0.49,0.63,16,2,23,1.03,9508,25,88,44,34,1000,504.0,651,470,60,120.0,144,1,305,198,73,0,0,502,-10483,26178,504,-5.59,,,,,,,,,,,,
137123,1564151484542,1,2.47,0.91,0.44,1.34,1.05,0.82,-0.45,0.61,16,1,22,0.93,9403,25,88,44,34,1000,503.0,649,468,60,120.0,144,1,305,196,73,0,0,498,-899,-14,503,-5.59,,,,,,,,,,,,
137143,1564151484562,2,2.47,0.91,0.44,1.34,1.05,0.84,-0.6,0.66,16,2,21,1.03,9365,25,88,44,35,998,502.0,648,462,60,120.0,144,1,308,198,73,0,0,499,-10483,-8187,504,-5.59,44.681129,10.025085,49.7,175.1,0,0.0,-1,0.0,0.0,0,0.7,2.2857
137163,1564151484582,3,2.46,0.91,0.43,1.33,1.04,0.86,-0.63,0.66,15,2,21,1.07,9360,25,88,44,35,997,504.0,641,471,60,121.0,138,1,308,195,70,0,0,499,3580,16383,504,-5.59,,,,,,,,,,,,
137183,1564151484596,0,2.46,0.91,0.43,1.34,1.05,0.85,-0.46,0.65,16,3,21,0.97,9360,25,88,44,35,996,502.0,642,469,60,120.0,138,1,308,198,70,0,0,494,32033,-3856,502,-5.59,,,,,,,,,,,,
137203,1564151484616,1,2.46,0.91,0.44,1.34,1.05,0.81,-0.49,0.61,16,3,20,0.95,9393,25,88,44,35,996,505.0,643,465,60,119.0,138,1,308,198,70,0,0,494,32033,17136,505,-5.59,,,,,,,,,,,,
137223,1564151484636,1,2.46,0.91,0.44,1.33,1.05,0.83,-0.64,0.61,16,4,19,1.05,9384,25,88,44,35,999,503.0,641,466,60,119.0,138,1,308,198,70,0,0,497,-899,1341,503,-5.59,,,,,,,,,,,,
137243,1564151484656,1,2.47,0.91,0.44,1.33,1.05,0.84,-0.62,0.57,16,4,19,1.04,9379,25,88,44,35,1002,502.0,648,463,60,120.0,138,1,308,198,70,0,0,493,-899,15679,502,-5.59,44.681118,10.025083,49.68,175.1,0,0.0,-1,0.0,0.0,0,0.7,2.2874
137263,1564151484676,0,2.46,0.91,0.44,1.34,1.05,0.95,-0.47,0.56,16,2,20,1.06,9384,25,88,44,35,1006,501.0,648,466,60,120.0,139,1,308,198,70,0,0,495,10305,26178,501,-5.59,,,,,,,,,,,,
137283,1564151484696,1,2.46,0.9,0.43,1.33,1.05,0.89,-0.38,0.51,16,3,22,0.97,9337,24,88,44,35,1010,500.0,649,466,60,120.0,139,1,308,198,70,0,0,491,8488,-3414,500,-5.59,,,,,,,,,,,,
137303,1564151484707,1,2.46,0.91,0.43,1.34,1.05,0.79,-0.5,0.47,16,3,20,0.93,9342,22,88,44,34,1012,499.0,650,463,60,120.0,139,1,305,195,70,0,0,492,32033,-3856,499,-5.59,,,,,,,,,,,,
137323,1564151484727,1,2.46,0.91,0.43,1.33,1.06,0.82,-0.56,0.6,16,3,20,0.99,9342,20,88,44,33,1014,501.0,646,468,60,120.0,139,1,302,193,70,0,0,491,8488,-21872,496,-5.59,,,,,,,,,,,,
137343,1564151484747,2,2.45,0.91,0.43,1.33,1.05,0.94,-0.41,0.61,16,0,21,1.03,9305,20,88,44,33,1013,498.0,645,460,60,120.0,139,1,302,192,70,0,0,491,8488,-3414,498,-5.59,44.681103,10.02508,49.28,175.1,0,0.0,-1,0.0,0.0,0,0.7,2.2891
137363,1564151484767,-1,2.46,0.91,0.44,1.33,1.05,0.87,-0.32,0.61,16,1,21,0.93,9309,20,88,44,32,1012,500.0,645,467,60,119.0,134,1,300,190,67,0,0,492,2212,-32248,500,-5.59,,,,,,,,,,,,
137383,1564151484804,-1,2.46,0.91,0.44,1.34,1.06,0.8,-0.42,0.49,16,2,21,0.91,9254,18,88,44,31,1010,499.0,645,462,60,119.0,134,1,295,188,67,0,0,489,16648,15679,499,-5.59,,,,,,,,,,,,
137403,1564151484824,0,2.46,0.91,0.44,1.33,1.05,0.72,-0.57,0.5,15,3,20,0.92,9213,17,88,44,31,1008,498.0,641,465,60,121.0,134,1,295,187,67,0,0,492,8488,-4054,498,-5.59,,,,,,,,,,,,
137423,1564151484844,1,2.46,0.91,0.43,1.33,1.05,0.78,-0.71,0.54,15,3,20,1.06,9177,15,88,44,30,1007,497.0,643,463,60,120.0,134,1,291,186,67,0,0,490,2212,-3856,499,-5.59,,,,,,,,,,,,
137443,1564151484864,2,2.45,0.92,0.44,1.34,1.05,0.91,-0.77,0.63,15,1,19,1.19,9128,14,88,44,29,1006,499.0,643,466,60,121.0,134,1,287,185,67,0,0,489,16648,-21872,497,-5.59,44.681091,10.025075,49.36,175.1,0,0.0,-1,0.0,0.0,0,0.7,2.2907
137463,1564151484884,1,2.45,0.91,0.44,1.33,1.05,1.02,-0.76,0.65,14,1,20,1.27,9066,12,88,44,28,1001,496.0,645,467,60,121.0,126,1,282,184,63,0,0,495,-23367,-32248,496,-5.59,,,,,,,,,,,,
137483,1564151484893,2,2.46,0.91,0.43,1.34,1.05,1.12,-0.75,0.66,14,-0,20,1.35,8979,11,88,44,27,994,495.0,640,468,60,121.0,126,1,278,184,63,0,0,490,-17956,2109,495,-5.59,,,,,,,,,,,,
137503,1564151484913,2,2.44,0.91,0.44,1.34,1.05,1.19,-0.75,0.69,14,-0,18,1.41,8882,11,88,44,27,988,495.0,643,461,60,120.0,126,1,278,184,63,0,0,486,-9203,-3856,495,-5.59,,,,,,,,,,,,
137523,1564151484933,1,2.45,0.91,0.43,1.33,1.06,1.24,-0.84,0.7,14,-1,17,1.5,8773,11,88,44,26,981,492.0,638,464,60,122.0,126,1,274,184,63,0,0,483,3576,-32248,492,-5.59,,,,,,,,,,,,
137543,1564151484953,-0,2.45,0.91,0.44,1.33,1.05,1.15,-0.87,0.59,14,1,17,1.44,8684,11,88,44,26,970,494.0,638,465,60,120.0,126,1,274,184,63,0,0,484,-17956,-28648,495,-5.59,44.681084,10.02507,48.97,175.2,0,0.0,-1,0.0,0.0,0,0.7,2.2924
137563,1564151484973,3,2.45,0.9,0.44,1.33,1.05,1.09,-0.8,0.44,14,0,17,1.35,8656,11,88,44,26,957,495.0,635,463,60,120.0,121,1,274,184,60,0,0,479,3576,-6528,489,-5.59,,,,,,,,,,,,
137583,1564151484993,1,2.44,0.91,0.44,1.33,1.05,1.15,-0.73,0.45,14,-1,18,1.37,8656,10,88,44,26,947,487.0,635,463,60,121.0,121,1,274,184,60,0,0,474,32033,-10483,487,-5.59,,,,,,,,,,,,
137603,1564151485003,1,2.45,0.91,0.44,1.33,1.05,1.17,-0.62,0.54,14,-3,17,1.33,8753,10,88,44,26,940,482.0,638,462,60,120.0,121,1,274,184,60,0,0,683,243,10305,482,-5.59,,,,,,,,,,,,
137623,1564151485023,1,2.45,0.9,0.43,1.33,1.05,1.21,-0.61,0.56,14,-4,17,1.36,8827,10,88,44,25,931,482.0,638,462,60,122.0,121,1,270,184,60,0,0,683,16408,10305,479,-5.59,,,,,,,,,,,,
137643,1564151485043,1,2.44,0.91,0.43,1.33,1.05,1.23,-0.7,0.52,13,-3,17,1.42,8836,10,88,44,25,921,480.0,631,464,60,120.0,121,1,270,184,60,0,0,453,2211,-1923,480,-5.59,44.681068,10.025064,48.71,175.2,0,0.0,-1,0.0,0.0,0,0.7,2.294
137663,1564151485063,0,2.45,0.91,0.43,1.33,1.05,1.18,-0.74,0.5,13,-2,18,1.39,8815,10,88,44,25,915,477.0,636,461,60,120.0,127,1,270,184,61,0,0,461,-18108,16648,477,-5.59,,,,,,,,,,,,
137683,1564151485097,0,2.45,0.91,0.43,1.33,1.05,1.14,-0.81,0.4,13,-2,17,1.4,8790,10,88,44,25,912,476.0,636,465,60,120.0,127,1,270,184,61,0,0,465,-23623,32033,475,-5.59,,,,,,,,,,,,
137703,1564151485117,3,2.45,0.9,0.44,1.33,1.05,1.02,-0.75,0.32,13,-1,17,1.26,8773,10,88,44,25,907,474.0,643,467,60,122.0,127,1,270,184,61,0,0,460,14488,32033,474,-5.59,,,,,,,,,,,,
137723,1564151485137,3,2.44,0.9,0.43,1.33,1.05,1.01,-0.66,0.33,13,0,17,1.21,8716,10,88,44,25,902,472.0,640,468,60,121.0,127,1,270,184,61,0,0,457,2524,2212,472,-5.59,,,,,,,,,,,,
137743,1564151485157,0,2.45,0.91,0.44,1.33,1.05,1.05,-0.57,0.43,13,-1,17,1.2,8660,10,88,44,25,898,471.0,639,467,60,122.0,127,1,270,184,61,0,0,457,-6387,-1923,468,-5.59,44.681057,10.025058,48.06,175.2,0,0.0,-1,0.0,0.0,0,0.7,2.2957
137763,1564151485177,1,2.45,0.91,0.43,1.33,1.05,1.05,-0.59,0.46,13,0,16,1.2,8628,10,88,44,25,895,467.0,638,461,60,119.0,128,1,270,184,60,0,0,458,15649,32033,467,-5.59,,,,,,,,,,,,
137783,1564151485191,-1,2.44,0.91,0.44,1.33,1.04,1.03,-0.56,0.35,13,1,17,1.17,8604,10,88,44,26,893,464.0,633,465,60,120.0,128,1,274,184,60,0,0,451,15649,-16384,464,-5.59,,,,,,,,,,,,
137803,1564151485211,2,2.44,0.91,0.43,1.32,1.04,1.07,-0.55,0.32,13,0,16,1.2,8530,10,88,44,26,891,461.0,632,463,60,121.0,128,1,274,184,60,0,0,449,10305,-3210,461,-5.59,,,,,,,,,,,,
137823,1564151485231,1,2.45,0.9,0.44,1.33,1.05,1.14,-0.55,0.48,13,1,15,1.27,8488,10,88,44,26,890,459.0,631,466,60,121.0,128,1,274,183,60,0,0,448,21432,-18108,459,-5.59,,,,,,,,,,,,
137843,1564151485251,-1,2.45,0.91,0.43,1.33,1.04,1.05,-0.54,0.39,13,-0,16,1.18,8495,10,88,44,26,891,458.0,627,466,60,120.0,128,1,274,183,60,0,0,446,-28332,14488,458,-5.59,44.681046,10.025051,46.6,175.2,0,0.0,-1,0.0,0.0,0,0.71,2.2974
137863,1564151485271,1,2.44,0.9,0.43,1.33,1.04,1.08,-0.47,0.34,13,-1,16,1.18,8449,10,88,44,26,893,455.0,629,468,60,121.0,125,1,274,180,57,0,0,441,-28332,-26615,455,-5.59,,,,,,,,,,,,
137883,1564151485303,1,2.44,0.9,0.43,1.34,1.05,1.11,-0.5,0.42,12,-1,15,1.22,8404,10,88,44,26,897,452.0,628,464,60,120.0,125,1,274,178,57,0,0,439,-7939,17628,452,-5.59,,,,,,,,,,,,
137903,1564151485323,1,2.45,0.91,0.44,1.33,1.04,1.07,-0.53,0.38,12,-1,15,1.19,8348,10,88,44,26,900,449.0,631,465,60,121.0,125,1,273,175,57,0,0,440,243,-6387,449,-5.59,,,,,,,,,,,,
137923,1564151485343,-1,2.45,0.91,0.44,1.33,1.05,1.08,-0.46,0.45,12,-0,15,1.17,8337,10,88,44,26,903,449.0,631,464,60,119.0,125,1,273,175,57,0,0,436,5600,14488,449,-5.59,,,,,,,,,,,,
137943,1564151485363,3,2.45,0.91,0.44,1.33,1.05,1.01,-0.44,0.35,13,0,15,1.1,8296,10,88,44,26,905,450.0,628,465,60,120.0,125,1,273,175,57,0,0,439,-3322,15649,450,-5.59,44.681038,10.025044,45.89,175.2,0,0.0,-1,0.0,0.0,0,0.71,2.2991
137963,1564151485383,-0,2.46,0.91,0.43,1.33,1.04,1.07,-0.4,0.35,12,-0,16,1.14,8318,10,88,44,26,907,445.0,634,467,60,121.0,118,1,273,174,53,0,0,438,-3314,15649,445,-5.59,,,,,,,,,,,,
137983,1564151485395,-0,2.45,0.9,0.43,1.33,1.04,0.99,-0.43,0.35,13,0,15,1.08,8249,10,88,44,26,908,445.0,628,465,60,121.0,118,1,273,169,53,0,0,437,13552,-8985,445,-5.59,,,,,,,,,,,,
138003,1564151485415,1,2.45,0.91,0.43,1.34,1.04,1.05,-0.45,0.35,13,-0,15,1.15,8216,10,88,44,26,907,444.0,627,463,60,121.0,118,1,273,167,53,0,0,433,13552,-6387,444,-5.59,,,,,,,,,,,,
138023,1564151485435,3,2.45,0.91,0.43,1.33,1.05,0.97,-0.52,0.36,13,1,15,1.1,8223,10,88,44,26,904,442.0,622,465,60,121.0,118,1,273,168,53,0,0,429,-4082,15649,442,-5.59,,,,,,,,,,,,
138043,1564151485455,1,2.46,0.91,0.43,1.34,1.05,0.99,-0.53,0.42,13,2,16,1.12,8177,10,88,44,26,901,439.0,625,462,60,119.0,118,1,273,166,53,0,0,431,-4082,2131,439,-5.59,44.681026,10.025037,44.44,175.2,0,0.0,-1,0.0,0.0,0,0.71,2.3007
138063,1564151485475,3,2.46,0.91,0.43,1.33,1.04,0.95,-0.54,0.43,14,2,16,1.09,8130,10,88,44,26,897,440.0,621,463,60,121.0,113,1,273,163,50,0,0,427,-21792,20625,440,-5.59,,,,,,,,,,,,
138083,1564151485495,-1,2.47,0.91,0.43,1.33,1.05,0.95,-0.56,0.58,13,1,15,1.1,8102,10,88,44,26,895,438.0,622,466,60,120.0,113,1,273,163,50,0,0,428,-3414,-28332,435,-5.59,,,,,,,,,,,,
138103,1564151485507,-0,2.47,0.91,0.43,1.33,1.04,0.96,-0.57,0.58,14,0,15,1.11,8102,10,88,44,27,892,435.0,622,464,60,122.0,113,1,276,163,50,0,0,424,-3414,-28332,435,-5.59,,,,,,,,,,,,
138123,1564151485527,-0,2.47,0.9,0.44,1.33,1.05,0.9,-0.6,0.58,14,1,16,1.08,8061,10,88,44,27,888,435.0,624,465,60,120.0,113,1,276,159,50,0,0,424,-9166,243,435,-5.59,,,,,,,,,,,,
138143,1564151485547,1,2.46,0.91,0.44,1.34,1.04,0.99,-0.61,0.61,14,0,15,1.16,8005,10,88,44,27,885,433.0,621,462,60,120.0,113,1,275,157,50,0,0,419,-26615,21580,433,-5.59,44.681019,10.025029,43.51,175.2,0,0.0,-1,0.0,0.0,0,0.71,2.3024
138163,1564151485567,2,2.47,0.9,0.43,1.33,1.05,0.96,-0.61,0.53,14,0,15,1.14,7995,10,88,44,27,883,432.0,619,464,60,121.0,108,1,275,157,47,0,0,414,11560,5600,432,-5.59,,,,,,,,,,,,
138183,1564151485603,0,2.46,0.91,0.43,1.32,1.05,0.87,-0.6,0.48,14,2,16,1.06,7978,10,88,44,27,882,429.0,621,465,60,120.0,108,1,275,157,47,0,0,418,9517,1779,429,-5.59,,,,,,,,,,,,
138203,1564151485623,0,2.46,0.91,0.43,1.33,1.04,0.92,-0.55,0.5,14,1,15,1.07,7901,10,88,44,27,883,429.0,621,463,60,121.0,108,1,275,159,47,0,0,413,10392,3635,428,-5.59,,,,,,,,,,,,
138223,1564151485643,2,2.46,0.91,0.43,1.34,1.05,0.96,-0.51,0.49,14,1,15,1.09,7911,10,88,44,27,884,427.0,620,464,60,120.0,108,1,275,159,47,0,0,413,10392,3635,427,-5.59,,,,,,,,,,,,
138243,1564151485663,2,2.47,0.91,0.43,1.33,1.04,0.89,-0.54,0.47,15,3,17,1.04,7851,11,88,44,28,886,425.0,619,465,60,121.0,108,1,277,159,47,0,0,415,2524,-3322,425,-5.59,44.681007,10.025021,42.85,175.2,0,0.0,-1,0.0,0.0,0,0.71,2.304
138263,1564151485683,-2,2.46,0.91,0.43,1.32,1.05,0.83,-0.52,0.51,15,4,16,0.98,7845,11,88,44,28,889,424.0,617,465,60,119.0,110,1,277,159,47,0,0,413,-9211,-3322,424,-5.59,,,,,,,,,,,,
138283,1564151485693,0,2.47,0.91,0.43,1.34,1.04,0.86,-0.53,0.53,15,3,16,1.01,7825,11,88,44,28,892,422.0,615,465,60,121.0,110,1,277,159,47,0,0,408,1504,-3322,422,-5.59,,,,,,,,,,,,
138303,1564151485713,0,2.46,0.91,0.43,1.33,1.05,0.93,-0.51,0.47,15,2,17,1.06,7793,11,88,44,28,895,421.0,611,463,60,120.0,110,1,276,160,47,0,0,407,6512,13180,421,-5.59,,,,,,,,,,,,
138323,1564151485733,2,2.46,0.91,0.43,1.34,1.05,0.9,-0.52,0.47,15,1,16,1.04,7812,11,88,44,29,895,419.0,610,465,60,122.0,110,1,280,160,47,0,0,407,28696,-4082,419,-5.59,,,,,,,,,,,,
138343,1564151485753,1,2.47,0.91,0.43,1.33,1.05,0.8,-0.51,0.45,15,2,17,0.95,7786,11,88,44,29,895,419.0,606,466,60,120.0,110,1,280,160,47,0,0,408,28696,-4082,417,-5.59,44.681,10.025013,41.93,175.2,0,0.0,-1,0.0,0.0,0,0.71,2.3057
138363,1564151485773,-1,2.47,0.91,0.43,1.34,1.04,0.79,-0.48,0.4,15,2,18,0.93,7722,11,88,44,29,894,418.0,608,464,60,120.0,112,1,280,160,47,0,0,404,-3968,-3414,416,-5.59,,,,,,,,,,,,
138383,1564151485793,-1,2.46,0.9,0.43,1.33,1.04,0.86,-0.46,0.45,15,2,17,0.97,7712,11,88,44,30,894,415.0,605,465,60,120.0,112,1,283,162,47,0,0,404,-3968,-8165,415,-5.59,,,,,,,,,,,,
138403,1564151485805,1,2.46,0.91,0.43,1.34,1.04,0.93,-0.46,0.41,14,1,16,1.04,7671,11,88,44,30,893,415.0,606,465,60,121.0,112,1,283,162,47,0,0,405,-32702,-8165,415,-5.59,,,,,,,,,,,,
138423,1564151485825,0,2.46,0.91,0.43,1.33,1.05,0.99,-0.46,0.43,14,1,18,1.09,7665,11,88,44,30,893,414.0,605,465,60,122.0,112,1,283,162,47,0,0,400,-1818,-8165,414,-5.59,,,,,,,,,,,,
138443,1564151485845,-1,2.47,0.91,0.43,1.34,1.04,1.01,-0.48,0.46,15,0,18,1.12,7628,16,88,44,31,894,412.0,607,465,60,122.0,112,1,286,163,47,0,0,403,1,7154,412,-5.59,44.680988,10.025004,41.48,175.2,0,0.0,-1,0.0,0.0,0,0.71,2.3074
138463,1564151485865,1,2.46,0.91,0.43,1.33,1.04,1.0,-0.45,0.46,14,0,16,1.1,7646,16,88,44,32,895,411.0,603,464,60,122.0,114,1,290,165,47,0,0,398,-1562,13040,410,-5.59,,,,,,,,,,,,
138483,1564151485898,2,2.46,0.91,0.43,1.33,1.04,0.97,-0.48,0.43,14,0,17,1.08,7609,16,88,44,33,896,409.0,605,465,60,122.0,114,1,292,170,47,0,0,399,-1562,2524,409,-5.59,,,,,,,,,,,,
138503,1564151485918,1,2.46,0.91,0.43,1.33,1.05,0.89,-0.46,0.39,14,1,19,1.0,7628,16,88,44,33,896,410.0,605,465,60,122.0,114,1,292,170,47,0,0,397,-1562,9517,410,-5.59,,,,,,,,,,,,
138523,1564151485938,3,2.46,0.91,0.43,1.33,1.05,0.76,-0.39,0.35,15,3,18,0.86,7591,16,88,44,34,898,406.0,603,465,60,120.0,114,1,295,175,47,0,0,396,505,2524,406,-5.59,,,,,,,,,,,,
138543,1564151485958,3,2.46,0.91,0.43,1.33,1.04,0.62,-0.39,0.32,15,4,17,0.74,7603,16,88,44,34,901,406.0,596,465,60,119.0,114,1,295,175,47,0,0,396,-6524,9517,406,-5.59,44.680984,10.024995,40.61,175.2,0,0.0,-1,0.0,0.0,0,0.71,2.3091
138563,1564151485978,2,2.47,0.91,0.43,1.33,1.04,0.54,-0.37,0.28,15,5,18,0.66,7581,17,88,44,35,903,406.0,595,466,60,119.0,127,1,298,181,52,0,0,401,240,-9166,406,-5.59,,,,,,,,,,,,
138583,1564151485998,3,2.46,0.9,0.43,1.33,1.05,0.49,-0.35,0.26,15,5,19,0.6,7554,16,88,44,35,904,405.0,594,464,60,119.0,127,1,298,181,52,0,0,393,-6475,13040,405,-5.59,,,,,,,,,,,,
138603,1564151486006,2,2.47,0.91,0.43,1.33,1.05,0.46,-0.32,0.25,15,6,17,0.56,7545,17,88,44,36,908,404.0,595,466,60,119.0,127,1,301,187,52,0,0,391,-19019,11560,403,-5.59,,,,,,,,,,,,
138623,1564151486026,-4,2.46,0.91,0.43,1.33,1.04,0.44,-0.32,0.19,15,6,18,0.54,7524,17,88,44,36,914,403.0,590,462,60,120.0,127,1,301,187,52,0,0,393,-19126,-4059,403,-5.59,,,,,,,,,,,,
138643,1564151486046,3,2.47,0.91,0.43,1.34,1.04,0.41,-0.34,0.15,15,7,19,0.54,7512,17,88,44,37,920,402.0,592,465,60,120.0,127,1,304,193,52,0,0,392,-19126,10541,402,-5.59,44.680973,10.024985,40.05,175.2,0,0.0,-1,0.0,0.0,0,0.72,2.3107
138663,1564151486066,3,2.46,0.91,0.43,1.33,1.04,0.44,-0.34,0.16,15,6,19,0.55,7464,17,88,44,37,925,402.0,595,467,60,120.0,131,1,304,192,53,0,0,392,-19019,11560,402,-5.59,,,,,,,,,,,,
138683,1564151486100,3,2.46,0.91,0.43,1.33,1.04,0.39,-0.32,0.14,14,7,18,0.51,7500,17,88,44,37,933,403.0,595,465,60,120.0,131,1,304,193,53,0,0,392,-19126,-4059,403,-5.59,,,,,,,,,,,,
138703,1564151486120,3,2.46,0.91,0.43,1.34,1.05,0.33,-0.32,0.11,15,7,19,0.46,7461,17,88,44,37,948,401.0,592,466,60,120.0,131,1,304,192,53,0,0,391,-19126,13040,401,-5.59,,,,,,,,,,,,
138723,1564151486140,3,2.46,0.91,0.43,1.33,1.04,0.26,-0.3,0.03,15,9,20,0.4,7467,17,88,44,37,961,399.0,593,465,60,120.0,131,1,304,192,53,0,0,389,-18948,13040,399,-5.59,,,,,,,,,,,,
138743,1564151486160,2,2.47,0.91,0.44,1.33,1.05,0.23,-0.28,0.01,15,9,21,0.36,7461,17,88,44,38,970,400.0,596,465,60,120.0,131,1,307,197,53,0,0,392,-992,-26615,400,-5.59,44.680965,10.024976,39.9,175.2,0,0.0,-1,0.0,0.0,0,0.72,2.3124
138763,1564151486180,3,2.46,0.91,0.43,1.34,1.05,0.16,-0.25,-0.04,15,10,20,0.29,7482,17,88,44,38,981,399.0,595,465,60,119.0,135,1,307,197,54,0,0,390,2278,11560,399,-5.59,,,,,,,,,,,,
138783,1564151486192,3,2.46,0.9,0.43,1.33,1.05,0.1,-0.26,-0.07,16,11,20,0.28,7473,17,88,44,38,993,398.0,591,466,60,119.0,135,1,307,197,54,0,0,387,2278,10541,398,-5.59,,,,,,,,,,,,
138803,1564151486212,3,2.46,0.91,0.43,1.34,1.04,0.07,-0.26,-0.14,16,12,21,0.27,7455,17,88,44,38,1004,398.0,590,464,60,120.0,135,1,307,197,54,0,0,386,2278,6512,396,-5.59,,,,,,,,,,,,
138823,1564151486232,3,2.46,0.91,0.43,1.34,1.05,0.04,-0.2,-0.13,16,11,22,0.21,7455,17,88,44,38,1006,396.0,590,467,60,120.0,135,1,307,197,54,0,0,388,8200,10541,396,-5.59,,,,,,,,,,,,
138843,1564151486252,2,2.46,0.92,0.43,1.34,1.04,-0.05,-0.14,-0.2,16,12,21,0.15,7431,17,88,44,38,1008,397.0,590,464,60,120.0,135,1,307,197,54,0,0,386,-6656,10392,398,-5.59,44.680962,10.024965,39.51,175.2,0,0.0,-1,0.0,0.0,0,0.72,2.314
138863,1564151486272,2,2.46,0.91,0.43,1.33,1.04,-0.12,-0.15,-0.22,17,12,21,0.19,7452,17,88,44,38,1007,397.0,587,463,60,120.0,139,1,307,197,55,0,0,387,-6656,2524,396,-5.59,,,,,,,,,,,,
138883,1564151486292,1,2.46,0.9,0.43,1.33,1.05,-0.1,-0.09,-0.21,17,13,21,0.14,7428,17,88,44,38,1005,395.0,584,466,60,120.0,139,1,307,197,55,0,0,386,742,1504,396,-5.59,,,,,,,,,,,,
138903,1564151486305,1,2.45,0.91,0.43,1.33,1.04,-0.06,-0.04,-0.21,17,13,21,0.07,7428,17,88,44,38,1001,394.0,590,464,60,121.0,139,1,307,197,55,0,0,384,770,-8151,394,-5.59,,,,,,,,,,,,
138923,1564151486325,0,2.46,0.91,0.44,1.34,1.04,-0.01,-0.0,-0.16,18,12,19,0.01,7396,17,88,44,38,997,394.0,591,464,60,120.0,139,1,307,197,55,0,0,386,742,-8151,394,-5.59,,,,,,,,,,,,
138943,1564151486345,0,2.46,0.91,0.43,1.33,1.05,0.09,-0.04,-0.07,18,9,18,0.1,7428,17,88,44,38,990,394.0,588,463,60,121.0,139,1,307,197,55,0,0,383,-6656,-8151,394,-5.59,44.680954,10.024956,38.98,175.2,0,0.0,-1,0.0,0.0,0,0.72,2.3157
138963,1564151486365,-1,2.46,0.91,0.43,1.33,1.04,0.27,-0.11,0.02,17,9,18,0.29,7402,17,88,44,38,984,393.0,587,465,60,121.0,145,1,307,203,57,0,0,384,770,-32702,393,-5.59,,,,,,,,,,,,
138983,1564151486396,-1,2.46,0.91,0.44,1.34,1.04,0.44,-0.12,0.2,16,7,18,0.46,7425,17,88,45,39,982,391.0,590,466,60,121.0,145,1,310,203,57,0,0,383,770,-8151,391,-5.59,,,,,,,,,,,,
139003,1564151486416,-1,2.44,0.91,0.44,1.33,1.04,0.57,-0.19,0.38,16,3,17,0.6,7402,17,88,45,38,980,389.0,592,462,60,121.0,145,1,307,203,57,0,0,381,770,6384,389,-5.59,,,,,,,,,,,,
139023,1564151486436,-2,2.44,0.91,0.43,1.33,1.05,0.71,-0.25,0.49,14,1,16,0.76,7431,17,88,45,39,975,390.0,592,463,60,121.0,145,1,310,203,57,0,0,386,770,28696,390,-5.59,,,,,,,,,,,,
139043,1564151486456,-1,2.44,0.91,0.43,1.33,1.05,0.85,-0.28,0.52,14,1,16,0.89,7422,17,88,45,38,971,390.0,591,465,60,120.0,145,1,307,203,57,0,0,383,-6656,-32702,390,-5.59,44.680946,10.024945,38.66,175.2,0,0.0,-1,0.0,0.0,0,0.72,2.3174
139063,1564151486476,-1,2.44,0.91,0.43,1.34,1.05,0.94,-0.36,0.63,13,-0,17,1.01,7470,17,88,45,39,969,389.0,590,467,60,119.0,140,1,310,203,55,0,0,383,-6656,6384,389,-5.59,,,,,,,,,,,,
139083,1564151486496,-0,2.44,0.91,0.43,1.34,1.04,1.03,-0.43,0.7,12,-2,16,1.11,7437,17,88,44,39,967,389.0,593,465,60,119.0,140,1,310,203,55,0,0,383,257,1,389,-5.59,,,,,,,,,,,,
139103,1564151486510,-1,2.43,0.91,0.43,1.33,1.04,1.1,-0.44,0.71,11,-3,15,1.18,7479,17,88,45,39,965,390.0,592,465,60,120.0,140,1,310,203,55,0,0,380,1,-6656,390,-5.59,,,,,,,,,,,,
139123,1564151486530,-0,2.44,0.9,0.44,1.33,1.05,1.12,-0.43,0.72,11,-2,15,1.2,7443,17,88,45,39,963,387.0,588,462,60,119.0,140,1,310,203,55,0,0,380,257,-6656,387,-5.59,,,,,,,,,,,,
139143,1564151486550,-1,2.43,0.91,0.44,1.33,1.05,1.06,-0.49,0.71,11,-1,16,1.16,7461,17,88,45,39,962,387.0,585,465,60,120.0,140,1,310,203,55,0,0,381,1,-32702,387,-5.59,44.680943,10.024935,38.42,175.2,0,0.0,-1,0.0,0.0,0,0.72,2.3191
139163,1564151486570,-0,2.43,0.9,0.43,1.33,1.05,1.05,-0.5,0.7,10,-2,16,1.16,7425,17,88,45,38,962,388.0,582,463,60,119.0,142,1,307,203,55,0,0,381,1,17144,388,-5.59,,,,,,,,,,,,
139183,1564151486604,-0,2.44,0.91,0.43,1.33,1.04,1.0,-0.46,0.64,10,-1,15,1.1,7428,17,88,45,39,959,387.0,592,465,60,118.0,142,1,310,203,55,0,0,384,257,-1818,387,-5.59,,,,,,,,,,,,
139203,1564151486624,1,2.43,0.91,0.44,1.33,1.05,0.9,-0.5,0.57,11,1,15,1.03,7405,17,88,45,39,955,386.0,585,464,60,120.0,142,1,310,203,55,0,0,379,486,-1818,386,-5.59,,,,,,,,,,,,
139223,1564151486644,2,2.43,0.91,0.44,1.34,1.04,0.78,-0.43,0.47,11,2,16,0.89,7329,17,88,45,39,951,385.0,580,465,60,120.0,142,1,310,203,55,0,0,379,486,17144,386,-5.59,,,,,,,,,,,,
139243,1564151486664,2,2.43,0.91,0.43,1.33,1.05,0.65,-0.36,0.36,12,3,16,0.74,7287,17,88,45,39,946,386.0,578,465,60,120.0,142,1,310,203,55,0,0,384,486,505,386,-5.59,44.680935,10.024923,38.22,175.1,0,0.0,-1,0.0,0.0,0,0.72,2.3207
139263,1564151486684,1,2.43,0.91,0.43,1.34,1.05,0.59,-0.29,0.39,12,4,15,0.66,7208,17,88,45,39,941,386.0,574,464,60,121.0,142,1,310,203,55,0,0,383,257,-1818,385,-5.59,,,,,,,,,,,,
139283,1564151486696,-1,2.43,0.91,0.44,1.33,1.05,0.72,-0.36,0.5,11,1,14,0.81,7200,17,88,45,39,936,384.0,573,463,60,120.0,142,1,310,204,55,0,0,382,1,-32702,384,-5.59,,,,,,,,,,,,
139303,1564151486716,0,2.41,0.91,0.44,1.33,1.05,0.84,-0.36,0.59,10,-0,15,0.91,7123,17,88,45,40,932,385.0,571,465,60,118.0,142,1,317,204,55,0,0,379,1,17144,385,-5.59,,,,,,,,,,,,
139323,1564151486736,3,2.4,0.91,0.44,1.34,1.05,0.77,-0.3,0.49,10,0,15,0.82,7113,17,88,45,40,931,386.0,568,463,60,121.0,142,1,317,204,55,0,0,383,1,17144,384,-5.59,,,,,,,,,,,,
139343,1564151486756,1,2.4,0.9,0.44,1.33,1.04,0.67,-0.17,0.41,11,2,15,0.69,7140,17,88,45,40,931,385.0,567,463,60,123.0,142,1,317,204,55,0,0,384,1,505,384,-5.59,44.680931,10.024912,37.84,175.1,0,0.0,-1,0.0,0.0,0,0.72,2.3224
139363,1564151486776,-1,2.4,0.91,0.44,1.33,1.05,0.69,-0.18,0.48,11,0,13,0.71,7104,17,88,45,40,932,384.0,567,460,60,121.0,143,1,317,204,55,0,0,384,486,17144,383,-5.59,,,,,,,,,,,,
139383,1564151486796,-1,2.39,0.91,0.44,1.33,1.05,0.82,-0.2,0.56,10,-1,12,0.84,7113,17,88,45,41,934,384.0,570,466,60,119.0,143,1,325,206,55,0,0,381,257,-1562,382,-5.59,,,,,,,,,,,,
139403,1564151486806,2,2.39,0.91,0.43,1.33,1.05,0.91,-0.24,0.64,10,-1,13,0.94,7107,17,88,45,41,936,382.0,563,465,60,120.0,143,1,325,206,55,0,0,379,-6656,-6524,382,-5.59,,,,,,,,,,,,
139423,1564151486826,-1,2.39,0.91,0.43,1.33,1.05,0.83,-0.18,0.6,10,0,13,0.84,7075,17,88,45,41,938,380.0,566,462,60,122.0,143,1,325,206,55,0,0,379,0,-31744,380,-5.59,,,,,,,,,,,,
139443,1564151486846,-1,2.4,0.91,0.43,1.34,1.05,0.86,-0.22,0.73,10,-0,12,0.89,7113,17,88,45,41,940,381.0,565,464,60,120.0,143,1,325,206,55,0,0,375,486,-6524,381,-5.59,44.680923,10.024901,38.02,175.1,0,0.0,-1,0.0,0.0,0,0.72,2.324
139463,1564151486866,3,2.39,0.91,0.44,1.33,1.05,0.92,-0.3,0.8,9,-3,12,0.97,7094,17,88,45,41,940,382.0,562,466,60,120.0,144,1,325,206,55,0,0,377,257,-3866,382,-5.59,,,,,,,,,,,,
139483,1564151486902,1,2.39,0.91,0.43,1.33,1.04,0.84,-0.23,0.65,9,0,12,0.87,7113,17,88,45,41,939,380.0,564,466,60,119.0,144,1,325,206,55,0,0,378,486,-19126,380,-5.59,,,,,,,,,,,,
139503,1564151486922,1,2.39,0.9,0.44,1.33,1.05,0.77,-0.2,0.58,9,0,11,0.79,7153,17,88,45,41,942,379.0,571,462,60,120.0,144,1,325,206,55,0,0,378,486,-31744,379,-5.59,,,,,,,,,,,,
139523,1564151486942,-2,2.39,0.91,0.44,1.34,1.04,0.74,-0.13,0.56,9,-1,11,0.75,7140,16,88,45,41,948,379.0,573,462,60,119.0,144,1,325,206,55,0,0,379,0,-3866,379,-5.59,,,,,,,,,,,,
139543,1564151486962,-1,2.39,0.91,0.44,1.33,1.05,0.83,-0.16,0.7,8,-3,10,0.84,7170,15,88,45,41,953,378.0,571,463,60,119.0,144,1,325,206,55,0,0,379,0,-6524,378,-5.59,44.680923,10.02489,38.1,175.1,0,0.0,-1,0.0,0.0,0,0.73,2.3257
139563,1564151486982,1,2.38,0.91,0.44,1.32,1.05,0.94,-0.23,0.75,7,-3,10,0.97,7181,15,88,45,41,959,379.0,570,463,60,121.0,147,1,325,206,56,0,0,379,0,240,379,-5.59,,,,,,,,,,,,
139583,1564151487002,1,2.38,0.9,0.43,1.33,1.05,0.9,-0.17,0.63,8,-0,9,0.91,7172,15,88,45,41,966,379.0,572,463,60,120.0,147,1,325,206,56,0,0,377,0,-18948,379,-5.59,,,,,,,,,,,,
139603,1564151487007,-0,2.37,0.9,0.44,1.33,1.04,0.76,-0.12,0.53,8,-1,9,0.77,7203,15,87,45,41,975,377.0,573,468,60,120.0,147,1,325,206,56,0,0,375,0,-3866,377,-5.59,,,,,,,,,,,,
139623,1564151487027,-1,2.38,0.9,0.44,1.33,1.05,0.78,-0.12,0.52,7,-2,9,0.79,7175,15,88,45,41,982,377.0,576,464,60,120.0,147,1,325,206,56,0,0,377,-6656,-6475,377,-5.59,,,,,,,,,,,,
139643,1564151487047,3,2.37,0.91,0.44,1.34,1.05,0.87,-0.2,0.67,7,-3,9,0.89,7211,15,88,44,41,984,375.0,571,465,60,120.0,147,1,325,206,56,0,0,380,-6656,-992,375,-5.59,44.680916,10.024878,37.39,175.1,0,0.0,-1,0.0,0.0,0,0.73,2.3274
139663,1564151487067,2,2.37,0.9,0.43,1.33,1.05,0.98,-0.24,0.73,6,-2,9,1.01,7222,15,88,44,41,986,376.0,570,466,60,120.0,146,1,325,204,55,0,0,377,0,-992,376,-5.59,,,,,,,,,,,,
139683,1564151487104,1,2.36,0.9,0.44,1.33,1.05,0.91,-0.17,0.62,7,-1,8,0.92,7192,14,88,44,40,988,374.0,572,462,60,121.0,146,1,317,204,55,0,0,381,0,-19126,374,-5.59,,,,,,,,,,,,
139703,1564151487124,-0,2.36,0.91,0.44,1.33,1.05,0.77,-0.13,0.51,7,-1,7,0.78,7203,14,88,44,40,989,374.0,573,464,60,122.0,146,1,317,204,55,0,0,377,0,-18948,374,-5.59,,,,,,,,,,,,
139723,1564151487144,-0,2.36,0.9,0.44,1.34,1.05,0.79,-0.13,0.48,7,-2,7,0.8,7137,14,88,44,40,989,374.0,572,465,60,120.0,146,1,317,204,55,0,0,379,230,-6656,374,-5.59,,,,,,,,,,,,
139743,1564151487164,3,2.37,0.91,0.43,1.33,1.05,0.84,-0.22,0.61,6,-2,7,0.87,7151,13,88,44,40,988,375.0,570,465,60,120.0,146,1,317,204,55,0,0,377,0,-19019,375,-5.59,44.680912,10.024866,37.42,175.1,0,0.0,-1,0.0,0.0,0,0.73,2.3291
139763,1564151487184,2,2.36,0.91,0.44,1.33,1.05,0.91,-0.22,0.62,6,-1,8,0.94,7126,13,88,44,40,987,374.0,567,465,60,120.0,147,1,317,204,55,0,0,378,0,-6524,374,-5.59,,,,,,,,,,,,
139783,1564151487193,0,2.36,0.9,0.43,1.33,1.05,0.76,-0.11,0.48,7,0,7,0.77,7067,13,88,44,39,985,373.0,571,461,60,120.0,147,1,310,203,55,0,0,378,0,-19126,373,-5.59,,,,,,,,,,,,
139803,1564151487213,-1,2.36,0.9,0.44,1.33,1.04,0.77,-0.14,0.51,6,-2,6,0.79,7070,13,88,44,39,984,373.0,568,470,60,119.0,147,1,310,203,55,0,0,379,-6656,-19126,373,-5.59,,,,,,,,,,,,
139823,1564151487233,2,2.36,0.91,0.43,1.34,1.04,0.8,-0.17,0.56,6,-1,6,0.82,7064,13,88,44,39,982,372.0,562,467,60,120.0,147,1,310,203,55,0,0,375,230,2278,372,-5.59,,,,,,,,,,,,
139843,1564151487253,1,2.36,0.91,0.43,1.34,1.05,0.76,-0.07,0.52,6,1,6,0.76,7014,13,88,44,39,980,373.0,564,463,60,122.0,147,1,310,203,55,0,0,377,230,19125,373,-5.59,44.680908,10.024855,37.07,175.0,0,0.0,-1,0.0,0.0,0,0.73,2.3307
139863,1564151487273,-0,2.36,0.9,0.43,1.33,1.05,0.69,0.03,0.52,6,0,5,0.69,7009,12,88,44,39,979,372.0,565,469,60,120.0,142,1,310,203,53,0,0,378,0,8200,372,-5.59,,,,,,,,,,,,
139883,1564151487293,2,2.35,0.91,0.43,1.33,1.04,0.74,-0.05,0.58,5,-1,6,0.74,6962,12,88,44,39,978,374.0,561,462,60,120.0,142,1,310,203,53,0,0,375,230,-18948,374,-5.59,,,,,,,,,,,,
139903,1564151487305,0,2.36,0.9,0.44,1.33,1.05,0.73,0.01,0.5,6,1,5,0.73,6949,11,88,44,38,977,372.0,561,459,60,121.0,142,1,307,197,53,0,0,374,-6405,-18948,372,-5.59,,,,,,,,,,,,
139923,1564151487325,-1,2.36,0.9,0.44,1.33,1.04,0.72,-0.05,0.51,5,-0,5,0.72,6939,11,88,44,38,975,371.0,558,462,60,121.0,142,1,307,197,53,0,0,375,230,-19126,371,-5.59,,,,,,,,,,,,
139943,1564151487345,2,2.35,0.91,0.44,1.34,1.04,0.77,-0.07,0.52,5,1,5,0.78,6918,11,88,44,38,972,373.0,554,465,60,122.0,142,1,307,197,53,0,0,376,-6405,-19126,371,-5.59,44.680904,10.024843,37.29,175.0,0,0.0,-1,0.0,0.0,0,0.73,2.3324
139963,1564151487365,-0,2.36,0.91,0.43,1.34,1.04,0.73,-0.01,0.47,5,1,5,0.73,6880,11,88,44,38,971,371.0,553,462,60,122.0,137,1,307,197,51,0,0,375,230,-992,369,-5.59,,,,,,,,,,,,
139983,1564151487399,3,2.35,0.91,0.44,1.34,1.05,0.75,-0.08,0.61,5,1,5,0.76,6883,11,88,44,38,969,370.0,553,467,60,121.0,137,1,307,197,51,0,0,373,-6405,-6656,370,-5.59,,,,,,,,,,,,
140003,1564151487419,-1,2.35,0.9,0.44,1.33,1.05,0.84,-0.03,0.56,5,2,4,0.84,6873,11,88,44,38,966,369.0,551,460,60,122.0,137,1,307,197,51,0,0,373,-1268,3,369,-5.59,,,,,,,,,,,,
140023,1564151487439,3,2.35,0.91,0.44,1.34,1.05,0.79,-0.04,0.61,4,-1,4,0.79,6848,11,88,44,38,962,368.0,554,467,60,120.0,137,1,307,197,51,0,0,375,-1268,3,368,-5.59,,,,,,,,,,,,
140043,1564151487459,-0,2.35,0.91,0.43,1.33,1.04,0.85,-0.01,0.57,5,0,4,0.85,6820,11,88,44,38,958,369.0,556,459,60,123.0,137,1,307,197,51,0,0,376,3082,-6656,369,-5.59,44.680901,10.024832,36.73,175.0,0,0.0,-1,0.0,0.0,0,0.73,2.334
140063,1564151487479,-1,2.35,0.9,0.44,1.33,1.05,0.8,-0.01,0.56,4,-1,4,0.8,6835,10,88,44,38,956,368.0,551,466,60,121.0,135,1,307,197,50,0,0,373,3082,742,368,-5.59,,,,,,,,,,,,
140083,1564151487491,2,2.34,0.91,0.43,1.34,1.04,0.86,-0.04,0.63,4,-1,3,0.87,6810,10,88,44,38,948,368.0,546,463,60,122.0,135,1,307,197,50,0,0,371,3082,1,366,-5.59,,,,,,,,,,,,
140103,1564151487511,0,2.35,0.91,0.44,1.33,1.05,0.84,-0.02,0.61,4,-0,3,0.84,6761,10,88,44,38,941,368.0,546,462,60,121.0,135,1,307,197,50,0,0,372,3082,742,366,-5.59,,,,,,,,,,,,
140123,1564151487531,1,2.35,0.9,0.44,1.34,1.04,0.85,-0.12,0.66,3,-1,4,0.86,6747,10,88,44,38,933,367.0,542,465,60,121.0,135,1,307,197,50,0,0,371,3082,1,367,-5.59,,,,,,,,,,,,
140143,1564151487551,0,2.35,0.9,0.45,1.34,1.05,0.8,-0.03,0.61,4,1,3,0.8,6759,10,88,44,38,928,366.0,543,463,60,120.0,135,1,307,197,50,0,0,371,-1268,742,366,-5.59,44.680897,10.024819,36.88,175.0,0,0.0,-1,0.0,0.0,0,0.73,2.3357
140163,1564151487571,2,2.34,0.9,0.44,1.33,1.05,0.9,-0.06,0.62,3,-1,3,0.9,6739,10,88,44,38,921,365.0,544,462,60,123.0,136,1,307,197,50,0,0,367,2790,770,365,-5.59,,,,,,,,,,,,
140183,1564151487605,0,2.34,0.91,0.44,1.33,1.05,0.77,-0.02,0.54,4,1,3,0.77,6710,10,88,44,38,913,365.0,548,463,60,120.0,136,1,307,124,50,0,0,370,2790,486,365,-5.59,,,,,,,,,,,,
140203,1564151487625,2,2.35,0.9,0.44,1.33,1.04,0.88,-0.05,0.53,4,0,3,0.88,6701,10,88,44,38,908,364.0,547,462,60,123.0,136,1,307,197,50,0,0,369,-6458,0,364,-5.59,,,,,,,,,,,,
140223,1564151487645,0,2.34,0.9,0.44,1.34,1.04,0.83,-0.02,0.53,4,1,3,0.83,6749,10,88,44,38,905,364.0,546,462,60,121.0,136,1,307,197,50,0,0,365,-29978,-6405,364,-5.59,,,,,,,,,,,,
140243,1564151487665,1,2.34,0.9,0.43,1.34,1.04,0.95,-0.11,0.56,3,-0,3,0.95,6764,9,88,44,38,902,361.0,543,464,60,122.0,136,1,307,197,50,0,0,364,-29978,-1268,361,-5.59,44.680893,10.024808,36.44,175.0,0,0.0,-1,0.0,0.0,0,0.73,2.3374
140263,1564151487685,1,2.34,0.9,0.44,1.33,1.05,0.91,-0.07,0.53,3,1,3,0.92,6820,9,88,44,38,899,361.0,545,466,60,122.0,138,1,307,197,50,0,0,365,-6640,230,361,-5.59,,,,,,,,,,,,
140283,1564151487697,2,2.35,0.9,0.44,1.34,1.05,0.92,-0.17,0.59,3,1,3,0.93,6850,9,88,44,37,897,359.0,547,463,60,121.0,138,1,304,192,50,0,0,362,4104,-29302,359,-5.59,,,,,,,,,,,,
140303,1564151487717,-1,2.35,0.9,0.44,1.34,1.04,0.86,-0.09,0.56,3,3,3,0.87,6888,9,88,44,37,897,358.0,552,461,60,120.0,138,1,304,192,50,0,0,362,4104,-1268,358,-5.59,,,,,,,,,,,,
140323,1564151487737,4,2.34,0.91,0.44,1.33,1.04,0.88,-0.12,0.59,3,-1,3,0.89,6865,9,88,44,37,896,357.0,548,465,60,121.0,138,1,304,192,50,0,0,363,-6644,-14707,357,-5.59,,,,,,,,,,,,
140343,1564151487757,2,2.35,0.91,0.44,1.34,1.04,0.9,-0.06,0.51,3,1,2,0.91,6845,9,88,44,36,895,356.0,549,463,60,122.0,138,1,301,186,50,0,0,362,28553,-6458,356,-5.59,44.680889,10.024796,36.38,175.0,0,0.0,-1,0.0,0.0,0,0.73,2.3391
140363,1564151487777,-0,2.34,0.9,0.43,1.33,1.05,0.87,-0.08,0.5,3,-1,2,0.88,6845,9,88,44,37,894,356.0,556,469,60,120.0,135,1,304,186,48,0,0,359,3183,4104,354,-5.59,,,,,,,,,,,,
140383,1564151487797,3,2.35,0.9,0.43,1.33,1.05,0.91,-0.12,0.5,3,-1,1,0.92,6818,9,88,44,36,893,355.0,550,463,60,122.0,135,1,301,186,48,0,0,357,2811,3082,355,-5.59,,,,,,,,,,,,
140403,1564151487807,1,2.35,0.91,0.43,1.34,1.05,0.91,-0.12,0.53,3,-1,1,0.92,6768,9,88,44,36,892,353.0,550,465,60,122.0,135,1,301,186,48,0,0,574,2811,-6640,353,-5.59,,,,,,,,,,,,
140423,1564151487827,2,2.34,0.91,0.43,1.33,1.04,0.91,-0.18,0.54,3,-1,2,0.93,6730,9,88,44,36,889,352.0,548,462,60,122.0,135,1,301,186,48,0,0,574,-1246,-14707,352,-5.59,,,,,,,,,,,,
140443,1564151487847,2,2.34,0.91,0.44,1.34,1.05,0.85,-0.11,0.53,3,-0,2,0.85,6730,9,88,44,36,888,352.0,543,466,60,120.0,135,1,301,186,48,0,0,574,8841,-14707,352,-5.59,44.680885,10.024785,35.66,174.9,0,0.0,-1,0.0,0.0,0,0.73,2.3407
140463,1564151487867,2,2.35,0.91,0.43,1.34,1.04,0.94,-0.14,0.48,3,-0,2,0.95,6679,8,88,44,36,886,350.0,544,463,60,122.0,134,1,301,186,47,0,0,574,2811,2060,350,-5.59,,,,,,,,,,,,
140483,1564151487903,3,2.36,0.9,0.44,1.33,1.05,0.85,-0.14,0.51,3,-2,3,0.86,6637,8,88,44,37,884,349.0,538,466,60,120.0,134,1,304,186,47,0,0,574,6870,-29978,349,-5.59,,,,,,,,,,,,
140503,1564151487923,1,2.36,0.9,0.43,1.33,1.04,0.94,-0.08,0.4,3,-1,2,0.94,6592,8,88,44,36,882,349.0,543,462,60,122.0,134,1,301,186,47,0,0,345,-30438,3183,349,-5.59,,,,,,,,,,,,
140523,1564151487943,5,2.36,0.91,0.44,1.33,1.05,0.91,-0.1,0.41,3,-2,3,0.92,6551,8,88,44,37,879,347.0,535,466,60,120.0,134,1,304,186,47,0,0,348,6870,-6644,347,-5.59,,,,,,,,,,,,
140543,1564151487963,2,2.36,0.9,0.44,1.34,1.05,0.87,-0.08,0.42,3,-1,2,0.87,6533,8,88,44,37,878,347.0,534,461,60,122.0,134,1,304,192,47,0,0,349,-14714,2060,347,-5.59,44.680882,10.024773,35.15,174.9,0,0.0,-1,0.0,0.0,0,0.74,2.3424
140563,1564151487983,0,2.36,0.9,0.43,1.33,1.05,0.91,-0.1,0.36,3,-2,2,0.91,6469,8,88,44,36,877,347.0,530,460,60,122.0,135,1,301,192,47,0,0,349,-31206,28553,347,-5.59,,,,,,,,,,,,
140583,1564151488003,3,2.36,0.91,0.43,1.34,1.04,0.85,-0.11,0.41,3,-2,3,0.86,6438,8,88,44,37,874,346.0,525,463,60,121.0,135,1,304,192,47,0,0,347,3327,28553,346,-5.59,,,,,,,,,,,,
140603,1564151488008,4,2.36,0.91,0.43,1.34,1.05,0.85,-0.04,0.47,3,-1,3,0.85,6362,8,88,44,37,872,344.0,519,465,60,120.0,135,1,304,118,47,0,0,347,3327,-30454,344,-5.59,,,,,,,,,,,,
140623,1564151488028,1,2.36,0.91,0.44,1.34,1.04,0.94,-0.05,0.49,3,1,3,0.94,6317,8,88,44,37,871,344.0,518,463,60,122.0,135,1,304,192,47,0,0,348,3327,2811,343,-5.59,,,,,,,,,,,,
140643,1564151488048,1,2.36,0.91,0.44,1.33,1.05,1.01,-0.08,0.47,3,-0,3,1.01,6304,7,88,44,37,871,342.0,514,463,60,121.0,135,1,304,192,47,0,0,342,2560,6870,342,-5.59,44.680878,10.024762,34.98,174.9,0,0.0,-1,0.0,0.0,0,0.74,2.344
140663,1564151488068,4,2.36,0.89,0.43,1.34,1.04,0.9,-0.12,0.53,2,-1,4,0.91,6330,7,88,44,38,870,342.0,512,463,60,122.0,134,1,307,192,46,0,0,342,13,6870,342,-5.59,,,,,,,,,,,,
140683,1564151488104,5,2.36,0.91,0.44,1.34,1.04,0.77,-0.02,0.57,3,0,3,0.77,6340,7,88,44,38,871,339.0,514,464,60,121.0,134,1,307,192,46,0,0,341,3346,3327,338,-5.59,,,,,,,,,,,,
140703,1564151488124,0,2.36,0.91,0.44,1.33,1.05,0.83,-0.0,0.47,4,2,3,0.83,6414,7,88,44,38,873,338.0,516,464,60,120.0,134,1,307,197,46,0,0,339,-6528,6668,338,-5.59,,,,,,,,,,,,
140723,1564151488144,1,2.37,0.9,0.44,1.33,1.05,0.94,-0.04,0.41,4,1,4,0.95,6416,7,88,44,37,874,337.0,517,460,60,122.0,134,1,304,192,46,0,0,338,-12032,-31206,337,-5.59,,,,,,,,,,,,
140743,1564151488164,2,2.37,0.9,0.44,1.33,1.05,0.89,-0.07,0.41,3,-1,5,0.9,6419,7,88,44,37,874,336.0,516,464,60,120.0,134,1,304,192,46,0,0,336,-20736,3327,336,-5.59,44.680874,10.024751,34.44,174.9,0,0.0,-1,0.0,0.0,0,0.74,2.3457
140763,1564151488184,5,2.36,0.91,0.43,1.34,1.04,0.78,-0.02,0.43,3,1,5,0.78,6386,7,88,44,37,876,334.0,517,465,60,120.0,137,1,304,192,46,0,0,335,-22016,6668,334,-5.59,,,,,,,,,,,,
140783,1564151488194,0,2.35,0.91,0.44,1.33,1.05,0.84,-0.0,0.31,4,3,3,0.84,6319,6,88,44,37,878,334.0,524,463,60,122.0,137,1,304,192,46,0,0,333,-22016,13,334,-5.59,,,,,,,,,,,,
140803,1564151488214,1,2.36,0.9,0.44,1.33,1.05,0.94,0.0,0.18,4,3,3,0.94,6291,6,88,44,37,878,331.0,516,462,60,121.0,137,1,304,192,46,0,0,336,170,13,331,-5.59,,,,,,,,,,,,
140823,1564151488234,2,2.35,0.91,0.44,1.34,1.04,0.95,-0.01,0.16,3,1,4,0.95,6241,6,88,44,37,874,330.0,516,462,60,122.0,137,1,304,192,46,0,0,332,-23296,3346,330,-5.59,,,,,,,,,,,,
140843,1564151488254,2,2.35,0.91,0.44,1.34,1.05,0.85,-0.0,0.26,3,1,4,0.85,6202,6,88,44,37,871,329.0,508,465,60,120.0,137,1,304,192,46,0,0,329,160,-6528,329,-5.59,44.68087,10.024739,33.62,174.9,0,0.0,-1,0.0,0.0,0,0.74,2.3474
140863,1564151488274,3,2.36,0.9,0.44,1.34,1.05,0.74,0.03,0.31,3,1,4,0.74,6159,6,88,44,37,869,328.0,508,466,60,120.0,137,1,304,192,45,0,0,333,-24576,-12032,328,-5.59,,,,,,,,,,,,
140883,1564151488294,4,2.35,0.91,0.44,1.34,1.04,0.7,0.04,0.34,4,2,4,0.7,6093,6,88,44,37,865,328.0,505,467,60,119.0,137,1,304,192,45,0,0,330,160,-6528,328,-5.59,,,,,,,,,,,,
140903,1564151488306,4,2.34,0.9,0.43,1.34,1.05,0.76,0.05,0.33,4,3,4,0.76,6089,6,88,44,37,860,327.0,502,462,60,120.0,137,1,304,192,45,0,0,329,155,175,328,-5.59,,,,,,,,,,,,
140923,1564151488326,3,2.35,0.91,0.44,1.33,1.04,0.79,0.05,0.34,4,3,3,0.79,6052,6,88,44,37,856,327.0,496,465,60,119.0,137,1,304,192,45,0,0,325,-27136,-12032,327,-5.59,,,,,,,,,,,,
140943,1564151488346,3,2.35,0.9,0.43,1.34,1.04,0.86,-0.01,0.33,3,4,3,0.86,6077,6,88,44,37,853,325.0,495,464,60,120.0,137,1,304,197,45,0,0,326,-27136,-20736,325,-5.59,44.680866,10.024729,32.95,174.9,0,0.0,-1,0.0,0.0,0,0.74,2.3491
140963,1564151488366,4,2.35,0.9,0.43,1.34,1.04,0.95,-0.08,0.33,3,4,2,0.95,6075,6,88,44,38,852,323.0,495,462,60,120.0,138,1,307,197,45,0,0,325,145,165,323,-5.59,,,,,,,,,,,,
140983,1564151488400,-4,2.34,0.91,0.43,1.34,1.05,1.05,-0.12,0.37,3,4,1,1.06,6083,6,88,44,38,852,323.0,499,463,60,121.0,138,1,307,197,45,0,0,323,-28416,155,320,-5.59,,,,,,,,,,,,
141003,1564151488420,-0,2.34,0.91,0.43,1.34,1.04,1.15,-0.16,0.4,2,3,1,1.16,6093,6,88,44,37,851,319.0,498,461,60,122.0,138,1,304,197,45,0,0,320,140,-23296,319,-5.59,,,,,,,,,,,,
141023,1564151488440,-1,2.34,0.91,0.43,1.33,1.04,1.24,-0.17,0.42,2,2,0,1.25,6062,6,88,44,37,852,320.0,497,463,60,120.0,138,1,304,197,45,0,0,322,-29696,160,319,-5.59,,,,,,,,,,,,
141043,1564151488460,-1,2.34,0.9,0.43,1.33,1.04,1.32,-0.22,0.43,1,-0,-0,1.33,6034,6,88,44,37,853,318.0,496,461,60,121.0,138,1,304,197,45,0,0,322,-29696,-25856,318,-5.59,44.680866,10.024717,32.46,174.9,0,0.0,-1,0.0,0.0,0,0.74,2.3507
141063,1564151488480,-0,2.35,0.9,0.42,1.33,1.05,1.39,-0.23,0.48,1,-2,-1,1.41,6021,6,88,44,37,856,317.0,497,461,60,121.0,141,1,304,197,45,0,0,321,130,-23296,317,-5.59,,,,,,,,,,,,
141083,1564151488494,-0,2.34,0.91,0.44,1.33,1.04,1.45,-0.24,0.51,0,-4,-1,1.47,5948,5,88,44,37,858,316.0,495,460,60,121.0,141,1,300,196,45,0,0,321,130,155,316,-5.59,,,,,,,,,,,,
141103,1564151488514,-1,2.34,0.9,0.43,1.33,1.05,1.51,-0.26,0.55,-0,-6,-2,1.53,5931,5,88,44,38,861,313.0,492,462,60,120.0,141,1,302,196,45,0,0,317,32000,150,313,-5.59,,,,,,,,,,,,
141123,1564151488534,3,2.35,0.91,0.44,1.33,1.04,1.56,-0.27,0.57,-1,-7,-2,1.58,5888,5,88,44,38,862,313.0,489,463,60,122.0,141,1,300,196,45,0,0,314,125,145,313,-5.59,,,,,,,,,,,,
141143,1564151488554,3,2.35,0.91,0.43,1.34,1.04,1.57,-0.29,0.54,-1,-6,-2,1.6,5844,5,88,44,39,863,312.0,484,464,60,120.0,141,1,300,202,45,0,0,314,120,-29696,312,-5.59,44.680866,10.024707,31.98,174.9,0,0.0,-1,0.0,0.0,0,0.74,2.3524
141163,1564151488574,3,2.35,0.91,0.43,1.34,1.05,1.55,-0.23,0.54,-0,-5,-2,1.57,5828,5,88,44,39,863,310.0,483,463,60,121.0,141,1,299,202,44,0,0,312,120,135,310,-5.59,,,,,,,,,,,,
141183,1564151488606,1,2.36,0.91,0.44,1.34,1.04,1.44,-0.15,0.6,-0,-3,-1,1.45,5795,5,88,44,40,863,308.0,480,465,60,121.0,141,1,303,201,44,0,0,311,29440,-30976,308,-5.59,,,,,,,,,,,,
141203,1564151488626,1,2.35,0.91,0.44,1.34,1.05,1.27,-0.14,0.66,0,-2,-0,1.28,5772,5,88,44,40,862,309.0,477,465,60,120.0,141,1,301,202,44,0,0,308,110,32000,309,-5.59,,,,,,,,,,,,
141223,1564151488646,-1,2.36,0.91,0.43,1.34,1.05,1.14,-0.14,0.57,1,-3,-0,1.14,5771,4,88,44,40,860,306.0,472,462,60,120.0,141,1,301,202,44,0,0,307,28160,115,306,181.28,,,,,,,,,,,,
141243,1564151488666,-0,2.36,0.9,0.44,1.33,1.05,1.12,-0.07,0.47,1,-6,-0,1.12,5772,4,88,44,40,859,304.0,476,462,60,122.0,141,1,301,202,44,0,0,306,100,115,304,-5.59,44.680862,10.024697,31.17,174.9,0,0.0,-1,0.0,0.0,0,0.74,2.354
141263,1564151488686,1,2.35,0.91,0.44,1.33,1.05,1.21,-0.06,0.46,0,-8,-0,1.21,5735,4,88,44,40,858,302.0,477,462,60,120.0,144,1,299,129,44,0,0,307,26880,29440,302,-5.59,,,,,,,,,,,,
141283,1564151488700,2,2.36,0.91,0.43,1.33,1.05,1.29,-0.11,0.43,0,-7,-1,1.3,5706,0,88,44,41,860,303.0,471,465,60,120.0,144,1,302,204,44,0,0,305,95,105,303,-5.59,,,,,,,,,,,,
141303,1564151488720,-0,2.35,0.91,0.44,1.33,1.05,1.2,-0.11,0.43,0,-5,-1,1.21,5693,0,88,44,41,861,301.0,465,461,60,120.0,144,1,301,204,44,0,0,302,90,105,301,-5.59,,,,,,,,,,,,
141323,1564151488740,-1,2.36,0.91,0.44,1.34,1.05,1.04,-0.13,0.41,0,-4,-1,1.05,5618,0,88,44,42,862,298.0,463,465,60,121.0,144,1,301,205,44,0,0,301,85,105,298,-5.59,,,,,,,,,,,,
141343,1564151488760,-1,2.36,0.91,0.44,1.34,1.05,1.13,-0.1,0.4,1,-6,-1,1.13,5552,0,88,44,42,864,299.0,462,464,60,121.0,144,1,296,204,44,0,0,299,85,26880,297,-5.59,44.680859,10.024687,30.63,174.9,0,0.0,-1,0.0,0.0,0,0.74,2.3557
141363,1564151488780,1,2.36,0.91,0.44,1.34,1.05,1.22,-0.08,0.35,1,-4,-1,1.22,5558,0,88,44,43,865,298.0,458,465,60,121.0,144,1,301,206,43,0,0,297,21760,24320,298,-5.59,,,,,,,,,,,,
141383,1564151488800,-0,2.35,0.91,0.44,1.34,1.05,1.06,-0.11,0.39,1,-1,-0,1.07,5535,0,88,44,43,867,295.0,453,462,60,122.0,144,1,300,206,43,0,0,299,21760,25600,295,-5.59,,,,,,,,,,,,
141403,1564151488810,-1,2.36,0.91,0.44,1.34,1.05,0.96,-0.05,0.29,2,-2,1,0.96,5588,0,88,44,44,870,294.0,457,463,60,121.0,144,1,308,208,43,0,0,297,0,26880,294,-5.59,,,,,,,,,,,,
141423,1564151488830,3,2.36,0.91,0.44,1.34,1.05,1.07,-0.1,0.39,1,-4,1,1.07,5565,0,88,44,44,874,291.0,461,465,60,119.0,144,1,306,208,43,0,0,293,0,90,291,-5.59,,,,,,,,,,,,
141443,1564151488850,2,2.35,0.9,0.44,1.34,1.05,1.08,-0.04,0.44,1,-2,2,1.08,5565,0,88,44,44,879,290.0,456,465,60,121.0,144,1,306,208,43,0,0,294,0,90,290,-5.59,44.680855,10.024677,29.99,174.9,0,0.0,-1,0.0,0.0,0,0.74,2.3574
141463,1564151488870,0,2.35,0.91,0.44,1.34,1.05,0.9,-0.09,0.46,1,-1,2,0.9,5522,0,88,44,45,884,289.0,453,464,60,122.0,148,1,307,208,43,0,0,293,10686,80,289,181.28,,,,,,,,,,,,
141483,1564151488890,3,2.35,0.91,0.44,1.34,1.05,0.96,-0.09,0.51,1,-3,1,0.97,5490,0,88,44,45,885,288.0,458,461,60,122.0,148,1,305,136,43,0,0,291,41,85,288,-5.59,,,,,,,,,,,,
141503,1564151488901,0,2.35,0.91,0.44,1.34,1.05,0.98,-0.07,0.52,1,-0,1,0.98,5423,0,88,44,45,886,289.0,452,465,60,121.0,148,1,299,209,43,0,0,290,10686,21760,289,-5.59,,,,,,,,,,,,
141523,1564151488921,0,2.35,0.91,0.44,1.33,1.05,0.89,-0.02,0.45,1,0,1,0.89,5384,0,88,44,46,883,288.0,447,463,60,120.0,148,1,300,211,43,0,0,291,10686,20480,288,-5.59,,,,,,,,,,,,
141543,1564151488941,1,2.36,0.91,0.44,1.34,1.05,0.99,-0.04,0.44,1,-1,1,0.99,5367,0,88,44,47,881,288.0,443,465,60,121.0,148,1,303,213,43,0,0,290,250,0,288,-5.59,44.680851,10.024668,29.27,174.9,0,0.0,-1,0.0,0.0,0,0.74,2.3591
141563,1564151488961,0,2.35,0.91,0.44,1.34,1.04,0.86,-0.04,0.41,1,0,1,0.86,5361,0,88,44,47,883,287.0,441,460,60,122.0,149,1,302,211,43,0,0,288,-1529,0,287,181.28,,,,,,,,,,,,
141583,1564151488993,2,2.36,0.91,0.44,1.34,1.05,0.97,-0.06,0.42,2,0,1,0.97,5363,0,88,44,47,884,285.0,438,466,60,120.0,149,1,302,213,43,0,0,286,24064,10686,283,-5.59,,,,,,,,,,,,
141603,1564151489013,-1,2.36,0.91,0.44,1.35,1.05,0.95,-0.07,0.46,2,3,1,0.95,5361,0,88,44,48,889,283.0,438,461,60,122.0,149,1,306,213,43,0,0,283,-1534,-16896,283,-5.59,,,,,,,,,,,,
141623,1564151489033,1,2.35,0.9,0.44,1.35,1.05,0.93,-0.05,0.4,2,2,1,0.93,5340,0,88,44,47,892,281.0,437,462,60,121.0,149,1,300,213,43,0,0,282,630,250,281,-5.59,,,,,,,,,,,,
141643,1564151489053,-0,2.34,0.91,0.44,1.33,1.05,0.98,-0.04,0.38,2,1,2,0.99,5357,0,88,44,48,893,279.0,433,462,60,122.0,149,1,306,215,43,0,0,283,250,-16896,279,-5.59,44.680851,10.024657,28.75,174.8,0,0.0,-1,0.0,0.0,0,0.75,2.3607
141663,1564151489073,-0,2.35,0.91,0.44,1.34,1.05,0.84,-0.05,0.38,2,0,2,0.84,5343,0,88,44,48,892,279.0,433,462,60,122.0,153,1,304,215,43,0,0,283,250,250,279,-5.59,,,,,,,,,,,,
141683,1564151489093,2,2.35,0.91,0.44,1.35,1.05,0.92,-0.05,0.44,2,1,2,0.92,5286,0,88,44,48,889,278.0,436,465,60,121.0,153,1,299,215,43,0,0,279,250,250,278,-5.59,,,,,,,,,,,,
141703,1564151489101,0,2.35,0.91,0.44,1.34,1.05,0.87,-0.07,0.4,2,2,2,0.88,5238,0,88,44,48,885,279.0,433,462,60,122.0,153,1,295,215,43,0,0,279,28160,250,277,-5.59,,,,,,,,,,,,
141723,1564151489121,-1,2.35,0.91,0.44,1.34,1.04,0.93,-0.03,0.45,2,1,2,0.93,5195,0,88,44,49,882,278.0,428,466,60,120.0,153,1,293,218,43,0,0,278,28160,-1529,277,-5.59,,,,,,,,,,,,
141743,1564151489141,-1,2.36,0.91,0.44,1.34,1.05,0.9,-0.01,0.36,2,-1,2,0.9,5159,0,89,44,49,880,275.0,426,463,60,121.0,153,1,292,218,43,0,0,276,250,250,275,-5.59,44.680847,10.024648,28.21,174.8,0,0.0,-1,0.0,0.0,0,0.75,2.3624
141763,1564151489161,0,2.36,0.91,0.44,1.34,1.05,0.9,-0.01,0.4,2,-0,2,0.9,5149,0,89,44,49,881,274.0,421,464,60,122.0,152,1,291,218,42,0,0,277,-1281,-1534,274,-5.59,,,,,,,,,,,,
141783,1564151489199,3,2.36,0.91,0.44,1.34,1.05,0.93,-0.03,0.33,2,-1,2,0.93,5124,0,88,44,50,883,273.0,420,465,60,120.0,152,1,293,221,42,0,0,275,-1,2414,273,-5.59,,,,,,,,,,,,
141803,1564151489219,0,2.35,0.91,0.44,1.34,1.05,0.88,-0.02,0.33,2,0,2,0.88,5142,0,89,44,50,886,271.0,421,462,60,121.0,152,1,294,221,42,0,0,273,-1,250,271,181.28,,,,,,,,,,,,
141823,1564151489239,1,2.35,0.91,0.44,1.34,1.05,0.97,-0.03,0.39,2,-1,2,0.97,5135,0,89,44,50,889,269.0,424,467,60,120.0,152,1,294,221,42,0,0,274,-1,28160,269,-5.59,,,,,,,,,,,,
141843,1564151489259,-1,2.35,0.91,0.44,1.34,1.05,0.89,-0.03,0.36,2,0,3,0.89,5100,0,89,44,50,891,269.0,422,461,60,120.0,152,1,291,221,42,0,0,271,-1,250,269,-5.59,44.680847,10.024638,27.65,174.8,0,0.0,-1,0.0,0.0,0,0.75,2.364
141863,1564151489279,-1,2.35,0.91,0.44,1.34,1.05,0.95,0.03,0.4,2,0,1,0.95,5096,0,89,44,51,893,268.0,417,467,60,121.0,160,1,295,224,43,0,0,271,-1,-1281,268,-5.59,,,,,,,,,,,,
141883,1564151489299,3,2.35,0.91,0.44,1.34,1.05,0.97,-0.01,0.34,2,-1,1,0.97,5049,0,89,45,51,893,267.0,418,465,60,119.0,160,1,291,223,43,0,0,271,-1,-1,267,-5.59,,,,,,,,,,,,
141903,1564151489309,-1,2.35,0.91,0.44,1.34,1.06,0.89,-0.04,0.37,2,1,1,0.89,5014,0,89,45,51,893,266.0,410,463,60,121.0,160,1,288,223,43,0,0,268,-1,-1,266,181.28,,,,,,,,,,,,
141923,1564151489329,1,2.34,0.9,0.44,1.34,1.05,0.97,0.01,0.41,2,0,1,0.97,5010,0,89,45,52,892,267.0,413,463,60,122.0,160,1,290,226,43,0,0,267,-1,-1,267,-5.59,,,,,,,,,,,,
141943,1564151489349,2,2.34,0.91,0.44,1.35,1.05,0.93,0.01,0.36,2,-1,1,0.93,4988,0,89,45,51,890,264.0,410,467,60,122.0,160,1,285,225,43,0,0,267,-1,-1,262,-5.59,44.680847,10.024629,27.16,174.8,0,0.0,-1,0.0,0.0,0,0.75,2.3657
141963,1564151489369,-1,2.34,0.91,0.44,1.34,1.05,0.85,-0.02,0.4,2,1,1,0.85,4965,0,89,45,52,888,262.0,405,458,60,121.0,160,1,287,225,42,0,0,264,-1,-1,262,181.28,,,,,,,,,,,,
141983,1564151489389,-0,2.34,0.91,0.44,1.34,1.05,0.93,0.01,0.47,1,-0,1,0.94,4945,0,89,45,52,887,261.0,403,463,60,122.0,160,1,284,153,42,0,0,265,-10440,-1,260,-5.59,,,,,,,,,,,,
142003,1564151489405,2,2.33,0.91,0.44,1.35,1.05,0.96,-0.02,0.38,1,-2,0,0.96,4942,0,89,45,52,886,260.0,404,465,60,122.0,160,1,284,225,42,0,0,263,-10440,-1,260,-5.59,,,,,,,,,,,,
142023,1564151489425,-0,2.33,0.91,0.44,1.34,1.05,0.83,-0.02,0.37,2,-0,1,0.83,4900,0,89,45,52,886,258.0,398,463,60,120.0,160,1,279,225,42,0,0,263,14337,-1,258,-5.59,,,,,,,,,,,,
142043,1564151489445,0,2.33,0.91,0.44,1.34,1.05,0.91,-0.01,0.46,2,1,-0,0.91,4894,0,89,45,52,887,257.0,397,457,60,122.0,160,1,278,224,42,0,0,260,506,-1,258,-5.59,44.680843,10.02462,26.51,174.8,0,0.0,-1,0.0,0.0,0,0.75,2.3674
142063,1564151489465,-0,2.33,0.91,0.44,1.34,1.05,0.98,-0.0,0.49,1,-2,0,0.98,4862,0,89,45,53,887,257.0,397,471,60,121.0,158,1,278,227,41,0,0,260,-1281,-1,257,-5.59,,,,,,,,,,,,
142083,1564151489500,2,2.32,0.9,0.44,1.34,1.05,0.97,0.01,0.41,1,-2,1,0.97,4817,0,89,45,52,886,255.0,395,464,60,121.0,158,1,269,226,41,0,0,259,-1,-41,255,-5.59,,,,,,,,,,,,
142103,1564151489520,4,2.32,0.91,0.44,1.34,1.05,0.88,0.09,0.33,2,-0,1,0.88,4803,0,89,45,52,886,255.0,393,464,60,120.0,158,1,267,223,41,0,0,259,-1,14337,255,-5.59,,,,,,,,,,,,
142123,1564151489540,0,2.31,0.9,0.43,1.34,1.05,0.88,0.09,0.35,2,1,0,0.88,4758,0,89,45,52,885,253.0,387,461,60,123.0,158,1,261,222,41,0,0,256,-214,-10440,253,181.28,,,,,,,,,,,,
142143,1564151489560,-1,2.32,0.91,0.43,1.34,1.05,0.91,0.11,0.42,2,0,0,0.91,4797,0,89,45,53,881,252.0,384,460,60,122.0,158,1,270,225,41,0,0,254,-214,-1281,252,-5.59,44.680843,10.024611,25.84,174.8,0,0.0,-1,0.0,0.0,0,0.75,2.3691
142163,1564151489580,0,2.3,0.91,0.44,1.35,1.05,0.94,0.09,0.49,1,-1,-0,0.95,4774,0,89,45,53,877,250.0,387,466,60,122.0,158,1,267,225,40,0,0,254,10818,-1281,249,-5.59,,,,,,,,,,,,
142183,1564151489593,0,2.31,0.9,0.44,1.34,1.05,0.95,0.05,0.43,1,-1,-0,0.95,4756,0,89,45,53,874,249.0,387,465,60,120.0,158,1,265,225,40,0,0,253,250,-1,249,-5.59,,,,,,,,,,,,
142203,1564151489613,3,2.3,0.91,0.44,1.34,1.05,0.89,0.08,0.35,0,-1,-0,0.9,4740,0,89,45,53,871,249.0,389,463,60,120.0,158,1,262,225,40,0,0,256,-1494,-1,247,-5.59,,,,,,,,,,,,
142223,1564151489633,3,2.3,0.91,0.44,1.34,1.05,0.82,0.07,0.34,0,1,-0,0.82,4667,0,89,45,52,870,248.0,387,462,60,121.0,158,1,250,221,40,0,0,252,250,10818,247,-5.59,,,,,,,,,,,,
142243,1564151489653,-1,2.3,0.91,0.44,1.33,1.05,0.8,0.07,0.37,0,2,-1,0.8,4666,0,89,45,53,869,247.0,381,456,60,121.0,158,1,253,221,40,0,0,252,-1494,10818,245,181.28,44.68084,10.024603,25.47,174.8,0,0.0,-1,0.0,0.0,0,0.75,2.3707
142263,1564151489673,-1,2.3,0.91,0.44,1.35,1.05,0.82,0.11,0.46,0,2,-1,0.82,4626,0,89,45,53,871,247.0,379,462,60,123.0,159,1,248,221,39,0,0,250,-1494,10818,244,181.28,,,,,,,,,,,,
142283,1564151489693,0,2.3,0.9,0.44,1.34,1.05,0.87,0.14,0.59,-0,1,-2,0.88,4646,0,89,45,52,874,245.0,375,463,60,122.0,159,1,247,221,39,0,0,249,15360,10812,243,181.28,,,,,,,,,,,,
142303,1564151489703,-0,2.29,0.9,0.43,1.34,1.05,0.94,0.15,0.65,-0,-0,-2,0.95,4595,0,89,45,53,879,244.0,376,460,60,122.0,159,1,244,223,39,0,0,248,250,250,242,181.28,,,,,,,,,,,,
142323,1564151489723,-0,2.3,0.91,0.44,1.34,1.04,0.96,0.16,0.65,-1,-2,-3,0.98,4593,0,89,45,52,884,242.0,375,463,60,122.0,159,1,241,220,39,0,0,246,23482,10812,241,-5.59,,,,,,,,,,,,
142343,1564151489743,0,2.3,0.9,0.43,1.34,1.05,0.96,0.14,0.63,-1,-3,-3,0.97,4580,0,89,45,53,887,242.0,371,467,60,123.0,159,1,242,223,39,0,0,246,23482,15360,240,-5.59,44.680836,10.024594,24.74,174.8,0,0.0,-1,0.0,0.0,0,0.75,2.3724
142363,1564151489763,-0,2.3,0.91,0.44,1.34,1.05,0.97,0.12,0.63,-1,-4,-3,0.97,4553,0,89,45,52,890,240.0,370,463,60,122.0,158,1,236,220,38,0,0,243,-1484,250,239,-5.59,,,,,,,,,,,,
142383,1564151489801,0,2.31,0.9,0.44,1.34,1.05,0.97,0.13,0.59,-1,-4,-2,0.98,4566,0,89,45,52,895,239.0,367,461,60,123.0,158,1,239,220,38,0,0,242,-1484,23482,237,-5.59,,,,,,,,,,,,
142403,1564151489821,-1,2.32,0.91,0.44,1.34,1.05,0.98,0.09,0.57,-1,-4,-2,0.98,4513,0,89,45,53,899,237.0,369,468,60,122.0,158,1,234,219,38,0,0,241,-25600,250,236,-5.59,,,,,,,,,,,,
142423,1564151489841,-0,2.32,0.91,0.44,1.34,1.05,0.99,0.05,0.54,-1,-5,-1,0.99,4523,0,89,45,53,901,236.0,366,467,60,122.0,158,1,235,219,38,0,0,240,250,250,235,-5.59,,,,,,,,,,,,
142443,1564151489861,0,2.32,0.91,0.44,1.34,1.05,1.01,0.03,0.52,-1,-4,-2,1.02,4474,0,89,45,52,902,236.0,366,463,60,122.0,158,1,226,219,38,0,0,241,250,-1484,235,-5.59,44.680836,10.024586,24.48,174.7,0,0.0,-1,0.0,0.0,0,0.75,2.374
142463,1564151489881,-1,2.33,0.91,0.44,1.34,1.05,1.01,0.03,0.47,-1,-4,-1,1.01,4461,0,89,45,53,898,235.0,365,461,60,122.0,152,1,227,222,36,0,0,240,13602,250,235,-5.59,,,,,,,,,,,,
142483,1564151489901,-1,2.34,0.91,0.44,1.34,1.05,1.02,0.01,0.45,-1,-4,-1,1.02,4438,0,89,45,53,894,234.0,360,468,60,122.0,152,1,222,222,36,0,0,239,8704,250,234,-5.59,,,,,,,,,,,,
142503,1564151489910,-0,2.34,0.91,0.44,1.34,1.06,1.01,-0.01,0.47,-1,-6,-0,1.01,4402,0,89,45,52,890,233.0,357,466,60,123.0,152,1,217,218,36,0,0,237,8704,-25600,233,-5.59,,,,,,,,,,,,
142523,1564151489930,0,2.34,0.91,0.45,1.34,1.05,1.03,-0.01,0.5,-0,-7,-0,1.03,4398,0,89,45,52,885,232.0,356,462,60,122.0,152,1,217,217,36,0,0,234,-1494,-1484,232,181.28,,,,,,,,,,,,
142543,1564151489950,-1,2.36,0.92,0.44,1.34,1.05,1.05,-0.02,0.57,-0,-8,-1,1.05,4400,0,89,45,52,879,232.0,355,462,60,122.0,152,1,217,218,36,0,0,234,10824,-1483,232,181.28,44.680832,10.024578,23.77,174.7,0,0.0,-1,0.0,0.0,0,0.75,2.3757
142563,1564151489970,0,2.36,0.91,0.42,1.34,1.05,1.06,0.0,0.61,-0,-8,-1,1.06,4372,0,89,45,52,873,230.0,354,460,60,123.0,152,1,214,217,35,0,0,235,250,250,230,181.28,,,,,,,,,,,,
142583,1564151489990,0,2.36,0.91,0.42,1.34,1.05,1.05,0.02,0.65,0,-6,-1,1.05,4372,0,89,45,52,871,230.0,349,463,60,123.0,152,1,214,217,35,0,0,232,-1496,250,230,181.28,,,,,,,,,,,,
142603,1564151490000,4,2.37,0.91,0.43,1.34,1.05,1.0,-0.01,0.69,0,-5,-1,1.0,4357,0,89,45,52,870,229.0,356,461,60,122.0,152,1,212,145,35,0,0,231,-1496,18432,229,-5.59,,,,,,,,,,,,
142623,1564151490020,3,2.39,0.91,0.43,1.34,1.05,0.94,0.0,0.64,1,-4,-1,0.94,4316,0,89,45,52,871,229.0,352,466,60,122.0,152,1,207,217,35,0,0,229,250,8704,229,-5.59,,,,,,,,,,,,
142643,1564151490040,1,2.4,0.91,0.42,1.34,1.05,0.89,0.02,0.56,1,-4,-0,0.89,4333,0,89,45,52,874,229.0,351,467,60,120.0,152,1,209,217,35,0,0,229,-1530,13602,229,-5.59,44.680832,10.02457,23.29,174.7,0,0.0,-1,0.0,0.0,0,0.75,2.3774
142663,1564151490060,-0,2.4,0.92,0.42,1.34,1.05,0.88,0.02,0.5,1,-3,1,0.88,4268,0,89,45,52,877,228.0,352,465,60,120.0,152,1,201,216,35,0,0,228,-1530,250,228,-5.59,,,,,,,,,,,,
142683,1564151490094,-0,2.42,0.91,0.42,1.34,1.04,0.89,0.03,0.44,2,-4,2,0.89,4263,0,89,45,53,881,228.0,347,468,60,122.0,152,1,202,216,35,0,0,226,15360,250,228,-5.59,,,,,,,,,,,,
142703,1564151490114,-0,2.43,0.92,0.42,1.34,1.04,0.9,-0.01,0.45,2,-4,2,0.9,4308,0,89,45,53,887,227.0,345,461,60,123.0,152,1,208,221,35,0,0,226,-1532,10824,227,181.28,,,,,,,,,,,,
142723,1564151490134,-1,2.44,0.91,0.42,1.33,1.04,0.91,-0.03,0.51,3,-3,2,0.91,4262,0,89,45,52,892,228.0,345,463,60,123.0,152,1,200,216,35,0,0,225,-1532,10824,228,181.28,,,,,,,,,,,,
142743,1564151490154,3,2.45,0.91,0.42,1.34,1.05,0.93,-0.05,0.6,3,-4,2,0.93,4250,0,89,45,52,897,227.0,348,461,60,122.0,152,1,198,216,35,0,0,222,-17920,250,227,-5.59,44.680828,10.024562,23.0,174.7,0,0.0,-1,0.0,0.0,0,0.75,2.3791
142763,1564151490174,2,2.45,0.91,0.42,1.35,1.04,0.85,-0.08,0.64,3,-2,3,0.86,4244,0,89,45,52,899,227.0,345,464,60,120.0,149,1,197,216,34,0,0,222,250,8704,227,-5.59,,,,,,,,,,,,
142783,1564151490194,0,2.46,0.91,0.42,1.34,1.04,0.85,-0.07,0.57,4,-1,4,0.85,4203,0,89,45,52,901,227.0,343,468,60,120.0,149,1,193,216,34,0,0,220,-1532,10824,227,-5.59,,,,,,,,,,,,
142803,1564151490208,-2,2.46,0.91,0.42,1.34,1.04,0.88,-0.09,0.54,5,-2,5,0.88,4218,0,89,45,53,903,227.0,342,469,60,121.0,149,1,196,220,34,0,0,219,-1532,-1494,227,-5.59,,,,,,,,,,,,
142823,1564151490228,-1,2.45,0.92,0.42,1.34,1.04,0.91,-0.12,0.55,5,-3,6,0.91,4203,0,89,45,53,904,225.0,340,462,60,123.0,149,1,194,220,34,0,0,219,-1532,250,225,414.87,,,,,,,,,,,,
142843,1564151490248,-1,2.45,0.92,0.42,1.34,1.04,0.91,-0.12,0.61,5,-2,5,0.92,4172,0,89,45,52,904,226.0,337,458,60,123.0,149,1,189,215,34,0,0,218,1088,250,226,181.28,44.680828,10.024554,22.49,174.7,0,0.0,-1,0.0,0.0,0,0.75,2.3807
142863,1564151490268,1,2.45,0.91,0.42,1.34,1.05,0.87,-0.11,0.65,6,-0,5,0.88,4150,0,89,45,52,906,224.0,337,461,60,121.0,150,1,186,215,34,0,0,217,16384,250,224,-5.59,,,,,,,,,,,,
142883,1564151490301,-2,2.47,0.91,0.42,1.34,1.05,0.88,-0.12,0.59,6,0,6,0.88,4148,0,89,45,53,911,225.0,335,472,60,120.0,150,1,187,218,34,0,0,217,250,18432,225,-5.59,,,,,,,,,,,,
142903,1564151490321,-2,2.46,0.91,0.42,1.34,1.05,0.89,-0.15,0.55,6,-2,8,0.9,4105,0,89,45,53,916,225.0,329,467,60,122.0,150,1,182,218,34,0,0,216,-1533,18432,225,414.87,,,,,,,,,,,,
142923,1564151490341,3,2.46,0.9,0.42,1.35,1.04,0.92,-0.14,0.59,6,-2,8,0.93,4101,0,89,45,53,920,223.0,329,455,60,123.0,150,1,181,218,34,0,0,215,250,-1496,223,181.28,,,,,,,,,,,,
142943,1564151490361,0,2.46,0.91,0.42,1.34,1.04,0.89,-0.12,0.59,6,1,7,0.89,4114,0,89,45,53,927,223.0,330,459,60,121.0,150,1,182,218,34,0,0,216,-1533,-1496,223,-5.59,44.680824,10.024547,21.8,174.7,0,0.0,-1,0.0,0.0,0,0.75,2.3824
142963,1564151490381,-1,2.46,0.91,0.42,1.34,1.04,0.9,-0.12,0.54,7,0,8,0.9,4094,0,89,45,53,937,222.0,328,471,60,121.0,147,1,181,217,33,0,0,214,966,19968,222,-5.59,,,,,,,,,,,,
142983,1564151490394,-0,2.46,0.9,0.42,1.34,1.04,0.92,-0.14,0.52,7,-2,10,0.93,4097,0,90,45,53,947,221.0,326,461,60,123.0,147,1,181,217,33,0,0,214,-14848,-1530,221,181.28,,,,,,,,,,,,
143003,1564151490414,1,2.46,0.91,0.42,1.35,1.04,0.94,-0.11,0.55,7,-2,9,0.95,4120,0,90,45,53,953,221.0,331,457,60,122.0,147,1,183,218,33,0,0,213,250,250,221,181.28,,,,,,,,,,,,
143023,1564151490434,1,2.46,0.91,0.41,1.34,1.04,0.9,-0.11,0.54,7,-0,9,0.9,4077,0,89,45,53,959,220.0,330,462,60,120.0,147,1,179,217,33,0,0,213,250,250,220,-5.59,,,,,,,,,,,,
143043,1564151490454,-1,2.46,0.91,0.43,1.34,1.04,0.9,-0.11,0.52,7,-1,10,0.91,4098,0,89,45,53,966,219.0,328,470,60,121.0,147,1,181,217,33,0,0,212,250,15360,219,-5.59,44.680824,10.024539,22.1,174.6,0,0.0,-1,0.0,0.0,0,0.75,2.384
143063,1564151490474,-2,2.47,0.91,0.42,1.34,1.04,0.93,-0.12,0.52,7,-2,10,0.93,4090,0,90,45,53,972,218.0,327,458,60,123.0,151,1,180,217,33,0,0,210,-1482,250,218,181.28,,,,,,,,,,,,
143083,1564151490494,1,2.48,0.91,0.42,1.34,1.04,0.89,-0.12,0.52,7,-1,9,0.9,4027,0,90,45,53,973,218.0,327,461,60,120.0,151,1,172,217,33,0,0,211,-1482,15360,218,-5.59,,,,,,,,,,,,
143103,1564151490504,-2,2.49,0.91,0.42,1.34,1.05,0.88,-0.11,0.48,7,-1,10,0.88,4066,0,89,45,53,974,218.0,327,467,60,119.0,151,1,177,217,33,0,0,209,13964,-1532,218,-5.59,,,,,,,,,,,,
143123,1564151490524,-0,2.49,0.91,0.42,1.34,1.05,0.89,-0.13,0.48,8,-2,11,0.9,4068,0,90,45,53,973,218.0,326,465,60,122.0,151,1,177,217,33,0,0,210,13964,1210,217,181.28,,,,,,,,,,,,
143143,1564151490544,3,2.52,0.91,0.42,1.34,1.05,0.89,-0.12,0.48,8,-1,10,0.89,3969,0,90,45,53,972,218.0,325,457,60,123.0,151,1,167,216,33,0,0,208,250,-1530,218,-5.59,44.680824,10.024531,21.47,174.6,0,0.0,-1,0.0,0.0,0,0.76,2.3857
143163,1564151490564,-1,2.53,0.91,0.42,1.34,1.05,0.85,-0.11,0.46,9,-0,10,0.86,4014,0,90,45,53,970,218.0,322,470,60,120.0,146,1,170,216,32,0,0,208,-1482,1596,218,-5.59,,,,,,,,,,,,
143183,1564151490600,-2,2.54,0.92,0.42,1.33,1.05,0.87,-0.15,0.45,9,-1,12,0.88,4033,0,90,45,53,968,217.0,325,465,60,122.0,146,1,173,217,32,0,0,205,12800,250,218,414.87,,,,,,,,,,,,
143203,1564151490620,2,2.58,0.91,0.42,1.34,1.05,0.88,-0.19,0.46,10,-1,11,0.9,3954,0,90,45,53,961,217.0,321,455,60,122.0,146,1,167,216,32,0,0,205,12800,1596,217,-5.59,,,,,,,,,,,,
143223,1564151490640,-2,2.59,0.91,0.42,1.34,1.05,0.86,-0.17,0.45,11,0,12,0.87,4012,0,90,45,53,955,219.0,323,471,60,121.0,146,1,170,145,32,0,0,203,-1480,1596,219,-5.59,,,,,,,,,,,,
143243,1564151490660,-1,2.62,0.91,0.42,1.34,1.05,0.88,-0.22,0.48,11,-1,14,0.91,4014,0,90,45,53,951,219.0,321,467,60,122.0,146,1,170,217,32,0,0,202,19456,-1530,219,181.28,44.680824,10.024524,21.37,174.6,0,0.0,-1,0.0,0.0,0,0.76,2.3874
143263,1564151490680,2,2.64,0.92,0.42,1.34,1.05,0.88,-0.24,0.47,12,-1,14,0.91,3943,0,90,45,53,946,219.0,321,461,60,122.0,146,1,166,215,32,0,0,199,-1481,-1532,219,-5.59,,,,,,,,,,,,
143283,1564151490692,-0,2.67,0.91,0.42,1.34,1.05,0.87,-0.25,0.5,13,-1,15,0.91,3987,0,90,45,53,942,220.0,320,467,60,120.0,146,1,168,216,32,0,0,197,14326,15360,220,-5.59,,,,,,,,,,,,
143303,1564151490712,-1,2.68,0.91,0.42,1.34,1.04,0.9,-0.3,0.51,14,-2,17,0.95,4005,0,90,45,53,937,220.0,322,466,60,121.0,146,1,169,217,32,0,0,196,250,1596,220,414.87,,,,,,,,,,,,
143323,1564151490732,2,2.71,0.91,0.42,1.34,1.05,0.88,-0.32,0.5,15,-1,17,0.94,3924,0,90,45,53,936,219.0,318,456,60,120.0,146,1,165,215,32,0,0,192,250,250,219,-5.59,,,,,,,,,,,,
143343,1564151490752,-0,2.74,0.91,0.42,1.34,1.05,0.88,-0.32,0.5,16,-1,18,0.94,3924,0,90,45,53,936,220.0,318,470,60,122.0,146,1,165,215,32,0,0,190,-1,-1532,220,-5.59,44.680824,10.024517,20.81,174.6,0,0.0,-1,0.0,0.0,0,0.76,2.389
143363,1564151490772,-2,2.75,0.92,0.42,1.33,1.05,0.91,-0.36,0.48,18,-2,21,0.98,3973,0,90,45,53,939,221.0,316,461,60,122.0,144,1,167,216,32,0,0,189,-1,250,221,181.28,,,,,,,,,,,,
143383,1564151490792,0,2.76,0.92,0.42,1.35,1.04,0.86,-0.38,0.5,18,-0,21,0.94,3902,0,90,45,53,943,220.0,318,460,60,121.0,144,1,165,215,32,0,0,188,-1,1210,222,-5.59,,,,,,,,,,,,
143403,1564151490806,-1,2.78,0.91,0.42,1.35,1.04,0.89,-0.41,0.48,19,-1,23,0.97,3890,0,90,45,53,947,220.0,313,470,60,122.0,144,1,164,214,32,0,0,187,-1,-1530,220,181.28,,,,,,,,,,,,
143423,1564151490826,2,2.79,0.92,0.42,1.35,1.04,0.88,-0.44,0.46,20,-2,25,0.98,3890,0,90,45,53,950,222.0,314,456,60,122.0,144,1,164,214,32,0,0,186,-1,15360,222,-5.59,,,,,,,,,,,,
143443,1564151490846,-1,2.82,0.91,0.42,1.34,1.05,0.87,-0.43,0.48,21,0,25,0.97,3852,0,90,45,54,954,222.0,309,474,60,122.0,144,1,164,219,32,0,0,186,-1,250,222,181.28,44.680824,10.024509,20.89,174.6,0,0.0,-1,0.0,0.0,0,0.76,2.3907
143463,1564151490866,2,2.83,0.92,0.42,1.34,1.04,0.89,-0.45,0.5,23,-2,28,1.0,3858,0,90,45,54,958,223.0,311,462,60,122.0,144,1,164,219,32,0,0,182,-1,1596,223,181.28,,,,,,,,,,,,
143483,1564151490901,-1,2.84,0.91,0.42,1.34,1.05,0.85,-0.46,0.5,23,0,28,0.97,3826,0,90,45,54,960,223.0,310,469,60,120.0,144,1,163,146,32,0,0,182,-1,15360,223,-5.59,,,,,,,,,,,,
143503,1564151490921,-1,2.85,0.92,0.41,1.34,1.04,0.91,-0.49,0.47,25,-1,31,1.03,3771,0,90,45,54,960,222.0,307,458,60,122.0,144,1,160,217,32,0,0,181,-1,15360,222,181.28,,,,,,,,,,,,
143523,1564151490941,-2,2.88,0.92,0.42,1.34,1.04,0.86,-0.51,0.45,25,1,31,1.0,3787,0,90,45,54,960,223.0,306,463,60,120.0,144,1,161,217,32,0,0,179,-1,-1532,222,-5.59,,,,,,,,,,,,
143543,1564151490961,-1,2.89,0.91,0.42,1.35,1.04,0.9,-0.54,0.46,27,-1,34,1.05,3792,0,90,45,55,960,223.0,303,468,60,121.0,144,1,161,221,32,0,0,178,-1,-1532,223,414.87,44.680824,10.024503,20.21,174.5,0,0.0,-1,0.0,0.0,0,0.76,2.3924
143563,1564151490981,-0,2.91,0.92,0.42,1.35,1.04,0.86,-0.56,0.46,27,1,34,1.02,3722,0,90,45,55,960,223.0,305,455,60,120.0,139,1,158,220,31,0,0,175,-1,250,223,-5.59,,,,,,,,,,,,
143583,1564151490991,-0,2.93,0.92,0.42,1.34,1.04,0.93,-0.57,0.45,29,-1,37,1.09,3702,0,90,45,55,959,223.0,301,462,60,121.0,139,1,158,220,31,0,0,175,3584,1210,223,181.28,,,,,,,,,,,,
143603,1564151491011,-0,2.95,0.91,0.42,1.34,1.05,0.85,-0.59,0.45,29,1,37,1.04,3696,0,90,45,56,958,223.0,300,466,60,119.0,139,1,157,152,31,0,0,174,250,-1532,223,-5.59,,,,,,,,,,,,
143623,1564151491031,3,2.95,0.92,0.42,1.34,1.04,0.89,-0.59,0.44,31,-1,39,1.06,3645,0,90,45,56,956,222.0,302,458,60,123.0,139,1,155,223,31,0,0,171,250,250,222,-5.59,,,,,,,,,,,,
143643,1564151491051,-0,2.97,0.92,0.42,1.35,1.04,0.86,-0.6,0.43,31,1,39,1.05,3607,0,90,45,57,955,223.0,293,463,60,122.0,139,1,154,227,31,0,0,171,-1495,-17920,223,-5.59,44.680824,10.024494,20.26,174.5,0,0.0,-1,0.0,0.0,0,0.76,2.3941
143663,1564151491071,-1,2.98,0.92,0.42,1.34,1.04,0.85,-0.63,0.44,33,-1,41,1.06,3571,0,90,45,57,953,223.0,297,457,60,122.0,134,1,152,226,30,0,0,169,-1495,250,224,-5.59,,,,,,,,,,,,
143683,1564151491091,-1,3.0,0.92,0.42,1.35,1.05,0.94,-0.62,0.4,34,-1,43,1.12,3531,0,90,45,58,951,224.0,290,470,60,123.0,134,1,151,224,30,0,0,167,10620,-1532,224,181.28,,,,,,,,,,,,
143703,1564151491105,-1,0.33,0.9,0.4,1.33,1.03,0.85,-0.64,0.41,34,1,42,1.06,3454,0,90,45,58,948,224.0,291,461,60,120.0,134,1,150,229,30,0,0,166,31744,1210,224,-5.59,,,,,,,,,,,,
143723,1564151491125,-0,0.35,0.89,0.41,1.33,1.02,0.84,-0.65,0.41,35,-1,44,1.06,3411,0,90,45,59,946,224.0,286,460,60,122.0,134,1,150,232,30,0,0,165,31744,250,224,-5.59,,,,,,,,,,,,
143743,1564151491145,1,0.36,0.89,0.41,1.32,1.03,0.9,-0.65,0.4,37,-2,47,1.11,3360,0,90,45,59,945,222.0,284,467,60,122.0,134,1,0,232,30,0,0,164,31744,-17920,222,181.28,44.680824,10.024488,19.9,174.5,0,0.0,-1,0.0,0.0,0,0.76,2.3957
143763,1564151491165,1,0.37,0.89,0.41,1.32,1.03,0.92,-0.65,0.36,37,-2,47,1.13,3256,0,90,45,60,945,222.0,276,470,60,122.0,130,1,0,236,29,0,0,162,-1281,-1532,222,181.28,,,,,,,,,,,,
143783,1564151491201,-0,0.37,0.89,0.4,1.33,1.02,0.91,-0.67,0.36,37,-2,46,1.13,3174,0,90,45,61,944,222.0,270,458,60,122.0,130,1,150,241,29,0,0,161,-1,1088,222,414.87,,,,,,,,,,,,
143803,1564151491221,-0,0.37,0.89,0.41,1.32,1.03,0.88,-0.67,0.41,38,-0,46,1.1,3112,0,90,45,62,943,222.0,266,459,60,123.0,130,1,154,243,29,0,0,159,-1,-1532,222,414.87,,,,,,,,,,,,
143823,1564151491241,-0,0.37,0.89,0.41,1.33,1.02,0.87,-0.65,0.4,39,0,45,1.08,3055,0,90,45,63,942,221.0,259,458,60,121.0,130,1,158,246,29,0,0,157,-1,-14848,221,181.28,,,,,,,,,,,,
143843,1564151491261,-1,0.38,0.89,0.41,1.32,1.03,0.87,-0.64,0.41,38,0,46,1.08,3071,0,90,45,63,941,218.0,260,458,60,122.0,130,1,158,246,29,0,0,154,888,13964,218,414.87,44.680824,10.024481,19.52,174.5,0,0.0,-1,0.0,0.0,0,0.76,2.3974
143863,1564151491281,-1,0.39,0.89,0.41,1.33,1.02,0.87,-0.63,0.39,38,1,46,1.07,3168,0,90,45,64,939,213.0,260,459,60,121.0,134,1,162,249,29,0,0,149,250,12800,213,-5.59,,,,,,,,,,,,
143883,1564151491293,-2,0.4,0.89,0.41,1.33,1.02,0.86,-0.61,0.35,38,0,47,1.05,3224,0,90,45,64,938,213.0,263,457,60,119.0,134,1,162,249,29,0,0,147,10764,250,213,-5.59,,,,,,,,,,,,
143903,1564151491313,-0,0.39,0.89,0.41,1.33,1.02,0.88,-0.6,0.3,39,-1,50,1.07,3286,0,90,45,64,937,210.0,265,462,60,122.0,134,1,162,249,29,0,0,146,250,250,210,-5.59,,,,,,,,,,,,
143923,1564151491333,2,0.39,0.89,0.4,1.33,1.03,0.9,-0.58,0.3,39,-2,52,1.07,3302,0,90,45,65,937,209.0,266,468,60,122.0,134,1,167,251,29,0,0,147,-1,14412,208,181.28,,,,,,,,,,,,
143943,1564151491353,-0,0.4,0.89,0.41,1.33,1.02,0.93,-0.57,0.31,39,-2,52,1.09,3313,0,90,45,65,939,207.0,268,464,60,122.0,134,1,0,251,29,0,0,145,-1,19456,207,181.28,44.680824,10.024474,19.36,174.5,0,0.0,-1,0.0,0.0,0,0.76,2.399
143963,1564151491373,-1,0.4,0.88,0.41,1.32,1.02,0.86,-0.57,0.34,39,1,51,1.03,3287,0,90,45,65,941,206.0,268,457,60,120.0,149,1,167,251,31,0,0,146,-1,19456,206,-5.59,,,,,,,,,,,,
143983,1564151491393,-0,0.39,0.88,0.41,1.33,1.02,0.85,-0.56,0.32,40,1,51,1.01,3232,0,90,45,65,944,206.0,271,458,60,119.0,149,1,167,251,31,0,0,144,23460,-1481,206,-5.59,,,,,,,,,,,,
144003,1564151491405,-1,0.4,0.89,0.41,1.32,1.02,0.87,-0.55,0.32,40,-0,52,1.03,3185,0,90,45,65,946,205.0,270,459,60,119.0,149,1,0,251,31,0,0,143,-23552,250,205,-5.59,,,,,,,,,,,,
144023,1564151491425,-2,0.41,0.89,0.4,1.32,1.02,0.92,-0.56,0.31,41,-2,54,1.08,3153,0,90,45,65,947,203.0,266,462,60,121.0,149,1,167,251,31,0,0,144,-23552,14326,203,-5.59,,,,,,,,,,,,
144043,1564151491445,-2,0.41,0.88,0.41,1.32,1.03,0.96,-0.58,0.31,41,-3,55,1.12,3103,0,90,45,66,948,202.0,263,466,60,122.0,149,1,0,254,31,0,0,142,-23552,250,202,181.28,44.680828,10.024469,18.23,174.5,0,0.0,-1,0.0,0.0,0,0.76,2.4007
144063,1564151491465,0,0.4,0.88,0.4,1.32,1.03,1.0,-0.58,0.27,41,-3,55,1.15,3043,0,90,45,67,947,201.0,257,470,60,121.0,144,1,0,254,29,0,0,141,250,250,201,181.28,,,,,,,,,,,,
144083,1564151491503,0,0.4,0.88,0.39,1.32,1.03,1.04,-0.58,0.23,41,-5,55,1.19,3008,0,90,45,67,945,200.0,258,463,60,120.0,144,1,0,257,29,0,0,139,250,250,200,-5.59,,,,,,,,,,,,
144103,1564151491523,-1,0.4,0.88,0.41,1.31,1.03,1.04,-0.59,0.2,41,-6,56,1.19,2999,0,90,45,67,940,199.0,253,463,60,122.0,144,1,0,257,29,0,0,138,-1,-1,197,181.28,,,,,,,,,,,,
144123,1564151491543,-1,0.41,0.88,0.41,1.32,1.02,1.07,-0.58,0.15,41,-7,56,1.21,3002,0,90,45,67,934,197.0,253,470,60,122.0,144,1,175,257,29,0,0,137,-1,-1,197,181.28,,,,,,,,,,,,
144143,1564151491563,-0,0.4,0.88,0.4,1.32,1.02,1.09,-0.57,0.15,41,-8,56,1.23,3003,0,90,45,67,929,194.0,253,467,60,121.0,144,1,0,257,29,0,0,135,-1,-1,194,181.28,44.680832,10.024464,17.13,174.4,0,0.0,-1,0.0,0.0,0,0.76,2.4024
144163,1564151491583,-0,0.4,0.89,0.41,1.32,1.02,1.09,-0.56,0.14,41,-8,56,1.23,2994,0,90,45,68,925,194.0,252,464,60,122.0,149,1,179,257,29,0,0,135,-1,-1,194,181.28,,,,,,,,,,,,
144183,1564151491593,-1,0.41,0.88,0.4,1.32,1.02,1.1,-0.57,0.09,41,-9,57,1.24,2970,0,90,45,68,921,192.0,251,464,60,122.0,149,1,178,260,29,0,0,134,-1,-1,192,181.28,,,,,,,,,,,,
144203,1564151491613,-0,0.4,0.88,0.4,1.32,1.02,1.11,-0.56,0.12,41,-10,57,1.24,2958,0,90,45,68,917,191.0,251,467,60,122.0,149,1,178,260,29,0,0,134,-1,-1,191,181.28,,,,,,,,,,,,
144223,1564151491633,-1,0.4,0.89,0.4,1.31,1.02,1.12,-0.56,0.06,41,-10,57,1.26,2928,0,90,45,68,917,190.0,249,466,60,123.0,149,1,177,260,29,0,0,133,-1,-236,190,-5.59,,,,,,,,,,,,
144243,1564151491653,-0,0.4,0.88,0.4,1.32,1.02,1.1,-0.57,0.09,41,-10,57,1.24,2900,0,90,45,69,917,188.0,251,465,60,121.0,149,1,176,260,29,0,0,131,5140,-236,188,-5.59,44.680836,10.02446,17.12,174.4,0,0.0,-1,0.0,0.0,0,0.76,2.404
144263,1564151491673,-0,0.41,0.88,0.41,1.32,1.02,1.12,-0.56,0.08,41,-9,57,1.25,2869,0,90,45,68,919,188.0,248,464,60,121.0,148,1,0,259,28,0,0,132,5140,-236,188,-5.59,,,,,,,,,,,,
144283,1564151491693,-1,0.41,0.88,0.4,1.32,1.02,1.09,-0.57,0.08,40,-8,57,1.23,2855,0,90,45,69,921,187.0,246,458,60,121.0,148,1,174,259,28,0,0,130,250,250,187,-5.59,,,,,,,,,,,,
144303,1564151491707,-2,0.41,0.88,0.41,1.32,1.02,1.09,-0.56,0.09,40,-7,56,1.23,2839,0,90,45,69,923,185.0,245,460,60,121.0,148,1,173,259,28,0,0,130,250,-1495,185,-5.59,,,,,,,,,,,,
144323,1564151491727,-0,0.41,0.88,0.41,1.33,1.01,1.07,-0.54,0.14,39,-5,55,1.2,2829,0,91,45,70,923,182.0,241,460,60,123.0,148,1,172,257,28,0,0,128,-1281,-1495,182,181.28,,,,,,,,,,,,
144343,1564151491747,2,0.41,0.88,0.4,1.32,1.02,1.06,-0.51,0.2,39,-3,53,1.17,2813,0,90,45,70,922,182.0,239,456,60,122.0,148,1,171,257,28,0,0,127,-1,31744,182,181.28,44.68084,10.024456,16.17,174.4,0,0.0,-1,0.0,0.0,0,0.76,2.4057
144363,1564151491767,2,0.4,0.88,0.4,1.32,1.01,1.02,-0.47,0.24,38,-2,52,1.13,2794,0,91,45,70,920,181.0,238,461,60,122.0,149,1,0,257,27,0,0,127,-1,250,180,414.87,,,,,,,,,,,,
144383,1564151491801,-0,0.4,0.88,0.4,1.31,1.01,1.02,-0.48,0.23,38,-3,52,1.13,2802,0,90,45,70,917,179.0,238,466,60,122.0,149,1,0,257,27,0,0,125,-1,250,179,181.28,,,,,,,,,,,,
144403,1564151491821,-1,0.41,0.88,0.41,1.32,1.02,1.05,-0.5,0.22,38,-5,53,1.16,2788,0,90,45,70,914,178.0,241,463,60,121.0,149,1,0,257,27,0,0,124,-1,-1281,178,-5.59,,,,,,,,,,,,
144423,1564151491841,-0,0.41,0.88,0.41,1.31,1.03,1.06,-0.51,0.23,38,-5,53,1.17,2744,0,90,45,70,908,177.0,240,462,60,120.0,149,1,167,257,27,0,0,124,-1,-1,177,-5.59,,,,,,,,,,,,
144443,1564151491861,-1,0.41,0.88,0.41,1.31,1.02,1.05,-0.5,0.21,38,-4,52,1.17,2698,0,91,45,71,901,176.0,238,460,60,122.0,149,1,163,256,27,0,0,123,-1,-1,176,-5.59,44.680843,10.024454,15.69,174.4,0,0.0,-1,0.0,0.0,0,0.76,2.4074
144463,1564151491881,2,0.42,0.88,0.4,1.33,1.01,1.02,-0.46,0.23,38,-2,51,1.12,2693,0,91,45,72,895,175.0,235,457,60,122.0,148,1,0,254,26,0,0,122,-1,888,175,181.28,,,,,,,,,,,,
144483,1564151491896,-0,0.42,0.88,0.4,1.32,1.01,1.02,-0.44,0.23,37,-2,50,1.11,2669,0,91,45,72,890,174.0,233,464,60,122.0,148,1,160,254,26,0,0,122,-1,30720,174,181.28,,,,,,,,,,,,
144503,1564151491916,-0,0.41,0.88,0.4,1.32,1.02,1.05,-0.45,0.19,37,-4,51,1.14,2632,0,90,45,72,882,173.0,236,465,60,120.0,148,1,0,254,26,0,0,120,-1,250,173,-5.59,,,,,,,,,,,,
144523,1564151491936,-0,0.41,0.88,0.4,1.33,1.02,1.06,-0.48,0.12,37,-4,51,1.16,2594,0,91,45,72,873,172.0,232,461,60,121.0,148,1,155,254,26,0,0,118,-1,10764,172,-5.59,,,,,,,,,,,,
144543,1564151491956,2,0.42,0.88,0.4,1.33,1.01,1.04,-0.43,0.15,36,-2,49,1.13,2593,0,91,45,73,865,170.0,227,460,60,122.0,148,1,0,253,26,0,0,118,-1,10764,170,181.28,44.680847,10.024451,15.17,174.4,0,0.0,-1,0.0,0.0,0,0.76,2.409
144563,1564151491976,-1,0.42,0.88,0.4,1.32,1.02,1.04,-0.41,0.17,36,-1,50,1.12,2609,0,91,45,74,859,169.0,229,466,60,123.0,141,1,152,253,24,0,0,117,-202,-1281,169,181.28,,,,,,,,,,,,
144583,1564151491996,-2,0.42,0.88,0.4,1.31,1.02,1.08,-0.4,0.22,36,-4,49,1.15,2594,0,90,45,73,854,167.0,229,462,60,120.0,141,1,0,253,24,0,0,118,-202,250,167,-5.59,,,,,,,,,,,,
144603,1564151492002,-0,0.42,0.87,0.4,1.32,1.02,1.01,-0.39,0.3,36,-6,49,1.08,2556,0,91,45,74,848,167.0,227,462,60,122.0,141,1,149,251,24,0,0,115,13868,-1,167,-5.59,,,,,,,,,,,,
144623,1564151492022,2,0.41,0.88,0.4,1.32,1.02,0.97,-0.37,0.28,36,-1,49,1.04,2535,0,91,45,74,843,165.0,225,464,60,121.0,141,1,0,251,24,0,0,115,11264,-1,165,414.87,,,,,,,,,,,,
144643,1564151492042,-0,0.41,0.87,0.4,1.32,1.01,1.03,-0.37,0.25,36,-1,48,1.09,2510,0,91,45,75,843,164.0,225,462,60,121.0,141,1,0,251,24,0,0,115,250,-165,164,-5.59,44.680847,10.024449,14.86,174.3,0,0.0,-1,0.0,0.0,0,0.76,2.4107
144663,1564151492062,-1,0.42,0.88,0.4,1.32,1.02,1.01,-0.36,0.27,35,-4,47,1.08,2521,0,91,45,75,844,164.0,222,462,60,122.0,140,1,144,251,23,0,0,113,13862,-165,164,-5.59,,,,,,,,,,,,
144683,1564151492100,3,0.41,0.87,0.39,1.32,1.02,0.98,-0.36,0.3,35,-1,48,1.05,2528,0,91,45,75,845,162.0,222,462,60,120.0,140,1,0,251,23,0,0,113,9728,250,162,181.28,,,,,,,,,,,,
144703,1564151492120,-1,0.41,0.88,0.4,1.32,1.01,1.03,-0.35,0.26,35,-1,47,1.09,2477,0,91,45,75,848,161.0,223,461,60,122.0,140,1,143,251,23,0,0,111,9728,23460,161,-5.59,,,,,,,,,,,,
144723,1564151492140,-1,0.41,0.87,0.4,1.32,1.02,1.01,-0.35,0.26,35,-3,47,1.06,2427,0,91,45,75,850,160.0,220,463,60,122.0,140,1,143,249,23,0,0,111,250,-23552,160,181.28,,,,,,,,,,,,
144743,1564151492160,1,0.39,0.88,0.4,1.31,1.02,0.98,-0.35,0.24,35,-1,48,1.04,2441,0,91,45,76,854,159.0,219,462,60,122.0,140,1,140,249,23,0,0,110,250,-1281,159,414.87,44.680851,10.024449,14.24,174.3,0,0.0,-1,0.0,0.0,0,0.76,2.4124
144763,1564151492180,-0,0.38,0.87,0.4,1.32,1.01,1.0,-0.35,0.28,34,-3,47,1.06,2425,0,91,45,76,859,157.0,219,461,60,121.0,146,1,0,249,23,0,0,110,-1482,-1,157,-5.59,,,,,,,,,,,,
144783,1564151492200,3,0.37,0.87,0.4,1.32,1.02,0.99,-0.33,0.34,34,-2,46,1.05,2414,0,91,45,77,865,156.0,217,458,60,122.0,146,1,0,250,23,0,0,108,13856,-1,156,414.87,,,,,,,,,,,,
144803,1564151492210,-0,0.35,0.88,0.4,1.31,1.01,1.02,-0.33,0.32,34,-2,46,1.07,2326,0,91,45,76,869,155.0,217,462,60,121.0,146,1,0,249,23,0,0,109,8192,-1,155,-5.59,,,,,,,,,,,,
144823,1564151492230,-0,2.98,0.89,0.41,1.33,1.03,0.98,-0.3,0.35,33,-2,45,1.02,2278,0,91,45,78,873,154.0,212,458,60,123.0,146,1,0,251,23,0,0,109,8192,-1,154,181.28,,,,,,,,,,,,
144843,1564151492250,-1,2.97,0.9,0.41,1.33,1.04,1.0,-0.29,0.31,32,-1,46,1.04,2269,0,91,45,78,880,153.0,212,466,60,120.0,146,1,138,251,23,0,0,109,8192,-1,153,181.28,44.680859,10.024449,13.79,174.3,0,0.0,-1,0.0,0.0,0,0.76,2.4141
144863,1564151492270,3,2.92,0.9,0.41,1.34,1.04,0.95,-0.26,0.35,32,-2,44,0.99,2233,0,91,45,79,887,151.0,208,458,60,122.0,139,1,0,252,21,0,0,109,8192,-1,151,181.28,,,,,,,,,,,,
144883,1564151492290,-2,2.9,0.9,0.41,1.34,1.03,0.97,-0.25,0.32,31,-1,45,1.0,2087,0,91,45,79,890,150.0,208,460,60,121.0,139,1,0,252,21,0,0,110,8192,-1,148,-5.59,,,,,,,,,,,,
144903,1564151492304,-1,2.85,0.9,0.41,1.34,1.04,0.95,-0.2,0.41,30,-0,42,0.97,2008,0,91,45,80,893,147.0,202,460,60,123.0,139,1,135,253,21,0,0,111,8192,-1,147,181.28,,,,,,,,,,,,
144923,1564151492324,3,2.8,0.89,0.41,1.34,1.03,0.95,-0.2,0.38,29,-1,42,0.97,1959,0,91,45,81,898,145.0,197,461,60,123.0,139,1,133,255,21,0,0,113,8192,5140,145,181.28,,,,,,,,,,,,
144943,1564151492344,-1,2.75,0.9,0.41,1.33,1.03,0.94,-0.15,0.41,28,-1,41,0.95,1893,0,91,45,81,903,144.0,198,457,60,120.0,139,1,0,255,21,0,0,115,8192,5120,144,-5.59,44.680862,10.024449,13.11,174.3,0,0.0,-1,0.0,0.0,0,0.76,2.4157
144963,1564151492364,0,2.7,0.9,0.41,1.33,1.03,0.93,-0.13,0.47,27,-1,38,0.94,1851,0,91,45,82,904,142.0,194,468,60,123.0,125,1,132,256,18,0,0,115,8192,250,142,181.28,,,,,,,,,,,,
144983,1564151492400,0,2.65,0.89,0.4,1.34,1.03,0.91,-0.12,0.46,25,-0,36,0.92,1785,0,91,45,83,906,140.0,189,458,60,122.0,125,1,0,258,18,0,0,118,13856,-1,140,181.28,,,,,,,,,,,,
145003,1564151492420,-1,2.61,0.89,0.41,1.33,1.03,0.9,-0.1,0.49,24,-0,35,0.91,1681,0,91,45,84,908,138.0,183,457,60,122.0,125,1,130,259,18,0,0,118,-1482,-1,138,181.28,,,,,,,,,,,,
145023,1564151492440,0,2.56,0.89,0.4,1.33,1.02,0.88,-0.08,0.49,23,-0,33,0.89,1601,0,91,45,85,911,136.0,179,462,60,122.0,125,1,130,260,18,0,0,120,-1482,-1,136,181.28,,,,,,,,,,,,
145043,1564151492460,1,2.51,0.89,0.4,1.33,1.02,0.88,-0.07,0.5,21,-0,31,0.88,1551,0,91,45,86,912,134.0,176,460,60,122.0,125,1,130,261,18,0,0,120,250,-1,134,181.28,44.680866,10.024449,12.79,174.2,0,0.0,-1,0.0,0.0,0,0.76,2.4174
145063,1564151492480,-0,2.47,0.89,0.41,1.32,1.03,0.87,-0.05,0.51,20,0,30,0.87,1517,0,91,45,87,913,133.0,173,458,60,121.0,105,1,0,262,14,0,0,122,250,-1,133,181.28,,,,,,,,,,,,
145083,1564151492494,-0,2.45,0.88,0.4,1.33,1.02,0.87,-0.04,0.51,18,-0,28,0.87,1479,0,91,45,87,915,130.0,169,460,60,120.0,105,1,128,262,14,0,0,122,9728,-1,130,181.28,,,,,,,,,,,,
145103,1564151492514,1,2.42,0.88,0.41,1.32,1.03,0.87,-0.03,0.52,17,0,26,0.87,1405,9,91,45,88,918,129.0,166,458,60,120.0,105,1,122,446,14,0,0,123,9728,-1,129,181.28,,,,,,,,,,,,
145123,1564151492534,2,2.41,0.89,0.41,1.33,1.03,0.88,-0.02,0.53,16,0,24,0.88,1295,26,91,45,89,920,128.0,166,470,60,121.0,105,1,113,442,14,0,0,124,9728,-1,128,-5.59,,,,,,,,,,,,
145143,1564151492554,0,2.4,0.89,0.41,1.33,1.02,0.89,-0.01,0.54,15,-0,22,0.89,1165,43,91,45,93,922,126.0,166,459,60,119.0,105,1,144,217,14,0,0,123,9728,-1,126,-5.59,44.680866,10.024449,12.83,174.2,0,0.0,-1,0.0,0.0,0,0.77,2.419
145163,1564151492574,2,2.38,0.89,0.4,1.33,1.03,0.87,-0.01,0.54,13,-1,20,0.87,1165,56,91,45,97,925,126.0,159,462,60,120.0,182,1,199,246,23,0,0,123,9728,-1,126,-5.59,,,,,,,,,,,,
145183,1564151492594,2,2.38,0.89,0.41,1.33,1.02,0.87,-0.01,0.53,12,-0,18,0.87,1056,65,91,45,97,928,124.0,156,465,60,121.0,182,1,190,246,23,0,0,124,250,-202,124,-5.59,,,,,,,,,,,,
145203,1564151492606,2,2.38,0.9,0.41,1.33,1.03,0.88,-0.0,0.51,12,-0,17,0.88,1122,78,91,45,98,930,124.0,157,471,60,120.0,182,1,209,254,23,0,0,123,250,13868,124,-5.59,,,,,,,,,,,,
145223,1564151492626,3,2.38,0.9,0.41,1.32,1.03,0.9,0.01,0.52,11,-1,15,0.9,1347,93,91,45,98,931,122.0,162,457,60,120.0,182,1,227,540,23,0,0,122,-1482,250,122,-5.59,,,,,,,,,,,,
145243,1564151492646,3,2.39,0.89,0.41,1.33,1.03,0.88,0.01,0.55,10,-1,13,0.88,1664,100,91,45,98,933,122.0,164,467,60,122.0,182,1,240,547,23,0,0,121,-1482,250,122,181.28,44.68087,10.02445,12.66,174.2,0,0.0,-1,0.0,0.0,0,0.77,2.4207
145263,1564151492666,6,2.37,0.9,0.41,1.33,1.02,0.89,-0.01,0.52,9,-1,12,0.89,1900,100,91,45,98,935,121.0,168,460,60,122.0,311,1,240,550,38,0,0,119,8192,-1482,121,181.28,,,,,,,,,,,,
145283,1564151492702,3,2.38,0.89,0.41,1.33,1.03,0.92,-0.0,0.47,9,-1,12,0.92,1959,100,91,45,97,937,119.0,177,461,60,119.0,311,1,226,529,38,0,0,119,250,250,119,-5.59,,,,,,,,,,,,
145303,1564151492722,6,2.37,0.89,0.41,1.33,1.03,0.93,0.02,0.5,8,-2,10,0.93,1958,100,91,45,98,939,118.0,181,468,60,122.0,311,1,240,529,38,0,0,117,-1482,250,118,181.28,,,,,,,,,,,,
145323,1564151492742,7,2.37,0.89,0.41,1.33,1.03,0.93,-0.0,0.44,7,-3,9,0.93,2077,100,91,45,98,943,116.0,181,457,60,122.0,311,1,240,542,38,0,0,115,6656,250,116,181.28,,,,,,,,,,,,
145343,1564151492762,7,2.37,0.89,0.41,1.33,1.03,0.92,-0.0,0.39,7,0,10,0.92,2521,86,91,45,97,949,116.0,194,466,60,122.0,311,1,226,552,38,0,0,115,-1482,13856,116,181.28,44.680874,10.02445,12.38,174.2,0,0.0,-1,0.0,0.0,0,0.77,2.4224
145363,1564151492782,8,2.38,0.89,0.41,1.32,1.04,0.99,0.02,0.42,6,-3,8,0.99,2795,71,91,45,97,953,114.0,205,468,60,121.0,614,1,229,775,70,0,0,113,5120,250,114,-5.59,,,,,,,,,,,,
145383,1564151492792,8,2.38,0.89,0.41,1.32,1.03,1.0,-0.01,0.44,5,-8,8,1.0,3036,63,91,45,96,957,112.0,217,467,60,122.0,614,1,225,480,70,0,0,111,5120,6656,112,-5.59,,,,,,,,,,,,
145403,1564151492812,6,2.37,0.89,0.41,1.33,1.02,0.99,-0.04,0.45,5,-8,8,0.99,3282,58,91,45,95,966,109.0,231,463,60,121.0,614,1,217,819,70,0,0,108,-1482,-1482,109,-5.59,,,,,,,,,,,,
145423,1564151492832,8,2.37,0.9,0.41,1.33,1.03,0.97,-0.02,0.37,5,-2,7,0.97,3814,56,91,45,94,979,107.0,250,458,60,118.0,614,1,232,809,70,0,0,106,3584,-1482,107,-5.59,,,,,,,,,,,,
145443,1564151492852,8,2.37,0.89,0.41,1.33,1.03,0.99,-0.03,0.37,4,-2,7,0.99,4149,56,91,45,93,991,104.0,272,466,60,121.0,614,1,246,764,70,0,0,103,13832,-1482,104,-5.59,44.680878,10.024451,11.54,174.2,0,0.0,-1,0.0,0.0,0,0.77,2.4241
145463,1564151492872,7,2.37,0.89,0.41,1.33,1.03,1.01,-0.05,0.39,4,-4,7,1.01,4463,55,91,45,93,1000,104.0,301,461,60,123.0,1250,1,269,770,130,0,0,103,250,-1482,104,-5.59,,,,,,,,,,,,
145483,1564151492892,8,2.35,0.89,0.4,1.33,1.03,1.01,-0.05,0.39,4,-4,6,1.02,4818,54,91,45,92,1013,102.0,336,461,60,120.0,1250,1,293,727,130,0,0,102,250,-1482,102,-5.59,,,,,,,,,,,,
145503,1564151492906,7,2.35,0.89,0.41,1.33,1.04,1.01,-0.01,0.33,4,-3,6,1.01,5131,52,91,45,92,1030,99.0,365,463,60,120.0,1250,1,309,455,130,0,0,99,-22528,2048,99,-5.59,,,,,,,,,,,,
145523,1564151492926,10,2.35,0.9,0.41,1.34,1.03,1.02,-0.0,0.36,4,-2,5,1.02,5375,50,91,45,90,1046,96.0,389,464,60,122.0,1250,1,311,640,130,0,0,97,-1481,13736,96,-5.59,,,,,,,,,,,,
145543,1564151492946,8,2.35,0.89,0.41,1.33,1.03,0.9,-0.03,0.39,3,-2,5,0.9,5833,50,91,45,87,1053,96.0,423,463,60,121.0,1250,1,322,610,130,0,0,97,250,13736,96,181.28,44.680878,10.024451,10.87,174.1,0,0.0,-1,0.0,0.0,0,0.77,2.4257
145563,1564151492966,9,2.35,0.9,0.4,1.33,1.03,0.81,-0.05,0.47,3,-2,5,0.81,6317,49,91,45,85,1053,93.0,460,465,60,122.0,1473,1,349,413,137,0,0,93,250,-1481,93,-5.59,,,,,,,,,,,,
145583,1564151492997,5,2.35,0.89,0.41,1.33,1.03,0.79,0.03,0.38,4,-0,4,0.79,6798,49,91,45,83,1033,91.0,514,460,60,122.0,1473,1,370,415,137,0,0,91,-9728,-6144,91,-5.59,,,,,,,,,,,,
145603,1564151493017,8,2.35,0.89,0.41,1.33,1.04,0.87,-0.02,0.45,3,-3,5,0.87,7009,47,91,45,82,1011,91.0,535,463,60,120.0,1473,1,379,533,137,0,0,91,-1481,-9728,91,-5.59,,,,,,,,,,,,
145623,1564151493037,7,2.35,0.9,0.41,1.33,1.03,0.87,0.04,0.33,3,0,4,0.87,7153,41,91,45,80,984,87.0,551,464,60,121.0,1473,1,388,459,137,0,0,87,-1481,-9728,87,-5.59,,,,,,,,,,,,
145643,1564151493057,8,2.34,0.9,0.41,1.33,1.03,0.78,0.05,0.21,3,1,4,0.78,7408,36,91,45,76,951,85.0,567,466,60,121.0,1473,1,404,431,137,0,0,86,250,-1481,85,-5.59,44.680882,10.024452,9.93,174.1,0,0.0,-1,0.0,0.0,0,0.77,2.4274
145663,1564151493077,7,2.35,0.89,0.41,1.33,1.03,0.71,0.15,0.15,3,2,5,0.73,7539,34,91,45,72,899,85.0,587,464,60,122.0,1341,1,417,384,114,0,0,86,-16896,-13312,85,-5.59,,,,,,,,,,,,
145683,1564151493097,8,2.34,0.9,0.41,1.32,1.04,0.62,0.25,0.09,4,1,4,0.67,7706,34,91,45,68,849,83.0,600,467,60,120.0,1341,1,432,344,114,0,0,83,-16896,-13312,83,-5.59,,,,,,,,,,,,
145703,1564151493109,3,2.35,0.89,0.41,1.34,1.04,0.64,0.22,0.05,4,3,2,0.68,8095,34,91,45,65,825,80.0,614,465,60,119.0,1341,1,449,333,114,0,0,80,-1481,14270,80,-5.59,,,,,,,,,,,,
145723,1564151493129,6,2.35,0.9,0.41,1.33,1.04,0.59,0.16,0.06,3,3,3,0.61,8385,33,91,45,61,801,80.0,631,465,60,121.0,1341,1,447,326,114,0,0,80,-1481,14270,80,-5.59,,,,,,,,,,,,
145743,1564151493149,7,2.35,0.89,0.4,1.33,1.04,0.73,0.17,0.17,3,2,4,0.75,8692,33,91,45,57,777,77.0,646,463,60,121.0,1341,1,407,299,114,0,0,78,250,-1481,77,-5.59,44.680885,10.024452,8.78,174.1,0,0.0,-1,0.0,0.0,0,0.77,2.429
145763,1564151493169,6,2.35,0.89,0.41,1.33,1.03,0.85,0.14,0.27,2,1,2,0.86,8898,33,91,45,54,752,77.0,643,465,60,120.0,1285,1,397,284,99,0,0,78,250,-20480,77,-5.59,,,,,,,,,,,,
145783,1564151493203,5,2.34,0.89,0.41,1.33,1.03,0.83,0.05,0.25,2,2,2,0.83,9115,33,91,45,51,751,75.0,647,464,60,120.0,1285,1,388,264,99,0,0,75,14242,-20480,75,-5.59,,,,,,,,,,,,
145803,1564151493223,6,2.35,0.89,0.41,1.33,1.04,0.95,0.03,0.35,2,2,1,0.95,9295,33,91,45,49,751,72.0,652,463,60,121.0,1285,1,382,249,99,0,0,73,-1481,14242,72,-5.59,,,,,,,,,,,,
145823,1564151493243,-1,2.35,0.9,0.41,1.33,1.03,1.06,0.07,0.47,1,0,1,1.06,9417,33,91,45,48,746,72.0,651,462,60,121.0,1285,1,381,241,99,0,0,73,-1481,14242,72,-5.59,,,,,,,,,,,,
145843,1564151493263,6,2.34,0.9,0.41,1.34,1.03,0.93,0.06,0.38,2,1,1,0.94,9450,33,91,45,46,742,70.0,647,468,60,120.0,1285,1,371,231,99,0,0,70,-27648,250,70,-5.59,44.680885,10.024453,7.87,174.0,0,0.0,-1,0.0,0.0,0,0.77,2.4307
145863,1564151493283,6,2.34,0.9,0.41,1.33,1.03,0.88,0.02,0.33,2,2,1,0.88,9417,31,91,45,46,738,70.0,648,463,60,120.0,1142,1,370,228,80,0,0,70,-27648,250,70,-5.59,,,,,,,,,,,,
145883,1564151493297,7,2.34,0.9,0.41,1.34,1.04,1.0,0.02,0.43,1,0,1,1.0,9295,29,91,45,45,734,67.0,649,464,60,121.0,1142,1,361,223,80,0,0,67,14054,-27648,67,-5.59,,,,,,,,,,,,
145903,1564151493317,7,2.35,0.89,0.41,1.33,1.04,1.1,0.07,0.5,1,-1,0,1.1,9159,27,91,45,45,739,67.0,651,464,60,120.0,1142,1,359,222,80,0,0,67,14054,-27648,67,-5.59,,,,,,,,,,,,
145923,1564151493337,7,2.34,0.9,0.41,1.34,1.03,1.19,0.1,0.59,0,-4,1,1.2,8954,27,91,45,44,744,64.0,650,458,60,121.0,1142,1,351,218,80,0,0,65,-1281,14054,64,-5.59,,,,,,,,,,,,
145943,1564151493357,5,2.35,0.9,0.41,1.33,1.03,1.28,0.11,0.65,0,-4,0,1.28,8823,26,91,45,44,752,64.0,647,470,60,120.0,1142,1,351,218,80,0,0,65,-1281,14054,64,-5.59,44.680885,10.024453,7.18,174.0,0,0.0,-1,0.0,0.0,0,0.77,2.4324
145963,1564151493377,4,2.35,0.9,0.41,1.33,1.03,1.35,0.1,0.7,-0,-5,-0,1.35,8668,25,91,45,44,761,61.0,638,465,60,120.0,1109,1,351,217,71,0,0,61,-1,-1281,61,-5.59,,,,,,,,,,,,
145983,1564151493397,4,2.35,0.9,0.41,1.33,1.04,1.23,0.12,0.64,0,-3,-0,1.24,8542,22,91,45,43,781,61.0,637,465,60,120.0,1109,1,345,214,71,0,0,61,-1,-1281,61,-5.59,,,,,,,,,,,,
146003,1564151493407,6,2.34,0.9,0.41,1.33,1.03,1.13,0.11,0.56,0,-2,-0,1.13,8381,21,91,44,42,803,61.0,636,464,60,122.0,1109,1,336,213,71,0,0,61,-1,-1,61,-5.59,,,,,,,,,,,,
146023,1564151493427,3,2.35,0.9,0.41,1.33,1.03,1.22,0.09,0.61,0,-3,0,1.22,8212,21,91,44,42,817,58.0,635,465,60,120.0,1109,1,335,211,71,0,0,58,-1,-1,58,-5.59,,,,,,,,,,,,
146043,1564151493447,5,2.35,0.9,0.41,1.34,1.04,1.15,0.08,0.59,-0,-4,-0,1.16,8081,21,91,44,41,830,58.0,630,466,60,121.0,1109,1,325,135,71,0,0,58,-1,-1,58,-5.59,44.680889,10.024453,6.5,174.0,0,0.0,-1,0.0,0.0,0,0.77,2.4341
146063,1564151493467,7,2.34,0.9,0.41,1.34,1.03,1.11,0.11,0.52,-0,-3,1,1.12,7975,21,92,44,41,847,55.0,623,463,60,121.0,1127,1,325,207,62,0,0,55,-1,-1,55,-5.59,,,,,,,,,,,,
146083,1564151493504,3,2.34,0.9,0.41,1.33,1.03,1.16,0.06,0.52,-1,-3,1,1.17,7904,21,92,44,41,867,55.0,621,467,60,120.0,1127,1,325,207,62,0,0,55,-1,-1,55,-5.59,,,,,,,,,,,,
146103,1564151493524,5,2.34,0.89,0.41,1.33,1.04,1.17,0.07,0.57,-1,-4,0,1.17,7921,21,92,44,40,880,54.0,621,463,60,121.0,1127,1,317,205,62,0,0,52,-1,-1,52,-5.59,,,,,,,,,,,,
146123,1564151493544,4,2.35,0.9,0.41,1.33,1.03,1.11,0.13,0.5,-1,-3,1,1.12,7911,21,92,44,40,887,52.0,623,466,60,121.0,1127,1,317,205,62,0,0,52,-1,-1,52,-5.59,,,,,,,,,,,,
146143,1564151493564,3,2.35,0.9,0.41,1.33,1.04,1.14,0.14,0.47,-1,-3,3,1.15,7931,21,92,44,40,892,52.0,629,464,60,120.0,1127,1,317,205,62,0,0,52,-1,-1,52,-5.59,44.680889,10.024453,5.83,173.9,0,0.0,-1,0.0,0.0,0,0.77,2.4357
146163,1564151493584,4,2.35,0.9,0.41,1.34,1.03,1.18,0.1,0.49,-1,-4,1,1.18,7931,21,92,44,40,896,48.0,627,466,60,119.0,1173,1,317,205,61,0,0,49,-1,-1,48,-5.59,,,,,,,,,,,,
146183,1564151493591,5,2.34,0.9,0.41,1.33,1.03,1.1,0.11,0.47,-1,-3,1,1.11,7904,21,92,44,40,895,48.0,626,464,60,121.0,1173,1,317,205,61,0,0,49,-1,-1,48,-5.59,,,,,,,,,,,,
146203,1564151493611,5,2.35,0.9,0.41,1.33,1.04,1.07,0.17,0.45,-1,-2,3,1.08,7914,20,92,44,40,891,48.0,622,465,60,120.0,1173,1,317,205,61,0,0,49,-1,-1,48,-5.59,,,,,,,,,,,,
146223,1564151493631,2,2.35,0.9,0.41,1.33,1.03,1.13,0.13,0.47,-1,-2,1,1.14,7965,20,92,44,41,877,45.0,627,468,60,120.0,1173,1,325,205,61,0,0,45,-1,-1,45,-5.59,,,,,,,,,,,,
146243,1564151493651,5,2.35,0.9,0.41,1.33,1.03,1.09,0.09,0.47,-1,-1,0,1.09,7904,20,92,44,40,855,45.0,630,465,60,120.0,1173,1,317,207,61,0,0,45,-1,-1,45,-5.59,44.680893,10.024454,5.15,173.9,0,0.0,-1,0.0,0.0,0,0.77,2.4374
146263,1564151493671,6,2.34,0.9,0.41,1.34,1.03,1.03,0.13,0.47,-1,-0,2,1.04,7948,20,92,44,40,834,45.0,626,466,60,121.0,1355,1,317,205,61,0,0,45,-1,-235,45,-5.59,,,,,,,,,,,,
146283,1564151493691,2,2.35,0.9,0.41,1.34,1.03,1.04,0.15,0.45,-0,-0,1,1.05,7948,20,92,44,40,816,41.0,623,466,60,120.0,1355,1,317,205,61,0,0,42,1018,-235,41,-5.59,,,,,,,,,,,,
146303,1564151493701,4,2.34,0.9,0.41,1.34,1.03,1.05,0.09,0.44,-1,-1,-0,1.05,7955,20,92,44,40,797,41.0,628,465,60,119.0,1355,1,317,205,61,0,0,42,1018,-235,41,-5.59,,,,,,,,,,,,
146323,1564151493721,6,2.35,0.9,0.41,1.34,1.03,0.95,0.12,0.39,-0,1,1,0.96,7995,20,92,44,40,776,41.0,623,462,60,122.0,1355,1,317,205,61,0,0,42,1018,-1281,41,-5.59,,,,,,,,,,,,
146343,1564151493741,1,2.36,0.9,0.41,1.34,1.03,0.98,0.16,0.37,0,1,1,0.99,8005,20,92,44,40,759,41.0,624,466,60,120.0,1355,1,317,206,61,0,0,38,1018,-1281,37,-5.59,44.680893,10.024454,4.56,173.9,0,0.0,-1,0.0,0.0,0,0.77,2.439
146363,1564151493761,2,2.35,0.9,0.41,1.34,1.03,0.97,0.1,0.36,0,0,-1,0.98,8067,20,92,44,40,756,37.0,632,465,60,119.0,1702,1,318,206,63,0,0,38,-1,-1281,37,-5.59,,,,,,,,,,,,
146383,1564151493797,5,2.35,0.9,0.4,1.33,1.03,0.9,0.14,0.35,0,2,1,0.91,8130,20,92,44,40,753,37.0,626,466,60,121.0,1702,1,319,205,63,0,0,38,-1,-1281,37,-5.59,,,,,,,,,,,,
146403,1564151493817,3,2.35,0.9,0.41,1.34,1.03,1.01,0.12,0.4,-0,1,0,1.02,8187,20,92,44,40,752,37.0,628,467,60,120.0,1702,1,320,206,63,0,0,38,-1,-1,37,-5.59,,,,,,,,,,,,
146423,1564151493837,4,2.35,0.9,0.41,1.34,1.03,0.89,0.12,0.37,0,1,-1,0.9,8169,20,92,44,39,751,36.0,633,463,60,121.0,1702,1,313,206,63,0,0,33,-1,-1,33,-5.59,,,,,,,,,,,,
146443,1564151493857,3,2.34,0.9,0.41,1.34,1.03,1.01,0.12,0.39,-0,1,1,1.01,8216,20,92,44,39,752,33.0,630,466,60,122.0,1702,1,314,206,63,0,0,33,-1,-1,33,-5.59,44.680893,10.024454,3.74,173.9,0,0.0,-1,0.0,0.0,0,0.77,2.4407
146463,1564151493877,5,2.35,0.9,0.41,1.34,1.03,0.9,0.13,0.38,-0,0,0,0.91,8278,20,92,44,38,754,33.0,634,466,60,122.0,1939,1,312,201,64,0,0,33,-1,-1,33,-5.59,,,,,,,,,,,,
146483,1564151493897,3,2.34,0.9,0.41,1.34,1.03,1.0,0.09,0.38,-0,-0,-0,1.01,8296,20,92,44,38,758,33.0,636,463,60,122.0,1939,1,312,201,64,0,0,33,-1,-1,33,-5.59,,,,,,,,,,,,
146503,1564151493906,5,2.35,0.9,0.41,1.34,1.03,0.86,0.13,0.33,0,1,1,0.87,8303,20,92,44,38,761,33.0,633,463,60,122.0,1939,1,313,197,64,0,0,33,-1,-1,33,-5.59,,,,,,,,,,,,
146523,1564151493926,2,2.35,0.9,0.42,1.33,1.04,0.95,0.12,0.4,0,-0,-0,0.96,8340,20,92,44,38,762,32.0,634,467,60,122.0,1939,1,313,198,64,0,0,29,-1,-1,28,-5.59,,,,,,,,,,,,
146543,1564151493946,6,2.34,0.9,0.41,1.34,1.03,0.86,0.14,0.37,0,1,0,0.87,8400,20,92,44,37,765,28.0,630,465,60,122.0,1939,1,311,199,64,0,0,29,-235,-1,28,-5.59,44.680897,10.024454,3.36,173.9,0,0.0,-1,0.0,0.0,0,0.77,2.4424
146563,1564151493966,4,2.35,0.9,0.41,1.33,1.04,0.93,0.13,0.35,-0,0,1,0.94,8442,20,92,44,37,770,28.0,634,468,60,123.0,2250,1,312,199,63,0,0,29,-235,-1,28,-5.59,,,,,,,,,,,,
146583,1564151494000,2,2.35,0.9,0.4,1.33,1.03,1.0,0.14,0.38,-0,0,0,1.01,8476,19,92,44,36,775,28.0,636,464,60,122.0,2250,1,310,196,63,0,0,29,-235,5442,28,-5.59,,,,,,,,,,,,
146603,1564151494020,3,2.34,0.89,0.4,1.33,1.04,0.86,0.15,0.33,0,1,1,0.87,8461,19,92,44,36,778,28.0,635,466,60,123.0,2250,1,310,195,63,0,0,29,-235,5442,28,-5.59,,,,,,,,,,,,
146623,1564151494040,4,2.34,0.9,0.41,1.33,1.03,0.91,0.15,0.35,0,0,1,0.92,8499,19,92,44,36,781,27.0,640,466,60,122.0,2250,1,310,196,63,0,0,24,-235,5442,23,-5.59,,,,,,,,,,,,
146643,1564151494060,3,2.35,0.89,0.41,1.33,1.03,0.99,0.18,0.42,0,0,1,1.0,8522,19,92,44,35,787,23.0,644,462,60,122.0,2250,1,308,194,63,0,0,24,-1,-3267,23,-5.59,44.680897,10.024454,2.63,173.9,0,0.0,-1,0.0,0.0,0,0.77,2.4441
146663,1564151494080,6,2.35,0.89,0.41,1.34,1.03,0.86,0.14,0.36,0,0,1,0.87,8581,19,92,44,35,793,23.0,638,468,60,123.0,2739,1,308,194,63,0,0,24,-1,-3267,23,-5.59,,,,,,,,,,,,
146683,1564151494100,4,2.35,0.9,0.41,1.34,1.03,0.89,0.1,0.36,-0,-1,1,0.89,8585,19,92,44,35,796,23.0,641,465,60,123.0,2739,1,308,194,63,0,0,24,-1,-8985,23,-5.59,,,,,,,,,,,,
146703,1564151494110,3,2.36,0.9,0.41,1.33,1.04,1.0,0.11,0.41,-0,-1,1,1.0,8596,19,92,44,35,799,23.0,639,463,60,123.0,2739,1,308,194,63,0,0,24,-1,2524,23,-5.59,,,,,,,,,,,,
146723,1564151494130,2,2.36,0.9,0.41,1.33,1.04,0.91,0.11,0.41,-0,1,0,0.92,8569,19,92,44,34,808,23.0,636,467,60,123.0,2739,1,305,191,63,0,0,24,-1,2524,23,-5.59,,,,,,,,,,,,
146743,1564151494150,3,2.36,0.9,0.41,1.34,1.03,0.83,0.09,0.35,0,0,1,0.84,8561,19,92,44,34,817,23.0,638,467,60,123.0,2739,1,305,191,63,0,0,24,-1,2524,23,-5.59,44.680897,10.024454,2.17,173.9,0,0.0,-1,0.0,0.0,0,0.77,2.4457
146763,1564151494170,4,2.35,0.9,0.41,1.33,1.04,0.93,0.11,0.4,0,-1,1,0.94,8577,19,92,44,34,824,23.0,641,465,60,122.0,2695,1,305,191,62,0,0,17,-1,-8985,23,-5.59,,,,,,,,,,,,
146783,1564151494190,2,2.36,0.9,0.41,1.33,1.03,0.99,0.11,0.47,0,-1,1,0.99,8581,19,92,44,34,830,17.0,644,461,60,122.0,2695,1,305,191,62,0,0,17,-1,-8985,17,-5.59,,,,,,,,,,,,
146803,1564151494204,2,2.35,0.9,0.41,1.34,1.03,0.84,0.07,0.37,0,0,1,0.85,8593,19,92,44,34,837,17.0,635,467,60,121.0,2695,1,305,191,62,0,0,17,-1,3571,17,-5.59,,,,,,,,,,,,
146823,1564151494224,5,2.35,0.9,0.41,1.33,1.04,0.81,0.06,0.36,0,-1,1,0.82,8600,19,92,44,34,844,17.0,639,465,60,121.0,2695,1,305,191,62,0,0,17,-1281,2524,17,-5.59,,,,,,,,,,,,
146843,1564151494244,2,2.36,0.9,0.41,1.34,1.04,0.94,0.05,0.4,-0,-1,1,0.94,8589,19,92,44,34,847,17.0,638,465,60,120.0,2695,1,305,191,62,0,0,17,-1281,-8985,17,-5.59,44.680897,10.024454,1.78,173.9,0,0.0,-1,0.0,0.0,0,0.77,2.4474
146863,1564151494264,1,2.34,0.9,0.41,1.34,1.03,0.9,0.06,0.45,-0,0,0,0.91,8569,19,92,44,34,848,17.0,635,466,60,120.0,0,1,305,191,62,0,0,17,-1281,-6387,17,-5.59,,,,,,,,,,,,
146883,1564151494299,4,2.35,0.9,0.41,1.34,1.04,0.78,0.05,0.42,0,0,1,0.78,8530,19,92,44,34,850,17.0,641,465,60,121.0,0,1,305,191,62,0,0,17,-1281,-6387,17,-5.59,,,,,,,,,,,,
146903,1564151494319,2,2.35,0.9,0.41,1.34,1.03,0.87,0.06,0.46,-0,-1,0,0.87,8538,19,92,44,34,851,17.0,640,466,60,121.0,0,1,305,191,62,0,0,17,-1281,-3267,17,-5.59,,,,,,,,,,,,
146923,1564151494339,0,2.34,0.9,0.41,1.34,1.03,0.91,0.06,0.51,0,-0,1,0.91,8511,19,92,44,34,852,17.0,636,464,60,121.0,0,1,305,191,62,0,0,17,-1281,15649,17,-5.59,,,,,,,,,,,,
146943,1564151494359,3,2.34,0.9,0.41,1.34,1.04,0.78,0.03,0.46,-0,-0,0,0.78,8557,19,92,44,33,852,17.0,640,467,60,121.0,0,1,302,187,62,0,0,17,-1281,15649,17,-5.59,44.680897,10.024454,0.0,173.8,0,0.0,-1,0.0,0.0,0,0.77,2.449
146963,1564151494379,2,2.34,0.9,0.41,1.34,1.03,0.85,0.0,0.44,-0,-2,1,0.85,8546,19,92,44,34,852,17.0,638,465,60,121.0,0,1,305,191,61,0,0,17,-1281,3571,17,-5.59,,,,,,,,,,,,
146983,1564151494392,1,2.34,0.9,0.41,1.34,1.03,0.92,0.02,0.49,-0,-0,0,0.92,8549,19,92,44,34,853,17.0,641,466,60,120.0,0,1,305,191,61,0,0,17,-1281,3571,17,-5.59,,,,,,,,,,,,
147003,1564151494412,3,2.34,0.9,0.4,1.34,1.03,0.77,0.03,0.46,-0,2,-0,0.77,8503,19,92,44,34,853,17.0,635,464,60,120.0,0,1,305,191,61,0,0,17,-1281,-3267,17,-5.59,,,,,,,,,,,,
147023,1564151494432,2,2.34,0.91,0.4,1.34,1.03,0.84,-0.0,0.47,-0,0,1,0.84,8491,20,92,44,34,853,17.0,637,465,60,120.0,0,1,304,190,61,0,0,9,-1281,8488,17,-5.59,,,,,,,,,,,,
147043,1564151494452,1,2.33,0.9,0.41,1.34,1.03,0.94,0.03,0.58,-0,-0,-0,0.94,8472,20,92,44,34,853,17.0,632,466,60,120.0,0,1,304,189,61,0,0,9,-1281,10305,17,-5.59,44.680901,10.024454,0.0,173.8,0,0.0,-1,0.0,0.0,0,0.77,2.4507
147063,1564151494472,3,2.34,0.9,0.41,1.34,1.04,0.77,0.02,0.52,0,1,0,0.77,8538,30,92,44,35,852,9.0,631,468,60,120.0,0,1,308,194,61,0,0,9,-1281,15649,9,-5.59,,,,,,,,,,,,
147083,1564151494506,2,2.33,0.91,0.41,1.34,1.04,0.82,0.03,0.5,-0,-0,0,0.82,8569,38,92,44,38,851,9.0,636,467,60,121.0,0,1,317,204,61,0,0,9,-1281,-6387,9,-5.59,,,,,,,,,,,,
147103,1564151494526,1,2.33,0.9,0.41,1.33,1.04,0.94,0.04,0.53,-0,-1,0,0.94,8628,46,92,44,44,850,9.0,636,466,60,120.0,0,1,351,217,61,0,0,9,-1281,-26615,9,-5.59,,,,,,,,,,,,
147123,1564151494546,0,2.34,0.9,0.41,1.34,1.03,0.87,0.04,0.54,-0,0,-0,0.87,8724,53,92,44,51,850,9.0,641,464,60,120.0,0,1,383,247,61,0,0,9,1018,-23623,9,-5.59,,,,,,,,,,,,
147143,1564151494566,-0,2.33,0.9,0.41,1.34,1.03,0.68,0.04,0.46,0,2,-0,0.68,8844,58,92,44,56,849,9.0,639,466,60,120.0,0,1,400,287,61,0,0,9,1018,243,9,-5.59,44.680901,10.024454,0.0,173.8,0,0.0,-1,0.0,0.0,0,0.77,2.4524
147163,1564151494586,0,2.33,0.9,0.4,1.34,1.03,0.56,0.06,0.42,0,2,1,0.56,8941,61,92,44,59,849,9.0,642,464,60,121.0,0,1,400,321,102,0,0,9,1018,-9203,9,-5.59,,,,,,,,,,,,
147183,1564151494596,0,2.32,0.9,0.41,1.34,1.03,0.39,0.11,0.34,1,3,1,0.41,9071,61,92,44,62,850,9.0,645,465,60,120.0,0,1,401,341,102,0,0,9,1018,-899,9,-5.59,,,,,,,,,,,,
147203,1564151494616,0,2.33,0.9,0.41,1.34,1.04,0.32,0.07,0.24,1,4,1,0.33,9291,62,92,44,64,865,9.0,650,460,60,120.0,0,1,409,346,102,0,0,9,1018,-1818,9,-5.59,,,,,,,,,,,,
147223,1564151494636,1,2.32,0.9,0.41,1.34,1.03,0.3,-0.03,0.25,1,4,1,0.31,9479,62,92,44,65,897,9.0,648,467,60,120.0,0,1,414,354,102,0,0,9,1018,10408,9,-5.59,,,,,,,,,,,,
147243,1564151494656,0,2.32,0.9,0.41,1.33,1.04,0.37,0.07,0.3,1,3,1,0.37,9704,62,92,44,65,928,9.0,653,466,60,121.0,0,1,410,370,102,0,0,9,1018,17136,9,-5.59,44.680901,10.024454,0.0,173.8,0,0.0,-1,0.0,0.0,0,0.77,2.4541
147263,1564151494676,3,2.32,0.91,0.41,1.34,1.03,0.43,0.01,0.37,1,2,1,0.43,9968,62,92,44,65,959,9.0,656,463,60,121.0,0,1,403,393,141,0,0,9,1018,-32248,9,-5.59,,,,,,,,,,,,
147283,1564151494704,0,2.33,0.9,0.41,1.34,1.03,0.31,-0.0,0.37,1,4,0,0.31,10212,62,92,44,64,1015,9.0,653,467,60,119.0,0,1,431,393,141,0,0,9,1018,-8962,9,-5.59,,,,,,,,,,,,
147303,1564151494724,2,2.32,0.9,0.41,1.34,1.04,0.33,0.01,0.25,1,4,0,0.33,10581,62,92,44,64,1110,9.0,661,467,60,119.0,0,1,442,401,141,0,0,9,1018,-32504,9,-5.59,,,,,,,,,,,,
147323,1564151494744,3,2.33,0.9,0.41,1.34,1.04,0.39,-0.04,0.27,0,2,-0,0.4,10939,62,92,44,64,1197,9.0,666,465,60,120.0,0,1,450,403,141,0,0,9,1018,30208,9,-5.59,,,,,,,,,,,,
147343,1564151494764,1,2.33,0.9,0.41,1.33,1.03,0.37,-0.21,0.44,0,2,-1,0.43,11187,62,92,44,64,1260,9.0,668,467,60,120.0,0,1,434,407,141,0,0,8,1018,-16179,9,-5.59,44.680901,10.024454,0.0,173.8,0,0.0,-1,0.0,0.0,0,0.77,2.4557
147363,1564151494784,2,2.32,0.9,0.41,1.34,1.03,0.41,-0.06,0.26,0,-1,1,0.41,11474,63,92,44,63,1314,9.0,674,470,60,120.0,0,1,441,404,175,0,0,8,1018,-23055,9,-5.59,,,,,,,,,,,,
147383,1564151494804,3,2.32,0.9,0.4,1.34,1.03,0.47,0.13,0.43,0,-1,2,0.49,11762,63,92,44,62,1342,8.0,677,470,60,120.0,0,1,440,404,175,0,0,8,1018,-18357,8,-5.59,,,,,,,,,,,,
147403,1564151494810,3,2.32,0.91,0.4,1.34,1.03,0.58,0.21,0.58,0,-0,2,0.61,12057,63,92,44,62,1359,8.0,680,469,60,120.0,0,1,440,399,175,0,0,8,1018,-2580,8,-5.59,,,,,,,,,,,,
147423,1564151494830,4,2.32,0.9,0.41,1.34,1.03,0.64,0.39,0.67,0,-1,3,0.75,12319,63,92,44,61,1323,8.0,691,471,60,120.0,0,1,440,399,175,0,0,8,1018,-6006,8,-5.59,,,,,,,,,,,,
147443,1564151494850,0,2.33,0.9,0.4,1.34,1.03,0.68,0.48,0.63,-0,-2,3,0.83,12575,63,92,44,62,1281,8.0,692,473,60,120.0,0,1,398,399,175,0,0,8,1018,-2830,8,-5.59,44.680901,10.024454,0.0,173.8,0,0.0,-1,0.0,0.0,0,0.77,2.4574
147463,1564151494870,4,2.31,0.9,0.41,1.34,1.03,0.66,0.23,0.76,-0,-1,2,0.7,12895,63,92,44,61,1217,8.0,692,470,60,121.0,0,1,440,393,189,0,0,8,1018,-26562,8,-5.59,,,,,,,,,,,,
147483,1564151494898,2,2.32,0.9,0.41,1.34,1.04,0.64,0.3,0.62,-0,-2,3,0.7,13121,63,91,44,61,1153,8.0,698,465,60,121.0,0,1,440,393,189,0,0,8,1018,14342,8,-5.59,,,,,,,,,,,,
147503,1564151494918,1,2.33,0.9,0.41,1.34,1.03,0.75,0.13,0.72,-0,-3,1,0.76,13297,63,91,44,61,1126,8.0,690,462,60,120.0,0,1,375,393,189,0,0,8,1018,8010,8,-5.59,,,,,,,,,,,,
147523,1564151494938,-0,2.33,0.9,0.41,1.34,1.04,0.71,0.19,0.62,-0,-3,1,0.73,13547,64,91,44,62,1097,8.0,692,459,60,120.0,0,1,367,399,189,0,0,8,1018,-2560,8,-5.59,,,,,,,,,,,,
147543,1564151494958,1,2.32,0.9,0.4,1.34,1.04,0.74,0.35,0.45,-0,-4,3,0.82,13626,66,91,44,64,1043,8.0,696,474,60,119.0,0,1,358,411,189,0,0,8,1018,-25858,8,-5.59,44.680901,10.024454,0.0,173.8,0,0.0,-1,0.0,0.0,0,0.77,2.459
147563,1564151494978,1,2.33,0.9,0.41,1.34,1.03,0.69,0.39,0.43,-0,-4,3,0.79,13786,67,91,44,65,990,8.0,705,471,60,120.0,0,1,440,417,214,0,0,8,1018,1524,8,-5.59,,,,,,,,,,,,
147583,1564151494998,4,2.32,0.9,0.41,1.34,1.04,0.83,0.32,0.48,-0,-4,2,0.89,13696,67,91,44,66,964,8.0,714,460,60,120.0,0,1,340,423,214,0,0,8,1018,-4091,8,-5.59,,,,,,,,,,,,
147603,1564151494999,4,2.32,0.9,0.41,1.34,1.04,0.79,0.25,0.58,-0,-1,1,0.83,13756,67,91,44,67,937,8.0,701,466,60,120.0,0,1,440,423,214,0,0,8,1018,-4091,8,-5.59,,,,,,,,,,,,
147623,1564151495019,3,2.33,0.91,0.41,1.34,1.03,0.82,0.04,0.72,-1,-2,-0,0.82,13899,67,91,44,67,894,8.0,707,478,60,118.0,0,1,440,429,214,0,0,8,1018,-31066,8,-5.59,,,,,,,,,,,,
147643,1564151495039,2,2.32,0.91,0.41,1.34,1.04,0.86,-0.09,0.75,-1,-3,-1,0.87,13807,67,91,44,67,851,8.0,700,464,60,120.0,0,1,440,429,214,0,0,8,1018,-13580,8,-5.59,44.680901,10.024454,0.0,173.8,0,0.0,-1,0.0,0.0,0,0.77,2.4607
147663,1564151495059,3,2.32,0.9,0.41,1.34,1.03,0.8,-0.09,0.65,-1,-2,-1,0.8,13786,67,91,44,68,829,8.0,700,453,60,119.0,0,1,440,436,224,0,0,8,1018,-2830,8,-5.59,,,,,,,,,,,,
147683,1564151495079,3,2.32,0.91,0.41,1.35,1.04,0.83,-0.14,0.58,-1,-1,-1,0.85,13807,67,91,44,67,812,8.0,708,472,60,120.0,0,1,440,429,224,0,0,8,1018,-2314,8,-5.59,,,,,,,,,,,,
147703,1564151495109,3,2.32,0.91,0.41,1.34,1.04,0.75,-0.05,0.42,-1,-1,-2,0.76,13888,67,91,44,67,800,8.0,700,461,60,120.0,0,1,440,429,224,0,0,8,1018,-2830,8,-5.59,,,,,,,,,,,,
147723,1564151495129,0,2.33,0.9,0.41,1.34,1.04,0.77,0.06,0.38,-1,-2,-1,0.77,13847,68,91,44,68,787,8.0,710,457,60,120.0,0,1,277,436,224,0,0,8,1018,-2314,8,-5.59,,,,,,,,,,,,
147743,1564151495149,2,2.33,0.9,0.41,1.34,1.04,0.78,0.21,0.26,-1,-2,1,0.81,13786,68,91,44,68,788,8.0,701,477,60,121.0,0,1,268,436,224,0,0,8,1018,-2314,8,-5.59,44.680901,10.024454,0.0,173.8,0,0.0,-1,0.0,0.0,0,0.77,2.4624
147763,1564151495169,-1,2.33,0.9,0.41,1.34,1.03,0.73,0.28,0.29,-0,-2,1,0.78,13868,68,91,44,68,794,8.0,710,467,60,120.0,0,1,440,436,229,0,0,8,1018,-3344,8,-5.59,,,,,,,,,,,,
147783,1564151495197,4,2.32,0.9,0.41,1.35,1.03,0.85,0.25,0.34,-0,-3,0,0.89,13796,68,91,44,68,808,8.0,702,451,60,120.0,0,1,250,436,229,0,0,8,1018,-2830,8,-5.59,,,,,,,,,,,,
147803,1564151495217,4,2.32,0.9,0.41,1.34,1.04,0.81,0.26,0.42,0,0,1,0.85,13766,68,91,44,67,827,8.0,695,482,60,121.0,0,1,440,429,229,0,0,8,1018,-3344,8,-5.59,,,,,,,,,,,,
147823,1564151495237,3,2.33,0.9,0.42,1.34,1.04,0.85,0.1,0.58,-0,-1,1,0.86,13837,68,91,44,67,840,8.0,702,486,60,119.0,0,1,232,429,229,0,0,8,1018,-2358,8,-5.59,,,,,,,,,,,,
147843,1564151495257,1,2.32,0.9,0.42,1.34,1.03,0.9,-0.05,0.7,-0,-2,-1,0.91,13716,68,91,44,68,852,8.0,693,459,60,120.0,0,1,440,436,229,0,0,8,1018,-2918,8,-5.59,44.680901,10.024454,0.0,173.8,0,0.0,-1,0.0,0.0,0,0.77,2.4641
147863,1564151495277,2,2.32,0.91,0.41,1.34,1.04,0.86,-0.08,0.63,-0,-1,-1,0.86,13786,65,91,44,67,868,8.0,707,457,60,119.0,0,1,440,429,227,0,0,8,1018,-3344,8,-5.59,,,,,,,,,,,,
147883,1564151495305,4,2.32,0.9,0.41,1.35,1.04,0.88,-0.11,0.56,-1,-1,-1,0.89,13796,61,91,44,65,884,8.0,712,468,60,119.0,0,1,440,417,227,0,0,8,1018,-2314,8,-5.59,,,,,,,,,,,,
147903,1564151495325,5,2.32,0.91,0.42,1.34,1.04,0.79,-0.07,0.43,-0,-0,-1,0.79,13837,60,91,44,63,895,8.0,707,466,60,119.0,0,1,440,404,227,0,0,8,1018,-2830,8,-5.59,,,,,,,,,,,,
147923,1564151495345,5,2.32,0.91,0.42,1.35,1.04,0.78,0.06,0.36,-0,-1,-1,0.79,13807,60,91,44,62,899,8.0,711,460,60,119.0,0,1,187,399,227,0,0,8,1018,-13580,8,-5.59,,,,,,,,,,,,
147943,1564151495365,2,2.32,0.9,0.41,1.35,1.04,0.78,0.23,0.26,-0,-1,1,0.82,13706,60,91,44,62,896,8.0,700,483,60,119.0,0,1,178,399,227,0,0,8,1018,1524,8,-5.59,44.680901,10.024454,0.0,173.8,0,0.0,-1,0.0,0.0,0,0.77,2.4657
147963,1564151495385,2,2.32,0.91,0.42,1.34,1.04,0.77,0.23,0.28,-0,-3,1,0.8,13626,60,91,44,61,887,8.0,696,470,60,120.0,0,1,440,393,207,0,0,8,1018,-2560,8,-5.59,,,,,,,,,,,,
147983,1564151495393,2,2.32,0.91,0.41,1.35,1.03,0.87,0.12,0.42,-0,-4,0,0.88,13498,59,91,44,61,876,8.0,693,458,60,120.0,0,1,169,393,207,0,0,8,1018,204,8,-5.59,,,,,,,,,,,,
148003,1564151495413,2,2.32,0.91,0.41,1.34,1.04,0.79,0.06,0.42,-0,-2,-1,0.79,13528,59,91,44,60,863,8.0,698,461,60,119.0,0,1,434,385,207,0,0,8,1018,-13072,8,-5.59,,,,,,,,,,,,
148023,1564151495433,2,2.32,0.91,0.41,1.35,1.04,0.84,0.18,0.3,-1,-4,0,0.86,13450,51,90,44,58,849,8.0,701,468,60,119.0,0,1,127,372,207,0,0,8,1018,-13312,8,-5.59,,,,,,,,,,,,
148043,1564151495453,1,2.33,0.9,0.42,1.34,1.04,0.82,0.21,0.28,-1,-4,1,0.84,13431,44,91,44,55,833,8.0,697,478,60,120.0,0,1,405,352,207,0,0,8,1018,-12152,8,-5.59,44.680901,10.024454,0.0,173.8,0,0.0,-1,0.0,0.0,0,0.77,2.4674
148063,1564151495473,4,2.32,0.9,0.41,1.35,1.04,0.9,0.08,0.43,-1,-5,-0,0.9,13213,38,91,44,51,822,8.0,688,460,60,120.0,0,1,391,305,168,0,0,8,1018,6208,8,-5.59,,,,,,,,,,,,
148083,1564151495493,3,2.32,0.91,0.42,1.35,1.05,0.81,0.28,0.35,-0,-4,1,0.86,13038,35,91,44,48,819,8.0,700,460,60,120.0,0,1,382,264,168,0,0,8,1018,24,8,-5.59,,,,,,,,,,,,
148103,1564151495505,2,2.32,0.91,0.41,1.35,1.04,0.84,0.09,0.41,-0,0,-1,0.85,12816,35,91,44,47,816,8.0,693,472,60,120.0,0,1,54,251,168,0,0,8,1018,-3038,8,-5.59,,,,,,,,,,,,
148123,1564151495525,3,2.32,0.9,0.41,1.34,1.04,0.87,0.28,0.34,-0,0,1,0.92,12525,35,90,44,46,811,8.0,687,473,60,120.0,0,1,40,247,168,0,0,8,1018,-2345,8,-5.59,,,,,,,,,,,,
148143,1564151495545,1,2.31,0.91,0.41,1.34,1.03,0.89,0.39,0.34,-0,-1,1,0.97,12303,35,90,44,45,808,8.0,683,472,60,120.0,0,1,367,243,168,0,0,8,1018,-30207,8,-5.59,44.680901,10.024454,0.0,173.8,0,0.0,-1,0.0,0.0,0,0.77,2.469
148163,1564151495565,3,2.33,0.91,0.41,1.35,1.04,0.91,0.27,0.3,-1,-2,1,0.95,12073,35,91,44,44,806,8.0,671,470,60,120.0,0,1,361,243,112,0,0,8,1018,-10251,8,-5.59,,,,,,,,,,,,
148183,1564151495601,3,2.32,0.91,0.41,1.35,1.04,0.92,0.15,0.22,-1,-3,0,0.93,11844,35,90,44,44,807,8.0,685,470,60,121.0,0,1,9,237,112,0,0,8,1018,-1346,8,-5.59,,,,,,,,,,,,
