"Interval"|"ms"|0|0|1,"Utc"|"ms"|0|0|1,"FB_p"|"bar"|0|300|50,"Volant"|"F"|0.0|300.0|50,"xFR"|"mm"|0.0|5.0|50,"xRR"|"mm"|0.0|5.0|50,"xFL"|"mm"|0.0|5.0|50,"xRL"|"mm"|0.0|5.0|50,"AccelX"|"G"|-3.0|3.0|50,"AccelY"|"G"|-3.0|3.0|50,"AccelZ"|"G"|-3.0|3.0|50,"Yaw"|"Deg/Sec"|-120|120|50,"Pitch"|"Deg/Sec"|-120|120|50,"Roll"|"Deg/Sec"|-120|120|50,"Gsum"|"G"|0.0|3.0|50,"RPM"|""|0|14000|50,"TPS"|"%"|0|100|50,"WaterTemp"|"?C"|0|300|50,"AirTemp"|"?C"|-1000|1000|50,"MAP"|"KPa"|0|255|50,"Lambda"|""|0|1024|50,"WheelSpeed"|"MPH"|0.0|150.0|50,"OilPress"|"PSI"|0|150|50,"FuelPress"|"PSI"|0|150|50,"OilTemp"|"F"|0|300|50,"Battery"|"Volts"|0.0|20.0|50,"FuelCon"|"L/h"|-1000|1000|50,"Gear"|""|0|10|50,"Advance"|"Deg"|-360|360|50,"Injection"|"ms"|-1000|1000|50,"FuelCon"|"L/100km"|-1000|1000|50,"LC_But_Pres"|""|-1000|1000|50,"LC_Active"|""|-1000|1000|50,"RD_Speed"|""|-1000|1000|50,"RUD_Speed"|""|-1000|1000|50,"LD_Speed"|""|-1000|1000|50,"LUD_Speed"|""|-1000|1000|50,"Ana1"|"bar"|-1000.0|1000.0|50,"Latitude"|"Degrees"|-180.0|180.0|10,"Longitude"|"Degrees"|-180.0|180.0|10,"Speed"|"kph"|0.0|150.0|10,"Altitude"|"m"|0.0|4000.0|10,"LapCount"|""|0|0|10,"LapTime"|"Min"|0.0|0.0|10,"Sector"|""|0|0|10,"SectorTime"|"Min"|0.0|0.0|10,"ElapsedTime"|"Min"|0.0|0.0|10,"CurrentLap"|""|0|0|10,"Distance"|"km"|0.0|0.0|10,"SessionTime"|"Min"|0.0|0.0|10
182763,1564151530168,3,2.49,0.92,0.38,1.36,1.06,0.71,-0.58,0.71,14,2,19,0.92,6756,52,89,45,82,1175,480.0,512,466,60,122.0,246,1,370,467,118,0,0,505,2211,-22519,479,-5.59,,,,,,,,,,,,
182783,1564151530202,0,2.49,0.92,0.38,1.36,1.06,0.68,-0.48,0.67,14,5,19,0.83,6808,51,89,45,82,1151,486.0,517,461,60,121.0,246,1,372,468,118,0,0,494,12552,-21872,486,-5.59,,,,,,,,,,,,
182803,1564151530222,3,2.49,0.92,0.38,1.36,1.06,0.77,-0.56,0.72,13,1,19,0.95,6803,48,89,45,81,1141,489.0,515,464,60,122.0,246,1,372,461,118,0,0,501,-3210,10408,489,-5.59,,,,,,,,,,,,
182823,1564151530242,0,2.49,0.92,0.37,1.36,1.05,0.71,-0.51,0.65,14,2,20,0.88,6810,48,89,45,81,1135,489.0,514,463,60,122.0,246,1,372,461,118,0,0,505,243,-32248,489,-5.59,,,,,,,,,,,,
182843,1564151530262,0,2.49,0.93,0.37,1.37,1.06,0.72,-0.56,0.71,14,2,19,0.91,6870,48,89,45,81,1116,491.0,518,468,60,121.0,246,1,374,461,118,0,0,507,8488,2109,491,-5.59,44.681366,10.024937,46.73,173.6,0,0.0,-1,0.0,0.0,0,1.04,3.0474
182863,1564151530282,1,2.5,0.93,0.37,1.37,1.05,0.77,-0.57,0.64,14,2,19,0.96,6916,48,89,45,80,1095,493.0,517,462,60,123.0,241,1,377,457,119,0,0,513,3576,-4054,494,-5.59,,,,,,,,,,,,
182883,1564151530298,-1,2.5,0.92,0.38,1.36,1.06,0.67,-0.56,0.63,14,5,19,0.87,6947,47,89,44,79,1079,496.0,522,462,60,121.0,241,1,378,457,119,0,0,514,-23367,16383,496,-5.59,,,,,,,,,,,,
182903,1564151530318,3,2.49,0.93,0.38,1.36,1.06,0.76,-0.65,0.71,13,2,19,1.0,6965,47,89,44,80,1064,496.0,523,463,60,121.0,241,1,378,450,119,0,0,509,10305,10994,496,-5.59,,,,,,,,,,,,
182923,1564151530338,1,2.5,0.93,0.37,1.37,1.05,0.72,-0.51,0.59,13,2,20,0.88,7011,47,89,44,79,1034,503.0,526,462,60,123.0,241,1,380,451,119,0,0,513,10305,-3482,503,-5.59,,,,,,,,,,,,
182943,1564151530358,-1,2.51,0.93,0.37,1.36,1.06,0.65,-0.55,0.71,14,2,19,0.85,7027,45,89,44,79,999,502.0,541,462,60,120.0,241,1,381,451,119,0,0,523,32033,10408,502,-5.59,44.681362,10.024951,47.68,173.7,0,0.0,-1,0.0,0.0,0,1.04,3.0491
182963,1564151530378,0,2.5,0.93,0.38,1.37,1.06,0.78,-0.53,0.78,13,0,19,0.95,7056,45,89,44,78,973,504.0,532,464,60,122.0,235,1,384,444,118,0,0,529,-6441,-8187,506,-5.59,,,,,,,,,,,,
182983,1564151530398,2,2.51,0.92,0.38,1.36,1.06,0.73,-0.53,0.7,13,2,20,0.9,7140,44,89,44,77,953,504.0,535,465,60,122.0,235,1,388,438,118,0,0,523,3580,6274,506,-5.59,,,,,,,,,,,,
183003,1564151530408,0,2.51,0.93,0.37,1.36,1.06,0.63,-0.51,0.64,14,5,20,0.81,7129,44,89,44,77,929,507.0,537,461,60,120.0,235,1,388,438,118,0,0,534,505,-32248,508,-5.59,,,,,,,,,,,,
183023,1564151530428,0,2.51,0.93,0.38,1.37,1.06,0.62,-0.55,0.77,15,4,20,0.83,7189,44,89,44,77,903,510.0,536,466,60,121.0,235,1,391,438,118,0,0,532,-32768,-9072,513,-5.59,,,,,,,,,,,,
183043,1564151530448,0,2.5,0.93,0.38,1.36,1.06,0.76,-0.63,0.82,14,1,20,0.99,7217,44,89,44,76,888,515.0,551,464,60,121.0,235,1,393,431,118,0,0,531,-6528,6274,513,-5.59,44.681354,10.024965,48.86,173.7,0,0.0,-1,0.0,0.0,0,1.04,3.0507
183063,1564151530468,1,2.5,0.93,0.38,1.37,1.05,0.79,-0.58,0.79,14,1,20,0.98,7270,44,89,44,76,882,515.0,541,460,60,122.0,229,1,396,418,118,0,0,539,248,2104,516,-5.59,,,,,,,,,,,,
183083,1564151530506,3,2.49,0.92,0.38,1.36,1.05,0.69,-0.6,0.74,15,3,19,0.92,7338,44,89,44,75,880,516.0,543,465,60,123.0,229,1,402,418,118,0,0,527,771,1779,516,-5.59,,,,,,,,,,,,
183103,1564151530526,3,2.51,0.93,0.37,1.37,1.06,0.64,-0.55,0.6,15,4,20,0.84,7307,43,89,44,74,879,519.0,546,462,60,123.0,229,1,401,405,118,0,0,545,-9216,1779,521,-5.59,,,,,,,,,,,,
183123,1564151530546,1,2.51,0.93,0.37,1.37,1.06,0.55,-0.45,0.57,16,5,20,0.71,7335,42,89,44,73,880,522.0,552,459,60,121.0,229,1,405,405,118,0,0,537,-22519,14504,522,-5.59,,,,,,,,,,,,
183143,1564151530566,1,2.51,0.92,0.38,1.36,1.06,0.5,-0.43,0.61,17,3,19,0.65,7324,41,89,44,73,884,524.0,552,464,60,121.0,229,1,404,392,118,0,0,538,15661,1779,526,-5.59,44.681343,10.024981,49.82,173.7,0,0.0,-1,0.0,0.0,0,1.04,3.0524
183163,1564151530586,-1,2.51,0.93,0.38,1.36,1.06,0.62,-0.47,0.7,17,1,18,0.77,7373,38,89,44,71,889,525.0,554,461,60,121.0,200,1,409,381,105,0,0,553,-32248,-8962,528,-5.59,,,,,,,,,,,,
183183,1564151530596,-1,2.51,0.93,0.38,1.36,1.06,0.72,-0.5,0.75,17,0,19,0.88,7393,36,89,44,70,894,527.0,557,465,60,121.0,200,1,412,356,105,0,0,546,-32248,2524,527,-5.59,,,,,,,,,,,,
183203,1564151530616,-0,2.5,0.93,0.38,1.37,1.06,0.82,-0.59,0.86,17,0,18,1.01,7443,34,89,44,68,898,530.0,558,461,60,122.0,200,1,417,345,105,0,0,551,-28648,2104,531,-5.59,,,,,,,,,,,,
183223,1564151530636,-0,2.51,0.93,0.38,1.36,1.06,0.94,-0.66,0.91,16,-3,20,1.15,7443,33,89,44,67,898,531.0,564,467,60,121.0,200,1,420,327,105,0,0,563,-21872,-22359,530,-5.59,,,,,,,,,,,,
183243,1564151530656,-1,2.51,0.93,0.38,1.37,1.06,1.05,-0.67,1.01,15,-5,19,1.24,7533,33,89,44,65,897,533.0,564,463,60,122.0,200,1,429,318,105,0,0,550,-3414,2104,533,-5.59,44.681339,10.024994,51.14,173.7,0,0.0,-1,0.0,0.0,0,1.04,3.054
183263,1564151530676,-0,2.52,0.92,0.38,1.36,1.06,1.01,-0.65,1.1,16,-5,19,1.2,7530,33,89,44,64,892,536.0,569,467,60,121.0,166,1,431,318,89,0,0,546,-3856,-32248,536,-5.59,,,,,,,,,,,,
183283,1564151530696,0,2.5,0.93,0.38,1.37,1.06,1.02,-0.72,1.13,16,-4,19,1.25,7536,33,89,44,63,887,538.0,568,463,60,121.0,166,1,433,306,89,0,0,553,-14,-9072,538,-5.59,,,,,,,,,,,,
183303,1564151530710,-0,2.51,0.93,0.38,1.37,1.06,1.02,-0.77,1.21,17,-5,18,1.27,7455,33,89,44,63,882,541.0,568,469,60,121.0,166,1,431,304,89,0,0,551,17136,-22263,541,-5.59,,,,,,,,,,,,
183323,1564151530730,-1,2.52,0.92,0.39,1.37,1.05,1.12,-0.76,1.23,16,-5,18,1.36,7500,33,89,44,63,876,540.0,562,464,60,122.0,166,1,433,305,89,0,0,558,-14,2211,541,-5.59,,,,,,,,,,,,
183343,1564151530750,-0,2.51,0.92,0.38,1.37,1.06,1.17,-0.77,1.24,16,-5,18,1.4,7536,33,89,44,62,866,543.0,566,464,60,121.0,166,1,435,299,89,0,0,551,16383,2216,543,-5.59,44.681328,10.025007,52.2,173.7,0,0.0,-1,0.0,0.0,0,1.05,3.0557
183363,1564151530770,-1,2.52,0.93,0.39,1.36,1.07,1.16,-0.84,1.28,16,-6,22,1.43,7615,33,89,44,61,857,544.0,570,461,60,122.0,154,1,439,294,84,0,0,561,-8187,-18032,544,-5.59,,,,,,,,,,,,
183383,1564151530806,1,2.52,0.93,0.39,1.36,1.06,1.2,-0.87,1.23,16,-7,22,1.48,7631,33,89,44,61,852,542.0,572,466,60,121.0,154,1,440,294,84,0,0,556,-8187,-18032,542,-5.59,,,,,,,,,,,,
183403,1564151530826,2,2.51,0.93,0.38,1.37,1.06,1.18,-0.89,1.22,16,-6,23,1.48,7656,33,89,44,60,846,544.0,575,461,60,123.0,154,1,433,289,84,0,0,567,-9212,-9072,544,-5.59,,,,,,,,,,,,
183423,1564151530846,3,2.51,0.93,0.38,1.37,1.06,1.15,-0.86,1.13,16,-5,23,1.43,7625,33,89,44,59,834,549.0,582,464,60,122.0,154,1,425,289,84,0,0,567,-22519,-2934,547,-5.59,,,,,,,,,,,,
183443,1564151530866,1,2.52,0.93,0.39,1.37,1.06,1.09,-0.82,1.0,16,-4,23,1.36,7662,33,89,44,59,822,549.0,582,462,60,123.0,154,1,426,283,84,0,0,566,-9212,-30159,547,-5.59,44.68132,10.025021,52.79,173.7,0,0.0,-1,0.0,0.0,0,1.05,3.0574
183463,1564151530886,1,2.53,0.93,0.39,1.37,1.06,1.01,-0.82,0.88,16,-2,25,1.3,7631,33,89,44,60,816,549.0,582,464,60,122.0,151,1,432,283,83,0,0,565,10408,-23623,549,-5.59,,,,,,,,,,,,
183483,1564151530900,1,2.53,0.93,0.38,1.36,1.07,0.89,-0.83,0.79,17,-1,23,1.21,7662,33,89,44,59,809,552.0,578,463,60,123.0,151,1,426,283,83,0,0,567,-32248,-18032,552,-5.59,,,,,,,,,,,,
183503,1564151530920,0,2.53,0.93,0.38,1.37,1.06,0.85,-0.87,0.74,17,0,23,1.22,7662,33,89,44,59,805,552.0,580,467,60,123.0,151,1,427,283,83,0,0,571,10408,12552,551,-5.59,,,,,,,,,,,,
183523,1564151530940,-0,2.53,0.93,0.39,1.36,1.07,0.84,-0.86,0.85,17,0,24,1.2,7716,33,89,44,59,801,554.0,582,465,60,123.0,151,1,427,284,83,0,0,565,6274,-29984,554,-5.59,,,,,,,,,,,,
183543,1564151530960,1,2.53,0.93,0.39,1.36,1.06,0.86,-0.79,0.96,17,-0,23,1.17,7754,33,89,44,58,804,552.0,585,463,60,122.0,151,1,420,284,83,0,0,578,2088,-8188,552,-5.59,44.681309,10.025034,53.54,173.7,0,0.0,-1,0.0,0.0,0,1.05,3.0591
183563,1564151530980,1,2.54,0.93,0.39,1.37,1.06,0.87,-0.8,0.96,17,-0,24,1.18,7760,33,89,44,58,806,552.0,585,461,60,123.0,147,1,420,278,81,0,0,563,2088,-2934,552,-5.59,,,,,,,,,,,,
183583,1564151531000,2,2.54,0.93,0.39,1.37,1.06,0.84,-0.8,0.79,18,-0,25,1.16,7805,32,89,44,57,806,556.0,583,463,60,123.0,147,1,413,274,81,0,0,563,-22519,-2934,555,-5.59,,,,,,,,,,,,
183603,1564151531007,2,2.54,0.93,0.38,1.37,1.06,0.81,-0.79,0.72,19,1,25,1.13,7738,29,89,44,57,805,556.0,587,465,60,122.0,147,1,412,273,81,0,0,582,-28648,-2934,557,-5.59,,,,,,,,,,,,
183623,1564151531027,0,2.53,0.93,0.38,1.37,1.06,0.78,-0.81,0.71,19,1,25,1.12,7738,27,89,44,56,802,557.0,578,463,60,122.0,147,1,405,262,81,0,0,579,2524,1760,557,-5.59,,,,,,,,,,,,
183643,1564151531047,-0,2.54,0.92,0.38,1.36,1.07,0.77,-0.84,0.8,20,2,24,1.14,7763,27,89,44,54,798,560.0,577,466,60,122.0,147,1,390,257,81,0,0,573,-32248,243,557,-5.59,44.681301,10.025045,54.07,173.6,0,0.0,-1,0.0,0.0,0,1.05,3.0607
183663,1564151531067,-1,2.54,0.93,0.38,1.37,1.06,0.8,-0.87,0.88,20,-0,25,1.18,7747,26,89,44,54,797,560.0,585,466,60,122.0,132,1,390,257,74,0,0,573,2524,774,560,-5.59,,,,,,,,,,,,
183683,1564151531107,1,2.54,0.93,0.38,1.37,1.06,0.82,-0.85,0.86,20,-0,25,1.18,7805,26,89,44,53,796,560.0,591,463,60,123.0,132,1,387,251,74,0,0,562,-22519,-3210,560,-5.59,,,,,,,,,,,,
183703,1564151531127,1,2.54,0.93,0.39,1.36,1.07,0.77,-0.86,0.82,20,1,25,1.15,7760,26,89,44,52,798,563.0,591,463,60,123.0,132,1,384,246,74,0,0,574,-22519,-3210,560,-5.59,,,,,,,,,,,,
183723,1564151531147,3,2.54,0.92,0.39,1.36,1.07,0.71,-0.86,0.69,21,2,25,1.12,7805,26,89,44,52,800,562.0,592,466,60,123.0,132,1,384,240,74,0,0,572,-22519,8488,563,-5.59,,,,,,,,,,,,
183743,1564151531167,-1,2.54,0.92,0.39,1.36,1.06,0.72,-0.78,0.79,21,1,25,1.06,7786,26,89,44,51,801,564.0,587,464,60,123.0,132,1,381,240,74,0,0,568,14504,10432,564,-5.59,44.68129,10.025057,54.43,173.6,0,0.0,-1,0.0,0.0,0,1.05,3.0624
183763,1564151531187,1,2.53,0.93,0.39,1.37,1.06,0.76,-0.78,0.82,21,1,25,1.09,7725,26,89,44,50,801,564.0,593,461,60,122.0,122,1,378,234,69,0,0,572,-22519,259,564,-5.59,,,,,,,,,,,,
183783,1564151531197,1,2.55,0.92,0.39,1.36,1.07,0.83,-0.85,0.84,21,0,26,1.18,7744,26,89,44,50,799,561.0,590,462,60,123.0,122,1,378,234,69,0,0,563,-22519,774,563,-5.59,,,,,,,,,,,,
183803,1564151531217,0,2.55,0.93,0.38,1.37,1.06,0.87,-0.87,0.78,21,-0,26,1.23,7722,26,89,44,50,796,564.0,590,463,60,124.0,122,1,378,234,69,0,0,566,14504,1267,564,-5.59,,,,,,,,,,,,
183823,1564151531237,3,2.54,0.92,0.39,1.37,1.06,0.84,-0.93,0.67,21,0,27,1.25,7763,26,89,44,50,791,564.0,585,463,60,123.0,122,1,378,234,69,0,0,561,-22519,243,564,-5.59,,,,,,,,,,,,
183843,1564151531257,3,2.54,0.93,0.38,1.37,1.06,0.76,-0.91,0.65,22,1,26,1.18,7741,26,89,44,50,786,564.0,589,463,60,123.0,122,1,378,234,69,0,0,564,-32248,15649,564,-5.59,44.681278,10.025067,54.68,173.6,0,0.0,-1,0.0,0.0,0,1.05,3.064
183863,1564151531277,-1,2.54,0.93,0.38,1.37,1.06,0.78,-0.94,0.68,22,1,26,1.22,7741,26,89,44,50,782,564.0,587,467,60,122.0,120,1,378,234,68,0,0,577,-22519,1,564,-5.59,,,,,,,,,,,,
183883,1564151531293,-1,2.54,0.93,0.39,1.36,1.06,0.85,-0.91,0.69,22,-1,27,1.24,7828,26,89,44,50,780,565.0,588,466,60,121.0,120,1,378,234,68,0,0,560,2524,243,564,-5.59,,,,,,,,,,,,
183903,1564151531313,0,2.55,0.93,0.39,1.36,1.07,0.91,-0.9,0.61,21,1,28,1.28,7786,26,89,44,49,779,566.0,592,465,60,122.0,120,1,375,157,68,0,0,560,-22519,1,563,-5.59,,,,,,,,,,,,
183923,1564151531333,2,2.54,0.93,0.39,1.36,1.06,0.89,-0.94,0.46,22,2,29,1.3,7802,26,89,44,49,777,565.0,595,460,60,123.0,120,1,375,229,68,0,0,565,2104,15649,565,-5.59,,,,,,,,,,,,
183943,1564151531353,3,2.54,0.93,0.38,1.36,1.06,0.88,-0.93,0.37,22,2,29,1.27,7728,26,89,44,49,777,565.0,594,466,60,124.0,120,1,375,229,68,0,0,565,6274,15649,566,-5.59,44.681267,10.025077,54.97,173.7,0,0.0,-1,0.0,0.0,0,1.05,3.0657
183963,1564151531373,-2,2.55,0.93,0.39,1.36,1.07,0.84,-0.96,0.34,23,2,29,1.28,7754,26,89,44,49,778,564.0,601,466,60,122.0,118,1,375,229,67,0,0,578,6274,-16384,564,-5.59,,,,,,,,,,,,
183983,1564151531407,-0,2.54,0.93,0.39,1.37,1.07,0.85,-0.99,0.37,23,3,29,1.31,7731,26,89,43,49,780,564.0,596,466,60,122.0,118,1,375,230,67,0,0,566,-22519,30208,564,-5.59,,,,,,,,,,,,
184003,1564151531427,-1,2.55,0.93,0.39,1.37,1.06,0.88,-1.02,0.45,23,2,30,1.35,7793,26,89,43,49,783,563.0,594,466,60,123.0,118,1,375,230,67,0,0,557,-22519,259,564,-5.59,,,,,,,,,,,,
184023,1564151531447,2,2.55,0.92,0.38,1.37,1.07,0.91,-0.98,0.49,23,1,28,1.34,7805,26,89,43,48,786,565.0,592,464,60,123.0,118,1,372,230,67,0,0,567,6274,8488,565,-5.59,,,,,,,,,,,,
184043,1564151531467,3,2.55,0.93,0.39,1.36,1.06,0.87,-0.95,0.44,23,2,28,1.29,7773,25,90,43,48,789,565.0,603,463,60,123.0,118,1,372,224,67,0,0,561,14504,8488,565,-5.59,44.681255,10.025085,54.82,173.7,0,0.0,-1,0.0,0.0,0,1.06,3.0674
184063,1564151531487,-3,2.54,0.93,0.38,1.37,1.06,0.79,-0.92,0.39,24,3,30,1.21,7776,25,90,43,48,793,566.0,589,465,60,123.0,119,1,372,230,67,0,0,580,14504,10432,565,-5.59,,,,,,,,,,,,
184083,1564151531503,-1,2.54,0.93,0.39,1.36,1.07,0.82,-0.91,0.4,24,3,29,1.22,7822,25,89,43,49,798,566.0,602,467,60,122.0,119,1,375,224,67,0,0,566,-32248,10432,566,-5.59,,,,,,,,,,,,
184103,1564151531523,0,2.54,0.92,0.39,1.36,1.07,0.87,-0.94,0.46,24,2,29,1.28,7812,25,89,43,49,801,566.0,592,464,60,122.0,119,1,375,224,67,0,0,565,14504,259,566,-5.59,,,,,,,,,,,,
184123,1564151531543,0,2.55,0.93,0.38,1.37,1.06,0.9,-0.95,0.43,24,1,30,1.3,7855,25,89,43,48,802,568.0,591,466,60,124.0,119,1,372,151,67,0,0,565,-22519,1,568,-5.59,,,,,,,,,,,,
184143,1564151531563,2,2.55,0.93,0.38,1.37,1.06,0.83,-0.94,0.41,24,2,29,1.26,7819,25,90,43,48,804,564.0,596,463,60,123.0,119,1,372,224,67,0,0,573,-28648,-16384,564,-5.59,44.681244,10.025093,55.05,173.7,0,0.0,-1,0.0,0.0,0,1.06,3.0691
184163,1564151531583,-0,2.54,0.92,0.38,1.36,1.06,0.82,-0.95,0.41,25,3,29,1.25,7819,25,89,43,48,808,564.0,588,465,60,122.0,117,1,372,224,66,0,0,569,6274,-25872,566,-5.59,,,,,,,,,,,,
184183,1564151531593,-0,2.54,0.93,0.38,1.36,1.07,0.81,-1.01,0.48,25,2,29,1.3,7773,22,90,43,48,812,565.0,595,465,60,122.0,117,1,372,219,66,0,0,571,-30064,243,565,-5.59,,,,,,,,,,,,
184203,1564151531613,1,2.54,0.93,0.38,1.36,1.06,0.86,-1.02,0.53,24,1,28,1.33,7770,22,89,43,47,814,565.0,597,465,60,122.0,117,1,370,219,66,0,0,570,14504,-16384,565,-5.59,,,,,,,,,,,,
184223,1564151531633,1,2.54,0.92,0.38,1.36,1.06,0.88,-1.01,0.54,23,-0,28,1.34,7799,21,89,43,46,817,566.0,592,464,60,123.0,117,1,362,217,66,0,0,567,2104,1,564,-5.59,,,,,,,,,,,,
184243,1564151531653,2,2.54,0.93,0.38,1.36,1.06,0.78,-1.01,0.47,24,1,28,1.27,7744,21,90,43,45,820,567.0,597,464,60,123.0,117,1,355,217,66,0,0,560,6274,1,565,-5.59,44.681229,10.0251,55.23,173.7,0,0.0,-1,0.0,0.0,0,1.06,3.0707
184263,1564151531673,3,2.55,0.92,0.38,1.36,1.07,0.74,-1.0,0.43,24,2,30,1.24,7738,21,90,43,45,822,567.0,597,465,60,123.0,111,1,355,215,63,0,0,563,-28648,-25872,567,-5.59,,,,,,,,,,,,
184283,1564151531693,-1,2.54,0.92,0.38,1.36,1.07,0.77,-0.96,0.43,24,2,29,1.23,7690,21,90,43,45,822,567.0,592,465,60,123.0,111,1,355,213,63,0,0,563,6274,-16384,568,-5.59,,,,,,,,,,,,
184303,1564151531705,-1,2.54,0.93,0.38,1.36,1.06,0.82,-0.94,0.41,24,2,29,1.25,7697,21,89,43,45,822,565.0,593,463,60,123.0,111,1,355,215,63,0,0,555,14504,243,565,-5.59,,,,,,,,,,,,
184323,1564151531725,-1,2.54,0.93,0.38,1.37,1.06,0.85,-0.99,0.48,24,1,30,1.31,7719,21,90,43,45,821,569.0,585,468,60,122.0,111,1,355,215,63,0,0,553,-22519,10432,569,-5.59,,,,,,,,,,,,
184343,1564151531745,-0,2.53,0.92,0.38,1.36,1.06,0.89,-1.01,0.51,24,-1,31,1.35,7703,21,90,43,45,820,568.0,592,466,60,122.0,111,1,355,215,63,0,0,553,-22519,259,568,-5.59,44.681213,10.025105,55.07,173.7,0,0.0,-1,0.0,0.0,0,1.06,3.0724
184363,1564151531765,1,2.53,0.92,0.38,1.36,1.06,0.91,-1.0,0.54,24,-1,30,1.35,7722,21,90,43,44,819,567.0,583,465,60,123.0,109,1,347,213,62,0,0,554,14504,-16384,567,-5.59,,,,,,,,,,,,
184383,1564151531803,3,2.54,0.93,0.38,1.36,1.07,0.86,-0.97,0.51,24,-1,29,1.3,7665,18,90,43,44,818,564.0,580,465,60,123.0,109,1,347,213,62,0,0,554,2104,30208,564,-5.59,,,,,,,,,,,,
184403,1564151531823,1,2.54,0.93,0.38,1.37,1.06,0.86,-0.95,0.45,24,0,31,1.28,7656,16,90,43,42,815,566.0,575,462,60,124.0,109,1,332,212,62,0,0,553,14504,-1894,566,-5.59,,,,,,,,,,,,
184423,1564151531843,3,2.53,0.92,0.38,1.37,1.06,0.8,-0.89,0.42,25,2,31,1.2,7609,15,90,43,42,811,563.0,577,465,60,124.0,109,1,332,210,62,0,0,549,-22519,-3210,563,-5.59,,,,,,,,,,,,
184443,1564151531863,2,2.52,0.93,0.38,1.36,1.06,0.73,-0.91,0.37,25,3,30,1.17,7563,15,90,43,41,809,566.0,575,463,60,123.0,109,1,325,208,62,0,0,547,-28648,-3210,564,-5.59,44.681202,10.025107,55.59,173.7,0,0.0,-1,0.0,0.0,0,1.06,3.074
184463,1564151531883,2,2.53,0.93,0.38,1.36,1.06,0.71,-0.96,0.25,25,4,32,1.19,7467,15,90,43,40,806,563.0,567,462,60,123.0,102,1,317,205,58,0,0,543,-28648,1,563,-5.59,,,,,,,,,,,,
184483,1564151531895,3,2.53,0.92,0.37,1.36,1.06,0.67,-0.9,0.22,26,4,33,1.12,7419,15,90,43,39,801,564.0,565,464,60,123.0,102,1,310,204,58,0,0,542,2524,-25872,564,-5.59,,,,,,,,,,,,
184503,1564151531915,1,2.53,0.93,0.38,1.36,1.06,0.63,-0.84,0.16,26,5,32,1.05,7358,15,90,43,39,797,564.0,561,465,60,123.0,102,1,310,204,58,0,0,544,2524,-3210,564,-5.59,,,,,,,,,,,,
184523,1564151531935,1,2.53,0.93,0.38,1.35,1.06,0.62,-0.87,0.18,26,5,31,1.07,7309,15,90,43,39,794,563.0,558,463,60,123.0,102,1,310,204,58,0,0,541,2524,1267,563,-5.59,,,,,,,,,,,,
184543,1564151531955,-0,2.53,0.92,0.38,1.36,1.06,0.66,-0.91,0.18,25,5,32,1.12,7244,15,90,43,39,792,563.0,563,465,60,123.0,102,1,310,204,58,0,0,540,10408,774,563,-5.59,44.681187,10.025109,55.29,173.8,0,0.0,-1,0.0,0.0,0,1.06,3.0757
184563,1564151531975,0,2.53,0.92,0.38,1.37,1.06,0.67,-0.95,0.24,25,5,32,1.17,7214,15,89,43,39,791,560.0,555,463,60,122.0,98,1,310,204,55,0,0,546,6274,774,558,-5.59,,,,,,,,,,,,
184583,1564151531995,-2,2.53,0.92,0.38,1.37,1.06,0.74,-1.0,0.34,25,1,32,1.25,7186,15,90,43,39,790,558.0,553,465,60,122.0,98,1,310,204,55,0,0,540,6274,1780,557,-5.59,,,,,,,,,,,,
184603,1564151532006,3,2.52,0.93,0.38,1.37,1.07,0.8,-0.93,0.31,25,1,31,1.23,7131,15,90,43,39,790,558.0,556,462,60,123.0,98,1,310,204,55,0,0,537,-28648,1760,558,-5.59,,,,,,,,,,,,
184623,1564151532026,2,2.51,0.93,0.38,1.37,1.06,0.77,-0.95,0.25,25,2,30,1.23,7222,15,90,43,39,791,556.0,551,466,60,123.0,98,1,310,204,55,0,0,528,2088,6273,556,-5.59,,,,,,,,,,,,
184643,1564151532046,2,2.51,0.93,0.38,1.37,1.06,0.76,-0.96,0.28,24,2,31,1.22,7332,15,90,43,39,794,554.0,555,463,60,124.0,98,1,310,204,55,0,0,516,1248,2211,554,-5.59,44.681175,10.02511,54.97,173.8,0,0.0,-1,0.0,0.0,0,1.07,3.0774
184663,1564151532066,0,2.52,0.93,0.38,1.37,1.06,0.79,-0.96,0.34,24,1,31,1.24,7464,15,90,43,39,797,554.0,562,464,60,123.0,102,1,310,204,57,0,0,515,-8187,-32504,554,-5.59,,,,,,,,,,,,
184683,1564151532102,1,2.52,0.92,0.39,1.36,1.06,0.79,-1.0,0.41,24,1,31,1.28,7467,15,90,43,38,800,553.0,561,464,60,123.0,102,1,307,204,57,0,0,521,-8187,-28648,553,-5.59,,,,,,,,,,,,
184703,1564151532122,-0,2.52,0.92,0.38,1.36,1.07,0.87,-0.99,0.49,23,-1,31,1.32,7476,15,90,43,38,803,550.0,557,465,60,123.0,102,1,307,199,57,0,0,524,-8187,-28648,549,-5.59,,,,,,,,,,,,
184723,1564151532142,0,2.51,0.92,0.38,1.37,1.06,0.96,-1.03,0.55,23,-2,30,1.41,7378,15,90,43,38,802,551.0,563,467,60,121.0,102,1,307,199,57,0,0,529,15679,-22359,550,-5.59,,,,,,,,,,,,
184743,1564151532162,-0,2.51,0.93,0.38,1.37,1.06,0.99,-1.05,0.63,23,-1,30,1.45,7370,15,90,43,38,801,549.0,552,465,60,122.0,102,1,307,199,57,0,0,529,16383,-22359,549,-5.59,44.68116,10.02511,54.59,173.8,0,0.0,-1,0.0,0.0,0,1.07,3.0791
184763,1564151532182,-1,2.51,0.92,0.38,1.37,1.06,1.06,-1.09,0.74,22,-3,30,1.52,7304,15,90,43,38,798,549.0,553,464,60,121.0,100,1,307,199,55,0,0,526,16383,-9072,549,-5.59,,,,,,,,,,,,
184783,1564151532196,-0,2.51,0.92,0.38,1.36,1.06,1.1,-1.05,0.75,22,-4,28,1.52,7312,15,90,43,38,795,547.0,544,463,60,123.0,100,1,307,199,55,0,0,525,-3482,-23623,547,-5.59,,,,,,,,,,,,
184803,1564151532216,2,2.51,0.93,0.38,1.37,1.06,1.06,-1.04,0.64,22,-2,29,1.49,7341,15,90,43,38,790,545.0,551,465,60,121.0,100,1,307,199,55,0,0,523,-14,-22263,543,-5.59,,,,,,,,,,,,
184823,1564151532236,3,2.5,0.93,0.38,1.37,1.06,1.03,-1.0,0.52,21,-0,31,1.43,7324,15,90,43,38,785,544.0,557,465,60,123.0,100,1,307,199,55,0,0,522,-3482,-22263,544,-5.59,,,,,,,,,,,,
184843,1564151532256,3,2.5,0.93,0.38,1.37,1.06,0.99,-0.93,0.5,22,0,32,1.35,7355,15,90,43,38,782,541.0,558,463,60,122.0,100,1,307,199,55,0,0,524,-3856,-32248,541,-5.59,44.681145,10.025109,53.92,173.8,0,0.0,-1,0.0,0.0,0,1.07,3.0807
184863,1564151532276,1,2.51,0.93,0.37,1.36,1.06,0.9,-0.89,0.51,22,1,30,1.27,7312,15,90,43,38,781,542.0,561,463,60,123.0,101,1,307,199,55,0,0,520,26178,2524,542,-5.59,,,,,,,,,,,,
184883,1564151532296,-0,2.51,0.93,0.38,1.36,1.07,0.82,-0.9,0.43,22,0,28,1.22,7315,15,90,43,38,782,541.0,557,465,60,121.0,101,1,307,199,55,0,0,521,-4054,-22519,541,-5.59,,,,,,,,,,,,
184903,1564151532310,-1,2.51,0.92,0.38,1.36,1.07,0.89,-0.94,0.44,21,0,28,1.3,7273,15,90,43,38,783,539.0,561,466,60,121.0,101,1,307,204,55,0,0,524,-3414,-28648,539,-5.59,,,,,,,,,,,,
184923,1564151532330,-0,2.49,0.93,0.38,1.36,1.06,0.92,-0.96,0.56,21,-0,29,1.33,7264,15,90,43,38,786,537.0,550,464,60,120.0,101,1,307,199,55,0,0,523,-4054,-28648,536,-5.59,,,,,,,,,,,,
184943,1564151532350,-2,2.5,0.93,0.38,1.37,1.06,0.94,-0.98,0.63,20,-1,30,1.36,7259,15,90,43,38,788,538.0,551,467,60,123.0,101,1,307,199,55,0,0,523,10994,6274,538,-5.59,44.681133,10.025105,53.29,173.8,0,0.0,-1,0.0,0.0,0,1.07,3.0824
184963,1564151532370,-0,2.48,0.93,0.38,1.37,1.06,0.92,-0.92,0.56,20,-0,29,1.3,7145,14,90,43,38,792,537.0,546,458,60,124.0,100,1,307,199,54,0,0,521,-3856,-32248,537,414.87,,,,,,,,,,,,
184983,1564151532408,-2,2.48,0.93,0.38,1.36,1.07,0.88,-0.9,0.49,20,0,28,1.26,7009,14,90,43,38,795,539.0,537,463,60,124.0,100,1,307,199,54,0,0,514,10994,-3082,539,414.87,,,,,,,,,,,,
185003,1564151532428,-2,2.48,0.93,0.37,1.36,1.06,0.89,-0.87,0.48,20,0,27,1.24,6952,14,90,43,38,797,533.0,547,461,60,121.0,100,1,307,199,54,0,0,509,-28648,-3082,533,181.28,,,,,,,,,,,,
185023,1564151532448,-1,2.47,0.92,0.38,1.37,1.06,0.94,-0.87,0.35,20,-1,28,1.28,6941,14,90,43,38,797,530.0,541,460,60,122.0,100,1,307,199,54,0,0,504,6274,2104,530,181.28,,,,,,,,,,,,
185043,1564151532468,0,2.48,0.93,0.38,1.36,1.06,0.87,-0.84,0.33,20,2,27,1.21,7009,14,90,43,38,798,528.0,546,459,60,122.0,100,1,307,316,54,0,0,495,2109,2524,528,181.28,44.681122,10.025102,52.98,173.9,0,0.0,-1,0.0,0.0,0,1.07,3.084
185063,1564151532488,-1,2.48,0.92,0.38,1.37,1.06,0.8,-0.83,0.42,19,0,27,1.15,7022,15,90,43,39,800,526.0,541,461,60,118.0,157,1,310,303,83,0,0,503,10408,10408,526,-5.59,,,,,,,,,,,,
185083,1564151532498,3,2.47,0.92,0.38,1.36,1.06,0.84,-0.76,0.37,19,1,26,1.13,7131,15,90,43,39,800,524.0,541,465,60,121.0,157,1,310,277,83,0,0,504,-22519,-8187,524,-5.59,,,,,,,,,,,,
185103,1564151532518,2,2.46,0.92,0.38,1.36,1.05,0.76,-0.75,0.33,19,2,25,1.06,7290,15,90,43,39,801,521.0,551,465,60,121.0,157,1,310,253,83,0,0,504,2524,-28648,521,-5.59,,,,,,,,,,,,
185123,1564151532538,-0,2.47,0.92,0.38,1.37,1.06,0.64,-0.7,0.26,19,2,27,0.95,7239,15,90,43,39,813,521.0,561,464,60,122.0,157,1,310,228,83,0,0,510,998,-22519,521,-5.59,,,,,,,,,,,,
185143,1564151532558,-1,2.47,0.93,0.38,1.36,1.06,0.7,-0.7,0.37,18,2,26,0.99,7219,15,90,43,39,862,520.0,558,464,60,119.0,157,1,310,204,83,0,0,506,-9216,6274,520,-5.59,44.681107,10.025097,52.31,173.9,0,0.0,-1,0.0,0.0,0,1.07,3.0857
185163,1564151532578,-1,2.46,0.92,0.38,1.36,1.06,0.76,-0.71,0.41,18,1,24,1.04,7231,15,90,43,39,911,519.0,554,466,60,121.0,105,1,310,204,55,0,0,497,-9216,-8187,519,-5.59,,,,,,,,,,,,
185183,1564151532592,-1,2.46,0.92,0.38,1.36,1.06,0.89,-0.71,0.37,18,2,24,1.14,7256,15,90,43,39,958,1084.0,551,465,60,123.0,105,1,310,204,55,0,0,1509,1020,6274,1074,-5.59,,,,,,,,,,,,
185203,1564151532612,0,2.46,0.92,0.37,1.36,1.07,1.0,-0.7,0.34,18,-1,23,1.22,7609,15,90,43,39,1009,1074.0,564,463,60,124.0,105,1,310,200,55,0,0,1509,32033,15661,69,-5.59,,,,,,,,,,,,
185223,1564151532632,-1,2.45,0.92,0.37,1.37,1.05,1.04,-0.7,0.45,17,-4,24,1.25,7709,15,90,43,38,1116,499.0,570,462,60,122.0,105,1,307,200,55,0,0,1509,-10483,-32768,499,-5.59,,,,,,,,,,,,
185243,1564151532652,1,2.46,0.92,0.38,1.36,1.06,0.99,-0.67,0.38,16,-4,23,1.2,8012,15,90,43,37,1223,504.0,597,466,60,124.0,105,1,304,200,55,0,0,1509,10305,-6656,504,-5.59,44.681095,10.02509,51.4,173.9,0,0.0,-1,0.0,0.0,0,1.07,3.0874
185263,1564151532672,-0,2.46,0.93,0.37,1.36,1.06,0.96,-0.67,0.45,16,-3,22,1.17,8220,15,90,43,36,1283,500.0,602,465,60,125.0,119,1,305,198,60,0,0,1509,10305,8488,500,-5.59,,,,,,,,,,,,
185283,1564151532706,2,2.45,0.93,0.38,1.35,1.06,0.9,-0.7,0.32,16,-4,21,1.14,8461,15,90,43,35,1343,498.0,617,466,60,124.0,119,1,307,194,60,0,0,22,-23367,3580,498,-5.59,,,,,,,,,,,,
185303,1564151532726,1,2.46,0.92,0.38,1.36,1.06,1.01,-0.58,0.29,16,-2,21,1.17,8676,15,90,43,34,1306,496.0,633,465,60,123.0,119,1,305,192,60,0,0,472,-9203,-1818,497,-5.59,,,,,,,,,,,,
185323,1564151532746,-1,2.46,0.92,0.38,1.36,1.06,1.11,-0.62,0.42,16,-2,21,1.28,8848,15,90,43,33,1267,493.0,628,467,60,123.0,119,1,302,188,60,0,0,461,8488,-1562,491,-5.59,,,,,,,,,,,,
185343,1564151532766,0,2.45,0.93,0.37,1.37,1.06,1.14,-0.68,0.34,16,-0,20,1.33,8971,15,90,43,32,1181,491.0,638,470,60,124.0,119,1,300,185,60,0,0,464,10432,3580,491,-5.59,44.681084,10.025084,50.66,173.9,0,0.0,-1,0.0,0.0,0,1.08,3.0891
185363,1564151532786,1,2.45,0.93,0.38,1.37,1.06,1.23,-0.8,0.35,16,1,19,1.46,9115,15,90,43,30,1083,486.0,635,468,60,124.0,129,1,291,185,63,0,0,463,-3210,-1562,486,-5.59,,,,,,,,,,,,
185383,1564151532798,1,2.45,0.93,0.38,1.36,1.06,1.31,-0.73,0.31,15,0,19,1.5,9159,15,90,43,30,981,484.0,640,465,60,123.0,129,1,291,186,63,0,0,472,16408,-1818,484,-5.59,,,,,,,,,,,,
185403,1564151532818,1,2.45,0.93,0.37,1.37,1.06,1.38,-0.67,0.34,14,0,18,1.53,9110,15,90,43,29,879,484.0,641,464,60,123.0,129,1,287,185,63,0,0,472,12552,-6528,481,-5.59,,,,,,,,,,,,
185423,1564151532838,1,2.45,0.92,0.38,1.36,1.06,1.44,-0.61,0.38,13,1,18,1.57,8992,15,90,43,28,849,479.0,641,463,60,123.0,129,1,282,185,63,0,0,469,6193,1,479,-5.59,,,,,,,,,,,,
185443,1564151532858,0,2.45,0.92,0.37,1.36,1.07,1.5,-0.56,0.42,13,1,17,1.6,8823,15,90,43,28,845,480.0,638,468,60,123.0,129,1,282,185,63,0,0,467,2211,-10483,480,-5.59,44.681072,10.025077,48.82,173.9,0,0.0,-1,0.0,0.0,0,1.08,3.0907
185463,1564151532878,-1,2.45,0.92,0.38,1.36,1.06,1.53,-0.53,0.42,13,2,17,1.62,8724,15,90,43,29,844,477.0,631,466,60,124.0,127,1,287,185,61,0,0,469,-18108,-10483,479,-5.59,,,,,,,,,,,,
185483,1564151532898,3,2.44,0.92,0.37,1.37,1.06,1.51,-0.66,0.32,13,2,17,1.64,8652,15,90,43,29,844,475.0,624,468,60,125.0,127,1,287,185,61,0,0,458,-9160,8488,475,-5.59,,,,,,,,,,,,
185503,1564151532910,2,2.45,0.92,0.38,1.36,1.06,1.39,-0.64,0.29,13,1,17,1.53,8636,15,90,43,29,847,473.0,635,468,60,124.0,127,1,287,185,61,0,0,459,-8985,-17956,473,-5.59,,,,,,,,,,,,
185523,1564151532930,2,2.44,0.93,0.38,1.36,1.07,1.34,-0.57,0.3,13,2,16,1.46,8632,15,90,43,29,852,469.0,634,462,60,123.0,127,1,287,185,61,0,0,457,-8985,32033,471,-5.59,,,,,,,,,,,,
185543,1564151532950,1,2.44,0.93,0.38,1.36,1.07,1.39,-0.49,0.36,13,2,16,1.48,8652,15,90,43,29,857,468.0,623,466,60,123.0,127,1,287,185,61,0,0,451,-6387,12552,468,-5.59,44.681065,10.025069,47.35,174.0,0,0.0,-1,0.0,0.0,0,1.08,3.0924
185563,1564151532970,-0,2.45,0.92,0.38,1.36,1.06,1.34,-0.56,0.32,12,3,17,1.45,8652,15,90,43,29,863,467.0,626,468,60,124.0,128,1,287,185,60,0,0,453,-6387,-16384,467,-5.59,,,,,,,,,,,,
185583,1564151533001,1,2.45,0.92,0.38,1.36,1.06,1.24,-0.62,0.25,13,4,17,1.38,8608,15,90,43,29,866,466.0,632,463,60,123.0,128,1,287,185,60,0,0,451,8488,10432,466,-5.59,,,,,,,,,,,,
185603,1564151533021,1,2.45,0.92,0.38,1.36,1.06,1.24,-0.47,0.25,13,3,17,1.32,8561,15,90,43,29,866,462.0,629,463,60,124.0,128,1,287,185,60,0,0,449,10305,-3210,462,-5.59,,,,,,,,,,,,
185623,1564151533041,-1,2.44,0.92,0.38,1.36,1.07,1.25,-0.51,0.34,12,3,17,1.35,8511,15,90,43,29,868,462.0,629,466,60,124.0,128,1,287,185,60,0,0,446,21432,-16384,462,-5.59,,,,,,,,,,,,
185643,1564151533061,3,2.44,0.92,0.38,1.36,1.06,1.18,-0.56,0.3,12,2,17,1.31,8522,15,90,43,29,869,457.0,636,461,60,124.0,128,1,287,185,60,0,0,450,23400,-18108,457,-5.59,44.681049,10.025061,46.84,174.0,0,0.0,-1,0.0,0.0,0,1.08,3.094
185663,1564151533081,1,2.43,0.93,0.38,1.36,1.06,1.16,-0.45,0.26,13,3,17,1.24,8530,15,90,43,29,870,457.0,629,463,60,123.0,131,1,287,185,60,0,0,447,-28332,-18108,455,-5.59,,,,,,,,,,,,
185683,1564151533093,-0,2.43,0.93,0.37,1.35,1.06,1.24,-0.43,0.37,12,3,17,1.32,8589,15,90,43,29,870,456.0,623,463,60,123.0,131,1,287,185,60,0,0,445,21580,-23623,456,-5.59,,,,,,,,,,,,
185703,1564151533113,2,2.44,0.92,0.38,1.36,1.06,1.17,-0.49,0.46,13,2,17,1.27,8549,15,90,43,29,869,453.0,623,467,60,124.0,131,1,287,185,60,0,0,448,21580,17628,453,-5.59,,,,,,,,,,,,
185723,1564151533133,2,2.44,0.92,0.37,1.36,1.06,1.09,-0.42,0.39,13,2,17,1.17,8488,15,90,43,29,866,454.0,623,466,60,123.0,131,1,286,184,60,0,0,447,21580,2211,454,-5.59,,,,,,,,,,,,
185743,1564151533153,-1,2.44,0.92,0.38,1.36,1.06,1.18,-0.42,0.42,13,3,16,1.25,8415,15,90,43,29,862,452.0,622,464,60,124.0,131,1,286,180,60,0,0,444,19477,-26615,453,-5.59,44.681042,10.025053,45.78,174.0,0,0.0,-1,0.0,0.0,0,1.08,3.0957
185763,1564151533173,1,2.44,0.92,0.38,1.35,1.06,1.06,-0.46,0.42,13,4,16,1.16,8385,15,90,43,29,859,452.0,632,461,60,124.0,126,1,285,179,57,0,0,444,-768,-26615,452,-5.59,,,,,,,,,,,,
185783,1564151533193,0,2.43,0.93,0.37,1.36,1.05,1.14,-0.44,0.41,12,3,16,1.22,8325,15,90,43,29,853,448.0,631,465,60,122.0,126,1,284,176,57,0,0,444,243,-26615,450,-5.59,,,,,,,,,,,,
185803,1564151533207,2,2.44,0.93,0.37,1.37,1.06,1.05,-0.44,0.42,12,3,16,1.14,8355,15,90,43,29,846,446.0,623,464,60,124.0,126,1,285,177,57,0,0,438,-3322,2524,446,-5.59,,,,,,,,,,,,
185823,1564151533227,1,2.43,0.92,0.37,1.36,1.06,0.99,-0.39,0.39,12,2,16,1.06,8363,15,90,43,30,839,447.0,626,465,60,123.0,126,1,289,178,57,0,0,439,1779,-6387,447,-5.59,,,,,,,,,,,,
185843,1564151533247,-2,2.44,0.92,0.37,1.35,1.06,1.01,-0.41,0.45,13,4,16,1.09,8285,15,91,43,30,835,446.0,623,463,60,124.0,126,1,287,175,57,0,0,437,-3314,-3267,447,-5.59,44.68103,10.025044,44.15,174.0,0,0.0,-1,0.0,0.0,0,1.08,3.0974
185863,1564151533267,2,2.43,0.93,0.38,1.36,1.06,0.95,-0.4,0.42,13,2,15,1.03,8278,15,90,43,30,832,444.0,629,463,60,124.0,123,1,287,175,55,0,0,436,-3314,-26615,444,-5.59,,,,,,,,,,,,
185883,1564151533301,-2,2.43,0.92,0.37,1.36,1.06,1.04,-0.41,0.51,12,2,16,1.12,8300,15,90,43,30,830,445.0,630,466,60,124.0,123,1,288,176,55,0,0,433,13552,-6387,443,-5.59,,,,,,,,,,,,
185903,1564151533321,2,2.43,0.93,0.38,1.36,1.06,1.0,-0.36,0.45,12,1,16,1.06,8270,15,91,43,30,828,442.0,620,464,60,123.0,123,1,287,174,55,0,0,435,13552,15649,442,-5.59,,,,,,,,,,,,
185923,1564151533341,-2,2.43,0.92,0.37,1.35,1.06,1.04,-0.36,0.52,11,2,15,1.11,8220,15,91,43,30,830,440.0,622,463,60,124.0,123,1,287,172,55,0,0,435,-4082,8488,440,-5.59,,,,,,,,,,,,
185943,1564151533361,1,2.43,0.93,0.38,1.36,1.06,0.98,-0.33,0.41,11,0,16,1.03,8212,15,91,43,30,832,439.0,627,466,60,123.0,123,1,287,173,55,0,0,432,3826,-28332,439,-5.59,44.681023,10.025035,44.33,174.0,0,0.0,-1,0.0,0.0,0,1.08,3.0991
185963,1564151533381,-2,2.44,0.92,0.38,1.36,1.06,1.0,-0.32,0.51,12,2,15,1.05,8227,15,91,43,31,837,437.0,620,467,60,124.0,123,1,290,174,54,0,0,432,3826,8488,437,-5.59,,,,,,,,,,,,
185983,1564151533395,0,2.43,0.93,0.38,1.35,1.07,0.96,-0.28,0.49,12,1,15,1.0,8191,15,91,43,31,842,438.0,615,466,60,124.0,123,1,289,172,54,0,0,429,-3414,2131,437,-5.59,,,,,,,,,,,,
186003,1564151533415,3,2.43,0.92,0.38,1.36,1.06,0.92,-0.29,0.47,12,3,15,0.96,8141,15,91,43,31,845,436.0,615,465,60,124.0,123,1,288,170,54,0,0,430,-21792,2131,436,-5.59,,,,,,,,,,,,
186023,1564151533435,1,2.43,0.93,0.38,1.36,1.06,0.98,-0.25,0.48,12,2,15,1.01,8081,15,91,43,31,849,436.0,612,463,60,123.0,123,1,288,91,54,0,0,429,-8165,21432,436,-5.59,,,,,,,,,,,,
186043,1564151533455,3,2.43,0.93,0.37,1.37,1.06,0.9,-0.22,0.45,12,2,15,0.93,8120,15,91,43,31,852,435.0,616,463,60,123.0,123,1,288,169,54,0,0,429,7154,21580,435,-5.59,44.681015,10.025025,43.56,174.0,0,0.0,-1,0.0,0.0,0,1.08,3.1007
186063,1564151533475,-0,2.42,0.93,0.37,1.37,1.06,1.01,-0.22,0.43,12,2,15,1.04,8071,15,91,43,32,856,433.0,613,466,60,124.0,118,1,292,166,51,0,0,430,-3414,-28332,433,-5.59,,,,,,,,,,,,
186083,1564151533495,1,2.42,0.93,0.38,1.35,1.06,0.97,-0.18,0.41,12,2,15,0.99,8054,15,91,43,31,857,431.0,620,464,60,124.0,118,1,288,168,51,0,0,425,-21944,19477,431,-5.59,,,,,,,,,,,,
186103,1564151533506,2,2.43,0.93,0.37,1.36,1.06,0.98,-0.21,0.42,12,2,15,1.0,8081,15,91,43,32,858,431.0,615,465,60,125.0,118,1,291,169,51,0,0,427,18584,19477,430,-5.59,,,,,,,,,,,,
186123,1564151533526,0,2.43,0.92,0.37,1.36,1.06,1.07,-0.16,0.41,11,2,15,1.08,8061,15,91,43,32,860,427.0,615,468,60,123.0,118,1,291,167,51,0,0,427,18584,20625,427,-5.59,,,,,,,,,,,,
186143,1564151533546,2,2.43,0.93,0.38,1.36,1.06,0.96,-0.17,0.38,11,1,14,0.97,8009,15,90,43,32,862,427.0,622,464,60,122.0,118,1,290,166,51,0,0,423,2524,19477,427,-5.59,44.681004,10.025016,42.69,174.0,0,0.0,-1,0.0,0.0,0,1.09,3.1024
186163,1564151533566,2,2.43,0.92,0.38,1.36,1.06,1.03,-0.2,0.4,10,2,15,1.05,8009,15,91,43,33,863,428.0,611,464,60,125.0,121,1,292,166,52,0,0,421,13040,243,427,-5.59,,,,,,,,,,,,
186183,1564151533603,-1,2.43,0.93,0.38,1.35,1.06,1.13,-0.17,0.42,10,2,15,1.14,7955,15,91,43,33,865,427.0,606,467,60,124.0,121,1,292,171,52,0,0,419,13040,5600,427,-5.59,,,,,,,,,,,,
186203,1564151533623,0,2.43,0.92,0.38,1.36,1.06,1.06,-0.19,0.43,10,1,13,1.08,7958,15,91,43,33,868,426.0,614,463,60,123.0,121,1,292,171,52,0,0,423,-4059,-768,426,-5.59,,,,,,,,,,,,
186223,1564151533643,3,2.43,0.92,0.37,1.35,1.06,1.08,-0.24,0.42,10,2,15,1.11,7971,15,91,43,33,871,424.0,600,464,60,124.0,121,1,292,171,52,0,0,414,9517,13180,424,-5.59,,,,,,,,,,,,
186243,1564151533663,-1,2.43,0.92,0.38,1.36,1.06,1.17,-0.22,0.47,10,2,15,1.19,7924,15,91,43,33,873,424.0,601,466,60,124.0,121,1,292,171,52,0,0,416,9517,1779,423,-5.59,44.681,10.025006,42.69,174.0,0,0.0,-1,0.0,0.0,0,1.09,3.104
186263,1564151533683,1,2.43,0.92,0.37,1.37,1.06,1.14,-0.2,0.51,10,0,13,1.16,7898,15,90,43,33,875,422.0,606,463,60,123.0,120,1,292,171,51,0,0,418,11560,-3322,422,-5.59,,,,,,,,,,,,
186283,1564151533693,1,2.43,0.92,0.37,1.35,1.06,1.06,-0.22,0.49,10,2,14,1.08,7914,15,90,43,33,877,422.0,603,467,60,125.0,120,1,292,176,51,0,0,413,10392,1779,422,-5.59,,,,,,,,,,,,
186303,1564151533713,3,2.43,0.92,0.37,1.36,1.06,1.1,-0.24,0.53,10,3,15,1.12,7858,15,91,43,34,879,423.0,606,469,60,124.0,120,1,295,176,51,0,0,415,-9211,3635,421,-5.59,,,,,,,,,,,,
186323,1564151533733,-1,2.43,0.92,0.37,1.36,1.06,1.17,-0.23,0.57,10,2,13,1.19,7868,15,91,43,34,879,420.0,602,465,60,124.0,120,1,295,176,51,0,0,416,-26615,13552,419,-5.59,,,,,,,,,,,,
186343,1564151533753,1,2.43,0.93,0.37,1.36,1.06,1.11,-0.2,0.52,10,2,13,1.13,7874,15,90,43,34,879,418.0,601,466,60,123.0,120,1,295,176,51,0,0,418,1504,-3856,418,-5.59,44.680988,10.024996,42.01,174.0,0,0.0,-1,0.0,0.0,0,1.09,3.1057
186363,1564151533773,0,2.43,0.92,0.37,1.36,1.06,1.0,-0.2,0.47,11,2,14,1.02,7832,15,90,43,34,878,418.0,610,465,60,123.0,124,1,295,176,52,0,0,411,10541,-4082,418,-5.59,,,,,,,,,,,,
186383,1564151533793,1,2.43,0.93,0.37,1.35,1.06,0.94,-0.19,0.54,11,3,12,0.96,7848,15,91,44,34,877,418.0,605,466,60,124.0,124,1,295,175,52,0,0,410,-8151,3826,418,-5.59,,,,,,,,,,,,
186403,1564151533807,-2,2.43,0.92,0.37,1.36,1.05,1.03,-0.27,0.56,11,4,12,1.07,7805,15,91,44,34,876,419.0,601,464,60,124.0,124,1,295,101,52,0,0,411,1504,-8165,416,-5.59,,,,,,,,,,,,
186423,1564151533827,0,2.43,0.93,0.37,1.35,1.06,1.06,-0.27,0.57,11,2,14,1.1,7773,15,91,43,34,875,415.0,609,464,60,123.0,124,1,295,182,52,0,0,413,11545,-3856,415,-5.59,,,,,,,,,,,,
186443,1564151533847,1,2.42,0.92,0.37,1.36,1.05,1.01,-0.25,0.55,10,1,13,1.04,7780,15,91,43,34,874,416.0,594,465,60,124.0,124,1,295,182,52,0,0,409,6512,-3414,416,-5.59,44.680984,10.024985,41.66,174.0,0,0.0,-1,0.0,0.0,0,1.09,3.1074
186463,1564151533867,2,2.43,0.92,0.37,1.36,1.06,0.89,-0.26,0.49,10,1,13,0.92,7722,15,90,44,35,873,414.0,593,466,60,124.0,122,1,298,181,51,0,0,409,6512,3826,414,-5.59,,,,,,,,,,,,
186483,1564151533901,2,2.43,0.92,0.37,1.36,1.06,0.88,-0.26,0.43,10,2,14,0.92,7760,15,91,44,34,872,414.0,588,464,60,123.0,122,1,295,175,51,0,0,410,6384,7154,414,-5.59,,,,,,,,,,,,
186503,1564151533921,3,2.43,0.92,0.37,1.37,1.06,0.93,-0.25,0.47,11,2,14,0.97,7731,15,91,44,35,872,414.0,590,465,60,125.0,122,1,298,181,51,0,0,407,-3968,18584,412,-5.59,,,,,,,,,,,,
186523,1564151533941,-0,2.42,0.92,0.37,1.36,1.06,1.04,-0.28,0.51,11,2,12,1.08,7712,15,91,44,35,873,412.0,592,465,60,123.0,122,1,298,181,51,0,0,404,-32702,-3414,412,-5.59,,,,,,,,,,,,
186543,1564151533961,0,2.42,0.92,0.37,1.35,1.05,1.07,-0.29,0.56,10,1,13,1.11,7697,15,91,44,36,875,413.0,588,468,60,123.0,122,1,301,181,51,0,0,407,6384,-3414,413,-5.59,44.680973,10.024976,40.91,174.0,0,0.0,-1,0.0,0.0,0,1.09,3.1091
186563,1564151533981,1,2.43,0.93,0.37,1.36,1.05,1.06,-0.27,0.58,10,-1,14,1.09,7659,15,90,44,35,878,410.0,595,467,60,123.0,126,1,298,181,52,0,0,404,-3968,-21944,410,-5.59,,,,,,,,,,,,
186583,1564151534001,1,2.44,0.92,0.37,1.37,1.06,0.95,-0.26,0.54,10,-2,13,0.99,7693,15,90,44,35,880,410.0,590,467,60,122.0,126,1,298,181,52,0,0,403,-32702,7154,410,-5.59,,,,,,,,,,,,
186603,1564151534010,1,2.45,0.93,0.37,1.36,1.06,0.85,-0.22,0.44,10,-1,13,0.88,7649,15,91,44,35,884,411.0,598,463,60,124.0,126,1,298,181,52,0,0,404,-1818,2524,411,-5.59,,,,,,,,,,,,
186623,1564151534030,2,2.45,0.92,0.37,1.37,1.05,0.76,-0.23,0.39,11,0,14,0.8,7671,15,91,44,35,888,408.0,588,465,60,124.0,126,1,298,181,52,0,0,402,-1818,2524,409,-5.59,,,,,,,,,,,,
186643,1564151534050,3,2.47,0.92,0.37,1.36,1.06,0.71,-0.2,0.35,12,2,14,0.74,7621,15,91,44,36,891,409.0,597,465,60,123.0,126,1,301,187,52,0,0,402,505,-9166,408,-5.59,44.680965,10.024965,41.11,174.0,0,0.0,-1,0.0,0.0,0,1.09,3.1107
186663,1564151534070,3,2.49,0.93,0.37,1.37,1.06,0.72,-0.22,0.36,13,2,13,0.76,7653,15,91,44,36,893,409.0,588,466,60,123.0,131,1,301,181,54,0,0,400,-1562,-21944,409,-5.59,,,,,,,,,,,,
186683,1564151534104,3,2.5,0.92,0.37,1.36,1.06,0.75,-0.33,0.42,13,3,14,0.82,7618,15,90,44,36,895,409.0,591,465,60,123.0,131,1,301,181,54,0,0,399,-6524,2524,409,-5.59,,,,,,,,,,,,
186703,1564151534124,-0,2.49,0.93,0.37,1.37,1.06,0.86,-0.39,0.53,13,2,16,0.94,7637,15,91,44,36,897,411.0,587,467,60,122.0,131,1,301,187,54,0,0,399,-31744,7154,411,-5.59,,,,,,,,,,,,
186723,1564151534144,-0,2.5,0.92,0.38,1.36,1.06,0.97,-0.42,0.6,13,2,16,1.06,7584,15,91,44,36,899,410.0,580,465,60,123.0,131,1,301,187,54,0,0,394,-31744,-3414,410,-5.59,,,,,,,,,,,,
186743,1564151534164,-0,2.49,0.93,0.38,1.36,1.06,1.08,-0.45,0.62,14,2,16,1.17,7566,15,90,44,36,901,409.0,579,466,60,123.0,131,1,301,187,54,0,0,394,-3866,-8165,410,-5.59,44.680962,10.024954,39.93,174.0,0,0.0,-1,0.0,0.0,0,1.09,3.1124
186763,1564151534184,-1,2.5,0.92,0.38,1.36,1.06,1.11,-0.45,0.72,14,3,17,1.2,7563,15,90,44,36,903,408.0,577,467,60,122.0,129,1,301,187,53,0,0,397,-3866,-9166,407,-5.59,,,,,,,,,,,,
186783,1564151534198,-2,2.5,0.93,0.38,1.36,1.07,1.14,-0.45,0.76,14,2,18,1.23,7521,15,90,44,36,906,407.0,586,466,60,121.0,129,1,301,187,53,0,0,394,-19019,-21944,407,-5.59,,,,,,,,,,,,
186803,1564151534218,-1,2.51,0.92,0.38,1.36,1.06,1.15,-0.45,0.78,14,0,18,1.24,7557,15,90,44,36,910,407.0,577,465,60,122.0,129,1,301,187,53,0,0,391,-19126,-21944,407,-5.59,,,,,,,,,,,,
186823,1564151534238,-2,2.5,0.93,0.37,1.36,1.05,1.18,-0.46,0.77,14,-1,18,1.26,7491,15,91,44,36,912,406.0,579,465,60,121.0,129,1,301,187,53,0,0,393,-19019,-26615,406,-5.59,,,,,,,,,,,,
186843,1564151534258,-1,2.5,0.93,0.38,1.36,1.06,1.13,-0.45,0.78,14,-1,19,1.21,7524,15,90,44,36,915,405.0,581,464,60,122.0,129,1,301,187,53,0,0,393,19125,7154,405,-5.59,44.680954,10.024943,40.16,174.0,0,0.0,-1,0.0,0.0,0,1.09,3.114
186863,1564151534278,0,2.49,0.93,0.37,1.37,1.06,1.1,-0.4,0.79,14,-3,20,1.17,7479,15,90,44,36,919,404.0,587,466,60,122.0,130,1,301,186,53,0,0,391,19125,2524,404,-5.59,,,,,,,,,,,,
186883,1564151534291,-0,2.5,0.92,0.37,1.36,1.06,1.13,-0.41,0.82,14,-5,19,1.2,7491,15,90,44,36,924,405.0,580,463,60,122.0,130,1,301,192,53,0,0,389,-18948,2524,405,-5.59,,,,,,,,,,,,
186903,1564151534311,-0,2.5,0.92,0.37,1.37,1.06,1.19,-0.45,0.8,13,-5,19,1.27,7449,15,90,44,37,926,404.0,580,468,60,123.0,130,1,304,192,53,0,0,390,-992,11560,403,-5.59,,,,,,,,,,,,
186923,1564151534331,-1,2.5,0.92,0.37,1.36,1.06,1.22,-0.42,0.85,14,-5,20,1.29,7470,15,90,44,36,929,404.0,576,463,60,121.0,130,1,301,186,53,0,0,390,2278,-26615,405,-5.59,,,,,,,,,,,,
186943,1564151534351,-0,2.49,0.92,0.37,1.36,1.07,1.21,-0.44,0.9,14,-7,21,1.29,7428,15,90,44,37,935,402.0,582,467,60,122.0,130,1,304,192,53,0,0,390,2278,-26615,402,-5.59,44.680946,10.024932,39.83,174.0,0,0.0,-1,0.0,0.0,0,1.1,3.1157
186963,1564151534371,-2,2.5,0.93,0.37,1.36,1.06,1.26,-0.45,0.92,14,-9,20,1.34,7470,15,90,44,37,942,402.0,570,467,60,121.0,134,1,304,192,54,0,0,385,-6656,11560,402,-5.59,,,,,,,,,,,,
186983,1564151534406,-2,2.5,0.92,0.38,1.36,1.06,1.34,-0.48,0.94,14,-9,20,1.42,7443,15,90,44,37,946,401.0,574,466,60,122.0,134,1,304,192,54,0,0,386,-6656,13040,401,-5.59,,,,,,,,,,,,
187003,1564151534426,-1,2.49,0.93,0.37,1.37,1.06,1.4,-0.5,1.01,14,-8,22,1.48,7428,15,90,44,37,950,400.0,563,465,60,123.0,134,1,304,192,54,0,0,383,2278,9517,400,-5.59,,,,,,,,,,,,
187023,1564151534446,-1,2.5,0.92,0.38,1.36,1.06,1.46,-0.51,1.07,14,-8,23,1.55,7470,15,90,44,37,954,401.0,572,466,60,122.0,134,1,304,192,54,0,0,386,-6656,11560,401,-5.59,,,,,,,,,,,,
187043,1564151534466,-1,2.49,0.92,0.38,1.35,1.06,1.52,-0.53,1.12,14,-8,22,1.61,7425,15,90,44,37,959,401.0,566,466,60,122.0,134,1,304,192,54,0,0,386,770,9517,401,-5.59,44.680946,10.02492,39.45,173.9,0,0.0,-1,0.0,0.0,0,1.1,3.1174
187063,1564151534486,-1,2.49,0.93,0.38,1.35,1.06,1.56,-0.54,1.06,14,-6,23,1.65,7443,15,90,44,37,961,399.0,568,463,60,123.0,134,1,304,192,54,0,0,382,770,2524,399,-5.59,,,,,,,,,,,,
187083,1564151534498,3,2.49,0.93,0.38,1.36,1.07,1.55,-0.58,1.08,15,-4,24,1.66,7419,15,90,44,37,961,398.0,569,467,60,123.0,134,1,304,192,54,0,0,384,770,2524,398,-5.59,,,,,,,,,,,,
187103,1564151534518,3,2.5,0.92,0.38,1.36,1.06,1.57,-0.57,1.06,15,-3,25,1.67,7434,15,90,44,37,959,398.0,570,463,60,123.0,134,1,304,192,54,0,0,383,742,-9211,398,-5.59,,,,,,,,,,,,
187123,1564151534538,2,2.5,0.92,0.38,1.36,1.06,1.54,-0.53,1.0,16,-1,23,1.62,7411,15,90,44,37,956,396.0,572,466,60,123.0,134,1,304,192,54,0,0,384,-6656,-8151,398,-5.59,,,,,,,,,,,,
187143,1564151534558,3,2.49,0.93,0.38,1.36,1.06,1.44,-0.54,0.91,17,1,22,1.54,7425,15,90,44,37,953,396.0,570,465,60,124.0,134,1,304,192,54,0,0,382,-6656,11545,396,-5.59,44.680939,10.024908,39.13,173.9,0,0.0,-1,0.0,0.0,0,1.1,3.1191
187163,1564151534578,1,2.5,0.93,0.38,1.37,1.06,1.31,-0.56,0.8,17,2,25,1.42,7364,15,90,44,37,950,396.0,575,466,60,123.0,133,1,304,192,53,0,0,382,1,10541,396,-5.59,,,,,,,,,,,,
187183,1564151534598,1,2.49,0.93,0.38,1.36,1.06,1.15,-0.5,0.67,17,2,25,1.25,7376,15,90,44,37,946,395.0,569,463,60,123.0,133,1,304,192,53,0,0,380,1,-9211,396,-5.59,,,,,,,,,,,,
187203,1564151534610,1,2.49,0.93,0.37,1.36,1.06,0.99,-0.45,0.52,18,3,23,1.09,7315,15,90,44,37,942,394.0,575,463,60,121.0,133,1,304,197,53,0,0,380,1,11545,394,-5.59,,,,,,,,,,,,
187223,1564151534630,1,2.49,0.93,0.37,1.37,1.06,0.85,-0.45,0.44,18,-0,22,0.96,7327,15,90,44,37,940,394.0,564,463,60,122.0,133,1,304,197,53,0,0,377,257,-32702,394,-5.59,,,,,,,,,,,,
187243,1564151534650,-0,2.49,0.93,0.37,1.37,1.06,0.87,-0.46,0.41,17,-1,22,0.99,7290,15,90,44,38,939,394.0,568,465,60,121.0,133,1,307,197,53,0,0,378,257,-9211,394,-5.59,44.680935,10.024896,38.8,173.9,0,0.0,-1,0.0,0.0,0,1.1,3.1207
187263,1564151534670,-0,2.5,0.93,0.37,1.36,1.06,0.92,-0.43,0.52,17,-2,23,1.02,7295,15,90,44,38,939,394.0,558,467,60,122.0,137,1,307,197,54,0,0,379,486,10541,394,-5.59,,,,,,,,,,,,
187283,1564151534706,2,2.49,0.93,0.37,1.36,1.06,1.03,-0.46,0.62,17,-3,23,1.13,7278,14,90,44,38,939,395.0,559,466,60,123.0,137,1,307,197,54,0,0,380,-6656,-8151,395,-5.59,,,,,,,,,,,,
187303,1564151534726,3,2.49,0.93,0.37,1.36,1.06,1.12,-0.43,0.66,17,-1,23,1.2,7247,14,90,44,38,940,392.0,555,461,60,124.0,137,1,307,197,54,0,0,379,486,28696,392,-5.59,,,,,,,,,,,,
187323,1564151534746,2,2.49,0.92,0.37,1.36,1.06,1.04,-0.44,0.56,18,-0,23,1.13,7239,15,90,44,38,941,393.0,559,465,60,124.0,137,1,307,197,54,0,0,377,-6656,11545,393,-5.59,,,,,,,,,,,,
187343,1564151534766,1,2.5,0.93,0.37,1.37,1.06,0.95,-0.42,0.49,17,1,23,1.04,7205,14,90,44,39,945,392.0,563,465,60,121.0,137,1,310,203,54,0,0,378,-6656,28696,392,-5.59,44.680927,10.024883,38.68,173.9,0,0.0,-1,0.0,0.0,0,1.1,3.1224
187363,1564151534786,-1,2.5,0.92,0.38,1.36,1.06,0.87,-0.39,0.5,18,1,23,0.95,7217,14,90,44,38,952,392.0,556,466,60,122.0,134,1,307,203,53,0,0,376,0,6512,392,-5.59,,,,,,,,,,,,
187383,1564151534796,0,2.5,0.92,0.37,1.37,1.06,0.94,-0.41,0.58,17,-2,23,1.03,7214,14,90,44,39,957,392.0,556,466,60,123.0,134,1,310,203,53,0,0,375,0,-32702,392,-5.59,,,,,,,,,,,,
187403,1564151534816,1,2.51,0.93,0.37,1.37,1.06,1.05,-0.4,0.6,17,-1,23,1.13,7170,14,90,44,39,961,391.0,554,463,60,122.0,134,1,310,203,53,0,0,374,0,11545,391,-5.59,,,,,,,,,,,,
187423,1564151534836,2,2.49,0.93,0.37,1.37,1.06,0.98,-0.42,0.49,18,1,23,1.07,7214,14,90,44,39,966,391.0,556,465,60,124.0,134,1,310,203,53,0,0,373,230,11545,391,-5.59,,,,,,,,,,,,
187443,1564151534856,0,2.51,0.92,0.38,1.36,1.07,0.83,-0.39,0.44,18,1,23,0.92,7178,14,90,44,39,970,388.0,563,464,60,121.0,134,1,310,203,53,0,0,374,230,-1818,388,-5.59,44.680923,10.024871,38.42,173.8,0,0.0,-1,0.0,0.0,0,1.1,3.124
187463,1564151534876,-0,2.51,0.92,0.37,1.36,1.06,0.78,-0.36,0.46,18,-0,23,0.85,7194,14,90,44,39,973,389.0,553,463,60,122.0,140,1,310,130,55,0,0,372,230,-32702,389,-5.59,,,,,,,,,,,,
187483,1564151534892,0,2.5,0.93,0.37,1.36,1.06,0.84,-0.38,0.55,17,-3,24,0.92,7222,14,90,44,39,973,389.0,557,466,60,123.0,140,1,310,203,55,0,0,373,230,17144,389,-5.59,,,,,,,,,,,,
187503,1564151534912,1,2.5,0.92,0.38,1.36,1.07,0.96,-0.38,0.6,17,-2,23,1.04,7183,14,90,44,39,972,388.0,556,463,60,123.0,140,1,310,203,55,0,0,372,-6405,-6524,388,-5.59,,,,,,,,,,,,
187523,1564151534932,1,2.5,0.92,0.38,1.36,1.06,0.88,-0.4,0.54,18,0,23,0.97,7200,14,90,44,39,970,388.0,555,464,60,123.0,140,1,310,203,55,0,0,373,-1268,-1818,388,-5.59,,,,,,,,,,,,
187543,1564151534952,1,2.49,0.92,0.37,1.36,1.07,0.76,-0.37,0.45,18,1,23,0.84,7189,14,90,44,39,968,386.0,559,463,60,122.0,140,1,310,203,55,0,0,371,-1268,28696,386,-5.59,44.680923,10.024858,38.09,173.8,0,0.0,-1,0.0,0.0,0,1.1,3.1257
187563,1564151534972,-1,2.5,0.92,0.38,1.36,1.07,0.69,-0.32,0.48,18,0,23,0.76,7175,14,90,44,39,965,385.0,553,467,60,121.0,141,1,310,203,55,0,0,372,-1268,17144,385,-5.59,,,,,,,,,,,,
187583,1564151535001,3,2.49,0.93,0.37,1.37,1.06,0.77,-0.36,0.56,18,-2,23,0.85,7175,14,90,44,39,962,387.0,550,465,60,122.0,141,1,310,203,55,0,0,371,3082,-1818,387,-5.59,,,,,,,,,,,,
187603,1564151535021,2,2.49,0.93,0.37,1.36,1.06,0.88,-0.36,0.55,18,-0,22,0.95,7134,14,90,44,39,958,386.0,556,462,60,123.0,141,1,310,203,55,0,0,373,2790,-1818,386,-5.59,,,,,,,,,,,,
187623,1564151535041,0,2.49,0.93,0.37,1.37,1.06,0.78,-0.38,0.45,18,0,22,0.87,7142,14,90,44,39,954,385.0,552,467,60,121.0,141,1,310,203,55,0,0,372,3082,-6656,385,-5.59,,,,,,,,,,,,
187643,1564151535061,-1,2.48,0.93,0.37,1.36,1.06,0.75,-0.4,0.41,18,-1,23,0.85,7096,14,90,44,39,953,386.0,551,463,60,122.0,141,1,310,203,55,0,0,371,-6458,17144,386,-5.59,44.680923,10.024845,37.81,173.8,0,0.0,-1,0.0,0.0,0,1.1,3.1274
187663,1564151535081,2,2.47,0.93,0.38,1.36,1.06,0.78,-0.42,0.55,18,-1,23,0.89,7088,14,90,44,39,951,384.0,543,467,60,122.0,139,1,310,203,54,0,0,368,2790,1,384,-5.59,,,,,,,,,,,,
187683,1564151535096,2,2.46,0.92,0.37,1.36,1.07,0.85,-0.4,0.52,18,-1,24,0.94,7102,14,90,44,39,949,383.0,548,463,60,124.0,139,1,310,203,54,0,0,371,3082,-6524,383,-5.59,,,,,,,,,,,,
187703,1564151535116,-1,2.45,0.92,0.38,1.37,1.07,0.77,-0.33,0.41,18,0,22,0.84,7078,14,90,44,39,947,382.0,556,461,60,122.0,139,1,310,203,54,0,0,369,3082,-1562,384,-5.59,,,,,,,,,,,,
187723,1564151535136,-0,2.43,0.92,0.37,1.37,1.06,0.74,-0.37,0.43,17,-1,21,0.83,7080,14,90,44,40,947,382.0,546,465,60,122.0,139,1,317,203,54,0,0,372,-6405,505,382,-5.59,,,,,,,,,,,,
187743,1564151535156,3,2.41,0.93,0.37,1.35,1.06,0.87,-0.35,0.49,16,-0,21,0.94,7104,14,90,44,39,946,382.0,551,463,60,123.0,139,1,310,203,54,0,0,372,3082,-3866,382,-5.59,44.68092,10.024832,37.78,173.8,0,0.0,-1,0.0,0.0,0,1.1,3.1291
187763,1564151535176,1,2.39,0.92,0.37,1.36,1.06,0.84,-0.33,0.41,16,2,22,0.9,7070,14,90,44,39,947,380.0,553,462,60,124.0,142,1,310,203,54,0,0,374,2790,-3866,379,-5.59,,,,,,,,,,,,
187783,1564151535196,-0,2.38,0.92,0.37,1.37,1.06,0.76,-0.26,0.37,15,4,21,0.8,7091,14,90,44,39,947,379.0,552,465,60,122.0,142,1,310,204,54,0,0,374,3082,-3866,378,-5.59,,,,,,,,,,,,
187803,1564151535207,0,2.37,0.93,0.37,1.37,1.06,0.77,-0.25,0.4,14,-0,20,0.81,7070,14,90,44,40,948,377.0,553,466,60,123.0,142,1,317,203,54,0,0,376,-1268,19125,377,-5.59,,,,,,,,,,,,
187823,1564151535227,1,2.35,0.92,0.37,1.36,1.05,0.86,-0.18,0.47,13,-0,19,0.88,7064,14,90,44,39,948,374.0,547,459,60,123.0,142,1,310,203,54,0,0,373,230,-992,374,-5.59,,,,,,,,,,,,
187843,1564151535247,-1,2.34,0.92,0.37,1.35,1.06,0.74,-0.15,0.38,12,1,18,0.76,7091,14,90,44,39,948,373.0,551,464,60,124.0,142,1,310,203,54,0,0,374,0,19125,373,-5.59,44.680916,10.024819,37.52,173.7,0,0.0,-1,0.0,0.0,0,1.1,3.1307
187863,1564151535267,-1,2.32,0.91,0.37,1.36,1.05,0.77,-0.15,0.39,10,-0,17,0.78,7040,14,90,44,40,949,372.0,551,464,60,123.0,145,1,317,203,54,0,0,375,0,-992,372,-5.59,,,,,,,,,,,,
187883,1564151535305,3,2.29,0.9,0.37,1.34,1.06,0.84,-0.2,0.54,9,0,15,0.86,7033,14,90,44,39,948,370.0,544,461,60,125.0,145,1,310,203,54,0,0,378,0,-992,370,-5.59,,,,,,,,,,,,
187903,1564151535325,1,2.27,0.9,0.36,1.34,1.04,0.89,-0.11,0.5,8,1,14,0.89,7043,14,90,44,39,947,371.0,545,462,60,125.0,145,1,310,203,54,0,0,377,486,3,371,-5.59,,,,,,,,,,,,
187923,1564151535345,-1,2.26,0.88,0.36,1.33,1.05,0.78,-0.02,0.46,7,0,11,0.78,7006,14,90,44,40,947,368.0,558,460,60,122.0,145,1,317,204,54,0,0,378,0,742,366,-5.59,,,,,,,,,,,,
187943,1564151535365,3,2.24,0.88,0.36,1.32,1.04,0.89,-0.05,0.53,4,-0,10,0.9,7009,14,90,44,40,946,370.0,544,462,60,123.0,145,1,317,204,54,0,0,380,486,-6656,364,-5.59,44.680916,10.024807,37.05,173.7,0,0.0,-1,0.0,0.0,0,1.11,3.1324
187963,1564151535385,2,2.22,0.87,0.35,1.32,1.04,0.89,-0.02,0.52,3,1,8,0.89,7009,14,90,44,40,945,370.0,546,465,60,125.0,148,1,317,204,54,0,0,379,1,486,362,-5.59,,,,,,,,,,,,
187983,1564151535395,-2,2.22,0.87,0.35,1.31,1.04,0.86,0.06,0.49,2,0,6,0.86,6980,14,89,44,40,945,373.0,551,466,60,122.0,148,1,317,204,54,0,0,379,1,0,360,-5.59,,,,,,,,,,,,
188003,1564151535415,2,2.2,0.86,0.35,1.31,1.03,0.9,0.05,0.64,-0,-1,5,0.9,6972,14,90,44,40,947,372.0,542,466,60,123.0,148,1,317,204,54,0,0,383,1,-6656,360,-5.59,,,,,,,,,,,,
188023,1564151535435,-0,2.19,0.86,0.35,1.31,1.02,0.95,0.12,0.57,-1,0,2,0.96,6996,14,90,44,40,948,373.0,548,462,60,125.0,148,1,317,204,54,0,0,382,-6656,3082,359,-5.59,,,,,,,,,,,,
188043,1564151535455,-1,2.18,0.85,0.34,1.3,1.02,0.85,0.22,0.54,-2,0,0,0.87,6965,14,89,44,40,950,373.0,554,463,60,122.0,148,1,317,204,54,0,0,382,-6656,0,357,-5.59,44.680916,10.024794,36.9,173.7,0,0.0,-1,0.0,0.0,0,1.11,3.134
188063,1564151535475,3,2.16,0.85,0.34,1.31,1.02,0.95,0.18,0.58,-4,-1,-1,0.96,6941,14,90,44,40,951,374.0,543,465,60,123.0,148,1,317,204,53,0,0,382,742,0,356,-5.59,,,,,,,,,,,,
188083,1564151535495,1,2.16,0.84,0.34,1.3,1.02,0.89,0.26,0.54,-5,-0,-3,0.93,6983,14,89,44,40,950,372.0,548,465,60,123.0,148,1,317,204,53,0,0,378,1,-1268,358,-5.59,,,,,,,,,,,,
188103,1564151535509,-1,2.15,0.85,0.34,1.31,1.02,0.87,0.31,0.53,-6,-1,-5,0.92,6980,14,90,44,40,948,372.0,547,465,60,123.0,148,1,317,204,53,0,0,382,1,3082,355,-5.59,,,,,,,,,,,,
188123,1564151535529,3,2.14,0.85,0.34,1.31,1.02,0.9,0.25,0.62,-7,-1,-6,0.93,6954,14,89,44,40,945,373.0,544,465,60,123.0,148,1,317,204,53,0,0,380,-6656,-14707,354,-5.59,,,,,,,,,,,,
188143,1564151535549,1,2.14,0.85,0.34,1.31,1.02,0.9,0.34,0.57,-8,0,-9,0.96,6975,14,89,44,40,941,375.0,543,463,60,124.0,148,1,317,204,53,0,0,384,-6656,2790,353,-5.59,44.680912,10.024781,36.46,173.7,0,0.0,-1,0.0,0.0,0,1.11,3.1357
188163,1564151535569,-0,2.14,0.85,0.34,1.3,1.02,0.83,0.3,0.59,-9,-1,-10,0.89,6970,14,90,44,40,939,373.0,549,465,60,123.0,153,1,317,204,54,0,0,382,-6656,4104,353,-5.59,,,,,,,,,,,,
188183,1564151535603,0,2.15,0.85,0.34,1.3,1.02,0.93,0.33,0.58,-9,-1,-11,0.99,6965,14,90,44,40,937,373.0,540,462,60,124.0,153,1,317,204,54,0,0,382,-6656,-6640,352,-5.59,,,,,,,,,,,,
188203,1564151535623,-1,2.15,0.85,0.34,1.3,1.02,0.86,0.42,0.51,-10,1,-12,0.96,6975,14,89,44,40,937,372.0,543,466,60,124.0,153,1,317,204,54,0,0,383,1,2790,352,-5.59,,,,,,,,,,,,
188223,1564151535643,3,2.14,0.85,0.34,1.3,1.02,0.89,0.4,0.54,-11,-0,-14,0.98,6947,14,89,44,40,939,371.0,546,468,60,123.0,153,1,317,204,54,0,0,382,257,-14707,351,-5.59,,,,,,,,,,,,
188243,1564151535663,1,2.14,0.84,0.34,1.31,1.01,0.9,0.37,0.54,-11,-0,-14,0.97,6923,14,89,44,40,940,370.0,548,458,60,124.0,153,1,317,204,54,0,0,379,486,-6640,350,-5.59,44.680912,10.024768,36.48,173.6,0,0.0,-1,0.0,0.0,0,1.11,3.1374
188263,1564151535683,-0,2.14,0.84,0.34,1.31,1.02,0.82,0.47,0.53,-12,0,-16,0.95,6975,14,89,44,40,940,371.0,539,468,60,123.0,150,1,317,204,53,0,0,381,257,-6640,350,-5.59,,,,,,,,,,,,
188283,1564151535695,3,2.14,0.85,0.34,1.3,1.02,0.83,0.38,0.6,-13,-2,-16,0.92,6972,14,89,44,40,939,372.0,551,460,60,124.0,150,1,317,204,53,0,0,380,1,-29978,348,-5.59,,,,,,,,,,,,
188303,1564151535715,-0,2.14,0.85,0.34,1.3,1.02,0.84,0.5,0.54,-13,-0,-17,0.98,6952,13,89,44,40,937,372.0,549,463,60,125.0,150,1,317,204,53,0,0,378,257,-6640,349,-5.59,,,,,,,,,,,,
188323,1564151535735,-0,2.14,0.85,0.34,1.31,1.02,0.77,0.53,0.49,-14,-1,-17,0.93,6975,14,89,44,40,935,370.0,547,465,60,122.0,150,1,317,204,53,0,0,378,486,3183,348,-5.59,,,,,,,,,,,,
188343,1564151535755,3,2.14,0.85,0.34,1.3,1.02,0.82,0.54,0.58,-14,-2,-18,0.98,6952,13,89,44,40,933,370.0,546,460,60,124.0,150,1,317,204,53,0,0,380,486,2060,348,-5.59,44.680908,10.024755,36.0,173.6,0,0.0,-1,0.0,0.0,0,1.11,3.1391
188363,1564151535775,0,2.13,0.85,0.34,1.31,1.01,0.81,0.64,0.5,-14,-0,-18,1.03,6916,13,89,44,40,931,369.0,544,460,60,124.0,152,1,317,204,53,0,0,377,-6656,2060,348,-5.59,,,,,,,,,,,,
188383,1564151535795,-2,2.14,0.85,0.34,1.3,1.02,0.79,0.67,0.52,-14,-1,-19,1.04,6913,13,89,44,40,931,369.0,537,461,60,123.0,152,1,317,204,53,0,0,377,-6656,2060,346,-5.59,,,,,,,,,,,,
188403,1564151535807,2,2.14,0.85,0.34,1.31,1.01,0.89,0.62,0.51,-15,-2,-20,1.08,6936,13,89,44,40,930,367.0,538,457,60,124.0,152,1,317,204,53,0,0,374,0,2060,347,-5.59,,,,,,,,,,,,
188423,1564151535827,-1,2.13,0.85,0.34,1.31,1.01,0.82,0.68,0.49,-14,-1,-22,1.07,6898,13,89,44,40,928,367.0,542,461,60,123.0,152,1,317,204,53,0,0,374,0,3302,346,-5.59,,,,,,,,,,,,
188443,1564151535847,3,2.14,0.85,0.34,1.31,1.01,0.91,0.57,0.52,-16,-3,-21,1.08,6895,13,89,44,40,926,366.0,539,453,60,124.0,152,1,317,204,53,0,0,375,230,3302,345,-5.59,44.680904,10.024743,35.62,173.6,0,0.0,-1,0.0,0.0,0,1.11,3.1407
188463,1564151535867,0,2.14,0.85,0.34,1.31,1.02,0.89,0.57,0.5,-15,-1,-21,1.06,6911,13,89,44,40,925,367.0,539,446,60,125.0,153,1,317,204,53,0,0,376,0,-30454,345,-5.59,,,,,,,,,,,,
188483,1564151535903,-0,2.14,0.85,0.34,1.3,1.02,0.84,0.56,0.48,-16,-3,-21,1.0,6913,13,89,44,40,923,366.0,541,439,60,124.0,153,1,317,204,53,0,0,373,230,3183,344,-5.59,,,,,,,,,,,,
188503,1564151535923,2,2.14,0.85,0.34,1.31,1.02,0.89,0.46,0.52,-16,-3,-21,1.0,6903,13,89,44,40,921,365.0,542,405,60,125.0,153,1,317,204,53,0,0,371,-6405,2811,344,-5.59,,,,,,,,,,,,
188523,1564151535943,-1,2.15,0.85,0.34,1.3,1.03,0.84,0.57,0.47,-16,-0,-22,1.02,6908,13,89,44,40,919,366.0,538,442,60,123.0,153,1,317,204,53,0,0,375,-6405,-6644,343,-5.59,,,,,,,,,,,,
188543,1564151535963,3,2.14,0.85,0.34,1.31,1.02,0.83,0.5,0.54,-16,-1,-22,0.97,6906,13,89,44,40,919,366.0,538,460,60,125.0,153,1,317,204,53,0,0,371,230,28553,343,-5.59,44.680904,10.024732,35.47,173.7,0,0.0,-1,0.0,0.0,0,1.11,3.1424
188563,1564151535983,1,2.15,0.85,0.34,1.31,1.03,0.85,0.57,0.5,-16,1,-22,1.02,6870,13,89,44,40,918,362.0,547,453,60,125.0,154,1,317,204,53,0,0,371,2790,2060,344,-5.59,,,,,,,,,,,,
188583,1564151536003,-1,2.16,0.85,0.34,1.31,1.02,0.81,0.55,0.5,-17,-1,-22,0.98,6875,13,89,44,40,918,363.0,538,460,60,123.0,154,1,317,204,53,0,0,372,3082,28553,344,-5.59,,,,,,,,,,,,
188603,1564151536010,1,2.15,0.86,0.34,1.31,1.02,0.85,0.51,0.56,-17,-1,-22,0.99,6838,13,89,44,40,917,363.0,535,440,60,125.0,154,1,317,204,53,0,0,371,3082,-30454,343,-5.59,,,,,,,,,,,,
188623,1564151536030,-0,2.16,0.85,0.34,1.31,1.03,0.84,0.52,0.56,-17,0,-22,0.99,6795,13,89,44,40,918,364.0,540,426,60,122.0,154,1,317,204,53,0,0,370,-1268,-30454,343,-5.59,,,,,,,,,,,,
188643,1564151536050,2,2.16,0.86,0.34,1.32,1.02,0.91,0.43,0.62,-17,-0,-22,1.01,6786,13,89,44,40,917,364.0,529,445,60,124.0,154,1,317,204,53,0,0,369,-1268,-1246,344,-5.59,44.680904,10.02472,35.09,173.7,0,0.0,-1,0.0,0.0,0,1.11,3.1441
188663,1564151536070,-0,2.15,0.85,0.34,1.31,1.02,0.86,0.54,0.54,-16,2,-23,1.02,6771,13,89,44,40,922,364.0,533,455,60,123.0,151,1,317,206,52,0,0,373,-1268,3183,342,-5.59,,,,,,,,,,,,
188683,1564151536106,2,2.16,0.85,0.34,1.31,1.02,0.92,0.51,0.58,-16,0,-22,1.05,6754,13,89,44,40,926,363.0,528,460,60,125.0,151,1,317,204,52,0,0,374,3082,3183,342,-5.59,,,,,,,,,,,,
188703,1564151536126,-1,2.16,0.85,0.34,1.31,1.02,0.82,0.57,0.58,-16,2,-24,1.0,6684,13,89,44,41,931,362.0,529,462,60,124.0,151,1,324,206,52,0,0,370,2790,3183,342,-5.59,,,,,,,,,,,,
188723,1564151536146,0,2.18,0.85,0.34,1.31,1.03,0.88,0.49,0.52,-16,2,-23,1.01,6656,12,89,44,41,935,360.0,523,455,60,125.0,151,1,324,206,52,0,0,367,-14707,28553,341,-5.59,,,,,,,,,,,,
188743,1564151536166,1,2.18,0.85,0.34,1.31,1.03,0.83,0.49,0.53,-16,1,-22,0.97,6644,12,89,44,41,939,360.0,527,460,60,123.0,151,1,324,206,52,0,0,369,-29302,28553,340,-5.59,44.680901,10.024708,34.83,173.7,0,0.0,-1,0.0,0.0,0,1.11,3.1457
188763,1564151536186,2,2.19,0.86,0.34,1.32,1.02,0.88,0.42,0.55,-16,-0,-22,0.98,6618,12,89,44,41,944,360.0,525,445,60,123.0,149,1,324,206,51,0,0,367,-14707,-30454,339,-5.59,,,,,,,,,,,,
188783,1564151536196,4,2.21,0.86,0.34,1.32,1.02,0.81,0.45,0.58,-16,-1,-22,0.93,6616,12,89,44,41,945,359.0,521,460,60,124.0,149,1,324,206,51,0,0,365,-29302,2811,341,-5.59,,,,,,,,,,,,
188803,1564151536216,-1,2.22,0.86,0.34,1.31,1.02,0.86,0.51,0.54,-15,0,-21,1.0,6565,12,89,44,42,946,358.0,523,466,60,124.0,149,1,330,207,51,0,0,364,-29978,-30454,341,-5.59,,,,,,,,,,,,
188823,1564151536236,2,2.22,0.86,0.34,1.32,1.03,0.84,0.37,0.55,-15,-2,-20,0.91,6553,12,89,44,41,945,356.0,520,457,60,124.0,149,1,323,206,51,0,0,362,2060,-30438,343,-5.59,,,,,,,,,,,,
188843,1564151536256,4,2.24,0.85,0.34,1.32,1.02,0.76,0.44,0.56,-13,-1,-20,0.88,6535,12,89,44,41,947,355.0,519,462,60,124.0,149,1,323,206,51,0,0,366,2060,-10554,342,-5.59,44.680893,10.024697,34.94,173.7,0,0.0,-1,0.0,0.0,0,1.11,3.1474
188863,1564151536276,1,2.25,0.86,0.34,1.32,1.02,0.86,0.46,0.47,-12,1,-19,0.97,6549,12,89,44,41,947,354.0,519,456,60,124.0,149,1,323,207,51,0,0,361,3302,-30454,343,-5.59,,,,,,,,,,,,
188883,1564151536296,4,2.26,0.86,0.35,1.31,1.03,0.86,0.38,0.49,-12,-3,-18,0.94,6549,11,89,44,41,946,352.0,514,462,60,125.0,149,1,323,207,51,0,0,359,28553,28553,343,-5.59,,,,,,,,,,,,
188903,1564151536310,2,2.28,0.87,0.35,1.32,1.03,0.8,0.34,0.52,-11,-2,-19,0.87,6539,11,89,44,42,947,349.0,520,462,60,123.0,149,1,330,207,51,0,0,357,2811,-1246,343,-5.59,,,,,,,,,,,,
188923,1564151536330,2,2.29,0.87,0.35,1.33,1.03,0.87,0.35,0.4,-10,-1,-18,0.94,6533,11,89,44,41,945,346.0,515,461,60,125.0,149,1,323,206,51,0,0,357,-30438,-30454,342,-5.59,,,,,,,,,,,,
188943,1564151536350,5,2.29,0.88,0.35,1.33,1.04,0.89,0.27,0.48,-10,-3,-17,0.93,6555,11,89,44,41,944,344.0,512,461,60,123.0,149,1,323,206,51,0,0,353,-10554,8841,339,-5.59,44.680889,10.024687,34.86,173.7,0,0.0,-1,0.0,0.0,0,1.12,3.149
188963,1564151536370,1,2.3,0.88,0.35,1.33,1.03,0.89,0.28,0.48,-9,-3,-16,0.93,6551,11,89,44,41,944,345.0,517,463,60,123.0,150,1,323,206,51,0,0,350,6870,-10554,338,-5.59,,,,,,,,,,,,
188983,1564151536404,3,2.3,0.88,0.36,1.33,1.03,0.92,0.22,0.46,-9,-5,-14,0.94,6578,11,89,44,41,944,341.0,518,455,60,125.0,150,1,323,206,51,0,0,349,6668,3327,339,181.28,,,,,,,,,,,,
189003,1564151536424,7,2.32,0.89,0.35,1.34,1.04,0.85,0.23,0.49,-8,-4,-13,0.88,6578,11,89,44,41,948,339.0,520,463,60,124.0,150,1,323,206,51,0,0,349,-122,6668,338,414.87,,,,,,,,,,,,
189023,1564151536444,5,2.32,0.9,0.36,1.34,1.05,0.9,0.26,0.44,-7,-2,-12,0.93,6542,11,89,44,41,951,338.0,520,458,60,124.0,150,1,323,206,51,0,0,346,-31222,6870,335,-5.59,,,,,,,,,,,,
189043,1564151536464,8,2.32,0.9,0.36,1.34,1.04,0.86,0.15,0.52,-6,-2,-12,0.87,6512,11,89,44,41,953,335.0,516,462,60,125.0,150,1,323,206,51,0,0,344,4838,-31206,335,-5.59,44.680885,10.024676,34.37,173.7,0,0.0,-1,0.0,0.0,0,1.12,3.1507
189063,1564151536484,10,2.33,0.9,0.36,1.35,1.04,0.86,0.17,0.57,-6,-1,-12,0.88,6505,11,89,44,41,958,334.0,506,462,60,123.0,150,1,323,206,50,0,0,339,4838,-31206,334,-5.59,,,,,,,,,,,,
189083,1564151536498,6,2.34,0.89,0.36,1.34,1.05,0.95,0.17,0.44,-5,-1,-10,0.96,6499,11,89,44,41,961,331.0,510,460,60,124.0,150,1,323,206,50,0,0,340,175,-122,332,-5.59,,,,,,,,,,,,
189103,1564151536518,8,2.35,0.89,0.36,1.34,1.05,0.94,0.1,0.47,-5,-4,-8,0.95,6485,11,89,44,41,963,330.0,503,458,60,125.0,150,1,323,206,50,0,0,336,170,-31222,330,-5.59,,,,,,,,,,,,
189123,1564151536538,9,2.34,0.9,0.36,1.35,1.04,0.85,0.09,0.53,-4,-3,-9,0.85,6427,11,89,44,41,964,331.0,510,463,60,124.0,150,1,323,206,50,0,0,336,-20736,-122,331,-5.59,,,,,,,,,,,,
189143,1564151536558,4,2.35,0.9,0.36,1.34,1.05,0.92,0.12,0.4,-3,-2,-8,0.92,6321,10,89,44,41,963,329.0,506,462,60,123.0,150,1,323,207,50,0,0,337,170,13,329,-5.59,44.680882,10.024666,34.1,173.8,0,0.0,-1,0.0,0.0,0,1.12,3.1524
189163,1564151536578,5,2.37,0.9,0.36,1.34,1.04,0.94,0.13,0.3,-2,-1,-7,0.95,6229,9,89,44,41,962,328.0,500,461,60,124.0,148,1,323,207,49,0,0,336,-22016,2560,328,-5.59,,,,,,,,,,,,
189183,1564151536598,4,2.36,0.9,0.36,1.34,1.05,0.96,0.13,0.32,-2,-1,-5,0.97,6153,9,89,44,42,959,328.0,491,465,60,124.0,148,1,329,206,49,0,0,333,160,13,328,-5.59,,,,,,,,,,,,
189203,1564151536610,7,2.36,0.9,0.36,1.35,1.04,0.95,0.11,0.33,-1,-2,-4,0.96,6079,8,89,44,41,956,326.0,479,460,60,124.0,148,1,322,205,49,0,0,328,155,-6528,326,-5.59,,,,,,,,,,,,
189223,1564151536630,6,2.36,0.9,0.36,1.34,1.05,0.88,0.06,0.38,-1,-3,-4,0.88,6040,8,89,44,41,954,325.0,478,463,60,123.0,148,1,322,205,49,0,0,328,-27136,4838,325,-5.59,,,,,,,,,,,,
189243,1564151536650,7,2.37,0.9,0.36,1.34,1.04,0.83,0.0,0.44,-1,-4,-3,0.83,5984,8,89,44,42,949,322.0,477,463,60,124.0,148,1,327,206,49,0,0,327,145,4838,322,-5.59,44.680878,10.024655,33.29,173.8,0,0.0,-1,0.0,0.0,0,1.12,3.154
189263,1564151536670,7,2.36,0.91,0.36,1.35,1.04,0.76,-0.03,0.47,-0,-4,-3,0.77,5931,8,89,44,42,945,320.0,478,462,60,123.0,142,1,323,206,46,0,0,324,-29696,-23296,320,-5.59,,,,,,,,,,,,
189283,1564151536706,5,2.36,0.9,0.37,1.35,1.05,0.73,-0.07,0.46,-0,-6,-2,0.73,5912,8,89,44,42,943,318.0,466,462,60,124.0,142,1,322,206,46,0,0,321,135,-25856,318,-5.59,,,,,,,,,,,,
189303,1564151536726,4,2.36,0.89,0.36,1.34,1.05,0.74,-0.06,0.43,-0,-7,-2,0.75,5859,7,89,44,42,941,316.0,477,464,60,123.0,142,1,318,206,46,0,0,320,-30976,160,316,-5.59,,,,,,,,,,,,
189323,1564151536746,5,2.37,0.9,0.36,1.34,1.05,0.82,-0.02,0.42,-0,-8,-2,0.82,5837,7,89,44,42,936,315.0,477,460,60,123.0,142,1,316,206,46,0,0,316,-32256,150,313,-5.59,,,,,,,,,,,,
189343,1564151536766,6,2.36,0.91,0.36,1.35,1.05,0.94,-0.02,0.43,-0,-8,-1,0.94,5749,7,89,44,43,933,312.0,467,462,60,124.0,142,1,315,207,46,0,0,314,125,-29696,312,-5.59,44.68087,10.024646,32.65,173.8,0,0.0,-1,0.0,0.0,0,1.12,3.1557
189363,1564151536786,8,2.36,0.9,0.37,1.35,1.05,1.05,-0.03,0.41,-0,-8,-1,1.05,5706,7,89,44,44,930,312.0,461,464,60,123.0,144,1,317,208,45,0,0,314,120,145,312,-5.59,,,,,,,,,,,,
189383,1564151536796,7,2.37,0.9,0.37,1.35,1.05,0.99,-0.03,0.38,0,-6,-1,1.0,5637,7,89,44,44,927,310.0,448,466,60,123.0,144,1,312,208,45,0,0,310,29440,-29696,308,-5.59,,,,,,,,,,,,
189403,1564151536816,6,2.37,0.9,0.36,1.35,1.04,0.86,-0.05,0.33,1,-5,-1,0.86,5540,7,89,44,45,918,306.0,442,462,60,124.0,144,1,309,209,45,0,0,307,26880,135,306,-5.59,,,,,,,,,,,,
189423,1564151536836,10,2.37,0.91,0.36,1.34,1.05,0.98,-0.02,0.27,1,-6,-0,0.98,5460,7,89,44,46,908,305.0,435,466,60,123.0,144,1,306,211,45,0,0,306,100,130,305,-5.59,,,,,,,,,,,,
189443,1564151536856,7,2.38,0.9,0.36,1.35,1.05,0.96,-0.0,0.24,2,-2,0,0.96,5381,7,89,44,47,903,302.0,420,463,60,124.0,144,1,304,213,45,0,0,305,24320,-32256,302,-5.59,44.680866,10.024635,31.98,173.9,0,0.0,-1,0.0,0.0,0,1.12,3.1574
189463,1564151536876,6,2.37,0.91,0.36,1.34,1.04,0.89,0.02,0.22,2,-2,1,0.89,5290,7,89,44,48,895,303.0,423,463,60,123.0,142,1,300,215,43,0,0,302,23040,120,303,-5.59,,,,,,,,,,,,
189483,1564151536896,6,2.38,0.9,0.36,1.35,1.04,1.0,0.04,0.22,2,-1,2,1.0,5281,7,89,44,49,883,300.0,413,463,60,123.0,142,1,303,219,43,0,0,298,21760,29440,300,-5.59,,,,,,,,,,,,
189503,1564151536908,6,2.37,0.91,0.36,1.35,1.05,0.93,0.05,0.21,3,-4,3,0.93,5275,7,89,44,49,870,297.0,411,467,60,123.0,142,1,302,219,43,0,0,294,0,95,297,-5.59,,,,,,,,,,,,
189523,1564151536928,8,2.37,0.9,0.36,1.35,1.05,1.02,0.05,0.23,3,-3,3,1.02,5308,7,89,44,50,864,293.0,411,460,60,122.0,142,1,309,223,43,0,0,289,41,0,293,-5.59,,,,,,,,,,,,
189543,1564151536948,7,2.38,0.91,0.36,1.36,1.04,0.94,0.05,0.16,3,-2,4,0.94,5439,7,89,44,50,860,290.0,432,463,60,123.0,142,1,321,224,43,0,0,285,250,0,290,-5.59,44.680866,10.024626,30.83,173.9,0,0.0,-1,0.0,0.0,0,1.12,3.159
189563,1564151536968,9,2.37,0.91,0.36,1.35,1.05,1.04,0.04,0.22,3,-4,3,1.05,5500,7,89,44,50,856,287.0,436,464,60,122.0,159,1,326,152,46,0,0,285,250,-16896,287,-5.59,,,,,,,,,,,,
189583,1564151537001,8,2.38,0.91,0.36,1.36,1.05,1.07,0.01,0.25,3,-3,4,1.07,5572,7,89,44,50,854,284.0,438,462,60,122.0,159,1,332,225,46,0,0,283,630,0,283,-5.59,,,,,,,,,,,,
189603,1564151537021,7,2.36,0.91,0.36,1.35,1.05,0.92,-0.05,0.28,3,-2,4,0.92,5540,7,89,44,50,855,282.0,440,465,60,123.0,159,1,329,224,46,0,0,281,250,-16896,282,-5.59,,,,,,,,,,,,
189623,1564151537041,4,2.37,0.91,0.37,1.35,1.05,0.95,-0.02,0.22,3,-2,3,0.95,5544,7,89,44,51,857,280.0,440,465,60,123.0,159,1,334,229,46,0,0,280,-1527,10686,280,-5.59,,,,,,,,,,,,
189643,1564151537061,7,2.37,0.91,0.36,1.36,1.05,1.04,0.0,0.21,4,-1,3,1.04,5485,7,89,44,50,860,278.0,434,463,60,123.0,159,1,325,224,46,0,0,280,-1281,250,278,-5.59,44.680862,10.024617,29.48,173.9,0,0.0,-1,0.0,0.0,0,1.12,3.1607
189663,1564151537081,4,2.37,0.91,0.37,1.35,1.05,0.92,-0.04,0.26,4,0,4,0.92,5431,7,89,44,50,863,275.0,431,462,60,124.0,166,1,320,224,46,0,0,276,-1,-1529,275,-5.59,,,,,,,,,,,,
189683,1564151537091,7,2.37,0.91,0.37,1.35,1.06,0.99,-0.03,0.22,3,-0,4,0.99,5391,7,89,44,51,865,274.0,437,465,60,123.0,166,1,321,228,46,0,0,274,-1,250,274,-5.59,,,,,,,,,,,,
189703,1564151537111,5,2.37,0.91,0.37,1.35,1.06,0.99,-0.02,0.25,4,1,4,0.99,5377,7,89,44,51,867,273.0,428,465,60,124.0,166,1,319,227,46,0,0,271,-1,-1534,273,-5.59,,,,,,,,,,,,
189723,1564151537131,4,2.36,0.91,0.37,1.35,1.05,0.96,0.01,0.27,3,-1,5,0.96,5301,7,89,44,51,867,272.0,418,464,60,123.0,166,1,313,226,46,0,0,269,-1,30208,269,-5.59,,,,,,,,,,,,
189743,1564151537151,3,2.36,0.91,0.37,1.35,1.06,0.97,0.01,0.31,3,0,5,0.97,5247,7,89,44,52,868,269.0,412,462,60,123.0,166,1,312,229,46,0,0,268,-1,-1527,269,-5.59,44.680859,10.024608,28.34,173.9,0,0.0,-1,0.0,0.0,0,1.12,3.1624
189763,1564151537171,7,2.37,0.91,0.36,1.35,1.06,0.97,0.04,0.28,3,0,6,0.97,5201,7,89,44,52,867,267.0,420,465,60,123.0,167,1,308,229,45,0,0,270,-1,-1281,267,-5.59,,,,,,,,,,,,
189783,1564151537191,3,2.37,0.91,0.36,1.36,1.05,0.97,0.05,0.36,3,0,5,0.97,5189,7,89,44,52,865,267.0,406,460,60,125.0,167,1,307,228,45,0,0,267,-1,-1281,267,181.28,,,,,,,,,,,,
189803,1564151537207,5,2.36,0.91,0.37,1.35,1.05,0.97,0.01,0.3,3,-2,4,0.97,5121,7,89,44,53,862,264.0,405,466,60,122.0,167,1,306,230,45,0,0,267,-41,-1,264,-5.59,,,,,,,,,,,,
189823,1564151537227,3,2.36,0.91,0.37,1.36,1.05,0.87,0.01,0.3,4,1,5,0.87,5066,7,89,44,53,858,262.0,397,463,60,124.0,167,1,301,230,45,0,0,262,-10440,-1,262,-5.59,,,,,,,,,,,,
189843,1564151537247,3,2.37,0.91,0.37,1.36,1.05,0.97,0.07,0.35,4,0,5,0.97,5034,7,89,44,54,855,261.0,397,462,60,124.0,167,1,303,232,45,0,0,261,-41,-1,261,-5.59,44.680855,10.024599,27.09,173.9,0,0.0,-1,0.0,0.0,0,1.12,3.1641
189863,1564151537267,7,2.36,0.92,0.37,1.36,1.05,0.92,0.02,0.28,4,-1,4,0.92,4964,7,89,44,54,852,260.0,396,466,60,123.0,164,1,296,231,43,0,0,262,506,-1,260,-5.59,,,,,,,,,,,,
189883,1564151537299,3,2.36,0.91,0.37,1.36,1.05,0.82,0.01,0.29,4,2,5,0.82,4881,7,89,44,54,851,259.0,392,464,60,123.0,164,1,285,158,43,0,0,261,-1,-1,259,-5.59,,,,,,,,,,,,
189903,1564151537319,3,2.37,0.91,0.37,1.36,1.05,0.88,0.03,0.42,4,1,4,0.88,4865,7,89,44,55,850,257.0,381,461,60,124.0,164,1,280,230,43,0,0,258,-1,-41,257,181.28,,,,,,,,,,,,
189923,1564151537339,3,2.38,0.91,0.37,1.35,1.06,0.94,0.07,0.39,4,-0,4,0.94,4810,7,89,44,55,850,257.0,375,466,60,124.0,164,1,273,233,43,0,0,257,-214,-1,257,-5.59,,,,,,,,,,,,
189943,1564151537359,6,2.37,0.91,0.37,1.36,1.05,0.9,0.05,0.34,3,0,5,0.91,4703,7,89,44,55,851,255.0,380,466,60,123.0,164,1,260,232,43,0,0,255,-214,-10440,255,-5.59,44.680851,10.024591,26.42,173.9,0,0.0,-1,0.0,0.0,0,1.12,3.1657
189963,1564151537379,7,2.37,0.91,0.37,1.35,1.06,0.88,0.04,0.3,3,0,5,0.88,4692,7,89,44,55,853,252.0,373,467,60,122.0,162,1,258,232,41,0,0,253,16896,-10440,252,-5.59,,,,,,,,,,,,
189983,1564151537393,7,2.36,0.9,0.37,1.36,1.05,0.83,0.05,0.24,3,1,5,0.83,4621,7,89,44,55,857,251.0,375,464,60,122.0,162,1,249,232,41,0,0,253,250,506,250,-5.59,,,,,,,,,,,,
190003,1564151537413,7,2.37,0.91,0.37,1.36,1.05,0.8,0.04,0.23,3,1,4,0.8,4620,7,89,44,55,861,249.0,364,467,60,122.0,162,1,249,236,41,0,0,250,250,-1,249,-5.59,,,,,,,,,,,,
190023,1564151537433,3,2.38,0.92,0.36,1.36,1.05,0.76,0.08,0.27,3,2,4,0.77,4574,7,89,44,55,864,247.0,363,462,60,124.0,162,1,243,231,41,0,0,251,10812,506,247,-5.59,,,,,,,,,,,,
190043,1564151537453,4,2.37,0.92,0.37,1.35,1.06,0.78,0.08,0.31,3,3,3,0.79,4544,7,89,44,55,869,246.0,359,457,60,123.0,162,1,239,231,41,0,0,247,-1445,-1,246,-5.59,44.680847,10.024583,25.72,173.9,0,0.0,-1,0.0,0.0,0,1.13,3.1674
190063,1564151537473,1,2.38,0.91,0.36,1.35,1.06,0.81,0.1,0.35,3,3,3,0.81,4512,7,89,44,56,876,245.0,353,457,60,124.0,162,1,234,231,40,0,0,248,23482,-1,245,-5.59,,,,,,,,,,,,
190083,1564151537508,3,2.38,0.91,0.36,1.36,1.05,0.82,0.08,0.4,4,3,2,0.82,4476,7,89,44,55,883,245.0,352,465,60,124.0,162,1,231,158,40,0,0,246,250,10818,245,-5.59,,,,,,,,,,,,
190103,1564151537528,2,2.37,0.91,0.37,1.35,1.05,0.81,0.11,0.43,4,3,2,0.82,4430,7,89,44,55,887,244.0,349,463,60,122.0,162,1,225,234,40,0,0,246,13468,16896,244,-5.59,,,,,,,,,,,,
190123,1564151537548,6,2.38,0.91,0.36,1.36,1.05,0.83,0.09,0.44,4,4,2,0.83,4452,7,89,44,55,892,241.0,351,465,60,122.0,162,1,228,234,40,0,0,244,13468,-1494,241,-5.59,,,,,,,,,,,,
190143,1564151537568,5,2.39,0.91,0.36,1.35,1.06,0.8,0.1,0.46,4,4,2,0.81,4401,7,89,44,55,898,240.0,348,463,60,121.0,162,1,221,234,40,0,0,242,13602,15360,240,-5.59,44.680847,10.024574,24.83,173.9,0,0.0,-1,0.0,0.0,0,1.13,3.169
190163,1564151537588,6,2.39,0.92,0.36,1.36,1.05,0.79,0.11,0.44,4,5,2,0.79,4441,7,89,44,55,904,240.0,348,466,60,122.0,162,1,226,234,39,0,0,240,8704,250,240,-5.59,,,,,,,,,,,,
190183,1564151537601,4,2.4,0.91,0.36,1.36,1.06,0.78,0.09,0.42,4,4,3,0.79,4424,7,89,44,56,906,238.0,351,471,60,122.0,162,1,223,234,39,0,0,235,8704,-1445,238,-5.59,,,,,,,,,,,,
190203,1564151537621,2,2.4,0.92,0.37,1.36,1.06,0.77,0.09,0.36,4,4,3,0.77,4383,7,89,44,56,908,238.0,342,470,60,123.0,162,1,218,162,39,0,0,238,250,23482,238,-5.59,,,,,,,,,,,,
190223,1564151537641,3,2.4,0.92,0.37,1.35,1.05,0.77,0.09,0.3,4,4,4,0.78,4389,7,89,44,56,911,237.0,348,468,60,122.0,162,1,218,233,39,0,0,236,-1494,-17920,237,-5.59,,,,,,,,,,,,
190243,1564151537661,3,2.4,0.92,0.36,1.36,1.06,0.83,0.07,0.25,5,3,4,0.83,4383,7,89,44,56,913,236.0,341,469,60,123.0,162,1,215,233,39,0,0,233,10824,250,236,-5.59,44.680843,10.024568,24.32,173.9,0,0.0,-1,0.0,0.0,0,1.13,3.1707
190263,1564151537681,2,2.42,0.92,0.37,1.37,1.06,0.85,0.04,0.23,5,3,5,0.85,4363,7,89,44,56,912,235.0,343,467,60,124.0,157,1,215,233,37,0,0,234,250,23482,235,-5.59,,,,,,,,,,,,
190283,1564151537701,0,2.42,0.92,0.37,1.36,1.06,0.87,0.01,0.23,5,2,6,0.87,4389,7,89,44,56,912,235.0,337,462,60,125.0,157,1,218,233,37,0,0,231,10318,-1483,235,181.28,,,,,,,,,,,,
190303,1564151537709,1,2.42,0.92,0.37,1.36,1.05,0.9,-0.01,0.24,5,1,6,0.9,4371,7,89,44,56,911,234.0,340,462,60,125.0,157,1,216,233,37,0,0,230,250,-25600,234,414.87,,,,,,,,,,,,
190323,1564151537729,1,2.43,0.92,0.36,1.36,1.06,0.93,-0.03,0.31,5,-1,6,0.93,4363,7,89,44,56,909,231.0,341,460,60,124.0,157,1,215,162,37,0,0,229,-1530,-25600,231,-5.59,,,,,,,,,,,,
190343,1564151537749,0,2.43,0.92,0.37,1.36,1.06,0.97,-0.02,0.39,6,-2,6,0.97,4398,7,89,44,56,908,230.0,340,461,60,125.0,157,1,220,233,37,0,0,226,1596,250,230,181.28,44.68084,10.024559,23.8,173.9,0,0.0,-1,0.0,0.0,0,1.13,3.1724
190363,1564151537769,0,2.42,0.92,0.37,1.36,1.05,0.96,-0.02,0.47,6,-2,6,0.96,4354,7,89,44,56,907,230.0,340,462,60,124.0,165,1,214,233,38,0,0,225,250,13602,230,-5.59,,,,,,,,,,,,
190383,1564151537805,3,2.43,0.92,0.36,1.37,1.05,0.93,-0.03,0.53,6,-1,5,0.93,4399,7,89,44,55,909,229.0,343,464,60,122.0,165,1,221,233,38,0,0,225,-1532,250,229,-5.59,,,,,,,,,,,,
190403,1564151537825,5,2.43,0.92,0.37,1.36,1.05,0.88,-0.01,0.55,6,-1,5,0.88,4384,7,89,44,56,910,227.0,349,468,60,123.0,165,1,218,162,38,0,0,223,-17920,8704,227,-5.59,,,,,,,,,,,,
190423,1564151537845,5,2.43,0.92,0.37,1.36,1.06,0.86,-0.0,0.52,6,0,6,0.86,4370,7,89,44,55,913,227.0,345,468,60,122.0,165,1,217,233,38,0,0,222,250,18432,227,-5.59,,,,,,,,,,,,
190443,1564151537865,3,2.44,0.92,0.36,1.36,1.06,0.83,-0.01,0.48,6,2,6,0.83,4401,7,89,44,56,915,225.0,345,467,60,123.0,165,1,220,234,38,0,0,220,-1532,250,225,-5.59,44.680836,10.024552,22.97,174.0,0,0.0,-1,0.0,0.0,0,1.13,3.1741
190463,1564151537885,3,2.45,0.92,0.37,1.37,1.06,0.85,-0.03,0.44,6,1,7,0.85,4373,7,89,44,56,921,225.0,348,470,60,122.0,173,1,216,233,39,0,0,220,1088,-1496,225,-5.59,,,,,,,,,,,,
190483,1564151537895,3,2.45,0.92,0.36,1.37,1.05,0.85,-0.06,0.39,6,1,8,0.85,4365,7,89,44,56,926,223.0,342,467,60,124.0,173,1,215,162,39,0,0,217,1088,18432,223,-5.59,,,,,,,,,,,,
190503,1564151537915,1,2.45,0.92,0.36,1.36,1.05,0.87,-0.06,0.33,6,0,9,0.87,4397,7,89,44,56,929,223.0,340,462,60,124.0,173,1,220,162,39,0,0,217,16384,-1496,223,-5.59,,,,,,,,,,,,
190523,1564151537935,1,2.46,0.92,0.37,1.36,1.06,0.91,-0.08,0.33,6,1,9,0.91,4391,7,89,44,56,931,222.0,338,463,60,124.0,173,1,219,162,39,0,0,216,250,-1496,222,-5.59,,,,,,,,,,,,
190543,1564151537955,-0,2.46,0.92,0.37,1.36,1.06,0.94,-0.08,0.34,7,-0,9,0.94,4360,7,89,44,56,936,221.0,340,464,60,125.0,173,1,215,233,39,0,0,217,-1533,10318,221,181.28,44.680836,10.024545,22.49,174.0,0,0.0,-1,0.0,0.0,0,1.13,3.1757
190563,1564151537975,1,2.45,0.92,0.36,1.37,1.06,0.95,-0.11,0.39,7,-1,9,0.95,4375,7,89,44,56,941,221.0,341,462,60,124.0,171,1,217,233,38,0,0,214,-14848,1596,221,-5.59,,,,,,,,,,,,
190583,1564151537995,1,2.46,0.92,0.36,1.36,1.05,0.96,-0.12,0.49,7,-2,9,0.96,4301,7,89,44,56,944,221.0,337,465,60,124.0,171,1,208,233,38,0,0,215,-14848,19968,220,-5.59,,,,,,,,,,,,
190603,1564151538004,5,2.46,0.92,0.36,1.36,1.05,0.95,-0.12,0.59,7,-2,8,0.96,4267,7,89,44,56,946,219.0,338,460,60,123.0,171,1,203,232,38,0,0,216,-14848,-1496,219,-5.59,,,,,,,,,,,,
190623,1564151538024,2,2.47,0.92,0.37,1.36,1.05,0.91,-0.12,0.59,7,-0,8,0.92,4131,7,89,44,56,948,220.0,332,472,60,122.0,171,1,187,232,38,0,0,219,966,250,220,-5.59,,,,,,,,,,,,
190643,1564151538044,2,2.47,0.92,0.37,1.36,1.06,0.91,-0.11,0.54,7,-1,9,0.92,4030,7,89,44,56,950,220.0,319,470,60,123.0,171,1,174,232,38,0,0,218,-14848,10318,220,-5.59,44.680832,10.024538,21.92,174.0,0,0.0,-1,0.0,0.0,0,1.13,3.1774
190663,1564151538064,1,2.47,0.92,0.37,1.36,1.05,0.92,-0.13,0.55,7,-2,10,0.93,4013,7,89,44,56,951,220.0,314,460,60,125.0,159,1,172,232,35,0,0,216,-14848,19968,220,181.28,,,,,,,,,,,,
190683,1564151538098,3,2.47,0.92,0.37,1.37,1.06,0.9,-0.11,0.51,7,-1,9,0.9,3949,7,89,44,56,950,220.0,319,468,60,122.0,159,1,168,230,35,0,0,214,-1482,250,220,-5.59,,,,,,,,,,,,
190703,1564151538118,1,2.48,0.92,0.36,1.36,1.05,0.9,-0.1,0.52,7,-1,10,0.9,3917,7,89,44,57,951,218.0,306,465,60,124.0,159,1,167,233,35,0,0,211,13964,1596,218,181.28,,,,,,,,,,,,
190723,1564151538138,6,2.48,0.92,0.36,1.36,1.06,0.93,-0.12,0.52,8,-1,10,0.93,3959,7,89,44,57,951,219.0,315,457,60,124.0,159,1,169,163,35,0,0,209,-29696,15360,219,-5.59,,,,,,,,,,,,
190743,1564151538158,2,2.48,0.92,0.37,1.36,1.05,0.91,-0.13,0.49,8,1,9,0.92,3919,7,89,44,57,952,217.0,310,468,60,122.0,159,1,167,234,35,0,0,210,250,1596,217,-5.59,44.680832,10.02453,21.54,174.0,0,0.0,-1,0.0,0.0,0,1.13,3.179
190763,1564151538178,2,2.49,0.92,0.36,1.36,1.05,0.92,-0.15,0.5,8,-1,11,0.93,3908,7,89,44,57,953,216.0,305,462,60,125.0,156,1,167,233,34,0,0,206,250,1210,216,414.87,,,,,,,,,,,,
190783,1564151538192,4,2.51,0.92,0.36,1.36,1.05,0.89,-0.19,0.48,8,0,10,0.91,3927,7,89,44,57,952,216.0,309,456,60,124.0,156,1,168,233,34,0,0,206,13874,-17920,215,-5.59,,,,,,,,,,,,
190803,1564151538212,0,2.53,0.92,0.37,1.36,1.06,0.89,-0.17,0.47,9,0,11,0.9,3911,7,89,44,57,950,215.0,306,474,60,123.0,156,1,167,233,34,0,0,205,13874,250,215,-5.59,,,,,,,,,,,,
190823,1564151538232,4,2.54,0.92,0.37,1.36,1.05,0.92,-0.18,0.46,9,-1,12,0.94,3869,7,89,44,57,948,215.0,301,458,60,125.0,156,1,165,232,34,0,0,205,14412,-1532,215,181.28,,,,,,,,,,,,
190843,1564151538252,2,2.56,0.92,0.37,1.36,1.06,0.91,-0.19,0.42,10,0,11,0.93,3921,7,89,44,57,944,214.0,310,468,60,121.0,156,1,168,233,34,0,0,200,14412,250,214,-5.59,44.680828,10.024524,21.54,174.0,0,0.0,-1,0.0,0.0,0,1.13,3.1807
190863,1564151538272,2,2.57,0.92,0.37,1.37,1.05,0.91,-0.19,0.41,11,-1,14,0.93,3914,7,89,44,57,942,214.0,304,464,60,124.0,158,1,167,233,34,0,0,197,-1481,250,214,181.28,,,,,,,,,,,,
190883,1564151538305,3,2.58,0.93,0.37,1.36,1.05,0.9,-0.21,0.39,11,0,13,0.93,3877,7,89,44,57,939,214.0,307,460,60,121.0,158,1,166,161,34,0,0,198,14326,-17920,214,-5.59,,,,,,,,,,,,
190903,1564151538325,1,2.59,0.92,0.36,1.36,1.05,0.91,-0.21,0.41,12,0,14,0.93,3890,7,89,44,57,937,213.0,305,465,60,122.0,158,1,166,232,34,0,0,195,250,250,213,-5.59,,,,,,,,,,,,
190923,1564151538345,5,2.59,0.92,0.36,1.37,1.05,0.94,-0.23,0.4,12,-1,15,0.97,3884,7,89,44,57,937,212.0,306,454,60,124.0,158,1,166,232,34,0,0,195,-1281,16384,212,-5.59,,,,,,,,,,,,
190943,1564151538365,2,2.61,0.92,0.36,1.37,1.05,0.92,-0.24,0.41,13,0,15,0.95,3842,7,89,44,57,940,211.0,306,473,60,122.0,158,1,164,232,34,0,0,193,-1,250,211,-5.59,44.680824,10.024516,21.12,174.0,0,0.0,-1,0.0,0.0,0,1.13,3.1824
190963,1564151538385,2,2.61,0.92,0.36,1.36,1.06,0.95,-0.25,0.42,13,-2,16,0.98,3861,7,89,44,57,945,210.0,303,461,60,125.0,156,1,165,232,33,0,0,192,-1,16384,210,181.28,,,,,,,,,,,,
190983,1564151538396,2,2.62,0.93,0.36,1.37,1.05,0.94,-0.25,0.39,13,-1,16,0.97,3850,7,89,44,57,951,209.0,305,458,60,121.0,156,1,165,232,33,0,0,191,-1,-1533,209,-5.59,,,,,,,,,,,,
191003,1564151538416,0,2.63,0.93,0.36,1.36,1.06,0.9,-0.24,0.42,14,-2,18,0.93,3812,7,89,44,58,956,209.0,302,471,60,123.0,156,1,163,235,33,0,0,189,-1,-1533,208,414.87,,,,,,,,,,,,
191023,1564151538436,3,2.63,0.93,0.36,1.36,1.05,0.9,-0.25,0.38,14,-1,18,0.93,3796,7,89,44,58,962,208.0,302,458,60,123.0,156,1,162,234,33,0,0,187,-1,-14848,208,-5.59,,,,,,,,,,,,
191043,1564151538456,2,2.65,0.93,0.37,1.36,1.06,0.88,-0.26,0.44,15,-2,19,0.92,3764,7,89,44,58,968,208.0,295,471,60,123.0,156,1,161,234,33,0,0,188,-1,250,208,414.87,44.680824,10.024509,20.32,174.0,0,0.0,-1,0.0,0.0,0,1.13,3.1841
191063,1564151538476,1,2.66,0.93,0.37,1.36,1.06,0.87,-0.27,0.4,15,0,19,0.91,3709,7,89,44,58,974,208.0,300,454,60,123.0,158,1,159,233,33,0,0,186,-1,-1533,208,-5.59,,,,,,,,,,,,
191083,1564151538496,1,2.67,0.92,0.37,1.36,1.06,0.88,-0.27,0.44,16,-1,20,0.91,3688,7,89,44,59,974,207.0,291,467,60,125.0,158,1,158,232,33,0,0,187,-1,250,207,414.87,,,,,,,,,,,,
191103,1564151538508,0,2.67,0.92,0.36,1.36,1.05,0.85,-0.28,0.39,16,1,21,0.9,3593,7,89,44,59,975,208.0,293,461,60,122.0,158,1,153,234,33,0,0,184,-1,966,208,-5.59,,,,,,,,,,,,
191123,1564151538528,4,2.69,0.93,0.36,1.37,1.06,0.89,-0.3,0.47,17,-3,22,0.94,3540,7,89,44,60,976,207.0,283,465,60,126.0,158,1,151,237,33,0,0,183,-1,250,207,181.28,,,,,,,,,,,,
191143,1564151538548,1,2.68,0.93,0.37,1.36,1.05,0.86,-0.31,0.47,17,-2,23,0.92,3504,6,89,44,61,977,206.0,278,466,60,124.0,158,1,150,241,33,0,0,182,-236,-1482,206,181.28,44.680824,10.024503,20.16,174.0,0,0.0,-1,0.0,0.0,0,1.13,3.1857
191163,1564151538568,0,2.7,0.92,0.37,1.36,1.05,0.85,-0.34,0.45,18,1,22,0.91,3492,7,89,44,61,977,206.0,283,456,60,123.0,155,1,150,241,32,0,0,179,5134,250,206,-5.59,,,,,,,,,,,,
191183,1564151538606,4,2.72,0.93,0.36,1.37,1.05,0.89,-0.34,0.48,18,-2,24,0.95,3454,7,89,44,61,977,205.0,275,467,60,125.0,155,1,0,241,32,0,0,177,3584,13964,205,181.28,,,,,,,,,,,,
191203,1564151538626,1,2.72,0.93,0.37,1.37,1.05,0.87,-0.32,0.48,19,-3,25,0.92,3432,7,89,44,62,979,205.0,275,471,60,123.0,155,1,0,243,32,0,0,177,-1495,-29696,204,414.87,,,,,,,,,,,,
191223,1564151538646,2,2.74,0.93,0.36,1.37,1.06,0.85,-0.33,0.43,20,-1,25,0.91,3389,6,89,44,63,981,203.0,273,462,60,125.0,155,1,158,246,32,0,0,174,10620,12800,203,-5.59,,,,,,,,,,,,
191243,1564151538666,1,2.75,0.93,0.36,1.37,1.06,0.87,-0.35,0.42,20,0,25,0.94,3251,7,89,44,64,982,203.0,271,461,60,123.0,155,1,162,249,32,0,0,173,250,12800,203,-5.59,44.680824,10.024495,19.37,174.0,0,0.0,-1,0.0,0.0,0,1.13,3.1874
191263,1564151538686,0,2.78,0.93,0.37,1.37,1.06,0.88,-0.34,0.42,21,-2,26,0.95,3174,7,89,44,65,984,202.0,268,460,60,123.0,147,1,167,251,30,0,0,171,-1281,250,202,-5.59,,,,,,,,,,,,
191283,1564151538698,0,2.79,0.93,0.37,1.36,1.06,0.9,-0.34,0.42,21,-4,27,0.97,3104,7,89,44,65,987,202.0,262,466,60,125.0,147,1,167,251,30,0,0,168,-1,250,202,-5.59,,,,,,,,,,,,
191303,1564151538718,2,2.79,0.93,0.36,1.36,1.05,0.93,-0.36,0.42,22,-5,28,1.0,3055,7,89,44,66,990,200.0,258,463,60,123.0,147,1,171,254,30,0,0,166,-253,250,200,-5.59,,,,,,,,,,,,
191323,1564151538738,2,2.81,0.92,0.37,1.36,1.06,0.94,-0.36,0.39,22,-7,30,1.01,2971,7,89,44,67,992,200.0,250,467,60,123.0,147,1,174,257,30,0,0,165,30720,250,200,-5.59,,,,,,,,,,,,
191343,1564151538758,1,2.83,0.92,0.36,1.36,1.05,0.97,-0.38,0.39,23,-9,30,1.05,2889,7,89,44,67,994,199.0,249,461,60,121.0,147,1,0,257,30,0,0,162,250,-1481,199,-5.59,44.680824,10.024488,19.1,174.0,0,0.0,-1,0.0,0.0,0,1.13,3.189
191363,1564151538778,1,2.84,0.93,0.36,1.37,1.05,0.98,-0.41,0.4,24,-10,31,1.06,2829,7,89,44,68,996,197.0,246,463,60,122.0,141,1,173,260,28,0,0,160,-1494,250,197,-5.59,,,,,,,,,,,,
191383,1564151538792,1,2.84,0.93,0.36,1.37,1.06,1.0,-0.45,0.33,24,-8,31,1.09,2776,7,89,44,69,999,197.0,240,463,60,124.0,141,1,170,259,28,0,0,157,250,-2560,197,-5.59,,,,,,,,,,,,
191403,1564151538812,1,2.85,0.93,0.36,1.36,1.05,0.99,-0.43,0.33,24,-5,31,1.08,2731,7,89,44,70,1000,196.0,236,461,60,125.0,141,1,167,257,28,0,0,156,-1281,14326,196,181.28,,,,,,,,,,,,
191423,1564151538832,4,2.86,0.93,0.36,1.37,1.05,0.96,-0.4,0.36,25,-4,32,1.04,2638,7,89,44,71,1001,195.0,230,466,60,125.0,141,1,160,256,28,0,0,153,-1,-1,195,181.28,,,,,,,,,,,,
191443,1564151538852,2,2.88,0.93,0.37,1.37,1.05,1.0,-0.4,0.34,25,-5,33,1.07,2580,7,89,44,72,1006,193.0,228,465,60,124.0,141,1,155,254,28,0,0,153,-1,-1281,193,-5.59,44.680824,10.024483,18.33,174.0,0,0.0,-1,0.0,0.0,0,1.13,3.1907
191463,1564151538872,1,2.89,0.92,0.37,1.37,1.05,0.99,-0.41,0.34,26,-5,35,1.07,2523,6,89,44,73,1012,192.0,226,463,60,124.0,125,1,149,253,24,0,0,150,-1,-1,192,-5.59,,,,,,,,,,,,
191483,1564151538908,4,2.9,0.93,0.37,1.36,1.05,0.96,-0.41,0.38,26,-3,34,1.05,2470,7,89,44,74,1017,191.0,219,467,60,125.0,125,1,145,251,24,0,0,150,23460,-1,191,181.28,,,,,,,,,,,,
191503,1564151538928,0,2.92,0.93,0.36,1.36,1.05,0.98,-0.41,0.35,27,-4,35,1.06,2366,7,89,44,75,1023,190.0,219,463,60,123.0,125,1,143,251,24,0,0,148,250,-1,190,-5.59,,,,,,,,,,,,
191523,1564151538948,-0,2.92,0.93,0.37,1.36,1.05,0.99,-0.42,0.35,27,-3,37,1.08,2346,7,89,44,77,1028,190.0,213,461,60,125.0,125,1,0,250,24,0,0,146,-1281,-1,190,181.28,,,,,,,,,,,,
191543,1564151538968,1,2.93,0.93,0.37,1.37,1.06,1.0,-0.4,0.34,28,-4,37,1.08,2316,7,89,44,77,1033,189.0,213,463,60,124.0,125,1,139,250,24,0,0,144,-1,-1,189,-5.59,44.680824,10.024475,17.8,174.0,0,0.0,-1,0.0,0.0,0,1.13,3.1924
191563,1564151538988,-0,2.94,0.93,0.37,1.37,1.05,0.99,-0.39,0.36,28,-3,39,1.07,2283,16,89,44,79,1035,187.0,208,458,60,125.0,111,1,136,252,21,0,0,142,-1,-1,187,181.28,,,,,,,,,,,,
191583,1564151538999,1,2.94,0.93,0.37,1.37,1.05,1.0,-0.39,0.35,28,-4,39,1.07,2166,25,89,44,81,1035,186.0,208,462,60,124.0,111,1,133,255,21,0,0,142,-1,-1,186,-5.59,,,,,,,,,,,,
191603,1564151539019,2,2.95,0.93,0.37,1.36,1.05,1.0,-0.39,0.39,29,-3,40,1.08,2100,33,89,44,86,1031,185.0,202,462,60,124.0,111,1,130,261,21,0,0,140,-1,3584,184,181.28,,,,,,,,,,,,
191623,1564151539039,2,2.96,0.93,0.37,1.37,1.05,1.02,-0.4,0.33,29,-4,41,1.1,2049,40,89,44,90,1023,183.0,201,466,60,123.0,111,1,130,265,21,0,0,137,-1,3584,183,-5.59,,,,,,,,,,,,
191643,1564151539059,2,2.97,0.92,0.37,1.37,1.05,0.99,-0.4,0.39,29,-3,40,1.07,2127,46,89,44,94,1015,182.0,198,461,60,124.0,111,1,185,290,21,0,0,136,5140,250,182,181.28,44.680824,10.024469,16.93,174.0,0,0.0,-1,0.0,0.0,0,1.13,3.1941
191663,1564151539079,1,2.98,0.93,0.37,1.37,1.06,0.99,-0.41,0.35,30,-2,41,1.07,2356,51,89,44,95,1008,182.0,203,462,60,123.0,138,1,198,245,25,0,0,133,5120,10620,182,-5.59,,,,,,,,,,,,
191683,1564151539091,6,2.99,0.93,0.37,1.37,1.06,0.95,-0.39,0.42,30,-1,41,1.03,2394,56,89,44,96,997,180.0,203,468,60,124.0,138,1,212,322,25,0,0,132,250,10620,180,181.28,,,,,,,,,,,,
191703,1564151539111,0,0.33,0.91,0.36,1.35,1.03,1.0,-0.4,0.35,31,-3,41,1.07,2404,59,89,44,96,983,179.0,209,462,60,122.0,138,1,212,255,25,0,0,130,-1,-1,179,-5.59,,,,,,,,,,,,
191723,1564151539131,1,0.33,0.9,0.36,1.35,1.04,1.03,-0.42,0.34,31,-2,42,1.11,2469,59,89,44,96,973,177.0,212,458,60,125.0,138,1,212,324,25,0,0,129,-1,-1281,177,414.87,,,,,,,,,,,,
191743,1564151539151,2,0.33,0.9,0.36,1.35,1.03,1.0,-0.42,0.35,31,-3,41,1.08,2377,59,89,44,96,966,176.0,209,467,60,124.0,138,1,212,322,25,0,0,126,-1,-1,176,181.28,44.680824,10.024464,16.48,173.9,0,0.0,-1,0.0,0.0,0,1.14,3.1957
191763,1564151539171,2,0.33,0.9,0.36,1.35,1.03,1.0,-0.42,0.34,32,-3,42,1.08,2313,59,89,44,96,959,175.0,211,465,60,123.0,160,1,212,322,28,0,0,125,-1,-253,174,-5.59,,,,,,,,,,,,
191783,1564151539191,2,0.34,0.9,0.36,1.35,1.03,0.96,-0.4,0.39,32,-2,41,1.05,2272,59,89,44,96,951,173.0,205,467,60,125.0,160,1,212,320,28,0,0,124,-1,-253,173,181.28,,,,,,,,,,,,
191803,1564151539203,2,0.34,0.9,0.36,1.34,1.04,0.97,-0.4,0.38,32,-2,42,1.05,2200,59,89,44,96,945,171.0,209,464,60,123.0,160,1,212,319,28,0,0,124,-1,250,171,-5.59,,,,,,,,,,,,
191823,1564151539223,2,0.34,0.9,0.35,1.35,1.03,0.95,-0.38,0.4,31,-2,42,1.03,2167,55,89,44,96,943,171.0,203,463,60,124.0,160,1,212,318,28,0,0,124,-1,250,169,181.28,,,,,,,,,,,,
191843,1564151539243,2,0.34,0.89,0.36,1.34,1.04,0.96,-0.38,0.39,31,-2,42,1.03,2107,45,89,44,96,942,168.0,199,460,60,125.0,160,1,212,317,28,0,0,122,-1,3072,168,181.28,44.680828,10.024459,15.58,173.9,0,0.0,-1,0.0,0.0,0,1.14,3.1974
191863,1564151539263,2,0.34,0.9,0.36,1.35,1.03,0.98,-0.36,0.38,31,-3,43,1.04,2001,36,89,44,95,944,167.0,202,462,60,122.0,142,1,198,307,24,0,0,121,-1,-1,167,-5.59,,,,,,,,,,,,
191883,1564151539299,2,0.35,0.9,0.36,1.35,1.03,0.96,-0.36,0.39,31,-2,42,1.03,1928,32,89,44,95,946,165.0,195,467,60,124.0,142,1,198,306,24,0,0,119,-202,-1281,165,181.28,,,,,,,,,,,,
191903,1564151539319,3,0.36,0.89,0.36,1.34,1.03,0.95,-0.36,0.4,31,-3,42,1.02,1871,31,90,44,95,950,163.0,189,456,60,125.0,142,1,198,305,24,0,0,118,11264,-1,163,181.28,,,,,,,,,,,,
191923,1564151539339,2,0.36,0.9,0.36,1.34,1.04,0.94,-0.35,0.36,31,-2,43,1.01,1853,31,90,44,95,961,161.0,189,465,60,124.0,142,1,198,304,24,0,0,116,250,-165,161,181.28,,,,,,,,,,,,
191943,1564151539359,2,0.36,0.9,0.35,1.35,1.03,0.93,-0.34,0.36,31,-1,43,1.0,1788,31,89,44,95,993,161.0,192,461,60,122.0,142,1,198,236,24,0,0,115,-1482,250,161,-5.59,44.680828,10.024454,14.82,173.9,0,0.0,-1,0.0,0.0,0,1.14,3.199
191963,1564151539379,1,0.38,0.89,0.35,1.35,1.03,0.96,-0.34,0.36,31,-1,43,1.02,1758,31,89,44,95,1025,159.0,187,465,60,125.0,125,1,198,303,20,0,0,114,13862,-1281,159,-5.59,,,,,,,,,,,,
191983,1564151539391,1,0.38,0.89,0.36,1.34,1.03,0.96,-0.34,0.35,31,-1,43,1.02,1706,31,89,44,95,1054,158.0,183,469,60,124.0,125,1,198,303,20,0,0,112,250,-1281,157,181.28,,,,,,,,,,,,
192003,1564151539411,0,0.39,0.89,0.35,1.34,1.03,0.96,-0.34,0.38,31,-1,42,1.02,1737,31,89,44,95,1095,156.0,180,462,60,124.0,125,1,198,303,20,0,0,112,-1482,-1,156,181.28,,,,,,,,,,,,
192023,1564151539431,2,0.38,0.9,0.36,1.34,1.03,0.94,-0.34,0.36,31,-1,42,1.0,1802,31,90,44,95,1181,155.0,181,462,60,124.0,125,1,198,311,20,0,0,110,13856,-1,155,181.28,,,,,,,,,,,,
192043,1564151539451,-0,0.39,0.89,0.35,1.34,1.03,0.96,-0.34,0.36,31,-1,42,1.01,1754,31,89,44,95,1267,154.0,183,464,60,123.0,125,1,198,303,20,0,0,109,13856,-1,154,-5.59,44.680832,10.024449,14.35,173.9,0,0.0,-1,0.0,0.0,0,1.14,3.2007
192063,1564151539471,-1,0.39,0.89,0.35,1.35,1.03,0.95,-0.32,0.38,31,-1,42,1.0,1871,31,89,44,95,1324,154.0,187,462,60,121.0,129,1,198,305,20,0,0,109,8192,-1,154,-5.59,,,,,,,,,,,,
192083,1564151539491,-2,0.4,0.9,0.36,1.34,1.04,0.94,-0.32,0.38,31,-1,42,0.99,1880,38,89,44,95,1381,154.0,183,467,60,124.0,129,1,198,305,20,0,0,108,250,-1,153,181.28,,,,,,,,,,,,
192103,1564151539505,3,0.4,0.89,0.36,1.34,1.03,0.92,-0.32,0.38,31,-2,42,0.98,1921,42,90,44,96,1438,153.0,184,458,60,124.0,129,1,212,313,20,0,0,107,250,-1,153,181.28,,,,,,,,,,,,
192123,1564151539525,-0,0.39,0.9,0.36,1.35,1.03,0.93,-0.32,0.33,31,-1,43,0.99,1996,43,89,44,96,1496,152.0,189,468,60,123.0,129,1,212,315,20,0,0,107,250,-1,152,-5.59,,,,,,,,,,,,
192143,1564151539545,-1,0.4,0.89,0.36,1.34,1.03,0.9,-0.29,0.41,31,-1,41,0.95,2082,43,89,44,96,1498,152.0,189,468,60,124.0,129,1,212,316,20,0,0,108,-1482,-1,152,181.28,44.680836,10.024446,13.35,173.8,0,0.0,-1,0.0,0.0,0,1.14,3.2024
192163,1564151539565,-1,0.39,0.89,0.35,1.35,1.03,0.9,-0.33,0.37,31,-2,41,0.96,2129,43,90,44,96,1498,151.0,192,458,60,124.0,165,1,212,317,25,0,0,107,13850,-1,151,181.28,,,,,,,,,,,,
192183,1564151539599,-1,0.4,0.9,0.35,1.35,1.03,0.89,-0.31,0.34,31,0,44,0.94,2277,43,90,44,96,1498,151.0,198,463,60,124.0,165,1,212,310,25,0,0,105,13850,-1,151,181.28,,,,,,,,,,,,
192203,1564151539619,-2,0.39,0.89,0.36,1.35,1.03,0.89,-0.28,0.41,31,-2,41,0.93,2265,43,90,44,95,1498,151.0,200,461,60,124.0,165,1,198,243,25,0,0,106,6656,-1,150,-5.59,,,,,,,,,,,,
192223,1564151539639,-0,0.39,0.89,0.35,1.35,1.02,0.89,-0.3,0.36,31,-1,42,0.94,2204,43,89,44,95,1498,150.0,198,466,60,125.0,165,1,198,309,25,0,0,105,6656,-1,150,181.28,,,,,,,,,,,,
192243,1564151539659,-1,0.39,0.89,0.35,1.34,1.02,0.85,-0.3,0.43,31,-2,41,0.9,2203,43,90,44,96,1498,150.0,200,461,60,124.0,165,1,212,319,25,0,0,105,6656,-236,150,414.87,44.680836,10.024443,12.96,173.8,0,0.0,-1,0.0,0.0,0,1.14,3.2041
192263,1564151539679,-1,0.38,0.89,0.36,1.34,1.02,0.86,-0.3,0.4,31,-0,42,0.91,2271,43,90,44,95,1498,149.0,203,462,60,124.0,180,1,198,310,27,0,0,105,6656,5140,149,181.28,,,,,,,,,,,,
192283,1564151539693,-2,0.4,0.89,0.35,1.34,1.03,0.86,-0.29,0.44,31,-2,41,0.91,2277,37,90,44,95,1498,149.0,203,462,60,123.0,180,1,198,310,27,0,0,105,250,5120,149,181.28,,,,,,,,,,,,
192303,1564151539713,-0,0.39,0.89,0.36,1.34,1.03,0.86,-0.29,0.39,31,-0,42,0.91,2257,30,90,44,94,1498,149.0,202,464,60,124.0,180,1,185,301,27,0,0,105,250,-236,149,181.28,,,,,,,,,,,,
192323,1564151539733,-0,0.39,0.89,0.36,1.34,1.03,0.85,-0.28,0.43,31,-1,41,0.9,2271,25,90,44,94,1498,148.0,204,463,60,124.0,180,1,185,302,27,0,0,104,250,5140,148,181.28,,,,,,,,,,,,
192343,1564151539753,-2,0.4,0.89,0.36,1.34,1.03,0.85,-0.29,0.38,31,0,42,0.9,2279,24,90,44,93,1498,148.0,205,461,60,124.0,180,1,171,292,27,0,0,104,250,5120,148,181.28,44.68084,10.024439,12.86,173.8,0,0.0,-1,0.0,0.0,0,1.14,3.2057
192363,1564151539773,-1,0.4,0.89,0.36,1.34,1.02,0.85,-0.27,0.4,31,-1,41,0.89,2333,23,89,44,92,1498,147.0,206,462,60,123.0,168,1,157,283,25,0,0,104,-1482,250,147,181.28,,,,,,,,,,,,
192383,1564151539807,-0,0.4,0.89,0.36,1.35,1.02,0.83,-0.28,0.4,31,1,42,0.88,2300,23,90,44,92,1498,147.0,204,466,60,124.0,168,1,157,283,25,0,0,104,-1482,250,147,414.87,,,,,,,,,,,,
192403,1564151539827,-1,0.39,0.89,0.35,1.34,1.02,0.85,-0.29,0.39,31,-0,41,0.9,2348,23,89,44,91,1498,147.0,210,465,60,121.0,168,1,143,284,25,0,0,103,-1482,250,147,-5.59,,,,,,,,,,,,
192423,1564151539847,2,0.4,0.89,0.36,1.34,1.03,0.82,-0.28,0.45,31,2,41,0.87,2317,23,90,44,92,1498,147.0,203,466,60,124.0,168,1,157,283,25,0,0,103,-1482,250,147,414.87,,,,,,,,,,,,
192443,1564151539867,-1,0.39,0.89,0.35,1.35,1.03,0.86,-0.29,0.42,31,0,40,0.91,2377,24,89,44,91,1498,146.0,211,464,60,121.0,168,1,143,205,25,0,0,103,-1482,5120,146,-5.59,44.680843,10.024437,12.64,173.8,0,0.0,-1,0.0,0.0,0,1.14,3.2074
192463,1564151539887,-1,0.39,0.89,0.36,1.34,1.03,0.83,-0.29,0.46,30,-0,40,0.88,2384,23,90,44,91,1498,146.0,209,460,60,124.0,164,1,143,274,24,0,0,103,13844,-1281,146,181.28,,,,,,,,,,,,
192483,1564151539903,-1,0.39,0.89,0.36,1.35,1.02,0.85,-0.3,0.41,30,1,40,0.9,2385,24,90,44,91,1498,146.0,209,462,60,124.0,164,1,143,274,24,0,0,103,13844,5120,146,181.28,,,,,,,,,,,,
192503,1564151539923,-2,0.4,0.89,0.35,1.34,1.02,0.85,-0.29,0.42,30,-1,40,0.9,2435,23,90,44,91,1498,145.0,212,462,60,123.0,164,1,143,274,24,0,0,102,13844,-1,145,-5.59,,,,,,,,,,,,
192523,1564151539943,3,0.39,0.89,0.36,1.34,1.03,0.82,-0.29,0.45,30,1,40,0.87,2445,23,90,44,91,1498,145.0,211,464,60,124.0,164,1,143,274,24,0,0,103,13844,-1281,145,414.87,,,,,,,,,,,,
192543,1564151539963,-0,0.4,0.88,0.35,1.35,1.03,0.88,-0.28,0.39,30,1,40,0.92,2462,24,90,44,90,1498,145.0,214,462,60,124.0,164,1,130,265,24,0,0,103,5120,-1281,145,-5.59,44.680847,10.024434,12.45,173.8,0,0.0,-1,0.0,0.0,0,1.14,3.209
192563,1564151539983,-0,0.4,0.88,0.35,1.34,1.02,0.87,-0.3,0.41,30,-2,39,0.92,2471,23,90,44,91,1498,144.0,216,462,60,123.0,165,1,143,274,24,0,0,102,5120,-1,144,-5.59,,,,,,,,,,,,
192583,1564151540003,3,0.4,0.88,0.35,1.34,1.03,0.84,-0.29,0.4,30,1,40,0.89,2456,23,90,44,91,1498,144.0,212,465,60,124.0,165,1,143,274,24,0,0,102,5120,-1,144,181.28,,,,,,,,,,,,
192603,1564151540010,-1,0.4,0.88,0.35,1.34,1.03,0.91,-0.29,0.37,30,-0,40,0.95,2463,24,90,44,90,1498,144.0,216,462,60,122.0,165,1,130,265,24,0,0,101,5120,-1281,144,-5.59,,,,,,,,,,,,
192623,1564151540030,-1,0.4,0.88,0.36,1.34,1.03,0.89,-0.28,0.43,30,-2,39,0.94,2449,23,90,44,91,1498,144.0,213,460,60,124.0,165,1,143,274,24,0,0,102,5120,-1,144,181.28,,,,,,,,,,,,
192643,1564151540050,2,0.39,0.89,0.35,1.35,1.03,0.86,-0.27,0.37,30,1,40,0.9,2496,24,90,44,91,1498,143.0,215,465,60,124.0,165,1,143,265,24,0,0,102,5120,-1,143,181.28,44.680847,10.024432,12.56,173.9,0,0.0,-1,0.0,0.0,0,1.14,3.2107
192663,1564151540070,-1,0.39,0.88,0.35,1.35,1.02,0.92,-0.26,0.34,30,-0,40,0.96,2512,24,90,44,90,1498,143.0,219,463,60,121.0,174,1,131,265,25,0,0,102,5120,-1,143,-5.59,,,,,,,,,,,,
192683,1564151540108,-1,0.39,0.89,0.35,1.34,1.02,0.88,-0.25,0.4,30,-3,40,0.91,2524,23,90,44,91,1498,143.0,216,458,60,124.0,174,1,145,277,25,0,0,101,250,-1,143,414.87,,,,,,,,,,,,
192703,1564151540128,2,0.39,0.89,0.35,1.35,1.02,0.83,-0.24,0.37,30,1,40,0.86,2463,23,90,44,91,1498,143.0,215,467,60,124.0,174,1,143,265,25,0,0,101,250,-1,143,181.28,,,,,,,,,,,,
192723,1564151540148,-2,0.4,0.88,0.35,1.35,1.02,0.9,-0.24,0.33,30,-0,39,0.93,2462,23,90,44,90,1498,142.0,219,463,60,122.0,174,1,130,265,25,0,0,101,-1482,-1,142,-5.59,,,,,,,,,,,,
192743,1564151540168,-1,0.39,0.89,0.35,1.34,1.03,0.87,-0.25,0.4,30,-1,39,0.91,2463,23,90,44,91,1498,142.0,214,462,60,124.0,174,1,143,274,25,0,0,101,-1482,-1,142,181.28,44.680851,10.02443,12.25,173.9,0,0.0,-1,0.0,0.0,0,1.14,3.2124
192763,1564151540188,2,0.39,0.88,0.35,1.35,1.02,0.84,-0.23,0.34,30,1,39,0.87,2508,24,90,44,91,1498,142.0,216,467,60,124.0,183,1,143,265,26,0,0,101,-1482,-1,142,181.28,,,,,,,,,,,,
192783,1564151540198,-1,0.39,0.88,0.35,1.34,1.03,0.87,-0.24,0.33,30,-0,38,0.9,2490,24,90,44,90,1498,141.0,218,463,60,122.0,183,1,130,265,26,0,0,100,-1482,-1,141,-5.59,,,,,,,,,,,,
192803,1564151540218,-2,0.39,0.89,0.35,1.35,1.03,0.84,-0.24,0.42,29,-1,38,0.87,2492,23,90,44,91,1498,141.0,216,460,60,124.0,183,1,143,274,26,0,0,100,-1482,-1,141,181.28,,,,,,,,,,,,
192823,1564151540238,1,0.38,0.88,0.36,1.34,1.02,0.82,-0.23,0.37,29,2,39,0.85,2476,23,90,44,90,1498,141.0,217,465,60,125.0,183,1,130,265,26,0,0,100,-1482,-1,141,181.28,,,,,,,,,,,,
192843,1564151540258,-0,0.38,0.89,0.35,1.34,1.03,0.88,-0.25,0.37,29,1,38,0.92,2546,24,90,44,90,1498,141.0,220,467,60,122.0,183,1,134,268,26,0,0,100,13838,-1,141,-5.59,44.680851,10.024429,12.03,173.8,0,0.0,-1,0.0,0.0,0,1.14,3.2141
192863,1564151540278,-2,0.38,0.88,0.35,1.35,1.02,0.84,-0.24,0.45,29,-2,38,0.87,2581,23,90,44,91,1498,141.0,217,461,60,124.0,184,1,150,284,26,0,0,99,13838,-1,141,181.28,,,,,,,,,,,,
192883,1564151540292,3,0.38,0.89,0.35,1.34,1.03,0.81,-0.22,0.41,29,3,38,0.84,2602,22,90,44,91,1498,141.0,220,467,60,124.0,184,1,152,287,26,0,0,98,13838,-1,140,414.87,,,,,,,,,,,,
192903,1564151540312,-1,0.38,0.88,0.35,1.34,1.02,0.9,-0.23,0.35,29,1,38,0.93,2546,21,90,44,90,1498,140.0,222,464,60,123.0,184,1,134,268,26,0,0,98,13838,-1,140,-5.59,,,,,,,,,,,,
192923,1564151540332,1,0.37,0.89,0.35,1.34,1.02,0.88,-0.24,0.41,29,-3,39,0.91,2507,21,90,44,90,1498,139.0,220,461,60,124.0,184,1,130,265,26,0,0,97,3584,-1,139,181.28,,,,,,,,,,,,
192943,1564151540352,1,0.37,0.89,0.35,1.34,1.02,0.81,-0.24,0.43,29,1,39,0.85,2560,21,90,44,90,1498,138.0,219,465,60,125.0,184,1,136,269,26,0,0,97,250,-1,138,181.28,44.680855,10.024429,12.08,173.8,0,0.0,-1,0.0,0.0,0,1.14,3.2157
192963,1564151540372,2,0.36,0.88,0.36,1.34,1.02,0.89,-0.24,0.37,29,2,37,0.92,2573,21,90,44,90,1498,138.0,220,466,60,124.0,188,1,137,268,26,0,0,96,250,-1,138,181.28,,,,,,,,,,,,
192983,1564151540408,2,0.36,0.89,0.35,1.34,1.03,0.93,-0.25,0.37,29,-2,38,0.96,2566,21,90,44,89,1498,136.0,224,464,60,122.0,188,1,136,268,26,0,0,96,250,-1,136,-5.59,,,,,,,,,,,,
193003,1564151540428,1,0.36,0.88,0.35,1.34,1.03,0.87,-0.23,0.44,28,-2,38,0.9,2543,21,90,44,90,1498,135.0,220,461,60,124.0,188,1,134,268,26,0,0,94,-1482,-1,135,181.28,,,,,,,,,,,,
193023,1564151540448,5,0.34,0.88,0.36,1.34,1.03,0.86,-0.22,0.38,28,2,38,0.89,2519,21,90,44,89,1498,133.0,217,466,60,124.0,188,1,131,265,26,0,0,95,2048,-1,133,414.87,,,,,,,,,,,,
193043,1564151540468,3,2.99,0.9,0.36,1.36,1.05,0.95,-0.2,0.34,28,-1,38,0.97,2529,21,90,44,89,1498,132.0,221,462,60,123.0,188,1,132,265,26,0,0,93,2048,-202,132,-5.59,44.680859,10.024429,12.07,173.8,0,0.0,-1,0.0,0.0,0,1.14,3.2174
193063,1564151540488,2,2.98,0.91,0.36,1.36,1.05,0.87,-0.19,0.41,28,-3,37,0.89,2518,21,90,44,89,1498,130.0,220,461,60,124.0,189,1,131,265,25,0,0,93,2048,11264,130,181.28,,,,,,,,,,,,
193083,1564151540502,6,2.95,0.91,0.36,1.36,1.04,0.83,-0.18,0.38,27,1,37,0.85,2479,21,90,44,89,1498,128.0,217,466,60,125.0,189,1,130,264,25,0,0,93,-1483,-1482,128,181.28,,,,,,,,,,,,
193103,1564151540522,3,2.93,0.9,0.37,1.35,1.05,0.93,-0.16,0.36,27,-0,35,0.94,2480,21,90,44,89,1498,126.0,222,465,60,122.0,189,1,130,264,25,0,0,92,13736,13862,126,-5.59,,,,,,,,,,,,
193123,1564151540542,2,2.89,0.9,0.37,1.35,1.04,0.88,-0.14,0.42,26,-3,35,0.89,2488,21,90,44,90,1498,124.0,216,461,60,125.0,189,1,130,265,25,0,0,92,-22528,250,124,181.28,,,,,,,,,,,,
193143,1564151540562,5,2.86,0.9,0.37,1.35,1.05,0.84,-0.13,0.38,25,2,34,0.85,2522,21,90,44,90,1498,122.0,217,467,60,125.0,189,1,132,266,25,0,0,93,-22528,13856,122,181.28,44.680862,10.024429,11.62,173.8,0,0.0,-1,0.0,0.0,0,1.14,3.219
193163,1564151540582,3,2.82,0.9,0.36,1.35,1.05,0.92,-0.1,0.35,25,-0,33,0.92,2510,21,90,44,89,1498,118.0,221,462,60,121.0,204,1,131,264,25,0,0,92,250,13856,118,-5.59,,,,,,,,,,,,
193183,1564151540594,4,2.77,0.9,0.36,1.36,1.04,0.87,-0.09,0.41,24,-3,32,0.87,2539,21,90,44,89,1498,117.0,221,460,60,124.0,204,1,133,267,25,0,0,93,-1481,250,117,-5.59,,,,,,,,,,,,
193203,1564151540614,8,2.74,0.9,0.37,1.35,1.04,0.83,-0.07,0.37,23,3,32,0.84,2579,21,90,44,90,1498,117.0,219,465,60,124.0,204,1,137,270,25,0,0,93,14312,13850,117,181.28,,,,,,,,,,,,
193223,1564151540634,4,2.71,0.9,0.36,1.35,1.04,0.94,-0.05,0.32,22,2,30,0.94,2594,21,90,44,89,1498,113.0,222,466,60,124.0,204,1,139,270,25,0,0,93,14312,250,113,181.28,,,,,,,,,,,,
193243,1564151540654,4,2.66,0.9,0.36,1.35,1.04,0.92,-0.04,0.37,21,-4,29,0.93,2566,21,90,44,89,1498,110.0,225,464,60,123.0,204,1,136,268,25,0,0,93,-6144,13844,110,-5.59,44.680866,10.024429,10.72,173.8,0,0.0,-1,0.0,0.0,0,1.14,3.2207
193263,1564151540674,3,2.63,0.89,0.36,1.35,1.03,0.86,-0.03,0.42,20,-1,28,0.86,2570,21,90,44,89,1498,108.0,219,461,60,125.0,240,1,137,268,26,0,0,93,250,-1482,108,414.87,,,,,,,,,,,,
193283,1564151540694,8,2.6,0.89,0.35,1.35,1.04,0.88,-0.01,0.31,19,4,26,0.88,2615,21,90,44,89,1498,106.0,221,466,60,124.0,240,1,141,270,26,0,0,92,-1481,3584,106,181.28,,,,,,,,,,,,
193303,1564151540710,3,2.56,0.89,0.35,1.34,1.03,0.96,0.01,0.29,18,-0,25,0.96,2647,21,90,44,89,1498,103.0,225,461,60,123.0,240,1,144,272,26,0,0,92,-1481,3584,103,-5.59,,,,,,,,,,,,
193323,1564151540730,4,2.54,0.9,0.35,1.34,1.04,0.91,0.0,0.38,16,-4,24,0.91,2636,21,90,44,89,1498,103.0,226,461,60,123.0,240,1,143,271,26,0,0,91,14298,13832,103,-5.59,,,,,,,,,,,,
193343,1564151540750,3,2.51,0.9,0.35,1.34,1.04,0.87,-0.0,0.41,15,0,22,0.87,2623,21,90,44,89,1498,100.0,224,461,60,125.0,240,1,142,271,26,0,0,91,-9728,2048,100,181.28,44.680866,10.024429,10.59,173.8,0,0.0,-1,0.0,0.0,0,1.14,3.2224
193363,1564151540770,6,2.49,0.9,0.36,1.35,1.04,0.9,0.03,0.36,15,5,20,0.9,2618,21,90,44,89,1498,98.0,223,467,60,124.0,260,1,141,270,26,0,0,91,-9728,13736,98,181.28,,,,,,,,,,,,
193383,1564151540804,3,2.46,0.9,0.35,1.35,1.05,0.97,0.02,0.32,14,-0,19,0.97,2615,21,90,44,89,1498,96.0,226,463,60,124.0,260,1,141,270,26,0,0,90,250,13736,96,-5.59,,,,,,,,,,,,
193403,1564151540824,2,2.46,0.9,0.35,1.35,1.05,0.91,0.02,0.41,13,-5,19,0.91,2632,21,90,44,89,1498,96.0,224,463,60,123.0,260,1,143,271,26,0,0,90,250,-22528,96,-5.59,,,,,,,,,,,,
193423,1564151540844,2,2.45,0.9,0.36,1.35,1.05,0.87,0.03,0.46,12,-1,17,0.87,2639,21,90,44,89,1498,94.0,223,462,60,124.0,260,1,143,272,26,0,0,90,250,-1481,94,181.28,,,,,,,,,,,,
193443,1564151540864,6,2.43,0.9,0.36,1.35,1.05,0.89,0.05,0.4,11,4,15,0.89,2632,21,90,44,89,1498,92.0,222,465,60,124.0,260,1,143,271,26,0,0,89,-1481,14312,92,181.28,44.68087,10.024429,9.73,173.8,0,0.0,-1,0.0,0.0,0,1.14,3.2241
193463,1564151540884,1,2.41,0.9,0.36,1.35,1.05,0.95,0.03,0.35,10,0,14,0.95,2684,21,90,44,89,1498,92.0,227,466,60,124.0,293,1,148,274,27,0,0,89,14284,14312,92,181.28,,,,,,,,,,,,
193483,1564151540898,2,2.4,0.9,0.36,1.35,1.04,0.92,0.03,0.41,10,-5,14,0.92,2657,21,90,44,89,1498,91.0,231,463,60,123.0,293,1,145,273,27,0,0,88,14284,250,91,-5.59,,,,,,,,,,,,
193503,1564151540918,0,2.4,0.9,0.35,1.35,1.05,0.87,0.03,0.47,9,-2,12,0.87,2647,21,90,44,89,1498,90.0,225,460,60,125.0,293,1,144,272,27,0,0,87,14284,250,90,181.28,,,,,,,,,,,,
193523,1564151540938,2,2.38,0.89,0.36,1.36,1.05,0.88,0.05,0.44,8,3,11,0.88,2687,21,90,44,89,1498,88.0,226,464,60,124.0,293,1,148,275,27,0,0,87,-13312,250,88,414.87,,,,,,,,,,,,
193543,1564151540958,5,2.37,0.89,0.36,1.36,1.04,0.94,0.06,0.37,7,4,10,0.94,2734,21,90,44,89,1498,88.0,226,467,60,124.0,293,1,153,277,27,0,0,87,-13312,14298,88,181.28,44.680874,10.024429,9.24,173.8,0,0.0,-1,0.0,0.0,0,1.14,3.2257
193563,1564151540978,1,2.37,0.9,0.35,1.35,1.05,0.95,0.04,0.37,7,-1,10,0.95,2719,21,90,44,88,1498,87.0,228,464,60,125.0,321,1,151,276,28,0,0,86,250,250,87,181.28,,,,,,,,,,,,
193583,1564151540998,1,2.37,0.9,0.35,1.36,1.05,0.9,0.03,0.45,6,-5,9,0.9,2736,21,90,44,88,1498,86.0,231,465,60,123.0,321,1,153,277,28,0,0,86,250,250,86,-5.59,,,,,,,,,,,,
193603,1564151541005,2,2.35,0.9,0.36,1.36,1.05,0.88,0.02,0.46,6,-3,8,0.88,2730,21,90,44,88,1498,86.0,230,458,60,123.0,321,1,153,277,28,0,0,85,250,250,86,-5.59,,,,,,,,,,,,
193623,1564151541025,3,2.36,0.9,0.36,1.36,1.05,0.87,0.04,0.45,5,2,7,0.87,2737,21,90,44,88,1498,84.0,228,460,60,124.0,321,1,153,277,28,0,0,85,-1481,14284,84,181.28,,,,,,,,,,,,
193643,1564151541045,3,2.36,0.9,0.36,1.35,1.06,0.91,0.06,0.41,5,5,6,0.91,2782,21,90,44,88,1498,84.0,230,462,60,123.0,321,1,158,280,28,0,0,85,-16896,14284,83,414.87,44.680874,10.024429,8.76,173.8,0,0.0,-1,0.0,0.0,0,1.14,3.2274
193663,1564151541065,5,2.37,0.9,0.36,1.35,1.05,0.91,0.05,0.36,4,4,6,0.92,2814,21,90,44,88,1498,83.0,231,468,60,123.0,349,1,161,282,29,0,0,83,-16896,-13312,83,-5.59,,,,,,,,,,,,
193683,1564151541091,5,2.36,0.91,0.36,1.35,1.05,0.9,0.04,0.38,4,0,6,0.9,2847,21,90,44,87,1498,82.0,235,470,60,123.0,349,1,164,284,29,0,0,82,250,-1481,82,181.28,,,,,,,,,,,,
193703,1564151541111,3,2.37,0.9,0.36,1.35,1.05,0.91,0.02,0.4,4,-3,6,0.91,2810,21,90,44,87,1498,82.0,238,463,60,123.0,349,1,161,281,29,0,0,82,250,-1481,82,-5.59,,,,,,,,,,,,
193723,1564151541131,3,2.36,0.91,0.36,1.36,1.05,0.9,0.01,0.43,4,-5,6,0.9,2832,21,90,44,87,1498,80.0,238,463,60,122.0,349,1,163,283,29,0,0,80,14256,14270,80,-5.59,,,,,,,,,,,,
193743,1564151541151,4,2.36,0.9,0.36,1.35,1.05,0.89,-0.01,0.47,3,-5,6,0.89,2890,21,90,44,86,1498,78.0,242,461,60,123.0,349,1,169,285,29,0,0,80,250,250,78,-5.59,44.680878,10.02443,8.43,173.7,0,0.0,-1,0.0,0.0,0,1.14,3.229
193763,1564151541171,2,2.37,0.9,0.36,1.35,1.06,0.89,-0.01,0.46,3,-3,5,0.89,2916,21,90,44,86,1498,78.0,242,461,60,123.0,397,1,171,287,31,0,0,78,250,250,78,-5.59,,,,,,,,,,,,
193783,1564151541201,3,2.36,0.91,0.36,1.35,1.06,0.9,-0.0,0.45,3,-2,4,0.9,2955,21,90,44,86,1498,76.0,241,459,60,123.0,397,1,175,221,31,0,0,76,14242,-20480,76,-5.59,,,,,,,,,,,,
193803,1564151541221,3,2.36,0.9,0.36,1.35,1.06,0.92,0.01,0.45,3,-2,4,0.92,3032,21,90,44,86,1498,76.0,247,458,60,124.0,397,1,180,294,31,0,0,76,14242,-20480,76,-5.59,,,,,,,,,,,,
193823,1564151541241,3,2.36,0.9,0.36,1.35,1.05,0.91,0.01,0.47,2,-2,4,0.91,3079,21,90,44,85,1498,74.0,248,459,60,124.0,397,1,180,297,31,0,0,75,-24064,-1481,74,-5.59,,,,,,,,,,,,
193843,1564151541261,4,2.35,0.91,0.36,1.35,1.06,0.92,0.0,0.5,2,-3,4,0.92,3152,21,90,44,85,1498,74.0,253,457,60,123.0,397,1,180,302,31,0,0,75,-24064,14242,74,-5.59,44.680882,10.02443,7.97,173.7,0,0.0,-1,0.0,0.0,0,1.14,3.2307
193863,1564151541281,3,2.36,0.9,0.36,1.36,1.05,0.94,0.0,0.49,2,-5,4,0.94,3153,21,90,44,84,1498,72.0,255,463,60,125.0,500,1,180,301,36,0,0,72,14228,14242,72,-5.59,,,,,,,,,,,,
193883,1564151541301,5,2.35,0.9,0.36,1.36,1.06,0.94,0.0,0.5,2,-7,4,0.94,3200,21,90,44,84,1498,70.0,254,465,60,125.0,500,1,180,305,36,0,0,72,14228,-1481,70,-5.59,,,,,,,,,,,,
193903,1564151541309,4,2.35,0.91,0.36,1.36,1.05,0.93,0.01,0.47,2,-7,4,0.93,3245,21,90,44,83,1498,70.0,258,467,60,123.0,500,1,180,240,36,0,0,70,250,-1481,70,-5.59,,,,,,,,,,,,
193923,1564151541329,4,2.34,0.9,0.36,1.35,1.06,0.89,0.03,0.42,2,-3,3,0.89,3330,21,90,44,83,1498,68.0,259,463,60,124.0,500,1,180,313,36,0,0,70,250,-27648,67,181.28,,,,,,,,,,,,
193943,1564151541349,3,2.34,0.9,0.37,1.35,1.05,0.89,0.02,0.41,2,-1,3,0.89,3458,21,90,44,82,1498,67.0,269,453,60,120.0,500,1,180,316,36,0,0,67,14054,-27648,67,-5.59,44.680882,10.02443,7.44,173.7,0,0.0,-1,0.0,0.0,0,1.14,3.2324
193963,1564151541369,6,2.33,0.91,0.36,1.35,1.05,0.93,0.01,0.47,1,-4,3,0.93,3450,21,90,44,81,1498,66.0,271,460,60,125.0,597,1,180,308,40,0,0,67,14054,14054,64,-5.59,,,,,,,,,,,,
193983,1564151541397,2,2.33,0.9,0.36,1.35,1.05,0.92,0.02,0.44,1,-3,3,0.92,3425,21,90,44,81,1498,64.0,268,470,60,123.0,597,1,180,308,40,0,0,65,-1281,14054,64,181.28,,,,,,,,,,,,
194003,1564151541417,3,2.32,0.91,0.36,1.35,1.05,0.91,0.03,0.42,1,-0,2,0.91,3430,21,90,44,81,1498,63.0,273,460,60,123.0,597,1,180,308,40,0,0,65,-1281,-1281,61,-5.59,,,,,,,,,,,,
194023,1564151541437,4,2.33,0.91,0.36,1.35,1.05,0.94,0.02,0.46,1,-2,2,0.94,3459,21,90,44,81,1498,61.0,276,457,60,125.0,597,1,180,309,40,0,0,63,-1,-1281,61,-5.59,,,,,,,,,,,,
194043,1564151541457,2,2.33,0.9,0.36,1.35,1.05,0.95,0.03,0.46,1,-4,2,0.95,3533,21,90,44,80,1498,61.0,275,473,60,124.0,597,1,180,308,40,0,0,63,-1,-1,61,181.28,44.680885,10.024431,6.9,173.7,0,0.0,-1,0.0,0.0,0,1.14,3.2341
194063,1564151541477,2,2.33,0.9,0.36,1.36,1.05,0.92,0.03,0.41,1,-1,1,0.92,3596,21,90,44,80,1498,59.0,278,465,60,123.0,694,1,182,247,41,0,0,59,-1,-1,59,-5.59,,,,,,,,,,,,
194083,1564151541497,7,2.33,0.91,0.36,1.35,1.06,0.93,0.04,0.45,1,-3,2,0.93,3634,21,90,44,79,1498,59.0,283,456,60,125.0,694,1,183,309,41,0,0,59,-1,-1,59,-5.59,,,,,,,,,,,,
194103,1564151541503,2,2.33,0.91,0.36,1.35,1.05,0.93,0.05,0.39,1,-1,1,0.93,3612,21,90,44,79,1498,56.0,283,467,60,123.0,694,1,183,240,41,0,0,57,-1,-1,56,-5.59,,,,,,,,,,,,
194123,1564151541523,4,2.32,0.9,0.37,1.35,1.05,0.95,0.04,0.44,1,-1,1,0.95,3684,21,90,44,79,1498,56.0,287,452,60,125.0,694,1,185,314,41,0,0,57,-1,-1,56,-5.59,,,,,,,,,,,,
194143,1564151541543,4,2.32,0.9,0.36,1.36,1.05,0.94,0.06,0.41,1,-2,1,0.94,3736,21,90,44,79,1498,55.0,289,475,60,122.0,694,1,186,318,41,0,0,53,-1,-1,53,181.28,44.680885,10.024431,6.19,173.7,0,0.0,-1,0.0,0.0,0,1.14,3.2357
194163,1564151541563,6,2.33,0.9,0.36,1.35,1.05,0.94,0.06,0.42,1,-1,1,0.94,3787,21,90,44,78,1498,53.0,293,450,60,124.0,830,1,188,313,44,0,0,53,-1,-1,53,-5.59,,,,,,,,,,,,
194183,1564151541595,1,2.34,0.91,0.36,1.36,1.05,0.92,0.08,0.41,1,-1,0,0.92,3895,21,90,44,77,1498,53.0,297,476,60,123.0,830,1,191,321,44,0,0,53,-1,-1,53,-5.59,,,,,,,,,,,,
194203,1564151541615,2,2.34,0.91,0.36,1.35,1.05,0.92,0.05,0.42,1,-2,1,0.93,3997,21,90,44,77,1498,51.0,305,461,60,125.0,830,1,193,317,44,0,0,50,-1,-1,50,-5.59,,,,,,,,,,,,
194223,1564151541635,6,2.33,0.91,0.36,1.35,1.05,0.92,0.05,0.43,1,-2,1,0.92,4121,21,90,44,76,1498,50.0,312,463,60,123.0,830,1,203,311,44,0,0,50,-1,-1,50,-5.59,,,,,,,,,,,,
194243,1564151541655,3,2.34,0.91,0.36,1.35,1.06,0.88,0.07,0.45,1,-1,-0,0.88,4204,21,90,44,76,1498,50.0,318,473,60,123.0,830,1,210,248,44,0,0,50,-1,-1,50,-5.59,44.680885,10.024431,5.37,173.6,0,0.0,-1,0.0,0.0,0,1.14,3.2374
194263,1564151541675,2,2.35,0.91,0.36,1.35,1.05,0.88,0.07,0.37,1,-1,0,0.88,4259,21,90,44,76,1498,46.0,327,471,60,123.0,1086,1,214,316,50,0,0,47,-1,-1,46,-5.59,,,,,,,,,,,,
194283,1564151541705,3,2.34,0.91,0.36,1.36,1.05,0.92,0.06,0.34,1,-1,1,0.92,4384,21,90,44,76,1498,46.0,328,466,60,124.0,1086,1,225,322,50,0,0,47,-1,-1,46,-5.59,,,,,,,,,,,,
194303,1564151541725,1,2.35,0.9,0.36,1.35,1.06,0.93,0.06,0.31,1,-1,1,0.93,4556,21,90,44,76,1490,46.0,341,466,60,124.0,1086,1,239,328,50,0,0,47,-1,-1,46,-5.59,,,,,,,,,,,,
194323,1564151541745,3,2.34,0.9,0.36,1.36,1.05,0.95,0.02,0.3,0,-1,1,0.95,4600,21,90,44,75,1472,45.0,346,467,60,123.0,1086,1,247,327,50,0,0,44,5470,-1,43,-5.59,,,,,,,,,,,,
194343,1564151541765,5,2.35,0.9,0.36,1.36,1.06,0.95,0.02,0.26,0,-0,1,0.95,4896,21,90,44,75,1455,43.0,365,464,60,122.0,1086,1,265,336,50,0,0,44,5470,-1,43,-5.59,44.680885,10.024431,4.92,173.6,0,0.0,-1,0.0,0.0,0,1.14,3.239
194363,1564151541785,2,2.34,0.91,0.36,1.35,1.05,0.93,0.02,0.33,0,-1,1,0.93,5024,21,90,44,75,1438,43.0,376,460,60,123.0,1465,1,276,341,63,0,0,44,5470,24067,43,-5.59,,,,,,,,,,,,
194383,1564151541805,5,2.34,0.91,0.36,1.35,1.06,0.96,0.04,0.33,0,-2,1,0.96,5097,21,90,44,75,1412,42.0,383,466,60,124.0,1465,1,286,346,63,0,0,41,5470,24067,40,-5.59,,,,,,,,,,,,
194403,1564151541809,2,2.35,0.91,0.36,1.36,1.05,0.84,0.03,0.31,1,-0,1,0.84,5260,21,90,43,74,1372,40.0,397,465,60,123.0,1465,1,294,352,63,0,0,41,-1281,24067,40,-5.59,,,,,,,,,,,,
194423,1564151541829,5,2.34,0.91,0.36,1.35,1.05,0.96,0.07,0.34,0,-1,1,0.96,5374,21,90,44,73,1337,40.0,410,465,60,124.0,1465,1,303,347,63,0,0,41,-1281,-1,40,-5.59,,,,,,,,,,,,
194443,1564151541849,2,2.34,0.9,0.36,1.36,1.06,0.88,0.1,0.32,1,0,1,0.88,5519,21,90,43,72,1315,40.0,416,462,60,125.0,1465,1,315,278,63,0,0,37,-1281,-1,36,-5.59,44.680889,10.024432,4.43,173.6,0,0.0,-1,0.0,0.0,0,1.14,3.2407
194463,1564151541869,3,2.34,0.91,0.36,1.35,1.06,0.78,0.05,0.35,1,0,1,0.78,5728,20,90,43,70,1282,39.0,434,461,60,125.0,2000,1,334,328,72,0,0,37,-1,-1,36,-5.59,,,,,,,,,,,,
194483,1564151541905,2,2.34,0.9,0.36,1.36,1.05,0.82,0.04,0.35,0,-1,2,0.82,5982,20,90,43,68,1216,36.0,454,462,60,123.0,2000,1,356,301,72,0,0,37,-1,-1,36,-5.59,,,,,,,,,,,,
194503,1564151541925,3,2.35,0.9,0.37,1.35,1.05,0.85,-0.01,0.39,0,-3,1,0.85,6239,20,90,43,65,1155,36.0,477,462,60,123.0,2000,1,377,282,72,0,0,37,-1,-1,36,-5.59,,,,,,,,,,,,
194523,1564151541945,5,2.34,0.91,0.37,1.35,1.05,0.77,-0.01,0.49,0,-3,1,0.77,6403,20,90,43,63,1111,36.0,496,466,60,125.0,2000,1,391,274,72,0,0,33,-1,-1,32,-5.59,,,,,,,,,,,,
194543,1564151541965,3,2.34,0.91,0.36,1.36,1.05,0.72,0.01,0.52,0,-1,1,0.73,6517,20,90,43,61,1064,35.0,504,465,60,124.0,2000,1,403,267,72,0,0,33,-1,-1,32,-5.59,44.680889,10.024432,3.64,173.6,0,0.0,-1,0.0,0.0,0,1.14,3.2424
194563,1564151541985,2,2.35,0.91,0.36,1.35,1.05,0.84,0.06,0.5,0,-1,2,0.85,6754,20,90,43,60,995,32.0,519,462,60,125.0,2156,1,409,274,69,0,0,33,-1,-1,32,-5.59,,,,,,,,,,,,
194583,1564151541996,2,2.34,0.91,0.36,1.37,1.05,0.73,0.07,0.57,0,1,1,0.74,6911,20,90,43,58,928,32.0,536,464,60,122.0,2156,1,406,271,69,0,0,33,-1,-1,32,-5.59,,,,,,,,,,,,
194603,1564151542016,6,2.33,0.91,0.36,1.36,1.05,0.86,0.04,0.66,-0,-2,1,0.86,6936,19,90,43,56,903,32.0,539,465,60,124.0,2156,1,398,262,69,0,0,29,-1,-1,32,-5.59,,,,,,,,,,,,
194623,1564151542036,2,2.34,0.91,0.36,1.35,1.06,0.76,0.06,0.54,1,0,-0,0.76,6988,18,90,43,54,878,31.0,550,460,60,123.0,2156,1,389,257,69,0,0,29,-1,-1,29,-5.59,,,,,,,,,,,,
194643,1564151542056,3,2.34,0.91,0.36,1.37,1.05,0.82,-0.01,0.58,-0,-1,0,0.82,7035,16,90,43,53,851,29.0,543,467,60,122.0,2156,1,387,247,69,0,0,29,-235,-1,29,-5.59,44.680889,10.024432,3.21,173.6,0,0.0,-1,0.0,0.0,0,1.14,3.2441
194663,1564151542076,6,2.33,0.9,0.36,1.36,1.05,0.85,-0.03,0.63,0,-1,1,0.85,6998,16,90,43,51,823,29.0,551,463,60,124.0,2206,1,380,237,64,0,0,29,-235,-1,29,-5.59,,,,,,,,,,,,
194683,1564151542096,3,2.33,0.91,0.36,1.36,1.05,0.84,0.02,0.54,0,1,1,0.84,6868,15,90,43,49,820,29.0,551,461,60,123.0,2206,1,374,227,64,0,0,29,-235,5442,29,-5.59,,,,,,,,,,,,
194703,1564151542108,4,2.34,0.91,0.37,1.37,1.05,0.79,-0.06,0.66,-0,-0,1,0.79,6788,15,90,43,48,817,29.0,533,465,60,124.0,2206,1,370,222,64,0,0,29,-235,5442,29,-5.59,,,,,,,,,,,,
194723,1564151542128,4,2.33,0.9,0.36,1.36,1.05,0.85,-0.0,0.55,0,1,0,0.85,6840,15,90,43,47,810,27.0,536,462,60,124.0,2206,1,368,223,64,0,0,25,-235,5442,24,-5.59,,,,,,,,,,,,
194743,1564151542148,5,2.33,0.91,0.37,1.36,1.05,0.82,-0.06,0.6,-0,-2,0,0.82,6749,15,90,43,47,803,27.0,545,466,60,123.0,2206,1,367,217,64,0,0,25,-235,5442,24,-5.59,44.680889,10.024432,2.78,173.6,0,0.0,-1,0.0,0.0,0,1.14,3.2457
194763,1564151542168,3,2.33,0.91,0.36,1.35,1.05,0.87,0.02,0.47,0,-0,-0,0.87,6672,15,90,43,46,798,24.0,540,462,60,124.0,2291,1,359,215,55,0,0,25,-1281,5442,24,-5.59,,,,,,,,,,,,
194783,1564151542208,5,2.34,0.9,0.37,1.36,1.05,0.86,-0.01,0.49,-0,-0,1,0.86,6611,15,90,43,46,793,24.0,528,466,60,125.0,2291,1,359,215,55,0,0,25,-1281,5442,24,-5.59,,,,,,,,,,,,
194803,1564151542228,3,2.33,0.91,0.36,1.36,1.05,0.85,0.02,0.5,-0,-0,-0,0.85,6544,15,90,43,46,793,24.0,525,468,60,123.0,2291,1,358,214,55,0,0,25,-1281,-1,24,-5.59,,,,,,,,,,,,
194823,1564151542248,3,2.32,0.91,0.37,1.36,1.04,0.91,-0.02,0.46,-0,-2,-0,0.91,6510,15,90,43,46,794,24.0,528,462,60,125.0,2291,1,358,214,55,0,0,25,-1281,-1,24,-5.59,,,,,,,,,,,,
194843,1564151542268,6,2.33,0.9,0.36,1.37,1.05,0.83,0.01,0.48,-0,-1,0,0.83,6490,15,90,43,46,798,24.0,528,465,60,124.0,2291,1,357,214,55,0,0,20,-1281,-1,24,-5.59,44.680893,10.024432,2.23,173.6,0,0.0,-1,0.0,0.0,0,1.14,3.2474
194863,1564151542288,2,2.33,0.91,0.36,1.36,1.05,0.88,0.04,0.5,-0,1,-0,0.88,6430,15,90,43,46,803,23.0,524,465,60,123.0,0,1,357,216,52,0,0,20,-1281,-1,19,-5.59,,,,,,,,,,,,
194883,1564151542301,2,2.33,0.91,0.36,1.35,1.05,0.95,0.05,0.47,-0,-0,1,0.95,6408,15,90,43,46,807,23.0,522,463,60,125.0,0,1,357,216,52,0,0,20,-1281,-1,19,-5.59,,,,,,,,,,,,
194903,1564151542321,4,2.33,0.91,0.37,1.36,1.05,0.86,-0.03,0.57,-0,-1,0,0.87,6394,15,90,43,47,811,19.0,510,468,60,125.0,0,1,363,215,52,0,0,20,9731,-1,19,-5.59,,,,,,,,,,,,
194923,1564151542341,6,2.33,0.91,0.37,1.37,1.05,0.76,0.02,0.58,0,1,0,0.76,6375,15,90,43,47,812,19.0,507,466,60,124.0,0,1,363,141,52,0,0,20,9731,-1,19,-5.59,,,,,,,,,,,,
194943,1564151542361,3,2.33,0.91,0.36,1.36,1.05,0.84,0.05,0.5,0,2,0,0.84,6397,15,90,43,47,812,19.0,509,462,60,124.0,0,1,363,215,52,0,0,20,9731,-1,19,-5.59,44.680893,10.024432,1.99,173.6,0,0.0,-1,0.0,0.0,0,1.14,3.249
194963,1564151542381,3,2.33,0.91,0.36,1.37,1.05,0.96,0.04,0.5,0,-0,1,0.96,6399,15,90,43,47,813,19.0,503,464,60,125.0,0,1,363,141,51,0,0,20,9731,-1,19,-5.59,,,,,,,,,,,,
194983,1564151542394,5,2.33,0.92,0.37,1.36,1.05,0.89,0.0,0.57,-0,-2,1,0.89,6401,14,90,43,47,814,19.0,511,466,60,124.0,0,1,364,214,51,0,0,20,9731,-1,19,-5.59,,,,,,,,,,,,
195003,1564151542414,6,2.33,0.91,0.37,1.36,1.06,0.81,0.01,0.54,0,-1,-0,0.81,6386,14,90,43,47,817,19.0,515,465,60,123.0,0,1,363,215,51,0,0,20,9731,-1,19,-5.59,,,,,,,,,,,,
195023,1564151542434,2,2.34,0.9,0.36,1.36,1.05,0.87,0.06,0.4,1,1,-0,0.88,6401,14,90,43,47,821,19.0,516,463,60,124.0,0,1,364,216,51,0,0,20,9731,-1,19,-5.59,,,,,,,,,,,,
195043,1564151542454,3,2.34,0.91,0.36,1.36,1.05,0.93,0.05,0.37,0,1,0,0.93,6397,14,90,43,46,820,19.0,514,463,60,124.0,0,1,356,213,51,0,0,20,9731,-1,19,-5.59,44.680893,10.024432,0.0,173.6,0,0.0,-1,0.0,0.0,0,1.14,3.2507
195063,1564151542474,4,2.34,0.91,0.36,1.36,1.05,0.89,0.02,0.45,-0,1,0,0.89,6414,14,90,43,46,819,19.0,511,466,60,124.0,0,1,357,214,51,0,0,12,9731,-1,19,-5.59,,,,,,,,,,,,
195083,1564151542504,1,2.33,0.91,0.36,1.37,1.05,0.88,-0.0,0.45,-0,0,-1,0.88,6401,14,90,43,46,817,19.0,514,467,60,124.0,0,1,357,214,51,0,0,12,9731,-1,19,-5.59,,,,,,,,,,,,
195103,1564151542524,0,2.34,0.91,0.37,1.35,1.05,0.94,0.01,0.41,-0,-2,-1,0.94,6405,14,90,43,46,813,17.0,514,465,60,124.0,0,1,357,214,51,0,0,12,9731,-1,11,-5.59,,,,,,,,,,,,
195123,1564151542544,3,2.34,0.91,0.36,1.37,1.05,0.92,-0.03,0.44,-0,-3,-0,0.92,6445,14,90,43,46,808,17.0,518,466,60,125.0,0,1,357,214,51,0,0,12,9731,-1,11,-5.59,,,,,,,,,,,,
195143,1564151542564,5,2.33,0.91,0.36,1.36,1.05,0.82,0.02,0.48,-0,-0,0,0.82,6463,14,90,43,46,805,17.0,516,463,60,124.0,0,1,357,214,51,0,0,12,9731,-1,11,-5.59,44.680893,10.024432,0.0,173.6,0,0.0,-1,0.0,0.0,0,1.14,3.2524
195163,1564151542584,1,2.33,0.91,0.36,1.37,1.05,0.9,0.05,0.47,-0,1,-0,0.9,6447,14,90,43,46,804,17.0,521,465,60,124.0,0,1,357,214,52,0,0,12,9731,-1,11,-5.59,,,,,,,,,,,,
195183,1564151542594,1,2.34,0.91,0.37,1.37,1.04,0.94,0.03,0.49,-0,-1,0,0.94,6458,14,90,43,46,804,17.0,519,463,60,124.0,0,1,357,214,52,0,0,12,9731,-1,11,-5.59,,,,,,,,,,,,
195203,1564151542614,3,2.33,0.91,0.36,1.36,1.05,0.81,-0.01,0.54,-0,0,-0,0.81,6487,14,90,43,46,807,17.0,515,466,60,124.0,0,1,357,214,52,0,0,12,9731,-1,11,-5.59,,,,,,,,,,,,
195223,1564151542634,2,2.33,0.9,0.36,1.36,1.05,0.84,0.05,0.47,0,2,-0,0.84,6542,14,90,43,46,812,17.0,520,468,60,123.0,0,1,358,214,52,0,0,12,9731,-1,11,-5.59,,,,,,,,,,,,
195243,1564151542654,2,2.33,0.91,0.36,1.36,1.05,0.93,0.04,0.49,-0,-1,1,0.93,6565,14,91,43,45,816,17.0,520,465,60,124.0,0,1,351,213,52,0,0,12,9731,-1,11,-5.59,44.680893,10.024432,0.0,173.6,0,0.0,-1,0.0,0.0,0,1.14,3.2541
195263,1564151542674,3,2.33,0.91,0.36,1.36,1.05,0.81,0.0,0.51,0,-1,-0,0.81,6578,14,90,43,45,820,17.0,524,465,60,123.0,0,1,351,213,53,0,0,12,9731,-1,11,-5.59,,,,,,,,,,,,
195283,1564151542704,1,2.34,0.91,0.35,1.36,1.05,0.88,0.07,0.36,0,1,-0,0.88,6592,14,90,43,45,823,17.0,525,462,60,124.0,0,1,351,213,53,0,0,12,9731,-1,11,-5.59,,,,,,,,,,,,
195303,1564151542724,2,2.34,0.91,0.36,1.36,1.05,0.88,0.04,0.4,-0,-0,1,0.88,6627,14,91,43,45,828,17.0,522,462,60,124.0,0,1,352,213,53,0,0,12,9731,-1,11,-5.59,,,,,,,,,,,,
195323,1564151542744,1,2.34,0.91,0.36,1.36,1.05,0.84,0.06,0.4,0,1,-0,0.84,6663,14,91,43,44,832,17.0,533,466,60,122.0,0,1,345,213,53,0,0,12,9731,-1,11,-5.59,,,,,,,,,,,,
195343,1564151542764,3,2.33,0.91,0.36,1.36,1.05,0.87,0.01,0.42,-0,-1,-0,0.87,6691,13,91,43,44,832,17.0,533,463,60,124.0,0,1,345,212,53,0,0,12,9731,-1,11,-5.59,44.680893,10.024432,0.0,173.6,0,0.0,-1,0.0,0.0,0,1.14,3.2557
195363,1564151542784,1,2.34,0.91,0.36,1.36,1.05,0.82,0.03,0.43,-0,1,-0,0.82,6665,13,91,43,44,833,17.0,532,465,60,124.0,0,1,345,138,53,0,0,12,9731,-1,11,-5.59,,,,,,,,,,,,
195383,1564151542792,2,2.34,0.91,0.36,1.36,1.05,0.88,0.02,0.47,-0,-1,0,0.88,6689,13,91,43,44,833,17.0,531,464,60,125.0,0,1,345,212,53,0,0,12,9731,-1,11,-5.59,,,,,,,,,,,,
195403,1564151542812,1,2.34,0.91,0.36,1.36,1.05,0.77,0.07,0.5,0,1,-0,0.77,6754,13,91,43,44,833,11.0,533,468,60,123.0,0,1,345,212,53,0,0,12,250,-1,11,-5.59,,,,,,,,,,,,
