"Interval"|"ms"|0|0|1,"Utc"|"ms"|0|0|1,"FB_p"|"bar"|0|300|50,"Volant"|"F"|0.0|300.0|50,"xFR"|"mm"|0.0|5.0|50,"xRR"|"mm"|0.0|5.0|50,"xFL"|"mm"|0.0|5.0|50,"xRL"|"mm"|0.0|5.0|50,"AccelX"|"G"|-3.0|3.0|50,"AccelY"|"G"|-3.0|3.0|50,"AccelZ"|"G"|-3.0|3.0|50,"Yaw"|"Deg/Sec"|-120|120|50,"Pitch"|"Deg/Sec"|-120|120|50,"Roll"|"Deg/Sec"|-120|120|50,"Gsum"|"G"|0.0|3.0|50,"RPM"|""|0|14000|50,"TPS"|"%"|0|100|50,"WaterTemp"|"?C"|0|300|50,"AirTemp"|"?C"|-1000|1000|50,"MAP"|"KPa"|0|255|50,"Lambda"|""|0|1024|50,"WheelSpeed"|"MPH"|0.0|150.0|50,"OilPress"|"PSI"|0|150|50,"FuelPress"|"PSI"|0|150|50,"OilTemp"|"F"|0|300|50,"Battery"|"Volts"|0.0|20.0|50,"FuelCon"|"L/h"|-1000|1000|50,"Gear"|""|0|10|50,"Advance"|"Deg"|-360|360|50,"Injection"|"ms"|-1000|1000|50,"FuelCon"|"L/100km"|-1000|1000|50,"LC_But_Pres"|""|-1000|1000|50,"LC_Active"|""|-1000|1000|50,"RD_Speed"|""|-1000|1000|50,"RUD_Speed"|""|-1000|1000|50,"LD_Speed"|""|-1000|1000|50,"LUD_Speed"|""|-1000|1000|50,"Latitude"|"Degrees"|-180.0|180.0|10,"Longitude"|"Degrees"|-180.0|180.0|10,"Speed"|"kph"|0.0|150.0|10,"Altitude"|"m"|0.0|4000.0|10,"LapCount"|""|0|0|10,"LapTime"|"Min"|0.0|0.0|10,"Sector"|""|0|0|10,"SectorTime"|"Min"|0.0|0.0|10,"ElapsedTime"|"Min"|0.0|0.0|10,"CurrentLap"|""|0|0|10,"Distance"|"mi"|0.0|0.0|10,"SessionTime"|"Min"|0.0|0.0|10
878663,1560683078031,4,2.3,1.88,3.39,1.85,3.12,0.92,-0.04,0.27,2,1,4,0.93,9847,8,83,31,22,810,546.0,646,459,60,121.0,125,1,270,177,69,0,0,525,-8186,-22519,542,,,,,,,,,,,,
878683,1560683078051,8,2.28,1.88,3.37,1.84,3.13,1.03,-0.03,0.31,2,0,4,1.03,9791,8,83,31,22,814,542.0,649,467,60,120.0,125,1,270,176,69,0,0,524,-8186,-32248,542,,,,,,,,,,,,
878703,1560683078071,7,2.29,1.87,3.35,1.83,3.14,0.88,0.01,0.29,2,1,4,0.88,9755,8,83,31,22,819,539.0,646,458,60,121.0,125,1,270,175,69,0,0,520,-28648,16383,539,,,,,,,,,,,,
878723,1560683078099,9,2.28,1.87,3.36,1.82,3.14,1.0,-0.12,0.33,2,-0,4,1.0,9694,8,83,31,22,828,537.0,650,466,60,120.0,119,1,270,174,64,0,0,519,6274,1248,537,,,,,,,,,,,,
878743,1560683078119,5,2.3,1.85,3.38,1.83,3.13,0.9,-0.09,0.31,3,2,3,0.91,9590,8,83,31,22,837,533.0,653,462,60,120.0,119,1,270,172,64,0,0,515,2524,-3482,533,45.702137,4.910846,54.05,196.8,1,3.9967,0,0.0,3.1967,2,0.26,14.6457
878763,1560683078139,10,2.28,1.84,3.43,1.82,3.12,0.94,-0.04,0.15,3,2,5,0.94,9537,8,83,31,22,842,528.0,651,460,60,121.0,119,1,270,171,64,0,0,508,-32248,-4054,528,,,,,,,,,,,,
878783,1560683078159,11,2.3,1.85,3.43,1.81,3.12,1.05,-0.14,0.29,2,0,3,1.06,9479,8,83,31,22,847,525.0,653,463,60,121.0,119,1,270,164,64,0,0,505,-22519,-32248,525,,,,,,,,,,,,
878803,1560683078179,7,2.31,1.85,3.43,1.81,3.1,1.01,-0.12,0.27,3,4,4,1.01,9436,8,83,31,21,860,520.0,648,460,60,121.0,119,1,270,164,64,0,0,510,1341,10994,520,,,,,,,,,,,,
878823,1560683078199,9,2.31,1.85,3.43,1.81,3.1,0.77,0.05,0.09,3,-0,4,0.77,9365,8,83,31,21,873,516.0,643,456,60,121.0,112,1,270,164,58,0,0,499,16383,15661,516,,,,,,,,,,,,
878843,1560683078219,10,2.31,1.85,3.44,1.82,3.1,0.9,-0.05,0.16,3,2,4,0.9,9300,8,83,31,21,883,513.0,642,462,60,121.0,112,1,270,164,58,0,0,495,-4054,771,513,45.702133,4.910861,52.5,196.8,1,3.9967,0,0.0,3.1983,2,0.26,14.6474
878863,1560683078239,10,2.3,1.85,3.45,1.83,3.14,1.01,-0.22,0.34,2,-3,4,1.03,9231,8,83,31,21,891,508.0,640,459,60,120.0,112,1,270,164,58,0,0,494,-21872,-6656,508,,,,,,,,,,,,
878883,1560683078259,11,2.3,1.85,3.45,1.81,3.19,0.96,-0.16,0.36,2,-0,3,0.98,9088,8,83,32,20,909,505.0,639,457,60,120.0,112,1,270,157,58,0,0,486,2109,-10483,505,,,,,,,,,,,,
878903,1560683078279,11,2.31,1.83,3.43,1.8,3.19,0.91,-0.06,0.35,2,-1,4,0.91,8979,8,83,32,20,926,503.0,638,462,60,121.0,112,1,270,157,58,0,0,485,-22519,1,503,,,,,,,,,,,,
878923,1560683078299,10,2.31,1.83,3.43,1.8,3.18,0.9,0.02,0.41,2,-0,4,0.9,8882,8,83,32,20,937,501.0,640,462,60,120.0,105,1,270,157,53,0,0,486,3,-6441,501,,,,,,,,,,,,
878943,1560683078319,9,2.3,1.83,3.43,1.81,3.16,0.91,-0.05,0.48,3,-2,4,0.91,8856,8,83,32,20,946,497.0,636,459,60,120.0,105,1,270,157,53,0,0,475,248,-23367,497,45.702122,4.910875,50.92,196.8,1,3.9967,0,0.0,3.2,2,0.26,14.649
878963,1560683078339,7,2.3,1.81,3.46,1.8,3.16,1.01,-0.1,0.54,3,-2,4,1.02,8798,7,83,32,20,967,496.0,638,460,60,121.0,105,1,270,157,53,0,0,464,-1562,-1923,494,,,,,,,,,,,,
878983,1560683078359,8,2.3,1.82,3.48,1.81,3.18,1.08,-0.26,0.49,3,-2,5,1.11,8737,7,83,32,20,991,489.0,641,465,60,121.0,105,1,270,157,53,0,0,459,-6441,12552,489,,,,,,,,,,,,
879003,1560683078379,9,2.29,1.82,3.48,1.81,3.19,1.02,-0.28,0.36,3,-1,5,1.05,8660,7,83,32,20,1010,488.0,637,460,60,121.0,105,1,270,157,53,0,0,465,3580,17628,488,,,,,,,,,,,,
879023,1560683078400,8,2.29,1.82,3.42,1.82,3.17,1.01,-0.26,0.3,3,0,6,1.04,8593,7,83,32,21,1026,484.0,632,462,60,120.0,105,1,270,164,51,0,0,464,16648,16408,484,,,,,,,,,,,,
879043,1560683078420,5,2.3,1.83,3.41,1.81,3.15,1.07,-0.25,0.35,3,-2,5,1.09,8530,7,83,32,21,1054,478.0,631,461,60,121.0,105,1,270,164,51,0,0,460,3576,-23623,481,45.702114,4.910889,49.14,196.8,1,3.9967,0,0.0,3.2017,2,0.26,14.6507
879063,1560683078440,10,2.29,1.81,3.41,1.8,3.13,1.09,-0.3,0.21,4,-0,5,1.13,8507,7,83,32,21,1086,477.0,630,460,60,121.0,105,1,270,164,51,0,0,460,32033,-6387,477,,,,,,,,,,,,
879083,1560683078460,7,2.29,1.81,3.41,1.8,3.11,1.08,-0.28,0.24,4,-3,5,1.11,8480,7,83,32,22,1110,472.0,630,460,60,120.0,105,1,270,169,51,0,0,451,-16384,-18108,472,,,,,,,,,,,,
879103,1560683078480,7,2.28,1.79,3.43,1.79,3.11,1.03,-0.29,0.24,4,-0,5,1.07,8476,7,83,32,22,1125,469.0,630,458,60,120.0,105,1,270,169,51,0,0,450,6193,8488,467,,,,,,,,,,,,
879123,1560683078499,10,2.28,1.8,3.44,1.79,3.13,1.05,-0.26,0.13,3,-1,5,1.08,8408,7,83,32,22,1149,464.0,628,463,60,120.0,113,1,270,166,53,0,0,444,16408,21432,463,,,,,,,,,,,,
879143,1560683078519,7,2.28,1.82,3.42,1.79,3.13,1.05,-0.21,0.18,3,-0,5,1.07,8318,7,83,32,23,1177,461.0,633,461,60,120.0,113,1,270,168,53,0,0,448,-18108,21432,461,45.702106,4.910902,47.33,196.8,1,3.9967,0,0.0,3.2033,2,0.26,14.6524
879163,1560683078539,9,2.27,1.82,3.39,1.8,3.15,1.15,-0.17,0.12,3,-1,5,1.16,8220,7,83,32,23,1197,457.0,626,461,60,122.0,113,1,270,163,53,0,0,444,14488,21580,457,,,,,,,,,,,,
879183,1560683078559,12,2.27,1.83,3.39,1.8,3.15,1.13,-0.16,0.23,3,-0,6,1.14,8148,7,83,32,23,1210,453.0,631,461,60,120.0,113,1,270,162,53,0,0,439,-3267,21432,452,,,,,,,,,,,,
879203,1560683078579,6,2.28,1.82,3.42,1.79,3.16,1.22,-0.14,0.2,2,-3,4,1.23,8123,7,83,32,23,1224,449.0,629,462,60,122.0,113,1,270,159,53,0,0,433,10305,-768,449,,,,,,,,,,,,
879223,1560683078599,9,2.28,1.81,3.43,1.79,3.15,1.17,-0.04,0.26,2,-3,3,1.17,8033,7,83,33,23,1239,446.0,625,460,60,121.0,104,1,270,154,47,0,0,429,2131,1779,446,,,,,,,,,,,,
879243,1560683078619,8,2.27,1.81,3.41,1.78,3.16,1.18,-0.12,0.3,2,-5,3,1.19,7944,7,83,33,23,1249,443.0,622,458,60,120.0,104,1,269,154,47,0,0,425,-18341,3635,443,45.702099,4.910914,45.44,196.8,1,3.9967,0,0.0,3.205,2,0.26,14.654
879263,1560683078639,5,2.27,1.82,3.41,1.78,3.16,1.27,-0.21,0.28,2,-6,3,1.28,7908,7,83,33,23,1251,441.0,619,461,60,120.0,104,1,269,154,47,0,0,426,20625,-3414,441,,,,,,,,,,,,
879283,1560683078659,8,2.26,1.82,3.41,1.77,3.16,1.3,-0.23,0.34,1,-6,2,1.32,7835,7,83,33,23,1254,438.0,616,460,60,121.0,104,1,268,154,47,0,0,419,5600,-21792,436,,,,,,,,,,,,
879303,1560683078679,8,2.25,1.83,3.41,1.78,3.16,1.23,-0.14,0.37,1,-6,1,1.24,7812,7,83,33,23,1257,433.0,618,460,60,121.0,104,1,268,154,47,0,0,418,243,-3414,430,,,,,,,,,,,,
879323,1560683078698,10,2.26,1.85,3.4,1.78,3.16,1.19,-0.16,0.32,1,-5,0,1.2,7747,7,83,33,23,1259,429.0,619,460,60,121.0,104,1,267,154,45,0,0,415,3635,-26615,429,,,,,,,,,,,,
879343,1560683078718,11,2.25,1.86,3.4,1.77,3.16,1.15,-0.2,0.3,2,-4,0,1.16,7693,7,83,33,23,1259,427.0,616,461,60,120.0,104,1,266,154,45,0,0,415,-3856,-9166,424,45.702091,4.910926,43.73,196.8,1,3.9967,0,0.0,3.2067,2,0.26,14.6557
879363,1560683078738,11,2.25,1.86,3.4,1.77,3.17,1.07,-0.29,0.22,2,-4,0,1.11,7668,7,83,33,23,1258,421.0,616,463,60,121.0,104,1,266,154,45,0,0,411,-21792,9517,419,,,,,,,,,,,,
879383,1560683078758,12,2.24,1.84,3.39,1.76,3.19,1.05,-0.29,0.3,2,-4,1,1.09,7581,7,83,33,23,1255,420.0,610,459,60,120.0,104,1,265,154,45,0,0,408,-8165,1504,417,,,,,,,,,,,,
879403,1560683078778,13,2.25,1.83,3.38,1.74,3.22,1.14,-0.21,0.39,2,-3,2,1.15,7542,7,83,33,22,1251,417.0,615,460,60,122.0,104,1,265,154,45,0,0,407,-21944,6512,415,,,,,,,,,,,,
879423,1560683078798,11,2.25,1.84,3.38,1.73,3.22,1.2,-0.19,0.44,1,-1,1,1.22,7446,7,83,33,22,1248,415.0,613,463,60,122.0,104,1,264,151,43,0,0,401,13040,-32702,410,,,,,,,,,,,,
879443,1560683078818,10,2.25,1.85,3.36,1.74,3.2,1.17,-0.2,0.48,2,-0,1,1.19,7422,7,83,33,22,1243,410.0,611,463,60,121.0,104,1,264,151,43,0,0,396,9517,-1818,406,45.702084,4.910937,42.17,196.8,1,3.9967,0,0.0,3.2083,2,0.26,14.6574
879463,1560683078838,12,2.24,1.84,3.38,1.73,3.2,1.1,-0.24,0.46,2,-0,1,1.13,7364,7,83,33,22,1233,407.0,613,459,60,120.0,104,1,263,151,43,0,0,390,-26615,28696,403,,,,,,,,,,,,
879483,1560683078858,10,2.24,1.85,3.39,1.74,3.2,1.04,-0.22,0.4,3,2,2,1.06,7329,7,83,33,22,1224,403.0,608,461,60,120.0,104,1,263,151,43,0,0,389,-8151,-1562,399,,,,,,,,,,,,
879503,1560683078878,10,2.24,1.85,3.39,1.74,3.19,0.96,-0.2,0.33,2,1,2,0.98,7233,7,83,33,22,1219,400.0,606,462,60,120.0,104,1,262,151,43,0,0,383,6512,-19126,396,,,,,,,,,,,,
879523,1560683078898,7,2.25,1.85,3.38,1.74,3.2,0.97,-0.09,0.28,1,1,2,0.98,7159,7,83,33,22,1206,398.0,599,457,60,122.0,104,1,261,151,41,0,0,382,6384,-31744,393,,,,,,,,,,,,
879543,1560683078918,15,2.24,1.85,3.37,1.72,3.21,0.99,-0.1,0.33,-0,1,3,1.0,7102,7,83,33,22,1164,395.0,596,460,60,122.0,104,1,261,151,41,0,0,386,17144,-19126,390,45.702076,4.910948,40.44,196.8,1,3.9967,0,0.0,3.21,2,0.27,14.659
879563,1560683078938,12,2.25,1.85,3.35,1.72,3.22,0.97,-0.13,0.29,1,3,5,0.97,7014,7,83,33,22,1122,389.0,589,461,60,121.0,104,1,260,151,41,0,0,381,-6524,1,386,,,,,,,,,,,,
879583,1560683078958,7,2.26,1.84,3.35,1.71,3.23,0.97,-0.02,0.17,1,2,4,0.97,6991,7,83,33,22,1086,388.0,586,461,60,121.0,104,1,260,151,41,0,0,375,-31744,-6656,383,,,,,,,,,,,,
879603,1560683078978,11,2.26,1.84,3.36,1.71,3.21,1.07,-0.05,0.22,-0,1,2,1.07,6939,7,83,34,22,1049,381.0,580,461,60,121.0,104,1,260,151,41,0,0,375,-18948,-6656,379,,,,,,,,,,,,
879623,1560683078992,10,2.26,1.84,3.37,1.73,3.19,1.03,-0.07,0.18,1,1,2,1.03,6865,7,83,34,23,998,379.0,576,463,60,120.0,105,1,261,153,40,0,0,366,8200,-6656,378,,,,,,,,,,,,
879643,1560683079012,13,2.28,1.84,3.38,1.74,3.18,0.98,-0.06,0.2,0,1,1,0.99,6823,7,83,34,23,948,375.0,573,457,60,122.0,105,1,261,153,40,0,0,367,742,-1268,372,45.702072,4.910959,38.99,196.8,1,3.9967,0,0.0,3.2117,2,0.27,14.6607
879663,1560683079032,9,2.26,1.84,3.38,1.73,3.18,1.02,-0.1,0.16,-0,1,1,1.03,6759,7,83,34,23,931,372.0,574,462,60,121.0,105,1,261,153,40,0,0,359,486,3082,368,,,,,,,,,,,,
879683,1560683079052,13,2.27,1.83,3.37,1.73,3.19,0.95,-0.08,0.22,-0,1,2,0.95,6691,7,83,34,23,917,369.0,568,457,60,122.0,105,1,262,152,40,0,0,357,0,-29302,367,,,,,,,,,,,,
879703,1560683079072,9,2.27,1.84,3.37,1.73,3.2,0.99,-0.02,0.1,-0,3,2,0.99,6592,6,83,34,23,904,366.0,569,462,60,121.0,105,1,262,152,40,0,0,355,230,3302,364,,,,,,,,,,,,
879723,1560683079100,10,2.28,1.84,3.37,1.72,3.22,1.09,-0.1,0.26,-1,0,2,1.09,6528,6,83,34,24,893,362.0,560,463,60,122.0,104,1,263,155,38,0,0,353,2790,2811,360,,,,,,,,,,,,
879743,1560683079120,10,2.29,1.84,3.35,1.73,3.21,1.05,-0.12,0.23,0,-1,0,1.05,6478,6,83,34,24,892,358.0,555,460,60,121.0,104,1,264,155,38,0,0,349,-29978,-14714,356,45.702064,4.910969,37.25,196.9,1,3.9967,0,0.0,3.2133,2,0.27,14.6624
879763,1560683079140,7,2.28,1.84,3.35,1.73,3.2,1.05,-0.02,0.13,0,-1,-0,1.05,6438,6,83,34,24,893,354.0,546,462,60,120.0,104,1,264,155,38,0,0,346,3183,-1246,354,,,,,,,,,,,,
879783,1560683079160,9,2.29,1.84,3.38,1.74,3.2,1.03,-0.1,0.12,0,1,0,1.04,6412,6,83,34,24,899,352.0,542,460,60,122.0,104,1,264,155,38,0,0,342,-1246,-10554,352,,,,,,,,,,,,
879803,1560683079180,10,2.29,1.84,3.4,1.74,3.21,1.13,-0.14,0.14,-0,-0,-0,1.14,6373,6,83,34,25,903,349.0,539,457,60,122.0,104,1,267,159,38,0,0,336,-30438,-31222,349,,,,,,,,,,,,
879823,1560683079200,9,2.3,1.84,3.38,1.74,3.19,1.16,-0.15,0.17,0,-1,0,1.17,6306,6,83,34,25,906,348.0,536,462,60,122.0,109,1,267,159,38,0,0,336,-14714,-31206,348,,,,,,,,,,,,
879843,1560683079220,12,2.3,1.84,3.37,1.75,3.17,1.06,-0.11,0.1,1,-1,2,1.07,6208,6,83,34,25,907,343.0,531,462,60,120.0,109,1,268,159,38,0,0,334,-122,4838,343,45.702057,4.910979,35.51,196.9,1,3.9967,0,0.0,3.215,2,0.27,14.6641
879863,1560683079240,12,2.29,1.84,3.37,1.74,3.19,0.95,-0.04,-0.0,2,1,4,0.95,6145,6,83,34,26,908,339.0,524,459,60,120.0,109,1,272,160,38,0,0,329,2560,175,339,,,,,,,,,,,,
879883,1560683079260,11,2.3,1.83,3.37,1.74,3.19,0.85,-0.0,-0.06,1,3,5,0.85,6089,6,83,34,26,910,337.0,518,458,60,121.0,109,1,272,160,38,0,0,327,4838,165,337,,,,,,,,,,,,
879903,1560683079280,10,2.29,1.83,3.37,1.74,3.2,0.75,0.03,-0.09,0,7,6,0.75,6052,6,83,34,26,910,334.0,515,456,60,121.0,109,1,272,160,38,0,0,324,-32559,165,334,,,,,,,,,,,,
879923,1560683079300,11,2.28,1.83,3.38,1.74,3.2,0.69,0.05,-0.16,-0,10,7,0.69,5986,6,83,34,26,909,331.0,514,457,60,122.0,108,1,271,160,36,0,0,321,170,-25856,331,,,,,,,,,,,,
879943,1560683079320,11,2.29,1.83,3.37,1.74,3.19,0.61,0.06,-0.2,-1,12,8,0.62,5924,6,83,34,27,913,328.0,508,458,60,120.0,108,1,274,161,36,0,0,319,160,150,328,45.702053,4.910988,33.95,196.9,1,3.9967,0,0.0,3.2167,2,0.27,14.6657
879963,1560683079340,10,2.27,1.83,3.38,1.75,3.17,0.52,0.05,-0.21,-2,15,9,0.52,5883,6,83,34,27,919,326.0,503,461,60,120.0,108,1,273,161,36,0,0,316,-25856,-28416,326,,,,,,,,,,,,
879983,1560683079360,9,2.27,1.83,3.37,1.74,3.17,0.32,0.06,-0.2,-1,17,9,0.33,5835,6,83,34,27,924,322.0,498,460,60,120.0,108,1,273,161,36,0,0,314,-27136,140,322,,,,,,,,,,,,
880003,1560683079380,5,2.26,1.83,3.37,1.72,3.17,0.13,0.09,-0.21,2,18,8,0.16,5812,6,83,34,28,929,320.0,497,462,60,121.0,108,1,275,162,36,0,0,311,-28416,-30976,320,,,,,,,,,,,,
880023,1560683079400,6,2.25,1.83,3.38,1.72,3.18,0.19,0.14,-0.2,4,16,8,0.23,5781,6,83,34,28,934,315.0,494,460,60,122.0,110,1,274,162,35,0,0,306,-29696,29440,315,,,,,,,,,,,,
880043,1560683079420,6,2.25,1.84,3.35,1.72,3.18,0.37,0.21,-0.09,4,10,7,0.42,5723,6,83,34,29,940,314.0,488,463,60,122.0,110,1,276,163,35,0,0,305,-30976,110,313,45.702045,4.910997,32.29,196.9,1,3.9967,0,0.0,3.2183,2,0.27,14.6674
880063,1560683079440,9,2.25,1.84,3.34,1.72,3.18,0.54,0.17,-0.02,2,10,6,0.56,5661,6,83,34,29,946,311.0,482,463,60,122.0,110,1,275,162,35,0,0,304,-32256,105,308,,,,,,,,,,,,
880083,1560683079460,5,2.24,1.84,3.34,1.71,3.16,0.39,0.1,-0.02,0,12,6,0.4,5613,6,83,34,30,950,309.0,480,463,60,120.0,110,1,277,163,35,0,0,302,32000,26880,306,,,,,,,,,,,,
880103,1560683079480,3,2.25,1.85,3.34,1.71,3.18,0.3,0.13,0.01,2,11,6,0.32,5568,6,83,34,31,954,307.0,478,462,60,121.0,110,1,278,162,35,0,0,300,30720,90,303,,,,,,,,,,,,
880123,1560683079500,8,2.25,1.87,3.36,1.71,3.16,0.47,0.2,0.07,3,6,5,0.51,5542,6,83,34,31,960,303.0,471,455,60,122.0,112,1,277,163,34,0,0,295,28160,95,299,,,,,,,,,,,,
880143,1560683079520,4,2.25,1.88,3.36,1.72,3.15,0.52,0.08,0.11,1,8,3,0.53,5485,6,83,34,32,967,302.0,468,458,60,121.0,112,1,279,163,34,0,0,293,105,90,299,45.702042,4.911006,30.91,196.9,1,3.9967,0,0.0,3.22,2,0.27,14.6691
880163,1560683079540,5,2.23,1.89,3.36,1.72,3.13,0.44,0.11,0.12,2,9,3,0.45,5458,6,83,34,33,972,300.0,465,471,60,121.0,112,1,282,169,34,0,0,293,25600,20480,296,,,,,,,,,,,,
880183,1560683079560,7,2.22,1.89,3.36,1.71,3.11,0.6,0.15,0.15,0,5,2,0.62,5412,6,83,34,33,971,297.0,461,457,60,122.0,112,1,281,169,34,0,0,290,24320,0,292,,,,,,,,,,,,
880203,1560683079580,5,2.23,1.88,3.37,1.7,3.11,0.41,0.15,0.12,0,8,1,0.44,5374,6,83,34,34,966,295.0,453,456,60,120.0,112,1,284,174,34,0,0,288,23040,0,290,,,,,,,,,,,,
880223,1560683079599,8,2.22,1.89,3.37,1.69,3.12,0.57,0.19,0.21,0,4,-1,0.61,5331,6,83,34,35,960,293.0,452,465,60,122.0,125,1,287,179,36,0,0,284,21760,24064,287,,,,,,,,,,,,
880243,1560683079619,4,2.21,1.89,3.36,1.69,3.13,0.44,0.1,0.1,-1,7,-1,0.45,5274,6,83,34,35,954,291.0,449,462,60,121.0,125,1,286,185,36,0,0,282,20480,24064,284,45.702034,4.911014,29.63,196.9,1,3.9967,0,0.0,3.2217,2,0.27,14.6707
880263,1560683079639,8,2.2,1.91,3.35,1.68,3.13,0.6,0.25,0.14,-0,3,-2,0.65,5241,6,83,34,36,938,289.0,446,457,60,122.0,125,1,290,185,36,0,0,283,0,630,281,,,,,,,,,,,,
880283,1560683079659,5,2.19,1.91,3.34,1.68,3.14,0.44,0.11,0.14,-2,6,-2,0.46,5201,6,83,34,37,902,287.0,437,462,60,120.0,125,1,294,191,36,0,0,283,41,2414,279,,,,,,,,,,,,
880303,1560683079679,5,2.18,1.93,3.32,1.68,3.16,0.6,0.18,0.22,-2,1,-3,0.63,5152,6,83,34,38,867,285.0,440,457,60,122.0,125,1,297,190,36,0,0,280,-16896,28160,276,,,,,,,,,,,,
880323,1560683079699,5,2.15,1.98,3.3,1.69,3.19,0.45,0.2,0.14,-2,5,-5,0.49,5070,6,83,34,38,838,283.0,432,463,60,120.0,137,1,295,196,38,0,0,277,24064,-1,275,,,,,,,,,,,,
880343,1560683079719,2,2.15,1.98,3.29,1.69,3.2,0.61,0.16,0.21,-4,2,-6,0.62,5036,6,83,34,39,813,280.0,427,455,60,122.0,137,1,300,203,38,0,0,273,250,-1,272,45.702034,4.911021,28.37,196.9,1,3.9967,0,0.0,3.2233,2,0.27,14.6724
880363,1560683079739,7,2.13,1.98,3.3,1.67,3.2,0.75,0.27,0.28,-4,0,-7,0.79,4989,6,83,34,40,796,279.0,427,460,60,122.0,137,1,299,203,38,0,0,270,-1534,-1,267,,,,,,,,,,,,
880383,1560683079759,10,2.12,1.98,3.3,1.67,3.21,0.62,0.24,0.19,-4,3,-8,0.67,4969,6,83,34,40,779,277.0,423,458,60,120.0,137,1,298,205,38,0,0,270,30208,-1,265,,,,,,,,,,,,
880403,1560683079779,3,2.12,1.99,3.3,1.68,3.21,0.67,0.17,0.21,-6,3,-9,0.69,4943,6,83,34,41,791,277.0,416,454,60,120.0,137,1,298,204,38,0,0,270,30208,-1,262,,,,,,,,,,,,
880423,1560683079799,6,2.09,1.99,3.29,1.68,3.23,0.81,0.2,0.23,-6,-1,-9,0.83,4905,6,83,34,41,804,273.0,416,456,60,122.0,146,1,297,203,38,0,0,266,28160,-1281,258,,,,,,,,,,,,
880443,1560683079819,7,2.06,2.01,3.28,1.68,3.24,0.83,0.27,0.29,-7,1,-10,0.88,4894,6,83,34,42,822,272.0,414,464,60,122.0,146,1,297,205,38,0,0,266,250,-214,254,45.702026,4.911029,27.21,196.9,1,3.9967,0,0.0,3.225,2,0.27,14.6741
880463,1560683079839,11,2.04,2.01,3.26,1.66,3.28,0.71,0.21,0.19,-8,2,-11,0.74,4838,6,83,34,42,841,270.0,412,458,60,120.0,146,1,295,203,38,0,0,264,-1,16896,251,,,,,,,,,,,,
880483,1560683079859,7,2.02,2.03,3.24,1.65,3.3,0.69,0.26,0.19,-9,3,-11,0.73,4748,6,83,34,43,847,269.0,408,457,60,120.0,146,1,294,203,38,0,0,264,-1,15360,248,,,,,,,,,,,,
880503,1560683079879,8,1.99,2.05,3.21,1.65,3.27,0.73,0.31,0.25,-11,3,-13,0.8,4683,6,83,34,43,853,269.0,398,457,60,123.0,146,1,292,201,38,0,0,264,-1,-17920,244,,,,,,,,,,,,
880523,1560683079899,5,1.99,2.06,3.2,1.62,3.31,0.78,0.33,0.32,-12,1,-14,0.84,4618,6,83,34,43,857,268.0,394,458,60,122.0,143,1,289,199,35,0,0,262,-1,-25600,241,,,,,,,,,,,,
880543,1560683079919,7,1.97,2.06,3.2,1.59,3.36,0.83,0.36,0.36,-14,-1,-16,0.9,4610,6,83,34,43,860,268.0,386,463,60,123.0,143,1,289,199,35,0,0,258,-1,-1494,238,45.702023,4.911036,26.11,196.9,1,3.9967,0,0.0,3.2267,2,0.27,14.6757
880563,1560683079939,7,1.97,2.06,3.19,1.59,3.37,0.86,0.37,0.4,-15,-3,-18,0.94,4544,6,83,34,44,858,265.0,378,462,60,123.0,143,1,290,197,35,0,0,259,-1,-1496,235,,,,,,,,,,,,
880583,1560683079959,7,1.98,2.07,3.19,1.6,3.35,0.91,0.38,0.39,-15,-4,-19,0.99,4481,6,83,35,44,856,262.0,375,464,60,123.0,143,1,288,194,35,0,0,256,-1,250,233,,,,,,,,,,,,
880603,1560683079979,6,1.96,2.09,3.2,1.6,3.34,0.93,0.35,0.42,-16,-5,-19,0.99,4427,6,83,35,44,856,258.0,369,462,60,122.0,143,1,286,196,35,0,0,254,-10440,19968,230,,,,,,,,,,,,
880623,1560683079993,7,1.96,2.08,3.2,1.6,3.35,0.96,0.31,0.49,-17,-5,-19,1.01,4420,6,83,35,43,857,255.0,371,456,60,122.0,140,1,283,193,32,0,0,249,-1281,1596,227,,,,,,,,,,,,
880643,1560683080013,7,1.95,2.08,3.21,1.6,3.36,0.93,0.31,0.48,-18,-3,-20,0.98,4367,5,83,35,43,859,251.0,365,457,60,123.0,140,1,282,191,32,0,0,246,-214,-1532,226,45.702019,4.911043,24.59,196.9,1,3.9967,0,0.0,3.2283,2,0.27,14.6774
880663,1560683080033,10,1.94,2.08,3.21,1.6,3.37,0.84,0.32,0.4,-19,-2,-21,0.9,4325,5,83,35,43,862,253.0,362,458,60,122.0,140,1,280,190,32,0,0,244,10818,1210,224,,,,,,,,,,,,
880683,1560683080053,8,1.94,2.07,3.2,1.6,3.36,0.82,0.36,0.33,-19,1,-22,0.9,4258,6,83,35,43,869,250.0,356,458,60,120.0,140,1,278,192,32,0,0,244,16896,-1532,220,,,,,,,,,,,,
880703,1560683080073,6,1.94,2.06,3.17,1.6,3.36,0.88,0.38,0.34,-19,-0,-24,0.96,4241,6,83,35,44,878,250.0,351,462,60,122.0,140,1,282,191,32,0,0,239,10818,250,219,,,,,,,,,,,,
880723,1560683080099,6,1.94,2.05,3.18,1.59,3.35,0.99,0.41,0.4,-19,-3,-25,1.07,4217,6,83,35,44,886,246.0,349,457,60,122.0,132,1,281,187,29,0,0,241,10812,250,217,,,,,,,,,,,,
880743,1560683080119,5,1.94,2.04,3.16,1.6,3.34,1.02,0.41,0.41,-20,-4,-26,1.1,4208,6,83,35,44,892,245.0,347,463,60,122.0,132,1,280,187,29,0,0,237,15360,250,214,45.702015,4.91105,23.61,196.9,1,3.9967,0,0.0,3.23,2,0.27,14.6791
880763,1560683080139,7,1.94,2.04,3.16,1.6,3.33,0.96,0.39,0.39,-20,-1,-27,1.04,4144,6,83,35,43,891,242.0,341,456,60,122.0,132,1,275,185,29,0,0,236,23482,-1482,213,,,,,,,,,,,,
880783,1560683080159,4,1.92,2.04,3.16,1.6,3.34,0.95,0.4,0.36,-20,1,-28,1.03,4088,6,83,35,43,887,239.0,336,462,60,120.0,132,1,273,187,29,0,0,233,-1484,-1482,210,,,,,,,,,,,,
880803,1560683080179,5,1.92,2.04,3.16,1.61,3.34,1.03,0.41,0.38,-20,-3,-28,1.1,4056,6,83,35,44,879,237.0,335,460,60,121.0,132,1,276,186,29,0,0,229,-25600,250,208,,,,,,,,,,,,
880823,1560683080199,8,1.92,2.05,3.16,1.6,3.34,0.99,0.43,0.37,-21,-1,-29,1.08,4056,6,83,35,44,868,235.0,333,461,60,122.0,134,1,276,186,28,0,0,229,13602,12800,207,,,,,,,,,,,,
880843,1560683080219,5,1.9,2.06,3.16,1.61,3.34,0.95,0.43,0.34,-21,1,-29,1.05,3962,6,83,35,44,859,234.0,334,466,60,120.0,134,1,272,185,28,0,0,227,13602,-1480,203,45.702015,4.911058,22.14,196.9,1,3.9967,0,0.0,3.2317,2,0.27,14.6807
880863,1560683080239,4,1.91,2.06,3.16,1.61,3.34,1.01,0.43,0.39,-21,-2,-30,1.09,3999,6,83,35,44,851,232.0,330,462,60,122.0,134,1,274,185,28,0,0,225,250,250,203,,,,,,,,,,,,
880883,1560683080259,9,1.91,2.06,3.17,1.61,3.34,0.94,0.42,0.31,-22,0,-29,1.03,3958,6,83,35,44,849,230.0,328,458,60,122.0,134,1,272,185,28,0,0,225,10824,250,200,,,,,,,,,,,,
880903,1560683080279,4,1.94,2.06,3.17,1.61,3.3,0.94,0.41,0.31,-22,1,-29,1.03,3873,6,83,35,44,852,228.0,325,462,60,119.0,134,1,266,183,28,0,0,224,250,-1481,199,,,,,,,,,,,,
880923,1560683080299,8,1.95,2.06,3.17,1.6,3.26,0.96,0.38,0.39,-22,-1,-30,1.04,3848,6,83,35,45,856,227.0,320,463,60,123.0,131,1,267,183,26,0,0,221,-1496,250,196,,,,,,,,,,,,
880943,1560683080319,5,1.96,2.06,3.17,1.6,3.26,0.92,0.39,0.34,-21,1,-31,0.99,3854,6,83,35,45,863,225.0,314,457,60,122.0,131,1,268,187,26,0,0,219,19968,-1281,197,45.702011,4.911065,20.92,196.9,1,3.9967,0,0.0,3.2333,2,0.27,14.6824
880963,1560683080339,6,1.99,2.04,3.17,1.61,3.22,1.0,0.37,0.42,-21,-1,-32,1.06,3834,6,83,35,45,869,222.0,314,465,60,122.0,131,1,267,186,26,0,0,217,1596,-1,194,,,,,,,,,,,,
880983,1560683080359,2,2.02,2.05,3.18,1.61,3.2,0.94,0.37,0.35,-21,1,-31,1.01,3782,6,83,35,45,873,221.0,310,460,60,121.0,131,1,262,185,26,0,0,213,-1532,-1,192,,,,,,,,,,,,
881003,1560683080379,3,2.07,2.04,3.19,1.65,3.18,1.02,0.34,0.42,-20,-1,-30,1.07,3811,6,83,35,46,877,218.0,312,467,60,123.0,131,1,267,186,26,0,0,211,1210,-1,191,,,,,,,,,,,,
881023,1560683080397,0,2.11,2.03,3.19,1.7,3.18,0.95,0.28,0.38,-20,1,-29,0.99,3731,6,83,35,45,882,214.0,306,457,60,122.0,136,1,258,185,26,0,0,209,1088,-1,190,,,,,,,,,,,,
881043,1560683080417,5,2.15,2.02,3.21,1.71,3.17,1.0,0.24,0.45,-18,-1,-28,1.03,3688,6,83,35,46,885,213.0,307,461,60,122.0,136,1,257,187,26,0,0,205,966,-1,190,45.702011,4.911072,20.02,196.9,1,3.9967,0,0.0,3.235,2,0.27,14.684
881063,1560683080437,2,2.2,2.0,3.23,1.75,3.15,0.94,0.15,0.39,-17,0,-26,0.95,3658,6,83,35,47,886,208.0,303,460,60,122.0,136,1,256,190,26,0,0,204,250,-1,190,,,,,,,,,,,,
881083,1560683080457,4,2.23,1.98,3.27,1.8,3.13,0.92,0.1,0.41,-16,1,-24,0.93,3609,6,83,35,47,888,204.0,300,466,60,122.0,136,1,251,189,26,0,0,199,250,-1,191,,,,,,,,,,,,
881103,1560683080477,1,2.27,1.97,3.3,1.85,3.1,0.97,0.1,0.44,-14,-1,-22,0.97,3555,6,83,35,48,893,201.0,299,460,60,121.0,136,1,245,192,26,0,0,195,12800,-1,191,,,,,,,,,,,,
881123,1560683080499,1,2.32,1.95,3.32,1.87,3.09,0.94,0.05,0.43,-12,2,-20,0.94,3525,6,83,35,48,899,196.0,295,461,60,123.0,130,1,242,191,25,0,0,193,250,-1281,192,,,,,,,,,,,,
881143,1560683080519,0,2.38,1.92,3.34,1.88,3.07,0.9,-0.01,0.43,-10,0,-17,0.9,3469,6,83,35,49,903,195.0,290,464,60,123.0,130,1,234,194,25,0,0,191,-1481,-1,193,45.702011,4.911078,19.37,196.9,1,3.9967,0,0.0,3.2367,2,0.27,14.6857
881163,1560683080539,6,2.43,1.9,3.35,1.9,3.06,0.97,-0.06,0.47,-8,-2,-15,0.97,3389,6,83,35,50,910,194.0,288,460,60,121.0,130,1,220,195,25,0,0,188,-1,250,194,,,,,,,,,,,,
881183,1560683080559,1,2.51,1.89,3.37,1.92,3.04,0.97,-0.09,0.45,-6,-2,-13,0.97,3367,6,83,35,51,919,194.0,282,462,60,120.0,130,1,216,199,25,0,0,185,-1,-1281,194,,,,,,,,,,,,
881203,1560683080579,0,2.57,1.87,3.41,1.94,3.03,0.93,-0.17,0.45,-4,1,-11,0.95,3408,6,83,35,51,929,194.0,282,457,60,123.0,130,1,223,200,25,0,0,179,-1,-1281,194,,,,,,,,,,,,
881223,1560683080599,-0,2.65,1.83,3.44,1.94,3.02,0.9,-0.24,0.44,-1,-0,-7,0.93,3395,6,83,35,52,934,195.0,277,465,60,123.0,128,1,221,204,25,0,0,175,-236,-1281,195,,,,,,,,,,,,
881243,1560683080619,-2,2.7,1.79,3.48,1.95,3.01,0.92,-0.29,0.42,2,-2,-3,0.97,3376,6,83,35,52,940,195.0,278,462,60,121.0,128,1,222,203,25,0,0,172,250,-1,195,45.702007,4.911085,19.13,196.9,1,3.9967,0,0.0,3.2383,2,0.27,14.6874
881263,1560683080639,0,2.74,1.77,3.51,1.96,3.01,0.91,-0.33,0.42,4,-1,0,0.97,3479,6,83,35,52,948,197.0,277,455,60,122.0,128,1,236,207,25,0,0,164,-1,-1281,197,,,,,,,,,,,,
881283,1560683080659,1,2.79,1.73,3.53,2.0,2.99,0.87,-0.37,0.45,7,0,4,0.95,3470,6,83,35,53,955,200.0,278,462,60,123.0,128,1,234,210,25,0,0,162,-1,250,200,,,,,,,,,,,,
881303,1560683080679,1,2.83,1.73,3.55,2.02,2.96,0.89,-0.42,0.44,9,-2,8,0.98,3394,6,83,35,54,958,201.0,277,461,60,122.0,128,1,220,212,25,0,0,159,888,14326,201,,,,,,,,,,,,
881323,1560683080698,0,2.87,1.74,3.57,2.05,2.94,0.93,-0.45,0.42,12,-3,12,1.04,3333,6,83,35,54,959,202.0,276,458,60,120.0,128,1,209,210,26,0,0,157,-1494,250,202,,,,,,,,,,,,
881343,1560683080718,0,2.92,1.74,3.58,2.06,2.94,0.93,-0.48,0.42,14,-2,15,1.05,3361,6,83,35,54,964,202.0,278,458,60,122.0,128,1,214,215,26,0,0,154,3072,250,202,45.702007,4.911091,18.43,196.9,1,3.9967,0,0.0,3.24,2,0.27,14.689
881363,1560683080738,-1,0.38,1.74,3.59,2.06,2.92,0.85,-0.55,0.38,16,1,18,1.01,3312,6,83,35,55,968,201.0,276,462,60,122.0,128,1,206,213,26,0,0,149,3072,250,201,,,,,,,,,,,,
881383,1560683080758,0,0.43,1.73,3.62,2.06,2.92,0.83,-0.59,0.35,19,0,21,1.02,3259,6,83,35,56,971,202.0,276,463,60,122.0,128,1,196,215,26,0,0,148,-1,-1,202,,,,,,,,,,,,
881403,1560683080778,-1,0.43,1.73,3.64,2.06,2.91,0.86,-0.65,0.39,21,-1,25,1.08,3205,6,83,35,57,973,203.0,271,462,60,123.0,128,1,186,217,26,0,0,144,-1,-1281,203,,,,,,,,,,,,
881423,1560683080800,1,0.44,1.72,3.65,2.05,2.92,0.91,-0.67,0.41,23,-4,29,1.12,3170,9,83,35,58,979,204.0,268,461,60,121.0,127,1,180,220,26,0,0,142,-165,-1281,204,,,,,,,,,,,,
881443,1560683080820,2,0.43,1.73,3.64,2.06,2.92,0.92,-0.64,0.45,25,-6,32,1.12,3093,11,83,35,59,985,206.0,265,461,60,122.0,127,1,160,220,26,0,0,139,-1,-1281,206,45.702004,4.911097,17.79,196.9,1,3.9967,0,0.0,3.2417,2,0.27,14.6907
881463,1560683080840,0,0.44,1.75,3.64,2.05,2.92,0.97,-0.62,0.45,27,-7,36,1.15,3016,13,83,35,61,988,207.0,261,459,60,121.0,127,1,152,227,26,0,0,139,-165,-1,207,,,,,,,,,,,,
881483,1560683080860,-2,0.44,1.77,3.59,2.05,2.92,1.01,-0.64,0.47,28,-9,37,1.19,2979,15,83,35,63,990,205.0,255,459,60,121.0,127,1,147,230,26,0,0,139,-23552,250,205,,,,,,,,,,,,
881503,1560683080880,0,0.43,1.78,3.55,2.04,2.91,1.06,-0.68,0.47,29,-9,40,1.25,2975,17,83,35,65,994,203.0,252,461,60,123.0,127,1,152,236,26,0,0,138,23460,-1,203,,,,,,,,,,,,
881523,1560683080898,-1,0.44,1.78,3.54,2.02,2.9,1.08,-0.68,0.5,30,-10,40,1.28,2998,19,83,35,67,997,202.0,248,460,60,122.0,133,1,162,242,27,0,0,138,23460,-1,202,,,,,,,,,,,,
881543,1560683080918,1,0.43,1.77,3.55,2.02,2.88,1.09,-0.67,0.51,31,-11,40,1.28,3060,21,83,35,70,998,201.0,251,457,60,121.0,133,1,181,255,27,0,0,137,250,-1,201,45.702,4.911102,17.03,196.9,1,3.9967,0,0.0,3.2433,2,0.27,14.6924
881563,1560683080938,4,0.43,1.77,3.55,2.0,2.9,1.07,-0.66,0.48,32,-11,41,1.25,3184,24,83,35,72,999,200.0,252,461,60,120.0,133,1,198,266,27,0,0,136,250,-1,200,,,,,,,,,,,,
881583,1560683080958,-1,0.43,1.77,3.55,2.0,2.9,1.0,-0.66,0.44,33,-9,43,1.2,3229,26,83,35,74,996,199.0,256,457,60,120.0,133,1,208,273,27,0,0,136,-1281,-1,199,,,,,,,,,,,,
881603,1560683080978,-2,0.44,1.78,3.55,2.0,2.89,0.96,-0.66,0.41,34,-7,44,1.16,3306,29,83,35,76,991,199.0,257,462,60,122.0,133,1,220,281,27,0,0,136,-1281,-1,199,,,,,,,,,,,,
881623,1560683080992,-1,0.43,1.78,3.55,1.99,2.89,0.96,-0.65,0.43,35,-8,45,1.16,3317,32,83,35,79,986,198.0,263,461,60,123.0,175,1,225,290,35,0,0,136,-1281,-1,198,,,,,,,,,,,,
881643,1560683081012,4,0.43,1.78,3.55,2.0,2.89,1.03,-0.65,0.47,35,-9,46,1.21,3347,36,83,35,81,982,197.0,266,457,60,121.0,175,1,230,306,35,0,0,135,-1,-1,197,45.701996,4.911107,16.57,196.9,1,3.9967,0,0.0,3.245,2,0.28,14.694
881663,1560683081032,0,0.43,1.78,3.54,2.0,2.9,0.98,-0.61,0.44,36,-9,47,1.16,3289,40,83,35,83,972,197.0,266,456,60,120.0,175,1,231,309,35,0,0,135,-1,-1,197,,,,,,,,,,,,
881683,1560683081052,0,0.43,1.79,3.55,1.99,2.91,0.92,-0.61,0.41,37,-8,48,1.11,3234,42,83,35,86,962,197.0,267,456,60,121.0,175,1,229,314,35,0,0,135,-1,-1,197,,,,,,,,,,,,
881703,1560683081072,0,0.44,1.79,3.55,2.01,2.9,0.9,-0.62,0.41,37,-6,48,1.09,3158,44,83,35,88,953,196.0,263,463,60,121.0,175,1,226,315,35,0,0,135,-1,-1,196,,,,,,,,,,,,
881723,1560683081100,0,0.44,1.79,3.54,2.01,2.89,0.88,-0.62,0.43,38,-5,48,1.07,3074,45,83,35,90,946,194.0,262,461,60,122.0,191,1,222,319,37,0,0,135,-1,-1,194,,,,,,,,,,,,
881743,1560683081120,0,0.43,1.78,3.55,2.01,2.88,0.87,-0.62,0.43,38,-4,49,1.06,2961,45,83,35,91,942,196.0,257,463,60,122.0,191,1,220,336,37,0,0,135,-1,-1,196,45.701996,4.911111,16.22,196.9,1,3.9967,0,0.0,3.2467,2,0.28,14.6957
881763,1560683081140,5,0.43,1.78,3.54,2.01,2.89,0.81,-0.6,0.45,38,-4,49,1.01,2840,46,83,35,92,941,195.0,253,456,60,121.0,191,1,219,352,37,0,0,134,-1,-1,195,,,,,,,,,,,,
881783,1560683081160,1,0.41,1.79,3.54,2.01,2.89,0.85,-0.59,0.48,38,-5,50,1.03,2717,46,83,35,93,944,194.0,252,457,60,120.0,191,1,220,364,37,0,0,133,-1,-1,194,,,,,,,,,,,,
881803,1560683081180,-1,0.4,1.78,3.53,2.02,2.89,0.84,-0.63,0.44,39,-4,52,1.05,2653,46,83,35,94,949,194.0,243,462,60,122.0,191,1,223,379,37,0,0,131,-1,-1,194,,,,,,,,,,,,
881823,1560683081200,-1,0.39,1.78,3.51,2.02,2.89,0.87,-0.64,0.41,38,-4,51,1.08,2539,46,83,35,95,970,193.0,237,463,60,123.0,196,1,225,387,38,0,0,132,-1,-1,193,,,,,,,,,,,,
881843,1560683081220,-0,0.37,1.78,3.51,2.02,2.89,0.88,-0.58,0.47,39,-5,49,1.06,2434,47,83,35,95,1008,193.0,232,458,60,122.0,196,1,222,379,38,0,0,131,-1,-1,193,45.701992,4.911115,16.46,196.8,1,3.9967,0,0.0,3.2483,2,0.28,14.6974
881863,1560683081240,0,0.35,1.79,3.5,2.02,2.9,0.97,-0.56,0.42,38,-3,52,1.12,2379,50,83,35,96,1045,192.0,226,457,60,123.0,196,1,225,396,38,0,0,131,-1,-236,192,,,,,,,,,,,,
881883,1560683081260,-2,0.33,1.78,3.48,2.03,2.9,0.96,-0.54,0.43,38,-8,51,1.1,2296,55,83,35,96,1078,190.0,222,457,60,122.0,196,1,222,391,38,0,0,130,-1,3584,190,,,,,,,,,,,,
881903,1560683081280,0,2.9,1.78,3.43,2.04,2.96,1.01,-0.52,0.36,38,-5,51,1.14,2263,59,83,35,97,1134,189.0,215,462,60,123.0,196,1,225,408,38,0,0,128,-1,10620,189,,,,,,,,,,,,
881923,1560683081300,0,2.86,1.77,3.34,2.02,3.01,0.99,-0.51,0.36,38,-9,48,1.11,2314,63,83,35,97,1219,184.0,211,457,60,123.0,181,1,227,410,34,0,0,122,-236,-1,184,,,,,,,,,,,,
881943,1560683081320,0,2.8,1.73,3.31,2.01,3.06,1.05,-0.48,0.42,37,-8,48,1.16,2535,69,83,35,97,1296,179.0,210,457,60,121.0,181,1,235,447,34,0,0,122,5120,250,179,45.701988,4.911117,15.85,196.8,1,3.9967,0,0.0,3.25,2,0.28,14.699
881963,1560683081340,0,2.71,1.75,3.33,2.02,3.13,0.99,-0.5,0.37,35,-8,51,1.11,2581,73,83,35,98,1349,175.0,213,461,60,122.0,181,1,240,454,34,0,0,93,-1,3072,175,,,,,,,,,,,,
881983,1560683081360,4,2.61,1.81,3.38,2.02,3.19,0.92,-0.5,0.38,34,-3,49,1.05,2567,75,83,35,98,1402,175.0,216,465,60,122.0,181,1,240,452,34,0,0,79,-1,250,175,,,,,,,,,,,,
882003,1560683081380,0,2.49,1.96,3.39,2.0,3.23,1.01,-0.38,0.37,31,-3,48,1.08,2481,76,83,35,98,1454,175.0,216,458,60,120.0,181,1,239,440,34,0,0,105,-1,30720,175,,,,,,,,,,,,
882023,1560683081400,0,2.39,2.11,3.21,1.96,3.22,0.97,-0.29,0.31,29,-3,48,1.01,2438,77,83,35,98,1498,173.0,213,462,60,123.0,236,1,237,437,41,0,0,130,-1281,250,173,,,,,,,,,,,,
882043,1560683081420,4,2.29,2.18,3.06,1.91,3.19,0.95,-0.19,0.28,26,-1,44,0.97,2476,79,83,35,98,1498,161.0,215,462,60,122.0,236,1,239,440,41,0,0,136,5120,-23552,161,45.701984,4.911119,15.57,196.9,1,3.9967,0,0.0,3.2517,2,0.28,14.7007
882063,1560683081440,-2,2.22,2.18,2.99,1.81,3.2,1.03,-0.03,0.27,23,-2,41,1.04,2611,81,83,35,98,1498,152.0,216,457,60,120.0,236,1,240,459,41,0,0,138,5140,-1,152,,,,,,,,,,,,
882083,1560683081460,0,2.14,2.17,2.98,1.67,3.27,1.07,0.02,0.38,19,-5,38,1.07,2691,88,83,35,98,1498,143.0,220,457,60,123.0,236,1,240,472,41,0,0,139,5120,-1,143,,,,,,,,,,,,
882103,1560683081480,-0,2.09,2.16,2.97,1.61,3.3,1.04,0.03,0.39,17,-3,34,1.04,2807,94,83,35,98,1498,141.0,224,460,60,123.0,236,1,240,490,41,0,0,139,5120,-1,138,,,,,,,,,,,,
882123,1560683081500,-1,2.06,2.16,2.98,1.6,3.32,1.02,0.04,0.37,14,-2,29,1.02,2814,98,83,35,98,1498,142.0,227,458,60,122.0,376,1,240,491,52,0,0,140,5140,-1,134,,,,,,,,,,,,
882143,1560683081520,1,2.04,2.16,2.98,1.62,3.31,1.01,0.06,0.36,12,-0,24,1.01,2734,99,83,35,98,1498,144.0,230,466,60,123.0,376,1,240,478,52,0,0,142,-1,-1,134,45.701981,4.911121,14.24,196.8,1,3.9967,0,0.0,3.2533,2,0.28,14.7024
882163,1560683081540,-1,2.01,2.19,2.98,1.68,3.3,0.92,0.1,0.36,10,1,20,0.93,2771,99,83,35,98,1498,145.0,228,458,60,122.0,376,1,240,484,52,0,0,144,-1,-1,134,,,,,,,,,,,,
882183,1560683081560,4,1.98,2.18,3.01,1.72,3.28,0.91,0.14,0.39,9,-1,16,0.92,2833,99,83,35,98,1498,146.0,232,460,60,122.0,376,1,240,494,52,0,0,144,-1,-1,134,,,,,,,,,,,,
882203,1560683081580,4,1.93,2.18,3.05,1.75,3.27,0.91,0.14,0.4,7,-4,13,0.92,2861,99,83,35,98,1498,146.0,235,456,60,121.0,376,1,240,498,52,0,0,145,-1,-1,133,,,,,,,,,,,,
882223,1560683081600,1,1.89,2.16,3.08,1.74,3.26,0.95,0.15,0.43,5,-5,10,0.96,2832,99,83,35,98,1498,147.0,236,457,60,121.0,404,1,240,494,53,0,0,144,-1,-1,131,,,,,,,,,,,,
882243,1560683081620,-2,1.85,2.15,3.09,1.73,3.26,0.92,0.15,0.42,2,-3,7,0.93,2762,99,83,35,99,1498,148.0,237,459,60,121.0,404,1,240,509,53,0,0,144,-1,-1,130,45.701977,4.911122,13.74,196.8,1,3.9967,0,0.0,3.255,2,0.28,14.7041
882263,1560683081640,-2,1.81,2.14,3.08,1.73,3.24,0.92,0.15,0.42,0,-1,4,0.93,2816,99,83,35,98,1498,149.0,236,460,60,122.0,404,1,240,491,53,0,0,145,-1,13868,128,,,,,,,,,,,,
882283,1560683081660,0,1.76,2.14,3.08,1.72,3.23,0.93,0.16,0.44,-2,-0,0,0.95,2963,99,83,35,98,1498,151.0,240,462,60,123.0,404,1,240,515,53,0,0,146,-1281,11264,127,,,,,,,,,,,,
882303,1560683081680,-2,1.74,2.14,3.07,1.72,3.21,0.95,0.19,0.48,-4,1,-4,0.97,2931,99,83,35,98,1498,152.0,241,462,60,123.0,404,1,240,509,53,0,0,147,-23552,250,126,,,,,,,,,,,,
882323,1560683081699,0,1.71,2.14,3.07,1.73,3.2,0.96,0.21,0.48,-6,2,-6,0.98,2889,99,83,35,98,1498,154.0,241,462,60,122.0,436,1,240,503,55,0,0,148,23460,13862,125,,,,,,,,,,,,
882343,1560683081719,-2,1.7,2.15,3.06,1.73,3.2,0.95,0.22,0.52,-8,4,-8,0.97,2989,100,83,35,98,1498,154.0,242,463,60,122.0,436,1,240,519,55,0,0,148,23460,250,125,45.701977,4.911124,13.3,196.8,1,3.9967,0,0.0,3.2567,2,0.28,14.7057
882363,1560683081739,1,1.69,2.19,3.04,1.73,3.19,0.95,0.27,0.53,-9,6,-11,0.99,2963,100,83,35,98,1498,156.0,245,460,60,123.0,436,1,240,515,55,0,0,153,-1,13868,126,,,,,,,,,,,,
882383,1560683081759,4,1.67,2.24,3.02,1.75,3.17,0.9,0.31,0.48,-11,7,-13,0.95,2764,100,83,35,98,1498,158.0,242,465,60,122.0,436,1,240,483,55,0,0,153,-1,-1281,128,,,,,,,,,,,,
882403,1560683081779,2,1.67,2.27,3.0,1.75,3.17,0.88,0.33,0.51,-12,1,-15,0.94,2650,100,83,35,98,1498,159.0,237,461,60,120.0,436,1,240,466,55,0,0,154,-1281,-1281,130,,,,,,,,,,,,
882423,1560683081799,1,1.67,2.26,3.01,1.76,3.16,0.85,0.32,0.57,-13,0,-17,0.91,2902,100,83,35,98,1498,160.0,238,456,60,120.0,384,1,240,505,50,0,0,154,250,-1,131,,,,,,,,,,,,
882443,1560683081819,2,1.66,2.26,3.01,1.76,3.17,0.88,0.31,0.6,-14,-4,-18,0.93,3014,100,83,35,98,1498,162.0,243,453,60,121.0,384,1,240,524,50,0,0,156,10764,-1,131,45.701973,4.911127,13.48,196.8,1,3.9967,0,0.0,3.2583,2,0.28,14.7074
882463,1560683081839,-1,1.67,2.25,3.01,1.77,3.17,0.85,0.3,0.62,-16,-6,-19,0.9,2921,100,83,35,98,1498,163.0,245,458,60,122.0,384,1,240,493,50,0,0,160,-1494,888,132,,,,,,,,,,,,
882483,1560683081859,-2,1.67,2.25,3.0,1.78,3.16,0.83,0.31,0.64,-16,-4,-21,0.89,2755,100,83,35,99,1498,166.0,241,460,60,122.0,384,1,240,508,50,0,0,160,888,23460,134,,,,,,,,,,,,
882503,1560683081879,0,1.67,2.25,3.01,1.8,3.15,0.88,0.29,0.73,-17,-4,-23,0.92,2820,100,83,35,99,1498,167.0,240,457,60,123.0,384,1,240,517,50,0,0,162,-253,-1,136,,,,,,,,,,,,
882523,1560683081899,1,1.68,2.25,3.01,1.81,3.13,0.81,0.31,0.79,-18,-2,-25,0.87,3076,100,83,35,98,1498,171.0,243,463,60,123.0,419,1,240,542,57,0,0,162,-1281,-1,136,,,,,,,,,,,,
882543,1560683081919,-0,1.69,2.26,2.99,1.82,3.12,0.77,0.31,0.82,-20,-1,-26,0.84,3024,100,83,35,98,1498,173.0,246,461,60,122.0,419,1,240,527,57,0,0,167,31744,-1,136,45.701969,4.91113,13.97,196.8,1,3.9967,0,0.0,3.26,2,0.28,14.7091
882563,1560683081939,1,1.7,2.28,2.96,1.81,3.11,0.82,0.29,0.85,-20,0,-28,0.87,2893,100,83,35,98,1498,174.0,246,462,60,122.0,419,1,240,503,57,0,0,168,10620,-1,140,,,,,,,,,,,,
882583,1560683081959,1,1.72,2.28,2.95,1.82,3.12,0.87,0.24,0.89,-20,-2,-29,0.9,3014,100,83,35,98,1498,174.0,246,465,60,122.0,419,1,240,524,57,0,0,168,10620,10764,142,,,,,,,,,,,,
882603,1560683081979,2,1.74,2.26,2.96,1.81,3.12,0.9,0.23,0.93,-21,-2,-30,0.92,3187,100,83,35,98,1498,175.0,251,457,60,122.0,419,1,240,575,57,0,0,170,-1495,10764,143,,,,,,,,,,,,
882623,1560683081999,5,1.76,2.25,2.96,1.81,3.13,0.88,0.22,0.94,-21,-4,-29,0.91,3224,100,83,35,98,1498,177.0,258,455,60,121.0,489,1,240,578,70,0,0,171,3584,888,146,,,,,,,,,,,,
882643,1560683082007,-2,1.77,2.25,2.95,1.81,3.12,0.77,0.26,0.92,-21,-4,-29,0.81,3232,100,83,35,98,1498,177.0,259,458,60,120.0,489,1,240,588,70,0,0,171,3584,-1281,148,45.701965,4.911133,14.65,196.8,1,3.9967,0,0.0,3.2617,2,0.28,14.7107
882663,1560683082027,-1,1.79,2.25,2.96,1.84,3.1,0.72,0.29,0.84,-21,-1,-31,0.77,3298,100,83,35,98,1498,180.0,263,465,60,123.0,489,1,240,608,70,0,0,174,-1,10620,150,,,,,,,,,,,,
882683,1560683082047,1,1.82,2.25,2.96,1.87,3.08,0.74,0.25,0.86,-21,-2,-31,0.78,3345,100,83,35,98,1498,181.0,265,463,60,123.0,489,1,240,621,70,0,0,176,-1,250,152,,,,,,,,,,,,
882703,1560683082067,6,1.84,2.25,2.96,1.9,3.07,0.72,0.23,0.92,-21,-3,-31,0.75,3446,100,83,35,98,1498,182.0,270,453,60,122.0,489,1,240,651,70,0,0,177,-1,-1,153,,,,,,,,,,,,
882723,1560683082099,1,1.86,2.26,2.95,1.93,3.06,0.69,0.27,0.86,-21,-0,-31,0.74,3549,100,83,35,98,1498,185.0,272,462,60,119.0,570,1,245,668,89,0,0,183,-1,-1,158,,,,,,,,,,,,
882743,1560683082119,1,1.89,2.27,2.95,1.96,3.04,0.7,0.27,0.89,-21,-2,-30,0.75,3545,100,83,35,98,1498,186.0,278,457,60,122.0,570,1,245,668,89,0,0,185,-1,-1281,161,45.701962,4.911137,15.38,196.8,1,3.9967,0,0.0,3.2633,2,0.28,14.7124
882763,1560683082139,-1,1.91,2.27,2.95,1.97,3.02,0.66,0.25,0.9,-21,-0,-30,0.71,3667,100,83,35,98,1497,190.0,282,457,60,120.0,570,1,258,668,89,0,0,190,-1,-1,163,,,,,,,,,,,,
882783,1560683082159,4,1.92,2.28,2.94,1.99,3.0,0.67,0.24,0.93,-21,-1,-29,0.71,3751,100,83,35,98,1496,193.0,288,467,60,123.0,570,1,268,668,89,0,0,191,-2560,-1,166,,,,,,,,,,,,
882803,1560683082179,-0,1.95,2.3,2.96,2.01,2.98,0.63,0.27,0.94,-21,0,-29,0.68,3854,100,83,35,98,1489,196.0,293,450,60,121.0,570,1,279,668,89,0,0,199,250,13964,172,,,,,,,,,,,,
882823,1560683082199,-2,1.97,2.32,2.95,2.04,2.97,0.58,0.23,0.93,-20,-0,-28,0.62,3895,100,83,35,98,1465,198.0,301,453,60,122.0,569,1,284,668,98,0,0,201,14412,13874,176,,,,,,,,,,,,
882843,1560683082219,4,1.98,2.32,2.94,2.05,2.97,0.57,0.27,0.97,-20,-0,-28,0.63,3976,100,84,35,98,1441,204.0,303,466,60,121.0,569,1,293,668,98,0,0,207,250,250,179,45.701958,4.911141,16.74,196.7,1,3.9967,0,0.0,3.265,2,0.28,14.7141
882863,1560683082239,1,2.0,2.34,2.94,2.05,2.97,0.5,0.32,0.98,-20,1,-27,0.59,4062,100,83,35,98,1418,210.0,312,452,60,120.0,569,1,295,668,98,0,0,210,966,1596,185,,,,,,,,,,,,
882883,1560683082259,0,2.01,2.35,2.95,2.06,2.96,0.46,0.27,0.93,-20,1,-27,0.53,4121,100,83,35,98,1390,211.0,315,451,60,122.0,569,1,294,668,98,0,0,218,-1533,-1533,189,,,,,,,,,,,,
882903,1560683082279,-1,2.03,2.38,2.95,2.09,2.95,0.42,0.23,1.02,-19,1,-27,0.48,4156,100,83,35,98,1350,218.0,321,473,60,122.0,569,1,294,668,98,0,0,224,1210,1088,195,,,,,,,,,,,,
882923,1560683082299,5,2.05,2.4,2.93,2.12,2.93,0.41,0.19,1.06,-19,0,-26,0.45,4204,100,83,35,98,1312,222.0,324,456,60,122.0,527,1,293,668,105,0,0,227,1596,10824,199,,,,,,,,,,,,
882943,1560683082319,3,2.06,2.41,2.92,2.12,2.92,0.47,0.15,1.03,-19,1,-25,0.49,4230,100,83,35,98,1295,225.0,332,446,60,120.0,527,1,293,668,105,0,0,228,19968,15360,205,45.701954,4.911146,18.98,196.7,1,3.9967,0,0.0,3.2667,2,0.28,14.7157
882963,1560683082339,1,2.08,2.42,2.93,2.13,2.92,0.48,0.2,1.06,-18,0,-24,0.52,4234,100,83,35,98,1276,229.0,332,450,60,121.0,527,1,293,668,105,0,0,232,18432,8704,211,,,,,,,,,,,,
882983,1560683082359,1,2.11,2.43,2.94,2.13,2.93,0.47,0.18,1.07,-17,0,-24,0.5,4286,100,83,35,98,1240,232.0,336,453,60,122.0,527,1,292,668,105,0,0,235,250,-1445,214,,,,,,,,,,,,
883003,1560683082379,1,2.13,2.4,2.98,2.12,2.94,0.46,0.2,1.08,-16,1,-24,0.5,4394,100,83,35,98,1203,236.0,340,471,60,122.0,527,1,290,668,105,0,0,239,250,250,220,,,,,,,,,,,,
883023,1560683082400,-1,2.15,2.38,2.98,2.12,2.93,0.43,0.22,1.06,-15,2,-23,0.48,4483,100,83,35,98,1182,239.0,345,468,60,122.0,506,1,288,668,113,0,0,244,-1484,250,225,,,,,,,,,,,,
883043,1560683082420,2,2.15,2.36,2.98,2.11,2.91,0.45,0.21,1.07,-15,5,-22,0.49,4587,100,83,35,98,1163,241.0,352,470,60,122.0,506,1,287,668,113,0,0,243,250,-1484,230,45.701954,4.911152,21.43,196.7,1,3.9967,0,0.0,3.2683,2,0.28,14.7174
883063,1560683082440,4,2.18,2.36,2.98,2.11,2.91,0.46,0.18,1.12,-14,5,-21,0.49,4644,100,83,35,98,1115,245.0,358,457,60,121.0,506,1,286,668,113,0,0,249,15360,-1494,233,,,,,,,,,,,,
883083,1560683082460,3,2.19,2.36,2.99,2.11,2.91,0.49,0.16,1.14,-13,5,-23,0.51,4666,100,83,35,98,1067,248.0,366,460,60,121.0,506,1,285,668,113,0,0,252,250,-214,238,,,,,,,,,,,,
883103,1560683082480,3,2.19,2.36,2.99,2.11,2.9,0.58,0.14,1.11,-13,3,-22,0.59,4653,100,83,35,98,1038,251.0,369,457,60,121.0,506,1,285,668,113,0,0,253,-214,-1,241,,,,,,,,,,,,
883123,1560683082499,1,2.2,2.35,2.98,2.11,2.9,0.64,0.08,1.12,-12,2,-20,0.64,4666,100,83,35,98,1010,253.0,370,448,60,121.0,481,1,285,668,117,0,0,253,-1,-1,245,,,,,,,,,,,,
883143,1560683082519,1,2.2,2.33,3.02,2.1,2.91,0.73,0.06,1.09,-11,0,-19,0.73,4659,100,84,35,98,964,254.0,373,450,60,120.0,481,1,285,668,117,0,0,257,-1,506,248,45.70195,4.911158,23.33,196.7,1,3.9967,0,0.0,3.27,2,0.28,14.7191
883163,1560683082539,-1,2.22,2.32,3.09,2.11,2.92,0.73,0.04,1.03,-11,-4,-18,0.73,4744,100,84,35,97,916,256.0,376,455,60,121.0,481,1,284,668,117,0,0,259,506,-1,250,,,,,,,,,,,,
883183,1560683082559,3,2.22,2.31,3.1,2.1,2.94,0.65,0.06,0.89,-10,-1,-16,0.65,4870,100,84,35,97,889,259.0,383,459,60,122.0,481,1,282,643,117,0,0,258,-41,-41,253,,,,,,,,,,,,
883203,1560683082579,-0,2.22,2.32,3.11,2.11,2.94,0.72,0.02,0.93,-10,-2,-14,0.72,5036,100,84,35,98,870,260.0,391,465,60,120.0,481,1,280,668,117,0,0,261,-1,-1,255,,,,,,,,,,,,
883223,1560683082599,2,2.22,2.32,3.1,2.12,2.93,0.67,0.06,0.91,-9,-2,-13,0.67,5193,100,84,35,97,836,263.0,400,453,60,121.0,472,1,286,627,122,0,0,264,-1,-1281,259,,,,,,,,,,,,
883243,1560683082619,1,2.22,2.32,3.06,2.12,2.9,0.61,0.03,1.0,-8,-1,-13,0.61,5351,100,84,35,97,800,265.0,413,462,60,121.0,472,1,292,612,122,0,0,269,-1,28160,263,45.701946,4.911165,24.83,196.7,1,3.9967,0,0.0,3.2717,2,0.28,14.7207
883263,1560683082639,-0,2.23,2.32,3.0,2.12,2.86,0.67,0.06,0.98,-8,-2,-10,0.68,5548,100,84,35,96,778,270.0,430,457,60,122.0,472,1,299,582,122,0,0,279,-1,250,266,,,,,,,,,,,,
883283,1560683082659,3,2.22,2.36,2.93,2.15,2.82,0.65,0.09,0.99,-8,-0,-9,0.66,5673,100,84,35,96,761,275.0,442,455,60,122.0,472,1,304,572,122,0,0,285,30208,20480,272,,,,,,,,,,,,
883303,1560683082679,3,2.22,2.39,2.91,2.17,2.8,0.59,0.11,0.99,-8,1,-10,0.6,5744,100,84,35,96,742,281.0,449,457,60,120.0,472,1,307,568,122,0,0,297,24064,120,277,,,,,,,,,,,,
883323,1560683082698,3,2.23,2.38,2.91,2.19,2.81,0.46,0.04,1.07,-7,0,-10,0.46,5819,100,84,35,96,721,286.0,459,465,60,121.0,444,1,310,563,124,0,0,316,10686,130,282,,,,,,,,,,,,
883343,1560683082718,3,2.23,2.38,2.91,2.19,2.79,0.39,-0.01,1.1,-6,2,-10,0.39,5850,100,84,35,96,710,293.0,468,467,60,121.0,444,1,311,559,124,0,0,314,21760,125,287,45.701942,4.911172,26.23,196.6,1,3.9967,0,0.0,3.2733,2,0.28,14.7224
883363,1560683082738,2,2.24,2.39,2.91,2.23,2.79,0.29,-0.04,1.09,-4,0,-11,0.3,5911,100,84,35,96,704,296.0,471,465,60,121.0,444,1,313,556,124,0,0,318,90,-29696,294,,,,,,,,,,,,
883383,1560683082758,3,2.25,2.39,2.92,2.22,2.81,0.23,-0.04,1.14,-3,3,-10,0.23,5980,100,84,35,96,704,303.0,476,466,60,121.0,444,1,316,551,124,0,0,330,28160,4838,298,,,,,,,,,,,,
883403,1560683082778,5,2.24,2.4,2.95,2.22,2.8,0.17,0.01,1.19,-1,2,-11,0.17,6119,100,84,35,96,704,308.0,483,465,60,121.0,444,1,322,545,124,0,0,336,120,-12032,303,,,,,,,,,,,,
883423,1560683082798,1,2.25,2.42,2.98,2.22,2.81,0.11,0.08,1.19,-1,5,-11,0.14,6315,100,84,35,96,707,313.0,496,466,60,120.0,418,1,332,541,128,0,0,334,135,-6528,310,,,,,,,,,,,,
883443,1560683082818,-1,2.27,2.43,2.99,2.23,2.8,0.1,0.04,1.12,-1,7,-10,0.11,6377,100,84,35,96,713,319.0,507,462,60,120.0,418,1,335,540,128,0,0,342,-27136,-31222,315,45.701939,4.91118,28.91,196.6,1,3.9967,0,0.0,3.275,2,0.28,14.724
883463,1560683082838,3,2.27,2.42,2.99,2.23,2.78,0.23,-0.02,1.12,-2,3,-10,0.23,6449,100,84,35,96,720,322.0,515,453,60,122.0,418,1,339,537,128,0,0,342,155,-31206,321,,,,,,,,,,,,
883483,1560683082858,5,2.28,2.44,2.98,2.23,2.79,0.22,0.01,1.19,-1,2,-8,0.22,6505,100,84,35,96,726,328.0,519,455,60,121.0,418,1,342,536,128,0,0,346,170,-30438,326,,,,,,,,,,,,
883503,1560683082878,1,2.28,2.46,2.97,2.24,2.78,0.14,0.04,1.12,-1,6,-7,0.14,6517,100,84,35,96,732,332.0,525,464,60,122.0,418,1,342,536,128,0,0,348,3346,4104,332,,,,,,,,,,,,
883523,1560683082898,3,2.29,2.46,2.96,2.24,2.78,0.31,-0.01,1.13,-1,1,-6,0.31,6565,100,84,35,96,734,338.0,523,458,60,121.0,396,1,345,534,132,0,0,348,-31222,-30454,337,,,,,,,,,,,,
883543,1560683082918,-0,2.3,2.45,2.97,2.24,2.77,0.26,0.02,1.09,1,2,-5,0.26,6623,100,84,35,96,739,342.0,525,453,60,120.0,396,1,348,532,132,0,0,358,-31206,-14707,342,45.701935,4.911189,31.48,196.6,1,3.9967,0,0.0,3.2767,2,0.28,14.7257
883563,1560683082938,4,2.3,2.44,3.0,2.24,2.78,0.28,-0.05,1.07,0,1,-4,0.28,6667,100,84,35,96,748,346.0,530,460,60,122.0,396,1,350,531,132,0,0,367,8841,4104,348,,,,,,,,,,,,
883583,1560683082958,-1,2.3,2.42,3.03,2.25,2.78,0.34,-0.0,1.13,1,1,-4,0.34,6703,100,84,35,96,755,351.0,533,463,60,120.0,396,1,352,530,132,0,0,361,2811,2790,351,,,,,,,,,,,,
883603,1560683082978,2,2.31,2.4,3.06,2.24,2.79,0.33,-0.1,1.13,-0,-1,-5,0.34,6778,100,84,35,95,764,356.0,543,455,60,121.0,396,1,356,527,132,0,0,365,3302,230,356,,,,,,,,,,,,
883623,1560683082992,1,2.3,2.4,3.06,2.24,2.81,0.21,-0.04,1.05,2,2,-4,0.21,6957,100,84,35,96,768,361.0,546,460,60,121.0,380,1,365,525,136,0,0,367,-29978,257,361,,,,,,,,,,,,
883643,1560683083012,1,2.29,2.39,3.07,2.23,2.8,0.39,-0.04,1.14,0,-1,-4,0.39,7104,100,84,35,95,770,366.0,554,457,60,122.0,380,1,376,529,136,0,0,374,-6458,3,366,45.701931,4.911199,34.15,196.6,1,3.9967,0,0.0,3.2783,2,0.28,14.7274
883663,1560683083032,0,2.3,2.38,3.08,2.24,2.82,0.42,-0.09,1.13,-1,-3,-3,0.43,7256,100,84,35,94,771,368.0,568,458,60,122.0,380,1,388,538,136,0,0,381,230,-19019,368,,,,,,,,,,,,
883683,1560683083052,1,2.29,2.39,3.06,2.26,2.8,0.44,-0.12,1.13,0,-1,-1,0.45,7461,100,84,35,94,765,374.0,577,458,60,121.0,380,1,404,548,136,0,0,393,486,1,374,,,,,,,,,,,,
883703,1560683083072,2,2.29,2.4,3.03,2.29,2.79,0.49,0.02,1.08,0,-0,0,0.5,7588,100,84,35,93,758,379.0,583,458,60,121.0,380,1,415,554,136,0,0,397,742,1504,379,,,,,,,,,,,,
883723,1560683083100,1,2.29,2.39,3.01,2.29,2.77,0.59,0.0,1.16,-0,-4,-0,0.59,7751,100,84,35,93,746,385.0,598,458,60,122.0,426,1,427,562,163,0,0,411,19125,13040,385,,,,,,,,,,,,
883743,1560683083120,6,2.28,2.4,3.0,2.31,2.75,0.64,-0.11,1.23,-0,-4,-0,0.65,7864,100,84,35,93,736,389.0,606,458,60,120.0,426,1,440,569,163,0,0,420,-3866,18584,389,45.701923,4.911209,36.32,196.6,1,3.9967,0,0.0,3.28,2,0.28,14.729
883763,1560683083140,2,2.28,2.42,2.98,2.32,2.75,0.58,-0.18,1.26,-0,-2,2,0.61,8016,100,84,35,92,729,394.0,611,464,60,120.0,426,1,448,573,163,0,0,423,505,-3314,394,,,,,,,,,,,,
883783,1560683083160,5,2.28,2.42,2.97,2.31,2.74,0.58,-0.17,1.29,-0,-2,-0,0.61,8173,100,84,35,90,725,402.0,616,456,60,121.0,426,1,446,589,163,0,0,436,6384,-18341,402,,,,,,,,,,,,
883803,1560683083180,3,2.29,2.42,2.96,2.32,2.74,0.7,-0.24,1.23,-0,-4,1,0.74,8351,100,84,35,90,723,406.0,617,457,60,120.0,426,1,441,611,163,0,0,451,-9211,26704,409,,,,,,,,,,,,
883823,1560683083200,0,2.29,2.42,2.98,2.31,2.74,0.6,-0.24,1.23,0,-0,3,0.65,8472,100,84,35,89,722,412.0,618,464,60,121.0,470,1,435,613,193,0,0,457,11560,14488,413,,,,,,,,,,,,
883843,1560683083220,1,2.28,2.42,2.97,2.32,2.74,0.52,-0.12,1.23,1,-2,1,0.54,8680,100,84,35,88,727,419.0,632,464,60,121.0,470,1,428,617,193,0,0,468,-26615,8488,419,45.701916,4.91122,38.73,196.6,1,3.9967,0,0.0,3.2817,2,0.28,14.7307
883863,1560683083240,-0,2.29,2.44,2.98,2.32,2.74,0.43,-0.11,1.07,1,-1,3,0.44,8911,100,84,35,88,733,424.0,621,455,60,120.0,470,1,421,594,193,0,0,472,3826,2212,424,,,,,,,,,,,,
883883,1560683083260,2,2.28,2.46,2.97,2.32,2.74,0.27,-0.01,1.0,1,0,4,0.27,9088,100,84,35,87,751,429.0,635,453,60,120.0,470,1,418,594,193,0,0,482,13180,3580,429,,,,,,,,,,,,
883903,1560683083280,3,2.28,2.48,2.97,2.33,2.71,0.1,0.15,0.99,2,2,5,0.18,9250,100,84,35,87,769,436.0,633,463,60,121.0,470,1,418,594,193,0,0,489,-3322,2524,436,,,,,,,,,,,,
883923,1560683083300,5,2.28,2.47,2.95,2.34,2.7,0.26,0.11,1.09,2,-2,3,0.28,9346,100,84,35,87,782,443.0,641,458,60,120.0,478,1,418,594,210,0,0,506,20625,998,443,,,,,,,,,,,,
883943,1560683083320,2,2.28,2.46,2.96,2.32,2.7,0.43,-0.01,1.14,2,-1,4,0.43,9517,100,84,35,86,794,448.0,637,456,60,120.0,478,1,418,583,210,0,0,511,10305,10994,450,45.701912,4.911231,41.58,196.6,1,3.9967,0,0.0,3.2833,2,0.28,14.7324
883963,1560683083340,3,2.28,2.46,2.94,2.33,2.69,0.19,0.09,1.09,3,-1,4,0.21,9645,100,84,34,86,827,456.0,640,456,60,120.0,478,1,412,592,210,0,0,517,-8985,-9072,456,,,,,,,,,,,,
883983,1560683083360,1,2.28,2.45,2.96,2.31,2.69,0.38,-0.03,1.18,2,-2,3,0.38,9770,100,84,34,86,859,463.0,644,461,60,120.0,478,1,407,595,210,0,0,518,-18108,15679,463,,,,,,,,,,,,
884003,1560683083380,6,2.27,2.46,2.98,2.32,2.69,0.18,0.04,1.09,3,-1,4,0.18,9863,100,84,34,86,882,468.0,641,459,60,121.0,478,1,403,580,210,0,0,543,243,2104,468,,,,,,,,,,,,
884023,1560683083400,4,2.27,2.48,2.99,2.33,2.69,0.23,-0.0,1.18,3,1,4,0.23,10053,100,84,34,85,902,472.0,644,459,60,120.0,480,1,399,582,226,0,0,540,8488,1779,472,,,,,,,,,,,,
884043,1560683083420,2,2.27,2.51,2.99,2.33,2.69,0.37,-0.03,1.16,3,0,3,0.37,10179,100,84,34,85,918,476.0,647,460,60,120.0,480,1,408,582,226,0,0,523,-17956,1780,478,45.701904,4.911243,44.71,196.5,1,3.9967,0,0.0,3.285,2,0.28,14.734
884063,1560683083440,3,2.26,2.49,2.96,2.33,2.66,0.4,-0.06,1.24,3,-1,3,0.4,10217,100,84,34,85,934,484.0,646,461,60,120.0,480,1,413,582,226,0,0,548,-6441,2104,484,,,,,,,,,,,,
884083,1560683083460,2,2.25,2.48,2.92,2.34,2.65,0.31,-0.03,1.17,3,0,3,0.32,10296,100,84,34,85,935,492.0,651,455,60,120.0,480,1,416,582,226,0,0,558,-32768,2524,492,,,,,,,,,,,,
884103,1560683083480,5,2.26,2.48,2.92,2.34,2.65,0.21,-0.03,1.17,3,0,3,0.21,10307,100,84,34,85,931,497.0,651,456,60,120.0,480,1,416,582,226,0,0,544,3,14504,497,,,,,,,,,,,,
884123,1560683083500,6,2.25,2.47,2.91,2.33,2.66,0.21,-0.03,1.25,3,-1,2,0.21,10359,100,84,34,85,930,503.0,651,461,60,120.0,458,1,421,582,229,0,0,551,2109,1267,506,,,,,,,,,,,,
884143,1560683083520,6,2.25,2.46,2.91,2.34,2.71,0.13,-0.05,1.28,3,2,1,0.14,10387,100,84,34,85,929,509.0,652,456,60,120.0,458,1,423,582,229,0,0,569,10994,-8186,509,45.701897,4.911256,47.76,196.5,1,3.9967,0,0.0,3.2867,2,0.29,14.7357
884163,1560683083540,4,2.25,2.46,2.92,2.37,2.7,0.12,-0.05,1.13,4,3,1,0.13,10545,100,84,34,85,932,514.0,656,457,60,120.0,458,1,432,582,229,0,0,560,-3482,-18032,515,,,,,,,,,,,,
884183,1560683083560,1,2.25,2.46,2.91,2.38,2.69,0.17,-0.12,1.13,3,-0,2,0.21,10611,100,84,34,85,936,523.0,656,457,60,120.0,458,1,433,582,229,0,0,562,1248,-28648,523,,,,,,,,,,,,
884203,1560683083580,3,2.25,2.45,2.91,2.37,2.71,0.22,-0.09,1.14,2,3,2,0.24,10702,100,84,34,85,941,525.0,658,458,60,120.0,458,1,436,582,229,0,0,577,2088,15649,525,,,,,,,,,,,,
884223,1560683083600,3,2.25,2.46,2.9,2.34,2.74,0.37,0.04,1.15,2,2,2,0.37,10738,100,84,34,85,946,535.0,657,452,60,120.0,445,1,437,582,236,0,0,568,6274,30227,533,,,,,,,,,,,,
884243,1560683083620,5,2.24,2.46,2.89,2.32,2.72,0.45,0.0,1.19,1,-0,2,0.45,10901,100,84,34,85,948,540.0,658,456,60,120.0,445,1,441,582,236,0,0,563,-8186,1,535,45.701889,4.911271,50.68,196.5,1,3.9967,0,0.0,3.2883,2,0.29,14.7374
884263,1560683083640,5,2.24,2.45,2.91,2.32,2.71,0.26,0.03,1.14,2,1,1,0.26,10952,100,84,34,85,949,544.0,655,459,60,120.0,445,1,442,582,236,0,0,607,-506,1,542,,,,,,,,,,,,
884283,1560683083660,2,2.25,2.45,2.94,2.32,2.69,0.3,0.02,1.15,1,1,1,0.3,10990,100,84,34,84,948,553.0,652,457,60,120.0,445,1,442,564,236,0,0,619,2524,-16179,551,,,,,,,,,,,,
884303,1560683083680,5,2.25,2.47,2.95,2.33,2.7,0.32,0.01,1.15,-1,1,2,0.32,11147,100,84,34,84,946,560.0,662,457,60,120.0,445,1,442,564,236,0,0,589,-28648,3472,554,,,,,,,,,,,,
884323,1560683083699,4,2.25,2.53,2.88,2.31,2.73,0.28,0.09,1.16,-1,2,2,0.29,11274,100,84,34,84,943,562.0,664,456,60,120.0,431,1,441,564,240,0,0,583,-23623,-23055,557,,,,,,,,,,,,
884343,1560683083719,7,2.25,2.58,2.81,2.3,2.76,0.27,0.06,1.17,-1,2,0,0.28,11349,100,84,34,84,940,565.0,658,456,60,120.0,431,1,441,564,240,0,0,592,-29984,3,563,45.701881,4.911285,53.52,196.5,1,3.9967,0,0.0,3.29,2,0.29,14.739
884363,1560683083739,6,2.25,2.58,2.82,2.32,2.75,0.35,0.17,1.25,0,0,-2,0.39,11370,100,84,34,84,934,572.0,655,455,60,120.0,431,1,441,564,240,0,0,603,-8188,5344,568,,,,,,,,,,,,
884383,1560683083759,4,2.25,2.56,2.84,2.39,2.71,0.32,0.12,1.21,1,0,-3,0.34,11460,100,84,34,84,925,575.0,660,455,60,120.0,431,1,441,564,240,0,0,639,-16384,243,573,,,,,,,,,,,,
884403,1560683083779,7,2.27,2.54,3.03,2.44,2.7,0.47,0.02,1.25,-0,-3,-2,0.47,11531,100,84,34,84,918,581.0,658,453,60,120.0,431,1,440,564,240,0,0,646,10432,-7939,577,,,,,,,,,,,,
884423,1560683083799,6,2.26,2.52,3.07,2.42,2.8,0.62,0.07,1.24,-2,-3,-0,0.62,11653,100,84,34,84,912,584.0,665,458,60,120.0,427,1,440,567,248,0,0,646,-4035,24,583,,,,,,,,,,,,
884443,1560683083819,3,2.27,2.52,2.97,2.39,2.95,0.51,0.14,1.1,-3,-2,2,0.53,11859,100,84,34,83,903,589.0,665,458,60,120.0,427,1,440,555,248,0,0,604,2048,-6006,591,45.701874,4.911301,56.35,196.5,1,3.9967,0,0.0,3.2917,2,0.29,14.7407
884463,1560683083839,5,2.27,2.57,2.96,2.38,3.0,0.47,0.06,0.95,-1,-1,2,0.48,12019,100,84,34,83,889,593.0,668,462,60,120.0,427,1,440,558,248,0,0,614,-13043,-2345,593,,,,,,,,,,,,
884483,1560683083859,6,2.28,2.55,3.06,2.37,2.99,0.48,-0.02,0.9,1,-4,2,0.49,12120,100,84,34,83,877,598.0,671,459,60,120.0,427,1,440,560,248,0,0,648,4956,24,595,,,,,,,,,,,,
884503,1560683083879,2,2.29,2.47,3.18,2.4,2.86,0.58,-0.12,0.78,1,-2,1,0.59,12262,100,84,34,83,869,603.0,670,462,60,120.0,427,1,440,560,248,0,0,705,-7939,-16046,601,,,,,,,,,,,,
884523,1560683083899,3,2.28,2.45,3.18,2.41,2.79,0.64,-0.23,0.9,-1,-0,3,0.68,12417,100,84,34,83,857,609.0,671,456,60,120.0,433,1,440,560,262,0,0,681,5344,771,609,,,,,,,,,,,,
884543,1560683083919,6,2.27,2.5,3.07,2.39,2.84,0.64,-0.16,0.78,-2,-2,4,0.66,12525,100,84,34,83,838,612.0,678,457,60,119.0,433,1,440,560,262,0,0,617,19621,16599,611,45.701862,4.911317,58.97,196.5,1,3.9967,0,0.0,3.2933,2,0.29,14.7424
884563,1560683083939,4,2.28,2.58,2.96,2.39,2.88,0.53,-0.08,0.78,-1,-0,5,0.54,12466,100,84,34,83,821,615.0,676,451,60,120.0,433,1,440,560,262,0,0,636,28675,-20693,615,,,,,,,,,,,,
884583,1560683083959,4,2.28,2.6,2.96,2.39,2.81,0.46,-0.15,0.79,1,-0,4,0.48,12533,100,84,34,83,809,619.0,674,450,60,120.0,433,1,440,560,262,0,0,658,19320,-27404,617,,,,,,,,,,,,
884603,1560683083979,5,2.27,2.53,3.08,2.41,2.68,0.56,-0.19,0.82,2,-1,2,0.59,12550,100,84,34,83,797,626.0,669,455,60,120.0,433,1,440,560,262,0,0,718,506,-26380,622,,,,,,,,,,,,
884623,1560683083993,3,2.26,2.43,3.14,2.38,2.69,0.52,-0.16,0.83,1,2,4,0.54,12651,100,84,34,83,782,628.0,673,453,60,120.0,428,1,440,560,268,0,0,731,-1346,479,629,,,,,,,,,,,,
884643,1560683084013,7,2.25,2.42,3.12,2.32,2.79,0.53,-0.15,0.83,-1,-1,6,0.55,12755,100,84,34,83,767,637.0,672,462,60,120.0,428,1,440,560,268,0,0,652,-10251,-3584,634,45.701855,4.911334,60.94,196.5,1,3.9967,0,0.0,3.295,2,0.29,14.7441
884663,1560683084033,5,2.26,2.44,3.03,2.24,2.93,0.51,-0.12,0.88,-1,0,6,0.53,12807,100,84,34,83,763,638.0,670,459,60,119.0,428,1,440,560,268,0,0,654,16599,-2826,640,,,,,,,,,,,,
884683,1560683084053,-0,2.26,2.45,3.04,2.22,2.94,0.45,-0.02,0.79,0,1,5,0.45,12948,100,84,34,83,760,646.0,677,460,60,119.0,428,1,440,560,268,0,0,670,4909,16118,640,,,,,,,,,,,,
884703,1560683084073,-0,2.26,2.42,3.02,2.22,2.8,0.59,-0.12,0.91,1,1,3,0.6,12643,100,84,34,84,762,650.0,683,461,60,123.0,428,1,440,575,268,0,0,709,-6006,-2826,647,,,,,,,,,,,,
884723,1560683084091,-1,2.26,2.37,3.01,2.21,2.71,0.73,-0.12,0.94,-1,-0,3,0.74,12065,100,84,33,84,766,658.0,663,458,60,122.0,415,1,440,575,269,0,0,682,-3038,31988,649,,,,,,,,,,,,
884743,1560683084111,-2,2.25,2.35,2.99,2.19,2.76,0.76,-0.05,0.75,-3,2,4,0.76,11631,100,84,33,85,773,655.0,669,461,60,121.0,415,1,440,584,269,0,0,662,31988,-3488,649,45.701843,4.911351,63.14,196.5,1,3.9967,0,0.0,3.2967,2,0.29,14.7457
884763,1560683084131,-2,2.27,2.36,3.0,2.18,2.91,0.67,-0.0,0.7,-3,1,3,0.67,11377,90,84,33,86,781,653.0,660,459,60,122.0,415,1,441,582,269,0,0,650,-3488,479,648,,,,,,,,,,,,
884783,1560683084151,3,2.27,2.36,3.1,2.15,3.04,0.71,-0.04,0.73,-2,-2,2,0.71,11147,75,84,33,83,812,652.0,652,461,60,123.0,415,1,442,545,269,0,0,650,24583,16599,646,,,,,,,,,,,,
884803,1560683084171,7,2.26,2.35,3.23,2.14,3.1,0.52,0.06,0.55,-1,2,4,0.52,11009,62,84,33,78,842,651.0,656,451,60,120.0,415,1,442,896,269,0,0,646,2024,11566,644,,,,,,,,,,,,
884823,1560683084199,4,2.27,2.43,3.25,2.16,3.09,0.58,-0.0,0.55,-1,2,4,0.58,10800,52,84,33,72,866,647.0,650,456,60,119.0,519,1,443,748,335,0,0,667,-8429,-3038,646,,,,,,,,,,,,
884843,1560683084219,0,2.28,2.52,3.24,2.21,3.07,0.4,0.06,0.61,-0,-1,3,0.4,10075,47,84,33,67,886,655.0,646,453,60,120.0,519,1,404,618,335,0,0,775,31988,-3450,648,45.701836,4.911369,64.72,196.5,1,3.9967,0,0.0,3.2983,2,0.29,14.7474
884863,1560683084239,3,2.27,2.53,3.27,2.22,3.02,0.45,0.11,0.5,0,2,4,0.47,9351,42,84,33,62,997,659.0,646,458,60,121.0,519,1,409,436,335,0,0,814,-26380,5344,653,,,,,,,,,,,,
884883,1560683084259,3,2.28,2.47,3.3,2.2,3.01,0.61,-0.05,0.65,-0,-3,5,0.61,9282,37,84,33,58,1109,662.0,633,467,60,120.0,519,1,404,364,335,0,0,707,-2345,-6006,660,,,,,,,,,,,,
884903,1560683084279,-0,2.28,2.31,3.3,2.06,3.06,0.49,-0.09,0.6,-0,-3,4,0.5,9571,33,84,33,53,1203,667.0,642,462,60,120.0,519,1,397,317,335,0,0,654,1549,1549,658,,,,,,,,,,,,
884923,1560683084299,3,2.27,2.23,3.26,1.92,3.1,0.54,-0.04,0.73,1,-2,4,0.54,9709,33,84,33,49,1291,666.0,636,461,60,121.0,155,1,385,263,103,0,0,668,-3578,-26562,658,,,,,,,,,,,,
884943,1560683084319,4,2.29,2.23,3.13,1.93,3.01,0.64,-0.03,0.82,0,-1,4,0.64,9441,31,84,33,45,1364,671.0,635,460,60,120.0,155,1,363,235,103,0,0,676,8958,11576,666,45.701824,4.911387,65.49,196.5,1,3.9967,0,0.0,3.3,2,0.29,14.7491
884963,1560683084339,5,2.27,2.23,3.0,1.93,2.88,0.48,0.01,0.75,1,2,4,0.48,9097,31,84,33,43,1432,672.0,633,456,60,120.0,155,1,345,224,103,0,0,684,-3038,-26562,672,,,,,,,,,,,,
884983,1560683084359,2,2.27,2.19,2.88,1.93,2.74,0.52,0.07,0.66,1,4,3,0.52,8749,30,84,33,41,1434,675.0,628,460,60,120.0,155,1,332,217,103,0,0,683,-2345,-10344,673,,,,,,,,,,,,
885003,1560683084379,-1,2.29,2.15,2.78,1.91,2.68,0.67,-0.02,0.79,0,1,4,0.67,8692,30,84,33,40,1412,673.0,630,456,60,121.0,155,1,326,215,103,0,0,675,-3038,-3584,673,,,,,,,,,,,,
885023,1560683084399,1,2.28,2.13,2.87,1.93,2.73,0.69,-0.05,0.84,1,2,3,0.69,8741,30,84,33,39,1313,668.0,632,457,60,122.0,104,1,320,215,70,0,0,667,-3578,-10344,668,,,,,,,,,,,,
885043,1560683084419,5,2.28,2.14,3.04,2.0,2.88,0.64,0.02,0.75,1,-1,2,0.64,8819,30,84,33,39,1188,668.0,633,466,60,122.0,104,1,320,213,70,0,0,665,3543,-27404,666,45.701817,4.911406,65.45,196.5,1,3.9967,0,0.0,3.3017,2,0.29,14.7507
885063,1560683084439,3,2.28,2.14,3.16,2.0,3.02,0.61,0.0,0.6,2,-1,4,0.61,8798,29,84,33,38,1075,667.0,630,456,60,121.0,104,1,317,209,70,0,0,663,-10348,-3578,663,,,,,,,,,,,,
885083,1560683084459,2,2.28,2.16,3.27,2.06,3.07,0.55,0.04,0.57,2,-1,4,0.55,8790,30,84,33,38,972,665.0,635,460,60,121.0,104,1,317,209,70,0,0,661,3543,-27404,664,,,,,,,,,,,,
885103,1560683084479,3,2.28,2.2,3.34,2.09,3.16,0.55,0.06,0.63,2,-4,2,0.56,8823,30,84,33,38,869,664.0,633,458,60,120.0,104,1,317,209,70,0,0,659,-10348,3543,661,,,,,,,,,,,,
885123,1560683084499,2,2.29,2.28,3.51,2.15,3.25,0.62,-0.01,0.63,2,-5,3,0.62,8831,30,84,33,38,769,663.0,632,460,60,120.0,104,1,317,209,69,0,0,653,-27404,-10348,661,,,,,,,,,,,,
885143,1560683084519,2,2.29,2.29,3.59,2.19,3.27,0.76,-0.08,0.67,2,-7,2,0.76,8861,30,84,33,37,719,664.0,637,468,60,122.0,104,1,314,205,69,0,0,660,-10348,31988,663,45.701805,4.911425,66.43,196.5,1,3.9967,0,0.0,3.3033,2,0.3,14.7524
885163,1560683084539,2,2.28,2.28,3.57,2.2,3.27,0.88,-0.17,0.69,2,-7,3,0.9,8915,30,84,33,37,722,665.0,630,463,60,121.0,104,1,314,205,69,0,0,663,-27404,3543,665,,,,,,,,,,,,
885183,1560683084559,2,2.29,2.26,3.53,2.21,3.29,0.99,-0.27,0.82,1,-9,4,1.03,9010,29,84,33,37,725,666.0,636,461,60,121.0,104,1,314,205,69,0,0,660,-10348,-27404,667,,,,,,,,,,,,
885203,1560683084579,3,2.27,2.23,3.46,2.18,3.24,1.06,-0.39,0.94,1,-9,4,1.13,9066,25,84,33,36,730,665.0,637,468,60,121.0,104,1,311,202,69,0,0,653,-2826,-2345,666,,,,,,,,,,,,
885223,1560683084599,1,2.28,2.25,3.41,2.18,3.19,1.16,-0.5,1.03,1,-11,3,1.26,9066,21,84,33,33,735,666.0,640,461,60,120.0,102,1,302,195,68,0,0,659,-27404,8958,667,,,,,,,,,,,,
885243,1560683084619,4,2.27,2.24,3.37,2.16,3.08,1.25,-0.53,1.08,1,-12,4,1.35,8988,19,84,33,31,737,665.0,638,462,60,121.0,102,1,295,188,68,0,0,658,-27404,-10344,663,45.701794,4.911443,66.42,196.5,1,3.9967,0,0.0,3.305,2,0.3,14.7541
885263,1560683084639,3,2.28,2.2,3.36,2.14,3.0,1.32,-0.55,1.17,1,-11,4,1.43,8823,18,84,33,29,741,662.0,639,462,60,122.0,102,1,287,188,68,0,0,656,-2826,-3488,662,,,,,,,,,,,,
885283,1560683084659,7,2.28,2.17,3.35,2.1,2.98,1.3,-0.56,1.13,1,-11,3,1.41,8604,17,84,32,29,745,662.0,630,463,60,121.0,102,1,287,188,68,0,0,659,-2826,31988,657,,,,,,,,,,,,
885303,1560683084679,5,2.27,2.15,3.34,2.03,3.0,1.35,-0.58,1.08,0,-11,2,1.47,8393,17,84,32,28,749,661.0,628,460,60,121.0,102,1,281,181,68,0,0,656,-2345,31988,658,,,,,,,,,,,,
885323,1560683084698,9,2.28,2.11,3.38,2.0,3.03,1.23,-0.48,1.02,1,-10,0,1.32,8278,17,84,32,29,751,661.0,626,461,60,121.0,85,1,284,177,56,0,0,649,-2345,4909,657,,,,,,,,,,,,
885343,1560683084718,8,2.27,2.08,3.38,1.99,3.1,1.21,-0.51,0.93,1,-9,0,1.31,8263,16,84,32,29,755,658.0,622,461,60,122.0,85,1,284,176,56,0,0,618,-3038,19320,653,45.701782,4.911462,65.82,196.5,1,3.9967,0,0.0,3.3067,2,0.3,14.7557
885363,1560683084738,11,2.26,2.06,3.37,1.97,3.19,1.16,-0.39,0.9,0,-9,-0,1.22,8292,16,84,32,29,761,651.0,621,458,60,121.0,85,1,284,178,56,0,0,629,-6006,-1346,651,,,,,,,,,,,,
885383,1560683084758,10,2.27,2.05,3.33,1.95,3.21,1.24,-0.42,0.69,0,-5,-0,1.31,8325,16,84,32,30,766,650.0,622,462,60,120.0,85,1,288,179,56,0,0,627,-6006,17336,647,,,,,,,,,,,,
885403,1560683084778,9,2.27,2.04,3.34,1.92,3.22,1.19,-0.39,0.82,1,-7,0,1.25,8355,16,84,32,29,771,645.0,625,460,60,120.0,85,1,285,181,56,0,0,628,11566,-3446,645,,,,,,,,,,,,
885423,1560683084800,9,2.27,2.01,3.35,1.87,3.21,1.22,-0.38,0.57,1,-6,-1,1.28,8419,15,84,32,29,780,643.0,627,458,60,121.0,88,1,286,183,57,0,0,616,-2830,-28304,643,,,,,,,,,,,,
885443,1560683084820,9,2.26,2.0,3.4,1.85,3.2,1.19,-0.4,0.58,1,-5,0,1.26,8393,15,84,32,29,803,641.0,626,460,60,121.0,88,1,285,182,57,0,0,605,-3584,-18357,639,45.701775,4.91148,64.96,196.5,1,3.9967,0,0.0,3.3083,2,0.3,14.7574
885463,1560683084840,13,2.26,1.99,3.4,1.86,3.15,1.14,-0.31,0.59,1,-4,0,1.18,8314,15,84,32,29,827,638.0,631,458,60,121.0,88,1,284,179,57,0,0,611,-2580,506,638,,,,,,,,,,,,
885483,1560683084860,9,2.27,1.99,3.37,1.85,3.12,1.18,-0.3,0.48,1,-2,1,1.22,8274,15,84,32,30,845,632.0,623,460,60,120.0,88,1,287,177,57,0,0,616,3,16529,630,,,,,,,,,,,,
885503,1560683084880,11,2.27,1.97,3.36,1.82,3.11,1.15,-0.29,0.6,1,-2,1,1.19,8307,15,84,32,29,869,630.0,625,462,60,121.0,88,1,284,179,57,0,0,603,-14655,16529,626,,,,,,,,,,,,
885523,1560683084898,11,2.26,1.94,3.33,1.78,3.11,1.24,-0.29,0.43,1,-1,1,1.28,8329,15,84,32,29,914,624.0,627,458,60,120.0,89,1,284,179,56,0,0,611,-16883,-28304,621,,,,,,,,,,,,
885543,1560683084918,14,2.28,1.93,3.34,1.77,3.13,1.2,-0.22,0.59,1,-2,2,1.22,8281,15,84,32,29,959,625.0,621,459,60,121.0,89,1,284,177,56,0,0,600,19320,-768,619,45.701763,4.911498,63.14,196.4,1,3.9967,0,0.0,3.31,2,0.3,14.7591
885563,1560683084938,11,2.28,1.93,3.34,1.77,3.16,1.25,-0.29,0.42,1,-2,1,1.28,8209,15,84,32,29,984,618.0,623,461,60,121.0,89,1,283,174,56,0,0,606,269,-23055,613,,,,,,,,,,,,
885583,1560683084958,11,2.28,1.95,3.34,1.78,3.13,1.18,-0.23,0.49,1,-2,1,1.2,8169,14,84,32,29,1009,614.0,621,460,60,121.0,89,1,283,172,56,0,0,605,16529,-7939,612,,,,,,,,,,,,
885603,1560683084978,10,2.29,1.95,3.35,1.77,3.12,1.15,-0.27,0.43,2,-2,1,1.18,8092,14,84,32,29,1043,611.0,623,461,60,121.0,89,1,282,168,56,0,0,595,17740,-16179,605,,,,,,,,,,,,
885623,1560683084992,11,2.28,1.92,3.35,1.75,3.1,1.18,-0.23,0.35,2,-2,1,1.2,8016,14,84,32,29,1078,607.0,626,458,60,122.0,84,1,281,164,51,0,0,592,17740,-13043,606,,,,,,,,,,,,
885643,1560683085012,12,2.28,1.91,3.38,1.75,3.13,1.05,-0.13,0.36,3,-0,2,1.05,8016,14,84,32,29,1089,604.0,617,459,60,122.0,84,1,281,164,51,0,0,580,5344,-1894,601,45.701756,4.911515,61.31,196.4,1,3.9967,0,0.0,3.3117,2,0.3,14.7607
885663,1560683085032,9,2.28,1.9,3.39,1.75,3.15,0.95,-0.22,0.3,3,1,3,0.97,7971,14,84,32,28,1099,601.0,621,462,60,121.0,84,1,278,163,51,0,0,581,243,2048,597,,,,,,,,,,,,
885683,1560683085052,7,2.28,1.91,3.37,1.75,3.16,0.98,-0.16,0.27,2,2,3,0.99,7868,14,84,32,28,1114,598.0,625,459,60,122.0,84,1,277,163,51,0,0,584,4956,8488,598,,,,,,,,,,,,
885703,1560683085072,10,2.27,1.92,3.35,1.75,3.17,1.09,-0.07,0.29,2,0,1,1.09,7848,14,84,32,27,1129,595.0,621,459,60,122.0,84,1,274,163,51,0,0,578,-16179,-8188,592,,,,,,,,,,,,
885723,1560683085100,12,2.26,1.9,3.33,1.74,3.11,1.01,-0.02,0.27,2,3,1,1.01,7793,14,84,32,28,1137,591.0,616,457,60,121.0,81,1,276,163,48,0,0,583,6273,15649,590,,,,,,,,,,,,
885743,1560683085120,11,2.27,1.9,3.35,1.74,3.16,0.97,-0.12,0.27,3,1,2,0.98,7805,13,84,32,27,1142,588.0,621,460,60,121.0,81,1,274,161,48,0,0,566,-12040,-8188,587,45.701744,4.911531,59.72,196.4,1,3.9967,0,0.0,3.3133,2,0.3,14.7624
885763,1560683085140,9,2.28,1.9,3.33,1.75,3.14,1.0,-0.21,0.25,3,-0,2,1.03,7799,13,84,32,26,1139,584.0,623,462,60,122.0,81,1,270,161,48,0,0,575,-4035,-8188,580,,,,,,,,,,,,
885783,1560683085160,6,2.28,1.9,3.32,1.76,3.13,1.11,-0.19,0.21,2,1,3,1.12,7716,13,84,32,26,1134,580.0,619,460,60,121.0,81,1,270,160,48,0,0,568,243,1760,578,,,,,,,,,,,,
885803,1560683085180,9,2.28,1.9,3.33,1.76,3.13,1.2,-0.11,0.3,1,1,1,1.2,7703,13,84,32,26,1126,577.0,616,460,60,122.0,81,1,270,160,48,0,0,562,1,-28648,576,,,,,,,,,,,,
885823,1560683085200,8,2.27,1.9,3.34,1.75,3.13,1.26,0.0,0.29,0,1,-1,1.26,7662,13,84,32,26,1115,574.0,611,460,60,121.0,80,1,269,160,46,0,0,562,-8188,2216,574,,,,,,,,,,,,
885843,1560683085220,6,2.28,1.89,3.33,1.75,3.14,1.18,0.06,0.26,0,0,-3,1.18,7631,13,84,32,26,1089,573.0,611,462,60,123.0,80,1,269,160,46,0,0,555,1760,6273,569,45.701736,4.911548,58.06,196.4,1,3.9967,0,0.0,3.315,2,0.3,14.764
885863,1560683085240,7,2.27,1.89,3.33,1.75,3.14,1.12,0.08,0.24,1,1,-2,1.12,7536,13,84,32,26,1058,571.0,613,462,60,123.0,80,1,268,160,46,0,0,560,-8186,6273,571,,,,,,,,,,,,
885883,1560683085260,5,2.27,1.9,3.34,1.75,3.14,1.07,0.11,0.25,2,0,-2,1.07,7461,13,84,32,26,1034,567.0,612,460,60,122.0,80,1,267,160,46,0,0,558,1780,-22263,565,,,,,,,,,,,,
885903,1560683085280,7,2.27,1.9,3.34,1.75,3.14,1.11,0.11,0.16,2,1,-2,1.12,7387,13,84,32,26,1013,565.0,606,460,60,121.0,80,1,266,160,46,0,0,545,12552,6274,565,,,,,,,,,,,,
885923,1560683085300,6,2.28,1.9,3.34,1.75,3.14,1.17,0.09,0.2,1,1,-3,1.18,7387,13,84,32,26,988,561.0,606,461,60,121.0,78,1,266,160,44,0,0,541,6273,-3082,560,,,,,,,,,,,,
885943,1560683085320,6,2.28,1.89,3.35,1.74,3.15,1.25,0.13,0.25,1,2,-3,1.26,7341,13,84,32,26,961,557.0,611,458,60,122.0,78,1,266,160,44,0,0,539,2216,-2336,553,45.701725,4.911564,56.64,196.4,1,3.9967,0,0.0,3.3167,2,0.3,14.7657
885963,1560683085340,7,2.27,1.89,3.38,1.75,3.13,1.33,0.04,0.33,-0,-1,-4,1.33,7370,13,84,32,27,944,552.0,602,460,60,121.0,78,1,270,226,44,0,0,534,-28648,1779,552,,,,,,,,,,,,
885983,1560683085360,11,2.27,1.89,3.38,1.75,3.11,1.33,-0.03,0.32,-1,-2,-5,1.33,7321,13,84,32,27,936,550.0,605,460,60,121.0,78,1,270,212,44,0,0,538,6274,-30064,550,,,,,,,,,,,,
886003,1560683085380,6,2.28,1.93,3.37,1.78,3.09,1.27,-0.06,0.28,-0,-0,-3,1.27,7284,12,84,32,27,928,547.0,596,463,60,119.0,78,1,270,196,44,0,0,537,-22519,-506,545,,,,,,,,,,,,
886023,1560683085400,4,2.28,1.97,3.37,1.83,3.09,1.08,-0.08,0.25,1,1,-2,1.08,7256,12,84,32,26,920,544.0,600,460,60,119.0,93,1,266,179,51,0,0,530,-506,-28648,542,,,,,,,,,,,,
886043,1560683085420,3,2.27,1.97,3.37,1.81,3.12,1.01,-0.01,0.2,1,1,-3,1.01,7244,12,84,32,26,916,543.0,598,460,60,119.0,93,1,266,162,51,0,0,534,1779,-22519,539,45.701717,4.911579,54.85,196.4,1,3.9967,0,0.0,3.3183,2,0.31,14.7674
886063,1560683085440,0,2.27,1.96,3.35,1.82,3.13,1.03,0.07,0.23,1,-1,-3,1.03,7208,12,84,32,27,916,540.0,593,458,60,120.0,93,1,270,160,51,0,0,531,-8186,-28648,540,,,,,,,,,,,,
886083,1560683085460,5,2.28,1.98,3.33,1.83,3.13,1.13,0.03,0.38,0,-4,-4,1.13,7170,12,84,32,26,917,540.0,591,461,60,120.0,93,1,265,160,51,0,0,533,-8186,2524,537,,,,,,,,,,,,
886103,1560683085480,2,2.28,1.97,3.33,1.83,3.13,1.15,-0.06,0.35,-1,-4,-4,1.15,7172,12,84,32,26,921,538.0,589,461,60,120.0,93,1,265,160,51,0,0,527,-2934,-22519,537,,,,,,,,,,,,
886123,1560683085500,3,2.27,1.97,3.36,1.85,3.14,0.91,-0.02,0.26,1,-2,-2,0.91,7167,11,84,32,26,925,537.0,592,463,60,119.0,80,1,265,160,43,0,0,525,-30064,2524,537,,,,,,,,,,,,
886143,1560683085520,0,2.27,1.96,3.38,1.84,3.15,0.81,0.05,0.21,2,1,-1,0.82,7151,11,84,32,26,928,536.0,592,461,60,120.0,80,1,265,160,43,0,0,525,-28648,6274,536,45.701706,4.911594,53.96,196.4,1,3.9967,0,0.0,3.32,2,0.31,14.769
886163,1560683085540,-2,2.28,1.96,3.36,1.83,3.14,0.9,0.03,0.33,1,-0,-0,0.91,7140,11,84,32,26,934,536.0,591,458,60,120.0,80,1,265,160,43,0,0,529,-32248,-9072,537,,,,,,,,,,,,
886183,1560683085560,4,2.28,1.96,3.34,1.85,3.12,0.98,-0.06,0.42,1,-1,-1,0.98,7099,10,84,32,26,945,534.0,591,459,60,121.0,80,1,264,160,43,0,0,529,-32248,-32248,535,,,,,,,,,,,,
886203,1560683085580,5,2.28,1.96,3.3,1.89,3.11,0.86,-0.11,0.38,2,-1,-1,0.86,7126,10,84,32,26,955,533.0,586,463,60,119.0,80,1,265,160,43,0,0,528,14504,-22519,532,,,,,,,,,,,,
886223,1560683085600,2,2.28,1.95,3.3,1.88,3.1,0.83,-0.03,0.37,2,-1,-1,0.83,7140,10,84,32,26,964,531.0,583,463,60,119.0,81,1,265,160,43,0,0,523,-9072,2088,531,,,,,,,,,,,,
886243,1560683085620,6,2.27,1.95,3.31,1.86,3.14,0.95,-0.02,0.4,1,-2,-0,0.95,7107,10,84,32,26,969,528.0,585,458,60,121.0,81,1,265,159,43,0,0,519,-28648,-9212,528,45.701698,4.911608,52.99,196.4,1,3.9967,0,0.0,3.3217,2,0.31,14.7707
886263,1560683085640,11,2.28,1.94,3.3,1.84,3.12,1.01,-0.09,0.42,1,-3,0,1.01,7104,10,84,32,25,964,528.0,590,466,60,119.0,81,1,261,159,43,0,0,517,10408,26178,528,,,,,,,,,,,,
886283,1560683085660,12,2.27,1.93,3.3,1.83,3.12,0.87,-0.01,0.25,2,-0,1,0.87,7025,10,84,32,25,958,524.0,587,461,60,119.0,81,1,260,159,43,0,0,518,10408,17136,524,,,,,,,,,,,,
886303,1560683085680,14,2.28,1.92,3.33,1.83,3.12,0.97,-0.0,0.29,2,-3,1,0.97,6970,10,84,32,25,945,521.0,584,462,60,120.0,81,1,261,159,43,0,0,512,15679,-8187,521,,,,,,,,,,,,
886323,1560683085699,18,2.28,1.91,3.38,1.82,3.11,1.01,-0.14,0.28,1,-2,1,1.02,6916,9,84,32,25,933,517.0,572,458,60,120.0,78,1,261,159,41,0,0,509,16383,16383,515,,,,,,,,,,,,
886343,1560683085719,16,2.27,1.9,3.43,1.8,3.11,0.97,-0.09,0.21,2,0,2,0.98,6858,9,84,32,26,920,513.0,570,464,60,119.0,78,1,266,159,41,0,0,498,26178,-4054,513,45.701691,4.911623,52.39,196.4,1,3.9967,0,0.0,3.3233,2,0.31,14.7724
886363,1560683085739,18,2.28,1.9,3.45,1.78,3.12,1.08,-0.19,0.3,0,-0,4,1.1,6756,9,84,32,26,909,513.0,566,458,60,121.0,78,1,266,160,41,0,0,498,26178,998,508,,,,,,,,,,,,
886383,1560683085759,19,2.26,1.91,3.45,1.76,3.14,0.96,-0.09,0.22,2,3,5,0.97,6701,9,84,32,26,909,508.0,561,466,60,119.0,78,1,266,160,41,0,0,494,-3414,-9216,504,,,,,,,,,,,,
886403,1560683085779,19,2.28,1.91,3.45,1.75,3.15,1.07,-0.1,0.28,0,2,4,1.07,6656,9,84,32,26,911,502.0,555,464,60,119.0,78,1,267,160,41,0,0,488,15661,-6656,499,,,,,,,,,,,,
886423,1560683085799,23,2.27,1.91,3.45,1.74,3.15,0.96,-0.08,0.29,2,3,2,0.96,6576,9,84,32,26,913,499.0,556,460,60,120.0,80,1,268,160,40,0,0,486,-22519,-899,491,,,,,,,,,,,,
886443,1560683085819,20,2.26,1.91,3.45,1.74,3.16,0.96,0.04,0.22,1,1,-0,0.96,6494,9,84,32,26,916,494.0,550,461,60,119.0,80,1,269,160,40,0,0,480,998,-899,487,45.701679,4.911637,50.82,196.4,1,3.9967,0,0.0,3.325,2,0.31,14.774
886463,1560683085839,18,2.26,1.91,3.45,1.75,3.14,1.07,-0.07,0.28,1,-3,-2,1.07,6461,9,84,32,26,919,491.0,543,463,60,121.0,80,1,269,160,40,0,0,473,-6656,32033,485,,,,,,,,,,,,
886483,1560683085859,19,2.27,1.9,3.43,1.74,3.15,1.11,-0.09,0.35,1,-5,-4,1.11,6408,9,84,32,27,921,487.0,538,460,60,120.0,80,1,272,161,40,0,0,471,505,-9203,482,,,,,,,,,,,,
886503,1560683085879,18,2.27,1.88,3.42,1.72,3.18,1.06,-0.11,0.27,0,-4,-5,1.07,6366,9,84,32,27,925,483.0,530,461,60,119.0,80,1,273,161,40,0,0,469,3580,2211,479,,,,,,,,,,,,
886523,1560683085899,11,2.28,1.89,3.38,1.73,3.21,0.99,-0.01,0.11,0,-2,-3,0.99,6315,9,84,32,27,930,479.0,529,458,60,120.0,79,1,273,161,38,0,0,469,10305,6193,477,,,,,,,,,,,,
886543,1560683085919,11,2.26,1.88,3.35,1.73,3.22,0.97,-0.05,0.05,0,-0,-1,0.97,6281,8,84,32,27,933,475.0,530,461,60,120.0,79,1,274,161,38,0,0,469,-17956,-9160,475,45.701675,4.911651,48.9,196.4,1,3.9967,0,0.0,3.3267,2,0.31,14.7757
886563,1560683085939,11,2.27,1.88,3.35,1.72,3.24,1.03,-0.1,0.08,0,0,0,1.03,6258,8,84,32,28,936,471.0,523,460,60,121.0,79,1,277,163,38,0,0,464,32033,-18108,471,,,,,,,,,,,,
886583,1560683085959,10,2.28,1.87,3.35,1.74,3.22,1.13,-0.16,0.1,1,-1,2,1.14,6214,8,84,32,28,938,468.0,520,459,60,120.0,79,1,277,163,38,0,0,456,-16384,14488,468,,,,,,,,,,,,
886603,1560683085979,12,2.29,1.87,3.36,1.75,3.22,1.2,-0.17,0.09,2,-1,4,1.21,6196,8,84,32,28,940,467.0,521,460,60,120.0,79,1,278,163,38,0,0,452,6193,-9160,465,,,,,,,,,,,,
886623,1560683085993,15,2.28,1.87,3.35,1.76,3.21,1.17,-0.17,0.1,3,0,7,1.19,6186,8,84,32,28,942,463.0,517,462,60,120.0,81,1,278,163,38,0,0,448,17628,3571,463,,,,,,,,,,,,
886643,1560683086013,15,2.28,1.85,3.36,1.75,3.2,1.07,-0.16,0.11,4,3,9,1.08,6121,8,84,32,28,942,461.0,520,460,60,119.0,81,1,278,164,38,0,0,448,14488,3571,461,45.701664,4.911663,47.17,196.4,1,3.9967,0,0.0,3.3283,2,0.31,14.7774
886663,1560683086033,16,2.28,1.84,3.35,1.75,3.19,0.92,-0.15,0.06,3,6,10,0.94,6056,8,84,32,29,942,458.0,516,459,60,119.0,81,1,281,164,38,0,0,446,14488,26704,458,,,,,,,,,,,,
886683,1560683086053,16,2.29,1.84,3.35,1.75,3.16,0.77,-0.17,0.03,3,7,11,0.79,5986,8,84,32,29,942,452.0,512,461,60,120.0,81,1,280,164,38,0,0,443,3571,21432,455,,,,,,,,,,,,
886703,1560683086073,16,2.28,1.84,3.35,1.76,3.13,0.62,-0.17,0.0,2,10,11,0.65,5950,8,84,32,29,943,450.0,506,462,60,120.0,81,1,280,164,38,0,0,442,16648,10305,450,,,,,,,,,,,,
886723,1560683086099,15,2.26,1.84,3.38,1.76,3.12,0.51,-0.14,-0.01,2,12,11,0.52,5924,8,84,32,29,944,445.0,501,460,60,120.0,80,1,279,164,36,0,0,437,26704,21580,445,,,,,,,,,,,,
886743,1560683086119,14,2.27,1.8,3.42,1.74,3.15,0.45,-0.14,0.0,2,13,11,0.47,5892,8,84,32,30,945,441.0,501,461,60,120.0,80,1,281,164,36,0,0,428,26704,1779,441,45.701656,4.911676,45.49,196.4,1,3.9967,0,0.0,3.33,2,0.31,14.779
886763,1560683086139,13,2.25,1.82,3.41,1.73,3.16,0.33,-0.14,-0.0,3,14,11,0.36,5844,8,84,32,30,945,440.0,497,461,60,120.0,80,1,280,164,36,0,0,432,-28332,13180,439,,,,,,,,,,,,
886783,1560683086159,11,2.26,1.81,3.39,1.73,3.14,0.28,-0.14,-0.02,5,14,11,0.31,5739,8,84,32,31,943,437.0,488,462,60,121.0,80,1,281,165,36,0,0,430,19477,19477,436,,,,,,,,,,,,
886803,1560683086179,14,2.25,1.83,3.35,1.74,3.14,0.45,-0.01,0.02,5,10,10,0.45,5620,8,84,32,31,942,434.0,476,461,60,121.0,80,1,279,164,36,0,0,429,-768,13180,433,,,,,,,,,,,,
886823,1560683086199,10,2.25,1.83,3.35,1.73,3.15,0.43,-0.08,-0.01,4,9,7,0.43,5482,8,84,32,32,942,430.0,472,462,60,120.0,79,1,279,169,34,0,0,423,-3314,7154,428,,,,,,,,,,,,
886843,1560683086219,9,2.25,1.84,3.38,1.73,3.19,0.25,-0.09,-0.08,5,11,7,0.26,5425,8,84,32,33,942,425.0,462,461,60,121.0,79,1,281,169,34,0,0,371,-3856,-6458,424,45.701652,4.911688,43.76,196.4,1,3.9967,0,0.0,3.3317,2,0.31,14.7807
886863,1560683086239,13,2.25,1.82,3.41,1.71,3.21,0.42,-0.1,-0.02,4,4,4,0.43,5628,8,84,32,34,942,424.0,462,453,60,123.0,79,1,288,177,34,0,0,357,-4082,-29978,423,,,,,,,,,,,,
886883,1560683086259,12,2.26,1.82,3.42,1.69,3.21,0.58,-0.04,0.01,1,8,2,0.59,5690,8,84,32,34,944,421.0,472,458,60,122.0,79,1,289,177,34,0,0,330,-21792,-122,418,,,,,,,,,,,,
886903,1560683086279,12,2.27,1.82,3.41,1.7,3.21,0.73,-0.01,-0.03,-1,10,1,0.73,5875,8,84,32,34,946,417.0,484,465,60,121.0,79,1,293,178,34,0,0,335,-21944,-25856,412,,,,,,,,,,,,
886923,1560683086299,13,2.27,1.82,3.4,1.69,3.2,0.71,0.01,-0.06,-2,12,1,0.71,5956,8,84,33,34,947,414.0,495,468,60,121.0,96,1,294,179,40,0,0,329,2524,32000,408,,,,,,,,,,,,
886943,1560683086319,13,2.26,1.82,3.38,1.66,3.18,0.74,0.03,-0.08,-2,15,2,0.74,6003,8,84,33,33,946,409.0,501,466,60,120.0,96,1,292,174,40,0,0,309,11560,-25856,404,45.701645,4.911699,42.18,196.4,1,3.9967,0,0.0,3.3333,2,0.31,14.7824
886963,1560683086339,16,2.27,1.83,3.39,1.67,3.17,0.78,-0.02,-0.12,-2,15,1,0.78,6085,8,84,33,33,945,404.0,505,462,60,121.0,96,1,292,174,40,0,0,315,10541,2560,398,,,,,,,,,,,,
886983,1560683086359,13,2.27,1.82,3.4,1.66,3.17,0.9,-0.15,-0.12,-3,15,-1,0.92,6200,8,84,33,32,943,400.0,511,458,60,121.0,96,1,290,169,40,0,0,340,6384,-22016,392,,,,,,,,,,,,
887003,1560683086379,9,2.28,1.81,3.42,1.63,3.18,1.01,-0.2,-0.0,-4,13,-2,1.04,6241,8,84,33,32,937,396.0,520,463,60,122.0,96,1,290,169,40,0,0,339,17144,-6528,389,,,,,,,,,,,,
887023,1560683086400,13,2.27,1.81,3.42,1.62,3.18,1.12,-0.19,0.04,-5,8,-3,1.13,6343,8,84,33,31,930,392.0,525,458,60,122.0,100,1,286,167,39,0,0,325,1,8841,384,,,,,,,,,,,,
887043,1560683086420,14,2.26,1.81,3.4,1.62,3.18,1.08,-0.07,-0.01,-4,9,-3,1.09,6412,8,84,33,31,924,388.0,533,462,60,121.0,100,1,286,167,39,0,0,342,-3866,3346,381,45.701637,4.91171,40.05,196.4,1,3.9967,0,0.0,3.335,2,0.31,14.784
887063,1560683086440,9,2.26,1.81,3.38,1.62,3.17,1.13,-0.08,-0.08,-4,9,-3,1.14,6508,8,84,33,30,919,382.0,536,460,60,121.0,100,1,282,166,39,0,0,361,-18948,-30454,376,,,,,,,,,,,,
887083,1560683086460,9,2.26,1.81,3.37,1.61,3.19,1.15,-0.09,-0.07,-4,8,-2,1.15,6572,7,84,33,30,915,376.0,539,459,60,122.0,100,1,282,166,39,0,0,356,742,3183,372,,,,,,,,,,,,
887103,1560683086480,6,2.26,1.83,3.37,1.63,3.21,1.1,-0.06,-0.09,-3,9,-1,1.1,6674,7,84,33,29,912,371.0,547,463,60,121.0,100,1,278,164,39,0,0,350,257,-14714,368,,,,,,,,,,,,
887123,1560683086499,8,2.27,1.82,3.37,1.64,3.21,1.08,-0.1,-0.01,-3,9,-0,1.08,6739,7,84,33,29,913,368.0,553,455,60,122.0,112,1,278,164,41,0,0,351,0,2811,364,,,,,,,,,,,,
887143,1560683086519,3,2.27,1.84,3.37,1.67,3.2,1.13,-0.07,0.04,-2,10,1,1.14,6718,7,84,33,28,913,365.0,560,465,60,120.0,112,1,274,163,41,0,0,350,-6405,4104,361,45.70163,4.91172,37.78,196.4,1,3.9967,0,0.0,3.3367,2,0.31,14.7857
887163,1560683086539,8,2.28,1.84,3.34,1.71,3.15,1.06,-0.09,0.2,-2,7,2,1.06,6701,7,84,33,28,910,362.0,556,461,60,122.0,112,1,274,163,41,0,0,356,2790,2060,360,,,,,,,,,,,,
887183,1560683086559,9,2.28,1.84,3.31,1.72,3.13,0.96,-0.02,0.19,-1,8,1,0.96,6630,7,84,33,28,904,360.0,556,461,60,121.0,112,1,275,163,41,0,0,355,-29302,3302,357,,,,,,,,,,,,
887203,1560683086579,2,2.28,1.84,3.3,1.71,3.12,1.07,-0.06,0.25,-2,6,-1,1.07,6530,7,84,33,27,898,357.0,550,463,60,120.0,112,1,272,161,41,0,0,354,4104,28553,357,,,,,,,,,,,,
887223,1560683086599,5,2.28,1.85,3.3,1.69,3.12,1.08,-0.13,0.32,-1,3,-2,1.08,6467,7,84,33,27,892,355.0,548,461,60,122.0,110,1,272,161,39,0,0,349,3302,3183,355,,,,,,,,,,,,
887243,1560683086619,9,2.29,1.84,3.31,1.69,3.13,0.95,-0.05,0.25,-0,2,-3,0.96,6463,7,84,33,27,883,352.0,542,463,60,121.0,110,1,272,161,39,0,0,343,3183,2811,352,45.701626,4.91173,35.91,196.4,1,3.9967,0,0.0,3.3383,2,0.31,14.7874
887263,1560683086639,4,2.29,1.84,3.34,1.7,3.13,0.99,-0.06,0.15,-0,2,-2,0.99,6403,7,84,33,27,876,351.0,540,459,60,121.0,110,1,272,161,39,0,0,343,2811,-14714,350,,,,,,,,,,,,
887283,1560683086659,4,2.29,1.84,3.38,1.71,3.12,1.05,-0.14,0.21,-0,2,-2,1.06,6362,7,84,33,27,875,347.0,538,459,60,123.0,110,1,273,161,39,0,0,337,8841,-31206,347,,,,,,,,,,,,
887303,1560683086679,4,2.3,1.85,3.38,1.71,3.12,1.08,-0.2,0.23,0,0,0,1.1,6328,7,84,33,27,874,346.0,534,463,60,122.0,110,1,273,161,39,0,0,341,6870,-31222,346,,,,,,,,,,,,
887323,1560683086698,6,2.3,1.86,3.39,1.74,3.13,0.99,-0.15,0.19,1,1,3,1.0,6285,7,84,33,27,875,345.0,532,463,60,122.0,109,1,274,161,38,0,0,335,-10554,13,345,,,,,,,,,,,,
887343,1560683086718,8,2.29,1.9,3.4,1.79,3.13,0.88,-0.09,0.13,2,4,6,0.89,6225,7,84,33,28,877,344.0,532,460,60,120.0,109,1,277,163,38,0,0,333,6668,4838,344,45.701618,4.91174,34.96,196.5,1,3.9967,0,0.0,3.34,2,0.32,14.7891
887363,1560683086738,8,2.29,1.89,3.39,1.78,3.14,0.87,-0.06,0.11,1,6,9,0.87,6184,7,84,33,27,882,339.0,524,457,60,121.0,109,1,275,163,38,0,0,334,-122,175,339,,,,,,,,,,,,
887383,1560683086758,4,2.29,1.88,3.36,1.76,3.14,0.9,-0.08,0.1,0,7,10,0.9,6133,7,84,33,28,887,338.0,517,456,60,121.0,109,1,278,163,38,0,0,331,13,175,338,,,,,,,,,,,,
887403,1560683086778,4,2.3,1.88,3.35,1.76,3.12,0.99,-0.12,0.17,-0,7,9,1.0,6111,7,84,33,28,896,337.0,516,458,60,122.0,109,1,278,163,38,0,0,329,3346,-22016,337,,,,,,,,,,,,
887423,1560683086794,4,2.29,1.88,3.35,1.76,3.11,1.1,-0.12,0.31,-1,5,8,1.1,6089,7,84,33,28,906,335.0,515,456,60,122.0,110,1,278,163,37,0,0,327,-12032,-22016,335,,,,,,,,,,,,
887443,1560683086814,4,2.29,1.88,3.35,1.76,3.12,1.19,-0.13,0.41,-2,2,7,1.2,6064,7,84,33,28,913,331.0,510,457,60,121.0,110,1,278,163,37,0,0,322,-20736,160,331,45.701614,4.911749,33.82,196.5,1,3.9967,0,0.0,3.3417,2,0.32,14.7907
887463,1560683086834,2,2.28,1.88,3.35,1.77,3.1,1.27,-0.13,0.47,-2,-2,5,1.28,6030,7,84,33,28,919,329.0,506,461,60,123.0,110,1,278,163,37,0,0,322,165,155,328,,,,,,,,,,,,
887483,1560683086854,4,2.29,1.88,3.35,1.78,3.09,1.35,-0.09,0.56,-2,-6,4,1.35,5990,7,84,33,29,924,326.0,507,461,60,122.0,110,1,280,164,37,0,0,320,-23296,155,326,,,,,,,,,,,,
887503,1560683086874,2,2.3,1.89,3.37,1.78,3.15,1.41,-0.08,0.68,-1,-9,3,1.42,5944,7,84,33,29,929,325.0,506,461,60,123.0,110,1,279,164,37,0,0,316,155,145,323,,,,,,,,,,,,
887523,1560683086900,2,2.3,1.88,3.41,1.79,3.18,1.48,-0.09,0.78,-2,-11,2,1.48,5877,7,84,33,29,930,322.0,501,462,60,122.0,111,1,278,163,36,0,0,312,150,-32256,322,,,,,,,,,,,,
887543,1560683086920,7,2.29,1.88,3.38,1.78,3.16,1.53,-0.1,0.84,-4,-10,1,1.53,5801,7,84,33,29,930,320.0,497,458,60,122.0,111,1,278,163,36,0,0,314,-27136,-30976,321,45.701607,4.911758,32.61,196.5,1,3.9967,0,0.0,3.3433,2,0.32,14.7924
887563,1560683086940,2,2.3,1.87,3.32,1.77,3.14,1.53,-0.16,0.82,-6,-7,0,1.53,5760,7,84,33,30,931,320.0,495,458,60,121.0,111,1,279,164,36,0,0,312,-28416,125,320,,,,,,,,,,,,
887583,1560683086960,1,2.3,1.88,3.33,1.78,3.11,1.27,-0.24,0.72,-5,-4,-0,1.29,5721,7,84,33,30,933,318.0,492,458,60,120.0,111,1,279,164,36,0,0,310,140,-32256,318,,,,,,,,,,,,
887603,1560683086980,-1,2.31,1.88,3.33,1.77,3.11,1.07,-0.19,0.67,-2,-2,-0,1.09,5725,7,84,33,31,933,315.0,487,460,60,121.0,111,1,281,165,36,0,0,307,130,30720,315,,,,,,,,,,,,
887623,1560683086992,-1,2.31,1.87,3.32,1.78,3.11,1.11,-0.12,0.65,-0,-6,-1,1.12,5716,7,84,33,31,933,313.0,480,460,60,123.0,111,1,281,165,35,0,0,307,130,28160,313,,,,,,,,,,,,
887643,1560683087012,5,2.29,1.88,3.33,1.78,3.12,1.21,-0.04,0.71,-1,-6,-1,1.21,5746,7,84,33,31,935,311.0,481,461,60,121.0,111,1,281,166,35,0,0,303,32000,29440,311,45.701603,4.911766,31.72,196.5,1,3.9967,0,0.0,3.345,2,0.32,14.7941
887663,1560683087032,3,2.29,1.88,3.33,1.8,3.12,1.29,-0.06,0.72,-3,-4,-0,1.29,5748,9,84,33,32,937,311.0,483,463,60,121.0,111,1,284,171,35,0,0,306,120,110,311,,,,,,,,,,,,
887683,1560683087052,2,2.3,1.88,3.34,1.81,3.13,1.09,-0.17,0.63,-4,0,0,1.1,5699,11,84,33,34,939,309.0,483,462,60,120.0,111,1,289,177,35,0,0,303,30720,105,309,,,,,,,,,,,,
887703,1560683087072,0,2.3,1.88,3.34,1.82,3.13,0.84,-0.18,0.5,-2,1,1,0.86,5637,15,84,33,36,939,308.0,477,462,60,121.0,111,1,295,182,35,0,0,299,115,105,308,,,,,,,,,,,,
887723,1560683087100,-1,2.29,1.88,3.31,1.82,3.1,0.94,-0.14,0.49,1,-4,2,0.95,5593,20,84,33,38,938,308.0,477,451,60,123.0,132,1,301,199,41,0,0,301,29440,100,308,,,,,,,,,,,,
887743,1560683087120,4,2.29,1.88,3.28,1.83,3.09,1.05,-0.04,0.55,-1,-4,2,1.05,5612,23,84,33,42,937,306.0,481,457,60,121.0,132,1,318,210,41,0,0,300,110,105,306,45.701599,4.911775,30.65,196.5,1,3.9967,0,0.0,3.3467,2,0.32,14.7957
887763,1560683087140,-0,2.3,1.88,3.26,1.82,3.08,0.99,-0.17,0.57,-3,-0,2,1.0,5662,25,84,33,46,936,304.0,477,468,60,121.0,132,1,336,215,41,0,0,299,105,25600,304,,,,,,,,,,,,
887783,1560683087160,1,2.3,1.87,3.28,1.81,3.1,0.69,-0.28,0.52,-1,3,3,0.74,5726,27,84,33,50,933,302.0,475,467,60,122.0,132,1,350,227,41,0,0,297,26880,90,302,,,,,,,,,,,,
887803,1560683087180,0,2.3,1.88,3.28,1.81,3.1,0.48,-0.22,0.5,2,4,4,0.53,5813,28,84,33,52,923,304.0,479,458,60,122.0,132,1,361,243,41,0,0,297,100,26880,304,,,,,,,,,,,,
887823,1560683087200,-1,2.3,1.88,3.27,1.83,3.09,0.45,-0.16,0.49,4,-0,4,0.47,5885,28,84,33,55,907,304.0,487,459,60,122.0,184,1,374,255,56,0,0,298,100,100,304,,,,,,,,,,,,
887843,1560683087220,0,2.29,1.9,3.27,1.85,3.07,0.47,-0.16,0.54,7,-4,4,0.5,5965,28,84,33,56,895,302.0,488,451,60,123.0,184,1,380,255,56,0,0,298,100,26880,302,45.701592,4.911783,30.03,196.5,1,3.9967,0,0.0,3.3483,2,0.32,14.7974
887863,1560683087240,1,2.31,1.91,3.27,1.85,3.06,0.48,-0.15,0.54,9,-7,4,0.5,6065,29,84,33,58,883,302.0,496,451,60,123.0,184,1,384,255,56,0,0,299,25600,26880,302,,,,,,,,,,,,
887883,1560683087260,4,2.31,1.92,3.28,1.86,3.06,0.3,-0.17,0.55,11,-8,4,0.34,6167,29,84,33,58,872,302.0,505,456,60,121.0,184,1,386,257,56,0,0,299,95,95,302,,,,,,,,,,,,
887903,1560683087280,5,2.31,1.92,3.27,1.87,3.06,0.11,-0.25,0.51,12,-6,2,0.27,6225,29,84,33,59,864,301.0,512,460,60,121.0,184,1,388,258,56,0,0,294,25600,95,301,,,,,,,,,,,,
887923,1560683087300,2,2.32,1.91,3.27,1.88,3.06,-0.07,-0.2,0.42,11,-3,2,0.22,6241,29,84,33,59,861,300.0,520,463,60,120.0,198,1,389,259,60,0,0,296,95,95,300,,,,,,,,,,,,
887943,1560683087320,1,2.31,1.91,3.26,1.9,3.05,-0.1,-0.18,0.41,9,3,3,0.21,6175,29,84,33,59,867,302.0,517,460,60,122.0,198,1,387,257,60,0,0,302,25600,110,302,45.701588,4.911791,29.66,196.5,1,3.9967,0,0.0,3.35,2,0.32,14.7991
887963,1560683087340,5,2.32,1.96,3.22,1.96,3.0,0.04,-0.18,0.39,7,6,3,0.19,5954,29,84,33,60,876,305.0,512,463,60,120.0,198,1,378,251,60,0,0,311,28160,-28416,305,,,,,,,,,,,,
887983,1560683087360,2,2.33,2.0,3.14,2.02,2.92,-0.05,-0.26,0.5,5,7,3,0.26,5693,30,84,33,61,891,309.0,491,461,60,121.0,198,1,354,253,60,0,0,310,29440,-30976,309,,,,,,,,,,,,
888003,1560683087380,-0,2.32,2.01,3.14,2.02,2.91,-0.16,-0.25,0.49,7,8,2,0.3,5550,30,84,33,63,905,311.0,472,458,60,122.0,198,1,337,273,60,0,0,308,115,-29696,311,,,,,,,,,,,,
888023,1560683087400,5,2.32,2.01,3.14,2.01,2.91,0.05,-0.07,0.47,7,3,3,0.09,5461,30,84,33,65,915,311.0,459,450,60,123.0,186,1,326,289,58,0,0,307,115,-32256,312,,,,,,,,,,,,
888043,1560683087420,1,2.33,2.01,3.19,2.02,2.93,0.12,-0.14,0.52,4,5,3,0.19,5524,30,84,33,66,935,311.0,453,456,60,120.0,186,1,328,296,58,0,0,303,29440,115,311,45.70158,4.911799,29.94,196.5,1,3.9967,0,0.0,3.3517,2,0.32,14.8007
888063,1560683087440,-1,2.33,2.02,3.27,2.03,2.98,0.02,-0.24,0.5,5,6,3,0.24,5573,30,84,33,67,986,310.0,453,467,60,121.0,186,1,329,304,58,0,0,303,110,32000,310,,,,,,,,,,,,
888083,1560683087460,-2,2.35,2.0,3.34,2.02,3.01,0.09,-0.23,0.48,8,2,3,0.24,5673,30,84,33,68,1035,310.0,457,464,60,123.0,186,1,333,302,58,0,0,301,28160,115,310,,,,,,,,,,,,
888103,1560683087480,-1,2.35,1.99,3.38,2.01,3.02,0.28,-0.17,0.51,9,0,4,0.33,5790,30,84,33,67,1078,311.0,468,455,60,121.0,186,1,345,301,58,0,0,304,28160,29440,311,,,,,,,,,,,,
888123,1560683087500,1,2.37,1.99,3.36,2.02,3.0,0.45,-0.12,0.52,8,-1,5,0.47,5857,30,84,33,67,1123,312.0,474,458,60,122.0,211,1,350,300,66,0,0,305,29440,120,313,,,,,,,,,,,,
888143,1560683087520,-1,2.39,1.98,3.36,2.03,2.98,0.58,-0.11,0.55,6,-1,5,0.59,5986,30,84,33,66,1184,313.0,482,456,60,121.0,211,1,363,290,66,0,0,305,115,130,313,45.701576,4.911807,30.68,196.6,1,3.9967,0,0.0,3.3533,2,0.32,14.8024
888163,1560683087540,1,2.4,1.98,3.33,2.03,2.92,0.7,-0.16,0.55,5,-0,7,0.72,6048,30,84,33,65,1244,314.0,493,453,60,121.0,211,1,370,282,66,0,0,306,29440,140,314,,,,,,,,,,,,
888183,1560683087560,-0,2.4,1.97,3.29,2.03,2.86,0.83,-0.21,0.56,5,-2,8,0.86,6040,30,84,33,65,1262,318.0,498,454,60,123.0,211,1,369,282,66,0,0,308,115,150,318,,,,,,,,,,,,
888203,1560683087580,-0,2.41,1.99,3.26,2.06,2.82,0.95,-0.21,0.56,5,-2,9,0.97,5909,30,84,33,65,1280,319.0,496,453,60,122.0,211,1,361,282,66,0,0,314,115,145,319,,,,,,,,,,,,
888223,1560683087600,5,2.4,1.99,3.25,2.07,2.81,1.05,-0.18,0.56,3,-3,10,1.07,5813,30,84,33,65,1280,319.0,483,454,60,122.0,196,1,353,284,63,0,0,314,120,145,319,,,,,,,,,,,,
888243,1560683087620,4,2.4,1.98,3.34,2.07,2.85,0.97,-0.21,0.52,2,-2,10,0.99,5763,30,84,33,65,1278,321.0,480,462,60,121.0,196,1,349,285,63,0,0,318,120,-25856,321,45.701572,4.911815,30.33,196.6,1,3.9967,0,0.0,3.355,2,0.32,14.8041
888263,1560683087640,4,2.39,1.99,3.4,2.07,2.86,0.8,-0.37,0.52,2,1,11,0.88,5815,30,84,33,66,1262,322.0,480,459,60,120.0,196,1,350,292,63,0,0,324,32000,-25856,322,,,,,,,,,,,,
888283,1560683087660,3,2.39,1.99,3.39,2.08,2.9,0.66,-0.44,0.46,4,3,12,0.79,5848,30,84,33,66,1242,323.0,482,462,60,121.0,196,1,353,292,63,0,0,309,125,145,323,,,,,,,,,,,,
888303,1560683087680,3,2.39,2.0,3.39,2.07,2.93,0.52,-0.41,0.56,7,2,11,0.66,5958,30,84,33,66,1227,322.0,483,462,60,121.0,196,1,361,290,63,0,0,310,120,155,322,,,,,,,,,,,,
888323,1560683087699,3,2.39,2.0,3.37,2.07,2.91,0.39,-0.4,0.65,9,2,10,0.55,6058,30,84,33,65,1212,324.0,490,463,60,121.0,198,1,370,282,64,0,0,311,-32256,160,324,,,,,,,,,,,,
888343,1560683087719,4,2.39,2.02,3.34,2.09,2.9,0.29,-0.41,0.71,9,2,9,0.51,6099,30,84,33,65,1212,324.0,502,461,60,121.0,198,1,372,284,64,0,0,319,125,170,324,45.701565,4.911822,31.29,196.6,1,3.9967,0,0.0,3.3567,2,0.32,14.8057
888363,1560683087739,2,2.39,2.01,3.29,2.09,2.88,0.18,-0.44,0.77,9,3,9,0.48,6050,30,84,33,64,1216,326.0,505,461,60,120.0,198,1,373,283,64,0,0,318,-32256,165,326,,,,,,,,,,,,
888383,1560683087759,4,2.39,1.99,3.28,2.07,2.87,0.08,-0.45,0.76,10,5,8,0.46,6007,30,84,33,64,1225,327.0,492,461,60,120.0,198,1,372,281,64,0,0,319,-30976,-22016,327,,,,,,,,,,,,
888403,1560683087779,5,2.39,1.98,3.27,2.06,2.87,-0.03,-0.4,0.75,10,6,9,0.4,6009,30,84,33,65,1236,329.0,492,465,60,121.0,198,1,368,281,64,0,0,320,-29696,-20736,329,,,,,,,,,,,,
888423,1560683087799,4,2.38,1.99,3.26,2.07,2.85,-0.12,-0.37,0.7,10,7,9,0.39,5950,30,84,33,65,1244,329.0,488,458,60,120.0,192,1,363,282,63,0,0,321,140,165,329,,,,,,,,,,,,
888443,1560683087819,3,2.39,1.99,3.27,2.06,2.9,-0.22,-0.35,0.64,10,7,9,0.42,5986,30,84,33,65,1250,330.0,491,464,60,121.0,192,1,366,282,63,0,0,320,140,-20736,330,45.701557,4.91183,31.47,196.6,1,3.9967,0,0.0,3.3583,2,0.32,14.8074
888463,1560683087839,4,2.38,1.98,3.31,2.07,2.93,-0.27,-0.36,0.66,9,8,9,0.45,6000,30,84,33,64,1254,330.0,499,461,60,120.0,192,1,370,281,63,0,0,320,140,-22016,330,,,,,,,,,,,,
888483,1560683087859,3,2.4,1.98,3.34,2.07,2.94,-0.33,-0.32,0.64,9,11,10,0.46,6071,30,84,33,65,1257,331.0,494,463,60,120.0,192,1,371,283,63,0,0,323,-28416,165,331,,,,,,,,,,,,
888503,1560683087879,4,2.38,2.0,3.36,2.1,2.94,-0.36,-0.25,0.54,9,11,10,0.44,6121,30,84,33,65,1256,332.0,495,464,60,120.0,192,1,373,285,63,0,0,323,145,-20736,332,,,,,,,,,,,,
888523,1560683087899,1,2.39,2.0,3.4,2.13,2.96,-0.33,-0.2,0.44,8,11,11,0.38,6157,30,84,33,64,1254,333.0,505,456,60,121.0,192,1,377,278,64,0,0,326,145,4838,332,,,,,,,,,,,,
888543,1560683087919,-0,2.39,2.0,3.38,2.14,2.91,-0.18,-0.15,0.35,7,11,12,0.24,6179,31,84,33,64,1256,333.0,506,457,60,121.0,192,1,378,278,64,0,0,328,150,-12032,333,45.701553,4.911837,32.45,196.6,1,3.9967,0,0.0,3.36,2,0.32,14.809
888563,1560683087939,-0,2.38,2.0,3.33,2.12,2.86,-0.01,-0.19,0.35,7,9,13,0.2,6175,31,84,33,64,1260,334.0,510,455,60,121.0,192,1,378,278,64,0,0,323,-25856,-12032,334,,,,,,,,,,,,
888583,1560683087959,-2,2.39,2.0,3.3,2.1,2.85,0.19,-0.23,0.4,7,6,13,0.3,6151,31,84,33,64,1265,335.0,512,458,60,122.0,192,1,377,278,64,0,0,325,-25856,3346,335,,,,,,,,,,,,
888603,1560683087979,1,2.37,1.99,3.31,2.09,2.86,0.34,-0.29,0.48,9,2,12,0.44,6153,31,84,33,64,1271,335.0,509,461,60,122.0,192,1,377,278,64,0,0,327,155,-31222,335,,,,,,,,,,,,
888623,1560683087994,2,2.36,1.99,3.31,2.08,2.85,0.39,-0.31,0.63,10,-1,10,0.5,6188,31,84,33,64,1275,336.0,507,466,60,122.0,193,1,379,279,65,0,0,329,160,3346,336,,,,,,,,,,,,
888643,1560683088014,3,2.36,2.0,3.3,2.07,2.85,0.26,-0.26,0.72,11,0,8,0.36,6254,31,84,33,64,1277,337.0,513,470,60,121.0,193,1,381,280,65,0,0,331,160,13,337,45.701546,4.911843,32.12,196.6,1,3.9967,0,0.0,3.3617,2,0.32,14.8107
888663,1560683088034,4,2.34,2.0,3.3,2.08,2.9,0.2,-0.15,0.73,10,2,6,0.25,6241,31,84,33,64,1278,337.0,517,465,60,120.0,193,1,381,281,65,0,0,329,165,13,337,,,,,,,,,,,,
888683,1560683088054,1,2.33,2.0,3.32,2.08,2.95,0.16,-0.03,0.66,9,5,6,0.16,6196,29,84,33,63,1275,337.0,514,459,60,121.0,193,1,382,279,65,0,0,331,-20736,-6528,337,,,,,,,,,,,,
888703,1560683088074,-1,2.32,2.04,3.32,2.08,2.94,0.27,-0.04,0.69,7,4,5,0.28,6250,26,84,33,63,1273,337.0,512,460,60,121.0,193,1,384,275,65,0,0,333,-20736,2560,337,,,,,,,,,,,,
888723,1560683088099,1,2.31,2.05,3.3,2.07,2.94,0.45,-0.13,0.78,6,1,3,0.47,6277,25,84,33,61,1271,337.0,511,458,60,122.0,186,1,392,261,63,0,0,334,175,-122,337,,,,,,,,,,,,
888743,1560683088119,2,2.31,2.08,3.26,2.06,2.96,0.52,-0.17,0.8,7,-1,2,0.55,6319,23,84,33,60,1269,337.0,514,459,60,122.0,186,1,392,262,63,0,0,333,-12032,13,337,45.701538,4.91185,32.82,196.6,1,3.9967,0,0.0,3.3633,2,0.32,14.8124
888763,1560683088139,5,2.31,2.09,3.25,2.06,2.95,0.44,-0.15,0.75,8,0,4,0.47,6347,23,84,33,58,1270,336.0,522,460,60,121.0,186,1,391,262,63,0,0,335,-12032,2560,336,,,,,,,,,,,,
888783,1560683088159,0,2.3,2.1,3.25,2.06,2.95,0.33,-0.07,0.61,8,4,5,0.34,6379,23,84,33,57,1271,336.0,521,460,60,121.0,186,1,390,261,63,0,0,336,4838,-122,336,,,,,,,,,,,,
888803,1560683088179,1,2.31,2.08,3.25,2.04,2.94,0.48,-0.2,0.71,6,1,6,0.52,6381,22,84,33,55,1274,339.0,522,460,60,123.0,186,1,387,260,63,0,0,342,3346,6668,339,,,,,,,,,,,,
888823,1560683088199,2,2.31,2.09,3.24,2.03,2.94,0.61,-0.23,0.76,6,-1,7,0.65,6375,22,84,33,55,1275,340.0,523,462,60,122.0,183,1,387,259,62,0,0,341,2560,-122,340,,,,,,,,,,,,
888843,1560683088219,3,2.3,2.08,3.22,2.04,2.92,0.56,-0.18,0.75,6,-1,9,0.59,6379,22,84,33,54,1277,341.0,523,460,60,120.0,183,1,386,258,62,0,0,344,-122,6668,341,45.701534,4.911857,33.11,196.6,1,3.9967,0,0.0,3.365,2,0.32,14.814
888863,1560683088239,0,2.3,2.07,3.22,2.02,2.94,0.45,-0.1,0.62,6,4,10,0.47,6384,22,84,33,53,1278,342.0,522,456,60,121.0,183,1,382,252,62,0,0,344,-122,-30438,342,,,,,,,,,,,,
888883,1560683088259,2,2.29,2.07,3.21,2.02,2.93,0.54,-0.15,0.67,5,4,10,0.56,6399,21,84,33,52,1272,343.0,524,460,60,122.0,183,1,379,246,62,0,0,344,6668,-30438,344,,,,,,,,,,,,
888903,1560683088279,5,2.3,2.06,3.21,2.01,2.95,0.65,-0.18,0.73,5,2,11,0.67,6412,21,84,33,52,1263,345.0,529,462,60,121.0,183,1,379,241,62,0,0,344,-14714,-30438,345,,,,,,,,,,,,
888923,1560683088299,2,2.29,2.07,3.22,2.01,2.97,0.68,-0.1,0.69,5,3,11,0.68,6427,20,84,33,51,1251,345.0,526,467,60,121.0,167,1,376,241,58,0,0,344,-14714,-10554,345,,,,,,,,,,,,
888943,1560683088319,0,2.3,2.07,3.25,2.0,2.98,0.6,-0.08,0.65,5,4,11,0.6,6423,19,84,33,50,1236,345.0,531,458,60,121.0,167,1,373,236,58,0,0,343,-31206,-14714,345,45.701527,4.911863,33.57,196.6,1,3.9967,0,0.0,3.3667,2,0.32,14.8157
888963,1560683088339,5,2.31,2.09,3.26,2.01,2.96,0.65,-0.12,0.75,5,4,9,0.66,6441,18,84,33,49,1200,345.0,534,456,60,122.0,167,1,370,230,58,0,0,346,-10554,-30438,345,,,,,,,,,,,,
888983,1560683088359,5,2.31,2.11,3.26,2.02,2.95,0.66,-0.08,0.81,5,2,7,0.67,6445,17,84,33,47,1162,345.0,535,463,60,121.0,167,1,364,220,58,0,0,347,-14714,-31206,345,,,,,,,,,,,,
889003,1560683088379,3,2.3,2.11,3.26,2.02,2.95,0.65,-0.04,0.78,4,2,4,0.66,6425,16,84,33,46,1135,345.0,536,460,60,122.0,167,1,357,218,58,0,0,345,-14714,6668,345,,,,,,,,,,,,
889023,1560683088401,4,2.3,2.11,3.25,2.03,2.95,0.69,-0.06,0.77,3,1,2,0.7,6410,15,84,33,45,1110,344.0,537,457,60,122.0,151,1,350,217,52,0,0,344,-14714,8841,344,,,,,,,,,,,,
889043,1560683088421,5,2.3,2.11,3.24,2.01,2.94,0.72,-0.07,0.78,4,-1,-1,0.72,6375,15,84,33,43,1070,343.0,541,456,60,122.0,151,1,336,213,52,0,0,344,-31206,6870,343,45.701519,4.91187,33.87,196.6,1,3.9967,0,0.0,3.3683,2,0.32,14.8174
889063,1560683088441,9,2.3,2.09,3.25,1.97,2.96,0.67,-0.16,0.76,4,-2,-2,0.68,6330,14,84,33,43,1028,342.0,532,461,60,122.0,151,1,336,213,52,0,0,341,6668,-14714,342,,,,,,,,,,,,
889083,1560683088461,10,2.3,2.08,3.27,1.96,2.97,0.64,-0.12,0.65,4,-0,-1,0.65,6216,14,84,33,42,1012,341.0,527,469,60,121.0,151,1,329,212,52,0,0,336,3327,3327,341,,,,,,,,,,,,
889103,1560683088481,6,2.29,2.07,3.27,1.96,3.0,0.61,-0.05,0.52,2,2,2,0.61,6137,13,84,33,41,1000,341.0,521,467,60,120.0,151,1,322,210,52,0,0,337,3327,-31222,339,,,,,,,,,,,,
889123,1560683088501,6,2.29,2.06,3.27,1.95,3.03,0.6,0.0,0.42,0,4,3,0.6,6093,13,84,33,40,978,339.0,517,466,60,120.0,142,1,316,209,48,0,0,332,13,2560,339,,,,,,,,,,,,
889143,1560683088521,7,2.29,2.05,3.3,1.93,3.07,0.66,0.04,0.34,-1,3,3,0.66,6027,13,84,33,39,955,338.0,517,460,60,122.0,142,1,310,209,48,0,0,332,4838,4838,338,45.701511,4.911876,34.18,196.6,1,3.9967,0,0.0,3.37,2,0.33,14.819
889163,1560683088541,7,2.29,2.03,3.34,1.93,3.1,0.74,0.06,0.26,-2,4,4,0.74,5969,13,84,33,39,943,337.0,512,458,60,121.0,142,1,309,207,48,0,0,331,-32559,-32559,337,,,,,,,,,,,,
889183,1560683088561,10,2.3,2.01,3.38,1.93,3.12,0.73,0.06,0.18,-5,4,6,0.73,5864,13,84,33,39,936,335.0,503,461,60,122.0,142,1,308,207,48,0,0,325,-32559,4838,335,,,,,,,,,,,,
889203,1560683088581,6,2.31,2.01,3.36,1.94,3.17,0.55,-0.06,0.15,-7,8,7,0.55,5746,13,84,33,39,917,333.0,496,464,60,121.0,142,1,307,206,48,0,0,326,-20736,-20736,334,,,,,,,,,,,,
889223,1560683088601,5,2.31,2.0,3.34,1.94,3.19,0.31,-0.18,0.14,-5,11,7,0.36,5692,13,84,32,39,896,333.0,490,469,60,120.0,132,1,306,206,44,0,0,325,170,-20736,333,,,,,,,,,,,,
889243,1560683088621,6,2.3,2.0,3.32,1.92,3.17,0.48,-0.15,0.14,-2,8,7,0.5,5570,12,84,32,40,880,332.0,480,462,60,122.0,132,1,308,205,44,0,0,325,-22016,-12032,332,45.701504,4.911882,33.86,196.6,1,3.9967,0,0.0,3.3717,2,0.33,14.8207
889263,1560683088641,8,2.3,1.98,3.33,1.91,3.13,0.61,-0.2,0.19,-2,5,6,0.64,5436,12,84,32,40,867,331.0,468,457,60,122.0,132,1,307,206,44,0,0,322,-23296,-22016,331,,,,,,,,,,,,
889283,1560683088661,6,2.29,1.97,3.37,1.92,3.1,0.59,-0.17,0.15,-1,5,6,0.62,5338,12,84,32,41,854,329.0,458,462,60,122.0,132,1,308,207,44,0,0,316,160,-24576,329,,,,,,,,,,,,
889303,1560683088681,8,2.29,1.95,3.39,1.89,3.12,0.73,-0.13,0.18,-0,2,5,0.75,5386,12,84,32,41,840,323.0,455,462,60,123.0,132,1,308,207,44,0,0,306,150,30720,323,,,,,,,,,,,,
889323,1560683088700,8,2.3,1.91,3.4,1.87,3.14,0.62,-0.19,0.16,-2,4,5,0.65,5547,12,84,32,42,834,318.0,459,457,60,121.0,133,1,316,209,43,0,0,289,-29696,0,318,,,,,,,,,,,,
889343,1560683088720,4,2.3,1.89,3.4,1.86,3.15,0.53,-0.14,0.15,0,6,5,0.55,5661,12,84,32,42,833,315.0,470,459,60,121.0,133,1,319,210,43,0,0,291,125,80,315,45.7015,4.911889,32.53,196.6,1,3.9967,0,0.0,3.3733,2,0.33,14.8224
889363,1560683088740,4,2.29,1.88,3.42,1.84,3.16,0.49,-0.11,0.1,2,6,5,0.5,5669,12,84,32,42,834,312.0,477,457,60,122.0,133,1,319,209,43,0,0,297,32000,95,312,,,,,,,,,,,,
889383,1560683088760,10,2.29,1.87,3.39,1.84,3.14,0.64,0.01,0.1,2,3,5,0.64,5644,12,84,32,41,837,310.0,477,460,60,122.0,133,1,314,209,43,0,0,300,30720,25600,310,,,,,,,,,,,,
889403,1560683088780,8,2.28,1.89,3.32,1.85,3.13,0.78,0.01,0.17,-1,5,5,0.78,5628,12,84,32,41,840,308.0,474,467,60,121.0,133,1,314,210,43,0,0,299,29440,26880,308,,,,,,,,,,,,
889423,1560683088801,6,2.27,1.89,3.27,1.84,3.12,0.56,-0.1,0.14,0,8,6,0.57,5613,12,84,32,41,846,303.0,472,464,60,121.0,143,1,314,209,44,0,0,301,28160,24320,303,,,,,,,,,,,,
889443,1560683088821,4,2.27,1.88,3.24,1.83,3.12,0.57,-0.09,0.1,3,4,6,0.58,5560,12,84,32,41,853,300.0,472,453,60,123.0,143,1,312,208,44,0,0,298,25600,90,300,45.701492,4.911894,30.88,196.6,1,3.9967,0,0.0,3.375,2,0.33,14.824
889463,1560683088841,7,2.26,1.88,3.26,1.84,3.12,0.72,0.01,0.16,1,3,5,0.72,5485,12,84,32,41,867,298.0,470,453,60,122.0,143,1,310,208,44,0,0,294,90,80,298,,,,,,,,,,,,
889483,1560683088861,5,2.26,1.88,3.29,1.84,3.15,0.54,-0.06,0.16,2,6,5,0.54,5453,12,84,32,42,882,296.0,457,470,60,122.0,143,1,313,209,44,0,0,291,85,0,294,,,,,,,,,,,,
889503,1560683088881,7,2.26,1.89,3.32,1.83,3.16,0.69,-0.03,0.15,2,2,5,0.69,5377,11,84,32,42,892,293.0,452,453,60,122.0,143,1,311,209,44,0,0,288,21760,0,293,,,,,,,,,,,,
889523,1560683088900,4,2.26,1.89,3.34,1.83,3.15,0.64,-0.09,0.14,1,5,3,0.64,5314,11,84,32,43,903,291.0,447,464,60,121.0,143,1,312,211,42,0,0,286,20480,41,290,,,,,,,,,,,,
889543,1560683088920,6,2.26,1.9,3.35,1.83,3.13,0.78,0.01,0.18,1,1,2,0.78,5268,11,84,32,43,914,289.0,440,462,60,123.0,143,1,310,211,42,0,0,285,0,250,289,45.701485,4.9119,29.72,196.6,1,3.9967,0,0.0,3.3767,2,0.33,14.8257
889563,1560683088940,3,2.25,1.9,3.34,1.82,3.1,0.7,-0.09,0.17,0,5,2,0.71,5259,11,84,32,44,925,288.0,441,457,60,121.0,143,1,312,212,42,0,0,282,41,1886,285,,,,,,,,,,,,
889583,1560683088960,7,2.24,1.91,3.32,1.81,3.09,0.81,0.08,0.14,1,1,1,0.82,5222,11,84,32,45,927,287.0,443,459,60,123.0,143,1,313,212,42,0,0,281,41,250,283,,,,,,,,,,,,
889603,1560683088980,4,2.24,1.92,3.32,1.79,3.08,0.65,-0.0,0.13,0,3,1,0.65,5165,11,84,32,45,928,285.0,437,463,60,121.0,143,1,310,214,42,0,0,278,-16896,250,281,,,,,,,,,,,,
889623,1560683088992,6,2.23,1.92,3.32,1.78,3.08,0.79,0.09,0.17,-1,1,-0,0.79,5135,11,84,32,45,927,283.0,436,450,60,122.0,147,1,309,216,41,0,0,275,-1529,250,278,,,,,,,,,,,,
889643,1560683089012,3,2.22,1.95,3.32,1.77,3.09,0.56,0.04,0.12,0,3,0,0.56,5178,11,84,32,46,925,281.0,436,462,60,121.0,147,1,312,216,41,0,0,277,250,2414,275,45.701477,4.911906,28.65,196.6,1,3.9967,0,0.0,3.3783,2,0.33,14.8274
889663,1560683089032,4,2.22,1.98,3.32,1.77,3.1,0.71,0.09,0.23,-1,0,-0,0.71,5162,11,84,32,46,922,278.0,437,453,60,122.0,147,1,311,216,41,0,0,274,630,-1281,274,,,,,,,,,,,,
889683,1560683089052,7,2.2,2.03,3.32,1.78,3.1,0.57,0.13,0.19,-0,-1,0,0.58,5121,11,84,32,47,919,278.0,432,465,60,123.0,147,1,311,218,41,0,0,272,630,-1,271,,,,,,,,,,,,
889703,1560683089072,2,2.21,2.06,3.32,1.78,3.1,0.6,0.08,0.23,-1,3,-1,0.61,5048,11,84,32,47,918,275.0,435,459,60,121.0,147,1,307,218,41,0,0,271,-1527,-1,269,,,,,,,,,,,,
889723,1560683089100,4,2.18,2.07,3.31,1.78,3.11,0.75,0.19,0.25,-2,-1,-1,0.77,5047,11,84,32,48,917,276.0,429,457,60,123.0,156,1,307,218,42,0,0,270,250,-1,268,,,,,,,,,,,,
889743,1560683089120,5,2.19,2.07,3.29,1.79,3.11,0.66,0.14,0.21,-2,-2,-0,0.67,4953,11,84,32,48,919,275.0,421,468,60,121.0,156,1,304,219,42,0,0,269,-1527,-1,266,45.701473,4.911911,27.63,196.6,1,3.9967,0,0.0,3.38,2,0.33,14.8291
889763,1560683089140,2,2.18,2.07,3.28,1.79,3.13,0.59,0.09,0.21,-3,2,-1,0.6,4885,11,84,32,49,919,273.0,420,460,60,121.0,156,1,302,221,42,0,0,270,28160,-1,264,,,,,,,,,,,,
889783,1560683089160,1,2.16,2.07,3.26,1.78,3.15,0.73,0.16,0.34,-4,-1,-2,0.75,4909,11,84,32,49,914,272.0,407,455,60,122.0,156,1,302,222,42,0,0,268,250,-1,263,,,,,,,,,,,,
889803,1560683089180,3,2.16,2.05,3.23,1.78,3.17,0.74,0.21,0.33,-3,-4,-3,0.77,4876,11,84,32,50,909,271.0,407,462,60,123.0,156,1,301,221,42,0,0,265,-1,506,262,,,,,,,,,,,,
889823,1560683089200,4,2.17,2.03,3.22,1.77,3.19,0.64,0.17,0.22,-3,-1,-3,0.66,4879,11,84,32,50,903,269.0,413,466,60,121.0,157,1,301,224,41,0,0,264,-1,-1281,261,,,,,,,,,,,,
889843,1560683089220,1,2.17,2.03,3.21,1.77,3.19,0.59,0.13,0.23,-4,-1,-3,0.6,4837,11,84,32,50,897,269.0,405,457,60,121.0,157,1,301,226,41,0,0,264,-1,-10440,260,45.701466,4.911916,26.92,196.6,1,3.9967,0,0.0,3.3817,2,0.33,14.8307
889863,1560683089240,1,2.16,2.02,3.19,1.78,3.2,0.7,0.14,0.31,-4,-1,-4,0.72,4836,11,84,32,51,892,267.0,403,456,60,122.0,157,1,300,226,41,0,0,264,-1,-1,258,,,,,,,,,,,,
889883,1560683089260,-1,2.16,2.03,3.2,1.79,3.2,0.82,0.2,0.33,-4,-3,-5,0.85,4838,11,84,32,51,888,265.0,401,463,60,123.0,157,1,300,226,41,0,0,263,-1,-1,258,,,,,,,,,,,,
889903,1560683089280,4,2.16,2.03,3.21,1.82,3.22,0.74,0.18,0.35,-4,-4,-5,0.76,4852,11,84,32,51,890,265.0,398,465,60,121.0,157,1,300,227,41,0,0,261,-1,-1,256,,,,,,,,,,,,
889923,1560683089300,-1,2.15,2.03,3.2,1.86,3.23,0.62,0.15,0.28,-4,1,-6,0.64,4834,11,84,32,51,892,262.0,407,462,60,120.0,160,1,300,229,41,0,0,259,-1,10818,254,,,,,,,,,,,,
889943,1560683089320,0,2.13,2.03,3.2,1.89,3.22,0.69,0.16,0.34,-6,0,-5,0.71,4816,11,84,32,51,893,264.0,403,452,60,122.0,160,1,300,229,41,0,0,260,-1,-1,253,45.701458,4.911921,26.35,196.6,1,3.9967,0,0.0,3.3833,2,0.33,14.8324
889963,1560683089340,-1,2.13,2.04,3.2,1.9,3.23,0.76,0.18,0.39,-7,-2,-5,0.78,4756,11,84,32,51,894,263.0,399,458,60,123.0,160,1,300,225,41,0,0,260,-1,10818,254,,,,,,,,,,,,
889983,1560683089360,-2,2.12,2.03,3.2,1.88,3.21,0.81,0.24,0.39,-7,-3,-7,0.84,4763,11,84,32,52,894,263.0,397,466,60,123.0,160,1,299,228,41,0,0,260,-1,10818,252,,,,,,,,,,,,
890003,1560683089380,1,2.11,2.02,3.19,1.86,3.22,0.84,0.23,0.45,-7,-5,-8,0.87,4711,11,84,32,52,893,263.0,394,461,60,123.0,160,1,299,228,41,0,0,262,-1,250,251,,,,,,,,,,,,
890023,1560683089400,3,2.1,2.03,3.17,1.83,3.21,0.76,0.2,0.41,-7,-1,-10,0.78,4712,11,84,32,52,895,263.0,393,459,60,121.0,159,1,299,228,40,0,0,259,-1,10812,250,,,,,,,,,,,,
890043,1560683089420,3,2.1,2.03,3.15,1.82,3.21,0.72,0.22,0.32,-8,0,-11,0.75,4738,11,85,32,52,897,263.0,391,460,60,120.0,159,1,299,228,40,0,0,260,-1,250,249,45.701454,4.911926,25.62,196.6,1,3.9967,0,0.0,3.385,2,0.33,14.8341
890063,1560683089440,-2,2.11,2.04,3.14,1.83,3.2,0.73,0.18,0.35,-9,2,-11,0.75,4706,11,85,32,52,899,263.0,392,457,60,120.0,159,1,299,228,40,0,0,257,-1,-1445,248,,,,,,,,,,,,
890083,1560683089460,-0,2.09,2.05,3.14,1.83,3.19,0.84,0.12,0.41,-9,1,-12,0.85,4715,11,84,32,52,901,262.0,393,460,60,122.0,159,1,299,228,40,0,0,258,-1,15360,246,,,,,,,,,,,,
890103,1560683089480,-1,2.09,2.05,3.14,1.82,3.19,0.9,0.14,0.5,-10,-2,-12,0.91,4687,11,84,32,52,900,261.0,393,461,60,123.0,159,1,299,227,40,0,0,257,-1,23482,245,,,,,,,,,,,,
890123,1560683089500,-2,2.09,2.06,3.15,1.83,3.19,0.99,0.16,0.47,-10,-3,-11,1.0,4682,11,85,32,52,899,262.0,388,459,60,123.0,163,1,299,227,40,0,0,259,-1,23482,244,,,,,,,,,,,,
890143,1560683089520,0,2.09,2.06,3.18,1.82,3.2,1.02,0.21,0.5,-10,-4,-10,1.04,4671,11,85,32,52,897,261.0,386,464,60,123.0,163,1,299,227,40,0,0,257,-1,-17920,243,45.70145,4.911931,25.11,196.6,1,3.9967,0,0.0,3.3867,2,0.33,14.8357
890163,1560683089540,0,2.09,2.08,3.2,1.81,3.2,0.99,0.24,0.51,-10,-2,-11,1.02,4663,11,85,32,53,895,262.0,384,471,60,123.0,163,1,299,227,40,0,0,255,-1,-17920,242,,,,,,,,,,,,
890183,1560683089560,2,2.09,2.11,3.2,1.81,3.18,0.96,0.23,0.48,-11,-1,-12,0.99,4665,11,85,32,53,891,262.0,387,465,60,122.0,163,1,299,230,40,0,0,256,-1,-17920,242,,,,,,,,,,,,
890203,1560683089580,5,2.08,2.16,3.19,1.81,3.17,0.87,0.24,0.44,-11,1,-12,0.9,4646,11,85,32,53,887,262.0,389,460,60,120.0,163,1,299,230,40,0,0,257,-1,-1484,241,,,,,,,,,,,,
890223,1560683089601,5,2.08,2.19,3.17,1.81,3.14,0.83,0.24,0.35,-11,3,-12,0.86,4636,11,85,32,52,885,261.0,381,456,60,121.0,165,1,299,230,40,0,0,257,-1,-17920,241,,,,,,,,,,,,
890243,1560683089621,0,2.1,2.19,3.17,1.81,3.14,0.77,0.18,0.39,-11,4,-13,0.79,4596,11,85,32,52,883,259.0,384,448,60,122.0,165,1,299,226,40,0,0,256,-41,-25600,240,45.701443,4.911937,24.75,196.5,1,3.9967,0,0.0,3.3883,2,0.33,14.8374
890263,1560683089641,-2,2.1,2.19,3.18,1.81,3.14,0.76,0.13,0.42,-12,5,-14,0.77,4603,11,85,32,52,883,258.0,378,457,60,121.0,165,1,299,227,40,0,0,252,-10440,-25600,239,,,,,,,,,,,,
890283,1560683089661,-1,2.1,2.18,3.19,1.79,3.15,0.75,0.11,0.46,-13,5,-14,0.76,4553,11,85,32,52,883,258.0,376,458,60,122.0,165,1,298,226,40,0,0,253,-10440,250,239,,,,,,,,,,,,
890303,1560683089681,1,2.1,2.17,3.2,1.79,3.15,0.74,0.08,0.44,-13,6,-14,0.75,4544,11,85,32,52,885,258.0,375,458,60,122.0,165,1,298,225,40,0,0,253,-10440,-25600,238,,,,,,,,,,,,
890323,1560683089699,-0,2.11,2.17,3.19,1.8,3.14,0.72,0.06,0.48,-13,5,-14,0.72,4522,11,85,32,52,886,257.0,374,459,60,122.0,163,1,298,225,39,0,0,253,14337,250,238,,,,,,,,,,,,
890343,1560683089719,0,2.1,2.17,3.19,1.79,3.13,0.76,0.04,0.51,-14,6,-15,0.76,4534,11,85,32,52,889,255.0,373,455,60,122.0,163,1,298,225,39,0,0,252,-1281,13602,239,45.701439,4.911942,24.38,196.5,1,3.9967,0,0.0,3.39,2,0.33,14.8391
890363,1560683089739,-1,2.12,2.17,3.19,1.79,3.14,0.81,0.03,0.59,-14,4,-16,0.81,4556,11,85,32,52,893,255.0,374,452,60,122.0,163,1,298,226,39,0,0,249,-1281,250,237,,,,,,,,,,,,
890383,1560683089759,-2,2.13,2.16,3.19,1.79,3.12,0.84,0.01,0.64,-14,3,-16,0.84,4530,11,85,32,52,896,252.0,375,457,60,122.0,163,1,298,225,39,0,0,248,-1,250,236,,,,,,,,,,,,
890403,1560683089779,-0,2.12,2.15,3.2,1.78,3.13,0.87,0.0,0.68,-14,2,-17,0.87,4496,11,85,32,53,897,253.0,376,459,60,122.0,163,1,297,224,39,0,0,248,-1,250,237,,,,,,,,,,,,
890423,1560683089799,0,2.13,2.15,3.2,1.79,3.11,0.92,0.0,0.74,-14,1,-17,0.92,4545,11,85,32,52,899,252.0,373,456,60,122.0,165,1,298,225,39,0,0,247,-1,-1483,236,,,,,,,,,,,,
890443,1560683089819,-1,2.13,2.16,3.22,1.78,3.12,0.93,0.01,0.76,-14,0,-17,0.93,4483,11,85,32,53,901,251.0,376,460,60,123.0,165,1,297,224,39,0,0,248,-214,250,235,45.701435,4.911948,24.13,196.5,1,3.9967,0,0.0,3.3917,2,0.33,14.8407
890463,1560683089839,-2,2.15,2.16,3.22,1.78,3.11,0.94,0.01,0.76,-13,-0,-17,0.94,4493,11,85,32,52,901,251.0,370,456,60,123.0,165,1,297,224,39,0,0,246,-214,13602,234,,,,,,,,,,,,
890483,1560683089859,-0,2.15,2.17,3.24,1.79,3.11,0.94,-0.02,0.78,-13,-0,-16,0.94,4498,11,85,32,52,901,251.0,374,455,60,122.0,165,1,297,224,39,0,0,247,-214,13602,235,,,,,,,,,,,,
890503,1560683089879,0,2.17,2.16,3.23,1.79,3.11,0.97,-0.03,0.79,-13,0,-17,0.97,4480,11,85,32,52,901,250.0,373,459,60,123.0,165,1,297,224,39,0,0,244,10818,250,234,,,,,,,,,,,,
890523,1560683089899,0,2.19,2.15,3.24,1.79,3.08,0.98,-0.05,0.85,-13,-1,-17,0.98,4494,11,85,32,52,901,249.0,369,455,60,123.0,161,1,297,224,38,0,0,244,16896,250,234,,,,,,,,,,,,
890543,1560683089919,0,2.22,2.13,3.24,1.78,3.06,0.99,-0.1,0.85,-12,-0,-17,0.99,4486,11,85,32,52,902,248.0,370,455,60,123.0,161,1,297,224,38,0,0,245,-1494,8704,235,45.701431,4.911954,23.9,196.5,1,3.9967,0,0.0,3.3933,2,0.33,14.8424
890563,1560683089939,0,2.25,2.11,3.24,1.79,3.05,0.93,-0.14,0.87,-11,1,-17,0.94,4449,11,85,32,52,902,246.0,366,456,60,122.0,161,1,297,224,38,0,0,242,15360,13602,235,,,,,,,,,,,,
890583,1560683089959,-2,2.29,2.09,3.24,1.8,3.02,0.89,-0.22,0.89,-10,3,-16,0.92,4439,11,85,32,52,902,244.0,367,455,60,122.0,161,1,297,224,38,0,0,242,250,-1483,236,,,,,,,,,,,,
890603,1560683089979,-1,2.32,2.08,3.23,1.81,3.01,0.81,-0.32,0.85,-9,4,-15,0.88,4414,11,85,32,52,901,242.0,365,461,60,121.0,161,1,297,224,38,0,0,239,23482,-25600,237,,,,,,,,,,,,
890623,1560683089993,4,2.33,2.05,3.26,1.84,2.99,0.79,-0.35,0.79,-8,5,-13,0.86,4418,11,85,32,52,900,238.0,362,455,60,122.0,155,1,297,224,37,0,0,238,13468,-25600,238,,,,,,,,,,,,
890643,1560683090013,5,2.37,2.02,3.3,1.87,2.97,0.71,-0.38,0.75,-7,8,-10,0.81,4361,11,85,32,52,898,238.0,367,457,60,120.0,155,1,297,223,37,0,0,235,-25600,-25600,238,45.701427,4.911961,23.57,196.5,1,3.9967,0,0.0,3.395,2,0.33,14.8441
890663,1560683090033,1,2.4,2.0,3.33,1.9,2.97,0.65,-0.4,0.69,-5,10,-8,0.77,4383,11,85,32,52,895,239.0,356,457,60,120.0,155,1,297,223,37,0,0,230,13602,250,239,,,,,,,,,,,,
890683,1560683090053,1,2.43,1.97,3.34,1.92,2.98,0.61,-0.42,0.62,-3,9,-5,0.74,4437,11,85,32,52,889,240.0,364,458,60,121.0,155,1,297,224,37,0,0,230,-1494,-25600,240,,,,,,,,,,,,
890703,1560683090073,1,2.45,1.95,3.34,1.95,2.98,0.64,-0.42,0.55,-1,9,-2,0.77,4359,11,85,32,52,883,241.0,358,457,60,121.0,155,1,297,223,37,0,0,229,-1494,13468,241,,,,,,,,,,,,
890723,1560683090099,1,2.48,1.94,3.35,1.99,2.98,0.67,-0.43,0.54,0,6,0,0.79,4409,11,85,32,52,879,243.0,361,465,60,121.0,153,1,297,224,37,0,0,228,250,-25600,243,,,,,,,,,,,,
890743,1560683090119,-2,2.51,1.93,3.34,2.04,2.98,0.72,-0.49,0.51,2,1,3,0.87,4388,11,85,32,52,875,243.0,358,475,60,123.0,153,1,297,223,37,0,0,226,10318,-1484,243,45.70142,4.911966,23.36,196.4,1,3.9967,0,0.0,3.3967,2,0.33,14.8457
890763,1560683090139,-0,2.52,1.91,3.36,2.06,2.97,0.82,-0.49,0.51,4,-3,5,0.96,4323,11,85,32,52,871,244.0,355,465,60,123.0,153,1,297,223,37,0,0,223,250,-25600,244,,,,,,,,,,,,
890783,1560683090159,-1,2.55,1.9,3.36,2.09,2.97,0.94,-0.56,0.52,5,-5,8,1.09,4379,14,85,32,53,866,244.0,357,469,60,123.0,153,1,297,227,37,0,0,221,250,-17920,245,,,,,,,,,,,,
890803,1560683090179,0,2.56,1.88,3.36,2.1,2.96,0.95,-0.61,0.53,7,-5,9,1.13,4342,18,85,32,54,866,245.0,353,456,60,122.0,153,1,298,231,37,0,0,219,15360,13468,246,,,,,,,,,,,,
890823,1560683090201,1,2.58,1.87,3.36,2.13,2.96,0.93,-0.64,0.56,8,-5,10,1.12,4365,24,85,32,56,866,245.0,354,457,60,122.0,154,1,297,240,38,0,0,217,1210,-1484,245,,,,,,,,,,,,
890843,1560683090221,-0,2.61,1.86,3.37,2.13,2.97,0.88,-0.68,0.58,10,-3,11,1.11,4484,30,85,32,60,868,246.0,355,452,60,122.0,154,1,294,260,38,0,0,214,1210,-1445,246,45.70142,4.911972,23.14,196.4,1,3.9967,0,0.0,3.3983,2,0.33,14.8474
890863,1560683090241,-1,2.63,1.86,3.39,2.14,2.96,0.89,-0.67,0.62,12,-3,12,1.11,4487,35,85,32,65,870,247.0,362,453,60,122.0,154,1,293,282,38,0,0,212,250,-1445,247,,,,,,,,,,,,
890883,1560683090261,-1,2.65,1.85,3.41,2.16,2.95,0.95,-0.67,0.66,14,-4,14,1.16,4663,38,85,32,69,872,247.0,369,452,60,121.0,154,1,289,314,38,0,0,212,1088,-17920,247,,,,,,,,,,,,
890903,1560683090281,2,2.67,1.86,3.44,2.17,2.94,0.96,-0.65,0.62,15,-7,17,1.16,4744,40,85,32,74,874,249.0,373,456,60,123.0,154,1,287,332,38,0,0,210,-1532,250,249,,,,,,,,,,,,
890923,1560683090301,5,2.68,1.85,3.47,2.17,2.92,0.91,-0.69,0.6,17,-5,19,1.14,4891,42,85,32,78,874,250.0,385,472,60,121.0,259,1,283,366,64,0,0,210,250,-17920,250,,,,,,,,,,,,
890943,1560683090321,0,2.7,1.85,3.48,2.18,2.88,0.84,-0.69,0.6,18,-6,22,1.08,5008,42,85,32,80,874,249.0,398,455,60,121.0,259,1,281,413,64,0,0,210,250,-1445,249,45.701416,4.911978,22.89,196.4,1,3.9967,0,0.0,3.4,2,0.33,14.849
890963,1560683090341,0,2.72,1.85,3.49,2.19,2.87,0.89,-0.68,0.66,20,-7,25,1.12,4960,43,85,32,82,871,250.0,403,456,60,123.0,259,1,282,424,64,0,0,217,250,-1494,250,,,,,,,,,,,,
890983,1560683090361,3,2.72,1.86,3.49,2.2,2.82,0.89,-0.68,0.68,21,-5,27,1.12,4854,43,85,32,83,869,253.0,401,468,60,122.0,259,1,284,447,64,0,0,269,1088,-214,253,,,,,,,,,,,,
891003,1560683090381,3,2.75,1.86,3.48,2.22,2.77,0.8,-0.71,0.75,22,-7,28,1.07,4810,43,85,32,85,869,256.0,391,459,60,121.0,259,1,284,452,64,0,0,279,250,-214,256,,,,,,,,,,,,
891023,1560683090401,-0,2.74,1.86,3.47,2.22,2.75,0.81,-0.76,0.74,23,-5,28,1.11,4893,44,85,32,86,869,257.0,394,457,60,121.0,328,1,283,461,84,0,0,258,-17920,-1281,257,,,,,,,,,,,,
891043,1560683090421,-1,2.75,1.86,3.46,2.23,2.75,0.8,-0.76,0.68,24,-5,31,1.1,4856,44,85,32,86,872,261.0,393,458,60,123.0,328,1,284,459,84,0,0,231,1210,14337,261,45.701408,4.911983,23.07,196.4,1,3.9967,0,0.0,3.4017,2,0.33,14.8507
891063,1560683090441,3,2.76,1.87,3.47,2.23,2.75,0.76,-0.76,0.73,26,-5,33,1.07,4797,44,85,32,87,876,263.0,389,471,60,123.0,328,1,284,455,84,0,0,265,250,-1,263,,,,,,,,,,,,
891083,1560683090461,4,2.76,1.88,3.47,2.24,2.74,0.78,-0.73,0.71,27,-4,34,1.07,4806,44,85,32,87,905,266.0,388,471,60,122.0,328,1,284,461,84,0,0,279,1596,-1,266,,,,,,,,,,,,
891103,1560683090481,1,2.76,1.86,3.48,2.25,2.74,0.82,-0.74,0.77,28,-6,34,1.11,4875,44,85,32,87,944,267.0,387,461,60,121.0,328,1,283,465,84,0,0,262,250,-1,267,,,,,,,,,,,,
891123,1560683090501,-0,2.77,1.86,3.48,2.26,2.75,0.83,-0.74,0.77,29,-6,36,1.11,4939,44,85,32,87,981,269.0,392,453,60,122.0,322,1,282,469,86,0,0,248,250,-1,269,,,,,,,,,,,,
891143,1560683090521,3,2.78,1.86,3.48,2.25,2.76,0.77,-0.71,0.69,30,-4,38,1.05,5000,44,85,32,87,1015,272.0,399,462,60,123.0,322,1,280,473,86,0,0,269,10318,-1,272,45.701405,4.911987,23.7,196.4,1,3.9967,0,0.0,3.4033,2,0.33,14.8524
891163,1560683090541,0,2.79,1.86,3.47,2.28,2.74,0.76,-0.73,0.71,31,-5,40,1.06,5086,44,85,33,87,1054,275.0,404,467,60,121.0,322,1,284,473,86,0,0,264,19968,-1,275,,,,,,,,,,,,
891183,1560683090561,0,2.79,1.87,3.47,2.28,2.73,0.78,-0.73,0.71,32,-4,42,1.07,5132,44,85,33,86,1094,276.0,407,448,60,122.0,322,1,287,470,86,0,0,256,250,-1281,276,,,,,,,,,,,,
891203,1560683090581,-1,2.8,1.87,3.46,2.31,2.71,0.7,-0.8,0.73,33,-2,42,1.06,5178,44,85,33,86,1119,279.0,413,468,60,122.0,322,1,289,471,86,0,0,287,10824,28160,279,,,,,,,,,,,,
891223,1560683090601,1,2.81,1.87,3.47,2.31,2.72,0.78,-0.8,0.75,34,-4,42,1.12,5240,44,85,33,85,1124,281.0,419,450,60,122.0,329,1,293,468,92,0,0,294,10824,250,282,,,,,,,,,,,,
891243,1560683090621,-2,2.81,1.87,3.49,2.31,2.71,0.66,-0.87,0.73,35,-4,42,1.09,5308,44,85,33,85,1128,282.0,418,466,60,122.0,329,1,298,469,92,0,0,286,250,630,282,45.701401,4.911991,24.12,196.5,1,3.9967,0,0.0,3.405,2,0.33,14.854
891263,1560683090641,3,2.8,1.87,3.48,2.32,2.68,0.73,-0.8,0.75,36,-4,43,1.08,5417,44,85,33,84,1126,285.0,430,460,60,123.0,329,1,305,464,92,0,0,275,13602,24064,285,,,,,,,,,,,,
891283,1560683090661,1,2.81,1.87,3.49,2.32,2.69,0.7,-0.82,0.72,36,-4,44,1.08,5411,44,85,33,83,1125,287.0,436,456,60,120.0,329,1,306,464,92,0,0,285,250,10686,287,,,,,,,,,,,,
891303,1560683090681,-1,2.81,1.87,3.49,2.33,2.68,0.62,-0.86,0.71,38,-4,45,1.06,5484,43,85,33,82,1118,291.0,438,459,60,122.0,329,1,312,454,92,0,0,308,-1484,20480,292,,,,,,,,,,,,
891323,1560683090700,5,2.8,1.87,3.5,2.33,2.66,0.73,-0.81,0.69,39,-5,47,1.09,5628,41,85,33,81,1109,294.0,445,457,60,123.0,328,1,321,450,96,0,0,301,-17920,90,294,,,,,,,,,,,,
891343,1560683090720,3,2.81,1.88,3.5,2.34,2.62,0.75,-0.81,0.71,39,-4,49,1.1,5730,38,85,33,79,1101,298.0,458,457,60,122.0,328,1,328,438,96,0,0,294,23482,95,298,45.701393,4.911993,25.23,196.4,1,3.9967,0,0.0,3.4067,2,0.34,14.8557
891363,1560683090740,2,2.81,1.9,3.52,2.34,2.61,0.65,-0.86,0.69,38,-2,49,1.08,5788,35,85,33,77,1094,301.0,467,458,60,121.0,328,1,333,426,96,0,0,316,250,105,301,,,,,,,,,,,,
891383,1560683090760,2,2.81,1.93,3.53,2.34,2.6,0.51,-0.9,0.68,39,-2,50,1.03,5852,32,85,33,75,1092,306.0,470,457,60,121.0,328,1,340,409,96,0,0,320,10812,30720,306,,,,,,,,,,,,
891403,1560683090780,2,2.81,1.94,3.53,2.35,2.59,0.38,-0.97,0.66,40,-3,51,1.04,5852,30,86,33,72,1087,308.0,475,460,60,121.0,328,1,343,367,96,0,0,306,250,-27136,308,,,,,,,,,,,,
891423,1560683090800,1,2.82,1.93,3.55,2.35,2.59,0.38,-1.04,0.71,42,-5,52,1.11,5841,26,86,33,70,1075,310.0,476,457,60,122.0,253,1,344,337,78,0,0,311,-1,135,310,,,,,,,,,,,,
891443,1560683090820,-2,2.82,1.92,3.58,2.36,2.59,0.51,-1.04,0.74,45,-7,53,1.15,5804,24,86,33,67,1065,314.0,477,456,60,122.0,253,1,346,309,78,0,0,328,-1,-27136,314,45.701386,4.911995,26.77,196.5,1,3.9967,0,0.0,3.4083,2,0.34,14.8574
891463,1560683090840,-1,2.83,1.9,3.59,2.38,2.59,0.66,-1.03,0.74,47,-10,55,1.23,5771,24,86,33,65,1056,317.0,475,455,60,122.0,253,1,350,285,78,0,0,318,-1281,140,317,,,,,,,,,,,,
891483,1560683090860,3,2.83,1.88,3.6,2.38,2.6,0.8,-1.0,0.74,47,-12,56,1.28,5765,23,86,33,64,1043,319.0,473,457,60,122.0,253,1,352,277,78,0,0,303,14337,-25856,319,,,,,,,,,,,,
891503,1560683090880,4,2.82,1.86,3.62,2.38,2.6,0.8,-1.03,0.69,45,-10,57,1.3,5721,23,86,33,63,1016,321.0,471,462,60,122.0,253,1,352,270,78,0,0,309,-10440,145,321,,,,,,,,,,,,
891523,1560683090900,3,2.83,1.84,3.66,2.39,2.61,0.64,-1.11,0.68,45,-6,57,1.28,5732,23,86,32,62,989,320.0,468,465,60,120.0,174,1,356,262,56,0,0,323,-1,-28416,319,,,,,,,,,,,,
891543,1560683090920,0,2.83,1.83,3.69,2.38,2.64,0.48,-1.19,0.61,46,-5,57,1.29,5748,23,86,32,61,971,318.0,470,468,60,121.0,174,1,359,254,56,0,0,317,-1,-30976,318,45.701378,4.911996,28.37,196.5,1,3.9967,0,0.0,3.41,2,0.34,14.859
891563,1560683090940,0,2.83,1.83,3.69,2.38,2.65,0.54,-1.21,0.59,47,-7,58,1.33,5735,23,86,32,60,950,318.0,469,461,60,122.0,174,1,359,253,56,0,0,305,-1,-30976,318,,,,,,,,,,,,
891583,1560683090960,-1,2.83,1.82,3.69,2.38,2.67,0.69,-1.22,0.63,49,-10,58,1.4,5804,23,86,32,60,914,318.0,476,453,60,122.0,174,1,365,253,56,0,0,297,-1,-32256,318,,,,,,,,,,,,
891603,1560683090980,1,2.83,1.79,3.69,2.38,2.67,0.82,-1.18,0.63,49,-12,58,1.43,5810,23,86,32,59,878,317.0,476,456,60,122.0,174,1,365,253,56,0,0,314,-1,-32256,318,,,,,,,,,,,,
891623,1560683090992,0,2.83,1.79,3.69,2.38,2.66,0.94,-1.12,0.53,47,-13,58,1.47,5916,23,86,32,58,860,317.0,482,454,60,122.0,176,1,375,253,56,0,0,322,-1,130,317,,,,,,,,,,,,
