"Interval"|"ms"|0|0|1,"Utc"|"ms"|0|0|1,"FB_p"|"bar"|0|300|50,"Volant"|"F"|0.0|300.0|50,"xFR"|"mm"|0.0|5.0|50,"xRR"|"mm"|0.0|5.0|50,"xFL"|"mm"|0.0|5.0|50,"xRL"|"mm"|0.0|5.0|50,"AccelX"|"G"|-3.0|3.0|50,"AccelY"|"G"|-3.0|3.0|50,"AccelZ"|"G"|-3.0|3.0|50,"Yaw"|"Deg/Sec"|-120|120|50,"Pitch"|"Deg/Sec"|-120|120|50,"Roll"|"Deg/Sec"|-120|120|50,"Gsum"|"G"|0.0|3.0|50,"RPM"|""|0|14000|50,"TPS"|"%"|0|100|50,"WaterTemp"|"?C"|0|300|50,"AirTemp"|"?C"|-1000|1000|50,"MAP"|"KPa"|0|255|50,"Lambda"|""|0|1024|50,"WheelSpeed"|"MPH"|0.0|150.0|50,"OilPress"|"PSI"|0|150|50,"FuelPress"|"PSI"|0|150|50,"OilTemp"|"F"|0|300|50,"Battery"|"Volts"|0.0|20.0|50,"FuelCon"|"L/h"|-1000|1000|50,"Gear"|""|0|10|50,"Advance"|"Deg"|-360|360|50,"Injection"|"ms"|-1000|1000|50,"FuelCon"|"L/100km"|-1000|1000|50,"LC_But_Pres"|""|-1000|1000|50,"LC_Active"|""|-1000|1000|50,"RD_Speed"|""|-1000|1000|50,"RUD_Speed"|""|-1000|1000|50,"LD_Speed"|""|-1000|1000|50,"LUD_Speed"|""|-1000|1000|50,"Latitude"|"Degrees"|-180.0|180.0|10,"Longitude"|"Degrees"|-180.0|180.0|10,"Speed"|"kph"|0.0|150.0|10,"Altitude"|"m"|0.0|4000.0|10,"LapCount"|""|0|0|10,"LapTime"|"Min"|0.0|0.0|10,"Sector"|""|0|0|10,"SectorTime"|"Min"|0.0|0.0|10,"ElapsedTime"|"Min"|0.0|0.0|10,"CurrentLap"|""|0|0|10,"Distance"|"km"|0.0|0.0|10,"SessionTime"|"Min"|0.0|0.0|10
245563,1560691517362,20,2.21,1.8,3.49,1.64,5.06,1.31,-0.04,-0.35,-4,-3,-1,1.31,5129,4,86,33,37,1037,550.0,371,461,60,119.0,91,1,292,221,50,0,0,239,-32248,-32256,532,,,,,,,,,,,,
245583,1560691517382,14,2.24,1.79,3.48,1.69,5.06,1.04,-0.14,-0.29,-6,4,-2,1.05,5043,4,86,33,37,1046,541.0,373,460,60,118.0,91,1,291,208,50,0,0,54,-8186,23040,530,,,,,,,,,,,,
245603,1560691517397,15,2.25,1.8,3.49,1.69,5.08,1.14,-0.11,-0.2,-8,1,-3,1.15,4966,4,86,33,37,1052,535.0,370,455,60,119.0,91,1,289,188,50,0,0,238,6274,85,521,,,,,,,,,,,,
245623,1560691517417,17,2.27,1.83,3.48,1.67,5.06,1.16,-0.02,-0.21,-6,-4,-3,1.16,4917,4,86,34,38,1054,528.0,364,468,60,120.0,91,1,290,194,50,0,0,244,-28648,80,515,,,,,,,,,,,,
245643,1560691517437,17,2.28,1.86,3.47,1.67,5.06,0.95,-0.05,-0.31,-6,3,-4,0.95,4879,4,86,34,39,1039,521.0,358,460,60,118.0,67,1,293,198,35,0,0,256,-9212,28160,508,45.700802,4.909643,56.23,203.0,2,1.435,0,0.0,0.0367,3,0.06,4.094
245663,1560691517457,14,2.28,1.86,3.48,1.65,5.05,1.04,-0.12,-0.28,-7,2,-6,1.05,4879,4,86,34,39,1007,511.0,360,460,60,117.0,67,1,293,198,35,0,0,273,-3856,-1445,502,,,,,,,,,,,,
245683,1560691517497,16,2.28,1.85,3.52,1.64,5.07,1.14,-0.05,-0.17,-8,-3,-7,1.14,4893,4,86,34,40,975,510.0,357,460,60,120.0,67,1,295,199,35,0,0,255,-4054,-1494,496,,,,,,,,,,,,
245703,1560691517517,17,2.28,1.85,3.55,1.62,5.08,1.19,0.06,-0.24,-6,-3,-6,1.2,4841,4,86,34,40,939,503.0,350,470,60,119.0,67,1,293,199,35,0,0,221,2109,250,493,,,,,,,,,,,,
245723,1560691517537,18,2.27,1.85,3.52,1.6,5.06,1.01,0.03,-0.27,-6,-2,-6,1.01,4783,4,86,34,41,904,501.0,352,468,60,118.0,67,1,292,199,35,0,0,218,11560,115,485,,,,,,,,,,,,
245743,1560691517557,15,2.28,1.88,3.52,1.61,5.04,0.91,-0.01,-0.24,-7,4,-7,0.92,4718,4,86,34,41,869,496.0,345,457,60,117.0,72,1,289,197,35,0,0,228,-6528,125,479,45.70081,4.909652,52.35,202.9,2,1.435,0,0.0,0.0383,3,0.06,4.0957
245763,1560691517577,15,2.28,1.87,3.5,1.62,5.03,0.98,-0.06,-0.23,-8,4,-9,0.98,4785,4,86,34,41,843,487.0,343,459,60,118.0,72,1,292,199,35,0,0,239,505,1886,471,,,,,,,,,,,,
245783,1560691517595,14,2.28,1.89,3.48,1.61,5.07,1.08,0.02,-0.15,-9,-0,-9,1.08,4847,4,86,34,41,843,478.0,347,459,60,119.0,72,1,294,201,35,0,0,249,16648,-17920,465,,,,,,,,,,,,
245803,1560691517615,16,2.28,1.93,3.46,1.62,5.03,1.18,0.13,-0.15,-8,-2,-9,1.18,4780,4,86,34,41,845,476.0,344,463,60,119.0,72,1,292,199,35,0,0,270,-17956,250,461,,,,,,,,,,,,
245823,1560691517635,17,2.29,1.93,3.44,1.62,5.08,1.12,0.13,-0.2,-7,-2,-9,1.13,4716,4,86,34,42,854,470.0,345,463,60,118.0,72,1,291,200,35,0,0,300,8488,-214,453,,,,,,,,,,,,
245843,1560691517655,14,2.32,1.92,3.44,1.61,5.04,1.03,0.12,-0.23,-6,1,-10,1.03,4785,4,86,34,42,863,463.0,342,458,60,118.0,77,1,293,200,35,0,0,268,6193,-1494,448,45.700825,4.909661,49.83,202.9,2,1.435,0,0.0,0.04,3,0.06,4.0974
245863,1560691517675,11,2.34,1.9,3.46,1.61,5.08,1.03,-0.0,-0.2,-8,3,-11,1.03,4858,4,86,34,42,873,459.0,348,456,60,117.0,77,1,296,204,35,0,0,247,-18108,250,443,,,,,,,,,,,,
245883,1560691517691,9,2.35,1.9,3.45,1.61,5.07,1.13,-0.05,-0.08,-9,-1,-11,1.13,4844,4,86,34,42,880,453.0,354,455,60,119.0,77,1,295,203,35,0,0,212,-8985,80,438,,,,,,,,,,,,
245903,1560691517711,10,2.38,1.91,3.44,1.62,5.04,1.22,-0.01,-0.08,-8,-1,-10,1.22,4797,4,86,34,42,881,449.0,350,460,60,120.0,77,1,293,201,35,0,0,247,15649,-24576,436,,,,,,,,,,,,
245923,1560691517731,10,2.4,1.91,3.45,1.62,5.07,1.11,-0.0,-0.12,-7,1,-10,1.11,4866,4,86,34,43,882,442.0,351,458,60,118.0,77,1,298,206,35,0,0,271,-28332,10686,429,,,,,,,,,,,,
245943,1560691517751,4,2.42,1.9,3.45,1.63,5.04,1.03,-0.07,-0.04,-7,4,-11,1.03,5012,4,86,34,43,873,433.0,354,458,60,118.0,88,1,302,210,38,0,0,289,243,10812,427,45.700832,4.909669,46.8,202.9,2,1.435,0,0.0,0.0417,3,0.06,4.0991
245963,1560691517771,4,2.42,1.89,3.46,1.65,5.04,1.13,-0.0,-0.03,-6,2,-10,1.13,5045,4,86,34,43,865,428.0,358,461,60,120.0,88,1,303,210,38,0,0,288,13180,-41,427,,,,,,,,,,,,
245983,1560691517791,3,2.42,1.9,3.46,1.7,5.06,0.97,0.03,-0.06,-4,1,-8,0.97,5111,4,86,34,43,854,426.0,369,460,60,118.0,88,1,306,210,38,0,0,263,3826,25600,426,,,,,,,,,,,,
246003,1560691517801,5,2.41,1.94,3.39,1.72,5.04,1.07,0.05,-0.06,-5,2,-7,1.07,5260,4,86,34,42,845,420.0,377,457,60,118.0,88,1,308,209,38,0,0,256,-21944,150,420,,,,,,,,,,,,
246023,1560691517821,2,2.42,1.95,3.36,1.71,5.04,0.95,0.07,-0.11,-2,4,-5,0.96,5384,4,86,34,42,842,417.0,379,464,60,118.0,88,1,311,209,38,0,0,330,10392,-16896,417,,,,,,,,,,,,
246043,1560691517841,2,2.39,1.97,3.36,1.72,5.04,1.06,0.12,-0.09,-1,0,-3,1.07,5526,4,86,34,41,841,412.0,390,452,60,119.0,101,1,312,208,42,0,0,352,11545,110,412,45.700844,4.909677,43.92,202.9,2,1.435,0,0.0,0.0433,3,0.06,4.1007
246063,1560691517861,5,2.4,1.95,3.36,1.69,5.04,1.12,0.11,-0.13,-1,0,-0,1.12,5627,4,86,34,41,846,408.0,408,458,60,118.0,101,1,314,209,42,0,0,328,-1818,-32559,408,,,,,,,,,,,,
246083,1560691517881,2,2.39,1.93,3.39,1.69,5.06,1.11,0.05,-0.09,0,1,2,1.11,5792,4,86,34,40,850,408.0,418,470,60,118.0,101,1,312,207,42,0,0,323,-6524,0,405,,,,,,,,,,,,
246103,1560691517897,4,2.38,1.94,3.41,1.73,5.05,1.03,-0.01,-0.03,3,2,4,1.03,5935,4,86,34,39,856,402.0,428,464,60,118.0,101,1,309,207,42,0,0,334,-19019,-14707,402,,,,,,,,,,,,
246123,1560691517917,3,2.37,1.93,3.4,1.72,5.05,0.91,0.04,-0.1,5,5,7,0.91,6123,4,86,34,37,862,399.0,435,462,60,118.0,101,1,304,196,42,0,0,364,-18948,3302,399,,,,,,,,,,,,
246143,1560691517937,-1,2.37,1.93,3.4,1.72,5.05,0.9,0.1,-0.15,6,7,9,0.91,6285,4,86,34,36,878,394.0,446,466,60,119.0,112,1,301,190,45,0,0,362,3,-14707,394,45.700851,4.909683,41.31,202.9,2,1.435,0,0.0,0.045,3,0.06,4.1024
246163,1560691517957,1,2.36,1.93,3.41,1.73,5.08,0.96,-0.06,-0.12,6,5,10,0.96,6485,4,86,34,34,896,391.0,455,456,60,119.0,112,1,295,179,45,0,0,358,-6656,-6458,391,,,,,,,,,,,,
246183,1560691517977,-1,2.36,1.94,3.43,1.79,5.04,0.87,-0.0,-0.16,8,9,11,0.87,6744,4,86,34,33,907,385.0,470,457,60,118.0,112,1,292,174,45,0,0,357,-6656,2790,385,,,,,,,,,,,,
246203,1560691518009,2,2.36,1.93,3.49,1.85,5.08,0.98,-0.12,-0.09,8,7,12,0.99,6870,4,86,34,31,918,382.0,491,457,60,119.0,112,1,286,167,45,0,0,353,0,-29302,382,,,,,,,,,,,,
246223,1560691518029,0,2.36,1.94,3.45,1.89,5.05,0.87,-0.06,-0.08,9,8,13,0.87,6934,4,86,34,30,920,379.0,501,459,60,119.0,112,1,281,166,45,0,0,359,0,-6405,379,,,,,,,,,,,,
246243,1560691518049,4,2.35,1.95,3.44,1.94,5.04,0.98,-0.15,0.12,8,5,13,0.99,6998,4,86,34,29,921,377.0,500,458,60,118.0,113,1,277,164,43,0,0,360,-1268,0,378,45.700863,4.909689,38.89,202.8,2,1.435,0,0.0,0.0467,3,0.06,4.1041
246263,1560691518069,0,2.37,1.95,3.42,1.97,5.05,0.96,-0.16,0.2,9,4,11,0.98,6959,4,86,34,28,913,376.0,510,458,60,119.0,113,1,273,161,43,0,0,363,3082,-6656,376,,,,,,,,,,,,
246283,1560691518089,1,2.36,1.95,3.38,1.96,5.04,0.88,-0.08,0.22,9,5,9,0.89,6888,4,86,34,27,902,376.0,512,460,60,118.0,113,1,270,161,43,0,0,364,2790,770,376,,,,,,,,,,,,
246303,1560691518103,1,2.36,1.96,3.36,1.95,5.07,0.98,-0.2,0.25,9,2,9,1.0,6828,4,86,34,27,885,375.0,503,459,60,118.0,113,1,270,160,43,0,0,359,-6458,257,375,,,,,,,,,,,,
246323,1560691518123,-1,2.34,1.95,3.36,1.96,5.07,0.82,-0.1,0.14,10,6,11,0.83,6727,5,86,34,26,866,373.0,504,456,60,118.0,113,1,266,160,43,0,0,359,2790,1,373,,,,,,,,,,,,
246343,1560691518143,-0,2.34,1.96,3.36,1.96,5.07,0.94,-0.2,0.23,8,2,13,0.96,6684,8,86,34,26,853,370.0,497,457,60,119.0,107,1,267,160,40,0,0,358,-14707,-6405,370,45.70087,4.909696,36.98,202.8,2,1.435,0,0.0,0.0483,3,0.06,4.1057
246363,1560691518163,15,2.33,1.97,3.37,1.96,5.06,0.81,-0.1,0.22,10,4,13,0.82,6658,12,86,34,27,845,368.0,501,463,60,118.0,107,1,271,161,40,0,0,354,-14707,3082,368,,,,,,,,,,,,
246383,1560691518197,1,2.32,1.98,3.38,1.96,5.06,0.89,-0.15,0.23,8,3,12,0.9,6611,16,86,34,28,837,365.0,490,455,60,119.0,107,1,275,163,40,0,0,353,-29978,2790,366,,,,,,,,,,,,
246403,1560691518217,4,2.3,1.99,3.39,1.94,5.04,0.9,-0.12,0.34,7,3,10,0.9,6648,20,86,34,30,828,364.0,493,467,60,118.0,107,1,282,166,40,0,0,353,-6640,4104,365,,,,,,,,,,,,
246423,1560691518237,-3,2.29,2.02,3.39,1.94,5.07,0.85,-0.09,0.26,7,3,9,0.86,6672,22,86,34,33,822,363.0,494,458,60,119.0,107,1,292,174,40,0,0,353,4104,2060,363,,,,,,,,,,,,
246443,1560691518257,3,2.3,2.04,3.35,1.95,5.04,0.91,-0.18,0.36,6,2,8,0.92,6698,24,86,34,36,822,361.0,489,460,60,118.0,124,1,301,190,45,0,0,355,2060,3302,361,45.700878,4.909702,35.7,202.8,2,1.435,0,0.0,0.05,3,0.07,4.1074
246463,1560691518277,-0,2.29,2.05,3.32,1.95,5.05,0.91,-0.09,0.24,6,2,10,0.91,6715,25,86,34,39,824,360.0,500,463,60,118.0,124,1,310,208,45,0,0,353,4104,-6640,360,,,,,,,,,,,,
246483,1560691518291,2,2.28,2.05,3.33,1.94,5.04,0.94,-0.13,0.33,5,3,10,0.95,6706,25,86,34,41,830,358.0,490,457,60,119.0,124,1,324,211,45,0,0,351,2060,2060,358,,,,,,,,,,,,
246503,1560691518311,-3,2.27,2.07,3.31,1.94,5.08,0.8,0.04,0.25,5,5,11,0.8,6756,26,86,34,43,836,357.0,497,454,60,119.0,124,1,338,214,45,0,0,355,-6644,2060,357,,,,,,,,,,,,
246523,1560691518331,4,2.27,2.11,3.3,1.96,5.07,0.89,-0.05,0.39,4,1,9,0.89,6749,26,86,34,44,843,355.0,497,462,60,118.0,124,1,345,216,45,0,0,355,3302,2060,355,,,,,,,,,,,,
246543,1560691518351,-2,2.28,2.1,3.29,1.96,5.04,0.84,0.05,0.38,4,1,8,0.84,6766,26,86,34,45,853,355.0,496,457,60,119.0,154,1,352,219,55,0,0,355,3183,-6644,355,45.700886,4.909709,35.14,202.8,2,1.435,0,0.0,0.0517,3,0.07,4.109
246563,1560691518371,4,2.26,2.11,3.28,1.96,5.08,0.94,0.01,0.48,3,-1,5,0.94,6761,26,86,34,47,866,355.0,493,461,60,118.0,154,1,367,221,55,0,0,351,-6644,4104,355,,,,,,,,,,,,
246583,1560691518391,1,2.27,2.11,3.26,1.96,5.04,0.84,0.06,0.38,4,1,5,0.84,6820,26,86,34,48,877,355.0,502,457,60,119.0,154,1,370,227,55,0,0,352,-6644,28553,355,,,,,,,,,,,,
246603,1560691518402,3,2.25,2.13,3.26,1.96,5.07,0.86,-0.02,0.45,3,1,5,0.86,6838,27,86,34,49,883,354.0,503,458,60,118.0,154,1,374,232,55,0,0,355,-6644,28553,353,,,,,,,,,,,,
246623,1560691518422,2,2.25,2.12,3.25,1.95,5.04,0.89,-0.05,0.4,3,1,6,0.89,6860,27,86,34,50,893,353.0,505,461,60,119.0,154,1,377,237,55,0,0,352,-6644,-6644,351,,,,,,,,,,,,
246643,1560691518442,-1,2.22,2.14,3.24,1.95,5.07,0.84,0.01,0.44,3,3,6,0.84,6921,28,86,34,51,910,354.0,501,461,60,118.0,176,1,380,242,62,0,0,352,3302,-30454,350,45.700893,4.909715,34.53,202.8,2,1.435,0,0.0,0.0533,3,0.07,4.1107
246663,1560691518462,4,2.2,2.17,3.25,1.95,5.05,0.96,-0.07,0.56,1,0,5,0.96,7006,29,86,34,52,926,354.0,511,461,60,118.0,176,1,384,243,62,0,0,352,3302,8841,351,,,,,,,,,,,,
246683,1560691518482,3,2.19,2.16,3.25,1.93,5.03,0.88,0.01,0.5,1,1,3,0.88,7038,29,86,34,52,935,355.0,510,455,60,119.0,176,1,384,248,62,0,0,353,2060,2811,349,,,,,,,,,,,,
246703,1560691518494,-2,2.19,2.21,3.25,1.93,5.06,0.87,0.07,0.54,-0,0,-1,0.88,7102,30,86,34,52,953,357.0,512,455,60,118.0,176,1,384,248,62,0,0,356,-6640,2811,348,,,,,,,,,,,,
246723,1560691518514,6,2.17,2.28,3.19,1.93,5.07,0.89,-0.06,0.6,-2,0,-2,0.89,7094,30,86,34,53,990,360.0,521,457,60,118.0,176,1,387,253,62,0,0,362,-14707,28553,347,,,,,,,,,,,,
246743,1560691518534,3,2.15,2.35,3.12,1.94,5.05,0.88,-0.06,0.55,-2,1,-1,0.88,6913,30,86,34,53,1026,362.0,509,458,60,119.0,193,1,386,252,67,0,0,365,2790,4104,348,45.700901,4.909722,34.46,202.8,2,1.435,0,0.0,0.055,3,0.07,4.1124
246763,1560691518554,1,2.13,2.38,3.06,1.95,5.04,0.77,0.11,0.53,-3,4,-0,0.78,6781,30,86,34,54,1052,365.0,505,459,60,117.0,193,1,388,258,67,0,0,368,-6405,-1268,351,,,,,,,,,,,,
246783,1560691518574,2,2.11,2.43,3.01,1.95,5.04,0.83,0.17,0.56,-5,2,-2,0.85,6674,30,86,34,55,1081,366.0,491,457,60,119.0,193,1,391,261,67,0,0,371,0,3082,351,,,,,,,,,,,,
246803,1560691518610,5,2.1,2.44,2.99,1.93,5.05,0.73,0.27,0.54,-5,0,-5,0.78,6574,31,86,34,56,1115,369.0,487,463,60,118.0,193,1,392,263,67,0,0,370,0,-6458,352,,,,,,,,,,,,
246823,1560691518630,1,2.09,2.44,3.03,1.93,5.05,0.78,0.29,0.47,-6,-1,-7,0.83,6555,31,86,34,57,1147,369.0,480,452,60,119.0,193,1,394,265,67,0,0,367,-6656,-6640,350,,,,,,,,,,,,
246843,1560691518650,3,2.09,2.43,3.04,1.93,5.08,0.8,0.3,0.55,-7,-2,-9,0.85,6581,31,86,34,58,1155,372.0,478,452,60,119.0,188,1,397,268,66,0,0,369,1,-30454,350,45.700909,4.909728,33.67,202.7,2,1.435,0,0.0,0.0567,3,0.07,4.114
246863,1560691518670,1,2.09,2.43,3.05,1.92,5.07,0.8,0.4,0.53,-9,-1,-11,0.9,6656,31,86,34,58,1162,373.0,484,463,60,118.0,188,1,399,273,66,0,0,370,-6656,-30454,347,,,,,,,,,,,,
246883,1560691518690,0,2.09,2.44,3.07,1.91,5.04,0.77,0.3,0.53,-10,-1,-12,0.83,6677,31,86,34,59,1173,374.0,489,454,60,119.0,188,1,403,274,66,0,0,371,742,-30438,347,,,,,,,,,,,,
246903,1560691518700,-1,2.1,2.44,3.09,1.9,5.07,0.77,0.46,0.49,-10,-1,-13,0.89,6710,31,86,34,59,1185,373.0,498,461,60,118.0,188,1,404,276,66,0,0,371,770,-30438,345,,,,,,,,,,,,
246923,1560691518720,1,2.09,2.44,3.09,1.92,5.04,0.76,0.42,0.5,-11,-1,-14,0.87,6795,31,86,35,59,1190,373.0,497,456,60,119.0,188,1,407,276,66,0,0,373,-6656,-14714,346,,,,,,,,,,,,
246943,1560691518740,-1,2.1,2.44,3.07,1.92,5.04,0.75,0.56,0.45,-12,0,-14,0.93,6939,31,86,35,59,1195,372.0,506,457,60,119.0,208,1,411,280,72,0,0,370,-6656,-30438,346,45.700916,4.909734,34.48,202.7,2,1.435,0,0.0,0.0583,3,0.07,4.1157
246963,1560691518760,4,2.1,2.44,3.05,1.91,5.07,0.8,0.53,0.5,-13,-1,-15,0.96,7014,31,86,35,59,1203,373.0,507,463,60,118.0,208,1,414,277,72,0,0,372,-6656,2060,347,,,,,,,,,,,,
246983,1560691518780,2,2.09,2.44,3.05,1.91,5.04,0.79,0.49,0.57,-13,1,-16,0.93,7009,31,86,35,58,1210,374.0,502,456,60,119.0,208,1,409,277,72,0,0,376,742,2790,347,,,,,,,,,,,,
247003,1560691518796,-1,2.1,2.45,3.02,1.93,5.04,0.75,0.51,0.58,-14,0,-19,0.91,6988,31,86,35,58,1214,375.0,509,466,60,118.0,208,1,408,277,72,0,0,372,770,0,349,,,,,,,,,,,,
247023,1560691518816,5,2.11,2.44,3.01,1.94,5.04,0.77,0.49,0.62,-14,-1,-21,0.91,6962,31,86,35,58,1217,377.0,505,455,60,119.0,208,1,407,276,72,0,0,376,-6656,257,350,,,,,,,,,,,,
247043,1560691518836,1,2.13,2.44,3.01,1.93,5.06,0.75,0.43,0.61,-14,-1,-19,0.87,6939,31,86,35,58,1220,376.0,507,458,60,118.0,207,1,407,276,73,0,0,377,3,-6656,352,45.700924,4.90974,34.89,202.7,2,1.435,0,0.0,0.06,3,0.07,4.1174
247063,1560691518856,-0,2.13,2.42,3.03,1.94,5.05,0.7,0.55,0.52,-14,1,-18,0.89,6985,31,86,35,58,1222,377.0,501,461,60,118.0,207,1,408,277,73,0,0,381,-6656,0,356,,,,,,,,,,,,
247083,1560691518876,2,2.14,2.41,3.05,1.97,5.06,0.74,0.48,0.66,-14,0,-19,0.88,7011,31,86,35,58,1223,378.0,504,462,60,119.0,207,1,409,277,73,0,0,379,2278,-6656,358,,,,,,,,,,,,
247103,1560691518910,2,2.16,2.41,3.07,2.0,5.05,0.77,0.42,0.63,-14,-0,-20,0.87,7004,31,86,35,58,1223,378.0,499,457,60,119.0,207,1,409,277,73,0,0,377,8200,742,361,,,,,,,,,,,,
247123,1560691518930,1,2.18,2.4,3.08,2.01,5.08,0.72,0.46,0.57,-13,-0,-21,0.85,7033,31,86,35,58,1209,379.0,507,457,60,118.0,207,1,409,277,73,0,0,378,8200,-6656,362,,,,,,,,,,,,
247143,1560691518950,3,2.19,2.4,3.07,2.02,5.04,0.76,0.32,0.64,-13,-0,-21,0.82,7046,31,86,35,58,1192,379.0,508,457,60,119.0,200,1,410,277,73,0,0,379,8200,8200,364,45.700932,4.909745,35.52,202.7,2,1.435,0,0.0,0.0617,3,0.07,4.1191
247163,1560691518970,1,2.2,2.4,3.08,2.02,5.05,0.78,0.25,0.67,-13,-1,-18,0.82,7064,31,86,35,57,1175,379.0,510,459,60,118.0,200,1,405,273,73,0,0,380,8200,-6656,368,,,,,,,,,,,,
247183,1560691518990,1,2.22,2.4,3.08,2.05,5.04,0.68,0.34,0.54,-12,2,-16,0.76,7115,31,86,34,58,1158,380.0,511,462,60,118.0,200,1,410,280,73,0,0,384,-992,-18948,368,,,,,,,,,,,,
247203,1560691519000,-2,2.23,2.39,3.08,2.06,5.04,0.65,0.42,0.56,-11,1,-15,0.78,7153,31,86,34,57,1136,381.0,517,461,60,117.0,200,1,405,280,73,0,0,378,-18948,-18948,369,,,,,,,,,,,,
247223,1560691519020,3,2.26,2.38,3.08,2.09,5.07,0.71,0.34,0.7,-11,0,-16,0.79,7172,31,86,34,57,1111,380.0,513,459,60,118.0,200,1,406,276,73,0,0,383,-992,-18948,374,,,,,,,,,,,,
247243,1560691519040,2,2.28,2.37,3.09,2.09,5.04,0.71,0.19,0.71,-9,0,-18,0.73,7205,31,86,34,57,1093,381.0,523,457,60,119.0,203,1,406,277,76,0,0,385,-18948,-992,374,45.700943,4.90975,35.67,202.7,2,1.435,0,0.0,0.0633,3,0.07,4.1207
247263,1560691519060,3,2.31,2.35,3.11,2.12,5.07,0.73,0.12,0.65,-8,-2,-16,0.74,7214,31,86,34,57,1084,381.0,523,457,60,119.0,203,1,406,277,76,0,0,386,-18948,-31744,378,,,,,,,,,,,,
247283,1560691519092,-0,2.33,2.32,3.15,2.14,5.07,0.61,0.17,0.57,-7,-1,-13,0.64,7256,31,86,34,56,1075,383.0,516,458,60,118.0,203,1,401,277,76,0,0,384,-19126,-1818,382,,,,,,,,,,,,
247303,1560691519112,-0,2.37,2.3,3.21,2.19,5.05,0.62,0.13,0.57,-5,-1,-9,0.63,7267,31,86,34,56,1065,386.0,516,461,60,117.0,203,1,401,271,76,0,0,385,-18948,505,386,,,,,,,,,,,,
247323,1560691519132,-0,2.41,2.28,3.24,2.24,5.04,0.76,0.03,0.68,-4,-2,-6,0.76,7270,31,86,34,56,1060,390.0,511,462,60,118.0,203,1,401,271,76,0,0,386,2278,1,390,,,,,,,,,,,,
247343,1560691519152,5,2.44,2.24,3.28,2.28,5.07,0.79,-0.1,0.81,-2,-2,-5,0.8,7329,31,86,34,56,1060,393.0,512,456,60,118.0,189,1,402,266,74,0,0,388,8200,-1818,393,45.700951,4.909754,36.2,202.6,2,1.435,0,0.0,0.065,3,0.07,4.1224
247363,1560691519172,2,2.47,2.22,3.37,2.29,5.05,0.71,-0.18,0.79,1,-1,-4,0.73,7361,31,86,34,55,1057,396.0,520,457,60,119.0,189,1,396,266,74,0,0,392,8200,-1818,396,,,,,,,,,,,,
247383,1560691519192,5,2.5,2.22,3.41,2.36,5.04,0.75,-0.29,0.8,3,-0,-2,0.8,7425,31,86,34,55,1051,399.0,518,461,60,119.0,189,1,396,267,74,0,0,389,2278,11545,399,,,,,,,,,,,,
247403,1560691519206,4,2.53,2.22,3.41,2.39,5.05,0.69,-0.38,0.81,5,1,1,0.78,7428,31,86,34,55,1045,402.0,523,456,60,119.0,189,1,396,267,74,0,0,394,-6656,10541,402,,,,,,,,,,,,
247423,1560691519226,4,2.56,2.21,3.44,2.37,5.05,0.54,-0.45,0.75,8,3,2,0.7,7491,31,86,34,54,1040,405.0,527,460,60,119.0,189,1,390,262,74,0,0,399,8200,-26615,403,,,,,,,,,,,,
247443,1560691519246,5,2.58,2.18,3.47,2.39,5.05,0.46,-0.44,0.73,11,3,5,0.63,7509,31,86,34,54,1031,404.0,534,457,60,119.0,183,1,390,263,74,0,0,404,-6656,-26615,404,45.700962,4.909759,37.19,202.5,2,1.435,0,0.0,0.0667,3,0.07,4.1241
247463,1560691519266,3,2.61,2.16,3.51,2.41,5.05,0.41,-0.56,0.75,12,3,7,0.7,7606,31,86,34,53,1017,407.0,543,452,60,119.0,183,1,387,258,74,0,0,419,8200,-26615,407,,,,,,,,,,,,
247483,1560691519286,0,2.62,2.14,3.51,2.4,5.08,0.45,-0.55,0.69,14,4,10,0.71,7656,31,86,34,53,1006,409.0,546,458,60,118.0,183,1,387,258,74,0,0,398,3,-4059,409,,,,,,,,,,,,
247503,1560691519296,-2,2.64,2.14,3.51,2.41,5.06,0.49,-0.65,0.74,15,3,12,0.82,7741,31,86,34,53,998,409.0,552,460,60,118.0,183,1,387,259,74,0,0,404,742,10392,409,,,,,,,,,,,,
247523,1560691519316,2,2.64,2.13,3.52,2.41,5.05,0.56,-0.69,0.69,17,3,14,0.89,7747,31,86,34,53,989,411.0,552,463,60,118.0,183,1,387,253,74,0,0,420,-6656,13040,411,,,,,,,,,,,,
247543,1560691519336,4,2.64,2.12,3.55,2.42,5.04,0.57,-0.65,0.6,18,2,18,0.86,7793,31,86,34,52,976,413.0,557,461,60,118.0,180,1,384,253,74,0,0,431,3,18584,415,45.700966,4.909763,37.85,202.5,2,1.435,0,0.0,0.0683,3,0.08,4.1257
247563,1560691519356,5,2.64,2.11,3.55,2.42,5.05,0.54,-0.72,0.67,20,2,22,0.9,7878,31,86,34,50,964,419.0,556,455,60,119.0,180,1,378,247,74,0,0,433,-6656,-21944,419,,,,,,,,,,,,
247583,1560691519393,1,2.64,2.11,3.55,2.43,5.04,0.5,-0.81,0.7,22,2,23,0.95,7918,31,86,34,50,959,420.0,553,456,60,118.0,180,1,378,241,74,0,0,414,-6656,-21792,420,,,,,,,,,,,,
247603,1560691519413,3,2.63,2.11,3.57,2.43,5.05,0.51,-0.84,0.71,23,2,24,0.98,7921,31,86,34,50,951,420.0,565,462,60,117.0,180,1,378,241,74,0,0,411,2278,-3856,420,,,,,,,,,,,,
247623,1560691519433,4,2.64,2.1,3.57,2.43,5.04,0.57,-0.88,0.67,24,-1,26,1.05,7934,31,86,34,49,938,423.0,565,457,60,118.0,180,1,375,235,74,0,0,432,2278,13552,423,,,,,,,,,,,,
247643,1560691519453,0,2.64,2.1,3.59,2.44,5.08,0.45,-0.8,0.62,26,1,28,0.92,7918,31,86,34,48,924,425.0,557,459,60,118.0,165,1,372,235,70,0,0,436,-6656,-4082,425,45.700977,4.909769,37.59,202.5,2,1.435,0,0.0,0.07,3,0.08,4.1274
247663,1560691519473,1,2.64,2.1,3.6,2.45,5.06,0.49,-0.83,0.64,27,-1,29,0.96,7985,31,86,34,49,917,425.0,560,458,60,119.0,165,1,375,235,70,0,0,433,2278,-4082,425,,,,,,,,,,,,
247683,1560691519493,1,2.64,2.09,3.59,2.46,5.05,0.57,-0.88,0.54,28,-1,32,1.05,8029,31,86,34,48,909,429.0,555,461,60,118.0,165,1,372,229,70,0,0,421,2278,31796,429,,,,,,,,,,,,
247703,1560691519505,-0,2.64,2.07,3.6,2.46,5.04,0.57,-0.89,0.57,29,-0,34,1.06,8016,31,86,34,47,896,427.0,561,457,60,119.0,165,1,370,223,70,0,0,425,-992,13180,430,,,,,,,,,,,,
247723,1560691519525,3,2.64,2.07,3.58,2.48,5.05,0.6,-0.94,0.63,29,-1,36,1.12,7999,31,86,34,47,883,432.0,566,459,60,118.0,165,1,370,223,70,0,0,434,-18948,-7939,432,,,,,,,,,,,,
247743,1560691519545,1,2.65,2.12,3.58,2.49,5.05,0.61,-1.0,0.58,30,-3,35,1.17,8036,31,86,34,47,878,430.0,572,459,60,119.0,160,1,370,223,69,0,0,438,-18948,3635,430,45.700985,4.909776,38.84,202.4,2,1.435,0,0.0,0.0717,3,0.08,4.129
247763,1560691519565,-2,2.64,2.09,3.58,2.48,5.06,0.63,-1.06,0.59,31,-4,34,1.23,8043,31,86,34,47,873,428.0,577,457,60,118.0,160,1,370,223,69,0,0,420,-19126,-3322,428,,,,,,,,,,,,
247783,1560691519585,0,2.62,2.06,3.61,2.48,5.05,0.63,-1.07,0.62,32,-5,33,1.24,8067,31,86,34,47,870,430.0,571,460,60,118.0,160,1,370,223,69,0,0,423,-19019,243,430,,,,,,,,,,,,
247803,1560691519597,4,2.6,2.04,3.61,2.49,5.03,0.68,-1.08,0.61,32,-5,35,1.27,8043,31,86,34,47,868,433.0,575,460,60,118.0,160,1,370,223,69,0,0,459,-6475,-768,433,,,,,,,,,,,,
247823,1560691519617,-1,2.59,2.04,3.61,2.48,5.05,0.66,-1.1,0.67,33,-5,36,1.28,8088,31,86,34,46,870,434.0,570,457,60,118.0,160,1,362,221,69,0,0,452,-19126,-3322,435,,,,,,,,,,,,
247843,1560691519637,3,2.57,2.05,3.61,2.48,5.07,0.6,-1.06,0.57,33,-6,36,1.22,8198,31,86,34,47,873,435.0,572,464,60,118.0,158,1,370,225,69,0,0,419,-6475,19477,435,45.700993,4.909784,39.23,202.4,2,1.435,0,0.0,0.0733,3,0.08,4.1307
247863,1560691519657,1,2.53,2.05,3.61,2.47,5.04,0.63,-1.0,0.6,33,-5,38,1.19,8230,31,86,34,46,884,436.0,577,459,60,119.0,158,1,363,223,69,0,0,410,-31744,-7939,436,,,,,,,,,,,,
247883,1560691519691,4,2.5,2.05,3.62,2.48,5.03,0.57,-0.97,0.56,33,-4,37,1.12,8166,31,86,34,46,895,436.0,571,461,60,118.0,158,1,362,222,69,0,0,462,-6524,19477,435,,,,,,,,,,,,
247903,1560691519711,-1,2.47,2.07,3.58,2.47,5.07,0.67,-1.01,0.59,32,-5,37,1.21,8145,31,86,34,46,903,436.0,576,461,60,118.0,158,1,362,222,69,0,0,459,1,-7939,436,,,,,,,,,,,,
247923,1560691519731,3,2.43,2.08,3.54,2.46,5.04,0.63,-1.0,0.56,31,-3,36,1.19,8223,31,86,34,46,911,434.0,570,457,60,118.0,158,1,363,221,69,0,0,412,17144,1779,434,,,,,,,,,,,,
247943,1560691519751,-0,2.42,2.09,3.52,2.44,5.08,0.65,-1.02,0.57,30,-4,36,1.21,8234,31,86,34,45,922,434.0,574,456,60,119.0,158,1,356,221,69,0,0,417,28696,-7939,433,45.701004,4.909793,39.5,202.3,2,1.435,0,0.0,0.075,3,0.08,4.1324
247963,1560691519771,1,2.39,2.14,3.48,2.43,5.06,0.66,-0.95,0.57,28,-3,35,1.16,8134,31,86,34,46,933,433.0,562,455,60,117.0,158,1,362,222,69,0,0,432,1504,20625,433,,,,,,,,,,,,
247983,1560691519791,4,2.36,2.17,3.43,2.4,5.08,0.68,-0.93,0.6,27,-2,35,1.15,8033,32,86,34,46,940,433.0,577,457,60,119.0,158,1,362,221,69,0,0,437,11560,23400,433,,,,,,,,,,,,
248003,1560691519807,0,2.35,2.21,3.4,2.38,5.04,0.71,-0.94,0.71,25,-4,32,1.18,8009,32,86,34,47,944,434.0,569,460,60,118.0,158,1,370,223,69,0,0,435,13040,-7939,432,,,,,,,,,,,,
248023,1560691519827,1,2.33,2.25,3.36,2.35,5.05,0.75,-0.86,0.69,22,-3,30,1.14,7975,32,86,34,48,952,431.0,563,460,60,118.0,158,1,372,223,69,0,0,432,-3414,-3314,431,,,,,,,,,,,,
248043,1560691519847,2,2.34,2.27,3.31,2.32,5.06,0.77,-0.75,0.69,20,-5,27,1.07,7951,32,86,34,47,961,431.0,567,458,60,119.0,159,1,370,229,69,0,0,429,-21792,-7939,431,45.701008,4.909803,40.1,202.3,2,1.435,0,0.0,0.0767,3,0.08,4.134
248063,1560691519867,-2,2.33,2.31,3.29,2.3,5.05,0.79,-0.73,0.71,19,-6,25,1.07,7999,32,86,34,48,969,432.0,552,456,60,119.0,159,1,372,229,69,0,0,426,3826,1779,429,,,,,,,,,,,,
248083,1560691519887,2,2.31,2.31,3.31,2.28,5.08,0.8,-0.67,0.67,18,-5,23,1.05,8040,32,86,34,48,974,432.0,547,460,60,118.0,159,1,372,229,69,0,0,428,3826,-3314,432,,,,,,,,,,,,
248103,1560691519899,5,2.3,2.3,3.31,2.27,5.04,0.85,-0.55,0.69,16,-6,22,1.01,8067,33,86,34,48,983,431.0,549,456,60,119.0,159,1,372,229,69,0,0,432,-3856,1779,431,,,,,,,,,,,,
248123,1560691519919,1,2.29,2.3,3.3,2.24,5.07,0.85,-0.57,0.71,14,-6,21,1.02,8138,34,86,34,48,995,432.0,549,456,60,119.0,159,1,372,230,69,0,0,432,31796,-3322,432,,,,,,,,,,,,
248143,1560691519939,4,2.29,2.3,3.3,2.23,5.07,0.8,-0.47,0.61,13,-5,20,0.93,8191,35,86,34,49,1003,432.0,557,456,60,118.0,168,1,375,237,73,0,0,432,31796,243,432,45.701016,4.909814,41.03,202.3,2,1.435,0,0.0,0.0783,3,0.08,4.1357
248163,1560691519959,0,2.28,2.31,3.27,2.22,5.04,0.77,-0.36,0.63,12,-4,18,0.85,8166,36,86,34,49,1009,431.0,564,458,60,119.0,168,1,375,244,73,0,0,435,-3314,5600,431,,,,,,,,,,,,
248183,1560691519995,4,2.28,2.32,3.21,2.22,5.03,0.75,-0.25,0.58,11,-4,16,0.79,8155,37,86,34,51,1018,434.0,570,463,60,117.0,168,1,381,244,73,0,0,437,243,5600,431,,,,,,,,,,,,
248203,1560691520015,-1,2.27,2.32,3.21,2.22,5.04,0.75,-0.2,0.64,10,-3,14,0.78,8187,38,86,34,50,1032,434.0,564,456,60,119.0,168,1,378,250,73,0,0,439,-768,-7939,432,,,,,,,,,,,,
248223,1560691520035,3,2.28,2.31,3.22,2.2,5.08,0.66,-0.11,0.63,9,-2,14,0.67,8187,39,86,34,51,1043,435.0,564,460,60,118.0,168,1,381,250,73,0,0,438,-768,-7939,435,,,,,,,,,,,,
248243,1560691520055,1,2.28,2.31,3.21,2.21,5.04,0.72,-0.1,0.7,8,-3,13,0.73,8194,39,86,34,52,1051,436.0,571,460,60,119.0,182,1,384,257,79,0,0,443,5600,26704,436,45.701023,4.909826,41.37,202.2,2,1.435,0,0.0,0.08,3,0.08,4.1374
248263,1560691520075,2,2.28,2.31,3.21,2.21,5.08,0.68,-0.03,0.64,8,-1,12,0.68,8230,40,86,34,53,1065,437.0,582,461,60,118.0,182,1,387,266,79,0,0,442,19477,21580,436,,,,,,,,,,,,
248283,1560691520095,-0,2.28,2.31,3.22,2.2,5.04,0.73,-0.08,0.77,7,-1,11,0.74,8289,41,86,34,53,1085,438.0,580,453,60,119.0,182,1,387,266,79,0,0,442,19477,23400,437,,,,,,,,,,,,
248303,1560691520105,2,2.3,2.3,3.22,2.18,5.05,0.71,-0.09,0.7,6,-1,9,0.71,8314,42,86,34,54,1103,439.0,582,456,60,117.0,182,1,390,273,79,0,0,442,-28332,20625,439,,,,,,,,,,,,
248323,1560691520125,1,2.31,2.31,3.21,2.19,5.04,0.74,-0.12,0.79,6,-1,7,0.75,8348,42,86,34,54,1115,441.0,589,460,60,119.0,182,1,390,274,79,0,0,449,26704,2131,439,,,,,,,,,,,,
248343,1560691520145,2,2.32,2.31,3.23,2.21,5.05,0.72,-0.08,0.66,6,-1,7,0.73,8363,43,86,34,55,1130,443.0,587,461,60,117.0,196,1,398,275,87,0,0,448,-18341,16648,441,45.701027,4.909839,41.91,202.2,2,1.435,0,0.0,0.0817,3,0.08,4.1391
248363,1560691520165,1,2.33,2.31,3.24,2.22,5.06,0.7,-0.03,0.69,5,0,7,0.7,8434,43,86,34,55,1151,443.0,582,455,60,118.0,196,1,398,283,87,0,0,451,26704,10305,443,,,,,,,,,,,,
248383,1560691520185,1,2.33,2.3,3.26,2.22,5.05,0.67,-0.14,0.7,5,-1,6,0.69,8430,44,86,34,55,1169,446.0,576,456,60,119.0,196,1,398,283,87,0,0,452,23400,3571,447,,,,,,,,,,,,
248403,1560691520201,5,2.34,2.28,3.27,2.19,5.05,0.62,-0.17,0.63,6,0,6,0.64,8389,45,86,34,56,1179,450.0,580,461,60,118.0,196,1,406,290,87,0,0,451,21432,2524,450,,,,,,,,,,,,
248423,1560691520221,2,2.36,2.27,3.28,2.21,5.08,0.69,-0.24,0.72,6,1,6,0.74,8438,46,86,34,55,1189,452.0,573,460,60,119.0,196,1,398,291,87,0,0,451,-18341,-9160,452,,,,,,,,,,,,
248443,1560691520241,3,2.38,2.28,3.26,2.21,5.06,0.62,-0.22,0.63,6,-0,7,0.66,8449,46,86,33,56,1202,453.0,585,461,60,118.0,206,1,406,291,93,0,0,455,21432,15649,453,45.701035,4.909851,42.47,202.2,2,1.435,0,0.0,0.0833,3,0.09,4.1407
248463,1560691520261,3,2.39,2.26,3.28,2.22,5.07,0.63,-0.2,0.68,7,1,7,0.66,8538,47,86,33,57,1215,455.0,587,452,60,118.0,206,1,412,295,93,0,0,455,21432,-9160,455,,,,,,,,,,,,
248483,1560691520297,4,2.4,2.24,3.37,2.23,5.08,0.68,-0.35,0.8,8,-0,7,0.76,8648,48,86,33,57,1220,457.0,595,460,60,119.0,206,1,409,306,93,0,0,458,21432,-23623,457,,,,,,,,,,,,
248503,1560691520317,2,2.4,2.23,3.38,2.25,5.07,0.66,-0.39,0.79,8,1,8,0.77,8660,50,86,33,58,1227,459.0,606,461,60,119.0,206,1,414,315,93,0,0,463,-18341,6193,459,,,,,,,,,,,,
248523,1560691520337,8,2.43,2.23,3.36,2.28,5.06,0.61,-0.32,0.77,9,0,9,0.68,8676,51,86,33,58,1246,464.0,607,456,60,118.0,206,1,413,316,93,0,0,462,21432,-3210,464,,,,,,,,,,,,
248543,1560691520357,4,2.42,2.24,3.36,2.3,5.04,0.56,-0.33,0.72,10,1,9,0.65,8644,52,86,33,58,1266,465.0,601,460,60,118.0,222,1,414,323,103,0,0,463,2131,243,463,45.701042,4.909864,43.24,202.1,2,1.435,0,0.0,0.085,3,0.09,4.1424
248563,1560691520377,3,2.43,2.23,3.39,2.3,5.05,0.65,-0.45,0.79,10,-2,9,0.79,8636,53,86,33,59,1281,464.0,605,463,60,119.0,222,1,421,322,103,0,0,468,10305,-3210,464,,,,,,,,,,,,
248583,1560691520391,0,2.43,2.22,3.4,2.32,5.04,0.71,-0.5,0.8,10,-3,10,0.87,8696,54,86,33,60,1296,465.0,595,466,60,118.0,222,1,422,332,103,0,0,468,8488,30272,466,,,,,,,,,,,,
248603,1560691520411,2,2.42,2.2,3.42,2.32,5.04,0.61,-0.47,0.72,11,-2,12,0.77,8664,55,86,33,61,1316,466.0,606,457,60,119.0,222,1,430,331,103,0,0,468,8488,243,466,,,,,,,,,,,,
248623,1560691520431,4,2.42,2.19,3.42,2.32,5.03,0.57,-0.38,0.69,12,-2,13,0.68,8708,57,86,33,62,1336,470.0,607,461,60,118.0,222,1,426,346,103,0,0,465,10305,-16384,470,,,,,,,,,,,,
248643,1560691520451,3,2.42,2.2,3.4,2.32,5.04,0.59,-0.38,0.66,12,-1,15,0.7,8848,58,86,33,62,1342,473.0,603,469,60,118.0,244,1,413,349,115,0,0,462,-3267,8488,471,45.70105,4.909876,43.86,202.1,2,1.435,0,0.0,0.0867,3,0.09,4.1441
248663,1560691520471,5,2.41,2.2,3.41,2.34,5.04,0.57,-0.39,0.65,12,-1,15,0.69,8882,60,86,33,63,1347,472.0,603,455,60,118.0,244,1,410,355,115,0,0,471,-3267,-9203,472,,,,,,,,,,,,
248683,1560691520491,3,2.41,2.2,3.42,2.33,5.08,0.64,-0.44,0.72,13,-1,15,0.78,8907,62,86,33,65,1369,473.0,610,457,60,118.0,244,1,412,365,115,0,0,475,-6387,-23367,473,,,,,,,,,,,,
248703,1560691520504,4,2.4,2.19,3.39,2.34,5.04,0.74,-0.57,0.81,13,-3,15,0.93,8941,63,86,33,66,1392,474.0,606,456,60,119.0,244,1,412,370,115,0,0,473,2524,8488,475,,,,,,,,,,,,
248723,1560691520524,5,2.39,2.2,3.39,2.35,5.04,0.8,-0.64,0.89,12,-3,14,1.03,8873,65,86,33,67,1411,475.0,605,459,60,118.0,244,1,416,375,115,0,0,479,2524,-17956,475,,,,,,,,,,,,
248743,1560691520544,4,2.39,2.2,3.37,2.33,5.06,0.9,-0.73,0.9,12,-4,14,1.16,8971,66,86,33,69,1430,476.0,606,456,60,118.0,269,1,415,388,128,0,0,474,17628,16648,476,45.701057,4.90989,44.59,202.1,2,1.435,0,0.0,0.0883,3,0.09,4.1457
248763,1560691520564,3,2.38,2.19,3.34,2.33,5.08,0.95,-0.76,0.94,12,-5,15,1.22,8911,67,86,33,70,1452,478.0,613,460,60,118.0,269,1,417,398,128,0,0,475,17628,8488,478,,,,,,,,,,,,
248783,1560691520584,3,2.39,2.2,3.36,2.33,5.08,1.01,-0.88,0.96,11,-7,15,1.34,9014,68,86,33,72,1475,480.0,606,443,60,118.0,269,1,413,407,128,0,0,479,12552,-6441,480,,,,,,,,,,,,
248803,1560691520596,3,2.37,2.2,3.38,2.32,5.05,1.08,-0.88,0.96,11,-6,15,1.39,9159,70,86,33,72,1484,481.0,615,458,60,118.0,269,1,413,427,128,0,0,491,6193,3580,481,,,,,,,,,,,,
248823,1560691520616,4,2.37,2.21,3.34,2.33,5.08,1.09,-0.99,1.05,11,-6,14,1.47,9259,72,86,33,74,1488,481.0,607,450,60,118.0,269,1,414,436,128,0,0,488,30272,-1562,483,,,,,,,,,,,,
248843,1560691520636,0,2.36,2.25,3.33,2.34,5.04,1.05,-1.05,1.02,11,-3,13,1.49,9282,73,86,33,74,1493,485.0,615,454,60,117.0,310,1,414,436,150,0,0,492,8488,-1818,485,45.701061,4.909904,45.32,202.0,2,1.435,0,0.0,0.09,3,0.09,4.1474
248863,1560691520656,0,2.36,2.25,3.32,2.33,5.07,0.87,-0.85,0.92,11,-2,14,1.21,9241,74,86,33,75,1497,486.0,609,453,60,117.0,310,1,414,446,150,0,0,492,-1923,248,486,,,,,,,,,,,,
248883,1560691520694,2,2.35,2.3,3.3,2.35,5.05,0.66,-0.56,0.85,11,-1,15,0.86,9263,74,86,33,76,1498,488.0,611,461,60,117.0,310,1,414,456,150,0,0,495,-9203,3,488,,,,,,,,,,,,
248903,1560691520714,4,2.34,2.32,3.27,2.34,5.04,0.77,-0.51,0.83,9,-3,15,0.93,9305,74,86,33,76,1498,489.0,610,457,60,118.0,310,1,414,456,150,0,0,497,8488,-9216,492,,,,,,,,,,,,
248923,1560691520734,3,2.35,2.33,3.27,2.32,5.06,0.9,-0.66,0.95,9,-4,13,1.11,9328,75,86,33,77,1487,491.0,619,451,60,118.0,310,1,414,470,150,0,0,503,-10483,11560,491,,,,,,,,,,,,
248943,1560691520754,2,2.34,2.34,3.25,2.34,5.04,0.87,-0.71,0.96,9,-2,11,1.12,9517,75,86,33,76,1470,497.0,611,460,60,118.0,327,1,416,457,162,0,0,502,-1562,-28648,497,45.701069,4.909918,46.11,202.0,2,1.435,0,0.0,0.0917,3,0.09,4.149
248963,1560691520774,3,2.34,2.34,3.24,2.34,5.04,0.67,-0.48,0.89,9,-3,11,0.82,9645,75,86,33,76,1454,499.0,616,451,60,118.0,327,1,411,466,162,0,0,514,505,6274,499,,,,,,,,,,,,
248983,1560691520794,1,2.34,2.33,3.24,2.33,5.04,0.75,-0.56,0.9,8,-3,10,0.93,9750,75,86,33,76,1438,501.0,627,454,60,118.0,327,1,406,473,162,0,0,513,998,15679,501,,,,,,,,,,,,
249003,1560691520806,4,2.33,2.34,3.24,2.34,5.04,0.71,-0.45,0.89,8,-2,11,0.84,9780,75,86,33,75,1414,506.0,618,455,60,118.0,327,1,405,466,162,0,0,529,-9216,6274,506,,,,,,,,,,,,
249023,1560691520826,2,2.34,2.35,3.22,2.37,5.04,0.76,-0.48,0.98,7,-4,11,0.9,9852,75,86,33,75,1384,509.0,624,459,60,118.0,327,1,401,474,162,0,0,528,11560,-28648,509,,,,,,,,,,,,
249043,1560691520846,5,2.33,2.35,3.21,2.37,5.04,0.65,-0.37,0.98,7,-1,9,0.75,9899,75,86,33,75,1362,516.0,625,455,60,118.0,343,1,400,475,176,0,0,534,6274,2524,516,45.701073,4.909934,47.49,201.9,2,1.435,0,0.0,0.0933,3,0.09,4.1507
249063,1560691520866,3,2.33,2.36,3.2,2.36,5.07,0.74,-0.29,1.0,6,-3,9,0.79,9894,75,86,33,75,1348,517.0,623,453,60,117.0,343,1,400,475,176,0,0,530,-4054,2524,519,,,,,,,,,,,,
249083,1560691520886,1,2.34,2.37,3.19,2.37,5.04,0.69,-0.38,1.02,6,-2,8,0.79,9957,75,86,33,75,1327,522.0,620,451,60,118.0,343,1,397,478,176,0,0,532,26178,-28648,522,,,,,,,,,,,,
249103,1560691520900,5,2.34,2.36,3.19,2.36,5.02,0.68,-0.21,1.0,6,-2,8,0.71,10086,75,86,33,75,1299,527.0,623,453,60,118.0,343,1,403,483,176,0,0,540,1341,1780,527,,,,,,,,,,,,
249123,1560691520920,4,2.34,2.36,3.2,2.36,5.03,0.75,-0.22,1.01,5,-4,9,0.78,10135,75,86,33,75,1274,530.0,627,453,60,118.0,343,1,406,483,176,0,0,546,-8187,-506,530,,,,,,,,,,,,
249143,1560691520940,4,2.35,2.36,3.22,2.36,5.08,0.76,-0.3,1.04,5,-4,8,0.81,10240,75,86,33,75,1259,536.0,627,457,60,117.0,351,1,417,483,187,0,0,549,-32248,-28648,536,45.70108,4.90995,48.97,201.9,2,1.435,0,0.0,0.095,3,0.09,4.1524
249163,1560691520960,4,2.33,2.37,3.22,2.37,5.04,0.84,-0.3,0.99,5,-2,9,0.89,10336,75,86,33,75,1242,537.0,623,458,60,117.0,351,1,420,484,187,0,0,551,-28648,2104,537,,,,,,,,,,,,
249183,1560691520994,4,2.34,2.37,3.2,2.36,5.04,0.69,-0.32,0.99,6,-3,9,0.75,10410,75,86,33,75,1223,542.0,621,458,60,117.0,351,1,430,484,187,0,0,557,-22519,-28648,542,,,,,,,,,,,,
249203,1560691521014,3,2.33,2.36,3.21,2.37,5.04,0.5,-0.27,0.92,6,-2,9,0.57,10527,75,86,33,75,1207,544.0,630,455,60,118.0,351,1,433,485,187,0,0,555,-28648,-22359,547,,,,,,,,,,,,
249223,1560691521034,2,2.35,2.36,3.2,2.37,5.05,0.6,-0.31,0.92,6,-3,11,0.67,10551,75,86,33,75,1203,549.0,635,455,60,118.0,351,1,434,485,187,0,0,570,-3082,-32504,551,,,,,,,,,,,,
249243,1560691521054,-2,2.35,2.36,3.2,2.36,5.05,0.53,-0.3,0.85,6,-2,10,0.61,10647,76,86,33,75,1197,556.0,627,460,60,117.0,351,1,436,485,194,0,0,567,-8962,-8186,556,45.701084,4.909967,50.75,201.9,2,1.435,0,0.0,0.0967,3,0.1,4.154
249263,1560691521074,-0,2.35,2.36,3.23,2.37,5.06,0.55,-0.37,0.93,6,-3,10,0.67,10653,76,86,33,75,1190,557.0,640,458,60,120.0,351,1,436,485,194,0,0,582,-8962,-8188,557,,,,,,,,,,,,
249283,1560691521094,-1,2.36,2.35,3.22,2.37,5.07,0.63,-0.34,0.89,6,-4,10,0.71,10157,76,86,33,78,1185,562.0,633,455,60,120.0,351,1,399,497,194,0,0,569,-9072,1267,561,,,,,,,,,,,,
249303,1560691521108,-0,2.37,2.32,3.25,2.35,5.04,0.75,-0.47,0.88,7,-4,9,0.88,9755,76,86,33,80,1183,565.0,636,455,60,119.0,351,1,406,516,194,0,0,557,-9072,-2934,565,,,,,,,,,,,,
249323,1560691521128,0,2.37,2.29,3.3,2.33,5.05,0.68,-0.42,0.8,7,-7,10,0.8,9566,76,86,33,81,1183,565.0,625,462,60,119.0,351,1,414,526,194,0,0,553,-9072,1780,565,,,,,,,,,,,,
249343,1560691521148,-0,2.38,2.25,3.37,2.31,5.08,0.47,-0.38,0.81,8,-7,13,0.6,9379,77,86,33,82,1187,568.0,627,456,60,118.0,333,1,417,540,189,0,0,549,6274,1780,568,45.701092,4.909985,52.74,201.8,2,1.435,0,0.0,0.0983,3,0.1,4.1557
249363,1560691521168,2,2.37,2.21,3.43,2.31,5.04,0.62,-0.44,0.82,9,-4,13,0.76,9132,79,86,33,83,1192,571.0,620,460,60,119.0,333,1,418,1020,189,0,0,561,-32248,-8186,571,,,,,,,,,,,,
249383,1560691521188,2,2.38,2.19,3.45,2.31,5.08,0.76,-0.59,0.83,10,-7,13,0.96,8886,80,86,33,84,1198,570.0,619,455,60,118.0,333,1,421,945,189,0,0,548,-32248,-8186,569,,,,,,,,,,,,
249403,1560691521200,2,2.38,2.21,3.42,2.36,5.06,0.56,-0.68,0.78,11,-6,16,0.88,8745,81,86,33,85,1208,571.0,609,447,60,118.0,333,1,425,868,189,0,0,569,2104,-1894,571,,,,,,,,,,,,
249423,1560691521220,6,2.39,2.24,3.37,2.43,5.07,0.55,-0.56,0.9,12,-2,17,0.79,8692,82,86,33,84,1259,576.0,586,458,60,118.0,333,1,425,750,189,0,0,654,2524,-23055,576,,,,,,,,,,,,
249443,1560691521240,5,2.39,2.33,3.29,2.49,5.06,0.45,-0.57,0.93,12,1,17,0.72,8542,82,86,33,84,1310,583.0,575,457,60,118.0,410,1,429,653,237,0,0,673,2216,19320,583,45.701096,4.910003,53.96,201.8,2,1.435,0,0.0,0.1,3,0.1,4.1574
249463,1560691521260,1,2.39,2.38,3.24,2.54,5.05,0.52,-0.6,0.96,12,2,18,0.8,8526,82,86,33,84,1355,590.0,576,461,60,118.0,410,1,429,566,237,0,0,605,2216,-16046,590,,,,,,,,,,,,
249483,1560691521300,3,2.41,2.41,3.2,2.57,5.05,0.52,-0.61,0.96,13,-1,20,0.8,8419,79,86,33,84,1400,594.0,568,457,60,117.0,410,1,431,557,237,0,0,594,12552,-10251,594,,,,,,,,,,,,
249503,1560691521320,2,2.41,2.41,3.24,2.58,5.08,0.49,-0.64,1.06,13,-0,19,0.81,8270,75,86,33,82,1430,598.0,554,450,60,118.0,410,1,432,520,237,0,0,622,1267,-2836,604,,,,,,,,,,,,
249523,1560691521340,4,2.4,2.4,3.3,2.6,5.06,0.45,-0.54,0.96,14,1,19,0.7,8241,73,86,33,82,1462,605.0,557,456,60,118.0,410,1,433,517,237,0,0,630,-3210,771,605,,,,,,,,,,,,
249543,1560691521360,1,2.41,2.38,3.35,2.6,5.07,0.45,-0.57,0.99,15,-3,18,0.73,8340,72,86,33,80,1452,609.0,557,455,60,118.0,263,1,430,513,160,0,0,623,10432,506,609,45.701103,4.910022,54.85,201.7,2,1.435,0,0.0,0.1017,3,0.1,4.159
249563,1560691521380,1,2.41,2.35,3.43,2.6,5.04,0.47,-0.58,1.02,15,-3,16,0.75,8561,72,86,33,79,1436,613.0,580,462,60,118.0,263,1,425,512,160,0,0,631,8488,30721,615,,,,,,,,,,,,
249583,1560691521400,3,2.4,2.34,3.45,2.6,5.05,0.49,-0.56,0.98,15,-4,17,0.74,8733,71,86,33,78,1357,615.0,593,452,60,118.0,263,1,421,483,160,0,0,641,-1894,20993,615,,,,,,,,,,,,
249603,1560691521410,5,2.41,2.34,3.44,2.59,5.07,0.41,-0.51,1.03,15,-1,19,0.66,8831,71,86,33,77,1275,622.0,604,451,60,117.0,263,1,418,456,160,0,0,640,3472,11566,622,,,,,,,,,,,,
249623,1560691521430,4,2.4,2.35,3.4,2.6,5.03,0.43,-0.44,1.04,15,-1,22,0.61,8890,71,86,33,76,1206,626.0,607,463,60,118.0,263,1,416,456,160,0,0,648,3472,11776,625,,,,,,,,,,,,
249643,1560691521450,3,2.4,2.34,3.36,2.6,5.07,0.39,-0.46,1.11,15,0,22,0.6,8865,71,86,33,75,1140,628.0,601,457,60,118.0,244,1,418,446,153,0,0,652,243,-3038,630,45.701107,4.910041,57.67,201.7,2,1.435,0,0.0,0.1033,3,0.1,4.1607
249663,1560691521470,3,2.4,2.32,3.34,2.6,5.08,0.43,-0.49,1.19,15,-0,20,0.65,8815,70,86,33,76,1077,637.0,608,453,60,118.0,244,1,418,456,153,0,0,649,-768,-2830,633,,,,,,,,,,,,
249683,1560691521490,3,2.4,2.31,3.34,2.59,5.06,0.54,-0.58,1.26,15,-3,19,0.79,8802,70,86,33,75,1015,639.0,600,462,60,118.0,244,1,420,446,153,0,0,640,-23055,-8429,639,,,,,,,,,,,,
249703,1560691521505,3,2.39,2.3,3.39,2.59,5.06,0.59,-0.72,1.28,15,-3,18,0.93,8856,69,86,33,75,1000,642.0,596,461,60,118.0,244,1,418,446,153,0,0,663,26688,-8429,642,,,,,,,,,,,,
249723,1560691521525,3,2.39,2.29,3.4,2.59,5.05,0.67,-0.79,1.26,15,-1,19,1.04,8945,69,86,33,74,1004,646.0,593,453,60,118.0,244,1,416,436,153,0,0,662,3403,8958,645,,,,,,,,,,,,
249743,1560691521545,2,2.39,2.28,3.42,2.58,5.07,0.75,-0.91,1.27,15,-2,19,1.18,9036,68,86,33,74,1018,650.0,595,457,60,118.0,226,1,413,436,147,0,0,663,-16883,3543,652,45.701111,4.910062,59.73,201.6,2,1.435,0,0.0,0.105,3,0.1,4.1624
249763,1560691521565,3,2.4,2.3,3.42,2.58,5.07,0.79,-0.91,1.23,15,-3,19,1.2,9164,68,86,33,73,1036,655.0,587,463,60,118.0,226,1,413,427,147,0,0,668,-16883,3543,653,,,,,,,,,,,,
249783,1560691521585,4,2.4,2.32,3.4,2.59,5.04,0.89,-1.01,1.3,15,-2,19,1.35,9250,68,86,33,73,1053,655.0,607,453,60,118.0,226,1,414,427,147,0,0,665,-16046,-2830,655,,,,,,,,,,,,
249803,1560691521595,2,2.4,2.31,3.39,2.58,5.04,0.87,-1.11,1.35,15,-3,18,1.41,9263,66,86,33,72,1067,657.0,612,458,60,118.0,226,1,414,417,147,0,0,682,966,-26562,661,,,,,,,,,,,,
249823,1560691521615,5,2.4,2.3,3.38,2.6,5.04,0.8,-0.98,1.29,15,-3,18,1.27,9218,61,86,33,69,1078,665.0,608,457,60,118.0,226,1,414,398,147,0,0,685,-5120,-10399,664,,,,,,,,,,,,
249843,1560691521635,1,2.4,2.27,3.38,2.59,5.08,0.57,-0.84,1.24,16,-2,18,1.02,9241,56,86,33,67,1088,668.0,611,461,60,118.0,204,1,412,375,136,0,0,694,-10251,-10344,670,45.701115,4.910084,61.65,201.6,2,1.435,0,0.0,0.1067,3,0.11,4.1641
249863,1560691521655,2,2.41,2.26,3.4,2.58,5.07,0.61,-0.77,1.12,16,-3,18,0.98,9245,53,86,33,64,1091,671.0,615,456,60,117.0,204,1,408,361,136,0,0,677,11776,6208,671,,,,,,,,,,,,
249883,1560691521693,2,2.41,2.27,3.42,2.58,5.05,0.75,-0.89,1.08,16,-2,19,1.17,9254,51,86,33,62,1088,672.0,626,453,60,118.0,204,1,406,352,136,0,0,684,11566,1780,672,,,,,,,,,,,,
249903,1560691521713,2,2.4,2.27,3.41,2.57,5.05,0.87,-1.0,1.17,16,-6,19,1.33,9263,51,86,33,60,1077,677.0,618,457,60,118.0,204,1,404,342,136,0,0,686,4909,11576,677,,,,,,,,,,,,
249923,1560691521733,4,2.4,2.26,3.43,2.58,5.05,0.83,-1.04,1.17,15,-6,18,1.33,9277,51,85,33,59,1058,679.0,621,452,60,118.0,204,1,403,336,136,0,0,686,-30207,24,679,,,,,,,,,,,,
249943,1560691521753,3,2.39,2.27,3.42,2.56,5.05,0.66,-0.97,1.03,16,-4,18,1.17,9319,50,85,33,58,1041,681.0,619,455,60,117.0,170,1,404,331,116,0,0,686,-2830,3543,678,45.701118,4.910106,63.62,201.6,2,1.435,0,0.0,0.1083,3,0.11,4.1657
249963,1560691521773,4,2.39,2.26,3.46,2.56,5.07,0.59,-0.91,0.94,16,-5,19,1.09,9384,45,85,33,56,1027,682.0,620,455,60,118.0,170,1,402,322,116,0,0,690,-2830,12333,682,,,,,,,,,,,,
249983,1560691521793,4,2.38,2.25,3.48,2.56,5.05,0.74,-0.95,0.9,16,-3,20,1.21,9403,40,85,33,53,1007,687.0,616,459,60,118.0,170,1,396,302,116,0,0,703,-3038,11576,687,,,,,,,,,,,,
250003,1560691521805,4,2.36,2.25,3.49,2.55,5.07,0.76,-0.96,0.92,15,-6,20,1.22,9412,38,85,33,50,982,688.0,622,458,60,118.0,170,1,387,270,116,0,0,693,-2826,12333,689,,,,,,,,,,,,
250023,1560691521825,1,2.35,2.25,3.49,2.54,5.05,0.57,-0.85,0.87,15,-3,21,1.02,9328,37,85,33,48,960,687.0,626,457,60,117.0,170,1,379,246,116,0,0,699,-10348,-10448,687,,,,,,,,,,,,
250043,1560691521845,0,2.35,2.25,3.47,2.53,5.06,0.61,-0.73,0.75,15,-3,22,0.95,9333,37,85,33,46,949,689.0,623,460,60,118.0,120,1,369,233,83,0,0,690,-3578,16599,689,45.701122,4.910129,65.33,201.5,2,1.435,0,0.0,0.11,3,0.11,4.1674
250063,1560691521865,3,2.33,2.25,3.44,2.52,5.05,0.75,-0.8,0.78,14,-5,22,1.1,9337,37,85,33,45,933,687.0,628,460,60,118.0,120,1,362,230,83,0,0,687,-388,6208,688,,,,,,,,,,,,
250083,1560691521885,2,2.32,2.24,3.42,2.5,5.07,0.88,-0.91,0.88,13,-7,20,1.27,9323,37,85,33,44,909,688.0,621,465,60,118.0,120,1,355,227,83,0,0,685,-388,6208,688,,,,,,,,,,,,
250103,1560691521901,1,2.31,2.24,3.42,2.47,5.06,0.71,-0.76,0.8,13,-6,19,1.04,9328,36,85,33,43,886,689.0,621,460,60,118.0,120,1,348,225,83,0,0,690,-2345,-3584,689,,,,,,,,,,,,
250123,1560691521921,1,2.31,2.24,3.41,2.44,5.05,0.53,-0.59,0.61,13,-3,17,0.79,9370,34,85,33,42,873,689.0,616,466,60,118.0,120,1,341,222,83,0,0,682,-2826,-10448,687,,,,,,,,,,,,
250143,1560691521941,3,2.29,2.24,3.38,2.4,5.07,0.61,-0.59,0.64,11,-3,18,0.85,9370,32,85,33,41,857,685.0,621,453,60,118.0,113,1,334,220,78,0,0,692,-26892,-10448,685,45.701122,4.910153,66.44,201.5,2,1.435,0,0.0,0.1117,3,0.11,4.1691
250163,1560691521961,1,2.29,2.25,3.36,2.37,5.05,0.75,-0.7,0.7,10,-3,16,1.02,9323,31,85,33,39,831,688.0,616,458,60,118.0,113,1,320,214,78,0,0,689,-2345,-10448,688,,,,,,,,,,,,
250183,1560691521993,5,2.27,2.27,3.32,2.36,5.04,0.72,-0.7,0.68,9,-3,14,1.01,9295,30,85,32,38,806,687.0,621,459,60,118.0,113,1,317,211,78,0,0,685,-10344,6208,686,,,,,,,,,,,,
250203,1560691522013,0,2.27,2.27,3.3,2.32,5.05,0.53,-0.5,0.52,8,-0,13,0.73,9245,29,85,32,37,793,685.0,623,460,60,117.0,113,1,314,208,78,0,0,688,-10399,6208,682,,,,,,,,,,,,
250223,1560691522033,-0,2.26,2.29,3.3,2.3,5.04,0.41,-0.26,0.37,7,0,12,0.49,9191,28,85,32,36,780,684.0,617,462,60,118.0,113,1,311,204,78,0,0,684,24845,-2345,684,,,,,,,,,,,,
250243,1560691522053,1,2.25,2.28,3.27,2.25,5.07,0.44,-0.12,0.32,6,1,13,0.46,9164,28,85,32,35,769,687.0,626,460,60,118.0,102,1,308,200,70,0,0,687,6208,24845,681,45.701122,4.910176,66.68,201.5,2,1.435,0,0.0,0.1133,3,0.11,4.1707
250263,1560691522073,-1,2.25,2.29,3.28,2.22,5.05,0.6,-0.07,0.36,5,1,12,0.61,9110,27,85,32,34,759,684.0,626,455,60,118.0,102,1,305,196,70,0,0,681,3543,3543,680,,,,,,,,,,,,
250283,1560691522093,1,2.23,2.28,3.27,2.21,5.03,0.72,-0.11,0.45,3,-1,11,0.73,9057,27,85,32,33,760,684.0,632,458,60,118.0,102,1,302,192,70,0,0,685,3543,-2826,679,,,,,,,,,,,,
250303,1560691522113,1,2.24,2.3,3.27,2.18,5.04,0.85,-0.12,0.5,2,-2,10,0.86,9001,27,85,32,33,763,684.0,625,461,60,119.0,102,1,302,191,70,0,0,687,24845,-26562,680,,,,,,,,,,,,
250323,1560691522133,2,2.22,2.3,3.25,2.14,5.06,0.97,-0.19,0.59,1,-2,9,0.98,8958,27,85,32,33,763,686.0,637,455,60,119.0,102,1,302,191,70,0,0,686,16599,-2345,679,,,,,,,,,,,,
250343,1560691522153,1,2.22,2.29,3.22,2.1,5.07,1.07,-0.14,0.62,-1,-4,8,1.08,8945,27,85,32,33,763,683.0,624,456,60,118.0,96,1,302,191,65,0,0,682,24,-26562,679,45.701122,4.910201,66.74,201.5,2,1.435,0,0.0,0.115,3,0.11,4.1724
250363,1560691522173,1,2.22,2.3,3.22,2.07,5.04,1.15,-0.09,0.65,-2,-3,7,1.15,8945,26,85,32,32,761,687.0,622,458,60,118.0,96,1,300,188,65,0,0,681,6208,-26892,679,,,,,,,,,,,,
250383,1560691522191,1,2.21,2.32,3.2,2.05,5.08,1.2,0.05,0.61,-3,-4,6,1.2,8915,26,85,32,32,759,684.0,618,457,60,118.0,96,1,300,188,65,0,0,685,24845,8958,675,,,,,,,,,,,,
250403,1560691522211,-1,2.21,2.34,3.15,2.03,5.07,1.21,0.16,0.6,-4,-3,6,1.22,8915,26,85,32,32,758,686.0,620,453,60,118.0,96,1,300,188,65,0,0,689,3543,-26380,674,,,,,,,,,,,,
250423,1560691522231,-1,2.21,2.35,3.12,2.01,5.05,1.14,0.34,0.48,-4,-2,5,1.19,8924,26,85,32,32,757,685.0,620,460,60,118.0,96,1,300,188,65,0,0,680,-10399,8958,674,,,,,,,,,,,,
250443,1560691522251,2,2.2,2.37,3.12,1.99,5.05,1.09,0.51,0.36,-5,-0,4,1.2,9014,26,85,32,32,758,684.0,622,460,60,118.0,95,1,300,188,64,0,0,673,24845,-26380,671,45.701122,4.910224,66.33,201.5,2,1.435,0,0.0,0.1167,3,0.12,4.174
250463,1560691522271,2,2.2,2.36,3.12,1.97,5.06,1.1,0.66,0.32,-6,-2,4,1.28,9124,25,85,32,31,760,684.0,625,456,60,118.0,95,1,295,189,64,0,0,677,24845,-2826,670,,,,,,,,,,,,
250483,1560691522291,0,2.21,2.37,3.14,1.95,5.05,1.19,0.62,0.38,-6,-1,3,1.34,9173,25,85,32,31,766,680.0,629,458,60,118.0,95,1,295,190,64,0,0,671,-10344,31988,669,,,,,,,,,,,,
250503,1560691522311,1,2.21,2.37,3.15,1.95,5.04,1.27,0.4,0.49,-7,-4,1,1.34,9159,25,85,32,31,774,682.0,636,459,60,118.0,95,1,295,190,64,0,0,678,-10344,-3578,665,,,,,,,,,,,,
250523,1560691522331,1,2.21,2.39,3.16,1.94,5.06,1.33,0.21,0.64,-8,-5,-1,1.35,9141,25,85,32,30,780,681.0,633,458,60,118.0,95,1,291,189,64,0,0,677,-26562,-10348,666,,,,,,,,,,,,
250543,1560691522351,3,2.19,2.41,3.13,1.94,5.07,1.4,0.09,0.71,-9,-5,-4,1.4,9115,25,85,32,30,786,681.0,624,462,60,118.0,98,1,291,189,65,0,0,682,-26562,-2830,663,45.701126,4.910248,65.65,201.5,2,1.435,0,0.0,0.1183,3,0.12,4.1757
250563,1560691522371,3,2.2,2.41,3.09,1.94,5.05,1.33,0.1,0.73,-9,-5,-5,1.33,9079,25,85,32,30,794,679.0,621,461,60,118.0,98,1,291,188,65,0,0,682,-10346,-3038,662,,,,,,,,,,,,
250583,1560691522391,4,2.19,2.41,3.09,1.92,5.04,1.29,0.1,0.71,-9,-4,-7,1.29,9057,25,85,32,30,802,678.0,618,462,60,118.0,98,1,291,188,65,0,0,679,-26562,-3488,662,,,,,,,,,,,,
250603,1560691522407,5,2.18,2.43,3.07,1.92,5.05,1.13,0.18,0.68,-9,-4,-9,1.15,9084,25,85,32,30,807,677.0,620,459,60,118.0,98,1,291,188,65,0,0,677,-26892,-27404,658,,,,,,,,,,,,
250623,1560691522427,4,2.18,2.43,3.07,1.91,5.04,1.06,0.29,0.57,-10,-2,-10,1.1,9040,24,85,32,30,810,678.0,622,457,60,118.0,98,1,291,188,65,0,0,675,-10346,-6006,660,,,,,,,,,,,,
250643,1560691522447,4,2.18,2.43,3.08,1.89,5.05,0.88,0.44,0.5,-10,-2,-10,0.98,9049,24,85,32,30,809,679.0,616,460,60,118.0,96,1,291,188,64,0,0,677,-2826,31988,658,45.701126,4.910272,65.33,201.5,2,1.435,0,0.0,0.12,3,0.12,4.1774
250663,1560691522467,3,2.19,2.44,3.06,1.88,5.06,0.75,0.6,0.4,-10,0,-13,0.96,9036,24,85,32,30,808,678.0,618,459,60,118.0,96,1,291,188,64,0,0,679,-26892,31988,655,,,,,,,,,,,,
250683,1560691522487,4,2.19,2.44,3.06,1.88,5.08,0.65,0.74,0.27,-11,1,-13,0.98,8992,24,85,32,30,805,675.0,618,456,60,118.0,96,1,291,188,64,0,0,673,-10346,24583,655,,,,,,,,,,,,
250703,1560691522506,5,2.19,2.45,3.06,1.87,5.07,0.59,0.85,0.24,-11,2,-13,1.03,8997,24,85,32,30,802,674.0,623,459,60,118.0,96,1,291,188,64,0,0,669,-10344,-2830,653,,,,,,,,,,,,
250723,1560691522526,4,2.18,2.45,3.06,1.86,5.05,0.49,0.96,0.16,-11,2,-13,1.08,8962,24,85,32,30,800,676.0,623,456,60,118.0,96,1,291,188,64,0,0,674,-2826,24583,654,,,,,,,,,,,,
250743,1560691522546,3,2.18,2.45,3.06,1.86,5.07,0.46,0.97,0.11,-11,3,-14,1.08,8984,24,85,32,29,800,674.0,624,460,60,118.0,96,1,287,188,63,0,0,672,-26380,-3488,652,45.70113,4.910296,64.59,201.5,2,1.435,0,0.0,0.1217,3,0.12,4.179
250763,1560691522566,5,2.18,2.46,3.05,1.86,5.07,0.37,1.04,-0.01,-11,4,-14,1.1,8988,24,85,32,29,802,674.0,630,456,60,118.0,96,1,287,188,63,0,0,676,-26380,-8429,652,,,,,,,,,,,,
250783,1560691522586,4,2.18,2.47,3.04,1.87,5.04,0.36,1.06,-0.02,-12,5,-15,1.11,8941,24,85,32,29,806,670.0,616,460,60,118.0,96,1,287,188,63,0,0,666,-3038,-3584,649,,,,,,,,,,,,
250803,1560691522602,4,2.17,2.47,3.04,1.85,5.08,0.31,1.02,-0.02,-12,5,-15,1.07,8962,24,85,32,29,814,672.0,622,456,60,118.0,96,1,287,188,63,0,0,666,-3038,-30207,650,,,,,,,,,,,,
250823,1560691522622,3,2.17,2.47,3.03,1.84,5.04,0.34,0.9,-0.04,-12,6,-17,0.96,8920,24,85,32,29,825,669.0,606,458,60,118.0,96,1,287,188,63,0,0,667,31988,244,647,,,,,,,,,,,,
250843,1560691522642,3,2.16,2.45,3.03,1.83,5.02,0.38,0.78,0.01,-13,5,-18,0.87,8894,23,85,32,29,834,671.0,613,453,60,118.0,96,1,287,188,63,0,0,670,8958,244,649,45.70113,4.910317,63.7,201.5,2,1.435,0,0.0,0.1233,3,0.12,4.1807
250863,1560691522662,2,2.18,2.47,3.04,1.83,5.04,0.49,0.69,0.06,-13,4,-19,0.84,8877,23,85,32,29,841,672.0,604,457,60,118.0,96,1,287,188,63,0,0,669,-388,4909,645,,,,,,,,,,,,
250883,1560691522682,3,2.17,2.51,3.04,1.83,5.07,0.57,0.57,0.15,-13,4,-20,0.8,8848,23,85,32,29,850,667.0,618,454,60,118.0,96,1,287,188,63,0,0,664,-388,6208,645,,,,,,,,,,,,
250903,1560691522702,2,2.17,2.52,3.04,1.83,5.08,0.71,0.47,0.26,-14,3,-22,0.85,8840,23,85,32,29,861,668.0,616,456,60,119.0,96,1,287,188,63,0,0,668,-2830,24,644,,,,,,,,,,,,
250923,1560691522722,1,2.18,2.52,3.04,1.83,5.07,0.84,0.38,0.43,-14,0,-21,0.92,8840,23,85,32,29,871,667.0,625,451,60,118.0,96,1,287,188,63,0,0,660,-3578,11776,644,,,,,,,,,,,,
250943,1560691522742,-0,2.18,2.52,3.03,1.82,5.07,0.94,0.45,0.46,-15,-2,-21,1.04,8840,23,85,32,29,876,665.0,624,453,60,118.0,98,1,287,188,63,0,0,667,3543,-10251,640,45.701134,4.91034,62.96,201.5,2,1.435,0,0.0,0.125,3,0.13,4.1824
250963,1560691522762,0,2.18,2.51,3.04,1.81,5.04,0.94,0.54,0.46,-16,-2,-20,1.08,8840,23,85,32,29,882,665.0,624,453,60,118.0,98,1,287,188,63,0,0,661,3543,-4876,641,,,,,,,,,,,,
250983,1560691522782,0,2.18,2.5,3.04,1.81,5.05,0.92,0.68,0.37,-16,-1,-20,1.14,8798,23,85,32,29,890,665.0,620,458,60,118.0,98,1,287,188,63,0,0,658,3543,16599,640,,,,,,,,,,,,
251003,1560691522800,2,2.18,2.51,3.02,1.82,5.05,0.76,0.81,0.3,-15,-0,-18,1.11,8794,23,85,32,29,898,660.0,629,453,60,118.0,98,1,287,188,63,0,0,660,-2345,-5120,643,,,,,,,,,,,,
251023,1560691522820,3,2.18,2.5,3.03,1.81,5.08,0.71,0.83,0.26,-15,1,-19,1.09,8819,23,85,32,29,902,658.0,611,458,60,118.0,98,1,287,188,63,0,0,660,-3038,3,638,,,,,,,,,,,,
251043,1560691522840,4,2.17,2.49,3.0,1.8,5.03,0.72,0.79,0.34,-15,2,-21,1.07,8790,23,85,32,29,904,661.0,615,455,60,118.0,97,1,287,188,62,0,0,657,-10344,-10251,639,45.701138,4.910363,62.44,201.5,2,1.435,0,0.0,0.1267,3,0.13,4.1841
251063,1560691522860,3,2.17,2.49,3.03,1.79,5.07,0.83,0.6,0.41,-15,2,-22,1.03,8769,23,85,32,29,904,658.0,607,455,60,118.0,97,1,287,188,62,0,0,655,-2345,-2580,637,,,,,,,,,,,,
251083,1560691522880,-0,2.18,2.49,3.04,1.8,5.04,0.9,0.61,0.42,-16,2,-21,1.08,8773,23,85,32,29,904,659.0,607,458,60,119.0,97,1,287,188,62,0,0,659,-26380,-5120,635,,,,,,,,,,,,
251103,1560691522896,0,2.18,2.49,3.04,1.81,5.03,0.91,0.65,0.43,-16,0,-21,1.12,8769,23,85,32,29,900,657.0,608,453,60,118.0,97,1,287,188,62,0,0,652,8958,-14655,635,,,,,,,,,,,,
251123,1560691522916,2,2.18,2.52,3.01,1.81,5.06,0.82,0.75,0.42,-15,-0,-20,1.11,8753,23,85,32,29,897,657.0,610,454,60,118.0,97,1,287,188,62,0,0,655,8958,-14655,633,,,,,,,,,,,,
251143,1560691522936,4,2.17,2.55,3.01,1.84,5.03,0.74,0.83,0.36,-15,-0,-20,1.11,8696,23,85,32,29,891,654.0,612,450,60,118.0,98,1,287,188,62,0,0,647,-2830,-4876,630,45.701141,4.910385,61.75,201.5,2,1.435,0,0.0,0.1283,3,0.13,4.1857
251163,1560691522956,3,2.16,2.56,3.04,1.84,5.04,0.79,0.76,0.4,-15,-1,-21,1.1,8680,23,85,32,29,886,653.0,615,456,60,119.0,98,1,287,188,62,0,0,651,-3488,-4876,628,,,,,,,,,,,,
251183,1560691522994,1,2.17,2.55,3.07,1.81,5.04,0.9,0.72,0.51,-15,-4,-20,1.15,8652,23,85,32,29,884,648.0,615,458,60,119.0,98,1,287,188,62,0,0,649,479,-2836,629,,,,,,,,,,,,
251203,1560691523014,-1,2.17,2.54,3.08,1.8,5.07,0.91,0.76,0.47,-15,-3,-20,1.19,8616,23,85,32,29,882,653.0,624,456,60,118.0,98,1,287,188,62,0,0,650,-3488,20993,632,,,,,,,,,,,,
251223,1560691523034,4,2.17,2.56,3.1,1.78,5.04,0.77,0.84,0.4,-15,-2,-21,1.14,8616,23,85,32,30,877,652.0,627,452,60,118.0,98,1,291,188,62,0,0,650,24583,19320,627,,,,,,,,,,,,
251243,1560691523054,3,2.17,2.55,3.12,1.77,5.04,0.76,0.73,0.41,-15,-0,-23,1.06,8636,23,85,32,29,871,652.0,610,461,60,119.0,97,1,287,188,61,0,0,648,24583,3403,625,45.701145,4.910407,61.19,201.5,2,1.435,0,0.0,0.13,3,0.13,4.1874
251263,1560691523074,1,2.19,2.53,3.1,1.76,5.05,0.82,0.68,0.43,-15,0,-23,1.07,8624,22,85,32,29,867,656.0,600,458,60,119.0,97,1,287,188,61,0,0,650,-388,966,628,,,,,,,,,,,,
251283,1560691523094,4,2.18,2.53,3.07,1.76,5.07,0.8,0.76,0.37,-16,0,-22,1.1,8624,22,85,32,30,864,654.0,609,455,60,118.0,97,1,291,188,61,0,0,647,-2830,17336,627,,,,,,,,,,,,
251303,1560691523114,2,2.19,2.53,3.0,1.77,5.07,0.73,0.8,0.35,-16,2,-22,1.08,8585,22,85,32,29,857,651.0,600,455,60,119.0,97,1,287,188,61,0,0,653,2024,3403,623,,,,,,,,,,,,
251323,1560691523134,1,2.19,2.54,2.93,1.76,5.07,0.74,0.72,0.5,-15,2,-23,1.04,8616,22,85,32,29,850,646.0,603,457,60,118.0,97,1,287,188,61,0,0,645,4909,-28304,622,,,,,,,,,,,,
251343,1560691523154,1,2.19,2.54,2.94,1.78,5.06,0.87,0.72,0.58,-15,1,-23,1.13,8604,22,85,32,29,846,646.0,602,461,60,119.0,97,1,287,188,61,0,0,644,4909,-18357,623,45.701153,4.910427,60.65,201.5,2,1.435,0,0.0,0.1317,3,0.13,4.1891
251363,1560691523174,5,2.19,2.52,2.93,1.77,5.04,0.88,0.74,0.53,-15,0,-22,1.15,8577,22,85,32,29,842,644.0,611,455,60,118.0,97,1,287,188,61,0,0,645,11776,26688,623,,,,,,,,,,,,
251383,1560691523194,2,2.18,2.51,2.95,1.76,5.07,0.77,0.73,0.45,-15,2,-23,1.06,8600,22,85,32,29,838,644.0,610,453,60,118.0,97,1,287,188,61,0,0,643,11776,19320,625,,,,,,,,,,,,
251403,1560691523210,1,2.18,2.51,2.97,1.75,5.08,0.78,0.71,0.53,-14,2,-22,1.06,8546,22,85,32,29,833,643.0,607,456,60,118.0,97,1,287,188,61,0,0,647,244,3403,620,,,,,,,,,,,,
251423,1560691523230,0,2.18,2.51,3.02,1.77,5.04,0.82,0.73,0.45,-14,0,-23,1.1,8538,22,85,32,29,831,642.0,620,453,60,118.0,97,1,287,188,61,0,0,636,-2830,3395,621,,,,,,,,,,,,
251443,1560691523250,1,2.18,2.51,3.06,1.77,5.04,0.78,0.73,0.43,-14,1,-22,1.07,8507,22,85,32,29,830,640.0,610,456,60,118.0,97,1,287,186,60,0,0,637,24,19320,620,45.70116,4.910448,60.21,201.5,2,1.435,0,0.0,0.1333,3,0.13,4.1907
251463,1560691523270,1,2.18,2.51,3.05,1.79,5.08,0.84,0.7,0.53,-15,0,-22,1.1,8449,22,85,32,29,830,639.0,606,455,60,119.0,97,1,286,184,60,0,0,639,6208,19320,618,,,,,,,,,,,,
251483,1560691523290,6,2.17,2.53,3.04,1.81,5.05,0.84,0.71,0.37,-15,-0,-21,1.1,8449,22,85,32,29,829,635.0,611,460,60,118.0,97,1,286,184,60,0,0,636,-4876,26688,613,,,,,,,,,,,,
251503,1560691523306,1,2.19,2.56,3.04,1.83,5.06,0.73,0.76,0.31,-14,1,-21,1.05,8476,22,85,32,29,830,636.0,606,456,60,118.0,97,1,286,186,60,0,0,632,-5120,269,614,,,,,,,,,,,,
251523,1560691523326,0,2.18,2.56,3.05,1.82,5.04,0.81,0.69,0.38,-14,-1,-22,1.06,8491,22,85,32,29,831,631.0,597,453,60,119.0,97,1,286,187,60,0,0,629,-2836,-28304,613,,,,,,,,,,,,
251543,1560691523346,5,2.18,2.54,3.06,1.79,5.03,0.85,0.7,0.31,-14,-1,-21,1.1,8442,22,85,32,29,831,633.0,596,453,60,118.0,96,1,286,183,59,0,0,632,-5120,1010,612,45.701164,4.910467,59.47,201.5,2,1.435,0,0.0,0.135,3,0.14,4.1924
251563,1560691523366,3,2.18,2.52,3.1,1.76,5.07,0.82,0.67,0.38,-14,-1,-21,1.06,8415,21,85,32,30,831,633.0,599,455,60,118.0,96,1,290,183,59,0,0,630,-5120,19621,615,,,,,,,,,,,,
251583,1560691523386,-1,2.19,2.51,3.1,1.74,5.04,0.87,0.73,0.37,-14,-0,-21,1.14,8389,21,85,32,29,831,637.0,598,460,60,118.0,96,1,285,182,59,0,0,631,-10251,1010,611,,,,,,,,,,,,
251603,1560691523406,3,2.18,2.51,3.11,1.74,5.08,0.83,0.77,0.34,-14,1,-22,1.13,8404,21,85,32,29,830,634.0,597,455,60,118.0,96,1,285,183,59,0,0,630,-2836,-3210,610,,,,,,,,,,,,
251623,1560691523426,-1,2.19,2.52,3.09,1.75,5.05,0.85,0.75,0.42,-14,2,-22,1.13,8400,21,85,32,29,829,636.0,596,458,60,119.0,96,1,286,183,59,0,0,630,-2580,28675,610,,,,,,,,,,,,
251643,1560691523446,5,2.18,2.52,3.03,1.75,5.04,0.9,0.77,0.36,-14,2,-21,1.18,8374,21,85,32,29,828,632.0,605,455,60,118.0,95,1,285,181,58,0,0,632,3,-23055,608,45.701172,4.910487,59.73,201.5,2,1.435,0,0.0,0.1367,3,0.14,4.194
251663,1560691523466,0,2.17,2.52,2.98,1.75,5.04,0.82,0.79,0.4,-13,2,-22,1.13,8363,21,85,32,29,828,632.0,603,456,60,118.0,95,1,285,180,58,0,0,628,3,-23055,610,,,,,,,,,,,,
251683,1560691523486,1,2.17,2.52,2.99,1.76,5.04,0.88,0.85,0.38,-13,1,-21,1.22,8348,21,85,32,29,827,630.0,607,461,60,119.0,95,1,284,179,58,0,0,627,20993,28675,607,,,,,,,,,,,,
251703,1560691523503,4,2.17,2.51,2.99,1.75,5.04,0.84,0.86,0.41,-13,1,-22,1.2,8344,21,85,32,29,828,629.0,607,455,60,118.0,95,1,284,182,58,0,0,624,20993,-30139,606,,,,,,,,,,,,
251723,1560691523523,1,2.18,2.51,3.01,1.75,5.04,0.82,0.79,0.46,-13,-0,-23,1.14,8370,21,85,32,29,828,626.0,605,454,60,118.0,95,1,285,181,58,0,0,625,506,-7939,604,,,,,,,,,,,,
251743,1560691523543,4,2.17,2.51,3.02,1.75,5.07,0.86,0.78,0.39,-13,-0,-23,1.17,8337,21,85,32,29,829,623.0,601,458,60,118.0,92,1,284,179,56,0,0,620,3395,-3210,602,45.70118,4.910506,58.38,201.4,2,1.435,0,0.0,0.1383,3,0.14,4.1957
251763,1560691523563,-1,2.19,2.51,3.06,1.75,5.05,0.82,0.77,0.42,-13,-1,-22,1.12,8274,21,85,32,29,830,624.0,585,458,60,119.0,92,1,284,177,56,0,0,623,-16883,23619,606,,,,,,,,,,,,
251783,1560691523583,4,2.19,2.5,3.06,1.75,5.04,0.88,0.8,0.4,-13,-1,-23,1.19,8252,20,85,32,29,832,625.0,593,457,60,118.0,92,1,284,176,56,0,0,621,506,23619,604,,,,,,,,,,,,
251803,1560691523601,1,2.19,2.49,3.07,1.75,5.06,0.83,0.77,0.43,-13,-0,-23,1.13,8241,20,85,32,29,834,624.0,577,454,60,119.0,92,1,283,175,56,0,0,616,17336,243,601,,,,,,,,,,,,
251823,1560691523621,6,2.19,2.47,3.08,1.75,5.03,0.83,0.82,0.34,-13,0,-23,1.17,8241,18,85,32,29,835,622.0,584,452,60,118.0,92,1,283,175,56,0,0,615,3395,4956,599,,,,,,,,,,,,
251843,1560691523641,2,2.21,2.47,3.07,1.75,5.05,0.87,0.72,0.4,-13,1,-22,1.12,8184,18,85,32,28,836,618.0,577,453,60,119.0,88,1,279,172,53,0,0,610,269,30227,598,45.701187,4.910524,58.69,201.4,2,1.435,0,0.0,0.14,3,0.14,4.1974
251863,1560691523661,6,2.21,2.45,3.05,1.75,5.07,0.92,0.77,0.36,-13,2,-23,1.2,8202,18,85,32,28,837,617.0,587,454,60,118.0,88,1,279,173,53,0,0,611,16529,-28648,598,,,,,,,,,,,,
251883,1560691523681,4,2.2,2.43,3.05,1.75,5.07,0.9,0.65,0.39,-12,1,-22,1.11,8159,17,85,32,27,838,612.0,584,456,60,119.0,88,1,276,170,53,0,0,613,-28304,-25872,597,,,,,,,,,,,,
251903,1560691523699,7,2.21,2.42,3.05,1.76,5.06,0.98,0.68,0.37,-13,1,-21,1.19,8088,17,85,32,27,840,606.0,584,452,60,118.0,88,1,276,166,53,0,0,604,-30139,-1894,592,,,,,,,,,,,,
251923,1560691523719,9,2.21,2.41,3.06,1.76,5.05,0.96,0.68,0.38,-12,0,-21,1.17,8033,17,85,32,27,840,605.0,598,454,60,118.0,88,1,275,162,53,0,0,601,-3820,-1894,586,,,,,,,,,,,,
251943,1560691523739,9,2.2,2.39,3.09,1.76,5.04,0.96,0.57,0.42,-12,-1,-21,1.12,8019,17,85,32,27,841,602.0,586,455,60,119.0,85,1,275,162,50,0,0,595,30227,10432,585,45.701199,4.910541,57.98,201.4,2,1.435,0,0.0,0.1417,3,0.14,4.199
251963,1560691523759,9,2.21,2.38,3.12,1.77,5.04,1.05,0.64,0.43,-12,-2,-20,1.23,7944,17,85,32,27,841,596.0,570,450,60,119.0,85,1,275,161,50,0,0,597,17344,-16384,585,,,,,,,,,,,,
251983,1560691523779,13,2.2,2.36,3.16,1.75,5.05,1.03,0.68,0.42,-12,-1,-19,1.23,7858,17,85,32,27,842,594.0,581,457,60,118.0,85,1,274,161,50,0,0,590,-13043,-8188,582,,,,,,,,,,,,
252003,1560691523799,14,2.2,2.35,3.19,1.76,5.04,1.0,0.6,0.41,-11,-3,-19,1.16,7845,17,85,32,27,842,592.0,570,457,60,118.0,85,1,274,161,50,0,0,587,-28648,-23623,577,,,,,,,,,,,,
252023,1560691523819,12,2.21,2.34,3.21,1.75,5.07,1.07,0.52,0.42,-11,-2,-19,1.2,7744,17,85,32,27,842,591.0,561,458,60,118.0,85,1,273,161,50,0,0,582,6273,-23623,572,,,,,,,,,,,,
252043,1560691523839,9,2.22,2.33,3.21,1.75,5.05,1.12,0.54,0.5,-11,-1,-18,1.24,7728,17,85,32,27,843,588.0,548,457,60,119.0,82,1,273,161,47,0,0,574,-1894,-30159,572,45.701202,4.910557,56.68,201.3,2,1.435,0,0.0,0.1433,3,0.14,4.2007
252063,1560691523859,10,2.22,2.33,3.21,1.76,5.04,1.12,0.58,0.47,-11,-2,-19,1.26,7634,16,85,32,28,843,581.0,548,453,60,118.0,82,1,276,161,47,0,0,570,10432,-28648,568,,,,,,,,,,,,
252083,1560691523897,11,2.22,2.32,3.2,1.76,5.05,1.12,0.6,0.41,-11,-2,-18,1.27,7609,16,85,32,28,843,581.0,555,456,60,118.0,82,1,276,163,47,0,0,570,-3210,-22359,563,,,,,,,,,,,,
252103,1560691523917,9,2.23,2.3,3.2,1.74,5.06,1.12,0.65,0.39,-12,-0,-16,1.29,7591,16,85,32,28,844,575.0,548,456,60,118.0,82,1,275,163,47,0,0,565,259,-9072,562,,,,,,,,,,,,
252123,1560691523937,12,2.22,2.28,3.19,1.73,5.04,1.06,0.71,0.37,-11,-0,-17,1.27,7542,16,85,33,28,845,574.0,556,456,60,118.0,82,1,275,163,47,0,0,563,1760,2524,559,,,,,,,,,,,,
252143,1560691523957,12,2.22,2.28,3.18,1.75,5.04,1.05,0.77,0.23,-12,-1,-16,1.3,7545,16,85,33,28,847,568.0,550,458,60,118.0,82,1,275,163,46,0,0,561,-2934,-506,553,45.701214,4.910574,56.62,201.3,2,1.435,0,0.0,0.145,3,0.15,4.2024
252163,1560691523977,10,2.22,2.27,3.17,1.74,5.04,1.03,0.78,0.12,-11,-1,-15,1.29,7476,16,85,33,28,848,563.0,553,459,60,118.0,82,1,275,163,46,0,0,556,2211,-3082,548,,,,,,,,,,,,
252183,1560691523997,9,2.22,2.26,3.17,1.74,5.05,1.01,0.81,0.12,-11,-1,-14,1.29,7461,15,85,33,28,849,560.0,541,453,60,118.0,82,1,275,163,46,0,0,555,6273,1780,546,,,,,,,,,,,,
252203,1560691524005,10,2.2,2.25,3.18,1.75,5.04,1.0,0.89,0.18,-11,-2,-15,1.33,7390,15,85,33,28,852,556.0,543,455,60,120.0,82,1,274,163,46,0,0,550,-22263,6274,544,,,,,,,,,,,,
252223,1560691524025,11,2.19,2.26,3.18,1.74,5.05,1.01,0.82,0.18,-12,-3,-15,1.3,7205,15,85,33,28,855,553.0,533,457,60,120.0,82,1,274,163,46,0,0,544,-9072,6274,538,,,,,,,,,,,,
252243,1560691524045,10,2.2,2.26,3.19,1.74,5.05,1.11,0.67,0.23,-12,-4,-14,1.29,7115,15,85,33,28,857,548.0,528,457,60,119.0,81,1,273,163,44,0,0,540,14504,2524,533,45.701221,4.910588,55.42,201.2,2,1.435,0,0.0,0.1467,3,0.15,4.2041
252263,1560691524065,10,2.18,2.25,3.22,1.74,5.04,1.09,0.68,0.15,-11,-2,-13,1.28,7035,15,85,33,28,858,544.0,526,458,60,119.0,81,1,272,163,44,0,0,525,1779,26178,528,,,,,,,,,,,,
252283,1560691524093,12,2.18,2.26,3.22,1.73,5.04,1.07,0.73,0.14,-12,-2,-13,1.29,6980,15,85,33,29,861,541.0,507,456,60,119.0,81,1,277,164,44,0,0,525,-8186,-4054,525,,,,,,,,,,,,
252303,1560691524113,14,2.18,2.25,3.24,1.72,5.04,1.09,0.63,0.22,-12,-3,-15,1.26,6944,15,85,33,29,863,537.0,509,455,60,118.0,81,1,277,245,44,0,0,518,-32248,248,519,,,,,,,,,,,,
252323,1560691524133,12,2.17,2.26,3.25,1.72,5.06,1.11,0.67,0.14,-12,-2,-16,1.3,6848,15,85,33,29,863,534.0,511,458,60,117.0,81,1,278,228,44,0,0,516,-32248,10408,514,,,,,,,,,,,,
252343,1560691524153,14,2.17,2.26,3.24,1.72,5.04,1.06,0.59,0.16,-12,-3,-17,1.22,6936,15,85,33,29,862,531.0,501,459,60,117.0,112,1,277,211,58,0,0,517,-22519,-6656,507,45.701233,4.910602,53.66,201.2,2,1.435,0,0.0,0.1483,3,0.15,4.2057
252363,1560691524173,12,2.17,2.26,3.24,1.71,5.06,1.1,0.56,0.13,-12,-1,-16,1.24,6923,15,85,33,29,868,527.0,508,461,60,116.0,112,1,277,195,58,0,0,520,6274,-32768,503,,,,,,,,,,,,
252383,1560691524193,13,2.17,2.26,3.23,1.72,5.06,1.05,0.63,0.11,-13,-3,-16,1.23,6858,15,85,33,30,876,522.0,505,458,60,116.0,112,1,282,181,58,0,0,513,2524,-6656,498,,,,,,,,,,,,
252403,1560691524213,11,2.16,2.27,3.22,1.72,5.07,1.06,0.63,0.14,-13,-2,-16,1.23,6751,14,85,33,30,883,518.0,497,455,60,119.0,112,1,282,166,58,0,0,514,1341,-32768,496,,,,,,,,,,,,
252423,1560691524233,14,2.17,2.27,3.19,1.72,5.07,1.02,0.69,0.18,-12,-4,-19,1.23,6694,14,85,33,30,890,515.0,492,460,60,118.0,112,1,282,166,58,0,0,515,-14,-1562,490,,,,,,,,,,,,
252443,1560691524253,8,2.17,2.27,3.21,1.69,5.05,1.04,0.66,0.13,-13,-10,-22,1.23,6694,14,85,33,30,932,514.0,501,462,60,119.0,84,1,282,167,42,0,0,481,-3482,30272,489,45.701241,4.910615,51.72,201.1,2,1.435,0,0.0,0.15,3,0.15,4.2074
252463,1560691524273,14,2.17,2.25,3.23,1.67,5.07,0.92,0.64,0.13,-12,-5,-23,1.12,6737,14,85,33,31,1008,506.0,501,458,60,118.0,84,1,286,167,42,0,0,458,-28648,2524,484,,,,,,,,,,,,
252483,1560691524293,11,2.16,2.22,3.27,1.64,5.06,1.03,0.5,0.07,-13,-4,-23,1.15,6993,14,85,33,31,1080,503.0,506,458,60,119.0,84,1,285,167,42,0,0,453,11560,-26615,480,,,,,,,,,,,,
252503,1560691524313,11,2.16,2.22,3.29,1.64,5.04,0.94,0.57,-0.09,-13,-3,-20,1.1,7217,14,85,33,31,1146,499.0,515,462,60,118.0,84,1,286,167,42,0,0,405,771,-32702,472,,,,,,,,,,,,
252523,1560691524333,10,2.16,2.22,3.32,1.65,5.04,1.0,0.58,-0.17,-14,-1,-20,1.16,7281,14,85,33,30,1206,495.0,526,461,60,118.0,84,1,282,166,42,0,0,406,771,240,468,,,,,,,,,,,,
252543,1560691524353,8,2.17,2.22,3.31,1.65,5.06,1.06,0.59,-0.06,-15,-2,-20,1.21,7387,13,85,33,29,1257,491.0,534,459,60,118.0,98,1,278,164,46,0,0,391,248,770,461,45.701252,4.910627,49.31,201.1,2,1.435,0,0.0,0.1517,3,0.15,4.2091
252563,1560691524373,10,2.16,2.22,3.28,1.65,5.04,1.04,0.73,0.02,-16,-1,-20,1.27,7396,13,85,33,29,1291,485.0,537,457,60,118.0,98,1,278,164,46,0,0,398,-6441,-1562,455,,,,,,,,,,,,
252583,1560691524393,11,2.16,2.24,3.27,1.63,5.06,1.12,0.76,0.05,-17,-3,-21,1.35,7470,13,85,33,29,1274,482.0,533,457,60,118.0,98,1,278,164,46,0,0,422,8488,6384,450,,,,,,,,,,,,
252603,1560691524413,9,2.16,2.25,3.25,1.62,5.07,1.13,0.77,0.03,-18,-2,-24,1.37,7548,13,85,33,28,1240,474.0,546,458,60,118.0,98,1,275,163,46,0,0,427,-9203,-6475,439,,,,,,,,,,,,
252623,1560691524433,10,2.16,2.25,3.24,1.61,5.04,1.21,0.83,0.06,-18,-4,-25,1.46,7678,13,85,33,27,1180,466.0,544,457,60,118.0,98,1,272,161,46,0,0,426,-3210,230,433,,,,,,,,,,,,
252643,1560691524453,11,2.17,2.25,3.26,1.58,5.08,1.17,0.91,0.09,-19,-5,-26,1.48,7684,13,85,33,27,1125,465.0,561,459,60,118.0,105,1,272,161,46,0,0,431,12552,3183,432,45.70126,4.910638,47.67,201.0,2,1.435,0,0.0,0.1533,3,0.15,4.2107
252663,1560691524473,9,2.17,2.27,3.26,1.57,5.05,1.14,0.99,0.07,-19,-5,-24,1.5,7643,13,85,33,27,1081,459.0,554,458,60,118.0,105,1,272,161,46,0,0,443,-18108,3082,425,,,,,,,,,,,,
252683,1560691524492,12,2.16,2.31,3.22,1.58,5.04,1.06,1.04,0.02,-19,-4,-24,1.48,7539,13,85,33,26,1038,457.0,559,461,60,118.0,105,1,268,161,46,0,0,444,-9160,1,420,,,,,,,,,,,,
252703,1560691524512,11,2.17,2.33,3.18,1.57,5.04,0.98,1.0,0.0,-19,-3,-24,1.4,7560,13,85,33,26,995,452.0,556,461,60,119.0,105,1,268,160,46,0,0,433,-6387,-1818,417,,,,,,,,,,,,
252723,1560691524532,11,2.16,2.33,3.21,1.55,5.05,0.9,1.01,-0.07,-18,-3,-25,1.35,7563,13,85,33,26,959,447.0,557,461,60,119.0,105,1,268,160,46,0,0,423,-18341,-6656,415,,,,,,,,,,,,
252743,1560691524552,10,2.17,2.32,3.25,1.56,5.05,0.91,0.87,-0.08,-17,-4,-25,1.26,7600,13,85,33,26,958,441.0,549,460,60,119.0,111,1,269,160,46,0,0,424,26704,742,412,45.701267,4.910648,45.1,201.0,2,1.435,0,0.0,0.155,3,0.15,4.2124
252763,1560691524572,9,2.18,2.32,3.27,1.57,5.04,0.97,0.84,-0.05,-17,-3,-25,1.28,7545,13,85,33,26,958,435.0,558,461,60,118.0,111,1,268,160,46,0,0,420,-7939,-6475,411,,,,,,,,,,,,
252783,1560691524592,5,2.19,2.32,3.26,1.57,5.06,0.92,0.72,0.01,-16,-2,-26,1.17,7518,13,85,33,26,957,435.0,551,460,60,119.0,111,1,268,160,46,0,0,420,-768,-6656,409,,,,,,,,,,,,
252803,1560691524612,5,2.18,2.32,3.25,1.57,5.04,0.92,0.62,-0.01,-15,-2,-26,1.11,7467,13,85,33,26,957,431.0,545,454,60,119.0,111,1,267,160,46,0,0,409,1779,-32702,409,,,,,,,,,,,,
252823,1560691524632,6,2.19,2.32,3.22,1.59,5.03,0.97,0.51,-0.04,-14,-1,-24,1.09,7494,13,85,33,25,958,427.0,545,458,60,118.0,111,1,264,159,46,0,0,414,31796,-1818,406,,,,,,,,,,,,
252843,1560691524652,2,2.2,2.31,3.21,1.58,5.05,0.92,0.48,-0.05,-13,1,-21,1.03,7482,13,85,33,25,958,422.0,538,456,60,119.0,110,1,264,160,45,0,0,410,-21792,17144,403,45.701279,4.910657,42.92,201.0,2,1.435,0,0.0,0.1567,3,0.15,4.214
252863,1560691524672,4,2.2,2.29,3.22,1.62,5.03,0.87,0.41,0.02,-12,3,-20,0.96,7524,13,85,33,25,952,416.0,543,460,60,119.0,110,1,265,159,45,0,0,405,18584,17144,403,,,,,,,,,,,,
252883,1560691524692,1,2.2,2.29,3.23,1.64,5.06,0.85,0.4,0.05,-11,2,-21,0.94,7497,13,85,33,25,945,414.0,541,453,60,119.0,110,1,264,159,45,0,0,404,2524,-32702,402,,,,,,,,,,,,
252903,1560691524712,1,2.2,2.28,3.21,1.66,5.05,0.91,0.31,0.1,-10,2,-21,0.96,7509,13,85,33,25,938,411.0,540,456,60,119.0,110,1,265,159,45,0,0,405,-4059,-1818,400,,,,,,,,,,,,
252923,1560691524732,-1,2.2,2.28,3.2,1.71,5.07,0.9,0.26,0.09,-9,4,-20,0.94,7458,13,85,33,25,932,410.0,542,453,60,119.0,110,1,264,159,45,0,0,404,9517,-3968,399,,,,,,,,,,,,
252943,1560691524752,2,2.19,2.28,3.2,1.75,5.05,0.83,0.29,0.07,-8,4,-20,0.88,7461,13,85,33,25,924,407.0,546,456,60,119.0,113,1,264,159,45,0,0,399,10392,-6656,396,45.701286,4.910664,41.27,201.0,2,1.435,0,0.0,0.1583,3,0.16,4.2157
252963,1560691524772,2,2.2,2.27,3.21,1.77,5.08,0.81,0.26,0.01,-8,4,-19,0.85,7411,13,85,33,25,917,406.0,551,453,60,118.0,113,1,264,159,45,0,0,399,2524,-1818,396,,,,,,,,,,,,
252983,1560691524792,1,2.2,2.27,3.22,1.79,5.04,0.76,0.33,-0.05,-7,5,-17,0.83,7387,13,85,33,25,915,406.0,547,458,60,119.0,113,1,263,159,45,0,0,399,1504,-31744,395,,,,,,,,,,,,
253003,1560691524812,1,2.21,2.28,3.23,1.84,5.05,0.79,0.37,-0.11,-7,5,-15,0.87,7335,13,85,33,25,915,404.0,542,454,60,118.0,113,1,263,159,45,0,0,397,1504,-6524,392,,,,,,,,,,,,
253023,1560691524832,0,2.24,2.29,3.24,1.87,5.04,0.8,0.39,-0.01,-7,4,-15,0.89,7309,13,85,33,26,916,400.0,534,453,60,118.0,113,1,266,159,45,0,0,395,6512,-1562,391,,,,,,,,,,,,
253043,1560691524852,1,2.26,2.28,3.24,1.87,5.07,0.85,0.4,0.1,-7,1,-17,0.94,7287,13,85,33,26,916,398.0,533,455,60,118.0,112,1,266,160,44,0,0,395,6384,-6475,389,45.701294,4.91067,39.24,201.0,2,1.435,0,0.0,0.16,3,0.16,4.2174
253063,1560691524872,5,2.28,2.27,3.27,1.88,5.06,0.9,0.29,0.11,-7,-0,-17,0.94,7228,13,85,33,26,917,397.0,527,453,60,119.0,112,1,266,160,44,0,0,394,-3968,-19019,388,,,,,,,,,,,,
253083,1560691524892,3,2.31,2.24,3.33,1.9,5.06,0.89,0.16,0.09,-5,1,-13,0.9,7225,13,85,33,26,918,393.0,525,453,60,119.0,112,1,266,160,44,0,0,385,-6656,-19019,391,,,,,,,,,,,,
253103,1560691524912,1,2.34,2.22,3.37,1.94,5.04,0.75,0.16,0.08,-2,3,-10,0.77,7170,13,85,33,26,921,391.0,530,455,60,119.0,112,1,265,160,44,0,0,380,505,240,392,,,,,,,,,,,,
253123,1560691524932,0,2.36,2.18,3.4,1.94,5.05,0.75,0.16,0.16,-2,2,-10,0.77,7153,13,85,33,26,925,394.0,515,455,60,118.0,112,1,265,160,44,0,0,380,240,-6475,394,,,,,,,,,,,,
253143,1560691524952,4,2.37,2.15,3.44,1.95,5.05,0.83,0.1,0.27,-1,0,-11,0.84,7137,13,85,33,26,929,392.0,520,454,60,118.0,109,1,265,160,43,0,0,376,-3866,-6475,392,45.701302,4.910676,38.87,200.9,2,1.435,0,0.0,0.1617,3,0.16,4.219
253163,1560691524972,3,2.38,2.13,3.46,1.96,5.07,0.88,-0.01,0.32,0,-1,-9,0.88,7091,13,85,33,27,932,393.0,514,455,60,119.0,109,1,268,160,43,0,0,374,-992,-1562,393,,,,,,,,,,,,
253183,1560691524992,1,2.38,2.13,3.47,2.0,5.04,0.72,-0.0,0.11,2,4,-6,0.72,7096,13,85,33,27,936,392.0,517,457,60,118.0,109,1,268,161,43,0,0,373,8200,-19126,392,,,,,,,,,,,,
253203,1560691525006,0,2.4,2.13,3.46,2.01,5.04,0.74,0.04,0.09,4,4,-1,0.74,7064,13,85,33,27,941,390.0,521,458,60,118.0,109,1,268,161,43,0,0,374,3,-19019,390,,,,,,,,,,,,
253223,1560691525026,4,2.42,2.13,3.46,2.03,5.04,0.87,-0.09,0.28,3,2,0,0.87,7054,13,85,33,27,944,390.0,510,455,60,118.0,109,1,268,161,43,0,0,373,770,19125,390,,,,,,,,,,,,
253243,1560691525046,3,2.46,2.11,3.47,2.07,5.07,0.75,-0.11,0.31,6,3,1,0.76,7083,13,85,33,27,945,389.0,515,458,60,119.0,110,1,268,161,43,0,0,366,257,-3866,391,45.701313,4.910682,38.66,200.9,2,1.435,0,0.0,0.1633,3,0.16,4.2207
253263,1560691525066,0,2.48,2.09,3.49,2.1,5.05,0.62,-0.06,0.26,8,4,1,0.62,7014,13,85,33,27,946,391.0,516,457,60,118.0,110,1,268,161,43,0,0,364,257,2278,391,,,,,,,,,,,,
253283,1560691525092,4,2.5,2.06,3.5,2.14,5.05,0.71,-0.22,0.43,9,1,2,0.75,6988,12,85,33,27,949,390.0,510,458,60,118.0,110,1,269,161,43,0,0,364,230,-3866,390,,,,,,,,,,,,
253303,1560691525112,2,2.5,2.0,3.49,2.14,5.06,0.84,-0.38,0.4,11,-0,5,0.92,6985,13,85,33,28,951,391.0,509,455,60,119.0,110,1,273,161,43,0,0,359,3082,-31744,391,,,,,,,,,,,,
253323,1560691525132,-1,2.52,1.98,3.5,2.16,5.06,0.76,-0.4,0.34,13,1,9,0.86,6906,13,85,33,28,951,392.0,514,460,60,118.0,110,1,273,163,43,0,0,357,-29302,240,392,,,,,,,,,,,,
253343,1560691525152,3,2.52,1.96,3.53,2.18,5.05,0.89,-0.56,0.45,13,-1,14,1.05,6865,12,85,33,28,953,391.0,508,458,60,119.0,107,1,274,163,42,0,0,350,-6640,-6475,391,45.701321,4.910688,37.39,200.9,2,1.435,0,0.0,0.165,3,0.16,4.2224
253363,1560691525172,1,2.51,1.96,3.53,2.2,5.07,0.81,-0.49,0.35,16,2,16,0.95,6863,13,85,33,28,953,391.0,504,462,60,117.0,107,1,274,163,42,0,0,351,2060,-6475,391,,,,,,,,,,,,
253383,1560691525192,2,2.53,1.97,3.53,2.22,5.04,0.82,-0.56,0.44,17,0,16,0.99,6835,13,85,33,28,954,390.0,500,458,60,118.0,107,1,274,163,42,0,0,350,2060,-18948,390,,,,,,,,,,,,
253403,1560691525210,1,2.5,1.96,3.53,2.2,5.05,0.86,-0.6,0.38,18,0,16,1.05,6795,13,85,33,28,953,388.0,503,457,60,118.0,107,1,274,164,42,0,0,347,3183,-18948,388,,,,,,,,,,,,
253423,1560691525230,3,2.52,1.96,3.56,2.22,5.06,0.81,-0.66,0.42,19,-1,17,1.04,6778,13,85,33,29,953,387.0,488,456,60,118.0,107,1,278,164,42,0,0,345,-30454,-18948,387,,,,,,,,,,,,
253443,1560691525250,0,2.51,1.96,3.56,2.23,5.04,0.86,-0.73,0.34,20,-1,19,1.12,6747,13,85,33,29,950,386.0,493,457,60,118.0,108,1,278,164,42,0,0,344,2811,2278,386,45.701328,4.910694,36.53,200.8,2,1.435,0,0.0,0.1667,3,0.16,4.2241
253463,1560691525270,3,2.52,1.94,3.56,2.24,5.04,0.85,-0.79,0.42,21,-2,21,1.16,6732,13,85,33,29,948,384.0,495,461,60,118.0,108,1,278,164,42,0,0,342,-1246,-992,384,,,,,,,,,,,,
253483,1560691525292,-2,2.51,1.95,3.53,2.24,5.04,0.83,-0.74,0.31,21,0,24,1.11,6663,12,85,33,29,946,383.0,485,455,60,119.0,108,1,278,166,42,0,0,341,6870,770,383,,,,,,,,,,,,
253503,1560691525312,3,2.49,1.94,3.53,2.23,5.06,0.91,-0.8,0.41,21,-1,26,1.21,6637,13,85,33,30,944,380.0,483,453,60,119.0,108,1,282,166,42,0,0,340,-10554,1,380,,,,,,,,,,,,
253523,1560691525332,-0,2.46,1.94,3.53,2.23,5.04,0.89,-0.73,0.36,21,-1,27,1.15,6634,13,85,33,30,942,379.0,487,456,60,118.0,108,1,282,166,42,0,0,336,-14714,742,377,,,,,,,,,,,,
253543,1560691525352,2,2.45,1.95,3.51,2.21,5.04,0.92,-0.78,0.48,20,-3,25,1.21,6606,13,85,33,30,940,376.0,483,457,60,119.0,108,1,282,166,41,0,0,337,-14714,230,376,45.701336,4.9107,36.24,200.8,2,1.435,0,0.0,0.1683,3,0.16,4.2257
253563,1560691525372,5,2.42,1.96,3.52,2.2,5.07,0.86,-0.7,0.46,21,-2,24,1.11,6555,13,85,33,31,941,374.0,495,459,60,118.0,108,1,286,167,41,0,0,340,-14714,-6405,374,,,,,,,,,,,,
253583,1560691525392,0,2.38,1.99,3.47,2.2,5.04,0.97,-0.72,0.41,20,-3,24,1.21,6553,13,85,33,31,940,371.0,480,460,60,119.0,108,1,286,167,41,0,0,335,-31206,2790,371,,,,,,,,,,,,
253603,1560691525412,2,2.36,1.98,3.44,2.18,5.06,1.0,-0.73,0.41,19,-3,25,1.24,6528,13,85,33,31,941,368.0,480,458,60,119.0,108,1,286,167,41,0,0,338,-31206,-6405,368,,,,,,,,,,,,
253623,1560691525432,4,2.31,1.99,3.4,2.17,5.03,0.89,-0.58,0.28,19,2,27,1.06,6533,13,85,33,31,940,362.0,481,458,60,118.0,108,1,286,167,41,0,0,340,-10554,-6640,362,,,,,,,,,,,,
253643,1560691525452,-1,2.26,2.06,3.34,2.13,5.08,1.0,-0.53,0.26,16,2,29,1.13,6526,13,85,33,31,940,361.0,480,456,60,119.0,113,1,286,167,41,0,0,343,6870,-6644,358,45.70134,4.910708,35.63,200.8,2,1.435,0,0.0,0.17,3,0.16,4.2274
253663,1560691525472,2,2.21,2.12,3.29,2.09,5.08,1.05,-0.47,0.42,14,-0,27,1.15,6499,13,85,33,32,941,354.0,484,460,60,118.0,113,1,290,169,41,0,0,342,8841,-1246,354,,,,,,,,,,,,
253683,1560691525493,4,2.16,2.2,3.25,2.06,5.08,0.98,-0.34,0.45,11,-1,22,1.04,6441,13,85,33,32,938,350.0,483,456,60,117.0,113,1,290,169,41,0,0,346,-1246,8841,350,,,,,,,,,,,,
253703,1560691525513,-1,2.1,2.27,3.15,2.04,5.07,0.96,-0.18,0.37,8,-1,18,0.97,6445,13,85,33,32,935,352.0,479,455,60,118.0,113,1,290,169,41,0,0,349,3183,3327,343,,,,,,,,,,,,
253723,1560691525533,-0,2.05,2.33,3.09,1.98,5.06,1.02,-0.16,0.35,5,-0,13,1.03,6419,13,85,33,33,933,353.0,466,458,60,119.0,113,1,292,174,41,0,0,349,3302,13,341,,,,,,,,,,,,
253743,1560691525553,4,1.99,2.37,3.06,1.93,5.04,1.07,-0.09,0.45,2,-1,9,1.07,6410,13,85,33,33,930,355.0,467,466,60,118.0,124,1,292,174,42,0,0,349,2060,175,335,45.701347,4.910716,34.82,200.8,2,1.435,0,0.0,0.1717,3,0.16,4.2291
253763,1560691525573,3,1.93,2.38,3.05,1.89,5.07,1.02,0.08,0.33,-1,-1,6,1.03,6379,13,85,33,33,926,358.0,472,461,60,118.0,124,1,292,174,42,0,0,355,-29978,-12032,330,,,,,,,,,,,,
253783,1560691525591,-1,1.87,2.43,3.05,1.87,5.04,1.02,0.17,0.19,-4,-0,4,1.03,6353,13,85,33,34,921,358.0,468,454,60,119.0,124,1,295,179,42,0,0,354,-29978,-23296,328,,,,,,,,,,,,
253803,1560691525611,1,1.8,2.47,3.05,1.84,5.05,1.09,0.13,0.24,-7,-1,1,1.1,6330,13,85,33,34,920,357.0,470,456,60,119.0,124,1,295,179,42,0,0,355,-6640,-25856,323,,,,,,,,,,,,
253823,1560691525631,3,1.74,2.48,3.03,1.81,5.07,1.12,0.15,0.4,-10,-2,-3,1.13,6300,13,85,33,35,921,355.0,468,457,60,119.0,124,1,298,185,42,0,0,354,2060,140,321,,,,,,,,,,,,
253843,1560691525651,3,1.7,2.5,3.04,1.79,5.04,1.01,0.24,0.44,-13,-4,-8,1.04,6214,13,85,33,35,920,359.0,476,460,60,117.0,138,1,298,185,44,0,0,354,-29302,-32256,315,45.701355,4.910724,34.21,200.8,2,1.435,0,0.0,0.1733,3,0.17,4.2307
253863,1560691525671,5,1.65,2.51,3.08,1.78,5.05,0.97,0.42,0.33,-15,-2,-10,1.05,6177,13,85,33,35,919,353.0,467,460,60,118.0,138,1,298,185,44,0,0,353,-6644,125,313,,,,,,,,,,,,
253883,1560691525693,3,1.63,2.51,3.08,1.77,5.07,0.99,0.55,0.29,-17,1,-13,1.13,6139,13,85,33,36,920,349.0,463,456,60,119.0,138,1,301,190,44,0,0,354,2060,115,311,,,,,,,,,,,,
253903,1560691525713,3,1.6,2.51,3.07,1.77,5.05,0.96,0.7,0.28,-19,1,-15,1.18,6083,13,85,33,36,922,351.0,468,463,60,118.0,138,1,301,190,44,0,0,355,28553,26880,307,,,,,,,,,,,,
253923,1560691525733,1,1.57,2.51,3.06,1.76,5.08,1.0,0.71,0.24,-21,1,-18,1.22,6052,13,85,33,37,922,349.0,467,461,60,118.0,138,1,304,196,44,0,0,347,2811,95,304,,,,,,,,,,,,
253943,1560691525753,0,1.56,2.49,3.04,1.73,5.07,1.06,0.71,0.22,-23,2,-20,1.28,6046,13,85,33,37,922,347.0,464,451,60,120.0,148,1,304,196,45,0,0,349,-10554,23040,301,45.701359,4.910731,33.08,200.8,2,1.435,0,0.0,0.175,3,0.17,4.2324
253963,1560691525773,0,1.57,2.48,3.01,1.7,5.05,1.11,0.71,0.24,-26,1,-23,1.32,5996,14,85,33,37,922,344.0,459,453,60,120.0,148,1,303,195,45,0,0,349,-10554,80,297,,,,,,,,,,,,
253983,1560691525793,1,1.57,2.48,3.01,1.66,5.05,1.13,0.7,0.25,-28,1,-26,1.33,5952,14,85,33,38,921,347.0,450,450,60,120.0,148,1,306,201,45,0,0,345,8841,20480,297,,,,,,,,,,,,
254003,1560691525813,5,1.58,2.48,3.02,1.67,5.08,1.15,0.72,0.21,-30,2,-29,1.35,5931,14,85,33,38,919,346.0,447,451,60,119.0,148,1,306,201,45,0,0,344,-14714,0,294,,,,,,,,,,,,
254023,1560691525833,4,1.57,2.48,3.03,1.68,5.06,1.12,0.74,0.2,-32,3,-32,1.34,5855,14,85,33,39,915,342.0,446,454,60,119.0,148,1,308,207,45,0,0,344,-31206,250,291,,,,,,,,,,,,
254043,1560691525853,2,1.58,2.48,3.03,1.67,5.05,1.02,0.77,0.2,-34,4,-34,1.28,5806,14,85,33,40,910,344.0,438,453,60,118.0,157,1,313,208,46,0,0,342,-10554,-1529,288,45.701366,4.910738,32.08,200.9,2,1.435,0,0.0,0.1767,3,0.17,4.234
254063,1560691525873,2,1.58,2.47,3.03,1.67,5.08,0.93,0.83,0.15,-34,5,-37,1.24,5769,14,85,33,41,906,344.0,432,462,60,118.0,157,1,317,209,46,0,0,342,-10554,250,287,,,,,,,,,,,,
254083,1560691525893,0,1.59,2.47,3.03,1.66,5.08,0.91,0.92,0.15,-33,4,-39,1.3,5730,14,85,33,41,900,340.0,424,456,60,118.0,157,1,316,209,46,0,0,337,3327,630,285,,,,,,,,,,,,
254103,1560691525913,-2,1.61,2.47,3.02,1.65,5.05,1.03,0.95,0.22,-34,2,-41,1.4,5681,14,85,33,42,893,340.0,421,450,60,120.0,157,1,319,210,46,0,0,335,3327,250,284,,,,,,,,,,,,
254123,1560691525933,4,1.61,2.48,3.02,1.62,5.04,1.11,0.91,0.28,-38,-0,-44,1.43,5644,14,85,34,43,888,338.0,416,451,60,120.0,157,1,323,212,46,0,0,333,-31222,-1,282,,,,,,,,,,,,
254143,1560691525953,2,1.65,2.47,3.01,1.61,5.03,0.98,0.85,0.29,-40,1,-46,1.3,5612,14,85,34,44,884,340.0,416,455,60,118.0,160,1,326,213,45,0,0,333,3327,-1,280,45.701374,4.910742,30.87,200.9,2,1.435,0,0.0,0.1783,3,0.17,4.2357
254163,1560691525973,0,1.69,2.46,3.01,1.61,5.03,0.97,0.97,0.28,-39,2,-48,1.37,5558,14,85,34,45,879,341.0,411,461,60,118.0,160,1,328,214,45,0,0,334,-122,-1,278,,,,,,,,,,,,
254183,1560691525993,-1,1.76,2.47,3.02,1.61,5.05,1.01,1.05,0.26,-40,0,-51,1.45,5537,14,85,34,46,873,339.0,403,461,60,119.0,160,1,330,216,45,0,0,331,-122,-1,276,,,,,,,,,,,,
254203,1560691526007,3,1.81,2.48,3.03,1.63,5.06,1.08,1.07,0.25,-42,-1,-54,1.52,5522,15,85,34,46,869,341.0,406,456,60,119.0,160,1,329,216,45,0,0,329,6668,-41,275,,,,,,,,,,,,
254223,1560691526027,0,1.88,2.48,3.04,1.66,5.05,0.94,0.98,0.27,-42,-0,-55,1.36,5474,15,85,34,47,864,339.0,415,455,60,118.0,160,1,331,218,45,0,0,329,-122,-41,274,,,,,,,,,,,,
254243,1560691526047,2,1.94,2.48,3.04,1.7,5.04,0.93,0.99,0.3,-40,-1,-56,1.35,5498,15,85,34,48,861,336.0,410,458,60,120.0,164,1,333,222,45,0,0,326,13,-1,273,45.701378,4.910746,30.02,200.8,2,1.435,0,0.0,0.18,3,0.17,4.2374
254263,1560691526067,2,2.01,2.45,3.05,1.75,5.07,1.02,0.92,0.32,-40,2,-56,1.37,5501,15,85,34,49,859,332.0,413,453,60,119.0,164,1,334,226,45,0,0,321,-20736,-1,274,,,,,,,,,,,,
254283,1560691526093,0,2.07,2.43,3.08,1.83,5.07,0.85,0.75,0.36,-37,4,-54,1.13,5480,15,85,34,49,858,324.0,404,461,60,119.0,164,1,333,226,45,0,0,316,160,-1281,277,,,,,,,,,,,,
254303,1560691526113,-1,2.14,2.4,3.08,1.9,5.06,0.88,0.67,0.39,-34,1,-50,1.1,5506,15,85,34,50,858,319.0,408,456,60,119.0,164,1,335,230,45,0,0,311,140,630,280,,,,,,,,,,,,
254323,1560691526133,3,2.19,2.37,3.1,1.94,5.04,0.99,0.62,0.42,-34,2,-47,1.17,5524,15,85,34,50,859,312.0,415,460,60,118.0,164,1,337,230,45,0,0,310,130,-1534,284,,,,,,,,,,,,
254343,1560691526153,1,2.27,2.3,3.17,1.99,5.05,0.82,0.52,0.44,-29,4,-45,0.97,5570,18,85,34,51,862,307.0,412,459,60,117.0,172,1,341,235,49,0,0,305,30720,-1529,287,45.701386,4.910748,29.63,200.8,2,1.435,0,0.0,0.1817,3,0.17,4.239
254363,1560691526173,-1,2.34,2.24,3.25,2.06,5.04,0.73,0.43,0.47,-24,1,-41,0.85,5605,21,85,34,53,865,302.0,410,459,60,119.0,172,1,348,240,49,0,0,298,25600,10686,290,,,,,,,,,,,,
254383,1560691526193,4,2.42,2.17,3.32,2.13,5.08,0.83,0.36,0.51,-21,0,-36,0.9,5650,23,85,34,54,867,295.0,411,458,60,119.0,172,1,353,251,49,0,0,293,23040,80,294,,,,,,,,,,,,
254403,1560691526213,4,2.47,2.15,3.39,2.19,5.06,0.95,0.18,0.52,-21,1,-31,0.97,5728,24,85,34,56,869,297.0,408,455,60,119.0,172,1,360,252,49,0,0,293,20480,23040,297,,,,,,,,,,,,
254423,1560691526233,3,2.53,2.11,3.42,2.21,5.05,0.89,0.08,0.48,-17,3,-26,0.89,5808,24,85,34,57,868,298.0,410,457,60,118.0,172,1,366,253,49,0,0,288,10686,95,298,,,,,,,,,,,,
254443,1560691526253,2,2.6,2.09,3.48,2.26,5.04,0.74,0.06,0.44,-10,5,-22,0.75,5885,25,85,34,58,867,301.0,413,464,60,118.0,182,1,377,253,55,0,0,281,250,95,301,45.701393,4.910747,29.18,200.9,2,1.435,0,0.0,0.1833,3,0.17,4.2407
254463,1560691526273,3,2.67,2.07,3.55,2.29,5.08,0.59,0.05,0.42,-5,5,-18,0.59,6064,25,85,34,58,865,304.0,423,460,60,117.0,182,1,384,254,55,0,0,279,30208,26880,304,,,,,,,,,,,,
254483,1560691526293,5,2.71,2.07,3.6,2.32,5.04,0.39,0.05,0.32,1,7,-13,0.4,6192,26,85,34,58,862,306.0,436,462,60,118.0,182,1,387,258,55,0,0,273,630,25600,306,,,,,,,,,,,,
254503,1560691526313,1,2.76,2.08,3.65,2.34,5.06,0.36,-0.09,0.28,5,9,-8,0.37,6243,27,85,34,58,856,306.0,443,464,60,118.0,182,1,388,259,55,0,0,277,250,29440,307,,,,,,,,,,,,
254523,1560691526333,-1,2.81,2.08,3.64,2.4,5.05,0.46,-0.23,0.35,7,8,-4,0.52,6133,29,85,34,58,853,310.0,440,452,60,120.0,182,1,385,256,55,0,0,337,250,-30976,310,,,,,,,,,,,,
254543,1560691526353,0,2.85,2.1,3.64,2.41,5.04,0.6,-0.36,0.39,8,7,-2,0.7,5978,32,85,34,60,853,311.0,428,447,60,119.0,187,1,380,251,58,0,0,364,-1,135,311,45.701401,4.910745,28.88,201.0,2,1.435,0,0.0,0.185,3,0.17,4.2424
254563,1560691526373,4,2.89,2.09,3.62,2.42,5.05,0.67,-0.38,0.34,8,5,1,0.77,5914,33,85,34,61,853,313.0,426,448,60,120.0,187,1,373,258,58,0,0,333,-1,135,313,,,,,,,,,,,,
254583,1560691526393,3,2.9,2.08,3.62,2.42,5.06,0.71,-0.48,0.24,9,7,6,0.86,5914,34,85,34,63,865,313.0,426,452,60,119.0,187,1,367,275,58,0,0,295,-1,-28416,313,,,,,,,,,,,,
254603,1560691526413,2,2.9,2.07,3.63,2.41,5.08,0.58,-0.59,0.22,13,9,10,0.82,5771,35,85,34,65,876,313.0,424,456,60,119.0,187,1,350,285,58,0,0,294,-1,-28416,314,,,,,,,,,,,,
254623,1560691526433,2,2.89,2.05,3.63,2.41,5.04,0.45,-0.65,0.24,18,9,12,0.79,5723,36,85,34,68,889,317.0,413,462,60,118.0,187,1,337,310,58,0,0,308,-1,-27136,317,,,,,,,,,,,,
254643,1560691526453,-1,2.88,2.03,3.64,2.39,5.07,0.47,-0.72,0.26,22,6,15,0.86,5688,39,85,34,70,902,319.0,406,465,60,118.0,211,1,333,323,67,0,0,314,-1,135,319,45.701408,4.910747,28.16,201.0,2,1.435,0,0.0,0.1867,3,0.17,4.2441
254663,1560691526473,-0,2.86,2.02,3.67,2.39,5.05,0.62,-0.73,0.35,23,1,18,0.96,5744,44,85,34,72,949,319.0,410,460,60,119.0,211,1,335,363,67,0,0,313,-1,-29696,319,,,,,,,,,,,,
254683,1560691526492,-1,2.85,2.0,3.67,2.39,5.08,0.76,-0.78,0.4,23,-1,21,1.09,5848,49,85,34,75,994,320.0,413,460,60,119.0,211,1,339,408,67,0,0,300,-1,145,320,,,,,,,,,,,,
254703,1560691526512,0,2.82,2.0,3.67,2.39,5.04,0.89,-0.82,0.32,22,-2,22,1.21,5988,54,85,34,78,1030,323.0,409,459,60,119.0,211,1,346,446,67,0,0,300,-1281,-27136,323,,,,,,,,,,,,
254723,1560691526532,-2,2.81,2.0,3.67,2.41,5.06,1.0,-0.88,0.29,22,-1,26,1.34,6125,57,85,34,81,1064,325.0,422,458,60,119.0,211,1,349,460,67,0,0,330,-1,-28416,325,,,,,,,,,,,,
254743,1560691526552,2,2.77,2.0,3.66,2.41,5.05,1.1,-0.92,0.39,22,-2,30,1.44,6279,59,85,34,83,1108,326.0,428,455,60,119.0,333,1,352,480,109,0,0,347,-1,-25856,326,45.701416,4.910748,27.88,201.0,2,1.435,0,0.0,0.1883,3,0.17,4.2457
254763,1560691526572,4,2.74,2.01,3.63,2.43,5.06,1.03,-0.9,0.5,24,-2,32,1.37,6458,59,85,34,84,1151,328.0,446,465,60,118.0,333,1,357,487,109,0,0,341,-1,160,329,,,,,,,,,,,,
254783,1560691526592,-1,2.69,2.03,3.59,2.46,5.04,0.96,-0.87,0.48,26,-2,34,1.3,6465,59,85,34,85,1168,330.0,451,456,60,118.0,333,1,355,492,109,0,0,340,-1,3346,330,,,,,,,,,,,,
254803,1560691526610,2,2.63,2.06,3.51,2.47,5.06,0.92,-0.94,0.49,27,-3,35,1.31,6476,60,85,34,85,1178,332.0,448,452,60,119.0,333,1,355,492,109,0,0,335,-1281,13,332,,,,,,,,,,,,
254823,1560691526630,4,2.57,2.1,3.41,2.47,5.06,0.96,-1.0,0.52,28,-4,37,1.39,6323,60,85,34,86,1187,335.0,445,456,60,118.0,333,1,346,492,109,0,0,328,250,3327,335,,,,,,,,,,,,
254843,1560691526650,3,2.53,2.17,3.35,2.47,5.07,0.81,-0.94,0.59,29,-3,39,1.24,6264,60,85,34,86,1195,335.0,448,459,60,117.0,350,1,343,494,117,0,0,328,1886,-31222,335,45.70142,4.910752,28.2,201.0,2,1.435,0,0.0,0.19,3,0.17,4.2474
254863,1560691526670,3,2.47,2.23,3.28,2.46,5.05,0.74,-0.86,0.62,29,-1,39,1.14,6155,60,85,34,87,1195,333.0,442,462,60,118.0,350,1,335,491,117,0,0,327,85,-122,333,,,,,,,,,,,,
254883,1560691526692,4,2.4,2.31,3.23,2.45,5.04,0.66,-0.77,0.59,28,1,39,1.01,6123,60,85,34,87,1192,333.0,436,459,60,118.0,350,1,334,489,117,0,0,319,25600,3327,333,,,,,,,,,,,,
254903,1560691526712,-0,2.34,2.4,3.17,2.43,5.04,0.62,-0.68,0.56,26,4,39,0.93,6123,60,85,34,87,1192,333.0,343,460,60,119.0,350,1,334,489,117,0,0,324,29440,3346,333,,,,,,,,,,,,
254923,1560691526732,1,2.29,2.44,3.1,2.4,5.07,0.69,-0.6,0.56,23,5,38,0.91,6099,60,85,34,87,1194,333.0,367,461,60,118.0,350,1,333,488,117,0,0,328,-29696,13,333,,,,,,,,,,,,
254943,1560691526752,-2,2.24,2.49,3.05,2.36,5.06,0.72,-0.53,0.57,19,5,36,0.89,6163,60,85,34,87,1196,331.0,367,460,60,119.0,342,1,335,491,114,0,0,330,155,-31222,332,45.701427,4.910756,28.57,201.0,2,1.435,0,0.0,0.1917,3,0.17,4.2491
254963,1560691526772,1,2.18,2.53,3.05,2.34,5.03,0.74,-0.53,0.65,16,4,31,0.92,6223,60,85,34,87,1200,331.0,391,457,60,119.0,342,1,338,492,114,0,0,339,-20736,-6528,331,,,,,,,,,,,,
254983,1560691526792,3,2.13,2.57,3.03,2.3,5.06,0.74,-0.41,0.67,13,2,27,0.84,6306,60,86,34,87,1201,334.0,413,455,60,118.0,342,1,342,495,114,0,0,338,4838,-31222,329,,,,,,,,,,,,
255003,1560691526812,5,2.08,2.58,3.03,2.28,5.07,0.66,-0.27,0.66,11,2,23,0.72,6401,60,86,34,87,1199,339.0,426,453,60,118.0,342,1,347,497,114,0,0,347,-122,6668,329,,,,,,,,,,,,
255023,1560691526832,-1,2.04,2.61,3.02,2.25,5.04,0.62,-0.23,0.58,9,3,20,0.66,6454,60,85,34,87,1195,343.0,436,457,60,119.0,342,1,349,500,114,0,0,348,-30438,-122,328,,,,,,,,,,,,
255043,1560691526852,3,2.01,2.62,3.0,2.22,5.06,0.67,-0.2,0.65,5,2,16,0.7,6562,60,85,34,86,1189,345.0,438,456,60,119.0,368,1,356,499,121,0,0,353,6870,-1246,328,45.701435,4.910762,29.68,200.9,2,1.435,0,0.0,0.1933,3,0.18,4.2507
255063,1560691526872,1,1.98,2.63,2.96,2.2,5.04,0.64,-0.05,0.64,3,3,13,0.64,6648,60,86,34,87,1180,353.0,448,462,60,118.0,368,1,358,505,121,0,0,358,-6644,28553,331,,,,,,,,,,,,
255083,1560691526892,3,1.97,2.64,2.92,2.17,5.07,0.73,-0.04,0.73,0,4,8,0.73,6710,60,86,34,86,1170,357.0,456,453,60,119.0,368,1,363,503,121,0,0,361,-6640,2060,331,,,,,,,,,,,,
255103,1560691526912,-1,1.96,2.64,2.9,2.14,5.07,0.67,0.11,0.69,-2,4,5,0.68,6848,60,86,34,86,1161,361.0,465,460,60,118.0,368,1,369,505,121,0,0,366,-6458,2790,333,,,,,,,,,,,,
255123,1560691526932,3,1.97,2.65,2.89,2.13,5.07,0.73,0.18,0.74,-5,2,1,0.76,6998,60,86,34,86,1158,366.0,475,456,60,119.0,368,1,375,511,121,0,0,371,230,-1268,332,,,,,,,,,,,,
255143,1560691526952,3,1.98,2.67,2.87,2.11,5.04,0.7,0.22,0.76,-7,4,-1,0.74,7083,60,86,34,85,1151,372.0,485,458,60,119.0,408,1,381,507,137,0,0,373,1,-19126,334,45.701439,4.910768,31.62,200.9,2,1.435,0,0.0,0.195,3,0.18,4.2524
255163,1560691526972,0,1.98,2.68,2.86,2.11,5.05,0.67,0.28,0.7,-8,4,-4,0.73,7225,60,86,34,85,1139,375.0,499,454,60,118.0,408,1,391,510,137,0,0,378,770,-1562,337,,,,,,,,,,,,
255183,1560691526992,2,1.98,2.68,2.85,2.11,5.05,0.59,0.37,0.67,-11,3,-6,0.69,7324,60,86,34,84,1128,379.0,505,456,60,118.0,408,1,397,505,137,0,0,383,8200,-6475,340,,,,,,,,,,,,
255203,1560691527006,1,1.99,2.7,2.85,2.12,5.04,0.53,0.46,0.71,-13,3,-11,0.7,7381,60,86,34,84,1121,380.0,507,457,60,118.0,408,1,401,505,137,0,0,390,-992,-1562,343,,,,,,,,,,,,
255223,1560691527026,1,2.0,2.71,2.85,2.13,5.05,0.65,0.51,0.71,-15,1,-15,0.82,7387,61,86,34,83,1104,385.0,517,455,60,118.0,408,1,400,498,137,0,0,396,-6475,-9211,347,,,,,,,,,,,,
255243,1560691527046,0,2.01,2.71,2.85,2.12,5.06,0.72,0.56,0.75,-17,1,-17,0.91,7416,61,86,34,83,1059,390.0,516,457,60,119.0,400,1,402,499,139,0,0,400,-1562,1504,350,45.701447,4.910774,32.22,200.9,2,1.435,0,0.0,0.1967,3,0.18,4.254
255263,1560691527066,1,2.03,2.71,2.85,2.12,5.08,0.73,0.58,0.76,-19,1,-18,0.93,7539,61,86,34,83,1017,394.0,523,457,60,118.0,400,1,409,492,139,0,0,400,-1818,17144,357,,,,,,,,,,,,
255283,1560691527094,2,2.04,2.7,2.85,2.13,5.04,0.76,0.69,0.74,-20,1,-19,1.03,7597,61,86,34,82,981,398.0,524,453,60,118.0,400,1,414,492,139,0,0,409,6384,-8151,362,,,,,,,,,,,,
255303,1560691527114,3,2.05,2.71,2.84,2.13,5.07,0.82,0.65,0.76,-21,-0,-20,1.05,7674,61,86,34,82,939,402.0,539,458,60,118.0,400,1,418,493,139,0,0,410,10541,-3414,366,,,,,,,,,,,,
255323,1560691527134,4,2.06,2.71,2.85,2.12,5.07,0.73,0.7,0.76,-22,-1,-22,1.01,7815,61,86,34,82,883,406.0,538,460,60,117.0,400,1,427,494,139,0,0,418,2524,-8165,369,,,,,,,,,,,,
255343,1560691527154,2,2.07,2.71,2.86,2.13,5.04,0.65,0.68,0.86,-22,-1,-23,0.94,7884,61,86,34,80,828,410.0,542,456,60,119.0,382,1,431,478,141,0,0,417,9517,-26615,373,45.701454,4.910779,33.65,200.8,2,1.435,0,0.0,0.1983,3,0.18,4.2557
255363,1560691527174,1,2.08,2.71,2.85,2.14,5.07,0.66,0.73,0.79,-22,0,-23,0.99,7995,61,86,34,78,809,414.0,551,453,60,118.0,382,1,437,462,141,0,0,422,-26615,18584,377,,,,,,,,,,,,
255383,1560691527192,4,2.08,2.71,2.85,2.13,5.07,0.67,0.85,0.87,-22,0,-22,1.08,8088,61,86,34,77,790,418.0,556,459,60,118.0,382,1,436,466,141,0,0,429,-3414,21580,384,,,,,,,,,,,,
255403,1560691527212,3,2.08,2.71,2.84,2.13,5.05,0.66,0.75,0.98,-22,-0,-25,1.0,8152,61,86,34,75,771,423.0,556,450,60,118.0,382,1,437,449,141,0,0,433,3826,21580,390,,,,,,,,,,,,
255423,1560691527232,3,2.08,2.72,2.84,2.14,5.07,0.65,0.75,0.91,-23,0,-25,0.99,8252,61,86,34,75,751,427.0,568,456,60,118.0,382,1,434,441,141,0,0,443,31796,243,395,,,,,,,,,,,,
255443,1560691527252,3,2.08,2.71,2.83,2.14,5.03,0.69,0.71,0.96,-22,2,-25,0.99,8348,62,86,34,73,751,432.0,571,450,60,118.0,351,1,433,432,139,0,0,445,243,23400,401,45.701462,4.910783,36.26,200.8,2,1.435,0,0.0,0.2,3,0.18,4.2574
255463,1560691527272,4,2.09,2.72,2.83,2.14,5.08,0.65,0.76,1.02,-22,-2,-25,1.0,8411,62,86,34,73,752,438.0,566,462,60,118.0,351,1,432,415,139,0,0,449,21580,3571,404,,,,,,,,,,,,
255483,1560691527294,4,2.1,2.73,2.84,2.18,5.04,0.58,0.68,0.93,-22,-0,-27,0.89,8442,62,86,34,72,761,442.0,568,456,60,118.0,351,1,430,405,139,0,0,455,23400,-9160,409,,,,,,,,,,,,
255503,1560691527314,2,2.1,2.72,2.85,2.18,5.08,0.67,0.6,0.98,-22,-1,-26,0.9,8514,63,86,34,71,770,448.0,572,457,60,118.0,351,1,430,407,139,0,0,462,8488,14488,416,,,,,,,,,,,,
255523,1560691527334,2,2.1,2.72,2.84,2.17,5.08,0.6,0.69,1.08,-22,-0,-26,0.91,8596,63,86,34,71,780,449.0,586,459,60,118.0,351,1,428,407,139,0,0,461,15649,6193,421,,,,,,,,,,,,
255543,1560691527354,4,2.1,2.73,2.84,2.17,5.07,0.55,0.77,0.97,-22,-1,-26,0.94,8688,63,86,34,70,789,455.0,585,462,60,118.0,315,1,425,407,133,0,0,471,-26615,10305,425,45.701473,4.910787,38.29,200.8,2,1.435,0,0.0,0.2017,3,0.18,4.259
255563,1560691527374,4,2.11,2.72,2.83,2.16,5.07,0.49,0.83,0.9,-21,0,-26,0.96,8790,64,86,34,71,817,461.0,586,460,60,119.0,315,1,421,407,133,0,0,467,2211,-3210,431,,,,,,,,,,,,
255583,1560691527393,2,2.12,2.72,2.83,2.16,5.06,0.46,0.73,0.9,-21,-1,-27,0.86,8882,64,86,34,70,845,466.0,597,456,60,118.0,315,1,418,398,133,0,0,477,-3210,3576,436,,,,,,,,,,,,
255603,1560691527413,3,2.12,2.71,2.86,2.16,5.07,0.45,0.63,0.94,-21,-1,-27,0.78,8971,65,86,34,70,866,467.0,595,460,60,118.0,315,1,415,407,133,0,0,480,10432,2212,440,,,,,,,,,,,,
255623,1560691527433,2,2.12,2.71,2.86,2.15,5.04,0.49,0.43,1.04,-21,-1,-28,0.65,9027,65,86,34,71,886,471.0,588,448,60,118.0,315,1,413,407,133,0,0,479,32033,-6441,445,,,,,,,,,,,,
255643,1560691527453,6,2.12,2.72,2.86,2.16,5.05,0.54,0.32,1.1,-20,-1,-28,0.62,9110,65,86,34,70,921,478.0,598,460,60,118.0,305,1,413,407,136,0,0,487,16648,-1818,449,45.701481,4.91079,41.12,200.7,2,1.435,0,0.0,0.2033,3,0.18,4.2607
255663,1560691527473,5,2.11,2.72,2.86,2.16,5.04,0.47,0.32,1.01,-20,-1,-28,0.56,9191,65,86,34,70,961,481.0,601,449,60,118.0,305,1,414,398,136,0,0,494,8488,1,453,,,,,,,,,,,,
255683,1560691527491,-1,2.13,2.72,2.86,2.16,5.05,0.25,0.45,0.91,-19,3,-27,0.51,9250,65,86,34,70,987,483.0,610,452,60,117.0,305,1,414,398,136,0,0,497,3580,998,456,,,,,,,,,,,,
255703,1560691527511,3,2.13,2.72,2.85,2.17,5.05,0.19,0.6,0.81,-19,2,-26,0.63,9319,66,86,34,70,1007,488.0,621,451,60,118.0,305,1,414,398,136,0,0,494,1,6274,462,,,,,,,,,,,,
255723,1560691527531,4,2.13,2.7,2.85,2.16,5.08,0.31,0.6,0.86,-19,2,-26,0.67,9407,66,86,34,70,1033,492.0,616,455,60,118.0,305,1,415,398,136,0,0,501,-32768,2109,466,,,,,,,,,,,,
255743,1560691527551,-1,2.13,2.71,2.85,2.16,5.07,0.41,0.47,0.97,-19,1,-27,0.63,9508,66,86,34,69,1062,496.0,623,460,60,118.0,297,1,416,388,139,0,0,504,771,10994,472,45.701492,4.910793,43.27,200.7,2,1.435,0,0.0,0.205,3,0.18,4.2624
255763,1560691527571,3,2.12,2.71,2.85,2.16,5.05,0.18,0.63,0.8,-18,3,-25,0.65,9620,66,86,34,69,1080,502.0,625,460,60,118.0,297,1,411,401,139,0,0,513,15661,-8187,476,,,,,,,,,,,,
255783,1560691527593,4,2.13,2.71,2.86,2.17,5.08,0.35,0.53,0.84,-19,1,-25,0.63,9720,66,86,34,69,1088,506.0,626,456,60,118.0,297,1,407,403,139,0,0,517,-28648,1248,477,,,,,,,,,,,,
255803,1560691527613,4,2.12,2.74,2.85,2.21,5.03,0.3,0.54,0.83,-19,1,-26,0.61,9775,66,86,34,68,1091,509.0,635,453,60,118.0,297,1,405,412,139,0,0,525,10994,2524,480,,,,,,,,,,,,
255823,1560691527633,1,2.13,2.74,2.86,2.21,5.04,0.45,0.41,0.9,-19,-1,-25,0.61,9827,66,86,34,67,1092,511.0,628,457,60,118.0,297,1,405,407,139,0,0,526,-3856,2524,485,,,,,,,,,,,,
255843,1560691527653,5,2.14,2.73,2.84,2.2,5.05,0.33,0.52,0.95,-19,-0,-25,0.62,9889,66,86,34,67,1089,516.0,627,456,60,117.0,313,1,402,410,152,0,0,529,16383,-22519,491,45.7015,4.910795,45.59,200.6,2,1.435,0,0.0,0.2067,3,0.18,4.264
255863,1560691527673,2,2.14,2.73,2.84,2.19,5.08,0.42,0.47,0.96,-19,-0,-26,0.63,9931,66,86,34,67,1081,519.0,636,456,60,117.0,313,1,401,419,152,0,0,530,-8187,-32248,493,,,,,,,,,,,,
255883,1560691527691,3,2.15,2.72,2.83,2.17,5.05,0.39,0.47,0.93,-19,-1,-25,0.62,9978,66,86,33,67,1073,525.0,627,456,60,118.0,313,1,398,423,152,0,0,533,2088,-8186,498,,,,,,,,,,,,
255903,1560691527711,4,2.14,2.72,2.86,2.2,5.04,0.33,0.53,0.94,-18,-1,-24,0.62,10096,66,86,33,67,1067,529.0,631,457,60,117.0,313,1,406,427,152,0,0,540,-9072,1780,503,,,,,,,,,,,,
255923,1560691527731,3,2.14,2.72,2.91,2.2,5.04,0.4,0.52,0.97,-19,-2,-24,0.66,10173,66,86,33,67,1064,531.0,638,456,60,117.0,313,1,413,432,152,0,0,546,-22519,6274,505,,,,,,,,,,,,
255943,1560691527751,2,2.16,2.71,2.9,2.19,5.07,0.43,0.59,0.93,-19,-2,-23,0.73,10279,66,86,33,67,1065,535.0,642,458,60,118.0,330,1,423,434,168,0,0,549,6274,14504,514,45.701515,4.910797,46.91,200.7,2,1.435,0,0.0,0.2083,3,0.18,4.2657
255963,1560691527771,1,2.15,2.69,2.88,2.18,5.06,0.34,0.62,0.95,-19,-1,-23,0.71,10387,66,86,33,67,1066,541.0,630,459,60,118.0,330,1,434,437,168,0,0,551,-2336,-506,516,,,,,,,,,,,,
255983,1560691527791,2,2.16,2.7,2.85,2.19,5.04,0.25,0.67,0.99,-18,1,-23,0.71,10382,66,86,33,67,1068,548.0,636,455,60,118.0,330,1,433,437,168,0,0,559,14504,2524,520,,,,,,,,,,,,
256003,1560691527811,2,2.16,2.7,2.83,2.17,5.06,0.16,0.62,0.96,-17,4,-25,0.64,10469,66,86,33,67,1068,546.0,641,457,60,117.0,330,1,441,440,168,0,0,559,2524,6274,524,,,,,,,,,,,,
256023,1560691527831,1,2.16,2.7,2.89,2.18,5.04,0.17,0.6,0.92,-16,2,-23,0.62,10463,66,86,33,67,1068,551.0,643,461,60,117.0,330,1,440,439,168,0,0,569,6274,30208,528,,,,,,,,,,,,
256043,1560691527851,-2,2.16,2.7,2.88,2.17,5.05,0.11,0.56,0.92,-16,2,-22,0.57,10599,66,86,33,68,1066,559.0,636,455,60,118.0,331,1,444,451,175,0,0,572,2524,-30159,532,45.701527,4.910797,49.97,200.6,2,1.435,0,0.0,0.21,3,0.19,4.2674
256063,1560691527871,0,2.17,2.69,2.89,2.18,5.08,0.05,0.61,0.95,-15,3,-22,0.61,10575,66,86,33,68,1061,558.0,646,455,60,120.0,331,1,444,451,175,0,0,572,-32504,-18032,534,,,,,,,,,,,,
256083,1560691527893,-2,2.18,2.68,2.88,2.17,5.06,0.01,0.61,0.94,-15,3,-22,0.61,10059,67,86,33,70,1058,557.0,640,458,60,120.0,331,1,400,449,175,0,0,571,2216,-23623,540,,,,,,,,,,,,
256103,1560691527913,0,2.16,2.66,2.89,2.17,5.08,0.16,0.57,0.94,-15,1,-23,0.59,9709,67,86,33,72,1055,563.0,630,458,60,119.0,331,1,408,436,175,0,0,561,-23623,-22519,543,,,,,,,,,,,,
256123,1560691527933,0,2.17,2.63,2.94,2.14,5.04,0.07,0.71,0.76,-15,-0,-22,0.72,9436,67,86,33,73,1053,560.0,630,456,60,120.0,331,1,415,427,175,0,0,562,-28648,2524,540,,,,,,,,,,,,
256143,1560691527953,-0,2.17,2.58,3.02,2.08,5.04,0.27,0.68,0.79,-15,-3,-22,0.73,9245,70,86,33,75,1052,560.0,627,461,60,118.0,288,1,414,446,156,0,0,560,-28648,1779,542,45.701538,4.910797,51.69,200.6,2,1.435,0,0.0,0.2117,3,0.19,4.2691
256163,1560691527973,1,2.18,2.55,3.08,2.04,5.07,0.44,0.49,0.9,-16,-5,-22,0.66,9044,74,86,33,78,1051,561.0,622,467,60,119.0,288,1,414,881,156,0,0,558,12552,-28648,543,,,,,,,,,,,,
256183,1560691527993,3,2.17,2.55,3.09,2.02,5.06,0.48,0.29,0.97,-17,-7,-21,0.56,8802,76,86,33,81,1053,564.0,622,463,60,117.0,288,1,421,882,156,0,0,565,12552,-28648,543,,,,,,,,,,,,
256203,1560691528007,5,2.16,2.58,3.04,2.04,5.04,0.49,0.35,0.92,-17,-6,-19,0.6,8274,77,86,33,83,1068,567.0,591,459,60,117.0,288,1,433,798,156,0,0,589,1780,1010,543,,,,,,,,,,,,
256223,1560691528027,1,2.17,2.67,2.94,2.06,5.07,0.43,0.33,0.96,-16,-2,-18,0.55,8263,78,86,33,83,1140,571.0,566,463,60,118.0,288,1,433,711,156,0,0,598,774,11776,547,,,,,,,,,,,,
256243,1560691528047,-0,2.16,2.74,2.8,2.09,5.07,0.44,0.5,0.97,-16,-1,-18,0.67,8381,79,86,33,84,1212,578.0,562,458,60,117.0,396,1,432,635,217,0,0,593,-3210,4956,548,45.701553,4.910796,53.49,200.5,2,1.435,0,0.0,0.2133,3,0.19,4.2707
256263,1560691528067,4,2.16,2.78,2.73,2.14,5.08,0.43,0.42,0.99,-16,-2,-19,0.6,8322,79,86,33,84,1281,581.0,552,456,60,117.0,396,1,433,547,217,0,0,607,8488,-16384,551,,,,,,,,,,,,
256283,1560691528093,5,2.16,2.78,2.71,2.18,5.03,0.49,0.49,1.09,-16,-2,-17,0.7,8123,79,86,33,84,1352,586.0,557,462,60,118.0,396,1,436,527,217,0,0,614,-1894,243,555,,,,,,,,,,,,
256303,1560691528113,2,2.15,2.79,2.71,2.2,5.04,0.46,0.35,1.13,-15,-2,-19,0.58,8005,79,86,33,85,1423,592.0,548,451,60,118.0,396,1,440,535,217,0,0,610,-32504,-768,565,,,,,,,,,,,,
256323,1560691528133,1,2.17,2.77,2.75,2.18,5.05,0.56,0.36,1.04,-16,-5,-19,0.67,8009,79,86,33,87,1496,594.0,539,457,60,117.0,396,1,444,543,217,0,0,611,-13043,-23055,569,,,,,,,,,,,,
256343,1560691528153,0,2.17,2.77,2.78,2.18,5.05,0.55,0.43,1.01,-16,-3,-18,0.69,8148,80,86,33,87,1498,598.0,555,460,60,117.0,293,1,441,560,168,0,0,611,4956,30721,576,45.701565,4.910794,53.96,200.5,2,1.435,0,0.0,0.215,3,0.19,4.2724
256363,1560691528173,3,2.18,2.77,2.89,2.17,5.04,0.48,0.44,0.91,-15,-3,-19,0.65,8442,80,86,33,86,1498,600.0,567,457,60,117.0,293,1,433,569,168,0,0,610,30227,26688,576,,,,,,,,,,,,
256383,1560691528193,3,2.18,2.76,2.94,2.21,5.04,0.5,0.43,1.01,-14,-2,-20,0.66,8680,80,86,33,84,1420,603.0,582,456,60,118.0,293,1,425,566,168,0,0,625,-7939,20993,582,,,,,,,,,,,,
256403,1560691528213,1,2.18,2.74,2.95,2.24,5.06,0.57,0.38,1.11,-14,-4,-20,0.69,8761,80,86,33,83,1339,608.0,598,463,60,118.0,293,1,423,555,168,0,0,639,-23055,6208,588,,,,,,,,,,,,
256423,1560691528233,2,2.17,2.72,2.9,2.25,5.06,0.65,0.43,1.13,-15,-3,-20,0.78,8761,80,86,33,83,1260,612.0,595,455,60,118.0,293,1,423,555,168,0,0,643,28675,4909,593,,,,,,,,,,,,
256443,1560691528253,1,2.19,2.7,2.79,2.22,5.08,0.57,0.59,1.02,-15,-5,-17,0.82,8757,80,86,33,83,1179,621.0,597,448,60,117.0,308,1,423,540,184,0,0,645,-18357,11566,596,45.701576,4.91079,56.3,200.6,2,1.435,0,0.0,0.2167,3,0.19,4.274
256463,1560691528273,5,2.2,2.71,2.76,2.19,5.08,0.55,0.61,0.93,-15,-3,-17,0.82,8761,80,86,33,83,1112,625.0,578,455,60,117.0,308,1,423,540,184,0,0,640,-1346,-2826,603,,,,,,,,,,,,
256483,1560691528293,3,2.2,2.7,2.77,2.19,5.04,0.58,0.55,0.95,-14,-2,-16,0.8,8802,80,86,33,82,1046,628.0,588,463,60,118.0,308,1,421,555,184,0,0,652,-14655,-8429,607,,,,,,,,,,,,
256503,1560691528313,5,2.2,2.7,2.82,2.19,5.04,0.57,0.32,1.05,-14,-0,-18,0.66,8882,80,86,33,82,1039,634.0,586,457,60,117.0,308,1,420,540,184,0,0,657,-4876,966,614,,,,,,,,,,,,
256523,1560691528333,3,2.19,2.71,2.83,2.22,5.04,0.7,0.15,1.13,-14,0,-19,0.71,8873,80,86,33,82,1053,637.0,588,459,60,118.0,308,1,420,540,184,0,0,659,-5120,11776,617,,,,,,,,,,,,
256543,1560691528353,3,2.2,2.7,2.74,2.19,5.08,0.74,0.05,1.22,-15,1,-19,0.74,8873,80,86,33,82,1067,640.0,583,461,60,118.0,294,1,420,540,182,0,0,654,11776,-2826,622,45.701592,4.910785,58.11,200.6,2,1.435,0,0.0,0.2183,3,0.19,4.2757
256563,1560691528373,4,2.2,2.72,2.71,2.17,5.04,0.83,0.02,1.29,-14,0,-18,0.83,8907,80,86,33,82,1080,645.0,593,451,60,118.0,294,1,419,540,182,0,0,661,4909,31988,624,,,,,,,,,,,,
256583,1560691528393,4,2.19,2.72,2.71,2.16,5.04,0.92,0.05,1.36,-13,-2,-19,0.93,8992,80,86,33,82,1084,648.0,591,464,60,118.0,294,1,418,540,182,0,0,660,-6006,3543,628,,,,,,,,,,,,
256603,1560691528413,3,2.19,2.71,2.81,2.16,5.04,1.03,-0.07,1.4,-13,-2,-18,1.04,9110,80,86,33,81,1084,652.0,597,463,60,118.0,294,1,416,526,182,0,0,681,24583,-2830,635,,,,,,,,,,,,
256623,1560691528433,6,2.18,2.71,2.85,2.18,5.04,1.08,-0.18,1.46,-13,-0,-18,1.1,9195,80,86,33,81,1082,656.0,596,465,60,118.0,294,1,416,540,182,0,0,680,-10344,-26562,637,,,,,,,,,,,,
256643,1560691528453,0,2.17,2.71,2.82,2.18,5.04,0.88,0.04,1.36,-14,-1,-20,0.88,9241,80,86,33,81,1081,660.0,605,468,60,118.0,286,1,416,526,183,0,0,684,-10344,-10399,642,45.701603,4.91078,60.08,200.6,2,1.435,0,0.0,0.22,3,0.2,4.2774
256663,1560691528473,2,2.19,2.7,2.82,2.17,5.08,0.84,0.16,1.21,-13,-1,-19,0.85,9370,80,86,33,81,1080,667.0,615,459,60,118.0,286,1,417,526,183,0,0,688,-3578,-26562,645,,,,,,,,,,,,
256683,1560691528492,4,2.17,2.71,2.79,2.17,5.06,0.9,0.09,1.29,-13,1,-17,0.9,9403,80,86,33,81,1080,669.0,624,452,60,118.0,286,1,417,526,183,0,0,686,31988,14342,650,,,,,,,,,,,,
256703,1560691528512,5,2.17,2.7,2.78,2.18,5.06,0.91,0.04,1.3,-14,-0,-16,0.91,9431,80,86,33,81,1078,675.0,617,460,60,118.0,286,1,417,526,183,0,0,694,-2345,24,656,,,,,,,,,,,,
256723,1560691528532,3,2.17,2.72,2.78,2.17,5.04,0.63,0.17,1.18,-13,0,-17,0.65,9498,79,86,33,81,1074,677.0,609,450,60,118.0,286,1,417,526,183,0,0,701,-26892,6208,656,,,,,,,,,,,,
256743,1560691528552,4,2.17,2.73,2.78,2.16,5.04,0.76,0.15,1.17,-13,-0,-18,0.78,9561,75,86,33,78,1070,683.0,620,454,60,118.0,282,1,414,486,185,0,0,709,-26562,-10448,661,45.701618,4.910774,62.5,200.6,2,1.435,0,0.0,0.2217,3,0.2,4.279
256763,1560691528572,5,2.18,2.7,2.78,2.14,5.04,0.73,0.07,1.25,-13,-1,-19,0.74,9576,72,86,33,75,1067,691.0,615,463,60,118.0,282,1,413,461,185,0,0,711,1780,-10448,670,,,,,,,,,,,,
256783,1560691528592,2,2.18,2.72,2.77,2.15,5.04,0.53,0.26,1.19,-14,1,-17,0.6,9595,71,86,33,74,1060,693.0,615,459,60,117.0,282,1,413,441,185,0,0,710,11576,-3888,673,,,,,,,,,,,,
256803,1560691528612,3,2.18,2.76,2.76,2.15,5.04,0.68,0.17,1.18,-14,-1,-17,0.7,9620,70,86,33,73,1050,695.0,613,457,60,118.0,282,1,411,437,185,0,0,711,24,-23490,673,,,,,,,,,,,,
256823,1560691528632,-0,2.17,2.76,2.77,2.15,5.04,0.54,0.36,1.11,-14,-1,-18,0.65,9679,70,86,33,71,1042,698.0,625,457,60,118.0,282,1,409,433,185,0,0,719,24,-388,675,,,,,,,,,,,,
256843,1560691528652,2,2.16,2.74,2.76,2.14,5.04,0.67,0.31,1.18,-13,-1,-19,0.74,9755,70,86,33,71,1036,701.0,629,453,60,118.0,235,1,406,431,158,0,0,716,24,6658,679,45.701637,4.910767,64.38,200.6,2,1.435,0,0.0,0.2233,3,0.2,4.2807
256863,1560691528672,1,2.17,2.72,2.77,2.11,5.04,0.52,0.42,1.14,-14,-1,-19,0.67,9786,70,86,33,71,1026,706.0,625,459,60,118.0,235,1,404,427,158,0,0,721,687,-2826,687,,,,,,,,,,,,
256883,1560691528692,4,2.18,2.7,2.78,2.09,5.04,0.54,0.31,1.13,-14,-1,-19,0.62,9852,70,86,33,70,1013,714.0,628,453,60,118.0,235,1,402,433,158,0,0,731,204,3462,687,,,,,,,,,,,,
256903,1560691528712,2,2.18,2.71,2.79,2.07,5.04,0.49,0.45,1.05,-14,-0,-18,0.67,9925,70,86,33,69,1002,717.0,635,456,60,117.0,235,1,399,442,158,0,0,727,-23490,-2826,688,,,,,,,,,,,,
256923,1560691528732,1,2.17,2.72,2.78,2.06,5.08,0.49,0.44,1.06,-14,-0,-18,0.66,10016,70,86,33,69,995,720.0,622,458,60,118.0,235,1,396,442,158,0,0,734,-2830,-25858,688,,,,,,,,,,,,
256943,1560691528752,5,2.18,2.72,2.75,2.06,5.08,0.56,0.41,1.1,-14,1,-18,0.69,10059,70,86,33,69,990,721.0,620,461,60,117.0,243,1,400,442,168,0,0,740,-25858,-2830,693,45.701652,4.910759,66.67,200.6,2,1.435,0,0.0,0.225,3,0.2,4.2824
256963,1560691528772,3,2.17,2.71,2.7,2.04,5.04,0.58,0.57,1.13,-15,-0,-17,0.81,9984,69,86,33,69,989,722.0,637,457,60,117.0,243,1,396,440,168,0,0,747,-4091,-31066,697,,,,,,,,,,,,
256983,1560691528792,3,2.18,2.7,2.66,2.02,5.04,0.56,0.55,1.09,-15,1,-18,0.79,9952,68,86,33,68,990,730.0,620,462,60,118.0,243,1,396,436,168,0,0,743,-2358,-13068,705,,,,,,,,,,,,
257003,1560691528812,3,2.19,2.71,2.65,2.03,5.06,0.57,0.49,1.06,-14,3,-19,0.76,10005,67,86,33,68,997,733.0,622,455,60,118.0,243,1,395,435,168,0,0,741,-31066,-2314,706,,,,,,,,,,,,
257023,1560691528832,2,2.18,2.75,2.74,2.11,5.06,0.54,0.57,1.01,-13,0,-17,0.79,10059,67,86,33,67,1002,730.0,632,464,60,117.0,243,1,402,428,168,0,0,744,-2358,6790,704,,,,,,,,,,,,
257043,1560691528852,3,2.16,2.78,2.75,2.25,5.04,0.53,0.51,0.94,-12,-1,-16,0.74,10157,67,86,33,67,1003,724.0,627,458,60,117.0,232,1,416,431,164,0,0,750,-2918,-31066,704,45.701668,4.910751,68.21,200.6,2,1.435,0,0.0,0.2267,3,0.2,4.284
257063,1560691528872,2,2.15,2.77,2.77,2.24,5.07,0.63,0.48,0.91,-13,-2,-17,0.8,10217,67,86,33,67,1005,728.0,637,456,60,118.0,232,1,417,432,164,0,0,741,-13580,-2314,707,,,,,,,,,,,,
257083,1560691528892,6,2.16,2.75,2.78,2.22,5.04,0.71,0.5,0.96,-13,-4,-17,0.87,10151,66,86,33,67,1000,735.0,644,457,60,118.0,232,1,411,430,164,0,0,751,3462,8838,712,,,,,,,,,,,,
257103,1560691528912,4,2.16,2.76,2.94,2.21,5.05,0.62,0.51,0.91,-14,-5,-18,0.81,10223,59,86,33,65,994,738.0,648,456,60,117.0,232,1,421,415,164,0,0,756,-2830,-31068,714,,,,,,,,,,,,
257123,1560691528932,4,2.17,2.75,3.04,2.19,5.05,0.56,0.5,1.02,-15,-5,-19,0.75,10347,53,86,33,62,982,742.0,639,455,60,117.0,232,1,436,400,164,0,0,766,-2826,6389,719,,,,,,,,,,,,
257143,1560691528952,4,2.18,2.75,3.06,2.15,5.04,0.52,0.4,1.02,-15,-4,-20,0.66,10539,47,86,33,59,971,748.0,639,459,60,117.0,215,1,435,368,155,0,0,760,-4096,-22795,719,45.701683,4.910742,70.01,200.6,2,1.435,0,0.0,0.2283,3,0.2,4.2857
257163,1560691528972,4,2.18,2.73,2.99,2.1,5.06,0.61,0.37,1.11,-16,-5,-19,0.72,10486,39,86,33,55,964,750.0,637,457,60,118.0,215,1,406,343,155,0,0,768,-2830,-2766,723,,,,,,,,,,,,
257183,1560691528992,1,2.19,2.74,2.92,2.07,5.06,0.51,0.39,1.07,-16,-4,-18,0.64,10279,33,86,33,51,958,755.0,631,461,60,118.0,215,1,391,289,155,0,0,767,-31066,-2570,723,,,,,,,,,,,,
257203,1560691529006,1,2.18,2.76,2.79,2.08,5.05,0.59,0.4,0.94,-16,-1,-18,0.72,10129,27,86,33,46,945,755.0,635,453,60,118.0,215,1,372,248,155,0,0,761,-22795,-3344,724,,,,,,,,,,,,
257223,1560691529026,5,2.17,2.76,2.75,2.07,5.07,0.71,0.47,0.89,-16,-3,-17,0.86,9750,20,86,33,42,931,752.0,637,458,60,118.0,215,1,342,226,155,0,0,752,-2830,3462,722,,,,,,,,,,,,
257243,1560691529046,9,2.17,2.75,2.74,2.01,5.04,0.85,0.4,0.91,-16,-5,-18,0.93,9532,15,86,33,38,924,747.0,631,461,60,118.0,112,1,317,213,81,0,0,748,136,-3344,717,45.701698,4.910731,71.33,200.6,2,1.435,0,0.0,0.23,3,0.21,4.2874
257263,1560691529066,4,2.18,2.71,2.86,1.95,5.05,0.59,0.56,0.7,-15,-3,-18,0.81,9323,14,86,33,35,917,743.0,637,456,60,117.0,112,1,308,202,81,0,0,744,-22796,-4091,723,,,,,,,,,,,,
257283,1560691529092,4,2.19,2.65,2.96,1.92,5.06,0.54,0.7,0.57,-15,-3,-17,0.89,9115,14,86,33,33,887,744.0,628,457,60,117.0,112,1,302,193,81,0,0,740,6790,-3888,721,,,,,,,,,,,,
257303,1560691529112,4,2.19,2.64,3.08,1.88,5.04,0.63,0.79,0.5,-14,-4,-17,1.01,8941,14,86,33,30,857,745.0,616,458,60,118.0,112,1,291,188,81,0,0,734,-22796,687,717,,,,,,,,,,,,
257323,1560691529132,9,2.19,2.61,3.13,1.85,5.06,0.61,0.86,0.36,-14,-5,-19,1.05,8907,14,86,33,29,832,740.0,611,462,60,117.0,112,1,287,188,81,0,0,711,-2356,8958,713,,,,,,,,,,,,
257343,1560691529152,10,2.21,2.55,3.26,1.84,5.04,0.59,0.98,0.22,-13,-4,-18,1.14,8971,13,86,33,27,808,736.0,613,455,60,118.0,88,1,278,188,63,0,0,698,1037,4909,711,45.701717,4.910719,71.79,200.5,2,1.435,0,0.0,0.2317,3,0.21,4.2891
257363,1560691529172,13,2.2,2.51,3.28,1.82,5.06,0.64,1.08,0.12,-13,-4,-18,1.26,8954,13,86,33,26,805,733.0,608,460,60,118.0,88,1,274,188,63,0,0,684,-2826,20993,707,,,,,,,,,,,,
257383,1560691529192,13,2.21,2.49,3.25,1.81,5.07,0.63,1.17,0.0,-14,-2,-17,1.33,8941,13,86,33,26,808,729.0,621,457,60,118.0,88,1,274,188,63,0,0,690,-13580,19304,703,,,,,,,,,,,,
257403,1560691529212,12,2.22,2.49,3.2,1.8,5.04,0.62,1.16,-0.08,-14,-2,-19,1.31,8873,13,86,33,25,828,721.0,615,460,60,118.0,88,1,270,188,63,0,0,697,31988,3395,694,,,,,,,,,,,,
257423,1560691529232,13,2.21,2.49,3.16,1.8,5.06,0.66,1.14,-0.15,-14,-3,-21,1.31,8856,13,86,32,24,854,713.0,621,456,60,118.0,88,1,270,188,63,0,0,694,-13312,19320,685,,,,,,,,,,,,
257443,1560691529252,13,2.21,2.48,3.14,1.76,5.06,0.77,1.01,-0.17,-14,-4,-21,1.27,8856,13,86,32,24,884,708.0,612,460,60,118.0,88,1,270,181,60,0,0,683,-30694,17336,679,45.701729,4.910706,71.28,200.5,2,1.435,0,0.0,0.2333,3,0.21,4.2907
257463,1560691529272,14,2.21,2.44,3.13,1.73,5.04,0.84,0.8,-0.0,-15,-3,-20,1.16,8819,13,86,32,24,915,702.0,625,460,60,118.0,88,1,270,181,60,0,0,675,8010,-3210,677,,,,,,,,,,,,
257483,1560691529292,14,2.21,2.43,3.13,1.7,5.04,0.89,0.71,0.07,-15,-5,-19,1.13,8716,13,86,32,24,932,700.0,620,462,60,119.0,88,1,270,181,60,0,0,692,-2830,-1894,675,,,,,,,,,,,,
257503,1560691529312,16,2.22,2.42,3.17,1.68,5.08,0.93,0.72,0.08,-14,-4,-20,1.18,8553,12,86,32,24,937,694.0,622,456,60,118.0,88,1,270,181,60,0,0,681,12333,6273,667,,,,,,,,,,,,
257523,1560691529332,13,2.23,2.41,3.19,1.68,5.07,0.99,0.65,0.06,-14,-5,-22,1.19,8423,13,86,32,24,942,691.0,604,462,60,118.0,88,1,270,178,60,0,0,682,1780,14504,670,,,,,,,,,,,,
257543,1560691529352,15,2.24,2.41,3.19,1.69,5.08,0.98,0.68,0.02,-13,-2,-20,1.19,8212,12,86,32,25,948,690.0,589,457,60,117.0,82,1,270,171,55,0,0,680,6208,-22519,665,45.701744,4.910694,69.1,200.4,2,1.435,0,0.0,0.235,3,0.21,4.2924
257563,1560691529372,12,2.23,2.42,3.18,1.71,5.05,0.97,0.6,0.12,-13,-2,-20,1.14,8005,12,86,32,25,951,682.0,573,457,60,118.0,82,1,270,159,55,0,0,673,16118,-22263,659,,,,,,,,,,,,
257583,1560691529392,16,2.24,2.41,3.18,1.7,5.07,1.07,0.68,0.03,-13,-5,-21,1.27,7924,12,86,32,25,952,673.0,563,460,60,117.0,82,1,269,159,55,0,0,655,-26380,-18032,655,,,,,,,,,,,,
257603,1560691529412,16,2.23,2.39,3.19,1.68,5.05,1.04,0.61,-0.04,-11,-4,-20,1.2,7938,12,86,32,25,952,665.0,564,459,60,118.0,82,1,269,159,55,0,0,641,3543,-2934,651,,,,,,,,,,,,
257623,1560691529432,13,2.24,2.27,3.2,1.65,5.08,1.01,0.55,0.07,-10,-3,-20,1.16,7944,12,86,32,25,952,661.0,563,458,60,119.0,82,1,269,159,55,0,0,625,-2345,-22519,651,,,,,,,,,,,,
257643,1560691529452,13,2.24,2.21,3.26,1.61,5.05,1.1,0.56,-0.03,-10,-3,-20,1.23,7971,12,85,32,25,952,658.0,565,461,60,118.0,72,1,269,159,47,0,0,606,-3038,-28648,648,45.701756,4.91068,66.75,200.4,2,1.435,0,0.0,0.2367,3,0.21,4.2941
257663,1560691529472,14,2.24,2.19,3.28,1.63,5.06,1.06,0.62,-0.15,-9,-1,-19,1.23,7901,12,85,32,25,951,650.0,566,457,60,118.0,72,1,269,159,47,0,0,611,-30207,-28648,637,,,,,,,,,,,,
257683,1560691529491,17,2.24,2.19,3.28,1.64,5.04,1.03,0.55,-0.18,-8,2,-17,1.17,7815,12,85,32,25,951,646.0,559,458,60,119.0,72,1,268,159,47,0,0,601,4909,774,631,,,,,,,,,,,,
257703,1560691529511,11,2.25,2.19,3.29,1.65,5.06,1.06,0.44,-0.09,-8,-1,-16,1.15,7845,11,85,32,25,950,636.0,564,462,60,119.0,72,1,268,159,47,0,0,596,-2580,774,626,,,,,,,,,,,,
257723,1560691529531,14,2.24,2.18,3.25,1.65,5.06,1.15,0.47,-0.06,-8,-0,-16,1.25,7838,11,85,32,25,949,629.0,552,456,60,118.0,72,1,268,159,47,0,0,589,-14655,15649,616,,,,,,,,,,,,
257743,1560691529551,16,2.24,2.15,3.26,1.64,5.07,1.17,0.53,-0.06,-9,-2,-14,1.29,7888,11,85,32,25,949,622.0,561,458,60,118.0,76,1,268,159,47,0,0,576,17336,-25872,613,45.701771,4.910666,64.42,200.3,2,1.435,0,0.0,0.2383,3,0.22,4.2957
257763,1560691529571,17,2.24,2.15,3.28,1.64,5.04,1.14,0.46,-0.08,-8,-2,-14,1.23,7904,11,85,32,24,949,617.0,558,460,60,119.0,76,1,269,159,47,0,0,577,269,-3190,608,,,,,,,,,,,,
257783,1560691529593,15,2.24,2.15,3.29,1.65,5.04,1.17,0.4,-0.01,-8,-2,-13,1.23,7815,11,85,32,25,951,613.0,553,458,60,119.0,76,1,268,159,47,0,0,577,-28304,-28648,603,,,,,,,,,,,,
257803,1560691529613,12,2.24,2.14,3.36,1.65,5.05,1.23,0.34,0.11,-7,-2,-13,1.27,7735,11,85,32,24,954,607.0,547,466,60,120.0,76,1,267,156,47,0,0,577,19621,-2336,599,,,,,,,,,,,,
257823,1560691529633,11,2.24,2.14,3.37,1.65,5.04,1.27,0.37,0.13,-8,-3,-12,1.32,7563,11,85,32,25,957,605.0,535,458,60,120.0,76,1,265,159,47,0,0,569,-7939,-32248,593,,,,,,,,,,,,
257843,1560691529653,15,2.24,2.15,3.35,1.69,5.05,1.31,0.36,0.11,-8,-4,-11,1.36,7473,11,85,32,24,963,597.0,531,461,60,119.0,75,1,264,156,45,0,0,566,23619,-32504,585,45.701782,4.910653,61.93,200.3,2,1.435,0,0.0,0.24,3,0.22,4.2974
257863,1560691529673,15,2.25,2.14,3.36,1.68,5.08,1.38,0.33,0.21,-9,-4,-9,1.42,7437,11,85,32,24,976,587.0,528,457,60,117.0,75,1,264,156,45,0,0,553,-12040,2104,578,,,,,,,,,,,,
257883,1560691529693,14,2.25,2.14,3.36,1.68,5.05,1.36,0.34,0.26,-8,-4,-9,1.41,7458,11,85,32,24,988,583.0,537,461,60,119.0,75,1,264,156,45,0,0,537,15649,-8186,572,,,,,,,,,,,,
257903,1560691529713,21,2.24,2.14,3.37,1.69,5.04,1.36,0.26,0.34,-8,-5,-9,1.38,7364,11,85,32,24,1000,574.0,529,458,60,119.0,75,1,263,156,45,0,0,538,774,-3082,569,,,,,,,,,,,,
257923,1560691529733,19,2.24,2.11,3.37,1.67,5.05,1.39,0.19,0.31,-8,-5,-8,1.4,7335,11,85,32,24,1010,571.0,528,458,60,118.0,75,1,263,222,45,0,0,534,1267,1779,563,,,,,,,,,,,,
257943,1560691529753,16,2.25,2.08,3.37,1.67,5.06,1.36,0.18,0.25,-7,-2,-6,1.37,7275,11,85,32,25,1023,566.0,523,457,60,118.0,106,1,262,210,60,0,0,535,-30159,2524,559,45.701798,4.910639,58.8,200.2,2,1.435,0,0.0,0.2417,3,0.22,4.299
257963,1560691529773,17,2.24,2.07,3.38,1.66,5.04,1.28,0.22,0.18,-6,-3,-6,1.3,7167,11,85,32,25,1037,560.0,525,461,60,116.0,106,1,261,195,60,0,0,528,-28648,2524,558,,,,,,,,,,,,
257983,1560691529793,17,2.23,2.06,3.36,1.67,5.03,1.27,0.23,0.14,-7,-2,-6,1.29,7035,11,85,32,25,1041,555.0,516,457,60,118.0,106,1,261,180,60,0,0,539,-22263,-22519,550,,,,,,,,,,,,
258003,1560691529813,18,2.22,2.06,3.36,1.65,5.04,1.24,0.24,0.18,-5,-4,-6,1.26,6895,11,85,32,25,1045,550.0,505,469,60,118.0,106,1,262,163,60,0,0,526,-8962,11560,544,,,,,,,,,,,,
258023,1560691529833,16,2.22,2.05,3.39,1.63,5.04,1.11,0.35,-0.04,-5,3,-7,1.16,6818,11,85,32,25,1010,545.0,493,461,60,118.0,106,1,262,159,60,0,0,503,-8962,19477,540,,,,,,,,,,,,
258043,1560691529853,21,2.22,2.03,3.38,1.63,5.06,1.2,0.29,0.06,-5,-2,-6,1.24,7051,11,85,32,25,975,543.0,498,455,60,119.0,75,1,260,159,41,0,0,432,-8186,21432,528,45.701805,4.910626,56.26,200.2,2,1.435,0,0.0,0.2433,3,0.22,4.3007
258063,1560691529873,19,2.22,2.01,3.39,1.62,5.07,1.28,0.23,0.08,-5,2,-6,1.3,7086,11,85,32,25,935,534.0,495,457,60,119.0,75,1,260,159,41,0,0,383,-32248,240,523,,,,,,,,,,,,
258083,1560691529893,19,2.23,2.01,3.39,1.63,5.03,1.24,0.26,0.02,-4,1,-7,1.27,7172,11,85,32,25,894,528.0,502,464,60,117.0,75,1,261,159,41,0,0,364,-28648,-19019,519,,,,,,,,,,,,
258103,1560691529913,17,2.23,2.02,3.39,1.63,5.08,1.15,0.32,-0.04,-5,3,-9,1.19,7078,10,85,32,25,855,522.0,512,462,60,117.0,75,1,260,159,41,0,0,364,2524,-1562,509,,,,,,,,,,,,
258123,1560691529933,21,2.23,2.01,3.38,1.63,5.07,1.23,0.21,0.07,-5,-0,-10,1.25,7046,10,85,33,25,816,514.0,508,460,60,119.0,75,1,260,159,41,0,0,382,-3482,-6524,503,,,,,,,,,,,,
258143,1560691529953,17,2.25,2.01,3.39,1.63,5.08,1.21,0.21,-0.14,-5,1,-7,1.23,7067,10,85,33,25,806,507.0,510,462,60,118.0,83,1,260,159,42,0,0,392,-21872,-31744,493,45.701817,4.910614,53.3,200.2,2,1.435,0,0.0,0.245,3,0.22,4.3024
258163,1560691529973,13,2.25,2.01,3.39,1.63,5.04,1.19,0.25,-0.24,-5,2,-5,1.22,7080,10,85,33,25,807,501.0,510,463,60,117.0,83,1,260,159,42,0,0,371,11560,3082,489,,,,,,,,,,,,
258183,1560691529993,20,2.25,2.01,3.4,1.63,5.08,1.26,0.2,-0.03,-7,2,-5,1.28,7009,10,85,33,25,820,497.0,496,456,60,118.0,83,1,260,159,42,0,0,365,771,2811,483,,,,,,,,,,,,
258203,1560691530003,15,2.27,2.01,3.38,1.64,5.05,1.22,0.17,-0.08,-6,3,-7,1.24,6926,10,85,33,25,835,489.0,502,461,60,119.0,83,1,261,159,42,0,0,386,-6656,1,475,,,,,,,,,,,,
258223,1560691530023,15,2.27,2.01,3.38,1.64,5.03,1.21,0.25,-0.15,-6,2,-9,1.23,6813,10,85,33,25,851,481.0,510,461,60,117.0,83,1,262,160,42,0,0,406,32033,-3866,470,,,,,,,,,,,,
258243,1560691530043,17,2.27,2.01,3.39,1.64,5.07,1.29,0.18,-0.05,-7,-1,-8,1.3,6865,10,85,33,25,866,473.0,501,459,60,119.0,87,1,262,159,41,0,0,356,3576,8200,463,45.701824,4.910602,50.08,200.2,2,1.435,0,0.0,0.2467,3,0.22,4.304
258263,1560691530063,14,2.27,2.0,3.41,1.63,5.07,1.23,0.24,-0.19,-6,2,-7,1.26,6941,10,85,33,26,879,471.0,506,463,60,118.0,87,1,265,160,41,0,0,329,10432,3302,459,,,,,,,,,,,,
258283,1560691530093,16,2.28,2.0,3.41,1.65,5.05,1.26,0.21,-0.1,-6,-1,-7,1.27,6865,10,85,33,26,890,465.0,511,463,60,118.0,87,1,266,160,41,0,0,329,30272,6668,455,,,,,,,,,,,,
258303,1560691530113,15,2.26,2.02,3.39,1.66,5.04,1.25,0.26,-0.17,-7,1,-7,1.27,6691,10,85,33,26,893,459.0,499,455,60,119.0,87,1,267,160,41,0,0,363,14488,-6656,448,,,,,,,,,,,,
258323,1560691530133,17,2.27,2.02,3.35,1.64,5.08,1.29,0.32,-0.14,-7,0,-8,1.33,6590,10,85,33,26,890,451.0,491,462,60,119.0,87,1,268,160,41,0,0,407,3571,1,440,,,,,,,,,,,,
258343,1560691530153,13,2.26,2.01,3.35,1.6,5.07,1.27,0.37,-0.15,-6,-1,-8,1.32,6602,10,85,33,26,886,445.0,487,462,60,118.0,90,1,267,160,40,0,0,410,-18341,770,435,45.701836,4.910591,47.26,200.1,2,1.435,0,0.0,0.2483,3,0.23,4.3057
258363,1560691530173,12,2.27,2.0,3.36,1.58,5.05,1.29,0.26,-0.09,-6,1,-10,1.32,6722,10,85,33,27,883,437.0,481,455,60,119.0,90,1,270,161,40,0,0,374,19477,-1246,431,,,,,,,,,,,,
258383,1560691530193,11,2.27,1.99,3.36,1.58,5.07,1.27,0.29,-0.13,-5,-0,-10,1.3,6722,10,85,33,27,881,433.0,498,461,60,118.0,90,1,270,161,40,0,0,360,243,2811,427,,,,,,,,,,,,
258403,1560691530213,12,2.27,2.0,3.39,1.62,5.08,1.34,0.18,-0.12,-6,-1,-8,1.35,6694,10,85,33,27,880,428.0,494,459,60,119.0,90,1,271,161,40,0,0,348,13180,770,421,,,,,,,,,,,,
