"Interval"|"ms"|0|0|1,"Utc"|"ms"|0|0|1,"FB_p"|"bar"|0|300|50,"Volant"|"F"|0.0|300.0|50,"xFR"|"mm"|0.0|5.0|50,"xRR"|"mm"|0.0|5.0|50,"xFL"|"mm"|0.0|5.0|50,"xRL"|"mm"|0.0|5.0|50,"AccelX"|"G"|-3.0|3.0|50,"AccelY"|"G"|-3.0|3.0|50,"AccelZ"|"G"|-3.0|3.0|50,"Yaw"|"Deg/Sec"|-120|120|50,"Pitch"|"Deg/Sec"|-120|120|50,"Roll"|"Deg/Sec"|-120|120|50,"Gsum"|"G"|0.0|3.0|50,"RPM"|""|0|14000|50,"TPS"|"%"|0|100|50,"WaterTemp"|"?C"|0|300|50,"AirTemp"|"?C"|-1000|1000|50,"MAP"|"KPa"|0|255|50,"Lambda"|""|0|1024|50,"WheelSpeed"|"MPH"|0.0|150.0|50,"OilPress"|"PSI"|0|150|50,"FuelPress"|"PSI"|0|150|50,"OilTemp"|"F"|0|300|50,"Battery"|"Volts"|0.0|20.0|50,"FuelCon"|"L/h"|-1000|1000|50,"Gear"|""|0|10|50,"Advance"|"Deg"|-360|360|50,"Injection"|"ms"|-1000|1000|50,"FuelCon"|"L/100km"|-1000|1000|50,"LC_But_Pres"|""|-1000|1000|50,"LC_Active"|""|-1000|1000|50,"RD_Speed"|""|-1000|1000|50,"RUD_Speed"|""|-1000|1000|50,"LD_Speed"|""|-1000|1000|50,"LUD_Speed"|""|-1000|1000|50,"Latitude"|"Degrees"|-180.0|180.0|10,"Longitude"|"Degrees"|-180.0|180.0|10,"Speed"|"kph"|0.0|150.0|10,"Altitude"|"m"|0.0|4000.0|10,"LapCount"|""|0|0|10,"LapTime"|"Min"|0.0|0.0|10,"Sector"|""|0|0|10,"SectorTime"|"Min"|0.0|0.0|10,"ElapsedTime"|"Min"|0.0|0.0|10,"CurrentLap"|""|0|0|10,"Distance"|"km"|0.0|0.0|10,"SessionTime"|"Min"|0.0|0.0|10
891363,1560692163188,19,2.3,1.8,3.53,1.66,5.06,1.23,0.04,-0.26,1,2,3,1.23,6602,6,91,34,23,934,418.0,450,450,60,119.0,90,1,262,152,38,0,0,366,18584,2060,418,,,,,,,,,,,,
891383,1560692163208,17,2.28,1.8,3.54,1.64,5.06,1.31,-0.05,-0.13,1,-2,4,1.31,6710,6,91,34,23,936,413.0,476,450,60,118.0,90,1,261,153,38,0,0,344,-9166,6668,413,,,,,,,,,,,,
891403,1560692163228,20,2.28,1.8,3.54,1.64,5.04,1.2,-0.01,-0.13,1,-3,4,1.2,6656,6,91,34,23,937,407.0,469,453,60,118.0,90,1,262,152,38,0,0,354,-26615,-6640,406,,,,,,,,,,,,
891423,1560692163248,16,2.28,1.8,3.55,1.64,5.06,1.28,-0.02,-0.19,0,-4,4,1.28,6574,6,91,34,23,940,402.0,468,455,60,117.0,90,1,262,152,38,0,0,368,10541,-1268,400,,,,,,,,,,,,
891443,1560692163268,18,2.29,1.81,3.54,1.64,5.08,1.25,-0.05,-0.17,0,-5,3,1.25,6567,6,91,34,23,941,394.0,460,450,60,119.0,90,1,262,152,38,0,0,365,1,2060,394,45.698978,4.910029,45.46,193.1,8,1.4767,0,0.0,1.0317,9,0.76,14.8574
891463,1560692163288,14,2.29,1.81,3.52,1.64,5.05,1.22,0.04,-0.14,1,-3,2,1.22,6620,6,91,34,24,942,389.0,457,455,60,118.0,97,1,263,152,38,0,0,349,-6524,-30438,387,,,,,,,,,,,,
891483,1560692163308,15,2.28,1.8,3.53,1.63,5.07,1.22,-0.03,-0.05,1,-3,1,1.22,6658,6,91,34,23,944,383.0,464,456,60,117.0,97,1,262,155,38,0,0,334,19125,6870,383,,,,,,,,,,,,
891503,1560692163328,16,2.29,1.8,3.53,1.64,5.06,1.22,-0.03,-0.03,1,-2,-0,1.22,6588,6,91,34,24,944,376.0,466,456,60,118.0,97,1,263,155,38,0,0,342,3,-29978,375,,,,,,,,,,,,
891523,1560692163348,13,2.28,1.8,3.53,1.66,5.04,1.3,-0.0,-0.05,1,-3,0,1.3,6461,6,91,34,24,946,372.0,462,457,60,117.0,97,1,264,155,38,0,0,350,-6656,28553,372,,,,,,,,,,,,
891543,1560692163368,11,2.28,1.82,3.51,1.67,5.05,1.24,-0.11,-0.02,1,-2,0,1.25,6397,6,91,34,24,948,366.0,449,451,60,118.0,97,1,265,155,38,0,0,357,230,-30454,366,45.698967,4.910021,42.4,193.1,8,1.4767,0,0.0,1.0333,9,0.76,14.859
891563,1560692163388,16,2.27,1.85,3.49,1.7,5.08,1.17,-0.13,-0.04,1,-1,1,1.18,6390,6,91,34,24,948,358.0,442,450,60,118.0,101,1,265,155,37,0,0,347,-29978,-30438,358,,,,,,,,,,,,
891583,1560692163408,13,2.28,1.86,3.5,1.69,5.04,1.15,-0.05,-0.05,1,0,3,1.15,6379,6,91,34,24,950,356.0,444,457,60,118.0,101,1,265,155,37,0,0,337,3302,-31222,355,,,,,,,,,,,,
891603,1560692163428,6,2.27,1.85,3.5,1.67,5.05,1.23,-0.11,-0.0,0,-0,4,1.23,6368,6,91,34,25,951,354.0,450,460,60,118.0,101,1,267,159,37,0,0,332,3183,-12032,354,,,,,,,,,,,,
891623,1560692163448,8,2.27,1.85,3.48,1.67,5.08,1.19,-0.15,0.05,1,-1,5,1.2,6311,6,91,34,25,952,350.0,455,458,60,117.0,101,1,267,159,37,0,0,339,-30454,-6528,349,,,,,,,,,,,,
891643,1560692163468,6,2.26,1.87,3.46,1.69,5.06,1.14,-0.15,0.08,1,-1,4,1.15,6273,6,91,34,25,950,348.0,442,448,60,119.0,101,1,268,159,37,0,0,336,6870,13,346,45.698956,4.910013,39.2,193.1,8,1.4767,0,0.0,1.035,9,0.76,14.8607
891663,1560692163488,6,2.26,1.91,3.44,1.73,5.08,1.08,-0.13,0.07,1,-1,3,1.08,6206,6,91,34,25,949,343.0,444,452,60,118.0,106,1,268,159,37,0,0,332,-31206,6668,343,,,,,,,,,,,,
891683,1560692163510,5,2.25,1.91,3.4,1.76,5.03,1.03,-0.07,0.06,1,-1,3,1.04,6163,6,91,34,25,949,340.0,436,448,60,119.0,106,1,269,159,37,0,0,331,3327,-32559,340,,,,,,,,,,,,
891703,1560692163530,5,2.24,1.91,3.35,1.75,5.05,1.01,0.02,0.03,1,2,2,1.01,6151,6,91,34,26,948,339.0,447,455,60,118.0,106,1,272,160,37,0,0,333,-122,175,338,,,,,,,,,,,,
891723,1560692163550,-1,2.25,1.92,3.36,1.75,5.06,1.05,0.07,-0.01,-0,3,1,1.06,6137,6,91,34,26,948,338.0,437,456,60,117.0,106,1,272,160,37,0,0,326,-31222,-25856,335,,,,,,,,,,,,
891743,1560692163570,1,2.24,1.97,3.35,1.78,5.06,1.1,0.07,-0.03,-1,4,-0,1.1,6109,6,91,34,26,948,336.0,439,457,60,117.0,106,1,272,160,37,0,0,328,3346,160,332,45.698952,4.910006,37.12,193.2,8,1.4767,0,0.0,1.0367,9,0.77,14.8624
891763,1560692163590,-1,2.23,1.99,3.34,1.83,5.08,1.17,0.03,-0.02,-2,4,-1,1.17,6050,6,91,34,26,951,333.0,438,457,60,117.0,108,1,272,160,36,0,0,326,-6528,160,330,,,,,,,,,,,,
891783,1560692163606,0,2.22,2.0,3.32,1.82,5.05,1.22,-0.04,0.02,-3,5,-2,1.23,6034,6,91,34,27,954,331.0,442,462,60,117.0,108,1,275,161,36,0,0,324,-12032,-27136,329,,,,,,,,,,,,
891803,1560692163626,0,2.21,2.0,3.29,1.8,5.06,1.3,-0.11,0.07,-4,4,-3,1.31,6034,6,91,34,27,956,331.0,438,458,60,117.0,108,1,275,161,36,0,0,325,-12032,-29696,326,,,,,,,,,,,,
891823,1560692163646,-1,2.21,2.01,3.29,1.81,5.06,1.38,-0.2,0.08,-6,3,-4,1.39,6003,6,91,34,27,957,328.0,437,458,60,117.0,108,1,275,161,36,0,0,324,170,-27136,324,,,,,,,,,,,,
891843,1560692163666,-2,2.21,2.03,3.29,1.81,5.07,1.44,-0.29,0.13,-7,1,-6,1.47,5965,6,91,34,27,956,328.0,432,460,60,117.0,108,1,274,161,36,0,0,321,170,-29696,323,45.698944,4.909998,34.32,193.2,8,1.4767,0,0.0,1.0383,9,0.77,14.864
891863,1560692163686,0,2.2,2.06,3.29,1.82,5.05,1.5,-0.38,0.18,-9,1,-7,1.55,5931,6,91,34,27,956,327.0,426,464,60,117.0,112,1,274,161,36,0,0,322,-22016,-29696,320,,,,,,,,,,,,
891883,1560692163708,-1,2.2,2.06,3.28,1.81,5.05,1.55,-0.41,0.17,-11,2,-8,1.61,5942,6,91,34,27,954,327.0,422,462,60,117.0,112,1,274,161,36,0,0,322,-22016,-29696,318,,,,,,,,,,,,
891903,1560692163728,4,2.19,2.09,3.28,1.81,5.04,1.58,-0.38,0.12,-13,3,-9,1.62,5890,6,91,34,28,952,325.0,421,456,60,117.0,112,1,276,162,36,0,0,320,-23296,-32256,316,,,,,,,,,,,,
891923,1560692163748,3,2.19,2.11,3.27,1.81,5.04,1.5,-0.34,0.09,-14,6,-10,1.54,5850,6,91,34,28,950,323.0,417,457,60,118.0,112,1,276,162,36,0,0,316,-24576,120,313,,,,,,,,,,,,
891943,1560692163768,4,2.18,2.11,3.28,1.81,5.04,1.32,-0.24,0.06,-13,10,-11,1.34,5821,6,91,34,28,948,322.0,410,456,60,118.0,112,1,275,162,36,0,0,315,155,32000,312,45.698936,4.909992,32.91,193.2,8,1.4767,0,0.0,1.04,9,0.77,14.8657
891963,1560692163788,2,2.18,2.11,3.29,1.8,5.05,1.08,-0.11,0.03,-10,13,-11,1.08,5810,6,91,34,29,947,321.0,418,453,60,119.0,112,1,278,162,35,0,0,315,-25856,30720,312,,,,,,,,,,,,
891983,1560692163808,2,2.18,2.11,3.27,1.81,5.05,0.89,0.03,-0.03,-7,14,-11,0.89,5790,5,91,34,29,946,320.0,412,451,60,119.0,112,1,277,163,35,0,0,314,150,29440,309,,,,,,,,,,,,
892003,1560692163828,0,2.17,2.12,3.27,1.8,5.06,0.94,0.15,0.08,-5,10,-11,0.95,5749,6,91,34,29,945,319.0,418,450,60,118.0,112,1,276,163,35,0,0,316,-27136,29440,307,,,,,,,,,,,,
892023,1560692163848,1,2.18,2.12,3.26,1.81,5.07,1.05,0.06,0.22,-7,3,-12,1.05,5726,5,91,34,30,946,316.0,415,457,60,117.0,112,1,279,164,35,0,0,311,140,26880,304,,,,,,,,,,,,
892043,1560692163868,4,2.18,2.12,3.26,1.83,5.04,1.15,0.02,0.21,-11,0,-12,1.15,5702,5,91,34,30,947,315.0,413,460,60,118.0,112,1,279,164,35,0,0,311,-29696,25600,303,45.698929,4.909986,31.71,193.2,8,1.4767,0,0.0,1.0417,9,0.77,14.8674
892063,1560692163888,3,2.19,2.12,3.26,1.82,5.05,1.02,-0.03,0.22,-11,3,-11,1.02,5685,5,91,34,30,949,312.0,407,464,60,119.0,115,1,278,163,35,0,0,309,135,100,303,,,,,,,,,,,,
892083,1560692163908,0,2.2,2.12,3.26,1.83,5.04,0.75,0.05,0.18,-8,7,-11,0.75,5630,5,91,34,31,950,312.0,402,456,60,119.0,115,1,279,164,35,0,0,308,130,23040,302,,,,,,,,,,,,
892103,1560692163928,-2,2.2,2.12,3.26,1.84,5.05,0.82,0.15,0.24,-6,4,-10,0.83,5590,5,91,34,31,952,311.0,408,452,60,117.0,115,1,278,164,35,0,0,305,-32256,24320,300,,,,,,,,,,,,
892123,1560692163948,2,2.21,2.12,3.26,1.85,5.04,0.94,0.11,0.34,-9,1,-11,0.95,5573,5,91,34,32,955,308.0,403,451,60,117.0,115,1,281,164,35,0,0,300,120,95,300,,,,,,,,,,,,
892143,1560692163968,1,2.22,2.1,3.26,1.86,5.03,0.76,-0.0,0.31,-9,6,-12,0.76,5545,5,91,34,32,957,306.0,395,454,60,119.0,115,1,280,164,35,0,0,300,115,23040,298,45.698921,4.90998,31.27,193.2,8,1.4767,0,0.0,1.0433,9,0.77,14.869
892163,1560692163988,0,2.23,2.11,3.27,1.86,5.04,0.67,0.14,0.23,-5,6,-10,0.69,5547,5,91,34,33,957,305.0,400,457,60,117.0,114,1,283,170,34,0,0,297,110,21760,298,,,,,,,,,,,,
892183,1560692164002,-1,2.24,2.11,3.27,1.86,5.05,0.81,0.1,0.33,-7,-2,-9,0.81,5545,5,91,34,33,958,301.0,396,458,60,117.0,114,1,283,170,34,0,0,296,26880,80,296,,,,,,,,,,,,
892203,1560692164022,-0,2.25,2.11,3.28,1.87,5.05,0.76,-0.03,0.34,-9,1,-8,0.76,5511,5,91,34,34,961,300.0,388,452,60,118.0,114,1,287,176,34,0,0,296,100,0,295,,,,,,,,,,,,
892223,1560692164042,1,2.25,2.1,3.3,1.86,5.06,0.58,0.03,0.31,-4,4,-7,0.58,5464,5,91,34,34,963,298.0,391,450,60,118.0,114,1,286,175,34,0,0,291,95,0,294,,,,,,,,,,,,
892243,1560692164062,4,2.25,2.1,3.3,1.87,5.07,0.72,0.07,0.37,-5,-1,-6,0.72,5395,5,91,34,35,961,297.0,391,462,60,117.0,114,1,288,180,34,0,0,293,24320,0,294,45.698917,4.909974,30.14,193.2,8,1.4767,0,0.0,1.045,9,0.77,14.8707
892263,1560692164082,0,2.25,2.09,3.28,1.88,5.04,0.56,-0.06,0.32,-7,4,-7,0.56,5364,5,91,34,35,956,297.0,382,456,60,119.0,122,1,288,179,36,0,0,290,24320,0,293,,,,,,,,,,,,
892283,1560692164107,-1,2.26,2.1,3.27,1.89,5.07,0.71,0.03,0.31,-3,-0,-6,0.71,5341,5,91,34,36,950,293.0,387,452,60,117.0,122,1,291,185,36,0,0,288,21760,41,291,,,,,,,,,,,,
892303,1560692164127,1,2.27,2.1,3.28,1.89,5.04,0.73,-0.06,0.37,-6,1,-7,0.73,5329,5,91,35,37,944,291.0,377,460,60,119.0,122,1,295,184,36,0,0,284,0,0,289,,,,,,,,,,,,
892323,1560692164147,-1,2.28,2.08,3.3,1.88,5.06,0.66,0.08,0.31,-2,2,-5,0.67,5344,5,91,35,37,930,288.0,386,457,60,118.0,122,1,295,190,36,0,0,280,0,250,287,,,,,,,,,,,,
892343,1560692164167,3,2.27,2.07,3.3,1.89,5.07,0.8,0.03,0.4,-6,-1,-5,0.8,5357,5,91,35,37,904,289.0,389,452,60,118.0,122,1,295,190,36,0,0,280,0,250,288,45.69891,4.909969,29.37,193.2,8,1.4767,0,0.0,1.0467,9,0.77,14.8724
892363,1560692164187,0,2.28,2.07,3.31,1.9,5.07,0.55,0.06,0.3,-2,4,-5,0.55,5292,5,91,35,37,879,287.0,384,457,60,119.0,132,1,294,196,38,0,0,284,41,250,287,,,,,,,,,,,,
892383,1560692164207,3,2.28,2.09,3.3,1.94,5.07,0.69,0.07,0.39,-4,-1,-4,0.7,5228,5,91,35,38,858,286.0,378,462,60,118.0,132,1,298,196,38,0,0,282,-16896,-1529,285,,,,,,,,,,,,
892403,1560692164227,-1,2.29,2.09,3.3,1.93,5.04,0.53,0.07,0.33,-1,2,-3,0.54,5185,5,91,35,38,840,284.0,378,443,60,118.0,132,1,297,195,38,0,0,279,-1529,250,284,,,,,,,,,,,,
892423,1560692164247,0,2.3,2.08,3.29,1.94,5.05,0.68,0.01,0.37,-4,-0,-3,0.68,5192,5,91,35,39,825,284.0,374,464,60,118.0,132,1,301,202,38,0,0,277,24064,1886,284,,,,,,,,,,,,
892443,1560692164267,-1,2.3,2.07,3.3,1.93,5.04,0.64,0.07,0.28,-0,1,-2,0.64,5224,5,91,35,39,810,282.0,375,453,60,117.0,132,1,302,203,38,0,0,275,250,28160,282,45.698902,4.909964,28.69,193.3,8,1.4767,0,0.0,1.0483,9,0.77,14.8741
892463,1560692164287,2,2.32,2.06,3.3,1.94,5.04,0.73,-0.01,0.35,-3,0,-2,0.73,5185,5,91,35,39,815,281.0,366,456,60,118.0,142,1,301,202,40,0,0,275,630,250,281,,,,,,,,,,,,
892483,1560692164309,1,2.33,2.06,3.31,1.93,5.05,0.76,0.02,0.34,0,-1,-0,0.76,5144,5,91,35,39,820,280.0,373,455,60,117.0,142,1,301,202,40,0,0,275,-1534,250,280,,,,,,,,,,,,
892503,1560692164329,-2,2.35,2.07,3.31,1.97,5.05,0.66,-0.1,0.31,-2,3,-1,0.67,5117,5,91,35,40,832,281.0,368,454,60,119.0,142,1,302,203,40,0,0,272,250,-1,280,,,,,,,,,,,,
892523,1560692164349,2,2.37,2.07,3.31,1.99,5.05,0.8,-0.07,0.4,0,-3,1,0.8,5085,5,91,35,40,842,279.0,365,467,60,117.0,142,1,301,205,40,0,0,271,28160,250,279,,,,,,,,,,,,
892543,1560692164369,0,2.38,2.07,3.31,2.01,5.05,0.56,-0.12,0.3,2,2,1,0.57,5048,5,91,35,40,848,279.0,365,451,60,117.0,142,1,300,203,40,0,0,266,-1,-1527,279,45.698898,4.909959,28.23,193.3,8,1.4767,0,0.0,1.05,9,0.77,14.8757
892563,1560692164389,0,2.4,2.06,3.32,2.03,5.04,0.7,-0.2,0.35,0,-0,2,0.73,5040,5,91,35,41,855,278.0,358,458,60,119.0,140,1,301,205,39,0,0,265,-1,2414,278,,,,,,,,,,,,
892583,1560692164409,3,2.42,2.05,3.37,2.02,5.05,0.83,-0.19,0.38,4,-6,5,0.85,5030,5,91,35,41,866,277.0,361,456,60,117.0,140,1,301,205,39,0,0,262,-1,-1281,277,,,,,,,,,,,,
892603,1560692164429,-2,2.43,2.05,3.38,2.02,5.05,0.55,-0.27,0.3,4,1,5,0.61,4989,5,91,35,41,878,277.0,356,457,60,119.0,140,1,300,204,39,0,0,263,-1,-1,277,,,,,,,,,,,,
892623,1560692164449,0,2.45,2.05,3.37,2.03,5.08,0.7,-0.29,0.36,3,-1,7,0.75,4981,5,91,35,42,883,277.0,354,457,60,119.0,140,1,300,206,39,0,0,261,-1,250,277,,,,,,,,,,,,
892643,1560692164469,4,2.47,2.04,3.37,2.04,5.08,0.82,-0.24,0.4,7,-5,9,0.86,4929,7,91,35,42,889,277.0,350,463,60,118.0,140,1,299,205,39,0,0,256,-41,-1527,277,45.698894,4.909954,27.31,193.3,8,1.4767,0,0.0,1.0517,9,0.77,14.8774
892663,1560692164489,1,2.48,2.02,3.38,2.06,5.04,0.64,-0.29,0.34,8,-0,9,0.7,4880,8,91,35,43,886,278.0,356,451,60,117.0,133,1,298,205,37,0,0,256,-10440,250,278,,,,,,,,,,,,
892683,1560692164509,-1,2.52,1.99,3.39,2.08,5.06,0.67,-0.39,0.39,7,0,10,0.77,4916,10,91,35,43,885,277.0,349,458,60,118.0,133,1,299,207,37,0,0,251,-1,-1,277,,,,,,,,,,,,
892703,1560692164529,1,2.54,1.96,3.41,2.07,5.04,0.8,-0.38,0.49,8,-6,12,0.89,4876,11,91,35,45,879,277.0,348,460,60,118.0,133,1,300,209,37,0,0,251,-1,-1,277,,,,,,,,,,,,
892723,1560692164549,4,2.54,1.96,3.42,2.12,5.06,0.81,-0.38,0.42,11,-7,14,0.89,4846,13,91,35,46,872,277.0,352,460,60,117.0,133,1,300,210,37,0,0,249,-214,-1,277,,,,,,,,,,,,
892743,1560692164569,-0,2.58,1.97,3.44,2.15,5.05,0.61,-0.39,0.28,12,-1,15,0.73,4817,15,91,35,47,863,277.0,350,458,60,118.0,133,1,302,213,37,0,0,245,-1494,-1,277,45.698887,4.909949,26.27,193.3,8,1.4767,0,0.0,1.0533,9,0.77,14.8791
892763,1560692164589,-0,2.59,1.96,3.47,2.16,5.08,0.49,-0.43,0.24,12,3,16,0.65,4781,17,91,35,49,855,277.0,340,450,60,119.0,141,1,301,218,39,0,0,242,-1494,-1,277,,,,,,,,,,,,
892783,1560692164609,-1,2.6,1.96,3.49,2.16,5.05,0.64,-0.48,0.37,13,-0,17,0.8,4842,18,91,35,51,851,277.0,340,461,60,119.0,141,1,300,222,39,0,0,240,250,-1,276,,,,,,,,,,,,
892803,1560692164629,3,2.6,1.95,3.53,2.15,5.06,0.78,-0.46,0.48,15,-7,20,0.91,4860,19,91,35,53,850,277.0,337,460,60,118.0,141,1,299,231,39,0,0,238,250,-1,277,,,,,,,,,,,,
892823,1560692164649,3,2.61,1.96,3.53,2.16,5.05,0.71,-0.54,0.44,17,-3,21,0.89,4872,20,91,35,55,846,279.0,347,457,60,117.0,141,1,298,238,39,0,0,239,-1445,2414,279,,,,,,,,,,,,
892843,1560692164669,0,2.61,1.97,3.51,2.19,5.04,0.59,-0.55,0.38,17,1,22,0.81,4936,21,91,35,57,843,276.0,347,452,60,117.0,141,1,297,247,39,0,0,238,23482,-1281,276,45.698879,4.909945,25.94,193.3,8,1.4767,0,0.0,1.055,9,0.77,14.8807
892863,1560692164689,-1,2.64,1.97,3.48,2.2,5.05,0.7,-0.56,0.49,18,-1,24,0.9,4939,22,91,35,59,840,276.0,342,457,60,119.0,169,1,296,256,47,0,0,238,250,-1281,276,,,,,,,,,,,,
892883,1560692164709,4,2.64,1.96,3.49,2.19,5.06,0.82,-0.56,0.53,20,-4,25,0.99,4981,23,91,35,61,838,276.0,353,465,60,118.0,169,1,295,265,47,0,0,237,-1484,2414,276,,,,,,,,,,,,
892903,1560692164729,-0,2.65,1.94,3.48,2.2,5.08,0.73,-0.63,0.52,20,1,26,0.96,5045,23,91,35,63,836,277.0,352,450,60,119.0,169,1,296,279,47,0,0,235,-1484,-1,277,,,,,,,,,,,,
892923,1560692164749,2,2.66,1.95,3.48,2.2,5.07,0.86,-0.55,0.55,20,-4,28,1.02,5070,24,91,35,65,836,278.0,343,464,60,118.0,169,1,295,285,47,0,0,235,-25600,250,276,,,,,,,,,,,,
892943,1560692164769,1,2.67,1.96,3.51,2.18,5.06,0.59,-0.6,0.46,24,-3,29,0.85,5142,25,91,35,66,835,278.0,351,461,60,117.0,169,1,298,299,47,0,0,232,-25600,-1,278,45.698875,4.90994,25.18,193.3,8,1.4767,0,0.0,1.0567,9,0.78,14.8824
892963,1560692164789,1,2.69,1.96,3.53,2.2,5.07,0.74,-0.59,0.52,23,-1,31,0.95,5186,26,91,35,67,836,277.0,352,460,60,119.0,215,1,299,306,60,0,0,233,-1483,28160,277,,,,,,,,,,,,
892983,1560692164809,1,2.69,1.96,3.55,2.21,5.08,0.61,-0.61,0.48,26,-5,33,0.86,5257,27,91,35,68,838,278.0,356,467,60,117.0,215,1,303,313,60,0,0,233,-1483,-1527,278,,,,,,,,,,,,
893003,1560692164829,0,2.72,1.96,3.55,2.22,5.08,0.63,-0.62,0.49,25,-1,34,0.89,5280,27,91,35,68,843,279.0,359,447,60,119.0,215,1,304,313,60,0,0,234,-1483,2414,279,,,,,,,,,,,,
893023,1560692164849,0,2.72,1.95,3.54,2.24,5.08,0.58,-0.69,0.5,28,-3,35,0.91,5255,28,91,35,70,845,280.0,362,467,60,117.0,215,1,301,328,60,0,0,250,-1483,2414,280,,,,,,,,,,,,
893043,1560692164869,1,2.73,1.97,3.48,2.26,5.04,0.66,-0.7,0.52,27,-1,36,0.97,5170,28,91,35,70,848,282.0,355,461,60,119.0,215,1,295,326,60,0,0,269,13468,30208,282,45.698872,4.909934,24.99,193.3,8,1.4767,0,0.0,1.0583,9,0.78,14.8841
893063,1560692164889,4,2.73,2.0,3.46,2.3,5.07,0.71,-0.74,0.51,29,-5,39,1.03,5038,28,91,35,71,857,284.0,351,462,60,118.0,226,1,285,330,64,0,0,286,13468,250,284,,,,,,,,,,,,
893083,1560692164907,0,2.72,2.02,3.46,2.31,5.04,0.59,-0.77,0.52,29,-1,37,0.97,4966,28,91,35,72,871,283.0,348,455,60,117.0,226,1,284,332,64,0,0,272,-17920,24064,283,,,,,,,,,,,,
893103,1560692164927,-2,2.74,2.02,3.46,2.3,5.05,0.73,-0.73,0.51,28,-1,37,1.03,4955,29,91,35,73,885,283.0,340,460,60,119.0,226,1,284,337,64,0,0,252,23482,1886,283,,,,,,,,,,,,
893123,1560692164947,3,2.71,2.02,3.46,2.29,5.04,0.79,-0.73,0.5,29,-6,39,1.07,4876,29,91,35,75,897,285.0,340,470,60,118.0,226,1,285,344,64,0,0,250,-1445,24064,285,,,,,,,,,,,,
893143,1560692164967,4,2.7,2.02,3.49,2.28,5.04,0.63,-0.76,0.46,31,-3,39,0.99,4922,29,91,35,75,915,288.0,342,449,60,116.0,226,1,284,345,64,0,0,248,250,24064,288,45.698868,4.909928,25.15,193.5,8,1.4767,0,0.0,1.06,9,0.78,14.8857
893163,1560692164987,0,2.68,2.03,3.5,2.29,5.07,0.66,-0.79,0.48,30,-0,39,1.03,4976,29,91,35,76,941,288.0,341,448,60,119.0,225,1,282,353,65,0,0,249,15360,1886,288,,,,,,,,,,,,
893183,1560692165001,1,2.65,2.03,3.49,2.31,5.07,0.8,-0.66,0.46,30,-4,41,1.03,5000,29,91,35,76,966,288.0,337,466,60,119.0,225,1,281,354,65,0,0,250,-1445,250,288,,,,,,,,,,,,
893203,1560692165021,5,2.63,2.03,3.49,2.31,5.05,0.61,-0.67,0.4,32,-3,42,0.9,5008,29,91,35,76,980,290.0,342,455,60,117.0,225,1,281,368,65,0,0,252,-1494,-16896,290,,,,,,,,,,,,
893223,1560692165041,-1,2.59,2.04,3.46,2.32,5.06,0.67,-0.67,0.45,30,0,41,0.95,5071,29,91,35,76,995,288.0,348,458,60,119.0,225,1,285,372,65,0,0,252,-1494,-16896,288,,,,,,,,,,,,
893243,1560692165061,2,2.54,2.09,3.41,2.31,5.08,0.77,-0.55,0.47,29,-4,42,0.94,5089,29,91,35,77,1012,288.0,347,468,60,118.0,225,1,286,374,65,0,0,257,10818,250,288,45.69886,4.909922,25.34,193.5,8,1.4767,0,0.0,1.0617,9,0.78,14.8874
893263,1560692165081,-1,2.49,2.15,3.38,2.28,5.08,0.59,-0.53,0.48,29,-2,41,0.79,5115,29,91,35,76,1025,286.0,351,455,60,116.0,244,1,288,363,70,0,0,261,-1,24064,286,,,,,,,,,,,,
893283,1560692165108,-0,2.45,2.2,3.34,2.26,5.05,0.73,-0.5,0.53,26,-4,39,0.89,5158,29,91,35,76,1027,283.0,349,458,60,119.0,244,1,291,366,70,0,0,263,-41,-16896,283,,,,,,,,,,,,
893303,1560692165128,-1,2.4,2.22,3.3,2.25,5.06,0.67,-0.47,0.55,27,-4,38,0.82,5209,29,91,35,76,1028,283.0,357,455,60,117.0,244,1,295,368,70,0,0,268,-1,250,283,,,,,,,,,,,,
893323,1560692165148,0,2.34,2.24,3.22,2.25,5.04,0.74,-0.43,0.55,22,-4,36,0.86,5230,28,91,35,75,1029,282.0,352,461,60,119.0,244,1,297,364,70,0,0,272,-1,-16896,282,,,,,,,,,,,,
893343,1560692165168,-0,2.3,2.27,3.17,2.24,5.08,0.65,-0.33,0.55,22,-4,34,0.73,5235,26,91,36,74,1028,282.0,357,452,60,117.0,244,1,298,357,70,0,0,276,-1,10686,282,45.698856,4.909914,26.14,193.6,8,1.4767,0,0.0,1.0633,9,0.78,14.889
893363,1560692165188,1,2.24,2.3,3.13,2.22,5.08,0.77,-0.23,0.53,18,-3,32,0.8,5275,25,91,36,73,1027,280.0,360,454,60,119.0,253,1,301,352,71,0,0,280,2414,10686,279,,,,,,,,,,,,
893383,1560692165208,1,2.18,2.33,3.11,2.19,5.05,0.64,-0.1,0.49,17,-2,30,0.64,5217,25,91,36,72,1024,279.0,359,453,60,117.0,253,1,298,341,71,0,0,285,-1534,24064,278,,,,,,,,,,,,
893403,1560692165228,0,2.13,2.36,3.1,2.15,5.06,0.7,-0.12,0.56,12,-2,26,0.71,5235,24,91,36,71,1022,283.0,355,445,60,119.0,253,1,300,334,71,0,0,287,250,630,277,,,,,,,,,,,,
893423,1560692165248,0,2.09,2.42,3.1,2.11,5.06,0.66,-0.06,0.51,12,-2,23,0.66,5292,24,91,36,71,1018,288.0,364,452,60,117.0,253,1,304,336,71,0,0,291,0,1886,276,,,,,,,,,,,,
893443,1560692165268,0,2.06,2.47,3.1,2.1,5.05,0.76,-0.04,0.52,7,-2,19,0.76,5317,24,91,36,70,1017,293.0,362,463,60,118.0,253,1,306,328,71,0,0,293,21760,24064,276,45.698856,4.909907,26.52,193.4,8,1.4767,0,0.0,1.065,9,0.78,14.8907
893463,1560692165288,1,2.02,2.5,3.08,2.08,5.04,0.62,0.11,0.47,6,-2,15,0.63,5405,24,91,36,69,1015,295.0,369,452,60,118.0,236,1,313,320,65,0,0,295,23040,1886,276,,,,,,,,,,,,
893483,1560692165308,4,1.99,2.51,3.07,2.07,5.07,0.76,0.14,0.47,3,-4,11,0.78,5452,23,91,36,69,1011,298.0,370,463,60,118.0,236,1,317,321,65,0,0,297,95,-1529,274,,,,,,,,,,,,
893503,1560692165328,1,1.97,2.51,3.06,2.08,5.04,0.69,0.16,0.43,-0,-0,7,0.71,5511,23,91,36,68,1008,300.0,376,461,60,119.0,236,1,321,310,65,0,0,299,100,41,275,,,,,,,,,,,,
893523,1560692165348,-2,1.94,2.51,3.03,2.07,5.07,0.62,0.3,0.49,-1,-1,5,0.69,5565,23,91,36,66,1005,302.0,382,450,60,117.0,236,1,331,294,65,0,0,300,105,41,275,,,,,,,,,,,,
893543,1560692165368,-0,1.91,2.51,2.98,2.06,5.06,0.7,0.35,0.5,-5,-3,2,0.78,5587,23,91,36,66,1003,305.0,385,461,60,117.0,236,1,333,293,65,0,0,304,29440,85,274,45.698853,4.909899,27.53,193.4,8,1.4767,0,0.0,1.0667,9,0.78,14.8924
893563,1560692165388,2,1.91,2.52,2.95,2.04,5.04,0.8,0.35,0.53,-9,-2,-2,0.88,5617,23,91,36,65,992,308.0,388,456,60,118.0,218,1,338,277,60,0,0,304,120,100,273,,,,,,,,,,,,
893583,1560692165408,2,1.89,2.52,2.95,2.02,5.07,0.75,0.36,0.59,-10,0,-6,0.83,5647,22,91,36,63,981,310.0,391,457,60,119.0,218,1,345,270,60,0,0,309,125,26880,273,,,,,,,,,,,,
893603,1560692165428,1,1.9,2.51,2.95,1.99,5.03,0.72,0.52,0.58,-10,-0,-9,0.89,5678,22,91,35,62,970,311.0,395,458,60,118.0,218,1,351,269,60,0,0,308,-32256,80,274,,,,,,,,,,,,
893623,1560692165448,-0,1.9,2.51,2.96,1.95,5.05,0.8,0.58,0.6,-14,-3,-12,0.98,5695,21,91,35,62,959,315.0,392,458,60,118.0,218,1,353,261,60,0,0,313,-29696,85,276,,,,,,,,,,,,
893643,1560692165468,4,1.89,2.51,2.95,1.97,5.08,0.9,0.5,0.59,-17,-4,-15,1.03,5676,21,91,35,61,942,318.0,394,462,60,119.0,218,1,353,253,60,0,0,314,140,110,276,45.698849,4.909891,27.21,193.4,8,1.4767,0,0.0,1.0683,9,0.78,14.894
893663,1560692165488,3,1.88,2.53,2.96,2.01,5.05,0.87,0.46,0.64,-19,-4,-17,0.98,5728,21,91,35,59,923,318.0,400,455,60,118.0,196,1,358,251,54,0,0,314,145,30720,276,,,,,,,,,,,,
893683,1560692165508,2,1.87,2.52,2.98,2.0,5.08,0.72,0.61,0.68,-19,-4,-18,0.94,5797,20,91,35,58,908,316.0,400,453,60,119.0,196,1,365,251,54,0,0,314,-28416,24320,277,,,,,,,,,,,,
893703,1560692165528,2,1.86,2.52,2.98,1.98,5.04,0.68,0.75,0.68,-20,-4,-19,1.01,5817,20,91,35,57,896,319.0,409,461,60,118.0,196,1,367,252,54,0,0,314,-27136,25600,280,,,,,,,,,,,,
893723,1560692165548,0,1.86,2.52,2.95,1.96,5.08,0.68,0.84,0.74,-22,-5,-21,1.08,5826,20,91,35,56,881,323.0,413,460,60,118.0,196,1,369,252,54,0,0,318,-24576,-32256,279,,,,,,,,,,,,
893743,1560692165568,0,1.87,2.53,2.92,1.96,5.04,0.75,0.87,0.77,-23,-6,-23,1.15,5874,19,91,35,54,865,322.0,411,465,60,117.0,196,1,373,253,54,0,0,320,155,140,277,45.698845,4.909883,27.49,193.4,8,1.4767,0,0.0,1.07,9,0.78,14.8957
893763,1560692165588,-1,1.88,2.53,2.93,1.94,5.05,0.84,0.86,0.76,-25,-7,-26,1.2,5905,19,91,35,53,853,322.0,415,457,60,117.0,202,1,372,248,56,0,0,318,-24576,26880,277,,,,,,,,,,,,
893783,1560692165608,-1,1.88,2.52,2.92,1.92,5.08,0.93,0.8,0.77,-27,-7,-29,1.23,5898,19,92,35,52,847,325.0,412,459,60,117.0,202,1,369,243,56,0,0,319,-23296,105,279,,,,,,,,,,,,
893803,1560692165628,-0,1.88,2.52,2.91,1.93,5.03,0.99,0.76,0.71,-29,-4,-31,1.25,5870,19,91,35,51,840,327.0,412,453,60,117.0,202,1,361,237,56,0,0,322,165,140,280,,,,,,,,,,,,
893823,1560692165648,2,1.89,2.52,2.92,1.94,5.05,1.01,0.71,0.7,-30,-1,-34,1.23,5821,18,91,35,51,834,327.0,409,453,60,118.0,202,1,360,236,56,0,0,323,-22016,125,282,,,,,,,,,,,,
893843,1560692165668,3,1.9,2.51,2.94,1.92,5.04,0.94,0.73,0.64,-31,3,-36,1.18,5792,18,91,35,50,831,325.0,406,449,60,118.0,202,1,355,231,56,0,0,322,165,26880,282,45.698841,4.909875,27.96,193.4,8,1.4767,0,0.0,1.0717,9,0.78,14.8974
893863,1560692165688,2,1.9,2.52,2.98,1.92,5.08,0.83,0.72,0.57,-30,4,-37,1.1,5749,18,91,35,50,829,327.0,405,448,60,119.0,176,1,352,230,50,0,0,322,-22016,25600,283,,,,,,,,,,,,
893883,1560692165708,2,1.9,2.52,3.0,1.91,5.05,0.72,0.82,0.55,-29,4,-38,1.09,5700,18,91,35,49,826,330.0,405,450,60,119.0,176,1,347,226,50,0,0,324,175,23040,283,,,,,,,,,,,,
893903,1560692165728,-1,1.92,2.52,2.99,1.92,5.05,0.81,0.85,0.59,-29,-0,-39,1.17,5644,17,91,35,50,821,330.0,409,442,60,118.0,176,1,345,229,50,0,0,323,175,-16896,283,,,,,,,,,,,,
893923,1560692165748,4,1.92,2.51,2.99,1.92,5.08,0.93,0.81,0.63,-31,-3,-40,1.23,5568,17,91,35,50,819,328.0,401,447,60,117.0,176,1,340,229,50,0,0,325,170,1886,283,,,,,,,,,,,,
893943,1560692165768,1,1.95,2.51,2.99,1.91,5.06,0.82,0.72,0.61,-32,1,-41,1.09,5477,17,91,35,50,818,327.0,395,426,60,119.0,176,1,334,228,50,0,0,323,-22016,630,283,45.698837,4.909868,28.18,193.3,8,1.4767,0,0.0,1.0733,9,0.78,14.899
893963,1560692165788,0,1.96,2.5,2.99,1.9,5.04,0.77,0.82,0.54,-30,0,-39,1.12,5406,17,91,35,51,814,328.0,401,445,60,117.0,162,1,329,232,46,0,0,324,170,-16896,283,,,,,,,,,,,,
893983,1560692165808,1,1.99,2.49,3.01,1.89,5.06,0.88,0.9,0.52,-32,0,-39,1.26,5374,17,91,35,52,809,327.0,391,443,60,118.0,162,1,328,231,46,0,0,321,-22016,24064,283,,,,,,,,,,,,
894003,1560692165828,-1,2.01,2.49,3.06,1.9,5.08,0.75,0.82,0.52,-30,1,-40,1.11,5290,17,91,35,52,805,325.0,387,436,60,118.0,162,1,321,233,46,0,0,320,-23296,30208,285,,,,,,,,,,,,
894023,1560692165848,4,2.03,2.48,3.06,1.91,5.04,0.88,0.84,0.58,-31,-1,-39,1.21,5230,17,91,35,53,802,323.0,371,448,60,118.0,162,1,317,233,46,0,0,318,-24576,-1529,286,,,,,,,,,,,,
894043,1560692165868,-0,2.05,2.47,3.06,1.92,5.06,0.75,0.73,0.57,-28,2,-39,1.05,5240,17,91,35,53,798,320.0,375,441,60,118.0,162,1,318,236,46,0,0,317,150,-16896,286,45.69883,4.909862,29.96,193.5,8,1.4767,0,0.0,1.075,9,0.78,14.9007
894063,1560692165888,2,2.08,2.45,3.06,1.93,5.08,0.88,0.75,0.61,-30,-1,-39,1.15,5218,16,91,35,53,793,319.0,370,462,60,118.0,160,1,316,236,46,0,0,316,-27136,10686,287,,,,,,,,,,,,
894083,1560692165910,-2,2.11,2.44,3.06,1.92,5.05,0.74,0.68,0.57,-27,-1,-38,1.01,5230,16,91,35,54,790,317.0,371,438,60,118.0,160,1,317,240,46,0,0,314,140,10686,288,,,,,,,,,,,,
894103,1560692165930,2,2.14,2.43,3.09,1.91,5.06,0.87,0.68,0.63,-28,-2,-37,1.11,5203,16,91,35,54,790,315.0,366,426,60,118.0,160,1,315,240,46,0,0,312,-29696,-16896,290,,,,,,,,,,,,
894123,1560692165950,0,2.16,2.41,3.13,1.93,5.06,0.73,0.65,0.56,-24,-2,-35,0.98,5250,16,91,35,54,790,313.0,369,426,60,118.0,160,1,319,243,46,0,0,305,-30976,10686,290,,,,,,,,,,,,
894143,1560692165970,3,2.19,2.34,3.17,1.93,5.04,0.86,0.66,0.53,-24,-2,-34,1.08,5391,16,91,35,55,793,307.0,375,450,60,118.0,160,1,331,243,46,0,0,297,30720,-16896,290,45.698822,4.909857,29.5,193.5,8,1.4767,0,0.0,1.0767,9,0.78,14.9024
894163,1560692165990,-0,2.22,2.26,3.19,1.91,5.05,0.68,0.47,0.52,-21,1,-32,0.82,5552,16,91,35,54,795,301.0,382,450,60,119.0,172,1,345,247,50,0,0,295,26880,0,290,,,,,,,,,,,,
894183,1560692166002,0,2.25,2.23,3.24,1.91,5.05,0.71,0.47,0.56,-17,-2,-28,0.85,5697,16,91,35,53,797,300.0,389,458,60,117.0,172,1,355,249,50,0,0,296,100,41,291,,,,,,,,,,,,
894203,1560692166022,-2,2.28,2.23,3.26,1.92,5.04,0.84,0.38,0.58,-18,-3,-25,0.92,5797,16,91,35,52,800,298.0,393,452,60,117.0,172,1,360,246,50,0,0,298,95,0,293,,,,,,,,,,,,
894223,1560692166042,1,2.31,2.22,3.25,1.96,5.06,0.96,0.26,0.62,-18,-4,-23,0.99,5868,16,91,35,51,802,297.0,402,448,60,117.0,172,1,363,236,50,0,0,297,24320,20480,293,,,,,,,,,,,,
894243,1560692166062,3,2.33,2.23,3.27,2.04,5.04,1.02,0.14,0.59,-18,-2,-20,1.03,5927,16,91,35,50,805,295.0,408,452,60,118.0,172,1,367,232,50,0,0,293,85,85,295,45.698818,4.909852,28.71,193.4,8,1.4767,0,0.0,1.0783,9,0.79,14.904
894263,1560692166082,-1,2.38,2.23,3.29,2.08,5.05,1.02,0.05,0.54,-16,-1,-16,1.02,6013,16,91,35,49,805,294.0,412,448,60,118.0,173,1,366,227,51,0,0,292,20480,21760,296,,,,,,,,,,,,
894283,1560692166109,-2,2.42,2.23,3.3,2.1,5.05,1.03,-0.03,0.51,-14,1,-14,1.03,6101,16,91,35,47,805,297.0,418,449,60,118.0,173,1,361,217,51,0,0,290,0,21760,297,,,,,,,,,,,,
894303,1560692166129,-0,2.45,2.22,3.35,2.12,5.04,1.07,-0.13,0.49,-12,1,-11,1.07,6171,16,92,35,46,807,299.0,426,455,60,118.0,173,1,355,215,51,0,0,287,10686,95,299,,,,,,,,,,,,
894323,1560692166149,0,2.49,2.2,3.38,2.18,5.05,1.02,-0.23,0.55,-9,1,-6,1.04,6188,16,91,35,45,806,302.0,435,459,60,117.0,173,1,348,214,51,0,0,291,-16896,29440,302,,,,,,,,,,,,
894343,1560692166169,-2,2.52,2.19,3.38,2.23,5.05,1.04,-0.36,0.69,-7,-1,-2,1.11,6000,16,91,35,45,805,309.0,428,457,60,117.0,173,1,347,214,51,0,0,305,250,-30976,309,45.698811,4.909846,29.36,193.5,8,1.4767,0,0.0,1.08,9,0.79,14.9057
894363,1560692166189,-1,2.57,2.2,3.37,2.33,5.07,1.12,-0.5,0.81,-6,-3,0,1.23,5709,16,91,35,45,804,313.0,416,462,60,117.0,151,1,334,214,47,0,0,310,-16896,130,313,,,,,,,,,,,,
894383,1560692166209,1,2.62,2.21,3.34,2.37,5.07,1.21,-0.61,0.85,-5,-4,3,1.35,5452,16,91,35,45,802,313.0,397,455,60,117.0,151,1,322,213,47,0,0,307,41,-30976,315,,,,,,,,,,,,
894403,1560692166229,-0,2.66,2.2,3.35,2.37,5.08,1.0,-0.61,0.8,-1,-2,4,1.17,5155,16,91,35,47,799,315.0,389,453,60,118.0,151,1,313,217,47,0,0,293,41,130,315,,,,,,,,,,,,
894423,1560692166249,0,2.71,2.17,3.39,2.37,5.07,1.06,-0.68,0.77,1,-2,6,1.26,5030,16,91,35,48,797,315.0,374,455,60,119.0,151,1,306,219,47,0,0,285,-1529,-29696,315,,,,,,,,,,,,
894443,1560692166269,3,2.74,2.1,3.53,2.37,5.08,1.16,-0.63,0.69,6,-7,10,1.32,4961,16,91,35,50,795,319.0,355,456,60,117.0,151,1,302,224,47,0,0,277,-1529,-29696,319,45.698803,4.909841,28.68,193.5,8,1.4767,0,0.0,1.0817,9,0.79,14.9074
894463,1560692166289,0,2.76,2.05,3.64,2.38,5.08,0.92,-0.73,0.6,10,-3,13,1.18,4912,16,91,35,51,798,323.0,352,455,60,118.0,130,1,301,227,42,0,0,274,630,140,323,,,,,,,,,,,,
894483,1560692166309,-0,2.77,2.03,3.67,2.4,5.04,1.0,-0.78,0.61,11,-2,17,1.26,4863,17,91,35,53,802,327.0,347,448,60,119.0,130,1,299,228,42,0,0,273,-1527,-28416,327,,,,,,,,,,,,
894503,1560692166329,-1,2.81,2.02,3.67,2.4,5.05,1.1,-0.81,0.64,14,-5,21,1.36,4828,18,91,35,55,806,328.0,337,467,60,118.0,130,1,298,234,42,0,0,270,28160,-25856,327,,,,,,,,,,,,
894523,1560692166349,4,2.84,2.0,3.68,2.41,5.04,1.1,-0.83,0.58,19,-7,24,1.38,4872,18,91,35,56,810,326.0,347,460,60,118.0,130,1,298,243,42,0,0,265,-1281,130,326,,,,,,,,,,,,
894543,1560692166369,0,2.9,1.97,3.67,2.4,5.05,0.97,-0.89,0.44,21,-5,27,1.32,5081,19,91,35,57,821,326.0,346,446,60,117.0,130,1,304,249,42,0,0,250,-1,115,326,45.698799,4.909836,28.9,193.4,8,1.4767,0,0.0,1.0833,9,0.79,14.909
894563,1560692166389,1,2.94,1.89,3.69,2.39,5.06,1.08,-0.89,0.46,23,-8,31,1.4,5275,19,91,35,59,835,320.0,351,459,60,118.0,152,1,320,252,49,0,0,234,-1,29440,320,,,,,,,,,,,,
894583,1560692166407,-1,0.35,1.82,3.69,2.39,5.07,0.82,-0.94,0.38,27,-5,35,1.25,5444,20,91,35,59,845,319.0,373,455,60,117.0,152,1,334,254,49,0,0,226,-10440,120,319,,,,,,,,,,,,
894603,1560692166427,0,0.36,1.79,3.69,2.38,5.06,0.94,-1.05,0.38,30,-7,38,1.4,5537,22,91,35,60,853,321.0,378,458,60,117.0,152,1,342,254,49,0,0,226,-10440,130,321,,,,,,,,,,,,
894623,1560692166447,2,0.39,1.79,3.7,2.4,5.08,1.02,-0.98,0.35,29,-6,41,1.41,5637,22,91,35,61,865,322.0,385,455,60,118.0,152,1,350,253,49,0,0,226,-1281,-30976,322,,,,,,,,,,,,
894643,1560692166467,3,0.39,1.8,3.7,2.39,5.04,0.88,-1.01,0.26,32,-2,45,1.34,5746,22,91,35,60,879,322.0,392,453,60,119.0,152,1,360,251,49,0,0,231,10818,125,322,45.698792,4.909831,28.33,193.3,8,1.4767,0,0.0,1.085,9,0.79,14.9107
894663,1560692166487,1,0.39,1.8,3.7,2.39,5.04,0.71,-1.1,0.24,36,-1,46,1.31,5875,22,91,35,60,887,318.0,404,457,60,119.0,172,1,371,250,55,0,0,238,10818,125,318,,,,,,,,,,,,
894683,1560692166509,3,0.36,1.8,3.7,2.39,5.05,0.66,-1.14,0.35,41,-0,47,1.32,6009,22,91,35,59,891,317.0,407,456,60,119.0,172,1,382,249,55,0,0,246,16896,120,317,,,,,,,,,,,,
894703,1560692166529,2,2.93,1.8,3.7,2.38,5.05,0.66,-1.2,0.39,44,-0,49,1.37,6021,23,91,35,58,892,317.0,413,460,60,119.0,172,1,383,251,55,0,0,298,-1,-29696,317,,,,,,,,,,,,
894723,1560692166549,1,2.88,1.81,3.7,2.41,5.04,0.64,-1.21,0.5,45,-2,51,1.37,5982,23,91,35,57,891,319.0,416,453,60,118.0,172,1,381,252,55,0,0,381,-1494,-30976,319,,,,,,,,,,,,
894743,1560692166569,2,2.83,1.82,3.67,2.43,5.08,0.58,-1.23,0.61,47,-4,52,1.36,6071,23,91,35,57,887,318.0,417,457,60,118.0,172,1,384,253,55,0,0,360,16896,32000,318,45.698788,4.909825,27.78,193.3,8,1.4767,0,0.0,1.0867,9,0.79,14.9124
894763,1560692166589,3,2.76,1.84,3.61,2.43,5.08,0.56,-1.16,0.68,48,-4,52,1.29,6181,23,91,35,56,881,314.0,325,455,60,119.0,186,1,385,256,59,0,0,308,10818,135,314,,,,,,,,,,,,
894783,1560692166609,5,2.68,1.86,3.57,2.44,5.07,0.42,-1.0,0.61,49,-2,53,1.09,6159,23,91,35,56,879,315.0,271,456,60,118.0,186,1,384,256,59,0,0,285,-1,-32256,315,,,,,,,,,,,,
894803,1560692166629,5,2.61,1.95,3.51,2.44,5.03,0.36,-0.84,0.54,49,2,55,0.92,6005,23,91,35,56,880,314.0,248,458,60,118.0,186,1,384,254,59,0,0,325,506,-28416,314,,,,,,,,,,,,
894823,1560692166649,3,2.55,2.04,3.39,2.43,5.03,0.29,-0.76,0.52,47,5,54,0.82,5841,23,91,35,56,883,314.0,253,451,60,119.0,186,1,370,252,59,0,0,324,-1,145,314,,,,,,,,,,,,
894843,1560692166669,2,2.51,2.14,3.28,2.41,5.07,0.27,-0.71,0.54,47,4,53,0.75,5707,23,91,35,57,889,314.0,272,455,60,119.0,186,1,358,250,59,0,0,280,2414,-29696,314,45.69878,4.909818,27.75,193.3,8,1.4767,0,0.0,1.0883,9,0.79,14.9141
894863,1560692166689,1,2.47,2.22,3.17,2.42,5.04,0.41,-0.68,0.67,44,-1,51,0.79,5540,23,91,35,58,900,312.0,267,455,60,118.0,169,1,343,251,53,0,0,288,-1534,125,312,,,,,,,,,,,,
894883,1560692166709,2,2.42,2.27,3.1,2.39,5.05,0.54,-0.68,0.71,38,-3,50,0.87,5401,23,91,35,60,918,310.0,268,455,60,118.0,169,1,331,254,53,0,0,291,-1529,125,310,,,,,,,,,,,,
894903,1560692166729,-0,2.38,2.29,3.09,2.36,5.04,0.48,-0.53,0.73,36,-1,47,0.72,5268,24,91,35,61,935,307.0,283,445,60,119.0,169,1,318,261,53,0,0,294,41,115,307,,,,,,,,,,,,
894923,1560692166749,2,2.36,2.29,3.11,2.3,5.07,0.61,-0.49,0.72,33,-2,44,0.78,5228,24,91,35,62,948,307.0,293,459,60,118.0,169,1,313,269,53,0,0,290,0,115,307,,,,,,,,,,,,
894943,1560692166769,-2,2.34,2.29,3.21,2.25,5.06,0.47,-0.39,0.69,31,0,40,0.61,5284,24,91,34,64,961,306.0,305,445,60,117.0,169,1,314,284,53,0,0,289,20480,110,306,45.698776,4.909809,27.52,193.2,8,1.4767,0,0.0,1.09,9,0.79,14.9157
894963,1560692166789,3,2.31,2.29,3.26,2.24,5.04,0.62,-0.3,0.69,28,-4,38,0.69,5343,24,91,34,65,978,304.0,319,460,60,117.0,186,1,319,291,57,0,0,290,80,110,304,,,,,,,,,,,,
894983,1560692166809,1,2.29,2.29,3.29,2.21,5.03,0.42,-0.27,0.68,25,0,34,0.5,5428,24,91,34,65,993,302.0,330,453,60,119.0,186,1,323,289,57,0,0,291,85,105,302,,,,,,,,,,,,
895003,1560692166829,-0,2.27,2.28,3.31,2.2,5.08,0.47,-0.24,0.68,24,-1,31,0.53,5544,26,91,34,65,997,302.0,343,453,60,117.0,186,1,332,296,57,0,0,296,24320,25600,302,,,,,,,,,,,,
895023,1560692166849,3,2.28,2.29,3.29,2.2,5.07,0.63,-0.22,0.68,20,-4,29,0.67,5676,28,91,34,66,997,300.0,355,452,60,117.0,186,1,341,294,57,0,0,298,95,26880,300,,,,,,,,,,,,
895043,1560692166869,4,2.26,2.29,3.25,2.18,5.06,0.63,-0.16,0.58,16,-3,27,0.65,5850,30,91,34,66,986,300.0,367,456,60,119.0,186,1,353,292,57,0,0,298,25600,95,300,45.698776,4.9098,29.09,193.2,8,1.4767,0,0.0,1.0917,9,0.79,14.9174
895063,1560692166889,5,2.26,2.28,3.23,2.19,5.04,0.54,-0.05,0.54,15,1,24,0.55,6032,30,91,34,66,974,300.0,384,456,60,118.0,217,1,366,281,65,0,0,301,25600,90,300,,,,,,,,,,,,
895083,1560692166909,-0,2.25,2.27,3.2,2.17,5.08,0.46,0.12,0.46,15,4,23,0.47,6184,31,91,34,65,959,300.0,393,462,60,118.0,217,1,375,286,65,0,0,304,26880,105,299,,,,,,,,,,,,
895103,1560692166929,-1,2.23,2.28,3.15,2.19,5.04,0.44,0.13,0.5,14,5,20,0.46,6109,31,91,34,65,944,302.0,408,462,60,117.0,217,1,372,284,65,0,0,310,105,125,302,,,,,,,,,,,,
895123,1560692166949,-0,2.2,2.3,3.07,2.2,5.05,0.53,0.07,0.58,11,5,18,0.53,5992,31,91,34,65,936,306.0,407,459,60,117.0,217,1,362,282,65,0,0,316,115,-29696,305,,,,,,,,,,,,
895143,1560692166969,3,2.18,2.31,3.01,2.21,5.06,0.62,0.02,0.57,8,6,16,0.62,5797,31,91,34,65,927,309.0,405,457,60,118.0,217,1,351,285,65,0,0,320,-32256,155,308,45.698776,4.909792,28.9,193.2,8,1.4767,0,0.0,1.0933,9,0.79,14.9191
895163,1560692166989,3,2.15,2.31,2.96,2.21,5.05,0.53,0.11,0.54,6,10,14,0.54,5666,32,91,34,66,934,315.0,398,453,60,118.0,203,1,339,294,63,0,0,319,-29696,145,310,,,,,,,,,,,,
895183,1560692167001,1,2.13,2.31,2.95,2.2,5.04,0.45,0.22,0.55,7,13,12,0.5,5644,32,91,34,67,940,316.0,393,449,60,118.0,203,1,334,303,63,0,0,322,140,-30976,309,,,,,,,,,,,,
895203,1560692167021,-1,2.13,2.3,2.96,2.18,5.05,0.55,0.24,0.62,6,9,10,0.6,5742,32,91,34,68,961,319.0,394,459,60,118.0,203,1,338,310,63,0,0,319,-27136,32000,307,,,,,,,,,,,,
895223,1560692167041,-1,2.13,2.3,2.98,2.18,5.04,0.7,0.12,0.68,2,3,9,0.71,5922,32,91,34,68,983,319.0,392,455,60,117.0,203,1,352,308,63,0,0,319,-25856,115,307,,,,,,,,,,,,
895243,1560692167061,-0,2.13,2.31,3.03,2.18,5.05,0.81,-0.06,0.68,-2,-0,7,0.81,6083,32,91,34,67,999,321.0,396,455,60,117.0,203,1,364,299,63,0,0,322,-25856,135,307,45.698772,4.909781,29.25,193.1,8,1.4767,0,0.0,1.095,9,0.79,14.9207
895263,1560692167081,-2,2.13,2.31,3.05,2.17,5.06,0.82,-0.15,0.71,-4,-2,5,0.83,6157,32,91,34,66,1014,322.0,405,452,60,118.0,225,1,370,302,69,0,0,324,155,135,307,,,,,,,,,,,,
895283,1560692167108,-1,2.13,2.31,3.06,2.18,5.07,0.86,-0.21,0.83,-7,-5,4,0.88,6159,32,91,34,66,1046,325.0,410,449,60,118.0,225,1,370,294,69,0,0,325,-23296,-22016,310,,,,,,,,,,,,
895303,1560692167128,1,2.14,2.31,3.03,2.18,5.04,0.82,-0.22,0.9,-8,-6,2,0.85,6181,32,91,34,66,1079,327.0,413,453,60,118.0,225,1,371,294,69,0,0,329,-22016,-20736,312,,,,,,,,,,,,
895323,1560692167148,3,2.15,2.31,3.01,2.18,5.05,0.83,-0.16,0.95,-8,-8,1,0.84,6117,32,91,34,66,1101,328.0,410,453,60,118.0,225,1,369,292,69,0,0,330,170,-22016,313,,,,,,,,,,,,
895343,1560692167168,2,2.17,2.32,3.01,2.17,5.06,0.81,-0.05,1.01,-9,-9,-1,0.82,6105,32,91,34,65,1120,328.0,416,453,60,119.0,225,1,372,284,69,0,0,330,170,165,314,45.698769,4.909772,30.05,193.1,8,1.4767,0,0.0,1.0967,9,0.79,14.9224
895363,1560692167188,2,2.19,2.33,3.0,2.19,5.04,0.8,0.05,1.01,-8,-7,-2,0.8,6046,32,91,34,65,1133,328.0,415,452,60,119.0,203,1,369,290,64,0,0,332,170,-22016,315,,,,,,,,,,,,
895383,1560692167208,3,2.21,2.3,3.04,2.17,5.07,0.76,0.11,0.99,-8,-6,-3,0.76,6113,32,91,34,66,1146,328.0,412,455,60,119.0,203,1,368,292,64,0,0,327,-20736,-20736,319,,,,,,,,,,,,
895403,1560692167228,5,2.23,2.3,3.09,2.17,5.05,0.73,0.23,0.98,-7,-5,-4,0.77,6137,32,91,34,66,1146,329.0,415,457,60,118.0,203,1,369,285,64,0,0,331,-20736,-22016,320,,,,,,,,,,,,
895423,1560692167248,0,2.24,2.3,3.14,2.17,5.04,0.72,0.35,0.91,-7,-3,-3,0.8,6181,32,91,34,66,1141,330.0,420,457,60,118.0,203,1,371,294,64,0,0,330,175,165,322,,,,,,,,,,,,
895443,1560692167268,-2,2.27,2.3,3.18,2.16,5.05,0.72,0.34,0.8,-6,-1,-3,0.8,6208,32,91,34,65,1145,330.0,428,456,60,117.0,203,1,376,295,64,0,0,331,175,170,325,45.698765,4.909762,30.49,193.1,8,1.4767,0,0.0,1.0983,9,0.8,14.9241
895463,1560692167288,-1,2.28,2.3,3.21,2.15,5.05,0.74,0.28,0.74,-5,0,-3,0.8,6210,33,91,34,65,1152,331.0,431,449,60,117.0,212,1,376,295,69,0,0,333,-12032,170,327,,,,,,,,,,,,
895483,1560692167308,1,2.28,2.29,3.2,2.15,5.07,0.81,0.18,0.71,-5,0,-4,0.83,6223,33,91,34,65,1161,332.0,426,447,60,119.0,212,1,376,288,69,0,0,336,-32559,-6528,331,,,,,,,,,,,,
895503,1560692167328,3,2.29,2.3,3.2,2.16,5.06,0.8,0.2,0.77,-5,1,-5,0.82,6233,33,91,34,65,1173,332.0,422,447,60,119.0,212,1,377,288,69,0,0,336,-32559,2560,330,,,,,,,,,,,,
895523,1560692167348,4,2.29,2.3,3.2,2.16,5.04,0.78,0.23,0.82,-4,2,-6,0.81,6283,33,91,34,65,1188,332.0,422,453,60,118.0,212,1,379,290,69,0,0,335,-12032,13,332,,,,,,,,,,,,
895543,1560692167368,1,2.28,2.3,3.2,2.16,5.04,0.69,0.32,0.77,-3,4,-6,0.76,6304,33,91,34,65,1204,333.0,423,456,60,118.0,212,1,380,291,69,0,0,337,-6528,-6528,333,45.698761,4.909752,31.31,193.1,8,1.4767,0,0.0,1.1,9,0.8,14.9257
895563,1560692167388,-1,2.31,2.31,3.22,2.16,5.04,0.66,0.33,0.72,-2,5,-5,0.74,6321,33,91,34,65,1213,333.0,430,462,60,117.0,207,1,380,291,69,0,0,335,4838,-122,333,,,,,,,,,,,,
895583,1560692167408,1,2.32,2.29,3.25,2.14,5.08,0.77,0.16,0.81,-2,1,-5,0.79,6306,33,91,34,65,1215,336.0,434,451,60,118.0,207,1,380,291,69,0,0,337,-6528,3327,336,,,,,,,,,,,,
895603,1560692167428,3,2.33,2.29,3.24,2.15,5.04,0.8,0.06,0.84,-2,-3,-5,0.81,6304,33,91,34,65,1218,338.0,431,449,60,119.0,207,1,380,291,69,0,0,339,3346,6668,338,,,,,,,,,,,,
895623,1560692167448,4,2.35,2.29,3.23,2.15,5.08,0.72,0.09,0.76,-1,-5,-4,0.72,6388,33,91,34,65,1226,340.0,427,450,60,119.0,207,1,383,293,69,0,0,338,3346,-122,340,,,,,,,,,,,,
895643,1560692167468,-0,2.35,2.29,3.23,2.15,5.07,0.71,0.12,0.73,-0,-3,-2,0.72,6467,33,91,34,65,1232,341.0,437,456,60,117.0,207,1,385,296,69,0,0,341,3346,-14714,341,45.698757,4.909742,31.65,193.2,8,1.4767,0,0.0,1.1017,9,0.8,14.9274
895663,1560692167488,-0,2.38,2.28,3.24,2.15,5.06,0.78,0.03,0.79,0,-4,-2,0.78,6472,33,91,34,65,1235,342.0,441,452,60,119.0,211,1,386,296,72,0,0,342,13,-10554,342,,,,,,,,,,,,
895683,1560692167508,2,2.39,2.27,3.26,2.14,5.05,0.77,0.07,0.74,1,-4,-1,0.77,6467,33,91,34,65,1239,345.0,437,455,60,118.0,211,1,385,289,72,0,0,341,3346,2811,345,,,,,,,,,,,,
895703,1560692167528,-1,2.41,2.27,3.29,2.16,5.08,0.66,0.03,0.67,3,-2,1,0.66,6452,33,91,34,65,1246,347.0,445,458,60,117.0,211,1,386,295,72,0,0,343,13,28553,347,,,,,,,,,,,,
895723,1560692167548,2,2.41,2.28,3.29,2.18,5.06,0.68,-0.1,0.72,3,-1,2,0.69,6485,32,91,34,64,1252,348.0,443,455,60,117.0,211,1,390,290,72,0,0,345,13,3183,348,,,,,,,,,,,,
895743,1560692167568,3,2.43,2.27,3.31,2.21,5.07,0.69,-0.05,0.76,4,-2,4,0.7,6508,31,91,34,64,1253,350.0,448,458,60,118.0,211,1,391,284,72,0,0,345,3346,-6644,350,45.698757,4.909732,32.43,193.1,8,1.4767,0,0.0,1.1033,9,0.8,14.9291
895763,1560692167588,-1,2.44,2.26,3.31,2.21,5.08,0.73,-0.13,0.79,5,-3,6,0.74,6549,30,91,34,63,1253,351.0,446,454,60,117.0,199,1,396,286,70,0,0,347,3346,-6644,351,,,,,,,,,,,,
895783,1560692167608,2,2.44,2.26,3.32,2.21,5.04,0.76,-0.17,0.84,6,-4,6,0.78,6583,30,91,34,62,1249,354.0,451,453,60,117.0,199,1,402,282,70,0,0,350,-31222,3183,354,,,,,,,,,,,,
895803,1560692167628,0,2.44,2.25,3.35,2.22,5.08,0.68,-0.09,0.7,7,-0,7,0.68,6641,29,91,34,61,1246,356.0,451,449,60,119.0,199,1,408,279,70,0,0,353,2560,-6640,356,,,,,,,,,,,,
895823,1560692167648,2,2.44,2.24,3.35,2.24,5.04,0.81,-0.17,0.76,7,-2,8,0.83,6747,29,91,34,60,1239,356.0,457,461,60,117.0,199,1,409,280,70,0,0,355,-122,-29302,356,,,,,,,,,,,,
895843,1560692167668,1,2.44,2.23,3.33,2.22,5.04,0.6,-0.13,0.66,8,-1,9,0.61,6820,29,91,34,60,1232,359.0,462,452,60,119.0,199,1,412,283,70,0,0,354,6668,3082,360,45.698753,4.909722,32.7,193.1,8,1.4767,0,0.0,1.105,9,0.8,14.9307
895863,1560692167688,1,2.45,2.21,3.3,2.21,5.06,0.74,-0.2,0.79,8,-2,10,0.77,6823,29,91,34,59,1221,362.0,469,453,60,119.0,200,1,408,279,72,0,0,362,6870,2790,362,,,,,,,,,,,,
895883,1560692167708,1,2.44,2.21,3.29,2.23,5.06,0.57,-0.18,0.73,10,1,10,0.59,6830,29,91,34,58,1209,366.0,465,458,60,118.0,200,1,404,275,72,0,0,360,6870,-6656,366,,,,,,,,,,,,
895903,1560692167728,3,2.44,2.22,3.29,2.27,5.06,0.71,-0.3,0.85,9,-2,10,0.78,6840,29,91,34,57,1203,365.0,470,450,60,118.0,200,1,401,276,72,0,0,365,-30438,257,365,,,,,,,,,,,,
895923,1560692167748,0,2.45,2.23,3.28,2.31,5.04,0.71,-0.3,0.77,10,-2,11,0.77,6840,29,91,34,57,1194,366.0,467,459,60,117.0,200,1,401,271,72,0,0,367,-1246,230,367,,,,,,,,,,,,
895943,1560692167768,4,2.45,2.24,3.27,2.3,5.07,0.63,-0.3,0.81,10,-3,11,0.7,6830,29,91,34,57,1168,368.0,466,450,60,118.0,200,1,400,271,72,0,0,367,28553,1,371,45.698746,4.909711,33.66,193.1,8,1.4767,0,0.0,1.1067,9,0.8,14.9324
895963,1560692167788,-0,2.44,2.22,3.28,2.3,5.04,0.73,-0.39,0.8,12,-0,12,0.83,6868,29,91,34,56,1144,374.0,472,460,60,117.0,183,1,397,272,68,0,0,371,3183,742,373,,,,,,,,,,,,
895983,1560692167808,0,2.45,2.19,3.32,2.3,5.03,0.59,-0.36,0.79,12,-3,14,0.69,6911,29,91,34,56,1124,375.0,474,452,60,119.0,183,1,397,268,68,0,0,371,3302,-6656,375,,,,,,,,,,,,
896003,1560692167828,1,2.45,2.18,3.3,2.27,5.05,0.74,-0.45,0.86,11,-2,16,0.86,6952,28,91,34,55,1105,377.0,483,455,60,117.0,183,1,393,268,68,0,0,368,2060,742,377,,,,,,,,,,,,
896023,1560692167848,1,2.45,2.19,3.25,2.29,5.04,0.52,-0.38,0.76,13,-2,16,0.64,6980,28,91,34,55,1056,378.0,483,456,60,118.0,183,1,393,263,68,0,0,366,4104,2278,378,,,,,,,,,,,,
896043,1560692167868,-1,2.46,2.19,3.26,2.29,5.05,0.57,-0.36,0.82,12,-4,16,0.67,7038,28,91,34,54,1007,377.0,487,448,60,118.0,183,1,390,258,68,0,0,367,-6640,3,377,45.698742,4.909699,34.3,193.1,8,1.4767,0,0.0,1.1083,9,0.8,14.934
896063,1560692167888,3,2.46,2.2,3.31,2.29,5.08,0.67,-0.42,0.85,13,-4,17,0.79,7035,28,91,34,54,977,379.0,488,461,60,117.0,185,1,390,258,70,0,0,374,-6640,-992,379,,,,,,,,,,,,
896083,1560692167908,0,2.46,2.19,3.38,2.27,5.07,0.5,-0.41,0.7,14,-0,18,0.64,7072,28,91,34,54,947,380.0,483,457,60,117.0,185,1,390,258,70,0,0,380,-29302,-992,380,,,,,,,,,,,,
896103,1560692167928,-0,2.46,2.19,3.4,2.27,5.04,0.39,-0.39,0.59,15,-2,18,0.55,7099,28,91,34,54,912,382.0,487,453,60,118.0,185,1,390,258,70,0,0,379,-14707,-18948,382,,,,,,,,,,,,
896123,1560692167948,2,2.46,2.18,3.39,2.24,5.06,0.56,-0.42,0.73,14,-2,18,0.7,7131,28,91,34,53,876,386.0,488,456,60,118.0,185,1,387,253,70,0,0,380,3082,-19126,386,,,,,,,,,,,,
896143,1560692167968,2,2.46,2.16,3.39,2.22,5.05,0.49,-0.47,0.78,16,2,18,0.68,7181,28,91,34,53,863,386.0,492,453,60,118.0,185,1,387,253,70,0,0,380,3082,-6524,386,45.698738,4.909688,34.96,193.0,8,1.4767,0,0.0,1.11,9,0.8,14.9357
896163,1560692167988,2,2.46,2.15,3.35,2.24,5.07,0.41,-0.51,0.7,16,3,17,0.66,7186,28,91,34,53,858,385.0,493,458,60,117.0,177,1,387,253,69,0,0,376,-1268,505,385,,,,,,,,,,,,
896183,1560692168002,-2,2.46,2.16,3.34,2.24,5.04,0.35,-0.47,0.58,16,5,18,0.59,7192,28,91,34,52,848,388.0,494,456,60,117.0,177,1,384,248,69,0,0,384,-6405,-31744,388,,,,,,,,,,,,
896203,1560692168022,1,2.45,2.17,3.36,2.26,5.07,0.47,-0.43,0.62,15,3,18,0.63,7239,28,91,33,52,838,388.0,495,453,60,118.0,177,1,384,249,69,0,0,387,230,505,388,,,,,,,,,,,,
896223,1560692168042,3,2.46,2.19,3.36,2.26,5.06,0.62,-0.46,0.75,15,3,18,0.77,7244,28,91,33,52,832,391.0,497,456,60,118.0,177,1,384,249,69,0,0,387,-6405,-6524,391,,,,,,,,,,,,
896243,1560692168062,3,2.46,2.18,3.36,2.26,5.08,0.63,-0.5,0.83,17,4,18,0.8,7290,28,91,33,51,826,390.0,500,456,60,117.0,177,1,381,249,69,0,0,386,0,-31744,393,45.698738,4.909676,35.81,193.0,8,1.4767,0,0.0,1.1117,9,0.8,14.9374
896263,1560692168082,1,2.45,2.18,3.34,2.28,5.06,0.54,-0.46,0.75,18,5,17,0.7,7267,28,91,33,51,822,393.0,506,453,60,118.0,170,1,381,244,67,0,0,389,0,240,393,,,,,,,,,,,,
896283,1560692168107,2,2.43,2.18,3.32,2.29,5.05,0.39,-0.44,0.56,18,6,18,0.58,7312,28,91,33,51,818,394.0,500,458,60,117.0,170,1,381,244,67,0,0,382,486,1,394,,,,,,,,,,,,
896303,1560692168127,3,2.42,2.18,3.32,2.28,5.05,0.34,-0.4,0.48,18,6,20,0.52,7329,28,91,33,51,817,394.0,501,452,60,117.0,170,1,381,244,67,0,0,387,486,1,394,,,,,,,,,,,,
896323,1560692168147,-1,2.42,2.16,3.31,2.27,5.04,0.49,-0.43,0.52,17,3,19,0.65,7315,28,91,33,51,818,394.0,502,458,60,117.0,170,1,381,244,67,0,0,391,-6656,505,394,,,,,,,,,,,,
896343,1560692168167,0,2.41,2.17,3.34,2.25,5.07,0.64,-0.4,0.64,15,3,19,0.76,7361,28,91,33,50,817,395.0,507,453,60,118.0,170,1,378,239,67,0,0,393,770,17144,395,45.698738,4.909664,36.51,192.9,8,1.4767,0,0.0,1.1133,9,0.8,14.939
896363,1560692168187,1,2.4,2.16,3.34,2.24,5.03,0.74,-0.45,0.75,15,2,18,0.86,7358,28,91,33,50,816,396.0,503,457,60,118.0,171,1,378,239,68,0,0,396,8200,6384,396,,,,,,,,,,,,
896383,1560692168207,-1,2.42,2.18,3.33,2.25,5.05,0.87,-0.48,0.84,14,-1,18,0.99,7422,28,91,33,50,815,398.0,505,455,60,119.0,171,1,378,239,68,0,0,395,-992,-1818,398,,,,,,,,,,,,
896403,1560692168227,5,2.41,2.2,3.28,2.27,5.04,0.93,-0.46,0.86,13,-1,18,1.04,7413,28,91,33,50,813,397.0,507,455,60,118.0,171,1,378,239,68,0,0,394,-992,11545,397,,,,,,,,,,,,
896423,1560692168247,4,2.43,2.21,3.28,2.28,5.04,0.86,-0.5,0.92,14,-2,17,1.0,7440,28,91,33,49,811,399.0,508,455,60,118.0,171,1,375,234,68,0,0,397,-992,10541,399,,,,,,,,,,,,
896443,1560692168267,4,2.43,2.21,3.33,2.26,5.04,0.79,-0.49,0.92,15,-1,17,0.93,7431,28,91,33,50,809,401.0,511,452,60,118.0,171,1,378,239,68,0,0,400,19125,6512,401,45.698734,4.909651,37.33,192.9,8,1.4767,0,0.0,1.115,9,0.8,14.9407
896463,1560692168287,5,2.44,2.21,3.35,2.26,5.04,0.8,-0.52,0.89,15,-1,17,0.95,7488,28,91,33,49,807,401.0,515,458,60,118.0,167,1,375,239,67,0,0,397,-18948,10541,400,,,,,,,,,,,,
896483,1560692168307,5,2.44,2.2,3.34,2.27,5.04,0.77,-0.56,0.86,16,1,17,0.95,7518,29,91,33,49,806,402.0,520,454,60,118.0,167,1,375,234,67,0,0,401,-19126,6512,402,,,,,,,,,,,,
896503,1560692168327,4,2.45,2.2,3.35,2.26,5.05,0.65,-0.56,0.83,17,2,16,0.85,7569,29,91,33,49,808,405.0,520,456,60,118.0,167,1,375,234,67,0,0,398,-6475,-3968,403,,,,,,,,,,,,
896523,1560692168347,5,2.45,2.19,3.37,2.24,5.05,0.56,-0.55,0.8,18,2,16,0.79,7557,29,91,33,49,812,405.0,521,450,60,118.0,167,1,375,234,67,0,0,400,-6475,2524,405,,,,,,,,,,,,
896543,1560692168367,1,2.46,2.18,3.39,2.25,5.04,0.6,-0.63,0.85,19,2,17,0.87,7588,29,91,33,49,817,408.0,517,455,60,118.0,167,1,375,234,67,0,0,409,-3866,2524,408,45.698734,4.909637,37.73,192.9,8,1.4767,0,0.0,1.1167,9,0.81,14.9424
896563,1560692168387,1,2.46,2.17,3.42,2.26,5.05,0.73,-0.67,0.87,18,2,18,0.99,7606,29,91,33,49,822,410.0,525,457,60,118.0,164,1,375,234,67,0,0,409,-3866,-4059,410,,,,,,,,,,,,
896583,1560692168405,-0,2.48,2.18,3.41,2.28,5.04,0.83,-0.66,0.92,17,2,19,1.06,7678,29,91,33,48,829,410.0,527,453,60,118.0,164,1,372,228,67,0,0,405,-31744,10392,410,,,,,,,,,,,,
896603,1560692168425,2,2.49,2.18,3.42,2.27,5.08,0.91,-0.68,0.97,18,1,19,1.13,7674,29,91,33,48,837,412.0,523,455,60,117.0,164,1,372,228,67,0,0,410,240,-9166,412,,,,,,,,,,,,
896623,1560692168445,1,2.49,2.16,3.42,2.26,5.06,0.96,-0.64,0.97,18,-1,20,1.15,7712,29,91,33,49,845,414.0,530,457,60,117.0,164,1,375,229,67,0,0,413,-1562,18584,416,,,,,,,,,,,,
896643,1560692168465,3,2.49,2.16,3.42,2.31,5.04,0.94,-0.64,0.92,19,-2,20,1.14,7725,29,91,33,48,848,416.0,530,461,60,117.0,164,1,372,228,67,0,0,414,-6524,2524,418,45.69873,4.909624,38.51,192.9,8,1.4767,0,0.0,1.1183,9,0.81,14.944
896663,1560692168485,3,2.5,2.18,3.41,2.41,5.04,0.83,-0.63,0.89,19,-3,21,1.04,7731,29,91,33,48,853,417.0,530,453,60,118.0,160,1,372,229,67,0,0,412,-31744,-3414,417,,,,,,,,,,,,
896683,1560692168507,2,2.52,2.18,3.4,2.4,5.05,0.79,-0.73,0.84,20,-3,21,1.08,7789,29,91,33,48,860,415.0,533,461,60,118.0,160,1,372,229,67,0,0,410,-6524,18584,415,,,,,,,,,,,,
896703,1560692168527,-1,2.52,2.13,3.43,2.37,5.05,0.78,-0.7,0.86,20,-2,21,1.05,7780,29,91,33,47,866,419.0,537,451,60,118.0,160,1,370,223,67,0,0,408,-1562,18584,419,,,,,,,,,,,,
896723,1560692168547,1,2.51,2.06,3.46,2.39,5.04,0.82,-0.69,0.88,20,-0,23,1.07,7809,29,91,33,47,869,423.0,529,451,60,118.0,160,1,370,223,67,0,0,424,505,-21792,426,,,,,,,,,,,,
896743,1560692168567,2,2.5,2.05,3.46,2.37,5.08,0.82,-0.65,0.84,20,1,26,1.05,7868,29,91,33,48,873,426.0,528,454,60,117.0,160,1,372,223,67,0,0,425,1,-3414,426,45.69873,4.90961,39.15,192.8,8,1.4767,0,0.0,1.12,9,0.81,14.9457
896763,1560692168587,4,2.5,2.06,3.4,2.35,5.07,0.78,-0.71,0.74,21,-1,25,1.05,7904,29,91,33,47,879,425.0,537,456,60,118.0,154,1,370,223,66,0,0,400,505,-4082,425,,,,,,,,,,,,
896783,1560692168609,-2,2.51,2.05,3.38,2.34,5.05,0.74,-0.7,0.7,23,-1,25,1.01,7944,29,91,33,47,884,427.0,539,455,60,118.0,154,1,370,223,66,0,0,410,17144,-3856,426,,,,,,,,,,,,
896803,1560692168629,1,2.48,2.06,3.5,2.34,5.07,0.68,-0.69,0.63,24,1,26,0.97,7924,29,91,33,47,887,428.0,539,453,60,117.0,154,1,370,221,66,0,0,456,17144,-3314,428,,,,,,,,,,,,
896823,1560692168649,4,2.48,2.08,3.58,2.34,5.07,0.63,-0.66,0.55,24,2,27,0.91,7965,29,91,33,47,890,427.0,544,460,60,117.0,154,1,370,223,66,0,0,444,-1818,31796,427,,,,,,,,,,,,
896843,1560692168669,-0,2.48,2.08,3.53,2.34,5.04,0.72,-0.66,0.59,24,2,28,0.98,8071,29,91,33,46,901,428.0,546,455,60,118.0,154,1,362,223,66,0,0,403,6384,1779,428,45.69873,4.909596,39.71,192.8,8,1.4767,0,0.0,1.1217,9,0.81,14.9474
896863,1560692168689,2,2.47,2.08,3.55,2.33,5.04,0.7,-0.64,0.64,23,2,28,0.95,8067,29,91,33,46,912,429.0,548,453,60,118.0,155,1,362,221,67,0,0,426,-3968,243,429,,,,,,,,,,,,
896883,1560692168707,4,2.47,2.2,3.56,2.34,5.04,0.61,-0.59,0.56,23,1,29,0.85,8081,29,91,33,46,921,428.0,552,456,60,117.0,155,1,362,221,67,0,0,435,-3968,3635,428,,,,,,,,,,,,
896903,1560692168727,1,2.46,2.32,3.47,2.34,5.04,0.61,-0.54,0.54,22,1,27,0.82,8092,29,91,33,45,929,425.0,552,457,60,118.0,155,1,355,219,67,0,0,417,-8151,-3322,425,,,,,,,,,,,,
896923,1560692168747,3,2.46,2.31,3.42,2.34,5.07,0.62,-0.57,0.55,23,0,26,0.84,8005,30,91,33,45,943,427.0,542,458,60,117.0,155,1,355,219,67,0,0,423,10541,-3856,427,,,,,,,,,,,,
896943,1560692168767,3,2.46,2.28,3.43,2.34,5.06,0.6,-0.62,0.56,23,-1,25,0.86,7894,30,91,33,45,957,428.0,546,455,60,118.0,155,1,355,219,67,0,0,430,2524,-3322,428,45.69873,4.909582,39.95,192.8,8,1.4767,0,0.0,1.1233,9,0.81,14.949
896963,1560692168787,-2,2.44,2.29,3.43,2.34,5.06,0.54,-0.58,0.54,23,-1,25,0.8,7884,30,91,33,46,964,430.0,538,455,60,118.0,153,1,362,221,66,0,0,431,-26615,243,430,,,,,,,,,,,,
896983,1560692168809,-0,2.44,2.28,3.43,2.33,5.07,0.59,-0.62,0.55,22,-0,25,0.85,7845,30,91,33,46,970,430.0,533,455,60,117.0,153,1,362,221,66,0,0,424,10392,13552,430,,,,,,,,,,,,
897003,1560692168829,1,2.43,2.27,3.44,2.3,5.07,0.63,-0.54,0.51,21,-2,25,0.83,7898,30,91,33,47,982,430.0,541,459,60,117.0,153,1,370,223,66,0,0,419,9517,3635,430,,,,,,,,,,,,
897023,1560692168849,5,2.42,2.18,3.51,2.3,5.04,0.58,-0.59,0.51,21,-2,24,0.82,7961,30,91,33,46,994,432.0,545,456,60,118.0,153,1,362,223,66,0,0,426,11560,1779,432,,,,,,,,,,,,
897043,1560692168869,-1,2.41,2.1,3.51,2.27,5.04,0.55,-0.63,0.57,21,0,24,0.84,7988,30,91,33,47,1003,435.0,545,455,60,118.0,153,1,370,221,66,0,0,423,2524,-7939,436,45.69873,4.909568,40.82,192.8,8,1.4767,0,0.0,1.125,9,0.81,14.9507
897063,1560692168889,2,2.41,2.14,3.49,2.3,5.04,0.52,-0.59,0.52,20,1,24,0.79,8054,30,91,33,46,1010,436.0,560,458,60,117.0,153,1,362,221,67,0,0,420,13040,-768,436,,,,,,,,,,,,
897083,1560692168909,-0,2.4,2.21,3.41,2.36,5.07,0.51,-0.58,0.5,20,2,24,0.77,8141,30,91,33,46,1017,434.0,556,458,60,118.0,153,1,362,222,67,0,0,422,-4059,-3322,434,,,,,,,,,,,,
897103,1560692168929,1,2.41,2.23,3.36,2.41,5.04,0.42,-0.59,0.45,21,3,23,0.72,8095,30,91,33,46,1025,434.0,556,456,60,117.0,153,1,362,221,67,0,0,428,-26615,21580,433,,,,,,,,,,,,
897123,1560692168949,3,2.4,2.19,3.34,2.36,5.08,0.45,-0.59,0.36,21,4,24,0.74,8054,29,91,33,46,1027,437.0,563,458,60,117.0,153,1,362,221,67,0,0,427,-21944,19477,437,,,,,,,,,,,,
897143,1560692168969,0,2.4,2.17,3.31,2.37,5.08,0.45,-0.55,0.47,21,4,23,0.72,8078,26,91,33,44,1027,440.0,550,457,60,118.0,153,1,347,218,67,0,0,429,-3414,5600,440,45.698734,4.909553,41.52,192.8,8,1.4767,0,0.0,1.1267,9,0.81,14.9524
897163,1560692168989,3,2.39,2.15,3.35,2.37,5.04,0.52,-0.56,0.52,20,6,24,0.76,8050,24,91,33,42,1030,439.0,547,457,60,117.0,150,1,333,214,66,0,0,434,7154,20625,439,,,,,,,,,,,,
897183,1560692169001,5,2.39,2.15,3.27,2.3,5.07,0.49,-0.44,0.47,19,5,23,0.66,8047,24,91,33,40,1034,436.0,552,453,60,118.0,150,1,317,213,66,0,0,425,3826,5600,436,,,,,,,,,,,,
897203,1560692169021,2,2.39,2.15,3.36,2.26,5.04,0.51,-0.45,0.48,19,5,22,0.68,8074,24,91,33,39,1039,438.0,553,458,60,118.0,150,1,311,210,66,0,0,430,-21792,-768,435,,,,,,,,,,,,
897223,1560692169041,2,2.39,2.16,3.46,2.25,5.08,0.51,-0.43,0.45,18,6,22,0.66,8043,24,91,33,39,1043,438.0,547,458,60,117.0,150,1,310,210,66,0,0,431,3826,21580,438,,,,,,,,,,,,
897243,1560692169061,5,2.38,2.22,3.51,2.25,5.07,0.52,-0.34,0.37,17,6,22,0.62,8023,24,91,33,38,1048,437.0,556,453,60,118.0,150,1,307,204,66,0,0,430,-4082,21580,437,45.698734,4.909538,41.48,192.8,8,1.4767,0,0.0,1.1283,9,0.81,14.9541
897263,1560692169081,1,2.38,2.23,3.48,2.24,5.07,0.55,-0.32,0.42,16,7,21,0.64,8054,24,91,33,37,1053,438.0,552,459,60,118.0,141,1,305,198,62,0,0,426,-4082,-28332,438,,,,,,,,,,,,
897283,1560692169104,2,2.38,2.24,3.46,2.24,5.04,0.57,-0.28,0.43,16,7,20,0.63,8064,24,91,33,37,1055,438.0,560,458,60,117.0,141,1,305,198,62,0,0,424,3826,20625,438,,,,,,,,,,,,
897303,1560692169124,-1,2.38,2.26,3.45,2.24,5.04,0.59,-0.28,0.38,15,7,19,0.65,8002,24,91,33,37,1055,436.0,566,455,60,118.0,141,1,304,198,62,0,0,426,-3414,-7939,436,,,,,,,,,,,,
897323,1560692169144,3,2.38,2.28,3.38,2.23,5.04,0.62,-0.27,0.45,16,6,18,0.68,8023,24,91,33,37,1047,435.0,553,457,60,117.0,141,1,304,198,62,0,0,424,3826,5600,436,,,,,,,,,,,,
897343,1560692169164,3,2.38,2.26,3.4,2.2,5.05,0.65,-0.24,0.45,16,5,18,0.69,8005,22,91,33,36,1030,435.0,556,458,60,117.0,141,1,301,192,62,0,0,422,-3414,5600,435,45.698738,4.909524,41.85,192.8,8,1.4767,0,0.0,1.13,9,0.81,14.9557
897363,1560692169184,1,2.39,2.25,3.44,2.2,5.08,0.67,-0.27,0.42,16,4,17,0.73,7941,21,91,33,35,1013,436.0,565,453,60,118.0,131,1,298,185,57,0,0,423,-21792,5600,436,,,,,,,,,,,,
897383,1560692169208,2,2.38,2.25,3.49,2.2,5.07,0.67,-0.25,0.44,15,4,16,0.72,7958,20,91,33,34,996,437.0,555,460,60,118.0,131,1,295,179,57,0,0,423,-3414,-3322,437,,,,,,,,,,,,
897403,1560692169228,1,2.37,2.25,3.5,2.2,5.04,0.68,-0.27,0.45,15,3,15,0.74,7908,20,91,33,34,976,436.0,551,456,60,117.0,131,1,295,179,57,0,0,423,-3414,19477,436,,,,,,,,,,,,
897423,1560692169248,3,2.37,2.27,3.5,2.2,5.04,0.62,-0.22,0.35,15,4,15,0.66,7835,19,91,33,34,951,437.0,550,455,60,117.0,131,1,295,179,57,0,0,421,3826,5600,437,,,,,,,,,,,,
897443,1560692169268,3,2.37,2.26,3.53,2.19,5.06,0.53,-0.24,0.31,16,5,15,0.58,7796,18,91,33,33,931,434.0,544,458,60,118.0,131,1,292,174,57,0,0,423,3826,1779,434,45.698738,4.909509,42.16,192.8,8,1.4767,0,0.0,1.1317,9,0.82,14.9574
897463,1560692169288,0,2.37,2.26,3.52,2.17,5.06,0.56,-0.3,0.37,16,5,14,0.63,7725,16,91,33,32,924,434.0,539,453,60,118.0,112,1,290,169,49,0,0,422,-4082,-768,434,,,,,,,,,,,,
897483,1560692169308,1,2.36,2.26,3.48,2.17,5.08,0.66,-0.28,0.4,15,3,14,0.71,7697,14,91,33,31,915,435.0,537,457,60,117.0,112,1,286,167,49,0,0,423,3826,1779,433,,,,,,,,,,,,
897503,1560692169328,0,2.37,2.22,3.47,2.15,5.08,0.79,-0.35,0.53,14,1,12,0.87,7588,12,91,32,30,902,436.0,530,458,60,117.0,112,1,282,166,49,0,0,423,-3856,1779,436,,,,,,,,,,,,
897523,1560692169348,-0,2.35,2.16,3.44,2.15,5.04,0.92,-0.32,0.61,13,0,12,0.97,7521,11,91,32,28,890,436.0,525,455,60,118.0,112,1,275,163,49,0,0,423,-3856,243,436,,,,,,,,,,,,
897543,1560692169368,0,2.35,2.17,3.42,2.15,5.04,1.02,-0.35,0.65,11,-0,12,1.08,7411,11,91,32,28,884,436.0,521,458,60,117.0,112,1,275,163,49,0,0,422,-4082,-768,436,45.698742,4.909495,41.86,192.8,8,1.4767,0,0.0,1.1333,9,0.82,14.9591
897563,1560692169388,0,2.34,2.18,3.39,2.15,5.06,1.12,-0.33,0.75,11,-4,12,1.17,7347,11,91,32,27,877,434.0,520,456,60,118.0,103,1,270,161,45,0,0,421,-3414,31796,434,,,,,,,,,,,,
897583,1560692169408,-1,2.33,2.17,3.39,2.16,5.04,1.21,-0.34,0.87,9,-5,12,1.26,7338,11,91,32,26,870,431.0,523,457,60,118.0,103,1,266,160,45,0,0,412,-8165,-3414,431,,,,,,,,,,,,
897603,1560692169428,1,2.31,2.15,3.39,2.13,5.04,1.29,-0.38,0.94,8,-6,11,1.35,7470,11,91,32,26,864,428.0,522,455,60,118.0,103,1,267,160,45,0,0,406,-21944,11560,428,,,,,,,,,,,,
897623,1560692169448,-1,2.31,2.15,3.4,2.1,5.05,1.26,-0.41,0.93,9,-5,10,1.33,7575,10,91,32,26,863,424.0,530,455,60,118.0,103,1,268,159,45,0,0,404,-26615,-3968,424,,,,,,,,,,,,
897643,1560692169468,-1,2.3,2.14,3.4,2.08,5.07,1.34,-0.4,0.97,8,-7,9,1.4,7678,10,91,32,25,862,419.0,530,455,60,118.0,103,1,266,159,45,0,0,405,2524,-26615,419,45.698746,4.909481,41.56,192.8,8,1.4767,0,0.0,1.135,9,0.82,14.9607
897663,1560692169488,1,2.29,2.15,3.42,2.05,5.07,1.41,-0.33,0.98,7,-8,9,1.44,7684,10,91,32,24,860,418.0,532,457,60,117.0,110,1,267,156,46,0,0,413,13040,1504,418,,,,,,,,,,,,
897683,1560692169508,1,2.29,2.18,3.44,2.03,5.06,1.44,-0.24,0.99,5,-9,8,1.46,7693,10,91,32,24,859,415.0,534,455,60,118.0,110,1,266,156,46,0,0,413,13040,10541,412,,,,,,,,,,,,
897703,1560692169528,2,2.28,2.17,3.43,2.02,5.08,1.36,-0.11,0.85,5,-9,8,1.37,7618,10,91,32,24,858,414.0,532,458,60,117.0,110,1,266,156,46,0,0,413,-4059,-26615,410,,,,,,,,,,,,
897723,1560692169548,2,2.27,2.18,3.42,2.0,5.04,1.28,-0.03,0.63,4,-8,8,1.28,7521,10,91,32,23,857,411.0,532,456,60,117.0,110,1,265,154,46,0,0,413,-4059,1504,410,,,,,,,,,,,,
897743,1560692169568,0,2.27,2.21,3.41,2.0,5.07,1.1,0.09,0.47,4,-6,8,1.11,7485,10,91,32,23,858,408.0,525,458,60,117.0,110,1,264,154,46,0,0,413,10392,6512,408,45.69875,4.909467,41.31,192.7,8,1.4767,0,0.0,1.1367,9,0.82,14.9624
897763,1560692169588,1,2.25,2.26,3.36,1.98,5.05,1.06,0.14,0.39,4,-7,7,1.07,7411,10,91,32,23,860,408.0,520,455,60,117.0,105,1,264,154,43,0,0,25,10392,6384,405,,,,,,,,,,,,
897783,1560692169608,2,2.25,2.27,3.36,1.96,5.07,1.01,0.25,0.29,3,-6,6,1.04,7411,10,91,32,23,862,407.0,521,458,60,117.0,105,1,264,154,43,0,0,393,-26615,-3968,404,,,,,,,,,,,,
897803,1560692169628,1,2.23,2.28,3.35,1.95,5.05,1.06,0.3,0.28,3,-7,5,1.11,7367,10,91,32,23,865,405.0,525,456,60,117.0,105,1,263,154,43,0,0,393,2524,-6656,400,,,,,,,,,,,,
897823,1560692169648,0,2.22,2.3,3.37,1.94,5.05,1.16,0.26,0.37,2,-9,3,1.19,7367,10,91,32,23,872,404.0,517,456,60,117.0,105,1,263,154,43,0,0,394,1504,-6524,398,,,,,,,,,,,,
897843,1560692169668,-0,2.22,2.32,3.42,1.92,5.07,1.24,0.23,0.5,1,-10,1,1.26,7341,10,91,32,23,879,403.0,516,454,60,118.0,105,1,263,154,43,0,0,391,-8151,-1562,395,45.698753,4.909453,40.11,192.7,8,1.4767,0,0.0,1.1383,9,0.82,14.9641
897863,1560692169688,3,2.21,2.31,3.4,1.89,5.05,1.32,0.11,0.54,-1,-9,-0,1.32,7287,10,91,32,23,885,402.0,520,455,60,118.0,106,1,262,154,42,0,0,391,10541,-6524,392,,,,,,,,,,,,
897883,1560692169708,4,2.19,2.32,3.4,1.88,5.05,1.36,0.12,0.55,-2,-10,-1,1.36,7273,10,91,32,23,890,403.0,525,459,60,118.0,106,1,262,154,42,0,0,392,-8151,240,392,,,,,,,,,,,,
897903,1560692169728,1,2.17,2.39,3.36,1.85,5.06,1.2,0.22,0.36,-2,-7,-2,1.22,7208,10,91,32,23,896,401.0,523,458,60,117.0,106,1,262,154,42,0,0,395,11545,19125,387,,,,,,,,,,,,
897923,1560692169748,1,2.16,2.37,3.31,1.84,5.04,1.14,0.37,0.37,-2,-8,-5,1.2,7217,10,91,32,23,901,401.0,512,458,60,117.0,106,1,262,154,42,0,0,392,11545,-19126,384,,,,,,,,,,,,
897943,1560692169768,1,2.15,2.35,3.29,1.8,5.04,1.21,0.45,0.37,-4,-7,-5,1.29,7186,10,91,32,23,903,400.0,505,452,60,118.0,106,1,261,154,42,0,0,393,6512,3,384,45.698757,4.90944,39.3,192.7,8,1.4767,0,0.0,1.14,9,0.82,14.9657
897963,1560692169788,4,2.15,2.34,3.28,1.77,5.07,1.24,0.35,0.44,-5,-6,-6,1.29,7140,10,91,32,24,904,399.0,506,453,60,118.0,109,1,261,154,42,0,0,391,6512,-6656,383,,,,,,,,,,,,
897983,1560692169808,3,2.15,2.36,3.27,1.8,5.03,1.25,0.28,0.45,-5,-7,-8,1.28,7137,10,91,32,24,904,399.0,504,462,60,117.0,109,1,261,156,42,0,0,392,6384,230,380,,,,,,,,,,,,
898003,1560692169828,2,2.12,2.38,3.27,1.84,5.07,1.12,0.37,0.32,-5,-4,-9,1.18,7070,10,91,32,24,904,395.0,510,457,60,117.0,109,1,260,156,42,0,0,385,-1818,742,377,,,,,,,,,,,,
898023,1560692169848,-0,2.11,2.38,3.27,1.84,5.03,1.12,0.47,0.34,-6,-3,-11,1.21,7059,10,91,32,24,903,392.0,503,459,60,118.0,109,1,260,156,42,0,0,384,-6656,1,375,,,,,,,,,,,,
898043,1560692169868,4,2.09,2.43,3.27,1.82,5.07,1.18,0.37,0.44,-8,-4,-13,1.23,7048,10,91,32,24,903,390.0,503,455,60,118.0,109,1,260,156,42,0,0,386,1,0,371,45.698761,4.909427,38.34,192.7,8,1.4767,0,0.0,1.1417,9,0.82,14.9674
898063,1560692169888,-0,2.09,2.41,3.26,1.8,5.05,1.2,0.42,0.42,-8,-4,-13,1.28,6967,10,91,32,24,906,393.0,503,459,60,118.0,111,1,260,156,41,0,0,386,17144,3082,368,,,,,,,,,,,,
898083,1560692169908,-2,2.08,2.41,3.18,1.78,5.06,1.09,0.55,0.34,-10,-1,-12,1.22,6931,10,91,32,24,910,394.0,497,458,60,117.0,111,1,260,156,41,0,0,385,-1818,-1268,365,,,,,,,,,,,,
898103,1560692169928,2,2.07,2.41,3.1,1.76,5.05,1.18,0.44,0.5,-11,-5,-14,1.26,6939,10,91,32,24,913,391.0,499,455,60,119.0,111,1,260,156,41,0,0,388,505,-29978,362,,,,,,,,,,,,
898123,1560692169948,1,2.07,2.4,3.09,1.76,5.04,1.07,0.55,0.43,-12,-5,-16,1.2,6880,10,91,32,25,917,390.0,502,458,60,117.0,111,1,262,159,41,0,0,384,-1562,-6644,359,,,,,,,,,,,,
898143,1560692169968,2,2.08,2.39,3.09,1.75,5.04,1.11,0.57,0.44,-14,-5,-19,1.24,6853,10,91,32,25,922,389.0,496,456,60,118.0,111,1,262,159,41,0,0,383,-6524,-30454,360,45.698765,4.909414,37.1,192.7,8,1.4767,0,0.0,1.1433,9,0.82,14.9691
898163,1560692169988,1,2.08,2.39,3.11,1.75,5.05,1.06,0.51,0.44,-14,-5,-20,1.17,6858,10,91,33,25,926,385.0,493,457,60,118.0,114,1,262,159,41,0,0,381,-6475,-30454,359,,,,,,,,,,,,
898183,1560692170002,0,2.07,2.39,3.16,1.81,5.03,1.01,0.6,0.48,-15,-3,-21,1.17,6800,10,90,33,25,929,386.0,490,453,60,118.0,114,1,262,159,41,0,0,378,-3866,8841,355,,,,,,,,,,,,
898203,1560692170022,2,2.08,2.39,3.18,1.81,5.03,1.03,0.51,0.51,-15,-3,-21,1.15,6698,10,90,33,25,930,385.0,492,454,60,118.0,114,1,264,159,41,0,0,375,-19019,6870,355,,,,,,,,,,,,
898223,1560692170042,4,2.08,2.4,3.17,1.81,5.05,0.91,0.56,0.48,-15,-0,-21,1.07,6689,10,91,33,26,931,383.0,482,458,60,118.0,114,1,267,160,41,0,0,376,19125,-1246,353,,,,,,,,,,,,
898243,1560692170062,0,2.09,2.4,3.17,1.82,5.04,0.95,0.54,0.44,-16,-1,-21,1.09,6667,10,91,33,26,931,380.0,484,458,60,118.0,114,1,267,160,41,0,0,374,8200,-31206,350,45.698765,4.909401,36.21,192.7,8,1.4767,0,0.0,1.145,9,0.82,14.9707
898263,1560692170082,4,2.1,2.4,3.17,1.81,5.04,0.96,0.47,0.48,-16,-3,-24,1.06,6663,10,91,33,26,931,378.0,480,453,60,119.0,113,1,267,160,40,0,0,370,2278,3327,350,,,,,,,,,,,,
898283,1560692170105,-2,2.12,2.38,3.17,1.78,5.06,0.94,0.48,0.45,-17,-4,-24,1.06,6660,10,91,33,27,931,376.0,484,455,60,117.0,113,1,271,161,40,0,0,367,3,-31206,347,,,,,,,,,,,,
898303,1560692170125,3,2.13,2.38,3.17,1.78,5.06,0.91,0.48,0.45,-16,-4,-25,1.03,6613,10,91,33,27,930,373.0,480,454,60,118.0,113,1,271,161,40,0,0,369,-6656,-31222,349,,,,,,,,,,,,
898323,1560692170145,-1,2.15,2.36,3.2,1.77,5.08,0.9,0.49,0.39,-16,-2,-24,1.02,6592,10,91,33,27,929,372.0,475,457,60,117.0,113,1,271,161,40,0,0,364,1,-31206,347,,,,,,,,,,,,
898343,1560692170165,2,2.16,2.35,3.23,1.78,5.05,0.92,0.34,0.45,-16,-2,-23,0.98,6618,10,91,33,28,929,369.0,469,451,60,118.0,113,1,275,163,40,0,0,361,-6656,2811,347,45.698769,4.909389,35.38,192.7,8,1.4767,0,0.0,1.1467,9,0.83,14.9724
898363,1560692170185,3,2.19,2.33,3.22,1.79,5.07,0.89,0.43,0.44,-16,1,-21,0.98,6567,10,91,33,28,928,368.0,466,457,60,118.0,114,1,275,163,40,0,0,362,0,6870,347,,,,,,,,,,,,
898383,1560692170209,-0,2.2,2.34,3.21,1.81,5.05,0.93,0.37,0.48,-15,0,-20,1.0,6530,11,91,33,28,929,365.0,474,456,60,117.0,114,1,275,163,40,0,0,360,3082,6668,347,,,,,,,,,,,,
898403,1560692170229,0,2.23,2.34,3.22,1.85,5.07,0.86,0.34,0.44,-14,-1,-20,0.93,6539,11,91,33,29,929,360.0,475,456,60,118.0,114,1,279,164,40,0,0,354,-14707,3327,346,,,,,,,,,,,,
898423,1560692170249,4,2.25,2.32,3.27,1.86,5.05,0.82,0.42,0.37,-13,2,-19,0.93,6505,12,91,33,29,930,358.0,468,452,60,119.0,114,1,279,164,40,0,0,352,-29978,6668,345,,,,,,,,,,,,
898443,1560692170269,1,2.26,2.29,3.3,1.89,5.07,0.91,0.29,0.44,-12,1,-18,0.95,6499,12,91,33,30,931,355.0,466,460,60,117.0,114,1,283,166,40,0,0,350,2060,-10554,347,45.698772,4.909376,34.55,192.6,8,1.4767,0,0.0,1.1483,9,0.83,14.974
898463,1560692170289,3,2.27,2.28,3.31,1.93,5.04,0.82,0.21,0.46,-10,-1,-17,0.84,6481,13,91,33,30,931,354.0,468,453,60,119.0,114,1,283,167,40,0,0,350,3183,6870,348,,,,,,,,,,,,
898483,1560692170309,3,2.3,2.26,3.3,1.92,5.07,0.74,0.25,0.41,-9,0,-15,0.79,6436,13,91,33,31,933,352.0,463,447,60,119.0,114,1,286,167,40,0,0,345,3183,6870,350,,,,,,,,,,,,
898503,1560692170329,-0,2.3,2.25,3.3,1.95,5.05,0.82,0.22,0.33,-7,1,-15,0.85,6432,13,91,33,32,934,349.0,463,458,60,118.0,114,1,290,169,40,0,0,342,2811,-14714,348,,,,,,,,,,,,
898523,1560692170349,0,2.33,2.25,3.33,1.98,5.04,0.88,0.12,0.39,-7,0,-14,0.89,6421,14,91,33,33,934,347.0,469,462,60,117.0,114,1,292,174,40,0,0,341,8841,-10554,347,,,,,,,,,,,,
898543,1560692170369,3,2.34,2.24,3.36,1.98,5.04,0.81,0.13,0.34,-5,-0,-15,0.82,6414,15,91,33,33,933,347.0,462,459,60,118.0,114,1,292,174,40,0,0,339,-10554,2811,347,45.698772,4.909364,34.2,192.6,8,1.4767,0,0.0,1.15,9,0.83,14.9757
898563,1560692170389,-0,2.37,2.22,3.39,1.98,5.07,0.78,0.09,0.32,-3,2,-13,0.78,6416,17,91,33,35,933,347.0,460,453,60,118.0,124,1,298,185,43,0,0,341,-31206,-31206,347,,,,,,,,,,,,
898583,1560692170409,-2,2.39,2.22,3.45,1.99,5.06,0.86,-0.05,0.45,-2,1,-10,0.87,6427,18,91,33,36,933,347.0,460,458,60,117.0,124,1,301,190,43,0,0,337,3327,8841,347,,,,,,,,,,,,
898603,1560692170429,1,2.42,2.22,3.47,2.05,5.06,0.79,-0.13,0.51,-1,-1,-8,0.8,6416,19,91,33,37,932,349.0,457,455,60,119.0,124,1,304,196,43,0,0,337,-122,-30438,349,,,,,,,,,,,,
898623,1560692170449,3,2.45,2.22,3.49,2.05,5.06,0.74,-0.07,0.46,1,-0,-6,0.74,6416,21,91,33,39,931,348.0,454,458,60,118.0,124,1,310,208,43,0,0,336,13,-1246,349,,,,,,,,,,,,
898643,1560692170469,-0,2.46,2.21,3.49,2.07,5.04,0.81,-0.16,0.43,3,1,-4,0.83,6419,22,91,33,41,930,350.0,454,459,60,117.0,124,1,323,211,43,0,0,334,3346,-30438,350,45.698772,4.909351,33.54,192.6,8,1.4767,0,0.0,1.1517,9,0.83,14.9774
898663,1560692170489,-0,2.49,2.19,3.49,2.09,5.04,0.87,-0.24,0.48,5,-0,-1,0.9,6425,24,91,33,42,929,353.0,462,454,60,118.0,144,1,330,212,51,0,0,332,-12032,28553,353,,,,,,,,,,,,
898683,1560692170509,4,2.5,2.15,3.53,2.12,5.03,0.76,-0.27,0.42,7,1,2,0.8,6441,26,91,33,44,928,354.0,458,456,60,118.0,144,1,343,215,51,0,0,325,175,-6644,354,,,,,,,,,,,,
898703,1560692170529,0,2.5,2.13,3.57,2.13,5.03,0.76,-0.23,0.35,9,5,6,0.79,6501,29,91,33,47,927,355.0,456,457,60,118.0,144,1,365,220,51,0,0,326,170,-30454,355,,,,,,,,,,,,
898723,1560692170549,1,2.51,2.14,3.56,2.16,5.04,0.89,-0.38,0.42,10,3,9,0.96,6530,31,91,33,49,926,356.0,461,453,60,117.0,144,1,371,230,51,0,0,324,-22016,-6644,356,,,,,,,,,,,,
898743,1560692170569,4,2.51,2.13,3.54,2.18,5.04,0.78,-0.36,0.4,12,1,12,0.86,6576,32,91,33,51,925,357.0,455,454,60,118.0,144,1,377,241,51,0,0,328,160,-30454,357,45.698772,4.909339,33.53,192.6,8,1.4767,0,0.0,1.1533,9,0.83,14.979
898763,1560692170589,-1,2.52,2.14,3.54,2.23,5.04,0.79,-0.36,0.35,13,1,14,0.87,6562,33,91,33,54,925,354.0,462,460,60,117.0,174,1,387,258,62,0,0,322,160,-30454,354,,,,,,,,,,,,
898783,1560692170607,2,2.52,2.14,3.55,2.24,5.06,0.85,-0.4,0.44,14,-1,14,0.94,6551,34,91,33,56,923,355.0,463,458,60,119.0,174,1,391,262,62,0,0,322,-24576,28553,355,,,,,,,,,,,,
898803,1560692170627,5,2.52,2.14,3.55,2.26,5.04,0.74,-0.34,0.42,16,-1,12,0.81,6581,34,91,33,58,926,356.0,461,456,60,118.0,174,1,397,268,62,0,0,324,-24576,2811,356,,,,,,,,,,,,
898823,1560692170647,1,2.53,2.13,3.54,2.27,5.03,0.81,-0.47,0.46,16,-3,12,0.93,6595,34,91,33,59,930,357.0,460,455,60,117.0,174,1,400,271,62,0,0,323,155,3183,357,,,,,,,,,,,,
898843,1560692170667,3,2.52,2.14,3.54,2.28,5.04,0.76,-0.53,0.54,17,-4,11,0.93,6558,34,91,33,60,932,356.0,461,454,60,118.0,174,1,401,272,62,0,0,320,150,-6644,356,45.698776,4.909327,33.58,192.6,8,1.4767,0,0.0,1.155,9,0.83,14.9807
898863,1560692170687,-1,2.53,2.11,3.54,2.28,5.06,0.83,-0.54,0.45,18,-3,13,0.99,6555,35,91,33,61,937,357.0,462,463,60,117.0,192,1,404,275,68,0,0,321,-25856,2060,354,,,,,,,,,,,,
898883,1560692170707,1,2.52,2.11,3.54,2.27,5.08,0.87,-0.63,0.43,19,-3,16,1.07,6528,35,91,33,62,964,355.0,457,462,60,117.0,192,1,399,279,68,0,0,320,-27136,28553,355,,,,,,,,,,,,
898903,1560692170727,3,2.52,2.11,3.53,2.27,5.06,0.75,-0.66,0.34,20,-0,20,1.0,6546,35,91,33,62,998,354.0,455,443,60,119.0,192,1,400,286,68,0,0,320,150,-6640,354,,,,,,,,,,,,
898923,1560692170747,-0,2.52,2.11,3.51,2.29,5.05,0.8,-0.65,0.3,21,3,25,1.03,6478,35,91,33,63,1032,354.0,449,463,60,117.0,192,1,394,283,68,0,0,329,150,-6644,354,,,,,,,,,,,,
898943,1560692170767,1,2.52,2.11,3.52,2.29,5.08,0.89,-0.71,0.38,21,1,29,1.14,6405,35,91,33,64,1063,354.0,447,457,60,118.0,192,1,387,287,68,0,0,331,-25856,28553,354,45.698776,4.909315,33.48,192.6,8,1.4767,0,0.0,1.1567,9,0.83,14.9824
898963,1560692170787,2,2.53,2.1,3.52,2.28,5.06,0.77,-0.69,0.41,21,-1,30,1.04,6349,35,91,33,65,1124,357.0,441,453,60,119.0,194,1,381,292,69,0,0,334,-24576,3183,357,,,,,,,,,,,,
898983,1560692170809,5,2.52,2.1,3.52,2.28,5.05,0.66,-0.65,0.36,22,-1,30,0.92,6289,35,91,33,65,1205,357.0,436,450,60,118.0,194,1,379,290,69,0,0,331,160,3302,357,,,,,,,,,,,,
899003,1560692170829,1,2.51,2.1,3.5,2.28,5.05,0.66,-0.6,0.27,22,0,30,0.9,6334,35,91,33,66,1271,358.0,433,453,60,117.0,194,1,376,298,69,0,0,325,160,2060,358,,,,,,,,,,,,
899023,1560692170849,-2,2.52,2.1,3.49,2.29,5.07,0.77,-0.59,0.31,21,-1,29,0.97,6311,35,91,33,66,1322,356.0,432,460,60,117.0,194,1,376,298,69,0,0,323,160,4104,356,,,,,,,,,,,,
899043,1560692170869,2,2.52,2.1,3.48,2.31,5.06,0.79,-0.6,0.44,22,-3,26,0.99,6338,35,91,33,66,1374,357.0,440,455,60,118.0,194,1,377,305,69,0,0,325,-24576,4104,357,45.698776,4.909303,33.21,192.6,8,1.4767,0,0.0,1.1583,9,0.83,14.984
899063,1560692170889,3,2.51,2.08,3.48,2.31,5.03,0.77,-0.59,0.51,22,-4,24,0.97,6381,36,91,33,67,1427,358.0,441,457,60,118.0,202,1,374,307,72,0,0,323,155,4104,358,,,,,,,,,,,,
899083,1560692170907,1,2.51,2.06,3.47,2.31,5.04,0.77,-0.61,0.46,23,-3,22,0.99,6373,36,91,33,67,1465,359.0,441,458,60,118.0,202,1,374,307,72,0,0,327,160,4104,359,,,,,,,,,,,,
899103,1560692170927,-1,2.5,2.06,3.45,2.31,5.04,0.82,-0.64,0.43,22,-4,23,1.04,6447,36,91,33,67,1470,358.0,440,452,60,117.0,202,1,377,308,72,0,0,327,-24576,3302,358,,,,,,,,,,,,
899123,1560692170947,2,2.5,2.07,3.42,2.34,5.04,0.84,-0.75,0.54,22,-5,23,1.13,6469,36,91,33,67,1471,357.0,442,452,60,118.0,202,1,377,309,72,0,0,329,160,-29978,357,,,,,,,,,,,,
899143,1560692170967,4,2.5,2.07,3.4,2.35,5.08,0.82,-0.66,0.48,22,-3,25,1.06,6503,36,91,33,67,1470,358.0,441,455,60,119.0,202,1,379,310,72,0,0,332,-23296,3183,358,45.69878,4.909292,33.24,192.6,8,1.4767,0,0.0,1.16,9,0.83,14.9857
899163,1560692170987,-1,2.49,2.06,3.41,2.33,5.05,0.92,-0.73,0.48,22,-2,27,1.17,6472,36,91,33,67,1469,357.0,446,456,60,117.0,218,1,378,309,78,0,0,334,-22016,-6640,357,,,,,,,,,,,,
899183,1560692171001,3,2.48,2.07,3.41,2.32,5.07,0.86,-0.72,0.51,22,-2,29,1.12,6496,36,91,33,67,1464,359.0,445,448,60,119.0,218,1,378,309,78,0,0,338,-20736,4104,357,,,,,,,,,,,,
899203,1560692171021,5,2.47,2.07,3.41,2.33,5.07,0.75,-0.67,0.5,22,2,31,1.01,6452,36,91,33,68,1458,358.0,443,459,60,118.0,218,1,373,309,78,0,0,340,-20736,-6640,358,,,,,,,,,,,,
899223,1560692171041,-1,2.46,2.09,3.42,2.34,5.07,0.78,-0.64,0.47,21,4,33,1.01,6481,36,91,33,68,1448,357.0,442,461,60,118.0,218,1,374,316,78,0,0,344,175,-6640,357,,,,,,,,,,,,
899243,1560692171061,1,2.43,2.09,3.42,2.33,5.04,0.91,-0.68,0.62,20,-0,33,1.13,6490,36,91,33,68,1439,357.0,443,455,60,118.0,218,1,374,316,78,0,0,339,-12032,-14707,358,45.698784,4.909281,33.21,192.6,8,1.4767,0,0.0,1.1617,9,0.83,14.9874
899263,1560692171081,3,2.43,2.09,3.4,2.31,5.03,0.76,-0.6,0.61,20,-2,32,0.97,6490,36,91,33,68,1434,357.0,442,455,60,118.0,216,1,374,316,77,0,0,338,4838,4104,357,,,,,,,,,,,,
899283,1560692171106,-2,2.42,2.1,3.38,2.3,5.05,0.72,-0.56,0.53,19,-1,30,0.91,6528,36,91,33,68,1425,356.0,446,455,60,118.0,216,1,375,317,77,0,0,341,3346,-29978,356,,,,,,,,,,,,
899303,1560692171126,1,2.4,2.11,3.39,2.26,5.05,0.85,-0.55,0.68,18,-4,26,1.01,6581,36,91,33,68,1404,355.0,450,458,60,117.0,216,1,377,318,77,0,0,345,13,-29978,355,,,,,,,,,,,,
899323,1560692171146,-0,2.37,2.14,3.39,2.26,5.04,0.73,-0.46,0.57,18,-3,23,0.86,6578,36,91,33,68,1384,355.0,455,457,60,118.0,216,1,377,318,77,0,0,347,3327,3302,357,,,,,,,,,,,,
899343,1560692171166,1,2.36,2.16,3.36,2.26,5.04,0.76,-0.51,0.63,17,-4,21,0.91,6679,36,91,33,68,1368,357.0,453,458,60,118.0,216,1,381,320,77,0,0,350,-31206,-6640,357,45.698788,4.90927,33.56,192.6,8,1.4767,0,0.0,1.1633,9,0.83,14.989
899363,1560692171186,3,2.34,2.17,3.35,2.24,5.06,0.73,-0.41,0.64,16,-4,20,0.83,6698,36,91,33,67,1351,357.0,461,458,60,118.0,222,1,386,314,79,0,0,353,-10554,-29978,357,,,,,,,,,,,,
899383,1560692171206,-1,2.33,2.22,3.33,2.25,5.05,0.77,-0.45,0.62,15,-3,20,0.89,6754,36,91,33,67,1333,356.0,463,456,60,117.0,222,1,388,316,79,0,0,356,8841,-14707,356,,,,,,,,,,,,
899403,1560692171226,4,2.3,2.23,3.3,2.25,5.04,0.65,-0.37,0.57,14,-1,19,0.75,6776,37,91,33,67,1312,356.0,460,452,60,118.0,222,1,389,316,79,0,0,358,28553,-14707,356,,,,,,,,,,,,
899423,1560692171246,3,2.29,2.25,3.29,2.24,5.04,0.78,-0.43,0.68,12,-0,20,0.89,6868,37,91,33,67,1309,358.0,468,457,60,117.0,222,1,392,319,79,0,0,365,3183,-1268,358,,,,,,,,,,,,
899443,1560692171266,-0,2.28,2.26,3.25,2.22,5.05,0.6,-0.31,0.62,11,1,20,0.68,6923,37,91,33,66,1306,359.0,472,452,60,118.0,222,1,398,315,79,0,0,367,-6640,230,359,45.698795,4.90926,34.12,192.6,8,1.4767,0,0.0,1.165,9,0.84,14.9907
899463,1560692171286,3,2.27,2.3,3.22,2.22,5.04,0.75,-0.31,0.75,9,-1,17,0.81,6921,37,91,33,66,1286,361.0,477,454,60,118.0,228,1,398,315,82,0,0,372,-6458,0,360,,,,,,,,,,,,
899483,1560692171306,1,2.26,2.34,3.16,2.22,5.04,0.53,-0.19,0.65,9,2,15,0.56,6954,37,91,33,66,1267,363.0,475,457,60,117.0,228,1,400,316,82,0,0,370,3082,486,362,,,,,,,,,,,,
899503,1560692171326,-0,2.26,2.37,3.15,2.23,5.07,0.64,-0.1,0.7,7,-0,13,0.65,6952,37,91,33,66,1250,366.0,475,456,60,118.0,228,1,399,316,82,0,0,379,230,257,366,,,,,,,,,,,,
899523,1560692171346,1,2.25,2.38,3.15,2.23,5.06,0.61,-0.16,0.71,6,1,11,0.63,6959,37,91,33,66,1235,369.0,476,452,60,119.0,228,1,400,316,82,0,0,376,-6656,3,368,,,,,,,,,,,,
899543,1560692171366,1,2.24,2.38,3.14,2.23,5.04,0.57,-0.0,0.62,5,3,11,0.57,7035,37,91,33,66,1187,370.0,476,460,60,117.0,228,1,403,318,82,0,0,378,486,8200,367,45.698799,4.90925,34.3,192.6,8,1.4767,0,0.0,1.1667,9,0.84,14.9924
899563,1560692171386,1,2.24,2.38,3.14,2.23,5.08,0.64,0.03,0.71,4,-1,9,0.64,7072,37,91,33,66,1140,373.0,481,454,60,118.0,229,1,405,315,85,0,0,379,-6656,-18948,372,,,,,,,,,,,,
899583,1560692171406,3,2.25,2.37,3.14,2.23,5.08,0.69,-0.06,0.76,3,-1,7,0.69,7126,37,91,33,65,1104,374.0,486,454,60,118.0,229,1,411,317,85,0,0,381,742,-992,372,,,,,,,,,,,,
899603,1560692171426,2,2.25,2.37,3.11,2.23,5.05,0.52,-0.04,0.67,3,1,6,0.52,7203,38,91,33,65,1073,377.0,489,456,60,117.0,229,1,415,319,85,0,0,382,-6656,19125,375,,,,,,,,,,,,
899623,1560692171446,1,2.25,2.36,3.12,2.22,5.04,0.54,0.05,0.61,3,-1,6,0.54,7228,38,91,33,65,1037,378.0,491,459,60,117.0,229,1,415,320,85,0,0,385,-992,240,376,,,,,,,,,,,,
899643,1560692171466,0,2.26,2.36,3.12,2.23,5.05,0.59,0.04,0.64,2,1,7,0.59,7270,38,91,33,65,999,381.0,496,451,60,118.0,229,1,418,315,85,0,0,389,-19126,-3866,379,45.698803,4.909239,35.29,192.6,8,1.4767,0,0.0,1.1683,9,0.84,14.994
899663,1560692171486,-1,2.26,2.37,3.14,2.24,5.04,0.65,0.09,0.66,1,-1,7,0.66,7355,38,91,33,64,985,384.0,502,456,60,118.0,230,1,424,317,88,0,0,394,-6475,-32702,382,,,,,,,,,,,,
899683,1560692171506,-1,2.26,2.36,3.14,2.23,5.06,0.65,0.17,0.75,1,-2,5,0.67,7387,38,91,33,64,979,387.0,503,459,60,118.0,230,1,426,318,88,0,0,394,-31744,1,386,,,,,,,,,,,,
899703,1560692171526,0,2.25,2.37,3.12,2.24,5.07,0.67,0.08,0.84,0,-2,2,0.68,7479,38,91,33,63,975,389.0,514,457,60,118.0,230,1,432,313,88,0,0,399,-1562,28696,386,,,,,,,,,,,,
899723,1560692171546,2,2.25,2.38,3.13,2.24,5.04,0.66,0.06,0.83,0,-1,2,0.66,7497,38,91,33,63,971,392.0,507,456,60,118.0,230,1,432,313,88,0,0,398,1,2524,389,,,,,,,,,,,,
899743,1560692171566,-0,2.25,2.38,3.13,2.24,5.04,0.68,0.01,0.89,-0,-2,2,0.68,7548,38,91,33,62,971,392.0,513,457,60,118.0,230,1,436,308,88,0,0,404,17144,6512,391,45.698811,4.909229,36.45,192.6,8,1.4767,0,0.0,1.17,9,0.84,14.9957
899763,1560692171586,0,2.26,2.39,3.11,2.25,5.05,0.75,0.02,0.95,-1,-3,1,0.75,7548,38,91,33,62,974,397.0,515,455,60,118.0,229,1,436,308,90,0,0,409,6384,-26615,395,,,,,,,,,,,,
899783,1560692171606,-0,2.26,2.39,3.11,2.25,5.04,0.75,-0.01,0.99,-1,-3,0,0.75,7606,38,91,33,62,968,397.0,513,458,60,118.0,229,1,438,309,90,0,0,401,6512,-26615,397,,,,,,,,,,,,
899803,1560692171626,1,2.27,2.39,3.13,2.25,5.07,0.73,0.03,0.94,-1,-2,0,0.74,7603,38,91,33,61,960,402.0,509,454,60,118.0,229,1,439,303,90,0,0,410,11545,11560,402,,,,,,,,,,,,
899823,1560692171646,1,2.28,2.38,3.14,2.25,5.06,0.75,0.1,0.92,-1,-3,-0,0.76,7671,38,91,33,61,951,404.0,517,457,60,117.0,229,1,441,303,90,0,0,413,1504,7154,404,,,,,,,,,,,,
899843,1560692171666,3,2.27,2.37,3.13,2.26,5.03,0.71,0.18,0.85,-1,-4,-1,0.73,7751,38,91,33,61,940,407.0,517,459,60,117.0,229,1,443,304,90,0,0,416,-26615,7154,406,45.698814,4.909218,37.3,192.6,8,1.4767,0,0.0,1.1717,9,0.84,14.9974
899863,1560692171686,3,2.28,2.38,3.13,2.26,5.03,0.75,0.15,0.8,-2,-5,-1,0.77,7786,36,91,33,60,924,409.0,526,461,60,118.0,214,1,436,298,87,0,0,416,-26615,-3414,409,,,,,,,,,,,,
899883,1560692171708,-1,2.28,2.37,3.14,2.26,5.06,0.73,0.06,0.72,-2,-3,-0,0.73,7868,35,91,33,58,903,411.0,534,456,60,117.0,214,1,422,287,87,0,0,420,9517,-21792,411,,,,,,,,,,,,
899903,1560692171728,1,2.27,2.38,3.14,2.26,5.04,0.7,-0.02,0.8,-1,-2,-1,0.7,7904,34,91,33,57,886,413.0,535,456,60,117.0,214,1,414,278,87,0,0,423,-9166,13552,412,,,,,,,,,,,,
899923,1560692171748,3,2.27,2.38,3.15,2.24,5.04,0.71,-0.01,0.81,-1,-2,-2,0.71,7924,33,91,33,55,876,415.0,535,461,60,117.0,214,1,398,272,87,0,0,425,-26615,3826,413,,,,,,,,,,,,
899943,1560692171768,3,2.28,2.38,3.16,2.26,5.03,0.75,0.06,0.76,-2,-2,-1,0.75,7961,31,91,33,53,865,417.0,539,455,60,118.0,214,1,387,260,87,0,0,427,-21944,-4082,417,45.698818,4.909206,38.79,192.6,8,1.4767,0,0.0,1.1733,9,0.84,14.9991
899963,1560692171788,1,2.28,2.39,3.17,2.26,5.04,0.77,0.02,0.76,-1,-3,-2,0.77,7941,27,91,33,50,853,420.0,542,453,60,118.0,181,1,378,248,76,0,0,428,-8165,-4082,418,,,,,,,,,,,,
899983,1560692171808,2,2.28,2.4,3.17,2.25,5.04,0.74,0.02,0.82,-1,-2,-2,0.74,7958,24,91,33,48,844,422.0,544,454,60,118.0,181,1,372,229,76,0,0,431,-3414,-3314,422,,,,,,,,,,,,
900003,1560692171828,3,2.29,2.39,3.17,2.24,5.03,0.81,0.07,0.76,-1,-3,-2,0.81,7931,21,91,32,45,843,424.0,547,459,60,117.0,181,1,355,219,76,0,0,430,3826,-3322,423,,,,,,,,,,,,
900023,1560692171848,5,2.31,2.38,3.2,2.23,5.04,0.77,0.03,0.69,-1,-2,-1,0.77,7874,19,91,32,42,841,427.0,545,452,60,118.0,181,1,332,214,76,0,0,430,-3856,243,427,,,,,,,,,,,,
900043,1560692171868,0,2.32,2.37,3.21,2.23,5.04,0.71,-0.04,0.72,-0,-2,-2,0.71,7835,18,91,32,39,836,426.0,541,456,60,118.0,181,1,310,210,76,0,0,430,13552,13180,426,45.698826,4.909194,40.16,192.7,8,1.4767,0,0.0,1.175,9,0.84,15.0007
900063,1560692171888,0,2.33,2.35,3.24,2.23,5.03,0.75,-0.05,0.68,0,-1,-1,0.75,7738,17,91,32,37,833,428.0,533,453,60,117.0,142,1,304,197,61,0,0,426,-4082,13552,427,,,,,,,,,,,,
900083,1560692171908,2,2.34,2.34,3.29,2.23,5.04,0.78,0.04,0.69,1,-3,0,0.78,7741,16,91,32,36,830,429.0,535,455,60,117.0,142,1,301,191,61,0,0,422,-3414,-3314,428,,,,,,,,,,,,
900103,1560692171928,2,2.35,2.33,3.35,2.24,5.07,0.77,0.03,0.68,1,-5,-0,0.77,7637,16,91,32,34,825,430.0,532,459,60,117.0,142,1,295,179,61,0,0,422,-3414,3635,430,,,,,,,,,,,,
900123,1560692171948,3,2.36,2.26,3.37,2.24,5.04,0.75,-0.02,0.57,2,-6,1,0.75,7560,16,91,32,33,813,432.0,533,459,60,117.0,142,1,292,174,61,0,0,422,-8165,-7939,432,,,,,,,,,,,,
900143,1560692171968,2,2.38,2.18,3.37,2.28,5.04,0.73,-0.08,0.47,3,-4,3,0.74,7476,16,91,32,32,801,432.0,531,458,60,117.0,142,1,290,169,61,0,0,419,18584,31796,432,45.69883,4.909183,40.78,192.7,8,1.4767,0,0.0,1.1767,9,0.84,15.0024
900163,1560692171988,4,2.38,1.97,3.34,2.23,5.06,0.67,-0.13,0.37,4,-2,6,0.68,7361,15,91,32,31,793,436.0,524,456,60,117.0,108,1,286,167,47,0,0,415,-21944,21580,436,,,,,,,,,,,,
900183,1560692172002,1,2.39,1.96,3.3,2.08,5.04,0.69,-0.1,0.38,6,-1,6,0.7,7312,15,91,32,31,784,439.0,515,457,60,117.0,108,1,286,167,47,0,0,418,-8165,5600,438,,,,,,,,,,,,
900203,1560692172022,-1,2.4,1.95,3.32,2.09,5.04,0.83,-0.19,0.51,6,-3,6,0.85,7250,15,91,32,31,774,435.0,513,455,60,117.0,108,1,286,166,47,0,0,416,-21944,-3314,435,,,,,,,,,,,,
900223,1560692172042,-1,2.41,1.95,3.39,2.13,5.07,0.95,-0.3,0.66,6,-5,7,0.99,7321,15,91,32,30,765,434.0,514,455,60,118.0,108,1,282,166,47,0,0,404,-26615,-3856,434,,,,,,,,,,,,
900243,1560692172062,-0,2.41,1.95,3.49,2.14,5.06,1.05,-0.38,0.79,6,-6,8,1.12,7446,15,91,32,30,764,430.0,522,459,60,118.0,108,1,282,166,47,0,0,393,9517,13040,431,45.698837,4.90917,41.77,192.6,8,1.4767,0,0.0,1.1783,9,0.84,15.0041
900263,1560692172082,-1,2.42,1.94,3.55,2.13,5.08,1.11,-0.42,0.85,6,-6,9,1.19,7597,14,91,32,29,764,427.0,531,457,60,118.0,110,1,279,164,47,0,0,395,2524,10392,427,,,,,,,,,,,,
900283,1560692172107,-1,2.42,1.95,3.6,2.13,5.04,1.2,-0.48,0.88,6,-8,11,1.3,7706,14,91,32,29,769,426.0,530,459,60,118.0,110,1,280,164,47,0,0,391,-8151,-21944,426,,,,,,,,,,,,
900303,1560692172127,1,2.42,2.0,3.59,2.13,5.08,1.23,-0.5,0.84,6,-8,12,1.33,7659,14,91,32,28,774,422.0,535,457,60,117.0,110,1,276,163,47,0,0,390,10541,18584,422,,,,,,,,,,,,
900323,1560692172147,3,2.43,2.04,3.37,2.13,5.04,1.27,-0.47,0.8,8,-10,12,1.36,7634,14,91,32,28,780,419.0,536,458,60,117.0,110,1,276,163,47,0,0,402,6512,9517,417,,,,,,,,,,,,
900343,1560692172167,3,2.44,2.02,3.37,2.13,5.06,1.24,-0.38,0.72,9,-11,12,1.29,7621,14,91,32,28,785,417.0,530,456,60,117.0,110,1,276,163,47,0,0,394,6384,-21944,417,45.698841,4.909158,40.99,192.6,8,1.4767,0,0.0,1.18,9,0.85,15.0057
900363,1560692172187,4,2.44,2.02,3.44,2.17,5.08,1.19,-0.4,0.63,10,-10,13,1.25,7536,14,91,32,27,793,419.0,528,456,60,117.0,110,1,272,161,46,0,0,389,1,-26615,419,,,,,,,,,,,,
900383,1560692172207,2,2.44,2.02,3.51,2.2,5.04,1.04,-0.39,0.53,12,-9,15,1.11,7479,14,91,32,27,801,416.0,521,458,60,117.0,110,1,271,161,46,0,0,390,-6656,10392,416,,,,,,,,,,,,
900403,1560692172227,1,2.45,1.99,3.55,2.19,5.07,0.9,-0.36,0.43,13,-8,16,0.97,7381,14,91,32,27,805,416.0,523,455,60,117.0,110,1,270,161,46,0,0,386,1,13040,416,,,,,,,,,,,,
900423,1560692172247,0,2.45,1.99,3.58,2.19,5.07,0.88,-0.31,0.38,14,-8,18,0.94,7341,14,91,32,27,807,417.0,517,458,60,118.0,110,1,270,161,46,0,0,386,505,-4059,417,,,,,,,,,,,,
900443,1560692172267,-1,2.45,1.98,3.6,2.19,5.07,1.0,-0.33,0.51,13,-9,18,1.05,7318,14,91,32,27,814,416.0,511,459,60,117.0,110,1,270,161,46,0,0,379,-6524,-26615,416,45.698849,4.909146,40.61,192.6,8,1.4767,0,0.0,1.1817,9,0.85,15.0074
900463,1560692172287,-0,2.44,1.99,3.62,2.21,5.07,1.06,-0.39,0.59,13,-9,19,1.13,7275,14,91,32,27,820,416.0,516,456,60,118.0,108,1,270,161,45,0,0,375,-31744,10541,416,,,,,,,,,,,,
900483,1560692172307,4,2.46,1.98,3.58,2.21,5.08,1.16,-0.46,0.7,13,-10,19,1.25,7273,14,91,32,28,825,413.0,515,460,60,118.0,108,1,274,163,45,0,0,381,240,10541,413,,,,,,,,,,,,
900503,1560692172327,4,2.46,1.98,3.55,2.23,5.08,1.17,-0.55,0.7,14,-9,20,1.3,7273,14,91,32,27,829,413.0,523,460,60,119.0,108,1,270,163,45,0,0,377,-19019,6384,413,,,,,,,,,,,,
900523,1560692172347,3,2.47,1.97,3.56,2.25,5.08,0.94,-0.59,0.56,17,-5,21,1.11,7290,14,91,32,28,834,412.0,517,457,60,118.0,108,1,274,163,45,0,0,375,19125,11545,412,,,,,,,,,,,,
900543,1560692172367,1,2.47,1.97,3.54,2.28,5.04,0.78,-0.57,0.42,18,-3,22,0.97,7270,14,91,32,28,838,410.0,519,458,60,117.0,108,1,274,163,45,0,0,378,-18948,28696,410,45.698856,4.909134,40.01,192.6,8,1.4767,0,0.0,1.1833,9,0.85,15.0091
900563,1560692172387,1,2.47,1.95,3.52,2.27,5.04,0.74,-0.5,0.35,19,-2,24,0.89,7256,14,91,32,28,840,408.0,511,459,60,117.0,107,1,274,163,44,0,0,376,2278,6512,408,,,,,,,,,,,,
900583,1560692172409,1,2.46,1.92,3.52,2.25,5.03,0.87,-0.5,0.45,19,-4,25,1.0,7242,14,91,32,28,840,406.0,506,456,60,117.0,107,1,274,163,44,0,0,373,3,1504,406,,,,,,,,,,,,
900603,1560692172429,4,2.46,1.92,3.53,2.25,5.08,0.98,-0.58,0.58,17,-6,26,1.14,7189,14,91,32,28,841,404.0,506,457,60,118.0,107,1,273,163,44,0,0,372,770,11545,404,,,,,,,,,,,,
900623,1560692172449,3,2.45,1.93,3.54,2.24,5.04,0.93,-0.63,0.58,18,-6,25,1.12,7189,14,91,32,28,842,402.0,503,456,60,118.0,107,1,273,163,44,0,0,368,-6656,-3968,402,,,,,,,,,,,,
900643,1560692172469,1,2.44,1.95,3.55,2.23,5.04,0.76,-0.57,0.4,19,-3,26,0.94,7142,14,91,32,29,844,400.0,500,461,60,117.0,107,1,277,164,44,0,0,368,1,-3968,400,45.69886,4.909124,38.64,192.6,8,1.4767,0,0.0,1.185,9,0.85,15.0107
900663,1560692172489,0,2.43,1.84,3.54,2.18,5.06,0.67,-0.51,0.34,19,-1,26,0.85,7107,14,91,32,29,846,398.0,496,461,60,117.0,110,1,277,164,44,0,0,368,-6656,505,398,,,,,,,,,,,,
900683,1560692172507,-1,2.42,1.76,3.53,2.2,5.05,0.81,-0.57,0.5,17,-3,28,0.99,7102,14,91,32,29,847,400.0,495,455,60,118.0,110,1,277,164,44,0,0,369,-6656,1,399,,,,,,,,,,,,
900703,1560692172527,2,2.41,1.77,3.41,2.13,5.07,0.92,-0.58,0.57,16,-2,28,1.09,7040,14,91,32,29,850,402.0,499,458,60,118.0,110,1,277,164,44,0,0,372,257,-1562,400,,,,,,,,,,,,
900723,1560692172547,1,2.38,1.84,3.34,2.09,5.04,0.75,-0.49,0.4,18,2,27,0.9,7056,14,91,32,29,852,398.0,496,456,60,117.0,110,1,277,164,44,0,0,371,770,-1562,396,,,,,,,,,,,,
900743,1560692172567,-1,2.38,1.98,3.33,2.18,5.03,0.88,-0.53,0.56,18,0,26,1.03,7048,14,91,32,30,853,392.0,497,458,60,118.0,110,1,281,164,44,0,0,370,486,-19019,390,45.698868,4.909114,38.28,192.6,8,1.4767,0,0.0,1.1867,9,0.85,15.0124
900763,1560692172587,3,2.35,2.04,3.36,2.25,5.06,0.99,-0.58,0.63,17,-1,24,1.15,7025,14,91,32,29,855,387.0,506,458,60,117.0,110,1,277,164,43,0,0,363,230,-992,387,,,,,,,,,,,,
900783,1560692172609,1,2.32,2.04,3.4,2.26,5.04,0.82,-0.53,0.45,16,1,24,0.97,7040,14,91,32,30,860,383.0,501,460,60,117.0,110,1,281,166,43,0,0,365,-1268,-992,383,,,,,,,,,,,,
900803,1560692172629,-2,2.3,2.07,3.38,2.25,5.05,0.8,-0.47,0.43,15,1,25,0.93,6996,14,91,32,30,864,382.0,495,456,60,119.0,110,1,281,164,43,0,0,368,0,-6656,382,,,,,,,,,,,,
900823,1560692172649,3,2.25,2.14,3.37,2.22,5.04,0.93,-0.51,0.58,11,-2,24,1.06,6923,14,91,32,30,867,380.0,502,455,60,119.0,110,1,281,166,43,0,0,369,0,3,379,,,,,,,,,,,,
900843,1560692172669,0,2.23,2.24,3.34,2.11,5.03,0.72,-0.39,0.4,10,2,23,0.82,6906,14,91,32,30,871,375.0,490,457,60,117.0,110,1,281,166,43,0,0,367,257,257,375,45.698875,4.909106,36.75,192.5,8,1.4767,0,0.0,1.1883,9,0.85,15.014
900863,1560692172689,4,2.2,2.33,3.2,2.05,5.04,0.85,-0.37,0.56,8,-2,20,0.93,6860,14,91,32,30,876,373.0,487,453,60,118.0,116,1,282,166,43,0,0,371,-6656,-6405,368,,,,,,,,,,,,
900883,1560692172709,-0,2.18,2.32,3.12,1.98,5.06,0.85,-0.23,0.49,7,-3,17,0.88,6800,14,91,32,31,881,374.0,489,465,60,117.0,116,1,286,167,43,0,0,370,-6656,3082,363,,,,,,,,,,,,
900903,1560692172729,6,2.15,2.32,3.24,1.96,5.04,0.76,-0.15,0.41,5,-1,14,0.78,6778,14,91,32,31,883,373.0,485,459,60,118.0,116,1,286,167,43,0,0,372,-6656,-29978,361,,,,,,,,,,,,
900923,1560692172749,-0,2.13,2.33,3.34,1.93,5.05,0.85,-0.11,0.41,4,-5,10,0.86,6747,14,91,32,31,885,374.0,481,459,60,118.0,116,1,286,167,43,0,0,367,742,-6640,358,,,,,,,,,,,,
900943,1560692172769,3,2.11,2.38,3.39,1.94,5.04,0.79,0.01,0.4,1,-6,7,0.79,6732,14,91,32,31,887,377.0,479,455,60,119.0,116,1,286,167,43,0,0,366,-6656,2060,358,45.698883,4.909098,36.46,192.6,8,1.4767,0,0.0,1.19,9,0.85,15.0157
900963,1560692172789,1,2.08,2.42,3.4,1.94,5.04,0.85,0.02,0.35,-1,-6,3,0.85,6682,14,91,32,32,889,378.0,482,460,60,117.0,121,1,290,169,43,0,0,367,2278,28553,355,,,,,,,,,,,,
900983,1560692172809,5,2.05,2.5,3.33,1.94,5.06,0.85,0.13,0.41,-4,-5,-1,0.86,6663,14,91,32,32,888,378.0,479,455,60,118.0,121,1,290,169,43,0,0,370,2278,8841,353,,,,,,,,,,,,
901003,1560692172829,0,2.02,2.54,3.23,1.93,5.04,0.83,0.08,0.47,-5,-4,-3,0.84,6691,14,91,32,32,889,378.0,480,456,60,117.0,121,1,290,169,43,0,0,370,2278,-31206,348,,,,,,,,,,,,
901023,1560692172849,3,2.0,2.55,3.21,1.93,5.08,0.84,0.1,0.47,-7,-2,-6,0.85,6689,14,91,32,33,890,379.0,482,454,60,119.0,121,1,292,169,43,0,0,370,8200,-122,347,,,,,,,,,,,,
901043,1560692172869,-1,1.99,2.54,3.15,1.91,5.07,0.92,0.17,0.45,-9,-2,-7,0.93,6641,15,91,32,33,892,378.0,482,459,60,117.0,121,1,292,174,43,0,0,374,2278,-122,344,45.698891,4.90909,36.59,192.6,8,1.4767,0,0.0,1.1917,9,0.85,15.0174
901063,1560692172889,2,1.98,2.52,3.08,1.87,5.04,0.95,0.25,0.49,-11,-2,-9,0.98,6632,15,91,32,33,894,378.0,481,453,60,118.0,125,1,292,174,43,0,0,374,2278,2560,342,,,,,,,,,,,,
901083,1560692172909,-0,1.99,2.5,3.02,1.82,5.04,0.96,0.43,0.42,-13,1,-13,1.05,6616,15,91,32,33,895,379.0,477,462,60,117.0,125,1,292,174,43,0,0,374,8200,13,340,,,,,,,,,,,,
901103,1560692172929,-1,2.0,2.49,3.03,1.79,5.05,0.98,0.37,0.55,-14,-0,-16,1.05,6609,15,91,32,34,898,379.0,478,463,60,117.0,125,1,295,179,43,0,0,375,8200,-12032,338,,,,,,,,,,,,
901123,1560692172949,3,2.0,2.47,3.02,1.81,5.08,0.94,0.44,0.51,-17,-0,-21,1.04,6588,15,91,32,34,899,378.0,480,456,60,118.0,125,1,295,179,43,0,0,373,2278,-12032,338,,,,,,,,,,,,
901143,1560692172969,-2,2.0,2.47,3.01,1.81,5.05,0.97,0.46,0.5,-18,0,-23,1.07,6549,15,91,32,34,899,377.0,482,461,60,117.0,125,1,295,179,43,0,0,375,770,170,336,45.698898,4.909081,35.01,192.5,8,1.4767,0,0.0,1.1933,9,0.85,15.019
901163,1560692172989,2,1.99,2.46,3.01,1.8,5.05,1.03,0.44,0.57,-19,0,-25,1.12,6528,15,91,32,34,899,375.0,477,456,60,118.0,130,1,295,179,44,0,0,373,770,-22016,336,,,,,,,,,,,,
901183,1560692173003,3,1.99,2.44,3.01,1.8,5.04,1.02,0.56,0.51,-21,3,-26,1.16,6512,15,91,32,34,898,375.0,469,455,60,118.0,130,1,295,179,44,0,0,364,770,165,336,,,,,,,,,,,,
901203,1560692173023,-2,2.0,2.42,3.01,1.8,5.04,1.02,0.47,0.49,-22,6,-25,1.12,6483,15,91,32,35,899,376.0,467,458,60,117.0,130,1,298,185,44,0,0,367,3,-23296,335,,,,,,,,,,,,
901223,1560692173043,2,1.99,2.42,3.01,1.81,5.08,0.95,0.48,0.52,-22,6,-24,1.06,6487,15,91,32,35,897,374.0,468,458,60,118.0,130,1,298,185,44,0,0,370,742,170,334,,,,,,,,,,,,
901243,1560692173063,4,1.99,2.41,3.01,1.85,5.08,0.94,0.63,0.5,-23,7,-24,1.14,6463,15,91,32,35,897,372.0,465,455,60,118.0,130,1,298,185,44,0,0,365,1,-22016,333,45.698902,4.909073,34.37,192.5,8,1.4767,0,0.0,1.195,9,0.85,15.0207
901263,1560692173083,0,1.99,2.42,3.01,1.88,5.04,0.93,0.63,0.48,-24,7,-24,1.13,6463,15,91,32,36,898,366.0,467,459,60,117.0,135,1,301,190,45,0,0,364,230,-23296,331,,,,,,,,,,,,
901283,1560692173108,2,2.0,2.41,3.0,1.85,5.07,0.99,0.58,0.53,-24,6,-26,1.15,6456,15,91,32,36,898,367.0,471,454,60,118.0,135,1,301,190,45,0,0,363,0,155,331,,,,,,,,,,,,
901303,1560692173128,3,2.01,2.4,2.99,1.82,5.07,0.93,0.68,0.52,-25,6,-29,1.15,6443,15,91,32,36,899,367.0,468,447,60,118.0,135,1,301,190,45,0,0,366,0,160,330,,,,,,,,,,,,
901323,1560692173148,0,2.02,2.39,2.99,1.8,5.05,0.89,0.76,0.44,-25,8,-30,1.17,6427,15,91,32,36,900,367.0,463,462,60,118.0,135,1,301,190,45,0,0,360,0,-25856,329,,,,,,,,,,,,
901343,1560692173168,1,2.02,2.38,2.99,1.8,5.08,0.97,0.64,0.5,-25,7,-31,1.16,6434,15,91,32,37,902,366.0,461,462,60,117.0,135,1,304,196,45,0,0,361,230,160,329,45.69891,4.909064,33.48,192.5,8,1.4767,0,0.0,1.1967,9,0.86,15.0224
901363,1560692173188,3,2.02,2.38,2.99,1.79,5.08,0.94,0.64,0.55,-25,3,-31,1.14,6410,15,91,32,37,903,365.0,461,453,60,119.0,142,1,304,196,47,0,0,360,-6405,160,327,,,,,,,,,,,,
901383,1560692173206,4,2.03,2.39,2.99,1.8,5.07,0.87,0.73,0.48,-25,2,-31,1.14,6405,16,91,32,38,903,362.0,465,453,60,118.0,142,1,307,196,47,0,0,361,2790,150,326,,,,,,,,,,,,
901403,1560692173226,0,2.03,2.39,3.05,1.81,5.07,0.85,0.67,0.38,-25,4,-32,1.08,6362,16,91,32,38,904,360.0,467,457,60,117.0,142,1,307,202,47,0,0,355,-6458,-23296,327,,,,,,,,,,,,
901423,1560692173246,0,2.04,2.4,3.15,1.81,5.04,0.89,0.58,0.41,-25,4,-32,1.07,6336,17,91,32,39,904,360.0,466,460,60,117.0,142,1,310,208,47,0,0,355,-14707,-24576,325,,,,,,,,,,,,
901443,1560692173266,3,2.06,2.41,3.17,1.8,5.08,0.89,0.58,0.45,-25,4,-33,1.06,6351,18,91,32,39,903,361.0,459,455,60,119.0,142,1,310,208,47,0,0,356,-6458,150,324,45.698917,4.909054,32.61,192.5,8,1.4767,0,0.0,1.1983,9,0.86,15.024
901463,1560692173286,4,2.09,2.43,3.16,1.81,5.04,0.85,0.64,0.5,-25,5,-34,1.06,6340,18,91,32,40,902,360.0,457,454,60,118.0,153,1,316,209,50,0,0,357,-14707,160,323,,,,,,,,,,,,
901483,1560692173308,0,2.11,2.41,3.14,1.79,5.07,0.82,0.64,0.46,-24,6,-33,1.04,6347,18,91,32,41,903,358.0,455,453,60,117.0,153,1,323,210,50,0,0,353,-6640,160,324,,,,,,,,,,,,
901503,1560692173328,3,2.13,2.4,3.11,1.79,5.04,0.87,0.51,0.5,-23,7,-32,1.01,6390,18,91,32,41,903,356.0,449,457,60,118.0,153,1,323,210,50,0,0,353,4104,-24576,327,,,,,,,,,,,,
901523,1560692173348,1,2.15,2.39,3.1,1.78,5.05,0.87,0.48,0.58,-23,5,-31,1.0,6394,19,91,32,42,900,353.0,453,456,60,118.0,153,1,329,212,50,0,0,353,-6644,-22016,327,,,,,,,,,,,,
901543,1560692173368,3,2.19,2.36,3.11,1.81,5.07,0.8,0.63,0.52,-21,5,-30,1.02,6423,19,91,32,42,898,351.0,452,455,60,118.0,153,1,330,212,50,0,0,349,28553,-22016,327,45.698917,4.909044,32.31,192.6,8,1.4767,0,0.0,1.2,9,0.86,15.0257
901563,1560692173388,-1,2.21,2.34,3.15,1.84,5.07,0.84,0.53,0.51,-20,6,-29,1.0,6445,21,91,32,43,898,349.0,451,459,60,117.0,157,1,337,214,52,0,0,344,8841,13,329,,,,,,,,,,,,
901583,1560692173408,1,2.24,2.32,3.2,1.89,5.07,0.87,0.48,0.56,-19,4,-27,0.99,6478,22,91,32,44,897,345.0,456,448,60,118.0,157,1,343,215,52,0,0,344,6870,-12032,330,,,,,,,,,,,,
901603,1560692173428,2,2.27,2.31,3.21,1.95,5.06,0.76,0.46,0.59,-17,6,-26,0.89,6496,23,91,32,45,894,344.0,456,453,60,118.0,157,1,350,217,52,0,0,343,-10554,4838,332,,,,,,,,,,,,
901623,1560692173448,-2,2.3,2.29,3.2,2.01,5.05,0.75,0.44,0.56,-15,9,-24,0.87,6560,24,91,32,47,893,341.0,458,461,60,117.0,157,1,365,218,52,0,0,340,6668,-32559,334,,,,,,,,,,,,
901643,1560692173468,2,2.32,2.27,3.2,2.08,5.05,0.83,0.3,0.69,-14,6,-22,0.88,6535,24,91,32,47,893,337.0,468,457,60,118.0,157,1,365,220,52,0,0,342,2560,2560,335,45.698921,4.909034,32.02,192.6,8,1.4767,0,0.0,1.2017,9,0.86,15.0274
901663,1560692173488,5,2.35,2.24,3.2,2.11,5.04,0.77,0.26,0.67,-11,4,-19,0.81,6588,24,91,32,48,896,337.0,468,452,60,118.0,166,1,368,225,56,0,0,334,4838,-31206,337,,,,,,,,,,,,
901683,1560692173508,-2,2.39,2.2,3.19,2.15,5.06,0.84,0.15,0.67,-9,4,-17,0.85,6565,25,91,32,49,900,340.0,469,458,60,117.0,166,1,371,230,56,0,0,331,-32559,2560,340,,,,,,,,,,,,
901703,1560692173528,3,2.41,2.17,3.21,2.19,5.05,0.82,0.06,0.7,-7,4,-16,0.82,6572,25,91,32,50,903,341.0,471,454,60,118.0,166,1,374,236,56,0,0,329,-20736,-6528,341,,,,,,,,,,,,
901723,1560692173548,-1,2.43,2.14,3.24,2.21,5.06,0.8,0.05,0.65,-4,4,-14,0.8,6595,26,91,32,51,909,341.0,466,453,60,118.0,166,1,377,241,56,0,0,329,165,3327,341,,,,,,,,,,,,
901743,1560692173568,2,2.46,2.11,3.28,2.26,5.03,0.82,-0.1,0.71,-3,2,-11,0.83,6651,27,91,32,52,920,343.0,472,454,60,118.0,166,1,381,247,56,0,0,324,-24576,-10554,342,45.698925,4.909023,31.64,192.6,8,1.4767,0,0.0,1.2033,9,0.86,15.029
901763,1560692173588,5,2.47,2.1,3.32,2.33,5.04,0.77,-0.11,0.67,-0,2,-8,0.78,6630,27,91,32,53,942,344.0,469,458,60,118.0,180,1,384,247,62,0,0,331,-24576,-30438,344,,,,,,,,,,,,
901783,1560692173608,-1,2.51,2.11,3.35,2.39,5.05,0.88,-0.23,0.66,0,1,-4,0.91,6461,28,91,32,54,964,347.0,468,461,60,117.0,180,1,386,258,62,0,0,335,155,28553,347,,,,,,,,,,,,
901803,1560692173628,2,2.52,2.12,3.35,2.43,5.06,0.86,-0.28,0.67,2,1,1,0.91,6366,28,91,32,54,981,349.0,453,447,60,118.0,180,1,386,259,62,0,0,338,155,28553,349,,,,,,,,,,,,
901823,1560692173648,3,2.55,2.14,3.36,2.47,5.03,0.75,-0.37,0.67,4,1,5,0.84,6270,29,91,32,56,1003,349.0,444,450,60,119.0,180,1,387,258,62,0,0,340,-25856,-1246,349,,,,,,,,,,,,
901843,1560692173668,4,2.58,2.14,3.37,2.48,5.03,0.68,-0.37,0.62,6,3,8,0.77,6212,29,91,32,57,1043,350.0,432,458,60,118.0,180,1,387,258,62,0,0,332,155,-30438,350,45.698933,4.909012,32.25,192.7,8,1.4767,0,0.0,1.205,9,0.86,15.0307
901863,1560692173688,1,2.58,2.13,3.4,2.46,5.04,0.68,-0.32,0.57,8,6,11,0.75,6216,29,91,32,58,1081,352.0,430,463,60,117.0,171,1,387,258,60,0,0,327,155,-30454,352,,,,,,,,,,,,
901883,1560692173708,0,2.58,2.1,3.47,2.44,5.06,0.77,-0.36,0.51,10,7,15,0.85,6243,29,91,32,58,1104,354.0,430,462,60,117.0,171,1,388,258,60,0,0,326,150,2811,356,,,,,,,,,,,,
901903,1560692173728,1,2.59,2.07,3.51,2.44,5.05,0.87,-0.47,0.54,11,4,18,0.99,6289,30,91,32,59,1127,357.0,431,459,60,117.0,171,1,390,260,60,0,0,323,-27136,2811,357,,,,,,,,,,,,
901923,1560692173748,0,2.58,2.07,3.54,2.42,5.07,0.85,-0.55,0.63,13,0,21,1.01,6340,32,92,32,60,1156,357.0,436,453,60,119.0,171,1,393,264,60,0,0,321,-28416,3302,357,,,,,,,,,,,,
901943,1560692173768,2,2.59,2.07,3.59,2.42,5.06,0.71,-0.52,0.59,16,-1,22,0.89,6360,34,92,32,61,1185,358.0,438,450,60,118.0,171,1,396,266,60,0,0,320,-28416,-14707,358,45.698936,4.909002,32.92,192.8,8,1.4767,0,0.0,1.2067,9,0.86,15.0324
901963,1560692173788,1,2.58,2.07,3.64,2.4,5.05,0.67,-0.5,0.54,17,-1,22,0.84,6362,35,92,32,63,1193,358.0,438,455,60,117.0,181,1,389,279,65,0,0,327,140,-6640,358,,,,,,,,,,,,
901983,1560692173808,-1,2.59,2.08,3.63,2.4,5.05,0.72,-0.53,0.47,18,-2,22,0.89,6315,35,92,32,64,1200,359.0,445,460,60,117.0,181,1,383,283,65,0,0,322,-28416,2060,359,,,,,,,,,,,,
902003,1560692173828,-0,2.6,2.09,3.61,2.43,5.04,0.81,-0.57,0.56,18,-5,21,0.98,6330,36,91,32,65,1212,358.0,448,463,60,118.0,181,1,381,291,65,0,0,322,140,-6644,358,,,,,,,,,,,,
902023,1560692173848,2,2.6,2.1,3.61,2.45,5.04,0.77,-0.59,0.63,19,-7,20,0.97,6364,36,91,32,65,1223,358.0,444,459,60,118.0,181,1,382,293,65,0,0,323,-29696,28553,358,,,,,,,,,,,,
902043,1560692173868,4,2.61,2.09,3.59,2.43,5.07,0.72,-0.6,0.6,21,-7,19,0.94,6371,36,91,32,66,1230,357.0,443,455,60,118.0,181,1,378,300,65,0,0,321,140,3183,357,45.698936,4.908992,33.38,192.9,8,1.4767,0,0.0,1.2083,9,0.86,15.034
902063,1560692173888,-1,2.61,2.07,3.58,2.43,5.08,0.73,-0.67,0.52,22,-7,20,0.99,6366,36,91,32,67,1237,357.0,441,456,60,117.0,197,1,374,305,71,0,0,326,145,-30454,357,,,,,,,,,,,,
902083,1560692173908,1,2.6,2.07,3.56,2.44,5.04,0.8,-0.74,0.56,22,-9,23,1.09,6355,36,91,32,67,1257,360.0,441,452,60,118.0,197,1,374,306,71,0,0,324,140,2060,360,,,,,,,,,,,,
902103,1560692173928,4,2.61,2.07,3.54,2.44,5.04,0.77,-0.82,0.63,23,-10,24,1.12,6294,36,91,32,67,1277,360.0,440,456,60,118.0,197,1,371,304,71,0,0,323,135,-29978,360,,,,,,,,,,,,
902123,1560692173948,3,2.61,2.06,3.53,2.42,5.08,0.78,-0.82,0.64,24,-8,25,1.13,6298,36,91,32,68,1295,358.0,436,457,60,119.0,197,1,368,312,71,0,0,319,-29696,3302,358,,,,,,,,,,,,
902143,1560692173968,-1,2.6,2.05,3.53,2.42,5.07,0.8,-0.81,0.56,25,-6,28,1.13,6279,36,91,32,68,1314,357.0,433,457,60,118.0,197,1,367,312,71,0,0,319,-28416,4104,357,45.698944,4.908982,32.91,192.9,8,1.4767,0,0.0,1.21,9,0.86,15.0357
902163,1560692173988,-1,2.6,2.03,3.53,2.41,5.07,0.87,-0.84,0.51,26,-4,32,1.21,6287,37,91,32,68,1338,360.0,431,455,60,117.0,206,1,367,312,74,0,0,321,-28416,3302,360,,,,,,,,,,,,
902183,1560692174002,0,2.58,2.03,3.56,2.4,5.08,0.97,-0.89,0.5,25,-4,36,1.31,6283,37,92,32,69,1363,360.0,433,458,60,117.0,206,1,366,327,74,0,0,322,145,-6640,360,,,,,,,,,,,,
902203,1560692174022,1,2.59,2.03,3.58,2.4,5.08,0.94,-0.91,0.58,26,-4,39,1.31,6300,37,92,32,69,1376,361.0,431,451,60,118.0,206,1,367,328,74,0,0,321,140,2060,361,,,,,,,,,,,,
902223,1560692174042,5,2.6,2.03,3.58,2.38,5.08,0.83,-0.92,0.59,27,-2,40,1.24,6311,37,92,32,69,1385,362.0,434,457,60,118.0,206,1,367,328,74,0,0,319,-28416,4104,359,,,,,,,,,,,,
902243,1560692174062,2,2.59,2.03,3.58,2.37,5.05,0.77,-0.83,0.49,28,2,41,1.13,6379,38,92,32,69,1401,360.0,435,458,60,118.0,206,1,369,329,74,0,0,321,-28416,28553,360,45.698948,4.908973,33.25,192.9,8,1.4767,0,0.0,1.2117,9,0.86,15.0374
902263,1560692174082,-1,2.6,2.03,3.6,2.37,5.06,0.9,-0.86,0.5,29,0,43,1.24,6503,38,92,32,70,1417,361.0,440,466,60,117.0,230,1,373,347,83,0,0,327,-27136,-6640,361,,,,,,,,,,,,
902283,1560692174109,3,2.59,2.03,3.6,2.39,5.04,0.79,-0.86,0.57,29,-1,43,1.17,6592,38,92,32,70,1427,363.0,447,456,60,118.0,230,1,376,349,83,0,0,336,145,-1268,363,,,,,,,,,,,,
902303,1560692174129,0,2.59,2.05,3.53,2.45,5.04,0.76,-0.8,0.53,28,-1,42,1.1,6616,38,92,32,69,1436,361.0,447,453,60,117.0,230,1,377,334,83,0,0,330,-28416,2060,360,,,,,,,,,,,,
902323,1560692174149,3,2.59,2.09,3.51,2.46,5.07,0.87,-0.83,0.6,27,-4,41,1.2,6653,38,92,32,69,1442,360.0,451,457,60,117.0,230,1,379,335,83,0,0,345,145,2060,360,,,,,,,,,,,,
902343,1560692174169,1,2.6,2.1,3.5,2.45,5.04,0.77,-0.73,0.57,28,-3,38,1.06,6641,38,92,32,69,1448,361.0,453,458,60,119.0,230,1,378,334,83,0,0,343,-27136,4104,361,45.698956,4.908965,32.71,192.9,8,1.4767,0,0.0,1.2133,9,0.86,15.0391
902363,1560692174189,3,2.58,2.11,3.49,2.44,5.07,0.77,-0.76,0.59,28,-5,36,1.09,6674,39,92,32,69,1450,362.0,454,455,60,117.0,233,1,379,350,84,0,0,356,-24576,-14707,362,,,,,,,,,,,,
902383,1560692174209,5,2.58,2.1,3.48,2.45,5.03,0.72,-0.69,0.61,28,-6,34,1.0,6689,39,92,32,69,1446,363.0,457,462,60,118.0,233,1,380,335,84,0,0,374,-23296,-29978,363,,,,,,,,,,,,
902403,1560692174229,0,2.58,2.1,3.45,2.44,5.05,0.81,-0.77,0.66,28,-7,33,1.12,6805,39,92,32,69,1420,364.0,465,453,60,118.0,233,1,384,353,84,0,0,350,165,-6458,362,,,,,,,,,,,,
902423,1560692174249,0,2.55,2.1,3.44,2.43,5.04,0.69,-0.78,0.55,28,-3,34,1.04,6870,39,92,32,69,1376,365.0,464,453,60,118.0,233,1,386,339,84,0,0,353,-20736,-14707,365,,,,,,,,,,,,
902443,1560692174269,4,2.54,2.1,3.42,2.42,5.07,0.82,-0.82,0.62,27,-5,36,1.16,6898,39,92,32,69,1332,366.0,473,459,60,117.0,233,1,387,339,84,0,0,366,-12032,0,366,45.698959,4.908958,32.89,192.9,8,1.4767,0,0.0,1.215,9,0.87,15.0407
902463,1560692174289,1,2.54,2.1,3.44,2.42,5.06,0.7,-0.75,0.46,28,-3,39,1.03,6926,39,92,32,69,1292,368.0,470,455,60,118.0,230,1,388,340,85,0,0,393,-6528,-6656,368,,,,,,,,,,,,
902483,1560692174309,-0,2.53,2.1,3.51,2.41,5.03,0.8,-0.74,0.55,26,-5,40,1.09,7017,39,92,32,68,1241,370.0,476,458,60,119.0,230,1,392,327,85,0,0,403,3346,486,370,,,,,,,,,,,,
902503,1560692174329,4,2.52,2.13,3.5,2.4,5.06,0.79,-0.74,0.67,26,-2,40,1.08,7231,39,92,32,68,1180,372.0,484,454,60,117.0,230,1,405,336,85,0,0,372,-31222,770,372,,,,,,,,,,,,
902523,1560692174349,3,2.51,2.14,3.46,2.4,5.05,0.68,-0.74,0.71,27,-0,39,1.01,7244,40,92,32,68,1133,376.0,489,459,60,117.0,230,1,406,336,85,0,0,356,-122,8200,376,,,,,,,,,,,,
902543,1560692174369,2,2.51,2.15,3.46,2.41,5.07,0.62,-0.67,0.62,27,0,38,0.92,7231,40,92,32,67,1113,380.0,488,458,60,117.0,230,1,409,330,85,0,0,391,-10554,-19019,380,45.698967,4.90895,33.13,192.8,8,1.4767,0,0.0,1.2167,9,0.87,15.0424
902563,1560692174389,-1,2.51,2.18,3.43,2.45,5.05,0.54,-0.63,0.62,26,-0,37,0.82,7205,40,92,32,67,1082,380.0,491,453,60,117.0,237,1,406,329,90,0,0,396,6870,-6475,381,,,,,,,,,,,,
902583,1560692174409,-1,2.5,2.2,3.38,2.46,5.07,0.65,-0.58,0.73,25,-2,35,0.87,7170,40,92,32,67,1037,381.0,493,457,60,118.0,237,1,405,328,90,0,0,381,-1246,-19019,383,,,,,,,,,,,,
902603,1560692174429,4,2.48,2.2,3.38,2.44,5.06,0.76,-0.67,0.85,24,-2,33,1.02,7186,40,92,32,67,998,383.0,489,451,60,118.0,237,1,406,328,90,0,0,375,3302,1,383,,,,,,,,,,,,
902623,1560692174449,3,2.47,2.2,3.35,2.44,5.07,0.7,-0.7,0.82,24,-1,33,0.99,7115,40,92,32,67,973,386.0,486,461,60,117.0,237,1,402,326,90,0,0,382,-29302,240,386,,,,,,,,,,,,
902643,1560692174469,-1,2.45,2.2,3.35,2.43,5.07,0.54,-0.65,0.66,24,2,32,0.85,7104,40,92,32,68,948,389.0,480,452,60,118.0,237,1,398,326,90,0,0,388,-6458,-19019,389,45.698975,4.908944,33.71,192.8,8,1.4767,0,0.0,1.2183,9,0.87,15.0441
902663,1560692174489,-1,2.44,2.19,3.35,2.41,5.07,0.66,-0.57,0.71,23,-1,32,0.88,7186,40,92,32,68,920,390.0,489,452,60,118.0,228,1,402,334,89,0,0,384,-1268,-6524,390,,,,,,,,,,,,
902683,1560692174509,5,2.42,2.21,3.34,2.4,5.04,0.8,-0.53,0.82,21,-2,31,0.96,7244,40,92,32,67,898,392.0,489,458,60,118.0,228,1,410,330,89,0,0,388,0,505,392,,,,,,,,,,,,
902703,1560692174529,3,2.42,2.2,3.34,2.39,5.04,0.72,-0.53,0.82,20,-1,29,0.9,7367,41,92,32,67,896,393.0,496,451,60,118.0,228,1,416,335,89,0,0,392,1,-6656,391,,,,,,,,,,,,
902723,1560692174549,5,2.4,2.21,3.34,2.38,5.04,0.6,-0.51,0.75,21,-1,27,0.78,7440,41,92,32,66,893,392.0,493,455,60,118.0,228,1,423,331,89,0,0,396,742,6384,393,,,,,,,,,,,,
902743,1560692174569,4,2.38,2.22,3.33,2.37,5.05,0.56,-0.48,0.73,19,-1,27,0.74,7557,41,92,32,66,892,395.0,505,455,60,118.0,228,1,428,335,89,0,0,399,2278,28696,395,45.698982,4.908937,34.42,192.8,8,1.4767,0,0.0,1.22,9,0.87,15.0457
902763,1560692174589,3,2.38,2.28,3.31,2.37,5.05,0.53,-0.51,0.7,18,1,26,0.74,7588,41,92,32,65,891,396.0,506,456,60,118.0,243,1,432,329,96,0,0,401,-18948,-9211,397,,,,,,,,,,,,
902783,1560692174609,1,2.37,2.31,3.29,2.37,5.04,0.47,-0.48,0.72,18,2,25,0.67,7643,41,92,32,65,894,399.0,497,457,60,118.0,243,1,434,331,96,0,0,404,-6475,10541,399,,,,,,,,,,,,
902803,1560692174629,2,2.35,2.34,3.28,2.36,5.06,0.47,-0.41,0.74,17,3,24,0.62,7625,41,92,32,64,896,401.0,504,453,60,118.0,243,1,435,324,96,0,0,409,-6524,11560,401,,,,,,,,,,,,
902823,1560692174649,-1,2.35,2.36,3.22,2.37,5.05,0.5,-0.39,0.82,16,2,22,0.64,7646,41,92,32,64,899,403.0,510,456,60,118.0,243,1,436,324,96,0,0,410,1,10392,403,,,,,,,,,,,,
902843,1560692174669,0,2.33,2.39,3.2,2.38,5.04,0.61,-0.31,0.88,14,-0,21,0.68,7628,41,92,32,63,902,404.0,514,453,60,118.0,243,1,437,317,96,0,0,416,-6656,10392,404,45.69899,4.908931,35.73,192.7,8,1.4767,0,0.0,1.2217,9,0.87,15.0474
902863,1560692174689,2,2.32,2.4,3.2,2.37,5.08,0.66,-0.33,0.89,12,-0,19,0.73,7678,41,92,32,64,903,408.0,516,461,60,117.0,231,1,437,324,94,0,0,413,28696,2524,408,,,,,,,,,,,,
902883,1560692174709,2,2.32,2.41,3.2,2.37,5.07,0.68,-0.23,0.83,11,-0,19,0.71,7738,41,92,32,63,904,408.0,514,456,60,117.0,231,1,441,317,94,0,0,416,-8151,-26615,408,,,,,,,,,,,,
902903,1560692174729,4,2.3,2.41,3.2,2.36,5.06,0.6,-0.13,0.8,10,-1,18,0.61,7776,41,92,32,64,891,409.0,526,458,60,117.0,231,1,441,319,94,0,0,418,2524,7154,409,,,,,,,,,,,,
902923,1560692174749,-1,2.3,2.41,3.2,2.33,5.07,0.48,-0.17,0.76,10,0,15,0.51,7881,41,92,32,62,879,410.0,534,455,60,118.0,231,1,446,313,94,0,0,419,11560,7154,412,,,,,,,,,,,,
902943,1560692174769,1,2.28,2.41,3.21,2.33,5.05,0.43,-0.13,0.8,10,2,14,0.45,7921,41,92,32,61,865,414.0,535,455,60,118.0,231,1,447,306,94,0,0,422,-9166,-21944,414,45.698998,4.908926,37.65,192.7,8,1.4767,0,0.0,1.2233,9,0.87,15.0491
902963,1560692174789,3,2.28,2.42,3.21,2.32,5.04,0.44,-0.01,0.73,9,2,14,0.44,8009,41,92,32,61,852,417.0,543,461,60,117.0,228,1,450,308,95,0,0,429,-26615,-3414,417,,,,,,,,,,,,
902983,1560692174809,-1,2.28,2.48,3.21,2.32,5.05,0.39,0.08,0.68,8,1,13,0.4,8102,41,92,32,60,839,417.0,545,456,60,117.0,228,1,441,306,95,0,0,430,-21944,-3314,416,,,,,,,,,,,,
903003,1560692174829,1,2.27,2.48,3.21,2.32,5.07,0.35,0.12,0.73,8,2,12,0.37,8113,41,92,32,59,828,422.0,545,455,60,118.0,228,1,432,300,95,0,0,435,-3414,-3314,420,,,,,,,,,,,,
903023,1560692174849,2,2.27,2.49,3.2,2.31,5.05,0.31,0.22,0.63,7,2,11,0.37,8159,41,92,32,58,826,424.0,543,454,60,118.0,228,1,423,296,95,0,0,439,-4082,21580,422,,,,,,,,,,,,
903043,1560692174869,1,2.26,2.49,3.2,2.31,5.08,0.33,0.26,0.68,6,1,9,0.42,8220,41,92,32,57,827,427.0,547,453,60,118.0,228,1,415,292,95,0,0,443,31796,23400,426,45.699009,4.908922,39.33,192.7,8,1.4767,0,0.0,1.225,9,0.87,15.0507
903063,1560692174889,2,2.25,2.49,3.18,2.3,5.06,0.36,0.34,0.66,6,1,9,0.49,8245,41,92,32,57,833,432.0,548,454,60,118.0,210,1,415,292,90,0,0,438,-3322,21580,429,,,,,,,,,,,,
903083,1560692174909,1,2.26,2.46,3.17,2.28,5.07,0.44,0.27,0.79,5,1,7,0.52,8252,41,92,32,56,840,434.0,551,456,60,118.0,210,1,406,286,90,0,0,446,-768,-18341,435,,,,,,,,,,,,
903103,1560692174929,2,2.26,2.45,3.15,2.25,5.06,0.43,0.24,0.73,4,0,7,0.49,8292,41,92,32,56,846,438.0,557,457,60,117.0,210,1,406,287,90,0,0,449,19477,26704,437,,,,,,,,,,,,
903123,1560692174949,1,2.26,2.45,3.16,2.25,5.04,0.5,0.07,0.81,4,1,5,0.51,8366,41,92,32,55,852,440.0,557,453,60,117.0,210,1,398,281,90,0,0,450,20625,-3267,436,,,,,,,,,,,,
903143,1560692174969,2,2.26,2.45,3.16,2.25,5.07,0.5,-0.01,0.81,3,1,3,0.5,8438,41,92,32,55,861,442.0,569,453,60,118.0,210,1,398,283,90,0,0,450,-18341,3571,441,45.699017,4.908917,40.15,192.7,8,1.4767,0,0.0,1.2267,9,0.87,15.0524
903163,1560692174989,1,2.27,2.45,3.16,2.26,5.05,0.42,0.03,0.78,3,3,3,0.42,8507,41,92,32,54,872,444.0,567,457,60,117.0,203,1,390,278,90,0,0,455,21432,17628,443,,,,,,,,,,,,
903183,1560692175003,2,2.26,2.45,3.16,2.25,5.07,0.58,-0.05,0.86,2,2,2,0.58,8542,41,92,32,53,880,446.0,573,456,60,117.0,203,1,387,271,90,0,0,457,8488,14488,446,,,,,,,,,,,,
903203,1560692175023,-2,2.26,2.43,3.15,2.25,5.06,0.57,-0.07,0.85,2,2,2,0.57,8585,41,92,32,53,886,450.0,578,461,60,118.0,203,1,388,273,90,0,0,460,-3267,2211,447,,,,,,,,,,,,
903223,1560692175043,3,2.27,2.43,3.11,2.26,5.04,0.5,0.06,0.78,2,3,3,0.51,8620,41,92,32,53,898,451.0,583,449,60,118.0,203,1,388,266,90,0,0,456,3571,12552,450,,,,,,,,,,,,
903243,1560692175063,4,2.26,2.44,3.08,2.26,5.03,0.51,0.08,0.87,2,2,2,0.52,8656,42,92,32,52,913,452.0,571,450,60,117.0,203,1,385,268,90,0,0,462,-6387,-23623,452,45.699028,4.908912,41.73,192.7,8,1.4767,0,0.0,1.2283,9,0.87,15.0541
903263,1560692175083,3,2.27,2.44,3.1,2.27,5.05,0.61,-0.09,0.87,2,1,0,0.61,8656,42,92,32,52,926,453.0,575,456,60,118.0,192,1,386,268,87,0,0,467,-8985,16408,456,,,,,,,,,,,,
903283,1560692175108,-1,2.26,2.44,3.13,2.26,5.07,0.61,-0.11,0.87,1,0,-0,0.62,8664,42,92,32,52,936,458.0,577,456,60,118.0,192,1,386,268,87,0,0,469,17628,-16384,456,,,,,,,,,,,,
903303,1560692175128,5,2.26,2.44,3.16,2.25,5.07,0.48,0.05,0.76,1,2,-0,0.48,8696,42,92,32,52,950,461.0,575,459,60,118.0,192,1,386,269,87,0,0,470,2211,10432,461,,,,,,,,,,,,
903323,1560692175148,3,2.26,2.44,3.15,2.25,5.07,0.46,0.08,0.8,1,2,-1,0.47,8749,42,92,32,52,969,462.0,573,448,60,117.0,192,1,387,270,87,0,0,467,12552,10432,460,,,,,,,,,,,,
903343,1560692175168,3,2.26,2.42,3.16,2.24,5.07,0.6,-0.04,0.8,1,1,-0,0.6,8769,42,92,32,52,983,465.0,581,453,60,117.0,192,1,387,263,87,0,0,472,30272,-1923,462,45.699036,4.908907,42.76,192.7,8,1.4767,0,0.0,1.23,9,0.87,15.0557
903363,1560692175188,3,2.27,2.43,3.16,2.24,5.08,0.74,-0.2,0.83,0,0,-1,0.77,8848,41,92,32,51,992,465.0,588,458,60,117.0,192,1,385,265,89,0,0,470,30272,243,464,,,,,,,,,,,,
903383,1560692175208,3,2.26,2.43,3.19,2.24,5.05,0.87,-0.28,0.88,-0,-1,-2,0.91,8890,40,92,31,50,1007,467.0,598,458,60,117.0,192,1,381,257,89,0,0,473,243,-9203,464,,,,,,,,,,,,
903403,1560692175228,2,2.27,2.42,3.2,2.23,5.08,0.98,-0.29,0.91,-1,-2,-3,1.03,8911,38,92,31,49,1029,471.0,608,465,60,118.0,192,1,378,249,89,0,0,481,32033,3580,467,,,,,,,,,,,,
903423,1560692175248,-1,2.27,2.43,3.19,2.24,5.04,1.02,-0.28,0.89,-1,-2,-4,1.06,8915,34,92,31,47,1050,472.0,611,459,60,118.0,192,1,370,232,89,0,0,483,-1923,-899,470,,,,,,,,,,,,
903443,1560692175268,1,2.27,2.41,3.18,2.23,5.05,1.06,-0.17,0.83,-2,-1,-3,1.08,8941,29,92,31,44,1064,473.0,610,460,60,118.0,192,1,351,227,89,0,0,482,-17956,-6441,474,45.699047,4.908902,44.43,192.8,8,1.4767,0,0.0,1.2317,9,0.88,15.0574
903463,1560692175288,3,2.26,2.42,3.17,2.23,5.06,0.98,-0.04,0.77,-2,-1,-2,0.98,8928,23,92,31,41,1080,475.0,607,457,60,118.0,158,1,332,217,75,0,0,479,-17956,16648,474,,,,,,,,,,,,
903483,1560692175308,1,2.26,2.42,3.15,2.22,5.05,0.94,0.16,0.7,-2,-1,-1,0.96,8915,19,92,31,37,1101,476.0,601,458,60,118.0,158,1,314,205,75,0,0,481,-23367,32033,475,,,,,,,,,,,,
903503,1560692175328,0,2.27,2.41,3.15,2.22,5.06,0.81,0.34,0.69,-1,-2,-1,0.87,8865,16,92,31,33,1118,477.0,602,461,60,118.0,158,1,302,191,75,0,0,480,16648,-899,476,,,,,,,,,,,,
903523,1560692175348,-0,2.27,2.4,3.15,2.2,5.07,0.68,0.5,0.51,-1,1,0,0.84,8745,13,92,31,30,1125,480.0,598,451,60,118.0,158,1,291,188,75,0,0,481,8488,8488,479,,,,,,,,,,,,
903543,1560692175368,3,2.27,2.38,3.17,2.19,5.08,0.6,0.56,0.57,-1,0,0,0.82,8585,12,92,31,28,1129,479.0,591,457,60,117.0,158,1,282,188,75,0,0,480,10305,-23367,477,45.699059,4.908896,45.18,192.8,8,1.4767,0,0.0,1.2333,9,0.88,15.059
903563,1560692175388,4,2.26,2.37,3.17,2.19,5.04,0.74,0.38,0.62,-1,0,-0,0.83,8453,12,92,31,26,1128,478.0,581,452,60,117.0,126,1,274,185,60,0,0,478,16648,10305,475,,,,,,,,,,,,
903583,1560692175408,4,2.26,2.34,3.18,2.17,5.05,0.71,0.32,0.58,-1,0,-0,0.78,8230,11,92,31,25,1126,479.0,575,458,60,118.0,126,1,270,172,60,0,0,481,16648,-17956,476,,,,,,,,,,,,
903603,1560692175428,1,2.26,2.34,3.19,2.15,5.06,0.73,0.29,0.58,-1,-0,-1,0.78,8016,11,92,31,25,1118,478.0,568,455,60,118.0,126,1,270,159,60,0,0,476,16648,3576,476,,,,,,,,,,,,
903623,1560692175448,2,2.26,2.34,3.19,2.13,5.05,0.72,0.13,0.61,-1,-1,-2,0.73,7802,10,92,31,24,1104,477.0,557,460,60,117.0,126,1,268,156,60,0,0,477,2212,32033,475,,,,,,,,,,,,
903643,1560692175468,1,2.27,2.33,3.21,2.13,5.07,0.75,0.21,0.62,-1,-2,-2,0.78,7773,10,92,31,24,1066,475.0,546,455,60,117.0,126,1,267,156,60,0,0,461,-17956,17628,474,45.69907,4.90889,45.59,192.8,8,1.4767,0,0.0,1.235,9,0.88,15.0607
903663,1560692175488,4,2.26,2.29,3.25,2.11,5.03,0.74,0.27,0.5,-1,-2,-1,0.79,7744,10,92,31,24,1028,471.0,543,456,60,118.0,95,1,267,156,45,0,0,453,32033,-6387,468,,,,,,,,,,,,
903683,1560692175508,-2,2.26,2.27,3.29,2.08,5.04,0.79,0.17,0.42,-1,-3,-2,0.81,7861,10,92,31,23,1000,468.0,541,457,60,118.0,95,1,268,154,45,0,0,447,-16384,2524,466,,,,,,,,,,,,
903703,1560692175528,0,2.26,2.24,3.32,2.05,5.03,0.92,0.07,0.52,-2,-5,-3,0.92,7848,10,92,31,23,971,466.0,542,455,60,118.0,95,1,268,154,45,0,0,440,-3210,20625,463,,,,,,,,,,,,
903723,1560692175548,3,2.26,2.23,3.36,2.03,5.08,1.02,0.06,0.55,-2,-5,-3,1.02,7911,10,91,31,23,940,462.0,542,457,60,118.0,95,1,269,154,45,0,0,437,12552,-7939,461,,,,,,,,,,,,
903743,1560692175568,4,2.26,2.23,3.35,2.03,5.04,0.94,0.09,0.42,-2,-3,-2,0.95,7971,10,91,31,23,910,460.0,546,457,60,118.0,95,1,269,154,45,0,0,439,14488,21580,458,45.699078,4.908885,46.21,192.9,8,1.4767,0,0.0,1.2367,9,0.88,15.0624
903763,1560692175588,0,2.26,2.21,3.35,2.02,5.08,1.05,0.02,0.5,-2,-3,-3,1.05,7982,10,92,31,23,907,454.0,551,455,60,118.0,100,1,269,154,46,0,0,431,2524,-768,455,,,,,,,,,,,,
903783,1560692175608,2,2.25,2.19,3.34,2.01,5.05,1.06,-0.0,0.46,-3,-3,-2,1.06,8023,10,92,31,23,905,452.0,551,457,60,117.0,100,1,270,156,46,0,0,431,-6387,-768,450,,,,,,,,,,,,
903803,1560692175628,3,2.26,2.18,3.33,2.01,5.07,1.09,-0.11,0.43,-3,-2,-2,1.1,8071,10,92,31,23,918,449.0,554,457,60,117.0,100,1,270,157,46,0,0,433,10305,13180,447,,,,,,,,,,,,
903823,1560692175648,2,2.26,2.18,3.31,2.01,5.06,1.14,-0.14,0.52,-3,-2,-2,1.15,8054,10,92,31,23,931,444.0,562,455,60,117.0,100,1,270,156,46,0,0,436,21432,31796,444,,,,,,,,,,,,
903843,1560692175668,3,2.26,2.18,3.3,2.01,5.05,1.12,-0.14,0.48,-3,-2,-1,1.13,8047,10,91,31,23,944,444.0,563,458,60,117.0,100,1,270,155,46,0,0,424,23400,-3322,440,45.699093,4.908879,45.43,192.9,8,1.4767,0,0.0,1.2383,9,0.88,15.064
903863,1560692175688,0,2.26,2.18,3.31,2.01,5.08,1.2,-0.24,0.5,-2,-4,-0,1.22,8057,9,91,31,23,958,440.0,563,458,60,118.0,106,1,270,156,47,0,0,427,-28332,13552,440,,,,,,,,,,,,
903883,1560692175708,1,2.27,2.18,3.31,2.01,5.08,1.19,-0.22,0.52,-3,-5,-1,1.21,7995,9,92,31,23,982,439.0,565,455,60,118.0,106,1,269,154,47,0,0,426,5600,31796,439,,,,,,,,,,,,
903903,1560692175728,4,2.26,2.18,3.31,2.01,5.07,1.13,-0.19,0.45,-2,-6,-0,1.14,7941,9,92,31,23,1005,436.0,564,457,60,117.0,106,1,269,154,47,0,0,421,243,-3314,435,,,,,,,,,,,,
903923,1560692175748,3,2.27,2.18,3.33,2.01,5.07,1.16,-0.27,0.44,-2,-5,-0,1.19,7918,9,92,31,23,1019,434.0,558,460,60,118.0,106,1,269,154,47,0,0,420,-3322,-21792,434,,,,,,,,,,,,
903943,1560692175768,-1,2.27,2.18,3.34,2.02,5.04,1.24,-0.28,0.53,-3,-5,-1,1.27,7832,9,92,31,23,1029,431.0,560,457,60,118.0,106,1,268,154,47,0,0,422,1779,-21792,431,45.6991,4.908873,44.0,192.9,8,1.4767,0,0.0,1.24,9,0.88,15.0657
903963,1560692175788,1,2.27,2.18,3.33,2.0,5.06,1.26,-0.23,0.58,-3,-5,-1,1.28,7822,9,92,31,22,1044,429.0,551,456,60,117.0,105,1,267,151,45,0,0,420,3635,7154,427,,,,,,,,,,,,
903983,1560692175808,2,2.28,2.18,3.34,2.0,5.04,1.15,-0.12,0.43,-3,-5,-1,1.16,7773,9,92,31,22,1061,427.0,542,455,60,117.0,105,1,267,151,45,0,0,415,31796,-26615,425,,,,,,,,,,,,
904003,1560692175828,4,2.28,2.18,3.36,1.99,5.08,1.09,-0.15,0.31,-2,-4,-0,1.1,7722,9,92,31,22,1071,426.0,546,457,60,118.0,105,1,267,151,45,0,0,416,13552,-9166,423,,,,,,,,,,,,
904023,1560692175848,3,2.28,2.19,3.35,1.99,5.04,1.04,-0.21,0.35,-1,-3,-0,1.07,7725,9,92,31,22,1078,422.0,534,458,60,118.0,105,1,267,151,45,0,0,414,-21792,-4059,422,,,,,,,,,,,,
904043,1560692175868,4,2.29,2.18,3.37,1.99,5.07,1.07,-0.3,0.43,-0,-2,-1,1.11,7662,9,92,31,22,1084,419.0,537,457,60,118.0,105,1,266,151,45,0,0,406,7154,13040,419,45.699112,4.908868,43.0,193.0,8,1.4767,0,0.0,1.2417,9,0.88,15.0674
904063,1560692175888,0,2.28,2.18,3.37,2.0,5.05,1.16,-0.29,0.5,-1,-3,-1,1.19,7631,9,92,31,22,1090,418.0,532,456,60,118.0,102,1,266,151,43,0,0,409,-21944,10392,418,,,,,,,,,,,,
904083,1560692175908,0,2.29,2.18,3.37,1.99,5.08,1.24,-0.27,0.6,-1,-4,-0,1.27,7572,9,92,31,22,1092,415.0,534,455,60,118.0,102,1,265,151,43,0,0,409,-26615,-26615,415,,,,,,,,,,,,
904103,1560692175928,1,2.29,2.18,3.35,1.99,5.07,1.32,-0.21,0.72,-2,-5,-1,1.33,7569,9,92,31,22,1090,413.0,532,458,60,118.0,102,1,265,151,43,0,0,407,-26615,10392,413,,,,,,,,,,,,
904123,1560692175948,-0,2.29,2.18,3.33,1.99,5.07,1.33,-0.12,0.7,-2,-5,-1,1.34,7527,9,92,31,22,1083,412.0,535,455,60,118.0,102,1,265,151,43,0,0,405,11560,6512,411,,,,,,,,,,,,
904143,1560692175968,-1,2.31,2.18,3.32,2.0,5.05,1.32,-0.05,0.68,-2,-5,-1,1.32,7524,9,92,31,22,1071,412.0,533,453,60,118.0,102,1,265,151,43,0,0,401,10392,6384,410,45.69912,4.908863,41.48,193.0,8,1.4767,0,0.0,1.2433,9,0.88,15.069
904163,1560692175988,-0,2.31,2.17,3.32,1.99,5.05,1.33,-0.01,0.7,-2,-6,-1,1.33,7461,9,92,31,22,1060,410.0,533,454,60,118.0,102,1,264,151,42,0,0,399,-9211,-3968,410,,,,,,,,,,,,
904183,1560692176004,-1,2.32,2.16,3.32,2.04,5.04,1.36,-0.03,0.72,-2,-5,-2,1.36,7449,9,92,31,22,1049,409.0,529,456,60,118.0,102,1,264,151,42,0,0,397,-8151,1504,409,,,,,,,,,,,,
904203,1560692176024,-1,2.32,2.16,3.34,2.07,5.06,1.37,-0.07,0.75,-1,-5,-2,1.37,7399,9,92,31,22,1024,406.0,526,455,60,118.0,102,1,263,151,42,0,0,395,6512,-6656,406,,,,,,,,,,,,
904223,1560692176044,4,2.34,2.14,3.34,2.08,5.07,1.44,-0.05,0.81,-1,-6,-0,1.44,7384,9,92,31,22,983,404.0,523,457,60,118.0,102,1,263,151,42,0,0,394,6384,-32702,404,,,,,,,,,,,,
904243,1560692176064,2,2.35,2.13,3.35,2.08,5.05,1.5,-0.16,0.92,-1,-5,1,1.5,7312,9,91,31,22,944,404.0,521,457,60,118.0,102,1,263,151,42,0,0,391,17144,-32702,404,45.699131,4.908857,40.4,193.1,8,1.4767,0,0.0,1.245,9,0.89,15.0707
904263,1560692176084,3,2.36,2.13,3.35,2.08,5.04,1.35,-0.23,0.9,1,-1,2,1.36,7295,9,91,31,22,912,403.0,520,460,60,119.0,101,1,262,151,41,0,0,387,-1818,17144,403,,,,,,,,,,,,
