"Interval"|"ms"|0|0|1,"Utc"|"ms"|0|0|1,"FB_p"|"bar"|0|300|50,"Volant"|"F"|0.0|300.0|50,"xFR"|"mm"|0.0|5.0|50,"xRR"|"mm"|0.0|5.0|50,"xFL"|"mm"|0.0|5.0|50,"xRL"|"mm"|0.0|5.0|50,"AccelX"|"G"|-3.0|3.0|50,"AccelY"|"G"|-3.0|3.0|50,"AccelZ"|"G"|-3.0|3.0|50,"Yaw"|"Deg/Sec"|-120|120|50,"Pitch"|"Deg/Sec"|-120|120|50,"Roll"|"Deg/Sec"|-120|120|50,"Gsum"|"G"|0.0|3.0|50,"RPM"|""|0|14000|50,"TPS"|"%"|0|100|50,"WaterTemp"|"?C"|0|300|50,"AirTemp"|"?C"|-1000|1000|50,"MAP"|"KPa"|0|255|50,"Lambda"|""|0|1024|50,"WheelSpeed"|"MPH"|0.0|150.0|50,"OilPress"|"PSI"|0|150|50,"FuelPress"|"PSI"|0|150|50,"OilTemp"|"F"|0|300|50,"Battery"|"Volts"|0.0|20.0|50,"FuelCon"|"L/h"|-1000|1000|50,"Gear"|""|0|10|50,"Advance"|"Deg"|-360|360|50,"Injection"|"ms"|-1000|1000|50,"FuelCon"|"L/100km"|-1000|1000|50,"LC_But_Pres"|""|-1000|1000|50,"LC_Active"|""|-1000|1000|50,"RD_Speed"|""|-1000|1000|50,"RUD_Speed"|""|-1000|1000|50,"LD_Speed"|""|-1000|1000|50,"LUD_Speed"|""|-1000|1000|50,"Latitude"|"Degrees"|-180.0|180.0|10,"Longitude"|"Degrees"|-180.0|180.0|10,"Speed"|"kph"|0.0|150.0|10,"Altitude"|"m"|0.0|4000.0|10,"LapCount"|""|0|0|10,"LapTime"|"Min"|0.0|0.0|10,"Sector"|""|0|0|10,"SectorTime"|"Min"|0.0|0.0|10,"ElapsedTime"|"Min"|0.0|0.0|10,"CurrentLap"|""|0|0|10,"Distance"|"km"|0.0|0.0|10,"SessionTime"|"Min"|0.0|0.0|10
115863,1560691387667,0,2.19,2.06,3.26,1.75,5.07,1.05,0.12,0.13,-4,2,-6,1.06,7123,7,87,35,23,935,390.0,542,457,60,122.0,106,1,261,153,41,0,0,381,-1562,-992,381,,,,,,,,,,,,
115883,1560691387687,4,2.2,2.1,3.26,1.77,5.07,1.02,0.04,0.25,-5,1,-7,1.02,7048,7,87,35,23,934,387.0,546,456,60,122.0,106,1,260,150,41,0,0,384,240,3,380,,,,,,,,,,,,
115903,1560691387707,2,2.2,2.15,3.26,1.81,5.04,1.01,0.03,0.15,-4,2,-4,1.01,7022,7,87,35,23,934,386.0,538,461,60,121.0,106,1,260,153,41,0,0,380,-3866,770,377,,,,,,,,,,,,
115923,1560691387727,-1,2.19,2.15,3.26,1.81,5.05,1.04,0.03,0.21,-5,2,-1,1.04,6985,7,87,35,23,934,384.0,535,456,60,121.0,106,1,260,152,41,0,0,376,-19019,-6656,375,,,,,,,,,,,,
115943,1560691387747,3,2.2,2.15,3.26,1.8,5.07,1.11,-0.02,0.39,-6,-2,-4,1.11,6921,7,87,35,23,936,383.0,537,458,60,122.0,106,1,260,152,40,0,0,375,-19126,-6656,373,45.699745,4.910686,38.94,196.7,0,0.0,0,0.0,1.7008,1,0.68,1.9324
115963,1560691387767,2,2.2,2.15,3.25,1.8,5.06,1.04,0.0,0.3,-5,-1,-6,1.04,6931,7,87,35,23,938,381.0,534,463,60,121.0,106,1,260,152,40,0,0,374,-18948,486,371,,,,,,,,,,,,
115983,1560691387787,1,2.2,2.14,3.24,1.8,5.07,1.04,0.08,0.25,-6,-2,-8,1.04,6900,7,87,35,23,942,379.0,530,456,60,122.0,106,1,260,152,40,0,0,374,8200,230,370,,,,,,,,,,,,
116003,1560691387807,0,2.22,2.14,3.24,1.78,5.06,1.04,-0.07,0.34,-6,-1,-7,1.04,6845,7,87,35,23,946,376.0,535,461,60,121.0,106,1,261,152,40,0,0,367,3,-1268,369,,,,,,,,,,,,
116023,1560691387827,0,2.22,2.14,3.25,1.8,5.04,0.95,0.09,0.24,-5,-0,-6,0.96,6823,7,88,35,23,949,376.0,530,460,60,122.0,106,1,261,152,40,0,0,368,3,-6458,366,,,,,,,,,,,,
116043,1560691387847,3,2.22,2.14,3.27,1.8,5.04,0.94,0.03,0.41,-6,-1,-6,0.94,6818,7,88,35,23,951,375.0,526,455,60,122.0,106,1,261,155,39,0,0,368,742,-6458,365,45.699738,4.91068,38.14,196.7,0,0.0,0,0.0,1.7025,1,0.68,1.9341
116063,1560691387867,0,2.23,2.14,3.29,1.82,5.05,0.87,0.17,0.27,-5,2,-7,0.89,6781,7,88,35,24,954,373.0,525,460,60,121.0,106,1,262,155,39,0,0,361,257,-1268,365,,,,,,,,,,,,
116083,1560691387887,1,2.25,2.14,3.29,1.86,5.07,0.99,0.07,0.41,-5,-1,-8,0.99,6718,7,88,35,24,958,371.0,521,455,60,122.0,106,1,262,155,39,0,0,361,257,-29978,363,,,,,,,,,,,,
116103,1560691387909,1,2.26,2.14,3.3,1.87,5.06,0.9,0.13,0.3,-5,0,-8,0.91,6686,7,88,35,24,961,369.0,512,463,60,121.0,106,1,263,154,39,0,0,360,-6656,-14707,362,,,,,,,,,,,,
116123,1560691387929,1,2.27,2.14,3.29,1.87,5.07,1.0,0.04,0.45,-5,-2,-9,1.0,6667,7,88,35,24,962,365.0,512,461,60,120.0,106,1,263,154,39,0,0,359,-6405,-6640,362,,,,,,,,,,,,
116143,1560691387949,1,2.28,2.14,3.29,1.88,5.04,0.91,0.13,0.34,-4,0,-9,0.91,6674,7,87,35,24,965,362.0,514,455,60,122.0,105,1,263,154,38,0,0,356,2790,-14707,361,45.69973,4.910675,36.72,196.7,0,0.0,0,0.0,1.7042,1,0.68,1.9357
116163,1560691387969,1,2.29,2.12,3.3,1.85,5.05,0.98,0.03,0.35,-4,1,-7,0.98,6634,7,87,35,25,968,361.0,520,460,60,121.0,105,1,264,158,38,0,0,352,-29978,-29978,359,,,,,,,,,,,,
116183,1560691387989,4,2.31,2.11,3.31,1.87,5.04,0.9,0.05,0.35,-2,1,-5,0.9,6597,7,87,35,25,969,361.0,516,460,60,122.0,105,1,265,154,38,0,0,349,-29978,4104,358,,,,,,,,,,,,
116203,1560691388003,1,2.31,2.1,3.32,1.87,5.04,0.92,0.06,0.31,-2,2,-3,0.92,6549,7,87,35,25,971,358.0,513,458,60,121.0,105,1,265,158,38,0,0,348,4104,4104,358,,,,,,,,,,,,
116223,1560691388023,1,2.32,2.1,3.33,1.87,5.05,0.99,-0.05,0.41,-1,-0,-2,0.99,6555,8,87,35,25,972,357.0,505,456,60,122.0,105,1,265,158,38,0,0,350,-6644,2060,357,,,,,,,,,,,,
116243,1560691388043,4,2.34,2.09,3.34,1.89,5.08,0.83,-0.01,0.4,0,3,-2,0.83,6526,8,87,35,25,971,356.0,506,460,60,122.0,108,1,265,158,39,0,0,345,3183,-6644,356,45.699722,4.910669,35.92,196.8,0,0.0,0,0.0,1.7058,1,0.68,1.9374
116263,1560691388063,1,2.35,2.09,3.36,1.89,5.05,0.84,0.0,0.3,0,4,-1,0.84,6445,8,87,35,25,972,354.0,508,458,60,121.0,108,1,266,158,39,0,0,341,-30454,-30454,354,,,,,,,,,,,,
116283,1560691388083,2,2.36,2.1,3.38,1.9,5.04,0.96,-0.1,0.4,0,0,0,0.96,6432,8,87,35,26,971,353.0,505,457,60,122.0,108,1,269,159,39,0,0,340,8841,2811,353,,,,,,,,,,,,
116303,1560691388109,3,2.38,2.09,3.39,1.9,5.06,0.88,-0.07,0.43,2,-1,1,0.88,6386,8,87,35,26,970,352.0,500,458,60,122.0,108,1,270,159,39,0,0,337,-14714,6870,352,,,,,,,,,,,,
116323,1560691388129,7,2.39,2.08,3.41,1.92,5.04,0.81,-0.06,0.45,4,1,0,0.82,6334,8,87,35,26,969,352.0,494,457,60,123.0,108,1,270,159,39,0,0,336,-31206,6668,352,,,,,,,,,,,,
116343,1560691388149,1,2.39,2.05,3.43,1.9,5.06,0.83,-0.1,0.35,3,2,1,0.83,6308,8,87,35,26,968,351.0,491,462,60,121.0,107,1,270,159,38,0,0,328,-31222,-10554,351,45.699711,4.910664,35.1,196.8,0,0.0,0,0.0,1.7075,1,0.68,1.939
116363,1560691388169,5,2.39,2.03,3.43,1.92,5.04,0.95,-0.24,0.36,3,1,2,0.98,6245,8,87,35,27,968,349.0,486,461,60,121.0,107,1,274,160,38,0,0,326,4838,-14714,349,,,,,,,,,,,,
116383,1560691388189,9,2.4,2.01,3.44,1.9,5.06,1.04,-0.31,0.37,4,-1,4,1.08,6198,8,87,35,27,966,346.0,480,455,60,123.0,107,1,275,160,38,0,0,323,170,2560,346,,,,,,,,,,,,
116403,1560691388209,10,2.41,1.98,3.44,1.89,5.04,1.13,-0.3,0.38,6,-1,4,1.17,6137,8,87,35,27,962,343.0,479,453,60,123.0,107,1,275,160,38,0,0,320,-22016,-32559,343,,,,,,,,,,,,
116423,1560691388229,13,2.42,1.96,3.46,1.89,5.04,1.15,-0.28,0.4,9,-0,4,1.18,6050,8,87,35,27,960,339.0,475,454,60,123.0,107,1,275,160,38,0,0,308,-24576,4838,339,,,,,,,,,,,,
116443,1560691388249,12,2.45,1.95,3.49,1.9,5.08,1.18,-0.24,0.39,12,-0,5,1.2,5965,8,87,35,28,957,336.0,472,451,60,121.0,107,1,277,161,36,0,0,306,-27136,-32559,334,45.699707,4.910658,33.76,196.9,0,0.0,0,0.0,1.7092,1,0.68,1.9407
116463,1560691388269,10,2.46,1.95,3.55,1.93,5.06,1.25,-0.25,0.34,15,-2,6,1.28,5888,8,88,35,28,954,333.0,462,455,60,121.0,107,1,276,161,36,0,0,300,130,160,333,,,,,,,,,,,,
116483,1560691388289,10,2.48,1.95,3.54,1.96,5.05,1.33,-0.32,0.33,17,-4,8,1.37,5785,8,88,35,29,950,327.0,453,454,60,121.0,107,1,277,162,36,0,0,295,29440,-24576,327,,,,,,,,,,,,
116503,1560691388308,13,2.48,1.94,3.56,2.02,5.08,1.4,-0.35,0.31,16,-9,10,1.44,5671,8,88,35,30,948,327.0,446,462,60,122.0,107,1,278,162,36,0,0,286,100,-25856,327,,,,,,,,,,,,
116523,1560691388328,12,2.49,1.93,3.58,2.04,5.07,1.34,-0.39,0.32,14,-7,11,1.39,5562,8,88,35,31,949,324.0,441,462,60,122.0,107,1,278,161,36,0,0,275,80,155,324,,,,,,,,,,,,
116543,1560691388348,10,2.48,1.93,3.59,2.04,5.05,1.26,-0.4,0.29,15,-7,13,1.32,5431,8,88,35,31,949,322.0,433,456,60,122.0,104,1,276,161,34,0,0,260,80,-28416,322,45.699699,4.910653,32.55,196.9,0,0.0,0,0.0,1.7108,1,0.68,1.9424
116563,1560691388368,11,2.49,1.93,3.59,2.04,5.04,1.33,-0.36,0.25,16,-7,15,1.38,5351,8,88,35,32,948,318.0,427,458,60,120.0,104,1,276,161,34,0,0,258,0,-32256,318,,,,,,,,,,,,
116583,1560691388388,7,2.5,1.93,3.54,2.04,5.05,1.2,-0.38,0.27,17,-5,15,1.26,5241,8,88,35,33,948,314.0,416,457,60,123.0,104,1,278,166,34,0,0,269,250,32000,314,,,,,,,,,,,,
116603,1560691388408,9,2.52,1.93,3.53,2.03,5.05,1.29,-0.41,0.23,16,-8,17,1.35,5152,8,88,35,35,948,310.0,407,466,60,122.0,104,1,285,177,34,0,0,273,24064,26880,308,,,,,,,,,,,,
116623,1560691388428,5,2.54,1.91,3.57,2.03,5.04,1.17,-0.44,0.27,19,-8,18,1.25,5103,8,88,35,36,948,305.0,405,450,60,121.0,104,1,288,183,34,0,0,259,30208,95,305,,,,,,,,,,,,
116643,1560691388448,4,2.56,1.9,3.62,2.03,5.06,1.06,-0.52,0.29,18,-4,17,1.18,5093,8,88,35,37,949,302.0,397,462,60,123.0,118,1,291,189,36,0,0,245,250,21760,302,45.699692,4.910647,31.21,196.9,0,0.0,0,0.0,1.7125,1,0.68,1.9441
116663,1560691388468,7,2.57,1.9,3.67,2.02,5.04,1.16,-0.47,0.28,20,-11,19,1.25,5024,8,88,35,38,949,301.0,390,454,60,120.0,118,1,295,195,36,0,0,224,-1,85,300,,,,,,,,,,,,
116683,1560691388488,0,2.58,1.9,3.69,2.02,5.06,0.99,-0.47,0.27,21,-8,20,1.1,4917,8,88,35,39,951,301.0,387,457,60,122.0,118,1,295,199,36,0,0,215,-1,85,301,,,,,,,,,,,,
116703,1560691388508,1,2.57,1.91,3.68,2.03,5.07,0.98,-0.53,0.28,21,-5,20,1.12,4837,8,88,35,40,952,302.0,380,458,60,123.0,118,1,292,198,36,0,0,195,-1,85,302,,,,,,,,,,,,
116723,1560691388528,2,2.56,1.96,3.68,2.05,5.05,1.09,-0.53,0.26,21,-5,23,1.21,4718,8,88,35,41,951,302.0,369,465,60,123.0,118,1,289,196,36,0,0,194,-1,90,298,,,,,,,,,,,,
116743,1560691388548,-1,2.58,1.98,3.64,2.05,5.05,1.15,-0.5,0.32,22,-9,25,1.25,4609,8,88,35,42,949,297.0,363,458,60,121.0,114,1,287,195,34,0,0,208,-1,85,297,45.699688,4.910641,30.28,197.0,0,0.0,0,0.0,1.7142,1,0.68,1.9457
116763,1560691388568,-0,2.57,1.99,3.62,2.06,5.07,1.23,-0.44,0.39,22,-11,26,1.31,4516,8,88,35,42,947,296.0,350,456,60,121.0,114,1,283,193,34,0,0,249,-1,20480,296,,,,,,,,,,,,
116783,1560691388588,-1,2.59,1.99,3.62,2.04,5.04,1.3,-0.41,0.44,22,-14,25,1.36,4479,8,88,35,43,945,293.0,347,456,60,122.0,114,1,285,194,34,0,0,244,-1,250,293,,,,,,,,,,,,
116803,1560691388608,-0,2.6,1.98,3.63,2.02,5.07,1.36,-0.38,0.39,23,-15,25,1.41,4543,8,88,35,43,944,290.0,348,458,60,122.0,114,1,287,196,34,0,0,232,14337,630,287,,,,,,,,,,,,
116823,1560691388628,3,2.61,1.95,3.67,1.99,5.04,1.32,-0.39,0.36,24,-18,27,1.38,4661,8,88,35,43,943,285.0,353,455,60,121.0,114,1,291,199,34,0,0,225,-1,-1,285,,,,,,,,,,,,
116843,1560691388648,3,2.61,1.94,3.68,1.97,5.04,1.21,-0.4,0.33,25,-16,28,1.27,4712,8,88,35,44,943,284.0,356,453,60,121.0,122,1,294,203,35,0,0,202,-1,-1281,284,45.69968,4.910636,28.33,197.0,0,0.0,0,0.0,1.7158,1,0.68,1.9474
116863,1560691388668,4,2.62,1.95,3.67,1.99,5.08,1.02,-0.41,0.27,26,-13,30,1.1,4672,8,88,36,44,944,283.0,360,457,60,122.0,122,1,293,202,35,0,0,197,10818,30208,283,,,,,,,,,,,,
116883,1560691388688,6,2.64,1.99,3.64,2.0,5.07,0.82,-0.43,0.2,28,-8,31,0.93,4618,8,88,36,45,942,285.0,357,453,60,122.0,122,1,294,203,35,0,0,214,16896,30208,285,,,,,,,,,,,,
116903,1560691388708,5,2.69,1.98,3.6,2.03,5.08,0.75,-0.52,0.2,28,-3,31,0.91,4570,9,88,36,45,939,284.0,357,455,60,122.0,122,1,293,202,35,0,0,237,250,250,282,,,,,,,,,,,,
116923,1560691388728,2,2.71,1.97,3.6,2.04,5.07,0.71,-0.58,0.2,29,0,31,0.92,4608,9,88,36,45,935,281.0,352,456,60,123.0,122,1,294,203,35,0,0,231,23482,-1,281,,,,,,,,,,,,
116943,1560691388748,0,2.72,1.95,3.64,2.05,5.05,0.74,-0.67,0.24,29,3,31,1.0,4633,9,88,36,45,930,279.0,356,457,60,122.0,124,1,294,204,35,0,0,227,250,-1,279,45.699673,4.910629,27.13,197.1,0,0.0,0,0.0,1.7175,1,0.69,1.949
116963,1560691388768,1,2.71,1.93,3.68,2.06,5.05,0.83,-0.73,0.32,30,3,30,1.1,4701,9,88,36,46,924,278.0,358,460,60,123.0,124,1,298,208,35,0,0,222,250,-1,278,,,,,,,,,,,,
116983,1560691388788,1,2.72,1.92,3.67,2.06,5.07,0.93,-0.73,0.31,30,-0,32,1.18,4654,10,88,36,47,917,279.0,356,460,60,123.0,124,1,300,210,35,0,0,219,13602,-1281,279,,,,,,,,,,,,
117003,1560691388810,-2,2.72,1.99,3.67,2.12,5.04,0.99,-0.71,0.32,30,-4,35,1.22,4644,12,88,36,48,913,278.0,356,466,60,122.0,124,1,300,212,35,0,0,220,-1494,-1,278,,,,,,,,,,,,
117023,1560691388830,-1,2.72,2.11,3.65,2.16,5.08,1.06,-0.68,0.35,31,-9,36,1.26,4591,13,88,36,49,911,276.0,352,458,60,121.0,124,1,299,214,35,0,0,224,10824,-1,276,,,,,,,,,,,,
117043,1560691388850,0,2.73,2.08,3.65,2.15,5.08,1.12,-0.64,0.42,32,-13,35,1.29,4562,14,88,36,50,908,272.0,355,453,60,121.0,135,1,298,218,37,0,0,222,18432,-1,272,45.699673,4.910622,26.53,197.1,0,0.0,0,0.0,1.7192,1,0.69,1.9507
117063,1560691388870,0,2.72,2.03,3.64,2.2,5.08,1.16,-0.67,0.42,32,-16,36,1.34,4537,14,88,36,51,905,272.0,348,463,60,122.0,135,1,298,221,37,0,0,219,10824,-1,272,,,,,,,,,,,,
117083,1560691388890,-0,2.72,2.01,3.57,2.24,5.04,1.15,-0.65,0.34,33,-18,39,1.32,4575,15,88,36,52,903,273.0,348,457,60,121.0,135,1,299,225,37,0,0,220,10318,-1,273,,,,,,,,,,,,
117103,1560691388910,2,2.72,1.98,3.55,2.29,5.08,1.1,-0.59,0.33,33,-21,42,1.24,4555,15,88,36,53,902,271.0,347,458,60,121.0,135,1,298,227,37,0,0,218,-1530,-1,271,,,,,,,,,,,,
117123,1560691388930,2,2.71,1.93,3.53,2.22,5.03,1.07,-0.55,0.31,34,-20,45,1.21,4553,15,88,36,53,900,272.0,348,456,60,121.0,135,1,298,227,37,0,0,217,-1530,-1,272,,,,,,,,,,,,
117143,1560691388950,1,2.72,1.94,3.49,2.21,5.07,0.98,-0.55,0.34,35,-19,46,1.12,4567,16,88,36,54,897,275.0,346,457,60,121.0,143,1,298,231,39,0,0,218,10318,-1,275,45.699669,4.910615,25.56,197.1,0,0.0,0,0.0,1.7208,1,0.69,1.9524
117163,1560691388970,3,2.72,1.95,3.48,2.29,5.04,0.91,-0.57,0.35,36,-18,45,1.07,4546,16,88,36,55,895,274.0,349,451,60,121.0,143,1,298,235,39,0,0,219,19968,-1,274,,,,,,,,,,,,
117183,1560691388990,5,2.72,1.96,3.48,2.35,5.04,0.81,-0.63,0.32,36,-16,45,1.02,4578,16,88,36,56,894,272.0,342,452,60,121.0,143,1,297,240,39,0,0,217,1596,-1,272,,,,,,,,,,,,
117203,1560691389002,3,2.75,1.96,3.48,2.36,5.06,0.71,-0.68,0.26,36,-15,45,0.98,4565,16,88,36,57,892,269.0,348,455,60,122.0,143,1,296,244,39,0,0,216,250,-1,269,,,,,,,,,,,,
117223,1560691389022,3,2.74,1.96,3.52,2.35,5.04,0.54,-0.75,0.2,37,-11,46,0.93,4619,17,88,36,57,890,268.0,347,455,60,122.0,143,1,297,250,39,0,0,215,250,-1,268,,,,,,,,,,,,
117243,1560691389042,-1,2.74,1.95,3.53,2.34,5.06,0.49,-0.78,0.23,36,-5,46,0.92,4621,17,88,36,58,889,269.0,351,454,60,122.0,160,1,296,250,43,0,0,216,250,14337,269,45.699665,4.910607,24.75,197.1,0,0.0,0,0.0,1.7225,1,0.69,1.9541
117263,1560691389062,0,2.72,1.94,3.53,2.34,5.03,0.49,-0.85,0.27,36,-2,44,0.98,4669,17,88,36,59,889,269.0,348,461,60,123.0,160,1,296,254,43,0,0,215,1596,-41,270,,,,,,,,,,,,
117283,1560691389082,-0,2.72,1.95,3.52,2.37,5.07,0.61,-0.89,0.32,36,-3,43,1.08,4688,17,88,36,60,890,271.0,351,460,60,123.0,160,1,295,259,43,0,0,216,250,-1,271,,,,,,,,,,,,
117303,1560691389104,1,2.72,1.94,3.52,2.36,5.07,0.75,-0.88,0.38,36,-5,43,1.15,4706,17,88,36,61,892,268.0,356,465,60,122.0,160,1,294,264,43,0,0,216,250,-1,268,,,,,,,,,,,,
117323,1560691389124,-1,2.72,1.95,3.52,2.36,5.05,0.87,-0.84,0.37,36,-8,45,1.21,4756,18,88,36,61,893,267.0,357,464,60,121.0,160,1,294,264,43,0,0,214,-1532,-10440,267,,,,,,,,,,,,
117343,1560691389144,4,2.7,1.95,3.52,2.35,5.03,0.79,-0.83,0.37,36,-8,46,1.15,4788,18,88,36,61,894,266.0,360,454,60,121.0,176,1,294,270,47,0,0,213,250,506,266,45.699661,4.9106,24.36,197.1,0,0.0,0,0.0,1.7242,1,0.69,1.9557
117363,1560691389164,2,2.69,2.0,3.58,2.32,5.05,0.63,-0.78,0.36,35,-3,45,1.01,4846,18,88,36,62,897,264.0,364,442,60,121.0,176,1,294,271,47,0,0,214,15360,-1281,264,,,,,,,,,,,,
117383,1560691389184,-2,2.68,2.04,3.65,2.27,5.04,0.68,-0.78,0.42,33,-0,42,1.03,4833,18,88,36,63,900,262.0,364,458,60,123.0,176,1,293,271,47,0,0,216,-1530,14337,262,,,,,,,,,,,,
117403,1560691389210,1,2.65,2.07,3.6,2.22,5.04,0.77,-0.74,0.42,32,-3,42,1.07,4832,18,88,36,63,904,263.0,367,465,60,122.0,176,1,293,277,47,0,0,226,250,506,263,,,,,,,,,,,,
117423,1560691389230,1,2.62,2.11,3.51,2.22,5.08,0.84,-0.71,0.44,32,-4,44,1.1,4709,18,88,36,64,905,263.0,362,468,60,122.0,176,1,292,282,47,0,0,230,10318,-1,263,,,,,,,,,,,,
117443,1560691389250,1,2.6,2.18,3.46,2.23,5.04,0.82,-0.67,0.5,31,-4,44,1.06,4603,18,88,36,64,908,264.0,356,452,60,121.0,190,1,293,281,50,0,0,236,-1496,-41,264,45.699657,4.910592,24.3,197.0,0,0.0,0,0.0,1.7258,1,0.69,1.9574
117463,1560691389270,-1,2.59,2.21,3.42,2.23,5.05,0.81,-0.61,0.52,31,-5,43,1.01,4470,18,88,36,64,913,264.0,351,454,60,120.0,190,1,293,280,50,0,0,232,18432,-1,264,,,,,,,,,,,,
117483,1560691389290,-0,2.55,2.2,3.43,2.23,5.07,0.8,-0.54,0.5,30,-6,42,0.96,4449,18,88,36,64,918,263.0,343,460,60,122.0,190,1,293,279,50,0,0,230,10824,-10440,263,,,,,,,,,,,,
117503,1560691389307,1,2.53,2.21,3.43,2.2,5.05,0.85,-0.52,0.48,30,-7,42,1.0,4460,18,88,36,64,923,262.0,337,464,60,122.0,190,1,293,280,50,0,0,230,-1494,14337,262,,,,,,,,,,,,
117523,1560691389327,-0,2.52,2.21,3.42,2.17,5.05,0.92,-0.46,0.51,29,-10,41,1.03,4498,18,88,36,65,927,262.0,341,454,60,121.0,190,1,293,286,50,0,0,231,13602,-1,262,,,,,,,,,,,,
117543,1560691389347,0,2.51,2.21,3.42,2.18,5.05,0.97,-0.43,0.53,29,-13,39,1.06,4574,19,88,36,65,936,260.0,341,454,60,121.0,183,1,292,286,48,0,0,232,13602,14337,260,45.699657,4.910583,23.98,197.0,0,0.0,0,0.0,1.7275,1,0.69,1.959
117563,1560691389367,0,2.51,2.21,3.41,2.18,5.07,1.01,-0.38,0.52,28,-14,37,1.07,4606,19,88,36,65,946,259.0,347,460,60,122.0,183,1,292,288,48,0,0,233,13602,14337,259,,,,,,,,,,,,
117583,1560691389387,3,2.49,2.2,3.41,2.18,5.06,1.01,-0.33,0.5,27,-13,36,1.07,4639,19,88,36,66,952,259.0,345,447,60,121.0,183,1,292,294,48,0,0,234,13602,-1281,259,,,,,,,,,,,,
117603,1560691389409,4,2.49,2.18,3.4,2.2,5.08,0.88,-0.34,0.47,27,-9,34,0.95,4674,19,88,36,66,957,258.0,350,446,60,120.0,183,1,291,295,48,0,0,235,-1483,506,258,,,,,,,,,,,,
117623,1560691389429,2,2.48,2.16,3.36,2.19,5.05,0.75,-0.4,0.45,25,-5,33,0.85,4680,19,88,36,66,964,259.0,353,451,60,123.0,183,1,291,295,48,0,0,238,250,-41,259,,,,,,,,,,,,
117643,1560691389449,-1,2.46,2.17,3.34,2.19,5.05,0.71,-0.43,0.39,24,-2,31,0.83,4678,19,88,36,66,970,260.0,351,453,60,123.0,200,1,291,295,52,0,0,238,-25600,-10440,260,45.699654,4.910574,24.26,197.0,0,0.0,0,0.0,1.7292,1,0.69,1.9607
117663,1560691389469,-2,2.44,2.17,3.32,2.19,5.05,0.78,-0.43,0.41,22,-1,30,0.89,4651,19,88,36,67,972,259.0,351,458,60,123.0,200,1,290,295,52,0,0,241,13468,14337,259,,,,,,,,,,,,
117683,1560691389489,-1,2.39,2.17,3.3,2.19,5.04,0.9,-0.39,0.47,20,-3,30,0.98,4634,19,88,36,67,973,258.0,347,466,60,123.0,200,1,291,300,52,0,0,240,250,-10440,258,,,,,,,,,,,,
117703,1560691389509,1,2.33,2.17,3.26,2.19,5.07,1.02,-0.34,0.61,18,-6,29,1.07,4631,19,88,36,67,969,256.0,350,468,60,122.0,200,1,291,300,52,0,0,242,-1484,14337,256,,,,,,,,,,,,
117723,1560691389529,0,2.26,2.22,3.22,2.18,5.07,1.1,-0.21,0.63,16,-8,28,1.12,4642,19,88,36,67,964,255.0,351,464,60,122.0,200,1,291,300,52,0,0,243,23482,-1,255,,,,,,,,,,,,
117743,1560691389549,-1,2.2,2.26,3.19,2.12,5.06,1.14,-0.08,0.61,14,-10,25,1.14,4667,19,88,36,67,959,251.0,351,455,60,121.0,207,1,290,301,53,0,0,247,10812,-1,251,45.699654,4.910566,24.74,197.0,0,0.0,0,0.0,1.7308,1,0.69,1.9624
117763,1560691389569,2,2.13,2.27,3.15,1.99,5.04,1.11,-0.01,0.55,13,-10,22,1.11,4713,19,88,36,67,954,252.0,353,460,60,121.0,207,1,290,301,53,0,0,251,-1,10818,250,,,,,,,,,,,,
117783,1560691389589,4,2.08,2.35,3.14,1.98,5.03,0.99,0.05,0.48,11,-7,17,0.99,4695,19,88,36,67,947,255.0,357,445,60,122.0,207,1,290,301,53,0,0,256,-1281,10812,246,,,,,,,,,,,,
117803,1560691389609,1,2.02,2.38,3.14,1.97,5.03,0.87,0.05,0.44,8,-3,13,0.87,4740,19,88,36,67,939,260.0,355,451,60,123.0,207,1,289,302,53,0,0,258,-1,-1494,245,,,,,,,,,,,,
117823,1560691389629,-1,1.96,2.41,3.15,1.95,5.04,0.86,0.06,0.47,4,-3,9,0.86,4742,19,88,36,67,935,261.0,358,453,60,122.0,207,1,289,302,53,0,0,259,-1,250,242,,,,,,,,,,,,
117843,1560691389649,-0,1.91,2.45,3.15,1.92,5.08,0.92,0.03,0.52,1,-2,6,0.92,4754,19,88,36,68,933,263.0,356,466,60,123.0,223,1,288,310,54,0,0,260,-1,15360,240,45.699654,4.910557,24.85,197.0,0,0.0,0,0.0,1.7325,1,0.69,1.9641
117863,1560691389669,-2,1.87,2.52,3.12,1.92,5.05,0.98,0.16,0.49,-1,-4,3,0.99,4761,19,88,36,68,932,268.0,359,466,60,121.0,223,1,288,310,54,0,0,267,-1,-17920,239,,,,,,,,,,,,
117883,1560691389689,2,1.81,2.58,3.11,1.92,5.05,0.95,0.29,0.45,-3,-4,0,0.99,4718,19,88,36,67,933,270.0,366,451,60,120.0,223,1,289,309,54,0,0,268,-1,250,236,,,,,,,,,,,,
117903,1560691389709,5,1.76,2.63,3.11,1.92,5.06,0.86,0.4,0.37,-5,-2,-4,0.95,4762,19,88,36,67,935,272.0,359,448,60,122.0,223,1,289,303,54,0,0,268,250,13468,233,,,,,,,,,,,,
117923,1560691389729,0,1.72,2.61,3.11,1.86,5.08,0.83,0.42,0.36,-8,1,-8,0.93,4746,19,88,36,68,938,270.0,360,457,60,123.0,223,1,288,309,54,0,0,268,-1,13468,234,,,,,,,,,,,,
117943,1560691389749,0,1.69,2.59,3.09,1.82,5.04,0.81,0.42,0.37,-13,1,-12,0.91,4738,19,88,36,67,939,275.0,358,458,60,122.0,235,1,289,302,55,0,0,269,250,-1483,234,45.699654,4.910548,24.08,197.0,0,0.0,0,0.0,1.7342,1,0.69,1.9657
117963,1560691389769,0,1.69,2.6,3.05,1.81,5.04,0.91,0.42,0.35,-16,-2,-16,1.01,4727,19,88,36,68,937,282.0,355,467,60,122.0,235,1,288,309,55,0,0,273,1886,8704,231,,,,,,,,,,,,
117983,1560691389789,-2,1.68,2.59,3.0,1.81,5.04,1.03,0.54,0.46,-18,-3,-19,1.16,4714,20,88,36,68,934,277.0,360,465,60,122.0,235,1,289,309,55,0,0,274,30208,-17920,229,,,,,,,,,,,,
118003,1560691389809,1,1.66,2.57,2.99,1.8,5.04,1.09,0.66,0.47,-20,-5,-22,1.27,4698,20,88,36,69,929,279.0,356,468,60,122.0,235,1,288,313,55,0,0,276,-1534,-1496,228,,,,,,,,,,,,
118023,1560691389829,4,1.63,2.58,2.99,1.8,5.07,1.05,0.78,0.39,-21,-4,-26,1.31,4726,21,88,36,69,924,281.0,359,460,60,120.0,235,1,288,313,55,0,0,273,24064,10318,229,,,,,,,,,,,,
118043,1560691389849,5,1.62,2.57,3.0,1.8,5.08,0.93,0.8,0.31,-23,-2,-30,1.23,4763,21,88,36,69,920,282.0,357,449,60,123.0,244,1,288,314,56,0,0,275,1886,13602,228,45.699654,4.910539,23.77,197.0,0,0.0,0,0.0,1.7358,1,0.69,1.9674
118063,1560691389869,0,1.59,2.57,3.01,1.81,5.04,0.89,0.74,0.3,-26,1,-32,1.16,4770,22,88,36,69,918,282.0,360,455,60,123.0,244,1,288,314,56,0,0,273,250,13602,228,,,,,,,,,,,,
118083,1560691389889,-2,1.57,2.57,3.03,1.8,5.07,0.95,0.74,0.47,-28,-1,-35,1.21,4789,22,88,36,70,919,284.0,362,463,60,123.0,244,1,287,314,56,0,0,275,250,-1483,229,,,,,,,,,,,,
118103,1560691389909,1,1.53,2.56,3.03,1.8,5.04,1.02,0.83,0.47,-31,-4,-39,1.32,4796,23,88,36,70,919,287.0,360,458,60,122.0,244,1,287,319,56,0,0,277,41,23482,228,,,,,,,,,,,,
118123,1560691389929,3,1.5,2.56,2.99,1.79,5.08,0.98,0.94,0.31,-31,-3,-40,1.35,4868,23,88,36,71,917,286.0,365,460,60,121.0,244,1,286,325,56,0,0,280,10686,250,227,,,,,,,,,,,,
118143,1560691389949,-1,1.47,2.56,2.96,1.77,5.04,0.86,0.95,0.33,-33,3,-42,1.28,4914,23,88,36,71,915,284.0,369,452,60,122.0,266,1,285,326,60,0,0,279,0,23482,225,45.69965,4.910531,23.5,197.1,0,0.0,0,0.0,1.7375,1,0.69,1.969
118163,1560691389969,-0,1.46,2.56,2.97,1.78,5.05,0.92,0.86,0.42,-36,-1,-47,1.26,4898,23,88,36,71,912,282.0,370,461,60,123.0,266,1,285,325,60,0,0,278,250,-1,223,,,,,,,,,,,,
118183,1560691389989,1,1.48,2.56,2.99,1.76,5.04,1.03,0.84,0.37,-37,-4,-50,1.33,4990,23,88,36,72,908,283.0,375,455,60,121.0,266,1,283,333,60,0,0,277,-1529,-10440,222,,,,,,,,,,,,
118203,1560691390003,-1,1.48,2.56,2.99,1.77,5.04,0.93,0.82,0.25,-38,1,-52,1.24,5097,24,88,36,71,898,286.0,382,457,60,122.0,266,1,290,337,60,0,0,275,10686,10818,224,,,,,,,,,,,,
118223,1560691390023,2,1.47,2.55,2.96,1.78,5.07,1.04,0.79,0.32,-41,-2,-55,1.31,5128,24,88,36,72,889,286.0,383,465,60,122.0,266,1,291,332,60,0,0,280,10686,250,223,,,,,,,,,,,,
118243,1560691390043,4,1.47,2.58,2.93,1.78,5.05,0.93,0.84,0.31,-40,-2,-56,1.25,5096,24,88,36,71,881,285.0,390,450,60,122.0,286,1,290,331,64,0,0,279,-16896,-1534,220,45.699646,4.910523,22.91,197.1,0,0.0,0,0.0,1.7392,1,0.69,1.9707
118263,1560691390063,-0,1.47,2.58,2.94,1.78,5.06,0.93,0.79,0.37,-43,2,-59,1.22,5107,24,88,36,71,875,283.0,387,456,60,123.0,286,1,290,325,64,0,0,276,24064,-1281,220,,,,,,,,,,,,
118283,1560691390083,3,1.47,2.57,2.96,1.79,5.05,1.04,0.83,0.43,-43,-3,-58,1.33,5106,24,88,36,71,869,280.0,390,453,60,120.0,286,1,292,331,64,0,0,276,250,10686,222,,,,,,,,,,,,
118303,1560691390107,-0,1.48,2.57,2.97,1.76,5.08,0.85,0.84,0.39,-43,1,-58,1.2,5156,24,88,36,71,864,281.0,391,457,60,123.0,286,1,294,332,64,0,0,275,24064,630,223,,,,,,,,,,,,
118323,1560691390127,3,1.48,2.56,2.99,1.76,5.08,0.96,0.82,0.46,-45,-2,-60,1.27,5246,24,88,36,71,865,283.0,398,470,60,121.0,286,1,301,334,64,0,0,278,-1529,-1,221,,,,,,,,,,,,
118343,1560691390147,-1,1.49,2.56,2.96,1.75,5.07,0.85,0.86,0.41,-45,-0,-62,1.21,5281,24,88,36,70,867,287.0,400,446,60,122.0,295,1,303,328,66,0,0,281,41,0,224,45.699642,4.910516,22.55,197.0,0,0.0,0,0.0,1.7408,1,0.69,1.9724
118363,1560691390167,5,1.48,2.56,2.96,1.77,5.05,0.96,0.88,0.41,-46,-1,-65,1.31,5310,24,88,36,70,872,288.0,401,459,60,121.0,295,1,308,327,66,0,0,278,10686,0,220,,,,,,,,,,,,
118383,1560691390187,-0,1.48,2.56,2.95,1.81,5.06,0.82,0.85,0.4,-46,-0,-64,1.19,5374,24,88,36,69,878,286.0,406,455,60,123.0,295,1,311,321,66,0,0,280,10686,250,221,,,,,,,,,,,,
118403,1560691390209,5,1.47,2.61,2.95,1.89,5.07,0.85,0.96,0.39,-45,0,-63,1.28,5349,24,88,36,69,880,282.0,409,452,60,121.0,295,1,309,320,66,0,0,281,1886,250,220,,,,,,,,,,,,
118423,1560691390229,-1,1.47,2.53,2.94,1.8,5.04,0.91,1.02,0.47,-48,-2,-65,1.36,5337,24,88,36,69,884,283.0,404,457,60,123.0,295,1,308,320,66,0,0,283,-1529,25600,220,,,,,,,,,,,,
118443,1560691390249,0,1.49,2.39,2.87,1.54,5.04,0.94,1.02,0.4,-50,-3,-63,1.39,5313,25,88,36,69,888,289.0,407,450,60,120.0,281,1,307,320,62,0,0,286,0,90,232,45.699638,4.91051,23.13,197.0,0,0.0,0,0.0,1.7425,1,0.7,1.974
118463,1560691390269,2,1.5,2.39,2.84,1.47,5.03,1.0,0.96,0.36,-52,-2,-64,1.39,5305,25,88,36,69,892,298.0,405,467,60,122.0,281,1,306,320,62,0,0,287,95,21760,226,,,,,,,,,,,,
118483,1560691390289,-0,1.48,2.38,2.86,1.48,5.07,0.89,1.07,0.32,-52,-0,-64,1.39,5361,25,88,36,69,894,299.0,410,448,60,122.0,281,1,310,320,62,0,0,287,25600,95,226,,,,,,,,,,,,
118503,1560691390310,4,1.48,2.39,2.87,1.52,5.05,0.99,1.01,0.38,-53,-3,-64,1.41,5434,25,88,36,69,894,298.0,413,469,60,121.0,281,1,317,320,62,0,0,288,95,105,225,,,,,,,,,,,,
118523,1560691390330,2,1.47,2.43,2.88,1.6,5.07,0.94,1.04,0.44,-54,0,-66,1.4,5558,25,88,36,68,895,299.0,416,456,60,122.0,281,1,325,310,62,0,0,288,95,0,224,,,,,,,,,,,,
118543,1560691390350,-1,1.47,2.47,2.88,1.73,5.08,0.9,1.01,0.4,-54,2,-68,1.35,5652,25,88,36,67,893,297.0,424,450,60,121.0,290,1,335,300,65,0,0,291,24320,26880,226,45.699635,4.910504,22.96,197.1,0,0.0,0,0.0,1.7442,1,0.7,1.9757
118563,1560691390370,0,1.47,2.52,2.89,1.76,5.06,0.95,1.01,0.35,-54,0,-69,1.38,5712,25,88,36,67,891,296.0,427,457,60,120.0,290,1,339,299,65,0,0,291,90,41,224,,,,,,,,,,,,
118583,1560691390390,5,1.48,2.56,2.88,1.78,5.07,1.0,0.95,0.32,-57,0,-70,1.38,5681,25,88,36,66,890,296.0,427,472,60,122.0,290,1,340,292,65,0,0,294,90,-29696,226,,,,,,,,,,,,
118603,1560691390408,3,1.48,2.59,2.93,1.81,5.03,0.95,0.88,0.4,-59,1,-70,1.29,5656,25,88,36,65,886,296.0,431,461,60,122.0,290,1,341,284,65,0,0,299,21760,13,228,,,,,,,,,,,,
118623,1560691390428,-0,1.48,2.63,3.03,1.8,5.04,0.82,0.96,0.39,-59,0,-70,1.27,5711,25,88,36,65,880,295.0,433,452,60,122.0,290,1,345,283,65,0,0,299,23040,-32256,226,,,,,,,,,,,,
118643,1560691390448,-2,1.49,2.62,2.83,1.81,5.06,0.81,1.07,0.44,-56,0,-71,1.34,5772,25,88,36,64,874,297.0,437,454,60,122.0,271,1,353,275,61,0,0,295,24320,105,227,45.699631,4.9105,22.89,197.1,0,0.0,0,0.0,1.7458,1,0.7,1.9774
118663,1560691390468,0,1.51,2.59,2.68,1.8,5.04,0.93,1.16,0.43,-55,-1,-73,1.49,5756,25,88,36,64,869,295.0,438,453,60,122.0,271,1,351,275,61,0,0,300,25600,85,227,,,,,,,,,,,,
118683,1560691390488,1,1.52,2.57,2.61,1.79,5.05,1.02,1.15,0.43,-55,-4,-74,1.53,5688,25,88,36,63,865,296.0,440,455,60,120.0,271,1,349,276,61,0,0,296,90,-27136,229,,,,,,,,,,,,
118703,1560691390510,4,1.56,2.55,2.56,1.78,5.06,1.03,1.06,0.52,-57,-3,-74,1.48,5688,25,88,36,64,859,300.0,437,462,60,121.0,271,1,346,276,61,0,0,301,100,-24576,233,,,,,,,,,,,,
118723,1560691390530,1,1.6,2.55,2.55,1.76,5.04,0.96,1.01,0.54,-58,-0,-74,1.4,5620,25,88,36,64,855,299.0,431,458,60,122.0,271,1,340,270,61,0,0,301,25600,630,235,,,,,,,,,,,,
118743,1560691390550,-2,1.66,2.55,2.57,1.77,5.04,0.94,1.05,0.53,-55,-3,-74,1.41,5474,25,88,36,64,851,303.0,425,455,60,122.0,240,1,329,279,57,0,0,299,28160,90,239,45.699627,4.910496,24.2,197.0,0,0.0,0,0.0,1.7475,1,0.7,1.979
118763,1560691390570,3,1.72,2.54,2.68,1.78,5.07,1.01,1.0,0.62,-56,-6,-76,1.42,5357,25,88,36,65,848,306.0,415,461,60,122.0,240,1,317,288,57,0,0,300,115,-23296,239,,,,,,,,,,,,
118783,1560691390590,-2,1.77,2.55,2.82,1.85,5.05,0.87,1.0,0.56,-54,-5,-75,1.33,5344,26,88,36,66,843,306.0,410,445,60,123.0,240,1,314,296,57,0,0,299,115,30208,242,,,,,,,,,,,,
118803,1560691390608,4,1.81,2.55,2.98,1.88,5.08,0.96,0.87,0.65,-54,-8,-75,1.29,5366,26,88,36,67,839,301.0,410,468,60,121.0,240,1,314,304,57,0,0,297,26880,-1534,245,,,,,,,,,,,,
118823,1560691390628,0,1.85,2.54,3.09,1.94,5.05,0.86,0.81,0.66,-53,-5,-73,1.18,5412,26,88,36,67,835,304.0,408,456,60,123.0,240,1,317,303,57,0,0,296,110,-1534,246,,,,,,,,,,,,
118843,1560691390648,-0,1.88,2.55,3.11,1.98,5.06,0.88,0.79,0.66,-50,-5,-71,1.18,5455,26,88,36,68,830,302.0,415,457,60,120.0,252,1,317,311,62,0,0,297,105,41,251,45.699619,4.910495,24.7,197.0,0,0.0,0,0.0,1.7492,1,0.7,1.9807
118863,1560691390668,4,1.91,2.55,3.1,2.03,5.08,0.94,0.65,0.73,-51,-7,-70,1.14,5500,26,88,36,67,825,301.0,414,460,60,121.0,252,1,324,302,62,0,0,296,26880,115,251,,,,,,,,,,,,
118883,1560691390688,0,1.94,2.55,3.03,2.04,5.07,0.78,0.62,0.74,-50,-4,-67,1.0,5630,26,88,36,67,822,298.0,423,451,60,123.0,252,1,333,301,62,0,0,295,95,30208,252,,,,,,,,,,,,
118903,1560691390708,0,1.95,2.55,2.94,2.03,5.06,0.69,0.7,0.76,-47,-2,-64,0.98,5676,26,88,36,66,818,298.0,435,450,60,123.0,252,1,340,300,62,0,0,297,95,2414,256,,,,,,,,,,,,
118923,1560691390728,-0,1.99,2.53,2.86,2.01,5.07,0.79,0.77,0.73,-42,-2,-61,1.1,5617,26,88,36,66,816,297.0,431,457,60,121.0,252,1,335,293,62,0,0,295,24320,80,260,,,,,,,,,,,,
118943,1560691390748,3,2.01,2.52,2.85,2.0,5.05,0.91,0.81,0.75,-41,-4,-59,1.22,5550,26,88,36,66,812,298.0,425,461,60,121.0,236,1,327,294,62,0,0,299,95,-28416,266,45.699612,4.910494,25.63,197.0,0,0.0,0,0.0,1.7508,1,0.7,1.9824
118963,1560691390768,1,2.04,2.48,2.86,2.01,5.08,0.73,0.71,0.78,-39,3,-59,1.02,5500,26,88,36,66,811,299.0,422,458,60,123.0,236,1,326,294,62,0,0,299,25600,23040,272,,,,,,,,,,,,
118983,1560691390788,-1,2.08,2.46,2.92,2.04,5.08,0.67,0.68,0.69,-35,3,-54,0.96,5468,27,88,36,67,809,298.0,420,459,60,120.0,236,1,321,303,62,0,0,299,100,-16896,274,,,,,,,,,,,,
119003,1560691390806,3,2.1,2.46,3.0,2.09,5.06,0.81,0.64,0.8,-34,-1,-50,1.03,5419,27,88,36,68,810,298.0,412,462,60,122.0,236,1,315,311,62,0,0,299,95,20480,277,,,,,,,,,,,,
119023,1560691390826,1,2.13,2.46,3.04,2.13,5.04,0.63,0.54,0.8,-32,3,-48,0.83,5378,28,88,36,68,818,298.0,410,457,60,123.0,236,1,311,312,62,0,0,298,95,80,279,,,,,,,,,,,,
119043,1560691390846,5,2.17,2.46,3.12,2.11,5.08,0.66,0.52,0.73,-28,-0,-46,0.84,5405,30,88,36,70,827,299.0,412,468,60,122.0,232,1,312,320,65,0,0,300,25600,0,281,45.699608,4.910494,26.48,197.0,0,0.0,0,0.0,1.7525,1,0.7,1.984
119063,1560691390866,2,2.2,2.46,3.25,2.1,5.06,0.69,0.43,0.75,-27,1,-44,0.81,5487,31,88,36,70,836,299.0,411,457,60,123.0,232,1,319,330,65,0,0,300,25600,0,283,,,,,,,,,,,,
119083,1560691390886,2,2.23,2.46,3.3,2.11,5.07,0.59,0.34,0.73,-24,2,-41,0.68,5608,32,88,36,71,844,297.0,417,452,60,122.0,232,1,326,343,65,0,0,300,24320,0,286,,,,,,,,,,,,
119103,1560691390910,-2,2.27,2.46,3.32,2.1,5.06,0.59,0.31,0.7,-20,-0,-37,0.67,5707,33,88,36,71,852,300.0,426,456,60,121.0,232,1,333,345,65,0,0,301,100,90,290,,,,,,,,,,,,
119123,1560691390930,1,2.29,2.46,3.32,2.1,5.06,0.64,0.3,0.7,-19,-2,-33,0.71,5806,35,88,36,71,860,300.0,434,461,60,121.0,232,1,340,347,65,0,0,304,100,28160,291,,,,,,,,,,,,
119143,1560691390950,2,2.33,2.46,3.26,2.12,5.05,0.75,0.27,0.71,-19,-2,-29,0.79,5853,38,88,36,72,860,300.0,436,463,60,121.0,261,1,343,349,76,0,0,305,100,29440,295,45.6996,4.910495,27.66,197.0,0,0.0,0,0.0,1.7542,1,0.7,1.9857
119163,1560691390970,5,2.35,2.46,3.21,2.12,5.05,0.82,0.15,0.74,-19,1,-27,0.83,5892,39,88,35,72,861,300.0,437,465,60,122.0,261,1,345,365,76,0,0,305,100,32000,301,,,,,,,,,,,,
119183,1560691390990,5,2.38,2.46,3.21,2.12,5.06,0.83,0.01,0.79,-16,3,-25,0.83,5901,40,88,35,73,863,304.0,440,459,60,122.0,261,1,345,365,76,0,0,310,105,-29696,304,,,,,,,,,,,,
119203,1560691391004,4,2.4,2.46,3.25,2.12,5.05,0.8,-0.04,0.78,-13,5,-21,0.8,5903,41,88,35,73,865,308.0,441,463,60,122.0,261,1,345,379,76,0,0,315,105,-27136,308,,,,,,,,,,,,
119223,1560691391024,5,2.43,2.44,3.28,2.14,5.06,0.76,-0.16,0.82,-10,4,-18,0.78,5914,42,88,35,74,869,315.0,441,462,60,122.0,261,1,345,395,76,0,0,317,29440,-27136,315,,,,,,,,,,,,
119243,1560691391044,3,2.48,2.42,3.27,2.18,5.08,0.68,-0.28,0.85,-6,4,-15,0.74,5967,42,88,35,74,872,319.0,446,453,60,123.0,282,1,348,398,89,0,0,316,29440,-24576,319,45.699593,4.910496,28.47,197.0,0,0.0,0,0.0,1.7558,1,0.7,1.9874
119263,1560691391064,2,2.51,2.41,3.3,2.24,5.05,0.63,-0.37,0.84,-3,4,-12,0.73,6052,42,88,35,75,889,324.0,446,459,60,122.0,282,1,351,416,89,0,0,325,120,-20736,324,,,,,,,,,,,,
119283,1560691391084,3,2.53,2.4,3.33,2.29,5.04,0.57,-0.41,0.81,0,4,-10,0.71,6153,43,88,35,75,906,330.0,452,455,60,123.0,282,1,355,418,89,0,0,327,120,-32559,330,,,,,,,,,,,,
119303,1560691391108,1,2.55,2.39,3.36,2.35,5.08,0.57,-0.41,0.78,2,3,-7,0.7,6243,44,88,35,75,921,333.0,459,458,60,121.0,282,1,358,419,89,0,0,334,125,-31222,333,,,,,,,,,,,,
119323,1560691391128,-0,2.58,2.37,3.39,2.39,5.06,0.53,-0.45,0.78,4,3,-4,0.69,6340,44,88,35,76,935,337.0,467,462,60,121.0,282,1,359,435,89,0,0,343,32000,-10554,337,,,,,,,,,,,,
119343,1560691391148,3,2.59,2.36,3.38,2.43,5.05,0.55,-0.47,0.79,7,3,-2,0.72,6423,45,88,35,76,956,342.0,476,453,60,122.0,307,1,361,436,104,0,0,332,32000,6870,342,45.699585,4.910497,29.85,197.0,0,0.0,0,0.0,1.7575,1,0.7,1.989
119363,1560691391168,6,2.61,2.36,3.36,2.47,5.07,0.56,-0.56,0.79,9,3,0,0.79,6490,45,88,35,77,977,344.0,479,454,60,122.0,307,1,364,436,104,0,0,334,125,-30454,344,,,,,,,,,,,,
119383,1560691391188,1,2.63,2.34,3.36,2.49,5.06,0.6,-0.55,0.69,10,2,4,0.81,6521,45,88,35,77,988,348.0,487,458,60,120.0,307,1,365,443,104,0,0,346,130,28553,348,,,,,,,,,,,,
119403,1560691391208,5,2.64,2.31,3.35,2.52,5.07,0.6,-0.57,0.8,13,1,10,0.83,6585,45,88,35,77,994,352.0,492,457,60,122.0,307,1,367,443,104,0,0,362,130,3302,352,,,,,,,,,,,,
119423,1560691391228,2,2.64,2.3,3.34,2.54,5.04,0.63,-0.63,0.76,14,3,13,0.89,6686,46,88,35,77,1001,356.0,495,457,60,121.0,307,1,372,444,104,0,0,349,-29696,-14707,356,,,,,,,,,,,,
119443,1560691391248,5,2.65,2.29,3.34,2.53,5.08,0.59,-0.66,0.81,16,2,17,0.88,6810,46,88,35,77,1009,358.0,501,451,60,122.0,317,1,374,446,113,0,0,356,135,2790,358,45.699577,4.910498,30.82,197.0,0,0.0,0,0.0,1.7592,1,0.7,1.9907
119463,1560691391268,1,2.65,2.29,3.35,2.52,5.05,0.65,-0.66,0.86,17,2,19,0.92,6845,46,88,35,77,1013,358.0,501,462,60,121.0,317,1,375,440,113,0,0,370,140,-6656,358,,,,,,,,,,,,
119483,1560691391288,5,2.65,2.26,3.37,2.52,5.03,0.64,-0.7,0.93,19,-1,20,0.95,6923,46,88,35,76,1015,363.0,502,452,60,122.0,317,1,378,441,113,0,0,376,155,486,363,,,,,,,,,,,,
119503,1560691391307,2,2.65,2.24,3.37,2.53,5.06,0.71,-0.76,0.98,20,-2,22,1.04,7019,47,88,35,76,1012,370.0,504,461,60,120.0,317,1,382,441,113,0,0,378,155,0,370,,,,,,,,,,,,
119523,1560691391327,2,2.63,2.24,3.38,2.53,5.04,0.68,-0.83,0.92,21,-3,23,1.07,7088,47,88,35,76,1008,374.0,507,452,60,122.0,317,1,386,427,113,0,0,379,-23296,742,374,,,,,,,,,,,,
119543,1560691391347,-1,2.65,2.24,3.41,2.54,5.05,0.74,-0.8,0.95,22,-3,25,1.09,7140,47,88,35,75,1003,377.0,511,456,60,122.0,319,1,390,427,119,0,0,377,-23296,-18948,377,45.69957,4.910497,32.19,197.0,0,0.0,0,0.0,1.7608,1,0.7,1.9924
119563,1560691391367,1,2.64,2.25,3.43,2.54,5.06,0.8,-0.85,1.0,22,-3,29,1.17,7256,47,88,35,75,997,377.0,518,451,60,121.0,319,1,397,428,119,0,0,386,175,-6656,379,,,,,,,,,,,,
119583,1560691391387,2,2.64,2.25,3.43,2.52,5.05,0.74,-0.85,0.98,24,-1,30,1.13,7292,48,88,35,74,976,380.0,519,456,60,122.0,319,1,400,428,119,0,0,389,-12032,-6524,380,,,,,,,,,,,,
119603,1560691391409,5,2.61,2.25,3.49,2.51,5.05,0.7,-0.78,0.92,27,-0,29,1.05,7367,48,88,35,74,947,385.0,527,455,60,122.0,319,1,404,428,119,0,0,410,2560,-3866,385,,,,,,,,,,,,
119623,1560691391429,2,2.6,2.25,3.51,2.51,5.05,0.59,-0.79,0.87,28,1,28,0.99,7452,49,88,35,75,920,386.0,530,458,60,121.0,319,1,408,417,119,0,0,416,3327,-3968,389,,,,,,,,,,,,
119643,1560691391449,6,2.56,2.25,3.51,2.52,5.04,0.42,-0.78,0.78,30,1,30,0.88,7594,49,88,35,74,897,390.0,539,457,60,121.0,305,1,417,418,119,0,0,399,6668,17144,391,45.699562,4.910496,32.88,197.0,0,0.0,0,0.0,1.7625,1,0.7,1.994
119663,1560691391469,7,2.53,2.27,3.5,2.52,5.04,0.36,-0.78,0.73,30,3,33,0.86,7637,49,88,35,73,870,393.0,536,455,60,122.0,305,1,422,407,119,0,0,383,-30438,1504,392,,,,,,,,,,,,
119683,1560691391489,1,2.5,2.3,3.48,2.5,5.05,0.39,-0.78,0.8,31,5,35,0.87,7646,50,88,35,73,842,392.0,547,455,60,122.0,305,1,422,407,119,0,0,400,-30454,2524,393,,,,,,,,,,,,
119703,1560691391509,1,2.48,2.35,3.47,2.51,5.03,0.43,-0.77,0.85,30,5,34,0.88,7600,50,88,35,73,824,397.0,553,455,60,122.0,305,1,420,407,119,0,0,440,-6640,-26615,397,,,,,,,,,,,,
119723,1560691391529,-0,2.46,2.38,3.44,2.52,5.07,0.48,-0.86,0.84,29,4,33,0.99,7687,51,88,35,73,820,397.0,557,454,60,122.0,305,1,425,408,119,0,0,403,-29302,2524,397,,,,,,,,,,,,
119743,1560691391549,3,2.44,2.36,3.41,2.49,5.06,0.59,-0.86,0.85,28,6,32,1.04,7722,51,88,35,72,812,401.0,560,453,60,122.0,297,1,428,397,118,0,0,389,0,-21944,401,45.699551,4.910494,34.67,197.0,0,0.0,0,0.0,1.7642,1,0.71,1.9957
119763,1560691391569,3,2.42,2.34,3.31,2.46,5.07,0.58,-0.77,0.85,28,5,32,0.96,7754,52,88,35,73,798,407.0,563,455,60,122.0,297,1,428,409,118,0,0,398,2278,-21944,407,,,,,,,,,,,,
119783,1560691391589,4,2.41,2.33,3.25,2.46,5.04,0.57,-0.82,0.91,27,3,32,0.99,7744,53,88,35,73,785,409.0,555,456,60,120.0,297,1,428,408,118,0,0,411,19125,3826,409,,,,,,,,,,,,
119803,1560691391609,3,2.41,2.34,3.22,2.5,5.04,0.44,-0.75,0.91,26,2,31,0.87,7712,53,88,35,74,774,411.0,558,459,60,120.0,297,1,424,408,118,0,0,420,-6475,3826,411,,,,,,,,,,,,
119823,1560691391629,1,2.39,2.35,3.22,2.5,5.07,0.41,-0.56,0.86,24,2,30,0.7,7776,53,88,35,73,763,413.0,560,454,60,122.0,297,1,430,420,118,0,0,415,505,-3856,413,,,,,,,,,,,,
119843,1560691391649,2,2.39,2.35,3.26,2.48,5.04,0.47,-0.59,0.89,23,3,29,0.76,7841,53,88,35,73,750,414.0,568,455,60,122.0,290,1,433,410,120,0,0,425,-32702,3826,416,45.699543,4.91049,35.24,197.0,0,0.0,0,0.0,1.7658,1,0.71,1.9974
119863,1560691391669,4,2.39,2.34,3.28,2.46,5.07,0.59,-0.58,0.92,21,3,28,0.83,8005,55,88,35,73,741,418.0,567,456,60,121.0,290,1,443,413,120,0,0,431,10541,1779,418,,,,,,,,,,,,
119883,1560691391689,-0,2.39,2.36,3.3,2.45,5.07,0.6,-0.6,0.99,20,2,26,0.85,8202,57,88,35,73,738,423.0,578,456,60,120.0,290,1,438,417,120,0,0,442,-9211,-3322,423,,,,,,,,,,,,
119903,1560691391709,4,2.37,2.41,3.21,2.46,5.04,0.53,-0.62,0.89,19,2,24,0.82,8344,59,88,35,71,738,424.0,596,450,60,121.0,290,1,435,400,120,0,0,431,10392,5600,426,,,,,,,,,,,,
119923,1560691391729,2,2.37,2.46,3.14,2.46,5.04,0.56,-0.75,0.97,17,1,23,0.93,8457,59,88,35,70,741,427.0,602,464,60,122.0,290,1,433,393,120,0,0,438,-26615,21580,426,,,,,,,,,,,,
119943,1560691391749,-1,2.35,2.47,3.14,2.46,5.06,0.54,-0.63,1.0,16,1,23,0.83,8457,60,88,35,69,745,431.0,614,449,60,120.0,288,1,434,384,123,0,0,451,7154,2131,431,45.699532,4.910486,37.01,196.9,0,0.0,0,0.0,1.7675,1,0.71,1.999
119963,1560691391769,4,2.35,2.46,3.15,2.46,5.04,0.49,-0.64,1.02,15,1,21,0.8,8457,61,88,35,69,750,437.0,611,448,60,121.0,288,1,434,383,123,0,0,466,3635,17628,437,,,,,,,,,,,,
119983,1560691391789,3,2.34,2.46,3.14,2.47,5.04,0.63,-0.71,1.11,14,-2,20,0.95,8445,61,88,35,69,761,439.0,601,463,60,122.0,288,1,434,393,123,0,0,473,243,-9160,442,,,,,,,,,,,,
120003,1560691391809,-1,2.34,2.47,3.11,2.47,5.06,0.59,-0.58,1.13,13,-4,20,0.83,8530,61,88,35,69,789,445.0,603,456,60,120.0,288,1,431,384,123,0,0,450,5600,30272,445,,,,,,,,,,,,
120023,1560691391829,5,2.34,2.47,3.11,2.47,5.04,0.46,-0.52,1.09,12,-6,19,0.7,8573,63,88,35,69,817,448.0,607,448,60,121.0,288,1,430,385,123,0,0,456,20625,30272,451,,,,,,,,,,,,
120043,1560691391849,3,2.33,2.45,3.13,2.45,5.05,0.52,-0.54,1.08,11,-5,18,0.75,8700,66,88,34,70,839,455.0,622,464,60,122.0,288,1,424,398,130,0,0,464,23400,10432,455,45.699524,4.910481,39.03,196.9,0,0.0,0,0.0,1.7692,1,0.71,2.0007
120063,1560691391869,2,2.32,2.44,3.15,2.45,5.04,0.63,-0.54,1.17,11,-3,17,0.83,8753,69,88,34,72,864,459.0,613,448,60,120.0,288,1,422,417,130,0,0,474,-3267,2212,459,,,,,,,,,,,,
120083,1560691391889,3,2.33,2.44,3.15,2.45,5.05,0.77,-0.53,1.19,10,-6,16,0.93,8819,70,88,34,73,915,462.0,627,452,60,121.0,288,1,419,427,130,0,0,475,-8985,-1923,462,,,,,,,,,,,,
120103,1560691391909,1,2.33,2.43,3.17,2.46,5.06,0.79,-0.53,1.23,9,-7,16,0.95,8949,72,89,34,74,966,464.0,628,450,60,121.0,288,1,415,436,130,0,0,481,2524,3576,464,,,,,,,,,,,,
120123,1560691391929,3,2.33,2.42,3.16,2.46,5.04,0.77,-0.5,1.25,8,-6,16,0.92,9124,73,89,34,75,993,468.0,633,447,60,121.0,288,1,413,446,130,0,0,479,-23623,32033,471,,,,,,,,,,,,
120143,1560691391949,4,2.33,2.44,3.16,2.45,5.07,0.85,-0.61,1.32,8,-6,14,1.05,9213,75,89,34,77,1020,473.0,635,455,60,121.0,335,1,414,470,158,0,0,487,-3210,-6656,473,45.699512,4.910475,42.31,196.9,0,0.0,0,0.0,1.7708,1,0.71,2.0024
120163,1560691391969,3,2.34,2.51,3.15,2.47,5.04,0.97,-0.73,1.39,7,-6,13,1.21,9263,76,89,34,78,1074,475.0,636,455,60,121.0,335,1,415,483,158,0,0,489,-16384,771,475,,,,,,,,,,,,
120183,1560691391989,1,2.32,2.49,3.13,2.45,5.02,0.79,-0.65,1.28,7,-5,11,1.02,9351,76,89,34,78,1127,480.0,634,456,60,121.0,335,1,415,483,158,0,0,497,3576,15661,480,,,,,,,,,,,,
120203,1560691392005,0,2.35,2.47,3.14,2.45,5.05,0.59,-0.42,1.1,8,-2,12,0.73,9389,77,89,34,78,1157,485.0,637,454,60,121.0,335,1,415,483,158,0,0,505,16648,11560,485,,,,,,,,,,,,
120223,1560691392025,2,2.35,2.46,3.16,2.44,5.06,0.73,-0.45,1.17,7,-3,12,0.86,9498,77,89,34,79,1183,492.0,639,453,60,121.0,335,1,416,483,158,0,0,522,3580,10994,492,,,,,,,,,,,,
120243,1560691392045,0,2.34,2.47,3.15,2.43,5.05,0.84,-0.47,1.25,6,-3,12,0.96,9605,77,89,34,78,1207,495.0,637,447,60,121.0,352,1,412,488,174,0,0,510,1,-28648,496,45.699505,4.910469,44.22,196.9,0,0.0,0,0.0,1.7725,1,0.71,2.0041
120263,1560691392065,5,2.34,2.49,3.17,2.43,5.07,0.64,-0.37,1.17,6,-2,12,0.74,9709,77,89,34,78,1231,497.0,633,455,60,120.0,352,1,408,493,174,0,0,517,-32768,10408,499,,,,,,,,,,,,
120283,1560691392085,2,2.34,2.49,3.18,2.44,5.04,0.7,-0.45,1.19,6,-3,11,0.84,9852,77,89,34,77,1236,502.0,640,456,60,121.0,352,1,402,488,174,0,0,528,-9216,-28648,506,,,,,,,,,,,,
120303,1560691392109,5,2.34,2.5,3.18,2.44,5.07,0.54,-0.46,1.14,7,-2,11,0.71,9973,78,89,34,77,1234,510.0,646,454,60,121.0,352,1,398,503,174,0,0,534,15661,2088,510,,,,,,,,,,,,
120323,1560691392129,1,2.34,2.49,3.15,2.45,5.06,0.57,-0.49,1.2,7,-2,9,0.75,10005,78,89,34,77,1224,514.0,636,458,60,121.0,352,1,397,497,174,0,0,530,-32248,2104,514,,,,,,,,,,,,
120343,1560691392149,2,2.34,2.49,3.14,2.45,5.07,0.55,-0.6,1.24,7,-2,9,0.82,10053,78,89,34,77,1211,518.0,640,451,60,121.0,366,1,399,497,189,0,0,538,-28648,-8186,518,45.699493,4.910461,46.29,196.8,0,0.0,0,0.0,1.7742,1,0.71,2.0057
120363,1560691392169,5,2.33,2.5,3.13,2.44,5.06,0.51,-0.6,1.21,8,-0,9,0.78,10140,78,89,34,77,1199,523.0,639,455,60,121.0,366,1,405,497,189,0,0,541,-14,2524,525,,,,,,,,,,,,
120383,1560691392191,5,2.34,2.49,3.17,2.45,5.06,0.5,-0.51,1.19,8,-1,8,0.71,10201,78,89,34,77,1189,530.0,642,452,60,120.0,366,1,410,505,189,0,0,555,1341,-8962,529,,,,,,,,,,,,
120403,1560691392211,2,2.34,2.48,3.18,2.44,5.05,0.57,-0.5,1.17,7,-3,9,0.76,10307,79,89,34,78,1174,535.0,646,458,60,120.0,366,1,421,505,189,0,0,562,10408,2216,536,,,,,,,,,,,,
120423,1560691392231,4,2.34,2.48,3.19,2.43,5.07,0.6,-0.47,1.16,7,-3,9,0.76,10469,79,89,34,78,1158,539.0,645,455,60,120.0,366,1,428,505,189,0,0,557,2524,-30159,539,,,,,,,,,,,,
120443,1560691392251,5,2.33,2.49,3.19,2.43,5.08,0.6,-0.49,1.13,7,-2,9,0.78,10569,79,89,34,78,1148,543.0,652,457,60,120.0,372,1,433,505,202,0,0,557,-32248,-8186,543,45.699482,4.910453,48.56,196.8,0,0.0,0,0.0,1.7758,1,0.71,2.0074
120463,1560691392271,7,2.33,2.51,3.18,2.43,5.06,0.62,-0.5,1.18,7,-2,9,0.8,10695,79,89,34,78,1143,547.0,653,451,60,121.0,372,1,435,505,202,0,0,568,-8186,-29984,547,,,,,,,,,,,,
120483,1560691392291,0,2.34,2.5,3.18,2.44,5.06,0.63,-0.49,1.26,7,-3,9,0.8,10775,79,89,34,77,1132,551.0,654,455,60,121.0,372,1,438,505,202,0,0,575,2524,30208,554,,,,,,,,,,,,
120503,1560691392310,4,2.33,2.5,3.19,2.44,5.04,0.56,-0.55,1.33,7,-1,8,0.79,10813,79,89,34,77,1117,559.0,642,450,60,121.0,372,1,439,505,202,0,0,584,-22519,-3190,560,,,,,,,,,,,,
120523,1560691392330,5,2.33,2.5,3.17,2.43,5.08,0.5,-0.4,1.21,8,-1,9,0.63,10913,79,89,34,77,1105,565.0,652,456,60,121.0,372,1,441,497,202,0,0,579,6274,-4035,565,,,,,,,,,,,,
120543,1560691392350,4,2.32,2.51,3.15,2.44,5.04,0.53,-0.39,1.23,7,-1,9,0.66,10958,79,89,34,77,1095,564.0,654,458,60,120.0,366,1,442,505,206,0,0,581,6273,-32504,564,45.699474,4.910444,51.41,196.8,0,0.0,0,0.0,1.7775,1,0.71,2.009
120563,1560691392370,1,2.32,2.5,3.15,2.43,5.06,0.53,-0.41,1.23,7,-1,9,0.67,10990,79,89,34,78,1083,571.0,657,458,60,120.0,366,1,443,497,206,0,0,597,-18032,-1894,570,,,,,,,,,,,,
120583,1560691392390,5,2.31,2.49,3.13,2.43,5.05,0.44,-0.3,1.15,7,1,9,0.53,11127,79,89,34,77,1068,575.0,660,461,60,120.0,366,1,443,505,206,0,0,596,-29984,-16179,575,,,,,,,,,,,,
120603,1560691392410,4,2.29,2.5,3.14,2.41,5.04,0.58,-0.34,1.21,7,-1,8,0.68,11167,79,89,34,77,1058,581.0,655,457,60,121.0,366,1,443,505,206,0,0,597,259,-7939,584,,,,,,,,,,,,
120623,1560691392430,5,2.28,2.5,3.14,2.4,5.05,0.5,-0.36,1.21,6,-2,8,0.62,11281,79,89,34,77,1053,583.0,655,455,60,121.0,366,1,442,497,206,0,0,603,1,-3446,583,,,,,,,,,,,,
120643,1560691392450,3,2.29,2.5,3.15,2.41,5.08,0.47,-0.35,1.25,6,-1,7,0.59,11419,80,89,34,77,1046,586.0,653,450,60,120.0,363,1,441,497,213,0,0,611,-25872,-3446,587,45.699459,4.910435,53.24,196.8,0,0.0,0,0.0,1.7792,1,0.72,2.0107
120663,1560691392470,5,2.27,2.5,3.17,2.41,5.04,0.45,-0.2,1.16,6,-3,7,0.5,11545,80,89,34,77,1038,592.0,657,452,60,121.0,363,1,440,498,213,0,0,624,-1894,1010,592,,,,,,,,,,,,
120683,1560691392490,6,2.26,2.49,3.12,2.41,5.05,0.43,-0.14,1.11,5,-4,10,0.45,11674,80,89,34,76,1031,596.0,654,454,60,121.0,363,1,440,490,213,0,0,617,3472,19320,597,,,,,,,,,,,,
120703,1560691392510,3,2.28,2.54,3.06,2.4,5.07,0.42,-0.22,1.18,5,-5,11,0.48,11740,80,89,34,77,1027,600.0,660,453,60,120.0,363,1,440,498,213,0,0,618,30227,506,600,,,,,,,,,,,,
120723,1560691392530,4,2.27,2.55,3.04,2.41,5.06,0.43,-0.25,1.2,4,-5,11,0.5,11785,80,89,34,76,1019,605.0,655,459,60,120.0,363,1,440,490,213,0,0,626,243,24,605,,,,,,,,,,,,
120743,1560691392550,3,2.27,2.53,3.05,2.42,5.04,0.52,-0.29,1.24,3,-4,10,0.59,11852,80,89,34,76,1000,610.0,663,459,60,121.0,361,1,440,490,219,0,0,636,-30139,20993,610,45.699448,4.910426,55.46,196.8,0,0.0,0,0.0,1.7808,1,0.72,2.0124
120763,1560691392570,2,2.27,2.53,3.05,2.41,5.04,0.59,-0.31,1.09,2,-2,10,0.67,11882,80,89,34,77,981,616.0,665,453,60,121.0,361,1,440,499,219,0,0,641,28675,3,616,,,,,,,,,,,,
120783,1560691392590,3,2.26,2.54,3.05,2.41,5.04,0.67,-0.35,1.03,1,-2,9,0.76,11996,80,89,34,77,964,619.0,667,460,60,120.0,361,1,440,499,219,0,0,637,19304,6208,619,,,,,,,,,,,,
120803,1560691392610,3,2.28,2.54,3.06,2.41,5.04,0.71,-0.39,1.02,0,-2,7,0.81,12081,80,89,34,77,945,623.0,661,460,60,120.0,361,1,440,500,219,0,0,648,3395,-30207,623,,,,,,,,,,,,
120823,1560691392630,5,2.28,2.51,3.06,2.39,5.04,0.77,-0.42,0.98,-0,-2,7,0.88,12183,81,89,34,77,918,632.0,662,457,60,120.0,361,1,440,502,219,0,0,648,-1346,-26380,632,,,,,,,,,,,,
120843,1560691392650,5,2.28,2.51,3.06,2.4,5.05,0.8,-0.43,0.95,-1,0,7,0.91,12287,81,89,34,77,891,632.0,666,462,60,120.0,368,1,440,502,232,0,0,654,771,-2830,633,45.699432,4.910416,57.49,196.8,0,0.0,0,0.0,1.7825,1,0.72,2.0141
120863,1560691392670,7,2.29,2.51,3.07,2.4,5.07,0.83,-0.38,1.05,-1,-0,6,0.91,12376,81,89,34,77,881,635.0,656,455,60,120.0,368,1,440,505,232,0,0,667,-5120,-3578,636,,,,,,,,,,,,
120883,1560691392690,3,2.29,2.52,3.07,2.39,5.07,0.73,-0.23,0.98,-0,-1,7,0.77,12441,81,89,34,77,870,639.0,660,456,60,120.0,368,1,440,506,232,0,0,663,6208,8958,642,,,,,,,,,,,,
120903,1560691392710,4,2.29,2.52,3.06,2.41,5.06,0.66,-0.17,0.95,-0,-1,7,0.68,12458,81,89,34,77,857,645.0,661,452,60,120.0,368,1,440,506,232,0,0,666,-2830,-10344,644,,,,,,,,,,,,
120923,1560691392730,7,2.3,2.52,3.06,2.41,5.04,0.67,-0.27,0.97,-0,-2,7,0.72,12483,81,89,34,78,844,649.0,665,452,60,120.0,368,1,440,515,232,0,0,670,11566,-26892,649,,,,,,,,,,,,
120943,1560691392750,4,2.29,2.51,3.06,2.4,5.07,0.66,-0.28,0.94,-0,-4,7,0.72,12525,81,89,34,77,841,651.0,673,447,60,120.0,375,1,440,506,244,0,0,673,-30207,-10344,652,45.699421,4.910405,59.8,196.9,0,0.0,0,0.0,1.7842,1,0.72,2.0157
120963,1560691392770,3,2.3,2.51,3.06,2.4,5.06,0.52,-0.25,0.85,-0,-4,6,0.58,12583,81,89,34,77,837,656.0,667,448,60,121.0,375,1,440,507,244,0,0,675,-2830,3543,658,,,,,,,,,,,,
120983,1560691392790,2,2.29,2.51,3.09,2.4,5.04,0.53,-0.21,0.92,-0,-7,6,0.57,12711,81,89,34,78,828,658.0,665,456,60,120.0,375,1,440,510,244,0,0,690,8958,-10346,661,,,,,,,,,,,,
121003,1560691392810,6,2.28,2.51,3.12,2.39,5.05,0.57,-0.3,0.96,-0,-8,6,0.64,12772,82,89,34,78,819,668.0,663,453,60,120.0,375,1,440,519,244,0,0,683,-2826,14342,662,,,,,,,,,,,,
121023,1560691392830,3,2.29,2.5,3.15,2.38,5.03,0.53,-0.16,0.96,0,-9,6,0.56,12860,82,89,34,78,813,669.0,673,453,60,120.0,375,1,440,520,244,0,0,693,-3578,-3584,669,,,,,,,,,,,,
121043,1560691392850,0,2.29,2.5,3.15,2.39,5.04,0.63,-0.22,1.03,-0,-9,6,0.67,13020,82,89,34,78,807,672.0,671,456,60,120.0,379,1,440,522,254,0,0,695,-388,-10344,672,45.69941,4.910395,62.0,197.0,0,0.0,0,0.0,1.7858,1,0.72,2.0174
121063,1560691392870,-0,2.29,2.51,3.16,2.39,5.08,0.65,-0.11,0.96,-0,-9,6,0.66,12816,82,89,34,78,803,675.0,673,458,60,124.0,379,1,440,519,254,0,0,700,-26380,-3584,675,,,,,,,,,,,,
121083,1560691392890,0,2.27,2.51,3.14,2.38,5.04,0.63,-0.08,0.94,1,-9,6,0.64,12238,82,89,34,79,801,678.0,670,453,60,123.0,379,1,440,522,254,0,0,687,-10344,1780,678,,,,,,,,,,,,
121103,1560691392910,-1,2.28,2.47,3.16,2.35,5.04,0.66,-0.09,0.9,2,-10,6,0.67,11935,82,89,34,80,802,680.0,667,450,60,122.0,379,1,440,528,254,0,0,677,-10346,-10344,678,,,,,,,,,,,,
121123,1560691392930,-0,2.27,2.43,3.17,2.29,5.08,0.68,-0.06,0.75,3,-10,6,0.69,11799,82,89,34,81,806,678.0,666,453,60,123.0,379,1,440,535,254,0,0,677,-26892,-10346,679,,,,,,,,,,,,
121143,1560691392950,0,2.26,2.4,3.2,2.26,5.07,0.67,0.02,0.69,2,-10,7,0.67,11574,84,89,34,82,835,680.0,661,454,60,122.0,350,1,440,538,238,0,0,672,-2345,-2345,679,45.699394,4.910384,63.6,197.0,0,0.0,0,0.0,1.7875,1,0.72,2.019
121163,1560691392970,4,2.26,2.42,3.22,2.24,5.07,0.55,0.09,0.7,3,-2,1,0.56,11301,85,89,34,83,868,679.0,658,456,60,122.0,350,1,441,982,238,0,0,685,-10346,16118,678,,,,,,,,,,,,
121183,1560691392990,3,2.25,2.46,3.2,2.25,5.07,0.51,0.1,0.72,3,-0,0,0.52,10563,86,89,34,84,897,680.0,652,454,60,120.0,350,1,431,927,238,0,0,724,16118,-3450,684,,,,,,,,,,,,
121203,1560691393004,6,2.25,2.53,3.07,2.29,5.07,0.42,0.19,0.82,3,-0,2,0.46,9952,86,89,34,85,924,689.0,638,453,60,120.0,350,1,398,851,238,0,0,782,-3584,-31066,686,,,,,,,,,,,,
121223,1560691393024,3,2.26,2.57,2.97,2.36,5.06,0.29,0.26,0.75,2,-2,3,0.39,9973,87,89,34,84,1012,694.0,630,456,60,120.0,350,1,397,733,238,0,0,727,12333,-2918,690,,,,,,,,,,,,
121243,1560691393044,2,2.26,2.58,2.95,2.38,5.07,0.47,0.1,0.85,1,-3,3,0.48,9936,87,89,34,83,1122,698.0,640,455,60,121.0,374,1,398,612,258,0,0,721,24,-3344,697,45.699379,4.910372,64.19,197.0,0,0.0,0,0.0,1.7892,1,0.73,2.0207
121263,1560691393064,5,2.26,2.59,2.94,2.38,5.06,0.58,0.0,0.92,1,-4,2,0.58,9884,87,89,34,83,1213,704.0,638,455,60,120.0,374,1,401,548,258,0,0,732,11069,-2826,704,,,,,,,,,,,,
121283,1560691393084,5,2.26,2.61,2.95,2.37,5.07,0.4,0.2,0.83,0,-4,2,0.45,9847,87,89,34,82,1292,707.0,638,445,60,120.0,374,1,403,539,258,0,0,737,687,-30694,702,,,,,,,,,,,,
121303,1560691393110,5,2.26,2.61,3.0,2.38,5.04,0.56,0.04,0.86,0,-5,0,0.56,9858,87,89,34,82,1313,713.0,644,450,60,121.0,374,1,402,538,258,0,0,742,-13312,-2314,706,,,,,,,,,,,,
121323,1560691393130,5,2.25,2.61,3.12,2.37,5.04,0.48,0.11,0.82,0,-4,1,0.49,9973,87,89,34,82,1308,718.0,640,457,60,120.0,374,1,399,537,258,0,0,745,-31068,1037,711,,,,,,,,,,,,
121343,1560691393150,2,2.26,2.61,3.17,2.36,5.08,0.42,0.18,0.84,-0,-4,-0,0.46,10157,87,89,34,82,1263,717.0,640,453,60,121.0,286,1,405,537,204,0,0,743,-3450,-30694,714,45.699368,4.91036,65.14,197.1,0,0.0,0,0.0,1.7908,1,0.73,2.0224
121363,1560691393170,3,2.25,2.57,3.18,2.36,5.07,0.53,0.15,0.85,-1,-4,0,0.55,10268,87,89,34,82,1175,722.0,646,456,60,120.0,286,1,414,537,204,0,0,758,-388,-31066,720,,,,,,,,,,,,
121383,1560691393190,3,2.26,2.57,3.07,2.36,5.04,0.48,0.08,0.9,-1,-4,0,0.49,10382,87,89,34,82,1098,730.0,640,452,60,121.0,286,1,421,537,204,0,0,758,-3344,-3450,721,,,,,,,,,,,,
121403,1560691393210,3,2.27,2.58,3.0,2.35,5.08,0.48,0.08,0.91,-1,-2,-2,0.48,10336,87,89,34,82,1031,732.0,638,453,60,121.0,286,1,418,537,204,0,0,754,-22796,6389,728,,,,,,,,,,,,
121423,1560691393230,7,2.26,2.56,2.99,2.35,5.04,0.55,0.12,1.02,-0,-3,-3,0.56,10376,87,89,34,82,1003,736.0,643,452,60,120.0,286,1,421,537,204,0,0,758,3462,-2344,736,,,,,,,,,,,,
121443,1560691393250,4,2.27,2.53,2.99,2.33,5.05,0.55,0.12,1.0,-1,-2,-1,0.56,10393,87,89,34,82,1023,743.0,644,455,60,120.0,286,1,422,537,211,0,0,772,-2826,-3344,740,45.699352,4.910348,66.99,197.1,0,0.0,0,0.0,1.7925,1,0.73,2.024
121463,1560691393270,4,2.27,2.53,3.01,2.34,5.05,0.49,0.18,1.04,-1,-1,-2,0.52,10439,87,89,34,82,1043,746.0,641,451,60,120.0,286,1,425,537,211,0,0,776,-31066,-2826,744,,,,,,,,,,,,
121483,1560691393290,6,2.27,2.54,2.99,2.35,5.04,0.39,0.08,1.03,-2,-3,-3,0.4,10457,87,89,34,82,1064,751.0,633,455,60,120.0,286,1,427,537,211,0,0,777,-23308,6900,743,,,,,,,,,,,,
121503,1560691393309,4,2.27,2.53,3.01,2.34,5.04,0.38,0.03,0.98,-2,-4,-2,0.38,10569,87,89,34,82,1079,751.0,648,452,60,120.0,286,1,431,537,211,0,0,779,-23308,6389,748,,,,,,,,,,,,
121523,1560691393329,2,2.27,2.54,2.98,2.35,5.04,0.34,0.06,1.01,-1,-2,-3,0.35,10611,87,89,34,82,1078,757.0,643,453,60,120.0,286,1,432,537,211,0,0,778,-2574,-2344,753,,,,,,,,,,,,
121543,1560691393349,2,2.28,2.54,3.02,2.33,5.08,0.41,0.02,1.05,-1,-5,-3,0.41,10695,87,89,34,82,1075,760.0,644,454,60,121.0,287,1,435,537,217,0,0,790,-2766,-31068,756,45.699333,4.910336,69.19,197.0,0,0.0,0,0.0,1.7942,1,0.73,2.0257
121563,1560691393369,1,2.28,2.53,3.06,2.34,5.06,0.4,-0.02,1.0,-0,-6,-3,0.4,10702,87,89,34,82,1068,764.0,647,454,60,121.0,287,1,435,537,217,0,0,795,-2826,6905,763,,,,,,,,,,,,
121583,1560691393389,4,2.26,2.55,3.07,2.37,5.05,0.42,0.13,0.98,-1,-5,-2,0.44,10806,87,89,34,82,1062,763.0,643,452,60,121.0,287,1,437,537,217,0,0,796,6389,5344,763,,,,,,,,,,,,
121603,1560691393409,6,2.27,2.55,3.09,2.34,5.07,0.46,0.11,0.97,-1,-3,-2,0.48,10819,87,89,34,82,1056,773.0,640,458,60,120.0,287,1,439,537,217,0,0,805,-2830,6905,768,,,,,,,,,,,,
121623,1560691393429,7,2.27,2.57,3.06,2.34,5.03,0.41,0.09,0.95,-1,-2,-4,0.42,10894,87,89,34,82,1049,774.0,645,456,60,120.0,287,1,440,537,217,0,0,792,-3368,204,774,,,,,,,,,,,,
121643,1560691393449,1,2.28,2.56,3.06,2.34,5.06,0.41,0.1,0.97,-1,-1,-2,0.42,10990,87,89,34,82,1038,783.0,650,458,60,120.0,288,1,442,537,223,0,0,808,5876,-2830,777,45.699318,4.910324,71.18,197.1,0,0.0,0,0.0,1.7958,1,0.73,2.0274
121663,1560691393469,-1,2.29,2.56,3.1,2.34,5.05,0.51,0.06,1.0,-1,-1,-4,0.51,10971,87,89,34,82,1029,782.0,651,455,60,121.0,288,1,442,537,223,0,0,816,-2826,-2358,779,,,,,,,,,,,,
121683,1560691393489,0,2.28,2.55,3.05,2.35,5.06,0.43,0.02,0.96,-0,-1,-5,0.43,11114,87,89,34,82,1024,789.0,644,449,60,120.0,288,1,443,537,223,0,0,808,-2570,-23490,789,,,,,,,,,,,,
121703,1560691393509,4,2.27,2.56,3.06,2.38,5.05,0.43,0.11,0.94,0,-3,-2,0.45,11167,87,89,34,81,1018,788.0,653,454,60,120.0,288,1,443,529,223,0,0,820,-10216,-22796,784,,,,,,,,,,,,
121723,1560691393529,6,2.28,2.56,3.05,2.36,5.04,0.52,-0.01,0.99,-0,-3,-1,0.52,11174,87,88,34,81,1009,793.0,644,458,60,120.0,288,1,443,537,223,0,0,819,-7436,-2356,791,,,,,,,,,,,,
121743,1560691393549,5,2.27,2.55,3.06,2.35,5.03,0.46,-0.0,0.9,-0,1,-1,0.46,11194,87,89,34,81,1000,802.0,635,453,60,120.0,280,1,443,529,223,0,0,822,6905,-2830,795,45.699303,4.910312,73.14,197.0,0,0.0,0,0.0,1.7975,1,0.74,2.0291
121763,1560691393569,5,2.29,2.58,3.07,2.42,5.07,0.42,-0.07,0.95,0,1,-1,0.42,11254,87,88,34,81,996,800.0,641,458,60,120.0,280,1,442,529,223,0,0,836,-3888,-22796,800,,,,,,,,,,,,
121783,1560691393589,3,2.29,2.49,3.09,2.35,5.07,0.49,-0.01,0.95,1,-0,-1,0.49,11363,87,88,34,81,991,808.0,651,453,60,120.0,280,1,442,529,223,0,0,836,-31068,-2356,803,,,,,,,,,,,,
121803,1560691393609,2,2.28,2.44,3.03,2.28,5.04,0.53,0.1,1.01,0,-1,-0,0.54,11432,87,88,34,81,974,814.0,655,455,60,121.0,280,1,441,529,223,0,0,833,-2830,-1578,814,,,,,,,,,,,,
121823,1560691393629,3,2.29,2.43,3.03,2.29,5.04,0.58,0.08,1.02,-0,-0,0,0.58,11453,87,88,34,81,957,818.0,650,451,60,120.0,280,1,441,529,223,0,0,843,-2830,-22796,818,,,,,,,,,,,,
121843,1560691393649,4,2.28,2.43,3.1,2.3,5.04,0.44,0.05,1.06,-1,-0,0,0.45,11503,87,88,33,81,943,819.0,656,450,60,120.0,281,1,440,529,230,0,0,860,1524,-1578,821,45.699287,4.910299,74.95,197.0,0,0.0,0,0.0,1.7992,1,0.74,2.0307
121863,1560691393669,3,2.28,2.43,2.9,2.28,5.05,0.46,0.0,1.11,0,1,0,0.46,11602,87,88,33,80,931,824.0,643,452,60,120.0,281,1,440,523,230,0,0,834,-2826,-31068,824,,,,,,,,,,,,
121883,1560691393689,6,2.29,2.42,2.92,2.27,5.04,0.51,-0.02,1.11,1,0,3,0.51,11581,87,88,33,81,913,828.0,656,452,60,120.0,281,1,440,522,230,0,0,858,3462,-1582,830,,,,,,,,,,,,
121903,1560691393709,3,2.29,2.45,2.95,2.26,5.05,0.45,0.03,1.12,2,-1,4,0.45,11574,87,88,33,80,897,830.0,656,453,60,120.0,281,1,440,522,230,0,0,862,-13068,-3335,830,,,,,,,,,,,,
121923,1560691393729,3,2.28,2.52,2.98,2.35,5.04,0.46,0.04,1.15,1,-3,3,0.46,11602,87,88,33,80,891,830.0,649,457,60,120.0,281,1,440,523,230,0,0,860,-2830,-9995,830,,,,,,,,,,,,
121943,1560691393749,3,2.27,2.58,3.0,2.4,5.04,0.55,0.01,1.08,-1,-3,4,0.55,11624,87,88,33,80,888,835.0,666,458,60,120.0,277,1,440,523,230,0,0,860,-22796,-10508,829,45.699272,4.910286,76.7,197.0,0,0.0,0,0.0,1.8008,1,0.74,2.0324
121963,1560691393769,7,2.27,2.59,3.02,2.38,5.08,0.67,0.02,1.02,-1,-3,2,0.67,11704,87,88,33,80,877,835.0,659,457,60,120.0,277,1,440,524,230,0,0,866,6790,-23308,834,,,,,,,,,,,,
121983,1560691393789,6,2.27,2.58,3.16,2.39,5.04,0.67,0.08,0.89,-1,-1,2,0.67,11807,87,88,33,80,866,842.0,660,456,60,121.0,277,1,440,526,230,0,0,887,-23308,-2570,843,,,,,,,,,,,,
122003,1560691393809,5,2.26,2.59,3.27,2.47,5.05,0.62,0.19,0.71,-2,-2,3,0.65,11919,87,88,33,80,857,845.0,667,457,60,121.0,277,1,440,528,230,0,0,871,-2574,-2311,845,,,,,,,,,,,,
122023,1560691393829,6,2.27,2.57,3.29,2.42,5.04,0.61,0.27,0.75,-1,-2,6,0.67,12050,87,88,33,80,850,849.0,666,458,60,121.0,277,1,440,530,230,0,0,894,-3038,-4879,847,,,,,,,,,,,,
122043,1560691393849,2,2.26,2.57,3.23,2.4,5.05,0.62,0.28,0.73,-1,-3,7,0.68,12151,87,88,33,80,841,854.0,677,455,60,120.0,285,1,440,530,243,0,0,881,-1576,-14712,852,45.699253,4.910273,79.11,197.0,0,0.0,0,0.0,1.8025,1,0.74,2.034
122063,1560691393869,3,2.28,2.58,3.25,2.4,5.05,0.65,0.15,0.68,-1,-2,5,0.67,12175,87,88,33,80,832,859.0,665,458,60,120.0,285,1,440,540,243,0,0,908,-11532,-14712,851,,,,,,,,,,,,
122083,1560691393889,3,2.28,2.59,3.16,2.41,5.04,0.74,0.04,0.74,-2,-1,4,0.74,12167,86,88,33,80,828,859.0,656,455,60,120.0,285,1,440,530,243,0,0,896,-11019,-14712,855,,,,,,,,,,,,
122103,1560691393909,5,2.28,2.58,3.06,2.37,5.04,0.8,-0.07,0.84,-3,-1,4,0.8,12159,86,88,33,80,827,868.0,658,457,60,120.0,285,1,440,530,243,0,0,899,-2574,-2820,860,,,,,,,,,,,,
122123,1560691393929,4,2.28,2.58,3.0,2.37,5.04,0.84,-0.15,0.87,-5,-2,4,0.85,12088,86,88,33,80,821,871.0,653,454,60,120.0,285,1,440,530,243,0,0,888,-3450,771,866,,,,,,,,,,,,
122143,1560691393949,5,2.29,2.58,3.04,2.37,5.03,0.78,-0.22,0.89,-5,-2,4,0.81,12081,86,88,33,80,814,873.0,666,460,60,120.0,279,1,440,530,243,0,0,900,-10508,966,868,45.699234,4.910258,80.98,197.0,0,0.0,0,0.0,1.8042,1,0.74,2.0357
122163,1560691393969,4,2.29,2.58,3.03,2.37,5.06,0.74,-0.27,0.93,-5,1,3,0.79,12167,86,88,33,80,808,873.0,655,455,60,120.0,279,1,440,530,243,0,0,892,-10508,-5120,870,,,,,,,,,,,,
122183,1560691393989,3,2.29,2.55,3.11,2.33,5.05,0.79,-0.21,1.03,-5,2,2,0.81,12262,86,88,33,80,803,876.0,655,460,60,120.0,279,1,440,531,243,0,0,913,-2570,4231,877,,,,,,,,,,,,
122203,1560691394005,5,2.28,2.54,3.16,2.34,5.04,0.78,-0.17,0.97,-4,3,-0,0.79,12343,86,88,33,80,799,881.0,658,456,60,120.0,279,1,440,532,243,0,0,907,-2820,-1556,881,,,,,,,,,,,,
122223,1560691394025,3,2.29,2.54,3.23,2.35,5.04,0.78,-0.1,0.83,-3,2,-1,0.79,12441,86,88,33,80,796,886.0,655,457,60,120.0,279,1,440,533,243,0,0,920,-779,-1812,884,,,,,,,,,,,,
122243,1560691394045,5,2.29,2.54,3.22,2.36,5.04,0.69,-0.2,0.86,-2,3,-1,0.72,12458,86,88,33,80,796,889.0,653,454,60,120.0,279,1,440,533,247,0,0,914,-779,-4872,889,45.699215,4.910244,82.5,197.1,0,0.0,0,0.0,1.8058,1,0.75,2.0374
122263,1560691394065,7,2.29,2.55,3.12,2.36,5.05,0.65,-0.18,0.91,-1,4,-1,0.67,12475,86,88,33,80,799,890.0,660,453,60,120.0,279,1,440,533,247,0,0,910,3,-4877,888,,,,,,,,,,,,
122283,1560691394085,4,2.28,2.54,3.13,2.35,5.04,0.62,-0.15,1.01,-1,3,-2,0.64,12466,85,88,33,79,799,893.0,671,450,60,120.0,279,1,440,533,247,0,0,927,-14848,-788,893,,,,,,,,,,,,
122303,1560691394109,6,2.28,2.53,3.13,2.33,5.04,0.63,-0.14,1.01,-1,1,-2,0.65,12508,82,88,33,78,795,899.0,663,453,60,120.0,279,1,440,524,247,0,0,926,1772,29732,899,,,,,,,,,,,,
122323,1560691394129,7,2.27,2.54,3.12,2.36,5.06,0.73,-0.16,1.1,-2,-2,-1,0.75,12516,79,88,33,77,792,899.0,657,455,60,120.0,279,1,440,506,247,0,0,920,16,-9476,899,,,,,,,,,,,,
122343,1560691394149,2,2.29,2.53,3.12,2.36,5.06,0.86,-0.15,1.12,-3,-7,-0,0.87,12525,76,88,33,76,785,900.0,666,458,60,120.0,267,1,440,498,240,0,0,926,-5114,29732,900,45.699196,4.91023,84.12,197.1,0,0.0,0,0.0,1.8075,1,0.75,2.0391
122363,1560691394169,-1,2.29,2.49,3.11,2.33,5.05,0.74,-0.14,1.18,-1,-10,1,0.76,12558,75,88,33,74,778,906.0,670,457,60,120.0,267,1,440,486,240,0,0,924,-4878,218,903,,,,,,,,,,,,
122383,1560691394189,5,2.29,2.46,3.16,2.31,5.04,0.56,0.08,1.14,1,-8,2,0.57,12550,74,88,33,73,770,913.0,655,457,60,120.0,267,1,440,480,240,0,0,933,-3348,-776,910,,,,,,,,,,,,
122403,1560691394209,3,2.29,2.49,3.16,2.35,5.04,0.64,-0.0,1.08,1,-11,3,0.64,12660,71,88,33,72,763,908.0,664,458,60,120.0,267,1,440,476,240,0,0,930,-4875,-772,910,,,,,,,,,,,,
122423,1560691394229,5,2.29,2.48,3.15,2.34,5.04,0.72,-0.08,1.06,-0,-13,3,0.73,12609,67,88,33,69,762,912.0,668,457,60,120.0,267,1,440,463,240,0,0,928,-4876,9216,911,,,,,,,,,,,,
122443,1560691394249,3,2.28,2.46,3.16,2.32,5.06,0.79,0.02,1.09,-1,-16,2,0.79,12617,59,88,33,66,761,917.0,670,456,60,120.0,238,1,440,438,218,0,0,933,-2580,-773,914,45.699181,4.910214,85.74,197.0,0,0.0,0,0.0,1.8092,1,0.75,2.0407
122463,1560691394269,5,2.29,2.44,3.17,2.3,5.04,0.82,-0.04,1.04,-1,-17,1,0.82,12525,49,88,33,61,760,919.0,675,456,60,120.0,238,1,440,412,218,0,0,927,-4873,29732,918,,,,,,,,,,,,
122483,1560691394289,5,2.28,2.43,3.18,2.28,5.04,0.85,-0.16,1.09,0,-17,1,0.87,12303,38,88,33,55,761,922.0,670,451,60,120.0,238,1,405,366,218,0,0,925,-4872,218,922,,,,,,,,,,,,
122503,1560691394308,6,2.28,2.43,3.2,2.28,5.07,0.81,-0.17,0.93,1,-16,1,0.83,12026,30,88,33,50,762,916.0,668,450,60,121.0,238,1,388,295,218,0,0,917,-1812,-4874,915,,,,,,,,,,,,
122523,1560691394328,5,2.28,2.43,3.19,2.28,5.04,0.81,-0.22,0.88,1,-16,2,0.83,11807,26,88,33,45,762,916.0,673,452,60,121.0,238,1,366,250,218,0,0,912,-2324,-1300,916,,,,,,,,,,,,
122543,1560691394348,2,2.29,2.39,3.21,2.23,5.04,0.77,-0.25,0.93,2,-15,2,0.81,11588,23,88,33,42,758,919.0,649,458,60,120.0,118,1,343,236,109,0,0,918,-4872,-2068,918,45.699162,4.910199,87.2,197.0,0,0.0,0,0.0,1.8108,1,0.75,2.0424
122563,1560691394368,5,2.28,2.38,3.25,2.22,5.04,0.77,-0.24,0.88,2,-13,1,0.81,11460,19,88,33,39,753,916.0,658,456,60,121.0,118,1,320,228,109,0,0,913,-2068,-4878,916,,,,,,,,,,,,
122583,1560691394388,2,2.29,2.37,3.32,2.19,5.07,0.89,-0.26,0.91,1,-14,2,0.93,11391,14,88,33,35,748,913.0,662,456,60,121.0,118,1,308,223,109,0,0,891,-4874,-5120,913,,,,,,,,,,,,
122603,1560691394408,-0,2.29,2.35,3.3,2.18,5.08,0.93,-0.38,0.79,1,-13,1,1.01,11412,13,88,33,32,747,909.0,665,458,60,121.0,118,1,300,219,109,0,0,889,-2836,-779,909,,,,,,,,,,,,
122623,1560691394428,6,2.28,2.29,3.33,2.15,5.05,0.87,-0.23,0.62,1,-10,2,0.9,11432,13,88,33,30,768,908.0,664,456,60,121.0,118,1,291,215,109,0,0,878,-3092,-2570,908,,,,,,,,,,,,
122643,1560691394448,6,2.28,2.27,3.39,2.15,5.04,0.86,-0.14,0.54,2,-9,3,0.87,11467,12,88,33,29,790,906.0,660,460,60,121.0,102,1,287,213,93,0,0,873,-3604,-9995,906,45.699142,4.910183,87.51,197.0,0,0.0,0,0.0,1.8125,1,0.76,2.044
122663,1560691394468,6,2.29,2.26,3.38,2.14,5.08,0.88,-0.2,0.54,2,-9,1,0.9,11552,12,88,33,27,818,897.0,663,457,60,121.0,102,1,279,212,93,0,0,870,-30778,-31066,897,,,,,,,,,,,,
122683,1560691394488,12,2.28,2.25,3.39,2.1,5.05,0.97,-0.08,0.42,2,-9,2,0.97,11581,11,88,33,26,845,897.0,662,460,60,121.0,102,1,275,209,93,0,0,861,4231,-31068,897,,,,,,,,,,,,
122703,1560691394508,13,2.28,2.23,3.46,2.08,5.08,1.04,-0.02,0.36,2,-9,2,1.04,11595,11,88,33,25,878,891.0,664,457,60,121.0,102,1,271,208,93,0,0,843,-780,-2570,891,,,,,,,,,,,,
122723,1560691394528,12,2.28,2.2,3.48,2.06,5.08,1.07,-0.2,0.39,2,-9,1,1.09,11588,11,88,33,25,910,887.0,670,457,60,120.0,102,1,271,208,93,0,0,851,-779,-2830,887,,,,,,,,,,,,
122743,1560691394548,17,2.27,2.18,3.42,2.04,5.03,1.03,-0.12,0.29,1,-8,3,1.04,11503,10,88,33,24,917,882.0,656,458,60,121.0,103,1,270,203,91,0,0,852,-2820,-1578,872,45.699123,4.910167,88.08,197.0,0,0.0,0,0.0,1.8142,1,0.76,2.0457
122763,1560691394568,17,2.26,2.2,3.41,2.01,5.04,1.02,-0.04,0.2,2,-5,1,1.02,11481,10,88,33,23,922,874.0,663,456,60,121.0,103,1,270,203,91,0,0,844,-2574,-31066,874,,,,,,,,,,,,
122783,1560691394588,17,2.27,2.13,3.47,1.98,5.04,1.11,-0.18,0.29,2,-6,0,1.12,11405,10,88,33,23,910,866.0,662,453,60,120.0,103,1,270,198,91,0,0,831,-31068,-31068,865,,,,,,,,,,,,
122803,1560691394610,20,2.27,2.12,3.46,1.96,5.05,1.13,-0.16,0.29,1,-9,-0,1.14,11356,9,88,33,23,897,863.0,664,459,60,121.0,103,1,270,198,91,0,0,829,-2570,-31068,857,,,,,,,,,,,,
122823,1560691394630,18,2.27,2.11,3.46,1.96,5.08,1.15,-0.28,0.25,1,-9,-0,1.18,11254,9,88,33,22,882,851.0,655,458,60,121.0,103,1,270,193,91,0,0,841,-1578,-13580,851,,,,,,,,,,,,
122843,1560691394650,22,2.26,2.11,3.46,1.94,5.05,1.08,-0.17,0.19,2,-6,0,1.1,11101,9,88,33,22,864,849.0,658,460,60,121.0,96,1,270,193,82,0,0,819,8838,-23490,847,45.699104,4.910152,86.98,197.0,0,0.0,0,0.0,1.8158,1,0.76,2.0474
122863,1560691394670,21,2.26,2.11,3.45,1.91,5.04,1.12,-0.16,0.08,2,-5,0,1.13,11029,9,88,33,22,841,845.0,647,457,60,121.0,96,1,270,193,82,0,0,825,8838,-31066,833,,,,,,,,,,,,
122883,1560691394690,20,2.27,2.09,3.5,1.9,5.08,1.18,-0.13,0.17,1,-5,-2,1.19,10971,9,88,33,22,817,837.0,649,468,60,121.0,96,1,270,193,82,0,0,793,-3580,5344,835,,,,,,,,,,,,
122903,1560691394710,18,2.28,2.06,3.5,1.9,5.04,1.15,-0.06,0.21,1,-2,-1,1.15,10813,9,88,33,22,804,830.0,650,458,60,121.0,96,1,270,193,82,0,0,781,-31066,3544,828,,,,,,,,,,,,
122923,1560691394730,20,2.27,2.06,3.5,1.87,5.06,1.16,-0.15,0.19,1,-5,-2,1.17,10689,9,88,33,22,798,822.0,655,458,60,123.0,96,1,270,193,82,0,0,784,-2826,-12152,818,,,,,,,,,,,,
122943,1560691394750,17,2.28,2.05,3.48,1.87,5.06,1.12,-0.02,0.04,1,-4,-2,1.12,10521,9,88,33,22,790,820.0,652,460,60,123.0,94,1,270,193,78,0,0,797,-2830,-2344,817,45.699085,4.910136,85.13,197.1,0,0.0,0,0.0,1.8175,1,0.76,2.0491
122963,1560691394770,22,2.28,2.07,3.5,1.87,5.05,1.09,0.03,-0.1,1,-6,-0,1.09,10451,8,88,33,22,781,813.0,644,458,60,123.0,94,1,270,191,78,0,0,767,-388,-31066,794,,,,,,,,,,,,
122983,1560691394790,22,2.28,2.06,3.52,1.86,5.05,0.92,-0.03,-0.2,2,-5,-3,0.92,10319,8,88,33,22,777,801.0,645,460,60,120.0,94,1,270,188,78,0,0,755,-7436,6389,794,,,,,,,,,,,,
123003,1560691394810,22,2.29,2.04,3.53,1.87,5.04,1.0,0.02,-0.13,2,-5,-4,1.0,10279,8,88,33,22,776,794.0,651,455,60,122.0,94,1,270,187,78,0,0,751,3544,-3344,794,,,,,,,,,,,,
123023,1560691394830,24,2.29,2.04,3.54,1.84,5.06,0.95,0.1,-0.13,2,-2,-3,0.95,10151,8,88,33,22,774,793.0,640,458,60,122.0,94,1,270,184,78,0,0,732,-2540,-2344,779,,,,,,,,,,,,
123043,1560691394850,23,2.28,2.0,3.59,1.81,5.08,1.02,0.02,-0.11,2,-4,-1,1.02,10075,8,88,33,22,771,787.0,648,462,60,119.0,91,1,270,269,71,0,0,721,-2426,24,787,45.69907,4.910121,82.93,197.1,0,0.0,0,0.0,1.8192,1,0.77,2.0507
123063,1560691394870,23,2.28,2.0,3.56,1.79,5.05,1.09,-0.02,-0.0,2,-4,-0,1.09,9894,8,88,33,22,766,779.0,640,458,60,120.0,91,1,270,242,71,0,0,744,-31068,11069,779,,,,,,,,,,,,
123083,1560691394890,24,2.28,1.94,3.6,1.78,5.07,1.02,0.18,-0.2,4,2,2,1.03,9640,8,88,33,22,763,773.0,648,458,60,120.0,91,1,270,215,71,0,0,716,-3368,-13068,771,,,,,,,,,,,,
123103,1560691394910,24,2.27,1.86,3.62,1.76,5.05,1.12,-0.04,-0.12,4,2,0,1.12,9508,8,88,33,22,763,772.0,640,453,60,121.0,91,1,270,193,71,0,0,609,6389,-6006,772,,,,,,,,,,,,
123123,1560691394930,25,2.27,1.86,3.52,1.76,5.08,1.1,0.08,-0.17,5,7,1,1.1,9745,8,88,33,21,764,763.0,642,456,60,121.0,91,1,270,177,71,0,0,605,13016,208,763,,,,,,,,,,,,
123143,1560691394950,26,2.26,1.86,3.47,1.75,5.04,1.12,0.1,-0.35,5,5,0,1.13,9679,8,88,33,21,765,754.0,631,458,60,121.0,82,1,270,169,62,0,0,594,-2830,-32504,751,45.699051,4.910107,80.2,197.1,0,0.0,0,0.0,1.8208,1,0.77,2.0524
123163,1560691394970,25,2.26,1.82,3.47,1.73,5.07,1.21,0.04,-0.27,5,6,1,1.22,9775,8,88,33,21,768,747.0,633,454,60,121.0,82,1,270,172,62,0,0,534,-2314,-22263,745,,,,,,,,,,,,
123183,1560691394990,25,2.26,1.81,3.46,1.68,5.05,1.24,0.17,-0.32,3,4,4,1.25,9709,8,88,33,21,783,738.0,642,452,60,121.0,82,1,270,170,62,0,0,491,-2830,2211,733,,,,,,,,,,,,
123203,1560691395002,22,2.26,1.8,3.49,1.66,5.04,1.24,0.06,-0.28,3,7,4,1.24,9715,8,88,33,21,809,734.0,639,461,60,121.0,82,1,270,170,62,0,0,486,-2358,-6528,736,,,,,,,,,,,,
123223,1560691395022,24,2.27,1.81,3.49,1.66,5.05,1.17,0.06,-0.27,3,7,3,1.17,9576,8,88,33,21,833,724.0,634,453,60,121.0,82,1,270,166,62,0,0,502,1524,-23367,720,,,,,,,,,,,,
123243,1560691395042,25,2.28,1.87,3.52,1.7,5.06,1.26,-0.05,-0.11,3,5,2,1.26,9370,8,88,33,21,855,709.0,631,458,60,121.0,82,1,270,164,59,0,0,504,-12152,-9216,709,45.699036,4.910093,76.64,197.1,0,0.0,0,0.0,1.8225,1,0.77,2.054
123263,1560691395062,23,2.29,1.9,3.5,1.76,5.06,1.14,-0.12,-0.05,5,5,-0,1.14,9173,8,88,33,21,887,701.0,633,458,60,121.0,82,1,270,164,59,0,0,536,-3584,2524,701,,,,,,,,,,,,
123283,1560691395082,27,2.3,1.87,3.53,1.75,5.08,1.1,-0.09,-0.04,5,6,0,1.1,9071,8,89,33,20,932,695.0,630,456,60,122.0,82,1,270,157,59,0,0,500,16599,-8962,692,,,,,,,,,,,,
123303,1560691395110,21,2.29,1.85,3.6,1.73,5.04,1.02,-0.01,-0.02,4,2,2,1.02,9093,8,89,33,20,970,692.0,625,457,60,122.0,82,1,270,157,59,0,0,441,-26562,-3482,692,,,,,,,,,,,,
123323,1560691395130,24,2.28,1.86,3.61,1.72,5.07,0.91,0.04,-0.09,5,7,4,0.91,9001,8,89,33,20,992,687.0,625,462,60,121.0,82,1,270,157,59,0,0,422,-10344,32033,687,,,,,,,,,,,,
123343,1560691395150,23,2.27,1.9,3.65,1.72,5.07,0.9,0.12,-0.07,5,6,4,0.91,8794,8,88,33,20,1015,676.0,615,461,60,122.0,77,1,270,157,53,0,0,391,-2826,15649,670,45.69902,4.91008,72.9,197.1,0,0.0,0,0.0,1.8242,1,0.77,2.0557
123363,1560691395170,19,2.26,1.89,3.66,1.73,5.07,0.95,0.03,0.02,5,5,3,0.95,8577,8,88,33,20,1041,672.0,609,460,60,122.0,77,1,270,157,53,0,0,372,-2830,8488,677,,,,,,,,,,,,
123383,1560691395190,21,2.24,1.9,3.64,1.74,5.06,1.03,0.02,0.02,5,5,4,1.03,8344,8,88,33,21,1062,671.0,608,453,60,121.0,77,1,270,159,53,0,0,357,1549,32033,671,,,,,,,,,,,,
123403,1560691395208,22,2.25,1.91,3.55,1.73,5.05,1.12,-0.14,-0.03,4,2,2,1.13,8106,8,88,33,21,1066,662.0,600,456,60,122.0,77,1,270,152,53,0,0,354,-2345,-22519,655,,,,,,,,,,,,
123423,1560691395228,24,2.24,1.89,3.53,1.72,5.04,1.21,-0.26,-0.04,4,1,1,1.24,7911,8,88,33,22,1072,655.0,592,457,60,121.0,77,1,269,151,53,0,0,384,-30207,-30064,655,,,,,,,,,,,,
123443,1560691395248,23,2.25,1.86,3.51,1.72,5.07,1.26,-0.24,-0.12,4,1,-0,1.29,7668,8,88,33,22,1081,648.0,575,459,60,120.0,67,1,266,151,44,0,0,411,479,-3190,646,45.699005,4.910068,69.63,197.1,0,0.0,0,0.0,1.8258,1,0.77,2.0574
123463,1560691395268,25,2.24,1.82,3.54,1.72,5.04,1.34,-0.13,-0.31,4,1,4,1.34,7488,8,88,34,22,1091,640.0,560,455,60,121.0,67,1,264,151,44,0,0,406,24,-16046,638,,,,,,,,,,,,
123483,1560691395288,24,2.24,1.78,3.54,1.68,5.08,1.33,-0.05,-0.36,4,2,6,1.33,7428,8,89,34,22,1097,631.0,546,461,60,121.0,67,1,264,151,44,0,0,357,20993,-4054,631,,,,,,,,,,,,
123503,1560691395307,22,2.24,1.8,3.53,1.66,5.04,1.32,-0.03,-0.31,4,1,5,1.32,7473,7,88,34,22,1103,634.0,560,457,60,121.0,67,1,264,151,44,0,0,336,-4876,32033,623,,,,,,,,,,,,
123523,1560691395327,20,2.25,1.81,3.53,1.66,5.05,1.25,-0.08,-0.33,4,0,2,1.26,7390,8,88,34,22,1114,623.0,552,461,60,121.0,67,1,263,151,44,0,0,333,3395,-9203,614,,,,,,,,,,,,
123543,1560691395347,21,2.25,1.82,3.53,1.68,5.06,1.2,-0.06,-0.49,3,1,2,1.2,7338,8,88,34,22,1125,615.0,546,457,60,121.0,68,1,263,151,42,0,0,335,26688,21432,605,45.69899,4.910055,66.69,197.1,0,0.0,0,0.0,1.8275,1,0.78,2.0591
123563,1560691395367,20,2.26,1.82,3.53,1.67,5.04,1.19,0.05,-0.55,2,-2,3,1.19,7231,8,88,34,22,1131,609.0,539,457,60,122.0,68,1,262,151,42,0,0,328,19621,21580,599,,,,,,,,,,,,
123583,1560691395387,24,2.27,1.81,3.52,1.66,5.07,1.27,0.04,-0.45,-1,-2,3,1.27,7145,8,88,34,22,1136,603.0,531,456,60,122.0,68,1,261,71,42,0,0,316,30227,2211,596,,,,,,,,,,,,
123603,1560691395407,24,2.28,1.81,3.51,1.67,5.05,1.3,-0.06,-0.25,-1,-1,1,1.3,7038,8,88,34,22,1120,596.0,529,457,60,121.0,68,1,260,151,42,0,0,317,17344,3571,585,,,,,,,,,,,,
123623,1560691395427,20,2.28,1.8,3.53,1.66,5.04,1.29,-0.06,-0.31,-1,-2,-1,1.29,6996,8,89,34,22,1106,592.0,517,460,60,122.0,68,1,260,151,42,0,0,301,208,13180,579,,,,,,,,,,,,
123643,1560691395447,24,2.3,1.81,3.54,1.66,5.04,1.18,0.01,-0.39,-2,-2,-1,1.18,6895,8,89,34,23,1085,581.0,516,455,60,123.0,67,1,261,153,39,0,0,291,10432,2524,573,45.698978,4.910043,63.41,197.1,0,0.0,0,0.0,1.8292,1,0.78,2.0607
123663,1560691395467,21,2.29,1.82,3.52,1.67,5.04,1.27,-0.05,-0.31,-1,0,-1,1.27,6778,8,89,34,23,1065,577.0,512,461,60,122.0,67,1,261,153,39,0,0,294,259,18584,568,,,,,,,,,,,,
123683,1560691395487,24,2.3,1.81,3.51,1.67,5.07,1.22,-0.02,-0.33,-2,-2,-1,1.22,6618,8,89,34,23,1030,566.0,506,455,60,123.0,67,1,262,152,39,0,0,313,-2934,16648,561,,,,,,,,,,,,
123703,1560691395507,18,2.3,1.81,3.52,1.66,5.08,1.23,-0.0,-0.4,-2,0,2,1.23,6565,8,89,34,24,996,559.0,496,462,60,121.0,67,1,263,155,39,0,0,307,6273,-9160,553,,,,,,,,,,,,
123723,1560691395527,20,2.29,1.81,3.53,1.64,5.04,1.3,-0.07,-0.26,-2,1,0,1.3,6665,7,89,34,24,975,555.0,500,459,60,122.0,67,1,263,155,39,0,0,280,-28648,9517,547,,,,,,,,,,,,
123743,1560691395547,17,2.28,1.8,3.53,1.63,5.07,1.26,0.02,-0.31,-3,1,-1,1.26,6670,7,89,34,24,961,551.0,503,458,60,122.0,71,1,263,155,39,0,0,257,6274,-14707,544,45.698963,4.910032,60.37,197.1,0,0.0,0,0.0,1.8308,1,0.78,2.0624
123763,1560691395567,18,2.28,1.82,3.51,1.63,5.03,1.27,-0.04,-0.29,-3,1,-3,1.27,6508,7,89,34,24,951,546.0,508,462,60,120.0,71,1,263,155,39,0,0,261,2524,3082,534,,,,,,,,,,,,
123783,1560691395587,21,2.28,1.83,3.48,1.66,5.03,1.24,-0.03,-0.27,-3,0,-4,1.25,6375,8,89,34,25,940,537.0,498,461,60,121.0,71,1,267,159,39,0,0,281,-30064,-18948,527,,,,,,,,,,,,
123803,1560691395605,22,2.28,1.84,3.47,1.65,5.03,1.18,0.07,-0.3,-3,0,-3,1.19,6239,8,89,34,25,942,528.0,486,458,60,123.0,71,1,268,159,39,0,0,315,-28648,-8151,516,,,,,,,,,,,,
123823,1560691395625,19,2.29,1.85,3.45,1.64,5.04,1.13,0.2,-0.4,-2,2,-3,1.15,6123,7,89,34,26,947,525.0,478,457,60,122.0,71,1,272,159,39,0,0,343,2088,-3414,514,,,,,,,,,,,,
123843,1560691395645,22,2.28,1.85,3.46,1.64,5.05,1.09,0.26,-0.39,-1,4,-3,1.12,6064,7,89,34,26,951,513.0,468,453,60,122.0,71,1,272,160,37,0,0,381,26178,-3968,503,45.698956,4.910022,56.77,197.2,0,0.0,0,0.0,1.8325,1,0.78,2.064
123863,1560691395665,21,2.28,1.84,3.46,1.62,5.08,1.1,0.32,-0.46,-2,7,-2,1.15,6129,7,89,34,26,953,512.0,463,456,60,123.0,71,1,272,160,37,0,0,361,17136,-27136,498,,,,,,,,,,,,
123883,1560691395685,15,2.29,1.84,3.46,1.63,5.04,1.19,0.26,-0.48,-3,10,-2,1.22,6190,8,89,34,27,952,504.0,470,460,60,121.0,71,1,275,161,37,0,0,346,-32248,20480,500,,,,,,,,,,,,
123903,1560691395709,15,2.28,1.85,3.46,1.64,5.05,1.27,0.15,-0.4,-5,9,-0,1.28,6133,7,89,34,27,949,501.0,468,461,60,121.0,71,1,275,161,37,0,0,346,11560,-16896,491,,,,,,,,,,,,
123923,1560691395729,14,2.29,1.85,3.39,1.63,5.04,1.35,0.05,-0.24,-6,5,1,1.35,6032,8,89,34,27,945,493.0,462,457,60,121.0,71,1,275,161,37,0,0,366,-6528,30720,484,,,,,,,,,,,,
123943,1560691395749,14,2.31,1.86,3.37,1.64,5.04,1.42,0.04,-0.15,-8,2,-0,1.42,6042,7,89,34,28,941,484.0,457,457,60,121.0,74,1,278,163,36,0,0,404,8488,28160,481,45.69894,4.910012,53.17,197.2,0,0.0,0,0.0,1.8342,1,0.78,2.0657
123963,1560691395769,13,2.33,1.85,3.42,1.63,5.08,1.48,-0.01,-0.05,-9,-2,0,1.48,6165,7,89,35,28,938,479.0,461,458,60,121.0,74,1,278,162,36,0,0,343,10305,630,469,,,,,,,,,,,,
123983,1560691395789,12,2.36,1.84,3.44,1.62,5.07,1.52,-0.05,0.02,-9,-5,-0,1.52,6137,7,89,35,28,937,470.0,465,458,60,121.0,74,1,278,162,36,0,0,314,8488,1886,468,,,,,,,,,,,,
124003,1560691395809,13,2.35,1.84,3.47,1.65,5.04,1.42,-0.03,0.06,-7,-7,1,1.42,6044,7,89,35,28,937,468.0,463,456,60,122.0,74,1,278,162,36,0,0,333,30272,24320,466,,,,,,,,,,,,
124023,1560691395829,12,2.37,1.86,3.47,1.68,5.05,1.31,0.07,0.04,-5,-8,3,1.31,5933,7,89,35,28,939,457.0,457,461,60,120.0,74,1,277,161,36,0,0,338,-9160,-6656,457,,,,,,,,,,,,
124043,1560691395849,14,2.36,1.87,3.47,1.67,5.08,1.34,0.07,0.08,-4,-11,2,1.34,5963,7,89,35,29,940,451.0,454,458,60,121.0,79,1,280,163,36,0,0,335,2131,0,451,45.698933,4.910002,50.83,197.3,0,0.0,0,0.0,1.8358,1,0.78,2.0674
124063,1560691395869,14,2.34,1.83,3.47,1.63,5.06,1.41,0.1,0.15,-3,-18,1,1.41,6060,7,89,35,29,941,447.0,456,457,60,121.0,79,1,281,163,36,0,0,343,23400,135,447,,,,,,,,,,,,
124083,1560691395889,14,2.35,1.83,3.52,1.64,5.04,1.36,0.15,0.19,-2,-19,3,1.37,6103,7,89,35,29,943,442.0,460,458,60,122.0,79,1,281,163,36,0,0,330,21580,130,442,,,,,,,,,,,,
124103,1560691395909,15,2.33,1.83,3.52,1.64,5.07,1.22,0.14,0.12,-1,-19,2,1.23,6097,7,89,35,29,946,437.0,465,458,60,123.0,79,1,281,163,36,0,0,299,1779,125,438,,,,,,,,,,,,
124123,1560691395929,15,2.33,1.84,3.46,1.66,5.04,1.09,0.17,0.09,1,-17,4,1.1,5992,7,89,35,29,948,433.0,464,460,60,122.0,79,1,280,163,36,0,0,329,-3856,28553,433,,,,,,,,,,,,
124143,1560691395949,14,2.33,1.85,3.46,1.66,5.04,1.03,0.24,0.06,3,-18,4,1.06,5984,7,89,35,29,949,423.0,461,458,60,122.0,84,1,280,163,36,0,0,351,18584,0,423,45.698917,4.909992,47.63,197.4,0,0.0,0,0.0,1.8375,1,0.79,2.0691
124163,1560691395969,13,2.31,1.84,3.47,1.64,5.04,1.0,0.3,0.04,5,-20,6,1.05,6062,7,89,35,29,949,416.0,461,457,60,122.0,84,1,281,165,36,0,0,338,10392,150,416,,,,,,,,,,,,
124183,1560691395989,14,2.31,1.83,3.49,1.64,5.03,0.88,0.34,0.08,6,-19,7,0.94,6157,7,89,35,29,947,413.0,465,456,60,122.0,84,1,281,163,36,0,0,334,-26615,29440,414,,,,,,,,,,,,
124203,1560691396003,13,2.31,1.83,3.49,1.65,5.07,0.73,0.38,-0.01,8,-18,8,0.82,6117,7,89,35,29,945,410.0,467,457,60,122.0,84,1,281,163,36,0,0,316,11545,-122,410,,,,,,,,,,,,
124223,1560691396023,10,2.32,1.83,3.48,1.68,5.05,0.56,0.38,-0.09,10,-13,9,0.68,6107,7,89,35,29,943,404.0,465,457,60,123.0,84,1,281,163,36,0,0,328,-1818,0,404,,,,,,,,,,,,
124243,1560691396043,12,2.31,1.83,3.49,1.67,5.04,0.49,0.42,-0.17,11,-8,10,0.65,6239,7,89,35,29,940,396.0,468,457,60,122.0,92,1,280,163,37,0,0,337,-1562,13,396,45.69891,4.909985,44.06,197.4,0,0.0,0,0.0,1.8392,1,0.79,2.0707
124263,1560691396063,5,2.31,1.84,3.47,1.66,5.06,0.61,0.29,-0.18,11,-6,10,0.68,6364,7,89,35,29,936,391.0,483,461,60,121.0,92,1,280,163,37,0,0,344,-19019,-23296,391,,,,,,,,,,,,
124283,1560691396083,5,2.32,1.84,3.48,1.66,5.05,0.71,0.19,-0.08,10,-10,8,0.74,6443,7,89,35,28,931,387.0,490,457,60,121.0,92,1,276,163,37,0,0,343,2278,-122,387,,,,,,,,,,,,
124303,1560691396109,6,2.33,1.84,3.5,1.69,5.07,0.7,0.17,-0.1,11,-11,6,0.72,6521,7,89,35,28,930,383.0,490,450,60,122.0,92,1,275,162,37,0,0,336,3,3302,383,,,,,,,,,,,,
124323,1560691396129,2,2.34,1.83,3.52,1.74,5.05,0.77,0.12,-0.09,10,-9,6,0.78,6546,7,89,35,28,928,381.0,491,459,60,121.0,92,1,275,162,37,0,0,335,-6656,-6458,381,,,,,,,,,,,,
124343,1560691396149,4,2.34,1.81,3.49,1.76,5.07,0.83,0.04,0.01,9,-8,5,0.83,6613,7,89,35,28,923,378.0,499,457,60,122.0,104,1,275,162,40,0,0,345,-6656,4104,378,45.698898,4.909977,40.72,197.5,0,0.0,0,0.0,1.8408,1,0.79,2.0724
124363,1560691396169,1,2.34,1.85,3.46,1.84,5.06,0.84,0.07,-0.02,9,-6,5,0.84,6641,7,89,35,28,918,375.0,507,455,60,123.0,104,1,275,162,40,0,0,356,-1268,-14707,375,,,,,,,,,,,,
124383,1560691396189,3,2.34,1.88,3.43,1.88,5.03,0.85,-0.06,0.07,9,-8,4,0.86,6670,7,89,35,27,914,370.0,514,456,60,121.0,104,1,271,160,40,0,0,358,-6458,-6644,371,,,,,,,,,,,,
124403,1560691396209,-0,2.36,1.87,3.43,1.89,5.08,0.84,0.02,-0.03,9,-6,5,0.84,6722,7,89,35,27,912,366.0,514,457,60,122.0,104,1,270,160,40,0,0,352,-29978,4104,366,,,,,,,,,,,,
124423,1560691396229,-2,2.35,1.88,3.43,1.89,5.04,0.96,-0.08,0.06,9,-6,7,0.96,6706,7,89,35,27,907,366.0,510,457,60,121.0,104,1,270,160,40,0,0,349,-6640,4104,366,,,,,,,,,,,,
124443,1560691396249,5,2.35,1.89,3.45,1.92,5.05,0.75,-0.0,-0.04,10,-0,9,0.75,6684,7,89,35,26,901,366.0,512,455,60,122.0,109,1,267,159,40,0,0,350,3302,-29978,366,45.698894,4.90997,37.94,197.5,0,0.0,0,0.0,1.8425,1,0.79,2.074
124463,1560691396269,1,2.36,1.92,3.43,1.97,5.06,0.88,-0.09,0.05,9,-3,10,0.89,6604,7,89,35,26,899,366.0,516,461,60,120.0,109,1,267,159,40,0,0,349,3183,-29302,366,,,,,,,,,,,,
124483,1560691396289,4,2.37,1.92,3.43,1.99,5.03,0.84,-0.12,0.16,10,-5,9,0.85,6546,7,89,35,26,896,364.0,504,454,60,122.0,109,1,268,159,40,0,0,351,28553,2060,364,,,,,,,,,,,,
124503,1560691396308,1,2.37,1.91,3.42,1.99,5.04,0.78,-0.1,0.13,10,-2,8,0.79,6492,7,89,35,26,894,361.0,495,451,60,123.0,109,1,269,159,40,0,0,346,-1246,-29978,361,,,,,,,,,,,,
124523,1560691396328,-0,2.38,1.91,3.42,2.0,5.04,0.84,-0.2,0.14,9,-2,7,0.86,6474,7,89,35,26,892,360.0,495,458,60,121.0,109,1,269,159,40,0,0,343,8841,-1246,360,,,,,,,,,,,,
124543,1560691396348,3,2.4,1.92,3.42,2.01,5.04,0.87,-0.22,0.22,9,-4,8,0.89,6438,8,89,35,26,890,358.0,495,454,60,123.0,108,1,269,160,39,0,0,344,-30438,2060,358,45.698883,4.909963,36.3,197.6,0,0.0,0,0.0,1.8442,1,0.79,2.0757
124563,1560691396368,4,2.41,1.93,3.43,2.0,5.04,0.8,-0.15,0.15,10,-3,9,0.81,6427,10,89,35,27,892,356.0,492,454,60,123.0,108,1,272,160,39,0,0,342,-10554,-30454,356,,,,,,,,,,,,
124583,1560691396388,-1,2.44,1.93,3.43,2.03,5.04,0.84,-0.23,0.2,10,-3,9,0.87,6421,13,89,35,28,895,355.0,493,457,60,121.0,108,1,276,162,39,0,0,337,3327,-30454,356,,,,,,,,,,,,
124603,1560691396408,1,2.46,1.93,3.46,2.07,5.06,0.91,-0.31,0.27,10,-4,10,0.96,6399,15,89,35,29,898,356.0,491,460,60,122.0,108,1,280,165,39,0,0,333,-122,2811,356,,,,,,,,,,,,
124623,1560691396428,3,2.49,1.92,3.5,2.07,5.08,0.85,-0.38,0.29,12,-3,11,0.93,6390,15,89,35,31,900,356.0,496,460,60,122.0,108,1,286,166,39,0,0,331,3346,2811,356,,,,,,,,,,,,
124643,1560691396448,-2,2.51,1.9,3.5,2.1,5.06,0.79,-0.36,0.22,15,-0,13,0.86,6419,16,89,35,32,903,358.0,491,457,60,123.0,112,1,290,168,40,0,0,327,-12032,3183,358,45.698875,4.909955,35.07,197.6,0,0.0,0,0.0,1.8458,1,0.79,2.0774
124663,1560691396468,-2,2.53,1.87,3.52,2.12,5.05,0.9,-0.49,0.24,14,-0,16,1.02,6399,16,89,35,34,909,357.0,491,457,60,121.0,112,1,295,178,40,0,0,326,175,3302,358,,,,,,,,,,,,
124683,1560691396488,1,2.53,1.87,3.51,2.14,5.04,0.93,-0.56,0.34,15,-1,19,1.09,6403,17,89,35,35,913,358.0,488,457,60,122.0,112,1,298,184,40,0,0,321,165,3302,358,,,,,,,,,,,,
124703,1560691396508,2,2.54,1.87,3.51,2.17,5.08,0.75,-0.58,0.37,18,1,20,0.95,6377,17,89,35,36,915,358.0,484,457,60,123.0,112,1,301,189,40,0,0,320,-23296,4104,358,,,,,,,,,,,,
124723,1560691396528,-1,2.56,1.89,3.5,2.21,5.06,0.71,-0.53,0.36,19,3,21,0.88,6360,17,89,35,37,919,358.0,489,461,60,122.0,112,1,304,195,40,0,0,322,155,3183,358,,,,,,,,,,,,
124743,1560691396548,-1,2.58,1.9,3.52,2.25,5.06,0.83,-0.63,0.28,19,1,22,1.04,6336,18,89,35,38,922,355.0,490,462,60,122.0,128,1,307,201,46,0,0,320,-24576,-6644,357,45.698872,4.909947,35.06,197.8,0,0.0,0,0.0,1.8475,1,0.79,2.0791
124763,1560691396568,1,2.59,1.87,3.57,2.24,5.04,0.89,-0.73,0.28,20,-2,26,1.15,6321,18,89,35,39,922,357.0,495,452,60,121.0,128,1,310,207,46,0,0,317,-27136,-6644,357,,,,,,,,,,,,
124783,1560691396588,2,2.6,1.86,3.62,2.25,5.07,0.84,-0.74,0.39,22,-2,29,1.12,6334,19,89,35,40,922,360.0,491,450,60,123.0,128,1,316,208,46,0,0,313,-27136,3302,360,,,,,,,,,,,,
124803,1560691396610,6,2.6,1.85,3.63,2.27,5.08,0.7,-0.76,0.42,24,-0,31,1.03,6338,19,89,35,41,922,361.0,488,457,60,122.0,128,1,323,209,46,0,0,314,145,3302,361,,,,,,,,,,,,
124823,1560691396630,-0,2.59,1.87,3.61,2.29,5.04,0.7,-0.71,0.4,24,2,32,1.0,6347,19,89,35,42,920,361.0,486,457,60,121.0,128,1,329,211,46,0,0,311,135,3302,359,,,,,,,,,,,,
124843,1560691396650,0,2.6,1.86,3.6,2.3,5.07,0.77,-0.73,0.33,24,1,33,1.06,6373,19,89,35,42,914,358.0,485,456,60,120.0,139,1,329,211,50,0,0,314,-29696,-6644,358,45.69886,4.909939,34.52,198.0,0,0.0,0,0.0,1.8492,1,0.79,2.0807
124863,1560691396670,4,2.59,1.86,3.61,2.29,5.04,0.83,-0.77,0.44,25,-1,32,1.13,6386,19,89,35,43,909,357.0,486,460,60,121.0,139,1,336,212,50,0,0,312,-30976,28553,357,,,,,,,,,,,,
124883,1560691396690,5,2.6,1.87,3.63,2.28,5.06,0.79,-0.73,0.4,27,-2,32,1.08,6401,20,89,35,44,906,357.0,486,455,60,122.0,139,1,343,214,50,0,0,311,-29696,2060,357,,,,,,,,,,,,
124903,1560691396710,-1,2.6,1.87,3.63,2.29,5.07,0.82,-0.79,0.37,26,-2,33,1.14,6416,20,89,35,44,903,355.0,488,455,60,122.0,139,1,343,214,50,0,0,311,-30976,28553,355,,,,,,,,,,,,
124923,1560691396730,3,2.6,1.88,3.63,2.29,5.05,0.82,-0.82,0.36,27,-2,34,1.16,6401,20,89,35,45,898,356.0,493,461,60,120.0,139,1,350,216,50,0,0,311,-30976,2060,356,,,,,,,,,,,,
124943,1560691396750,3,2.6,1.87,3.6,2.28,5.06,0.82,-0.86,0.42,28,-2,35,1.19,6412,20,89,35,45,894,355.0,493,456,60,123.0,146,1,350,216,52,0,0,308,-32256,-1246,355,45.698856,4.909931,34.33,198.0,0,0.0,0,0.0,1.8508,1,0.79,2.0824
124963,1560691396770,0,2.6,1.87,3.53,2.27,5.03,0.78,-0.81,0.4,29,-2,37,1.13,6414,20,89,35,45,895,355.0,490,458,60,114.0,146,1,350,216,52,0,0,307,130,8841,355,,,,,,,,,,,,
124983,1560691396790,0,2.58,1.87,3.56,2.26,5.03,0.91,-0.91,0.37,28,-5,39,1.29,6476,20,89,35,46,898,355.0,489,457,60,113.0,146,1,357,217,52,0,0,308,-32256,-6644,355,,,,,,,,,,,,
125003,1560691396810,1,2.57,1.87,3.6,2.27,5.06,0.82,-0.87,0.4,29,-4,41,1.2,6425,20,89,35,46,905,353.0,497,453,60,114.0,146,1,357,217,52,0,0,312,125,2811,353,,,,,,,,,,,,
125023,1560691396830,4,2.54,1.9,3.59,2.27,5.05,0.76,-0.84,0.43,29,-2,41,1.13,6427,20,90,35,46,913,352.0,495,451,60,114.0,146,1,357,217,52,0,0,309,-32256,8841,352,,,,,,,,,,,,
125043,1560691396850,0,2.52,1.93,3.57,2.27,5.06,0.75,-0.72,0.38,28,-2,41,1.05,6403,21,90,35,47,923,351.0,497,461,60,114.0,150,1,364,219,53,0,0,315,130,-30438,351,45.698853,4.909923,33.06,198.0,0,0.0,0,0.0,1.8525,1,0.79,2.084
125063,1560691396870,0,2.48,1.96,3.54,2.28,5.06,0.84,-0.8,0.36,27,-4,41,1.16,6285,21,90,35,47,935,351.0,491,457,60,113.0,150,1,362,218,53,0,0,319,-29696,-1246,350,,,,,,,,,,,,
125083,1560691396890,1,2.46,2.01,3.47,2.3,5.07,0.9,-0.8,0.41,27,-7,41,1.21,6233,21,90,35,48,955,351.0,482,450,60,115.0,150,1,365,223,53,0,0,321,-29696,2811,351,,,,,,,,,,,,
125103,1560691396910,1,2.41,2.08,3.4,2.31,5.06,0.96,-0.71,0.53,26,-8,40,1.2,6179,21,90,35,48,975,349.0,474,449,60,115.0,150,1,364,222,53,0,0,323,140,8841,349,,,,,,,,,,,,
125123,1560691396930,2,2.36,2.15,3.35,2.28,5.04,0.9,-0.6,0.63,26,-9,38,1.08,6159,21,90,35,49,988,346.0,471,455,60,116.0,150,1,367,227,53,0,0,321,-27136,2811,346,,,,,,,,,,,,
125143,1560691396950,2,2.3,2.16,3.31,2.23,5.06,0.81,-0.5,0.64,25,-8,35,0.95,6167,21,90,35,49,1004,343.0,467,459,60,116.0,153,1,367,227,53,0,0,326,160,-122,343,45.698849,4.909913,32.88,198.0,0,0.0,0,0.0,1.8542,1,0.8,2.0857
125163,1560691396970,0,2.25,2.16,3.29,2.18,5.04,0.79,-0.37,0.6,22,-5,33,0.87,6192,21,90,35,50,1029,338.0,467,463,60,115.0,153,1,371,227,53,0,0,327,165,-31222,338,,,,,,,,,,,,
125183,1560691396990,-1,2.2,2.21,3.27,2.14,5.07,0.75,-0.31,0.46,18,-3,32,0.81,6252,21,90,35,50,1055,337.0,466,463,60,114.0,153,1,371,233,53,0,0,333,-32559,2560,337,,,,,,,,,,,,
125203,1560691397004,1,2.14,2.28,3.21,2.09,5.04,0.8,-0.35,0.41,15,-2,29,0.87,6277,21,90,35,50,1068,336.0,470,466,60,115.0,153,1,371,233,53,0,0,336,13,-32559,333,,,,,,,,,,,,
125223,1560691397024,0,2.11,2.31,3.13,2.04,5.05,0.92,-0.33,0.52,11,-3,25,0.97,6311,22,90,35,50,1081,341.0,475,455,60,117.0,153,1,372,233,53,0,0,342,6668,-32559,329,,,,,,,,,,,,
125243,1560691397044,2,2.07,2.36,3.1,2.01,5.06,0.87,-0.2,0.56,9,-4,20,0.9,6321,22,90,35,50,1096,341.0,480,456,60,117.0,167,1,372,233,55,0,0,343,6668,-20736,326,45.698841,4.909903,32.53,198.0,0,0.0,0,0.0,1.8558,1,0.8,2.0874
125263,1560691397064,-5,2.01,2.43,3.1,1.98,5.06,0.83,0.02,0.5,7,-2,17,0.83,6304,22,90,35,50,1111,345.0,482,458,60,116.0,167,1,372,233,55,0,0,342,6870,175,324,,,,,,,,,,,,
125283,1560691397084,0,1.96,2.48,3.09,1.99,5.08,0.78,0.08,0.42,4,-1,14,0.78,6332,22,90,35,50,1113,346.0,486,460,60,116.0,167,1,372,233,55,0,0,347,-30438,-32559,324,,,,,,,,,,,,
125303,1560691397108,0,1.89,2.49,3.04,1.98,5.03,0.83,0.04,0.41,0,-1,11,0.83,6279,22,90,35,51,1114,345.0,490,461,60,116.0,167,1,375,239,55,0,0,347,-1246,175,322,,,,,,,,,,,,
125323,1560691397128,0,1.85,2.5,3.04,1.98,5.05,0.92,0.02,0.47,-2,-4,6,0.92,6254,22,90,35,51,1112,348.0,486,463,60,116.0,167,1,375,239,55,0,0,348,-1246,-12032,320,,,,,,,,,,,,
125343,1560691397148,3,1.8,2.49,3.04,1.98,5.07,0.88,0.14,0.55,-5,-4,2,0.89,6281,22,90,35,51,1110,348.0,485,459,60,117.0,175,1,375,239,56,0,0,347,-1246,-24576,320,45.698837,4.909893,32.77,198.1,0,0.0,0,0.0,1.8575,1,0.8,2.0891
125363,1560691397168,3,1.76,2.5,3.01,1.95,5.04,0.84,0.32,0.42,-7,-2,-0,0.9,6336,22,90,35,51,1106,348.0,480,456,60,118.0,175,1,376,239,56,0,0,349,-1246,155,316,,,,,,,,,,,,
125383,1560691397188,-2,1.76,2.5,2.98,1.91,5.07,0.78,0.39,0.39,-9,0,-4,0.87,6313,22,90,35,51,1101,350.0,481,457,60,116.0,175,1,375,239,56,0,0,352,-30454,-23296,314,,,,,,,,,,,,
125403,1560691397210,1,1.75,2.49,2.98,1.87,5.04,0.91,0.34,0.39,-13,-1,-8,0.97,6345,22,90,35,51,1098,351.0,488,458,60,117.0,175,1,376,239,56,0,0,352,28553,160,311,,,,,,,,,,,,
125423,1560691397230,3,1.75,2.49,2.98,1.83,5.04,1.01,0.31,0.53,-16,-4,-14,1.06,6366,22,90,35,51,1096,357.0,485,457,60,118.0,175,1,376,239,56,0,0,356,3183,155,308,,,,,,,,,,,,
125443,1560691397250,2,1.76,2.49,2.96,1.81,5.04,0.96,0.48,0.46,-18,-1,-18,1.07,6371,22,90,35,51,1099,355.0,487,461,60,118.0,183,1,376,239,57,0,0,354,2060,-32559,310,45.698837,4.909883,32.19,198.1,0,0.0,0,0.0,1.8592,1,0.8,2.0907
125463,1560691397270,-1,1.75,2.52,2.97,1.82,5.05,0.82,0.64,0.31,-18,2,-21,1.04,6364,22,90,35,51,1102,357.0,490,462,60,117.0,183,1,376,239,57,0,0,354,-6640,3346,307,,,,,,,,,,,,
125483,1560691397290,-1,1.74,2.53,2.98,1.82,5.05,0.89,0.52,0.36,-21,-1,-26,1.03,6390,22,90,35,51,1106,355.0,493,458,60,117.0,183,1,376,239,57,0,0,353,2060,-24576,305,,,,,,,,,,,,
125503,1560691397309,1,1.74,2.52,3.0,1.82,5.06,0.97,0.45,0.44,-25,-3,-30,1.07,6345,22,90,35,51,1111,355.0,491,456,60,118.0,183,1,376,239,57,0,0,354,3302,150,309,,,,,,,,,,,,
125523,1560691397329,5,1.74,2.54,2.97,1.81,5.06,0.92,0.61,0.37,-27,-2,-31,1.1,6334,22,90,35,51,1116,356.0,482,458,60,118.0,183,1,376,239,57,0,0,355,4104,-22016,308,,,,,,,,,,,,
125543,1560691397349,-0,1.75,2.56,2.93,1.79,5.04,0.87,0.75,0.36,-27,0,-34,1.15,6358,22,90,35,51,1121,359.0,479,466,60,117.0,185,1,376,239,57,0,0,354,-29302,-10554,305,45.69883,4.909874,32.02,198.0,0,0.0,0,0.0,1.8608,1,0.8,2.0924
125563,1560691397369,1,1.75,2.56,2.94,1.78,5.04,0.83,0.7,0.39,-29,-1,-39,1.08,6423,22,90,35,51,1122,358.0,485,464,60,117.0,185,1,376,245,57,0,0,355,-29978,6870,303,,,,,,,,,,,,
125583,1560691397389,4,1.75,2.55,2.92,1.76,5.04,0.95,0.62,0.46,-30,-1,-41,1.13,6438,22,90,35,51,1124,355.0,491,458,60,119.0,185,1,376,239,57,0,0,351,-29302,-27136,302,,,,,,,,,,,,
125603,1560691397409,1,1.77,2.54,2.89,1.76,5.05,0.9,0.76,0.49,-32,1,-42,1.18,6456,22,90,35,51,1126,356.0,493,453,60,119.0,185,1,376,239,57,0,0,353,4104,-29696,302,,,,,,,,,,,,
125623,1560691397429,0,1.78,2.54,2.9,1.75,5.04,0.85,0.77,0.45,-33,1,-43,1.15,6423,22,90,35,51,1126,359.0,495,457,60,117.0,185,1,376,239,57,0,0,355,-29302,-12032,302,,,,,,,,,,,,
125643,1560691397449,1,1.81,2.54,2.91,1.73,5.08,0.91,0.66,0.45,-36,0,-45,1.12,6397,22,90,35,51,1125,359.0,494,458,60,119.0,192,1,376,239,58,0,0,355,-29302,3183,303,45.698822,4.909866,31.97,198.1,0,0.0,0,0.0,1.8625,1,0.8,2.094
125663,1560691397469,4,1.81,2.56,2.92,1.74,5.06,0.97,0.73,0.6,-36,-1,-47,1.22,6392,22,90,35,51,1126,361.0,492,454,60,119.0,192,1,376,239,58,0,0,351,-6458,230,300,,,,,,,,,,,,
125683,1560691397489,1,1.84,2.55,2.98,1.74,5.08,0.86,0.86,0.48,-36,0,-47,1.22,6461,22,90,35,51,1128,361.0,489,454,60,118.0,192,1,376,239,58,0,0,353,-6458,-6644,299,,,,,,,,,,,,
125703,1560691397509,0,1.87,2.56,2.96,1.75,5.04,0.88,0.76,0.46,-37,1,-48,1.16,6530,22,90,35,51,1129,359.0,494,447,60,118.0,192,1,377,239,58,0,0,350,-29302,145,301,,,,,,,,,,,,
125723,1560691397529,4,1.9,2.55,2.96,1.73,5.05,0.95,0.76,0.51,-38,0,-49,1.21,6574,22,90,35,51,1130,357.0,500,450,60,119.0,192,1,377,239,58,0,0,355,-6640,30720,302,,,,,,,,,,,,
125743,1560691397549,-2,1.96,2.54,2.95,1.73,5.07,0.84,0.88,0.48,-37,3,-48,1.22,6519,22,90,35,51,1131,358.0,499,457,60,118.0,195,1,377,239,59,0,0,351,2060,-22016,302,45.698818,4.909858,31.6,198.1,0,0.0,0,0.0,1.8642,1,0.8,2.0957
125763,1560691397569,1,2.0,2.55,2.97,1.77,5.06,0.85,0.69,0.55,-36,1,-49,1.09,6430,22,90,35,51,1132,355.0,499,449,60,118.0,195,1,376,239,59,0,0,354,2060,-31206,304,,,,,,,,,,,,
125783,1560691397589,3,2.06,2.54,2.97,1.85,5.08,0.92,0.64,0.69,-36,-2,-50,1.12,6358,22,90,35,51,1133,353.0,487,450,60,119.0,195,1,376,239,59,0,0,351,-6644,4838,308,,,,,,,,,,,,
125803,1560691397609,5,2.08,2.53,2.95,1.9,5.05,0.78,0.71,0.66,-33,-1,-49,1.06,6323,22,90,35,50,1133,349.0,476,448,60,119.0,195,1,372,233,59,0,0,352,2811,155,313,,,,,,,,,,,,
125823,1560691397629,-0,2.12,2.5,2.97,1.95,5.05,0.8,0.61,0.61,-31,2,-47,1.0,6264,22,90,35,50,1133,349.0,473,456,60,118.0,195,1,371,233,59,0,0,350,-1246,165,316,,,,,,,,,,,,
125843,1560691397649,-0,2.16,2.45,3.02,1.99,5.06,0.88,0.45,0.65,-30,5,-44,0.98,6216,22,90,35,50,1132,346.0,472,457,60,118.0,173,1,371,233,55,0,0,344,-30438,170,321,45.698814,4.909852,31.73,198.0,0,0.0,0,0.0,1.8658,1,0.8,2.0974
125863,1560691397669,-0,2.19,2.43,3.09,2.06,5.05,0.98,0.41,0.68,-29,5,-41,1.06,6210,22,90,35,50,1130,343.0,466,460,60,118.0,173,1,371,233,55,0,0,345,-14714,-22016,324,,,,,,,,,,,,
125883,1560691397689,2,2.24,2.4,3.1,2.05,5.04,1.06,0.36,0.75,-27,3,-39,1.12,6212,22,90,35,50,1127,342.0,463,457,60,118.0,173,1,371,233,55,0,0,345,6668,175,327,,,,,,,,,,,,
125903,1560691397709,3,2.27,2.36,3.14,2.04,5.04,0.99,0.35,0.8,-24,2,-38,1.05,6247,21,90,35,50,1124,342.0,470,450,60,119.0,173,1,371,233,55,0,0,343,-31206,175,329,,,,,,,,,,,,
125923,1560691397729,2,2.33,2.33,3.19,2.07,5.06,0.92,0.4,0.78,-21,3,-34,1.0,6287,21,90,35,50,1121,340.0,470,448,60,119.0,173,1,371,233,55,0,0,339,3327,-12032,331,,,,,,,,,,,,
125943,1560691397749,1,2.38,2.32,3.26,2.12,5.05,0.87,0.32,0.72,-19,3,-31,0.93,6321,21,90,35,50,1119,337.0,476,452,60,118.0,166,1,372,233,55,0,0,338,2560,-31222,335,45.698803,4.909847,31.71,198.0,0,0.0,0,0.0,1.8675,1,0.8,2.0991
125963,1560691397769,-0,2.43,2.29,3.32,2.16,5.04,0.8,0.22,0.67,-15,4,-27,0.83,6345,21,90,35,49,1114,339.0,486,451,60,118.0,166,1,369,233,55,0,0,335,-12032,2560,339,,,,,,,,,,,,
125983,1560691397789,2,2.49,2.25,3.38,2.21,5.07,0.82,0.02,0.71,-12,3,-25,0.82,6343,21,90,35,49,1101,342.0,492,453,60,119.0,166,1,369,228,55,0,0,334,175,3327,343,,,,,,,,,,,,
126003,1560691397809,4,2.56,2.23,3.46,2.3,5.04,0.77,-0.02,0.67,-8,2,-20,0.77,6360,21,90,35,49,1090,346.0,484,450,60,120.0,166,1,369,228,55,0,0,335,170,2811,346,,,,,,,,,,,,
126023,1560691397829,1,2.63,2.22,3.52,2.33,5.05,0.81,-0.08,0.61,-5,2,-14,0.81,6345,21,90,35,49,1081,349.0,480,455,60,119.0,166,1,369,228,55,0,0,332,-23296,8841,349,,,,,,,,,,,,
126043,1560691397849,1,2.7,2.22,3.54,2.36,5.04,0.91,-0.22,0.59,-4,2,-9,0.93,6381,21,90,35,49,1069,351.0,477,452,60,118.0,154,1,369,228,54,0,0,338,-24576,-30454,351,45.698799,4.909842,32.18,198.0,0,0.0,0,0.0,1.8692,1,0.8,2.1007
126063,1560691397869,-1,2.79,2.19,3.5,2.36,5.07,0.93,-0.28,0.61,-1,1,-4,0.97,6401,21,90,35,49,1049,350.0,481,452,60,118.0,154,1,370,228,54,0,0,329,-27136,3183,350,,,,,,,,,,,,
126083,1560691397889,4,2.84,2.16,3.51,2.37,5.04,0.83,-0.35,0.67,4,1,-1,0.9,6390,21,90,35,49,1031,350.0,483,452,60,120.0,154,1,369,228,54,0,0,330,-28416,3183,350,,,,,,,,,,,,
126103,1560691397909,1,2.89,2.1,3.58,2.36,5.06,0.87,-0.35,0.61,7,2,4,0.94,6375,21,90,35,49,1025,350.0,480,458,60,119.0,154,1,369,228,54,0,0,330,-32256,3183,350,,,,,,,,,,,,
126123,1560691397929,1,2.92,2.09,3.61,2.38,5.05,0.89,-0.4,0.68,8,2,7,0.98,6375,21,90,35,49,1017,350.0,481,455,60,118.0,154,1,369,228,54,0,0,337,130,3302,350,,,,,,,,,,,,
126143,1560691397949,-0,0.34,2.06,3.61,2.38,5.06,0.95,-0.5,0.81,10,-2,11,1.07,6386,21,90,35,48,1009,348.0,477,447,60,119.0,157,1,366,223,55,0,0,329,30720,-6644,348,45.698792,4.909837,32.6,198.0,0,0.0,0,0.0,1.8708,1,0.8,2.1024
126163,1560691397969,2,0.34,2.06,3.61,2.38,5.05,0.82,-0.52,0.78,14,-3,13,0.97,6384,21,90,35,48,1001,349.0,478,447,60,120.0,157,1,366,223,55,0,0,326,29440,2060,349,,,,,,,,,,,,
126183,1560691397989,0,0.32,2.04,3.62,2.39,5.06,0.81,-0.52,0.66,16,-3,16,0.96,6384,21,90,35,48,1003,347.0,475,456,60,119.0,157,1,366,223,55,0,0,327,28160,4104,348,,,,,,,,,,,,
126203,1560691398003,0,2.93,2.01,3.61,2.4,5.05,0.84,-0.58,0.6,17,-1,20,1.02,6379,21,90,35,48,1004,348.0,472,459,60,118.0,157,1,366,223,55,0,0,340,105,28553,348,,,,,,,,,,,,
126223,1560691398023,1,2.92,2.02,3.64,2.4,5.04,0.93,-0.69,0.61,19,-1,21,1.15,6401,21,90,35,48,999,351.0,475,460,60,118.0,157,1,367,224,55,0,0,347,28160,3183,351,,,,,,,,,,,,
126243,1560691398043,2,2.93,2.01,3.62,2.41,5.05,0.88,-0.76,0.63,22,-3,24,1.16,6443,21,90,35,48,995,350.0,480,455,60,120.0,153,1,367,224,54,0,0,314,26880,2811,351,45.698784,4.909831,32.41,198.0,0,0.0,0,0.0,1.8725,1,0.81,2.104
126263,1560691398063,-1,0.33,2.01,3.61,2.39,5.06,0.89,-0.74,0.57,23,-4,27,1.16,6419,21,90,35,48,993,353.0,483,456,60,119.0,153,1,367,224,54,0,0,324,105,3302,353,,,,,,,,,,,,
126283,1560691398083,1,0.34,1.99,3.62,2.41,5.08,0.83,-0.8,0.55,25,-3,29,1.15,6321,21,90,35,48,988,352.0,477,455,60,119.0,153,1,366,223,54,0,0,329,110,2060,352,,,,,,,,,,,,
126303,1560691398109,3,0.37,1.97,3.63,2.41,5.03,0.85,-0.89,0.68,27,-1,30,1.23,6298,21,90,35,48,978,352.0,475,456,60,120.0,153,1,365,223,54,0,0,332,100,3183,351,,,,,,,,,,,,
126323,1560691398129,2,0.41,1.96,3.64,2.42,5.05,0.76,-0.89,0.72,29,-2,30,1.17,6311,21,90,35,48,969,350.0,478,455,60,120.0,153,1,366,223,54,0,0,343,100,3302,350,,,,,,,,,,,,
126343,1560691398149,-0,0.43,1.95,3.63,2.41,5.07,0.77,-0.86,0.62,30,-1,33,1.15,6336,21,90,35,48,964,349.0,476,453,60,119.0,151,1,366,223,53,0,0,317,90,3302,349,45.698776,4.909825,32.42,198.0,0,0.0,0,0.0,1.8742,1,0.81,2.1057
126363,1560691398169,-2,0.44,1.94,3.64,2.4,5.05,0.79,-0.94,0.65,31,-1,34,1.22,6343,21,90,35,49,959,348.0,475,454,60,119.0,151,1,369,228,53,0,0,314,23040,3183,348,,,,,,,,,,,,
126383,1560691398191,1,0.43,1.93,3.67,2.38,5.05,0.84,-1.04,0.68,33,-3,36,1.33,6343,21,90,35,48,953,346.0,454,451,60,119.0,151,1,366,223,53,0,0,327,0,3183,348,,,,,,,,,,,,
126403,1560691398211,3,0.43,1.92,3.68,2.39,5.04,0.81,-1.14,0.69,35,-2,39,1.39,6334,21,90,35,48,949,348.0,345,456,60,119.0,151,1,366,223,53,0,0,358,20480,-30454,348,,,,,,,,,,,,
126423,1560691398231,5,0.43,1.9,3.68,2.39,5.07,0.76,-1.07,0.56,36,-2,42,1.31,6384,21,90,35,48,951,348.0,291,454,60,120.0,151,1,366,228,53,0,0,354,21760,8841,348,,,,,,,,,,,,
126443,1560691398251,-2,0.44,1.91,3.68,2.4,5.05,0.8,-1.02,0.44,37,1,48,1.3,6434,21,90,35,49,952,348.0,274,462,60,118.0,158,1,370,228,55,0,0,336,41,-1246,348,45.698772,4.909818,32.18,198.0,0,0.0,0,0.0,1.8758,1,0.81,2.1074
126463,1560691398271,2,0.43,1.91,3.68,2.4,5.04,0.88,-1.01,0.52,38,-2,54,1.34,6481,21,90,35,48,951,345.0,309,454,60,119.0,158,1,367,228,55,0,0,330,41,28553,345,,,,,,,,,,,,
126483,1560691398291,3,0.43,1.92,3.68,2.4,5.04,0.79,-1.03,0.6,39,-2,54,1.3,6476,21,90,35,48,951,344.0,293,451,60,120.0,158,1,367,224,55,0,0,313,0,-1246,344,,,,,,,,,,,,
126503,1560691398308,0,0.42,1.91,3.67,2.41,5.04,0.86,-0.96,0.52,39,-2,54,1.29,6410,21,90,35,49,951,342.0,291,463,60,118.0,158,1,370,224,55,0,0,330,250,-30454,343,,,,,,,,,,,,
126523,1560691398328,-0,0.42,1.9,3.67,2.41,5.08,0.85,-0.93,0.63,39,-4,52,1.26,6343,21,90,35,49,949,342.0,318,460,60,118.0,158,1,369,228,55,0,0,360,10686,-30438,342,,,,,,,,,,,,
126543,1560691398348,1,0.4,1.89,3.66,2.41,5.04,0.9,-0.98,0.76,40,-8,48,1.33,6351,21,90,34,49,947,340.0,298,455,60,120.0,157,1,369,230,54,0,0,350,-1529,6668,340,45.698765,4.909809,31.67,197.9,0,0.0,0,0.0,1.8775,1,0.81,2.1091
126563,1560691398368,4,0.37,1.89,3.66,2.4,5.04,0.84,-1.03,0.78,42,-8,42,1.33,6388,21,90,34,49,946,339.0,280,453,60,120.0,157,1,369,230,54,0,0,331,41,-30438,339,,,,,,,,,,,,
126583,1560691398388,-0,0.34,1.89,3.66,2.41,5.04,0.77,-1.05,0.57,42,-8,39,1.3,6381,21,90,34,49,947,341.0,273,460,60,119.0,157,1,369,230,54,0,0,317,-16896,-31206,341,,,,,,,,,,,,
126603,1560691398408,0,2.89,1.88,3.66,2.41,5.04,0.75,-1.13,0.48,42,-7,42,1.36,6298,21,90,34,49,947,343.0,287,455,60,118.0,157,1,368,230,54,0,0,324,-16896,6870,343,,,,,,,,,,,,
126623,1560691398428,2,2.79,1.91,3.66,2.4,5.04,0.8,-1.22,0.54,42,-6,46,1.46,6262,21,90,34,49,948,346.0,286,458,60,119.0,157,1,368,230,54,0,0,363,10686,-10554,346,,,,,,,,,,,,
126643,1560691398448,4,2.69,1.93,3.67,2.4,5.08,0.81,-1.29,0.61,43,-7,48,1.52,6304,21,90,34,49,952,346.0,277,456,60,120.0,156,1,369,230,54,0,0,348,41,6668,346,45.698761,4.9098,31.51,197.9,0,0.0,0,0.0,1.8792,1,0.81,2.1107
126663,1560691398468,3,2.58,1.97,3.64,2.38,5.06,0.78,-1.06,0.51,44,-6,51,1.32,6371,21,90,34,49,957,346.0,283,457,60,120.0,156,1,369,230,54,0,0,321,0,6870,345,,,,,,,,,,,,
126683,1560691398488,-2,2.48,1.99,3.61,2.36,5.07,0.79,-1.01,0.47,42,-3,53,1.28,6366,21,90,34,49,959,345.0,299,457,60,118.0,156,1,369,230,54,0,0,316,21760,-31206,345,,,,,,,,,,,,
126703,1560691398508,0,2.39,2.11,3.51,2.34,5.07,0.84,-0.9,0.54,38,-2,54,1.23,6298,21,90,34,50,960,341.0,295,455,60,118.0,156,1,371,235,54,0,0,329,25600,6668,341,,,,,,,,,,,,
126723,1560691398528,2,2.35,2.24,3.36,2.32,5.08,0.86,-0.78,0.6,35,-4,50,1.16,6223,22,90,34,50,960,337.0,315,453,60,120.0,156,1,371,235,54,0,0,316,32000,-122,335,,,,,,,,,,,,
126743,1560691398548,3,2.29,2.34,3.24,2.32,5.06,0.77,-0.63,0.66,33,-5,46,1.0,6109,22,90,34,51,961,332.0,336,455,60,120.0,164,1,374,240,55,0,0,320,-30976,4838,332,45.698757,4.909792,31.14,197.9,0,0.0,0,0.0,1.8808,1,0.81,2.1124
126763,1560691398568,0,2.27,2.37,3.12,2.29,5.05,0.58,-0.47,0.65,31,-4,43,0.74,6036,22,90,34,51,960,332.0,350,457,60,120.0,164,1,373,240,55,0,0,324,150,170,329,,,,,,,,,,,,
126783,1560691398588,3,2.23,2.37,3.03,2.24,5.05,0.44,-0.31,0.66,30,-4,39,0.54,6005,23,90,34,52,957,329.0,365,456,60,120.0,164,1,377,246,55,0,0,325,-25856,175,329,,,,,,,,,,,,
126803,1560691398608,3,2.21,2.36,3.02,2.23,5.06,0.32,-0.17,0.69,28,-5,35,0.36,6013,23,90,34,53,955,328.0,378,455,60,120.0,164,1,380,252,55,0,0,329,165,165,325,,,,,,,,,,,,
126823,1560691398628,3,2.21,2.34,3.02,2.21,5.08,0.23,-0.04,0.72,27,-5,30,0.23,6056,29,90,34,54,955,327.0,388,455,60,120.0,164,1,384,258,55,0,0,328,-22016,-23296,327,,,,,,,,,,,,
126843,1560691398648,4,2.18,2.33,3.02,2.2,5.05,0.12,0.07,0.62,26,-5,27,0.14,6145,35,90,34,57,957,328.0,401,453,60,120.0,181,1,385,257,59,0,0,328,170,165,326,45.698757,4.909781,31.34,197.8,0,0.0,0,0.0,1.8825,1,0.81,2.114
126863,1560691398668,6,2.17,2.31,3.02,2.2,5.04,-0.03,0.2,0.53,24,-1,25,0.2,6258,39,90,34,60,957,328.0,413,451,60,120.0,181,1,391,259,59,0,0,330,170,170,326,,,,,,,,,,,,
126883,1560691398688,-0,2.17,2.3,3.02,2.21,5.04,0.0,0.24,0.45,21,2,24,0.24,6323,42,91,34,64,956,332.0,427,460,60,118.0,181,1,382,284,59,0,0,334,-32559,13,326,,,,,,,,,,,,
126903,1560691398710,-2,2.17,2.3,3.02,2.22,5.04,0.16,0.09,0.46,17,2,20,0.19,6247,44,91,34,68,954,334.0,434,460,60,118.0,181,1,365,303,59,0,0,336,4838,4838,327,,,,,,,,,,,,
126923,1560691398730,0,2.16,2.32,3.04,2.23,5.04,0.35,-0.08,0.6,13,-3,17,0.36,6192,45,91,34,70,951,336.0,431,455,60,118.0,181,1,362,342,59,0,0,336,13,-6528,327,,,,,,,,,,,,
126943,1560691398750,3,2.17,2.31,3.03,2.23,5.03,0.52,-0.07,0.7,10,-9,15,0.52,6206,46,91,34,73,948,335.0,422,445,60,120.0,256,1,359,390,84,0,0,338,13,-12032,327,45.698753,4.909771,31.93,197.8,0,0.0,0,0.0,1.8842,1,0.81,2.1157
126963,1560691398770,4,2.18,2.29,3.04,2.22,5.08,0.53,0.05,0.78,8,-11,14,0.53,6241,47,91,34,74,945,337.0,418,446,60,120.0,256,1,358,406,84,0,0,338,2560,170,329,,,,,,,,,,,,
126983,1560691398790,1,2.18,2.29,3.04,2.2,5.06,0.44,0.24,0.66,7,-7,12,0.5,6373,48,91,34,76,944,339.0,415,454,60,119.0,256,1,360,439,84,0,0,341,-122,-12032,329,,,,,,,,,,,,
127003,1560691398810,-1,2.19,2.29,3.04,2.21,5.05,0.39,0.26,0.6,6,-4,9,0.47,6524,49,91,34,77,943,339.0,428,456,60,118.0,256,1,365,447,84,0,0,338,-31222,2560,329,,,,,,,,,,,,
127023,1560691398830,4,2.18,2.29,3.05,2.22,5.06,0.51,0.23,0.72,5,-6,7,0.57,6613,51,91,34,78,942,339.0,445,451,60,120.0,256,1,367,455,84,0,0,342,-122,8841,330,,,,,,,,,,,,
127043,1560691398850,0,2.2,2.3,3.06,2.2,5.03,0.46,0.23,0.71,4,-4,6,0.51,6660,52,91,34,80,989,342.0,459,448,60,119.0,345,1,368,462,114,0,0,349,-31206,6870,333,45.698753,4.90976,32.38,197.8,0,0.0,0,0.0,1.8858,1,0.81,2.1174
127063,1560691398870,4,2.19,2.29,3.05,2.2,5.04,0.51,0.15,0.81,2,-3,5,0.54,6710,53,91,34,80,1035,345.0,471,456,60,120.0,345,1,369,476,114,0,0,351,6870,-6644,338,,,,,,,,,,,,
127083,1560691398890,0,2.19,2.35,3.05,2.2,5.04,0.44,0.21,0.76,1,-2,5,0.49,6720,54,91,34,81,1082,351.0,474,455,60,119.0,345,1,369,476,114,0,0,354,28553,-6640,341,,,,,,,,,,,,
127103,1560691398910,3,2.19,2.4,3.06,2.2,5.07,0.49,0.17,0.86,-1,-3,4,0.52,6803,54,91,34,82,1127,353.0,480,453,60,119.0,345,1,372,484,114,0,0,362,-6644,-6405,344,,,,,,,,,,,,
127123,1560691398930,1,2.19,2.43,3.05,2.2,5.04,0.45,0.26,0.8,-0,-1,3,0.52,6863,54,91,34,82,1160,358.0,482,455,60,118.0,345,1,373,485,114,0,0,366,-6640,230,348,,,,,,,,,,,,
127143,1560691398950,4,2.2,2.46,3.04,2.2,5.05,0.49,0.23,0.89,-2,-3,2,0.54,6893,54,91,34,82,1192,362.0,487,447,60,120.0,362,1,375,485,126,0,0,371,2790,0,353,45.69875,4.909749,32.32,197.8,0,0.0,0,0.0,1.8875,1,0.81,2.1191
127163,1560691398970,2,2.2,2.49,3.04,2.2,5.04,0.43,0.23,0.89,-1,-1,-1,0.49,6985,54,91,34,82,1189,365.0,492,456,60,118.0,362,1,378,486,126,0,0,374,-6405,2278,355,,,,,,,,,,,,
127183,1560691398990,1,2.2,2.5,3.06,2.21,5.08,0.38,0.25,0.81,-2,1,-3,0.46,7038,54,91,34,82,1176,368.0,497,452,60,119.0,362,1,381,487,126,0,0,379,0,-19126,360,,,,,,,,,,,,
127203,1560691399004,1,2.2,2.53,3.07,2.21,5.08,0.52,0.24,0.89,-3,-2,-3,0.57,7099,54,91,34,81,1144,370.0,501,455,60,120.0,362,1,384,480,126,0,0,383,486,8200,363,,,,,,,,,,,,
127223,1560691399024,3,2.2,2.53,3.07,2.22,5.06,0.46,0.18,0.94,-4,-2,-3,0.5,7225,54,91,34,81,1108,374.0,506,451,60,119.0,362,1,392,482,126,0,0,380,742,-6475,365,,,,,,,,,,,,
127243,1560691399044,4,2.21,2.52,3.06,2.22,5.04,0.33,0.19,0.95,-2,1,-2,0.38,7292,55,91,34,81,1081,379.0,516,456,60,118.0,359,1,396,482,132,0,0,389,8200,-1562,370,45.698746,4.909738,33.5,197.8,0,0.0,0,0.0,1.8892,1,0.81,2.1207
127263,1560691399064,3,2.22,2.52,3.05,2.21,5.08,0.28,0.19,0.96,-2,1,-2,0.34,7399,55,91,34,80,1058,381.0,517,455,60,118.0,359,1,402,476,132,0,0,392,19125,-6524,375,,,,,,,,,,,,
127283,1560691399084,3,2.24,2.53,3.04,2.21,5.04,0.19,0.22,0.98,-1,2,-4,0.29,7419,55,91,34,80,1028,386.0,528,453,60,118.0,359,1,403,476,132,0,0,397,-3866,-1818,379,,,,,,,,,,,,
127303,1560691399110,4,2.24,2.52,3.04,2.21,5.04,0.12,0.16,0.97,-1,3,-4,0.2,7470,55,91,34,80,997,388.0,530,453,60,119.0,359,1,406,469,132,0,0,403,-31744,28696,385,,,,,,,,,,,,
127323,1560691399130,4,2.27,2.52,3.05,2.21,5.04,0.21,0.21,0.98,-0,3,-4,0.3,7554,55,91,34,79,976,392.0,534,455,60,118.0,359,1,411,469,132,0,0,403,-1818,-8151,387,,,,,,,,,,,,
127343,1560691399150,2,2.29,2.51,3.07,2.21,5.06,0.09,0.11,0.99,0,4,-5,0.14,7634,55,91,34,79,967,395.0,534,458,60,118.0,343,1,417,469,134,0,0,407,-32702,18584,393,45.698742,4.909727,35.4,197.9,0,0.0,0,0.0,1.8908,1,0.82,2.1224
127363,1560691399170,-1,2.3,2.51,3.1,2.23,5.07,0.05,0.04,1.0,1,5,-5,0.07,7716,55,91,34,78,950,398.0,547,452,60,118.0,343,1,421,462,134,0,0,414,6512,-9166,398,,,,,,,,,,,,
127383,1560691399190,0,2.32,2.5,3.12,2.25,5.04,0.04,-0.05,0.97,1,6,-4,0.07,7864,55,90,34,77,928,403.0,550,457,60,118.0,343,1,430,454,134,0,0,417,11545,-26615,403,,,,,,,,,,,,
127403,1560691399208,2,2.33,2.49,3.13,2.26,5.04,0.1,-0.09,0.98,2,6,-4,0.14,7955,55,90,34,75,911,409.0,548,450,60,119.0,343,1,437,435,134,0,0,421,-9211,-4082,409,,,,,,,,,,,,
127423,1560691399228,-1,2.34,2.5,3.12,2.29,5.04,0.08,-0.12,1.07,3,3,-5,0.15,8092,55,91,34,74,898,411.0,563,455,60,118.0,343,1,439,427,134,0,0,428,2524,-3314,414,,,,,,,,,,,,
127443,1560691399248,3,2.35,2.49,3.13,2.31,5.04,0.15,-0.28,1.02,3,1,-5,0.32,8212,55,91,34,71,881,416.0,573,453,60,119.0,311,1,440,410,129,0,0,434,-4059,-7939,419,45.698738,4.909714,37.1,197.9,0,0.0,0,0.0,1.8925,1,0.82,2.124
127463,1560691399268,1,2.37,2.45,3.12,2.33,5.03,0.14,-0.34,1.01,4,1,-3,0.36,8281,56,91,34,70,861,425.0,571,450,60,118.0,311,1,438,391,129,0,0,436,2524,-28332,425,,,,,,,,,,,,
127483,1560691399288,3,2.38,2.43,3.12,2.34,5.05,0.17,-0.34,1.02,5,4,-1,0.38,8314,56,91,34,69,844,431.0,587,458,60,119.0,311,1,438,383,129,0,0,446,-3414,-3267,431,,,,,,,,,,,,
127503,1560691399309,1,2.39,2.42,3.12,2.38,5.07,0.2,-0.27,1.12,6,5,-1,0.34,8363,56,91,34,68,836,437.0,591,456,60,118.0,311,1,437,376,129,0,0,451,-21792,-3267,438,,,,,,,,,,,,
127523,1560691399329,5,2.39,2.43,3.12,2.44,5.04,0.19,-0.21,1.03,6,4,-1,0.28,8438,56,91,34,67,833,441.0,591,448,60,119.0,311,1,437,377,129,0,0,452,-3856,-8985,441,,,,,,,,,,,,
127543,1560691399349,2,2.41,2.42,3.15,2.44,5.05,0.24,-0.3,1.03,6,3,1,0.38,8503,56,91,34,67,833,445.0,601,452,60,119.0,269,1,434,373,119,0,0,456,3635,-23623,445,45.698734,4.909702,39.99,198.0,0,0.0,0,0.0,1.8942,1,0.82,2.1257
127563,1560691399369,1,2.41,2.41,3.17,2.45,5.04,0.27,-0.32,1.03,7,2,1,0.41,8596,56,91,34,66,836,451.0,598,452,60,118.0,269,1,432,362,119,0,0,460,1779,2211,451,,,,,,,,,,,,
127583,1560691399389,3,2.42,2.37,3.21,2.45,5.06,0.24,-0.37,1.0,9,1,3,0.44,8664,56,91,34,65,846,456.0,610,450,60,118.0,269,1,425,362,119,0,0,470,5600,30272,458,,,,,,,,,,,,
127603,1560691399409,3,2.43,2.37,3.23,2.46,5.05,0.29,-0.38,0.91,9,1,7,0.48,8773,56,91,34,64,861,462.0,614,456,60,119.0,269,1,420,364,119,0,0,476,26704,32033,462,,,,,,,,,,,,
127623,1560691399429,4,2.43,2.36,3.21,2.47,5.04,0.32,-0.39,0.92,9,3,7,0.51,8869,56,91,34,64,888,463.0,621,458,60,119.0,269,1,413,360,119,0,0,466,26704,10305,463,,,,,,,,,,,,
127643,1560691399449,4,2.44,2.36,3.22,2.47,5.04,0.41,-0.45,0.83,10,2,9,0.61,8932,56,91,34,63,914,465.0,616,463,60,119.0,261,1,406,355,121,0,0,481,26704,-23367,465,45.69873,4.909689,41.77,198.1,0,0.0,0,0.0,1.8958,1,0.82,2.1274
127663,1560691399469,5,2.44,2.33,3.25,2.41,5.06,0.52,-0.51,0.84,11,3,10,0.73,9010,55,91,34,63,932,473.0,623,460,60,119.0,261,1,400,357,121,0,0,482,-3267,1,473,,,,,,,,,,,,
127683,1560691399489,4,2.45,2.3,3.27,2.42,5.04,0.62,-0.56,0.88,12,4,10,0.84,9071,55,91,34,63,956,478.0,621,459,60,119.0,261,1,402,357,121,0,0,490,2524,505,478,,,,,,,,,,,,
127703,1560691399509,3,2.46,2.29,3.25,2.44,5.04,0.67,-0.69,0.95,12,4,10,0.96,9146,55,91,34,62,994,482.0,628,460,60,119.0,261,1,402,357,121,0,0,501,-9160,-1818,482,,,,,,,,,,,,
127723,1560691399529,1,2.46,2.28,3.25,2.43,5.07,0.53,-0.59,0.9,13,4,13,0.8,9218,55,91,34,62,1031,486.0,620,457,60,118.0,261,1,404,352,121,0,0,490,17628,248,486,,,,,,,,,,,,
127743,1560691399549,0,2.47,2.29,3.3,2.43,5.05,0.39,-0.46,0.75,14,5,15,0.6,9309,55,91,34,62,1051,487.0,625,456,60,118.0,253,1,408,352,123,0,0,498,12552,2524,489,45.698727,4.909676,43.7,198.1,0,0.0,0,0.0,1.8975,1,0.82,2.1291
127763,1560691399569,5,2.46,2.29,3.35,2.43,5.04,0.43,-0.47,0.76,14,3,18,0.63,9370,55,91,34,61,1071,491.0,630,457,60,118.0,253,1,409,352,123,0,0,515,6193,10408,491,,,,,,,,,,,,
127783,1560691399589,5,2.46,2.29,3.35,2.42,5.06,0.59,-0.62,0.79,15,2,18,0.85,9455,55,91,34,61,1088,495.0,631,450,60,119.0,253,1,412,348,123,0,0,495,-16384,-3414,495,,,,,,,,,,,,
127803,1560691399609,2,2.46,2.3,3.33,2.43,5.04,0.62,-0.72,0.87,16,4,19,0.95,9546,55,91,34,61,1105,500.0,631,458,60,118.0,253,1,414,350,123,0,0,502,10432,-4054,500,,,,,,,,,,,,
127823,1560691399629,3,2.46,2.29,3.34,2.45,5.08,0.38,-0.52,0.77,16,3,19,0.65,9580,55,91,34,60,1101,500.0,628,453,60,118.0,253,1,412,347,123,0,0,519,-1923,17136,500,,,,,,,,,,,,
127843,1560691399649,2,2.46,2.28,3.36,2.45,5.04,0.54,-0.67,0.78,16,3,17,0.86,9630,55,91,34,60,1098,505.0,635,451,60,119.0,254,1,411,349,127,0,0,528,-1923,-8187,505,45.698723,4.909661,45.4,198.1,0,0.0,0,0.0,1.8992,1,0.82,2.1307
127863,1560691399669,3,2.46,2.25,3.34,2.43,5.06,0.52,-0.58,0.83,18,2,19,0.77,9699,55,91,34,60,1086,507.0,634,462,60,118.0,254,1,410,353,127,0,0,514,32033,-32248,509,,,,,,,,,,,,
127883,1560691399689,2,2.46,2.25,3.37,2.45,5.08,0.54,-0.66,0.81,18,2,20,0.85,9786,55,91,34,60,1075,515.0,639,452,60,119.0,254,1,410,357,127,0,0,525,-899,1248,515,,,,,,,,,,,,
127903,1560691399709,3,2.47,2.26,3.33,2.5,5.04,0.44,-0.56,0.83,19,3,22,0.71,9811,55,91,34,59,1067,515.0,633,457,60,118.0,254,1,407,352,127,0,0,518,3580,-9072,518,,,,,,,,,,,,
127923,1560691399729,0,2.48,2.28,3.34,2.5,5.04,0.55,-0.61,0.84,19,2,23,0.82,9847,55,91,34,59,1059,519.0,636,457,60,118.0,254,1,407,353,127,0,0,532,-1562,6274,520,,,,,,,,,,,,
127943,1560691399749,5,2.47,2.3,3.37,2.51,5.07,0.46,-0.62,0.84,20,-1,22,0.77,9946,55,91,34,59,1032,521.0,637,456,60,118.0,253,1,407,357,132,0,0,537,505,2104,524,45.698719,4.909645,47.33,198.1,0,0.0,0,0.0,1.9008,1,0.82,2.1324
127963,1560691399769,2,2.48,2.29,3.39,2.53,5.07,0.54,-0.7,0.92,20,-2,22,0.89,9984,55,91,33,59,1006,524.0,636,457,60,118.0,253,1,407,359,132,0,0,536,1,-22519,524,,,,,,,,,,,,
127983,1560691399791,1,2.48,2.29,3.38,2.52,5.04,0.51,-0.8,0.9,20,-2,23,0.94,10037,55,91,33,58,985,524.0,641,456,60,118.0,253,1,406,351,132,0,0,531,998,-28648,524,,,,,,,,,,,,
128003,1560691399811,3,2.48,2.27,3.45,2.51,5.06,0.47,-0.88,0.94,21,-1,23,1.0,10096,53,91,33,58,966,529.0,647,460,60,118.0,253,1,409,352,132,0,0,549,-22519,1779,529,,,,,,,,,,,,
128023,1560691399831,4,2.48,2.24,3.49,2.52,5.04,0.52,-0.85,1.04,21,-0,22,1.0,10129,51,91,33,57,948,532.0,640,453,60,118.0,253,1,406,344,132,0,0,569,10408,-3082,532,,,,,,,,,,,,
128043,1560691399851,4,2.47,2.23,3.47,2.51,5.04,0.61,-0.85,0.96,21,-5,24,1.05,10179,50,91,33,56,929,536.0,640,458,60,118.0,249,1,407,337,133,0,0,539,-32248,-2336,536,45.698719,4.909628,49.11,198.2,0,0.0,0,0.0,1.9025,1,0.82,2.134
128063,1560691399871,3,2.47,2.2,3.49,2.48,5.03,0.66,-0.82,0.96,23,-4,26,1.05,10273,49,91,33,55,925,543.0,654,453,60,118.0,249,1,404,339,133,0,0,529,-32248,14504,543,,,,,,,,,,,,
128083,1560691399891,3,2.47,2.19,3.5,2.52,5.04,0.62,-0.76,0.88,24,-1,25,0.98,10234,49,91,33,55,925,546.0,648,456,60,118.0,249,1,404,329,133,0,0,551,-28648,-22519,546,,,,,,,,,,,,
128103,1560691399911,1,2.49,2.23,3.48,2.6,5.08,0.66,-0.88,0.85,24,-3,26,1.1,10290,49,91,33,55,922,547.0,644,457,60,118.0,249,1,404,330,133,0,0,564,-21872,-22519,546,,,,,,,,,,,,
128123,1560691399931,5,2.51,2.24,3.5,2.61,5.08,0.55,-0.95,0.85,23,-5,26,1.09,10313,49,91,33,55,917,543.0,637,454,60,118.0,249,1,404,331,133,0,0,549,-21872,2524,543,,,,,,,,,,,,
128143,1560691399951,5,2.49,2.16,3.55,2.6,5.07,0.65,-1.05,0.88,23,-4,27,1.24,10405,48,90,33,55,913,547.0,640,456,60,118.0,237,1,406,333,129,0,0,554,-32248,-22263,547,45.698719,4.90961,50.79,198.2,0,0.0,0,0.0,1.9042,1,0.82,2.1357
128163,1560691399971,2,2.5,2.11,3.51,2.55,5.07,0.51,-1.04,0.87,24,-2,29,1.16,10416,45,90,33,54,908,549.0,642,452,60,118.0,237,1,400,325,129,0,0,551,26178,-23623,549,,,,,,,,,,,,
128183,1560691399991,4,2.48,2.09,3.48,2.51,5.06,0.64,-1.04,0.91,25,-3,30,1.22,10387,39,90,33,52,897,556.0,641,459,60,118.0,237,1,394,302,129,0,0,540,-8187,-28648,555,,,,,,,,,,,,
128203,1560691400005,4,2.48,2.08,3.54,2.53,5.07,0.68,-1.01,0.95,26,-3,31,1.21,10307,33,90,33,48,883,558.0,644,453,60,118.0,237,1,382,258,129,0,0,568,-3482,6273,556,,,,,,,,,,,,
128223,1560691400025,2,2.47,2.06,3.63,2.51,5.07,0.8,-0.95,0.91,26,0,31,1.24,10146,32,90,33,45,872,555.0,651,455,60,118.0,237,1,365,244,129,0,0,603,-8187,-23623,555,,,,,,,,,,,,
128243,1560691400045,1,2.46,2.04,3.66,2.49,5.07,0.78,-0.97,0.87,25,-1,30,1.24,10206,31,90,33,43,863,556.0,642,453,60,118.0,165,1,350,233,92,0,0,575,-14,-22263,556,45.698715,4.909591,51.88,198.2,0,0.0,0,0.0,1.9058,1,0.83,2.1374
128263,1560691400065,4,2.46,2.11,3.64,2.5,5.04,0.65,-1.05,0.86,25,-1,30,1.24,10146,31,90,33,42,851,555.0,644,457,60,118.0,165,1,342,229,92,0,0,546,1341,-22263,555,,,,,,,,,,,,
128283,1560691400085,3,2.47,2.22,3.59,2.49,5.04,0.69,-1.04,0.75,24,-1,30,1.25,10048,31,90,33,41,834,548.0,647,458,60,118.0,165,1,335,225,92,0,0,518,-8187,-9072,548,,,,,,,,,,,,
128303,1560691400109,1,2.47,2.2,3.57,2.49,5.04,0.73,-0.99,0.68,25,-2,29,1.23,9852,25,90,33,40,822,546.0,641,455,60,118.0,165,1,327,220,92,0,0,520,-14,2104,546,,,,,,,,,,,,
128323,1560691400129,3,2.46,2.18,3.6,2.48,5.05,0.61,-0.99,0.63,25,-4,30,1.17,9556,19,90,33,38,813,547.0,634,457,60,118.0,165,1,317,213,92,0,0,521,1248,-506,547,,,,,,,,,,,,
128343,1560691400149,4,2.46,2.12,3.65,2.48,5.04,0.76,-1.08,0.75,26,-4,29,1.32,9342,14,90,33,34,802,550.0,632,451,60,119.0,139,1,305,203,76,0,0,514,-14,-506,549,45.698715,4.909572,52.11,198.2,0,0.0,0,0.0,1.9075,1,0.83,2.1391
128363,1560691400169,4,2.45,2.11,3.66,2.47,5.04,0.73,-1.04,0.65,25,-7,29,1.27,9124,10,90,33,31,786,551.0,626,453,60,119.0,139,1,295,189,76,0,0,513,-14,2524,549,,,,,,,,,,,,
128383,1560691400191,3,2.44,1.9,3.67,2.45,5.04,0.75,-1.05,0.67,26,-5,31,1.29,8903,9,90,33,28,773,549.0,632,451,60,119.0,139,1,282,188,76,0,0,516,-3482,-506,549,,,,,,,,,,,,
128403,1560691400211,3,2.43,1.85,3.68,2.43,5.07,0.8,-1.06,0.68,25,-6,33,1.32,8786,8,90,33,27,767,553.0,627,455,60,119.0,139,1,278,188,76,0,0,498,17136,6274,553,,,,,,,,,,,,
128423,1560691400231,1,2.44,1.88,3.68,2.42,5.07,0.88,-1.13,0.61,24,-5,33,1.43,8769,7,90,33,25,772,546.0,625,456,60,118.0,139,1,270,188,76,0,0,449,-3482,1341,547,,,,,,,,,,,,
128443,1560691400251,-0,2.45,1.9,3.65,2.42,5.04,0.94,-1.21,0.51,25,-6,33,1.53,8786,7,90,33,24,794,543.0,622,456,60,118.0,113,1,270,181,62,0,0,456,-28648,998,544,45.698715,4.909553,52.51,198.3,0,0.0,0,0.0,1.9092,1,0.83,2.1407
128463,1560691400271,2,2.44,1.86,3.62,2.39,5.04,0.87,-1.23,0.51,27,-6,34,1.5,8811,7,90,33,23,817,541.0,621,463,60,119.0,113,1,270,181,62,0,0,479,-32248,3,542,,,,,,,,,,,,
128483,1560691400291,5,2.42,1.79,3.65,2.36,5.07,0.83,-1.22,0.33,28,-3,29,1.47,8806,7,90,33,23,845,543.0,620,460,60,119.0,113,1,270,176,62,0,0,455,3,-21872,543,,,,,,,,,,,,
128503,1560691400310,6,2.4,1.75,3.66,2.35,5.07,0.8,-1.14,0.21,28,-4,33,1.4,8815,7,90,33,22,882,534.0,618,458,60,119.0,113,1,270,170,62,0,0,431,998,-32248,534,,,,,,,,,,,,
128523,1560691400330,4,2.4,1.76,3.67,2.3,5.05,0.79,-1.08,0.23,27,-4,36,1.34,8806,7,90,33,22,949,529.0,616,457,60,119.0,113,1,270,170,62,0,0,400,-6528,11560,529,,,,,,,,,,,,
128543,1560691400350,2,2.39,1.8,3.69,2.27,5.06,0.78,-1.1,0.32,26,-3,37,1.35,8680,7,90,33,21,1010,524.0,615,457,60,118.0,102,1,270,164,54,0,0,380,-32768,1341,524,45.698719,4.909534,51.89,198.4,0,0.0,0,0.0,1.9108,1,0.83,2.1424
128563,1560691400370,7,2.37,1.85,3.69,2.27,5.05,0.86,-1.16,0.38,26,-2,35,1.44,8465,7,90,33,21,1048,519.0,614,456,60,118.0,102,1,270,162,54,0,0,360,-32768,15679,519,,,,,,,,,,,,
128583,1560691400390,5,2.37,1.88,3.7,2.26,5.05,0.86,-1.06,0.33,25,-2,33,1.37,8234,7,90,33,22,1085,518.0,608,457,60,119.0,102,1,270,160,54,0,0,349,-1818,15679,518,,,,,,,,,,,,
128603,1560691400406,4,2.37,1.93,3.68,2.28,5.06,0.82,-1.04,0.29,25,-2,31,1.33,8064,7,90,33,22,1121,515.0,601,457,60,118.0,102,1,269,153,54,0,0,358,-1818,-4054,515,,,,,,,,,,,,
128623,1560691400426,5,2.37,1.96,3.65,2.27,5.04,0.74,-1.05,0.17,25,-1,30,1.29,7815,7,90,33,23,1156,511.0,592,457,60,118.0,102,1,268,154,54,0,0,388,505,10994,511,,,,,,,,,,,,
128643,1560691400446,3,2.36,1.95,3.62,2.23,5.07,0.85,-1.06,0.27,24,-3,29,1.36,7681,7,90,33,23,1154,504.0,576,458,60,118.0,88,1,266,154,45,0,0,423,-6441,3,504,45.698719,4.909516,50.21,198.4,0,0.0,0,0.0,1.9125,1,0.83,2.1441
128663,1560691400466,3,2.35,1.94,3.65,2.18,5.07,0.96,-1.02,0.34,22,-3,27,1.4,7662,6,90,33,22,1152,495.0,571,460,60,119.0,88,1,266,154,45,0,0,400,3580,-3210,495,,,,,,,,,,,,
128683,1560691400486,1,2.35,1.94,3.68,2.13,5.05,1.07,-0.95,0.35,20,-3,24,1.43,7671,6,90,33,22,1140,495.0,571,455,60,119.0,88,1,266,151,45,0,0,358,3580,8488,495,,,,,,,,,,,,
128703,1560691400508,5,2.34,1.98,3.68,2.11,5.03,1.08,-0.78,0.24,18,-4,24,1.33,7665,6,90,33,22,1129,491.0,573,458,60,119.0,88,1,266,151,45,0,0,329,-899,-9203,490,,,,,,,,,,,,
128723,1560691400528,4,2.33,2.05,3.68,2.08,5.04,1.09,-0.7,0.2,16,-5,22,1.29,7542,6,90,33,23,1119,487.0,477,456,60,119.0,88,1,265,154,45,0,0,312,8488,3576,487,,,,,,,,,,,,
128743,1560691400548,2,2.33,2.06,3.64,2.07,5.06,1.11,-0.65,0.21,15,-5,20,1.28,7390,6,90,33,23,1110,488.0,502,458,60,119.0,90,1,263,154,44,0,0,313,8488,8488,488,45.698723,4.909498,48.97,198.4,0,0.0,0,0.0,1.9142,1,0.83,2.1457
128763,1560691400568,2,2.32,2.08,3.59,2.05,5.06,1.19,-0.53,0.28,13,-6,19,1.3,7214,6,90,33,23,1093,483.0,492,456,60,119.0,90,1,262,154,44,0,0,349,2212,-17956,483,,,,,,,,,,,,
128783,1560691400588,5,2.32,2.05,3.57,2.01,5.07,1.27,-0.56,0.45,12,-7,14,1.39,7203,6,90,33,22,1077,477.0,502,457,60,119.0,90,1,262,151,44,0,0,368,-1923,2524,478,,,,,,,,,,,,
