"Interval"|"ms"|0|0|1,"Utc"|"ms"|0|0|1,"FB_p"|"bar"|0|300|50,"Volant"|"F"|0.0|300.0|50,"xFR"|"mm"|0.0|5.0|50,"xRR"|"mm"|0.0|5.0|50,"xFL"|"mm"|0.0|5.0|50,"xRL"|"mm"|0.0|5.0|50,"AccelX"|"G"|-3.0|3.0|50,"AccelY"|"G"|-3.0|3.0|50,"AccelZ"|"G"|-3.0|3.0|50,"Yaw"|"Deg/Sec"|-120|120|50,"Pitch"|"Deg/Sec"|-120|120|50,"Roll"|"Deg/Sec"|-120|120|50,"Gsum"|"G"|0.0|3.0|50,"RPM"|""|0|14000|50,"TPS"|"%"|0|100|50,"WaterTemp"|"?C"|0|300|50,"AirTemp"|"?C"|-1000|1000|50,"MAP"|"KPa"|0|255|50,"Lambda"|""|0|1024|50,"WheelSpeed"|"MPH"|0.0|150.0|50,"OilPress"|"PSI"|0|150|50,"FuelPress"|"PSI"|0|150|50,"OilTemp"|"F"|0|300|50,"Battery"|"Volts"|0.0|20.0|50,"FuelCon"|"L/h"|-1000|1000|50,"Gear"|""|0|10|50,"Advance"|"Deg"|-360|360|50,"Injection"|"ms"|-1000|1000|50,"FuelCon"|"L/100km"|-1000|1000|50,"LC_But_Pres"|""|-1000|1000|50,"LC_Active"|""|-1000|1000|50,"RD_Speed"|""|-1000|1000|50,"RUD_Speed"|""|-1000|1000|50,"LD_Speed"|""|-1000|1000|50,"LUD_Speed"|""|-1000|1000|50,"Latitude"|"Degrees"|-180.0|180.0|10,"Longitude"|"Degrees"|-180.0|180.0|10,"Speed"|"kph"|0.0|150.0|10,"Altitude"|"m"|0.0|4000.0|10,"LapCount"|""|0|0|10,"LapTime"|"Min"|0.0|0.0|10,"Sector"|""|0|0|10,"SectorTime"|"Min"|0.0|0.0|10,"ElapsedTime"|"Min"|0.0|0.0|10,"CurrentLap"|""|0|0|10,"Distance"|"km"|0.0|0.0|10,"SessionTime"|"Min"|0.0|0.0|10
368070,1560684532832,2,2.23,2.01,3.24,1.85,3.01,0.74,0.03,0.45,0,-1,-0,0.74,7335,21,73,31,37,500,0.0,635,456,60,120.0,0,1,304,196,52,0,0,0,250,250,0,,,,,,,,,,,,
368090,1560684532852,-0,2.24,2.01,3.24,1.86,3.0,0.76,0.05,0.49,1,-1,0,0.76,7321,21,73,31,37,500,0.0,623,458,60,121.0,0,1,304,196,52,0,0,0,250,250,0,,,,,,,,,,,,
368110,1560684532872,-1,2.24,2.0,3.23,1.85,3.0,0.84,0.03,0.56,0,-2,0,0.84,7361,21,73,31,36,500,0.0,630,457,60,121.0,0,1,301,190,52,0,0,0,250,250,0,,,,,,,,,,,,
368130,1560684532894,1,2.23,2.01,3.24,1.86,3.0,0.91,0.07,0.64,-0,-4,-0,0.91,7347,21,74,31,36,500,0.0,625,453,60,122.0,0,1,301,190,52,0,0,0,250,250,0,45.700375,4.90939,0.0,194.3,0,0.0,0,0.0,0.8517,1,0.0,6.1355
368150,1560684532914,-0,2.24,2.0,3.24,1.85,3.0,0.88,0.02,0.67,-0,-3,-2,0.88,7367,21,74,31,36,500,0.0,630,453,60,122.0,0,1,301,190,53,0,0,0,250,250,0,,,,,,,,,,,,
368170,1560684532934,1,2.24,2.01,3.24,1.86,3.0,0.93,-0.07,0.69,-1,-5,-0,0.94,7358,21,74,31,36,500,0.0,640,456,60,120.0,0,1,301,190,53,0,0,0,250,250,0,,,,,,,,,,,,
368190,1560684532954,4,2.24,2.0,3.24,1.85,3.0,0.93,-0.07,0.65,-1,-4,1,0.94,7364,21,74,31,36,500,0.0,625,457,60,121.0,0,1,301,190,53,0,0,0,250,250,0,,,,,,,,,,,,
368210,1560684532974,4,2.24,2.0,3.24,1.85,3.0,0.86,-0.11,0.59,-1,-3,0,0.86,7358,21,74,31,36,500,0.0,635,458,60,121.0,0,1,301,190,53,0,0,0,250,250,0,,,,,,,,,,,,
368230,1560684532994,5,2.24,2.0,3.24,1.85,3.01,0.79,-0.06,0.54,-0,-2,-0,0.8,7378,20,74,31,36,500,0.0,633,460,60,120.0,0,1,301,190,53,0,0,0,250,250,0,45.700375,4.90939,0.0,194.3,0,0.0,0,0.0,0.8517,1,0.0,6.1372
368250,1560684533006,4,2.23,2.0,3.24,1.85,3.0,0.73,-0.02,0.48,0,-2,-0,0.73,7358,21,74,31,36,500,0.0,633,455,60,121.0,0,1,301,190,53,0,0,0,250,250,0,,,,,,,,,,,,
368270,1560684533026,3,2.24,2.01,3.24,1.86,3.0,0.69,0.02,0.44,0,-1,-0,0.69,7381,21,74,31,36,500,0.0,637,461,60,120.0,0,1,301,190,53,0,0,0,250,250,0,,,,,,,,,,,,
368290,1560684533046,1,2.24,2.0,3.24,1.86,2.99,0.67,0.04,0.41,0,-1,0,0.67,7355,21,74,31,36,500,0.0,633,457,60,120.0,0,1,301,190,53,0,0,0,250,250,0,,,,,,,,,,,,
368310,1560684533066,2,2.24,2.01,3.24,1.85,3.0,0.71,0.1,0.43,-0,-2,0,0.71,7350,21,74,31,36,500,0.0,618,456,60,122.0,0,1,301,190,53,0,0,0,250,250,0,,,,,,,,,,,,
368330,1560684533086,1,2.24,2.01,3.24,1.86,2.99,0.73,0.1,0.48,-0,-2,-0,0.74,7390,21,74,31,36,500,0.0,632,455,60,121.0,0,1,301,190,53,0,0,0,250,250,0,45.700375,4.90939,0.0,194.3,0,0.0,0,0.0,0.8533,1,0.0,6.1388
368350,1560684533106,1,2.24,2.01,3.24,1.84,3.01,0.85,0.04,0.56,-1,-4,-0,0.85,7350,21,74,31,36,500,0.0,632,456,60,122.0,0,1,301,190,53,0,0,0,250,250,0,,,,,,,,,,,,
368370,1560684533126,-1,2.25,2.01,3.24,1.86,3.0,0.94,-0.0,0.57,-1,-5,0,0.94,7376,21,74,31,36,500,0.0,632,458,60,122.0,0,1,301,190,53,0,0,0,250,250,0,,,,,,,,,,,,
368390,1560684533146,1,2.24,2.01,3.24,1.85,3.0,0.95,-0.07,0.59,-1,-5,-0,0.95,7341,21,74,31,36,500,0.0,633,456,60,122.0,0,1,301,190,53,0,0,0,250,250,0,,,,,,,,,,,,
368410,1560684533166,6,2.24,2.01,3.24,1.84,3.01,0.95,-0.12,0.64,-1,-4,-1,0.95,7361,21,74,31,36,500,0.0,627,458,60,120.0,0,1,301,190,53,0,0,0,250,250,0,,,,,,,,,,,,
368430,1560684533192,5,2.25,2.01,3.25,1.84,3.0,0.9,-0.16,0.57,-0,-3,-0,0.92,7335,21,74,31,36,500,0.0,635,454,60,120.0,0,1,301,190,53,0,0,0,250,250,0,45.700375,4.90939,0.0,194.3,0,0.0,0,0.0,0.8567,1,0.0,6.1405
368450,1560684533212,3,2.24,2.01,3.24,1.85,3.0,0.81,-0.09,0.47,1,-1,1,0.82,7364,21,74,31,36,500,0.0,632,458,60,120.0,0,1,301,190,52,0,0,0,250,250,0,,,,,,,,,,,,
368470,1560684533232,-1,2.24,2.01,3.24,1.84,3.01,0.76,-0.05,0.44,1,0,1,0.76,7341,21,74,31,36,500,0.0,632,457,60,120.0,0,1,301,196,52,0,0,0,250,250,0,,,,,,,,,,,,
368490,1560684533252,1,2.25,2.01,3.24,1.85,2.99,0.74,0.05,0.46,2,0,1,0.74,7341,21,74,31,36,500,0.0,630,458,60,120.0,0,1,301,190,52,0,0,0,250,250,0,,,,,,,,,,,,
368510,1560684533272,1,2.25,2.0,3.23,1.85,3.01,0.72,0.13,0.45,2,0,-0,0.73,7367,21,74,31,36,500,0.0,629,456,60,121.0,0,1,301,190,52,0,0,0,250,250,0,,,,,,,,,,,,
368530,1560684533292,2,2.24,2.01,3.23,1.85,3.0,0.78,0.09,0.48,2,-1,-0,0.79,7352,21,74,31,36,500,0.0,628,455,60,122.0,0,1,301,190,52,0,0,0,250,250,0,45.700375,4.90939,0.0,194.3,0,0.0,0,0.0,0.8583,1,0.0,6.1422
368550,1560684533312,1,2.23,2.01,3.24,1.85,3.01,0.86,0.03,0.53,1,-1,1,0.86,7381,21,74,31,36,500,0.0,626,459,60,122.0,0,1,301,190,53,0,0,0,250,250,0,,,,,,,,,,,,
368570,1560684533332,-1,2.24,2.0,3.24,1.85,2.99,0.88,-0.0,0.57,0,-2,2,0.88,7364,21,74,31,36,500,0.0,618,455,60,122.0,0,1,301,190,53,0,0,0,250,250,0,,,,,,,,,,,,
368590,1560684533352,0,2.24,2.0,3.24,1.85,3.0,0.87,0.01,0.64,0,-3,-1,0.87,7370,21,74,31,36,500,0.0,627,456,60,122.0,0,1,301,190,53,0,0,0,250,250,0,,,,,,,,,,,,
368610,1560684533372,11,2.24,2.0,3.24,1.86,3.0,0.9,-0.07,0.66,-0,-4,-1,0.91,7341,21,74,31,36,500,0.0,636,455,60,120.0,0,1,301,190,53,0,0,0,250,250,0,,,,,,,,,,,,
368630,1560684533391,5,2.24,2.01,3.24,1.85,3.01,0.88,-0.06,0.58,-0,-3,-1,0.88,7378,21,74,31,36,500,0.0,625,458,60,121.0,0,1,301,190,53,0,0,0,250,250,0,45.700375,4.90939,0.0,194.3,0,0.0,0,0.0,0.86,1,0.0,6.1438
368650,1560684533411,4,2.24,2.0,3.24,1.86,3.0,0.89,-0.13,0.6,0,-2,1,0.9,7355,21,74,31,36,500,0.0,637,457,60,121.0,0,1,301,190,53,0,0,0,250,250,0,,,,,,,,,,,,
368670,1560684533431,4,2.23,2.01,3.24,1.85,2.99,0.87,-0.16,0.66,0,-2,0,0.89,7376,21,74,31,36,500,0.0,623,457,60,120.0,0,1,301,190,53,0,0,0,250,250,0,,,,,,,,,,,,
368690,1560684533451,3,2.25,2.0,3.24,1.85,3.0,0.86,-0.22,0.63,1,-2,-0,0.89,7352,21,74,31,36,500,0.0,633,456,60,120.0,0,1,301,190,53,0,0,0,250,250,0,,,,,,,,,,,,
368710,1560684533471,1,2.24,2.01,3.23,1.85,3.0,0.8,-0.17,0.51,1,-1,-0,0.82,7350,21,74,31,36,500,0.0,632,458,60,120.0,0,1,301,190,53,0,0,0,250,250,0,,,,,,,,,,,,
368730,1560684533491,3,2.23,2.01,3.24,1.85,2.99,0.74,-0.12,0.46,1,-1,1,0.75,7378,21,74,31,36,500,0.0,631,458,60,120.0,0,1,301,190,53,0,0,0,250,250,0,45.700375,4.90939,0.0,194.3,0,0.0,0,0.0,0.8617,1,0.0,6.1455
368750,1560684533511,2,2.24,2.01,3.24,1.85,3.0,0.72,-0.02,0.49,1,-0,1,0.72,7347,21,74,31,36,500,0.0,628,454,60,121.0,0,1,301,190,53,0,0,0,250,250,0,,,,,,,,,,,,
368770,1560684533531,0,2.23,2.01,3.24,1.85,3.01,0.68,0.09,0.47,1,-1,-1,0.69,7367,21,74,31,36,500,0.0,628,458,60,122.0,0,1,301,190,53,0,0,0,250,250,0,,,,,,,,,,,,
368790,1560684533551,1,2.24,2.01,3.24,1.86,3.0,0.75,0.07,0.5,0,-2,-1,0.75,7321,21,74,31,36,500,0.0,624,454,60,122.0,0,1,301,190,53,0,0,0,250,250,0,,,,,,,,,,,,
368810,1560684533571,0,2.23,2.01,3.24,1.85,3.01,0.81,0.01,0.53,-0,-2,-0,0.81,7352,21,74,31,36,500,0.0,626,458,60,122.0,0,1,301,190,53,0,0,0,250,250,0,,,,,,,,,,,,
368830,1560684533591,5,2.24,2.01,3.24,1.86,3.01,0.83,-0.01,0.57,-0,-2,1,0.83,7318,21,74,31,36,500,0.0,624,455,60,122.0,0,1,301,190,53,0,0,0,250,250,0,45.700375,4.90939,0.0,194.3,0,0.0,0,0.0,0.8633,1,0.0,6.1472
368850,1560684533611,3,2.24,2.01,3.24,1.85,3.0,0.83,-0.08,0.68,0,-2,-0,0.83,7350,21,74,31,36,500,0.0,637,458,60,121.0,0,1,301,190,52,0,0,0,250,250,0,,,,,,,,,,,,
368870,1560684533631,3,2.25,2.01,3.24,1.86,3.01,0.86,-0.16,0.71,0,-1,-1,0.88,7332,21,74,31,37,500,0.0,633,456,60,120.0,0,1,304,196,52,0,0,0,250,250,0,,,,,,,,,,,,
368890,1560684533651,2,2.25,2.01,3.23,1.85,3.0,0.83,-0.13,0.6,1,1,-1,0.84,7301,21,74,31,37,500,0.0,630,457,60,121.0,0,1,304,190,52,0,0,0,250,250,0,,,,,,,,,,,,
368910,1560684533671,2,2.24,2.01,3.24,1.86,3.0,0.76,-0.1,0.52,1,0,0,0.77,7327,21,74,31,37,500,0.0,633,457,60,120.0,0,1,304,190,52,0,0,0,250,250,0,,,,,,,,,,,,
368930,1560684533693,1,2.23,2.01,3.24,1.85,3.0,0.75,-0.01,0.54,1,0,1,0.75,7307,21,74,31,37,500,0.0,630,454,60,121.0,0,1,304,196,52,0,0,0,250,250,0,45.700375,4.90939,0.0,194.3,0,0.0,0,0.0,0.865,1,0.0,6.1488
368950,1560684533713,1,2.25,2.0,3.24,1.85,3.0,0.72,0.09,0.53,0,-0,-1,0.72,7324,21,74,31,37,500,0.0,633,457,60,122.0,0,1,304,196,54,0,0,0,250,250,0,,,,,,,,,,,,
368970,1560684533733,1,2.24,2.01,3.24,1.85,3.01,0.8,0.07,0.56,-0,-3,-2,0.81,7315,21,74,31,37,500,0.0,627,454,60,122.0,0,1,304,196,54,0,0,0,250,250,0,,,,,,,,,,,,
368990,1560684533753,5,2.24,2.01,3.23,1.86,3.01,0.9,-0.01,0.6,-1,-2,-0,0.9,7332,21,74,31,37,500,0.0,633,458,60,122.0,0,1,304,196,54,0,0,0,250,250,0,,,,,,,,,,,,
369010,1560684533773,6,2.24,2.01,3.23,1.86,3.0,0.9,-0.08,0.63,-0,-1,1,0.9,7312,21,74,31,37,500,0.0,626,455,60,122.0,0,1,304,196,54,0,0,0,250,250,0,,,,,,,,,,,,
369030,1560684533793,3,2.25,2.01,3.23,1.86,3.0,0.87,-0.12,0.7,0,-0,-0,0.88,7329,21,74,31,37,539,0.0,631,460,60,121.0,0,1,304,196,54,0,0,0,250,250,0,45.700375,4.90939,0.0,194.3,0,0.0,0,0.0,0.8667,1,0.0,6.1505
369050,1560684533813,4,2.23,2.01,3.24,1.84,3.0,0.83,-0.18,0.62,1,-0,-1,0.85,7304,21,74,31,37,615,0.0,629,455,60,120.0,0,1,304,196,54,0,0,0,250,250,0,,,,,,,,,,,,
369070,1560684533833,3,2.24,2.01,3.24,1.86,3.0,0.7,-0.09,0.47,1,1,-0,0.7,7309,21,74,31,37,693,0.0,626,458,60,121.0,0,1,304,196,54,0,0,0,250,250,0,,,,,,,,,,,,
369090,1560684533853,2,2.24,2.01,3.24,1.84,3.0,0.65,-0.04,0.47,1,-0,1,0.66,7318,21,75,31,37,770,0.0,619,457,60,122.0,0,1,304,196,54,0,0,0,250,250,0,,,,,,,,,,,,
369110,1560684533873,-0,2.24,2.01,3.24,1.86,3.0,0.7,0.08,0.53,0,-1,1,0.7,7315,21,75,31,37,845,0.0,627,455,60,122.0,0,1,304,196,54,0,0,0,250,250,0,,,,,,,,,,,,
369130,1560684533893,1,2.24,2.0,3.23,1.86,3.0,0.74,0.09,0.6,-0,-2,-1,0.74,7335,21,75,31,37,919,0.0,622,453,60,122.0,0,1,304,196,54,0,0,0,250,250,0,45.700375,4.90939,0.0,194.3,0,0.0,0,0.0,0.8683,1,0.0,6.1522
369150,1560684533913,2,2.24,2.0,3.24,1.85,3.0,0.86,0.04,0.67,-1,-3,-1,0.87,7318,21,75,31,37,973,0.0,633,456,60,122.0,0,1,304,196,54,0,0,0,250,250,0,,,,,,,,,,,,
369170,1560684533933,5,2.24,2.01,3.24,1.86,3.0,0.94,-0.03,0.65,-1,-2,0,0.94,7329,21,75,31,37,970,0.0,623,457,60,122.0,0,1,304,196,54,0,0,0,250,250,0,,,,,,,,,,,,
369190,1560684533953,3,2.24,2.01,3.23,1.85,3.01,0.87,-0.09,0.65,0,0,1,0.88,7284,21,75,31,37,967,0.0,633,461,60,121.0,0,1,304,196,54,0,0,0,250,250,0,,,,,,,,,,,,
369210,1560684533973,1,2.23,2.01,3.24,1.85,3.0,0.81,-0.09,0.65,1,1,0,0.81,7301,21,75,31,37,964,0.0,625,458,60,120.0,0,1,304,196,54,0,0,0,250,250,0,,,,,,,,,,,,
369230,1560684533993,1,2.24,2.01,3.24,1.85,2.99,0.72,-0.08,0.55,1,2,-1,0.73,7304,21,75,31,37,962,0.0,631,453,60,121.0,0,1,304,196,54,0,0,0,250,250,0,45.700375,4.90939,0.0,194.3,0,0.0,0,0.0,0.8683,1,0.0,6.1538
369250,1560684534007,-1,2.24,2.0,3.23,1.85,3.0,0.68,-0.03,0.48,1,1,-1,0.68,7287,21,75,31,37,962,0.0,626,456,60,121.0,0,1,304,196,54,0,0,0,250,250,0,,,,,,,,,,,,
369270,1560684534027,-1,2.24,2.0,3.24,1.85,3.0,0.74,-0.02,0.51,0,0,0,0.74,7318,21,75,31,37,962,0.0,630,454,60,122.0,0,1,304,196,54,0,0,0,250,250,0,,,,,,,,,,,,
369290,1560684534047,2,2.24,2.01,3.24,1.86,3.0,0.83,0.04,0.64,-0,-1,1,0.83,7304,21,75,31,37,961,0.0,621,454,60,122.0,0,1,304,196,54,0,0,0,250,250,0,,,,,,,,,,,,
369310,1560684534067,-1,2.24,2.01,3.23,1.86,3.0,0.86,-0.01,0.76,-1,-1,-2,0.86,7315,21,75,31,37,961,0.0,626,458,60,121.0,0,1,304,196,54,0,0,0,250,250,0,,,,,,,,,,,,
369330,1560684534093,6,2.24,2.01,3.23,1.85,3.0,0.92,-0.11,0.73,-0,-1,-1,0.93,7307,21,75,31,37,962,0.0,625,457,60,121.0,0,1,304,196,54,0,0,0,250,250,0,45.700375,4.90939,0.0,194.3,0,0.0,0,0.0,0.8717,1,0.0,6.1555
369350,1560684534113,4,2.24,2.0,3.23,1.85,3.0,0.87,-0.1,0.62,0,1,0,0.87,7324,21,75,31,37,962,0.0,636,458,60,120.0,0,1,304,196,54,0,0,0,250,250,0,,,,,,,,,,,,
369370,1560684534133,3,2.24,2.01,3.24,1.85,2.99,0.74,-0.11,0.55,1,3,1,0.75,7307,21,75,31,37,960,0.0,626,458,60,120.0,0,1,304,196,54,0,0,0,250,250,0,,,,,,,,,,,,
369390,1560684534153,3,2.24,2.01,3.24,1.85,3.0,0.69,-0.02,0.54,2,3,-0,0.69,7318,21,75,31,37,959,0.0,632,458,60,120.0,0,1,304,196,54,0,0,0,250,250,0,,,,,,,,,,,,
369410,1560684534173,1,2.24,2.0,3.24,1.85,3.0,0.68,0.06,0.48,1,2,-1,0.69,7352,21,75,31,37,957,0.0,625,453,60,121.0,0,1,304,196,54,0,0,0,250,250,0,,,,,,,,,,,,
369430,1560684534193,1,2.24,2.01,3.24,1.85,3.01,0.75,0.04,0.52,1,0,-1,0.75,7329,21,75,31,37,955,0.0,635,458,60,121.0,0,1,304,196,54,0,0,0,250,250,0,45.700375,4.90939,0.0,194.3,0,0.0,0,0.0,0.8733,1,0.0,6.1572
369450,1560684534213,-1,2.24,2.01,3.24,1.86,3.0,0.86,0.01,0.58,-0,-1,0,0.86,7361,21,75,31,37,953,0.0,626,456,60,122.0,0,1,304,196,54,0,0,0,250,250,0,,,,,,,,,,,,
369470,1560684534233,1,2.24,2.01,3.24,1.85,3.0,0.94,0.02,0.67,-1,-2,1,0.94,7329,21,75,31,37,951,0.0,631,457,60,121.0,0,1,304,196,54,0,0,0,250,250,0,,,,,,,,,,,,
369490,1560684534253,5,2.24,2.0,3.24,1.85,3.0,0.97,-0.06,0.78,-1,-3,-1,0.97,7352,21,75,31,37,951,0.0,632,456,60,122.0,0,1,304,196,54,0,0,0,250,250,0,,,,,,,,,,,,
369510,1560684534273,6,2.24,2.01,3.24,1.85,3.01,1.03,-0.14,0.77,-1,-3,-1,1.04,7347,21,75,31,37,951,0.0,628,454,60,122.0,0,1,304,196,54,0,0,0,250,250,0,,,,,,,,,,,,
369530,1560684534293,5,2.24,2.0,3.24,1.86,3.01,1.01,-0.13,0.66,-0,-0,-1,1.02,7370,21,75,31,37,954,0.0,636,457,60,121.0,0,1,304,196,54,0,0,0,250,250,0,45.700375,4.90939,0.0,194.3,0,0.0,0,0.0,0.875,1,0.0,6.1588
369550,1560684534313,2,2.25,2.01,3.24,1.86,3.0,0.91,-0.18,0.58,1,2,0,0.92,7344,21,75,31,37,957,0.0,627,458,60,120.0,0,1,304,196,54,0,0,0,250,250,0,,,,,,,,,,,,
369570,1560684534333,4,2.24,2.0,3.24,1.85,3.0,0.82,-0.1,0.56,1,2,0,0.83,7390,21,75,31,37,959,0.0,632,458,60,120.0,0,1,304,196,54,0,0,0,250,250,0,,,,,,,,,,,,
369590,1560684534353,1,2.24,2.01,3.24,1.85,3.0,0.75,-0.05,0.48,2,2,-1,0.75,7378,21,75,31,37,962,0.0,630,455,60,122.0,0,1,304,196,54,0,0,0,250,250,0,,,,,,,,,,,,
369610,1560684534373,3,2.25,2.01,3.24,1.86,2.99,0.68,-0.01,0.44,2,2,-1,0.68,7355,21,75,31,37,963,0.0,627,458,60,121.0,0,1,304,196,54,0,0,0,250,250,0,,,,,,,,,,,,
369630,1560684534394,1,2.24,2.01,3.24,1.85,3.0,0.7,0.02,0.45,1,2,-0,0.7,7399,21,75,31,37,964,0.0,625,457,60,122.0,0,1,304,190,54,0,0,0,250,250,0,45.700375,4.90939,0.0,194.3,0,0.0,0,0.0,0.8767,1,0.0,6.1605
369650,1560684534414,1,2.24,2.01,3.24,1.84,3.0,0.73,0.09,0.51,1,1,0,0.73,7393,21,75,31,37,963,0.0,628,456,60,122.0,0,1,304,196,54,0,0,0,250,250,0,,,,,,,,,,,,
369670,1560684534434,-1,2.24,2.01,3.24,1.86,3.01,0.79,0.09,0.6,0,-0,-1,0.79,7411,21,75,31,36,962,0.0,626,456,60,122.0,0,1,301,190,54,0,0,0,250,250,0,,,,,,,,,,,,
369690,1560684534454,1,2.24,2.01,3.24,1.84,3.01,0.91,0.06,0.64,-1,-3,-1,0.91,7358,21,75,31,36,959,0.0,620,457,60,122.0,0,1,301,190,54,0,0,0,250,250,0,,,,,,,,,,,,
369710,1560684534474,1,2.24,2.01,3.24,1.85,3.01,1.01,-0.02,0.67,-1,-3,0,1.01,7399,21,75,31,36,957,0.0,629,457,60,122.0,0,1,301,190,54,0,0,0,250,250,0,,,,,,,,,,,,
369730,1560684534494,18,2.25,2.01,3.24,1.85,3.01,1.04,-0.08,0.7,-1,-2,1,1.04,7347,21,75,31,36,955,0.0,631,457,60,122.0,0,1,301,196,54,0,0,0,250,250,0,45.700375,4.90939,0.0,194.3,0,0.0,0,0.0,0.8783,1,0.0,6.1622
369750,1560684534514,5,2.23,2.01,3.24,1.85,2.99,1.04,-0.17,0.78,-1,-2,-1,1.06,7364,21,75,31,37,953,0.0,621,458,60,121.0,0,1,304,196,54,0,0,0,250,250,0,,,,,,,,,,,,
369770,1560684534534,4,2.24,2.0,3.24,1.86,3.0,1.02,-0.24,0.75,-0,-0,-1,1.05,7335,21,75,31,37,951,0.0,636,454,60,120.0,0,1,304,196,54,0,0,0,250,250,0,,,,,,,,,,,,
369790,1560684534554,4,2.24,2.0,3.23,1.85,3.0,0.9,-0.17,0.61,1,2,-0,0.92,7367,21,75,31,37,949,0.0,627,459,60,120.0,0,1,304,196,54,0,0,0,250,250,0,,,,,,,,,,,,
369810,1560684534574,2,2.25,2.01,3.24,1.84,3.0,0.78,-0.15,0.5,1,3,1,0.8,7347,21,75,31,37,948,0.0,631,458,60,120.0,0,1,304,196,54,0,0,0,250,250,0,,,,,,,,,,,,
369830,1560684534592,1,2.24,2.01,3.23,1.86,3.0,0.73,-0.04,0.49,1,3,1,0.73,7381,21,75,31,37,948,0.0,635,456,60,121.0,0,1,304,196,54,0,0,0,250,250,0,45.700375,4.90939,0.0,194.3,0,0.0,0,0.0,0.88,1,0.0,6.1638
369850,1560684534612,0,2.25,2.01,3.23,1.85,3.01,0.69,0.06,0.47,1,2,-0,0.69,7347,21,75,31,37,948,0.0,628,452,60,121.0,0,1,304,190,54,0,0,0,250,250,0,,,,,,,,,,,,
369870,1560684534632,1,2.24,2.01,3.24,1.85,3.01,0.76,0.06,0.53,1,0,-1,0.76,7321,21,75,31,36,949,0.0,630,456,60,122.0,0,1,301,190,54,0,0,0,250,250,0,,,,,,,,,,,,
369890,1560684534652,1,2.24,2.0,3.24,1.85,3.01,0.85,-0.0,0.59,-0,-1,-0,0.85,7347,21,75,31,37,950,0.0,622,456,60,122.0,0,1,304,196,54,0,0,0,250,250,0,,,,,,,,,,,,
369910,1560684534672,1,2.24,2.01,3.24,1.84,3.02,0.92,-0.01,0.66,-1,-1,0,0.92,7327,21,75,31,37,951,0.0,635,457,60,121.0,0,1,304,196,54,0,0,0,250,250,0,,,,,,,,,,,,
369930,1560684534694,3,2.24,2.01,3.24,1.86,3.0,0.95,-0.09,0.74,-1,-2,-0,0.96,7361,21,75,31,37,952,0.0,637,459,60,121.0,0,1,304,196,54,0,0,0,250,250,0,45.700375,4.90939,0.0,194.3,0,0.0,0,0.0,0.8817,1,0.0,6.1655
369950,1560684534714,4,2.24,2.01,3.24,1.85,3.01,1.0,-0.17,0.74,-1,-3,-0,1.01,7352,21,75,31,37,954,0.0,625,455,60,121.0,0,1,304,196,54,0,0,0,250,250,0,,,,,,,,,,,,
369970,1560684534734,5,2.24,2.01,3.24,1.85,3.01,0.95,-0.15,0.64,-0,-1,0,0.96,7376,21,75,31,37,955,0.0,637,457,60,121.0,0,1,304,196,54,0,0,0,250,250,0,,,,,,,,,,,,
369990,1560684534754,2,2.25,2.01,3.23,1.85,3.01,0.81,-0.17,0.54,1,1,1,0.83,7364,21,75,31,37,955,0.0,631,456,60,120.0,0,1,304,196,54,0,0,0,250,250,0,,,,,,,,,,,,
370010,1560684534774,3,2.24,2.01,3.24,1.85,3.0,0.75,-0.08,0.5,1,2,0,0.75,7396,21,75,31,37,954,0.0,625,458,60,120.0,0,1,304,196,54,0,0,0,250,250,0,,,,,,,,,,,,
370030,1560684534794,2,2.25,2.01,3.23,1.86,3.0,0.69,-0.01,0.43,2,2,0,0.69,7431,21,75,31,37,951,0.0,635,454,60,120.0,0,1,304,190,54,0,0,0,250,250,0,45.700375,4.90939,0.0,194.3,0,0.0,0,0.0,0.8833,1,0.0,6.1672
370050,1560684534814,3,2.23,2.01,3.24,1.85,3.01,0.64,0.02,0.43,2,2,0,0.64,7408,21,75,31,36,948,0.0,633,457,60,122.0,0,1,301,190,53,0,0,0,250,250,0,,,,,,,,,,,,
370070,1560684534834,3,2.24,2.0,3.24,1.86,3.0,0.63,0.04,0.42,2,1,1,0.63,7425,21,75,31,36,944,0.0,633,457,60,121.0,0,1,301,190,53,0,0,0,250,250,0,,,,,,,,,,,,
370090,1560684534854,1,2.24,2.01,3.24,1.86,3.0,0.63,0.11,0.48,1,-0,1,0.64,7419,21,75,31,36,940,0.0,626,455,60,122.0,0,1,301,190,53,0,0,0,250,250,0,,,,,,,,,,,,
370110,1560684534874,2,2.25,2.0,3.24,1.85,3.0,0.64,0.18,0.5,1,-1,0,0.66,7422,21,75,31,36,936,0.0,635,453,60,121.0,0,1,301,190,53,0,0,0,250,250,0,,,,,,,,,,,,
370130,1560684534894,2,2.25,2.0,3.24,1.85,3.01,0.73,0.14,0.55,0,-2,-1,0.74,7387,21,75,31,36,934,0.0,633,456,60,122.0,0,1,301,190,53,0,0,0,250,250,0,45.700375,4.90939,0.0,194.3,0,0.0,0,0.0,0.885,1,0.0,6.1688
370150,1560684534914,1,2.25,2.01,3.23,1.86,3.0,0.86,0.09,0.63,-1,-3,-1,0.86,7416,21,75,31,36,934,0.0,630,459,60,122.0,0,1,301,190,53,0,0,0,250,250,0,,,,,,,,,,,,
370170,1560684534934,1,2.24,2.01,3.24,1.86,3.0,0.94,0.07,0.7,-1,-4,1,0.94,7384,21,75,31,36,935,0.0,622,453,60,122.0,0,1,301,190,53,0,0,0,250,250,0,,,,,,,,,,,,
370190,1560684534954,1,2.24,2.01,3.24,1.85,3.0,0.98,-0.01,0.8,-1,-5,-0,0.98,7419,21,75,31,36,938,0.0,630,457,60,122.0,0,1,301,190,53,0,0,0,250,250,0,,,,,,,,,,,,
370210,1560684534974,2,2.24,2.01,3.23,1.85,3.0,1.04,-0.07,0.82,-2,-6,-1,1.04,7370,21,75,31,36,942,0.0,638,453,60,121.0,0,1,301,190,53,0,0,0,250,250,0,,,,,,,,,,,,
370230,1560684534994,4,2.24,2.01,3.23,1.86,3.0,1.04,-0.09,0.75,-2,-5,-1,1.04,7381,21,75,31,36,945,0.0,628,457,60,122.0,0,1,301,190,53,0,0,0,250,250,0,45.700375,4.90939,0.0,194.3,0,0.0,0,0.0,0.885,1,0.0,6.1705
370250,1560684535006,6,2.24,2.01,3.24,1.85,3.01,0.96,-0.16,0.69,-1,-3,-0,0.98,7361,21,75,31,36,949,0.0,637,458,60,120.0,0,1,301,196,53,0,0,0,250,250,0,,,,,,,,,,,,
370270,1560684535026,3,2.24,2.01,3.24,1.85,3.0,0.91,-0.13,0.66,-0,-2,-0,0.92,7378,21,75,31,36,956,0.0,631,457,60,121.0,0,1,301,190,53,0,0,0,250,250,0,,,,,,,,,,,,
370290,1560684535046,5,2.24,2.01,3.24,1.85,3.01,0.84,-0.11,0.56,0,-0,0,0.85,7338,21,75,31,37,963,0.0,632,456,60,120.0,0,1,304,196,53,0,0,0,250,250,0,,,,,,,,,,,,
370310,1560684535066,2,2.24,2.01,3.24,1.85,3.0,0.75,-0.04,0.49,1,0,0,0.75,7352,21,75,31,37,966,0.0,628,458,60,122.0,0,1,304,190,53,0,0,0,250,250,0,,,,,,,,,,,,
370330,1560684535092,2,2.24,2.01,3.23,1.85,3.01,0.71,0.01,0.47,1,-0,0,0.71,7370,21,75,31,37,969,0.0,631,457,60,121.0,0,1,304,190,53,0,0,0,250,250,0,45.700375,4.90939,0.0,194.3,0,0.0,0,0.0,0.8883,1,0.0,6.1722
370350,1560684535112,2,2.24,2.01,3.24,1.86,3.0,0.73,0.11,0.53,1,-1,0,0.73,7338,21,75,31,37,969,0.0,622,454,60,122.0,0,1,304,196,54,0,0,0,250,250,0,,,,,,,,,,,,
370370,1560684535132,-1,2.25,2.01,3.24,1.86,3.0,0.78,0.12,0.59,0,-2,-1,0.79,7370,21,75,31,36,969,0.0,627,457,60,122.0,0,1,301,196,54,0,0,0,250,250,0,,,,,,,,,,,,
370390,1560684535152,1,2.24,2.0,3.24,1.85,3.0,0.9,0.08,0.65,-0,-4,-1,0.91,7361,21,75,31,37,966,0.0,629,456,60,122.0,0,1,304,196,54,0,0,0,250,250,0,,,,,,,,,,,,
370410,1560684535172,-1,2.24,2.01,3.24,1.85,3.01,1.01,0.01,0.69,-1,-5,-0,1.01,7393,21,75,31,37,962,0.0,621,456,60,122.0,0,1,304,196,54,0,0,0,250,250,0,,,,,,,,,,,,
370430,1560684535194,1,2.23,2.01,3.24,1.84,3.01,1.03,-0.04,0.71,-2,-5,1,1.03,7358,21,75,31,37,959,0.0,632,456,60,122.0,0,1,304,196,54,0,0,0,250,250,0,45.700375,4.90939,0.0,194.3,0,0.0,0,0.0,0.89,1,0.0,6.1738
370450,1560684535214,4,2.25,2.01,3.24,1.85,3.0,1.0,-0.1,0.75,-1,-5,-1,1.0,7373,21,75,31,36,956,0.0,623,457,60,122.0,0,1,301,196,54,0,0,0,250,250,0,,,,,,,,,,,,
370470,1560684535234,5,2.24,2.0,3.24,1.85,3.0,0.96,-0.16,0.7,-1,-4,-1,0.97,7350,21,75,31,36,956,0.0,632,454,60,122.0,0,1,301,196,54,0,0,0,250,250,0,,,,,,,,,,,,
370490,1560684535254,4,2.24,2.01,3.24,1.85,3.01,0.86,-0.12,0.58,-0,-2,-1,0.87,7384,21,75,31,37,957,0.0,633,460,60,121.0,0,1,304,196,54,0,0,0,250,250,0,,,,,,,,,,,,
370510,1560684535274,4,2.24,2.0,3.24,1.85,3.0,0.73,-0.11,0.48,1,-0,-0,0.74,7352,21,75,31,37,957,0.0,628,458,60,120.0,0,1,304,196,54,0,0,0,250,250,0,,,,,,,,,,,,
370530,1560684535294,3,2.24,2.0,3.23,1.85,3.0,0.67,-0.02,0.5,1,-0,1,0.67,7358,21,75,31,37,956,0.0,622,456,60,121.0,0,1,304,190,54,0,0,0,250,250,0,45.700375,4.90939,0.0,194.3,0,0.0,0,0.0,0.8917,1,0.0,6.1755
370550,1560684535314,3,2.23,2.0,3.24,1.85,3.0,0.63,0.06,0.49,1,0,0,0.64,7381,21,75,31,37,956,0.0,629,457,60,121.0,0,1,304,196,55,0,0,0,250,250,0,,,,,,,,,,,,
370570,1560684535334,3,2.23,2.01,3.23,1.85,3.01,0.68,0.07,0.55,1,-0,-0,0.68,7367,21,75,31,37,955,0.0,626,460,60,121.0,0,1,304,196,55,0,0,0,250,250,0,,,,,,,,,,,,
370590,1560684535354,1,2.24,2.01,3.24,1.85,3.01,0.78,0.04,0.58,1,-1,0,0.78,7387,21,75,31,37,953,0.0,631,456,60,121.0,0,1,304,196,55,0,0,0,250,250,0,,,,,,,,,,,,
370610,1560684535374,2,2.23,2.01,3.23,1.85,3.0,0.86,0.07,0.67,0,-2,0,0.86,7347,21,75,31,37,951,0.0,629,455,60,122.0,0,1,304,196,55,0,0,0,250,250,0,,,,,,,,,,,,
370630,1560684535393,2,2.24,2.01,3.24,1.85,3.01,0.92,0.0,0.78,-0,-4,-1,0.92,7387,21,75,31,37,949,0.0,628,456,60,122.0,0,1,304,196,55,0,0,0,250,250,0,45.700375,4.90939,0.0,194.3,0,0.0,0,0.0,0.8933,1,0.0,6.1772
370650,1560684535413,1,2.23,2.0,3.24,1.85,3.0,1.01,-0.06,0.78,-1,-6,-1,1.01,7355,21,75,31,36,948,0.0,635,456,60,122.0,0,1,301,196,54,0,0,0,250,250,0,,,,,,,,,,,,
370670,1560684535433,1,2.25,2.0,3.24,1.86,3.01,1.02,-0.08,0.71,-2,-5,-0,1.03,7376,21,75,31,37,948,0.0,633,460,60,121.0,0,1,304,196,54,0,0,0,250,250,0,,,,,,,,,,,,
370690,1560684535453,4,2.24,2.01,3.24,1.84,3.01,0.95,-0.14,0.65,-1,-3,1,0.96,7347,21,75,31,37,947,0.0,621,456,60,122.0,0,1,304,196,54,0,0,0,250,250,0,,,,,,,,,,,,
370710,1560684535473,5,2.24,2.01,3.24,1.85,3.01,0.88,-0.1,0.64,-0,-2,-1,0.89,7376,21,75,31,37,946,0.0,628,456,60,121.0,0,1,304,196,54,0,0,0,250,250,0,,,,,,,,,,,,
370730,1560684535493,5,2.23,2.01,3.24,1.86,3.0,0.81,-0.11,0.57,0,-2,-1,0.82,7350,21,75,31,37,947,0.0,635,455,60,121.0,0,1,304,196,54,0,0,0,250,250,0,45.700375,4.90939,0.0,194.3,0,0.0,0,0.0,0.895,1,0.0,6.1788
370750,1560684535513,2,2.25,2.0,3.24,1.85,3.01,0.72,-0.09,0.5,1,0,-1,0.72,7373,21,75,31,37,946,0.0,635,459,60,120.0,0,1,304,196,54,0,0,0,250,250,0,,,,,,,,,,,,
370770,1560684535533,4,2.24,2.02,3.24,1.85,3.01,0.71,-0.06,0.51,1,0,0,0.72,7361,21,75,31,37,944,0.0,627,455,60,121.0,0,1,304,196,54,0,0,0,250,250,0,,,,,,,,,,,,
370790,1560684535553,2,2.25,2.01,3.24,1.85,3.01,0.71,0.02,0.57,1,1,1,0.71,7335,21,75,31,37,943,0.0,621,457,60,121.0,0,1,304,196,54,0,0,0,250,250,0,,,,,,,,,,,,
370810,1560684535573,2,2.24,2.01,3.24,1.85,3.0,0.74,0.06,0.65,1,0,-1,0.74,7378,21,75,31,37,940,0.0,629,456,60,122.0,0,1,304,196,54,0,0,0,250,250,0,,,,,,,,,,,,
370830,1560684535593,-1,2.25,2.01,3.23,1.86,3.0,0.84,0.02,0.71,1,-2,-2,0.84,7358,21,75,31,37,938,0.0,632,456,60,122.0,0,1,304,196,54,0,0,0,250,250,0,45.700375,4.90939,0.0,194.3,0,0.0,0,0.0,0.8967,1,0.0,6.1805
370850,1560684535613,1,2.24,2.0,3.24,1.85,3.01,0.96,-0.06,0.72,-0,-3,-1,0.96,7384,21,75,31,37,936,0.0,626,456,60,122.0,0,1,304,196,54,0,0,0,250,250,0,,,,,,,,,,,,
370870,1560684535633,1,2.23,2.01,3.24,1.86,3.0,0.99,-0.11,0.72,-1,-4,-0,0.99,7367,21,75,31,36,934,0.0,634,457,60,122.0,0,1,301,190,54,0,0,0,250,250,0,,,,,,,,,,,,
370890,1560684535653,0,2.24,2.0,3.24,1.85,3.0,0.99,-0.16,0.78,-1,-5,-2,1.0,7378,21,75,31,37,933,0.0,627,457,60,122.0,0,1,304,196,54,0,0,0,250,250,0,,,,,,,,,,,,
370910,1560684535673,6,2.24,2.01,3.24,1.85,3.0,0.98,-0.23,0.75,-1,-5,-1,1.0,7364,21,75,31,37,933,0.0,623,454,60,122.0,0,1,304,196,54,0,0,0,250,250,0,,,,,,,,,,,,
370930,1560684535693,5,2.24,2.01,3.24,1.85,3.0,0.9,-0.19,0.62,-1,-2,-0,0.91,7390,21,75,31,37,935,0.0,633,460,60,122.0,0,1,304,196,54,0,0,0,250,250,0,45.700375,4.90939,0.0,194.3,0,0.0,0,0.0,0.8983,1,0.0,6.1822
370950,1560684535713,5,2.24,2.01,3.24,1.85,3.0,0.8,-0.15,0.52,0,0,0,0.81,7370,21,75,31,37,936,0.0,634,457,60,121.0,0,1,304,196,55,0,0,0,250,250,0,,,,,,,,,,,,
370970,1560684535733,4,2.24,2.01,3.24,1.85,3.01,0.73,-0.05,0.54,1,1,-0,0.73,7378,21,75,31,37,938,0.0,625,457,60,120.0,0,1,304,196,55,0,0,0,250,250,0,,,,,,,,,,,,
370990,1560684535753,3,2.24,2.01,3.24,1.86,3.0,0.66,0.06,0.49,1,1,-1,0.66,7376,21,75,31,37,940,0.0,627,454,60,122.0,0,1,304,196,55,0,0,0,250,250,0,,,,,,,,,,,,
371010,1560684535773,3,2.24,2.0,3.24,1.86,3.0,0.57,0.09,0.36,2,1,-1,0.58,7350,21,75,31,37,942,0.0,631,460,60,121.0,0,1,304,196,55,0,0,0,250,250,0,,,,,,,,,,,,
371030,1560684535793,2,2.23,2.01,3.24,1.85,3.01,0.49,0.12,0.34,2,1,1,0.5,7399,21,75,31,37,943,0.0,625,455,60,121.0,0,1,304,196,55,0,0,0,250,250,0,45.700375,4.90939,0.0,194.3,0,0.0,0,0.0,0.9,1,0.0,6.1838
371050,1560684535813,1,2.25,2.0,3.24,1.85,3.0,0.45,0.18,0.37,2,1,2,0.49,7367,21,75,31,36,942,0.0,628,457,60,122.0,0,1,301,196,54,0,0,0,250,250,0,,,,,,,,,,,,
371070,1560684535833,2,2.24,2.01,3.24,1.85,3.0,0.44,0.27,0.39,1,-1,-0,0.52,7384,21,75,31,36,942,0.0,632,460,60,122.0,0,1,301,190,54,0,0,0,250,250,0,,,,,,,,,,,,
371090,1560684535853,0,2.24,2.0,3.24,1.86,3.0,0.51,0.25,0.43,1,-3,-1,0.57,7373,21,75,31,37,941,0.0,618,456,60,122.0,0,1,304,196,54,0,0,0,250,250,0,,,,,,,,,,,,
371110,1560684535873,1,2.25,2.0,3.24,1.85,3.0,0.62,0.18,0.48,-0,-3,-1,0.64,7408,21,75,31,37,939,0.0,631,457,60,122.0,0,1,304,196,54,0,0,0,250,250,0,,,,,,,,,,,,
371130,1560684535893,1,2.23,2.01,3.24,1.84,3.0,0.71,0.17,0.55,-0,-3,1,0.73,7376,21,75,31,37,939,0.0,628,458,60,122.0,0,1,304,196,54,0,0,0,250,250,0,45.700375,4.90939,0.0,194.3,0,0.0,0,0.0,0.9017,1,0.0,6.1855
371150,1560684535913,4,2.24,2.01,3.24,1.85,3.0,0.76,0.11,0.66,-0,-3,-0,0.77,7416,21,75,31,37,938,0.0,631,458,60,120.0,0,1,304,196,54,0,0,0,250,250,0,,,,,,,,,,,,
371170,1560684535933,5,2.24,2.01,3.24,1.86,3.0,0.84,0.06,0.67,-0,-4,-1,0.84,7402,21,75,31,37,936,0.0,628,457,60,121.0,0,1,304,196,54,0,0,0,250,250,0,,,,,,,,,,,,
371190,1560684535953,5,2.24,2.0,3.23,1.85,3.0,0.89,0.03,0.58,0,-2,-0,0.89,7434,21,75,31,36,935,0.0,633,458,60,121.0,0,1,301,190,54,0,0,0,250,250,0,,,,,,,,,,,,
371210,1560684535973,6,2.24,2.0,3.24,1.86,3.0,0.87,-0.05,0.57,1,-1,0,0.87,7425,21,75,31,36,934,0.0,636,461,60,121.0,0,1,301,190,54,0,0,0,250,250,0,,,,,,,,,,,,
371230,1560684535993,5,2.23,2.01,3.24,1.85,3.01,0.84,-0.06,0.6,1,-0,0,0.84,7443,21,75,31,37,934,0.0,636,458,60,121.0,0,1,304,196,54,0,0,0,250,250,0,45.700375,4.90939,0.0,194.3,0,0.0,0,0.0,0.9017,1,0.0,6.1872
371250,1560684536007,4,2.23,2.01,3.24,1.86,3.0,0.82,-0.11,0.56,2,0,-0,0.83,7419,21,75,31,37,932,0.0,634,453,60,120.0,0,1,304,196,53,0,0,0,250,250,0,,,,,,,,,,,,
371270,1560684536027,2,2.25,2.01,3.23,1.85,3.01,0.74,-0.08,0.45,2,2,-0,0.74,7422,21,75,31,37,929,0.0,623,457,60,121.0,0,1,304,190,53,0,0,0,250,250,0,,,,,,,,,,,,
371290,1560684536047,4,2.25,2.01,3.24,1.86,3.0,0.63,-0.09,0.35,3,4,1,0.64,7422,21,75,31,36,928,0.0,640,458,60,120.0,0,1,301,190,53,0,0,0,250,250,0,,,,,,,,,,,,
371310,1560684536067,2,2.25,2.01,3.23,1.85,3.0,0.58,-0.04,0.34,3,3,1,0.58,7452,21,75,31,36,926,0.0,636,457,60,120.0,0,1,301,190,53,0,0,0,250,250,0,,,,,,,,,,,,
371330,1560684536094,1,2.24,2.01,3.23,1.85,3.01,0.55,-0.03,0.32,3,3,0,0.55,7437,21,75,31,36,925,0.0,629,458,60,121.0,0,1,301,190,53,0,0,0,250,250,0,45.700375,4.90939,0.0,194.3,0,0.0,0,0.0,0.905,1,0.0,6.1888
371350,1560684536114,3,2.24,2.0,3.24,1.85,3.0,0.48,-0.0,0.27,3,3,-0,0.48,7446,21,75,31,36,925,0.0,632,457,60,121.0,0,1,301,190,53,0,0,0,250,250,0,,,,,,,,,,,,
371370,1560684536134,1,2.25,2.01,3.23,1.86,3.0,0.41,0.03,0.26,3,2,1,0.41,7458,21,75,31,36,925,0.0,629,457,60,121.0,0,1,301,190,53,0,0,0,250,250,0,,,,,,,,,,,,
371390,1560684536154,2,2.25,2.0,3.24,1.85,3.0,0.39,0.11,0.28,3,2,2,0.4,7422,21,75,31,36,926,0.0,622,454,60,122.0,0,1,301,190,53,0,0,0,250,250,0,,,,,,,,,,,,
371410,1560684536174,1,2.25,2.01,3.24,1.85,3.0,0.39,0.18,0.32,3,1,1,0.43,7461,21,75,31,36,929,0.0,630,453,60,122.0,0,1,301,190,53,0,0,0,250,250,0,,,,,,,,,,,,
371430,1560684536193,1,2.25,2.01,3.24,1.85,3.0,0.42,0.18,0.35,2,-1,-1,0.46,7422,21,75,31,36,931,0.0,635,456,60,122.0,0,1,301,190,53,0,0,0,250,250,0,45.700375,4.90939,0.0,194.3,0,0.0,0,0.0,0.9067,1,0.0,6.1905
371450,1560684536213,2,2.25,2.01,3.24,1.86,3.0,0.47,0.17,0.38,1,-3,-1,0.5,7446,21,75,31,36,933,0.0,628,457,60,122.0,0,1,301,190,53,0,0,0,250,250,0,,,,,,,,,,,,
371470,1560684536233,-1,2.26,2.01,3.23,1.85,3.01,0.51,0.22,0.42,0,-3,-1,0.56,7411,21,75,31,36,934,0.0,627,455,60,122.0,0,1,301,190,53,0,0,0,250,250,0,,,,,,,,,,,,
371490,1560684536253,-1,2.25,2.01,3.24,1.84,3.0,0.57,0.22,0.49,-0,-4,-1,0.62,7411,21,75,31,36,937,0.0,626,455,60,122.0,0,1,301,190,53,0,0,0,250,250,0,,,,,,,,,,,,
371510,1560684536273,0,2.25,2.01,3.24,1.85,3.0,0.71,0.21,0.58,-1,-6,-1,0.74,7393,21,75,31,36,941,0.0,627,454,60,122.0,0,1,301,190,53,0,0,0,250,250,0,,,,,,,,,,,,
371530,1560684536292,0,2.26,2.01,3.24,1.86,3.01,0.84,0.13,0.65,-2,-6,-1,0.85,7387,21,75,31,36,944,0.0,626,457,60,122.0,0,1,301,190,53,0,0,0,250,250,0,45.700375,4.90939,0.0,194.3,0,0.0,0,0.0,0.9083,1,0.0,6.1922
371550,1560684536312,4,2.26,2.0,3.24,1.85,3.01,0.9,0.07,0.67,-2,-6,-1,0.91,7376,21,75,31,36,946,0.0,630,458,60,122.0,0,1,301,190,53,0,0,0,250,250,0,,,,,,,,,,,,
371570,1560684536332,5,2.25,2.01,3.24,1.84,3.01,0.92,-0.01,0.72,-1,-5,-2,0.92,7387,21,75,31,37,950,0.0,629,459,60,120.0,0,1,304,196,53,0,0,0,250,250,0,,,,,,,,,,,,
371590,1560684536352,5,2.24,2.01,3.24,1.86,3.01,0.94,-0.09,0.72,-1,-4,-1,0.95,7364,21,75,31,36,955,0.0,640,455,60,121.0,0,1,301,196,53,0,0,0,250,250,0,,,,,,,,,,,,
371610,1560684536372,4,2.25,2.02,3.24,1.86,3.0,0.89,-0.07,0.64,-0,-1,-1,0.9,7384,21,75,31,37,959,0.0,630,458,60,121.0,0,1,304,196,53,0,0,0,250,250,0,,,,,,,,,,,,
371630,1560684536392,1,2.26,2.01,3.23,1.85,3.0,0.79,-0.1,0.53,1,0,-0,0.8,7358,21,75,31,37,961,0.0,634,459,60,120.0,0,1,304,196,53,0,0,0,250,250,0,45.700375,4.90939,0.0,194.3,0,0.0,0,0.0,0.91,1,0.0,6.1938
371650,1560684536412,-1,2.26,2.01,3.23,1.86,3.0,0.71,-0.01,0.48,1,1,0,0.71,7355,21,75,31,37,965,0.0,626,455,60,123.0,0,1,304,190,53,0,0,0,250,250,0,,,,,,,,,,,,
371670,1560684536432,0,2.26,2.0,3.24,1.85,3.01,0.66,0.08,0.42,1,1,-0,0.66,7181,21,75,31,36,971,0.0,628,456,60,123.0,0,1,301,190,53,0,0,0,250,250,0,,,,,,,,,,,,
371690,1560684536452,-1,2.25,2.01,3.24,1.85,3.01,0.75,0.08,0.52,0,-3,-1,0.76,6944,21,75,31,37,975,0.0,627,459,60,122.0,0,1,304,196,53,0,0,0,250,250,0,,,,,,,,,,,,
371710,1560684536472,-0,2.26,2.0,3.24,1.85,3.01,0.75,-0.06,0.48,1,-0,-0,0.75,6749,21,75,31,38,978,0.0,622,457,60,122.0,0,1,307,202,53,0,0,0,250,250,0,,,,,,,,,,,,
371730,1560684536492,-0,2.26,2.01,3.23,1.86,3.01,0.71,0.11,0.5,1,-1,0,0.72,6572,21,75,31,38,980,0.0,620,455,60,123.0,0,1,307,202,53,0,0,0,250,250,0,45.700375,4.90939,0.0,194.3,0,0.0,0,0.0,0.9117,1,0.0,6.1955
371750,1560684536512,-1,2.25,2.01,3.24,1.85,3.0,0.75,0.03,0.5,1,-3,-1,0.75,6390,21,75,31,39,981,0.0,607,456,60,122.0,0,1,310,330,51,0,0,0,250,250,0,,,,,,,,,,,,
371770,1560684536532,0,2.25,2.01,3.24,1.85,3.01,0.77,-0.01,0.6,0,-5,-4,0.77,6210,21,75,31,40,979,0.0,590,458,60,121.0,0,1,316,307,51,0,0,0,250,250,0,,,,,,,,,,,,
371790,1560684536552,2,2.24,2.01,3.24,1.86,3.0,0.83,-0.01,0.62,-1,-9,-4,0.83,6177,21,75,31,41,976,0.0,576,461,60,122.0,0,1,322,281,51,0,0,0,250,250,0,,,,,,,,,,,,
371810,1560684536572,0,2.25,2.0,3.21,1.84,3.0,0.77,0.07,0.72,-0,-9,-3,0.78,6273,21,75,31,43,975,0.0,582,462,60,121.0,0,1,336,260,51,0,0,0,250,250,0,,,,,,,,,,,,
371830,1560684536592,3,2.24,2.01,3.24,1.84,3.01,0.68,0.18,0.73,2,-8,-2,0.7,6289,21,75,31,43,983,0.0,582,453,60,122.0,0,1,336,234,51,0,0,0,250,250,0,45.700375,4.90939,0.0,194.3,0,0.0,0,0.0,0.9133,1,0.0,6.1972
371850,1560684536612,1,2.24,2.01,3.24,1.85,3.01,0.64,0.16,0.66,3,-5,0,0.66,6315,21,75,31,44,994,0.0,580,453,60,123.0,0,1,343,214,52,0,0,0,250,250,0,,,,,,,,,,,,
371870,1560684536632,1,2.24,2.01,3.24,1.85,3.0,0.72,-0.02,0.7,2,-6,0,0.72,6364,21,75,31,44,1007,0.0,587,460,60,122.0,0,1,343,214,52,0,0,0,250,250,0,,,,,,,,,,,,
371890,1560684536652,3,2.25,2.0,3.24,1.85,3.0,0.77,-0.03,0.75,1,-7,1,0.77,6447,21,75,31,45,1037,0.0,601,468,60,121.0,0,1,350,217,52,0,0,0,250,250,0,,,,,,,,,,,,
371910,1560684536672,3,2.25,2.01,3.24,1.85,3.0,0.7,0.06,0.71,1,-6,1,0.7,6456,21,75,31,45,1123,0.0,595,459,60,121.0,0,1,350,217,52,0,0,0,250,250,0,,,,,,,,,,,,
371930,1560684536692,0,2.25,2.01,3.24,1.86,3.01,0.7,0.05,0.59,2,-2,2,0.7,6472,21,75,31,45,1209,0.0,591,452,60,122.0,0,1,350,217,52,0,0,0,250,250,0,45.700375,4.90939,0.0,194.3,0,0.0,0,0.0,0.915,1,0.0,6.1988
371950,1560684536712,2,2.25,2.01,3.24,1.85,3.0,0.8,-0.03,0.66,1,-3,2,0.8,6512,21,75,31,45,1282,0.0,599,456,60,122.0,0,1,351,217,53,0,0,0,250,250,0,,,,,,,,,,,,
371970,1560684536732,5,2.25,2.0,3.24,1.85,3.0,0.79,0.03,0.71,1,-6,1,0.79,6528,21,75,31,45,1351,0.0,609,460,60,122.0,0,1,351,217,53,0,0,0,250,250,0,,,,,,,,,,,,
371990,1560684536752,-1,2.25,2.01,3.24,1.86,3.0,0.7,0.03,0.59,2,-4,1,0.7,6560,21,75,31,45,1384,0.0,603,458,60,123.0,0,1,351,217,53,0,0,0,250,250,0,,,,,,,,,,,,
372010,1560684536772,4,2.25,2.01,3.24,1.86,3.0,0.82,-0.01,0.65,0,-6,-1,0.82,6632,21,75,31,45,1417,0.0,611,457,60,121.0,0,1,352,217,53,0,0,0,250,250,0,,,,,,,,,,,,
372030,1560684536792,-1,2.25,2.01,3.24,1.85,3.01,0.77,0.07,0.61,1,-6,-2,0.78,6677,20,75,31,45,1379,0.0,613,455,60,122.0,0,1,352,217,53,0,0,0,250,250,0,45.700375,4.90939,0.0,194.3,0,0.0,0,0.0,0.9167,1,0.0,6.2005
372050,1560684536812,1,2.25,2.01,3.24,1.85,3.0,0.78,-0.07,0.7,1,-5,-3,0.79,6694,20,75,31,45,1340,0.0,619,460,60,120.0,0,1,352,217,55,0,0,0,250,250,0,,,,,,,,,,,,
372070,1560684536832,2,2.25,2.0,3.24,1.86,3.01,0.75,0.09,0.68,1,-4,-3,0.75,6747,20,75,31,45,1266,0.0,609,452,60,123.0,0,1,352,217,55,0,0,0,250,250,0,,,,,,,,,,,,
372090,1560684536852,2,2.25,2.01,3.24,1.85,3.0,0.8,-0.02,0.69,0,-4,-1,0.8,6786,20,75,31,45,1192,0.0,611,456,60,122.0,0,1,353,217,55,0,0,0,250,250,0,,,,,,,,,,,,
372110,1560684536872,-1,2.25,2.01,3.23,1.85,3.0,0.73,0.12,0.64,1,-2,0,0.74,6868,20,75,31,44,1150,0.0,608,455,60,123.0,0,1,346,216,55,0,0,0,250,250,0,,,,,,,,,,,,
372130,1560684536894,3,2.24,2.01,3.24,1.85,3.0,0.86,-0.03,0.73,-0,-3,1,0.86,6898,20,75,31,44,1114,0.0,621,460,60,121.0,0,1,346,216,55,0,0,0,250,250,0,45.700375,4.90939,0.0,194.3,0,0.0,0,0.0,0.9183,1,0.0,6.2022
372150,1560684536914,1,2.26,2.01,3.24,1.85,3.01,0.71,0.04,0.57,1,-1,2,0.71,6936,20,75,31,43,1089,0.0,610,456,60,122.0,0,1,339,215,56,0,0,0,250,250,0,,,,,,,,,,,,
372170,1560684536934,-0,2.25,2.01,3.24,1.85,3.0,0.81,0.08,0.62,0,-4,1,0.81,7019,20,75,31,43,1062,0.0,623,457,60,122.0,0,1,340,215,56,0,0,0,250,250,0,,,,,,,,,,,,
372190,1560684536954,4,2.25,2.01,3.24,1.85,3.0,0.86,-0.07,0.68,-0,-3,-1,0.86,7040,20,75,31,43,1063,0.0,630,460,60,121.0,0,1,340,215,56,0,0,0,250,250,0,,,,,,,,,,,,
372210,1560684536974,1,2.25,2.01,3.23,1.85,3.0,0.72,0.02,0.61,1,-1,-2,0.72,7086,20,75,31,42,1072,0.0,631,458,60,121.0,0,1,332,213,56,0,0,0,250,250,0,,,,,,,,,,,,
372230,1560684536994,1,2.25,2.01,3.23,1.86,3.0,0.71,0.07,0.53,1,-1,-1,0.72,7172,20,75,31,42,1077,0.0,625,456,60,122.0,0,1,332,213,56,0,0,0,250,250,0,45.700375,4.90939,0.0,194.3,0,0.0,0,0.0,0.9183,1,0.0,6.2038
372250,1560684537006,-0,2.25,2.01,3.24,1.85,3.0,0.85,-0.04,0.66,-1,-3,0,0.85,7200,20,75,31,41,1080,0.0,630,459,60,121.0,0,1,325,213,58,0,0,0,250,250,0,,,,,,,,,,,,
372270,1560684537026,6,2.24,2.01,3.24,1.85,3.0,0.86,-0.08,0.64,-1,-2,2,0.86,7278,20,75,31,41,1076,0.0,630,456,60,122.0,0,1,325,211,58,0,0,0,250,250,0,,,,,,,,,,,,
372290,1560684537046,4,2.24,2.01,3.24,1.86,3.0,0.75,-0.1,0.61,0,0,0,0.75,7321,20,75,31,41,1070,0.0,628,458,60,121.0,0,1,325,211,58,0,0,0,250,250,0,,,,,,,,,,,,
372310,1560684537066,3,2.25,2.0,3.24,1.85,3.0,0.67,-0.05,0.56,1,-0,-1,0.67,7367,20,75,31,40,1058,0.0,625,455,60,121.0,0,1,317,209,58,0,0,0,250,250,0,,,,,,,,,,,,
372330,1560684537094,2,2.25,2.01,3.23,1.86,3.0,0.63,-0.0,0.47,1,-0,-1,0.63,7455,21,75,31,39,1043,0.0,636,457,60,121.0,0,1,310,208,58,0,0,0,250,250,0,45.700375,4.90939,0.0,194.3,0,0.0,0,0.0,0.9217,1,0.0,6.2055
372350,1560684537114,3,2.25,2.0,3.24,1.85,3.0,0.57,0.0,0.45,2,1,1,0.57,7455,21,75,31,39,1031,0.0,631,457,60,122.0,0,1,310,208,58,0,0,0,250,250,0,,,,,,,,,,,,
372370,1560684537134,3,2.25,2.02,3.24,1.85,3.01,0.51,0.04,0.46,2,0,2,0.51,7527,20,75,31,39,1023,0.0,635,455,60,122.0,0,1,310,209,58,0,0,0,250,250,0,,,,,,,,,,,,
372390,1560684537154,2,2.23,2.01,3.24,1.85,3.0,0.48,0.12,0.5,2,0,2,0.49,7530,20,75,31,38,1010,0.0,640,459,60,121.0,0,1,307,203,58,0,0,0,250,250,0,,,,,,,,,,,,
372410,1560684537174,4,2.24,2.01,3.24,1.85,3.0,0.45,0.14,0.51,3,-0,0,0.47,7536,21,75,31,38,996,0.0,637,455,60,122.0,0,1,307,203,58,0,0,0,250,250,0,,,,,,,,,,,,
372430,1560684537194,3,2.24,2.01,3.23,1.86,3.0,0.37,0.15,0.5,3,1,-0,0.4,7566,21,75,31,37,986,0.0,641,460,60,120.0,0,1,304,197,58,0,0,0,250,250,0,45.700375,4.90939,0.0,194.3,0,0.0,0,0.0,0.9233,1,0.0,6.2072
372450,1560684537214,1,2.24,2.01,3.23,1.86,3.0,0.28,0.14,0.43,4,2,1,0.31,7551,20,75,31,37,980,0.0,632,456,60,120.0,0,1,304,197,56,0,0,0,250,250,0,,,,,,,,,,,,
372470,1560684537234,4,2.24,2.0,3.23,1.85,3.0,0.25,0.16,0.43,4,3,2,0.3,7588,20,75,31,37,969,0.0,637,458,60,120.0,0,1,304,197,56,0,0,0,250,250,0,,,,,,,,,,,,
372490,1560684537254,4,2.24,2.01,3.23,1.86,3.0,0.26,0.12,0.46,4,3,2,0.29,7569,20,75,31,37,953,0.0,636,455,60,121.0,0,1,304,197,56,0,0,0,250,250,0,,,,,,,,,,,,
372510,1560684537274,5,2.25,2.0,3.24,1.85,3.0,0.28,0.12,0.45,4,4,1,0.3,7594,21,75,31,36,939,0.0,636,457,60,121.0,0,1,301,191,56,0,0,0,250,250,0,,,,,,,,,,,,
372530,1560684537294,5,2.23,2.01,3.24,1.85,3.01,0.25,0.07,0.42,4,4,1,0.26,7569,20,75,31,36,929,0.0,641,458,60,120.0,0,1,301,191,56,0,0,0,250,250,0,45.700375,4.90939,0.0,194.3,0,0.0,0,0.0,0.925,1,0.0,6.2088
372550,1560684537314,5,2.23,2.01,3.24,1.85,3.0,0.28,0.04,0.45,4,4,1,0.28,7594,20,75,31,36,916,0.0,626,457,60,122.0,0,1,301,191,55,0,0,0,250,250,0,,,,,,,,,,,,
372570,1560684537334,3,2.25,2.01,3.23,1.86,3.0,0.38,-0.04,0.47,3,3,1,0.38,7575,20,75,31,36,900,0.0,631,455,60,122.0,0,1,301,191,55,0,0,0,250,250,0,,,,,,,,,,,,
372590,1560684537354,-0,2.23,2.0,3.23,1.86,3.0,0.52,-0.03,0.47,2,2,1,0.52,7588,20,75,31,36,886,0.0,634,457,60,121.0,0,1,301,191,55,0,0,0,250,250,0,,,,,,,,,,,,
372610,1560684537374,0,2.25,2.0,3.24,1.86,3.0,0.62,-0.09,0.48,1,0,1,0.62,7560,21,75,31,36,881,0.0,630,456,60,122.0,0,1,301,191,55,0,0,0,250,250,0,,,,,,,,,,,,
372630,1560684537393,-1,2.24,2.0,3.23,1.85,3.0,0.68,-0.13,0.52,1,-0,-0,0.69,7594,21,75,31,36,875,0.0,632,456,60,122.0,0,1,301,191,55,0,0,0,250,250,0,45.700375,4.90939,0.0,194.3,0,0.0,0,0.0,0.9267,1,0.0,6.2105
372650,1560684537413,-1,2.24,2.01,3.24,1.86,3.0,0.77,-0.13,0.55,-0,-2,-0,0.78,7548,21,75,31,36,869,0.0,625,455,60,122.0,0,1,301,191,54,0,0,0,250,250,0,,,,,,,,,,,,
372670,1560684537433,-1,2.24,2.01,3.23,1.86,3.01,0.9,-0.15,0.59,-1,-3,-1,0.91,7578,22,75,31,37,863,0.0,626,457,60,122.0,0,1,304,191,54,0,0,0,250,250,0,,,,,,,,,,,,
372690,1560684537453,-2,2.25,2.01,3.24,1.85,3.0,1.0,-0.14,0.61,-1,-3,-0,1.01,7542,23,75,31,37,862,0.0,626,457,60,122.0,0,1,304,197,54,0,0,0,250,250,0,,,,,,,,,,,,
372710,1560684537473,-1,2.25,2.01,3.23,1.85,3.0,1.04,-0.11,0.64,-2,-3,-1,1.04,7591,24,75,31,38,861,0.0,629,455,60,122.0,0,1,307,203,54,0,0,0,250,250,0,,,,,,,,,,,,
372730,1560684537493,2,2.25,2.01,3.24,1.85,3.0,1.04,-0.06,0.64,-2,-4,-1,1.04,7572,25,75,31,39,861,0.0,628,456,60,122.0,0,1,310,209,54,0,0,0,250,250,0,45.700375,4.90939,0.0,194.3,0,0.0,0,0.0,0.9283,1,0.0,6.2122
372750,1560684537513,0,2.25,2.01,3.24,1.84,3.0,1.03,-0.08,0.66,-2,-5,-1,1.03,7631,25,75,31,40,861,0.0,627,456,60,122.0,0,1,317,210,60,0,0,0,250,250,0,,,,,,,,,,,,
372770,1560684537533,1,2.25,2.01,3.24,1.85,3.01,1.0,-0.04,0.67,-1,-5,-1,1.0,7687,26,75,31,41,861,0.0,633,458,60,121.0,0,1,325,212,60,0,0,0,250,250,0,,,,,,,,,,,,
372790,1560684537553,4,2.24,2.01,3.24,1.85,3.01,0.92,0.01,0.67,-1,-5,-0,0.92,7731,26,75,31,42,863,0.0,632,453,60,121.0,0,1,332,214,60,0,0,0,250,250,0,,,,,,,,,,,,
372810,1560684537573,6,2.24,2.01,3.24,1.85,3.0,0.86,-0.0,0.62,-0,-2,0,0.86,7832,26,75,31,42,869,0.0,638,458,60,122.0,0,1,332,214,60,0,0,0,250,250,0,,,,,,,,,,,,
372830,1560684537593,0,2.25,2.01,3.24,1.86,3.0,0.85,-0.05,0.58,-1,-1,0,0.85,7878,26,75,31,42,875,0.0,636,457,60,122.0,0,1,332,214,60,0,0,0,250,250,0,45.700375,4.90939,0.0,194.3,0,0.0,0,0.0,0.93,1,0.0,6.2138
372850,1560684537613,3,2.25,2.0,3.24,1.85,3.01,0.89,-0.0,0.63,-1,1,-0,0.89,7978,26,75,31,42,880,0.0,640,456,60,121.0,0,1,332,214,64,0,0,0,250,250,0,,,,,,,,,,,,
372870,1560684537633,6,2.25,2.01,3.24,1.85,3.0,0.82,-0.01,0.58,-0,1,0,0.82,8081,27,75,31,42,885,0.0,640,458,60,121.0,0,1,333,214,64,0,0,0,250,250,0,,,,,,,,,,,,
372890,1560684537653,1,2.25,2.01,3.23,1.85,3.0,0.82,-0.04,0.57,-0,0,0,0.82,8116,27,75,31,41,900,0.0,638,454,60,122.0,0,1,326,213,64,0,0,0,250,250,0,,,,,,,,,,,,
372910,1560684537673,3,2.25,2.01,3.23,1.85,3.0,0.81,0.07,0.59,-0,0,1,0.82,8216,27,75,31,41,915,0.0,645,456,60,122.0,0,1,328,214,64,0,0,0,250,250,0,,,,,,,,,,,,
372930,1560684537694,1,2.25,2.01,3.24,1.84,3.0,0.89,-0.03,0.6,-1,0,1,0.89,8344,27,75,31,40,926,0.0,643,458,60,122.0,0,1,322,213,64,0,0,0,250,250,0,45.700375,4.90939,0.0,194.3,0,0.0,0,0.0,0.9317,1,0.0,6.2155
372950,1560684537714,5,2.25,2.0,3.24,1.86,3.0,0.84,-0.01,0.58,-1,1,1,0.84,8430,27,75,31,39,937,0.0,645,456,60,121.0,0,1,318,212,67,0,0,0,250,250,0,,,,,,,,,,,,
372970,1560684537734,3,2.24,2.01,3.24,1.85,2.99,0.92,-0.15,0.62,-1,-1,-0,0.93,8472,27,75,31,39,960,0.0,642,453,60,121.0,0,1,320,208,67,0,0,0,250,250,0,,,,,,,,,,,,
372990,1560684537754,1,2.25,2.0,3.23,1.85,3.0,0.91,-0.18,0.62,-1,-2,-0,0.92,8565,27,75,31,38,984,0.0,648,459,60,122.0,0,1,317,209,67,0,0,0,250,250,0,,,,,,,,,,,,
373010,1560684537774,-1,2.26,2.01,3.23,1.84,3.0,0.79,-0.02,0.54,-0,-0,0,0.79,8672,27,75,31,38,1000,0.0,664,452,60,122.0,0,1,317,209,67,0,0,0,250,250,0,,,,,,,,,,,,
373030,1560684537793,3,2.25,2.01,3.24,1.84,3.0,0.75,-0.01,0.51,-0,1,0,0.75,8724,27,75,31,37,1012,0.0,655,456,60,120.0,0,1,314,205,67,0,0,0,250,250,0,45.700375,4.90939,0.0,194.3,0,0.0,0,0.0,0.9333,1,0.0,6.2172
373050,1560684537813,3,2.25,2.01,3.23,1.86,3.0,0.75,-0.05,0.52,-0,1,-0,0.75,8794,27,75,31,37,1033,0.0,646,453,60,121.0,0,1,314,205,68,0,0,0,250,250,0,,,,,,,,,,,,
373070,1560684537833,2,2.26,2.01,3.23,1.85,3.01,0.85,-0.12,0.58,-0,2,-1,0.86,8840,27,75,31,36,1053,0.0,656,457,60,121.0,0,1,311,202,68,0,0,0,250,250,0,,,,,,,,,,,,
373090,1560684537853,1,2.26,2.01,3.24,1.84,3.01,0.95,-0.21,0.63,-0,1,-1,0.98,8873,27,75,31,36,1064,0.0,648,455,60,121.0,0,1,311,202,68,0,0,0,250,250,0,,,,,,,,,,,,
373110,1560684537873,3,2.25,2.01,3.24,1.84,3.0,1.04,-0.26,0.69,-1,0,-0,1.07,8890,27,75,31,36,1071,0.0,649,453,60,122.0,0,1,311,202,68,0,0,0,250,250,0,,,,,,,,,,,,
373130,1560684537893,1,2.26,2.01,3.24,1.85,3.0,1.07,-0.27,0.72,-1,-1,-0,1.1,8903,27,75,31,35,1077,0.0,649,458,60,122.0,0,1,308,202,68,0,0,0,250,250,0,45.700375,4.90939,0.0,194.3,0,0.0,0,0.0,0.935,1,0.0,6.2188
373150,1560684537913,1,2.25,2.01,3.24,1.86,3.0,1.05,-0.23,0.68,-1,-1,0,1.07,8915,27,75,31,36,1084,0.0,653,452,60,122.0,0,1,311,202,68,0,0,0,250,250,0,,,,,,,,,,,,
373170,1560684537933,0,2.24,2.01,3.24,1.85,3.0,0.99,-0.16,0.64,-1,-2,1,1.0,8924,27,75,31,35,1084,0.0,648,456,60,122.0,0,1,308,198,68,0,0,0,250,250,0,,,,,,,,,,,,
373190,1560684537953,1,2.25,2.01,3.23,1.86,3.0,0.9,-0.02,0.58,-0,-1,2,0.9,8928,27,75,31,35,1082,0.0,658,447,60,121.0,0,1,308,198,68,0,0,0,250,250,0,,,,,,,,,,,,
373210,1560684537973,0,2.25,2.0,3.24,1.85,3.0,0.78,0.08,0.53,-0,-2,2,0.78,8915,27,75,31,35,1085,0.0,654,451,60,120.0,0,1,308,198,68,0,0,0,250,250,0,,,,,,,,,,,,
373230,1560684537993,0,2.24,2.01,3.24,1.86,2.99,0.69,0.22,0.4,0,-0,3,0.72,8907,27,75,31,35,1090,0.0,654,450,60,121.0,0,1,308,198,68,0,0,0,250,250,0,45.700375,4.90939,0.0,194.3,0,0.0,0,0.0,0.935,1,0.0,6.2205
373250,1560684538007,5,2.24,2.01,3.24,1.85,3.0,0.59,0.3,0.33,0,1,3,0.67,8907,27,75,31,35,1096,0.0,652,453,60,121.0,0,1,308,198,66,0,0,0,250,250,0,,,,,,,,,,,,
373270,1560684538027,5,2.24,2.0,3.24,1.85,3.0,0.58,0.33,0.29,1,2,3,0.66,8907,26,75,31,35,1102,0.0,654,450,60,120.0,0,1,308,198,66,0,0,0,250,250,0,,,,,,,,,,,,
373290,1560684538047,4,2.25,2.01,3.24,1.85,3.0,0.58,0.31,0.28,1,3,2,0.66,8877,25,75,31,34,1113,0.0,651,459,60,121.0,0,1,305,195,66,0,0,0,250,250,0,,,,,,,,,,,,
373310,1560684538067,4,2.25,2.0,3.24,1.85,3.0,0.65,0.2,0.3,1,3,2,0.68,8907,23,75,31,33,1125,0.0,651,461,60,121.0,0,1,302,191,66,0,0,0,250,250,0,,,,,,,,,,,,
373330,1560684538093,1,2.25,2.01,3.24,1.85,3.0,0.7,0.11,0.36,0,3,1,0.71,8877,22,75,31,32,1135,0.0,651,461,60,121.0,0,1,300,188,66,0,0,0,250,250,0,45.700375,4.90939,0.0,194.3,0,0.0,0,0.0,0.9383,1,0.0,6.2222
373350,1560684538113,3,2.25,2.01,3.24,1.86,3.0,0.81,-0.05,0.45,0,3,-0,0.81,8856,22,75,31,31,1141,0.0,652,457,60,121.0,0,1,295,188,63,0,0,0,250,250,0,,,,,,,,,,,,
373370,1560684538133,2,2.25,2.01,3.24,1.85,3.0,0.88,-0.15,0.52,-0,3,-1,0.89,8823,22,75,31,30,1147,0.0,650,456,60,121.0,0,1,291,188,63,0,0,0,250,250,0,,,,,,,,,,,,
373390,1560684538153,1,2.25,2.01,3.23,1.86,3.0,0.95,-0.25,0.55,-0,2,-1,0.98,8786,22,75,31,30,1152,0.0,651,458,60,122.0,0,1,291,188,63,0,0,0,250,250,0,,,,,,,,,,,,
373410,1560684538173,-2,2.25,2.01,3.23,1.86,3.01,1.01,-0.29,0.6,-0,2,-1,1.05,8741,21,75,31,30,1156,0.0,656,461,60,122.0,0,1,291,188,63,0,0,0,250,250,0,,,,,,,,,,,,
373430,1560684538193,18,2.25,2.01,3.24,1.86,3.0,1.03,-0.25,0.63,-0,2,-0,1.06,8688,21,75,31,29,1156,0.0,658,450,60,121.0,0,1,287,188,63,0,0,0,250,250,0,45.700375,4.90939,0.0,194.3,0,0.0,0,0.0,0.94,1,0.0,6.2238
373450,1560684538213,4,2.24,2.0,3.22,1.84,3.0,0.92,-0.2,0.62,0,1,-0,0.94,8628,21,75,31,29,1149,0.0,658,457,60,120.0,0,1,287,188,62,0,0,0,250,250,0,,,,,,,,,,,,
373470,1560684538233,3,2.24,2.01,3.24,1.85,3.01,0.89,-0.19,0.6,0,-1,-0,0.91,8589,21,75,31,29,1134,0.0,645,458,60,122.0,0,1,287,188,62,0,0,0,250,250,0,,,,,,,,,,,,
373490,1560684538253,-1,2.25,2.01,3.24,1.85,3.01,0.95,-0.26,0.65,0,-0,0,0.98,8549,21,75,31,29,1119,0.0,643,459,60,122.0,0,1,287,188,62,0,0,0,250,250,0,,,,,,,,,,,,
373510,1560684538273,4,2.24,2.01,3.24,1.85,3.01,0.91,-0.24,0.66,0,0,0,0.94,8472,21,75,31,29,1104,0.0,640,457,60,120.0,0,1,286,184,62,0,0,0,250,250,0,,,,,,,,,,,,
373530,1560684538293,2,2.24,2.01,3.24,1.85,3.01,0.93,-0.23,0.64,-0,-0,-0,0.95,8370,21,75,31,29,1084,0.0,638,455,60,121.0,0,1,285,181,62,0,0,0,250,250,0,45.700375,4.90939,0.0,194.3,0,0.0,0,0.0,0.9417,1,0.0,6.2255
373550,1560684538313,5,2.24,1.99,3.23,1.85,2.99,0.91,-0.23,0.69,0,-0,-0,0.94,8303,21,75,31,29,1050,0.0,639,458,60,122.0,0,1,284,179,57,0,0,0,250,250,0,,,,,,,,,,,,
373570,1560684538333,3,2.25,2.01,3.24,1.86,3.0,0.85,-0.14,0.63,0,1,-0,0.86,8270,21,75,31,29,1021,0.0,648,459,60,121.0,0,1,284,177,57,0,0,0,250,250,0,,,,,,,,,,,,
373590,1560684538353,5,2.24,2.01,3.23,1.85,3.0,0.86,-0.15,0.61,1,2,0,0.87,8209,21,75,31,29,1003,0.0,647,457,60,122.0,0,1,283,174,57,0,0,0,250,250,0,,,,,,,,,,,,
373610,1560684538373,2,2.24,2.01,3.23,1.85,3.0,0.88,-0.12,0.58,1,2,-0,0.89,8120,21,76,31,30,985,0.0,637,453,60,122.0,0,1,285,171,57,0,0,0,250,250,0,,,,,,,,,,,,
373630,1560684538392,2,2.25,2.01,3.24,1.85,3.01,0.87,-0.11,0.58,1,2,0,0.87,8054,21,76,31,30,961,0.0,651,456,60,121.0,0,1,285,168,57,0,0,0,250,250,0,45.700375,4.90939,0.0,194.3,0,0.0,0,0.0,0.9433,1,0.0,6.2272
373650,1560684538412,1,2.24,2.01,3.23,1.85,3.0,0.92,-0.12,0.58,0,2,0,0.92,8026,21,76,31,30,937,0.0,636,460,60,122.0,0,1,284,167,50,0,0,0,250,250,0,,,,,,,,,,,,
373670,1560684538432,0,2.25,2.01,3.23,1.85,3.0,0.93,-0.08,0.57,-0,2,-0,0.94,7948,21,76,31,31,930,0.0,631,456,60,121.0,0,1,287,167,50,0,0,0,250,250,0,,,,,,,,,,,,
373690,1560684538452,3,2.25,2.0,3.24,1.85,3.0,0.9,-0.08,0.6,-0,2,0,0.9,7881,21,76,31,31,924,0.0,643,456,60,120.0,0,1,286,167,50,0,0,0,250,250,0,,,,,,,,,,,,
373710,1560684538472,5,2.24,2.01,3.24,1.84,3.01,0.91,-0.06,0.61,0,3,0,0.91,7881,21,76,31,31,919,0.0,636,456,60,122.0,0,1,286,169,50,0,0,0,250,250,0,,,,,,,,,,,,
373730,1560684538494,-1,2.25,2.01,3.23,1.86,3.0,0.99,-0.05,0.57,-0,2,-1,0.99,7796,21,76,31,32,914,0.0,630,456,60,122.0,0,1,290,169,50,0,0,0,250,250,0,45.700375,4.90939,0.0,194.3,0,0.0,0,0.0,0.945,1,0.0,6.2288
373750,1560684538514,-0,2.25,2.01,3.23,1.84,3.01,1.01,0.03,0.53,-1,2,-1,1.01,7757,21,76,31,33,915,0.0,632,457,60,121.0,0,1,292,169,50,0,0,0,250,250,0,,,,,,,,,,,,
373770,1560684538534,2,2.25,2.01,3.23,1.86,3.0,0.95,0.03,0.52,-1,1,0,0.95,7693,21,76,31,33,917,0.0,629,455,60,122.0,0,1,292,174,50,0,0,0,250,250,0,,,,,,,,,,,,
373790,1560684538554,2,2.24,2.01,3.23,1.84,3.0,0.81,0.06,0.49,-1,0,-1,0.81,7615,21,76,31,34,917,0.0,642,458,60,121.0,0,1,295,179,50,0,0,0,250,250,0,,,,,,,,,,,,
373810,1560684538574,3,2.25,2.01,3.23,1.86,3.01,0.72,0.11,0.43,0,1,-0,0.73,7591,21,76,31,34,918,0.0,634,457,60,120.0,0,1,295,179,50,0,0,0,250,250,0,,,,,,,,,,,,
373830,1560684538592,4,2.24,2.01,3.23,1.86,3.0,0.68,0.04,0.43,0,1,1,0.68,7557,21,76,31,34,918,0.0,633,454,60,120.0,0,1,295,179,50,0,0,0,250,250,0,45.700375,4.90939,0.0,194.3,0,0.0,0,0.0,0.9467,1,0.0,6.2305
373850,1560684538612,2,2.25,2.01,3.23,1.85,3.0,0.65,0.05,0.44,1,2,0,0.65,7572,21,76,31,35,917,0.0,633,458,60,120.0,0,1,298,185,51,0,0,0,250,250,0,,,,,,,,,,,,
373870,1560684538632,4,2.25,2.01,3.24,1.85,3.01,0.56,0.01,0.41,2,3,-0,0.56,7506,21,76,31,35,915,0.0,638,457,60,121.0,0,1,298,185,51,0,0,0,250,250,0,,,,,,,,,,,,
373890,1560684538652,3,2.25,2.01,3.24,1.85,3.01,0.51,0.0,0.41,2,4,-0,0.51,7530,21,76,31,35,911,0.0,633,459,60,121.0,0,1,298,191,51,0,0,0,250,250,0,,,,,,,,,,,,
373910,1560684538672,3,2.25,2.01,3.24,1.85,3.01,0.51,-0.04,0.37,3,4,0,0.52,7500,21,76,31,36,909,0.0,640,457,60,121.0,0,1,301,191,51,0,0,0,250,250,0,,,,,,,,,,,,
373930,1560684538692,4,2.25,2.01,3.23,1.86,3.0,0.53,-0.04,0.34,3,4,1,0.53,7494,21,76,31,36,906,0.0,642,459,60,120.0,0,1,301,190,51,0,0,0,250,250,0,45.700375,4.90939,0.0,194.3,0,0.0,0,0.0,0.9483,1,0.0,6.2322
373950,1560684538712,4,2.24,2.01,3.23,1.85,3.0,0.47,-0.09,0.34,4,4,0,0.48,7455,21,76,31,37,904,0.0,635,458,60,121.0,0,1,304,196,54,0,0,0,250,250,0,,,,,,,,,,,,
373970,1560684538732,-0,2.25,2.01,3.24,1.85,3.01,0.41,-0.07,0.34,4,5,0,0.42,7494,22,76,31,37,902,0.0,626,457,60,121.0,0,1,304,196,54,0,0,0,250,250,0,,,,,,,,,,,,
373990,1560684538752,4,2.24,2.01,3.24,1.85,3.01,0.41,-0.11,0.27,4,6,0,0.42,7470,22,76,31,37,901,0.0,638,454,60,121.0,0,1,304,202,54,0,0,0,250,250,0,,,,,,,,,,,,
374010,1560684538772,4,2.24,2.01,3.23,1.86,3.0,0.41,-0.08,0.24,5,7,-0,0.41,7509,22,76,31,38,901,0.0,628,456,60,121.0,0,1,307,202,54,0,0,0,250,250,0,,,,,,,,,,,,
374030,1560684538792,4,2.24,2.01,3.23,1.86,3.0,0.36,-0.11,0.19,5,9,-0,0.37,7503,22,76,31,38,903,0.0,631,457,60,120.0,0,1,307,203,54,0,0,0,250,250,0,45.700375,4.90939,0.0,194.3,0,0.0,0,0.0,0.95,1,0.0,6.2338
374050,1560684538812,3,2.25,2.02,3.23,1.86,3.0,0.33,-0.06,0.18,5,9,0,0.34,7524,22,76,31,39,907,0.0,627,458,60,121.0,0,1,310,202,57,0,0,0,250,250,0,,,,,,,,,,,,
374070,1560684538832,4,2.25,2.01,3.24,1.86,3.0,0.33,-0.1,0.15,5,8,0,0.34,7506,23,76,31,39,910,0.0,636,455,60,121.0,0,1,310,209,57,0,0,0,250,250,0,,,,,,,,,,,,
374090,1560684538852,4,2.25,2.01,3.23,1.86,3.0,0.35,-0.08,0.16,5,8,-0,0.36,7545,23,76,31,39,914,0.0,637,458,60,121.0,0,1,310,209,57,0,0,0,250,250,0,,,,,,,,,,,,
374110,1560684538872,4,2.25,2.01,3.24,1.85,3.01,0.31,-0.12,0.15,6,9,-0,0.34,7554,23,76,31,39,922,0.0,631,457,60,121.0,0,1,310,209,57,0,0,0,250,250,0,,,,,,,,,,,,
374130,1560684538894,5,2.24,2.01,3.24,1.85,3.0,0.31,-0.14,0.15,6,9,1,0.34,7612,23,76,31,39,933,0.0,642,461,60,121.0,0,1,310,209,57,0,0,0,250,250,0,45.700375,4.90939,0.0,194.3,0,0.0,0,0.0,0.9517,1,0.0,6.2355
374150,1560684538914,5,2.25,2.01,3.23,1.86,3.01,0.38,-0.17,0.17,6,9,1,0.41,7609,23,76,31,40,941,0.0,636,454,60,122.0,0,1,317,210,60,0,0,0,250,250,0,,,,,,,,,,,,
374170,1560684538934,0,2.25,2.01,3.23,1.86,3.0,0.54,-0.16,0.19,5,8,0,0.56,7674,23,76,31,39,948,0.0,628,457,60,122.0,0,1,310,209,60,0,0,0,250,250,0,,,,,,,,,,,,
374190,1560684538954,-0,2.24,2.01,3.24,1.86,3.01,0.66,-0.17,0.24,4,7,-0,0.68,7693,23,76,31,39,957,0.0,627,454,60,122.0,0,1,310,210,60,0,0,0,250,250,0,,,,,,,,,,,,
374210,1560684538974,3,2.25,2.0,3.24,1.85,3.0,0.71,-0.12,0.27,3,7,-1,0.72,7760,23,76,31,39,967,0.0,633,457,60,122.0,0,1,310,209,60,0,0,0,250,250,0,,,,,,,,,,,,
374230,1560684538994,1,2.25,2.01,3.24,1.85,3.01,0.67,-0.1,0.26,3,5,0,0.68,7770,23,76,31,39,974,0.0,625,455,60,121.0,0,1,310,209,60,0,0,0,250,250,0,45.700375,4.90939,0.0,194.3,0,0.0,0,0.0,0.9517,1,0.0,6.2372
374250,1560684539006,5,2.24,2.01,3.23,1.85,3.0,0.52,-0.07,0.26,3,5,-0,0.52,7815,23,76,31,39,977,0.0,638,458,60,121.0,0,1,310,209,61,0,0,0,250,250,0,,,,,,,,,,,,
374270,1560684539026,20,2.24,2.01,3.24,1.85,3.0,0.47,-0.08,0.35,4,6,-0,0.48,7858,23,76,31,39,980,0.0,640,456,60,122.0,0,1,310,209,61,0,0,0,250,250,0,,,,,,,,,,,,
374290,1560684539046,0,2.24,2.01,3.23,1.86,2.99,0.56,-0.11,0.34,3,5,0,0.57,7861,23,76,31,39,983,0.0,630,456,60,122.0,0,1,310,209,61,0,0,0,250,250,0,,,,,,,,,,,,
374310,1560684539066,3,2.25,2.01,3.23,1.85,2.99,0.62,-0.1,0.37,3,4,-1,0.63,7914,24,76,31,39,984,0.0,643,459,60,121.0,0,1,310,209,61,0,0,0,250,250,0,,,,,,,,,,,,
374330,1560684539094,5,2.24,2.01,3.23,1.86,3.0,0.58,-0.05,0.4,3,2,0,0.59,7958,24,76,31,39,983,0.0,639,458,60,120.0,0,1,310,209,61,0,0,0,250,250,0,45.700375,4.90939,0.0,194.3,0,0.0,0,0.0,0.955,1,0.0,6.2388
374350,1560684539114,0,2.25,2.01,3.23,1.86,3.0,0.64,-0.16,0.5,3,2,-0,0.66,7955,24,76,31,38,981,0.0,636,452,60,122.0,0,1,307,203,61,0,0,0,250,250,0,,,,,,,,,,,,
374370,1560684539134,1,2.25,2.0,3.22,1.85,2.99,0.73,-0.14,0.57,2,0,-1,0.74,8012,24,76,31,38,981,0.0,638,455,60,122.0,0,1,307,204,61,0,0,0,250,250,0,,,,,,,,,,,,
374390,1560684539154,4,2.25,2.02,3.23,1.86,3.0,0.71,-0.12,0.54,2,-1,-0,0.72,8026,24,76,31,38,981,0.0,645,458,60,120.0,0,1,307,204,61,0,0,0,250,250,0,,,,,,,,,,,,
374410,1560684539174,-1,2.25,2.01,3.23,1.86,2.99,0.75,-0.22,0.63,2,-2,-0,0.78,8026,24,76,31,38,983,0.0,647,456,60,122.0,0,1,307,204,61,0,0,0,250,250,0,,,,,,,,,,,,
374430,1560684539194,1,2.25,2.01,3.23,1.85,2.99,0.79,-0.16,0.67,2,-2,-1,0.81,8054,24,76,31,38,983,0.0,646,460,60,121.0,0,1,307,204,61,0,0,0,250,250,0,45.700375,4.90939,0.0,194.3,0,0.0,0,0.0,0.9567,1,0.0,6.2405
374450,1560684539214,3,2.25,2.01,3.23,1.86,2.99,0.74,-0.14,0.61,2,-3,-1,0.75,8095,25,76,31,38,981,0.0,637,459,60,121.0,0,1,308,204,62,0,0,0,250,250,0,,,,,,,,,,,,
374470,1560684539234,0,2.24,2.01,3.24,1.86,3.0,0.77,-0.19,0.62,2,-2,-1,0.8,8092,25,76,31,38,980,0.0,631,455,60,122.0,0,1,308,204,62,0,0,0,250,250,0,,,,,,,,,,,,
374490,1560684539254,4,2.25,2.01,3.23,1.86,2.99,0.77,-0.13,0.59,2,-2,-0,0.78,8095,25,76,31,38,978,0.0,650,456,60,121.0,0,1,308,198,62,0,0,0,250,250,0,,,,,,,,,,,,
374510,1560684539274,-2,2.25,2.01,3.24,1.85,3.0,0.72,-0.13,0.6,2,-2,-0,0.73,8148,25,76,31,38,975,0.0,640,457,60,122.0,0,1,309,204,62,0,0,0,250,250,0,,,,,,,,,,,,
374530,1560684539294,1,2.25,2.01,3.23,1.86,3.0,0.78,-0.08,0.59,2,-3,-0,0.79,8102,25,76,31,37,972,0.0,637,455,60,122.0,0,1,306,204,62,0,0,0,250,250,0,45.700375,4.90939,0.0,194.3,0,0.0,0,0.0,0.9583,1,0.0,6.2422
374550,1560684539314,6,2.25,2.02,3.23,1.85,3.0,0.72,-0.06,0.6,2,-2,-0,0.72,8081,25,76,31,38,969,0.0,641,457,60,121.0,0,1,308,204,61,0,0,0,250,250,0,,,,,,,,,,,,
374570,1560684539334,1,2.26,2.01,3.23,1.85,3.0,0.73,-0.11,0.62,2,-1,-1,0.73,8088,25,76,31,38,968,0.0,637,458,60,122.0,0,1,308,204,61,0,0,0,250,250,0,,,,,,,,,,,,
374590,1560684539354,2,2.26,2.02,3.22,1.86,2.99,0.7,-0.05,0.57,2,-1,-0,0.7,8009,25,76,31,38,967,0.0,645,455,60,121.0,0,1,307,204,61,0,0,0,250,250,0,,,,,,,,,,,,
374610,1560684539374,5,2.26,2.02,3.23,1.86,2.99,0.58,-0.06,0.65,2,-0,-0,0.59,7928,25,76,31,38,970,0.0,647,459,60,121.0,0,1,307,203,61,0,0,0,250,250,0,,,,,,,,,,,,
374630,1560684539393,1,2.26,2.02,3.22,1.87,2.99,0.62,-0.11,0.68,2,-0,-1,0.63,7891,25,76,31,38,974,0.0,634,457,60,122.0,0,1,307,203,61,0,0,0,250,250,0,45.700375,4.90939,0.0,194.3,0,0.0,0,0.0,0.96,1,0.0,6.2438
374650,1560684539413,2,2.25,2.04,3.22,1.86,2.98,0.7,-0.07,0.69,1,-2,-0,0.71,7735,25,76,31,39,977,0.0,638,458,60,122.0,0,1,310,209,61,0,0,0,250,250,0,,,,,,,,,,,,
374670,1560684539433,2,2.26,2.05,3.22,1.88,2.98,0.69,-0.02,0.78,1,-2,-2,0.69,7594,25,76,31,40,982,0.0,626,457,60,122.0,0,1,317,210,61,0,0,0,250,250,0,,,,,,,,,,,,
374690,1560684539453,-0,2.26,2.07,3.19,1.9,2.96,0.71,0.01,0.76,1,-2,-1,0.71,7355,25,76,31,41,988,0.0,616,454,60,121.0,0,1,325,211,61,0,0,0,250,250,0,,,,,,,,,,,,
374710,1560684539473,-0,2.25,2.1,3.18,1.93,2.94,0.74,0.01,0.81,0,-0,-0,0.74,7110,25,76,31,42,994,0.0,618,453,60,122.0,0,1,332,213,61,0,0,0,250,250,0,,,,,,,,,,,,
374730,1560684539493,4,2.26,2.12,3.17,1.96,2.93,0.85,-0.09,0.92,-0,-2,-0,0.85,6791,25,76,31,43,997,0.0,637,461,60,121.0,0,1,338,214,61,0,0,0,250,250,0,45.700375,4.90939,0.0,194.3,0,0.0,0,0.0,0.9617,1,0.0,6.2455
374750,1560684539513,-0,2.26,2.14,3.15,1.98,2.91,0.65,-0.0,0.77,1,-2,-1,0.65,6524,25,76,31,45,1000,0.0,601,455,60,122.0,0,1,351,217,54,0,0,0,250,250,0,,,,,,,,,,,,
374770,1560684539533,-2,2.27,2.16,3.15,2.0,2.91,0.66,-0.08,0.76,-0,-0,-1,0.66,6262,26,76,31,47,1000,0.0,580,455,60,121.0,0,1,362,219,54,0,0,0,250,250,0,,,,,,,,,,,,
374790,1560684539553,-0,2.26,2.17,3.14,2.03,2.91,0.74,-0.06,0.77,-0,0,-2,0.74,5992,26,76,31,49,1000,0.0,552,453,60,122.0,0,1,365,229,54,0,0,17,250,250,0,,,,,,,,,,,,
374810,1560684539573,-1,2.28,2.18,3.14,2.04,2.9,0.84,-0.02,0.75,1,-1,-2,0.84,5714,26,76,31,51,999,0.0,532,449,60,123.0,0,1,352,237,54,0,0,17,250,250,0,,,,,,,,,,,,
374830,1560684539593,4,2.28,2.19,3.14,2.04,2.91,0.92,0.08,0.72,-0,-0,-2,0.92,5447,26,76,31,53,997,22.0,511,447,60,123.0,0,1,335,242,54,0,0,17,-1,5442,22,45.700371,4.909386,1.91,200.8,0,0.0,0,0.0,0.9633,1,0.0,6.2472
374850,1560684539613,-2,2.28,2.2,3.15,2.04,2.92,0.78,0.01,0.78,-1,2,-2,0.78,5202,26,76,31,57,993,22.0,478,467,60,122.0,2227,1,315,251,49,0,0,17,-1,5442,22,,,,,,,,,,,,
374870,1560684539633,1,2.28,2.2,3.14,2.04,2.91,0.76,-0.0,0.74,-1,-1,-1,0.76,4810,26,76,31,60,989,22.0,462,452,60,120.0,2227,1,296,262,49,0,0,32,-1,5442,22,,,,,,,,,,,,
374890,1560684539653,1,2.29,2.19,3.14,2.05,2.91,0.72,0.06,0.75,-0,0,-1,0.72,4478,27,76,31,62,986,36.0,421,451,60,122.0,2227,1,293,271,49,0,0,32,-1,5442,36,,,,,,,,,,,,
374910,1560684539673,-0,2.29,2.2,3.14,2.04,2.9,0.72,0.05,0.76,0,-2,1,0.72,4243,28,76,31,65,984,36.0,391,448,60,120.0,2227,1,293,284,49,0,0,32,-1,-1,36,,,,,,,,,,,,
374930,1560684539693,0,2.28,2.2,3.15,2.04,2.91,0.71,0.04,0.79,0,-3,1,0.71,4089,30,76,31,68,987,36.0,374,462,60,123.0,2227,1,297,298,49,0,0,43,-1,-1,36,45.700371,4.909386,3.48,200.8,0,0.0,0,0.0,0.965,1,0.0,6.2488
374950,1560684539713,2,2.28,2.2,3.14,2.03,2.9,0.68,0.03,0.8,0,-1,-0,0.68,3888,32,76,31,70,993,46.0,348,452,60,122.0,1222,1,285,295,44,0,0,43,-1,-1,46,,,,,,,,,,,,
374970,1560684539733,-2,2.29,2.2,3.15,2.03,2.91,0.71,0.04,0.85,0,-3,1,0.71,3842,35,76,31,74,1000,46.0,352,453,60,121.0,1222,1,279,301,44,0,0,43,-1,-1,46,,,,,,,,,,,,
374990,1560684539753,0,2.29,2.19,3.15,2.03,2.9,0.67,0.01,0.8,0,-1,1,0.67,3762,38,76,31,77,1008,46.0,331,457,60,123.0,1222,1,270,311,44,0,0,50,-1,-1,46,,,,,,,,,,,,
375010,1560684539773,0,2.27,2.2,3.16,2.02,2.9,0.67,0.03,0.83,0,-3,0,0.67,3685,42,76,31,81,1021,51.0,340,452,60,121.0,1222,1,261,341,44,0,0,50,-1,-1,51,,,,,,,,,,,,
375030,1560684539793,0,2.28,2.19,3.15,2.03,2.9,0.65,0.03,0.76,0,0,0,0.65,3518,44,76,31,84,1039,51.0,321,456,60,122.0,1222,1,242,340,44,0,0,55,-1,-1,51,45.700375,4.909387,4.84,200.8,0,0.0,0,0.0,0.9667,1,0.0,6.2505
375050,1560684539813,3,2.29,2.19,3.16,2.02,2.9,0.66,0.0,0.78,0,-2,1,0.66,3378,46,76,31,88,1053,56.0,306,463,60,123.0,785,1,235,331,44,0,0,55,-1,-1,56,,,,,,,,,,,,
375070,1560684539833,3,2.28,2.19,3.16,2.03,2.9,0.69,0.03,0.87,0,-4,1,0.69,3269,46,76,31,89,1062,56.0,302,459,60,123.0,785,1,230,329,44,0,0,60,-1,-1,56,,,,,,,,,,,,
375090,1560684539853,5,2.28,2.19,3.16,2.03,2.9,0.7,0.0,0.88,0,-7,1,0.7,3127,47,76,31,91,1072,60.0,295,452,60,122.0,785,1,226,324,44,0,0,60,-1,-1,60,,,,,,,,,,,,
375110,1560684539873,5,2.28,2.19,3.16,2.03,2.9,0.7,0.02,0.86,0,-8,0,0.7,2943,49,76,31,92,1082,60.0,284,457,60,123.0,785,1,222,364,44,0,0,63,-1,-1,60,,,,,,,,,,,,
375130,1560684539895,-1,2.28,2.19,3.17,2.02,2.9,0.71,0.01,0.87,0,-11,0,0.71,2632,51,76,32,94,1088,64.0,253,461,60,122.0,785,1,222,359,44,0,0,63,250,-6656,64,45.700375,4.909388,5.6,200.8,0,0.0,0,0.0,0.9683,1,0.0,6.2522
375150,1560684539915,-0,2.28,2.19,3.17,2.02,2.91,0.69,0.0,0.89,-0,-9,1,0.69,2262,54,76,32,95,1088,64.0,240,452,60,119.0,515,1,216,383,33,0,0,67,250,-6656,64,,,,,,,,,,,,
375170,1560684539935,0,2.27,2.2,3.17,2.02,2.9,0.71,0.0,0.85,-0,-9,1,0.71,2093,55,76,32,96,1101,67.0,222,462,60,123.0,515,1,215,384,33,0,0,67,-1482,250,67,,,,,,,,,,,,
375190,1560684539955,-1,2.28,2.2,3.17,2.03,2.9,0.69,0.01,0.86,-0,-8,1,0.69,1909,55,76,32,97,1130,67.0,212,458,60,123.0,515,1,212,389,33,0,0,70,-1482,250,67,,,,,,,,,,,,
375210,1560684539975,2,2.28,2.2,3.18,2.02,2.91,0.71,0.0,0.86,-0,-7,0,0.71,1690,55,76,32,98,1157,71.0,197,457,60,123.0,515,1,207,389,33,0,0,70,14228,-1481,71,,,,,,,,,,,,
375230,1560684539995,-1,2.28,2.19,3.17,2.02,2.91,0.69,-0.01,0.89,-0,-6,-0,0.69,1456,55,76,32,98,1185,71.0,183,461,60,122.0,515,1,198,373,33,0,0,72,-24064,-1481,71,45.700375,4.909388,5.6,200.8,0,0.0,0,0.0,0.9683,1,0.0,6.2538
375250,1560684540007,0,2.28,2.19,3.18,2.02,2.91,0.74,-0.02,0.88,-0,-5,-1,0.74,1286,55,76,32,98,1217,73.0,173,460,60,122.0,273,1,191,359,20,0,0,72,-24064,14242,73,,,,,,,,,,,,
375270,1560684540027,0,2.29,2.18,3.18,2.0,2.92,0.77,-0.02,0.87,0,-6,-1,0.77,1241,55,76,32,98,1262,75.0,166,458,60,122.0,273,1,189,356,20,0,0,74,14242,14242,75,,,,,,,,,,,,
375290,1560684540047,-1,2.29,2.17,3.18,1.99,2.93,0.73,-0.03,0.85,-0,-8,-1,0.73,1241,57,76,32,98,1302,75.0,162,453,60,119.0,273,1,189,356,20,0,0,75,14242,14242,75,,,,,,,,,,,,
375310,1560684540067,2,2.29,2.17,3.19,1.98,2.94,0.71,-0.0,0.8,0,-6,-2,0.71,1205,58,76,32,98,1321,75.0,161,458,60,123.0,273,1,188,353,20,0,0,75,-1481,-1481,75,,,,,,,,,,,,
375330,1560684540087,0,2.29,2.17,3.19,1.98,2.94,0.72,-0.01,0.75,-0,-6,-2,0.72,1260,58,76,32,98,1343,75.0,169,458,60,123.0,273,1,190,380,20,0,0,74,-1481,-1481,75,45.700378,4.909389,6.64,200.7,0,0.0,0,0.0,0.97,1,0.0,6.2555
375350,1560684540110,2,2.29,2.16,3.19,1.97,2.94,0.7,-0.03,0.75,0,-6,-2,0.7,1501,59,76,32,98,1381,75.0,177,461,60,123.0,280,1,200,377,21,0,0,74,-1481,-1481,75,,,,,,,,,,,,
375370,1560684540130,3,2.29,2.16,3.2,1.97,2.95,0.7,-0.05,0.7,0,-3,0,0.7,1563,59,76,32,98,1419,76.0,177,457,60,123.0,280,1,202,380,21,0,0,75,250,-1481,75,,,,,,,,,,,,
375390,1560684540150,3,2.29,2.16,3.2,1.98,2.94,0.67,-0.05,0.7,0,-2,2,0.68,1533,59,76,32,98,1439,76.0,180,457,60,123.0,280,1,201,378,21,0,0,76,250,250,75,,,,,,,,,,,,
375410,1560684540170,6,2.28,2.16,3.2,1.97,2.95,0.7,-0.06,0.67,0,-0,5,0.7,1570,59,76,32,98,1458,76.0,180,456,60,122.0,280,1,202,380,21,0,0,76,250,250,76,,,,,,,,,,,,
375430,1560684540195,5,2.29,2.16,3.21,1.98,2.95,0.73,-0.05,0.68,-0,0,6,0.74,1482,59,76,32,98,1478,76.0,176,456,60,123.0,280,1,199,375,21,0,0,77,250,250,76,45.700382,4.909392,7.42,200.6,0,0.0,0,0.0,0.9733,1,0.0,6.2572
375450,1560684540215,4,2.28,2.16,3.21,1.97,2.94,0.73,-0.05,0.71,-0,-1,8,0.73,1439,59,76,32,98,1498,78.0,176,455,60,123.0,256,1,197,372,20,0,0,77,14256,-20480,78,,,,,,,,,,,,
375470,1560684540235,5,2.28,2.17,3.21,1.98,2.94,0.71,-0.06,0.75,-1,-2,8,0.71,1510,59,76,32,98,1498,79.0,179,453,60,123.0,256,1,200,377,20,0,0,79,-1481,250,78,,,,,,,,,,,,
375490,1560684540255,5,2.27,2.17,3.23,1.96,2.94,0.72,-0.08,0.75,-1,-2,10,0.72,1531,59,76,32,98,1498,79.0,179,455,60,123.0,256,1,201,378,20,0,0,79,-1481,250,78,,,,,,,,,,,,
375510,1560684540275,0,2.27,2.18,3.21,1.97,2.94,0.69,-0.07,0.74,-0,-1,12,0.69,1712,59,76,32,98,1498,80.0,183,455,60,120.0,256,1,208,380,20,0,0,79,250,250,80,,,,,,,,,,,,
375530,1560684540295,0,2.27,2.18,3.18,1.97,2.94,0.72,-0.06,0.71,-0,0,13,0.72,1760,59,76,32,97,1498,80.0,184,449,60,119.0,256,1,206,380,20,0,0,81,250,250,80,45.700382,4.909393,7.51,200.6,0,0.0,0,0.0,0.975,1,0.0,6.2588
375550,1560684540315,-0,2.27,2.17,3.16,1.97,2.96,0.74,-0.03,0.72,1,0,12,0.74,1716,59,76,32,98,1498,81.0,180,464,60,123.0,345,1,208,391,28,0,0,81,-16896,-1481,81,,,,,,,,,,,,
375570,1560684540335,-2,2.28,2.16,3.16,1.97,2.96,0.74,-0.02,0.77,1,-1,10,0.74,1760,59,76,32,99,1498,83.0,186,455,60,123.0,345,1,214,394,28,0,0,81,14270,14270,83,,,,,,,,,,,,
375590,1560684540355,2,2.27,2.14,3.16,1.97,2.94,0.73,-0.03,0.81,1,-0,8,0.73,1802,59,76,32,98,1498,83.0,193,461,60,121.0,345,1,212,426,28,0,0,82,14270,14270,83,,,,,,,,,,,,
375610,1560684540375,0,2.27,2.14,3.17,1.96,2.94,0.74,-0.05,0.79,1,-1,6,0.74,2036,59,76,32,98,1498,83.0,200,455,60,120.0,345,1,221,413,28,0,0,82,14270,-1481,83,,,,,,,,,,,,
375630,1560684540394,-1,2.28,2.12,3.2,1.98,2.95,0.79,-0.06,0.73,1,-1,6,0.79,2116,59,77,32,98,1498,83.0,200,462,60,121.0,345,1,224,419,28,0,0,83,-1481,-1481,83,45.700386,4.909394,7.93,200.5,0,0.0,0,0.0,0.9767,1,0.0,6.2605
375650,1560684540414,-2,2.27,2.13,3.22,1.97,2.95,0.77,-0.06,0.74,0,-1,8,0.77,2118,59,77,32,98,1498,83.0,211,460,60,120.0,385,1,224,419,32,0,0,84,-1481,-1481,83,,,,,,,,,,,,
375670,1560684540434,-1,2.28,2.13,3.22,1.97,2.94,0.77,-0.04,0.74,0,-1,8,0.78,2067,59,77,32,97,1498,85.0,207,457,60,123.0,385,1,218,398,32,0,0,84,-13312,-13312,84,,,,,,,,,,,,
375690,1560684540454,1,2.27,2.15,3.2,1.98,2.94,0.72,-0.01,0.78,1,1,7,0.72,2025,59,77,32,98,1498,87.0,205,455,60,123.0,385,1,221,412,32,0,0,87,-1481,14298,87,,,,,,,,,,,,
375710,1560684540474,0,2.27,2.18,3.18,2.02,2.93,0.68,-0.01,0.8,1,1,7,0.68,2052,59,77,32,98,1498,87.0,210,457,60,121.0,385,1,222,414,32,0,0,92,-1481,14298,87,,,,,,,,,,,,
375730,1560684540494,-1,2.28,2.21,3.15,2.04,2.89,0.67,-0.02,0.82,1,2,7,0.67,1826,59,77,32,97,1498,92.0,199,453,60,122.0,385,1,209,384,32,0,0,97,-1481,-1481,92,45.700386,4.909396,8.34,200.5,0,0.0,0,0.0,0.9783,1,0.0,6.2622
375750,1560684540514,-0,2.26,2.22,3.11,2.07,2.86,0.7,-0.04,0.85,1,2,6,0.71,1820,59,77,32,98,1498,97.0,193,463,60,123.0,315,1,212,398,29,0,0,97,250,13736,97,,,,,,,,,,,,
375770,1560684540534,0,2.26,2.22,3.09,2.08,2.85,0.66,-0.02,0.87,1,1,4,0.66,1750,59,77,32,99,1498,100.0,190,457,60,123.0,315,1,214,422,29,0,0,100,250,13832,99,,,,,,,,,,,,
375790,1560684540554,2,2.26,2.22,3.1,2.06,2.85,0.65,-0.04,0.86,1,2,2,0.65,1725,59,77,32,99,1498,100.0,191,459,60,123.0,315,1,213,420,29,0,0,102,250,13832,99,,,,,,,,,,,,
375810,1560684540574,-0,2.27,2.21,3.13,2.05,2.87,0.66,-0.05,0.83,1,1,1,0.66,1783,59,77,32,98,1498,102.0,194,459,60,122.0,315,1,211,395,29,0,0,103,13832,13832,102,,,,,,,,,,,,
375830,1560684540594,-2,2.27,2.22,3.15,2.03,2.9,0.69,-0.07,0.78,1,-0,2,0.69,1921,59,77,32,97,1498,103.0,197,448,60,121.0,315,1,212,390,29,0,0,106,-1482,250,103,45.700386,4.909398,9.5,200.5,0,0.0,0,0.0,0.98,1,0.0,6.2638
375850,1560684540614,0,2.27,2.22,3.19,2.03,2.9,0.66,-0.04,0.81,1,1,3,0.66,1973,59,77,32,98,1498,105.0,197,453,60,123.0,281,1,218,409,29,0,0,106,3584,250,105,,,,,,,,,,,,
375870,1560684540634,3,2.27,2.21,3.23,2.01,2.9,0.66,-0.03,0.88,0,-1,1,0.66,1990,60,77,32,98,1498,108.0,201,461,60,123.0,281,1,219,410,29,0,0,109,250,250,106,,,,,,,,,,,,
375890,1560684540654,-1,2.27,2.21,3.22,2.01,2.91,0.69,-0.06,0.83,0,-3,0,0.69,2028,61,77,32,97,1498,110.0,205,453,60,123.0,281,1,217,396,29,0,0,110,13844,5120,106,,,,,,,,,,,,
375910,1560684540674,-0,2.27,2.21,3.22,2.0,2.9,0.67,-0.06,0.82,0,-1,0,0.67,2011,61,77,32,98,1498,110.0,203,457,60,122.0,281,1,220,411,29,0,0,110,13844,5120,109,,,,,,,,,,,,
375930,1560684540694,0,2.26,2.21,3.21,1.99,2.9,0.65,-0.04,0.88,0,-1,-1,0.65,2197,62,77,32,97,1498,111.0,208,456,60,119.0,281,1,222,424,29,0,0,111,-1482,-1482,111,45.700386,4.9094,10.37,200.4,0,0.0,0,0.0,0.9817,1,0.0,6.2655
375950,1560684540714,-1,2.27,2.21,3.21,2.0,2.89,0.65,-0.08,0.81,0,-3,-1,0.66,2269,63,77,32,98,1498,112.0,217,463,60,123.0,315,1,230,429,35,0,0,114,250,250,111,,,,,,,,,,,,
375970,1560684540734,-1,2.26,2.21,3.21,2.0,2.9,0.59,-0.08,0.82,0,-4,-1,0.6,2192,63,77,32,98,1498,114.0,218,457,60,119.0,315,1,227,430,35,0,0,116,13850,13850,113,,,,,,,,,,,,
375990,1560684540754,-2,2.26,2.21,3.21,2.0,2.9,0.64,-0.07,0.78,0,-3,1,0.64,2105,64,77,32,98,1498,116.0,211,463,60,122.0,315,1,224,418,35,0,0,116,250,250,115,,,,,,,,,,,,
376010,1560684540774,5,2.26,2.21,3.21,2.0,2.91,0.65,-0.05,0.81,0,-3,1,0.65,2064,65,77,32,98,1498,118.0,213,463,60,123.0,315,1,222,446,35,0,0,117,13856,13856,117,,,,,,,,,,,,
376030,1560684540794,-0,2.25,2.21,3.2,2.01,2.9,0.67,-0.04,0.77,0,-2,1,0.67,2248,67,77,32,98,1498,119.0,213,448,60,122.0,315,1,229,428,35,0,0,119,-1482,13856,118,45.70039,4.909402,11.1,200.4,0,0.0,0,0.0,0.9833,1,0.0,6.2672
376050,1560684540814,-1,2.25,2.21,3.21,2.0,2.9,0.72,-0.02,0.82,0,0,2,0.72,2374,69,77,32,98,1498,119.0,226,455,60,122.0,330,1,234,437,39,0,0,119,-1482,9728,119,,,,,,,,,,,,
376070,1560684540834,-2,2.27,2.21,3.2,2.0,2.9,0.75,-0.02,0.77,0,-3,2,0.75,2299,71,77,32,98,1496,121.0,218,465,60,122.0,330,1,231,431,39,0,0,122,9728,13862,121,,,,,,,,,,,,
376090,1560684540854,-0,2.26,2.21,3.2,2.0,2.9,0.74,-0.03,0.84,0,-3,2,0.74,2244,72,77,32,98,1486,123.0,224,457,60,122.0,330,1,229,428,39,0,0,123,-1482,250,121,,,,,,,,,,,,
376110,1560684540874,-0,2.25,2.21,3.2,2.01,2.9,0.82,-0.02,0.79,1,-3,1,0.82,2268,73,77,32,98,1476,125.0,220,463,60,123.0,330,1,230,429,39,0,0,124,11264,11264,123,,,,,,,,,,,,
376130,1560684540895,-0,2.25,2.21,3.2,2.02,2.91,0.79,0.01,0.84,1,-3,-0,0.79,2448,73,77,32,98,1466,125.0,227,455,60,119.0,330,1,237,442,39,0,0,125,11264,13868,124,45.700394,4.909404,11.89,200.3,0,0.0,0,0.0,0.985,1,0.0,6.2688
376150,1560684540915,1,2.25,2.21,3.19,2.02,2.91,0.78,0.01,0.72,1,-1,0,0.78,2512,74,77,32,98,1457,125.0,238,456,60,123.0,328,1,240,447,41,0,0,126,-202,-1,125,,,,,,,,,,,,
376170,1560684540935,-2,2.24,2.21,3.19,2.01,2.92,0.77,0.02,0.77,1,-3,0,0.78,2440,74,77,32,98,1450,127.0,230,463,60,122.0,328,1,237,441,41,0,0,129,-1,-1,127,,,,,,,,,,,,
376190,1560684540955,-0,2.24,2.21,3.17,2.02,2.92,0.82,0.05,0.81,1,-2,0,0.82,2398,74,77,32,98,1443,129.0,235,458,60,121.0,328,1,235,470,41,0,0,131,-1,-1,128,,,,,,,,,,,,
376210,1560684540975,-1,2.23,2.2,3.16,2.02,2.92,0.81,0.02,0.76,1,-4,-0,0.81,2381,74,77,32,99,1446,131.0,232,458,60,123.0,328,1,235,437,41,0,0,133,-1,-1,131,,,,,,,,,,,,
376230,1560684540995,-2,2.22,2.2,3.17,2.01,2.92,0.76,0.01,0.82,1,-2,-2,0.76,2557,74,77,32,98,1450,134.0,231,456,60,122.0,328,1,240,455,41,0,0,133,-1,-1,131,45.700394,4.909404,11.89,200.3,0,0.0,0,0.0,0.985,1,0.0,6.2705
376250,1560684541008,-0,2.22,2.19,3.17,2.01,2.92,0.83,0.01,0.78,0,0,-1,0.83,2608,74,77,32,98,1458,135.0,247,455,60,122.0,340,1,240,463,45,0,0,135,-1,-1,132,,,,,,,,,,,,
376270,1560684541028,4,2.21,2.18,3.17,2.01,2.92,0.76,0.03,0.73,0,-1,-1,0.76,2609,74,77,32,98,1467,138.0,246,456,60,123.0,340,1,240,463,45,0,0,137,-1,-1,134,,,,,,,,,,,,
376290,1560684541048,1,2.2,2.19,3.16,2.0,2.93,0.78,0.03,0.76,-0,-4,-2,0.78,2590,74,77,32,98,1474,140.0,236,465,60,122.0,340,1,240,460,45,0,0,140,250,-1281,137,,,,,,,,,,,,
376310,1560684541068,-0,2.2,2.2,3.13,2.03,2.94,0.72,0.04,0.78,0,-3,-1,0.72,2600,74,77,32,97,1480,141.0,240,454,60,122.0,340,1,235,462,45,0,0,143,5120,5120,138,,,,,,,,,,,,
376330,1560684541094,-1,2.2,2.2,3.13,2.06,2.93,0.73,0.02,0.8,-0,-2,-1,0.73,2665,74,77,32,98,1487,142.0,256,453,60,121.0,340,1,240,472,45,0,0,145,5140,250,139,45.700398,4.909409,13.09,200.2,0,0.0,0,0.0,0.9883,1,0.0,6.2722
376350,1560684541114,3,2.2,2.2,3.12,2.09,2.93,0.66,0.02,0.72,-0,0,-1,0.66,2632,74,77,32,98,1493,143.0,250,453,60,123.0,345,1,240,467,48,0,0,144,-236,5120,140,,,,,,,,,,,,
376370,1560684541134,1,2.19,2.19,3.13,2.1,2.93,0.72,0.01,0.75,-1,-3,-2,0.72,2658,74,77,32,98,1495,144.0,240,462,60,123.0,345,1,240,471,48,0,0,145,-1,5120,141,,,,,,,,,,,,
376390,1560684541154,0,2.18,2.19,3.13,2.0,2.94,0.72,0.06,0.81,-1,-4,-2,0.72,2714,74,77,32,97,1495,145.0,247,458,60,122.0,345,1,236,457,48,0,0,144,-1,-236,141,,,,,,,,,,,,
376410,1560684541174,-0,2.17,2.17,3.17,1.83,2.94,0.69,0.07,0.85,-1,-3,-3,0.7,2785,74,77,32,98,1497,145.0,259,453,60,120.0,345,1,240,490,48,0,0,149,-1,-1,143,,,,,,,,,,,,
376430,1560684541194,-1,2.18,2.16,3.19,1.78,2.91,0.72,0.09,0.82,-1,1,-3,0.73,2728,74,77,32,98,1497,154.0,260,453,60,120.0,345,1,240,481,48,0,0,150,23460,-1,144,45.700405,4.909411,14.1,200.2,0,0.0,0,0.0,0.99,1,0.0,6.2738
376450,1560684541214,6,2.17,2.14,3.18,1.77,2.85,0.72,0.07,0.74,-1,5,-4,0.73,2668,74,77,32,98,1497,155.0,252,455,60,122.0,335,1,240,472,49,0,0,152,-165,-1,146,,,,,,,,,,,,
376470,1560684541234,1,2.18,2.14,3.17,1.78,2.84,0.79,0.07,0.68,-2,1,-4,0.8,2689,74,77,32,98,1497,155.0,243,461,60,123.0,335,1,240,476,49,0,0,153,-165,-1,148,,,,,,,,,,,,
376490,1560684541254,-0,2.17,2.16,3.19,1.8,2.85,0.84,0.07,0.74,-2,-3,-5,0.85,2892,74,77,32,97,1497,154.0,253,457,60,123.0,335,1,236,482,49,0,0,153,23460,-1,147,,,,,,,,,,,,
376510,1560684541274,1,2.18,2.18,3.21,1.85,2.87,0.85,0.07,0.74,-3,-5,-4,0.85,2973,74,77,32,97,1497,153.0,262,459,60,123.0,335,1,237,494,49,0,0,153,-23552,-1,147,,,,,,,,,,,,
376530,1560684541294,-0,2.18,2.2,3.28,1.92,2.91,0.8,0.05,0.78,-4,-6,-3,0.8,2776,72,77,32,97,1497,155.0,257,462,60,122.0,335,1,236,466,49,0,0,154,-165,-1,148,45.700405,4.909414,14.12,200.1,0,0.0,0,0.0,0.9917,1,0.0,6.2755
376550,1560684541314,-2,2.19,2.22,3.28,1.95,2.97,0.78,0.04,0.78,-4,-5,-2,0.78,2658,70,77,32,97,1498,155.0,253,454,60,122.0,310,1,235,449,46,0,0,154,-165,-1281,149,,,,,,,,,,,,
376570,1560684541334,-0,2.18,2.24,3.29,1.97,3.01,0.73,0.04,0.74,-5,-2,-1,0.73,2943,69,77,32,97,1498,155.0,260,455,60,120.0,310,1,237,489,46,0,0,153,-165,-1,150,,,,,,,,,,,,
376590,1560684541354,-0,2.19,2.23,3.29,1.96,3.03,0.72,0.03,0.73,-5,1,-2,0.72,3003,69,77,32,97,1498,156.0,267,454,60,120.0,310,1,237,498,46,0,0,155,-1,-1281,149,,,,,,,,,,,,
376610,1560684541374,-0,2.19,2.22,3.28,1.95,3.03,0.72,0.05,0.69,-4,7,-2,0.72,2923,69,77,32,97,1498,155.0,269,453,60,122.0,310,1,236,473,46,0,0,156,-165,-23552,152,,,,,,,,,,,,
376630,1560684541395,0,2.19,2.2,3.23,1.94,3.01,0.73,0.05,0.61,-4,9,-2,0.73,2763,69,77,32,98,1498,158.0,257,453,60,122.0,310,1,240,487,46,0,0,156,-1,-23552,153,45.700409,4.909417,14.79,200.1,0,0.0,0,0.0,0.9933,1,0.0,6.2772
376650,1560684541415,4,2.2,2.2,3.2,1.93,2.98,0.76,0.04,0.59,-4,6,-3,0.76,2849,69,77,32,97,1498,158.0,258,460,60,123.0,339,1,236,476,52,0,0,156,-1,-23552,153,,,,,,,,,,,,
376670,1560684541435,5,2.19,2.19,3.19,1.93,2.96,0.73,0.02,0.64,-3,3,-4,0.73,3052,69,77,32,97,1498,158.0,270,456,60,122.0,339,1,237,512,52,0,0,157,-1,-165,153,,,,,,,,,,,,
376690,1560684541455,3,2.2,2.19,3.2,1.93,2.96,0.71,0.03,0.62,-3,3,-5,0.71,3007,69,77,32,97,1498,159.0,272,455,60,123.0,339,1,237,500,52,0,0,158,-1281,-165,152,,,,,,,,,,,,
376710,1560684541475,5,2.2,2.19,3.21,1.93,2.97,0.74,0.01,0.61,-3,2,-5,0.74,2914,69,77,32,97,1498,158.0,268,456,60,122.0,339,1,237,485,52,0,0,159,250,-165,153,,,,,,,,,,,,
376730,1560684541495,5,2.2,2.19,3.27,1.94,2.99,0.77,0.01,0.59,-3,2,-5,0.77,3028,69,77,32,97,1498,161.0,273,460,60,123.0,339,1,237,505,52,0,0,162,3072,-1,155,45.700413,4.90942,15.05,200.1,0,0.0,0,0.0,0.995,1,0.0,6.2788
376750,1560684541515,5,2.19,2.21,3.24,1.96,3.0,0.73,0.03,0.55,-3,1,-5,0.74,3049,69,77,32,97,1498,161.0,275,456,60,122.0,387,1,237,511,60,0,0,162,3072,-1,157,,,,,,,,,,,,
376770,1560684541535,0,2.2,2.21,3.01,1.99,3.0,0.72,0.09,0.54,-2,1,-6,0.73,3145,69,77,32,97,1498,164.0,287,452,60,122.0,387,1,238,537,60,0,0,162,250,3072,157,,,,,,,,,,,,
376790,1560684541555,-0,2.2,2.18,2.9,2.04,3.0,0.73,0.13,0.54,-1,2,-6,0.74,3220,69,77,32,96,1498,163.0,287,448,60,121.0,387,1,237,525,60,0,0,164,-1494,-1494,158,,,,,,,,,,,,
376810,1560684541575,-0,2.2,2.16,2.85,2.07,2.97,0.69,0.13,0.54,-1,4,-5,0.7,3190,69,77,32,96,1498,163.0,287,456,60,120.0,387,1,236,518,60,0,0,163,-1494,30720,163,,,,,,,,,,,,
376830,1560684541595,1,2.2,2.12,2.84,2.07,2.91,0.76,0.09,0.55,-1,5,-3,0.77,3228,69,77,32,96,1498,165.0,280,460,60,122.0,387,1,237,526,60,0,0,168,250,-1281,165,45.700417,4.909422,15.54,200.0,0,0.0,0,0.0,0.9967,1,0.0,6.2805
376850,1560684541615,0,2.2,2.11,2.86,2.1,2.93,0.79,0.1,0.65,-1,3,-2,0.79,3242,69,77,32,96,1498,166.0,287,463,60,123.0,393,1,237,530,65,0,0,168,888,-236,165,,,,,,,,,,,,
376870,1560684541635,5,2.2,2.11,2.91,2.12,2.93,0.81,0.07,0.72,-1,0,-3,0.81,3364,69,77,32,97,1498,170.0,301,455,60,122.0,393,1,239,595,65,0,0,172,-1,10620,168,,,,,,,,,,,,
376890,1560684541655,-0,2.21,2.14,2.98,2.14,2.96,0.71,0.06,0.66,-1,2,-3,0.72,3461,69,77,32,96,1498,173.0,314,448,60,120.0,393,1,239,621,65,0,0,178,31744,-1,172,,,,,,,,,,,,
376910,1560684541675,1,2.21,2.18,3.01,2.17,2.95,0.67,0.1,0.63,-2,3,-2,0.68,3494,69,77,32,96,1498,176.0,303,465,60,121.0,393,1,239,589,65,0,0,181,250,-1,175,,,,,,,,,,,,
376930,1560684541696,5,2.2,2.22,3.02,2.2,2.94,0.71,0.12,0.74,-2,-0,-1,0.72,3501,69,77,32,97,1498,183.0,309,452,60,122.0,393,1,240,632,65,0,0,189,-1,-1,179,45.70042,4.909425,16.88,200.0,0,0.0,0,0.0,0.9983,1,0.0,6.2822
376950,1560684541716,-0,2.21,2.27,3.02,2.23,2.93,0.66,0.11,0.74,-2,0,-2,0.67,3574,69,77,32,96,1498,185.0,331,448,60,121.0,474,1,248,594,85,0,0,190,-1,-1,182,,,,,,,,,,,,
376970,1560684541736,0,2.21,2.29,2.98,2.22,2.89,0.64,0.12,0.74,-2,-1,-1,0.65,3603,69,77,32,96,1493,191.0,310,461,60,122.0,474,1,251,595,85,0,0,194,-1281,-1,184,,,,,,,,,,,,
376990,1560684541756,0,2.21,2.29,2.97,2.22,2.88,0.63,0.17,0.83,-2,-3,-1,0.65,3652,69,77,32,96,1471,192.0,333,447,60,122.0,474,1,257,635,85,0,0,196,250,-2560,188,,,,,,,,,,,,
377010,1560684541776,1,2.21,2.28,2.97,2.22,2.89,0.58,0.14,0.82,-3,-2,-1,0.6,3767,69,77,32,96,1449,196.0,320,464,60,123.0,474,1,270,602,85,0,0,202,250,13874,190,,,,,,,,,,,,
377030,1560684541795,-0,2.2,2.29,2.99,2.19,2.9,0.56,0.17,0.88,-3,-2,-1,0.58,3892,69,77,32,96,1427,198.0,343,446,60,121.0,474,1,284,607,85,0,0,205,14412,250,195,45.700424,4.909428,18.15,199.9,0,0.0,0,0.0,1.0,1,0.0,6.2838
377050,1560684541815,3,2.21,2.29,2.99,2.19,2.91,0.56,0.16,0.9,-3,-5,-2,0.58,3999,69,77,32,96,1403,202.0,340,465,60,123.0,466,1,296,611,91,0,0,210,13874,-14848,199,,,,,,,,,,,,
377070,1560684541835,2,2.21,2.29,2.99,2.2,2.9,0.56,0.18,0.92,-3,-3,-3,0.59,4088,69,77,32,96,1365,206.0,358,461,60,121.0,466,1,296,612,91,0,0,212,-14848,-1533,204,,,,,,,,,,,,
377090,1560684541855,0,2.2,2.31,2.99,2.21,2.86,0.56,0.21,0.93,-3,-3,-1,0.6,4164,69,77,32,96,1328,212.0,365,442,60,120.0,466,1,295,613,91,0,0,220,250,1088,208,,,,,,,,,,,,
377110,1560684541875,0,2.2,2.34,3.0,2.22,2.85,0.52,0.19,0.92,-3,-4,-1,0.55,4202,69,77,32,96,1312,217.0,373,444,60,121.0,466,1,294,614,91,0,0,226,-17920,250,211,,,,,,,,,,,,
377130,1560684541895,-0,2.21,2.35,3.0,2.22,2.85,0.46,0.17,0.93,-3,-3,-2,0.49,4226,69,77,32,96,1295,221.0,367,450,60,122.0,466,1,294,614,91,0,0,229,250,18432,216,45.700428,4.909431,19.75,199.9,0,0.0,0,0.0,1.0017,1,0.0,6.2855
377150,1560684541915,5,2.21,2.36,2.99,2.21,2.86,0.49,0.14,0.93,-4,-2,-3,0.5,4248,68,77,32,96,1260,226.0,371,471,60,123.0,447,1,293,615,98,0,0,235,10318,250,221,,,,,,,,,,,,
377170,1560684541935,4,2.2,2.36,2.99,2.2,2.87,0.47,0.21,0.94,-4,-2,-4,0.51,4330,68,77,32,96,1226,229.0,383,470,60,123.0,447,1,292,616,98,0,0,233,18432,-1483,223,,,,,,,,,,,,
377190,1560684541955,4,2.21,2.36,2.99,2.19,2.89,0.51,0.18,0.96,-4,-2,-5,0.54,4424,68,77,32,95,1206,233.0,385,453,60,122.0,447,1,290,589,98,0,0,238,8704,-25600,228,,,,,,,,,,,,
377210,1560684541975,4,2.21,2.34,2.99,2.19,2.89,0.56,0.16,0.95,-4,-1,-5,0.58,4512,68,77,32,95,1187,237.0,395,453,60,122.0,447,1,289,591,98,0,0,241,-25600,23482,232,,,,,,,,,,,,
377230,1560684541995,5,2.21,2.34,2.99,2.19,2.89,0.6,0.14,1.03,-4,-0,-5,0.62,4592,68,77,32,95,1144,240.0,398,453,60,123.0,447,1,287,593,98,0,0,244,250,-1445,236,45.700428,4.909431,19.75,199.9,0,0.0,0,0.0,1.0017,1,0.0,6.2872
377250,1560684542009,5,2.21,2.34,2.99,2.19,2.88,0.63,0.11,1.06,-4,-1,-6,0.64,4645,68,77,32,96,1100,243.0,415,465,60,123.0,457,1,286,594,108,0,0,249,-1445,-1494,240,,,,,,,,,,,,
377270,1560684542029,-0,2.21,2.35,2.99,2.2,2.88,0.63,0.09,1.03,-4,-1,-6,0.64,4681,68,77,32,95,1071,246.0,420,466,60,123.0,457,1,286,595,108,0,0,253,10812,-1,241,,,,,,,,,,,,
377290,1560684542049,-2,2.21,2.35,3.0,2.2,2.87,0.66,0.07,1.09,-5,-1,-5,0.66,4680,68,77,32,96,1045,250.0,413,463,60,122.0,457,1,286,595,108,0,0,253,10818,506,244,,,,,,,,,,,,
377310,1560684542069,-1,2.21,2.35,2.99,2.19,2.88,0.65,0.06,1.13,-5,-2,-6,0.65,4739,67,77,32,96,997,253.0,425,460,60,122.0,457,1,284,622,108,0,0,257,-1,-1,248,,,,,,,,,,,,
377330,1560684542093,-1,2.21,2.33,3.0,2.16,2.88,0.53,0.08,1.05,-5,-2,-5,0.53,4821,67,77,32,95,947,255.0,428,446,60,121.0,457,1,283,598,108,0,0,259,-1281,-1,251,45.700439,4.909439,23.44,199.7,0,0.0,0,0.0,1.005,1,0.0,6.2888
377350,1560684542113,1,2.22,2.32,3.0,2.15,2.9,0.45,0.08,0.99,-4,1,-4,0.46,4877,67,77,32,95,916,259.0,431,444,60,122.0,430,1,282,599,109,0,0,262,-41,-1,255,,,,,,,,,,,,
377370,1560684542133,-1,2.22,2.3,3.0,2.14,2.91,0.58,0.05,1.07,-4,0,-6,0.58,5018,67,77,32,94,891,262.0,447,461,60,123.0,430,1,279,578,109,0,0,267,-1,-1,258,,,,,,,,,,,,
377390,1560684542153,2,2.21,2.29,2.99,2.16,2.88,0.55,0.02,1.01,-4,-0,-5,0.55,5225,67,77,32,93,854,265.0,465,451,60,120.0,430,1,287,570,109,0,0,271,-1,-1,261,,,,,,,,,,,,
377410,1560684542173,1,2.22,2.3,2.97,2.15,2.88,0.54,0.09,1.02,-4,2,-4,0.55,5363,67,77,32,92,813,267.0,468,461,60,122.0,430,1,292,525,109,0,0,273,-1,250,264,,,,,,,,,,,,
377430,1560684542195,4,2.22,2.3,2.96,2.17,2.86,0.62,0.07,1.0,-4,0,-2,0.63,5522,67,77,32,92,788,271.0,487,456,60,122.0,430,1,298,523,109,0,0,284,-1281,80,268,45.700443,4.909442,25.06,199.7,0,0.0,0,0.0,1.0067,1,0.0,6.2905
377450,1560684542215,1,2.23,2.3,2.95,2.2,2.87,0.54,0.07,1.08,-5,1,-3,0.54,5635,67,77,32,91,770,276.0,508,450,60,120.0,394,1,303,506,107,0,0,291,30208,100,273,,,,,,,,,,,,
377470,1560684542235,-1,2.23,2.32,2.94,2.22,2.85,0.43,0.06,1.15,-4,3,-3,0.43,5726,67,77,32,91,749,284.0,498,458,60,122.0,394,1,306,505,107,0,0,293,250,26880,277,,,,,,,,,,,,
377490,1560684542255,-1,2.23,2.33,2.94,2.24,2.88,0.44,0.07,1.15,-2,2,-4,0.45,5801,67,77,32,90,728,288.0,511,458,60,122.0,394,1,309,493,107,0,0,321,0,-32559,284,,,,,,,,,,,,
377510,1560684542275,1,2.23,2.32,2.94,2.27,2.87,0.51,0.09,1.17,-2,0,-5,0.52,5958,67,77,32,90,716,291.0,523,458,60,123.0,394,1,315,494,107,0,0,329,20480,29440,287,,,,,,,,,,,,
377530,1560684542295,0,2.24,2.34,2.93,2.31,2.84,0.58,0.13,1.12,-3,-1,-5,0.59,6091,67,77,32,90,713,295.0,534,458,60,123.0,394,1,322,498,107,0,0,303,23040,28160,292,45.700447,4.909446,26.83,199.6,0,0.0,0,0.0,1.0083,1,0.0,6.2922
377550,1560684542315,1,2.23,2.36,2.9,2.33,2.83,0.71,0.11,1.13,-3,-3,-5,0.72,6042,67,77,32,91,714,301.0,534,459,60,122.0,389,1,319,496,114,0,0,317,26880,150,296,,,,,,,,,,,,
377570,1560684542335,-1,2.23,2.39,2.88,2.33,2.83,0.84,0.09,1.14,-4,-5,-4,0.84,6013,67,77,32,90,718,306.0,530,458,60,122.0,389,1,317,495,114,0,0,324,115,-12032,304,,,,,,,,,,,,
377590,1560684542355,-1,2.22,2.4,2.86,2.33,2.82,0.95,0.06,1.17,-5,-7,-4,0.95,6042,67,77,32,90,724,310.0,536,460,60,121.0,389,1,319,496,114,0,0,328,130,175,308,,,,,,,,,,,,
377610,1560684542375,1,2.22,2.39,2.87,2.32,2.84,0.99,0.06,1.17,-5,-10,-5,0.99,6097,67,77,32,90,731,315.0,541,461,60,122.0,389,1,322,498,114,0,0,343,-29696,-6528,310,,,,,,,,,,,,
377630,1560684542394,2,2.22,2.37,2.91,2.31,2.84,1.01,0.07,1.15,-4,-10,-5,1.01,6212,66,77,32,90,737,320.0,550,460,60,122.0,389,1,328,503,114,0,0,342,150,-20736,316,45.700455,4.909451,29.27,199.6,0,0.0,0,0.0,1.01,1,0.0,6.2938
377650,1560684542414,2,2.23,2.35,2.93,2.3,2.85,1.01,0.08,1.23,-4,-9,-3,1.01,6343,66,77,32,90,741,325.0,559,455,60,120.0,383,1,335,508,122,0,0,331,-23296,-32559,320,,,,,,,,,,,,
377670,1560684542434,7,2.23,2.36,2.92,2.29,2.85,0.91,0.18,1.19,-3,-4,-1,0.93,6401,66,77,32,90,743,328.0,561,448,60,122.0,383,1,339,511,122,0,0,339,170,8841,326,,,,,,,,,,,,
377690,1560684542454,0,2.22,2.38,2.92,2.28,2.85,0.82,0.16,1.13,-3,-2,-1,0.84,6463,66,77,31,90,741,333.0,577,459,60,121.0,383,1,342,513,122,0,0,342,-6528,2811,326,,,,,,,,,,,,
377710,1560684542474,5,2.23,2.38,2.92,2.27,2.86,0.93,0.09,1.19,-5,-7,-2,0.93,6544,66,77,31,90,743,336.0,596,461,60,121.0,383,1,346,515,122,0,0,356,-31222,-30454,332,,,,,,,,,,,,
377730,1560684542496,2,2.23,2.39,2.95,2.28,2.88,0.84,0.15,1.17,-3,-7,-1,0.85,6585,66,77,31,90,747,341.0,585,456,60,122.0,383,1,349,518,122,0,0,356,6668,-6644,337,45.700466,4.909456,31.56,199.5,0,0.0,0,0.0,1.0117,1,0.0,6.2955
377750,1560684542516,2,2.23,2.39,2.99,2.3,2.88,0.67,0.11,1.09,-4,-3,-1,0.68,6630,66,77,31,90,754,345.0,602,453,60,121.0,379,1,350,520,129,0,0,358,6870,3302,340,,,,,,,,,,,,
377770,1560684542536,5,2.23,2.39,2.99,2.31,2.88,0.81,0.09,1.12,-5,-6,-2,0.81,6667,66,77,31,89,761,348.0,603,457,60,121.0,379,1,355,516,129,0,0,357,2811,-29978,345,,,,,,,,,,,,
377790,1560684542556,2,2.23,2.38,2.96,2.3,2.88,0.63,0.17,1.02,-3,-1,-1,0.65,6720,66,77,31,89,768,351.0,586,458,60,122.0,379,1,358,518,129,0,0,359,28553,0,349,,,,,,,,,,,,
377810,1560684542576,5,2.22,2.37,2.94,2.28,2.91,0.75,0.1,1.06,-5,-2,-2,0.76,6845,65,77,31,88,769,355.0,606,451,60,121.0,379,1,366,522,129,0,0,363,2060,0,353,,,,,,,,,,,,
377830,1560684542592,3,2.24,2.36,2.93,2.26,2.89,0.55,0.12,1.02,-4,-2,-1,0.57,6941,65,77,31,88,770,358.0,605,461,60,121.0,379,1,370,520,129,0,0,368,-29978,-6656,355,45.70047,4.909461,33.61,199.5,0,0.0,0,0.0,1.0133,1,0.0,6.2972
377850,1560684542612,1,2.24,2.35,2.93,2.25,2.89,0.6,0.22,0.98,-3,-0,-1,0.64,7022,65,77,31,88,766,362.0,611,451,60,122.0,385,1,375,523,138,0,0,380,3082,770,361,,,,,,,,,,,,
377870,1560684542632,5,2.23,2.33,2.92,2.26,2.86,0.71,0.1,1.08,-5,-1,-2,0.72,7129,65,77,31,87,759,365.0,614,458,60,121.0,385,1,384,521,138,0,0,381,-6405,-19126,365,,,,,,,,,,,,
377890,1560684542652,3,2.25,2.33,2.91,2.26,2.86,0.48,0.09,0.92,-3,2,-1,0.48,7200,65,77,31,87,747,370.0,617,453,60,121.0,385,1,388,523,138,0,0,383,486,-992,368,,,,,,,,,,,,
377910,1560684542672,3,2.24,2.34,2.94,2.28,2.88,0.36,0.16,0.9,-2,1,-0,0.39,7309,65,77,31,86,735,374.0,620,457,60,120.0,385,1,396,517,138,0,0,396,742,-32702,371,,,,,,,,,,,,
377930,1560684542694,3,2.24,2.38,2.94,2.31,2.87,0.39,0.16,0.97,-2,-1,-0,0.42,7416,65,77,31,86,728,378.0,626,458,60,121.0,385,1,402,513,138,0,0,390,2278,-6656,376,45.700481,4.909466,35.43,199.4,0,0.0,0,0.0,1.015,1,0.0,6.2988
377950,1560684542714,5,2.23,2.39,2.94,2.3,2.88,0.54,0.2,1.01,-3,-3,-0,0.57,7515,65,77,31,85,721,381.0,631,456,60,121.0,381,1,411,507,143,0,0,401,-18948,-3968,378,,,,,,,,,,,,
377970,1560684542734,2,2.24,2.39,2.94,2.31,2.89,0.52,0.22,0.99,-3,-3,-0,0.56,7643,65,77,31,84,716,387.0,638,457,60,120.0,381,1,416,509,143,0,0,408,240,11560,383,,,,,,,,,,,,
377990,1560684542754,3,2.24,2.38,2.95,2.29,2.86,0.5,0.27,0.97,-2,-1,-0,0.57,7805,65,77,31,82,711,391.0,635,455,60,121.0,381,1,426,494,143,0,0,409,505,-26615,388,,,,,,,,,,,,
378010,1560684542774,0,2.24,2.42,2.94,2.28,2.83,0.43,0.12,1.01,-2,1,-1,0.45,7874,65,78,31,81,714,397.0,638,459,60,121.0,381,1,430,486,143,0,0,427,-3968,2524,391,,,,,,,,,,,,
378030,1560684542794,3,2.23,2.43,2.95,2.28,2.82,0.35,0.04,1.02,-2,0,-3,0.36,8016,65,78,31,79,717,401.0,631,451,60,122.0,381,1,438,472,143,0,0,431,11545,-21792,396,45.700485,4.909471,37.49,199.4,0,0.0,0,0.0,1.0167,1,0.0,6.3005
378050,1560684542814,5,2.23,2.41,2.95,2.27,2.8,0.37,0.13,0.96,-4,-0,-2,0.39,8113,65,78,31,77,721,407.0,626,448,60,121.0,366,1,435,457,145,0,0,434,-26615,243,401,,,,,,,,,,,,
378070,1560684542834,1,2.23,2.43,2.93,2.26,2.81,0.31,0.1,0.97,-4,2,-1,0.33,8230,65,78,31,76,724,412.0,635,452,60,122.0,366,1,433,450,145,0,0,431,-9166,8488,406,,,,,,,,,,,,
378090,1560684542854,5,2.23,2.46,2.93,2.26,2.82,0.26,0.26,0.91,-4,1,-1,0.37,8419,65,78,31,75,725,416.0,646,452,60,121.0,366,1,429,434,145,0,0,451,-21944,12552,411,,,,,,,,,,,,
378110,1560684542874,2,2.24,2.46,2.93,2.24,2.83,0.3,0.04,1.02,-4,-1,-4,0.31,8612,65,78,31,73,725,420.0,643,451,60,121.0,366,1,426,427,145,0,0,461,-8165,19477,415,,,,,,,,,,,,
378130,1560684542894,1,2.23,2.45,2.94,2.25,2.8,0.36,-0.1,1.02,-4,1,-4,0.37,8696,65,78,31,71,735,427.0,642,458,60,121.0,366,1,424,417,145,0,0,470,31796,-9160,421,45.700497,4.909476,39.74,199.4,0,0.0,0,0.0,1.0183,1,0.0,6.3022
378150,1560684542914,-0,2.24,2.45,2.92,2.26,2.83,0.42,-0.13,1.12,-5,-1,-4,0.44,8786,65,78,31,72,745,432.0,652,451,60,122.0,325,1,421,407,137,0,0,469,243,10408,424,,,,,,,,,,,,
378170,1560684542934,0,2.23,2.46,2.9,2.27,2.83,0.48,-0.17,1.19,-5,1,-1,0.51,8928,65,78,31,70,755,435.0,645,454,60,122.0,325,1,416,398,137,0,0,463,-7939,-9203,429,,,,,,,,,,,,
378190,1560684542954,2,2.24,2.45,2.84,2.26,2.82,0.49,-0.12,1.27,-5,-0,-1,0.5,8992,65,78,31,70,766,441.0,643,453,60,120.0,325,1,414,398,137,0,0,458,26704,6193,434,,,,,,,,,,,,
378210,1560684542974,0,2.23,2.48,2.8,2.27,2.82,0.45,0.01,1.2,-5,5,0,0.45,8932,65,78,31,70,791,447.0,650,451,60,122.0,325,1,416,398,137,0,0,497,10305,6274,439,,,,,,,,,,,,
378230,1560684542994,1,2.22,2.47,2.82,2.27,2.83,0.45,0.1,1.2,-4,6,0,0.46,9044,65,78,31,70,819,451.0,652,453,60,122.0,325,1,413,398,137,0,0,506,3571,-32768,444,45.700497,4.909476,39.74,199.4,0,0.0,0,0.0,1.0183,1,0.0,6.3038
378250,1560684543008,1,2.24,2.46,2.83,2.27,2.81,0.45,0.21,1.14,-4,7,1,0.5,9155,65,78,31,70,840,454.0,649,452,60,122.0,298,1,413,398,133,0,0,471,14488,6193,448,,,,,,,,,,,,
378270,1560684543028,1,2.23,2.47,2.84,2.25,2.82,0.57,0.19,1.23,-5,7,2,0.6,9164,65,78,31,70,858,457.0,651,445,60,122.0,298,1,413,388,133,0,0,492,-9160,-4054,453,,,,,,,,,,,,
378290,1560684543048,2,2.24,2.47,2.83,2.25,2.82,0.68,0.03,1.3,-5,6,2,0.68,9218,65,78,31,69,880,467.0,653,457,60,121.0,298,1,414,388,133,0,0,492,243,-3414,455,,,,,,,,,,,,
378310,1560684543068,4,2.23,2.48,2.84,2.23,2.83,0.68,-0.12,1.37,-6,4,1,0.69,9323,65,78,31,69,904,471.0,656,453,60,121.0,298,1,414,388,133,0,0,492,32033,3580,461,,,,,,,,,,,,
378330,1560684543094,3,2.24,2.48,2.85,2.23,2.83,0.71,-0.14,1.3,-6,2,0,0.72,9305,65,78,31,68,917,475.0,657,455,60,120.0,298,1,414,388,133,0,0,517,-17956,1,464,45.700516,4.909488,44.58,199.3,0,0.0,0,0.0,1.0217,1,0.0,6.3055
378350,1560684543114,2,2.23,2.47,2.89,2.24,2.82,0.48,0.03,1.24,-5,3,-2,0.48,9370,65,78,31,68,924,481.0,649,452,60,121.0,285,1,415,379,134,0,0,514,32033,2109,471,,,,,,,,,,,,
378370,1560684543134,3,2.23,2.48,2.91,2.22,2.82,0.53,0.12,1.2,-5,3,-1,0.54,9441,65,78,31,68,933,484.0,656,457,60,121.0,285,1,415,379,134,0,0,495,-10483,10994,476,,,,,,,,,,,,
378390,1560684543154,4,2.24,2.49,2.91,2.21,2.84,0.67,-0.06,1.28,-6,1,-1,0.67,9498,65,78,31,67,943,487.0,655,460,60,121.0,285,1,414,379,134,0,0,506,505,10408,481,,,,,,,,,,,,
378410,1560684543174,1,2.23,2.49,2.9,2.2,2.85,0.42,0.06,1.18,-5,3,-2,0.43,9605,65,78,31,67,950,491.0,668,452,60,121.0,285,1,413,381,134,0,0,511,248,17136,484,,,,,,,,,,,,
378430,1560684543194,4,2.24,2.48,2.91,2.19,2.85,0.46,0.12,1.13,-4,6,-2,0.47,9645,65,78,31,67,954,496.0,663,457,60,121.0,285,1,411,389,134,0,0,521,3,-3856,490,45.700527,4.909494,47.06,199.2,0,0.0,0,0.0,1.0233,1,0.0,6.3072
378450,1560684543214,5,2.24,2.47,2.91,2.19,2.83,0.58,-0.09,1.22,-4,6,-3,0.59,9640,65,78,31,66,959,500.0,660,452,60,120.0,286,1,412,391,140,0,0,523,10408,-3856,492,,,,,,,,,,,,
378470,1560684543234,3,2.25,2.47,2.91,2.2,2.81,0.39,0.1,1.15,-4,4,-2,0.41,9669,65,78,31,66,966,505.0,649,455,60,121.0,286,1,411,385,140,0,0,517,2109,1341,497,,,,,,,,,,,,
378490,1560684543254,4,2.25,2.46,2.91,2.18,2.83,0.56,-0.06,1.24,-4,1,-2,0.56,9715,65,78,31,66,971,507.0,653,459,60,121.0,286,1,408,394,140,0,0,522,-21872,14504,500,,,,,,,,,,,,
378510,1560684543274,1,2.26,2.46,2.9,2.19,2.83,0.35,0.07,1.14,-3,4,-2,0.35,9858,65,78,31,66,975,510.0,661,449,60,121.0,286,1,404,404,140,0,0,522,-4054,-8187,505,,,,,,,,,,,,
378530,1560684543294,1,2.26,2.45,2.9,2.19,2.84,0.51,-0.01,1.21,-3,-1,-3,0.51,9915,65,78,31,66,981,513.0,661,453,60,120.0,286,1,403,409,140,0,0,527,-14,-30064,511,45.700539,4.909501,48.66,199.2,0,0.0,0,0.0,1.025,1,0.0,6.3088
378550,1560684543314,2,2.27,2.44,2.9,2.2,2.83,0.49,0.06,1.16,-3,1,-2,0.49,9957,65,78,31,66,992,517.0,652,451,60,122.0,298,1,401,413,153,0,0,533,15679,2104,515,,,,,,,,,,,,
378570,1560684543334,2,2.26,2.43,2.9,2.2,2.82,0.45,0.06,1.06,-2,2,-2,0.46,10032,65,78,31,65,1002,520.0,661,457,60,120.0,298,1,404,410,153,0,0,539,1248,-8186,518,,,,,,,,,,,,
378590,1560684543354,-0,2.27,2.44,2.93,2.2,2.82,0.55,-0.02,1.15,-3,-4,-2,0.55,10053,65,78,31,65,1009,524.0,667,456,60,121.0,298,1,406,419,153,0,0,543,2088,6274,521,,,,,,,,,,,,
378610,1560684543374,3,2.26,2.43,2.95,2.21,2.81,0.55,0.02,1.11,-3,-4,-2,0.55,10107,65,78,31,66,1014,527.0,660,458,60,121.0,298,1,414,420,153,0,0,549,-28648,-506,525,,,,,,,,,,,,
378630,1560684543393,4,2.26,2.43,2.97,2.21,2.84,0.44,0.04,1.1,-3,-1,-2,0.44,10234,65,78,31,66,1018,530.0,670,457,60,121.0,298,1,421,424,153,0,0,547,14504,-8186,530,45.70055,4.909506,50.73,199.1,0,0.0,0,0.0,1.0267,1,0.0,6.3105
378650,1560684543413,1,2.25,2.44,2.99,2.2,2.83,0.47,0.09,1.04,-3,-0,-2,0.48,10285,65,78,31,66,1019,534.0,666,455,60,121.0,312,1,425,426,166,0,0,548,-32248,6274,534,,,,,,,,,,,,
378670,1560684543433,3,2.24,2.43,2.98,2.19,2.82,0.52,0.05,1.09,-3,-1,-2,0.52,10376,65,78,31,66,1014,539.0,663,457,60,120.0,312,1,434,428,166,0,0,559,1780,-9072,533,,,,,,,,,,,,
378690,1560684543453,3,2.25,2.43,2.98,2.19,2.84,0.54,-0.01,1.16,-3,-3,-2,0.54,10399,65,78,31,66,1010,544.0,666,454,60,120.0,312,1,436,428,166,0,0,554,-506,6273,537,,,,,,,,,,,,
378710,1560684543473,2,2.26,2.43,3.0,2.2,2.83,0.6,0.03,1.15,-3,-4,-3,0.6,10498,65,78,31,66,1004,544.0,668,456,60,121.0,312,1,444,431,166,0,0,565,-506,-18032,543,,,,,,,,,,,,
378730,1560684543493,2,2.26,2.42,3.02,2.18,2.82,0.68,0.02,1.16,-3,-5,-2,0.68,10533,65,78,31,66,1000,551.0,665,458,60,121.0,312,1,445,432,166,0,0,566,-32248,-28648,546,45.700565,4.909513,52.74,199.1,0,0.0,0,0.0,1.0283,1,0.0,6.3122
378750,1560684543513,2,2.26,2.41,3.01,2.18,2.82,0.75,0.02,1.2,-3,-3,-2,0.75,10629,65,78,31,66,999,554.0,663,452,60,121.0,316,1,446,433,173,0,0,571,2524,243,552,,,,,,,,,,,,
378770,1560684543533,1,2.27,2.41,2.98,2.18,2.82,0.8,0.03,1.23,-3,-3,-2,0.8,10653,65,78,30,66,996,554.0,665,451,60,121.0,316,1,447,433,173,0,0,567,2524,1760,552,,,,,,,,,,,,
378790,1560684543553,5,2.26,2.41,2.97,2.18,2.84,0.84,0.02,1.22,-3,-3,-3,0.84,10751,65,78,30,66,989,557.0,674,451,60,121.0,316,1,448,353,173,0,0,567,2216,-16384,555,,,,,,,,,,,,
378810,1560684543573,4,2.25,2.41,2.96,2.19,2.85,0.79,-0.01,1.22,-2,-2,-3,0.79,10757,65,78,30,66,982,560.0,663,460,60,121.0,316,1,448,433,173,0,0,576,-23623,-16384,561,,,,,,,,,,,,
378830,1560684543593,7,2.26,2.4,2.96,2.17,2.84,0.69,-0.01,1.15,-1,-2,-4,0.69,10856,65,78,30,66,976,565.0,675,455,60,120.0,316,1,448,434,173,0,0,583,-30159,243,564,45.700577,4.909519,54.35,199.0,0,0.0,0,0.0,1.03,1,0.0,6.3138
378850,1560684543613,3,2.26,2.39,3.0,2.19,2.8,0.68,0.0,1.07,-1,-1,-4,0.68,10920,65,78,30,65,970,569.0,674,456,60,120.0,311,1,449,426,176,0,0,589,-29984,1,568,,,,,,,,,,,,
378870,1560684543633,4,2.27,2.37,3.02,2.19,2.8,0.74,-0.04,1.07,-1,-2,-3,0.74,10939,65,78,30,65,958,571.0,664,455,60,121.0,311,1,450,426,176,0,0,584,1267,2048,568,,,,,,,,,,,,
378890,1560684543653,5,2.27,2.38,3.04,2.17,2.81,0.74,-0.04,1.1,-1,-4,-4,0.74,11003,65,78,30,65,946,576.0,666,455,60,120.0,311,1,450,427,176,0,0,590,1,2048,572,,,,,,,,,,,,
378910,1560684543673,4,2.27,2.4,3.04,2.18,2.81,0.62,-0.09,1.08,-1,-4,-4,0.63,11094,65,78,30,65,940,578.0,666,457,60,120.0,311,1,449,427,176,0,0,590,243,-13043,575,,,,,,,,,,,,
378930,1560684543693,5,2.27,2.42,3.03,2.19,2.82,0.64,0.03,0.97,-1,-4,-3,0.65,11101,65,78,30,65,934,580.0,667,453,60,121.0,311,1,448,428,176,0,0,594,-16384,-13043,578,45.700588,4.909526,56.0,199.0,0,0.0,0,0.0,1.0317,1,0.0,6.3155
378950,1560684543713,0,2.28,2.41,3.04,2.19,2.81,0.63,0.01,0.94,0,-5,-4,0.63,11200,65,78,30,65,923,582.0,679,450,60,120.0,309,1,447,429,180,0,0,603,-1894,-32504,580,,,,,,,,,,,,
378970,1560684543733,4,2.27,2.41,3.05,2.19,2.81,0.66,0.06,0.8,-0,-5,-3,0.66,11254,65,78,30,65,911,586.0,676,453,60,121.0,309,1,445,429,180,0,0,607,-25872,243,586,,,,,,,,,,,,
378990,1560684543753,3,2.27,2.41,3.06,2.19,2.82,0.58,-0.03,0.82,0,-3,-2,0.58,11268,65,78,30,65,903,589.0,676,460,60,120.0,309,1,444,429,180,0,0,603,2048,-3820,587,,,,,,,,,,,,
379010,1560684543773,5,2.27,2.4,3.06,2.2,2.84,0.56,-0.06,0.79,1,-5,-0,0.57,11322,65,78,30,65,898,592.0,681,449,60,121.0,309,1,444,430,180,0,0,604,-28648,-30139,591,,,,,,,,,,,,
379030,1560684543793,3,2.27,2.39,3.06,2.17,2.84,0.59,-0.09,0.85,1,-5,-1,0.59,11384,65,78,30,65,883,596.0,682,451,60,120.0,309,1,443,423,180,0,0,609,-16179,26688,594,45.700604,4.909533,57.49,199.0,0,0.0,0,0.0,1.0333,1,0.0,6.3172
379050,1560684543813,5,2.27,2.37,3.06,2.18,2.84,0.65,-0.07,0.85,1,-5,-2,0.66,11474,65,78,30,65,868,597.0,670,454,60,120.0,307,1,441,431,184,0,0,611,-16179,-3446,597,,,,,,,,,,,,
379070,1560684543833,3,2.27,2.38,3.06,2.17,2.85,0.6,0.02,0.9,1,-4,-3,0.6,11531,65,78,30,64,858,601.0,675,453,60,121.0,307,1,440,431,184,0,0,615,243,19621,601,,,,,,,,,,,,
379090,1560684543853,1,2.28,2.38,3.05,2.22,2.83,0.56,-0.05,0.94,0,-2,-4,0.57,11566,65,78,30,64,848,602.0,674,457,60,120.0,307,1,440,425,184,0,0,618,-768,30721,604,,,,,,,,,,,,
379110,1560684543873,7,2.28,2.38,3.06,2.24,2.82,0.63,-0.06,0.95,1,-4,-2,0.63,11552,65,78,30,64,835,606.0,679,458,60,121.0,307,1,440,425,184,0,0,617,-23055,269,606,,,,,,,,,,,,
379130,1560684543893,4,2.28,2.37,3.04,2.22,2.82,0.63,-0.02,0.95,1,-6,-1,0.63,11559,65,78,30,64,819,608.0,676,456,60,121.0,307,1,440,425,184,0,0,622,17740,-18357,609,45.700619,4.90954,59.08,199.0,0,0.0,0,0.0,1.035,1,0.0,6.3188
379150,1560684543913,3,2.28,2.37,3.04,2.2,2.84,0.6,-0.05,0.96,1,-5,-0,0.6,11595,65,78,30,64,810,610.0,669,452,60,120.0,306,1,440,425,187,0,0,628,-28304,771,613,,,,,,,,,,,,
379170,1560684543933,3,2.27,2.37,3.05,2.21,2.86,0.68,-0.06,0.98,1,-4,0,0.69,11660,65,78,30,64,803,614.0,693,452,60,120.0,306,1,440,425,187,0,0,637,-28304,20993,614,,,,,,,,,,,,
379190,1560684543953,8,2.29,2.36,3.16,2.21,2.86,0.69,-0.05,1.03,1,-4,1,0.69,11770,65,78,30,64,792,617.0,673,456,60,120.0,306,1,440,425,187,0,0,631,3403,20993,616,,,,,,,,,,,,
379210,1560684543973,6,2.29,2.37,3.15,2.22,2.84,0.7,-0.04,0.88,0,-3,1,0.7,11844,65,78,30,64,780,620.0,693,459,60,120.0,306,1,440,425,187,0,0,631,3403,-5120,618,,,,,,,,,,,,
379230,1560684543993,5,2.29,2.39,3.16,2.22,2.85,0.63,0.01,0.76,1,-1,1,0.63,11882,65,78,30,64,771,620.0,690,456,60,121.0,306,1,440,425,187,0,0,634,30721,771,620,45.700619,4.90954,59.08,199.0,0,0.0,0,0.0,1.035,1,0.0,6.3205
379250,1560684544009,4,2.29,2.39,3.15,2.21,2.84,0.57,0.07,0.68,1,1,2,0.57,11912,65,78,30,64,765,624.0,683,457,60,120.0,309,1,440,425,192,0,0,641,-16883,-10251,623,,,,,,,,,,,,
379270,1560684544029,5,2.28,2.37,3.16,2.19,2.83,0.49,0.13,0.52,1,1,3,0.5,11950,65,78,30,64,759,625.0,686,462,60,120.0,309,1,440,425,192,0,0,640,-1346,-8429,624,,,,,,,,,,,,
379290,1560684544049,5,2.28,2.35,3.15,2.16,2.85,0.39,0.16,0.48,1,1,5,0.42,11980,65,78,30,64,754,631.0,683,456,60,120.0,309,1,440,425,192,0,0,642,771,-10251,629,,,,,,,,,,,,
379310,1560684544069,5,2.28,2.34,3.13,2.17,2.86,0.26,0.16,0.39,2,2,5,0.3,12026,65,78,30,64,751,631.0,683,456,60,120.0,309,1,440,425,192,0,0,649,771,11566,630,,,,,,,,,,,,
379330,1560684544094,3,2.28,2.34,3.13,2.16,2.88,0.17,0.17,0.32,3,5,6,0.24,12081,65,78,30,64,751,635.0,681,456,60,121.0,309,1,440,425,192,0,0,633,-10251,2024,635,45.700645,4.909554,61.96,198.9,0,0.0,0,0.0,1.0383,1,0.0,6.3222
379350,1560684544114,5,2.27,2.32,3.06,2.17,2.86,0.08,0.19,0.3,3,8,5,0.2,12120,65,78,30,64,751,636.0,678,456,60,121.0,307,1,440,425,195,0,0,643,-10251,-30207,637,,,,,,,,,,,,
379370,1560684544134,6,2.28,2.31,3.03,2.18,2.81,0.07,0.21,0.27,3,8,7,0.23,12135,65,78,30,64,752,641.0,684,456,60,121.0,307,1,440,425,195,0,0,646,-4876,479,640,,,,,,,,,,,,
379390,1560684544154,4,2.29,2.32,3.03,2.18,2.8,0.06,0.21,0.16,3,7,7,0.22,12135,63,78,30,63,753,639.0,688,457,60,120.0,307,1,440,418,195,0,0,651,6208,479,641,,,,,,,,,,,,
379410,1560684544174,0,2.28,2.31,3.05,2.18,2.81,0.05,0.26,-0.05,3,8,8,0.26,12159,54,78,30,61,754,643.0,686,456,60,121.0,307,1,440,406,195,0,0,653,-3584,-30207,643,,,,,,,,,,,,
379430,1560684544193,2,2.27,2.31,3.05,2.18,2.82,0.11,0.24,-0.21,2,9,8,0.26,12135,43,78,30,57,755,643.0,685,454,60,120.0,307,1,417,373,195,0,0,651,-2830,-3038,643,45.700661,4.909563,63.0,198.9,0,0.0,0,0.0,1.04,1,0.0,6.3238
379450,1560684544213,1,2.28,2.29,3.09,2.18,2.84,0.23,0.16,-0.12,2,8,8,0.27,11837,32,78,30,51,757,647.0,680,456,60,120.0,244,1,391,306,158,0,0,652,4909,-3488,648,,,,,,,,,,,,
379470,1560684544233,3,2.28,2.28,3.14,2.17,2.87,0.24,0.14,-0.17,1,9,8,0.28,11609,25,78,30,46,759,646.0,684,457,60,121.0,244,1,372,247,158,0,0,644,4909,244,645,,,,,,,,,,,,
379490,1560684544253,4,2.26,2.26,3.16,2.16,2.91,0.2,0.18,-0.16,2,10,8,0.27,11370,21,78,30,42,759,645.0,680,456,60,121.0,244,1,342,235,158,0,0,644,11566,-30207,648,,,,,,,,,,,,
379510,1560684544273,7,2.28,2.26,3.19,2.14,2.96,0.24,0.17,-0.11,3,8,7,0.3,11140,20,78,30,39,760,644.0,679,457,60,121.0,244,1,320,228,158,0,0,641,-2830,-4876,645,,,,,,,,,,,,
379530,1560684544295,5,2.27,2.24,3.29,2.14,3.0,0.39,0.06,-0.08,4,6,4,0.39,10920,20,78,30,37,761,641.0,685,453,60,120.0,244,1,314,224,158,0,0,638,-3584,-2830,641,45.700676,4.909571,63.86,198.9,0,0.0,0,0.0,1.0417,1,0.0,6.3255
379550,1560684544315,3,2.29,2.22,3.31,2.12,3.0,0.42,0.14,-0.09,4,5,4,0.45,10782,20,78,30,35,761,642.0,677,456,60,121.0,141,1,308,220,91,0,0,631,24,771,642,,,,,,,,,,,,
379570,1560684544335,7,2.27,2.2,3.35,2.08,3.07,0.52,0.11,-0.02,2,0,4,0.53,10726,20,78,30,34,761,638.0,674,456,60,121.0,141,1,305,219,91,0,0,601,16599,30227,638,,,,,,,,,,,,
379590,1560684544355,9,2.28,2.17,3.36,2.06,3.11,0.62,0.07,0.03,3,1,4,0.63,10800,19,78,30,33,767,634.0,673,456,60,121.0,141,1,302,218,91,0,0,598,3,208,634,,,,,,,,,,,,
379610,1560684544375,11,2.28,2.14,3.4,2.02,3.12,0.67,0.02,0.04,3,3,4,0.67,10850,19,78,30,32,797,631.0,676,461,60,121.0,141,1,300,218,91,0,0,561,771,259,630,,,,,,,,,,,,
379630,1560684544394,6,2.27,2.13,3.45,1.99,3.15,0.71,-0.12,0.09,3,-1,4,0.72,10788,19,78,30,31,826,627.0,672,454,60,120.0,141,1,295,216,91,0,0,559,-14655,-3210,629,45.700687,4.909578,63.83,198.9,0,0.0,0,0.0,1.0433,1,0.0,6.3272
379650,1560684544414,7,2.28,2.12,3.44,2.01,3.13,0.64,-0.11,0.18,3,-2,5,0.65,10763,19,78,30,31,855,626.0,671,456,60,121.0,139,1,295,216,88,0,0,592,3395,-3210,623,,,,,,,,,,,,
379670,1560684544434,6,2.27,2.12,3.43,2.01,3.14,0.7,-0.05,0.18,2,-4,6,0.7,10738,19,78,30,30,885,620.0,673,456,60,121.0,139,1,291,216,88,0,0,589,269,-8186,619,,,,,,,,,,,,
379690,1560684544454,8,2.28,2.12,3.42,1.99,3.17,0.83,-0.08,0.23,2,-4,6,0.83,10819,19,78,30,30,916,617.0,681,459,60,121.0,139,1,291,215,88,0,0,582,28675,-3190,617,,,,,,,,,,,,
379710,1560684544474,8,2.28,2.09,3.41,1.98,3.18,0.8,-0.1,0.26,3,-4,4,0.8,10800,19,78,30,30,946,615.0,678,464,60,121.0,139,1,291,215,88,0,0,573,-30139,1267,615,,,,,,,,,,,,
379730,1560684544494,3,2.28,2.02,3.42,1.94,3.21,0.82,-0.26,0.34,4,-7,2,0.86,10720,19,78,30,30,947,614.0,679,455,60,120.0,139,1,291,215,88,0,0,568,-3446,-3210,614,45.700703,4.909586,62.36,198.9,0,0.0,0,0.0,1.045,1,0.0,6.3288
379750,1560684544514,5,2.28,1.97,3.44,1.92,3.17,0.75,-0.32,0.38,3,-7,2,0.81,10714,19,78,30,30,948,612.0,672,459,60,121.0,141,1,291,215,87,0,0,571,-23055,-16179,612,,,,,,,,,,,,
379770,1560684544534,5,2.27,1.97,3.43,1.94,3.15,0.73,-0.23,0.4,3,-8,3,0.77,10665,19,78,30,30,941,608.0,672,456,60,121.0,141,1,291,215,87,0,0,585,243,-3190,608,,,,,,,,,,,,
379790,1560684544554,4,2.28,1.98,3.39,1.93,3.15,0.84,-0.18,0.37,3,-5,3,0.86,10720,19,78,30,30,935,603.0,667,455,60,121.0,141,1,291,215,87,0,0,580,17344,1,603,,,,,,,,,,,,
379810,1560684544574,6,2.27,1.97,3.39,1.92,3.14,0.96,-0.16,0.33,3,-7,2,0.97,10689,19,78,30,30,929,597.0,672,458,60,121.0,141,1,291,215,87,0,0,564,-16179,1760,597,,,,,,,,,,,,
379830,1560684544594,5,2.28,1.94,3.35,1.9,3.11,1.05,-0.14,0.32,3,-10,3,1.06,10720,19,78,30,30,922,594.0,673,456,60,121.0,141,1,291,215,87,0,0,578,6273,259,594,45.700718,4.909595,60.34,198.8,0,0.0,0,0.0,1.0467,1,0.0,6.3305
379850,1560684544614,8,2.27,1.91,3.35,1.9,3.08,1.04,-0.27,0.42,3,-10,3,1.07,10689,19,78,30,29,919,590.0,666,458,60,121.0,145,1,287,213,86,0,0,561,208,-3210,587,,,,,,,,,,,,
379870,1560684544634,7,2.28,1.89,3.38,1.88,3.1,1.05,-0.39,0.44,2,-5,3,1.12,10653,18,78,30,29,917,588.0,682,458,60,121.0,145,1,287,213,86,0,0,570,-1894,-18032,588,,,,,,,,,,,,
379890,1560684544654,19,2.28,1.89,3.38,1.87,3.12,0.99,-0.36,0.37,3,-1,3,1.06,10635,18,78,30,29,920,586.0,674,456,60,120.0,145,1,287,213,86,0,0,568,-16384,-23623,584,,,,,,,,,,,,
379910,1560684544674,3,2.28,1.9,3.37,1.88,3.12,0.98,-0.42,0.39,2,-4,3,1.07,10515,18,78,30,30,925,582.0,674,461,60,120.0,145,1,291,215,86,0,0,567,-3210,-23623,581,,,,,,,,,,,,
379930,1560684544694,6,2.27,1.91,3.35,1.89,3.11,0.91,-0.4,0.41,2,-6,3,0.99,10492,18,78,30,30,933,579.0,672,456,60,121.0,145,1,291,212,86,0,0,556,259,-2934,577,45.700733,4.909603,58.4,198.8,0,0.0,0,0.0,1.0483,1,0.0,6.3322
379950,1560684544714,8,2.26,1.91,3.38,1.89,3.11,0.9,-0.43,0.38,2,-6,3,1.0,10399,18,78,30,30,943,574.0,675,456,60,120.0,145,1,291,212,84,0,0,559,1760,2211,574,,,,,,,,,,,,
379970,1560684544734,5,2.27,1.91,3.36,1.89,3.08,0.83,-0.4,0.34,2,-3,4,0.92,10399,18,78,30,30,950,571.0,668,458,60,121.0,145,1,291,211,84,0,0,556,1267,2524,570,,,,,,,,,,,,
379990,1560684544754,8,2.25,1.92,3.37,1.88,3.11,0.85,-0.42,0.32,1,-4,4,0.95,10319,18,78,30,30,955,569.0,668,457,60,121.0,145,1,291,211,84,0,0,548,-2934,2524,566,,,,,,,,,,,,
380010,1560684544774,6,2.25,1.91,3.38,1.86,3.14,0.74,-0.42,0.35,1,-6,3,0.85,10262,18,78,30,30,966,565.0,665,455,60,121.0,145,1,291,208,84,0,0,554,-2934,1779,564,,,,,,,,,,,,
380030,1560684544794,7,2.25,1.9,3.38,1.83,3.17,0.71,-0.35,0.33,2,-3,3,0.79,10217,18,78,30,30,978,566.0,674,457,60,121.0,145,1,291,207,84,0,0,544,-30159,-22519,564,45.700745,4.909611,57.17,198.8,0,0.0,0,0.0,1.05,1,0.0,6.3338
380050,1560684544814,4,2.25,1.91,3.37,1.81,3.16,0.84,-0.33,0.29,1,-1,2,0.9,10091,18,78,30,30,987,562.0,669,457,60,121.0,140,1,291,203,79,0,0,549,-23623,-22519,560,,,,,,,,,,,,
380070,1560684544834,5,2.27,1.91,3.35,1.81,3.12,0.92,-0.33,0.35,0,-3,2,0.98,10086,18,78,30,30,995,561.0,667,457,60,120.0,140,1,291,203,79,0,0,545,-32504,-22519,555,,,,,,,,,,,,
380090,1560684544854,4,2.26,1.92,3.34,1.82,3.13,0.8,-0.3,0.31,1,-3,2,0.86,10080,18,78,30,30,1008,555.0,667,459,60,121.0,140,1,291,201,79,0,0,537,-22263,6274,554,,,,,,,,,,,,
380110,1560684544874,5,2.25,1.9,3.34,1.81,3.13,0.85,-0.38,0.29,1,-3,2,0.93,10016,18,78,30,30,1023,553.0,661,455,60,122.0,140,1,291,202,79,0,0,535,-9072,-28648,549,,,,,,,,,,,,
380130,1560684544895,4,2.26,1.91,3.34,1.79,3.14,0.92,-0.29,0.36,1,-4,2,0.97,10010,18,78,30,30,1035,548.0,669,453,60,121.0,140,1,291,201,79,0,0,528,14504,-28648,547,45.70076,4.909619,55.59,198.7,0,0.0,0,0.0,1.0517,1,0.0,6.3355
380150,1560684544915,5,2.26,1.92,3.33,1.78,3.14,0.86,-0.25,0.36,1,-5,1,0.89,9968,18,78,30,29,1043,547.0,662,461,60,121.0,136,1,287,198,75,0,0,530,-506,-22519,546,,,,,,,,,,,,
380170,1560684544935,4,2.27,1.92,3.34,1.82,3.12,0.8,-0.3,0.3,1,-2,1,0.86,9878,18,78,30,29,1055,542.0,670,455,60,120.0,136,1,287,197,75,0,0,534,-3082,-32248,538,,,,,,,,,,,,
380190,1560684544955,6,2.27,1.92,3.33,1.8,3.11,0.91,-0.25,0.36,1,-5,2,0.95,9868,18,78,30,29,1069,539.0,672,458,60,121.0,136,1,287,197,75,0,0,525,1780,-28648,538,,,,,,,,,,,,
380210,1560684544975,5,2.26,1.91,3.35,1.79,3.12,0.78,-0.3,0.35,1,-4,2,0.84,9821,18,78,30,29,1080,537.0,668,457,60,121.0,136,1,287,197,75,0,0,522,-28648,-22519,538,,,,,,,,,,,,
380230,1560684544995,7,2.26,1.9,3.36,1.77,3.12,0.91,-0.33,0.37,0,-4,3,0.96,9725,18,78,30,29,1086,536.0,664,456,60,121.0,136,1,287,196,75,0,0,525,-28648,-8187,536,45.70076,4.909619,55.59,198.7,0,0.0,0,0.0,1.0517,1,0.0,6.3372
380250,1560684545008,5,2.26,1.91,3.35,1.77,3.13,0.75,-0.23,0.28,1,-4,3,0.78,9669,18,78,30,29,1096,535.0,662,458,60,122.0,134,1,287,195,72,0,0,522,6274,1248,532,,,,,,,,,,,,
380270,1560684545028,7,2.27,1.91,3.34,1.78,3.16,0.88,-0.13,0.33,1,-4,1,0.89,9659,18,78,30,29,1110,531.0,658,461,60,122.0,134,1,287,195,72,0,0,514,2524,-3482,531,,,,,,,,,,,,
380290,1560684545048,3,2.27,1.91,3.36,1.8,3.14,0.79,-0.17,0.29,2,-2,1,0.81,9625,18,78,30,29,1123,528.0,662,451,60,122.0,134,1,287,194,72,0,0,515,-28648,2524,527,,,,,,,,,,,,
380310,1560684545068,6,2.27,1.91,3.36,1.79,3.14,0.79,-0.07,0.19,1,-4,1,0.79,9590,18,78,30,28,1132,526.0,656,461,60,122.0,134,1,282,192,72,0,0,512,2088,10994,526,,,,,,,,,,,,
380330,1560684545094,5,2.27,1.91,3.35,1.79,3.1,0.91,-0.23,0.29,1,-2,-0,0.94,9527,18,78,30,28,1146,523.0,658,458,60,121.0,134,1,282,192,72,0,0,509,-9212,10994,522,45.700783,4.909635,52.78,198.7,0,0.0,0,0.0,1.055,1,0.0,6.3388
380350,1560684545114,4,2.27,1.9,3.35,1.79,3.09,0.74,-0.08,0.22,1,-3,-0,0.74,9498,18,78,30,28,1168,520.0,657,457,60,122.0,132,1,282,191,69,0,0,507,1341,-21872,520,,,,,,,,,,,,
380370,1560684545134,5,2.26,1.91,3.35,1.78,3.11,0.87,-0.05,0.23,1,-3,0,0.87,9450,18,78,30,28,1189,518.0,664,461,60,121.0,132,1,282,191,69,0,0,505,1341,-32248,518,,,,,,,,,,,,
380390,1560684545154,7,2.26,1.91,3.35,1.78,3.11,0.96,-0.15,0.33,1,-1,-0,0.97,9445,18,78,30,28,1204,516.0,661,457,60,121.0,132,1,282,191,69,0,0,508,16383,11560,516,,,,,,,,,,,,
380410,1560684545174,3,2.27,1.92,3.35,1.79,3.1,0.81,-0.1,0.25,1,-0,1,0.82,9379,18,78,30,27,1218,514.0,651,457,60,122.0,132,1,278,190,69,0,0,505,-3482,-3414,511,,,,,,,,,,,,
380430,1560684545194,4,2.27,1.93,3.33,1.8,3.09,0.83,-0.05,0.14,1,0,1,0.83,9360,18,78,30,27,1230,511.0,653,455,60,122.0,132,1,278,190,69,0,0,499,-4054,-32248,511,45.700794,4.909642,51.59,198.6,0,0.0,0,0.0,1.0567,1,0.0,6.3405
380450,1560684545214,5,2.27,1.92,3.32,1.8,3.09,0.95,-0.09,0.19,1,-3,2,0.95,9309,18,78,30,27,1240,506.0,661,461,60,122.0,129,1,278,189,66,0,0,497,-28648,-9216,508,,,,,,,,,,,,
380470,1560684545234,7,2.27,1.91,3.34,1.79,3.1,1.06,-0.18,0.35,1,-3,2,1.07,9305,18,78,30,27,1237,507.0,658,461,60,121.0,129,1,278,189,66,0,0,499,15661,-6528,504,,,,,,,,,,,,
380490,1560684545254,4,2.27,1.91,3.35,1.78,3.1,0.99,-0.03,0.3,1,-3,4,0.99,9182,18,78,30,27,1228,504.0,662,455,60,121.0,129,1,278,188,66,0,0,495,-32248,998,506,,,,,,,,,,,,
380510,1560684545274,1,2.26,1.92,3.33,1.79,3.12,0.97,-0.01,0.27,2,0,3,0.97,9146,18,78,30,26,1195,503.0,664,458,60,121.0,129,1,274,188,66,0,0,496,2109,-32768,502,,,,,,,,,,,,
380530,1560684545294,1,2.27,1.92,3.32,1.8,3.1,1.08,-0.07,0.31,2,-0,3,1.08,9088,18,78,30,27,1162,500.0,651,457,60,122.0,129,1,278,188,66,0,0,491,10408,998,500,45.700806,4.90965,50.53,198.6,0,0.0,0,0.0,1.0583,1,0.0,6.3422
380550,1560684545314,1,2.28,1.92,3.31,1.8,3.08,1.12,-0.04,0.35,2,2,3,1.12,9079,18,78,30,27,1133,498.0,647,459,60,122.0,130,1,278,188,65,0,0,490,-9216,-6656,498,,,,,,,,,,,,
380570,1560684545334,0,2.27,1.92,3.32,1.78,3.09,1.21,-0.15,0.42,2,1,1,1.22,9079,18,78,31,27,1104,497.0,649,457,60,122.0,130,1,278,188,65,0,0,484,771,-1562,497,,,,,,,,,,,,
380590,1560684545354,3,2.28,1.91,3.34,1.77,3.09,1.28,-0.23,0.47,2,1,1,1.3,9031,18,78,31,27,1059,495.0,651,458,60,122.0,130,1,278,188,65,0,0,484,-32768,-6441,493,,,,,,,,,,,,
380610,1560684545374,2,2.25,1.92,3.34,1.78,3.08,1.32,-0.3,0.58,2,0,-1,1.36,9023,18,78,31,27,1013,494.0,653,455,60,122.0,130,1,278,188,65,0,0,484,998,16648,492,,,,,,,,,,,,
380630,1560684545393,2,2.26,1.93,3.34,1.79,3.09,1.35,-0.28,0.61,1,1,-1,1.38,8971,18,78,31,28,997,491.0,647,459,60,122.0,130,1,282,110,65,0,0,483,248,-23367,491,45.700821,4.909657,49.42,198.6,0,0.0,0,0.0,1.06,1,0.0,6.3438
380650,1560684545413,2,2.26,1.96,3.34,1.8,3.08,1.42,-0.36,0.68,1,1,-2,1.46,8949,18,78,31,28,981,490.0,655,451,60,121.0,131,1,282,188,64,0,0,483,1,3580,486,,,,,,,,,,,,
380670,1560684545433,2,2.27,1.99,3.32,1.83,3.1,1.42,-0.34,0.7,1,1,-1,1.46,8894,18,78,31,28,962,487.0,655,457,60,121.0,131,1,282,188,64,0,0,477,505,-9203,485,,,,,,,,,,,,
380690,1560684545453,-0,2.26,2.0,3.32,1.82,3.11,1.48,-0.38,0.77,1,-1,-1,1.53,8869,18,78,31,28,942,482.0,647,456,60,122.0,131,1,282,188,64,0,0,476,-899,2212,483,,,,,,,,,,,,
380710,1560684545473,0,2.26,1.99,3.32,1.81,3.12,1.45,-0.36,0.74,2,-0,-1,1.49,8798,18,78,31,28,935,483.0,648,457,60,122.0,131,1,282,188,64,0,0,473,8488,8488,483,,,,,,,,,,,,
380730,1560684545493,5,2.26,1.99,3.33,1.79,3.13,1.37,-0.36,0.65,2,0,-1,1.42,8786,18,78,31,28,932,481.0,653,457,60,121.0,131,1,282,188,64,0,0,470,32033,243,480,45.700829,4.909664,48.52,198.5,0,0.0,0,0.0,1.0617,1,0.0,6.3455
380750,1560684545513,5,2.27,1.96,3.33,1.79,3.12,1.25,-0.32,0.56,3,0,-2,1.29,8712,18,78,31,29,928,481.0,656,457,60,121.0,128,1,287,188,62,0,0,470,32033,-17956,479,,,,,,,,,,,,
380770,1560684545533,3,2.26,1.96,3.32,1.79,3.12,1.19,-0.25,0.47,2,-0,-1,1.21,8745,18,78,31,29,925,479.0,647,455,60,121.0,128,1,287,188,62,0,0,470,10305,-3210,477,,,,,,,,,,,,
380790,1560684545553,3,2.26,1.95,3.31,1.78,3.1,1.2,-0.19,0.49,2,-2,-1,1.22,8737,18,78,31,28,924,478.0,632,458,60,122.0,128,1,282,188,62,0,0,466,16648,30272,476,,,,,,,,,,,,
380810,1560684545573,1,2.26,1.96,3.33,1.79,3.11,1.26,-0.22,0.52,2,-3,-1,1.28,8704,18,78,31,29,924,475.0,649,455,60,121.0,128,1,287,188,62,0,0,463,-17956,2211,473,,,,,,,,,,,,
380830,1560684545593,-1,2.27,1.97,3.33,1.8,3.11,1.23,-0.2,0.43,2,-0,-1,1.25,8684,18,78,31,29,925,471.0,647,456,60,121.0,128,1,287,188,62,0,0,461,32033,12552,471,45.700844,4.909671,47.37,198.5,0,0.0,0,0.0,1.0633,1,0.0,6.3472
380850,1560684545613,5,2.26,1.98,3.35,1.81,3.1,1.1,-0.23,0.31,3,1,-1,1.12,8648,18,78,31,30,926,470.0,649,457,60,121.0,129,1,291,188,61,0,0,461,10432,12552,469,,,,,,,,,,,,
380870,1560684545633,4,2.26,1.97,3.34,1.82,3.08,1.08,-0.18,0.28,2,0,-1,1.09,8565,18,78,31,29,928,466.0,642,460,60,122.0,129,1,287,188,61,0,0,456,-3210,17628,466,,,,,,,,,,,,
380890,1560684545653,2,2.27,1.96,3.32,1.81,3.09,1.11,-0.14,0.38,1,-0,0,1.12,8514,18,78,31,30,929,467.0,644,458,60,122.0,129,1,291,188,61,0,0,460,30272,-23623,466,,,,,,,,,,,,
380910,1560684545673,4,2.27,1.97,3.27,1.79,3.07,1.1,-0.09,0.33,2,0,1,1.1,8495,18,78,31,30,930,464.0,649,455,60,121.0,129,1,290,188,61,0,0,457,16408,14488,463,,,,,,,,,,,,
380930,1560684545695,4,2.26,1.96,3.28,1.77,3.09,1.14,-0.08,0.33,1,0,0,1.14,8499,18,78,31,30,931,461.0,644,458,60,122.0,129,1,290,187,61,0,0,449,2211,3571,460,45.700851,4.909678,46.59,198.4,0,0.0,0,0.0,1.065,1,0.0,6.3488
380950,1560684545715,-0,2.26,1.95,3.31,1.76,3.1,1.16,-0.06,0.38,2,-1,1,1.17,8461,18,78,31,30,931,462.0,655,453,60,121.0,128,1,290,185,59,0,0,452,12552,15649,460,,,,,,,,,,,,
380970,1560684545735,5,2.26,1.92,3.34,1.77,3.1,1.11,-0.06,0.3,2,2,1,1.12,8408,18,78,31,30,931,461.0,652,457,60,121.0,128,1,290,182,59,0,0,451,2211,-3267,458,,,,,,,,,,,,
380990,1560684545755,4,2.25,1.91,3.34,1.78,3.09,1.11,-0.05,0.31,1,1,2,1.11,8337,18,78,31,29,931,458.0,629,456,60,122.0,128,1,284,180,59,0,0,448,-9160,16648,458,,,,,,,,,,,,
381010,1560684545775,4,2.25,1.91,3.28,1.81,3.1,1.1,-0.1,0.33,0,1,4,1.1,8296,18,78,31,29,932,456.0,648,456,60,121.0,128,1,284,178,59,0,0,449,2524,8488,456,,,,,,,,,,,,
381030,1560684545793,3,2.26,1.95,3.23,1.85,3.13,1.13,-0.07,0.38,0,1,4,1.13,8344,18,78,31,29,933,453.0,635,456,60,121.0,128,1,284,179,59,0,0,446,-6387,10305,453,45.700863,4.909685,45.46,198.4,0,0.0,0,0.0,1.0667,1,0.0,6.3505
381050,1560684545813,3,2.27,1.99,3.22,1.86,3.15,1.14,-0.06,0.44,0,0,3,1.14,8355,18,78,31,29,934,451.0,643,455,60,122.0,123,1,285,180,56,0,0,439,10305,20625,451,,,,,,,,,,,,
381070,1560684545833,3,2.27,1.98,3.23,1.88,3.19,1.09,0.0,0.3,1,0,3,1.09,8311,18,78,32,28,935,449.0,637,456,60,121.0,123,1,281,178,56,0,0,441,2131,-18341,449,,,,,,,,,,,,
381090,1560684545853,2,2.27,1.96,3.25,1.89,3.13,1.04,-0.04,0.38,2,1,4,1.04,8267,18,78,32,28,933,449.0,635,457,60,122.0,123,1,280,176,56,0,0,439,21432,-18341,449,,,,,,,,,,,,
381110,1560684545873,5,2.27,1.94,3.27,1.88,3.06,1.03,-0.02,0.32,2,0,3,1.04,8285,18,78,32,27,932,447.0,645,456,60,121.0,123,1,276,177,56,0,0,443,2131,20625,446,,,,,,,,,,,,
381130,1560684545893,2,2.27,1.93,3.27,1.87,3.01,1.09,-0.11,0.38,2,0,3,1.1,8241,18,78,32,27,929,443.0,636,456,60,122.0,123,1,276,174,56,0,0,439,23400,20625,443,45.70087,4.909692,44.74,198.4,0,0.0,0,0.0,1.0683,1,0.0,6.3522
381150,1560684545913,4,2.28,1.92,3.27,1.85,3.01,1.11,-0.08,0.3,1,-1,3,1.11,8162,18,79,32,27,926,442.0,636,456,60,122.0,119,1,276,170,53,0,0,439,23400,19477,443,,,,,,,,,,,,
381170,1560684545933,7,2.27,1.93,3.27,1.85,3.03,1.14,-0.1,0.35,1,-1,2,1.14,8109,18,79,32,27,921,443.0,642,457,60,122.0,119,1,276,167,53,0,0,436,20625,-7939,442,,,,,,,,,,,,
381190,1560684545953,3,2.28,1.94,3.3,1.86,3.07,1.18,-0.1,0.34,-0,-2,2,1.19,8099,18,78,32,27,916,441.0,637,458,60,122.0,119,1,276,166,53,0,0,435,26704,-3322,440,,,,,,,,,,,,
381210,1560684545973,4,2.28,1.94,3.32,1.85,3.11,1.16,-0.09,0.37,-0,-3,2,1.17,8047,18,78,32,27,913,439.0,645,456,60,121.0,119,1,275,162,53,0,0,432,-28332,-3314,438,,,,,,,,,,,,
381230,1560684545993,2,2.28,1.94,3.33,1.85,3.1,1.18,-0.19,0.45,0,-3,1,1.2,7968,18,78,32,27,910,438.0,635,456,60,122.0,119,1,275,161,53,0,0,430,-7939,-3314,438,45.70087,4.909692,44.74,198.4,0,0.0,0,0.0,1.0683,1,0.0,6.3538
381250,1560684546009,3,2.3,1.94,3.33,1.85,3.09,1.24,-0.16,0.45,-0,-4,1,1.25,7999,18,79,32,27,907,437.0,621,457,60,122.0,109,1,275,161,48,0,0,427,-768,13552,437,,,,,,,,,,,,
381270,1560684546029,4,2.29,1.93,3.32,1.84,3.07,1.2,-0.12,0.44,-0,-4,1,1.21,7961,18,78,32,27,904,434.0,642,457,60,121.0,109,1,275,161,48,0,0,429,-3322,13180,434,,,,,,,,,,,,
381290,1560684546049,7,2.3,1.93,3.31,1.85,3.08,1.16,-0.2,0.45,1,-5,1,1.18,7914,18,79,32,27,904,432.0,641,455,60,122.0,109,1,275,163,48,0,0,426,1779,31796,432,,,,,,,,,,,,
381310,1560684546069,2,2.29,1.93,3.31,1.84,3.06,1.24,-0.17,0.53,1,-5,2,1.25,7918,18,79,32,28,904,431.0,636,457,60,122.0,109,1,278,163,48,0,0,423,13180,13552,431,,,,,,,,,,,,
381330,1560684546089,4,2.3,1.94,3.31,1.84,3.06,1.25,-0.13,0.52,1,-5,0,1.26,7881,18,79,32,28,907,429.0,628,453,60,121.0,109,1,278,163,48,0,0,421,13180,-8165,429,45.700882,4.909698,43.98,198.3,0,0.0,0,0.0,1.07,1,0.0,6.3555
381350,1560684546109,6,2.29,1.93,3.32,1.83,3.04,1.19,-0.14,0.48,1,-5,1,1.2,7878,18,78,32,28,910,427.0,630,458,60,122.0,112,1,277,163,48,0,0,420,-3856,7154,427,,,,,,,,,,,,
381370,1560684546129,5,2.3,1.92,3.33,1.82,3.02,1.19,-0.18,0.49,1,-4,3,1.2,7858,18,78,32,28,913,426.0,626,456,60,122.0,112,1,277,163,48,0,0,415,-3414,7154,426,,,,,,,,,,,,
381390,1560684546149,3,2.29,1.92,3.34,1.82,3.04,1.22,-0.16,0.5,1,-4,2,1.23,7809,18,78,32,28,915,424.0,624,453,60,122.0,112,1,277,163,48,0,0,417,-21792,7154,424,,,,,,,,,,,,
381410,1560684546169,5,2.29,1.93,3.34,1.83,3.03,1.25,-0.1,0.49,0,-3,2,1.25,7805,18,79,32,29,918,421.0,623,457,60,122.0,112,1,280,164,48,0,0,418,7154,-9166,421,,,,,,,,,,,,
381430,1560684546195,6,2.31,1.92,3.34,1.82,3.05,1.18,-0.09,0.41,1,-2,3,1.19,7722,18,79,32,29,921,420.0,631,455,60,121.0,112,1,280,164,48,0,0,414,-3414,18584,420,45.700901,4.909712,42.31,198.3,0,0.0,0,0.0,1.0733,1,0.0,6.3572
381450,1560684546215,5,2.31,1.93,3.32,1.83,3.03,1.01,-0.03,0.38,2,-1,3,1.01,7674,18,79,32,29,920,419.0,643,455,60,121.0,114,1,279,164,48,0,0,411,-26615,11560,419,,,,,,,,,,,,
381470,1560684546235,5,2.32,1.93,3.32,1.84,3.06,0.88,-0.07,0.37,3,-0,4,0.88,7656,18,79,32,29,919,418.0,632,457,60,121.0,114,1,279,164,48,0,0,404,-9166,-26615,418,,,,,,,,,,,,
381490,1560684546255,9,2.32,1.92,3.33,1.84,3.06,0.89,-0.12,0.39,4,1,4,0.9,7609,18,79,32,29,919,416.0,624,456,60,121.0,114,1,279,164,48,0,0,404,9517,-4059,416,,,,,,,,,,,,
381510,1560684546275,8,2.31,1.91,3.33,1.83,3.05,0.92,-0.18,0.44,5,1,5,0.94,7591,18,79,32,30,919,416.0,631,456,60,122.0,114,1,282,166,48,0,0,403,11560,-9166,416,,,,,,,,,,,,
381530,1560684546295,9,2.31,1.91,3.33,1.84,3.03,0.93,-0.25,0.47,5,2,5,0.96,7539,18,79,32,30,919,414.0,642,456,60,122.0,114,1,282,166,48,0,0,403,10392,2524,414,45.700912,4.909719,41.26,198.3,0,0.0,0,0.0,1.075,1,0.0,6.3588
381550,1560684546315,30,2.31,1.91,3.33,1.84,3.03,0.93,-0.32,0.5,5,2,6,0.98,7548,18,79,32,30,919,410.0,624,459,60,122.0,113,1,282,166,47,0,0,396,-8151,2524,410,,,,,,,,,,,,
