"Interval"|"ms"|0|0|1,"Utc"|"ms"|0|0|1,"FB_p"|"bar"|0|300|50,"Volant"|"F"|0.0|300.0|50,"xFR"|"mm"|0.0|5.0|50,"xRR"|"mm"|0.0|5.0|50,"xFL"|"mm"|0.0|5.0|50,"xRL"|"mm"|0.0|5.0|50,"AccelX"|"G"|-3.0|3.0|50,"AccelY"|"G"|-3.0|3.0|50,"AccelZ"|"G"|-3.0|3.0|50,"Yaw"|"Deg/Sec"|-120|120|50,"Pitch"|"Deg/Sec"|-120|120|50,"Roll"|"Deg/Sec"|-120|120|50,"Gsum"|"G"|0.0|3.0|50,"RPM"|""|0|14000|50,"TPS"|"%"|0|100|50,"WaterTemp"|"?C"|0|300|50,"AirTemp"|"?C"|-1000|1000|50,"MAP"|"KPa"|0|255|50,"Lambda"|""|0|1024|50,"WheelSpeed"|"MPH"|0.0|150.0|50,"OilPress"|"PSI"|0|150|50,"FuelPress"|"PSI"|0|150|50,"OilTemp"|"F"|0|300|50,"Battery"|"Volts"|0.0|20.0|50,"FuelCon"|"L/h"|-1000|1000|50,"Gear"|""|0|10|50,"Advance"|"Deg"|-360|360|50,"Injection"|"ms"|-1000|1000|50,"FuelCon"|"L/100km"|-1000|1000|50,"LC_But_Pres"|""|-1000|1000|50,"LC_Active"|""|-1000|1000|50,"RD_Speed"|""|-1000|1000|50,"RUD_Speed"|""|-1000|1000|50,"LD_Speed"|""|-1000|1000|50,"LUD_Speed"|""|-1000|1000|50,"Latitude"|"Degrees"|-180.0|180.0|10,"Longitude"|"Degrees"|-180.0|180.0|10,"Speed"|"kph"|0.0|150.0|10,"Altitude"|"m"|0.0|4000.0|10,"LapCount"|""|0|0|10,"LapTime"|"Min"|0.0|0.0|10,"Sector"|""|0|0|10,"SectorTime"|"Min"|0.0|0.0|10,"ElapsedTime"|"Min"|0.0|0.0|10,"CurrentLap"|""|0|0|10,"Distance"|"km"|0.0|0.0|10,"SessionTime"|"Min"|0.0|0.0|10
407163,1560691678976,2,2.29,1.9,3.39,1.92,5.04,1.27,-0.22,0.61,4,-0,4,1.28,7799,12,89,34,21,938,501.0,550,460,60,119.0,83,1,267,149,42,0,0,477,771,10305,501,,,,,,,,,,,,
407183,1560691678996,4,2.3,1.88,3.41,1.93,5.03,1.25,-0.16,0.52,3,0,3,1.26,7861,13,89,34,22,935,499.0,552,458,60,119.0,83,1,268,151,42,0,0,472,-6656,32033,498,,,,,,,,,,,,
407203,1560691679010,0,2.29,1.88,3.42,1.9,5.04,1.27,-0.19,0.46,2,-0,5,1.28,7992,13,89,34,23,931,495.0,571,461,60,118.0,83,1,269,151,42,0,0,470,1,243,495,,,,,,,,,,,,
407223,1560691679030,2,2.28,1.88,3.41,1.88,5.04,1.31,-0.15,0.5,2,-1,4,1.32,8127,13,89,34,23,930,491.0,576,457,60,118.0,83,1,270,159,42,0,0,473,-6441,12552,491,,,,,,,,,,,,
407243,1560691679050,-1,2.28,1.89,3.42,1.88,5.04,1.3,-0.21,0.49,2,-2,3,1.32,8209,13,89,34,23,928,489.0,573,460,60,118.0,97,1,270,163,48,0,0,462,-10483,10305,489,45.699047,4.910087,50.37,195.9,3,1.675,0,0.0,1.055,4,0.75,6.7874
407263,1560691679070,5,2.28,1.91,3.42,1.88,5.04,1.29,-0.24,0.47,2,-2,3,1.32,8318,14,89,34,23,929,485.0,592,460,60,118.0,97,1,270,168,48,0,0,451,32033,243,484,,,,,,,,,,,,
407283,1560691679096,2,2.26,1.91,3.42,1.89,5.04,1.33,-0.23,0.46,2,-3,3,1.35,8449,14,89,34,23,929,481.0,589,459,60,118.0,97,1,270,173,48,0,0,457,-23367,14488,481,,,,,,,,,,,,
407303,1560691679116,0,2.26,1.92,3.42,1.89,5.04,1.33,-0.23,0.4,1,-4,4,1.35,8546,14,89,34,23,930,477.0,590,458,60,118.0,97,1,270,176,48,0,0,454,-17956,15649,477,,,,,,,,,,,,
407323,1560691679136,4,2.26,1.98,3.38,1.9,5.03,1.22,-0.16,0.36,1,-2,4,1.23,8632,14,89,34,23,932,475.0,592,455,60,118.0,97,1,270,170,48,0,0,454,-1923,-9160,473,,,,,,,,,,,,
407343,1560691679156,3,2.24,2.01,3.36,1.89,5.03,1.18,-0.17,0.39,1,-2,3,1.19,8652,14,89,34,22,931,471.0,595,461,60,118.0,120,1,270,170,57,0,0,463,-16384,14488,471,45.699036,4.910077,48.41,195.9,3,1.675,0,0.0,1.0567,4,0.75,6.7891
407363,1560691679176,3,2.24,2.02,3.36,1.88,5.06,1.24,-0.25,0.44,0,-1,2,1.26,8660,14,90,34,22,930,467.0,596,459,60,118.0,120,1,270,170,57,0,0,456,243,17628,467,,,,,,,,,,,,
407383,1560691679198,1,2.24,2.06,3.34,1.89,5.04,1.21,-0.11,0.31,-0,-2,2,1.21,8644,15,89,34,22,928,467.0,612,460,60,119.0,120,1,270,170,57,0,0,459,243,-9160,465,,,,,,,,,,,,
407403,1560691679218,3,2.23,2.12,3.32,1.9,5.04,1.11,0.02,0.28,-1,-0,1,1.11,8581,15,90,34,22,925,466.0,613,461,60,118.0,120,1,270,170,57,0,0,463,-3210,-18108,464,,,,,,,,,,,,
407423,1560691679238,2,2.22,2.13,3.33,1.88,5.05,1.05,-0.01,0.37,-1,-0,1,1.05,8561,15,90,34,22,925,464.0,610,458,60,118.0,120,1,270,170,57,0,0,460,16408,-8985,458,,,,,,,,,,,,
407443,1560691679258,0,2.21,2.17,3.32,1.88,5.06,1.12,-0.02,0.33,-2,-1,1,1.12,8503,15,90,34,22,927,464.0,603,461,60,118.0,120,1,270,170,55,0,0,457,30272,-8985,457,45.699028,4.910067,46.81,195.9,3,1.675,0,0.0,1.0583,4,0.75,6.7907
407463,1560691679278,4,2.21,2.18,3.31,1.87,5.07,1.04,0.03,0.35,-2,0,0,1.04,8453,15,89,34,22,930,465.0,601,453,60,118.0,120,1,270,168,55,0,0,460,30272,15649,457,,,,,,,,,,,,
407483,1560691679298,2,2.2,2.2,3.31,1.88,5.04,1.03,-0.02,0.4,-3,-0,-1,1.03,8378,15,90,34,23,935,464.0,606,456,60,118.0,120,1,270,170,55,0,0,457,16408,-6387,456,,,,,,,,,,,,
407503,1560691679318,4,2.21,2.21,3.29,1.87,5.05,1.08,0.02,0.32,-3,-1,-2,1.08,8351,15,89,34,23,940,461.0,607,462,60,118.0,120,1,270,169,55,0,0,453,2211,16648,451,,,,,,,,,,,,
407523,1560691679338,3,2.19,2.21,3.28,1.87,5.04,0.99,0.05,0.38,-3,-1,-3,0.99,8344,15,90,34,23,946,461.0,601,458,60,118.0,120,1,270,170,55,0,0,450,-23623,10305,450,,,,,,,,,,,,
407543,1560691679358,-1,2.2,2.21,3.28,1.87,5.06,1.02,0.05,0.34,-4,-1,-4,1.02,8359,15,90,34,23,951,460.0,587,461,60,118.0,119,1,270,169,54,0,0,449,-23623,23400,447,45.699017,4.910057,45.98,195.8,3,1.675,0,0.0,1.06,4,0.76,6.7924
407563,1560691679378,2,2.19,2.22,3.27,1.88,5.04,0.94,0.09,0.39,-4,2,-4,0.94,8340,15,90,34,23,952,457.0,583,453,60,118.0,119,1,270,167,54,0,0,446,-9160,2131,447,,,,,,,,,,,,
407583,1560691679398,-2,2.19,2.22,3.27,1.86,5.08,0.99,0.1,0.39,-4,-1,-5,1.0,8300,15,90,34,24,953,456.0,588,456,60,118.0,119,1,270,172,54,0,0,444,14488,20625,444,,,,,,,,,,,,
407603,1560691679418,1,2.19,2.22,3.24,1.85,5.05,1.04,0.16,0.45,-5,-1,-6,1.05,8278,15,90,34,24,954,454.0,589,458,60,118.0,119,1,270,166,54,0,0,450,2524,-7939,442,,,,,,,,,,,,
407623,1560691679438,-1,2.19,2.22,3.24,1.85,5.05,1.04,0.15,0.43,-6,-1,-7,1.05,8270,15,90,34,24,954,454.0,583,459,60,118.0,119,1,270,170,54,0,0,445,2524,243,439,,,,,,,,,,,,
407643,1560691679458,3,2.18,2.23,3.23,1.85,5.05,1.06,0.22,0.38,-7,-1,-8,1.08,8238,15,90,34,24,954,455.0,583,460,60,118.0,117,1,270,168,52,0,0,449,-26615,-28332,439,45.699009,4.910047,45.02,195.8,3,1.675,0,0.0,1.0617,4,0.76,6.7941
407663,1560691679478,-1,2.18,2.23,3.22,1.84,5.07,0.94,0.27,0.34,-6,1,-8,0.98,8169,16,90,34,24,953,452.0,580,463,60,119.0,117,1,270,165,52,0,0,445,-6387,1779,436,,,,,,,,,,,,
407683,1560691679498,2,2.19,2.21,3.22,1.83,5.06,0.93,0.29,0.37,-7,0,-9,0.97,8134,16,90,34,24,953,449.0,587,461,60,118.0,117,1,270,165,52,0,0,448,15649,-3314,435,,,,,,,,,,,,
407703,1560691679518,4,2.18,2.21,3.23,1.83,5.08,0.88,0.36,0.29,-7,2,-9,0.95,8152,16,90,34,25,952,450.0,578,460,60,119.0,117,1,270,168,52,0,0,440,-3267,13180,435,,,,,,,,,,,,
407723,1560691679538,-0,2.18,2.23,3.22,1.84,5.04,0.89,0.37,0.36,-7,3,-10,0.96,8102,16,90,34,25,953,446.0,578,459,60,118.0,117,1,270,165,52,0,0,441,-3267,-4082,433,,,,,,,,,,,,
407743,1560691679558,4,2.18,2.26,3.22,1.85,5.04,0.85,0.47,0.25,-7,2,-9,0.97,8071,16,90,34,25,953,446.0,583,462,60,118.0,115,1,270,163,50,0,0,440,16648,3635,431,45.698998,4.910038,44.25,195.8,3,1.675,0,0.0,1.0633,4,0.76,6.7957
407763,1560691679578,-0,2.19,2.24,3.22,1.84,5.08,0.86,0.42,0.27,-8,3,-9,0.96,8085,16,90,34,25,954,445.0,575,462,60,118.0,115,1,270,164,50,0,0,436,-18341,13552,429,,,,,,,,,,,,
407783,1560691679597,2,2.18,2.24,3.21,1.83,5.04,0.88,0.46,0.33,-9,4,-9,0.99,8064,16,90,34,26,955,442.0,567,458,60,117.0,115,1,273,162,50,0,0,435,23400,-3314,428,,,,,,,,,,,,
407803,1560691679617,4,2.19,2.23,3.21,1.84,5.03,0.86,0.51,0.3,-9,3,-10,1.01,8012,16,90,34,25,955,443.0,567,460,60,119.0,115,1,270,159,50,0,0,436,26704,-21792,428,,,,,,,,,,,,
407823,1560691679637,0,2.19,2.25,3.16,1.84,5.07,0.9,0.45,0.28,-9,2,-9,1.0,8019,16,90,35,26,956,441.0,561,459,60,119.0,115,1,272,160,50,0,0,436,26704,3826,426,,,,,,,,,,,,
407843,1560691679657,2,2.19,2.25,3.17,1.86,5.08,0.91,0.42,0.3,-9,2,-9,1.0,7982,16,90,35,26,953,439.0,555,456,60,118.0,112,1,272,159,48,0,0,432,-28332,-3414,424,45.69899,4.91003,43.31,195.7,3,1.675,0,0.0,1.065,4,0.76,6.7974
407863,1560691679677,2,2.2,2.24,3.19,1.84,5.04,0.94,0.42,0.33,-9,1,-9,1.03,7928,16,90,35,26,949,436.0,560,461,60,119.0,112,1,272,159,48,0,0,430,5600,-3414,423,,,,,,,,,,,,
407883,1560691679697,3,2.21,2.24,3.2,1.85,5.04,1.0,0.35,0.39,-10,1,-10,1.06,7941,16,90,35,26,945,434.0,563,461,60,118.0,112,1,272,159,48,0,0,430,-768,2524,423,,,,,,,,,,,,
407903,1560691679717,1,2.21,2.24,3.2,1.84,5.04,1.01,0.35,0.45,-10,2,-10,1.07,7901,16,90,35,27,941,436.0,561,457,60,118.0,112,1,275,160,48,0,0,426,5600,-3414,421,,,,,,,,,,,,
407923,1560691679737,1,2.21,2.23,3.19,1.84,5.06,0.98,0.42,0.4,-10,2,-9,1.07,7855,16,90,35,27,932,433.0,561,462,60,118.0,112,1,274,160,48,0,0,425,243,-3414,422,,,,,,,,,,,,
407943,1560691679757,-1,2.22,2.23,3.17,1.86,5.05,0.98,0.38,0.36,-10,2,-9,1.05,7871,16,90,35,27,922,431.0,560,460,60,118.0,111,1,274,160,47,0,0,428,1779,-3414,419,45.698978,4.910022,42.31,195.7,3,1.675,0,0.0,1.0667,4,0.76,6.799
407963,1560691679777,4,2.22,2.24,3.18,1.85,5.05,0.92,0.29,0.37,-9,3,-10,0.96,7822,16,90,35,27,916,429.0,552,460,60,119.0,111,1,274,160,47,0,0,425,3635,-26615,416,,,,,,,,,,,,
407983,1560691679797,0,2.23,2.24,3.2,1.86,5.06,0.92,0.27,0.42,-8,2,-11,0.96,7812,16,90,35,28,911,427.0,570,461,60,118.0,111,1,277,162,47,0,0,421,13552,9517,417,,,,,,,,,,,,
408003,1560691679817,-1,2.24,2.22,3.21,1.86,5.06,0.91,0.32,0.42,-7,2,-11,0.97,7825,16,90,35,28,904,426.0,565,457,60,118.0,111,1,277,162,47,0,0,418,13552,-26615,417,,,,,,,,,,,,
408023,1560691679837,2,2.25,2.21,3.21,1.88,5.08,0.86,0.35,0.39,-7,2,-10,0.93,7770,16,90,35,28,897,423.0,549,461,60,119.0,111,1,276,162,47,0,0,420,3826,2524,418,,,,,,,,,,,,
408043,1560691679857,4,2.26,2.21,3.21,1.89,5.07,0.83,0.31,0.36,-7,0,-10,0.88,7776,16,90,35,28,893,422.0,546,458,60,119.0,112,1,276,162,47,0,0,417,-3414,13040,416,45.698971,4.910015,41.77,195.7,3,1.675,0,0.0,1.0683,4,0.76,6.8007
408063,1560691679877,4,2.26,2.21,3.21,1.91,5.08,0.85,0.19,0.31,-6,0,-9,0.87,7722,16,90,35,28,891,421.0,537,460,60,119.0,112,1,276,162,47,0,0,417,-21792,13040,416,,,,,,,,,,,,
408083,1560691679895,4,2.26,2.21,3.21,1.92,5.04,0.95,0.1,0.37,-6,0,-7,0.96,7735,16,90,35,28,890,418.0,543,460,60,118.0,112,1,276,162,47,0,0,415,-3414,-9166,414,,,,,,,,,,,,
408103,1560691679915,1,2.26,2.2,3.21,1.93,5.04,0.96,0.1,0.5,-5,1,-7,0.96,7709,16,90,35,28,889,417.0,541,457,60,117.0,112,1,276,162,47,0,0,412,-21944,11560,414,,,,,,,,,,,,
408123,1560691679935,-0,2.25,2.18,3.22,1.92,5.06,0.92,0.12,0.52,-5,1,-7,0.93,7671,16,90,35,29,890,416.0,541,458,60,117.0,112,1,279,162,47,0,0,412,18584,-4059,414,,,,,,,,,,,,
408143,1560691679955,0,2.25,2.17,3.23,1.92,5.04,0.91,0.23,0.49,-4,1,-6,0.94,7659,16,90,35,29,891,416.0,540,458,60,118.0,113,1,279,163,47,0,0,413,-26615,11560,415,45.698959,4.910008,42.02,195.6,3,1.675,0,0.0,1.07,4,0.76,6.8024
408163,1560691679975,3,2.25,2.19,3.23,1.93,5.07,0.86,0.31,0.45,-4,1,-7,0.91,7615,16,90,35,29,892,414.0,535,460,60,118.0,113,1,279,163,47,0,0,409,-9166,-4059,412,,,,,,,,,,,,
408183,1560691679995,2,2.25,2.2,3.25,1.94,5.04,0.86,0.33,0.4,-4,-1,-8,0.92,7621,16,90,35,29,893,412.0,547,461,60,118.0,113,1,279,163,47,0,0,407,13040,11560,410,,,,,,,,,,,,
408203,1560691680009,1,2.25,2.18,3.3,1.91,5.04,0.85,0.35,0.27,-4,1,-7,0.92,7594,16,90,35,29,893,411.0,537,458,60,119.0,113,1,279,163,47,0,0,405,-4059,-26615,409,,,,,,,,,,,,
408223,1560691680029,2,2.25,2.17,3.3,1.92,5.06,0.81,0.33,0.13,-4,1,-5,0.88,7597,16,90,35,29,893,413.0,539,461,60,119.0,113,1,279,163,47,0,0,407,-9166,-26615,410,,,,,,,,,,,,
408243,1560691680049,1,2.26,2.2,3.3,1.93,5.07,0.72,0.29,0.06,-4,2,-4,0.78,7569,16,90,35,29,893,411.0,550,461,60,118.0,112,1,279,163,46,0,0,409,-4059,9517,407,45.698952,4.91,40.71,195.6,3,1.675,0,0.0,1.0717,4,0.76,6.804
408263,1560691680069,1,2.26,2.2,3.25,1.92,5.05,0.71,0.26,-0.02,-3,1,-3,0.76,7569,16,90,35,29,892,410.0,548,458,60,119.0,112,1,279,163,46,0,0,404,11560,10541,406,,,,,,,,,,,,
408283,1560691680099,3,2.26,2.18,3.24,1.92,5.07,0.77,0.22,-0.06,-3,1,-2,0.81,7518,16,90,35,29,892,407.0,534,459,60,118.0,112,1,279,163,46,0,0,402,9517,-8151,404,,,,,,,,,,,,
408303,1560691680119,4,2.26,2.18,3.24,1.92,5.03,0.82,0.11,-0.0,-3,1,-1,0.83,7524,16,90,35,29,892,408.0,536,461,60,119.0,112,1,279,163,46,0,0,404,10392,6512,406,,,,,,,,,,,,
408323,1560691680139,2,2.27,2.18,3.23,1.92,5.06,0.76,0.05,0.07,-2,1,-3,0.77,7494,16,90,35,29,895,406.0,530,460,60,119.0,112,1,278,163,46,0,0,402,2524,28696,405,,,,,,,,,,,,
408343,1560691680159,3,2.27,2.18,3.24,1.93,5.04,0.79,0.03,0.04,-1,0,-3,0.79,7497,16,90,35,29,901,405.0,526,460,60,119.0,113,1,278,163,46,0,0,398,-9211,-32702,403,45.698944,4.909994,40.52,195.6,3,1.675,0,0.0,1.0733,4,0.77,6.8057
408363,1560691680179,4,2.27,2.16,3.25,1.93,5.03,0.78,-0.04,0.01,-1,-0,-3,0.78,7449,16,90,35,29,906,403.0,528,457,60,119.0,113,1,278,163,46,0,0,396,-8151,1504,403,,,,,,,,,,,,
408383,1560691680197,1,2.29,2.17,3.25,1.93,5.07,0.77,-0.09,-0.02,-1,0,-2,0.78,7434,16,90,35,29,911,403.0,530,460,60,118.0,113,1,278,163,46,0,0,398,-8151,11545,401,,,,,,,,,,,,
408403,1560691680217,4,2.28,2.17,3.26,1.94,5.04,0.69,-0.11,-0.08,-0,1,-1,0.7,7396,16,90,35,29,918,400.0,525,458,60,119.0,113,1,278,163,46,0,0,397,28696,11545,400,,,,,,,,,,,,
408423,1560691680237,1,2.3,2.16,3.26,1.94,5.04,0.67,-0.07,-0.16,-0,1,-2,0.67,7396,16,90,35,29,926,399.0,528,462,60,119.0,113,1,278,163,46,0,0,394,-3968,17144,399,,,,,,,,,,,,
408443,1560691680257,1,2.3,2.16,3.28,1.94,5.04,0.68,0.04,-0.18,0,-0,-1,0.68,7347,16,90,35,29,933,399.0,539,459,60,117.0,112,1,278,163,45,0,0,394,-3968,-6656,399,45.698936,4.909987,39.65,195.5,3,1.675,0,0.0,1.075,4,0.77,6.8074
408463,1560691680277,0,2.29,2.17,3.3,1.94,5.05,0.7,0.09,-0.19,-0,-1,-0,0.71,7332,16,90,35,29,937,397.0,537,463,60,118.0,112,1,278,163,45,0,0,391,17144,505,397,,,,,,,,,,,,
408483,1560691680297,-0,2.3,2.16,3.29,1.94,5.04,0.81,0.08,-0.03,-1,-1,0,0.81,7298,16,90,35,30,940,396.0,537,460,60,118.0,112,1,282,165,45,0,0,388,17144,-6656,396,,,,,,,,,,,,
408503,1560691680317,5,2.28,2.16,3.3,1.94,5.04,0.92,0.0,0.17,-0,-0,0,0.92,7301,16,90,35,30,946,396.0,524,460,60,118.0,112,1,282,165,45,0,0,390,17144,-1562,396,,,,,,,,,,,,
408523,1560691680337,4,2.3,2.16,3.29,1.94,5.04,0.94,-0.08,0.26,-0,-1,-1,0.95,7275,16,90,35,30,952,395.0,525,455,60,118.0,112,1,282,165,45,0,0,388,1,-1562,395,,,,,,,,,,,,
408543,1560691680357,4,2.29,2.16,3.3,1.94,5.06,0.88,-0.13,0.2,0,-1,0,0.89,7231,15,90,35,30,955,393.0,524,457,60,118.0,114,1,282,165,45,0,0,390,505,-6656,393,45.698925,4.909981,39.05,195.5,3,1.675,0,0.0,1.0767,4,0.77,6.8091
408563,1560691680377,-0,2.3,2.16,3.29,1.94,5.05,0.87,-0.05,0.12,1,0,2,0.88,7239,15,90,35,30,958,391.0,518,459,60,119.0,114,1,282,165,45,0,0,386,-1562,240,391,,,,,,,,,,,,
408583,1560691680397,2,2.29,2.14,3.29,1.94,5.04,0.91,0.03,0.12,-0,-1,3,0.91,7189,15,90,35,30,964,389.0,518,458,60,119.0,114,1,281,165,45,0,0,383,-31744,-3866,390,,,,,,,,,,,,
408603,1560691680417,6,2.29,2.15,3.3,1.94,5.03,0.88,0.03,0.31,0,0,1,0.88,7186,15,90,35,30,969,390.0,517,462,60,117.0,114,1,281,165,45,0,0,383,240,-19019,390,,,,,,,,,,,,
408623,1560691680437,5,2.29,2.15,3.29,1.93,5.06,0.94,-0.03,0.37,1,-2,0,0.94,7167,15,90,35,30,972,387.0,514,458,60,119.0,114,1,281,165,45,0,0,382,-6475,19125,387,,,,,,,,,,,,
408643,1560691680457,4,2.29,2.15,3.29,1.94,5.04,0.86,-0.02,0.25,1,-0,1,0.86,7096,15,90,35,31,975,387.0,506,457,60,119.0,112,1,285,165,44,0,0,382,-19019,-992,387,45.698917,4.909975,38.44,195.5,3,1.675,0,0.0,1.0783,4,0.77,6.8107
408663,1560691680477,3,2.29,2.15,3.29,1.95,5.06,0.82,-0.0,0.13,1,-1,3,0.82,7094,15,90,35,31,979,385.0,512,459,60,119.0,112,1,285,166,44,0,0,380,19125,19125,385,,,,,,,,,,,,
408683,1560691680497,5,2.31,2.15,3.3,1.95,5.06,0.92,-0.08,0.32,0,-1,4,0.93,7056,15,90,35,31,983,382.0,511,458,60,118.0,112,1,285,166,44,0,0,378,8200,2278,382,,,,,,,,,,,,
408703,1560691680517,5,2.31,2.12,3.32,1.93,5.07,0.93,-0.07,0.37,1,0,4,0.93,7017,15,90,35,31,984,381.0,502,457,60,118.0,112,1,285,166,44,0,0,375,8200,-6656,381,,,,,,,,,,,,
408723,1560691680537,4,2.31,2.11,3.32,1.95,5.05,0.82,0.01,0.3,2,1,2,0.82,6985,15,90,35,31,986,380.0,504,458,60,119.0,112,1,285,166,44,0,0,369,8200,-6656,380,,,,,,,,,,,,
408743,1560691680557,6,2.33,2.12,3.32,1.95,5.06,0.88,-0.07,0.39,2,-2,1,0.88,6941,15,90,35,32,989,381.0,517,462,60,118.0,112,1,290,168,43,0,0,369,770,257,381,45.69891,4.909968,37.39,195.4,3,1.675,0,0.0,1.08,4,0.77,6.8124
408763,1560691680577,2,2.34,2.11,3.32,1.96,5.05,0.86,-0.13,0.33,3,1,2,0.87,6921,15,90,35,32,991,377.0,500,456,60,119.0,112,1,290,168,43,0,0,366,257,486,377,,,,,,,,,,,,
408783,1560691680598,8,2.34,2.08,3.34,1.96,5.05,0.83,-0.12,0.27,4,-0,4,0.83,6918,15,90,35,32,992,376.0,502,459,60,119.0,112,1,290,168,43,0,0,365,-6656,0,376,,,,,,,,,,,,
408803,1560691680618,4,2.35,2.05,3.35,1.96,5.07,0.92,-0.22,0.32,3,1,6,0.94,6870,15,90,35,32,993,374.0,497,457,60,119.0,112,1,290,168,43,0,0,361,0,257,374,,,,,,,,,,,,
408823,1560691680638,2,2.36,2.06,3.38,1.98,5.07,0.8,-0.12,0.28,4,1,6,0.81,6828,15,90,35,32,995,376.0,502,460,60,118.0,112,1,290,168,43,0,0,359,-1268,0,374,,,,,,,,,,,,
408843,1560691680658,6,2.36,2.06,3.37,1.99,5.08,0.85,-0.21,0.38,4,0,5,0.88,6791,15,90,35,33,997,373.0,486,459,60,119.0,117,1,292,173,44,0,0,361,2790,-6656,372,45.698898,4.909963,36.86,195.4,3,1.675,0,0.0,1.0817,4,0.77,6.8141
408863,1560691680678,2,2.38,2.04,3.36,1.98,5.08,0.83,-0.14,0.29,5,-0,5,0.84,6768,15,90,35,33,998,371.0,496,457,60,118.0,117,1,292,173,44,0,0,358,-14707,1,371,,,,,,,,,,,,
408883,1560691680698,5,2.39,2.0,3.36,1.98,5.06,0.95,-0.22,0.34,5,-2,6,0.98,6737,15,90,35,33,1000,371.0,490,457,60,118.0,117,1,292,173,44,0,0,352,-6640,0,371,,,,,,,,,,,,
408903,1560691680718,8,2.4,1.98,3.38,1.97,5.08,0.78,-0.16,0.2,7,2,9,0.8,6653,15,90,35,33,1002,369.0,476,459,60,119.0,117,1,292,173,44,0,0,349,2060,2790,369,,,,,,,,,,,,
408923,1560691680738,5,2.4,1.99,3.39,2.01,5.05,0.91,-0.25,0.19,7,2,11,0.94,6627,15,90,35,34,1006,369.0,481,462,60,118.0,117,1,295,178,44,0,0,347,-6644,-6405,369,,,,,,,,,,,,
408943,1560691680758,6,2.42,1.99,3.4,2.05,5.05,0.88,-0.26,0.26,8,0,14,0.92,6602,15,90,35,34,1009,367.0,486,461,60,117.0,119,1,295,178,44,0,0,345,2811,-14707,367,45.698891,4.909956,36.25,195.3,3,1.675,0,0.0,1.0833,4,0.77,6.8157
408963,1560691680778,2,2.42,1.99,3.4,2.08,5.04,0.81,-0.23,0.29,9,2,15,0.84,6565,15,90,35,34,1011,366.0,483,458,60,119.0,119,1,295,178,44,0,0,339,-1246,-29302,365,,,,,,,,,,,,
408983,1560691680796,5,2.43,1.99,3.46,2.1,5.05,0.86,-0.27,0.35,9,2,14,0.9,6517,15,90,35,35,1009,365.0,482,462,60,117.0,119,1,298,184,44,0,0,337,6870,-6640,365,,,,,,,,,,,,
409003,1560691680816,6,2.47,1.99,3.46,2.1,5.04,0.89,-0.27,0.47,10,-1,11,0.93,6463,15,90,35,35,1006,363.0,466,453,60,119.0,119,1,298,184,44,0,0,336,-10554,-6458,363,,,,,,,,,,,,
409023,1560691680836,1,2.5,1.97,3.46,2.11,5.05,0.86,-0.24,0.44,12,-3,9,0.89,6434,15,90,35,35,1001,362.0,463,454,60,119.0,119,1,298,184,44,0,0,332,-122,-29302,362,,,,,,,,,,,,
409043,1560691680856,2,2.51,1.93,3.48,2.12,5.08,0.87,-0.3,0.41,12,-4,9,0.92,6410,15,90,35,36,997,363.0,469,465,60,118.0,124,1,301,189,45,0,0,332,3346,-29978,363,45.698883,4.90995,35.37,195.3,3,1.675,0,0.0,1.085,4,0.77,6.8174
409063,1560691680876,3,2.53,1.91,3.49,2.12,5.04,0.92,-0.46,0.49,13,-6,8,1.03,6388,15,90,35,36,988,365.0,470,461,60,117.0,124,1,301,189,45,0,0,320,-6528,4104,365,,,,,,,,,,,,
409083,1560691680898,6,2.54,1.9,3.5,2.15,5.07,0.86,-0.51,0.44,15,-7,8,1.0,6373,15,90,35,36,978,364.0,470,460,60,118.0,124,1,301,189,45,0,0,322,-12032,-14707,364,,,,,,,,,,,,
409103,1560691680918,7,2.55,1.91,3.55,2.19,5.04,0.86,-0.52,0.33,17,-6,11,1.0,6340,15,90,35,36,969,363.0,458,455,60,119.0,124,1,301,189,45,0,0,316,170,4104,363,,,,,,,,,,,,
409123,1560691680938,1,2.56,1.89,3.57,2.19,5.07,0.97,-0.62,0.23,18,-6,15,1.16,6294,15,90,35,37,964,364.0,470,460,60,118.0,124,1,304,195,45,0,0,313,-24576,4104,364,,,,,,,,,,,,
409143,1560691680958,1,2.55,1.88,3.58,2.19,5.04,1.08,-0.73,0.16,18,-6,20,1.3,6264,15,90,35,37,961,362.0,470,463,60,117.0,127,1,304,195,46,0,0,311,155,-6640,362,45.698875,4.909943,34.43,195.2,3,1.675,0,0.0,1.0867,4,0.77,6.819
409163,1560691680978,2,2.58,1.89,3.6,2.25,5.04,1.09,-0.79,0.18,20,-5,25,1.34,6210,15,90,35,38,956,362.0,463,465,60,117.0,127,1,307,201,46,0,0,307,150,28553,362,,,,,,,,,,,,
409183,1560691680998,4,2.6,1.88,3.61,2.29,5.08,1.02,-0.91,0.21,22,-4,29,1.37,6216,15,90,35,38,954,360.0,456,463,60,118.0,127,1,307,201,46,0,0,309,145,-6640,360,,,,,,,,,,,,
409203,1560691681010,3,2.64,1.88,3.6,2.29,5.08,0.92,-0.98,0.21,24,-1,32,1.35,6186,15,90,35,38,954,359.0,461,461,60,119.0,127,1,307,201,46,0,0,309,140,-6640,359,,,,,,,,,,,,
409223,1560691681030,5,2.67,1.87,3.62,2.29,5.07,0.81,-0.91,0.14,26,2,36,1.22,6163,15,90,35,38,954,358.0,448,458,60,119.0,127,1,307,201,46,0,0,307,-30976,-6644,358,,,,,,,,,,,,
409243,1560691681050,5,2.69,1.88,3.66,2.31,5.03,0.74,-0.83,0.03,27,5,40,1.11,6133,15,90,35,39,952,358.0,441,460,60,119.0,131,1,310,207,47,0,0,302,125,-1246,358,45.698868,4.909936,33.47,195.2,3,1.675,0,0.0,1.0883,4,0.77,6.8207
409263,1560691681070,0,2.71,1.87,3.68,2.29,5.05,0.74,-0.79,-0.06,28,6,45,1.08,6117,15,90,35,39,949,357.0,435,458,60,119.0,131,1,310,207,47,0,0,291,32000,-30454,357,,,,,,,,,,,,
409283,1560691681098,1,2.71,1.87,3.69,2.31,5.05,0.87,-0.81,-0.1,28,7,50,1.19,6101,15,90,35,40,947,356.0,437,455,60,118.0,131,1,316,207,47,0,0,285,30720,-30454,356,,,,,,,,,,,,
409303,1560691681118,-0,2.71,1.84,3.68,2.32,5.06,0.96,-0.86,-0.08,28,6,55,1.29,6054,15,90,35,40,942,357.0,436,457,60,119.0,131,1,316,208,47,0,0,276,29440,8841,357,,,,,,,,,,,,
409323,1560691681138,-1,2.72,1.84,3.63,2.31,5.05,1.06,-0.94,-0.06,28,7,57,1.42,6019,15,90,35,40,934,358.0,433,453,60,119.0,131,1,316,208,47,0,0,279,28160,28553,358,,,,,,,,,,,,
409343,1560691681158,1,2.7,1.85,3.61,2.32,5.05,1.16,-0.96,-0.03,28,6,59,1.5,5978,15,90,35,40,927,357.0,435,459,60,118.0,131,1,315,207,47,0,0,291,100,8841,358,45.69886,4.909929,32.57,195.2,3,1.675,0,0.0,1.09,4,0.78,6.8224
409363,1560691681178,1,2.7,1.84,3.66,2.33,5.07,1.23,-0.95,-0.06,27,6,61,1.55,5956,15,90,35,41,922,354.0,433,458,60,118.0,131,1,321,208,47,0,0,286,25600,-1246,354,,,,,,,,,,,,
409383,1560691681198,4,2.69,1.85,3.68,2.32,5.07,1.26,-0.92,-0.08,27,8,64,1.56,5899,15,89,35,41,914,354.0,432,455,60,118.0,131,1,319,208,47,0,0,281,90,6870,354,,,,,,,,,,,,
409403,1560691681218,5,2.66,1.85,3.69,2.32,5.08,1.17,-0.9,-0.08,28,9,65,1.47,5861,15,90,35,42,901,354.0,425,454,60,119.0,131,1,324,210,47,0,0,283,90,-10554,354,,,,,,,,,,,,
409423,1560691681238,3,2.63,1.87,3.68,2.33,5.04,0.95,-0.88,-0.13,30,13,64,1.3,5815,15,90,35,42,888,353.0,421,459,60,119.0,131,1,323,210,47,0,0,280,23040,-14714,353,,,,,,,,,,,,
409443,1560691681258,2,2.58,1.88,3.67,2.34,5.05,0.71,-0.87,-0.11,33,12,63,1.12,5748,15,89,35,43,880,352.0,422,458,60,120.0,131,1,326,211,46,0,0,282,23040,-10554,352,45.698856,4.909921,32.9,195.2,3,1.675,0,0.0,1.0917,4,0.78,6.824
409463,1560691681278,-0,2.54,1.9,3.6,2.34,5.04,0.64,-0.8,-0.03,36,10,62,1.03,5699,15,89,35,44,870,347.0,427,458,60,119.0,131,1,329,212,46,0,0,284,90,-31222,347,,,,,,,,,,,,
409483,1560691681298,0,2.47,1.95,3.54,2.33,5.04,0.78,-0.8,0.08,34,5,61,1.12,5603,15,90,35,45,860,346.0,383,461,60,117.0,131,1,330,214,46,0,0,292,23040,-31222,346,,,,,,,,,,,,
409503,1560691681318,2,2.43,2.04,3.49,2.29,5.04,0.85,-0.75,0.14,30,4,59,1.13,5580,15,89,35,46,850,340.0,375,465,60,118.0,131,1,332,215,46,0,0,295,95,3327,340,,,,,,,,,,,,
409523,1560691681338,-0,2.37,2.07,3.4,2.24,5.08,0.68,-0.69,0.1,30,6,55,0.97,5532,15,89,35,47,847,333.0,364,452,60,119.0,131,1,334,215,46,0,0,299,105,-32559,333,,,,,,,,,,,,
409543,1560691681358,0,2.33,2.07,3.34,2.22,5.04,0.82,-0.57,0.13,29,2,52,1.0,5530,15,89,35,48,843,329.0,355,461,60,118.0,135,1,335,221,45,0,0,301,30720,155,329,45.698853,4.909913,32.44,195.2,3,1.675,0,0.0,1.0933,4,0.78,6.8257
409563,1560691681378,4,2.27,2.09,3.3,2.14,5.07,0.94,-0.58,0.17,23,0,49,1.1,5572,16,89,35,49,840,324.0,366,462,60,118.0,135,1,339,225,45,0,0,302,120,130,321,,,,,,,,,,,,
409583,1560691681398,3,2.21,2.13,3.29,2.06,5.06,0.82,-0.49,0.15,19,3,45,0.96,5739,16,89,35,49,839,316.0,380,456,60,120.0,135,1,349,226,45,0,0,303,120,105,316,,,,,,,,,,,,
409603,1560691681418,2,2.18,2.17,3.26,2.0,5.04,0.61,-0.29,0.15,18,5,41,0.68,5874,16,89,35,48,838,312.0,400,457,60,119.0,135,1,355,227,45,0,0,304,125,105,309,,,,,,,,,,,,
409623,1560691681438,2,2.13,2.22,3.22,1.96,5.04,0.52,-0.06,0.1,17,6,37,0.52,5994,16,89,35,48,837,312.0,411,456,60,119.0,135,1,362,222,45,0,0,309,130,25600,308,,,,,,,,,,,,
409643,1560691681458,4,2.06,2.32,3.22,1.94,5.04,0.41,0.15,0.07,15,7,33,0.43,6048,16,89,35,47,838,317.0,417,458,60,119.0,162,1,360,217,50,0,0,315,-28416,26880,305,45.698849,4.909903,32.09,195.2,3,1.675,0,0.0,1.095,4,0.78,6.8274
409663,1560691681478,3,2.01,2.38,3.17,1.92,5.03,0.34,0.34,0.02,12,9,29,0.47,6109,16,89,35,46,840,320.0,425,460,60,119.0,162,1,354,215,50,0,0,315,150,26880,303,,,,,,,,,,,,
409683,1560691681498,0,1.98,2.42,3.1,1.93,5.04,0.38,0.41,-0.03,8,8,24,0.56,6147,16,89,35,45,842,322.0,433,464,60,119.0,162,1,348,214,50,0,0,316,155,23040,300,,,,,,,,,,,,
409703,1560691681518,-2,1.95,2.43,3.04,1.93,5.05,0.49,0.32,-0.08,4,8,20,0.59,6184,16,89,35,45,845,323.0,442,459,60,118.0,162,1,348,214,50,0,0,320,-24576,21760,298,,,,,,,,,,,,
409723,1560691681538,0,1.89,2.43,3.02,1.93,5.08,0.63,0.18,-0.03,1,6,16,0.66,6229,16,89,35,44,845,323.0,446,465,60,118.0,162,1,342,213,50,0,0,322,-24576,21760,293,,,,,,,,,,,,
409743,1560691681558,0,1.87,2.45,2.99,1.92,5.04,0.68,0.18,0.08,-3,3,12,0.71,6227,16,89,35,44,845,322.0,456,460,60,118.0,170,1,342,213,50,0,0,320,155,80,292,45.698841,4.909894,31.27,195.2,3,1.675,0,0.0,1.0967,4,0.78,6.8291
409763,1560691681578,2,1.86,2.47,2.99,1.87,5.07,0.63,0.3,0.13,-6,3,7,0.69,6206,16,89,35,43,842,326.0,455,455,60,119.0,170,1,336,212,50,0,0,321,165,0,289,,,,,,,,,,,,
409783,1560691681597,3,1.86,2.49,2.98,1.85,5.03,0.56,0.45,0.18,-8,5,2,0.72,6151,16,89,35,43,838,327.0,450,454,60,119.0,170,1,335,212,50,0,0,325,-22016,100,288,,,,,,,,,,,,
409803,1560691681617,2,1.86,2.49,2.97,1.83,5.08,0.53,0.56,0.26,-10,5,-3,0.77,6000,16,89,35,43,836,330.0,452,455,60,118.0,170,1,335,212,50,0,0,328,175,-25856,288,,,,,,,,,,,,
409823,1560691681637,0,1.86,2.5,2.95,1.84,5.04,0.46,0.7,0.31,-11,6,-8,0.84,5892,16,89,35,44,835,334.0,444,459,60,118.0,170,1,336,212,50,0,0,330,4838,-24576,287,,,,,,,,,,,,
409843,1560691681657,-1,1.85,2.5,2.96,1.84,5.07,0.5,0.81,0.35,-12,5,-12,0.96,5813,16,89,35,44,835,334.0,438,459,60,117.0,163,1,333,212,47,0,0,328,4838,32000,288,45.698837,4.909885,30.59,195.2,3,1.675,0,0.0,1.0983,4,0.78,6.8307
409863,1560691681677,-2,1.84,2.52,2.97,1.84,5.05,0.62,0.83,0.33,-15,1,-16,1.04,5719,16,89,35,45,838,333.0,426,465,60,118.0,163,1,334,214,47,0,0,326,-6528,24320,285,,,,,,,,,,,,
409883,1560691681697,2,1.82,2.51,2.98,1.84,5.07,0.76,0.77,0.36,-19,0,-20,1.08,5674,16,89,36,46,850,332.0,410,466,60,119.0,163,1,337,214,47,0,0,327,-32559,24064,285,,,,,,,,,,,,
409903,1560691681717,2,1.82,2.5,2.99,1.83,5.07,0.66,0.78,0.39,-22,3,-23,1.02,5558,16,89,36,46,867,331.0,406,460,60,119.0,163,1,331,215,47,0,0,326,-32559,-1529,284,,,,,,,,,,,,
409923,1560691681737,-0,1.83,2.51,2.97,1.82,5.04,0.66,0.9,0.37,-23,3,-26,1.12,5455,16,89,36,48,880,335.0,410,460,60,118.0,163,1,331,221,47,0,0,328,3346,-16896,284,,,,,,,,,,,,
409943,1560691681757,1,1.84,2.52,2.97,1.8,5.05,0.77,0.87,0.34,-26,1,-31,1.16,5423,16,89,36,49,893,336.0,398,463,60,119.0,158,1,329,225,45,0,0,328,13,1886,283,45.698837,4.909876,29.84,195.1,3,1.675,0,0.0,1.1,4,0.78,6.8324
409963,1560691681777,-0,1.84,2.51,2.96,1.79,5.08,0.68,0.92,0.34,-27,2,-33,1.14,5372,16,89,36,50,908,336.0,392,458,60,119.0,158,1,326,227,45,0,0,329,13,30208,280,,,,,,,,,,,,
409983,1560691681797,4,1.85,2.51,2.96,1.78,5.05,0.81,0.97,0.35,-29,-1,-36,1.26,5328,16,89,36,51,922,334.0,393,468,60,118.0,158,1,324,230,45,0,0,329,4838,-1527,280,,,,,,,,,,,,
410003,1560691681817,0,1.85,2.51,2.96,1.79,5.04,0.68,0.89,0.36,-30,2,-38,1.12,5301,16,89,36,51,930,335.0,389,452,60,119.0,158,1,322,230,45,0,0,330,4838,630,280,,,,,,,,,,,,
410023,1560691681837,4,1.84,2.49,2.96,1.77,5.05,0.81,0.96,0.43,-31,-1,-39,1.26,5274,16,89,36,52,931,333.0,392,468,60,118.0,158,1,318,233,45,0,0,324,-6528,28160,280,,,,,,,,,,,,
410043,1560691681857,-2,1.85,2.49,2.98,1.77,5.06,0.69,0.85,0.45,-32,2,-42,1.1,5255,16,89,36,53,930,331.0,383,452,60,120.0,168,1,319,237,47,0,0,325,-32559,28160,279,45.69883,4.909868,29.49,195.1,3,1.675,0,0.0,1.1017,4,0.78,6.8341
410063,1560691681877,4,1.85,2.49,2.99,1.76,5.08,0.82,0.89,0.48,-32,-0,-43,1.21,5227,16,89,36,54,923,332.0,388,459,60,117.0,168,1,317,240,47,0,0,324,-32559,250,280,,,,,,,,,,,,
410083,1560691681897,-1,1.87,2.49,3.01,1.78,5.06,0.7,0.87,0.44,-33,3,-45,1.11,5241,16,89,36,55,916,332.0,376,458,60,119.0,168,1,318,240,47,0,0,323,-32559,-1,277,,,,,,,,,,,,
410103,1560691681917,5,1.88,2.48,3.03,1.78,5.07,0.83,0.88,0.44,-33,0,-46,1.21,5311,16,89,36,55,907,330.0,389,449,60,117.0,168,1,324,244,47,0,0,319,175,-1,276,,,,,,,,,,,,
410123,1560691681937,-0,1.9,2.46,3.03,1.78,5.05,0.74,0.85,0.46,-35,2,-46,1.13,5423,16,89,36,56,897,326.0,391,451,60,119.0,168,1,334,246,47,0,0,314,165,-1,275,,,,,,,,,,,,
410143,1560691681957,-2,1.92,2.45,3.03,1.76,5.06,0.72,0.91,0.47,-33,1,-46,1.16,5537,16,89,36,55,884,324.0,402,458,60,118.0,182,1,344,247,50,0,0,315,160,-1,273,45.698822,4.909861,29.97,195.4,3,1.675,0,0.0,1.1033,4,0.78,6.8357
410163,1560691681977,0,1.96,2.46,3.02,1.78,5.04,0.85,0.89,0.47,-32,-1,-46,1.23,5654,16,89,36,55,872,321.0,405,448,60,117.0,182,1,354,248,50,0,0,315,-25856,-1,274,,,,,,,,,,,,
410183,1560691681997,4,1.99,2.45,3.04,1.79,5.08,0.9,0.85,0.44,-34,-2,-46,1.23,5692,16,89,36,55,870,321.0,407,440,60,119.0,182,1,357,249,50,0,0,315,-25856,-1281,273,,,,,,,,,,,,
410203,1560691682009,3,2.01,2.45,3.05,1.81,5.08,0.84,0.73,0.44,-35,1,-45,1.12,5767,16,89,36,54,866,316.0,412,440,60,119.0,182,1,363,251,50,0,0,312,-28416,-1281,275,,,,,,,,,,,,
410223,1560691682029,2,2.06,2.45,3.05,1.83,5.06,0.7,0.65,0.46,-34,4,-45,0.96,5853,16,89,36,53,862,314.0,417,452,60,119.0,182,1,368,247,50,0,0,308,135,250,276,,,,,,,,,,,,
410243,1560691682049,4,2.08,2.41,3.06,1.84,5.07,0.54,0.63,0.42,-31,8,-43,0.83,5950,16,89,36,52,857,311.0,422,451,60,119.0,195,1,372,238,54,0,0,308,125,2414,276,45.698818,4.909855,29.79,195.4,3,1.675,0,0.0,1.105,4,0.78,6.8374
410263,1560691682069,4,2.11,2.38,3.06,1.88,5.05,0.4,0.62,0.42,-28,10,-41,0.74,6046,16,89,36,50,857,308.0,427,450,60,120.0,195,1,370,233,54,0,0,309,120,-1527,277,,,,,,,,,,,,
410283,1560691682099,-0,2.14,2.35,3.08,1.9,5.04,0.29,0.62,0.39,-27,13,-39,0.69,6133,16,89,36,49,857,304.0,423,450,60,119.0,195,1,367,227,54,0,0,305,110,24064,279,,,,,,,,,,,,
410303,1560691682119,-0,2.18,2.34,3.09,1.89,5.06,0.23,0.55,0.4,-25,14,-36,0.6,6159,16,89,36,48,857,304.0,436,451,60,119.0,195,1,364,222,54,0,0,304,28160,41,281,,,,,,,,,,,,
410323,1560691682139,7,2.21,2.34,3.09,1.94,5.06,0.24,0.46,0.47,-25,15,-34,0.52,6007,16,89,36,47,857,304.0,435,457,60,118.0,195,1,360,217,54,0,0,306,110,100,288,,,,,,,,,,,,
410343,1560691682159,2,2.26,2.35,3.07,2.02,5.07,0.1,0.31,0.49,-24,17,-32,0.33,5746,16,89,36,47,859,304.0,416,447,60,119.0,170,1,346,217,49,0,0,309,110,120,293,45.698811,4.90985,29.4,195.4,3,1.675,0,0.0,1.1067,4,0.78,6.839
410363,1560691682179,-0,2.29,2.35,3.07,2.11,5.05,0.02,0.31,0.53,-18,19,-30,0.31,5477,16,89,36,48,860,307.0,401,437,60,120.0,170,1,332,221,49,0,0,309,30720,30720,298,,,,,,,,,,,,
410383,1560691682197,1,2.34,2.34,3.13,2.18,5.04,0.22,0.25,0.54,-17,13,-27,0.33,5301,16,89,36,50,862,304.0,399,463,60,117.0,170,1,317,227,49,0,0,309,110,32000,301,,,,,,,,,,,,
410403,1560691682217,0,2.38,2.3,3.28,2.17,5.04,0.13,0.13,0.57,-13,11,-25,0.19,5086,16,89,36,51,864,303.0,383,445,60,119.0,170,1,307,228,49,0,0,301,28160,105,303,,,,,,,,,,,,
410423,1560691682237,-0,2.41,2.26,3.39,2.18,5.06,0.08,0.07,0.56,-12,14,-23,0.11,5002,16,89,36,53,865,303.0,366,458,60,119.0,170,1,299,230,49,0,0,301,26880,105,303,,,,,,,,,,,,
410443,1560691682257,3,2.44,2.22,3.45,2.21,5.04,0.27,0.03,0.57,-9,9,-19,0.27,5034,16,89,36,54,865,307.0,375,457,60,118.0,140,1,300,236,43,0,0,296,90,110,308,45.698803,4.909844,29.37,195.4,3,1.675,0,0.0,1.1083,4,0.78,6.8407
410463,1560691682277,0,2.49,2.21,3.45,2.23,5.05,0.14,-0.08,0.55,-7,9,-16,0.16,5000,16,89,36,54,875,309.0,365,450,60,119.0,140,1,298,236,43,0,0,295,90,29440,309,,,,,,,,,,,,
410483,1560691682297,-0,2.56,2.2,3.45,2.24,5.08,0.28,-0.19,0.54,-5,9,-13,0.34,5005,17,89,36,56,885,311.0,359,454,60,119.0,140,1,298,240,43,0,0,293,80,120,311,,,,,,,,,,,,
410503,1560691682317,3,2.61,2.14,3.46,2.24,5.03,0.41,-0.16,0.5,-1,5,-9,0.44,5004,17,89,36,57,895,313.0,363,452,60,117.0,140,1,298,248,43,0,0,285,0,28160,313,,,,,,,,,,,,
410523,1560691682337,0,2.65,2.03,3.54,2.24,5.06,0.37,-0.31,0.5,3,6,-5,0.49,5138,17,89,36,57,904,313.0,363,448,60,119.0,140,1,309,249,43,0,0,277,-16896,105,313,,,,,,,,,,,,
410543,1560691682357,5,2.7,1.93,3.61,2.25,5.04,0.54,-0.35,0.54,5,2,-0,0.64,5397,17,89,36,58,921,313.0,374,456,60,117.0,156,1,331,252,49,0,0,266,-1534,25600,313,45.698799,4.909842,29.32,195.3,3,1.675,0,0.0,1.11,4,0.79,6.8424
410563,1560691682377,2,2.72,1.88,3.66,2.25,5.08,0.59,-0.49,0.5,7,4,4,0.77,5542,18,89,36,58,939,313.0,379,461,60,119.0,156,1,343,251,49,0,0,262,28160,105,313,,,,,,,,,,,,
410583,1560691682397,2,2.74,1.87,3.69,2.27,5.06,0.54,-0.52,0.47,11,4,8,0.75,5702,20,89,36,58,949,314.0,387,455,60,120.0,156,1,357,251,49,0,0,261,-1,120,314,,,,,,,,,,,,
410603,1560691682417,-0,2.74,1.86,3.68,2.27,5.05,0.41,-0.61,0.48,17,2,12,0.74,5821,20,89,36,58,956,317.0,396,451,60,119.0,156,1,367,251,49,0,0,263,-1,120,317,,,,,,,,,,,,
410623,1560691682437,2,2.73,1.87,3.66,2.3,5.04,0.32,-0.65,0.46,21,0,14,0.72,5978,21,89,36,57,959,318.0,406,450,60,119.0,156,1,381,251,49,0,0,261,-1,32000,318,,,,,,,,,,,,
410643,1560691682457,1,2.72,1.87,3.62,2.31,5.05,0.25,-0.68,0.46,25,-0,15,0.73,6141,21,89,36,56,960,318.0,421,452,60,118.0,179,1,384,256,57,0,0,258,-1,125,318,45.698792,4.909839,29.32,195.2,3,1.675,0,0.0,1.1117,4,0.79,6.844
410663,1560691682477,5,2.73,1.86,3.62,2.33,5.04,0.17,-0.67,0.35,28,-0,18,0.69,6296,21,89,36,55,956,316.0,428,456,60,119.0,179,1,386,256,57,0,0,258,-1,-32256,316,,,,,,,,,,,,
410683,1560691682497,-2,2.73,1.88,3.62,2.35,5.05,0.24,-0.69,0.35,28,-0,22,0.73,6332,21,89,36,54,949,316.0,431,456,60,118.0,179,1,385,256,57,0,0,269,-1,-29696,317,,,,,,,,,,,,
410703,1560691682517,-2,2.74,1.95,3.55,2.4,5.05,0.33,-0.75,0.37,27,0,25,0.82,6139,21,89,36,54,938,319.0,426,461,60,119.0,179,1,384,256,57,0,0,346,-1,130,319,,,,,,,,,,,,
410723,1560691682537,-1,2.74,2.01,3.51,2.42,5.04,0.41,-0.81,0.43,27,-0,28,0.91,5992,22,89,36,54,926,321.0,418,461,60,119.0,179,1,383,255,57,0,0,359,-1,150,321,,,,,,,,,,,,
410743,1560691682557,-0,2.74,2.03,3.51,2.43,5.08,0.48,-0.84,0.44,27,1,30,0.97,5958,22,89,36,54,916,322.0,407,462,60,118.0,180,1,380,255,58,0,0,321,-1,155,322,45.698788,4.909833,28.36,195.1,3,1.675,0,0.0,1.1133,4,0.79,6.8457
410763,1560691682577,2,2.74,2.04,3.51,2.44,5.05,0.63,-0.85,0.47,26,1,31,1.06,5898,22,89,36,54,910,323.0,405,466,60,119.0,180,1,375,253,58,0,0,289,-1,150,323,,,,,,,,,,,,
410783,1560691682596,3,2.75,2.03,3.5,2.43,5.08,0.64,-0.82,0.39,27,2,32,1.04,5769,22,89,36,54,909,325.0,406,461,60,119.0,180,1,364,251,58,0,0,294,28160,-25856,325,,,,,,,,,,,,
410803,1560691682616,2,2.75,2.02,3.52,2.44,5.04,0.52,-0.85,0.39,29,1,33,0.99,5630,22,89,36,55,908,327.0,398,452,60,119.0,180,1,352,248,58,0,0,317,250,-28416,328,,,,,,,,,,,,
410823,1560691682636,0,2.74,2.0,3.52,2.42,5.04,0.44,-0.91,0.42,32,-1,33,1.01,5585,22,89,36,57,909,327.0,396,452,60,118.0,180,1,347,250,58,0,0,329,-1527,150,327,,,,,,,,,,,,
410843,1560691682656,0,2.75,1.99,3.54,2.41,5.08,0.59,-0.9,0.44,32,-4,35,1.08,5661,22,89,36,58,916,326.0,402,456,60,118.0,161,1,353,251,53,0,0,293,250,-25856,328,45.69878,4.909828,27.46,195.1,3,1.675,0,0.0,1.115,4,0.79,6.8474
410863,1560691682676,2,2.75,1.96,3.55,2.37,5.05,0.74,-0.92,0.47,31,-2,37,1.18,5732,23,89,36,58,929,329.0,391,460,60,119.0,161,1,359,251,53,0,0,272,30208,155,329,,,,,,,,,,,,
410883,1560691682696,3,2.75,1.96,3.58,2.38,5.08,0.71,-0.91,0.42,31,-0,38,1.15,5812,25,89,36,59,947,332.0,394,456,60,119.0,161,1,366,251,53,0,0,276,250,150,332,,,,,,,,,,,,
410903,1560691682716,3,2.74,1.97,3.59,2.38,5.06,0.52,-0.91,0.37,34,2,40,1.04,5868,26,89,36,60,963,334.0,404,459,60,119.0,161,1,370,250,53,0,0,295,-1527,-22016,334,,,,,,,,,,,,
410923,1560691682736,4,2.75,1.96,3.58,2.41,5.03,0.34,-0.88,0.35,36,2,40,0.94,5901,27,89,36,60,974,332.0,403,457,60,119.0,161,1,373,249,53,0,0,306,250,-24576,332,,,,,,,,,,,,
410943,1560691682756,1,2.75,1.98,3.59,2.41,5.04,0.14,-0.87,0.34,39,0,41,0.88,5942,27,89,36,60,981,334.0,411,458,60,119.0,165,1,377,249,55,0,0,318,250,-22016,334,45.698776,4.909822,28.29,194.9,3,1.675,0,0.0,1.1167,4,0.79,6.849
410963,1560691682776,3,2.75,1.97,3.58,2.42,5.03,-0.02,-0.86,0.34,42,-1,41,0.86,5982,27,89,36,61,981,333.0,417,460,60,119.0,165,1,379,247,55,0,0,312,30208,160,333,,,,,,,,,,,,
410983,1560691682794,3,2.75,1.97,3.57,2.41,5.06,-0.07,-0.86,0.34,44,-3,42,0.86,6034,28,89,36,61,978,332.0,417,457,60,119.0,165,1,382,247,55,0,0,295,30208,160,332,,,,,,,,,,,,
411003,1560691682814,3,2.74,1.96,3.56,2.43,5.03,-0.08,-0.88,0.39,44,-3,43,0.88,6021,28,89,36,61,965,333.0,420,455,60,119.0,165,1,381,247,55,0,0,304,-1534,165,333,,,,,,,,,,,,
411023,1560691682834,3,2.74,1.97,3.53,2.43,5.04,-0.07,-0.93,0.48,45,-6,43,0.93,5969,28,89,36,61,952,332.0,421,456,60,119.0,165,1,378,247,55,0,0,331,250,170,335,,,,,,,,,,,,
411043,1560691682854,-0,2.72,1.97,3.52,2.42,5.05,-0.09,-0.9,0.5,46,-8,43,0.9,5939,28,89,36,61,936,333.0,417,455,60,119.0,164,1,375,248,55,0,0,325,-1529,-22016,333,45.698772,4.909815,28.07,195.1,3,1.675,0,0.0,1.1183,4,0.79,6.8507
411063,1560691682874,-2,2.68,1.97,3.5,2.41,5.06,-0.08,-0.86,0.55,46,-10,43,0.87,5959,28,89,36,61,923,335.0,410,460,60,118.0,164,1,377,247,55,0,0,290,-1529,175,335,,,,,,,,,,,,
411083,1560691682896,1,2.64,1.97,3.47,2.42,5.08,-0.04,-0.81,0.58,46,-13,44,0.81,5944,28,89,35,61,918,336.0,416,453,60,119.0,164,1,376,256,55,0,0,292,-1529,-6528,336,,,,,,,,,,,,
411103,1560691682916,0,2.58,1.99,3.44,2.41,5.03,0.07,-0.73,0.66,45,-16,44,0.74,5899,28,89,35,62,920,336.0,408,461,60,117.0,164,1,369,257,55,0,0,296,-16896,-32559,336,,,,,,,,,,,,
411123,1560691682936,-0,2.55,2.04,3.44,2.41,5.03,0.27,-0.74,0.72,42,-21,44,0.78,5839,29,89,35,62,940,336.0,406,453,60,118.0,164,1,364,258,55,0,0,299,0,-32559,335,,,,,,,,,,,,
411143,1560691682956,1,2.49,2.11,3.45,2.39,5.08,0.44,-0.76,0.73,38,-23,44,0.88,5788,29,89,35,63,960,334.0,403,457,60,118.0,173,1,357,267,58,0,0,305,80,-20736,334,45.698769,4.909807,29.04,195.2,3,1.675,0,0.0,1.12,4,0.79,6.8524
411163,1560691682976,-1,2.45,2.15,3.43,2.35,5.06,0.6,-0.77,0.7,33,-23,44,0.97,5819,29,89,35,63,985,332.0,402,453,60,119.0,173,1,359,266,58,0,0,301,23040,-20736,331,,,,,,,,,,,,
411183,1560691682996,-1,2.4,2.18,3.4,2.31,5.07,0.74,-0.77,0.65,29,-18,43,1.07,5911,29,89,35,64,1014,330.0,409,458,60,118.0,173,1,364,273,58,0,0,304,25600,-22016,330,,,,,,,,,,,,
411203,1560691683010,1,2.37,2.24,3.38,2.31,5.04,0.82,-0.77,0.61,26,-14,42,1.12,5982,29,89,35,63,1060,329.0,410,450,60,119.0,173,1,373,264,58,0,0,308,28160,-20736,329,,,,,,,,,,,,
411223,1560691683030,0,2.33,2.3,3.3,2.3,5.04,0.87,-0.73,0.56,22,-11,40,1.14,6000,29,89,35,63,1106,327.0,417,451,60,119.0,173,1,375,263,58,0,0,311,30720,-23296,327,,,,,,,,,,,,
411243,1560691683050,1,2.3,2.3,3.23,2.28,5.07,0.95,-0.7,0.51,19,-9,38,1.18,5992,29,89,35,63,1128,323.0,420,457,60,118.0,184,1,374,264,60,0,0,318,32000,165,323,45.698765,4.909797,30.35,195.2,3,1.675,0,0.0,1.1217,4,0.79,6.8541
411263,1560691683070,1,2.26,2.32,3.18,2.26,5.04,1.02,-0.68,0.45,15,-6,35,1.22,5967,30,89,35,63,1149,324.0,423,459,60,118.0,184,1,372,264,60,0,0,320,135,160,324,,,,,,,,,,,,
411283,1560691683098,5,2.24,2.32,3.11,2.26,5.04,1.03,-0.6,0.37,13,-3,33,1.19,5909,30,89,35,63,1168,322.0,416,458,60,118.0,184,1,367,264,60,0,0,320,140,150,322,,,,,,,,,,,,
411303,1560691683118,5,2.21,2.3,3.09,2.22,5.04,0.96,-0.51,0.28,11,1,31,1.08,5954,30,89,35,64,1187,321.0,413,453,60,119.0,184,1,368,264,60,0,0,319,150,-27136,321,,,,,,,,,,,,
411323,1560691683138,4,2.2,2.29,3.1,2.22,5.08,0.88,-0.43,0.21,9,5,29,0.98,5975,30,89,35,64,1187,321.0,412,456,60,119.0,184,1,369,264,60,0,0,324,-25856,-27136,320,,,,,,,,,,,,
411343,1560691683158,-0,2.18,2.29,3.07,2.22,5.08,0.85,-0.37,0.12,7,9,27,0.93,6042,30,89,35,63,1185,322.0,421,458,60,119.0,187,1,376,264,60,0,0,324,155,150,320,45.698761,4.909788,30.98,195.2,3,1.675,0,0.0,1.1233,4,0.79,6.8557
411363,1560691683178,-1,2.17,2.28,3.04,2.21,5.06,0.93,-0.34,0.11,4,11,25,0.99,6085,31,89,35,63,1183,325.0,429,457,60,118.0,187,1,378,266,60,0,0,327,-23296,-24576,321,,,,,,,,,,,,
411383,1560691683196,-1,2.16,2.28,3.05,2.2,5.08,1.04,-0.43,0.13,1,10,23,1.12,6099,32,89,35,64,1181,325.0,426,448,60,118.0,187,1,375,274,60,0,0,330,-22016,160,319,,,,,,,,,,,,
411403,1560691683216,1,2.14,2.29,3.03,2.22,5.04,1.14,-0.55,0.25,-2,7,19,1.26,6141,33,89,35,64,1181,328.0,428,454,60,118.0,187,1,377,276,60,0,0,329,170,-24576,319,,,,,,,,,,,,
411423,1560691683236,0,2.13,2.29,3.04,2.21,5.04,1.22,-0.62,0.41,-4,0,15,1.37,6145,34,89,35,65,1181,328.0,430,455,60,117.0,187,1,373,283,60,0,0,334,170,170,318,,,,,,,,,,,,
411443,1560691683256,-0,2.13,2.31,3.04,2.21,5.06,1.3,-0.57,0.55,-6,-5,11,1.42,6153,34,89,35,66,1186,332.0,438,459,60,118.0,204,1,370,291,65,0,0,336,-32559,-22016,320,45.698757,4.909778,31.11,195.3,3,1.675,0,0.0,1.125,4,0.79,6.8574
411463,1560691683276,2,2.13,2.3,3.04,2.2,5.05,1.29,-0.45,0.62,-7,-9,8,1.37,6157,34,89,35,66,1192,331.0,437,455,60,117.0,204,1,370,292,65,0,0,335,-12032,-22016,319,,,,,,,,,,,,
411483,1560691683298,1,2.14,2.29,3.03,2.19,5.07,1.22,-0.32,0.69,-7,-12,6,1.26,6157,34,89,35,66,1197,334.0,442,452,60,119.0,204,1,370,300,65,0,0,335,4838,-20736,320,,,,,,,,,,,,
411503,1560691683318,3,2.14,2.3,3.05,2.19,5.08,1.07,-0.17,0.63,-6,-12,4,1.09,6179,35,89,35,67,1201,335.0,440,454,60,118.0,204,1,368,300,65,0,0,335,3346,165,321,,,,,,,,,,,,
411523,1560691683338,4,2.13,2.31,3.05,2.17,5.05,0.93,-0.05,0.56,-6,-11,1,0.94,6181,35,89,35,67,1210,337.0,440,448,60,119.0,204,1,368,300,65,0,0,334,3346,165,321,,,,,,,,,,,,
411543,1560691683358,-0,2.14,2.32,3.05,2.17,5.07,0.82,0.03,0.48,-7,-8,-0,0.82,6181,35,89,35,67,1222,337.0,436,459,60,119.0,218,1,368,300,70,0,0,335,2560,170,319,45.698757,4.909767,31.51,195.4,3,1.675,0,0.0,1.1267,4,0.79,6.859
411563,1560691683378,-0,2.13,2.31,3.06,2.14,5.04,0.82,0.03,0.42,-8,-6,-1,0.82,6247,36,89,35,68,1230,337.0,445,460,60,118.0,218,1,366,309,70,0,0,341,2560,160,321,,,,,,,,,,,,
411583,1560691683398,-2,2.15,2.31,3.07,2.12,5.06,0.89,-0.07,0.44,-9,-5,-3,0.89,6245,37,89,35,68,1236,339.0,451,459,60,117.0,218,1,366,310,70,0,0,338,-122,170,322,,,,,,,,,,,,
411603,1560691683418,1,2.15,2.33,3.08,2.1,5.05,0.89,-0.1,0.53,-9,-6,-4,0.9,6223,38,89,35,69,1250,338.0,446,453,60,118.0,218,1,364,325,70,0,0,338,-31222,-23296,322,,,,,,,,,,,,
411623,1560691683438,2,2.16,2.33,3.1,2.08,5.05,0.88,-0.05,0.55,-9,-5,-6,0.88,6216,38,89,35,69,1268,340.0,437,446,60,119.0,218,1,364,325,70,0,0,341,3327,175,322,,,,,,,,,,,,
411643,1560691683458,4,2.17,2.33,3.1,2.08,5.04,0.8,0.0,0.54,-9,-4,-7,0.8,6262,39,89,35,70,1281,340.0,433,448,60,120.0,239,1,364,340,77,0,0,340,3327,170,325,45.698753,4.909757,31.91,195.4,3,1.675,0,0.0,1.1283,4,0.79,6.8607
411663,1560691683478,1,2.18,2.33,3.1,2.06,5.04,0.76,0.11,0.51,-8,-1,-6,0.77,6277,39,89,35,70,1293,340.0,438,457,60,119.0,239,1,365,340,77,0,0,341,3327,-20736,326,,,,,,,,,,,,
411683,1560691683496,-0,2.2,2.34,3.13,2.07,5.04,0.72,0.05,0.56,-8,1,-6,0.72,6349,39,89,35,71,1309,341.0,440,456,60,119.0,239,1,366,357,77,0,0,340,6668,-32559,325,,,,,,,,,,,,
411703,1560691683516,4,2.21,2.34,3.14,2.06,5.05,0.8,-0.05,0.69,-8,1,-7,0.8,6430,39,89,35,71,1328,341.0,451,458,60,118.0,239,1,369,359,77,0,0,341,6668,13,327,,,,,,,,,,,,
411723,1560691683536,3,2.22,2.36,3.14,2.07,5.06,0.76,0.12,0.61,-8,2,-6,0.77,6483,39,89,35,71,1341,341.0,452,453,60,119.0,239,1,370,359,77,0,0,344,6668,-6528,331,,,,,,,,,,,,
411743,1560691683556,0,2.23,2.38,3.13,2.08,5.04,0.75,0.07,0.55,-7,2,-5,0.75,6499,39,89,35,71,1350,342.0,453,453,60,118.0,265,1,371,359,88,0,0,346,-31206,-10554,334,45.69875,4.909747,31.96,195.4,3,1.675,0,0.0,1.13,4,0.8,6.8624
411763,1560691683576,1,2.26,2.37,3.13,2.08,5.05,0.81,0.04,0.69,-7,1,-5,0.81,6474,39,89,35,71,1356,342.0,453,456,60,118.0,265,1,370,359,88,0,0,346,-31206,-10554,335,,,,,,,,,,,,
411783,1560691683593,3,2.27,2.35,3.12,2.08,5.06,0.74,0.13,0.69,-6,2,-5,0.75,6514,40,89,35,71,1357,346.0,459,451,60,119.0,265,1,371,360,88,0,0,348,-30438,-30454,338,,,,,,,,,,,,
411803,1560691683613,0,2.29,2.35,3.11,2.09,5.04,0.71,0.12,0.66,-5,2,-6,0.72,6508,40,89,35,71,1356,345.0,454,455,60,118.0,265,1,371,360,88,0,0,349,6870,-1246,342,,,,,,,,,,,,
411823,1560691683633,4,2.31,2.35,3.11,2.1,5.04,0.76,0.02,0.8,-4,-1,-8,0.76,6574,40,89,35,71,1349,344.0,459,452,60,118.0,265,1,373,361,88,0,0,350,-10554,-30454,343,,,,,,,,,,,,
411843,1560691683653,1,2.31,2.34,3.15,2.09,5.06,0.68,0.07,0.71,-3,-2,-8,0.68,6611,40,89,35,71,1334,345.0,460,454,60,119.0,259,1,375,362,89,0,0,350,6870,-6644,345,45.698746,4.909736,32.36,195.4,3,1.675,0,0.0,1.1317,4,0.8,6.864
411863,1560691683673,1,2.33,2.33,3.21,2.11,5.04,0.72,-0.04,0.74,-3,-1,-9,0.72,6656,40,89,35,72,1309,348.0,461,465,60,118.0,259,1,375,363,89,0,0,352,8841,-29978,348,,,,,,,,,,,,
411883,1560691683695,-1,2.34,2.33,3.21,2.11,5.08,0.68,-0.03,0.66,-2,-2,-9,0.68,6759,40,89,35,71,1283,352.0,470,448,60,118.0,259,1,380,364,89,0,0,356,2811,-29302,352,,,,,,,,,,,,
411903,1560691683715,2,2.35,2.34,3.22,2.15,5.06,0.68,-0.18,0.71,-2,-2,-8,0.71,6855,41,89,35,71,1265,355.0,475,461,60,117.0,259,1,383,365,89,0,0,362,-30454,3082,355,,,,,,,,,,,,
411923,1560691683735,2,2.36,2.35,3.22,2.17,5.05,0.61,-0.18,0.61,0,1,-5,0.63,6923,41,89,35,71,1242,357.0,476,455,60,119.0,259,1,385,367,89,0,0,362,3183,0,357,,,,,,,,,,,,
411943,1560691683755,-1,2.38,2.34,3.21,2.18,5.07,0.61,-0.21,0.63,0,1,-2,0.64,6970,42,89,35,71,1211,361.0,480,455,60,119.0,267,1,387,368,96,0,0,364,3302,-6656,361,45.698742,4.909726,33.12,195.4,3,1.675,0,0.0,1.1333,4,0.8,6.8657
411963,1560691683775,4,2.38,2.34,3.21,2.21,5.07,0.64,-0.27,0.69,1,3,0,0.69,6996,42,89,35,71,1184,365.0,477,457,60,119.0,267,1,387,368,96,0,0,373,-29978,-6656,365,,,,,,,,,,,,
411983,1560691683795,1,2.41,2.34,3.2,2.25,5.05,0.49,-0.2,0.6,3,5,3,0.53,7046,42,89,35,70,1172,368.0,488,459,60,119.0,267,1,392,369,96,0,0,376,-29978,770,368,,,,,,,,,,,,
412003,1560691683815,1,2.4,2.34,3.2,2.27,5.05,0.56,-0.18,0.69,3,3,4,0.59,7048,42,89,35,70,1156,372.0,483,453,60,119.0,267,1,392,369,96,0,0,377,-6458,-992,372,,,,,,,,,,,,
412023,1560691683835,5,2.42,2.31,3.22,2.26,5.08,0.69,-0.3,0.82,4,1,2,0.76,7118,42,89,35,71,1120,376.0,490,460,60,117.0,267,1,394,371,96,0,0,382,3082,240,376,,,,,,,,,,,,
412043,1560691683855,4,2.42,2.3,3.22,2.26,5.05,0.54,-0.36,0.78,6,0,2,0.65,7178,42,89,35,70,1083,382.0,491,451,60,119.0,254,1,400,359,96,0,0,379,230,-19126,382,45.698738,4.909714,33.94,195.4,3,1.675,0,0.0,1.135,4,0.8,6.8674
412063,1560691683875,2,2.43,2.29,3.24,2.31,5.08,0.41,-0.29,0.66,7,2,3,0.5,7239,42,89,35,70,1058,386.0,495,456,60,119.0,254,1,403,360,96,0,0,389,-6656,-6656,386,,,,,,,,,,,,
412083,1560691683897,3,2.44,2.3,3.23,2.36,5.04,0.38,-0.3,0.55,8,2,6,0.49,7367,43,89,35,69,1032,387.0,505,455,60,118.0,254,1,412,364,96,0,0,386,-6656,-6524,387,,,,,,,,,,,,
412103,1560691683917,3,2.46,2.3,3.21,2.36,5.06,0.44,-0.33,0.55,8,1,10,0.55,7422,43,89,35,69,993,389.0,517,459,60,118.0,254,1,415,353,96,0,0,390,257,-32702,389,,,,,,,,,,,,
412123,1560691683937,1,2.48,2.28,3.23,2.37,5.06,0.51,-0.32,0.61,9,3,12,0.6,7515,43,89,35,68,955,392.0,515,458,60,119.0,254,1,421,344,96,0,0,397,-6656,10541,392,,,,,,,,,,,,
412143,1560691683957,3,2.49,2.25,3.26,2.37,5.05,0.59,-0.38,0.68,9,2,13,0.7,7533,43,89,35,68,940,397.0,518,455,60,119.0,245,1,422,345,97,0,0,403,-6656,10392,397,45.698734,4.909703,35.26,195.4,3,1.675,0,0.0,1.1367,4,0.8,6.869
412163,1560691683977,4,2.48,2.24,3.28,2.37,5.07,0.55,-0.35,0.68,9,3,13,0.65,7615,43,89,35,67,926,402.0,523,450,60,118.0,245,1,429,341,97,0,0,417,2278,10392,402,,,,,,,,,,,,
412183,1560691683997,5,2.49,2.25,3.26,2.37,5.05,0.46,-0.35,0.66,11,2,14,0.57,7678,43,89,35,67,914,406.0,521,457,60,118.0,245,1,433,343,97,0,0,412,-18948,-9166,406,,,,,,,,,,,,
412203,1560691684009,-0,2.5,2.25,3.27,2.38,5.08,0.27,-0.33,0.69,13,2,16,0.43,7786,43,89,35,67,902,408.0,530,462,60,118.0,245,1,438,339,97,0,0,409,-18948,18584,410,,,,,,,,,,,,
412223,1560691684029,1,2.5,2.25,3.32,2.37,5.05,0.28,-0.36,0.69,14,2,16,0.45,7799,43,89,34,66,902,411.0,525,458,60,118.0,245,1,440,334,97,0,0,424,-19126,-3414,412,,,,,,,,,,,,
412243,1560691684049,3,2.51,2.24,3.37,2.36,5.07,0.39,-0.37,0.71,14,1,17,0.54,7848,43,89,34,65,904,415.0,535,457,60,118.0,245,1,444,336,101,0,0,434,240,-3414,415,45.69873,4.909691,36.51,195.4,3,1.675,0,0.0,1.1383,4,0.8,6.8707
412263,1560691684069,3,2.5,2.23,3.4,2.36,5.07,0.51,-0.41,0.73,15,-0,20,0.65,7975,43,89,34,64,893,419.0,537,454,60,118.0,245,1,449,331,101,0,0,435,-1562,-4082,419,,,,,,,,,,,,
412283,1560691684097,-1,2.51,2.22,3.39,2.34,5.06,0.53,-0.55,0.74,16,-2,22,0.76,8067,43,89,34,63,882,424.0,536,457,60,118.0,245,1,449,327,101,0,0,423,1,-7939,424,,,,,,,,,,,,
412303,1560691684117,5,2.5,2.22,3.39,2.35,5.05,0.54,-0.6,0.76,17,-1,24,0.8,8159,43,89,34,62,869,427.0,541,465,60,118.0,245,1,449,323,101,0,0,431,-32702,5600,427,,,,,,,,,,,,
412323,1560691684137,-1,2.51,2.21,3.37,2.39,5.05,0.6,-0.58,0.87,17,-2,27,0.84,8234,43,89,34,60,855,429.0,555,452,60,118.0,245,1,440,313,101,0,0,437,-32702,5600,429,,,,,,,,,,,,
412343,1560691684157,5,2.51,2.23,3.39,2.43,5.04,0.52,-0.5,0.87,18,-4,27,0.72,8289,43,89,34,60,834,433.0,553,456,60,117.0,227,1,439,316,98,0,0,452,6512,16648,433,45.698727,4.909678,38.26,195.4,3,1.675,0,0.0,1.14,4,0.8,6.8724
412363,1560691684177,1,2.5,2.24,3.38,2.43,5.04,0.48,-0.43,0.81,19,-4,27,0.64,8296,44,89,34,59,810,436.0,560,456,60,118.0,227,1,431,301,98,0,0,442,10541,10305,437,,,,,,,,,,,,
412383,1560691684197,5,2.5,2.24,3.37,2.43,5.04,0.38,-0.36,0.83,21,-0,27,0.52,8340,44,89,34,58,796,439.0,563,458,60,119.0,227,1,423,303,98,0,0,437,2524,15649,439,,,,,,,,,,,,
412403,1560691684217,3,2.5,2.24,3.34,2.45,5.05,0.44,-0.43,0.87,21,1,27,0.62,8389,44,89,34,57,786,444.0,570,455,60,118.0,227,1,414,297,98,0,0,451,9517,26704,444,,,,,,,,,,,,
412423,1560691684237,0,2.5,2.23,3.3,2.48,5.06,0.51,-0.46,0.81,21,-0,28,0.69,8389,44,89,34,57,781,445.0,565,456,60,118.0,227,1,414,298,98,0,0,447,-4059,-23623,445,,,,,,,,,,,,
412443,1560691684257,3,2.5,2.21,3.32,2.48,5.04,0.51,-0.45,0.82,22,1,28,0.68,8423,44,89,34,57,777,449.0,566,458,60,118.0,204,1,414,291,91,0,0,448,-4059,14488,449,45.698723,4.909664,39.19,195.4,3,1.675,0,0.0,1.1417,4,0.8,6.8741
412463,1560691684277,1,2.51,2.19,3.39,2.46,5.08,0.55,-0.44,0.83,22,-0,28,0.71,8426,44,89,34,56,778,450.0,563,458,60,118.0,204,1,406,291,91,0,0,468,-26615,2524,451,,,,,,,,,,,,
412483,1560691684297,-1,2.5,2.17,3.43,2.45,5.04,0.47,-0.41,0.82,22,-0,28,0.63,8526,44,89,34,56,784,453.0,578,460,60,118.0,204,1,405,294,91,0,0,464,-21792,12552,453,,,,,,,,,,,,
412503,1560691684317,5,2.49,2.17,3.45,2.45,5.03,0.44,-0.4,0.85,23,2,28,0.59,8628,44,89,34,55,795,457.0,571,451,60,118.0,204,1,398,291,91,0,0,469,-4082,6193,455,,,,,,,,,,,,
412523,1560691684337,4,2.49,2.18,3.4,2.46,5.04,0.47,-0.54,0.86,23,-0,28,0.71,8757,44,89,34,55,809,459.0,580,461,60,118.0,204,1,398,294,91,0,0,455,-4082,-3210,459,,,,,,,,,,,,
412543,1560691684357,2,2.49,2.23,3.39,2.48,5.08,0.55,-0.66,0.87,22,-0,28,0.86,8819,44,89,34,54,819,462.0,586,456,60,118.0,212,1,395,289,98,0,0,468,3826,32033,462,45.698723,4.90965,41.21,195.4,3,1.675,0,0.0,1.1433,4,0.8,6.8757
412563,1560691684377,4,2.48,2.26,3.4,2.48,5.04,0.63,-0.73,0.87,23,-2,28,0.96,8819,44,89,34,55,826,460.0,585,456,60,118.0,212,1,398,296,98,0,0,476,3635,-23367,460,,,,,,,,,,,,
412583,1560691684397,2,2.49,2.26,3.4,2.48,5.05,0.73,-0.81,0.85,22,-4,28,1.09,8831,44,89,34,54,839,465.0,592,459,60,118.0,212,1,396,290,98,0,0,476,1779,32033,465,,,,,,,,,,,,
412603,1560691684417,-0,2.49,2.26,3.4,2.48,5.05,0.72,-0.77,0.79,22,-3,28,1.06,8840,44,89,34,54,860,465.0,605,454,60,118.0,212,1,396,290,98,0,0,467,243,-9203,467,,,,,,,,,,,,
412623,1560691684437,1,2.48,2.24,3.41,2.46,5.06,0.71,-0.76,0.72,22,-4,29,1.04,8856,44,89,34,54,878,469.0,602,455,60,118.0,212,1,397,291,98,0,0,476,19477,8488,469,,,,,,,,,,,,
412643,1560691684457,-1,2.48,2.21,3.45,2.44,5.06,0.64,-0.68,0.72,23,-4,30,0.93,8873,44,89,34,53,893,469.0,601,456,60,118.0,207,1,393,281,97,0,0,474,23400,-9203,469,45.698719,4.909635,43.3,195.5,3,1.675,0,0.0,1.145,4,0.8,6.8774
412663,1560691684477,0,2.46,2.19,3.47,2.44,5.05,0.6,-0.6,0.73,22,-3,31,0.85,8898,44,89,34,53,914,473.0,607,455,60,118.0,207,1,393,283,97,0,0,485,23400,10305,475,,,,,,,,,,,,
412683,1560691684497,-5,2.47,2.2,3.47,2.43,5.05,0.49,-0.64,0.69,22,-3,29,0.81,8958,44,89,34,53,945,476.0,602,455,60,117.0,207,1,394,284,97,0,0,478,16648,-899,476,,,,,,,,,,,,
412703,1560691684517,-1,2.47,2.2,3.46,2.43,5.07,0.4,-0.56,0.6,23,-1,28,0.69,9044,44,89,34,53,971,478.0,609,455,60,118.0,207,1,395,288,97,0,0,469,8488,32033,478,,,,,,,,,,,,
412723,1560691684537,-1,2.46,2.19,3.43,2.42,5.05,0.36,-0.54,0.65,24,0,29,0.65,9097,44,89,34,53,987,481.0,602,459,60,118.0,207,1,395,290,97,0,0,472,-6387,-10483,482,,,,,,,,,,,,
412743,1560691684557,1,2.46,2.2,3.44,2.48,5.04,0.31,-0.41,0.65,24,1,30,0.51,9128,44,89,34,53,1007,485.0,609,453,60,117.0,205,1,396,282,99,0,0,497,-8985,-6441,485,45.698719,4.909619,44.17,195.4,3,1.675,0,0.0,1.1467,4,0.81,6.8791
412763,1560691684577,2,2.46,2.25,3.41,2.53,5.06,0.09,-0.27,0.56,23,1,30,0.28,9164,44,89,34,52,1039,485.0,608,457,60,117.0,205,1,392,283,99,0,0,498,2524,505,485,,,,,,,,,,,,
412783,1560691684594,1,2.47,2.22,3.42,2.51,5.06,0.16,-0.25,0.57,22,-1,28,0.3,9218,45,89,34,52,1067,483.0,610,458,60,118.0,205,1,392,284,99,0,0,484,-6387,-1818,483,,,,,,,,,,,,
412803,1560691684614,3,2.45,2.16,3.43,2.5,5.04,0.28,-0.26,0.56,22,-2,29,0.38,9231,45,89,34,52,1083,486.0,612,459,60,118.0,205,1,392,285,99,0,0,491,-26615,-32768,485,,,,,,,,,,,,
412823,1560691684634,-0,2.45,2.15,3.43,2.44,5.05,0.45,-0.43,0.63,22,-4,29,0.63,9245,44,89,34,52,1098,490.0,618,455,60,118.0,205,1,392,285,99,0,0,508,-18108,998,490,,,,,,,,,,,,
412843,1560691684654,5,2.44,2.15,3.35,2.4,5.04,0.59,-0.56,0.76,22,-5,28,0.81,9282,45,89,34,52,1108,494.0,618,461,60,118.0,203,1,392,286,100,0,0,478,16408,2524,494,45.698719,4.909603,45.36,195.4,3,1.675,0,0.0,1.1483,4,0.81,6.8807
412863,1560691684674,-1,2.45,2.15,3.38,2.41,5.04,0.52,-0.6,0.79,23,-3,28,0.79,9259,45,89,34,51,1116,495.0,620,461,60,118.0,203,1,389,276,100,0,0,487,6193,-6528,495,,,,,,,,,,,,
412883,1560691684696,-2,2.44,2.16,3.48,2.4,5.04,0.3,-0.46,0.66,23,-3,28,0.55,9282,45,89,33,51,1110,494.0,630,451,60,118.0,203,1,389,277,100,0,0,527,-16384,11560,497,,,,,,,,,,,,
412903,1560691684716,3,2.43,2.14,3.49,2.39,5.05,0.33,-0.44,0.64,22,-2,26,0.54,9389,45,89,33,51,1103,498.0,621,460,60,118.0,203,1,390,279,100,0,0,515,-16384,10408,498,,,,,,,,,,,,
412923,1560691684736,9,2.44,2.18,3.47,2.4,5.04,0.49,-0.59,0.77,21,-2,27,0.77,9488,45,89,33,51,1097,500.0,627,456,60,118.0,203,1,391,281,100,0,0,490,8488,10994,500,,,,,,,,,,,,
412943,1560691684756,1,2.44,2.35,3.42,2.4,5.06,0.29,-0.63,0.65,21,1,27,0.69,9556,45,89,33,51,1091,499.0,613,463,60,118.0,202,1,391,282,101,0,0,507,-17956,-21872,499,45.698719,4.909587,46.35,195.4,3,1.675,0,0.0,1.15,4,0.81,6.8824
412963,1560691684776,4,2.44,2.4,3.32,2.44,5.06,0.27,-0.44,0.59,21,-1,27,0.52,9551,45,89,33,51,1090,498.0,624,457,60,118.0,202,1,391,272,101,0,0,494,-17956,-32248,498,,,,,,,,,,,,
412983,1560691684796,5,2.43,2.38,3.33,2.45,5.04,0.44,-0.6,0.72,21,-4,26,0.74,9493,40,89,33,50,1091,501.0,613,453,60,118.0,202,1,388,271,101,0,0,504,-23367,10994,501,,,,,,,,,,,,
413003,1560691684816,1,2.44,2.38,3.34,2.45,5.04,0.35,-0.65,0.76,22,-2,23,0.74,9375,29,89,33,46,1088,504.0,623,459,60,118.0,202,1,369,233,101,0,0,513,8488,26178,504,,,,,,,,,,,,
413023,1560691684836,3,2.43,2.34,3.39,2.43,5.04,0.14,-0.55,0.71,21,-4,22,0.57,9342,18,89,33,40,1084,504.0,625,457,60,118.0,202,1,327,220,101,0,0,517,32033,-3856,505,,,,,,,,,,,,
413043,1560691684856,3,2.43,2.31,3.45,2.43,5.04,0.33,-0.69,0.78,20,-5,20,0.77,9277,12,89,33,35,1081,505.0,615,457,60,118.0,150,1,308,202,76,0,0,499,-10483,10994,508,45.698719,4.90957,47.41,195.4,3,1.675,0,0.0,1.1517,4,0.81,6.884
413063,1560691684876,4,2.42,2.14,3.55,2.39,5.05,0.38,-0.78,0.84,19,-7,20,0.86,9115,9,89,33,30,1078,505.0,620,452,60,118.0,150,1,291,189,76,0,0,508,-1562,-32248,505,,,,,,,,,,,,
413083,1560691684896,2,2.42,2.1,3.59,2.38,5.07,0.46,-0.73,0.84,19,-5,21,0.86,8882,9,89,33,27,1068,509.0,613,461,60,118.0,150,1,278,188,76,0,0,499,-1562,6274,509,,,,,,,,,,,,
413103,1560691684916,1,2.43,2.11,3.58,2.39,5.05,0.51,-0.76,0.84,18,-5,22,0.92,8656,8,89,33,25,1058,513.0,617,464,60,118.0,150,1,270,188,76,0,0,476,-1562,10994,513,,,,,,,,,,,,
413123,1560691684936,3,2.43,2.11,3.53,2.4,5.05,0.46,-0.76,0.69,19,-5,22,0.89,8419,8,89,33,24,1050,514.0,611,460,60,118.0,150,1,270,178,76,0,0,472,-899,-22519,514,,,,,,,,,,,,
413143,1560691684956,0,2.43,2.08,3.49,2.37,5.06,0.61,-0.8,0.74,20,-4,22,1.01,8249,8,89,33,23,1043,511.0,587,464,60,118.0,109,1,270,164,56,0,0,475,-899,6274,511,45.698723,4.909553,48.66,195.4,3,1.675,0,0.0,1.1533,4,0.81,6.8857
413163,1560691684976,2,2.42,2.01,3.51,2.36,5.07,0.6,-0.72,0.6,21,-4,22,0.93,8047,8,89,33,23,1017,512.0,568,457,60,118.0,109,1,270,155,56,0,0,472,32033,-21872,512,,,,,,,,,,,,
413183,1560691684996,7,2.42,1.91,3.6,2.32,5.07,0.67,-0.8,0.49,21,-4,26,1.05,7995,8,89,33,23,988,509.0,558,458,60,119.0,109,1,269,154,56,0,0,423,-23367,-1562,509,,,,,,,,,,,,
413203,1560691685010,4,2.39,1.88,3.6,2.19,5.06,0.76,-0.82,0.55,21,-4,26,1.11,8047,8,89,33,22,963,501.0,557,461,60,119.0,109,1,270,152,56,0,0,430,3576,1,501,,,,,,,,,,,,
413223,1560691685030,6,2.39,1.86,3.67,2.14,5.08,0.75,-0.73,0.49,21,-2,26,1.05,8078,7,89,33,22,941,498.0,560,461,60,118.0,109,1,270,154,56,0,0,421,10432,6193,498,,,,,,,,,,,,
413243,1560691685050,6,2.39,1.89,3.69,2.14,5.04,0.79,-0.77,0.45,20,-2,25,1.1,8067,7,89,33,22,920,494.0,568,458,60,118.0,92,1,270,154,46,0,0,367,8488,-9203,491,45.698727,4.909535,49.38,195.4,3,1.675,0,0.0,1.155,4,0.81,6.8874
413263,1560691685070,3,2.37,1.94,3.69,2.12,5.05,0.76,-0.82,0.48,20,-1,25,1.12,7999,7,89,33,22,901,490.0,564,461,60,118.0,92,1,269,151,46,0,0,332,243,32033,490,,,,,,,,,,,,
413283,1560691685096,2,2.38,1.99,3.63,2.13,5.04,0.85,-0.74,0.45,20,-2,24,1.13,7783,7,89,33,22,896,488.0,562,461,60,117.0,92,1,267,151,46,0,0,348,30272,32033,488,,,,,,,,,,,,
413303,1560691685116,4,2.38,2.05,3.56,2.14,5.04,0.97,-0.68,0.43,19,-3,24,1.18,7572,7,89,33,22,899,483.0,550,458,60,118.0,92,1,265,151,46,0,0,373,6193,32033,483,,,,,,,,,,,,
413323,1560691685136,5,2.37,2.02,3.52,2.12,5.08,1.08,-0.56,0.5,18,-7,21,1.21,7545,7,89,33,22,911,479.0,545,460,60,118.0,92,1,265,151,46,0,0,422,-8985,-9160,477,,,,,,,,,,,,
413343,1560691685156,5,2.36,1.99,3.59,2.08,5.07,1.04,-0.42,0.41,17,-6,21,1.12,7497,7,89,33,22,926,468.0,544,456,60,118.0,90,1,264,151,43,0,0,419,-8985,8488,468,45.69873,4.909518,47.84,195.4,3,1.675,0,0.0,1.1567,4,0.81,6.889
413363,1560691685176,4,2.36,1.96,3.66,2.02,5.08,1.06,-0.38,0.31,16,-9,21,1.13,7597,7,89,33,22,939,466.0,542,460,60,117.0,90,1,265,151,43,0,0,404,15649,20625,466,,,,,,,,,,,,
413383,1560691685196,5,2.36,1.97,3.69,2.01,5.05,0.93,-0.33,0.15,16,-9,22,0.99,7591,7,89,33,21,950,463.0,537,458,60,119.0,90,1,265,151,43,0,0,360,15649,-4082,463,,,,,,,,,,,,
413403,1560691685216,4,2.37,2.03,3.68,2.02,5.08,0.83,-0.33,0.03,15,-9,22,0.89,7533,7,89,33,21,962,457.0,538,463,60,119.0,90,1,265,151,43,0,0,343,10305,23400,457,,,,,,,,,,,,
413423,1560691685236,3,2.37,2.05,3.68,2.01,5.07,0.73,-0.27,-0.07,14,-8,21,0.78,7361,7,89,33,21,974,455.0,538,460,60,119.0,90,1,263,149,43,0,0,322,2131,-6387,455,,,,,,,,,,,,
413443,1560691685256,4,2.36,2.06,3.64,2.02,5.08,0.83,-0.25,-0.1,13,-10,20,0.87,7203,7,89,33,21,981,453.0,514,462,60,118.0,90,1,262,149,41,0,0,328,-18341,15649,453,45.698734,4.909502,46.08,195.3,3,1.675,0,0.0,1.1583,4,0.82,6.8907
413463,1560691685276,5,2.36,2.07,3.58,2.02,5.06,0.95,-0.31,0.02,13,-9,19,1.0,7088,7,89,33,22,983,453.0,508,461,60,118.0,90,1,260,151,41,0,0,365,19477,23400,452,,,,,,,,,,,,
413483,1560691685296,4,2.37,2.0,3.57,2.0,5.04,0.92,-0.38,-0.0,14,-5,18,0.99,7064,7,89,33,22,985,448.0,497,456,60,119.0,90,1,260,151,41,0,0,380,-7939,-3856,448,,,,,,,,,,,,
413503,1560691685316,3,2.36,1.89,3.56,1.96,5.07,0.76,-0.3,-0.15,14,-3,19,0.82,7121,7,89,33,22,989,443.0,501,457,60,119.0,90,1,261,151,41,0,0,390,-3322,-26615,443,,,,,,,,,,,,
413523,1560691685336,3,2.34,1.9,3.55,1.95,5.05,0.86,-0.28,-0.03,13,-4,19,0.9,7172,7,89,33,22,993,439.0,516,460,60,118.0,90,1,261,151,41,0,0,394,13552,-9166,439,,,,,,,,,,,,
413543,1560691685356,7,2.34,1.89,3.54,1.93,5.03,0.98,-0.34,0.12,12,-4,17,1.03,7261,7,89,33,22,996,435.0,511,461,60,118.0,93,1,262,151,41,0,0,398,3826,-3866,435,45.698738,4.909488,44.47,195.2,3,1.675,0,0.0,1.16,4,0.82,6.8924
413563,1560691685376,6,2.33,1.89,3.53,1.94,5.07,0.97,-0.34,0.14,13,-2,16,1.03,7292,7,89,33,22,1000,432.0,519,458,60,119.0,93,1,262,151,41,0,0,394,-21792,240,432,,,,,,,,,,,,
413583,1560691685396,5,2.32,1.9,3.51,1.95,5.03,0.92,-0.38,0.11,14,1,16,0.99,7318,7,89,33,22,1008,426.0,525,455,60,119.0,93,1,263,151,41,0,0,393,2524,-1818,424,,,,,,,,,,,,
413603,1560691685416,2,2.31,1.9,3.5,1.93,5.05,0.8,-0.39,0.06,14,2,14,0.9,7396,7,89,33,22,1015,422.0,529,458,60,119.0,93,1,263,151,41,0,0,388,10392,-32702,422,,,,,,,,,,,,
413623,1560691685436,4,2.29,1.91,3.48,1.94,5.05,0.73,-0.36,0.04,14,-0,11,0.81,7393,7,89,33,21,1020,420.0,539,462,60,118.0,93,1,263,149,41,0,0,394,2524,-6524,420,,,,,,,,,,,,
413643,1560691685456,3,2.28,1.91,3.47,1.92,5.07,0.75,-0.28,-0.15,13,-0,11,0.8,7393,7,89,33,21,1025,412.0,537,460,60,119.0,98,1,263,149,41,0,0,393,-9211,6512,412,45.698738,4.909473,42.67,195.2,3,1.675,0,0.0,1.1617,4,0.82,6.8941
413663,1560691685476,2,2.27,1.97,3.47,1.9,5.06,0.68,-0.23,-0.27,11,-0,11,0.72,7364,7,89,33,21,1029,411.0,537,458,60,118.0,98,1,263,149,41,0,0,391,10541,-6524,408,,,,,,,,,,,,
413683,1560691685496,3,2.25,2.0,3.43,1.9,5.05,0.72,-0.13,-0.2,10,-1,11,0.73,7370,7,89,33,21,1032,404.0,530,463,60,119.0,98,1,263,149,41,0,0,392,-8151,505,403,,,,,,,,,,,,
413703,1560691685516,1,2.25,2.02,3.4,1.89,5.05,0.83,-0.08,-0.09,8,-2,8,0.84,7321,7,89,33,21,1030,400.0,534,457,60,118.0,98,1,263,149,41,0,0,393,6512,-1562,401,,,,,,,,,,,,
413723,1560691685536,4,2.23,2.1,3.4,1.89,5.04,0.9,-0.04,0.0,6,-3,6,0.9,7312,7,89,33,21,1019,400.0,523,460,60,118.0,98,1,263,149,41,0,0,391,6512,-6524,396,,,,,,,,,,,,
413743,1560691685556,4,2.21,2.19,3.35,1.88,5.06,0.92,-0.01,0.09,6,-2,5,0.92,7267,7,89,33,21,978,399.0,529,458,60,118.0,103,1,262,149,41,0,0,392,28696,-3866,393,45.698746,4.90946,40.24,195.1,3,1.675,0,0.0,1.1633,4,0.82,6.8957
413763,1560691685576,1,2.2,2.2,3.34,1.86,5.04,0.96,-0.03,0.11,5,-1,4,0.96,7183,7,89,33,21,936,399.0,512,457,60,119.0,103,1,261,149,41,0,0,392,28696,-6475,391,,,,,,,,,,,,
413783,1560691685595,-1,2.2,2.24,3.34,1.86,5.07,0.85,0.04,0.0,4,1,3,0.85,7153,7,89,33,21,896,397.0,520,463,60,118.0,103,1,261,149,41,0,0,389,-3968,-19126,391,,,,,,,,,,,,
413803,1560691685615,0,2.18,2.29,3.34,1.86,5.08,0.9,0.14,0.05,2,-1,2,0.91,7107,7,89,33,21,856,396.0,519,458,60,118.0,103,1,261,149,41,0,0,387,-32702,-6656,386,,,,,,,,,,,,
413823,1560691685635,2,2.16,2.32,3.33,1.84,5.07,1.0,0.04,0.22,1,-2,-0,1.0,7110,7,89,33,21,823,395.0,519,461,60,118.0,103,1,261,149,41,0,0,384,-6656,257,382,,,,,,,,,,,,
413843,1560691685655,2,2.14,2.34,3.33,1.82,5.07,0.97,0.1,0.16,1,0,-2,0.98,7118,7,89,33,22,790,392.0,517,460,60,119.0,104,1,261,151,40,0,0,381,-6656,257,377,45.69875,4.909447,38.94,195.1,3,1.675,0,0.0,1.165,4,0.82,6.8974
413863,1560691685675,-0,2.14,2.33,3.32,1.79,5.08,0.91,0.27,0.05,-1,0,-5,0.95,7062,8,89,33,22,795,392.0,517,459,60,118.0,104,1,260,151,40,0,0,382,-6656,1,375,,,,,,,,,,,,
413883,1560691685695,3,2.12,2.38,3.3,1.78,5.08,0.93,0.3,0.15,-3,-1,-8,0.98,7022,10,89,33,22,802,392.0,515,460,60,118.0,104,1,260,151,40,0,0,384,1,0,372,,,,,,,,,,,,
413903,1560691685715,2,2.12,2.4,3.29,1.78,5.07,0.98,0.28,0.13,-4,-1,-8,1.02,6988,11,89,33,23,814,391.0,519,458,60,118.0,104,1,260,153,40,0,0,385,-6524,-6405,370,,,,,,,,,,,,
413923,1560691685735,-1,2.12,2.38,3.21,1.76,5.05,0.91,0.45,-0.04,-5,1,-8,1.02,6939,13,89,33,24,827,390.0,516,465,60,118.0,104,1,260,156,40,0,0,381,-6524,-29302,368,,,,,,,,,,,,
413943,1560691685755,1,2.12,2.36,3.23,1.74,5.06,0.97,0.41,0.12,-7,1,-8,1.05,6913,14,89,33,26,834,388.0,505,462,60,117.0,111,1,265,159,41,0,0,380,-31744,4104,366,45.698753,4.909434,37.85,195.0,3,1.675,0,0.0,1.1667,4,0.82,6.899
413963,1560691685775,1,2.12,2.38,3.23,1.75,5.04,0.9,0.47,0.03,-7,2,-10,1.01,6913,15,89,33,27,840,390.0,508,461,60,119.0,111,1,269,161,41,0,0,378,240,-29978,363,,,,,,,,,,,,
413983,1560691685797,3,2.12,2.4,3.21,1.76,5.05,0.91,0.55,0.09,-8,2,-14,1.06,6878,15,89,33,28,849,388.0,508,459,60,118.0,111,1,274,163,41,0,0,382,-31744,2060,362,,,,,,,,,,,,
414003,1560691685817,2,2.11,2.41,3.22,1.78,5.06,0.91,0.44,0.19,-8,1,-17,1.01,6873,16,89,33,29,859,386.0,494,456,60,119.0,111,1,278,164,41,0,0,381,-19019,-6640,358,,,,,,,,,,,,
414023,1560691685837,0,2.11,2.41,3.22,1.79,5.05,0.87,0.5,0.09,-9,2,-19,1.0,6883,18,89,33,30,865,381.0,506,459,60,119.0,111,1,282,166,41,0,0,376,-18948,3302,359,,,,,,,,,,,,
414043,1560691685857,3,2.09,2.43,3.22,1.78,5.04,0.88,0.43,0.15,-10,1,-20,0.98,6880,19,89,33,32,870,381.0,502,460,60,118.0,120,1,290,169,43,0,0,373,-18948,2060,356,45.698757,4.909421,36.4,195.0,3,1.675,0,0.0,1.1683,4,0.82,6.9007
414063,1560691685877,-1,2.1,2.46,3.24,1.78,5.08,0.82,0.53,-0.01,-10,3,-18,0.98,6830,20,89,33,34,875,379.0,498,460,60,119.0,120,1,295,179,43,0,0,376,8200,2811,355,,,,,,,,,,,,
414083,1560691685897,3,2.09,2.43,3.2,1.76,5.07,0.88,0.48,0.19,-11,1,-19,1.0,6850,20,89,33,35,881,379.0,499,462,60,118.0,120,1,298,185,43,0,0,376,8200,2811,353,,,,,,,,,,,,
414103,1560691685917,-2,2.09,2.42,3.13,1.74,5.04,0.88,0.55,0.18,-12,2,-19,1.04,6830,21,89,33,36,883,379.0,497,456,60,119.0,120,1,301,190,43,0,0,377,8200,28553,352,,,,,,,,,,,,
414123,1560691685937,5,2.08,2.43,3.1,1.73,5.04,0.88,0.65,0.23,-13,1,-21,1.1,6805,21,89,33,37,885,378.0,502,461,60,118.0,120,1,304,196,43,0,0,376,2278,-1246,352,,,,,,,,,,,,
414143,1560691685957,2,2.08,2.4,3.1,1.73,5.04,0.88,0.61,0.27,-14,1,-22,1.07,6805,21,89,33,39,884,379.0,492,454,60,119.0,147,1,310,208,52,0,0,377,8200,-10554,351,45.698757,4.909409,35.47,194.9,3,1.675,0,0.0,1.17,4,0.82,6.9024
414163,1560691685977,-1,2.08,2.4,3.1,1.76,5.07,0.87,0.72,0.24,-15,1,-22,1.13,6825,21,89,33,40,884,379.0,503,463,60,118.0,147,1,317,209,52,0,0,377,8200,8841,349,,,,,,,,,,,,
414183,1560691685997,2,2.07,2.41,3.12,1.79,5.04,0.85,0.64,0.27,-15,1,-21,1.07,6843,22,89,33,41,883,377.0,507,461,60,118.0,147,1,324,211,52,0,0,371,-6656,6870,349,,,,,,,,,,,,
414203,1560691686009,0,2.07,2.42,3.13,1.83,5.05,0.84,0.72,0.19,-16,1,-19,1.11,6828,22,89,33,41,880,378.0,499,461,60,119.0,147,1,324,211,52,0,0,373,2278,-30438,347,,,,,,,,,,,,
414223,1560691686029,3,2.06,2.41,3.14,1.83,5.07,0.86,0.6,0.29,-16,1,-19,1.05,6853,22,89,33,42,882,375.0,497,458,60,118.0,147,1,331,213,52,0,0,375,-6656,8841,347,,,,,,,,,,,,
414243,1560691686049,1,2.08,2.42,3.12,1.83,5.04,0.84,0.69,0.26,-16,1,-20,1.09,6911,22,89,33,43,884,376.0,501,457,60,119.0,158,1,339,215,55,0,0,373,2278,8841,347,45.698761,4.909397,35.0,194.8,3,1.675,0,0.0,1.1717,4,0.82,6.904
414263,1560691686069,4,2.08,2.41,3.12,1.83,5.08,0.88,0.68,0.4,-17,0,-23,1.12,6898,23,89,33,43,889,376.0,502,456,60,118.0,158,1,339,216,55,0,0,373,-6656,-30438,347,,,,,,,,,,,,
414283,1560691686097,0,2.08,2.4,3.1,1.82,5.06,0.86,0.62,0.44,-17,-1,-25,1.06,6939,23,89,33,44,893,375.0,495,460,60,118.0,158,1,346,216,55,0,0,372,3,-10554,347,,,,,,,,,,,,
414303,1560691686117,-1,2.08,2.4,3.08,1.81,5.07,0.86,0.72,0.33,-18,-0,-25,1.12,6978,23,89,33,44,901,376.0,502,460,60,118.0,158,1,346,216,55,0,0,374,3,6870,347,,,,,,,,,,,,
414323,1560691686137,3,2.08,2.39,3.08,1.79,5.06,0.87,0.62,0.41,-18,-0,-25,1.07,6985,23,89,33,45,914,375.0,501,456,60,118.0,158,1,354,219,55,0,0,375,770,6870,346,,,,,,,,,,,,
414343,1560691686157,2,2.08,2.4,3.09,1.78,5.04,0.9,0.53,0.43,-18,-0,-24,1.05,7009,23,89,33,45,924,376.0,496,456,60,119.0,167,1,355,219,58,0,0,372,3,6668,347,45.698765,4.909385,34.58,194.8,3,1.675,0,0.0,1.1733,4,0.82,6.9057
414363,1560691686177,-1,2.1,2.4,3.1,1.79,5.05,0.8,0.61,0.35,-18,0,-24,1.01,7067,23,89,33,45,931,376.0,502,455,60,119.0,167,1,355,219,58,0,0,369,3,-30438,346,,,,,,,,,,,,
414383,1560691686197,1,2.1,2.4,3.09,1.8,5.05,0.87,0.6,0.46,-19,-1,-26,1.05,7070,23,89,33,45,944,375.0,502,457,60,118.0,167,1,355,219,58,0,0,373,770,2811,345,,,,,,,,,,,,
414403,1560691686217,4,2.13,2.42,3.11,1.84,5.07,0.79,0.49,0.52,-18,-1,-26,0.93,7072,24,89,33,46,964,374.0,504,463,60,118.0,167,1,362,219,58,0,0,371,742,8841,345,,,,,,,,,,,,
414423,1560691686237,2,2.15,2.42,3.16,1.89,5.05,0.77,0.51,0.48,-17,1,-26,0.92,7080,24,89,33,46,981,372.0,506,455,60,119.0,167,1,362,219,58,0,0,372,1,3302,347,,,,,,,,,,,,
414443,1560691686257,0,2.19,2.41,3.17,1.92,5.06,0.74,0.52,0.49,-17,1,-24,0.91,6949,24,89,33,46,993,372.0,508,457,60,119.0,170,1,361,220,59,0,0,374,-6656,-1268,350,45.698765,4.909373,34.1,194.8,3,1.675,0,0.0,1.175,4,0.83,6.9074
414463,1560691686277,1,2.22,2.41,3.13,1.98,5.06,0.79,0.35,0.57,-16,1,-22,0.86,6843,24,89,33,46,1008,373.0,497,459,60,118.0,170,1,360,220,59,0,0,373,1,-6405,353,,,,,,,,,,,,
414483,1560691686297,-2,2.26,2.39,3.13,1.96,5.06,0.74,0.34,0.52,-14,0,-21,0.81,6800,24,89,33,47,1029,371.0,496,455,60,119.0,170,1,368,222,59,0,0,373,257,230,356,,,,,,,,,,,,
414503,1560691686317,2,2.29,2.37,3.15,2.0,5.05,0.75,0.3,0.59,-13,1,-21,0.81,6732,24,89,33,48,1048,370.0,487,461,60,119.0,170,1,370,226,59,0,0,367,486,-6458,360,,,,,,,,,,,,
414523,1560691686337,-1,2.35,2.34,3.25,2.08,5.05,0.76,0.25,0.61,-10,-0,-21,0.8,6672,24,89,33,48,1057,369.0,490,450,60,118.0,170,1,369,226,59,0,0,367,-6656,2790,361,,,,,,,,,,,,
414543,1560691686357,-0,2.39,2.31,3.34,2.1,5.05,0.75,0.14,0.56,-9,-1,-20,0.76,6720,24,89,33,49,1068,365.0,477,456,60,119.0,157,1,373,226,57,0,0,366,-6405,-6405,363,45.698765,4.90936,34.37,194.7,3,1.675,0,0.0,1.1767,4,0.83,6.909
414563,1560691686377,1,2.42,2.27,3.44,2.1,5.04,0.66,0.15,0.52,-6,-1,-18,0.68,6773,25,89,33,49,1083,366.0,488,466,60,118.0,157,1,373,231,57,0,0,361,2790,-1268,366,,,,,,,,,,,,
414583,1560691686397,3,2.45,2.23,3.54,2.13,5.04,0.8,0.0,0.57,-4,-4,-15,0.8,6783,25,89,33,50,1097,370.0,490,458,60,118.0,157,1,376,236,57,0,0,360,-29302,-6405,370,,,,,,,,,,,,
414603,1560691686417,-1,2.49,2.23,3.58,2.18,5.04,0.56,0.03,0.41,-1,1,-11,0.56,6835,26,89,33,50,1102,374.0,490,460,60,119.0,157,1,377,237,57,0,0,355,-6640,257,374,,,,,,,,,,,,
414623,1560691686437,3,2.53,2.23,3.59,2.18,5.08,0.71,-0.13,0.47,0,-2,-7,0.72,6939,27,89,33,51,1108,374.0,492,462,60,117.0,157,1,380,242,57,0,0,354,2060,742,374,,,,,,,,,,,,
414643,1560691686457,-0,2.55,2.2,3.57,2.19,5.06,0.56,-0.12,0.41,4,0,-3,0.57,6954,28,89,33,51,1114,375.0,499,458,60,118.0,168,1,380,242,63,0,0,358,-6644,3,375,45.698769,4.909348,34.72,194.7,3,1.675,0,0.0,1.1783,4,0.83,6.9107
414663,1560691686477,1,2.57,2.17,3.58,2.23,5.06,0.65,-0.25,0.52,6,-2,-0,0.69,6975,28,89,33,52,1119,378.0,494,457,60,119.0,168,1,383,247,63,0,0,359,3183,-18948,378,,,,,,,,,,,,
414683,1560691686497,3,2.58,2.15,3.62,2.29,5.07,0.78,-0.39,0.62,8,-2,2,0.88,6978,29,89,33,53,1120,379.0,497,456,60,118.0,168,1,386,252,63,0,0,367,2811,3,380,,,,,,,,,,,,
414703,1560691686517,2,2.57,2.13,3.63,2.32,5.06,0.67,-0.41,0.62,11,-1,4,0.78,6988,30,89,33,53,1120,381.0,503,456,60,119.0,168,1,386,252,63,0,0,382,-30438,8200,383,,,,,,,,,,,,
414723,1560691686537,1,2.57,2.12,3.63,2.33,5.07,0.69,-0.52,0.67,12,-2,6,0.86,6993,31,89,33,54,1123,384.0,502,458,60,119.0,168,1,389,258,63,0,0,368,-30438,-19126,384,,,,,,,,,,,,
414743,1560691686557,5,2.57,2.12,3.62,2.35,5.04,0.82,-0.61,0.76,13,-4,8,1.02,7046,32,89,33,55,1127,385.0,498,460,60,117.0,177,1,395,263,68,0,0,355,-30438,-19019,384,45.698769,4.909335,35.48,194.7,3,1.675,0,0.0,1.18,4,0.83,6.9124
414763,1560691686577,2,2.56,2.12,3.62,2.37,5.06,0.67,-0.58,0.63,16,-2,12,0.88,7062,32,89,33,56,1131,387.0,499,458,60,119.0,177,1,400,263,68,0,0,363,-30438,-6475,384,,,,,,,,,,,,
414783,1560691686596,1,2.57,2.11,3.6,2.37,5.04,0.64,-0.62,0.6,18,-2,13,0.89,7051,33,89,33,56,1134,386.0,498,453,60,119.0,177,1,400,269,68,0,0,376,8841,-6475,387,,,,,,,,,,,,
414803,1560691686616,2,2.57,2.11,3.57,2.38,5.07,0.73,-0.71,0.69,18,-3,15,1.02,7134,33,89,33,57,1137,387.0,499,463,60,117.0,177,1,405,276,68,0,0,364,8841,-19126,387,,,,,,,,,,,,
414823,1560691686636,4,2.57,2.12,3.57,2.39,5.05,0.72,-0.68,0.66,20,-2,17,0.99,7137,33,89,33,58,1140,389.0,499,459,60,118.0,177,1,411,276,68,0,0,369,8841,-6475,389,,,,,,,,,,,,
414843,1560691686656,3,2.58,2.11,3.56,2.4,5.04,0.55,-0.67,0.54,22,-0,20,0.87,7091,34,89,33,58,1139,388.0,503,457,60,119.0,193,1,410,279,75,0,0,376,-1246,-6524,388,45.698769,4.909322,36.34,194.8,3,1.675,0,0.0,1.1817,4,0.83,6.9141
414863,1560691686676,1,2.57,2.1,3.56,2.4,5.04,0.56,-0.7,0.48,23,-1,22,0.9,7167,34,89,33,58,1138,390.0,505,455,60,119.0,193,1,411,280,75,0,0,378,-30454,-1562,390,,,,,,,,,,,,
414883,1560691686696,1,2.57,2.11,3.56,2.39,5.05,0.7,-0.79,0.56,22,-4,24,1.06,7170,34,89,33,59,1139,391.0,505,456,60,118.0,193,1,417,286,75,0,0,379,28553,-6524,391,,,,,,,,,,,,
414903,1560691686716,4,2.58,2.09,3.56,2.41,5.07,0.71,-0.81,0.6,23,-2,25,1.07,7219,34,89,33,59,1140,392.0,503,459,60,117.0,193,1,417,286,75,0,0,380,28553,-3866,391,,,,,,,,,,,,
414923,1560691686736,4,2.57,2.09,3.58,2.4,5.05,0.59,-0.81,0.62,24,-1,26,1.0,7284,34,89,33,59,1142,393.0,504,455,60,119.0,193,1,419,287,75,0,0,389,-30454,-6524,393,,,,,,,,,,,,
414943,1560691686756,1,2.57,2.07,3.57,2.41,5.05,0.41,-0.83,0.5,26,-2,27,0.92,7327,34,89,33,59,1144,394.0,513,461,60,118.0,203,1,420,288,80,0,0,396,-6644,-6656,395,45.698769,4.909309,36.32,194.7,3,1.675,0,0.0,1.1833,4,0.83,6.9157
414963,1560691686776,3,2.57,2.07,3.56,2.42,5.03,0.39,-0.85,0.37,27,-0,29,0.93,7467,34,89,33,59,1142,398.0,516,459,60,118.0,203,1,422,289,80,0,0,383,4104,17144,396,,,,,,,,,,,,
414983,1560691686796,4,2.56,2.08,3.54,2.41,5.05,0.3,-0.84,0.28,28,1,32,0.89,7491,35,89,33,59,1137,399.0,514,456,60,118.0,203,1,422,289,80,0,0,395,4104,6512,398,,,,,,,,,,,,
415003,1560691686816,4,2.57,2.09,3.5,2.45,5.04,0.21,-0.87,0.29,29,2,34,0.89,7530,35,89,33,59,1132,399.0,524,461,60,118.0,203,1,423,290,80,0,0,404,4104,11545,401,,,,,,,,,,,,
415023,1560691686836,3,2.56,2.08,3.5,2.47,5.04,0.18,-0.86,0.32,29,2,34,0.88,7536,35,89,33,58,1126,401.0,523,458,60,118.0,203,1,416,284,80,0,0,402,4104,11545,401,,,,,,,,,,,,
415043,1560691686856,4,2.56,2.05,3.5,2.46,5.04,0.18,-0.89,0.32,29,3,35,0.91,7569,35,89,33,58,1113,403.0,527,461,60,118.0,201,1,417,284,81,0,0,407,-29302,10541,403,45.698772,4.909297,36.52,194.7,3,1.675,0,0.0,1.185,4,0.83,6.9174
415063,1560691686876,5,2.55,2.05,3.51,2.47,5.04,0.08,-0.87,0.31,30,3,35,0.87,7542,35,89,33,58,1097,408.0,520,457,60,118.0,201,1,417,284,81,0,0,413,-1268,-9211,408,,,,,,,,,,,,
415083,1560691686896,5,2.54,2.05,3.47,2.48,5.08,0.06,-0.86,0.3,30,4,37,0.86,7591,35,89,33,58,1085,407.0,524,461,60,118.0,201,1,418,284,81,0,0,414,-6405,10392,407,,,,,,,,,,,,
415103,1560691686916,2,2.54,2.07,3.43,2.49,5.04,0.01,-0.82,0.35,30,3,36,0.82,7628,35,89,33,57,1075,408.0,520,457,60,118.0,201,1,411,280,81,0,0,386,-6405,11560,408,,,,,,,,,,,,
415123,1560691686936,0,2.54,2.07,3.44,2.48,5.07,0.07,-0.79,0.39,29,2,36,0.79,7640,35,89,33,57,1059,410.0,528,462,60,117.0,201,1,411,280,81,0,0,399,0,11560,410,,,,,,,,,,,,
415143,1560691686956,-1,2.53,2.09,3.43,2.49,5.04,0.1,-0.78,0.46,29,3,34,0.79,7606,35,89,33,57,1035,410.0,514,455,60,118.0,196,1,411,280,80,0,0,413,-6656,2524,410,45.698776,4.909284,37.74,194.7,3,1.675,0,0.0,1.1867,4,0.83,6.9191
415163,1560691686976,1,2.51,2.1,3.46,2.5,5.06,0.2,-0.81,0.54,29,3,34,0.83,7597,35,89,33,58,1016,411.0,517,461,60,118.0,196,1,418,284,80,0,0,425,742,13040,411,,,,,,,,,,,,
415183,1560691686996,-0,2.5,2.09,3.47,2.48,5.06,0.3,-0.81,0.6,27,1,35,0.87,7687,35,89,33,57,1003,413.0,527,455,60,118.0,196,1,411,280,80,0,0,432,742,13040,413,,,,,,,,,,,,
415203,1560691687010,3,2.48,2.08,3.47,2.44,5.06,0.41,-0.76,0.64,27,-0,35,0.86,7783,35,89,33,57,987,413.0,526,458,60,119.0,196,1,413,281,80,0,0,395,-6656,13040,413,,,,,,,,,,,,
415223,1560691687030,5,2.45,2.1,3.47,2.44,5.07,0.4,-0.72,0.64,26,-1,35,0.82,7858,35,89,33,56,970,415.0,533,461,60,119.0,196,1,406,277,80,0,0,402,19125,2524,415,,,,,,,,,,,,
415243,1560691687050,0,2.43,2.14,3.44,2.43,5.04,0.41,-0.75,0.67,25,-1,34,0.86,7835,35,89,33,56,955,415.0,536,456,60,119.0,197,1,405,277,82,0,0,422,-19126,-26615,416,45.698776,4.909272,37.88,194.6,3,1.675,0,0.0,1.1883,4,0.83,6.9207
415263,1560691687070,1,2.41,2.21,3.42,2.43,5.04,0.41,-0.72,0.74,24,-1,32,0.83,7858,36,89,33,56,951,416.0,546,461,60,117.0,197,1,405,277,82,0,0,422,-6524,7154,417,,,,,,,,,,,,
415283,1560691687096,1,2.4,2.24,3.36,2.42,5.07,0.51,-0.67,0.76,22,-3,30,0.84,7855,36,89,33,55,948,417.0,536,455,60,119.0,197,1,398,277,82,0,0,414,-6656,-21792,417,,,,,,,,,,,,
415303,1560691687116,3,2.38,2.28,3.36,2.42,5.04,0.55,-0.62,0.69,21,-3,29,0.83,7819,36,89,33,55,945,417.0,535,456,60,119.0,197,1,397,271,82,0,0,420,-3968,-3414,417,,,,,,,,,,,,
415323,1560691687136,4,2.36,2.28,3.35,2.4,5.07,0.51,-0.63,0.63,20,-2,28,0.81,7838,36,89,33,55,944,417.0,537,460,60,118.0,197,1,397,271,82,0,0,426,6512,-3414,420,,,,,,,,,,,,
415343,1560691687156,-2,2.34,2.29,3.33,2.39,5.06,0.42,-0.59,0.65,19,1,26,0.73,7809,36,89,33,55,946,419.0,533,455,60,118.0,190,1,397,271,80,0,0,421,2524,-8165,420,45.698784,4.90926,38.82,194.6,3,1.675,0,0.0,1.19,4,0.83,6.9224
415363,1560691687176,2,2.32,2.28,3.32,2.35,5.03,0.42,-0.57,0.64,17,2,26,0.71,7828,36,89,33,56,947,421.0,541,459,60,118.0,190,1,405,277,80,0,0,426,9517,-8165,421,,,,,,,,,,,,
415383,1560691687196,2,2.3,2.3,3.27,2.32,5.04,0.46,-0.42,0.58,16,1,25,0.63,7914,36,89,33,56,941,422.0,542,457,60,119.0,190,1,406,278,80,0,0,421,13040,-4082,422,,,,,,,,,,,,
415403,1560691687216,-0,2.29,2.31,3.23,2.32,5.04,0.42,-0.4,0.6,15,2,23,0.58,7924,36,89,33,55,936,422.0,537,455,60,118.0,190,1,398,272,80,0,0,426,18584,-4082,422,,,,,,,,,,,,
415423,1560691687236,2,2.27,2.33,3.23,2.3,5.04,0.39,-0.36,0.64,14,3,21,0.53,7999,36,89,33,55,929,420.0,546,460,60,117.0,190,1,398,273,80,0,0,428,-3414,-8165,420,,,,,,,,,,,,
415443,1560691687256,2,2.26,2.33,3.22,2.3,5.04,0.42,-0.25,0.58,12,1,20,0.49,8071,36,89,33,55,924,422.0,542,456,60,119.0,197,1,398,275,83,0,0,432,7154,-3414,422,45.698792,4.909248,39.69,194.6,3,1.675,0,0.0,1.1917,4,0.84,6.924
415463,1560691687276,-0,2.27,2.32,3.2,2.28,5.08,0.39,-0.3,0.63,11,3,18,0.49,8061,36,89,33,54,926,424.0,547,455,60,119.0,197,1,390,269,83,0,0,430,-4082,13180,424,,,,,,,,,,,,
415483,1560691687298,3,2.25,2.33,3.17,2.28,5.04,0.33,-0.31,0.67,10,4,16,0.45,8085,36,89,33,54,927,426.0,546,462,60,118.0,197,1,390,270,83,0,0,433,-3856,243,426,,,,,,,,,,,,
415503,1560691687318,4,2.24,2.33,3.12,2.28,5.04,0.4,-0.23,0.63,8,2,16,0.46,8123,37,89,33,53,936,428.0,555,454,60,118.0,197,1,387,263,83,0,0,437,-3314,243,428,,,,,,,,,,,,
415523,1560691687338,3,2.24,2.33,3.1,2.25,5.04,0.43,-0.29,0.66,7,3,14,0.52,8109,37,89,33,53,946,430.0,545,451,60,118.0,197,1,387,263,83,0,0,434,1779,1779,428,,,,,,,,,,,,
415543,1560691687358,2,2.25,2.33,3.11,2.25,5.05,0.45,-0.13,0.62,6,0,13,0.47,8141,37,89,33,53,964,433.0,569,460,60,118.0,188,1,387,263,81,0,0,441,243,243,429,45.698795,4.909236,40.72,194.6,3,1.675,0,0.0,1.1933,4,0.84,6.9257
415563,1560691687378,2,2.25,2.33,3.15,2.25,5.04,0.52,-0.18,0.7,5,-1,11,0.55,8205,36,89,33,53,982,435.0,566,457,60,118.0,188,1,387,258,81,0,0,444,-7939,21580,431,,,,,,,,,,,,
415583,1560691687398,4,2.24,2.35,3.14,2.24,5.03,0.56,-0.11,0.64,4,0,10,0.57,8252,35,89,33,52,991,438.0,569,457,60,117.0,188,1,384,259,81,0,0,444,21580,2131,434,,,,,,,,,,,,
415603,1560691687418,2,2.24,2.38,3.14,2.24,5.04,0.6,-0.18,0.73,3,-0,8,0.63,8270,34,89,33,50,1000,438.0,568,455,60,118.0,188,1,378,245,81,0,0,445,21580,23400,434,,,,,,,,,,,,
415623,1560691687438,5,2.24,2.37,3.15,2.25,5.08,0.63,-0.2,0.72,2,1,7,0.66,8303,33,89,33,49,1014,440.0,581,461,60,117.0,188,1,375,239,81,0,0,447,26704,10305,437,,,,,,,,,,,,
415643,1560691687458,1,2.25,2.38,3.14,2.23,5.06,0.6,-0.18,0.7,2,1,6,0.63,8355,32,89,33,48,1029,443.0,575,457,60,118.0,167,1,372,233,73,0,0,447,-18341,-18341,436,45.698799,4.909225,40.96,194.7,3,1.675,0,0.0,1.195,4,0.84,6.9274
415663,1560691687478,-1,2.25,2.39,3.13,2.25,5.06,0.72,-0.27,0.76,1,-0,5,0.77,8366,30,89,33,46,1036,443.0,575,458,60,118.0,167,1,363,224,73,0,0,451,-18341,-3267,439,,,,,,,,,,,,
415683,1560691687498,4,2.24,2.37,3.13,2.24,5.07,0.69,-0.22,0.72,1,1,3,0.73,8366,28,89,33,45,1042,444.0,570,458,60,117.0,167,1,356,222,73,0,0,449,21432,16648,440,,,,,,,,,,,,
415703,1560691687518,-1,2.25,2.36,3.14,2.23,5.05,0.72,-0.3,0.74,0,-0,3,0.78,8333,26,89,33,42,1049,446.0,575,459,60,118.0,167,1,336,216,73,0,0,447,16648,21432,442,,,,,,,,,,,,
415723,1560691687538,3,2.25,2.35,3.14,2.24,5.08,0.72,-0.2,0.7,0,0,3,0.74,8307,25,89,33,41,1057,446.0,574,463,60,118.0,167,1,329,214,73,0,0,450,16648,-26615,443,,,,,,,,,,,,
415743,1560691687558,1,2.25,2.36,3.16,2.23,5.05,0.71,-0.27,0.8,0,-2,1,0.76,8329,24,89,33,39,1060,448.0,577,462,60,119.0,151,1,316,211,67,0,0,451,8488,-3267,443,45.698807,4.909214,42.4,194.7,3,1.675,0,0.0,1.1967,4,0.84,6.929
415763,1560691687578,3,2.25,2.35,3.18,2.23,5.04,0.71,-0.17,0.67,-0,-2,1,0.73,8329,23,89,33,38,1062,449.0,584,460,60,119.0,151,1,313,206,67,0,0,450,10305,-8985,447,,,,,,,,,,,,
415783,1560691687597,1,2.26,2.35,3.2,2.22,5.08,0.69,-0.15,0.74,-1,-1,0,0.71,8300,23,89,33,37,1060,449.0,583,456,60,118.0,151,1,310,202,67,0,0,450,15649,-6387,444,,,,,,,,,,,,
415803,1560691687617,4,2.26,2.35,3.22,2.21,5.08,0.73,-0.12,0.73,-1,-2,0,0.74,8300,22,89,33,36,1058,448.0,596,462,60,119.0,151,1,307,197,67,0,0,452,15649,8488,445,,,,,,,,,,,,
415823,1560691687637,0,2.26,2.36,3.24,2.22,5.05,0.75,-0.15,0.73,-1,-2,1,0.77,8318,22,89,33,35,1054,449.0,583,458,60,118.0,151,1,303,193,67,0,0,448,15649,16648,445,,,,,,,,,,,,
415843,1560691687657,3,2.27,2.36,3.25,2.2,5.07,0.77,-0.14,0.73,-1,-3,1,0.78,8314,21,89,33,34,1050,449.0,587,457,60,118.0,134,1,301,188,60,0,0,446,15649,2131,443,45.698814,4.909201,42.83,194.7,3,1.675,0,0.0,1.1983,4,0.84,6.9307
415863,1560691687677,2,2.27,2.36,3.25,2.2,5.04,0.78,-0.11,0.7,-1,-3,0,0.79,8278,19,89,33,33,1032,448.0,576,460,60,118.0,134,1,298,183,60,0,0,449,8488,2131,446,,,,,,,,,,,,
415883,1560691687697,4,2.27,2.35,3.26,2.16,5.05,0.71,-0.09,0.71,-1,-2,-1,0.72,8238,18,89,33,31,1008,447.0,568,459,60,119.0,134,1,290,178,60,0,0,447,10305,8488,446,,,,,,,,,,,,
415903,1560691687717,-0,2.29,2.33,3.28,2.16,5.06,0.68,-0.11,0.68,-1,-3,-1,0.69,8216,17,89,33,30,987,447.0,563,458,60,118.0,134,1,287,175,60,0,0,445,10305,16648,444,,,,,,,,,,,,
415923,1560691687737,3,2.3,2.33,3.26,2.17,5.04,0.71,-0.06,0.62,-1,-2,-0,0.71,8134,16,89,33,29,967,448.0,562,461,60,119.0,134,1,282,172,60,0,0,449,8488,16648,445,,,,,,,,,,,,
415943,1560691687757,-0,2.31,2.33,3.27,2.17,5.04,0.64,-0.11,0.67,-1,-2,-1,0.65,8036,16,89,33,28,939,447.0,563,455,60,118.0,114,1,278,164,51,0,0,447,10305,3571,445,45.698818,4.909188,43.64,194.7,3,1.675,0,0.0,1.2,4,0.84,6.9324
415963,1560691687777,0,2.33,2.32,3.3,2.17,5.08,0.67,-0.09,0.67,-0,-2,-2,0.68,7944,15,89,33,28,905,445.0,561,457,60,118.0,114,1,277,161,51,0,0,445,2131,19477,445,,,,,,,,,,,,
415983,1560691687797,1,2.33,2.28,3.31,2.17,5.05,0.72,-0.07,0.62,0,-2,-2,0.72,7828,15,89,33,27,881,447.0,554,459,60,118.0,114,1,274,161,51,0,0,442,21432,2131,447,,,,,,,,,,,,
416003,1560691687817,3,2.34,2.12,3.29,2.2,5.04,0.68,-0.16,0.59,0,-4,-1,0.7,7687,14,89,33,27,867,449.0,552,458,60,118.0,114,1,272,161,51,0,0,443,26704,23400,448,,,,,,,,,,,,
416023,1560691687837,3,2.35,1.93,3.27,2.08,5.07,0.59,-0.23,0.52,1,-3,1,0.64,7575,13,89,33,26,851,452.0,547,457,60,119.0,114,1,268,160,51,0,0,440,-28332,21432,452,,,,,,,,,,,,
416043,1560691687857,3,2.37,1.93,3.27,1.99,5.04,0.54,-0.18,0.35,4,-4,3,0.57,7485,12,89,33,26,832,452.0,537,460,60,119.0,99,1,267,160,45,0,0,429,23400,20625,454,45.698826,4.909174,43.44,194.7,3,1.675,0,0.0,1.2017,4,0.84,6.9341
416063,1560691687877,3,2.39,1.89,3.34,1.99,5.04,0.44,-0.26,0.31,6,-1,4,0.51,7588,12,89,33,25,820,450.0,537,459,60,119.0,99,1,265,159,45,0,0,425,19477,3635,450,,,,,,,,,,,,
416083,1560691687897,2,2.4,1.87,3.45,2.01,5.05,0.4,-0.33,0.29,7,2,5,0.52,7690,12,89,33,25,815,446.0,544,458,60,119.0,99,1,266,159,45,0,0,419,243,-28332,445,,,,,,,,,,,,
416103,1560691687917,0,2.4,1.87,3.54,2.05,5.06,0.52,-0.4,0.37,8,2,6,0.66,7776,12,89,33,25,813,446.0,553,457,60,118.0,99,1,267,159,45,0,0,407,13180,-3314,446,,,,,,,,,,,,
416123,1560691687937,2,2.43,1.89,3.56,2.1,5.04,0.63,-0.4,0.35,8,2,7,0.74,7851,11,89,33,25,812,443.0,552,460,60,118.0,99,1,268,159,45,0,0,412,-4082,13180,442,,,,,,,,,,,,
416143,1560691687957,4,2.44,1.93,3.62,2.12,5.04,0.67,-0.44,0.39,8,4,10,0.8,7881,11,89,33,24,813,439.0,562,462,60,118.0,104,1,268,156,46,0,0,404,-8165,3826,439,45.698833,4.909161,43.16,194.7,3,1.675,0,0.0,1.2033,4,0.84,6.9357
416163,1560691687977,4,2.47,1.96,3.44,2.12,5.07,0.6,-0.45,0.36,9,2,9,0.75,7911,11,89,33,24,817,438.0,558,460,60,118.0,104,1,269,156,46,0,0,409,2524,1779,438,,,,,,,,,,,,
416183,1560691687997,-0,2.48,1.93,3.42,2.12,5.08,0.66,-0.53,0.44,12,1,10,0.85,7851,11,89,33,24,823,435.0,552,458,60,118.0,104,1,268,154,46,0,0,415,-4059,-21944,432,,,,,,,,,,,,
416203,1560691688009,0,2.48,1.91,3.49,2.14,5.05,0.8,-0.54,0.47,13,-1,10,0.97,7793,11,89,33,23,832,433.0,557,459,60,117.0,104,1,267,154,46,0,0,401,9517,13180,433,,,,,,,,,,,,
416223,1560691688029,1,2.49,1.9,3.58,2.22,5.04,0.9,-0.55,0.47,13,-4,12,1.05,7757,11,89,33,23,841,436.0,550,462,60,118.0,104,1,267,154,46,0,0,398,10541,-4082,436,,,,,,,,,,,,
416243,1560691688049,2,2.49,1.89,3.63,2.23,5.08,0.95,-0.55,0.41,13,-6,13,1.1,7659,11,89,33,23,846,432.0,551,461,60,119.0,103,1,266,154,45,0,0,390,11545,-3856,432,45.698837,4.909149,42.24,194.7,3,1.675,0,0.0,1.205,4,0.85,6.9374
416263,1560691688069,2,2.49,1.88,3.67,2.23,5.03,0.84,-0.52,0.31,15,-6,15,0.99,7615,11,89,33,23,852,432.0,548,462,60,119.0,103,1,266,154,45,0,0,390,6384,3635,432,,,,,,,,,,,,
416283,1560691688093,2,2.49,1.89,3.68,2.24,5.04,0.72,-0.5,0.19,16,-6,19,0.88,7497,11,89,33,23,862,434.0,539,461,60,119.0,103,1,264,154,45,0,0,389,28696,3826,434,,,,,,,,,,,,
416303,1560691688113,2,2.49,1.89,3.68,2.25,5.06,0.63,-0.5,0.1,17,-5,21,0.81,7452,11,89,33,23,871,433.0,542,463,60,117.0,103,1,264,154,45,0,0,379,-32702,-21944,435,,,,,,,,,,,,
416323,1560691688133,1,2.51,1.89,3.68,2.28,5.05,0.59,-0.46,0.04,17,-5,23,0.75,7378,11,89,33,23,876,431.0,532,462,60,119.0,103,1,263,154,45,0,0,372,17144,-8165,431,,,,,,,,,,,,
416343,1560691688153,-1,2.52,1.89,3.66,2.29,5.06,0.55,-0.44,-0.05,18,-6,23,0.71,7367,11,89,33,23,880,429.0,532,461,60,118.0,100,1,263,154,43,0,0,377,505,-26615,429,45.698845,4.909137,41.67,194.7,3,1.675,0,0.0,1.2067,4,0.85,6.9391
416363,1560691688173,-1,2.53,1.87,3.66,2.31,5.05,0.7,-0.5,0.08,19,-7,24,0.86,7327,11,89,33,24,884,428.0,530,458,60,118.0,100,1,263,156,43,0,0,382,505,-26615,427,,,,,,,,,,,,
416383,1560691688197,-0,2.54,1.86,3.66,2.34,5.08,0.83,-0.55,0.22,19,-7,25,1.0,7344,11,89,33,24,887,425.0,526,461,60,117.0,100,1,263,156,43,0,0,370,-3866,-26615,425,,,,,,,,,,,,
416403,1560691688217,2,2.53,1.83,3.65,2.33,5.05,0.91,-0.61,0.33,20,-7,25,1.09,7324,11,89,33,24,887,422.0,526,457,60,118.0,100,1,263,156,43,0,0,369,-19019,-4059,422,,,,,,,,,,,,
416423,1560691688237,4,2.51,1.8,3.65,2.31,5.07,1.02,-0.73,0.43,21,-8,26,1.25,7304,11,89,33,24,886,422.0,518,457,60,118.0,100,1,263,156,43,0,0,369,19125,-9166,422,,,,,,,,,,,,
416443,1560691688257,2,2.5,1.79,3.66,2.31,5.08,0.95,-0.78,0.39,23,-6,28,1.23,7298,12,89,33,24,884,421.0,516,458,60,119.0,101,1,262,156,43,0,0,370,8200,9517,421,45.698853,4.909126,40.44,194.7,3,1.675,0,0.0,1.2083,4,0.85,6.9407
416463,1560691688277,-0,2.48,1.8,3.65,2.31,5.06,0.79,-0.77,0.29,23,-3,30,1.1,7233,12,89,33,24,883,415.0,510,457,60,119.0,101,1,262,156,43,0,0,368,3,11560,415,,,,,,,,,,,,
416483,1560691688297,-1,2.46,1.82,3.66,2.28,5.08,0.72,-0.68,0.21,22,-4,31,0.99,7231,12,89,33,24,882,412.0,513,459,60,119.0,101,1,262,159,43,0,0,363,742,-8151,412,,,,,,,,,,,,
416503,1560691688317,4,2.43,1.74,3.64,2.25,5.07,0.85,-0.72,0.33,21,-6,29,1.11,7145,12,89,33,25,882,412.0,520,461,60,117.0,101,1,261,159,43,0,0,363,770,6384,412,,,,,,,,,,,,
416523,1560691688337,3,2.39,1.69,3.57,2.25,5.02,0.97,-0.77,0.42,20,-6,30,1.24,7091,12,89,33,25,881,411.0,507,456,60,118.0,101,1,260,159,43,0,0,370,3,-8151,411,,,,,,,,,,,,
416543,1560691688357,0,2.38,1.7,3.44,2.2,5.08,0.82,-0.68,0.28,20,-2,33,1.07,7094,12,89,33,25,879,407.0,512,459,60,119.0,103,1,260,159,42,0,0,370,742,-3968,407,45.698856,4.909116,39.61,194.7,3,1.675,0,0.0,1.21,4,0.85,6.9424
416563,1560691688377,-0,2.35,1.8,3.34,2.11,5.05,0.82,-0.62,0.27,19,-1,31,1.03,7051,12,89,33,25,879,405.0,467,460,60,119.0,103,1,260,159,42,0,0,370,8200,-1562,404,,,,,,,,,,,,
416583,1560691688395,4,2.31,1.97,3.3,2.13,5.04,0.93,-0.61,0.44,18,-2,27,1.12,7083,12,89,33,26,878,397.0,427,463,60,117.0,103,1,264,160,42,0,0,372,3,19125,397,,,,,,,,,,,,
416603,1560691688415,3,2.27,2.02,3.31,2.13,5.06,0.93,-0.59,0.44,17,-1,24,1.1,7083,12,89,33,26,881,390.0,456,457,60,118.0,103,1,264,160,42,0,0,374,770,-3866,390,,,,,,,,,,,,
416623,1560691688435,-1,2.24,2.05,3.3,2.16,5.07,0.77,-0.44,0.31,16,-1,24,0.88,7051,12,89,33,26,884,385.0,492,459,60,118.0,103,1,264,160,42,0,0,373,-6656,3,385,,,,,,,,,,,,
416643,1560691688455,4,2.19,2.11,3.29,2.13,5.08,0.89,-0.43,0.36,11,-3,24,0.99,7040,12,89,33,26,888,382.0,500,462,60,118.0,109,1,264,160,42,0,0,370,1,0,379,45.698868,4.909108,37.97,194.8,3,1.675,0,0.0,1.2117,4,0.85,6.944
416663,1560691688475,0,2.17,2.22,3.26,2.1,5.06,0.99,-0.32,0.47,8,-2,23,1.04,6988,12,89,33,26,892,376.0,498,457,60,118.0,109,1,265,160,42,0,0,372,770,486,376,,,,,,,,,,,,
416683,1560691688497,1,2.14,2.34,3.24,1.99,5.06,0.87,-0.15,0.36,6,-1,18,0.88,6895,12,89,33,26,897,377.0,500,458,60,118.0,109,1,266,160,42,0,0,373,-6656,0,371,,,,,,,,,,,,
416703,1560691688517,2,2.14,2.42,3.16,1.93,5.07,0.97,-0.18,0.52,3,-6,12,0.98,6850,12,89,33,27,904,380.0,486,458,60,118.0,109,1,270,161,42,0,0,375,-992,2790,365,,,,,,,,,,,,
416723,1560691688537,0,2.14,2.41,3.09,1.9,5.06,0.9,0.01,0.39,3,-5,10,0.9,6815,12,89,33,27,908,380.0,490,460,60,119.0,109,1,270,161,42,0,0,374,-992,4104,359,,,,,,,,,,,,
416743,1560691688557,3,2.13,2.39,3.23,1.87,5.07,0.86,0.02,0.47,1,-6,7,0.86,6764,12,89,33,27,911,377.0,497,458,60,117.0,114,1,270,163,41,0,0,369,-6656,-6644,358,45.698875,4.9091,36.71,194.7,3,1.675,0,0.0,1.2133,4,0.85,6.9457
416763,1560691688577,-0,2.11,2.39,3.35,1.88,5.07,0.83,0.11,0.38,-0,-5,4,0.84,6730,12,89,33,28,915,378.0,487,458,60,119.0,114,1,274,163,41,0,0,368,-6656,2060,356,,,,,,,,,,,,
416783,1560691688594,1,2.11,2.42,3.42,1.9,5.06,0.89,0.06,0.46,-3,-7,1,0.89,6713,12,89,33,29,920,377.0,488,460,60,118.0,114,1,278,164,41,0,0,367,8200,28553,355,,,,,,,,,,,,
416803,1560691688614,0,2.08,2.47,3.44,1.9,5.06,0.8,0.17,0.33,-5,-6,-1,0.82,6648,13,89,33,29,923,376.0,480,457,60,119.0,114,1,278,164,41,0,0,364,8200,2811,353,,,,,,,,,,,,
416823,1560691688634,2,2.05,2.53,3.34,1.9,5.04,0.8,0.17,0.35,-7,-6,-3,0.82,6611,14,89,33,30,924,378.0,488,462,60,118.0,114,1,282,166,41,0,0,366,2278,6870,351,,,,,,,,,,,,
416843,1560691688654,3,2.04,2.54,3.22,1.88,5.07,0.85,0.32,0.36,-9,-7,-6,0.91,6595,15,89,33,31,926,377.0,486,459,60,117.0,116,1,286,167,41,0,0,373,-6656,3327,349,45.698879,4.909093,36.91,194.8,3,1.675,0,0.0,1.215,4,0.85,6.9474
416863,1560691688674,-0,2.02,2.54,3.19,1.88,5.03,0.82,0.35,0.29,-10,-5,-9,0.89,6595,16,89,33,32,928,376.0,477,458,60,118.0,116,1,290,169,41,0,0,370,3,13,346,,,,,,,,,,,,
416883,1560691688698,4,2.02,2.53,3.14,1.87,5.07,0.83,0.37,0.38,-11,-5,-10,0.9,6637,18,89,33,34,929,378.0,487,467,60,118.0,116,1,295,179,41,0,0,368,2278,13,343,,,,,,,,,,,,
416903,1560691688718,0,2.02,2.49,3.09,1.83,5.05,0.81,0.52,0.32,-12,-3,-10,0.96,6623,20,89,33,35,929,374.0,488,459,60,119.0,116,1,298,185,41,0,0,369,742,3346,343,,,,,,,,,,,,
416923,1560691688738,1,2.01,2.47,3.04,1.81,5.04,0.85,0.46,0.35,-14,-3,-11,0.97,6623,21,89,33,37,931,376.0,497,462,60,118.0,116,1,304,196,41,0,0,372,3,-12032,342,,,,,,,,,,,,
416943,1560691688758,-1,2.03,2.45,3.03,1.81,5.04,0.85,0.6,0.34,-15,-2,-13,1.04,6644,21,89,33,38,930,376.0,490,460,60,119.0,149,1,307,202,51,0,0,373,3,4838,339,45.698891,4.909085,35.28,194.7,3,1.675,0,0.0,1.2167,4,0.85,6.949
416963,1560691688778,-0,2.03,2.45,3.03,1.82,5.07,0.84,0.55,0.34,-16,-1,-16,1.01,6641,22,89,33,40,931,374.0,486,463,60,118.0,149,1,317,209,51,0,0,368,770,-32559,338,,,,,,,,,,,,
416983,1560691688798,3,2.03,2.44,3.03,1.82,5.06,0.86,0.6,0.48,-18,-3,-19,1.05,6667,22,89,33,41,930,373.0,489,457,60,119.0,149,1,324,211,51,0,0,371,742,-32559,337,,,,,,,,,,,,
417003,1560691688818,-0,2.03,2.43,3.01,1.82,5.08,0.8,0.67,0.41,-18,-3,-22,1.05,6674,22,89,33,43,929,372.0,478,464,60,119.0,149,1,338,212,51,0,0,369,1,4838,337,,,,,,,,,,,,
417023,1560691688838,3,2.03,2.41,3.01,1.82,5.05,0.88,0.62,0.48,-19,-2,-25,1.07,6651,22,89,33,43,925,371.0,486,467,60,118.0,149,1,338,214,51,0,0,372,257,13,336,,,,,,,,,,,,
417043,1560691688858,0,2.02,2.4,3.02,1.81,5.08,0.84,0.7,0.43,-20,-1,-26,1.1,6660,22,89,33,44,922,372.0,477,455,60,119.0,160,1,345,216,54,0,0,368,1,3346,337,45.698898,4.909077,34.75,194.7,3,1.675,0,0.0,1.2183,4,0.85,6.9507
417063,1560691688878,3,2.02,2.39,3.01,1.81,5.06,0.88,0.63,0.47,-20,-0,-27,1.08,6684,22,89,33,45,919,372.0,483,463,60,117.0,160,1,352,217,54,0,0,369,1,4838,338,,,,,,,,,,,,
417083,1560691688898,-2,2.03,2.4,2.99,1.86,5.05,0.88,0.72,0.39,-21,1,-26,1.14,6703,23,89,33,46,917,373.0,483,457,60,119.0,160,1,359,217,54,0,0,367,-6656,4838,337,,,,,,,,,,,,
417103,1560691688918,3,2.02,2.4,2.98,1.9,5.04,0.89,0.69,0.42,-21,1,-25,1.13,6706,23,89,33,46,921,370.0,491,462,60,117.0,160,1,359,219,54,0,0,369,486,-12032,337,,,,,,,,,,,,
417123,1560691688938,-0,2.01,2.4,2.98,1.88,5.05,0.87,0.8,0.41,-22,3,-25,1.18,6701,23,89,33,47,924,367.0,491,458,60,119.0,160,1,367,221,54,0,0,366,-6656,-6528,336,,,,,,,,,,,,
417143,1560691688958,3,2.02,2.38,2.97,1.86,5.04,0.94,0.69,0.49,-23,2,-26,1.17,6725,23,89,33,47,931,368.0,486,462,60,118.0,166,1,367,221,56,0,0,368,0,3346,336,45.698898,4.909068,33.92,194.6,3,1.675,0,0.0,1.22,4,0.85,6.9524
417163,1560691688978,-1,2.02,2.38,2.97,1.83,5.04,0.89,0.77,0.47,-23,1,-28,1.17,6734,23,89,33,47,940,370.0,487,459,60,119.0,166,1,367,221,56,0,0,368,486,175,335,,,,,,,,,,,,
417183,1560691688998,3,2.02,2.38,2.96,1.83,5.04,0.91,0.72,0.5,-23,2,-31,1.16,6768,23,89,33,48,961,370.0,488,461,60,117.0,166,1,370,226,56,0,0,367,486,-12032,333,,,,,,,,,,,,
417203,1560691689010,0,2.02,2.38,2.95,1.82,5.07,0.97,0.74,0.47,-24,1,-33,1.22,6778,24,89,33,48,980,369.0,487,451,60,119.0,166,1,370,226,56,0,0,365,-6656,-6528,333,,,,,,,,,,,,
417223,1560691689030,1,2.03,2.39,2.97,1.83,5.07,0.94,0.61,0.51,-24,1,-33,1.12,6835,24,89,33,48,993,368.0,490,460,60,117.0,166,1,371,226,56,0,0,364,0,-6528,332,,,,,,,,,,,,
417243,1560691689050,-1,2.03,2.4,3.04,1.82,5.06,0.92,0.66,0.43,-24,3,-31,1.13,6875,24,89,33,49,1010,368.0,492,451,60,119.0,180,1,374,227,60,0,0,365,0,-32559,332,45.698906,4.909059,33.56,194.6,3,1.675,0,0.0,1.2217,4,0.86,6.9541
417263,1560691689070,5,2.02,2.43,3.1,1.83,5.04,0.9,0.62,0.46,-25,4,-32,1.09,6903,24,89,33,49,1037,366.0,500,458,60,118.0,180,1,374,232,60,0,0,364,0,-32559,332,,,,,,,,,,,,
417283,1560691689094,2,2.02,2.47,3.1,1.83,5.04,0.81,0.59,0.46,-24,4,-32,1.0,6929,24,89,33,49,1066,366.0,493,458,60,118.0,180,1,374,232,60,0,0,366,230,-122,330,,,,,,,,,,,,
417303,1560691689114,0,2.03,2.53,3.09,1.84,5.05,0.79,0.66,0.46,-25,4,-31,1.02,6903,24,89,33,49,1080,370.0,491,455,60,119.0,180,1,374,232,60,0,0,369,486,28553,332,,,,,,,,,,,,
417323,1560691689134,2,2.04,2.53,2.99,1.83,5.07,0.84,0.6,0.56,-25,5,-32,1.03,6742,24,89,33,49,1095,370.0,488,460,60,118.0,180,1,373,231,60,0,0,372,486,2060,335,,,,,,,,,,,,
417343,1560691689154,-0,2.06,2.52,2.92,1.83,5.04,0.87,0.64,0.56,-25,4,-33,1.08,6648,24,89,33,49,1114,371.0,475,450,60,119.0,176,1,372,231,59,0,0,372,257,-1246,337,45.698914,4.909049,33.25,194.6,3,1.675,0,0.0,1.2233,4,0.86,6.9557
417363,1560691689174,1,2.1,2.49,2.91,1.82,5.04,0.89,0.64,0.51,-25,4,-33,1.09,6553,25,89,33,50,1135,372.0,466,455,60,118.0,176,1,374,236,59,0,0,370,1,8841,339,,,,,,,,,,,,
417383,1560691689198,3,2.12,2.46,2.95,1.84,5.04,0.87,0.52,0.59,-24,3,-32,1.01,6492,25,89,33,51,1140,372.0,465,462,60,117.0,176,1,376,241,59,0,0,368,257,8841,342,,,,,,,,,,,,
417403,1560691689218,3,2.16,2.44,3.05,1.85,5.05,0.84,0.57,0.54,-23,4,-30,1.02,6485,25,89,33,51,1145,369.0,462,457,60,119.0,176,1,376,241,59,0,0,369,-6656,3327,342,,,,,,,,,,,,
417423,1560691689238,-1,2.18,2.41,3.1,1.9,5.07,0.8,0.51,0.5,-21,5,-29,0.95,6505,25,89,33,52,1145,367.0,465,455,60,118.0,176,1,380,247,59,0,0,366,0,-1246,343,,,,,,,,,,,,
417443,1560691689258,4,2.21,2.39,3.12,1.95,5.05,0.85,0.46,0.61,-21,4,-28,0.96,6526,25,89,33,52,1144,364.0,472,457,60,118.0,174,1,380,247,60,0,0,364,-1268,6668,344,45.698917,4.909039,33.25,194.6,3,1.675,0,0.0,1.225,4,0.86,6.9574
417463,1560691689278,-0,2.24,2.37,3.14,2.01,5.04,0.76,0.46,0.64,-19,5,-28,0.89,6526,25,89,33,52,1140,364.0,466,457,60,119.0,174,1,380,247,60,0,0,363,-1268,-30438,346,,,,,,,,,,,,
417483,1560691689298,1,2.28,2.34,3.13,2.07,5.04,0.76,0.37,0.58,-17,6,-26,0.85,6560,25,89,33,52,1134,360.0,471,456,60,118.0,174,1,380,247,60,0,0,361,-14707,2811,349,,,,,,,,,,,,
417503,1560691689318,5,2.32,2.29,3.11,2.11,5.03,0.83,0.3,0.7,-15,2,-24,0.89,6644,25,89,33,52,1129,358.0,471,452,60,119.0,174,1,381,252,60,0,0,359,-29978,2811,352,,,,,,,,,,,,
417523,1560691689338,0,2.34,2.26,3.11,2.15,5.05,0.75,0.25,0.65,-12,3,-22,0.79,6653,25,89,33,53,1126,354.0,478,457,60,118.0,174,1,384,247,60,0,0,353,3302,-6640,354,,,,,,,,,,,,
417543,1560691689358,5,2.37,2.18,3.14,2.17,5.04,0.8,0.14,0.74,-10,2,-21,0.81,6725,25,89,33,52,1125,355.0,483,457,60,118.0,175,1,382,252,62,0,0,352,-30454,-6640,355,45.698917,4.909028,33.34,194.6,3,1.675,0,0.0,1.2267,4,0.86,6.9591
417563,1560691689378,2,2.4,2.11,3.19,2.19,5.04,0.79,0.13,0.68,-8,1,-18,0.8,6805,25,89,33,53,1126,357.0,482,454,60,119.0,175,1,385,247,62,0,0,349,8841,2060,357,,,,,,,,,,,,
417583,1560691689398,1,2.44,2.08,3.25,2.25,5.08,0.74,0.03,0.7,-5,2,-16,0.74,6893,25,89,33,52,1134,359.0,496,458,60,119.0,175,1,383,247,62,0,0,347,6870,4104,360,,,,,,,,,,,,
417603,1560691689418,3,2.48,2.08,3.29,2.32,5.07,0.81,-0.06,0.64,-4,0,-11,0.81,6926,26,89,33,52,1144,363.0,491,454,60,119.0,175,1,383,247,62,0,0,348,-14714,-1268,363,,,,,,,,,,,,
417623,1560691689438,-1,2.51,2.1,3.35,2.37,5.05,0.63,-0.06,0.52,-0,5,-6,0.63,6813,26,89,33,52,1153,366.0,484,457,60,119.0,175,1,382,247,62,0,0,353,-31206,2790,366,,,,,,,,,,,,
417643,1560691689458,4,2.55,2.15,3.37,2.43,5.06,0.77,-0.17,0.56,1,1,-1,0.78,6776,26,89,33,53,1161,367.0,481,462,60,118.0,172,1,385,252,63,0,0,361,6870,0,367,45.698921,4.909017,33.47,194.6,3,1.675,0,0.0,1.2283,4,0.86,6.9607
417663,1560691689478,0,2.61,2.15,3.38,2.47,5.04,0.62,-0.17,0.52,3,2,3,0.65,6720,27,89,33,53,1168,368.0,481,455,60,119.0,172,1,385,252,63,0,0,359,3327,0,368,,,,,,,,,,,,
417683,1560691689498,2,2.64,2.14,3.42,2.46,5.05,0.74,-0.26,0.52,5,1,7,0.78,6701,27,89,33,54,1177,368.0,473,463,60,118.0,172,1,388,252,63,0,0,363,6668,230,369,,,,,,,,,,,,
417703,1560691689518,-0,2.67,2.11,3.48,2.47,5.06,0.65,-0.23,0.57,8,0,9,0.69,6689,27,89,33,54,1180,369.0,470,456,60,119.0,172,1,388,258,63,0,0,357,-31206,0,369,,,,,,,,,,,,
417723,1560691689538,4,2.68,2.1,3.53,2.47,5.04,0.65,-0.27,0.59,10,-1,11,0.7,6737,27,89,33,54,1180,371.0,473,461,60,118.0,172,1,388,258,63,0,0,351,-31222,-6656,371,,,,,,,,,,,,
417743,1560691689558,-0,2.69,2.07,3.58,2.45,5.08,0.59,-0.33,0.66,13,-2,10,0.67,6803,28,89,33,54,1173,374.0,477,457,60,119.0,176,1,388,262,66,0,0,354,13,770,374,45.698925,4.909006,33.92,194.6,3,1.675,0,0.0,1.23,4,0.86,6.9624
417763,1560691689578,3,2.67,2.05,3.66,2.43,5.05,0.72,-0.45,0.69,14,-5,11,0.85,6873,31,89,33,55,1158,377.0,482,457,60,118.0,176,1,393,262,66,0,0,358,3346,742,377,,,,,,,,,,,,
417783,1560691689597,-0,2.68,2.02,3.68,2.43,5.06,0.59,-0.45,0.6,17,-3,14,0.74,6929,33,89,33,57,1145,381.0,485,461,60,119.0,176,1,402,268,66,0,0,371,3346,742,381,,,,,,,,,,,,
417803,1560691689617,-2,2.68,2.03,3.68,2.45,5.05,0.7,-0.56,0.62,18,-5,17,0.9,7075,36,89,33,58,1130,381.0,496,453,60,119.0,176,1,410,279,66,0,0,382,3346,2278,381,,,,,,,,,,,,
417823,1560691689637,13,2.68,2.04,3.68,2.47,5.06,0.74,-0.58,0.6,20,-4,21,0.94,7211,39,89,33,60,1116,382.0,500,460,60,117.0,176,1,423,293,66,0,0,384,-6528,-992,382,,,,,,,,,,,,
417843,1560691689657,4,2.7,2.06,3.64,2.5,5.05,0.59,-0.6,0.5,22,-1,25,0.84,7259,41,89,33,61,1099,382.0,502,452,60,119.0,209,1,430,299,80,0,0,382,-12032,-19126,382,45.698933,4.908995,34.9,194.6,3,1.675,0,0.0,1.2317,4,0.86,6.964
417863,1560691689677,4,2.71,2.05,3.6,2.5,5.05,0.53,-0.64,0.48,24,-1,28,0.83,7338,42,89,33,63,1086,381.0,505,455,60,119.0,209,1,426,311,80,0,0,366,-6528,770,381,,,,,,,,,,,,
417883,1560691689697,1,2.71,2.06,3.57,2.53,5.05,0.53,-0.65,0.51,25,-1,31,0.84,7250,42,89,33,64,1083,382.0,508,458,60,119.0,209,1,420,320,80,0,0,391,-32559,-3866,383,,,,,,,,,,,,
417903,1560691689717,-0,2.71,2.07,3.55,2.54,5.05,0.52,-0.67,0.53,26,-2,32,0.85,7208,42,89,33,65,1079,384.0,505,454,60,119.0,209,1,415,319,80,0,0,412,-6528,-3866,384,,,,,,,,,,,,
417923,1560691689737,-0,2.69,2.06,3.54,2.54,5.04,0.67,-0.68,0.61,27,-5,33,0.95,7222,43,89,33,67,1074,385.0,498,459,60,118.0,209,1,408,329,80,0,0,389,4838,-3866,383,,,,,,,,,,,,
417943,1560691689757,1,2.68,2.03,3.56,2.52,5.05,0.76,-0.74,0.68,27,-6,33,1.06,7259,43,89,33,67,1070,384.0,497,458,60,117.0,237,1,411,337,91,0,0,362,13,240,385,45.698936,4.908985,35.57,194.6,3,1.675,0,0.0,1.2333,4,0.86,6.9657
417963,1560691689777,3,2.67,2.0,3.58,2.52,5.06,0.71,-0.8,0.69,28,-5,35,1.07,7244,43,89,33,68,1068,386.0,496,456,60,118.0,237,1,404,336,91,0,0,399,2560,-6524,388,,,,,,,,,,,,
417983,1560691689797,3,2.65,2.0,3.6,2.51,5.04,0.57,-0.79,0.64,30,-5,36,0.97,7236,44,89,33,69,1069,391.0,495,459,60,118.0,237,1,404,349,91,0,0,421,3327,240,392,,,,,,,,,,,,
418003,1560691689817,1,2.64,2.0,3.62,2.51,5.05,0.47,-0.79,0.52,31,-5,38,0.92,7396,47,89,33,70,1081,393.0,452,458,60,119.0,237,1,412,355,91,0,0,411,-122,17144,393,,,,,,,,,,,,
418023,1560691689837,4,2.61,2.01,3.62,2.48,5.05,0.44,-0.83,0.43,33,-3,40,0.94,7578,50,89,33,71,1094,396.0,379,456,60,118.0,237,1,421,374,91,0,0,390,-31206,6512,396,,,,,,,,,,,,
418043,1560691689857,3,2.6,2.02,3.62,2.48,5.04,0.34,-0.83,0.45,34,-2,41,0.9,7703,53,89,33,72,1107,398.0,427,460,60,118.0,280,1,427,400,111,0,0,386,-10554,1504,398,45.69894,4.908975,35.4,194.7,3,1.675,0,0.0,1.235,4,0.86,6.9674
418063,1560691689877,-1,2.6,2.02,3.62,2.5,5.07,0.34,-0.84,0.51,35,-2,41,0.91,7741,53,89,33,73,1120,401.0,390,458,60,117.0,280,1,431,411,111,0,0,441,8841,10392,401,,,,,,,,,,,,
418083,1560691689897,3,2.59,2.04,3.57,2.53,5.07,0.37,-0.82,0.53,35,-2,42,0.9,7904,53,89,33,73,1129,404.0,398,460,60,117.0,280,1,437,414,111,0,0,452,-1246,10392,404,,,,,,,,,,,,
418103,1560691689917,5,2.58,2.14,3.51,2.58,5.04,0.43,-0.87,0.54,34,-2,44,0.97,8102,53,89,33,72,1139,404.0,435,452,60,118.0,280,1,442,408,111,0,0,412,8841,13040,404,,,,,,,,,,,,
418123,1560691689937,1,2.59,2.2,3.46,2.59,5.05,0.51,-0.94,0.61,34,-2,45,1.07,8145,53,89,33,70,1135,405.0,371,455,60,118.0,280,1,443,388,111,0,0,404,-30454,-8165,405,,,,,,,,,,,,
418143,1560691689957,2,2.58,2.22,3.42,2.6,5.05,0.47,-0.87,0.64,34,-3,45,0.99,8074,53,89,33,70,1131,408.0,398,465,60,118.0,293,1,446,387,119,0,0,430,-29302,-3856,408,45.698948,4.908966,35.78,194.7,3,1.675,0,0.0,1.2367,4,0.86,6.969
418163,1560691689977,1,2.58,2.26,3.39,2.64,5.06,0.44,-0.84,0.69,34,-2,46,0.95,8009,54,89,33,69,1106,413.0,376,459,60,119.0,293,1,449,377,119,0,0,454,-6458,13180,414,,,,,,,,,,,,
418183,1560691689997,0,2.57,2.27,3.36,2.65,5.07,0.49,-0.78,0.79,34,-2,46,0.92,7982,54,89,33,70,1072,419.0,397,458,60,117.0,293,1,444,384,119,0,0,441,-14707,13180,419,,,,,,,,,,,,
418203,1560691690009,2,2.56,2.27,3.36,2.66,5.04,0.57,-0.86,0.85,34,-4,44,1.03,7931,54,89,33,71,1055,421.0,434,456,60,118.0,293,1,441,383,119,0,0,402,-6458,-768,421,,,,,,,,,,,,
418223,1560691690029,4,2.56,2.24,3.4,2.64,5.08,0.5,-0.87,0.87,33,-6,45,1.0,7898,54,89,33,71,1032,423.0,467,457,60,118.0,293,1,440,392,119,0,0,425,0,243,423,,,,,,,,,,,,
418243,1560691690049,1,2.54,2.22,3.56,2.62,5.06,0.5,-0.92,0.92,33,-7,43,1.05,7858,54,89,33,72,1000,424.0,485,460,60,117.0,275,1,435,403,117,0,0,468,-18948,5600,428,45.698956,4.908958,36.38,194.7,3,1.675,0,0.0,1.2383,4,0.87,6.9707
418263,1560691690069,4,2.54,2.2,3.59,2.6,5.04,0.53,-0.93,0.88,32,-7,42,1.07,8085,54,89,33,72,974,431.0,499,464,60,118.0,275,1,442,407,117,0,0,470,240,-3322,431,,,,,,,,,,,,
418283,1560691690097,3,2.52,2.18,3.6,2.58,5.08,0.58,-1.01,0.9,32,-6,42,1.17,8415,54,89,33,70,969,433.0,511,464,60,118.0,275,1,435,405,117,0,0,419,-6656,21580,433,,,,,,,,,,,,
418303,1560691690117,1,2.5,2.18,3.6,2.58,5.04,0.63,-1.03,0.92,32,-7,42,1.21,8668,54,89,33,67,965,437.0,530,458,60,118.0,275,1,426,379,117,0,0,451,-1818,21432,437,,,,,,,,,,,,
418323,1560691690137,2,2.49,2.21,3.54,2.59,5.04,0.6,-1.04,0.85,32,-4,43,1.2,8773,54,89,33,65,958,442.0,542,452,60,117.0,275,1,420,363,117,0,0,494,-32702,17628,442,,,,,,,,,,,,
418343,1560691690157,5,2.48,2.25,3.45,2.59,5.06,0.54,-0.92,0.79,32,-2,42,1.06,8848,54,89,33,64,950,444.0,556,458,60,117.0,270,1,415,359,120,0,0,467,6384,16408,444,45.698963,4.90895,38.57,194.7,3,1.675,0,0.0,1.24,4,0.87,6.9724
418363,1560691690177,3,2.49,2.26,3.42,2.62,5.05,0.43,-0.85,0.77,32,-2,41,0.95,8823,54,89,33,63,941,448.0,563,450,60,117.0,270,1,415,353,120,0,0,443,10541,-18108,448,,,,,,,,,,,,
418383,1560691690197,2,2.48,2.25,3.35,2.61,5.06,0.37,-0.75,0.8,32,-1,39,0.83,8684,54,89,33,63,936,453.0,567,455,60,117.0,270,1,428,352,120,0,0,459,-9211,30272,453,,,,,,,,,,,,
418403,1560691690217,1,2.47,2.24,3.31,2.61,5.04,0.43,-0.77,0.86,31,-3,38,0.88,8526,54,89,33,63,948,454.0,560,460,60,118.0,270,1,439,355,120,0,0,463,-9166,243,454,,,,,,,,,,,,
418423,1560691690237,4,2.44,2.24,3.32,2.6,5.04,0.51,-0.71,0.91,29,-3,38,0.87,8457,55,89,33,63,959,458.0,561,446,60,117.0,270,1,444,347,120,0,0,469,7154,-3210,458,,,,,,,,,,,,
418443,1560691690257,3,2.44,2.23,3.33,2.59,5.05,0.44,-0.67,0.94,28,-2,36,0.8,8503,55,89,33,64,978,460.0,552,456,60,118.0,246,1,440,355,113,0,0,459,-4082,30272,460,45.698971,4.908943,39.37,194.7,3,1.675,0,0.0,1.2417,4,0.87,6.974
418463,1560691690277,2,2.42,2.24,3.34,2.56,5.05,0.52,-0.76,0.84,26,-3,35,0.92,8600,55,89,33,64,1004,461.0,556,463,60,118.0,246,1,433,356,113,0,0,459,-3322,-9203,461,,,,,,,,,,,,
418483,1560691690297,1,2.4,2.28,3.35,2.56,5.04,0.62,-0.75,0.81,25,-3,36,0.98,8745,55,89,33,64,1034,464.0,560,463,60,118.0,246,1,422,358,113,0,0,461,5600,-1923,464,,,,,,,,,,,,
418503,1560691690317,-1,2.39,2.33,3.35,2.54,5.05,0.5,-0.64,0.76,24,-1,35,0.81,8836,55,89,33,64,1060,467.0,573,458,60,118.0,246,1,416,354,113,0,0,478,-18341,-17956,464,,,,,,,,,,,,
418523,1560691690337,-1,2.37,2.38,3.34,2.53,5.07,0.42,-0.47,0.67,24,-0,35,0.63,8992,55,89,33,63,1090,467.0,577,448,60,118.0,246,1,401,356,113,0,0,469,16648,16648,467,,,,,,,,,,,,
418543,1560691690357,1,2.35,2.4,3.31,2.53,5.08,0.28,-0.27,0.67,23,2,33,0.39,9049,55,89,33,62,1100,470.0,578,466,60,117.0,259,1,399,352,121,0,0,470,-3267,16648,470,45.698978,4.908935,40.08,194.7,3,1.675,0,0.0,1.2433,4,0.87,6.9757
418563,1560691690377,1,2.32,2.44,3.27,2.53,5.04,0.29,-0.13,0.62,21,1,32,0.32,9031,55,89,33,63,1109,470.0,597,452,60,118.0,259,1,401,357,121,0,0,477,-8985,-10483,470,,,,,,,,,,,,
418583,1560691690397,1,2.31,2.46,3.24,2.54,5.03,0.19,0.03,0.58,20,2,32,0.19,9023,55,89,33,63,1114,473.0,603,453,60,118.0,259,1,400,352,121,0,0,492,-18108,16648,473,,,,,,,,,,,,
418603,1560691690417,2,2.29,2.47,3.21,2.51,5.04,0.19,0.15,0.54,18,2,30,0.24,9053,55,89,33,62,1113,474.0,602,450,60,118.0,259,1,399,352,121,0,0,483,16408,3580,475,,,,,,,,,,,,
418623,1560691690437,1,2.28,2.47,3.22,2.48,5.08,0.18,0.26,0.48,16,3,29,0.32,9084,55,89,33,62,1106,477.0,600,460,60,117.0,259,1,401,352,121,0,0,490,8488,-6441,477,,,,,,,,,,,,
418643,1560691690457,2,2.26,2.47,3.19,2.44,5.08,0.32,0.33,0.54,14,3,27,0.46,9119,55,89,33,62,1099,478.0,608,455,60,117.0,254,1,401,352,121,0,0,490,2212,-6656,478,45.69899,4.908927,40.1,194.8,3,1.675,0,0.0,1.245,4,0.87,6.9774
418663,1560691690477,1,2.26,2.5,3.19,2.41,5.07,0.43,0.15,0.57,13,2,26,0.45,9168,55,89,33,62,1099,481.0,601,456,60,118.0,254,1,403,352,121,0,0,497,32033,3,480,,,,,,,,,,,,
418683,1560691690497,3,2.25,2.55,3.2,2.39,5.08,0.59,-0.01,0.7,11,1,23,0.59,9277,55,89,33,61,1100,483.0,608,460,60,118.0,254,1,405,348,121,0,0,495,3580,248,480,,,,,,,,,,,,
418703,1560691690517,5,2.23,2.55,3.2,2.37,5.06,0.58,-0.04,0.82,9,-1,19,0.58,9379,55,89,33,61,1108,487.0,603,451,60,118.0,254,1,409,348,121,0,0,502,-10483,2109,482,,,,,,,,,,,,
418723,1560691690537,2,2.22,2.58,3.19,2.37,5.05,0.36,0.13,0.74,8,1,16,0.39,9436,55,89,33,61,1117,491.0,611,458,60,117.0,254,1,411,348,121,0,0,504,248,-22519,485,,,,,,,,,,,,
418743,1560691690557,5,2.22,2.58,3.19,2.35,5.04,0.52,0.02,0.75,7,-1,15,0.52,9493,55,89,33,60,1121,494.0,620,450,60,118.0,257,1,411,343,125,0,0,505,998,6274,490,45.698998,4.908921,43.42,194.8,3,1.675,0,0.0,1.2467,4,0.87,6.9791
418763,1560691690577,5,2.23,2.55,3.12,2.33,5.07,0.59,-0.01,0.86,5,-1,13,0.59,9517,55,89,33,60,1126,499.0,618,465,60,118.0,257,1,412,348,125,0,0,508,-22519,10994,492,,,,,,,,,,,,
418783,1560691690596,2,2.23,2.54,3.07,2.29,5.07,0.44,0.15,0.85,4,1,12,0.46,9595,55,89,33,60,1124,503.0,621,454,60,117.0,257,1,412,347,125,0,0,512,2109,26178,495,,,,,,,,,,,,
418803,1560691690616,3,2.23,2.54,3.06,2.27,5.04,0.59,0.01,0.92,3,1,8,0.59,9630,55,89,33,60,1120,507.0,618,455,60,118.0,257,1,411,349,125,0,0,515,-21872,6274,498,,,,,,,,,,,,
418823,1560691690636,1,2.23,2.54,3.06,2.28,5.04,0.46,0.09,0.92,3,0,6,0.47,9684,55,89,33,59,1114,508.0,630,454,60,117.0,257,1,409,346,125,0,0,521,-3414,26178,502,,,,,,,,,,,,
418843,1560691690656,5,2.22,2.54,3.07,2.27,5.04,0.49,0.01,0.96,3,-0,4,0.49,9715,55,89,33,59,1106,511.0,639,461,60,117.0,254,1,408,347,127,0,0,522,17136,2088,504,45.699009,4.908914,45.32,194.9,3,1.675,0,0.0,1.2483,4,0.87,6.9807
418863,1560691690676,3,2.21,2.52,3.08,2.27,5.07,0.45,0.13,0.88,2,1,2,0.47,9821,55,89,33,59,1099,513.0,626,460,60,117.0,254,1,407,349,127,0,0,525,16383,-22519,508,,,,,,,,,,,,
418883,1560691690696,5,2.23,2.52,3.03,2.26,5.06,0.55,0.1,0.84,1,1,1,0.55,9894,55,90,33,59,1092,519.0,627,453,60,118.0,254,1,407,354,127,0,0,526,-8187,6274,511,,,,,,,,,,,,
418903,1560691690716,3,2.22,2.54,2.99,2.27,5.05,0.43,0.12,0.75,1,-0,2,0.45,9925,55,90,33,58,1082,519.0,641,457,60,117.0,254,1,405,349,127,0,0,525,2524,-9212,511,,,,,,,,,,,,
418923,1560691690736,2,2.23,2.55,2.99,2.28,5.08,0.47,0.17,0.84,-0,0,1,0.5,9946,54,90,33,58,1065,520.0,623,456,60,118.0,254,1,405,349,127,0,0,533,2524,-32248,513,,,,,,,,,,,,
418943,1560691690756,4,2.22,2.55,3.02,2.27,5.05,0.52,0.15,0.86,-0,-1,1,0.54,10000,54,90,33,58,1058,522.0,621,452,60,118.0,255,1,405,351,131,0,0,535,2088,-2934,517,45.699017,4.908907,47.43,194.9,3,1.675,0,0.0,1.25,4,0.87,6.9824
418963,1560691690776,4,2.22,2.55,3.07,2.28,5.04,0.4,0.2,0.88,-1,-2,0,0.44,10000,53,90,33,57,1047,527.0,620,453,60,117.0,255,1,403,342,131,0,0,537,6274,6274,521,,,,,,,,,,,,
418983,1560691690796,3,2.23,2.53,3.06,2.27,5.08,0.51,0.23,0.84,-2,-1,-1,0.56,10032,52,90,33,56,1036,530.0,617,459,60,118.0,255,1,403,342,131,0,0,540,2524,-28648,525,,,,,,,,,,,,
419003,1560691690816,1,2.23,2.52,3.08,2.26,5.08,0.56,0.21,0.86,-2,-2,-1,0.6,10140,47,90,33,55,1022,535.0,626,454,60,118.0,255,1,402,327,131,0,0,544,6274,-8186,525,,,,,,,,,,,,
419023,1560691690836,5,2.22,2.52,3.08,2.25,5.04,0.43,0.22,0.82,-2,-2,-2,0.48,10140,41,90,33,52,1013,537.0,643,454,60,118.0,255,1,394,308,131,0,0,541,-30064,-32248,528,,,,,,,,,,,,
419043,1560691690856,2,2.23,2.52,3.09,2.24,5.04,0.43,0.24,0.84,-2,-1,-2,0.49,10190,34,90,33,49,1010,540.0,623,458,60,118.0,215,1,385,268,114,0,0,552,-8186,-32248,530,45.699032,4.908902,49.84,194.9,3,1.675,0,0.0,1.2517,4,0.87,6.984
419063,1560691690876,1,2.23,2.51,3.09,2.22,5.05,0.5,0.25,0.75,-2,-0,-2,0.55,10168,28,90,33,45,998,542.0,633,456,60,118.0,215,1,365,240,114,0,0,549,1779,-3082,533,,,,,,,,,,,,
419083,1560691690896,4,2.23,2.49,3.11,2.22,5.07,0.56,0.12,0.75,-3,-1,-3,0.57,10032,24,90,32,41,988,543.0,637,457,60,118.0,215,1,335,225,114,0,0,542,-506,-3082,537,,,,,,,,,,,,
419103,1560691690916,6,2.22,2.47,3.1,2.18,5.05,0.45,0.18,0.72,-3,1,-4,0.48,9863,20,90,32,37,985,546.0,632,459,60,117.0,215,1,314,213,114,0,0,546,2524,-3082,536,,,,,,,,,,,,
419123,1560691690936,7,2.23,2.45,3.1,2.16,5.04,0.61,0.04,0.75,-4,-2,-4,0.61,9615,17,90,32,35,980,543.0,619,455,60,118.0,215,1,308,206,114,0,0,538,1779,6274,534,,,,,,,,,,,,
419143,1560691690956,11,2.23,2.43,3.12,2.12,5.05,0.56,0.05,0.73,-4,-3,-5,0.57,9328,15,90,32,33,957,540.0,625,458,60,118.0,136,1,302,198,73,0,0,540,-8186,2104,533,45.699039,4.908895,51.51,194.9,3,1.675,0,0.0,1.2533,4,0.88,6.9857
419163,1560691690976,10,2.24,2.39,3.15,2.09,5.05,0.36,0.17,0.58,-3,0,-6,0.4,9191,15,90,32,31,940,537.0,621,457,60,117.0,136,1,295,190,73,0,0,536,-30064,2088,531,,,,,,,,,,,,
419183,1560691690996,12,2.24,2.37,3.19,2.07,5.07,0.24,0.3,0.53,-3,-1,-6,0.39,8890,15,90,32,30,915,537.0,621,459,60,117.0,136,1,291,188,73,0,0,531,-32248,15679,528,,,,,,,,,,,,
419203,1560691691010,12,2.24,2.32,3.21,2.03,5.05,0.35,0.22,0.44,-3,0,-9,0.42,8765,14,90,32,29,898,532.0,617,458,60,118.0,136,1,287,188,73,0,0,523,2104,2524,525,,,,,,,,,,,,
419223,1560691691030,13,2.24,2.27,3.25,1.96,5.07,0.52,0.13,0.49,-4,-3,-8,0.53,8733,14,90,32,28,882,530.0,610,461,60,118.0,136,1,282,188,73,0,0,499,6274,771,519,,,,,,,,,,,,
419243,1560691691050,12,2.24,2.23,3.33,1.93,5.07,0.67,0.07,0.42,-4,-4,-8,0.67,8765,14,90,32,28,856,523.0,612,460,60,118.0,119,1,282,188,62,0,0,484,1248,-6441,515,45.699055,4.908888,52.12,194.9,3,1.675,0,0.0,1.255,4,0.88,6.9874
419263,1560691691070,12,2.24,2.2,3.38,1.91,5.04,0.74,-0.04,0.47,-4,-3,-7,0.74,8761,13,90,32,27,848,517.0,604,456,60,118.0,119,1,278,188,62,0,0,461,-14,3576,510,,,,,,,,,,,,
419283,1560691691098,16,2.24,2.17,3.39,1.89,5.06,0.66,0.09,0.33,-4,-2,-6,0.67,8733,13,90,32,27,844,512.0,607,457,60,117.0,119,1,278,188,62,0,0,455,-4054,30272,505,,,,,,,,,,,,
419303,1560691691118,14,2.24,2.17,3.41,1.89,5.04,0.61,0.15,0.29,-4,-1,-6,0.62,8628,13,90,32,27,854,505.0,593,458,60,118.0,119,1,278,188,62,0,0,454,6274,2524,500,,,,,,,,,,,,
419323,1560691691138,10,2.25,2.16,3.38,1.86,5.04,0.75,0.07,0.26,-4,-1,-5,0.75,8514,13,90,32,27,882,501.0,595,460,60,118.0,119,1,278,188,62,0,0,465,11560,17628,495,,,,,,,,,,,,
419343,1560691691158,16,2.25,2.15,3.35,1.86,5.08,0.83,0.1,0.16,-4,-2,-4,0.83,8449,13,90,32,27,901,496.0,591,461,60,117.0,119,1,278,184,59,0,0,469,3,-18108,488,45.699066,4.908882,51.8,194.9,3,1.675,0,0.0,1.2567,4,0.88,6.989
419363,1560691691178,14,2.24,2.14,3.36,1.85,5.04,0.85,0.08,0.17,-4,-1,-4,0.85,8472,13,90,32,27,928,487.0,591,460,60,118.0,119,1,278,186,59,0,0,448,505,2524,481,,,,,,,,,,,,
419383,1560691691198,11,2.25,2.1,3.38,1.85,5.04,0.96,0.04,0.14,-4,-2,-3,0.96,8445,13,90,32,26,970,482.0,587,460,60,118.0,119,1,274,184,59,0,0,428,-899,-3267,479,,,,,,,,,,,,
419403,1560691691218,11,2.25,2.09,3.38,1.84,5.06,0.97,0.07,0.2,-4,-1,-2,0.97,8337,13,90,32,27,1008,480.0,590,457,60,117.0,119,1,277,179,59,0,0,445,8488,15649,472,,,,,,,,,,,,
419423,1560691691238,11,2.24,2.09,3.36,1.85,5.07,1.02,-0.06,0.22,-4,-2,-2,1.02,8212,13,90,32,26,1033,471.0,586,457,60,118.0,119,1,273,171,59,0,0,449,32033,-28332,467,,,,,,,,,,,,
419443,1560691691258,12,2.24,2.1,3.34,1.85,5.05,1.12,-0.01,0.27,-5,-3,-3,1.12,8130,13,90,32,26,1045,466.0,586,460,60,117.0,111,1,273,167,52,0,0,448,-3210,-768,465,45.699078,4.908875,49.5,194.9,3,1.675,0,0.0,1.2583,4,0.88,6.9907
419463,1560691691278,14,2.25,2.09,3.34,1.85,5.04,1.09,-0.03,0.26,-4,-5,-3,1.09,8152,13,90,32,26,1056,462.0,577,458,60,118.0,111,1,273,169,52,0,0,434,12552,-768,459,,,,,,,,,,,,
419483,1560691691296,10,2.25,2.09,3.37,1.84,5.04,1.18,-0.12,0.31,-4,-5,-4,1.19,8081,13,90,32,26,1074,456.0,576,456,60,118.0,111,1,273,164,52,0,0,428,14488,-3856,456,,,,,,,,,,,,
419503,1560691691316,9,2.26,2.09,3.38,1.86,5.06,1.14,-0.02,0.23,-4,-4,-3,1.14,7999,13,90,32,25,1083,452.0,575,462,60,119.0,111,1,269,159,52,0,0,416,-6387,5600,449,,,,,,,,,,,,
419523,1560691691336,12,2.26,2.09,3.4,1.86,5.04,1.07,-0.01,0.15,-3,-4,-3,1.07,7948,13,90,32,25,1087,448.0,562,460,60,119.0,111,1,269,159,52,0,0,422,21432,5600,445,,,,,,,,,,,,
419543,1560691691356,7,2.26,2.09,3.4,1.86,5.04,1.11,-0.09,0.14,-3,-4,-3,1.11,7864,13,90,32,24,1085,442.0,552,458,60,118.0,105,1,268,156,47,0,0,424,23400,13552,440,45.699089,4.908869,46.72,195.0,3,1.675,0,0.0,1.26,4,0.88,6.9924
419563,1560691691376,8,2.26,2.09,3.39,1.85,5.05,1.2,-0.03,0.26,-3,-5,-4,1.2,7805,13,90,32,25,1082,439.0,549,459,60,118.0,105,1,268,156,47,0,0,421,-28332,-3414,436,,,,,,,,,,,,
419583,1560691691398,7,2.27,2.08,3.39,1.83,5.04,1.2,0.04,0.27,-3,-6,-5,1.21,7812,13,90,32,24,1076,436.0,549,457,60,119.0,105,1,268,156,47,0,0,418,5600,-26615,434,,,,,,,,,,,,
419603,1560691691418,6,2.28,2.09,3.39,1.84,5.05,1.09,0.07,0.15,-2,-5,-4,1.09,7780,13,90,32,24,1065,432.0,543,457,60,119.0,105,1,267,156,47,0,0,414,-3322,9517,430,,,,,,,,,,,,
419623,1560691691438,7,2.27,2.09,3.39,1.85,5.04,1.03,0.03,0.02,-1,-2,-2,1.03,7754,13,90,32,24,1055,430.0,541,461,60,118.0,105,1,267,156,47,0,0,414,3635,2524,428,,,,,,,,,,,,
419643,1560691691458,7,2.28,2.09,3.39,1.86,5.04,1.01,-0.05,0.07,-1,-0,-3,1.01,7678,13,90,32,24,1021,426.0,541,455,60,118.0,105,1,266,156,45,0,0,409,13552,10392,425,45.699097,4.908863,45.14,195.0,3,1.675,0,0.0,1.2617,4,0.88,6.994
419663,1560691691478,2,2.28,2.1,3.39,1.87,5.06,0.99,-0.14,0.17,-1,-1,-3,1.0,7659,12,90,32,24,996,421.0,546,461,60,118.0,105,1,266,156,45,0,0,407,-21792,9517,421,,,,,,,,,,,,
419683,1560691691498,0,2.3,2.1,3.38,1.87,5.04,1.05,-0.22,0.3,-1,-1,-4,1.08,7615,12,90,32,24,977,420.0,538,460,60,118.0,105,1,266,156,45,0,0,406,-8165,11560,419,,,,,,,,,,,,
419703,1560691691518,1,2.3,2.09,3.37,1.86,5.06,1.15,-0.2,0.42,-1,-2,-4,1.17,7581,12,90,32,24,956,417.0,547,460,60,118.0,105,1,265,156,45,0,0,407,-3414,11560,416,,,,,,,,,,,,
419723,1560691691538,1,2.31,2.08,3.36,1.87,5.04,1.2,-0.16,0.53,-2,-2,-3,1.21,7584,12,90,32,24,932,416.0,535,459,60,118.0,105,1,265,156,45,0,0,403,-26615,2524,416,,,,,,,,,,,,
419743,1560691691558,1,2.32,2.09,3.34,1.87,5.07,1.21,-0.1,0.57,-2,-1,-2,1.22,7548,12,90,32,24,914,416.0,546,457,60,118.0,105,1,265,156,44,0,0,404,13040,-9211,416,45.699112,4.908857,42.96,195.0,3,1.675,0,0.0,1.2633,4,0.88,6.9957
419763,1560691691578,1,2.33,2.07,3.33,1.87,5.07,1.22,-0.05,0.65,-1,-2,-2,1.22,7536,12,90,32,24,908,414.0,539,456,60,117.0,105,1,265,156,44,0,0,404,11560,10392,414,,,,,,,,,,,,
419783,1560691691597,1,2.35,2.07,3.33,1.96,5.04,1.25,-0.02,0.7,-1,-1,-2,1.25,7500,12,90,32,24,903,411.0,538,460,60,118.0,105,1,265,156,44,0,0,399,2524,-9211,413,,,,,,,,,,,,
419803,1560691691617,0,2.38,2.07,3.35,2.03,5.04,1.33,-0.09,0.76,-0,-3,-2,1.33,7479,12,90,32,25,896,409.0,527,456,60,118.0,105,1,264,156,44,0,0,395,10541,28696,409,,,,,,,,,,,,
419823,1560691691637,1,2.4,2.05,3.38,2.03,5.07,1.37,-0.15,0.75,0,-4,-1,1.38,7408,12,90,32,24,889,410.0,528,458,60,117.0,105,1,264,156,44,0,0,392,28696,1504,410,,,,,,,,,,,,
419843,1560691691657,-1,2.42,2.02,3.41,2.07,5.04,1.42,-0.24,0.82,1,-4,1,1.44,7376,12,90,32,25,887,410.0,520,458,60,118.0,104,1,263,159,43,0,0,393,-32702,11545,410,45.699116,4.908852,40.92,195.1,3,1.675,0,0.0,1.265,4,0.89,6.9974
419863,1560691691677,3,2.44,2.0,3.44,2.1,5.04,1.38,-0.28,0.83,3,-2,3,1.41,7312,12,90,32,25,885,409.0,527,459,60,118.0,104,1,263,159,43,0,0,384,505,11545,409,,,,,,,,,,,,
419883,1560691691697,4,2.46,1.99,3.47,2.11,5.06,1.26,-0.35,0.8,6,-1,4,1.31,7275,12,90,32,25,882,408.0,514,458,60,118.0,104,1,262,159,43,0,0,381,-6524,-32702,411,,,,,,,,,,,,
419903,1560691691717,4,2.47,1.96,3.46,2.13,5.03,1.16,-0.41,0.73,8,-0,5,1.23,7253,12,90,32,25,879,408.0,523,461,60,119.0,104,1,262,159,43,0,0,377,-19126,10541,410,,,,,,,,,,,,
419923,1560691691737,1,2.51,1.94,3.5,2.17,5.04,1.03,-0.39,0.61,10,0,7,1.1,7203,12,90,32,25,875,408.0,520,458,60,119.0,104,1,262,159,43,0,0,373,-992,6384,407,,,,,,,,,,,,
419943,1560691691757,1,2.52,1.93,3.62,2.22,5.04,1.08,-0.46,0.61,12,-2,11,1.17,7205,12,90,32,25,873,406.0,521,461,60,118.0,105,1,262,159,43,0,0,360,770,6384,406,45.699127,4.908845,39.98,195.1,3,1.675,0,0.0,1.2667,4,0.89,6.9991
419963,1560691691777,5,2.55,1.91,3.63,2.24,5.03,1.17,-0.59,0.66,12,-2,14,1.31,7145,12,90,32,26,873,407.0,519,458,60,118.0,105,1,265,160,43,0,0,355,-6656,-9211,407,,,,,,,,,,,,
419983,1560691691797,3,2.55,1.91,3.64,2.27,5.07,1.09,-0.59,0.6,16,-1,16,1.24,7040,12,90,32,26,873,408.0,507,458,60,118.0,105,1,264,160,43,0,0,362,486,-8151,408,,,,,,,,,,,,
420003,1560691691817,-1,2.59,1.89,3.65,2.3,5.05,0.93,-0.58,0.53,18,1,18,1.1,7006,12,90,33,26,876,409.0,506,457,60,119.0,105,1,264,160,43,0,0,353,-1268,28696,409,,,,,,,,,,,,
420023,1560691691837,4,2.59,1.89,3.66,2.32,5.03,1.0,-0.67,0.63,19,-2,20,1.2,6931,12,90,33,26,879,407.0,511,461,60,117.0,105,1,265,160,43,0,0,344,3082,-6656,407,,,,,,,,,,,,
420043,1560691691857,0,2.6,1.9,3.67,2.32,5.04,0.94,-0.68,0.51,21,-2,22,1.16,6870,12,90,33,26,884,404.0,497,457,60,119.0,103,1,266,161,42,0,0,341,-6458,6384,404,45.699135,4.908841,38.53,195.1,3,1.675,0,0.0,1.2683,4,0.89,7.0007
420063,1560691691877,3,2.61,1.89,3.68,2.31,5.06,0.97,-0.74,0.53,23,-5,23,1.22,6838,12,90,33,27,889,404.0,496,463,60,118.0,103,1,270,161,42,0,0,338,-29302,-32702,403,,,,,,,,,,,,
