"Interval"|"ms"|0|0|1,"Utc"|"ms"|0|0|1,"FB_p"|"bar"|0|300|50,"Volant"|"F"|0.0|300.0|50,"xFR"|"mm"|0.0|5.0|50,"xRR"|"mm"|0.0|5.0|50,"xFL"|"mm"|0.0|5.0|50,"xRL"|"mm"|0.0|5.0|50,"AccelX"|"G"|-3.0|3.0|50,"AccelY"|"G"|-3.0|3.0|50,"AccelZ"|"G"|-3.0|3.0|50,"Yaw"|"Deg/Sec"|-120|120|50,"Pitch"|"Deg/Sec"|-120|120|50,"Roll"|"Deg/Sec"|-120|120|50,"Gsum"|"G"|0.0|3.0|50,"RPM"|""|0|14000|50,"TPS"|"%"|0|100|50,"WaterTemp"|"?C"|0|300|50,"AirTemp"|"?C"|-1000|1000|50,"MAP"|"KPa"|0|255|50,"Lambda"|""|0|1024|50,"WheelSpeed"|"MPH"|0.0|150.0|50,"OilPress"|"PSI"|0|150|50,"FuelPress"|"PSI"|0|150|50,"OilTemp"|"F"|0|300|50,"Battery"|"Volts"|0.0|20.0|50,"FuelCon"|"L/h"|-1000|1000|50,"Gear"|""|0|10|50,"Advance"|"Deg"|-360|360|50,"Injection"|"ms"|-1000|1000|50,"FuelCon"|"L/100km"|-1000|1000|50,"LC_But_Pres"|""|-1000|1000|50,"LC_Active"|""|-1000|1000|50,"RD_Speed"|""|-1000|1000|50,"RUD_Speed"|""|-1000|1000|50,"LD_Speed"|""|-1000|1000|50,"LUD_Speed"|""|-1000|1000|50,"Latitude"|"Degrees"|-180.0|180.0|10,"Longitude"|"Degrees"|-180.0|180.0|10,"Speed"|"kph"|0.0|150.0|10,"Altitude"|"m"|0.0|4000.0|10,"LapCount"|""|0|0|10,"LapTime"|"Min"|0.0|0.0|10,"Sector"|""|0|0|10,"SectorTime"|"Min"|0.0|0.0|10,"ElapsedTime"|"Min"|0.0|0.0|10,"CurrentLap"|""|0|0|10,"Distance"|"km"|0.0|0.0|10,"SessionTime"|"Min"|0.0|0.0|10
346063,1560691617875,18,2.24,1.92,3.43,1.61,5.05,0.98,0.09,-0.04,-3,3,-7,0.98,5412,5,87,33,29,838,550.0,399,457,60,117.0,61,1,272,161,34,0,0,321,-32248,155,531,,,,,,,,,,,,
346083,1560691617895,18,2.24,1.91,3.43,1.6,5.04,0.95,0.06,0.04,-5,4,-9,0.95,5372,5,87,33,30,868,542.0,393,460,60,118.0,61,1,273,161,34,0,0,328,-3082,165,526,,,,,,,,,,,,
346103,1560691617915,16,2.25,1.91,3.43,1.59,5.05,1.01,0.12,0.02,-4,1,-10,1.01,5496,5,87,33,31,897,540.0,391,461,60,119.0,61,1,276,162,34,0,0,299,-8186,-1281,520,,,,,,,,,,,,
346123,1560691617935,16,2.27,1.9,3.45,1.59,5.06,1.08,0.15,-0.04,-7,2,-10,1.09,5495,5,87,33,31,912,535.0,402,457,60,118.0,61,1,276,162,34,0,0,277,6274,16896,516,,,,,,,,,,,,
346143,1560691617955,14,2.27,1.95,3.43,1.6,5.05,1.0,0.08,-0.06,-8,5,-11,1.0,5411,5,87,33,32,927,531.0,396,458,60,119.0,64,1,278,163,33,0,0,288,-22519,-1,507,45.700794,4.909638,56.34,195.9,3,1.675,0,0.0,0.0367,4,0.06,5.7691
346163,1560691617975,14,2.3,1.98,3.41,1.61,5.07,1.1,0.14,-0.06,-8,-0,-11,1.11,5274,5,87,34,33,946,526.0,396,460,60,118.0,64,1,278,167,33,0,0,324,-32248,80,499,,,,,,,,,,,,
346183,1560691617995,13,2.3,1.98,3.41,1.61,5.07,0.94,0.11,-0.04,-9,4,-12,0.95,5199,5,87,34,33,968,518.0,388,462,60,118.0,64,1,277,166,33,0,0,346,1341,32000,496,,,,,,,,,,,,
346203,1560691618009,13,2.33,1.97,3.41,1.59,5.07,1.05,0.11,0.03,-9,-1,-13,1.06,5275,5,87,34,34,972,510.0,391,453,60,119.0,64,1,282,173,33,0,0,296,-4054,95,489,,,,,,,,,,,,
346223,1560691618029,11,2.33,1.97,3.43,1.61,5.04,0.92,0.06,0.05,-11,2,-15,0.92,5381,5,87,34,35,977,507.0,392,468,60,118.0,64,1,288,174,33,0,0,262,-21872,100,487,,,,,,,,,,,,
346243,1560691618049,8,2.35,1.99,3.43,1.65,5.03,1.03,0.18,0.05,-9,-0,-14,1.05,5369,5,87,34,35,957,502.0,393,454,60,119.0,72,1,288,179,35,0,0,267,15661,250,479,45.700802,4.909647,52.97,195.9,3,1.675,0,0.0,0.0383,4,0.06,5.7707
346263,1560691618069,7,2.37,2.03,3.39,1.68,5.05,1.0,0.14,0.05,-12,-0,-14,1.01,5296,5,87,34,36,936,494.0,385,465,60,118.0,72,1,290,185,35,0,0,320,998,25600,476,,,,,,,,,,,,
346283,1560691618097,4,2.38,2.03,3.38,1.68,5.05,1.02,0.19,0.03,-9,-1,-14,1.04,5331,5,87,34,36,912,485.0,385,461,60,119.0,72,1,291,185,35,0,0,331,-6441,23040,472,,,,,,,,,,,,
346303,1560691618117,5,2.4,2.02,3.38,1.65,5.04,1.12,0.17,0.01,-11,-1,-16,1.13,5439,5,87,34,36,887,483.0,388,460,60,117.0,72,1,292,192,35,0,0,302,32033,1886,465,,,,,,,,,,,,
346323,1560691618137,2,2.41,2.0,3.4,1.64,5.04,0.97,0.1,-0.01,-10,0,-16,0.97,5517,5,87,34,37,853,477.0,394,460,60,118.0,72,1,297,187,35,0,0,288,2212,-30976,465,,,,,,,,,,,,
346343,1560691618157,2,2.41,2.0,3.4,1.66,5.04,1.03,0.16,0.04,-7,0,-14,1.04,5620,5,87,34,36,816,474.0,398,458,60,119.0,83,1,295,188,39,0,0,293,-9203,-32256,464,45.700817,4.909655,50.32,196.0,3,1.675,0,0.0,0.04,4,0.06,5.7724
346363,1560691618177,2,2.43,1.99,3.4,1.64,5.06,1.12,0.17,0.1,-6,-3,-13,1.14,5735,5,87,34,36,797,470.0,406,462,60,119.0,83,1,297,188,39,0,0,313,8488,120,460,,,,,,,,,,,,
346383,1560691618197,0,2.42,1.99,3.38,1.63,5.06,1.21,0.13,0.1,-7,-6,-12,1.22,5842,5,87,34,35,786,462.0,413,460,60,118.0,83,1,295,189,39,0,0,319,12552,29440,458,,,,,,,,,,,,
346403,1560691618217,-1,2.44,2.02,3.39,1.66,5.04,1.3,0.07,0.06,-8,-7,-11,1.3,5941,5,87,34,35,779,457.0,420,467,60,117.0,83,1,297,184,39,0,0,317,-9160,32000,456,,,,,,,,,,,,
346423,1560691618237,-0,2.46,2.03,3.39,1.69,5.04,1.37,0.05,0.05,-9,-8,-10,1.37,6042,5,87,34,34,774,452.0,429,457,60,118.0,83,1,295,179,39,0,0,316,-6387,-28416,452,,,,,,,,,,,,
346443,1560691618257,1,2.46,2.03,3.39,1.73,5.03,1.43,-0.05,0.11,-9,-10,-7,1.43,6171,5,87,34,33,775,450.0,437,457,60,118.0,90,1,292,174,41,0,0,323,2131,28553,450,45.700825,4.909663,47.78,196.0,3,1.675,0,0.0,0.0417,4,0.06,5.774
346463,1560691618277,4,2.46,2.02,3.38,1.72,5.05,1.49,-0.1,0.14,-8,-13,-5,1.5,6325,5,87,34,32,780,446.0,446,457,60,119.0,90,1,290,169,41,0,0,346,19477,3183,446,,,,,,,,,,,,
346483,1560691618297,4,2.47,2.0,3.37,1.7,5.07,1.43,-0.04,0.24,-5,-13,-2,1.43,6454,5,87,34,31,796,445.0,463,462,60,119.0,90,1,286,167,41,0,0,378,1779,-29978,445,,,,,,,,,,,,
346503,1560691618317,1,2.48,1.99,3.38,1.69,5.08,1.38,0.0,0.13,-2,-12,0,1.38,6597,5,87,34,30,816,442.0,478,463,60,118.0,90,1,282,166,41,0,0,379,3826,19125,442,,,,,,,,,,,,
346523,1560691618337,3,2.48,1.99,3.37,1.7,5.05,1.33,0.01,0.11,1,-10,1,1.33,6771,5,87,34,29,833,440.0,483,452,60,119.0,90,1,278,164,41,0,0,396,2524,-26615,440,,,,,,,,,,,,
346543,1560691618357,2,2.47,1.99,3.43,1.75,5.04,1.36,-0.1,0.18,4,-10,1,1.36,6923,6,87,34,29,846,439.0,488,466,60,118.0,95,1,277,164,42,0,0,390,11560,-26615,439,45.70084,4.90967,45.21,196.0,3,1.675,0,0.0,0.0433,4,0.06,5.7757
346563,1560691618377,-1,2.47,1.91,3.51,1.79,5.04,1.26,-0.16,0.11,8,-9,3,1.27,7070,6,87,34,28,856,437.0,507,461,60,119.0,95,1,272,163,42,0,0,377,2524,-8151,437,,,,,,,,,,,,
346583,1560691618397,0,2.47,1.82,3.56,1.86,5.04,1.28,-0.2,-0.04,9,-8,6,1.3,7175,7,87,34,27,864,433.0,510,460,60,119.0,95,1,269,161,42,0,0,385,11545,6512,433,,,,,,,,,,,,
346603,1560691618417,-1,2.46,1.8,3.57,1.93,5.08,1.29,-0.25,-0.15,10,-7,10,1.31,7335,8,87,34,26,866,432.0,516,465,60,117.0,95,1,266,160,42,0,0,381,6384,-26615,431,,,,,,,,,,,,
346623,1560691618437,-1,2.46,1.79,3.55,2.01,5.07,1.35,-0.34,-0.1,11,-4,14,1.39,7443,10,87,34,26,859,427.0,522,458,60,119.0,95,1,267,160,42,0,0,383,-1818,28696,427,,,,,,,,,,,,
346643,1560691618457,-1,2.45,1.8,3.53,2.08,5.07,1.4,-0.37,-0.0,13,-3,17,1.45,7527,14,87,34,26,853,423.0,528,462,60,119.0,105,1,268,160,45,0,0,381,-1562,-9211,423,45.700848,4.909677,42.89,196.1,3,1.675,0,0.0,0.045,4,0.06,5.7774
346663,1560691618477,1,2.44,1.83,3.52,2.13,5.05,1.31,-0.38,0.04,14,-1,18,1.37,7530,17,87,34,27,848,421.0,534,460,60,119.0,105,1,272,161,45,0,0,383,-31744,11560,421,,,,,,,,,,,,
346683,1560691618496,0,2.43,1.84,3.51,2.22,5.04,1.35,-0.39,0.06,15,-0,20,1.4,7563,19,87,34,28,845,417.0,538,461,60,118.0,105,1,275,163,45,0,0,385,-3866,9517,418,,,,,,,,,,,,
346703,1560691618516,-2,2.42,1.85,3.51,2.28,5.07,1.34,-0.37,0.09,15,-1,21,1.39,7524,20,87,34,29,846,415.0,535,458,60,119.0,105,1,279,164,45,0,0,384,-6475,9517,415,,,,,,,,,,,,
346723,1560691618536,-0,2.39,1.86,3.5,2.26,5.06,1.36,-0.38,0.15,15,-1,22,1.41,7503,20,87,34,31,850,413.0,535,461,60,119.0,105,1,286,167,45,0,0,383,-3866,10392,413,,,,,,,,,,,,
346743,1560691618556,-1,2.38,1.87,3.5,2.26,5.08,1.35,-0.37,0.24,14,-1,20,1.4,7449,20,87,34,32,856,410.0,541,461,60,118.0,114,1,290,169,47,0,0,385,-6475,11560,410,45.700859,4.909684,40.87,196.1,3,1.675,0,0.0,0.0467,4,0.06,5.779
346763,1560691618576,1,2.36,1.88,3.49,2.23,5.04,1.42,-0.38,0.32,12,-4,19,1.47,7416,20,87,34,33,862,408.0,537,461,60,118.0,114,1,292,174,47,0,0,388,-3866,-26615,408,,,,,,,,,,,,
346783,1560691618596,5,2.35,1.91,3.48,2.2,5.06,1.48,-0.41,0.37,12,-3,18,1.54,7350,21,87,34,34,867,406.0,530,457,60,119.0,114,1,295,179,47,0,0,387,240,-8151,406,,,,,,,,,,,,
346803,1560691618616,2,2.36,1.96,3.49,2.17,5.05,1.43,-0.43,0.51,12,1,18,1.5,7370,21,87,34,35,873,403.0,534,461,60,118.0,114,1,298,185,47,0,0,386,-6524,-8151,404,,,,,,,,,,,,
346823,1560691618636,3,2.34,2.02,3.48,2.17,5.07,1.35,-0.43,0.63,13,1,18,1.42,7315,22,87,34,36,884,403.0,533,458,60,117.0,114,1,301,190,47,0,0,386,-6524,-8151,404,,,,,,,,,,,,
346843,1560691618656,3,2.34,2.07,3.48,2.17,5.07,1.25,-0.49,0.6,13,2,18,1.35,7307,23,87,34,37,894,401.0,525,455,60,118.0,128,1,304,196,52,0,0,389,-6524,-32702,401,45.700867,4.909691,39.8,196.1,3,1.675,0,0.0,0.0483,4,0.06,5.7807
346863,1560691618676,3,2.33,2.07,3.43,2.17,5.05,1.05,-0.46,0.48,13,3,20,1.15,7332,24,87,34,38,900,401.0,525,458,60,118.0,128,1,307,202,52,0,0,387,240,-32702,401,,,,,,,,,,,,
346883,1560691618696,-0,2.33,2.08,3.39,2.16,5.05,0.98,-0.4,0.37,12,2,19,1.06,7329,24,87,34,39,908,400.0,515,457,60,118.0,128,1,310,208,52,0,0,387,-31744,6384,400,,,,,,,,,,,,
346903,1560691618716,1,2.33,2.08,3.39,2.16,5.06,0.97,-0.41,0.33,11,1,17,1.05,7384,24,87,34,40,925,397.0,527,460,60,119.0,128,1,317,209,52,0,0,387,240,-6656,397,,,,,,,,,,,,
346923,1560691618736,0,2.34,2.07,3.36,2.14,5.05,0.97,-0.37,0.27,10,0,16,1.03,7390,25,87,34,41,943,397.0,526,458,60,119.0,128,1,325,211,52,0,0,387,-3866,-8151,397,,,,,,,,,,,,
346943,1560691618756,2,2.33,2.07,3.35,2.12,5.06,1.06,-0.29,0.24,10,-2,16,1.1,7446,25,87,34,41,955,397.0,525,457,60,119.0,148,1,325,211,59,0,0,386,240,-6656,397,45.700874,4.909699,38.7,196.1,3,1.675,0,0.0,0.05,4,0.07,5.7824
346963,1560691618776,-0,2.32,2.07,3.36,2.12,5.04,1.12,-0.27,0.29,8,-1,16,1.15,7458,25,87,34,42,967,396.0,520,457,60,119.0,148,1,332,213,59,0,0,382,240,6512,396,,,,,,,,,,,,
346983,1560691618796,-0,2.32,2.07,3.35,2.12,5.03,1.14,-0.2,0.35,8,-1,14,1.16,7488,25,87,34,42,989,396.0,530,458,60,119.0,148,1,332,213,59,0,0,387,240,17144,396,,,,,,,,,,,,
347003,1560691618816,-1,2.3,2.09,3.36,2.11,5.04,1.16,-0.18,0.34,7,-2,12,1.17,7503,25,87,34,43,1012,397.0,534,458,60,118.0,148,1,340,216,59,0,0,387,-3866,6384,397,,,,,,,,,,,,
347023,1560691618836,0,2.28,2.08,3.35,2.09,5.07,1.23,-0.13,0.32,6,-4,12,1.24,7539,25,87,34,43,1023,394.0,533,457,60,119.0,148,1,340,216,59,0,0,386,240,-32702,394,,,,,,,,,,,,
347043,1560691618856,2,2.25,2.11,3.35,2.07,5.07,1.24,-0.08,0.32,4,-3,12,1.24,7594,25,87,34,43,1034,392.0,534,459,60,119.0,155,1,340,216,61,0,0,386,-31744,505,392,45.700882,4.909707,37.89,196.1,3,1.675,0,0.0,0.0517,4,0.07,5.784
347063,1560691618876,2,2.21,2.17,3.31,2.06,5.08,1.18,0.0,0.29,3,-2,10,1.18,7618,25,87,34,43,1046,391.0,542,458,60,119.0,155,1,340,216,61,0,0,390,-6524,505,391,,,,,,,,,,,,
347083,1560691618896,2,2.2,2.23,3.24,2.03,5.07,1.16,0.11,0.24,2,-3,9,1.17,7681,26,87,34,43,1057,392.0,544,457,60,119.0,155,1,340,216,61,0,0,388,1,240,388,,,,,,,,,,,,
347103,1560691618916,3,2.18,2.28,3.21,2.02,5.04,1.12,0.11,0.2,1,-3,8,1.13,7760,26,87,34,43,1060,392.0,545,458,60,118.0,155,1,340,216,61,0,0,393,1,-3866,386,,,,,,,,,,,,
347123,1560691618936,3,2.17,2.32,3.18,2.01,5.06,1.05,0.12,0.27,-1,-0,7,1.05,7812,26,87,34,43,1060,394.0,546,457,60,118.0,155,1,340,216,61,0,0,396,-1818,-6524,384,,,,,,,,,,,,
347143,1560691618956,-2,2.16,2.38,3.12,2.02,5.07,0.98,0.12,0.41,-2,2,4,0.99,7725,26,87,34,43,1067,396.0,556,456,60,119.0,164,1,340,217,63,0,0,403,-32702,-6656,383,45.70089,4.909714,37.92,196.1,3,1.675,0,0.0,0.0533,4,0.07,5.7857
347163,1560691618976,-0,2.14,2.4,3.08,2.03,5.08,1.0,0.18,0.5,-4,-1,2,1.02,7637,26,87,34,43,1074,399.0,546,461,60,118.0,164,1,340,217,63,0,0,407,28696,28696,383,,,,,,,,,,,,
347183,1560691618996,0,2.12,2.42,2.99,2.03,5.03,1.08,0.23,0.57,-5,-1,1,1.1,7440,26,87,34,44,1081,402.0,534,458,60,119.0,164,1,347,217,63,0,0,402,10541,1504,385,,,,,,,,,,,,
347203,1560691619010,4,2.1,2.46,2.93,2.02,5.08,1.07,0.24,0.71,-6,-0,-2,1.1,7278,26,87,34,44,1088,404.0,528,461,60,118.0,164,1,347,217,63,0,0,408,1504,10541,387,,,,,,,,,,,,
347223,1560691619030,4,2.1,2.47,2.93,2.01,5.05,1.04,0.24,0.74,-7,-1,-5,1.07,7186,26,87,34,45,1091,406.0,519,459,60,118.0,164,1,355,219,63,0,0,406,2524,505,387,,,,,,,,,,,,
347243,1560691619050,2,2.09,2.47,2.95,1.99,5.04,1.04,0.28,0.66,-8,-1,-6,1.08,7178,26,87,34,46,1093,407.0,517,459,60,118.0,153,1,362,219,59,0,0,406,-26615,-6524,385,45.700901,4.909722,37.96,196.2,3,1.675,0,0.0,0.055,4,0.07,5.7874
347263,1560691619070,1,2.1,2.46,3.02,1.97,5.04,1.04,0.35,0.58,-9,-2,-7,1.09,7242,26,87,34,46,1090,409.0,521,457,60,119.0,153,1,362,221,59,0,0,406,10392,-19019,383,,,,,,,,,,,,
347283,1560691619096,0,2.1,2.46,3.06,1.95,5.06,1.06,0.39,0.65,-11,-2,-9,1.13,7244,26,87,34,47,1086,409.0,514,456,60,119.0,153,1,370,223,59,0,0,409,11560,-19126,382,,,,,,,,,,,,
347303,1560691619116,-1,2.09,2.45,3.11,1.93,5.07,1.05,0.44,0.73,-12,-1,-12,1.14,7321,26,87,34,47,1079,412.0,525,465,60,117.0,153,1,370,223,59,0,0,409,13040,-992,382,,,,,,,,,,,,
347323,1560691619136,1,2.09,2.48,3.1,1.94,5.06,1.0,0.4,0.71,-13,0,-15,1.08,7387,27,87,34,47,1071,412.0,535,460,60,117.0,153,1,370,223,59,0,0,408,13040,19125,382,,,,,,,,,,,,
347343,1560691619156,1,2.09,2.49,3.07,1.93,5.07,1.06,0.38,0.79,-14,0,-16,1.13,7464,27,87,34,47,1066,412.0,533,459,60,118.0,162,1,370,223,62,0,0,407,13040,-19019,382,45.700905,4.90973,38.09,196.2,3,1.675,0,0.0,0.0567,4,0.07,5.7891
347363,1560691619176,1,2.09,2.49,3.05,1.91,5.05,1.11,0.39,0.86,-15,1,-17,1.18,7524,27,87,34,47,1063,412.0,542,458,60,119.0,162,1,370,223,62,0,0,408,13040,-19126,381,,,,,,,,,,,,
347383,1560691619196,-0,2.1,2.48,3.04,1.9,5.08,1.15,0.47,0.92,-15,1,-20,1.24,7628,27,87,34,47,1065,411.0,541,456,60,118.0,162,1,370,223,62,0,0,410,-4059,-3866,379,,,,,,,,,,,,
347403,1560691619216,1,2.09,2.49,3.06,1.9,5.06,1.12,0.54,0.87,-16,1,-21,1.25,7684,27,87,34,46,1070,411.0,550,457,60,119.0,162,1,362,221,62,0,0,406,-4059,19125,380,,,,,,,,,,,,
347423,1560691619236,-0,2.1,2.48,3.05,1.9,5.05,1.09,0.59,0.82,-17,0,-20,1.24,7744,27,87,34,46,1076,410.0,550,457,60,119.0,162,1,362,221,62,0,0,408,9517,-6656,381,,,,,,,,,,,,
347443,1560691619256,1,2.1,2.5,3.01,1.92,5.05,0.98,0.65,0.8,-17,-0,-21,1.18,7665,27,87,34,46,1084,411.0,542,460,60,119.0,167,1,362,221,64,0,0,412,-4059,-32702,383,45.700916,4.909737,38.02,196.3,3,1.675,0,0.0,0.0583,4,0.07,5.7907
347463,1560691619276,0,2.11,2.5,3.0,1.9,5.06,0.99,0.61,0.77,-17,-2,-23,1.17,7575,27,87,34,46,1092,409.0,542,457,60,119.0,167,1,362,221,64,0,0,412,11560,1504,386,,,,,,,,,,,,
347483,1560691619296,3,2.11,2.5,3.0,1.92,5.04,0.96,0.57,0.59,-17,-2,-22,1.12,7482,27,87,34,46,1099,412.0,533,459,60,118.0,167,1,362,221,64,0,0,409,-9166,1504,385,,,,,,,,,,,,
347503,1560691619316,2,2.14,2.49,3.02,1.92,5.08,0.9,0.62,0.51,-17,-1,-22,1.09,7464,27,87,34,47,1104,410.0,534,457,60,118.0,167,1,370,223,64,0,0,411,-9166,6384,387,,,,,,,,,,,,
347523,1560691619336,1,2.15,2.47,3.04,1.95,5.05,0.86,0.71,0.45,-17,-1,-22,1.11,7431,27,87,34,47,1104,412.0,528,460,60,118.0,167,1,370,223,64,0,0,412,13040,-32702,387,,,,,,,,,,,,
347543,1560691619356,2,2.17,2.44,3.08,1.94,5.03,0.9,0.73,0.4,-17,-2,-22,1.16,7476,27,87,34,47,1101,411.0,534,460,60,119.0,162,1,370,223,63,0,0,412,-4059,-1562,388,45.700924,4.909743,37.91,196.3,3,1.675,0,0.0,0.06,4,0.07,5.7924
347563,1560691619376,2,2.19,2.42,3.12,1.94,5.08,0.91,0.74,0.32,-17,-2,-21,1.17,7506,27,87,34,47,1096,410.0,538,459,60,118.0,162,1,370,223,63,0,0,411,9517,-1818,390,,,,,,,,,,,,
347583,1560691619396,2,2.21,2.4,3.11,1.94,5.07,0.91,0.73,0.28,-16,-3,-20,1.17,7572,28,87,34,47,1090,409.0,545,461,60,118.0,162,1,370,223,63,0,0,408,11560,-6656,392,,,,,,,,,,,,
347603,1560691619416,3,2.22,2.39,3.11,1.94,5.05,0.88,0.72,0.26,-16,-4,-19,1.14,7548,28,87,34,47,1084,409.0,537,457,60,118.0,162,1,370,223,63,0,0,410,10392,6384,394,,,,,,,,,,,,
347623,1560691619436,3,2.24,2.36,3.12,1.96,5.03,0.86,0.68,0.25,-14,-4,-18,1.1,7566,28,87,34,47,1079,409.0,543,459,60,118.0,162,1,370,223,63,0,0,411,-26615,28696,395,,,,,,,,,,,,
347643,1560691619456,4,2.27,2.34,3.13,1.98,5.07,0.87,0.63,0.24,-13,-4,-16,1.07,7566,28,87,34,47,1074,406.0,536,460,60,118.0,164,1,370,223,65,0,0,406,2524,6512,398,45.700932,4.909749,38.97,196.3,3,1.675,0,0.0,0.0617,4,0.07,5.7941
347663,1560691619476,3,2.28,2.33,3.15,2.03,5.08,0.84,0.54,0.26,-12,-4,-15,1.0,7628,28,87,34,47,1070,405.0,539,460,60,118.0,164,1,370,223,65,0,0,406,-9211,28696,401,,,,,,,,,,,,
347683,1560691619496,3,2.29,2.32,3.18,2.05,5.07,0.8,0.44,0.35,-11,-3,-15,0.91,7625,28,87,34,47,1071,405.0,532,454,60,118.0,164,1,370,223,65,0,0,405,-9211,11560,401,,,,,,,,,,,,
347703,1560691619516,5,2.29,2.32,3.2,2.07,5.05,0.73,0.35,0.37,-9,-3,-15,0.81,7609,28,87,34,47,1073,405.0,535,458,60,118.0,164,1,370,223,65,0,0,405,-9211,-4059,403,,,,,,,,,,,,
347723,1560691619536,1,2.3,2.32,3.19,2.09,5.07,0.7,0.23,0.44,-8,-2,-12,0.74,7653,28,87,34,47,1078,406.0,542,460,60,118.0,164,1,370,223,65,0,0,406,-9211,-26615,406,,,,,,,,,,,,
347743,1560691619556,-1,2.33,2.31,3.2,2.1,5.06,0.69,0.23,0.5,-6,-1,-9,0.72,7631,28,87,34,47,1083,405.0,543,460,60,119.0,157,1,370,223,64,0,0,407,1504,18584,405,45.700943,4.909753,39.25,196.3,3,1.675,0,0.0,0.0633,4,0.07,5.7957
347763,1560691619576,-1,2.34,2.31,3.22,2.13,5.04,0.68,0.22,0.61,-5,-0,-9,0.72,7665,28,87,34,47,1087,407.0,543,458,60,119.0,157,1,370,223,64,0,0,405,1504,13040,407,,,,,,,,,,,,
347783,1560691619595,-1,2.35,2.29,3.26,2.15,5.04,0.72,0.17,0.65,-4,-0,-8,0.74,7637,28,87,34,47,1090,410.0,540,458,60,119.0,157,1,370,223,64,0,0,406,1504,-9166,408,,,,,,,,,,,,
347803,1560691619615,1,2.37,2.27,3.27,2.15,5.05,0.78,0.14,0.63,-3,-2,-6,0.8,7687,28,87,34,46,1088,411.0,541,456,60,119.0,157,1,362,223,64,0,0,411,1504,2524,412,,,,,,,,,,,,
347823,1560691619635,3,2.38,2.26,3.29,2.18,5.06,0.83,0.12,0.58,-2,-2,-4,0.84,7659,28,87,34,47,1087,414.0,541,461,60,118.0,157,1,370,223,64,0,0,411,1504,13040,414,,,,,,,,,,,,
347843,1560691619655,3,2.4,2.25,3.32,2.2,5.05,0.86,0.07,0.6,-1,-4,-3,0.86,7697,28,87,34,47,1081,415.0,542,460,60,118.0,157,1,370,223,65,0,0,405,-8151,18584,415,45.700951,4.909758,39.3,196.3,3,1.675,0,0.0,0.065,4,0.08,5.7974
347863,1560691619675,2,2.43,2.23,3.32,2.22,5.06,0.81,-0.06,0.6,1,-4,-2,0.81,7716,28,87,34,47,1076,417.0,544,460,60,117.0,157,1,370,223,65,0,0,409,10541,7154,417,,,,,,,,,,,,
347883,1560691619695,2,2.43,2.22,3.33,2.25,5.04,0.74,-0.1,0.59,2,-4,-0,0.75,7731,28,87,34,47,1074,419.0,558,463,60,117.0,157,1,370,223,65,0,0,410,11545,-21792,419,,,,,,,,,,,,
347903,1560691619715,-1,2.46,2.19,3.37,2.26,5.06,0.75,-0.18,0.66,3,-3,2,0.77,7780,28,87,34,47,1071,421.0,544,459,60,117.0,157,1,370,223,65,0,0,409,28696,7154,420,,,,,,,,,,,,
347923,1560691619735,2,2.45,2.18,3.42,2.29,5.05,0.82,-0.29,0.67,4,-1,4,0.87,7789,28,87,34,46,1074,423.0,553,457,60,119.0,157,1,362,221,65,0,0,415,11545,-3414,423,,,,,,,,,,,,
347943,1560691619755,3,2.49,2.18,3.42,2.32,5.05,0.86,-0.31,0.64,5,-3,6,0.91,7841,28,87,34,47,1076,423.0,548,462,60,118.0,153,1,370,221,65,0,0,414,6384,-3856,423,45.700962,4.909763,39.8,196.3,3,1.675,0,0.0,0.0667,4,0.08,5.799
347963,1560691619775,5,2.49,2.17,3.42,2.32,5.04,0.8,-0.38,0.63,7,-3,8,0.89,7822,28,87,34,46,1077,424.0,541,457,60,118.0,153,1,362,221,65,0,0,414,11545,13552,424,,,,,,,,,,,,
347983,1560691619795,0,2.5,2.16,3.45,2.31,5.05,0.71,-0.45,0.63,9,-1,9,0.84,7825,28,87,34,46,1079,427.0,554,458,60,118.0,153,1,362,221,65,0,0,414,6512,3826,427,,,,,,,,,,,,
348003,1560691619815,0,2.52,2.15,3.47,2.34,5.08,0.75,-0.57,0.7,10,-3,11,0.94,7878,28,87,34,46,1077,429.0,542,458,60,119.0,153,1,362,223,65,0,0,420,6512,3635,429,,,,,,,,,,,,
348023,1560691619835,2,2.53,2.15,3.47,2.36,5.04,0.85,-0.61,0.69,11,-4,13,1.05,7881,28,87,34,46,1074,431.0,540,456,60,118.0,153,1,362,221,65,0,0,413,-3968,31796,431,,,,,,,,,,,,
348043,1560691619855,5,2.55,2.14,3.49,2.36,5.06,0.83,-0.66,0.67,13,-4,14,1.06,7921,28,87,34,46,1071,430.0,553,457,60,119.0,153,1,362,221,66,0,0,414,6384,-3314,431,45.70097,4.909769,39.81,196.3,3,1.675,0,0.0,0.0683,4,0.08,5.8007
348063,1560691619875,-2,2.56,2.12,3.52,2.37,5.05,0.79,-0.71,0.64,15,-5,16,1.06,7904,29,87,34,46,1067,433.0,550,457,60,118.0,153,1,362,221,66,0,0,417,28696,3635,433,,,,,,,,,,,,
348083,1560691619895,1,2.56,2.1,3.56,2.37,5.05,0.87,-0.78,0.65,16,-5,19,1.17,7884,29,87,34,46,1064,433.0,552,458,60,119.0,153,1,362,221,66,0,0,425,28696,1779,433,,,,,,,,,,,,
348103,1560691619915,4,2.55,2.1,3.56,2.39,5.05,0.92,-0.86,0.61,17,-4,22,1.26,7948,29,87,34,46,1062,434.0,559,458,60,118.0,153,1,362,221,66,0,0,425,6384,-3322,435,,,,,,,,,,,,
348123,1560691619935,0,2.56,2.1,3.55,2.38,5.04,0.9,-0.9,0.68,18,-5,23,1.27,8019,29,87,34,46,1060,435.0,556,461,60,118.0,153,1,362,221,66,0,0,412,-3968,5600,435,,,,,,,,,,,,
348143,1560691619955,1,2.57,2.1,3.57,2.38,5.08,0.88,-0.93,0.7,19,-5,24,1.28,8023,29,87,34,46,1059,435.0,571,466,60,118.0,154,1,362,221,67,0,0,413,-3968,1779,435,45.700981,4.909775,39.68,196.3,3,1.675,0,0.0,0.07,4,0.08,5.8024
348163,1560691619975,4,2.55,2.1,3.57,2.38,5.04,0.92,-0.97,0.67,20,-5,26,1.34,8047,30,87,34,46,1059,435.0,566,461,60,118.0,154,1,362,221,67,0,0,423,-3968,-7939,437,,,,,,,,,,,,
348183,1560691619991,0,2.55,2.09,3.59,2.39,5.04,0.9,-1.0,0.74,22,-6,25,1.34,8064,30,87,34,46,1060,438.0,562,462,60,117.0,154,1,362,221,67,0,0,432,-32702,-7939,438,,,,,,,,,,,,
348203,1560691620011,3,2.56,2.08,3.58,2.4,5.04,0.85,-0.93,0.73,23,-6,26,1.26,8047,31,87,34,46,1061,439.0,566,458,60,119.0,154,1,362,221,67,0,0,440,-32702,21580,438,,,,,,,,,,,,
348223,1560691620031,-1,2.56,2.07,3.57,2.38,5.07,0.83,-0.92,0.67,24,-6,28,1.24,8130,32,87,34,47,1062,439.0,562,459,60,118.0,154,1,370,222,67,0,0,424,6384,5600,439,,,,,,,,,,,,
348243,1560691620051,2,2.55,2.06,3.57,2.4,5.07,0.8,-0.98,0.7,25,-6,28,1.27,8159,32,87,34,47,1063,439.0,560,458,60,119.0,154,1,370,224,68,0,0,423,6384,-28332,439,45.700989,4.909782,39.77,196.2,3,1.675,0,0.0,0.0717,4,0.08,5.804
348263,1560691620071,3,2.56,2.09,3.55,2.44,5.05,0.77,-0.98,0.58,25,-5,29,1.25,8141,33,87,34,47,1063,439.0,558,455,60,118.0,154,1,370,222,68,0,0,429,6512,26704,440,,,,,,,,,,,,
348283,1560691620097,2,2.55,2.12,3.56,2.44,5.04,0.72,-1.01,0.58,25,-4,30,1.24,8134,35,87,34,48,1061,439.0,564,459,60,118.0,154,1,372,230,68,0,0,448,6384,20625,439,,,,,,,,,,,,
348303,1560691620117,2,2.54,2.09,3.56,2.43,5.06,0.71,-0.98,0.59,26,-4,31,1.21,8187,37,87,34,49,1056,438.0,565,456,60,119.0,154,1,375,237,68,0,0,434,11545,5600,439,,,,,,,,,,,,
348323,1560691620137,0,2.53,2.06,3.57,2.43,5.08,0.75,-0.97,0.67,26,-3,31,1.23,8191,39,87,34,50,1051,442.0,566,459,60,117.0,154,1,378,244,68,0,0,431,11545,-28332,442,,,,,,,,,,,,
348343,1560691620157,3,2.51,2.06,3.56,2.43,5.04,0.67,-0.95,0.61,26,-4,31,1.16,8191,40,87,34,51,1046,441.0,575,459,60,118.0,170,1,381,250,75,0,0,448,-8151,19477,441,45.700996,4.90979,40.08,196.3,3,1.675,0,0.0,0.0733,4,0.08,5.8057
348363,1560691620177,1,2.48,2.08,3.54,2.41,5.07,0.75,-1.0,0.6,26,-5,32,1.25,8256,43,87,34,53,1045,442.0,571,456,60,118.0,170,1,387,266,75,0,0,442,10541,-28332,442,,,,,,,,,,,,
348383,1560691620197,3,2.46,2.1,3.49,2.42,5.06,0.71,-0.98,0.58,25,-3,33,1.21,8296,45,87,34,54,1046,441.0,569,455,60,118.0,170,1,390,273,75,0,0,425,1504,26704,441,,,,,,,,,,,,
348403,1560691620217,1,2.43,2.12,3.51,2.41,5.04,0.78,-0.97,0.63,25,-4,33,1.25,8289,47,87,34,57,1049,439.0,567,458,60,118.0,170,1,414,293,75,0,0,439,10392,20625,439,,,,,,,,,,,,
348423,1560691620237,2,2.4,2.17,3.5,2.4,5.04,0.71,-0.89,0.55,24,-3,34,1.14,8238,49,87,34,58,1055,440.0,571,463,60,119.0,170,1,423,299,75,0,0,468,-4059,-18341,440,,,,,,,,,,,,
348443,1560691620257,0,2.39,2.19,3.43,2.39,5.04,0.71,-0.81,0.6,23,-3,33,1.08,8289,51,87,34,60,1068,442.0,574,458,60,118.0,218,1,439,316,96,0,0,430,-26615,-18341,442,45.701004,4.9098,40.24,196.2,3,1.675,0,0.0,0.075,4,0.08,5.8074
348463,1560691620277,4,2.37,2.21,3.42,2.37,5.03,0.68,-0.74,0.56,22,-5,31,1.0,8322,52,87,34,61,1090,442.0,568,459,60,119.0,218,1,448,333,96,0,0,433,-3414,2131,441,,,,,,,,,,,,
348483,1560691620297,1,2.35,2.25,3.37,2.35,5.04,0.68,-0.67,0.58,20,-3,29,0.95,8270,52,87,34,63,1110,438.0,561,463,60,118.0,218,1,446,336,96,0,0,437,3826,23400,438,,,,,,,,,,,,
348503,1560691620317,4,2.34,2.26,3.34,2.33,5.04,0.64,-0.64,0.56,19,-2,28,0.91,8241,53,87,34,63,1125,439.0,559,456,60,118.0,218,1,447,335,96,0,0,445,31796,26704,439,,,,,,,,,,,,
348523,1560691620337,1,2.34,2.28,3.32,2.31,5.05,0.72,-0.59,0.67,18,-3,26,0.94,8281,53,87,34,64,1146,438.0,560,460,60,118.0,218,1,445,344,96,0,0,445,1779,21432,438,,,,,,,,,,,,
348543,1560691620357,-0,2.34,2.3,3.31,2.3,5.05,0.73,-0.61,0.69,16,-3,25,0.95,8344,53,87,34,63,1181,442.0,556,453,60,118.0,248,1,446,347,109,0,0,443,-3322,-3267,442,45.701012,4.90981,40.78,196.2,3,1.675,0,0.0,0.0767,4,0.08,5.8091
348563,1560691620377,2,2.34,2.32,3.29,2.28,5.08,0.67,-0.56,0.67,15,-2,23,0.87,8393,53,87,34,64,1214,442.0,557,457,60,118.0,248,1,443,350,109,0,0,446,-768,16648,442,,,,,,,,,,,,
348583,1560691620397,-1,2.33,2.34,3.27,2.28,5.05,0.69,-0.49,0.69,14,-1,20,0.84,8419,54,87,34,64,1233,445.0,556,455,60,118.0,248,1,442,344,109,0,0,452,21580,8488,445,,,,,,,,,,,,
348603,1560691620417,4,2.33,2.34,3.27,2.28,5.08,0.6,-0.43,0.7,13,-2,19,0.74,8393,54,87,34,64,1255,444.0,574,468,60,119.0,248,1,443,350,109,0,0,447,20625,-6387,444,,,,,,,,,,,,
348623,1560691620437,3,2.33,2.32,3.27,2.28,5.08,0.65,-0.4,0.77,13,-1,19,0.76,8442,54,87,34,63,1287,449.0,571,455,60,118.0,248,1,444,345,109,0,0,461,23400,-3267,449,,,,,,,,,,,,
348643,1560691620457,-1,2.34,2.33,3.25,2.28,5.04,0.68,-0.43,0.79,12,-0,17,0.81,8465,54,87,34,64,1319,449.0,573,446,60,118.0,247,1,442,346,111,0,0,455,21432,15649,449,45.701019,4.909821,41.14,196.2,3,1.675,0,0.0,0.0783,4,0.08,5.8107
348663,1560691620477,2,2.34,2.32,3.25,2.29,5.06,0.56,-0.29,0.74,11,-0,16,0.63,8499,54,87,34,63,1331,451.0,582,455,60,119.0,247,1,443,354,111,0,0,456,2131,2211,451,,,,,,,,,,,,
348683,1560691620497,3,2.34,2.32,3.26,2.27,5.08,0.57,-0.3,0.75,11,1,15,0.64,8546,54,87,34,64,1343,453.0,572,451,60,118.0,247,1,438,348,111,0,0,459,2131,2211,453,,,,,,,,,,,,
348703,1560691620517,1,2.34,2.32,3.26,2.27,5.05,0.58,-0.27,0.74,10,0,13,0.64,8565,55,87,34,62,1356,455.0,571,456,60,118.0,247,1,435,344,111,0,0,459,8488,17628,455,,,,,,,,,,,,
348723,1560691620537,0,2.35,2.31,3.27,2.28,5.04,0.48,-0.25,0.65,11,1,12,0.54,8640,55,87,34,63,1369,456.0,581,465,60,119.0,247,1,431,357,111,0,0,462,3571,16408,456,,,,,,,,,,,,
348743,1560691620557,5,2.36,2.3,3.28,2.3,5.04,0.48,-0.17,0.67,10,0,12,0.51,8716,55,87,34,63,1371,460.0,581,465,60,118.0,250,1,425,352,115,0,0,463,3571,-18108,460,45.701027,4.909832,42.12,196.2,3,1.675,0,0.0,0.08,4,0.09,5.8124
348763,1560691620577,4,2.37,2.31,3.27,2.3,5.08,0.51,-0.2,0.8,10,1,12,0.55,8741,56,87,34,63,1372,461.0,584,457,60,118.0,250,1,422,352,115,0,0,470,-3267,6193,461,,,,,,,,,,,,
348783,1560691620596,3,2.38,2.3,3.28,2.3,5.08,0.55,-0.29,0.84,10,-0,12,0.62,8794,56,87,34,64,1378,463.0,588,448,60,118.0,250,1,418,353,115,0,0,469,2524,243,463,,,,,,,,,,,,
348803,1560691620616,3,2.38,2.3,3.3,2.3,5.06,0.69,-0.43,0.89,9,-2,12,0.82,8798,56,87,34,63,1384,465.0,590,458,60,118.0,250,1,418,353,115,0,0,472,-26615,32033,467,,,,,,,,,,,,
348823,1560691620636,4,2.38,2.29,3.29,2.31,5.05,0.71,-0.48,0.88,10,-2,11,0.86,8882,57,87,34,63,1389,469.0,593,455,60,118.0,250,1,412,355,115,0,0,473,-9160,-9203,469,,,,,,,,,,,,
348843,1560691620656,1,2.4,2.27,3.31,2.3,5.05,0.74,-0.49,0.78,10,-3,12,0.89,8932,57,87,34,63,1395,472.0,606,462,60,118.0,256,1,406,360,121,0,0,479,-23623,-23367,472,45.701035,4.909844,42.97,196.1,3,1.675,0,0.0,0.0817,4,0.09,5.8141
348863,1560691620676,2,2.39,2.27,3.34,2.35,5.03,0.71,-0.47,0.76,10,-3,13,0.85,8979,57,87,34,63,1395,473.0,610,456,60,118.0,256,1,403,356,121,0,0,484,17628,10305,477,,,,,,,,,,,,
348883,1560691620696,1,2.41,2.27,3.35,2.34,5.05,0.73,-0.48,0.71,9,-4,14,0.88,9097,57,87,34,63,1395,478.0,612,460,60,118.0,256,1,403,357,121,0,0,487,2211,32033,478,,,,,,,,,,,,
348903,1560691620716,4,2.41,2.27,3.35,2.35,5.06,0.75,-0.5,0.73,10,-4,13,0.91,9195,57,87,34,63,1391,482.0,602,457,60,117.0,256,1,405,357,121,0,0,485,16408,1,482,,,,,,,,,,,,
348923,1560691620736,2,2.42,2.27,3.35,2.37,5.06,0.88,-0.65,0.8,10,-3,13,1.09,9241,57,87,34,63,1386,484.0,610,453,60,117.0,256,1,406,357,121,0,0,489,30272,248,483,,,,,,,,,,,,
348943,1560691620756,1,2.42,2.28,3.34,2.4,5.04,0.92,-0.78,0.91,11,-4,14,1.21,9323,57,87,34,63,1371,487.0,610,457,60,118.0,258,1,409,357,125,0,0,497,243,-6528,487,45.701042,4.909856,44.0,196.1,3,1.675,0,0.0,0.0833,4,0.09,5.8157
348963,1560691620776,3,2.42,2.29,3.31,2.41,5.04,0.68,-0.7,0.93,12,-2,14,0.98,9407,57,87,34,63,1353,490.0,611,458,60,118.0,258,1,411,357,125,0,0,497,8488,2524,490,,,,,,,,,,,,
348983,1560691620796,3,2.42,2.27,3.35,2.41,5.03,0.64,-0.61,0.86,12,-4,14,0.89,9450,57,87,34,63,1338,491.0,616,454,60,118.0,258,1,412,357,125,0,0,513,3576,-32248,491,,,,,,,,,,,,
349003,1560691620816,-1,2.43,2.27,3.35,2.41,5.06,0.78,-0.71,0.9,12,-3,15,1.06,9503,57,87,34,63,1325,496.0,611,461,60,117.0,258,1,414,357,125,0,0,530,-17956,-14,497,,,,,,,,,,,,
349023,1560691620836,3,2.41,2.27,3.32,2.41,5.07,0.7,-0.66,0.93,13,-2,16,0.96,9595,58,87,34,62,1298,500.0,615,457,60,118.0,258,1,414,358,125,0,0,503,-23367,16383,501,,,,,,,,,,,,
349043,1560691620856,1,2.42,2.32,3.32,2.42,5.06,0.81,-0.79,0.99,13,-5,16,1.13,9610,58,87,34,62,1267,504.0,616,461,60,117.0,261,1,413,361,131,0,0,512,-899,-14,504,45.70105,4.90987,45.2,196.1,3,1.675,0,0.0,0.085,4,0.09,5.8174
349063,1560691620876,3,2.41,2.33,3.33,2.43,5.04,0.9,-0.9,0.95,13,-3,16,1.28,9664,58,87,34,62,1242,506.0,617,458,60,118.0,261,1,413,357,131,0,0,516,3580,17136,506,,,,,,,,,,,,
349083,1560691620896,5,2.41,2.32,3.33,2.44,5.04,0.82,-0.94,0.94,14,-5,18,1.24,9715,58,87,34,61,1224,513.0,615,461,60,118.0,261,1,412,360,131,0,0,533,-1562,10408,513,,,,,,,,,,,,
349103,1560691620916,2,2.41,2.31,3.34,2.44,5.04,0.77,-0.87,0.93,14,-2,17,1.16,9801,58,87,34,61,1200,513.0,618,458,60,118.0,261,1,411,365,131,0,0,534,-6528,2524,513,,,,,,,,,,,,
349123,1560691620936,5,2.4,2.31,3.35,2.44,5.05,0.81,-0.89,0.94,14,-3,18,1.2,9884,58,87,34,60,1171,520.0,613,460,60,118.0,261,1,409,370,131,0,0,523,-6528,-32248,520,,,,,,,,,,,,
349143,1560691620956,2,2.41,2.32,3.33,2.43,5.06,0.64,-0.91,0.98,14,-5,18,1.11,9936,58,87,34,61,1151,522.0,622,457,60,118.0,262,1,410,373,136,0,0,525,-9216,-28648,522,45.701057,4.909883,46.47,196.1,3,1.675,0,0.0,0.0867,4,0.09,5.819
349163,1560691620976,2,2.41,2.32,3.34,2.45,5.05,0.68,-0.85,1.0,14,-4,16,1.09,10016,58,87,34,60,1141,523.0,634,460,60,118.0,262,1,408,368,136,0,0,532,11560,-506,523,,,,,,,,,,,,
349183,1560691620996,19,2.4,2.32,3.34,2.45,5.06,0.66,-0.92,0.92,15,-5,18,1.13,10080,58,87,34,61,1126,528.0,625,456,60,117.0,262,1,415,377,136,0,0,544,-32248,-30064,528,,,,,,,,,,,,
349203,1560691621010,4,2.39,2.31,3.34,2.45,5.04,0.5,-0.97,0.92,15,-6,19,1.09,10107,58,87,34,60,1106,531.0,621,460,60,118.0,262,1,414,370,136,0,0,542,-4054,-2336,531,,,,,,,,,,,,
349223,1560691621030,4,2.38,2.31,3.33,2.46,5.07,0.51,-0.87,0.97,14,-3,19,1.01,10206,58,87,33,61,1090,534.0,622,461,60,117.0,262,1,425,380,136,0,0,542,17136,14504,533,,,,,,,,,,,,
349243,1560691621050,5,2.38,2.32,3.3,2.46,5.05,0.61,-0.81,0.94,15,-5,19,1.01,10184,58,87,33,60,1081,536.0,637,453,60,118.0,275,1,420,371,147,0,0,541,-3482,-8186,538,45.701061,4.909898,48.23,196.1,3,1.675,0,0.0,0.0883,4,0.09,5.8207
349263,1560691621070,0,2.39,2.31,3.32,2.45,5.06,0.51,-0.75,0.84,15,-5,19,0.91,10206,58,87,33,60,1068,539.0,638,458,60,117.0,275,1,424,380,147,0,0,550,1341,14504,538,,,,,,,,,,,,
349283,1560691621096,0,2.38,2.31,3.33,2.44,5.08,0.47,-0.75,0.83,15,-3,18,0.89,10302,58,87,33,61,1051,543.0,632,456,60,118.0,275,1,433,382,147,0,0,559,-22519,-9072,543,,,,,,,,,,,,
349303,1560691621116,1,2.37,2.31,3.31,2.45,5.07,0.44,-0.77,0.84,15,-1,17,0.89,10336,58,87,33,61,1035,545.0,627,459,60,118.0,275,1,441,382,147,0,0,553,-32248,2524,545,,,,,,,,,,,,
349323,1560691621136,4,2.37,2.31,3.32,2.44,5.06,0.49,-0.74,0.92,14,-4,17,0.89,10451,58,87,33,61,1027,550.0,636,457,60,118.0,275,1,445,385,147,0,0,557,-22519,-22359,547,,,,,,,,,,,,
349343,1560691621156,2,2.37,2.31,3.34,2.46,5.05,0.38,-0.75,1.02,14,-3,17,0.84,10463,58,87,33,61,1019,550.0,638,460,60,118.0,279,1,446,385,153,0,0,566,14504,-30159,553,45.701069,4.909913,49.66,196.1,3,1.675,0,0.0,0.09,4,0.09,5.8224
349363,1560691621176,2,2.38,2.32,3.32,2.45,5.08,0.41,-0.74,1.03,13,-3,15,0.84,10575,58,87,33,61,1012,555.0,636,458,60,118.0,279,1,450,387,153,0,0,560,-28648,-2934,555,,,,,,,,,,,,
349383,1560691621194,2,2.37,2.32,3.31,2.44,5.07,0.38,-0.69,1.11,13,-3,15,0.79,10587,58,87,33,62,1006,555.0,626,460,60,118.0,279,1,450,396,153,0,0,569,-8186,774,555,,,,,,,,,,,,
349403,1560691621214,1,2.37,2.33,3.29,2.46,5.05,0.33,-0.7,1.14,13,-4,15,0.78,10683,58,87,33,62,1008,560.0,630,455,60,117.0,279,1,450,397,153,0,0,573,-2336,-2934,559,,,,,,,,,,,,
349423,1560691621234,4,2.36,2.32,3.29,2.45,5.05,0.27,-0.63,1.04,12,-2,16,0.68,10702,58,87,33,62,1008,562.0,630,458,60,117.0,279,1,450,397,153,0,0,572,-22519,-3190,562,,,,,,,,,,,,
349443,1560691621254,3,2.36,2.31,3.31,2.43,5.07,0.34,-0.58,1.04,12,-3,17,0.67,10708,58,87,33,62,1003,565.0,635,456,60,118.0,283,1,450,398,160,0,0,575,6274,10432,565,45.701076,4.909929,51.38,196.2,3,1.675,0,0.0,0.0917,4,0.09,5.824
349463,1560691621274,3,2.36,2.31,3.3,2.43,5.04,0.43,-0.63,0.98,11,-1,17,0.76,10806,58,87,33,62,999,568.0,637,461,60,118.0,283,1,450,400,160,0,0,579,2524,243,570,,,,,,,,,,,,
349483,1560691621296,0,2.36,2.31,3.31,2.41,5.06,0.44,-0.56,0.96,12,-1,16,0.71,10831,58,87,33,62,993,570.0,639,456,60,118.0,283,1,450,400,160,0,0,585,-22263,243,570,,,,,,,,,,,,
349503,1560691621316,3,2.36,2.31,3.3,2.42,5.07,0.41,-0.52,0.96,12,-4,15,0.66,10952,58,87,33,61,986,573.0,637,456,60,117.0,283,1,450,403,160,0,0,577,6273,-1894,573,,,,,,,,,,,,
349523,1560691621336,4,2.35,2.32,3.3,2.42,5.05,0.4,-0.47,0.84,11,-1,16,0.62,10958,58,87,33,61,974,577.0,637,461,60,118.0,283,1,450,395,160,0,0,581,-18032,-32504,579,,,,,,,,,,,,
349543,1560691621356,2,2.36,2.31,3.29,2.42,5.04,0.45,-0.57,0.95,11,-2,16,0.73,11009,59,87,33,61,962,581.0,642,457,60,118.0,284,1,450,396,164,0,0,599,1780,3472,581,45.70108,4.909946,52.8,196.2,3,1.675,0,0.0,0.0933,4,0.1,5.8257
349563,1560691621376,-2,2.35,2.31,3.28,2.41,5.07,0.45,-0.47,0.95,11,-2,15,0.65,11088,59,87,33,61,957,582.0,637,453,60,118.0,284,1,449,397,164,0,0,595,1780,30227,584,,,,,,,,,,,,
349583,1560691621396,1,2.35,2.31,3.29,2.42,5.04,0.46,-0.42,0.78,10,-1,15,0.62,10794,59,87,33,61,953,583.0,646,461,60,120.0,284,1,450,391,164,0,0,597,-29984,-16179,583,,,,,,,,,,,,
349603,1560691621416,0,2.35,2.31,3.29,2.41,5.06,0.47,-0.38,0.61,10,-2,16,0.6,10353,59,87,33,64,947,587.0,641,455,60,119.0,284,1,434,402,164,0,0,584,1760,-1894,588,,,,,,,,,,,,
349623,1560691621436,-2,2.37,2.28,3.33,2.38,5.06,0.46,-0.41,0.57,11,-1,16,0.61,10140,59,87,33,66,942,588.0,641,457,60,119.0,284,1,414,422,164,0,0,568,774,-28648,588,,,,,,,,,,,,
349643,1560691621456,-0,2.36,2.22,3.37,2.34,5.06,0.45,-0.41,0.56,11,1,17,0.61,9978,61,87,33,67,941,589.0,632,461,60,119.0,272,1,398,423,160,0,0,575,774,15649,589,45.701088,4.909964,54.5,196.2,3,1.675,0,0.0,0.095,4,0.1,5.8274
349663,1560691621476,-1,2.36,2.19,3.41,2.33,5.06,0.58,-0.41,0.6,10,-1,15,0.71,9720,63,87,33,69,941,591.0,642,457,60,119.0,272,1,407,411,160,0,0,575,1267,10432,589,,,,,,,,,,,,
349683,1560691621496,0,2.37,2.2,3.44,2.34,5.07,0.45,-0.28,0.55,12,1,19,0.53,9455,65,87,33,70,984,589.0,641,456,60,118.0,272,1,415,684,160,0,0,588,-3190,19621,589,,,,,,,,,,,,
349703,1560691621516,5,2.37,2.23,3.39,2.4,5.04,0.3,-0.2,0.6,13,4,18,0.36,8712,66,87,33,72,1025,593.0,611,460,60,118.0,272,1,423,649,160,0,0,679,1760,506,595,,,,,,,,,,,,
349723,1560691621536,2,2.37,2.29,3.32,2.44,5.05,0.36,-0.32,0.67,13,2,17,0.48,8333,66,87,33,74,1068,600.0,573,446,60,117.0,272,1,433,594,160,0,0,662,30208,3395,600,,,,,,,,,,,,
349743,1560691621556,0,2.38,2.29,3.28,2.46,5.07,0.46,-0.35,0.66,13,1,17,0.58,8476,67,87,33,74,1111,601.0,566,452,60,117.0,308,1,429,541,186,0,0,600,8488,16529,603,45.701096,4.909983,55.89,196.2,3,1.675,0,0.0,0.0967,4,0.1,5.8291
349763,1560691621576,5,2.37,2.29,3.27,2.47,5.04,0.42,-0.36,0.7,13,3,18,0.55,8468,67,87,33,74,1192,606.0,572,456,60,117.0,308,1,429,466,186,0,0,610,-1894,17336,605,,,,,,,,,,,,
349783,1560691621595,1,2.38,2.28,3.29,2.47,5.04,0.47,-0.48,0.78,13,1,18,0.67,8400,67,87,33,75,1281,603.0,557,453,60,117.0,308,1,430,433,186,0,0,623,208,-2836,603,,,,,,,,,,,,
349803,1560691621615,5,2.38,2.28,3.32,2.46,5.05,0.45,-0.48,0.74,13,2,19,0.66,8363,67,87,33,75,1338,613.0,560,455,60,118.0,308,1,431,443,186,0,0,625,3472,-16883,612,,,,,,,,,,,,
349823,1560691621635,1,2.38,2.29,3.33,2.46,5.07,0.44,-0.54,0.74,13,2,18,0.7,8337,67,87,33,76,1385,616.0,562,449,60,117.0,308,1,430,452,186,0,0,624,3472,20993,615,,,,,,,,,,,,
349843,1560691621655,1,2.38,2.28,3.35,2.46,5.08,0.5,-0.56,0.78,12,-1,17,0.75,8507,67,87,33,75,1390,618.0,567,454,60,118.0,226,1,427,446,140,0,0,627,30227,506,618,45.701103,4.910002,56.78,196.2,3,1.675,0,0.0,0.0983,4,0.1,5.8307
349863,1560691621675,3,2.38,2.28,3.37,2.44,5.05,0.43,-0.53,0.75,13,-0,18,0.68,8632,67,87,33,74,1380,621.0,576,465,60,118.0,226,1,424,446,140,0,0,630,243,-5120,621,,,,,,,,,,,,
349883,1560691621695,3,2.38,2.28,3.38,2.44,5.08,0.47,-0.53,0.79,13,0,17,0.7,8600,68,87,33,74,1344,622.0,583,448,60,117.0,226,1,426,436,140,0,0,638,5344,-10251,623,,,,,,,,,,,,
349903,1560691621715,4,2.37,2.28,3.36,2.44,5.04,0.56,-0.54,0.81,13,-0,17,0.78,8676,68,87,33,74,1287,626.0,581,452,60,117.0,226,1,423,427,140,0,0,631,17740,16599,626,,,,,,,,,,,,
349923,1560691621735,2,2.38,2.27,3.38,2.43,5.07,0.58,-0.57,0.82,13,-1,17,0.82,8737,68,87,33,74,1240,627.0,587,452,60,118.0,226,1,420,436,140,0,0,639,-30139,4909,631,,,,,,,,,,,,
349943,1560691621755,-0,2.38,2.26,3.37,2.43,5.05,0.54,-0.55,0.76,13,1,17,0.77,8790,68,87,33,73,1195,632.0,587,471,60,119.0,229,1,420,427,145,0,0,649,-28304,4909,632,45.701103,4.910022,58.63,196.2,3,1.675,0,0.0,0.1,4,0.1,5.8324
349963,1560691621775,2,2.38,2.26,3.35,2.43,5.04,0.46,-0.47,0.67,14,1,18,0.66,8802,68,87,33,73,1179,637.0,596,451,60,118.0,229,1,420,427,145,0,0,644,3403,2024,637,,,,,,,,,,,,
349983,1560691621795,3,2.37,2.27,3.35,2.44,5.04,0.38,-0.44,0.66,14,2,17,0.58,8811,68,86,33,73,1191,637.0,586,465,60,118.0,229,1,420,427,145,0,0,655,30721,-3488,637,,,,,,,,,,,,
350003,1560691621815,6,2.38,2.26,3.36,2.43,5.04,0.34,-0.47,0.7,14,1,17,0.58,8865,68,87,33,73,1205,641.0,588,461,60,118.0,229,1,418,427,145,0,0,655,3395,4909,641,,,,,,,,,,,,
350023,1560691621835,5,2.37,2.27,3.35,2.44,5.04,0.31,-0.45,0.65,14,2,16,0.55,8954,68,87,33,73,1220,648.0,591,455,60,118.0,229,1,415,427,145,0,0,658,3395,-26380,648,,,,,,,,,,,,
350043,1560691621855,5,2.37,2.28,3.34,2.45,5.04,0.28,-0.48,0.67,14,2,17,0.55,8988,68,87,33,73,1229,648.0,593,455,60,117.0,226,1,414,417,145,0,0,661,-16046,-3038,648,45.701111,4.910042,59.86,196.3,3,1.675,0,0.0,0.1017,4,0.1,5.8341
350063,1560691621875,3,2.38,2.27,3.33,2.44,5.05,0.24,-0.44,0.62,14,2,16,0.5,9001,68,87,33,73,1232,650.0,591,461,60,118.0,226,1,413,427,145,0,0,666,771,31988,650,,,,,,,,,,,,
350083,1560691621897,3,2.38,2.27,3.31,2.44,5.07,0.27,-0.45,0.62,14,0,17,0.52,9018,68,86,33,73,1232,654.0,598,451,60,118.0,226,1,413,427,145,0,0,664,3,-10348,654,,,,,,,,,,,,
350103,1560691621917,4,2.37,2.27,3.33,2.45,5.04,0.17,-0.46,0.61,14,1,17,0.49,9031,68,86,33,73,1228,658.0,597,460,60,118.0,226,1,413,417,145,0,0,672,6208,-388,658,,,,,,,,,,,,
350123,1560691621937,1,2.39,2.26,3.35,2.45,5.08,0.19,-0.41,0.58,13,2,19,0.45,9110,68,86,33,73,1223,662.0,615,452,60,118.0,226,1,413,427,145,0,0,675,-10251,-2830,662,,,,,,,,,,,,
350143,1560691621957,-0,2.39,2.25,3.36,2.45,5.05,0.05,-0.32,0.55,14,4,19,0.32,9209,68,86,33,73,1216,664.0,611,452,60,118.0,224,1,414,427,148,0,0,673,11776,-2345,664,45.701115,4.910064,61.81,196.3,3,1.675,0,0.0,0.1033,4,0.11,5.8357
350163,1560691621977,3,2.39,2.26,3.36,2.46,5.04,0.13,-0.28,0.56,14,2,19,0.3,9272,68,86,33,72,1208,667.0,617,455,60,118.0,224,1,414,417,148,0,0,686,11776,-10344,667,,,,,,,,,,,,
350183,1560691621991,2,2.39,2.28,3.35,2.49,5.04,0.21,-0.37,0.67,14,1,19,0.43,9384,68,86,33,72,1198,672.0,615,462,60,117.0,224,1,415,417,148,0,0,679,479,24,672,,,,,,,,,,,,
350203,1560691622011,3,2.39,2.27,3.35,2.51,5.05,0.32,-0.49,0.8,14,-0,18,0.59,9412,68,86,33,72,1190,675.0,622,456,60,118.0,224,1,415,417,148,0,0,696,11566,-10448,675,,,,,,,,,,,,
350223,1560691622031,2,2.38,2.26,3.35,2.5,5.07,0.19,-0.44,0.79,15,1,16,0.48,9407,68,86,33,72,1187,678.0,608,457,60,118.0,224,1,415,407,148,0,0,689,-3488,-3584,678,,,,,,,,,,,,
350243,1560691622051,3,2.39,2.25,3.35,2.5,5.08,0.27,-0.42,0.71,14,-0,18,0.5,9407,68,86,33,71,1181,681.0,606,462,60,118.0,212,1,415,407,144,0,0,701,8958,1780,681,45.701118,4.910087,63.13,196.3,3,1.675,0,0.0,0.105,4,0.11,5.8374
350263,1560691622071,4,2.38,2.25,3.37,2.5,5.07,0.43,-0.58,0.72,14,-1,18,0.72,9460,68,86,33,71,1168,683.0,617,457,60,117.0,212,1,415,407,144,0,0,698,-2345,-12152,685,,,,,,,,,,,,
350283,1560691622097,2,2.38,2.26,3.39,2.51,5.04,0.32,-0.65,0.72,15,-3,17,0.72,9512,68,86,33,70,1154,688.0,618,464,60,117.0,212,1,416,399,144,0,0,703,-2826,-2830,687,,,,,,,,,,,,
350303,1560691622117,4,2.39,2.26,3.37,2.52,5.05,0.16,-0.62,0.73,15,-1,18,0.64,9585,68,86,33,70,1144,690.0,619,460,60,118.0,212,1,413,415,144,0,0,704,3543,-3888,690,,,,,,,,,,,,
350323,1560691622137,0,2.38,2.26,3.38,2.52,5.07,0.35,-0.76,0.82,14,-2,18,0.83,9654,68,86,33,70,1133,692.0,613,456,60,118.0,212,1,410,410,144,0,0,705,1549,-3888,694,,,,,,,,,,,,
350343,1560691622157,3,2.39,2.26,3.36,2.52,5.07,0.28,-0.64,0.85,15,-3,19,0.7,9684,68,86,33,70,1122,693.0,616,455,60,118.0,216,1,409,416,150,0,0,712,-388,-30694,693,45.701122,4.910109,65.0,196.3,3,1.675,0,0.0,0.1067,4,0.11,5.839
350363,1560691622177,5,2.39,2.26,3.39,2.52,5.04,0.44,-0.75,0.86,15,-3,19,0.87,9699,68,86,33,70,1111,697.0,620,455,60,118.0,216,1,409,418,150,0,0,710,-388,11069,697,,,,,,,,,,,,
350383,1560691622197,1,2.38,2.26,3.42,2.52,5.05,0.36,-0.71,0.87,15,-2,20,0.79,9689,68,86,33,69,1111,704.0,631,455,60,117.0,216,1,409,408,150,0,0,726,-26892,-31068,704,,,,,,,,,,,,
350403,1560691622217,4,2.38,2.25,3.43,2.51,5.08,0.35,-0.73,0.93,14,-3,19,0.81,9740,68,86,33,69,1111,704.0,621,466,60,117.0,216,1,405,413,150,0,0,712,-26562,-25858,704,,,,,,,,,,,,
350423,1560691622237,4,2.37,2.26,3.43,2.51,5.08,0.38,-0.66,0.88,14,-2,19,0.76,9837,68,86,33,69,1111,709.0,622,458,60,118.0,216,1,402,423,150,0,0,720,24845,-25858,707,,,,,,,,,,,,
350443,1560691622257,0,2.37,2.26,3.42,2.52,5.05,0.4,-0.75,0.85,15,-1,18,0.85,9863,68,86,33,68,1111,714.0,628,460,60,118.0,222,1,401,430,158,0,0,721,6208,-4091,714,45.701126,4.910133,66.59,196.4,3,1.675,0,0.0,0.1083,4,0.11,5.8407
350463,1560691622277,3,2.35,2.26,3.41,2.51,5.07,0.23,-0.75,0.87,15,-1,20,0.78,9910,68,86,33,68,1111,715.0,625,460,60,118.0,222,1,399,424,158,0,0,735,1780,-3344,712,,,,,,,,,,,,
350483,1560691622297,4,2.34,2.27,3.38,2.52,5.05,0.37,-0.71,0.85,14,1,20,0.8,9968,68,86,33,68,1111,715.0,624,451,60,118.0,222,1,397,431,158,0,0,725,-2830,-2358,715,,,,,,,,,,,,
350503,1560691622317,1,2.33,2.26,3.35,2.5,5.07,0.35,-0.75,0.86,15,-1,20,0.82,9931,68,86,33,68,1112,716.0,621,455,60,117.0,222,1,398,430,158,0,0,733,6208,-31066,716,,,,,,,,,,,,
350523,1560691622337,4,2.32,2.27,3.36,2.48,5.06,0.25,-0.72,0.84,14,0,19,0.76,9936,66,86,33,68,1113,721.0,628,461,60,118.0,222,1,398,427,158,0,0,737,11069,1037,721,,,,,,,,,,,,
350543,1560691622357,2,2.31,2.26,3.36,2.47,5.05,0.36,-0.77,0.83,13,1,18,0.85,10000,63,86,33,66,1114,725.0,625,458,60,118.0,219,1,399,418,158,0,0,739,687,-2314,724,45.701126,4.910157,68.13,196.4,3,1.675,0,0.0,0.11,4,0.11,5.8424
350563,1560691622377,-1,2.29,2.29,3.34,2.46,5.06,0.37,-0.79,0.84,12,-1,17,0.88,10016,60,86,33,64,1115,726.0,626,452,60,118.0,219,1,404,401,158,0,0,738,204,6790,726,,,,,,,,,,,,
350583,1560691622397,4,2.28,2.34,3.29,2.44,5.04,0.27,-0.66,0.76,11,-0,16,0.72,10016,58,86,33,62,1109,726.0,624,460,60,118.0,219,1,408,384,158,0,0,734,-23490,-31066,724,,,,,,,,,,,,
350603,1560691622417,3,2.27,2.36,3.26,2.43,5.07,0.38,-0.65,0.8,10,-1,16,0.75,10069,54,86,33,61,1102,726.0,630,457,60,118.0,219,1,414,377,158,0,0,739,-23490,-2314,727,,,,,,,,,,,,
350623,1560691622437,1,2.25,2.39,3.24,2.41,5.05,0.45,-0.66,0.87,9,-2,15,0.8,10075,50,86,33,59,1094,729.0,628,453,60,118.0,219,1,408,360,158,0,0,744,-2918,-2830,729,,,,,,,,,,,,
350643,1560691622457,4,2.24,2.41,3.19,2.4,5.04,0.37,-0.59,0.76,7,-2,13,0.7,10032,45,86,33,56,1086,731.0,634,456,60,118.0,183,1,403,334,134,0,0,741,-4091,-31066,727,45.70113,4.910182,69.28,196.5,3,1.675,0,0.0,0.1117,4,0.11,5.844
350663,1560691622477,2,2.24,2.43,3.17,2.38,5.04,0.44,-0.48,0.78,6,-2,13,0.65,10042,38,86,33,52,1072,731.0,623,458,60,118.0,183,1,394,297,134,0,0,747,-2826,-31066,728,,,,,,,,,,,,
350683,1560691622496,2,2.24,2.43,3.18,2.36,5.05,0.56,-0.49,0.8,5,-4,11,0.75,9978,34,86,33,49,1055,733.0,633,455,60,117.0,183,1,385,268,134,0,0,744,-22796,-13068,732,,,,,,,,,,,,
350703,1560691622516,3,2.24,2.43,3.18,2.31,5.05,0.39,-0.36,0.77,4,-3,10,0.53,9941,31,86,33,45,1044,732.0,629,457,60,118.0,183,1,365,242,134,0,0,741,1037,-3580,733,,,,,,,,,,,,
350723,1560691622536,0,2.24,2.42,3.18,2.27,5.04,0.52,-0.28,0.71,3,-1,8,0.59,9899,30,86,33,42,1036,733.0,627,458,60,118.0,183,1,342,227,134,0,0,739,-2356,3462,731,,,,,,,,,,,,
350743,1560691622556,2,2.24,2.4,3.19,2.19,5.08,0.55,-0.18,0.64,1,-3,8,0.58,9725,30,86,33,40,1010,739.0,633,459,60,118.0,116,1,327,220,85,0,0,736,-13068,-2830,728,45.70113,4.910207,70.51,196.5,3,1.675,0,0.0,0.1133,4,0.12,5.8457
350763,1560691622576,1,2.22,2.4,3.19,2.15,5.06,0.69,-0.27,0.76,0,-3,6,0.74,9532,29,86,33,40,978,739.0,636,462,60,117.0,116,1,327,218,85,0,0,731,-2830,-2830,729,,,,,,,,,,,,
350783,1560691622596,-1,2.22,2.4,3.17,2.11,5.05,0.43,-0.04,0.61,0,-1,5,0.44,9305,29,86,32,40,949,735.0,626,459,60,118.0,116,1,327,216,85,0,0,739,-2314,-25858,730,,,,,,,,,,,,
350803,1560691622616,-1,2.22,2.41,3.15,2.09,5.05,0.3,0.17,0.5,-1,-2,4,0.34,9088,29,86,32,39,925,736.0,624,464,60,118.0,116,1,320,213,85,0,0,738,1037,-2358,727,,,,,,,,,,,,
350823,1560691622636,3,2.2,2.42,3.11,2.06,5.04,0.33,0.31,0.3,-1,2,3,0.45,9023,29,86,32,39,891,739.0,615,455,60,118.0,116,1,320,135,85,0,0,735,-13068,204,725,,,,,,,,,,,,
350843,1560691622656,2,2.2,2.41,3.11,1.98,5.03,0.33,0.48,0.31,-2,0,2,0.58,9062,29,86,32,38,851,735.0,620,462,60,118.0,99,1,317,209,72,0,0,722,-3580,-12152,722,45.701134,4.910233,71.16,196.6,3,1.675,0,0.0,0.115,4,0.12,5.8474
350863,1560691622676,3,2.19,2.39,3.13,1.91,5.07,0.5,0.62,0.37,-4,1,0,0.79,9177,29,86,32,38,823,733.0,616,460,60,118.0,99,1,317,210,72,0,0,711,-22796,-20693,718,,,,,,,,,,,,
350883,1560691622696,3,2.19,2.38,3.17,1.88,5.05,0.59,0.48,0.5,-5,-3,-2,0.76,9305,28,86,32,38,808,731.0,626,457,60,117.0,99,1,317,211,72,0,0,711,-2314,6208,719,,,,,,,,,,,,
350903,1560691622716,5,2.19,2.39,3.18,1.87,5.05,0.74,0.34,0.55,-6,1,-4,0.81,9379,28,86,32,37,805,733.0,622,457,60,117.0,99,1,314,209,72,0,0,710,-22796,-3584,713,,,,,,,,,,,,
350923,1560691622736,2,2.2,2.39,3.19,1.85,5.08,0.6,0.45,0.4,-7,0,-5,0.75,9431,28,86,32,37,814,727.0,628,460,60,118.0,99,1,314,209,72,0,0,705,-3344,14342,708,,,,,,,,,,,,
350943,1560691622756,2,2.2,2.4,3.18,1.84,5.08,0.64,0.57,0.39,-8,-1,-6,0.86,9488,28,86,32,37,828,724.0,625,460,60,118.0,105,1,314,209,75,0,0,707,-2918,6208,707,45.701134,4.910259,70.72,196.6,3,1.675,0,0.0,0.1167,4,0.12,5.849
350963,1560691622776,1,2.2,2.4,3.15,1.85,5.04,0.78,0.4,0.46,-9,-1,-9,0.87,9561,28,86,32,37,852,726.0,634,460,60,118.0,105,1,314,211,75,0,0,710,31988,16599,706,,,,,,,,,,,,
350983,1560691622796,2,2.19,2.4,3.15,1.82,5.06,0.64,0.54,0.42,-9,-3,-8,0.84,9585,28,86,32,36,874,722.0,636,459,60,118.0,105,1,311,208,75,0,0,709,-388,-3584,701,,,,,,,,,,,,
351003,1560691622816,5,2.19,2.41,3.11,1.82,5.04,0.66,0.61,0.44,-10,0,-10,0.89,9532,28,86,32,36,893,720.0,633,462,60,118.0,105,1,311,208,75,0,0,714,-2830,-3584,700,,,,,,,,,,,,
351023,1560691622836,1,2.19,2.43,3.09,1.81,5.06,0.79,0.48,0.46,-10,-1,-12,0.93,9561,28,86,32,36,906,717.0,641,461,60,117.0,105,1,311,208,75,0,0,710,-23490,-10399,700,,,,,,,,,,,,
351043,1560691622856,3,2.2,2.43,3.08,1.81,5.06,0.63,0.64,0.35,-10,0,-11,0.9,9517,28,86,32,36,900,719.0,627,462,60,118.0,107,1,311,208,75,0,0,710,204,3543,695,45.701138,4.910285,69.94,196.6,3,1.675,0,0.0,0.1183,4,0.12,5.8507
351063,1560691622876,4,2.2,2.43,3.09,1.79,5.07,0.77,0.59,0.39,-11,-2,-12,0.97,9556,28,86,32,36,893,715.0,629,465,60,117.0,107,1,311,208,75,0,0,708,-2560,12333,695,,,,,,,,,,,,
351083,1560691622896,2,2.21,2.43,3.08,1.78,5.04,0.74,0.63,0.42,-11,-2,-12,0.97,9541,28,86,32,35,882,714.0,630,460,60,118.0,107,1,308,205,75,0,0,714,-13312,6208,692,,,,,,,,,,,,
351103,1560691622916,1,2.22,2.43,3.08,1.79,5.05,0.7,0.76,0.34,-11,-0,-13,1.04,9561,28,86,32,34,872,715.0,620,461,60,118.0,107,1,305,203,75,0,0,711,-2560,14342,693,,,,,,,,,,,,
351123,1560691622936,6,2.21,2.43,3.08,1.82,5.05,0.84,0.56,0.46,-11,-1,-14,1.01,9615,28,86,32,33,866,709.0,626,452,60,118.0,107,1,302,204,75,0,0,714,-12152,24,692,,,,,,,,,,,,
351143,1560691622956,3,2.21,2.43,3.06,1.83,5.04,0.71,0.68,0.44,-11,1,-13,0.99,9620,28,86,32,33,858,708.0,624,460,60,118.0,105,1,302,202,73,0,0,703,-30694,24,690,45.701138,4.91031,68.36,196.7,3,1.675,0,0.0,0.12,4,0.12,5.8524
351163,1560691622976,5,2.19,2.43,3.04,1.82,5.08,0.82,0.66,0.43,-11,-1,-13,1.06,9620,28,86,32,33,844,706.0,635,460,60,118.0,105,1,302,202,73,0,0,708,6658,24,691,,,,,,,,,,,,
351183,1560691622996,3,2.18,2.43,3.04,1.81,5.06,0.87,0.68,0.46,-11,-2,-12,1.11,9590,28,86,32,32,829,703.0,642,455,60,117.0,105,1,300,201,73,0,0,711,11069,6208,691,,,,,,,,,,,,
351203,1560691623010,3,2.17,2.42,3.04,1.81,5.08,0.75,0.81,0.4,-11,1,-12,1.11,9571,28,86,32,32,820,706.0,622,451,60,118.0,105,1,300,201,73,0,0,706,687,24,694,,,,,,,,,,,,
351223,1560691623030,-0,2.16,2.44,3.04,1.81,5.04,0.84,0.67,0.44,-12,-0,-15,1.08,9605,28,86,32,32,811,706.0,634,455,60,118.0,105,1,300,200,73,0,0,704,687,24,688,,,,,,,,,,,,
351243,1560691623050,2,2.15,2.49,3.02,1.8,5.04,0.7,0.77,0.39,-12,2,-14,1.04,9605,28,86,32,32,804,705.0,634,445,60,118.0,104,1,300,200,72,0,0,708,-20693,24,686,45.701141,4.910335,67.58,196.7,3,1.675,0,0.0,0.1217,4,0.13,5.8541
351263,1560691623070,5,2.15,2.49,3.02,1.79,5.07,0.81,0.78,0.41,-12,1,-15,1.13,9600,28,86,32,32,797,707.0,638,453,60,118.0,104,1,300,200,72,0,0,699,11069,-10344,685,,,,,,,,,,,,
351283,1560691623092,0,2.15,2.51,3.02,1.79,5.04,0.82,0.73,0.42,-13,1,-16,1.09,9556,28,86,32,32,800,707.0,633,447,60,118.0,104,1,300,199,72,0,0,710,6658,-26562,680,,,,,,,,,,,,
351303,1560691623112,4,2.14,2.51,3.02,1.78,5.08,0.71,0.86,0.31,-13,3,-17,1.11,9556,28,86,32,32,802,704.0,622,448,60,118.0,104,1,300,199,72,0,0,699,6658,-2826,678,,,,,,,,,,,,
351323,1560691623132,3,2.15,2.51,3.01,1.78,5.05,0.84,0.7,0.4,-15,1,-20,1.09,9590,28,86,32,32,812,708.0,632,448,60,118.0,104,1,300,199,72,0,0,705,-30694,-2345,678,,,,,,,,,,,,
351343,1560691623152,2,2.15,2.54,3.0,1.78,5.07,0.72,0.72,0.36,-14,4,-20,1.02,9590,28,86,32,32,821,705.0,623,451,60,119.0,105,1,300,199,72,0,0,706,687,-10344,677,45.701141,4.910359,66.97,196.8,3,1.675,0,0.0,0.1233,4,0.13,5.8557
351363,1560691623172,3,2.15,2.55,2.99,1.78,5.04,0.69,0.85,0.37,-15,2,-21,1.1,9571,28,86,32,32,829,701.0,626,457,60,118.0,105,1,300,199,72,0,0,702,19188,-26562,673,,,,,,,,,,,,
351383,1560691623196,-2,2.13,2.56,2.97,1.77,5.04,0.82,0.72,0.43,-16,-1,-22,1.09,9508,28,86,32,32,835,701.0,630,445,60,118.0,105,1,300,198,72,0,0,703,-2830,-3584,676,,,,,,,,,,,,
351403,1560691623216,-0,2.14,2.55,2.95,1.77,5.06,0.66,0.82,0.36,-16,4,-21,1.05,9474,28,86,32,32,846,705.0,634,450,60,118.0,105,1,300,197,72,0,0,705,-20693,16118,674,,,,,,,,,,,,
351423,1560691623236,1,2.14,2.59,2.96,1.76,5.05,0.63,0.93,0.38,-17,1,-19,1.12,9445,28,86,32,32,857,705.0,626,455,60,118.0,105,1,300,196,72,0,0,707,-20693,-26562,674,,,,,,,,,,,,
351443,1560691623256,5,2.14,2.6,2.95,1.77,5.04,0.77,0.76,0.54,-17,1,-22,1.08,9441,28,86,32,32,863,703.0,634,448,60,118.0,104,1,300,196,70,0,0,700,19188,16599,670,45.701145,4.910383,66.07,196.8,3,1.675,0,0.0,0.125,4,0.13,5.8574
351463,1560691623276,0,2.14,2.61,2.93,1.79,5.07,0.58,0.75,0.43,-16,4,-23,0.95,9417,28,86,32,32,867,703.0,629,451,60,118.0,104,1,300,196,70,0,0,703,8010,-10346,672,,,,,,,,,,,,
351483,1560691623296,2,2.15,2.65,2.94,1.82,5.04,0.48,0.88,0.32,-16,3,-22,1.0,9389,28,86,32,32,870,698.0,626,455,60,118.0,104,1,300,195,70,0,0,702,24,-26562,667,,,,,,,,,,,,
351503,1560691623316,4,2.15,2.66,2.96,1.82,5.04,0.63,0.91,0.43,-17,-1,-23,1.11,9314,28,86,32,32,874,696.0,624,456,60,118.0,104,1,300,195,70,0,0,695,16599,3543,667,,,,,,,,,,,,
351523,1560691623336,4,2.17,2.65,3.02,1.8,5.06,0.77,0.71,0.54,-17,-2,-24,1.05,9295,28,86,32,32,875,691.0,617,464,60,118.0,104,1,300,194,70,0,0,696,1780,-10344,665,,,,,,,,,,,,
351543,1560691623356,-0,2.19,2.64,3.03,1.79,5.07,0.64,0.56,0.52,-16,1,-23,0.85,9277,28,86,32,32,875,696.0,625,451,60,117.0,101,1,300,193,68,0,0,693,16599,-10344,670,45.701153,4.910406,64.45,196.8,3,1.675,0,0.0,0.1267,4,0.13,5.859
351563,1560691623376,1,2.2,2.63,3.08,1.77,5.08,0.5,0.71,0.38,-16,-0,-22,0.87,9259,28,86,32,33,880,696.0,622,453,60,118.0,101,1,302,196,68,0,0,696,16599,-2345,670,,,,,,,,,,,,
351583,1560691623396,1,2.2,2.6,3.09,1.77,5.04,0.64,0.65,0.44,-16,0,-22,0.91,9236,28,86,32,33,886,698.0,616,462,60,118.0,101,1,302,195,68,0,0,694,24,16599,671,,,,,,,,,,,,
351603,1560691623416,3,2.2,2.58,3.07,1.78,5.04,0.77,0.76,0.5,-15,-0,-22,1.08,9231,28,86,32,33,891,698.0,622,457,60,118.0,101,1,302,196,68,0,0,692,16599,-10344,673,,,,,,,,,,,,
351623,1560691623436,5,2.2,2.57,3.0,1.78,5.03,0.7,0.67,0.54,-15,1,-22,0.97,9259,28,86,32,33,898,696.0,625,454,60,118.0,101,1,302,196,68,0,0,696,16599,-26380,673,,,,,,,,,,,,
351643,1560691623456,6,2.18,2.58,2.9,1.78,5.04,0.56,0.81,0.35,-15,0,-23,0.98,9277,28,86,32,33,909,691.0,628,451,60,118.0,101,1,302,196,68,0,0,690,1780,8958,673,45.701157,4.910429,64.27,196.9,3,1.675,0,0.0,0.1283,4,0.13,5.8607
351663,1560691623476,-0,2.17,2.59,2.88,1.79,5.03,0.49,0.93,0.29,-14,2,-22,1.05,9295,28,86,32,33,922,692.0,625,453,60,118.0,101,1,302,196,68,0,0,690,-2830,-3578,672,,,,,,,,,,,,
351683,1560691623498,2,2.17,2.57,2.87,1.76,5.04,0.64,1.02,0.35,-14,1,-21,1.2,9300,28,86,32,33,931,689.0,626,455,60,118.0,101,1,302,196,68,0,0,688,-3584,-26380,670,,,,,,,,,,,,
351703,1560691623518,2,2.16,2.55,2.89,1.76,5.05,0.78,0.81,0.48,-15,-2,-20,1.12,9295,28,86,32,33,938,689.0,627,458,60,118.0,101,1,302,196,68,0,0,683,-3584,-388,668,,,,,,,,,,,,
351723,1560691623538,3,2.18,2.55,2.9,1.76,5.05,0.76,0.64,0.57,-15,-2,-22,1.0,9277,28,86,32,33,948,690.0,622,457,60,118.0,101,1,302,196,68,0,0,692,-3584,-2830,670,,,,,,,,,,,,
351743,1560691623558,3,2.18,2.55,2.99,1.75,5.05,0.67,0.7,0.51,-15,-2,-23,0.97,9231,28,86,32,33,963,691.0,620,459,60,118.0,101,1,302,195,68,0,0,690,1780,-3038,668,45.70116,4.91045,63.38,196.9,3,1.675,0,0.0,0.13,4,0.14,5.8624
351763,1560691623578,3,2.18,2.55,3.01,1.77,5.07,0.55,0.79,0.41,-15,-2,-24,0.96,9222,28,86,32,33,975,690.0,622,455,60,118.0,101,1,302,195,68,0,0,691,-2830,1549,666,,,,,,,,,,,,
351783,1560691623597,-1,2.19,2.56,3.01,1.81,5.05,0.56,0.91,0.29,-15,-1,-23,1.07,9218,28,86,32,33,982,690.0,630,455,60,118.0,101,1,302,195,68,0,0,691,-3584,-26380,664,,,,,,,,,,,,
351803,1560691623617,1,2.18,2.6,2.99,1.85,5.08,0.61,0.99,0.32,-15,-0,-21,1.16,9191,28,86,32,33,993,689.0,618,462,60,118.0,101,1,302,194,68,0,0,689,6208,-2345,662,,,,,,,,,,,,
351823,1560691623637,3,2.17,2.65,3.0,1.89,5.04,0.75,0.87,0.4,-14,-2,-20,1.15,9200,28,86,32,33,1007,684.0,621,458,60,118.0,101,1,302,195,68,0,0,680,24845,-27404,661,,,,,,,,,,,,
351843,1560691623657,3,2.15,2.65,3.0,1.87,5.04,0.81,0.75,0.53,-15,-3,-20,1.11,9195,28,86,32,33,1018,683.0,627,460,60,118.0,102,1,302,194,68,0,0,681,3543,-27404,660,45.701168,4.910472,62.54,196.9,3,1.675,0,0.0,0.1317,4,0.14,5.864
351863,1560691623677,4,2.14,2.62,3.02,1.83,5.05,0.87,0.61,0.57,-15,-3,-20,1.06,9218,28,86,32,33,1024,685.0,627,457,60,118.0,102,1,302,195,68,0,0,679,-10344,-2830,659,,,,,,,,,,,,
351883,1560691623695,6,2.16,2.6,3.05,1.76,5.05,0.76,0.59,0.51,-16,-2,-22,0.96,9218,28,86,32,33,1031,683.0,626,453,60,118.0,102,1,302,194,68,0,0,693,6208,-27404,661,,,,,,,,,,,,
351903,1560691623715,3,2.17,2.6,3.05,1.74,5.06,0.62,0.74,0.34,-16,-2,-23,0.96,9195,28,86,32,34,1039,689.0,628,453,60,118.0,102,1,305,197,68,0,0,687,-3584,-10348,660,,,,,,,,,,,,
351923,1560691623735,5,2.17,2.61,3.03,1.74,5.04,0.49,0.86,0.23,-16,2,-24,0.99,9182,28,86,32,34,1046,691.0,608,459,60,119.0,102,1,305,197,68,0,0,687,14342,3543,660,,,,,,,,,,,,
351943,1560691623755,1,2.17,2.61,2.96,1.74,5.04,0.49,0.98,0.2,-16,2,-25,1.1,9159,28,86,32,34,1049,689.0,615,456,60,118.0,101,1,305,197,67,0,0,689,-3584,-10348,657,45.70118,4.910494,63.73,197.0,3,1.675,0,0.0,0.1333,4,0.14,5.8657
351963,1560691623775,4,2.17,2.61,2.9,1.76,5.04,0.57,1.08,0.2,-16,4,-23,1.22,9146,27,86,32,33,1052,689.0,612,452,60,118.0,101,1,302,193,67,0,0,684,-3584,-10348,655,,,,,,,,,,,,
351983,1560691623797,5,2.16,2.62,2.88,1.76,5.05,0.71,1.17,0.32,-16,3,-22,1.37,9128,25,86,32,32,1058,685.0,613,459,60,118.0,101,1,300,190,67,0,0,683,-10399,-2826,653,,,,,,,,,,,,
352003,1560691623817,6,2.17,2.61,2.88,1.75,5.04,0.8,1.11,0.39,-16,2,-21,1.37,9093,23,86,32,31,1064,677.0,615,460,60,118.0,101,1,295,188,67,0,0,679,-26562,-26380,651,,,,,,,,,,,,
352023,1560691623837,7,2.17,2.59,2.93,1.73,5.06,0.92,1.06,0.54,-16,1,-21,1.41,9057,22,86,32,30,1067,678.0,609,458,60,118.0,101,1,291,188,67,0,0,677,-10346,2024,649,,,,,,,,,,,,
352043,1560691623857,11,2.16,2.58,3.0,1.72,5.06,1.03,0.97,0.59,-16,-1,-21,1.41,8997,21,86,32,29,1070,675.0,619,461,60,118.0,98,1,287,188,64,0,0,674,-2345,8958,645,45.701183,4.910514,63.39,196.9,3,1.675,0,0.0,0.135,4,0.14,5.8674
352063,1560691623877,9,2.18,2.55,3.06,1.69,5.05,1.12,0.98,0.62,-16,-1,-21,1.49,8941,20,86,32,28,1078,673.0,617,459,60,118.0,98,1,282,188,64,0,0,678,-26380,6208,642,,,,,,,,,,,,
352083,1560691623897,11,2.17,2.53,3.08,1.68,5.08,1.14,1.07,0.58,-16,-2,-21,1.56,8865,19,86,32,27,1086,673.0,624,455,60,118.0,98,1,278,188,64,0,0,670,-3038,-14655,639,,,,,,,,,,,,
352103,1560691623917,17,2.18,2.51,3.13,1.68,5.06,1.11,1.16,0.51,-16,-0,-21,1.61,8773,18,86,32,27,1090,671.0,620,458,60,118.0,98,1,278,188,64,0,0,662,-388,16599,636,,,,,,,,,,,,
352123,1560691623937,16,2.18,2.5,3.13,1.68,5.06,1.03,1.17,0.46,-16,1,-22,1.56,8668,18,86,32,26,1094,667.0,611,457,60,118.0,98,1,274,188,64,0,0,664,-3578,20993,634,,,,,,,,,,,,
352143,1560691623957,15,2.18,2.48,3.1,1.68,5.03,1.08,1.06,0.53,-16,1,-23,1.51,8538,17,86,32,25,1088,659.0,596,456,60,118.0,96,1,270,188,61,0,0,656,-3038,269,627,45.701195,4.910534,63.83,196.9,3,1.675,0,0.0,0.1367,4,0.14,5.869
352163,1560691623977,18,2.18,2.47,3.05,1.68,5.05,1.09,1.1,0.48,-17,-0,-23,1.55,8419,17,86,32,25,1082,657.0,580,463,60,119.0,96,1,270,183,61,0,0,657,8958,28675,623,,,,,,,,,,,,
352183,1560691623991,14,2.19,2.47,3.05,1.66,5.07,1.08,1.0,0.53,-16,-0,-23,1.47,8285,16,86,32,25,1072,653.0,591,461,60,118.0,96,1,270,176,61,0,0,649,-3488,-23055,620,,,,,,,,,,,,
352203,1560691624011,19,2.19,2.45,3.04,1.65,5.07,1.11,1.07,0.37,-16,-1,-23,1.54,8180,16,86,32,25,1061,646.0,575,460,60,118.0,96,1,270,169,61,0,0,647,4909,-768,613,,,,,,,,,,,,
352223,1560691624031,14,2.19,2.43,3.06,1.66,5.05,1.08,0.95,0.43,-16,-0,-23,1.44,8029,16,86,32,25,1032,640.0,573,458,60,118.0,96,1,270,160,61,0,0,639,24,-768,613,,,,,,,,,,,,
352243,1560691624051,15,2.2,2.43,3.09,1.64,5.06,1.1,0.95,0.42,-16,-2,-23,1.45,7884,16,86,32,25,1002,637.0,565,460,60,119.0,78,1,268,159,48,0,0,639,-2580,-4035,605,45.701202,4.910553,62.98,196.9,3,1.675,0,0.0,0.1383,4,0.14,5.8707
352263,1560691624071,17,2.19,2.41,3.13,1.63,5.05,1.18,0.98,0.28,-16,-3,-22,1.54,7815,16,86,32,25,981,629.0,563,461,60,119.0,78,1,268,159,48,0,0,623,771,-3210,605,,,,,,,,,,,,
352283,1560691624093,14,2.21,2.39,3.2,1.65,5.06,1.11,1.01,0.15,-16,-3,-22,1.5,7760,16,86,32,26,961,629.0,562,460,60,118.0,78,1,270,159,48,0,0,603,-16046,-2934,602,,,,,,,,,,,,
352303,1560691624113,16,2.2,2.36,3.24,1.63,5.08,1.05,0.91,0.17,-15,-2,-22,1.39,7773,16,86,32,26,937,621.0,565,460,60,120.0,78,1,270,160,48,0,0,606,-18357,26178,601,,,,,,,,,,,,
352323,1560691624133,16,2.2,2.35,3.27,1.64,5.04,1.13,0.78,0.17,-14,-2,-21,1.37,7612,16,86,32,26,913,618.0,564,457,60,119.0,78,1,269,160,48,0,0,602,269,-8187,593,,,,,,,,,,,,
352343,1560691624153,16,2.21,2.35,3.27,1.65,5.04,1.18,0.76,0.08,-14,-0,-20,1.41,7482,15,86,32,27,903,615.0,555,460,60,119.0,75,1,271,160,45,0,0,598,16529,11560,588,45.701214,4.910571,62.2,196.9,3,1.675,0,0.0,0.14,4,0.15,5.8724
352363,1560691624173,15,2.22,2.34,3.23,1.64,5.08,1.17,0.72,0.05,-14,1,-20,1.37,7304,15,86,32,27,898,608.0,540,458,60,117.0,75,1,270,161,45,0,0,599,19621,10408,582,,,,,,,,,,,,
352383,1560691624197,16,2.21,2.32,3.22,1.62,5.04,1.21,0.76,-0.03,-14,0,-19,1.43,7225,15,86,32,27,892,604.0,526,461,60,119.0,75,1,270,161,45,0,0,584,5344,-6528,581,,,,,,,,,,,,
352403,1560691624217,15,2.21,2.29,3.2,1.6,5.07,1.19,0.83,-0.04,-14,-1,-19,1.45,7156,15,86,32,28,886,595.0,518,460,60,119.0,75,1,273,161,45,0,0,582,-16179,16648,579,,,,,,,,,,,,
352423,1560691624237,18,2.22,2.28,3.2,1.61,5.06,1.27,0.74,0.02,-14,-2,-19,1.47,7153,15,86,32,28,883,592.0,525,462,60,116.0,75,1,273,236,45,0,0,571,-28648,8488,568,,,,,,,,,,,,
352443,1560691624257,17,2.21,2.27,3.2,1.59,5.04,1.3,0.69,0.02,-13,0,-17,1.47,7151,15,86,32,29,880,584.0,522,464,60,116.0,109,1,277,220,62,0,0,570,-4035,32033,565,45.701221,4.910588,60.65,196.9,3,1.675,0,0.0,0.1417,4,0.15,5.8741
352463,1560691624277,16,2.2,2.26,3.2,1.61,5.05,1.28,0.73,-0.04,-12,1,-17,1.47,7159,15,86,32,29,883,579.0,508,457,60,117.0,109,1,277,204,62,0,0,563,243,-17956,563,,,,,,,,,,,,
352483,1560691624297,15,2.21,2.25,3.2,1.6,5.06,1.21,0.79,-0.07,-12,2,-16,1.45,7096,15,86,32,29,889,573.0,508,453,60,117.0,109,1,277,186,62,0,0,568,1760,-6441,557,,,,,,,,,,,,
352503,1560691624317,18,2.21,2.25,3.19,1.62,5.05,1.21,0.71,0.03,-12,0,-17,1.41,7054,15,86,32,29,895,567.0,510,456,60,118.0,109,1,277,169,62,0,0,560,1780,2524,550,,,,,,,,,,,,
352523,1560691624337,16,2.22,2.24,3.24,1.62,5.07,1.26,0.61,-0.01,-11,0,-17,1.4,7067,15,86,32,30,902,560.0,510,456,60,117.0,109,1,281,166,62,0,0,547,6273,-6528,548,,,,,,,,,,,,
352543,1560691624357,13,2.23,2.22,3.26,1.62,5.07,1.22,0.63,-0.09,-11,1,-16,1.38,7107,15,86,32,30,926,556.0,516,455,60,117.0,80,1,281,166,44,0,0,542,-22359,-6656,543,45.701233,4.910603,57.82,196.9,3,1.675,0,0.0,0.1433,4,0.15,5.8757
352563,1560691624377,28,2.22,2.22,3.28,1.63,5.05,1.25,0.6,-0.01,-11,1,-16,1.38,7064,15,86,32,30,965,549.0,512,453,60,118.0,80,1,281,166,44,0,0,537,2104,10408,537,,,,,,,,,,,,
352583,1560691624397,14,2.23,2.2,3.29,1.63,5.07,1.23,0.44,0.07,-10,-0,-16,1.3,7064,15,86,32,30,999,547.0,515,457,60,117.0,80,1,281,166,44,0,0,526,-22519,26178,534,,,,,,,,,,,,
352603,1560691624417,11,2.23,2.21,3.28,1.64,5.05,1.25,0.35,0.02,-10,1,-16,1.3,7046,14,86,32,30,1029,542.0,516,451,60,117.0,80,1,281,166,44,0,0,526,-2336,-3856,529,,,,,,,,,,,,
352623,1560691624437,13,2.21,2.21,3.29,1.63,5.05,1.22,0.42,-0.05,-9,1,-14,1.29,7019,14,86,32,30,1056,536.0,502,453,60,118.0,80,1,281,166,44,0,0,525,-32248,-32248,527,,,,,,,,,,,,
352643,1560691624457,16,2.22,2.2,3.28,1.64,5.04,1.3,0.32,0.08,-10,-1,-12,1.34,7001,14,86,32,30,1081,531.0,509,453,60,117.0,84,1,281,166,44,0,0,523,-9072,6274,520,45.701241,4.910616,55.98,197.0,3,1.675,0,0.0,0.145,4,0.15,5.8774
352663,1560691624477,13,2.2,2.2,3.28,1.64,5.08,1.22,0.32,0.03,-9,1,-12,1.26,6954,14,86,32,31,1095,527.0,503,460,60,117.0,84,1,285,166,44,0,0,517,-28648,-3414,515,,,,,,,,,,,,
352683,1560691624497,15,2.19,2.2,3.26,1.65,5.07,1.3,0.37,0.08,-10,-0,-12,1.35,6875,14,86,32,31,1089,522.0,488,448,60,118.0,84,1,286,167,44,0,0,517,2524,-6528,510,,,,,,,,,,,,
352703,1560691624517,14,2.2,2.19,3.28,1.63,5.04,1.07,0.31,0.1,-8,5,-15,1.11,6855,14,86,32,31,1072,520.0,495,467,60,117.0,84,1,286,167,44,0,0,505,1248,-6656,505,,,,,,,,,,,,
352723,1560691624537,13,2.18,2.18,3.3,1.62,5.05,1.02,0.41,0.01,-8,4,-17,1.1,6838,15,86,32,31,1039,512.0,490,453,60,119.0,84,1,286,167,44,0,0,454,26178,13180,502,,,,,,,,,,,,
352743,1560691624557,18,2.19,2.13,3.32,1.6,5.07,1.1,0.35,0.03,-9,3,-16,1.15,7126,15,86,32,31,1009,509.0,502,457,60,119.0,85,1,285,167,43,0,0,459,-3414,11560,498,45.701252,4.91063,54.2,197.0,3,1.675,0,0.0,0.1467,4,0.15,5.8791
352763,1560691624577,16,2.19,2.13,3.33,1.59,5.07,1.19,0.27,0.08,-9,6,-14,1.22,7327,15,86,32,31,983,505.0,509,459,60,118.0,85,1,286,167,43,0,0,387,6274,-18948,489,,,,,,,,,,,,
352783,1560691624596,17,2.19,2.13,3.34,1.63,5.04,1.17,0.28,0.01,-9,5,-13,1.21,7376,14,86,32,30,957,503.0,518,457,60,117.0,85,1,282,166,43,0,0,363,2524,-6656,484,,,,,,,,,,,,
352803,1560691624616,15,2.18,2.13,3.34,1.63,5.07,1.13,0.31,-0.02,-10,8,-13,1.17,7332,14,86,32,30,930,496.0,512,456,60,118.0,85,1,282,166,43,0,0,396,3,2278,475,,,,,,,,,,,,
352823,1560691624636,11,2.18,2.13,3.31,1.62,5.06,1.18,0.3,-0.05,-10,7,-13,1.22,7290,14,86,32,30,909,492.0,511,453,60,118.0,85,1,282,166,43,0,0,436,-32768,7154,469,,,,,,,,,,,,
352843,1560691624656,13,2.17,2.14,3.31,1.61,5.04,1.06,0.38,-0.12,-11,5,-14,1.13,7367,14,86,32,30,909,484.0,513,455,60,118.0,98,1,282,166,46,0,0,425,-10483,10541,461,45.70126,4.910641,51.86,197.0,3,1.675,0,0.0,0.1483,4,0.15,5.8807
352863,1560691624676,11,2.18,2.13,3.3,1.6,5.04,1.08,0.34,-0.17,-11,4,-16,1.14,7569,14,86,32,29,909,479.0,526,457,60,119.0,98,1,279,164,46,0,0,403,10305,-6475,457,,,,,,,,,,,,
352883,1560691624696,11,2.17,2.13,3.31,1.6,5.04,1.05,0.43,-0.23,-11,6,-17,1.13,7591,14,86,33,29,909,474.0,541,455,60,118.0,98,1,279,164,46,0,0,412,-9203,-32702,450,,,,,,,,,,,,
352903,1560691624716,10,2.17,2.13,3.31,1.59,5.04,1.03,0.41,-0.23,-12,4,-18,1.11,7646,14,86,33,28,909,471.0,557,455,60,118.0,98,1,276,163,46,0,0,427,32033,-9211,445,,,,,,,,,,,,
352923,1560691624736,9,2.17,2.17,3.3,1.58,5.07,1.06,0.38,-0.21,-12,3,-17,1.13,7671,14,86,33,28,910,467.0,542,457,60,118.0,98,1,276,163,46,0,0,428,243,11560,440,,,,,,,,,,,,
352943,1560691624756,4,2.17,2.2,3.27,1.56,5.05,1.15,0.31,-0.14,-13,2,-17,1.2,7776,14,86,33,28,911,462.0,552,455,60,118.0,106,1,276,163,47,0,0,430,12552,-9211,435,45.701271,4.910653,49.14,197.0,3,1.675,0,0.0,0.15,4,0.15,5.8824
352963,1560691624776,6,2.17,2.22,3.26,1.55,5.04,1.19,0.42,-0.12,-14,4,-19,1.27,7888,14,86,33,27,914,458.0,548,460,60,119.0,106,1,274,161,47,0,0,429,14488,9517,431,,,,,,,,,,,,
352983,1560691624796,4,2.17,2.26,3.28,1.55,5.05,1.12,0.58,-0.17,-14,2,-19,1.26,7924,14,86,33,27,918,454.0,553,455,60,119.0,106,1,275,161,47,0,0,428,2524,6512,427,,,,,,,,,,,,
353003,1560691624816,7,2.16,2.27,3.27,1.56,5.05,1.09,0.49,-0.05,-14,2,-19,1.19,7938,14,86,33,27,921,451.0,556,460,60,118.0,106,1,275,160,47,0,0,429,15649,-9166,427,,,,,,,,,,,,
353023,1560691624836,1,2.17,2.31,3.25,1.57,5.08,1.15,0.49,0.05,-15,4,-21,1.25,7965,14,86,33,26,925,448.0,554,455,60,118.0,106,1,272,160,47,0,0,434,8488,-3414,423,,,,,,,,,,,,
353043,1560691624856,1,2.17,2.31,3.2,1.56,5.07,1.15,0.59,0.01,-15,3,-23,1.3,7908,14,86,33,26,926,444.0,561,456,60,119.0,113,1,272,160,48,0,0,437,21432,13040,423,45.701279,4.910663,46.49,197.1,3,1.675,0,0.0,0.1517,4,0.16,5.884
353063,1560691624876,5,2.17,2.31,3.17,1.57,5.08,1.1,0.62,-0.01,-15,2,-22,1.27,7921,14,86,33,26,926,442.0,564,458,60,118.0,113,1,272,160,48,0,0,434,23400,13040,421,,,,,,,,,,,,
353083,1560691624896,0,2.16,2.32,3.16,1.58,5.04,1.04,0.56,0.05,-14,4,-21,1.19,7904,14,86,33,26,925,441.0,565,458,60,118.0,113,1,272,160,48,0,0,434,26704,11560,419,,,,,,,,,,,,
353103,1560691624916,1,2.18,2.3,3.17,1.6,5.04,1.04,0.46,0.13,-14,4,-22,1.14,7841,14,86,33,25,922,436.0,572,456,60,118.0,113,1,268,159,48,0,0,433,5600,-9166,418,,,,,,,,,,,,
353123,1560691624936,2,2.18,2.3,3.19,1.62,5.06,1.02,0.52,0.09,-14,4,-21,1.14,7861,14,86,33,25,916,434.0,562,457,60,119.0,113,1,268,159,48,0,0,428,-768,11560,418,,,,,,,,,,,,
353143,1560691624956,4,2.19,2.29,3.18,1.64,5.07,0.94,0.56,0.06,-13,6,-20,1.09,7789,14,86,33,25,909,433.0,557,453,60,119.0,112,1,267,159,47,0,0,424,243,13040,417,45.70129,4.910671,43.89,197.1,3,1.675,0,0.0,0.1533,4,0.16,5.8857
353163,1560691624976,5,2.19,2.28,3.17,1.66,5.05,0.86,0.53,0.08,-12,5,-20,1.01,7793,14,86,33,25,905,431.0,570,458,60,118.0,112,1,267,159,47,0,0,423,-3314,9517,414,,,,,,,,,,,,
353183,1560691624996,2,2.2,2.28,3.17,1.73,5.04,0.87,0.44,0.13,-11,4,-20,0.98,7776,14,86,33,25,901,427.0,565,456,60,118.0,112,1,267,159,47,0,0,419,31796,2524,414,,,,,,,,,,,,
353203,1560691625010,-0,2.21,2.28,3.18,1.75,5.07,0.99,0.4,0.26,-11,3,-19,1.07,7716,14,86,33,25,896,424.0,561,456,60,119.0,112,1,267,159,47,0,0,419,-4082,10392,412,,,,,,,,,,,,
353223,1560691625030,1,2.21,2.27,3.2,1.74,5.07,1.04,0.42,0.37,-11,3,-20,1.12,7712,14,86,33,25,891,424.0,547,460,60,119.0,112,1,267,159,47,0,0,416,-3414,10392,410,,,,,,,,,,,,
353243,1560691625050,2,2.21,2.27,3.21,1.79,5.07,1.02,0.45,0.38,-11,2,-19,1.12,7653,14,86,33,25,890,421.0,543,457,60,119.0,111,1,266,159,46,0,0,416,-21792,10541,409,45.701302,4.910679,42.49,197.1,3,1.675,0,0.0,0.155,4,0.16,5.8874
353263,1560691625070,2,2.21,2.27,3.24,1.84,5.04,0.98,0.51,0.31,-10,2,-17,1.11,7640,14,86,33,25,889,418.0,539,458,60,119.0,111,1,266,159,46,0,0,412,-3414,-9211,407,,,,,,,,,,,,
353283,1560691625096,2,2.22,2.26,3.26,1.85,5.04,0.92,0.61,0.27,-9,3,-15,1.1,7581,14,86,33,26,890,416.0,532,458,60,119.0,111,1,268,160,46,0,0,408,18584,-26615,408,,,,,,,,,,,,
353303,1560691625116,3,2.23,2.27,3.25,1.85,5.06,0.86,0.59,0.24,-9,2,-16,1.04,7569,14,86,33,26,891,415.0,534,460,60,118.0,111,1,268,160,46,0,0,407,2524,28696,406,,,,,,,,,,,,
353323,1560691625136,1,2.25,2.25,3.27,1.84,5.05,0.86,0.56,0.13,-8,1,-14,1.02,7509,14,86,33,26,893,413.0,530,453,60,118.0,111,1,268,160,46,0,0,403,13040,6384,405,,,,,,,,,,,,
353343,1560691625156,3,2.27,2.24,3.29,1.84,5.07,0.75,0.51,0.0,-6,2,-13,0.91,7500,14,86,33,26,895,411.0,530,460,60,119.0,111,1,268,160,45,0,0,401,-4059,11545,403,45.701305,4.910685,41.28,197.1,3,1.675,0,0.0,0.1567,4,0.16,5.889
353363,1560691625176,3,2.3,2.22,3.31,1.84,5.04,0.68,0.57,-0.06,-5,3,-11,0.89,7443,14,86,33,26,897,407.0,529,455,60,118.0,111,1,267,160,45,0,0,399,-26615,6512,402,,,,,,,,,,,,
353383,1560691625196,5,2.33,2.18,3.37,1.84,5.08,0.7,0.51,-0.04,-4,2,-10,0.87,7422,14,86,33,26,898,405.0,527,457,60,119.0,111,1,267,160,45,0,0,392,-9211,-32702,401,,,,,,,,,,,,
353403,1560691625216,3,2.37,2.15,3.44,1.88,5.04,0.73,0.48,-0.01,-3,2,-9,0.87,7327,14,86,33,26,898,402.0,520,457,60,119.0,111,1,266,160,45,0,0,384,11545,-6524,402,,,,,,,,,,,,
353423,1560691625236,3,2.39,2.13,3.48,1.92,5.04,0.86,0.33,0.11,-3,0,-7,0.92,7298,14,86,33,27,897,404.0,521,457,60,119.0,111,1,270,161,45,0,0,383,-32702,17144,402,,,,,,,,,,,,
353443,1560691625256,8,2.42,2.1,3.48,1.96,5.04,0.98,0.17,0.22,-2,0,-5,0.99,7214,14,86,33,27,896,405.0,517,458,60,119.0,109,1,270,161,44,0,0,379,505,17144,401,45.701317,4.910693,41.56,197.1,3,1.675,0,0.0,0.1583,4,0.16,5.8907
353463,1560691625276,6,2.44,2.08,3.48,1.99,5.04,0.9,0.07,0.24,1,0,-3,0.9,7178,14,86,33,28,897,402.0,512,458,60,118.0,109,1,273,163,44,0,0,374,240,17144,402,,,,,,,,,,,,
353483,1560691625296,3,2.46,2.05,3.51,2.01,5.05,0.83,-0.02,0.16,4,1,-1,0.83,7129,14,86,33,28,898,403.0,510,460,60,118.0,109,1,273,163,44,0,0,366,19125,-6656,403,,,,,,,,,,,,
353503,1560691625316,3,2.47,2.01,3.53,2.04,5.06,0.81,-0.08,0.21,6,1,2,0.82,7035,14,86,33,28,899,401.0,500,458,60,119.0,109,1,272,163,44,0,0,357,-6656,-32702,401,,,,,,,,,,,,
353523,1560691625336,8,2.49,1.98,3.53,2.07,5.08,0.93,-0.21,0.23,7,-1,6,0.96,6962,14,86,33,28,902,401.0,497,458,60,118.0,109,1,273,164,44,0,0,356,1,-6656,401,,,,,,,,,,,,
353543,1560691625356,3,2.5,1.96,3.54,2.09,5.04,0.82,-0.28,0.16,10,2,9,0.87,6911,14,86,33,29,906,399.0,498,458,60,118.0,104,1,278,164,42,0,0,347,0,-1818,399,45.701324,4.910699,40.54,197.1,3,1.675,0,0.0,0.16,4,0.16,5.8924
353563,1560691625376,6,2.51,1.91,3.56,2.09,5.07,0.94,-0.39,0.29,11,0,12,1.02,6815,14,86,33,29,911,397.0,487,458,60,119.0,104,1,278,164,42,0,0,340,-6458,1,397,,,,,,,,,,,,
353583,1560691625396,5,2.5,1.89,3.59,2.13,5.04,0.92,-0.39,0.24,13,1,13,1.0,6759,14,86,33,30,913,396.0,491,460,60,118.0,104,1,282,166,42,0,0,327,-14707,-3866,396,,,,,,,,,,,,
353603,1560691625416,7,2.49,1.88,3.61,2.12,5.05,0.93,-0.49,0.35,14,-1,14,1.06,6701,14,86,33,30,918,394.0,485,458,60,119.0,104,1,282,166,42,0,0,317,-6640,-31744,394,,,,,,,,,,,,
353623,1560691625436,3,2.49,1.88,3.6,2.16,5.05,0.92,-0.44,0.26,16,-1,14,1.02,6637,14,86,33,31,924,391.0,483,458,60,119.0,104,1,286,167,42,0,0,324,-6644,19125,391,,,,,,,,,,,,
353643,1560691625456,5,2.49,1.88,3.59,2.16,5.06,1.03,-0.54,0.24,17,-3,16,1.16,6546,14,86,33,31,931,387.0,478,459,60,118.0,105,1,286,167,41,0,0,329,-30454,-19019,387,45.701336,4.910705,38.51,197.1,3,1.675,0,0.0,0.1617,4,0.16,5.8941
353663,1560691625476,4,2.5,1.87,3.59,2.15,5.05,0.94,-0.59,0.22,19,-2,17,1.11,6472,14,86,33,32,934,385.0,465,458,60,119.0,105,1,290,169,41,0,0,322,-1246,-992,385,,,,,,,,,,,,
353683,1560691625496,3,2.5,1.87,3.59,2.16,5.04,0.87,-0.57,0.16,20,1,21,1.04,6416,14,86,33,32,937,383.0,463,459,60,119.0,105,1,290,169,41,0,0,318,6870,770,383,,,,,,,,,,,,
353703,1560691625516,2,2.49,1.87,3.6,2.15,5.08,0.99,-0.61,0.09,20,0,26,1.16,6375,14,86,33,33,943,380.0,470,458,60,117.0,105,1,292,174,41,0,0,315,-14714,257,380,,,,,,,,,,,,
353723,1560691625536,2,2.49,1.87,3.59,2.15,5.07,1.09,-0.65,0.13,20,-1,29,1.27,6323,14,86,33,33,946,379.0,464,456,60,119.0,105,1,292,174,41,0,0,314,3327,0,379,,,,,,,,,,,,
353743,1560691625556,6,2.49,1.86,3.58,2.15,5.07,1.07,-0.64,0.2,21,-2,31,1.25,6302,14,86,33,34,947,374.0,461,457,60,118.0,109,1,295,179,41,0,0,314,2560,3082,374,45.70134,4.910712,37.19,197.2,3,1.675,0,0.0,0.1633,4,0.16,5.8957
353763,1560691625576,5,2.48,1.85,3.58,2.14,5.04,0.96,-0.63,0.26,22,1,33,1.14,6291,14,86,33,34,946,371.0,452,456,60,119.0,109,1,295,179,41,0,0,311,3346,2790,369,,,,,,,,,,,,
353783,1560691625595,2,2.45,1.86,3.58,2.14,5.04,0.86,-0.55,0.21,22,3,34,1.02,6306,14,86,33,35,945,368.0,455,462,60,118.0,109,1,298,179,41,0,0,307,-6528,-29978,368,,,,,,,,,,,,
353803,1560691625615,-0,2.43,1.88,3.54,2.14,5.04,0.89,-0.49,0.25,21,3,32,1.01,6256,14,86,33,35,945,365.0,457,458,60,117.0,109,1,298,185,41,0,0,314,-6528,-29978,365,,,,,,,,,,,,
353823,1560691625635,0,2.39,1.92,3.49,2.14,5.04,0.99,-0.52,0.3,20,2,29,1.12,6223,14,86,33,35,944,360.0,455,455,60,118.0,109,1,298,185,41,0,0,319,-12032,2811,360,,,,,,,,,,,,
353843,1560691625655,1,2.35,1.93,3.46,2.12,5.07,1.08,-0.48,0.37,19,-1,25,1.18,6241,14,86,33,35,942,356.0,441,455,60,119.0,119,1,298,190,43,0,0,320,175,-1246,356,45.701347,4.910719,35.43,197.2,3,1.675,0,0.0,0.165,4,0.17,5.8974
353863,1560691625675,2,2.28,1.95,3.39,2.1,5.07,1.04,-0.4,0.41,19,-1,23,1.11,6227,14,86,33,36,939,351.0,430,456,60,119.0,119,1,301,185,43,0,0,323,175,6870,352,,,,,,,,,,,,
353883,1560691625697,5,2.21,2.04,3.32,2.07,5.05,1.0,-0.26,0.35,17,-1,22,1.03,6243,14,86,33,36,936,346.0,393,460,60,118.0,119,1,301,190,43,0,0,327,-32559,-31206,346,,,,,,,,,,,,
353903,1560691625717,1,2.15,2.13,3.23,2.0,5.07,0.94,-0.05,0.23,14,0,21,0.94,6233,14,86,33,36,935,341.0,405,461,60,118.0,119,1,301,190,43,0,0,333,4838,3346,341,,,,,,,,,,,,
353923,1560691625737,-2,2.1,2.21,3.14,1.96,5.07,0.93,0.04,0.17,11,1,20,0.93,6264,14,86,33,36,934,340.0,431,465,60,118.0,119,1,301,190,43,0,0,334,3327,13,333,,,,,,,,,,,,
353943,1560691625757,-1,2.04,2.29,3.09,1.92,5.05,1.04,-0.01,0.2,7,-1,17,1.04,6247,14,86,33,36,930,342.0,450,464,60,117.0,132,1,301,190,44,0,0,336,-122,165,329,45.701355,4.910728,34.46,197.2,3,1.675,0,0.0,0.1667,4,0.17,5.899
353963,1560691625777,1,1.97,2.35,3.05,1.9,5.08,1.07,-0.1,0.3,3,-3,13,1.07,6212,14,86,33,36,926,343.0,443,455,60,119.0,132,1,301,190,44,0,0,340,-14714,-27136,323,,,,,,,,,,,,
353983,1560691625795,2,1.91,2.4,2.99,1.87,5.05,1.02,-0.06,0.35,0,-2,10,1.02,6208,14,86,33,37,924,344.0,440,454,60,119.0,132,1,304,196,44,0,0,342,-10554,-27136,320,,,,,,,,,,,,
354003,1560691625815,3,1.86,2.45,3.0,1.84,5.05,0.91,0.1,0.37,-2,0,5,0.91,6181,14,86,33,37,921,347.0,441,448,60,119.0,132,1,304,196,44,0,0,343,8841,-30976,317,,,,,,,,,,,,
354023,1560691625835,4,1.8,2.48,2.99,1.83,5.04,0.8,0.28,0.36,-5,3,2,0.85,6153,14,86,33,37,915,345.0,444,456,60,119.0,132,1,304,196,44,0,0,342,6870,32000,312,,,,,,,,,,,,
354043,1560691625855,4,1.74,2.5,3.0,1.81,5.07,0.72,0.45,0.28,-7,4,-1,0.85,6119,14,86,33,38,907,344.0,444,459,60,119.0,144,1,307,202,45,0,0,339,-10554,30720,310,45.701359,4.910736,33.72,197.2,3,1.675,0,0.0,0.1683,4,0.17,5.9007
354063,1560691625875,5,1.7,2.52,2.99,1.8,5.05,0.69,0.6,0.22,-10,5,-4,0.91,6093,14,86,33,38,902,342.0,444,462,60,118.0,144,1,307,202,45,0,0,343,-31206,26880,305,,,,,,,,,,,,
354083,1560691625897,5,1.65,2.52,3.02,1.8,5.07,0.7,0.69,0.17,-12,5,-7,0.98,6046,14,86,33,39,898,342.0,446,461,60,118.0,144,1,310,202,45,0,0,341,-31206,105,303,,,,,,,,,,,,
354103,1560691625917,2,1.61,2.51,3.06,1.79,5.05,0.74,0.76,0.2,-15,6,-10,1.06,5994,14,86,33,39,892,342.0,440,459,60,119.0,144,1,309,207,45,0,0,340,-31206,100,300,,,,,,,,,,,,
354123,1560691625937,2,1.59,2.51,3.07,1.78,5.06,0.67,0.86,0.21,-17,7,-12,1.09,5948,14,86,33,40,886,337.0,438,460,60,118.0,144,1,315,208,45,0,0,340,2560,90,297,,,,,,,,,,,,
354143,1560691625957,3,1.55,2.51,3.03,1.77,5.03,0.67,0.9,0.19,-19,9,-15,1.12,5912,15,86,33,40,883,341.0,440,461,60,118.0,154,1,314,208,46,0,0,340,6668,20480,294,45.701366,4.910744,32.54,197.3,3,1.675,0,0.0,0.17,4,0.17,5.9024
354163,1560691625977,3,1.56,2.5,2.99,1.75,5.04,0.63,0.95,0.13,-21,10,-17,1.14,5877,15,86,33,41,880,338.0,425,457,60,119.0,154,1,319,209,46,0,0,341,-31222,0,292,,,,,,,,,,,,
354183,1560691625997,1,1.56,2.5,2.98,1.73,5.04,0.54,1.02,0.12,-21,11,-20,1.15,5850,15,86,33,41,877,337.0,427,454,60,119.0,154,1,318,209,46,0,0,341,2560,-16896,288,,,,,,,,,,,,
354203,1560691626007,1,1.56,2.49,2.98,1.69,5.08,0.46,1.11,0.14,-21,9,-23,1.2,5795,15,86,33,42,873,335.0,422,455,60,119.0,154,1,322,210,46,0,0,337,3346,24064,284,,,,,,,,,,,,
354223,1560691626027,-2,1.57,2.48,2.98,1.67,5.05,0.5,1.19,0.18,-24,5,-26,1.29,5721,15,86,33,42,871,335.0,425,456,60,119.0,154,1,320,210,46,0,0,334,3346,250,283,,,,,,,,,,,,
354243,1560691626047,5,1.56,2.49,2.99,1.67,5.06,0.65,1.12,0.23,-28,3,-30,1.3,5676,15,86,33,43,872,336.0,421,458,60,117.0,159,1,324,212,45,0,0,335,13,30208,281,45.701374,4.91075,31.21,197.3,3,1.675,0,0.0,0.1717,4,0.17,5.904
354263,1560691626067,1,1.56,2.49,3.01,1.67,5.04,0.66,1.03,0.26,-31,4,-34,1.23,5590,15,86,33,44,872,335.0,407,468,60,118.0,159,1,325,213,45,0,0,332,4838,250,281,,,,,,,,,,,,
354283,1560691626097,0,1.56,2.49,3.03,1.67,5.05,0.61,1.05,0.26,-31,4,-37,1.21,5552,15,86,33,45,870,334.0,403,461,60,120.0,159,1,327,214,45,0,0,332,4838,250,278,,,,,,,,,,,,
354303,1560691626117,4,1.56,2.48,3.04,1.67,5.08,0.75,1.1,0.26,-33,2,-40,1.33,5482,15,86,33,46,870,329.0,408,457,60,118.0,159,1,327,216,45,0,0,328,4838,-1,276,,,,,,,,,,,,
354323,1560691626137,2,1.57,2.49,3.01,1.67,5.06,0.8,1.03,0.23,-36,2,-43,1.31,5487,15,86,33,47,870,333.0,405,460,60,118.0,159,1,331,218,45,0,0,327,-6528,-1,275,,,,,,,,,,,,
354343,1560691626157,-1,1.6,2.49,2.99,1.65,5.05,0.77,1.13,0.22,-36,0,-45,1.37,5498,15,86,33,48,869,329.0,400,461,60,119.0,164,1,333,218,45,0,0,324,-20736,-1,271,45.701378,4.910755,30.11,197.4,3,1.675,0,0.0,0.1733,4,0.17,5.9057
354363,1560691626177,3,1.62,2.49,2.99,1.64,5.04,0.89,1.13,0.29,-38,-2,-48,1.44,5496,15,86,33,48,867,329.0,408,462,60,117.0,164,1,333,222,45,0,0,328,-20736,506,269,,,,,,,,,,,,
354383,1560691626197,2,1.66,2.48,2.98,1.63,5.05,0.87,1.06,0.29,-40,-0,-51,1.37,5476,15,86,33,49,865,330.0,397,463,60,118.0,164,1,333,226,45,0,0,322,175,506,267,,,,,,,,,,,,
354403,1560691626217,1,1.71,2.48,2.98,1.63,5.04,0.81,1.07,0.31,-39,1,-52,1.34,5448,15,86,33,49,865,330.0,399,456,60,120.0,164,1,331,226,45,0,0,322,175,-1,266,,,,,,,,,,,,
354423,1560691626237,2,1.78,2.49,2.98,1.63,5.06,0.93,1.03,0.36,-41,-0,-54,1.39,5442,15,86,33,50,865,331.0,405,457,60,118.0,164,1,332,230,45,0,0,323,-12032,14337,265,,,,,,,,,,,,
354443,1560691626257,0,1.85,2.48,2.99,1.65,5.04,0.86,0.92,0.38,-41,2,-56,1.26,5411,15,86,33,51,864,330.0,396,457,60,119.0,181,1,330,234,48,0,0,320,175,-214,264,45.701386,4.910758,27.29,197.5,3,1.675,0,0.0,0.175,4,0.17,5.9074
354463,1560691626277,1,1.91,2.48,3.03,1.68,5.05,0.86,0.94,0.38,-40,-1,-56,1.27,5391,15,86,33,51,863,328.0,401,458,60,119.0,181,1,328,233,48,0,0,320,170,-1,265,,,,,,,,,,,,
354483,1560691626297,1,1.97,2.47,3.09,1.74,5.06,0.88,0.84,0.42,-41,2,-57,1.22,5366,15,86,33,52,864,323.0,385,462,60,118.0,181,1,327,237,48,0,0,315,-24576,-1281,264,,,,,,,,,,,,
354503,1560691626317,1,2.02,2.44,3.12,1.83,5.04,0.77,0.78,0.42,-37,3,-56,1.09,5378,15,86,33,52,863,319.0,387,460,60,120.0,181,1,328,237,48,0,0,311,-27136,-10440,268,,,,,,,,,,,,
354523,1560691626337,3,2.08,2.43,3.12,1.89,5.05,0.89,0.83,0.41,-38,1,-54,1.22,5367,16,86,33,53,863,314.0,393,457,60,117.0,181,1,328,241,48,0,0,308,135,-1,270,,,,,,,,,,,,
354543,1560691626357,0,2.13,2.39,3.12,1.93,5.07,0.75,0.69,0.43,-36,2,-52,1.01,5381,16,86,33,54,863,307.0,387,458,60,119.0,181,1,330,241,49,0,0,305,30720,-1,272,45.701393,4.910761,28.06,197.5,3,1.675,0,0.0,0.1767,4,0.17,5.909
354563,1560691626377,5,2.18,2.37,3.13,1.97,5.04,0.83,0.62,0.48,-32,-1,-48,1.04,5387,16,86,33,54,862,303.0,387,458,60,119.0,181,1,331,245,49,0,0,302,28160,2414,274,,,,,,,,,,,,
354583,1560691626397,1,2.24,2.3,3.14,2.02,5.06,0.81,0.51,0.49,-31,3,-46,0.95,5383,16,86,33,54,862,299.0,381,458,60,119.0,181,1,330,245,49,0,0,296,25600,30208,278,,,,,,,,,,,,
354603,1560691626417,0,2.32,2.24,3.22,2.05,5.07,0.7,0.47,0.51,-25,1,-42,0.84,5412,17,86,33,54,858,295.0,387,447,60,119.0,181,1,333,246,49,0,0,292,21760,630,280,,,,,,,,,,,,
354623,1560691626437,3,2.38,2.19,3.28,2.1,5.04,0.83,0.34,0.59,-24,-1,-38,0.9,5430,18,86,34,55,856,288.0,393,473,60,118.0,181,1,333,248,49,0,0,289,0,-16896,284,,,,,,,,,,,,
354643,1560691626457,-1,2.46,2.16,3.33,2.15,5.07,0.73,0.23,0.58,-20,1,-35,0.76,5448,19,86,34,57,854,286.0,389,463,60,119.0,179,1,336,250,51,0,0,285,-16896,10686,286,45.701401,4.910762,28.43,197.5,3,1.675,0,0.0,0.1783,4,0.17,5.9107
354663,1560691626477,1,2.52,2.13,3.38,2.22,5.03,0.68,0.13,0.56,-14,-1,-30,0.69,5488,20,86,34,57,850,290.0,392,451,60,119.0,179,1,339,252,51,0,0,282,24064,41,290,,,,,,,,,,,,
354683,1560691626497,3,2.59,2.1,3.47,2.24,5.08,0.79,0.05,0.55,-12,-1,-25,0.8,5479,21,86,34,58,851,292.0,392,461,60,117.0,179,1,341,253,51,0,0,275,250,0,294,,,,,,,,,,,,
354703,1560691626517,0,2.65,2.09,3.56,2.29,5.08,0.73,-0.03,0.55,-9,0,-20,0.73,5568,22,86,34,60,850,295.0,393,466,60,119.0,179,1,345,254,51,0,0,271,28160,23040,295,,,,,,,,,,,,
354723,1560691626537,1,2.72,2.07,3.58,2.33,5.04,0.64,-0.15,0.57,-3,-2,-15,0.66,5664,24,86,34,60,851,298.0,398,462,60,119.0,179,1,353,254,51,0,0,267,-1,85,298,,,,,,,,,,,,
354743,1560691626557,0,2.77,2.06,3.61,2.32,5.05,0.67,-0.22,0.57,1,-4,-12,0.71,5785,26,86,34,61,853,299.0,407,452,60,119.0,180,1,362,253,54,0,0,263,-1,85,299,45.701405,4.910762,28.28,197.4,3,1.675,0,0.0,0.18,4,0.17,5.9124
354763,1560691626577,-0,2.82,2.06,3.65,2.35,5.04,0.81,-0.33,0.6,3,-7,-8,0.87,5912,27,86,34,61,856,300.0,413,455,60,119.0,180,1,373,258,54,0,0,265,-1,90,300,,,,,,,,,,,,
354783,1560691626596,0,2.87,2.05,3.66,2.38,5.03,0.93,-0.4,0.63,4,-8,-3,1.01,5942,29,86,34,62,861,301.0,425,453,60,118.0,180,1,373,258,54,0,0,281,-1,26880,301,,,,,,,,,,,,
354803,1560691626616,1,2.91,2.06,3.66,2.39,5.06,1.04,-0.44,0.67,4,-9,1,1.13,5821,30,86,34,62,863,301.0,418,456,60,118.0,180,1,362,260,54,0,0,324,-10440,110,301,,,,,,,,,,,,
354823,1560691626636,4,0.32,2.06,3.63,2.39,5.07,1.13,-0.46,0.65,4,-8,5,1.22,5792,31,86,34,63,865,302.0,407,458,60,117.0,180,1,355,269,54,0,0,348,14337,105,302,,,,,,,,,,,,
354843,1560691626656,2,0.34,2.06,3.63,2.39,5.06,0.98,-0.53,0.62,6,-6,8,1.12,5772,31,86,34,65,874,302.0,400,463,60,119.0,198,1,350,285,60,0,0,297,-1281,115,302,45.701416,4.910763,27.56,197.5,3,1.675,0,0.0,0.1817,4,0.17,5.9141
354863,1560691626676,0,0.33,2.06,3.63,2.39,5.07,0.8,-0.64,0.62,11,-4,11,1.02,5781,31,86,34,65,881,303.0,398,462,60,119.0,198,1,350,285,60,0,0,283,506,30720,303,,,,,,,,,,,,
354883,1560691626696,1,2.93,2.05,3.63,2.39,5.08,0.75,-0.66,0.64,17,-7,15,1.0,5688,32,86,34,66,886,305.0,398,458,60,119.0,198,1,340,294,60,0,0,296,-10440,30720,305,,,,,,,,,,,,
354903,1560691626716,0,2.9,2.04,3.62,2.39,5.08,0.87,-0.71,0.7,19,-8,21,1.13,5582,33,86,34,68,891,308.0,397,461,60,118.0,198,1,327,312,60,0,0,395,14337,30720,308,,,,,,,,,,,,
354923,1560691626736,2,2.86,2.03,3.64,2.37,5.06,0.97,-0.68,0.68,19,-5,24,1.19,5674,36,86,34,69,916,310.0,389,464,60,117.0,198,1,333,323,60,0,0,395,-1,115,311,,,,,,,,,,,,
354943,1560691626756,2,2.8,2.02,3.63,2.38,5.04,0.87,-0.74,0.66,21,-3,27,1.14,5725,40,86,34,71,946,312.0,391,460,60,119.0,231,1,334,349,72,0,0,395,-1,125,312,45.70142,4.910764,26.67,197.5,3,1.675,0,0.0,0.1833,4,0.17,5.9157
354963,1560691626776,1,2.74,2.01,3.65,2.37,5.05,0.63,-0.78,0.64,26,-1,30,1.0,5730,43,86,34,73,971,315.0,398,460,60,119.0,231,1,333,375,72,0,0,42,-1,135,315,,,,,,,,,,,,
354983,1560691626796,-1,2.68,2.01,3.62,2.38,5.06,0.51,-0.77,0.68,30,-3,33,0.93,5762,46,86,34,75,995,317.0,400,452,60,119.0,231,1,333,402,72,0,0,320,-1,135,317,,,,,,,,,,,,
355003,1560691626816,1,2.64,2.04,3.58,2.39,5.04,0.57,-0.72,0.75,30,-5,35,0.91,5890,48,86,34,77,1029,316.0,403,456,60,119.0,231,1,340,433,72,0,0,309,-1,32000,316,,,,,,,,,,,,
355023,1560691626836,-1,2.6,2.1,3.52,2.38,5.05,0.71,-0.69,0.84,29,-8,35,0.99,6058,48,86,34,78,1068,316.0,412,460,60,119.0,231,1,348,447,72,0,0,299,-1,130,315,,,,,,,,,,,,
355043,1560691626856,2,2.56,2.18,3.45,2.38,5.05,0.73,-0.66,0.89,29,-10,36,0.98,6153,49,86,34,79,1093,315.0,422,460,60,119.0,326,1,351,455,103,0,0,309,-1281,-28416,315,45.701427,4.910767,26.99,197.5,3,1.675,0,0.0,0.185,4,0.18,5.9174
355063,1560691626876,4,2.52,2.26,3.35,2.4,5.05,0.61,-0.66,0.94,29,-8,36,0.9,6177,49,86,34,79,1105,315.0,422,457,60,119.0,326,1,352,455,103,0,0,334,250,-28416,316,,,,,,,,,,,,
355083,1560691626896,4,2.48,2.33,3.28,2.41,5.05,0.48,-0.65,0.99,30,-6,36,0.81,6143,49,86,34,80,1118,316.0,421,456,60,119.0,326,1,350,460,103,0,0,336,250,-27136,316,,,,,,,,,,,,
355103,1560691626916,2,2.44,2.37,3.18,2.42,5.07,0.33,-0.59,1.03,30,-3,36,0.67,6065,49,86,34,80,1132,318.0,418,458,60,118.0,326,1,348,459,103,0,0,307,-16896,-23296,318,,,,,,,,,,,,
355123,1560691626936,1,2.39,2.4,3.09,2.39,5.06,0.19,-0.46,1.05,30,-1,34,0.5,5978,49,86,34,80,1139,320.0,412,457,60,118.0,326,1,344,457,103,0,0,305,20480,165,320,,,,,,,,,,,,
355143,1560691626956,4,2.33,2.45,3.04,2.38,5.04,0.08,-0.42,1.05,29,0,32,0.43,5881,49,86,34,81,1138,323.0,407,456,60,119.0,321,1,337,459,103,0,0,313,105,-20736,323,45.701435,4.91077,28.04,197.5,3,1.675,0,0.0,0.1867,4,0.18,5.9191
355163,1560691626976,2,2.3,2.49,3.04,2.37,5.04,-0.03,-0.33,1.1,29,1,30,0.33,5846,49,86,34,81,1135,321.0,405,452,60,119.0,321,1,335,458,103,0,0,322,120,165,321,,,,,,,,,,,,
355183,1560691626996,1,2.25,2.5,3.04,2.35,5.07,-0.09,-0.2,1.11,28,1,27,0.21,5911,49,86,34,81,1129,320.0,402,456,60,119.0,321,1,339,460,103,0,0,322,-29696,-23296,320,,,,,,,,,,,,
355203,1560691627010,2,2.2,2.52,3.05,2.33,5.06,-0.06,-0.12,1.14,25,-1,25,0.13,6040,49,86,34,81,1124,320.0,410,460,60,118.0,321,1,346,464,103,0,0,332,-27136,160,320,,,,,,,,,,,,
355223,1560691627030,4,2.18,2.51,3.05,2.3,5.07,-0.05,-0.02,1.17,22,-2,22,0.06,6212,49,86,34,81,1118,324.0,417,457,60,119.0,321,1,352,468,103,0,0,336,165,165,320,,,,,,,,,,,,
355243,1560691627050,-1,2.16,2.52,3.04,2.28,5.05,-0.1,0.03,1.05,20,-0,19,0.11,6321,50,86,34,81,1112,331.0,428,457,60,118.0,346,1,356,469,111,0,0,340,-12032,175,322,45.701439,4.910776,28.85,197.5,3,1.675,0,0.0,0.1883,4,0.18,5.9207
355263,1560691627070,2,2.14,2.54,3.04,2.27,5.04,0.01,0.02,1.03,16,0,15,0.02,6412,51,86,34,81,1108,335.0,435,455,60,118.0,346,1,359,470,111,0,0,344,13,-122,323,,,,,,,,,,,,
355283,1560691627096,2,2.13,2.55,3.04,2.25,5.07,0.11,0.05,1.05,13,-2,13,0.12,6445,53,86,34,82,1103,339.0,446,456,60,118.0,346,1,359,476,111,0,0,349,-122,-14714,327,,,,,,,,,,,,
355303,1560691627116,1,2.12,2.55,3.0,2.24,5.03,0.11,0.13,1.03,11,-2,10,0.17,6510,54,86,34,82,1103,344.0,442,460,60,119.0,346,1,361,478,111,0,0,350,-10554,6870,329,,,,,,,,,,,,
355323,1560691627136,2,2.11,2.56,2.96,2.23,5.08,0.15,0.17,0.98,9,0,7,0.22,6546,54,86,34,83,1101,348.0,447,457,60,117.0,346,1,362,486,111,0,0,354,2811,-30454,332,,,,,,,,,,,,
355343,1560691627156,3,2.11,2.57,2.94,2.23,5.05,0.26,0.2,0.99,6,-1,5,0.32,6597,55,86,34,83,1090,353.0,451,451,60,119.0,364,1,363,486,121,0,0,355,-6644,-30454,333,45.701447,4.910781,30.75,197.6,3,1.675,0,0.0,0.19,4,0.18,5.9224
355363,1560691627176,0,2.11,2.57,2.95,2.22,5.05,0.26,0.23,0.98,4,-1,3,0.35,6703,55,86,34,83,1079,356.0,462,460,60,117.0,364,1,367,488,121,0,0,357,4104,3183,336,,,,,,,,,,,,
355383,1560691627196,5,2.1,2.56,2.96,2.21,5.03,0.34,0.28,0.97,1,-2,1,0.43,6791,55,86,34,83,1067,361.0,466,457,60,119.0,364,1,370,490,121,0,0,364,-6458,-6640,339,,,,,,,,,,,,
355403,1560691627216,3,2.09,2.57,2.96,2.2,5.05,0.37,0.26,1.0,-0,-2,-0,0.45,6873,55,86,34,83,1057,363.0,475,456,60,117.0,364,1,373,492,121,0,0,369,-6405,-1268,342,,,,,,,,,,,,
355423,1560691627236,1,2.09,2.58,2.96,2.19,5.04,0.36,0.35,0.95,-2,0,-2,0.5,6957,55,86,34,83,1051,367.0,477,460,60,118.0,364,1,376,494,121,0,0,374,-6656,486,345,,,,,,,,,,,,
355443,1560691627256,5,2.09,2.6,2.96,2.18,5.05,0.49,0.3,1.05,-4,-2,-5,0.57,7091,56,86,34,83,1045,371.0,488,456,60,117.0,379,1,383,495,131,0,0,376,257,742,348,45.701454,4.910786,31.77,197.6,3,1.675,0,0.0,0.1917,4,0.18,5.924
355463,1560691627276,2,2.09,2.61,2.95,2.2,5.04,0.55,0.24,1.09,-5,-1,-8,0.6,7159,56,86,34,83,1049,375.0,486,461,60,118.0,379,1,387,496,131,0,0,379,770,8200,352,,,,,,,,,,,,
355483,1560691627296,1,2.08,2.61,2.95,2.2,5.04,0.42,0.26,1.06,-6,-0,-9,0.5,7219,56,86,34,83,1049,379.0,493,458,60,118.0,379,1,393,489,131,0,0,386,8200,-6475,356,,,,,,,,,,,,
355503,1560691627316,2,2.08,2.61,2.95,2.2,5.08,0.31,0.33,0.95,-6,1,-9,0.45,7329,57,86,34,81,1034,382.0,493,454,60,119.0,379,1,398,482,131,0,0,387,19125,17144,360,,,,,,,,,,,,
355523,1560691627336,3,2.08,2.62,2.95,2.2,5.07,0.35,0.41,0.91,-7,2,-9,0.54,7393,57,86,34,81,1019,386.0,498,457,60,118.0,379,1,402,482,131,0,0,393,-3866,-8151,363,,,,,,,,,,,,
355543,1560691627356,4,2.08,2.61,2.93,2.19,5.07,0.38,0.5,0.83,-9,2,-10,0.63,7503,57,86,34,81,1000,392.0,506,460,60,118.0,374,1,408,484,136,0,0,399,1,28696,366,45.701462,4.910791,33.24,197.6,3,1.675,0,0.0,0.1933,4,0.18,5.9257
355563,1560691627376,4,2.07,2.62,2.92,2.2,5.04,0.33,0.49,0.82,-10,2,-12,0.59,7539,57,86,34,80,981,396.0,506,455,60,118.0,374,1,410,476,136,0,0,404,-32702,17144,368,,,,,,,,,,,,
355583,1560691627396,4,2.08,2.62,2.92,2.2,5.04,0.27,0.55,0.74,-11,2,-12,0.61,7603,57,86,34,80,941,401.0,516,458,60,118.0,374,1,414,470,136,0,0,408,11545,-9211,373,,,,,,,,,,,,
355603,1560691627416,4,2.08,2.63,2.9,2.2,5.04,0.22,0.56,0.74,-11,2,-13,0.6,7656,57,86,34,79,900,402.0,511,454,60,119.0,374,1,418,470,136,0,0,413,10541,-9166,378,,,,,,,,,,,,
355623,1560691627436,-0,2.08,2.65,2.91,2.2,5.04,0.15,0.59,0.83,-11,2,-14,0.6,7767,58,86,34,79,877,407.0,520,461,60,117.0,374,1,424,470,136,0,0,416,-26615,-21792,381,,,,,,,,,,,,
355643,1560691627456,-0,2.08,2.65,2.91,2.19,5.06,0.22,0.7,0.82,-13,4,-15,0.73,7921,58,86,34,79,856,412.0,532,461,60,117.0,364,1,433,471,139,0,0,419,13040,-4082,386,45.701469,4.910796,34.92,197.6,3,1.675,0,0.0,0.195,4,0.18,5.9274
355663,1560691627476,4,2.07,2.65,2.91,2.2,5.07,0.31,0.77,0.82,-14,4,-15,0.83,8023,58,86,34,77,825,416.0,540,456,60,118.0,364,1,438,454,139,0,0,425,18584,3635,390,,,,,,,,,,,,
355683,1560691627496,1,2.07,2.65,2.9,2.2,5.04,0.35,0.73,0.93,-14,4,-17,0.81,8155,58,86,34,75,794,421.0,548,458,60,117.0,364,1,437,439,139,0,0,431,-21792,19477,392,,,,,,,,,,,,
355703,1560691627516,4,2.08,2.65,2.9,2.19,5.08,0.36,0.75,0.88,-15,5,-18,0.83,8289,58,86,34,73,779,426.0,556,464,60,118.0,364,1,435,421,139,0,0,434,13552,-18341,397,,,,,,,,,,,,
355723,1560691627536,2,2.08,2.68,2.89,2.2,5.05,0.35,0.73,0.99,-16,5,-19,0.81,8396,59,86,34,72,770,430.0,561,452,60,117.0,364,1,433,404,139,0,0,440,-3322,21432,400,,,,,,,,,,,,
355743,1560691627556,4,2.08,2.71,2.87,2.21,5.04,0.39,0.71,0.92,-17,3,-21,0.81,8404,59,86,34,71,764,436.0,560,456,60,118.0,325,1,434,405,131,0,0,445,5600,2524,404,45.701477,4.9108,36.86,197.7,3,1.675,0,0.0,0.1967,4,0.18,5.929
355763,1560691627576,2,2.08,2.72,2.87,2.22,5.05,0.36,0.64,0.9,-17,4,-22,0.74,8442,59,86,33,70,760,441.0,562,462,60,118.0,325,1,434,396,131,0,0,454,26704,6193,409,,,,,,,,,,,,
355783,1560691627595,2,2.08,2.72,2.87,2.22,5.06,0.45,0.65,1.01,-18,1,-22,0.79,8495,60,86,33,69,762,445.0,565,454,60,117.0,325,1,433,388,131,0,0,457,2131,-23623,414,,,,,,,,,,,,
355803,1560691627615,1,2.08,2.72,2.86,2.21,5.07,0.47,0.63,1.01,-18,2,-22,0.79,8593,60,86,33,69,767,449.0,571,456,60,118.0,325,1,429,388,131,0,0,458,15649,-18108,420,,,,,,,,,,,,
355823,1560691627635,6,2.08,2.72,2.86,2.2,5.04,0.41,0.72,0.88,-18,3,-22,0.83,8676,61,87,33,69,790,456.0,580,461,60,118.0,325,1,426,388,131,0,0,466,14488,3576,423,,,,,,,,,,,,
355843,1560691627655,3,2.09,2.72,2.84,2.19,5.07,0.36,0.7,0.95,-18,3,-23,0.79,8765,61,87,33,69,820,460.0,574,445,60,117.0,292,1,422,388,124,0,0,467,-23623,243,426,45.701488,4.910803,39.23,197.7,3,1.675,0,0.0,0.1983,4,0.18,5.9307
355863,1560691627675,4,2.09,2.71,2.85,2.19,5.03,0.38,0.54,0.97,-18,3,-25,0.66,8852,61,87,33,68,847,463.0,582,456,60,117.0,292,1,419,379,124,0,0,475,6193,3576,432,,,,,,,,,,,,
355883,1560691627695,5,2.09,2.71,2.87,2.19,5.07,0.47,0.43,1.04,-19,3,-26,0.64,8928,62,87,33,68,872,467.0,593,451,60,117.0,292,1,416,379,124,0,0,479,243,16648,435,,,,,,,,,,,,
355903,1560691627715,4,2.09,2.71,2.87,2.18,5.08,0.58,0.25,1.13,-19,2,-28,0.63,9001,63,87,33,68,904,473.0,600,458,60,117.0,292,1,413,379,124,0,0,483,3576,8488,438,,,,,,,,,,,,
355923,1560691627735,4,2.09,2.72,2.85,2.19,5.04,0.72,0.14,1.21,-20,1,-30,0.73,9049,63,87,33,68,941,475.0,600,461,60,118.0,292,1,413,388,124,0,0,485,2212,505,443,,,,,,,,,,,,
355943,1560691627755,2,2.1,2.72,2.84,2.19,5.04,0.82,-0.02,1.29,-20,2,-29,0.82,9155,64,87,33,68,965,478.0,609,461,60,118.0,293,1,413,379,130,0,0,493,8488,-899,449,45.7015,4.910807,41.5,197.7,3,1.675,0,0.0,0.2,4,0.18,5.9324
355963,1560691627775,4,2.11,2.72,2.84,2.18,5.08,0.78,-0.12,1.3,-20,2,-30,0.79,9164,64,87,33,69,976,485.0,618,456,60,118.0,293,1,413,379,130,0,0,491,-6441,-9216,450,,,,,,,,,,,,
355983,1560691627797,1,2.1,2.71,2.84,2.18,5.08,0.65,-0.1,1.26,-20,3,-31,0.66,9227,64,87,33,69,997,486.0,611,457,60,118.0,293,1,414,388,130,0,0,497,-1562,15661,455,,,,,,,,,,,,
356003,1560691627817,2,2.12,2.71,2.85,2.18,5.05,0.48,0.05,1.09,-19,2,-30,0.49,9365,64,87,33,69,1029,487.0,617,452,60,118.0,293,1,415,379,130,0,0,498,-1818,-9216,458,,,,,,,,,,,,
356023,1560691627837,5,2.12,2.71,2.86,2.17,5.08,0.63,0.18,1.11,-20,0,-30,0.65,9474,64,87,33,68,1056,491.0,618,457,60,117.0,293,1,415,388,130,0,0,505,-6528,-32248,462,,,,,,,,,,,,
356043,1560691627857,-1,2.13,2.71,2.85,2.18,5.06,0.7,0.11,1.19,-20,1,-29,0.71,9537,65,87,33,68,1078,497.0,612,462,60,117.0,295,1,415,386,137,0,0,506,-9216,16383,468,45.701508,4.91081,44.07,197.7,3,1.675,0,0.0,0.2017,4,0.18,5.9341
356063,1560691627877,2,2.13,2.71,2.85,2.19,5.04,0.45,0.28,1.15,-20,2,-28,0.53,9610,65,87,33,68,1100,500.0,614,460,60,118.0,295,1,412,391,137,0,0,517,10408,-3482,472,,,,,,,,,,,,
356083,1560691627897,3,2.13,2.73,2.85,2.22,5.08,0.52,0.19,1.23,-19,1,-28,0.56,9654,65,87,33,67,1123,502.0,615,458,60,118.0,295,1,411,396,137,0,0,510,15661,-3856,472,,,,,,,,,,,,
356103,1560691627917,2,2.14,2.72,2.87,2.21,5.07,0.49,0.34,1.17,-19,1,-25,0.6,9730,65,87,33,67,1141,505.0,620,456,60,118.0,295,1,408,397,137,0,0,526,6274,-28648,477,,,,,,,,,,,,
356123,1560691627937,3,2.16,2.71,2.86,2.2,5.05,0.5,0.31,1.23,-19,-1,-25,0.59,9775,65,87,33,67,1142,509.0,622,457,60,117.0,295,1,407,402,137,0,0,521,10994,6274,483,,,,,,,,,,,,
356143,1560691627957,3,2.16,2.7,2.86,2.2,5.06,0.48,0.48,1.14,-18,0,-23,0.68,9811,65,87,33,67,1141,512.0,641,452,60,118.0,308,1,405,406,150,0,0,527,-14,-28648,488,45.701519,4.910811,46.17,197.7,3,1.675,0,0.0,0.2033,4,0.19,5.9357
356163,1560691627977,1,2.16,2.69,2.86,2.21,5.04,0.54,0.38,1.2,-18,-0,-24,0.66,9868,65,87,33,67,1137,519.0,618,458,60,117.0,308,1,403,407,150,0,0,527,-8187,6274,494,,,,,,,,,,,,
356183,1560691627991,4,2.17,2.69,2.88,2.22,5.04,0.51,0.45,1.16,-18,0,-25,0.68,9946,65,87,33,66,1132,521.0,631,454,60,118.0,308,1,402,412,150,0,0,534,-9212,-22519,499,,,,,,,,,,,,
356203,1560691628011,3,2.17,2.69,2.93,2.22,5.04,0.6,0.44,1.14,-18,-1,-24,0.74,10000,65,87,33,66,1125,522.0,628,465,60,117.0,308,1,399,418,150,0,0,541,10408,6274,501,,,,,,,,,,,,
356223,1560691628031,3,2.16,2.68,2.93,2.2,5.05,0.56,0.45,1.13,-18,-2,-23,0.72,10151,65,87,33,66,1118,526.0,620,460,60,117.0,308,1,413,419,150,0,0,542,-32248,-506,508,,,,,,,,,,,,
356243,1560691628051,1,2.16,2.67,2.9,2.19,5.05,0.58,0.53,1.11,-18,-0,-23,0.78,10190,66,87,33,66,1111,534.0,626,457,60,117.0,318,1,417,423,162,0,0,544,-32248,-22519,511,45.70153,4.910812,47.86,197.7,3,1.675,0,0.0,0.205,4,0.19,5.9374
356263,1560691628071,4,2.18,2.66,2.88,2.2,5.05,0.55,0.49,1.11,-17,-0,-23,0.73,10223,66,87,33,67,1106,537.0,630,458,60,118.0,318,1,418,433,162,0,0,548,-30064,-28648,516,,,,,,,,,,,,
356283,1560691628097,2,2.18,2.66,2.87,2.2,5.06,0.58,0.44,1.13,-17,0,-23,0.73,10330,66,87,33,67,1105,538.0,624,456,60,118.0,318,1,428,436,162,0,0,553,-2934,-3082,521,,,,,,,,,,,,
356303,1560691628117,4,2.16,2.66,2.92,2.19,5.04,0.66,0.42,1.18,-16,0,-23,0.79,10347,67,87,33,67,1104,544.0,632,454,60,118.0,318,1,430,436,162,0,0,562,-506,-2934,522,,,,,,,,,,,,
356323,1560691628137,4,2.17,2.67,2.91,2.19,5.08,0.74,0.49,1.18,-16,1,-23,0.89,10480,67,87,33,68,1102,549.0,633,456,60,117.0,318,1,441,450,162,0,0,562,14504,-2934,528,,,,,,,,,,,,
356343,1560691628157,3,2.17,2.66,2.91,2.2,5.07,0.86,0.55,1.18,-16,-2,-22,1.02,10521,67,87,33,68,1100,551.0,637,457,60,118.0,337,1,443,451,178,0,0,562,6274,-28648,531,45.701542,4.910813,50.07,197.7,3,1.675,0,0.0,0.2067,4,0.19,5.9391
356363,1560691628177,3,2.18,2.67,2.9,2.2,5.06,0.96,0.53,1.26,-17,-3,-21,1.1,10629,67,87,33,68,1100,553.0,636,456,60,118.0,337,1,444,451,178,0,0,568,-9072,-29984,534,,,,,,,,,,,,
356383,1560691628197,-0,2.16,2.68,2.88,2.19,5.05,1.0,0.46,1.33,-16,-3,-22,1.1,10647,67,87,33,68,1099,559.0,631,454,60,118.0,337,1,445,451,178,0,0,571,6273,-3190,537,,,,,,,,,,,,
356403,1560691628217,-1,2.17,2.67,2.88,2.2,5.08,1.09,0.44,1.34,-16,-1,-22,1.18,10599,67,87,33,69,1090,561.0,642,462,60,120.0,337,1,443,456,178,0,0,571,-18032,1,541,,,,,,,,,,,,
356423,1560691628237,-1,2.18,2.66,2.9,2.18,5.05,1.12,0.48,1.29,-16,-3,-21,1.22,10026,67,87,33,71,1082,565.0,647,461,60,120.0,337,1,397,456,178,0,0,571,-30159,-29984,545,,,,,,,,,,,,
356443,1560691628257,-0,2.17,2.62,2.95,2.14,5.04,1.08,0.53,1.17,-16,-3,-22,1.2,9730,68,87,33,73,1075,565.0,627,462,60,119.0,321,1,406,446,175,0,0,566,1780,2104,547,45.701557,4.910812,51.87,197.7,3,1.675,0,0.0,0.2083,4,0.19,5.9407
356463,1560691628277,-0,2.17,2.59,2.99,2.09,5.06,1.08,0.43,1.1,-15,-2,-23,1.16,9556,73,87,33,76,1068,569.0,628,458,60,119.0,321,1,414,449,175,0,0,569,-29984,-9072,546,,,,,,,,,,,,
356483,1560691628297,0,2.17,2.56,3.07,2.05,5.06,0.82,0.59,0.93,-15,-1,-21,1.01,9360,77,87,33,79,1060,570.0,625,463,60,118.0,321,1,416,497,175,0,0,560,-3190,-8962,546,,,,,,,,,,,,
356503,1560691628317,1,2.18,2.55,3.1,2.05,5.04,0.78,0.73,0.78,-16,-3,-18,1.07,9173,80,87,33,82,1052,570.0,610,466,60,117.0,321,1,417,986,175,0,0,569,-29984,14504,547,,,,,,,,,,,,
356523,1560691628337,0,2.18,2.59,3.06,2.04,5.07,0.71,0.79,0.84,-17,-3,-19,1.06,8823,84,87,33,85,1048,570.0,612,447,60,117.0,321,1,422,957,175,0,0,574,-3190,-2934,548,,,,,,,,,,,,
356543,1560691628357,4,2.17,2.66,2.95,2.06,5.07,0.62,0.76,0.8,-18,-2,-20,0.98,8296,85,87,33,86,1045,574.0,581,458,60,118.0,562,1,436,853,307,0,0,596,1760,31988,549,45.701572,4.910811,53.63,197.7,3,1.675,0,0.0,0.21,4,0.19,5.9424
356563,1560691628377,2,2.16,2.71,2.81,2.11,5.03,0.64,0.84,0.79,-17,-0,-21,1.05,8329,86,87,33,86,1113,579.0,556,456,60,118.0,562,1,435,753,307,0,0,597,243,24,550,,,,,,,,,,,,
356583,1560691628397,5,2.16,2.73,2.74,2.13,5.05,0.53,0.89,0.73,-16,0,-19,1.04,8472,86,87,33,86,1184,582.0,561,461,60,118.0,562,1,432,678,307,0,0,600,15649,-12040,556,,,,,,,,,,,,
356603,1560691628417,3,2.17,2.72,2.72,2.15,5.04,0.58,0.79,0.85,-16,1,-19,0.98,8355,87,87,33,87,1256,589.0,572,458,60,118.0,562,1,436,573,307,0,0,615,2048,-7939,560,,,,,,,,,,,,
356623,1560691628437,5,2.16,2.74,2.73,2.19,5.04,0.58,0.82,0.82,-17,0,-18,1.0,8216,87,87,33,87,1327,595.0,550,457,60,118.0,562,1,439,568,307,0,0,620,-16179,3395,571,,,,,,,,,,,,
356643,1560691628457,3,2.17,2.76,2.75,2.25,5.07,0.51,0.64,0.92,-16,-1,-19,0.82,8191,87,87,33,88,1386,598.0,547,457,60,118.0,306,1,441,575,175,0,0,619,4956,3403,570,45.701584,4.910809,53.83,197.7,3,1.675,0,0.0,0.2117,4,0.19,5.944
356663,1560691628477,4,2.17,2.77,2.81,2.27,5.06,0.53,0.74,0.88,-16,-2,-19,0.91,8252,87,87,33,88,1439,598.0,542,463,60,118.0,306,1,440,593,175,0,0,618,-3210,269,573,,,,,,,,,,,,
356683,1560691628497,4,2.17,2.76,2.85,2.26,5.05,0.53,0.76,0.79,-16,-0,-20,0.93,8472,87,87,33,88,1441,604.0,550,460,60,118.0,306,1,434,607,175,0,0,622,5344,19320,580,,,,,,,,,,,,
356703,1560691628517,1,2.18,2.73,2.83,2.25,5.06,0.59,0.61,0.91,-16,-2,-20,0.85,8636,87,87,33,87,1420,610.0,563,452,60,117.0,306,1,429,588,175,0,0,626,-3446,-14655,590,,,,,,,,,,,,
356723,1560691628537,3,2.18,2.71,2.84,2.22,5.06,0.63,0.57,0.96,-17,-2,-17,0.85,8716,88,87,33,86,1357,615.0,569,460,60,118.0,306,1,426,588,175,0,0,639,19304,11776,594,,,,,,,,,,,,
356743,1560691628557,3,2.18,2.71,2.86,2.2,5.07,0.62,0.69,1.05,-17,0,-17,0.93,8806,88,87,33,86,1277,622.0,573,455,60,118.0,326,1,423,588,195,0,0,640,-18357,3543,598,45.701599,4.910805,55.79,197.8,3,1.675,0,0.0,0.2133,4,0.19,5.9457
356763,1560691628577,1,2.19,2.7,2.86,2.2,5.05,0.6,0.82,1.09,-16,-1,-16,1.01,8958,88,87,33,85,1209,627.0,579,465,60,118.0,326,1,419,576,195,0,0,650,20993,-8429,603,,,,,,,,,,,,
356783,1560691628596,-2,2.21,2.71,2.84,2.22,5.05,0.62,0.94,1.14,-16,2,-16,1.12,9036,88,87,33,85,1151,632.0,592,451,60,118.0,326,1,418,576,195,0,0,663,3,-3584,608,,,,,,,,,,,,
356803,1560691628616,1,2.2,2.73,2.77,2.24,5.04,0.55,1.04,1.15,-15,4,-15,1.18,8945,88,87,33,85,1101,634.0,592,460,60,118.0,326,1,420,576,195,0,0,661,-2836,-2830,614,,,,,,,,,,,,
356823,1560691628636,7,2.2,2.73,2.66,2.22,5.04,0.45,1.14,1.02,-15,5,-16,1.23,8886,88,87,33,85,1056,644.0,595,454,60,118.0,326,1,421,576,195,0,0,659,11776,-3038,619,,,,,,,,,,,,
356843,1560691628656,5,2.2,2.74,2.65,2.21,5.04,0.38,1.23,0.97,-14,4,-17,1.28,8844,88,87,33,85,1039,647.0,582,456,60,117.0,311,1,422,576,193,0,0,662,-8429,3543,621,45.701611,4.910801,58.2,197.8,3,1.675,0,0.0,0.215,4,0.2,5.9474
356863,1560691628676,4,2.19,2.71,2.69,2.19,5.08,0.29,1.21,0.87,-13,4,-18,1.24,8937,88,87,33,85,1053,646.0,590,451,60,118.0,311,1,420,576,193,0,0,662,4909,3543,629,,,,,,,,,,,,
356883,1560691628696,6,2.19,2.7,2.82,2.19,5.06,0.16,1.25,0.75,-12,5,-18,1.26,9079,88,87,33,85,1065,653.0,589,452,60,118.0,311,1,418,576,193,0,0,667,-3488,-3578,633,,,,,,,,,,,,
356903,1560691628716,2,2.19,2.69,2.86,2.2,5.08,0.07,1.32,0.67,-12,6,-18,1.33,9241,88,87,33,84,1075,658.0,583,459,60,117.0,311,1,418,566,193,0,0,673,-3038,-2345,641,,,,,,,,,,,,
356923,1560691628736,2,2.2,2.69,2.85,2.19,5.06,0.13,1.39,0.65,-11,8,-16,1.4,9346,88,87,33,84,1080,661.0,605,463,60,118.0,311,1,418,566,193,0,0,681,-2345,-3584,645,,,,,,,,,,,,
356943,1560691628756,2,2.19,2.69,2.84,2.2,5.06,0.32,1.13,0.76,-13,4,-16,1.18,9431,88,87,33,84,1077,666.0,600,454,60,118.0,311,1,418,566,201,0,0,687,1549,-3584,647,45.701626,4.910796,60.26,197.8,3,1.675,0,0.0,0.2167,4,0.2,5.949
356963,1560691628776,4,2.2,2.69,2.78,2.2,5.07,0.27,1.04,0.76,-13,5,-17,1.08,9484,88,87,33,84,1073,671.0,604,456,60,117.0,311,1,418,566,201,0,0,698,-3038,8010,654,,,,,,,,,,,,
356983,1560691628796,3,2.18,2.7,2.76,2.21,5.06,0.22,1.14,0.74,-12,7,-15,1.16,9498,88,87,33,84,1069,677.0,605,452,60,118.0,311,1,418,566,201,0,0,700,-26892,-20693,655,,,,,,,,,,,,
357003,1560691628816,5,2.19,2.74,2.76,2.23,5.04,0.35,0.94,0.87,-12,6,-16,1.01,9484,88,87,33,84,1065,683.0,611,465,60,117.0,311,1,418,566,201,0,0,706,3543,-30694,659,,,,,,,,,,,,
357023,1560691628836,-0,2.19,2.72,2.77,2.21,5.05,0.24,0.93,0.87,-12,6,-17,0.96,9585,88,87,33,84,1063,685.0,615,456,60,117.0,311,1,415,554,201,0,0,709,-10399,6658,664,,,,,,,,,,,,
357043,1560691628856,4,2.18,2.71,2.76,2.18,5.05,0.3,0.99,0.83,-13,5,-17,1.04,9650,88,87,33,84,1059,692.0,612,453,60,118.0,307,1,412,565,205,0,0,710,12333,24,672,45.701641,4.91079,62.93,197.7,3,1.675,0,0.0,0.2183,4,0.2,5.9507
357063,1560691628876,5,2.19,2.72,2.76,2.18,5.08,0.41,0.86,0.9,-14,5,-18,0.96,9709,88,87,33,83,1044,696.0,611,455,60,117.0,307,1,410,551,205,0,0,716,6208,1524,673,,,,,,,,,,,,
357083,1560691628896,3,2.19,2.73,2.8,2.19,5.08,0.31,0.89,0.93,-13,5,-18,0.95,9740,88,87,33,83,1031,700.0,625,451,60,118.0,307,1,407,551,205,0,0,722,-2830,-2830,676,,,,,,,,,,,,
357103,1560691628916,0,2.18,2.73,2.79,2.19,5.05,0.35,0.74,1.01,-13,4,-19,0.82,9889,88,87,33,83,1018,704.0,615,462,60,117.0,307,1,401,548,205,0,0,730,19188,3462,680,,,,,,,,,,,,
357123,1560691628936,5,2.17,2.72,2.74,2.18,5.06,0.41,0.72,1.0,-13,3,-19,0.83,10010,88,87,33,83,1006,707.0,621,452,60,118.0,307,1,395,537,205,0,0,720,6658,-3450,687,,,,,,,,,,,,
357143,1560691628956,3,2.17,2.72,2.72,2.16,5.05,0.31,0.85,0.94,-14,4,-17,0.9,9962,88,87,33,83,999,714.0,618,452,60,118.0,300,1,397,546,207,0,0,740,-23490,-2314,692,45.701656,4.910783,65.27,197.8,3,1.675,0,0.0,0.22,4,0.2,5.9524
357163,1560691628976,0,2.18,2.72,2.73,2.16,5.04,0.38,0.78,1.01,-14,6,-18,0.87,10010,82,87,33,81,991,719.0,615,463,60,117.0,300,1,396,537,207,0,0,742,-3450,-4096,695,,,,,,,,,,,,
357183,1560691628996,5,2.16,2.73,2.74,2.13,5.05,0.42,0.76,0.99,-14,4,-18,0.87,10102,77,87,33,79,996,724.0,617,458,60,118.0,300,1,403,513,207,0,0,748,-3344,136,695,,,,,,,,,,,,
357203,1560691629010,4,2.17,2.75,2.74,2.14,5.04,0.36,0.85,0.97,-14,6,-18,0.92,10118,77,87,33,77,1000,730.0,630,457,60,117.0,300,1,404,497,207,0,0,745,-2358,1037,697,,,,,,,,,,,,
357223,1560691629030,2,2.16,2.76,2.71,2.12,5.07,0.47,0.86,1.03,-15,6,-18,0.98,10157,76,87,33,76,1003,735.0,630,456,60,117.0,300,1,406,490,207,0,0,753,3462,-3344,701,,,,,,,,,,,,
357243,1560691629050,3,2.17,2.73,2.71,2.07,5.08,0.5,0.82,1.01,-15,6,-17,0.96,10146,76,87,33,76,1007,737.0,636,460,60,117.0,267,1,406,490,188,0,0,749,-2830,136,705,45.701672,4.910775,67.17,197.8,3,1.675,0,0.0,0.2217,4,0.2,5.9541
357263,1560691629070,1,2.17,2.72,2.66,2.03,5.08,0.48,0.77,1.03,-15,6,-17,0.91,10168,76,87,33,75,1005,744.0,623,461,60,117.0,267,1,411,490,188,0,0,759,-22796,-2344,715,,,,,,,,,,,,
357283,1560691629096,3,2.16,2.74,2.69,2.04,5.06,0.39,0.82,1.06,-15,6,-17,0.91,10302,76,87,33,75,1004,745.0,623,456,60,117.0,267,1,418,484,188,0,0,758,6790,-22795,715,,,,,,,,,,,,
357303,1560691629116,5,2.16,2.78,2.7,2.17,5.03,0.29,0.73,1.06,-15,6,-18,0.78,10387,76,87,33,75,1000,745.0,633,460,60,117.0,267,1,425,484,188,0,0,764,-31066,6389,714,,,,,,,,,,,,
357323,1560691629136,5,2.15,2.8,2.7,2.24,5.06,0.34,0.63,1.16,-14,2,-18,0.72,10480,76,87,33,75,997,740.0,628,456,60,118.0,267,1,431,484,188,0,0,764,-2356,-3038,716,,,,,,,,,,,,
357343,1560691629156,4,2.15,2.79,2.67,2.23,5.04,0.28,0.53,1.18,-14,2,-19,0.6,10399,74,87,33,75,994,744.0,626,453,60,118.0,268,1,425,484,192,0,0,766,-31066,-2570,718,45.701687,4.910766,69.61,197.8,3,1.675,0,0.0,0.2233,4,0.21,5.9557
357363,1560691629176,5,2.15,2.8,2.76,2.21,5.04,0.34,0.57,1.12,-15,0,-19,0.66,10422,70,87,33,73,992,752.0,631,458,60,118.0,268,1,429,474,192,0,0,772,-31068,-31066,726,,,,,,,,,,,,
357383,1560691629196,2,2.17,2.78,2.92,2.2,5.06,0.34,0.5,1.15,-15,-1,-19,0.6,10445,63,87,33,70,988,753.0,637,459,60,118.0,268,1,435,459,192,0,0,774,-31066,-2540,728,,,,,,,,,,,,
357403,1560691629216,5,2.18,2.77,3.01,2.19,5.04,0.39,0.41,1.1,-16,-4,-20,0.57,10635,59,87,33,67,985,759.0,626,463,60,117.0,268,1,445,442,192,0,0,787,-3038,-2426,732,,,,,,,,,,,,
357423,1560691629236,3,2.2,2.76,3.0,2.14,5.05,0.36,0.4,1.01,-16,-1,-20,0.54,10653,56,87,33,64,982,764.0,631,457,60,118.0,268,1,448,424,192,0,0,788,-2344,-23308,735,,,,,,,,,,,,
357443,1560691629256,2,2.2,2.74,2.98,2.1,5.07,0.42,0.4,1.1,-17,-0,-21,0.58,10653,55,87,33,63,981,771.0,638,457,60,117.0,227,1,449,406,167,0,0,791,7413,-7436,735,45.701702,4.910756,71.89,197.8,3,1.675,0,0.0,0.225,4,0.21,5.9574
357463,1560691629276,3,2.2,2.76,2.86,2.11,5.04,0.29,0.37,1.17,-17,1,-23,0.47,10623,50,87,33,61,967,774.0,639,458,60,117.0,227,1,450,388,167,0,0,784,7413,-2826,740,,,,,,,,,,,,
357483,1560691629296,2,2.2,2.8,2.78,2.12,5.04,0.3,0.48,1.19,-17,1,-23,0.57,10569,41,87,32,57,952,773.0,638,457,60,118.0,227,1,421,353,167,0,0,785,-3368,-10216,741,,,,,,,,,,,,
357503,1560691629316,4,2.18,2.79,2.72,2.09,5.07,0.27,0.48,1.23,-16,2,-24,0.55,10307,29,87,32,51,937,770.0,633,456,60,118.0,227,1,391,301,167,0,0,772,-2570,-10212,741,,,,,,,,,,,,
357523,1560691629336,6,2.18,2.78,2.74,2.07,5.06,0.35,0.59,1.13,-16,2,-22,0.68,10075,25,87,32,46,923,769.0,633,456,60,118.0,227,1,372,244,167,0,0,778,-2344,6900,743,,,,,,,,,,,,
357543,1560691629356,8,2.17,2.74,2.85,2.01,5.03,0.51,0.53,1.14,-16,-2,-22,0.74,9770,23,87,32,43,892,766.0,625,461,60,117.0,120,1,350,230,90,0,0,760,-2826,-4096,744,45.701717,4.910745,73.28,197.9,3,1.675,0,0.0,0.2267,4,0.21,5.9591
357563,1560691629376,9,2.19,2.71,2.98,1.99,5.05,0.43,0.63,0.95,-15,-2,-22,0.76,9571,22,87,32,40,855,765.0,630,457,60,117.0,120,1,327,218,90,0,0,761,-2344,-2314,742,,,,,,,,,,,,
357583,1560691629398,9,2.21,2.65,3.09,1.94,5.05,0.58,0.61,1.04,-14,-3,-21,0.84,9370,22,87,32,38,827,764.0,622,463,60,118.0,120,1,317,212,90,0,0,768,6389,1524,740,,,,,,,,,,,,
357603,1560691629418,13,2.21,2.6,3.19,1.92,5.04,0.72,0.53,1.13,-15,-3,-21,0.9,9200,21,87,32,37,804,761.0,616,462,60,118.0,120,1,314,207,90,0,0,755,-3038,-3450,735,,,,,,,,,,,,
357623,1560691629438,17,2.23,2.56,3.24,1.88,5.06,0.73,0.39,1.08,-14,-4,-22,0.83,9159,21,87,32,35,788,758.0,622,461,60,118.0,120,1,308,200,90,0,0,721,-22795,6208,734,,,,,,,,,,,,
357643,1560691629458,17,2.24,2.5,3.28,1.87,5.07,0.71,0.38,0.95,-14,-2,-22,0.81,9218,20,87,32,34,775,754.0,614,462,60,118.0,94,1,305,197,69,0,0,713,-2574,-3038,727,45.701736,4.910732,74.17,197.9,3,1.675,0,0.0,0.2283,4,0.21,5.9607
357663,1560691629478,18,2.23,2.43,3.3,1.86,5.08,0.62,0.38,0.78,-13,-1,-23,0.73,9231,19,87,32,32,773,746.0,628,455,60,118.0,94,1,300,192,69,0,0,688,-30694,8958,726,,,,,,,,,,,,
357683,1560691629496,12,2.24,2.42,3.3,1.86,5.07,0.6,0.54,0.58,-13,2,-22,0.8,9204,18,87,32,31,782,740.0,617,461,60,118.0,94,1,295,191,69,0,0,684,-31066,-388,721,,,,,,,,,,,,
357703,1560691629516,15,2.23,2.41,3.24,1.83,5.06,0.61,0.69,0.42,-13,0,-20,0.92,9146,18,87,32,30,803,730.0,623,459,60,118.0,94,1,291,189,69,0,0,689,-2358,-3578,712,,,,,,,,,,,,
357723,1560691629536,15,2.24,2.37,3.22,1.77,5.05,0.7,0.82,0.32,-13,1,-19,1.08,9141,18,87,32,29,836,727.0,618,457,60,118.0,94,1,287,189,69,0,0,690,-3344,479,704,,,,,,,,,,,,
357743,1560691629556,15,2.23,2.33,3.2,1.75,5.06,0.8,0.94,0.35,-13,-1,-18,1.24,9137,18,87,32,29,864,724.0,621,458,60,118.0,91,1,287,189,65,0,0,695,-3450,16599,705,45.701752,4.910718,73.18,197.9,3,1.675,0,0.0,0.23,4,0.21,5.9624
357763,1560691629576,15,2.24,2.3,3.25,1.72,5.07,0.89,0.98,0.42,-13,-0,-16,1.32,9071,18,87,32,28,888,716.0,621,462,60,118.0,91,1,282,188,65,0,0,683,16118,3395,701,,,,,,,,,,,,
357783,1560691629595,13,2.23,2.3,3.25,1.71,5.07,1.0,1.05,0.34,-13,-1,-15,1.45,8911,17,87,32,27,911,711.0,606,456,60,118.0,91,1,278,188,65,0,0,697,-13312,19621,698,,,,,,,,,,,,
357803,1560691629615,18,2.24,2.31,3.24,1.72,5.07,0.95,1.14,0.17,-13,-0,-14,1.48,8729,17,87,32,27,934,706.0,612,461,60,118.0,91,1,278,188,65,0,0,695,687,17740,688,,,,,,,,,,,,
357823,1560691629635,16,2.25,2.31,3.24,1.72,5.06,0.88,1.06,0.08,-11,1,-14,1.38,8616,17,87,32,27,950,701.0,611,457,60,118.0,91,1,278,188,65,0,0,688,-3584,269,682,,,,,,,,,,,,
357843,1560691629655,16,2.26,2.29,3.26,1.71,5.05,0.86,0.97,0.06,-10,2,-14,1.3,8581,16,87,32,27,949,691.0,604,456,60,118.0,89,1,278,188,61,0,0,656,1780,-3446,678,45.701763,4.910703,70.98,197.9,3,1.675,0,0.0,0.2317,4,0.22,5.964
357863,1560691629675,16,2.25,2.22,3.29,1.68,5.05,0.93,0.95,0.07,-10,0,-12,1.33,8589,15,87,32,27,949,687.0,604,460,60,118.0,89,1,278,188,61,0,0,642,6208,17740,678,,,,,,,,,,,,
357883,1560691629695,19,2.27,2.16,3.33,1.66,5.08,0.98,0.94,0.03,-9,2,-11,1.36,8538,15,87,32,27,955,681.0,612,461,60,118.0,89,1,278,188,61,0,0,629,16118,17740,672,,,,,,,,,,,,
357903,1560691629715,17,2.26,2.14,3.34,1.66,5.05,0.9,0.78,0.14,-8,1,-11,1.19,8415,15,87,32,27,961,675.0,603,461,60,117.0,89,1,278,186,61,0,0,633,-26892,-30139,665,,,,,,,,,,,,
357923,1560691629735,19,2.26,2.14,3.35,1.68,5.04,0.94,0.81,-0.01,-7,2,-11,1.24,8355,14,87,32,28,968,670.0,578,460,60,118.0,89,1,281,180,61,0,0,629,1549,269,662,,,,,,,,,,,,
357943,1560691629755,16,2.26,2.14,3.35,1.69,5.06,0.94,0.7,0.0,-6,4,-10,1.17,8322,14,87,32,27,978,660.0,574,460,60,118.0,84,1,277,178,56,0,0,607,-26380,269,656,45.701778,4.910689,68.44,197.9,3,1.675,0,0.0,0.2333,4,0.22,5.9657
357963,1560691629775,21,2.24,2.13,3.29,1.69,5.04,0.95,0.69,0.02,-6,2,-10,1.18,8285,14,87,32,27,994,649.0,564,459,60,119.0,84,1,277,177,56,0,0,618,-30207,-28304,648,,,,,,,,,,,,
357983,1560691629795,16,2.23,2.11,3.29,1.67,5.04,1.06,0.63,-0.01,-6,2,-9,1.23,8289,14,87,32,27,1010,647.0,563,461,60,118.0,84,1,277,177,56,0,0,608,-8429,-3820,641,,,,,,,,,,,,
358003,1560691629815,15,2.23,2.1,3.29,1.67,5.04,1.09,0.55,0.05,-5,1,-9,1.22,8314,14,87,32,27,1019,640.0,566,460,60,120.0,84,1,277,178,56,0,0,602,24,2048,635,,,,,,,,,,,,
358023,1560691629835,17,2.23,2.1,3.32,1.67,5.06,1.12,0.54,0.06,-5,-1,-9,1.24,8202,14,87,32,27,1031,633.0,555,457,60,119.0,84,1,276,172,56,0,0,611,-2836,8488,629,,,,,,,,,,,,
358043,1560691629855,17,2.22,2.08,3.39,1.67,5.07,1.11,0.56,-0.07,-5,1,-8,1.24,8026,14,87,32,27,1044,629.0,555,458,60,119.0,82,1,275,162,52,0,0,594,-14655,10432,620,45.701794,4.910675,65.34,197.9,3,1.675,0,0.0,0.235,4,0.22,5.9674
358063,1560691629875,16,2.22,2.09,3.38,1.68,5.07,1.09,0.48,-0.11,-5,1,-7,1.19,7851,14,87,32,27,1057,625.0,569,460,60,118.0,82,1,274,161,52,0,0,595,-16883,15649,620,,,,,,,,,,,,
358083,1560691629897,17,2.23,2.11,3.36,1.7,5.06,1.18,0.38,-0.02,-5,-1,-6,1.24,7789,14,87,32,27,1061,620.0,556,461,60,119.0,82,1,273,161,52,0,0,594,19320,259,607,,,,,,,,,,,,
358103,1560691629917,17,2.21,2.1,3.39,1.68,5.05,1.26,0.33,0.09,-6,-4,-6,1.31,7725,14,87,32,27,1065,610.0,564,461,60,118.0,82,1,273,161,52,0,0,569,-3446,-23623,601,,,,,,,,,,,,
358123,1560691629937,18,2.23,2.1,3.38,1.69,5.07,1.24,0.41,0.03,-6,-4,-7,1.31,7731,14,87,32,26,1064,608.0,543,461,60,118.0,82,1,270,228,52,0,0,560,-23055,-8962,598,,,,,,,,,,,,
358143,1560691629957,18,2.23,2.1,3.38,1.69,5.04,1.23,0.49,-0.11,-6,-3,-6,1.33,7653,13,87,32,27,1062,602.0,550,458,60,118.0,111,1,272,214,66,0,0,573,-768,2524,591,45.701805,4.91066,62.48,197.9,3,1.675,0,0.0,0.2367,4,0.22,5.969
358163,1560691629977,20,2.24,2.08,3.37,1.68,5.07,1.15,0.58,-0.24,-6,2,-4,1.29,7503,13,87,32,26,1057,597.0,538,460,60,119.0,111,1,268,197,66,0,0,583,23619,6273,585,,,,,,,,,,,,
358183,1560691629991,18,2.24,2.05,3.4,1.66,5.05,1.23,0.53,-0.25,-7,2,-7,1.34,7373,13,87,32,26,1052,594.0,514,464,60,118.0,111,1,266,180,66,0,0,513,6273,-9216,578,,,,,,,,,,,,
358203,1560691630011,18,2.25,1.99,3.41,1.65,5.05,1.12,0.45,-0.19,-6,5,-10,1.21,7527,13,87,32,26,1030,585.0,508,459,60,118.0,111,1,268,164,66,0,0,471,-25872,20625,579,,,,,,,,,,,,
358223,1560691630031,20,2.25,1.98,3.42,1.65,5.06,1.12,0.48,-0.33,-7,4,-9,1.22,7575,13,87,32,26,1008,584.0,521,463,60,118.0,111,1,268,160,66,0,0,450,10432,9517,574,,,,,,,,,,,,
358243,1560691630051,15,2.24,1.97,3.42,1.65,5.06,1.11,0.48,-0.42,-7,5,-7,1.21,7703,13,86,32,26,988,574.0,519,459,60,118.0,80,1,270,159,46,0,0,358,774,8200,566,45.701817,4.910647,60.14,197.9,3,1.675,0,0.0,0.2383,4,0.22,5.9707
358263,1560691630071,20,2.24,1.98,3.4,1.66,5.04,1.05,0.44,-0.45,-7,7,-5,1.14,7560,13,86,32,25,971,571.0,520,456,60,119.0,80,1,265,159,46,0,0,340,1267,28696,560,,,,,,,,,,,,
358283,1560691630097,17,2.24,2.0,3.36,1.65,5.05,1.05,0.41,-0.48,-7,6,-7,1.13,7449,13,86,32,26,938,563.0,527,458,60,118.0,80,1,267,159,46,0,0,367,2211,-8165,549,,,,,,,,,,,,
358303,1560691630117,19,2.23,2.0,3.35,1.65,5.04,1.12,0.53,-0.55,-7,4,-8,1.24,7295,13,86,32,25,904,557.0,516,458,60,119.0,80,1,262,159,46,0,0,414,2216,-3267,540,,,,,,,,,,,,
358323,1560691630137,19,2.25,1.99,3.36,1.63,5.06,1.21,0.44,-0.45,-9,1,-9,1.29,7261,13,86,32,25,883,548.0,520,460,60,119.0,80,1,262,159,46,0,0,453,14504,-8985,534,,,,,,,,,,,,
358343,1560691630157,19,2.26,1.96,3.39,1.59,5.05,1.29,0.4,-0.24,-9,-3,-9,1.35,7315,13,86,32,25,867,544.0,510,460,60,118.0,80,1,263,160,43,0,0,423,-3082,-1818,531,45.701828,4.910634,57.0,197.9,3,1.675,0,0.0,0.24,4,0.22,5.9724
358363,1560691630177,21,2.28,1.95,3.4,1.6,5.04,1.29,0.34,-0.09,-9,-1,-11,1.33,7416,12,86,32,25,857,538.0,524,461,60,119.0,80,1,264,160,43,0,0,397,6274,240,524,,,,,,,,,,,,
358383,1560691630197,20,2.29,1.96,3.43,1.61,5.05,1.33,0.28,-0.01,-9,-3,-13,1.35,7347,12,86,32,25,850,531.0,530,460,60,118.0,80,1,263,160,43,0,0,368,-22519,-19126,516,,,,,,,,,,,,
358403,1560691630217,17,2.31,1.97,3.42,1.64,5.08,1.31,0.23,-0.03,-9,-2,-13,1.33,7242,12,86,32,26,852,523.0,520,462,60,117.0,80,1,266,160,43,0,0,367,-22519,2524,507,,,,,,,,,,,,
358423,1560691630237,16,2.32,1.96,3.41,1.64,5.05,1.21,0.25,-0.19,-8,2,-12,1.23,7170,12,86,32,26,861,514.0,512,461,60,118.0,80,1,265,160,43,0,0,387,-3482,-3856,505,,,,,,,,,,,,
358443,1560691630257,13,2.33,1.95,3.4,1.63,5.05,1.23,0.22,-0.16,-8,1,-11,1.25,7121,12,86,32,26,868,508.0,501,456,60,119.0,85,1,265,160,43,0,0,396,-3414,-9211,498,45.701836,4.910622,53.98,197.9,3,1.675,0,0.0,0.2417,4,0.23,5.974
358463,1560691630277,16,2.33,1.95,3.41,1.62,5.05,1.24,0.22,-0.02,-8,1,-12,1.26,7219,12,86,32,26,874,502.0,500,458,60,119.0,85,1,266,160,43,0,0,385,-22519,-6458,496,,,,,,,,,,,,
358483,1560691630297,18,2.33,1.94,3.42,1.64,5.06,1.3,0.18,-0.02,-7,-1,-10,1.31,7167,12,86,32,26,875,493.0,516,457,60,118.0,85,1,265,160,43,0,0,365,-6528,8841,490,,,,,,,,,,,,
358503,1560691630317,15,2.33,1.95,3.43,1.66,5.04,1.25,0.23,-0.18,-6,2,-7,1.27,7064,12,86,32,26,872,489.0,503,464,60,118.0,85,1,264,160,43,0,0,373,-6656,230,486,,,,,,,,,,,,
358523,1560691630337,14,2.33,1.95,3.4,1.65,5.04,1.21,0.26,-0.23,-5,0,-4,1.24,6967,12,86,32,27,869,479.0,501,460,60,119.0,85,1,269,161,43,0,0,398,10305,-18948,479,,,,,,,,,,,,
358543,1560691630357,15,2.34,1.93,3.4,1.62,5.06,1.29,0.17,-0.16,-4,1,-3,1.3,6885,12,86,32,27,865,475.0,497,459,60,118.0,88,1,270,161,42,0,0,416,-1923,11560,474,45.701847,4.91061,50.76,197.9,3,1.675,0,0.0,0.2433,4,0.23,5.9757
358563,1560691630377,13,2.32,1.91,3.4,1.62,5.04,1.21,0.24,-0.21,-3,4,-3,1.23,6962,12,86,32,27,862,472.0,490,461,60,118.0,88,1,269,161,42,0,0,381,243,19125,472,,,,,,,,,,,,
358583,1560691630397,13,2.32,1.9,3.41,1.62,5.03,1.19,0.26,-0.2,-2,4,-3,1.22,7099,12,86,32,27,862,467.0,502,458,60,119.0,88,1,268,161,42,0,0,358,-23623,0,467,,,,,,,,,,,,
358603,1560691630417,15,2.33,1.91,3.42,1.63,5.05,1.23,0.17,-0.14,-1,2,-2,1.24,7040,12,86,32,27,862,462.0,508,462,60,118.0,88,1,268,161,42,0,0,359,-8985,-992,462,,,,,,,,,,,,
358623,1560691630437,13,2.32,1.92,3.42,1.66,5.04,1.17,0.19,-0.29,0,4,-0,1.18,6978,12,86,32,27,862,454.0,501,458,60,118.0,88,1,269,161,42,0,0,374,16648,9517,454,,,,,,,,,,,,
358643,1560691630457,11,2.31,1.9,3.44,1.64,5.07,1.17,0.28,-0.34,1,4,2,1.2,7030,12,86,32,27,863,449.0,502,457,60,119.0,92,1,268,161,42,0,0,379,23400,-3866,449,45.701855,4.910598,47.83,197.9,3,1.675,0,0.0,0.245,4,0.23,5.9774
358663,1560691630477,15,2.29,1.91,3.42,1.64,5.05,1.26,0.23,-0.22,0,3,2,1.28,7102,12,86,32,27,865,446.0,508,462,60,119.0,92,1,269,161,42,0,0,377,-768,257,442,,,,,,,,,,,,
358683,1560691630495,15,2.29,1.91,3.41,1.65,5.05,1.21,0.25,-0.27,2,3,2,1.23,7161,12,86,32,27,866,436.0,512,462,60,117.0,92,1,269,161,42,0,0,383,13180,-6656,436,,,,,,,,,,,,
358703,1560691630515,12,2.29,1.9,3.43,1.64,5.07,1.13,0.24,-0.25,2,1,1,1.16,7183,12,86,32,27,868,430.0,516,457,60,118.0,92,1,269,161,42,0,0,383,3826,-32702,431,,,,,,,,,,,,
358723,1560691630535,10,2.27,1.91,3.45,1.65,5.04,1.1,0.25,-0.28,3,3,0,1.13,7219,12,86,32,27,870,426.0,509,456,60,118.0,92,1,270,161,42,0,0,376,-21944,-31744,425,,,,,,,,,,,,
358743,1560691630555,9,2.26,1.9,3.44,1.65,5.07,1.17,0.2,-0.22,3,1,2,1.19,7259,12,86,32,27,871,418.0,515,459,60,119.0,103,1,270,161,44,0,0,379,-4059,-19126,418,45.701866,4.910588,44.78,197.8,3,1.675,0,0.0,0.2467,4,0.23,5.9791
358763,1560691630575,13,2.24,1.92,3.43,1.67,5.07,1.24,0.2,-0.11,2,1,3,1.26,7222,12,86,32,27,872,414.0,512,460,60,119.0,103,1,270,161,44,0,0,385,10392,17144,414,,,,,,,,,,,,
358783,1560691630596,12,2.21,1.96,3.38,1.66,5.06,1.23,0.25,-0.1,2,2,2,1.25,7231,12,86,32,27,873,408.0,507,460,60,118.0,103,1,270,161,44,0,0,392,-9211,1,408,,,,,,,,,,,,
358803,1560691630616,9,2.19,1.99,3.37,1.65,5.08,1.17,0.28,-0.19,1,1,-0,1.21,7205,12,86,32,27,875,402.0,511,457,60,118.0,103,1,270,161,44,0,0,391,10541,-19019,399,,,,,,,,,,,,
358823,1560691630636,9,2.17,2.03,3.35,1.65,5.05,1.14,0.34,-0.32,1,1,-1,1.19,7208,12,86,32,27,876,402.0,507,459,60,118.0,103,1,270,161,44,0,0,384,10541,3,392,,,,,,,,,,,,
358843,1560691630656,6,2.14,2.06,3.33,1.65,5.05,1.19,0.33,-0.24,-1,0,-1,1.23,7186,12,86,32,26,877,400.0,513,461,60,119.0,109,1,265,161,43,0,0,388,6512,3,389,45.701874,4.910577,41.82,197.8,3,1.675,0,0.0,0.2483,4,0.23,5.9807
358863,1560691630676,11,2.11,2.08,3.3,1.64,5.06,1.26,0.32,-0.13,-3,-0,-3,1.3,7142,12,86,32,26,879,398.0,512,462,60,118.0,109,1,265,160,43,0,0,383,6384,1,382,,,,,,,,,,,,
358883,1560691630696,8,2.09,2.1,3.26,1.64,5.04,1.26,0.38,-0.1,-4,-1,-6,1.31,7099,12,86,32,27,881,396.0,508,460,60,117.0,109,1,268,161,43,0,0,387,-32702,1,377,,,,,,,,,,,,
