"Interval"|"ms"|0|0|1,"Utc"|"ms"|0|0|1,"FB_p"|"bar"|0|300|50,"Volant"|"F"|0.0|300.0|50,"xFR"|"mm"|0.0|5.0|50,"xRR"|"mm"|0.0|5.0|50,"xFL"|"mm"|0.0|5.0|50,"xRL"|"mm"|0.0|5.0|50,"AccelX"|"G"|-3.0|3.0|50,"AccelY"|"G"|-3.0|3.0|50,"AccelZ"|"G"|-3.0|3.0|50,"Yaw"|"Deg/Sec"|-120|120|50,"Pitch"|"Deg/Sec"|-120|120|50,"Roll"|"Deg/Sec"|-120|120|50,"Gsum"|"G"|0.0|3.0|50,"RPM"|""|0|14000|50,"TPS"|"%"|0|100|50,"WaterTemp"|"?C"|0|300|50,"AirTemp"|"?C"|-1000|1000|50,"MAP"|"KPa"|0|255|50,"Lambda"|""|0|1024|50,"WheelSpeed"|"MPH"|0.0|150.0|50,"OilPress"|"PSI"|0|150|50,"FuelPress"|"PSI"|0|150|50,"OilTemp"|"F"|0|300|50,"Battery"|"Volts"|0.0|20.0|50,"FuelCon"|"L/h"|-1000|1000|50,"Gear"|""|0|10|50,"Advance"|"Deg"|-360|360|50,"Injection"|"ms"|-1000|1000|50,"FuelCon"|"L/100km"|-1000|1000|50,"LC_But_Pres"|""|-1000|1000|50,"LC_Active"|""|-1000|1000|50,"RD_Speed"|""|-1000|1000|50,"RUD_Speed"|""|-1000|1000|50,"LD_Speed"|""|-1000|1000|50,"LUD_Speed"|""|-1000|1000|50,"Latitude"|"Degrees"|-180.0|180.0|10,"Longitude"|"Degrees"|-180.0|180.0|10,"Speed"|"kph"|0.0|150.0|10,"Altitude"|"m"|0.0|4000.0|10,"LapCount"|""|0|0|10,"LapTime"|"Min"|0.0|0.0|10,"Sector"|""|0|0|10,"SectorTime"|"Min"|0.0|0.0|10,"ElapsedTime"|"Min"|0.0|0.0|10,"CurrentLap"|""|0|0|10,"Distance"|"km"|0.0|0.0|10,"SessionTime"|"Min"|0.0|0.0|10
239663,1560692767761,12,2.3,1.89,3.55,1.69,5.04,1.1,-0.24,-0.27,2,-2,-6,1.12,7653,7,89,34,20,930,554.0,551,458,60,118.0,73,1,266,146,42,0,0,397,2104,-9211,556,,,,,,,,,,,,
239683,1560692767781,9,2.31,1.86,3.55,1.68,5.05,1.19,-0.23,-0.17,1,-1,-5,1.21,7581,7,89,34,20,920,552.0,552,457,60,117.0,73,1,265,146,42,0,0,403,-8962,1779,549,,,,,,,,,,,,
239703,1560692767797,11,2.29,1.88,3.55,1.68,5.05,1.25,-0.19,-0.13,1,-2,-4,1.26,7594,7,89,34,20,919,542.0,552,453,60,118.0,74,1,265,146,41,0,0,399,1780,3635,540,,,,,,,,,,,,
239723,1560692767817,12,2.3,1.9,3.53,1.69,5.04,1.31,-0.16,-0.05,0,-4,-3,1.32,7637,7,89,34,20,918,536.0,550,456,60,117.0,74,1,266,146,41,0,0,418,14504,-32702,536,,,,,,,,,,,,
239743,1560692767837,10,2.3,1.89,3.54,1.68,5.07,1.36,-0.05,-0.05,1,-4,-2,1.36,7646,7,89,34,20,918,530.0,559,456,60,117.0,74,1,266,146,41,0,0,400,6274,-6656,530,45.698998,4.910087,56.8,185.8,1,1.645,0,0.0,1.15,2,0.76,3.9957
239763,1560692767857,12,2.29,1.87,3.54,1.69,5.05,1.28,-0.07,-0.1,2,-2,-2,1.28,7597,7,89,34,20,918,529.0,560,460,60,117.0,74,1,265,146,41,0,0,391,2088,9517,529,,,,,,,,,,,,
239783,1560692767877,10,2.3,1.87,3.52,1.69,5.07,1.23,-0.09,-0.05,2,-2,0,1.24,7500,7,89,34,20,920,520.0,561,457,60,117.0,74,1,265,146,41,0,0,401,-8187,-6656,520,,,,,,,,,,,,
239803,1560692767897,11,2.29,1.87,3.51,1.71,5.04,1.15,-0.14,-0.11,2,-1,2,1.16,7530,7,89,34,20,921,517.0,552,456,60,118.0,79,1,265,146,41,0,0,403,-3414,2211,517,,,,,,,,,,,,
239823,1560692767917,10,2.29,1.85,3.51,1.68,5.06,1.04,-0.2,-0.21,3,2,4,1.06,7621,7,89,34,20,923,509.0,556,453,60,118.0,79,1,266,146,41,0,0,437,-21872,-26615,509,,,,,,,,,,,,
239843,1560692767937,9,2.29,1.85,3.51,1.67,5.04,1.02,-0.31,-0.16,4,4,5,1.06,7703,7,89,34,20,924,505.0,560,456,60,118.0,79,1,267,146,41,0,0,437,15661,11560,505,45.698986,4.910077,53.99,185.9,1,1.645,0,0.0,1.1517,2,0.76,3.9974
239863,1560692767957,8,2.28,1.86,3.51,1.7,5.08,1.04,-0.36,-0.15,5,4,6,1.1,7754,7,89,34,20,925,501.0,563,454,60,118.0,79,1,267,146,41,0,0,419,3,2524,501,,,,,,,,,,,,
239883,1560692767977,4,2.29,1.86,3.5,1.76,5.05,1.14,-0.38,-0.03,5,2,6,1.2,7832,7,89,34,20,925,496.0,566,452,60,118.0,79,1,268,146,41,0,0,413,-1818,-7939,495,,,,,,,,,,,,
239903,1560692767991,3,2.3,1.86,3.5,1.75,5.07,1.13,-0.28,-0.11,4,1,6,1.17,7914,7,89,34,20,924,488.0,569,451,60,118.0,86,1,269,146,43,0,0,420,505,15649,490,,,,,,,,,,,,
239923,1560692768011,5,2.29,1.86,3.5,1.75,5.06,0.98,-0.25,-0.16,5,1,6,1.01,7955,7,89,34,19,922,485.0,565,457,60,118.0,86,1,269,146,43,0,0,453,8488,-7939,485,,,,,,,,,,,,
239943,1560692768031,3,2.3,1.85,3.5,1.74,5.07,1.08,-0.33,-0.09,4,1,6,1.13,8036,7,89,34,19,920,480.0,571,455,60,118.0,86,1,270,144,43,0,0,443,10305,16648,480,45.698978,4.910067,51.34,186.0,1,1.645,0,0.0,1.1533,2,0.76,3.9991
239963,1560692768051,2,2.3,1.87,3.48,1.76,5.04,1.03,-0.26,-0.09,3,1,6,1.06,8123,8,89,34,20,917,478.0,583,450,60,117.0,86,1,270,149,43,0,0,448,3576,26704,474,,,,,,,,,,,,
239983,1560692768071,3,2.3,1.87,3.48,1.76,5.07,1.03,-0.24,-0.14,3,-1,6,1.05,8148,7,89,34,19,919,471.0,581,455,60,118.0,86,1,270,146,43,0,0,442,-16384,243,471,,,,,,,,,,,,
240003,1560692768091,3,2.28,1.87,3.49,1.76,5.04,1.07,-0.22,-0.08,3,-0,6,1.09,8212,8,89,34,19,920,467.0,593,455,60,117.0,95,1,270,147,45,0,0,433,30272,-768,467,,,,,,,,,,,,
240023,1560692768111,4,2.29,1.89,3.48,1.78,5.04,1.01,-0.16,-0.1,3,1,6,1.02,8252,8,89,34,18,924,466.0,590,451,60,118.0,95,1,270,147,45,0,0,439,16408,2131,465,,,,,,,,,,,,
240043,1560692768131,2,2.29,1.9,3.45,1.78,5.07,1.04,-0.19,-0.03,3,1,5,1.06,8216,8,89,34,19,926,461.0,596,448,60,118.0,95,1,270,147,45,0,0,446,17628,20625,460,45.698963,4.910058,48.37,186.1,1,1.645,0,0.0,1.155,2,0.76,4.0007
240063,1560692768151,3,2.29,1.9,3.4,1.78,5.07,1.04,-0.19,-0.01,4,2,4,1.06,8234,8,89,35,18,929,458.0,595,452,60,118.0,95,1,270,142,45,0,0,447,14488,26704,457,,,,,,,,,,,,
240083,1560692768171,3,2.28,1.9,3.41,1.79,5.04,1.02,-0.21,0.09,4,1,4,1.04,8274,8,89,35,18,931,455.0,600,452,60,118.0,95,1,270,142,45,0,0,433,-6387,-28332,455,,,,,,,,,,,,
240103,1560692768191,5,2.28,1.91,3.43,1.79,5.06,1.05,-0.21,0.11,4,1,3,1.07,8227,8,89,35,18,931,452.0,592,453,60,118.0,97,1,270,142,44,0,0,436,-3267,-28332,450,,,,,,,,,,,,
240123,1560692768209,2,2.28,1.92,3.41,1.8,5.05,1.11,-0.26,0.18,3,-0,2,1.14,8173,8,89,35,18,929,449.0,601,447,60,117.0,97,1,270,141,44,0,0,439,10305,5600,449,,,,,,,,,,,,
240143,1560692768229,4,2.28,1.93,3.41,1.81,5.04,1.05,-0.23,0.14,2,-1,2,1.08,8102,8,89,35,19,929,446.0,600,450,60,118.0,97,1,270,141,44,0,0,433,16648,19477,446,45.698956,4.910048,46.2,186.1,1,1.645,0,0.0,1.1567,2,0.76,4.0024
240163,1560692768249,-0,2.27,1.95,3.41,1.81,5.04,1.13,-0.31,0.2,2,-1,1,1.17,8092,8,89,35,18,928,444.0,587,446,60,118.0,97,1,270,141,44,0,0,434,21432,-768,444,,,,,,,,,,,,
240183,1560692768269,2,2.27,1.98,3.39,1.81,5.04,1.07,-0.23,0.23,1,-2,-0,1.09,8036,8,89,35,19,928,442.0,590,444,60,117.0,97,1,270,143,44,0,0,434,20625,1779,442,,,,,,,,,,,,
240203,1560692768291,2,2.27,1.99,3.37,1.81,5.04,1.04,-0.18,0.18,1,-4,-0,1.05,7968,8,89,35,19,929,439.0,575,447,60,118.0,97,1,269,143,43,0,0,427,21580,-3314,438,,,,,,,,,,,,
240223,1560692768311,1,2.26,1.98,3.38,1.82,5.04,1.04,-0.25,0.15,1,-3,0,1.07,7971,8,89,35,19,933,437.0,586,447,60,117.0,97,1,269,143,43,0,0,425,-7939,3826,436,,,,,,,,,,,,
240243,1560692768331,2,2.26,1.98,3.37,1.8,5.05,0.99,-0.14,0.18,1,-2,-1,1.0,7908,8,89,35,19,935,435.0,583,439,60,118.0,97,1,269,143,43,0,0,427,-7939,-21792,435,45.698944,4.910039,44.67,186.2,1,1.645,0,0.0,1.1583,2,0.76,4.004
240263,1560692768351,1,2.26,2.0,3.36,1.83,5.07,0.96,-0.06,0.13,1,-2,-0,0.96,7848,8,89,35,19,939,432.0,572,451,60,118.0,97,1,268,143,43,0,0,423,-3322,-3856,431,,,,,,,,,,,,
240283,1560692768371,5,2.24,2.04,3.37,1.85,5.04,0.99,-0.11,0.1,0,-2,-1,1.0,7835,8,89,35,19,942,430.0,575,456,60,118.0,97,1,268,143,43,0,0,418,-3314,-3414,430,,,,,,,,,,,,
240303,1560692768391,-1,2.24,2.03,3.36,1.83,5.05,1.09,-0.27,0.2,-0,-3,-2,1.13,7786,8,89,35,19,947,428.0,570,445,60,118.0,97,1,267,143,42,0,0,420,13180,-26615,428,,,,,,,,,,,,
240323,1560692768407,0,2.23,2.03,3.34,1.83,5.08,1.17,-0.24,0.32,-1,-3,-3,1.19,7793,8,89,35,19,956,427.0,586,448,60,117.0,97,1,267,143,42,0,0,421,31796,-9166,423,,,,,,,,,,,,
240343,1560692768427,0,2.22,2.05,3.34,1.83,5.05,1.15,-0.08,0.32,-1,-4,-4,1.15,7747,8,89,35,19,961,425.0,577,446,60,117.0,97,1,267,143,42,0,0,415,-3856,-4059,420,45.698936,4.91003,43.04,186.3,1,1.645,0,0.0,1.16,2,0.77,4.0057
240363,1560692768447,3,2.22,2.04,3.32,1.83,5.07,1.05,0.12,0.26,-2,-3,-4,1.06,7674,8,89,35,20,965,423.0,578,440,60,117.0,97,1,266,145,42,0,0,417,3826,9517,419,,,,,,,,,,,,
240383,1560692768467,4,2.21,2.04,3.27,1.82,5.04,0.94,0.19,0.18,-2,-2,-5,0.95,7668,8,89,35,19,968,422.0,562,448,60,118.0,97,1,266,145,42,0,0,413,-3414,-26615,415,,,,,,,,,,,,
240403,1560692768487,5,2.2,2.06,3.28,1.83,5.06,0.9,0.18,0.15,-2,-2,-4,0.91,7597,8,89,35,19,967,420.0,569,451,60,117.0,99,1,265,145,41,0,0,411,-8165,-26615,412,,,,,,,,,,,,
240423,1560692768509,3,2.21,2.1,3.27,1.84,5.04,0.92,0.07,0.14,-2,-2,-5,0.92,7581,8,89,35,20,965,420.0,558,451,60,118.0,99,1,265,145,41,0,0,407,-8165,11545,411,,,,,,,,,,,,
240443,1560692768529,4,2.21,2.09,3.27,1.83,5.04,1.0,-0.02,0.15,-2,-2,-6,1.0,7542,8,89,35,20,959,416.0,556,448,60,118.0,99,1,265,145,41,0,0,407,18584,11545,409,45.698929,4.910022,41.3,186.2,1,1.645,0,0.0,1.1617,2,0.77,4.0074
240463,1560692768549,4,2.2,2.09,3.27,1.83,5.08,0.96,-0.1,0.14,-2,1,-6,0.96,7551,8,89,35,20,954,414.0,553,451,60,118.0,99,1,265,145,41,0,0,404,2524,10541,409,,,,,,,,,,,,
240483,1560692768569,3,2.22,2.12,3.27,1.84,5.04,0.93,-0.13,0.16,-2,1,-5,0.94,7488,8,89,35,20,947,412.0,552,451,60,118.0,99,1,264,145,41,0,0,405,13040,-6656,402,,,,,,,,,,,,
240503,1560692768589,4,2.21,2.11,3.27,1.82,5.05,0.96,-0.19,0.15,-2,0,-5,0.98,7461,8,89,35,20,940,411.0,549,451,60,118.0,101,1,264,145,41,0,0,400,-4059,-32702,401,,,,,,,,,,,,
240523,1560692768607,2,2.23,2.11,3.28,1.82,5.07,1.0,-0.26,0.13,-2,1,-5,1.04,7399,8,89,35,20,938,409.0,544,446,60,118.0,101,1,263,145,41,0,0,398,11560,-6656,400,,,,,,,,,,,,
240543,1560692768627,4,2.22,2.11,3.28,1.83,5.04,0.89,-0.32,0.07,-1,2,-4,0.95,7393,8,89,35,20,936,407.0,542,455,60,118.0,101,1,263,145,41,0,0,397,2524,17144,399,45.698917,4.910014,40.42,186.3,1,1.645,0,0.0,1.1633,2,0.77,4.009
240563,1560692768647,3,2.23,2.12,3.28,1.84,5.04,0.83,-0.24,-0.06,-1,2,-3,0.86,7312,8,89,35,20,934,405.0,543,449,60,118.0,101,1,263,145,41,0,0,392,1504,1,396,,,,,,,,,,,,
240583,1560692768667,2,2.23,2.11,3.28,1.82,5.05,0.79,-0.12,-0.13,-1,3,-3,0.8,7278,8,89,35,21,932,403.0,542,456,60,117.0,101,1,262,148,41,0,0,389,-8151,-1818,395,,,,,,,,,,,,
240603,1560692768687,1,2.22,2.1,3.27,1.83,5.06,0.76,-0.03,-0.16,-2,2,-3,0.76,7256,8,89,35,21,932,401.0,542,447,60,118.0,101,1,262,148,40,0,0,391,28696,-1562,394,,,,,,,,,,,,
240623,1560692768706,2,2.24,2.11,3.28,1.83,5.07,0.89,0.01,-0.0,-3,1,-4,0.89,7214,8,89,35,21,932,397.0,529,450,60,118.0,101,1,262,148,40,0,0,387,-3968,-3866,390,,,,,,,,,,,,
240643,1560692768726,5,2.24,2.11,3.28,1.85,5.04,0.95,-0.05,0.16,-3,1,-4,0.95,7194,8,89,35,21,931,393.0,533,451,60,118.0,101,1,261,148,40,0,0,383,-6656,19125,389,45.698914,4.910006,39.58,186.3,1,1.645,0,0.0,1.165,2,0.77,4.0107
240663,1560692768746,3,2.25,2.09,3.27,1.83,5.07,0.98,-0.1,0.23,-2,1,-3,0.99,7134,8,89,35,21,930,392.0,532,452,60,118.0,101,1,261,148,40,0,0,382,1,19125,387,,,,,,,,,,,,
240683,1560692768766,1,2.25,2.08,3.29,1.84,5.08,0.89,-0.0,0.08,-2,3,-2,0.89,7113,8,89,35,21,929,389.0,520,455,60,117.0,101,1,261,148,40,0,0,377,-6524,19125,386,,,,,,,,,,,,
240703,1560692768802,2,2.26,2.08,3.29,1.85,5.04,0.87,0.04,0.09,-2,-1,-2,0.87,7062,8,89,35,21,929,387.0,519,454,60,117.0,101,1,260,148,39,0,0,376,240,770,384,,,,,,,,,,,,
240723,1560692768822,7,2.25,2.09,3.29,1.87,5.05,0.98,-0.07,0.25,-3,-0,-1,0.98,6978,8,89,35,21,932,384.0,512,453,60,118.0,101,1,260,147,39,0,0,374,19125,-6656,384,,,,,,,,,,,,
240743,1560692768842,3,2.26,2.09,3.29,1.86,5.04,0.89,-0.01,0.08,-2,1,-1,0.89,6949,8,89,35,22,936,381.0,513,455,60,117.0,101,1,260,150,39,0,0,369,-18948,-6656,380,45.698902,4.909999,39.18,186.4,1,1.645,0,0.0,1.1667,2,0.77,4.0124
240763,1560692768862,5,2.27,2.09,3.32,1.86,5.05,0.86,0.03,0.12,-2,0,-1,0.86,6908,8,89,35,22,939,379.0,506,451,60,119.0,101,1,260,149,39,0,0,365,2278,486,376,,,,,,,,,,,,
240783,1560692768882,2,2.27,2.08,3.33,1.86,5.05,0.98,-0.05,0.16,-2,-1,-1,0.98,6838,8,89,35,22,943,377.0,501,453,60,118.0,101,1,260,149,39,0,0,361,3,-6656,373,,,,,,,,,,,,
240803,1560692768902,3,2.28,2.06,3.34,1.86,5.04,0.84,0.02,0.1,-1,1,-1,0.84,6795,8,89,35,23,951,376.0,505,458,60,117.0,101,1,261,152,38,0,0,360,742,486,373,,,,,,,,,,,,
240823,1560692768922,4,2.28,2.05,3.34,1.85,5.05,0.96,-0.05,0.25,-3,-1,-1,0.96,6744,8,89,35,23,958,373.0,497,457,60,118.0,101,1,261,152,38,0,0,364,-6656,-1268,371,,,,,,,,,,,,
240843,1560692768942,5,2.3,2.08,3.32,1.89,5.04,0.87,0.04,0.2,-1,-1,-0,0.87,6701,8,89,35,23,962,369.0,510,455,60,118.0,101,1,262,152,38,0,0,362,-6656,2790,368,45.698898,4.909992,37.75,186.5,1,1.645,0,0.0,1.1683,2,0.77,4.0141
240863,1560692768962,3,2.3,2.07,3.32,1.88,5.04,0.99,-0.06,0.28,-2,-2,-0,0.99,6663,8,89,35,23,964,366.0,500,456,60,118.0,101,1,262,151,38,0,0,357,3082,-29978,367,,,,,,,,,,,,
240883,1560692768982,4,2.32,2.04,3.34,1.88,5.05,0.87,-0.01,0.31,-0,-2,-1,0.87,6630,8,89,35,24,969,366.0,487,455,60,119.0,101,1,263,154,38,0,0,353,-6458,-6640,366,,,,,,,,,,,,
240903,1560692768996,-0,2.32,2.03,3.34,1.88,5.04,0.96,-0.02,0.21,-0,-0,-0,0.96,6585,8,89,35,24,976,365.0,495,458,60,117.0,104,1,263,154,38,0,0,348,-29302,-6640,365,,,,,,,,,,,,
240923,1560692769016,2,2.33,2.04,3.36,1.92,5.06,0.9,-0.11,0.3,0,-1,-0,0.91,6560,8,89,35,24,980,361.0,481,453,60,119.0,104,1,263,154,38,0,0,349,-6640,-6644,361,,,,,,,,,,,,
240943,1560692769036,6,2.32,2.03,3.36,1.93,5.06,0.9,-0.04,0.29,1,-0,-0,0.91,6542,8,89,35,25,982,360.0,491,456,60,117.0,104,1,265,154,38,0,0,349,3302,2060,360,45.698887,4.909986,36.74,186.5,1,1.645,0,0.0,1.17,2,0.77,4.0157
240963,1560692769056,-2,2.34,2.02,3.35,1.93,5.04,1.02,-0.1,0.3,1,-2,0,1.02,6476,8,89,35,25,984,359.0,490,458,60,118.0,104,1,266,158,38,0,0,347,-6644,2811,358,,,,,,,,,,,,
240983,1560692769076,4,2.34,1.98,3.36,1.93,5.08,0.94,-0.17,0.31,1,-2,1,0.95,6454,8,89,36,25,989,356.0,476,454,60,119.0,104,1,266,158,38,0,0,340,-30454,2811,356,,,,,,,,,,,,
241003,1560692769096,5,2.35,1.98,3.37,1.93,5.06,0.85,-0.06,0.23,3,1,2,0.85,6423,8,89,36,25,992,355.0,464,453,60,119.0,106,1,266,158,38,0,0,339,-1246,6870,355,,,,,,,,,,,,
241023,1560692769116,1,2.37,1.99,3.37,1.95,5.03,0.94,-0.11,0.18,3,1,3,0.95,6375,8,89,36,25,994,355.0,477,459,60,117.0,106,1,267,159,38,0,0,341,6870,-30438,355,,,,,,,,,,,,
241043,1560692769136,1,2.4,1.99,3.37,1.99,5.07,1.0,-0.2,0.25,3,-0,4,1.02,6338,8,89,36,26,995,353.0,467,457,60,118.0,106,1,270,159,38,0,0,337,-31206,-10554,353,45.698879,4.909979,35.53,186.5,1,1.645,0,0.0,1.1717,2,0.77,4.0174
241063,1560692769156,3,2.43,1.99,3.39,2.02,5.04,1.01,-0.22,0.3,4,-3,5,1.04,6304,8,89,36,26,996,352.0,465,453,60,118.0,106,1,270,159,38,0,0,329,-122,6870,352,,,,,,,,,,,,
241083,1560692769176,3,2.45,1.98,3.45,2.04,5.08,0.89,-0.2,0.27,7,-3,6,0.91,6296,8,89,36,26,997,353.0,461,451,60,118.0,106,1,271,159,38,0,0,325,4838,-14714,353,,,,,,,,,,,,
241103,1560692769192,4,2.47,1.96,3.49,2.06,5.05,0.81,-0.2,0.21,9,-3,9,0.84,6252,8,89,36,27,996,352.0,468,454,60,119.0,104,1,274,160,37,0,0,323,175,-31206,352,,,,,,,,,,,,
241123,1560692769212,1,2.47,1.95,3.48,2.08,5.07,0.86,-0.27,0.18,10,-1,10,0.9,6186,8,89,36,27,993,351.0,471,454,60,118.0,104,1,275,160,37,0,0,324,170,-14714,351,,,,,,,,,,,,
241143,1560692769232,1,2.5,1.93,3.48,2.09,5.04,0.95,-0.43,0.14,11,-1,11,1.04,6163,8,89,36,27,988,350.0,467,458,60,117.0,104,1,275,160,37,0,0,318,-23296,-10554,350,45.698875,4.909973,33.98,186.5,1,1.645,0,0.0,1.1733,2,0.77,4.0191
241163,1560692769252,0,2.52,1.9,3.5,2.09,5.04,1.05,-0.58,0.16,10,-1,13,1.2,6121,8,89,36,27,986,349.0,463,461,60,118.0,104,1,275,160,37,0,0,310,155,-31206,349,,,,,,,,,,,,
241183,1560692769272,1,2.53,1.9,3.5,2.12,5.06,1.13,-0.69,0.19,11,-1,15,1.33,6087,7,89,36,27,984,349.0,466,461,60,117.0,104,1,275,160,37,0,0,311,-27136,-14714,349,,,,,,,,,,,,
241203,1560692769294,1,2.56,1.9,3.52,2.18,5.04,1.22,-0.77,0.29,11,-3,16,1.44,6019,7,89,36,28,981,348.0,463,457,60,117.0,106,1,278,162,37,0,0,305,135,3327,348,,,,,,,,,,,,
241223,1560692769314,0,2.58,1.89,3.57,2.21,5.04,1.3,-0.84,0.34,12,-5,18,1.55,5954,8,89,36,28,979,348.0,458,459,60,117.0,106,1,277,161,37,0,0,301,135,-31222,348,,,,,,,,,,,,
241243,1560692769334,1,2.6,1.85,3.62,2.19,5.08,1.37,-0.9,0.44,12,-7,20,1.64,5881,8,89,36,28,979,348.0,453,460,60,118.0,106,1,276,161,37,0,0,298,-32256,-31222,348,45.698864,4.909966,33.5,186.5,1,1.645,0,0.0,1.175,2,0.78,4.0207
241263,1560692769354,1,2.58,1.85,3.64,2.21,5.06,1.44,-0.94,0.47,12,-6,23,1.72,5833,7,89,36,29,981,349.0,447,461,60,117.0,106,1,278,162,37,0,0,287,120,3327,349,,,,,,,,,,,,
241283,1560692769374,1,2.59,1.84,3.64,2.25,5.07,1.44,-0.96,0.39,12,-4,27,1.73,5792,8,89,36,29,980,347.0,449,462,60,117.0,106,1,277,162,37,0,0,288,110,-31222,347,,,,,,,,,,,,
241303,1560692769394,3,2.6,1.84,3.63,2.26,5.04,1.35,-0.97,0.29,13,0,30,1.66,5806,8,89,36,30,978,345.0,444,459,60,117.0,100,1,279,163,35,0,0,286,26880,4838,344,,,,,,,,,,,,
241323,1560692769410,2,2.6,1.85,3.63,2.25,5.07,1.14,-0.97,0.23,16,3,32,1.5,5771,8,89,36,31,977,343.0,431,455,60,118.0,100,1,282,163,35,0,0,288,25600,-32559,343,,,,,,,,,,,,
241343,1560692769430,1,2.6,1.84,3.63,2.23,5.07,0.9,-0.92,0.21,21,3,34,1.29,5730,8,89,36,31,975,338.0,419,453,60,119.0,100,1,281,164,35,0,0,282,95,170,338,45.698856,4.90996,32.51,186.6,1,1.645,0,0.0,1.1767,2,0.78,4.0224
241363,1560692769450,0,2.61,1.85,3.66,2.22,5.08,0.9,-0.9,0.25,23,-1,36,1.27,5690,8,89,36,32,975,338.0,420,451,60,119.0,100,1,283,164,35,0,0,271,23040,-22016,338,,,,,,,,,,,,
241383,1560692769470,-1,2.61,1.86,3.67,2.23,5.04,1.01,-0.94,0.3,22,-4,38,1.38,5649,8,89,36,33,975,337.0,424,455,60,117.0,100,1,285,170,35,0,0,271,85,165,337,,,,,,,,,,,,
241403,1560692769490,4,2.61,1.86,3.67,2.23,5.04,1.1,-0.95,0.22,21,-2,40,1.45,5580,8,89,36,33,974,335.0,413,462,60,117.0,107,1,284,169,36,0,0,270,80,160,336,,,,,,,,,,,,
241423,1560692769506,1,2.61,1.86,3.66,2.23,5.04,0.79,-0.93,0.14,25,3,40,1.23,5513,8,89,36,34,977,335.0,403,461,60,119.0,107,1,287,169,36,0,0,276,20480,-23296,335,,,,,,,,,,,,
241443,1560692769526,1,2.62,1.85,3.57,2.22,5.07,0.92,-0.92,0.23,26,-0,41,1.3,5458,8,89,36,34,979,332.0,410,456,60,118.0,107,1,286,179,36,0,0,279,41,-24576,332,45.698856,4.909953,31.76,186.7,1,1.645,0,0.0,1.1783,2,0.78,4.0241
241463,1560692769546,4,2.61,1.85,3.56,2.21,5.05,1.03,-0.91,0.22,24,0,42,1.37,5466,8,89,36,35,979,328.0,407,453,60,119.0,107,1,289,179,36,0,0,272,-16896,145,328,,,,,,,,,,,,
241483,1560692769566,1,2.62,1.84,3.61,2.21,5.04,0.87,-0.91,0.2,27,-0,42,1.26,5495,8,89,36,36,980,324.0,405,457,60,118.0,107,1,293,185,36,0,0,262,1886,-28416,324,,,,,,,,,,,,
241503,1560692769586,-1,2.62,1.85,3.62,2.2,5.05,0.98,-0.9,0.25,26,-4,43,1.34,5456,8,89,36,36,980,324.0,418,462,60,117.0,117,1,293,185,38,0,0,263,24064,-29696,324,,,,,,,,,,,,
241523,1560692769606,1,2.62,1.86,3.63,2.19,5.04,0.9,-0.94,0.21,25,-1,43,1.3,5408,8,89,36,37,981,322.0,403,454,60,119.0,117,1,296,191,38,0,0,264,-1534,125,322,,,,,,,,,,,,
241543,1560692769626,0,2.61,1.88,3.62,2.2,5.07,0.83,-0.88,0.25,30,-3,43,1.21,5354,8,89,36,37,977,319.0,396,446,60,119.0,117,1,295,190,38,0,0,266,-1534,29440,319,45.698849,4.909945,30.57,186.8,1,1.645,0,0.0,1.18,2,0.78,4.0257
241563,1560692769646,5,2.59,1.9,3.62,2.22,5.04,0.95,-0.9,0.26,26,-3,43,1.31,5340,8,89,36,38,972,318.0,406,461,60,117.0,117,1,299,196,38,0,0,263,250,120,317,,,,,,,,,,,,
241583,1560692769666,-1,2.58,1.9,3.6,2.21,5.04,0.7,-0.84,0.16,30,-2,43,1.09,5322,8,89,36,38,968,315.0,397,456,60,119.0,117,1,299,196,38,0,0,263,28160,110,315,,,,,,,,,,,,
241603,1560692769686,2,2.56,1.9,3.58,2.21,5.04,0.83,-0.73,0.21,26,-5,43,1.11,5268,8,89,36,39,963,313.0,393,461,60,118.0,124,1,302,203,39,0,0,261,28160,29440,313,,,,,,,,,,,,
241623,1560692769703,0,2.52,1.9,3.55,2.18,5.06,0.55,-0.66,0.06,29,1,43,0.86,5222,8,89,36,39,951,309.0,380,460,60,119.0,124,1,302,203,39,0,0,261,250,26880,309,,,,,,,,,,,,
241643,1560692769723,3,2.51,1.94,3.54,2.17,5.08,0.7,-0.65,0.12,26,-4,43,0.96,5230,8,89,36,40,942,307.0,398,455,60,117.0,124,1,303,204,39,0,0,266,250,95,307,45.698841,4.909936,29.04,186.9,1,1.645,0,0.0,1.1817,2,0.78,4.0274
241663,1560692769743,-2,2.47,1.94,3.51,2.14,5.06,0.46,-0.59,0.12,29,-0,42,0.74,5225,8,89,36,40,938,303.0,386,456,60,119.0,124,1,303,204,39,0,0,267,2414,21760,301,,,,,,,,,,,,
241683,1560692769763,4,2.43,1.94,3.47,2.14,5.05,0.61,-0.62,0.25,24,-4,40,0.87,5222,8,89,36,41,933,297.0,391,461,60,118.0,124,1,305,206,39,0,0,262,250,80,297,,,,,,,,,,,,
241703,1560692769801,-0,2.38,1.96,3.42,2.13,5.04,0.37,-0.5,0.17,26,0,39,0.62,5205,8,89,36,41,929,295.0,390,450,60,117.0,134,1,305,206,40,0,0,266,250,41,295,,,,,,,,,,,,
241723,1560692769821,1,2.35,2.01,3.38,2.11,5.04,0.53,-0.51,0.19,20,-3,36,0.74,5191,8,89,36,42,920,291.0,386,463,60,118.0,134,1,306,207,40,0,0,270,28160,10686,291,,,,,,,,,,,,
241743,1560692769841,-1,2.31,2.06,3.37,2.09,5.08,0.37,-0.3,0.18,23,-3,35,0.48,5146,8,89,36,42,917,288.0,382,454,60,118.0,134,1,305,207,40,0,0,270,28160,250,286,45.698837,4.909928,28.45,186.9,1,1.645,0,0.0,1.1833,2,0.78,4.029
241763,1560692769861,0,2.26,2.11,3.32,2.07,5.08,0.54,-0.37,0.25,16,-1,33,0.65,5136,8,89,36,43,912,283.0,378,459,60,118.0,134,1,306,209,40,0,0,274,250,250,283,,,,,,,,,,,,
241783,1560692769881,5,2.21,2.18,3.3,2.03,5.06,0.65,-0.17,0.32,17,-6,31,0.67,5120,8,89,36,43,910,279.0,387,460,60,117.0,134,1,306,209,40,0,0,275,630,-1,279,,,,,,,,,,,,
241803,1560692769899,-2,2.16,2.24,3.31,2.01,5.06,0.46,-0.13,0.28,13,1,28,0.48,5106,8,89,36,43,908,279.0,379,454,60,119.0,143,1,305,209,40,0,0,275,-1534,-1,275,,,,,,,,,,,,
241823,1560692769919,3,2.11,2.26,3.27,1.98,5.08,0.62,-0.07,0.38,10,-4,24,0.62,5051,8,89,36,44,908,282.0,375,460,60,118.0,143,1,304,211,40,0,0,275,1886,-1,273,,,,,,,,,,,,
241843,1560692769939,1,2.06,2.29,3.2,1.95,5.06,0.43,0.05,0.32,10,-1,21,0.43,5017,9,89,36,44,910,282.0,376,455,60,118.0,143,1,303,211,40,0,0,280,1886,-1,269,45.698837,4.909919,28.04,187.0,1,1.645,0,0.0,1.185,2,0.78,4.0307
241863,1560692769959,-2,2.02,2.29,3.14,1.95,5.06,0.48,0.02,0.32,5,2,16,0.48,5044,9,89,36,45,907,284.0,375,460,60,119.0,143,1,305,213,40,0,0,277,250,-1,265,,,,,,,,,,,,
241883,1560692769979,2,1.96,2.31,3.12,1.95,5.04,0.64,0.14,0.31,2,-4,15,0.65,4993,9,89,36,45,904,284.0,382,457,60,117.0,143,1,302,212,40,0,0,279,-1529,-10440,262,,,,,,,,,,,,
241903,1560692769997,-0,1.94,2.33,3.09,1.93,5.04,0.44,0.21,0.25,1,0,11,0.49,4953,9,89,36,45,900,284.0,374,456,60,118.0,153,1,302,214,40,0,0,280,250,-1,258,,,,,,,,,,,,
241923,1560692770017,1,1.91,2.35,3.08,1.88,5.04,0.52,0.27,0.27,-5,1,7,0.59,4980,10,89,36,47,896,285.0,376,458,60,119.0,153,1,304,214,40,0,0,279,-16896,-1494,254,,,,,,,,,,,,
241943,1560692770037,-1,1.9,2.37,3.08,1.85,5.05,0.67,0.42,0.31,-7,-3,4,0.79,4940,11,89,36,47,891,286.0,374,464,60,119.0,153,1,304,215,40,0,0,282,10686,-1494,251,45.698833,4.909911,26.93,187.0,1,1.645,0,0.0,1.1867,2,0.78,4.0324
241963,1560692770057,4,1.89,2.37,3.08,1.84,5.04,0.66,0.51,0.27,-8,-2,-0,0.84,4854,12,89,36,48,886,288.0,380,450,60,117.0,153,1,302,217,40,0,0,282,0,23482,249,,,,,,,,,,,,
241983,1560692770077,-1,1.89,2.37,3.08,1.81,5.07,0.56,0.54,0.29,-10,1,-6,0.78,4856,12,89,36,48,883,289.0,362,450,60,118.0,153,1,302,217,40,0,0,280,0,-1484,247,,,,,,,,,,,,
242003,1560692770094,-2,1.89,2.37,3.08,1.81,5.06,0.62,0.44,0.36,-14,2,-10,0.76,4839,13,89,36,50,882,287.0,358,455,60,119.0,161,1,301,219,40,0,0,280,41,13468,245,,,,,,,,,,,,
242023,1560692770114,2,1.87,2.37,3.08,1.83,5.03,0.76,0.5,0.37,-16,-2,-13,0.91,4797,13,89,36,50,881,286.0,357,456,60,119.0,161,1,301,221,40,0,0,277,10686,-1483,245,,,,,,,,,,,,
242043,1560692770134,3,1.86,2.4,3.08,1.84,5.07,0.8,0.54,0.34,-16,-3,-16,0.97,4789,13,89,36,51,881,284.0,360,453,60,117.0,161,1,300,224,40,0,0,278,250,-1483,242,45.69883,4.909903,25.9,187.2,1,1.645,0,0.0,1.1883,2,0.78,4.034
242063,1560692770154,-0,1.84,2.4,3.09,1.85,5.04,0.67,0.58,0.27,-17,1,-18,0.88,4796,14,89,36,51,880,284.0,359,448,60,118.0,161,1,300,227,40,0,0,275,250,8704,241,,,,,,,,,,,,
242083,1560692770174,0,1.84,2.37,3.08,1.83,5.04,0.62,0.61,0.31,-20,3,-20,0.87,4822,15,89,36,53,879,282.0,352,453,60,118.0,161,1,299,230,40,0,0,277,-1529,250,241,,,,,,,,,,,,
242103,1560692770193,0,1.85,2.37,3.08,1.81,5.07,0.74,0.52,0.37,-23,2,-22,0.91,4831,16,89,36,54,881,285.0,352,456,60,119.0,170,1,298,234,41,0,0,278,-16896,-1483,240,,,,,,,,,,,,
242123,1560692770213,-0,1.85,2.38,3.06,1.82,5.06,0.87,0.59,0.36,-24,-0,-23,1.05,4834,16,89,36,55,884,283.0,356,458,60,118.0,170,1,298,238,41,0,0,277,-1529,-1494,238,,,,,,,,,,,,
242143,1560692770233,4,1.84,2.38,3.05,1.82,5.04,0.8,0.65,0.34,-24,-0,-25,1.03,4838,17,89,36,56,890,282.0,359,453,60,117.0,170,1,298,242,41,0,0,274,1886,-1494,236,45.698826,4.909895,25.57,187.2,1,1.645,0,0.0,1.19,2,0.78,4.0357
242163,1560692770253,0,1.84,2.38,3.07,1.81,5.04,0.71,0.67,0.32,-25,3,-28,0.98,4832,17,89,36,56,895,281.0,356,442,60,118.0,170,1,298,242,41,0,0,276,24064,10824,237,,,,,,,,,,,,
242183,1560692770273,-1,1.85,2.38,3.05,1.83,5.03,0.74,0.62,0.39,-28,3,-31,0.96,4849,17,89,36,58,897,281.0,353,458,60,119.0,170,1,297,247,41,0,0,276,1886,10824,236,,,,,,,,,,,,
242203,1560692770293,-0,1.85,2.38,3.06,1.83,5.06,0.87,0.59,0.45,-28,0,-32,1.05,4844,18,89,36,58,897,281.0,351,454,60,119.0,194,1,297,251,46,0,0,274,24064,250,235,,,,,,,,,,,,
242223,1560692770309,3,1.84,2.38,3.05,1.85,5.04,0.89,0.63,0.41,-27,0,-34,1.09,4898,18,89,36,59,897,279.0,367,455,60,117.0,194,1,296,260,46,0,0,276,-1534,18432,235,,,,,,,,,,,,
242243,1560692770329,-0,1.84,2.38,3.06,1.85,5.05,0.75,0.63,0.37,-28,2,-35,0.98,4898,18,89,36,60,891,278.0,362,433,60,117.0,194,1,296,260,46,0,0,271,630,18432,236,45.698822,4.909888,24.92,187.2,1,1.645,0,0.0,1.1917,2,0.78,4.0374
242263,1560692770349,-1,1.85,2.38,3.07,1.82,5.08,0.79,0.59,0.43,-30,3,-35,0.98,4909,18,89,36,61,886,278.0,352,449,60,119.0,194,1,295,265,46,0,0,272,630,18432,235,,,,,,,,,,,,
242283,1560692770369,2,1.85,2.38,3.09,1.83,5.08,0.9,0.58,0.44,-30,-0,-36,1.07,4942,19,89,36,62,881,280.0,364,466,60,119.0,194,1,294,272,46,0,0,272,250,250,234,,,,,,,,,,,,
242303,1560692770389,3,1.87,2.39,3.08,1.84,5.04,0.87,0.6,0.38,-29,0,-38,1.06,4959,19,89,36,63,876,280.0,371,445,60,117.0,217,1,293,278,51,0,0,272,250,18432,233,,,,,,,,,,,,
242323,1560692770409,-0,1.87,2.38,3.09,1.85,5.04,0.75,0.55,0.42,-30,3,-39,0.92,4996,19,89,36,63,875,279.0,364,446,60,118.0,217,1,293,278,51,0,0,270,30208,250,233,,,,,,,,,,,,
242343,1560692770429,3,1.87,2.38,3.07,1.85,5.04,0.87,0.57,0.5,-31,-1,-40,1.04,5037,19,89,36,64,875,276.0,371,440,60,118.0,217,1,294,286,51,0,0,271,250,10824,233,45.698818,4.909883,24.42,187.5,1,1.645,0,0.0,1.1933,2,0.78,4.0391
242363,1560692770449,0,1.88,2.38,3.07,1.84,5.04,0.75,0.65,0.44,-29,0,-40,1.0,5074,20,89,36,64,883,276.0,376,417,60,117.0,217,1,297,285,51,0,0,268,250,18432,234,,,,,,,,,,,,
242383,1560692770469,1,1.9,2.38,3.07,1.83,5.07,0.7,0.6,0.5,-31,2,-41,0.92,5086,20,89,37,64,890,276.0,363,420,60,119.0,217,1,298,285,51,0,0,272,250,8704,233,,,,,,,,,,,,
242403,1560692770489,4,1.92,2.37,3.06,1.84,5.08,0.81,0.66,0.54,-30,-0,-42,1.04,5084,20,89,37,65,900,275.0,385,440,60,117.0,240,1,292,293,56,0,0,273,-1527,-25600,235,,,,,,,,,,,,
242423,1560692770505,0,1.95,2.38,3.07,1.87,5.03,0.65,0.62,0.51,-29,2,-42,0.9,4932,20,89,37,66,906,275.0,373,422,60,117.0,240,1,288,299,56,0,0,274,-1527,10812,236,,,,,,,,,,,,
242443,1560692770525,-2,1.98,2.41,3.07,1.92,5.05,0.66,0.56,0.59,-30,3,-42,0.87,4838,21,89,37,66,915,275.0,354,434,60,118.0,240,1,290,297,56,0,0,274,-1527,-1,239,45.698814,4.909878,24.14,187.5,1,1.645,0,0.0,1.195,2,0.79,4.0407
242463,1560692770545,-0,2.0,2.42,3.07,1.95,5.06,0.8,0.57,0.68,-29,0,-42,0.98,4727,21,89,37,67,924,275.0,345,448,60,119.0,240,1,289,295,56,0,0,272,-1527,-1494,241,,,,,,,,,,,,
242483,1560692770565,1,2.05,2.41,3.07,1.96,5.08,0.84,0.57,0.71,-27,-2,-41,1.01,4665,21,89,37,67,928,274.0,343,464,60,118.0,240,1,290,308,56,0,0,273,2414,15360,244,,,,,,,,,,,,
242503,1560692770585,2,2.08,2.38,3.09,2.0,5.03,0.89,0.56,0.67,-25,-2,-40,1.05,4680,21,89,37,68,930,273.0,351,454,60,118.0,217,1,289,308,53,0,0,272,-1281,23482,245,,,,,,,,,,,,
242523,1560692770605,2,2.13,2.36,3.13,1.99,5.06,0.77,0.5,0.61,-23,-2,-39,0.92,4788,21,89,37,68,935,270.0,347,459,60,116.0,217,1,287,309,53,0,0,269,-1,15360,247,,,,,,,,,,,,
242543,1560692770625,0,2.15,2.34,3.17,2.01,5.04,0.63,0.36,0.54,-23,4,-38,0.73,4799,22,89,37,68,943,270.0,351,443,60,118.0,217,1,287,310,53,0,0,267,-1,10812,248,45.698807,4.909873,24.27,187.7,1,1.645,0,0.0,1.1967,2,0.79,4.0424
242563,1560692770645,-0,2.18,2.33,3.2,2.03,5.04,0.65,0.26,0.6,-24,1,-36,0.7,4881,22,89,37,69,948,266.0,343,443,60,119.0,217,1,286,312,53,0,0,264,-1,16896,249,,,,,,,,,,,,
242583,1560692770665,2,2.22,2.31,3.2,2.02,5.06,0.79,0.28,0.71,-22,-2,-33,0.83,4968,22,89,37,70,952,263.0,351,461,60,118.0,217,1,285,323,53,0,0,263,-1,-1,252,,,,,,,,,,,,
242603,1560692770699,5,2.25,2.3,3.2,2.02,5.05,0.74,0.32,0.61,-18,1,-31,0.8,4970,23,89,37,70,955,264.0,367,455,60,117.0,238,1,285,323,60,0,0,264,-1,-1,254,,,,,,,,,,,,
242623,1560692770719,-1,2.29,2.28,3.19,2.03,5.04,0.59,0.17,0.65,-18,1,-29,0.62,5014,23,89,37,70,958,265.0,361,450,60,118.0,238,1,284,325,60,0,0,265,-1,-1,257,,,,,,,,,,,,
242643,1560692770739,1,2.34,2.27,3.19,2.09,5.04,0.74,0.15,0.74,-16,-0,-26,0.75,5004,23,89,37,71,958,263.0,360,462,60,118.0,238,1,283,329,60,0,0,265,-1,-1,260,45.698799,4.909869,24.65,187.8,1,1.645,0,0.0,1.1983,2,0.79,4.0441
242663,1560692770759,5,2.36,2.27,3.22,2.13,5.06,0.63,0.14,0.69,-11,0,-23,0.64,4972,24,89,37,71,957,264.0,366,455,60,117.0,238,1,284,327,60,0,0,263,-1,-1,264,,,,,,,,,,,,
242683,1560692770779,-2,2.42,2.26,3.26,2.16,5.07,0.48,-0.01,0.7,-10,3,-21,0.48,4961,24,89,37,71,955,266.0,353,443,60,119.0,238,1,284,327,60,0,0,263,-1,-1,268,,,,,,,,,,,,
242703,1560692770798,0,2.45,2.24,3.29,2.18,5.07,0.63,-0.04,0.8,-8,2,-18,0.63,4932,24,89,37,72,952,271.0,349,450,60,119.0,227,1,284,331,61,0,0,265,-41,-1,271,,,,,,,,,,,,
242723,1560692770818,2,2.49,2.24,3.34,2.23,5.04,0.63,-0.01,0.71,-4,1,-14,0.63,4966,24,89,37,72,951,274.0,365,457,60,117.0,227,1,284,332,61,0,0,264,14337,-1281,274,,,,,,,,,,,,
242743,1560692770838,-1,2.52,2.22,3.38,2.24,5.04,0.44,-0.11,0.68,-3,4,-12,0.46,5004,24,89,37,72,949,276.0,358,444,60,118.0,227,1,283,334,61,0,0,263,14337,28160,276,45.698799,4.909865,25.06,187.8,1,1.645,0,0.0,1.2,2,0.79,4.0457
242763,1560692770858,0,2.54,2.22,3.41,2.25,5.03,0.6,-0.07,0.7,-2,3,-9,0.61,5002,24,89,37,73,946,277.0,361,461,60,118.0,227,1,283,334,61,0,0,262,14337,2414,277,,,,,,,,,,,,
242783,1560692770878,4,2.56,2.22,3.45,2.26,5.05,0.71,-0.07,0.71,2,-1,-6,0.71,5059,24,89,37,73,943,279.0,370,454,60,116.0,227,1,286,341,61,0,0,266,-1281,-1534,279,,,,,,,,,,,,
242803,1560692770896,-0,2.58,2.21,3.43,2.28,5.05,0.65,-0.2,0.69,3,2,-4,0.68,5096,24,89,37,72,941,282.0,367,447,60,118.0,232,1,289,337,65,0,0,261,506,30208,282,,,,,,,,,,,,
242823,1560692770916,3,2.61,2.19,3.4,2.28,5.04,0.77,-0.13,0.7,5,-1,-0,0.78,5132,25,89,37,73,939,283.0,363,465,60,119.0,232,1,291,338,65,0,0,260,-1,-1529,285,,,,,,,,,,,,
242843,1560692770936,-0,2.63,2.17,3.41,2.29,5.08,0.61,-0.22,0.65,9,1,1,0.65,5148,25,89,37,72,937,287.0,369,443,60,118.0,232,1,292,339,65,0,0,262,-1,250,287,45.698792,4.909861,25.91,187.9,1,1.645,0,0.0,1.2017,2,0.79,4.0474
242863,1560692770956,1,2.63,2.17,3.41,2.3,5.06,0.75,-0.25,0.67,9,-2,4,0.79,5175,25,89,37,72,934,288.0,369,466,60,118.0,232,1,294,340,65,0,0,262,-1,10686,288,,,,,,,,,,,,
242883,1560692770976,0,2.65,2.16,3.43,2.32,5.05,0.62,-0.31,0.65,13,-3,7,0.69,5153,25,89,37,72,935,290.0,375,448,60,118.0,232,1,293,339,65,0,0,267,-1,41,290,,,,,,,,,,,,
242903,1560692770992,0,2.68,2.14,3.44,2.31,5.07,0.72,-0.41,0.68,13,-1,10,0.83,5155,25,89,37,72,934,292.0,365,456,60,119.0,223,1,293,339,65,0,0,266,-1,41,292,,,,,,,,,,,,
242923,1560692771012,5,2.69,2.15,3.44,2.32,5.04,0.68,-0.44,0.66,16,-5,13,0.8,5180,25,89,37,72,937,294.0,375,454,60,117.0,223,1,295,341,65,0,0,267,-1281,20480,295,,,,,,,,,,,,
242943,1560692771032,-2,2.71,2.15,3.44,2.32,5.07,0.67,-0.5,0.66,17,-3,15,0.83,5228,25,89,37,72,942,298.0,370,450,60,119.0,223,1,298,334,65,0,0,264,-1281,85,298,45.698784,4.909857,25.9,187.8,1,1.645,0,0.0,1.2033,2,0.79,4.049
242963,1560692771052,4,2.72,2.14,3.46,2.36,5.05,0.67,-0.49,0.63,19,-7,16,0.82,5205,25,89,37,72,946,299.0,378,465,60,117.0,223,1,299,341,65,0,0,268,-1281,80,299,,,,,,,,,,,,
242983,1560692771072,-0,2.73,2.12,3.48,2.35,5.07,0.6,-0.55,0.52,20,-2,19,0.81,5250,25,89,37,71,951,300.0,374,452,60,119.0,223,1,301,335,65,0,0,267,506,23040,304,,,,,,,,,,,,
243003,1560692771092,3,2.74,2.13,3.48,2.37,5.06,0.64,-0.52,0.5,23,-6,23,0.82,5287,25,89,37,71,954,303.0,384,457,60,116.0,220,1,304,336,67,0,0,268,506,25600,303,,,,,,,,,,,,
243023,1560692771108,-1,2.75,2.12,3.48,2.38,5.07,0.56,-0.58,0.43,23,-3,26,0.8,5331,25,89,37,71,956,304.0,380,456,60,119.0,220,1,307,336,67,0,0,267,-1281,24320,304,,,,,,,,,,,,
243043,1560692771128,0,2.76,2.13,3.49,2.39,5.05,0.57,-0.63,0.46,26,-6,28,0.85,5351,25,89,37,71,957,304.0,390,455,60,117.0,220,1,308,337,67,0,0,269,506,24320,305,45.698776,4.909852,26.38,187.9,1,1.645,0,0.0,1.205,2,0.79,4.0507
243063,1560692771148,2,2.78,2.12,3.5,2.39,5.04,0.67,-0.66,0.48,26,-2,30,0.94,5360,25,89,37,70,955,307.0,378,459,60,118.0,220,1,309,328,67,0,0,277,-1281,26880,307,,,,,,,,,,,,
243083,1560692771168,0,2.78,2.12,3.49,2.4,5.05,0.48,-0.64,0.44,29,-4,32,0.8,5389,25,89,37,70,952,307.0,388,451,60,117.0,220,1,311,329,67,0,0,273,-10440,26880,307,,,,,,,,,,,,
243103,1560692771188,5,2.79,2.1,3.53,2.38,5.06,0.63,-0.74,0.52,28,-4,35,0.98,5434,26,89,37,70,948,311.0,388,458,60,118.0,217,1,315,329,67,0,0,287,-10440,110,311,,,,,,,,,,,,
243123,1560692771208,1,2.79,2.09,3.53,2.39,5.06,0.49,-0.69,0.46,30,-1,37,0.85,5476,26,89,37,69,942,312.0,384,455,60,119.0,217,1,319,321,67,0,0,288,-10440,105,312,,,,,,,,,,,,
243143,1560692771228,0,2.79,2.09,3.53,2.39,5.04,0.51,-0.75,0.5,32,-3,38,0.91,5560,26,89,37,69,941,313.0,392,454,60,118.0,217,1,325,321,67,0,0,275,-10440,115,313,45.698776,4.909846,27.03,187.9,1,1.645,0,0.0,1.2067,2,0.79,4.0524
243163,1560692771248,4,2.78,2.07,3.52,2.39,5.04,0.66,-0.83,0.57,32,-3,41,1.06,5598,26,89,37,69,936,314.0,403,456,60,117.0,217,1,328,321,67,0,0,278,-10440,29440,314,,,,,,,,,,,,
243183,1560692771268,2,2.79,2.1,3.53,2.4,5.04,0.68,-0.8,0.51,32,-2,42,1.05,5608,26,89,37,68,929,316.0,396,458,60,118.0,217,1,328,309,67,0,0,296,-1,125,316,,,,,,,,,,,,
243203,1560692771302,1,2.78,2.09,3.55,2.4,5.04,0.59,-0.75,0.41,34,-1,43,0.95,5686,26,89,37,67,923,316.0,402,456,60,119.0,203,1,337,300,64,0,0,315,-1,120,316,,,,,,,,,,,,
243223,1560692771322,-2,2.78,2.09,3.55,2.39,5.06,0.53,-0.78,0.49,37,-4,44,0.95,5808,26,89,37,66,918,317.0,413,452,60,118.0,203,1,349,290,64,0,0,311,-1,32000,317,,,,,,,,,,,,
243243,1560692771342,-2,2.78,2.09,3.54,2.42,5.05,0.57,-0.82,0.62,37,-6,46,1.0,5927,26,89,37,65,912,317.0,416,456,60,118.0,203,1,362,280,64,0,0,298,-1,125,317,45.698769,4.909841,27.65,187.8,1,1.645,0,0.0,1.2083,2,0.79,4.054
243263,1560692771362,-1,2.76,2.09,3.54,2.44,5.07,0.69,-0.9,0.72,36,-7,48,1.13,6005,26,89,37,64,906,319.0,431,458,60,117.0,203,1,372,271,64,0,0,318,-1,-30976,319,,,,,,,,,,,,
243283,1560692771382,-2,2.75,2.1,3.51,2.45,5.06,0.79,-0.98,0.85,36,-7,50,1.26,6025,26,89,37,63,898,320.0,441,461,60,117.0,203,1,376,263,64,0,0,316,-1,-29696,320,,,,,,,,,,,,
243303,1560692771402,-0,2.71,2.1,3.47,2.48,5.04,0.9,-1.04,0.95,36,-8,52,1.38,6005,26,89,36,62,896,322.0,430,456,60,118.0,187,1,378,254,60,0,0,326,-1,150,322,,,,,,,,,,,,
243323,1560692771422,-1,2.69,2.11,3.45,2.5,5.04,0.95,-1.09,1.05,35,-10,54,1.44,5977,26,89,36,61,893,323.0,426,456,60,118.0,187,1,379,255,60,0,0,324,-1,155,323,,,,,,,,,,,,
243343,1560692771442,-1,2.64,2.1,3.43,2.49,5.04,0.98,-1.1,1.14,35,-11,55,1.47,5937,26,89,36,61,885,324.0,426,454,60,118.0,187,1,375,248,60,0,0,311,2414,-23296,324,45.698765,4.909833,27.75,187.8,1,1.645,0,0.0,1.21,2,0.79,4.0557
243363,1560692771462,-0,2.59,2.1,3.41,2.48,5.08,1.02,-1.08,1.21,34,-10,55,1.49,5877,26,89,36,62,878,325.0,426,458,60,118.0,187,1,367,257,60,0,0,311,30208,155,325,,,,,,,,,,,,
243383,1560692771482,0,2.53,2.14,3.36,2.47,5.04,1.12,-1.08,1.22,32,-9,55,1.56,5833,26,89,36,61,874,325.0,425,459,60,118.0,187,1,366,258,60,0,0,315,1886,-27136,325,,,,,,,,,,,,
243403,1560692771498,-0,2.49,2.19,3.31,2.45,5.08,1.15,-1.0,1.16,29,-7,54,1.52,5817,26,89,36,62,870,323.0,416,459,60,117.0,175,1,362,258,57,0,0,306,0,-23296,323,,,,,,,,,,,,
243423,1560692771518,4,2.45,2.24,3.29,2.42,5.04,1.12,-0.89,1.04,27,-3,52,1.43,5819,27,89,36,62,870,323.0,415,457,60,117.0,175,1,362,258,57,0,0,310,23040,-24576,323,,,,,,,,,,,,
243443,1560692771538,1,2.42,2.27,3.3,2.4,5.05,1.03,-0.81,0.92,26,0,49,1.31,5828,27,89,36,62,871,323.0,412,452,60,119.0,175,1,363,258,57,0,0,310,95,-25856,322,45.698761,4.909825,28.38,187.7,1,1.645,0,0.0,1.2117,2,0.79,4.0574
243463,1560692771558,3,2.36,2.33,3.29,2.37,5.07,0.86,-0.71,0.86,26,0,47,1.11,5875,27,89,36,62,876,321.0,416,455,60,118.0,175,1,367,257,57,0,0,310,26880,-25856,321,,,,,,,,,,,,
243483,1560692771578,3,2.34,2.36,3.24,2.35,5.04,0.71,-0.54,0.83,25,1,44,0.89,5950,27,89,36,62,882,320.0,417,452,60,119.0,175,1,373,255,57,0,0,312,115,-25856,320,,,,,,,,,,,,
243503,1560692771598,2,2.3,2.37,3.23,2.32,5.07,0.63,-0.36,0.85,23,-1,40,0.72,6011,27,89,36,62,895,321.0,426,448,60,119.0,178,1,378,254,57,0,0,318,125,-25856,321,,,,,,,,,,,,
243523,1560692771618,3,2.29,2.38,3.22,2.31,5.04,0.53,-0.19,0.82,22,-3,36,0.56,6060,28,89,36,62,914,320.0,430,453,60,118.0,178,1,380,249,57,0,0,319,-30976,155,321,,,,,,,,,,,,
243543,1560692771638,3,2.27,2.38,3.2,2.29,5.05,0.39,-0.03,0.74,20,-3,33,0.39,6097,28,89,36,61,925,320.0,440,453,60,118.0,178,1,385,250,57,0,0,324,140,155,320,45.698757,4.909816,29.46,187.6,1,1.645,0,0.0,1.2133,2,0.79,4.0591
243563,1560692771658,3,2.24,2.38,3.18,2.27,5.04,0.32,0.04,0.69,18,-2,30,0.32,6115,28,89,36,61,933,320.0,443,457,60,118.0,178,1,385,251,57,0,0,328,-27136,160,321,,,,,,,,,,,,
243583,1560692771678,5,2.23,2.39,3.13,2.28,5.04,0.25,0.08,0.63,17,-0,28,0.26,6109,28,89,36,61,933,323.0,441,459,60,117.0,178,1,384,251,57,0,0,330,-24576,165,322,,,,,,,,,,,,
243603,1560692771696,-1,2.23,2.38,3.05,2.28,5.07,0.25,0.12,0.54,15,2,25,0.28,6093,29,89,36,61,932,325.0,445,462,60,117.0,177,1,384,250,57,0,0,332,-23296,170,323,,,,,,,,,,,,
243623,1560692771716,-1,2.22,2.37,3.05,2.27,5.05,0.25,0.1,0.46,14,4,23,0.27,6083,29,89,36,62,924,328.0,447,462,60,117.0,177,1,381,258,57,0,0,331,170,-23296,324,,,,,,,,,,,,
243643,1560692771736,-0,2.21,2.35,3.05,2.27,5.07,0.24,0.03,0.42,12,6,22,0.24,6119,30,89,36,62,915,329.0,442,457,60,117.0,177,1,383,259,57,0,0,333,-20736,175,326,45.698757,4.909806,30.25,187.7,1,1.645,0,0.0,1.215,2,0.79,4.0607
243663,1560692771756,-1,2.2,2.34,3.04,2.27,5.07,0.36,-0.05,0.44,10,6,20,0.36,6177,31,89,36,62,916,331.0,446,453,60,117.0,177,1,385,261,57,0,0,334,-12032,-32559,327,,,,,,,,,,,,
243683,1560692771776,0,2.21,2.35,3.04,2.27,5.08,0.52,-0.12,0.53,8,6,17,0.53,6212,31,89,36,63,921,331.0,442,458,60,118.0,177,1,383,271,57,0,0,336,-12032,175,327,,,,,,,,,,,,
243703,1560692771793,1,2.2,2.34,3.05,2.28,5.06,0.62,-0.11,0.56,6,5,15,0.62,6237,32,89,36,63,929,332.0,445,457,60,118.0,195,1,384,272,64,0,0,333,-32559,-32559,328,,,,,,,,,,,,
243723,1560692771813,4,2.2,2.33,3.06,2.27,5.06,0.61,-0.03,0.58,5,4,13,0.61,6258,32,89,36,64,947,335.0,445,455,60,118.0,195,1,381,279,64,0,0,337,4838,-32559,329,,,,,,,,,,,,
243743,1560692771833,3,2.2,2.34,3.07,2.28,5.04,0.55,0.05,0.48,4,6,13,0.55,6281,32,89,36,64,965,335.0,448,456,60,118.0,195,1,382,280,64,0,0,339,3346,-122,329,45.698753,4.909796,31.21,187.7,1,1.645,0,0.0,1.2167,2,0.79,4.0624
243763,1560692771853,-2,2.2,2.33,3.07,2.27,5.07,0.52,0.02,0.35,3,7,14,0.52,6304,32,89,36,64,1002,337.0,457,452,60,117.0,195,1,383,281,64,0,0,341,2560,-31222,331,,,,,,,,,,,,
243783,1560692771873,-1,2.2,2.32,3.06,2.27,5.06,0.58,-0.13,0.44,2,8,14,0.59,6336,33,89,36,64,1026,338.0,460,454,60,118.0,195,1,384,282,64,0,0,340,-31222,-31222,331,,,,,,,,,,,,
243803,1560692771893,2,2.2,2.33,3.07,2.26,5.08,0.65,-0.14,0.59,0,7,13,0.66,6358,33,89,36,64,1043,340.0,455,456,60,119.0,201,1,385,283,67,0,0,340,3327,-31222,333,,,,,,,,,,,,
243823,1560692771909,3,2.21,2.35,3.09,2.24,5.05,0.65,0.07,0.55,-1,5,12,0.65,6394,33,89,36,65,1059,340.0,463,456,60,118.0,201,1,383,284,67,0,0,344,3327,3327,331,,,,,,,,,,,,
243843,1560692771929,-1,2.2,2.35,3.09,2.24,5.07,0.68,0.1,0.51,-2,4,12,0.69,6399,33,89,36,65,1088,341.0,472,453,60,117.0,201,1,383,291,67,0,0,341,6668,-31206,332,45.69875,4.909786,31.97,187.8,1,1.645,0,0.0,1.2183,2,0.8,4.0641
243863,1560692771949,0,2.2,2.35,3.11,2.22,5.04,0.68,0.05,0.58,-2,4,12,0.68,6388,33,89,36,65,1117,343.0,470,447,60,118.0,201,1,383,291,67,0,0,343,-14714,-122,335,,,,,,,,,,,,
243883,1560692771969,3,2.21,2.35,3.13,2.19,5.08,0.65,0.01,0.7,-3,3,10,0.65,6430,34,89,36,65,1128,344.0,467,449,60,119.0,201,1,384,292,67,0,0,346,-10554,6668,337,,,,,,,,,,,,
243903,1560692771989,-1,2.23,2.34,3.13,2.19,5.08,0.63,0.15,0.65,-3,5,8,0.65,6436,34,89,36,65,1143,346.0,465,452,60,118.0,213,1,384,292,72,0,0,346,-30438,6870,338,,,,,,,,,,,,
243923,1560692772003,-2,2.23,2.35,3.13,2.17,5.04,0.64,0.12,0.55,-3,6,7,0.65,6483,34,89,36,65,1162,347.0,474,453,60,118.0,213,1,386,294,72,0,0,349,8841,6870,338,,,,,,,,,,,,
243943,1560692772023,4,2.24,2.34,3.15,2.16,5.04,0.72,0.08,0.68,-3,3,5,0.72,6485,34,89,36,65,1183,348.0,470,447,60,119.0,213,1,386,294,72,0,0,349,8841,-30438,339,45.698746,4.909775,32.36,187.9,1,1.645,0,0.0,1.22,2,0.8,4.0657
243963,1560692772043,5,2.24,2.35,3.13,2.16,5.04,0.71,0.08,0.72,-4,1,3,0.72,6512,34,89,36,65,1193,346.0,465,451,60,118.0,213,1,387,295,72,0,0,348,-30438,-10554,341,,,,,,,,,,,,
243983,1560692772063,-2,2.25,2.35,3.17,2.15,5.06,0.65,0.1,0.61,-4,1,2,0.66,6508,34,89,36,65,1202,348.0,471,455,60,117.0,213,1,387,295,72,0,0,348,-1246,8841,343,,,,,,,,,,,,
244003,1560692772101,4,2.25,2.35,3.19,2.15,5.06,0.72,0.09,0.65,-3,3,0,0.72,6555,34,89,36,65,1217,348.0,470,455,60,119.0,212,1,388,297,73,0,0,350,-1246,3183,343,,,,,,,,,,,,
244023,1560692772121,-1,2.27,2.36,3.18,2.14,5.04,0.7,0.12,0.65,-3,3,-1,0.71,6609,34,89,36,65,1232,350.0,466,453,60,117.0,212,1,391,299,73,0,0,353,-30454,3302,345,,,,,,,,,,,,
244043,1560692772141,3,2.27,2.37,3.18,2.15,5.04,0.67,0.01,0.64,-3,4,-1,0.67,6665,35,89,36,65,1240,349.0,477,450,60,118.0,212,1,393,300,73,0,0,351,2811,3302,346,45.698742,4.909765,32.98,187.9,1,1.645,0,0.0,1.2217,2,0.8,4.0674
244063,1560692772161,1,2.29,2.35,3.18,2.14,5.07,0.71,0.1,0.67,-3,4,0,0.72,6734,35,89,36,65,1247,351.0,480,460,60,118.0,212,1,395,302,73,0,0,353,3183,3302,351,,,,,,,,,,,,
244083,1560692772181,0,2.31,2.35,3.17,2.13,5.07,0.75,0.02,0.72,-2,4,1,0.75,6730,35,89,36,65,1248,352.0,481,448,60,119.0,212,1,395,302,73,0,0,359,3183,2790,354,,,,,,,,,,,,
244103,1560692772197,-1,2.32,2.35,3.16,2.14,5.04,0.69,0.09,0.73,-1,6,1,0.7,6759,35,89,36,65,1250,355.0,482,454,60,118.0,220,1,396,303,78,0,0,360,3183,3082,355,,,,,,,,,,,,
244123,1560692772217,2,2.33,2.35,3.17,2.17,5.07,0.68,0.02,0.77,-0,4,2,0.68,6825,35,89,36,65,1244,355.0,490,452,60,118.0,220,1,399,306,78,0,0,362,3302,2790,355,,,,,,,,,,,,
244143,1560692772237,0,2.34,2.35,3.18,2.17,5.04,0.61,0.11,0.83,0,4,2,0.62,6875,36,89,36,65,1237,359.0,496,455,60,117.0,220,1,400,307,78,0,0,364,4104,-1268,359,45.698738,4.909754,33.44,188.0,1,1.645,0,0.0,1.2233,2,0.8,4.069
244163,1560692772257,3,2.36,2.35,3.22,2.17,5.07,0.64,0.02,0.94,1,2,1,0.64,6858,36,89,36,65,1222,362.0,490,456,60,118.0,220,1,400,307,78,0,0,366,4104,486,362,,,,,,,,,,,,
244183,1560692772277,0,2.37,2.35,3.22,2.19,5.08,0.57,-0.0,0.9,2,4,0,0.57,6929,36,89,36,65,1205,365.0,497,453,60,117.0,220,1,403,309,78,0,0,369,-29978,1,365,,,,,,,,,,,,
244203,1560692772297,-0,2.38,2.36,3.25,2.22,5.08,0.64,-0.04,0.96,2,1,0,0.64,6996,36,89,35,65,1195,367.0,493,458,60,118.0,219,1,405,306,80,0,0,371,-29302,-6656,367,,,,,,,,,,,,
244223,1560692772317,2,2.39,2.36,3.26,2.2,5.04,0.69,-0.13,1.01,3,0,0,0.7,7030,36,89,35,64,1183,370.0,492,451,60,119.0,219,1,411,308,80,0,0,374,2790,2278,370,,,,,,,,,,,,
244243,1560692772337,1,2.41,2.35,3.26,2.21,5.07,0.51,-0.08,0.83,4,3,2,0.52,7104,36,89,35,64,1149,374.0,498,456,60,117.0,219,1,414,310,80,0,0,377,3082,19125,374,45.698734,4.909743,34.21,188.1,1,1.645,0,0.0,1.225,2,0.8,4.0707
244263,1560692772357,-1,2.4,2.33,3.26,2.23,5.04,0.44,-0.05,0.82,5,2,3,0.44,7137,36,89,35,64,1124,378.0,500,456,60,117.0,219,1,415,310,80,0,0,381,-1268,-19126,378,,,,,,,,,,,,
244283,1560692772377,3,2.43,2.34,3.26,2.25,5.06,0.57,-0.08,0.93,5,-0,3,0.58,7153,37,89,35,64,1098,380.0,504,456,60,118.0,219,1,416,311,80,0,0,381,-6405,240,380,,,,,,,,,,,,
244303,1560692772393,4,2.43,2.33,3.26,2.27,5.04,0.56,-0.17,0.93,7,2,4,0.58,7231,37,89,35,63,1074,384.0,510,454,60,118.0,221,1,423,307,84,0,0,381,0,-6475,384,,,,,,,,,,,,
244323,1560692772413,2,2.44,2.3,3.25,2.26,5.05,0.48,-0.18,0.91,8,1,5,0.51,7256,37,89,35,63,1043,385.0,506,453,60,118.0,221,1,424,307,84,0,0,387,257,-1562,386,,,,,,,,,,,,
244343,1560692772433,2,2.44,2.29,3.25,2.29,5.08,0.43,-0.15,0.85,9,1,7,0.45,7335,37,89,35,63,1010,390.0,521,453,60,118.0,221,1,426,309,84,0,0,389,257,-3968,391,45.69873,4.909732,35.14,188.1,1,1.645,0,0.0,1.2267,2,0.8,4.0724
244363,1560692772453,2,2.44,2.29,3.25,2.36,5.05,0.4,-0.11,0.79,9,2,8,0.41,7370,37,89,35,62,988,393.0,523,454,60,117.0,221,1,431,309,84,0,0,395,257,-32702,393,,,,,,,,,,,,
244383,1560692772473,1,2.44,2.3,3.24,2.37,5.05,0.5,-0.16,0.78,9,-1,9,0.53,7464,37,89,35,62,979,395.0,524,456,60,117.0,221,1,434,305,84,0,0,392,770,-3968,395,,,,,,,,,,,,
244403,1560692772493,2,2.45,2.28,3.25,2.36,5.04,0.59,-0.13,0.78,9,1,10,0.6,7482,37,89,35,62,968,398.0,530,455,60,117.0,217,1,434,306,86,0,0,397,3,-6656,398,,,,,,,,,,,,
244423,1560692772513,-0,2.45,2.26,3.26,2.35,5.07,0.62,-0.22,0.77,10,0,11,0.65,7554,38,89,35,61,957,400.0,543,458,60,117.0,217,1,438,300,86,0,0,410,-992,10541,400,,,,,,,,,,,,
244443,1560692772533,3,2.45,2.24,3.29,2.35,5.06,0.58,-0.13,0.74,11,1,12,0.59,7597,38,89,35,61,954,405.0,543,454,60,117.0,217,1,439,300,86,0,0,411,19125,10392,405,45.698727,4.909719,36.72,188.1,1,1.645,0,0.0,1.2283,2,0.8,4.074
244463,1560692772553,2,2.45,2.25,3.28,2.37,5.04,0.53,-0.15,0.61,12,-1,13,0.55,7709,38,89,35,60,953,406.0,543,452,60,117.0,217,1,434,302,86,0,0,408,-19019,11560,406,,,,,,,,,,,,
244483,1560692772573,4,2.45,2.27,3.24,2.37,5.04,0.52,-0.15,0.58,12,-1,15,0.54,7738,38,89,35,60,944,406.0,541,451,60,118.0,217,1,435,296,86,0,0,406,-19019,2524,406,,,,,,,,,,,,
244503,1560692772593,5,2.46,2.27,3.28,2.37,5.05,0.52,-0.18,0.58,12,-2,16,0.55,7786,38,89,35,59,932,407.0,556,455,60,118.0,214,1,428,290,87,0,0,421,240,-9166,408,,,,,,,,,,,,
244523,1560692772607,0,2.45,2.28,3.31,2.35,5.05,0.59,-0.27,0.72,12,0,15,0.65,7789,38,89,35,59,924,411.0,547,456,60,117.0,214,1,428,290,87,0,0,423,1,-9166,414,,,,,,,,,,,,
244543,1560692772627,2,2.45,2.26,3.32,2.32,5.04,0.6,-0.31,0.81,13,0,15,0.68,7855,38,89,35,59,911,418.0,547,460,60,117.0,214,1,430,291,87,0,0,422,-32702,-3414,418,45.698723,4.909707,37.54,188.2,1,1.645,0,0.0,1.23,2,0.8,4.0757
244563,1560692772647,2,2.46,2.25,3.32,2.32,5.07,0.57,-0.29,0.73,13,1,16,0.64,7904,38,89,35,59,899,421.0,550,457,60,117.0,214,1,430,285,87,0,0,427,-32702,-3314,421,,,,,,,,,,,,
244583,1560692772667,3,2.46,2.25,3.29,2.33,5.04,0.59,-0.28,0.65,14,1,19,0.65,7948,38,89,35,57,878,422.0,558,455,60,118.0,214,1,414,286,87,0,0,415,6384,31796,422,,,,,,,,,,,,
244603,1560692772694,0,2.45,2.24,3.29,2.34,5.03,0.58,-0.37,0.7,14,1,20,0.69,8026,38,89,35,57,861,423.0,556,452,60,118.0,201,1,415,282,85,0,0,425,11545,13552,423,,,,,,,,,,,,
244623,1560692772714,3,2.45,2.25,3.31,2.33,5.08,0.62,-0.39,0.76,15,4,20,0.73,8074,38,89,35,57,848,426.0,568,457,60,117.0,201,1,415,284,85,0,0,432,-8151,243,426,,,,,,,,,,,,
244643,1560692772734,1,2.46,2.27,3.34,2.35,5.03,0.6,-0.48,0.7,15,1,20,0.77,8095,38,89,35,55,836,428.0,573,453,60,118.0,201,1,398,278,85,0,0,439,1504,-768,428,45.698719,4.909694,38.89,188.3,1,1.645,0,0.0,1.2317,2,0.8,4.0774
244663,1560692772754,3,2.45,2.26,3.34,2.34,5.03,0.64,-0.49,0.68,16,6,19,0.81,8180,38,89,35,55,827,431.0,577,452,60,117.0,201,1,398,269,85,0,0,440,11560,21580,430,,,,,,,,,,,,
244683,1560692772774,3,2.46,2.27,3.29,2.33,5.06,0.6,-0.48,0.68,17,3,20,0.77,8223,38,89,35,54,817,433.0,572,453,60,118.0,201,1,390,276,85,0,0,436,9517,20625,433,,,,,,,,,,,,
244703,1560692772796,1,2.45,2.27,3.29,2.34,5.04,0.74,-0.57,0.81,17,4,19,0.93,8212,38,89,35,53,816,437.0,580,455,60,118.0,193,1,387,263,84,0,0,447,-4059,-28332,437,,,,,,,,,,,,
244723,1560692772816,4,2.46,2.26,3.3,2.35,5.08,0.71,-0.55,0.83,16,1,20,0.9,8227,38,89,35,53,816,438.0,579,456,60,118.0,193,1,387,263,84,0,0,446,-9166,21432,437,,,,,,,,,,,,
244743,1560692772836,0,2.46,2.24,3.31,2.34,5.07,0.82,-0.6,0.84,16,1,21,1.02,8285,39,89,35,53,818,441.0,582,452,60,118.0,193,1,387,264,84,0,0,450,18584,-18341,441,45.698719,4.90968,39.98,188.3,1,1.645,0,0.0,1.2333,2,0.8,4.0791
244763,1560692772856,1,2.46,2.22,3.33,2.32,5.04,0.64,-0.57,0.8,16,2,21,0.86,8344,39,89,35,52,822,442.0,587,456,60,118.0,193,1,384,265,84,0,0,445,-21792,2131,442,,,,,,,,,,,,
244783,1560692772876,3,2.45,2.23,3.36,2.33,5.04,0.77,-0.57,0.81,17,3,21,0.96,8408,39,89,35,53,826,446.0,583,452,60,117.0,193,1,387,266,84,0,0,450,-8165,14488,446,,,,,,,,,,,,
244803,1560692772896,1,2.47,2.23,3.33,2.37,5.08,0.73,-0.59,0.77,17,0,21,0.94,8445,39,89,35,51,837,449.0,586,458,60,117.0,188,1,381,260,84,0,0,439,-3414,-3267,449,,,,,,,,,,,,
244823,1560692772916,5,2.46,2.24,3.33,2.38,5.07,0.69,-0.63,0.73,18,2,22,0.93,8491,39,89,35,51,853,451.0,591,460,60,118.0,188,1,381,253,84,0,0,453,-4082,10305,451,,,,,,,,,,,,
244843,1560692772936,1,2.48,2.25,3.34,2.39,5.07,0.72,-0.66,0.74,18,-0,21,0.98,8526,39,89,35,51,865,451.0,601,456,60,117.0,188,1,381,255,84,0,0,459,13552,-9160,451,45.698715,4.909665,41.01,188.4,1,1.645,0,0.0,1.235,2,0.81,4.0807
244863,1560692772956,2,2.48,2.25,3.38,2.38,5.06,0.72,-0.61,0.78,18,3,21,0.94,8581,39,89,35,50,876,453.0,600,459,60,118.0,188,1,379,256,84,0,0,470,31796,17628,454,,,,,,,,,,,,
244883,1560692772976,-1,2.49,2.25,3.39,2.39,5.05,0.56,-0.59,0.82,19,1,22,0.82,8628,39,89,34,50,888,456.0,608,455,60,118.0,188,1,379,252,84,0,0,452,13180,16408,456,,,,,,,,,,,,
244903,1560692772996,3,2.49,2.25,3.38,2.38,5.08,0.69,-0.63,0.74,19,2,21,0.94,8668,39,89,34,50,913,456.0,613,458,60,118.0,180,1,379,244,82,0,0,457,1779,2211,456,,,,,,,,,,,,
244923,1560692773010,2,2.48,2.23,3.41,2.37,5.05,0.76,-0.63,0.76,19,-0,21,0.99,8628,39,89,34,49,929,461.0,602,460,60,118.0,180,1,376,244,82,0,0,475,243,-3210,461,,,,,,,,,,,,
244943,1560692773030,0,2.48,2.21,3.45,2.38,5.05,0.76,-0.61,0.81,19,0,23,0.97,8636,39,89,34,49,938,464.0,615,448,60,117.0,180,1,376,252,82,0,0,477,-768,6193,464,45.698715,4.90965,41.94,188.5,1,1.645,0,0.0,1.2367,2,0.81,4.0824
244963,1560692773050,0,2.48,2.2,3.45,2.38,5.04,0.71,-0.69,0.78,19,0,26,0.99,8648,39,89,34,49,954,464.0,606,460,60,118.0,180,1,376,244,82,0,0,462,5600,30272,465,,,,,,,,,,,,
244983,1560692773070,3,2.48,2.2,3.44,2.38,5.04,0.66,-0.62,0.78,20,-0,26,0.91,8720,39,89,34,50,973,467.0,636,451,60,118.0,180,1,380,254,82,0,0,457,19477,32033,467,,,,,,,,,,,,
245003,1560692773090,5,2.47,2.19,3.47,2.36,5.06,0.76,-0.64,0.81,20,-0,26,0.99,8749,39,89,34,49,997,471.0,610,457,60,117.0,173,1,376,246,81,0,0,467,20625,10432,471,,,,,,,,,,,,
245023,1560692773110,1,2.48,2.19,3.46,2.4,5.06,0.8,-0.67,0.76,21,3,25,1.05,8794,39,89,34,49,1020,472.0,621,452,60,117.0,173,1,377,247,81,0,0,475,-28332,3576,472,,,,,,,,,,,,
245043,1560692773130,3,2.48,2.23,3.45,2.49,5.04,0.78,-0.64,0.74,21,4,26,1.01,8827,39,89,34,49,1038,471.0,608,450,60,117.0,173,1,377,248,81,0,0,476,20625,3576,471,45.698715,4.909635,43.64,188.5,1,1.645,0,0.0,1.2383,2,0.81,4.0841
245063,1560692773150,1,2.51,2.24,3.44,2.49,5.06,0.76,-0.77,0.86,21,2,26,1.08,8903,40,89,34,49,1061,470.0,617,451,60,117.0,173,1,378,249,81,0,0,467,21580,8488,470,,,,,,,,,,,,
245083,1560692773170,0,2.51,2.15,3.48,2.47,5.06,0.74,-0.81,0.88,22,3,26,1.1,8886,40,89,34,48,1099,475.0,614,459,60,117.0,173,1,373,239,81,0,0,479,26704,10305,475,,,,,,,,,,,,
245103,1560692773196,-0,2.49,2.09,3.49,2.45,5.06,0.64,-0.93,0.99,22,-2,28,1.13,8844,40,89,34,49,1110,477.0,614,466,60,118.0,169,1,377,239,80,0,0,489,-18341,10305,476,,,,,,,,,,,,
245123,1560692773216,-1,2.5,2.08,3.47,2.43,5.06,0.55,-0.9,0.89,23,2,27,1.05,8848,40,89,34,48,1125,479.0,612,460,60,118.0,169,1,373,239,80,0,0,464,10305,32033,480,,,,,,,,,,,,
245143,1560692773236,0,2.48,2.06,3.43,2.4,5.08,0.54,-0.84,0.81,24,1,27,1.0,8844,40,89,34,49,1146,479.0,616,455,60,118.0,169,1,377,248,80,0,0,463,21432,2212,479,45.698711,4.909619,44.05,188.6,1,1.645,0,0.0,1.24,2,0.81,4.0857
245163,1560692773256,5,2.48,2.06,3.5,2.4,5.07,0.61,-0.8,0.7,24,2,28,1.0,8898,40,89,34,48,1159,479.0,620,453,60,117.0,169,1,373,239,80,0,0,490,16648,8488,479,,,,,,,,,,,,
245183,1560692773276,3,2.47,2.08,3.59,2.4,5.04,0.63,-0.77,0.74,24,3,28,1.0,8971,40,89,34,49,1168,481.0,621,455,60,118.0,169,1,378,241,80,0,0,498,2131,-17956,481,,,,,,,,,,,,
245203,1560692773296,4,2.47,2.06,3.59,2.39,5.07,0.71,-0.84,0.77,24,1,27,1.1,9049,40,89,34,48,1172,481.0,622,452,60,117.0,168,1,374,242,81,0,0,460,15649,-899,481,,,,,,,,,,,,
245223,1560692773316,5,2.47,2.11,3.59,2.39,5.07,0.66,-0.79,0.68,23,3,28,1.03,9093,40,89,34,48,1183,481.0,627,455,60,117.0,168,1,375,242,81,0,0,483,8488,-10483,481,,,,,,,,,,,,
245243,1560692773336,-1,2.47,2.28,3.55,2.39,5.05,0.61,-0.74,0.54,23,5,28,0.96,9062,40,89,34,48,1198,478.0,618,460,60,118.0,168,1,375,242,81,0,0,472,8488,8488,478,45.698711,4.909603,44.71,188.7,1,1.645,0,0.0,1.2417,2,0.81,4.0874
245263,1560692773356,4,2.46,2.34,3.47,2.41,5.04,0.56,-0.71,0.52,23,3,28,0.9,8979,41,89,34,48,1215,477.0,620,455,60,118.0,168,1,374,241,81,0,0,473,-3267,8488,477,,,,,,,,,,,,
245283,1560692773376,6,2.47,2.29,3.45,2.42,5.05,0.61,-0.73,0.54,23,2,27,0.95,8937,41,89,34,48,1223,478.0,615,443,60,117.0,168,1,374,241,81,0,0,486,-6387,-23367,478,,,,,,,,,,,,
245303,1560692773396,2,2.46,2.29,3.46,2.41,5.06,0.6,-0.74,0.46,23,-2,26,0.95,8852,41,89,34,48,1236,479.0,608,455,60,117.0,167,1,373,239,80,0,0,486,2524,10305,479,,,,,,,,,,,,
245323,1560692773416,3,2.45,2.28,3.48,2.4,5.04,0.74,-0.75,0.43,22,-1,24,1.06,8898,41,89,34,49,1252,479.0,617,452,60,117.0,167,1,377,239,80,0,0,479,-8985,3580,481,,,,,,,,,,,,
245343,1560692773436,2,2.45,2.25,3.51,2.39,5.06,0.7,-0.76,0.49,22,-5,25,1.04,8873,41,89,34,49,1257,481.0,616,453,60,117.0,167,1,377,239,80,0,0,471,2524,8488,481,45.698711,4.909586,45.32,188.8,1,1.645,0,0.0,1.2433,2,0.81,4.089
245363,1560692773456,2,2.44,2.09,3.55,2.38,5.07,0.79,-0.86,0.61,22,-5,25,1.16,8873,41,89,34,49,1258,483.0,626,450,60,117.0,167,1,378,248,80,0,0,474,-9160,32033,483,,,,,,,,,,,,
245383,1560692773476,1,2.44,2.02,3.6,2.36,5.04,0.75,-0.87,0.69,22,-5,25,1.15,8971,41,89,34,49,1262,487.0,614,457,60,117.0,167,1,378,249,80,0,0,487,-9160,-1562,487,,,,,,,,,,,,
245403,1560692773496,3,2.43,2.07,3.57,2.38,5.07,0.87,-0.91,0.64,21,-9,25,1.26,9106,41,89,34,48,1266,487.0,628,460,60,117.0,174,1,376,242,85,0,0,466,17628,-1562,485,,,,,,,,,,,,
245423,1560692773516,2,2.43,2.14,3.48,2.44,5.04,0.87,-0.95,0.64,21,-8,25,1.29,9115,41,89,34,48,1269,483.0,617,466,60,117.0,174,1,376,243,85,0,0,466,-26615,-10483,483,,,,,,,,,,,,
245443,1560692773536,2,2.44,2.13,3.46,2.43,5.06,0.99,-1.05,0.78,22,-9,23,1.44,9115,41,89,34,48,1273,487.0,622,460,60,117.0,174,1,376,243,85,0,0,479,-23623,1,487,45.698715,4.909569,45.93,188.9,1,1.645,0,0.0,1.245,2,0.81,4.0907
245463,1560692773556,2,2.43,2.1,3.41,2.44,5.07,1.06,-1.14,0.88,22,-9,23,1.56,9027,41,89,34,48,1277,488.0,614,464,60,117.0,174,1,374,242,85,0,0,477,-23623,1,489,,,,,,,,,,,,
245483,1560692773576,5,2.42,2.08,3.42,2.45,5.04,1.15,-1.2,0.97,21,-7,22,1.66,8997,41,89,34,49,1281,491.0,617,448,60,117.0,174,1,378,241,85,0,0,502,2211,248,491,,,,,,,,,,,,
245503,1560692773596,4,2.42,2.08,3.37,2.41,5.04,1.16,-1.2,0.86,20,-5,23,1.67,8992,35,89,34,47,1286,487.0,617,453,60,117.0,165,1,370,232,81,0,0,467,30272,505,487,,,,,,,,,,,,
245523,1560692773616,3,2.42,2.07,3.42,2.35,5.08,1.25,-1.23,0.9,20,-7,23,1.75,9005,33,89,34,45,1287,488.0,620,452,60,117.0,165,1,357,228,81,0,0,476,30272,-10483,488,,,,,,,,,,,,
245543,1560692773636,4,2.41,2.1,3.53,2.33,5.05,1.27,-1.28,0.96,19,-5,25,1.8,9053,30,89,34,43,1287,487.0,615,450,60,117.0,165,1,345,223,81,0,0,482,-3210,505,487,45.698715,4.909553,46.31,188.9,1,1.645,0,0.0,1.2467,2,0.81,4.0924
245563,1560692773656,4,2.41,2.16,3.57,2.33,5.04,1.35,-1.33,0.98,18,-6,23,1.89,9132,28,89,34,40,1287,488.0,617,465,60,117.0,165,1,326,215,81,0,0,491,-16384,-1562,488,,,,,,,,,,,,
245583,1560692773676,2,2.41,2.19,3.52,2.33,5.05,1.39,-1.4,0.97,18,-5,22,1.97,9177,28,89,34,38,1286,486.0,621,459,60,117.0,165,1,317,210,81,0,0,481,-16384,-1818,486,,,,,,,,,,,,
245603,1560692773695,5,2.4,2.25,3.5,2.33,5.04,1.4,-1.42,0.91,17,-4,22,1.99,9150,25,89,34,36,1285,487.0,625,456,60,118.0,145,1,311,203,71,0,0,490,10432,-1818,487,,,,,,,,,,,,
245623,1560692773715,1,2.39,2.32,3.43,2.33,5.06,1.27,-1.31,0.85,17,-4,23,1.82,9071,20,89,34,34,1281,485.0,615,459,60,118.0,145,1,305,195,71,0,0,481,8488,-1562,487,,,,,,,,,,,,
245643,1560692773735,4,2.4,2.31,3.39,2.32,5.05,1.23,-1.23,0.82,17,-2,22,1.75,8941,17,89,34,31,1263,487.0,618,453,60,118.0,145,1,295,188,71,0,0,481,8488,-1818,487,45.698719,4.909536,46.08,188.9,1,1.645,0,0.0,1.2483,2,0.82,4.094
245663,1560692773755,4,2.38,2.3,3.42,2.3,5.05,1.19,-1.11,0.79,17,-4,20,1.62,8794,16,89,34,29,1253,487.0,625,452,60,117.0,145,1,287,188,71,0,0,476,32033,-6441,487,,,,,,,,,,,,
245683,1560692773775,2,2.39,2.28,3.5,2.29,5.07,1.27,-1.16,0.77,17,-5,19,1.72,8660,15,89,33,27,1238,489.0,616,453,60,117.0,145,1,278,188,71,0,0,470,8488,505,489,,,,,,,,,,,,
245703,1560692773795,1,2.37,2.27,3.54,2.28,5.08,1.18,-1.16,0.76,17,-4,19,1.65,8484,14,89,33,26,1223,491.0,601,460,60,117.0,125,1,274,187,61,0,0,473,32033,-6656,486,,,,,,,,,,,,
245723,1560692773815,1,2.37,2.27,3.54,2.26,5.05,1.1,-1.08,0.74,16,-5,18,1.54,8281,14,89,33,25,1153,487.0,598,458,60,118.0,125,1,270,175,61,0,0,468,3576,505,487,,,,,,,,,,,,
245743,1560692773835,-1,2.37,2.27,3.57,2.25,5.07,0.99,-0.98,0.72,17,-3,17,1.39,8134,14,89,33,25,1099,487.0,586,461,60,117.0,125,1,270,167,61,0,0,469,3576,-1562,487,45.698719,4.90952,46.79,189.1,1,1.645,0,0.0,1.25,2,0.82,4.0957
245763,1560692773855,2,2.36,2.27,3.55,2.23,5.08,1.02,-0.95,0.81,17,-4,16,1.4,7918,13,89,33,25,1055,486.0,583,458,60,117.0,125,1,269,159,61,0,0,472,-9203,505,486,,,,,,,,,,,,
245783,1560692773875,4,2.37,2.25,3.52,2.21,5.06,0.95,-0.87,0.61,17,-2,15,1.29,7822,13,89,33,25,1006,486.0,570,456,60,118.0,125,1,268,159,61,0,0,454,-1923,-16384,486,,,,,,,,,,,,
245803,1560692773895,5,2.36,2.08,3.52,2.18,5.04,0.88,-0.81,0.47,17,-0,14,1.2,7841,13,89,33,24,959,483.0,565,457,60,118.0,96,1,268,156,47,0,0,447,32033,-23623,481,,,,,,,,,,,,
245823,1560692773915,1,2.36,2.03,3.52,2.15,5.04,0.98,-0.76,0.62,16,1,14,1.24,7918,13,89,33,24,894,482.0,567,453,60,118.0,96,1,269,156,47,0,0,452,-3210,-26615,482,,,,,,,,,,,,
245843,1560692773935,2,2.35,2.03,3.52,2.12,5.04,0.87,-0.59,0.56,16,-2,13,1.05,7941,13,89,33,24,864,476.0,589,460,60,117.0,96,1,269,156,47,0,0,448,-23623,3571,476,45.698723,4.909504,47.18,189.1,1,1.645,0,0.0,1.2517,2,0.82,4.0974
245863,1560692773955,6,2.34,2.03,3.52,2.1,5.06,0.88,-0.58,0.36,16,0,12,1.06,8012,13,89,33,24,849,474.0,582,457,60,118.0,96,1,270,159,47,0,0,446,12552,8488,473,,,,,,,,,,,,
245883,1560692773975,0,2.33,2.03,3.51,2.11,5.08,0.94,-0.57,0.38,15,-0,11,1.1,8033,13,89,33,25,842,469.0,587,454,60,117.0,96,1,270,160,47,0,0,441,14488,10305,469,,,,,,,,,,,,
245903,1560692773995,2,2.32,2.04,3.49,2.08,5.04,0.87,-0.5,0.27,15,-0,10,1.0,8078,13,89,33,25,838,468.0,605,455,60,117.0,104,1,270,165,49,0,0,445,-26615,243,465,,,,,,,,,,,,
245923,1560692774009,0,2.31,2.04,3.47,2.08,5.03,0.95,-0.48,0.31,15,1,9,1.06,8138,13,89,33,24,848,461.0,591,456,60,118.0,104,1,270,163,49,0,0,438,-3267,8488,461,,,,,,,,,,,,
245943,1560692774029,2,2.29,2.04,3.47,2.04,5.03,0.96,-0.43,0.33,14,0,8,1.05,8209,13,89,33,24,866,456.0,597,457,60,117.0,104,1,270,167,49,0,0,433,15649,-18341,456,45.698727,4.909488,45.8,189.1,1,1.645,0,0.0,1.2533,2,0.82,4.0991
245963,1560692774049,4,2.27,2.05,3.48,2.0,5.07,0.98,-0.35,0.21,13,2,6,1.04,8184,13,89,33,24,885,453.0,597,456,60,118.0,104,1,270,166,49,0,0,438,-3267,-768,453,,,,,,,,,,,,
245983,1560692774069,2,2.27,2.04,3.46,1.97,5.08,0.98,-0.31,0.3,11,3,6,1.03,8184,13,89,33,24,915,450.0,598,458,60,117.0,104,1,270,163,49,0,0,439,-3267,23400,448,,,,,,,,,,,,
246003,1560692774093,5,2.25,2.11,3.46,1.95,5.06,0.94,-0.21,0.26,10,1,6,0.96,8194,13,89,33,23,923,448.0,597,460,60,117.0,116,1,270,162,52,0,0,435,10305,3635,446,,,,,,,,,,,,
246023,1560692774113,1,2.23,2.2,3.43,1.95,5.06,1.02,-0.21,0.31,8,1,4,1.04,8116,13,89,33,23,933,447.0,579,457,60,118.0,116,1,270,158,52,0,0,439,10305,-3322,442,,,,,,,,,,,,
246043,1560692774133,3,2.23,2.24,3.36,1.92,5.04,0.98,-0.09,0.24,7,1,4,0.99,8081,13,89,33,23,932,445.0,585,460,60,117.0,116,1,270,157,52,0,0,439,2131,31796,439,45.698734,4.909473,44.17,189.2,1,1.645,0,0.0,1.255,2,0.82,4.1007
246063,1560692774153,1,2.21,2.3,3.36,1.91,5.06,1.07,-0.12,0.25,6,-0,3,1.07,8071,13,89,33,23,929,444.0,587,457,60,118.0,116,1,270,157,52,0,0,432,21432,3635,436,,,,,,,,,,,,
246083,1560692774173,2,2.19,2.36,3.36,1.9,5.05,1.11,-0.08,0.3,5,-1,1,1.11,8023,13,89,33,23,918,443.0,586,453,60,117.0,116,1,270,154,52,0,0,430,-18341,-3856,434,,,,,,,,,,,,
246103,1560692774195,2,2.17,2.36,3.37,1.88,5.07,1.07,0.06,0.26,3,-0,2,1.07,7961,13,89,33,24,909,441.0,591,458,60,117.0,105,1,269,156,46,0,0,429,20625,13552,429,,,,,,,,,,,,
246123,1560692774215,-2,2.16,2.35,3.36,1.86,5.06,1.15,-0.03,0.33,1,-1,1,1.15,7948,13,89,33,24,891,441.0,587,458,60,118.0,105,1,269,154,46,0,0,431,26704,13552,427,,,,,,,,,,,,
246143,1560692774235,-0,2.13,2.39,3.34,1.82,5.04,1.24,-0.06,0.37,-1,-2,-2,1.24,7901,13,89,33,24,876,441.0,590,455,60,117.0,105,1,269,156,46,0,0,427,23400,-21944,424,45.698738,4.909458,43.22,189.3,1,1.645,0,0.0,1.2567,2,0.82,4.1024
246163,1560692774255,2,2.11,2.45,3.3,1.8,5.05,1.24,0.01,0.37,-3,-1,-3,1.24,7841,14,89,33,24,871,440.0,587,458,60,117.0,105,1,268,156,46,0,0,432,20625,-4059,419,,,,,,,,,,,,
246183,1560692774275,1,2.11,2.43,3.22,1.75,5.05,1.15,0.09,0.4,-5,-2,-4,1.15,7848,14,89,33,24,869,441.0,572,460,60,118.0,105,1,268,156,46,0,0,432,26704,10541,415,,,,,,,,,,,,
246203,1560692774295,5,2.1,2.42,3.22,1.69,5.06,1.21,0.12,0.41,-6,-1,-6,1.22,7796,14,89,33,24,868,442.0,573,458,60,118.0,110,1,267,156,46,0,0,428,20625,6512,414,,,,,,,,,,,,
246223,1560692774315,1,2.11,2.43,3.22,1.7,5.04,1.21,0.17,0.43,-7,1,-10,1.22,7805,14,89,33,24,868,441.0,560,462,60,118.0,110,1,268,156,46,0,0,429,26704,-3968,411,,,,,,,,,,,,
246243,1560692774335,1,2.11,2.46,3.22,1.73,5.08,1.17,0.35,0.43,-8,0,-12,1.22,7773,14,89,33,25,870,437.0,563,456,60,117.0,110,1,267,159,46,0,0,429,19477,6384,407,45.698742,4.909444,41.84,189.3,1,1.645,0,0.0,1.2583,2,0.82,4.1041
246263,1560692774355,2,2.09,2.49,3.21,1.78,5.04,1.08,0.52,0.33,-9,0,-14,1.2,7690,14,89,33,25,872,435.0,575,456,60,117.0,110,1,266,159,46,0,0,427,-3322,10541,405,,,,,,,,,,,,
246283,1560692774375,1,2.1,2.54,3.21,1.78,5.06,0.95,0.55,0.22,-10,1,-15,1.1,7671,14,89,33,25,875,431.0,562,457,60,118.0,110,1,266,159,46,0,0,423,1779,-1818,403,,,,,,,,,,,,
246303,1560692774395,3,2.08,2.5,3.22,1.76,5.06,0.9,0.62,0.18,-11,1,-16,1.1,7615,14,89,33,25,878,431.0,560,455,60,118.0,114,1,266,159,46,0,0,421,1779,505,400,,,,,,,,,,,,
246323,1560692774415,1,2.1,2.49,3.16,1.74,5.05,0.95,0.6,0.23,-12,2,-16,1.12,7606,14,89,33,25,880,431.0,565,459,60,117.0,114,1,266,160,46,0,0,425,3635,-1818,399,,,,,,,,,,,,
246343,1560692774435,2,2.1,2.48,3.08,1.72,5.05,0.98,0.55,0.22,-13,2,-17,1.13,7581,14,89,33,26,881,428.0,562,453,60,118.0,114,1,268,160,46,0,0,421,13180,505,396,45.698746,4.909429,40.63,189.4,1,1.645,0,0.0,1.26,2,0.82,4.1057
246363,1560692774455,4,2.11,2.45,3.08,1.71,5.07,0.98,0.52,0.3,-13,5,-19,1.11,7591,14,89,33,26,882,426.0,567,457,60,119.0,114,1,268,160,46,0,0,418,13552,-19019,395,,,,,,,,,,,,
246383,1560692774475,5,2.12,2.43,3.08,1.72,5.04,0.97,0.47,0.4,-13,5,-19,1.07,7530,14,89,33,26,882,422.0,568,451,60,118.0,114,1,268,160,46,0,0,416,-3414,240,392,,,,,,,,,,,,
246403,1560692774497,4,2.13,2.41,3.11,1.75,5.07,0.97,0.37,0.48,-13,4,-20,1.04,7530,15,89,33,27,882,420.0,559,457,60,118.0,114,1,272,161,45,0,0,415,-8165,-3866,393,,,,,,,,,,,,
246423,1560692774517,3,2.14,2.41,3.15,1.8,5.04,0.96,0.29,0.53,-13,4,-21,1.01,7461,15,89,33,27,882,420.0,545,452,60,118.0,114,1,271,161,45,0,0,410,-8165,-3866,393,,,,,,,,,,,,
246443,1560692774537,4,2.15,2.41,3.17,1.83,5.04,0.96,0.2,0.58,-13,4,-22,0.98,7461,15,89,33,27,883,418.0,555,458,60,118.0,114,1,271,161,45,0,0,412,-3414,-31744,394,45.69875,4.909414,39.73,189.4,1,1.645,0,0.0,1.2617,2,0.83,4.1074
246463,1560692774557,3,2.16,2.41,3.17,1.85,5.06,0.94,0.11,0.55,-12,4,-20,0.95,7399,16,89,33,28,883,415.0,553,452,60,118.0,114,1,274,163,45,0,0,410,-26615,-6475,392,,,,,,,,,,,,
246483,1560692774577,3,2.17,2.41,3.17,1.89,5.04,0.98,0.06,0.53,-11,4,-21,0.98,7413,16,89,33,28,884,413.0,539,447,60,118.0,114,1,275,163,45,0,0,407,9517,19125,392,,,,,,,,,,,,
246503,1560692774595,1,2.19,2.39,3.19,1.88,5.06,0.92,0.07,0.52,-11,5,-20,0.92,7378,17,89,33,29,885,409.0,554,432,60,117.0,114,1,278,164,45,0,0,401,9517,-31744,392,,,,,,,,,,,,
246523,1560692774615,1,2.2,2.38,3.19,1.87,5.07,0.82,0.12,0.39,-10,6,-19,0.83,7405,18,89,33,30,886,405.0,543,445,60,117.0,114,1,282,166,45,0,0,403,-9211,-6475,393,,,,,,,,,,,,
246543,1560692774635,2,2.21,2.34,3.21,1.85,5.05,0.77,0.16,0.34,-11,5,-17,0.78,7376,19,89,33,31,888,407.0,541,453,60,117.0,114,1,286,167,45,0,0,400,-26615,-6475,392,45.69875,4.9094,38.78,189.4,1,1.645,0,0.0,1.2633,2,0.83,4.109
246563,1560692774655,2,2.23,2.33,3.22,1.86,5.04,0.72,0.22,0.26,-10,6,-16,0.75,7390,20,89,33,32,890,405.0,545,450,60,117.0,114,1,290,169,45,0,0,399,-9211,-6524,390,,,,,,,,,,,,
246583,1560692774675,-0,2.23,2.33,3.23,1.87,5.04,0.67,0.32,0.19,-10,5,-15,0.74,7387,20,89,33,34,890,403.0,545,451,60,118.0,114,1,295,174,45,0,0,400,-8151,505,391,,,,,,,,,,,,
246603,1560692774695,0,2.25,2.34,3.23,1.89,5.04,0.75,0.35,0.21,-10,3,-15,0.83,7344,21,89,33,34,891,399.0,543,443,60,117.0,128,1,295,179,50,0,0,397,28696,240,387,,,,,,,,,,,,
246623,1560692774715,-1,2.28,2.33,3.24,1.91,5.06,0.81,0.32,0.26,-10,2,-15,0.88,7373,22,89,33,35,898,397.0,546,450,60,118.0,128,1,298,185,50,0,0,394,-3968,-6524,389,,,,,,,,,,,,
246643,1560692774735,-1,2.29,2.31,3.29,1.94,5.07,0.82,0.25,0.35,-8,2,-13,0.86,7352,22,89,33,37,906,393.0,546,446,60,118.0,128,1,304,190,50,0,0,389,-3968,-1562,390,45.698753,4.909386,38.45,189.4,1,1.645,0,0.0,1.265,2,0.83,4.1107
246663,1560692774755,3,2.3,2.29,3.29,1.98,5.06,0.89,0.18,0.43,-7,0,-12,0.91,7376,22,89,33,37,911,394.0,537,452,60,118.0,128,1,304,196,50,0,0,389,-1818,-31744,393,,,,,,,,,,,,
246683,1560692774775,4,2.32,2.27,3.29,2.02,5.04,0.95,0.06,0.52,-6,2,-10,0.95,7370,23,89,33,38,916,395.0,548,450,60,118.0,128,1,307,202,50,0,0,394,505,-6524,395,,,,,,,,,,,,
246703,1560692774794,3,2.33,2.28,3.29,2.02,5.07,0.93,-0.06,0.54,-4,3,-9,0.93,7405,23,89,33,39,935,393.0,540,451,60,118.0,142,1,310,208,56,0,0,394,505,1,393,,,,,,,,,,,,
246723,1560692774814,3,2.34,2.28,3.31,2.03,5.05,0.86,-0.14,0.55,-2,2,-7,0.87,7387,23,89,33,39,950,393.0,549,450,60,118.0,142,1,310,208,56,0,0,389,-6524,-32702,394,,,,,,,,,,,,
246743,1560692774834,2,2.37,2.26,3.36,2.05,5.03,0.81,-0.23,0.53,-1,3,-6,0.84,7443,23,89,33,40,959,393.0,540,450,60,118.0,142,1,317,209,56,0,0,386,-6524,-6656,395,45.698753,4.909372,38.02,189.5,1,1.645,0,0.0,1.2667,2,0.83,4.1124
246763,1560692774854,2,2.38,2.25,3.38,2.06,5.07,0.73,-0.28,0.45,1,4,-4,0.78,7455,23,89,33,40,966,396.0,555,447,60,117.0,142,1,317,209,56,0,0,387,-3866,505,396,,,,,,,,,,,,
246783,1560692774874,3,2.41,2.25,3.41,2.11,5.06,0.63,-0.24,0.3,3,5,-2,0.67,7509,23,89,33,41,986,396.0,549,451,60,118.0,142,1,325,212,56,0,0,385,-6475,-1818,397,,,,,,,,,,,,
246803,1560692774897,3,2.43,2.24,3.46,2.1,5.08,0.58,-0.28,0.27,4,6,0,0.64,7521,24,89,33,41,1012,397.0,539,452,60,119.0,151,1,325,212,60,0,0,383,-19019,28696,397,,,,,,,,,,,,
246823,1560692774917,4,2.44,2.24,3.5,2.1,5.04,0.54,-0.35,0.3,6,5,1,0.64,7581,24,89,34,41,1024,399.0,535,454,60,118.0,151,1,325,212,60,0,0,382,-19126,-6656,399,,,,,,,,,,,,
246843,1560692774937,3,2.46,2.22,3.5,2.12,5.08,0.5,-0.38,0.27,8,6,2,0.63,7584,24,89,34,41,1033,401.0,556,452,60,118.0,151,1,325,212,60,0,0,382,-18948,6512,401,45.698757,4.909357,38.28,189.6,1,1.645,0,0.0,1.2683,2,0.83,4.114
246863,1560692774957,3,2.48,2.21,3.5,2.15,5.06,0.5,-0.48,0.29,10,5,5,0.69,7643,24,89,34,41,1042,400.0,549,453,60,118.0,151,1,325,212,60,0,0,376,-992,28696,400,,,,,,,,,,,,
246883,1560692774977,4,2.48,2.18,3.54,2.15,5.04,0.54,-0.54,0.4,12,7,7,0.76,7665,24,89,34,42,1049,403.0,547,451,60,118.0,151,1,332,212,60,0,0,376,2278,10541,403,,,,,,,,,,,,
246903,1560692774997,-0,2.49,2.17,3.56,2.19,5.04,0.65,-0.61,0.56,14,5,8,0.89,7731,24,89,34,42,1045,403.0,555,454,60,118.0,153,1,332,214,62,0,0,376,770,-8151,403,,,,,,,,,,,,
246923,1560692775010,1,2.5,2.17,3.56,2.24,5.05,0.73,-0.65,0.69,14,2,9,0.98,7719,24,89,34,42,1040,404.0,551,452,60,118.0,153,1,332,214,62,0,0,385,742,10392,404,,,,,,,,,,,,
246943,1560692775030,2,2.52,2.17,3.57,2.31,5.08,0.82,-0.66,0.65,15,3,11,1.05,7649,25,89,34,42,1033,405.0,560,457,60,117.0,153,1,332,214,62,0,0,401,742,1504,405,45.698757,4.909343,38.35,189.7,1,1.645,0,0.0,1.27,2,0.83,4.1157
246963,1560692775050,2,2.53,2.17,3.57,2.34,5.04,0.74,-0.59,0.62,15,2,13,0.95,7578,25,89,34,42,1030,407.0,556,456,60,117.0,153,1,332,214,62,0,0,406,742,9517,406,,,,,,,,,,,,
246983,1560692775070,1,2.52,2.17,3.56,2.35,5.04,0.69,-0.61,0.45,17,2,14,0.92,7458,25,89,34,43,1027,409.0,552,454,60,117.0,153,1,340,215,62,0,0,411,3,9517,407,,,,,,,,,,,,
247003,1560692775096,1,2.53,2.17,3.56,2.37,5.08,0.69,-0.59,0.41,17,1,15,0.91,7431,26,89,34,44,1028,408.0,536,455,60,117.0,147,1,347,217,60,0,0,400,770,-9211,408,,,,,,,,,,,,
247023,1560692775116,0,2.52,2.17,3.54,2.38,5.08,0.76,-0.59,0.44,17,-0,17,0.97,7402,26,89,34,44,1028,407.0,530,455,60,117.0,147,1,347,217,60,0,0,389,2278,2524,407,,,,,,,,,,,,
247043,1560692775136,0,2.51,2.16,3.53,2.37,5.05,0.82,-0.65,0.54,17,-2,17,1.05,7358,26,89,34,45,1027,408.0,526,458,60,117.0,147,1,355,219,60,0,0,384,3,-9211,408,45.698757,4.909329,38.3,189.7,1,1.645,0,0.0,1.2717,2,0.83,4.1174
247063,1560692775156,1,2.51,2.14,3.54,2.36,5.04,0.88,-0.66,0.56,18,-4,16,1.1,7384,27,89,34,46,1026,410.0,535,458,60,117.0,147,1,362,221,60,0,0,382,-6656,9517,410,,,,,,,,,,,,
247083,1560692775176,-1,2.52,2.11,3.55,2.37,5.04,0.97,-0.67,0.55,19,-5,17,1.18,7387,28,89,34,46,1025,413.0,526,455,60,118.0,147,1,362,221,60,0,0,383,3,-26615,413,,,,,,,,,,,,
247103,1560692775196,-1,2.52,2.09,3.58,2.36,5.06,0.98,-0.72,0.59,19,-4,20,1.21,7428,30,89,34,48,1024,414.0,538,456,60,118.0,150,1,372,223,62,0,0,383,3,-26615,415,,,,,,,,,,,,
247123,1560692775216,4,2.51,2.08,3.57,2.37,5.04,0.96,-0.82,0.69,21,-2,23,1.26,7416,31,89,34,49,1024,417.0,533,457,60,118.0,150,1,375,234,62,0,0,381,3,9517,417,,,,,,,,,,,,
247143,1560692775236,4,2.51,2.07,3.55,2.38,5.04,0.98,-0.87,0.79,22,-5,23,1.31,7464,31,89,34,50,1025,414.0,547,458,60,118.0,150,1,378,234,62,0,0,383,770,-4059,414,45.698761,4.909315,38.73,189.8,1,1.645,0,0.0,1.2733,2,0.83,4.1191
247163,1560692775256,5,2.51,2.08,3.55,2.41,5.04,0.95,-0.9,0.79,22,-6,25,1.31,7470,31,89,34,51,1026,414.0,545,454,60,118.0,150,1,381,239,62,0,0,386,742,11560,414,,,,,,,,,,,,
247183,1560692775276,4,2.52,2.07,3.54,2.41,5.05,0.92,-0.97,0.8,23,-5,27,1.34,7503,32,89,34,51,1031,414.0,534,454,60,118.0,150,1,381,245,62,0,0,387,3,2524,414,,,,,,,,,,,,
247203,1560692775296,3,2.51,2.05,3.54,2.42,5.04,0.91,-0.99,0.91,24,-3,28,1.34,7512,32,89,34,51,1041,415.0,528,453,60,118.0,166,1,381,245,69,0,0,394,8200,13040,415,,,,,,,,,,,,
247223,1560692775316,-0,2.49,2.05,3.51,2.42,5.07,0.91,-1.06,1.01,24,-4,29,1.4,7566,32,89,34,52,1052,416.0,534,458,60,118.0,166,1,384,251,69,0,0,389,2278,2524,416,,,,,,,,,,,,
247243,1560692775336,1,2.49,2.04,3.46,2.42,5.04,0.96,-1.04,0.99,23,-4,30,1.42,7536,32,89,34,52,1060,416.0,535,456,60,118.0,166,1,384,251,69,0,0,390,2278,-21944,416,45.698765,4.909302,38.43,189.8,1,1.645,0,0.0,1.275,2,0.83,4.1207
247263,1560692775356,1,2.48,2.04,3.45,2.42,5.08,0.99,-1.12,1.01,24,-3,31,1.49,7569,32,89,34,53,1073,415.0,541,456,60,117.0,166,1,387,251,69,0,0,391,8200,11560,415,,,,,,,,,,,,
247283,1560692775376,0,2.48,2.04,3.44,2.4,5.07,0.99,-1.1,1.09,24,-1,31,1.48,7503,32,89,34,53,1090,416.0,535,455,60,118.0,166,1,387,257,69,0,0,394,-19126,-21944,414,,,,,,,,,,,,
247303,1560692775396,-1,2.47,2.05,3.46,2.4,5.05,1.04,-1.07,1.15,24,-4,31,1.49,7554,32,89,34,53,1101,415.0,534,453,60,118.0,176,1,387,257,73,0,0,399,-19019,9517,414,,,,,,,,,,,,
247323,1560692775416,1,2.46,2.05,3.46,2.41,5.07,1.11,-1.02,1.14,22,-5,31,1.5,7503,33,89,34,53,1110,415.0,534,456,60,117.0,176,1,387,257,73,0,0,399,-19019,2524,415,,,,,,,,,,,,
247343,1560692775436,-1,2.46,2.06,3.45,2.41,5.04,1.18,-1.04,1.13,21,-5,31,1.57,7597,33,89,34,54,1120,415.0,534,455,60,118.0,176,1,390,263,73,0,0,397,-3866,-9166,415,45.698769,4.909289,39.02,189.9,1,1.645,0,0.0,1.2767,2,0.83,4.1224
247363,1560692775456,-1,2.45,2.05,3.44,2.39,5.03,1.17,-1.02,1.06,20,-3,32,1.56,7615,33,89,34,54,1135,414.0,535,454,60,117.0,176,1,390,263,73,0,0,396,-31744,-8165,414,,,,,,,,,,,,
247383,1560692775476,-0,2.44,2.06,3.44,2.37,5.06,1.16,-0.96,1.0,20,-4,31,1.51,7674,33,89,34,54,1145,415.0,548,455,60,118.0,176,1,390,258,73,0,0,399,-31744,-26615,415,,,,,,,,,,,,
247403,1560692775496,3,2.43,2.07,3.45,2.35,5.04,1.13,-0.9,0.82,20,-5,30,1.45,7709,33,89,34,54,1149,416.0,543,460,60,117.0,183,1,390,264,76,0,0,404,-6524,-26615,416,,,,,,,,,,,,
247423,1560692775516,3,2.43,2.07,3.43,2.35,5.05,1.07,-0.89,0.67,19,-5,29,1.39,7700,33,89,34,54,1152,416.0,545,455,60,118.0,183,1,390,265,76,0,0,402,505,7154,416,,,,,,,,,,,,
247443,1560692775536,4,2.41,2.1,3.42,2.35,5.04,0.99,-0.86,0.56,19,-4,28,1.31,7735,33,89,34,54,1156,417.0,561,457,60,117.0,183,1,390,265,76,0,0,413,-1818,-3414,417,45.698776,4.909276,39.38,190.0,1,1.645,0,0.0,1.2783,2,0.84,4.1241
247463,1560692775556,3,2.4,2.12,3.42,2.35,5.05,0.9,-0.8,0.55,18,-3,28,1.21,7744,33,89,34,53,1159,417.0,547,456,60,118.0,183,1,387,265,76,0,0,412,17144,-21944,417,,,,,,,,,,,,
247483,1560692775576,0,2.38,2.14,3.42,2.33,5.06,0.94,-0.76,0.67,18,-1,27,1.21,7812,33,89,34,53,1159,416.0,553,452,60,118.0,183,1,387,259,76,0,0,413,6384,-21792,416,,,,,,,,,,,,
247503,1560692775596,-0,2.38,2.15,3.42,2.32,5.06,0.94,-0.77,0.8,17,-1,26,1.22,7809,33,89,34,53,1158,419.0,563,456,60,117.0,182,1,387,259,76,0,0,416,-8151,31796,417,,,,,,,,,,,,
247523,1560692775616,3,2.36,2.17,3.39,2.31,5.05,0.86,-0.61,0.73,16,-0,25,1.06,7828,33,89,34,53,1149,420.0,568,456,60,118.0,182,1,387,259,76,0,0,418,-9211,-21944,420,,,,,,,,,,,,
247543,1560692775636,4,2.34,2.21,3.34,2.31,5.04,0.74,-0.55,0.56,16,-0,25,0.92,7884,34,89,34,53,1142,419.0,558,455,60,118.0,182,1,387,259,76,0,0,416,2524,7154,419,45.698776,4.909264,39.61,190.0,1,1.645,0,0.0,1.28,2,0.84,4.1257
247563,1560692775656,-0,2.33,2.23,3.3,2.31,5.04,0.69,-0.43,0.49,15,1,24,0.82,7851,34,89,34,53,1136,418.0,557,455,60,118.0,182,1,387,259,76,0,0,420,11560,-21792,418,,,,,,,,,,,,
247583,1560692775676,2,2.3,2.25,3.3,2.31,5.05,0.73,-0.43,0.64,14,-0,23,0.85,7874,34,89,34,53,1125,419.0,571,459,60,117.0,182,1,387,259,76,0,0,427,13040,-3856,420,,,,,,,,,,,,
247603,1560692775697,4,2.3,2.26,3.28,2.29,5.08,0.75,-0.36,0.7,12,-2,21,0.83,7901,34,89,34,53,1112,420.0,555,456,60,117.0,185,1,387,253,78,0,0,425,2524,13180,420,,,,,,,,,,,,
247623,1560692775717,5,2.28,2.29,3.24,2.29,5.04,0.71,-0.26,0.58,11,-2,19,0.76,7871,34,89,34,53,1095,419.0,544,455,60,118.0,185,1,387,259,78,0,0,422,18584,-3414,419,,,,,,,,,,,,
247643,1560692775737,-2,2.26,2.29,3.22,2.27,5.06,0.76,-0.32,0.58,10,-2,17,0.83,7951,34,89,34,52,1082,421.0,544,456,60,118.0,185,1,384,254,78,0,0,427,-21792,-3414,421,45.698784,4.909252,40.41,190.1,1,1.645,0,0.0,1.2817,2,0.84,4.1274
247663,1560692775757,1,2.24,2.29,3.18,2.26,5.06,0.79,-0.24,0.67,8,-3,15,0.82,8026,34,89,34,52,1074,423.0,557,455,60,117.0,185,1,384,254,78,0,0,429,3826,13552,421,,,,,,,,,,,,
247683,1560692775777,3,2.21,2.3,3.16,2.22,5.07,0.8,-0.24,0.68,7,-2,14,0.84,8023,34,89,34,51,1062,424.0,557,457,60,118.0,185,1,381,255,78,0,0,429,-4082,-3414,422,,,,,,,,,,,,
247703,1560692775795,0,2.21,2.32,3.15,2.23,5.04,0.8,-0.3,0.72,5,-2,12,0.86,8078,34,89,34,51,1053,427.0,572,457,60,117.0,180,1,381,249,76,0,0,433,31796,13180,419,,,,,,,,,,,,
247723,1560692775815,4,2.18,2.35,3.15,2.2,5.03,0.75,-0.19,0.73,4,-1,9,0.78,8071,34,89,34,52,1054,431.0,581,454,60,117.0,180,1,384,248,76,0,0,436,1779,3635,422,,,,,,,,,,,,
247743,1560692775835,4,2.18,2.39,3.13,2.19,5.08,0.73,-0.12,0.7,2,0,7,0.74,8050,34,89,34,50,1054,432.0,571,453,60,118.0,180,1,381,249,76,0,0,438,-3322,21580,421,45.698792,4.909239,40.77,190.2,1,1.645,0,0.0,1.2833,2,0.84,4.129
247763,1560692775855,-1,2.18,2.4,3.12,2.19,5.06,0.79,-0.14,0.7,1,-1,4,0.8,8092,34,89,34,51,1053,435.0,574,451,60,117.0,180,1,381,249,76,0,0,439,-7939,-3322,423,,,,,,,,,,,,
247783,1560692775875,2,2.18,2.4,3.12,2.17,5.06,0.68,-0.07,0.71,-1,-0,2,0.69,8159,34,89,34,50,1050,437.0,570,449,60,118.0,180,1,378,244,76,0,0,439,19477,-3322,425,,,,,,,,,,,,
247803,1560692775895,-1,2.18,2.44,3.08,2.18,5.04,0.73,-0.06,0.62,-2,-0,0,0.73,8166,34,89,34,49,1048,438.0,567,455,60,118.0,177,1,375,244,75,0,0,441,21580,-3314,423,,,,,,,,,,,,
247823,1560692775915,2,2.18,2.47,3.08,2.17,5.04,0.66,0.08,0.64,-3,-1,-1,0.67,8205,34,89,34,50,1045,439.0,590,456,60,118.0,177,1,378,245,75,0,0,441,21580,5600,425,,,,,,,,,,,,
247843,1560692775935,1,2.18,2.46,3.09,2.18,5.04,0.71,0.11,0.63,-4,0,-3,0.71,8234,34,88,34,49,1049,440.0,582,453,60,118.0,177,1,375,238,75,0,0,441,20625,-28332,425,45.698799,4.909227,41.18,190.2,1,1.645,0,0.0,1.285,2,0.84,4.1307
247863,1560692775955,3,2.17,2.47,3.09,2.17,5.04,0.63,0.2,0.67,-5,-0,-3,0.66,8249,34,88,34,49,1059,441.0,584,455,60,118.0,177,1,375,238,75,0,0,444,26704,-28332,425,,,,,,,,,,,,
247883,1560692775975,0,2.19,2.45,3.09,2.17,5.03,0.74,0.15,0.67,-6,-0,-5,0.75,8245,34,88,34,48,1067,440.0,577,452,60,118.0,177,1,372,231,75,0,0,444,20625,10305,428,,,,,,,,,,,,
247903,1560692775995,3,2.21,2.44,3.09,2.17,5.04,0.68,0.17,0.69,-6,-1,-6,0.7,8256,34,88,34,48,1080,442.0,582,458,60,117.0,168,1,372,238,72,0,0,442,23400,21580,430,,,,,,,,,,,,
247923,1560692776009,1,2.22,2.43,3.09,2.17,5.03,0.75,0.06,0.68,-6,-2,-7,0.75,8307,34,88,34,48,1092,444.0,587,451,60,117.0,168,1,372,232,72,0,0,443,23400,16648,431,,,,,,,,,,,,
247943,1560692776029,4,2.24,2.42,3.09,2.16,5.07,0.66,0.13,0.7,-5,-2,-7,0.67,8351,33,88,34,47,1104,443.0,593,453,60,118.0,168,1,370,226,72,0,0,449,-18341,21580,433,45.698803,4.909214,41.6,190.3,1,1.645,0,0.0,1.2867,2,0.84,4.1324
247963,1560692776049,1,2.27,2.43,3.15,2.19,5.07,0.73,0.04,0.61,-5,-2,-8,0.73,8314,31,88,34,46,1109,442.0,587,456,60,118.0,168,1,363,224,72,0,0,443,21432,10305,436,,,,,,,,,,,,
247983,1560692776069,5,2.28,2.43,3.18,2.2,5.04,0.62,0.11,0.55,-5,-1,-8,0.63,8307,26,88,34,44,1111,441.0,595,457,60,118.0,168,1,349,220,72,0,0,446,26704,21432,436,,,,,,,,,,,,
248003,1560692776095,2,2.29,2.42,3.21,2.2,5.04,0.72,0.03,0.6,-4,-3,-8,0.72,8318,21,88,34,41,1116,443.0,598,457,60,117.0,157,1,328,214,69,0,0,449,-18341,16648,441,,,,,,,,,,,,
248023,1560692776115,4,2.32,2.41,3.22,2.21,5.04,0.64,0.12,0.57,-3,-3,-7,0.66,8318,17,88,34,38,1127,443.0,589,456,60,118.0,157,1,313,206,69,0,0,444,-18341,10305,441,,,,,,,,,,,,
248043,1560692776135,2,2.32,2.39,3.25,2.19,5.08,0.78,0.01,0.62,-3,-2,-7,0.78,8289,14,88,34,35,1135,442.0,581,452,60,117.0,157,1,303,192,69,0,0,444,23400,16648,442,45.698811,4.909201,42.36,190.4,1,1.645,0,0.0,1.2883,2,0.84,4.134
248063,1560692776155,3,2.33,2.36,3.27,2.19,5.05,0.69,0.02,0.65,-2,-4,-5,0.69,8202,13,88,33,32,1143,446.0,582,457,60,118.0,157,1,294,177,69,0,0,442,23400,-3267,446,,,,,,,,,,,,
248083,1560692776175,1,2.32,2.35,3.27,2.19,5.05,0.81,-0.04,0.57,-1,-4,-5,0.81,8123,12,88,33,30,1148,447.0,586,453,60,117.0,157,1,285,173,69,0,0,442,26704,2131,447,,,,,,,,,,,,
248103,1560692776195,1,2.33,2.34,3.32,2.2,5.04,0.7,0.0,0.51,-0,-4,-3,0.7,8078,12,89,33,28,1152,447.0,570,456,60,117.0,118,1,279,166,53,0,0,442,-28332,2131,447,,,,,,,,,,,,
248123,1560692776215,1,2.33,2.32,3.34,2.21,5.04,0.71,-0.01,0.48,0,-4,-1,0.71,7978,12,89,33,27,1155,447.0,566,451,60,118.0,118,1,275,161,53,0,0,442,20625,21580,447,,,,,,,,,,,,
248143,1560692776235,-1,2.35,2.28,3.35,2.22,5.06,0.8,-0.06,0.58,1,-4,-0,0.8,7812,12,89,33,26,1153,448.0,570,452,60,117.0,118,1,271,160,53,0,0,439,20625,10305,448,45.698814,4.909187,42.93,190.5,1,1.645,0,0.0,1.29,2,0.84,4.1357
248163,1560692776255,1,2.36,2.16,3.33,2.22,5.04,0.91,-0.16,0.66,0,-7,0,0.92,7709,12,89,33,26,1139,449.0,562,456,60,117.0,118,1,270,160,53,0,0,439,19477,-18341,449,,,,,,,,,,,,
248183,1560692776275,2,2.37,1.99,3.31,2.1,5.03,0.97,-0.21,0.63,1,-5,2,0.99,7542,11,88,33,25,1110,450.0,558,454,60,117.0,118,1,265,159,53,0,0,437,21580,10305,452,,,,,,,,,,,,
248203,1560692776295,1,2.4,1.98,3.31,2.02,5.08,0.92,-0.14,0.57,4,-3,2,0.94,7431,11,88,33,25,1089,453.0,551,455,60,117.0,99,1,264,159,45,0,0,440,20625,-3267,453,,,,,,,,,,,,
248223,1560692776315,1,2.42,1.96,3.37,2.06,5.08,0.96,-0.14,0.53,5,-5,2,0.97,7361,11,88,33,25,1063,451.0,546,454,60,117.0,99,1,263,159,45,0,0,428,-7939,16648,453,,,,,,,,,,,,
248243,1560692776335,-0,2.44,1.93,3.46,2.11,5.04,1.07,-0.27,0.52,5,-6,3,1.1,7464,11,88,33,25,1020,449.0,544,457,60,117.0,99,1,264,159,45,0,0,402,-3314,31796,449,45.698818,4.909174,42.93,190.6,1,1.645,0,0.0,1.2917,2,0.85,4.1374
248263,1560692776355,1,2.43,1.91,3.54,2.12,5.04,1.16,-0.3,0.54,5,-6,4,1.2,7575,11,88,33,25,986,447.0,542,450,60,118.0,99,1,265,156,45,0,0,408,-3856,-768,447,,,,,,,,,,,,
248283,1560692776375,-1,2.45,1.9,3.57,2.13,5.06,1.06,-0.25,0.43,6,-5,7,1.09,7674,11,88,33,24,940,444.0,545,453,60,118.0,99,1,266,156,45,0,0,404,-8165,18584,444,,,,,,,,,,,,
248303,1560692776395,1,2.46,1.93,3.61,2.16,5.05,1.04,-0.22,0.31,7,-4,10,1.06,7716,11,88,33,24,915,442.0,560,453,60,117.0,101,1,267,156,45,0,0,393,18584,-768,442,,,,,,,,,,,,
248323,1560692776415,3,2.46,1.96,3.43,2.16,5.07,0.77,-0.15,0.08,10,-1,12,0.78,7786,11,88,33,24,900,438.0,558,457,60,117.0,101,1,267,156,45,0,0,409,9517,-21944,438,,,,,,,,,,,,
248343,1560692776435,4,2.46,1.93,3.39,2.16,5.08,0.76,-0.12,-0.01,13,-0,14,0.77,7799,11,88,33,23,885,432.0,543,452,60,118.0,101,1,267,154,45,0,0,403,11560,-3414,432,45.698826,4.90916,42.54,190.7,1,1.645,0,0.0,1.2933,2,0.85,4.1391
248363,1560692776455,-0,2.47,1.91,3.52,2.17,5.04,0.84,-0.24,0.06,15,-3,15,0.87,7819,11,88,33,23,870,433.0,566,454,60,118.0,101,1,268,154,45,0,0,398,10541,18584,433,,,,,,,,,,,,
248383,1560692776475,0,2.47,1.89,3.62,2.22,5.04,0.94,-0.34,0.22,15,-4,17,1.0,7722,11,88,33,23,874,432.0,559,453,60,117.0,101,1,267,154,45,0,0,389,28696,-3414,429,,,,,,,,,,,,
248403,1560692776497,1,2.47,1.89,3.64,2.23,5.04,1.05,-0.44,0.33,14,-6,19,1.13,7625,11,88,33,23,879,430.0,560,456,60,117.0,102,1,266,154,44,0,0,393,6384,3826,430,,,,,,,,,,,,
248423,1560692776517,2,2.48,1.89,3.66,2.22,5.07,0.97,-0.41,0.28,15,-4,21,1.05,7575,11,88,33,23,882,431.0,555,458,60,117.0,102,1,265,154,44,0,0,391,6384,-21792,431,,,,,,,,,,,,
248443,1560692776537,3,2.48,1.89,3.67,2.25,5.08,0.9,-0.35,0.18,16,-3,22,0.96,7455,11,88,33,23,886,429.0,552,456,60,117.0,102,1,264,154,44,0,0,389,-32702,-4082,428,45.698833,4.909147,41.39,190.7,1,1.645,0,0.0,1.295,2,0.85,4.1407
248463,1560692776557,2,2.5,1.9,3.67,2.26,5.08,0.93,-0.34,0.12,16,-4,23,0.99,7408,11,88,33,23,885,428.0,546,456,60,117.0,102,1,264,154,44,0,0,379,17144,18584,428,,,,,,,,,,,,
248483,1560692776577,0,2.5,1.89,3.66,2.27,5.06,0.99,-0.42,0.14,17,-2,24,1.08,7327,11,88,33,23,884,428.0,550,456,60,117.0,102,1,263,154,44,0,0,385,505,-3414,428,,,,,,,,,,,,
248503,1560692776597,-0,2.52,1.87,3.62,2.3,5.03,1.05,-0.49,0.25,19,-3,24,1.16,7315,11,88,33,23,885,425.0,530,451,60,118.0,98,1,263,154,42,0,0,381,-1562,-26615,425,,,,,,,,,,,,
248523,1560692776617,1,2.52,1.86,3.64,2.31,5.04,1.15,-0.53,0.32,19,-6,24,1.27,7364,11,88,33,24,886,425.0,534,454,60,118.0,98,1,263,156,42,0,0,369,-31744,-4059,422,,,,,,,,,,,,
248543,1560692776637,4,2.52,1.84,3.64,2.32,5.08,1.24,-0.66,0.37,19,-6,25,1.4,7318,11,88,33,24,888,423.0,529,456,60,118.0,98,1,263,156,42,0,0,370,-19126,9517,423,45.698837,4.909135,40.86,190.8,1,1.645,0,0.0,1.2967,2,0.85,4.1424
248563,1560692776657,2,2.52,1.82,3.61,2.31,5.07,1.15,-0.78,0.37,21,-6,27,1.39,7318,11,88,33,24,891,420.0,539,458,60,118.0,98,1,263,156,42,0,0,372,-18948,9517,420,,,,,,,,,,,,
248583,1560692776677,1,2.51,1.8,3.62,2.29,5.05,1.06,-0.78,0.29,22,-4,28,1.32,7275,11,88,33,24,893,418.0,531,455,60,118.0,98,1,262,156,42,0,0,369,8200,10392,418,,,,,,,,,,,,
248603,1560692776694,2,2.5,1.79,3.63,2.3,5.08,0.97,-0.74,0.29,23,-3,30,1.22,7261,11,88,33,24,895,415.0,530,457,60,117.0,103,1,262,156,43,0,0,368,-6656,-26615,415,,,,,,,,,,,,
248623,1560692776714,1,2.5,1.81,3.63,2.29,5.08,0.86,-0.7,0.25,24,-3,30,1.11,7197,11,88,33,24,896,411.0,530,457,60,117.0,103,1,261,156,43,0,0,364,-6656,2524,411,,,,,,,,,,,,
248643,1560692776734,0,2.49,1.86,3.67,2.28,5.08,0.97,-0.75,0.4,23,-5,30,1.23,7161,11,88,33,24,896,409.0,517,458,60,117.0,103,1,261,156,43,0,0,360,742,28696,409,45.698845,4.909123,39.69,190.8,1,1.645,0,0.0,1.2983,2,0.85,4.1441
248663,1560692776754,4,2.48,1.71,3.65,2.26,5.06,1.08,-0.87,0.56,21,-8,30,1.39,7121,11,88,33,24,897,409.0,514,456,60,118.0,103,1,261,156,43,0,0,367,742,6384,409,,,,,,,,,,,,
248683,1560692776774,1,2.46,1.65,3.57,2.25,5.06,1.04,-0.81,0.41,21,-5,31,1.32,7048,11,88,33,25,898,407.0,490,456,60,118.0,103,1,260,159,43,0,0,364,1,-1818,407,,,,,,,,,,,,
248703,1560692776796,-1,2.43,1.66,3.45,2.21,5.08,0.87,-0.67,0.34,22,-2,32,1.1,7027,11,88,33,25,899,407.0,502,458,60,117.0,102,1,260,159,42,0,0,365,-6656,-1562,406,,,,,,,,,,,,
248723,1560692776816,4,2.41,1.75,3.38,2.14,5.08,0.99,-0.66,0.5,21,-4,30,1.19,7019,11,88,33,25,901,402.0,484,454,60,118.0,102,1,260,159,42,0,0,366,742,505,400,,,,,,,,,,,,
248743,1560692776836,3,2.37,1.89,3.38,2.19,5.04,1.0,-0.64,0.37,21,-3,29,1.19,7006,11,88,33,25,903,395.0,504,457,60,118.0,102,1,260,159,42,0,0,365,486,19125,394,45.698853,4.909114,38.24,190.8,1,1.645,0,0.0,1.3,2,0.85,4.1457
248763,1560692776856,-1,2.35,1.94,3.39,2.24,5.07,0.9,-0.53,0.31,20,-2,29,1.05,7046,11,88,33,25,908,390.0,512,460,60,117.0,102,1,260,159,42,0,0,364,0,8200,388,,,,,,,,,,,,
248783,1560692776876,4,2.3,2.01,3.39,2.24,5.08,1.01,-0.56,0.47,17,-4,28,1.16,7035,11,88,33,26,911,385.0,503,455,60,118.0,102,1,264,159,42,0,0,363,230,1,383,,,,,,,,,,,,
248803,1560692776894,1,2.27,2.11,3.39,2.21,5.06,1.08,-0.57,0.57,16,-4,26,1.23,6944,11,88,33,26,913,381.0,512,460,60,117.0,109,1,265,160,42,0,0,367,0,0,381,,,,,,,,,,,,
248823,1560692776914,0,2.23,2.21,3.35,2.14,5.07,0.89,-0.38,0.52,14,-2,26,0.97,6880,11,88,33,26,916,375.0,501,453,60,117.0,109,1,266,160,42,0,0,369,257,-6656,375,,,,,,,,,,,,
248843,1560692776934,3,2.18,2.33,3.35,2.07,5.05,1.0,-0.41,0.65,11,-7,22,1.09,6833,12,88,33,27,920,372.0,507,455,60,118.0,109,1,270,161,42,0,0,371,-6656,-6458,368,45.698856,4.909104,36.79,190.7,1,1.645,0,0.0,1.3017,2,0.85,4.1474
248863,1560692776954,0,2.15,2.4,3.27,1.98,5.05,0.93,-0.31,0.42,9,-5,18,0.99,6781,12,89,33,27,924,376.0,506,456,60,117.0,109,1,270,161,42,0,0,370,770,-6458,362,,,,,,,,,,,,
248883,1560692776974,3,2.12,2.4,3.17,1.9,5.04,1.0,-0.18,0.45,6,-6,15,1.01,6754,12,89,33,27,925,375.0,496,457,60,118.0,109,1,270,163,42,0,0,367,770,28553,356,,,,,,,,,,,,
248903,1560692776994,0,2.09,2.41,3.26,1.86,5.06,1.01,-0.15,0.39,5,-5,13,1.02,6732,12,89,33,28,926,375.0,498,454,60,117.0,115,1,274,163,41,0,0,364,770,-6644,355,,,,,,,,,,,,
248923,1560692777010,1,2.07,2.42,3.36,1.83,5.06,0.96,0.0,0.46,2,-6,10,0.96,6708,13,89,33,29,928,376.0,496,441,60,119.0,115,1,278,164,41,0,0,365,3,3183,352,,,,,,,,,,,,
248943,1560692777030,-0,2.03,2.49,3.4,1.84,5.06,0.98,0.02,0.37,-0,-4,8,0.98,6627,14,89,33,30,928,379.0,496,450,60,118.0,115,1,282,166,41,0,0,366,8200,-10554,348,45.698868,4.909097,36.02,190.8,1,1.645,0,0.0,1.3033,2,0.85,4.149
248963,1560692777050,2,2.0,2.57,3.37,1.84,5.08,0.9,0.07,0.42,-3,-3,5,0.9,6588,15,89,33,31,928,378.0,488,450,60,119.0,115,1,286,167,41,0,0,370,2278,-14714,347,,,,,,,,,,,,
248983,1560692777070,4,1.95,2.61,3.28,1.85,5.07,0.87,0.26,0.36,-6,-2,2,0.91,6567,16,89,33,32,928,378.0,479,448,60,119.0,115,1,290,169,41,0,0,372,2278,4838,345,,,,,,,,,,,,
249003,1560692777094,-2,1.92,2.61,3.21,1.85,5.06,0.89,0.28,0.39,-8,-2,-1,0.93,6592,17,89,33,33,927,376.0,491,455,60,118.0,122,1,292,174,42,0,0,373,-6656,175,341,,,,,,,,,,,,
249023,1560692777114,2,1.89,2.6,3.15,1.86,5.07,0.92,0.39,0.45,-10,-5,-6,1.0,6585,17,89,33,34,927,379.0,490,448,60,118.0,122,1,295,179,42,0,0,369,770,165,337,,,,,,,,,,,,
249043,1560692777134,-2,1.89,2.58,3.09,1.83,5.05,0.92,0.5,0.4,-12,-5,-9,1.05,6574,18,89,33,35,927,373.0,496,453,60,117.0,122,1,298,185,42,0,0,371,-6656,165,335,45.698875,4.909089,35.56,190.8,1,1.645,0,0.0,1.305,2,0.85,4.1507
249063,1560692777154,1,1.9,2.56,3.01,1.79,5.04,1.02,0.58,0.47,-15,-5,-13,1.18,6546,19,89,33,37,926,373.0,500,460,60,117.0,122,1,304,196,42,0,0,374,-6656,155,332,,,,,,,,,,,,
249083,1560692777174,5,1.92,2.53,2.95,1.72,5.08,0.97,0.68,0.41,-17,-4,-17,1.18,6530,20,89,33,38,927,378.0,485,451,60,118.0,122,1,307,202,42,0,0,373,2278,-24576,333,,,,,,,,,,,,
249103,1560692777194,-0,1.93,2.54,2.95,1.72,5.05,0.93,0.64,0.31,-18,-2,-20,1.13,6567,20,89,33,39,925,379.0,485,450,60,117.0,151,1,310,208,50,0,0,374,8200,155,329,,,,,,,,,,,,
249123,1560692777214,1,1.95,2.52,2.96,1.72,5.06,0.99,0.58,0.41,-20,-2,-23,1.15,6539,20,89,33,40,925,378.0,495,451,60,119.0,151,1,316,209,50,0,0,374,2278,-25856,328,,,,,,,,,,,,
249143,1560692777234,6,1.94,2.51,2.96,1.72,5.06,0.93,0.72,0.39,-22,-2,-24,1.18,6539,20,89,33,41,925,378.0,492,453,60,118.0,151,1,323,211,50,0,0,374,2278,160,328,45.698879,4.90908,34.65,190.9,1,1.645,0,0.0,1.3067,2,0.85,4.1524
249163,1560692777254,-2,1.94,2.5,2.94,1.74,5.06,0.97,0.68,0.33,-23,1,-26,1.19,6512,21,89,33,42,924,375.0,492,452,60,117.0,151,1,330,212,50,0,0,374,770,155,329,,,,,,,,,,,,
249183,1560692777274,4,1.93,2.49,2.95,1.74,5.05,1.03,0.68,0.42,-26,1,-28,1.23,6528,21,89,33,43,925,376.0,479,447,60,119.0,151,1,337,214,50,0,0,368,3,160,328,,,,,,,,,,,,
249203,1560692777297,-3,1.94,2.48,2.95,1.72,5.08,0.93,0.81,0.33,-27,1,-30,1.24,6524,22,89,33,44,925,378.0,468,441,60,119.0,161,1,344,215,53,0,0,369,770,-24576,328,,,,,,,,,,,,
249223,1560692777317,0,1.94,2.47,2.91,1.73,5.07,0.96,0.75,0.4,-28,3,-32,1.22,6549,22,89,33,45,925,377.0,488,455,60,117.0,161,1,351,217,53,0,0,372,742,-25856,326,,,,,,,,,,,,
249243,1560692777337,4,1.93,2.48,2.92,1.78,5.06,0.99,0.75,0.52,-29,-0,-36,1.24,6567,22,89,33,46,927,375.0,487,446,60,119.0,161,1,358,218,53,0,0,369,1,-25856,325,45.698887,4.909071,33.58,190.9,1,1.645,0,0.0,1.3083,2,0.86,4.154
249263,1560692777357,-0,1.93,2.47,2.9,1.79,5.04,0.91,0.87,0.41,-30,-1,-38,1.25,6549,23,89,33,47,929,371.0,491,457,60,117.0,161,1,365,218,53,0,0,368,257,-27136,326,,,,,,,,,,,,
249283,1560692777377,2,1.95,2.46,2.91,1.77,5.07,1.02,0.78,0.46,-31,0,-40,1.28,6574,24,89,33,47,931,368.0,483,446,60,118.0,161,1,365,220,53,0,0,366,0,-27136,326,,,,,,,,,,,,
249303,1560692777396,2,1.96,2.47,2.9,1.76,5.08,1.04,0.83,0.45,-31,-1,-41,1.33,6530,25,89,33,48,934,370.0,472,431,60,118.0,168,1,368,225,55,0,0,367,486,145,326,,,,,,,,,,,,
249323,1560692777416,-0,1.96,2.45,2.9,1.75,5.05,0.96,0.8,0.35,-31,1,-41,1.25,6553,25,89,33,49,941,369.0,477,428,60,118.0,168,1,371,230,55,0,0,366,-6656,-27136,325,,,,,,,,,,,,
249343,1560692777436,2,1.97,2.45,2.91,1.74,5.05,1.03,0.69,0.43,-31,1,-40,1.24,6551,25,89,34,50,955,369.0,482,440,60,119.0,168,1,374,236,55,0,0,364,-6656,155,325,45.698894,4.909061,32.59,190.9,1,1.645,0,0.0,1.31,2,0.86,4.1557
249363,1560692777456,4,1.99,2.45,2.9,1.75,5.04,0.98,0.82,0.42,-31,1,-40,1.28,6544,26,89,34,51,962,369.0,480,445,60,119.0,168,1,377,241,55,0,0,361,0,-25856,323,,,,,,,,,,,,
249383,1560692777476,-1,2.01,2.45,2.92,1.76,5.08,0.97,0.75,0.41,-30,3,-39,1.23,6542,26,89,34,52,971,366.0,487,425,60,117.0,168,1,380,247,55,0,0,363,230,-27136,324,,,,,,,,,,,,
249403,1560692777496,2,2.03,2.45,2.98,1.79,5.04,0.93,0.68,0.47,-30,3,-38,1.15,6537,26,89,34,52,994,363.0,486,400,60,119.0,188,1,380,247,61,0,0,361,3082,160,324,,,,,,,,,,,,
249423,1560692777516,1,2.06,2.46,3.06,1.78,5.05,0.86,0.78,0.39,-30,4,-37,1.16,6574,26,89,34,53,1020,362.0,478,401,60,119.0,188,1,383,252,61,0,0,359,2790,-24576,324,,,,,,,,,,,,
249443,1560692777536,0,2.09,2.46,3.11,1.77,5.08,0.92,0.65,0.46,-29,4,-37,1.13,6560,27,89,34,53,1045,361.0,489,420,60,118.0,188,1,383,252,61,0,0,359,-6458,-24576,323,45.698898,4.90905,32.28,190.9,1,1.645,0,0.0,1.3117,2,0.86,4.1574
249463,1560692777556,2,2.12,2.45,3.14,1.77,5.06,0.87,0.61,0.53,-29,2,-38,1.06,6599,27,89,34,54,1064,360.0,480,427,60,118.0,188,1,387,258,61,0,0,356,-29302,-25856,325,,,,,,,,,,,,
249483,1560692777576,-2,2.16,2.44,3.14,1.78,5.07,0.84,0.63,0.45,-27,3,-38,1.05,6578,27,89,34,55,1097,357.0,492,450,60,117.0,188,1,389,258,61,0,0,357,-6640,-20736,326,,,,,,,,,,,,
249503,1560692777596,1,2.19,2.41,3.12,1.78,5.07,0.89,0.52,0.5,-26,2,-37,1.03,6583,28,89,34,55,1133,354.0,480,441,60,119.0,199,1,389,260,65,0,0,351,3302,-32559,331,,,,,,,,,,,,
249523,1560692777616,0,2.2,2.38,3.12,1.77,5.07,0.93,0.53,0.52,-24,3,-35,1.07,6620,28,89,34,55,1153,351.0,481,449,60,118.0,199,1,389,261,65,0,0,352,28553,-6528,332,,,,,,,,,,,,
249543,1560692777636,-0,2.22,2.35,3.12,1.8,5.06,0.91,0.45,0.55,-22,3,-34,1.02,6613,28,89,34,55,1169,350.0,485,442,60,119.0,199,1,389,263,65,0,0,350,-30454,-31222,334,45.698902,4.909039,31.76,191.0,1,1.645,0,0.0,1.3133,2,0.86,4.159
249563,1560692777656,4,2.24,2.33,3.15,1.85,5.04,0.89,0.39,0.65,-20,3,-32,0.97,6606,29,89,34,56,1196,347.0,481,446,60,119.0,199,1,392,263,65,0,0,349,8841,-14714,337,,,,,,,,,,,,
249583,1560692777676,1,2.27,2.32,3.16,1.93,5.04,0.95,0.32,0.59,-20,4,-29,1.01,6472,29,89,34,57,1222,347.0,476,455,60,117.0,199,1,392,264,65,0,0,349,8841,8841,338,,,,,,,,,,,,
249603,1560692777695,-1,2.29,2.32,3.16,1.99,5.06,0.92,0.25,0.66,-18,4,-26,0.95,6419,29,89,34,57,1237,347.0,469,448,60,119.0,191,1,391,262,65,0,0,347,-1246,-1246,341,,,,,,,,,,,,
249623,1560692777715,2,2.32,2.32,3.16,2.06,5.04,0.88,0.16,0.75,-15,2,-23,0.9,6375,29,89,34,58,1249,347.0,460,446,60,119.0,191,1,392,262,65,0,0,348,8841,8841,344,,,,,,,,,,,,
249643,1560692777735,4,2.35,2.3,3.17,2.13,5.08,0.8,0.14,0.74,-12,4,-20,0.81,6358,30,89,34,59,1257,345.0,457,446,60,119.0,191,1,393,263,65,0,0,345,-14714,-30438,345,45.698906,4.909028,31.31,191.1,1,1.645,0,0.0,1.315,2,0.86,4.1607
249663,1560692777755,0,2.39,2.27,3.18,2.18,5.06,0.86,0.11,0.7,-11,5,-17,0.87,6364,30,89,34,59,1269,348.0,466,456,60,117.0,191,1,393,263,65,0,0,343,6668,-1246,348,,,,,,,,,,,,
249683,1560692777775,-0,2.43,2.23,3.2,2.21,5.06,0.98,-0.01,0.71,-10,2,-14,0.98,6416,30,89,34,60,1272,351.0,467,457,60,117.0,191,1,396,266,65,0,0,337,-31222,-30438,350,,,,,,,,,,,,
249703,1560692777795,1,2.48,2.16,3.25,2.24,5.05,0.88,-0.08,0.75,-6,-1,-12,0.88,6438,30,89,34,60,1272,353.0,467,445,60,119.0,182,1,397,267,64,0,0,335,3346,-30454,353,,,,,,,,,,,,
249723,1560692777815,1,2.51,2.13,3.3,2.29,5.05,0.82,-0.12,0.67,-2,0,-9,0.83,6458,31,89,34,60,1273,353.0,462,448,60,117.0,182,1,398,268,64,0,0,336,4838,-1246,353,,,,,,,,,,,,
249743,1560692777835,-1,2.55,2.09,3.36,2.34,5.03,0.86,-0.2,0.67,-1,1,-6,0.88,6454,31,89,34,61,1273,355.0,477,455,60,118.0,182,1,400,270,64,0,0,332,-20736,3183,355,45.69891,4.909018,31.94,191.2,1,1.645,0,0.0,1.3167,2,0.86,4.1624
249763,1560692777855,3,2.59,2.07,3.4,2.39,5.04,0.87,-0.33,0.7,2,0,-2,0.94,6456,32,89,34,61,1275,356.0,461,455,60,119.0,182,1,400,270,64,0,0,331,-22016,3302,358,,,,,,,,,,,,
249783,1560692777875,0,2.62,2.06,3.42,2.45,5.07,0.84,-0.35,0.7,4,-0,2,0.91,6461,32,89,34,62,1277,357.0,462,456,60,118.0,182,1,397,277,64,0,0,328,-22016,4104,357,,,,,,,,,,,,
249803,1560692777895,2,2.67,2.07,3.46,2.48,5.04,0.79,-0.34,0.62,6,2,6,0.86,6483,32,89,34,62,1282,359.0,462,451,60,117.0,189,1,398,278,68,0,0,334,-24576,2060,359,,,,,,,,,,,,
249823,1560692777915,1,2.69,2.06,3.48,2.48,5.05,0.72,-0.45,0.69,9,1,10,0.85,6472,32,89,34,62,1295,359.0,470,457,60,119.0,189,1,398,277,68,0,0,331,150,-29978,359,,,,,,,,,,,,
249843,1560692777935,3,2.71,2.06,3.48,2.5,5.06,0.75,-0.47,0.77,11,1,12,0.89,6481,32,89,34,63,1308,360.0,453,458,60,118.0,189,1,394,283,68,0,0,333,-27136,-6640,360,45.698914,4.909007,33.54,191.3,1,1.645,0,0.0,1.3183,2,0.86,4.1641
249863,1560692777955,0,2.71,2.06,3.49,2.5,5.05,0.78,-0.49,0.71,12,-0,14,0.92,6390,33,89,34,63,1320,359.0,458,459,60,118.0,189,1,390,279,68,0,0,332,145,-29302,360,,,,,,,,,,,,
249883,1560692777975,1,2.71,2.03,3.54,2.47,5.07,0.84,-0.6,0.79,15,-2,17,1.03,6405,33,89,34,64,1331,359.0,460,456,60,117.0,189,1,387,287,68,0,0,333,-28416,-6640,359,,,,,,,,,,,,
249903,1560692777995,3,2.7,2.02,3.58,2.48,5.04,0.7,-0.68,0.84,18,-3,19,0.98,6427,34,89,34,64,1345,363.0,456,454,60,119.0,193,1,388,288,70,0,0,335,145,3082,363,,,,,,,,,,,,
249923,1560692778009,1,2.7,2.0,3.6,2.48,5.04,0.68,-0.61,0.74,19,-3,21,0.92,6449,36,89,34,65,1358,364.0,456,456,60,118.0,193,1,385,295,70,0,0,334,-29696,2790,364,,,,,,,,,,,,
249943,1560692778029,-0,2.71,2.0,3.66,2.47,5.08,0.78,-0.7,0.67,20,-4,24,1.05,6496,37,89,34,66,1359,363.0,460,460,60,118.0,193,1,382,303,70,0,0,340,-29696,-29302,363,45.698917,4.908996,33.78,191.4,1,1.645,0,0.0,1.32,2,0.86,4.1657
249963,1560692778049,4,2.7,1.99,3.69,2.44,5.06,0.78,-0.8,0.65,22,-6,27,1.12,6508,40,89,34,67,1359,365.0,464,452,60,118.0,193,1,379,310,70,0,0,343,135,-6458,365,,,,,,,,,,,,
249983,1560692778069,-1,2.71,1.99,3.69,2.45,5.06,0.75,-0.81,0.55,24,-5,30,1.1,6574,42,89,34,69,1352,367.0,463,453,60,118.0,193,1,376,333,70,0,0,345,-29696,-6458,367,,,,,,,,,,,,
250003,1560692778096,0,2.7,2.01,3.69,2.45,5.06,0.8,-0.85,0.51,25,-4,33,1.17,6611,45,89,34,71,1346,367.0,468,457,60,118.0,223,1,375,365,82,0,0,350,130,-6458,367,,,,,,,,,,,,
250023,1560692778116,3,2.72,2.02,3.68,2.47,5.05,0.8,-0.88,0.45,26,-4,37,1.19,6703,47,89,34,73,1337,366.0,471,456,60,119.0,223,1,375,396,82,0,0,438,-32256,-29302,366,,,,,,,,,,,,
250043,1560692778136,2,2.72,2.0,3.67,2.47,5.04,0.78,-0.87,0.42,28,-2,40,1.16,6818,48,89,34,74,1327,364.0,485,451,60,118.0,223,1,377,413,82,0,0,438,-32256,-29302,364,45.698921,4.908986,33.65,191.5,1,1.645,0,0.0,1.3217,2,0.86,4.1674
250063,1560692778156,1,2.71,2.0,3.64,2.48,5.04,0.73,-0.84,0.51,29,-1,41,1.12,6916,49,89,34,75,1325,364.0,478,454,60,118.0,223,1,380,429,82,0,0,438,130,230,364,,,,,,,,,,,,
250083,1560692778176,2,2.72,2.01,3.62,2.5,5.06,0.83,-0.87,0.59,30,-4,43,1.2,6998,49,89,34,75,1321,365.0,490,450,60,118.0,223,1,382,445,82,0,0,438,130,257,365,,,,,,,,,,,,
250103,1560692778195,1,2.72,2.04,3.58,2.52,5.06,0.78,-0.89,0.58,31,-4,43,1.18,7181,49,89,34,76,1325,365.0,500,458,60,118.0,325,1,391,446,119,0,0,393,-32256,-6656,365,,,,,,,,,,,,
250123,1560692778215,1,2.72,2.04,3.55,2.51,5.08,0.67,-0.84,0.57,32,-6,43,1.07,7295,49,89,34,76,1330,367.0,367,452,60,117.0,325,1,397,446,119,0,0,363,135,1,367,,,,,,,,,,,,
250143,1560692778235,-0,2.7,2.03,3.54,2.52,5.04,0.65,-0.87,0.51,32,-4,44,1.08,7329,50,89,34,76,1323,370.0,295,458,60,117.0,325,1,399,446,119,0,0,384,145,2278,370,45.698929,4.908977,33.16,191.5,1,1.645,0,0.0,1.3233,2,0.86,4.1691
250163,1560692778255,-0,2.69,2.03,3.53,2.53,5.07,0.79,-0.9,0.56,32,-4,44,1.19,7338,50,89,34,75,1318,376.0,283,456,60,118.0,325,1,402,432,119,0,0,411,150,-18948,376,,,,,,,,,,,,
250183,1560692778275,-1,2.68,2.05,3.53,2.52,5.05,0.8,-0.94,0.6,33,-6,45,1.24,7329,50,89,34,76,1305,381.0,320,454,60,117.0,325,1,399,432,119,0,0,410,160,1,381,,,,,,,,,,,,
250203,1560692778295,1,2.67,2.07,3.54,2.54,5.04,0.79,-0.95,0.66,33,-6,47,1.24,7411,50,89,34,75,1289,385.0,349,455,60,118.0,325,1,406,433,124,0,0,396,-24576,-1818,385,,,,,,,,,,,,
250223,1560692778315,0,2.67,2.07,3.54,2.52,5.08,0.87,-1.01,0.7,34,-6,48,1.34,7440,50,89,34,75,1230,389.0,332,456,60,118.0,325,1,408,433,124,0,0,378,-12032,10541,389,,,,,,,,,,,,
250243,1560692778335,4,2.65,2.07,3.54,2.53,5.08,0.81,-1.07,0.77,35,-4,48,1.35,7470,50,89,34,75,1170,393.0,351,455,60,118.0,325,1,409,433,124,0,0,404,4838,-8151,393,45.698933,4.908968,33.81,191.6,1,1.645,0,0.0,1.325,2,0.86,4.1707
250263,1560692778355,4,2.65,2.07,3.57,2.54,5.05,0.78,-1.11,0.82,37,-4,51,1.35,7491,50,89,34,75,1134,396.0,381,453,60,118.0,325,1,410,433,124,0,0,435,-122,-26615,396,,,,,,,,,,,,
250283,1560692778375,1,2.64,2.07,3.58,2.56,5.04,0.86,-1.17,0.89,37,-4,51,1.45,7684,50,89,34,75,1073,400.0,425,457,60,117.0,325,1,421,422,124,0,0,416,-31222,10392,400,,,,,,,,,,,,
250303,1560692778395,1,2.65,2.15,3.55,2.6,5.03,0.88,-1.19,0.85,37,-8,51,1.48,7835,50,89,34,74,1007,400.0,455,456,60,117.0,320,1,434,413,128,0,0,381,-31222,9517,400,,,,,,,,,,,,
250323,1560692778415,4,2.65,2.2,3.54,2.63,5.03,0.88,-1.22,0.67,36,-4,50,1.5,7881,51,89,33,73,958,399.0,488,458,60,117.0,320,1,436,414,128,0,0,417,-31222,2524,399,,,,,,,,,,,,
250343,1560692778435,4,2.64,2.21,3.54,2.65,5.04,0.72,-1.18,0.79,36,-7,50,1.38,7891,51,89,33,71,921,406.0,510,452,60,118.0,320,1,439,392,128,0,0,452,2560,-21792,406,45.69894,4.908961,34.92,191.6,1,1.645,0,0.0,1.3267,2,0.87,4.1724
250363,1560692778455,-1,2.65,2.22,3.49,2.64,5.03,0.69,-1.18,0.91,36,-6,49,1.37,7928,51,89,33,71,899,405.0,513,456,60,117.0,320,1,442,383,128,0,0,425,-1246,-21792,405,,,,,,,,,,,,
250383,1560692778475,3,2.63,2.2,3.48,2.65,5.03,0.77,-1.2,0.87,36,-6,48,1.42,8012,51,89,33,70,882,409.0,517,454,60,117.0,320,1,445,386,128,0,0,392,-6644,13180,409,,,,,,,,,,,,
250403,1560692778495,4,2.62,2.19,3.48,2.64,5.08,0.79,-1.21,0.87,36,-8,48,1.45,7944,51,89,33,69,859,414.0,523,457,60,118.0,283,1,445,374,117,0,0,425,2060,-4082,416,,,,,,,,,,,,
250423,1560692778515,0,2.59,2.19,3.47,2.64,5.05,0.77,-1.29,0.98,36,-9,47,1.5,7864,51,89,33,69,844,416.0,523,456,60,118.0,283,1,441,371,117,0,0,461,-14707,-3314,416,,,,,,,,,,,,
250443,1560692778535,1,2.56,2.18,3.52,2.62,5.04,0.71,-1.27,1.07,36,-7,48,1.46,7982,51,89,33,70,837,421.0,515,457,60,117.0,283,1,445,385,117,0,0,448,-6405,21580,421,45.698948,4.908954,36.57,191.6,1,1.645,0,0.0,1.3283,2,0.87,4.174
250463,1560692778555,3,2.53,2.18,3.58,2.61,5.04,0.71,-1.21,0.9,36,-4,48,1.4,8187,51,89,33,69,831,425.0,524,455,60,118.0,283,1,443,379,117,0,0,430,1,-3322,425,,,,,,,,,,,,
250483,1560692778575,2,2.5,2.17,3.58,2.59,5.07,0.74,-1.2,0.97,36,-8,49,1.41,8314,51,89,33,67,820,428.0,529,452,60,117.0,283,1,441,367,117,0,0,412,-992,23400,431,,,,,,,,,,,,
250503,1560692778597,3,2.46,2.2,3.53,2.59,5.04,0.66,-1.18,0.87,35,-5,49,1.36,8411,51,89,33,65,816,432.0,539,461,60,118.0,271,1,441,363,117,0,0,457,-3866,-3267,432,,,,,,,,,,,,
250523,1560692778617,4,2.43,2.24,3.47,2.6,5.04,0.68,-1.17,0.92,34,-5,48,1.35,8499,51,89,33,64,813,433.0,555,451,60,117.0,271,1,441,354,117,0,0,475,-6524,-6387,433,,,,,,,,,,,,
250543,1560692778637,2,2.41,2.27,3.4,2.59,5.04,0.66,-1.01,0.94,33,-5,47,1.21,8577,51,89,33,63,814,435.0,536,453,60,117.0,271,1,437,350,117,0,0,437,-1818,-3267,435,45.698956,4.908947,37.69,191.7,1,1.645,0,0.0,1.33,2,0.87,4.1757
250563,1560692778657,15,2.39,2.29,3.37,2.6,5.04,0.53,-0.9,0.84,32,-2,46,1.04,8507,51,89,33,63,816,435.0,505,449,60,117.0,271,1,442,349,117,0,0,437,6512,-3267,435,,,,,,,,,,,,
250583,1560692778677,2,2.37,2.3,3.32,2.59,5.07,0.55,-0.92,0.87,30,-3,43,1.07,8400,51,89,33,62,820,438.0,496,454,60,117.0,271,1,446,337,117,0,0,451,-26615,3571,438,,,,,,,,,,,,
250603,1560692778696,-1,2.35,2.31,3.26,2.57,5.05,0.5,-0.77,0.9,27,-2,42,0.92,8285,51,89,33,62,828,442.0,495,455,60,118.0,239,1,447,331,105,0,0,446,-21944,14488,442,,,,,,,,,,,,
250623,1560692778716,4,2.33,2.33,3.23,2.55,5.07,0.48,-0.69,0.93,24,0,39,0.84,8249,51,89,33,63,841,444.0,499,447,60,117.0,239,1,447,337,105,0,0,444,13552,14488,444,,,,,,,,,,,,
250643,1560692778736,0,2.31,2.39,3.17,2.53,5.04,0.49,-0.57,0.9,22,-0,36,0.75,8289,51,89,33,64,870,443.0,461,453,60,118.0,239,1,445,345,105,0,0,447,-768,-6387,443,45.698967,4.908942,39.1,191.7,1,1.645,0,0.0,1.3317,2,0.87,4.1774
250663,1560692778756,4,2.3,2.4,3.17,2.51,5.04,0.47,-0.52,0.9,20,-1,34,0.7,8348,51,89,33,64,904,444.0,489,456,60,117.0,239,1,444,348,105,0,0,451,21580,17628,444,,,,,,,,,,,,
250683,1560692778776,2,2.29,2.42,3.17,2.47,5.07,0.6,-0.51,0.94,18,-1,32,0.79,8426,51,89,33,63,921,446.0,503,451,60,117.0,239,1,444,351,105,0,0,452,-18341,17628,446,,,,,,,,,,,,
250703,1560692778796,2,2.27,2.46,3.18,2.45,5.04,0.46,-0.45,0.88,16,-0,30,0.64,8581,51,89,33,62,949,448.0,521,460,60,118.0,247,1,437,350,111,0,0,456,16648,-23623,448,,,,,,,,,,,,
250723,1560692778816,4,2.26,2.48,3.18,2.44,5.05,0.47,-0.3,0.83,14,-1,28,0.55,8700,51,89,33,61,965,450.0,548,452,60,117.0,247,1,426,341,111,0,0,467,-3267,16408,450,,,,,,,,,,,,
250743,1560692778836,3,2.25,2.5,3.18,2.42,5.05,0.51,-0.19,0.79,13,1,25,0.54,8773,50,89,33,61,983,453.0,566,452,60,117.0,247,1,419,335,111,0,0,463,-8985,-3210,453,45.698978,4.908937,41.29,191.7,1,1.645,0,0.0,1.3333,2,0.87,4.179
250763,1560692778856,1,2.24,2.53,3.16,2.41,5.05,0.58,-0.32,0.83,11,0,21,0.66,8836,50,89,33,60,981,458.0,579,447,60,117.0,247,1,412,336,111,0,0,469,17628,-16384,453,,,,,,,,,,,,
250783,1560692778876,3,2.21,2.56,3.15,2.4,5.07,0.6,-0.28,0.8,9,0,18,0.66,8861,50,89,33,59,982,462.0,593,445,60,117.0,247,1,408,328,111,0,0,474,12552,-9203,455,,,,,,,,,,,,
250803,1560692778893,2,2.2,2.58,3.1,2.39,5.07,0.58,-0.28,0.85,8,-0,16,0.64,8873,50,89,33,59,987,465.0,602,452,60,118.0,241,1,405,329,110,0,0,474,243,-1923,456,,,,,,,,,,,,
250823,1560692778913,2,2.2,2.59,3.09,2.36,5.05,0.49,-0.15,0.94,6,-0,14,0.51,8886,50,89,33,58,994,468.0,616,448,60,117.0,241,1,403,322,110,0,0,476,-16384,10432,460,,,,,,,,,,,,
250843,1560692778933,1,2.2,2.59,3.07,2.34,5.07,0.41,0.06,0.87,5,-0,14,0.42,8907,50,89,33,57,1000,473.0,610,455,60,118.0,241,1,401,322,110,0,0,481,3576,16648,461,45.698986,4.908933,43.08,191.8,1,1.645,0,0.0,1.335,2,0.87,4.1807
250863,1560692778953,1,2.21,2.6,3.07,2.31,5.07,0.32,0.2,0.85,4,0,11,0.38,8937,50,89,33,58,1008,475.0,610,448,60,118.0,241,1,400,323,110,0,0,483,-17956,3580,464,,,,,,,,,,,,
250883,1560692778973,-1,2.2,2.6,3.08,2.3,5.06,0.21,0.38,0.84,3,-2,10,0.44,8992,50,89,33,58,1033,478.0,617,448,60,118.0,241,1,398,325,110,0,0,481,16648,32033,467,,,,,,,,,,,,
250903,1560692778993,2,2.2,2.59,3.11,2.29,5.07,0.07,0.54,0.75,3,2,8,0.55,9088,50,89,33,57,1063,480.0,613,452,60,118.0,231,1,400,320,108,0,0,486,8488,10305,468,,,,,,,,,,,,
250923,1560692779010,2,2.2,2.59,3.14,2.29,5.04,0.07,0.69,0.75,1,-2,7,0.69,9177,50,89,33,57,1077,483.0,620,443,60,118.0,231,1,400,322,108,0,0,489,3580,771,470,,,,,,,,,,,,
250943,1560692779030,3,2.2,2.6,3.13,2.28,5.06,0.08,0.79,0.64,0,0,6,0.79,9272,50,89,33,56,1095,485.0,626,453,60,117.0,231,1,401,324,108,0,0,494,-6441,-6656,471,45.698998,4.908929,44.84,191.8,1,1.645,0,0.0,1.3367,2,0.87,4.1824
250963,1560692779050,5,2.2,2.59,3.11,2.26,5.07,0.19,0.63,0.72,-1,-2,5,0.65,9346,50,89,33,56,1114,487.0,618,454,60,118.0,231,1,402,320,108,0,0,498,505,10408,474,,,,,,,,,,,,
250983,1560692779070,3,2.2,2.57,3.08,2.24,5.07,0.31,0.5,0.77,-2,1,2,0.58,9370,50,89,33,56,1136,493.0,633,451,60,117.0,231,1,402,321,108,0,0,496,-6528,2524,478,,,,,,,,,,,,
251003,1560692779096,1,2.19,2.57,3.06,2.22,5.04,0.25,0.52,0.79,-2,1,0,0.58,9375,47,89,33,55,1137,493.0,636,447,60,117.0,240,1,401,317,115,0,0,500,3,-32248,482,,,,,,,,,,,,
251023,1560692779116,1,2.2,2.56,3.04,2.21,5.05,0.22,0.65,0.81,-3,1,-0,0.68,9379,43,89,33,53,1138,498.0,627,452,60,118.0,240,1,396,301,115,0,0,506,10408,-4054,485,,,,,,,,,,,,
251043,1560692779136,4,2.2,2.56,3.04,2.21,5.07,0.4,0.6,0.82,-4,1,-2,0.72,9384,39,89,33,51,1126,502.0,627,456,60,118.0,240,1,390,279,115,0,0,508,15661,16383,487,45.699009,4.908924,46.14,191.9,1,1.645,0,0.0,1.3383,2,0.87,4.1841
251063,1560692779156,1,2.2,2.55,3.04,2.21,5.03,0.46,0.46,0.88,-4,-0,-4,0.64,9422,34,89,33,47,1110,502.0,627,450,60,118.0,240,1,378,248,115,0,0,510,15661,15661,489,,,,,,,,,,,,
251083,1560692779176,1,2.19,2.54,3.04,2.2,5.05,0.31,0.41,0.84,-3,3,-5,0.51,9431,31,89,33,44,1098,504.0,628,449,60,118.0,240,1,356,231,115,0,0,512,-32248,-3482,491,,,,,,,,,,,,
251103,1560692779196,1,2.19,2.53,3.04,2.21,5.07,0.3,0.56,0.76,-4,-0,-5,0.63,9417,29,89,33,41,1084,505.0,622,453,60,118.0,164,1,334,220,81,0,0,512,6274,15661,494,,,,,,,,,,,,
251123,1560692779216,4,2.19,2.53,3.04,2.21,5.05,0.46,0.52,0.76,-5,1,-7,0.69,9333,27,89,33,39,1059,508.0,625,450,60,117.0,164,1,320,215,81,0,0,507,-3414,771,494,,,,,,,,,,,,
251143,1560692779236,3,2.2,2.52,3.05,2.21,5.07,0.51,0.29,0.76,-6,-1,-8,0.59,9295,26,89,33,36,1023,507.0,626,447,60,118.0,164,1,311,205,81,0,0,509,-21872,2109,494,45.69902,4.908918,47.55,192.0,1,1.645,0,0.0,1.34,2,0.87,4.1857
251163,1560692779256,-0,2.19,2.51,3.08,2.19,5.03,0.46,0.41,0.7,-6,1,-8,0.61,9250,26,89,33,35,1008,508.0,616,453,60,118.0,164,1,308,202,81,0,0,508,-21872,11560,496,,,,,,,,,,,,
251183,1560692779276,1,2.2,2.51,3.13,2.16,5.04,0.45,0.57,0.56,-7,-1,-8,0.73,9236,26,89,33,34,997,508.0,628,451,60,118.0,164,1,305,198,81,0,0,509,-3414,-9216,495,,,,,,,,,,,,
251203,1560692779296,3,2.2,2.51,3.13,2.16,5.05,0.41,0.68,0.56,-6,-1,-8,0.8,9186,26,89,33,33,963,510.0,623,458,60,117.0,137,1,302,194,68,0,0,510,-28648,3,494,,,,,,,,,,,,
251223,1560692779316,3,2.2,2.49,3.14,2.12,5.05,0.57,0.58,0.63,-7,-3,-11,0.82,9191,26,90,33,32,931,508.0,622,448,60,117.0,137,1,300,191,68,0,0,505,10994,-6528,494,,,,,,,,,,,,
251243,1560692779336,1,2.21,2.49,3.15,2.12,5.08,0.66,0.41,0.73,-8,-3,-12,0.78,9132,25,90,33,32,914,509.0,619,453,60,118.0,137,1,300,190,68,0,0,504,10994,3,493,45.699036,4.908913,48.58,192.1,1,1.645,0,0.0,1.3417,2,0.88,4.1874
251263,1560692779356,2,2.21,2.47,3.16,2.09,5.07,0.8,0.17,0.79,-8,-4,-15,0.81,9115,25,90,33,31,892,508.0,624,450,60,117.0,137,1,295,189,68,0,0,509,-3414,248,496,,,,,,,,,,,,
251283,1560692779376,4,2.21,2.46,3.16,2.06,5.05,0.9,-0.01,0.9,-8,-5,-16,0.9,9075,25,90,32,31,870,510.0,618,447,60,117.0,137,1,295,188,68,0,0,507,-4054,998,493,,,,,,,,,,,,
251303,1560692779396,3,2.21,2.45,3.15,2.06,5.05,0.99,-0.12,0.89,-8,-4,-17,1.0,9079,25,90,32,31,832,507.0,620,445,60,117.0,129,1,295,188,64,0,0,505,-21872,-1818,495,,,,,,,,,,,,
251323,1560692779416,3,2.22,2.44,3.13,2.06,5.08,1.03,-0.22,0.92,-8,-5,-18,1.05,9044,25,90,32,30,817,505.0,614,450,60,117.0,129,1,291,188,64,0,0,510,6274,2524,494,,,,,,,,,,,,
251343,1560692779436,3,2.22,2.43,3.13,2.05,5.07,1.09,-0.35,0.91,-8,-4,-19,1.15,9010,24,90,32,30,800,506.0,610,449,60,117.0,129,1,291,188,64,0,0,501,-28648,998,494,45.699043,4.908906,48.72,192.2,1,1.645,0,0.0,1.3433,2,0.88,4.1891
251363,1560692779456,4,2.22,2.43,3.12,2.06,5.04,1.06,-0.44,0.9,-8,-6,-20,1.15,9001,24,90,32,30,789,505.0,610,452,60,117.0,129,1,291,188,64,0,0,507,6274,998,495,,,,,,,,,,,,
251383,1560692779476,3,2.23,2.41,3.12,2.05,5.04,1.16,-0.53,0.93,-7,-3,-22,1.27,8988,22,90,32,30,771,506.0,615,446,60,117.0,129,1,291,188,64,0,0,507,-28648,-32768,494,,,,,,,,,,,,
251403,1560692779496,4,2.22,2.4,3.12,2.05,5.05,1.08,-0.6,0.93,-7,-5,-22,1.24,8962,20,90,32,28,765,504.0,613,449,60,117.0,127,1,282,188,63,0,0,498,2109,771,493,,,,,,,,,,,,
251423,1560692779516,3,2.23,2.38,3.15,2.04,5.08,1.18,-0.65,0.93,-7,-3,-24,1.35,8962,19,90,32,27,763,500.0,614,448,60,117.0,127,1,278,188,63,0,0,496,10408,3580,493,,,,,,,,,,,,
251443,1560692779536,4,2.23,2.37,3.16,2.03,5.04,1.21,-0.67,0.92,-7,-6,-24,1.38,9005,18,90,32,27,767,498.0,626,453,60,117.0,127,1,278,188,63,0,0,495,2524,-899,489,45.699055,4.908899,49.14,192.2,1,1.645,0,0.0,1.345,2,0.88,4.1907
251463,1560692779556,3,2.23,2.35,3.17,2.01,5.05,1.29,-0.69,0.89,-7,-6,-24,1.46,9053,18,90,32,26,774,496.0,624,448,60,117.0,127,1,274,188,63,0,0,483,3,-899,488,,,,,,,,,,,,
251483,1560692779576,2,2.25,2.34,3.21,2.01,5.05,1.29,-0.73,0.93,-6,-7,-24,1.48,9049,18,90,32,25,780,495.0,623,453,60,117.0,127,1,270,188,63,0,0,485,771,-899,486,,,,,,,,,,,,
251503,1560692779596,3,2.25,2.33,3.22,2.02,5.05,1.36,-0.78,0.9,-6,-7,-25,1.57,8975,18,90,32,25,791,492.0,625,451,60,117.0,131,1,270,188,64,0,0,480,-32768,16648,484,,,,,,,,,,,,
251523,1560692779616,3,2.25,2.31,3.23,2.01,5.08,1.38,-0.83,0.92,-6,-7,-24,1.61,8882,18,90,32,25,798,489.0,617,456,60,118.0,131,1,270,188,64,0,0,479,1,-10483,484,,,,,,,,,,,,
251543,1560692779636,3,2.26,2.31,3.23,2.01,5.04,1.44,-0.92,0.92,-6,-8,-24,1.71,8811,17,90,32,25,812,485.0,620,448,60,117.0,131,1,270,188,64,0,0,472,-6441,16648,484,45.699066,4.908892,48.46,192.2,1,1.645,0,0.0,1.3467,2,0.88,4.1924
251563,1560692779656,0,2.28,2.29,3.22,2.0,5.04,1.39,-0.94,0.86,-6,-8,-23,1.67,8765,17,90,32,26,825,483.0,602,457,60,118.0,131,1,274,188,64,0,0,476,3580,2212,481,,,,,,,,,,,,
251583,1560692779676,-0,2.28,2.27,3.22,2.01,5.06,1.32,-0.82,0.68,-5,-7,-22,1.56,8733,17,90,32,26,832,481.0,610,453,60,118.0,131,1,274,188,64,0,0,472,32033,32033,478,,,,,,,,,,,,
251603,1560692779697,0,2.28,2.27,3.25,2.02,5.03,1.14,-0.68,0.67,-4,-7,-20,1.33,8712,17,90,32,26,839,478.0,608,455,60,118.0,129,1,274,188,62,0,0,461,2212,243,477,,,,,,,,,,,,
251623,1560692779717,2,2.29,2.23,3.29,2.02,5.06,1.11,-0.52,0.64,-3,-5,-18,1.23,8660,17,90,32,26,846,477.0,616,458,60,118.0,129,1,274,188,62,0,0,462,-17956,12552,473,,,,,,,,,,,,
251643,1560692779737,2,2.29,2.21,3.31,2.01,5.08,1.14,-0.44,0.66,-3,-5,-16,1.22,8620,17,90,32,27,856,474.0,617,454,60,117.0,129,1,274,188,62,0,0,463,3576,243,474,45.699078,4.908885,46.83,192.3,1,1.645,0,0.0,1.3483,2,0.88,4.194
251663,1560692779757,2,2.29,2.19,3.29,2.01,5.05,1.2,-0.54,0.59,-3,-4,-16,1.32,8600,17,90,32,26,860,472.0,617,453,60,118.0,129,1,274,188,62,0,0,458,8488,2211,472,,,,,,,,,,,,
251683,1560692779777,1,2.3,2.19,3.27,2.02,5.06,1.05,-0.47,0.55,-2,-3,-14,1.15,8569,17,90,32,26,869,469.0,607,456,60,118.0,129,1,274,188,62,0,0,462,243,17628,469,,,,,,,,,,,,
251703,1560692779795,3,2.3,2.18,3.27,2.02,5.03,1.03,-0.37,0.53,-1,-4,-11,1.09,8546,17,90,32,26,880,467.0,606,455,60,117.0,130,1,274,188,61,0,0,459,6193,-26615,467,,,,,,,,,,,,
251723,1560692779815,1,2.3,2.17,3.3,2.02,5.08,1.12,-0.39,0.55,-1,-3,-10,1.18,8495,17,90,32,26,895,465.0,611,456,60,118.0,130,1,274,187,61,0,0,454,-23623,-8985,465,,,,,,,,,,,,
251743,1560692779835,1,2.3,2.18,3.32,2.03,5.04,0.98,-0.38,0.54,0,-4,-9,1.05,8465,17,90,32,26,909,465.0,612,458,60,118.0,130,1,274,185,61,0,0,453,-23623,-8985,465,45.699089,4.908878,45.88,192.4,1,1.645,0,0.0,1.35,2,0.88,4.1957
251763,1560692779855,2,2.31,2.17,3.35,2.03,5.03,1.03,-0.36,0.46,0,-3,-8,1.09,8430,17,90,32,25,917,461.0,604,455,60,117.0,130,1,270,183,61,0,0,449,-9160,-26615,461,,,,,,,,,,,,
251783,1560692779875,-0,2.31,2.18,3.35,2.03,5.07,1.0,-0.36,0.45,0,-2,-6,1.06,8430,17,90,32,25,926,461.0,598,457,60,118.0,130,1,270,183,61,0,0,447,-26615,2131,461,,,,,,,,,,,,
251803,1560692779897,4,2.31,2.17,3.36,2.02,5.05,0.92,-0.33,0.46,1,-2,-5,0.98,8400,17,90,32,25,935,457.0,593,455,60,118.0,126,1,270,182,58,0,0,446,2524,-3267,457,,,,,,,,,,,,
251823,1560692779917,2,2.32,2.17,3.35,2.02,5.07,1.01,-0.29,0.42,1,-2,-4,1.05,8378,17,90,32,25,933,456.0,590,451,60,117.0,126,1,270,179,58,0,0,450,-6387,-3267,456,,,,,,,,,,,,
251843,1560692779937,5,2.32,2.18,3.36,2.01,5.05,1.07,-0.3,0.4,2,-3,-3,1.11,8300,17,90,32,25,931,455.0,596,458,60,117.0,126,1,270,177,58,0,0,446,15649,21432,455,45.699097,4.908871,44.9,192.4,1,1.645,0,0.0,1.3517,2,0.88,4.1974
251863,1560692779957,2,2.34,2.18,3.37,2.02,5.08,1.11,-0.31,0.41,2,-3,-3,1.15,8245,17,90,32,25,918,453.0,594,454,60,117.0,126,1,270,176,58,0,0,438,8488,26704,454,,,,,,,,,,,,
251883,1560692779977,5,2.33,2.17,3.4,2.03,5.04,1.11,-0.27,0.43,2,-3,-2,1.14,8252,17,90,32,25,911,450.0,590,457,60,118.0,126,1,270,174,58,0,0,440,2131,8488,450,,,,,,,,,,,,
251903,1560692779997,1,2.35,2.18,3.4,2.04,5.05,1.08,-0.29,0.44,3,-3,-1,1.11,8205,17,90,32,25,903,449.0,589,458,60,117.0,117,1,270,171,53,0,0,438,-18341,2131,449,,,,,,,,,,,,
251923,1560692780009,4,2.34,2.17,3.4,2.03,5.05,1.08,-0.29,0.4,4,-1,-0,1.12,8187,17,90,32,25,892,448.0,592,457,60,118.0,117,1,270,170,53,0,0,434,20625,21432,448,,,,,,,,,,,,
251943,1560692780029,1,2.35,2.16,3.4,2.04,5.08,1.11,-0.31,0.46,4,-2,0,1.16,8159,17,90,32,25,882,447.0,592,460,60,117.0,117,1,270,171,53,0,0,438,-28332,19477,447,45.699108,4.908864,44.13,192.5,1,1.645,0,0.0,1.3533,2,0.89,4.199
251963,1560692780049,2,2.38,2.16,3.36,2.05,5.04,1.07,-0.29,0.43,5,-2,1,1.11,8155,17,90,32,25,872,447.0,591,457,60,118.0,117,1,270,168,53,0,0,435,5600,-7939,446,,,,,,,,,,,,
251983,1560692780069,1,2.37,2.13,3.36,2.04,5.04,1.13,-0.35,0.49,5,-2,1,1.18,8102,17,90,32,25,869,447.0,582,456,60,118.0,117,1,270,165,53,0,0,429,-768,21580,447,,,,,,,,,,,,
252003,1560692780095,3,2.4,2.1,3.38,2.07,5.08,1.06,-0.34,0.41,6,-2,2,1.12,8081,17,90,32,25,867,447.0,578,457,60,117.0,111,1,270,165,50,0,0,431,-3322,243,447,,,,,,,,,,,,
252023,1560692780115,4,2.42,2.1,3.41,2.18,5.04,1.11,-0.41,0.38,6,-2,3,1.19,8078,17,90,32,25,863,447.0,575,457,60,118.0,111,1,270,163,50,0,0,425,3635,19477,447,,,,,,,,,,,,
252043,1560692780135,1,2.43,2.07,3.43,2.17,5.08,1.14,-0.45,0.46,6,-4,5,1.22,8033,17,90,32,26,859,446.0,574,455,60,117.0,111,1,272,159,50,0,0,423,13552,26704,445,45.699116,4.908858,43.39,192.6,1,1.645,0,0.0,1.355,2,0.89,4.2007
252063,1560692780155,3,2.43,2.05,3.45,2.19,5.06,1.07,-0.44,0.41,8,-4,7,1.16,7978,17,90,32,26,857,446.0,575,459,60,117.0,111,1,272,160,50,0,0,418,3826,19477,446,,,,,,,,,,,,
252083,1560692780175,6,2.46,2.02,3.5,2.22,5.06,1.03,-0.51,0.4,9,-2,8,1.15,7992,17,90,32,26,855,445.0,566,457,60,118.0,111,1,272,160,50,0,0,415,7154,-3322,445,,,,,,,,,,,,
252103,1560692780197,1,2.45,2.02,3.49,2.22,5.04,1.13,-0.6,0.5,9,-5,10,1.28,7931,17,90,32,26,855,444.0,568,454,60,117.0,107,1,272,160,48,0,0,417,18584,21580,444,,,,,,,,,,,,
252123,1560692780217,3,2.48,2.01,3.49,2.24,5.05,1.06,-0.6,0.42,11,-4,11,1.22,7911,17,90,32,26,855,443.0,567,458,60,117.0,107,1,272,160,48,0,0,407,2524,-7939,443,,,,,,,,,,,,
252143,1560692780237,4,2.48,2.0,3.5,2.27,5.04,1.02,-0.61,0.42,12,-4,13,1.19,7894,17,90,33,26,856,443.0,563,457,60,118.0,107,1,271,160,48,0,0,408,-4059,19477,442,45.699127,4.908851,42.5,192.6,1,1.645,0,0.0,1.3567,2,0.89,4.2024
252163,1560692780257,-0,2.49,1.98,3.6,2.28,5.03,1.12,-0.69,0.48,13,-4,14,1.32,7815,17,90,33,27,858,442.0,561,455,60,118.0,107,1,274,160,48,0,0,404,9517,1779,442,,,,,,,,,,,,
252183,1560692780277,0,2.5,1.97,3.61,2.27,5.05,1.18,-0.78,0.58,14,-4,17,1.41,7835,17,90,33,27,860,442.0,564,460,60,117.0,107,1,273,161,48,0,0,406,10392,-28332,441,,,,,,,,,,,,
252203,1560692780297,2,2.52,1.96,3.6,2.31,5.06,1.18,-0.8,0.58,15,-5,19,1.42,7757,17,90,33,27,861,439.0,562,456,60,117.0,106,1,273,161,47,0,0,401,1504,-768,439,,,,,,,,,,,,
252223,1560692780317,4,2.54,1.94,3.62,2.32,5.04,1.04,-0.75,0.39,17,-4,21,1.28,7706,16,90,33,27,862,441.0,558,456,60,117.0,106,1,273,161,47,0,0,393,11545,-3322,441,,,,,,,,,,,,
252243,1560692780337,3,2.56,1.94,3.62,2.34,5.04,0.88,-0.74,0.21,19,-3,23,1.15,7716,16,90,33,27,862,438.0,553,457,60,118.0,106,1,273,161,47,0,0,394,6512,1779,439,45.699139,4.908845,41.21,192.7,1,1.645,0,0.0,1.3583,2,0.89,4.2041
252263,1560692780357,2,2.59,1.93,3.64,2.33,5.06,0.84,-0.81,0.19,21,-1,26,1.17,7668,16,90,33,28,863,439.0,558,456,60,118.0,106,1,276,163,47,0,0,392,6384,1779,439,,,,,,,,,,,,
252283,1560692780377,4,2.61,1.91,3.68,2.34,5.08,0.92,-0.93,0.36,23,-2,29,1.31,7662,16,90,33,28,864,438.0,549,456,60,118.0,106,1,276,163,47,0,0,382,-1818,31796,438,,,,,,,,,,,,
252303,1560692780395,5,2.62,1.9,3.68,2.36,5.06,1.03,-1.04,0.52,23,-4,31,1.46,7584,16,90,33,28,865,436.0,544,455,60,118.0,108,1,275,163,47,0,0,383,505,-3322,436,,,,,,,,,,,,
252323,1560692780415,-2,2.63,1.89,3.68,2.37,5.07,1.13,-1.13,0.66,24,-5,34,1.6,7572,16,90,33,28,866,436.0,544,458,60,118.0,108,1,275,163,47,0,0,381,240,-7939,436,,,,,,,,,,,,
252343,1560692780435,-1,2.63,1.88,3.68,2.37,5.07,1.16,-1.17,0.72,26,-5,36,1.65,7497,16,90,33,28,869,435.0,535,453,60,118.0,108,1,275,163,47,0,0,378,-3866,-3856,435,45.69915,4.908842,40.44,192.8,1,1.645,0,0.0,1.36,2,0.89,4.2057
252363,1560692780455,-0,2.63,1.88,3.68,2.38,5.03,1.23,-1.26,0.7,27,-6,37,1.76,7479,16,90,33,28,873,435.0,541,459,60,118.0,108,1,275,163,47,0,0,370,-19126,13552,435,,,,,,,,,,,,
252383,1560692780475,4,2.62,1.89,3.68,2.38,5.04,1.31,-1.26,0.72,27,-8,39,1.82,7422,16,90,33,29,876,434.0,536,455,60,118.0,108,1,278,164,47,0,0,368,-18948,-21792,434,,,,,,,,,,,,
252403,1560692780497,4,2.62,1.88,3.68,2.38,5.03,1.38,-1.33,0.75,29,-7,41,1.92,7428,16,90,33,29,878,432.0,537,461,60,118.0,106,1,278,164,46,0,0,369,-992,-4082,432,,,,,,,,,,,,
252423,1560692780517,3,2.62,1.88,3.69,2.38,5.08,1.36,-1.4,0.84,31,-7,41,1.95,7361,16,90,33,29,880,432.0,527,455,60,118.0,106,1,278,164,46,0,0,370,2278,31796,429,,,,,,,,,,,,
252443,1560692780537,2,2.59,1.88,3.69,2.39,5.07,1.39,-1.41,0.85,32,-7,42,1.98,7347,16,90,33,29,880,429.0,389,461,60,117.0,106,1,278,164,46,0,0,360,3,13552,429,45.699158,4.908838,39.92,192.9,1,1.645,0,0.0,1.3617,2,0.89,4.2074
252463,1560692780557,3,2.57,1.87,3.68,2.39,5.04,1.25,-1.43,0.82,33,-4,43,1.9,7278,16,90,33,30,880,427.0,355,453,60,118.0,106,1,282,166,46,0,0,360,742,-21792,427,,,,,,,,,,,,
252483,1560692780577,0,2.54,1.87,3.69,2.38,5.07,1.04,-1.35,0.66,34,-3,43,1.7,7244,16,90,33,30,879,427.0,343,460,60,117.0,106,1,282,166,46,0,0,361,-6656,-21944,423,,,,,,,,,,,,
252503,1560692780597,-1,2.49,1.88,3.68,2.38,5.05,0.86,-1.18,0.48,34,-3,44,1.46,7231,16,90,33,30,877,423.0,331,456,60,118.0,106,1,282,166,45,0,0,363,1,-9166,423,,,,,,,,,,,,
252523,1560692780617,1,2.43,1.9,3.67,2.35,5.05,0.9,-1.11,0.48,33,-3,44,1.43,7183,16,90,33,30,877,420.0,296,455,60,118.0,106,1,281,166,45,0,0,362,-6656,-9166,420,,,,,,,,,,,,
252543,1560692780637,4,2.38,1.92,3.64,2.33,5.05,1.01,-1.12,0.62,31,-6,44,1.51,7186,16,90,33,30,878,414.0,331,456,60,118.0,106,1,281,166,45,0,0,363,742,-8151,414,45.699169,4.908837,38.49,192.9,1,1.645,0,0.0,1.3633,2,0.89,4.2091
252563,1560692780657,2,2.34,1.96,3.57,2.27,5.06,1.01,-1.11,0.58,30,-3,42,1.5,7172,16,90,33,30,880,409.0,322,457,60,118.0,106,1,281,167,45,0,0,373,8200,11545,406,,,,,,,,,,,,
252583,1560692780677,2,2.29,2.01,3.49,2.21,5.07,0.77,-0.94,0.41,29,-2,40,1.21,7181,16,90,33,31,882,402.0,303,457,60,118.0,106,1,285,167,45,0,0,378,19125,-31744,401,,,,,,,,,,,,
