"Interval"|"ms"|0|0|1,"Utc"|"ms"|0|0|1,"FB_p"|"bar"|0|300|50,"Volant"|"F"|0.0|300.0|50,"xFR"|"mm"|0.0|5.0|50,"xRR"|"mm"|0.0|5.0|50,"xFL"|"mm"|0.0|5.0|50,"xRL"|"mm"|0.0|5.0|50,"AccelX"|"G"|-3.0|3.0|50,"AccelY"|"G"|-3.0|3.0|50,"AccelZ"|"G"|-3.0|3.0|50,"Yaw"|"Deg/Sec"|-120|120|50,"Pitch"|"Deg/Sec"|-120|120|50,"Roll"|"Deg/Sec"|-120|120|50,"Gsum"|"G"|0.0|3.0|50,"RPM"|""|0|14000|50,"TPS"|"%"|0|100|50,"WaterTemp"|"?C"|0|300|50,"AirTemp"|"?C"|-1000|1000|50,"MAP"|"KPa"|0|255|50,"Lambda"|""|0|1024|50,"WheelSpeed"|"MPH"|0.0|150.0|50,"OilPress"|"PSI"|0|150|50,"FuelPress"|"PSI"|0|150|50,"OilTemp"|"F"|0|300|50,"Battery"|"Volts"|0.0|20.0|50,"FuelCon"|"L/h"|-1000|1000|50,"Gear"|""|0|10|50,"Advance"|"Deg"|-360|360|50,"Injection"|"ms"|-1000|1000|50,"FuelCon"|"L/100km"|-1000|1000|50,"LC_But_Pres"|""|-1000|1000|50,"LC_Active"|""|-1000|1000|50,"RD_Speed"|""|-1000|1000|50,"RUD_Speed"|""|-1000|1000|50,"LD_Speed"|""|-1000|1000|50,"LUD_Speed"|""|-1000|1000|50,"Latitude"|"Degrees"|-180.0|180.0|10,"Longitude"|"Degrees"|-180.0|180.0|10,"Speed"|"kph"|0.0|150.0|10,"Altitude"|"m"|0.0|4000.0|10,"LapCount"|""|0|0|10,"LapTime"|"Min"|0.0|0.0|10,"Sector"|""|0|0|10,"SectorTime"|"Min"|0.0|0.0|10,"ElapsedTime"|"Min"|0.0|0.0|10,"CurrentLap"|""|0|0|10,"Distance"|"km"|0.0|0.0|10,"SessionTime"|"Min"|0.0|0.0|10
614363,1560691886185,2,2.35,1.96,3.46,1.73,5.06,1.11,-0.12,0.05,5,-3,4,1.11,7194,5,92,34,23,899,494.0,514,458,60,117.0,77,1,261,154,40,0,0,438,3580,17628,494,,,,,,,,,,,,
614383,1560691886205,1,2.34,1.94,3.46,1.77,5.07,0.99,-0.13,0.04,6,-1,4,1.0,7364,5,92,34,22,897,490.0,515,458,60,118.0,85,1,262,151,42,0,0,440,32033,10432,490,,,,,,,,,,,,
614403,1560691886225,1,2.35,1.94,3.46,1.81,5.04,0.97,-0.1,0.01,6,1,5,0.97,7364,5,92,34,22,895,488.0,523,456,60,118.0,85,1,263,151,42,0,0,448,-17956,-16384,488,,,,,,,,,,,,
614423,1560691886245,2,2.34,1.93,3.46,1.82,5.08,0.89,-0.09,-0.01,7,1,5,0.89,7506,5,92,34,21,892,486.0,523,461,60,118.0,85,1,265,149,42,0,0,460,32033,3571,486,,,,,,,,,,,,
614443,1560691886265,3,2.34,1.91,3.46,1.82,5.07,0.87,-0.14,-0.04,8,2,5,0.88,7681,5,92,34,20,889,479.0,538,465,60,118.0,85,1,265,149,42,0,0,449,8488,26704,479,45.699005,4.910068,51.14,188.5,5,1.8283,0,0.0,1.0817,6,0.76,10.2407
614463,1560691886285,4,2.33,1.91,3.46,1.84,5.03,0.83,-0.23,-0.05,9,3,5,0.86,7744,5,92,34,20,888,474.0,540,465,60,118.0,85,1,266,149,42,0,0,447,-3210,8488,477,,,,,,,,,,,,
614483,1560691886307,1,2.32,1.91,3.46,1.88,5.07,0.93,-0.26,0.02,9,3,5,0.96,7744,5,92,34,20,888,474.0,540,458,60,117.0,90,1,267,146,43,0,0,445,12552,21432,474,,,,,,,,,,,,
614503,1560691886327,1,2.32,1.91,3.46,1.88,5.07,0.99,-0.21,0.12,9,2,6,1.02,7934,5,92,34,20,893,465.0,560,457,60,117.0,90,1,268,146,43,0,0,446,-9160,8488,468,,,,,,,,,,,,
614523,1560691886347,2,2.32,1.92,3.46,1.89,5.04,0.95,-0.15,0.07,9,2,7,0.96,7934,5,92,34,20,893,465.0,560,460,60,118.0,90,1,269,146,43,0,0,444,-26615,26704,465,,,,,,,,,,,,
614543,1560691886367,3,2.3,1.91,3.48,1.88,5.04,0.93,-0.11,0.06,9,2,7,0.93,7971,5,92,34,19,896,462.0,557,457,60,118.0,90,1,269,144,43,0,0,432,-8985,-7939,462,45.698998,4.910059,48.32,188.5,5,1.8283,0,0.0,1.0833,6,0.76,10.2424
614563,1560691886387,2,2.3,1.91,3.47,1.89,5.03,0.97,-0.12,0.18,8,2,6,0.98,8113,5,92,34,19,906,454.0,581,458,60,117.0,96,1,270,144,43,0,0,437,3571,21580,459,,,,,,,,,,,,
614583,1560691886407,3,2.3,1.93,3.45,1.89,5.04,0.89,-0.09,0.11,8,2,7,0.89,8113,5,92,34,19,906,454.0,581,458,60,117.0,96,1,270,145,44,0,0,434,8488,3826,454,,,,,,,,,,,,
614603,1560691886427,-1,2.29,1.92,3.46,1.89,5.06,0.9,-0.1,0.24,8,3,6,0.91,8116,5,92,34,18,920,448.0,588,458,60,117.0,96,1,270,142,44,0,0,430,2131,31796,449,,,,,,,,,,,,
614623,1560691886447,2,2.29,1.92,3.46,1.89,5.05,0.88,-0.01,0.18,8,3,7,0.88,8120,5,92,34,18,920,448.0,588,458,60,117.0,96,1,270,142,44,0,0,433,21432,243,448,,,,,,,,,,,,
614643,1560691886467,-0,2.28,1.95,3.44,1.89,5.04,0.83,-0.04,0.15,8,4,7,0.84,8120,5,92,34,18,925,447.0,581,459,60,118.0,96,1,270,142,44,0,0,434,26704,243,445,45.698986,4.910051,46.64,188.4,5,1.8283,0,0.0,1.085,6,0.76,10.2441
614663,1560691886487,1,2.29,1.95,3.43,1.89,5.08,0.86,-0.04,0.27,7,5,5,0.86,8067,5,92,34,18,930,445.0,583,455,60,117.0,96,1,270,141,44,0,0,432,21580,13180,445,,,,,,,,,,,,
614683,1560691886505,3,2.28,1.96,3.39,1.88,5.06,0.81,0.05,0.13,7,5,6,0.81,7988,5,92,34,18,936,442.0,573,458,60,118.0,97,1,269,141,43,0,0,430,19477,13552,439,,,,,,,,,,,,
614703,1560691886525,4,2.28,1.96,3.38,1.89,5.05,0.78,-0.03,0.15,7,5,6,0.78,7968,5,92,34,18,939,438.0,566,461,60,118.0,97,1,269,141,43,0,0,429,-7939,-4082,438,,,,,,,,,,,,
614723,1560691886545,-1,2.29,1.97,3.39,1.89,5.05,0.8,-0.07,0.27,7,5,5,0.81,7864,5,92,34,18,937,433.0,564,458,60,117.0,97,1,269,141,43,0,0,422,243,-21792,436,,,,,,,,,,,,
614743,1560691886565,2,2.28,1.98,3.39,1.89,5.04,0.81,0.05,0.27,6,5,6,0.81,7855,5,92,34,18,928,430.0,551,458,60,117.0,97,1,268,141,43,0,0,422,-3314,-3414,432,45.698978,4.910042,45.08,188.4,5,1.8283,0,0.0,1.0867,6,0.76,10.2457
614763,1560691886585,2,2.29,1.97,3.39,1.88,5.07,0.73,0.12,0.12,6,5,6,0.74,7855,5,92,34,18,928,430.0,551,458,60,118.0,97,1,268,141,43,0,0,421,3635,-21792,430,,,,,,,,,,,,
614783,1560691886609,3,2.27,1.98,3.39,1.88,5.06,0.71,0.09,0.08,6,5,6,0.71,7789,5,92,34,18,909,427.0,551,456,60,118.0,95,1,267,141,41,0,0,420,31796,-3414,429,,,,,,,,,,,,
614803,1560691886629,-0,2.27,1.98,3.39,1.89,5.03,0.75,-0.03,0.15,5,4,5,0.75,7789,5,92,34,18,909,427.0,551,456,60,118.0,95,1,267,141,41,0,0,417,-4082,-26615,427,,,,,,,,,,,,
614823,1560691886649,-2,2.27,2.01,3.37,1.88,5.07,0.87,-0.07,0.26,4,1,3,0.87,7747,5,92,34,18,900,423.0,554,456,60,117.0,95,1,267,141,41,0,0,414,3826,13040,423,,,,,,,,,,,,
614843,1560691886669,1,2.26,2.01,3.37,1.88,5.06,0.98,-0.04,0.33,3,0,2,0.98,7674,5,92,34,19,884,421.0,555,458,60,117.0,95,1,266,144,41,0,0,416,-3414,13040,420,45.698967,4.910033,43.56,188.4,5,1.8283,0,0.0,1.0883,6,0.76,10.2474
614863,1560691886689,0,2.25,2.01,3.37,1.87,5.06,1.0,0.0,0.33,3,0,2,1.0,7609,5,92,34,18,885,420.0,545,458,60,117.0,95,1,266,144,41,0,0,412,-8165,-26615,419,,,,,,,,,,,,
614883,1560691886707,3,2.23,2.04,3.36,1.87,5.05,0.99,0.07,0.23,2,-0,2,0.99,7609,5,92,34,18,885,420.0,545,458,60,118.0,97,1,266,144,41,0,0,409,-8165,1504,418,,,,,,,,,,,,
614903,1560691886727,1,2.23,2.1,3.35,1.87,5.06,0.94,0.15,0.14,1,-0,3,0.95,7551,5,92,34,19,893,416.0,549,462,60,117.0,97,1,265,144,41,0,0,408,7154,1504,413,,,,,,,,,,,,
614923,1560691886747,2,2.21,2.1,3.34,1.86,5.06,0.96,0.21,0.17,1,-0,2,0.98,7545,5,92,34,19,899,414.0,537,462,60,117.0,97,1,265,144,41,0,0,406,18584,-9211,411,,,,,,,,,,,,
614943,1560691886767,3,2.2,2.1,3.33,1.84,5.06,0.91,0.33,0.08,-0,-1,2,0.97,7545,5,92,34,19,899,414.0,537,459,60,118.0,97,1,265,144,41,0,0,405,2524,6512,409,45.698956,4.910025,42.28,188.4,5,1.8283,0,0.0,1.09,6,0.76,10.2491
614963,1560691886787,2,2.19,2.1,3.31,1.85,5.03,0.87,0.41,0.0,-1,-1,2,0.96,7488,5,92,34,19,904,414.0,533,457,60,118.0,97,1,264,144,41,0,0,403,-9166,-1818,407,,,,,,,,,,,,
614983,1560691886804,3,2.18,2.13,3.3,1.84,5.06,0.79,0.52,-0.01,-2,-0,1,0.94,7419,5,92,34,19,920,412.0,524,460,60,119.0,98,1,264,144,40,0,0,403,-9166,28696,404,,,,,,,,,,,,
615003,1560691886824,0,2.17,2.13,3.25,1.85,5.07,0.85,0.54,0.08,-3,-1,-1,1.0,7419,5,92,34,19,920,412.0,524,456,60,119.0,98,1,264,144,40,0,0,404,13040,1,400,,,,,,,,,,,,
615023,1560691886844,1,2.18,2.12,3.24,1.84,5.04,0.82,0.58,0.09,-4,-1,-2,1.0,7408,5,92,34,19,930,409.0,525,463,60,118.0,98,1,264,144,40,0,0,400,11560,-32702,399,,,,,,,,,,,,
615043,1560691886864,1,2.18,2.15,3.24,1.84,5.06,0.82,0.56,0.12,-5,-2,-4,0.99,7352,5,92,34,19,935,408.0,532,458,60,118.0,98,1,263,144,40,0,0,398,10392,-6524,395,45.698952,4.910018,41.46,188.4,5,1.8283,0,0.0,1.0917,6,0.77,10.2507
615063,1560691886884,0,2.17,2.17,3.24,1.84,5.05,0.91,0.52,0.17,-6,-2,-5,1.05,7295,5,92,35,19,931,404.0,524,459,60,117.0,99,1,263,143,40,0,0,400,-26615,-19019,393,,,,,,,,,,,,
615083,1560691886908,4,2.17,2.15,3.24,1.84,5.03,0.93,0.38,0.26,-6,-1,-6,1.01,7295,5,92,35,19,931,404.0,524,459,60,117.0,99,1,262,143,39,0,0,398,-9211,-1562,391,,,,,,,,,,,,
615103,1560691886928,2,2.17,2.16,3.24,1.84,5.04,0.93,0.34,0.22,-7,0,-6,0.99,7244,5,92,35,19,923,404.0,521,456,60,118.0,99,1,262,143,39,0,0,390,1504,-3866,390,,,,,,,,,,,,
615123,1560691886948,1,2.17,2.16,3.24,1.84,5.07,0.94,0.4,0.15,-7,0,-6,1.02,7175,5,92,35,20,898,400.0,526,459,60,117.0,99,1,262,143,39,0,0,391,11545,8200,388,,,,,,,,,,,,
615143,1560691886968,-1,2.18,2.16,3.23,1.84,5.05,0.89,0.5,0.09,-7,1,-7,1.02,7178,5,92,35,20,881,398.0,526,459,60,118.0,99,1,261,145,39,0,0,393,6512,-18948,386,45.69894,4.91001,40.05,188.4,5,1.8283,0,0.0,1.0933,6,0.77,10.2524
615163,1560691886988,-1,2.19,2.16,3.23,1.83,5.06,0.94,0.43,0.26,-8,2,-9,1.03,7178,5,92,35,20,881,398.0,526,459,60,118.0,99,1,261,145,39,0,0,388,6384,770,384,,,,,,,,,,,,
615183,1560691887004,4,2.19,2.17,3.23,1.85,5.04,0.93,0.29,0.35,-8,1,-11,0.98,7086,5,92,35,20,861,393.0,503,455,60,119.0,102,1,260,145,39,0,0,389,-32702,-6656,381,,,,,,,,,,,,
615203,1560691887024,3,2.21,2.16,3.25,1.84,5.07,0.98,0.26,0.23,-8,1,-10,1.01,7070,5,92,35,20,857,392.0,514,460,60,118.0,102,1,260,145,39,0,0,387,-6656,3,379,,,,,,,,,,,,
615223,1560691887044,-1,2.22,2.17,3.25,1.85,5.08,0.88,0.39,0.06,-7,4,-9,0.96,7006,5,92,35,20,861,388.0,509,460,60,118.0,102,1,260,145,39,0,0,383,1,257,378,,,,,,,,,,,,
615243,1560691887064,4,2.24,2.16,3.25,1.86,5.05,0.97,0.3,0.19,-8,2,-10,1.01,6967,5,92,35,20,861,388.0,509,458,60,117.0,102,1,260,145,39,0,0,380,-31744,-6656,378,45.698936,4.910002,38.95,188.4,5,1.8283,0,0.0,1.095,6,0.77,10.2541
615263,1560691887084,2,2.23,2.16,3.25,1.86,5.07,0.94,0.28,0.18,-7,2,-9,0.98,6967,5,92,35,20,866,387.0,496,457,60,118.0,102,1,259,144,39,0,0,374,240,-6656,378,,,,,,,,,,,,
615283,1560691887106,1,2.24,2.16,3.26,1.85,5.04,0.91,0.32,0.16,-6,3,-10,0.97,6913,5,92,35,21,881,381.0,495,462,60,117.0,100,1,259,144,38,0,0,375,-19019,0,376,,,,,,,,,,,,
615303,1560691887126,3,2.24,2.15,3.27,1.86,5.08,0.94,0.22,0.23,-7,2,-10,0.96,6883,5,92,35,21,880,379.0,492,462,60,117.0,100,1,260,147,38,0,0,374,-18948,0,374,,,,,,,,,,,,
615323,1560691887146,-2,2.25,2.15,3.26,1.86,5.04,0.95,0.31,0.14,-6,2,-9,1.0,6855,5,92,35,21,880,379.0,492,457,60,118.0,100,1,260,147,38,0,0,368,8200,0,372,,,,,,,,,,,,
615343,1560691887166,4,2.25,2.14,3.28,1.86,5.07,0.89,0.24,0.13,-5,4,-9,0.92,6855,5,92,35,21,877,376.0,495,463,60,117.0,100,1,260,147,38,0,0,367,3,-14707,371,45.698925,4.909996,38.03,188.4,5,1.8283,0,0.0,1.0967,6,0.77,10.2557
615363,1560691887186,-1,2.25,2.14,3.28,1.86,5.04,1.0,0.26,0.11,-5,3,-7,1.03,6828,5,92,35,21,868,375.0,496,459,60,118.0,100,1,260,146,38,0,0,366,1,230,371,,,,,,,,,,,,
615383,1560691887204,4,2.24,2.12,3.27,1.88,5.03,0.89,0.21,0.17,-4,2,-8,0.92,6747,5,92,35,21,852,369.0,485,456,60,117.0,100,1,260,146,37,0,0,364,257,2790,368,,,,,,,,,,,,
615403,1560691887224,0,2.25,2.14,3.28,1.89,5.07,0.97,0.16,0.16,-4,0,-8,0.98,6737,5,92,35,21,848,367.0,485,456,60,117.0,100,1,260,146,37,0,0,362,-6656,230,366,,,,,,,,,,,,
615423,1560691887244,4,2.25,2.14,3.31,1.89,5.07,0.92,0.14,0.21,-4,0,-9,0.93,6737,5,92,35,21,848,367.0,485,457,60,119.0,100,1,260,146,37,0,0,359,0,-6640,365,,,,,,,,,,,,
615443,1560691887264,1,2.25,2.13,3.3,1.88,5.05,0.97,0.14,0.24,-4,1,-8,0.98,6713,5,92,35,22,852,366.0,492,460,60,118.0,100,1,260,149,37,0,0,359,230,2060,364,45.698917,4.909989,37.1,188.4,5,1.8283,0,0.0,1.0983,6,0.77,10.2574
615463,1560691887284,3,2.26,2.11,3.31,1.88,5.05,0.97,0.02,0.33,-4,0,-7,0.97,6670,5,92,35,22,859,366.0,480,455,60,118.0,100,1,261,148,37,0,0,360,230,-14707,362,,,,,,,,,,,,
615483,1560691887308,-1,2.27,2.12,3.29,1.9,5.04,0.97,0.08,0.25,-4,1,-5,0.97,6627,5,92,35,22,881,362.0,478,463,60,117.0,102,1,261,148,37,0,0,356,3082,3302,362,,,,,,,,,,,,
615503,1560691887328,2,2.27,2.13,3.29,1.93,5.07,0.98,-0.0,0.28,-3,1,-4,0.98,6609,5,92,35,22,888,358.0,476,463,60,117.0,102,1,261,148,37,0,0,356,2790,3302,360,,,,,,,,,,,,
615523,1560691887348,4,2.29,2.12,3.3,1.93,5.04,0.88,0.05,0.32,-2,4,-4,0.89,6574,5,92,35,22,888,358.0,476,458,60,118.0,102,1,261,148,37,0,0,353,-29978,-30454,357,,,,,,,,,,,,
615543,1560691887368,1,2.29,2.1,3.33,1.92,5.04,1.0,0.0,0.35,-2,2,-4,1.0,6512,5,92,35,23,893,356.0,475,456,60,118.0,102,1,262,151,37,0,0,350,4104,28553,355,45.69891,4.909983,36.11,188.4,5,1.8283,0,0.0,1.1,6,0.77,10.2591
615563,1560691887388,3,2.31,2.08,3.34,1.93,5.04,0.97,-0.1,0.4,-2,0,-3,0.97,6512,5,92,35,23,893,356.0,483,459,60,117.0,102,1,262,151,37,0,0,346,3302,3183,356,,,,,,,,,,,,
615583,1560691887406,2,2.31,2.09,3.34,1.95,5.04,0.87,-0.04,0.4,-1,1,-3,0.87,6441,5,92,35,23,892,353.0,463,455,60,118.0,104,1,263,151,37,0,0,345,3183,28553,356,,,,,,,,,,,,
615603,1560691887426,-1,2.33,2.09,3.34,1.96,5.04,0.94,-0.07,0.39,-2,-1,-3,0.94,6410,5,92,35,23,888,354.0,466,461,60,117.0,104,1,263,151,37,0,0,343,28553,-1246,353,,,,,,,,,,,,
615623,1560691887446,2,2.35,2.05,3.33,1.96,5.04,1.02,-0.18,0.41,-1,-2,-4,1.04,6390,5,92,35,24,886,352.0,463,458,60,119.0,104,1,263,151,37,0,0,345,-1246,2811,353,,,,,,,,,,,,
615643,1560691887466,3,2.35,2.02,3.32,1.95,5.07,1.0,-0.2,0.42,1,-1,-4,1.02,6375,5,92,35,24,885,352.0,464,458,60,119.0,104,1,265,154,37,0,0,343,-30438,8841,352,45.698902,4.909977,35.91,188.5,5,1.8283,0,0.0,1.1017,6,0.77,10.2607
615663,1560691887486,4,2.36,2.01,3.33,1.94,5.07,0.94,-0.15,0.37,2,2,-3,0.96,6375,5,92,35,24,885,352.0,464,460,60,118.0,104,1,265,154,37,0,0,336,-10554,6870,352,,,,,,,,,,,,
615683,1560691887508,-0,2.37,2.02,3.35,1.97,5.05,0.9,-0.16,0.29,2,3,-1,0.91,6360,5,92,35,24,886,350.0,466,461,60,118.0,105,1,265,154,37,0,0,334,6668,-31206,350,,,,,,,,,,,,
615703,1560691887528,1,2.39,2.02,3.38,2.02,5.06,0.89,-0.24,0.34,2,1,2,0.92,6304,5,92,35,24,890,349.0,465,458,60,117.0,105,1,265,158,37,0,0,335,-31222,3327,349,,,,,,,,,,,,
615723,1560691887548,1,2.42,2.01,3.39,2.07,5.04,0.81,-0.26,0.4,4,1,3,0.85,6260,5,92,35,24,897,349.0,452,453,60,119.0,105,1,265,158,37,0,0,333,2560,-31206,349,,,,,,,,,,,,
615743,1560691887568,2,2.44,2.02,3.42,2.13,5.04,0.74,-0.23,0.37,6,2,4,0.77,6204,5,92,35,25,904,348.0,445,459,60,119.0,105,1,266,158,37,0,0,331,-32559,-10554,349,45.698894,4.909971,34.73,188.5,5,1.8283,0,0.0,1.1033,6,0.77,10.2624
615763,1560691887588,4,2.46,2.01,3.47,2.13,5.04,0.71,-0.21,0.3,8,5,6,0.74,6179,5,92,35,25,907,347.0,454,458,60,118.0,106,1,268,158,37,0,0,325,-12032,-122,348,,,,,,,,,,,,
615783,1560691887608,4,2.48,2.0,3.47,2.14,5.04,0.83,-0.25,0.27,9,6,8,0.86,6179,5,92,35,25,907,347.0,454,458,60,118.0,106,1,269,158,37,0,0,324,170,13,347,,,,,,,,,,,,
615803,1560691887628,-1,2.5,1.97,3.47,2.13,5.04,0.94,-0.35,0.27,9,6,10,1.0,6159,5,92,35,25,910,348.0,456,463,60,118.0,106,1,269,158,37,0,0,321,-23296,-122,348,,,,,,,,,,,,
615823,1560691887648,-1,2.52,1.94,3.48,2.14,5.07,1.05,-0.48,0.3,9,5,12,1.15,6141,5,92,35,25,911,347.0,458,460,60,117.0,106,1,269,158,37,0,0,319,155,2560,347,,,,,,,,,,,,
615843,1560691887668,-2,2.55,1.93,3.48,2.13,5.05,1.1,-0.57,0.33,9,3,15,1.24,6091,5,92,35,26,912,346.0,452,460,60,117.0,106,1,272,159,37,0,0,313,150,2560,346,45.698887,4.909965,33.71,188.4,5,1.8283,0,0.0,1.105,6,0.77,10.264
615863,1560691887688,0,2.58,1.92,3.51,2.2,5.07,1.18,-0.65,0.38,10,1,17,1.35,6042,5,92,35,26,908,347.0,447,459,60,117.0,106,1,272,159,37,0,0,311,140,4838,347,,,,,,,,,,,,
615883,1560691887706,-2,2.62,1.91,3.57,2.2,5.05,1.25,-0.74,0.41,10,-2,20,1.46,5973,5,92,35,26,907,347.0,441,458,60,117.0,104,1,272,159,36,0,0,307,-30976,-31222,345,,,,,,,,,,,,
615903,1560691887726,-2,2.64,1.86,3.62,2.19,5.06,1.33,-0.87,0.44,11,-4,22,1.59,5914,5,92,35,27,910,347.0,431,458,60,117.0,104,1,271,159,36,0,0,304,125,-122,347,,,,,,,,,,,,
615923,1560691887746,-2,2.66,1.84,3.66,2.23,5.04,1.4,-0.95,0.5,11,-5,25,1.69,5868,5,92,35,27,915,349.0,425,460,60,117.0,104,1,274,160,36,0,0,300,115,13,347,,,,,,,,,,,,
615943,1560691887766,3,2.66,1.85,3.68,2.3,5.03,1.46,-1.01,0.5,11,-5,28,1.77,5826,5,92,35,27,922,347.0,417,460,60,117.0,104,1,273,160,36,0,0,292,110,-6528,348,45.698879,4.909958,33.16,188.4,5,1.8283,0,0.0,1.1067,6,0.78,10.2657
615963,1560691887786,3,2.68,1.84,3.69,2.31,5.03,1.52,-1.0,0.44,13,-3,29,1.82,5772,5,92,35,28,930,346.0,420,460,60,117.0,104,1,273,160,36,0,0,287,26880,-31222,347,,,,,,,,,,,,
615983,1560691887807,1,2.68,1.84,3.68,2.3,5.07,1.43,-0.99,0.38,16,0,30,1.74,5772,5,92,35,28,930,346.0,420,459,60,118.0,100,1,274,161,35,0,0,283,90,13,346,,,,,,,,,,,,
616003,1560691887827,1,2.69,1.84,3.69,2.3,5.07,1.25,-1.05,0.36,21,1,31,1.63,5733,6,92,35,28,939,345.0,415,461,60,119.0,100,1,274,161,35,0,0,284,23040,-12032,345,,,,,,,,,,,,
616023,1560691887847,-1,2.69,1.85,3.7,2.3,5.04,1.11,-1.08,0.4,24,-0,34,1.55,5712,9,92,35,29,943,342.0,410,456,60,119.0,100,1,276,162,35,0,0,280,80,170,342,,,,,,,,,,,,
616043,1560691887867,0,2.69,1.85,3.7,2.3,5.08,1.15,-1.05,0.45,25,-4,37,1.56,5699,10,92,35,30,945,340.0,415,454,60,118.0,100,1,278,162,35,0,0,274,0,-12032,340,45.698875,4.909952,31.54,188.4,5,1.8283,0,0.0,1.1083,6,0.78,10.2674
616063,1560691887887,3,2.68,1.85,3.7,2.31,5.04,1.23,-1.07,0.44,23,-3,39,1.63,5640,12,92,35,32,944,339.0,420,454,60,117.0,100,1,282,164,35,0,0,269,41,-20736,339,,,,,,,,,,,,
616083,1560691887907,0,2.68,1.84,3.69,2.28,5.07,1.08,-1.09,0.41,26,-1,40,1.54,5578,13,92,35,34,944,338.0,414,457,60,118.0,106,1,287,175,36,0,0,270,10686,175,338,,,,,,,,,,,,
616103,1560691887927,-1,2.69,1.83,3.62,2.27,5.05,1.15,-1.1,0.45,28,-4,41,1.59,5484,15,92,35,36,943,339.0,400,459,60,118.0,106,1,293,185,36,0,0,275,10686,-20736,338,,,,,,,,,,,,
616123,1560691887947,2,2.67,1.83,3.6,2.28,5.04,1.17,-1.04,0.38,27,-3,42,1.57,5450,17,92,35,39,940,334.0,406,461,60,117.0,106,1,304,204,36,0,0,273,250,-24576,334,,,,,,,,,,,,
616143,1560691887967,0,2.66,1.84,3.64,2.26,5.04,0.99,-1.05,0.41,30,-3,41,1.44,5477,18,92,35,42,928,330.0,393,454,60,118.0,106,1,314,207,36,0,0,265,1886,145,330,45.698868,4.909945,30.77,188.4,5,1.8283,0,0.0,1.11,6,0.78,10.269
616163,1560691887987,0,2.64,1.84,3.66,2.26,5.04,1.05,-1.04,0.46,31,-6,42,1.48,5553,20,92,35,44,918,328.0,395,450,60,119.0,106,1,323,212,36,0,0,261,630,-25856,328,,,,,,,,,,,,
616183,1560691888001,2,2.62,1.87,3.66,2.24,5.06,1.15,-0.91,0.46,29,-6,44,1.47,5552,21,92,35,47,908,327.0,407,462,60,117.0,134,1,335,217,44,0,0,266,630,-28416,327,,,,,,,,,,,,
616203,1560691888021,2,2.59,1.93,3.64,2.26,5.04,1.0,-0.92,0.39,29,-1,43,1.36,5587,22,92,35,50,898,325.0,406,466,60,118.0,134,1,341,225,44,0,0,268,630,140,325,,,,,,,,,,,,
616223,1560691888041,-1,2.58,1.97,3.58,2.28,5.07,0.78,-0.88,0.35,32,-1,43,1.18,5608,22,92,35,52,876,323.0,400,453,60,119.0,134,1,346,234,44,0,0,272,630,-30976,323,,,,,,,,,,,,
616243,1560691888061,-0,2.54,1.99,3.53,2.29,5.05,0.86,-0.9,0.4,32,-5,44,1.24,5666,23,92,35,53,850,322.0,376,451,60,118.0,134,1,350,243,44,0,0,274,30208,135,322,45.69886,4.909937,30.08,188.5,5,1.8283,0,0.0,1.1117,6,0.78,10.2707
616263,1560691888081,4,2.51,1.99,3.49,2.29,5.08,0.97,-0.89,0.43,28,-6,45,1.32,5718,23,92,35,56,812,316.0,355,461,60,118.0,134,1,355,249,44,0,0,273,30208,135,318,,,,,,,,,,,,
616283,1560691888105,4,2.45,2.03,3.46,2.25,5.04,1.03,-0.78,0.44,27,-3,44,1.29,5787,23,92,36,56,812,316.0,355,460,60,118.0,166,1,359,250,53,0,0,273,630,130,316,,,,,,,,,,,,
616303,1560691888125,1,2.39,2.06,3.41,2.19,5.04,0.92,-0.61,0.38,27,2,43,1.11,5877,24,92,36,57,796,308.0,386,461,60,119.0,166,1,364,251,53,0,0,276,24064,-32256,310,,,,,,,,,,,,
616323,1560691888145,2,2.36,2.08,3.37,2.19,5.04,0.81,-0.45,0.33,28,4,41,0.92,5971,24,92,36,57,797,306.0,399,457,60,119.0,166,1,372,252,53,0,0,284,250,30720,308,,,,,,,,,,,,
616343,1560691888165,2,2.31,2.08,3.33,2.16,5.07,0.68,-0.31,0.28,27,6,38,0.75,6067,24,92,36,57,807,303.0,410,452,60,119.0,166,1,384,253,53,0,0,284,-16896,100,306,45.698856,4.909929,28.6,188.6,5,1.8283,0,0.0,1.1133,6,0.78,10.2724
616363,1560691888185,4,2.26,2.12,3.26,2.13,5.07,0.55,-0.1,0.21,26,9,35,0.56,6067,24,92,36,57,807,303.0,410,452,60,119.0,166,1,384,253,53,0,0,287,41,105,302,,,,,,,,,,,,
616383,1560691888207,3,2.22,2.19,3.23,2.1,5.04,0.52,0.07,0.13,24,11,32,0.53,6188,24,92,36,56,833,296.0,425,466,60,118.0,192,1,386,256,58,0,0,290,80,24320,299,,,,,,,,,,,,
616403,1560691888227,0,2.17,2.26,3.2,2.09,5.05,0.59,0.17,0.21,21,15,30,0.61,6085,24,92,36,56,840,300.0,431,470,60,118.0,192,1,384,255,58,0,0,298,23040,25600,296,,,,,,,,,,,,
616423,1560691888247,4,2.13,2.36,3.13,2.1,5.07,0.69,0.21,0.29,17,17,27,0.72,6085,24,92,36,56,840,300.0,431,470,60,118.0,192,1,384,255,58,0,0,307,100,32000,295,,,,,,,,,,,,
616443,1560691888267,3,2.09,2.47,3.08,2.12,5.04,0.71,0.25,0.31,14,19,22,0.75,5841,24,92,36,57,843,306.0,426,466,60,117.0,192,1,366,252,58,0,0,313,115,-29696,297,45.698856,4.90992,29.95,188.8,5,1.8283,0,0.0,1.115,6,0.78,10.274
616463,1560691888287,-1,2.04,2.52,3.04,2.11,5.06,0.51,0.33,0.29,14,20,17,0.61,5482,25,92,36,57,855,311.0,409,461,60,118.0,192,1,351,250,58,0,0,316,-32256,30720,298,,,,,,,,,,,,
616483,1560691888307,0,1.99,2.52,2.98,2.08,5.06,0.61,0.46,0.33,11,16,14,0.77,5482,25,92,36,59,876,313.0,408,453,60,118.0,173,1,337,253,52,0,0,312,-30976,125,299,,,,,,,,,,,,
616503,1560691888327,1,1.95,2.5,2.97,2.07,5.08,0.76,0.42,0.35,5,13,10,0.86,5436,25,92,36,61,895,312.0,402,456,60,117.0,173,1,333,258,52,0,0,314,140,105,297,,,,,,,,,,,,
616523,1560691888347,-2,1.92,2.51,2.97,2.06,5.07,0.7,0.52,0.39,3,11,8,0.87,5517,25,92,36,63,944,317.0,404,455,60,118.0,173,1,337,263,52,0,0,316,145,20480,295,,,,,,,,,,,,
616543,1560691888367,-0,1.91,2.51,2.98,2.02,5.04,0.81,0.62,0.43,-0,9,6,1.02,5552,25,92,36,64,987,321.0,393,461,60,118.0,173,1,335,271,52,0,0,316,145,0,293,45.698853,4.909911,29.63,188.8,5,1.8283,0,0.0,1.1167,6,0.78,10.2757
616563,1560691888387,3,1.9,2.51,2.98,1.96,5.05,0.85,0.61,0.35,-5,10,1,1.05,5552,25,92,36,64,987,321.0,393,461,60,118.0,173,1,335,271,52,0,0,320,-25856,0,289,,,,,,,,,,,,
616583,1560691888405,3,1.9,2.51,2.99,1.92,5.06,0.76,0.59,0.42,-7,10,-5,0.96,5620,25,92,36,64,1025,325.0,393,457,60,118.0,200,1,340,277,58,0,0,322,165,0,287,,,,,,,,,,,,
616603,1560691888425,-1,1.91,2.51,2.99,1.89,5.05,0.71,0.68,0.45,-8,9,-9,0.99,5721,25,92,36,63,1050,327.0,394,452,60,119.0,200,1,352,268,58,0,0,322,-22016,-16896,286,,,,,,,,,,,,
616623,1560691888445,-0,1.91,2.51,2.99,1.87,5.04,0.73,0.81,0.52,-10,6,-12,1.09,5821,25,92,36,63,1076,329.0,407,457,60,118.0,200,1,359,266,58,0,0,323,-12032,250,285,,,,,,,,,,,,
616643,1560691888465,1,1.91,2.51,2.99,1.88,5.05,0.74,0.82,0.54,-12,4,-16,1.11,6038,25,92,36,62,1100,331.0,417,462,60,118.0,200,1,371,256,58,0,0,327,-12032,0,285,45.698845,4.909903,29.56,188.8,5,1.8283,0,0.0,1.1183,6,0.78,10.2774
616663,1560691888485,1,1.9,2.54,2.99,1.91,5.08,0.79,0.89,0.62,-14,0,-19,1.19,6038,25,92,36,61,1118,330.0,428,463,60,117.0,200,1,382,247,58,0,0,326,175,250,283,,,,,,,,,,,,
616683,1560691888509,2,1.89,2.53,2.99,1.9,5.08,0.84,1.0,0.64,-16,-2,-21,1.31,6028,25,92,36,60,1117,326.0,427,457,60,119.0,197,1,383,249,56,0,0,325,165,23040,284,,,,,,,,,,,,
616703,1560691888529,1,1.88,2.54,2.99,1.9,5.07,0.85,1.1,0.69,-19,-6,-22,1.39,6000,25,92,36,59,1116,328.0,423,460,60,119.0,197,1,382,249,56,0,0,327,170,-24576,288,,,,,,,,,,,,
616723,1560691888549,0,1.9,2.54,2.95,1.9,5.05,0.86,1.18,0.7,-20,-8,-24,1.46,5937,25,92,36,59,1105,331.0,431,462,60,117.0,197,1,376,250,56,0,0,328,175,-20736,288,,,,,,,,,,,,
616743,1560691888569,0,1.9,2.53,2.94,1.88,5.07,0.9,1.19,0.78,-21,-12,-26,1.49,5944,25,92,36,59,1101,332.0,431,463,60,117.0,197,1,377,250,56,0,0,328,-12032,160,288,45.698841,4.909894,29.41,188.8,5,1.8283,0,0.0,1.12,6,0.78,10.279
616763,1560691888589,-0,1.9,2.52,2.95,1.86,5.05,0.93,1.14,0.83,-23,-13,-28,1.47,5944,25,92,36,59,1101,332.0,431,463,60,117.0,197,1,377,250,56,0,0,326,-32559,105,287,,,,,,,,,,,,
616783,1560691888607,-1,1.92,2.51,2.95,1.87,5.07,0.99,1.11,0.87,-24,-15,-29,1.49,5954,25,92,36,58,1101,333.0,437,467,60,117.0,195,1,379,251,56,0,0,325,-32559,20480,287,,,,,,,,,,,,
616803,1560691888627,-0,1.92,2.51,2.94,1.9,5.03,1.02,1.09,0.91,-26,-16,-30,1.5,5954,25,92,36,58,1101,333.0,437,467,60,117.0,195,1,379,251,56,0,0,328,4838,105,287,,,,,,,,,,,,
616823,1560691888647,-0,1.91,2.51,2.94,1.9,5.04,1.12,1.03,0.92,-27,-17,-31,1.53,5944,25,92,36,58,1104,333.0,433,463,60,118.0,195,1,378,251,56,0,0,334,-6528,28160,289,,,,,,,,,,,,
616843,1560691888667,-1,1.93,2.5,2.95,1.89,5.05,1.19,0.97,0.93,-29,-18,-32,1.54,5912,25,92,36,58,1111,332.0,432,461,60,118.0,195,1,375,251,56,0,0,329,-32559,29440,291,45.698837,4.909886,29.53,189.0,5,1.8283,0,0.0,1.1217,6,0.78,10.2807
616863,1560691888687,0,1.92,2.51,2.96,1.87,5.06,1.24,0.88,0.91,-30,-16,-34,1.52,5875,25,92,36,57,1117,331.0,431,451,60,117.0,195,1,374,252,56,0,0,331,-12032,-29696,292,,,,,,,,,,,,
616883,1560691888705,1,1.93,2.51,2.97,1.88,5.06,1.28,0.84,0.85,-32,-14,-36,1.53,5875,25,92,36,57,1139,336.0,432,457,60,118.0,191,1,372,252,56,0,0,330,13,160,294,,,,,,,,,,,,
616903,1560691888725,-0,1.94,2.5,2.99,1.89,5.04,1.28,0.77,0.84,-33,-12,-36,1.5,6027,25,92,36,57,1160,335.0,432,458,60,117.0,191,1,380,251,56,0,0,333,3346,85,293,,,,,,,,,,,,
616923,1560691888745,-1,1.95,2.5,2.99,1.88,5.08,1.32,0.64,0.81,-34,-10,-37,1.47,5994,24,92,36,57,1190,337.0,431,450,60,117.0,191,1,384,253,56,0,0,332,13,90,294,,,,,,,,,,,,
616943,1560691888765,1,1.95,2.5,2.98,1.87,5.06,1.34,0.5,0.8,-35,-10,-37,1.43,6001,24,92,36,57,1198,337.0,426,448,60,118.0,191,1,380,252,56,0,0,331,2560,30720,295,45.698833,4.909878,29.84,189.1,5,1.8283,0,0.0,1.1233,6,0.78,10.2824
616963,1560691888785,-0,1.96,2.5,2.97,1.87,5.05,1.36,0.41,0.83,-35,-9,-38,1.42,6001,24,92,36,57,1198,337.0,426,448,60,118.0,191,1,380,252,56,0,0,334,2560,32000,294,,,,,,,,,,,,
616983,1560691888806,0,1.97,2.51,2.97,1.89,5.04,1.38,0.35,0.84,-36,-8,-39,1.43,5977,24,92,36,56,1206,338.0,423,454,60,118.0,192,1,381,252,57,0,0,335,-31222,105,295,,,,,,,,,,,,
617003,1560691888826,1,1.98,2.5,2.99,1.87,5.05,1.42,0.27,0.83,-36,-7,-39,1.45,5996,24,92,36,57,1200,337.0,423,458,60,118.0,192,1,381,253,57,0,0,336,-31222,30720,296,,,,,,,,,,,,
617023,1560691888846,-1,2.01,2.49,2.98,1.88,5.06,1.44,0.21,0.84,-36,-7,-40,1.46,5996,24,92,36,57,1200,337.0,423,458,60,118.0,192,1,381,253,57,0,0,335,2560,120,298,,,,,,,,,,,,
617043,1560691888866,-1,2.04,2.48,2.99,1.89,5.05,1.43,0.17,0.83,-36,-5,-39,1.44,5988,24,92,36,56,1187,336.0,426,452,60,117.0,192,1,382,254,57,0,0,334,-122,115,300,45.698826,4.909871,30.1,189.1,5,1.8283,0,0.0,1.125,6,0.78,10.284
617063,1560691888886,1,2.06,2.48,2.99,1.92,5.06,1.42,0.11,0.8,-36,-3,-39,1.42,5992,24,92,36,56,1172,337.0,429,451,60,117.0,192,1,383,254,57,0,0,336,2560,32000,302,,,,,,,,,,,,
617083,1560691888904,1,2.1,2.48,3.02,1.92,5.04,1.4,0.06,0.72,-35,-2,-38,1.4,5992,24,92,36,56,1161,335.0,431,456,60,117.0,187,1,383,254,57,0,0,334,3346,32000,305,,,,,,,,,,,,
617103,1560691888924,-0,2.14,2.47,3.05,1.94,5.08,1.4,0.02,0.64,-34,-1,-37,1.4,6036,24,92,36,56,1152,334.0,431,453,60,117.0,187,1,384,254,57,0,0,335,4838,32000,306,,,,,,,,,,,,
617123,1560691888944,-1,2.18,2.44,3.1,1.97,5.04,1.41,-0.02,0.68,-32,-2,-36,1.41,6089,24,92,36,55,1134,331.0,430,455,60,117.0,187,1,384,254,57,0,0,332,4838,135,308,,,,,,,,,,,,
617143,1560691888964,-1,2.24,2.37,3.11,1.98,5.08,1.4,-0.13,0.68,-30,-3,-34,1.41,6091,24,92,36,55,1130,331.0,439,452,60,118.0,187,1,384,256,57,0,0,331,-12032,-25856,311,45.698818,4.909864,30.77,189.2,5,1.8283,0,0.0,1.1267,6,0.79,10.2857
617163,1560691888984,0,2.27,2.35,3.12,2.01,5.04,1.45,-0.28,0.7,-27,-5,-31,1.48,6101,24,92,36,55,1130,329.0,439,456,60,117.0,185,1,384,256,59,0,0,332,-12032,-25856,314,,,,,,,,,,,,
617183,1560691889002,-1,2.32,2.32,3.15,2.03,5.04,1.5,-0.44,0.79,-25,-9,-28,1.56,6091,24,92,36,55,1129,326.0,439,454,60,119.0,185,1,384,256,59,0,0,330,-22016,-22016,320,,,,,,,,,,,,
617203,1560691889022,2,2.37,2.28,3.18,2.09,5.03,1.46,-0.52,0.89,-21,-13,-24,1.55,6133,24,92,36,54,1127,328.0,437,449,60,119.0,185,1,384,256,59,0,0,327,165,160,323,,,,,,,,,,,,
617223,1560691889042,2,2.42,2.27,3.27,2.15,5.06,1.3,-0.49,0.92,-18,-13,-21,1.39,6145,24,92,36,54,1125,331.0,435,449,60,118.0,185,1,384,256,59,0,0,328,-23296,-32559,328,,,,,,,,,,,,
617243,1560691889062,1,2.48,2.26,3.31,2.21,5.06,1.17,-0.51,0.93,-14,-14,-19,1.28,6145,24,92,36,54,1125,331.0,435,449,60,118.0,185,1,384,256,59,0,0,327,155,-32559,331,45.698814,4.909859,30.93,189.3,5,1.8283,0,0.0,1.1283,6,0.79,10.2874
617263,1560691889082,4,2.51,2.24,3.37,2.27,5.06,1.06,-0.51,0.83,-11,-13,-16,1.17,6151,24,92,36,54,1124,334.0,430,452,60,118.0,185,1,384,256,59,0,0,327,-28416,13,334,,,,,,,,,,,,
617283,1560691889108,5,2.55,2.22,3.44,2.31,5.05,0.96,-0.48,0.74,-7,-11,-14,1.08,6173,24,92,36,54,1121,337.0,432,454,60,118.0,176,1,385,256,59,0,0,324,-27136,3346,337,,,,,,,,,,,,
617303,1560691889128,0,2.59,2.21,3.48,2.36,5.05,0.97,-0.47,0.68,-5,-10,-10,1.08,6231,23,92,36,54,1116,339.0,433,456,60,117.0,176,1,385,256,59,0,0,325,-29696,-31222,339,,,,,,,,,,,,
617323,1560691889148,-1,2.64,2.19,3.49,2.38,5.07,1.0,-0.51,0.69,-2,-11,-6,1.12,6258,23,92,36,53,1111,343.0,435,453,60,117.0,176,1,381,256,59,0,0,330,135,-31206,343,,,,,,,,,,,,
617343,1560691889168,0,2.68,2.2,3.48,2.41,5.04,0.97,-0.6,0.74,1,-11,-3,1.14,6311,22,92,36,52,1103,344.0,443,452,60,118.0,176,1,378,244,59,0,0,325,135,6668,345,45.698803,4.909853,31.53,189.4,5,1.8283,0,0.0,1.13,6,0.79,10.2891
617363,1560691889188,2,2.72,2.17,3.48,2.41,5.07,0.99,-0.67,0.81,4,-11,-1,1.2,6308,22,92,36,52,1099,346.0,445,454,60,118.0,168,1,378,244,59,0,0,328,125,3327,344,,,,,,,,,,,,
617383,1560691889206,4,2.76,2.14,3.5,2.42,5.04,0.94,-0.67,0.76,7,-9,2,1.15,6308,22,92,36,52,1099,346.0,445,454,60,118.0,168,1,378,244,58,0,0,327,-32256,6870,346,,,,,,,,,,,,
617403,1560691889226,-2,2.79,2.11,3.55,2.42,5.06,0.9,-0.68,0.66,10,-6,7,1.13,6300,22,92,36,52,1095,349.0,447,460,60,118.0,168,1,378,244,58,0,0,331,125,2811,348,,,,,,,,,,,,
617423,1560691889246,0,2.82,2.09,3.59,2.42,5.08,0.89,-0.67,0.58,11,-6,12,1.12,6277,22,92,36,51,1093,351.0,447,457,60,117.0,168,1,375,239,58,0,0,341,120,-30438,351,,,,,,,,,,,,
617443,1560691889266,1,2.84,2.07,3.6,2.43,5.06,0.91,-0.69,0.62,14,-6,17,1.14,6311,22,92,36,51,1089,352.0,446,450,60,118.0,168,1,375,239,58,0,0,334,115,28553,352,45.698799,4.909846,32.3,189.6,5,1.8283,0,0.0,1.1317,6,0.79,10.2907
617463,1560691889286,2,2.85,2.07,3.61,2.42,5.06,0.9,-0.79,0.66,17,-5,21,1.2,6375,21,92,36,50,1085,353.0,443,451,60,119.0,168,1,372,233,58,0,0,320,110,-30454,353,,,,,,,,,,,,
617483,1560691889306,1,2.86,2.06,3.62,2.42,5.06,0.91,-0.74,0.61,19,-4,25,1.17,6368,21,92,35,50,1077,354.0,452,456,60,117.0,165,1,372,233,58,0,0,322,110,3183,352,,,,,,,,,,,,
617503,1560691889326,0,2.88,2.05,3.61,2.44,5.05,0.95,-0.87,0.58,21,-5,29,1.29,6360,21,92,35,50,1077,354.0,452,456,60,117.0,165,1,372,233,58,0,0,334,26880,-6644,354,,,,,,,,,,,,
617523,1560691889346,2,2.89,2.02,3.61,2.44,5.04,0.89,-0.91,0.58,23,-4,34,1.27,6373,21,92,35,50,1070,353.0,461,462,60,117.0,165,1,372,233,58,0,0,336,105,28553,353,,,,,,,,,,,,
617543,1560691889366,4,2.9,2.0,3.62,2.44,5.04,0.85,-0.97,0.6,26,-3,36,1.29,6405,21,92,35,50,1060,353.0,455,452,60,119.0,165,1,372,233,58,0,0,336,100,-1246,353,45.698792,4.90984,31.72,189.7,5,1.8283,0,0.0,1.1333,6,0.79,10.2924
617563,1560691889386,1,2.91,1.97,3.63,2.42,5.04,0.78,-0.92,0.51,28,-2,40,1.21,6392,21,92,35,50,1051,354.0,453,453,60,118.0,165,1,373,234,58,0,0,329,95,28553,354,,,,,,,,,,,,
617583,1560691889404,0,2.92,1.97,3.64,2.43,5.07,0.89,-0.96,0.4,28,-3,42,1.3,6392,21,92,35,49,1045,353.0,457,461,60,117.0,158,1,369,228,56,0,0,329,95,3302,353,,,,,,,,,,,,
617603,1560691889424,1,2.92,1.96,3.66,2.42,5.07,0.91,-0.97,0.43,30,-4,44,1.33,6375,21,92,35,49,1035,354.0,453,457,60,118.0,158,1,369,228,56,0,0,329,23040,-6640,354,,,,,,,,,,,,
617623,1560691889444,4,2.93,1.95,3.68,2.43,5.08,0.87,-0.95,0.48,32,-4,44,1.29,6408,21,92,35,49,1024,355.0,447,457,60,118.0,158,1,369,228,56,0,0,329,90,3302,355,,,,,,,,,,,,
617643,1560691889464,-2,2.93,1.94,3.68,2.43,5.06,0.82,-0.87,0.39,33,-2,45,1.2,6510,21,92,35,49,1010,353.0,453,457,60,117.0,158,1,370,228,56,0,0,345,24320,-1246,352,45.698784,4.909832,31.58,189.7,5,1.8283,0,0.0,1.135,6,0.79,10.2941
617663,1560691889484,-0,2.91,1.93,3.69,2.43,5.06,0.88,-0.94,0.35,34,-4,47,1.29,6542,21,92,35,49,1010,353.0,453,457,60,117.0,158,1,371,228,56,0,0,337,21760,-6644,353,,,,,,,,,,,,
617683,1560691889506,4,2.91,1.93,3.68,2.43,5.07,0.89,-0.98,0.4,36,-4,48,1.32,6542,21,92,35,49,1005,353.0,458,454,60,118.0,158,1,371,228,56,0,0,337,21760,8841,353,,,,,,,,,,,,
617703,1560691889526,-2,2.92,1.93,3.66,2.45,5.07,0.83,-0.93,0.32,37,-4,49,1.25,6535,21,92,35,49,1000,354.0,401,462,60,118.0,158,1,371,228,56,0,0,323,21760,3183,353,,,,,,,,,,,,
617723,1560691889546,-0,2.91,1.93,3.66,2.45,5.06,0.8,-0.99,0.23,37,-6,51,1.27,6401,21,92,35,48,994,353.0,303,456,60,118.0,158,1,367,224,56,0,0,343,21760,-30454,353,,,,,,,,,,,,
617743,1560691889566,2,2.89,1.93,3.63,2.46,5.04,0.76,-1.07,0.29,39,-7,50,1.31,6399,21,92,35,48,992,352.0,295,451,60,118.0,158,1,367,224,56,0,0,349,20480,8841,352,45.698776,4.909824,31.81,189.8,5,1.8283,0,0.0,1.1367,6,0.79,10.2957
617763,1560691889586,2,2.86,1.92,3.63,2.45,5.04,0.8,-1.0,0.29,40,-6,51,1.28,6388,21,92,35,48,989,351.0,290,461,60,117.0,154,1,366,223,56,0,0,336,20480,3183,351,,,,,,,,,,,,
617783,1560691889608,1,2.83,1.91,3.61,2.46,5.03,0.84,-1.05,0.22,40,-5,53,1.35,6340,21,92,35,48,989,351.0,290,461,60,117.0,154,1,366,223,54,0,0,327,80,28553,351,,,,,,,,,,,,
617803,1560691889628,-0,2.78,1.91,3.61,2.46,5.04,0.94,-1.15,0.26,41,-5,56,1.48,6281,21,92,35,48,988,353.0,321,456,60,117.0,154,1,366,223,54,0,0,322,80,3183,353,,,,,,,,,,,,
617823,1560691889648,3,2.7,1.91,3.62,2.45,5.07,0.9,-1.11,0.33,41,-4,57,1.43,6247,21,92,35,49,988,354.0,281,457,60,118.0,154,1,365,223,54,0,0,333,90,8841,353,,,,,,,,,,,,
617843,1560691889668,4,2.61,1.93,3.64,2.45,5.03,0.83,-1.1,0.4,41,-3,58,1.38,6294,21,92,35,49,990,352.0,268,454,60,119.0,154,1,368,228,54,0,0,345,23040,-30454,353,45.698776,4.909815,31.64,189.9,5,1.8283,0,0.0,1.1383,6,0.79,10.2974
617863,1560691889688,-1,2.53,2.02,3.63,2.41,5.06,0.76,-0.92,0.34,41,-1,59,1.19,6362,21,92,35,49,990,349.0,278,456,60,118.0,153,1,369,228,54,0,0,352,23040,-1246,352,,,,,,,,,,,,
617883,1560691889708,-0,2.45,2.07,3.56,2.36,5.05,0.74,-0.78,0.28,39,-1,59,1.08,6360,21,92,35,49,989,346.0,312,458,60,118.0,153,1,369,228,54,0,0,309,95,-1246,349,,,,,,,,,,,,
617903,1560691889728,2,2.39,2.18,3.48,2.34,5.04,0.81,-0.8,0.36,36,-2,58,1.14,6319,21,92,35,49,990,343.0,305,457,60,119.0,153,1,369,228,54,0,0,309,29440,8841,345,,,,,,,,,,,,
617923,1560691889748,3,2.34,2.28,3.37,2.34,5.08,0.73,-0.65,0.42,34,-2,54,0.98,6241,21,92,35,49,990,338.0,320,457,60,119.0,153,1,368,228,54,0,0,321,32000,-14714,343,,,,,,,,,,,,
617943,1560691889768,2,2.3,2.34,3.25,2.33,5.05,0.65,-0.52,0.43,31,-3,50,0.83,6241,21,92,35,49,990,338.0,320,457,60,119.0,153,1,368,228,54,0,0,323,-28416,-31206,338,45.698769,4.909805,32.03,189.9,5,1.8283,0,0.0,1.14,6,0.79,10.2991
617963,1560691889788,4,2.25,2.36,3.16,2.32,5.04,0.55,-0.37,0.35,28,-0,46,0.67,6155,21,92,35,49,988,336.0,333,456,60,118.0,153,1,367,227,54,0,0,330,-25856,3327,335,,,,,,,,,,,,
617983,1560691889805,4,2.22,2.36,3.06,2.27,5.04,0.47,-0.18,0.28,25,2,41,0.5,6048,21,92,35,50,983,330.0,361,453,60,118.0,155,1,370,233,52,0,0,332,165,-32559,331,,,,,,,,,,,,
618003,1560691889825,4,2.2,2.35,3.02,2.2,5.06,0.44,-0.04,0.28,22,4,35,0.44,6048,21,92,35,50,979,332.0,375,458,60,117.0,155,1,370,233,52,0,0,332,-22016,-12032,330,,,,,,,,,,,,
618023,1560691889845,-0,2.19,2.34,3.03,2.19,5.04,0.46,0.07,0.28,18,6,31,0.47,6089,21,92,35,50,974,333.0,386,458,60,117.0,155,1,370,233,52,0,0,331,-32559,-12032,329,,,,,,,,,,,,
618043,1560691889865,-0,2.17,2.3,3.02,2.17,5.06,0.49,0.17,0.24,15,8,28,0.52,6194,21,92,35,50,968,334.0,399,456,60,117.0,155,1,370,233,52,0,0,333,-6528,165,328,45.698765,4.909794,31.57,190.0,5,1.8283,0,0.0,1.1417,6,0.79,10.3007
618063,1560691889885,-1,2.17,2.3,3.03,2.17,5.07,0.56,0.14,0.19,13,9,24,0.58,6260,22,92,35,51,963,335.0,414,456,60,117.0,155,1,371,233,52,0,0,337,4838,170,327,,,,,,,,,,,,
618083,1560691889905,-1,2.17,2.3,3.04,2.18,5.06,0.61,0.07,0.21,10,9,20,0.62,6260,22,92,35,51,963,335.0,414,455,60,118.0,171,1,375,239,56,0,0,337,3346,-20736,327,,,,,,,,,,,,
618103,1560691889925,3,2.16,2.3,3.04,2.18,5.04,0.67,0.07,0.31,8,8,17,0.67,6315,23,92,35,51,960,336.0,426,454,60,119.0,171,1,375,239,56,0,0,337,13,170,327,,,,,,,,,,,,
618123,1560691889945,4,2.16,2.3,3.04,2.19,5.04,0.62,0.14,0.37,7,9,14,0.63,6364,26,92,35,53,956,338.0,435,458,60,118.0,171,1,382,244,56,0,0,337,2560,-32559,327,,,,,,,,,,,,
618143,1560691889965,-1,2.16,2.31,3.04,2.2,5.04,0.55,0.18,0.37,5,10,13,0.58,6366,26,92,35,54,957,339.0,442,464,60,117.0,171,1,386,256,56,0,0,340,-31222,3346,329,45.698765,4.909783,32.07,190.0,5,1.8283,0,0.0,1.1433,6,0.79,10.3024
618163,1560691889985,1,2.16,2.3,3.03,2.19,5.07,0.58,0.15,0.35,3,8,12,0.6,6366,26,92,35,54,957,339.0,442,464,60,117.0,171,1,386,256,56,0,0,340,-122,-31222,329,,,,,,,,,,,,
618183,1560691889997,1,2.17,2.29,3.03,2.17,5.06,0.65,0.03,0.48,2,6,9,0.65,6353,27,92,35,55,944,341.0,440,453,60,118.0,185,1,386,256,61,0,0,341,3327,6668,329,,,,,,,,,,,,
618203,1560691890017,5,2.15,2.29,3.04,2.18,5.04,0.64,0.11,0.51,0,6,8,0.65,6328,27,92,35,55,936,342.0,438,456,60,118.0,185,1,386,256,61,0,0,344,6668,-31206,331,,,,,,,,,,,,
618223,1560691890037,0,2.16,2.32,3.04,2.18,5.04,0.62,0.22,0.45,-0,8,7,0.66,6328,27,92,35,55,936,342.0,438,456,60,118.0,185,1,386,256,61,0,0,342,3327,3327,330,,,,,,,,,,,,
618243,1560691890057,2,2.16,2.3,3.04,2.18,5.03,0.67,0.18,0.39,-1,8,7,0.69,6368,27,92,35,56,926,343.0,442,465,60,117.0,185,1,388,258,61,0,0,344,-14714,-122,329,45.698761,4.909772,32.29,190.0,5,1.8283,0,0.0,1.145,6,0.79,10.3041
618263,1560691890077,5,2.17,2.3,3.06,2.15,5.05,0.7,0.18,0.48,-3,8,4,0.73,6401,28,92,35,57,919,344.0,443,455,60,118.0,185,1,391,260,61,0,0,346,-10554,6668,332,,,,,,,,,,,,
618283,1560691890105,3,2.17,2.3,3.08,2.13,5.07,0.62,0.26,0.44,-4,10,1,0.67,6438,30,92,35,57,920,346.0,438,452,60,118.0,190,1,391,260,63,0,0,345,-30438,-31222,333,,,,,,,,,,,,
618303,1560691890125,-0,2.19,2.31,3.11,2.12,5.04,0.62,0.33,0.37,-4,9,-1,0.7,6438,31,92,35,59,932,348.0,452,462,60,117.0,190,1,395,263,63,0,0,346,8841,-14714,333,,,,,,,,,,,,
618323,1560691890145,1,2.2,2.32,3.12,2.11,5.04,0.65,0.23,0.44,-5,5,-3,0.69,6419,32,92,35,60,945,349.0,448,458,60,118.0,190,1,397,264,63,0,0,352,-1246,-31206,334,,,,,,,,,,,,
618343,1560691890165,3,2.2,2.32,3.12,2.1,5.06,0.65,0.19,0.56,-5,3,-5,0.68,6421,33,92,35,61,970,350.0,438,455,60,118.0,190,1,399,267,63,0,0,350,2811,6668,335,45.698757,4.909761,32.62,190.0,5,1.8283,0,0.0,1.1467,6,0.8,10.3057
618363,1560691890185,1,2.21,2.33,3.13,2.08,5.05,0.67,0.23,0.59,-6,2,-6,0.7,6421,33,92,35,61,970,350.0,438,455,60,118.0,190,1,399,267,63,0,0,347,-30454,6668,337,,,,,,,,,,,,
618383,1560691890203,0,2.23,2.33,3.16,2.09,5.08,0.68,0.18,0.57,-6,2,-6,0.7,6454,35,92,35,63,1007,350.0,450,452,60,119.0,194,1,395,272,66,0,0,346,-30454,-31206,337,,,,,,,,,,,,
618403,1560691890223,3,2.23,2.33,3.18,2.09,5.06,0.74,0.15,0.58,-6,3,-5,0.75,6425,35,92,35,64,1025,348.0,447,454,60,119.0,194,1,388,286,66,0,0,349,-30454,-14714,339,,,,,,,,,,,,
618423,1560691890243,1,2.24,2.34,3.19,2.09,5.04,0.72,0.17,0.61,-5,6,-6,0.74,6467,37,92,35,65,1056,348.0,445,462,60,118.0,194,1,385,294,66,0,0,347,-1246,-31206,339,,,,,,,,,,,,
618443,1560691890263,-2,2.27,2.32,3.19,2.08,5.06,0.72,0.2,0.54,-6,6,-5,0.75,6467,37,92,35,65,1056,348.0,445,462,60,118.0,194,1,385,294,66,0,0,348,-1246,-10554,340,45.698757,4.90975,32.66,190.0,5,1.8283,0,0.0,1.1483,6,0.8,10.3074
618463,1560691890283,3,2.27,2.31,3.19,2.08,5.04,0.74,0.07,0.59,-6,4,-4,0.74,6430,37,92,35,66,1086,348.0,457,450,60,118.0,194,1,380,299,66,0,0,349,-1246,6870,342,,,,,,,,,,,,
618483,1560691890305,5,2.28,2.31,3.19,2.07,5.07,0.73,0.07,0.61,-5,5,-3,0.74,6461,38,92,35,67,1120,346.0,448,453,60,118.0,209,1,377,307,72,0,0,347,-1246,-1246,343,,,,,,,,,,,,
618503,1560691890325,-0,2.29,2.31,3.19,2.08,5.08,0.79,0.01,0.59,-4,5,-3,0.79,6524,39,92,35,69,1157,344.0,462,466,60,117.0,209,1,374,329,72,0,0,348,-30438,-14714,344,,,,,,,,,,,,
618523,1560691890345,1,2.3,2.3,3.2,2.06,5.05,0.77,-0.04,0.59,-4,3,-2,0.77,6524,39,92,35,69,1157,344.0,462,466,60,117.0,209,1,374,329,72,0,0,347,-10554,6668,343,,,,,,,,,,,,
618543,1560691890365,5,2.3,2.3,3.24,2.07,5.04,0.71,0.1,0.56,-3,5,-4,0.72,6530,40,92,35,69,1193,347.0,451,452,60,119.0,209,1,375,329,72,0,0,345,6870,-1246,344,45.69875,4.90974,33.13,190.0,5,1.8283,0,0.0,1.15,6,0.8,10.309
618563,1560691890385,0,2.33,2.3,3.26,2.09,5.08,0.78,0.04,0.61,-3,3,-5,0.78,6592,41,92,35,70,1215,346.0,460,452,60,118.0,209,1,375,346,72,0,0,346,6870,2811,346,,,,,,,,,,,,
618583,1560691890405,4,2.33,2.31,3.26,2.1,5.06,0.72,0.0,0.63,-2,0,-7,0.72,6599,42,92,35,71,1273,347.0,456,458,60,119.0,247,1,374,361,86,0,0,349,6870,28553,347,,,,,,,,,,,,
618603,1560691890425,0,2.36,2.3,3.27,2.12,5.05,0.73,-0.01,0.59,-1,-1,-7,0.73,6651,42,92,35,72,1310,349.0,461,453,60,117.0,247,1,375,377,86,0,0,350,-10554,28553,347,,,,,,,,,,,,
618623,1560691890445,3,2.37,2.3,3.27,2.1,5.04,0.81,-0.09,0.71,-0,-2,-7,0.81,6651,42,92,35,72,1310,349.0,461,453,60,117.0,247,1,375,377,86,0,0,350,6870,3183,349,,,,,,,,,,,,
618643,1560691890465,-1,2.39,2.3,3.27,2.11,5.08,0.73,-0.03,0.65,1,-1,-6,0.73,6701,42,92,35,72,1327,353.0,455,456,60,118.0,247,1,376,378,86,0,0,352,6870,3302,353,45.698746,4.909729,33.34,190.0,5,1.8283,0,0.0,1.1517,6,0.8,10.3107
618663,1560691890485,3,2.4,2.28,3.28,2.13,5.04,0.79,-0.19,0.74,2,-2,-3,0.81,6761,42,92,35,72,1343,355.0,463,458,60,117.0,247,1,378,379,86,0,0,354,-10554,-6458,355,,,,,,,,,,,,
618683,1560691890507,1,2.4,2.28,3.27,2.18,5.05,0.7,-0.2,0.72,3,0,-1,0.73,6993,42,92,34,72,1364,361.0,477,458,60,117.0,278,1,386,385,99,0,0,361,8841,230,359,,,,,,,,,,,,
618703,1560691890527,13,2.41,2.28,3.27,2.19,5.04,0.65,-0.15,0.69,3,0,1,0.66,7035,42,92,34,72,1369,363.0,477,456,60,117.0,278,1,386,385,99,0,0,361,-1246,0,361,,,,,,,,,,,,
618723,1560691890547,2,2.44,2.26,3.26,2.19,5.07,0.74,-0.21,0.82,5,1,3,0.77,7030,42,92,34,71,1365,368.0,483,458,60,118.0,278,1,388,386,99,0,0,369,28553,486,364,,,,,,,,,,,,
618743,1560691890567,1,2.44,2.26,3.24,2.26,5.04,0.54,-0.19,0.74,6,5,6,0.57,7070,43,92,34,71,1365,368.0,483,458,60,118.0,278,1,389,372,99,0,0,374,-6644,3,370,45.698742,4.909718,33.55,190.0,5,1.8283,0,0.0,1.1533,6,0.8,10.3124
618763,1560691890587,0,2.46,2.27,3.24,2.32,5.08,0.56,-0.18,0.7,6,4,6,0.58,7070,43,92,34,71,1341,373.0,484,455,60,117.0,278,1,392,373,99,0,0,377,3302,19125,373,,,,,,,,,,,,
618783,1560691890605,4,2.46,2.28,3.23,2.35,5.05,0.68,-0.32,0.82,7,2,6,0.75,7054,43,92,34,71,1299,376.0,485,458,60,116.0,267,1,391,373,100,0,0,379,-29978,-18948,376,,,,,,,,,,,,
618803,1560691890625,4,2.48,2.28,3.22,2.37,5.04,0.71,-0.42,0.86,9,2,7,0.82,7145,43,92,34,71,1246,382.0,487,457,60,118.0,267,1,396,375,100,0,0,376,-29302,-31744,378,,,,,,,,,,,,
618823,1560691890645,2,2.47,2.26,3.27,2.35,5.04,0.62,-0.39,0.72,10,4,8,0.74,7217,43,92,34,71,1197,387.0,495,455,60,117.0,267,1,400,377,100,0,0,386,-6458,-6475,382,,,,,,,,,,,,
618843,1560691890665,0,2.47,2.23,3.32,2.36,5.06,0.56,-0.34,0.63,10,1,10,0.65,7370,43,92,34,71,1132,390.0,498,458,60,117.0,267,1,409,366,100,0,0,389,-1268,1,387,45.698738,4.909707,34.52,190.0,5,1.8283,0,0.0,1.155,6,0.8,10.314
618863,1560691890685,-1,2.47,2.21,3.31,2.35,5.05,0.65,-0.37,0.68,10,1,10,0.75,7479,43,92,34,70,1079,393.0,506,456,60,117.0,264,1,409,366,100,0,0,403,-6405,-1818,390,,,,,,,,,,,,
618883,1560691890707,1,2.47,2.25,3.29,2.36,5.04,0.78,-0.42,0.73,10,0,10,0.89,7479,43,92,34,70,1079,393.0,506,456,60,117.0,264,1,417,370,103,0,0,395,0,-32702,393,,,,,,,,,,,,
618903,1560691890727,1,2.48,2.26,3.27,2.39,5.04,0.87,-0.43,0.77,10,2,11,0.97,7609,43,92,34,69,1033,394.0,510,458,60,118.0,264,1,426,363,103,0,0,387,0,-3968,394,,,,,,,,,,,,
618923,1560691890747,2,2.48,2.25,3.31,2.37,5.08,0.9,-0.37,0.73,10,-1,13,0.98,7678,43,92,34,68,971,400.0,515,459,60,117.0,264,1,431,354,103,0,0,413,257,11545,394,,,,,,,,,,,,
618943,1560691890767,4,2.48,2.24,3.33,2.36,5.03,0.81,-0.4,0.69,12,-1,13,0.9,7690,43,92,34,67,944,403.0,524,457,60,118.0,264,1,431,354,103,0,0,419,3,11560,400,45.698738,4.909695,35.92,190.1,5,1.8283,0,0.0,1.1567,6,0.8,10.3157
618963,1560691890787,2,2.48,2.24,3.34,2.35,5.07,0.76,-0.36,0.65,13,-2,15,0.84,7783,43,92,34,67,944,403.0,524,457,60,118.0,264,1,434,346,103,0,0,423,-18948,-26615,403,,,,,,,,,,,,
618983,1560691890805,5,2.47,2.24,3.34,2.35,5.05,0.76,-0.41,0.74,13,-1,16,0.86,7783,43,92,34,66,945,409.0,525,455,60,118.0,250,1,439,342,102,0,0,407,19125,18584,409,,,,,,,,,,,,
619003,1560691890825,0,2.49,2.23,3.33,2.36,5.04,0.75,-0.46,0.83,14,-0,18,0.88,7848,44,92,34,66,923,415.0,530,458,60,117.0,250,1,443,337,102,0,0,410,-6475,-3414,416,,,,,,,,,,,,
619023,1560691890845,1,2.49,2.23,3.33,2.36,5.05,0.83,-0.49,0.93,14,-1,18,0.97,7918,44,92,34,65,907,419.0,538,459,60,118.0,250,1,446,338,102,0,0,420,240,7154,415,,,,,,,,,,,,
619043,1560691890865,3,2.49,2.25,3.32,2.39,5.05,0.83,-0.39,0.87,14,-3,20,0.92,7955,44,92,34,65,907,419.0,538,459,60,118.0,250,1,446,338,102,0,0,429,505,13552,419,45.698734,4.909682,37.13,190.0,5,1.8283,0,0.0,1.1583,6,0.8,10.3174
619063,1560691890885,1,2.48,2.27,3.33,2.39,5.05,0.81,-0.41,0.9,14,-2,19,0.91,7955,44,92,34,64,891,420.0,543,457,60,118.0,250,1,448,331,102,0,0,432,1,1779,420,,,,,,,,,,,,
619083,1560691890906,3,2.48,2.27,3.33,2.38,5.05,0.77,-0.44,0.9,15,-1,20,0.89,8155,44,92,34,62,845,428.0,546,460,60,118.0,239,1,450,327,101,0,0,429,17144,-3322,424,,,,,,,,,,,,
619103,1560691890926,-1,2.48,2.27,3.31,2.4,5.04,0.81,-0.44,0.88,16,-0,20,0.93,8184,44,92,34,61,820,430.0,552,457,60,117.0,239,1,449,323,101,0,0,426,11545,19477,428,,,,,,,,,,,,
619123,1560691890946,2,2.48,2.26,3.3,2.41,5.04,0.76,-0.38,0.8,16,0,20,0.85,8184,44,92,34,61,820,430.0,552,457,60,117.0,239,1,449,318,101,0,0,434,-8151,19477,430,,,,,,,,,,,,
619143,1560691890966,3,2.48,2.26,3.31,2.41,5.07,0.7,-0.32,0.73,15,1,21,0.77,8267,44,92,34,59,798,436.0,552,452,60,118.0,239,1,431,308,101,0,0,441,-8151,20625,434,45.69873,4.909669,38.12,190.1,5,1.8283,0,0.0,1.16,6,0.8,10.319
619163,1560691890986,4,2.47,2.24,3.33,2.38,5.06,0.67,-0.37,0.79,16,1,21,0.77,8267,44,92,34,59,798,436.0,552,452,60,118.0,239,1,431,308,101,0,0,451,-26615,20625,436,,,,,,,,,,,,
619183,1560691891002,-0,2.47,2.23,3.34,2.39,5.07,0.71,-0.36,0.84,17,1,22,0.8,8381,44,92,34,59,781,441.0,561,457,60,117.0,224,1,431,311,98,0,0,451,13040,8488,437,,,,,,,,,,,,
619203,1560691891022,4,2.48,2.22,3.37,2.4,5.07,0.66,-0.44,0.87,18,1,22,0.79,8381,44,92,34,59,781,441.0,561,457,60,117.0,224,1,430,305,98,0,0,450,18584,2524,443,,,,,,,,,,,,
619223,1560691891042,2,2.47,2.24,3.33,2.42,5.05,0.68,-0.41,0.98,18,0,22,0.8,8472,44,92,34,57,785,447.0,573,460,60,118.0,224,1,414,301,98,0,0,457,18584,14488,447,,,,,,,,,,,,
619243,1560691891062,-2,2.48,2.25,3.32,2.43,5.06,0.7,-0.39,0.96,18,-0,22,0.8,8593,44,92,34,56,798,451.0,576,451,60,118.0,224,1,405,296,98,0,0,448,-3414,-23623,450,45.698727,4.909655,40.1,190.1,5,1.8283,0,0.0,1.1617,6,0.8,10.3207
619263,1560691891082,3,2.48,2.26,3.33,2.43,5.07,0.63,-0.38,0.86,18,0,23,0.73,8624,45,92,34,56,798,451.0,576,451,60,118.0,224,1,405,296,98,0,0,458,-21792,-18108,451,,,,,,,,,,,,
619283,1560691891104,3,2.47,2.27,3.38,2.44,5.04,0.65,-0.36,0.95,18,1,24,0.75,8672,45,92,34,56,818,454.0,586,458,60,117.0,213,1,403,291,96,0,0,466,3826,30272,452,,,,,,,,,,,,
619303,1560691891124,2,2.48,2.27,3.39,2.44,5.08,0.68,-0.46,0.96,18,0,23,0.82,8757,45,92,34,56,818,454.0,586,458,60,117.0,213,1,403,291,96,0,0,482,13552,-18108,454,,,,,,,,,,,,
619323,1560691891144,1,2.48,2.27,3.38,2.43,5.08,0.73,-0.46,0.9,19,1,23,0.86,8757,45,92,34,55,832,456.0,587,453,60,118.0,213,1,398,294,96,0,0,453,-3314,16408,458,,,,,,,,,,,,
619343,1560691891164,0,2.46,2.25,3.42,2.41,5.05,0.66,-0.52,0.81,20,3,23,0.84,8753,45,92,34,54,866,463.0,593,468,60,118.0,213,1,395,287,96,0,0,459,-768,32033,459,45.698727,4.90964,41.73,190.1,5,1.8283,0,0.0,1.1633,6,0.81,10.3224
619363,1560691891184,2,2.47,2.22,3.43,2.43,5.06,0.51,-0.48,0.74,20,3,24,0.7,8786,45,92,34,54,879,467.0,588,468,60,118.0,213,1,395,287,96,0,0,479,5600,-1923,464,,,,,,,,,,,,
619383,1560691891208,5,2.45,2.23,3.42,2.42,5.05,0.41,-0.48,0.78,20,3,26,0.64,8861,45,92,34,54,890,469.0,595,458,60,118.0,206,1,397,291,96,0,0,484,-28332,-17956,467,,,,,,,,,,,,
619403,1560691891228,4,2.45,2.23,3.42,2.42,5.04,0.35,-0.45,0.78,21,2,25,0.57,8915,45,92,34,53,919,472.0,591,461,60,118.0,206,1,397,291,96,0,0,461,26704,10305,469,,,,,,,,,,,,
619423,1560691891248,3,2.45,2.21,3.42,2.4,5.04,0.34,-0.41,0.76,21,2,26,0.54,8954,45,92,34,53,919,472.0,591,461,60,118.0,206,1,394,293,96,0,0,467,21432,-23367,473,,,,,,,,,,,,
619443,1560691891268,3,2.46,2.22,3.42,2.44,5.04,0.31,-0.43,0.8,22,3,25,0.53,8954,45,92,34,53,957,476.0,595,461,60,118.0,206,1,394,295,96,0,0,477,10305,-899,476,45.698727,4.909625,43.47,190.1,5,1.8283,0,0.0,1.165,6,0.81,10.324
619463,1560691891288,5,2.46,2.27,3.4,2.51,5.04,0.28,-0.5,0.83,22,3,24,0.58,8979,45,92,33,53,976,478.0,609,463,60,117.0,206,1,394,286,96,0,0,494,10305,-10483,478,,,,,,,,,,,,
619483,1560691891304,3,2.47,2.28,3.4,2.52,5.05,0.23,-0.48,0.81,21,2,22,0.53,9071,45,92,33,53,994,476.0,612,461,60,118.0,205,1,395,288,98,0,0,483,2131,3580,477,,,,,,,,,,,,
619503,1560691891324,5,2.46,2.22,3.45,2.5,5.04,0.24,-0.56,0.89,20,-2,23,0.61,9093,45,92,33,53,1045,483.0,621,455,60,118.0,205,1,395,290,98,0,0,484,16648,32033,477,,,,,,,,,,,,
619523,1560691891344,-1,2.45,2.18,3.43,2.43,5.07,0.12,-0.5,0.83,20,-0,25,0.52,9093,45,92,33,53,1045,483.0,621,455,60,118.0,205,1,395,290,98,0,0,497,-26615,-6656,483,,,,,,,,,,,,
619543,1560691891364,1,2.44,2.18,3.37,2.39,5.07,0.07,-0.41,0.79,21,2,26,0.41,9150,45,92,33,52,1071,489.0,619,465,60,118.0,205,1,392,293,98,0,0,482,17628,-32768,487,45.698723,4.909609,44.42,190.1,5,1.8283,0,0.0,1.1667,6,0.81,10.3257
619563,1560691891384,2,2.43,2.18,3.35,2.38,5.05,0.08,-0.41,0.78,22,3,26,0.42,9186,45,91,33,52,1071,489.0,619,465,60,118.0,205,1,392,293,98,0,0,473,-23623,-6528,490,,,,,,,,,,,,
619583,1560691891404,3,2.43,2.18,3.43,2.4,5.04,0.14,-0.41,0.75,22,4,25,0.43,9245,45,92,33,52,1089,487.0,611,455,60,117.0,198,1,392,283,97,0,0,502,2211,771,487,,,,,,,,,,,,
619603,1560691891424,5,2.43,2.18,3.49,2.39,5.08,0.33,-0.45,0.75,22,5,24,0.55,9356,45,92,33,52,1113,492.0,611,448,60,117.0,198,1,393,289,97,0,0,523,16408,771,493,,,,,,,,,,,,
619623,1560691891444,4,2.43,2.18,3.5,2.38,5.05,0.45,-0.56,0.86,20,5,24,0.72,9422,45,92,33,52,1113,492.0,611,448,60,117.0,198,1,393,289,97,0,0,492,16408,998,492,,,,,,,,,,,,
619643,1560691891464,-1,2.44,2.27,3.46,2.39,5.05,0.29,-0.53,0.87,20,7,23,0.6,9455,45,92,33,51,1122,495.0,611,457,60,117.0,198,1,391,281,97,0,0,495,243,10408,496,45.698723,4.909593,45.67,190.1,5,1.8283,0,0.0,1.1683,6,0.81,10.3274
619663,1560691891484,2,2.44,2.41,3.37,2.41,5.07,0.24,-0.4,0.82,20,6,22,0.47,9455,45,92,33,51,1122,495.0,611,457,60,117.0,198,1,391,281,97,0,0,484,32033,2109,495,,,,,,,,,,,,
619683,1560691891506,3,2.44,2.38,3.34,2.45,5.04,0.42,-0.5,0.84,20,2,23,0.66,9360,37,92,33,51,1125,493.0,613,457,60,118.0,203,1,390,203,100,0,0,499,32033,15661,493,,,,,,,,,,,,
619703,1560691891526,4,2.44,2.37,3.35,2.45,5.04,0.46,-0.62,0.84,20,1,22,0.77,9360,37,92,33,49,1122,495.0,619,457,60,118.0,203,1,383,257,100,0,0,510,-1923,10994,495,,,,,,,,,,,,
619723,1560691891546,-0,2.44,2.36,3.4,2.45,5.08,0.33,-0.56,0.82,20,1,22,0.65,9295,19,92,33,40,1111,500.0,625,463,60,117.0,203,1,362,230,100,0,0,512,-17956,-32248,499,,,,,,,,,,,,
619743,1560691891566,1,2.44,2.32,3.45,2.43,5.07,0.29,-0.45,0.69,20,1,21,0.53,9295,19,92,33,40,1111,500.0,625,460,60,118.0,203,1,327,216,100,0,0,510,-17956,6274,500,45.698727,4.909576,46.7,190.1,5,1.8283,0,0.0,1.17,6,0.81,10.3291
619763,1560691891586,2,2.44,2.21,3.51,2.42,5.07,0.33,-0.52,0.63,20,-1,22,0.62,9071,13,91,33,30,1087,504.0,620,454,60,117.0,132,1,305,198,100,0,0,498,2212,-28648,502,,,,,,,,,,,,
619783,1560691891604,1,2.43,2.05,3.62,2.37,5.03,0.42,-0.55,0.61,20,-0,22,0.69,9071,13,91,33,30,1087,504.0,620,454,60,117.0,132,1,291,188,66,0,0,503,-899,15661,504,,,,,,,,,,,,
619803,1560691891624,-0,2.43,2.07,3.61,2.39,5.05,0.41,-0.55,0.56,20,1,24,0.69,8644,12,91,33,27,1063,507.0,610,451,60,117.0,132,1,282,188,66,0,0,497,16648,11560,509,,,,,,,,,,,,
619823,1560691891644,4,2.43,2.11,3.56,2.42,5.04,0.36,-0.56,0.52,20,0,24,0.66,8644,12,91,33,27,1063,507.0,610,451,60,117.0,132,1,278,188,66,0,0,475,8488,-21872,507,,,,,,,,,,,,
619843,1560691891664,-1,2.46,2.09,3.52,2.41,5.05,0.45,-0.63,0.52,21,-1,24,0.77,8177,11,91,33,25,1018,509.0,581,458,60,117.0,132,1,270,173,66,0,0,475,-23367,10994,506,45.698727,4.909559,47.92,190.2,5,1.8283,0,0.0,1.1717,6,0.81,10.3307
619863,1560691891684,3,2.44,2.04,3.5,2.4,5.06,0.46,-0.56,0.43,23,-1,25,0.72,8050,11,91,33,25,1003,512.0,567,456,60,118.0,98,1,270,173,66,0,0,478,2212,-28648,509,,,,,,,,,,,,
619883,1560691891706,3,2.44,1.95,3.55,2.39,5.08,0.61,-0.6,0.4,23,-1,25,0.86,8050,11,91,33,25,1003,512.0,567,456,60,118.0,98,1,270,162,50,0,0,473,-23367,15661,512,,,,,,,,,,,,
619903,1560691891726,-1,2.44,1.89,3.57,2.32,5.06,0.66,-0.7,0.45,22,-0,27,0.96,8026,11,91,33,24,954,500.0,567,458,60,118.0,98,1,270,156,50,0,0,441,3576,-1818,506,,,,,,,,,,,,
619923,1560691891746,3,2.43,1.87,3.62,2.26,5.04,0.66,-0.67,0.33,23,-0,28,0.94,8026,11,91,33,24,954,500.0,567,458,60,118.0,98,1,270,157,50,0,0,455,8488,-6441,500,,,,,,,,,,,,
619943,1560691891766,0,2.42,1.88,3.69,2.24,5.05,0.72,-0.72,0.32,23,-1,28,1.02,8088,11,91,33,24,923,496.0,565,458,60,118.0,98,1,270,160,50,0,0,440,243,-16384,496,45.69873,4.909542,48.59,190.2,5,1.8283,0,0.0,1.1733,6,0.81,10.3324
619963,1560691891786,2,2.41,1.91,3.71,2.22,5.08,0.68,-0.72,0.3,22,1,27,0.99,8085,10,91,33,24,898,490.0,578,460,60,118.0,99,1,270,161,50,0,0,413,-3210,10305,491,,,,,,,,,,,,
619983,1560691891807,4,2.39,1.94,3.7,2.21,5.04,0.67,-0.78,0.22,22,2,26,1.03,8085,10,91,33,24,898,490.0,578,460,60,118.0,99,1,270,160,49,0,0,396,16408,10432,490,,,,,,,,,,,,
620003,1560691891827,1,2.39,1.97,3.67,2.21,5.05,0.81,-0.8,0.37,21,2,25,1.13,8116,10,91,33,24,890,479.0,568,459,60,117.0,99,1,270,161,49,0,0,413,2211,2211,487,,,,,,,,,,,,
620023,1560691891847,3,2.38,1.99,3.6,2.18,5.07,0.8,-0.74,0.33,21,2,24,1.09,8081,10,91,33,24,890,479.0,568,459,60,117.0,99,1,270,161,49,0,0,426,-18108,6193,479,,,,,,,,,,,,
620043,1560691891867,1,2.37,1.99,3.6,2.16,5.04,0.92,-0.72,0.33,21,1,23,1.17,8081,10,91,33,24,905,476.0,567,458,60,118.0,99,1,270,160,49,0,0,440,-8985,-8985,476,45.69873,4.909525,47.87,190.2,5,1.8283,0,0.0,1.175,6,0.81,10.3341
620063,1560691891887,3,2.37,1.98,3.61,2.14,5.04,0.97,-0.67,0.39,19,0,23,1.18,8148,10,91,33,24,941,466.0,565,458,60,118.0,104,1,270,163,49,0,0,435,-8985,-26615,469,,,,,,,,,,,,
620083,1560691891905,3,2.37,1.99,3.64,2.12,5.04,0.97,-0.63,0.35,18,0,22,1.16,8148,10,91,33,24,941,466.0,565,458,60,118.0,104,1,270,163,49,0,0,425,-3267,16648,464,,,,,,,,,,,,
620103,1560691891925,2,2.35,2.03,3.65,2.1,5.05,1.07,-0.63,0.45,17,-2,20,1.24,8054,10,91,33,24,982,460.0,556,461,60,117.0,104,1,270,159,49,0,0,418,15649,20625,463,,,,,,,,,,,,
620123,1560691891945,3,2.34,2.06,3.65,2.09,5.06,0.98,-0.52,0.37,16,-2,19,1.11,8054,10,91,33,23,996,456.0,554,461,60,117.0,104,1,270,159,49,0,0,430,2131,23400,458,,,,,,,,,,,,
620143,1560691891965,1,2.36,2.05,3.64,2.06,5.05,1.01,-0.49,0.32,15,-2,18,1.13,8054,10,91,33,23,996,456.0,554,460,60,118.0,104,1,270,156,49,0,0,427,21432,-7939,456,45.698734,4.909509,46.24,190.2,5,1.8283,0,0.0,1.1767,6,0.82,10.3357
620163,1560691891985,2,2.35,2.04,3.61,2.04,5.07,1.12,-0.49,0.43,14,-4,16,1.22,7961,10,91,33,24,1040,449.0,555,458,60,117.0,103,1,269,156,47,0,0,425,-18341,31796,453,,,,,,,,,,,,
620183,1560691892001,3,2.34,2.06,3.59,2.03,5.06,1.06,-0.43,0.37,14,-3,16,1.14,7978,10,91,33,24,1040,449.0,555,458,60,117.0,103,1,269,156,47,0,0,424,26704,13180,449,,,,,,,,,,,,
620203,1560691892021,4,2.35,2.01,3.55,2.01,5.04,1.06,-0.46,0.31,14,-2,16,1.15,7978,10,91,33,23,1051,446.0,551,458,60,118.0,103,1,269,154,47,0,0,427,21580,3635,446,,,,,,,,,,,,
620223,1560691892041,-0,2.34,1.98,3.51,2.0,5.07,1.13,-0.51,0.4,13,-1,16,1.24,7924,10,91,33,23,1066,444.0,564,459,60,117.0,103,1,269,154,47,0,0,428,-768,31796,443,,,,,,,,,,,,
620243,1560691892061,2,2.35,2.01,3.49,2.01,5.04,1.14,-0.44,0.44,12,-2,16,1.23,7934,10,91,33,23,1066,444.0,564,459,60,117.0,103,1,269,154,47,0,0,421,243,13552,444,45.698738,4.909493,44.76,190.2,5,1.8283,0,0.0,1.1783,6,0.82,10.3374
620263,1560691892081,3,2.35,2.0,3.47,2.0,5.04,1.08,-0.36,0.34,12,-1,15,1.14,7934,10,91,33,23,1074,441.0,557,458,60,118.0,103,1,269,154,47,0,0,420,31796,-3414,441,,,,,,,,,,,,
620283,1560691892107,1,2.34,2.0,3.45,2.0,5.07,1.1,-0.41,0.3,11,-1,14,1.17,7868,10,91,33,23,1078,434.0,553,454,60,118.0,105,1,268,154,46,0,0,422,3635,13552,436,,,,,,,,,,,,
620303,1560691892127,0,2.33,2.01,3.45,2.0,5.07,1.16,-0.41,0.42,11,-1,14,1.23,7868,10,91,33,23,1078,434.0,553,460,60,117.0,105,1,268,151,46,0,0,416,3826,-26615,434,,,,,,,,,,,,
620323,1560691892147,1,2.33,2.01,3.45,2.01,5.08,1.19,-0.37,0.38,10,-2,12,1.25,7825,10,91,33,22,1081,431.0,550,459,60,118.0,105,1,268,151,46,0,0,417,-3414,-26615,431,,,,,,,,,,,,
620343,1560691892167,2,2.33,2.01,3.42,2.01,5.04,1.18,-0.35,0.33,9,-2,12,1.23,7760,10,91,33,22,1085,426.0,544,457,60,118.0,105,1,267,151,46,0,0,418,-8165,-3414,429,45.698742,4.909479,43.06,190.2,5,1.8283,0,0.0,1.18,6,0.82,10.3391
620363,1560691892187,1,2.33,2.02,3.42,1.98,5.04,1.07,-0.29,0.23,9,0,14,1.1,7700,10,91,33,22,1085,426.0,544,457,60,118.0,105,1,267,151,46,0,0,416,-21944,7154,425,,,,,,,,,,,,
620383,1560691892205,3,2.32,2.03,3.43,1.98,5.07,0.94,-0.29,0.22,10,1,13,0.99,7678,10,91,33,22,1061,422.0,541,461,60,118.0,103,1,266,151,44,0,0,410,-21944,10392,423,,,,,,,,,,,,
620403,1560691892225,4,2.31,2.01,3.43,1.97,5.04,1.0,-0.37,0.3,10,1,12,1.06,7594,10,91,33,22,1026,418.0,542,458,60,117.0,103,1,266,151,44,0,0,409,18584,10392,422,,,,,,,,,,,,
620423,1560691892245,22,2.29,2.04,3.43,1.95,5.05,1.0,-0.4,0.36,9,1,11,1.08,7557,10,91,33,22,1026,418.0,542,458,60,117.0,103,1,265,151,44,0,0,410,2524,11560,418,,,,,,,,,,,,
620443,1560691892265,1,2.27,2.1,3.42,1.96,5.07,1.02,-0.44,0.42,8,2,10,1.11,7557,10,91,33,22,981,418.0,542,459,60,117.0,103,1,265,151,44,0,0,405,-9166,-9211,417,45.698746,4.909465,41.51,190.3,5,1.8283,0,0.0,1.1817,6,0.82,10.3407
620463,1560691892285,-0,2.25,2.15,3.41,1.95,5.04,1.06,-0.47,0.48,8,1,9,1.16,7530,10,91,33,22,943,412.0,539,458,60,117.0,103,1,265,151,44,0,0,404,9517,28696,412,,,,,,,,,,,,
620483,1560691892307,4,2.23,2.2,3.41,1.94,5.08,1.12,-0.53,0.48,7,0,7,1.24,7467,10,91,33,22,897,411.0,539,453,60,117.0,104,1,264,151,43,0,0,401,11560,6384,411,,,,,,,,,,,,
620503,1560691892327,6,2.2,2.29,3.39,1.93,5.06,1.13,-0.49,0.45,6,-0,6,1.23,7467,10,91,33,22,850,408.0,534,457,60,117.0,104,1,264,151,43,0,0,403,10392,-3968,408,,,,,,,,,,,,
620523,1560691892347,4,2.18,2.34,3.38,1.92,5.04,1.18,-0.45,0.52,4,-1,4,1.27,7416,10,91,33,23,825,408.0,535,455,60,118.0,104,1,264,151,43,0,0,399,11560,-3968,403,,,,,,,,,,,,
620543,1560691892367,3,2.17,2.34,3.39,1.89,5.08,1.18,-0.45,0.54,2,-1,2,1.27,7399,10,91,33,23,822,410.0,528,457,60,118.0,104,1,263,154,43,0,0,398,10392,-6656,398,45.69875,4.909452,40.64,190.3,5,1.8283,0,0.0,1.1833,6,0.82,10.3424
620563,1560691892387,1,2.17,2.34,3.35,1.86,5.05,1.2,-0.41,0.49,1,-2,0,1.27,7335,10,91,33,23,825,411.0,525,455,60,118.0,107,1,263,154,43,0,0,401,9517,-6524,396,,,,,,,,,,,,
620583,1560691892405,1,2.17,2.37,3.34,1.84,5.06,1.09,-0.3,0.4,-0,-1,-2,1.13,7335,10,91,33,23,825,411.0,525,455,60,118.0,107,1,263,154,42,0,0,402,9517,240,392,,,,,,,,,,,,
620603,1560691892425,2,2.15,2.39,3.32,1.83,5.05,0.98,-0.15,0.27,-1,0,-4,0.99,7267,11,91,33,23,845,406.0,523,459,60,118.0,107,1,262,154,42,0,0,396,10392,-19019,388,,,,,,,,,,,,
620623,1560691892445,1,2.16,2.37,3.28,1.82,5.04,0.96,0.05,0.2,-1,1,-4,0.97,7278,11,91,33,24,856,404.0,516,458,60,118.0,107,1,262,154,42,0,0,399,2524,-31744,386,,,,,,,,,,,,
620643,1560691892465,-1,2.16,2.35,3.27,1.79,5.05,0.98,0.15,0.26,-3,1,-4,1.0,7211,11,91,33,24,856,404.0,516,458,60,118.0,107,1,262,156,42,0,0,393,1504,-18948,387,45.698757,4.909438,39.57,190.4,5,1.8283,0,0.0,1.185,6,0.82,10.3441
620663,1560691892485,4,2.15,2.36,3.28,1.79,5.08,0.98,0.1,0.33,-4,1,-7,0.98,7211,11,91,33,24,871,405.0,519,457,60,117.0,107,1,262,156,42,0,0,395,-9211,3,386,,,,,,,,,,,,
620683,1560691892503,2,2.14,2.38,3.27,1.82,5.07,1.01,0.1,0.37,-4,1,-10,1.01,7189,12,91,33,25,876,400.0,512,458,60,117.0,109,1,262,156,42,0,0,394,10541,2278,385,,,,,,,,,,,,
620703,1560691892523,1,2.13,2.39,3.27,1.84,5.05,0.96,0.17,0.33,-5,1,-11,0.98,7134,13,91,33,25,876,400.0,512,459,60,118.0,109,1,261,159,42,0,0,392,6512,770,381,,,,,,,,,,,,
620723,1560691892543,-0,2.12,2.41,3.26,1.82,5.07,0.91,0.31,0.28,-6,2,-12,0.96,7134,13,91,33,25,876,398.0,519,457,60,119.0,109,1,261,159,42,0,0,390,6384,-6656,378,,,,,,,,,,,,
620743,1560691892563,-1,2.11,2.42,3.27,1.81,5.08,0.96,0.31,0.37,-7,1,-13,1.01,7129,14,91,33,26,878,396.0,512,461,60,118.0,109,1,265,160,42,0,0,390,-32702,1,374,45.698757,4.909425,38.4,190.4,5,1.8283,0,0.0,1.1867,6,0.82,10.3457
620763,1560691892583,2,2.1,2.4,3.27,1.79,5.08,1.03,0.26,0.45,-9,1,-14,1.06,7056,14,91,33,28,881,396.0,517,458,60,118.0,115,1,272,163,43,0,0,385,17144,-6656,373,,,,,,,,,,,,
620783,1560691892605,1,2.1,2.39,3.21,1.77,5.04,0.99,0.34,0.43,-10,2,-15,1.04,7046,14,91,33,28,881,396.0,517,458,60,118.0,115,1,272,163,43,0,0,387,-32702,-6405,370,,,,,,,,,,,,
620803,1560691892625,-0,2.1,2.4,3.12,1.76,5.04,1.03,0.44,0.44,-11,0,-17,1.11,7046,14,91,33,28,885,396.0,506,456,60,119.0,115,1,272,163,43,0,0,392,17144,2790,368,,,,,,,,,,,,
620823,1560691892645,2,2.09,2.39,3.13,1.75,5.05,1.1,0.27,0.54,-12,-2,-20,1.13,7004,15,91,33,30,892,393.0,503,451,60,119.0,115,1,281,166,43,0,0,386,-1818,-6405,366,,,,,,,,,,,,
620843,1560691892665,1,2.08,2.38,3.13,1.75,5.04,1.07,0.26,0.51,-13,-1,-20,1.1,6991,16,91,33,30,893,392.0,503,460,60,117.0,115,1,281,166,43,0,0,389,1,-14707,365,45.698761,4.909412,37.52,190.5,5,1.8283,0,0.0,1.1883,6,0.82,10.3474
620863,1560691892685,0,2.08,2.39,3.14,1.79,5.03,0.97,0.36,0.44,-13,1,-20,1.04,6952,16,91,33,31,895,390.0,505,460,60,117.0,121,1,281,166,43,0,0,388,505,-14707,363,,,,,,,,,,,,
620883,1560691892707,2,2.07,2.39,3.15,1.79,5.04,1.02,0.28,0.49,-15,-1,-21,1.06,6952,16,91,33,31,895,390.0,505,460,60,117.0,121,1,285,167,44,0,0,386,505,-29302,362,,,,,,,,,,,,
620903,1560691892727,1,2.07,2.4,3.15,1.79,5.05,0.91,0.4,0.42,-14,1,-22,0.99,6929,16,91,33,32,900,390.0,501,456,60,118.0,121,1,290,169,44,0,0,384,-1562,2060,360,,,,,,,,,,,,
620923,1560691892747,4,2.08,2.39,3.16,1.79,5.04,0.94,0.46,0.51,-15,2,-24,1.04,6921,16,91,33,32,903,388.0,496,457,60,118.0,121,1,290,169,44,0,0,386,-6524,3302,360,,,,,,,,,,,,
620943,1560691892767,2,2.08,2.4,3.13,1.8,5.04,0.9,0.4,0.53,-16,1,-24,0.99,6906,16,91,33,33,905,389.0,499,458,60,118.0,121,1,292,174,44,0,0,385,-31744,3302,357,45.698765,4.909399,36.4,190.5,5,1.8283,0,0.0,1.19,6,0.83,10.349
620963,1560691892787,1,2.07,2.39,3.13,1.79,5.04,0.9,0.5,0.49,-16,2,-24,1.03,6893,17,91,33,34,913,386.0,498,461,60,118.0,128,1,295,179,46,0,0,384,-31744,2060,357,,,,,,,,,,,,
620983,1560691892804,2,2.08,2.39,3.11,1.78,5.05,0.94,0.45,0.53,-17,1,-24,1.04,6883,17,91,33,34,913,386.0,498,461,60,118.0,128,1,295,179,46,0,0,384,-3866,-1246,356,,,,,,,,,,,,
621003,1560691892824,-1,2.09,2.38,3.11,1.76,5.06,0.91,0.53,0.41,-17,3,-24,1.06,6883,17,91,33,35,920,384.0,496,452,60,118.0,128,1,298,179,46,0,0,380,-6475,3183,357,,,,,,,,,,,,
621023,1560691892844,5,2.1,2.37,3.11,1.76,5.04,0.9,0.52,0.46,-17,1,-25,1.03,6850,17,91,33,35,924,384.0,501,456,60,118.0,128,1,298,185,46,0,0,383,-6475,3302,356,,,,,,,,,,,,
621043,1560691892864,-0,2.11,2.38,3.12,1.78,5.03,0.89,0.5,0.42,-18,1,-27,1.03,6843,17,91,33,35,929,385.0,498,456,60,118.0,128,1,298,185,46,0,0,382,-19019,-30454,355,45.698765,4.909386,35.49,190.5,5,1.8283,0,0.0,1.1917,6,0.83,10.3507
621063,1560691892884,4,2.12,2.38,3.12,1.78,5.04,0.92,0.51,0.5,-18,0,-28,1.05,6825,17,91,33,36,941,382.0,496,457,60,118.0,138,1,301,190,49,0,0,380,-19126,3183,353,,,,,,,,,,,,
621083,1560691892906,2,2.14,2.39,3.14,1.81,5.07,0.94,0.42,0.54,-18,-2,-29,1.03,6808,17,91,33,36,941,382.0,496,457,60,118.0,138,1,301,190,49,0,0,375,19125,2811,352,,,,,,,,,,,,
621103,1560691892926,1,2.15,2.39,3.2,1.84,5.04,0.87,0.46,0.49,-17,1,-28,0.99,6808,17,91,33,36,945,379.0,495,452,60,118.0,138,1,301,190,49,0,0,375,8200,6870,352,,,,,,,,,,,,
621123,1560691892946,0,2.19,2.37,3.22,1.86,5.06,0.94,0.34,0.52,-17,1,-26,1.0,6825,17,91,33,37,948,379.0,496,461,60,117.0,138,1,304,196,49,0,0,376,8200,-1246,354,,,,,,,,,,,,
621143,1560691892966,0,2.21,2.36,3.21,1.89,5.04,0.85,0.45,0.42,-16,4,-24,0.97,6778,18,91,33,38,951,374.0,492,457,60,117.0,138,1,307,196,49,0,0,374,770,-30454,356,45.698769,4.909373,34.79,190.6,5,1.8283,0,0.0,1.1933,6,0.83,10.3524
621163,1560691892986,1,2.24,2.34,3.21,1.9,5.06,0.91,0.37,0.49,-15,2,-24,0.98,6788,18,91,33,37,950,372.0,491,456,60,118.0,140,1,304,202,50,0,0,370,742,-29978,357,,,,,,,,,,,,
621183,1560691893002,-1,2.26,2.33,3.2,1.91,5.04,0.8,0.36,0.48,-13,1,-24,0.88,6805,18,91,33,37,950,372.0,491,456,60,118.0,140,1,304,202,50,0,0,371,1,-6640,358,,,,,,,,,,,,
621203,1560691893022,1,2.31,2.31,3.24,1.91,5.06,0.89,0.22,0.52,-12,-1,-25,0.91,6805,18,91,33,38,948,368.0,491,460,60,117.0,140,1,307,202,50,0,0,369,0,3302,359,,,,,,,,,,,,
621223,1560691893042,-1,2.34,2.29,3.29,1.97,5.05,0.76,0.21,0.4,-9,0,-23,0.79,6805,18,91,33,38,950,368.0,491,456,60,118.0,140,1,307,202,50,0,0,365,230,-29302,358,,,,,,,,,,,,
621243,1560691893062,3,2.38,2.25,3.37,1.99,5.05,0.72,0.13,0.44,-8,-1,-21,0.73,6803,18,91,33,38,954,364.0,488,448,60,119.0,140,1,307,202,50,0,0,361,3082,-6458,361,45.698769,4.909361,34.97,190.6,5,1.8283,0,0.0,1.195,6,0.83,10.354
621263,1560691893082,0,2.41,2.22,3.42,2.03,5.04,0.66,0.12,0.33,-5,-0,-17,0.67,6798,18,91,33,39,956,367.0,487,463,60,117.0,142,1,310,208,52,0,0,358,2790,-29302,364,,,,,,,,,,,,
621283,1560691893104,3,2.45,2.22,3.46,2.08,5.06,0.55,0.09,0.24,-3,1,-14,0.56,6808,18,91,33,39,956,367.0,487,463,60,117.0,142,1,310,208,52,0,0,360,-6640,-6405,367,,,,,,,,,,,,
621303,1560691893124,2,2.48,2.21,3.54,2.13,5.04,0.7,-0.07,0.4,-1,-1,-11,0.7,6786,20,91,33,39,968,371.0,497,456,60,118.0,142,1,310,208,52,0,0,354,2060,0,369,,,,,,,,,,,,
621323,1560691893144,2,2.53,2.19,3.56,2.15,5.06,0.54,-0.07,0.3,2,-3,-8,0.54,6795,21,91,33,41,974,371.0,496,458,60,117.0,142,1,310,208,52,0,0,353,28553,-6405,369,,,,,,,,,,,,
621343,1560691893164,-0,2.54,2.16,3.57,2.18,5.03,0.69,-0.22,0.4,4,-4,-5,0.72,6840,22,91,33,41,974,371.0,496,458,60,117.0,142,1,324,209,52,0,0,349,-30454,486,371,45.698769,4.909348,35.12,190.6,5,1.8283,0,0.0,1.1967,6,0.83,10.3557
621363,1560691893184,2,2.54,2.13,3.62,2.2,5.04,0.57,-0.2,0.34,7,-5,-3,0.61,6840,22,91,33,41,977,376.0,496,457,60,118.0,142,1,324,211,52,0,0,346,8841,257,376,,,,,,,,,,,,
621383,1560691893208,2,2.56,2.11,3.66,2.24,5.04,0.63,-0.35,0.43,9,-6,-1,0.72,6863,27,91,34,44,982,377.0,496,454,60,118.0,146,1,346,216,55,0,0,344,-30438,486,376,,,,,,,,,,,,
621403,1560691893228,-1,2.56,2.09,3.67,2.27,5.07,0.62,-0.39,0.41,12,-5,2,0.73,6913,30,91,34,47,982,378.0,495,457,60,118.0,146,1,346,216,55,0,0,340,6668,-6656,377,,,,,,,,,,,,
621423,1560691893248,5,2.54,2.09,3.66,2.29,5.03,0.55,-0.46,0.38,13,-6,5,0.71,6934,32,91,34,49,981,376.0,492,456,60,118.0,146,1,374,232,55,0,0,340,3327,742,378,,,,,,,,,,,,
621443,1560691893268,1,2.55,2.09,3.64,2.32,5.07,0.69,-0.6,0.51,15,-5,9,0.92,6972,34,91,34,52,980,377.0,501,457,60,119.0,146,1,374,232,55,0,0,338,-122,-6656,376,45.698772,4.909335,34.8,190.6,5,1.8283,0,0.0,1.1983,6,0.83,10.3574
621463,1560691893288,-1,2.56,2.09,3.63,2.32,5.06,0.57,-0.6,0.44,17,-4,12,0.83,7019,36,91,34,52,980,377.0,501,457,60,119.0,146,1,383,247,55,0,0,339,-31222,742,377,,,,,,,,,,,,
621483,1560691893308,3,2.55,2.09,3.62,2.34,5.04,0.66,-0.62,0.52,18,-7,14,0.9,7019,36,91,34,54,981,377.0,498,461,60,117.0,175,1,390,258,66,0,0,337,-122,770,377,,,,,,,,,,,,
621503,1560691893328,2,2.55,2.08,3.62,2.34,5.03,0.7,-0.63,0.58,20,-6,15,0.94,7035,37,91,34,56,982,379.0,502,460,60,118.0,175,1,399,269,66,0,0,338,13,1,376,,,,,,,,,,,,
621523,1560691893348,1,2.55,2.06,3.61,2.33,5.03,0.63,-0.61,0.51,21,-4,17,0.88,7027,37,91,34,58,984,377.0,499,455,60,119.0,175,1,409,279,66,0,0,338,2560,257,374,,,,,,,,,,,,
621543,1560691893368,5,2.54,2.06,3.58,2.34,5.06,0.61,-0.69,0.55,22,-4,18,0.92,6921,38,91,34,61,1006,378.0,490,455,60,118.0,175,1,420,287,66,0,0,347,2560,1,377,45.698772,4.909322,35.58,190.7,5,1.8283,0,0.0,1.2,6,0.83,10.359
621563,1560691893388,1,2.55,2.06,3.56,2.36,5.03,0.72,-0.71,0.57,22,-2,21,1.01,6921,38,91,34,61,1006,378.0,490,455,60,118.0,175,1,420,287,66,0,0,363,-31222,3,378,,,,,,,,,,,,
621583,1560691893406,1,2.55,2.07,3.55,2.39,5.04,0.59,-0.67,0.52,23,-2,24,0.89,6848,38,91,34,63,1034,377.0,480,458,60,117.0,195,1,413,293,74,0,0,366,-31222,770,379,,,,,,,,,,,,
621603,1560691893426,3,2.55,2.07,3.55,2.39,5.04,0.68,-0.75,0.56,22,-1,25,1.01,6845,39,91,34,64,1055,378.0,482,458,60,118.0,195,1,404,298,74,0,0,365,-31222,3,377,,,,,,,,,,,,
621623,1560691893446,-0,2.53,2.06,3.55,2.36,5.04,0.6,-0.68,0.51,24,1,25,0.91,6875,39,91,34,65,1099,379.0,485,466,60,117.0,195,1,401,309,74,0,0,359,6668,1,378,,,,,,,,,,,,
621643,1560691893466,4,2.53,2.06,3.55,2.36,5.04,0.62,-0.82,0.57,24,-1,26,1.02,6888,39,91,34,65,1142,381.0,487,453,60,118.0,195,1,402,309,74,0,0,356,-14714,-18948,379,45.698776,4.90931,35.01,190.7,5,1.8283,0,0.0,1.2017,6,0.83,10.3607
621663,1560691893486,-1,2.54,2.06,3.53,2.37,5.07,0.73,-0.84,0.57,24,-1,26,1.11,6880,39,91,34,66,1171,382.0,488,457,60,118.0,212,1,402,309,74,0,0,359,-14714,-992,381,,,,,,,,,,,,
621683,1560691893508,3,2.54,2.06,3.5,2.37,5.07,0.59,-0.79,0.5,24,1,27,0.99,6913,39,91,34,66,1171,382.0,488,457,60,118.0,212,1,396,314,81,0,0,359,-10554,8200,382,,,,,,,,,,,,
621703,1560691893528,2,2.53,2.06,3.49,2.38,5.08,0.73,-0.91,0.62,24,-1,29,1.17,6913,39,91,34,67,1214,381.0,486,458,60,117.0,212,1,394,315,81,0,0,357,-10554,-6656,381,,,,,,,,,,,,
621723,1560691893548,-1,2.52,2.04,3.48,2.37,5.06,0.61,-0.87,0.58,25,1,31,1.06,6921,39,91,34,66,1251,382.0,486,456,60,118.0,212,1,397,314,81,0,0,358,-30438,-19126,382,,,,,,,,,,,,
621743,1560691893568,4,2.51,2.03,3.48,2.38,5.05,0.75,-0.88,0.64,24,-1,32,1.16,6941,39,91,34,67,1286,385.0,483,460,60,117.0,212,1,394,320,81,0,0,355,8841,3,384,45.698776,4.909297,35.39,190.7,5,1.8283,0,0.0,1.2033,6,0.83,10.3624
621763,1560691893588,1,2.51,2.03,3.46,2.38,5.04,0.69,-0.81,0.67,25,1,31,1.06,6929,39,91,34,67,1286,385.0,480,453,60,118.0,212,1,394,320,81,0,0,361,2811,19125,385,,,,,,,,,,,,
621783,1560691893606,0,2.52,2.04,3.41,2.41,5.04,0.65,-0.77,0.71,24,-1,30,1.01,6929,39,91,34,67,1292,385.0,483,453,60,118.0,217,1,394,320,84,0,0,358,2811,-6475,385,,,,,,,,,,,,
621803,1560691893626,3,2.52,2.03,3.41,2.39,5.05,0.78,-0.82,0.78,24,-2,29,1.13,6996,39,91,34,67,1292,386.0,477,458,60,117.0,217,1,396,321,84,0,0,358,-30454,19125,386,,,,,,,,,,,,
621823,1560691893646,2,2.51,2.04,3.42,2.39,5.05,0.73,-0.84,0.68,25,1,29,1.11,7006,39,91,34,67,1289,386.0,482,458,60,118.0,217,1,397,322,84,0,0,361,-30454,-19019,387,,,,,,,,,,,,
621843,1560691893666,1,2.48,2.06,3.43,2.39,5.04,0.69,-0.86,0.6,25,-2,30,1.1,7115,39,91,34,67,1282,384.0,489,455,60,118.0,217,1,397,327,84,0,0,367,3183,-19126,386,45.698776,4.909285,36.05,190.8,5,1.8283,0,0.0,1.205,6,0.83,10.364
621863,1560691893686,3,2.49,2.07,3.44,2.39,5.05,0.82,-0.86,0.7,23,-2,31,1.19,7115,39,91,34,67,1275,386.0,488,458,60,117.0,217,1,402,324,84,0,0,376,-6644,-19019,386,,,,,,,,,,,,
621883,1560691893708,2,2.48,2.08,3.44,2.38,5.07,0.72,-0.81,0.72,24,-0,31,1.09,7208,40,91,34,66,1264,386.0,497,451,60,118.0,227,1,412,329,88,0,0,381,2060,-31744,387,,,,,,,,,,,,
621903,1560691893728,2,2.46,2.08,3.43,2.4,5.04,0.62,-0.78,0.6,23,-0,31,0.99,7239,40,91,34,67,1262,388.0,501,460,60,117.0,227,1,409,330,88,0,0,371,-29978,-3866,386,,,,,,,,,,,,
621923,1560691893748,0,2.46,2.1,3.42,2.39,5.08,0.54,-0.72,0.56,22,-1,31,0.9,7295,40,91,34,67,1262,388.0,501,456,60,117.0,227,1,413,332,88,0,0,377,-29302,-6475,387,,,,,,,,,,,,
621943,1560691893768,-2,2.44,2.13,3.41,2.36,5.06,0.61,-0.67,0.62,21,-4,31,0.91,7358,40,91,34,67,1251,390.0,507,461,60,117.0,227,1,415,327,88,0,0,378,2790,-1818,388,45.698784,4.909273,35.9,190.8,5,1.8283,0,0.0,1.2067,6,0.83,10.3657
621963,1560691893788,-1,2.43,2.16,3.39,2.36,5.06,0.7,-0.59,0.76,19,-5,29,0.92,7384,40,91,34,66,1238,391.0,497,459,60,118.0,236,1,418,330,92,0,0,389,230,505,390,,,,,,,,,,,,
621983,1560691893805,0,2.41,2.19,3.37,2.36,5.04,0.76,-0.55,0.85,18,-6,27,0.94,7393,40,91,34,66,1226,392.0,500,459,60,118.0,236,1,418,330,92,0,0,390,257,1,394,,,,,,,,,,,,
622003,1560691893825,-0,2.4,2.24,3.36,2.36,5.07,0.76,-0.57,0.94,17,-6,26,0.95,7458,40,91,34,66,1226,392.0,500,457,60,118.0,236,1,421,331,92,0,0,395,1,-3968,393,,,,,,,,,,,,
622023,1560691893845,-1,2.37,2.26,3.35,2.35,5.07,0.75,-0.57,0.95,17,-4,26,0.94,7458,40,91,34,65,1210,393.0,503,457,60,117.0,236,1,425,326,92,0,0,402,3,6384,393,,,,,,,,,,,,
622043,1560691893865,-0,2.36,2.27,3.31,2.35,5.04,0.81,-0.52,1.0,16,-4,25,0.96,7488,40,91,34,65,1182,395.0,498,457,60,117.0,236,1,429,326,92,0,0,397,-992,17144,396,45.698788,4.909262,36.68,190.9,5,1.8283,0,0.0,1.2083,6,0.84,10.3674
622063,1560691893885,-0,2.34,2.27,3.31,2.34,5.08,0.86,-0.52,1.08,15,-3,23,1.0,7560,40,91,34,64,1142,400.0,508,457,60,118.0,230,1,432,322,92,0,0,398,-6475,28696,398,,,,,,,,,,,,
622083,1560691893907,-1,2.31,2.29,3.27,2.33,5.05,0.83,-0.53,1.1,14,-2,22,0.99,7621,40,91,34,64,1142,400.0,508,457,60,118.0,230,1,432,322,92,0,0,410,-31744,-9211,400,,,,,,,,,,,,
622103,1560691893927,1,2.3,2.35,3.2,2.33,5.04,0.86,-0.36,1.04,13,-1,21,0.94,7621,40,91,34,64,1123,400.0,517,455,60,117.0,230,1,435,324,92,0,0,405,1,9517,400,,,,,,,,,,,,
622123,1560691893947,0,2.28,2.37,3.17,2.32,5.04,0.88,-0.33,1.03,11,-2,20,0.94,7681,40,91,33,64,1067,403.0,521,463,60,117.0,230,1,437,324,92,0,0,411,-1818,11560,401,,,,,,,,,,,,
622143,1560691893967,2,2.26,2.38,3.18,2.31,5.07,0.86,-0.3,0.98,9,-2,18,0.91,7744,40,91,33,62,1043,404.0,534,458,60,118.0,230,1,442,311,92,0,0,413,6512,10392,403,45.698795,4.90925,37.75,190.9,5,1.8283,0,0.0,1.21,6,0.84,10.3691
622163,1560691893987,2,2.25,2.38,3.16,2.3,5.04,0.88,-0.19,0.95,8,-3,17,0.9,7763,40,91,33,62,1043,404.0,534,458,60,118.0,230,1,442,311,92,0,0,418,2524,9517,404,,,,,,,,,,,,
622183,1560691894003,4,2.25,2.4,3.12,2.3,5.03,0.85,-0.25,0.93,7,-3,15,0.89,7841,40,91,33,62,1004,413.0,528,457,60,118.0,223,1,445,312,91,0,0,422,9517,18584,406,,,,,,,,,,,,
622203,1560691894023,-0,2.24,2.39,3.12,2.3,5.04,0.79,-0.24,0.96,6,-1,13,0.82,7858,40,91,33,61,977,415.0,529,456,60,117.0,223,1,447,305,91,0,0,418,-9166,7154,408,,,,,,,,,,,,
622223,1560691894043,2,2.24,2.39,3.09,2.29,5.04,0.73,-0.07,0.94,5,-0,12,0.74,7931,40,91,33,61,958,415.0,546,456,60,117.0,223,1,447,305,91,0,0,425,-26615,-21792,411,,,,,,,,,,,,
622243,1560691894063,2,2.23,2.39,3.09,2.28,5.06,0.74,0.01,0.86,4,-1,11,0.74,7931,40,91,33,61,958,415.0,546,457,60,117.0,223,1,448,306,91,0,0,426,-26615,-4082,415,45.698799,4.909238,38.8,190.9,5,1.8283,0,0.0,1.2117,6,0.84,10.3707
622263,1560691894083,-1,2.23,2.39,3.1,2.28,5.05,0.7,0.03,0.87,3,-1,9,0.7,8019,40,91,33,60,933,424.0,541,461,60,117.0,218,1,441,302,91,0,0,425,7154,-21792,417,,,,,,,,,,,,
622283,1560691894101,1,2.22,2.4,3.1,2.27,5.04,0.69,0.02,0.88,2,-1,9,0.69,8019,40,91,33,60,933,424.0,541,461,60,117.0,218,1,441,302,91,0,0,429,3826,243,419,,,,,,,,,,,,
622303,1560691894121,4,2.22,2.43,3.09,2.28,5.04,0.67,0.02,0.84,2,-1,8,0.67,8177,40,91,33,58,907,429.0,547,457,60,117.0,218,1,424,299,91,0,0,436,-3856,13180,420,,,,,,,,,,,,
622323,1560691894141,2,2.22,2.44,3.1,2.27,5.04,0.63,0.04,0.95,1,-1,6,0.63,8227,40,91,33,58,907,429.0,547,457,60,117.0,218,1,423,296,91,0,0,439,3635,-28332,421,,,,,,,,,,,,
622343,1560691894161,4,2.22,2.42,3.09,2.27,5.04,0.62,0.12,0.85,-0,-0,6,0.64,8245,37,91,33,57,903,432.0,553,456,60,117.0,218,1,415,292,91,0,0,438,-3322,20625,425,45.698803,4.909226,39.67,191.0,5,1.8283,0,0.0,1.2133,6,0.84,10.3724
622363,1560691894181,1,2.23,2.43,3.09,2.27,5.08,0.64,0.13,0.92,-1,-1,6,0.65,8245,37,91,33,55,899,435.0,560,453,60,118.0,218,1,398,278,91,0,0,443,-7939,26704,427,,,,,,,,,,,,
622383,1560691894201,5,2.23,2.46,3.09,2.28,5.05,0.64,0.16,0.86,-1,-1,5,0.66,8329,27,91,33,53,898,437.0,564,461,60,118.0,200,1,387,266,86,0,0,445,19477,8488,430,,,,,,,,,,,,
622403,1560691894221,2,2.23,2.45,3.11,2.29,5.05,0.57,0.19,0.84,-1,-1,3,0.6,8329,27,91,33,49,898,438.0,566,455,60,117.0,200,1,375,239,86,0,0,445,19477,10305,432,,,,,,,,,,,,
622423,1560691894241,4,2.23,2.43,3.1,2.28,5.08,0.6,0.15,0.85,-2,-2,2,0.62,8220,20,91,33,42,905,441.0,577,459,60,118.0,200,1,335,216,86,0,0,449,20625,-3267,436,,,,,,,,,,,,
622443,1560691894261,2,2.23,2.42,3.11,2.27,5.06,0.53,0.15,0.84,-2,-0,1,0.55,8162,17,91,33,39,914,445.0,576,459,60,118.0,200,1,335,216,86,0,0,450,21432,8488,437,45.698811,4.909214,41.09,191.0,5,1.8283,0,0.0,1.215,6,0.84,10.3741
622463,1560691894281,3,2.24,2.41,3.11,2.27,5.08,0.58,0.22,0.76,-2,0,2,0.62,8106,15,91,33,39,914,445.0,576,459,60,118.0,200,1,313,210,86,0,0,449,2131,16648,440,,,,,,,,,,,,
622483,1560691894301,-0,2.23,2.4,3.14,2.25,5.07,0.56,0.12,0.81,-2,1,2,0.57,8040,14,91,33,33,930,445.0,566,459,60,117.0,138,1,303,193,61,0,0,448,16648,2131,439,,,,,,,,,,,,
622503,1560691894321,2,2.24,2.39,3.16,2.22,5.05,0.53,0.16,0.74,-2,1,1,0.55,7924,13,91,33,33,930,445.0,566,459,60,117.0,138,1,292,175,61,0,0,446,2131,26704,440,,,,,,,,,,,,
622523,1560691894341,3,2.25,2.38,3.21,2.22,5.08,0.53,0.21,0.64,-2,0,1,0.57,7924,13,91,33,31,933,446.0,567,460,60,118.0,138,1,287,167,61,0,0,447,16648,21580,441,,,,,,,,,,,,
622543,1560691894361,5,2.24,2.39,3.25,2.22,5.04,0.4,0.19,0.6,-2,2,-0,0.44,7712,13,91,33,29,925,446.0,547,452,60,118.0,138,1,280,164,61,0,0,446,16648,19477,439,45.698818,4.909201,42.35,191.0,5,1.8283,0,0.0,1.2167,6,0.84,10.3757
622563,1560691894381,5,2.24,2.39,3.27,2.2,5.04,0.37,0.11,0.56,-1,3,-1,0.39,7572,13,91,33,28,914,446.0,537,457,60,117.0,106,1,280,164,61,0,0,446,16648,26704,438,,,,,,,,,,,,
622583,1560691894401,4,2.26,2.38,3.27,2.18,5.08,0.42,0.02,0.57,-1,3,-2,0.42,7572,13,91,33,28,914,446.0,537,457,60,117.0,106,1,275,163,47,0,0,444,2131,19477,439,,,,,,,,,,,,
622603,1560691894421,2,2.28,2.37,3.26,2.15,5.05,0.53,-0.05,0.62,-1,3,-2,0.54,7315,13,91,33,27,873,446.0,521,460,60,119.0,106,1,270,161,47,0,0,443,16648,21580,438,,,,,,,,,,,,
622623,1560691894441,3,2.28,2.35,3.28,2.14,5.04,0.49,-0.04,0.57,0,5,-4,0.5,7381,12,91,33,27,845,440.0,524,458,60,118.0,106,1,270,161,47,0,0,439,16648,-3322,438,,,,,,,,,,,,
622643,1560691894461,4,2.28,2.32,3.29,2.12,5.05,0.43,-0.04,0.49,1,5,-3,0.43,7515,12,91,33,27,829,436.0,529,458,60,118.0,106,1,270,161,47,0,0,424,20625,18584,435,45.698818,4.909188,42.98,191.0,5,1.8283,0,0.0,1.2183,6,0.84,10.3774
622663,1560691894481,3,2.31,2.28,3.38,2.11,5.04,0.43,-0.06,0.39,2,5,-2,0.43,7515,12,91,33,27,829,436.0,529,461,60,118.0,106,1,272,161,47,0,0,419,5600,-4082,433,,,,,,,,,,,,
622683,1560691894501,4,2.31,2.25,3.43,2.11,5.05,0.48,-0.1,0.43,2,3,-2,0.49,7687,12,91,33,26,809,433.0,534,457,60,118.0,103,1,268,160,45,0,0,404,243,-4059,432,,,,,,,,,,,,
622703,1560691894521,4,2.34,2.17,3.45,2.12,5.08,0.49,-0.19,0.44,3,4,-2,0.53,7687,12,91,33,26,797,429.0,538,460,60,118.0,103,1,269,160,45,0,0,409,13552,-4059,431,,,,,,,,,,,,
622723,1560691894541,-1,2.34,2.06,3.43,2.13,5.04,0.55,-0.26,0.47,3,3,-1,0.61,7738,12,91,33,25,791,431.0,550,458,60,118.0,103,1,267,159,45,0,0,408,-4082,9517,429,,,,,,,,,,,,
622743,1560691894561,-1,2.36,1.85,3.37,1.99,5.06,0.67,-0.35,0.49,4,4,1,0.75,7760,12,91,33,25,796,430.0,552,458,60,118.0,103,1,267,159,45,0,0,408,-8165,13040,431,45.698826,4.909174,43.15,191.0,5,1.8283,0,0.0,1.22,6,0.84,10.3791
622763,1560691894581,3,2.38,1.86,3.35,1.94,5.04,0.78,-0.35,0.47,5,3,1,0.86,7731,12,91,33,25,796,430.0,552,458,60,118.0,103,1,267,159,45,0,0,412,-8165,2524,432,,,,,,,,,,,,
622783,1560691894603,1,2.4,1.86,3.36,1.97,5.04,0.78,-0.32,0.46,6,2,1,0.84,7757,12,91,33,24,820,425.0,546,458,60,118.0,104,1,267,156,45,0,0,410,-26615,-4082,428,,,,,,,,,,,,
622803,1560691894623,3,2.4,1.86,3.43,2.04,5.05,0.78,-0.37,0.38,7,3,3,0.86,7712,12,91,33,24,829,424.0,551,458,60,118.0,104,1,267,156,45,0,0,408,13040,-8165,425,,,,,,,,,,,,
622823,1560691894643,4,2.43,1.86,3.5,2.07,5.04,0.77,-0.43,0.38,8,3,5,0.88,7712,12,91,33,24,829,424.0,551,456,60,119.0,104,1,267,156,45,0,0,400,9517,-26615,424,,,,,,,,,,,,
622843,1560691894663,6,2.43,1.87,3.52,2.13,5.04,0.73,-0.54,0.44,8,4,8,0.9,7700,12,91,33,24,838,425.0,538,458,60,118.0,104,1,266,156,45,0,0,397,-9211,-4082,425,45.698833,4.909161,42.1,191.0,5,1.8283,0,0.0,1.2217,6,0.84,10.3807
622863,1560691894683,-2,2.45,1.91,3.59,2.16,5.04,0.76,-0.64,0.51,9,4,9,1.0,7578,12,91,33,24,854,423.0,536,457,60,117.0,106,1,265,156,45,0,0,402,-8151,-26615,423,,,,,,,,,,,,
622883,1560691894701,-1,2.47,1.96,3.49,2.16,5.07,0.82,-0.78,0.56,9,2,10,1.13,7578,12,91,33,24,854,423.0,536,457,60,117.0,106,1,265,156,45,0,0,394,6512,-21792,423,,,,,,,,,,,,
622903,1560691894721,-1,2.48,1.94,3.4,2.16,5.03,0.94,-0.82,0.63,11,-1,11,1.25,7509,12,91,33,24,858,418.0,532,457,60,118.0,106,1,264,156,45,0,0,394,17144,-4059,418,,,,,,,,,,,,
622923,1560691894741,-0,2.48,1.92,3.45,2.17,5.03,1.05,-0.92,0.73,13,-2,13,1.4,7428,11,91,33,24,860,418.0,532,458,60,117.0,106,1,264,156,45,0,0,389,-6656,11560,417,,,,,,,,,,,,
622943,1560691894761,6,2.48,1.91,3.54,2.22,5.03,1.11,-0.98,0.76,13,-1,16,1.48,7399,11,91,33,24,861,417.0,529,458,60,117.0,106,1,264,156,45,0,0,384,240,9517,418,45.698837,4.909149,39.89,191.0,5,1.8283,0,0.0,1.2233,6,0.85,10.3824
622963,1560691894781,0,2.49,1.91,3.61,2.23,5.07,1.13,-1.08,0.78,15,-1,18,1.56,7307,11,91,33,24,861,417.0,529,458,60,118.0,106,1,263,156,45,0,0,377,-19019,11560,417,,,,,,,,,,,,
622983,1560691894798,4,2.49,1.91,3.66,2.23,5.04,1.02,-1.12,0.76,17,-2,20,1.52,7267,11,91,33,24,862,415.0,523,458,60,118.0,103,1,262,156,43,0,0,379,-19126,11560,415,,,,,,,,,,,,
623003,1560691894818,2,2.49,1.9,3.68,2.24,5.06,0.85,-1.04,0.64,19,-1,21,1.34,7181,11,91,33,24,865,414.0,523,458,60,118.0,103,1,262,156,43,0,0,372,19125,1504,416,,,,,,,,,,,,
623023,1560691894838,-1,2.51,1.89,3.69,2.24,5.07,0.79,-0.93,0.55,20,0,22,1.22,7148,11,91,33,24,865,414.0,523,460,60,117.0,103,1,261,156,43,0,0,367,-18948,2524,414,,,,,,,,,,,,
623043,1560691894858,-1,2.52,1.9,3.69,2.25,5.04,0.85,-0.98,0.54,20,-0,23,1.3,7148,11,91,33,24,870,415.0,515,464,60,117.0,103,1,261,156,43,0,0,364,2278,2524,415,45.698841,4.909137,39.91,191.0,5,1.8283,0,0.0,1.225,6,0.85,10.3841
623063,1560691894878,4,2.53,1.9,3.69,2.27,5.06,0.97,-1.08,0.67,20,-4,24,1.45,7102,11,91,33,25,874,414.0,510,457,60,117.0,103,1,261,159,43,0,0,362,3,6512,414,,,,,,,,,,,,
623083,1560691894900,2,2.54,1.89,3.68,2.28,5.08,0.83,-1.05,0.49,22,-2,25,1.34,7083,11,91,33,25,881,411.0,504,459,60,118.0,101,1,260,159,42,0,0,364,-6656,6512,412,,,,,,,,,,,,
623103,1560691894920,-1,2.56,1.87,3.67,2.31,5.05,0.77,-1.0,0.38,24,-1,26,1.26,7083,11,91,33,25,881,411.0,504,462,60,118.0,101,1,260,159,42,0,0,362,486,6512,411,,,,,,,,,,,,
623123,1560691894940,3,2.55,1.85,3.68,2.31,5.08,0.87,-1.06,0.49,24,-2,27,1.37,7078,11,91,32,25,886,409.0,503,458,60,117.0,101,1,260,159,42,0,0,358,0,28696,406,,,,,,,,,,,,
623143,1560691894960,2,2.55,1.83,3.67,2.32,5.05,0.94,-1.06,0.49,25,-3,27,1.42,7017,12,91,32,25,886,405.0,495,463,60,118.0,101,1,260,159,42,0,0,352,-6405,6384,407,45.698849,4.909126,39.48,190.9,5,1.8283,0,0.0,1.2267,6,0.85,10.3857
623163,1560691894980,-0,2.53,1.81,3.65,2.31,5.07,0.8,-0.99,0.4,26,-1,30,1.27,6970,12,91,32,26,886,403.0,497,458,60,118.0,103,1,265,160,42,0,0,356,3082,6384,405,,,,,,,,,,,,
623183,1560691894994,4,2.52,1.81,3.65,2.3,5.07,0.92,-1.03,0.43,25,-4,31,1.38,6929,12,91,32,26,886,403.0,497,458,60,118.0,103,1,265,160,42,0,0,354,-6458,-1818,403,,,,,,,,,,,,
623203,1560691895014,1,2.5,1.82,3.65,2.3,5.04,1.02,-1.04,0.39,25,-5,33,1.45,6929,12,91,32,26,886,402.0,497,460,60,118.0,103,1,265,160,42,0,0,351,-14707,17144,402,,,,,,,,,,,,
623223,1560691895034,-1,2.48,1.84,3.65,2.28,5.07,0.91,-0.9,0.31,26,-3,33,1.28,6880,12,91,32,27,888,395.0,498,459,60,118.0,103,1,270,161,42,0,0,348,-29978,240,397,,,,,,,,,,,,
623243,1560691895054,3,2.44,1.79,3.65,2.24,5.05,1.02,-1.0,0.44,24,-5,33,1.43,6795,12,91,32,27,889,392.0,497,452,60,118.0,103,1,270,161,42,0,0,348,4104,-3866,395,45.698856,4.909115,38.24,190.9,5,1.8283,0,0.0,1.2283,6,0.85,10.3874
623263,1560691895074,0,2.42,1.7,3.57,2.23,5.07,0.97,-0.88,0.38,23,-2,34,1.31,6818,12,91,33,27,890,390.0,494,458,60,117.0,105,1,270,161,42,0,0,347,-6640,-3866,392,,,,,,,,,,,,
623283,1560691895102,1,2.4,1.71,3.46,2.21,5.06,1.01,-0.86,0.44,22,-2,33,1.33,6818,12,91,33,27,890,390.0,494,458,60,117.0,105,1,270,161,41,0,0,353,-29978,-6656,390,,,,,,,,,,,,
623303,1560691895122,1,2.36,1.77,3.36,2.12,5.06,0.95,-0.67,0.31,22,2,33,1.16,6800,12,91,33,27,893,390.0,496,457,60,118.0,105,1,270,161,41,0,0,355,-6640,-6656,390,,,,,,,,,,,,
623323,1560691895142,4,2.33,1.92,3.31,2.13,5.07,1.06,-0.68,0.38,21,-1,31,1.26,6768,12,91,33,28,894,376.0,323,457,60,119.0,105,1,274,163,41,0,0,355,-29302,742,382,,,,,,,,,,,,
623343,1560691895162,-1,2.28,2.04,3.3,2.14,5.08,0.95,-0.52,0.27,20,2,30,1.08,6776,12,91,33,28,895,370.0,312,462,60,117.0,105,1,274,163,41,0,0,358,-29302,-6405,376,45.69886,4.909106,36.8,190.9,5,1.8283,0,0.0,1.23,6,0.85,10.389
623363,1560691895182,3,2.24,2.06,3.3,2.14,5.08,1.05,-0.5,0.42,17,-1,27,1.17,6754,12,91,33,28,897,364.0,355,459,60,118.0,111,1,274,163,41,0,0,356,-6640,-1268,370,,,,,,,,,,,,
623383,1560691895202,0,2.19,2.13,3.28,2.14,5.04,1.02,-0.35,0.41,14,-2,25,1.08,6754,12,91,33,28,897,364.0,355,459,60,118.0,111,1,274,163,41,0,0,353,-29978,-6640,364,,,,,,,,,,,,
623403,1560691895222,3,2.16,2.21,3.27,2.11,5.04,1.03,-0.38,0.49,11,-3,23,1.1,6618,12,91,33,28,899,359.0,430,450,60,118.0,111,1,275,164,41,0,0,357,-29302,-1246,361,,,,,,,,,,,,
623423,1560691895242,-1,2.14,2.3,3.23,2.02,5.05,0.98,-0.21,0.36,9,-1,21,1.0,6562,12,91,33,29,900,363.0,440,461,60,118.0,111,1,279,164,41,0,0,358,-29302,-6644,357,,,,,,,,,,,,
623443,1560691895262,2,2.11,2.39,3.23,1.94,5.04,1.08,-0.22,0.36,6,-2,18,1.1,6530,12,91,33,29,901,366.0,452,464,60,117.0,111,1,279,164,41,0,0,360,3082,8841,351,45.698868,4.909098,35.24,190.9,5,1.8283,0,0.0,1.2317,6,0.85,10.3907
623463,1560691895282,3,2.12,2.41,3.12,1.87,5.08,1.0,-0.18,0.4,4,-3,13,1.01,6517,12,91,33,30,903,364.0,458,455,60,118.0,116,1,282,166,40,0,0,358,230,-31206,345,,,,,,,,,,,,
623483,1560691895302,-0,2.11,2.41,3.12,1.85,5.04,0.92,0.04,0.31,2,-3,9,0.92,6456,12,91,33,30,903,364.0,458,455,60,118.0,116,1,282,166,40,0,0,359,3082,-122,342,,,,,,,,,,,,
623503,1560691895322,-1,2.11,2.41,3.23,1.86,5.04,0.97,0.02,0.34,1,-5,5,0.97,6456,12,91,33,30,903,361.0,463,461,60,117.0,116,1,283,166,40,0,0,354,3082,-12032,338,,,,,,,,,,,,
623523,1560691895342,2,2.1,2.41,3.34,1.87,5.03,0.97,-0.03,0.46,-1,-8,1,0.97,6427,12,91,33,30,903,362.0,467,460,60,118.0,116,1,283,167,40,0,0,355,2790,4838,337,,,,,,,,,,,,
623543,1560691895362,4,2.08,2.44,3.39,1.89,5.04,0.87,0.09,0.42,-3,-6,-2,0.87,6384,12,91,33,31,903,362.0,463,458,60,119.0,116,1,286,167,40,0,0,354,2790,4838,337,45.698875,4.909089,35.4,190.8,5,1.8283,0,0.0,1.2333,6,0.85,10.3924
623563,1560691895382,0,2.06,2.48,3.4,1.89,5.04,0.87,0.2,0.36,-6,-5,-4,0.9,6360,12,91,33,32,902,362.0,463,460,60,118.0,116,1,290,169,40,0,0,348,2790,-20736,334,,,,,,,,,,,,
623583,1560691895400,1,2.04,2.51,3.3,1.87,5.07,0.94,0.2,0.34,-7,-3,-7,0.96,6304,13,91,33,33,899,361.0,464,462,60,117.0,120,1,292,174,40,0,0,350,-6458,170,335,,,,,,,,,,,,
623603,1560691895420,-0,2.03,2.51,3.21,1.86,5.04,1.0,0.21,0.37,-9,-3,-10,1.02,6315,13,91,33,33,899,359.0,463,456,60,118.0,120,1,292,174,40,0,0,357,-6458,-25856,332,,,,,,,,,,,,
623623,1560691895440,3,2.03,2.51,3.19,1.86,5.04,1.01,0.28,0.43,-10,-2,-13,1.05,6311,14,91,33,34,901,360.0,460,455,60,118.0,120,1,295,179,40,0,0,355,-29302,155,329,,,,,,,,,,,,
623643,1560691895460,4,2.01,2.5,3.14,1.85,5.04,0.94,0.41,0.44,-12,-1,-14,1.03,6306,15,91,33,35,901,357.0,465,457,60,117.0,120,1,298,185,40,0,0,353,-14707,150,327,45.698879,4.909081,34.24,190.8,5,1.8283,0,0.0,1.235,6,0.85,10.394
623663,1560691895480,1,2.01,2.45,3.1,1.83,5.07,0.91,0.51,0.39,-13,-0,-15,1.04,6273,18,91,33,35,901,357.0,465,457,60,117.0,120,1,298,185,40,0,0,350,-29978,-25856,326,,,,,,,,,,,,
623683,1560691895500,1,2.02,2.44,3.06,1.81,5.05,0.97,0.41,0.41,-15,-1,-16,1.05,6273,18,91,33,36,901,356.0,470,461,60,117.0,135,1,301,190,44,0,0,353,-6640,145,324,,,,,,,,,,,,
623703,1560691895520,1,2.02,2.42,3.06,1.81,5.08,1.0,0.32,0.51,-16,-2,-18,1.05,6300,20,91,33,38,903,357.0,468,456,60,118.0,135,1,307,202,44,0,0,352,-6640,135,323,,,,,,,,,,,,
623723,1560691895540,3,2.01,2.42,3.05,1.82,5.04,0.96,0.38,0.54,-17,-1,-20,1.03,6306,21,91,33,40,904,358.0,463,453,60,119.0,135,1,316,208,44,0,0,351,-29978,-28416,321,,,,,,,,,,,,
623743,1560691895560,5,2.01,2.42,3.06,1.83,5.05,0.88,0.54,0.49,-18,-0,-20,1.04,6319,21,91,33,41,905,355.0,458,455,60,118.0,135,1,323,210,44,0,0,353,2060,-30976,321,45.698887,4.909073,33.8,190.8,5,1.8283,0,0.0,1.2367,6,0.85,10.3957
623763,1560691895580,-1,2.01,2.42,3.05,1.84,5.05,0.91,0.6,0.41,-18,1,-22,1.09,6334,22,91,33,43,903,354.0,457,463,60,117.0,135,1,336,213,44,0,0,352,2060,-29696,320,,,,,,,,,,,,
623783,1560691895602,-0,2.02,2.4,3.04,1.83,5.04,1.02,0.52,0.39,-20,-1,-24,1.14,6375,22,91,33,45,902,355.0,463,465,60,117.0,158,1,343,214,51,0,0,352,2060,-28416,320,,,,,,,,,,,,
623803,1560691895622,3,2.01,2.39,3.05,1.84,5.07,1.02,0.48,0.41,-21,-1,-26,1.13,6399,22,91,33,46,901,355.0,463,460,60,118.0,158,1,349,216,51,0,0,351,2060,140,320,,,,,,,,,,,,
623823,1560691895642,1,2.03,2.37,3.03,1.83,5.04,0.93,0.58,0.38,-21,3,-28,1.09,6421,22,91,33,46,901,355.0,461,455,60,118.0,158,1,356,217,51,0,0,352,3302,130,319,,,,,,,,,,,,
623843,1560691895662,-1,2.03,2.37,3.02,1.85,5.04,0.9,0.68,0.33,-21,5,-30,1.12,6381,23,91,33,47,889,353.0,465,461,60,117.0,158,1,364,220,51,0,0,350,3302,135,320,45.698894,4.909065,31.96,190.8,5,1.8283,0,0.0,1.2383,6,0.86,10.3974
623863,1560691895682,3,2.02,2.38,3.01,1.88,5.04,0.99,0.52,0.42,-22,1,-31,1.12,6397,23,91,33,48,885,351.0,466,457,60,119.0,166,1,363,219,51,0,0,351,-6644,-28416,318,,,,,,,,,,,,
623883,1560691895702,2,2.03,2.37,3.0,1.88,5.07,1.03,0.46,0.56,-23,-3,-31,1.13,6392,23,91,33,48,885,351.0,466,457,60,119.0,166,1,366,224,53,0,0,348,28553,-29696,318,,,,,,,,,,,,
623903,1560691895722,1,2.03,2.36,3.01,1.87,5.07,0.93,0.56,0.55,-23,-2,-30,1.09,6438,23,91,33,49,880,350.0,463,457,60,118.0,166,1,369,224,53,0,0,347,2811,-30976,318,,,,,,,,,,,,
623923,1560691895742,0,2.02,2.37,3.0,1.86,5.05,0.95,0.55,0.51,-23,1,-30,1.1,6463,23,91,33,49,881,350.0,466,455,60,118.0,166,1,370,230,53,0,0,345,-30454,140,318,,,,,,,,,,,,
623943,1560691895762,3,2.03,2.36,3.0,1.84,5.06,1.04,0.48,0.55,-23,1,-31,1.14,6474,24,91,33,50,885,351.0,466,455,60,118.0,166,1,370,230,53,0,0,346,-30454,-28416,318,45.698898,4.909056,31.98,190.8,5,1.8283,0,0.0,1.24,6,0.86,10.399
623963,1560691895782,1,2.03,2.36,3.0,1.84,5.06,1.0,0.54,0.56,-23,3,-30,1.14,6481,24,91,33,50,885,351.0,466,453,60,119.0,166,1,373,236,53,0,0,347,28553,145,317,,,,,,,,,,,,
623983,1560691895801,-2,2.04,2.36,2.99,1.84,5.06,0.97,0.56,0.52,-23,5,-29,1.12,6481,24,91,33,50,893,349.0,466,465,60,117.0,179,1,373,236,57,0,0,345,2811,135,315,,,,,,,,,,,,
624003,1560691895821,3,2.03,2.37,3.01,1.85,5.05,0.98,0.42,0.59,-23,3,-28,1.07,6496,24,91,33,51,940,348.0,469,451,60,119.0,179,1,376,241,57,0,0,345,-1246,-30976,315,,,,,,,,,,,,
624023,1560691895841,0,2.04,2.37,3.05,1.86,5.04,0.98,0.54,0.63,-24,2,-28,1.12,6447,24,91,33,52,969,347.0,463,462,60,118.0,179,1,379,241,57,0,0,345,8841,-28416,316,,,,,,,,,,,,
624043,1560691895861,-1,2.04,2.42,3.09,1.86,5.04,0.98,0.49,0.63,-24,2,-27,1.1,6368,25,91,33,52,994,349.0,459,465,60,118.0,179,1,379,246,57,0,0,347,8841,155,315,45.698902,4.909047,32.1,190.7,5,1.8283,0,0.0,1.2417,6,0.86,10.4007
624063,1560691895881,0,2.05,2.47,3.1,1.86,5.04,0.94,0.51,0.67,-24,1,-29,1.07,6294,25,91,33,53,1026,351.0,454,456,60,119.0,186,1,379,246,57,0,0,346,2811,175,317,,,,,,,,,,,,
624083,1560691895901,2,2.05,2.5,3.09,1.85,5.07,0.85,0.54,0.67,-24,1,-31,1.01,6229,25,91,33,53,1026,351.0,454,456,60,119.0,186,1,381,252,59,0,0,347,28553,13,317,,,,,,,,,,,,
624103,1560691895921,3,2.07,2.5,3.06,1.85,5.04,0.74,0.61,0.62,-23,3,-32,0.96,6239,25,91,33,53,1081,350.0,449,453,60,119.0,186,1,381,252,59,0,0,349,-30454,165,318,,,,,,,,,,,,
624123,1560691895941,3,2.1,2.47,3.04,1.83,5.05,0.72,0.71,0.57,-22,5,-32,1.01,6287,25,91,33,54,1113,350.0,445,453,60,118.0,186,1,385,258,59,0,0,348,-30454,155,319,,,,,,,,,,,,
624143,1560691895961,-1,2.11,2.44,3.04,1.83,5.04,0.81,0.64,0.61,-21,7,-32,1.03,6304,25,91,33,55,1143,349.0,448,458,60,117.0,186,1,385,258,59,0,0,349,-30454,-23296,322,45.69891,4.909037,31.61,190.7,5,1.8283,0,0.0,1.2433,6,0.86,10.4024
624163,1560691895981,-0,2.13,2.42,3.05,1.85,5.05,0.93,0.4,0.71,-21,5,-32,1.01,6328,25,91,33,55,1166,349.0,448,455,60,118.0,192,1,386,258,59,0,0,347,2811,155,323,,,,,,,,,,,,
624183,1560691895995,1,2.16,2.41,3.09,1.88,5.04,0.94,0.32,0.78,-21,0,-32,0.99,6323,26,91,33,55,1166,349.0,448,455,60,118.0,192,1,386,258,62,0,0,346,2811,-12032,323,,,,,,,,,,,,
624203,1560691896015,4,2.19,2.41,3.12,1.91,5.05,0.84,0.31,0.71,-21,-2,-31,0.89,6334,26,91,33,55,1188,347.0,447,456,60,119.0,192,1,386,258,62,0,0,347,-1246,-20736,326,,,,,,,,,,,,
624223,1560691896035,-0,2.22,2.4,3.12,1.97,5.04,0.76,0.38,0.58,-19,0,-29,0.85,6330,26,91,33,55,1191,346.0,448,456,60,117.0,192,1,387,258,62,0,0,348,-30438,-32559,327,,,,,,,,,,,,
624243,1560691896055,-2,2.26,2.38,3.13,2.03,5.06,0.81,0.33,0.53,-17,2,-26,0.87,6355,26,91,33,56,1194,342.0,451,458,60,117.0,192,1,388,260,62,0,0,347,-30438,3346,329,45.698914,4.909027,31.65,190.7,5,1.8283,0,0.0,1.245,6,0.86,10.404
624263,1560691896075,1,2.3,2.35,3.14,2.09,5.08,0.84,0.22,0.56,-15,1,-24,0.87,6375,26,91,33,56,1198,341.0,452,455,60,117.0,185,1,389,260,62,0,0,344,-31206,4838,333,,,,,,,,,,,,
624283,1560691896097,4,2.32,2.32,3.14,2.15,5.04,0.87,0.16,0.63,-13,2,-24,0.88,6368,26,91,33,56,1198,339.0,451,456,60,118.0,185,1,389,260,62,0,0,341,3327,3327,335,,,,,,,,,,,,
624303,1560691896117,-1,2.35,2.27,3.14,2.16,5.05,0.87,0.11,0.57,-11,2,-22,0.87,6423,26,91,33,56,1195,342.0,453,457,60,117.0,185,1,389,261,62,0,0,341,2560,-122,338,,,,,,,,,,,,
624323,1560691896137,0,2.38,2.23,3.15,2.22,5.03,0.87,0.02,0.59,-9,1,-18,0.87,6408,27,91,33,56,1189,345.0,452,458,60,117.0,185,1,389,260,62,0,0,337,3346,-14714,342,,,,,,,,,,,,
624343,1560691896157,2,2.42,2.2,3.19,2.26,5.05,0.79,-0.1,0.62,-7,1,-15,0.8,6408,27,91,33,56,1185,346.0,453,450,60,118.0,185,1,389,260,62,0,0,337,4838,6870,345,45.698917,4.909017,31.34,190.7,5,1.8283,0,0.0,1.2467,6,0.86,10.4057
624363,1560691896177,2,2.45,2.16,3.23,2.28,5.06,0.82,-0.11,0.66,-4,1,-11,0.82,6408,27,91,33,56,1185,346.0,453,450,60,118.0,185,1,389,260,62,0,0,337,-6528,6870,345,,,,,,,,,,,,
624383,1560691896201,1,2.48,2.15,3.27,2.35,5.07,0.8,-0.15,0.57,-3,2,-7,0.81,6386,27,91,33,57,1178,350.0,453,465,60,118.0,181,1,391,261,63,0,0,336,-32559,-1246,349,,,,,,,,,,,,
624403,1560691896221,2,2.51,2.15,3.3,2.4,5.07,0.8,-0.24,0.55,-1,1,-2,0.84,6405,27,91,33,57,1175,351.0,453,464,60,117.0,181,1,391,262,63,0,0,339,175,2811,350,,,,,,,,,,,,
624423,1560691896241,2,2.55,2.15,3.37,2.44,5.04,0.65,-0.28,0.54,2,2,2,0.7,6405,27,91,33,57,1175,351.0,453,464,60,117.0,181,1,391,262,63,0,0,336,-20736,-30454,351,,,,,,,,,,,,
624443,1560691896261,3,2.58,2.16,3.41,2.47,5.05,0.65,-0.28,0.51,4,4,6,0.71,6425,28,91,33,58,1175,353.0,454,448,60,119.0,181,1,393,262,63,0,0,337,165,8841,353,45.698917,4.909007,32.49,190.7,5,1.8283,0,0.0,1.2483,6,0.86,10.4074
624463,1560691896281,-0,2.6,2.15,3.42,2.47,5.04,0.69,-0.33,0.51,5,4,8,0.77,6412,28,91,33,58,1177,354.0,457,453,60,118.0,181,1,392,263,63,0,0,336,165,-30454,354,,,,,,,,,,,,
624483,1560691896301,2,2.63,2.13,3.46,2.48,5.04,0.75,-0.41,0.6,7,-0,10,0.86,6421,28,91,33,58,1178,354.0,458,458,60,117.0,177,1,393,264,63,0,0,336,-24576,-29978,354,,,,,,,,,,,,
624503,1560691896321,3,2.63,2.11,3.53,2.47,5.08,0.67,-0.43,0.64,10,-2,11,0.8,6481,30,91,33,58,1187,358.0,460,457,60,119.0,177,1,394,266,63,0,0,334,155,-6644,358,,,,,,,,,,,,
624523,1560691896341,0,2.62,2.11,3.54,2.48,5.04,0.63,-0.42,0.58,12,-3,12,0.76,6494,31,91,33,60,1190,360.0,463,458,60,118.0,177,1,400,268,63,0,0,335,155,-29978,358,,,,,,,,,,,,
624543,1560691896361,-0,2.64,2.09,3.55,2.46,5.06,0.68,-0.52,0.56,13,-5,14,0.86,6528,33,91,33,60,1192,362.0,463,453,60,118.0,177,1,400,271,63,0,0,336,-27136,3302,360,45.698921,4.908997,32.94,190.7,5,1.8283,0,0.0,1.25,6,0.86,10.409
624563,1560691896381,3,2.64,2.09,3.6,2.45,5.07,0.65,-0.51,0.61,16,-7,14,0.82,6539,34,91,33,61,1195,363.0,462,461,60,118.0,185,1,404,274,67,0,0,339,-25856,-29978,362,,,,,,,,,,,,
624583,1560691896401,-0,2.62,2.07,3.63,2.43,5.04,0.67,-0.55,0.59,17,-8,14,0.87,6578,35,91,33,63,1198,365.0,467,461,60,118.0,185,1,404,274,67,0,0,347,-25856,-29978,363,,,,,,,,,,,,
624603,1560691896421,2,2.63,2.08,3.65,2.45,5.04,0.66,-0.69,0.58,19,-9,16,0.96,6604,36,91,33,63,1199,366.0,465,456,60,119.0,185,1,397,287,67,0,0,353,-25856,-29978,365,,,,,,,,,,,,
624623,1560691896441,1,2.64,2.1,3.64,2.46,5.05,0.65,-0.6,0.52,20,-7,18,0.88,6715,37,91,33,64,1197,364.0,467,458,60,117.0,185,1,399,298,67,0,0,354,-27136,-29978,366,,,,,,,,,,,,
624643,1560691896461,3,2.64,2.11,3.62,2.46,5.05,0.66,-0.63,0.53,21,-9,21,0.91,6759,37,91,33,65,1197,364.0,471,455,60,118.0,185,1,396,305,67,0,0,333,145,-29978,364,45.698929,4.908987,33.44,190.7,5,1.8283,0,0.0,1.2517,6,0.86,10.4107
624663,1560691896481,0,2.65,2.09,3.6,2.46,5.08,0.56,-0.6,0.46,23,-5,24,0.82,6764,37,91,33,65,1197,365.0,472,457,60,117.0,214,1,396,305,67,0,0,338,-28416,-14707,364,,,,,,,,,,,,
624683,1560691896501,3,2.65,2.09,3.58,2.48,5.07,0.69,-0.68,0.57,23,-6,27,0.97,6798,38,91,33,65,1197,365.0,472,457,60,117.0,214,1,396,306,78,0,0,351,-25856,2790,365,,,,,,,,,,,,
624703,1560691896521,-2,2.66,2.09,3.55,2.5,5.06,0.63,-0.7,0.58,24,-3,31,0.94,6911,38,91,33,66,1196,365.0,474,457,60,118.0,214,1,394,311,78,0,0,375,155,3082,365,,,,,,,,,,,,
624723,1560691896541,4,2.65,2.1,3.53,2.49,5.05,0.72,-0.71,0.68,25,-6,32,1.01,7011,38,91,33,66,1202,366.0,481,456,60,117.0,214,1,398,314,78,0,0,380,-27136,2790,366,,,,,,,,,,,,
624743,1560691896561,1,2.66,2.09,3.5,2.49,5.06,0.65,-0.7,0.69,26,-5,32,0.96,6975,38,91,33,66,1207,367.0,486,460,60,118.0,214,1,402,318,78,0,0,357,150,0,366,45.698933,4.908977,33.78,190.7,5,1.8283,0,0.0,1.2533,6,0.86,10.4124
624763,1560691896581,-1,2.64,2.07,3.52,2.49,5.08,0.66,-0.69,0.75,27,-6,33,0.96,6967,39,91,33,67,1214,372.0,483,457,60,117.0,214,1,400,317,78,0,0,352,-23296,-6656,367,,,,,,,,,,,,
624783,1560691896601,2,2.64,2.07,3.52,2.5,5.06,0.75,-0.76,0.81,27,-7,35,1.07,6967,39,91,33,67,1214,372.0,483,457,60,117.0,224,1,395,321,83,0,0,398,165,257,372,,,,,,,,,,,,
624803,1560691896621,3,2.63,2.07,3.53,2.48,5.06,0.75,-0.81,0.82,28,-6,35,1.11,7011,39,91,33,67,1222,376.0,483,457,60,118.0,224,1,402,318,83,0,0,411,-22016,742,376,,,,,,,,,,,,
624823,1560691896641,2,2.63,2.07,3.55,2.49,5.03,0.65,-0.82,0.73,29,-6,37,1.05,7134,39,91,33,66,1212,377.0,495,456,60,118.0,224,1,407,327,83,0,0,375,165,1,377,,,,,,,,,,,,
624843,1560691896661,-1,2.62,2.08,3.57,2.46,5.05,0.71,-0.83,0.72,30,-7,38,1.09,7250,39,91,33,66,1197,378.0,496,456,60,118.0,224,1,413,331,83,0,0,359,175,-18948,378,45.698936,4.908968,33.9,190.8,5,1.8283,0,0.0,1.255,6,0.86,10.4141
624863,1560691896681,4,2.63,2.08,3.58,2.47,5.06,0.7,-0.82,0.77,31,-6,38,1.08,7225,39,91,33,66,1176,383.0,498,461,60,116.0,224,1,412,325,83,0,0,381,-6528,-18948,383,,,,,,,,,,,,
624883,1560691896701,4,2.62,2.08,3.59,2.49,5.05,0.72,-0.87,0.8,32,-4,39,1.13,7335,40,91,33,66,1132,386.0,493,457,60,118.0,232,1,417,328,89,0,0,419,3346,-31744,384,,,,,,,,,,,,
624903,1560691896721,3,2.63,2.09,3.56,2.53,5.04,0.74,-0.92,0.79,32,-3,40,1.18,7431,40,91,33,66,1099,387.0,507,458,60,118.0,232,1,417,328,89,0,0,417,4838,-1562,387,,,,,,,,,,,,
624923,1560691896741,3,2.64,2.14,3.53,2.57,5.07,0.64,-0.87,0.71,32,-3,40,1.08,7455,40,91,33,65,1072,387.0,503,459,60,118.0,232,1,422,325,89,0,0,364,-6528,505,387,,,,,,,,,,,,
624943,1560691896761,4,2.63,2.16,3.52,2.56,5.05,0.56,-0.91,0.72,33,-2,40,1.06,7347,40,91,33,65,1061,388.0,508,459,60,118.0,232,1,426,326,89,0,0,376,13,-31744,387,45.698944,4.908959,33.66,190.8,5,1.8283,0,0.0,1.2567,6,0.87,10.4157
624963,1560691896781,1,2.64,2.16,3.5,2.56,5.06,0.57,-0.93,0.76,33,-4,40,1.09,7318,40,91,33,65,1061,388.0,508,452,60,118.0,232,1,421,322,89,0,0,400,-14714,28696,390,,,,,,,,,,,,
624983,1560691896802,2,2.62,2.17,3.49,2.59,5.05,0.46,-0.89,0.68,33,-3,41,1.0,7327,40,91,33,65,1027,392.0,507,455,60,117.0,227,1,420,322,89,0,0,410,6668,6384,393,,,,,,,,,,,,
625003,1560691896822,2,2.61,2.16,3.48,2.57,5.05,0.44,-0.89,0.62,32,-4,41,1.0,7411,40,91,33,65,1009,393.0,500,458,60,118.0,227,1,424,325,89,0,0,409,-30438,-1818,394,,,,,,,,,,,,
625023,1560691896842,1,2.6,2.13,3.48,2.57,5.04,0.58,-0.92,0.69,32,-6,41,1.09,7381,40,91,33,65,1000,396.0,513,455,60,118.0,227,1,423,324,89,0,0,372,8841,-3968,395,,,,,,,,,,,,
625043,1560691896862,-1,2.58,2.13,3.48,2.55,5.04,0.64,-0.93,0.79,31,-7,41,1.12,7384,40,91,33,65,989,399.0,513,456,60,117.0,227,1,423,323,89,0,0,381,-6644,28696,397,45.698952,4.908951,34.79,191.0,5,1.8283,0,0.0,1.2583,6,0.87,10.4174
625063,1560691896882,2,2.56,2.12,3.55,2.54,5.07,0.77,-0.99,0.84,31,-7,41,1.26,7446,40,91,33,65,969,405.0,512,456,60,117.0,227,1,423,323,89,0,0,410,-6640,11545,399,,,,,,,,,,,,
625083,1560691896902,-1,2.55,2.12,3.62,2.52,5.07,0.9,-1.06,0.9,30,-8,40,1.39,7712,40,91,33,65,959,406.0,523,463,60,117.0,226,1,437,331,91,0,0,449,-29978,-9211,405,,,,,,,,,,,,
625103,1560691896922,4,2.54,2.12,3.59,2.51,5.04,0.95,-1.05,0.89,30,-8,41,1.41,7908,41,91,33,64,952,404.0,533,462,60,117.0,226,1,446,330,91,0,0,428,-29302,-3968,406,,,,,,,,,,,,
625123,1560691896942,2,2.54,2.13,3.58,2.5,5.06,0.92,-1.06,0.84,30,-8,41,1.4,7988,41,91,33,62,946,407.0,546,458,60,118.0,226,1,449,323,91,0,0,375,3082,-26615,404,,,,,,,,,,,,
625143,1560691896962,-1,2.53,2.14,3.57,2.51,5.04,0.95,-1.02,0.89,30,-7,41,1.39,7951,41,91,33,61,943,409.0,548,458,60,118.0,226,1,449,323,91,0,0,407,-6405,-9166,407,45.698956,4.908944,34.77,191.0,5,1.8283,0,0.0,1.26,6,0.87,10.4191
625163,1560691896982,1,2.52,2.16,3.48,2.53,5.04,0.91,-0.89,0.91,29,-6,42,1.27,7951,41,91,33,61,943,409.0,548,454,60,118.0,226,1,449,306,91,0,0,457,230,-26615,409,,,,,,,,,,,,
625183,1560691896994,4,2.53,2.17,3.44,2.53,5.07,0.88,-0.86,0.84,29,-6,42,1.23,7975,41,91,33,61,944,413.0,550,457,60,118.0,223,1,449,306,92,0,0,427,0,7154,412,,,,,,,,,,,,
625203,1560691897014,1,2.52,2.19,3.44,2.53,5.06,0.82,-0.81,0.85,28,-5,42,1.15,7851,41,91,33,60,948,415.0,541,457,60,118.0,223,1,449,306,92,0,0,398,-6656,-4082,413,,,,,,,,,,,,
625223,1560691897034,-0,2.51,2.18,3.42,2.54,5.04,0.79,-0.86,0.92,28,-4,41,1.17,7851,41,91,33,60,948,415.0,541,457,60,118.0,223,1,438,299,92,0,0,411,3,3826,415,,,,,,,,,,,,
625243,1560691897054,-0,2.5,2.17,3.39,2.53,5.07,0.91,-0.84,0.99,26,-5,40,1.24,7716,41,91,33,61,932,419.0,525,459,60,117.0,223,1,442,304,92,0,0,427,-18948,-4082,419,45.698963,4.908937,35.72,191.0,5,1.8283,0,0.0,1.2617,6,0.87,10.4207
625263,1560691897074,1,2.49,2.18,3.38,2.51,5.04,0.97,-0.86,1.03,26,-4,39,1.29,7684,41,91,33,62,906,423.0,519,457,60,117.0,208,1,440,317,88,0,0,417,-31744,7154,422,,,,,,,,,,,,
625283,1560691897096,4,2.47,2.17,3.39,2.49,5.04,0.94,-0.85,0.91,25,-5,38,1.26,7776,41,91,33,62,889,424.0,524,457,60,118.0,208,1,440,317,88,0,0,410,505,31796,425,,,,,,,,,,,,
625303,1560691897116,5,2.45,2.17,3.4,2.48,5.07,0.81,-0.79,0.77,24,-5,37,1.13,7845,41,91,33,62,861,424.0,529,457,60,118.0,208,1,443,319,88,0,0,414,-6656,13552,424,,,,,,,,,,,,
625323,1560691897136,-1,2.44,2.19,3.4,2.47,5.05,0.66,-0.67,0.71,24,-4,36,0.94,8005,41,91,33,62,861,424.0,529,455,60,118.0,208,1,445,312,88,0,0,425,-32702,-8165,424,,,,,,,,,,,,
625343,1560691897156,3,2.42,2.21,3.4,2.46,5.07,0.6,-0.56,0.71,23,-3,35,0.82,8148,42,91,33,62,839,426.0,535,461,60,117.0,208,1,450,315,88,0,0,419,6384,13552,427,45.698975,4.908932,37.75,191.1,5,1.8283,0,0.0,1.2633,6,0.87,10.4224
625363,1560691897176,-1,2.4,2.26,3.4,2.45,5.06,0.61,-0.52,0.7,23,-2,33,0.81,8194,42,91,33,59,829,428.0,556,453,60,118.0,224,1,432,304,96,0,0,431,10541,13180,426,,,,,,,,,,,,
625383,1560691897202,2,2.38,2.3,3.35,2.46,5.06,0.56,-0.5,0.76,22,-2,32,0.75,8263,42,91,33,59,829,428.0,556,453,60,118.0,224,1,432,304,96,0,0,438,-9211,1779,428,,,,,,,,,,,,
625403,1560691897222,1,2.35,2.33,3.29,2.45,5.04,0.6,-0.46,0.76,20,-3,32,0.76,8274,42,91,33,57,841,432.0,558,454,60,118.0,224,1,414,301,96,0,0,434,10392,-7939,431,,,,,,,,,,,,
625423,1560691897242,3,2.33,2.36,3.27,2.46,5.03,0.58,-0.41,0.76,19,-2,31,0.71,8227,42,91,32,57,851,431.0,563,456,60,118.0,224,1,415,292,96,0,0,437,2524,-28332,432,,,,,,,,,,,,
625443,1560691897262,4,2.3,2.41,3.24,2.45,5.04,0.59,-0.29,0.72,17,-2,29,0.66,8177,42,91,32,57,866,433.0,562,456,60,118.0,224,1,415,292,96,0,0,446,7154,23400,431,45.698982,4.908926,37.84,191.1,5,1.8283,0,0.0,1.265,6,0.87,10.4241
625463,1560691897282,3,2.29,2.42,3.21,2.43,5.07,0.62,-0.33,0.83,15,-4,26,0.7,8177,42,91,32,57,866,433.0,562,455,60,117.0,224,1,415,290,96,0,0,442,-3414,2131,434,,,,,,,,,,,,
625483,1560691897300,3,2.28,2.46,3.21,2.41,5.07,0.62,-0.27,0.77,14,-4,25,0.67,8205,42,91,32,57,906,434.0,561,461,60,118.0,208,1,415,289,90,0,0,442,-3314,23400,434,,,,,,,,,,,,
625503,1560691897320,-0,2.27,2.48,3.22,2.37,5.06,0.65,-0.38,0.86,12,-4,22,0.75,8205,42,91,32,57,906,434.0,561,457,60,118.0,208,1,415,291,90,0,0,444,-768,26704,434,,,,,,,,,,,,
625523,1560691897340,5,2.25,2.49,3.21,2.34,5.06,0.62,-0.33,0.76,11,-4,19,0.7,8325,43,91,32,56,932,439.0,567,455,60,118.0,208,1,406,295,90,0,0,446,5600,15649,436,,,,,,,,,,,,
625543,1560691897360,3,2.24,2.51,3.22,2.33,5.06,0.64,-0.33,0.79,9,-5,17,0.72,8426,43,91,32,56,946,442.0,575,455,60,118.0,208,1,406,295,90,0,0,451,20625,-18341,437,45.698994,4.908923,39.27,191.1,5,1.8283,0,0.0,1.2667,6,0.87,10.4257
625563,1560691897380,-1,2.23,2.51,3.22,2.3,5.06,0.66,-0.27,0.79,8,-5,15,0.71,8426,43,91,32,56,946,442.0,575,455,60,117.0,208,1,406,291,90,0,0,453,23400,-6387,439,,,,,,,,,,,,
625583,1560691897402,4,2.22,2.53,3.22,2.3,5.04,0.57,-0.15,0.76,7,-3,13,0.59,8596,43,91,32,55,972,449.0,591,452,60,118.0,214,1,405,294,94,0,0,457,10305,2524,440,,,,,,,,,,,,
625603,1560691897422,5,2.21,2.55,3.2,2.29,5.06,0.56,-0.15,0.74,5,-2,11,0.58,8624,43,91,32,55,972,449.0,591,452,60,118.0,214,1,397,288,94,0,0,456,15649,14488,441,,,,,,,,,,,,
625623,1560691897442,2,2.2,2.54,3.17,2.27,5.04,0.64,-0.15,0.77,4,-3,9,0.66,8620,43,91,32,53,983,456.0,595,451,60,117.0,214,1,388,273,94,0,0,457,-3267,2524,442,,,,,,,,,,,,
625643,1560691897462,-1,2.2,2.54,3.12,2.23,5.05,0.69,-0.1,0.77,2,-3,8,0.69,8593,43,91,32,53,992,457.0,600,458,60,117.0,214,1,388,280,94,0,0,464,14488,2524,445,45.699001,4.908917,41.07,191.2,5,1.8283,0,0.0,1.2683,6,0.87,10.4274
625663,1560691897482,3,2.2,2.53,3.07,2.22,5.04,0.51,0.05,0.7,2,-2,7,0.51,8593,43,91,32,53,992,457.0,600,458,60,117.0,214,1,388,280,94,0,0,469,-23623,30272,448,,,,,,,,,,,,
625683,1560691897502,3,2.19,2.53,3.07,2.2,5.06,0.53,0.05,0.77,1,-4,5,0.53,8644,43,91,32,53,1003,464.0,595,459,60,118.0,200,1,388,274,90,0,0,470,6193,6193,450,,,,,,,,,,,,
625703,1560691897522,2,2.18,2.52,3.07,2.19,5.07,0.68,-0.01,0.82,-1,-5,3,0.68,8644,43,91,32,53,1003,464.0,595,453,60,118.0,200,1,388,275,90,0,0,466,16408,30272,451,,,,,,,,,,,,
625723,1560691897542,1,2.18,2.51,3.05,2.17,5.04,0.73,0.03,0.79,-1,-4,1,0.73,8741,43,91,32,53,1036,467.0,591,453,60,117.0,200,1,390,278,90,0,0,471,-3210,243,453,,,,,,,,,,,,
625743,1560691897562,0,2.19,2.5,3.08,2.18,5.08,0.67,0.23,0.69,-2,-3,1,0.71,8831,43,91,32,53,1036,467.0,591,453,60,117.0,200,1,390,278,90,0,0,467,243,-16384,453,45.699013,4.908912,42.28,191.3,5,1.8283,0,0.0,1.27,6,0.87,10.4291
625763,1560691897582,4,2.18,2.49,3.07,2.18,5.03,0.45,0.4,0.63,-3,-2,1,0.61,8882,43,91,32,53,1069,471.0,590,456,60,118.0,203,1,393,283,93,0,0,472,8488,243,456,,,,,,,,,,,,
625783,1560691897602,4,2.19,2.5,3.05,2.18,5.05,0.32,0.51,0.55,-3,1,-0,0.6,8882,43,91,32,53,1069,471.0,590,456,60,118.0,203,1,393,283,93,0,0,474,32033,-16384,457,,,,,,,,,,,,
625803,1560691897622,5,2.18,2.51,3.04,2.18,5.07,0.25,0.49,0.58,-3,0,-1,0.55,8954,42,91,32,51,1111,473.0,601,457,60,118.0,203,1,386,268,93,0,0,478,8488,-16384,457,,,,,,,,,,,,
625823,1560691897642,5,2.17,2.51,3.05,2.18,5.04,0.25,0.4,0.62,-4,1,-3,0.47,8949,41,91,32,51,1111,473.0,601,457,60,118.0,203,1,386,268,93,0,0,474,3576,3576,459,,,,,,,,,,,,
625843,1560691897662,4,2.17,2.51,3.05,2.17,5.07,0.31,0.33,0.7,-5,1,-5,0.45,8941,40,91,32,50,1136,475.0,616,463,60,118.0,203,1,382,259,93,0,0,479,3576,8488,461,45.69902,4.908906,43.86,191.3,5,1.8283,0,0.0,1.2717,6,0.87,10.4307
625863,1560691897682,3,2.18,2.52,3.05,2.17,5.08,0.48,0.09,0.77,-5,-1,-7,0.48,8945,39,91,32,49,1147,477.0,616,463,60,118.0,203,1,382,259,93,0,0,480,16648,8488,462,,,,,,,,,,,,
625883,1560691897702,4,2.18,2.52,3.06,2.16,5.03,0.63,-0.04,0.89,-6,-1,-8,0.63,8967,37,91,32,48,1155,482.0,615,452,60,117.0,181,1,374,241,84,0,0,484,8488,8488,464,,,,,,,,,,,,
625903,1560691897722,3,2.17,2.52,3.05,2.16,5.04,0.77,-0.23,1.0,-7,-4,-10,0.8,8992,36,91,32,46,1164,480.0,608,460,60,118.0,181,1,363,229,84,0,0,482,-899,3580,464,,,,,,,,,,,,
625923,1560691897742,3,2.17,2.52,3.07,2.14,5.03,0.89,-0.31,1.09,-8,-3,-11,0.95,9027,35,91,32,46,1164,480.0,608,460,60,118.0,181,1,363,229,84,0,0,485,8488,10305,465,,,,,,,,,,,,
625943,1560691897762,2,2.18,2.5,3.08,2.12,5.06,1.01,-0.48,1.17,-9,-5,-13,1.12,9066,35,91,32,45,1171,485.0,611,450,60,118.0,181,1,358,228,84,0,0,485,-10483,1,467,45.699036,4.908901,44.56,191.3,5,1.8283,0,0.0,1.2733,6,0.88,10.4324
625963,1560691897782,4,2.17,2.49,3.08,2.11,5.04,1.11,-0.57,1.25,-9,-4,-14,1.25,9093,35,91,32,45,1171,485.0,611,450,60,118.0,181,1,358,228,84,0,0,486,-6441,-899,468,,,,,,,,,,,,
625983,1560691897801,3,2.18,2.49,3.09,2.1,5.07,1.18,-0.71,1.3,-10,-4,-15,1.38,9137,35,91,32,43,1176,486.0,610,458,60,118.0,164,1,351,225,77,0,0,487,-1562,1,469,,,,,,,,,,,,
626003,1560691897821,3,2.18,2.5,3.08,2.11,5.04,1.19,-0.71,1.37,-10,-3,-16,1.39,9137,35,91,32,43,1176,486.0,610,458,60,118.0,164,1,346,223,77,0,0,486,-1562,-1562,471,,,,,,,,,,,,
626023,1560691897841,3,2.19,2.49,3.05,2.1,5.07,1.07,-0.63,1.32,-10,-1,-16,1.24,9191,34,91,32,41,1174,489.0,614,460,60,117.0,164,1,333,221,77,0,0,487,1,-899,471,,,,,,,,,,,,
626043,1560691897861,0,2.18,2.49,3.05,2.11,5.04,0.82,-0.4,1.16,-9,2,-15,0.91,9155,34,91,32,41,1174,489.0,614,460,60,117.0,164,1,333,221,77,0,0,493,-6656,-1818,472,45.699043,4.908895,45.83,191.4,5,1.8283,0,0.0,1.275,6,0.88,10.434
626063,1560691897881,-0,2.19,2.47,3.04,2.11,5.06,0.72,-0.16,0.99,-9,2,-15,0.74,9191,34,91,32,41,1161,491.0,621,457,60,117.0,157,1,333,219,75,0,0,491,1,-1818,475,,,,,,,,,,,,
626083,1560691897901,2,2.19,2.46,3.04,2.1,5.03,0.63,0.06,0.93,-9,3,-14,0.63,9146,32,91,32,41,1161,491.0,621,457,60,117.0,157,1,333,219,75,0,0,494,248,-1818,478,,,,,,,,,,,,
626103,1560691897921,2,2.2,2.46,3.05,2.11,5.04,0.72,0.17,0.8,-9,2,-13,0.74,9132,31,91,32,39,1151,491.0,620,462,60,117.0,157,1,320,213,75,0,0,493,-6656,248,477,,,,,,,,,,,,
626123,1560691897941,1,2.21,2.45,3.07,2.11,5.04,0.85,0.1,0.9,-10,0,-13,0.86,9128,30,91,32,38,1129,492.0,618,457,60,118.0,157,1,317,209,75,0,0,491,248,-1818,480,,,,,,,,,,,,
626143,1560691897961,3,2.21,2.45,3.07,2.1,5.05,0.97,0.02,0.91,-10,-0,-14,0.97,9119,29,91,32,38,1129,492.0,618,457,60,118.0,157,1,317,209,75,0,0,490,-32768,505,479,45.699055,4.908888,46.07,191.4,5,1.8283,0,0.0,1.2767,6,0.88,10.4357
626163,1560691897981,3,2.22,2.44,3.08,2.1,5.08,1.07,-0.17,1.01,-9,-2,-15,1.09,9115,27,91,32,36,1089,493.0,620,452,60,118.0,147,1,311,203,71,0,0,496,-6528,-32768,481,,,,,,,,,,,,
626183,1560691897995,2,2.22,2.45,3.09,2.11,5.04,1.14,-0.34,1.11,-9,-2,-16,1.19,9115,27,91,32,36,1089,493.0,620,452,60,118.0,147,1,311,203,71,0,0,493,-6528,-1818,484,,,,,,,,,,,,
626203,1560691898015,4,2.23,2.43,3.1,2.11,5.08,1.11,-0.37,1.12,-9,-3,-15,1.17,9071,23,91,32,33,1047,491.0,617,461,60,118.0,147,1,305,196,71,0,0,495,-6528,-6441,483,,,,,,,,,,,,
626223,1560691898035,3,2.23,2.41,3.11,2.11,5.04,1.05,-0.4,1.15,-8,-1,-14,1.13,9040,22,91,32,33,1047,491.0,617,457,60,118.0,147,1,302,192,71,0,0,494,248,1,482,,,,,,,,,,,,
626243,1560691898055,5,2.25,2.4,3.13,2.1,5.05,0.94,-0.32,1.2,-7,-1,-12,0.99,8967,20,91,32,30,1008,490.0,624,454,60,118.0,147,1,291,188,71,0,0,491,248,-10483,485,45.699066,4.908882,47.17,191.5,5,1.8283,0,0.0,1.2783,6,0.88,10.4374
626263,1560691898075,4,2.24,2.38,3.13,2.08,5.05,0.9,-0.37,1.28,-6,0,-12,0.97,8877,18,91,32,28,997,491.0,617,454,60,118.0,147,1,291,188,71,0,0,489,-1818,-6441,484,,,,,,,,,,,,
626283,1560691898101,4,2.26,2.38,3.13,2.1,5.07,0.88,-0.38,1.31,-6,-1,-11,0.96,8757,16,91,32,27,983,490.0,625,463,60,118.0,132,1,278,188,64,0,0,495,248,32033,485,,,,,,,,,,,,
626303,1560691898121,2,2.26,2.36,3.16,2.1,5.04,0.99,-0.46,1.37,-6,-2,-11,1.09,8632,15,91,32,27,983,490.0,625,463,60,118.0,132,1,278,188,64,0,0,487,-1818,-10483,484,,,,,,,,,,,,
626323,1560691898141,-1,2.26,2.34,3.18,2.1,5.07,1.07,-0.52,1.31,-7,-4,-10,1.19,8526,15,91,32,25,951,488.0,604,458,60,118.0,132,1,270,188,64,0,0,487,1,3580,486,,,,,,,,,,,,
626343,1560691898161,3,2.26,2.33,3.18,2.11,5.04,1.01,-0.39,1.18,-6,-3,-9,1.08,8337,14,91,32,25,940,487.0,586,455,60,118.0,132,1,270,179,64,0,0,486,1,-6441,484,45.699078,4.908875,47.52,191.6,5,1.8283,0,0.0,1.28,6,0.88,10.439
626363,1560691898181,1,2.26,2.32,3.16,2.1,5.06,0.95,-0.29,1.25,-5,-1,-9,1.0,8138,13,91,32,25,940,487.0,586,455,60,118.0,132,1,270,179,64,0,0,488,505,32033,483,,,,,,,,,,,,
626383,1560691898201,3,2.28,2.31,3.17,2.1,5.08,0.91,-0.28,1.13,-5,-2,-8,0.96,8023,12,91,32,24,891,483.0,568,457,60,118.0,107,1,270,157,52,0,0,484,-6441,-1562,482,,,,,,,,,,,,
626403,1560691898221,4,2.27,2.3,3.21,2.08,5.05,0.86,-0.19,0.92,-4,-2,-6,0.88,8071,12,91,32,24,891,483.0,568,457,60,118.0,107,1,270,157,52,0,0,475,3580,8488,482,,,,,,,,,,,,
626423,1560691898241,0,2.28,2.27,3.28,2.08,5.07,0.87,-0.15,0.98,-3,-2,-6,0.89,8071,12,91,32,24,867,480.0,556,458,60,118.0,107,1,270,157,52,0,0,454,8488,17628,478,,,,,,,,,,,,
626443,1560691898261,4,2.29,2.24,3.36,2.06,5.05,0.8,-0.12,0.8,-3,-1,-5,0.81,8159,12,91,32,23,843,472.0,565,457,60,118.0,107,1,270,160,52,0,0,453,-17956,12552,475,45.699085,4.908868,47.58,191.7,5,1.8283,0,0.0,1.2817,6,0.88,10.4407
626463,1560691898281,1,2.28,2.22,3.41,2.06,5.05,0.92,-0.15,0.85,-4,-4,-5,0.93,8223,12,91,31,23,843,472.0,565,457,60,118.0,107,1,270,160,52,0,0,445,-1923,8488,474,,,,,,,,,,,,
626483,1560691898301,2,2.3,2.22,3.42,2.06,5.06,0.88,-0.16,0.71,-3,-2,-3,0.89,8300,12,91,31,22,826,467.0,575,459,60,118.0,108,1,270,162,51,0,0,445,8488,8488,471,,,,,,,,,,,,
626503,1560691898321,1,2.31,2.22,3.42,2.04,5.07,0.96,-0.19,0.76,-3,-3,-4,0.97,8344,12,91,31,22,826,467.0,575,459,60,118.0,108,1,270,162,51,0,0,441,243,16648,467,,,,,,,,,,,,
626523,1560691898341,4,2.3,2.22,3.41,2.04,5.05,0.89,-0.15,0.56,-2,-2,-3,0.9,8344,12,91,31,22,830,463.0,586,458,60,118.0,108,1,270,164,51,0,0,443,6193,26704,463,,,,,,,,,,,,
626543,1560691898361,2,2.3,2.21,3.4,2.04,5.03,0.9,-0.11,0.65,-1,-2,-3,0.91,8322,12,91,31,22,855,459.0,600,460,60,118.0,108,1,270,163,51,0,0,447,-18108,-18341,460,45.699097,4.908861,46.93,191.8,5,1.8283,0,0.0,1.2833,6,0.88,10.4424
626563,1560691898381,0,2.32,2.2,3.42,2.05,5.06,0.91,-0.11,0.47,-0,-2,-3,0.92,8285,12,91,31,22,855,459.0,600,460,60,118.0,108,1,270,163,51,0,0,442,14488,2131,460,,,,,,,,,,,,
626583,1560691898401,3,2.34,2.19,3.42,2.06,5.04,0.92,-0.12,0.56,0,-1,-2,0.93,8281,12,91,31,22,884,454.0,583,461,60,118.0,111,1,270,161,51,0,0,443,-8985,-18341,459,,,,,,,,,,,,
626603,1560691898421,-1,2.35,2.18,3.41,2.06,5.04,0.95,-0.17,0.45,0,-2,-0,0.96,8234,12,91,31,22,884,454.0,583,461,60,118.0,111,1,270,161,51,0,0,440,15649,26704,455,,,,,,,,,,,,
626623,1560691898441,0,2.36,2.16,3.41,2.06,5.05,1.0,-0.25,0.55,1,-2,1,1.03,8234,12,91,31,22,905,453.0,576,455,60,117.0,111,1,270,159,51,0,0,437,21432,23400,453,,,,,,,,,,,,
626643,1560691898461,5,2.36,2.14,3.41,2.06,5.04,0.98,-0.29,0.53,2,-3,2,1.02,8155,12,91,31,21,934,450.0,566,458,60,117.0,111,1,270,153,51,0,0,435,23400,26704,451,45.699108,4.908854,46.06,191.9,5,1.8283,0,0.0,1.285,6,0.88,10.444
626663,1560691898481,1,2.37,2.11,3.4,2.04,5.06,1.03,-0.39,0.54,3,-3,3,1.1,8106,12,91,31,21,934,450.0,566,458,60,117.0,111,1,270,153,51,0,0,432,20625,5600,450,,,,,,,,,,,,
626683,1560691898501,4,2.39,2.09,3.4,2.07,5.04,0.99,-0.4,0.5,4,-3,5,1.07,8029,12,91,31,21,941,449.0,564,458,60,118.0,102,1,270,149,46,0,0,430,19477,19477,449,,,,,,,,,,,,
626703,1560691898521,-1,2.41,2.08,3.44,2.15,5.04,0.96,-0.44,0.48,5,-4,6,1.05,7988,11,91,31,21,941,449.0,564,458,60,118.0,102,1,270,149,46,0,0,429,-768,26704,449,,,,,,,,,,,,
626723,1560691898541,0,2.42,2.06,3.46,2.17,5.07,0.89,-0.53,0.43,7,-4,7,1.03,7988,11,91,31,21,940,445.0,562,458,60,117.0,102,1,269,149,46,0,0,424,13180,-7939,446,,,,,,,,,,,,
626743,1560691898561,3,2.43,2.03,3.48,2.17,5.06,0.9,-0.54,0.42,8,-4,8,1.04,7931,11,91,31,21,932,445.0,557,457,60,118.0,102,1,269,149,46,0,0,419,-3856,1779,446,45.699116,4.908847,44.49,191.9,5,1.8283,0,0.0,1.2867,6,0.89,10.4457
626763,1560691898581,4,2.45,2.0,3.53,2.18,5.04,0.91,-0.52,0.44,10,-4,10,1.05,7918,11,91,31,21,923,445.0,559,457,60,118.0,102,1,269,149,46,0,0,417,-3414,-3322,445,,,,,,,,,,,,
626783,1560691898601,1,2.47,1.98,3.54,2.2,5.04,0.88,-0.59,0.41,11,-2,12,1.06,7848,11,91,32,22,916,444.0,556,456,60,117.0,99,1,268,149,44,0,0,409,7154,-768,445,,,,,,,,,,,,
626803,1560691898621,-0,2.49,1.97,3.51,2.22,5.04,0.94,-0.55,0.38,12,-2,13,1.09,7773,11,91,32,22,907,441.0,556,456,60,117.0,99,1,268,149,44,0,0,412,18584,-3322,444,,,,,,,,,,,,
626823,1560691898641,3,2.5,1.95,3.54,2.23,5.06,0.91,-0.58,0.32,14,-4,14,1.08,7763,11,91,32,22,907,441.0,556,458,60,117.0,99,1,267,151,44,0,0,410,-9166,-3314,441,,,,,,,,,,,,
626843,1560691898661,3,2.52,1.91,3.65,2.24,5.08,0.81,-0.63,0.26,15,-4,17,1.02,7763,11,91,32,22,901,439.0,553,459,60,118.0,99,1,267,151,44,0,0,397,-26615,-3314,439,45.699131,4.908841,42.76,192.0,5,1.8283,0,0.0,1.2883,6,0.89,10.4474
626863,1560691898681,3,2.53,1.9,3.67,2.26,5.07,0.8,-0.71,0.31,17,-2,19,1.07,7693,11,91,32,22,891,439.0,539,457,60,118.0,100,1,266,151,44,0,0,389,1504,-3856,439,,,,,,,,,,,,
626883,1560691898701,3,2.57,1.89,3.66,2.29,5.05,0.86,-0.76,0.38,19,-1,20,1.15,7594,11,91,32,22,885,438.0,533,457,60,118.0,100,1,266,151,44,0,0,393,11545,1779,439,,,,,,,,,,,,
626903,1560691898721,2,2.6,1.87,3.68,2.31,5.06,0.92,-0.86,0.45,20,-0,23,1.26,7557,11,91,32,22,885,438.0,533,456,60,118.0,100,1,265,151,44,0,0,391,6384,-3314,438,,,,,,,,,,,,
626923,1560691898741,4,2.61,1.87,3.69,2.33,5.06,1.03,-0.97,0.55,22,-0,26,1.42,7557,11,91,32,22,883,436.0,535,458,60,117.0,100,1,265,151,44,0,0,384,-1818,-4082,436,,,,,,,,,,,,
626943,1560691898761,4,2.61,1.87,3.69,2.33,5.04,1.13,-0.99,0.6,23,-2,28,1.5,7485,11,91,32,22,884,433.0,526,456,60,118.0,100,1,264,151,44,0,0,375,1,-4082,433,45.699135,4.908834,41.65,192.1,5,1.8283,0,0.0,1.29,6,0.89,10.449
626963,1560691898781,4,2.62,1.87,3.7,2.34,5.04,1.21,-1.05,0.69,25,-3,28,1.6,7402,11,91,32,22,886,430.0,525,460,60,118.0,97,1,264,151,42,0,0,375,240,3635,433,,,,,,,,,,,,
626983,1560691898800,5,2.62,1.86,3.7,2.34,5.04,1.29,-1.12,0.74,26,-3,30,1.71,7355,11,91,32,23,890,430.0,519,460,60,118.0,97,1,264,151,42,0,0,370,240,31796,433,,,,,,,,,,,,
627003,1560691898820,1,2.63,1.85,3.7,2.35,5.05,1.24,-1.2,0.7,28,-1,33,1.73,7247,11,91,32,23,890,430.0,519,455,60,118.0,97,1,263,154,42,0,0,359,-18948,7154,430,,,,,,,,,,,,
627023,1560691898840,-1,2.63,1.84,3.7,2.35,5.04,1.14,-1.17,0.57,30,0,36,1.64,7247,11,91,32,23,891,427.0,516,457,60,118.0,97,1,262,154,42,0,0,356,8200,-3414,427,,,,,,,,,,,,
627043,1560691898860,0,2.62,1.84,3.69,2.36,5.04,1.02,-1.18,0.48,31,-1,36,1.56,7110,11,91,32,24,877,426.0,511,459,60,117.0,97,1,261,156,42,0,0,358,3,-3414,429,45.69915,4.908829,39.99,192.2,5,1.8283,0,0.0,1.2917,6,0.89,10.4507
627063,1560691898880,5,2.63,1.83,3.7,2.35,5.07,0.99,-1.17,0.49,31,-4,37,1.53,7072,11,91,32,24,867,422.0,508,460,60,117.0,96,1,260,156,41,0,0,355,1,18584,424,,,,,,,,,,,,
627083,1560691898900,3,2.61,1.83,3.71,2.35,5.05,1.09,-1.25,0.58,32,-4,38,1.66,7043,11,91,32,24,855,420.0,431,461,60,118.0,96,1,260,156,41,0,0,344,486,-4059,422,,,,,,,,,,,,
627103,1560691898920,-1,2.62,1.83,3.71,2.36,5.06,1.03,-1.23,0.48,34,-2,40,1.61,6983,11,91,32,25,847,422.0,328,461,60,118.0,96,1,260,156,41,0,0,343,0,-4059,420,,,,,,,,,,,,
627123,1560691898940,4,2.61,1.83,3.7,2.36,5.06,0.86,-1.16,0.36,34,-4,42,1.45,6903,11,91,32,25,840,420.0,290,456,60,118.0,96,1,261,159,41,0,0,330,230,-9166,420,,,,,,,,,,,,
627143,1560691898960,3,2.59,1.83,3.7,2.36,5.05,0.98,-1.25,0.46,34,-5,44,1.58,6845,11,91,32,25,840,416.0,270,456,60,118.0,96,1,261,159,41,0,0,326,-1268,9517,417,45.699154,4.908825,38.26,192.3,5,1.8283,0,0.0,1.2933,6,0.89,10.4524
627163,1560691898980,0,2.56,1.83,3.7,2.35,5.08,0.88,-1.14,0.38,35,-3,45,1.44,6845,11,91,32,25,840,416.0,270,458,60,118.0,96,1,262,159,41,0,0,330,3082,-9211,416,,,,,,,,,,,,
627183,1560691898996,2,2.53,1.83,3.7,2.36,5.06,0.96,-1.22,0.44,34,-6,44,1.55,6754,11,91,32,26,850,410.0,286,460,60,117.0,98,1,266,160,41,0,0,333,-14707,-9211,413,,,,,,,,,,,,
627203,1560691899016,-2,2.51,1.83,3.7,2.35,5.05,0.9,-1.07,0.37,35,-4,43,1.4,6754,11,91,32,26,850,410.0,286,458,60,117.0,98,1,266,160,41,0,0,331,-29978,11545,410,,,,,,,,,,,,
627223,1560691899036,1,2.46,1.84,3.69,2.32,5.07,0.92,-1.13,0.36,34,-6,43,1.46,6759,11,91,32,26,860,407.0,276,459,60,117.0,98,1,266,160,41,0,0,331,-29978,1,405,,,,,,,,,,,,
627243,1560691899056,1,2.41,1.84,3.67,2.29,5.08,0.9,-0.98,0.25,33,-1,44,1.33,6795,11,91,32,27,869,398.0,301,455,60,118.0,98,1,270,161,41,0,0,333,-6640,505,402,45.699165,4.908822,36.32,192.3,5,1.8283,0,0.0,1.295,6,0.89,10.4541
