"Interval"|"ms"|0|0|1,"Utc"|"ms"|0|0|1,"FB_p"|"bar"|0|300|50,"Volant"|"F"|0.0|300.0|50,"xFR"|"mm"|0.0|5.0|50,"xRR"|"mm"|0.0|5.0|50,"xFL"|"mm"|0.0|5.0|50,"xRL"|"mm"|0.0|5.0|50,"AccelX"|"G"|-3.0|3.0|50,"AccelY"|"G"|-3.0|3.0|50,"AccelZ"|"G"|-3.0|3.0|50,"Yaw"|"Deg/Sec"|-120|120|50,"Pitch"|"Deg/Sec"|-120|120|50,"Roll"|"Deg/Sec"|-120|120|50,"Gsum"|"G"|0.0|3.0|50,"RPM"|""|0|14000|50,"TPS"|"%"|0|100|50,"WaterTemp"|"?C"|0|300|50,"AirTemp"|"?C"|-1000|1000|50,"MAP"|"KPa"|0|255|50,"Lambda"|""|0|1024|50,"WheelSpeed"|"MPH"|0.0|150.0|50,"OilPress"|"PSI"|0|150|50,"FuelPress"|"PSI"|0|150|50,"OilTemp"|"F"|0|300|50,"Battery"|"Volts"|0.0|20.0|50,"FuelCon"|"L/h"|-1000|1000|50,"Gear"|""|0|10|50,"Advance"|"Deg"|-360|360|50,"Injection"|"ms"|-1000|1000|50,"FuelCon"|"L/100km"|-1000|1000|50,"LC_But_Pres"|""|-1000|1000|50,"LC_Active"|""|-1000|1000|50,"RD_Speed"|""|-1000|1000|50,"RUD_Speed"|""|-1000|1000|50,"LD_Speed"|""|-1000|1000|50,"LUD_Speed"|""|-1000|1000|50,"Latitude"|"Degrees"|-180.0|180.0|10,"Longitude"|"Degrees"|-180.0|180.0|10,"Speed"|"kph"|0.0|150.0|10,"Altitude"|"m"|0.0|4000.0|10,"LapCount"|""|0|0|10,"LapTime"|"Min"|0.0|0.0|10,"Sector"|""|0|0|10,"SectorTime"|"Min"|0.0|0.0|10,"ElapsedTime"|"Min"|0.0|0.0|10,"CurrentLap"|""|0|0|10,"Distance"|"km"|0.0|0.0|10,"SessionTime"|"Min"|0.0|0.0|10
551863,1560691823680,16,2.3,1.86,3.48,1.67,5.07,1.18,-0.1,-0.17,-2,-0,3,1.18,7200,7,88,34,21,936,591.0,517,463,60,119.0,67,1,262,149,42,0,0,372,6273,-19126,589,,,,,,,,,,,,
551883,1560691823700,14,2.29,1.86,3.5,1.65,5.04,1.19,-0.05,-0.08,-2,0,3,1.19,7153,7,88,34,21,929,587.0,501,460,60,120.0,68,1,261,149,40,0,0,370,-4035,8200,585,,,,,,,,,,,,
551903,1560691823720,20,2.3,1.85,3.54,1.64,5.03,1.24,-0.13,0.03,-2,-1,2,1.25,7080,7,88,34,21,925,583.0,505,465,60,121.0,68,1,260,149,40,0,0,367,243,-1818,578,,,,,,,,,,,,
551923,1560691823740,16,2.3,1.86,3.54,1.62,5.07,1.31,-0.19,-0.05,-3,-3,4,1.32,6970,7,88,34,21,924,577.0,504,460,60,120.0,68,1,260,148,40,0,0,354,1,-26615,574,,,,,,,,,,,,
551943,1560691823760,13,2.3,1.85,3.54,1.63,5.08,1.2,-0.14,-0.1,-1,0,3,1.21,6929,7,88,34,22,925,570.0,490,460,60,121.0,68,1,260,148,40,0,0,342,-3190,2524,567,45.700825,4.909676,61.75,199.9,5,1.8283,0,0.0,0.04,6,0.06,9.199
551963,1560691823780,18,2.3,1.86,3.53,1.65,5.03,1.28,-0.2,-0.01,-2,-2,2,1.3,6906,7,88,34,22,929,565.0,491,455,60,121.0,68,1,260,150,40,0,0,333,12552,1,559,,,,,,,,,,,,
551983,1560691823799,14,2.31,1.89,3.52,1.68,5.07,1.19,-0.1,-0.1,-0,-0,2,1.2,6843,7,88,34,22,933,558.0,507,463,60,120.0,70,1,260,150,39,0,0,330,-22359,240,556,,,,,,,,,,,,
552003,1560691823819,16,2.32,1.9,3.5,1.69,5.04,1.2,-0.18,0.02,-0,-2,0,1.21,6732,7,88,34,22,940,549.0,485,456,60,121.0,70,1,260,150,39,0,0,349,2104,-32702,549,,,,,,,,,,,,
552023,1560691823839,15,2.32,1.89,3.5,1.68,5.04,1.27,-0.08,-0.02,1,-3,0,1.27,6730,7,88,34,23,946,542.0,480,459,60,120.0,70,1,261,153,39,0,0,363,-3082,-19019,539,,,,,,,,,,,,
552043,1560691823859,18,2.34,1.86,3.51,1.66,5.08,1.31,-0.19,-0.01,1,-2,-0,1.32,6768,7,88,35,23,951,537.0,477,458,60,121.0,70,1,261,149,39,0,0,363,-32248,-30454,537,45.70084,4.909685,57.98,199.8,5,1.8283,0,0.0,0.0417,6,0.06,9.2007
552063,1560691823879,13,2.32,1.85,3.51,1.65,5.05,1.38,-0.24,-0.06,1,0,2,1.4,6795,7,88,35,23,951,533.0,486,460,60,119.0,70,1,261,152,39,0,0,346,6274,-30454,531,,,,,,,,,,,,
552083,1560691823899,16,2.33,1.85,3.52,1.64,5.05,1.44,-0.3,-0.0,1,-2,4,1.47,6710,7,88,35,23,951,527.0,480,460,60,121.0,71,1,261,152,38,0,0,336,2088,-6656,527,,,,,,,,,,,,
552103,1560691823919,10,2.34,1.84,3.51,1.66,5.04,1.46,-0.29,-0.09,2,1,5,1.49,6623,7,88,35,23,946,524.0,483,461,60,120.0,71,1,262,151,38,0,0,332,-14,-9211,524,,,,,,,,,,,,
552123,1560691823939,12,2.33,1.84,3.5,1.65,5.05,1.48,-0.35,0.05,2,-1,6,1.52,6616,7,88,35,23,941,516.0,478,458,60,119.0,71,1,262,151,38,0,0,344,26178,11545,516,,,,,,,,,,,,
552143,1560691823959,14,2.33,1.84,3.5,1.68,5.05,1.42,-0.22,-0.02,3,0,5,1.43,6658,7,88,35,24,936,513.0,478,461,60,121.0,71,1,263,154,38,0,0,345,-32248,-6405,513,45.700851,4.909695,55.45,199.8,5,1.8283,0,0.0,0.0433,6,0.07,9.2024
552163,1560691823979,10,2.34,1.85,3.5,1.72,5.05,1.41,-0.32,0.02,3,-0,5,1.45,6674,7,88,35,24,929,507.0,478,459,60,120.0,71,1,263,154,38,0,0,353,998,-122,507,,,,,,,,,,,,
552183,1560691823993,13,2.33,1.87,3.5,1.76,5.04,1.37,-0.26,-0.0,4,-1,5,1.4,6646,7,88,35,24,923,501.0,473,455,60,121.0,75,1,263,154,38,0,0,366,-1818,-6644,501,,,,,,,,,,,,
552203,1560691824013,10,2.34,1.85,3.5,1.78,5.08,1.41,-0.31,-0.1,5,-4,4,1.44,6689,7,88,35,24,917,494.0,482,461,60,120.0,75,1,263,154,38,0,0,362,8488,-992,494,,,,,,,,,,,,
552223,1560691824033,13,2.33,1.83,3.51,1.74,5.04,1.34,-0.26,-0.12,6,-1,6,1.37,6766,7,88,35,24,916,491.0,483,458,60,121.0,75,1,262,155,38,0,0,341,3576,-6405,491,,,,,,,,,,,,
552243,1560691824053,8,2.33,1.81,3.52,1.74,5.08,1.41,-0.39,-0.02,5,-3,8,1.46,6808,7,88,35,24,915,484.0,498,458,60,120.0,75,1,261,155,38,0,0,332,32033,2790,484,45.700863,4.909703,52.1,199.6,5,1.8283,0,0.0,0.045,6,0.07,9.2041
552263,1560691824073,11,2.32,1.82,3.52,1.74,5.07,1.27,-0.36,-0.03,7,-0,9,1.32,6766,7,88,35,24,915,482.0,488,460,60,121.0,75,1,262,155,38,0,0,331,-3210,-6475,482,,,,,,,,,,,,
552283,1560691824099,7,2.31,1.82,3.52,1.75,5.05,1.35,-0.46,-0.05,8,-0,11,1.42,6727,7,88,35,24,916,477.0,494,461,60,120.0,81,1,262,155,39,0,0,342,2211,-3414,476,,,,,,,,,,,,
552303,1560691824119,10,2.3,1.82,3.53,1.76,5.08,1.26,-0.37,-0.0,8,-0,10,1.31,6800,7,88,35,24,917,469.0,489,458,60,121.0,81,1,261,152,39,0,0,348,-8985,9517,469,,,,,,,,,,,,
552323,1560691824139,6,2.3,1.82,3.58,1.78,5.03,1.29,-0.48,0.13,8,-0,11,1.38,6898,7,88,35,23,919,462.0,491,460,60,120.0,81,1,261,155,39,0,0,338,3571,-32702,462,,,,,,,,,,,,
552343,1560691824159,2,2.28,1.83,3.56,1.8,5.07,1.24,-0.42,0.07,8,2,10,1.31,6906,7,88,35,23,920,461.0,486,454,60,121.0,81,1,260,152,39,0,0,321,8488,11560,461,45.700874,4.909712,49.3,199.6,5,1.8283,0,0.0,0.0467,6,0.07,9.2057
552363,1560691824179,6,2.26,1.84,3.54,1.84,5.06,1.2,-0.4,0.17,8,-0,7,1.26,6936,7,88,35,23,923,458.0,498,463,60,120.0,81,1,260,152,39,0,0,353,23400,-4082,458,,,,,,,,,,,,
552383,1560691824199,1,2.26,1.84,3.52,1.8,5.05,1.28,-0.43,0.17,7,-0,7,1.35,7006,7,88,35,23,922,450.0,498,458,60,119.0,88,1,260,153,40,0,0,363,26704,13040,450,,,,,,,,,,,,
552403,1560691824219,1,2.26,1.84,3.48,1.8,5.03,1.13,-0.38,0.07,8,2,6,1.19,7078,7,88,35,23,923,445.0,497,459,60,120.0,88,1,261,153,40,0,0,386,5600,-4059,445,,,,,,,,,,,,
552423,1560691824239,0,2.25,1.83,3.46,1.79,5.03,1.14,-0.28,0.04,6,1,5,1.17,7170,7,88,35,23,922,438.0,506,459,60,121.0,88,1,261,153,40,0,0,417,5600,-26615,438,,,,,,,,,,,,
552443,1560691824259,1,2.25,1.85,3.46,1.81,5.04,1.18,-0.22,0.17,5,2,5,1.2,7261,7,88,35,22,922,434.0,506,457,60,121.0,88,1,262,153,40,0,0,412,243,-4059,434,45.700882,4.90972,46.31,199.5,5,1.8283,0,0.0,0.0483,6,0.07,9.2074
552463,1560691824279,4,2.24,1.89,3.46,1.79,5.06,1.19,-0.29,0.24,4,2,4,1.23,7364,7,88,35,22,921,431.0,517,462,60,120.0,88,1,263,150,40,0,0,412,1779,-26615,430,,,,,,,,,,,,
552483,1560691824301,4,2.23,1.92,3.46,1.79,5.06,1.24,-0.27,0.27,3,2,3,1.27,7446,7,88,35,22,920,428.0,528,458,60,120.0,98,1,264,150,42,0,0,413,13180,-8151,426,,,,,,,,,,,,
552503,1560691824321,1,2.23,1.95,3.44,1.79,5.04,1.27,-0.34,0.34,2,2,2,1.31,7566,7,88,35,21,920,425.0,539,459,60,120.0,98,1,265,148,42,0,0,409,-3856,-8151,425,,,,,,,,,,,,
552523,1560691824341,-1,2.23,2.0,3.38,1.79,5.03,1.32,-0.27,0.41,1,2,2,1.35,7591,7,88,35,21,919,424.0,540,461,60,121.0,98,1,265,148,42,0,0,404,-21792,10541,417,,,,,,,,,,,,
552543,1560691824361,-0,2.22,2.03,3.31,1.78,5.07,1.3,-0.22,0.4,-0,1,1,1.32,7646,7,88,35,21,920,421.0,542,461,60,121.0,98,1,266,148,42,0,0,413,-21792,-8151,414,45.700893,4.909728,43.97,199.4,5,1.8283,0,0.0,0.05,6,0.07,9.2091
552563,1560691824381,-1,2.21,2.06,3.3,1.78,5.07,1.28,-0.12,0.32,-1,-0,1,1.29,7643,7,88,35,21,920,418.0,557,457,60,120.0,98,1,266,148,42,0,0,407,-3414,6512,411,,,,,,,,,,,,
552583,1560691824401,1,2.19,2.1,3.27,1.79,5.07,1.2,-0.02,0.26,-2,0,0,1.2,7646,7,88,35,21,921,415.0,562,457,60,121.0,102,1,266,148,42,0,0,408,-26615,1504,407,,,,,,,,,,,,
552603,1560691824421,3,2.18,2.13,3.25,1.8,5.07,1.11,0.06,0.17,-3,0,-1,1.12,7581,7,88,35,20,922,414.0,552,460,60,121.0,102,1,265,148,42,0,0,404,2524,11545,406,,,,,,,,,,,,
552623,1560691824441,3,2.17,2.13,3.24,1.78,5.04,1.1,0.15,0.1,-4,0,-1,1.11,7551,7,88,35,20,923,413.0,541,457,60,121.0,102,1,265,145,42,0,0,406,13040,10541,403,,,,,,,,,,,,
552643,1560691824461,0,2.17,2.13,3.21,1.78,5.08,1.01,0.25,-0.01,-5,0,-1,1.04,7464,7,88,35,20,924,411.0,535,461,60,121.0,102,1,264,145,42,0,0,405,-4059,1,403,45.700901,4.909736,41.52,199.4,5,1.8283,0,0.0,0.0517,6,0.07,9.2107
552663,1560691824481,0,2.15,2.16,3.2,1.78,5.05,0.97,0.34,-0.04,-6,2,-1,1.02,7428,7,88,35,20,928,412.0,532,459,60,121.0,102,1,264,145,42,0,0,402,13040,-6524,399,,,,,,,,,,,,
552683,1560691824501,-0,2.15,2.16,3.17,1.77,5.08,0.93,0.48,0.04,-6,2,-4,1.05,7358,7,88,35,20,932,412.0,519,462,60,120.0,100,1,263,145,40,0,0,403,13040,-3866,395,,,,,,,,,,,,
552703,1560691824521,1,2.15,2.18,3.18,1.78,5.04,0.93,0.56,0.08,-8,1,-6,1.08,7350,7,88,35,20,935,408.0,524,463,60,121.0,100,1,263,145,40,0,0,402,10392,-19019,392,,,,,,,,,,,,
552723,1560691824541,2,2.14,2.19,3.18,1.78,5.06,1.0,0.53,0.21,-9,-0,-7,1.13,7301,8,88,35,21,938,408.0,525,457,60,121.0,100,1,263,148,40,0,0,395,2524,240,389,,,,,,,,,,,,
552743,1560691824561,4,2.12,2.19,3.21,1.75,5.07,1.03,0.45,0.32,-9,1,-8,1.12,7304,8,88,35,21,941,407.0,538,456,60,120.0,100,1,263,148,40,0,0,395,-26615,8200,386,45.700909,4.909744,40.31,199.4,5,1.8283,0,0.0,0.0533,6,0.07,9.2124
552763,1560691824581,2,2.12,2.26,3.19,1.76,5.04,1.01,0.37,0.35,-10,4,-9,1.07,7244,8,88,35,21,943,407.0,537,461,60,120.0,100,1,262,148,40,0,0,398,-26615,-6656,384,,,,,,,,,,,,
552783,1560691824601,1,2.1,2.29,3.17,1.76,5.05,1.01,0.44,0.29,-11,3,-11,1.11,7205,8,88,35,21,944,407.0,519,456,60,121.0,104,1,262,148,40,0,0,400,-26615,742,380,,,,,,,,,,,,
552803,1560691824621,-0,2.1,2.29,3.16,1.75,5.04,0.99,0.54,0.2,-12,2,-12,1.13,7181,8,88,35,21,943,405.0,520,460,60,121.0,104,1,261,148,40,0,0,393,-9211,257,381,,,,,,,,,,,,
552823,1560691824641,5,2.11,2.29,3.15,1.73,5.04,1.06,0.46,0.29,-13,1,-14,1.16,7118,8,88,35,22,945,403.0,519,463,60,121.0,104,1,261,150,40,0,0,395,-8151,1,377,,,,,,,,,,,,
552843,1560691824661,1,2.11,2.29,3.14,1.72,5.06,1.08,0.41,0.38,-13,2,-16,1.16,7131,9,88,35,22,947,401.0,519,461,60,120.0,104,1,261,150,40,0,0,394,11545,-6405,375,45.70092,4.909751,39.51,199.4,5,1.8283,0,0.0,0.055,6,0.07,9.2141
552863,1560691824681,2,2.11,2.29,3.15,1.74,5.04,1.02,0.5,0.32,-14,3,-18,1.14,7099,9,88,35,22,949,399.0,528,458,60,120.0,104,1,260,150,40,0,0,391,28696,-14707,372,,,,,,,,,,,,
552883,1560691824701,0,2.11,2.29,3.16,1.73,5.09,0.99,0.57,0.3,-15,2,-20,1.14,7027,9,88,35,23,952,398.0,505,458,60,121.0,108,1,260,150,40,0,0,390,6384,-14707,370,,,,,,,,,,,,
552903,1560691824721,3,2.1,2.29,3.15,1.74,5.04,1.03,0.46,0.35,-15,0,-21,1.13,7011,10,88,35,23,954,395.0,515,458,60,121.0,108,1,260,153,40,0,0,389,17144,-29302,367,,,,,,,,,,,,
552923,1560691824741,-1,2.11,2.3,3.15,1.74,5.05,1.02,0.52,0.21,-15,3,-19,1.14,6983,10,88,35,23,955,392.0,505,456,60,121.0,108,1,260,152,40,0,0,388,1,-14707,366,,,,,,,,,,,,
552943,1560691824761,3,2.11,2.3,3.16,1.75,5.08,0.98,0.52,0.23,-15,2,-19,1.11,6908,11,88,35,24,955,390.0,492,457,60,121.0,108,1,260,155,40,0,0,383,-6524,-6640,365,45.700928,4.909758,37.92,199.4,5,1.8283,0,0.0,0.0567,6,0.08,9.2157
552963,1560691824781,-1,2.12,2.3,3.15,1.74,5.07,1.03,0.48,0.31,-16,2,-19,1.14,6890,11,88,35,24,953,389.0,502,460,60,120.0,108,1,261,155,40,0,0,382,-3866,2060,365,,,,,,,,,,,,
552983,1560691824800,-1,2.12,2.29,3.15,1.75,5.08,1.01,0.56,0.35,-16,1,-21,1.15,6870,11,88,35,25,950,387.0,501,458,60,120.0,110,1,262,158,40,0,0,381,240,2060,361,,,,,,,,,,,,
553003,1560691824820,1,2.12,2.29,3.14,1.75,5.04,0.98,0.45,0.45,-16,0,-24,1.08,6810,11,88,35,25,945,384.0,502,464,60,119.0,110,1,262,158,40,0,0,378,-19019,3302,359,,,,,,,,,,,,
553023,1560691824840,0,2.12,2.28,3.15,1.74,5.04,1.01,0.52,0.38,-16,-1,-24,1.13,6798,11,88,35,26,941,382.0,491,461,60,120.0,110,1,266,159,40,0,0,374,19125,-30454,359,,,,,,,,,,,,
553043,1560691824860,2,2.12,2.28,3.15,1.75,5.07,0.97,0.5,0.37,-16,-1,-23,1.09,6813,11,88,35,26,938,381.0,489,460,60,121.0,110,1,266,159,40,0,0,375,-18948,-30454,356,45.700935,4.909763,37.23,199.4,5,1.8283,0,0.0,0.0583,6,0.08,9.2174
553063,1560691824880,0,2.13,2.27,3.14,1.75,5.07,1.05,0.55,0.3,-16,1,-21,1.18,6778,12,88,35,27,934,379.0,498,456,60,120.0,110,1,270,160,40,0,0,375,8200,-6644,354,,,,,,,,,,,,
553083,1560691824900,3,2.14,2.28,3.16,1.75,5.06,1.04,0.45,0.38,-16,-1,-20,1.14,6722,12,88,35,27,930,376.0,481,461,60,121.0,112,1,270,160,40,0,0,373,3,-6644,354,,,,,,,,,,,,
553103,1560691824920,0,2.15,2.27,3.16,1.78,5.06,0.97,0.51,0.34,-16,1,-21,1.1,6734,13,88,35,28,926,374.0,483,458,60,121.0,112,1,274,162,40,0,0,369,742,-30454,354,,,,,,,,,,,,
553123,1560691824940,-1,2.17,2.25,3.17,1.76,5.05,1.0,0.48,0.43,-16,-1,-21,1.1,6703,14,88,35,29,926,370.0,483,459,60,121.0,112,1,278,163,40,0,0,367,486,8841,353,,,,,,,,,,,,
553143,1560691824960,3,2.2,2.26,3.18,1.82,5.03,0.94,0.53,0.36,-15,1,-22,1.08,6679,14,88,35,30,926,370.0,495,462,60,120.0,112,1,282,163,40,0,0,365,486,-30454,353,45.700943,4.909768,36.83,199.4,5,1.8283,0,0.0,0.06,6,0.08,9.2191
553163,1560691824980,1,2.21,2.25,3.18,1.85,5.04,0.97,0.39,0.38,-15,-0,-23,1.05,6646,15,88,35,30,926,369.0,494,460,60,120.0,112,1,282,166,40,0,0,365,0,-10554,352,,,,,,,,,,,,
553183,1560691824994,4,2.24,2.25,3.18,1.87,5.05,0.89,0.39,0.35,-13,1,-22,0.97,6627,15,88,35,31,927,366.0,471,451,60,121.0,116,1,286,166,41,0,0,364,230,-6644,351,,,,,,,,,,,,
553203,1560691825014,-1,2.25,2.23,3.2,1.89,5.03,0.96,0.36,0.3,-13,2,-19,1.02,6648,15,88,35,32,928,364.0,487,459,60,119.0,116,1,290,168,41,0,0,360,-1268,8841,351,,,,,,,,,,,,
553223,1560691825034,3,2.28,2.21,3.23,1.9,5.05,0.88,0.26,0.37,-11,2,-17,0.92,6639,16,88,35,33,930,361.0,483,460,60,121.0,116,1,292,173,41,0,0,358,-6458,3183,352,,,,,,,,,,,,
553243,1560691825054,-1,2.3,2.2,3.24,1.97,5.08,0.88,0.25,0.36,-9,4,-14,0.92,6630,16,88,35,34,928,357.0,483,458,60,120.0,116,1,295,178,41,0,0,355,-6640,2811,352,45.700951,4.909772,35.46,199.3,5,1.8283,0,0.0,0.0617,6,0.08,9.2207
553263,1560691825074,-0,2.32,2.19,3.24,2.01,5.04,0.97,0.15,0.44,-9,2,-12,0.98,6581,17,88,35,34,928,355.0,474,460,60,121.0,116,1,295,178,41,0,0,350,-6644,-30454,353,,,,,,,,,,,,
553283,1560691825100,2,2.34,2.16,3.27,2.01,5.06,0.87,0.15,0.49,-7,1,-10,0.88,6574,18,88,35,35,926,353.0,472,459,60,121.0,130,1,298,184,46,0,0,348,-6644,3183,353,,,,,,,,,,,,
553303,1560691825120,-2,2.35,2.15,3.28,2.01,5.07,0.84,0.12,0.47,-6,2,-9,0.85,6583,19,88,35,37,923,355.0,479,460,60,120.0,130,1,304,189,46,0,0,347,-30454,-30454,354,,,,,,,,,,,,
553323,1560691825140,3,2.37,2.15,3.28,2.05,5.04,0.89,0.05,0.53,-5,1,-10,0.89,6553,19,88,35,37,921,353.0,478,455,60,120.0,130,1,304,195,46,0,0,347,2811,-1246,353,,,,,,,,,,,,
553343,1560691825160,5,2.38,2.14,3.31,2.08,5.03,0.84,0.07,0.51,-3,1,-9,0.84,6558,20,88,35,39,918,354.0,476,460,60,121.0,130,1,310,207,46,0,0,347,8841,-30454,354,45.700962,4.909776,34.98,199.3,5,1.8283,0,0.0,0.0633,6,0.08,9.2224
553363,1560691825180,-3,2.41,2.13,3.34,2.09,5.06,0.88,-0.02,0.51,-2,1,-8,0.88,6555,21,88,35,40,918,355.0,482,463,60,120.0,130,1,316,208,46,0,0,341,6870,-6644,355,,,,,,,,,,,,
553383,1560691825200,4,2.41,2.11,3.36,2.12,5.05,0.82,-0.12,0.54,0,1,-6,0.83,6574,22,88,35,41,918,354.0,467,453,60,121.0,146,1,323,210,52,0,0,342,-14714,2060,355,,,,,,,,,,,,
553403,1560691825220,-1,2.44,2.1,3.4,2.14,5.05,0.85,-0.13,0.48,2,1,-4,0.86,6604,24,88,35,43,917,357.0,475,465,60,119.0,146,1,338,213,52,0,0,342,-31206,-6640,357,,,,,,,,,,,,
553423,1560691825240,3,2.45,2.09,3.45,2.18,5.04,0.84,-0.19,0.49,3,1,0,0.86,6632,26,88,35,45,919,357.0,480,463,60,120.0,146,1,352,216,52,0,0,339,3327,-6644,357,,,,,,,,,,,,
553443,1560691825260,1,2.47,2.09,3.45,2.22,5.04,0.73,-0.24,0.43,6,3,4,0.77,6625,29,88,35,47,919,359.0,477,456,60,121.0,146,1,366,220,52,0,0,338,-31222,4104,359,45.70097,4.909779,34.32,199.2,5,1.8283,0,0.0,0.065,6,0.08,9.224
553463,1560691825280,0,2.49,2.09,3.47,2.21,5.07,0.86,-0.31,0.48,6,2,6,0.91,6639,31,88,35,49,920,358.0,490,460,60,119.0,146,1,372,229,52,0,0,335,4838,-6644,358,,,,,,,,,,,,
553483,1560691825300,3,2.51,2.08,3.47,2.21,5.05,0.79,-0.34,0.5,9,1,9,0.86,6648,33,88,35,52,926,360.0,470,459,60,121.0,167,1,381,245,60,0,0,334,4838,-6640,360,,,,,,,,,,,,
553503,1560691825320,1,2.51,2.05,3.48,2.21,5.08,0.83,-0.39,0.48,9,1,11,0.91,6696,34,88,35,54,931,359.0,481,458,60,120.0,167,1,388,256,60,0,0,333,-6528,2060,359,,,,,,,,,,,,
553523,1560691825340,3,2.52,2.04,3.49,2.21,5.07,0.81,-0.37,0.57,11,1,13,0.89,6739,35,88,35,56,937,360.0,473,458,60,121.0,167,1,394,263,60,0,0,331,-32559,2790,360,,,,,,,,,,,,
553543,1560691825360,2,2.52,2.04,3.49,2.22,5.04,0.81,-0.36,0.58,12,1,13,0.89,6734,36,88,35,58,940,360.0,482,460,60,119.0,167,1,401,270,60,0,0,326,175,2790,360,45.700977,4.909782,33.53,199.1,5,1.8283,0,0.0,0.0667,6,0.08,9.2257
553563,1560691825380,3,2.54,2.04,3.49,2.23,5.06,0.78,-0.42,0.64,13,0,13,0.88,6786,37,88,35,60,956,359.0,467,455,60,121.0,167,1,410,279,60,0,0,329,-20736,4104,360,,,,,,,,,,,,
553583,1560691825400,2,2.55,2.04,3.49,2.22,5.08,0.87,-0.5,0.67,15,-3,13,1.0,6843,39,88,35,61,975,361.0,487,462,60,120.0,205,1,417,287,74,0,0,328,170,-29978,361,,,,,,,,,,,,
553603,1560691825420,-2,2.55,2.04,3.52,2.24,5.04,0.75,-0.5,0.61,16,-1,15,0.9,6913,39,88,35,63,991,361.0,481,453,60,121.0,205,1,412,294,74,0,0,326,-22016,4104,361,,,,,,,,,,,,
553623,1560691825440,4,2.55,2.03,3.53,2.26,5.03,0.88,-0.59,0.7,17,-3,16,1.06,6888,40,88,35,64,1006,363.0,492,458,60,120.0,205,1,406,303,74,0,0,340,-22016,-1268,363,,,,,,,,,,,,
553643,1560691825460,-0,2.56,2.05,3.54,2.27,5.06,0.78,-0.58,0.61,18,-1,19,0.97,6858,41,88,35,66,1043,362.0,481,462,60,120.0,205,1,396,307,74,0,0,368,170,2790,364,45.700985,4.909786,33.85,199.1,5,1.8283,0,0.0,0.0683,6,0.08,9.2274
553663,1560691825480,4,2.56,2.07,3.49,2.32,5.04,0.84,-0.61,0.68,18,-3,21,1.04,6858,41,88,35,66,1091,366.0,482,453,60,121.0,205,1,396,312,74,0,0,383,-20736,3082,366,,,,,,,,,,,,
553683,1560691825500,1,2.56,2.08,3.47,2.33,5.04,0.83,-0.61,0.67,19,-1,22,1.03,6868,41,88,35,67,1130,365.0,486,458,60,120.0,224,1,392,317,82,0,0,347,175,-6405,365,,,,,,,,,,,,
553703,1560691825520,1,2.56,2.08,3.47,2.34,5.04,0.8,-0.6,0.73,20,-2,23,1.0,6845,41,88,35,68,1162,366.0,478,454,60,120.0,224,1,386,321,82,0,0,363,-6528,-6405,366,,,,,,,,,,,,
553723,1560691825540,2,2.57,2.09,3.47,2.33,5.05,0.92,-0.66,0.75,20,-4,23,1.13,6830,42,88,35,69,1197,368.0,480,458,60,120.0,224,1,385,335,82,0,0,373,13,-6656,368,,,,,,,,,,,,
553743,1560691825560,-2,2.57,2.09,3.48,2.33,5.05,0.73,-0.61,0.69,21,-3,23,0.95,6823,42,88,36,69,1235,369.0,472,458,60,121.0,224,1,384,335,82,0,0,375,2560,-6656,369,45.700993,4.909792,33.18,199.0,5,1.8283,0,0.0,0.07,6,0.08,9.229
553763,1560691825580,2,2.57,2.09,3.48,2.34,5.07,0.86,-0.67,0.69,21,-6,24,1.09,6860,42,88,36,70,1257,372.0,485,457,60,120.0,224,1,385,351,82,0,0,368,-31222,-6656,372,,,,,,,,,,,,
553783,1560691825600,-1,2.57,2.08,3.49,2.32,5.05,0.64,-0.64,0.6,23,-2,27,0.91,6878,42,88,36,70,1262,374.0,473,462,60,121.0,243,1,385,352,91,0,0,362,-122,0,375,,,,,,,,,,,,
553803,1560691825620,3,2.57,2.08,3.49,2.33,5.06,0.69,-0.65,0.68,22,-3,28,0.95,6926,42,88,36,70,1262,374.0,472,457,60,121.0,243,1,387,352,91,0,0,367,3327,257,374,,,,,,,,,,,,
553823,1560691825640,4,2.56,2.07,3.47,2.32,5.07,0.65,-0.66,0.68,23,-1,28,0.93,6998,43,88,36,70,1254,376.0,479,462,60,121.0,243,1,389,368,91,0,0,371,3327,770,376,,,,,,,,,,,,
553843,1560691825660,2,2.56,2.1,3.46,2.38,5.04,0.49,-0.61,0.61,25,0,28,0.78,7104,43,88,36,71,1244,379.0,482,460,60,120.0,243,1,395,371,91,0,0,372,-14714,-6656,379,45.701,4.909798,33.67,198.9,5,1.8283,0,0.0,0.0717,6,0.08,9.2307
553863,1560691825680,-0,2.57,2.16,3.47,2.39,5.05,0.41,-0.62,0.59,25,-0,28,0.74,7126,43,88,36,71,1231,379.0,486,459,60,121.0,243,1,395,372,91,0,0,385,6668,2278,379,,,,,,,,,,,,
553883,1560691825700,1,2.57,2.14,3.48,2.38,5.05,0.58,-0.69,0.73,24,-5,28,0.9,7189,43,88,36,70,1216,379.0,486,457,60,121.0,256,1,400,373,97,0,0,384,6870,-19126,379,,,,,,,,,,,,
553903,1560691825720,4,2.58,2.13,3.47,2.39,5.07,0.67,-0.75,0.79,24,-3,28,1.01,7298,44,88,36,70,1199,381.0,500,456,60,121.0,256,1,406,362,97,0,0,387,8841,-3866,381,,,,,,,,,,,,
553923,1560691825740,4,2.58,2.13,3.48,2.39,5.08,0.5,-0.73,0.75,25,-1,29,0.89,7321,44,88,36,70,1185,386.0,500,457,60,120.0,256,1,408,363,97,0,0,404,-30454,-19126,386,,,,,,,,,,,,
553943,1560691825760,4,2.57,2.12,3.45,2.39,5.05,0.35,-0.74,0.69,26,0,30,0.82,7431,44,88,36,70,1181,389.0,507,458,60,120.0,256,1,414,366,97,0,0,396,-30454,505,389,45.701008,4.909804,34.28,198.9,5,1.8283,0,0.0,0.0733,6,0.09,9.2324
553963,1560691825780,5,2.57,2.14,3.47,2.41,5.04,0.27,-0.72,0.68,27,-0,31,0.77,7485,44,88,36,70,1173,391.0,514,460,60,120.0,256,1,417,368,97,0,0,385,-30454,17144,391,,,,,,,,,,,,
553983,1560691825801,4,2.57,2.15,3.44,2.42,5.08,0.23,-0.82,0.62,27,-0,32,0.85,7548,44,88,36,69,1157,393.0,523,457,60,120.0,258,1,422,357,101,0,0,388,3302,6384,393,,,,,,,,,,,,
554003,1560691825821,5,2.56,2.16,3.48,2.42,5.06,0.16,-0.76,0.6,28,2,33,0.78,7500,44,88,36,69,1142,395.0,521,466,60,120.0,258,1,420,357,101,0,0,413,-29978,2524,395,,,,,,,,,,,,
554023,1560691825841,4,2.56,2.15,3.5,2.45,5.07,0.08,-0.76,0.61,29,3,34,0.77,7548,44,88,36,68,1131,398.0,519,457,60,120.0,258,1,423,344,101,0,0,441,-14707,-26615,398,,,,,,,,,,,,
554043,1560691825861,1,2.55,2.16,3.49,2.46,5.04,0.1,-0.77,0.7,29,2,35,0.78,7646,44,88,35,68,1116,402.0,534,455,60,120.0,258,1,429,360,101,0,0,423,2790,-26615,402,45.701016,4.909812,35.29,198.9,5,1.8283,0,0.0,0.075,6,0.09,9.234
554063,1560691825881,-0,2.54,2.16,3.49,2.45,5.07,0.16,-0.78,0.74,29,2,34,0.79,7799,44,88,35,67,1090,404.0,541,456,60,121.0,258,1,439,355,101,0,0,388,-6405,13040,404,,,,,,,,,,,,
554083,1560691825901,1,2.52,2.16,3.49,2.45,5.05,0.28,-0.82,0.76,28,1,34,0.87,7809,44,88,35,67,1065,408.0,528,457,60,120.0,259,1,439,348,105,0,0,397,-6656,18584,407,,,,,,,,,,,,
554103,1560691825921,3,2.5,2.17,3.48,2.46,5.04,0.31,-0.74,0.66,27,0,35,0.81,7825,44,88,35,66,1051,412.0,526,455,60,120.0,259,1,441,341,105,0,0,440,-6656,-9166,409,,,,,,,,,,,,
554123,1560691825941,-1,2.47,2.19,3.46,2.44,5.06,0.34,-0.77,0.7,27,-0,35,0.84,7888,44,88,35,66,1035,413.0,533,460,60,120.0,259,1,445,341,105,0,0,446,770,-26615,413,,,,,,,,,,,,
554143,1560691825961,2,2.44,2.2,3.44,2.43,5.05,0.38,-0.74,0.78,26,-1,35,0.83,7948,44,88,35,65,1011,415.0,542,456,60,121.0,259,1,447,336,105,0,0,405,-992,3826,415,45.701023,4.909821,36.19,198.8,5,1.8283,0,0.0,0.0767,6,0.09,9.2357
554163,1560691825981,4,2.42,2.24,3.41,2.43,5.05,0.39,-0.76,0.82,26,-1,34,0.85,8002,44,88,35,64,987,417.0,541,458,60,120.0,259,1,450,329,105,0,0,408,240,3635,417,,,,,,,,,,,,
554183,1560691825993,2,2.39,2.28,3.36,2.44,5.05,0.46,-0.87,0.86,25,-1,33,0.99,7992,45,88,35,64,976,419.0,544,456,60,119.0,241,1,449,328,101,0,0,426,-1562,-768,419,,,,,,,,,,,,
554203,1560691826013,0,2.38,2.35,3.32,2.45,5.05,0.42,-0.85,0.9,23,0,32,0.95,7944,45,88,35,64,966,421.0,548,462,60,120.0,241,1,448,327,101,0,0,433,-32702,31796,423,,,,,,,,,,,,
554223,1560691826033,3,2.36,2.36,3.3,2.44,5.04,0.44,-0.79,0.88,22,-1,29,0.9,7985,45,88,35,63,945,423.0,550,457,60,120.0,241,1,449,321,101,0,0,429,10541,-3322,423,,,,,,,,,,,,
554243,1560691826053,1,2.35,2.35,3.29,2.41,5.04,0.52,-0.75,0.85,20,-2,28,0.91,7982,45,88,35,63,923,426.0,543,457,60,120.0,241,1,449,321,101,0,0,426,9517,3635,426,45.701027,4.909831,37.32,198.8,5,1.8283,0,0.0,0.0783,6,0.09,9.2374
554263,1560691826073,1,2.32,2.36,3.25,2.39,5.04,0.45,-0.63,0.86,19,-1,27,0.78,8033,45,88,35,63,912,426.0,557,457,60,120.0,241,1,450,322,101,0,0,428,2524,-7939,427,,,,,,,,,,,,
554283,1560691826099,4,2.32,2.38,3.22,2.38,5.04,0.44,-0.49,0.85,18,-0,26,0.66,8120,45,88,35,62,901,429.0,558,456,60,120.0,224,1,450,320,96,0,0,430,-3414,19477,429,,,,,,,,,,,,
554303,1560691826119,1,2.31,2.38,3.21,2.37,5.04,0.47,-0.42,0.94,16,-1,25,0.63,8162,45,88,35,62,890,431.0,550,455,60,120.0,224,1,449,314,96,0,0,438,7154,23400,431,,,,,,,,,,,,
554323,1560691826139,3,2.31,2.39,3.2,2.35,5.04,0.46,-0.39,0.91,16,0,23,0.61,8241,45,88,35,61,881,432.0,571,462,60,120.0,224,1,449,319,96,0,0,439,-3856,2131,433,,,,,,,,,,,,
554343,1560691826159,3,2.31,2.38,3.2,2.35,5.06,0.49,-0.46,0.99,15,-1,21,0.67,8322,46,88,35,61,879,436.0,583,460,60,119.0,224,1,448,324,96,0,0,447,-3314,-28332,436,45.701035,4.909842,38.99,198.8,5,1.8283,0,0.0,0.08,6,0.09,9.239
554363,1560691826179,1,2.31,2.38,3.21,2.35,5.04,0.51,-0.51,0.9,13,-0,19,0.72,8408,46,88,35,59,881,439.0,570,451,60,120.0,224,1,430,313,96,0,0,453,243,16648,439,,,,,,,,,,,,
554383,1560691826199,3,2.3,2.38,3.2,2.36,5.04,0.42,-0.44,0.91,12,1,19,0.61,8461,46,88,35,59,891,443.0,583,461,60,120.0,231,1,430,315,102,0,0,451,-7939,-3267,441,,,,,,,,,,,,
554403,1560691826219,2,2.31,2.4,3.17,2.35,5.06,0.54,-0.44,1.0,11,-1,18,0.7,8522,46,88,35,58,903,444.0,579,457,60,120.0,231,1,420,308,102,0,0,453,21580,14488,444,,,,,,,,,,,,
554423,1560691826239,1,2.31,2.4,3.17,2.34,5.06,0.5,-0.46,0.99,10,0,16,0.68,8518,47,88,35,58,914,446.0,586,464,60,120.0,231,1,421,317,102,0,0,460,23400,-9160,446,,,,,,,,,,,,
554443,1560691826259,2,2.32,2.39,3.16,2.33,5.06,0.44,-0.26,0.94,10,0,15,0.52,8565,47,88,35,58,924,449.0,588,455,60,119.0,231,1,419,310,102,0,0,459,10305,-23623,449,45.701042,4.909853,40.45,198.8,5,1.8283,0,0.0,0.0817,6,0.09,9.2407
554463,1560691826279,5,2.32,2.38,3.17,2.34,5.03,0.44,-0.24,0.98,10,2,14,0.5,8581,47,88,35,58,943,453.0,593,453,60,120.0,231,1,417,311,102,0,0,466,15649,16408,454,,,,,,,,,,,,
554483,1560691826301,2,2.32,2.38,3.2,2.35,5.04,0.58,-0.42,1.07,9,0,11,0.71,8664,47,88,35,57,966,457.0,592,460,60,121.0,218,1,408,313,99,0,0,466,-6387,-23623,457,,,,,,,,,,,,
554503,1560691826321,-1,2.34,2.39,3.22,2.34,5.06,0.55,-0.39,0.97,8,-1,10,0.68,8733,48,88,35,57,981,459.0,592,462,60,121.0,218,1,406,308,99,0,0,469,2524,16408,459,,,,,,,,,,,,
554523,1560691826341,0,2.33,2.37,3.25,2.32,5.07,0.46,-0.19,0.89,8,-0,11,0.5,8786,48,88,35,57,993,463.0,617,463,60,121.0,218,1,404,309,99,0,0,473,-9160,243,463,,,,,,,,,,,,
554543,1560691826361,-0,2.33,2.36,3.23,2.31,5.07,0.33,-0.08,0.89,9,0,9,0.34,8861,48,88,35,57,1015,463.0,616,453,60,121.0,218,1,402,311,99,0,0,473,-18108,-17956,466,45.70105,4.909865,41.64,198.8,5,1.8283,0,0.0,0.0833,6,0.09,9.2424
554563,1560691826381,4,2.34,2.35,3.23,2.31,5.08,0.29,0.01,0.85,9,-0,10,0.29,8894,49,88,35,57,1040,467.0,620,457,60,119.0,218,1,401,305,99,0,0,470,2211,2212,467,,,,,,,,,,,,
554583,1560691826401,2,2.35,2.36,3.22,2.32,5.07,0.25,-0.0,0.86,9,-0,10,0.25,8945,49,88,35,57,1060,468.0,624,455,60,120.0,223,1,399,314,105,0,0,472,6193,16648,469,,,,,,,,,,,,
554603,1560691826421,2,2.35,2.36,3.21,2.33,5.06,0.31,-0.09,0.93,9,-1,11,0.32,8937,49,88,35,56,1073,471.0,597,465,60,120.0,223,1,399,305,105,0,0,477,6193,-23367,471,,,,,,,,,,,,
554623,1560691826441,4,2.35,2.34,3.28,2.32,5.08,0.37,-0.21,0.98,8,1,11,0.43,9001,49,88,35,57,1093,475.0,610,456,60,120.0,223,1,399,316,105,0,0,482,243,10305,475,,,,,,,,,,,,
554643,1560691826461,6,2.35,2.33,3.29,2.32,5.04,0.37,-0.26,1.02,8,-0,13,0.45,9057,50,88,35,57,1120,478.0,618,455,60,120.0,223,1,400,318,105,0,0,490,10432,-6441,478,45.701057,4.909878,43.43,198.7,5,1.8283,0,0.0,0.085,6,0.09,9.2441
554663,1560691826481,1,2.36,2.33,3.25,2.31,5.08,0.36,-0.27,1.07,8,2,12,0.45,9101,50,88,35,57,1141,480.0,610,453,60,120.0,223,1,400,318,105,0,0,483,32033,-1562,480,,,,,,,,,,,,
554683,1560691826501,1,2.36,2.37,3.24,2.33,5.04,0.22,-0.19,0.99,9,2,12,0.29,9195,50,88,35,57,1154,481.0,619,455,60,120.0,228,1,401,320,110,0,0,488,3576,998,481,,,,,,,,,,,,
554703,1560691826521,2,2.38,2.35,3.25,2.33,5.06,0.14,-0.1,0.94,9,1,11,0.18,9286,50,88,35,57,1170,483.0,613,462,60,121.0,228,1,402,323,110,0,0,489,-9203,248,483,,,,,,,,,,,,
554723,1560691826541,5,2.38,2.34,3.27,2.35,5.04,0.24,-0.1,0.92,8,-1,11,0.26,9342,50,88,35,57,1189,485.0,621,461,60,120.0,228,1,403,324,110,0,0,500,-17956,771,489,,,,,,,,,,,,
554743,1560691826561,3,2.38,2.34,3.27,2.35,5.04,0.4,-0.17,0.96,8,-1,11,0.43,9393,50,88,35,56,1203,491.0,618,456,60,120.0,228,1,402,325,110,0,0,501,16648,11560,491,45.701061,4.909891,44.73,198.7,5,1.8283,0,0.0,0.0867,6,0.09,9.2457
554763,1560691826581,-1,2.39,2.33,3.27,2.34,5.06,0.38,-0.24,0.99,9,-1,11,0.45,9403,50,88,34,56,1207,495.0,636,458,60,119.0,228,1,402,323,110,0,0,508,-899,10994,495,,,,,,,,,,,,
554783,1560691826601,1,2.4,2.34,3.26,2.36,5.07,0.19,-0.1,0.89,10,1,11,0.22,9455,50,88,34,56,1204,498.0,642,460,60,120.0,233,1,403,324,116,0,0,503,-10483,-4054,498,,,,,,,,,,,,
554803,1560691826621,5,2.4,2.33,3.27,2.39,5.08,0.33,-0.12,0.94,10,-2,10,0.35,9488,51,88,34,56,1192,500.0,628,462,60,120.0,233,1,404,325,116,0,0,502,-10483,17136,500,,,,,,,,,,,,
554823,1560691826641,0,2.41,2.33,3.28,2.39,5.06,0.44,-0.26,1.0,10,-2,10,0.51,9571,51,88,34,56,1179,504.0,629,462,60,120.0,233,1,404,327,116,0,0,515,-1562,10408,504,,,,,,,,,,,,
554843,1560691826661,4,2.4,2.34,3.31,2.42,5.06,0.25,-0.15,0.98,11,0,11,0.3,9625,51,88,34,56,1162,507.0,627,459,60,120.0,233,1,403,327,116,0,0,519,248,6274,508,45.701069,4.909905,45.64,198.7,5,1.8283,0,0.0,0.0883,6,0.1,9.2474
554863,1560691826681,1,2.4,2.33,3.31,2.44,5.03,0.32,-0.21,0.97,10,-3,12,0.38,9684,51,88,34,56,1143,511.0,627,455,60,120.0,233,1,403,328,116,0,0,520,248,-14,512,,,,,,,,,,,,
554883,1560691826701,3,2.41,2.32,3.29,2.43,5.03,0.25,-0.25,0.98,11,0,14,0.35,9725,51,88,34,55,1114,514.0,632,459,60,120.0,237,1,401,323,121,0,0,519,998,15679,510,,,,,,,,,,,,
554903,1560691826721,2,2.4,2.32,3.3,2.43,5.07,0.32,-0.28,0.99,12,-1,13,0.43,9791,51,88,34,55,1088,515.0,630,456,60,119.0,237,1,401,323,121,0,0,520,2524,2088,517,,,,,,,,,,,,
554923,1560691826741,4,2.4,2.3,3.32,2.43,5.03,0.25,-0.33,1.05,12,-1,13,0.42,9868,51,88,34,55,1076,519.0,623,462,60,120.0,237,1,401,324,121,0,0,530,2524,-28648,521,,,,,,,,,,,,
554943,1560691826761,3,2.4,2.29,3.31,2.43,5.07,0.27,-0.28,0.96,12,0,13,0.39,9873,51,88,34,55,1061,522.0,636,458,60,120.0,237,1,401,324,121,0,0,535,10408,-9072,524,45.701076,4.909919,47.04,198.7,5,1.8283,0,0.0,0.09,6,0.1,9.2491
554963,1560691826781,0,2.4,2.31,3.31,2.44,5.04,0.37,-0.36,0.88,13,-2,13,0.51,9936,51,88,34,55,1038,524.0,633,460,60,120.0,237,1,401,325,121,0,0,536,6274,-32248,527,,,,,,,,,,,,
554983,1560691826800,3,2.4,2.29,3.34,2.44,5.04,0.24,-0.43,0.78,13,-1,14,0.49,10026,51,88,34,55,1015,528.0,621,455,60,120.0,231,1,401,325,122,0,0,537,-28648,14504,528,,,,,,,,,,,,
555003,1560691826820,3,2.39,2.3,3.34,2.44,5.04,0.28,-0.44,0.74,12,1,14,0.53,10032,51,88,34,55,1005,528.0,638,460,60,120.0,231,1,401,326,122,0,0,550,-3856,-28648,532,,,,,,,,,,,,
555023,1560691826840,3,2.4,2.29,3.33,2.43,5.07,0.36,-0.49,0.75,13,-0,13,0.61,10102,51,88,34,55,995,534.0,638,458,60,120.0,231,1,402,327,122,0,0,530,-3482,-30064,534,,,,,,,,,,,,
555043,1560691826860,3,2.39,2.3,3.33,2.44,5.04,0.23,-0.51,0.76,14,0,14,0.56,10184,51,88,34,55,985,535.0,651,453,60,120.0,231,1,403,328,122,0,0,539,-14,-8962,535,45.70108,4.909934,48.54,198.7,5,1.8283,0,0.0,0.0917,6,0.1,9.2507
555063,1560691826880,4,2.39,2.29,3.33,2.44,5.08,0.24,-0.48,0.75,14,1,14,0.54,10168,51,88,34,55,975,537.0,621,454,60,120.0,231,1,403,328,122,0,0,545,1248,-28648,537,,,,,,,,,,,,
555083,1560691826900,3,2.4,2.3,3.33,2.45,5.04,0.25,-0.44,0.71,14,1,13,0.51,10240,51,88,34,55,975,540.0,645,457,60,120.0,242,1,404,328,131,0,0,547,1248,-22519,540,,,,,,,,,,,,
555103,1560691826920,4,2.38,2.28,3.36,2.42,5.04,0.43,-0.47,0.76,13,-2,14,0.63,10268,52,88,34,56,975,544.0,631,456,60,120.0,242,1,408,339,131,0,0,557,2524,-506,544,,,,,,,,,,,,
555123,1560691826940,3,2.39,2.28,3.35,2.43,5.08,0.5,-0.49,0.72,13,0,14,0.7,10290,52,88,34,56,974,546.0,636,456,60,120.0,242,1,410,339,131,0,0,555,6274,2524,545,,,,,,,,,,,,
555143,1560691826960,3,2.38,2.28,3.34,2.42,5.07,0.58,-0.53,0.75,14,2,14,0.79,10393,53,88,34,56,974,548.0,636,455,60,120.0,242,1,411,341,131,0,0,545,-28648,6273,548,45.701088,4.909949,49.9,198.7,5,1.8283,0,0.0,0.0933,6,0.1,9.2524
555163,1560691826980,3,2.37,2.28,3.35,2.43,5.06,0.56,-0.55,0.7,14,0,15,0.79,10393,53,88,34,57,973,552.0,636,460,60,120.0,242,1,417,349,131,0,0,560,-22519,6273,552,,,,,,,,,,,,
555183,1560691826994,1,2.38,2.29,3.34,2.43,5.07,0.51,-0.54,0.7,14,4,16,0.74,10486,54,88,34,57,972,554.0,642,459,60,120.0,250,1,420,351,138,0,0,560,-32248,-32504,554,,,,,,,,,,,,
555203,1560691827014,3,2.37,2.28,3.34,2.43,5.05,0.55,-0.49,0.77,14,3,18,0.74,10498,55,88,34,58,969,556.0,636,453,60,120.0,250,1,428,360,138,0,0,560,6274,-18032,555,,,,,,,,,,,,
555223,1560691827034,0,2.38,2.28,3.32,2.43,5.08,0.58,-0.53,0.79,13,3,18,0.79,10599,56,88,34,59,966,558.0,636,456,60,120.0,250,1,435,370,138,0,0,566,-8186,-18032,558,,,,,,,,,,,,
555243,1560691827054,1,2.37,2.28,3.32,2.42,5.04,0.61,-0.51,0.77,14,4,18,0.79,10605,56,88,34,59,964,559.0,649,466,60,122.0,250,1,435,371,138,0,0,568,-506,-3190,559,45.701096,4.909966,51.09,198.6,5,1.8283,0,0.0,0.095,6,0.1,9.2541
555263,1560691827074,0,2.37,2.28,3.32,2.42,5.07,0.61,-0.52,0.73,13,2,18,0.8,10217,57,88,34,61,963,562.0,646,460,60,122.0,250,1,426,380,138,0,0,562,1779,1267,561,,,,,,,,,,,,
555283,1560691827100,0,2.37,2.26,3.33,2.39,5.07,0.61,-0.53,0.69,13,3,18,0.81,9811,58,88,34,63,964,562.0,642,458,60,122.0,258,1,409,378,145,0,0,554,-506,-22359,562,,,,,,,,,,,,
555303,1560691827120,-1,2.35,2.23,3.36,2.35,5.04,0.75,-0.62,0.81,13,-1,17,0.98,9625,61,88,34,66,964,561.0,630,460,60,122.0,258,1,412,381,145,0,0,540,2524,2211,561,,,,,,,,,,,,
555323,1560691827140,-0,2.35,2.21,3.39,2.33,5.07,0.54,-0.5,0.74,12,-2,17,0.74,9426,65,88,34,68,967,566.0,628,466,60,121.0,258,1,415,379,145,0,0,544,-22519,1780,561,,,,,,,,,,,,
555343,1560691827160,-1,2.35,2.22,3.39,2.33,5.04,0.42,-0.45,0.6,12,6,12,0.62,9218,68,88,34,71,970,562.0,633,458,60,122.0,258,1,414,407,145,0,0,552,2524,-22359,562,45.701103,4.909983,52.64,198.6,5,1.8283,0,0.0,0.0967,6,0.1,9.2557
555363,1560691827180,6,2.34,2.23,3.39,2.35,5.07,0.43,-0.39,0.56,12,5,13,0.58,8753,71,88,34,74,1026,565.0,622,466,60,120.0,258,1,421,731,145,0,0,576,2524,-4035,565,,,,,,,,,,,,
555383,1560691827200,5,2.34,2.29,3.31,2.4,5.06,0.41,-0.46,0.57,13,7,14,0.62,8050,72,88,34,79,1100,569.0,583,450,60,120.0,416,1,437,707,235,0,0,643,6274,-3820,569,,,,,,,,,,,,
555403,1560691827220,2,2.35,2.32,3.26,2.41,5.07,0.35,-0.46,0.59,13,7,15,0.58,7832,72,88,34,81,1171,573.0,544,459,60,120.0,416,1,428,660,235,0,0,595,-32504,243,573,,,,,,,,,,,,
555423,1560691827240,2,2.35,2.31,3.25,2.4,5.08,0.3,-0.45,0.62,13,7,15,0.54,8074,72,88,34,82,1244,574.0,546,454,60,120.0,416,1,437,611,235,0,0,572,6273,-25872,578,,,,,,,,,,,,
555443,1560691827260,1,2.35,2.31,3.23,2.4,5.04,0.4,-0.5,0.67,13,6,16,0.64,8169,72,88,34,82,1323,576.0,541,452,60,120.0,416,1,434,522,235,0,0,588,2211,17344,576,45.701107,4.91,53.61,198.6,5,1.8283,0,0.0,0.0983,6,0.1,9.2574
555463,1560691827280,2,2.35,2.31,3.23,2.4,5.07,0.39,-0.43,0.71,12,8,16,0.58,8212,72,88,34,82,1407,582.0,555,462,60,120.0,416,1,433,515,235,0,0,595,-8186,19621,581,,,,,,,,,,,,
555483,1560691827300,3,2.36,2.35,3.23,2.42,5.06,0.39,-0.42,0.81,12,7,13,0.57,8220,72,88,34,81,1455,586.0,549,455,60,121.0,267,1,433,515,156,0,0,611,-8188,5344,586,,,,,,,,,,,,
555503,1560691827320,1,2.36,2.4,3.23,2.44,5.07,0.38,-0.43,0.8,12,4,12,0.57,8198,72,88,34,82,1467,591.0,556,457,60,120.0,267,1,434,513,156,0,0,607,1,19304,589,,,,,,,,,,,,
555523,1560691827340,5,2.36,2.4,3.24,2.44,5.04,0.43,-0.4,0.74,11,5,13,0.58,8220,73,88,34,81,1443,594.0,548,457,60,120.0,267,1,433,515,156,0,0,608,-16384,28675,594,,,,,,,,,,,,
555543,1560691827360,1,2.35,2.39,3.24,2.43,5.06,0.39,-0.36,0.79,11,4,13,0.53,8337,73,88,34,82,1383,597.0,570,457,60,120.0,267,1,430,526,156,0,0,612,15649,28675,599,45.701111,4.910018,54.54,198.6,5,1.8283,0,0.0,0.1,6,0.11,9.2591
555563,1560691827380,1,2.34,2.4,3.24,2.44,5.04,0.44,-0.34,0.78,11,4,14,0.55,8411,73,88,34,81,1317,601.0,576,453,60,120.0,267,1,429,519,156,0,0,619,-32504,3395,601,,,,,,,,,,,,
555583,1560691827400,3,2.36,2.4,3.25,2.43,5.07,0.33,-0.29,0.82,11,4,14,0.44,8495,73,88,34,80,1245,607.0,572,463,60,120.0,275,1,428,525,166,0,0,622,6273,3395,607,,,,,,,,,,,,
555603,1560691827420,1,2.35,2.39,3.27,2.42,5.06,0.33,-0.24,0.86,11,3,14,0.41,8546,73,88,34,80,1175,612.0,578,446,60,120.0,275,1,426,512,166,0,0,630,23619,-1346,610,,,,,,,,,,,,
555623,1560691827440,2,2.35,2.38,3.27,2.42,5.06,0.38,-0.31,0.95,10,4,12,0.49,8604,73,88,34,79,1110,615.0,590,456,60,120.0,275,1,424,497,166,0,0,645,243,3,615,,,,,,,,,,,,
555643,1560691827460,1,2.35,2.38,3.26,2.43,5.07,0.45,-0.4,0.97,11,1,13,0.6,8640,73,88,34,78,1061,619.0,579,462,60,120.0,275,1,423,497,166,0,0,630,-3820,-2830,619,45.701118,4.910038,56.32,198.5,5,1.8283,0,0.0,0.1017,6,0.11,9.2607
555663,1560691827480,4,2.37,2.37,3.25,2.43,5.07,0.41,-0.38,0.98,11,3,13,0.56,8692,73,88,34,79,1068,621.0,591,447,60,120.0,275,1,423,483,166,0,0,629,-30139,-2580,623,,,,,,,,,,,,
555683,1560691827500,4,2.35,2.37,3.26,2.43,5.03,0.41,-0.3,0.93,11,2,12,0.51,8696,73,88,34,78,1078,628.0,605,454,60,120.0,256,1,422,483,160,0,0,640,1010,-3584,628,,,,,,,,,,,,
555703,1560691827520,3,2.37,2.37,3.26,2.45,5.03,0.37,-0.3,0.89,11,4,12,0.48,8773,73,88,34,77,1095,631.0,576,461,60,120.0,256,1,420,483,160,0,0,648,26688,4909,631,,,,,,,,,,,,
555723,1560691827540,3,2.38,2.37,3.27,2.45,5.07,0.39,-0.43,0.95,11,2,10,0.58,8856,73,88,34,78,1110,637.0,582,461,60,120.0,256,1,418,483,160,0,0,654,19304,-3488,633,,,,,,,,,,,,
555743,1560691827560,3,2.37,2.36,3.27,2.46,5.03,0.47,-0.52,0.93,11,1,12,0.7,8945,73,88,34,77,1120,639.0,585,460,60,120.0,256,1,415,470,160,0,0,657,17336,-2345,639,45.701122,4.910057,58.51,198.5,5,1.8283,0,0.0,0.1033,6,0.11,9.2624
555763,1560691827580,3,2.38,2.35,3.27,2.47,5.04,0.57,-0.66,1.03,11,2,12,0.87,9010,73,88,34,78,1131,643.0,597,456,60,120.0,256,1,414,483,160,0,0,660,-1346,3543,643,,,,,,,,,,,,
555783,1560691827598,2,2.39,2.35,3.28,2.47,5.07,0.63,-0.72,1.06,11,-0,13,0.95,8979,73,88,34,77,1143,649.0,600,454,60,120.0,247,1,414,470,160,0,0,665,506,31988,649,,,,,,,,,,,,
555803,1560691827618,3,2.4,2.33,3.32,2.47,5.08,0.69,-0.8,1.14,11,-1,13,1.06,8971,72,88,34,76,1155,653.0,608,457,60,120.0,247,1,414,470,160,0,0,669,966,-26380,653,,,,,,,,,,,,
555823,1560691827638,4,2.39,2.31,3.32,2.48,5.07,0.81,-0.92,1.15,12,-2,15,1.23,9071,72,88,34,76,1158,658.0,610,463,60,120.0,247,1,413,456,160,0,0,664,-5120,-388,658,,,,,,,,,,,,
555843,1560691827658,2,2.4,2.31,3.33,2.49,5.06,0.81,-1.03,1.21,12,-2,16,1.31,9186,72,88,34,76,1161,657.0,626,455,60,120.0,247,1,414,456,160,0,0,664,-2580,-2345,660,45.701126,4.910078,60.19,198.5,5,1.8283,0,0.0,0.105,6,0.11,9.264
555863,1560691827678,1,2.4,2.32,3.33,2.51,5.03,0.71,-1.09,1.16,13,-0,16,1.3,9291,72,88,34,75,1164,662.0,619,457,60,120.0,247,1,414,446,160,0,0,680,16599,-10344,662,,,,,,,,,,,,
555883,1560691827700,2,2.39,2.31,3.34,2.52,5.04,0.64,-0.94,1.11,13,0,16,1.14,9314,71,88,34,75,1166,665.0,632,452,60,120.0,237,1,414,446,158,0,0,686,16599,-26562,666,,,,,,,,,,,,
555903,1560691827720,3,2.39,2.3,3.34,2.52,5.04,0.71,-0.83,1.12,14,-1,18,1.09,9346,70,88,34,74,1166,673.0,620,460,60,120.0,237,1,415,436,158,0,0,698,-8429,-26562,673,,,,,,,,,,,,
555923,1560691827740,5,2.39,2.29,3.34,2.52,5.05,0.79,-0.95,1.17,14,-2,18,1.24,9379,67,88,34,72,1166,676.0,619,457,60,120.0,237,1,415,427,158,0,0,697,4909,11576,676,,,,,,,,,,,,
555943,1560691827760,1,2.39,2.29,3.36,2.51,5.04,0.72,-0.95,1.23,14,-2,17,1.19,9417,63,88,33,70,1163,678.0,624,455,60,119.0,237,1,415,398,158,0,0,696,-3488,-3584,678,45.70113,4.910099,62.35,198.5,5,1.8283,0,0.0,0.1067,6,0.11,9.2657
555963,1560691827780,1,2.4,2.29,3.38,2.53,5.08,0.56,-0.72,1.13,14,-2,18,0.92,9455,62,88,33,68,1159,683.0,625,455,60,120.0,237,1,415,375,158,0,0,700,-2830,19188,681,,,,,,,,,,,,
555983,1560691827799,2,2.4,2.29,3.36,2.53,5.07,0.71,-0.85,1.14,14,-2,19,1.11,9517,61,88,33,66,1156,686.0,623,452,60,120.0,196,1,415,371,134,0,0,706,-3038,19188,685,,,,,,,,,,,,
556003,1560691827819,-0,2.39,2.3,3.37,2.54,5.04,0.74,-0.96,1.16,14,-2,18,1.21,9517,61,88,33,65,1152,686.0,621,455,60,120.0,196,1,415,370,134,0,0,697,-26380,687,686,,,,,,,,,,,,
556023,1560691827839,2,2.4,2.3,3.37,2.55,5.04,0.63,-0.82,1.07,14,-2,19,1.03,9517,61,88,33,64,1137,688.0,643,456,60,120.0,196,1,414,362,134,0,0,710,-2826,-3584,688,,,,,,,,,,,,
556043,1560691827859,4,2.4,2.29,3.4,2.54,5.07,0.74,-0.93,1.02,15,-3,21,1.19,9532,61,88,33,64,1122,693.0,631,462,60,120.0,196,1,414,363,134,0,0,706,1549,6658,690,45.701134,4.910121,64.33,198.6,5,1.8283,0,0.0,0.1083,6,0.11,9.2674
556063,1560691827879,1,2.4,2.28,3.46,2.53,5.04,0.65,-0.93,1.04,15,-2,21,1.13,9605,59,88,33,63,1109,695.0,642,456,60,120.0,196,1,413,364,134,0,0,717,-3038,-13312,695,,,,,,,,,,,,
556083,1560691827901,2,2.39,2.26,3.45,2.53,5.06,0.51,-0.86,0.96,16,-3,23,1.01,9699,58,88,33,62,1097,698.0,622,459,60,120.0,189,1,413,365,132,0,0,707,-26380,31988,700,,,,,,,,,,,,
556103,1560691827921,2,2.38,2.25,3.47,2.52,5.07,0.64,-0.92,0.98,15,-1,22,1.12,9765,58,88,33,62,1078,702.0,630,457,60,120.0,189,1,412,369,132,0,0,711,-10344,-2560,703,,,,,,,,,,,,
556123,1560691827941,4,2.38,2.25,3.45,2.54,5.04,0.57,-0.91,1.03,16,-3,23,1.08,9770,57,88,33,61,1058,705.0,644,458,60,120.0,189,1,412,363,132,0,0,724,-26892,-2830,705,,,,,,,,,,,,
556143,1560691827961,1,2.38,2.26,3.44,2.54,5.05,0.58,-0.87,1.07,16,-3,22,1.05,9775,56,88,33,60,1047,707.0,624,461,60,120.0,189,1,409,356,132,0,0,720,-2345,-31068,709,45.701138,4.910144,66.15,198.6,5,1.8283,0,0.0,0.11,6,0.12,9.269
556163,1560691827981,1,2.38,2.25,3.41,2.54,5.05,0.54,-0.86,1.06,16,-2,21,1.02,9811,54,88,33,59,1039,714.0,626,455,60,120.0,189,1,407,352,132,0,0,716,-10344,-2830,714,,,,,,,,,,,,
556183,1560691827995,3,2.36,2.24,3.4,2.53,5.04,0.62,-0.79,1.02,15,-4,21,1.01,9760,52,88,33,58,1027,711.0,621,459,60,120.0,182,1,406,344,129,0,0,718,-10399,-388,713,,,,,,,,,,,,
556203,1560691828015,2,2.35,2.25,3.42,2.51,5.05,0.69,-0.84,1.02,15,-2,21,1.08,9740,48,88,33,56,1013,712.0,623,459,60,120.0,182,1,403,329,129,0,0,729,-2830,-388,712,,,,,,,,,,,,
556223,1560691828035,2,2.34,2.25,3.43,2.5,5.04,0.58,-0.82,1.03,15,-2,21,1.0,9770,45,88,33,54,1005,714.0,631,461,60,120.0,182,1,400,317,129,0,0,724,14342,31988,714,,,,,,,,,,,,
556243,1560691828055,5,2.33,2.24,3.43,2.47,5.04,0.55,-0.79,0.99,14,1,20,0.97,9791,43,88,33,52,999,718.0,630,458,60,120.0,182,1,394,295,129,0,0,727,16599,-2918,718,45.701141,4.910167,67.61,198.6,5,1.8283,0,0.0,0.1117,6,0.12,9.2707
556263,1560691828075,3,2.33,2.25,3.42,2.47,5.04,0.58,-0.74,0.99,13,1,19,0.95,9755,43,88,33,50,983,716.0,653,455,60,120.0,182,1,388,275,129,0,0,719,6208,-2358,716,,,,,,,,,,,,
556283,1560691828101,3,2.32,2.27,3.39,2.46,5.04,0.67,-0.82,1.0,13,-2,18,1.06,9775,43,88,33,50,962,716.0,638,461,60,120.0,141,1,388,275,102,0,0,721,19188,-388,716,,,,,,,,,,,,
556303,1560691828121,4,2.29,2.27,3.4,2.44,5.04,0.57,-0.76,0.94,13,-1,16,0.95,9801,43,88,33,49,944,718.0,631,464,60,120.0,141,1,385,264,102,0,0,720,11069,31988,716,,,,,,,,,,,,
556323,1560691828141,4,2.28,2.26,3.36,2.42,5.04,0.68,-0.76,0.92,11,-0,15,1.02,9821,42,88,33,48,929,720.0,645,460,60,120.0,141,1,382,254,102,0,0,727,6658,-22796,720,,,,,,,,,,,,
556343,1560691828161,4,2.26,2.26,3.34,2.41,5.03,0.68,-0.57,0.9,10,-2,16,0.89,9801,40,88,33,47,908,715.0,638,457,60,120.0,141,1,380,244,102,0,0,720,-30694,-3344,715,45.701141,4.910191,69.07,198.6,5,1.8283,0,0.0,0.1133,6,0.12,9.2724
556363,1560691828181,1,2.24,2.29,3.32,2.38,5.04,0.79,-0.61,0.92,9,-2,15,1.0,9786,37,88,33,46,881,715.0,627,465,60,120.0,141,1,372,239,102,0,0,723,-13072,-25858,718,,,,,,,,,,,,
556383,1560691828201,3,2.24,2.3,3.28,2.35,5.07,0.66,-0.44,0.79,8,-0,15,0.79,9786,33,88,33,44,861,717.0,626,452,60,120.0,121,1,357,233,87,0,0,724,204,16118,715,,,,,,,,,,,,
556403,1560691828221,0,2.24,2.32,3.24,2.3,5.04,0.79,-0.52,0.83,6,-1,12,0.95,9770,30,88,33,41,850,720.0,623,451,60,120.0,121,1,335,223,87,0,0,725,-31068,-3450,720,,,,,,,,,,,,
556423,1560691828241,2,2.24,2.31,3.22,2.24,5.04,0.71,-0.34,0.76,5,-0,11,0.79,9679,28,88,33,39,837,718.0,636,456,60,120.0,121,1,320,216,87,0,0,721,-31068,687,715,,,,,,,,,,,,
556443,1560691828261,5,2.24,2.31,3.23,2.2,5.04,0.85,-0.43,0.81,3,-2,9,0.95,9635,27,88,33,37,823,720.0,626,462,60,120.0,121,1,314,211,87,0,0,724,-3450,-13312,714,45.701141,4.910216,69.6,198.6,5,1.8283,0,0.0,0.115,6,0.12,9.274
556463,1560691828281,1,2.23,2.35,3.23,2.15,5.08,0.79,-0.27,0.68,2,-2,7,0.84,9615,27,88,33,35,811,722.0,631,459,60,120.0,121,1,308,206,87,0,0,715,-388,204,714,,,,,,,,,,,,
556483,1560691828301,4,2.22,2.35,3.21,2.12,5.04,0.66,-0.07,0.6,1,0,6,0.67,9527,26,88,33,34,809,720.0,631,456,60,121.0,103,1,305,203,74,0,0,723,-2830,-3888,714,,,,,,,,,,,,
556503,1560691828321,3,2.23,2.35,3.2,2.08,5.08,0.8,-0.25,0.74,-0,-4,4,0.84,9417,26,88,33,33,804,723.0,651,458,60,120.0,103,1,302,198,74,0,0,721,-25858,-13312,712,,,,,,,,,,,,
556523,1560691828341,5,2.22,2.39,3.17,2.07,5.04,0.84,-0.29,0.74,-2,-1,2,0.89,9245,26,88,33,33,796,721.0,641,456,60,120.0,103,1,302,195,74,0,0,723,31988,-12152,706,,,,,,,,,,,,
556543,1560691828361,3,2.21,2.41,3.16,2.04,5.08,0.7,-0.17,0.62,-3,-3,1,0.72,9155,26,88,33,32,789,720.0,632,459,60,120.0,103,1,300,192,74,0,0,719,-2830,-2918,709,45.701141,4.910241,70.2,198.6,5,1.8283,0,0.0,0.1167,6,0.12,9.2757
556563,1560691828381,1,2.2,2.42,3.15,2.0,5.05,0.55,0.05,0.48,-3,3,1,0.55,9110,26,88,33,32,784,720.0,618,455,60,120.0,103,1,300,190,74,0,0,723,-3450,-13072,705,,,,,,,,,,,,
556583,1560691828401,0,2.18,2.42,3.15,1.98,5.08,0.41,0.25,0.37,-4,0,0,0.48,9084,26,88,33,31,779,721.0,624,458,60,120.0,92,1,295,188,65,0,0,709,31988,8010,705,,,,,,,,,,,,
556603,1560691828421,0,2.18,2.42,3.16,1.94,5.06,0.32,0.42,0.28,-4,3,0,0.53,9218,25,88,33,31,774,716.0,616,459,60,120.0,92,1,295,191,65,0,0,707,-3450,-10399,703,,,,,,,,,,,,
556623,1560691828441,3,2.18,2.42,3.16,1.9,5.07,0.49,0.45,0.33,-6,1,-2,0.66,9375,25,88,33,31,769,719.0,621,459,60,120.0,92,1,295,194,65,0,0,701,-2560,-26562,697,,,,,,,,,,,,
556643,1560691828461,4,2.18,2.42,3.16,1.86,5.04,0.64,0.34,0.44,-8,0,-5,0.73,9431,25,88,33,31,768,714.0,626,465,60,121.0,92,1,295,193,65,0,0,703,-31068,-2345,697,45.701141,4.910265,69.72,198.6,5,1.8283,0,0.0,0.1183,6,0.12,9.2774
556663,1560691828481,2,2.17,2.44,3.15,1.86,5.04,0.52,0.46,0.31,-8,3,-6,0.69,9426,25,88,33,30,768,714.0,631,460,60,120.0,92,1,291,193,65,0,0,707,204,6208,694,,,,,,,,,,,,
556683,1560691828501,1,2.17,2.45,3.14,1.84,5.06,0.44,0.61,0.35,-9,-1,-6,0.75,9375,25,88,33,31,767,713.0,646,458,60,120.0,98,1,295,194,68,0,0,702,204,16118,690,,,,,,,,,,,,
556703,1560691828521,3,2.16,2.45,3.1,1.82,5.04,0.6,0.64,0.4,-11,3,-9,0.88,9356,25,88,33,32,766,713.0,633,458,60,120.0,98,1,300,195,68,0,0,705,-13312,-2345,690,,,,,,,,,,,,
556723,1560691828541,4,2.16,2.48,3.08,1.79,5.05,0.73,0.4,0.45,-12,-0,-12,0.84,9323,25,88,33,32,766,710.0,645,458,60,120.0,98,1,300,195,68,0,0,699,-3888,-10344,685,,,,,,,,,,,,
556743,1560691828561,-1,2.16,2.49,3.08,1.77,5.04,0.6,0.46,0.35,-12,4,-13,0.76,9305,25,88,33,32,767,708.0,646,461,60,120.0,98,1,300,194,68,0,0,704,-30694,8958,682,45.701141,4.91029,68.54,198.6,5,1.8283,0,0.0,0.12,6,0.13,9.279
556763,1560691828581,2,2.18,2.48,3.08,1.75,5.08,0.56,0.62,0.26,-13,3,-13,0.83,9259,25,88,33,32,774,707.0,651,455,60,120.0,98,1,300,193,68,0,0,694,687,-10344,679,,,,,,,,,,,,
556783,1560691828601,0,2.19,2.49,3.07,1.75,5.05,0.63,0.74,0.37,-14,1,-12,0.97,9272,25,88,33,32,780,705.0,634,462,60,120.0,100,1,300,193,68,0,0,698,-20693,-26380,678,,,,,,,,,,,,
556803,1560691828621,4,2.19,2.49,3.07,1.75,5.08,0.77,0.68,0.43,-15,2,-14,1.03,9286,25,88,33,32,787,705.0,621,463,60,120.0,100,1,300,193,68,0,0,694,15647,-10344,675,,,,,,,,,,,,
556823,1560691828641,2,2.2,2.49,3.05,1.76,5.05,0.82,0.53,0.52,-15,-1,-16,0.98,9282,25,88,33,32,794,701.0,616,468,60,120.0,100,1,300,193,68,0,0,692,19188,-3038,675,,,,,,,,,,,,
556843,1560691828661,2,2.2,2.49,3.03,1.75,5.07,0.73,0.53,0.42,-15,3,-17,0.9,9328,25,88,33,31,809,699.0,624,463,60,120.0,100,1,295,193,68,0,0,698,24,-2826,672,45.701145,4.910315,67.42,198.5,5,1.8283,0,0.0,0.1217,6,0.13,9.2807
556863,1560691828681,1,2.19,2.49,3.01,1.76,5.08,0.55,0.68,0.39,-15,0,-15,0.87,9328,25,88,33,30,824,695.0,617,458,60,120.0,100,1,291,192,68,0,0,701,-10448,-10344,673,,,,,,,,,,,,
556883,1560691828701,0,2.18,2.49,3.0,1.75,5.04,0.65,0.81,0.4,-15,2,-15,1.04,9319,25,88,33,30,833,695.0,635,457,60,120.0,99,1,291,192,67,0,0,697,-10448,3543,673,,,,,,,,,,,,
556903,1560691828721,4,2.18,2.49,3.0,1.74,5.06,0.79,0.66,0.55,-15,-2,-16,1.03,9309,25,88,33,30,842,692.0,633,461,60,120.0,99,1,291,192,67,0,0,690,14342,-10348,672,,,,,,,,,,,,
556923,1560691828741,4,2.17,2.49,3.0,1.75,5.08,0.83,0.47,0.62,-15,1,-17,0.95,9295,25,88,33,30,842,693.0,643,459,60,120.0,99,1,291,191,67,0,0,684,12333,-2345,672,,,,,,,,,,,,
556943,1560691828761,6,2.16,2.53,3.0,1.76,5.04,0.74,0.44,0.52,-15,2,-18,0.86,9231,25,88,33,29,842,691.0,638,458,60,120.0,99,1,287,190,67,0,0,689,1780,-27404,667,45.701149,4.910338,66.23,198.5,5,1.8283,0,0.0,0.1233,6,0.13,9.2824
556963,1560691828781,1,2.16,2.52,3.0,1.75,5.08,0.56,0.6,0.36,-14,4,-19,0.82,9218,25,88,33,29,836,692.0,630,459,60,120.0,99,1,287,190,67,0,0,691,14342,-388,667,,,,,,,,,,,,
556983,1560691828800,2,2.16,2.54,2.99,1.75,5.07,0.57,0.74,0.31,-15,2,-18,0.93,9209,25,88,33,29,827,687.0,614,459,60,120.0,98,1,287,190,66,0,0,687,-2830,1549,668,,,,,,,,,,,,
557003,1560691828820,0,2.18,2.53,3.0,1.72,5.07,0.7,0.87,0.42,-16,-0,-17,1.12,9182,25,88,33,29,822,688.0,629,454,60,120.0,98,1,287,189,66,0,0,693,24,-2830,664,,,,,,,,,,,,
557023,1560691828840,3,2.17,2.52,3.0,1.75,5.04,0.84,0.85,0.55,-16,-0,-18,1.19,9173,25,88,33,29,816,690.0,624,455,60,121.0,98,1,287,189,66,0,0,683,24,-2345,663,,,,,,,,,,,,
557043,1560691828860,2,2.19,2.53,2.99,1.77,5.05,0.95,0.69,0.68,-17,-2,-20,1.18,9164,25,88,33,29,817,689.0,620,461,60,120.0,98,1,287,189,66,0,0,687,-3584,-2345,663,45.701153,4.910362,65.52,198.5,5,1.8283,0,0.0,0.125,6,0.13,9.284
557063,1560691828880,4,2.2,2.52,3.01,1.76,5.03,0.99,0.56,0.67,-16,-1,-22,1.14,9150,25,88,33,29,820,685.0,620,451,60,121.0,98,1,287,189,66,0,0,687,-10399,8958,658,,,,,,,,,,,,
557083,1560691828900,4,2.19,2.53,2.99,1.76,5.04,0.95,0.47,0.62,-16,-1,-23,1.06,9173,25,88,33,29,829,686.0,629,454,60,120.0,98,1,287,189,65,0,0,684,16599,8958,661,,,,,,,,,,,,
557103,1560691828920,4,2.19,2.51,2.99,1.75,5.04,0.89,0.39,0.59,-15,1,-23,0.97,9137,25,88,33,29,839,685.0,619,454,60,120.0,98,1,287,189,65,0,0,683,-10399,-2826,662,,,,,,,,,,,,
557123,1560691828940,3,2.2,2.51,3.04,1.75,5.07,0.7,0.49,0.45,-15,1,-20,0.85,9119,25,88,33,29,847,683.0,632,452,60,120.0,98,1,287,189,65,0,0,682,3543,3543,662,,,,,,,,,,,,
557143,1560691828960,-1,2.2,2.51,3.01,1.75,5.07,0.61,0.5,0.37,-15,3,-21,0.79,9115,25,88,33,29,854,684.0,630,448,60,120.0,98,1,287,189,65,0,0,680,24845,-10344,660,45.701157,4.910385,64.62,198.5,5,1.8283,0,0.0,0.1267,6,0.13,9.2857
557163,1560691828980,-2,2.2,2.52,3.0,1.78,5.05,0.43,0.65,0.23,-14,2,-19,0.78,9101,25,88,33,29,863,680.0,633,450,60,120.0,98,1,287,189,65,0,0,681,16118,-3038,660,,,,,,,,,,,,
557183,1560691828994,0,2.19,2.53,3.0,1.79,5.04,0.31,0.79,0.1,-13,3,-18,0.85,9088,25,88,33,29,874,678.0,618,456,60,121.0,97,1,287,188,64,0,0,676,-2345,-2830,657,,,,,,,,,,,,
557203,1560691829014,-0,2.18,2.54,3.02,1.82,5.08,0.2,0.91,0.02,-12,-0,-17,0.93,9062,25,88,33,29,882,675.0,632,451,60,121.0,97,1,287,188,64,0,0,680,-2826,-3584,656,,,,,,,,,,,,
557223,1560691829034,-0,2.18,2.54,3.04,1.81,5.04,0.18,1.02,-0.07,-13,1,-16,1.04,9049,25,88,33,29,886,675.0,613,451,60,121.0,97,1,287,188,64,0,0,679,-2345,-388,656,,,,,,,,,,,,
557243,1560691829054,1,2.18,2.54,3.07,1.79,5.05,0.14,1.12,-0.07,-13,-1,-15,1.13,9036,25,88,33,30,893,675.0,610,458,60,121.0,97,1,291,188,64,0,0,670,-2345,-6006,652,45.70116,4.910407,63.76,198.5,5,1.8283,0,0.0,0.1283,6,0.14,9.2874
557263,1560691829074,-0,2.19,2.54,3.09,1.75,5.07,0.13,1.21,-0.14,-13,0,-15,1.22,9018,25,88,33,30,904,676.0,617,447,60,120.0,97,1,291,188,64,0,0,678,-2826,-3488,653,,,,,,,,,,,,
557283,1560691829100,0,2.18,2.53,3.11,1.75,5.04,0.06,1.29,-0.13,-13,-1,-15,1.29,9014,25,88,33,30,913,678.0,607,459,60,121.0,97,1,291,188,64,0,0,668,-26892,24583,652,,,,,,,,,,,,
557303,1560691829120,0,2.18,2.52,3.09,1.74,5.04,0.03,1.35,-0.12,-13,0,-15,1.35,9005,25,88,33,30,919,677.0,615,447,60,120.0,97,1,291,188,64,0,0,673,-2345,-2830,652,,,,,,,,,,,,
557323,1560691829140,-0,2.18,2.52,3.04,1.75,5.06,-0.0,1.42,-0.16,-14,-0,-14,1.42,8992,25,88,33,30,930,677.0,612,458,60,120.0,97,1,291,188,64,0,0,675,-26892,-6006,652,,,,,,,,,,,,
557343,1560691829160,-1,2.18,2.53,2.97,1.75,5.04,-0.04,1.48,-0.21,-13,1,-14,1.48,8958,25,88,33,30,945,677.0,612,453,60,120.0,97,1,291,188,64,0,0,679,-26892,-388,650,45.701164,4.91043,63.78,198.5,5,1.8283,0,0.0,0.13,6,0.14,9.2891
557363,1560691829180,4,2.18,2.54,2.93,1.78,5.04,-0.07,1.53,-0.28,-13,0,-13,1.53,8949,25,88,33,30,958,676.0,629,455,60,120.0,97,1,291,188,64,0,0,670,-10344,11776,651,,,,,,,,,,,,
557383,1560691829200,5,2.18,2.53,2.92,1.76,5.05,-0.08,1.56,-0.24,-12,2,-14,1.56,8949,25,88,33,30,966,671.0,623,452,60,120.0,96,1,291,188,63,0,0,677,8958,1549,648,,,,,,,,,,,,
557403,1560691829220,5,2.18,2.51,2.93,1.76,5.04,-0.14,1.55,-0.25,-12,0,-12,1.56,8945,25,88,33,30,976,671.0,641,458,60,120.0,96,1,291,188,63,0,0,661,31988,2024,650,,,,,,,,,,,,
557423,1560691829240,5,2.18,2.51,2.94,1.73,5.05,-0.04,1.35,-0.3,-12,2,-14,1.35,8911,25,88,33,30,991,670.0,623,456,60,120.0,96,1,291,188,63,0,0,664,-388,24,647,,,,,,,,,,,,
557443,1560691829260,4,2.18,2.51,2.97,1.74,5.04,0.04,1.2,-0.32,-12,1,-15,1.2,8907,25,88,33,30,1003,667.0,620,456,60,120.0,96,1,291,188,63,0,0,670,-3578,-2830,646,45.701172,4.910451,63.12,198.5,5,1.8283,0,0.0,0.1317,6,0.14,9.2907
557463,1560691829280,1,2.19,2.51,3.05,1.74,5.06,0.24,0.96,-0.23,-12,2,-17,0.99,8873,25,88,33,30,1010,668.0,613,462,60,121.0,96,1,291,188,63,0,0,663,-2830,6208,648,,,,,,,,,,,,
557483,1560691829300,2,2.18,2.51,3.04,1.78,5.04,0.41,0.75,-0.07,-12,2,-18,0.85,8861,25,88,33,30,1017,669.0,616,453,60,120.0,97,1,291,188,63,0,0,668,31988,11776,645,,,,,,,,,,,,
557503,1560691829320,2,2.18,2.53,3.04,1.8,5.04,0.58,0.61,0.08,-13,0,-19,0.84,8865,25,88,33,30,1028,667.0,617,455,60,121.0,97,1,291,188,63,0,0,664,3543,479,645,,,,,,,,,,,,
557523,1560691829340,2,2.18,2.58,3.02,1.82,5.05,0.71,0.54,0.22,-13,-1,-20,0.9,8869,25,88,33,30,1038,664.0,617,456,60,120.0,97,1,291,188,63,0,0,662,-10348,11776,640,,,,,,,,,,,,
557543,1560691829360,3,2.17,2.6,3.03,1.83,5.08,0.82,0.58,0.32,-13,-2,-20,1.01,8882,25,88,33,30,1042,663.0,613,459,60,121.0,97,1,291,188,63,0,0,659,-27404,24,639,45.70118,4.910472,62.97,198.5,5,1.8283,0,0.0,0.1333,6,0.14,9.2924
557563,1560691829380,1,2.17,2.59,3.05,1.8,5.06,0.86,0.64,0.44,-14,-5,-19,1.08,8882,25,88,33,30,1045,661.0,618,459,60,121.0,97,1,291,188,63,0,0,657,-2345,-2836,638,,,,,,,,,,,,
557583,1560691829400,-1,2.18,2.56,3.07,1.76,5.07,0.91,0.78,0.5,-15,-5,-19,1.2,8873,25,88,33,30,1045,659.0,630,460,60,121.0,98,1,291,188,63,0,0,654,-26380,24,639,,,,,,,,,,,,
557603,1560691829420,-1,2.19,2.55,3.1,1.72,5.07,0.84,0.9,0.54,-15,-5,-19,1.24,8848,25,88,33,30,1045,665.0,625,462,60,121.0,98,1,291,188,63,0,0,659,3543,-10251,639,,,,,,,,,,,,
557623,1560691829440,-1,2.19,2.55,3.08,1.72,5.04,0.68,1.01,0.38,-15,-4,-19,1.22,8840,25,88,33,30,1041,662.0,635,463,60,121.0,98,1,291,188,63,0,0,664,-2826,244,637,,,,,,,,,,,,
557643,1560691829460,2,2.19,2.56,3.07,1.74,5.05,0.51,1.05,0.33,-14,-1,-19,1.17,8815,25,88,33,31,1037,665.0,618,456,60,120.0,98,1,295,188,63,0,0,661,-27404,506,637,45.701183,4.910493,62.18,198.4,5,1.8283,0,0.0,0.135,6,0.14,9.2941
557663,1560691829480,2,2.18,2.55,2.99,1.75,5.05,0.46,1.14,0.35,-14,-0,-20,1.23,8802,25,88,33,31,1030,665.0,626,456,60,120.0,98,1,295,188,63,0,0,664,-10348,11566,633,,,,,,,,,,,,
557683,1560691829500,3,2.18,2.56,2.93,1.75,5.08,0.31,1.23,0.28,-14,1,-21,1.27,8790,25,88,33,31,1022,662.0,617,454,60,120.0,99,1,295,188,63,0,0,657,-2345,-2830,637,,,,,,,,,,,,
557703,1560691829520,3,2.18,2.56,2.93,1.73,5.07,0.29,1.18,0.17,-14,0,-22,1.22,8782,25,88,33,31,1019,659.0,615,453,60,120.0,99,1,295,188,63,0,0,657,-3038,-5120,633,,,,,,,,,,,,
557723,1560691829540,2,2.17,2.56,2.93,1.74,5.07,0.34,1.09,0.18,-14,0,-22,1.14,8806,25,88,33,31,1016,658.0,602,455,60,121.0,99,1,295,188,63,0,0,659,-26380,3,634,,,,,,,,,,,,
557743,1560691829560,1,2.17,2.56,2.96,1.74,5.05,0.51,0.91,0.23,-14,-1,-21,1.04,8794,25,88,33,31,1012,657.0,609,459,60,121.0,99,1,295,188,63,0,0,656,8958,-4876,634,45.701195,4.910513,61.73,198.4,5,1.8283,0,0.0,0.1367,6,0.14,9.2957
557763,1560691829580,-0,2.18,2.55,2.99,1.72,5.05,0.66,0.86,0.33,-14,-0,-21,1.08,8790,25,88,33,31,1007,655.0,606,458,60,121.0,99,1,295,188,63,0,0,654,31988,-2836,636,,,,,,,,,,,,
557783,1560691829600,4,2.19,2.55,3.02,1.73,5.08,0.68,0.95,0.4,-14,-1,-21,1.17,8778,25,88,33,31,1006,655.0,618,457,60,120.0,98,1,295,188,62,0,0,653,31988,3,634,,,,,,,,,,,,
557803,1560691829620,2,2.2,2.54,3.02,1.73,5.07,0.61,1.04,0.38,-13,1,-22,1.2,8773,25,88,33,31,1005,657.0,621,457,60,120.0,98,1,295,188,62,0,0,657,8958,-14655,633,,,,,,,,,,,,
557823,1560691829640,1,2.19,2.54,3.04,1.74,5.06,0.47,1.11,0.35,-14,1,-22,1.21,8737,25,88,33,31,1000,657.0,613,459,60,121.0,98,1,295,188,62,0,0,661,8958,3,632,,,,,,,,,,,,
557843,1560691829660,3,2.18,2.53,3.01,1.74,5.07,0.5,1.01,0.33,-14,1,-24,1.13,8737,25,88,33,31,994,656.0,633,453,60,120.0,98,1,295,188,62,0,0,657,-388,17336,632,45.701202,4.910532,61.58,198.4,5,1.8283,0,0.0,0.1383,6,0.15,9.2974
557863,1560691829680,1,2.18,2.53,2.98,1.75,5.05,0.65,0.9,0.35,-15,-0,-23,1.11,8720,25,88,33,31,989,656.0,607,461,60,121.0,98,1,295,188,62,0,0,651,-388,20993,631,,,,,,,,,,,,
557883,1560691829702,2,2.19,2.53,2.93,1.74,5.08,0.79,0.84,0.47,-15,-0,-21,1.15,8720,25,88,33,31,984,652.0,612,459,60,121.0,98,1,295,188,62,0,0,649,24583,3395,629,,,,,,,,,,,,
557903,1560691829722,6,2.18,2.53,2.91,1.75,5.07,0.77,0.88,0.46,-14,1,-21,1.17,8708,25,88,33,31,976,652.0,606,462,60,121.0,98,1,295,188,62,0,0,646,24583,3,631,,,,,,,,,,,,
557923,1560691829742,8,2.18,2.52,2.92,1.75,5.08,0.65,1.0,0.33,-14,2,-22,1.19,8704,25,88,33,32,968,649.0,615,452,60,120.0,98,1,300,188,62,0,0,650,-30207,17336,623,,,,,,,,,,,,
557943,1560691829762,9,2.17,2.5,2.94,1.75,5.06,0.6,0.98,0.31,-14,2,-22,1.15,8696,25,88,33,32,963,645.0,608,456,60,120.0,98,1,300,188,62,0,0,643,11566,269,623,45.70121,4.910551,61.4,198.3,5,1.8283,0,0.0,0.14,6,0.15,9.2991
557963,1560691829782,10,2.17,2.5,3.0,1.73,5.04,0.69,0.8,0.39,-14,-0,-22,1.06,8729,25,88,33,31,960,642.0,596,461,60,121.0,98,1,295,188,62,0,0,645,-2830,19320,620,,,,,,,,,,,,
557983,1560691829799,8,2.17,2.48,3.03,1.73,5.04,0.83,0.75,0.42,-14,0,-22,1.12,8733,25,88,33,31,953,640.0,602,458,60,121.0,100,1,295,188,62,0,0,642,24,-3446,618,,,,,,,,,,,,
558003,1560691829819,14,2.17,2.49,3.08,1.74,5.06,0.82,0.88,0.38,-14,-1,-21,1.2,8720,24,88,33,32,945,640.0,600,460,60,121.0,100,1,300,188,62,0,0,629,24,-3820,614,,,,,,,,,,,,
558023,1560691829839,11,2.18,2.47,3.1,1.74,5.04,0.77,0.97,0.34,-14,-1,-22,1.24,8708,24,88,33,31,938,636.0,620,456,60,120.0,100,1,295,188,62,0,0,631,-2580,-30139,611,,,,,,,,,,,,
558043,1560691829859,11,2.18,2.46,3.1,1.73,5.08,0.73,0.9,0.35,-15,-1,-22,1.16,8640,24,88,33,32,933,636.0,608,458,60,121.0,100,1,300,188,62,0,0,629,-4876,28675,611,45.701221,4.910568,61.48,198.3,5,1.8283,0,0.0,0.1417,6,0.15,9.3007
558063,1560691829879,10,2.18,2.47,3.1,1.74,5.04,0.86,0.82,0.37,-15,-2,-23,1.19,8589,24,88,33,32,928,633.0,611,461,60,121.0,100,1,300,188,62,0,0,630,-5120,-3446,608,,,,,,,,,,,,
558083,1560691829901,12,2.19,2.46,3.05,1.73,5.05,0.85,0.88,0.32,-15,-0,-23,1.22,8465,24,88,33,32,920,630.0,601,461,60,121.0,100,1,299,186,61,0,0,636,3,3403,602,,,,,,,,,,,,
558103,1560691829921,8,2.19,2.45,3.03,1.72,5.04,0.87,0.75,0.36,-15,-0,-22,1.15,8348,24,88,33,32,915,629.0,616,455,60,120.0,100,1,296,184,61,0,0,623,-14655,-3446,604,,,,,,,,,,,,
558123,1560691829941,13,2.19,2.45,3.01,1.73,5.04,0.87,0.77,0.37,-14,0,-20,1.16,8307,24,88,33,32,912,628.0,588,456,60,121.0,100,1,296,184,61,0,0,627,20993,26688,603,,,,,,,,,,,,
558143,1560691829961,10,2.19,2.44,3.02,1.72,5.04,0.83,0.74,0.41,-14,-0,-21,1.11,8234,24,88,33,33,909,623.0,573,455,60,120.0,100,1,297,181,61,0,0,621,3395,243,599,45.701229,4.910585,61.27,198.3,5,1.8283,0,0.0,0.1433,6,0.15,9.3024
558163,1560691829981,12,2.2,2.42,3.02,1.72,5.05,0.85,0.81,0.24,-14,-0,-20,1.18,8191,24,88,33,33,906,617.0,577,457,60,121.0,100,1,295,185,61,0,0,619,3403,23619,599,,,,,,,,,,,,
558183,1560691829993,11,2.2,2.4,3.03,1.72,5.05,0.83,0.71,0.28,-13,2,-20,1.1,8162,24,88,33,34,903,617.0,577,460,60,120.0,95,1,298,186,57,0,0,613,26688,208,595,,,,,,,,,,,,
558203,1560691830013,14,2.19,2.39,3.05,1.73,5.04,0.86,0.84,0.22,-13,1,-20,1.2,8155,24,88,33,34,902,610.0,573,456,60,120.0,95,1,298,184,57,0,0,605,-3446,6273,591,,,,,,,,,,,,
558223,1560691830033,15,2.2,2.39,3.1,1.74,5.05,0.88,0.76,0.21,-12,1,-19,1.17,8081,24,88,33,34,899,606.0,567,456,60,120.0,95,1,296,182,57,0,0,605,-23055,-25872,586,,,,,,,,,,,,
558243,1560691830053,14,2.19,2.36,3.12,1.72,5.05,0.95,0.77,0.25,-13,2,-18,1.23,8050,24,88,33,35,894,603.0,583,461,60,120.0,95,1,299,187,57,0,0,599,-7939,30208,584,45.701241,4.910601,60.35,198.3,5,1.8283,0,0.0,0.145,6,0.15,9.3041
558263,1560691830073,18,2.19,2.37,3.13,1.73,5.05,0.9,0.89,0.2,-13,-0,-17,1.27,8029,24,88,33,35,888,600.0,570,460,60,121.0,95,1,298,186,57,0,0,596,-3210,-8188,581,,,,,,,,,,,,
558283,1560691830101,18,2.18,2.37,3.15,1.73,5.04,0.97,0.77,0.24,-13,1,-18,1.24,7971,24,88,33,35,884,598.0,562,456,60,121.0,96,1,298,185,56,0,0,592,4956,1,576,,,,,,,,,,,,
558303,1560691830121,16,2.18,2.36,3.15,1.73,5.03,1.04,0.74,0.26,-13,1,-19,1.28,7901,24,88,33,36,879,591.0,581,460,60,120.0,96,1,301,185,56,0,0,585,3472,774,572,,,,,,,,,,,,
558323,1560691830141,15,2.18,2.36,3.15,1.73,5.08,1.08,0.82,0.2,-14,0,-18,1.35,7855,24,88,33,36,874,589.0,562,461,60,121.0,96,1,301,191,56,0,0,590,2048,-29984,568,,,,,,,,,,,,
558343,1560691830161,17,2.18,2.36,3.16,1.73,5.08,1.03,0.84,0.09,-14,-0,-18,1.33,7744,24,88,33,36,869,584.0,550,457,60,121.0,96,1,301,191,56,0,0,580,-1894,-8186,565,45.701248,4.910615,58.52,198.2,5,1.8283,0,0.0,0.1467,6,0.15,9.3057
558363,1560691830181,16,2.19,2.36,3.15,1.72,5.05,0.94,0.86,0.02,-13,-0,-18,1.28,7615,24,88,33,37,870,580.0,547,461,60,122.0,96,1,304,197,56,0,0,578,-16384,-2934,558,,,,,,,,,,,,
558383,1560691830201,19,2.18,2.35,3.16,1.72,5.07,0.96,0.9,-0.07,-13,-1,-19,1.31,7387,24,88,33,37,870,576.0,537,460,60,122.0,98,1,304,196,55,0,0,575,259,-32248,553,,,,,,,,,,,,
558403,1560691830221,17,2.18,2.35,3.18,1.71,5.05,0.97,0.93,-0.13,-14,-2,-18,1.34,7228,24,88,33,38,868,570.0,518,460,60,122.0,98,1,307,196,55,0,0,566,-3190,6274,549,,,,,,,,,,,,
558423,1560691830241,19,2.19,2.33,3.19,1.7,5.06,1.05,0.81,-0.0,-14,-2,-16,1.32,7019,24,88,33,38,866,568.0,516,459,60,122.0,98,1,307,202,55,0,0,560,-8186,2524,545,,,,,,,,,,,,
558443,1560691830261,20,2.18,2.31,3.21,1.69,5.04,1.02,0.77,-0.03,-15,-1,-16,1.27,6870,24,88,33,39,865,565.0,503,461,60,120.0,98,1,310,208,55,0,0,556,-30159,26178,542,45.70126,4.910629,57.72,198.2,5,1.8283,0,0.0,0.1483,6,0.16,9.3074
558463,1560691830281,21,2.19,2.3,3.28,1.66,5.06,1.12,0.71,0.09,-15,-4,-21,1.33,6756,24,88,33,40,864,558.0,490,458,60,122.0,98,1,317,332,55,0,0,532,-32504,771,533,,,,,,,,,,,,
558483,1560691830301,20,2.18,2.26,3.32,1.65,5.08,1.05,0.82,0.05,-15,-7,-23,1.33,6632,24,88,33,41,864,547.0,486,467,60,120.0,153,1,324,311,82,0,0,465,-22519,-8151,527,,,,,,,,,,,,
558503,1560691830321,21,2.18,2.22,3.37,1.64,5.06,1.13,0.78,0.07,-16,-5,-27,1.38,7038,24,88,33,42,864,549.0,490,452,60,121.0,153,1,332,288,82,0,0,468,2104,486,524,,,,,,,,,,,,
558523,1560691830341,26,2.19,2.21,3.38,1.65,5.04,1.1,0.66,0.07,-17,-10,-28,1.29,7335,24,88,33,42,866,545.0,506,460,60,121.0,153,1,332,260,82,0,0,415,-3082,-28416,516,,,,,,,,,,,,
558543,1560691830361,23,2.19,2.22,3.37,1.66,5.05,1.18,0.55,0.0,-17,-7,-27,1.3,7411,24,88,33,42,868,537.0,538,460,60,120.0,153,1,332,234,82,0,0,399,-30064,21760,509,45.701271,4.910642,56.69,198.1,5,1.8283,0,0.0,0.15,6,0.16,9.309
558563,1560691830381,19,2.18,2.23,3.33,1.64,5.04,1.26,0.49,0.0,-17,-9,-25,1.35,7518,24,88,33,42,970,530.0,539,459,60,120.0,153,1,332,213,82,0,0,446,2524,250,496,,,,,,,,,,,,
558583,1560691830401,20,2.18,2.23,3.33,1.62,5.04,1.31,0.49,0.11,-18,-7,-25,1.4,7575,24,88,33,42,1072,525.0,544,460,60,120.0,123,1,332,214,61,0,0,485,2088,24064,489,,,,,,,,,,,,
558603,1560691830421,18,2.2,2.24,3.29,1.58,5.06,1.31,0.5,0.13,-19,-8,-24,1.41,7665,24,88,33,41,1172,523.0,537,460,60,121.0,123,1,325,212,61,0,0,505,-22519,28160,484,,,,,,,,,,,,
558623,1560691830441,22,2.2,2.25,3.26,1.55,5.06,1.33,0.56,0.14,-19,-8,-22,1.44,7671,24,88,33,41,1272,512.0,553,455,60,120.0,123,1,325,212,61,0,0,508,17136,28160,476,,,,,,,,,,,,
558643,1560691830461,22,2.19,2.26,3.26,1.52,5.05,1.26,0.69,0.11,-19,-6,-22,1.43,7747,24,88,33,41,1360,511.0,544,459,60,121.0,123,1,325,212,61,0,0,501,-3856,250,467,45.701279,4.910654,54.45,198.1,5,1.8283,0,0.0,0.1517,6,0.16,9.3107
558663,1560691830481,23,2.2,2.28,3.27,1.51,5.05,1.22,0.73,0.08,-19,-6,-22,1.42,7678,24,88,33,41,1447,506.0,552,461,60,121.0,123,1,325,212,61,0,0,502,-28648,26880,463,,,,,,,,,,,,
558683,1560691830501,23,2.19,2.27,3.27,1.51,5.05,1.22,0.76,0.05,-18,-7,-23,1.44,7594,24,88,33,41,1459,501.0,546,460,60,120.0,132,1,325,210,61,0,0,490,10408,2811,461,,,,,,,,,,,,
558703,1560691830521,21,2.21,2.27,3.26,1.51,5.04,1.18,0.77,-0.03,-18,-5,-23,1.41,7542,24,88,33,41,1445,495.0,537,457,60,120.0,132,1,325,212,61,0,0,481,771,-19126,456,,,,,,,,,,,,
558723,1560691830541,23,2.21,2.27,3.27,1.51,5.07,1.07,0.76,-0.07,-17,-3,-23,1.31,7584,24,88,33,40,1373,489.0,541,461,60,120.0,132,1,317,210,61,0,0,475,-6656,-1562,452,,,,,,,,,,,,
558743,1560691830561,24,2.21,2.26,3.27,1.5,5.07,1.1,0.68,-0.11,-16,-3,-22,1.29,7649,24,88,33,40,1281,481.0,543,462,60,120.0,132,1,317,210,61,0,0,471,32033,3,449,45.70129,4.910664,51.39,198.1,5,1.8283,0,0.0,0.1533,6,0.16,9.3124
558763,1560691830581,22,2.24,2.26,3.28,1.51,5.05,1.12,0.5,-0.11,-15,-3,-22,1.23,7656,24,88,33,40,1198,477.0,548,460,60,120.0,132,1,317,210,61,0,0,458,-23367,0,443,,,,,,,,,,,,
558783,1560691830601,19,2.24,2.25,3.29,1.51,5.04,1.21,0.43,-0.13,-15,-3,-22,1.29,7735,24,88,33,40,1120,468.0,547,457,60,120.0,137,1,317,210,61,0,0,456,-16384,3302,443,,,,,,,,,,,,
558803,1560691830621,19,2.27,2.23,3.29,1.51,5.07,1.29,0.46,-0.08,-15,-3,-21,1.37,7744,24,88,33,40,1044,461.0,555,457,60,121.0,137,1,317,210,61,0,0,449,2211,-6640,440,,,,,,,,,,,,
558823,1560691830641,20,2.28,2.21,3.3,1.53,5.08,1.23,0.59,-0.12,-14,-2,-20,1.36,7822,24,88,33,40,971,454.0,556,458,60,121.0,137,1,317,210,61,0,0,438,2524,-18948,438,,,,,,,,,,,,
558843,1560691830661,21,2.27,2.21,3.3,1.53,5.06,1.14,0.61,-0.15,-12,-2,-17,1.29,7832,24,88,33,39,937,445.0,556,456,60,121.0,137,1,310,209,61,0,0,435,2131,13040,435,45.701302,4.910673,49.12,198.1,5,1.8283,0,0.0,0.155,6,0.16,9.314
558863,1560691830681,18,2.27,2.2,3.3,1.53,5.05,1.1,0.51,-0.08,-10,1,-17,1.22,7864,24,88,33,39,942,439.0,580,461,60,119.0,137,1,310,209,61,0,0,429,-28332,-3414,429,,,,,,,,,,,,
558883,1560691830701,17,2.28,2.18,3.31,1.57,5.08,1.18,0.45,-0.05,-9,-1,-17,1.26,7928,24,88,33,39,946,433.0,568,460,60,120.0,145,1,310,209,62,0,0,425,3635,10392,424,,,,,,,,,,,,
558903,1560691830721,19,2.27,2.17,3.34,1.6,5.06,1.16,0.5,-0.08,-8,-1,-16,1.26,7938,24,88,33,38,950,425.0,563,458,60,121.0,145,1,307,203,62,0,0,416,-3856,10392,421,,,,,,,,,,,,
558923,1560691830741,19,2.27,2.16,3.36,1.65,5.03,1.1,0.4,0.02,-6,0,-15,1.17,7982,24,88,33,38,951,421.0,565,460,60,121.0,145,1,307,203,62,0,0,406,-21792,-26615,417,,,,,,,,,,,,
558943,1560691830761,15,2.28,2.15,3.36,1.68,5.04,1.06,0.31,0.01,-5,0,-14,1.1,7978,24,88,33,38,949,415.0,567,460,60,120.0,145,1,307,203,62,0,0,409,-9166,-4059,415,45.701313,4.910681,47.06,198.1,5,1.8283,0,0.0,0.1567,6,0.16,9.3157
558963,1560691830781,14,2.29,2.16,3.37,1.73,5.03,1.07,0.33,-0.04,-4,2,-11,1.12,7841,24,88,33,38,947,412.0,551,458,60,121.0,145,1,307,203,62,0,0,407,-4059,18584,412,,,,,,,,,,,,
558983,1560691830800,13,2.3,2.16,3.37,1.76,5.04,1.07,0.35,-0.03,-3,1,-9,1.13,7719,24,88,33,38,943,411.0,544,458,60,121.0,145,1,307,203,60,0,0,409,11560,18584,412,,,,,,,,,,,,
559003,1560691830820,14,2.31,2.15,3.35,1.79,5.04,1.06,0.32,-0.05,-2,0,-8,1.11,7566,24,88,33,38,941,408.0,534,454,60,120.0,145,1,307,203,60,0,0,409,-9211,9517,408,,,,,,,,,,,,
559023,1560691830840,10,2.32,2.14,3.37,1.78,5.06,1.12,0.32,-0.03,-2,-0,-7,1.16,7470,24,88,33,39,939,407.0,537,457,60,120.0,145,1,310,202,60,0,0,407,-9211,10392,407,,,,,,,,,,,,
559043,1560691830860,10,2.32,2.1,3.41,1.79,5.04,1.16,0.3,0.01,-2,-1,-6,1.2,7384,23,88,33,38,936,404.0,523,457,60,121.0,145,1,307,202,60,0,0,391,11545,10541,404,45.701321,4.910688,44.07,198.1,5,1.8283,0,0.0,0.1583,6,0.17,9.3174
559063,1560691830880,8,2.34,2.1,3.43,1.8,5.05,1.22,0.26,0.09,-2,-2,-5,1.25,7355,23,88,33,39,930,404.0,525,455,60,121.0,145,1,310,202,60,0,0,389,6384,10541,404,,,,,,,,,,,,
559083,1560691830900,6,2.37,2.1,3.43,1.84,5.07,1.29,0.22,0.21,-1,-3,-4,1.31,7287,23,88,33,39,924,402.0,519,456,60,121.0,141,1,310,208,57,0,0,392,-32702,1,402,,,,,,,,,,,,
559103,1560691830920,11,2.38,2.09,3.43,1.88,5.04,1.26,0.15,0.29,0,-2,-4,1.26,7278,23,88,33,39,920,402.0,528,458,60,121.0,141,1,310,208,57,0,0,385,505,6384,402,,,,,,,,,,,,
559123,1560691830940,7,2.42,2.07,3.45,1.92,5.04,1.14,0.05,0.25,3,-1,-3,1.14,7253,23,88,33,39,915,401.0,521,458,60,120.0,141,1,310,208,57,0,0,380,-31744,-32702,399,,,,,,,,,,,,
559143,1560691830960,5,2.45,2.03,3.47,1.99,5.05,1.02,-0.06,0.22,6,-0,-1,1.02,7231,23,88,33,39,907,401.0,526,459,60,120.0,141,1,310,208,57,0,0,381,-3866,6384,400,45.701328,4.910695,42.61,198.2,5,1.8283,0,0.0,0.16,6,0.17,9.319
559163,1560691830980,3,2.47,2.02,3.46,2.06,5.08,0.99,-0.15,0.2,7,-1,0,1.0,7239,23,88,34,39,900,402.0,521,458,60,120.0,141,1,310,208,57,0,0,376,-992,11545,403,,,,,,,,,,,,
559183,1560691830994,3,2.48,1.99,3.47,2.11,5.04,1.05,-0.17,0.25,9,-2,2,1.06,7208,22,88,34,39,897,402.0,518,456,60,121.0,141,1,310,208,57,0,0,374,770,-3968,402,,,,,,,,,,,,
559203,1560691831014,7,2.49,1.95,3.5,2.12,5.04,1.08,-0.27,0.31,10,-2,4,1.12,7200,22,88,34,39,895,402.0,511,458,60,121.0,141,1,310,208,57,0,0,365,-6656,-3968,402,,,,,,,,,,,,
559223,1560691831034,6,2.49,1.95,3.52,2.15,5.07,1.08,-0.38,0.32,11,-2,6,1.14,7121,22,88,34,39,897,400.0,512,458,60,120.0,141,1,310,208,57,0,0,363,257,505,400,,,,,,,,,,,,
559243,1560691831054,3,2.48,1.95,3.54,2.19,5.04,0.92,-0.4,0.19,13,-0,9,1.01,7094,22,88,34,39,899,401.0,501,458,60,120.0,141,1,310,208,57,0,0,362,230,17144,401,45.70134,4.910701,39.72,198.2,5,1.8283,0,0.0,0.1617,6,0.17,9.3207
559263,1560691831074,2,2.5,1.95,3.54,2.23,5.04,1.0,-0.5,0.23,14,-0,13,1.11,7059,21,88,34,39,904,400.0,496,458,60,121.0,141,1,310,208,57,0,0,361,-1268,-6656,400,,,,,,,,,,,,
559283,1560691831096,6,2.5,1.95,3.54,2.24,5.04,1.1,-0.62,0.35,15,-1,14,1.26,6996,21,88,34,39,910,398.0,492,458,60,121.0,138,1,310,208,55,0,0,359,3082,-1818,398,,,,,,,,,,,,
559303,1560691831116,3,2.5,1.95,3.57,2.23,5.06,1.04,-0.6,0.3,16,0,16,1.2,6965,21,88,34,40,919,397.0,492,454,60,121.0,138,1,317,208,55,0,0,359,3082,-3968,397,,,,,,,,,,,,
559323,1560691831136,6,2.49,1.95,3.56,2.25,5.04,0.95,-0.65,0.32,17,-0,18,1.15,6975,21,88,34,39,928,395.0,487,461,60,121.0,138,1,310,209,55,0,0,355,-29302,505,395,,,,,,,,,,,,
559343,1560691831156,5,2.48,1.95,3.55,2.25,5.06,1.05,-0.68,0.36,17,0,20,1.25,6923,21,88,34,40,932,395.0,505,458,60,120.0,138,1,317,209,55,0,0,353,-29978,1,395,45.701344,4.910708,37.96,198.2,5,1.8283,0,0.0,0.1633,6,0.17,9.3224
559363,1560691831176,-0,2.47,1.95,3.54,2.25,5.06,0.95,-0.69,0.32,19,0,22,1.17,6906,21,88,34,40,935,393.0,493,457,60,120.0,138,1,317,209,55,0,0,350,-6640,-6524,392,,,,,,,,,,,,
559383,1560691831200,5,2.45,1.95,3.52,2.23,5.04,1.05,-0.73,0.37,18,-1,24,1.28,6911,21,88,34,40,942,391.0,484,455,60,122.0,137,1,317,209,54,0,0,350,2060,-31744,391,,,,,,,,,,,,
559403,1560691831220,1,2.4,1.96,3.52,2.22,5.06,0.97,-0.67,0.4,18,-0,24,1.18,6878,21,88,34,40,949,391.0,494,460,60,120.0,137,1,317,209,54,0,0,350,-6640,-3866,391,,,,,,,,,,,,
559423,1560691831240,5,2.37,1.97,3.5,2.21,5.06,0.94,-0.64,0.47,18,-1,24,1.14,6840,20,88,34,40,953,389.0,483,459,60,121.0,137,1,317,209,54,0,0,351,-6640,19125,389,,,,,,,,,,,,
559443,1560691831260,-0,2.33,2.03,3.42,2.19,5.06,1.05,-0.66,0.43,17,-2,24,1.24,6845,20,88,34,40,956,384.0,493,463,60,120.0,137,1,317,209,54,0,0,355,-29978,-19019,384,45.701351,4.910714,37.21,198.2,5,1.8283,0,0.0,0.165,6,0.17,9.324
559463,1560691831280,-0,2.28,2.07,3.37,2.17,5.04,0.92,-0.59,0.32,16,1,27,1.1,6818,20,88,34,40,959,381.0,479,454,60,122.0,137,1,317,209,54,0,0,361,-14707,-6656,381,,,,,,,,,,,,
559483,1560691831300,1,2.24,2.12,3.29,2.15,5.08,1.03,-0.64,0.38,13,0,27,1.22,6788,20,88,34,40,962,376.0,488,457,60,121.0,142,1,317,209,54,0,0,365,3082,742,376,,,,,,,,,,,,
559503,1560691831320,-1,2.2,2.2,3.19,2.11,5.04,0.93,-0.47,0.39,11,-0,27,1.04,6771,20,88,34,40,963,372.0,475,457,60,121.0,142,1,317,209,54,0,0,366,0,486,372,,,,,,,,,,,,
559523,1560691831340,2,2.15,2.27,3.17,2.08,5.06,0.91,-0.39,0.41,9,1,21,0.99,6813,20,89,34,40,963,368.0,491,460,60,120.0,142,1,317,209,54,0,0,368,0,0,368,,,,,,,,,,,,
559543,1560691831360,-0,2.11,2.33,3.12,2.06,5.06,0.89,-0.2,0.38,6,-1,17,0.91,6820,20,89,34,40,960,372.0,490,458,60,120.0,142,1,317,209,54,0,0,370,1,-1268,364,45.701359,4.910722,35.81,198.2,5,1.8283,0,0.0,0.1667,6,0.17,9.3257
559563,1560691831380,4,2.08,2.37,3.07,2.03,5.04,0.92,-0.26,0.36,3,-1,13,0.96,6803,20,89,34,40,957,373.0,481,456,60,121.0,142,1,317,209,54,0,0,372,-6656,-14707,359,,,,,,,,,,,,
559583,1560691831400,-0,2.02,2.4,3.04,1.99,5.08,0.93,-0.06,0.25,1,-1,11,0.93,6815,20,89,34,40,954,376.0,488,458,60,120.0,147,1,317,208,53,0,0,373,3,2060,357,,,,,,,,,,,,
559603,1560691831420,3,1.99,2.44,3.02,1.96,5.04,0.94,-0.07,0.31,-2,-1,7,0.95,6848,20,89,34,40,952,378.0,486,456,60,122.0,147,1,317,209,53,0,0,375,2278,2060,354,,,,,,,,,,,,
559623,1560691831440,-1,1.94,2.46,3.02,1.91,5.05,0.97,0.09,0.28,-4,1,4,0.97,6833,20,89,34,40,948,379.0,496,458,60,120.0,147,1,317,209,53,0,0,376,8200,-6644,351,,,,,,,,,,,,
559643,1560691831460,3,1.88,2.49,3.01,1.89,5.08,1.0,0.18,0.35,-8,-2,-1,1.01,6830,20,89,34,39,946,380.0,480,456,60,121.0,147,1,310,208,53,0,0,378,-992,-30454,348,45.701363,4.91073,35.67,198.2,5,1.8283,0,0.0,0.1683,6,0.17,9.3274
559663,1560691831480,1,1.84,2.54,2.98,1.88,5.04,0.94,0.24,0.29,-9,-2,-6,0.97,6843,20,89,34,40,943,380.0,490,461,60,120.0,147,1,317,209,53,0,0,376,-992,-30454,345,,,,,,,,,,,,
559683,1560691831500,1,1.79,2.54,2.99,1.86,5.05,0.99,0.34,0.29,-12,-3,-10,1.04,6835,20,89,34,40,943,379.0,493,458,60,121.0,156,1,317,208,54,0,0,379,-992,6870,343,,,,,,,,,,,,
559703,1560691831520,1,1.76,2.54,3.03,1.85,5.07,0.95,0.34,0.28,-14,-3,-13,1.01,6803,20,89,34,39,940,380.0,493,457,60,120.0,156,1,310,209,54,0,0,378,2278,6668,340,,,,,,,,,,,,
559723,1560691831540,0,1.75,2.54,3.04,1.84,5.07,0.93,0.51,0.26,-17,-1,-15,1.06,6803,20,89,34,40,937,379.0,485,456,60,121.0,156,1,317,208,54,0,0,378,8200,-10554,338,,,,,,,,,,,,
559743,1560691831560,1,1.74,2.55,3.02,1.83,5.07,0.96,0.5,0.27,-18,-1,-17,1.08,6795,20,89,34,40,935,379.0,489,460,60,121.0,156,1,317,209,54,0,0,381,8200,-10554,337,45.70137,4.910738,35.84,198.2,5,1.8283,0,0.0,0.17,6,0.17,9.3291
559763,1560691831580,-1,1.72,2.55,3.02,1.82,5.04,0.9,0.65,0.23,-20,1,-19,1.11,6781,20,89,34,40,932,380.0,495,457,60,120.0,156,1,317,209,54,0,0,379,-992,6870,334,,,,,,,,,,,,
559783,1560691831600,3,1.71,2.54,3.0,1.8,5.03,0.97,0.6,0.26,-22,-0,-22,1.14,6730,20,89,34,40,929,379.0,482,456,60,121.0,158,1,317,209,53,0,0,379,8200,-122,331,,,,,,,,,,,,
559803,1560691831620,0,1.72,2.54,2.97,1.76,5.04,0.97,0.73,0.29,-24,-1,-26,1.22,6708,20,89,34,40,925,379.0,479,457,60,121.0,158,1,317,209,53,0,0,379,8200,2560,331,,,,,,,,,,,,
559823,1560691831640,2,1.72,2.55,2.95,1.76,5.06,0.95,0.73,0.34,-26,-2,-31,1.2,6684,20,89,34,40,923,378.0,482,453,60,121.0,158,1,317,209,53,0,0,380,2278,2560,330,,,,,,,,,,,,
559843,1560691831660,5,1.72,2.55,2.96,1.75,5.05,0.96,0.83,0.39,-27,-3,-35,1.27,6646,20,89,34,40,921,377.0,475,457,60,121.0,158,1,317,209,53,0,0,376,-6656,6668,328,45.701378,4.910746,35.59,198.2,5,1.8283,0,0.0,0.1717,6,0.17,9.3307
559863,1560691831680,0,1.73,2.55,2.97,1.75,5.04,0.89,0.87,0.32,-29,-2,-38,1.25,6599,20,89,34,41,918,377.0,480,460,60,120.0,158,1,323,211,53,0,0,373,-6656,-6528,327,,,,,,,,,,,,
559883,1560691831700,2,1.74,2.55,2.97,1.75,5.05,0.95,0.78,0.39,-30,-4,-41,1.23,6581,20,89,34,41,914,379.0,470,450,60,122.0,160,1,323,211,52,0,0,377,8200,-20736,325,,,,,,,,,,,,
559903,1560691831720,1,1.75,2.55,2.97,1.75,5.04,0.94,0.9,0.29,-31,-2,-41,1.3,6576,20,89,34,41,909,376.0,472,453,60,121.0,160,1,323,211,52,0,0,375,3,-20736,323,,,,,,,,,,,,
559923,1560691831740,2,1.76,2.55,2.96,1.74,5.04,0.97,0.86,0.24,-33,-2,-42,1.3,6576,20,89,34,41,906,379.0,473,456,60,121.0,160,1,323,211,52,0,0,373,770,170,324,,,,,,,,,,,,
559943,1560691831760,4,1.8,2.55,2.96,1.73,5.05,0.96,0.87,0.3,-34,-2,-43,1.3,6572,20,89,33,42,903,378.0,476,456,60,121.0,160,1,330,211,52,0,0,374,-6656,-6528,321,45.701386,4.910752,35.28,198.2,5,1.8283,0,0.0,0.1733,6,0.17,9.3324
559963,1560691831780,-0,1.83,2.55,2.94,1.73,5.05,0.93,0.99,0.22,-35,1,-43,1.36,6539,20,89,33,42,897,378.0,483,454,60,120.0,160,1,330,212,52,0,0,374,770,-12032,321,,,,,,,,,,,,
559983,1560691831799,1,1.89,2.55,2.94,1.73,5.04,1.0,0.89,0.33,-36,-1,-44,1.34,6537,20,89,33,42,895,379.0,467,458,60,122.0,161,1,330,212,52,0,0,374,8200,-20736,320,,,,,,,,,,,,
560003,1560691831819,5,1.93,2.54,2.95,1.72,5.05,0.98,0.91,0.41,-37,-2,-45,1.34,6546,20,89,33,42,893,378.0,474,456,60,121.0,161,1,330,212,52,0,0,370,2278,-28416,320,,,,,,,,,,,,
560023,1560691831839,-1,1.99,2.54,2.97,1.73,5.06,0.9,0.94,0.37,-36,-1,-47,1.3,6555,20,89,33,42,893,378.0,477,457,60,120.0,161,1,330,212,52,0,0,372,2278,-23296,320,,,,,,,,,,,,
560043,1560691831859,1,2.04,2.53,2.99,1.8,5.07,0.88,0.85,0.4,-36,-1,-49,1.22,6524,20,89,33,42,894,376.0,461,455,60,121.0,161,1,330,212,52,0,0,372,3,160,321,45.701393,4.910757,34.11,198.1,5,1.8283,0,0.0,0.175,6,0.18,9.3341
560063,1560691831879,5,2.08,2.52,3.02,1.86,5.07,0.9,0.82,0.46,-35,-1,-49,1.22,6492,20,89,33,43,893,371.0,471,463,60,121.0,161,1,337,212,52,0,0,370,257,-23296,323,,,,,,,,,,,,
560083,1560691831901,-0,2.12,2.5,3.03,1.9,5.05,0.87,0.86,0.42,-34,0,-47,1.23,6443,20,89,33,43,894,369.0,470,458,60,119.0,159,1,337,214,52,0,0,366,-6656,165,326,,,,,,,,,,,,
560103,1560691831921,-0,2.17,2.47,3.04,1.94,5.05,0.84,0.72,0.38,-32,1,-44,1.1,6443,20,89,33,43,895,366.0,463,451,60,122.0,159,1,337,214,52,0,0,362,-1268,-12032,331,,,,,,,,,,,,
560123,1560691831941,3,2.22,2.44,3.05,1.97,5.08,0.86,0.6,0.43,-30,2,-42,1.05,6443,20,89,33,43,899,362.0,451,452,60,122.0,159,1,337,214,52,0,0,360,2790,4838,333,,,,,,,,,,,,
560143,1560691831961,0,2.26,2.41,3.09,2.01,5.04,0.8,0.62,0.44,-27,2,-37,1.01,6461,20,89,33,43,903,357.0,457,460,60,121.0,159,1,337,214,52,0,0,358,-6640,2560,335,45.701401,4.910759,33.82,198.1,5,1.8283,0,0.0,0.1767,6,0.18,9.3357
560163,1560691831981,1,2.31,2.34,3.14,2.06,5.03,0.8,0.51,0.46,-24,2,-34,0.95,6469,20,89,33,43,906,352.0,461,455,60,121.0,159,1,337,214,52,0,0,352,3183,13,340,,,,,,,,,,,,
560183,1560691831993,2,2.37,2.28,3.21,2.11,5.04,0.77,0.4,0.55,-20,1,-32,0.87,6483,20,89,33,43,910,348.0,460,452,60,122.0,152,1,337,214,52,0,0,350,8841,3327,342,,,,,,,,,,,,
560203,1560691832013,-2,2.42,2.23,3.3,2.15,5.06,0.73,0.35,0.59,-16,2,-28,0.81,6485,20,89,33,44,917,346.0,464,452,60,121.0,152,1,343,214,52,0,0,344,-10554,8841,346,,,,,,,,,,,,
560223,1560691832033,1,2.46,2.21,3.36,2.21,5.04,0.72,0.26,0.55,-13,1,-25,0.76,6454,20,89,33,43,924,349.0,464,457,60,120.0,152,1,337,215,52,0,0,345,3327,8841,349,,,,,,,,,,,,
560243,1560691832053,1,2.52,2.19,3.42,2.25,5.07,0.72,0.11,0.6,-10,-1,-22,0.73,6449,20,89,33,44,927,352.0,461,459,60,121.0,152,1,343,214,52,0,0,340,-31222,-30454,352,45.701408,4.910762,34.36,198.1,5,1.8283,0,0.0,0.1783,6,0.18,9.3374
560263,1560691832073,3,2.58,2.18,3.49,2.28,5.06,0.69,0.01,0.64,-6,-3,-19,0.69,6430,20,89,33,44,931,354.0,453,459,60,121.0,152,1,343,215,52,0,0,338,3346,3183,354,,,,,,,,,,,,
560283,1560691832097,-0,2.63,2.17,3.57,2.31,5.08,0.73,-0.05,0.62,-4,-3,-17,0.73,6461,20,89,33,44,936,357.0,462,458,60,120.0,146,1,343,215,52,0,0,337,-6528,3302,356,,,,,,,,,,,,
560303,1560691832117,2,2.69,2.16,3.57,2.35,5.03,0.7,-0.13,0.59,-1,-5,-14,0.71,6467,20,89,33,44,942,355.0,462,456,60,121.0,146,1,343,215,52,0,0,333,-20736,-29978,355,,,,,,,,,,,,
560323,1560691832137,3,2.75,2.16,3.61,2.36,5.08,0.69,-0.26,0.63,3,-4,-12,0.74,6478,20,89,33,45,946,357.0,455,463,60,121.0,146,1,350,215,52,0,0,335,-22016,2060,357,,,,,,,,,,,,
560343,1560691832157,-1,2.8,2.14,3.64,2.36,5.07,0.69,-0.29,0.57,5,-5,-9,0.75,6452,20,89,33,45,949,358.0,468,458,60,120.0,146,1,350,217,52,0,0,333,165,-6640,358,45.701416,4.910763,34.03,198.1,5,1.8283,0,0.0,0.18,6,0.18,9.3391
560363,1560691832177,1,2.83,2.1,3.66,2.36,5.08,0.73,-0.36,0.54,8,-6,-5,0.81,6454,20,89,33,45,953,358.0,457,457,60,122.0,146,1,350,217,52,0,0,332,155,-29978,358,,,,,,,,,,,,
560383,1560691832201,4,2.84,2.07,3.68,2.36,5.03,0.75,-0.34,0.51,11,-6,-3,0.82,6461,20,89,33,45,957,359.0,449,453,60,122.0,148,1,350,217,53,0,0,333,150,3082,359,,,,,,,,,,,,
560403,1560691832221,-1,2.84,2.04,3.68,2.36,5.08,0.78,-0.36,0.48,14,-7,1,0.86,6499,20,89,33,46,959,358.0,458,463,60,120.0,148,1,357,218,53,0,0,334,140,-14707,358,,,,,,,,,,,,
560423,1560691832241,3,2.84,2.02,3.68,2.37,5.08,0.71,-0.43,0.51,16,-7,5,0.83,6519,21,89,33,46,959,359.0,467,464,60,120.0,148,1,358,218,53,0,0,334,135,-14707,359,,,,,,,,,,,,
560443,1560691832261,4,2.84,1.99,3.69,2.36,5.07,0.67,-0.55,0.51,19,-6,8,0.86,6530,21,89,33,46,962,360.0,457,453,60,121.0,148,1,358,218,53,0,0,331,-29696,-14707,360,45.701424,4.910765,33.14,198.1,5,1.8283,0,0.0,0.1817,6,0.18,9.3407
560463,1560691832281,0,2.82,1.98,3.69,2.37,5.04,0.8,-0.62,0.51,21,-6,12,1.01,6508,23,89,33,46,965,361.0,462,459,60,120.0,148,1,358,218,53,0,0,338,130,-29302,360,,,,,,,,,,,,
560483,1560691832301,2,2.82,1.98,3.69,2.38,5.07,0.87,-0.71,0.53,23,-7,16,1.12,6508,24,89,33,48,967,362.0,467,458,60,122.0,149,1,368,225,54,0,0,344,-30976,2790,362,,,,,,,,,,,,
560503,1560691832321,24,2.81,1.97,3.69,2.41,5.08,0.79,-0.74,0.47,25,-8,20,1.08,6549,26,89,33,49,969,362.0,454,460,60,121.0,149,1,371,230,54,0,0,346,32000,-29302,362,,,,,,,,,,,,
560523,1560691832341,0,2.79,1.96,3.68,2.41,5.07,0.86,-0.77,0.41,26,-7,24,1.16,6576,27,89,33,50,971,361.0,465,458,60,121.0,149,1,374,236,54,0,0,341,32000,-6640,361,,,,,,,,,,,,
560543,1560691832361,3,2.76,1.97,3.66,2.41,5.08,0.87,-0.79,0.53,28,-7,28,1.18,6583,28,89,33,52,972,361.0,456,458,60,122.0,149,1,380,247,54,0,0,326,32000,4104,361,45.701431,4.910768,32.81,198.1,5,1.8283,0,0.0,0.1833,6,0.18,9.3424
560563,1560691832381,0,2.71,1.96,3.65,2.42,5.05,0.87,-0.81,0.48,29,-5,30,1.19,6565,29,89,33,54,971,362.0,467,462,60,120.0,149,1,387,252,54,0,0,328,32000,2790,362,,,,,,,,,,,,
560583,1560691832397,0,2.63,1.97,3.63,2.44,5.04,0.86,-0.89,0.48,30,-5,32,1.24,6528,30,89,33,55,971,363.0,458,457,60,121.0,174,1,389,260,63,0,0,342,32000,-14707,363,,,,,,,,,,,,
560603,1560691832417,4,2.55,1.97,3.59,2.43,5.06,0.82,-0.86,0.52,30,-6,33,1.19,6533,30,89,33,56,972,364.0,451,446,60,122.0,174,1,391,262,63,0,0,351,120,-6458,364,,,,,,,,,,,,
560623,1560691832437,-2,2.47,1.99,3.56,2.4,5.05,0.89,-0.87,0.49,30,-6,35,1.24,6558,31,89,33,57,976,363.0,418,461,60,121.0,174,1,395,265,63,0,0,345,-32256,-6640,363,,,,,,,,,,,,
560643,1560691832457,2,2.4,2.07,3.44,2.38,5.06,0.8,-0.78,0.48,28,-4,37,1.12,6599,32,89,33,58,981,358.0,316,456,60,122.0,174,1,397,268,63,0,0,335,130,-6640,358,45.701439,4.910772,32.13,198.0,5,1.8283,0,0.0,0.185,6,0.18,9.3441
560663,1560691832477,-0,2.33,2.2,3.31,2.35,5.07,0.81,-0.61,0.43,26,-2,39,1.01,6609,33,89,33,59,985,356.0,288,453,60,122.0,174,1,401,272,63,0,0,325,155,-6644,356,,,,,,,,,,,,
560683,1560691832501,-2,2.28,2.3,3.22,2.32,5.05,0.85,-0.54,0.46,23,0,39,1.01,6467,34,89,33,61,998,350.0,315,461,60,121.0,192,1,401,275,68,0,0,341,-22016,3183,350,,,,,,,,,,,,
560703,1560691832521,1,2.22,2.37,3.13,2.29,5.07,0.89,-0.47,0.58,20,-2,36,1.01,6401,35,89,33,62,1019,347.0,303,457,60,121.0,192,1,395,274,68,0,0,340,2560,-30454,347,,,,,,,,,,,,
560723,1560691832541,3,2.18,2.42,3.06,2.26,5.03,0.8,-0.32,0.62,17,-4,32,0.87,6343,35,89,33,63,1037,345.0,307,457,60,122.0,192,1,388,278,68,0,0,347,-14714,6870,345,,,,,,,,,,,,
560743,1560691832561,2,2.14,2.45,3.02,2.19,5.04,0.73,-0.09,0.49,14,-3,28,0.74,6338,36,89,33,64,1052,346.0,292,458,60,120.0,192,1,384,284,68,0,0,351,-30438,-31206,342,45.701447,4.910777,31.67,198.0,5,1.8283,0,0.0,0.1867,6,0.18,9.3457
560763,1560691832581,-1,2.12,2.45,3.03,2.13,5.06,0.75,-0.03,0.39,11,-0,23,0.75,6330,36,89,33,65,1070,348.0,320,458,60,120.0,192,1,381,291,68,0,0,351,-1246,-31222,338,,,,,,,,,,,,
560783,1560691832601,2,2.08,2.45,3.04,2.09,5.04,0.83,-0.07,0.43,9,-1,19,0.83,6343,42,89,33,67,1095,351.0,335,456,60,120.0,209,1,373,306,71,0,0,350,-30454,3346,337,,,,,,,,,,,,
560803,1560691832621,4,2.07,2.46,3.05,2.06,5.08,0.85,-0.05,0.48,6,-2,15,0.85,6375,50,89,33,70,1115,352.0,356,460,60,121.0,209,1,368,345,71,0,0,349,3183,13,334,,,,,,,,,,,,
560823,1560691832641,5,2.06,2.47,3.05,2.02,5.05,0.77,0.11,0.39,3,0,12,0.78,6390,55,89,33,75,1121,356.0,378,455,60,120.0,209,1,362,407,71,0,0,354,4104,-6528,333,,,,,,,,,,,,
560843,1560691832661,0,2.06,2.48,3.06,1.98,5.06,0.79,0.15,0.35,0,3,10,0.8,6443,57,89,33,79,1133,358.0,397,462,60,120.0,209,1,361,458,71,0,0,356,-29978,-12032,332,45.701454,4.910783,32.25,197.9,5,1.8283,0,0.0,0.1883,6,0.18,9.3474
560863,1560691832681,4,2.05,2.49,3.04,1.97,5.04,0.86,0.19,0.51,-2,2,5,0.88,6585,61,89,33,83,1159,358.0,411,450,60,122.0,209,1,363,479,71,0,0,358,-29302,-6528,330,,,,,,,,,,,,
560883,1560691832701,1,2.07,2.48,3.03,1.98,5.04,0.79,0.24,0.54,-3,3,2,0.83,6793,64,89,33,86,1182,359.0,436,461,60,120.0,373,1,366,499,123,0,0,359,-29302,13,329,,,,,,,,,,,,
560903,1560691832721,-0,2.06,2.49,3.01,1.98,5.07,0.77,0.37,0.54,-5,3,-0,0.85,6965,64,89,33,86,1198,361.0,446,456,60,121.0,373,1,374,510,123,0,0,360,-6458,-10554,331,,,,,,,,,,,,
560923,1560691832741,5,2.06,2.54,2.98,2.01,5.03,0.84,0.29,0.68,-7,3,-2,0.89,7104,65,89,33,87,1219,362.0,460,455,60,119.0,373,1,382,520,123,0,0,366,2790,230,332,,,,,,,,,,,,
560943,1560691832761,1,2.06,2.57,2.95,2.03,5.04,0.86,0.23,0.81,-7,3,-5,0.89,7164,65,89,33,87,1255,362.0,466,458,60,120.0,373,1,389,521,123,0,0,368,3082,-6475,335,45.701458,4.91079,32.98,197.9,5,1.8283,0,0.0,0.19,6,0.18,9.349
560963,1560691832781,2,2.07,2.58,2.94,2.05,5.05,0.75,0.21,0.87,-8,3,-7,0.78,7312,65,89,33,87,1291,366.0,475,459,60,121.0,373,1,396,526,123,0,0,377,0,-6524,339,,,,,,,,,,,,
560983,1560691832800,3,2.06,2.59,2.88,2.07,5.04,0.65,0.25,0.87,-9,4,-8,0.69,7376,65,89,33,87,1309,369.0,485,456,60,120.0,423,1,400,520,146,0,0,381,-6656,1,343,,,,,,,,,,,,
561003,1560691832820,3,2.07,2.6,2.87,2.1,5.07,0.6,0.32,0.94,-10,5,-10,0.68,7440,66,89,33,86,1322,376.0,487,457,60,120.0,423,1,404,521,146,0,0,385,3,-3866,349,,,,,,,,,,,,
561023,1560691832840,2,2.06,2.62,2.84,2.14,5.06,0.48,0.37,0.93,-12,6,-12,0.61,7393,66,89,33,86,1297,381.0,492,453,60,121.0,423,1,401,520,146,0,0,393,-18948,-6524,355,,,,,,,,,,,,
561043,1560691832860,1,2.06,2.65,2.83,2.14,5.05,0.46,0.43,0.88,-13,6,-13,0.63,7373,66,89,33,86,1274,388.0,495,457,60,120.0,423,1,400,519,146,0,0,401,-31744,28696,359,45.701466,4.910795,33.51,197.9,5,1.8283,0,0.0,0.1917,6,0.18,9.3507
561063,1560691832880,-0,2.07,2.67,2.84,2.16,5.07,0.44,0.53,0.78,-14,5,-14,0.69,7358,66,89,33,86,1231,394.0,488,455,60,121.0,423,1,399,519,146,0,0,406,-1818,6384,364,,,,,,,,,,,,
561083,1560691832900,1,2.06,2.68,2.86,2.17,5.04,0.48,0.56,0.8,-15,5,-16,0.73,7443,66,89,33,86,1188,396.0,490,455,60,121.0,401,1,404,521,146,0,0,408,-32702,28696,368,,,,,,,,,,,,
561103,1560691832920,2,2.07,2.68,2.88,2.15,5.06,0.51,0.57,0.77,-17,3,-18,0.77,7542,66,89,33,86,1117,401.0,498,457,60,120.0,401,1,411,524,146,0,0,409,11545,-4059,373,,,,,,,,,,,,
561123,1560691832940,3,2.05,2.68,2.88,2.13,5.04,0.4,0.61,0.74,-17,3,-19,0.73,7754,66,89,33,85,1044,405.0,504,457,60,121.0,401,1,424,520,146,0,0,413,-26615,-9166,375,,,,,,,,,,,,
561143,1560691832960,1,2.05,2.68,2.88,2.13,5.05,0.36,0.62,0.73,-17,3,-19,0.72,7931,66,89,33,84,1012,412.0,514,453,60,120.0,401,1,433,504,146,0,0,420,-4059,-3414,380,45.701477,4.9108,34.91,197.9,5,1.8283,0,0.0,0.1933,6,0.19,9.3524
561163,1560691832980,2,2.06,2.69,2.88,2.12,5.05,0.36,0.69,0.69,-18,5,-20,0.78,8173,66,89,33,81,984,415.0,536,462,60,120.0,401,1,434,511,146,0,0,427,-26615,-3314,383,,,,,,,,,,,,
561183,1560691832994,1,2.05,2.71,2.83,2.12,5.04,0.37,0.66,0.81,-19,4,-21,0.76,8359,67,89,33,79,946,421.0,535,452,60,120.0,401,1,430,489,154,0,0,434,-21792,26704,387,,,,,,,,,,,,
561203,1560691833014,4,2.05,2.74,2.81,2.14,5.05,0.32,0.77,0.87,-19,5,-21,0.83,8461,67,89,33,77,908,426.0,548,462,60,121.0,401,1,427,468,154,0,0,440,13552,8488,390,,,,,,,,,,,,
561223,1560691833034,1,2.06,2.75,2.8,2.16,5.07,0.28,0.79,0.83,-19,5,-23,0.84,8530,67,89,33,76,891,434.0,568,447,60,120.0,401,1,426,455,154,0,0,449,243,2524,396,,,,,,,,,,,,
561243,1560691833054,1,2.06,2.75,2.8,2.17,5.04,0.4,0.71,0.93,-21,4,-24,0.82,8538,67,89,33,76,881,437.0,577,452,60,120.0,401,1,426,456,154,0,0,454,19477,8488,401,45.701481,4.910804,36.62,197.9,5,1.8283,0,0.0,0.195,6,0.19,9.354
561263,1560691833074,5,2.06,2.75,2.79,2.17,5.08,0.39,0.79,0.9,-21,2,-24,0.88,8546,68,89,33,75,874,445.0,559,462,60,121.0,401,1,426,456,154,0,0,461,21432,17628,405,,,,,,,,,,,,
561283,1560691833100,4,2.05,2.76,2.78,2.17,5.06,0.27,0.88,0.83,-21,5,-26,0.92,8553,68,89,33,75,868,451.0,565,458,60,120.0,354,1,426,436,145,0,0,466,3571,8488,411,,,,,,,,,,,,
561303,1560691833120,2,2.07,2.76,2.78,2.16,5.04,0.35,0.77,0.88,-22,2,-27,0.85,8660,68,89,33,75,869,453.0,569,451,60,120.0,354,1,423,436,145,0,0,471,-26615,-3210,417,,,,,,,,,,,,
561323,1560691833140,3,2.06,2.76,2.8,2.15,5.06,0.42,0.75,0.92,-22,1,-27,0.86,8802,68,89,33,75,872,459.0,563,464,60,121.0,354,1,420,446,145,0,0,470,-18108,16408,420,,,,,,,,,,,,
561343,1560691833160,1,2.07,2.76,2.84,2.15,5.04,0.58,0.53,1.02,-23,0,-29,0.78,8894,68,89,33,74,892,465.0,581,461,60,121.0,354,1,417,436,145,0,0,480,-3210,32033,428,45.701492,4.910809,39.25,197.9,5,1.8283,0,0.0,0.1967,6,0.19,9.3557
561363,1560691833180,4,2.07,2.76,2.83,2.15,5.03,0.7,0.37,1.08,-24,-1,-30,0.79,9040,68,89,33,74,919,470.0,589,454,60,121.0,354,1,413,427,145,0,0,481,8488,505,431,,,,,,,,,,,,
561383,1560691833200,3,2.08,2.77,2.82,2.14,5.08,0.8,0.13,1.16,-24,-1,-31,0.81,9168,68,89,33,73,943,474.0,588,457,60,121.0,346,1,414,427,150,0,0,493,-9203,-899,434,,,,,,,,,,,,
561403,1560691833220,4,2.08,2.77,2.78,2.14,5.07,0.72,0.09,1.19,-24,-1,-32,0.72,9291,68,89,33,73,966,477.0,597,457,60,120.0,346,1,414,427,150,0,0,495,2212,-1818,439,,,,,,,,,,,,
561423,1560691833240,0,2.07,2.78,2.76,2.14,5.04,0.54,0.25,1.13,-24,-0,-33,0.59,9351,68,90,33,73,995,483.0,615,453,60,111.0,346,1,415,417,150,0,0,499,3580,-6656,441,,,,,,,,,,,,
561443,1560691833260,3,2.07,2.78,2.77,2.14,5.06,0.55,0.43,1.09,-24,1,-32,0.7,9370,68,89,33,72,1027,487.0,630,451,60,112.0,346,1,415,417,150,0,0,498,505,-28648,446,45.7015,4.910812,41.64,197.8,5,1.8283,0,0.0,0.1983,6,0.19,9.3574
561463,1560691833280,3,2.08,2.78,2.75,2.15,5.04,0.7,0.36,1.14,-24,-3,-32,0.79,9412,68,90,33,72,1049,491.0,611,456,60,112.0,346,1,415,417,150,0,0,508,248,-3856,451,,,,,,,,,,,,
561483,1560691833300,-1,2.09,2.78,2.77,2.13,5.04,0.56,0.42,1.12,-25,-1,-33,0.7,9488,68,90,33,72,1058,495.0,613,458,60,112.0,331,1,415,417,150,0,0,510,-9216,16383,457,,,,,,,,,,,,
561503,1560691833320,3,2.09,2.77,2.78,2.14,5.06,0.5,0.57,1.09,-24,1,-33,0.76,9576,68,90,33,71,1068,500.0,613,457,60,112.0,331,1,413,424,150,0,0,523,10408,-8187,463,,,,,,,,,,,,
561523,1560691833340,-1,2.11,2.79,2.78,2.16,5.05,0.62,0.48,1.1,-24,-0,-34,0.79,9699,68,90,33,71,1079,503.0,625,460,60,113.0,331,1,408,426,150,0,0,515,2109,15679,466,,,,,,,,,,,,
561543,1560691833360,3,2.1,2.81,2.8,2.21,5.07,0.45,0.59,1.05,-23,0,-33,0.74,9780,68,90,33,70,1085,509.0,621,455,60,113.0,331,1,405,436,150,0,0,524,10994,17136,468,45.701515,4.910814,44.26,197.8,5,1.8283,0,0.0,0.2,6,0.19,9.359
561563,1560691833380,1,2.11,2.79,2.83,2.2,5.07,0.5,0.54,1.1,-23,-1,-33,0.74,9842,68,90,33,70,1087,510.0,626,459,60,113.0,331,1,402,432,150,0,0,526,-4054,2088,470,,,,,,,,,,,,
561583,1560691833400,3,2.13,2.79,2.78,2.17,5.05,0.42,0.52,1.08,-23,1,-33,0.67,9957,68,90,33,69,1089,516.0,621,461,60,113.0,341,1,397,437,163,0,0,532,16383,-22519,480,,,,,,,,,,,,
561603,1560691833420,4,2.14,2.78,2.78,2.16,5.07,0.4,0.63,1.04,-22,-0,-32,0.74,9994,68,90,33,69,1091,521.0,628,452,60,113.0,341,1,396,441,163,0,0,531,-9212,-8962,485,,,,,,,,,,,,
561623,1560691833440,3,2.14,2.77,2.78,2.17,5.05,0.44,0.55,1.06,-22,-1,-32,0.7,10069,68,90,33,69,1093,524.0,624,461,60,114.0,341,1,401,443,163,0,0,536,10408,-2336,491,,,,,,,,,,,,
561643,1560691833460,2,2.16,2.77,2.82,2.18,5.08,0.39,0.56,0.93,-21,2,-31,0.68,10151,68,90,33,69,1094,528.0,633,458,60,113.0,341,1,409,445,163,0,0,548,-28648,-30064,494,45.701523,4.910816,46.68,197.7,5,1.8283,0,0.0,0.2017,6,0.19,9.3607
561663,1560691833480,4,2.16,2.75,2.88,2.18,5.08,0.37,0.65,0.95,-20,2,-29,0.75,10168,68,90,33,69,1094,529.0,637,454,60,114.0,341,1,411,446,163,0,0,551,-9072,-22263,499,,,,,,,,,,,,
561683,1560691833500,4,2.16,2.74,2.86,2.18,5.06,0.34,0.66,1.01,-20,1,-28,0.74,10285,68,90,33,69,1094,532.0,634,460,60,114.0,348,1,422,449,174,0,0,551,14504,-506,507,,,,,,,,,,,,
561703,1560691833520,4,2.16,2.74,2.83,2.17,5.05,0.5,0.66,1.09,-20,2,-27,0.83,10341,68,90,33,69,1094,538.0,629,462,60,114.0,348,1,424,450,174,0,0,556,-8186,-8962,513,,,,,,,,,,,,
561723,1560691833540,3,2.17,2.73,2.81,2.17,5.08,0.65,0.66,1.13,-20,-1,-27,0.93,10382,68,90,33,69,1093,542.0,633,459,60,114.0,348,1,430,450,174,0,0,557,-3082,6273,516,,,,,,,,,,,,
561743,1560691833560,-1,2.18,2.73,2.81,2.16,5.07,0.71,0.62,1.18,-20,-3,-26,0.94,10439,68,90,33,69,1093,545.0,633,455,60,114.0,348,1,433,454,174,0,0,556,-8962,-22359,521,45.701538,4.910816,48.87,197.7,5,1.8283,0,0.0,0.2033,6,0.19,9.3624
561763,1560691833580,2,2.18,2.73,2.86,2.16,5.07,0.73,0.6,1.12,-19,-2,-25,0.95,10457,68,90,33,70,1092,549.0,638,456,60,115.0,348,1,436,459,174,0,0,568,2104,-29984,524,,,,,,,,,,,,
561783,1560691833600,2,2.18,2.73,2.86,2.18,5.08,0.86,0.58,1.19,-19,-2,-24,1.04,10575,68,90,33,70,1091,551.0,628,456,60,115.0,347,1,440,461,183,0,0,564,6274,-30159,531,,,,,,,,,,,,
561803,1560691833620,4,2.18,2.72,2.86,2.2,5.04,0.93,0.63,1.21,-18,-4,-22,1.13,10605,68,90,33,70,1091,555.0,626,458,60,115.0,347,1,443,461,183,0,0,571,2216,-30159,535,,,,,,,,,,,,
561823,1560691833640,5,2.17,2.71,2.86,2.19,5.05,1.01,0.53,1.2,-18,-4,-22,1.14,10708,68,90,33,70,1089,559.0,631,455,60,115.0,347,1,443,461,183,0,0,578,6273,-29984,539,,,,,,,,,,,,
561843,1560691833660,1,2.19,2.71,2.83,2.2,5.08,0.87,0.5,1.21,-17,-2,-23,1.0,10788,68,90,33,70,1083,563.0,636,459,60,115.0,347,1,445,461,183,0,0,576,-30159,15649,545,45.70155,4.910816,51.25,197.6,5,1.8283,0,0.0,0.205,6,0.19,9.364
561863,1560691833680,-0,2.19,2.71,2.84,2.19,5.08,0.76,0.52,1.07,-16,-1,-23,0.92,10813,68,90,33,70,1077,566.0,636,457,60,115.0,347,1,445,461,183,0,0,579,1780,-3210,546,,,,,,,,,,,,
561883,1560691833702,-1,2.19,2.69,2.86,2.18,5.07,0.74,0.61,1.02,-16,-2,-22,0.96,10945,68,90,33,70,1071,567.0,626,465,60,118.0,347,1,448,461,190,0,0,581,1780,-25872,549,,,,,,,,,,,,
561903,1560691833722,-1,2.19,2.66,2.9,2.16,5.07,0.75,0.69,0.97,-16,-4,-20,1.02,10492,68,90,33,71,1067,574.0,638,459,60,118.0,347,1,436,465,190,0,0,583,1,15649,559,,,,,,,,,,,,
561923,1560691833742,-0,2.19,2.63,2.92,2.14,5.03,0.81,0.6,0.92,-16,-2,-21,1.01,10113,68,90,33,73,1052,578.0,640,461,60,117.0,347,1,404,471,190,0,0,583,-3210,774,561,,,,,,,,,,,,
561943,1560691833762,-0,2.18,2.61,2.99,2.09,5.05,0.72,0.66,0.77,-15,-2,-20,0.98,9837,69,90,33,75,1037,577.0,636,464,60,118.0,347,1,402,471,190,0,0,575,30208,-32504,562,45.701561,4.910815,53.21,197.6,5,1.8283,0,0.0,0.2067,6,0.2,9.3657
561963,1560691833782,-1,2.19,2.59,3.04,2.07,5.07,0.85,0.46,0.77,-16,-1,-20,0.97,9654,69,90,33,76,1027,576.0,623,456,60,117.0,347,1,410,466,190,0,0,578,243,-22359,558,,,,,,,,,,,,
561983,1560691833801,4,2.18,2.62,3.05,2.06,5.05,0.9,0.24,0.89,-16,1,-19,0.93,9422,69,90,33,76,1018,578.0,615,471,60,118.0,300,1,415,456,168,0,0,581,-3210,12552,560,,,,,,,,,,,,
562003,1560691833821,3,2.18,2.67,2.98,2.08,5.05,0.76,0.22,1.0,-15,2,-19,0.79,8632,70,90,33,77,1073,582.0,597,459,60,116.0,300,1,423,801,168,0,0,602,8488,771,558,,,,,,,,,,,,
562023,1560691833841,4,2.17,2.69,2.88,2.1,5.05,0.81,0.34,0.94,-15,-0,-19,0.88,7944,71,90,33,80,1126,589.0,561,464,60,117.0,300,1,434,740,168,0,0,608,2048,-3038,562,,,,,,,,,,,,
562043,1560691833861,2,2.17,2.68,2.83,2.1,5.03,0.83,0.37,1.03,-16,-2,-21,0.91,7978,71,90,33,82,1187,589.0,531,458,60,117.0,300,1,436,685,168,0,0,599,208,-29984,566,45.701576,4.910814,54.92,197.6,5,1.8283,0,0.0,0.2083,6,0.2,9.3674
562063,1560691833881,1,2.18,2.65,2.83,2.07,5.06,0.72,0.38,1.03,-15,-3,-22,0.81,8344,71,90,33,81,1251,589.0,530,456,60,117.0,300,1,430,625,168,0,0,599,2048,-12040,568,,,,,,,,,,,,
562083,1560691833901,3,2.18,2.68,2.84,2.08,5.04,0.77,0.35,1.07,-15,-2,-22,0.84,8472,72,90,33,80,1330,595.0,548,455,60,116.0,326,1,428,531,187,0,0,609,-16179,19621,572,,,,,,,,,,,,
562103,1560691833921,-1,2.18,2.73,2.86,2.14,5.05,0.73,0.34,1.06,-15,-1,-21,0.81,8511,72,90,33,80,1411,597.0,547,465,60,116.0,326,1,427,497,187,0,0,617,30227,24,575,,,,,,,,,,,,
562123,1560691833941,2,2.17,2.74,2.86,2.22,5.05,0.61,0.39,1.0,-15,-1,-20,0.72,8546,72,90,33,79,1443,601.0,553,452,60,116.0,326,1,426,497,187,0,0,621,243,6208,579,,,,,,,,,,,,
562143,1560691833961,2,2.16,2.73,2.86,2.24,5.07,0.61,0.41,1.07,-15,2,-21,0.74,8589,73,90,33,79,1460,601.0,552,453,60,116.0,326,1,425,483,187,0,0,635,243,-18357,579,45.701588,4.910811,56.11,197.5,5,1.8283,0,0.0,0.21,6,0.2,9.3691
562163,1560691833981,1,2.17,2.7,2.82,2.22,5.05,0.7,0.43,1.15,-15,1,-20,0.82,8593,73,90,33,78,1414,608.0,560,450,60,117.0,326,1,424,497,187,0,0,634,-3446,19320,590,,,,,,,,,,,,
562183,1560691833993,5,2.17,2.7,2.79,2.18,5.04,0.67,0.53,1.02,-16,2,-20,0.85,8514,73,90,33,79,1346,616.0,552,456,60,117.0,269,1,426,497,160,0,0,634,19304,-2830,595,,,,,,,,,,,,
562203,1560691834013,2,2.19,2.71,2.81,2.17,5.04,0.65,0.54,1.02,-16,1,-21,0.85,8557,73,90,33,79,1267,623.0,546,453,60,116.0,269,1,425,497,160,0,0,638,3395,-3038,599,,,,,,,,,,,,
562223,1560691834033,1,2.19,2.7,2.88,2.13,5.06,0.79,0.48,1.11,-15,0,-23,0.92,8700,74,90,33,79,1183,625.0,555,469,60,117.0,269,1,422,497,160,0,0,643,506,-3584,600,,,,,,,,,,,,
562243,1560691834053,3,2.2,2.7,2.9,2.16,5.04,0.91,0.39,1.2,-16,-4,-22,0.99,8852,74,90,33,78,1115,627.0,564,457,60,117.0,269,1,418,483,160,0,0,647,966,3,604,45.701603,4.910808,57.34,197.5,5,1.8283,0,0.0,0.2117,6,0.2,9.3707
562263,1560691834073,0,2.2,2.7,2.86,2.16,5.06,0.98,0.43,1.23,-16,-1,-21,1.07,8882,74,90,33,78,1053,633.0,572,450,60,117.0,269,1,418,483,160,0,0,651,3,11776,608,,,,,,,,,,,,
562283,1560691834099,-0,2.2,2.71,2.74,2.15,5.06,1.02,0.56,1.27,-17,-3,-19,1.17,8840,74,90,33,78,1032,633.0,576,463,60,117.0,267,1,419,483,163,0,0,653,-10251,-2830,615,,,,,,,,,,,,
562303,1560691834119,-1,2.2,2.71,2.74,2.13,5.05,0.88,0.7,1.14,-16,-3,-18,1.13,8811,74,90,33,78,1054,640.0,592,453,60,117.0,267,1,419,483,163,0,0,655,24,-3038,618,,,,,,,,,,,,
562323,1560691834139,2,2.19,2.7,2.73,2.14,5.04,0.69,0.83,1.07,-14,2,-16,1.08,8852,73,90,33,78,1079,643.0,591,457,60,117.0,267,1,418,483,163,0,0,655,-2830,8958,624,,,,,,,,,,,,
562343,1560691834159,5,2.19,2.68,2.84,2.13,5.03,0.46,0.95,0.98,-13,2,-15,1.06,8903,72,90,33,76,1106,647.0,588,455,60,117.0,267,1,416,456,163,0,0,662,-8429,-3488,630,45.701618,4.910803,59.02,197.4,5,1.8283,0,0.0,0.2133,6,0.2,9.3724
562363,1560691834179,5,2.2,2.68,2.84,2.16,5.04,0.22,1.05,0.87,-12,4,-15,1.07,8920,70,90,33,75,1123,650.0,587,448,60,117.0,267,1,417,446,163,0,0,660,-6006,-27404,633,,,,,,,,,,,,
562383,1560691834201,1,2.19,2.67,2.86,2.16,5.06,0.07,1.14,0.8,-12,6,-14,1.14,9040,70,90,33,75,1129,651.0,587,458,60,117.0,240,1,413,446,152,0,0,665,2024,-3038,634,,,,,,,,,,,,
562403,1560691834221,1,2.19,2.67,2.87,2.17,5.04,-0.14,1.23,0.73,-11,9,-12,1.24,9150,69,90,33,73,1134,654.0,582,457,60,117.0,240,1,413,427,152,0,0,672,-2830,-26892,637,,,,,,,,,,,,
562423,1560691834241,3,2.19,2.67,2.82,2.16,5.05,-0.11,1.31,0.68,-12,6,-11,1.31,9236,69,90,33,73,1137,658.0,596,457,60,117.0,240,1,414,427,152,0,0,670,-3038,24845,641,,,,,,,,,,,,
562443,1560691834261,3,2.19,2.67,2.82,2.15,5.07,0.08,1.23,0.73,-12,5,-11,1.23,9286,69,90,33,73,1140,660.0,596,465,60,117.0,240,1,414,427,152,0,0,681,-10348,19188,646,45.70163,4.910797,60.91,197.3,5,1.8283,0,0.0,0.215,6,0.2,9.3741
562463,1560691834281,3,2.2,2.71,2.82,2.18,5.05,0.28,0.94,0.81,-12,3,-11,0.98,9309,68,90,33,72,1138,667.0,606,457,60,117.0,240,1,414,417,152,0,0,687,3543,-2830,648,,,,,,,,,,,,
562483,1560691834301,-0,2.19,2.69,2.85,2.15,5.05,0.31,0.86,0.86,-12,3,-13,0.91,9360,67,90,33,71,1132,669.0,593,455,60,117.0,226,1,415,407,147,0,0,684,31988,-26562,647,,,,,,,,,,,,
562503,1560691834321,1,2.19,2.66,2.83,2.13,5.04,0.08,0.93,0.88,-12,4,-12,0.94,9360,67,90,33,70,1120,675.0,600,452,60,117.0,226,1,415,407,147,0,0,696,-2345,-2830,660,,,,,,,,,,,,
562523,1560691834341,3,2.18,2.67,2.81,2.13,5.05,0.15,1.02,0.84,-12,4,-11,1.03,9356,66,90,33,70,1108,682.0,608,456,60,118.0,226,1,415,398,147,0,0,696,-10344,16599,662,,,,,,,,,,,,
562543,1560691834361,4,2.18,2.69,2.82,2.14,5.07,0.33,0.92,0.91,-13,2,-14,0.98,9375,66,90,33,69,1098,685.0,616,459,60,117.0,226,1,415,398,147,0,0,699,-10344,14342,659,45.701645,4.910791,63.3,197.3,5,1.8283,0,0.0,0.2167,6,0.21,9.3757
562563,1560691834381,-0,2.18,2.7,2.83,2.14,5.07,0.29,0.79,0.9,-13,3,-14,0.84,9450,66,90,33,69,1087,685.0,617,465,60,117.0,226,1,415,388,147,0,0,694,24845,-13072,662,,,,,,,,,,,,
562583,1560691834401,3,2.18,2.67,2.82,2.11,5.07,0.19,0.91,0.87,-13,4,-13,0.93,9546,66,90,33,69,1072,687.0,620,457,60,118.0,211,1,415,393,140,0,0,702,6208,-3584,663,,,,,,,,,,,,
562603,1560691834421,5,2.17,2.67,2.81,2.09,5.04,0.37,0.84,0.87,-13,3,-14,0.92,9610,66,90,33,68,1059,691.0,621,458,60,117.0,211,1,412,391,140,0,0,701,1780,15647,671,,,,,,,,,,,,
562623,1560691834441,2,2.17,2.67,2.82,2.07,5.08,0.26,0.95,0.92,-13,4,-14,0.99,9674,66,90,33,67,1055,697.0,617,458,60,117.0,211,1,410,392,140,0,0,710,24,31988,674,,,,,,,,,,,,
562643,1560691834461,4,2.18,2.68,2.82,2.08,5.04,0.37,0.92,0.94,-13,3,-16,1.0,9715,66,90,33,67,1051,700.0,611,452,60,118.0,211,1,408,396,140,0,0,711,-2830,-2560,677,45.70166,4.910783,64.62,197.3,5,1.8283,0,0.0,0.2183,6,0.21,9.3774
562663,1560691834481,3,2.17,2.7,2.83,2.08,5.04,0.39,0.92,0.9,-14,4,-17,1.0,9755,63,90,33,66,1050,703.0,610,455,60,117.0,211,1,408,397,140,0,0,721,15647,-3888,676,,,,,,,,,,,,
562683,1560691834501,5,2.18,2.69,2.76,2.07,5.04,0.51,0.76,0.94,-14,3,-18,0.92,9765,61,90,33,65,1049,707.0,613,458,60,117.0,214,1,408,388,145,0,0,723,6658,-13312,676,,,,,,,,,,,,
562703,1560691834521,3,2.18,2.68,2.76,2.04,5.04,0.39,0.83,0.93,-14,5,-17,0.92,9750,57,90,33,63,1052,705.0,620,456,60,117.0,214,1,411,375,145,0,0,723,204,-3344,686,,,,,,,,,,,,
562723,1560691834541,4,2.18,2.67,2.72,2.01,5.04,0.5,0.7,1.01,-14,5,-18,0.86,9730,53,90,33,61,1055,713.0,618,459,60,118.0,214,1,412,361,145,0,0,724,-13312,-13312,691,,,,,,,,,,,,
562743,1560691834561,2,2.19,2.67,2.75,2.01,5.05,0.43,0.8,1.02,-13,6,-16,0.91,9694,48,90,33,58,1051,716.0,629,455,60,117.0,214,1,407,342,145,0,0,722,-23490,-2830,693,45.701675,4.910775,66.38,197.3,5,1.8283,0,0.0,0.22,6,0.21,9.3791
562763,1560691834581,4,2.17,2.69,2.8,2.09,5.05,0.48,0.76,1.06,-13,3,-16,0.9,9720,46,90,33,55,1048,716.0,628,460,60,117.0,214,1,401,323,145,0,0,720,16118,-2830,692,,,,,,,,,,,,
562783,1560691834601,2,2.17,2.71,2.8,2.15,5.04,0.52,0.8,0.97,-13,3,-17,0.96,9811,45,90,33,53,1041,713.0,629,454,60,117.0,169,1,397,306,117,0,0,722,-13312,16118,690,,,,,,,,,,,,
562803,1560691834621,6,2.16,2.69,2.8,2.15,5.07,0.64,0.81,0.96,-14,1,-16,1.03,9811,45,90,33,52,1034,709.0,617,456,60,117.0,169,1,394,295,117,0,0,723,-12152,-3450,693,,,,,,,,,,,,
562823,1560691834641,4,2.16,2.68,2.83,2.14,5.04,0.62,0.85,0.95,-15,1,-16,1.05,9755,43,90,33,51,1006,712.0,621,454,60,117.0,169,1,391,284,117,0,0,721,204,-25858,697,,,,,,,,,,,,
562843,1560691834661,-3,2.18,2.68,2.94,2.1,5.06,0.76,0.76,0.87,-15,-1,-17,1.07,9745,40,90,33,49,978,718.0,619,458,60,117.0,169,1,385,263,117,0,0,729,-31068,-3344,697,45.701691,4.910766,67.43,197.2,5,1.8283,0,0.0,0.2217,6,0.21,9.3807
562863,1560691834681,3,2.17,2.67,3.08,2.08,5.07,0.62,0.81,0.81,-15,-3,-18,1.03,9832,36,90,33,47,955,721.0,629,460,60,117.0,169,1,380,244,117,0,0,727,31988,-31066,699,,,,,,,,,,,,
562883,1560691834701,1,2.18,2.67,3.1,2.05,5.05,0.67,0.67,0.75,-15,-1,-18,0.94,9873,34,90,33,45,934,723.0,628,462,60,118.0,127,1,365,238,89,0,0,733,-25858,16118,696,,,,,,,,,,,,
562903,1560691834721,3,2.19,2.66,3.09,2.02,5.07,0.63,0.8,0.69,-16,0,-17,1.01,9791,33,90,33,43,895,722.0,620,459,60,117.0,127,1,350,230,89,0,0,724,-2918,-20693,699,,,,,,,,,,,,
562923,1560691834741,-0,2.2,2.65,3.03,2.0,5.05,0.74,0.68,0.76,-15,-0,-18,1.01,9694,33,90,33,41,857,726.0,626,462,60,118.0,127,1,335,222,89,0,0,730,-4091,-13580,702,,,,,,,,,,,,
562943,1560691834761,3,2.19,2.66,2.96,1.99,5.05,0.68,0.81,0.71,-15,0,-19,1.05,9694,32,90,33,40,834,726.0,626,465,60,117.0,127,1,327,222,89,0,0,722,-3344,-12152,698,45.701706,4.910756,68.96,197.2,5,1.8283,0,0.0,0.2233,6,0.21,9.3824
562963,1560691834781,3,2.2,2.66,2.9,1.99,5.07,0.81,0.72,0.75,-15,-1,-20,1.08,9699,32,90,33,39,817,725.0,628,452,60,118.0,127,1,320,219,89,0,0,724,1524,-12152,700,,,,,,,,,,,,
562983,1560691834800,4,2.2,2.66,2.89,1.98,5.05,0.84,0.77,0.66,-15,-1,-20,1.14,9664,32,90,33,38,797,718.0,625,460,60,118.0,113,1,317,213,79,0,0,719,-31068,-30694,695,,,,,,,,,,,,
563003,1560691834820,2,2.2,2.64,2.9,1.96,5.07,0.95,0.72,0.71,-15,-4,-19,1.19,9615,31,90,33,37,775,719.0,629,456,60,118.0,113,1,314,211,79,0,0,722,-3450,8010,695,,,,,,,,,,,,
563023,1560691834840,2,2.2,2.62,2.95,1.92,5.04,0.98,0.61,0.69,-14,-3,-19,1.16,9580,31,90,32,37,766,719.0,622,458,60,117.0,113,1,314,211,79,0,0,719,-3450,-20693,702,,,,,,,,,,,,
563043,1560691834860,2,2.2,2.62,3.01,1.92,5.05,0.78,0.75,0.57,-14,-4,-18,1.08,9541,31,90,32,37,762,720.0,621,457,60,118.0,113,1,314,210,79,0,0,714,-31068,6208,699,45.701721,4.910745,69.1,197.2,5,1.8283,0,0.0,0.225,6,0.21,9.3841
563063,1560691834880,4,2.2,2.62,3.04,1.93,5.05,0.9,0.68,0.65,-15,-3,-19,1.13,9508,31,90,32,36,755,719.0,623,461,60,118.0,113,1,311,208,79,0,0,715,-3450,-10448,695,,,,,,,,,,,,
563083,1560691834900,2,2.2,2.61,3.06,1.92,5.05,0.93,0.48,0.7,-15,-2,-20,1.04,9460,30,90,32,35,748,718.0,625,458,60,117.0,106,1,308,207,74,0,0,715,-23490,-10448,696,,,,,,,,,,,,
563103,1560691834920,1,2.21,2.6,3.05,1.91,5.07,0.69,0.63,0.57,-14,0,-20,0.94,9479,30,90,32,35,743,716.0,633,458,60,117.0,106,1,308,204,74,0,0,710,16118,19188,699,,,,,,,,,,,,
563123,1560691834940,4,2.21,2.59,3.03,1.92,5.07,0.83,0.64,0.58,-15,-3,-19,1.05,9469,29,90,32,34,740,717.0,622,461,60,118.0,106,1,305,202,74,0,0,716,-2830,6208,697,,,,,,,,,,,,
563143,1560691834960,-0,2.2,2.6,3.02,1.92,5.04,0.92,0.4,0.7,-14,-3,-20,1.0,9455,28,90,32,34,737,716.0,629,466,60,117.0,106,1,305,202,74,0,0,717,16118,-10448,695,45.701736,4.910734,69.37,197.2,5,1.8283,0,0.0,0.2267,6,0.22,9.3857
563163,1560691834980,1,2.21,2.6,3.01,1.92,5.05,1.03,0.48,0.66,-14,0,-18,1.14,9498,28,90,32,33,735,717.0,627,455,60,118.0,106,1,302,199,74,0,0,707,-13312,687,695,,,,,,,,,,,,
563183,1560691834992,5,2.21,2.6,2.99,1.93,5.05,1.06,0.55,0.68,-14,-3,-18,1.2,9484,27,90,32,33,735,711.0,632,462,60,118.0,102,1,302,199,71,0,0,714,-13072,6208,693,,,,,,,,,,,,
563203,1560691835012,9,2.19,2.59,2.98,1.92,5.04,0.85,0.69,0.53,-14,-1,-18,1.09,9403,26,90,32,32,735,709.0,628,457,60,118.0,102,1,300,196,71,0,0,706,-12152,6208,693,,,,,,,,,,,,
563223,1560691835032,8,2.2,2.56,2.99,1.9,5.04,0.83,0.82,0.45,-13,1,-17,1.17,9356,23,90,32,31,737,704.0,634,456,60,118.0,102,1,295,194,71,0,0,704,11069,6208,688,,,,,,,,,,,,
563243,1560691835052,12,2.2,2.53,3.05,1.9,5.08,0.95,0.68,0.59,-13,-0,-15,1.17,9263,20,90,32,29,740,705.0,631,461,60,117.0,102,1,287,191,71,0,0,703,687,-10344,687,45.701752,4.91072,69.03,197.2,5,1.8283,0,0.0,0.2283,6,0.22,9.3874
563263,1560691835072,15,2.21,2.51,3.13,1.89,5.04,1.06,0.53,0.64,-13,-3,-17,1.18,9146,18,90,32,28,743,699.0,615,461,60,118.0,102,1,282,188,71,0,0,698,-3584,-10346,682,,,,,,,,,,,,
563283,1560691835100,15,2.22,2.48,3.16,1.87,5.07,1.11,0.32,0.74,-13,-5,-14,1.15,8984,17,90,32,26,745,695.0,615,463,60,118.0,95,1,274,188,65,0,0,694,-10448,3543,679,,,,,,,,,,,,
563303,1560691835120,16,2.22,2.47,3.19,1.88,5.04,1.2,0.34,0.8,-13,-5,-12,1.25,8773,16,90,32,26,749,694.0,608,460,60,118.0,95,1,274,188,65,0,0,695,14342,-2830,674,,,,,,,,,,,,
563323,1560691835140,19,2.22,2.46,3.25,1.88,5.04,1.15,0.39,0.67,-13,-3,-13,1.21,8573,16,90,32,25,753,690.0,605,460,60,118.0,95,1,270,188,65,0,0,676,-2830,31988,667,,,,,,,,,,,,
563343,1560691835160,20,2.22,2.44,3.25,1.86,5.04,1.18,0.36,0.57,-13,-5,-15,1.23,8534,16,90,32,25,757,683.0,599,461,60,118.0,95,1,270,188,65,0,0,659,3543,-2830,664,45.701763,4.910706,68.82,197.3,5,1.8283,0,0.0,0.23,6,0.22,9.389
563363,1560691835180,20,2.22,2.32,3.25,1.78,5.06,1.18,0.35,0.51,-12,-5,-13,1.23,8553,15,90,32,25,759,676.0,591,462,60,118.0,95,1,270,188,65,0,0,641,-26892,269,660,,,,,,,,,,,,
563383,1560691835200,22,2.24,2.25,3.31,1.72,5.05,1.12,0.5,0.34,-11,-2,-13,1.23,8546,15,90,32,25,762,673.0,592,462,60,118.0,90,1,270,188,60,0,0,626,-26380,-16179,658,,,,,,,,,,,,
563403,1560691835220,19,2.24,2.23,3.32,1.7,5.05,1.21,0.39,0.34,-11,-2,-13,1.28,8396,15,90,32,26,769,667.0,592,454,60,118.0,90,1,273,181,60,0,0,647,1549,-1894,652,,,,,,,,,,,,
563423,1560691835240,19,2.24,2.23,3.33,1.71,5.05,1.2,0.45,0.27,-11,-1,-12,1.28,8220,15,90,32,26,776,663.0,580,460,60,118.0,90,1,273,172,60,0,0,634,-27404,30227,642,,,,,,,,,,,,
563443,1560691835260,16,2.25,2.23,3.3,1.71,5.07,1.24,0.31,0.28,-11,-2,-12,1.28,8159,15,90,32,26,781,655.0,575,462,60,118.0,90,1,273,169,60,0,0,627,31988,6273,638,45.701778,4.910692,67.21,197.3,5,1.8283,0,0.0,0.2317,6,0.22,9.3907
563463,1560691835280,20,2.24,2.21,3.26,1.7,5.04,1.32,0.42,0.18,-11,-2,-12,1.38,8130,15,90,32,26,791,641.0,565,460,60,118.0,90,1,273,167,60,0,0,615,-3584,-32504,633,,,,,,,,,,,,
563483,1560691835300,24,2.24,2.19,3.26,1.67,5.05,1.3,0.37,0.26,-11,-3,-12,1.35,8127,15,90,32,26,814,638.0,558,458,60,118.0,80,1,273,167,51,0,0,607,16599,8488,625,,,,,,,,,,,,
563503,1560691835320,18,2.24,2.16,3.26,1.68,5.04,1.33,0.4,0.14,-10,-3,-13,1.39,8123,14,90,32,25,838,632.0,567,458,60,117.0,80,1,270,166,51,0,0,603,3,243,624,,,,,,,,,,,,
563523,1560691835340,21,2.24,2.17,3.31,1.69,5.04,1.2,0.4,0.08,-9,-2,-11,1.27,8099,14,90,32,25,856,626.0,564,461,60,118.0,80,1,270,164,51,0,0,607,-1346,-30159,614,,,,,,,,,,,,
563543,1560691835360,21,2.24,2.17,3.37,1.69,5.04,1.2,0.29,0.15,-8,-3,-11,1.23,7948,14,90,32,25,877,618.0,555,456,60,118.0,80,1,269,159,51,0,0,603,30721,6273,606,45.701794,4.910677,64.5,197.3,5,1.8283,0,0.0,0.2333,6,0.22,9.3924
563563,1560691835380,16,2.25,2.15,3.38,1.69,5.04,1.28,0.21,0.19,-8,-4,-10,1.3,7812,14,90,32,25,906,614.0,556,459,60,118.0,80,1,268,159,51,0,0,595,16529,-28648,606,,,,,,,,,,,,
563583,1560691835400,18,2.25,2.17,3.35,1.73,5.04,1.35,0.23,0.18,-9,-5,-10,1.37,7703,14,90,32,25,936,607.0,550,460,60,119.0,76,1,267,159,46,0,0,594,19621,-32248,601,,,,,,,,,,,,
563603,1560691835420,18,2.25,2.16,3.36,1.71,5.07,1.33,0.25,0.17,-9,-4,-11,1.35,7578,14,90,32,25,946,602.0,552,458,60,119.0,76,1,265,159,46,0,0,586,-3210,-18032,588,,,,,,,,,,,,
563623,1560691835440,17,2.26,2.16,3.37,1.72,5.07,1.27,0.34,-0.01,-9,-6,-10,1.32,7569,14,90,32,25,957,596.0,535,461,60,118.0,76,1,265,159,46,0,0,569,17344,6274,590,,,,,,,,,,,,
563643,1560691835460,19,2.26,2.15,3.37,1.71,5.08,1.23,0.28,-0.06,-8,-6,-9,1.27,7524,14,90,32,25,958,589.0,535,456,60,119.0,76,1,265,159,46,0,0,559,2048,-8186,582,45.701801,4.910663,61.92,197.3,5,1.8283,0,0.0,0.235,6,0.23,9.394
563663,1560691835480,20,2.26,2.12,3.36,1.71,5.05,1.24,0.33,-0.03,-8,-3,-8,1.28,7524,14,90,32,25,959,583.0,529,461,60,119.0,76,1,265,159,46,0,0,548,15649,-8962,579,,,,,,,,,,,,
563683,1560691835500,18,2.26,2.09,3.39,1.71,5.03,1.17,0.36,0.06,-8,-5,-7,1.22,7443,14,90,32,26,950,578.0,525,458,60,119.0,77,1,267,160,45,0,0,546,-3210,-8962,574,,,,,,,,,,,,
563703,1560691835520,17,2.27,2.08,3.38,1.7,5.07,1.11,0.35,0.05,-7,-4,-8,1.16,7367,14,90,32,26,941,573.0,520,459,60,119.0,77,1,266,160,45,0,0,549,1760,-32248,572,,,,,,,,,,,,
563723,1560691835540,21,2.26,2.06,3.37,1.71,5.06,1.2,0.26,0.01,-7,-5,-6,1.23,7219,14,90,32,26,923,569.0,515,456,60,118.0,77,1,266,160,45,0,0,549,-29984,14504,564,,,,,,,,,,,,
563743,1560691835560,20,2.25,2.06,3.37,1.7,5.05,1.25,0.23,-0.05,-6,-3,-4,1.27,7205,14,90,32,27,904,561.0,506,457,60,118.0,77,1,270,161,45,0,0,537,-18032,6274,560,45.701817,4.91065,59.32,197.4,5,1.8283,0,0.0,0.2367,6,0.23,9.3957
563763,1560691835580,17,2.26,2.05,3.37,1.7,5.08,1.2,0.25,-0.08,-5,-1,-2,1.22,7172,13,90,32,27,892,554.0,512,460,60,118.0,77,1,269,161,45,0,0,524,-9072,-9072,554,,,,,,,,,,,,
563783,1560691835600,17,2.26,2.04,3.38,1.7,5.07,1.17,0.32,-0.04,-5,0,-3,1.22,7110,13,90,32,27,884,552.0,504,458,60,119.0,77,1,269,161,43,0,0,521,-28648,6274,549,,,,,,,,,,,,
563803,1560691835620,18,2.25,2.04,3.37,1.7,5.04,1.2,0.22,0.03,-5,-2,-4,1.22,7027,13,90,32,27,876,544.0,501,463,60,119.0,77,1,268,161,43,0,0,523,-3082,-8187,541,,,,,,,,,,,,
563823,1560691835640,18,2.27,2.03,3.39,1.69,5.04,1.22,0.17,-0.09,-4,-0,-3,1.24,6916,13,90,32,27,869,537.0,500,460,60,119.0,77,1,269,161,43,0,0,510,-30064,26178,535,,,,,,,,,,,,
563843,1560691835660,19,2.26,2.02,3.41,1.7,5.04,1.15,0.23,-0.11,-4,-2,-3,1.17,6855,13,90,32,28,868,533.0,496,457,60,117.0,77,1,274,163,43,0,0,501,14504,-32248,527,45.701828,4.910637,56.15,197.4,5,1.8283,0,0.0,0.2383,6,0.23,9.3974
563863,1560691835680,16,2.28,2.02,3.41,1.7,5.05,1.22,0.12,-0.12,-3,-0,-3,1.22,6778,13,90,32,28,869,528.0,488,462,60,118.0,77,1,274,163,43,0,0,488,-28648,15661,524,,,,,,,,,,,,
563883,1560691835700,21,2.27,2.02,3.43,1.69,5.06,1.2,0.2,-0.11,-3,-0,-3,1.22,6691,13,90,32,28,869,520.0,487,457,60,118.0,78,1,275,163,41,0,0,483,1248,15661,517,,,,,,,,,,,,
563903,1560691835720,17,2.28,2.02,3.43,1.7,5.07,1.26,0.17,-0.17,-3,-1,-2,1.27,6590,13,90,32,29,868,513.0,482,461,60,116.0,78,1,279,233,41,0,0,477,26178,1,512,,,,,,,,,,,,
563923,1560691835740,19,2.28,2.02,3.43,1.71,5.04,1.24,0.12,-0.12,-3,-1,-1,1.25,6558,13,90,32,30,867,507.0,474,457,60,118.0,78,1,282,221,41,0,0,484,-21872,-1923,505,,,,,,,,,,,,
563943,1560691835760,21,2.27,2.02,3.43,1.7,5.06,1.24,0.12,-0.1,-2,0,-1,1.24,6496,13,90,32,31,865,503.0,468,459,60,118.0,78,1,286,202,41,0,0,482,11560,-3210,499,45.701836,4.910624,53.56,197.5,5,1.8283,0,0.0,0.24,6,0.23,9.399
563963,1560691835780,20,2.28,2.01,3.41,1.71,5.06,1.23,0.07,-0.09,-3,0,-0,1.23,6353,13,90,32,31,869,497.0,457,460,60,116.0,78,1,286,187,41,0,0,480,998,-17956,497,,,,,,,,,,,,
563983,1560691835799,15,2.28,1.99,3.42,1.7,5.07,1.22,0.24,-0.13,-1,-1,1,1.24,6285,13,90,32,32,877,491.0,451,466,60,117.0,85,1,290,171,42,0,0,454,-1818,14488,491,,,,,,,,,,,,
564003,1560691835819,17,2.28,1.97,3.44,1.7,5.05,1.21,0.13,-0.18,-1,-2,1,1.22,6319,13,90,32,32,886,483.0,446,457,60,118.0,85,1,290,169,42,0,0,374,-899,-6656,483,,,,,,,,,,,,
564023,1560691835839,17,2.26,1.96,3.46,1.7,5.07,1.15,0.23,-0.17,-1,0,2,1.18,6524,13,90,32,32,896,480.0,455,457,60,118.0,85,1,290,169,42,0,0,364,-23367,1,479,,,,,,,,,,,,
564043,1560691835859,17,2.26,1.95,3.46,1.7,5.03,1.24,0.16,-0.15,-1,-0,4,1.25,6616,13,90,32,32,914,473.0,463,461,60,117.0,85,1,290,169,42,0,0,335,32033,3346,473,45.701847,4.910612,50.71,197.4,5,1.8283,0,0.0,0.2417,6,0.23,9.4007
564063,1560691835879,20,2.26,1.95,3.45,1.69,5.05,1.26,0.12,-0.06,-0,-2,4,1.26,6602,13,90,32,32,941,469.0,467,462,60,119.0,85,1,290,169,42,0,0,324,243,170,469,,,,,,,,,,,,
564083,1560691835899,16,2.26,1.95,3.42,1.7,5.04,1.23,0.18,-0.16,0,-1,4,1.25,6542,13,90,32,32,963,463.0,457,463,60,118.0,89,1,290,169,42,0,0,338,-18108,3302,463,,,,,,,,,,,,
564103,1560691835919,17,2.25,1.95,3.42,1.71,5.04,1.25,0.12,-0.24,0,-1,3,1.25,6490,13,90,32,32,980,453.0,461,457,60,118.0,89,1,290,169,42,0,0,367,-6387,-1818,453,,,,,,,,,,,,
564123,1560691835939,20,2.25,1.93,3.46,1.69,5.08,1.28,0.08,-0.16,-1,-1,2,1.29,6503,13,90,32,32,1002,446.0,455,456,60,119.0,89,1,290,169,42,0,0,374,16648,1,446,,,,,,,,,,,,
564143,1560691835959,15,2.25,1.91,3.48,1.68,5.08,1.32,0.11,-0.2,-1,0,1,1.32,6656,13,90,32,32,1030,442.0,464,459,60,118.0,89,1,290,169,42,0,0,337,23400,-30438,440,45.701855,4.9106,48.07,197.4,5,1.8283,0,0.0,0.2433,6,0.23,9.4024
564163,1560691835979,19,2.24,1.93,3.48,1.69,5.07,1.26,0.04,-0.15,-1,1,-0,1.26,6696,13,90,32,32,1055,438.0,471,455,60,119.0,89,1,290,169,42,0,0,312,21580,130,437,,,,,,,,,,,,
564183,1560691835993,15,2.25,1.95,3.45,1.71,5.04,1.33,0.1,-0.25,-1,1,-1,1.33,6634,13,90,32,32,1067,434.0,472,461,60,118.0,96,1,290,169,42,0,0,318,-3322,170,428,,,,,,,,,,,,
564203,1560691836013,14,2.25,1.95,3.42,1.71,5.05,1.31,0.05,-0.25,-0,2,-2,1.31,6558,12,90,32,32,1066,423.0,480,461,60,118.0,96,1,290,169,42,0,0,340,3826,2278,420,,,,,,,,,,,,
564223,1560691836033,18,2.24,1.94,3.43,1.7,5.04,1.34,-0.0,-0.14,-1,0,-1,1.34,6487,12,90,32,32,1049,416.0,474,455,60,119.0,96,1,290,169,42,0,0,601,18584,-26615,413,,,,,,,,,,,,
564243,1560691836053,15,2.24,1.92,3.44,1.69,5.04,1.34,0.06,-0.18,-1,0,-1,1.34,6485,12,90,32,33,1027,412.0,470,450,60,119.0,96,1,292,169,42,0,0,601,13040,1,410,45.701862,4.910588,45.15,197.3,5,1.8283,0,0.0,0.245,6,0.23,9.404
564263,1560691836073,16,2.24,1.91,3.45,1.68,5.04,1.37,-0.03,-0.1,-1,-1,-1,1.37,6623,12,90,32,32,998,405.0,479,461,60,118.0,96,1,290,174,42,0,0,601,-9211,3183,403,,,,,,,,,,,,
564283,1560691836097,14,2.23,1.93,3.46,1.67,5.04,1.33,0.06,-0.12,-2,-1,-1,1.33,6715,12,90,33,32,967,402.0,473,460,60,118.0,105,1,290,169,42,0,0,601,6512,-28416,399,,,,,,,,,,,,
564303,1560691836117,15,2.23,1.96,3.44,1.68,5.08,1.31,0.0,-0.11,-2,-2,1,1.31,6667,12,90,33,32,932,398.0,480,466,60,117.0,105,1,290,169,42,0,0,332,-32702,6668,391,,,,,,,,,,,,
564323,1560691836137,15,2.21,1.99,3.41,1.69,5.04,1.3,0.01,0.01,-2,0,-1,1.3,6585,12,90,33,32,904,391.0,476,456,60,119.0,105,1,290,169,42,0,0,357,505,742,383,,,,,,,,,,,,
564343,1560691836157,10,2.21,1.99,3.39,1.68,5.07,1.28,0.07,-0.03,-2,1,-2,1.29,6508,12,90,33,32,898,386.0,476,463,60,117.0,105,1,290,169,42,0,0,375,-6475,257,378,45.701874,4.910577,41.87,197.3,5,1.8283,0,0.0,0.2467,6,0.24,9.4057
564363,1560691836177,8,2.21,2.0,3.39,1.69,5.06,1.3,0.0,-0.0,-3,1,-3,1.3,6499,12,90,33,32,894,385.0,470,452,60,118.0,105,1,290,169,42,0,0,363,19125,-29302,375,,,,,,,,,,,,
564383,1560691836199,12,2.19,2.0,3.38,1.69,5.04,1.31,0.09,0.02,-4,-0,-4,1.31,6574,12,90,33,32,892,379.0,466,458,60,119.0,109,1,290,169,41,0,0,357,-6656,28553,370,,,,,,,,,,,,
564403,1560691836219,5,2.18,2.0,3.38,1.68,5.06,1.38,0.09,0.01,-4,-3,-4,1.38,6665,12,90,33,32,889,375.0,476,464,60,117.0,109,1,290,169,41,0,0,353,770,3327,365,,,,,,,,,,,,
564423,1560691836239,7,2.16,2.01,3.38,1.66,5.05,1.23,0.13,0.06,-5,-0,-5,1.24,6696,12,90,33,32,893,373.0,479,459,60,119.0,109,1,290,169,41,0,0,355,-6656,2811,358,,,,,,,,,,,,
564443,1560691836259,3,2.14,2.04,3.33,1.66,5.04,1.27,0.16,0.03,-6,1,-5,1.28,6653,12,90,33,32,894,370.0,485,458,60,117.0,109,1,290,169,41,0,0,354,486,8841,357,45.701878,4.910568,38.97,197.3,5,1.8283,0,0.0,0.2483,6,0.24,9.4074
564463,1560691836279,5,2.13,2.11,3.28,1.67,5.08,1.29,0.17,0.19,-7,-1,-8,1.3,6644,12,90,33,32,898,371.0,479,459,60,119.0,109,1,290,169,41,0,0,362,257,-30454,354,,,,,,,,,,,,
564483,1560691836299,2,2.1,2.18,3.2,1.67,5.05,1.2,0.31,0.15,-8,-1,-9,1.24,6599,12,90,33,32,901,371.0,477,460,60,118.0,119,1,290,169,42,0,0,362,257,-1246,350,,,,,,,,,,,,
564503,1560691836319,2,2.09,2.22,3.16,1.69,5.04,1.25,0.24,0.18,-10,-1,-12,1.27,6592,12,90,33,32,902,369.0,481,456,60,118.0,119,1,290,169,42,0,0,362,-6656,-10554,348,,,,,,,,,,,,
564523,1560691836339,4,2.07,2.26,3.14,1.68,5.07,1.22,0.3,0.17,-11,-1,-14,1.26,6553,12,90,33,32,903,367.0,482,461,60,119.0,119,1,290,169,42,0,0,356,0,-14714,345,,,,,,,,,,,,
564543,1560691836359,1,2.05,2.28,3.12,1.68,5.07,1.22,0.4,0.11,-12,0,-15,1.28,6528,12,90,33,32,902,367.0,485,462,60,117.0,119,1,290,169,42,0,0,361,0,13,341,45.701885,4.910558,36.78,197.2,5,1.8283,0,0.0,0.25,6,0.24,9.409
564563,1560691836379,2,2.05,2.29,3.13,1.68,5.04,1.18,0.32,0.14,-13,-0,-15,1.22,6503,12,90,33,32,904,368.0,481,458,60,117.0,119,1,290,169,42,0,0,359,0,2560,339,,,,,,,,,,,,
564583,1560691836399,4,2.03,2.32,3.1,1.69,5.04,1.09,0.38,0.16,-14,2,-16,1.15,6472,12,90,33,32,904,368.0,473,457,60,119.0,120,1,290,169,41,0,0,362,0,175,337,,,,,,,,,,,,
564603,1560691836419,0,2.02,2.32,3.09,1.69,5.08,1.12,0.51,0.11,-16,3,-15,1.23,6465,12,90,33,32,904,366.0,470,464,60,118.0,120,1,290,169,41,0,0,363,230,-12032,333,,,,,,,,,,,,
564623,1560691836439,-1,2.01,2.33,3.09,1.69,5.04,1.19,0.45,0.16,-17,2,-15,1.27,6421,12,90,33,32,905,365.0,473,460,60,118.0,120,1,290,169,41,0,0,360,230,165,331,,,,,,,,,,,,
564643,1560691836459,3,2.0,2.33,3.07,1.68,5.04,1.11,0.44,0.26,-18,1,-17,1.2,6401,12,90,33,32,906,364.0,468,462,60,118.0,120,1,290,169,41,0,0,361,-1268,-23296,331,45.701893,4.910549,34.67,197.2,5,1.8283,0,0.0,0.2517,6,0.24,9.4107
564663,1560691836479,4,2.01,2.33,3.07,1.68,5.06,1.0,0.53,0.2,-19,3,-18,1.13,6377,12,90,33,33,907,367.0,464,456,60,118.0,120,1,292,174,41,0,0,359,0,155,329,,,,,,,,,,,,
564683,1560691836501,-1,2.0,2.33,3.07,1.69,5.03,0.96,0.68,0.14,-20,5,-19,1.17,6338,12,90,33,33,908,365.0,468,462,60,117.0,128,1,292,174,42,0,0,360,-6405,150,325,,,,,,,,,,,,
