"Interval"|"ms"|0|0|1,"Utc"|"ms"|0|0|1,"FB_p"|"bar"|0|300|50,"Volant"|"F"|0.0|300.0|50,"xFR"|"mm"|0.0|5.0|50,"xRR"|"mm"|0.0|5.0|50,"xFL"|"mm"|0.0|5.0|50,"xRL"|"mm"|0.0|5.0|50,"AccelX"|"G"|-3.0|3.0|50,"AccelY"|"G"|-3.0|3.0|50,"AccelZ"|"G"|-3.0|3.0|50,"Yaw"|"Deg/Sec"|-120|120|50,"Pitch"|"Deg/Sec"|-120|120|50,"Roll"|"Deg/Sec"|-120|120|50,"Gsum"|"G"|0.0|3.0|50,"RPM"|""|0|14000|50,"TPS"|"%"|0|100|50,"WaterTemp"|"?C"|0|300|50,"AirTemp"|"?C"|-1000|1000|50,"MAP"|"KPa"|0|255|50,"Lambda"|""|0|1024|50,"WheelSpeed"|"MPH"|0.0|150.0|50,"OilPress"|"PSI"|0|150|50,"FuelPress"|"PSI"|0|150|50,"OilTemp"|"F"|0|300|50,"Battery"|"Volts"|0.0|20.0|50,"FuelCon"|"L/h"|-1000|1000|50,"Gear"|""|0|10|50,"Advance"|"Deg"|-360|360|50,"Injection"|"ms"|-1000|1000|50,"FuelCon"|"L/100km"|-1000|1000|50,"LC_But_Pres"|""|-1000|1000|50,"LC_Active"|""|-1000|1000|50,"RD_Speed"|""|-1000|1000|50,"RUD_Speed"|""|-1000|1000|50,"LD_Speed"|""|-1000|1000|50,"LUD_Speed"|""|-1000|1000|50,"Latitude"|"Degrees"|-180.0|180.0|10,"Longitude"|"Degrees"|-180.0|180.0|10,"Speed"|"kph"|0.0|150.0|10,"Altitude"|"m"|0.0|4000.0|10,"LapCount"|""|0|0|10,"LapTime"|"Min"|0.0|0.0|10,"Sector"|""|0|0|10,"SectorTime"|"Min"|0.0|0.0|10,"ElapsedTime"|"Min"|0.0|0.0|10,"CurrentLap"|""|0|0|10,"Distance"|"km"|0.0|0.0|10,"SessionTime"|"Min"|0.0|0.0|10
74263,1560692602351,17,2.21,1.8,3.56,1.65,5.07,1.29,-0.11,-0.01,1,-8,-1,1.3,6111,5,86,33,25,915,550.0,453,453,60,118.0,61,1,269,159,35,0,0,272,14504,4104,550,,,,,,,,,,,,
74283,1560692602371,15,2.22,1.82,3.51,1.66,5.06,1.17,-0.05,-0.15,2,-8,-1,1.17,6036,5,86,33,26,931,541.0,455,451,60,117.0,61,1,272,160,35,0,0,295,-2336,0,539,,,,,,,,,,,,
74303,1560692602391,17,2.21,1.85,3.49,1.67,5.04,1.0,0.04,-0.21,3,-6,-0,1.01,5978,5,86,33,26,945,534.0,452,451,60,118.0,67,1,271,160,36,0,0,298,14504,240,528,,,,,,,,,,,,
74323,1560692602411,16,2.21,1.84,3.51,1.67,5.04,1.11,0.04,-0.16,1,-8,-1,1.11,6019,5,86,33,26,953,526.0,449,453,60,118.0,67,1,272,160,36,0,0,276,-32248,-1268,525,,,,,,,,,,,,
74343,1560692602431,16,2.21,1.83,3.5,1.64,5.05,1.06,0.08,-0.22,1,-6,1,1.06,6038,5,86,33,26,961,526.0,451,452,60,118.0,67,1,272,160,36,0,0,265,2088,160,518,45.700794,4.909655,56.15,198.4,0,0.0,0,0.0,0.0383,1,0.05,1.2391
74363,1560692602451,16,2.21,1.84,3.5,1.64,5.05,0.92,0.14,-0.35,2,-4,2,0.93,5916,5,86,33,27,968,521.0,451,453,60,118.0,67,1,274,161,36,0,0,280,-8187,-20736,514,,,,,,,,,,,,
74383,1560692602471,15,2.21,1.84,3.49,1.66,5.07,0.85,0.19,-0.37,3,-3,3,0.87,5804,5,86,33,27,974,510.0,448,453,60,117.0,67,1,273,161,36,0,0,316,-3856,-6458,507,,,,,,,,,,,,
74403,1560692602491,12,2.21,1.86,3.47,1.66,5.07,0.93,0.24,-0.3,2,-4,3,0.96,5801,5,86,34,27,972,506.0,441,458,60,117.0,69,1,273,161,35,0,0,326,-28648,-30454,496,,,,,,,,,,,,
74423,1560692602510,11,2.22,1.85,3.48,1.65,5.04,1.02,0.19,-0.22,1,-5,1,1.04,5952,5,86,34,28,971,501.0,443,454,60,118.0,69,1,277,162,35,0,0,321,11560,23040,494,,,,,,,,,,,,
74443,1560692602530,10,2.21,1.84,3.48,1.65,5.04,1.12,0.15,-0.14,-2,-6,-1,1.13,5914,5,86,34,28,970,498.0,443,455,60,117.0,69,1,277,162,35,0,0,317,2524,10686,488,45.700802,4.909663,53.17,198.3,0,0.0,0,0.0,0.04,1,0.05,1.2407
74463,1560692602550,7,2.22,1.88,3.47,1.65,5.08,1.21,0.09,-0.1,-4,-6,-4,1.21,5859,5,86,34,28,969,495.0,445,455,60,118.0,69,1,276,162,35,0,0,329,771,150,481,,,,,,,,,,,,
74483,1560692602570,7,2.22,1.94,3.44,1.66,5.07,1.29,-0.03,-0.12,-6,-6,-5,1.29,5866,5,86,34,28,968,489.0,443,456,60,118.0,69,1,276,162,35,0,0,344,1,-10554,474,,,,,,,,,,,,
74503,1560692602590,6,2.21,1.97,3.43,1.67,5.03,1.36,-0.1,-0.06,-8,-5,-7,1.36,5926,5,86,34,28,967,481.0,446,455,60,118.0,76,1,277,162,36,0,0,324,32033,-32559,465,,,,,,,,,,,,
74523,1560692602610,2,2.23,1.97,3.41,1.68,5.04,1.41,-0.17,-0.07,-9,-4,-8,1.42,6030,5,86,34,28,962,475.0,445,453,60,119.0,76,1,278,163,36,0,0,341,-17956,-32559,462,,,,,,,,,,,,
74543,1560692602630,2,2.21,1.97,3.4,1.66,5.05,1.4,-0.2,-0.09,-9,-3,-10,1.42,6121,5,86,34,28,957,472.0,451,452,60,118.0,76,1,278,163,36,0,0,343,-1923,-23296,459,45.700817,4.909672,50.23,198.3,0,0.0,0,0.0,0.0417,1,0.05,1.2424
74563,1560692602650,1,2.22,1.97,3.42,1.66,5.04,1.45,-0.26,-0.01,-10,-4,-11,1.47,6283,5,86,34,28,951,472.0,462,455,60,117.0,76,1,277,163,36,0,0,327,8488,-14714,455,,,,,,,,,,,,
74583,1560692602670,2,2.23,1.97,3.41,1.66,5.07,1.48,-0.31,0.05,-11,-3,-13,1.51,6375,5,86,34,27,947,469.0,471,455,60,117.0,76,1,273,161,36,0,0,335,10432,2811,450,,,,,,,,,,,,
74603,1560692602690,4,2.24,1.98,3.38,1.65,5.07,1.48,-0.14,-0.0,-12,-2,-13,1.49,6494,5,86,34,27,942,465.0,485,453,60,118.0,86,1,272,161,39,0,0,374,6193,-6644,449,,,,,,,,,,,,
74623,1560692602710,1,2.23,1.99,3.37,1.66,5.04,1.48,-0.1,-0.01,-12,-2,-12,1.49,6590,5,86,34,26,935,460.0,491,452,60,118.0,86,1,268,160,39,0,0,381,-23623,486,440,,,,,,,,,,,,
74643,1560692602730,3,2.23,2.01,3.35,1.64,5.05,1.46,-0.11,0.11,-13,-3,-12,1.47,6677,5,86,34,26,933,455.0,497,445,60,118.0,86,1,267,160,39,0,0,396,-8985,-9211,436,45.700825,4.90968,47.36,198.3,0,0.0,0,0.0,0.0433,1,0.05,1.2441
74663,1560692602750,-1,2.24,2.06,3.33,1.64,5.04,1.41,0.03,-0.01,-12,1,-10,1.41,6776,5,86,34,26,932,449.0,495,435,60,118.0,86,1,266,159,39,0,0,416,15649,11545,436,,,,,,,,,,,,
74683,1560692602770,4,2.24,2.13,3.32,1.65,5.08,1.39,0.0,0.13,-12,-2,-9,1.39,6921,5,86,34,25,923,444.0,509,452,60,117.0,86,1,261,159,39,0,0,422,-18341,2524,431,,,,,,,,,,,,
74703,1560692602792,-0,2.24,2.16,3.29,1.66,5.06,1.35,0.03,0.0,-11,0,-7,1.35,7030,5,86,34,24,912,437.0,523,442,60,117.0,95,1,260,156,41,0,0,420,19477,9517,428,,,,,,,,,,,,
74723,1560692602812,-0,2.23,2.16,3.28,1.67,5.04,1.21,0.16,-0.1,-10,-0,-7,1.22,7113,5,86,34,24,902,434.0,523,442,60,118.0,95,1,261,156,41,0,0,415,-768,11560,427,,,,,,,,,,,,
74743,1560692602832,-1,2.24,2.15,3.26,1.66,5.07,1.29,0.1,0.11,-10,-3,-8,1.29,7270,5,86,34,23,892,429.0,532,433,60,118.0,95,1,262,154,41,0,0,411,-3314,-26615,422,45.700836,4.909688,44.83,198.3,0,0.0,0,0.0,0.045,1,0.05,1.2457
74763,1560692602852,4,2.25,2.13,3.29,1.67,5.08,1.32,0.02,0.24,-9,-3,-7,1.32,7352,5,86,34,23,885,425.0,539,423,60,118.0,95,1,263,154,41,0,0,401,-3856,11560,419,,,,,,,,,,,,
74783,1560692602872,2,2.24,2.12,3.29,1.67,5.06,1.31,-0.09,0.26,-8,-3,-6,1.32,7455,5,86,34,22,877,422.0,544,444,60,117.0,95,1,264,151,41,0,0,406,-3414,10541,418,,,,,,,,,,,,
74803,1560692602892,2,2.26,2.12,3.3,1.67,5.05,1.3,-0.19,0.27,-7,-4,-5,1.31,7527,5,86,34,21,876,420.0,551,440,60,118.0,100,1,265,151,42,0,0,402,-8165,28696,416,,,,,,,,,,,,
74823,1560692602912,3,2.26,2.12,3.33,1.69,5.07,1.37,-0.26,0.35,-6,-3,-5,1.39,7591,5,86,34,21,877,416.0,551,448,60,118.0,100,1,265,149,42,0,0,393,-26615,-8151,410,,,,,,,,,,,,
74843,1560692602932,3,2.26,2.09,3.33,1.71,5.05,1.38,-0.38,0.51,-6,-3,-5,1.43,7548,5,86,34,21,882,415.0,557,433,60,118.0,100,1,265,149,42,0,0,404,2524,-8151,409,45.700844,4.909695,43.3,198.3,0,0.0,0,0.0,0.0467,1,0.06,1.2474
74863,1560692602952,-1,2.27,2.07,3.33,1.74,5.08,1.4,-0.41,0.57,-5,-2,-4,1.46,7536,5,86,34,21,887,413.0,553,425,60,118.0,100,1,265,149,42,0,0,403,-9166,11560,409,,,,,,,,,,,,
74883,1560692602972,-1,2.27,2.05,3.3,1.77,5.08,1.38,-0.49,0.58,-5,-2,-3,1.46,7473,5,86,34,21,892,409.0,556,426,60,118.0,100,1,264,149,42,0,0,403,11560,-3968,409,,,,,,,,,,,,
74903,1560692602992,6,2.28,2.06,3.26,1.83,5.06,1.4,-0.54,0.63,-5,-1,-2,1.5,7473,5,86,34,21,896,407.0,550,441,60,118.0,102,1,264,149,42,0,0,398,-26615,6384,406,,,,,,,,,,,,
74923,1560692603006,5,2.27,2.06,3.25,1.88,5.03,1.39,-0.61,0.68,-4,-0,-2,1.52,7431,5,86,34,20,903,405.0,551,442,60,118.0,102,1,264,146,42,0,0,397,-8151,11545,405,,,,,,,,,,,,
74943,1560692603026,3,2.31,2.06,3.25,1.94,5.07,1.36,-0.63,0.7,-2,-2,-1,1.5,7422,6,86,34,20,911,401.0,553,448,60,119.0,102,1,264,146,42,0,0,393,28696,-3968,401,45.700855,4.9097,40.9,198.3,0,0.0,0,0.0,0.0483,1,0.06,1.2491
74963,1560692603046,2,2.31,2.06,3.29,2.0,5.04,1.35,-0.69,0.73,-1,-1,-2,1.52,7338,7,86,34,21,919,401.0,555,445,60,118.0,102,1,263,149,42,0,0,388,-32702,1,401,,,,,,,,,,,,
74983,1560692603066,3,2.33,2.04,3.31,2.01,5.03,1.25,-0.67,0.61,0,0,-0,1.42,7307,8,86,34,21,924,402.0,551,448,60,118.0,102,1,263,149,42,0,0,388,-1818,-3968,403,,,,,,,,,,,,
75003,1560692603092,1,2.35,2.03,3.32,2.03,5.04,1.08,-0.53,0.48,1,2,2,1.2,7239,8,86,34,21,932,401.0,553,443,60,117.0,101,1,262,149,41,0,0,389,1,-1562,399,,,,,,,,,,,,
75023,1560692603112,1,2.35,2.02,3.33,2.03,5.08,1.02,-0.47,0.46,2,2,2,1.13,7203,8,86,34,21,943,399.0,534,442,60,118.0,101,1,262,149,41,0,0,384,-1562,240,398,,,,,,,,,,,,
75043,1560692603132,-1,2.38,2.0,3.35,2.02,5.04,1.06,-0.48,0.51,2,1,2,1.17,7183,9,86,34,21,952,398.0,534,447,60,118.0,101,1,261,149,41,0,0,380,-3866,-32702,397,45.700863,4.909706,39.91,198.2,0,0.0,0,0.0,0.05,1,0.06,1.2507
75063,1560692603152,5,2.39,2.0,3.4,2.01,5.05,1.16,-0.57,0.63,2,-3,2,1.29,7137,9,86,34,22,958,395.0,530,447,60,118.0,101,1,261,151,41,0,0,377,-19126,-6475,395,,,,,,,,,,,,
75083,1560692603172,2,2.41,2.0,3.44,2.03,5.07,1.07,-0.57,0.5,4,-1,4,1.21,7142,9,86,34,22,964,396.0,530,450,60,117.0,101,1,261,151,41,0,0,377,-18948,-19019,396,,,,,,,,,,,,
75103,1560692603192,-1,2.43,1.99,3.49,2.03,5.04,0.83,-0.45,0.35,7,2,6,0.94,7107,9,86,34,22,970,395.0,525,450,60,117.0,101,1,261,151,40,0,0,373,8200,-6475,395,,,,,,,,,,,,
75123,1560692603212,-0,2.43,1.98,3.51,2.07,5.04,0.88,-0.44,0.34,7,2,7,0.99,7048,9,86,34,22,975,396.0,519,444,60,118.0,101,1,260,151,40,0,0,370,770,-6475,396,,,,,,,,,,,,
75143,1560692603232,2,2.45,1.98,3.5,2.1,5.07,1.0,-0.57,0.5,8,-2,8,1.15,7035,10,86,34,23,975,394.0,522,452,60,118.0,101,1,260,154,40,0,0,366,1,-19126,394,45.700874,4.909712,38.63,198.2,0,0.0,0,0.0,0.0517,1,0.06,1.2524
75163,1560692603252,1,2.45,1.98,3.5,2.13,5.04,0.91,-0.55,0.32,9,1,9,1.06,7004,10,86,34,23,974,393.0,526,446,60,118.0,101,1,260,154,40,0,0,369,257,-3866,393,,,,,,,,,,,,
75183,1560692603272,0,2.44,1.97,3.5,2.12,5.04,0.84,-0.5,0.32,10,-0,10,0.98,6954,10,86,34,24,975,393.0,521,448,60,118.0,101,1,260,156,40,0,0,363,0,-19019,393,,,,,,,,,,,,
75203,1560692603292,3,2.45,1.97,3.5,2.13,5.06,0.96,-0.63,0.41,11,-2,11,1.15,6954,10,86,34,24,975,390.0,524,447,60,118.0,105,1,260,156,41,0,0,361,-1268,-19019,390,,,,,,,,,,,,
75223,1560692603312,-0,2.46,1.95,3.51,2.12,5.08,0.84,-0.49,0.3,12,0,12,0.97,6936,10,86,34,24,974,388.0,526,454,60,117.0,105,1,260,156,41,0,0,358,2790,-19126,388,,,,,,,,,,,,
75243,1560692603332,2,2.46,1.96,3.52,2.13,5.06,0.88,-0.57,0.37,13,-1,13,1.04,6878,10,86,34,25,974,387.0,515,447,60,118.0,105,1,262,156,41,0,0,357,2790,8200,387,45.700882,4.909718,37.44,198.3,0,0.0,0,0.0,0.0533,1,0.06,1.2541
75263,1560692603352,2,2.46,1.96,3.52,2.11,5.07,0.97,-0.57,0.31,13,-2,15,1.12,6880,10,86,34,25,971,385.0,519,453,60,116.0,105,1,262,159,41,0,0,356,-14707,2278,385,,,,,,,,,,,,
75283,1560692603372,0,2.45,1.97,3.52,2.12,5.07,0.79,-0.48,0.31,15,1,16,0.93,6843,10,86,34,25,970,384.0,518,446,60,118.0,105,1,262,159,41,0,0,351,-29978,742,384,,,,,,,,,,,,
75303,1560692603392,2,2.46,1.96,3.53,2.11,5.07,0.92,-0.61,0.42,14,-3,16,1.1,6778,10,86,34,26,968,383.0,517,450,60,117.0,106,1,266,160,41,0,0,350,-29978,-6656,383,,,,,,,,,,,,
75323,1560692603412,-1,2.45,1.96,3.53,2.11,5.05,0.68,-0.54,0.26,16,-0,17,0.87,6749,10,86,34,26,967,381.0,502,453,60,118.0,106,1,266,160,41,0,0,350,4104,8200,381,,,,,,,,,,,,
75343,1560692603432,3,2.45,1.96,3.53,2.11,5.03,0.82,-0.64,0.4,15,-1,17,1.03,6739,10,86,34,26,964,378.0,506,453,60,117.0,106,1,266,160,41,0,0,352,2060,742,378,45.70089,4.909724,36.54,198.2,0,0.0,0,0.0,0.055,1,0.06,1.2557
75363,1560692603452,-1,2.44,1.97,3.52,2.1,5.07,0.7,-0.53,0.29,16,0,18,0.88,6701,10,86,34,26,962,376.0,505,452,60,118.0,106,1,266,160,41,0,0,349,3302,1,376,,,,,,,,,,,,
75383,1560692603472,1,2.43,1.96,3.51,2.11,5.03,0.75,-0.56,0.33,16,-0,19,0.94,6653,11,86,34,27,961,376.0,505,453,60,117.0,106,1,271,161,41,0,0,347,28553,0,375,,,,,,,,,,,,
75403,1560692603491,4,2.44,1.96,3.52,2.1,5.04,0.73,-0.54,0.34,16,0,19,0.91,6644,11,86,34,27,961,374.0,492,450,60,118.0,106,1,271,161,40,0,0,344,28553,230,373,,,,,,,,,,,,
75423,1560692603511,-1,2.43,1.98,3.5,2.09,5.05,0.81,-0.55,0.3,17,-1,19,0.98,6651,11,86,34,28,962,371.0,494,455,60,117.0,106,1,275,163,40,0,0,346,-30454,-6458,371,,,,,,,,,,,,
75443,1560692603531,4,2.42,1.98,3.49,2.11,5.08,0.72,-0.52,0.32,17,-1,19,0.89,6620,11,86,34,28,964,370.0,502,460,60,117.0,106,1,275,163,40,0,0,345,-1246,-29302,370,45.700897,4.909731,35.94,198.2,0,0.0,0,0.0,0.0567,1,0.06,1.2574
75463,1560692603551,1,2.4,1.97,3.48,2.1,5.07,0.73,-0.43,0.19,16,1,21,0.84,6602,11,86,34,28,966,369.0,497,450,60,118.0,106,1,275,163,40,0,0,342,8841,-6458,369,,,,,,,,,,,,
75483,1560692603571,1,2.38,1.98,3.45,2.09,5.08,0.86,-0.52,0.37,15,-2,21,1.0,6555,11,86,34,28,968,366.0,500,456,60,117.0,106,1,275,163,40,0,0,342,8841,-6458,366,,,,,,,,,,,,
75503,1560692603591,5,2.36,2.0,3.43,2.08,5.07,0.76,-0.43,0.3,16,-1,21,0.87,6533,11,86,34,29,972,364.0,492,452,60,119.0,109,1,279,164,40,0,0,344,-30438,2060,361,,,,,,,,,,,,
75523,1560692603611,1,2.33,2.01,3.41,2.07,5.07,0.78,-0.4,0.23,15,0,21,0.87,6501,11,86,34,29,974,360.0,491,453,60,117.0,109,1,279,164,40,0,0,342,8841,-6640,360,,,,,,,,,,,,
75543,1560692603631,3,2.3,2.03,3.39,2.05,5.06,0.9,-0.44,0.4,13,-2,19,1.0,6499,11,86,34,29,976,356.0,493,452,60,117.0,109,1,279,164,40,0,0,344,-30438,-30454,356,45.700901,4.909738,35.04,198.2,0,0.0,0,0.0,0.0583,1,0.06,1.259
75563,1560692603651,3,2.28,2.07,3.38,2.02,5.05,0.82,-0.33,0.37,12,-0,18,0.88,6496,11,86,34,30,977,353.0,491,456,60,119.0,109,1,283,164,40,0,0,344,-30438,8841,353,,,,,,,,,,,,
75583,1560692603671,-0,2.24,2.11,3.36,2.02,5.03,0.85,-0.26,0.24,11,0,17,0.89,6465,11,86,34,30,975,351.0,494,456,60,118.0,109,1,283,166,40,0,0,346,8841,6870,349,,,,,,,,,,,,
75603,1560692603692,1,2.22,2.14,3.33,1.98,5.06,0.88,-0.23,0.34,9,-0,16,0.91,6423,11,86,34,30,974,349.0,492,453,60,117.0,114,1,283,166,40,0,0,344,2811,3327,347,,,,,,,,,,,,
75623,1560692603712,3,2.18,2.21,3.31,1.95,5.07,0.88,-0.14,0.38,7,0,14,0.9,6405,11,86,34,30,973,350.0,485,450,60,118.0,114,1,283,166,40,0,0,346,-30454,-122,344,,,,,,,,,,,,
75643,1560692603732,-1,2.16,2.25,3.25,1.93,5.04,0.86,0.06,0.3,6,1,13,0.87,6368,11,86,34,30,971,351.0,484,453,60,118.0,114,1,283,166,40,0,0,347,28553,-122,340,45.700912,4.909746,34.43,198.2,0,0.0,0,0.0,0.06,1,0.06,1.2607
75663,1560692603752,-2,2.13,2.28,3.19,1.89,5.04,0.9,0.12,0.28,4,1,12,0.91,6336,11,86,34,31,967,352.0,480,454,60,117.0,114,1,286,167,40,0,0,346,3183,175,338,,,,,,,,,,,,
75683,1560692603772,2,2.1,2.31,3.17,1.87,5.04,0.95,0.08,0.44,2,-0,9,0.95,6355,11,86,34,31,963,352.0,483,457,60,117.0,114,1,286,167,40,0,0,349,3183,-32559,335,,,,,,,,,,,,
75703,1560692603791,3,2.07,2.34,3.15,1.85,5.03,0.91,0.12,0.46,-0,1,6,0.92,6323,11,86,34,32,962,353.0,485,451,60,117.0,119,1,290,169,40,0,0,350,-6644,-22016,331,,,,,,,,,,,,
75723,1560692603811,2,2.06,2.37,3.12,1.83,5.05,0.84,0.31,0.44,-2,2,3,0.89,6308,12,86,34,32,961,354.0,482,452,60,119.0,119,1,290,169,40,0,0,348,3302,-24576,328,,,,,,,,,,,,
75743,1560692603831,1,2.02,2.39,3.11,1.82,5.03,0.87,0.41,0.36,-4,2,1,0.96,6296,12,86,34,33,958,355.0,477,446,60,119.0,119,1,292,169,40,0,0,348,2060,-27136,325,45.70092,4.909753,33.51,198.2,0,0.0,0,0.0,0.0617,1,0.07,1.2624
75763,1560692603851,-1,2.01,2.44,3.12,1.81,5.04,0.96,0.36,0.41,-7,-1,-3,1.02,6277,12,86,34,33,954,354.0,477,451,60,118.0,119,1,292,174,40,0,0,349,3302,155,322,,,,,,,,,,,,
75783,1560692603871,2,2.01,2.44,3.09,1.8,5.06,1.04,0.34,0.48,-9,-3,-7,1.09,6218,12,86,34,33,953,353.0,480,452,60,117.0,119,1,292,174,40,0,0,350,3302,125,321,,,,,,,,,,,,
75803,1560692603891,3,2.0,2.44,3.11,1.79,5.03,1.06,0.41,0.57,-11,-5,-12,1.14,6190,12,86,34,33,953,354.0,479,448,60,117.0,128,1,292,174,41,0,0,346,3302,130,317,,,,,,,,,,,,
75823,1560692603911,3,1.99,2.45,3.1,1.8,5.04,1.0,0.52,0.61,-12,-5,-14,1.13,6141,13,86,34,34,951,353.0,470,450,60,118.0,128,1,295,179,41,0,0,348,-6644,120,316,,,,,,,,,,,,
75843,1560692603931,3,1.99,2.46,3.1,1.81,5.04,0.92,0.64,0.61,-13,-5,-16,1.12,6129,13,86,34,34,950,353.0,470,452,60,119.0,128,1,295,179,41,0,0,349,-6644,-30976,314,45.700924,4.90976,33.08,198.2,0,0.0,0,0.0,0.0633,1,0.07,1.264
75863,1560692603951,5,1.98,2.45,3.09,1.79,5.07,0.83,0.71,0.58,-14,-4,-18,1.1,6089,13,86,34,35,950,352.0,470,446,60,118.0,128,1,298,185,41,0,0,346,3183,30720,312,,,,,,,,,,,,
75883,1560692603971,3,1.98,2.46,3.08,1.8,5.07,0.8,0.74,0.53,-16,-3,-21,1.09,6054,13,86,34,36,951,351.0,466,447,60,119.0,128,1,301,185,41,0,0,347,28553,29440,311,,,,,,,,,,,,
75903,1560692603991,5,1.98,2.45,3.08,1.8,5.04,0.75,0.76,0.49,-17,-3,-23,1.07,6036,13,86,34,36,950,349.0,467,451,60,119.0,138,1,301,190,43,0,0,344,2811,29440,310,,,,,,,,,,,,
75923,1560692604005,5,1.99,2.44,3.09,1.8,5.06,0.69,0.78,0.36,-18,-2,-26,1.04,6025,13,86,34,37,949,349.0,466,451,60,118.0,138,1,304,196,43,0,0,345,2811,115,308,,,,,,,,,,,,
75943,1560692604025,-1,1.98,2.44,3.09,1.79,5.06,0.69,0.78,0.23,-19,-1,-28,1.04,6019,13,86,34,37,947,349.0,464,452,60,118.0,138,1,304,196,43,0,0,344,2811,95,306,45.700932,4.909766,32.43,198.2,0,0.0,0,0.0,0.065,1,0.07,1.2657
75963,1560692604045,-1,1.98,2.44,3.09,1.79,5.05,0.66,0.77,0.14,-21,1,-30,1.02,6003,13,86,34,37,945,346.0,457,443,60,118.0,138,1,304,196,43,0,0,341,-30438,25600,307,,,,,,,,,,,,
75983,1560692604065,0,1.98,2.43,3.09,1.79,5.08,0.66,0.77,0.06,-22,1,-32,1.01,5992,13,86,34,38,943,345.0,455,448,60,118.0,138,1,306,195,43,0,0,338,-10554,25600,306,,,,,,,,,,,,
76003,1560692604085,0,1.98,2.42,3.09,1.79,5.08,0.65,0.76,-0.03,-23,3,-33,1.0,5988,13,86,34,38,939,345.0,456,447,60,119.0,149,1,306,201,46,0,0,341,6870,95,306,,,,,,,,,,,,
76023,1560692604105,-1,1.98,2.42,3.08,1.79,5.07,0.59,0.75,-0.07,-24,4,-34,0.95,5952,14,86,34,38,934,343.0,453,443,60,118.0,149,1,306,201,46,0,0,340,-14714,90,304,,,,,,,,,,,,
76043,1560692604125,3,1.99,2.42,3.08,1.8,5.05,0.52,0.76,-0.12,-24,6,-35,0.92,5946,14,86,34,39,930,342.0,448,446,60,118.0,149,1,309,207,46,0,0,337,-31206,100,303,45.700939,4.90977,31.89,198.2,0,0.0,0,0.0,0.0667,1,0.07,1.2674
76063,1560692604145,4,1.98,2.42,3.08,1.8,5.07,0.6,0.68,-0.11,-25,8,-35,0.9,5918,14,86,34,39,926,342.0,452,446,60,118.0,149,1,309,207,46,0,0,337,-31206,24320,303,,,,,,,,,,,,
76083,1560692604165,3,1.99,2.42,3.08,1.79,5.05,0.51,0.76,-0.21,-25,10,-36,0.91,5912,14,86,34,39,919,341.0,445,449,60,119.0,149,1,309,207,46,0,0,334,6668,95,301,,,,,,,,,,,,
76103,1560692604191,3,2.0,2.42,3.08,1.81,5.07,0.55,0.73,-0.25,-25,11,-36,0.92,5881,14,86,34,40,912,337.0,445,449,60,119.0,152,1,313,208,46,0,0,334,2560,23040,301,,,,,,,,,,,,
76123,1560692604211,2,2.0,2.42,3.07,1.81,5.05,0.52,0.76,-0.23,-24,13,-36,0.92,5888,14,86,34,40,909,338.0,445,453,60,118.0,152,1,313,208,46,0,0,332,-31222,85,300,,,,,,,,,,,,
76143,1560692604231,3,2.0,2.42,3.07,1.81,5.04,0.44,0.78,-0.26,-23,13,-37,0.89,5857,14,86,34,41,905,336.0,447,451,60,118.0,152,1,319,209,46,0,0,332,13,23040,299,45.700943,4.909775,31.44,198.2,0,0.0,0,0.0,0.0683,1,0.07,1.269
76163,1560692604251,3,2.0,2.42,3.08,1.83,5.05,0.37,0.8,-0.2,-22,12,-38,0.88,5828,14,86,34,41,898,334.0,450,456,60,117.0,152,1,318,211,46,0,0,330,4838,85,298,,,,,,,,,,,,
76183,1560692604271,1,2.02,2.4,3.08,1.82,5.07,0.32,0.84,-0.11,-22,8,-39,0.9,5826,14,86,34,42,891,333.0,449,462,60,117.0,152,1,322,211,46,0,0,329,-6528,80,298,,,,,,,,,,,,
76203,1560692604291,-0,2.04,2.38,3.08,1.81,5.08,0.37,0.85,0.03,-22,4,-40,0.93,5790,15,86,34,43,887,332.0,445,454,60,118.0,154,1,327,210,46,0,0,329,-32559,80,300,,,,,,,,,,,,
76223,1560692604311,-2,2.07,2.38,3.08,1.81,5.06,0.53,0.77,0.18,-23,0,-41,0.94,5779,15,86,34,43,882,332.0,439,450,60,119.0,154,1,327,212,46,0,0,328,175,21760,298,,,,,,,,,,,,
76243,1560692604331,4,2.1,2.36,3.09,1.83,5.07,0.68,0.67,0.21,-24,-1,-41,0.96,5785,15,86,34,44,876,328.0,443,442,60,118.0,154,1,332,213,46,0,0,323,170,24320,298,45.700951,4.909778,31.3,198.2,0,0.0,0,0.0,0.07,1,0.07,1.2707
76263,1560692604351,3,2.12,2.35,3.1,1.86,5.07,0.81,0.63,0.2,-25,1,-40,1.03,5799,15,86,34,44,870,325.0,443,452,60,119.0,154,1,332,213,46,0,0,322,-23296,24320,298,,,,,,,,,,,,
76283,1560692604371,1,2.15,2.34,3.11,1.88,5.06,0.77,0.62,0.21,-23,4,-39,0.99,5828,15,86,34,44,869,322.0,445,453,60,117.0,154,1,334,213,46,0,0,319,155,90,298,,,,,,,,,,,,
76303,1560692604391,2,2.19,2.32,3.13,1.89,5.08,0.63,0.61,0.21,-20,6,-39,0.88,5846,15,86,34,45,868,320.0,438,456,60,117.0,157,1,340,215,47,0,0,318,150,25600,300,,,,,,,,,,,,
76323,1560692604411,-0,2.22,2.31,3.15,1.94,5.05,0.49,0.53,0.28,-17,5,-38,0.72,5870,15,86,34,45,864,317.0,443,458,60,117.0,157,1,341,215,47,0,0,318,-28416,90,301,,,,,,,,,,,,
76343,1560692604431,2,2.24,2.29,3.21,1.97,5.05,0.38,0.49,0.37,-15,2,-37,0.62,5896,15,86,34,45,861,315.0,446,456,60,117.0,157,1,342,215,47,0,0,311,135,23040,303,45.700962,4.90978,30.79,198.3,0,0.0,0,0.0,0.0717,1,0.07,1.2724
76363,1560692604451,-1,2.29,2.27,3.26,2.0,5.06,0.39,0.44,0.53,-14,-0,-34,0.59,5892,15,86,34,45,858,312.0,443,459,60,117.0,157,1,342,215,47,0,0,312,130,110,305,,,,,,,,,,,,
76383,1560692604471,0,2.3,2.25,3.26,2.03,5.04,0.44,0.38,0.67,-14,-6,-32,0.58,5929,15,86,34,45,855,310.0,438,463,60,117.0,157,1,344,215,47,0,0,310,32000,29440,308,,,,,,,,,,,,
76403,1560692604492,0,2.34,2.23,3.27,2.03,5.07,0.56,0.29,0.75,-13,-9,-29,0.63,5920,15,86,34,45,850,309.0,436,462,60,118.0,155,1,343,215,48,0,0,307,115,115,309,,,,,,,,,,,,
76423,1560692604512,-1,2.38,2.22,3.28,2.05,5.04,0.67,0.15,0.78,-13,-12,-26,0.69,5937,15,86,34,45,844,309.0,435,461,60,118.0,155,1,344,213,48,0,0,305,110,30720,309,,,,,,,,,,,,
76443,1560692604532,-1,2.42,2.2,3.33,2.07,5.08,0.81,0.0,0.79,-11,-14,-23,0.81,5961,15,86,34,44,840,310.0,440,458,60,119.0,155,1,339,213,48,0,0,301,105,-32256,310,45.700966,4.909782,30.66,198.3,0,0.0,0,0.0,0.0733,1,0.07,1.274
76463,1560692604552,-1,2.45,2.18,3.39,2.11,5.04,0.92,-0.13,0.79,-10,-14,-19,0.93,5998,16,86,35,44,838,312.0,444,456,60,118.0,155,1,340,212,48,0,0,299,25600,-30976,312,,,,,,,,,,,,
76483,1560692604572,-0,2.49,2.15,3.42,2.12,5.04,0.99,-0.25,0.81,-8,-14,-15,1.02,6009,16,86,35,44,834,315.0,446,461,60,117.0,155,1,341,213,48,0,0,297,95,-30976,315,,,,,,,,,,,,
76503,1560692604592,1,2.55,2.13,3.44,2.15,5.06,1.08,-0.38,0.79,-6,-16,-10,1.14,6038,16,86,35,44,830,318.0,447,462,60,117.0,152,1,341,213,48,0,0,295,23040,-30976,318,,,,,,,,,,,,
76523,1560692604610,-2,2.59,2.11,3.47,2.2,5.06,1.09,-0.48,0.75,-3,-15,-6,1.19,6071,17,86,35,44,828,319.0,454,461,60,117.0,152,1,341,213,48,0,0,290,0,-30976,319,,,,,,,,,,,,
76543,1560692604630,-0,2.63,2.1,3.51,2.24,5.08,1.13,-0.62,0.75,-1,-19,-0,1.29,6103,19,86,35,45,827,320.0,460,460,60,117.0,152,1,348,214,48,0,0,291,0,-27136,320,45.700974,4.909784,29.89,198.3,0,0.0,0,0.0,0.075,1,0.07,1.2757
76563,1560692604650,-1,2.7,2.1,3.54,2.27,5.07,1.06,-0.7,0.85,3,-18,5,1.27,6017,20,86,35,46,830,323.0,454,464,60,118.0,152,1,353,214,48,0,0,299,41,150,323,,,,,,,,,,,,
76583,1560692604670,-1,2.76,2.1,3.56,2.31,5.07,1.08,-0.76,0.94,5,-19,10,1.32,5918,21,86,35,47,834,323.0,445,462,60,118.0,152,1,355,217,48,0,0,324,0,150,323,,,,,,,,,,,,
76603,1560692604690,-1,2.83,2.1,3.57,2.34,5.04,1.17,-0.83,1.0,7,-19,14,1.43,5826,21,86,35,48,839,325.0,437,460,60,118.0,147,1,352,222,48,0,0,328,-16896,160,325,,,,,,,,,,,,
76623,1560692604710,0,2.9,2.09,3.58,2.35,5.04,1.25,-0.88,0.98,8,-18,18,1.53,5808,21,86,35,49,844,324.0,437,460,60,118.0,147,1,354,227,48,0,0,306,-1529,160,324,,,,,,,,,,,,
76643,1560692604730,-0,0.33,2.08,3.6,2.34,5.06,1.31,-0.89,0.86,10,-15,22,1.59,5819,21,86,35,50,853,322.0,431,457,60,118.0,147,1,357,231,48,0,0,291,250,155,322,45.700981,4.909786,29.1,198.4,0,0.0,0,0.0,0.0767,1,0.07,1.2774
76663,1560692604750,4,0.4,2.06,3.62,2.33,5.08,1.29,-0.83,0.69,12,-11,25,1.53,5806,21,86,35,51,864,321.0,434,451,60,118.0,147,1,359,236,48,0,0,292,630,-27136,321,,,,,,,,,,,,
76683,1560692604770,3,0.43,2.05,3.63,2.34,5.06,1.14,-0.78,0.55,16,-8,27,1.38,5795,21,86,35,52,873,320.0,436,447,60,119.0,147,1,360,241,48,0,0,295,28160,-25856,319,,,,,,,,,,,,
76703,1560692604790,3,0.43,2.03,3.64,2.34,5.04,0.97,-0.75,0.42,21,-8,28,1.23,5799,22,86,35,53,880,318.0,431,452,60,117.0,166,1,363,246,53,0,0,307,250,-24576,318,,,,,,,,,,,,
76723,1560692604810,1,0.42,2.04,3.66,2.34,5.05,0.85,-0.8,0.42,25,-8,29,1.16,5826,22,86,35,54,890,317.0,430,456,60,117.0,166,1,369,252,53,0,0,310,-1,-24576,317,,,,,,,,,,,,
76743,1560692604830,-0,0.4,2.01,3.67,2.33,5.04,0.77,-0.85,0.57,28,-10,30,1.14,5874,22,86,35,54,905,319.0,430,458,60,117.0,166,1,372,253,53,0,0,310,-1,-24576,319,45.700989,4.90979,28.97,198.4,0,0.0,0,0.0,0.0783,1,0.07,1.279
76763,1560692604850,0,0.39,2.0,3.67,2.33,5.04,0.73,-0.91,0.64,30,-12,32,1.16,5929,22,86,35,54,918,320.0,435,456,60,117.0,166,1,377,254,53,0,0,300,-1,-25856,320,,,,,,,,,,,,
76783,1560692604870,1,0.4,1.97,3.68,2.33,5.06,0.77,-0.96,0.75,31,-12,34,1.23,5967,22,86,35,54,926,323.0,436,458,60,118.0,166,1,381,255,53,0,0,303,-1,-24576,323,,,,,,,,,,,,
76803,1560692604892,0,0.4,1.96,3.67,2.34,5.03,0.85,-0.98,0.87,31,-15,37,1.29,5969,22,86,35,54,934,322.0,437,458,60,118.0,176,1,381,255,57,0,0,320,-1,160,322,,,,,,,,,,,,
76823,1560692604912,0,0.4,1.96,3.67,2.33,5.04,0.9,-1.01,0.96,31,-16,39,1.36,5992,22,86,35,54,944,322.0,438,458,60,117.0,176,1,382,255,57,0,0,318,-1,150,322,,,,,,,,,,,,
76843,1560692604932,0,0.41,1.95,3.67,2.34,5.05,0.9,-0.97,1.02,32,-15,41,1.32,6032,23,86,35,54,951,322.0,440,457,60,117.0,176,1,384,256,57,0,0,324,-1,-23296,322,45.700996,4.909794,28.44,198.4,0,0.0,0,0.0,0.08,1,0.07,1.2807
76863,1560692604952,0,0.4,1.95,3.67,2.36,5.03,0.9,-0.94,1.09,32,-17,44,1.3,6062,23,86,35,54,954,321.0,447,458,60,117.0,176,1,384,256,57,0,0,341,-1,155,321,,,,,,,,,,,,
76883,1560692604972,1,0.41,1.97,3.66,2.4,5.04,0.91,-0.99,1.14,32,-16,46,1.35,6125,24,86,35,54,957,321.0,452,458,60,117.0,176,1,384,256,57,0,0,316,-1,-29696,321,,,,,,,,,,,,
76903,1560692604992,1,0.41,2.0,3.65,2.4,5.07,0.89,-1.09,1.22,33,-18,47,1.41,6127,25,86,35,55,962,319.0,452,456,60,117.0,184,1,384,256,59,0,0,306,-1,150,319,,,,,,,,,,,,
76923,1560692605006,2,0.39,1.99,3.65,2.38,5.04,0.85,-1.13,1.3,35,-19,48,1.42,6034,26,86,35,56,966,321.0,450,457,60,116.0,184,1,384,254,59,0,0,329,-1,165,321,,,,,,,,,,,,
76943,1560692605026,0,0.38,1.96,3.65,2.4,5.06,0.83,-1.13,1.37,37,-19,49,1.4,5967,27,86,35,56,969,325.0,398,452,60,117.0,184,1,381,253,59,0,0,350,-1,-25856,324,45.701004,4.909799,28.21,198.4,0,0.0,0,0.0,0.0817,1,0.08,1.2824
76963,1560692605046,3,0.36,1.93,3.65,2.4,5.07,0.79,-1.19,1.43,38,-19,50,1.42,5988,29,86,35,58,974,326.0,315,451,60,117.0,184,1,381,251,59,0,0,351,-1,-27136,326,,,,,,,,,,,,
76983,1560692605066,2,0.35,1.92,3.65,2.4,5.07,0.74,-1.23,1.48,39,-19,50,1.43,6077,33,86,35,59,984,324.0,301,448,60,117.0,184,1,384,251,59,0,0,319,-1,145,324,,,,,,,,,,,,
77003,1560692605092,2,0.33,1.92,3.64,2.4,5.04,0.71,-1.28,1.49,40,-19,50,1.47,6091,37,86,35,61,994,325.0,316,455,60,117.0,179,1,384,250,58,0,0,289,-1,165,325,,,,,,,,,,,,
77023,1560692605112,2,2.9,1.92,3.64,2.4,5.07,0.62,-1.25,1.48,42,-18,51,1.39,5969,40,86,35,64,1003,328.0,337,451,60,118.0,179,1,369,272,58,0,0,326,-1,-25856,328,,,,,,,,,,,,
77043,1560692605132,1,2.85,1.93,3.65,2.41,5.03,0.46,-1.17,1.46,43,-18,51,1.26,5881,43,86,35,67,1012,328.0,308,452,60,118.0,179,1,352,298,58,0,0,349,-1,155,328,45.701008,4.909805,28.72,198.4,0,0.0,0,0.0,0.0833,1,0.08,1.284
77063,1560692605152,1,2.8,1.94,3.65,2.41,5.07,0.4,-1.15,1.48,45,-20,49,1.22,5815,45,86,35,70,1029,328.0,328,452,60,117.0,179,1,342,334,58,0,0,325,-1,150,328,,,,,,,,,,,,
77083,1560692605172,-1,2.73,1.95,3.66,2.41,5.05,0.46,-1.16,1.52,45,-23,49,1.25,5850,46,86,35,73,1046,327.0,353,460,60,117.0,179,1,341,377,58,0,0,295,-1,-27136,327,,,,,,,,,,,,
77103,1560692605192,-1,2.65,1.96,3.67,2.39,5.06,0.62,-1.15,1.56,43,-23,49,1.31,5881,47,86,35,75,1054,327.0,338,455,60,117.0,262,1,342,408,86,0,0,297,-1,-24576,327,,,,,,,,,,,,
77123,1560692605212,-1,2.59,2.01,3.63,2.38,5.05,0.76,-1.12,1.56,40,-24,50,1.36,5969,48,86,35,77,1063,326.0,350,455,60,117.0,262,1,346,429,86,0,0,297,-1,145,326,,,,,,,,,,,,
77143,1560692605232,0,2.53,2.09,3.52,2.34,5.04,0.86,-1.14,1.53,37,-23,50,1.42,6075,49,86,35,78,1091,322.0,378,456,60,117.0,262,1,349,443,86,0,0,289,-1534,-27136,322,45.701012,4.909812,28.31,198.5,0,0.0,0,0.0,0.085,1,0.08,1.2857
77163,1560692605252,-1,2.49,2.21,3.4,2.33,5.08,0.97,-1.1,1.55,34,-23,48,1.47,6067,49,86,35,79,1119,318.0,397,455,60,116.0,262,1,348,449,86,0,0,308,-16896,-29696,318,,,,,,,,,,,,
77183,1560692605272,-0,2.45,2.28,3.31,2.33,5.07,1.0,-1.08,1.52,31,-23,46,1.47,6077,49,86,35,79,1139,316.0,410,452,60,117.0,262,1,348,449,86,0,0,319,20480,145,316,,,,,,,,,,,,
77203,1560692605292,-0,2.42,2.35,3.22,2.33,5.07,0.95,-1.01,1.5,29,-21,43,1.38,6028,50,86,35,80,1159,316.0,415,452,60,116.0,325,1,346,454,103,0,0,323,90,145,316,,,,,,,,,,,,
77223,1560692605312,2,2.37,2.42,3.16,2.32,5.07,0.92,-0.87,1.46,26,-20,41,1.27,6003,50,86,35,80,1204,315.0,419,451,60,116.0,325,1,346,460,103,0,0,317,29440,170,318,,,,,,,,,,,,
77243,1560692605332,-0,2.34,2.46,3.13,2.3,5.07,0.91,-0.79,1.44,23,-19,39,1.2,5986,50,86,35,81,1252,320.0,421,450,60,116.0,325,1,344,459,103,0,0,322,32000,160,320,45.701019,4.909821,28.5,198.5,0,0.0,0,0.0,0.0867,1,0.08,1.2874
77263,1560692605352,2,2.31,2.51,3.08,2.28,5.07,0.92,-0.72,1.4,21,-19,36,1.17,6009,50,86,35,81,1284,320.0,423,452,60,117.0,325,1,345,460,103,0,0,325,-30976,170,322,,,,,,,,,,,,
77283,1560692605372,2,2.27,2.56,3.08,2.28,5.06,0.91,-0.65,1.36,19,-19,34,1.12,6050,50,86,35,81,1311,322.0,427,453,60,116.0,325,1,346,461,103,0,0,331,-27136,165,322,,,,,,,,,,,,
77303,1560692605392,3,2.25,2.57,3.08,2.28,5.05,0.86,-0.6,1.29,17,-17,30,1.05,6105,50,86,35,81,1313,322.0,432,455,60,117.0,329,1,348,461,106,0,0,331,-25856,-20736,323,,,,,,,,,,,,
77323,1560692605412,4,2.24,2.56,3.09,2.28,5.04,0.87,-0.5,1.24,15,-15,27,1.0,6208,50,86,35,81,1308,326.0,438,449,60,116.0,329,1,352,464,106,0,0,335,165,170,324,,,,,,,,,,,,
77343,1560692605432,4,2.24,2.55,3.09,2.27,5.04,0.83,-0.35,1.16,14,-13,25,0.9,6260,50,86,35,81,1283,329.0,445,447,60,118.0,329,1,354,464,106,0,0,339,-20736,-20736,326,45.701023,4.90983,29.92,198.5,0,0.0,0,0.0,0.0883,1,0.08,1.289
77363,1560692605452,1,2.24,2.54,3.1,2.26,5.05,0.75,-0.27,1.09,12,-11,22,0.8,6298,50,86,35,81,1250,333.0,448,456,60,118.0,329,1,355,464,106,0,0,341,-6528,13,329,,,,,,,,,,,,
77383,1560692605472,-2,2.25,2.51,3.1,2.26,5.04,0.74,-0.29,1.02,11,-7,20,0.8,6390,51,86,35,81,1211,337.0,455,455,60,117.0,329,1,358,466,106,0,0,344,2560,-14714,331,,,,,,,,,,,,
77403,1560692605492,2,2.25,2.5,3.1,2.25,5.08,0.73,-0.27,1.12,9,-8,17,0.78,6514,51,86,35,81,1171,339.0,457,452,60,118.0,341,1,362,474,113,0,0,344,-122,-14714,334,,,,,,,,,,,,
77423,1560692605512,-2,2.26,2.49,3.08,2.25,5.07,0.73,-0.21,1.02,8,-8,15,0.76,6560,51,86,35,81,1149,342.0,461,451,60,118.0,341,1,364,469,113,0,0,347,-31206,8841,337,,,,,,,,,,,,
77443,1560692605532,2,2.26,2.49,3.07,2.25,5.08,0.67,-0.21,1.01,8,-6,13,0.7,6648,52,86,35,82,1141,343.0,463,451,60,117.0,341,1,365,476,113,0,0,354,-14714,28553,340,45.701027,4.909839,31.19,198.5,0,0.0,0,0.0,0.09,1,0.08,1.2907
77463,1560692605552,6,2.26,2.49,3.08,2.26,5.04,0.69,-0.15,1.08,7,-7,10,0.71,6674,52,86,35,81,1134,346.0,468,459,60,118.0,341,1,368,471,113,0,0,356,-30438,-29302,344,,,,,,,,,,,,
77483,1560692605572,1,2.28,2.48,3.08,2.26,5.03,0.63,-0.17,1.02,6,-7,8,0.65,6742,52,86,35,82,1127,350.0,472,456,60,118.0,341,1,369,472,113,0,0,362,-30454,2060,347,,,,,,,,,,,,
77503,1560692605591,5,2.27,2.47,3.08,2.27,5.06,0.67,-0.08,1.05,5,-8,5,0.67,6833,52,86,35,81,1125,350.0,480,453,60,118.0,354,1,373,480,123,0,0,365,3302,-14707,350,,,,,,,,,,,,
77523,1560692605611,2,2.27,2.47,3.09,2.28,5.07,0.64,-0.14,0.99,5,-6,4,0.65,6883,53,86,35,82,1125,357.0,483,458,60,117.0,354,1,374,481,123,0,0,368,-6640,486,355,,,,,,,,,,,,
77543,1560692605631,-2,2.28,2.47,3.09,2.33,5.05,0.59,0.02,0.89,5,-4,4,0.59,6952,53,86,35,81,1119,360.0,482,453,60,118.0,354,1,377,475,123,0,0,371,-29978,486,360,45.701031,4.909849,32.06,198.5,0,0.0,0,0.0,0.0917,1,0.08,1.2924
77563,1560692605651,4,2.26,2.48,3.09,2.33,5.07,0.72,-0.02,0.96,3,-5,5,0.72,7043,53,86,35,81,1107,364.0,497,460,60,117.0,354,1,381,476,123,0,0,371,-1268,742,362,,,,,,,,,,,,
77583,1560692605671,3,2.27,2.47,3.09,2.33,5.03,0.62,-0.0,0.84,4,-2,6,0.62,7096,53,86,35,80,1094,366.0,497,452,60,117.0,354,1,384,470,123,0,0,377,230,-18948,366,,,,,,,,,,,,
77603,1560692605691,2,2.26,2.48,3.09,2.32,5.04,0.55,0.06,0.8,3,-2,6,0.56,7137,53,86,35,81,1082,371.0,498,453,60,118.0,349,1,387,477,128,0,0,385,257,-18948,369,,,,,,,,,,,,
77623,1560692605711,-1,2.27,2.48,3.09,2.3,5.06,0.7,0.08,0.91,1,-4,4,0.71,7239,53,86,35,80,1058,375.0,512,454,60,118.0,349,1,393,471,128,0,0,386,770,-1562,373,,,,,,,,,,,,
77643,1560692605731,14,2.27,2.48,3.1,2.31,5.06,0.72,-0.0,1.01,1,-4,3,0.72,7312,54,86,35,79,1020,378.0,512,450,60,118.0,349,1,398,472,128,0,0,391,2278,505,377,45.701038,4.909858,33.94,198.6,0,0.0,0,0.0,0.0933,1,0.08,1.294
77663,1560692605751,4,2.26,2.48,3.09,2.3,5.04,0.66,-0.08,1.09,2,-3,3,0.66,7416,54,86,35,79,985,381.0,522,457,60,117.0,349,1,404,465,128,0,0,397,-18948,17144,379,,,,,,,,,,,,
77683,1560692605771,4,2.27,2.48,3.09,2.3,5.07,0.63,-0.15,1.14,2,-4,1,0.65,7479,54,86,34,78,959,387.0,526,451,60,118.0,349,1,408,461,128,0,0,403,240,11545,385,,,,,,,,,,,,
77703,1560692605791,5,2.26,2.48,3.1,2.32,5.03,0.59,-0.17,1.22,2,-4,1,0.61,7572,54,86,34,77,933,389.0,534,451,60,118.0,337,1,413,461,131,0,0,405,-31744,28696,389,,,,,,,,,,,,
77723,1560692605811,-0,2.26,2.48,3.1,2.34,5.03,0.58,-0.24,1.23,2,-3,0,0.63,7625,54,86,34,77,904,393.0,535,452,60,118.0,337,1,416,454,131,0,0,411,-6656,13040,392,,,,,,,,,,,,
77743,1560692605831,-1,2.27,2.49,3.11,2.32,5.05,0.58,-0.31,1.28,1,-2,0,0.66,7741,54,86,34,77,882,400.0,534,452,60,118.0,337,1,423,446,131,0,0,411,6512,13040,397,45.701042,4.909869,35.66,198.5,0,0.0,0,0.0,0.095,1,0.08,1.2957
77763,1560692605851,2,2.26,2.5,3.1,2.31,5.05,0.67,-0.29,1.33,1,-4,0,0.73,7809,54,86,34,76,880,403.0,537,451,60,117.0,337,1,427,435,131,0,0,420,-8151,-4059,400,,,,,,,,,,,,
77783,1560692605871,2,2.28,2.5,3.09,2.31,5.07,0.62,-0.25,1.31,1,-4,-1,0.67,7938,54,86,34,75,875,407.0,552,458,60,117.0,337,1,435,435,131,0,0,423,2524,-21792,405,,,,,,,,,,,,
77803,1560692605891,5,2.28,2.51,3.09,2.31,5.07,0.62,-0.24,1.19,1,-4,-1,0.66,8036,54,86,34,73,862,410.0,553,457,60,117.0,315,1,443,416,128,0,0,425,9517,31796,410,,,,,,,,,,,,
77823,1560692605911,1,2.29,2.51,3.08,2.32,5.07,0.63,-0.34,1.25,1,-5,-2,0.72,8081,54,86,34,71,849,415.0,556,450,60,117.0,315,1,444,397,128,0,0,433,-26615,-3322,415,,,,,,,,,,,,
77843,1560692605931,2,2.3,2.51,3.1,2.32,5.05,0.57,-0.27,1.21,1,-4,-3,0.63,8145,54,86,34,71,837,420.0,577,456,60,117.0,315,1,442,389,128,0,0,442,7154,23400,420,45.701046,4.90988,37.5,198.5,0,0.0,0,0.0,0.0967,1,0.08,1.2974
77863,1560692605951,2,2.3,2.5,3.12,2.32,5.07,0.63,-0.3,1.13,-0,-5,-3,0.7,8256,54,86,34,69,826,424.0,572,447,60,117.0,315,1,440,381,128,0,0,444,-3856,21432,424,,,,,,,,,,,,
77883,1560692605971,3,2.31,2.51,3.1,2.33,5.06,0.58,-0.21,1.07,0,-4,-2,0.62,8355,55,86,34,68,812,429.0,581,452,60,117.0,315,1,438,375,128,0,0,445,3635,-28332,427,,,,,,,,,,,,
77903,1560692605991,1,2.31,2.53,3.08,2.32,5.06,0.6,-0.22,1.02,0,-4,-3,0.64,8385,55,86,34,66,798,433.0,587,457,60,118.0,274,1,440,363,118,0,0,446,243,3571,431,,,,,,,,,,,,
77923,1560692606007,1,2.3,2.55,3.09,2.33,5.05,0.52,-0.13,1.07,1,-5,-1,0.53,8442,55,86,34,65,796,437.0,597,460,60,118.0,274,1,441,365,118,0,0,455,5600,-8985,437,,,,,,,,,,,,
77943,1560692606027,3,2.31,2.52,3.1,2.33,5.07,0.48,-0.07,1.05,2,-3,-2,0.49,8503,55,86,34,65,793,443.0,591,450,60,117.0,274,1,438,361,118,0,0,464,20625,-23623,446,45.70105,4.909891,39.54,198.5,0,0.0,0,0.0,0.0983,1,0.08,1.299
77963,1560692606047,2,2.32,2.5,3.13,2.34,5.08,0.54,-0.16,1.14,1,-4,-1,0.56,8596,55,86,34,64,808,446.0,592,449,60,117.0,274,1,434,356,118,0,0,461,2131,16408,446,,,,,,,,,,,,
77983,1560692606067,-0,2.32,2.5,3.14,2.33,5.05,0.6,-0.16,1.18,1,-4,-1,0.62,8716,55,86,34,63,822,451.0,598,453,60,117.0,274,1,425,357,118,0,0,463,10305,243,452,,,,,,,,,,,,
78003,1560692606087,1,2.33,2.49,3.14,2.34,5.07,0.47,-0.11,1.04,2,-4,0,0.48,8782,55,86,34,64,838,455.0,608,456,60,118.0,256,1,419,358,116,0,0,464,3571,8488,455,,,,,,,,,,,,
78023,1560692606109,4,2.33,2.5,3.12,2.35,5.04,0.42,0.03,0.9,2,-3,1,0.42,8882,55,86,34,62,855,459.0,612,449,60,116.0,256,1,409,350,116,0,0,476,-26615,8488,459,,,,,,,,,,,,
78043,1560692606129,2,2.35,2.5,3.14,2.36,5.06,0.3,0.05,0.96,3,-3,1,0.3,8928,56,86,34,63,887,463.0,611,453,60,117.0,256,1,407,355,116,0,0,475,17628,-1818,463,45.701057,4.909903,41.69,198.6,0,0.0,0,0.0,0.1,1,0.09,1.3007
78063,1560692606149,5,2.35,2.49,3.14,2.36,5.06,0.36,-0.0,0.96,4,-2,2,0.36,8992,56,86,34,62,919,470.0,618,446,60,117.0,256,1,399,355,116,0,0,484,-23623,-1562,470,,,,,,,,,,,,
78083,1560692606169,6,2.35,2.47,3.16,2.38,5.06,0.32,-0.04,1.04,4,-3,2,0.32,9044,56,86,34,63,939,471.0,615,452,60,117.0,256,1,401,352,116,0,0,487,-23623,3580,471,,,,,,,,,,,,
78103,1560692606191,5,2.37,2.45,3.18,2.39,5.07,0.34,-0.08,0.99,4,-2,3,0.35,9128,56,86,34,63,955,476.0,620,451,60,117.0,256,1,403,357,122,0,0,485,243,1,476,,,,,,,,,,,,
78123,1560692606211,8,2.38,2.45,3.18,2.42,5.04,0.19,-0.14,1.01,5,-0,3,0.24,9191,56,86,34,62,985,480.0,626,450,60,117.0,256,1,403,352,122,0,0,492,-16384,248,481,,,,,,,,,,,,
78143,1560692606231,2,2.38,2.44,3.19,2.4,5.06,0.22,-0.03,0.9,6,-0,4,0.22,9263,56,86,34,62,1016,484.0,630,444,60,117.0,256,1,406,352,122,0,0,487,3576,771,484,45.701061,4.909916,43.73,198.6,0,0.0,0,0.0,0.1017,1,0.09,1.3024
78163,1560692606251,2,2.38,2.41,3.23,2.4,5.08,0.03,0.05,0.88,7,1,6,0.06,9323,56,86,34,62,1037,487.0,622,459,60,117.0,256,1,408,352,122,0,0,502,-9203,-32248,487,,,,,,,,,,,,
78183,1560692606271,5,2.4,2.4,3.24,2.41,5.05,0.22,0.07,0.93,7,-0,7,0.23,9417,56,86,34,62,1053,496.0,622,454,60,117.0,256,1,410,352,122,0,0,499,16648,-22519,496,,,,,,,,,,,,
78203,1560692606291,4,2.39,2.4,3.24,2.42,5.05,0.36,-0.1,1.03,7,-3,7,0.37,9493,56,86,34,61,1071,497.0,631,448,60,117.0,254,1,413,348,126,0,0,509,10305,17136,497,,,,,,,,,,,,
78223,1560692606311,3,2.39,2.39,3.25,2.44,5.07,0.33,-0.28,1.08,8,-0,6,0.43,9576,56,86,34,61,1089,499.0,621,455,60,117.0,254,1,414,352,126,0,0,513,-10483,-3856,501,,,,,,,,,,,,
78243,1560692606331,3,2.4,2.39,3.28,2.44,5.04,0.22,-0.3,1.06,9,-1,7,0.37,9694,56,86,34,60,1096,503.0,628,457,60,117.0,254,1,411,353,126,0,0,521,-6441,-14,506,45.701069,4.90993,45.77,198.6,0,0.0,0,0.0,0.1033,1,0.09,1.304
78263,1560692606351,0,2.4,2.4,3.26,2.47,5.04,0.26,-0.37,1.11,9,2,7,0.45,9760,56,86,34,60,1097,505.0,626,452,60,117.0,254,1,410,356,126,0,0,517,1,-8187,505,,,,,,,,,,,,
78283,1560692606371,3,2.4,2.4,3.26,2.46,5.08,0.29,-0.35,1.14,10,-1,9,0.45,9765,56,86,34,60,1092,510.0,627,451,60,117.0,254,1,410,358,126,0,0,517,998,2088,513,,,,,,,,,,,,
78303,1560692606391,2,2.39,2.4,3.26,2.46,5.07,0.31,-0.31,1.13,10,-2,9,0.44,9780,56,86,34,60,1083,516.0,632,456,60,117.0,259,1,410,357,133,0,0,530,3,-9212,516,,,,,,,,,,,,
78323,1560692606409,3,2.4,2.39,3.26,2.47,5.04,0.34,-0.25,1.11,10,1,9,0.42,9858,56,86,34,60,1073,518.0,632,458,60,117.0,259,1,409,358,133,0,0,530,10408,-28648,518,,,,,,,,,,,,
78343,1560692606429,1,2.39,2.38,3.27,2.46,5.07,0.45,-0.29,1.09,10,-3,10,0.54,9915,56,86,34,59,1063,524.0,633,451,60,117.0,259,1,407,356,133,0,0,527,-32248,2104,524,45.701076,4.909945,47.3,198.6,0,0.0,0,0.0,0.105,1,0.09,1.3057
78363,1560692606449,0,2.4,2.37,3.3,2.45,5.06,0.46,-0.37,1.18,10,-2,11,0.59,9973,56,86,34,59,1051,527.0,642,452,60,117.0,259,1,407,358,133,0,0,536,6274,-32248,527,,,,,,,,,,,,
78383,1560692606469,4,2.4,2.37,3.3,2.47,5.03,0.52,-0.32,1.11,10,-1,11,0.61,10096,56,86,33,59,1037,529.0,631,457,60,116.0,259,1,411,359,133,0,0,532,-3856,-3082,530,,,,,,,,,,,,
78403,1560692606493,2,2.41,2.37,3.3,2.46,5.07,0.54,-0.33,1.03,10,-3,13,0.64,10162,56,86,33,59,1028,533.0,635,453,60,117.0,258,1,415,362,137,0,0,539,-3482,6274,534,,,,,,,,,,,,
78423,1560692606513,1,2.4,2.36,3.31,2.46,5.05,0.58,-0.4,1.05,11,-1,15,0.71,10179,56,86,33,59,1024,537.0,637,455,60,117.0,258,1,416,362,137,0,0,548,16383,-3082,538,,,,,,,,,,,,
78443,1560692606533,3,2.39,2.36,3.3,2.47,5.05,0.59,-0.4,1.14,11,1,15,0.71,10273,56,86,33,60,1020,541.0,626,453,60,117.0,258,1,426,373,137,0,0,547,15679,-8962,541,45.70108,4.90996,48.66,198.6,0,0.0,0,0.0,0.1067,1,0.09,1.3074
78463,1560692606553,0,2.4,2.36,3.29,2.46,5.08,0.59,-0.41,1.2,11,-3,17,0.72,10285,56,86,33,60,1016,542.0,645,450,60,117.0,258,1,427,373,137,0,0,544,2524,2104,542,,,,,,,,,,,,
78483,1560692606573,5,2.4,2.36,3.28,2.46,5.07,0.57,-0.46,1.22,12,-2,17,0.73,10376,56,86,33,60,1013,543.0,636,453,60,117.0,258,1,433,375,137,0,0,549,-22519,-22359,543,,,,,,,,,,,,
78503,1560692606592,5,2.4,2.36,3.29,2.47,5.04,0.61,-0.47,1.26,12,-1,16,0.77,10364,56,86,33,60,1014,549.0,643,453,60,116.0,268,1,432,376,146,0,0,555,-9072,-22359,549,,,,,,,,,,,,
78523,1560692606612,1,2.39,2.36,3.3,2.46,5.06,0.64,-0.46,1.23,12,-0,15,0.78,10405,56,86,33,61,1011,552.0,642,457,60,119.0,268,1,443,376,146,0,0,560,14504,-22359,550,,,,,,,,,,,,
78543,1560692606632,0,2.39,2.36,3.31,2.45,5.04,0.64,-0.45,1.22,12,-3,15,0.78,10005,56,86,33,62,1005,554.0,645,454,60,119.0,268,1,407,384,146,0,0,557,-32248,-22263,554,45.701088,4.909976,50.5,198.6,0,0.0,0,0.0,0.1083,1,0.09,1.309
78563,1560692606652,-2,2.39,2.33,3.31,2.44,5.06,0.7,-0.55,1.1,12,-3,15,0.89,9615,56,86,33,64,1000,556.0,646,456,60,118.0,268,1,413,377,146,0,0,539,-2934,-28648,556,,,,,,,,,,,,
78583,1560692606672,0,2.4,2.29,3.36,2.42,5.04,0.71,-0.56,1.04,13,-3,15,0.9,9422,56,86,33,65,993,558.0,643,458,60,119.0,268,1,413,366,146,0,0,533,-28648,-22359,555,,,,,,,,,,,,
78603,1560692606692,-0,2.4,2.26,3.38,2.4,5.08,0.48,-0.47,0.95,14,-2,16,0.67,9222,56,86,33,65,987,557.0,637,452,60,116.0,234,1,409,366,130,0,0,535,-32248,-22263,557,,,,,,,,,,,,
78623,1560692606710,4,2.39,2.24,3.43,2.39,5.05,0.46,-0.4,0.79,14,-1,16,0.61,9023,56,86,33,66,980,557.0,623,458,60,119.0,234,1,408,657,130,0,0,530,6274,2216,557,,,,,,,,,,,,
78643,1560692606730,3,2.39,2.23,3.47,2.4,5.04,0.42,-0.44,0.83,15,0,15,0.61,8664,57,86,33,67,973,562.0,618,449,60,117.0,234,1,427,606,130,0,0,554,-32248,-8188,562,45.701096,4.909993,52.87,198.6,0,0.0,0,0.0,0.11,1,0.09,1.3107
78663,1560692606750,5,2.39,2.23,3.43,2.41,5.07,0.48,-0.44,0.72,16,1,15,0.65,8088,57,86,33,69,970,564.0,588,460,60,117.0,234,1,446,552,130,0,0,628,-2934,6273,564,,,,,,,,,,,,
78683,1560692606770,-0,2.4,2.27,3.35,2.48,5.04,0.41,-0.46,0.85,16,3,16,0.62,7968,57,86,33,69,987,569.0,562,449,60,117.0,234,1,447,490,130,0,0,630,-8186,208,569,,,,,,,,,,,,
78703,1560692606792,3,2.39,2.31,3.3,2.52,5.05,0.51,-0.58,0.96,16,3,16,0.77,7965,57,86,33,71,1070,569.0,553,452,60,117.0,256,1,443,456,146,0,0,560,-3082,-12040,570,,,,,,,,,,,,
78723,1560692606812,3,2.39,2.3,3.28,2.52,5.07,0.58,-0.65,0.95,15,1,16,0.88,7901,57,86,33,72,1154,574.0,562,454,60,117.0,256,1,438,405,146,0,0,570,2524,-32504,574,,,,,,,,,,,,
78743,1560692606832,8,2.39,2.29,3.29,2.5,5.05,0.54,-0.67,0.85,15,1,17,0.86,7868,57,86,33,73,1238,575.0,562,451,60,118.0,256,1,435,413,146,0,0,585,-22359,6273,579,45.701099,4.91001,53.33,198.6,0,0.0,0,0.0,0.1117,1,0.09,1.3124
78763,1560692606852,1,2.38,2.3,3.3,2.5,5.05,0.6,-0.73,0.91,14,-1,16,0.95,7848,58,86,33,74,1315,578.0,555,455,60,117.0,256,1,432,424,146,0,0,587,2216,-1894,578,,,,,,,,,,,,
78783,1560692606872,3,2.38,2.3,3.33,2.5,5.04,0.69,-0.76,1.01,14,-2,15,1.03,7961,58,86,33,75,1336,582.0,557,454,60,117.0,256,1,437,435,146,0,0,592,-18032,-13043,582,,,,,,,,,,,,
78803,1560692606893,3,2.39,2.3,3.37,2.49,5.05,0.65,-0.77,0.96,14,-2,16,1.01,8123,58,86,33,74,1357,583.0,571,451,60,118.0,227,1,439,428,132,0,0,598,12552,-16179,583,,,,,,,,,,,,
78823,1560692606913,2,2.39,2.3,3.4,2.49,5.04,0.7,-0.83,1.05,14,-5,15,1.08,8216,58,86,33,72,1292,587.0,573,451,60,117.0,227,1,438,410,132,0,0,600,1780,243,588,,,,,,,,,,,,
78843,1560692606933,4,2.39,2.29,3.39,2.48,5.07,0.63,-0.87,0.99,13,-4,14,1.07,8245,58,86,33,71,1227,590.0,583,461,60,117.0,227,1,439,401,132,0,0,608,1760,-3210,590,45.701103,4.910028,54.43,198.7,0,0.0,0,0.0,0.1133,1,0.1,1.314
78863,1560692606953,2,2.38,2.3,3.39,2.47,5.04,0.69,-0.78,1.01,13,-5,14,1.04,8322,58,86,33,70,1138,595.0,581,452,60,117.0,227,1,437,393,132,0,0,614,1760,-28304,594,,,,,,,,,,,,
78883,1560692606973,3,2.39,2.3,3.37,2.48,5.05,0.62,-0.71,0.88,13,-4,16,0.94,8385,58,86,33,69,1049,598.0,587,454,60,118.0,227,1,436,395,132,0,0,610,774,16529,598,,,,,,,,,,,,
78903,1560692606993,2,2.39,2.3,3.32,2.47,5.07,0.59,-0.67,0.91,14,-1,16,0.9,8337,58,86,33,69,1017,601.0,582,453,60,117.0,201,1,437,375,121,0,0,609,8488,-28304,601,,,,,,,,,,,,
78923,1560692607006,0,2.39,2.3,3.32,2.47,5.05,0.54,-0.58,0.89,15,-2,16,0.8,8278,58,86,33,69,994,605.0,597,457,60,118.0,201,1,439,382,121,0,0,618,8488,19320,605,,,,,,,,,,,,
78943,1560692607026,4,2.37,2.3,3.32,2.47,5.07,0.49,-0.62,0.82,15,-1,15,0.79,8340,58,86,33,69,985,608.0,589,455,60,116.0,201,1,438,383,121,0,0,617,2048,3403,608,45.701107,4.910047,56.04,198.7,0,0.0,0,0.0,0.115,1,0.1,1.3157
78963,1560692607046,1,2.36,2.3,3.32,2.47,5.05,0.57,-0.64,0.93,14,-1,15,0.86,8411,58,86,33,68,976,609.0,592,452,60,118.0,201,1,436,377,121,0,0,611,-28648,-18357,609,,,,,,,,,,,,
78983,1560692607066,4,2.36,2.3,3.33,2.47,5.07,0.54,-0.58,0.87,13,-1,15,0.8,8445,58,86,33,68,985,613.0,593,445,60,117.0,201,1,434,370,121,0,0,619,-28648,269,612,,,,,,,,,,,,
79003,1560692607086,2,2.36,2.3,3.32,2.47,5.06,0.62,-0.56,0.98,13,-2,14,0.83,8442,58,86,33,67,1000,612.0,597,452,60,117.0,196,1,437,371,120,0,0,623,30227,3,612,,,,,,,,,,,,
79023,1560692607110,1,2.35,2.3,3.32,2.46,5.03,0.73,-0.58,1.08,13,-2,13,0.93,8507,58,86,33,67,1020,617.0,610,453,60,117.0,196,1,434,373,120,0,0,621,23619,-5120,617,,,,,,,,,,,,
79043,1560692607130,2,2.36,2.3,3.32,2.46,5.07,0.65,-0.58,1.04,13,-2,12,0.87,8553,58,86,33,67,1043,620.0,608,450,60,117.0,196,1,432,368,120,0,0,633,5344,966,619,45.701111,4.910067,57.6,198.7,0,0.0,0,0.0,0.1167,1,0.1,1.3174
79063,1560692607150,4,2.35,2.3,3.32,2.45,5.04,0.62,-0.57,0.97,12,-3,12,0.84,8585,58,86,33,66,1054,623.0,600,457,60,117.0,196,1,432,368,120,0,0,632,17740,-2580,622,,,,,,,,,,,,
79083,1560692607170,2,2.35,2.3,3.34,2.44,5.06,0.69,-0.6,1.02,12,-2,12,0.92,8656,58,86,33,66,1062,625.0,601,452,60,118.0,196,1,429,368,120,0,0,636,19621,-2580,625,,,,,,,,,,,,
79103,1560692607192,0,2.35,2.3,3.31,2.44,5.07,0.66,-0.58,1.03,12,-2,13,0.88,8696,58,86,33,65,1080,626.0,608,457,60,118.0,193,1,426,363,121,0,0,630,1010,-3584,626,,,,,,,,,,,,
79123,1560692607212,3,2.35,2.3,3.32,2.44,5.07,0.62,-0.52,0.93,12,-0,13,0.81,8745,58,86,33,65,1102,630.0,607,450,60,117.0,193,1,422,363,121,0,0,643,16529,6208,630,,,,,,,,,,,,
79143,1560692607232,6,2.35,2.34,3.31,2.45,5.04,0.5,-0.51,0.95,11,-0,13,0.72,8753,58,86,33,65,1120,632.0,608,451,60,117.0,193,1,422,363,121,0,0,641,30721,24,632,45.701115,4.910087,59.25,198.7,0,0.0,0,0.0,0.1183,1,0.1,1.3191
79163,1560692607252,4,2.36,2.31,3.3,2.44,5.07,0.58,-0.48,0.89,11,-2,12,0.75,8778,58,86,33,65,1135,635.0,613,448,60,117.0,193,1,420,363,121,0,0,648,17336,24583,635,,,,,,,,,,,,
79183,1560692607272,3,2.36,2.32,3.29,2.44,5.03,0.69,-0.52,0.96,11,-1,11,0.86,8769,58,86,33,65,1151,640.0,611,449,60,117.0,193,1,421,363,121,0,0,652,-16883,11776,639,,,,,,,,,,,,
79203,1560692607292,0,2.36,2.31,3.3,2.44,5.08,0.77,-0.65,1.06,11,-3,11,1.01,8806,57,86,33,64,1168,642.0,618,460,60,117.0,189,1,418,364,121,0,0,649,-1346,-8429,642,,,,,,,,,,,,
79223,1560692607312,0,2.35,2.3,3.29,2.44,5.04,0.83,-0.65,1.05,11,-2,10,1.05,8869,57,86,33,64,1178,643.0,618,463,60,117.0,189,1,413,360,121,0,0,659,-14655,-2830,646,,,,,,,,,,,,
79243,1560692607332,1,2.35,2.31,3.31,2.44,5.08,0.74,-0.61,1.0,11,-1,10,0.96,8915,57,86,33,64,1181,645.0,627,443,60,117.0,189,1,410,360,121,0,0,654,771,2024,648,45.701118,4.910108,60.43,198.8,0,0.0,0,0.0,0.12,1,0.1,1.3207
79263,1560692607352,1,2.35,2.31,3.31,2.44,5.04,0.73,-0.55,0.91,11,1,10,0.91,8984,56,86,33,63,1184,649.0,616,458,60,118.0,189,1,402,356,121,0,0,665,771,-3488,649,,,,,,,,,,,,
79283,1560692607372,1,2.35,2.32,3.31,2.44,5.04,0.58,-0.47,0.88,11,1,11,0.74,9023,56,86,33,63,1188,650.0,628,445,60,117.0,189,1,400,357,121,0,0,658,-2580,31988,647,,,,,,,,,,,,
79303,1560692607392,2,2.36,2.31,3.31,2.45,5.04,0.55,-0.39,0.78,12,3,11,0.67,9023,56,86,33,62,1191,653.0,625,461,60,118.0,186,1,398,352,122,0,0,669,-2580,-2826,654,,,,,,,,,,,,
79323,1560692607412,2,2.37,2.32,3.3,2.45,5.05,0.5,-0.39,0.77,12,2,13,0.63,9023,55,86,33,62,1193,656.0,625,455,60,118.0,186,1,398,352,122,0,0,671,-2830,1549,656,,,,,,,,,,,,
79343,1560692607432,2,2.36,2.31,3.32,2.44,5.07,0.51,-0.32,0.7,12,5,14,0.6,9023,52,86,33,61,1187,657.0,620,462,60,118.0,186,1,396,348,122,0,0,679,11566,8958,657,45.701122,4.91013,61.78,198.8,0,0.0,0,0.0,0.1217,1,0.1,1.3224
79363,1560692607452,2,2.36,2.31,3.34,2.42,5.04,0.52,-0.42,0.73,12,1,16,0.67,9066,51,86,33,60,1175,665.0,617,461,60,117.0,186,1,399,341,122,0,0,672,-8429,-3038,665,,,,,,,,,,,,
79383,1560692607472,3,2.35,2.3,3.34,2.42,5.04,0.6,-0.41,0.72,12,7,16,0.73,9132,50,86,33,60,1162,664.0,622,447,60,117.0,186,1,400,334,122,0,0,668,24583,-2345,664,,,,,,,,,,,,
79403,1560692607492,4,2.35,2.3,3.35,2.43,5.07,0.7,-0.56,0.85,12,3,16,0.9,9209,50,86,33,58,1148,666.0,627,456,60,118.0,174,1,401,329,116,0,0,678,-30207,-3038,666,,,,,,,,,,,,
79423,1560692607509,2,2.35,2.31,3.34,2.44,5.04,0.81,-0.7,0.93,11,4,16,1.07,9282,50,86,33,57,1133,670.0,625,456,60,117.0,174,1,402,324,116,0,0,676,-3488,-10344,670,,,,,,,,,,,,
79443,1560692607529,4,2.34,2.31,3.34,2.43,5.06,0.81,-0.69,0.96,11,1,15,1.06,9272,50,86,32,57,1117,671.0,626,465,60,117.0,174,1,402,324,116,0,0,683,-2830,6208,671,45.701122,4.910152,63.23,198.9,0,0.0,0,0.0,0.1233,1,0.11,1.324
79463,1560692607549,-1,2.36,2.3,3.31,2.43,5.08,0.65,-0.6,0.91,12,2,14,0.88,9272,49,86,32,56,1103,672.0,628,452,60,117.0,174,1,401,318,116,0,0,675,-2826,16599,675,,,,,,,,,,,,
79483,1560692607569,3,2.34,2.3,3.32,2.42,5.06,0.56,-0.4,0.8,12,2,14,0.69,9268,47,86,32,55,1101,677.0,633,449,60,117.0,174,1,400,312,116,0,0,688,-3038,-10399,677,,,,,,,,,,,,
79503,1560692607591,3,2.33,2.3,3.34,2.43,5.04,0.63,-0.32,0.78,11,3,14,0.7,9286,45,86,32,54,1095,678.0,627,460,60,117.0,161,1,400,308,109,0,0,685,-2826,-10448,678,,,,,,,,,,,,
79523,1560692607611,3,2.33,2.3,3.33,2.42,5.06,0.77,-0.42,0.81,10,1,14,0.88,9337,45,86,32,53,1076,678.0,622,454,60,117.0,161,1,396,299,109,0,0,687,-3578,24845,678,,,,,,,,,,,,
79543,1560692607631,2,2.32,2.3,3.32,2.39,5.04,0.78,-0.56,0.92,10,-1,13,0.96,9337,45,86,32,52,1057,681.0,626,457,60,117.0,161,1,393,289,109,0,0,685,8958,1780,682,45.701126,4.910174,64.26,198.9,0,0.0,0,0.0,0.125,1,0.11,1.3257
79563,1560692607651,1,2.31,2.31,3.3,2.39,5.08,0.6,-0.54,0.95,10,1,12,0.81,9342,44,86,32,51,1039,680.0,626,450,60,118.0,161,1,389,278,109,0,0,690,-3038,-2830,680,,,,,,,,,,,,
79583,1560692607671,3,2.3,2.34,3.3,2.39,5.07,0.49,-0.36,0.9,10,-0,12,0.61,9333,42,86,32,50,1021,684.0,630,449,60,117.0,161,1,386,268,109,0,0,691,8958,11576,684,,,,,,,,,,,,
79603,1560692607693,3,2.28,2.34,3.3,2.38,5.06,0.63,-0.29,0.88,9,2,12,0.69,9333,39,86,32,49,996,685.0,625,458,60,117.0,138,1,383,257,94,0,0,693,-2826,-10448,682,,,,,,,,,,,,
79623,1560692607713,4,2.27,2.34,3.27,2.37,5.03,0.71,-0.46,0.92,7,-2,12,0.84,9342,34,86,32,46,970,683.0,631,459,60,117.0,138,1,369,236,94,0,0,689,-2345,-3584,683,,,,,,,,,,,,
79643,1560692607733,5,2.27,2.34,3.25,2.36,5.03,0.68,-0.44,0.89,6,1,10,0.81,9365,28,86,32,43,962,684.0,631,451,60,117.0,138,1,348,225,94,0,0,692,-10344,-3584,683,45.701126,4.910198,65.31,198.9,0,0.0,0,0.0,0.1267,1,0.11,1.3274
79663,1560692607753,-1,2.26,2.34,3.25,2.34,5.04,0.52,-0.2,0.8,6,-1,11,0.56,9328,24,86,32,39,954,683.0,632,450,60,117.0,138,1,320,214,94,0,0,695,-26562,1780,683,,,,,,,,,,,,
79683,1560692607773,2,2.24,2.35,3.25,2.32,5.07,0.6,-0.07,0.75,5,2,11,0.6,9254,22,86,32,36,936,687.0,629,451,60,117.0,138,1,311,205,94,0,0,685,6208,24,685,,,,,,,,,,,,
79703,1560692607791,3,2.23,2.35,3.25,2.29,5.04,0.74,-0.06,0.79,3,-2,11,0.74,9155,21,86,32,33,918,686.0,628,458,60,117.0,102,1,302,194,70,0,0,689,16599,6208,685,,,,,,,,,,,,
79723,1560692607811,2,2.22,2.34,3.22,2.21,5.05,0.85,-0.21,0.79,2,-2,9,0.88,9057,21,85,32,31,908,689.0,626,455,60,117.0,102,1,295,188,70,0,0,685,16599,-26562,680,,,,,,,,,,,,
79743,1560692607831,-0,2.23,2.34,3.23,2.15,5.07,0.97,-0.33,0.89,0,-4,8,1.02,8898,20,85,32,30,899,690.0,623,455,60,117.0,102,1,291,188,70,0,0,683,-2830,-26562,679,45.70113,4.910222,66.41,198.9,0,0.0,0,0.0,0.1283,1,0.11,1.3291
79763,1560692607851,-0,2.22,2.36,3.21,2.12,5.07,1.05,-0.33,0.96,-1,-3,7,1.1,8700,20,85,32,29,880,688.0,618,456,60,117.0,102,1,287,188,70,0,0,693,24,16118,679,,,,,,,,,,,,
79783,1560692607871,4,2.21,2.37,3.19,2.09,5.04,1.07,-0.09,0.77,-2,-5,5,1.07,8488,20,85,32,30,860,690.0,618,449,60,117.0,102,1,290,187,70,0,0,689,-2830,-2345,679,,,,,,,,,,,,
79803,1560692607891,2,2.21,2.37,3.14,2.06,5.04,1.11,-0.05,0.72,-3,-1,4,1.11,8344,20,85,32,29,848,691.0,606,453,60,118.0,85,1,285,180,58,0,0,686,-2830,-26380,679,,,,,,,,,,,,
79823,1560692607911,1,2.2,2.38,3.13,2.02,5.04,1.12,-0.01,0.72,-4,-4,2,1.12,8314,19,85,32,30,838,688.0,611,452,60,118.0,85,1,288,179,58,0,0,673,24,-2830,672,,,,,,,,,,,,
79843,1560692607931,1,2.21,2.37,3.15,1.98,5.06,1.15,0.02,0.61,-5,-4,1,1.15,8381,19,85,32,30,825,685.0,617,460,60,117.0,85,1,289,182,58,0,0,665,-10399,-3488,669,45.70113,4.910246,66.41,198.9,0,0.0,0,0.0,0.13,1,0.11,1.3307
79863,1560692607951,1,2.21,2.37,3.17,1.96,5.06,1.12,0.02,0.65,-6,-4,0,1.12,8480,19,85,32,30,812,682.0,617,455,60,118.0,85,1,290,186,58,0,0,662,3543,31988,668,,,,,,,,,,,,
79883,1560692607971,2,2.2,2.37,3.21,1.92,5.05,1.13,0.15,0.55,-7,-5,-0,1.14,8491,19,85,32,30,807,681.0,616,447,60,117.0,85,1,290,187,58,0,0,655,-2345,244,665,,,,,,,,,,,,
79903,1560692607991,1,2.2,2.37,3.2,1.89,5.05,1.13,0.2,0.56,-7,-3,-3,1.14,8503,19,85,32,31,804,676.0,616,455,60,117.0,88,1,295,188,59,0,0,659,-26562,-2580,658,,,,,,,,,,,,
79923,1560692608005,3,2.2,2.38,3.21,1.89,5.04,1.15,0.1,0.65,-8,-4,-5,1.15,8561,19,85,32,30,815,673.0,618,456,60,118.0,88,1,291,188,59,0,0,663,-26380,771,659,,,,,,,,,,,,
79943,1560692608025,1,2.2,2.37,3.2,1.88,5.07,1.15,0.13,0.64,-9,-3,-6,1.16,8612,19,85,32,30,832,673.0,626,462,60,118.0,88,1,291,188,59,0,0,653,-26380,-2580,654,45.701134,4.91027,65.71,198.9,0,0.0,0,0.0,0.1317,1,0.12,1.3324
79963,1560692608045,4,2.2,2.37,3.2,1.86,5.05,1.09,0.32,0.49,-9,-3,-7,1.13,8656,19,85,32,30,850,671.0,622,455,60,117.0,88,1,291,188,59,0,0,651,-388,16599,653,,,,,,,,,,,,
79983,1560692608065,2,2.19,2.38,3.18,1.86,5.06,1.08,0.27,0.48,-9,-2,-10,1.11,8729,19,85,32,30,869,669.0,625,455,60,117.0,88,1,291,188,59,0,0,655,-2830,966,650,,,,,,,,,,,,
80003,1560692608091,2,2.2,2.37,3.17,1.83,5.06,1.1,0.15,0.59,-10,-3,-10,1.11,8765,19,85,32,30,898,665.0,618,457,60,118.0,95,1,291,188,62,0,0,648,-2830,-2836,648,,,,,,,,,,,,
80023,1560692608111,-1,2.2,2.38,3.16,1.83,5.04,1.2,0.11,0.59,-10,-4,-10,1.2,8798,19,85,32,30,930,664.0,622,453,60,118.0,95,1,291,188,62,0,0,652,-2345,-2580,645,,,,,,,,,,,,
80043,1560692608131,1,2.19,2.37,3.12,1.82,5.02,1.2,0.2,0.64,-10,-2,-10,1.21,8778,19,85,32,29,952,660.0,618,459,60,118.0,95,1,287,188,62,0,0,648,-10344,-16046,643,45.701134,4.910293,64.37,198.9,0,0.0,0,0.0,0.1333,1,0.12,1.334
80063,1560692608151,4,2.2,2.38,3.15,1.81,5.08,1.17,0.39,0.48,-11,-4,-10,1.23,8749,19,85,32,30,963,658.0,625,455,60,118.0,95,1,291,188,62,0,0,651,-3038,3,641,,,,,,,,,,,,
80083,1560692608171,4,2.2,2.37,3.14,1.79,5.06,1.05,0.55,0.38,-11,2,-10,1.18,8700,19,85,32,29,974,659.0,625,452,60,117.0,95,1,287,188,62,0,0,646,-26380,-2580,638,,,,,,,,,,,,
80103,1560692608191,2,2.2,2.38,3.15,1.8,5.04,1.06,0.4,0.36,-11,-1,-12,1.13,8624,19,85,32,29,983,653.0,620,459,60,118.0,95,1,287,188,61,0,0,652,-3488,-16046,636,,,,,,,,,,,,
80123,1560692608211,1,2.19,2.39,3.14,1.8,5.05,1.12,0.32,0.4,-11,1,-12,1.17,8600,19,85,32,29,987,654.0,627,453,60,118.0,95,1,287,188,61,0,0,639,-2830,19320,636,,,,,,,,,,,,
80143,1560692608231,5,2.19,2.38,3.14,1.8,5.08,1.08,0.49,0.45,-12,-2,-13,1.19,8600,19,85,32,28,985,650.0,630,451,60,118.0,95,1,282,188,61,0,0,640,-6006,269,634,45.701138,4.910316,63.04,198.9,0,0.0,0,0.0,0.135,1,0.12,1.3357
80163,1560692608251,4,2.18,2.39,3.12,1.79,5.06,1.06,0.53,0.32,-12,-2,-14,1.18,8612,19,85,32,28,980,650.0,628,448,60,117.0,95,1,282,188,61,0,0,648,-6006,3403,631,,,,,,,,,,,,
80183,1560692608271,3,2.18,2.39,3.1,1.8,5.06,1.05,0.49,0.38,-12,-2,-14,1.16,8676,19,85,32,27,972,650.0,621,443,60,117.0,95,1,278,188,61,0,0,640,-6006,-16883,628,,,,,,,,,,,,
80203,1560692608291,1,2.18,2.4,3.1,1.8,5.04,1.15,0.39,0.51,-12,-4,-14,1.21,8656,19,85,32,26,965,647.0,620,450,60,118.0,96,1,274,188,61,0,0,648,-8429,17336,627,,,,,,,,,,,,
80223,1560692608311,1,2.18,2.4,3.1,1.81,5.04,1.18,0.44,0.55,-13,-3,-13,1.26,8612,19,85,32,26,959,646.0,618,439,60,117.0,96,1,274,188,61,0,0,639,4909,966,627,,,,,,,,,,,,
80243,1560692608331,1,2.19,2.39,3.1,1.8,5.06,1.09,0.6,0.43,-13,-3,-14,1.24,8557,19,85,32,26,948,646.0,613,444,60,117.0,96,1,274,188,61,0,0,642,4909,506,625,45.701141,4.910338,61.93,199.0,0,0.0,0,0.0,0.1367,1,0.12,1.3374
80263,1560692608351,2,2.19,2.41,3.09,1.8,5.07,1.09,0.61,0.5,-13,-1,-13,1.25,8468,19,85,32,26,928,641.0,608,426,60,117.0,96,1,274,186,61,0,0,637,-3584,30721,623,,,,,,,,,,,,
80283,1560692608371,0,2.18,2.44,3.09,1.81,5.04,1.12,0.62,0.58,-13,-4,-14,1.28,8457,19,85,32,26,910,642.0,625,410,60,118.0,96,1,274,185,61,0,0,638,-2830,3403,622,,,,,,,,,,,,
80303,1560692608391,2,2.19,2.44,3.09,1.81,5.04,1.08,0.68,0.44,-13,-0,-15,1.27,8461,19,85,32,26,896,638.0,619,440,60,117.0,96,1,274,185,60,0,0,634,16599,17740,618,,,,,,,,,,,,
80323,1560692608411,-0,2.2,2.44,3.1,1.8,5.07,0.99,0.65,0.55,-13,-3,-15,1.18,8468,19,85,32,26,881,637.0,614,448,60,118.0,96,1,274,186,60,0,0,630,-10251,-3446,620,,,,,,,,,,,,
80343,1560692608431,5,2.2,2.42,3.1,1.78,5.07,1.04,0.72,0.48,-13,-2,-15,1.26,8445,19,85,32,26,863,637.0,616,447,60,118.0,96,1,274,184,60,0,0,634,-10251,26688,618,45.701141,4.91036,61.04,199.0,0,0.0,0,0.0,0.1383,1,0.12,1.3391
80363,1560692608451,4,2.21,2.42,3.1,1.79,5.04,1.01,0.66,0.42,-13,0,-16,1.21,8434,19,85,32,26,847,638.0,611,444,60,117.0,96,1,274,182,60,0,0,630,-10251,-23055,616,,,,,,,,,,,,
80383,1560692608471,0,2.2,2.43,3.1,1.82,5.05,0.95,0.59,0.54,-12,-2,-16,1.12,8378,19,85,32,26,842,632.0,612,436,60,118.0,96,1,273,180,60,0,0,631,-5120,-3820,615,,,,,,,,,,,,
80403,1560692608493,3,2.21,2.44,3.09,1.83,5.05,1.03,0.67,0.41,-12,-2,-16,1.23,8366,19,85,32,26,838,631.0,615,441,60,117.0,91,1,273,182,56,0,0,624,771,17740,613,,,,,,,,,,,,
80423,1560692608513,2,2.21,2.43,3.1,1.8,5.07,0.97,0.61,0.47,-12,-1,-16,1.15,8393,19,85,32,26,833,630.0,615,443,60,118.0,91,1,273,181,56,0,0,625,966,243,614,,,,,,,,,,,,
80443,1560692608533,4,2.21,2.42,3.09,1.81,5.08,0.99,0.69,0.45,-11,-3,-16,1.21,8374,19,85,32,26,829,630.0,600,448,60,118.0,91,1,273,180,56,0,0,626,966,-3446,614,45.701145,4.910381,60.42,199.0,0,0.0,0,0.0,0.14,1,0.12,1.3407
80463,1560692608553,1,2.21,2.4,3.11,1.8,5.07,0.99,0.66,0.46,-11,1,-15,1.19,8318,19,85,32,26,829,627.0,602,444,60,117.0,91,1,273,178,56,0,0,620,20993,-7939,613,,,,,,,,,,,,
80483,1560692608573,-1,2.2,2.41,3.14,1.81,5.08,0.99,0.76,0.5,-12,-2,-14,1.25,8296,19,85,32,26,829,625.0,612,447,60,117.0,91,1,273,176,56,0,0,619,-1346,-30139,611,,,,,,,,,,,,
80503,1560692608592,3,2.19,2.41,3.11,1.81,5.05,1.06,0.69,0.39,-12,-0,-14,1.26,8285,19,85,32,27,832,625.0,605,451,60,117.0,91,1,277,178,56,0,0,620,-16883,-768,607,,,,,,,,,,,,
80523,1560692608612,0,2.18,2.42,3.1,1.82,5.07,1.0,0.69,0.47,-11,-2,-13,1.21,8300,19,85,32,26,833,622.0,597,448,60,118.0,91,1,273,178,56,0,0,619,17336,3472,605,,,,,,,,,,,,
80543,1560692608632,4,2.17,2.46,3.11,1.83,5.05,1.05,0.66,0.3,-11,-2,-15,1.24,8238,19,85,32,27,835,621.0,595,446,60,117.0,91,1,277,174,56,0,0,622,-18357,5344,603,45.701153,4.910402,59.66,199.0,0,0.0,0,0.0,0.1417,1,0.13,1.3424
80563,1560692608652,0,2.16,2.46,3.11,1.82,5.06,1.0,0.68,0.39,-11,-0,-15,1.2,8234,19,85,32,27,837,620.0,606,451,60,118.0,91,1,276,174,56,0,0,611,19320,-13043,601,,,,,,,,,,,,
80583,1560692608672,2,2.15,2.47,3.11,1.81,5.05,1.0,0.7,0.36,-12,-4,-16,1.22,8227,19,85,32,27,840,621.0,600,450,60,118.0,91,1,276,172,56,0,0,619,269,23619,599,,,,,,,,,,,,
80603,1560692608692,-0,2.16,2.46,3.11,1.79,5.08,0.97,0.77,0.38,-13,-3,-16,1.24,8194,19,85,32,27,843,620.0,611,451,60,118.0,90,1,276,171,54,0,0,613,-18357,-1894,599,,,,,,,,,,,,
80623,1560692608712,0,2.16,2.47,3.13,1.76,5.06,0.97,0.84,0.37,-13,-1,-17,1.28,8145,19,85,32,27,844,623.0,597,447,60,118.0,90,1,276,170,54,0,0,617,3395,15649,591,,,,,,,,,,,,
80643,1560692608732,3,2.16,2.48,3.13,1.73,5.07,0.91,0.95,0.29,-14,-1,-18,1.31,8134,19,85,32,27,845,619.0,611,452,60,118.0,90,1,276,169,54,0,0,617,30721,-1894,595,45.701157,4.910422,59.03,199.0,0,0.0,0,0.0,0.1433,1,0.13,1.344
80663,1560692608752,1,2.16,2.47,3.13,1.72,5.08,1.02,0.85,0.32,-15,-1,-20,1.33,8127,19,85,32,27,849,621.0,597,452,60,118.0,90,1,276,168,54,0,0,610,-18357,-3210,593,,,,,,,,,,,,
80683,1560692608772,2,2.17,2.49,3.1,1.74,5.04,1.01,0.92,0.33,-16,-1,-20,1.36,8145,19,85,32,27,853,621.0,592,447,60,117.0,90,1,276,169,54,0,0,613,-18357,-16384,589,,,,,,,,,,,,
80703,1560692608792,-0,2.15,2.49,3.06,1.73,5.06,1.07,0.77,0.42,-17,-2,-21,1.31,8113,19,85,32,27,856,618.0,596,448,60,118.0,86,1,276,167,51,0,0,611,3403,-25872,588,,,,,,,,,,,,
80723,1560692608812,2,2.18,2.5,3.01,1.73,5.04,1.09,0.83,0.4,-17,-2,-22,1.37,8102,19,85,32,28,859,613.0,595,454,60,117.0,86,1,279,168,51,0,0,612,-28304,259,585,,,,,,,,,,,,
80743,1560692608832,4,2.17,2.49,2.99,1.74,5.07,0.99,0.89,0.4,-16,-2,-21,1.33,8102,19,85,32,28,862,611.0,593,453,60,117.0,86,1,279,168,51,0,0,607,-28304,2048,586,45.70116,4.910442,58.35,199.0,0,0.0,0,0.0,0.145,1,0.13,1.3457
80763,1560692608852,-0,2.19,2.49,2.99,1.74,5.05,1.1,0.75,0.39,-16,-2,-22,1.33,8074,19,85,32,28,864,608.0,590,447,60,117.0,86,1,279,166,51,0,0,601,-30139,10432,585,,,,,,,,,,,,
80783,1560692608872,4,2.19,2.47,3.0,1.74,5.03,0.96,0.77,0.46,-16,-1,-22,1.23,8047,19,85,32,28,865,609.0,594,457,60,117.0,86,1,278,164,51,0,0,609,-30139,10432,586,,,,,,,,,,,,
80803,1560692608892,0,2.21,2.47,3.0,1.74,5.06,0.96,0.72,0.45,-15,-3,-22,1.2,8047,19,85,32,28,865,606.0,589,452,60,118.0,85,1,278,164,50,0,0,602,-23055,-25872,584,,,,,,,,,,,,
80823,1560692608910,2,2.21,2.47,3.04,1.73,5.06,1.05,0.62,0.41,-15,-3,-22,1.22,8026,19,85,32,28,864,606.0,590,450,60,117.0,85,1,278,163,50,0,0,602,-7939,243,584,,,,,,,,,,,,
80843,1560692608930,3,2.22,2.46,3.09,1.75,5.04,0.86,0.73,0.43,-13,-1,-21,1.13,7948,19,85,32,28,864,605.0,595,455,60,117.0,85,1,278,163,50,0,0,598,-3820,10432,583,45.701164,4.910461,57.58,198.9,0,0.0,0,0.0,0.1467,1,0.13,1.3474
80863,1560692608950,-1,2.22,2.46,3.11,1.77,5.04,0.84,0.63,0.39,-13,-0,-20,1.05,7985,19,85,32,29,865,598.0,590,452,60,118.0,85,1,281,164,50,0,0,594,4956,-16384,584,,,,,,,,,,,,
80883,1560692608970,1,2.23,2.46,3.11,1.82,5.08,0.94,0.45,0.35,-13,-1,-21,1.04,7948,19,85,32,29,865,599.0,590,451,60,117.0,85,1,281,163,50,0,0,591,23619,-4035,583,,,,,,,,,,,,
80903,1560692608990,4,2.21,2.47,3.11,1.85,5.04,0.89,0.56,0.34,-11,-1,-19,1.05,7958,19,85,32,29,866,596.0,591,451,60,117.0,84,1,281,164,49,0,0,592,17344,-3210,583,,,,,,,,,,,,
80923,1560692609004,0,2.22,2.49,3.12,1.87,5.04,0.78,0.56,0.31,-10,-3,-18,0.97,7961,19,85,32,29,868,592.0,587,453,60,117.0,84,1,281,164,49,0,0,595,-28648,774,584,,,,,,,,,,,,
80943,1560692609024,0,2.21,2.48,3.12,1.87,5.05,0.91,0.42,0.32,-10,-5,-19,1.0,7931,19,85,32,29,869,592.0,582,452,60,117.0,84,1,281,164,49,0,0,588,-28648,774,578,45.701172,4.91048,56.85,198.9,0,0.0,0,0.0,0.1483,1,0.13,1.3491
80963,1560692609044,1,2.21,2.47,3.14,1.86,5.04,0.96,0.48,0.38,-10,-3,-18,1.07,7874,19,85,32,29,871,592.0,587,455,60,117.0,84,1,280,164,49,0,0,586,6273,1760,578,,,,,,,,,,,,
80983,1560692609064,4,2.2,2.45,3.18,1.82,5.05,0.89,0.56,0.36,-10,-5,-16,1.05,7901,19,85,32,29,874,594.0,577,455,60,118.0,84,1,281,166,49,0,0,590,17344,259,578,,,,,,,,,,,,
81003,1560692609092,0,2.21,2.43,3.18,1.8,5.07,0.95,0.48,0.34,-10,-4,-16,1.06,7838,19,85,32,30,878,594.0,580,453,60,118.0,84,1,283,166,49,0,0,583,-13043,774,577,,,,,,,,,,,,
81023,1560692609112,-0,2.21,2.44,3.19,1.8,5.04,1.05,0.36,0.47,-11,-4,-17,1.11,7874,19,85,32,30,883,594.0,577,453,60,118.0,84,1,283,166,49,0,0,591,-28648,1267,576,,,,,,,,,,,,
81043,1560692609132,2,2.2,2.44,3.18,1.8,5.05,1.03,0.4,0.56,-11,-3,-18,1.1,7881,19,85,32,30,886,594.0,573,454,60,117.0,84,1,283,166,49,0,0,587,-13043,-8188,575,45.70118,4.910498,56.75,198.9,0,0.0,0,0.0,0.15,1,0.13,1.3507
81063,1560692609152,3,2.19,2.43,3.16,1.81,5.08,0.93,0.53,0.51,-10,-2,-18,1.07,7841,19,85,32,30,889,590.0,579,452,60,118.0,84,1,283,166,49,0,0,583,2048,-29984,572,,,,,,,,,,,,
81083,1560692609172,-0,2.2,2.44,3.09,1.82,5.08,0.94,0.45,0.43,-10,-1,-17,1.04,7898,19,85,33,30,892,589.0,578,456,60,118.0,84,1,283,166,49,0,0,585,2048,-3190,569,,,,,,,,,,,,
81103,1560692609192,-0,2.19,2.44,3.05,1.82,5.06,1.01,0.43,0.49,-10,-1,-17,1.1,7851,19,85,33,30,895,587.0,578,451,60,118.0,86,1,283,166,49,0,0,582,-12040,1267,570,,,,,,,,,,,,
81123,1560692609212,1,2.19,2.44,3.07,1.78,5.06,1.0,0.51,0.54,-11,-2,-17,1.13,7861,19,85,33,30,894,586.0,580,452,60,118.0,86,1,283,166,49,0,0,585,-1894,2216,569,,,,,,,,,,,,
81143,1560692609232,3,2.18,2.44,3.06,1.78,5.07,0.89,0.64,0.47,-10,-0,-17,1.09,7825,19,85,33,30,894,587.0,578,452,60,117.0,86,1,283,167,49,0,0,590,-12040,-29984,566,45.701187,4.910515,56.04,198.8,0,0.0,0,0.0,0.1517,1,0.14,1.3524
81163,1560692609252,3,2.18,2.45,3.07,1.79,5.04,0.76,0.65,0.42,-10,1,-18,1.0,7760,19,85,33,30,897,586.0,577,452,60,118.0,86,1,283,167,49,0,0,578,-1894,-3190,565,,,,,,,,,,,,
81183,1560692609272,0,2.17,2.44,3.08,1.79,5.08,0.79,0.57,0.42,-11,-2,-19,0.98,7770,19,85,33,30,900,584.0,571,457,60,118.0,86,1,283,167,49,0,0,581,-12040,-23623,564,,,,,,,,,,,,
81203,1560692609292,1,2.18,2.45,3.08,1.79,5.05,0.91,0.45,0.42,-11,-2,-20,1.02,7722,19,85,33,31,904,588.0,562,451,60,118.0,87,1,286,167,49,0,0,581,-12040,-22359,562,,,,,,,,,,,,
81223,1560692609312,2,2.17,2.45,3.09,1.77,5.07,1.02,0.5,0.58,-12,-1,-21,1.14,7747,19,85,33,31,907,586.0,563,452,60,117.0,87,1,286,167,49,0,0,581,-1894,2216,565,,,,,,,,,,,,
81243,1560692609332,4,2.18,2.44,3.09,1.77,5.05,0.93,0.6,0.59,-12,-1,-21,1.11,7738,19,85,33,31,910,582.0,564,454,60,117.0,87,1,286,167,49,0,0,584,8488,-32504,559,45.701195,4.910532,55.76,198.8,0,0.0,0,0.0,0.1533,1,0.14,1.3541
81263,1560692609352,3,2.17,2.45,3.08,1.78,5.04,0.84,0.74,0.49,-13,-1,-20,1.12,7722,19,85,33,31,913,585.0,571,453,60,117.0,87,1,286,167,49,0,0,583,-25872,-22263,561,,,,,,,,,,,,
81283,1560692609372,5,2.17,2.44,3.07,1.77,5.07,0.8,0.75,0.37,-13,1,-20,1.1,7722,19,85,33,31,913,582.0,561,453,60,118.0,87,1,286,167,49,0,0,583,8488,-22263,559,,,,,,,,,,,,
81303,1560692609392,-1,2.16,2.44,3.02,1.77,5.07,0.78,0.69,0.41,-13,3,-21,1.04,7697,19,85,33,31,914,582.0,558,452,60,118.0,86,1,286,167,48,0,0,575,8488,-28648,557,,,,,,,,,,,,
81323,1560692609410,-2,2.18,2.44,3.01,1.77,5.05,0.88,0.58,0.46,-13,1,-22,1.05,7706,19,85,33,32,915,580.0,558,453,60,118.0,86,1,290,167,48,0,0,578,-16384,6274,558,,,,,,,,,,,,
81343,1560692609430,1,2.16,2.45,3.0,1.77,5.05,0.99,0.5,0.53,-14,-1,-22,1.11,7665,19,85,33,32,917,576.0,560,452,60,118.0,86,1,290,169,48,0,0,582,1,2524,556,45.701202,4.91055,54.39,198.7,0,0.0,0,0.0,0.155,1,0.14,1.3557
81363,1560692609450,3,2.17,2.44,3.0,1.78,5.03,1.06,0.5,0.67,-14,-1,-22,1.18,7697,19,85,33,32,919,577.0,570,454,60,117.0,86,1,290,167,48,0,0,576,30208,-28648,554,,,,,,,,,,,,
81383,1560692609470,2,2.17,2.45,3.01,1.78,5.07,1.03,0.57,0.73,-15,-1,-22,1.18,7625,19,85,33,32,921,575.0,561,449,60,117.0,86,1,290,169,48,0,0,575,259,6274,554,,,,,,,,,,,,
81403,1560692609492,5,2.17,2.44,3.02,1.79,5.08,0.97,0.71,0.62,-15,-1,-21,1.2,7594,19,85,33,32,928,574.0,568,453,60,117.0,86,1,290,169,48,0,0,569,774,2104,552,,,,,,,,,,,,
81423,1560692609512,6,2.17,2.44,3.03,1.78,5.07,0.95,0.77,0.56,-14,0,-20,1.22,7572,19,85,33,32,935,572.0,561,453,60,117.0,86,1,290,169,48,0,0,568,-8188,2104,550,,,,,,,,,,,,
81443,1560692609532,4,2.18,2.44,3.07,1.79,5.05,0.84,0.87,0.44,-14,1,-20,1.21,7521,19,85,33,32,940,569.0,558,455,60,117.0,86,1,290,169,48,0,0,570,-29984,6274,549,45.70121,4.910565,54.22,198.7,0,0.0,0,0.0,0.1567,1,0.14,1.3574
81463,1560692609552,6,2.18,2.44,3.08,1.78,5.04,0.81,0.97,0.34,-14,1,-20,1.26,7524,19,85,33,32,945,568.0,555,457,60,117.0,86,1,290,169,48,0,0,560,-8186,-2934,547,,,,,,,,,,,,
81483,1560692609572,7,2.19,2.43,3.1,1.78,5.04,0.78,1.03,0.2,-14,1,-20,1.29,7446,19,85,33,32,951,566.0,552,453,60,117.0,86,1,290,169,48,0,0,566,-2934,-2934,545,,,,,,,,,,,,
81503,1560692609591,7,2.19,2.42,3.11,1.77,5.05,0.75,1.08,0.1,-14,3,-19,1.31,7452,19,85,33,33,956,565.0,550,453,60,117.0,86,1,292,174,47,0,0,562,-30159,1780,541,,,,,,,,,,,,
81523,1560692609611,7,2.2,2.41,3.11,1.78,5.07,0.76,1.14,0.02,-13,4,-19,1.37,7411,19,85,33,33,959,562.0,552,453,60,117.0,86,1,292,174,47,0,0,556,-28648,-8186,543,,,,,,,,,,,,
81543,1560692609631,8,2.21,2.39,3.11,1.77,5.06,0.75,1.18,-0.04,-13,4,-19,1.4,7405,19,85,33,33,960,559.0,544,450,60,118.0,86,1,292,174,47,0,0,554,2216,2524,540,45.701218,4.91058,53.76,198.7,0,0.0,0,0.0,0.1583,1,0.14,1.3591
81563,1560692609651,6,2.22,2.37,3.11,1.77,5.05,0.8,1.17,-0.03,-13,5,-18,1.42,7396,19,85,33,33,965,555.0,550,453,60,117.0,86,1,292,174,47,0,0,550,-22263,-30064,539,,,,,,,,,,,,
81583,1560692609671,6,2.22,2.35,3.1,1.77,5.06,0.86,1.09,0.05,-13,4,-18,1.38,7344,19,85,33,33,972,549.0,543,452,60,117.0,86,1,292,174,47,0,0,549,2104,-32248,536,,,,,,,,,,,,
81603,1560692609691,8,2.21,2.35,3.11,1.79,5.04,0.97,0.94,0.16,-14,3,-19,1.36,7321,19,85,33,33,978,546.0,548,452,60,118.0,89,1,292,174,48,0,0,543,2524,-9072,531,,,,,,,,,,,,
81623,1560692609711,7,2.21,2.34,3.11,1.78,5.05,1.02,0.79,0.29,-14,2,-17,1.29,7231,19,85,33,34,984,544.0,546,455,60,119.0,89,1,295,179,48,0,0,538,1779,-22519,531,,,,,,,,,,,,
81643,1560692609731,7,2.21,2.32,3.13,1.78,5.05,1.07,0.65,0.31,-13,1,-16,1.25,7091,19,85,33,34,995,540.0,542,457,60,119.0,89,1,295,179,48,0,0,535,-8186,1248,526,45.701225,4.910594,53.67,198.7,0,0.0,0,0.0,0.16,1,0.14,1.3607
81663,1560692609751,10,2.2,2.31,3.13,1.79,5.04,1.0,0.79,0.19,-12,3,-15,1.27,6962,19,85,33,34,1008,534.0,532,452,60,118.0,89,1,295,179,48,0,0,531,-32248,-21872,524,,,,,,,,,,,,
81683,1560692609771,8,2.2,2.3,3.14,1.78,5.05,1.05,0.75,0.31,-12,2,-16,1.29,6843,19,85,33,34,1017,532.0,524,453,60,118.0,89,1,295,179,48,0,0,518,14504,-3856,519,,,,,,,,,,,,
81703,1560692609791,10,2.19,2.3,3.18,1.78,5.04,1.08,0.66,0.17,-12,1,-15,1.27,6830,19,85,33,35,1024,526.0,521,455,60,118.0,92,1,298,185,48,0,0,514,-32248,771,513,,,,,,,,,,,,
81723,1560692609811,8,2.2,2.27,3.23,1.76,5.05,1.09,0.71,0.18,-12,1,-16,1.3,6798,19,85,33,36,1033,525.0,519,457,60,118.0,92,1,301,298,48,0,0,514,2088,-6441,508,,,,,,,,,,,,
81743,1560692609831,14,2.19,2.26,3.23,1.75,5.06,1.07,0.57,0.19,-12,0,-16,1.21,6727,19,85,33,36,1040,522.0,519,456,60,115.0,92,1,301,275,48,0,0,502,2524,32033,504,45.701237,4.910608,52.46,198.7,0,0.0,0,0.0,0.1617,1,0.14,1.3624
81763,1560692609851,9,2.2,2.26,3.28,1.76,5.05,1.07,0.63,0.1,-12,-0,-17,1.24,6776,19,85,33,37,1044,516.0,502,451,60,117.0,92,1,304,253,48,0,0,500,16383,10305,500,,,,,,,,,,,,
81783,1560692609871,14,2.19,2.25,3.26,1.75,5.05,1.12,0.51,0.09,-12,-1,-17,1.24,6885,19,85,33,37,1044,513.0,514,451,60,115.0,92,1,304,241,48,0,0,508,26178,248,492,,,,,,,,,,,,
81803,1560692609891,9,2.19,2.27,3.27,1.76,5.04,1.04,0.64,-0.04,-12,2,-17,1.23,6888,19,85,33,37,1067,508.0,522,453,60,117.0,123,1,304,216,61,0,0,501,-3414,-899,491,,,,,,,,,,,,
81823,1560692609911,13,2.19,2.27,3.27,1.77,5.04,1.09,0.65,0.09,-12,-1,-17,1.27,6850,19,85,33,38,1113,504.0,515,455,60,116.0,123,1,307,202,61,0,0,504,-32248,-10483,486,,,,,,,,,,,,
81843,1560692609931,10,2.2,2.27,3.25,1.77,5.08,0.96,0.66,-0.02,-11,0,-16,1.17,6863,19,85,33,38,1156,501.0,513,455,60,116.0,123,1,307,202,61,0,0,498,11560,-899,481,45.701244,4.91062,51.05,198.7,0,0.0,0,0.0,0.1633,1,0.15,1.3641
81863,1560692609951,11,2.19,2.26,3.24,1.75,5.04,1.07,0.65,0.02,-12,-3,-17,1.25,6962,19,85,33,38,1201,498.0,508,455,60,118.0,123,1,307,202,61,0,0,469,998,2524,481,,,,,,,,,,,,
81883,1560692609971,14,2.19,2.24,3.27,1.73,5.05,1.16,0.48,0.17,-11,-4,-16,1.26,7134,19,85,33,38,1259,489.0,521,453,60,117.0,123,1,307,202,61,0,0,445,-6656,-9166,475,,,,,,,,,,,,
81903,1560692609991,13,2.2,2.22,3.3,1.72,5.04,1.16,0.36,0.09,-10,-4,-15,1.22,7408,19,85,33,37,1332,486.0,544,455,60,117.0,115,1,304,196,55,0,0,431,-1562,2524,471,,,,,,,,,,,,
81923,1560692610005,13,2.2,2.18,3.34,1.71,5.03,1.15,0.4,0.01,-10,-1,-16,1.22,7621,19,85,33,37,1393,478.0,553,454,60,117.0,115,1,304,197,55,0,0,383,16648,6384,462,,,,,,,,,,,,
81943,1560692610025,14,2.19,2.18,3.34,1.71,5.03,1.16,0.31,-0.04,-10,0,-16,1.2,7735,19,85,33,36,1421,476.0,563,455,60,117.0,115,1,301,191,55,0,0,393,-17956,-21944,460,45.701256,4.910632,49.43,198.7,0,0.0,0,0.0,0.165,1,0.15,1.3657
81963,1560692610045,14,2.19,2.18,3.33,1.72,5.04,1.24,0.15,0.04,-10,0,-16,1.25,7738,19,85,33,35,1425,473.0,572,452,60,118.0,115,1,298,191,55,0,0,438,3576,3826,450,,,,,,,,,,,,
81983,1560692610065,8,2.19,2.19,3.31,1.7,5.06,1.31,0.1,0.17,-11,1,-17,1.32,7878,19,85,33,35,1396,463.0,576,455,60,118.0,115,1,298,185,55,0,0,448,6193,-9166,445,,,,,,,,,,,,
82003,1560692610093,12,2.19,2.18,3.31,1.71,5.03,1.23,0.26,0.19,-11,-1,-17,1.26,7992,19,85,33,35,1360,459.0,580,451,60,117.0,123,1,298,185,55,0,0,433,-18108,-9211,441,,,,,,,,,,,,
82023,1560692610113,15,2.18,2.19,3.32,1.69,5.04,1.13,0.27,0.16,-10,0,-17,1.16,8088,19,85,33,33,1302,453.0,593,458,60,118.0,123,1,293,177,55,0,0,433,-8985,6384,437,,,,,,,,,,,,
82043,1560692610133,11,2.19,2.18,3.31,1.69,5.08,1.17,0.26,0.14,-10,-1,-18,1.2,8116,19,85,33,33,1240,451.0,593,456,60,117.0,123,1,294,178,55,0,0,443,3571,10392,432,45.701263,4.910643,47.37,198.7,0,0.0,0,0.0,0.1667,1,0.15,1.3674
82063,1560692610153,11,2.19,2.2,3.3,1.68,5.05,1.14,0.33,0.06,-10,-0,-17,1.19,8081,19,85,33,32,1161,445.0,593,454,60,117.0,123,1,291,170,55,0,0,440,10305,-3414,427,,,,,,,,,,,,
82083,1560692610173,11,2.18,2.23,3.27,1.7,5.04,1.13,0.32,0.04,-10,1,-17,1.17,8005,19,85,33,31,1093,441.0,582,453,60,118.0,123,1,287,167,55,0,0,438,26704,7154,421,,,,,,,,,,,,
82103,1560692610191,11,2.18,2.22,3.26,1.69,5.07,1.15,0.39,0.05,-10,1,-18,1.21,8009,19,85,33,31,1072,438.0,585,457,60,117.0,121,1,287,167,51,0,0,432,19477,-9166,418,,,,,,,,,,,,
82123,1560692610211,13,2.18,2.22,3.26,1.69,5.04,1.05,0.47,-0.01,-10,1,-17,1.15,7938,19,85,33,31,1050,435.0,587,455,60,117.0,121,1,287,167,51,0,0,430,-7939,13040,415,,,,,,,,,,,,
82143,1560692610231,14,2.17,2.23,3.27,1.69,5.04,1.04,0.4,-0.01,-9,3,-17,1.12,7891,19,85,33,31,1029,430.0,593,456,60,117.0,121,1,286,167,51,0,0,423,-3314,11560,412,45.701275,4.910653,45.05,198.7,0,0.0,0,0.0,0.1683,1,0.15,1.3691
82163,1560692610251,9,2.18,2.23,3.28,1.7,5.04,1.12,0.3,0.13,-9,2,-17,1.16,7861,19,85,33,31,1007,427.0,581,455,60,118.0,121,1,286,167,51,0,0,420,31796,2524,409,,,,,,,,,,,,
82183,1560692610271,10,2.18,2.22,3.29,1.68,5.04,1.11,0.31,0.2,-10,1,-18,1.16,7793,19,85,33,31,1005,424.0,582,456,60,117.0,121,1,286,167,51,0,0,419,-4082,6512,406,,,,,,,,,,,,
82203,1560692610291,10,2.17,2.23,3.29,1.69,5.04,0.99,0.45,0.12,-10,1,-19,1.09,7735,19,85,33,31,1004,422.0,589,458,60,117.0,120,1,286,167,49,0,0,413,-3414,11545,402,,,,,,,,,,,,
82223,1560692610311,11,2.18,2.23,3.3,1.69,5.04,0.97,0.47,0.07,-10,0,-18,1.07,7706,19,85,33,31,1014,420.0,575,453,60,117.0,120,1,286,167,49,0,0,411,-8165,-3968,399,,,,,,,,,,,,
82243,1560692610331,12,2.18,2.23,3.31,1.69,5.07,1.04,0.38,0.01,-10,1,-18,1.11,7625,19,85,33,31,1024,416.0,580,454,60,118.0,120,1,286,169,49,0,0,411,18584,1,397,45.701279,4.910662,42.89,198.7,0,0.0,0,0.0,0.17,1,0.15,1.3707
82263,1560692610351,14,2.17,2.23,3.3,1.69,5.07,1.14,0.28,0.09,-10,1,-19,1.17,7606,19,85,33,31,1036,413.0,571,457,60,118.0,120,1,286,169,49,0,0,408,-4059,-31744,393,,,,,,,,,,,,
82283,1560692610371,14,2.17,2.23,3.3,1.68,5.05,1.13,0.15,0.18,-9,2,-19,1.14,7515,19,85,33,32,1048,408.0,570,456,60,118.0,120,1,290,169,49,0,0,405,10392,-1562,391,,,,,,,,,,,,
82303,1560692610391,15,2.17,2.23,3.3,1.69,5.06,1.17,0.02,0.25,-9,1,-19,1.17,7482,19,85,33,32,1063,403.0,558,459,60,118.0,123,1,290,169,48,0,0,399,-8151,-6475,385,,,,,,,,,,,,
82323,1560692610411,14,2.17,2.23,3.29,1.69,5.08,1.22,-0.09,0.36,-9,0,-18,1.22,7390,19,85,33,32,1078,401.0,557,453,60,118.0,123,1,290,174,48,0,0,397,11545,-18948,384,,,,,,,,,,,,
82343,1560692610431,15,2.17,2.23,3.29,1.69,5.07,1.25,-0.12,0.42,-9,1,-19,1.26,7370,19,85,33,33,1085,397.0,544,456,60,117.0,123,1,292,174,48,0,0,389,-3968,-6656,379,45.70129,4.91067,41.19,198.7,0,0.0,0,0.0,0.1717,1,0.15,1.3724
82363,1560692610451,12,2.18,2.22,3.29,1.69,5.06,1.17,-0.12,0.35,-8,1,-21,1.18,7298,19,85,33,33,1089,394.0,550,456,60,117.0,123,1,292,174,48,0,0,391,-1818,-6656,376,,,,,,,,,,,,
82383,1560692610471,13,2.17,2.21,3.3,1.69,5.04,1.12,-0.02,0.24,-9,2,-22,1.12,7253,19,85,33,33,1086,391.0,536,457,60,117.0,123,1,292,174,48,0,0,387,505,-6656,372,,,,,,,,,,,,
82403,1560692610491,11,2.17,2.22,3.28,1.69,5.04,1.08,0.18,0.21,-10,3,-23,1.1,7192,19,85,33,34,1083,387.0,536,454,60,118.0,126,1,295,179,47,0,0,383,240,230,369,,,,,,,,,,,,
82423,1560692610511,13,2.16,2.22,3.28,1.69,5.07,1.14,0.21,0.36,-10,-1,-23,1.16,7113,19,85,33,34,1077,382.0,536,455,60,119.0,126,1,295,179,47,0,0,378,19125,0,362,,,,,,,,,,,,
82443,1560692610531,14,2.17,2.22,3.28,1.7,5.06,1.23,0.1,0.38,-10,-1,-22,1.23,7054,19,85,33,35,1070,378.0,530,457,60,117.0,126,1,298,185,47,0,0,373,2278,-29978,362,45.701302,4.910677,39.55,198.7,0,0.0,0,0.0,0.1733,1,0.15,1.3741
82463,1560692610551,14,2.16,2.21,3.29,1.7,5.03,1.11,0.12,0.16,-10,-1,-22,1.12,6959,19,85,33,35,1061,375.0,528,457,60,117.0,126,1,298,185,47,0,0,370,770,-29978,355,,,,,,,,,,,,
82483,1560692610571,16,2.16,2.22,3.29,1.72,5.04,1.11,0.29,0.27,-10,-0,-24,1.15,6818,19,85,33,36,1052,370.0,514,451,60,118.0,126,1,301,190,47,0,0,369,486,-14707,354,,,,,,,,,,,,
82503,1560692610591,13,2.16,2.22,3.3,1.73,5.06,1.12,0.23,0.23,-10,-2,-21,1.15,6703,19,85,33,36,1046,367.0,503,456,60,117.0,138,1,301,190,49,0,0,363,0,-6640,349,,,,,,,,,,,,
82523,1560692610610,15,2.17,2.22,3.3,1.74,5.04,1.06,0.24,0.19,-10,-2,-22,1.09,6602,19,85,33,37,1044,363.0,503,457,60,118.0,138,1,304,196,49,0,0,363,-1268,28553,347,,,,,,,,,,,,
82543,1560692610630,10,2.17,2.22,3.29,1.71,5.05,1.06,0.27,0.14,-10,-1,-21,1.09,6535,19,85,33,38,1046,362.0,500,451,60,118.0,138,1,307,202,49,0,0,359,2790,-10554,346,45.701305,4.910684,37.79,198.7,0,0.0,0,0.0,0.175,1,0.15,1.3757
82563,1560692610650,11,2.19,2.21,3.3,1.71,5.05,1.15,0.2,0.28,-10,-0,-21,1.17,6416,19,85,33,39,1050,359.0,502,455,60,117.0,138,1,310,208,49,0,0,357,-29302,-31206,343,,,,,,,,,,,,
82583,1560692610670,15,2.19,2.2,3.31,1.71,5.05,1.1,0.21,0.24,-10,-3,-22,1.12,6375,19,85,33,39,1056,355.0,493,458,60,118.0,138,1,310,208,49,0,0,350,2060,3327,341,,,,,,,,,,,,
82603,1560692610692,16,2.2,2.18,3.31,1.71,5.03,1.03,0.29,0.16,-9,-3,-20,1.07,6330,19,85,33,40,1063,351.0,486,457,60,118.0,147,1,316,209,50,0,0,345,28553,-122,336,,,,,,,,,,,,
82623,1560692610712,8,2.23,2.19,3.34,1.72,5.07,1.06,0.22,0.14,-9,-1,-20,1.08,6289,19,85,33,41,1070,346.0,471,456,60,118.0,147,1,323,210,50,0,0,342,-30438,4838,334,,,,,,,,,,,,
82643,1560692610732,11,2.24,2.18,3.36,1.71,5.07,1.16,0.16,0.17,-10,-1,-20,1.17,6277,19,85,33,41,1078,343.0,468,453,60,118.0,147,1,323,210,50,0,0,338,-14714,170,334,45.701317,4.91069,36.26,198.6,0,0.0,0,0.0,0.1767,1,0.16,1.3774
82663,1560692610752,9,2.28,2.17,3.38,1.71,5.06,1.17,0.1,0.29,-10,-3,-21,1.17,6254,19,85,33,42,1083,340.0,471,453,60,117.0,147,1,329,212,50,0,0,334,3327,-32559,331,,,,,,,,,,,,
82683,1560692610772,9,2.3,2.17,3.38,1.75,5.04,1.1,0.1,0.29,-8,-3,-20,1.1,6237,19,85,33,42,1086,335.0,468,453,60,117.0,147,1,329,212,50,0,0,327,3346,170,330,,,,,,,,,,,,
82703,1560692610792,11,2.31,2.17,3.39,1.79,5.04,1.02,0.13,0.27,-6,-2,-18,1.03,6188,19,85,33,43,1083,333.0,466,453,60,118.0,148,1,335,213,49,0,0,326,175,170,332,,,,,,,,,,,,
82723,1560692610810,11,2.33,2.16,3.39,1.84,5.04,0.96,0.12,0.21,-5,1,-15,0.97,6149,19,85,33,43,1076,330.0,462,457,60,118.0,148,1,335,213,49,0,0,328,170,-32559,330,,,,,,,,,,,,
82743,1560692610830,8,2.36,2.15,3.38,1.87,5.07,0.96,0.07,0.14,-3,3,-12,0.96,6087,19,85,33,44,1068,330.0,459,458,60,118.0,148,1,341,213,49,0,0,323,160,175,330,45.701321,4.910695,34.55,198.6,0,0.0,0,0.0,0.1783,1,0.16,1.3791
82763,1560692610850,4,2.39,2.15,3.39,1.92,5.06,0.97,0.02,0.06,-2,6,-9,0.97,6064,19,85,33,44,1060,330.0,458,457,60,118.0,148,1,341,214,49,0,0,321,155,175,330,,,,,,,,,,,,
82783,1560692610870,6,2.41,2.13,3.39,1.97,5.04,1.0,-0.03,0.04,-0,6,-6,1.0,6019,19,85,33,44,1048,330.0,455,453,60,119.0,148,1,341,214,49,0,0,317,-28416,165,330,,,,,,,,,,,,
82803,1560692610890,5,2.44,2.11,3.4,2.03,5.08,1.01,-0.09,0.03,1,7,-3,1.02,5986,19,85,33,45,1034,331.0,455,453,60,119.0,145,1,346,215,48,0,0,313,130,-23296,331,,,,,,,,,,,,
82823,1560692610909,7,2.47,2.09,3.42,2.04,5.07,1.03,-0.14,-0.01,3,8,-0,1.04,5969,19,85,33,45,1021,331.0,452,454,60,118.0,145,1,345,215,48,0,0,311,-32256,-22016,331,,,,,,,,,,,,
82843,1560692610929,7,2.5,2.07,3.42,2.07,5.04,1.03,-0.19,-0.04,5,10,2,1.05,5942,19,85,33,46,1016,330.0,450,455,60,119.0,145,1,350,216,48,0,0,307,29440,-22016,330,45.701332,4.9107,33.01,198.6,0,0.0,0,0.0,0.18,1,0.16,1.3807
82863,1560692610949,7,2.5,2.04,3.46,2.07,5.06,1.0,-0.21,-0.06,7,11,5,1.03,5899,19,85,33,46,1010,332.0,445,457,60,118.0,145,1,348,216,48,0,0,302,29440,-20736,332,,,,,,,,,,,,
82883,1560692610969,7,2.52,2.01,3.49,2.1,5.04,0.91,-0.19,-0.04,10,11,7,0.93,5866,19,85,33,47,1004,330.0,445,458,60,119.0,145,1,352,218,48,0,0,298,105,-23296,331,,,,,,,,,,,,
82903,1560692610989,3,2.55,2.01,3.5,2.15,5.06,0.81,-0.18,-0.01,13,10,9,0.83,5830,19,85,33,48,999,331.0,436,453,60,118.0,145,1,352,223,48,0,0,297,100,-24576,331,,,,,,,,,,,,
82923,1560692611006,3,2.57,2.01,3.5,2.17,5.08,0.75,-0.21,0.11,16,9,10,0.78,5799,19,85,33,48,999,331.0,430,458,60,117.0,145,1,350,223,48,0,0,296,95,-22016,331,,,,,,,,,,,,
82943,1560692611026,0,2.59,2.01,3.51,2.2,5.06,0.77,-0.27,0.16,19,6,11,0.81,5737,19,85,33,49,998,331.0,426,454,60,117.0,145,1,349,227,48,0,0,294,23040,165,331,45.70134,4.910705,31.74,198.5,0,0.0,0,0.0,0.1817,1,0.16,1.3824
82963,1560692611046,2,2.6,2.01,3.53,2.22,5.05,0.89,-0.39,0.2,19,3,14,0.97,5730,19,85,33,49,997,331.0,427,457,60,117.0,145,1,349,227,48,0,0,291,20480,-23296,331,,,,,,,,,,,,
82983,1560692611066,1,2.63,2.0,3.55,2.25,5.04,1.0,-0.52,0.22,18,3,16,1.13,5700,19,85,33,50,995,331.0,427,450,60,119.0,145,1,349,232,48,0,0,284,0,-22016,331,,,,,,,,,,,,
83003,1560692611092,6,2.65,1.98,3.6,2.27,5.08,0.9,-0.61,0.16,19,5,18,1.09,5666,19,85,33,51,995,330.0,431,457,60,118.0,151,1,349,236,50,0,0,284,10686,-24576,330,,,,,,,,,,,,
83023,1560692611112,2,2.66,1.96,3.6,2.27,5.05,0.63,-0.62,0.12,23,7,20,0.88,5639,19,85,33,51,996,330.0,427,453,60,117.0,151,1,346,236,50,0,0,283,41,-22016,330,,,,,,,,,,,,
83043,1560692611132,2,2.66,1.95,3.6,2.29,5.04,0.63,-0.62,0.23,26,3,22,0.89,5615,19,85,33,52,994,330.0,427,458,60,117.0,151,1,346,240,50,0,0,280,250,155,330,45.701344,4.910711,30.36,198.5,0,0.0,0,0.0,0.1833,1,0.16,1.384
83063,1560692611152,3,2.68,1.94,3.6,2.29,5.04,0.77,-0.72,0.29,25,-1,24,1.06,5592,19,85,33,53,992,328.0,420,452,60,119.0,151,1,346,240,50,0,0,276,1886,150,329,,,,,,,,,,,,
83083,1560692611172,5,2.68,1.94,3.62,2.28,5.08,0.81,-0.77,0.31,24,1,26,1.12,5537,19,85,33,53,990,327.0,416,447,60,119.0,151,1,342,243,50,0,0,271,-1534,145,327,,,,,,,,,,,,
83103,1560692611192,2,2.68,1.93,3.61,2.29,5.03,0.66,-0.81,0.24,28,1,28,1.05,5492,19,85,34,54,990,328.0,410,457,60,117.0,155,1,340,247,51,0,0,270,630,150,327,,,,,,,,,,,,
83123,1560692611212,3,2.67,1.94,3.62,2.3,5.06,0.77,-0.79,0.26,29,-2,29,1.11,5425,19,85,34,55,979,327.0,407,458,60,118.0,155,1,334,248,51,0,0,268,250,145,327,,,,,,,,,,,,
83143,1560692611232,4,2.68,1.93,3.62,2.29,5.04,0.76,-0.79,0.29,29,-0,31,1.09,5380,19,85,34,56,968,325.0,404,454,60,118.0,155,1,330,249,51,0,0,266,2414,-29696,324,45.701351,4.910717,29.55,198.5,0,0.0,0,0.0,0.185,1,0.16,1.3857
83163,1560692611252,3,2.67,1.93,3.61,2.28,5.04,0.72,-0.79,0.29,32,-1,32,1.06,5395,19,85,34,56,959,323.0,403,455,60,118.0,155,1,331,249,51,0,0,264,28160,-29696,323,,,,,,,,,,,,
83183,1560692611272,6,2.66,1.92,3.61,2.29,5.08,0.85,-0.78,0.24,30,-2,33,1.15,5377,19,85,34,57,950,320.0,405,451,60,118.0,155,1,330,251,51,0,0,259,-1281,130,320,,,,,,,,,,,,
83203,1560692611292,4,2.64,1.92,3.6,2.3,5.04,0.72,-0.83,0.26,32,-1,35,1.1,5337,19,85,34,58,936,318.0,397,466,60,118.0,158,1,325,254,51,0,0,258,-1,120,318,,,,,,,,,,,,
83223,1560692611312,7,2.62,1.92,3.61,2.27,5.06,0.85,-0.76,0.3,31,-4,38,1.14,5331,19,85,34,58,919,316.0,396,448,60,118.0,158,1,325,254,51,0,0,260,-1,115,316,,,,,,,,,,,,
83243,1560692611332,3,2.59,1.92,3.58,2.26,5.08,0.65,-0.77,0.26,31,-1,38,1.01,5271,19,85,34,59,912,312.0,402,457,60,116.0,158,1,320,257,51,0,0,260,-1,115,312,45.701359,4.910723,29.06,198.5,0,0.0,0,0.0,0.1867,1,0.16,1.3874
83263,1560692611352,8,2.54,1.94,3.55,2.26,5.05,0.79,-0.75,0.27,31,-5,40,1.09,5280,19,85,34,59,906,310.0,392,455,60,118.0,158,1,320,257,51,0,0,261,-1,105,310,,,,,,,,,,,,
83283,1560692611372,3,2.51,1.96,3.53,2.23,5.06,0.66,-0.8,0.29,30,-0,40,1.04,5240,19,85,34,60,896,306.0,387,456,60,116.0,158,1,317,260,51,0,0,262,-1,24320,304,,,,,,,,,,,,
83303,1560692611392,8,2.45,2.0,3.49,2.22,5.05,0.79,-0.66,0.3,29,-5,40,1.03,5185,19,85,34,60,886,298.0,380,455,60,119.0,167,1,312,261,51,0,0,263,-1,95,298,,,,,,,,,,,,
83323,1560692611412,5,2.4,2.04,3.44,2.2,5.04,0.66,-0.66,0.32,28,-0,39,0.93,5161,19,85,34,60,881,293.0,387,456,60,117.0,167,1,310,261,51,0,0,265,-1,20480,293,,,,,,,,,,,,
83343,1560692611432,8,2.35,2.08,3.37,2.16,5.04,0.79,-0.56,0.3,25,-5,37,0.97,5162,19,85,34,60,877,288.0,374,450,60,118.0,167,1,310,261,51,0,0,265,-1,-16896,288,45.701359,4.91073,28.07,198.5,0,0.0,0,0.0,0.1883,1,0.16,1.389
83363,1560692611452,6,2.29,2.12,3.31,2.11,5.04,0.66,-0.45,0.23,24,-1,36,0.8,5146,18,85,34,61,876,283.0,375,461,60,117.0,167,1,308,266,51,0,0,269,-1,24064,280,,,,,,,,,,,,
83383,1560692611472,6,2.24,2.15,3.26,2.06,5.05,0.8,-0.44,0.32,19,-4,33,0.91,5085,18,85,34,61,876,278.0,380,446,60,117.0,167,1,303,267,51,0,0,271,-1281,2414,276,,,,,,,,,,,,
83403,1560692611492,5,2.18,2.18,3.24,2.0,5.05,0.75,-0.38,0.29,19,-5,29,0.84,5099,18,85,34,61,879,273.0,375,458,60,118.0,184,1,304,267,51,0,0,273,28160,-1,271,,,,,,,,,,,,
83423,1560692611512,4,2.11,2.21,3.21,1.98,5.06,0.76,-0.36,0.31,14,-1,25,0.84,5038,18,85,34,62,884,274.0,369,462,60,117.0,184,1,298,275,51,0,0,273,2414,-1281,266,,,,,,,,,,,,
83443,1560692611532,8,2.05,2.26,3.18,1.94,5.07,0.88,-0.21,0.28,11,-6,23,0.91,4988,18,85,34,62,891,275.0,369,450,60,119.0,184,1,294,274,51,0,0,275,-1527,-1,262,45.701363,4.910738,27.73,198.5,0,0.0,0,0.0,0.19,1,0.16,1.3907
83463,1560692611552,6,1.99,2.32,3.16,1.91,5.05,0.74,-0.12,0.27,9,-3,20,0.75,4988,18,85,34,62,900,276.0,370,456,60,118.0,184,1,294,274,51,0,0,274,250,-41,258,,,,,,,,,,,,
83483,1560692611572,4,1.93,2.38,3.12,1.89,5.05,0.73,-0.07,0.28,4,-1,16,0.74,4970,18,85,34,62,907,278.0,371,460,60,117.0,184,1,294,280,51,0,0,274,30208,-41,251,,,,,,,,,,,,
83503,1560692611591,6,1.86,2.4,3.11,1.88,5.07,0.86,-0.01,0.24,1,-5,12,0.86,4942,18,85,34,62,912,277.0,375,453,60,118.0,207,1,294,280,52,0,0,276,630,-1281,246,,,,,,,,,,,,
83523,1560692611611,11,1.8,2.41,3.12,1.85,5.05,0.8,0.07,0.23,0,-5,7,0.81,4968,18,85,34,63,918,277.0,367,461,60,118.0,207,1,293,280,52,0,0,274,30208,250,241,,,,,,,,,,,,
83543,1560692611631,7,1.74,2.41,3.12,1.84,5.05,0.71,0.09,0.25,-4,-1,2,0.72,4882,18,85,34,63,928,276.0,362,461,60,117.0,207,1,293,279,52,0,0,276,250,250,238,45.701366,4.910746,26.83,198.6,0,0.0,0,0.0,0.1917,1,0.16,1.3924
83563,1560692611651,7,1.69,2.41,3.13,1.81,5.07,0.84,0.14,0.28,-8,-3,-3,0.85,4868,18,85,34,63,934,276.0,366,454,60,117.0,207,1,293,279,52,0,0,274,250,16896,232,,,,,,,,,,,,
83583,1560692611671,7,1.64,2.41,3.13,1.79,5.05,0.94,0.26,0.27,-10,-5,-7,0.97,4826,18,85,34,63,938,275.0,364,450,60,117.0,207,1,293,279,52,0,0,273,-1527,10812,228,,,,,,,,,,,,
83603,1560692611692,12,1.57,2.41,3.12,1.77,5.04,0.84,0.29,0.17,-11,-3,-12,0.89,4844,17,85,34,64,942,272.0,363,458,60,118.0,228,1,292,286,52,0,0,274,250,8704,220,,,,,,,,,,,,
83623,1560692611712,6,1.52,2.39,3.11,1.75,5.06,0.79,0.34,0.16,-15,-2,-16,0.86,4799,17,85,34,64,947,269.0,361,471,60,118.0,228,1,291,285,52,0,0,273,-1,8704,219,,,,,,,,,,,,
83643,1560692611732,6,1.48,2.38,3.1,1.73,5.05,0.85,0.35,0.23,-19,-1,-20,0.92,4705,17,85,34,64,949,268.0,353,457,60,117.0,228,1,292,284,52,0,0,270,-1,-1494,213,45.701374,4.910752,25.85,198.7,0,0.0,0,0.0,0.1933,1,0.16,1.394
83663,1560692611752,6,1.48,2.37,3.1,1.71,5.05,0.97,0.43,0.29,-22,-2,-24,1.06,4606,17,85,34,64,949,262.0,356,455,60,116.0,228,1,293,284,52,0,0,268,-1,-25600,208,,,,,,,,,,,,
83683,1560692611772,8,1.48,2.37,3.09,1.7,5.05,0.97,0.49,0.29,-23,-5,-27,1.09,4559,17,85,34,64,947,262.0,342,458,60,116.0,228,1,293,282,52,0,0,263,-1,-1483,207,,,,,,,,,,,,
83703,1560692611791,9,1.48,2.37,3.11,1.7,5.07,1.07,0.55,0.26,-25,-6,-32,1.2,4586,17,85,34,64,944,260.0,347,450,60,116.0,231,1,292,282,48,0,0,262,-1,-1494,208,,,,,,,,,,,,
83723,1560692611811,9,1.47,2.38,3.12,1.69,5.05,1.13,0.58,0.24,-26,-7,-36,1.27,4568,17,85,34,64,941,262.0,340,452,60,117.0,231,1,293,282,48,0,0,260,-1,-1496,204,,,,,,,,,,,,
83743,1560692611831,9,1.47,2.38,3.11,1.69,5.05,1.18,0.6,0.17,-27,-8,-40,1.32,4543,17,85,34,64,938,260.0,341,458,60,117.0,231,1,293,282,48,0,0,254,-10440,1596,200,45.701378,4.910758,24.1,198.7,0,0.0,0,0.0,0.195,1,0.16,1.3957
83763,1560692611851,10,1.47,2.38,3.12,1.68,5.06,1.2,0.61,0.12,-29,-10,-43,1.35,4495,17,85,34,64,934,258.0,339,456,60,117.0,231,1,293,282,48,0,0,253,-41,18432,200,,,,,,,,,,,,
83783,1560692611871,10,1.47,2.37,3.12,1.68,5.04,1.24,0.63,0.1,-31,-11,-47,1.39,4448,17,85,34,64,927,257.0,338,441,60,117.0,231,1,293,281,48,0,0,250,14337,-1496,198,,,,,,,,,,,,
83803,1560692611891,9,1.48,2.38,3.12,1.66,5.08,1.25,0.62,0.05,-32,-14,-51,1.4,4487,17,85,34,64,920,257.0,336,453,60,117.0,237,1,293,282,47,0,0,250,14337,250,195,,,,,,,,,,,,
83823,1560692611911,8,1.47,2.37,3.12,1.67,5.07,1.28,0.64,0.01,-33,-14,-53,1.43,4450,17,85,34,64,915,253.0,338,451,60,117.0,237,1,293,282,47,0,0,247,-1,-1532,194,,,,,,,,,,,,
83843,1560692611931,9,1.48,2.36,3.12,1.67,5.08,1.28,0.65,-0.01,-35,-16,-55,1.44,4383,17,85,34,64,910,251.0,330,441,60,117.0,237,1,292,280,47,0,0,244,-214,10824,191,45.701382,4.910762,22.93,198.7,0,0.0,0,0.0,0.1967,1,0.17,1.3974
83863,1560692611951,10,1.47,2.36,3.11,1.67,5.03,1.31,0.62,0.01,-36,-15,-57,1.45,4377,17,85,34,64,903,249.0,331,448,60,117.0,237,1,292,280,47,0,0,239,16896,-1494,189,,,,,,,,,,,,
83883,1560692611971,10,1.48,2.36,3.12,1.67,5.04,1.29,0.58,0.11,-37,-16,-59,1.41,4364,17,85,34,64,896,247.0,326,452,60,119.0,237,1,292,280,47,0,0,237,-1494,13602,189,,,,,,,,,,,,
83903,1560692611991,8,1.47,2.36,3.12,1.66,5.04,1.31,0.56,0.14,-39,-15,-61,1.43,4314,17,85,34,64,893,246.0,324,451,60,119.0,245,1,292,280,46,0,0,234,10812,-1530,186,,,,,,,,,,,,
83923,1560692612005,12,1.48,2.35,3.12,1.67,5.04,1.27,0.57,0.16,-40,-12,-63,1.4,4332,17,85,34,64,891,242.0,320,455,60,119.0,245,1,292,285,46,0,0,232,23482,1210,185,,,,,,,,,,,,
83943,1560692612025,11,1.47,2.35,3.12,1.68,5.03,1.25,0.61,0.12,-41,-9,-64,1.39,4264,17,85,34,64,882,241.0,322,446,60,118.0,245,1,293,279,46,0,0,231,-17920,-1532,184,45.701386,4.910766,22.01,198.8,0,0.0,0,0.0,0.1983,1,0.17,1.399
83963,1560692612045,6,1.47,2.36,3.12,1.69,5.04,1.16,0.68,0.09,-41,-6,-65,1.34,4148,17,85,34,64,873,239.0,317,435,60,119.0,245,1,293,278,46,0,0,230,250,-1532,182,,,,,,,,,,,,
83983,1560692612065,3,1.48,2.35,3.11,1.69,5.06,1.16,0.65,0.12,-42,-8,-66,1.33,4176,17,85,34,65,866,239.0,316,420,60,117.0,245,1,293,283,46,0,0,228,-1484,-17920,183,,,,,,,,,,,,
84003,1560692612091,5,1.47,2.36,3.11,1.69,5.06,1.17,0.61,0.15,-42,-8,-67,1.32,4109,17,85,34,65,859,238.0,310,446,60,118.0,241,1,294,283,44,0,0,226,13468,-17920,182,,,,,,,,,,,,
84023,1560692612111,6,1.48,2.36,3.11,1.7,5.04,1.15,0.64,0.18,-43,-7,-67,1.31,4069,17,85,34,65,850,238.0,309,444,60,119.0,241,1,295,278,44,0,0,224,13468,-1530,182,,,,,,,,,,,,
84043,1560692612131,3,1.49,2.36,3.11,1.71,5.04,1.11,0.64,0.18,-43,-5,-67,1.29,4099,17,85,34,65,841,237.0,310,444,60,119.0,241,1,294,278,44,0,0,223,-25600,1088,182,45.701393,4.910768,20.99,198.8,0,0.0,0,0.0,0.2,1,0.17,1.4007
84063,1560692612151,2,1.51,2.36,3.11,1.72,5.04,1.09,0.62,0.19,-43,-6,-66,1.25,4067,17,85,34,65,837,238.0,308,430,60,117.0,241,1,295,282,44,0,0,226,13468,-29696,181,,,,,,,,,,,,
84083,1560692612171,4,1.54,2.35,3.1,1.73,5.07,1.02,0.58,0.25,-43,-6,-65,1.18,4055,17,85,34,65,835,238.0,302,415,60,119.0,241,1,295,282,44,0,0,226,13468,12800,181,,,,,,,,,,,,
84103,1560692612191,1,1.57,2.36,3.1,1.77,5.06,1.0,0.58,0.26,-43,-4,-64,1.16,4001,17,85,34,65,836,237.0,303,442,60,118.0,236,1,295,282,43,0,0,226,-25600,14412,183,,,,,,,,,,,,
84123,1560692612211,-2,1.62,2.37,3.07,1.84,5.04,0.95,0.55,0.33,-43,-4,-64,1.1,3944,17,85,34,65,836,238.0,301,440,60,117.0,236,1,288,280,43,0,0,226,13468,-1480,184,,,,,,,,,,,,
84143,1560692612231,3,1.67,2.38,3.07,1.87,5.07,0.9,0.51,0.37,-43,-4,-63,1.04,3934,17,85,34,65,839,236.0,294,445,60,119.0,236,1,287,278,43,0,0,228,250,-1,186,45.701397,4.910769,20.2,198.8,0,0.0,0,0.0,0.2017,1,0.17,1.4024
84163,1560692612251,0,1.72,2.37,3.08,1.91,5.07,0.87,0.5,0.4,-42,-3,-63,1.0,3902,17,85,34,65,842,239.0,297,445,60,117.0,236,1,283,278,43,0,0,230,-1484,-1,187,,,,,,,,,,,,
84183,1560692612271,-1,1.78,2.38,3.07,1.98,5.06,0.86,0.45,0.47,-41,-3,-62,0.97,3859,17,86,34,65,852,237.0,290,452,60,118.0,236,1,278,275,43,0,0,229,-25600,-1,191,,,,,,,,,,,,
84203,1560692612291,-1,1.85,2.38,3.07,2.02,5.07,0.84,0.43,0.49,-40,-2,-61,0.95,3849,17,86,34,65,865,235.0,292,443,60,119.0,204,1,277,275,39,0,0,229,-1483,250,192,,,,,,,,,,,,
84223,1560692612311,-0,1.92,2.38,3.09,2.08,5.07,0.83,0.35,0.54,-39,-2,-59,0.9,3906,17,86,34,65,876,234.0,291,446,60,117.0,204,1,284,276,39,0,0,228,250,250,196,,,,,,,,,,,,
84243,1560692612331,1,1.99,2.36,3.11,2.1,5.05,0.8,0.31,0.53,-37,-1,-57,0.86,3926,17,86,34,65,886,231.0,292,445,60,119.0,204,1,286,278,39,0,0,226,-1494,250,197,45.701401,4.910769,20.02,198.8,0,0.0,0,0.0,0.2033,1,0.17,1.404
84263,1560692612351,0,2.06,2.34,3.15,2.13,5.04,0.78,0.25,0.58,-35,1,-54,0.82,3927,17,86,34,65,903,228.0,293,445,60,117.0,204,1,286,278,39,0,0,226,250,14412,200,,,,,,,,,,,,
84283,1560692612371,-1,2.12,2.33,3.17,2.14,5.07,0.81,0.19,0.64,-33,-1,-51,0.83,3964,17,86,34,66,924,225.0,292,452,60,119.0,204,1,291,279,39,0,0,224,19968,-1482,202,,,,,,,,,,,,
84303,1560692612391,2,2.17,2.31,3.21,2.16,5.03,0.78,0.15,0.6,-30,0,-48,0.8,4040,17,86,34,66,939,225.0,296,450,60,119.0,204,1,296,282,42,0,0,222,19968,-29696,205,,,,,,,,,,,,
84323,1560692612411,0,2.24,2.3,3.25,2.16,5.06,0.75,0.11,0.61,-28,2,-44,0.76,4030,17,86,34,66,949,221.0,302,451,60,118.0,204,1,296,287,42,0,0,222,15360,-14848,208,,,,,,,,,,,,
84343,1560692612431,-1,2.32,2.28,3.28,2.18,5.07,0.74,0.04,0.63,-25,0,-40,0.74,4054,17,86,34,66,963,219.0,300,447,60,118.0,204,1,295,287,42,0,0,220,-1532,-17920,212,45.701405,4.910769,20.28,198.9,0,0.0,0,0.0,0.205,1,0.17,1.4057
84363,1560692612451,2,2.4,2.25,3.31,2.21,5.06,0.73,-0.0,0.62,-22,0,-35,0.73,4107,18,86,34,66,978,218.0,302,455,60,119.0,204,1,295,288,42,0,0,217,250,-1532,218,,,,,,,,,,,,
84383,1560692612471,1,2.47,2.24,3.33,2.23,5.06,0.71,-0.06,0.64,-19,2,-31,0.71,4073,18,86,34,66,989,220.0,302,448,60,119.0,204,1,295,287,42,0,0,217,-1532,1596,223,,,,,,,,,,,,
84403,1560692612493,0,2.54,2.22,3.36,2.28,5.03,0.7,-0.14,0.64,-15,0,-26,0.72,4129,18,86,34,67,994,224.0,303,447,60,117.0,197,1,296,292,44,0,0,215,-1533,19968,224,,,,,,,,,,,,
84423,1560692612513,0,2.62,2.2,3.4,2.28,5.04,0.7,-0.22,0.68,-12,-1,-22,0.74,4124,18,86,34,67,1000,228.0,306,451,60,117.0,197,1,296,293,44,0,0,213,966,250,228,,,,,,,,,,,,
84443,1560692612533,2,2.69,2.18,3.47,2.3,5.06,0.71,-0.29,0.69,-9,-1,-18,0.77,4115,18,86,34,67,1008,232.0,303,455,60,119.0,197,1,296,293,44,0,0,214,250,10318,232,45.701412,4.910769,21.04,198.9,0,0.0,0,0.0,0.2067,1,0.17,1.4074
84463,1560692612553,-1,2.77,2.17,3.47,2.32,5.06,0.7,-0.33,0.64,-6,-1,-13,0.77,4160,20,86,34,67,1014,233.0,305,447,60,119.0,197,1,295,294,44,0,0,211,13964,18432,233,,,,,,,,,,,,
84483,1560692612573,0,2.81,2.16,3.5,2.31,5.07,0.68,-0.36,0.66,-2,-1,-8,0.77,4187,22,86,34,68,1017,236.0,311,440,60,117.0,197,1,296,300,44,0,0,214,-29696,8704,236,,,,,,,,,,,,
84503,1560692612592,-1,2.86,2.14,3.52,2.33,5.03,0.68,-0.45,0.67,1,-4,-4,0.82,4207,24,86,34,70,1022,237.0,313,450,60,118.0,202,1,295,307,48,0,0,214,13874,8704,237,,,,,,,,,,,,
84523,1560692612612,-1,2.91,2.14,3.53,2.32,5.07,0.7,-0.5,0.64,4,-3,1,0.86,4242,26,86,34,71,1028,240.0,311,456,60,118.0,202,1,295,310,48,0,0,219,12800,250,240,,,,,,,,,,,,
84543,1560692612632,3,0.34,2.14,3.55,2.32,5.04,0.65,-0.52,0.66,7,-3,4,0.83,4255,27,86,34,73,1033,242.0,307,466,60,119.0,202,1,295,317,48,0,0,216,250,-1483,242,45.70142,4.910769,20.89,198.9,0,0.0,0,0.0,0.2083,1,0.17,1.409
84563,1560692612652,2,0.35,2.13,3.55,2.32,5.04,0.67,-0.58,0.61,10,-1,7,0.89,4300,28,86,34,74,1036,245.0,312,461,60,118.0,202,1,294,319,48,0,0,214,250,-1484,245,,,,,,,,,,,,
84583,1560692612672,2,0.38,2.1,3.56,2.31,5.07,0.64,-0.62,0.59,13,-1,11,0.89,4344,30,86,34,74,1039,248.0,317,442,60,118.0,202,1,294,323,48,0,0,224,12800,-17920,248,,,,,,,,,,,,
84603,1560692612692,1,0.37,2.1,3.58,2.32,5.06,0.61,-0.65,0.52,16,-1,15,0.89,4404,31,86,34,76,1040,248.0,318,443,60,117.0,217,1,292,333,54,0,0,232,-1480,23482,250,,,,,,,,,,,,
84623,1560692612712,1,0.38,2.08,3.58,2.32,5.06,0.62,-0.69,0.51,20,-2,19,0.93,4402,33,86,34,77,1041,250.0,323,440,60,117.0,217,1,292,345,54,0,0,243,-1480,250,251,,,,,,,,,,,,
84643,1560692612732,2,0.38,2.06,3.6,2.31,5.05,0.63,-0.7,0.48,22,-4,23,0.95,4591,34,86,34,78,1039,252.0,327,448,60,118.0,217,1,288,366,54,0,0,238,14412,-1445,253,45.70142,4.910769,20.79,198.9,0,0.0,0,0.0,0.21,1,0.17,1.4107
84663,1560692612752,0,0.38,2.05,3.6,2.31,5.06,0.63,-0.77,0.43,25,-4,27,0.99,4657,36,86,34,79,1037,254.0,329,452,60,119.0,217,1,287,381,54,0,0,234,19456,15360,254,,,,,,,,,,,,
84683,1560692612772,2,0.37,2.06,3.61,2.32,5.04,0.6,-0.78,0.42,27,-4,31,0.98,4683,37,86,34,81,1032,255.0,332,455,60,119.0,217,1,287,409,54,0,0,262,14412,10812,255,,,,,,,,,,,,
84703,1560692612792,5,0.37,2.05,3.62,2.32,5.05,0.59,-0.83,0.42,28,-4,34,1.02,4772,37,86,34,82,1028,255.0,337,461,60,119.0,286,1,285,428,73,0,0,263,19456,15360,257,,,,,,,,,,,,
84723,1560692612810,-1,0.38,2.06,3.61,2.34,5.04,0.61,-0.84,0.4,30,-3,36,1.03,4841,38,86,34,83,1025,258.0,340,453,60,117.0,286,1,284,446,73,0,0,252,250,250,258,,,,,,,,,,,,
84743,1560692612830,0,0.37,2.06,3.6,2.35,5.07,0.68,-0.87,0.46,31,-4,39,1.1,4853,38,86,34,83,1023,260.0,347,446,60,117.0,286,1,284,447,73,0,0,244,250,-1,261,45.701427,4.91077,20.61,198.9,0,0.0,0,0.0,0.2117,1,0.17,1.4124
84763,1560692612850,0,0.37,2.07,3.59,2.36,5.05,0.68,-0.88,0.42,34,-4,42,1.11,4826,39,86,34,84,1024,262.0,346,450,60,119.0,286,1,284,449,73,0,0,266,12800,-1,263,,,,,,,,,,,,
84783,1560692612870,5,0.35,2.06,3.58,2.36,5.07,0.59,-0.97,0.45,36,-5,44,1.13,4822,39,86,34,84,1025,264.0,345,448,60,118.0,286,1,284,449,73,0,0,268,13874,506,265,,,,,,,,,,,,
84803,1560692612892,0,0.32,2.08,3.57,2.38,5.05,0.6,-0.96,0.43,37,-1,45,1.13,4813,39,86,34,85,1029,266.0,343,467,60,118.0,309,1,284,452,82,0,0,251,-29696,-10440,266,,,,,,,,,,,,
84823,1560692612912,0,2.93,2.08,3.57,2.39,5.07,0.66,-0.92,0.43,37,-2,48,1.13,4821,39,86,34,85,1033,268.0,342,457,60,118.0,309,1,284,453,82,0,0,253,250,-1,267,,,,,,,,,,,,
84843,1560692612932,0,2.87,2.08,3.56,2.39,5.04,0.67,-0.85,0.44,38,-3,50,1.09,4794,39,86,34,85,1036,269.0,349,443,60,117.0,309,1,285,451,82,0,0,262,-14848,-1,269,45.701435,4.910773,20.52,198.9,0,0.0,0,0.0,0.2133,1,0.17,1.414
84863,1560692612952,3,2.83,2.07,3.53,2.39,5.04,0.65,-0.8,0.45,39,-3,52,1.04,4801,39,86,34,85,1039,270.0,344,447,60,119.0,309,1,284,452,82,0,0,252,16384,-1,270,,,,,,,,,,,,
84883,1560692612972,3,2.77,2.09,3.48,2.39,5.06,0.59,-0.82,0.5,39,-3,53,1.01,4821,39,86,34,85,1038,269.0,343,451,60,119.0,309,1,284,453,82,0,0,241,-1532,-1,269,,,,,,,,,,,,
84903,1560692612992,0,2.71,2.14,3.44,2.38,5.04,0.58,-0.8,0.55,38,-1,52,0.99,4795,39,86,34,86,1036,268.0,345,460,60,119.0,304,1,285,455,82,0,0,244,-1532,-1,268,,,,,,,,,,,,
84923,1560692613006,-1,2.66,2.2,3.39,2.39,5.04,0.7,-0.74,0.63,37,-1,51,1.01,4795,39,86,34,86,1028,268.0,347,465,60,118.0,304,1,285,455,82,0,0,258,250,-1,268,,,,,,,,,,,,
84943,1560692613026,-0,2.59,2.25,3.35,2.37,5.05,0.67,-0.6,0.61,36,-3,50,0.9,4853,40,86,34,85,1019,266.0,352,441,60,118.0,304,1,284,459,82,0,0,262,18432,-1,266,45.701439,4.910777,21.34,198.9,0,0.0,0,0.0,0.215,1,0.17,1.4157
84963,1560692613046,3,2.52,2.34,3.27,2.36,5.04,0.59,-0.52,0.56,35,-2,50,0.78,4876,40,86,34,85,1012,264.0,350,454,60,119.0,304,1,283,456,82,0,0,242,8704,-1,264,,,,,,,,,,,,
84983,1560692613066,0,2.45,2.4,3.19,2.34,5.04,0.6,-0.45,0.65,32,-0,48,0.75,4887,40,86,34,86,1005,263.0,350,455,60,119.0,304,1,283,461,82,0,0,249,-25600,-1,263,,,,,,,,,,,,
85003,1560692613092,0,2.38,2.45,3.13,2.31,5.04,0.67,-0.41,0.72,28,0,45,0.79,4838,41,86,34,86,995,264.0,352,465,60,118.0,321,1,284,458,85,0,0,253,15360,-1,264,,,,,,,,,,,,
85023,1560692613112,0,2.33,2.5,3.09,2.31,5.05,0.72,-0.3,0.73,27,-2,41,0.78,4792,41,86,34,86,983,262.0,356,438,60,117.0,321,1,285,455,85,0,0,257,-214,-1,262,,,,,,,,,,,,
85043,1560692613132,3,2.25,2.5,3.07,2.29,5.06,0.63,-0.21,0.67,25,-2,39,0.67,4807,41,86,34,86,976,262.0,351,445,60,118.0,321,1,284,456,85,0,0,263,-1,-1,262,45.701443,4.910781,22.6,198.9,0,0.0,0,0.0,0.2167,1,0.17,1.4174
85063,1560692613152,5,2.2,2.5,3.05,2.27,5.04,0.59,-0.18,0.63,22,-0,35,0.62,4838,41,86,34,87,971,261.0,346,458,60,119.0,321,1,284,458,85,0,0,266,-41,-1,261,,,,,,,,,,,,
85083,1560692613172,-1,2.16,2.49,3.04,2.24,5.08,0.69,-0.15,0.7,18,-1,31,0.71,4930,42,86,33,87,962,265.0,351,460,60,118.0,321,1,282,468,85,0,0,270,-1,-1,259,,,,,,,,,,,,
85103,1560692613192,-0,2.12,2.5,3.04,2.22,5.07,0.75,-0.11,0.71,14,-2,28,0.76,5053,43,86,33,86,951,270.0,361,448,60,117.0,334,1,283,469,87,0,0,274,-1,-1,259,,,,,,,,,,,,
85123,1560692613212,4,2.09,2.51,3.04,2.18,5.04,0.65,-0.01,0.63,13,-0,24,0.65,5148,46,86,33,87,942,274.0,367,453,60,119.0,334,1,287,470,87,0,0,278,2414,-1,259,,,,,,,,,,,,
85143,1560692613232,-2,2.09,2.53,3.04,2.17,5.06,0.65,-0.05,0.66,9,-0,20,0.65,5274,47,86,33,87,937,278.0,376,459,60,117.0,334,1,293,476,87,0,0,282,-1534,-1527,260,45.701447,4.910786,23.95,198.9,0,0.0,0,0.0,0.2183,1,0.17,1.419
85163,1560692613252,0,2.06,2.54,3.04,2.17,5.02,0.65,0.04,0.7,8,-1,16,0.65,5398,48,86,33,86,929,281.0,382,458,60,118.0,334,1,301,474,87,0,0,283,24064,-1534,261,,,,,,,,,,,,
85183,1560692613272,1,2.08,2.55,3.01,2.19,5.05,0.66,0.04,0.68,5,1,13,0.66,5516,48,86,33,85,921,286.0,392,450,60,118.0,334,1,308,473,87,0,0,290,10686,10686,264,,,,,,,,,,,,
85203,1560692613292,-1,2.08,2.56,2.99,2.18,5.07,0.56,0.05,0.78,4,-0,9,0.56,5620,48,86,33,84,917,287.0,402,450,60,116.0,373,1,317,474,99,0,0,295,41,-16896,267,,,,,,,,,,,,
85223,1560692613312,-1,2.08,2.55,2.99,2.19,5.07,0.55,0.15,0.9,3,-2,6,0.57,5656,48,86,33,83,915,293.0,402,453,60,118.0,373,1,321,469,99,0,0,298,21760,90,274,,,,,,,,,,,,
85243,1560692613332,-2,2.08,2.56,2.99,2.21,5.05,0.63,0.15,0.92,-0,-3,4,0.65,5702,49,86,33,83,913,296.0,410,449,60,119.0,373,1,324,470,99,0,0,306,95,25600,278,45.701454,4.910791,25.35,198.8,0,0.0,0,0.0,0.22,1,0.17,1.4207
85263,1560692613352,2,2.08,2.56,2.98,2.21,5.07,0.65,0.13,0.87,-3,1,2,0.66,5721,49,86,33,83,913,303.0,415,440,60,118.0,373,1,325,470,99,0,0,307,28160,30720,283,,,,,,,,,,,,
85283,1560692613372,3,2.07,2.55,2.98,2.21,5.07,0.61,0.16,0.85,-4,3,-1,0.63,5760,49,86,33,82,915,306.0,418,443,60,118.0,373,1,329,463,99,0,0,312,115,-30976,287,,,,,,,,,,,,
85303,1560692613392,3,2.07,2.55,2.98,2.21,5.03,0.5,0.23,0.92,-3,3,-3,0.55,5821,49,86,33,82,919,313.0,422,441,60,117.0,351,1,332,464,101,0,0,316,-30976,-32256,290,,,,,,,,,,,,
85323,1560692613412,1,2.07,2.55,2.98,2.21,5.03,0.46,0.33,1.02,-4,2,-5,0.57,5911,49,86,33,82,923,316.0,420,448,60,116.0,351,1,338,467,101,0,0,317,140,155,295,,,,,,,,,,,,
85343,1560692613432,3,2.07,2.56,2.97,2.21,5.04,0.44,0.37,1.12,-6,-0,-6,0.58,6027,50,86,33,82,928,320.0,428,451,60,117.0,351,1,344,470,101,0,0,324,150,150,299,45.701458,4.910795,26.89,198.8,0,0.0,0,0.0,0.2217,1,0.17,1.4224
85363,1560692613452,3,2.07,2.57,3.0,2.2,5.07,0.41,0.39,1.19,-7,-2,-7,0.57,6135,51,86,33,82,933,323.0,441,445,60,117.0,351,1,348,472,101,0,0,327,-24576,-20736,301,,,,,,,,,,,,
85383,1560692613472,4,2.06,2.56,2.99,2.2,5.03,0.34,0.49,1.23,-8,-2,-8,0.59,6250,51,86,33,82,936,328.0,448,442,60,118.0,351,1,352,480,101,0,0,332,170,2560,306,,,,,,,,,,,,
85403,1560692613492,5,2.06,2.57,3.0,2.19,5.04,0.33,0.56,1.27,-9,0,-8,0.65,6345,52,86,33,82,933,332.0,454,446,60,118.0,369,1,356,475,113,0,0,337,-32559,-6528,308,,,,,,,,,,,,
85423,1560692613512,-2,2.06,2.57,2.99,2.18,5.06,0.4,0.51,1.23,-10,2,-10,0.64,6401,52,86,33,83,921,337.0,457,447,60,118.0,369,1,357,483,113,0,0,340,2560,3327,312,,,,,,,,,,,,
85443,1560692613532,-0,2.05,2.58,2.98,2.19,5.06,0.52,0.47,1.29,-11,1,-11,0.71,6483,52,86,33,83,908,340.0,464,449,60,117.0,369,1,359,483,113,0,0,344,3327,-30438,317,45.701466,4.9108,28.59,198.8,0,0.0,0,0.0,0.2233,1,0.18,1.424
85463,1560692613552,6,2.03,2.59,2.97,2.18,5.06,0.44,0.56,1.31,-12,-0,-12,0.71,6544,52,86,33,82,896,344.0,470,445,60,119.0,369,1,363,478,113,0,0,351,-10554,-30438,319,,,,,,,,,,,,
85483,1560692613572,-0,2.02,2.6,2.96,2.18,5.05,0.45,0.53,1.28,-13,2,-15,0.69,6588,52,86,33,83,883,350.0,473,450,60,118.0,369,1,363,486,113,0,0,354,-30454,2060,322,,,,,,,,,,,,
85503,1560692613591,3,2.03,2.6,2.95,2.18,5.08,0.54,0.52,1.29,-14,-1,-18,0.75,6632,52,86,33,83,875,354.0,481,448,60,117.0,375,1,365,487,121,0,0,357,2060,230,325,,,,,,,,,,,,
85523,1560692613611,-0,2.03,2.61,2.95,2.17,5.08,0.42,0.61,1.13,-15,-1,-19,0.75,6732,52,86,33,83,868,357.0,482,454,60,118.0,375,1,368,482,121,0,0,361,-6640,-14707,328,,,,,,,,,,,,
85543,1560692613631,4,2.02,2.64,2.96,2.18,5.04,0.53,0.59,1.21,-15,-1,-21,0.79,6845,52,86,33,82,872,362.0,490,449,60,117.0,375,1,373,484,121,0,0,367,2790,-1268,330,45.701473,4.910804,30.9,198.8,0,0.0,0,0.0,0.225,1,0.18,1.4257
85563,1560692613651,1,2.03,2.65,2.95,2.18,5.06,0.43,0.57,1.15,-16,-2,-23,0.71,6916,52,86,33,82,877,364.0,496,455,60,117.0,375,1,376,486,121,0,0,369,-1268,3082,333,,,,,,,,,,,,
85583,1560692613671,4,2.02,2.64,2.95,2.17,5.07,0.52,0.62,1.16,-18,-1,-24,0.81,6934,53,86,33,81,879,369.0,498,448,60,118.0,375,1,376,486,121,0,0,373,-6656,1,335,,,,,,,,,,,,
85603,1560692613691,4,2.02,2.65,2.94,2.16,5.06,0.55,0.53,1.19,-18,-1,-24,0.77,7011,53,86,33,81,881,372.0,505,453,60,117.0,375,1,379,480,126,0,0,373,-6656,770,338,,,,,,,,,,,,
85623,1560692613711,1,2.02,2.65,2.94,2.16,5.04,0.46,0.6,1.09,-18,1,-25,0.75,7086,53,86,33,81,880,375.0,508,449,60,117.0,375,1,384,480,126,0,0,381,3,-6656,342,,,,,,,,,,,,
85643,1560692613731,1,2.02,2.64,2.94,2.16,5.04,0.56,0.59,1.1,-20,-0,-26,0.81,7129,53,86,33,81,877,379.0,514,451,60,118.0,375,1,386,475,126,0,0,381,8200,8200,346,45.701477,4.910809,32.78,198.8,0,0.0,0,0.0,0.2267,1,0.18,1.4274
85663,1560692613751,6,2.02,2.64,2.93,2.15,5.07,0.58,0.53,1.19,-20,-1,-27,0.79,7256,53,86,33,80,855,383.0,520,450,60,118.0,375,1,394,475,126,0,0,384,-19126,-31744,349,,,,,,,,,,,,
85683,1560692613771,2,2.03,2.66,2.94,2.14,5.05,0.48,0.52,1.11,-19,1,-27,0.71,7309,53,86,33,80,833,385.0,521,453,60,117.0,375,1,397,476,126,0,0,389,-6475,17144,350,,,,,,,,,,,,
85703,1560692613791,3,2.02,2.66,2.94,2.16,5.03,0.44,0.51,1.1,-19,2,-28,0.67,7405,53,86,33,79,812,389.0,528,453,60,117.0,371,1,403,469,130,0,0,392,-6524,6512,353,,,,,,,,,,,,
85723,1560692613811,2,2.03,2.66,2.94,2.15,5.08,0.41,0.53,1.08,-19,-0,-28,0.67,7413,54,86,33,78,792,389.0,534,450,60,117.0,371,1,404,461,130,0,0,397,-6524,-32702,355,,,,,,,,,,,,
85743,1560692613831,4,2.03,2.66,2.91,2.15,5.04,0.31,0.55,1.01,-20,1,-28,0.63,7491,54,86,33,78,768,395.0,532,452,60,116.0,371,1,408,461,130,0,0,396,17144,28696,361,45.701488,4.910812,34.34,198.8,0,0.0,0,0.0,0.2283,1,0.18,1.429
85763,1560692613851,2,2.03,2.66,2.9,2.14,5.04,0.32,0.63,1.0,-21,1,-29,0.71,7536,54,86,33,77,745,397.0,533,452,60,116.0,371,1,411,453,130,0,0,401,-3968,10392,364,,,,,,,,,,,,
85783,1560692613871,3,2.04,2.66,2.9,2.13,5.06,0.27,0.64,1.0,-20,1,-28,0.69,7637,54,86,33,77,739,401.0,544,453,60,117.0,371,1,417,462,130,0,0,410,-8151,28696,368,,,,,,,,,,,,
85803,1560692613891,3,2.05,2.66,2.89,2.14,5.07,0.33,0.67,1.05,-20,2,-29,0.75,7684,54,86,33,76,737,405.0,549,453,60,118.0,355,1,419,454,131,0,0,410,-9211,13040,372,,,,,,,,,,,,
85823,1560692613911,1,2.04,2.66,2.9,2.14,5.07,0.38,0.54,1.14,-20,1,-29,0.66,7796,54,86,33,75,731,409.0,555,448,60,118.0,355,1,428,446,131,0,0,415,11560,7154,373,,,,,,,,,,,,
85843,1560692613931,1,2.06,2.65,2.91,2.15,5.03,0.37,0.55,1.22,-21,2,-29,0.66,7835,54,86,33,75,724,411.0,557,448,60,118.0,355,1,430,435,131,0,0,417,-4059,-21792,377,45.7015,4.910815,36.11,198.8,0,0.0,0,0.0,0.23,1,0.18,1.4307
85863,1560692613951,3,2.07,2.66,2.91,2.15,5.07,0.35,0.69,1.15,-21,3,-29,0.77,7982,54,86,33,74,719,416.0,566,450,60,117.0,355,1,439,415,131,0,0,422,18584,-3414,379,,,,,,,,,,,,
85883,1560692613971,4,2.07,2.68,2.91,2.15,5.07,0.32,0.75,1.04,-21,4,-29,0.81,8106,54,86,33,72,715,420.0,573,450,60,118.0,355,1,442,408,131,0,0,423,-8165,3826,383,,,,,,,,,,,,
85903,1560692613991,3,2.07,2.68,2.9,2.15,5.03,0.35,0.72,1.14,-21,4,-29,0.81,8130,54,86,33,70,711,421.0,585,457,60,118.0,315,1,444,398,121,0,0,430,-8165,243,389,,,,,,,,,,,,
85923,1560692614007,4,2.08,2.69,2.89,2.16,5.04,0.33,0.84,1.12,-21,3,-27,0.9,8180,54,86,33,69,706,425.0,592,454,60,116.0,315,1,443,380,121,0,0,438,-3856,21580,393,,,,,,,,,,,,
85943,1560692614027,1,2.1,2.69,2.87,2.17,5.04,0.42,0.79,1.12,-21,3,-27,0.9,8249,54,86,33,68,705,429.0,592,448,60,118.0,315,1,442,373,121,0,0,438,3635,16648,400,45.701504,4.910817,37.95,198.7,0,0.0,0,0.0,0.2317,1,0.18,1.4324
85963,1560692614047,4,2.11,2.68,2.88,2.17,5.07,0.38,0.83,1.16,-21,1,-27,0.91,8296,54,86,33,67,705,433.0,584,455,60,117.0,315,1,442,365,121,0,0,442,-768,21432,404,,,,,,,,,,,,
85983,1560692614067,0,2.12,2.68,2.88,2.17,5.04,0.44,0.7,1.12,-21,2,-27,0.83,8325,54,86,32,66,710,437.0,596,454,60,117.0,315,1,442,361,121,0,0,448,19477,16648,411,,,,,,,,,,,,
86003,1560692614093,6,2.13,2.67,2.89,2.16,5.04,0.37,0.7,1.11,-21,1,-27,0.79,8393,54,86,32,67,717,442.0,598,447,60,117.0,277,1,438,363,114,0,0,455,23400,-26615,417,,,,,,,,,,,,
86023,1560692614113,-0,2.13,2.66,2.89,2.17,5.08,0.38,0.64,0.98,-20,2,-28,0.75,8303,54,86,32,65,726,446.0,600,448,60,119.0,277,1,444,360,114,0,0,452,16648,17628,421,,,,,,,,,,,,
86043,1560692614133,-0,2.15,2.66,2.9,2.18,5.08,0.34,0.71,0.83,-20,1,-26,0.79,7735,54,86,32,66,735,447.0,581,451,60,119.0,277,1,437,342,114,0,0,455,10305,23400,425,45.701519,4.910819,39.89,198.7,0,0.0,0,0.0,0.2333,1,0.18,1.434
86063,1560692614153,-1,2.14,2.65,2.92,2.18,5.07,0.21,0.7,0.68,-19,2,-26,0.73,7413,54,86,32,69,752,447.0,568,453,60,117.0,277,1,414,356,114,0,0,448,15649,3635,426,,,,,,,,,,,,
86083,1560692614173,0,2.15,2.6,3.02,2.17,5.04,0.19,0.79,0.56,-18,1,-25,0.82,7261,54,86,32,72,776,447.0,547,457,60,118.0,277,1,401,391,114,0,0,448,10305,13180,428,,,,,,,,,,,,
86103,1560692614191,-0,2.15,2.54,3.12,2.13,5.04,0.22,0.91,0.46,-18,1,-25,0.94,7118,54,86,32,75,797,448.0,538,453,60,118.0,257,1,389,417,110,0,0,444,8488,31796,428,,,,,,,,,,,,
86123,1560692614211,4,2.15,2.51,3.13,2.1,5.08,0.35,0.79,0.58,-18,-0,-25,0.87,6898,55,86,32,76,814,449.0,525,449,60,118.0,257,1,377,778,110,0,0,454,15649,31796,427,,,,,,,,,,,,
86143,1560692614231,-1,2.16,2.51,3.11,2.08,5.06,0.27,0.75,0.57,-18,-0,-23,0.8,6510,56,86,32,78,869,450.0,499,453,60,117.0,257,1,363,721,110,0,0,461,-8985,-18108,428,45.701527,4.91082,41.85,198.7,0,0.0,0,0.0,0.235,1,0.18,1.4357
86163,1560692614251,2,2.15,2.53,3.06,2.1,5.04,0.38,0.63,0.68,-18,2,-25,0.73,6298,56,86,32,80,967,456.0,472,451,60,117.0,257,1,356,664,110,0,0,464,14488,-10483,433,,,,,,,,,,,,
86183,1560692614271,4,2.14,2.59,2.98,2.12,5.05,0.49,0.63,0.74,-19,-2,-25,0.8,6381,56,86,32,83,1059,456.0,466,448,60,117.0,257,1,356,614,110,0,0,466,17628,16408,435,,,,,,,,,,,,
86203,1560692614291,3,2.15,2.62,2.95,2.14,5.06,0.44,0.64,0.81,-18,-2,-25,0.78,6373,56,86,32,84,1143,460.0,462,452,60,118.0,324,1,354,537,142,0,0,467,-23623,243,439,,,,,,,,,,,,
86223,1560692614311,-0,2.15,2.61,2.95,2.13,5.08,0.45,0.68,0.78,-18,0,-25,0.82,6366,56,87,32,84,1234,463.0,461,456,60,117.0,324,1,353,485,142,0,0,470,6193,30272,445,,,,,,,,,,,,
86243,1560692614331,1,2.15,2.61,2.94,2.13,5.04,0.55,0.51,0.84,-18,-1,-24,0.75,6368,56,87,32,85,1337,466.0,456,458,60,117.0,324,1,350,489,142,0,0,473,-3210,-3210,445,45.701538,4.91082,42.76,198.6,0,0.0,0,0.0,0.2367,1,0.18,1.4374
86263,1560692614351,4,2.16,2.61,2.94,2.14,5.07,0.58,0.46,0.85,-18,-1,-23,0.74,6401,56,87,32,85,1421,468.0,460,447,60,117.0,324,1,352,491,142,0,0,477,-16384,-17956,448,,,,,,,,,,,,
86283,1560692614371,-1,2.16,2.6,2.94,2.12,5.06,0.49,0.57,0.78,-16,0,-21,0.76,6432,56,87,32,85,1442,471.0,458,446,60,118.0,324,1,353,491,142,0,0,474,32033,243,452,,,,,,,,,,,,
86303,1560692614391,-1,2.16,2.58,2.96,2.11,5.07,0.52,0.51,0.74,-16,3,-18,0.73,6483,57,87,32,85,1440,473.0,463,457,60,117.0,264,1,355,492,120,0,0,480,3576,32033,455,,,,,,,,,,,,
86323,1560692614411,3,2.18,2.59,3.02,2.12,5.04,0.61,0.41,0.81,-16,1,-17,0.73,6595,57,87,32,85,1374,477.0,475,458,60,117.0,264,1,359,495,120,0,0,485,2212,998,460,,,,,,,,,,,,
86343,1560692614431,-1,2.19,2.59,3.02,2.13,5.07,0.49,0.52,0.74,-15,3,-15,0.71,6686,57,87,32,85,1302,479.0,477,450,60,118.0,264,1,364,497,120,0,0,485,32033,-10483,461,45.701546,4.910819,44.06,198.5,0,0.0,0,0.0,0.2383,1,0.18,1.439
86363,1560692614451,3,2.19,2.6,3.02,2.15,5.04,0.6,0.41,0.86,-15,3,-15,0.73,6718,57,87,32,85,1215,481.0,487,452,60,117.0,264,1,365,498,120,0,0,488,32033,-32768,465,,,,,,,,,,,,
86383,1560692614471,0,2.19,2.59,3.0,2.14,5.08,0.52,0.48,0.89,-14,2,-14,0.71,6720,57,87,32,85,1130,485.0,485,456,60,118.0,264,1,365,493,120,0,0,492,-6441,-9216,469,,,,,,,,,,,,
86403,1560692614491,1,2.2,2.59,2.98,2.15,5.04,0.56,0.41,0.92,-14,1,-15,0.69,6730,57,87,32,85,1045,489.0,487,450,60,117.0,270,1,365,499,127,0,0,493,1,11560,473,,,,,,,,,,,,
86423,1560692614511,1,2.19,2.59,2.95,2.17,5.03,0.52,0.45,0.9,-13,1,-16,0.68,6742,57,87,32,85,963,488.0,485,455,60,118.0,270,1,365,499,127,0,0,500,1,15661,478,,,,,,,,,,,,
86443,1560692614531,3,2.19,2.59,2.97,2.16,5.04,0.53,0.35,0.93,-12,0,-17,0.64,6768,57,87,32,85,966,492.0,487,453,60,117.0,270,1,367,500,127,0,0,505,-32768,-28648,478,45.701557,4.910817,45.47,198.5,0,0.0,0,0.0,0.24,1,0.19,1.4407
86463,1560692614551,0,2.19,2.57,2.99,2.15,5.06,0.48,0.47,0.9,-11,1,-16,0.67,6810,57,87,32,84,968,496.0,485,448,60,118.0,270,1,370,496,127,0,0,503,3,-3414,484,,,,,,,,,,,,
86483,1560692614571,4,2.19,2.56,3.03,2.15,5.06,0.62,0.36,0.96,-12,-0,-16,0.72,6929,57,87,32,84,963,499.0,496,458,60,118.0,270,1,374,504,127,0,0,509,-22519,6274,487,,,,,,,,,,,,
86503,1560692614592,3,2.2,2.56,3.01,2.15,5.04,0.49,0.49,0.8,-11,3,-13,0.69,6985,57,87,32,84,956,502.0,497,450,60,118.0,265,1,377,499,130,0,0,511,6274,-21872,488,,,,,,,,,,,,
86523,1560692614612,-1,2.2,2.56,3.01,2.14,5.05,0.58,0.47,0.85,-12,-0,-13,0.75,6996,57,87,32,84,948,506.0,501,455,60,118.0,265,1,377,499,130,0,0,518,-21872,-21872,491,,,,,,,,,,,,
86543,1560692614632,3,2.19,2.56,3.02,2.15,5.08,0.62,0.36,0.95,-12,1,-14,0.72,7040,57,87,32,84,938,507.0,503,451,60,117.0,265,1,380,500,130,0,0,522,-3414,-9212,495,45.701569,4.910815,46.75,198.4,0,0.0,0,0.0,0.2417,1,0.19,1.4424
86563,1560692614652,0,2.19,2.57,3.01,2.14,5.06,0.53,0.39,0.92,-11,2,-13,0.66,7075,57,87,32,84,911,512.0,502,455,60,117.0,265,1,382,501,130,0,0,522,-3482,2088,497,,,,,,,,,,,,
86583,1560692614672,1,2.18,2.6,3.0,2.15,5.04,0.58,0.49,0.88,-12,1,-14,0.75,7096,57,87,32,83,884,515.0,508,449,60,118.0,265,1,383,495,130,0,0,520,-14,2088,500,,,,,,,,,,,,
86603,1560692614692,5,2.18,2.61,3.0,2.15,5.04,0.69,0.33,0.97,-12,0,-15,0.77,7175,57,87,32,83,866,516.0,508,453,60,117.0,268,1,388,496,134,0,0,525,16383,2088,503,,,,,,,,,,,,
86623,1560692614712,2,2.19,2.6,2.99,2.14,5.06,0.64,0.28,0.92,-11,1,-14,0.7,7205,58,87,32,83,848,522.0,514,454,60,117.0,268,1,390,497,134,0,0,531,2524,-22519,509,,,,,,,,,,,,
86643,1560692614732,3,2.17,2.59,2.98,2.14,5.04,0.53,0.36,0.84,-10,3,-13,0.64,7236,58,87,32,83,836,525.0,510,452,60,116.0,268,1,394,497,134,0,0,531,6274,-28648,509,45.70158,4.910812,48.1,198.4,0,0.0,0,0.0,0.2433,1,0.19,1.4441
86663,1560692614752,0,2.18,2.58,2.97,2.13,5.05,0.48,0.46,0.76,-10,3,-13,0.67,7307,58,87,32,83,825,527.0,526,456,60,117.0,268,1,395,490,134,0,0,539,-22519,-22519,513,,,,,,,,,,,,
86683,1560692614772,2,2.17,2.59,2.97,2.14,5.04,0.56,0.56,0.73,-11,3,-13,0.79,7321,58,87,32,82,826,533.0,517,450,60,118.0,268,1,397,490,134,0,0,540,2104,-8962,515,,,,,,,,,,,,
86703,1560692614792,2,2.18,2.63,2.97,2.17,5.05,0.6,0.57,0.76,-12,2,-13,0.83,7405,58,87,32,82,832,533.0,524,454,60,117.0,263,1,402,491,136,0,0,545,-32248,-8962,516,,,,,,,,,,,,
86723,1560692614812,2,2.16,2.65,2.99,2.19,5.04,0.71,0.5,0.81,-13,1,-14,0.87,7461,58,87,32,81,837,534.0,528,453,60,117.0,263,1,406,483,136,0,0,546,-32248,-9072,520,,,,,,,,,,,,
86743,1560692614832,1,2.15,2.64,2.98,2.19,5.05,0.81,0.47,0.93,-13,-1,-13,0.93,7560,58,87,32,81,841,538.0,539,454,60,117.0,263,1,412,476,136,0,0,547,-2934,-32248,522,45.701595,4.910809,49.74,198.4,0,0.0,0,0.0,0.245,1,0.19,1.4457
86763,1560692614852,-0,2.16,2.63,2.95,2.18,5.06,0.83,0.51,0.95,-14,-2,-13,0.97,7554,58,87,32,80,841,545.0,537,450,60,118.0,263,1,411,476,136,0,0,555,-8962,2524,526,,,,,,,,,,,,
86783,1560692614872,-0,2.16,2.62,2.9,2.17,5.05,0.87,0.54,0.97,-15,-1,-13,1.02,7581,58,87,32,80,839,548.0,539,456,60,117.0,263,1,413,476,136,0,0,557,2104,6273,529,,,,,,,,,,,,
86803,1560692614893,3,2.16,2.61,2.89,2.14,5.04,0.89,0.59,0.94,-16,-4,-14,1.07,7569,58,87,32,80,828,555.0,542,453,60,117.0,258,1,415,469,137,0,0,560,-22263,1780,534,,,,,,,,,,,,
86823,1560692614913,2,2.17,2.61,2.92,2.11,5.06,0.85,0.69,0.8,-16,-3,-16,1.1,7690,58,87,32,80,814,557.0,542,456,60,118.0,258,1,419,477,137,0,0,566,2216,1780,536,,,,,,,,,,,,
86843,1560692614933,5,2.16,2.61,2.93,2.11,5.05,0.74,0.79,0.61,-16,-3,-16,1.08,7828,58,87,32,79,801,561.0,541,452,60,117.0,258,1,428,470,137,0,0,573,-18032,-23623,541,45.701603,4.910805,51.4,198.3,0,0.0,0,0.0,0.2467,1,0.19,1.4474
86863,1560692614953,3,2.17,2.62,2.92,2.12,5.05,0.69,0.81,0.57,-16,1,-15,1.06,7871,58,87,32,78,790,565.0,553,456,60,116.0,258,1,430,470,137,0,0,578,-2934,-28648,540,,,,,,,,,,,,
86883,1560692614973,2,2.16,2.64,2.91,2.14,5.04,0.78,0.71,0.71,-16,1,-16,1.05,7921,58,87,32,77,776,567.0,553,453,60,117.0,258,1,433,454,137,0,0,580,1780,-3210,544,,,,,,,,,,,,
86903,1560692614993,3,2.16,2.65,2.81,2.13,5.06,0.77,0.76,0.83,-16,1,-15,1.08,7855,58,87,32,76,762,572.0,554,450,60,117.0,247,1,429,446,135,0,0,580,-8188,-16384,546,,,,,,,,,,,,
86923,1560692615006,6,2.16,2.66,2.79,2.12,5.06,0.69,0.89,0.78,-16,1,-14,1.12,7832,58,87,32,76,754,574.0,554,457,60,117.0,247,1,428,446,135,0,0,586,774,6273,551,,,,,,,,,,,,
86943,1560692615026,1,2.16,2.67,2.79,2.11,5.04,0.61,0.89,0.69,-15,3,-15,1.08,7914,58,87,32,76,752,577.0,560,451,60,118.0,247,1,433,446,135,0,0,587,30208,243,554,45.701618,4.910801,52.64,198.3,0,0.0,0,0.0,0.2483,1,0.19,1.449
86963,1560692615046,2,2.17,2.65,2.81,2.11,5.04,0.64,0.79,0.7,-14,3,-16,1.02,7965,58,87,32,75,751,582.0,557,451,60,117.0,247,1,438,435,135,0,0,591,8488,208,560,,,,,,,,,,,,
86983,1560692615066,3,2.17,2.63,2.9,2.11,5.03,0.61,0.81,0.77,-14,3,-16,1.02,8088,58,87,32,75,752,583.0,566,449,60,117.0,247,1,439,427,135,0,0,596,15649,2048,563,,,,,,,,,,,,
87003,1560692615092,-1,2.19,2.64,2.89,2.12,5.05,0.56,0.81,0.7,-14,3,-16,0.98,8216,58,87,32,73,754,588.0,572,450,60,118.0,239,1,437,430,135,0,0,599,-1894,-7939,565,,,,,,,,,,,,
87023,1560692615112,4,2.19,2.64,2.9,2.13,5.04,0.55,0.86,0.7,-13,4,-17,1.02,8285,58,87,32,72,756,590.0,577,450,60,117.0,239,1,436,401,135,0,0,603,-32504,4956,568,,,,,,,,,,,,
87043,1560692615132,-0,2.19,2.64,2.89,2.13,5.04,0.54,0.81,0.75,-13,4,-18,0.98,8274,58,87,32,70,761,592.0,589,456,60,118.0,239,1,439,402,135,0,0,607,-28648,-30139,576,45.70163,4.910796,54.44,198.2,0,0.0,0,0.0,0.25,1,0.19,1.4507
87063,1560692615152,3,2.2,2.63,2.87,2.14,5.07,0.57,0.8,0.84,-13,3,-17,0.98,8267,58,87,32,70,767,595.0,586,451,60,117.0,239,1,439,391,135,0,0,610,17344,30227,578,,,,,,,,,,,,
87083,1560692615172,1,2.21,2.62,2.86,2.14,5.03,0.57,0.75,0.93,-13,4,-16,0.94,8270,58,87,32,70,773,598.0,585,453,60,118.0,239,1,439,392,135,0,0,614,4956,17740,582,,,,,,,,,,,,
87103,1560692615192,3,2.2,2.63,2.86,2.15,5.06,0.61,0.73,0.96,-13,3,-16,0.95,8263,59,87,32,70,776,602.0,583,447,60,116.0,208,1,438,391,122,0,0,616,-768,3403,587,,,,,,,,,,,,
87123,1560692615212,1,2.21,2.63,2.87,2.2,5.03,0.57,0.67,1.03,-12,2,-18,0.88,8329,59,87,32,70,786,603.0,585,459,60,118.0,208,1,437,393,122,0,0,615,-7939,16529,589,,,,,,,,,,,,
87143,1560692615232,4,2.21,2.6,2.89,2.18,5.06,0.55,0.77,0.9,-12,2,-16,0.94,8419,59,87,32,69,807,608.0,594,456,60,117.0,208,1,435,385,122,0,0,622,17740,16529,595,45.701641,4.91079,56.22,198.2,0,0.0,0,0.0,0.2517,1,0.2,1.4524
87163,1560692615252,3,2.22,2.58,2.93,2.17,5.05,0.65,0.55,0.98,-11,3,-16,0.86,8499,59,87,32,69,828,612.0,591,449,60,117.0,208,1,433,387,122,0,0,625,28675,506,598,,,,,,,,,,,,
87183,1560692615272,-1,2.23,2.58,2.92,2.17,5.05,0.6,0.51,1.08,-11,2,-14,0.79,8526,59,87,32,68,845,612.0,598,458,60,118.0,208,1,432,379,122,0,0,627,26688,-16883,602,,,,,,,,,,,,
87203,1560692615292,4,2.23,2.58,2.94,2.21,5.03,0.54,0.55,0.91,-11,3,-13,0.77,8557,59,87,32,68,865,615.0,602,456,60,118.0,199,1,430,374,120,0,0,631,26688,-10251,603,,,,,,,,,,,,
87223,1560692615312,2,2.23,2.59,3.0,2.21,5.04,0.54,0.52,0.99,-10,4,-13,0.75,8581,59,87,32,67,891,620.0,597,455,60,117.0,199,1,431,374,120,0,0,634,19320,-10251,609,,,,,,,,,,,,
