"Interval"|"ms"|0|0|1,"Utc"|"ms"|0|0|1,"FB_p"|"bar"|0|300|50,"Volant"|"F"|0.0|300.0|50,"xFR"|"mm"|0.0|5.0|50,"xRR"|"mm"|0.0|5.0|50,"xFL"|"mm"|0.0|5.0|50,"xRL"|"mm"|0.0|5.0|50,"AccelX"|"G"|-3.0|3.0|50,"AccelY"|"G"|-3.0|3.0|50,"AccelZ"|"G"|-3.0|3.0|50,"Yaw"|"Deg/Sec"|-120|120|50,"Pitch"|"Deg/Sec"|-120|120|50,"Roll"|"Deg/Sec"|-120|120|50,"Gsum"|"G"|0.0|3.0|50,"RPM"|""|0|14000|50,"TPS"|"%"|0|100|50,"WaterTemp"|"?C"|0|300|50,"AirTemp"|"?C"|-1000|1000|50,"MAP"|"KPa"|0|255|50,"Lambda"|""|0|1024|50,"WheelSpeed"|"MPH"|0.0|150.0|50,"OilPress"|"PSI"|0|150|50,"FuelPress"|"PSI"|0|150|50,"OilTemp"|"F"|0|300|50,"Battery"|"Volts"|0.0|20.0|50,"FuelCon"|"L/h"|-1000|1000|50,"Gear"|""|0|10|50,"Advance"|"Deg"|-360|360|50,"Injection"|"ms"|-1000|1000|50,"FuelCon"|"L/100km"|-1000|1000|50,"LC_But_Pres"|""|-1000|1000|50,"LC_Active"|""|-1000|1000|50,"RD_Speed"|""|-1000|1000|50,"RUD_Speed"|""|-1000|1000|50,"LD_Speed"|""|-1000|1000|50,"LUD_Speed"|""|-1000|1000|50,"Latitude"|"Degrees"|-180.0|180.0|10,"Longitude"|"Degrees"|-180.0|180.0|10,"Speed"|"kph"|0.0|150.0|10,"Altitude"|"m"|0.0|4000.0|10,"LapCount"|""|0|0|10,"LapTime"|"Min"|0.0|0.0|10,"Sector"|""|0|0|10,"SectorTime"|"Min"|0.0|0.0|10,"ElapsedTime"|"Min"|0.0|0.0|10,"CurrentLap"|""|0|0|10,"Distance"|"km"|0.0|0.0|10,"SessionTime"|"Min"|0.0|0.0|10
651563,1560691923382,18,2.26,1.85,3.53,1.67,5.07,1.35,-0.03,-0.05,-2,-3,-2,1.35,7137,5,88,33,21,932,596.0,503,458,60,117.0,67,1,261,149,40,0,0,507,4956,10408,596,,,,,,,,,,,,
651583,1560691923402,17,2.26,1.87,3.52,1.66,5.04,1.26,0.02,-0.21,-2,-0,-1,1.26,7094,5,88,33,21,890,586.0,510,457,60,117.0,67,1,260,149,40,0,0,513,-16179,-22519,586,,,,,,,,,,,,
651603,1560691923422,14,2.27,1.92,3.52,1.69,5.03,1.21,0.07,-0.24,-2,1,-2,1.21,7075,5,88,33,21,836,578.0,508,460,60,116.0,67,1,260,149,40,0,0,531,-1894,-28648,579,,,,,,,,,,,,
651623,1560691923442,19,2.26,1.94,3.5,1.7,5.02,1.26,0.03,-0.06,-3,-3,-3,1.26,7118,5,88,33,21,812,572.0,497,454,60,117.0,67,1,261,149,40,0,0,532,-3210,-9212,570,,,,,,,,,,,,
651643,1560691923462,17,2.27,1.96,3.47,1.7,5.04,1.32,-0.07,-0.02,-3,-6,-4,1.32,7159,5,88,33,21,809,563.0,503,457,60,117.0,67,1,261,149,40,0,0,536,-8188,6274,565,45.700825,4.909665,62.1,202.2,6,1.6633,0,0.0,0.0383,7,0.06,10.8607
651663,1560691923482,16,2.27,1.94,3.49,1.68,5.07,1.26,-0.0,-0.18,-2,-5,-3,1.26,7083,5,88,33,21,810,562.0,505,458,60,116.0,71,1,260,149,40,0,0,525,2211,-21872,556,,,,,,,,,,,,
651683,1560691923502,14,2.27,1.92,3.49,1.66,5.07,1.21,0.06,-0.2,-2,-4,-2,1.21,7009,5,88,33,21,820,560.0,508,461,60,115.0,71,1,260,149,40,0,0,517,-18032,15679,555,,,,,,,,,,,,
651703,1560691923522,16,2.27,1.92,3.49,1.67,5.04,1.24,-0.0,-0.06,-3,-4,-2,1.24,6959,5,88,33,21,833,553.0,503,457,60,117.0,71,1,260,148,40,0,0,522,-28648,10408,552,,,,,,,,,,,,
651723,1560691923542,13,2.28,1.92,3.49,1.68,5.06,1.14,-0.06,-0.1,-2,-3,-1,1.14,6923,5,88,33,21,841,546.0,511,463,60,115.0,71,1,260,148,40,0,0,507,2104,16383,544,,,,,,,,,,,,
651743,1560691923562,10,2.28,1.93,3.48,1.69,5.03,1.04,0.02,-0.15,-2,1,-3,1.04,6911,5,88,33,21,854,543.0,487,455,60,117.0,71,1,260,148,40,0,0,507,2104,16383,544,45.700836,4.909675,58.91,202.2,6,1.6633,0,0.0,0.04,7,0.06,10.8624
651763,1560691923582,14,2.28,1.96,3.48,1.71,5.04,1.14,-0.07,-0.04,-2,-2,-3,1.14,6903,5,88,33,21,877,536.0,498,460,60,117.0,71,1,260,148,38,0,0,512,1780,-28648,541,,,,,,,,,,,,
651783,1560691923600,10,2.29,1.94,3.47,1.7,5.04,1.04,0.04,-0.16,-1,1,-2,1.04,6880,5,88,33,21,902,530.0,506,457,60,115.0,71,1,260,148,38,0,0,509,-28648,-3856,531,,,,,,,,,,,,
651803,1560691923620,14,2.29,1.94,3.44,1.7,5.05,1.14,-0.05,0.03,-1,-1,-1,1.14,6883,5,88,33,21,910,525.0,489,458,60,117.0,71,1,260,148,38,0,0,508,2524,-21872,526,,,,,,,,,,,,
651823,1560691923640,13,2.3,1.94,3.44,1.69,5.06,1.12,-0.06,-0.05,-1,-2,-0,1.12,6918,5,88,33,21,921,522.0,500,459,60,117.0,71,1,260,148,38,0,0,508,2088,10994,523,,,,,,,,,,,,
651843,1560691923660,9,2.31,1.94,3.44,1.68,5.07,1.09,0.01,0.01,0,-1,-0,1.09,6875,5,88,33,21,933,519.0,496,461,60,116.0,71,1,260,148,38,0,0,498,-9212,-32248,518,45.700848,4.909684,56.35,202.1,6,1.6633,0,0.0,0.0417,7,0.06,10.864
651863,1560691923680,11,2.31,1.93,3.45,1.7,5.03,1.13,-0.05,0.16,-0,-3,-1,1.13,6768,5,88,33,21,946,514.0,486,454,60,117.0,71,1,260,147,37,0,0,497,-3482,-32248,517,,,,,,,,,,,,
651883,1560691923702,6,2.32,1.91,3.47,1.71,5.08,1.16,-0.01,0.08,1,-1,-1,1.16,6684,5,88,33,22,947,515.0,475,457,60,117.0,71,1,261,146,37,0,0,492,-4054,-9216,512,,,,,,,,,,,,
651903,1560691923722,5,2.33,1.89,3.46,1.76,5.06,1.2,-0.1,0.12,1,-1,2,1.2,6533,5,88,33,22,948,512.0,476,464,60,116.0,71,1,261,148,37,0,0,492,10994,6274,511,,,,,,,,,,,,
651923,1560691923742,8,2.32,1.88,3.44,1.78,5.07,1.12,-0.09,0.06,2,-1,5,1.13,6469,5,88,33,22,948,510.0,473,456,60,117.0,71,1,261,148,37,0,0,495,-28648,10994,512,,,,,,,,,,,,
651943,1560691923762,3,2.33,1.88,3.42,1.82,5.07,0.99,-0.06,-0.08,4,6,6,0.99,6553,5,88,33,23,949,505.0,470,460,60,118.0,71,1,262,152,37,0,0,463,-22519,15649,510,45.700859,4.909693,53.06,202.1,6,1.6633,0,0.0,0.0433,7,0.06,10.8657
651963,1560691923782,4,2.35,1.88,3.44,1.83,5.05,0.95,-0.09,0.03,4,4,8,0.95,6611,5,88,33,23,946,500.0,478,457,60,118.0,76,1,262,152,38,0,0,476,-32768,12552,505,,,,,,,,,,,,
651983,1560691923802,2,2.35,1.88,3.46,1.9,5.06,0.95,-0.07,-0.11,6,3,10,0.95,6838,5,88,33,23,946,495.0,474,456,60,118.0,76,1,261,153,38,0,0,436,-1562,3635,500,,,,,,,,,,,,
652003,1560691923822,3,2.36,1.86,3.5,1.88,5.06,1.03,-0.15,-0.01,6,-0,10,1.04,6845,5,88,33,22,941,491.0,497,458,60,118.0,76,1,260,150,38,0,0,432,10305,15649,495,,,,,,,,,,,,
652023,1560691923842,3,2.35,1.84,3.51,1.89,5.04,1.03,-0.17,-0.02,6,-0,11,1.05,7038,5,88,33,22,936,487.0,502,460,60,117.0,76,1,260,151,38,0,0,396,-23367,26704,491,,,,,,,,,,,,
652043,1560691923862,7,2.36,1.82,3.52,1.87,5.06,1.05,-0.09,0.03,6,-0,11,1.05,7062,5,88,34,22,930,482.0,498,459,60,117.0,76,1,260,151,38,0,0,411,-1923,-23623,486,45.70087,4.909701,50.91,202.1,6,1.6633,0,0.0,0.045,7,0.07,10.8674
652063,1560691923882,5,2.35,1.82,3.53,1.87,5.05,1.11,-0.08,0.06,6,-2,10,1.11,7247,5,88,34,22,926,479.0,510,461,60,118.0,85,1,260,151,38,0,0,418,-3210,31796,482,,,,,,,,,,,,
652083,1560691923903,4,2.37,1.82,3.54,1.87,5.06,1.13,-0.22,0.09,8,1,10,1.15,7312,5,88,34,21,917,478.0,520,457,60,117.0,85,1,263,149,41,0,0,424,12552,3635,479,,,,,,,,,,,,
652103,1560691923923,1,2.38,1.82,3.61,1.9,5.05,1.13,-0.33,0.03,10,4,9,1.17,7411,5,88,34,21,901,472.0,523,458,60,118.0,85,1,264,149,41,0,0,418,17628,-8165,478,,,,,,,,,,,,
652123,1560691923943,3,2.37,1.82,3.62,1.92,5.05,1.04,-0.33,0.02,10,5,11,1.09,7494,5,88,34,21,892,469.0,530,457,60,117.0,85,1,264,149,41,0,0,391,2524,3826,472,,,,,,,,,,,,
652143,1560691923963,2,2.37,1.82,3.59,1.96,5.06,1.0,-0.31,0.04,11,4,12,1.05,7560,5,88,34,20,886,464.0,530,459,60,116.0,85,1,265,149,41,0,0,412,15649,1779,469,45.700882,4.909709,48.96,202.0,6,1.6633,0,0.0,0.0467,7,0.07,10.869
652163,1560691923983,3,2.38,1.82,3.58,1.99,5.04,0.97,-0.43,0.08,12,4,13,1.06,7640,5,88,34,20,883,459.0,536,458,60,116.0,91,1,266,146,42,0,0,410,2131,-4082,464,,,,,,,,,,,,
652183,1560691923995,3,2.36,1.82,3.59,1.96,5.05,1.01,-0.47,0.14,13,4,14,1.11,7722,5,88,34,20,885,458.0,540,463,60,117.0,91,1,267,146,42,0,0,414,19477,31796,456,,,,,,,,,,,,
652203,1560691924015,3,2.34,1.81,3.58,1.98,5.05,1.08,-0.56,0.29,13,5,15,1.21,7767,5,88,34,20,891,451.0,546,456,60,116.0,91,1,267,146,42,0,0,414,19477,31796,456,,,,,,,,,,,,
652223,1560691924035,-0,2.33,1.81,3.58,1.96,5.07,1.1,-0.54,0.33,13,5,15,1.22,7838,5,88,34,20,903,447.0,557,457,60,116.0,91,1,268,144,42,0,0,419,-7939,-21792,451,,,,,,,,,,,,
652243,1560691924055,2,2.31,1.84,3.59,1.95,5.06,1.04,-0.47,0.23,12,4,15,1.14,7894,5,88,34,19,914,443.0,561,459,60,117.0,91,1,268,144,42,0,0,409,1779,-21792,448,45.70089,4.909717,45.96,202.0,6,1.6633,0,0.0,0.0483,7,0.07,10.8707
652263,1560691924075,1,2.3,1.84,3.56,1.95,5.06,0.94,-0.48,0.18,12,4,15,1.06,7861,5,88,34,19,923,438.0,565,461,60,118.0,97,1,268,144,43,0,0,415,-3314,7154,443,,,,,,,,,,,,
652283,1560691924103,4,2.28,1.87,3.53,1.95,5.03,0.98,-0.46,0.21,11,4,15,1.09,7871,5,87,34,19,933,435.0,561,454,60,117.0,97,1,268,144,43,0,0,419,13180,-3414,438,,,,,,,,,,,,
652303,1560691924123,-1,2.26,1.94,3.48,1.93,5.07,1.01,-0.38,0.27,10,3,13,1.07,7812,5,87,34,19,935,430.0,551,456,60,117.0,97,1,268,144,43,0,0,417,3635,18584,433,,,,,,,,,,,,
652323,1560691924143,1,2.25,1.99,3.38,1.91,5.08,1.0,-0.26,0.23,8,2,12,1.04,7770,5,87,34,19,931,428.0,551,458,60,117.0,97,1,267,144,43,0,0,423,13180,-26615,430,,,,,,,,,,,,
652343,1560691924163,2,2.24,2.04,3.36,1.91,5.03,0.94,-0.23,0.17,7,3,11,0.97,7763,5,87,34,18,917,426.0,552,460,60,117.0,97,1,267,144,43,0,0,419,13180,-9166,428,45.700901,4.909726,44.63,201.9,6,1.6633,0,0.0,0.05,7,0.07,10.8724
652363,1560691924183,2,2.22,2.08,3.33,1.9,5.03,0.96,-0.18,0.14,5,2,10,0.97,7697,5,87,34,18,906,424.0,548,457,60,118.0,97,1,267,144,43,0,0,416,-3856,18584,423,,,,,,,,,,,,
652383,1560691924203,4,2.2,2.11,3.32,1.9,5.04,1.0,-0.26,0.13,4,2,8,1.03,7678,5,87,34,19,896,421.0,544,460,60,118.0,97,1,266,144,41,0,0,416,-4082,10392,419,,,,,,,,,,,,
652403,1560691924223,3,2.19,2.11,3.29,1.87,5.06,1.0,-0.24,0.24,3,4,7,1.03,7612,5,87,34,19,882,421.0,532,455,60,118.0,97,1,266,144,41,0,0,413,-21792,-26615,415,,,,,,,,,,,,
652423,1560691924243,5,2.17,2.11,3.24,1.84,5.07,1.08,-0.24,0.37,2,4,5,1.11,7591,5,87,34,19,875,422.0,533,460,60,118.0,97,1,265,144,41,0,0,411,-8165,-32702,408,,,,,,,,,,,,
652443,1560691924263,4,2.16,2.14,3.22,1.81,5.07,1.14,-0.17,0.47,0,3,2,1.15,7530,5,87,34,19,869,420.0,534,458,60,118.0,97,1,265,144,41,0,0,411,-8165,-32702,408,45.700909,4.909734,42.4,201.9,6,1.6633,0,0.0,0.0517,7,0.07,10.8741
652463,1560691924283,1,2.15,2.18,3.2,1.8,5.04,1.22,-0.1,0.62,-1,2,0,1.23,7521,5,87,34,19,874,418.0,537,458,60,118.0,101,1,265,144,41,0,0,412,-8165,6384,404,,,,,,,,,,,,
652483,1560691924301,-0,2.14,2.21,3.21,1.78,5.08,1.26,-0.03,0.71,-3,2,-2,1.26,7470,5,87,34,19,879,418.0,525,456,60,118.0,101,1,264,144,41,0,0,412,-3414,-32702,401,,,,,,,,,,,,
652503,1560691924321,3,2.12,2.23,3.21,1.77,5.08,1.26,0.0,0.77,-4,3,-4,1.26,7455,5,87,34,19,890,417.0,539,457,60,118.0,101,1,264,144,41,0,0,408,-3414,1,398,,,,,,,,,,,,
652523,1560691924341,3,2.12,2.24,3.22,1.76,5.07,1.27,0.05,0.78,-5,2,-6,1.27,7393,5,87,34,19,901,416.0,531,453,60,118.0,101,1,263,144,41,0,0,403,-21944,240,395,,,,,,,,,,,,
652543,1560691924361,3,2.1,2.3,3.22,1.76,5.08,1.35,0.03,0.79,-7,2,-8,1.35,7364,5,87,34,19,908,416.0,538,457,60,118.0,101,1,263,144,41,0,0,403,18584,-19019,393,45.70092,4.909743,39.8,201.8,6,1.6633,0,0.0,0.0533,7,0.07,10.8757
652563,1560691924381,2,2.09,2.33,3.17,1.76,5.06,1.3,-0.0,0.88,-8,3,-10,1.3,7298,5,87,34,19,914,414.0,534,459,60,117.0,103,1,262,144,40,0,0,405,2524,2278,386,,,,,,,,,,,,
652583,1560691924403,1,2.08,2.33,3.15,1.74,5.06,1.25,0.11,0.8,-9,3,-12,1.25,7275,5,87,34,19,933,413.0,529,463,60,118.0,103,1,262,144,40,0,0,405,2524,2278,386,,,,,,,,,,,,
652603,1560691924423,1,2.06,2.34,3.14,1.72,5.05,1.26,0.27,0.61,-10,3,-13,1.29,7219,5,87,34,20,946,411.0,531,456,60,117.0,103,1,262,146,40,0,0,401,-9166,-6656,382,,,,,,,,,,,,
652623,1560691924443,2,2.06,2.33,3.14,1.7,5.07,1.23,0.34,0.51,-12,3,-15,1.27,7194,5,87,34,20,953,410.0,513,455,60,118.0,103,1,261,146,40,0,0,404,9517,0,377,,,,,,,,,,,,
652643,1560691924463,4,2.06,2.33,3.14,1.7,5.08,1.21,0.4,0.57,-14,2,-18,1.27,7175,6,87,34,20,962,408.0,514,456,60,118.0,103,1,261,146,40,0,0,404,9517,0,377,45.700924,4.90975,39.35,201.7,6,1.6633,0,0.0,0.055,7,0.07,10.8774
652663,1560691924483,2,2.06,2.34,3.13,1.69,5.06,1.2,0.34,0.64,-15,1,-20,1.25,7110,7,87,34,20,946,407.0,507,455,60,118.0,104,1,261,146,39,0,0,399,10392,0,375,,,,,,,,,,,,
652683,1560691924503,1,2.05,2.34,3.14,1.7,5.08,1.23,0.33,0.58,-16,1,-21,1.27,7070,7,87,34,21,936,405.0,508,463,60,117.0,104,1,260,149,39,0,0,396,-9211,-1268,372,,,,,,,,,,,,
652703,1560691924523,-1,2.06,2.37,3.12,1.71,5.06,1.16,0.5,0.4,-17,3,-21,1.27,7035,8,87,34,21,915,404.0,511,457,60,117.0,104,1,260,149,39,0,0,396,-9211,-6640,370,,,,,,,,,,,,
652723,1560691924543,4,2.05,2.38,3.13,1.7,5.04,1.13,0.49,0.46,-18,3,-21,1.23,6983,8,87,34,21,893,400.0,504,456,60,118.0,104,1,260,148,39,0,0,397,1504,2060,368,,,,,,,,,,,,
652743,1560691924563,1,2.05,2.38,3.12,1.71,5.04,1.21,0.52,0.49,-19,2,-21,1.32,6949,8,87,34,22,870,398.0,504,457,60,118.0,104,1,260,151,39,0,0,391,6512,3302,364,45.700935,4.909758,38.93,201.7,6,1.6633,0,0.0,0.0567,7,0.07,10.8791
652763,1560691924583,1,2.05,2.37,3.12,1.7,5.07,1.2,0.65,0.48,-20,2,-24,1.37,6913,9,87,34,22,851,394.0,507,458,60,117.0,108,1,260,150,39,0,0,393,6384,-6644,362,,,,,,,,,,,,
652783,1560691924603,-0,2.06,2.37,3.12,1.71,5.06,1.15,0.61,0.55,-20,-0,-26,1.3,6855,9,87,34,22,853,394.0,498,455,60,119.0,108,1,260,150,39,0,0,389,17144,28553,361,,,,,,,,,,,,
652803,1560691924623,1,2.04,2.37,3.12,1.71,5.05,1.21,0.65,0.48,-21,-0,-26,1.38,6838,9,87,34,23,856,393.0,490,456,60,118.0,108,1,261,153,39,0,0,387,-1818,8841,358,,,,,,,,,,,,
652823,1560691924643,3,2.06,2.36,3.12,1.7,5.08,1.15,0.59,0.49,-21,-0,-27,1.29,6791,9,87,34,23,861,390.0,493,454,60,119.0,108,1,261,153,39,0,0,383,1,6870,357,,,,,,,,,,,,
652843,1560691924663,0,2.04,2.36,3.12,1.71,5.04,1.17,0.67,0.34,-22,2,-25,1.35,6742,9,87,34,24,865,387.0,501,457,60,117.0,108,1,262,156,39,0,0,382,-1562,6870,355,45.700943,4.909764,37.96,201.7,6,1.6633,0,0.0,0.0583,7,0.08,10.8807
652863,1560691924683,3,2.06,2.35,3.12,1.7,5.03,1.11,0.62,0.35,-22,0,-26,1.27,6744,9,87,34,24,868,385.0,493,459,60,118.0,110,1,262,156,39,0,0,380,240,-10554,353,,,,,,,,,,,,
652883,1560691924703,-2,2.06,2.34,3.11,1.7,5.07,1.1,0.63,0.32,-22,1,-27,1.26,6708,9,87,34,24,869,383.0,488,457,60,117.0,110,1,262,156,39,0,0,378,-6475,-10554,352,,,,,,,,,,,,
652903,1560691924723,3,2.06,2.34,3.12,1.71,5.07,1.09,0.65,0.37,-22,0,-29,1.27,6679,9,87,34,25,873,380.0,489,455,60,118.0,110,1,264,159,39,0,0,375,-19126,3327,350,,,,,,,,,,,,
652923,1560691924743,0,2.06,2.35,3.13,1.71,5.04,1.09,0.67,0.35,-22,1,-30,1.28,6656,10,87,34,25,878,380.0,490,462,60,117.0,110,1,264,159,39,0,0,371,-992,3327,348,,,,,,,,,,,,
652943,1560691924763,1,2.07,2.34,3.12,1.73,5.07,1.05,0.56,0.42,-23,1,-31,1.19,6588,10,87,34,25,881,374.0,481,455,60,118.0,110,1,265,160,39,0,0,372,-992,-122,347,45.700951,4.909769,36.11,201.7,6,1.6633,0,0.0,0.06,7,0.08,10.8824
652963,1560691924783,4,2.07,2.34,3.12,1.74,5.04,1.0,0.64,0.33,-22,2,-29,1.19,6590,10,87,34,26,884,375.0,468,453,60,118.0,115,1,268,160,40,0,0,369,742,3346,346,,,,,,,,,,,,
652983,1560691924803,-1,2.09,2.34,3.13,1.74,5.03,1.01,0.62,0.35,-22,1,-28,1.19,6578,10,87,34,26,887,371.0,471,457,60,117.0,115,1,268,160,40,0,0,366,770,2560,345,,,,,,,,,,,,
653003,1560691924823,1,2.11,2.34,3.13,1.74,5.04,0.95,0.57,0.38,-21,2,-27,1.11,6539,10,87,34,26,891,368.0,480,458,60,118.0,115,1,268,160,40,0,0,363,257,2560,342,,,,,,,,,,,,
653023,1560691924843,15,2.13,2.32,3.13,1.78,5.03,0.94,0.65,0.31,-21,3,-26,1.14,6539,10,87,34,27,895,367.0,477,455,60,118.0,115,1,272,161,40,0,0,362,0,2560,342,,,,,,,,,,,,
653043,1560691924863,-2,2.16,2.3,3.13,1.76,5.05,0.99,0.52,0.38,-20,1,-27,1.12,6478,10,87,34,27,896,364.0,479,459,60,117.0,115,1,272,161,40,0,0,363,230,3346,342,45.700962,4.909773,35.54,201.7,6,1.6633,0,0.0,0.0617,7,0.08,10.8841
653063,1560691924883,2,2.19,2.28,3.14,1.78,5.04,0.98,0.48,0.44,-20,-1,-28,1.09,6449,10,87,34,28,899,360.0,471,458,60,119.0,114,1,276,163,39,0,0,357,3082,4838,340,,,,,,,,,,,,
653083,1560691924902,4,2.22,2.26,3.15,1.81,5.05,0.9,0.46,0.37,-18,-1,-28,1.01,6436,10,87,34,28,900,357.0,467,456,60,118.0,114,1,276,163,39,0,0,355,-14707,3346,341,,,,,,,,,,,,
653103,1560691924922,0,2.25,2.24,3.18,1.87,5.07,0.94,0.43,0.33,-17,-1,-26,1.03,6412,10,87,34,28,902,354.0,468,456,60,117.0,114,1,276,163,39,0,0,354,-6640,4838,341,,,,,,,,,,,,
653123,1560691924942,1,2.27,2.22,3.23,1.89,5.06,0.97,0.31,0.31,-15,-0,-25,1.02,6388,11,87,34,29,903,350.0,464,456,60,118.0,114,1,280,164,39,0,0,348,3183,-31222,340,,,,,,,,,,,,
653143,1560691924962,2,2.31,2.2,3.27,1.94,5.05,0.93,0.25,0.33,-13,-0,-23,0.96,6384,12,87,34,29,906,345.0,468,456,60,118.0,114,1,280,164,39,0,0,345,-30454,-122,343,45.700966,4.909777,35.24,201.7,6,1.6633,0,0.0,0.0633,7,0.08,10.8857
653163,1560691924982,4,2.33,2.17,3.32,1.98,5.04,0.87,0.24,0.29,-11,1,-21,0.9,6336,13,87,34,30,911,344.0,468,460,60,118.0,116,1,283,166,40,0,0,339,6870,-31222,343,,,,,,,,,,,,
653183,1560691924996,-1,2.38,2.15,3.37,2.02,5.07,0.89,0.13,0.31,-9,3,-19,0.9,6315,13,87,34,31,913,344.0,464,463,60,118.0,116,1,286,167,40,0,0,336,3327,3327,345,,,,,,,,,,,,
653203,1560691925016,0,2.41,2.13,3.38,2.06,5.08,0.94,0.01,0.4,-8,1,-17,0.94,6291,14,87,34,32,915,345.0,470,458,60,117.0,116,1,290,169,40,0,0,336,13,-31206,345,,,,,,,,,,,,
653223,1560691925036,0,2.47,2.1,3.4,2.09,5.05,0.89,-0.09,0.5,-5,-1,-15,0.9,6277,14,87,34,33,918,347.0,460,455,60,117.0,116,1,292,174,40,0,0,328,-32559,-14714,347,,,,,,,,,,,,
653243,1560691925056,2,2.51,2.08,3.45,2.11,5.04,0.86,-0.18,0.51,-2,-2,-14,0.88,6266,15,87,34,34,924,347.0,452,450,60,118.0,116,1,295,179,40,0,0,324,-20736,-122,347,45.700977,4.909779,34.13,201.6,6,1.6633,0,0.0,0.065,7,0.08,10.8874
653263,1560691925076,5,2.55,2.05,3.52,2.15,5.04,0.79,-0.14,0.42,2,1,-10,0.81,6262,16,87,34,35,928,349.0,447,460,60,118.0,120,1,298,185,42,0,0,324,-20736,-122,347,,,,,,,,,,,,
653283,1560691925102,-2,2.6,2.02,3.58,2.19,5.06,0.84,-0.23,0.39,4,2,-6,0.87,6241,16,87,34,36,929,350.0,448,465,60,117.0,120,1,301,190,42,0,0,325,-23296,-31206,349,,,,,,,,,,,,
653303,1560691925122,-1,2.64,2.0,3.61,2.22,5.07,0.96,-0.34,0.42,6,-0,-1,1.02,6254,17,87,34,37,929,353.0,450,461,60,117.0,120,1,304,196,42,0,0,318,-25856,-14714,350,,,,,,,,,,,,
653323,1560691925142,0,2.67,1.99,3.63,2.27,5.04,0.96,-0.45,0.46,8,-1,3,1.06,6239,19,87,34,38,931,352.0,453,458,60,118.0,120,1,307,202,42,0,0,315,-27136,-14714,353,,,,,,,,,,,,
653343,1560691925162,2,2.72,1.98,3.65,2.3,5.08,0.92,-0.58,0.52,11,-1,8,1.09,6225,22,87,34,40,932,351.0,447,455,60,118.0,120,1,316,209,42,0,0,312,135,-30454,353,45.700981,4.909781,33.53,201.6,6,1.6633,0,0.0,0.0667,7,0.08,10.889
653363,1560691925182,3,2.77,1.97,3.66,2.31,5.08,0.78,-0.68,0.51,15,0,12,1.03,6233,23,87,34,42,932,352.0,448,453,60,119.0,139,1,329,212,49,0,0,309,-30976,6870,351,,,,,,,,,,,,
653383,1560691925202,4,2.78,1.98,3.67,2.3,5.05,0.66,-0.68,0.45,18,3,16,0.94,6254,24,87,34,44,931,351.0,447,447,60,118.0,139,1,342,214,49,0,0,306,32000,-30438,352,,,,,,,,,,,,
653403,1560691925222,-0,2.79,1.97,3.69,2.31,5.07,0.64,-0.65,0.38,21,6,20,0.91,6302,26,87,34,46,928,352.0,447,460,60,117.0,139,1,356,217,49,0,0,303,120,-30438,351,,,,,,,,,,,,
653423,1560691925242,-0,2.81,1.94,3.7,2.32,5.08,0.77,-0.74,0.37,22,4,25,1.07,6321,27,87,34,48,925,352.0,457,465,60,117.0,139,1,366,224,49,0,0,302,115,-30454,352,,,,,,,,,,,,
653443,1560691925262,2,2.8,1.93,3.7,2.33,5.06,0.86,-0.79,0.47,23,0,29,1.17,6328,29,87,35,50,924,353.0,462,462,60,117.0,139,1,372,233,49,0,0,298,26880,-1246,352,45.700993,4.909784,32.53,201.5,6,1.6633,0,0.0,0.0683,7,0.08,10.8907
653463,1560691925282,1,2.81,1.93,3.69,2.32,5.05,0.82,-0.87,0.42,26,-2,32,1.19,6373,32,87,35,53,922,352.0,451,455,60,118.0,161,1,382,244,57,0,0,296,100,-1246,353,,,,,,,,,,,,
653483,1560691925302,1,2.8,1.91,3.69,2.34,5.04,0.73,-0.86,0.31,28,-1,35,1.13,6381,34,87,35,55,912,353.0,457,460,60,118.0,161,1,387,257,57,0,0,295,25600,8841,352,,,,,,,,,,,,
653503,1560691925322,-2,2.8,1.91,3.69,2.33,5.06,0.75,-0.82,0.2,29,0,38,1.11,6410,35,87,35,57,904,353.0,463,458,60,117.0,161,1,391,260,57,0,0,293,90,8841,353,,,,,,,,,,,,
653523,1560691925342,3,2.79,1.91,3.7,2.34,5.04,0.81,-0.87,0.28,31,-0,40,1.19,6434,37,87,35,59,900,353.0,465,452,60,119.0,161,1,395,263,57,0,0,291,90,8841,353,,,,,,,,,,,,
653543,1560691925362,4,2.8,1.9,3.7,2.36,5.04,0.78,-0.87,0.28,33,-1,40,1.16,6368,38,87,35,62,900,353.0,456,460,60,118.0,161,1,393,264,57,0,0,293,21760,-30438,352,45.701,4.909788,31.65,201.5,6,1.6633,0,0.0,0.07,7,0.08,10.8924
653563,1560691925382,1,2.79,1.91,3.7,2.36,5.04,0.73,-0.87,0.29,35,-1,40,1.13,6233,38,87,35,63,906,354.0,446,459,60,118.0,178,1,384,272,63,0,0,312,85,-30438,353,,,,,,,,,,,,
653583,1560691925402,0,2.79,1.91,3.68,2.37,5.04,0.73,-0.86,0.31,35,-1,40,1.13,6175,39,87,35,65,915,352.0,441,458,60,117.0,178,1,373,284,63,0,0,338,20480,-14714,354,,,,,,,,,,,,
653603,1560691925422,-2,2.79,1.9,3.67,2.37,5.08,0.76,-0.92,0.35,35,-3,40,1.19,6099,40,87,35,67,927,351.0,423,459,60,116.0,178,1,365,298,63,0,0,324,80,-30438,352,,,,,,,,,,,,
653623,1560691925442,0,2.79,1.87,3.68,2.37,5.08,0.85,-1.0,0.42,35,-6,41,1.32,5994,40,87,35,69,937,352.0,320,462,60,117.0,178,1,356,322,63,0,0,302,80,-30438,351,,,,,,,,,,,,
653643,1560691925462,0,2.77,1.88,3.68,2.38,5.04,0.97,-1.08,0.43,34,-8,42,1.45,5967,40,87,35,70,987,351.0,268,462,60,117.0,178,1,353,336,63,0,0,301,20480,-14714,352,45.701004,4.909792,31.22,201.4,6,1.6633,0,0.0,0.0717,7,0.08,10.894
653663,1560691925482,0,2.76,1.91,3.68,2.41,5.03,1.03,-1.12,0.42,33,-10,44,1.52,6011,42,87,35,71,1038,350.0,280,455,60,117.0,227,1,355,352,80,0,0,303,0,6870,351,,,,,,,,,,,,
653683,1560691925502,-2,2.76,1.95,3.68,2.41,5.05,1.07,-1.17,0.39,32,-11,45,1.59,6089,43,87,35,73,1081,346.0,285,462,60,117.0,227,1,355,384,80,0,0,299,0,-10554,349,,,,,,,,,,,,
653703,1560691925522,-2,2.73,1.92,3.67,2.4,5.04,1.12,-1.24,0.41,32,-12,47,1.67,6145,43,87,35,73,1121,349.0,268,461,60,117.0,227,1,356,385,80,0,0,293,0,-14714,346,,,,,,,,,,,,
653723,1560691925542,-0,2.7,1.91,3.67,2.42,5.04,1.21,-1.31,0.53,32,-13,49,1.78,6173,43,87,35,74,1194,349.0,264,455,60,118.0,227,1,356,402,80,0,0,300,20480,-31206,349,,,,,,,,,,,,
653743,1560691925562,3,2.66,1.92,3.66,2.42,5.05,1.21,-1.36,0.64,32,-14,51,1.82,6300,43,87,35,74,1280,348.0,287,447,60,118.0,227,1,360,404,80,0,0,318,0,-14714,350,45.701012,4.909799,30.73,201.4,6,1.6633,0,0.0,0.0733,7,0.08,10.8957
653763,1560691925582,3,2.63,1.94,3.61,2.41,5.05,1.12,-1.3,0.67,33,-12,51,1.72,6371,44,87,35,75,1338,346.0,275,453,60,119.0,286,1,362,420,100,0,0,347,20480,6668,348,,,,,,,,,,,,
653783,1560691925602,0,2.59,1.96,3.56,2.39,5.06,1.15,-1.18,0.59,33,-10,51,1.65,6454,44,87,35,75,1384,344.0,270,459,60,117.0,286,1,365,421,100,0,0,311,80,3327,346,,,,,,,,,,,,
653803,1560691925622,2,2.55,2.02,3.53,2.39,5.06,1.19,-1.15,0.62,32,-10,51,1.65,6461,44,87,35,75,1417,344.0,296,456,60,118.0,286,1,365,421,100,0,0,314,24320,-122,343,,,,,,,,,,,,
653823,1560691925642,4,2.51,2.1,3.47,2.38,5.04,1.07,-1.12,0.67,32,-8,50,1.55,6526,44,87,35,75,1445,342.0,306,454,60,118.0,286,1,367,422,100,0,0,354,26880,3327,344,,,,,,,,,,,,
653843,1560691925662,-1,2.49,2.16,3.42,2.38,5.04,0.96,-0.98,0.58,31,-5,50,1.37,6560,44,87,35,76,1450,343.0,311,458,60,117.0,286,1,366,422,100,0,0,355,110,-14714,342,45.701019,4.909806,30.95,201.3,6,1.6633,0,0.0,0.075,7,0.09,10.8974
653863,1560691925682,3,2.45,2.22,3.41,2.37,5.03,0.99,-0.96,0.65,29,-6,49,1.38,6514,44,87,35,75,1432,343.0,330,460,60,117.0,312,1,366,437,107,0,0,343,125,-30438,343,,,,,,,,,,,,
653883,1560691925702,2,2.42,2.28,3.34,2.37,5.06,0.94,-0.91,0.71,28,-6,48,1.31,6512,44,87,35,76,1397,343.0,347,458,60,118.0,312,1,364,437,107,0,0,349,135,6870,343,,,,,,,,,,,,
653903,1560691925722,-1,2.4,2.33,3.25,2.36,5.04,0.83,-0.8,0.67,26,-4,45,1.16,6485,44,87,35,76,1350,344.0,367,457,60,117.0,312,1,364,436,107,0,0,342,160,-1246,343,,,,,,,,,,,,
653923,1560691925742,2,2.37,2.39,3.22,2.34,5.08,0.88,-0.76,0.76,23,-5,41,1.16,6458,44,87,35,76,1306,344.0,391,450,60,118.0,312,1,363,436,107,0,0,342,160,-1246,343,,,,,,,,,,,,
653943,1560691925762,4,2.36,2.41,3.18,2.34,5.04,0.88,-0.65,0.77,22,-5,37,1.09,6425,44,87,35,76,1277,345.0,401,462,60,118.0,312,1,362,436,107,0,0,346,175,3183,344,45.701023,4.909814,30.85,201.2,6,1.6633,0,0.0,0.0767,7,0.09,10.899
653963,1560691925782,-1,2.33,2.43,3.18,2.31,5.06,0.78,-0.55,0.71,21,-3,35,0.95,6443,45,87,35,76,1249,345.0,413,455,60,117.0,306,1,362,436,106,0,0,347,4838,2811,345,,,,,,,,,,,,
653983,1560691925802,1,2.31,2.43,3.18,2.3,5.04,0.79,-0.49,0.72,18,-5,32,0.93,6483,45,87,35,76,1206,348.0,423,458,60,117.0,306,1,363,436,106,0,0,351,-122,28553,346,,,,,,,,,,,,
654003,1560691925822,3,2.3,2.43,3.19,2.28,5.04,0.79,-0.49,0.81,17,-6,29,0.93,6551,25,87,35,76,1173,349.0,423,450,60,119.0,306,1,366,437,106,0,0,353,-31206,28553,348,,,,,,,,,,,,
654023,1560691925842,1,2.29,2.43,3.19,2.27,5.04,0.73,-0.34,0.65,16,-4,27,0.8,6710,45,87,35,76,1155,351.0,437,465,60,117.0,306,1,371,1078,106,0,0,353,-30438,28553,349,,,,,,,,,,,,
654043,1560691925862,5,2.27,2.43,3.2,2.25,5.07,0.68,-0.28,0.69,14,-2,24,0.73,6766,45,87,35,75,1143,351.0,450,459,60,117.0,306,1,375,1030,106,0,0,360,2811,3302,349,45.701027,4.909823,31.77,201.2,6,1.6633,0,0.0,0.0783,7,0.09,10.9007
654063,1560691925882,1,2.25,2.43,3.18,2.24,5.05,0.65,-0.17,0.63,13,-1,23,0.67,6742,45,87,35,75,1124,354.0,450,455,60,116.0,737,1,374,1023,259,0,0,361,28553,-29978,351,,,,,,,,,,,,
654083,1560691925903,5,2.25,2.43,3.17,2.24,5.04,0.71,-0.24,0.76,11,-5,21,0.75,6648,45,87,35,75,1108,358.0,458,455,60,117.0,737,1,371,1012,259,0,0,361,3302,2060,353,,,,,,,,,,,,
654103,1560691925923,3,2.24,2.43,3.16,2.23,5.06,0.59,-0.16,0.76,10,-5,17,0.61,6403,45,87,35,75,1104,358.0,445,452,60,117.0,737,1,363,957,259,0,0,363,-29978,2790,355,,,,,,,,,,,,
654123,1560691925943,2,2.23,2.41,3.16,2.2,5.04,0.62,-0.09,0.66,8,-4,14,0.62,6345,45,87,35,75,1093,360.0,446,449,60,116.0,737,1,361,991,259,0,0,364,-14707,4104,354,,,,,,,,,,,,
654143,1560691925963,3,2.23,2.38,3.17,2.18,5.05,0.67,-0.1,0.61,7,-3,11,0.67,6423,45,87,35,76,1084,361.0,437,451,60,116.0,737,1,361,1026,259,0,0,361,-14707,2060,355,45.701035,4.909833,32.62,201.2,6,1.6633,0,0.0,0.08,7,0.09,10.9024
654163,1560691925983,3,2.24,2.36,3.17,2.17,5.04,0.78,-0.15,0.73,6,-5,9,0.79,6432,47,87,35,76,1075,360.0,442,455,60,117.0,704,1,362,1019,250,0,0,359,-14707,3183,356,,,,,,,,,,,,
654183,1560691925997,5,2.23,2.35,3.21,2.14,5.05,0.75,-0.1,0.7,5,-5,7,0.76,6351,49,87,35,77,1068,359.0,440,460,60,118.0,704,1,359,1025,250,0,0,359,-14707,3302,355,,,,,,,,,,,,
654203,1560691926017,1,2.23,2.34,3.22,2.14,5.06,0.74,-0.07,0.6,4,-3,7,0.75,6268,51,87,35,79,1042,359.0,446,452,60,116.0,704,1,355,1046,250,0,0,359,-14707,3302,355,,,,,,,,,,,,
654223,1560691926037,1,2.25,2.33,3.22,2.13,5.07,0.73,-0.14,0.6,3,-3,7,0.74,6366,52,87,35,80,1011,357.0,440,455,60,116.0,704,1,358,1056,250,0,0,360,-29302,-6640,356,,,,,,,,,,,,
654243,1560691926057,4,2.25,2.33,3.22,2.12,5.04,0.74,-0.19,0.68,2,-2,6,0.76,6349,53,87,35,81,972,359.0,441,450,60,117.0,704,1,357,1061,250,0,0,358,-29302,3302,354,45.701038,4.909843,34.03,201.1,6,1.6633,0,0.0,0.0817,7,0.09,10.904
654263,1560691926077,6,2.25,2.33,3.23,2.13,5.04,0.71,-0.1,0.65,2,-2,7,0.72,6334,53,87,34,81,931,357.0,436,456,60,117.0,714,1,356,1064,253,0,0,358,-29302,3302,354,,,,,,,,,,,,
654283,1560691926101,1,2.26,2.32,3.21,2.12,5.05,0.73,0.03,0.55,1,-1,8,0.73,6294,53,87,34,82,894,357.0,441,460,60,116.0,714,1,353,1068,253,0,0,360,-6640,-6644,353,,,,,,,,,,,,
654303,1560691926121,-0,2.27,2.32,3.22,2.13,5.06,0.82,-0.01,0.51,0,-3,7,0.82,6273,53,87,34,82,864,355.0,435,459,60,117.0,714,1,353,1061,253,0,0,358,4104,3302,353,,,,,,,,,,,,
654323,1560691926141,3,2.28,2.31,3.23,2.11,5.06,0.94,-0.11,0.57,-1,-7,5,0.95,6291,53,87,34,82,828,356.0,440,458,60,116.0,714,1,354,1053,253,0,0,352,4104,28553,353,,,,,,,,,,,,
654343,1560691926161,5,2.28,2.28,3.25,2.1,5.03,0.9,-0.08,0.64,-0,-7,3,0.9,6330,54,87,34,82,824,353.0,440,456,60,117.0,714,1,355,1047,253,0,0,352,4104,28553,353,45.701042,4.909853,34.12,201.1,6,1.6633,0,0.0,0.0833,7,0.09,10.9057
654363,1560691926181,5,2.29,2.26,3.27,2.08,5.08,0.79,-0.04,0.57,1,-3,2,0.79,6386,55,87,34,82,820,352.0,433,449,60,118.0,708,1,357,1042,250,0,0,345,3183,-14714,352,,,,,,,,,,,,
654383,1560691926201,-1,2.3,2.24,3.28,2.08,5.05,0.74,0.08,0.45,1,-1,2,0.74,6414,57,87,34,83,811,350.0,447,456,60,116.0,708,1,357,1047,250,0,0,345,3183,-14714,350,,,,,,,,,,,,
654403,1560691926221,3,2.29,2.23,3.3,2.07,5.04,0.87,-0.07,0.5,0,-3,1,0.87,6508,58,87,34,83,805,348.0,448,454,60,116.0,708,1,360,1043,250,0,0,341,-30454,-31206,349,,,,,,,,,,,,
654423,1560691926241,6,2.29,2.22,3.34,2.08,5.06,0.83,-0.08,0.56,1,-3,1,0.83,6555,59,87,34,84,803,347.0,445,454,60,117.0,708,1,360,1038,250,0,0,338,-1246,3327,348,,,,,,,,,,,,
654443,1560691926261,0,2.31,2.23,3.33,2.1,5.04,0.76,-0.03,0.41,1,-0,2,0.76,6595,60,87,34,84,800,345.0,453,456,60,116.0,708,1,361,1039,250,0,0,340,6870,-14714,347,45.701046,4.909862,34.21,201.1,6,1.6633,0,0.0,0.085,7,0.09,10.9074
654463,1560691926281,3,2.32,2.23,3.31,2.09,5.06,0.87,-0.1,0.49,1,-1,1,0.88,6485,60,87,34,84,804,347.0,460,453,60,118.0,750,1,357,1026,259,0,0,343,6870,-10554,345,,,,,,,,,,,,
654483,1560691926303,5,2.31,2.22,3.31,2.08,5.07,0.8,-0.09,0.52,2,1,2,0.81,6360,60,87,34,85,806,348.0,452,461,60,117.0,750,1,350,1011,259,0,0,344,-10554,-10554,347,,,,,,,,,,,,
654503,1560691926323,1,2.32,2.22,3.3,2.07,5.05,0.79,-0.06,0.46,2,2,2,0.79,6336,60,87,34,85,810,348.0,447,459,60,117.0,750,1,349,1010,259,0,0,342,6870,6870,348,,,,,,,,,,,,
654523,1560691926343,1,2.33,2.21,3.31,2.07,5.06,0.84,-0.08,0.47,2,2,3,0.84,6345,60,87,34,85,817,347.0,450,451,60,117.0,750,1,350,998,259,0,0,341,-10554,8841,348,,,,,,,,,,,,
654543,1560691926363,2,2.33,2.21,3.3,2.07,5.04,0.91,-0.16,0.54,2,0,3,0.92,6313,60,87,34,86,825,346.0,445,448,60,118.0,750,1,345,998,259,0,0,343,-31206,6870,347,45.701054,4.909872,34.02,201.0,6,1.6633,0,0.0,0.0867,7,0.09,10.909
654563,1560691926383,5,2.33,2.21,3.31,2.09,5.04,0.86,-0.18,0.56,3,1,3,0.88,6285,60,87,34,86,835,344.0,437,452,60,118.0,684,1,344,988,237,0,0,338,-122,-14714,346,,,,,,,,,,,,
654583,1560691926403,5,2.33,2.19,3.31,2.08,5.03,0.78,-0.07,0.49,4,2,4,0.78,6220,60,87,34,86,837,345.0,437,460,60,117.0,684,1,341,975,237,0,0,337,13,6870,344,,,,,,,,,,,,
654603,1560691926423,1,2.34,2.19,3.38,2.08,5.04,0.71,0.01,0.38,5,3,5,0.71,6175,60,87,34,86,839,344.0,437,462,60,117.0,684,1,340,965,237,0,0,334,2560,3327,345,,,,,,,,,,,,
654623,1560691926443,-0,2.35,2.19,3.4,2.08,5.08,0.73,0.01,0.29,4,4,6,0.73,6167,60,87,34,86,841,341.0,430,463,60,117.0,684,1,339,955,237,0,0,332,2560,2560,344,,,,,,,,,,,,
654643,1560691926463,1,2.34,2.19,3.36,2.07,5.06,0.86,-0.08,0.35,3,2,7,0.86,6161,61,87,34,86,845,341.0,432,461,60,117.0,684,1,340,946,237,0,0,329,4838,-32559,341,45.701061,4.909882,33.47,201.0,6,1.6633,0,0.0,0.0883,7,0.09,10.9107
654663,1560691926483,0,2.35,2.18,3.36,2.07,5.08,0.98,-0.16,0.35,2,1,7,0.99,6186,61,87,34,86,848,339.0,431,455,60,117.0,647,1,340,940,220,0,0,329,4838,-32559,341,,,,,,,,,,,,
654683,1560691926503,3,2.34,2.19,3.35,2.08,5.05,0.94,-0.08,0.38,2,-1,7,0.95,6208,61,87,34,86,849,339.0,433,458,60,116.0,647,1,341,934,220,0,0,327,175,170,339,,,,,,,,,,,,
654703,1560691926523,4,2.35,2.18,3.37,2.07,5.08,0.79,-0.05,0.35,3,-0,6,0.8,6210,61,87,34,86,865,337.0,435,452,60,118.0,647,1,341,926,220,0,0,327,175,170,339,,,,,,,,,,,,
654723,1560691926543,3,2.34,2.17,3.38,2.07,5.07,0.63,-0.02,0.29,5,2,5,0.63,6153,61,87,34,86,878,334.0,433,451,60,117.0,647,1,339,914,220,0,0,326,170,4838,337,,,,,,,,,,,,
654743,1560691926563,4,2.34,2.16,3.38,2.08,5.07,0.53,0.01,0.26,7,7,4,0.53,6093,61,87,34,86,895,334.0,435,448,60,118.0,647,1,336,902,220,0,0,324,-23296,-12032,334,45.701061,4.909892,33.83,200.9,6,1.6633,0,0.0,0.09,7,0.09,10.9124
654763,1560691926583,4,2.34,2.17,3.36,2.07,5.07,0.46,0.05,0.16,8,10,5,0.46,6089,61,87,34,86,915,333.0,427,456,60,118.0,614,1,336,894,206,0,0,324,-23296,-12032,334,,,,,,,,,,,,
654783,1560691926603,4,2.34,2.17,3.36,2.07,5.08,0.44,0.05,0.05,10,14,6,0.44,6131,61,87,34,86,932,332.0,428,456,60,117.0,614,1,338,887,206,0,0,324,-23296,-23296,333,,,,,,,,,,,,
654803,1560691926623,5,2.34,2.17,3.34,2.07,5.06,0.53,-0.02,0.01,10,16,7,0.53,6081,61,87,34,87,944,331.0,429,453,60,118.0,614,1,332,879,206,0,0,321,160,-22016,332,,,,,,,,,,,,
654823,1560691926643,9,2.34,2.17,3.33,2.08,5.04,0.66,-0.1,-0.0,9,18,9,0.67,6050,61,87,34,87,954,330.0,427,455,60,118.0,614,1,330,869,206,0,0,323,155,165,331,,,,,,,,,,,,
654843,1560691926663,3,2.35,2.17,3.34,2.08,5.05,0.79,-0.2,-0.01,8,19,11,0.82,6019,61,87,34,87,955,329.0,431,458,60,117.0,614,1,329,863,206,0,0,323,155,165,330,45.701069,4.909901,32.57,200.9,6,1.6633,0,0.0,0.0917,7,0.09,10.9141
654863,1560691926683,3,2.35,2.16,3.34,2.08,5.07,0.92,-0.26,0.0,7,20,11,0.95,6011,61,87,34,87,955,328.0,423,455,60,118.0,592,1,329,851,195,0,0,316,155,-24576,329,,,,,,,,,,,,
654883,1560691926703,-4,2.34,2.17,3.35,2.08,5.04,1.03,-0.3,0.05,6,20,12,1.07,5992,62,87,34,87,953,329.0,421,454,60,118.0,592,1,328,841,195,0,0,318,-27136,150,328,,,,,,,,,,,,
654903,1560691926723,-1,2.34,2.17,3.36,2.07,5.06,1.13,-0.36,0.09,5,19,13,1.18,6030,62,87,34,88,951,327.0,421,455,60,117.0,592,1,326,841,195,0,0,319,-27136,-24576,329,,,,,,,,,,,,
654923,1560691926743,-1,2.35,2.17,3.35,2.09,5.05,1.21,-0.42,0.14,4,19,14,1.28,6009,62,87,34,88,946,326.0,425,459,60,117.0,592,1,325,836,195,0,0,318,145,-23296,327,,,,,,,,,,,,
654943,1560691926763,12,2.33,2.16,3.34,2.08,5.07,1.28,-0.46,0.18,3,19,15,1.36,5986,62,87,34,88,943,325.0,417,453,60,118.0,592,1,324,822,195,0,0,317,145,-24576,326,45.701073,4.909911,32.13,200.9,6,1.6633,0,0.0,0.0933,7,0.1,10.9157
654963,1560691926783,4,2.34,2.16,3.33,2.08,5.07,1.36,-0.46,0.18,2,19,16,1.43,5965,62,87,34,88,938,324.0,419,453,60,118.0,572,1,323,818,186,0,0,315,140,-27136,325,,,,,,,,,,,,
654983,1560691926803,4,2.34,2.16,3.32,2.08,5.08,1.39,-0.44,0.17,1,20,16,1.45,5924,50,87,34,86,933,323.0,414,459,60,119.0,572,1,328,482,186,0,0,315,-28416,-23296,324,,,,,,,,,,,,
655003,1560691926823,3,2.34,2.17,3.3,2.09,5.07,1.34,-0.42,0.11,1,21,16,1.41,5922,33,87,34,82,932,323.0,415,452,60,118.0,572,1,339,467,186,0,0,314,140,-27136,323,,,,,,,,,,,,
655023,1560691926843,4,2.33,2.17,3.32,2.08,5.08,1.27,-0.41,0.08,2,22,16,1.34,5920,16,87,34,76,930,322.0,418,451,60,118.0,572,1,342,429,186,0,0,312,135,140,323,,,,,,,,,,,,
655043,1560691926863,2,2.35,2.17,3.33,2.08,5.05,1.1,-0.43,0.04,4,26,16,1.18,5841,9,87,34,69,919,323.0,416,449,60,119.0,572,1,345,323,186,0,0,312,135,140,323,45.70108,4.90992,31.61,200.9,6,1.6633,0,0.0,0.095,7,0.1,10.9174
655063,1560691926883,1,2.35,2.17,3.33,2.09,5.04,0.81,-0.48,0.01,7,29,16,0.95,5756,8,87,34,63,913,322.0,417,451,60,119.0,198,1,354,269,64,0,0,312,135,145,323,,,,,,,,,,,,
655083,1560691926902,0,2.34,2.16,3.34,2.09,5.04,0.57,-0.39,-0.0,10,27,16,0.7,5697,8,87,34,58,907,319.0,418,454,60,117.0,198,1,356,253,64,0,0,310,130,-28416,322,,,,,,,,,,,,
655103,1560691926922,-0,2.35,2.16,3.33,2.09,5.08,0.68,-0.32,0.07,9,20,16,0.76,5668,8,87,34,54,899,318.0,418,463,60,117.0,198,1,355,251,64,0,0,309,125,-28416,319,,,,,,,,,,,,
655123,1560691926942,2,2.35,2.16,3.34,2.09,5.06,0.82,-0.35,0.16,5,16,15,0.89,5647,8,87,33,51,891,315.0,413,465,60,118.0,198,1,347,236,64,0,0,306,125,130,317,,,,,,,,,,,,
655143,1560691926962,3,2.34,2.15,3.35,2.08,5.04,0.84,-0.38,0.17,5,19,14,0.93,5642,17,87,33,50,885,314.0,411,459,60,119.0,198,1,345,231,64,0,0,304,115,29440,315,45.70108,4.90993,31.26,200.9,6,1.6633,0,0.0,0.0967,7,0.1,10.9191
655163,1560691926982,-0,2.34,2.15,3.38,2.07,5.04,0.64,-0.39,0.13,8,20,13,0.75,5627,32,87,33,52,884,312.0,413,453,60,118.0,156,1,347,240,49,0,0,300,115,110,314,,,,,,,,,,,,
655183,1560691926996,1,2.34,2.15,3.37,2.07,5.07,0.64,-0.24,0.12,9,15,14,0.69,5613,48,87,33,60,884,310.0,415,457,60,116.0,156,1,349,254,49,0,0,299,110,26880,312,,,,,,,,,,,,
655203,1560691927016,4,2.35,2.16,3.35,2.08,5.08,0.78,-0.3,0.22,5,10,14,0.84,5617,61,87,33,69,887,308.0,407,457,60,118.0,156,1,329,322,49,0,0,299,105,26880,310,,,,,,,,,,,,
655223,1560691927036,3,2.34,2.15,3.35,2.08,5.04,0.8,-0.37,0.25,4,11,12,0.88,5617,70,87,33,80,892,307.0,400,458,60,119.0,156,1,321,432,49,0,0,300,26880,25600,308,,,,,,,,,,,,
655243,1560691927056,3,2.34,2.14,3.35,2.06,5.06,0.64,-0.31,0.26,7,11,12,0.71,6052,75,87,33,88,898,305.0,406,456,60,117.0,156,1,327,488,49,0,0,295,25600,95,307,45.701084,4.909939,30.93,200.8,6,1.6633,0,0.0,0.0983,7,0.1,10.9207
655263,1560691927076,4,2.34,2.14,3.35,2.07,5.04,0.48,-0.2,0.23,9,11,11,0.52,6539,78,87,33,92,903,306.0,423,457,60,118.0,396,1,345,520,121,0,0,298,25600,25600,305,,,,,,,,,,,,
655283,1560691927102,1,2.35,2.15,3.34,2.08,5.04,0.44,-0.2,0.33,9,11,11,0.49,6975,80,87,33,93,898,305.0,451,462,60,117.0,396,1,368,532,121,0,0,299,24320,29440,304,,,,,,,,,,,,
655303,1560691927122,3,2.34,2.15,3.32,2.09,5.04,0.41,-0.18,0.3,9,7,12,0.45,7396,80,87,33,93,893,305.0,482,456,60,117.0,396,1,400,550,121,0,0,295,90,30720,305,,,,,,,,,,,,
655323,1560691927142,-0,2.36,2.19,3.31,2.12,5.06,0.43,-0.14,0.47,8,4,13,0.45,7416,81,87,33,92,885,309.0,500,458,60,117.0,396,1,403,551,121,0,0,300,90,29440,305,,,,,,,,,,,,
655343,1560691927162,-1,2.35,2.28,3.22,2.2,5.06,0.42,-0.08,0.54,7,4,12,0.43,7189,81,87,33,92,878,317.0,497,457,60,118.0,396,1,385,541,121,0,0,339,28160,-12032,309,45.701088,4.909948,30.23,200.8,6,1.6633,0,0.0,0.1,7,0.1,10.9224
655363,1560691927182,4,2.35,2.39,3.09,2.33,5.04,0.37,-0.07,0.69,7,3,12,0.38,6903,75,87,33,93,849,326.0,487,449,60,118.0,438,1,365,531,140,0,0,419,120,505,317,,,,,,,,,,,,
655383,1560691927202,1,2.34,2.48,2.98,2.39,5.04,0.25,-0.05,0.78,7,4,9,0.25,6776,54,87,33,90,818,330.0,481,461,60,117.0,438,1,359,529,140,0,0,413,130,-6475,326,,,,,,,,,,,,
655403,1560691927222,4,2.34,2.54,2.96,2.43,5.05,0.26,-0.08,0.86,7,1,7,0.27,6472,30,87,33,84,795,338.0,475,456,60,118.0,438,1,357,488,140,0,0,335,-25856,2811,330,,,,,,,,,,,,
655423,1560691927242,3,2.35,2.53,2.97,2.46,5.07,0.28,-0.04,0.87,8,1,6,0.28,6005,11,87,33,75,774,344.0,456,459,60,118.0,438,1,350,436,140,0,0,347,165,2060,338,,,,,,,,,,,,
655443,1560691927262,3,2.35,2.54,3.04,2.46,5.06,0.27,-0.03,0.8,9,2,5,0.27,5681,5,87,33,68,741,348.0,430,456,60,118.0,438,1,334,323,140,0,0,347,-6528,3183,344,45.701092,4.909958,29.66,200.7,6,1.6633,0,0.0,0.1017,7,0.1,10.9241
655463,1560691927282,0,2.36,2.51,3.16,2.46,5.06,0.22,-0.08,0.77,11,1,5,0.24,5490,5,87,33,63,712,345.0,419,452,60,117.0,179,1,333,274,62,0,0,347,2560,3183,348,,,,,,,,,,,,
655483,1560691927302,3,2.37,2.46,3.28,2.42,5.07,0.4,-0.04,0.79,10,-4,6,0.4,5403,4,87,33,59,702,345.0,405,455,60,118.0,179,1,331,256,62,0,0,341,2560,-31206,345,,,,,,,,,,,,
655503,1560691927322,-1,2.37,2.39,3.38,2.38,5.07,0.32,-0.08,0.75,9,-2,6,0.33,5257,4,87,33,56,695,347.0,393,460,60,118.0,179,1,320,251,62,0,0,336,13,2811,345,,,,,,,,,,,,
655523,1560691927342,4,2.36,2.35,3.46,2.33,5.05,0.46,-0.08,0.71,10,-3,7,0.47,5155,4,87,33,54,689,349.0,385,465,60,118.0,179,1,311,241,62,0,0,332,3346,-30438,347,,,,,,,,,,,,
655543,1560691927362,1,2.37,2.32,3.46,2.33,5.04,0.44,-0.09,0.57,10,-1,7,0.45,5189,11,87,33,53,686,347.0,382,455,60,117.0,179,1,315,237,62,0,0,333,13,-31222,349,45.701099,4.909968,31.28,200.7,6,1.6633,0,0.0,0.1033,7,0.1,10.9257
655563,1560691927382,3,2.38,2.3,3.47,2.3,5.04,0.6,-0.09,0.51,10,-3,8,0.6,5304,23,87,33,54,685,343.0,379,460,60,119.0,136,1,324,244,47,0,0,319,3346,-24576,347,,,,,,,,,,,,
655583,1560691927402,-2,2.38,2.24,3.47,2.25,5.06,0.46,-0.14,0.45,10,2,7,0.48,5423,33,87,33,57,688,342.0,385,456,60,117.0,136,1,333,252,47,0,0,316,-12032,-23296,343,,,,,,,,,,,,
655603,1560691927422,-1,2.39,2.21,3.45,2.21,5.04,0.51,-0.12,0.44,11,-1,10,0.52,5521,41,87,33,62,700,340.0,391,461,60,117.0,136,1,338,265,47,0,0,311,170,-30976,342,,,,,,,,,,,,
655623,1560691927442,5,2.39,2.18,3.44,2.19,5.05,0.66,-0.12,0.38,9,-1,11,0.67,5681,47,87,33,67,716,335.0,396,464,60,118.0,136,1,337,302,47,0,0,318,165,-28416,340,,,,,,,,,,,,
655643,1560691927462,5,2.39,2.15,3.44,2.17,5.03,0.7,-0.11,0.32,9,2,11,0.71,6208,51,87,33,72,731,332.0,412,457,60,119.0,136,1,360,375,47,0,0,315,-27136,150,333,45.701103,4.909978,32.53,200.7,6,1.6633,0,0.0,0.105,7,0.1,10.9274
655663,1560691927482,1,2.39,2.14,3.44,2.15,5.06,0.75,-0.18,0.35,9,4,12,0.77,6689,52,87,33,76,743,332.0,440,461,60,117.0,298,1,370,425,99,0,0,314,145,-20736,332,,,,,,,,,,,,
655683,1560691927502,4,2.4,2.13,3.41,2.16,5.04,0.71,-0.19,0.34,10,5,14,0.73,6918,52,87,33,77,768,332.0,462,456,60,118.0,298,1,378,452,99,0,0,314,145,-20736,332,,,,,,,,,,,,
655703,1560691927522,4,2.4,2.14,3.38,2.16,5.05,0.84,-0.31,0.5,9,5,14,0.89,7250,53,87,33,78,804,332.0,487,457,60,118.0,298,1,395,460,99,0,0,316,140,175,333,,,,,,,,,,,,
655723,1560691927542,4,2.4,2.14,3.37,2.16,5.07,0.75,-0.34,0.5,10,2,17,0.82,7631,53,87,33,77,834,331.0,512,455,60,118.0,298,1,416,454,99,0,0,316,-28416,175,332,,,,,,,,,,,,
655743,1560691927562,5,2.4,2.18,3.34,2.2,5.04,0.57,-0.38,0.59,11,2,18,0.69,7690,53,87,33,76,857,331.0,517,456,60,117.0,298,1,420,446,99,0,0,315,140,-20736,331,45.701103,4.909989,32.6,200.6,6,1.6633,0,0.0,0.1067,7,0.1,10.9291
655763,1560691927582,3,2.39,2.28,3.28,2.28,5.05,0.47,-0.34,0.67,12,2,18,0.58,7449,53,87,33,76,864,342.0,523,456,60,117.0,382,1,406,433,128,0,0,350,145,28553,331,,,,,,,,,,,,
655783,1560691927602,3,2.38,2.37,3.17,2.38,5.08,0.38,-0.35,0.8,12,4,18,0.52,7078,53,87,33,76,859,347.0,509,458,60,118.0,382,1,385,446,128,0,0,419,-22016,8200,342,,,,,,,,,,,,
655803,1560691927622,2,2.38,2.45,3.09,2.44,5.08,0.27,-0.31,0.72,12,7,20,0.41,6957,53,87,33,78,847,355.0,497,453,60,117.0,382,1,379,459,128,0,0,435,175,1,350,,,,,,,,,,,,
655823,1560691927642,5,2.37,2.49,3.04,2.45,5.04,0.29,-0.22,0.78,12,6,17,0.36,6833,53,87,33,79,819,360.0,481,456,60,118.0,382,1,374,464,128,0,0,355,-10554,1,360,,,,,,,,,,,,
655843,1560691927662,2,2.36,2.5,3.04,2.44,5.07,0.35,-0.23,0.86,12,5,16,0.42,6667,53,87,33,80,788,365.0,475,462,60,117.0,382,1,368,469,128,0,0,365,2811,3,365,45.701107,4.909999,31.97,200.6,6,1.6633,0,0.0,0.1083,7,0.1,10.9307
655863,1560691927682,2,2.36,2.49,3.11,2.45,5.06,0.31,-0.2,0.85,12,2,14,0.37,6658,53,87,33,80,756,367.0,468,445,60,118.0,323,1,368,468,118,0,0,372,-6644,2278,367,,,,,,,,,,,,
655883,1560691927702,1,2.36,2.49,3.19,2.44,5.05,0.37,-0.27,0.8,12,1,13,0.46,6783,53,87,33,81,728,371.0,469,457,60,117.0,323,1,371,476,118,0,0,372,-6644,2278,367,,,,,,,,,,,,
655903,1560691927722,4,2.34,2.48,3.22,2.42,5.05,0.35,-0.27,0.76,11,1,13,0.45,6934,53,87,33,81,723,371.0,476,456,60,118.0,323,1,376,479,118,0,0,368,-29302,742,371,,,,,,,,,,,,
655923,1560691927742,3,2.33,2.48,3.25,2.4,5.05,0.46,-0.31,0.86,10,0,14,0.56,7115,52,87,33,80,721,373.0,489,457,60,118.0,323,1,386,475,118,0,0,373,2790,-6656,372,,,,,,,,,,,,
655943,1560691927762,2,2.34,2.47,3.25,2.39,5.08,0.32,-0.28,0.72,11,1,14,0.42,7350,52,87,33,79,718,376.0,497,454,60,118.0,323,1,400,476,118,0,0,375,-1268,-6656,373,45.701111,4.91001,32.89,200.5,6,1.6633,0,0.0,0.11,7,0.1,10.9324
655963,1560691927782,3,2.32,2.45,3.25,2.36,5.05,0.31,-0.24,0.71,10,1,12,0.39,7473,53,87,32,78,718,379.0,509,460,60,117.0,348,1,407,469,132,0,0,381,0,-19019,376,,,,,,,,,,,,
655983,1560691927802,2,2.32,2.45,3.23,2.36,5.04,0.28,-0.18,0.68,10,1,12,0.34,7597,53,87,32,78,719,383.0,515,458,60,117.0,348,1,415,461,132,0,0,389,-6656,-1562,379,,,,,,,,,,,,
656003,1560691927822,2,2.33,2.45,3.16,2.37,5.06,0.35,-0.15,0.66,9,0,12,0.38,7591,53,87,32,76,725,386.0,521,453,60,118.0,348,1,414,453,132,0,0,395,3,-3968,383,,,,,,,,,,,,
656023,1560691927842,3,2.33,2.47,3.14,2.38,5.08,0.35,-0.22,0.63,8,-0,12,0.41,7588,53,87,32,76,732,390.0,526,453,60,118.0,348,1,414,446,132,0,0,399,-992,6384,386,,,,,,,,,,,,
656043,1560691927862,4,2.32,2.47,3.12,2.36,5.05,0.3,-0.18,0.61,9,1,12,0.35,7515,53,87,32,75,738,395.0,526,454,60,118.0,348,1,412,446,132,0,0,410,-19019,-8151,390,45.701115,4.910022,34.77,200.5,6,1.6633,0,0.0,0.1117,7,0.1,10.934
656063,1560691927882,4,2.32,2.47,3.11,2.37,5.04,0.28,-0.16,0.59,9,1,11,0.32,7506,53,87,32,76,742,399.0,519,461,60,117.0,315,1,409,446,126,0,0,412,-6656,9517,399,,,,,,,,,,,,
656083,1560691927903,5,2.33,2.47,3.12,2.37,5.04,0.3,-0.15,0.48,9,1,10,0.33,7536,53,87,32,76,746,403.0,521,455,60,117.0,315,1,411,446,126,0,0,412,-6656,9517,399,,,,,,,,,,,,
656103,1560691927923,4,2.33,2.47,3.15,2.37,5.06,0.22,-0.22,0.42,9,2,10,0.31,7690,53,87,32,75,746,407.0,521,453,60,118.0,315,1,422,434,126,0,0,415,6384,-4059,403,,,,,,,,,,,,
656123,1560691927943,5,2.34,2.45,3.18,2.36,5.07,0.19,-0.28,0.44,9,3,9,0.34,7822,53,87,32,75,745,410.0,525,455,60,117.0,315,1,429,435,126,0,0,415,10541,-21944,408,,,,,,,,,,,,
656143,1560691927963,2,2.34,2.44,3.21,2.35,5.04,0.18,-0.33,0.45,9,3,10,0.38,8033,53,87,32,73,742,415.0,533,453,60,117.0,315,1,442,416,126,0,0,425,2524,-3414,415,45.701118,4.910035,36.38,200.4,6,1.6633,0,0.0,0.1133,7,0.11,10.9357
656163,1560691927983,5,2.34,2.44,3.23,2.35,5.04,0.2,-0.31,0.45,9,3,10,0.37,8245,53,87,32,70,737,417.0,548,452,60,118.0,301,1,440,401,125,0,0,425,2524,-3414,415,,,,,,,,,,,,
656183,1560691927997,2,2.35,2.44,3.24,2.35,5.06,0.24,-0.34,0.57,9,3,10,0.41,8359,53,87,32,68,732,421.0,560,451,60,117.0,301,1,436,376,125,0,0,434,18584,243,421,,,,,,,,,,,,
656203,1560691928017,5,2.35,2.45,3.19,2.37,5.06,0.25,-0.24,0.64,9,2,10,0.35,8438,53,87,32,66,728,426.0,565,452,60,118.0,301,1,439,365,125,0,0,434,18584,243,421,,,,,,,,,,,,
656223,1560691928037,4,2.36,2.47,3.15,2.39,5.06,0.23,-0.21,0.7,9,2,9,0.31,8411,53,87,32,65,726,432.0,566,462,60,118.0,301,1,441,357,125,0,0,444,-21944,10305,426,,,,,,,,,,,,
656243,1560691928057,2,2.36,2.46,3.14,2.39,5.04,0.29,-0.26,0.73,9,2,9,0.39,8385,53,87,32,64,726,438.0,576,462,60,118.0,301,1,443,350,125,0,0,458,13180,14488,438,45.701122,4.910047,38.58,200.4,6,1.6633,0,0.0,0.115,7,0.11,10.9374
656263,1560691928077,3,2.36,2.45,3.15,2.39,5.07,0.28,-0.28,0.75,9,2,9,0.39,8374,53,87,32,64,733,444.0,575,454,60,118.0,247,1,444,349,109,0,0,458,13180,14488,438,,,,,,,,,,,,
656283,1560691928103,1,2.37,2.45,3.15,2.38,5.05,0.37,-0.27,0.79,9,3,9,0.46,8393,53,87,32,63,742,449.0,572,456,60,117.0,247,1,444,343,109,0,0,454,21580,12552,449,,,,,,,,,,,,
656303,1560691928123,1,2.37,2.45,3.19,2.4,5.07,0.35,-0.21,0.8,9,2,8,0.41,8514,53,87,32,63,750,452.0,582,461,60,118.0,247,1,442,349,109,0,0,454,21580,12552,449,,,,,,,,,,,,
656323,1560691928143,2,2.4,2.45,3.19,2.4,5.05,0.28,-0.24,0.83,9,1,8,0.37,8660,53,87,32,63,762,455.0,585,464,60,118.0,247,1,429,351,109,0,0,458,20625,-26615,452,,,,,,,,,,,,
656343,1560691928163,2,2.41,2.43,3.24,2.4,5.06,0.33,-0.33,0.93,9,0,8,0.47,8794,53,87,32,62,780,459.0,593,451,60,117.0,247,1,417,348,109,0,0,470,2131,-9203,461,45.701122,4.910061,39.96,200.4,6,1.6633,0,0.0,0.1167,7,0.11,10.939
656363,1560691928183,4,2.41,2.43,3.26,2.41,5.04,0.43,-0.45,0.95,10,-2,7,0.63,8915,53,87,32,61,811,465.0,596,458,60,117.0,252,1,405,346,117,0,0,470,2131,-9203,461,,,,,,,,,,,,
656383,1560691928203,2,2.42,2.4,3.26,2.43,5.08,0.51,-0.56,0.95,10,-2,9,0.75,9005,53,87,32,61,824,468.0,605,449,60,117.0,252,1,396,348,117,0,0,470,8488,16648,465,,,,,,,,,,,,
656403,1560691928223,4,2.43,2.38,3.26,2.43,5.08,0.62,-0.67,0.9,10,-3,9,0.91,9084,53,87,32,61,844,473.0,598,448,60,118.0,252,1,399,348,117,0,0,482,3571,2212,468,,,,,,,,,,,,
656423,1560691928243,5,2.44,2.37,3.27,2.45,5.04,0.74,-0.8,0.99,10,-4,10,1.09,9137,53,87,32,61,864,476.0,597,459,60,118.0,252,1,400,341,117,0,0,485,2524,505,475,,,,,,,,,,,,
656443,1560691928263,5,2.42,2.35,3.28,2.45,5.02,0.77,-0.92,1.07,11,-3,11,1.2,9191,53,87,32,60,898,482.0,613,458,60,118.0,252,1,401,341,117,0,0,494,2524,-1562,476,45.701126,4.910075,42.45,200.4,6,1.6633,0,0.0,0.1183,7,0.11,10.9407
656463,1560691928283,3,2.45,2.35,3.28,2.47,5.04,0.7,-0.96,1.16,12,-3,11,1.18,9250,53,87,32,60,914,487.0,615,461,60,117.0,247,1,404,342,120,0,0,489,-9160,-6528,482,,,,,,,,,,,,
656483,1560691928303,1,2.44,2.35,3.29,2.47,5.04,0.51,-0.88,1.13,13,0,11,1.01,9295,53,87,32,59,923,492.0,609,455,60,117.0,247,1,404,342,120,0,0,490,12552,771,489,,,,,,,,,,,,
656503,1560691928323,2,2.45,2.35,3.31,2.48,5.08,0.41,-0.75,1.01,14,2,12,0.86,9342,53,87,32,59,932,495.0,625,463,60,117.0,247,1,407,342,120,0,0,510,10432,2109,495,,,,,,,,,,,,
656523,1560691928343,3,2.45,2.36,3.31,2.51,5.04,0.57,-0.7,0.94,14,1,13,0.9,9464,53,87,32,59,939,498.0,625,453,60,118.0,247,1,408,338,120,0,0,510,10432,2109,495,,,,,,,,,,,,
656543,1560691928363,-0,2.45,2.35,3.33,2.51,5.06,0.65,-0.83,0.94,14,0,13,1.05,9546,53,87,32,59,938,498.0,618,459,60,117.0,247,1,410,340,120,0,0,505,32033,15661,498,45.701126,4.91009,44.4,200.4,6,1.6633,0,0.0,0.12,7,0.11,10.9424
656563,1560691928383,4,2.44,2.34,3.35,2.5,5.04,0.45,-0.69,0.89,15,2,16,0.82,9585,53,87,32,58,931,505.0,620,452,60,117.0,244,1,408,337,123,0,0,509,-9203,-21872,498,,,,,,,,,,,,
656583,1560691928401,4,2.43,2.32,3.35,2.5,5.05,0.51,-0.64,0.92,15,-1,17,0.82,9650,53,87,32,58,921,509.0,628,458,60,118.0,244,1,407,339,123,0,0,510,16648,-21872,505,,,,,,,,,,,,
656603,1560691928421,0,2.44,2.31,3.35,2.51,5.06,0.55,-0.69,1.02,16,-3,17,0.88,9704,53,87,32,58,913,512.0,630,463,60,117.0,244,1,406,341,123,0,0,520,-899,-8187,508,,,,,,,,,,,,
656623,1560691928441,3,2.43,2.31,3.36,2.5,5.07,0.42,-0.59,0.9,16,-2,18,0.72,9806,53,86,32,57,903,515.0,624,456,60,118.0,244,1,404,337,123,0,0,519,-899,-8187,514,,,,,,,,,,,,
656643,1560691928461,1,2.42,2.31,3.37,2.49,5.06,0.52,-0.62,0.96,16,-2,18,0.81,9842,53,86,32,57,899,517.0,615,457,60,117.0,244,1,404,338,123,0,0,522,1,2524,513,45.70113,4.910107,46.64,200.3,6,1.6633,0,0.0,0.1217,7,0.11,10.944
656663,1560691928481,3,2.43,2.31,3.37,2.5,5.05,0.48,-0.62,0.86,16,-2,20,0.79,9878,53,86,32,57,893,520.0,633,454,60,117.0,244,1,404,339,127,0,0,532,248,-22519,519,,,,,,,,,,,,
656683,1560691928503,3,2.41,2.31,3.36,2.5,5.08,0.54,-0.64,0.9,17,-0,19,0.84,9978,53,87,32,57,887,523.0,627,456,60,117.0,244,1,404,341,127,0,0,528,998,-9072,522,,,,,,,,,,,,
656703,1560691928523,2,2.4,2.31,3.35,2.5,5.08,0.54,-0.71,0.86,16,-0,19,0.89,10005,53,87,32,57,885,524.0,626,453,60,117.0,244,1,403,342,127,0,0,535,15661,-28648,524,,,,,,,,,,,,
656723,1560691928543,3,2.4,2.32,3.35,2.49,5.07,0.51,-0.67,0.78,17,0,19,0.84,9989,53,87,32,57,884,531.0,633,456,60,117.0,244,1,404,342,127,0,0,535,15661,-28648,524,,,,,,,,,,,,
656743,1560691928563,4,2.4,2.31,3.34,2.49,5.04,0.59,-0.65,0.82,17,1,19,0.88,10053,53,87,32,57,884,529.0,629,461,60,117.0,244,1,405,342,127,0,0,548,-3856,-8186,531,45.701134,4.910123,48.35,200.3,6,1.6633,0,0.0,0.1233,7,0.11,10.9457
656763,1560691928583,2,2.39,2.31,3.35,2.49,5.07,0.59,-0.63,0.81,16,0,19,0.86,10059,53,86,32,57,884,534.0,631,453,60,117.0,244,1,406,343,130,0,0,548,-3856,-8186,531,,,,,,,,,,,,
656783,1560691928603,1,2.39,2.31,3.38,2.48,5.03,0.53,-0.66,0.81,16,-1,18,0.84,10129,53,87,32,57,885,537.0,637,461,60,117.0,244,1,408,344,130,0,0,540,-14,1779,534,,,,,,,,,,,,
656803,1560691928623,4,2.38,2.31,3.38,2.47,5.04,0.54,-0.64,0.82,16,1,18,0.83,10240,53,86,32,57,886,539.0,623,456,60,117.0,244,1,412,346,130,0,0,542,1341,-22519,539,,,,,,,,,,,,
656823,1560691928643,3,2.38,2.32,3.36,2.45,5.07,0.68,-0.64,0.9,15,-1,18,0.94,10251,53,87,31,57,887,542.0,638,454,60,117.0,244,1,412,347,130,0,0,542,1341,-22519,539,,,,,,,,,,,,
656843,1560691928663,5,2.37,2.32,3.37,2.45,5.04,0.72,-0.62,0.88,15,-4,18,0.96,10336,53,87,31,57,886,545.0,632,457,60,117.0,244,1,415,347,130,0,0,544,2524,14504,542,45.701138,4.910141,50.06,200.3,6,1.6633,0,0.0,0.125,7,0.11,10.9474
656863,1560691928683,3,2.37,2.32,3.36,2.46,5.04,0.66,-0.67,0.81,14,-4,18,0.94,10336,53,87,31,58,886,545.0,627,455,60,116.0,255,1,420,358,139,0,0,553,2088,-32248,545,,,,,,,,,,,,
656883,1560691928703,3,2.35,2.31,3.34,2.44,5.08,0.58,-0.62,0.73,14,-4,17,0.85,10416,53,87,31,58,884,547.0,629,460,60,117.0,255,1,424,358,139,0,0,556,-9072,6273,545,,,,,,,,,,,,
656903,1560691928723,3,2.34,2.32,3.32,2.43,5.05,0.41,-0.55,0.73,14,-3,16,0.69,10445,53,86,31,58,883,549.0,638,455,60,117.0,255,1,425,359,139,0,0,554,14504,-22359,547,,,,,,,,,,,,
656923,1560691928743,2,2.33,2.32,3.3,2.42,5.06,0.38,-0.5,0.7,14,-3,17,0.62,10428,53,86,31,58,879,552.0,636,456,60,117.0,255,1,426,359,139,0,0,560,-32248,-28648,549,,,,,,,,,,,,
656943,1560691928763,4,2.32,2.31,3.27,2.4,5.06,0.34,-0.41,0.65,13,-1,16,0.53,10492,53,86,31,58,877,555.0,627,459,60,117.0,255,1,428,360,139,0,0,556,-30064,-22263,552,45.701138,4.910159,51.12,200.3,6,1.6633,0,0.0,0.1267,7,0.12,10.949
656963,1560691928783,3,2.3,2.33,3.27,2.4,5.04,0.41,-0.37,0.69,12,-2,15,0.55,10533,53,86,31,58,874,558.0,632,458,60,117.0,258,1,428,360,144,0,0,561,-8962,-28648,557,,,,,,,,,,,,
656983,1560691928803,3,2.29,2.35,3.27,2.38,5.07,0.3,-0.35,0.65,11,-1,15,0.46,10545,53,86,31,58,873,556.0,632,454,60,117.0,258,1,428,362,144,0,0,565,2524,2211,558,,,,,,,,,,,,
657003,1560691928823,2,2.29,2.37,3.26,2.36,5.08,0.27,-0.31,0.61,10,-1,15,0.41,10593,53,86,31,58,872,556.0,638,458,60,116.0,258,1,428,362,144,0,0,566,-9072,12552,556,,,,,,,,,,,,
657023,1560691928843,2,2.28,2.38,3.23,2.32,5.05,0.26,-0.3,0.62,8,-0,15,0.4,10695,53,86,31,58,872,559.0,642,455,60,117.0,258,1,428,364,144,0,0,568,6273,259,559,,,,,,,,,,,,
657043,1560691928863,4,2.27,2.4,3.21,2.31,5.07,0.22,-0.24,0.58,8,1,14,0.32,10744,53,86,31,58,873,562.0,637,457,60,117.0,258,1,428,365,144,0,0,568,6273,259,559,45.701138,4.910178,52.45,200.2,6,1.6633,0,0.0,0.1283,7,0.12,10.9507
657063,1560691928883,4,2.26,2.46,3.18,2.31,5.07,0.32,-0.13,0.61,7,-1,12,0.34,10732,53,86,31,58,873,564.0,628,453,60,117.0,264,1,428,365,148,0,0,576,-23623,1,557,,,,,,,,,,,,
657083,1560691928902,5,2.25,2.47,3.17,2.31,5.04,0.47,-0.13,0.74,6,-2,9,0.48,10813,53,86,31,58,873,567.0,638,458,60,117.0,264,1,428,367,148,0,0,581,1780,-16384,565,,,,,,,,,,,,
657103,1560691928922,-1,2.25,2.47,3.17,2.3,5.08,0.5,-0.17,0.83,5,-2,9,0.53,10800,53,86,31,57,872,570.0,640,463,60,119.0,264,1,421,358,148,0,0,581,1780,-16384,565,,,,,,,,,,,,
657123,1560691928942,0,2.25,2.47,3.12,2.28,5.08,0.47,-0.17,0.82,4,-1,7,0.5,10504,53,86,31,58,872,572.0,640,456,60,119.0,264,1,428,361,148,0,0,584,-8188,30208,568,,,,,,,,,,,,
657143,1560691928962,-1,2.24,2.47,3.11,2.27,5.04,0.51,-0.15,0.77,4,-1,5,0.53,10118,53,86,31,60,873,575.0,643,461,60,118.0,264,1,415,370,148,0,0,584,-8188,30208,568,45.701138,4.910196,53.66,200.1,6,1.6633,0,0.0,0.13,7,0.12,10.9524
657163,1560691928982,-0,2.22,2.46,3.13,2.24,5.05,0.46,-0.03,0.77,3,-2,4,0.46,9936,53,86,31,61,873,572.0,641,458,60,118.0,249,1,410,373,142,0,0,581,259,1267,568,,,,,,,,,,,,
657183,1560691928996,-1,2.23,2.44,3.17,2.22,5.06,0.61,-0.09,0.7,1,-3,4,0.61,9745,53,86,31,62,872,575.0,636,461,60,117.0,249,1,412,368,142,0,0,578,-8188,-8186,568,,,,,,,,,,,,
657203,1560691929016,0,2.23,2.43,3.2,2.17,5.06,0.49,0.11,0.65,0,-3,4,0.5,9479,53,86,31,63,874,577.0,635,458,60,118.0,249,1,413,357,142,0,0,573,259,1267,567,,,,,,,,,,,,
657223,1560691929036,6,2.23,2.42,3.19,2.15,5.04,0.64,-0.07,0.78,-2,-8,3,0.65,9250,53,86,31,63,874,575.0,623,450,60,117.0,249,1,407,586,142,0,0,575,1,-28648,566,,,,,,,,,,,,
657243,1560691929056,6,2.23,2.45,3.17,2.14,5.08,0.65,-0.18,0.88,-2,-4,2,0.68,8806,53,86,31,63,946,578.0,602,456,60,117.0,249,1,417,527,142,0,0,606,8488,6208,570,45.701138,4.910216,54.84,200.1,6,1.6633,0,0.0,0.1317,7,0.12,10.9541
657263,1560691929076,2,2.22,2.51,3.09,2.18,5.05,0.71,-0.33,0.98,-3,-5,-0,0.78,8374,53,86,31,63,1045,586.0,581,453,60,117.0,281,1,445,454,161,0,0,606,8488,6208,570,,,,,,,,,,,,
657283,1560691929102,3,2.2,2.59,2.97,2.24,5.04,0.66,-0.22,0.94,-4,-5,-0,0.7,8227,54,86,31,63,1145,589.0,568,456,60,118.0,281,1,447,394,161,0,0,611,3472,-7939,579,,,,,,,,,,,,
657303,1560691929122,2,2.19,2.63,2.88,2.26,5.07,0.61,-0.18,1.0,-4,-5,-1,0.63,8054,54,86,31,65,1244,599.0,557,459,60,117.0,281,1,449,344,161,0,0,611,3472,-7939,579,,,,,,,,,,,,
657323,1560691929142,2,2.2,2.63,2.83,2.23,5.04,0.64,-0.1,1.02,-5,-7,-3,0.65,7999,53,86,31,66,1344,599.0,558,456,60,118.0,281,1,449,357,161,0,0,611,30227,30227,579,,,,,,,,,,,,
657343,1560691929162,1,2.19,2.62,2.84,2.21,5.04,0.65,0.0,0.95,-6,-7,-3,0.65,8078,53,86,31,68,1444,599.0,556,456,60,117.0,281,1,448,360,161,0,0,608,30227,4956,585,45.701138,4.910236,55.1,200.0,6,1.6633,0,0.0,0.1333,7,0.12,10.9557
657363,1560691929182,2,2.2,2.62,2.88,2.19,5.08,0.6,0.05,0.93,-6,-7,-5,0.6,8267,52,86,31,67,1498,602.0,561,457,60,117.0,194,1,442,365,114,0,0,611,5344,-3210,586,,,,,,,,,,,,
657383,1560691929202,1,2.19,2.61,3.02,2.18,5.04,0.66,0.14,0.88,-6,-7,-6,0.67,8404,52,86,31,66,1498,606.0,565,456,60,117.0,194,1,440,363,114,0,0,610,-768,30227,588,,,,,,,,,,,,
657403,1560691929222,2,2.19,2.61,3.07,2.18,5.06,0.58,0.22,0.84,-7,-6,-7,0.62,8503,52,86,31,65,1454,608.0,568,456,60,117.0,194,1,438,355,114,0,0,620,17740,-16883,590,,,,,,,,,,,,
657423,1560691929242,3,2.2,2.6,3.06,2.19,5.03,0.67,0.18,0.91,-8,-7,-9,0.69,8507,52,86,31,63,1364,609.0,574,454,60,117.0,194,1,442,349,114,0,0,620,17740,-16883,590,,,,,,,,,,,,
657443,1560691929262,0,2.19,2.61,3.04,2.18,5.06,0.63,0.23,0.79,-8,-6,-9,0.67,8542,52,86,31,62,1252,615.0,570,455,60,117.0,194,1,441,343,114,0,0,626,-30139,771,592,45.701138,4.910256,56.06,200.0,6,1.6633,0,0.0,0.135,7,0.12,10.9574
657463,1560691929282,4,2.2,2.62,3.01,2.18,5.04,0.6,0.25,0.82,-8,-4,-8,0.65,8526,52,86,31,62,1163,616.0,571,457,60,118.0,183,1,443,343,110,0,0,630,26688,16599,596,,,,,,,,,,,,
657483,1560691929304,1,2.2,2.62,2.95,2.18,5.05,0.7,0.18,0.87,-8,-3,-10,0.72,8514,52,86,31,62,1104,621.0,571,457,60,117.0,183,1,444,343,110,0,0,629,26688,20993,600,,,,,,,,,,,,
657503,1560691929324,2,2.18,2.62,2.95,2.18,5.06,0.76,0.17,0.84,-9,-3,-10,0.77,8514,52,86,31,61,1014,623.0,576,452,60,117.0,183,1,445,337,110,0,0,630,-18357,20993,604,,,,,,,,,,,,
657523,1560691929344,2,2.2,2.61,2.94,2.16,5.05,0.73,0.28,0.87,-9,-2,-9,0.78,8561,52,86,31,61,988,625.0,584,463,60,118.0,183,1,440,338,110,0,0,627,3395,-14655,606,,,,,,,,,,,,
657543,1560691929364,2,2.2,2.61,2.94,2.15,5.05,0.6,0.34,0.87,-9,-3,-9,0.69,8600,52,86,31,61,1005,627.0,583,459,60,118.0,183,1,436,339,110,0,0,634,-1346,966,609,45.701138,4.910277,57.28,200.0,6,1.6633,0,0.0,0.1367,7,0.12,10.9591
657563,1560691929384,2,2.2,2.6,2.95,2.15,5.04,0.65,0.36,0.91,-10,-3,-10,0.74,8664,52,86,31,60,1021,627.0,582,458,60,117.0,177,1,424,340,108,0,0,638,771,771,612,,,,,,,,,,,,
657583,1560691929402,-1,2.19,2.6,2.99,2.16,5.04,0.78,0.27,0.98,-10,-3,-11,0.83,8720,52,86,31,60,1056,631.0,586,454,60,117.0,177,1,419,333,108,0,0,638,771,771,612,,,,,,,,,,,,
657603,1560691929422,5,2.2,2.6,2.98,2.15,5.06,0.76,0.34,0.93,-10,-2,-11,0.83,8741,52,86,31,60,1073,633.0,593,466,60,118.0,177,1,418,334,108,0,0,643,771,11776,617,,,,,,,,,,,,
657623,1560691929442,3,2.2,2.61,2.97,2.16,5.08,0.64,0.47,0.74,-9,-1,-11,0.79,8778,51,86,31,60,1085,635.0,597,453,60,118.0,177,1,415,335,108,0,0,638,-5120,6208,618,,,,,,,,,,,,
657643,1560691929462,4,2.2,2.6,2.98,2.15,5.04,0.46,0.62,0.76,-9,-0,-11,0.77,8794,51,86,31,59,1093,639.0,588,448,60,117.0,177,1,410,327,108,0,0,647,6208,-388,622,45.701141,4.910298,58.42,199.9,6,1.6633,0,0.0,0.1383,7,0.13,10.9607
657663,1560691929482,4,2.19,2.61,2.98,2.15,5.04,0.47,0.5,0.79,-10,-1,-12,0.69,8836,51,86,31,59,1112,639.0,593,451,60,118.0,177,1,408,328,111,0,0,647,6208,-388,622,,,,,,,,,,,,
657683,1560691929504,3,2.18,2.61,2.98,2.15,5.06,0.61,0.36,0.91,-11,-2,-13,0.71,8852,51,86,31,59,1122,642.0,590,457,60,117.0,177,1,407,328,111,0,0,645,6208,-6006,625,,,,,,,,,,,,
657703,1560691929524,2,2.18,2.6,2.97,2.15,5.08,0.76,0.17,0.96,-11,-2,-13,0.77,8886,51,86,31,59,1129,646.0,590,456,60,117.0,177,1,404,328,111,0,0,653,-2830,-388,625,,,,,,,,,,,,
657723,1560691929544,1,2.17,2.61,2.95,2.14,5.04,0.88,0.17,0.97,-11,-1,-12,0.9,8890,51,86,31,58,1132,645.0,591,466,60,118.0,177,1,402,322,111,0,0,660,11566,-26380,630,,,,,,,,,,,,
657743,1560691929564,0,2.18,2.6,2.93,2.14,5.04,0.92,0.22,1.0,-11,-0,-12,0.95,8932,48,86,31,58,1132,648.0,598,457,60,118.0,177,1,400,323,111,0,0,660,11566,-26380,630,45.701141,4.910319,59.43,199.9,6,1.6633,0,0.0,0.14,7,0.13,10.9624
657763,1560691929584,1,2.17,2.6,2.94,2.13,5.04,0.97,0.32,0.94,-11,0,-12,1.02,8941,46,86,31,56,1132,652.0,595,461,60,117.0,169,1,399,308,107,0,0,659,479,-2830,631,,,,,,,,,,,,
657783,1560691929604,1,2.17,2.6,2.94,2.12,5.05,0.95,0.45,0.85,-11,0,-12,1.05,8979,44,86,31,55,1129,655.0,606,466,60,117.0,169,1,399,303,107,0,0,659,24583,-3488,635,,,,,,,,,,,,
657803,1560691929624,1,2.16,2.6,2.94,2.11,5.07,0.93,0.6,0.81,-12,2,-12,1.11,9001,43,86,31,53,1123,657.0,605,458,60,117.0,169,1,395,287,107,0,0,668,31988,-388,636,,,,,,,,,,,,
657823,1560691929644,-0,2.16,2.62,2.94,2.09,5.04,0.95,0.74,0.73,-12,1,-11,1.2,9023,43,86,31,52,1120,660.0,615,458,60,118.0,169,1,391,278,107,0,0,665,-10344,1549,635,,,,,,,,,,,,
657843,1560691929664,1,2.15,2.67,2.93,2.09,5.04,0.97,0.87,0.7,-12,3,-10,1.3,9036,42,86,31,51,1115,661.0,615,455,60,117.0,169,1,387,270,107,0,0,665,-10344,1549,635,45.701141,4.910341,60.45,199.9,6,1.6633,0,0.0,0.1417,7,0.13,10.9641
657863,1560691929684,0,2.13,2.67,2.93,2.08,5.04,1.03,0.85,0.7,-12,1,-10,1.33,9075,41,86,31,50,1114,664.0,616,458,60,117.0,139,1,383,261,89,0,0,667,-2345,-388,640,,,,,,,,,,,,
657883,1560691929704,1,2.12,2.68,2.94,2.07,5.04,1.13,0.89,0.7,-13,1,-10,1.44,9036,40,86,31,49,1113,662.0,607,452,60,117.0,139,1,379,251,89,0,0,671,-2345,3543,638,,,,,,,,,,,,
657903,1560691929724,2,2.11,2.68,2.93,2.04,5.07,1.13,0.9,0.73,-14,-0,-11,1.44,9093,40,86,31,48,1091,667.0,610,459,60,117.0,139,1,375,242,89,0,0,666,3543,-2345,637,,,,,,,,,,,,
657923,1560691929744,2,2.12,2.67,2.92,2.02,5.03,1.2,0.86,0.73,-15,1,-12,1.47,9146,39,86,31,47,1074,667.0,603,452,60,117.0,139,1,372,234,89,0,0,670,-10348,6208,639,,,,,,,,,,,,
657943,1560691929764,4,2.1,2.69,2.91,2.03,5.04,1.28,0.59,0.83,-15,0,-13,1.41,9204,39,86,31,47,1057,668.0,610,452,60,117.0,139,1,367,232,89,0,0,669,-3578,-2826,639,45.701145,4.910363,61.4,199.8,6,1.6633,0,0.0,0.1433,7,0.13,10.9657
657963,1560691929784,1,2.11,2.69,2.92,2.01,5.06,1.33,0.42,0.84,-16,1,-16,1.39,9218,39,86,31,46,1045,667.0,615,457,60,118.0,125,1,367,232,80,0,0,672,-2830,-2345,637,,,,,,,,,,,,
657983,1560691929802,5,2.11,2.68,2.92,2.0,5.03,1.16,0.38,0.81,-16,3,-18,1.22,9227,39,86,31,45,1024,671.0,615,452,60,117.0,125,1,360,229,80,0,0,678,8958,-26892,643,,,,,,,,,,,,
658003,1560691929822,5,2.11,2.67,2.88,1.97,5.04,1.04,0.54,0.75,-16,4,-19,1.18,9227,39,86,31,45,1003,675.0,616,458,60,117.0,125,1,360,229,80,0,0,678,8958,-26892,643,,,,,,,,,,,,
658023,1560691929842,1,2.12,2.67,2.9,1.94,5.03,0.95,0.69,0.63,-17,6,-21,1.18,9218,38,86,31,45,992,679.0,615,461,60,117.0,125,1,360,229,80,0,0,677,-2345,8958,642,,,,,,,,,,,,
658043,1560691929862,1,2.11,2.68,2.91,1.94,5.05,0.91,0.82,0.59,-17,7,-22,1.23,9254,38,86,31,44,988,676.0,618,466,60,118.0,125,1,354,227,80,0,0,679,-10344,3543,644,45.701149,4.910385,61.82,199.8,6,1.6633,0,0.0,0.145,7,0.13,10.9674
658063,1560691929882,2,2.11,2.68,2.9,1.93,5.06,1.02,0.78,0.68,-18,4,-22,1.29,9277,38,86,31,44,981,675.0,625,453,60,117.0,123,1,354,227,79,0,0,679,-10344,3543,644,,,,,,,,,,,,
658083,1560691929903,2,2.1,2.71,2.9,1.95,5.07,1.1,0.59,0.74,-18,3,-23,1.25,9241,38,86,31,44,977,671.0,618,456,60,117.0,123,1,353,227,79,0,0,679,-2345,-26380,643,,,,,,,,,,,,
658103,1560691929923,3,2.1,2.73,2.88,1.95,5.07,1.0,0.45,0.75,-18,1,-23,1.1,9191,38,86,31,44,975,670.0,617,457,60,118.0,123,1,353,226,79,0,0,685,8958,-10346,641,,,,,,,,,,,,
658123,1560691929943,6,2.11,2.74,2.91,1.96,5.05,0.8,0.5,0.74,-17,2,-23,0.94,9177,38,86,31,44,975,673.0,623,448,60,118.0,123,1,353,226,79,0,0,677,8958,-26562,640,,,,,,,,,,,,
658143,1560691929963,4,2.1,2.74,2.93,1.94,5.04,0.61,0.65,0.54,-16,4,-24,0.9,9173,38,86,31,44,976,674.0,612,461,60,118.0,123,1,353,226,79,0,0,682,-2345,31988,643,45.701153,4.910407,62.27,199.7,6,1.6633,0,0.0,0.1467,7,0.13,10.9691
658163,1560691929983,-1,2.12,2.73,2.96,1.91,5.06,0.59,0.79,0.54,-17,4,-23,0.99,9195,38,86,31,44,977,674.0,610,457,60,117.0,122,1,353,226,79,0,0,681,-26380,16118,645,,,,,,,,,,,,
658183,1560691929997,1,2.12,2.71,3.01,1.87,5.08,0.67,0.91,0.54,-17,5,-24,1.13,9291,38,86,31,43,978,681.0,613,456,60,117.0,122,1,347,227,79,0,0,679,-10344,-2830,644,,,,,,,,,,,,
658203,1560691930017,1,2.14,2.71,3.0,1.87,5.05,0.75,0.87,0.54,-18,3,-25,1.14,9360,38,86,30,43,979,682.0,612,467,60,117.0,122,1,348,225,79,0,0,687,-10344,24845,649,,,,,,,,,,,,
658223,1560691930037,2,2.15,2.7,2.97,1.86,5.07,0.88,0.6,0.65,-18,2,-27,1.06,9384,38,86,30,43,981,681.0,620,459,60,117.0,122,1,348,225,79,0,0,687,-10344,24845,649,,,,,,,,,,,,
658243,1560691930057,4,2.15,2.71,2.91,1.86,5.04,0.7,0.64,0.65,-18,4,-28,0.95,9346,38,86,30,43,987,681.0,621,458,60,118.0,122,1,348,225,79,0,0,691,3543,-26380,646,45.70116,4.910428,62.41,199.7,6,1.6633,0,0.0,0.1483,7,0.14,10.9707
658263,1560691930077,-0,2.16,2.7,2.84,1.87,5.08,0.59,0.78,0.55,-18,5,-27,0.97,9309,38,86,30,43,989,681.0,619,460,60,117.0,121,1,348,225,79,0,0,686,-26562,24,646,,,,,,,,,,,,
658283,1560691930103,2,2.14,2.71,2.8,1.88,5.04,0.73,0.9,0.55,-18,3,-24,1.16,9245,38,86,30,43,992,676.0,622,456,60,117.0,121,1,347,224,79,0,0,692,-26562,-2345,646,,,,,,,,,,,,
658303,1560691930123,2,2.15,2.7,2.8,1.87,5.07,0.86,0.74,0.69,-19,1,-24,1.14,9177,38,86,30,43,998,679.0,620,452,60,117.0,121,1,346,224,79,0,0,682,-2826,-2345,647,,,,,,,,,,,,
658323,1560691930143,4,2.14,2.68,2.81,1.84,5.06,0.95,0.55,0.73,-19,-1,-24,1.1,9159,38,86,30,43,1012,680.0,623,458,60,118.0,121,1,346,223,79,0,0,684,16118,-2826,652,,,,,,,,,,,,
658343,1560691930163,4,2.14,2.68,2.82,1.82,5.07,0.89,0.45,0.75,-18,-1,-25,1.0,9186,38,86,30,43,1021,679.0,616,458,60,118.0,121,1,346,224,79,0,0,680,-10346,24,650,45.701164,4.91045,61.87,199.7,6,1.6633,0,0.0,0.15,7,0.14,10.9724
658363,1560691930183,5,2.14,2.67,2.86,1.8,5.06,0.81,0.47,0.72,-18,1,-27,0.93,9259,38,86,30,43,1027,682.0,609,461,60,117.0,119,1,347,224,78,0,0,685,-2345,11576,654,,,,,,,,,,,,
658383,1560691930203,1,2.14,2.68,2.94,1.82,5.05,0.61,0.62,0.6,-17,2,-27,0.87,9319,38,86,30,43,1040,680.0,622,459,60,117.0,119,1,348,225,78,0,0,682,-10344,-26892,654,,,,,,,,,,,,
658403,1560691930223,2,2.15,2.68,2.94,1.84,5.04,0.7,0.74,0.54,-17,3,-26,1.02,9356,38,86,30,43,1051,682.0,620,455,60,117.0,119,1,348,225,78,0,0,679,16118,-10346,652,,,,,,,,,,,,
658423,1560691930243,3,2.16,2.68,2.94,1.87,5.04,0.84,0.57,0.64,-17,2,-26,1.01,9319,37,86,30,43,1065,679.0,617,451,60,117.0,119,1,348,222,78,0,0,685,16118,-2345,654,,,,,,,,,,,,
658443,1560691930263,5,2.16,2.71,2.93,1.92,5.08,0.88,0.39,0.68,-16,2,-26,0.96,9309,35,86,30,42,1070,678.0,618,457,60,117.0,119,1,341,222,78,0,0,682,-10346,6208,650,45.701172,4.91047,62.82,199.6,6,1.6633,0,0.0,0.1517,7,0.14,10.974
658463,1560691930283,4,2.15,2.72,2.94,1.92,5.04,0.59,0.54,0.58,-15,3,-27,0.8,9272,33,86,30,41,1080,678.0,615,457,60,118.0,118,1,333,219,77,0,0,682,-10346,6208,650,,,,,,,,,,,,
658483,1560691930303,0,2.16,2.71,2.99,1.91,5.04,0.48,0.69,0.44,-14,5,-26,0.84,9218,31,86,30,40,1087,680.0,617,453,60,118.0,118,1,326,214,77,0,0,683,16118,3543,656,,,,,,,,,,,,
658503,1560691930323,-0,2.18,2.68,3.01,1.86,5.08,0.58,0.82,0.39,-15,4,-24,1.0,9200,31,86,30,38,1097,684.0,614,456,60,117.0,118,1,317,210,77,0,0,683,16118,3543,656,,,,,,,,,,,,
658523,1560691930343,2,2.18,2.66,3.03,1.83,5.08,0.69,0.9,0.41,-15,4,-24,1.13,9186,30,86,30,37,1100,682.0,615,460,60,117.0,118,1,314,207,77,0,0,683,24845,16118,662,,,,,,,,,,,,
658543,1560691930363,3,2.18,2.66,3.02,1.83,5.05,0.82,0.78,0.5,-16,1,-24,1.13,9227,29,86,30,36,1101,684.0,616,461,60,117.0,118,1,311,205,77,0,0,683,24845,-26892,659,45.70118,4.910491,63.36,199.5,6,1.6633,0,0.0,0.1533,7,0.14,10.9757
658563,1560691930383,3,2.17,2.65,3.0,1.84,5.06,0.94,0.56,0.63,-16,-2,-24,1.1,9250,29,86,30,36,1100,683.0,619,458,60,118.0,109,1,311,205,72,0,0,683,24845,-26892,659,,,,,,,,,,,,
658583,1560691930403,5,2.18,2.65,2.93,1.85,5.04,0.91,0.46,0.71,-16,-1,-25,1.01,9222,28,86,30,35,1099,683.0,617,455,60,117.0,109,1,308,201,72,0,0,681,3543,-26380,658,,,,,,,,,,,,
658603,1560691930423,5,2.18,2.65,2.9,1.84,5.08,0.71,0.59,0.6,-15,-0,-25,0.93,9150,24,86,30,33,1095,680.0,619,457,60,117.0,109,1,302,194,72,0,0,681,3543,-26380,658,,,,,,,,,,,,
658623,1560691930443,5,2.18,2.65,2.89,1.84,5.04,0.62,0.73,0.47,-14,1,-24,0.96,9084,21,86,30,31,1087,680.0,608,461,60,118.0,109,1,295,189,72,0,0,684,16118,-2345,659,,,,,,,,,,,,
658643,1560691930463,7,2.17,2.64,2.93,1.83,5.05,0.59,0.86,0.39,-14,-1,-23,1.04,9014,20,86,30,30,1077,676.0,617,453,60,118.0,109,1,291,188,72,0,0,675,-3038,-2345,647,45.701187,4.910512,63.38,199.5,6,1.6633,0,0.0,0.155,7,0.14,10.9774
658663,1560691930483,8,2.18,2.62,2.97,1.82,5.04,0.51,0.98,0.26,-13,-1,-22,1.1,8941,20,86,30,28,1059,674.0,608,458,60,117.0,98,1,282,188,64,0,0,675,-3038,-2345,647,,,,,,,,,,,,
658683,1560691930503,14,2.18,2.59,3.06,1.78,5.04,0.44,1.08,0.22,-13,-0,-22,1.17,8844,19,86,30,28,1051,673.0,620,456,60,117.0,98,1,282,188,64,0,0,666,-26380,24,647,,,,,,,,,,,,
658703,1560691930523,13,2.2,2.55,3.11,1.75,5.08,0.39,1.12,0.16,-12,1,-22,1.18,8729,19,86,30,27,1041,672.0,613,458,60,117.0,98,1,278,188,64,0,0,666,-26380,24,647,,,,,,,,,,,,
658723,1560691930543,10,2.2,2.52,3.14,1.75,5.06,0.39,1.0,0.26,-12,2,-24,1.08,8600,19,86,30,27,1006,667.0,614,457,60,118.0,98,1,278,188,64,0,0,671,-3038,6208,646,,,,,,,,,,,,
658743,1560691930563,11,2.2,2.52,3.18,1.76,5.05,0.55,0.8,0.29,-13,1,-25,0.97,8522,18,86,30,26,985,665.0,596,460,60,118.0,98,1,274,188,64,0,0,657,-10348,3395,638,45.701199,4.910531,64.71,199.5,6,1.6633,0,0.0,0.1567,7,0.15,10.979
658763,1560691930583,13,2.21,2.5,3.14,1.76,5.07,0.63,0.8,0.26,-13,-0,-24,1.02,8396,18,86,30,26,964,662.0,582,457,60,118.0,91,1,273,181,58,0,0,657,-10348,3395,638,,,,,,,,,,,,
658783,1560691930603,10,2.22,2.48,3.1,1.75,5.07,0.7,0.76,0.31,-13,-1,-24,1.03,8227,18,86,30,26,939,657.0,576,456,60,117.0,91,1,273,172,58,0,0,659,-10344,20993,635,,,,,,,,,,,,
658803,1560691930623,14,2.21,2.47,3.05,1.75,5.03,0.72,0.87,0.3,-13,-1,-22,1.13,8054,18,86,30,26,916,654.0,562,457,60,118.0,91,1,273,163,58,0,0,661,8958,-14655,634,,,,,,,,,,,,
658823,1560691930643,11,2.2,2.46,3.05,1.75,5.08,0.73,0.73,0.35,-12,1,-22,1.03,8005,18,86,30,27,878,646.0,550,458,60,117.0,91,1,275,161,58,0,0,646,-3488,-16883,630,,,,,,,,,,,,
658843,1560691930663,14,2.21,2.44,3.09,1.74,5.07,0.8,0.77,0.3,-12,-1,-22,1.11,8109,18,86,30,26,869,643.0,554,457,60,117.0,91,1,273,166,58,0,0,639,4909,-23055,624,45.701206,4.91055,64.36,199.5,6,1.6633,0,0.0,0.1583,7,0.15,10.9807
658863,1560691930683,17,2.21,2.4,3.14,1.72,5.08,0.82,0.75,0.21,-11,-1,-22,1.11,8191,18,86,30,27,854,637.0,565,455,60,118.0,84,1,276,171,52,0,0,623,244,2048,621,,,,,,,,,,,,
658883,1560691930703,14,2.21,2.37,3.22,1.7,5.08,0.87,0.7,0.26,-11,-2,-22,1.12,8220,18,86,30,27,844,627.0,572,460,60,117.0,84,1,276,173,52,0,0,606,-5120,8488,620,,,,,,,,,,,,
658903,1560691930723,17,2.21,2.35,3.27,1.71,5.04,0.9,0.7,0.15,-11,-2,-21,1.14,8194,18,86,30,27,837,627.0,565,457,60,118.0,84,1,276,171,52,0,0,611,771,774,617,,,,,,,,,,,,
658923,1560691930743,13,2.22,2.35,3.29,1.7,5.07,0.97,0.64,0.19,-11,-1,-20,1.16,8099,18,86,30,27,836,623.0,569,458,60,117.0,84,1,276,165,52,0,0,614,20993,-23623,606,,,,,,,,,,,,
658943,1560691930763,16,2.21,2.35,3.3,1.7,5.06,0.94,0.74,0.11,-11,-0,-19,1.2,8009,18,86,30,27,838,619.0,575,458,60,117.0,84,1,275,161,52,0,0,611,3395,-23623,603,45.701218,4.910567,63.02,199.5,6,1.6633,0,0.0,0.16,7,0.15,10.9824
658963,1560691930783,15,2.22,2.35,3.28,1.7,5.07,1.01,0.65,0.05,-12,0,-18,1.2,7931,18,86,30,26,840,613.0,560,460,60,118.0,80,1,272,160,48,0,0,606,16529,1760,595,,,,,,,,,,,,
658983,1560691930803,14,2.21,2.35,3.26,1.71,5.05,1.06,0.61,0.18,-12,1,-18,1.22,7832,18,86,30,27,841,612.0,557,456,60,118.0,80,1,274,161,48,0,0,606,16529,1760,595,,,,,,,,,,,,
659003,1560691930823,12,2.21,2.32,3.2,1.67,5.05,1.07,0.62,0.14,-12,2,-18,1.24,7703,18,86,30,27,841,606.0,551,459,60,119.0,80,1,273,161,48,0,0,608,1010,-8188,593,,,,,,,,,,,,
659023,1560691930843,12,2.22,2.3,3.21,1.68,5.07,1.05,0.69,0.02,-12,3,-17,1.26,7649,18,86,30,27,840,600.0,542,458,60,119.0,80,1,272,163,48,0,0,595,-23055,-8186,588,,,,,,,,,,,,
659043,1560691930863,14,2.21,2.29,3.2,1.68,5.04,1.02,0.71,-0.0,-11,3,-18,1.25,7612,18,86,30,28,840,595.0,550,461,60,118.0,80,1,276,163,48,0,0,590,-3210,-28648,584,45.701225,4.910584,61.74,199.4,6,1.6633,0,0.0,0.1617,7,0.15,10.984
659063,1560691930883,14,2.22,2.27,3.2,1.65,5.05,1.02,0.69,-0.09,-10,3,-19,1.24,7612,18,86,30,28,838,586.0,538,462,60,118.0,81,1,276,163,47,0,0,575,-16179,-22519,574,,,,,,,,,,,,
659083,1560691930902,13,2.21,2.24,3.24,1.65,5.08,1.07,0.6,-0.21,-10,2,-18,1.22,7506,17,86,30,28,838,585.0,542,458,60,118.0,81,1,275,163,47,0,0,566,-1894,-32248,575,,,,,,,,,,,,
659103,1560691930922,17,2.2,2.23,3.24,1.66,5.06,1.08,0.53,-0.31,-9,4,-16,1.2,7408,17,86,30,29,839,577.0,532,462,60,118.0,81,1,278,245,47,0,0,564,259,-30064,560,,,,,,,,,,,,
659123,1560691930942,14,2.21,2.23,3.25,1.66,5.06,1.06,0.49,-0.33,-9,3,-15,1.17,7341,17,86,30,29,840,571.0,526,459,60,117.0,81,1,278,227,47,0,0,564,259,-30064,560,,,,,,,,,,,,
659143,1560691930962,14,2.21,2.23,3.27,1.67,5.04,1.05,0.53,-0.42,-9,3,-16,1.18,7437,17,86,30,29,842,567.0,525,463,60,116.0,81,1,278,211,47,0,0,557,-30159,-4054,551,45.701237,4.9106,59.82,199.4,6,1.6633,0,0.0,0.1633,7,0.15,10.9857
659163,1560691930982,16,2.2,2.22,3.27,1.66,5.06,1.04,0.6,-0.55,-8,4,-16,1.2,7327,17,86,30,30,846,561.0,522,457,60,116.0,102,1,282,196,56,0,0,557,-30159,-4054,551,,,,,,,,,,,,
659183,1560691930996,15,2.21,2.22,3.28,1.67,5.08,1.06,0.6,-0.54,-9,4,-16,1.22,7292,17,86,30,30,849,553.0,517,460,60,115.0,102,1,282,179,56,0,0,551,-18032,-14,546,,,,,,,,,,,,
659203,1560691931016,12,2.22,2.22,3.28,1.67,5.05,1.11,0.57,-0.34,-10,2,-16,1.25,7208,17,86,30,30,869,552.0,511,460,60,116.0,102,1,282,166,56,0,0,547,-9072,-22519,545,,,,,,,,,,,,
659223,1560691931036,19,2.21,2.2,3.28,1.66,5.03,1.21,0.42,-0.19,-11,-1,-17,1.28,7217,17,86,30,31,922,544.0,515,460,60,117.0,102,1,286,166,56,0,0,545,-28648,2088,538,,,,,,,,,,,,
659243,1560691931056,18,2.21,2.19,3.31,1.65,5.07,1.22,0.39,-0.21,-10,-1,-16,1.28,7461,17,86,30,31,954,540.0,524,462,60,117.0,102,1,286,167,56,0,0,500,-506,32033,530,45.701244,4.910614,57.55,199.4,6,1.6633,0,0.0,0.165,7,0.15,10.9874
659263,1560691931076,16,2.21,2.16,3.33,1.65,5.07,1.3,0.32,-0.24,-9,1,-14,1.34,7578,17,86,30,30,992,535.0,535,458,60,118.0,89,1,282,166,47,0,0,464,6274,11560,524,,,,,,,,,,,,
659283,1560691931102,18,2.21,2.15,3.35,1.65,5.06,1.37,0.27,-0.19,-9,-0,-14,1.4,7786,17,86,30,30,1036,530.0,534,462,60,118.0,89,1,283,166,47,0,0,399,2524,-18948,517,,,,,,,,,,,,
659303,1560691931122,13,2.22,2.15,3.36,1.67,5.07,1.42,0.25,-0.05,-10,-2,-15,1.44,7735,17,86,31,30,1109,525.0,539,456,60,117.0,89,1,283,166,47,0,0,399,2524,-18948,517,,,,,,,,,,,,
659323,1560691931142,14,2.22,2.14,3.36,1.67,5.08,1.41,0.24,-0.05,-10,-2,-16,1.43,7697,17,86,31,30,1145,518.0,538,458,60,117.0,89,1,283,166,47,0,0,395,2088,240,507,,,,,,,,,,,,
659343,1560691931162,14,2.21,2.15,3.33,1.66,5.04,1.35,0.3,-0.05,-11,-2,-15,1.38,7712,17,86,31,30,1168,512.0,535,458,60,117.0,89,1,283,166,47,0,0,453,1341,-9211,504,45.701256,4.910628,55.22,199.3,6,1.6633,0,0.0,0.1667,7,0.16,10.989
659363,1560691931182,16,2.2,2.14,3.33,1.63,5.04,1.27,0.41,0.01,-11,-3,-15,1.33,7828,17,86,31,29,1166,508.0,543,457,60,118.0,97,1,280,166,48,0,0,476,17136,-3414,495,,,,,,,,,,,,
659383,1560691931202,17,2.2,2.13,3.33,1.61,5.04,1.21,0.43,-0.08,-10,-2,-15,1.29,7982,17,86,31,29,1146,504.0,544,459,60,118.0,97,1,281,164,48,0,0,436,-3414,-6524,490,,,,,,,,,,,,
659403,1560691931222,15,2.2,2.13,3.34,1.61,5.07,1.29,0.33,-0.03,-11,-4,-16,1.33,7884,17,86,31,29,1119,500.0,546,456,60,118.0,97,1,280,163,48,0,0,443,-9216,0,480,,,,,,,,,,,,
659423,1560691931242,16,2.2,2.14,3.35,1.61,5.06,1.37,0.35,0.08,-12,-5,-16,1.41,7828,17,86,31,29,1061,494.0,551,461,60,117.0,97,1,280,164,48,0,0,443,-9216,0,480,,,,,,,,,,,,
659443,1560691931262,14,2.19,2.14,3.32,1.61,5.04,1.34,0.42,0.1,-12,-5,-16,1.4,7793,17,86,31,28,1027,485.0,548,460,60,118.0,97,1,276,163,48,0,0,470,-6656,-19126,469,45.701263,4.910641,53.1,199.3,6,1.6633,0,0.0,0.1683,7,0.16,10.9907
659463,1560691931282,16,2.19,2.16,3.26,1.6,5.07,1.25,0.58,-0.05,-12,-4,-15,1.37,7741,17,86,31,28,969,482.0,552,456,60,118.0,103,1,276,163,48,0,0,479,-6441,-31744,466,,,,,,,,,,,,
659483,1560691931302,18,2.18,2.2,3.26,1.6,5.04,1.26,0.5,-0.16,-12,-4,-15,1.36,7776,17,86,31,28,933,476.0,543,456,60,118.0,103,1,276,163,48,0,0,473,-899,-19019,458,,,,,,,,,,,,
659503,1560691931322,13,2.18,2.2,3.26,1.59,5.07,1.3,0.43,-0.07,-12,-3,-16,1.37,7757,17,86,31,28,933,471.0,550,456,60,118.0,103,1,276,163,48,0,0,464,-23367,257,451,,,,,,,,,,,,
659523,1560691931342,13,2.17,2.2,3.28,1.59,5.04,1.33,0.39,-0.0,-12,-5,-17,1.39,7731,17,86,31,28,931,465.0,547,457,60,118.0,103,1,276,163,48,0,0,453,30272,4104,444,,,,,,,,,,,,
659543,1560691931362,14,2.18,2.19,3.32,1.59,5.08,1.3,0.46,-0.0,-12,-5,-18,1.38,7656,17,86,31,28,925,463.0,544,460,60,117.0,103,1,276,164,48,0,0,453,30272,4104,444,45.701275,4.910653,50.14,199.2,6,1.6633,0,0.0,0.17,7,0.16,10.9924
659563,1560691931382,16,2.17,2.19,3.32,1.59,5.04,1.31,0.53,0.03,-13,-6,-17,1.42,7554,17,86,31,28,921,455.0,533,459,60,117.0,107,1,275,163,47,0,0,447,2211,742,439,,,,,,,,,,,,
659583,1560691931402,16,2.16,2.2,3.31,1.59,5.04,1.27,0.63,0.05,-13,-6,-18,1.42,7591,17,86,31,29,916,453.0,528,455,60,117.0,107,1,279,164,47,0,0,430,-3267,28696,426,,,,,,,,,,,,
659603,1560691931422,14,2.16,2.2,3.32,1.57,5.06,1.2,0.77,-0.02,-13,-6,-19,1.43,7603,17,86,31,28,911,447.0,542,460,60,118.0,107,1,276,164,47,0,0,430,-3267,28696,426,,,,,,,,,,,,
659623,1560691931442,15,2.16,2.19,3.34,1.55,5.07,1.16,0.83,-0.15,-13,-5,-19,1.43,7631,17,86,31,28,909,444.0,538,458,60,118.0,107,1,276,164,47,0,0,421,10305,3,420,,,,,,,,,,,,
659643,1560691931462,15,2.16,2.19,3.38,1.54,5.06,1.07,0.83,-0.21,-12,-3,-20,1.36,7524,16,86,31,29,906,438.0,535,456,60,118.0,107,1,279,164,47,0,0,419,23400,-6405,413,45.701282,4.910663,47.16,199.2,6,1.6633,0,0.0,0.1717,7,0.16,10.994
659663,1560691931482,16,2.15,2.19,3.35,1.55,5.07,1.02,0.8,-0.27,-13,-2,-20,1.3,7488,16,86,31,29,908,434.0,532,458,60,118.0,112,1,278,164,46,0,0,421,21580,770,411,,,,,,,,,,,,
659683,1560691931504,14,2.15,2.2,3.31,1.55,5.05,1.04,0.84,-0.42,-13,-1,-19,1.34,7411,16,86,31,29,909,431.0,538,456,60,117.0,112,1,278,164,46,0,0,426,-768,-19126,405,,,,,,,,,,,,
659703,1560691931524,16,2.14,2.2,3.3,1.55,5.04,1.0,0.86,-0.57,-13,1,-19,1.31,7367,16,86,31,29,911,424.0,526,460,60,117.0,112,1,278,164,46,0,0,414,-3414,-19126,395,,,,,,,,,,,,
659723,1560691931544,14,2.15,2.19,3.29,1.54,5.07,0.95,0.91,-0.59,-13,2,-20,1.32,7292,16,86,31,29,915,418.0,529,460,60,117.0,112,1,278,164,46,0,0,414,-3414,-19126,395,,,,,,,,,,,,
659743,1560691931564,14,2.14,2.2,3.29,1.53,5.05,0.94,1.0,-0.54,-13,3,-22,1.37,7250,16,86,31,30,915,414.0,517,455,60,118.0,112,1,282,166,46,0,0,404,2524,-6405,387,45.701294,4.910673,45.01,199.2,6,1.6633,0,0.0,0.1733,7,0.16,10.9957
659763,1560691931584,13,2.15,2.2,3.28,1.55,5.04,1.01,0.88,-0.42,-14,2,-22,1.34,7200,16,86,31,30,917,410.0,518,457,60,117.0,116,1,282,166,45,0,0,404,2524,-6405,387,,,,,,,,,,,,
659783,1560691931604,18,2.14,2.2,3.29,1.55,5.06,1.11,0.76,-0.25,-14,1,-21,1.34,7113,16,86,31,30,919,404.0,517,458,60,118.0,116,1,281,166,45,0,0,399,9517,-14707,382,,,,,,,,,,,,
659803,1560691931624,16,2.14,2.2,3.29,1.55,5.07,1.13,0.76,-0.33,-14,0,-21,1.36,7062,16,86,31,30,922,400.0,507,462,60,117.0,116,1,281,167,45,0,0,390,6512,-1268,372,,,,,,,,,,,,
659823,1560691931644,13,2.14,2.2,3.29,1.56,5.04,1.08,0.81,-0.34,-14,2,-21,1.35,6978,16,86,31,31,925,394.0,506,461,60,117.0,116,1,285,167,45,0,0,390,6512,-1268,372,,,,,,,,,,,,
659843,1560691931664,16,2.15,2.2,3.28,1.56,5.07,1.07,0.69,-0.14,-14,2,-23,1.28,6913,16,86,31,31,926,389.0,497,453,60,118.0,116,1,285,167,45,0,0,379,-3866,2060,363,45.701302,4.910681,42.4,199.2,6,1.6633,0,0.0,0.175,7,0.16,10.9974
659863,1560691931684,13,2.14,2.18,3.3,1.56,5.07,1.09,0.66,-0.17,-14,2,-22,1.28,6863,16,86,31,32,931,385.0,491,465,60,117.0,118,1,290,169,43,0,0,379,-3866,2060,363,,,,,,,,,,,,
659883,1560691931704,17,2.14,2.18,3.31,1.57,5.03,1.03,0.6,-0.22,-14,5,-21,1.19,6818,16,86,31,32,938,380.0,487,453,60,118.0,118,1,290,169,43,0,0,370,2278,8841,357,,,,,,,,,,,,
659903,1560691931724,14,2.15,2.19,3.32,1.57,5.05,1.09,0.53,-0.16,-14,3,-19,1.21,6732,16,86,31,33,943,375.0,492,460,60,117.0,118,1,292,174,43,0,0,370,2278,8841,357,,,,,,,,,,,,
659923,1560691931744,14,2.15,2.19,3.32,1.59,5.04,1.07,0.54,-0.09,-14,1,-19,1.2,6674,16,86,31,33,950,370.0,487,459,60,118.0,118,1,292,174,43,0,0,366,770,-122,351,,,,,,,,,,,,
659943,1560691931764,9,2.17,2.19,3.31,1.6,5.04,1.09,0.53,-0.08,-14,2,-20,1.21,6618,16,86,31,33,955,364.0,479,457,60,117.0,118,1,292,179,43,0,0,360,486,3327,347,45.701309,4.910687,40.04,199.2,6,1.6633,0,0.0,0.1767,7,0.16,10.9991
659963,1560691931784,9,2.18,2.18,3.31,1.61,5.05,1.12,0.47,0.03,-13,1,-23,1.22,6560,16,86,31,34,965,361.0,472,455,60,118.0,127,1,295,179,44,0,0,359,-1268,3327,346,,,,,,,,,,,,
659983,1560691931804,5,2.19,2.18,3.31,1.6,5.07,1.15,0.5,0.06,-13,1,-22,1.25,6508,16,86,31,35,974,361.0,473,461,60,117.0,127,1,298,185,44,0,0,355,-6458,3327,343,,,,,,,,,,,,
660003,1560691931824,4,2.21,2.17,3.32,1.62,5.08,1.1,0.41,0.01,-12,2,-20,1.18,6423,16,86,31,35,978,358.0,472,463,60,117.0,127,1,298,185,44,0,0,346,-29978,-31222,342,,,,,,,,,,,,
660023,1560691931844,6,2.23,2.17,3.31,1.66,5.07,1.08,0.34,0.11,-11,2,-18,1.13,6364,16,86,31,35,985,354.0,476,450,60,118.0,127,1,298,185,44,0,0,347,3302,3327,342,,,,,,,,,,,,
660043,1560691931864,6,2.24,2.17,3.31,1.69,5.05,1.01,0.39,0.17,-10,4,-16,1.08,6325,16,86,31,36,994,351.0,467,455,60,118.0,127,1,301,190,44,0,0,345,28553,-31206,341,45.701321,4.910694,37.6,199.2,6,1.6633,0,0.0,0.1783,7,0.16,11.0007
660063,1560691931884,1,2.27,2.16,3.33,1.73,5.08,1.01,0.45,0.17,-9,5,-14,1.1,6260,16,86,31,37,1001,349.0,466,460,60,117.0,131,1,304,190,45,0,0,345,28553,-31206,341,,,,,,,,,,,,
660083,1560691931903,-1,2.29,2.16,3.32,1.77,5.05,1.09,0.39,0.16,-9,5,-13,1.15,6245,16,86,31,37,1003,347.0,458,463,60,117.0,131,1,304,196,45,0,0,344,2811,3327,342,,,,,,,,,,,,
660103,1560691931923,1,2.3,2.17,3.33,1.86,5.05,1.16,0.31,0.19,-8,3,-12,1.21,6210,16,86,31,38,1004,344.0,452,461,60,117.0,131,1,307,202,45,0,0,342,8841,-122,342,,,,,,,,,,,,
660123,1560691931943,1,2.33,2.16,3.34,1.91,5.07,1.17,0.21,0.26,-6,3,-11,1.19,6171,16,86,31,38,1005,343.0,453,457,60,118.0,131,1,307,202,45,0,0,340,-10554,6668,342,,,,,,,,,,,,
660143,1560691931963,1,2.35,2.17,3.34,1.96,5.04,1.15,0.11,0.33,-4,3,-10,1.15,6171,16,86,31,38,1004,342.0,448,451,60,119.0,131,1,307,202,45,0,0,340,6668,-14714,342,45.701324,4.910699,35.78,199.2,6,1.6633,0,0.0,0.18,7,0.17,11.0024
660163,1560691931983,3,2.37,2.16,3.35,1.95,5.08,1.02,0.07,0.38,-2,5,-9,1.02,6145,16,86,31,38,1001,343.0,444,449,60,118.0,137,1,307,202,47,0,0,334,2560,-122,342,,,,,,,,,,,,
660183,1560691931997,4,2.38,2.14,3.37,1.99,5.07,0.82,0.03,0.38,1,8,-8,0.82,6153,16,86,31,39,999,344.0,441,451,60,118.0,137,1,310,208,47,0,0,329,-6528,3327,344,,,,,,,,,,,,
660203,1560691932017,5,2.43,2.12,3.38,2.03,5.07,0.7,0.04,0.33,2,11,-5,0.71,6143,16,86,31,39,995,345.0,438,451,60,119.0,137,1,310,208,47,0,0,324,175,-14714,345,,,,,,,,,,,,
660223,1560691932037,5,2.44,2.1,3.4,2.05,5.04,0.66,0.07,0.27,4,13,-3,0.66,6175,16,86,31,39,991,345.0,442,455,60,118.0,137,1,310,208,47,0,0,324,175,-14714,345,,,,,,,,,,,,
660243,1560691932057,-1,2.48,2.07,3.43,2.04,5.05,0.66,0.06,0.23,5,14,-1,0.67,6206,16,86,31,39,988,345.0,447,459,60,117.0,137,1,310,208,47,0,0,323,170,-122,345,45.701336,4.910704,34.21,199.1,6,1.6633,0,0.0,0.1817,7,0.17,11.0041
660263,1560691932077,1,2.51,2.02,3.46,2.07,5.08,0.79,-0.09,0.3,6,12,1,0.8,6229,16,86,31,39,983,345.0,455,461,60,117.0,142,1,310,209,49,0,0,321,-23296,-122,345,,,,,,,,,,,,
660283,1560691932103,1,2.52,2.01,3.51,2.13,5.04,0.82,-0.17,0.35,7,8,4,0.84,6208,16,86,31,39,974,347.0,453,461,60,117.0,142,1,310,208,49,0,0,316,155,-10554,346,,,,,,,,,,,,
660303,1560691932123,2,2.56,2.01,3.55,2.19,5.08,0.75,-0.28,0.36,9,3,7,0.8,6200,16,86,31,39,967,349.0,448,460,60,118.0,142,1,310,208,49,0,0,313,145,6668,347,,,,,,,,,,,,
660323,1560691932143,4,2.59,2.01,3.55,2.25,5.06,0.65,-0.34,0.33,12,1,9,0.74,6200,16,86,31,40,962,348.0,449,457,60,118.0,142,1,316,208,49,0,0,311,140,6870,349,,,,,,,,,,,,
660343,1560691932163,2,2.63,1.99,3.56,2.24,5.06,0.57,-0.31,0.23,15,1,12,0.65,6212,16,86,31,40,956,349.0,450,458,60,118.0,142,1,316,208,49,0,0,307,-32256,3327,349,45.70134,4.910708,33.18,199.1,6,1.6633,0,0.0,0.1833,7,0.17,11.0057
660363,1560691932183,5,2.64,1.97,3.62,2.27,5.08,0.58,-0.28,0.15,17,2,15,0.65,6208,16,86,31,40,945,348.0,453,458,60,118.0,140,1,316,209,49,0,0,306,-32256,3327,349,,,,,,,,,,,,
660383,1560691932203,1,2.66,1.96,3.65,2.32,5.04,0.67,-0.39,0.14,18,3,18,0.78,6196,16,86,31,40,930,350.0,450,458,60,117.0,140,1,316,209,49,0,0,297,32000,-14714,348,,,,,,,,,,,,
660403,1560691932223,-1,2.67,1.94,3.64,2.33,5.05,0.81,-0.49,0.21,19,1,21,0.94,6196,16,86,32,40,921,349.0,448,457,60,117.0,140,1,316,209,49,0,0,298,29440,-10554,350,,,,,,,,,,,,
660423,1560691932243,0,2.66,1.94,3.66,2.34,5.04,0.91,-0.56,0.37,19,-2,22,1.07,6175,16,86,32,40,913,349.0,446,459,60,117.0,140,1,316,209,49,0,0,297,28160,-10554,349,,,,,,,,,,,,
660443,1560691932263,0,2.67,1.93,3.64,2.33,5.05,0.95,-0.65,0.49,21,-6,23,1.15,6153,16,86,32,40,901,348.0,446,455,60,118.0,140,1,316,209,49,0,0,295,26880,-31206,349,45.701347,4.910713,32.46,199.0,6,1.6633,0,0.0,0.185,7,0.17,11.0074
660463,1560691932283,3,2.66,1.92,3.65,2.34,5.08,0.89,-0.71,0.57,24,-9,23,1.14,6109,16,86,32,40,890,348.0,441,458,60,118.0,137,1,316,209,48,0,0,290,95,-31206,348,,,,,,,,,,,,
660483,1560691932303,1,2.64,1.92,3.64,2.34,5.06,0.82,-0.78,0.58,26,-11,23,1.14,6127,16,86,32,40,885,347.0,438,456,60,118.0,137,1,316,209,48,0,0,290,95,-31206,348,,,,,,,,,,,,
660503,1560691932323,3,2.61,1.93,3.65,2.34,5.06,0.73,-0.81,0.54,29,-11,24,1.09,6109,16,86,32,41,884,347.0,431,458,60,119.0,137,1,322,209,48,0,0,292,24320,-122,347,,,,,,,,,,,,
660523,1560691932343,4,2.6,1.93,3.63,2.34,5.03,0.66,-0.8,0.49,31,-11,26,1.03,6069,16,86,32,41,883,346.0,430,459,60,119.0,137,1,322,210,48,0,0,289,90,3327,347,,,,,,,,,,,,
660543,1560691932363,3,2.57,1.93,3.58,2.32,5.08,0.55,-0.71,0.41,32,-10,28,0.9,6040,16,86,32,41,882,345.0,430,460,60,119.0,137,1,322,210,48,0,0,291,23040,-122,345,45.701355,4.910719,31.99,199.0,6,1.6633,0,0.0,0.1867,7,0.17,11.0091
660563,1560691932383,4,2.52,1.94,3.57,2.32,5.05,0.46,-0.67,0.34,33,-8,30,0.82,5984,16,86,32,41,882,340.0,429,460,60,119.0,137,1,321,209,47,0,0,293,95,2560,345,,,,,,,,,,,,
660583,1560691932403,4,2.47,1.94,3.53,2.32,5.05,0.35,-0.58,0.25,33,-4,32,0.68,5939,16,86,32,41,882,337.0,425,456,60,118.0,137,1,320,209,47,0,0,295,95,-32559,337,,,,,,,,,,,,
660603,1560691932423,1,2.43,1.97,3.46,2.28,5.07,0.22,-0.5,0.2,34,-3,33,0.54,5892,16,86,32,42,882,332.0,420,456,60,118.0,137,1,325,211,47,0,0,298,25600,175,332,,,,,,,,,,,,
660623,1560691932443,2,2.37,2.05,3.41,2.24,5.06,0.09,-0.42,0.23,34,-2,32,0.43,5832,16,86,32,43,882,330.0,424,460,60,117.0,137,1,329,212,47,0,0,300,28160,170,330,,,,,,,,,,,,
660643,1560691932463,0,2.32,2.11,3.34,2.21,5.08,0.07,-0.33,0.27,33,-3,30,0.33,5760,16,86,32,43,882,324.0,376,463,60,117.0,137,1,326,212,47,0,0,305,30720,160,324,45.701359,4.910726,31.6,198.9,6,1.6633,0,0.0,0.1883,7,0.17,11.0107
660663,1560691932483,-0,2.25,2.2,3.26,2.18,5.08,0.2,-0.2,0.32,30,-6,28,0.28,5709,16,86,32,44,880,321.0,368,456,60,117.0,142,1,329,213,46,0,0,305,30720,160,324,,,,,,,,,,,,
660683,1560691932503,2,2.19,2.27,3.18,2.17,5.06,0.38,-0.2,0.35,24,-8,26,0.43,5642,16,86,32,45,877,315.0,362,458,60,118.0,142,1,331,215,46,0,0,309,32000,-25856,321,,,,,,,,,,,,
660703,1560691932523,1,2.12,2.32,3.13,2.12,5.06,0.5,-0.19,0.29,19,-5,23,0.53,5615,16,86,32,46,874,316.0,376,452,60,119.0,142,1,334,215,46,0,0,310,130,-30976,315,,,,,,,,,,,,
660723,1560691932543,1,2.04,2.36,3.06,2.04,5.03,0.4,-0.09,0.26,17,-2,20,0.4,5545,16,86,32,47,872,316.0,396,455,60,118.0,142,1,334,218,46,0,0,315,140,120,313,,,,,,,,,,,,
660743,1560691932563,0,1.99,2.37,3.06,1.97,5.06,0.42,0.05,0.32,15,-5,17,0.42,5537,16,86,32,48,870,320.0,393,461,60,118.0,142,1,335,222,46,0,0,317,150,32000,305,45.701366,4.910733,31.05,198.9,6,1.6633,0,0.0,0.19,7,0.17,11.0124
660763,1560691932583,3,1.89,2.42,3.05,1.94,5.03,0.58,0.13,0.32,9,-6,13,0.59,5521,16,86,32,48,867,322.0,389,455,60,119.0,153,1,334,222,46,0,0,319,155,85,298,,,,,,,,,,,,
660783,1560691932603,0,1.8,2.45,3.04,1.9,5.05,0.49,0.13,0.35,5,-3,8,0.51,5495,16,86,32,49,866,324.0,393,455,60,118.0,153,1,334,226,46,0,0,319,155,85,298,,,,,,,,,,,,
660803,1560691932623,-0,1.74,2.47,3.05,1.88,5.08,0.51,0.32,0.35,3,-5,4,0.6,5472,16,86,32,50,866,324.0,390,459,60,117.0,153,1,333,230,46,0,0,325,160,21760,294,,,,,,,,,,,,
660823,1560691932643,4,1.67,2.48,3.05,1.84,5.08,0.67,0.36,0.28,-2,-6,-2,0.76,5448,16,86,32,50,866,322.0,393,459,60,119.0,153,1,332,230,46,0,0,325,155,10686,287,,,,,,,,,,,,
660843,1560691932663,0,1.6,2.48,3.06,1.84,5.04,0.61,0.37,0.29,-5,-4,-7,0.71,5455,16,86,32,51,866,321.0,397,453,60,118.0,153,1,334,234,46,0,0,321,-25856,1886,285,45.701374,4.910741,30.65,198.9,6,1.6633,0,0.0,0.1917,7,0.17,11.014
660863,1560691932683,1,1.53,2.48,3.08,1.81,5.07,0.68,0.49,0.28,-7,-5,-10,0.84,5445,16,86,32,52,864,320.0,393,458,60,118.0,173,1,334,238,49,0,0,320,150,24064,280,,,,,,,,,,,,
660883,1560691932703,2,1.49,2.49,3.09,1.8,5.05,0.75,0.49,0.26,-11,-3,-13,0.9,5471,16,86,32,52,864,319.0,393,456,60,118.0,173,1,335,238,49,0,0,320,150,24064,280,,,,,,,,,,,,
660903,1560691932723,-1,1.48,2.49,3.09,1.79,5.06,0.68,0.55,0.29,-12,-2,-15,0.88,5480,16,86,32,53,862,311.0,391,460,60,117.0,173,1,337,242,49,0,0,321,-27136,250,275,,,,,,,,,,,,
660923,1560691932743,5,1.47,2.48,3.07,1.79,5.04,0.77,0.58,0.31,-15,-3,-19,0.97,5472,16,86,32,53,860,311.0,393,452,60,119.0,173,1,336,242,49,0,0,322,-32256,-1527,272,,,,,,,,,,,,
660943,1560691932763,1,1.49,2.47,3.05,1.76,5.07,0.88,0.6,0.29,-19,-2,-23,1.06,5514,16,86,32,53,860,311.0,401,452,60,118.0,173,1,340,243,49,0,0,321,-32256,-1,268,45.701378,4.910748,30.29,198.9,6,1.6633,0,0.0,0.1933,7,0.17,11.0157
660963,1560691932783,-1,1.5,2.45,3.02,1.73,5.05,0.81,0.73,0.32,-21,-3,-27,1.09,5557,17,86,32,53,860,313.0,402,453,60,117.0,191,1,343,244,51,0,0,316,-32256,-1,266,,,,,,,,,,,,
660983,1560691932803,-0,1.49,2.45,3.02,1.7,5.07,0.86,0.82,0.32,-23,-5,-31,1.19,5612,17,86,32,53,860,313.0,402,466,60,117.0,191,1,348,245,51,0,0,314,-30976,-1,265,,,,,,,,,,,,
661003,1560691932823,3,1.49,2.46,3.03,1.69,5.04,0.94,0.9,0.24,-25,-5,-35,1.3,5656,17,86,32,53,859,314.0,405,460,60,119.0,191,1,352,246,51,0,0,315,-30976,-1,263,,,,,,,,,,,,
661023,1560691932843,2,1.49,2.46,3.03,1.69,5.04,0.87,0.88,0.18,-28,-3,-36,1.24,5686,17,86,32,53,858,315.0,406,453,60,119.0,191,1,354,246,51,0,0,314,135,-10440,261,,,,,,,,,,,,
661043,1560691932863,1,1.49,2.46,3.04,1.69,5.04,0.77,0.89,0.17,-29,-2,-37,1.18,5746,17,86,32,53,858,313.0,410,453,60,118.0,191,1,359,247,51,0,0,313,-29696,-1,259,45.701382,4.910755,29.43,198.9,6,1.6633,0,0.0,0.195,7,0.17,11.0174
661063,1560691932883,1,1.48,2.46,3.03,1.69,5.07,0.74,0.98,0.17,-30,-4,-39,1.23,5801,17,86,32,52,856,310.0,411,460,60,117.0,210,1,361,243,54,0,0,311,-32256,506,257,,,,,,,,,,,,
661083,1560691932902,1,1.49,2.47,3.03,1.69,5.05,0.82,1.01,0.22,-31,-4,-43,1.3,5837,17,86,32,52,853,311.0,415,468,60,118.0,210,1,363,243,54,0,0,309,-32256,10818,254,,,,,,,,,,,,
661103,1560691932922,-1,1.5,2.47,3.02,1.69,5.04,0.94,0.99,0.32,-34,-5,-47,1.37,5881,17,86,32,51,850,311.0,421,468,60,117.0,210,1,364,239,54,0,0,306,-32256,-1,253,,,,,,,,,,,,
661123,1560691932942,1,1.5,2.46,3.01,1.69,5.04,1.05,0.92,0.27,-36,-4,-51,1.39,5806,17,86,32,50,847,311.0,416,466,60,118.0,210,1,356,233,54,0,0,310,-32256,90,252,,,,,,,,,,,,
661143,1560691932962,4,1.5,2.47,3.0,1.68,5.06,1.08,0.92,0.21,-39,-2,-53,1.42,5707,17,86,32,50,845,310.0,411,459,60,119.0,210,1,349,232,54,0,0,309,-32256,-14714,251,45.701389,4.91076,29.05,198.9,6,1.6633,0,0.0,0.1967,7,0.17,11.019
661163,1560691932982,1,1.5,2.47,2.96,1.68,5.06,1.02,0.93,0.16,-40,1,-55,1.38,5709,17,86,32,50,844,310.0,416,457,60,118.0,199,1,349,232,50,0,0,309,-32256,-14714,251,,,,,,,,,,,,
661183,1560691932996,1,1.52,2.47,2.97,1.68,5.04,0.92,0.96,0.14,-40,2,-56,1.33,5700,17,86,32,50,845,310.0,415,451,60,118.0,199,1,349,232,50,0,0,306,125,-28416,252,,,,,,,,,,,,
661203,1560691933016,-1,1.55,2.46,2.96,1.67,5.07,0.92,1.07,0.15,-40,1,-57,1.41,5640,17,86,32,51,845,312.0,415,459,60,117.0,199,1,347,236,50,0,0,307,125,41,252,,,,,,,,,,,,
661223,1560691933036,5,1.59,2.48,2.98,1.67,5.04,1.02,1.01,0.19,-42,-1,-57,1.43,5617,17,86,32,51,847,314.0,406,462,60,118.0,199,1,345,236,50,0,0,309,130,250,250,,,,,,,,,,,,
661243,1560691933056,2,1.64,2.48,3.0,1.67,5.04,0.98,0.96,0.21,-44,2,-57,1.37,5545,17,86,32,52,849,314.0,398,460,60,119.0,199,1,341,239,50,0,0,306,135,-24576,249,45.701397,4.910764,27.56,198.9,6,1.6633,0,0.0,0.1983,7,0.18,11.0207
661263,1560691933076,-1,1.73,2.48,3.0,1.69,5.07,0.88,0.95,0.25,-44,4,-58,1.29,5555,17,86,32,52,852,315.0,400,455,60,117.0,200,1,342,240,50,0,0,304,-29696,150,249,,,,,,,,,,,,
661283,1560691933102,1,1.8,2.49,3.01,1.71,5.06,0.89,0.98,0.32,-43,3,-59,1.33,5514,17,86,32,53,853,313.0,395,460,60,118.0,200,1,340,243,50,0,0,306,-29696,20480,249,,,,,,,,,,,,
661303,1560691933122,2,1.9,2.48,3.01,1.73,5.07,0.96,0.83,0.4,-44,3,-61,1.26,5508,17,86,32,53,853,311.0,396,452,60,118.0,200,1,339,243,50,0,0,305,-32256,-1,250,,,,,,,,,,,,
661323,1560691933142,0,1.97,2.47,3.02,1.83,5.06,0.78,0.75,0.48,-42,4,-61,1.08,5369,17,86,32,54,855,308.0,397,462,60,117.0,200,1,329,245,50,0,0,306,-32256,-214,250,,,,,,,,,,,,
661343,1560691933162,2,2.05,2.46,3.02,1.93,5.06,0.84,0.81,0.51,-39,3,-58,1.17,5230,17,86,32,55,856,302.0,386,455,60,119.0,200,1,317,245,50,0,0,301,120,-1,254,45.701401,4.910766,27.2,198.8,6,1.6633,0,0.0,0.2,7,0.18,11.0224
661363,1560691933182,0,2.1,2.43,3.02,2.01,5.07,0.69,0.66,0.52,-36,7,-57,0.96,5043,18,86,32,56,859,296.0,373,455,60,117.0,178,1,301,247,47,0,0,300,105,-1,261,,,,,,,,,,,,
661383,1560691933200,-1,2.16,2.42,3.04,2.08,5.07,0.83,0.58,0.57,-35,4,-54,1.01,4972,18,86,32,57,859,294.0,370,457,60,118.0,178,1,297,249,47,0,0,295,90,-1,266,,,,,,,,,,,,
661403,1560691933220,5,2.21,2.37,3.11,2.12,5.04,0.81,0.54,0.55,-31,2,-50,0.97,4961,18,86,32,58,860,289.0,364,455,60,118.0,178,1,297,254,47,0,0,287,0,-1,271,,,,,,,,,,,,
661423,1560691933240,-1,2.25,2.3,3.2,2.13,5.06,0.66,0.36,0.51,-28,5,-47,0.75,4968,20,86,32,60,859,286.0,358,464,60,117.0,178,1,296,262,47,0,0,287,0,-1,271,,,,,,,,,,,,
661443,1560691933260,-0,2.3,2.26,3.29,2.16,5.07,0.76,0.24,0.57,-26,3,-43,0.8,4976,23,86,32,61,857,281.0,362,449,60,118.0,178,1,295,267,47,0,0,283,-16896,-1,272,45.701408,4.910767,27.28,198.8,6,1.6633,0,0.0,0.2017,7,0.18,11.024
661463,1560691933280,4,2.35,2.23,3.37,2.16,5.05,0.8,0.21,0.6,-22,1,-38,0.82,5048,24,86,32,64,855,279.0,360,466,60,118.0,188,1,295,281,52,0,0,280,24064,250,276,,,,,,,,,,,,
661483,1560691933302,0,2.41,2.2,3.4,2.19,5.07,0.63,0.11,0.56,-20,4,-35,0.64,5103,25,86,32,65,852,282.0,361,457,60,117.0,188,1,297,295,52,0,0,277,-1534,-1527,279,,,,,,,,,,,,
661503,1560691933322,1,2.47,2.19,3.4,2.2,5.07,0.77,0.08,0.57,-17,2,-30,0.77,5148,25,86,32,67,848,284.0,363,461,60,119.0,188,1,296,308,52,0,0,275,250,30208,282,,,,,,,,,,,,
661523,1560691933342,-0,2.53,2.17,3.43,2.22,5.08,0.66,0.0,0.55,-13,2,-26,0.66,5172,26,86,32,68,842,286.0,366,460,60,118.0,188,1,296,316,52,0,0,271,-1281,24064,286,,,,,,,,,,,,
661543,1560691933362,1,2.59,2.16,3.47,2.27,5.04,0.74,-0.1,0.61,-11,1,-22,0.75,5277,26,86,32,68,837,288.0,365,452,60,119.0,188,1,304,315,52,0,0,271,-1281,24064,286,45.701416,4.910767,27.49,198.8,6,1.6633,0,0.0,0.2033,7,0.18,11.0257
661563,1560691933382,-2,2.65,2.14,3.51,2.29,5.04,0.71,-0.23,0.55,-6,-0,-19,0.75,5335,27,86,32,69,834,290.0,367,465,60,117.0,225,1,311,322,65,0,0,266,-1,250,288,,,,,,,,,,,,
661583,1560691933402,4,2.71,2.13,3.58,2.32,5.07,0.84,-0.27,0.55,-3,-2,-14,0.88,5453,28,86,32,69,841,293.0,371,451,60,119.0,225,1,317,323,65,0,0,263,-1,0,290,,,,,,,,,,,,
661603,1560691933422,1,2.77,2.1,3.62,2.33,5.07,0.72,-0.31,0.51,-0,-1,-9,0.78,5587,30,86,32,69,848,293.0,379,451,60,118.0,225,1,327,246,65,0,0,259,-41,-16896,293,,,,,,,,,,,,
661623,1560691933442,-1,2.81,2.08,3.64,2.34,5.04,0.71,-0.39,0.52,4,-5,-4,0.81,5662,31,86,32,70,855,294.0,383,458,60,116.0,225,1,331,335,65,0,0,259,-10440,0,293,,,,,,,,,,,,
661643,1560691933462,-1,2.85,2.08,3.65,2.34,5.06,0.84,-0.46,0.57,6,-7,1,0.96,5700,32,86,32,70,864,297.0,389,460,60,118.0,225,1,333,335,65,0,0,311,-1,90,298,45.70142,4.910767,27.42,198.8,6,1.6633,0,0.0,0.205,7,0.18,11.0274
661663,1560691933482,4,2.87,2.08,3.64,2.37,5.04,0.91,-0.49,0.57,7,-6,5,1.03,5725,32,86,32,70,882,301.0,393,451,60,118.0,240,1,335,336,72,0,0,331,-1,100,301,,,,,,,,,,,,
661683,1560691933504,4,2.9,2.08,3.64,2.37,5.07,0.77,-0.57,0.52,10,-3,9,0.96,5835,32,86,32,69,908,301.0,397,455,60,119.0,240,1,344,337,72,0,0,318,-1,105,301,,,,,,,,,,,,
661703,1560691933524,1,2.93,2.08,3.62,2.37,5.05,0.61,-0.63,0.51,14,-1,12,0.87,5933,33,86,32,69,932,303.0,402,450,60,118.0,240,1,352,323,72,0,0,318,-1,105,301,,,,,,,,,,,,
661723,1560691933544,3,0.33,2.07,3.61,2.4,5.04,0.51,-0.71,0.52,19,-2,15,0.87,5872,33,86,32,68,953,307.0,409,446,60,119.0,240,1,348,309,72,0,0,288,-1,110,303,,,,,,,,,,,,
661743,1560691933564,2,0.33,2.08,3.6,2.4,5.05,0.41,-0.75,0.43,24,-2,19,0.86,5808,33,86,32,69,975,309.0,405,452,60,118.0,240,1,342,323,72,0,0,319,-214,30720,307,45.701427,4.910767,26.43,198.7,6,1.6633,0,0.0,0.2067,7,0.18,11.029
661763,1560691933584,0,0.32,2.08,3.6,2.42,5.04,0.49,-0.7,0.43,27,-3,25,0.85,5828,33,86,32,69,999,311.0,401,457,60,117.0,228,1,344,323,71,0,0,339,506,120,310,,,,,,,,,,,,
661783,1560691933604,-1,0.33,2.07,3.6,2.44,5.07,0.62,-0.7,0.43,28,-5,31,0.94,5853,33,86,32,69,1013,314.0,400,462,60,117.0,228,1,346,323,71,0,0,314,-1281,-32256,311,,,,,,,,,,,,
661803,1560691933624,-1,0.33,2.08,3.62,2.43,5.05,0.76,-0.72,0.44,28,-4,35,1.05,5817,33,86,32,69,1019,316.0,402,467,60,117.0,228,1,344,323,71,0,0,298,-1,135,314,,,,,,,,,,,,
661823,1560691933644,-1,2.93,2.07,3.63,2.45,5.03,0.89,-0.72,0.46,27,-2,38,1.14,5828,33,86,32,69,1025,318.0,404,467,60,118.0,228,1,344,323,71,0,0,302,-41,-28416,316,,,,,,,,,,,,
661843,1560691933664,4,2.91,2.07,3.62,2.47,5.03,0.86,-0.7,0.42,27,2,41,1.11,5885,33,86,32,69,1031,320.0,407,462,60,118.0,228,1,348,309,71,0,0,330,-10440,140,318,45.701439,4.910769,26.29,198.7,6,1.6633,0,0.0,0.2083,7,0.18,11.0307
661863,1560691933684,5,2.88,2.07,3.62,2.47,5.05,0.77,-0.65,0.36,29,5,43,1.01,5998,33,86,32,68,1038,320.0,408,461,60,118.0,214,1,357,308,69,0,0,300,-1,155,320,,,,,,,,,,,,
661883,1560691933702,5,2.86,2.05,3.62,2.46,5.07,0.67,-0.65,0.29,32,8,46,0.93,6089,33,86,32,68,1040,323.0,417,458,60,119.0,214,1,361,308,69,0,0,300,-1,155,320,,,,,,,,,,,,
661903,1560691933722,-1,2.84,2.05,3.6,2.47,5.05,0.66,-0.64,0.24,34,10,50,0.92,6058,34,86,32,67,1044,325.0,420,460,60,118.0,214,1,363,299,69,0,0,324,-1,-24576,325,,,,,,,,,,,,
661923,1560691933742,-1,2.78,2.05,3.57,2.48,5.05,0.7,-0.65,0.26,35,11,53,0.95,5992,34,86,32,68,1054,327.0,418,466,60,118.0,214,1,357,299,69,0,0,346,-1,160,326,,,,,,,,,,,,
661943,1560691933762,1,2.73,2.06,3.56,2.49,5.05,0.71,-0.64,0.29,34,12,55,0.96,6003,34,86,32,68,1065,327.0,415,469,60,118.0,214,1,358,307,69,0,0,346,-1,160,326,45.701443,4.910772,26.8,198.7,6,1.6633,0,0.0,0.21,7,0.18,11.0324
661963,1560691933782,-1,2.66,2.06,3.54,2.47,5.05,0.7,-0.6,0.29,34,14,56,0.92,5998,34,86,32,68,1072,327.0,412,465,60,117.0,204,1,357,299,67,0,0,316,-1,-23296,327,,,,,,,,,,,,
661983,1560691933804,-1,2.58,2.08,3.52,2.47,5.06,0.68,-0.56,0.29,34,14,57,0.88,5978,34,86,32,68,1076,328.0,416,464,60,118.0,204,1,356,308,67,0,0,302,2414,-22016,328,,,,,,,,,,,,
662003,1560691933824,-0,2.49,2.13,3.46,2.46,5.04,0.68,-0.52,0.3,32,15,57,0.85,5939,35,86,32,68,1084,326.0,408,466,60,118.0,204,1,353,308,67,0,0,302,2414,-22016,328,,,,,,,,,,,,
662023,1560691933844,5,2.43,2.22,3.35,2.43,5.06,0.65,-0.44,0.29,29,17,56,0.78,5958,36,86,32,69,1090,323.0,411,467,60,118.0,204,1,353,323,67,0,0,324,1886,-23296,326,,,,,,,,,,,,
662043,1560691933864,5,2.35,2.31,3.24,2.42,5.04,0.61,-0.33,0.3,27,18,54,0.69,5911,37,86,32,69,1090,319.0,391,463,60,118.0,204,1,350,323,67,0,0,312,0,-24576,323,45.70145,4.910776,27.37,198.6,6,1.6633,0,0.0,0.2117,7,0.18,11.034
662063,1560691933884,4,2.29,2.37,3.17,2.38,5.07,0.55,-0.2,0.33,24,20,51,0.59,5892,37,86,32,70,1091,317.0,386,453,60,118.0,227,1,348,338,72,0,0,304,23040,-24576,319,,,,,,,,,,,,
662083,1560691933903,4,2.24,2.44,3.09,2.32,5.06,0.5,-0.05,0.36,22,21,48,0.51,5842,37,86,32,70,1105,314.0,387,458,60,119.0,227,1,344,337,72,0,0,312,26880,-27136,317,,,,,,,,,,,,
662103,1560691933923,3,2.19,2.48,3.03,2.28,5.07,0.42,0.14,0.39,21,23,44,0.44,5903,38,86,32,71,1114,314.0,391,450,60,118.0,227,1,347,353,72,0,0,316,125,140,314,,,,,,,,,,,,
662123,1560691933943,3,2.12,2.53,3.01,2.25,5.06,0.31,0.3,0.44,20,25,39,0.43,5969,38,86,32,71,1125,317.0,404,455,60,119.0,227,1,352,355,72,0,0,323,-27136,-27136,310,,,,,,,,,,,,
662143,1560691933963,3,2.09,2.54,3.0,2.22,5.07,0.21,0.47,0.45,19,25,34,0.52,6067,44,86,32,72,1135,323.0,406,448,60,118.0,227,1,355,372,72,0,0,326,-24576,145,310,45.701458,4.910781,27.58,198.6,6,1.6633,0,0.0,0.2133,7,0.18,11.0357
662163,1560691933983,4,2.05,2.54,3.01,2.18,5.07,0.16,0.63,0.49,16,25,30,0.64,6103,50,86,32,74,1145,328.0,418,445,60,118.0,290,1,354,404,90,0,0,333,170,-24576,310,,,,,,,,,,,,
662183,1560691933997,2,2.02,2.58,3.0,2.16,5.07,0.1,0.76,0.46,13,26,26,0.77,6123,52,86,32,77,1155,333.0,424,458,60,118.0,290,1,352,442,90,0,0,334,-6528,165,311,,,,,,,,,,,,
662203,1560691934017,1,1.99,2.59,3.0,2.14,5.08,0.1,0.86,0.41,10,28,22,0.87,6212,54,86,32,80,1156,335.0,426,453,60,118.0,290,1,352,456,90,0,0,339,13,-22016,310,,,,,,,,,,,,
662223,1560691934037,-1,1.98,2.62,2.98,2.12,5.06,0.14,0.87,0.38,7,27,18,0.88,6296,55,86,32,82,1154,340.0,431,466,60,118.0,290,1,354,468,90,0,0,340,3327,13,310,,,,,,,,,,,,
662243,1560691934057,2,1.97,2.61,2.98,2.1,5.07,0.3,0.79,0.48,3,23,13,0.85,6430,55,86,32,82,1141,343.0,442,457,60,118.0,290,1,359,483,90,0,0,340,3327,13,310,45.701458,4.910787,29.28,198.6,6,1.6633,0,0.0,0.215,7,0.18,11.0374
662263,1560691934077,4,1.98,2.61,2.95,2.09,5.05,0.31,0.72,0.58,0,20,8,0.79,6526,56,86,32,83,1131,346.0,445,456,60,119.0,376,1,361,485,118,0,0,345,-14714,3327,311,,,,,,,,,,,,
662283,1560691934103,1,1.98,2.62,2.93,2.1,5.04,0.3,0.81,0.58,-2,19,4,0.86,6578,56,86,32,84,1120,348.0,450,456,60,117.0,376,1,361,490,118,0,0,347,8841,-31206,311,,,,,,,,,,,,
662303,1560691934123,1,1.98,2.62,2.94,2.1,5.06,0.34,0.75,0.68,-5,14,0,0.83,6658,57,86,32,84,1109,351.0,456,457,60,118.0,376,1,365,492,118,0,0,352,-1246,3302,314,,,,,,,,,,,,
662323,1560691934143,-1,1.98,2.62,2.93,2.09,5.04,0.33,0.78,0.66,-7,10,-4,0.85,6759,58,86,32,84,1107,351.0,462,455,60,117.0,376,1,368,495,118,0,0,354,28553,-6458,317,,,,,,,,,,,,
662343,1560691934163,4,1.97,2.62,2.94,2.09,5.07,0.42,0.75,0.75,-9,8,-10,0.86,6873,59,86,32,84,1103,357.0,468,452,60,118.0,376,1,372,497,118,0,0,360,4104,-6405,322,45.701466,4.910793,30.75,198.5,6,1.6633,0,0.0,0.2167,7,0.18,11.0391
662363,1560691934183,0,1.98,2.62,2.92,2.09,5.04,0.4,0.77,0.71,-10,8,-12,0.86,6965,61,86,32,86,1107,360.0,472,462,60,118.0,405,1,373,505,131,0,0,365,-14707,0,324,,,,,,,,,,,,
662383,1560691934203,5,1.96,2.62,2.89,2.09,5.04,0.48,0.75,0.76,-13,7,-13,0.89,7017,62,86,32,86,1115,366.0,481,453,60,118.0,405,1,377,506,131,0,0,365,-14707,0,324,,,,,,,,,,,,
662403,1560691934223,3,1.98,2.64,2.87,2.09,5.07,0.44,0.71,0.85,-14,6,-14,0.84,7080,62,86,32,86,1116,369.0,485,461,60,117.0,405,1,381,513,131,0,0,370,230,-6656,329,,,,,,,,,,,,
662423,1560691934243,2,1.98,2.64,2.87,2.09,5.07,0.37,0.8,0.74,-15,8,-14,0.88,7134,63,86,32,86,1118,374.0,490,454,60,117.0,405,1,384,514,131,0,0,373,-6656,-18948,329,,,,,,,,,,,,
662443,1560691934263,1,1.98,2.65,2.87,2.09,5.06,0.37,0.86,0.76,-17,5,-17,0.94,7192,63,86,32,86,1115,376.0,492,455,60,118.0,405,1,388,515,131,0,0,386,-6656,-6524,337,45.701477,4.910799,31.73,198.5,6,1.6633,0,0.0,0.2183,7,0.18,11.0407
662463,1560691934283,0,1.99,2.68,2.87,2.09,5.07,0.5,0.84,0.88,-18,1,-21,0.98,7295,64,86,32,86,1108,379.0,494,457,60,117.0,420,1,395,518,142,0,0,386,-6656,-6524,337,,,,,,,,,,,,
662483,1560691934303,3,2.0,2.68,2.87,2.11,5.07,0.58,0.71,0.99,-20,0,-25,0.92,7364,65,86,32,86,1091,384.0,497,452,60,118.0,420,1,399,519,142,0,0,388,19125,-1818,340,,,,,,,,,,,,
662503,1560691934323,5,2.0,2.68,2.87,2.1,5.04,0.47,0.73,0.98,-21,2,-26,0.87,7512,65,86,32,85,1051,390.0,501,456,60,118.0,420,1,408,515,142,0,0,393,-19019,6384,345,,,,,,,,,,,,
662523,1560691934343,1,2.0,2.7,2.86,2.1,5.05,0.5,0.63,1.01,-21,1,-26,0.8,7612,65,86,32,85,1030,394.0,509,453,60,118.0,420,1,415,517,142,0,0,398,-1562,6512,348,,,,,,,,,,,,
662543,1560691934363,0,2.01,2.7,2.86,2.11,5.06,0.53,0.68,1.11,-21,2,-27,0.86,7731,65,86,32,84,998,397.0,517,459,60,117.0,420,1,422,510,142,0,0,402,-1818,-32702,352,45.701481,4.910804,33.23,198.5,6,1.6633,0,0.0,0.22,7,0.19,11.0424
662563,1560691934383,0,2.02,2.7,2.86,2.11,5.05,0.56,0.76,1.16,-22,3,-28,0.94,7845,65,86,32,83,966,403.0,515,458,60,117.0,409,1,427,502,147,0,0,407,6384,2524,359,,,,,,,,,,,,
662583,1560691934403,3,2.02,2.72,2.83,2.1,5.04,0.57,0.79,1.12,-23,2,-29,0.97,7904,65,86,32,83,940,408.0,520,461,60,116.0,409,1,431,504,147,0,0,418,10392,1779,366,,,,,,,,,,,,
662603,1560691934423,22,2.04,2.75,2.82,2.11,5.06,0.49,0.79,1.06,-24,2,-30,0.93,8033,65,86,32,81,912,413.0,526,455,60,117.0,409,1,438,490,147,0,0,418,10392,1779,366,,,,,,,,,,,,
662623,1560691934443,2,2.03,2.75,2.83,2.14,5.05,0.39,0.8,1.07,-24,3,-31,0.89,8155,66,86,32,80,900,416.0,533,460,60,117.0,409,1,435,485,147,0,0,426,-9166,-7939,371,,,,,,,,,,,,
662643,1560691934463,2,2.05,2.75,2.82,2.16,5.05,0.35,0.92,1.06,-24,3,-30,0.98,8216,66,86,32,78,890,421.0,542,460,60,118.0,409,1,433,482,147,0,0,440,-4082,23400,381,45.701488,4.910808,34.78,198.4,6,1.6633,0,0.0,0.2217,7,0.19,11.0441
662663,1560691934483,2,2.05,2.75,2.8,2.16,5.04,0.41,0.83,1.07,-25,1,-31,0.92,8289,66,86,32,77,867,426.0,539,456,60,116.0,389,1,432,464,149,0,0,440,-4082,23400,381,,,,,,,,,,,,
662683,1560691934503,5,2.07,2.76,2.8,2.16,5.05,0.42,0.82,1.11,-25,1,-31,0.92,8400,66,86,32,76,856,433.0,550,458,60,118.0,389,1,429,467,149,0,0,448,243,14488,392,,,,,,,,,,,,
662703,1560691934523,3,2.07,2.76,2.81,2.15,5.05,0.39,0.7,1.19,-25,3,-32,0.8,8518,66,86,32,75,847,437.0,559,461,60,117.0,389,1,427,446,149,0,0,448,243,14488,392,,,,,,,,,,,,
662723,1560691934543,2,2.08,2.76,2.81,2.16,5.07,0.49,0.78,1.18,-25,2,-32,0.92,8561,67,86,32,75,841,444.0,561,447,60,117.0,389,1,426,436,149,0,0,458,-28332,26704,397,,,,,,,,,,,,
662743,1560691934563,3,2.1,2.75,2.82,2.16,5.03,0.35,0.86,1.12,-25,2,-32,0.93,8604,67,86,32,75,842,446.0,565,465,60,118.0,389,1,425,446,149,0,0,463,16648,32033,411,45.7015,4.910811,37.19,198.4,6,1.6633,0,0.0,0.2233,7,0.19,11.0457
662763,1560691934583,5,2.1,2.76,2.82,2.17,5.05,0.33,0.81,1.18,-24,2,-31,0.88,8724,68,86,32,74,846,453.0,565,459,60,118.0,347,1,422,436,143,0,0,463,16648,32033,411,,,,,,,,,,,,
662783,1560691934603,4,2.11,2.77,2.83,2.16,5.05,0.41,0.7,1.25,-24,2,-31,0.81,8831,68,86,32,74,854,456.0,574,445,60,117.0,347,1,419,436,143,0,0,470,14488,2211,420,,,,,,,,,,,,
662803,1560691934623,3,2.12,2.76,2.81,2.17,5.05,0.53,0.61,1.3,-24,0,-31,0.81,8898,69,86,32,74,875,459.0,587,451,60,117.0,347,1,417,436,143,0,0,470,14488,2211,420,,,,,,,,,,,,
662823,1560691934643,3,2.13,2.76,2.82,2.18,5.03,0.68,0.41,1.37,-24,-2,-31,0.79,8954,70,86,32,73,898,463.0,579,456,60,117.0,347,1,415,427,143,0,0,479,-3210,505,434,,,,,,,,,,,,
662843,1560691934663,3,2.15,2.75,2.83,2.18,5.08,0.8,0.29,1.43,-23,-2,-32,0.85,9018,70,86,32,74,933,468.0,575,456,60,117.0,347,1,413,436,143,0,0,479,-3210,505,434,45.701508,4.910814,39.99,198.4,6,1.6633,0,0.0,0.225,7,0.19,11.0474
662863,1560691934683,4,2.14,2.75,2.83,2.19,5.08,0.92,0.18,1.46,-23,-1,-33,0.94,9062,71,86,32,75,953,473.0,581,450,60,117.0,343,1,413,436,153,0,0,486,-16384,1,442,,,,,,,,,,,,
662883,1560691934703,3,2.16,2.73,2.83,2.18,5.08,1.03,0.11,1.44,-23,0,-34,1.03,9146,71,86,32,75,975,476.0,583,453,60,117.0,343,1,413,436,153,0,0,486,3576,505,447,,,,,,,,,,,,
662903,1560691934723,5,2.15,2.74,2.83,2.18,5.05,1.13,-0.09,1.49,-22,-2,-34,1.13,9254,71,86,32,75,996,484.0,599,462,60,118.0,343,1,414,446,153,0,0,496,-10483,2109,457,,,,,,,,,,,,
662923,1560691934743,0,2.17,2.72,2.84,2.19,5.04,1.0,-0.14,1.48,-20,2,-33,1.01,9365,71,86,32,75,1026,485.0,607,459,60,117.0,343,1,415,446,153,0,0,496,-10483,2109,457,,,,,,,,,,,,
662943,1560691934763,2,2.17,2.73,2.86,2.23,5.04,0.73,0.08,1.29,-19,3,-32,0.74,9464,71,86,32,74,1032,488.0,613,467,60,117.0,343,1,416,436,153,0,0,505,1,-21872,467,45.701519,4.910817,42.48,198.4,6,1.6633,0,0.0,0.2267,7,0.19,11.0491
662963,1560691934783,4,2.17,2.74,2.89,2.27,5.05,0.86,0.17,1.26,-19,2,-31,0.88,9595,72,86,32,74,1043,493.0,614,453,60,117.0,337,1,413,443,158,0,0,505,1,-21872,467,,,,,,,,,,,,
662983,1560691934803,2,2.18,2.73,2.9,2.27,5.04,0.92,0.07,1.31,-18,3,-31,0.92,9645,72,86,32,73,1056,500.0,618,458,60,117.0,337,1,410,448,158,0,0,514,-6528,15679,472,,,,,,,,,,,,
663003,1560691934823,3,2.19,2.72,2.89,2.27,5.07,0.71,0.22,1.21,-17,4,-29,0.74,9689,72,86,32,73,1066,504.0,623,458,60,117.0,337,1,409,443,158,0,0,516,-32248,2088,488,,,,,,,,,,,,
663023,1560691934843,0,2.2,2.71,2.88,2.28,5.06,0.79,0.18,1.26,-16,2,-28,0.81,9725,72,86,32,73,1073,510.0,620,457,60,117.0,337,1,407,445,158,0,0,516,-32248,2088,488,,,,,,,,,,,,
663043,1560691934863,2,2.2,2.7,2.88,2.28,5.04,0.76,0.12,1.25,-15,2,-27,0.77,9796,72,87,32,73,1077,512.0,622,458,60,117.0,337,1,404,452,158,0,0,528,17136,2088,496,45.70153,4.910818,45.05,198.3,6,1.6633,0,0.0,0.2283,7,0.19,11.0507
663063,1560691934883,2,2.21,2.7,2.95,2.3,5.04,0.77,0.06,1.31,-15,1,-25,0.77,9894,72,87,32,72,1087,514.0,622,459,60,117.0,338,1,400,460,168,0,0,528,17136,2088,496,,,,,,,,,,,,
663083,1560691934902,5,2.21,2.69,2.99,2.3,5.06,0.78,0.01,1.33,-14,-1,-24,0.78,9989,72,87,32,72,1096,522.0,621,452,60,117.0,338,1,396,461,168,0,0,536,-3482,2104,499,,,,,,,,,,,,
663103,1560691934922,3,2.2,2.67,2.99,2.28,5.06,0.64,0.11,1.2,-14,-2,-23,0.65,10173,72,87,32,72,1098,523.0,627,461,60,117.0,338,1,410,465,168,0,0,536,-22519,-30064,511,,,,,,,,,,,,
663123,1560691934942,4,2.2,2.65,2.97,2.28,5.04,0.64,0.12,1.23,-13,-1,-22,0.65,10223,72,87,32,72,1102,530.0,622,461,60,117.0,338,1,414,467,168,0,0,536,-22519,-30064,511,,,,,,,,,,,,
663143,1560691934962,2,2.21,2.66,2.92,2.26,5.05,0.69,0.09,1.22,-13,-1,-22,0.69,10240,72,87,32,72,1107,535.0,625,457,60,117.0,338,1,415,466,168,0,0,548,2524,-22519,516,45.701542,4.910818,47.64,198.3,6,1.6633,0,0.0,0.23,7,0.19,11.0524
663163,1560691934982,0,2.21,2.66,2.91,2.27,5.05,0.66,0.08,1.13,-12,1,-21,0.67,10330,72,87,32,72,1115,536.0,617,457,60,117.0,348,1,423,468,182,0,0,549,6274,2524,519,,,,,,,,,,,,
663183,1560691934996,2,2.2,2.66,2.97,2.26,5.06,0.69,0.1,1.07,-11,1,-19,0.69,10364,72,87,32,73,1118,543.0,638,454,60,117.0,348,1,425,468,182,0,0,559,-28648,6273,522,,,,,,,,,,,,
663203,1560691935016,3,2.2,2.66,2.94,2.28,5.04,0.63,0.19,1.0,-11,1,-17,0.66,10504,72,87,32,73,1121,547.0,630,452,60,117.0,348,1,436,476,182,0,0,558,1779,-22359,528,,,,,,,,,,,,
663223,1560691935036,0,2.2,2.66,2.94,2.27,5.04,0.5,0.3,0.99,-11,0,-16,0.58,10563,72,87,32,73,1120,550.0,627,452,60,117.0,348,1,437,476,182,0,0,561,-32248,-28648,536,,,,,,,,,,,,
663243,1560691935056,3,2.2,2.66,2.94,2.28,5.03,0.38,0.34,0.96,-11,2,-15,0.51,10677,72,87,32,72,1120,554.0,628,455,60,117.0,348,1,440,476,182,0,0,561,-32248,-28648,536,45.701553,4.910818,49.48,198.3,6,1.6633,0,0.0,0.2317,7,0.19,11.0541
663263,1560691935076,3,2.2,2.66,2.91,2.27,5.03,0.39,0.49,0.86,-11,1,-14,0.62,10702,72,87,32,73,1118,559.0,631,460,60,117.0,356,1,440,476,193,0,0,572,6273,10432,541,,,,,,,,,,,,
663283,1560691935098,2,2.19,2.67,2.92,2.26,5.06,0.44,0.54,0.8,-11,1,-14,0.7,10819,72,87,32,73,1115,562.0,636,460,60,116.0,356,1,442,476,193,0,0,576,-18032,-16384,547,,,,,,,,,,,,
663303,1560691935118,-0,2.2,2.66,2.92,2.26,5.07,0.51,0.47,0.9,-10,-1,-14,0.7,10504,72,87,32,74,1102,568.0,638,461,60,119.0,356,1,434,480,193,0,0,576,-18032,-16384,547,,,,,,,,,,,,
663323,1560691935138,-1,2.2,2.65,2.93,2.24,5.07,0.62,0.47,0.92,-10,-1,-15,0.78,10096,73,87,32,76,1093,570.0,631,455,60,119.0,356,1,402,490,193,0,0,574,259,-29984,556,,,,,,,,,,,,
663343,1560691935158,1,2.2,2.62,2.94,2.2,5.03,0.76,0.38,0.9,-10,-2,-15,0.85,9775,73,87,32,78,1082,573.0,636,452,60,119.0,356,1,405,495,193,0,0,568,1760,-32504,558,45.701565,4.910817,51.64,198.3,6,1.6633,0,0.0,0.2333,7,0.19,11.0557
663363,1560691935178,-0,2.19,2.6,3.01,2.16,5.05,0.61,0.54,0.77,-10,-1,-15,0.82,9595,75,87,32,79,1073,573.0,626,456,60,119.0,326,1,412,500,182,0,0,568,1760,-32504,558,,,,,,,,,,,,
663383,1560691935204,0,2.18,2.58,3.1,2.12,5.07,0.73,0.32,0.8,-11,-5,-13,0.8,9356,80,87,32,82,1088,573.0,623,451,60,118.0,326,1,417,526,182,0,0,568,1760,-32504,556,,,,,,,,,,,,
663403,1560691935224,4,2.18,2.58,3.09,2.11,5.04,0.83,0.09,0.82,-11,-7,-15,0.83,9075,84,87,32,84,1106,576.0,612,455,60,116.0,326,1,418,973,182,0,0,576,1,-22359,553,,,,,,,,,,,,
663423,1560691935244,4,2.18,2.59,3.08,2.08,5.05,0.6,0.22,0.68,-12,-14,-18,0.64,8907,86,87,32,86,1133,576.0,599,453,60,117.0,326,1,420,933,182,0,0,584,1,774,556,,,,,,,,,,,,
663443,1560691935264,5,2.17,2.6,3.04,2.07,5.07,0.55,0.38,0.71,-12,-9,-18,0.67,8720,88,87,32,87,1173,581.0,578,451,60,117.0,326,1,426,826,182,0,0,584,1,774,556,45.70158,4.910816,53.72,198.2,6,1.6633,0,0.0,0.235,7,0.2,11.0574
663463,1560691935284,2,2.16,2.67,2.92,2.08,5.04,0.7,0.18,0.83,-13,-6,-17,0.72,8640,88,87,32,86,1233,589.0,560,453,60,116.0,454,1,428,709,254,0,0,606,10432,24,557,,,,,,,,,,,,
663483,1560691935304,1,2.16,2.71,2.81,2.13,5.06,0.77,0.14,0.95,-14,-4,-16,0.78,8585,89,87,32,86,1287,593.0,550,460,60,117.0,454,1,429,628,254,0,0,631,3472,19320,565,,,,,,,,,,,,
663503,1560691935324,1,2.16,2.75,2.74,2.19,5.04,0.63,0.32,0.94,-13,-1,-16,0.71,8499,89,87,32,86,1360,598.0,560,460,60,117.0,454,1,432,598,254,0,0,631,3472,19320,565,,,,,,,,,,,,
663523,1560691935344,3,2.15,2.8,2.74,2.26,5.07,0.64,0.36,1.04,-14,-2,-17,0.73,8419,90,87,32,87,1388,603.0,558,450,60,116.0,454,1,436,578,254,0,0,639,4956,17740,564,,,,,,,,,,,,
663543,1560691935364,5,2.14,2.82,2.75,2.3,5.08,0.68,0.42,0.96,-14,-2,-16,0.8,8370,90,87,32,87,1396,607.0,558,454,60,117.0,454,1,436,585,254,0,0,629,-768,506,566,45.701595,4.910814,54.35,198.2,6,1.6633,0,0.0,0.2367,7,0.2,11.059
663563,1560691935384,1,2.15,2.82,2.75,2.31,5.05,0.59,0.52,0.93,-15,-3,-17,0.78,8480,90,87,32,88,1367,612.0,553,455,60,117.0,326,1,434,597,189,0,0,632,28675,771,582,,,,,,,,,,,,
663583,1560691935404,3,2.16,2.81,2.78,2.29,5.07,0.65,0.57,1.0,-16,-4,-16,0.86,8585,90,87,32,87,1319,615.0,565,457,60,117.0,326,1,430,599,189,0,0,633,19304,-2836,591,,,,,,,,,,,,
663603,1560691935424,2,2.16,2.79,2.79,2.25,5.05,0.63,0.67,1.02,-16,-4,-15,0.92,8778,90,87,32,86,1221,623.0,572,459,60,117.0,326,1,424,588,189,0,0,633,19304,-2836,591,,,,,,,,,,,,
663623,1560691935444,1,2.18,2.78,2.86,2.2,5.07,0.56,0.75,0.94,-16,-4,-16,0.94,9005,90,87,32,86,1162,628.0,582,455,60,117.0,326,1,418,588,189,0,0,655,-16046,-26380,597,,,,,,,,,,,,
663643,1560691935464,-0,2.18,2.77,2.89,2.19,5.05,0.45,0.88,0.92,-15,-3,-16,0.99,9177,90,87,32,85,1065,634.0,592,458,60,117.0,326,1,418,576,189,0,0,655,-16046,-26380,597,45.701607,4.910812,56.59,198.2,6,1.6633,0,0.0,0.2383,7,0.2,11.0607
663663,1560691935484,2,2.17,2.77,2.9,2.19,5.07,0.54,0.93,0.94,-16,-1,-16,1.08,9213,90,87,32,85,1009,641.0,593,457,60,117.0,331,1,418,576,201,0,0,676,-2836,4909,603,,,,,,,,,,,,
663683,1560691935504,2,2.17,2.79,2.83,2.21,5.04,0.69,0.87,1.05,-17,-2,-15,1.11,9159,90,87,32,85,1011,643.0,595,450,60,116.0,331,1,418,576,201,0,0,687,-3584,24583,606,,,,,,,,,,,,
663703,1560691935524,2,2.18,2.8,2.62,2.19,5.04,0.82,0.76,1.14,-19,-2,-15,1.11,9036,90,87,32,85,1016,650.0,592,451,60,117.0,331,1,418,576,201,0,0,668,244,-10348,611,,,,,,,,,,,,
663723,1560691935544,3,2.17,2.82,2.52,2.17,5.03,0.93,0.61,1.22,-19,-3,-17,1.11,9053,89,87,32,85,1026,653.0,585,455,60,116.0,331,1,418,576,201,0,0,663,-6006,-3584,617,,,,,,,,,,,,
663743,1560691935564,4,2.18,2.82,2.52,2.16,5.04,1.02,0.61,1.22,-18,-4,-18,1.19,9159,89,87,32,85,1034,655.0,581,457,60,117.0,331,1,418,576,201,0,0,670,-3488,11576,615,45.701622,4.910809,58.54,198.2,6,1.6633,0,0.0,0.24,7,0.2,11.0624
663763,1560691935584,4,2.18,2.8,2.72,2.16,5.05,1.09,0.47,1.29,-17,-5,-19,1.19,9268,88,87,32,85,1044,657.0,591,452,60,117.0,314,1,418,566,197,0,0,671,31988,-26380,624,,,,,,,,,,,,
663783,1560691935604,5,2.18,2.79,2.8,2.17,5.06,0.88,0.45,1.23,-17,-8,-19,0.99,9351,88,87,32,84,1051,664.0,602,450,60,117.0,314,1,418,566,197,0,0,683,-10348,-2830,641,,,,,,,,,,,,
663803,1560691935624,-0,2.19,2.77,2.79,2.17,5.06,0.61,0.6,1.03,-17,-6,-18,0.86,9417,87,87,32,84,1057,668.0,601,461,60,117.0,314,1,418,566,197,0,0,694,-2830,11069,646,,,,,,,,,,,,
663823,1560691935644,1,2.19,2.77,2.77,2.18,5.04,0.69,0.58,0.96,-17,-5,-15,0.9,9512,87,87,32,84,1062,673.0,611,461,60,117.0,314,1,418,566,197,0,0,694,-2830,11069,646,,,,,,,,,,,,
663843,1560691935664,7,2.18,2.77,2.75,2.17,5.04,0.72,0.4,1.02,-17,-6,-15,0.83,9600,87,87,32,84,1058,676.0,617,453,60,117.0,314,1,414,565,197,0,0,689,-3038,687,648,45.701637,4.910804,60.55,198.1,6,1.6633,0,0.0,0.2417,7,0.2,11.064
663863,1560691935684,1,2.19,2.77,2.76,2.17,5.05,0.5,0.56,0.91,-16,-3,-15,0.75,9659,86,87,32,82,1051,681.0,621,460,60,116.0,308,1,410,553,202,0,0,707,-26892,-3584,653,,,,,,,,,,,,
663883,1560691935704,3,2.19,2.78,2.76,2.21,5.06,0.65,0.54,0.95,-16,-4,-15,0.85,9679,85,87,32,82,1036,686.0,615,451,60,117.0,308,1,409,539,202,0,0,718,-26562,8010,656,,,,,,,,,,,,
663903,1560691935724,0,2.19,2.77,2.76,2.18,5.08,0.63,0.58,0.94,-16,-5,-15,0.86,9684,84,87,32,82,1025,690.0,620,448,60,117.0,308,1,409,539,202,0,0,714,12333,-3888,671,,,,,,,,,,,,
663923,1560691935744,3,2.19,2.75,2.74,2.16,5.06,0.62,0.54,1.0,-16,-3,-15,0.82,9664,84,87,32,81,1013,699.0,612,458,60,116.0,308,1,410,527,202,0,0,714,12333,-3888,671,,,,,,,,,,,,
663943,1560691935764,-1,2.2,2.76,2.72,2.15,5.06,0.58,0.54,0.96,-16,-2,-16,0.79,9699,84,87,32,81,999,702.0,610,459,60,117.0,308,1,409,528,202,0,0,720,-3584,-12152,677,45.701652,4.910798,63.49,198.1,6,1.6633,0,0.0,0.2433,7,0.2,11.0657
663963,1560691935784,2,2.19,2.79,2.72,2.17,5.05,0.45,0.54,0.91,-15,-1,-17,0.71,9806,84,87,32,81,990,705.0,615,455,60,117.0,288,1,404,528,195,0,0,718,19188,-2826,677,,,,,,,,,,,,
663983,1560691935804,3,2.18,2.79,2.72,2.17,5.04,0.58,0.62,1.01,-15,-1,-17,0.85,9931,84,87,32,81,979,707.0,622,450,60,117.0,288,1,399,520,195,0,0,723,6658,-2830,681,,,,,,,,,,,,
664003,1560691935824,4,2.19,2.77,2.73,2.15,5.07,0.58,0.62,1.02,-15,-2,-18,0.85,9952,84,87,32,80,976,708.0,621,453,60,117.0,288,1,398,520,195,0,0,723,6658,-2830,681,,,,,,,,,,,,
664023,1560691935844,2,2.18,2.74,2.74,2.12,5.06,0.5,0.68,0.98,-15,-0,-18,0.84,9994,84,87,32,80,976,715.0,631,454,60,116.0,288,1,397,521,195,0,0,733,-13312,-2358,694,,,,,,,,,,,,
664043,1560691935864,2,2.19,2.75,2.74,2.14,5.04,0.55,0.61,1.07,-16,-1,-21,0.82,10064,83,87,32,80,982,723.0,623,460,60,117.0,288,1,400,521,195,0,0,731,-2918,-2766,698,45.701668,4.910791,65.54,198.1,6,1.6633,0,0.0,0.245,7,0.21,11.0674
664063,1560691935884,6,2.18,2.75,2.75,2.13,5.04,0.51,0.62,1.08,-15,-1,-23,0.81,10151,83,87,32,80,991,724.0,626,451,60,117.0,287,1,406,521,200,0,0,731,-2918,-2766,698,,,,,,,,,,,,
664083,1560691935903,5,2.18,2.76,2.74,2.12,5.05,0.42,0.68,1.07,-15,-0,-24,0.8,10234,83,87,32,80,999,728.0,631,455,60,117.0,287,1,411,521,200,0,0,747,-2918,-13068,698,,,,,,,,,,,,
664103,1560691935923,2,2.19,2.75,2.71,2.11,5.05,0.49,0.75,1.13,-15,0,-23,0.89,10184,83,87,32,80,1005,734.0,625,457,60,117.0,287,1,408,521,200,0,0,752,-2826,-30694,705,,,,,,,,,,,,
664123,1560691935943,3,2.18,2.72,2.68,2.07,5.03,0.51,0.7,1.21,-16,1,-21,0.86,10201,81,87,32,79,1016,740.0,626,458,60,116.0,287,1,410,513,200,0,0,752,-2826,-30694,705,,,,,,,,,,,,
664143,1560691935963,2,2.19,2.73,2.64,2.07,5.05,0.5,0.71,1.24,-16,2,-22,0.87,10217,79,87,32,78,1024,741.0,625,453,60,117.0,287,1,411,505,200,0,0,751,-2314,-10216,716,45.701683,4.910784,67.76,198.0,6,1.6633,0,0.0,0.2467,7,0.21,11.069
664163,1560691935983,1,2.19,2.75,2.65,2.1,5.04,0.47,0.66,1.23,-15,0,-23,0.81,10279,77,87,32,77,1029,741.0,633,455,60,117.0,269,1,415,497,193,0,0,751,-2314,-10216,716,,,,,,,,,,,,
664183,1560691935997,6,2.17,2.78,2.72,2.2,5.05,0.38,0.67,1.21,-14,1,-23,0.77,10422,77,87,32,76,1030,738.0,621,459,60,116.0,269,1,425,490,193,0,0,761,-2356,-3450,717,,,,,,,,,,,,
664203,1560691936017,3,2.17,2.81,2.71,2.29,5.06,0.4,0.64,1.28,-13,-1,-22,0.75,10393,77,87,32,76,1029,741.0,625,455,60,117.0,269,1,423,490,193,0,0,765,-3580,-3038,715,,,,,,,,,,,,
664223,1560691936037,5,2.16,2.8,2.73,2.28,5.06,0.4,0.59,1.27,-14,0,-22,0.71,10428,74,87,32,75,1027,746.0,628,460,60,116.0,269,1,427,484,193,0,0,764,136,-2426,724,,,,,,,,,,,,
664243,1560691936057,6,2.16,2.8,2.81,2.27,5.04,0.44,0.51,1.27,-14,-3,-22,0.68,10416,69,87,32,73,1023,750.0,641,459,60,117.0,269,1,429,474,193,0,0,764,136,-2426,724,45.701698,4.910774,69.51,198.0,6,1.6633,0,0.0,0.2483,7,0.21,11.0707
664263,1560691936077,6,2.16,2.79,2.97,2.24,5.04,0.38,0.49,1.29,-14,-4,-21,0.62,10653,64,87,32,70,1020,756.0,637,457,60,117.0,257,1,443,461,188,0,0,784,-31066,204,732,,,,,,,,,,,,
664283,1560691936099,2,2.16,2.78,3.05,2.23,5.06,0.4,0.45,1.3,-15,-5,-23,0.6,10775,59,87,32,67,1013,762.0,641,456,60,117.0,257,1,447,442,188,0,0,789,-2766,-2344,733,,,,,,,,,,,,
664303,1560691936119,2,2.19,2.77,3.03,2.19,5.04,0.27,0.43,1.26,-16,-3,-25,0.51,10800,52,87,32,64,999,769.0,639,457,60,117.0,257,1,449,417,188,0,0,789,-2766,-2344,733,,,,,,,,,,,,
664323,1560691936139,2,2.2,2.77,2.97,2.13,5.04,0.21,0.53,1.13,-17,-2,-24,0.57,10659,45,87,32,59,992,769.0,641,459,60,117.0,257,1,435,380,188,0,0,799,-2344,1524,740,,,,,,,,,,,,
664343,1560691936159,5,2.2,2.77,2.86,2.12,5.04,0.22,0.68,0.97,-17,0,-24,0.72,10521,37,87,32,55,983,770.0,638,460,60,116.0,257,1,407,337,188,0,0,799,-2344,1524,740,45.701717,4.910763,71.88,198.0,6,1.6633,0,0.0,0.25,7,0.21,11.0724
664363,1560691936179,5,2.19,2.78,2.76,2.11,5.07,0.25,0.81,0.93,-17,0,-23,0.84,10168,28,87,32,50,970,770.0,632,453,60,117.0,162,1,388,278,119,0,0,780,-2570,-10216,730,,,,,,,,,,,,
664383,1560691936203,8,2.18,2.78,2.69,2.09,5.04,0.38,0.74,0.89,-17,-1,-23,0.83,9842,20,87,32,45,935,766.0,626,453,60,117.0,162,1,365,237,119,0,0,780,-2570,-10216,730,,,,,,,,,,,,
