"Interval"|"ms"|0|0|1,"Utc"|"ms"|0|0|1,"FB_p"|"bar"|0|300|50,"Volant"|"F"|0.0|300.0|50,"xFR"|"mm"|0.0|5.0|50,"xRR"|"mm"|0.0|5.0|50,"xFL"|"mm"|0.0|5.0|50,"xRL"|"mm"|0.0|5.0|50,"AccelX"|"G"|-3.0|3.0|50,"AccelY"|"G"|-3.0|3.0|50,"AccelZ"|"G"|-3.0|3.0|50,"Yaw"|"Deg/Sec"|-120|120|50,"Pitch"|"Deg/Sec"|-120|120|50,"Roll"|"Deg/Sec"|-120|120|50,"Gsum"|"G"|0.0|3.0|50,"RPM"|""|0|14000|50,"TPS"|"%"|0|100|50,"WaterTemp"|"?C"|0|300|50,"AirTemp"|"?C"|-1000|1000|50,"MAP"|"KPa"|0|255|50,"Lambda"|""|0|1024|50,"WheelSpeed"|"MPH"|0.0|150.0|50,"OilPress"|"PSI"|0|150|50,"FuelPress"|"PSI"|0|150|50,"OilTemp"|"F"|0|300|50,"Battery"|"Volts"|0.0|20.0|50,"FuelCon"|"L/h"|-1000|1000|50,"Gear"|""|0|10|50,"Advance"|"Deg"|-360|360|50,"Injection"|"ms"|-1000|1000|50,"FuelCon"|"L/100km"|-1000|1000|50,"LC_But_Pres"|""|-1000|1000|50,"LC_Active"|""|-1000|1000|50,"RD_Speed"|""|-1000|1000|50,"RUD_Speed"|""|-1000|1000|50,"LD_Speed"|""|-1000|1000|50,"LUD_Speed"|""|-1000|1000|50,"Latitude"|"Degrees"|-180.0|180.0|10,"Longitude"|"Degrees"|-180.0|180.0|10,"Speed"|"kph"|0.0|150.0|10,"Altitude"|"m"|0.0|4000.0|10,"LapCount"|""|0|0|10,"LapTime"|"Min"|0.0|0.0|10,"Sector"|""|0|0|10,"SectorTime"|"Min"|0.0|0.0|10,"ElapsedTime"|"Min"|0.0|0.0|10,"CurrentLap"|""|0|0|10,"Distance"|"km"|0.0|0.0|10,"SessionTime"|"Min"|0.0|0.0|10
834963,1560693363063,16,2.27,1.88,3.45,1.72,5.07,0.77,0.18,-0.11,2,8,3,0.79,5649,5,90,33,29,917,515.0,400,427,60,118.0,65,1,275,162,35,0,0,493,-3856,998,511,,,,,,,,,,,,
834983,1560693363083,15,2.26,1.9,3.46,1.73,5.07,0.75,0.25,-0.05,5,7,2,0.79,5583,4,90,33,29,906,508.0,400,412,60,118.0,65,1,274,161,35,0,0,496,6274,771,508,,,,,,,,,,,,
835003,1560693363109,14,2.27,1.9,3.47,1.76,5.05,0.88,0.15,0.06,2,2,1,0.89,5522,4,90,33,30,879,501.0,398,444,60,117.0,65,1,275,162,33,0,0,486,2524,-6656,501,,,,,,,,,,,,
835023,1560693363129,15,2.27,1.89,3.47,1.74,5.07,0.74,0.07,-0.01,0,4,0,0.75,5463,4,90,33,31,854,494.0,393,437,60,118.0,65,1,276,162,33,0,0,478,998,-6441,494,,,,,,,,,,,,
835043,1560693363149,14,2.27,1.89,3.5,1.72,5.08,0.87,0.11,0.05,2,3,-0,0.87,5397,4,90,33,31,833,491.0,390,421,60,118.0,65,1,275,161,33,0,0,470,248,-23367,491,45.700764,4.90964,52.94,195.1,8,1.6267,0,0.0,0.0383,9,0.06,13.9174
835063,1560693363169,15,2.27,1.9,3.45,1.72,5.05,0.98,0.1,0.13,-1,-0,-1,0.99,5355,4,90,33,32,812,488.0,391,428,60,117.0,65,1,276,162,33,0,0,470,-1562,10432,488,,,,,,,,,,,,
835083,1560693363189,14,2.26,1.92,3.44,1.72,5.08,0.92,0.2,0.1,2,1,-2,0.94,5252,4,90,33,33,799,483.0,385,430,60,118.0,65,1,278,167,33,0,0,469,32033,243,482,,,,,,,,,,,,
835103,1560693363209,15,2.27,1.92,3.45,1.73,5.07,1.03,0.2,0.16,-1,-1,-2,1.04,5185,4,90,33,34,787,475.0,379,433,60,118.0,69,1,281,172,33,0,0,459,-17956,-26615,473,,,,,,,,,,,,
835123,1560693363229,15,2.26,1.92,3.5,1.74,5.04,0.77,0.16,0.07,2,-2,-3,0.79,5144,4,90,33,34,796,472.0,378,408,60,118.0,69,1,280,178,33,0,0,450,10432,-8985,469,,,,,,,,,,,,
835143,1560693363249,12,2.27,1.91,3.51,1.73,5.05,0.9,0.08,0.12,-1,0,-2,0.9,5099,4,90,33,35,805,465.0,374,425,60,119.0,69,1,283,178,33,0,0,442,6193,-6387,465,45.700771,4.909649,50.16,195.1,8,1.6267,0,0.0,0.04,9,0.06,13.9191
835163,1560693363269,15,2.27,1.91,3.48,1.71,5.08,1.01,0.15,0.19,-0,-5,-3,1.02,5001,4,90,33,36,815,462.0,366,433,60,116.0,69,1,287,183,33,0,0,446,2211,21432,462,,,,,,,,,,,,
835183,1560693363289,15,2.26,1.91,3.44,1.71,5.07,0.77,0.12,0.04,2,-1,-4,0.78,4966,4,90,33,37,825,458.0,361,429,60,119.0,69,1,289,188,33,0,0,445,14488,26704,457,,,,,,,,,,,,
835203,1560693363308,14,2.27,1.91,3.44,1.7,5.07,0.89,0.03,0.04,0,1,-6,0.89,4969,4,90,33,38,826,451.0,357,417,60,118.0,77,1,293,194,35,0,0,437,3571,23400,447,,,,,,,,,,,,
835223,1560693363328,15,2.26,1.92,3.46,1.7,5.07,1.01,0.15,0.09,-0,-4,-5,1.02,4939,4,90,33,38,827,448.0,353,420,60,117.0,77,1,291,194,35,0,0,426,2131,-3314,445,,,,,,,,,,,,
835243,1560693363348,14,2.27,1.91,3.46,1.71,5.06,0.84,0.17,0.03,2,-2,-4,0.86,4858,4,90,33,38,825,442.0,355,417,60,118.0,77,1,287,198,35,0,0,424,23400,3635,439,45.700783,4.909658,47.53,195.1,8,1.6267,0,0.0,0.0417,9,0.06,13.9207
835263,1560693363368,14,2.26,1.92,3.46,1.72,5.03,0.76,0.12,0.01,2,-0,-5,0.77,4785,4,90,33,39,823,437.0,350,440,60,118.0,77,1,289,195,35,0,0,424,19477,-3414,435,,,,,,,,,,,,
835283,1560693363388,13,2.26,1.93,3.46,1.72,5.05,0.76,0.04,0.01,1,4,-6,0.76,4698,4,90,33,40,822,434.0,341,435,60,118.0,77,1,286,194,35,0,0,416,-3322,-21944,429,,,,,,,,,,,,
835303,1560693363408,14,2.27,1.93,3.44,1.73,5.04,0.89,0.02,0.07,-1,6,-7,0.89,4672,4,90,33,40,819,426.0,338,415,60,118.0,79,1,285,193,34,0,0,414,3826,-26615,422,,,,,,,,,,,,
835323,1560693363428,12,2.26,1.94,3.44,1.73,5.04,1.0,0.02,0.11,-2,2,-6,1.0,4675,4,90,33,40,817,422.0,335,412,60,118.0,79,1,285,193,34,0,0,410,-3414,10392,419,,,,,,,,,,,,
835343,1560693363448,12,2.26,1.93,3.45,1.72,5.07,1.1,0.11,0.12,-2,-0,-5,1.11,4637,4,90,33,40,815,418.0,338,403,60,117.0,79,1,283,192,34,0,0,405,-3414,6512,415,45.700794,4.909665,45.06,195.1,8,1.6267,0,0.0,0.0433,9,0.06,13.9224
835363,1560693363468,10,2.27,1.92,3.44,1.71,5.06,1.19,0.16,0.14,-1,-4,-3,1.2,4562,4,90,33,40,814,415.0,335,411,60,117.0,79,1,279,189,34,0,0,401,2524,-8151,413,,,,,,,,,,,,
835383,1560693363488,12,2.26,1.92,3.43,1.74,5.04,1.27,0.19,0.17,-2,-7,-1,1.29,4496,4,90,33,41,814,409.0,333,431,60,117.0,79,1,279,191,34,0,0,397,10392,10541,409,,,,,,,,,,,,
835403,1560693363508,13,2.26,1.92,3.41,1.75,5.07,1.35,0.22,0.2,-2,-11,-0,1.36,4450,4,90,33,41,816,404.0,326,422,60,118.0,78,1,278,189,32,0,0,395,10541,-1562,404,,,,,,,,,,,,
835423,1560693363528,10,2.27,1.92,3.41,1.75,5.07,1.41,0.21,0.25,-3,-12,1,1.43,4414,4,90,33,41,820,398.0,325,412,60,118.0,78,1,276,188,32,0,0,391,6384,-31744,397,,,,,,,,,,,,
835443,1560693363548,11,2.27,1.91,3.42,1.75,5.08,1.47,0.13,0.28,-3,-12,2,1.48,4349,4,90,33,41,823,396.0,318,409,60,118.0,78,1,274,186,32,0,0,379,-6656,19125,394,45.700802,4.909673,42.66,195.1,8,1.6267,0,0.0,0.045,9,0.06,13.9241
835463,1560693363568,11,2.26,1.91,3.41,1.75,5.04,1.42,0.07,0.22,-3,-8,2,1.42,4324,4,90,33,41,826,391.0,318,422,60,118.0,78,1,273,185,32,0,0,381,-1562,-6656,391,,,,,,,,,,,,
835483,1560693363588,9,2.27,1.92,3.41,1.75,5.06,1.29,0.02,0.13,-3,-4,2,1.29,4263,4,90,33,41,833,387.0,315,418,60,118.0,78,1,270,180,32,0,0,379,-3866,8200,385,,,,,,,,,,,,
835503,1560693363610,12,2.27,1.92,3.4,1.76,5.06,1.19,0.01,0.04,-2,-2,2,1.19,4210,4,90,33,40,843,384.0,313,435,60,119.0,75,1,264,181,29,0,0,375,-992,3,381,,,,,,,,,,,,
835523,1560693363630,11,2.26,1.92,3.39,1.77,5.04,1.23,0.04,0.1,-2,-5,2,1.23,4121,4,90,33,40,850,379.0,312,446,60,118.0,75,1,260,180,29,0,0,368,3,257,379,,,,,,,,,,,,
835543,1560693363650,13,2.26,1.91,3.4,1.76,5.06,1.3,0.03,0.17,-2,-7,2,1.3,4088,4,90,33,41,856,373.0,302,425,60,117.0,75,1,263,179,29,0,0,360,-6656,-6458,372,45.70081,4.90968,40.57,195.1,8,1.6267,0,0.0,0.0467,9,0.06,13.9257
835563,1560693363670,12,2.26,1.91,3.4,1.77,5.04,1.22,0.05,0.12,-2,-4,1,1.22,4055,4,90,33,41,857,369.0,298,412,60,118.0,75,1,261,177,29,0,0,356,-1268,2811,369,,,,,,,,,,,,
835583,1560693363690,12,2.26,1.91,3.4,1.76,5.07,1.21,0.1,0.14,-1,-5,1,1.22,3985,4,90,33,41,852,363.0,300,405,60,118.0,75,1,259,176,29,0,0,352,2790,2811,363,,,,,,,,,,,,
835603,1560693363708,12,2.27,1.91,3.41,1.75,5.07,1.25,0.07,0.19,-1,-7,2,1.25,3934,4,90,33,41,845,359.0,291,409,60,116.0,71,1,257,258,26,0,0,347,-6640,-1246,359,,,,,,,,,,,,
835623,1560693363728,14,2.25,1.94,3.42,1.77,5.06,1.16,0.05,0.14,-1,-4,2,1.16,4066,4,90,33,41,834,355.0,291,406,60,118.0,71,1,262,243,26,0,0,346,-6644,-10554,354,,,,,,,,,,,,
835643,1560693363748,11,2.27,1.93,3.41,1.77,5.05,1.17,0.08,0.15,-0,-4,2,1.17,4080,4,90,33,41,824,351.0,294,405,60,117.0,71,1,263,224,26,0,0,344,28553,-31206,349,45.700821,4.909686,38.19,195.1,8,1.6267,0,0.0,0.0483,9,0.06,13.9274
835663,1560693363768,9,2.26,1.93,3.42,1.76,5.06,1.23,0.08,0.24,-1,-7,2,1.23,3989,4,90,33,41,816,347.0,292,408,60,115.0,71,1,258,200,26,0,0,341,8841,-31206,347,,,,,,,,,,,,
835683,1560693363788,12,2.26,1.93,3.42,1.74,5.08,1.14,0.04,0.17,-1,-4,2,1.14,3954,4,90,34,41,810,344.0,290,410,60,118.0,71,1,258,182,26,0,0,333,-10554,-31222,342,,,,,,,,,,,,
835703,1560693363810,11,2.27,1.93,3.43,1.72,5.08,1.21,0.08,0.2,-1,-6,2,1.21,3852,4,90,34,41,812,340.0,288,410,60,117.0,76,1,254,175,26,0,0,330,3327,4838,339,,,,,,,,,,,,
835723,1560693363830,14,2.26,1.93,3.44,1.72,5.07,1.18,0.02,0.12,-0,-4,2,1.18,3765,4,90,34,41,820,336.0,283,407,60,118.0,76,1,250,175,26,0,0,328,13,-12032,333,,,,,,,,,,,,
835743,1560693363850,10,2.27,1.93,3.45,1.71,5.06,1.19,0.07,0.12,-0,-5,1,1.2,3831,4,90,34,42,836,333.0,278,402,60,118.0,76,1,256,178,26,0,0,314,-20736,32000,329,45.700825,4.909692,36.29,195.1,8,1.6267,0,0.0,0.05,9,0.06,13.9291
835763,1560693363870,11,2.27,1.92,3.48,1.71,5.04,1.25,-0.01,0.16,-1,-5,1,1.25,3985,4,90,34,42,853,326.0,281,400,60,118.0,76,1,264,179,26,0,0,297,165,24320,324,,,,,,,,,,,,
835783,1560693363890,11,2.26,1.92,3.49,1.7,5.06,1.13,-0.02,0.07,-0,0,0,1.13,4054,4,90,34,42,868,323.0,286,406,60,118.0,76,1,266,180,26,0,0,291,150,23040,319,,,,,,,,,,,,
835803,1560693363908,10,2.26,1.93,3.49,1.72,5.05,1.1,-0.03,0.02,0,0,0,1.1,4048,4,90,34,41,892,316.0,290,406,60,117.0,84,1,261,177,27,0,0,295,140,23040,314,,,,,,,,,,,,
835823,1560693363928,9,2.26,1.95,3.46,1.75,5.05,1.16,-0.01,0.09,-0,-2,1,1.16,4026,4,90,34,42,946,312.0,289,412,60,116.0,84,1,266,179,27,0,0,294,130,23040,311,,,,,,,,,,,,
835843,1560693363948,9,2.26,1.95,3.43,1.75,5.04,1.11,-0.05,0.07,0,1,-0,1.11,3983,4,90,34,41,998,306.0,290,404,60,118.0,84,1,259,176,27,0,0,298,115,80,306,45.700836,4.909698,34.17,195.1,8,1.6267,0,0.0,0.0517,9,0.06,13.9307
835863,1560693363968,7,2.26,1.95,3.42,1.75,5.04,1.11,-0.03,0.06,1,1,-1,1.11,3971,4,90,34,41,1036,303.0,290,406,60,117.0,84,1,258,271,27,0,0,292,105,0,303,,,,,,,,,,,,
835883,1560693363988,7,2.26,1.95,3.42,1.75,5.04,1.17,-0.04,0.15,1,-3,-1,1.17,3980,4,90,34,42,1077,298.0,287,403,60,118.0,84,1,263,251,27,0,0,289,95,0,298,,,,,,,,,,,,
835903,1560693364002,9,2.25,1.95,3.42,1.75,5.06,1.14,-0.09,0.16,0,0,-2,1.14,4054,4,90,34,42,1129,295.0,287,397,60,117.0,125,1,266,238,37,0,0,289,85,0,295,,,,,,,,,,,,
835923,1560693364022,4,2.25,1.95,3.4,1.78,5.04,1.12,-0.06,0.16,1,1,-2,1.12,4084,4,90,34,41,1179,292.0,291,388,60,118.0,125,1,263,215,37,0,0,286,80,80,292,,,,,,,,,,,,
835943,1560693364042,1,2.26,1.95,3.4,1.78,5.04,1.17,-0.03,0.25,0,-2,-2,1.17,4008,4,90,34,41,1193,290.0,292,396,60,115.0,125,1,260,198,37,0,0,289,0,10686,290,45.700844,4.909704,31.68,195.1,8,1.6267,0,0.0,0.0533,9,0.07,13.9324
835963,1560693364062,3,2.27,1.98,3.39,1.8,5.04,1.1,-0.09,0.25,-0,1,-2,1.1,3955,4,90,34,42,1206,290.0,290,391,60,118.0,125,1,262,179,37,0,0,287,0,0,289,,,,,,,,,,,,
835983,1560693364082,0,2.26,2.0,3.36,1.81,5.04,1.08,0.0,0.23,0,-3,-0,1.08,3887,4,90,34,41,1207,288.0,286,389,60,117.0,125,1,255,175,37,0,0,285,0,10686,288,,,,,,,,,,,,
836003,1560693364108,1,2.27,2.0,3.37,1.81,5.04,1.08,-0.02,0.25,1,-2,-0,1.08,3922,4,90,34,42,1209,288.0,286,394,60,118.0,90,1,261,179,26,0,0,276,0,-1,287,,,,,,,,,,,,
836023,1560693364128,4,2.26,2.0,3.39,1.8,5.05,1.09,-0.04,0.21,0,-0,-0,1.09,4057,3,90,34,41,1198,283.0,286,392,60,119.0,90,1,261,177,26,0,0,268,24064,-1,280,,,,,,,,,,,,
836043,1560693364148,2,2.27,1.99,3.4,1.78,5.08,1.01,-0.06,0.17,0,3,-0,1.02,4315,4,90,34,41,1186,280.0,292,391,60,119.0,90,1,272,185,26,0,0,268,250,-10440,279,45.700848,4.909709,30.25,195.1,8,1.6267,0,0.0,0.055,9,0.07,13.934
836063,1560693364168,4,2.26,1.99,3.39,1.78,5.06,0.94,-0.06,0.12,1,6,-1,0.94,4479,3,90,34,41,1165,277.0,301,400,60,118.0,90,1,279,189,26,0,0,255,30208,-1,274,,,,,,,,,,,,
836083,1560693364188,4,2.27,2.0,3.38,1.8,5.07,0.87,-0.06,0.13,1,9,-2,0.87,4634,3,90,34,41,1143,274.0,310,394,60,118.0,90,1,285,195,26,0,0,262,2414,-41,274,,,,,,,,,,,,
836103,1560693364210,0,2.26,1.99,3.37,1.81,5.03,0.84,-0.14,0.12,1,12,-3,0.85,4734,4,90,34,42,1130,270.0,322,394,60,118.0,124,1,291,197,34,0,0,255,-1,-1281,270,,,,,,,,,,,,
836123,1560693364230,-2,2.27,1.99,3.36,1.82,5.05,0.96,-0.12,0.17,-1,11,-3,0.96,4862,4,90,34,42,1120,267.0,331,389,60,118.0,124,1,296,204,34,0,0,259,-1,-41,267,,,,,,,,,,,,
836143,1560693364250,2,2.27,2.0,3.35,1.85,5.04,0.95,-0.05,0.25,1,4,-2,0.95,4986,5,90,34,42,1132,265.0,336,371,60,116.0,124,1,300,207,34,0,0,256,-1,506,264,45.700855,4.909714,28.68,195.1,8,1.6267,0,0.0,0.0567,9,0.07,13.9357
836163,1560693364270,1,2.26,2.0,3.35,1.85,5.05,0.7,-0.12,0.16,2,11,-3,0.71,5018,5,90,34,42,1148,262.0,345,371,60,118.0,124,1,301,208,34,0,0,259,-1,14337,262,,,,,,,,,,,,
836183,1560693364290,-0,2.26,2.02,3.35,1.87,5.05,0.84,-0.14,0.18,-1,9,-3,0.85,5002,6,90,34,43,1170,261.0,350,383,60,118.0,124,1,302,210,34,0,0,259,-1,-10440,261,,,,,,,,,,,,
836203,1560693364309,1,2.27,2.06,3.31,1.9,5.05,0.94,0.01,0.23,0,3,-1,0.94,4904,7,90,34,43,1195,260.0,350,367,60,117.0,150,1,299,209,39,0,0,261,-1,-10440,260,,,,,,,,,,,,
836223,1560693364329,4,2.26,2.1,3.31,1.92,5.04,0.78,-0.03,0.24,2,6,-1,0.78,4820,10,90,34,44,1213,259.0,352,373,60,119.0,150,1,297,207,39,0,0,258,-41,506,259,,,,,,,,,,,,
836243,1560693364349,-1,2.26,2.11,3.31,1.94,5.06,0.66,-0.04,0.23,0,8,-2,0.67,4763,13,90,34,45,1229,259.0,343,379,60,119.0,150,1,297,208,39,0,0,257,-10440,14337,258,45.700863,4.909718,26.72,195.1,8,1.6267,0,0.0,0.0583,9,0.07,13.9374
836263,1560693364369,-1,2.27,2.1,3.3,1.95,5.04,0.67,-0.09,0.3,-1,9,-2,0.68,4740,15,90,34,47,1229,258.0,342,378,60,118.0,150,1,301,212,39,0,0,256,14337,-1281,257,,,,,,,,,,,,
836283,1560693364389,0,2.27,2.1,3.3,1.92,5.04,0.8,-0.13,0.35,-2,8,-2,0.81,4709,17,90,34,49,1218,257.0,340,376,60,118.0,150,1,300,218,39,0,0,255,14337,-1,256,,,,,,,,,,,,
836303,1560693364407,-0,2.26,2.11,3.3,1.93,5.05,0.93,-0.1,0.4,-2,1,-2,0.93,4685,19,90,34,51,1196,256.0,336,370,60,118.0,148,1,299,224,38,0,0,254,506,-1,256,,,,,,,,,,,,
836323,1560693364427,2,2.26,2.11,3.3,1.94,5.04,0.97,-0.01,0.4,-1,-2,-0,0.97,4714,21,90,34,53,1170,255.0,339,367,60,118.0,148,1,299,231,38,0,0,253,-1,-1,254,,,,,,,,,,,,
836343,1560693364447,4,2.27,2.1,3.31,1.93,5.05,0.84,-0.03,0.38,1,-2,0,0.84,4781,23,90,34,55,1149,254.0,334,360,60,118.0,148,1,298,239,38,0,0,250,-1,-214,253,45.700867,4.909723,26.2,195.1,8,1.6267,0,0.0,0.06,9,0.07,13.939
836363,1560693364467,-1,2.29,2.11,3.31,1.94,5.06,0.64,-0.03,0.37,1,3,-1,0.64,4813,24,90,34,58,1133,253.0,337,365,60,119.0,148,1,297,253,38,0,0,252,-1,-214,252,,,,,,,,,,,,
836383,1560693364487,0,2.28,2.1,3.31,1.94,5.07,0.77,-0.09,0.41,-1,4,-1,0.78,4853,25,90,34,61,1109,252.0,341,367,60,118.0,148,1,295,267,38,0,0,253,-1,-1,251,,,,,,,,,,,,
836403,1560693364510,2,2.28,2.13,3.3,1.95,5.05,0.88,0.05,0.43,-0,-1,-0,0.88,4881,25,90,34,63,1075,253.0,340,366,60,118.0,195,1,293,279,49,0,0,252,-1,-1,251,,,,,,,,,,,,
836423,1560693364530,3,2.29,2.14,3.3,1.95,5.07,0.76,0.0,0.4,1,1,-1,0.76,4949,26,90,34,64,1049,252.0,350,350,60,117.0,195,1,291,294,49,0,0,252,-1,-214,251,,,,,,,,,,,,
836443,1560693364550,0,2.28,2.14,3.3,1.96,5.04,0.69,-0.05,0.4,0,3,-2,0.69,4993,26,90,34,66,1033,251.0,347,358,60,119.0,195,1,288,301,49,0,0,250,10818,-214,251,45.70087,4.909727,25.31,195.1,8,1.6267,0,0.0,0.0617,9,0.07,13.9407
836463,1560693364570,2,2.29,2.13,3.32,1.97,5.08,0.82,0.02,0.49,-0,-0,-1,0.82,5032,27,90,34,68,1012,251.0,350,365,60,117.0,195,1,289,317,49,0,0,249,-214,10818,251,,,,,,,,,,,,
836483,1560693364590,-0,2.28,2.14,3.34,1.97,5.08,0.73,-0.04,0.43,1,3,-2,0.73,5068,27,90,34,69,987,251.0,357,348,60,118.0,195,1,289,322,49,0,0,251,10818,10818,251,,,,,,,,,,,,
836503,1560693364609,-0,2.29,2.15,3.28,1.97,5.04,0.82,-0.13,0.44,-2,2,-2,0.83,5124,27,90,34,70,968,251.0,356,353,60,119.0,247,1,292,328,62,0,0,251,-214,-1,251,,,,,,,,,,,,
836523,1560693364629,4,2.29,2.14,3.26,1.97,5.04,0.84,-0.08,0.5,1,-1,-0,0.85,5166,27,90,34,70,959,251.0,361,346,60,117.0,247,1,295,335,62,0,0,249,10818,10818,250,,,,,,,,,,,,
836543,1560693364649,-2,2.3,2.14,3.25,1.97,5.05,0.72,-0.17,0.5,-0,5,-1,0.74,5175,27,90,34,71,956,250.0,360,348,60,119.0,247,1,295,329,62,0,0,251,16896,-1,251,45.700878,4.909732,24.97,195.1,8,1.6267,0,0.0,0.0633,9,0.07,13.9424
836563,1560693364669,2,2.3,2.15,3.25,1.98,5.07,0.85,-0.05,0.61,0,-1,1,0.85,5082,27,90,34,71,957,250.0,365,341,60,117.0,247,1,289,334,62,0,0,253,16896,506,250,,,,,,,,,,,,
836583,1560693364689,-1,2.3,2.18,3.22,2.01,5.04,0.64,-0.1,0.63,1,3,-0,0.65,5001,28,90,34,72,961,253.0,355,332,60,118.0,247,1,283,337,62,0,0,255,-214,-10440,253,,,,,,,,,,,,
836603,1560693364709,1,2.3,2.22,3.2,2.04,5.05,0.69,-0.08,0.64,-1,5,-1,0.69,4872,28,90,34,73,971,255.0,351,331,60,118.0,247,1,285,332,63,0,0,259,-1281,-1,255,,,,,,,,,,,,
836623,1560693364729,0,2.3,2.24,3.18,2.06,5.05,0.82,-0.1,0.7,-1,2,0,0.83,4744,28,90,34,74,986,258.0,343,343,60,119.0,247,1,287,337,63,0,0,261,506,-1,258,,,,,,,,,,,,
836643,1560693364749,-2,2.3,2.24,3.18,2.06,5.06,0.89,-0.11,0.74,-0,-3,1,0.89,4645,28,90,34,74,1022,260.0,336,329,60,118.0,247,1,289,333,63,0,0,261,-41,-1,260,45.700882,4.909736,24.92,195.1,8,1.6267,0,0.0,0.065,9,0.07,13.944
836663,1560693364769,-1,2.3,2.23,3.19,2.08,5.03,0.94,-0.07,0.7,0,-5,1,0.94,4589,28,90,34,74,1055,260.0,333,326,60,117.0,247,1,290,336,63,0,0,261,-10440,-1,260,,,,,,,,,,,,
836683,1560693364789,-1,2.31,2.23,3.25,2.07,5.07,0.98,-0.02,0.7,1,-8,2,0.98,4563,28,90,34,75,1082,259.0,327,330,60,118.0,247,1,289,337,63,0,0,258,14337,-10440,259,,,,,,,,,,,,
836703,1560693364809,1,2.31,2.23,3.31,2.06,5.04,0.99,0.02,0.67,2,-8,2,0.99,4659,28,90,34,75,1110,260.0,332,310,60,117.0,223,1,288,338,58,0,0,256,14337,14337,260,,,,,,,,,,,,
836723,1560693364829,4,2.31,2.23,3.31,2.07,5.04,0.9,-0.03,0.63,2,-6,2,0.9,4789,28,90,34,75,1144,260.0,328,316,60,118.0,223,1,286,343,58,0,0,256,-10440,-1,260,,,,,,,,,,,,
836743,1560693364849,-1,2.3,2.22,3.31,2.06,5.04,0.76,-0.04,0.62,2,-2,2,0.76,4879,28,90,34,76,1178,260.0,335,319,60,119.0,223,1,284,352,58,0,0,258,14337,-41,260,45.700886,4.90974,24.92,195.1,8,1.6267,0,0.0,0.0667,9,0.07,13.9457
836763,1560693364869,-1,2.3,2.22,3.3,2.05,5.07,0.89,-0.03,0.66,1,-4,2,0.89,4945,28,90,34,76,1187,260.0,337,311,60,119.0,223,1,282,354,58,0,0,256,-10440,-1,260,,,,,,,,,,,,
836783,1560693364889,3,2.31,2.21,3.29,2.04,5.07,0.89,0.0,0.66,2,-6,3,0.89,4986,28,90,34,76,1194,260.0,345,289,60,116.0,223,1,282,356,58,0,0,260,14337,-41,260,,,,,,,,,,,,
836803,1560693364909,-1,2.31,2.22,3.27,2.05,5.07,0.75,0.0,0.6,2,-0,2,0.75,4994,29,90,34,76,1207,259.0,346,297,60,118.0,257,1,282,356,67,0,0,257,14337,-41,259,,,,,,,,,,,,
836823,1560693364929,-2,2.3,2.22,3.25,2.04,5.07,0.87,-0.05,0.63,0,-2,2,0.87,5036,28,90,34,77,1219,259.0,351,303,60,118.0,257,1,283,359,67,0,0,259,14337,-1,259,,,,,,,,,,,,
836843,1560693364949,2,2.3,2.22,3.25,2.05,5.07,0.9,0.06,0.65,2,-4,3,0.91,4921,29,90,34,76,1223,259.0,351,294,60,117.0,257,1,283,354,67,0,0,260,-10440,-1,259,45.700893,4.909744,24.69,195.1,8,1.6267,0,0.0,0.0683,9,0.07,13.9474
836863,1560693364969,5,2.29,2.22,3.25,2.05,5.08,0.77,0.03,0.6,3,0,2,0.78,4866,29,90,34,76,1227,260.0,352,272,60,118.0,257,1,284,351,67,0,0,263,-41,-1,260,,,,,,,,,,,,
836883,1560693364989,-0,2.29,2.23,3.25,2.06,5.05,0.68,0.01,0.59,2,1,2,0.68,4836,29,90,34,77,1229,260.0,342,293,60,119.0,257,1,284,350,67,0,0,261,-41,-1,260,,,,,,,,,,,,
836903,1560693365003,-0,2.28,2.22,3.25,2.06,5.05,0.75,-0.04,0.62,1,1,2,0.75,4795,29,90,34,77,1231,261.0,340,281,60,118.0,241,1,285,348,63,0,0,262,-1,-1,261,,,,,,,,,,,,
836923,1560693365023,0,2.28,2.24,3.25,2.07,5.04,0.88,0.02,0.59,0,-3,2,0.88,4760,29,90,34,77,1229,261.0,343,276,60,118.0,241,1,286,360,63,0,0,262,-1,-1,261,,,,,,,,,,,,
836943,1560693365043,3,2.26,2.23,3.27,2.06,5.05,0.89,0.1,0.56,1,-5,2,0.89,4779,29,90,34,76,1226,261.0,336,273,60,117.0,241,1,285,359,63,0,0,262,-1,-10440,261,45.700901,4.909749,25.05,195.0,8,1.6267,0,0.0,0.07,9,0.07,13.949
836963,1560693365063,4,2.26,2.22,3.26,2.04,5.07,0.87,0.06,0.53,1,-1,1,0.87,4774,29,90,34,76,1232,260.0,340,272,60,118.0,241,1,285,347,63,0,0,260,-1,-10440,260,,,,,,,,,,,,
836983,1560693365083,1,2.26,2.2,3.25,2.04,5.04,0.77,0.06,0.53,1,-0,0,0.77,4739,29,90,34,76,1238,261.0,335,272,60,119.0,241,1,286,346,63,0,0,259,-1,-1,261,,,,,,,,,,,,
837003,1560693365109,-1,2.27,2.21,3.24,2.03,5.07,0.76,0.06,0.51,0,2,-0,0.76,4737,29,90,34,76,1247,261.0,336,270,60,119.0,234,1,286,346,61,0,0,259,-1,-41,261,,,,,,,,,,,,
837023,1560693365129,-0,2.25,2.22,3.24,2.03,5.06,0.85,-0.03,0.54,-0,-1,-1,0.85,4721,29,90,34,76,1255,260.0,337,294,60,119.0,234,1,286,345,61,0,0,261,-1,14337,259,,,,,,,,,,,,
837043,1560693365149,-0,2.26,2.21,3.24,2.03,5.08,0.89,-0.04,0.56,-1,-3,1,0.89,4682,29,90,34,76,1277,260.0,333,290,60,118.0,234,1,287,344,61,0,0,259,-41,506,259,45.700901,4.909753,25.32,195.0,8,1.6267,0,0.0,0.0717,9,0.07,13.9507
837063,1560693365169,-1,2.26,2.21,3.23,2.04,5.05,0.96,0.01,0.56,-0,-3,1,0.96,4676,29,90,34,76,1304,259.0,331,309,60,118.0,234,1,287,344,61,0,0,259,-1,14337,258,,,,,,,,,,,,
837083,1560693365189,1,2.25,2.21,3.24,2.02,5.08,0.97,0.03,0.61,0,-5,2,0.97,4706,29,90,34,76,1324,259.0,333,306,60,117.0,234,1,286,345,61,0,0,260,-10440,14337,258,,,,,,,,,,,,
837103,1560693365209,4,2.24,2.22,3.25,2.03,5.06,0.95,0.05,0.58,1,-2,1,0.95,4667,29,90,34,75,1343,260.0,333,320,60,119.0,237,1,288,343,61,0,0,257,-41,-10440,258,,,,,,,,,,,,
837123,1560693365229,5,2.24,2.23,3.24,2.04,5.04,0.87,0.04,0.55,1,-2,-0,0.87,4659,29,90,34,75,1374,259.0,331,337,60,119.0,237,1,288,338,61,0,0,260,-41,14337,257,,,,,,,,,,,,
837143,1560693365249,4,2.23,2.22,3.25,2.03,5.07,0.75,0.02,0.51,1,2,-1,0.75,4660,29,90,34,76,1410,259.0,333,361,60,119.0,237,1,287,343,61,0,0,258,-41,-1281,256,45.700909,4.909758,25.01,195.0,8,1.6267,0,0.0,0.0733,9,0.07,13.9524
837163,1560693365269,0,2.23,2.22,3.27,2.02,5.04,0.75,0.02,0.54,-0,3,-2,0.75,4650,29,90,34,76,1437,259.0,328,397,60,119.0,237,1,287,343,61,0,0,257,-41,-1,257,,,,,,,,,,,,
837183,1560693365289,-1,2.22,2.24,3.26,2.01,5.04,0.75,-0.01,0.58,-2,3,-2,0.75,4679,29,90,34,76,1454,259.0,332,428,60,118.0,237,1,287,344,61,0,0,257,-1,-1,256,,,,,,,,,,,,
837203,1560693365310,-2,2.22,2.24,3.23,2.01,5.05,0.88,-0.03,0.59,-2,0,-2,0.88,4703,29,90,34,76,1472,260.0,333,428,60,119.0,238,1,287,345,61,0,0,260,-1,-1,255,,,,,,,,,,,,
837223,1560693365330,1,2.21,2.24,3.23,2.0,5.03,0.93,-0.05,0.61,-3,-4,-1,0.93,4668,29,90,34,76,1490,259.0,333,429,60,117.0,238,1,287,343,61,0,0,260,-41,10818,253,,,,,,,,,,,,
837243,1560693365350,3,2.19,2.23,3.22,1.99,5.03,1.01,0.06,0.61,-2,-3,-1,1.01,4744,29,90,34,76,1498,259.0,337,433,60,117.0,238,1,286,346,61,0,0,261,-10440,506,252,45.700916,4.909761,24.41,195.0,8,1.6267,0,0.0,0.075,9,0.08,13.9541
837263,1560693365370,4,2.18,2.24,3.23,1.97,5.06,0.87,0.04,0.59,-2,-2,-2,0.87,4784,29,90,34,76,1498,259.0,340,418,60,117.0,238,1,285,348,61,0,0,256,-41,-214,251,,,,,,,,,,,,
837283,1560693365390,0,2.16,2.26,3.23,1.96,5.06,0.8,0.07,0.56,-4,2,-3,0.8,4829,29,90,35,76,1498,259.0,337,438,60,119.0,238,1,284,342,61,0,0,260,-41,-1,251,,,,,,,,,,,,
837303,1560693365408,-1,2.15,2.27,3.23,1.97,5.04,0.9,0.04,0.58,-5,-2,-4,0.9,4896,29,90,35,76,1498,261.0,338,442,60,119.0,254,1,283,349,64,0,0,257,-1,16896,250,,,,,,,,,,,,
837323,1560693365428,2,2.15,2.27,3.22,1.97,5.04,0.97,0.16,0.55,-5,-4,-5,0.98,4976,29,90,35,76,1498,259.0,345,431,60,116.0,254,1,282,350,64,0,0,261,-1,-214,248,,,,,,,,,,,,
837343,1560693365448,1,2.13,2.28,3.23,1.97,5.07,0.78,0.2,0.48,-5,1,-5,0.81,5073,29,90,35,76,1498,261.0,352,440,60,118.0,254,1,285,359,64,0,0,262,-1,16896,248,45.70092,4.909767,24.6,195.1,8,1.6267,0,0.0,0.0767,9,0.08,13.9557
837363,1560693365468,4,2.12,2.29,3.22,1.97,5.06,0.91,0.18,0.52,-7,-0,-5,0.92,5208,29,90,35,76,1498,261.0,357,445,60,118.0,254,1,294,370,64,0,0,260,-1,250,247,,,,,,,,,,,,
837383,1560693365488,1,2.12,2.29,3.2,1.98,5.04,0.71,0.19,0.55,-6,2,-7,0.73,5463,29,90,35,75,1498,260.0,366,441,60,119.0,254,1,313,379,64,0,0,258,-1,15360,247,,,,,,,,,,,,
837403,1560693365510,-1,2.13,2.31,3.2,1.98,5.04,0.75,0.29,0.69,-5,1,-8,0.8,5607,29,90,35,73,1498,261.0,380,443,60,117.0,315,1,324,377,78,0,0,261,-1,10818,245,,,,,,,,,,,,
837423,1560693365530,5,2.13,2.38,3.14,2.0,5.04,0.71,0.21,0.71,-7,2,-8,0.74,5573,29,90,35,72,1498,265.0,380,451,60,117.0,315,1,323,354,78,0,0,269,-1,-1,248,,,,,,,,,,,,
837443,1560693365550,1,2.13,2.47,3.04,2.09,5.04,0.63,0.23,0.77,-7,2,-9,0.67,5417,29,90,35,71,1488,270.0,382,448,60,118.0,315,1,312,338,78,0,0,278,-1,0,253,45.700924,4.90977,24.76,195.0,8,1.6267,0,0.0,0.0783,9,0.08,13.9574
837463,1560693365570,4,2.14,2.52,2.98,2.15,5.08,0.7,0.28,0.74,-7,2,-9,0.75,5161,29,90,35,72,1444,274.0,375,448,60,116.0,315,1,293,342,78,0,0,284,2414,0,258,,,,,,,,,,,,
837483,1560693365590,2,2.13,2.55,2.95,2.2,5.06,0.56,0.24,0.7,-6,4,-9,0.61,4929,29,90,34,73,1401,278.0,360,445,60,118.0,315,1,284,339,78,0,0,285,630,-1527,264,,,,,,,,,,,,
837503,1560693365608,-1,2.14,2.53,2.99,2.22,5.06,0.54,0.25,0.66,-8,5,-9,0.6,4712,29,90,34,74,1358,280.0,350,446,60,118.0,231,1,287,336,61,0,0,285,250,250,268,,,,,,,,,,,,
837523,1560693365628,1,2.13,2.52,3.06,2.21,5.05,0.64,0.21,0.66,-9,3,-9,0.67,4663,30,90,34,75,1307,282.0,340,456,60,118.0,231,1,288,338,61,0,0,280,1886,-1,267,,,,,,,,,,,,
837543,1560693365648,0,2.13,2.48,3.16,2.16,5.06,0.78,0.14,0.77,-10,-3,-10,0.79,4731,30,90,34,77,1230,279.0,337,461,60,117.0,231,1,286,359,61,0,0,280,24064,-1,265,45.700932,4.909774,24.91,195.1,8,1.6267,0,0.0,0.08,9,0.08,13.9591
837563,1560693365668,4,2.14,2.45,3.23,2.14,5.05,0.77,0.25,0.72,-8,-3,-11,0.81,4978,30,90,34,77,1152,281.0,342,453,60,116.0,231,1,282,370,61,0,0,281,24064,-1,265,,,,,,,,,,,,
837583,1560693365688,-0,2.13,2.45,3.24,2.12,5.07,0.61,0.22,0.7,-10,-1,-12,0.65,5183,30,90,34,77,1118,283.0,350,453,60,118.0,231,1,293,382,61,0,0,282,-1529,-1,265,,,,,,,,,,,,
837603,1560693365708,1,2.13,2.45,3.24,2.11,5.04,0.75,0.28,0.69,-9,-4,-12,0.8,5405,30,90,34,76,1078,283.0,364,456,60,117.0,279,1,308,382,74,0,0,281,-1529,-1,266,,,,,,,,,,,,
837623,1560693365728,3,2.12,2.45,3.19,2.1,5.04,0.69,0.17,0.66,-12,-2,-12,0.71,5535,31,90,34,75,1017,283.0,374,448,60,117.0,279,1,317,387,74,0,0,284,-1529,-1,267,,,,,,,,,,,,
837643,1560693365748,1,2.13,2.45,3.11,2.08,5.06,0.57,0.16,0.71,-10,0,-12,0.59,5699,31,90,34,73,956,285.0,386,450,60,118.0,279,1,330,374,74,0,0,288,-16896,30208,268,45.700935,4.909778,26.09,195.1,8,1.6267,0,0.0,0.0817,9,0.08,13.9607
837663,1560693365768,2,2.12,2.46,3.05,2.09,5.07,0.51,0.25,0.84,-9,2,-12,0.56,5767,31,90,34,72,928,288.0,397,452,60,118.0,279,1,336,364,74,0,0,293,0,0,272,,,,,,,,,,,,
837683,1560693365788,1,2.11,2.51,2.97,2.12,5.05,0.53,0.35,0.88,-8,1,-12,0.63,5735,32,90,34,71,901,292.0,403,451,60,117.0,279,1,335,349,74,0,0,296,80,26880,274,,,,,,,,,,,,
837703,1560693365808,0,2.12,2.53,2.95,2.17,5.05,0.62,0.3,0.86,-9,0,-12,0.69,5671,32,90,34,70,876,295.0,402,456,60,116.0,269,1,328,335,75,0,0,299,23040,100,278,,,,,,,,,,,,
837723,1560693365828,4,2.1,2.54,2.95,2.21,5.04,0.62,0.26,0.79,-12,0,-12,0.67,5545,32,90,34,70,854,298.0,394,455,60,119.0,269,1,323,334,75,0,0,302,95,110,283,,,,,,,,,,,,
837743,1560693365848,-1,2.11,2.53,2.96,2.2,5.06,0.57,0.29,0.85,-10,1,-14,0.64,5406,32,90,34,71,854,301.0,389,442,60,118.0,269,1,312,341,75,0,0,307,26880,26880,287,45.700943,4.909781,26.5,195.1,8,1.6267,0,0.0,0.0833,9,0.08,13.9624
837763,1560693365868,4,2.12,2.52,3.0,2.2,5.03,0.68,0.28,0.82,-11,-1,-14,0.74,5340,32,90,34,72,857,305.0,380,462,60,118.0,269,1,306,349,75,0,0,305,29440,28160,289,,,,,,,,,,,,
837783,1560693365888,-1,2.12,2.5,3.06,2.18,5.07,0.52,0.37,0.78,-10,1,-14,0.64,5375,32,90,34,72,864,306.0,378,452,60,118.0,269,1,309,350,75,0,0,306,30720,105,291,,,,,,,,,,,,
837803,1560693365910,-1,2.13,2.49,3.12,2.16,5.05,0.65,0.37,0.81,-10,-1,-15,0.74,5509,32,90,34,73,871,308.0,381,450,60,116.0,247,1,318,365,72,0,0,306,120,21760,290,,,,,,,,,,,,
837823,1560693365930,-0,2.12,2.49,3.14,2.15,5.08,0.67,0.29,0.69,-11,1,-16,0.73,5669,32,90,34,72,876,309.0,389,456,60,117.0,247,1,329,360,72,0,0,308,32000,85,291,,,,,,,,,,,,
837843,1560693365950,-1,2.13,2.49,3.13,2.15,5.07,0.58,0.27,0.63,-12,2,-16,0.64,5905,32,90,34,71,879,310.0,398,460,60,118.0,247,1,347,353,72,0,0,309,-32256,23040,291,45.700947,4.909786,27.81,195.1,8,1.6267,0,0.0,0.085,9,0.08,13.9641
837863,1560693365970,-0,2.12,2.49,3.1,2.15,5.04,0.54,0.27,0.61,-12,6,-16,0.6,6105,32,90,34,69,874,311.0,412,456,60,117.0,247,1,360,325,72,0,0,315,-32256,110,292,,,,,,,,,,,,
837883,1560693365990,0,2.12,2.5,3.03,2.16,5.04,0.5,0.25,0.56,-12,8,-16,0.56,6192,32,90,34,68,869,313.0,420,456,60,117.0,247,1,364,310,72,0,0,316,135,-29696,297,,,,,,,,,,,,
837903,1560693366002,-0,2.13,2.49,2.98,2.16,5.08,0.55,0.25,0.63,-12,7,-16,0.61,6151,32,90,34,68,860,316.0,428,460,60,117.0,242,1,361,310,72,0,0,323,140,-23296,301,,,,,,,,,,,,
837923,1560693366022,1,2.14,2.51,2.96,2.19,5.04,0.56,0.28,0.7,-12,8,-16,0.62,6075,32,90,34,67,851,320.0,427,463,60,117.0,242,1,363,299,72,0,0,326,150,-24576,303,,,,,,,,,,,,
837943,1560693366042,-2,2.15,2.5,2.96,2.19,5.04,0.61,0.27,0.75,-12,8,-17,0.67,5958,31,90,34,67,844,324.0,423,453,60,116.0,242,1,358,299,72,0,0,327,160,160,308,45.700954,4.909789,28.99,195.1,8,1.6267,0,0.0,0.0867,9,0.08,13.9657
837963,1560693366062,0,2.16,2.49,2.98,2.17,5.06,0.71,0.19,0.81,-13,6,-17,0.74,5948,31,90,34,67,838,324.0,421,459,60,117.0,242,1,356,291,72,0,0,329,160,165,311,,,,,,,,,,,,
837983,1560693366082,-0,2.17,2.48,3.04,2.18,5.08,0.8,0.13,0.82,-14,5,-16,0.81,5954,31,90,34,66,838,327.0,420,456,60,116.0,242,1,361,290,72,0,0,329,-22016,-22016,314,,,,,,,,,,,,
838003,1560693366110,-0,2.2,2.47,3.09,2.18,5.08,0.87,0.06,0.85,-14,5,-16,0.87,6062,31,90,34,66,842,327.0,426,455,60,116.0,210,1,367,291,66,0,0,329,-22016,-32559,316,,,,,,,,,,,,
838023,1560693366130,3,2.21,2.47,3.12,2.17,5.04,0.89,0.06,0.87,-13,5,-15,0.9,6188,30,90,34,65,855,329.0,432,453,60,117.0,210,1,375,286,66,0,0,332,-20736,4838,320,,,,,,,,,,,,
838043,1560693366150,3,2.24,2.46,3.14,2.18,5.04,0.87,0.09,0.86,-12,5,-14,0.87,6262,30,90,34,65,870,331.0,440,456,60,117.0,210,1,378,289,66,0,0,336,-12032,-6528,322,45.700962,4.909792,29.78,195.1,8,1.6267,0,0.0,0.0883,9,0.08,13.9674
838063,1560693366170,-1,2.27,2.46,3.13,2.2,5.04,0.83,0.12,0.76,-11,7,-13,0.83,6317,30,90,34,64,883,332.0,441,451,60,119.0,210,1,383,283,66,0,0,333,-32559,13,324,,,,,,,,,,,,
838083,1560693366190,-2,2.31,2.45,3.13,2.21,5.06,0.79,0.05,0.73,-10,8,-11,0.79,6328,30,90,34,64,896,332.0,441,460,60,118.0,210,1,384,284,66,0,0,338,-12032,-122,328,,,,,,,,,,,,
838103,1560693366208,1,2.33,2.43,3.14,2.23,5.08,0.78,-0.11,0.85,-8,8,-10,0.79,6358,30,90,34,63,911,333.0,446,460,60,117.0,201,1,389,278,66,0,0,337,-6528,-122,330,,,,,,,,,,,,
838123,1560693366228,5,2.36,2.4,3.17,2.23,5.06,0.81,-0.12,0.92,-7,6,-9,0.82,6384,30,90,34,63,930,335.0,449,460,60,116.0,201,1,390,279,66,0,0,339,-6528,-31206,335,,,,,,,,,,,,
838143,1560693366248,5,2.38,2.38,3.2,2.24,5.07,0.77,-0.07,0.85,-6,5,-8,0.78,6379,29,90,34,62,942,338.0,447,455,60,118.0,201,1,394,273,66,0,0,340,-6528,-10554,338,45.70097,4.909795,30.65,195.1,8,1.6267,0,0.0,0.09,9,0.08,13.9691
838163,1560693366268,-0,2.41,2.37,3.24,2.27,5.06,0.87,-0.16,0.84,-5,2,-7,0.88,6388,29,90,34,62,950,342.0,448,453,60,117.0,201,1,394,273,66,0,0,341,-6528,8841,342,,,,,,,,,,,,
838183,1560693366288,1,2.46,2.34,3.28,2.27,5.07,0.73,-0.17,0.83,-3,1,-5,0.75,6403,29,90,34,62,962,346.0,451,458,60,117.0,201,1,394,274,66,0,0,341,-6528,6870,346,,,,,,,,,,,,
838203,1560693366309,4,2.5,2.32,3.3,2.29,5.03,0.7,-0.22,0.84,-0,1,-3,0.73,6425,29,90,34,61,975,349.0,452,454,60,116.0,193,1,399,269,67,0,0,341,4838,-1246,349,,,,,,,,,,,,
838223,1560693366329,-1,2.56,2.31,3.37,2.3,5.08,0.72,-0.26,0.71,2,3,-1,0.76,6469,29,90,34,61,986,352.0,456,455,60,118.0,193,1,401,271,67,0,0,343,4838,2060,352,,,,,,,,,,,,
838243,1560693366349,2,2.62,2.28,3.46,2.32,5.04,0.75,-0.34,0.75,4,-1,1,0.82,6535,29,90,34,60,992,357.0,460,458,60,117.0,193,1,401,271,67,0,0,343,-6528,2060,357,45.700977,4.909798,31.59,195.1,8,1.6267,0,0.0,0.0917,9,0.08,13.9707
838263,1560693366369,3,2.68,2.25,3.5,2.37,5.05,0.71,-0.31,0.76,7,-1,4,0.78,6602,28,90,34,60,1002,358.0,461,452,60,118.0,193,1,403,275,67,0,0,347,175,-6640,359,,,,,,,,,,,,
838283,1560693366389,1,2.74,2.22,3.53,2.4,5.07,0.73,-0.43,0.72,9,-1,6,0.85,6667,28,90,34,60,1016,361.0,468,460,60,117.0,193,1,406,274,67,0,0,361,-12032,-29978,361,,,,,,,,,,,,
838303,1560693366409,1,2.77,2.2,3.53,2.38,5.05,0.65,-0.43,0.7,11,-1,8,0.78,6756,28,90,34,59,1027,361.0,478,461,60,116.0,191,1,405,277,69,0,0,361,-22016,-6640,361,,,,,,,,,,,,
838323,1560693366429,3,2.85,2.19,3.57,2.41,5.04,0.63,-0.52,0.72,13,-1,11,0.82,6838,28,90,34,58,1035,360.0,480,453,60,118.0,191,1,405,275,69,0,0,363,170,2790,360,,,,,,,,,,,,
838343,1560693366449,-1,2.9,2.18,3.61,2.41,5.07,0.54,-0.48,0.62,15,-2,14,0.73,6926,27,90,34,57,1042,360.0,486,461,60,117.0,191,1,402,273,69,0,0,377,-25856,3082,361,45.700985,4.909801,32.71,195.1,8,1.6267,0,0.0,0.0933,9,0.08,13.9724
838363,1560693366469,3,2.94,2.17,3.6,2.4,5.07,0.56,-0.56,0.62,17,-3,16,0.79,6972,27,90,34,56,1047,360.0,488,455,60,116.0,191,1,398,268,69,0,0,387,155,0,363,,,,,,,,,,,,
838383,1560693366489,1,0.36,2.15,3.62,2.4,5.06,0.62,-0.62,0.71,19,-5,20,0.88,7004,27,90,34,55,1050,361.0,492,456,60,118.0,191,1,394,263,69,0,0,364,150,230,361,,,,,,,,,,,,
838403,1560693366509,1,0.38,2.13,3.62,2.39,5.06,0.38,-0.54,0.55,22,-2,24,0.66,7009,27,90,34,54,1047,363.0,493,455,60,118.0,193,1,390,263,70,0,0,370,145,257,363,,,,,,,,,,,,
838423,1560693366529,2,0.41,2.11,3.6,2.4,5.04,0.49,-0.59,0.69,22,-6,27,0.77,6952,27,90,34,54,1040,363.0,492,457,60,116.0,193,1,389,258,70,0,0,385,-28416,3,363,,,,,,,,,,,,
838443,1560693366549,1,0.41,2.09,3.61,2.4,5.07,0.43,-0.59,0.6,25,-3,30,0.73,6906,27,90,34,54,1016,362.0,488,454,60,118.0,193,1,389,258,70,0,0,371,-29696,742,362,45.700993,4.909805,32.94,195.1,8,1.6267,0,0.0,0.095,9,0.08,13.974
838463,1560693366569,-1,0.43,2.08,3.61,2.41,5.05,0.46,-0.54,0.63,25,-4,31,0.71,6923,27,90,34,53,994,361.0,488,457,60,117.0,193,1,386,252,70,0,0,362,-29696,1,360,,,,,,,,,,,,
838483,1560693366589,2,0.43,2.08,3.6,2.44,5.08,0.56,-0.62,0.73,26,-6,33,0.83,6923,26,90,34,53,974,360.0,491,455,60,118.0,193,1,386,252,70,0,0,362,-32256,257,360,,,,,,,,,,,,
838503,1560693366609,1,0.42,2.11,3.6,2.44,5.05,0.48,-0.51,0.61,27,-4,34,0.7,6873,26,90,34,52,952,358.0,492,460,60,117.0,183,1,383,252,66,0,0,371,125,257,358,,,,,,,,,,,,
838523,1560693366629,4,0.42,2.1,3.6,2.43,5.05,0.63,-0.64,0.65,28,-7,34,0.9,6868,26,90,33,52,914,358.0,486,458,60,116.0,183,1,383,247,66,0,0,366,130,742,358,,,,,,,,,,,,
838543,1560693366649,2,0.41,2.06,3.61,2.43,5.04,0.67,-0.73,0.57,29,-6,36,0.99,6883,26,90,33,52,875,357.0,482,457,60,118.0,183,1,383,247,66,0,0,360,130,486,359,45.701004,4.90981,33.17,195.1,8,1.6267,0,0.0,0.0967,9,0.09,13.9757
838563,1560693366669,4,0.41,2.01,3.65,2.41,5.05,0.73,-0.77,0.53,30,-6,39,1.07,6838,26,90,33,52,857,358.0,485,460,60,117.0,183,1,383,247,66,0,0,382,135,486,358,,,,,,,,,,,,
838583,1560693366689,2,0.43,1.99,3.65,2.42,5.04,0.8,-0.84,0.56,30,-7,41,1.16,6875,26,90,33,52,839,358.0,485,452,60,118.0,183,1,383,247,66,0,0,392,-32256,770,358,,,,,,,,,,,,
838603,1560693366709,1,0.42,1.98,3.64,2.4,5.04,0.71,-0.84,0.41,32,-5,42,1.1,6980,26,90,33,51,818,359.0,491,457,60,118.0,177,1,380,242,64,0,0,359,-32256,257,359,,,,,,,,,,,,
838623,1560693366729,3,0.42,1.99,3.64,2.42,5.04,0.73,-0.91,0.43,33,-7,43,1.17,6980,26,90,33,51,797,359.0,494,459,60,117.0,177,1,380,242,64,0,0,349,32000,0,359,,,,,,,,,,,,
838643,1560693366749,2,0.41,1.99,3.66,2.42,5.06,0.82,-0.95,0.39,33,-4,44,1.25,6916,25,90,33,51,789,360.0,490,457,60,117.0,177,1,380,237,64,0,0,378,120,1,360,45.701008,4.909816,33.41,195.1,8,1.6267,0,0.0,0.0983,9,0.09,13.9774
838663,1560693366769,1,0.41,2.01,3.69,2.42,5.04,0.73,-0.98,0.36,34,-6,45,1.22,6893,25,90,33,51,786,359.0,486,458,60,116.0,177,1,380,242,64,0,0,420,32000,0,359,,,,,,,,,,,,
838683,1560693366789,3,0.41,2.0,3.69,2.4,5.07,0.86,-1.05,0.49,34,-9,45,1.36,6962,25,90,33,50,784,359.0,492,460,60,117.0,177,1,377,237,64,0,0,418,115,230,359,,,,,,,,,,,,
838703,1560693366807,2,0.4,1.99,3.69,2.4,5.05,0.77,-1.11,0.36,37,-6,45,1.35,7040,25,90,33,50,783,358.0,490,450,60,118.0,172,1,378,238,62,0,0,400,30720,0,358,,,,,,,,,,,,
838723,1560693366827,0,0.4,1.96,3.69,2.39,5.04,0.76,-1.08,0.33,37,-8,47,1.32,7161,25,90,33,49,784,360.0,502,457,60,118.0,172,1,375,238,62,0,0,372,29440,3082,359,,,,,,,,,,,,
838743,1560693366847,0,0.39,1.94,3.69,2.38,5.05,0.81,-1.09,0.31,37,-9,49,1.36,7233,25,90,33,49,786,359.0,507,455,60,116.0,172,1,375,233,62,0,0,358,29440,0,359,45.701016,4.909823,34.14,195.1,8,1.6267,0,0.0,0.1,9,0.09,13.979
838763,1560693366867,5,0.37,1.95,3.69,2.39,5.06,0.86,-1.15,0.35,37,-8,49,1.44,7244,25,90,33,49,788,356.0,508,457,60,117.0,172,1,375,228,62,0,0,372,29440,257,356,,,,,,,,,,,,
838783,1560693366887,1,0.34,1.96,3.69,2.38,5.06,0.84,-1.21,0.37,39,-7,51,1.47,7164,25,90,33,48,790,358.0,504,456,60,117.0,172,1,372,228,62,0,0,401,105,486,360,,,,,,,,,,,,
838803,1560693366910,-1,2.91,1.96,3.68,2.4,5.05,0.64,-1.11,0.32,41,-4,53,1.28,7040,25,90,33,48,791,361.0,501,455,60,117.0,169,1,372,228,61,0,0,395,29440,770,362,,,,,,,,,,,,
838823,1560693366930,4,2.84,1.96,3.68,2.43,5.04,0.7,-1.14,0.47,41,-5,53,1.34,7011,25,90,33,48,792,363.0,492,461,60,117.0,169,1,372,227,61,0,0,371,110,2278,363,,,,,,,,,,,,
838843,1560693366950,3,2.74,1.96,3.68,2.44,5.04,0.76,-1.22,0.52,42,-7,54,1.44,6944,25,90,33,48,793,368.0,493,456,60,118.0,169,1,371,227,61,0,0,366,32000,742,368,45.701023,4.909831,33.37,195.1,8,1.6267,0,0.0,0.1017,9,0.09,13.9807
838863,1560693366970,-2,2.63,1.95,3.68,2.44,5.07,0.68,-1.16,0.45,43,-5,55,1.35,6845,25,90,33,48,795,371.0,490,456,60,118.0,169,1,371,232,61,0,0,365,125,1,371,,,,,,,,,,,,
838883,1560693366990,1,2.53,1.99,3.65,2.44,5.07,0.81,-1.21,0.55,42,-7,56,1.45,6810,25,90,33,49,798,374.0,483,453,60,118.0,169,1,373,232,61,0,0,364,-29696,0,374,,,,,,,,,,,,
838903,1560693367001,-2,2.43,2.05,3.58,2.42,5.07,0.74,-1.08,0.47,40,-5,56,1.31,6828,25,90,33,49,800,373.0,483,456,60,118.0,157,1,373,232,59,0,0,361,-28416,-6656,373,,,,,,,,,,,,
838923,1560693367021,4,2.36,2.14,3.48,2.4,5.04,0.82,-1.0,0.58,36,-5,54,1.29,6820,25,90,33,49,802,370.0,481,457,60,117.0,157,1,373,232,59,0,0,352,150,0,367,,,,,,,,,,,,
838943,1560693367041,0,2.32,2.23,3.37,2.34,5.06,0.79,-0.93,0.5,33,-3,51,1.22,6768,26,90,33,50,803,364.0,483,456,60,117.0,157,1,376,236,59,0,0,345,-32559,-1268,364,45.701023,4.90984,33.58,195.1,8,1.6267,0,0.0,0.1033,9,0.09,13.9824
838963,1560693367061,2,2.3,2.31,3.26,2.33,5.07,0.83,-0.91,0.61,30,-3,47,1.23,6706,26,90,33,51,804,359.0,478,462,60,117.0,157,1,379,242,59,0,0,348,-14714,-6405,359,,,,,,,,,,,,
838983,1560693367081,1,2.27,2.36,3.2,2.31,5.04,0.8,-0.67,0.52,27,-2,45,1.04,6639,26,90,33,51,803,354.0,477,458,60,117.0,157,1,378,242,59,0,0,356,-1246,2060,354,,,,,,,,,,,,
839003,1560693367107,0,2.24,2.41,3.13,2.29,5.04,0.82,-0.71,0.63,24,-2,42,1.09,6572,26,90,33,52,806,353.0,469,454,60,118.0,169,1,380,247,60,0,0,359,28553,3302,354,,,,,,,,,,,,
839023,1560693367127,3,2.22,2.42,3.09,2.25,5.08,0.76,-0.58,0.7,21,-1,38,0.96,6519,27,90,33,53,812,353.0,465,456,60,117.0,169,1,383,252,60,0,0,356,3302,-6640,352,,,,,,,,,,,,
839043,1560693367147,0,2.21,2.42,3.08,2.18,5.04,0.74,-0.39,0.62,18,-1,34,0.83,6530,28,90,33,54,817,355.0,461,458,60,118.0,169,1,387,252,60,0,0,360,2060,28553,351,45.701031,4.909851,33.98,195.1,8,1.6267,0,0.0,0.105,9,0.09,13.984
839063,1560693367167,1,2.2,2.42,3.1,2.14,5.07,0.8,-0.35,0.67,15,-3,29,0.87,6551,31,90,33,55,825,358.0,460,458,60,117.0,169,1,389,260,60,0,0,360,-29978,2060,352,,,,,,,,,,,,
839083,1560693367187,2,2.19,2.42,3.14,2.14,5.03,0.75,-0.27,0.65,13,-5,24,0.8,6656,33,90,33,56,835,358.0,466,452,60,117.0,169,1,393,264,60,0,0,360,-29978,28553,352,,,,,,,,,,,,
839103,1560693367209,2,2.18,2.42,3.16,2.13,5.05,0.69,-0.24,0.56,11,-3,20,0.73,6656,35,90,33,58,851,359.0,468,459,60,117.0,190,1,399,270,67,0,0,362,-29302,3183,350,,,,,,,,,,,,
839123,1560693367229,5,2.18,2.42,3.14,2.13,5.05,0.82,-0.16,0.63,9,-4,16,0.83,6694,36,90,33,60,866,360.0,478,455,60,117.0,190,1,406,278,67,0,0,361,-6458,2060,351,,,,,,,,,,,,
839143,1560693367249,0,2.18,2.42,3.15,2.13,5.07,0.68,-0.14,0.52,8,-2,14,0.69,6751,37,90,33,62,874,361.0,467,456,60,118.0,190,1,409,284,67,0,0,361,-6458,2060,350,45.701035,4.909861,34.33,195.1,8,1.6267,0,0.0,0.1067,9,0.09,13.9857
839163,1560693367269,-1,2.19,2.41,3.15,2.12,5.06,0.73,0.02,0.53,6,0,12,0.73,6840,37,90,33,63,889,362.0,472,462,60,116.0,190,1,409,298,67,0,0,361,2790,-6644,350,,,,,,,,,,,,
839183,1560693367289,2,2.2,2.41,3.14,2.11,5.05,0.7,0.03,0.57,5,0,10,0.7,6885,38,90,33,63,918,363.0,476,452,60,118.0,190,1,411,300,67,0,0,366,3082,-14707,352,,,,,,,,,,,,
839203,1560693367304,-2,2.2,2.41,3.12,2.12,5.05,0.72,0.17,0.54,4,1,8,0.74,6900,38,90,33,64,944,366.0,482,455,60,117.0,226,1,406,306,80,0,0,366,-1268,-6405,354,,,,,,,,,,,,
839223,1560693367324,4,2.18,2.4,3.1,2.11,5.02,0.76,0.19,0.63,3,-2,5,0.79,6947,38,90,33,65,964,366.0,480,460,60,116.0,226,1,404,311,80,0,0,367,230,230,356,,,,,,,,,,,,
839243,1560693367344,-0,2.2,2.41,3.11,2.12,5.05,0.7,0.22,0.52,2,-1,3,0.74,6949,38,90,33,65,988,367.0,485,456,60,117.0,226,1,404,311,80,0,0,367,0,742,358,45.701042,4.909872,34.52,195.1,8,1.6267,0,0.0,0.1083,9,0.09,13.9874
839263,1560693367364,0,2.2,2.43,3.11,2.16,5.04,0.77,0.26,0.49,1,-2,2,0.81,6934,39,90,33,65,1031,369.0,480,457,60,118.0,226,1,403,311,80,0,0,373,-6656,486,359,,,,,,,,,,,,
839283,1560693367384,4,2.2,2.42,3.13,2.14,5.06,0.72,0.11,0.6,1,2,1,0.73,6944,39,90,33,65,1073,370.0,488,457,60,117.0,226,1,404,311,80,0,0,374,486,257,361,,,,,,,,,,,,
839303,1560693367408,-0,2.22,2.41,3.15,2.14,5.05,0.75,0.12,0.54,0,2,1,0.76,6988,39,90,33,66,1097,372.0,490,455,60,118.0,229,1,401,317,83,0,0,373,1,770,364,,,,,,,,,,,,
839323,1560693367428,-1,2.22,2.41,3.14,2.13,5.04,0.66,0.18,0.55,0,4,0,0.68,7027,39,90,33,66,1120,375.0,491,456,60,118.0,229,1,402,319,83,0,0,376,770,-6656,366,,,,,,,,,,,,
839343,1560693367448,3,2.23,2.41,3.13,2.14,5.08,0.78,0.1,0.69,-0,2,-0,0.79,7019,39,90,33,66,1139,376.0,490,460,60,117.0,229,1,402,318,83,0,0,378,3,-6656,368,45.701042,4.909883,34.29,195.1,8,1.6267,0,0.0,0.11,9,0.09,13.989
839363,1560693367468,4,2.24,2.4,3.13,2.14,5.08,0.74,0.05,0.65,-0,2,-2,0.74,7134,39,90,33,66,1157,376.0,491,453,60,118.0,229,1,407,322,83,0,0,381,3,-19019,370,,,,,,,,,,,,
839383,1560693367488,1,2.25,2.4,3.13,2.14,5.07,0.7,0.06,0.62,-0,1,-3,0.7,7172,39,90,33,66,1152,377.0,501,451,60,118.0,229,1,409,323,83,0,0,381,2278,8200,371,,,,,,,,,,,,
839403,1560693367510,0,2.26,2.38,3.14,2.14,5.07,0.72,0.14,0.62,-1,1,-4,0.73,7231,40,90,33,66,1148,379.0,503,456,60,118.0,236,1,413,325,88,0,0,384,8200,-18948,375,,,,,,,,,,,,
839423,1560693367530,0,2.26,2.39,3.19,2.15,5.05,0.63,0.13,0.64,-1,2,-4,0.65,7267,40,90,33,66,1144,381.0,504,457,60,117.0,236,1,414,326,88,0,0,385,-18948,240,376,,,,,,,,,,,,
839443,1560693367550,-1,2.28,2.39,3.17,2.15,5.06,0.72,0.05,0.7,-1,1,-3,0.72,7361,40,90,33,66,1140,382.0,501,457,60,116.0,236,1,418,327,88,0,0,389,19125,505,379,45.701046,4.909893,35.26,195.1,8,1.6267,0,0.0,0.1117,9,0.09,13.9907
839463,1560693367570,0,2.29,2.39,3.15,2.17,5.07,0.79,0.01,0.83,-1,1,-3,0.79,7387,40,90,33,65,1140,384.0,508,457,60,117.0,236,1,423,324,88,0,0,389,-19019,-6656,382,,,,,,,,,,,,
839483,1560693367590,4,2.3,2.41,3.15,2.18,5.05,0.61,-0.09,0.8,0,1,-3,0.62,7416,40,90,33,65,1141,386.0,507,455,60,117.0,236,1,424,325,88,0,0,392,-3866,-32702,384,,,,,,,,,,,,
839503,1560693367610,5,2.31,2.4,3.16,2.2,5.04,0.59,-0.14,0.87,1,2,-3,0.61,7482,40,90,33,65,1136,387.0,514,457,60,117.0,242,1,427,326,93,0,0,398,-3866,28696,388,,,,,,,,,,,,
839523,1560693367630,5,2.32,2.39,3.17,2.21,5.05,0.63,-0.24,0.98,2,0,-3,0.68,7491,40,90,33,64,1132,392.0,518,453,60,118.0,242,1,430,320,93,0,0,402,-6524,11545,393,,,,,,,,,,,,
839543,1560693367650,1,2.33,2.38,3.19,2.23,5.08,0.69,-0.24,1.01,1,-0,-3,0.73,7566,40,90,33,65,1127,396.0,514,461,60,117.0,242,1,430,328,93,0,0,401,-6656,-26615,395,45.701054,4.909904,36.19,195.1,8,1.6267,0,0.0,0.1133,9,0.09,13.9924
839563,1560693367670,1,2.32,2.39,3.19,2.25,5.04,0.63,-0.29,1.05,2,0,-3,0.69,7575,41,90,33,64,1122,398.0,519,456,60,117.0,242,1,434,322,93,0,0,408,-1818,13040,398,,,,,,,,,,,,
839583,1560693367690,1,2.33,2.39,3.18,2.25,5.05,0.64,-0.27,0.98,3,0,-2,0.69,7649,41,90,33,64,1103,399.0,520,456,60,117.0,242,1,436,324,93,0,0,410,-3968,-26615,401,,,,,,,,,,,,
839603,1560693367710,0,2.34,2.39,3.18,2.25,5.04,0.63,-0.24,0.96,3,1,-2,0.67,7728,41,90,32,63,1081,406.0,519,451,60,117.0,234,1,440,317,94,0,0,410,6512,18584,406,,,,,,,,,,,,
839623,1560693367730,3,2.34,2.39,3.2,2.27,5.06,0.62,-0.15,0.88,3,0,-3,0.64,7754,41,89,32,63,1062,408.0,520,459,60,117.0,234,1,441,319,94,0,0,417,10541,-21944,408,,,,,,,,,,,,
839643,1560693367750,5,2.34,2.38,3.2,2.3,5.04,0.73,-0.17,0.85,3,-2,-2,0.75,7848,41,90,32,62,1045,410.0,526,451,60,118.0,234,1,446,312,94,0,0,418,1504,18584,410,45.701061,4.909915,37.47,195.1,8,1.6267,0,0.0,0.115,9,0.1,13.994
839663,1560693367770,-2,2.34,2.39,3.2,2.3,5.07,0.78,-0.36,0.96,3,-2,-2,0.86,7884,41,90,32,62,1018,413.0,533,455,60,117.0,234,1,446,313,94,0,0,421,-26615,-3414,413,,,,,,,,,,,,
839683,1560693367790,2,2.34,2.38,3.21,2.3,5.07,0.73,-0.38,1.05,3,-2,-2,0.82,7951,41,90,32,61,988,417.0,535,458,60,116.0,234,1,448,306,94,0,0,425,11560,-3856,419,,,,,,,,,,,,
839703,1560693367808,4,2.35,2.38,3.21,2.31,5.04,0.8,-0.39,1.01,2,-3,-1,0.89,8036,41,89,32,60,967,422.0,544,452,60,118.0,219,1,441,309,92,0,0,433,13040,1779,422,,,,,,,,,,,,
839723,1560693367828,0,2.35,2.39,3.19,2.32,5.04,0.81,-0.48,1.09,2,-4,-1,0.94,8054,41,89,32,60,954,423.0,548,454,60,117.0,219,1,441,304,92,0,0,428,-26615,-7939,423,,,,,,,,,,,,
839743,1560693367848,2,2.35,2.38,3.17,2.32,5.06,0.72,-0.4,1.02,3,-3,-0,0.82,8088,41,89,32,59,941,425.0,545,459,60,117.0,219,1,432,299,92,0,0,427,-3414,19477,425,45.701061,4.909927,39.05,195.1,8,1.6267,0,0.0,0.1167,9,0.1,13.9957
839763,1560693367868,-1,2.35,2.38,3.21,2.32,5.06,0.77,-0.39,1.07,3,-4,1,0.86,8148,41,89,32,58,928,429.0,546,450,60,118.0,219,1,423,295,92,0,0,438,-3414,243,430,,,,,,,,,,,,
839783,1560693367888,2,2.35,2.37,3.21,2.31,5.08,0.68,-0.33,1.08,4,-2,1,0.75,8209,41,89,32,57,922,433.0,552,455,60,117.0,219,1,415,289,92,0,0,438,3826,26704,433,,,,,,,,,,,,
839803,1560693367908,-1,2.36,2.38,3.2,2.33,5.06,0.68,-0.29,0.99,4,-3,2,0.73,8230,41,89,32,57,921,435.0,560,463,60,117.0,207,1,415,292,90,0,0,438,13552,2131,435,,,,,,,,,,,,
839823,1560693367928,1,2.36,2.38,3.21,2.33,5.06,0.61,-0.35,1.04,5,-1,3,0.7,8314,41,89,32,56,924,438.0,562,448,60,117.0,207,1,406,287,90,0,0,446,3635,-18341,440,,,,,,,,,,,,
839843,1560693367948,1,2.36,2.37,3.22,2.33,5.04,0.7,-0.39,1.1,5,-2,4,0.8,8381,41,89,32,55,928,444.0,564,453,60,117.0,207,1,398,281,90,0,0,448,-3322,10305,444,45.701069,4.909939,40.57,195.1,8,1.6267,0,0.0,0.1183,9,0.1,13.9974
839863,1560693367968,3,2.36,2.37,3.23,2.33,5.07,0.61,-0.38,0.96,5,-2,4,0.72,8434,41,89,32,54,932,443.0,566,453,60,117.0,207,1,390,275,90,0,0,452,-7939,15649,445,,,,,,,,,,,,
839883,1560693367988,1,2.37,2.37,3.24,2.34,5.07,0.68,-0.42,1.05,5,0,5,0.8,8457,41,89,32,54,936,446.0,566,456,60,118.0,207,1,390,277,90,0,0,454,19477,-26615,446,,,,,,,,,,,,
839903,1560693368000,1,2.37,2.37,3.23,2.33,5.04,0.68,-0.45,1.0,5,-1,4,0.82,8488,41,89,32,53,943,449.0,566,462,60,117.0,199,1,387,277,89,0,0,451,-28332,2211,449,,,,,,,,,,,,
839923,1560693368020,4,2.38,2.38,3.23,2.33,5.05,0.58,-0.41,1.0,6,-1,6,0.71,8534,41,89,32,52,953,451.0,566,451,60,117.0,199,1,384,264,89,0,0,456,20625,-18108,451,,,,,,,,,,,,
839943,1560693368040,2,2.37,2.36,3.23,2.35,5.04,0.62,-0.42,1.08,7,-0,6,0.75,8589,42,89,32,53,962,454.0,565,452,60,117.0,199,1,388,273,89,0,0,458,-18341,17628,454,45.701076,4.909952,41.72,195.2,8,1.6267,0,0.0,0.12,9,0.1,13.9991
839963,1560693368060,3,2.37,2.35,3.24,2.33,5.07,0.69,-0.39,1.04,7,-3,6,0.79,8612,41,89,32,52,967,457.0,573,454,60,118.0,199,1,385,266,89,0,0,461,21432,6193,457,,,,,,,,,,,,
839983,1560693368080,-1,2.38,2.34,3.26,2.33,5.07,0.61,-0.36,0.96,7,-1,7,0.71,8664,42,89,32,52,976,460.0,576,455,60,118.0,199,1,386,268,89,0,0,465,10305,6193,463,,,,,,,,,,,,
840003,1560693368108,5,2.38,2.34,3.27,2.33,5.04,0.54,-0.41,1.05,8,-1,8,0.68,8720,42,89,32,52,993,463.0,578,448,60,117.0,187,1,387,269,87,0,0,465,15649,-9203,463,,,,,,,,,,,,
840023,1560693368128,5,2.37,2.34,3.29,2.33,5.06,0.51,-0.33,1.01,8,0,9,0.61,8745,42,89,32,51,1008,464.0,588,457,60,117.0,187,1,384,262,87,0,0,471,3571,-1923,464,,,,,,,,,,,,
840043,1560693368148,4,2.37,2.32,3.26,2.33,5.03,0.59,-0.3,0.93,8,-1,9,0.66,8782,42,89,32,51,1018,466.0,597,461,60,117.0,187,1,384,272,87,0,0,465,-8985,-1923,466,45.70108,4.909965,43.18,195.2,8,1.6267,0,0.0,0.1217,9,0.1,14.0007
840063,1560693368168,3,2.38,2.33,3.28,2.34,5.07,0.72,-0.4,0.91,8,-0,9,0.82,8819,42,89,32,51,1031,469.0,601,461,60,117.0,187,1,384,264,87,0,0,474,2524,-9203,469,,,,,,,,,,,,
840083,1560693368188,3,2.38,2.33,3.27,2.34,5.04,0.76,-0.41,0.89,8,-2,9,0.87,8836,42,89,32,51,1045,473.0,592,462,60,117.0,187,1,384,265,87,0,0,477,14488,-899,472,,,,,,,,,,,,
840103,1560693368208,-1,2.38,2.32,3.28,2.34,5.05,0.82,-0.53,0.87,8,-0,10,0.98,8852,42,89,32,51,1059,474.0,603,459,60,117.0,182,1,385,265,86,0,0,476,-18108,-23367,474,,,,,,,,,,,,
840123,1560693368228,1,2.38,2.31,3.27,2.34,5.04,0.72,-0.56,0.9,8,-2,9,0.92,8769,42,89,32,50,1065,475.0,596,461,60,119.0,182,1,380,254,86,0,0,476,-23623,8488,475,,,,,,,,,,,,
840143,1560693368248,-1,2.38,2.31,3.3,2.34,5.04,0.76,-0.57,0.94,9,-1,11,0.95,8408,42,89,32,51,1073,476.0,587,450,60,119.0,182,1,381,255,86,0,0,474,2211,16648,476,45.701084,4.909979,44.53,195.2,8,1.6267,0,0.0,0.1233,9,0.1,14.0024
840163,1560693368268,-2,2.38,2.28,3.31,2.31,5.06,0.78,-0.53,0.87,9,-1,11,0.95,8227,42,89,32,52,1089,476.0,571,457,60,118.0,182,1,384,258,86,0,0,460,12552,16648,476,,,,,,,,,,,,
840183,1560693368288,-1,2.39,2.27,3.33,2.3,5.08,0.82,-0.53,0.9,9,-2,12,0.98,8005,42,89,32,54,1106,477.0,558,453,60,118.0,182,1,390,267,86,0,0,464,-23623,16648,477,,,,,,,,,,,,
840203,1560693368308,-1,2.37,2.26,3.38,2.3,5.04,0.84,-0.51,0.91,10,-1,12,0.99,7773,42,89,32,56,1118,476.0,548,457,60,118.0,168,1,405,276,80,0,0,458,-18108,-23367,480,,,,,,,,,,,,
840223,1560693368328,-1,2.38,2.24,3.37,2.31,5.05,0.88,-0.48,0.97,10,-0,11,1.0,7455,42,89,32,57,1131,480.0,539,452,60,118.0,168,1,409,464,80,0,0,477,12552,1,480,,,,,,,,,,,,
840243,1560693368348,2,2.38,2.26,3.32,2.36,5.07,0.84,-0.52,0.99,10,-2,10,0.98,6648,42,89,32,60,1194,483.0,501,460,60,116.0,168,1,405,434,80,0,0,526,30272,10408,483,45.701092,4.909994,45.64,195.2,8,1.6267,0,0.0,0.125,9,0.1,14.0041
840263,1560693368368,5,2.38,2.29,3.31,2.4,5.05,0.83,-0.54,1.01,11,-1,9,0.99,6441,42,89,32,63,1256,487.0,473,452,60,118.0,168,1,392,393,80,0,0,505,10432,248,487,,,,,,,,,,,,
840283,1560693368388,-0,2.38,2.28,3.27,2.38,5.08,0.91,-0.57,0.94,10,-1,9,1.07,6481,42,89,32,66,1308,488.0,454,454,60,118.0,168,1,382,378,80,0,0,478,32033,-6656,488,,,,,,,,,,,,
840303,1560693368407,-0,2.38,2.28,3.28,2.37,5.04,0.83,-0.56,0.94,10,-1,9,1.0,6542,42,89,32,68,1361,486.0,460,453,60,117.0,188,1,377,351,91,0,0,480,3576,10408,486,,,,,,,,,,,,
840323,1560693368427,-0,2.38,2.27,3.31,2.34,5.08,0.82,-0.47,0.9,11,0,10,0.95,6648,42,89,32,70,1417,489.0,462,457,60,117.0,188,1,378,350,91,0,0,480,3576,-32768,489,,,,,,,,,,,,
840343,1560693368447,2,2.37,2.27,3.34,2.33,5.06,0.93,-0.54,0.92,10,-1,11,1.07,6734,43,89,32,71,1472,491.0,464,458,60,117.0,188,1,379,351,91,0,0,489,3576,-32768,492,45.701096,4.910008,46.12,195.2,8,1.6267,0,0.0,0.1267,9,0.1,14.0057
840363,1560693368467,-1,2.38,2.27,3.34,2.34,5.05,0.75,-0.49,0.87,11,2,12,0.89,6747,43,89,32,71,1488,494.0,470,457,60,118.0,188,1,379,367,91,0,0,497,2212,998,491,,,,,,,,,,,,
840383,1560693368487,4,2.36,2.28,3.34,2.35,5.06,0.87,-0.54,0.92,10,-1,12,1.03,6749,43,89,32,72,1491,492.0,467,458,60,117.0,188,1,378,367,91,0,0,495,16648,3,492,,,,,,,,,,,,
840403,1560693368509,-2,2.37,2.27,3.34,2.33,5.06,0.75,-0.48,0.88,11,-0,12,0.89,6815,43,89,32,72,1458,495.0,470,449,60,118.0,196,1,380,383,97,0,0,499,8488,11560,495,,,,,,,,,,,,
840423,1560693368529,3,2.38,2.26,3.32,2.32,5.07,0.84,-0.55,0.91,10,1,12,1.0,6828,43,89,32,72,1421,496.0,468,461,60,117.0,196,1,380,383,97,0,0,499,3580,-32248,496,,,,,,,,,,,,
840443,1560693368549,-0,2.37,2.27,3.31,2.33,5.08,0.81,-0.53,0.83,11,1,13,0.97,6823,43,89,32,72,1380,501.0,473,453,60,118.0,196,1,380,383,97,0,0,499,-1562,6274,501,45.701103,4.910024,46.91,195.2,8,1.6267,0,0.0,0.1283,9,0.11,14.0074
840463,1560693368569,4,2.37,2.28,3.29,2.33,5.05,0.76,-0.6,0.95,10,1,12,0.97,6848,43,89,32,72,1340,501.0,471,457,60,116.0,196,1,382,383,97,0,0,504,-6441,6274,501,,,,,,,,,,,,
840483,1560693368589,-0,2.38,2.29,3.3,2.33,5.04,0.75,-0.58,0.84,11,0,12,0.95,6885,43,89,32,72,1280,504.0,480,456,60,118.0,196,1,383,383,97,0,0,507,-1818,6274,501,,,,,,,,,,,,
840503,1560693368609,1,2.37,2.28,3.33,2.33,5.04,0.66,-0.58,0.85,11,1,13,0.88,6873,43,89,32,72,1213,503.0,481,456,60,117.0,197,1,382,383,99,0,0,510,-6656,10994,503,,,,,,,,,,,,
840523,1560693368629,3,2.37,2.28,3.34,2.33,5.04,0.79,-0.62,0.89,10,-1,14,1.0,6900,43,89,32,72,1172,506.0,481,456,60,117.0,197,1,383,384,99,0,0,512,998,-14,506,,,,,,,,,,,,
840543,1560693368649,-1,2.37,2.29,3.33,2.33,5.07,0.64,-0.52,0.85,11,1,15,0.82,6988,43,89,32,72,1146,507.0,482,455,60,118.0,197,1,386,385,99,0,0,510,771,-8187,507,45.701103,4.910039,47.9,195.2,8,1.6267,0,0.0,0.13,9,0.11,14.0091
840563,1560693368669,-1,2.38,2.28,3.33,2.33,5.06,0.75,-0.49,0.96,10,-1,14,0.9,7001,43,89,32,72,1113,509.0,487,457,60,116.0,197,1,387,386,99,0,0,512,3,-9212,509,,,,,,,,,,,,
840583,1560693368689,5,2.37,2.28,3.34,2.32,5.05,0.71,-0.5,0.89,10,-0,13,0.87,7040,43,89,32,72,1076,513.0,488,454,60,117.0,197,1,389,372,99,0,0,518,-9216,16383,513,,,,,,,,,,,,
840603,1560693368709,0,2.37,2.28,3.33,2.31,5.05,0.61,-0.41,0.72,11,1,13,0.74,7072,43,89,32,71,1054,515.0,487,453,60,118.0,200,1,392,373,103,0,0,522,15661,1248,515,,,,,,,,,,,,
840623,1560693368729,1,2.37,2.28,3.33,2.32,5.07,0.62,-0.43,0.74,11,2,14,0.76,7051,43,89,32,71,1043,516.0,493,455,60,117.0,200,1,390,387,103,0,0,520,2109,1341,516,,,,,,,,,,,,
840643,1560693368749,6,2.37,2.28,3.32,2.32,5.06,0.72,-0.49,0.86,10,1,13,0.88,7115,43,89,32,71,1032,517.0,492,457,60,116.0,200,1,394,373,103,0,0,523,6274,10408,517,45.701111,4.910056,48.58,195.2,8,1.6267,0,0.0,0.1317,9,0.11,14.0107
840663,1560693368769,2,2.38,2.28,3.33,2.32,5.07,0.58,-0.49,0.75,11,2,14,0.76,7153,43,89,32,71,1018,519.0,493,458,60,117.0,200,1,396,375,103,0,0,525,-21872,-32248,519,,,,,,,,,,,,
840683,1560693368789,2,2.37,2.29,3.32,2.32,5.05,0.44,-0.47,0.67,12,2,14,0.64,7172,43,89,32,70,1009,524.0,490,452,60,118.0,200,1,399,375,103,0,0,525,10994,2088,524,,,,,,,,,,,,
840703,1560693368809,1,2.37,2.28,3.32,2.33,5.07,0.42,-0.45,0.61,11,1,15,0.62,7211,43,89,32,70,1006,527.0,499,455,60,118.0,189,1,402,377,99,0,0,529,10994,-9072,527,,,,,,,,,,,,
840723,1560693368829,-0,2.38,2.28,3.31,2.33,5.05,0.53,-0.47,0.73,11,0,14,0.71,7233,43,89,32,70,1003,526.0,500,453,60,116.0,189,1,403,377,99,0,0,529,17136,14504,526,,,,,,,,,,,,
840743,1560693368849,4,2.37,2.29,3.32,2.34,5.05,0.68,-0.48,0.85,10,-3,13,0.83,7261,43,89,32,70,1002,528.0,499,459,60,117.0,189,1,406,364,99,0,0,537,-3482,-32248,528,45.701115,4.910072,49.73,195.2,8,1.6267,0,0.0,0.1333,9,0.11,14.0124
840763,1560693368869,3,2.38,2.28,3.3,2.34,5.04,0.78,-0.47,0.97,10,-3,14,0.91,7329,43,89,32,70,1001,531.0,502,457,60,118.0,189,1,408,353,99,0,0,537,15679,6274,531,,,,,,,,,,,,
840783,1560693368889,3,2.39,2.28,3.31,2.34,5.05,0.75,-0.55,0.92,11,-1,15,0.93,7318,43,89,32,70,1003,532.0,506,458,60,117.0,189,1,408,352,99,0,0,539,1341,2524,532,,,,,,,,,,,,
840803,1560693368909,2,2.38,2.28,3.31,2.33,5.05,0.67,-0.55,0.99,12,-1,17,0.87,7364,43,89,32,69,1002,539.0,510,457,60,118.0,182,1,412,354,98,0,0,546,-8187,-8186,536,,,,,,,,,,,,
840823,1560693368929,3,2.38,2.28,3.32,2.33,5.05,0.59,-0.58,0.98,12,1,18,0.83,7367,43,89,32,69,998,537.0,508,455,60,118.0,182,1,412,354,98,0,0,548,1248,-3082,540,,,,,,,,,,,,
840843,1560693368949,4,2.38,2.27,3.32,2.35,5.08,0.47,-0.6,0.84,12,-0,17,0.76,7425,43,89,32,69,993,543.0,511,455,60,118.0,182,1,415,356,98,0,0,545,-32248,-506,543,45.701118,4.91009,50.65,195.2,8,1.6267,0,0.0,0.135,9,0.11,14.014
840863,1560693368969,3,2.38,2.26,3.31,2.35,5.06,0.37,-0.55,0.77,12,-0,16,0.66,7443,43,89,32,68,987,544.0,513,456,60,118.0,182,1,417,344,98,0,0,551,10408,-32248,544,,,,,,,,,,,,
840883,1560693368989,4,2.39,2.28,3.32,2.36,5.07,0.34,-0.54,0.75,12,-1,17,0.64,7512,43,89,32,68,978,544.0,514,457,60,118.0,182,1,421,359,98,0,0,552,-28648,14504,544,,,,,,,,,,,,
840903,1560693369001,3,2.39,2.3,3.31,2.38,5.05,0.33,-0.55,0.72,12,-1,17,0.64,7539,43,89,32,68,962,547.0,521,455,60,117.0,179,1,423,348,98,0,0,550,2524,-22359,547,,,,,,,,,,,,
840923,1560693369021,3,2.4,2.28,3.32,2.36,5.06,0.28,-0.62,0.73,12,-2,15,0.68,7584,44,89,32,67,947,549.0,523,452,60,118.0,179,1,427,343,98,0,0,556,-22519,2216,550,,,,,,,,,,,,
840943,1560693369041,2,2.38,2.26,3.32,2.36,5.06,0.22,-0.64,0.71,13,-1,16,0.67,7548,44,89,32,67,938,552.0,515,455,60,118.0,179,1,426,341,98,0,0,560,6274,-2934,552,45.701122,4.910108,51.58,195.2,8,1.6267,0,0.0,0.1367,9,0.11,14.0157
840963,1560693369061,4,2.39,2.25,3.33,2.37,5.07,0.21,-0.64,0.8,13,-1,17,0.68,7591,44,89,32,67,926,556.0,518,459,60,118.0,179,1,428,343,98,0,0,566,6274,-22263,556,,,,,,,,,,,,
840983,1560693369081,3,2.39,2.26,3.32,2.37,5.07,0.24,-0.73,0.88,13,-1,16,0.77,7634,44,89,32,66,906,556.0,525,453,60,117.0,179,1,432,338,98,0,0,558,-8186,-18032,558,,,,,,,,,,,,
841003,1560693369109,-0,2.39,2.26,3.34,2.36,5.05,0.34,-0.71,0.99,13,-2,16,0.78,7722,44,89,32,67,886,560.0,517,459,60,117.0,179,1,435,340,100,0,0,565,-8186,-30159,560,,,,,,,,,,,,
841023,1560693369129,-1,2.39,2.26,3.34,2.39,5.04,0.43,-0.7,1.02,13,-2,17,0.82,7728,44,89,32,66,875,563.0,524,458,60,117.0,179,1,438,341,100,0,0,570,1779,1780,563,,,,,,,,,,,,
841043,1560693369149,1,2.39,2.26,3.34,2.4,5.07,0.44,-0.68,0.96,14,1,17,0.81,7760,44,89,32,66,864,565.0,534,457,60,116.0,179,1,438,341,100,0,0,571,-3082,-3190,565,45.701122,4.910126,52.62,195.2,8,1.6267,0,0.0,0.1383,9,0.11,14.0174
841063,1560693369169,2,2.39,2.27,3.35,2.39,5.07,0.38,-0.65,0.85,14,0,17,0.76,7805,43,89,32,65,851,567.0,537,453,60,117.0,179,1,441,335,100,0,0,572,-22519,-3190,567,,,,,,,,,,,,
841083,1560693369189,4,2.39,2.27,3.33,2.41,5.03,0.3,-0.65,0.8,15,-1,17,0.71,7780,40,89,32,64,837,567.0,533,453,60,117.0,179,1,441,327,100,0,0,573,14504,1780,567,,,,,,,,,,,,
841103,1560693369209,1,2.39,2.26,3.34,2.39,5.07,0.32,-0.66,0.89,15,-0,19,0.73,7815,37,88,31,62,834,568.0,537,458,60,117.0,165,1,445,312,94,0,0,575,-28648,259,569,,,,,,,,,,,,
841123,1560693369229,1,2.39,2.25,3.36,2.39,5.04,0.42,-0.65,0.94,14,-1,19,0.77,7793,34,88,31,60,831,574.0,538,459,60,116.0,165,1,437,298,94,0,0,578,2524,10432,574,,,,,,,,,,,,
841143,1560693369249,3,2.39,2.26,3.37,2.39,5.04,0.42,-0.62,0.82,14,-1,18,0.75,7809,32,88,31,58,825,574.0,542,458,60,117.0,165,1,421,287,94,0,0,582,-22359,1760,576,45.701122,4.910144,53.65,195.2,8,1.6267,0,0.0,0.14,9,0.12,14.019
841163,1560693369269,3,2.39,2.26,3.38,2.38,5.04,0.42,-0.58,0.73,14,-2,18,0.72,7861,31,88,31,56,819,576.0,545,457,60,118.0,165,1,406,277,94,0,0,581,-32504,15649,576,,,,,,,,,,,,
841183,1560693369289,2,2.39,2.26,3.39,2.38,5.06,0.44,-0.63,0.76,14,-1,18,0.77,7868,31,88,31,54,816,579.0,544,457,60,118.0,165,1,390,266,94,0,0,579,-32504,8488,579,,,,,,,,,,,,
841203,1560693369310,1,2.37,2.26,3.38,2.39,5.06,0.5,-0.62,0.88,13,-2,18,0.8,7918,31,88,31,52,813,579.0,542,457,60,117.0,134,1,384,254,78,0,0,582,6273,-25872,579,,,,,,,,,,,,
841223,1560693369330,2,2.38,2.25,3.38,2.38,5.03,0.53,-0.63,0.85,13,-1,17,0.82,7918,31,88,31,51,809,582.0,541,457,60,116.0,134,1,381,248,78,0,0,580,-18032,-1894,582,,,,,,,,,,,,
841243,1560693369350,4,2.37,2.25,3.39,2.38,5.06,0.5,-0.61,0.75,13,0,17,0.78,7884,31,88,31,50,805,581.0,547,456,60,117.0,134,1,378,241,78,0,0,581,-28648,1,581,45.701126,4.910163,54.77,195.2,8,1.6267,0,0.0,0.1417,9,0.12,14.0207
841263,1560693369370,1,2.38,2.25,3.38,2.38,5.07,0.61,-0.65,0.8,13,-2,18,0.89,7911,30,88,31,49,803,583.0,539,458,60,117.0,134,1,375,235,78,0,0,581,-23623,15649,583,,,,,,,,,,,,
841283,1560693369390,1,2.36,2.24,3.38,2.36,5.05,0.69,-0.62,0.92,12,-1,18,0.93,7878,30,88,31,48,803,584.0,545,452,60,117.0,134,1,372,229,78,0,0,586,-30159,-1894,584,,,,,,,,,,,,
841303,1560693369408,3,2.36,2.24,3.38,2.36,5.06,0.62,-0.57,0.85,12,0,17,0.85,7894,29,88,31,48,797,585.0,542,458,60,117.0,116,1,372,229,68,0,0,582,-30159,243,585,,,,,,,,,,,,
841323,1560693369428,4,2.36,2.23,3.39,2.36,5.04,0.63,-0.6,0.74,12,-0,17,0.87,7958,29,88,31,46,790,585.0,546,457,60,118.0,116,1,362,221,68,0,0,580,-8186,-1894,584,,,,,,,,,,,,
841343,1560693369448,-1,2.35,2.24,3.39,2.33,5.07,0.69,-0.58,0.78,12,-1,16,0.9,7941,29,88,31,46,784,586.0,550,456,60,117.0,116,1,362,221,68,0,0,585,-3190,-32504,586,45.701126,4.910183,55.65,195.2,8,1.6267,0,0.0,0.1433,9,0.12,14.0224
841363,1560693369468,2,2.33,2.23,3.38,2.33,5.04,0.66,-0.57,0.81,12,1,16,0.88,7941,29,88,31,45,778,583.0,551,459,60,117.0,116,1,355,219,68,0,0,587,1267,15649,586,,,,,,,,,,,,
841383,1560693369488,3,2.34,2.25,3.36,2.32,5.05,0.63,-0.55,0.67,12,0,16,0.84,7958,29,88,31,45,772,586.0,555,456,60,118.0,116,1,355,219,68,0,0,585,1760,15649,586,,,,,,,,,,,,
841403,1560693369508,1,2.32,2.27,3.34,2.33,5.05,0.65,-0.53,0.6,12,1,15,0.84,7914,29,88,31,44,766,583.0,549,455,60,117.0,111,1,347,217,65,0,0,588,1760,-25872,583,,,,,,,,,,,,
841423,1560693369528,1,2.32,2.27,3.35,2.33,5.04,0.68,-0.56,0.72,12,2,15,0.89,7918,29,88,31,44,763,586.0,548,459,60,117.0,111,1,347,217,65,0,0,585,259,6273,585,,,,,,,,,,,,
841443,1560693369548,2,2.3,2.27,3.34,2.3,5.04,0.64,-0.44,0.67,12,3,16,0.77,7948,29,88,31,44,763,586.0,548,457,60,117.0,111,1,347,217,65,0,0,582,774,-25872,586,45.70113,4.910202,56.35,195.2,8,1.6267,0,0.0,0.145,9,0.12,14.024
841463,1560693369568,5,2.28,2.27,3.32,2.29,5.06,0.62,-0.41,0.61,12,3,14,0.74,7921,29,88,31,43,767,583.0,548,457,60,118.0,111,1,340,217,65,0,0,586,30208,-13043,583,,,,,,,,,,,,
841483,1560693369588,1,2.28,2.27,3.32,2.28,5.04,0.6,-0.4,0.58,11,3,14,0.72,7958,29,88,31,44,772,585.0,548,461,60,117.0,111,1,347,216,65,0,0,589,-16384,-4035,585,,,,,,,,,,,,
841503,1560693369608,2,2.28,2.27,3.32,2.28,5.08,0.58,-0.26,0.55,11,3,14,0.64,7965,28,88,31,44,776,585.0,547,456,60,117.0,111,1,347,216,65,0,0,592,-3210,208,585,,,,,,,,,,,,
841523,1560693369628,4,2.26,2.27,3.3,2.27,5.04,0.53,-0.21,0.44,10,3,13,0.57,7951,28,88,31,43,781,584.0,557,454,60,118.0,111,1,340,216,65,0,0,582,10432,2048,584,,,,,,,,,,,,
841543,1560693369648,0,2.27,2.27,3.28,2.24,5.06,0.55,-0.17,0.51,9,4,12,0.57,7982,28,88,31,43,789,583.0,552,457,60,117.0,111,1,340,216,65,0,0,590,10432,-12040,583,45.70113,4.910222,56.71,195.2,8,1.6267,0,0.0,0.1467,9,0.12,14.0257
841563,1560693369668,1,2.25,2.27,3.27,2.22,5.08,0.54,-0.11,0.59,8,4,11,0.55,7985,28,88,31,43,801,583.0,555,457,60,116.0,111,1,340,216,65,0,0,587,-25872,2048,583,,,,,,,,,,,,
841583,1560693369688,3,2.24,2.28,3.25,2.19,5.08,0.5,-0.05,0.49,7,3,9,0.51,7948,28,88,31,43,810,586.0,563,461,60,117.0,111,1,340,216,65,0,0,587,-1894,-12040,584,,,,,,,,,,,,
841603,1560693369708,-2,2.23,2.29,3.24,2.17,5.07,0.56,-0.0,0.54,6,3,8,0.56,7985,28,88,31,43,818,584.0,553,456,60,117.0,110,1,340,216,64,0,0,594,208,3472,583,,,,,,,,,,,,
841623,1560693369728,0,2.22,2.34,3.22,2.16,5.04,0.54,0.05,0.65,5,2,7,0.54,7999,28,88,31,43,828,588.0,553,456,60,116.0,110,1,340,216,64,0,0,589,208,3472,584,,,,,,,,,,,,
841643,1560693369748,3,2.21,2.34,3.19,2.13,5.07,0.52,0.15,0.52,3,1,5,0.54,7978,28,88,31,42,841,589.0,563,457,60,117.0,110,1,332,214,64,0,0,592,208,-25872,580,45.70113,4.910243,56.72,195.1,8,1.6267,0,0.0,0.1483,9,0.12,14.0274
841663,1560693369768,1,2.2,2.37,3.16,2.1,5.08,0.54,0.13,0.51,2,2,4,0.56,7995,28,88,31,42,852,590.0,559,456,60,118.0,110,1,332,214,64,0,0,591,-32504,-25872,581,,,,,,,,,,,,
841683,1560693369788,2,2.18,2.41,3.12,2.07,5.04,0.55,0.16,0.57,1,2,3,0.57,7965,28,88,31,42,858,592.0,558,453,60,117.0,110,1,332,214,64,0,0,592,-28648,-16384,578,,,,,,,,,,,,
841703,1560693369808,1,2.18,2.44,3.1,2.08,5.07,0.51,0.21,0.53,0,1,1,0.55,7955,28,88,31,42,866,590.0,560,456,60,118.0,110,1,332,214,64,0,0,593,-32504,8488,577,,,,,,,,,,,,
841723,1560693369828,-1,2.19,2.44,3.1,2.05,5.06,0.54,0.26,0.46,-1,1,-1,0.6,7995,28,88,31,42,879,592.0,552,457,60,118.0,110,1,332,214,64,0,0,591,-28648,-25872,577,,,,,,,,,,,,
841743,1560693369848,1,2.17,2.46,3.1,2.04,5.04,0.54,0.29,0.51,-2,2,-2,0.62,7971,28,88,31,42,890,593.0,552,455,60,117.0,110,1,332,214,64,0,0,594,-13043,-25872,575,45.70113,4.910263,56.65,195.1,8,1.6267,0,0.0,0.15,9,0.12,14.029
841763,1560693369868,3,2.17,2.47,3.1,2.02,5.06,0.54,0.32,0.49,-3,3,-3,0.63,7988,28,88,31,42,897,592.0,560,459,60,117.0,110,1,332,214,64,0,0,596,-28648,-32504,576,,,,,,,,,,,,
841783,1560693369888,-0,2.18,2.48,3.1,2.02,5.04,0.63,0.33,0.44,-4,2,-4,0.72,8040,28,88,31,41,906,595.0,557,457,60,118.0,110,1,325,214,64,0,0,593,17344,6273,575,,,,,,,,,,,,
841803,1560693369908,2,2.18,2.51,3.1,2.02,5.04,0.59,0.36,0.5,-5,1,-5,0.7,8005,28,88,31,42,919,593.0,560,457,60,117.0,112,1,332,213,65,0,0,605,3472,-4035,573,,,,,,,,,,,,
841823,1560693369928,4,2.17,2.51,3.07,2.01,5.07,0.6,0.44,0.47,-6,1,-7,0.74,7988,28,88,31,41,932,596.0,564,456,60,117.0,112,1,325,214,65,0,0,598,17344,8488,575,,,,,,,,,,,,
841843,1560693369948,0,2.18,2.5,3.07,2.01,5.03,0.7,0.43,0.47,-7,1,-7,0.83,8009,28,88,31,41,938,594.0,564,460,60,118.0,112,1,325,213,65,0,0,598,-13043,8488,576,45.70113,4.910283,56.57,195.1,8,1.6267,0,0.0,0.1517,9,0.13,14.0307
841863,1560693369968,2,2.17,2.5,3.05,2.0,5.05,0.73,0.45,0.58,-8,1,-7,0.86,7982,28,88,31,41,945,595.0,561,457,60,117.0,112,1,325,212,65,0,0,596,-16179,10432,577,,,,,,,,,,,,
841883,1560693369988,2,2.18,2.5,3.06,1.99,5.06,0.66,0.5,0.51,-8,1,-8,0.83,7992,28,88,31,41,952,595.0,567,459,60,117.0,112,1,325,212,65,0,0,597,-13043,-16384,574,,,,,,,,,,,,
841903,1560693370000,2,2.18,2.5,3.06,1.99,5.07,0.74,0.45,0.51,-9,0,-9,0.87,8033,28,88,31,41,959,593.0,569,457,60,118.0,111,1,325,213,64,0,0,596,3472,-16384,573,,,,,,,,,,,,
841923,1560693370020,2,2.19,2.5,3.06,1.99,5.08,0.72,0.51,0.56,-9,1,-11,0.88,7995,28,88,31,41,961,596.0,563,450,60,117.0,111,1,325,212,64,0,0,595,-16179,6273,576,,,,,,,,,,,,
841943,1560693370040,3,2.18,2.51,3.05,1.99,5.05,0.66,0.61,0.46,-9,-0,-12,0.9,7992,28,88,31,41,962,595.0,566,459,60,117.0,111,1,325,212,64,0,0,598,-16179,-1894,577,45.70113,4.910304,56.26,195.1,8,1.6267,0,0.0,0.1533,9,0.13,14.0324
841963,1560693370060,-1,2.18,2.5,3.06,1.98,5.06,0.7,0.56,0.42,-10,-0,-11,0.9,8002,28,88,31,41,962,593.0,565,457,60,118.0,111,1,325,213,64,0,0,592,3472,8488,576,,,,,,,,,,,,
841983,1560693370080,-1,2.2,2.49,3.06,1.98,5.06,0.71,0.53,0.52,-10,-0,-12,0.89,7975,28,88,31,41,964,595.0,556,454,60,117.0,111,1,325,212,64,0,0,593,17344,30208,575,,,,,,,,,,,,
842003,1560693370109,4,2.18,2.49,3.06,1.98,5.08,0.64,0.66,0.46,-10,-1,-12,0.92,7965,28,88,31,41,963,594.0,557,460,60,117.0,111,1,325,212,64,0,0,598,-13043,-4035,576,,,,,,,,,,,,
842023,1560693370129,-1,2.19,2.49,3.06,1.98,5.07,0.71,0.67,0.46,-11,-1,-12,0.97,8005,28,88,31,41,963,595.0,553,456,60,118.0,111,1,325,213,64,0,0,594,-16179,-3210,574,,,,,,,,,,,,
842043,1560693370149,1,2.19,2.49,3.06,1.98,5.08,0.71,0.61,0.54,-11,-1,-12,0.94,8023,28,88,31,41,959,594.0,553,455,60,117.0,111,1,325,212,64,0,0,600,-13043,-25872,575,45.70113,4.910324,56.32,195.1,8,1.6267,0,0.0,0.155,9,0.13,14.034
842063,1560693370169,4,2.18,2.5,3.05,1.99,5.06,0.66,0.7,0.5,-11,-1,-13,0.96,7975,28,88,31,41,955,592.0,560,457,60,117.0,111,1,325,212,64,0,0,594,-13043,-16384,579,,,,,,,,,,,,
842083,1560693370189,-1,2.18,2.49,3.05,1.97,5.05,0.74,0.66,0.46,-11,-1,-13,0.99,8016,28,88,31,41,951,594.0,557,458,60,118.0,111,1,325,213,64,0,0,591,-13043,-3210,576,,,,,,,,,,,,
842103,1560693370208,2,2.18,2.48,3.05,1.97,5.07,0.73,0.63,0.58,-11,0,-15,0.96,7958,28,88,31,41,948,592.0,557,449,60,118.0,111,1,325,212,64,0,0,599,-28648,243,576,,,,,,,,,,,,
842123,1560693370228,3,2.18,2.48,3.04,1.98,5.08,0.71,0.7,0.48,-11,-0,-15,1.0,7968,27,88,31,41,944,594.0,560,444,60,117.0,111,1,325,212,64,0,0,595,-13043,-4035,576,,,,,,,,,,,,
842143,1560693370248,0,2.17,2.48,3.05,1.98,5.06,0.78,0.68,0.42,-12,-1,-13,1.03,8005,28,88,31,41,941,593.0,559,449,60,118.0,111,1,325,213,64,0,0,597,3472,8488,576,45.701134,4.910344,56.39,195.1,8,1.6267,0,0.0,0.1567,9,0.13,14.0357
842163,1560693370268,3,2.18,2.48,3.06,1.97,5.06,0.75,0.66,0.52,-12,0,-13,1.0,7992,28,88,31,41,941,591.0,560,451,60,118.0,111,1,325,212,64,0,0,591,3472,10432,577,,,,,,,,,,,,
842183,1560693370288,2,2.19,2.5,3.05,1.97,5.07,0.69,0.77,0.51,-12,-0,-14,1.04,7988,27,88,31,41,942,594.0,560,452,60,117.0,111,1,325,212,64,0,0,592,-13043,8488,576,,,,,,,,,,,,
842203,1560693370309,1,2.18,2.53,3.05,1.97,5.04,0.78,0.73,0.48,-12,-1,-14,1.07,8019,27,88,31,41,946,592.0,557,453,60,118.0,111,1,325,213,64,0,0,595,-28648,-16384,574,,,,,,,,,,,,
842223,1560693370329,-1,2.19,2.52,3.05,1.97,5.05,0.79,0.72,0.56,-12,1,-15,1.07,7988,27,88,31,41,951,594.0,556,445,60,117.0,111,1,325,212,64,0,0,596,3472,-12040,574,,,,,,,,,,,,
842243,1560693370349,2,2.18,2.53,3.06,1.97,5.04,0.71,0.78,0.58,-12,-1,-15,1.06,7965,27,88,31,41,955,595.0,551,436,60,117.0,111,1,325,212,64,0,0,597,-16179,-12040,575,45.701138,4.910364,56.01,195.0,8,1.6267,0,0.0,0.1583,9,0.13,14.0374
842263,1560693370369,4,2.18,2.52,3.06,1.96,5.04,0.79,0.78,0.51,-12,-1,-15,1.11,7985,27,88,31,41,958,592.0,554,425,60,117.0,111,1,325,212,64,0,0,591,3472,259,575,,,,,,,,,,,,
842283,1560693370389,-0,2.18,2.5,3.05,1.92,5.07,0.83,0.66,0.63,-13,-0,-15,1.06,7958,27,88,31,42,963,595.0,555,439,60,117.0,111,1,332,212,64,0,0,591,-16179,259,576,,,,,,,,,,,,
842303,1560693370409,2,2.18,2.51,3.05,1.96,5.04,0.75,0.75,0.67,-13,0,-16,1.06,7971,27,88,31,41,967,595.0,551,440,60,117.0,111,1,325,212,64,0,0,597,3472,10432,574,,,,,,,,,,,,
842323,1560693370429,4,2.18,2.53,3.04,1.98,5.04,0.78,0.69,0.6,-13,-1,-16,1.04,7992,27,88,31,41,969,594.0,554,445,60,118.0,111,1,325,212,64,0,0,593,-13043,259,572,,,,,,,,,,,,
842343,1560693370449,1,2.18,2.52,3.05,1.96,5.04,0.83,0.6,0.64,-13,1,-17,1.02,7982,27,88,31,41,970,593.0,560,441,60,117.0,111,1,325,212,64,0,0,594,-28648,-16384,573,45.701141,4.910384,55.91,195.1,8,1.6267,0,0.0,0.16,9,0.13,14.0391
842363,1560693370469,4,2.17,2.5,3.03,1.94,5.07,0.8,0.65,0.71,-12,1,-18,1.03,7971,27,88,31,41,971,591.0,568,448,60,117.0,111,1,325,212,64,0,0,592,-28648,243,574,,,,,,,,,,,,
842383,1560693370489,5,2.18,2.5,3.02,1.94,5.04,0.84,0.65,0.62,-13,0,-17,1.07,7985,27,88,31,41,974,593.0,559,445,60,117.0,111,1,325,212,64,0,0,593,3472,208,575,,,,,,,,,,,,
842403,1560693370509,1,2.17,2.5,3.05,1.94,5.06,0.84,0.58,0.67,-13,1,-17,1.02,7968,27,88,31,41,976,591.0,560,451,60,117.0,111,1,325,212,64,0,0,598,-28648,10432,574,,,,,,,,,,,,
842423,1560693370529,1,2.18,2.5,3.05,1.94,5.06,0.81,0.57,0.72,-13,0,-17,0.99,7968,27,88,31,41,979,595.0,561,452,60,117.0,111,1,325,212,64,0,0,596,-16179,208,573,,,,,,,,,,,,
842443,1560693370549,3,2.18,2.52,3.04,1.95,5.04,0.82,0.61,0.66,-13,-1,-16,1.03,7999,27,88,31,41,981,596.0,560,440,60,118.0,111,1,325,212,64,0,0,599,3472,208,572,45.701141,4.910403,55.64,195.0,8,1.6267,0,0.0,0.1617,9,0.14,14.0407
842463,1560693370569,1,2.16,2.55,3.04,1.96,5.06,0.83,0.5,0.64,-13,-1,-17,0.97,7982,27,88,31,41,984,594.0,561,422,60,117.0,111,1,325,212,64,0,0,594,-13043,15649,574,,,,,,,,,,,,
842483,1560693370589,2,2.16,2.55,3.05,1.96,5.04,0.8,0.56,0.73,-13,-0,-18,0.98,7971,27,88,31,41,986,590.0,556,403,60,117.0,111,1,325,212,64,0,0,594,-32504,10432,571,,,,,,,,,,,,
842503,1560693370609,3,2.17,2.56,3.04,1.96,5.04,0.8,0.56,0.65,-13,-3,-17,0.98,7975,27,88,31,41,986,591.0,552,412,60,118.0,111,1,325,212,64,0,0,593,2048,774,571,,,,,,,,,,,,
842523,1560693370629,-0,2.17,2.56,3.06,1.95,5.07,0.86,0.48,0.71,-13,-3,-18,0.98,7948,27,88,31,41,986,593.0,552,415,60,118.0,111,1,325,212,64,0,0,595,3472,-1894,572,,,,,,,,,,,,
842543,1560693370649,2,2.17,2.56,3.07,1.93,5.06,0.85,0.5,0.72,-13,-3,-20,0.99,7982,27,88,31,41,986,592.0,554,399,60,118.0,111,1,325,212,64,0,0,594,-13043,243,572,45.701145,4.910422,55.73,195.1,8,1.6267,0,0.0,0.1633,9,0.14,14.0424
842563,1560693370669,1,2.18,2.56,3.09,1.92,5.06,0.82,0.56,0.61,-13,-4,-19,0.99,7982,27,88,31,41,986,591.0,552,411,60,118.0,111,1,325,212,64,0,0,595,6273,15649,571,,,,,,,,,,,,
842583,1560693370689,1,2.17,2.55,3.13,1.88,5.06,0.89,0.51,0.6,-13,-3,-18,1.03,7958,27,88,32,41,985,592.0,560,422,60,118.0,111,1,325,212,64,0,0,596,-16179,-1894,574,,,,,,,,,,,,
842603,1560693370709,3,2.16,2.54,3.1,1.89,5.04,0.9,0.54,0.7,-14,-3,-18,1.05,8005,27,88,32,41,985,596.0,557,401,60,117.0,112,1,325,213,64,0,0,596,17344,-25872,572,,,,,,,,,,,,
842623,1560693370729,2,2.18,2.55,3.08,1.89,5.05,0.89,0.59,0.72,-14,-3,-19,1.07,8005,27,88,32,41,987,597.0,561,421,60,118.0,112,1,325,213,64,0,0,593,23619,-3210,573,,,,,,,,,,,,
842643,1560693370749,0,2.17,2.55,3.04,1.88,5.06,0.91,0.59,0.61,-14,-3,-20,1.09,7982,27,88,32,41,989,596.0,561,408,60,118.0,112,1,325,212,64,0,0,600,17344,15649,572,45.701149,4.910442,55.85,195.1,8,1.6267,0,0.0,0.165,9,0.14,14.0441
842663,1560693370769,3,2.17,2.56,3.0,1.9,5.04,0.91,0.56,0.68,-14,-2,-21,1.06,7999,27,88,32,42,992,594.0,561,441,60,117.0,112,1,332,212,64,0,0,596,-13043,30208,573,,,,,,,,,,,,
842683,1560693370789,3,2.18,2.55,2.99,1.9,5.06,0.89,0.63,0.67,-14,-1,-19,1.09,7978,27,88,32,41,994,591.0,563,453,60,118.0,112,1,325,212,64,0,0,594,-13043,10432,571,,,,,,,,,,,,
842703,1560693370809,3,2.17,2.54,2.99,1.91,5.05,0.95,0.56,0.64,-14,-1,-20,1.1,7948,27,88,32,41,997,593.0,557,439,60,118.0,109,1,325,212,63,0,0,596,3472,30208,572,,,,,,,,,,,,
842723,1560693370829,1,2.17,2.54,2.99,1.9,5.08,0.97,0.5,0.74,-15,-3,-21,1.09,7992,27,88,32,41,1000,589.0,551,427,60,118.0,109,1,325,212,63,0,0,592,3472,259,571,,,,,,,,,,,,
842743,1560693370849,3,2.17,2.53,3.0,1.88,5.08,0.92,0.55,0.68,-15,-2,-19,1.07,7988,27,88,32,42,1000,594.0,555,412,60,118.0,109,1,332,212,63,0,0,596,-13043,8488,573,45.701157,4.91046,55.22,195.1,8,1.6267,0,0.0,0.1667,9,0.14,14.0457
842763,1560693370869,5,2.16,2.54,3.0,1.89,5.05,0.96,0.57,0.67,-15,-1,-19,1.12,7941,27,88,32,41,1000,594.0,551,426,60,118.0,109,1,325,212,63,0,0,593,-13043,10432,573,,,,,,,,,,,,
842783,1560693370889,-1,2.18,2.53,3.01,1.88,5.05,1.01,0.53,0.76,-15,-2,-20,1.14,7985,27,88,32,41,1003,592.0,549,433,60,117.0,109,1,325,212,63,0,0,592,-13043,-25872,571,,,,,,,,,,,,
842803,1560693370909,3,2.16,2.54,3.04,1.9,5.04,0.97,0.52,0.76,-15,-1,-20,1.1,7978,27,88,32,42,1007,593.0,552,429,60,117.0,111,1,332,212,64,0,0,596,3472,-8188,573,,,,,,,,,,,,
842823,1560693370929,4,2.17,2.54,3.04,1.9,5.08,0.97,0.58,0.72,-16,-2,-20,1.13,7951,27,88,32,41,1010,593.0,558,416,60,118.0,111,1,325,214,64,0,0,591,-13043,30208,572,,,,,,,,,,,,
842843,1560693370949,0,2.16,2.55,3.04,1.9,5.05,1.03,0.52,0.71,-16,-1,-22,1.15,7975,27,88,32,41,1013,595.0,559,438,60,118.0,111,1,325,212,64,0,0,591,-16179,1,570,45.70116,4.910479,55.21,195.1,8,1.6267,0,0.0,0.1683,9,0.14,14.0474
842863,1560693370969,2,2.16,2.58,3.02,1.91,5.05,0.96,0.57,0.72,-16,-3,-23,1.11,7944,27,88,32,41,1015,594.0,561,445,60,117.0,111,1,325,212,64,0,0,595,-28648,-16384,569,,,,,,,,,,,,
842883,1560693370989,1,2.16,2.59,3.03,1.89,5.05,0.94,0.68,0.63,-15,-3,-22,1.16,7948,27,88,32,41,1017,589.0,561,436,60,118.0,111,1,325,214,64,0,0,592,2048,243,569,,,,,,,,,,,,
842903,1560693371001,-0,2.17,2.59,3.03,1.9,5.04,0.99,0.59,0.62,-15,-3,-22,1.16,7958,27,88,32,41,1017,590.0,562,437,60,118.0,113,1,325,212,64,0,0,593,-32504,243,571,,,,,,,,,,,,
842923,1560693371021,2,2.17,2.58,3.06,1.87,5.04,1.0,0.57,0.71,-15,-3,-23,1.15,7944,27,88,32,42,1015,591.0,555,435,60,117.0,113,1,332,214,64,0,0,589,-28648,30208,570,,,,,,,,,,,,
842943,1560693371041,3,2.17,2.56,3.07,1.85,5.08,0.94,0.64,0.66,-15,-2,-23,1.14,7918,27,88,32,42,1014,593.0,557,423,60,117.0,113,1,332,214,64,0,0,590,3472,-29984,569,45.701168,4.910496,55.51,195.1,8,1.6267,0,0.0,0.17,9,0.14,14.0491
842963,1560693371061,2,2.18,2.56,3.07,1.85,5.06,0.92,0.69,0.61,-16,-2,-24,1.15,7958,27,88,32,42,1013,596.0,549,440,60,118.0,113,1,332,214,64,0,0,594,-16179,10432,571,,,,,,,,,,,,
842983,1560693371081,2,2.18,2.56,3.08,1.84,5.07,0.93,0.66,0.64,-16,-1,-24,1.14,7938,27,88,32,42,1012,595.0,549,450,60,117.0,113,1,332,214,64,0,0,593,-16179,-4035,569,,,,,,,,,,,,
843003,1560693371101,3,2.16,2.57,3.06,1.85,5.06,0.9,0.79,0.67,-15,0,-23,1.19,7968,27,88,32,42,1012,594.0,553,444,60,117.0,112,1,332,214,64,0,0,591,-13043,1267,570,,,,,,,,,,,,
843023,1560693371121,4,2.16,2.57,3.03,1.86,5.04,0.89,0.83,0.63,-15,0,-23,1.22,8009,27,88,32,42,1013,593.0,554,424,60,118.0,112,1,332,214,64,0,0,593,3472,-12040,571,,,,,,,,,,,,
843043,1560693371141,-2,2.17,2.57,2.98,1.86,5.04,0.9,0.75,0.64,-15,0,-24,1.17,7955,27,88,32,42,1013,594.0,550,426,60,117.0,112,1,332,212,64,0,0,591,-13043,-3190,570,45.701176,4.910514,55.48,195.1,8,1.6267,0,0.0,0.1717,9,0.14,14.0507
843063,1560693371161,2,2.17,2.57,2.97,1.85,5.06,0.89,0.79,0.65,-15,1,-23,1.19,7934,27,88,32,41,1014,593.0,552,441,60,117.0,112,1,325,212,64,0,0,598,-32504,243,571,,,,,,,,,,,,
843083,1560693371181,4,2.17,2.57,2.98,1.85,5.04,0.84,0.89,0.62,-14,1,-22,1.23,7958,27,88,32,42,1014,589.0,551,447,60,117.0,112,1,332,214,64,0,0,594,2048,259,570,,,,,,,,,,,,
843103,1560693371209,-1,2.16,2.57,2.99,1.85,5.07,0.79,0.85,0.64,-14,1,-23,1.16,7921,27,88,32,42,1013,592.0,546,434,60,118.0,110,1,332,214,63,0,0,591,-28648,774,572,,,,,,,,,,,,
843123,1560693371229,1,2.17,2.56,3.02,1.85,5.04,0.76,0.77,0.7,-14,1,-23,1.09,7918,27,88,32,42,1013,591.0,553,416,60,117.0,110,1,332,214,63,0,0,586,6273,-3210,570,,,,,,,,,,,,
843143,1560693371249,3,2.17,2.56,3.02,1.84,5.07,0.74,0.87,0.62,-14,1,-23,1.14,7941,27,88,32,41,1012,592.0,556,428,60,117.0,110,1,325,214,63,0,0,592,3472,-25872,568,45.70118,4.910531,55.63,195.1,8,1.6267,0,0.0,0.1733,9,0.15,14.0524
843163,1560693371269,4,2.17,2.56,3.02,1.85,5.04,0.77,0.82,0.58,-14,2,-24,1.13,7928,27,88,32,42,1010,593.0,560,435,60,118.0,110,1,332,214,63,0,0,591,3472,-16384,570,,,,,,,,,,,,
843183,1560693371289,1,2.17,2.56,3.03,1.83,5.06,0.8,0.72,0.64,-14,1,-25,1.08,7971,27,88,32,42,1010,591.0,556,440,60,117.0,110,1,332,214,63,0,0,591,6273,10432,569,,,,,,,,,,,,
843203,1560693371308,3,2.17,2.56,3.02,1.85,5.08,0.78,0.76,0.67,-14,2,-25,1.09,7982,27,88,32,41,1010,595.0,565,447,60,117.0,112,1,325,214,64,0,0,596,-28648,1,569,,,,,,,,,,,,
843223,1560693371328,4,2.17,2.56,3.02,1.86,5.04,0.73,0.8,0.53,-14,2,-26,1.08,7938,27,88,32,42,1011,592.0,561,449,60,118.0,112,1,332,214,64,0,0,590,-28648,-3210,569,,,,,,,,,,,,
843243,1560693371348,-3,2.18,2.55,3.0,1.86,5.04,0.76,0.76,0.51,-14,2,-26,1.07,7961,27,88,32,41,1013,593.0,552,443,60,118.0,112,1,325,212,64,0,0,594,-13043,1,569,45.701191,4.910548,56.09,195.1,8,1.6267,0,0.0,0.175,9,0.15,14.0541
843263,1560693371368,0,2.18,2.54,2.95,1.85,5.05,0.81,0.7,0.65,-13,2,-25,1.07,7965,27,88,32,42,1013,592.0,550,428,60,117.0,112,1,332,214,64,0,0,595,-28648,6273,570,,,,,,,,,,,,
843283,1560693371388,4,2.17,2.54,2.95,1.86,5.04,0.81,0.82,0.56,-13,2,-24,1.15,7928,27,88,32,41,1013,590.0,553,430,60,118.0,112,1,325,214,64,0,0,591,-32504,-3210,570,,,,,,,,,,,,
843303,1560693371408,1,2.18,2.53,2.96,1.86,5.08,0.81,0.76,0.55,-13,1,-23,1.11,7958,27,88,32,41,1012,591.0,548,452,60,118.0,112,1,325,212,64,0,0,592,6273,1760,570,,,,,,,,,,,,
843323,1560693371428,-0,2.17,2.53,2.95,1.87,5.05,0.86,0.69,0.6,-13,1,-23,1.1,7911,27,88,32,42,1010,591.0,547,446,60,117.0,112,1,332,214,64,0,0,588,-12040,1760,571,,,,,,,,,,,,
843343,1560693371448,4,2.17,2.52,2.98,1.87,5.05,0.82,0.73,0.66,-13,-0,-22,1.1,7904,27,88,32,42,1009,590.0,547,454,60,117.0,112,1,332,214,64,0,0,592,-32504,-8188,570,45.701199,4.910564,56.1,195.1,8,1.6267,0,0.0,0.1767,9,0.15,14.0557
843363,1560693371468,5,2.17,2.52,2.99,1.87,5.07,0.84,0.69,0.62,-13,-1,-21,1.09,7924,27,88,32,42,1008,590.0,546,442,60,118.0,112,1,332,214,64,0,0,588,-32504,10432,569,,,,,,,,,,,,
843383,1560693371488,3,2.18,2.52,3.01,1.87,5.08,0.92,0.59,0.64,-13,-1,-23,1.09,7914,27,88,32,42,1007,590.0,550,426,60,117.0,112,1,332,214,64,0,0,591,2048,-3210,571,,,,,,,,,,,,
843403,1560693371506,6,2.17,2.52,3.01,1.87,5.04,0.92,0.56,0.75,-13,-2,-23,1.08,7938,27,88,32,42,1008,590.0,551,411,60,117.0,112,1,332,214,64,0,0,589,-32504,30208,568,,,,,,,,,,,,
843423,1560693371526,9,2.18,2.51,3.03,1.86,5.07,0.94,0.63,0.65,-14,-4,-22,1.13,7941,27,88,32,41,1010,587.0,553,400,60,118.0,112,1,325,214,64,0,0,586,-1894,-8186,565,,,,,,,,,,,,
843443,1560693371546,28,2.18,2.5,3.05,1.86,5.05,0.95,0.61,0.59,-14,-2,-21,1.13,7868,27,88,32,42,1013,587.0,556,413,60,118.0,112,1,332,212,64,0,0,589,-12040,-8188,565,45.701206,4.91058,56.21,195.1,8,1.6267,0,0.0,0.1783,9,0.15,14.0574
843463,1560693371566,6,2.18,2.5,3.05,1.85,5.07,1.02,0.49,0.68,-15,-3,-21,1.14,7848,27,88,32,42,1016,586.0,546,425,60,117.0,112,1,332,212,64,0,0,585,-12040,-16384,563,,,,,,,,,,,,
843483,1560693371586,11,2.17,2.49,3.06,1.85,5.04,1.05,0.58,0.73,-15,-3,-22,1.2,7855,27,88,32,42,1018,583.0,549,443,60,117.0,112,1,332,214,64,0,0,583,15649,1760,560,,,,,,,,,,,,
843503,1560693371606,10,2.17,2.48,3.05,1.83,5.06,0.99,0.67,0.65,-14,-3,-22,1.2,7825,27,88,32,42,1020,582.0,550,440,60,118.0,112,1,332,214,63,0,0,579,10432,-23623,558,,,,,,,,,,,,
843523,1560693371626,13,2.17,2.46,3.05,1.81,5.06,0.99,0.63,0.53,-14,-2,-22,1.17,7835,27,88,32,42,1021,581.0,545,440,60,118.0,112,1,332,214,63,0,0,580,10432,-8188,555,,,,,,,,,,,,
843543,1560693371646,8,2.18,2.46,3.05,1.82,5.06,1.03,0.6,0.64,-14,-1,-21,1.19,7725,27,88,32,42,1022,580.0,538,436,60,117.0,112,1,332,214,63,0,0,574,-3210,-23623,555,45.701218,4.910595,55.52,195.1,8,1.6267,0,0.0,0.18,9,0.15,14.059
843563,1560693371666,9,2.18,2.46,3.05,1.83,5.04,1.04,0.52,0.71,-14,-0,-21,1.16,7728,27,88,32,42,1021,573.0,536,433,60,117.0,112,1,332,214,63,0,0,577,1760,-29984,550,,,,,,,,,,,,
843583,1560693371686,8,2.18,2.44,3.06,1.82,5.06,1.05,0.62,0.71,-13,-1,-21,1.23,7681,27,88,32,43,1020,571.0,537,425,60,118.0,112,1,340,214,63,0,0,571,1267,-30159,549,,,,,,,,,,,,
843603,1560693371708,12,2.17,2.43,3.06,1.82,5.07,1.01,0.69,0.54,-14,-2,-21,1.22,7674,27,88,32,43,1019,571.0,534,418,60,117.0,112,1,340,216,62,0,0,571,1267,-32504,548,,,,,,,,,,,,
843623,1560693371728,13,2.18,2.41,3.06,1.82,5.07,1.0,0.7,0.4,-14,-2,-19,1.22,7643,27,88,32,43,1019,567.0,535,431,60,117.0,112,1,340,216,62,0,0,570,1780,2524,543,,,,,,,,,,,,
843643,1560693371748,12,2.19,2.42,3.08,1.83,5.05,0.98,0.74,0.29,-14,-1,-17,1.22,7569,27,88,32,43,1020,562.0,539,430,60,118.0,112,1,340,216,62,0,0,566,2211,-9072,543,45.701225,4.910609,54.95,195.1,8,1.6267,0,0.0,0.1817,9,0.15,14.0607
843663,1560693371768,14,2.18,2.41,3.09,1.82,5.08,0.95,0.7,0.23,-14,-1,-17,1.18,7557,27,88,32,43,1021,561.0,528,419,60,117.0,112,1,340,217,62,0,0,562,6273,-9072,539,,,,,,,,,,,,
843683,1560693371788,17,2.18,2.41,3.09,1.82,5.04,0.87,0.7,0.19,-14,-1,-18,1.11,7476,27,88,32,43,1022,557.0,535,408,60,118.0,112,1,340,215,62,0,0,558,2216,2524,535,,,,,,,,,,,,
843703,1560693371808,19,2.18,2.39,3.15,1.81,5.07,0.87,0.73,0.07,-14,-3,-17,1.13,7485,27,88,32,44,1023,554.0,523,424,60,118.0,114,1,347,217,61,0,0,555,2524,-8186,531,,,,,,,,,,,,
843723,1560693371828,17,2.18,2.38,3.17,1.81,5.07,0.88,0.74,-0.02,-14,-1,-18,1.15,7419,27,88,32,44,1024,547.0,526,432,60,118.0,114,1,347,217,61,0,0,549,2524,-2934,528,,,,,,,,,,,,
843743,1560693371848,16,2.19,2.37,3.17,1.81,5.07,0.89,0.77,-0.09,-15,-3,-18,1.18,7364,27,88,32,44,1024,544.0,521,415,60,117.0,114,1,347,217,61,0,0,548,-506,-30064,524,45.701237,4.910623,54.4,195.1,8,1.6267,0,0.0,0.1833,9,0.16,14.0624
843763,1560693371868,18,2.18,2.36,3.19,1.81,5.03,0.94,0.79,-0.1,-15,-3,-19,1.23,7239,27,88,32,45,1025,542.0,516,428,60,117.0,114,1,355,219,61,0,0,542,-3082,6274,520,,,,,,,,,,,,
843783,1560693371888,22,2.19,2.37,3.18,1.82,5.04,1.04,0.73,-0.03,-15,-4,-20,1.27,7219,27,88,32,45,1026,537.0,512,446,60,117.0,114,1,355,219,61,0,0,537,-30064,2088,513,,,,,,,,,,,,
843803,1560693371908,20,2.19,2.35,3.21,1.81,5.03,1.04,0.62,0.03,-13,-4,-20,1.21,7164,27,88,32,46,1027,531.0,506,434,60,118.0,115,1,362,219,59,0,0,531,-22519,-28648,510,,,,,,,,,,,,
843823,1560693371928,19,2.19,2.35,3.22,1.81,5.08,1.04,0.64,-0.05,-13,-2,-19,1.22,7094,27,88,32,46,1029,528.0,506,412,60,117.0,115,1,362,221,59,0,0,528,-28648,-14,506,,,,,,,,,,,,
843843,1560693371948,21,2.18,2.36,3.22,1.81,5.05,1.07,0.69,-0.07,-14,-4,-18,1.27,7062,27,88,32,47,1033,523.0,501,440,60,117.0,115,1,370,223,59,0,0,525,-22519,17136,504,45.701244,4.910636,53.42,195.2,8,1.6267,0,0.0,0.185,9,0.16,14.064
843863,1560693371968,22,2.18,2.34,3.23,1.79,5.05,1.14,0.62,0.05,-13,-3,-17,1.3,7001,27,88,32,47,1037,520.0,496,449,60,118.0,115,1,370,223,59,0,0,516,1248,2109,499,,,,,,,,,,,,
843883,1560693371988,20,2.18,2.33,3.22,1.78,5.05,1.14,0.63,-0.02,-13,-2,-17,1.3,6906,27,88,32,47,1041,517.0,503,436,60,118.0,115,1,369,222,59,0,0,516,15679,-4054,494,,,,,,,,,,,,
843903,1560693372002,23,2.19,2.32,3.23,1.78,5.08,1.14,0.62,0.06,-13,-2,-16,1.3,6878,27,88,32,48,1044,510.0,495,442,60,117.0,116,1,371,227,58,0,0,509,-4054,10408,491,,,,,,,,,,,,
843923,1560693372022,21,2.19,2.33,3.24,1.78,5.05,1.17,0.54,0.12,-13,-1,-16,1.29,6838,27,88,32,48,1053,504.0,491,433,60,118.0,116,1,371,232,58,0,0,504,-32248,11560,482,,,,,,,,,,,,
843943,1560693372042,24,2.18,2.31,3.25,1.78,5.04,1.16,0.5,0.18,-12,-1,-16,1.26,6722,26,88,32,49,1063,500.0,493,443,60,117.0,116,1,373,231,58,0,0,501,10408,-6656,480,45.701256,4.910646,50.78,195.2,8,1.6267,0,0.0,0.1867,9,0.16,14.0657
843963,1560693372062,18,2.19,2.31,3.26,1.77,5.05,1.14,0.56,0.14,-12,0,-16,1.27,6656,26,88,32,49,1071,497.0,489,452,60,118.0,116,1,372,231,58,0,0,491,-9216,-1818,479,,,,,,,,,,,,
843983,1560693372082,21,2.19,2.3,3.25,1.77,5.07,1.19,0.51,0.22,-12,-1,-17,1.3,6611,26,88,32,50,1079,495.0,472,452,60,117.0,116,1,375,236,58,0,0,488,-6528,-1562,474,,,,,,,,,,,,
844003,1560693372104,24,2.19,2.31,3.24,1.77,5.08,1.19,0.56,0.14,-12,-3,-17,1.31,6551,26,88,32,51,1089,488.0,473,438,60,117.0,127,1,377,241,60,0,0,488,1,-23367,468,,,,,,,,,,,,
844023,1560693372124,19,2.18,2.31,3.25,1.77,5.05,1.13,0.54,0.07,-12,-3,-16,1.25,6478,26,88,32,52,1100,480.0,466,432,60,118.0,127,1,379,241,60,0,0,481,8488,-16384,454,,,,,,,,,,,,
844043,1560693372144,22,2.18,2.3,3.3,1.76,5.04,1.2,0.49,0.1,-12,-2,-18,1.3,6416,26,88,32,52,1110,475.0,462,442,60,118.0,127,1,379,247,60,0,0,472,-17956,32033,452,45.701263,4.910658,49.63,195.2,8,1.6267,0,0.0,0.1883,9,0.16,14.0674
844063,1560693372164,24,2.18,2.3,3.31,1.75,5.08,1.28,0.52,0.12,-12,-2,-19,1.38,6351,26,88,32,53,1114,474.0,459,409,60,118.0,127,1,382,252,60,0,0,467,-9203,-18108,452,,,,,,,,,,,,
844083,1560693372184,25,2.17,2.3,3.3,1.74,5.05,1.26,0.56,0.05,-12,-3,-18,1.38,6294,26,88,32,53,1119,470.0,451,407,60,119.0,127,1,381,258,60,0,0,464,8488,-6387,449,,,,,,,,,,,,
844103,1560693372210,21,2.18,2.29,3.31,1.73,5.08,1.2,0.61,-0.02,-12,-2,-16,1.35,6225,26,88,32,54,1124,465.0,441,436,60,118.0,134,1,385,258,60,0,0,464,30272,3571,445,,,,,,,,,,,,
844123,1560693372230,21,2.18,2.3,3.32,1.72,5.05,1.15,0.55,-0.06,-11,-1,-15,1.28,6188,26,88,32,54,1129,462.0,435,451,60,118.0,134,1,385,258,60,0,0,459,12552,10305,436,,,,,,,,,,,,
844143,1560693372250,19,2.19,2.3,3.33,1.7,5.06,1.13,0.43,-0.03,-11,-0,-15,1.21,6113,26,88,32,55,1132,460.0,435,449,60,118.0,134,1,384,258,60,0,0,456,-23623,15649,432,45.701275,4.910667,47.71,195.3,8,1.6267,0,0.0,0.19,9,0.16,14.069
844163,1560693372270,21,2.17,2.29,3.32,1.71,5.07,1.17,0.33,-0.0,-11,-1,-15,1.21,6048,26,88,32,56,1138,454.0,428,452,60,117.0,134,1,384,256,60,0,0,448,2524,21432,428,,,,,,,,,,,,
844183,1560693372290,22,2.18,2.29,3.31,1.7,5.07,1.22,0.26,0.02,-12,0,-15,1.24,5998,26,88,32,56,1148,448.0,422,437,60,117.0,134,1,384,255,60,0,0,445,8488,-18341,424,,,,,,,,,,,,
844203,1560693372309,21,2.17,2.29,3.3,1.7,5.05,1.24,0.22,0.07,-13,-0,-14,1.25,5944,26,88,32,57,1158,444.0,418,408,60,118.0,136,1,378,254,58,0,0,441,21432,13552,424,,,,,,,,,,,,
844223,1560693372329,20,2.18,2.29,3.3,1.7,5.04,1.28,0.19,0.13,-14,0,-13,1.29,5927,26,88,32,57,1167,440.0,419,409,60,118.0,136,1,376,254,58,0,0,436,-28332,1779,418,,,,,,,,,,,,
844243,1560693372349,24,2.18,2.29,3.3,1.7,5.05,1.32,0.17,0.13,-14,0,-13,1.33,5821,26,88,32,58,1176,435.0,415,443,60,118.0,136,1,367,254,58,0,0,431,-7939,31796,415,45.701282,4.910677,45.59,195.2,8,1.6267,0,0.0,0.1917,9,0.16,14.0707
844263,1560693372369,23,2.19,2.28,3.3,1.7,5.04,1.25,0.19,0.06,-13,0,-13,1.27,5730,26,88,32,58,1185,432.0,415,406,60,118.0,136,1,359,253,58,0,0,426,-3322,-8165,409,,,,,,,,,,,,
844283,1560693372389,22,2.18,2.28,3.28,1.7,5.04,1.21,0.25,0.1,-10,0,-13,1.24,5664,26,88,32,59,1192,423.0,407,426,60,117.0,136,1,353,253,58,0,0,426,3826,-3414,406,,,,,,,,,,,,
844303,1560693372409,20,2.19,2.26,3.3,1.71,5.08,1.27,0.31,0.09,-10,-1,-13,1.3,5613,26,88,32,61,1192,419.0,405,421,60,117.0,133,1,348,256,54,0,0,418,7154,2524,402,,,,,,,,,,,,
844323,1560693372429,24,2.19,2.26,3.3,1.71,5.07,1.34,0.27,0.05,-12,-0,-14,1.37,5603,26,88,32,62,1194,414.0,401,429,60,117.0,133,1,345,264,54,0,0,413,2524,-26615,398,,,,,,,,,,,,
844343,1560693372449,21,2.19,2.25,3.3,1.71,5.05,1.19,0.19,0.03,-11,0,-14,1.2,5535,26,88,32,62,1194,409.0,400,431,60,118.0,133,1,339,265,54,0,0,408,11560,10541,393,45.701294,4.910684,43.14,195.4,8,1.6267,0,0.0,0.1933,9,0.16,14.0724
844363,1560693372469,20,2.2,2.24,3.32,1.71,5.08,1.2,0.26,0.06,-9,-2,-14,1.23,5488,26,88,32,64,1193,405.0,393,425,60,118.0,133,1,330,281,54,0,0,400,-9211,-3968,390,,,,,,,,,,,,
844383,1560693372489,21,2.2,2.24,3.32,1.73,5.04,1.28,0.24,0.05,-11,-0,-15,1.3,5262,26,88,32,65,1192,401.0,387,446,60,118.0,133,1,310,292,54,0,0,396,28696,-3968,386,,,,,,,,,,,,
844403,1560693372509,20,2.2,2.22,3.34,1.72,5.08,1.35,0.3,0.06,-10,-5,-15,1.39,4989,26,88,32,66,1191,395.0,379,422,60,119.0,148,1,288,301,57,0,0,389,1,19125,380,,,,,,,,,,,,
844423,1560693372529,19,2.22,2.22,3.35,1.71,5.06,1.18,0.27,-0.0,-8,-3,-16,1.21,4877,26,88,32,67,1186,389.0,359,436,60,119.0,148,1,288,307,57,0,0,385,240,0,377,,,,,,,,,,,,
844443,1560693372549,18,2.22,2.19,3.37,1.71,5.06,1.15,0.21,-0.0,-9,-1,-16,1.17,4746,26,88,32,69,1181,384.0,348,442,60,119.0,148,1,288,311,57,0,0,377,-19126,-14707,373,45.701302,4.91069,41.08,195.4,8,1.6267,0,0.0,0.195,9,0.16,14.074
844463,1560693372569,18,2.23,2.16,3.42,1.71,5.04,1.19,0.18,-0.01,-9,0,-16,1.2,4639,26,88,32,69,1176,378.0,340,437,60,118.0,148,1,290,313,57,0,0,367,2278,-6458,369,,,,,,,,,,,,
844483,1560693372589,19,2.23,2.15,3.42,1.71,5.06,1.15,0.09,0.02,-9,2,-17,1.15,4505,26,88,32,70,1172,375.0,331,408,60,117.0,148,1,291,524,57,0,0,361,770,2060,364,,,,,,,,,,,,
844503,1560693372609,17,2.24,2.11,3.45,1.69,5.08,1.2,0.07,-0.04,-8,5,-17,1.21,4479,26,88,32,71,1160,365.0,324,438,60,118.0,238,1,292,482,86,0,0,339,-6405,-32559,359,,,,,,,,,,,,
844523,1560693372629,17,2.24,2.07,3.52,1.66,5.05,1.27,0.03,0.05,-8,1,-17,1.27,4617,26,88,32,71,1148,360.0,318,450,60,119.0,238,1,290,441,86,0,0,260,-14707,24064,352,,,,,,,,,,,,
844543,1560693372649,15,2.26,2.05,3.55,1.67,5.07,1.31,0.11,-0.03,-8,4,-16,1.31,4882,26,88,32,71,1141,358.0,337,447,60,117.0,238,1,286,402,86,0,0,235,-29978,-16896,348,45.701309,4.910696,38.76,195.5,8,1.6267,0,0.0,0.1967,9,0.17,14.0757
844563,1560693372669,14,2.26,2.05,3.54,1.7,5.07,1.16,0.06,-0.02,-7,4,-16,1.16,5237,26,88,32,71,1133,355.0,352,417,60,118.0,238,1,300,360,86,0,0,220,3183,21760,343,,,,,,,,,,,,
844583,1560693372689,13,2.28,2.07,3.49,1.72,5.05,1.24,0.06,-0.04,-7,2,-15,1.24,5341,25,88,33,71,1186,346.0,363,420,60,118.0,238,1,307,340,86,0,0,228,-30438,170,336,,,,,,,,,,,,
844603,1560693372709,12,2.28,2.08,3.45,1.72,5.04,1.18,0.02,-0.06,-8,6,-14,1.18,5529,25,88,33,70,1240,342.0,379,406,60,119.0,205,1,322,333,69,0,0,254,3327,-6528,334,,,,,,,,,,,,
844623,1560693372729,7,2.31,2.08,3.4,1.7,5.05,1.09,0.02,0.02,-5,7,-13,1.09,5692,25,88,33,69,1300,337.0,398,421,60,117.0,205,1,334,323,69,0,0,326,2560,165,329,,,,,,,,,,,,
844643,1560693372749,8,2.32,2.08,3.37,1.72,5.04,1.02,0.02,0.11,-4,6,-13,1.02,5920,25,88,33,67,1361,333.0,408,418,60,118.0,205,1,356,308,69,0,0,327,-6528,-24576,329,45.701321,4.910702,36.01,195.6,8,1.6267,0,0.0,0.1983,9,0.17,14.0774
844663,1560693372769,8,2.34,2.07,3.38,1.74,5.04,0.93,0.09,0.06,-2,6,-12,0.93,6194,25,88,33,65,1422,330.0,426,417,60,117.0,205,1,375,286,69,0,0,323,175,155,327,,,,,,,,,,,,
844683,1560693372789,3,2.37,2.06,3.36,1.81,5.05,0.95,0.11,0.01,-1,7,-10,0.96,6394,25,88,33,63,1483,328.0,441,423,60,118.0,205,1,390,279,69,0,0,321,-23296,-25856,328,,,,,,,,,,,,
844703,1560693372809,3,2.42,2.04,3.37,1.87,5.07,1.0,-0.03,0.1,0,4,-9,1.0,6499,25,88,33,62,1498,329.0,454,430,60,118.0,211,1,398,278,69,0,0,315,150,160,329,,,,,,,,,,,,
844723,1560693372829,0,2.44,2.01,3.4,1.92,5.05,0.91,-0.04,0.08,3,4,-6,0.91,6679,25,88,33,60,1498,330.0,467,440,60,118.0,211,1,406,277,69,0,0,313,140,165,328,,,,,,,,,,,,
844743,1560693372849,4,2.48,1.98,3.44,1.97,5.05,0.99,-0.12,0.17,4,6,-4,1.0,6754,25,88,33,59,1448,330.0,475,450,60,118.0,211,1,405,273,69,0,0,306,135,170,330,45.701324,4.910706,33.4,195.6,8,1.6267,0,0.0,0.2,9,0.17,14.0791
844763,1560693372869,1,2.51,1.99,3.46,2.06,5.06,0.94,-0.17,0.13,6,6,-1,0.95,6875,25,88,33,57,1381,331.0,482,452,60,118.0,211,1,401,276,69,0,0,307,120,-12032,330,,,,,,,,,,,,
844783,1560693372889,5,2.57,2.01,3.47,2.16,5.07,0.95,-0.34,0.27,7,5,1,1.01,6880,25,88,33,56,1313,332.0,481,450,60,116.0,211,1,397,267,69,0,0,318,115,-12032,332,,,,,,,,,,,,
844803,1560693372909,2,2.63,2.08,3.45,2.31,5.04,0.9,-0.38,0.3,9,7,3,0.98,6639,25,88,33,55,1245,337.0,469,450,60,118.0,203,1,390,261,68,0,0,354,120,6870,337,,,,,,,,,,,,
844823,1560693372929,1,2.69,2.1,3.44,2.39,5.04,0.96,-0.47,0.33,11,5,6,1.07,6392,25,88,33,55,1187,341.0,456,447,60,117.0,203,1,387,259,68,0,0,372,120,2811,341,,,,,,,,,,,,
844843,1560693372949,0,2.77,2.13,3.46,2.43,5.05,0.99,-0.55,0.38,12,4,10,1.13,6239,20,88,33,54,1133,344.0,440,451,60,116.0,203,1,385,258,68,0,0,340,-32256,-30438,344,45.701332,4.910711,31.74,195.6,8,1.6267,0,0.0,0.2017,9,0.17,14.0807
844863,1560693372969,2,2.82,2.14,3.46,2.45,5.07,1.0,-0.56,0.5,13,2,13,1.15,6093,18,88,33,53,1111,342.0,436,454,60,117.0,203,1,380,252,68,0,0,325,28160,-122,342,,,,,,,,,,,,
844883,1560693372989,2,2.87,2.11,3.5,2.43,5.04,1.03,-0.55,0.55,14,-1,16,1.17,6023,18,88,33,51,1123,341.0,434,454,60,116.0,203,1,373,240,68,0,0,320,28160,-10554,341,,,,,,,,,,,,
844903,1560693373001,1,2.89,2.07,3.57,2.42,5.06,0.96,-0.56,0.65,16,-2,18,1.11,5984,17,88,33,50,1130,339.0,428,454,60,117.0,161,1,368,234,55,0,0,322,110,3327,339,,,,,,,,,,,,
844923,1560693373021,2,2.89,1.98,3.63,2.41,5.07,0.94,-0.62,0.73,19,-5,20,1.12,5988,17,88,33,49,1135,339.0,425,459,60,116.0,161,1,365,229,55,0,0,314,100,-14714,340,,,,,,,,,,,,
844943,1560693373041,0,2.88,1.95,3.67,2.4,5.07,0.88,-0.68,0.74,22,-5,23,1.11,6001,17,88,33,49,1133,340.0,425,460,60,117.0,161,1,366,229,55,0,0,301,100,-14714,340,45.70134,4.910716,31.28,195.7,8,1.6267,0,0.0,0.2033,9,0.17,14.0824
844963,1560693373061,2,2.86,1.91,3.69,2.4,5.08,0.87,-0.77,0.81,24,-6,27,1.16,5963,17,88,32,48,1124,345.0,434,456,60,117.0,161,1,360,223,55,0,0,296,95,6668,345,,,,,,,,,,,,
844983,1560693373081,1,2.86,1.9,3.69,2.39,5.06,0.94,-0.86,0.87,26,-8,30,1.28,5956,17,88,32,48,1106,346.0,425,454,60,117.0,161,1,360,223,55,0,0,296,23040,-10554,348,,,,,,,,,,,,
845003,1560693373109,3,2.86,1.89,3.69,2.4,5.03,1.05,-0.97,0.88,27,-11,32,1.43,5956,17,88,32,47,1077,349.0,426,452,60,116.0,140,1,356,218,49,0,0,297,85,8841,349,,,,,,,,,,,,
845023,1560693373129,-0,2.85,1.89,3.68,2.4,5.07,1.15,-1.07,0.85,29,-13,34,1.57,5946,17,88,32,47,1052,349.0,425,460,60,118.0,140,1,357,218,49,0,0,288,0,6870,349,,,,,,,,,,,,
845043,1560693373149,-1,2.84,1.88,3.68,2.43,5.06,1.24,-1.14,0.77,29,-12,37,1.68,5916,17,88,32,47,1032,348.0,425,455,60,118.0,140,1,355,218,49,0,0,289,20480,-10554,348,45.701344,4.910722,31.73,195.8,8,1.6267,0,0.0,0.205,9,0.17,14.0841
845063,1560693373169,2,2.82,1.87,3.68,2.43,5.07,1.32,-1.19,0.68,29,-12,41,1.78,5853,17,88,32,47,1006,348.0,423,455,60,117.0,140,1,351,218,49,0,0,289,41,3327,348,,,,,,,,,,,,
845083,1560693373189,3,2.79,1.87,3.68,2.42,5.05,1.3,-1.17,0.6,29,-11,43,1.75,5762,17,88,32,47,972,346.0,416,442,60,119.0,140,1,346,218,49,0,0,284,-16896,-31206,346,,,,,,,,,,,,
845103,1560693373209,3,2.73,1.87,3.69,2.42,5.07,1.13,-1.24,0.52,32,-8,44,1.68,5732,17,88,32,47,941,345.0,411,442,60,118.0,135,1,345,218,47,0,0,275,-1529,3346,346,,,,,,,,,,,,
845123,1560693373229,2,2.63,1.87,3.68,2.42,5.04,1.08,-1.2,0.49,36,-10,46,1.61,5613,17,88,32,48,926,345.0,408,436,60,118.0,135,1,339,222,47,0,0,269,-1529,-122,345,,,,,,,,,,,,
845143,1560693373249,5,2.54,1.9,3.66,2.41,5.04,1.18,-1.19,0.52,34,-12,49,1.67,5527,17,88,32,49,907,343.0,401,451,60,117.0,135,1,335,226,47,0,0,265,-1529,2560,343,45.701351,4.910728,31.02,195.9,8,1.6267,0,0.0,0.2067,9,0.17,14.0857
845163,1560693373269,0,2.43,2.0,3.53,2.38,5.05,0.99,-1.14,0.45,32,-6,50,1.51,5412,17,88,32,50,878,341.0,393,453,60,118.0,135,1,329,230,47,0,0,269,24064,13,338,,,,,,,,,,,,
845183,1560693373289,2,2.35,2.12,3.42,2.35,5.06,1.09,-0.96,0.43,31,-8,50,1.46,5271,17,88,32,51,852,333.0,385,452,60,117.0,135,1,320,232,47,0,0,282,250,170,333,,,,,,,,,,,,
845203,1560693373310,5,2.24,2.21,3.31,2.28,5.06,0.95,-0.94,0.38,27,-6,47,1.34,5246,17,88,32,52,838,325.0,325,447,60,118.0,140,1,318,235,46,0,0,285,0,-24576,321,,,,,,,,,,,,
845223,1560693373330,7,2.17,2.26,3.23,2.17,5.05,1.06,-0.74,0.33,25,-9,44,1.29,5208,17,88,32,53,824,312.0,272,430,60,116.0,140,1,316,238,46,0,0,292,21760,-30976,312,,,,,,,,,,,,
845243,1560693373350,3,2.09,2.28,3.18,2.06,5.05,0.88,-0.63,0.24,20,-4,39,1.08,5188,17,88,32,54,810,304.0,253,431,60,118.0,140,1,314,241,46,0,0,297,95,110,304,45.701359,4.910735,30.82,196.0,8,1.6267,0,0.0,0.2083,9,0.17,14.0874
845263,1560693373370,6,2.02,2.29,3.13,1.9,5.05,0.99,-0.44,0.27,16,-9,35,1.09,5189,17,88,32,55,796,301.0,246,440,60,117.0,140,1,314,245,46,0,0,298,26880,25600,295,,,,,,,,,,,,
845283,1560693373390,4,1.95,2.31,3.08,1.78,5.07,0.86,-0.31,0.28,12,-6,30,0.91,5180,17,88,32,55,794,304.0,252,426,60,118.0,140,1,313,244,46,0,0,299,110,10686,288,,,,,,,,,,,,
845303,1560693373408,6,1.89,2.34,3.08,1.72,5.06,0.97,-0.16,0.3,7,-7,25,0.99,5168,17,88,32,56,794,304.0,255,417,60,117.0,166,1,312,247,48,0,0,307,110,630,282,,,,,,,,,,,,
845323,1560693373428,4,1.86,2.37,3.07,1.71,5.05,0.88,-0.05,0.24,6,-5,19,0.88,5215,17,88,32,57,799,306.0,276,393,60,118.0,166,1,316,251,48,0,0,303,115,250,277,,,,,,,,,,,,
845343,1560693373448,8,1.8,2.39,3.09,1.69,5.07,0.99,-0.02,0.25,0,-7,13,0.99,5299,17,88,32,57,805,305.0,295,383,60,117.0,166,1,325,254,48,0,0,298,29440,-1,271,45.701359,4.910744,30.32,196.0,8,1.6267,0,0.0,0.21,9,0.17,14.0891
845363,1560693373468,6,1.77,2.4,3.12,1.68,5.04,0.84,0.06,0.21,-2,-4,8,0.84,5386,17,88,32,57,811,304.0,311,381,60,119.0,166,1,330,251,48,0,0,300,110,-1,266,,,,,,,,,,,,
845383,1560693373488,3,1.75,2.42,3.14,1.68,5.05,0.96,0.15,0.23,-4,-8,3,0.97,5452,17,88,32,58,818,304.0,333,378,60,117.0,166,1,335,253,48,0,0,300,110,16896,263,,,,,,,,,,,,
845403,1560693373508,6,1.74,2.43,3.13,1.69,5.04,0.98,0.21,0.16,-9,-5,-1,1.0,5471,17,88,32,58,825,306.0,351,376,60,119.0,200,1,337,253,52,0,0,301,115,250,259,,,,,,,,,,,,
845423,1560693373528,2,1.73,2.44,3.1,1.69,5.04,0.9,0.32,0.23,-12,-4,-6,0.95,5537,17,88,32,57,833,302.0,366,364,60,119.0,200,1,343,252,52,0,0,303,105,-1445,259,,,,,,,,,,,,
845443,1560693373548,2,1.73,2.44,3.05,1.68,5.07,0.93,0.48,0.2,-14,-3,-11,1.05,5595,17,88,32,57,832,307.0,376,383,60,117.0,200,1,348,252,52,0,0,300,30720,-1494,255,45.701366,4.910752,28.69,196.1,8,1.6267,0,0.0,0.2117,9,0.17,14.0907
845463,1560693373568,0,1.75,2.44,3.0,1.67,5.08,1.04,0.46,0.23,-18,-5,-15,1.14,5666,18,88,32,57,833,304.0,385,380,60,118.0,200,1,354,252,52,0,0,301,110,15360,255,,,,,,,,,,,,
845483,1560693373588,5,1.76,2.45,2.96,1.68,5.04,1.08,0.5,0.22,-22,-4,-19,1.19,5739,18,88,32,56,833,306.0,392,371,60,119.0,200,1,361,252,52,0,0,299,115,250,254,,,,,,,,,,,,
845503,1560693373608,2,1.76,2.46,2.96,1.68,5.04,1.02,0.56,0.25,-24,-4,-23,1.17,5787,18,88,32,56,834,308.0,396,369,60,118.0,212,1,365,253,54,0,0,302,120,-1,253,,,,,,,,,,,,
845523,1560693373628,2,1.76,2.47,2.96,1.7,5.06,0.91,0.66,0.39,-24,-2,-28,1.12,5674,20,88,32,56,833,308.0,399,369,60,119.0,212,1,355,252,54,0,0,302,120,130,253,,,,,,,,,,,,
845543,1560693373648,1,1.76,2.49,2.95,1.74,5.04,0.91,0.78,0.35,-24,-4,-31,1.2,5577,20,88,32,56,832,309.0,397,382,60,117.0,212,1,347,251,54,0,0,303,120,-32559,254,45.70137,4.910759,27.34,196.1,8,1.6267,0,0.0,0.2133,9,0.17,14.0924
845563,1560693373668,4,1.75,2.49,2.95,1.77,5.05,0.98,0.69,0.32,-28,-5,-34,1.2,5558,21,88,32,58,837,308.0,391,376,60,118.0,212,1,344,252,54,0,0,300,120,29440,254,,,,,,,,,,,,
845583,1560693373688,2,1.75,2.49,2.95,1.77,5.04,0.9,0.68,0.35,-30,-3,-36,1.13,5557,23,88,32,58,841,307.0,392,371,60,119.0,212,1,344,253,54,0,0,302,30720,-1,255,,,,,,,,,,,,
845603,1560693373710,1,1.75,2.49,2.95,1.77,5.04,0.88,0.75,0.38,-29,-3,-37,1.16,5464,24,88,32,60,844,309.0,390,366,60,117.0,207,1,336,257,53,0,0,304,32000,24064,255,,,,,,,,,,,,
845623,1560693373730,3,1.76,2.49,2.95,1.78,5.04,0.9,0.69,0.33,-32,-4,-39,1.13,5403,26,88,32,62,848,310.0,388,389,60,118.0,207,1,328,267,53,0,0,302,125,28160,257,,,,,,,,,,,,
845643,1560693373750,-1,1.77,2.49,2.96,1.78,5.04,0.84,0.77,0.38,-32,-3,-40,1.14,5378,28,88,32,64,854,308.0,383,381,60,119.0,207,1,321,283,53,0,0,301,32000,25600,256,45.701378,4.910765,26.22,196.2,8,1.6267,0,0.0,0.215,9,0.18,14.0941
845663,1560693373770,5,1.78,2.48,2.97,1.74,5.05,0.94,0.77,0.37,-34,-4,-42,1.22,5364,29,88,32,66,862,309.0,378,393,60,118.0,207,1,315,298,53,0,0,302,32000,-1,256,,,,,,,,,,,,
845683,1560693373790,1,1.81,2.48,2.97,1.76,5.05,0.79,0.72,0.41,-35,-2,-43,1.07,5380,31,88,32,68,866,310.0,378,375,60,119.0,207,1,312,306,53,0,0,306,125,506,256,,,,,,,,,,,,
845703,1560693373810,-0,1.83,2.48,2.97,1.76,5.04,0.83,0.82,0.42,-34,-2,-44,1.17,5320,31,88,32,69,867,313.0,379,361,60,117.0,250,1,307,331,64,0,0,307,130,-1,257,,,,,,,,,,,,
845723,1560693373830,1,1.87,2.48,2.97,1.77,5.08,0.81,0.75,0.44,-36,-2,-44,1.1,5307,32,88,32,71,872,311.0,374,369,60,118.0,250,1,305,339,64,0,0,303,-32256,-1,258,,,,,,,,,,,,
845743,1560693373850,1,1.88,2.48,2.98,1.77,5.05,0.84,0.85,0.46,-34,-2,-44,1.19,5252,32,88,32,72,876,310.0,371,372,60,117.0,250,1,300,353,64,0,0,306,125,-1,260,45.701378,4.910769,26.44,196.2,8,1.6267,0,0.0,0.2167,9,0.18,14.0957
845763,1560693373870,-1,1.92,2.46,2.98,1.78,5.07,0.82,0.75,0.47,-35,-0,-44,1.11,5186,32,88,32,74,879,308.0,368,374,60,119.0,250,1,294,350,64,0,0,302,120,-1,260,,,,,,,,,,,,
845783,1560693373890,-0,1.93,2.46,3.0,1.85,5.04,0.85,0.81,0.44,-33,-2,-44,1.18,5249,33,88,32,75,880,307.0,369,371,60,117.0,250,1,298,369,64,0,0,304,30720,-1,262,,,,,,,,,,,,
845803,1560693373910,2,1.95,2.46,3.03,1.87,5.04,0.78,0.61,0.49,-35,-1,-44,0.99,5271,33,88,32,75,892,306.0,368,392,60,119.0,278,1,300,370,73,0,0,302,110,-1,263,,,,,,,,,,,,
845823,1560693373930,-1,2.0,2.45,3.05,1.88,5.07,0.78,0.7,0.47,-31,-1,-43,1.05,5313,34,88,32,76,915,305.0,368,397,60,118.0,278,1,301,381,73,0,0,301,29440,-1,264,,,,,,,,,,,,
845843,1560693373950,2,2.03,2.45,3.06,1.93,5.05,0.8,0.61,0.49,-33,0,-41,1.0,5349,34,88,32,77,937,304.0,368,413,60,118.0,278,1,304,383,73,0,0,301,110,-1,266,45.701386,4.910774,26.68,196.2,8,1.6267,0,0.0,0.2183,9,0.18,14.0974
845863,1560693373970,-1,2.08,2.45,3.06,1.98,5.04,0.67,0.59,0.56,-30,1,-41,0.89,5420,34,88,32,76,958,302.0,369,388,60,118.0,278,1,309,389,73,0,0,298,28160,-1527,266,,,,,,,,,,,,
845883,1560693373990,2,2.11,2.44,3.07,2.02,5.04,0.78,0.59,0.59,-29,-2,-38,0.97,5464,35,88,32,76,990,300.0,372,420,60,117.0,278,1,312,394,73,0,0,298,100,2414,270,,,,,,,,,,,,
845903,1560693374004,4,2.15,2.42,3.07,2.06,5.07,0.71,0.48,0.57,-28,1,-37,0.86,5514,35,88,32,76,1035,299.0,373,427,60,119.0,300,1,315,397,81,0,0,299,25600,250,272,,,,,,,,,,,,
845923,1560693374024,0,2.19,2.41,3.07,2.09,5.08,0.62,0.43,0.7,-24,2,-36,0.75,5552,35,88,32,75,1073,297.0,374,414,60,118.0,300,1,318,400,81,0,0,297,95,-16896,276,,,,,,,,,,,,
845943,1560693374044,-1,2.23,2.4,3.08,2.13,5.08,0.74,0.42,0.73,-21,-0,-33,0.86,5587,35,88,32,76,1097,296.0,375,435,60,117.0,300,1,320,402,81,0,0,299,90,20480,283,45.701393,4.910777,26.76,196.3,8,1.6267,0,0.0,0.22,9,0.18,14.099
845963,1560693374064,4,2.26,2.39,3.09,2.17,5.05,0.79,0.32,0.68,-22,-1,-30,0.86,5555,36,88,32,76,1121,296.0,378,452,60,118.0,300,1,318,388,81,0,0,299,90,90,286,,,,,,,,,,,,
845983,1560693374092,1,2.29,2.37,3.11,2.2,5.05,0.62,0.18,0.71,-20,-1,-29,0.64,5585,36,88,32,75,1144,295.0,378,450,60,118.0,300,1,321,390,81,0,0,299,23040,21760,289,,,,,,,,,,,,
846003,1560693374112,-1,2.33,2.37,3.17,2.24,5.06,0.63,0.17,0.82,-15,-0,-27,0.65,5613,37,88,32,75,1161,295.0,378,441,60,116.0,287,1,323,393,83,0,0,299,90,115,293,,,,,,,,,,,,
846023,1560693374132,-1,2.34,2.36,3.2,2.25,5.08,0.69,0.17,0.79,-13,-2,-25,0.71,5671,37,88,32,75,1160,297.0,383,446,60,117.0,287,1,326,409,83,0,0,300,24320,120,300,,,,,,,,,,,,
846043,1560693374152,0,2.38,2.35,3.26,2.28,5.08,0.75,0.09,0.75,-14,-1,-22,0.75,5744,37,88,32,75,1158,302.0,387,448,60,117.0,287,1,332,401,83,0,0,302,24320,32000,302,45.701401,4.91078,27.27,196.3,8,1.6267,0,0.0,0.2217,9,0.18,14.1007
846063,1560693374172,4,2.38,2.36,3.28,2.29,5.06,0.7,0.03,0.71,-13,-1,-19,0.7,5812,38,88,32,74,1149,305.0,393,456,60,118.0,287,1,338,392,83,0,0,305,25600,-32256,305,,,,,,,,,,,,
846083,1560693374192,4,2.4,2.37,3.27,2.32,5.07,0.62,-0.03,0.7,-11,-0,-16,0.62,5920,38,88,32,74,1138,309.0,394,458,60,118.0,287,1,345,398,83,0,0,308,25600,-29696,309,,,,,,,,,,,,
846103,1560693374210,4,2.42,2.37,3.29,2.34,5.05,0.53,-0.05,0.65,-9,1,-13,0.53,5996,39,88,32,73,1127,312.0,401,452,60,118.0,288,1,351,387,89,0,0,317,100,-28416,312,,,,,,,,,,,,
846123,1560693374230,3,2.41,2.37,3.31,2.35,5.08,0.44,-0.07,0.6,-6,2,-10,0.44,6034,39,89,32,73,1115,315.0,406,454,60,118.0,288,1,353,387,89,0,0,316,29440,160,317,,,,,,,,,,,,
846143,1560693374250,1,2.42,2.37,3.3,2.36,5.08,0.4,-0.11,0.57,-5,2,-7,0.41,6062,39,89,32,73,1093,321.0,407,449,60,118.0,288,1,354,387,89,0,0,320,115,160,321,45.701405,4.910782,29.11,196.3,8,1.6267,0,0.0,0.2233,9,0.18,14.1024
846163,1560693374270,-1,2.42,2.36,3.31,2.33,5.06,0.43,-0.13,0.58,-4,2,-5,0.45,6073,39,89,32,73,1070,322.0,411,457,60,118.0,288,1,354,387,89,0,0,326,120,-22016,324,,,,,,,,,,,,
846183,1560693374290,-2,2.41,2.36,3.29,2.33,5.04,0.43,-0.13,0.53,-3,3,-2,0.45,6091,40,89,32,73,1058,327.0,412,460,60,118.0,288,1,355,387,89,0,0,326,-30976,-12032,327,,,,,,,,,,,,
846203,1560693374310,-2,2.4,2.36,3.29,2.33,5.05,0.41,-0.1,0.5,-2,4,0,0.42,6129,40,89,32,73,1046,328.0,414,454,60,118.0,272,1,356,388,89,0,0,328,-30976,175,329,,,,,,,,,,,,
846223,1560693374330,1,2.39,2.36,3.29,2.33,5.03,0.41,-0.1,0.47,-1,4,1,0.42,6190,40,89,32,73,1036,331.0,418,452,60,117.0,272,1,358,389,89,0,0,328,145,3346,331,,,,,,,,,,,,
846243,1560693374350,2,2.36,2.37,3.28,2.33,5.04,0.48,-0.15,0.56,0,2,2,0.5,6250,40,89,32,73,1025,333.0,421,452,60,116.0,272,1,360,390,89,0,0,333,150,-122,332,45.701412,4.910785,29.8,196.3,8,1.6267,0,0.0,0.225,9,0.18,14.104
846263,1560693374370,2,2.35,2.38,3.26,2.32,5.04,0.47,-0.15,0.64,2,2,3,0.5,6308,40,89,32,73,1025,335.0,427,451,60,116.0,272,1,362,391,89,0,0,338,-24576,13,335,,,,,,,,,,,,
846283,1560693374390,-1,2.34,2.37,3.27,2.31,5.05,0.51,-0.15,0.62,2,3,3,0.53,6345,40,89,32,73,1024,337.0,430,455,60,118.0,272,1,363,391,89,0,0,344,-22016,-31222,337,,,,,,,,,,,,
846303,1560693374409,-0,2.31,2.38,3.25,2.31,5.08,0.47,-0.1,0.55,2,3,4,0.48,6390,40,89,32,73,1032,339.0,434,455,60,117.0,278,1,365,391,94,0,0,341,-12032,-14714,339,,,,,,,,,,,,
846323,1560693374429,2,2.29,2.4,3.23,2.31,5.08,0.5,-0.12,0.67,3,1,4,0.52,6447,40,89,32,73,1040,340.0,440,462,60,117.0,278,1,367,392,94,0,0,344,-6528,-30438,340,,,,,,,,,,,,
846343,1560693374449,3,2.27,2.41,3.19,2.3,5.06,0.53,-0.05,0.63,2,2,4,0.53,6456,40,89,32,73,1045,341.0,441,447,60,118.0,278,1,367,393,94,0,0,350,2560,6870,342,45.70142,4.910788,31.23,196.2,8,1.6267,0,0.0,0.2267,9,0.18,14.1057
846363,1560693374469,-1,2.25,2.41,3.16,2.29,5.04,0.59,-0.07,0.61,1,2,4,0.59,6510,41,89,32,73,1051,343.0,441,447,60,118.0,278,1,369,378,94,0,0,349,-122,-10554,343,,,,,,,,,,,,
846383,1560693374491,4,2.22,2.41,3.14,2.27,5.05,0.59,-0.04,0.71,1,-0,3,0.59,6530,41,89,32,73,1063,343.0,446,447,60,116.0,278,1,370,394,94,0,0,351,-31206,-30454,343,,,,,,,,,,,,
846403,1560693374511,-1,2.21,2.42,3.13,2.24,5.05,0.58,0.04,0.64,-0,1,3,0.58,6618,42,89,32,72,1073,347.0,447,450,60,118.0,285,1,374,395,98,0,0,354,8841,-30454,345,,,,,,,,,,,,
846423,1560693374531,2,2.2,2.44,3.11,2.21,5.06,0.57,0.07,0.77,-0,1,0,0.57,6708,43,89,32,73,1079,351.0,446,441,60,117.0,285,1,377,396,98,0,0,359,28553,2060,345,,,,,,,,,,,,
846443,1560693374551,1,2.18,2.47,3.08,2.21,5.06,0.51,0.1,0.68,-1,0,-1,0.52,6798,46,89,32,73,1081,355.0,453,436,60,118.0,285,1,379,397,98,0,0,361,2060,-29978,346,45.701427,4.910792,32.36,196.2,8,1.6267,0,0.0,0.2283,9,0.18,14.1074
846463,1560693374571,4,2.17,2.49,3.07,2.2,5.08,0.6,0.17,0.67,-3,0,-2,0.62,6860,48,89,32,75,1085,360.0,455,435,60,117.0,285,1,378,428,98,0,0,365,-14707,-6405,349,,,,,,,,,,,,
846483,1560693374591,0,2.16,2.5,3.06,2.2,5.06,0.49,0.12,0.69,-3,1,-1,0.5,6898,51,89,32,76,1089,362.0,461,405,60,118.0,285,1,377,444,98,0,0,370,-1268,-1268,351,,,,,,,,,,,,
846503,1560693374611,-0,2.15,2.51,3.05,2.2,5.07,0.47,0.23,0.63,-4,1,-1,0.53,6996,53,89,32,78,1089,367.0,466,426,60,117.0,332,1,380,452,117,0,0,374,0,486,353,,,,,,,,,,,,
846523,1560693374631,4,2.16,2.53,3.04,2.21,5.04,0.51,0.21,0.77,-5,3,-2,0.55,7064,54,89,32,79,1089,370.0,473,426,60,117.0,332,1,383,460,117,0,0,377,486,257,356,,,,,,,,,,,,
846543,1560693374651,3,2.16,2.54,3.05,2.2,5.05,0.48,0.2,0.89,-4,2,-3,0.52,7134,55,89,32,79,1077,374.0,481,436,60,118.0,332,1,387,467,117,0,0,383,742,3,360,45.701435,4.910796,33.52,196.1,8,1.6267,0,0.0,0.23,9,0.18,14.109
846563,1560693374671,2,2.16,2.54,3.04,2.2,5.05,0.37,0.19,0.84,-5,3,-5,0.42,7250,57,89,32,80,1061,379.0,482,445,60,118.0,332,1,394,475,117,0,0,385,8200,-6475,362,,,,,,,,,,,,
846583,1560693374691,2,2.16,2.56,3.02,2.21,5.04,0.42,0.18,0.8,-5,3,-8,0.46,7301,58,89,32,81,1045,382.0,484,450,60,116.0,332,1,396,482,117,0,0,391,19125,505,367,,,,,,,,,,,,
846603,1560693374711,2,2.16,2.56,3.02,2.2,5.04,0.46,0.22,0.74,-7,2,-8,0.51,7413,60,89,32,81,1029,386.0,494,447,60,117.0,364,1,403,491,134,0,0,394,-3866,-6524,369,,,,,,,,,,,,
846623,1560693374731,2,2.16,2.56,3.02,2.21,5.04,0.37,0.26,0.66,-7,3,-8,0.45,7482,61,89,32,82,1001,389.0,502,451,60,117.0,364,1,407,491,134,0,0,398,-6524,6384,373,,,,,,,,,,,,
846643,1560693374751,3,2.16,2.57,3.01,2.22,5.04,0.37,0.33,0.57,-8,3,-9,0.49,7597,63,89,32,82,966,394.0,506,448,60,118.0,364,1,414,492,134,0,0,401,-1818,10541,379,45.701443,4.9108,34.7,196.1,8,1.6267,0,0.0,0.2317,9,0.18,14.1107
846663,1560693374771,2,2.17,2.58,3.01,2.21,5.06,0.34,0.25,0.61,-8,3,-9,0.42,7659,65,89,32,83,939,397.0,505,453,60,118.0,364,1,416,501,134,0,0,410,-3968,10392,383,,,,,,,,,,,,
846683,1560693374791,5,2.16,2.59,2.99,2.23,5.05,0.29,0.31,0.74,-9,2,-9,0.43,7780,66,89,32,83,920,402.0,512,447,60,118.0,364,1,424,502,134,0,0,413,10541,-26615,387,,,,,,,,,,,,
846703,1560693374809,0,2.16,2.59,2.98,2.22,5.05,0.28,0.3,0.82,-9,2,-10,0.41,7864,67,89,32,83,897,405.0,525,452,60,117.0,382,1,428,503,148,0,0,416,-9211,-8165,391,,,,,,,,,,,,
846723,1560693374829,3,2.15,2.6,2.97,2.22,5.04,0.29,0.36,0.8,-9,1,-12,0.46,8005,68,89,32,83,871,411.0,524,453,60,116.0,382,1,437,506,148,0,0,424,-9166,3635,397,,,,,,,,,,,,
846743,1560693374849,0,2.16,2.61,2.96,2.23,5.04,0.4,0.35,0.86,-9,0,-11,0.54,8166,70,89,32,81,852,415.0,537,448,60,117.0,382,1,435,510,148,0,0,427,-3414,-3314,403,45.70145,4.910804,36.29,196.0,8,1.6267,0,0.0,0.2333,9,0.18,14.1124
846763,1560693374869,4,2.15,2.63,2.96,2.23,5.05,0.23,0.48,0.77,-9,2,-11,0.53,8252,70,89,32,81,845,424.0,542,450,60,117.0,382,1,432,511,148,0,0,436,-4082,21432,406,,,,,,,,,,,,
846783,1560693374889,1,2.14,2.64,2.95,2.22,5.06,0.25,0.45,0.81,-10,3,-11,0.52,8366,71,89,32,80,839,428.0,551,454,60,117.0,382,1,430,502,148,0,0,440,13180,23400,411,,,,,,,,,,,,
846803,1560693374910,3,2.12,2.64,2.94,2.23,5.06,0.28,0.61,0.83,-10,2,-10,0.67,8461,71,89,32,80,835,435.0,551,436,60,116.0,389,1,428,510,161,0,0,453,5600,-8985,416,,,,,,,,,,,,
846823,1560693374930,2,2.14,2.69,2.93,2.24,5.07,0.15,0.58,0.85,-10,3,-12,0.6,8589,72,89,32,79,832,442.0,552,447,60,117.0,389,1,425,483,161,0,0,459,23400,-16384,425,,,,,,,,,,,,
846843,1560693374950,3,2.13,2.71,2.94,2.25,5.04,0.29,0.52,0.86,-11,2,-13,0.59,8684,72,89,32,78,834,445.0,561,447,60,117.0,389,1,422,483,161,0,0,461,15649,8488,426,45.701458,4.910807,38.27,196.0,8,1.6267,0,0.0,0.235,9,0.19,14.114
846863,1560693374970,1,2.14,2.72,2.91,2.25,5.04,0.35,0.53,0.95,-12,1,-15,0.64,8831,73,89,32,78,841,455.0,568,447,60,117.0,389,1,419,483,161,0,0,471,-26615,-17956,432,,,,,,,,,,,,
846883,1560693374990,4,2.14,2.72,2.92,2.25,5.04,0.49,0.43,1.0,-13,0,-15,0.65,8941,73,89,32,77,861,461.0,573,438,60,116.0,389,1,415,470,161,0,0,475,2211,-17956,438,,,,,,,,,,,,
846903,1560693375003,2,2.14,2.72,2.91,2.25,5.04,0.65,0.36,1.1,-14,0,-15,0.74,9036,73,89,32,77,880,466.0,576,452,60,117.0,363,1,413,470,159,0,0,478,-3210,3580,442,,,,,,,,,,,,
846923,1560693375023,3,2.12,2.73,2.9,2.25,5.04,0.78,0.18,1.19,-15,-2,-15,0.8,9110,73,89,32,77,898,471.0,585,448,60,117.0,363,1,413,470,159,0,0,489,3576,-6656,448,,,,,,,,,,,,
846943,1560693375043,5,2.13,2.75,2.9,2.25,5.05,0.77,0.07,1.22,-16,-3,-16,0.78,9218,73,89,32,77,919,479.0,597,446,60,117.0,363,1,414,470,159,0,0,491,10305,505,453,45.701469,4.91081,40.97,196.0,8,1.6267,0,0.0,0.2367,9,0.19,14.1157
846963,1560693375063,3,2.14,2.74,2.91,2.26,5.05,0.71,0.11,1.22,-16,-4,-17,0.71,9300,74,89,32,77,955,482.0,599,452,60,117.0,363,1,414,470,159,0,0,499,-899,-22519,456,,,,,,,,,,,,
846983,1560693375083,1,2.13,2.74,2.87,2.26,5.04,0.44,0.22,1.18,-15,-3,-18,0.49,9403,74,89,32,76,990,489.0,606,453,60,117.0,363,1,415,470,159,0,0,506,-6656,-3414,464,,,,,,,,,,,,
847003,1560693375109,4,2.13,2.73,2.87,2.25,5.07,0.6,0.25,1.19,-15,-2,-19,0.65,9508,74,89,32,76,1007,492.0,612,453,60,117.0,362,1,416,457,168,0,0,507,998,-22519,470,,,,,,,,,,,,
847023,1560693375129,3,2.13,2.74,2.86,2.25,5.05,0.49,0.24,1.27,-16,-5,-20,0.54,9610,74,89,32,76,1025,499.0,611,452,60,117.0,362,1,412,463,168,0,0,511,15661,-8187,473,,,,,,,,,,,,
847043,1560693375149,3,2.13,2.74,2.86,2.25,5.05,0.59,0.33,1.22,-17,-2,-21,0.67,9745,74,89,32,75,1047,506.0,618,456,60,116.0,362,1,406,464,168,0,0,519,-28648,-3482,478,45.701481,4.910814,43.55,195.9,8,1.6267,0,0.0,0.2383,9,0.19,14.1174
847063,1560693375169,0,2.14,2.74,2.88,2.25,5.06,0.58,0.35,1.24,-17,-4,-20,0.68,9811,74,89,32,75,1069,509.0,616,453,60,117.0,362,1,403,469,168,0,0,524,10994,1780,482,,,,,,,,,,,,
847083,1560693375189,5,2.13,2.74,2.91,2.24,5.05,0.63,0.45,1.17,-17,-2,-20,0.77,9868,74,89,32,75,1073,514.0,618,447,60,116.0,362,1,401,474,168,0,0,531,-3482,6274,486,,,,,,,,,,,,
847103,1560693375209,1,2.14,2.75,2.87,2.25,5.05,0.6,0.55,1.09,-18,-1,-20,0.81,9984,74,89,32,74,1077,520.0,618,443,60,117.0,365,1,396,475,179,0,0,530,1248,-9072,491,,,,,,,,,,,,
847123,1560693375229,2,2.14,2.75,2.86,2.24,5.08,0.61,0.55,1.16,-18,-2,-20,0.82,10129,74,89,32,74,1083,524.0,619,450,60,117.0,365,1,406,477,179,0,0,540,10408,-32248,495,,,,,,,,,,,,
847143,1560693375249,1,2.14,2.76,2.83,2.25,5.07,0.65,0.49,1.19,-18,-3,-21,0.81,10146,74,89,32,74,1088,529.0,624,448,60,117.0,365,1,407,477,179,0,0,540,-9072,1780,498,45.701492,4.910816,45.84,195.9,8,1.6267,0,0.0,0.24,9,0.19,14.1191
847163,1560693375269,5,2.14,2.76,2.84,2.25,5.05,0.62,0.59,1.12,-18,-2,-22,0.85,10206,74,89,32,74,1090,533.0,624,450,60,117.0,365,1,415,477,179,0,0,549,2104,-22263,504,,,,,,,,,,,,
847183,1560693375289,3,2.14,2.76,2.84,2.24,5.08,0.64,0.62,1.01,-18,-4,-22,0.89,10279,74,89,32,74,1091,536.0,631,454,60,116.0,365,1,417,478,179,0,0,555,-28648,-8186,509,,,,,,,,,,,,
847203,1560693375310,3,2.15,2.75,2.85,2.23,5.05,0.55,0.64,0.98,-18,-6,-21,0.84,10341,74,89,32,74,1088,539.0,625,451,60,117.0,367,1,421,478,187,0,0,556,1779,6273,519,,,,,,,,,,,,
847223,1560693375330,3,2.15,2.74,2.85,2.23,5.04,0.55,0.64,1.04,-18,-2,-21,0.84,10492,74,89,32,74,1085,548.0,630,447,60,117.0,367,1,431,479,187,0,0,566,14504,6273,520,,,,,,,,,,,,
847243,1560693375350,3,2.15,2.77,2.85,2.26,5.05,0.54,0.61,1.0,-18,-3,-22,0.82,10575,74,89,32,74,1081,551.0,634,455,60,116.0,367,1,437,480,187,0,0,562,6274,-8186,523,45.701504,4.910818,48.45,195.8,8,1.6267,0,0.0,0.2417,9,0.19,14.1207
847263,1560693375370,5,2.15,2.78,2.87,2.26,5.08,0.5,0.52,1.1,-18,-4,-23,0.72,10708,74,89,32,74,1077,552.0,628,448,60,117.0,367,1,438,480,187,0,0,575,-22263,-8186,525,,,,,,,,,,,,
847283,1560693375390,1,2.15,2.77,2.85,2.25,5.04,0.5,0.54,1.0,-18,-5,-22,0.74,10732,74,89,32,74,1074,555.0,628,456,60,116.0,367,1,441,480,187,0,0,574,6273,259,533,,,,,,,,,,,,
847303,1560693375410,3,2.16,2.76,2.86,2.24,5.08,0.43,0.58,0.83,-17,-0,-21,0.73,10825,74,89,32,74,1070,563.0,633,445,60,117.0,367,1,441,480,196,0,0,580,2211,-25872,536,,,,,,,,,,,,
847323,1560693375430,4,2.16,2.75,2.85,2.23,5.05,0.48,0.62,0.9,-17,1,-20,0.79,10964,74,89,32,74,1069,569.0,631,452,60,117.0,367,1,445,480,196,0,0,584,-29984,-25872,542,,,,,,,,,,,,
847343,1560693375450,2,2.17,2.75,2.86,2.25,5.07,0.5,0.57,0.86,-18,2,-21,0.76,11035,74,89,32,74,1069,573.0,637,455,60,117.0,367,1,446,480,196,0,0,589,1760,-25872,548,45.701519,4.910819,51.02,195.8,8,1.6267,0,0.0,0.2433,9,0.19,14.1224
847363,1560693375470,-0,2.17,2.75,2.9,2.25,5.04,0.38,0.58,0.73,-17,-1,-21,0.69,11061,74,89,32,74,1064,576.0,641,455,60,117.0,367,1,446,480,196,0,0,601,1,-23055,550,,,,,,,,,,,,
847383,1560693375490,1,2.18,2.74,2.89,2.23,5.08,0.44,0.63,0.85,-17,-2,-20,0.77,11140,74,89,32,74,1058,579.0,641,457,60,119.0,367,1,445,480,196,0,0,598,-16384,4956,556,,,,,,,,,,,,
847403,1560693375510,-2,2.18,2.73,2.88,2.23,5.04,0.44,0.63,0.95,-17,-2,-18,0.76,10521,74,89,32,76,1054,587.0,645,458,60,119.0,358,1,431,490,200,0,0,596,-12040,15649,560,,,,,,,,,,,,
847423,1560693375530,-0,2.18,2.7,2.87,2.18,5.05,0.4,0.72,0.92,-16,-1,-18,0.82,10201,74,89,32,78,1050,588.0,642,456,60,118.0,358,1,410,505,200,0,0,583,-1894,12552,564,,,,,,,,,,,,
847443,1560693375550,1,2.18,2.67,2.97,2.14,5.05,0.45,0.64,0.85,-16,-3,-19,0.78,9941,74,89,32,80,1040,585.0,640,451,60,118.0,358,1,399,520,200,0,0,584,-25872,-28648,566,45.70153,4.910819,53.26,195.8,8,1.6267,0,0.0,0.245,9,0.19,14.1241
847463,1560693375570,0,2.18,2.65,3.07,2.11,5.04,0.35,0.73,0.81,-15,-2,-19,0.81,9770,74,89,32,80,1029,588.0,628,461,60,116.0,358,1,406,527,200,0,0,585,208,6273,564,,,,,,,,,,,,
847483,1560693375590,3,2.19,2.62,3.09,2.09,5.04,0.52,0.77,0.74,-16,0,-20,0.93,9576,75,89,32,81,1021,585.0,619,463,60,118.0,358,1,414,527,200,0,0,589,-25872,-29984,565,,,,,,,,,,,,
847503,1560693375610,3,2.19,2.61,3.1,2.09,5.04,0.63,0.64,0.87,-16,-6,-17,0.9,9342,75,89,32,81,1015,586.0,612,464,60,117.0,613,1,417,896,346,0,0,588,-1894,259,564,,,,,,,,,,,,
847523,1560693375630,5,2.19,2.65,3.0,2.12,5.07,0.58,0.54,0.93,-15,1,-16,0.79,8790,76,89,32,81,1047,590.0,592,451,60,116.0,613,1,421,825,346,0,0,611,-32504,8958,566,,,,,,,,,,,,
847543,1560693375650,2,2.19,2.72,2.86,2.19,5.08,0.72,0.53,1.04,-16,1,-16,0.9,8624,77,89,32,81,1121,595.0,574,459,60,117.0,613,1,425,713,346,0,0,619,-16179,-26892,571,45.701542,4.910819,55.04,195.7,8,1.6267,0,0.0,0.2467,9,0.19,14.1257
847563,1560693375670,2,2.19,2.75,2.8,2.21,5.03,0.63,0.59,1.02,-15,-1,-17,0.86,8696,77,89,32,81,1196,599.0,569,451,60,116.0,613,1,423,624,346,0,0,631,-3210,269,573,,,,,,,,,,,,
847583,1560693375691,4,2.19,2.75,2.79,2.21,5.04,0.49,0.61,1.01,-14,1,-18,0.78,8620,78,89,32,80,1276,606.0,570,462,60,117.0,613,1,424,539,346,0,0,633,-23055,19320,577,,,,,,,,,,,,
847603,1560693375711,2,2.18,2.75,2.79,2.21,5.05,0.61,0.51,1.06,-14,1,-19,0.79,8438,78,89,32,81,1356,610.0,574,450,60,117.0,294,1,429,534,171,0,0,644,-28304,966,589,,,,,,,,,,,,
847623,1560693375731,3,2.19,2.75,2.82,2.21,5.06,0.55,0.55,1.03,-14,-0,-19,0.77,8359,78,89,32,83,1437,618.0,562,455,60,116.0,294,1,431,540,171,0,0,638,3403,506,595,,,,,,,,,,,,
847643,1560693375751,4,2.18,2.75,2.87,2.2,5.06,0.47,0.53,0.99,-14,1,-18,0.71,8434,78,89,32,83,1498,619.0,560,449,60,117.0,294,1,430,534,171,0,0,636,30721,-4876,600,45.701557,4.910817,55.87,195.7,8,1.6267,0,0.0,0.2483,9,0.2,14.1274
847663,1560693375771,2,2.19,2.76,2.87,2.19,5.08,0.62,0.53,0.98,-14,0,-18,0.82,8636,78,89,32,83,1498,624.0,552,447,60,117.0,294,1,426,555,171,0,0,634,-16883,17336,600,,,,,,,,,,,,
847683,1560693375791,2,2.18,2.76,2.88,2.19,5.04,0.75,0.5,1.03,-14,-1,-18,0.9,8827,78,89,32,81,1468,625.0,557,461,60,117.0,294,1,420,526,171,0,0,634,-1346,-30207,601,,,,,,,,,,,,
847703,1560693375810,3,2.19,2.74,2.89,2.19,5.04,0.83,0.45,1.12,-13,-4,-18,0.95,8958,78,89,32,81,1393,629.0,572,448,60,117.0,290,1,417,526,176,0,0,653,-14655,-26380,607,,,,,,,,,,,,
847723,1560693375830,2,2.16,2.74,2.88,2.19,5.04,0.94,0.47,1.12,-13,-3,-16,1.05,9018,78,89,32,81,1318,635.0,581,453,60,117.0,290,1,416,526,176,0,0,657,-2580,-10344,613,,,,,,,,,,,,
847743,1560693375850,2,2.18,2.73,2.85,2.19,5.04,1.05,0.5,1.19,-14,-3,-14,1.16,8997,78,89,32,81,1243,639.0,578,443,60,117.0,290,1,417,526,176,0,0,658,16599,-3038,620,45.701572,4.910815,57.78,195.6,8,1.6267,0,0.0,0.25,9,0.2,14.1291
847763,1560693375870,1,2.19,2.76,2.84,2.21,5.05,1.02,0.58,1.27,-14,-4,-13,1.17,8962,78,89,32,81,1170,645.0,581,448,60,117.0,290,1,417,512,176,0,0,664,4909,-2830,621,,,,,,,,,,,,
847783,1560693375890,2,2.2,2.78,2.84,2.24,5.05,1.08,0.66,1.3,-14,-5,-14,1.26,9018,77,89,32,80,1106,647.0,581,444,60,117.0,290,1,415,512,176,0,0,669,11566,3543,622,,,,,,,,,,,,
847803,1560693375910,1,2.19,2.76,2.84,2.25,5.05,1.11,0.71,1.28,-14,-6,-13,1.32,9115,77,89,32,80,1052,648.0,591,455,60,117.0,279,1,415,497,175,0,0,670,-6006,-3578,632,,,,,,,,,,,,
847823,1560693375930,3,2.19,2.73,2.85,2.24,5.06,1.2,0.69,1.31,-15,-7,-14,1.39,9209,76,89,32,79,1062,655.0,596,451,60,117.0,279,1,415,497,175,0,0,672,-3488,31988,637,,,,,,,,,,,,
