"Interval"|"ms"|0|0|1,"Utc"|"ms"|0|0|1,"FB_p"|"bar"|0|300|50,"Volant"|"F"|0.0|300.0|50,"xFR"|"mm"|0.0|5.0|50,"xRR"|"mm"|0.0|5.0|50,"xFL"|"mm"|0.0|5.0|50,"xRL"|"mm"|0.0|5.0|50,"AccelX"|"G"|-3.0|3.0|50,"AccelY"|"G"|-3.0|3.0|50,"AccelZ"|"G"|-3.0|3.0|50,"Yaw"|"Deg/Sec"|-120|120|50,"Pitch"|"Deg/Sec"|-120|120|50,"Roll"|"Deg/Sec"|-120|120|50,"Gsum"|"G"|0.0|3.0|50,"RPM"|""|0|14000|50,"TPS"|"%"|0|100|50,"WaterTemp"|"?C"|0|300|50,"AirTemp"|"?C"|-1000|1000|50,"MAP"|"KPa"|0|255|50,"Lambda"|""|0|1024|50,"WheelSpeed"|"MPH"|0.0|150.0|50,"OilPress"|"PSI"|0|150|50,"FuelPress"|"PSI"|0|150|50,"OilTemp"|"F"|0|300|50,"Battery"|"Volts"|0.0|20.0|50,"FuelCon"|"L/h"|-1000|1000|50,"Gear"|""|0|10|50,"Advance"|"Deg"|-360|360|50,"Injection"|"ms"|-1000|1000|50,"FuelCon"|"L/100km"|-1000|1000|50,"LC_But_Pres"|""|-1000|1000|50,"LC_Active"|""|-1000|1000|50,"RD_Speed"|""|-1000|1000|50,"RUD_Speed"|""|-1000|1000|50,"LD_Speed"|""|-1000|1000|50,"LUD_Speed"|""|-1000|1000|50,"Latitude"|"Degrees"|-180.0|180.0|10,"Longitude"|"Degrees"|-180.0|180.0|10,"Speed"|"kph"|0.0|150.0|10,"Altitude"|"m"|0.0|4000.0|10,"LapCount"|""|0|0|10,"LapTime"|"Min"|0.0|0.0|10,"Sector"|""|0|0|10,"SectorTime"|"Min"|0.0|0.0|10,"ElapsedTime"|"Min"|0.0|0.0|10,"CurrentLap"|""|0|0|10,"Distance"|"km"|0.0|0.0|10,"SessionTime"|"Min"|0.0|0.0|10
29463,1560695601039,5,2.3,2.04,3.32,1.83,5.07,0.81,-0.09,0.32,-1,-1,-1,0.81,5299,4,89,36,35,503,396.0,420,459,60,117.0,81,1,286,178,33,0,0,390,17144,505,396,,,,,,,,,,,,
29483,1560695601059,2,2.3,2.05,3.32,1.86,5.07,0.74,0.0,0.31,3,-0,0,0.74,5278,4,89,36,36,502,394.0,411,468,60,118.0,93,1,290,184,37,0,0,388,505,-6475,394,,,,,,,,,,,,
29503,1560695601079,3,2.29,2.05,3.34,1.87,5.04,0.82,-0.02,0.35,0,-2,0,0.82,5256,4,89,36,36,502,394.0,412,447,60,118.0,93,1,290,184,37,0,0,384,-1562,-3866,394,,,,,,,,,,,,
29523,1560695601101,-1,2.3,2.04,3.32,1.86,5.05,0.79,-0.03,0.33,3,-1,0,0.79,5243,4,89,36,37,502,391.0,412,468,60,117.0,93,1,294,190,37,0,0,382,-1562,-1562,391,,,,,,,,,,,,
29543,1560695601121,3,2.3,2.04,3.3,1.86,5.07,0.81,-0.13,0.36,0,0,1,0.82,5199,4,89,36,37,502,390.0,402,452,60,118.0,93,1,293,189,37,0,0,384,-31744,-3866,390,45.699734,4.910686,39.16,194.3,0,0.0,-1,0.0,0.0,0,0.13,0.4924
29563,1560695601141,3,2.3,2.03,3.29,1.85,5.07,0.92,-0.07,0.35,3,-1,1,0.92,5152,4,89,36,38,502,387.0,396,463,60,117.0,93,1,297,195,37,0,0,382,-6475,-3866,387,,,,,,,,,,,,
29583,1560695601161,3,2.3,2.03,3.29,1.85,5.04,0.78,-0.1,0.33,1,1,0,0.79,5136,4,89,36,38,502,386.0,403,460,60,116.0,98,1,296,195,38,0,0,377,-19126,2278,386,,,,,,,,,,,,
29603,1560695601181,7,2.29,2.03,3.32,1.83,5.04,0.91,0.04,0.31,2,-3,2,0.91,5151,4,89,36,38,503,384.0,400,457,60,118.0,98,1,297,195,38,0,0,376,-992,2278,384,,,,,,,,,,,,
29623,1560695601205,4,2.3,2.03,3.32,1.85,5.07,0.66,0.01,0.24,2,3,2,0.66,5145,4,89,36,39,502,384.0,396,465,60,116.0,98,1,301,202,38,0,0,372,8200,2278,384,,,,,,,,,,,,
29643,1560695601225,6,2.3,2.03,3.35,1.86,5.04,0.79,0.06,0.32,2,-2,3,0.8,5108,4,89,36,39,503,381.0,396,457,60,119.0,98,1,301,202,38,0,0,376,-6656,1,381,45.699726,4.91068,38.2,194.3,0,0.0,-1,0.0,0.0,0,0.13,0.494
29663,1560695601245,4,2.29,2.03,3.34,1.87,5.03,0.64,0.09,0.3,4,1,1,0.65,5103,4,89,36,39,502,379.0,398,466,60,117.0,98,1,300,202,38,0,0,366,3,770,379,,,,,,,,,,,,
29683,1560695601265,4,2.28,2.04,3.34,1.88,5.04,0.63,-0.02,0.3,2,2,0,0.63,5013,4,89,36,40,503,376.0,391,459,60,116.0,100,1,300,203,38,0,0,367,1,257,376,,,,,,,,,,,,
29703,1560695601285,5,2.29,2.04,3.34,1.87,5.07,0.77,0.06,0.28,3,-2,2,0.77,4947,4,89,36,40,502,374.0,391,463,60,118.0,100,1,297,201,38,0,0,367,257,-6656,373,,,,,,,,,,,,
29723,1560695601305,2,2.29,2.04,3.34,1.85,5.04,0.61,0.05,0.23,3,-1,2,0.62,4927,4,89,36,41,502,370.0,392,467,60,117.0,100,1,297,203,38,0,0,365,0,-6656,371,,,,,,,,,,,,
29743,1560695601325,1,2.3,2.03,3.34,1.84,5.06,0.72,0.01,0.27,2,4,1,0.72,4918,4,89,36,41,502,369.0,384,463,60,117.0,100,1,297,202,38,0,0,361,0,-6458,369,45.699718,4.910675,37.33,194.3,0,0.0,-1,0.0,0.0,0,0.13,0.4957
29763,1560695601345,1,2.3,2.04,3.33,1.83,5.04,0.85,0.07,0.31,2,0,3,0.85,4895,4,89,36,41,503,367.0,385,447,60,117.0,100,1,296,202,38,0,0,361,3082,-1268,367,,,,,,,,,,,,
29783,1560695601365,4,2.31,2.03,3.34,1.83,5.03,0.78,0.02,0.36,4,-2,3,0.78,4900,4,89,36,42,503,367.0,380,468,60,119.0,100,1,298,202,37,0,0,359,-6405,-6640,367,,,,,,,,,,,,
29803,1560695601385,-0,2.32,2.03,3.33,1.83,5.08,0.58,-0.0,0.3,4,3,3,0.58,4893,4,89,36,42,502,365.0,380,463,60,117.0,100,1,298,204,37,0,0,363,3082,2060,365,,,,,,,,,,,,
29823,1560695601405,0,2.32,2.04,3.33,1.84,5.06,0.7,0.0,0.32,2,4,2,0.7,4873,4,89,36,42,503,365.0,389,457,60,117.0,100,1,296,203,37,0,0,355,2790,4104,364,,,,,,,,,,,,
29843,1560695601425,-1,2.33,2.04,3.32,1.86,5.07,0.83,0.14,0.36,3,1,2,0.85,4893,4,89,36,42,503,363.0,381,456,60,118.0,100,1,297,204,37,0,0,356,-29302,-6458,363,45.699711,4.910669,35.99,194.3,0,0.0,-1,0.0,0.0,0,0.13,0.4974
29863,1560695601445,1,2.33,2.05,3.34,1.85,5.06,0.8,0.05,0.36,5,1,4,0.8,4861,4,89,36,43,503,362.0,378,470,60,118.0,100,1,298,203,37,0,0,357,-29302,-6640,362,,,,,,,,,,,,
29883,1560695601465,1,2.33,2.04,3.34,1.86,5.07,0.62,-0.03,0.36,5,3,3,0.62,4870,4,89,36,43,502,362.0,384,463,60,117.0,102,1,298,205,37,0,0,356,4104,-14707,362,,,,,,,,,,,,
29903,1560695601485,-0,2.32,2.05,3.34,1.87,5.06,0.66,-0.04,0.4,4,4,3,0.66,4828,5,89,36,43,503,361.0,379,455,60,117.0,102,1,296,204,37,0,0,354,2060,-14707,361,,,,,,,,,,,,
29923,1560695601503,-1,2.33,2.04,3.34,1.87,5.05,0.79,0.03,0.41,3,3,2,0.79,4775,9,89,36,43,503,360.0,375,459,60,118.0,102,1,294,203,37,0,0,352,3302,-6640,361,,,,,,,,,,,,
29943,1560695601523,1,2.32,2.04,3.32,1.85,5.06,0.88,0.12,0.36,4,-1,4,0.88,4769,16,89,36,45,503,359.0,370,458,60,118.0,102,1,297,207,37,0,0,353,3302,3302,359,45.699703,4.910663,35.35,194.3,0,0.0,-1,0.0,0.0,0,0.13,0.499
29963,1560695601543,3,2.33,2.02,3.31,1.83,5.08,0.75,0.04,0.32,6,1,6,0.75,4794,24,89,36,49,503,358.0,362,470,60,118.0,102,1,301,215,37,0,0,353,3183,28553,358,,,,,,,,,,,,
29983,1560695601563,1,2.32,2.02,3.31,1.83,5.05,0.71,-0.08,0.35,5,3,5,0.72,4875,30,89,36,53,503,358.0,378,461,60,117.0,114,1,299,231,41,0,0,351,-6644,3183,358,,,,,,,,,,,,
30003,1560695601583,-1,2.33,2.03,3.31,1.88,5.08,0.79,-0.04,0.39,4,4,5,0.79,4875,34,89,36,58,503,357.0,372,458,60,117.0,114,1,297,251,41,0,0,352,28553,-6644,357,,,,,,,,,,,,
30023,1560695601601,3,2.32,2.05,3.31,1.93,5.05,0.84,0.05,0.37,6,3,4,0.84,4976,37,89,36,64,503,356.0,373,456,60,118.0,114,1,291,278,41,0,0,351,-30454,-6640,356,,,,,,,,,,,,
30043,1560695601621,1,2.32,2.09,3.3,2.01,5.06,0.7,-0.04,0.36,6,3,4,0.7,5040,39,89,36,69,502,354.0,378,466,60,117.0,114,1,286,315,41,0,0,350,-1246,-6644,354,45.699692,4.910658,34.37,194.4,0,0.0,-1,0.0,0.0,0,0.13,0.5007
30063,1560695601641,1,2.32,2.14,3.29,2.07,5.04,0.83,-0.02,0.4,4,2,4,0.83,5103,42,89,36,72,502,353.0,380,446,60,117.0,114,1,289,337,41,0,0,348,-30438,3302,353,,,,,,,,,,,,
30083,1560695601661,5,2.32,2.15,3.31,2.08,5.07,0.77,-0.06,0.38,6,1,6,0.77,5110,46,89,36,77,503,353.0,379,466,60,118.0,192,1,288,362,68,0,0,346,-30438,28553,352,,,,,,,,,,,,
30103,1560695601681,-1,2.33,2.15,3.31,2.08,5.04,0.76,-0.09,0.44,4,2,7,0.77,5218,49,89,36,80,502,353.0,389,456,60,117.0,192,1,295,419,68,0,0,347,-10554,3183,353,,,,,,,,,,,,
30123,1560695601701,4,2.33,2.15,3.29,2.07,5.04,0.75,0.01,0.44,7,-0,6,0.75,5230,53,89,36,83,502,352.0,393,458,60,118.0,192,1,295,456,68,0,0,344,6870,-6644,352,,,,,,,,,,,,
30143,1560695601721,-0,2.33,2.14,3.24,2.07,5.08,0.7,-0.06,0.53,4,1,5,0.71,5230,56,89,37,86,502,352.0,394,448,60,116.0,192,1,292,468,68,0,0,351,6870,28553,352,45.699688,4.910652,34.15,194.4,0,0.0,-1,0.0,0.0,0,0.13,0.5024
30163,1560695601741,2,2.33,2.16,3.24,2.1,5.04,0.67,0.01,0.52,7,-1,5,0.67,5124,58,89,37,88,502,353.0,393,457,60,118.0,192,1,285,473,68,0,0,358,8841,-29978,353,,,,,,,,,,,,
30183,1560695601761,3,2.33,2.2,3.23,2.09,5.06,0.61,-0.05,0.52,6,0,5,0.61,4886,59,89,37,90,502,356.0,375,462,60,117.0,247,1,282,474,88,0,0,361,-30454,-14707,356,,,,,,,,,,,,
30203,1560695601781,0,2.32,2.23,3.24,2.09,5.04,0.7,-0.04,0.56,5,1,5,0.7,4732,59,89,37,92,502,358.0,363,468,60,117.0,247,1,285,514,88,0,0,362,-6644,3082,358,,,,,,,,,,,,
30223,1560695601801,0,2.31,2.22,3.3,2.07,5.07,0.71,-0.01,0.6,4,1,4,0.71,4663,59,89,37,92,502,359.0,355,446,60,116.0,247,1,286,538,88,0,0,360,3302,2790,359,,,,,,,,,,,,
30243,1560695601821,-1,2.31,2.23,3.36,2.07,5.08,0.82,0.02,0.72,4,-3,3,0.82,4789,61,89,37,93,502,358.0,355,449,60,116.0,247,1,284,543,88,0,0,355,3302,-29302,358,45.699676,4.910646,34.25,194.4,0,0.0,-1,0.0,0.0,0,0.13,0.504
30263,1560695601841,4,2.3,2.23,3.39,2.06,5.05,0.75,0.04,0.58,6,-2,3,0.76,5024,65,89,37,93,502,358.0,365,464,60,118.0,247,1,279,550,88,0,0,355,2060,3082,358,,,,,,,,,,,,
30283,1560695601861,-1,2.31,2.26,3.38,2.06,5.04,0.69,-0.02,0.64,5,-3,3,0.69,5179,69,89,37,94,502,360.0,380,460,60,117.0,307,1,286,567,110,0,0,362,-29978,3082,360,,,,,,,,,,,,
30303,1560695601881,4,2.3,2.29,3.34,2.06,5.04,0.66,0.03,0.59,5,-2,4,0.66,5247,71,89,37,94,502,364.0,382,461,60,118.0,307,1,288,564,110,0,0,373,-14707,-6656,364,,,,,,,,,,,,
30323,1560695601905,-1,2.31,2.35,3.31,2.07,5.06,0.56,0.0,0.71,4,0,4,0.56,5250,72,89,37,94,502,365.0,386,463,60,117.0,307,1,288,563,110,0,0,380,-1268,1,366,,,,,,,,,,,,
30343,1560695601925,2,2.29,2.39,3.24,2.07,5.04,0.59,0.05,0.7,5,1,3,0.59,5096,72,89,37,94,502,369.0,387,448,60,118.0,307,1,282,570,110,0,0,377,-6656,19125,369,45.699673,4.910641,34.84,194.4,0,0.0,-1,0.0,0.0,0,0.14,0.5057
30363,1560695601945,1,2.29,2.43,3.19,2.08,5.05,0.58,-0.01,0.75,5,1,2,0.58,5148,72,89,37,95,501,371.0,379,464,60,118.0,307,1,284,589,110,0,0,381,257,8200,371,,,,,,,,,,,,
30383,1560695601965,-1,2.3,2.44,3.16,2.09,5.05,0.68,0.01,0.78,5,-0,2,0.68,5148,72,89,37,94,501,372.0,382,451,60,117.0,297,1,284,589,111,0,0,383,1,2278,372,,,,,,,,,,,,
30403,1560695601985,-1,2.29,2.44,3.19,2.11,5.04,0.66,-0.06,0.74,6,0,1,0.67,5214,72,89,37,94,501,375.0,383,462,60,118.0,297,1,287,565,111,0,0,384,742,-18948,375,,,,,,,,,,,,
30423,1560695601998,1,2.29,2.41,3.22,2.12,5.04,0.76,-0.07,0.77,4,-2,2,0.77,5274,72,89,37,94,501,379.0,389,455,60,116.0,297,1,289,562,111,0,0,389,-6656,-31744,379,,,,,,,,,,,,
30443,1560695602018,-1,2.3,2.42,3.21,2.15,5.06,0.65,-0.11,0.8,4,-2,3,0.66,5299,71,89,37,94,501,383.0,389,462,60,118.0,297,1,290,561,111,0,0,391,-18948,-6656,383,45.699665,4.910634,35.49,194.4,0,0.0,-1,0.0,0.0,0,0.14,0.5074
30463,1560695602038,2,2.29,2.53,3.2,2.26,5.07,0.68,-0.02,0.74,3,-2,3,0.68,5387,60,89,37,92,501,385.0,396,457,60,116.0,297,1,293,521,111,0,0,394,-992,505,385,,,,,,,,,,,,
30483,1560695602058,-1,2.29,2.53,3.18,2.22,5.04,0.7,-0.12,0.81,3,-6,2,0.71,5441,46,89,37,89,501,386.0,400,463,60,117.0,269,1,297,481,103,0,0,394,-3866,6512,382,,,,,,,,,,,,
30503,1560695602078,1,2.28,2.42,3.17,2.17,5.04,0.59,0.02,0.83,5,-4,4,0.59,5492,34,89,37,84,501,394.0,406,452,60,118.0,269,1,309,468,103,0,0,400,-1562,11545,394,,,,,,,,,,,,
30523,1560695602104,3,2.28,2.43,3.18,2.2,5.06,0.66,0.09,0.83,4,-4,4,0.67,5517,32,89,37,80,501,394.0,412,455,60,117.0,269,1,314,432,103,0,0,409,-1818,-8151,394,,,,,,,,,,,,
30543,1560695602124,-0,2.28,2.4,3.17,2.19,5.03,0.59,-0.03,0.94,4,-3,1,0.6,5504,32,89,37,77,501,399.0,415,472,60,117.0,269,1,314,403,103,0,0,408,-3968,-9211,399,45.699654,4.910628,37.2,194.4,0,0.0,-1,0.0,0.0,0,0.14,0.509
30563,1560695602144,-1,2.29,2.37,3.17,2.2,5.06,0.6,-0.04,0.94,4,-3,1,0.6,5496,32,89,37,75,502,402.0,409,462,60,118.0,269,1,315,381,103,0,0,412,6512,-8151,402,,,,,,,,,,,,
30583,1560695602164,3,2.27,2.35,3.15,2.18,5.04,0.69,0.01,0.93,1,-4,0,0.69,5471,32,89,37,74,501,405.0,412,456,60,116.0,195,1,314,370,79,0,0,411,1504,-26615,405,,,,,,,,,,,,
30603,1560695602184,-0,2.28,2.36,3.29,2.19,5.04,0.64,-0.01,0.85,1,-3,-0,0.64,5472,32,89,37,74,501,408.0,411,459,60,117.0,195,1,314,370,79,0,0,418,-26615,11560,408,,,,,,,,,,,,
30623,1560695602204,-1,2.29,2.37,3.25,2.2,5.05,0.73,0.07,0.77,2,-1,1,0.73,5575,33,89,37,73,502,407.0,413,458,60,118.0,195,1,322,365,79,0,0,412,10392,-3414,407,,,,,,,,,,,,
30643,1560695602224,0,2.28,2.37,3.15,2.2,5.04,0.77,0.09,0.89,1,-1,1,0.78,5748,34,89,37,73,502,412.0,425,459,60,118.0,195,1,334,373,79,0,0,414,10392,2524,413,45.69965,4.910621,38.64,194.4,0,0.0,-1,0.0,0.0,0,0.14,0.5107
30663,1560695602244,4,2.28,2.36,3.11,2.24,5.05,0.7,0.15,0.84,0,1,-4,0.72,5883,37,89,37,72,502,413.0,437,450,60,118.0,195,1,345,365,79,0,0,418,11560,-3856,413,,,,,,,,,,,,
30683,1560695602264,3,2.29,2.35,3.08,2.25,5.04,0.6,0.14,0.72,1,3,-6,0.62,5905,39,89,37,73,501,415.0,443,452,60,116.0,195,1,345,379,81,0,0,424,-4059,13180,415,,,,,,,,,,,,
30703,1560695602284,2,2.29,2.32,3.07,2.25,5.06,0.48,0.15,0.62,1,6,-4,0.5,5810,40,89,37,73,501,419.0,440,451,60,117.0,195,1,338,375,81,0,0,425,-26615,3826,419,,,,,,,,,,,,
30723,1560695602304,2,2.29,2.32,3.07,2.25,5.06,0.4,0.17,0.65,2,5,-1,0.43,5712,41,89,37,74,501,422.0,432,457,60,116.0,195,1,330,385,81,0,0,427,-21944,243,421,,,,,,,,,,,,
30743,1560695602324,-0,2.27,2.32,3.06,2.24,5.05,0.45,0.17,0.78,3,0,1,0.48,5719,42,89,37,75,500,423.0,426,460,60,117.0,195,1,330,397,81,0,0,430,-3414,13180,423,45.699638,4.910614,39.4,194.3,0,0.0,-1,0.0,0.0,0,0.14,0.5124
30763,1560695602344,0,2.27,2.33,3.08,2.24,5.04,0.61,0.09,0.85,2,-3,2,0.61,5765,43,89,37,76,500,424.0,428,464,60,118.0,195,1,332,414,81,0,0,430,3826,-3314,424,,,,,,,,,,,,
30783,1560695602364,0,2.28,2.34,3.11,2.24,5.04,0.72,-0.02,0.85,1,-3,2,0.72,5883,43,89,37,76,501,424.0,438,458,60,118.0,213,1,340,423,91,0,0,430,-4082,243,424,,,,,,,,,,,,
30803,1560695602384,-0,2.28,2.34,3.2,2.23,5.05,0.79,-0.14,0.89,-0,-2,2,0.8,6019,44,89,37,77,502,427.0,443,463,60,118.0,213,1,348,437,91,0,0,440,13180,19477,427,,,,,,,,,,,,
30823,1560695602404,-2,2.28,2.33,3.2,2.22,5.07,0.83,-0.28,0.94,-1,-1,2,0.87,6109,44,89,37,77,502,432.0,448,462,60,118.0,213,1,351,433,91,0,0,443,-3322,21580,431,,,,,,,,,,,,
30843,1560695602424,-1,2.28,2.33,3.15,2.23,5.07,0.9,-0.33,0.93,-1,-2,3,0.96,6125,44,89,37,77,503,436.0,453,463,60,118.0,213,1,352,438,91,0,0,446,5600,21432,435,45.699631,4.910607,41.03,194.3,0,0.0,-1,0.0,0.0,0,0.14,0.514
30863,1560695602444,1,2.28,2.36,3.12,2.25,5.04,0.98,-0.34,1.04,-2,-5,4,1.04,6101,44,89,37,77,504,438.0,455,462,60,118.0,213,1,351,438,91,0,0,446,19477,8488,440,,,,,,,,,,,,
30883,1560695602464,2,2.27,2.38,3.1,2.23,5.06,1.05,-0.31,1.13,-2,-9,5,1.09,6075,41,89,37,77,503,440.0,455,461,60,117.0,230,1,350,437,101,0,0,449,20625,16648,440,,,,,,,,,,,,
30903,1560695602484,2,2.28,2.37,3.1,2.24,5.08,1.11,-0.33,1.22,-2,-13,4,1.16,6065,33,89,37,75,503,442.0,455,466,60,118.0,230,1,352,416,101,0,0,450,26704,-8985,442,,,,,,,,,,,,
30923,1560695602504,2,2.28,2.38,3.11,2.25,5.06,1.13,-0.28,1.28,-1,-16,4,1.16,6095,23,89,37,71,503,445.0,452,466,60,116.0,230,1,358,353,101,0,0,452,21432,-9160,445,,,,,,,,,,,,
30943,1560695602524,5,2.27,2.38,3.11,2.26,5.07,1.18,-0.22,1.33,-2,-18,3,1.2,6129,15,89,37,66,502,447.0,463,460,60,117.0,230,1,369,299,101,0,0,453,2131,15649,447,45.699623,4.910599,41.79,194.3,0,0.0,-1,0.0,0.0,0,0.14,0.5157
30963,1560695602544,9,2.28,2.38,3.12,2.24,5.04,1.16,-0.17,1.32,-2,-20,3,1.18,6133,11,89,36,61,501,445.0,470,458,60,116.0,230,1,385,252,101,0,0,451,21432,3571,444,,,,,,,,,,,,
30983,1560695602564,11,2.27,2.34,3.18,2.19,5.04,1.16,-0.17,1.31,-3,-21,2,1.18,6065,9,89,36,57,501,446.0,463,457,60,117.0,128,1,384,254,57,0,0,451,21432,15649,446,,,,,,,,,,,,
31003,1560695602584,13,2.27,2.33,3.22,2.15,5.04,1.07,-0.18,1.22,-3,-20,2,1.08,5986,8,89,36,53,500,445.0,466,462,60,117.0,128,1,378,250,57,0,0,447,23400,-3267,444,,,,,,,,,,,,
31023,1560695602604,14,2.26,2.3,3.26,2.1,5.07,0.94,-0.16,1.1,-1,-19,1,0.96,5896,8,89,36,50,500,444.0,455,459,60,116.0,128,1,359,231,57,0,0,449,26704,2131,444,,,,,,,,,,,,
31043,1560695602624,14,2.28,2.27,3.33,2.07,5.05,0.94,-0.13,1.05,0,-21,2,0.94,5812,8,89,36,48,500,441.0,458,462,60,117.0,128,1,349,222,57,0,0,439,19477,20625,437,45.699612,4.910591,43.19,194.3,0,0.0,-1,0.0,0.0,0,0.14,0.5174
31063,1560695602644,15,2.27,2.22,3.42,2.03,5.07,1.04,-0.16,1.06,1,-23,2,1.06,5702,8,89,36,46,500,438.0,448,458,60,119.0,128,1,338,215,57,0,0,428,19477,-768,438,,,,,,,,,,,,
31083,1560695602664,20,2.26,2.19,3.44,2.01,5.04,1.14,-0.09,0.93,-1,-21,3,1.15,5572,7,89,36,45,501,435.0,437,460,60,118.0,102,1,328,213,45,0,0,428,243,1779,435,,,,,,,,,,,,
31103,1560695602684,17,2.26,2.18,3.44,2.02,5.03,0.93,-0.16,0.84,-1,-16,2,0.94,5420,7,89,36,44,501,430.0,424,463,60,116.0,102,1,319,212,45,0,0,424,13180,-21792,430,,,,,,,,,,,,
31123,1560695602704,20,2.27,2.17,3.44,2.01,5.03,1.04,-0.13,0.74,-0,-16,3,1.05,5289,7,89,36,43,501,425.0,413,454,60,118.0,102,1,311,210,45,0,0,418,-8165,7154,425,,,,,,,,,,,,
31143,1560695602724,16,2.26,2.15,3.41,1.99,5.04,0.93,-0.13,0.68,-1,-15,3,0.94,5131,7,89,36,43,502,422.0,414,456,60,116.0,102,1,306,209,45,0,0,415,18584,2524,422,45.699604,4.910583,43.09,194.3,0,0.0,-1,0.0,0.0,0,0.14,0.519
31163,1560695602744,17,2.27,2.08,3.4,1.96,5.08,1.04,-0.1,0.74,-2,-14,4,1.05,5034,6,89,36,43,502,421.0,398,458,60,118.0,102,1,303,209,45,0,0,412,-26615,2524,421,,,,,,,,,,,,
31183,1560695602764,19,2.26,2.03,3.38,1.93,5.06,1.06,-0.07,0.6,0,-14,2,1.06,4957,6,89,36,43,502,417.0,392,462,60,118.0,93,1,300,208,39,0,0,397,13040,1504,416,,,,,,,,,,,,
31203,1560695602784,13,2.26,1.99,3.37,1.91,5.04,0.89,-0.14,0.57,-1,-11,1,0.9,5053,6,89,36,43,502,412.0,398,460,60,116.0,93,1,303,209,39,0,0,386,-26615,240,410,,,,,,,,,,,,
31223,1560695602806,12,2.26,1.98,3.38,1.88,5.08,1.0,0.04,0.48,-1,-12,2,1.0,5169,6,89,36,42,502,404.0,398,455,60,118.0,93,1,305,207,39,0,0,386,11545,-6524,403,,,,,,,,,,,,
31243,1560695602826,9,2.27,1.98,3.38,1.87,5.05,0.76,0.04,0.39,0,-7,1,0.76,5263,6,89,36,42,502,399.0,406,462,60,116.0,93,1,308,208,39,0,0,381,-3968,0,399,45.699593,4.910576,41.13,194.3,0,0.0,-1,0.0,0.0,0,0.15,0.5207
31263,1560695602846,13,2.25,1.98,3.39,1.88,5.05,0.88,0.06,0.39,-0,-11,2,0.88,5247,6,89,36,41,503,395.0,415,458,60,119.0,93,1,306,206,39,0,0,379,505,770,395,,,,,,,,,,,,
31283,1560695602866,9,2.26,1.99,3.41,1.94,5.08,0.7,0.02,0.33,0,-8,1,0.7,5201,6,89,36,41,502,392.0,413,470,60,117.0,101,1,304,206,40,0,0,374,-6475,19125,392,,,,,,,,,,,,
31303,1560695602886,11,2.25,1.99,3.37,1.93,5.03,0.84,0.06,0.31,-2,-10,2,0.84,5120,6,89,36,41,503,388.0,409,453,60,118.0,101,1,303,205,40,0,0,379,-19019,-992,388,,,,,,,,,,,,
31323,1560695602906,9,2.25,1.98,3.35,1.89,5.05,0.81,0.06,0.3,1,-8,2,0.82,5059,6,89,36,41,502,382.0,401,465,60,119.0,101,1,302,205,40,0,0,376,19125,770,381,,,,,,,,,,,,
31343,1560695602926,9,2.25,1.97,3.34,1.85,5.08,0.7,-0.07,0.29,-2,-6,0,0.71,5043,6,89,36,41,502,381.0,401,459,60,117.0,101,1,301,205,40,0,0,370,-18948,770,380,45.699585,4.910568,39.26,194.3,0,0.0,-1,0.0,0.0,0,0.15,0.5224
31363,1560695602946,10,2.25,1.96,3.34,1.83,5.04,0.84,0.04,0.3,-1,-9,1,0.84,5041,6,89,36,41,502,379.0,396,459,60,119.0,101,1,301,205,40,0,0,369,8200,742,375,,,,,,,,,,,,
31383,1560695602966,9,2.26,1.96,3.34,1.82,5.05,0.73,0.04,0.23,0,-6,0,0.73,5002,6,89,36,41,502,374.0,390,464,60,117.0,104,1,301,205,39,0,0,367,742,-1268,372,,,,,,,,,,,,
31403,1560695602986,8,2.25,1.98,3.34,1.83,5.05,0.72,-0.06,0.27,-2,-6,0,0.73,4943,6,89,36,41,502,370.0,393,452,60,116.0,104,1,298,203,39,0,0,363,486,3082,368,,,,,,,,,,,,
31423,1560695602999,7,2.26,2.0,3.35,1.85,5.04,0.85,0.02,0.29,-2,-8,1,0.85,4899,6,89,36,41,502,365.0,388,451,60,118.0,104,1,296,202,39,0,0,360,-6405,-29302,365,,,,,,,,,,,,
31443,1560695603019,9,2.26,2.02,3.4,1.87,5.07,0.93,0.08,0.23,-1,-7,1,0.94,4832,6,89,36,42,502,363.0,378,463,60,118.0,104,1,295,202,39,0,0,350,2790,2060,362,45.699577,4.910561,37.69,194.3,0,0.0,-1,0.0,0.0,0,0.15,0.524
31463,1560695603039,12,2.26,2.01,3.39,1.84,5.04,0.84,0.03,0.15,-1,-6,0,0.84,4790,6,89,35,43,502,361.0,374,461,60,118.0,104,1,295,203,39,0,0,355,-6458,3302,359,,,,,,,,,,,,
31483,1560695603059,8,2.24,2.02,3.37,1.83,5.05,0.76,-0.02,0.14,-2,-3,-1,0.76,4733,6,89,35,43,501,358.0,367,458,60,118.0,100,1,293,201,36,0,0,349,-29978,2811,355,,,,,,,,,,,,
31503,1560695603079,9,2.25,2.01,3.36,1.81,5.05,0.87,-0.12,0.23,-3,-4,-1,0.88,4685,6,89,35,43,501,355.0,369,450,60,116.0,100,1,292,200,36,0,0,343,2060,-1246,354,,,,,,,,,,,,
31523,1560695603105,10,2.25,1.98,3.35,1.8,5.03,0.99,-0.13,0.3,-3,-6,-1,1.0,4658,6,89,35,43,501,351.0,364,457,60,118.0,100,1,291,200,36,0,0,343,28553,-31206,351,,,,,,,,,,,,
31543,1560695603125,9,2.25,1.97,3.34,1.77,5.07,1.09,-0.11,0.34,-3,-8,-1,1.1,4627,6,89,35,44,501,350.0,362,462,60,118.0,100,1,292,201,36,0,0,342,-30454,-31206,346,45.69957,4.910554,35.95,194.3,0,0.0,-1,0.0,0.0,0,0.15,0.5257
31563,1560695603145,8,2.25,1.98,3.35,1.77,5.06,1.14,0.01,0.34,-3,-9,-1,1.14,4615,6,89,35,44,501,345.0,358,458,60,118.0,100,1,291,201,36,0,0,334,6870,-31222,342,,,,,,,,,,,,
31583,1560695603165,11,2.25,1.99,3.36,1.76,5.04,1.2,0.1,0.29,-2,-9,-1,1.21,4564,6,89,35,44,501,340.0,353,463,60,119.0,100,1,290,199,34,0,0,332,3327,2560,337,,,,,,,,,,,,
31603,1560695603185,11,2.25,2.0,3.4,1.78,5.04,1.2,0.16,0.27,-1,-10,-0,1.21,4530,6,89,35,44,501,336.0,354,458,60,119.0,100,1,289,198,34,0,0,326,13,-20736,334,,,,,,,,,,,,
31623,1560695603205,8,2.26,2.01,3.4,1.77,5.05,1.25,0.17,0.24,-1,-9,-0,1.26,4447,6,89,35,45,500,331.0,348,463,60,119.0,100,1,290,196,34,0,0,324,-12032,175,331,,,,,,,,,,,,
31643,1560695603225,9,2.26,2.02,3.4,1.77,5.05,1.27,0.19,0.22,-0,-12,-0,1.28,4377,6,89,35,45,500,331.0,346,456,60,118.0,100,1,289,195,34,0,0,321,-12032,-24576,325,45.699562,4.910549,34.21,194.3,0,0.0,-1,0.0,0.0,0,0.15,0.5274
31663,1560695603245,12,2.25,2.02,3.4,1.77,5.04,1.27,0.2,0.24,-0,-10,1,1.29,4315,6,89,35,44,500,325.0,344,461,60,117.0,100,1,283,193,34,0,0,319,-23296,155,323,,,,,,,,,,,,
31683,1560695603265,11,2.25,2.01,3.41,1.74,5.05,1.27,0.17,0.28,-0,-8,-0,1.28,4265,6,89,35,45,501,323.0,340,455,60,117.0,96,1,286,195,31,0,0,310,-24576,130,320,,,,,,,,,,,,
31703,1560695603285,12,2.26,1.99,3.39,1.73,5.04,1.21,0.16,0.22,-0,-5,-1,1.22,4248,6,89,35,45,501,321.0,336,460,60,116.0,96,1,285,194,31,0,0,308,-25856,130,317,,,,,,,,,,,,
31723,1560695603305,12,2.25,1.98,3.37,1.72,5.08,1.15,0.18,0.18,-0,-4,-1,1.16,4186,6,89,35,45,501,317.0,328,459,60,118.0,96,1,284,193,31,0,0,306,-28416,-32256,313,,,,,,,,,,,,
31743,1560695603325,11,2.27,1.98,3.38,1.72,5.07,1.15,0.18,0.16,0,-5,-1,1.16,4178,6,89,35,44,502,313.0,328,463,60,118.0,96,1,279,189,31,0,0,308,-32256,30720,308,45.699554,4.910542,32.68,194.3,0,0.0,-1,0.0,0.0,0,0.15,0.529
31763,1560695603345,12,2.27,2.0,3.38,1.73,5.04,1.15,0.16,0.19,0,-5,0,1.17,4114,6,89,35,44,502,307.0,329,461,60,118.0,96,1,278,188,31,0,0,301,30720,105,305,,,,,,,,,,,,
31783,1560695603365,16,2.26,2.0,3.38,1.72,5.04,1.15,0.14,0.23,0,-4,-1,1.16,4119,6,89,35,44,502,302.0,318,460,60,116.0,95,1,278,188,29,0,0,294,105,24320,300,,,,,,,,,,,,
31803,1560695603385,11,2.27,1.99,3.39,1.73,5.07,1.11,0.09,0.2,0,-3,-1,1.11,4125,6,89,35,45,502,301.0,323,457,60,118.0,95,1,283,192,29,0,0,295,25600,95,297,,,,,,,,,,,,
31823,1560695603399,11,2.28,2.0,3.4,1.73,5.08,1.13,0.1,0.19,-0,-4,-1,1.14,3959,6,89,35,44,503,296.0,316,458,60,118.0,95,1,272,185,29,0,0,288,90,90,295,,,,,,,,,,,,
31843,1560695603419,13,2.28,2.0,3.39,1.73,5.05,1.08,0.1,0.15,0,-1,-2,1.09,3861,6,89,35,44,503,292.0,311,459,60,116.0,95,1,265,183,29,0,0,285,80,0,292,45.699551,4.910537,30.74,194.3,0,0.0,-1,0.0,0.0,0,0.15,0.5307
31863,1560695603439,10,2.28,1.99,3.4,1.73,5.04,1.12,0.09,0.18,1,-3,-2,1.13,3837,6,89,35,45,503,288.0,303,462,60,119.0,95,1,267,186,29,0,0,284,0,250,288,,,,,,,,,,,,
31883,1560695603459,15,2.28,1.99,3.39,1.74,5.06,1.12,0.08,0.18,0,-2,-2,1.12,3778,6,89,35,45,503,286.0,302,460,60,117.0,90,1,262,185,26,0,0,276,1886,-16896,284,,,,,,,,,,,,
31903,1560695603479,12,2.27,1.99,3.39,1.73,5.08,1.14,0.09,0.18,1,-5,-2,1.14,3693,6,89,35,45,503,280.0,293,464,60,119.0,90,1,255,184,26,0,0,271,250,250,280,,,,,,,,,,,,
31923,1560695603505,13,2.27,1.99,3.39,1.73,5.04,1.11,0.07,0.12,1,-2,-2,1.11,3627,6,89,35,46,502,276.0,291,454,60,117.0,90,1,248,186,26,0,0,269,250,30208,274,,,,,,,,,,,,
31943,1560695603525,14,2.28,1.99,3.41,1.71,5.06,1.12,0.07,0.2,1,-3,-1,1.12,3553,6,89,35,47,502,272.0,285,460,60,118.0,90,1,245,185,26,0,0,263,250,28160,272,45.699543,4.910532,29.15,194.3,0,0.0,-1,0.0,0.0,0,0.15,0.5324
31963,1560695603545,11,2.28,1.99,3.42,1.73,5.07,1.09,0.07,0.18,1,-4,-1,1.09,3483,6,89,35,47,501,270.0,284,462,60,118.0,90,1,236,186,26,0,0,258,-1,-1,269,,,,,,,,,,,,
31983,1560695603565,13,2.27,1.99,3.42,1.74,5.08,1.11,0.06,0.14,1,-1,-1,1.11,3382,6,89,35,49,502,267.0,279,459,60,117.0,89,1,218,191,24,0,0,259,-1,-1,267,,,,,,,,,,,,
32003,1560695603585,13,2.28,1.99,3.42,1.73,5.05,1.11,0.05,0.12,1,1,-2,1.12,3201,6,89,35,49,501,261.0,275,465,60,116.0,89,1,186,189,24,0,0,256,-1,-1,261,,,,,,,,,,,,
32023,1560695603605,14,2.27,1.99,3.42,1.72,5.04,1.08,0.02,0.14,1,3,-1,1.08,3137,6,89,35,51,501,259.0,263,460,60,116.0,89,1,174,190,24,0,0,251,-10440,-10440,259,,,,,,,,,,,,
32043,1560695603625,13,2.27,1.99,3.4,1.72,5.04,1.12,0.02,0.14,1,4,-1,1.12,3106,6,89,35,52,501,255.0,262,461,60,119.0,89,1,169,193,24,0,0,250,-1281,-1,255,45.699535,4.910526,27.51,194.3,0,0.0,-1,0.0,0.0,0,0.15,0.534
32063,1560695603645,13,2.26,2.0,3.41,1.73,5.06,1.08,-0.01,0.16,1,2,-1,1.08,3028,6,89,35,52,501,251.0,257,461,60,118.0,89,1,155,190,24,0,0,245,10818,250,251,,,,,,,,,,,,
32083,1560695603665,11,2.27,1.99,3.41,1.72,5.06,1.09,-0.03,0.16,1,3,-2,1.09,2903,6,89,35,53,501,245.0,251,462,60,117.0,84,1,134,193,21,0,0,241,15360,-1494,245,,,,,,,,,,,,
32103,1560695603685,11,2.28,1.98,3.41,1.71,5.05,1.12,-0.02,0.16,1,5,-3,1.12,2784,6,89,35,54,501,242.0,247,457,60,116.0,84,1,115,197,21,0,0,236,23482,250,242,,,,,,,,,,,,
32123,1560695603705,17,2.27,1.97,3.41,1.7,5.05,1.12,-0.02,0.12,1,7,-3,1.12,2731,6,89,35,56,501,239.0,240,459,60,119.0,84,1,107,203,21,0,0,230,-1484,250,239,,,,,,,,,,,,
32143,1560695603725,12,2.28,1.96,3.41,1.7,5.04,1.15,-0.03,0.14,1,3,-2,1.15,2620,6,89,35,57,501,238.0,231,461,60,118.0,84,1,92,206,21,0,0,226,13468,-1483,236,45.699532,4.910522,25.66,194.3,0,0.0,-1,0.0,0.0,0,0.15,0.5357
32163,1560695603745,12,2.28,1.96,3.41,1.71,5.07,1.11,-0.01,0.18,1,3,-2,1.11,2556,6,89,35,58,502,234.0,229,463,60,119.0,84,1,83,209,21,0,0,226,8704,250,234,,,,,,,,,,,,
32183,1560695603765,16,2.28,1.96,3.36,1.72,5.03,1.15,-0.02,0.14,1,7,-2,1.15,2491,6,89,35,59,502,228.0,225,459,60,117.0,82,1,76,210,19,0,0,222,-1496,250,228,,,,,,,,,,,,
32203,1560695603785,12,2.27,1.97,3.36,1.73,5.05,1.18,-0.02,0.14,0,3,-1,1.18,2425,6,89,35,61,502,223.0,219,462,60,118.0,82,1,78,216,19,0,0,221,1596,250,223,,,,,,,,,,,,
32223,1560695603805,15,2.28,1.97,3.36,1.74,5.03,1.12,-0.0,0.17,1,4,-1,1.12,2259,6,89,35,62,502,221.0,219,456,60,116.0,82,1,76,215,19,0,0,214,-1532,1210,218,,,,,,,,,,,,
32243,1560695603825,9,2.28,1.97,3.37,1.73,5.05,1.14,-0.0,0.13,1,2,-2,1.14,2171,6,89,35,64,502,218.0,208,462,60,119.0,82,1,78,216,19,0,0,213,1088,1088,218,45.699524,4.910518,23.66,194.3,0,0.0,-1,0.0,0.0,0,0.15,0.5374
32263,1560695603845,11,2.27,1.96,3.37,1.73,5.04,1.15,0.0,0.12,1,6,-2,1.15,2074,6,89,35,66,502,214.0,204,466,60,117.0,82,1,78,216,19,0,0,209,250,-1533,214,,,,,,,,,,,,
32283,1560695603865,15,2.28,1.97,3.36,1.73,5.04,1.12,-0.02,0.19,1,2,-1,1.12,1931,6,89,35,67,502,212.0,199,457,60,118.0,75,1,75,214,16,0,0,206,966,-1533,210,,,,,,,,,,,,
32303,1560695603885,10,2.27,1.97,3.37,1.71,5.04,1.1,-0.04,0.14,1,3,-0,1.1,1851,9,89,35,70,502,209.0,193,463,60,118.0,75,1,75,215,16,0,0,204,13964,-1482,209,,,,,,,,,,,,
32323,1560695603905,8,2.29,1.97,3.37,1.72,5.04,1.11,-0.04,0.11,1,4,1,1.11,1754,16,89,35,73,502,203.0,189,458,60,119.0,75,1,71,216,16,0,0,200,-1482,250,203,,,,,,,,,,,,
32343,1560695603925,8,2.27,1.97,3.37,1.72,5.08,1.09,-0.02,0.14,2,4,2,1.09,1643,23,89,35,78,502,202.0,184,459,60,119.0,75,1,81,222,16,0,0,197,12800,-1480,202,45.69952,4.910514,21.81,194.3,0,0.0,-1,0.0,0.0,0,0.15,0.539
32363,1560695603945,4,2.29,1.97,3.36,1.72,5.04,1.08,-0.01,0.17,2,3,2,1.08,1557,31,89,35,83,503,200.0,180,461,60,119.0,75,1,105,247,16,0,0,194,19456,250,200,,,,,,,,,,,,
32383,1560695603965,5,2.27,1.97,3.33,1.73,5.04,1.09,-0.03,0.21,1,3,1,1.09,1566,34,89,35,88,503,198.0,176,460,60,118.0,70,1,159,274,14,0,0,193,250,250,198,,,,,,,,,,,,
32403,1560695603985,2,2.28,1.97,3.29,1.73,5.06,1.09,-0.03,0.21,1,2,0,1.09,1565,35,89,35,92,503,195.0,175,461,60,118.0,70,1,186,308,14,0,0,192,-2560,14326,195,,,,,,,,,,,,
32423,1560695603998,3,2.28,1.97,3.27,1.75,5.07,1.09,-0.02,0.19,1,1,0,1.09,1500,35,89,35,94,503,194.0,173,463,60,118.0,70,1,190,329,14,0,0,189,250,-2560,194,,,,,,,,,,,,
32443,1560695604018,2,2.28,1.98,3.29,1.76,5.04,1.06,-0.01,0.22,1,1,2,1.06,1369,35,89,35,95,503,191.0,167,460,60,118.0,70,1,181,333,14,0,0,189,-1,-1281,191,45.699512,4.910511,20.37,194.3,0,0.0,-1,0.0,0.0,0,0.16,0.5407
32463,1560695604038,2,2.27,1.98,3.32,1.75,5.04,1.06,-0.02,0.24,1,1,2,1.06,1332,23,89,35,95,503,190.0,165,458,60,119.0,70,1,179,331,14,0,0,187,-1,-1,190,,,,,,,,,,,,
32483,1560695604058,0,2.28,1.98,3.32,1.76,5.04,1.03,-0.02,0.28,1,0,2,1.03,1476,8,89,35,94,503,190.0,167,462,60,119.0,84,1,187,328,16,0,0,187,-1,-1,189,,,,,,,,,,,,
32503,1560695604078,0,2.27,2.01,3.32,1.76,5.04,1.03,-0.02,0.31,1,1,3,1.03,1694,6,89,35,93,502,190.0,170,459,60,117.0,84,1,192,323,16,0,0,189,-1,-1,190,,,,,,,,,,,,
32523,1560695604104,3,2.28,2.04,3.29,1.78,5.07,0.99,-0.04,0.37,1,1,2,0.99,2061,6,89,36,91,502,189.0,178,465,60,116.0,84,1,194,301,16,0,0,188,-1,-1,189,,,,,,,,,,,,
32543,1560695604124,-2,2.28,2.07,3.3,1.8,5.06,1.01,-0.05,0.34,0,0,2,1.01,2046,6,89,36,90,502,188.0,180,463,60,119.0,84,1,190,280,16,0,0,188,-1,-1,188,45.699512,4.910506,19.35,194.3,0,0.0,-1,0.0,0.0,0,0.16,0.5424
32563,1560695604144,0,2.27,2.08,3.29,1.82,5.07,1.0,-0.02,0.36,0,2,3,1.01,1997,6,89,36,89,502,188.0,183,458,60,119.0,84,1,183,280,16,0,0,187,-1,-1,188,,,,,,,,,,,,
32583,1560695604164,5,2.27,2.08,3.28,1.86,5.07,0.95,-0.02,0.4,0,0,3,0.95,2016,10,89,36,88,502,187.0,187,460,60,116.0,106,1,178,276,20,0,0,186,-1,-1,187,,,,,,,,,,,,
32603,1560695604184,-2,2.28,2.09,3.29,1.85,5.06,0.98,-0.01,0.38,1,-0,3,0.98,2147,18,89,36,88,502,187.0,188,462,60,118.0,106,1,184,277,20,0,0,187,-1,-1,187,,,,,,,,,,,,
32623,1560695604204,2,2.27,2.09,3.28,1.88,5.06,0.93,-0.0,0.46,1,1,2,0.93,2305,24,89,36,88,502,188.0,194,464,60,117.0,106,1,191,278,20,0,0,187,-1,-1,188,,,,,,,,,,,,
32643,1560695604224,-1,2.28,2.09,3.25,1.92,5.06,0.99,0.01,0.4,1,0,1,0.99,2371,27,89,36,89,502,187.0,196,462,60,119.0,106,1,195,281,20,0,0,187,-1,-1,187,45.699509,4.910503,18.8,194.3,0,0.0,-1,0.0,0.0,0,0.16,0.544
32663,1560695604244,-1,2.27,2.09,3.23,1.91,5.04,0.9,-0.0,0.46,1,-1,2,0.9,2335,28,89,36,89,502,187.0,200,455,60,117.0,106,1,194,281,20,0,0,186,-1,-1,186,,,,,,,,,,,,
32683,1560695604264,2,2.27,2.09,3.23,1.91,5.08,0.94,0.0,0.38,1,3,1,0.94,2393,28,89,36,91,503,186.0,203,457,60,118.0,134,1,201,304,25,0,0,186,-1,-1,186,,,,,,,,,,,,
32703,1560695604284,-0,2.27,2.08,3.22,1.91,5.08,0.92,-0.0,0.45,0,-3,3,0.92,2484,28,89,36,90,502,186.0,205,463,60,119.0,134,1,199,285,25,0,0,186,-1,-1,186,,,,,,,,,,,,
32723,1560695604304,-1,2.27,2.09,3.22,1.92,5.07,0.87,-0.02,0.48,0,2,2,0.87,2523,28,89,36,90,503,186.0,210,458,60,116.0,134,1,200,306,25,0,0,185,-1,-1,186,,,,,,,,,,,,
32743,1560695604324,3,2.27,2.08,3.22,1.92,5.07,0.92,0.02,0.44,1,4,-0,0.92,2503,28,89,36,91,502,186.0,210,459,60,118.0,134,1,205,305,25,0,0,185,-1,-1,186,45.699505,4.9105,18.1,194.3,0,0.0,-1,0.0,0.0,0,0.16,0.5457
32763,1560695604344,1,2.26,2.08,3.21,1.93,5.07,0.92,0.03,0.48,1,-4,1,0.92,2520,28,89,36,90,502,186.0,211,466,60,119.0,134,1,200,286,25,0,0,185,-1,-1,186,,,,,,,,,,,,
32783,1560695604364,6,2.27,2.09,3.21,1.94,5.04,0.89,-0.02,0.47,0,-2,2,0.89,2600,17,89,36,89,502,186.0,216,453,60,117.0,150,1,204,287,28,0,0,184,-1,-1,186,,,,,,,,,,,,
32803,1560695604384,6,2.27,2.06,3.22,1.92,5.05,0.94,-0.02,0.45,0,3,1,0.94,2591,8,89,36,88,502,183.0,217,463,60,117.0,150,1,202,283,28,0,0,183,-1,-1,182,,,,,,,,,,,,
32823,1560695604404,11,2.26,2.04,3.22,1.89,5.07,1.0,0.01,0.46,0,-1,0,1.0,2572,6,89,36,86,502,181.0,218,460,60,119.0,150,1,202,276,28,0,0,180,-236,-236,181,,,,,,,,,,,,
32843,1560695604424,11,2.26,2.02,3.25,1.87,5.04,1.02,0.0,0.5,-0,-8,1,1.02,2676,6,89,36,84,502,179.0,217,466,60,118.0,150,1,207,272,28,0,0,176,3584,-236,177,45.699497,4.910496,18.14,194.3,0,0.0,-1,0.0,0.0,0,0.16,0.5474
32863,1560695604444,12,2.25,2.02,3.29,1.86,5.06,0.98,-0.02,0.47,0,-5,2,0.98,2738,6,89,36,82,503,176.0,221,455,60,118.0,150,1,200,267,28,0,0,175,10620,10620,175,,,,,,,,,,,,
32883,1560695604464,14,2.27,2.02,3.3,1.87,5.04,0.97,-0.02,0.43,0,-3,1,0.97,2735,6,89,36,81,502,172.0,224,457,60,116.0,156,1,191,264,27,0,0,169,-1281,-1281,172,,,,,,,,,,,,
32903,1560695604484,14,2.26,2.02,3.34,1.87,5.04,0.98,-0.02,0.36,0,1,0,0.98,2809,6,89,36,80,502,170.0,225,460,60,118.0,156,1,189,265,27,0,0,166,-1,-253,166,,,,,,,,,,,,
32923,1560695604504,12,2.27,2.02,3.38,1.86,5.04,1.03,-0.01,0.33,1,3,0,1.03,2878,6,89,36,78,503,165.0,228,462,60,118.0,156,1,182,265,27,0,0,161,30720,30720,164,,,,,,,,,,,,
32943,1560695604524,12,2.27,2.01,3.37,1.85,5.07,1.04,-0.02,0.26,1,5,-1,1.04,2959,6,89,36,77,502,162.0,233,460,60,118.0,156,1,188,271,27,0,0,159,-1281,-1281,162,45.699493,4.910493,17.72,194.3,0,0.0,-1,0.0,0.0,0,0.16,0.549
32963,1560695604544,14,2.27,2.0,3.38,1.85,5.07,1.04,0.0,0.24,1,5,-1,1.04,2916,6,89,36,76,503,159.0,233,457,60,119.0,156,1,176,267,27,0,0,154,-1,-165,159,,,,,,,,,,,,
32983,1560695604564,13,2.26,2.01,3.37,1.84,5.04,1.05,0.02,0.17,1,4,-1,1.05,2941,6,89,36,75,502,156.0,236,462,60,119.0,185,1,176,270,29,0,0,151,23460,-23552,156,,,,,,,,,,,,
33003,1560695604584,12,2.26,2.0,3.36,1.83,5.07,1.05,0.03,0.16,1,6,-2,1.05,3119,6,89,36,74,503,153.0,240,466,60,118.0,185,1,195,271,29,0,0,148,-1281,-1281,149,,,,,,,,,,,,
33023,1560695604606,9,2.26,2.0,3.35,1.82,5.04,1.05,0.02,0.16,1,9,-2,1.05,3217,6,89,36,73,503,147.0,248,459,60,117.0,185,1,204,270,29,0,0,145,-1,-1,146,,,,,,,,,,,,
33043,1560695604626,9,2.26,1.98,3.34,1.82,5.03,1.05,0.03,0.17,1,9,-2,1.05,3212,6,89,36,71,503,145.0,249,458,60,118.0,185,1,199,263,29,0,0,143,-1,5140,143,45.699493,4.91049,16.28,194.3,0,0.0,-1,0.0,0.0,0,0.16,0.5507
33063,1560695604646,10,2.27,2.01,3.35,1.82,5.07,1.06,0.03,0.2,1,5,-2,1.06,3360,6,89,36,70,503,142.0,251,459,60,118.0,185,1,219,265,29,0,0,140,5140,5120,141,,,,,,,,,,,,
33083,1560695604666,6,2.27,2.0,3.36,1.83,5.08,1.06,0.05,0.17,1,4,-1,1.06,3485,6,89,36,69,502,140.0,259,462,60,118.0,248,1,237,267,35,0,0,136,-1,-1281,139,,,,,,,,,,,,
33103,1560695604686,5,2.26,2.01,3.35,1.84,5.04,1.03,0.03,0.17,1,6,-1,1.03,3481,6,89,36,68,502,137.0,264,460,60,118.0,248,1,236,264,35,0,0,135,-1,-1,137,,,,,,,,,,,,
33123,1560695604706,11,2.26,2.01,3.34,1.84,5.07,1.05,0.01,0.25,1,3,0,1.05,3565,6,89,36,66,502,135.0,268,464,60,118.0,248,1,246,262,35,0,0,134,-1,-1,135,,,,,,,,,,,,
33143,1560695604726,3,2.26,2.01,3.33,1.83,5.07,1.04,0.02,0.24,1,5,-0,1.04,3682,8,89,36,65,502,133.0,274,460,60,118.0,248,1,259,268,35,0,0,131,-1,-1,133,45.69949,4.910488,14.66,194.3,0,0.0,-1,0.0,0.0,0,0.16,0.5524
33163,1560695604746,3,2.26,2.01,3.33,1.83,5.08,1.06,0.04,0.29,1,2,0,1.06,3772,12,89,36,65,502,132.0,281,457,60,119.0,248,1,269,270,35,0,0,131,-1,-1,132,,,,,,,,,,,,
33183,1560695604766,6,2.25,2.02,3.32,1.83,5.06,1.02,0.01,0.28,0,3,-0,1.02,3963,15,89,36,64,501,131.0,288,458,60,117.0,300,1,289,275,39,0,0,130,-1,-1,130,,,,,,,,,,,,
33203,1560695604786,2,2.26,2.03,3.31,1.83,5.07,1.0,0.0,0.29,1,3,-0,1.0,4092,18,89,36,65,501,129.0,299,459,60,119.0,300,1,294,280,39,0,0,128,-1,-202,128,,,,,,,,,,,,
33223,1560695604806,4,2.26,2.03,3.31,1.84,5.06,0.99,0.02,0.3,1,1,0,0.99,4140,20,89,36,66,501,127.0,301,468,60,119.0,300,1,295,286,39,0,0,127,-202,13868,127,,,,,,,,,,,,
33243,1560695604826,5,2.25,2.04,3.32,1.82,5.05,1.03,0.03,0.34,0,-1,1,1.03,4277,20,89,36,66,501,125.0,312,457,60,118.0,300,1,294,288,39,0,0,125,11264,13868,125,45.699486,4.910485,13.29,194.3,0,0.0,-1,0.0,0.0,0,0.16,0.5541
33263,1560695604846,5,2.24,2.04,3.32,1.82,5.05,1.09,0.02,0.41,0,-2,1,1.09,4427,21,89,36,67,501,125.0,321,453,60,118.0,300,1,293,297,39,0,0,124,250,250,123,,,,,,,,,,,,
33283,1560695604866,4,2.24,2.04,3.32,1.83,5.06,1.14,0.03,0.43,0,-3,-0,1.14,4499,15,89,36,67,501,124.0,325,457,60,117.0,414,1,293,298,51,0,0,122,250,-1482,122,,,,,,,,,,,,
33303,1560695604886,4,2.24,2.04,3.33,1.83,5.04,1.21,0.08,0.43,0,-4,0,1.22,4625,8,89,36,64,501,122.0,338,447,60,118.0,414,1,293,288,51,0,0,121,13862,9728,121,,,,,,,,,,,,
33323,1560695604906,4,2.26,2.03,3.33,1.84,5.05,1.24,0.17,0.42,1,-6,0,1.25,4696,6,89,36,63,500,121.0,341,460,60,118.0,414,1,293,276,51,0,0,119,9728,-1482,119,,,,,,,,,,,,
33343,1560695604926,4,2.25,2.04,3.32,1.85,5.05,1.22,0.23,0.37,1,-6,1,1.24,4606,6,89,36,61,500,120.0,351,457,60,119.0,414,1,294,264,51,0,0,118,250,8192,118,45.699482,4.910483,12.72,194.3,0,0.0,-1,0.0,0.0,0,0.16,0.5557
33363,1560695604946,3,2.26,2.04,3.32,1.84,5.06,1.18,0.29,0.29,2,-6,2,1.21,4631,5,89,36,59,500,118.0,350,465,60,118.0,414,1,296,254,51,0,0,117,13856,8192,116,,,,,,,,,,,,
33383,1560695604966,4,2.25,2.05,3.31,1.84,5.04,1.12,0.26,0.26,2,-5,3,1.15,4533,5,89,36,58,500,116.0,344,471,60,119.0,370,1,296,244,43,0,0,116,250,-1482,116,,,,,,,,,,,,
33403,1560695604986,4,2.25,2.05,3.31,1.83,5.07,1.06,0.2,0.28,2,-4,3,1.07,4554,5,89,36,57,501,116.0,346,468,60,118.0,370,1,296,240,43,0,0,114,250,13850,115,,,,,,,,,,,,
33423,1560695604999,4,2.25,2.04,3.31,1.83,5.07,1.0,0.12,0.28,2,-3,2,1.01,4536,7,89,36,56,501,114.0,342,460,60,118.0,370,1,297,235,43,0,0,114,13850,250,113,,,,,,,,,,,,
33443,1560695605019,5,2.25,2.04,3.31,1.84,5.04,0.96,0.09,0.23,2,-2,2,0.96,4499,9,89,36,55,501,112.0,347,464,60,119.0,370,1,298,234,43,0,0,112,250,250,112,45.699478,4.910481,11.71,194.2,0,0.0,-1,0.0,0.0,0,0.16,0.5574
33463,1560695605039,2,2.25,2.05,3.31,1.84,5.05,0.95,0.06,0.23,2,-2,2,0.96,4422,10,89,36,55,501,111.0,341,472,60,119.0,370,1,298,234,43,0,0,111,-1482,13844,111,,,,,,,,,,,,
33483,1560695605059,4,2.24,2.05,3.32,1.83,5.07,0.95,0.05,0.24,2,-3,3,0.96,4346,10,89,36,55,501,111.0,337,461,60,119.0,342,1,298,229,38,0,0,109,-1482,5120,108,,,,,,,,,,,,
33503,1560695605079,4,2.25,2.05,3.32,1.83,5.06,0.99,0.08,0.27,2,-4,3,0.99,4314,11,89,36,55,501,109.0,335,458,60,119.0,342,1,298,229,38,0,0,108,5120,5120,108,,,,,,,,,,,,
33523,1560695605105,4,2.25,2.06,3.32,1.83,5.06,1.01,0.07,0.28,2,-4,2,1.01,4278,11,89,36,54,501,108.0,330,456,60,118.0,342,1,298,228,38,0,0,106,250,3584,108,,,,,,,,,,,,
33543,1560695605125,6,2.26,2.05,3.32,1.83,5.06,1.02,0.06,0.31,2,-4,2,1.03,4240,11,89,36,55,501,106.0,332,462,60,117.0,342,1,298,232,38,0,0,106,13838,3584,105,45.699478,4.910479,10.72,194.2,0,0.0,-1,0.0,0.0,0,0.16,0.559
33563,1560695605145,6,2.24,2.04,3.31,1.83,5.06,0.98,0.06,0.32,1,-2,1,0.98,4222,11,89,36,55,501,104.0,323,460,60,118.0,342,1,298,232,38,0,0,104,250,3584,104,,,,,,,,,,,,
33583,1560695605165,1,2.27,2.06,3.31,1.84,5.05,0.98,0.07,0.28,1,0,0,0.98,4193,11,89,36,54,501,104.0,328,458,60,118.0,346,1,298,227,36,0,0,102,250,-1482,102,,,,,,,,,,,,
33603,1560695605185,3,2.27,2.05,3.32,1.84,5.04,0.96,0.08,0.3,1,-2,1,0.97,4236,11,89,36,54,501,102.0,323,462,60,119.0,346,1,298,228,36,0,0,100,13832,2048,101,,,,,,,,,,,,
33623,1560695605205,2,2.27,2.05,3.31,1.83,5.07,0.98,0.1,0.3,1,-4,1,0.98,4271,11,89,35,54,501,101.0,327,461,60,118.0,346,1,298,228,36,0,0,99,2048,250,101,,,,,,,,,,,,
33643,1560695605225,4,2.26,2.05,3.31,1.84,5.04,0.99,0.07,0.34,1,-4,0,0.99,4206,14,89,35,54,501,99.0,331,458,60,118.0,346,1,298,232,36,0,0,99,-1483,250,99,45.699474,4.910477,10.45,194.2,0,0.0,-1,0.0,0.0,0,0.16,0.5607
33663,1560695605245,8,2.26,2.05,3.3,1.83,5.04,0.98,0.05,0.36,1,-2,-1,0.98,4275,16,89,35,56,501,97.0,326,458,60,118.0,346,1,297,237,36,0,0,97,-22528,-22528,97,,,,,,,,,,,,
33683,1560695605265,4,2.27,2.06,3.31,1.83,5.04,0.95,0.03,0.31,1,-0,-1,0.95,4291,16,89,35,57,502,97.0,328,459,60,118.0,391,1,296,242,38,0,0,95,-22528,250,96,,,,,,,,,,,,
33703,1560695605285,4,2.26,2.06,3.31,1.83,5.05,0.9,0.0,0.32,1,1,-1,0.9,4272,17,89,35,58,502,96.0,326,459,60,118.0,391,1,295,247,38,0,0,95,-1481,14312,96,,,,,,,,,,,,
33723,1560695605305,3,2.27,2.05,3.31,1.84,5.07,0.88,0.04,0.29,1,0,-1,0.88,4379,17,89,35,59,502,94.0,333,463,60,119.0,391,1,294,252,38,0,0,94,14312,14312,94,,,,,,,,,,,,
33743,1560695605325,4,2.26,2.04,3.31,1.85,5.04,0.88,0.05,0.29,1,-0,0,0.88,4386,17,89,35,59,502,94.0,332,465,60,119.0,391,1,294,252,38,0,0,92,14312,-6144,92,45.699474,4.910476,9.68,194.2,0,0.0,-1,0.0,0.0,0,0.16,0.5624
33763,1560695605345,5,2.26,2.06,3.31,1.85,5.04,0.89,0.06,0.3,2,-1,1,0.89,4467,18,89,35,60,502,92.0,338,457,60,119.0,391,1,294,253,38,0,0,90,250,-1481,92,,,,,,,,,,,,
33783,1560695605365,5,2.26,2.05,3.3,1.84,5.07,0.89,0.08,0.27,2,-1,2,0.89,4547,17,89,35,60,502,90.0,342,460,60,118.0,488,1,294,258,44,0,0,90,14298,-1481,90,,,,,,,,,,,,
33803,1560695605385,6,2.26,2.06,3.31,1.85,5.04,0.85,0.1,0.22,2,-2,2,0.86,4598,17,89,35,61,502,90.0,348,466,60,119.0,488,1,293,258,44,0,0,89,250,-9728,88,,,,,,,,,,,,
33823,1560695605405,6,2.26,2.06,3.3,1.85,5.04,0.81,0.04,0.22,2,0,2,0.81,4676,17,89,35,61,502,88.0,351,468,60,118.0,488,1,294,264,44,0,0,86,250,-1481,88,,,,,,,,,,,,
33843,1560695605425,8,2.27,2.06,3.3,1.85,5.04,0.75,-0.03,0.26,2,2,2,0.75,4725,16,89,35,61,502,87.0,359,463,60,118.0,488,1,294,264,44,0,0,86,14284,-13312,87,45.699474,4.910474,9.01,194.2,0,0.0,-1,0.0,0.0,0,0.16,0.564
33863,1560695605445,4,2.26,2.06,3.3,1.84,5.05,0.72,-0.04,0.34,1,2,1,0.72,4750,16,89,35,61,502,86.0,362,456,60,116.0,488,1,294,264,44,0,0,85,14284,-13312,85,,,,,,,,,,,,
33883,1560695605465,3,2.27,2.05,3.31,1.84,5.07,0.81,-0.08,0.38,0,0,-1,0.82,4791,16,89,35,60,502,85.0,366,453,60,118.0,552,1,295,264,47,0,0,83,250,-1481,85,,,,,,,,,,,,
33903,1560695605485,5,2.27,2.05,3.31,1.84,5.07,0.87,0.04,0.33,1,-1,-1,0.87,4868,16,89,35,61,502,83.0,367,454,60,119.0,552,1,295,265,47,0,0,83,14270,-1481,83,,,,,,,,,,,,
33923,1560695605505,9,2.27,2.06,3.32,1.84,5.05,0.82,0.03,0.27,2,1,0,0.82,4935,16,89,35,61,502,82.0,369,464,60,118.0,552,1,295,265,47,0,0,80,14270,-16896,80,,,,,,,,,,,,
33943,1560695605525,4,2.26,2.06,3.31,1.85,5.07,0.75,-0.06,0.35,1,2,0,0.75,4974,16,89,35,61,502,80.0,383,457,60,116.0,552,1,295,265,47,0,0,80,250,-1481,80,45.69947,4.910472,8.32,194.2,0,0.0,-1,0.0,0.0,0,0.16,0.5657
33963,1560695605545,3,2.27,2.06,3.31,1.84,5.06,0.87,-0.01,0.41,0,-1,0,0.87,5021,16,89,35,61,502,79.0,384,452,60,118.0,552,1,297,266,47,0,0,79,14256,-1481,79,,,,,,,,,,,,
33983,1560695605565,7,2.27,2.05,3.3,1.83,5.07,0.84,0.01,0.34,2,1,-0,0.84,5025,16,89,35,61,502,79.0,385,465,60,118.0,632,1,298,266,50,0,0,77,14256,-20480,79,,,,,,,,,,,,
34003,1560695605585,3,2.27,2.06,3.31,1.83,5.04,0.78,-0.09,0.39,0,1,-1,0.79,5064,16,89,35,61,502,76.0,393,459,60,119.0,632,1,301,265,50,0,0,77,250,-20480,76,,,,,,,,,,,,
34023,1560695605605,4,2.26,2.06,3.3,1.84,5.05,0.9,0.03,0.37,0,-1,-0,0.9,5010,16,89,35,61,502,76.0,396,456,60,119.0,632,1,296,261,50,0,0,75,250,-1481,75,,,,,,,,,,,,
34043,1560695605625,4,2.26,2.06,3.31,1.83,5.04,0.87,0.04,0.36,2,1,0,0.87,4873,16,89,35,61,503,75.0,387,468,60,118.0,632,1,295,265,50,0,0,75,-1481,-24064,75,45.69947,4.910471,7.9,194.2,0,0.0,-1,0.0,0.0,0,0.16,0.5674
34063,1560695605645,3,2.26,2.05,3.31,1.84,5.08,0.78,-0.05,0.39,1,2,-0,0.78,4757,16,89,35,61,503,75.0,389,460,60,118.0,632,1,294,264,50,0,0,72,-1481,-24064,72,,,,,,,,,,,,
34083,1560695605665,2,2.27,2.06,3.32,1.82,5.06,0.72,-0.05,0.39,1,4,-1,0.72,4613,16,89,35,61,504,72.0,370,459,60,118.0,638,1,294,264,46,0,0,72,250,-1481,72,,,,,,,,,,,,
34103,1560695605685,3,2.26,2.06,3.32,1.83,5.06,0.7,-0.04,0.33,0,5,-2,0.7,4430,16,89,35,61,505,70.0,366,455,60,117.0,638,1,293,263,46,0,0,70,14228,-1481,70,,,,,,,,,,,,
34123,1560695605705,7,2.26,2.06,3.31,1.83,5.04,0.67,-0.05,0.32,-0,5,-2,0.67,4334,16,89,35,60,505,70.0,343,456,60,116.0,638,1,293,419,46,0,0,70,14228,250,70,,,,,,,,,,,,
34143,1560695605725,3,2.26,2.06,3.31,1.83,5.04,0.68,-0.06,0.34,-0,5,-1,0.68,4304,15,89,35,60,504,68.0,344,464,60,118.0,638,1,293,384,46,0,0,67,250,250,68,45.699467,4.91047,7.11,194.3,0,0.0,-1,0.0,0.0,0,0.16,0.569
34163,1560695605745,1,2.26,2.06,3.31,1.83,5.05,0.68,-0.03,0.36,0,6,-1,0.68,4236,15,89,35,60,504,68.0,329,465,60,119.0,638,1,293,349,46,0,0,67,250,14054,68,,,,,,,,,,,,
34183,1560695605765,2,2.27,2.06,3.31,1.84,5.03,0.71,0.05,0.35,1,4,-1,0.71,4515,15,89,35,60,503,66.0,336,452,60,118.0,833,1,294,314,55,0,0,66,-6656,14054,66,,,,,,,,,,,,
34203,1560695605785,2,2.26,2.06,3.31,1.84,5.04,0.74,0.11,0.34,2,3,-0,0.75,4509,15,89,35,60,502,66.0,342,462,60,119.0,833,1,294,275,55,0,0,66,-6656,250,66,,,,,,,,,,,,
34223,1560695605805,4,2.27,2.06,3.31,1.84,5.04,0.74,0.1,0.33,2,1,0,0.75,4597,15,89,35,60,502,63.0,346,461,60,119.0,833,1,294,258,55,0,0,63,-1281,250,63,,,,,,,,,,,,
34243,1560695605825,5,2.26,2.06,3.31,1.84,5.03,0.72,0.09,0.3,2,2,1,0.72,4554,15,89,35,61,502,63.0,350,460,60,118.0,833,1,293,263,55,0,0,63,-1281,-1,63,45.699467,4.910469,6.55,194.3,0,0.0,-1,0.0,0.0,0,0.16,0.5707
34263,1560695605845,5,2.26,2.06,3.31,1.84,5.04,0.69,0.06,0.24,3,2,1,0.69,4577,15,89,35,61,502,63.0,347,462,60,119.0,833,1,293,263,55,0,0,61,-1,-1,61,,,,,,,,,,,,
34283,1560695605865,6,2.27,2.06,3.31,1.83,5.06,0.61,0.0,0.24,3,4,1,0.61,4618,15,89,35,61,502,61.0,351,466,60,118.0,737,1,294,264,45,0,0,61,-1,-1,61,,,,,,,,,,,,
34303,1560695605885,5,2.27,2.06,3.31,1.84,5.05,0.57,-0.08,0.27,2,5,1,0.58,4669,16,89,35,61,502,61.0,357,458,60,117.0,737,1,294,264,45,0,0,58,-1,-1,59,,,,,,,,,,,,
34323,1560695605905,3,2.27,2.06,3.31,1.84,5.07,0.6,-0.11,0.36,0,4,-0,0.61,4763,16,89,35,61,502,59.0,361,454,60,116.0,737,1,294,264,45,0,0,58,-1,-1,59,,,,,,,,,,,,
34343,1560695605925,2,2.27,2.06,3.3,1.83,5.07,0.73,-0.14,0.4,0,2,-1,0.75,4790,16,89,35,61,502,59.0,366,453,60,118.0,737,1,294,264,45,0,0,56,-1,-1,57,45.699467,4.910467,6.02,194.3,0,0.0,-1,0.0,0.0,0,0.16,0.5724
34363,1560695605945,5,2.27,2.06,3.3,1.84,5.05,0.82,0.02,0.33,1,0,-0,0.82,4881,16,89,35,61,502,57.0,369,453,60,119.0,737,1,295,265,45,0,0,56,-1,-1,57,,,,,,,,,,,,
34383,1560695605965,6,2.27,2.06,3.3,1.84,5.05,0.74,0.03,0.3,2,3,0,0.74,4886,16,89,35,61,502,57.0,371,462,60,118.0,859,1,295,265,49,0,0,56,-1,-1,57,,,,,,,,,,,,
34403,1560695605985,3,2.27,2.06,3.31,1.84,5.05,0.68,-0.08,0.38,0,3,0,0.69,4956,16,89,35,62,501,54.0,388,456,60,116.0,859,1,294,272,49,0,0,53,-1,-1,54,,,,,,,,,,,,
34423,1560695605998,2,2.28,2.07,3.31,1.84,5.06,0.82,-0.03,0.45,0,-0,0,0.82,5018,16,89,35,61,501,54.0,384,454,60,118.0,859,1,297,273,49,0,0,53,-1,-1,54,,,,,,,,,,,,
34443,1560695606018,7,2.28,2.07,3.31,1.84,5.04,0.76,-0.01,0.37,2,2,-0,0.76,5034,16,89,35,62,501,53.0,384,463,60,118.0,859,1,297,273,49,0,0,51,-1,-1,51,45.699467,4.910467,5.52,194.3,0,0.0,-1,0.0,0.0,0,0.16,0.574
34463,1560695606038,2,2.29,2.07,3.3,1.85,5.04,0.65,-0.06,0.39,-0,3,-1,0.66,5064,16,89,35,62,501,51.0,392,454,60,117.0,859,1,300,272,49,0,0,51,-1,-1,51,,,,,,,,,,,,
34483,1560695606058,6,2.29,2.06,3.31,1.84,5.04,0.79,0.1,0.36,2,-1,1,0.8,5128,16,89,35,61,501,51.0,392,451,60,118.0,1019,1,306,264,52,0,0,51,-1,-1,51,,,,,,,,,,,,
34503,1560695606078,3,2.29,2.06,3.31,1.84,5.07,0.56,-0.02,0.39,2,4,0,0.56,5136,16,89,35,62,501,51.0,395,470,60,117.0,1019,1,309,271,52,0,0,48,-1,-1,49,,,,,,,,,,,,
34523,1560695606104,4,2.3,2.06,3.31,1.85,5.07,0.7,0.01,0.44,0,1,1,0.7,5247,17,89,35,61,501,49.0,406,457,60,119.0,1019,1,316,262,52,0,0,48,-1,-1,49,,,,,,,,,,,,
34543,1560695606124,2,2.3,2.06,3.31,1.84,5.05,0.53,-0.02,0.47,2,2,-0,0.53,5289,17,89,35,61,500,49.0,413,461,60,117.0,1019,1,320,261,52,0,0,48,-1,-1,49,45.699463,4.910466,4.88,194.3,0,0.0,-1,0.0,0.0,0,0.16,0.5757
34563,1560695606144,8,2.29,2.07,3.31,1.85,5.04,0.68,-0.01,0.47,1,-0,-0,0.68,5347,17,89,35,61,501,48.0,413,454,60,118.0,1019,1,325,260,52,0,0,46,-1,-1,46,,,,,,,,,,,,
34583,1560695606164,4,2.3,2.06,3.31,1.84,5.07,0.57,-0.06,0.48,-0,1,-0,0.57,5464,17,89,35,61,501,46.0,421,457,60,117.0,1152,1,335,257,53,0,0,46,-1,-1,46,,,,,,,,,,,,
34603,1560695606184,1,2.3,2.07,3.31,1.84,5.07,0.64,0.01,0.46,2,1,0,0.64,5524,17,89,35,60,501,46.0,423,465,60,118.0,1152,1,341,254,53,0,0,46,-1,-1,46,,,,,,,,,,,,
34623,1560695606204,3,2.29,2.06,3.31,1.84,5.08,0.75,0.0,0.44,1,1,-0,0.75,5644,17,89,35,59,501,44.0,427,463,60,119.0,1152,1,351,252,53,0,0,43,-235,-1,44,,,,,,,,,,,,
34643,1560695606224,3,2.3,2.06,3.31,1.84,5.07,0.76,-0.04,0.39,-0,2,-1,0.76,5792,17,89,35,58,501,44.0,441,456,60,118.0,1152,1,365,251,53,0,0,43,-235,-1,44,45.699463,4.910465,4.32,194.4,0,0.0,-1,0.0,0.0,0,0.16,0.5774
34663,1560695606244,2,2.3,2.07,3.3,1.85,5.04,0.7,-0.04,0.28,-0,5,-1,0.7,5942,18,89,35,57,501,44.0,451,455,60,118.0,1152,1,378,252,53,0,0,43,-235,5470,44,,,,,,,,,,,,
34683,1560695606264,2,2.29,2.06,3.3,1.85,5.04,0.63,-0.02,0.17,0,8,-1,0.63,6125,18,89,35,55,501,43.0,462,455,60,118.0,1414,1,384,256,58,0,0,41,-235,5470,41,,,,,,,,,,,,
34703,1560695606284,3,2.29,2.06,3.3,1.85,5.03,0.6,-0.03,0.11,1,9,-2,0.6,6291,18,89,35,53,501,41.0,473,451,60,118.0,1414,1,381,250,58,0,0,41,1018,5470,41,,,,,,,,,,,,
34723,1560695606304,6,2.29,2.06,3.3,1.85,5.03,0.69,-0.05,0.2,-0,8,-2,0.69,6434,18,89,35,52,501,41.0,479,468,60,118.0,1414,1,379,245,58,0,0,41,1018,-1281,41,,,,,,,,,,,,
34743,1560695606324,2,2.29,2.07,3.3,1.84,5.07,0.72,-0.0,0.19,-0,8,-1,0.72,6606,18,89,35,50,501,40.0,501,463,60,118.0,1414,1,375,240,58,0,0,37,1018,-1281,38,45.699463,4.910464,4.01,194.4,0,0.0,-1,0.0,0.0,0,0.16,0.579
34763,1560695606344,5,2.3,2.06,3.29,1.84,5.04,0.68,-0.08,0.19,-0,8,-1,0.69,6703,18,89,35,49,501,38.0,510,452,60,118.0,1414,1,373,229,58,0,0,37,-1,-1281,38,,,,,,,,,,,,
34783,1560695606364,2,2.3,2.06,3.3,1.85,5.07,0.72,-0.01,0.2,-0,7,0,0.72,6795,18,89,35,48,501,38.0,520,457,60,117.0,1526,1,370,225,58,0,0,37,-1,-1281,38,,,,,,,,,,,,
34803,1560695606384,7,2.28,2.06,3.3,1.85,5.07,0.74,-0.03,0.27,-0,7,1,0.74,6870,18,89,35,47,501,38.0,523,461,60,117.0,1526,1,368,221,58,0,0,37,-1,-1,38,,,,,,,,,,,,
34823,1560695606404,3,2.29,2.06,3.3,1.84,5.07,0.67,0.05,0.19,0,8,1,0.67,7004,18,89,35,45,500,37.0,537,458,60,118.0,1526,1,355,218,58,0,0,34,-1,-1,35,,,,,,,,,,,,
34843,1560695606424,3,2.28,2.07,3.3,1.85,5.04,0.74,0.07,0.34,0,5,-1,0.75,7035,18,89,35,45,500,35.0,546,462,60,117.0,1526,1,355,218,58,0,0,34,-1,-1,35,45.699463,4.910464,3.69,194.4,0,0.0,-1,0.0,0.0,0,0.16,0.5807
34863,1560695606444,20,2.29,2.07,3.3,1.85,5.06,0.86,0.0,0.41,-1,2,-3,0.86,7099,18,89,35,44,500,35.0,547,460,60,117.0,1526,1,347,214,58,0,0,34,-1,-1,35,,,,,,,,,,,,
34883,1560695606464,4,2.26,2.05,3.29,1.84,5.03,0.77,-0.07,0.31,0,3,-4,0.77,7183,18,89,35,43,500,35.0,551,457,60,118.0,1657,1,340,212,58,0,0,34,-1,-1,35,,,,,,,,,,,,
34903,1560695606484,3,2.29,2.06,3.29,1.84,5.04,0.76,-0.06,0.23,1,3,-1,0.76,7203,18,89,35,41,500,34.0,563,460,60,118.0,1657,1,325,212,58,0,0,31,-1,-1,31,,,,,,,,,,,,
34923,1560695606504,2,2.29,2.06,3.29,1.85,5.05,0.73,0.03,0.22,1,6,2,0.73,7233,18,89,35,41,500,31.0,560,461,60,117.0,1657,1,325,210,58,0,0,31,-1,-1,31,,,,,,,,,,,,
34943,1560695606524,3,2.29,2.06,3.29,1.85,5.03,0.86,0.04,0.33,1,3,3,0.86,7273,18,89,35,40,500,31.0,562,460,60,117.0,1657,1,317,208,58,0,0,31,-1,-1,31,45.699459,4.910463,3.14,194.4,0,0.0,-1,0.0,0.0,0,0.16,0.5824
34963,1560695606544,1,2.29,2.07,3.29,1.84,5.05,0.97,0.03,0.44,-1,-0,-1,0.97,7247,18,89,35,40,500,31.0,553,458,60,118.0,1657,1,317,208,58,0,0,31,-1,-1,31,,,,,,,,,,,,
34983,1560695606564,7,2.28,2.07,3.29,1.84,5.05,0.95,-0.08,0.44,-0,-1,-3,0.95,7275,18,89,35,39,500,31.0,557,461,60,118.0,1838,1,310,207,57,0,0,31,-1,-1,31,,,,,,,,,,,,
35003,1560695606584,5,2.29,2.07,3.29,1.86,5.08,0.95,-0.12,0.38,-0,-1,-2,0.96,7231,18,89,35,38,500,30.0,559,461,60,118.0,1838,1,307,201,57,0,0,27,-1,-1,28,,,,,,,,,,,,
35023,1560695606604,5,2.29,2.07,3.29,1.86,5.04,0.88,-0.06,0.3,0,2,1,0.88,7250,18,89,35,38,500,28.0,555,464,60,117.0,1838,1,307,201,57,0,0,27,5442,-1,28,,,,,,,,,,,,
35043,1560695606624,4,2.29,2.06,3.29,1.85,5.07,0.9,0.0,0.39,1,1,2,0.9,7211,18,89,35,38,500,28.0,558,460,60,117.0,1838,1,307,201,57,0,0,27,5442,-1,28,45.699459,4.910462,2.67,194.4,0,0.0,-1,0.0,0.0,0,0.16,0.584
35063,1560695606644,2,2.29,2.06,3.3,1.85,5.08,0.9,0.05,0.43,0,-2,-1,0.9,7225,18,89,35,38,500,28.0,557,461,60,117.0,1838,1,307,201,57,0,0,27,5442,1018,28,,,,,,,,,,,,
35083,1560695606664,4,2.29,2.06,3.29,1.86,5.04,0.95,0.08,0.4,-1,-4,-2,0.95,7228,19,89,34,37,500,28.0,556,458,60,118.0,1964,1,304,196,55,0,0,27,5442,1018,28,,,,,,,,,,,,
35103,1560695606684,7,2.29,2.06,3.3,1.85,5.08,1.01,0.01,0.44,-0,-2,-0,1.01,7186,19,89,34,37,501,26.0,558,458,60,118.0,1964,1,304,196,55,0,0,23,5442,1018,23,,,,,,,,,,,,
35123,1560695606706,4,2.29,2.06,3.3,1.85,5.08,0.99,-0.05,0.43,0,1,3,0.99,7211,19,89,34,37,501,26.0,557,464,60,117.0,1964,1,304,196,55,0,0,23,5442,1018,23,,,,,,,,,,,,
35143,1560695606726,4,2.28,2.07,3.29,1.85,5.06,0.81,0.06,0.4,1,2,2,0.81,7140,19,89,34,37,500,23.0,562,462,60,117.0,1964,1,304,196,55,0,0,23,-1,1018,23,45.699459,4.910462,2.3,194.4,0,0.0,-1,0.0,0.0,0,0.16,0.5857
35163,1560695606746,2,2.29,2.06,3.3,1.85,5.08,0.82,0.11,0.47,-0,-3,-1,0.83,7197,19,89,34,37,500,23.0,558,462,60,117.0,1964,1,304,196,55,0,0,23,-1,1018,23,,,,,,,,,,,,
35183,1560695606766,5,2.29,2.06,3.29,1.85,5.05,0.9,0.07,0.49,-0,-3,-3,0.9,7181,19,89,34,37,500,23.0,561,456,60,118.0,2304,1,304,196,53,0,0,23,-1,1018,23,,,,,,,,,,,,
35203,1560695606786,5,2.29,2.07,3.29,1.86,5.08,0.95,-0.02,0.46,0,-2,-1,0.95,7137,19,89,34,37,500,23.0,562,459,60,118.0,2304,1,304,196,53,0,0,23,-1,-235,23,,,,,,,,,,,,
35223,1560695606806,5,2.28,2.06,3.29,1.86,5.04,0.89,-0.04,0.4,1,1,2,0.89,7148,19,89,34,37,500,23.0,555,464,60,118.0,2304,1,304,196,53,0,0,23,-1,-235,23,,,,,,,,,,,,
35243,1560695606826,1,2.29,2.07,3.29,1.85,5.05,0.8,0.05,0.45,1,-1,3,0.8,7123,19,89,34,37,500,22.0,562,465,60,117.0,2304,1,304,196,53,0,0,23,-1,-235,18,45.699459,4.910461,1.86,194.3,0,0.0,-1,0.0,0.0,0,0.16,0.5874
35263,1560695606846,7,2.28,2.07,3.29,1.85,5.05,0.92,0.03,0.6,-1,-3,-1,0.92,7113,19,89,34,37,500,22.0,548,458,60,118.0,2304,1,304,196,53,0,0,17,-1,-235,18,,,,,,,,,,,,
35283,1560695606866,6,2.28,2.07,3.29,1.85,5.08,0.93,-0.07,0.6,0,-3,-3,0.93,7142,19,89,34,37,500,22.0,552,459,60,118.0,0,1,304,196,53,0,0,17,-1,-235,18,,,,,,,,,,,,
35303,1560695606886,3,2.28,2.06,3.3,1.84,5.06,0.92,-0.1,0.49,1,-2,-2,0.93,7115,19,89,34,37,500,18.0,550,462,60,116.0,0,1,304,202,53,0,0,17,-1281,-235,18,,,,,,,,,,,,
35323,1560695606906,2,2.29,2.06,3.29,1.85,5.08,0.84,0.04,0.37,0,-0,2,0.84,7104,19,89,34,38,500,18.0,546,461,60,117.0,0,1,307,196,53,0,0,17,-1281,-235,18,,,,,,,,,,,,
35343,1560695606926,7,2.28,2.07,3.29,1.85,5.06,0.94,0.07,0.53,-0,-1,3,0.94,7145,19,89,34,38,500,18.0,548,461,60,117.0,0,1,307,202,53,0,0,17,-1281,-235,18,45.699459,4.910461,1.49,194.3,0,0.0,-1,0.0,0.0,0,0.16,0.589
35363,1560695606946,6,2.29,2.06,3.29,1.85,5.04,0.99,0.05,0.62,-0,-0,-0,0.99,7126,19,89,34,38,500,18.0,547,456,60,118.0,0,1,307,202,53,0,0,17,-1281,-235,18,,,,,,,,,,,,
35383,1560695606966,3,2.29,2.07,3.29,1.84,5.05,0.88,0.03,0.49,1,-1,-3,0.88,7145,19,89,34,38,500,18.0,547,462,60,118.0,0,1,307,202,54,0,0,17,-1281,-235,18,,,,,,,,,,,,
35403,1560695606986,2,2.28,2.06,3.29,1.85,5.04,0.86,0.04,0.38,0,-1,-2,0.86,7137,19,89,34,38,500,18.0,560,460,60,117.0,0,1,307,202,54,0,0,17,-1281,-235,18,,,,,,,,,,,,
35423,1560695606999,3,2.29,2.06,3.29,1.85,5.03,0.92,0.01,0.38,-0,-1,1,0.92,7134,19,89,34,38,500,18.0,551,458,60,118.0,0,1,307,202,54,0,0,17,-1281,-235,18,,,,,,,,,,,,
35443,1560695607019,6,2.29,2.06,3.29,1.85,5.06,1.03,-0.02,0.54,-0,-0,4,1.03,7181,19,89,34,38,500,18.0,555,457,60,118.0,0,1,307,202,54,0,0,17,-1281,-235,18,45.699459,4.910461,0.0,194.3,0,0.0,-1,0.0,0.0,0,0.16,0.5907
35463,1560695607039,5,2.29,2.06,3.29,1.85,5.08,0.9,0.01,0.58,1,2,1,0.9,7137,20,89,34,39,500,18.0,560,463,60,117.0,0,1,310,208,54,0,0,17,-1281,-235,18,,,,,,,,,,,,
35483,1560695607059,2,2.29,2.06,3.29,1.84,5.05,0.79,0.04,0.55,1,-1,-3,0.79,7197,20,89,34,39,500,18.0,561,460,60,117.0,0,1,310,208,56,0,0,17,-1281,-235,18,,,,,,,,,,,,
35503,1560695607079,1,2.28,2.07,3.29,1.85,5.04,0.84,0.05,0.51,0,-3,-4,0.84,7205,20,89,34,39,500,18.0,562,460,60,117.0,0,1,310,208,56,0,0,17,-1281,-235,18,,,,,,,,,,,,
35523,1560695607103,-4,2.29,2.07,3.28,1.85,5.04,0.95,-0.01,0.54,-0,-3,-2,0.95,7211,20,89,34,39,500,18.0,558,458,60,117.0,0,1,310,208,56,0,0,17,-1281,-235,18,,,,,,,,,,,,
35543,1560695607123,6,2.29,2.06,3.29,1.85,5.04,1.06,-0.08,0.59,-0,-0,2,1.06,7253,20,89,34,39,500,18.0,555,460,60,118.0,0,1,310,208,56,0,0,17,-1281,-235,18,45.699459,4.910461,0.0,194.3,0,0.0,-1,0.0,0.0,0,0.16,0.5924
35563,1560695607143,3,2.29,2.06,3.29,1.84,5.06,0.98,-0.03,0.61,1,2,3,0.98,7236,20,89,34,39,500,18.0,563,461,60,117.0,0,1,310,208,56,0,0,17,-1281,-235,18,,,,,,,,,,,,
35583,1560695607163,3,2.29,2.07,3.28,1.85,5.04,0.85,-0.01,0.59,1,0,-1,0.85,7295,20,89,34,39,500,18.0,557,458,60,118.0,0,1,310,208,57,0,0,17,-1281,-235,18,,,,,,,,,,,,
35603,1560695607183,1,2.29,2.07,3.28,1.85,5.05,0.83,-0.0,0.54,1,-0,-2,0.83,7284,20,89,34,39,500,18.0,562,461,60,117.0,0,1,310,208,57,0,0,17,-1281,-235,18,,,,,,,,,,,,
35623,1560695607205,2,2.29,2.07,3.28,1.85,5.07,0.81,0.07,0.46,1,1,-1,0.81,7309,20,89,34,39,500,18.0,561,460,60,117.0,0,1,310,208,57,0,0,17,-1281,-235,18,,,,,,,,,,,,
35643,1560695607225,2,2.28,2.07,3.28,1.85,5.04,0.87,0.07,0.54,0,-1,2,0.87,7350,20,89,34,39,500,18.0,559,459,60,118.0,0,1,310,208,57,0,0,17,-1281,-235,18,45.699459,4.910461,0.0,194.3,0,0.0,-1,0.0,0.0,0,0.16,0.594
35663,1560695607245,1,2.29,2.08,3.27,1.86,5.04,0.98,0.06,0.69,-1,-2,-0,0.98,7318,20,89,34,39,500,18.0,560,456,60,118.0,0,1,310,208,57,0,0,17,-1281,-235,18,,,,,,,,,,,,
35683,1560695607265,1,2.29,2.07,3.28,1.86,5.04,1.01,0.01,0.69,-1,-3,-2,1.01,7393,20,89,34,39,500,18.0,571,459,60,118.0,0,1,310,208,58,0,0,17,-1281,-235,18,,,,,,,,,,,,
35703,1560695607285,3,2.29,2.07,3.27,1.85,5.05,1.06,-0.06,0.69,-0,-2,-1,1.06,7411,21,89,34,38,500,18.0,574,459,60,118.0,0,1,307,208,58,0,0,17,-1281,250,18,,,,,,,,,,,,
35723,1560695607305,4,2.29,2.08,3.27,1.86,5.08,1.11,-0.13,0.69,-0,-1,2,1.12,7431,21,89,34,39,500,18.0,567,458,60,118.0,0,1,310,208,58,0,0,17,-1281,250,18,,,,,,,,,,,,
35743,1560695607325,4,2.29,2.07,3.26,1.86,5.03,1.12,-0.11,0.76,-0,0,2,1.13,7428,21,89,34,38,500,0.0,576,459,60,118.0,0,1,307,208,58,0,0,17,-1281,250,0,45.699455,4.910461,0.0,194.3,0,0.0,-1,0.0,0.0,0,0.16,0.5957
35763,1560695607345,3,2.29,2.08,3.27,1.86,5.04,1.07,-0.15,0.78,1,-1,-1,1.08,7491,21,89,34,38,500,15.0,575,460,60,119.0,0,1,307,202,58,0,0,0,-1281,250,0,,,,,,,,,,,,
35783,1560695607365,4,2.28,2.08,3.27,1.86,5.04,1.05,-0.2,0.71,1,-1,-1,1.07,7473,21,89,34,38,500,15.0,581,458,60,117.0,0,1,307,202,58,0,0,0,-1281,250,0,,,,,,,,,,,,
35803,1560695607385,4,2.29,2.08,3.27,1.86,5.07,1.06,-0.26,0.7,1,-0,2,1.09,7506,21,89,34,38,500,0.0,574,461,60,117.0,0,1,307,203,58,0,0,0,250,250,0,,,,,,,,,,,,
35823,1560695607405,4,2.29,2.08,3.27,1.86,5.06,1.02,-0.23,0.71,2,2,3,1.05,7521,21,89,34,38,500,0.0,575,457,60,118.0,0,1,307,203,58,0,0,0,250,250,0,,,,,,,,,,,,
35843,1560695607425,5,2.29,2.08,3.27,1.86,5.06,0.98,-0.25,0.74,2,2,-0,1.01,7551,21,89,34,38,500,0.0,577,461,60,117.0,0,1,307,203,58,0,0,0,250,250,0,45.699455,4.910461,0.0,194.3,0,0.0,-1,0.0,0.0,0,0.16,0.5974
35863,1560695607445,5,2.28,2.08,3.27,1.86,5.06,1.01,-0.29,0.73,2,1,-0,1.06,7557,21,89,34,38,500,0.0,578,458,60,118.0,0,1,307,203,58,0,0,0,250,250,0,,,,,,,,,,,,
35883,1560695607465,-0,2.29,2.09,3.26,1.86,5.08,1.07,-0.33,0.7,2,2,1,1.12,7597,21,89,34,38,500,0.0,577,461,60,118.0,0,1,307,203,58,0,0,0,250,250,0,,,,,,,,,,,,
35903,1560695607485,-1,2.29,2.08,3.27,1.86,5.08,1.14,-0.28,0.74,1,2,1,1.17,7575,21,89,34,38,500,0.0,577,456,60,118.0,0,1,307,203,58,0,0,0,250,250,0,,,,,,,,,,,,
35923,1560695607505,-1,2.29,2.09,3.27,1.87,5.04,1.2,-0.28,0.76,1,-0,-1,1.23,7618,21,89,34,38,500,0.0,588,461,60,118.0,0,1,307,203,58,0,0,0,250,250,0,,,,,,,,,,,,
35943,1560695607525,0,2.28,2.08,3.27,1.86,5.05,1.22,-0.25,0.69,0,-1,-1,1.24,7621,21,89,34,38,500,0.0,582,455,60,118.0,0,1,307,203,58,0,0,0,250,250,0,45.699455,4.910461,0.0,194.3,0,0.0,-1,0.0,0.0,0,0.16,0.599
35963,1560695607545,-2,2.29,2.08,3.27,1.86,5.04,1.24,-0.15,0.63,-0,-0,1,1.25,7618,21,89,34,38,500,0.0,585,463,60,117.0,0,1,307,203,58,0,0,0,250,250,0,,,,,,,,,,,,
35983,1560695607565,1,2.29,2.08,3.27,1.86,5.07,1.22,-0.11,0.72,-1,-2,-0,1.23,7609,21,89,34,38,500,0.0,581,460,60,118.0,0,1,307,203,58,0,0,0,250,250,0,,,,,,,,,,,,
36003,1560695607585,3,2.29,2.08,3.26,1.86,5.07,1.14,-0.07,0.72,-1,-3,-2,1.14,7612,21,89,34,38,500,0.0,582,460,60,117.0,0,1,307,203,58,0,0,0,250,250,0,,,,,,,,,,,,
36023,1560695607605,1,2.29,2.08,3.26,1.87,5.04,1.07,-0.02,0.67,-1,-3,-0,1.07,7678,21,89,34,38,500,0.0,584,461,60,117.0,0,1,307,203,58,0,0,0,250,250,0,,,,,,,,,,,,
36043,1560695607625,5,2.29,2.08,3.26,1.86,5.05,0.96,-0.01,0.68,-0,-1,1,0.96,7671,21,89,34,38,500,0.0,591,462,60,117.0,0,1,307,203,58,0,0,0,250,250,0,45.699455,4.910461,0.0,194.2,0,0.0,-1,0.0,0.0,0,0.16,0.6007
36063,1560695607645,4,2.28,2.08,3.26,1.87,5.04,0.81,-0.02,0.71,1,0,-1,0.81,7719,21,89,34,37,500,0.0,583,464,60,118.0,0,1,304,197,58,0,0,0,250,250,0,,,,,,,,,,,,
36083,1560695607665,-1,2.29,2.08,3.26,1.86,5.06,0.85,-0.09,0.68,1,-1,-0,0.86,7719,21,89,34,37,500,0.0,595,457,60,118.0,0,1,304,203,59,0,0,0,250,250,0,,,,,,,,,,,,
36103,1560695607685,1,2.29,2.09,3.26,1.87,5.04,0.93,-0.1,0.62,1,-1,1,0.93,7763,22,89,34,38,500,0.0,593,462,60,117.0,0,1,307,203,59,0,0,0,250,250,0,,,,,,,,,,,,
36123,1560695607705,1,2.29,2.08,3.26,1.86,5.07,0.99,-0.07,0.66,-0,-2,0,0.99,7793,25,89,34,39,500,0.0,587,460,60,117.0,0,1,310,209,59,0,0,0,250,250,0,,,,,,,,,,,,
36143,1560695607725,3,2.28,2.08,3.27,1.86,5.05,0.94,-0.04,0.71,-0,-3,-1,0.94,7802,28,89,34,40,500,0.0,597,460,60,117.0,0,1,317,210,59,0,0,0,250,250,0,45.699455,4.910461,0.0,194.2,0,0.0,-1,0.0,0.0,0,0.16,0.6024
36163,1560695607745,5,2.29,2.08,3.26,1.87,5.04,0.89,-0.06,0.73,-0,-2,-0,0.89,7871,32,89,34,42,500,0.0,598,460,60,118.0,0,1,332,214,59,0,0,0,250,250,0,,,,,,,,,,,,
36183,1560695607765,1,2.28,2.09,3.26,1.86,5.05,0.93,-0.1,0.7,-0,-1,1,0.94,7908,35,89,34,45,500,0.0,595,453,60,118.0,0,1,355,219,64,0,0,0,250,250,0,,,,,,,,,,,,
36203,1560695607785,3,2.28,2.09,3.26,1.87,5.04,0.95,-0.1,0.66,-0,-1,-1,0.96,8005,37,89,34,48,500,0.0,611,462,60,117.0,0,1,372,223,64,0,0,0,250,250,0,,,,,,,,,,,,
36223,1560695607805,1,2.28,2.09,3.26,1.87,5.05,0.98,-0.14,0.73,-0,-3,-0,0.99,8123,38,89,34,49,500,0.0,613,456,60,118.0,0,1,375,243,64,0,0,0,250,250,0,,,,,,,,,,,,
36243,1560695607825,1,2.29,2.08,3.26,1.86,5.07,0.97,-0.13,0.74,-0,-2,0,0.98,8180,39,89,34,51,500,0.0,618,461,60,117.0,0,1,381,250,64,0,0,0,250,250,0,45.699455,4.910461,0.0,194.2,0,0.0,-1,0.0,0.0,0,0.16,0.604
36263,1560695607845,1,2.28,2.09,3.27,1.86,5.06,1.05,-0.11,0.78,-1,-2,-0,1.05,8292,39,89,34,51,500,0.0,621,463,60,118.0,0,1,381,259,64,0,0,0,250,250,0,,,,,,,,,,,,
36283,1560695607865,3,2.3,2.08,3.27,1.87,5.05,0.89,-0.05,0.7,-1,-1,0,0.89,8419,40,89,34,52,500,0.0,616,460,60,117.0,0,1,384,255,80,0,0,0,250,250,0,,,,,,,,,,,,
36303,1560695607885,3,2.29,2.08,3.26,1.87,5.03,0.9,-0.13,0.78,-1,-1,-1,0.91,8585,41,89,34,51,500,0.0,618,460,60,118.0,0,1,382,265,80,0,0,0,250,250,0,,,,,,,,,,,,
36323,1560695607905,-0,2.3,2.09,3.26,1.87,5.05,1.01,-0.21,0.82,-1,-3,-0,1.04,8733,41,89,34,51,500,0.0,620,454,60,117.0,0,1,383,262,80,0,0,0,250,250,0,,,,,,,,,,,,
36343,1560695607925,-1,2.29,2.09,3.26,1.87,5.07,1.0,-0.1,0.82,-0,-2,0,1.0,8840,42,89,34,51,500,0.0,624,456,60,117.0,0,1,384,265,80,0,0,0,250,250,0,45.699455,4.910461,0.0,194.2,0,0.0,-1,0.0,0.0,0,0.16,0.6057
36363,1560695607945,-0,2.29,2.09,3.26,1.87,5.04,0.89,0.08,0.86,-0,-4,1,0.9,8967,42,89,34,51,500,0.0,633,455,60,117.0,0,1,386,268,80,0,0,0,250,250,0,,,,,,,,,,,,
36383,1560695607965,1,2.29,2.09,3.26,1.86,5.06,0.75,0.27,0.77,1,-1,2,0.8,9014,43,89,34,51,500,0.0,632,464,60,119.0,0,1,387,270,88,0,0,0,250,250,0,,,,,,,,,,,,
36403,1560695607985,1,2.29,2.09,3.26,1.86,5.04,0.54,0.45,0.72,1,-1,3,0.7,8898,43,89,34,51,500,0.0,628,461,60,116.0,0,1,385,266,88,0,0,0,250,250,0,,,,,,,,,,,,
36423,1560695607998,4,2.29,2.08,3.26,1.87,5.08,0.37,0.58,0.62,1,2,3,0.69,8765,43,89,34,52,500,0.0,627,457,60,116.0,0,1,387,270,88,0,0,0,250,250,0,,,,,,,,,,,,
36443,1560695608018,5,2.29,2.09,3.26,1.87,5.08,0.23,0.64,0.57,2,1,3,0.68,8865,43,89,34,53,500,0.0,626,466,60,117.0,0,1,393,282,88,0,0,0,250,250,0,45.699455,4.910461,0.0,194.2,0,0.0,-1,0.0,0.0,0,0.16,0.6074
36463,1560695608038,3,2.29,2.09,3.26,1.88,5.06,0.22,0.55,0.55,2,2,2,0.59,8992,43,89,34,52,500,0.0,636,458,60,118.0,0,1,390,286,88,0,0,0,250,250,0,,,,,,,,,,,,
36483,1560695608058,2,2.28,2.09,3.26,1.87,5.06,0.18,0.51,0.56,1,1,1,0.54,9001,44,89,34,52,501,0.0,635,468,60,119.0,0,1,391,278,94,0,0,0,250,250,0,,,,,,,,,,,,
36503,1560695608078,4,2.3,2.09,3.27,1.86,5.07,0.24,0.38,0.52,1,2,0,0.45,8869,44,89,34,53,501,0.0,635,459,60,117.0,0,1,393,282,94,0,0,0,250,250,0,,,,,,,,,,,,
36523,1560695608104,5,2.29,2.08,3.26,1.87,5.07,0.36,0.2,0.59,1,-0,-1,0.41,8831,44,89,34,54,501,0.0,631,464,60,117.0,0,1,396,290,94,0,0,0,250,250,0,,,,,,,,,,,,
36543,1560695608124,-0,2.3,2.08,3.26,1.87,5.08,0.52,-0.02,0.61,0,-1,-2,0.52,8924,44,89,34,55,501,0.0,630,464,60,117.0,0,1,398,300,94,0,0,0,250,250,0,45.699455,4.910461,0.0,194.2,0,0.0,-1,0.0,0.0,0,0.16,0.609
36563,1560695608144,3,2.3,2.09,3.26,1.87,5.07,0.67,-0.22,0.74,-0,-3,-4,0.71,8979,44,89,34,54,501,0.0,641,467,60,119.0,0,1,399,296,94,0,0,0,250,250,0,,,,,,,,,,,,
36583,1560695608164,1,2.3,2.09,3.25,1.87,5.05,0.81,-0.39,0.77,-1,-4,-4,0.9,8911,44,89,34,54,501,0.0,628,460,60,117.0,0,1,398,293,100,0,0,0,250,250,0,,,,,,,,,,,,
36603,1560695608184,-1,2.28,2.09,3.26,1.87,5.06,0.93,-0.55,0.89,-1,-6,-4,1.08,9001,45,89,34,55,501,0.0,637,454,60,117.0,0,1,400,304,100,0,0,0,250,250,0,,,,,,,,,,,,
36623,1560695608204,4,2.29,2.08,3.26,1.87,5.03,1.04,-0.7,0.95,-2,-7,-4,1.25,8915,45,89,34,55,501,0.0,633,461,60,117.0,0,1,399,300,100,0,0,0,250,250,0,,,,,,,,,,,,
36643,1560695608224,3,2.29,2.09,3.26,1.87,5.07,1.14,-0.78,1.01,-2,-8,-5,1.38,8823,45,89,34,56,501,0.0,632,463,60,117.0,0,1,401,304,100,0,0,0,250,250,0,45.699455,4.910461,0.0,194.2,0,0.0,-1,0.0,0.0,0,0.16,0.6107
36663,1560695608244,0,2.28,2.09,3.26,1.86,5.06,1.23,-0.83,0.98,-2,-8,-4,1.48,8967,46,89,34,56,501,0.0,637,463,60,117.0,0,1,399,309,100,0,0,0,250,250,0,,,,,,,,,,,,
36683,1560695608264,3,2.28,2.09,3.26,1.86,5.05,1.31,-0.86,1.06,-2,-10,-4,1.57,9027,47,89,34,56,501,0.0,644,462,60,119.0,0,1,399,312,108,0,0,0,250,250,0,,,,,,,,,,,,
36703,1560695608284,0,2.29,2.09,3.26,1.86,5.04,1.38,-0.82,1.01,-2,-9,-3,1.6,8802,47,89,34,56,501,0.0,633,463,60,117.0,0,1,401,304,108,0,0,0,250,250,0,,,,,,,,,,,,
36723,1560695608304,-1,2.3,2.09,3.26,1.87,5.05,1.28,-0.65,0.98,-2,-9,-2,1.43,8676,48,89,34,58,501,0.0,631,461,60,117.0,0,1,413,316,108,0,0,0,250,250,0,,,,,,,,,,,,
36743,1560695608324,-1,2.29,2.09,3.25,1.87,5.04,1.05,-0.39,0.85,-1,-7,-0,1.12,8882,49,89,34,59,501,0.0,635,455,60,116.0,0,1,404,329,108,0,0,0,250,250,0,45.699455,4.910461,0.0,194.2,0,0.0,-1,0.0,0.0,0,0.16,0.6124
36763,1560695608344,1,2.29,2.09,3.25,1.87,5.04,0.81,-0.15,0.76,-1,-4,1,0.82,9018,51,89,34,59,501,0.0,637,458,60,119.0,0,1,398,333,108,0,0,0,250,250,0,,,,,,,,,,,,
36783,1560695608364,4,2.28,2.08,3.26,1.87,5.03,0.64,0.07,0.62,-0,-3,2,0.65,8815,52,89,34,59,501,0.0,627,457,60,116.0,0,1,409,329,109,0,0,0,250,250,0,,,,,,,,,,,,
36803,1560695608384,4,2.29,2.09,3.26,1.87,5.04,0.54,0.11,0.57,0,-0,1,0.55,8737,53,88,34,61,501,0.0,623,455,60,117.0,0,1,424,342,109,0,0,0,250,250,0,,,,,,,,,,,,
36823,1560695608404,-1,2.29,2.09,3.26,1.87,5.07,0.59,0.04,0.58,0,-1,0,0.59,8992,54,88,34,62,500,0.0,629,458,60,117.0,0,1,398,351,109,0,0,0,250,250,0,,,,,,,,,,,,
36843,1560695608424,3,2.3,2.09,3.25,1.87,5.07,0.63,-0.1,0.58,-0,1,-1,0.64,9014,56,88,34,62,501,0.0,637,462,60,119.0,0,1,398,352,109,0,0,0,250,250,0,45.699455,4.910461,0.0,194.2,0,0.0,-1,0.0,0.0,0,0.16,0.614
36863,1560695608444,5,2.3,2.08,3.26,1.87,5.07,0.77,-0.27,0.59,-1,-2,-2,0.81,8802,57,88,34,64,501,0.0,627,466,60,117.0,0,1,418,358,109,0,0,0,250,250,0,,,,,,,,,,,,
36883,1560695608464,4,2.3,2.09,3.26,1.86,5.04,0.89,-0.37,0.6,-1,-0,-2,0.97,8778,58,88,34,67,501,0.0,627,457,60,117.0,0,1,421,369,123,0,0,0,250,250,0,,,,,,,,,,,,
36903,1560695608484,4,2.3,2.09,3.26,1.87,5.03,1.01,-0.52,0.69,-1,-4,-3,1.13,9023,59,88,34,67,500,0.0,631,456,60,117.0,0,1,410,375,123,0,0,0,250,250,0,,,,,,,,,,,,
36923,1560695608506,-1,2.3,2.09,3.26,1.87,5.06,1.11,-0.57,0.74,-2,-3,-3,1.25,8997,60,88,34,67,501,0.0,637,463,60,117.0,0,1,411,375,123,0,0,0,250,250,0,,,,,,,,,,,,
36943,1560695608526,3,2.3,2.09,3.25,1.88,5.04,1.2,-0.71,0.83,-2,-6,-3,1.4,9079,60,88,34,68,502,0.0,642,458,60,119.0,0,1,413,379,123,0,0,0,250,250,0,45.699455,4.910461,0.0,194.2,0,0.0,-1,0.0,0.0,0,0.16,0.6157
36963,1560695608546,2,2.3,2.1,3.26,1.87,5.07,1.28,-0.7,0.79,-3,-6,-3,1.46,8915,60,88,34,68,502,0.0,632,463,60,117.0,0,1,417,388,123,0,0,0,250,250,0,,,,,,,,,,,,
36983,1560695608566,2,2.3,2.08,3.26,1.87,5.07,1.33,-0.69,0.78,-3,-8,-3,1.5,8815,60,88,34,70,501,0.0,625,459,60,117.0,0,1,421,398,130,0,0,0,250,250,0,,,,,,,,,,,,
37003,1560695608586,-0,2.29,2.09,3.26,1.86,5.05,1.29,-0.55,0.75,-2,-7,-2,1.4,9014,61,88,34,70,501,0.0,615,456,60,117.0,0,1,413,398,130,0,0,0,250,250,0,,,,,,,,,,,,
37023,1560695608606,3,2.29,2.09,3.26,1.87,5.05,1.23,-0.48,0.83,-2,-9,-2,1.32,9053,61,88,34,69,502,0.0,638,457,60,119.0,0,1,413,388,130,0,0,0,250,250,0,,,,,,,,,,,,
37043,1560695608626,3,2.3,2.09,3.26,1.87,5.05,1.16,-0.31,0.77,-2,-6,-1,1.19,8827,61,88,34,70,502,0.0,621,457,60,117.0,0,1,420,398,130,0,0,0,250,250,0,45.699455,4.910461,0.0,194.2,0,0.0,-1,0.0,0.0,0,0.16,0.6174
37063,1560695608646,2,2.3,2.09,3.26,1.87,5.07,0.93,-0.11,0.69,-1,-7,-0,0.94,8636,62,88,34,71,501,0.0,622,455,60,116.0,0,1,426,407,130,0,0,0,250,250,0,,,,,,,,,,,,
37083,1560695608666,-1,2.3,2.09,3.26,1.87,5.04,0.83,-0.07,0.63,-0,-4,1,0.83,8790,62,88,34,71,501,0.0,617,463,60,117.0,0,1,421,407,135,0,0,0,250,250,0,,,,,,,,,,,,
37103,1560695608686,1,2.29,2.09,3.26,1.87,5.06,0.64,0.06,0.6,1,-4,1,0.64,9115,63,88,34,70,501,0.0,634,470,60,119.0,0,1,413,398,135,0,0,0,250,250,0,,,,,,,,,,,,
37123,1560695608706,6,2.3,2.1,3.26,1.87,5.04,0.51,0.11,0.56,1,-1,1,0.52,8945,63,88,34,70,502,0.0,635,464,60,119.0,0,1,416,398,135,0,0,0,250,250,0,,,,,,,,,,,,
37143,1560695608726,5,2.29,2.09,3.26,1.87,5.04,0.46,0.11,0.58,1,-1,1,0.47,8724,63,88,34,72,501,0.0,633,455,60,116.0,0,1,423,417,135,0,0,0,250,250,0,45.699455,4.910461,0.0,194.2,0,0.0,-1,0.0,0.0,0,0.16,0.6191
37163,1560695608746,-1,2.3,2.09,3.26,1.87,5.08,0.61,-0.06,0.61,1,0,0,0.62,8790,63,88,34,72,501,0.0,630,465,60,117.0,0,1,420,417,135,0,0,0,250,250,0,,,,,,,,,,,,
37183,1560695608766,4,2.3,2.09,3.26,1.87,5.08,0.76,-0.24,0.71,1,-2,-1,0.79,9057,63,88,34,71,501,0.0,640,468,60,119.0,0,1,413,417,142,0,0,0,250,250,0,,,,,,,,,,,,
37203,1560695608786,4,2.3,2.09,3.26,1.87,5.06,0.88,-0.41,0.76,1,-1,-2,0.97,8844,63,88,34,71,501,0.0,628,464,60,117.0,0,1,419,417,142,0,0,0,250,250,0,,,,,,,,,,,,
37223,1560695608806,-0,2.3,2.09,3.25,1.87,5.08,1.0,-0.56,0.85,0,-4,-3,1.14,8882,64,88,34,72,501,0.0,623,464,60,117.0,0,1,418,427,142,0,0,0,250,250,0,,,,,,,,,,,,
37243,1560695608826,1,2.29,2.09,3.26,1.87,5.07,1.1,-0.7,0.89,-0,-6,-4,1.3,9088,64,88,34,72,501,0.0,632,466,60,119.0,0,1,413,417,142,0,0,0,250,250,0,45.699455,4.910461,0.0,194.2,0,0.0,-1,0.0,0.0,0,0.16,0.6207
37263,1560695608846,3,2.3,2.09,3.26,1.87,5.08,1.19,-0.8,0.98,-1,-8,-4,1.43,8869,64,88,34,72,501,0.0,624,460,60,117.0,0,1,418,417,142,0,0,0,250,250,0,,,,,,,,,,,,
37283,1560695608866,3,2.3,2.09,3.26,1.86,5.05,1.27,-0.74,0.95,-1,-8,-3,1.47,8720,64,88,34,73,501,0.0,627,464,60,117.0,0,1,423,427,142,0,0,0,250,250,0,,,,,,,,,,,,
37303,1560695608886,0,2.3,2.09,3.25,1.87,5.05,1.19,-0.58,0.92,-1,-9,-3,1.32,8877,64,88,34,74,501,0.0,620,454,60,116.0,0,1,418,427,142,0,0,0,250,250,0,,,,,,,,,,,,
37323,1560695608906,-1,2.31,2.09,3.25,1.88,5.06,1.19,-0.4,0.88,-2,-10,-2,1.26,9213,65,88,34,72,501,0.0,641,457,60,119.0,0,1,414,417,142,0,0,0,250,250,0,,,,,,,,,,,,
37343,1560695608926,1,2.31,2.09,3.25,1.87,5.05,1.19,-0.26,0.93,-1,-9,-1,1.22,9014,65,88,34,71,502,0.0,646,465,60,119.0,0,1,413,407,142,0,0,0,250,250,0,45.699455,4.910461,0.0,194.2,0,0.0,-1,0.0,0.0,0,0.16,0.6224
37363,1560695608946,2,2.3,2.09,3.25,1.87,5.04,1.15,-0.09,0.85,-1,-8,0,1.16,8786,65,88,34,73,502,0.0,628,461,60,117.0,0,1,421,427,142,0,0,0,250,250,0,,,,,,,,,,,,
37383,1560695608966,1,2.29,2.09,3.26,1.87,5.03,0.91,0.03,0.78,-1,-7,0,0.91,8604,65,88,34,74,501,0.0,626,455,60,116.0,0,1,426,436,144,0,0,0,250,250,0,,,,,,,,,,,,
37403,1560695608986,0,2.29,2.09,3.26,1.88,5.04,0.72,0.1,0.67,-1,-6,2,0.73,8915,65,88,34,74,501,0.0,621,452,60,116.0,0,1,415,436,144,0,0,0,250,250,0,,,,,,,,,,,,
37423,1560695608999,1,2.31,2.09,3.26,1.87,5.04,0.53,0.22,0.62,-0,-3,2,0.57,9066,65,88,34,73,502,0.0,644,458,60,119.0,0,1,413,417,144,0,0,0,250,250,0,,,,,,,,,,,,
37443,1560695609019,2,2.29,2.09,3.24,1.87,5.04,0.39,0.38,0.44,0,-2,3,0.54,8856,65,88,34,73,502,0.0,635,456,60,116.0,0,1,418,427,144,0,0,0,250,250,0,45.699455,4.910461,0.0,194.2,0,0.0,-1,0.0,0.0,0,0.16,0.624
37463,1560695609039,5,2.3,2.09,3.26,1.87,5.08,0.33,0.32,0.4,1,0,2,0.46,8786,66,88,34,74,501,0.0,627,452,60,116.0,0,1,420,436,144,0,0,0,250,250,0,,,,,,,,,,,,
37483,1560695609059,1,2.3,2.09,3.26,1.87,5.04,0.28,0.28,0.33,1,1,3,0.4,9097,66,88,34,74,501,0.0,620,456,60,118.0,0,1,413,436,146,0,0,0,250,250,0,,,,,,,,,,,,
37503,1560695609079,-2,2.31,2.09,3.26,1.87,5.06,0.16,0.26,0.3,2,4,3,0.3,9049,66,88,34,73,502,0.0,640,458,60,119.0,0,1,413,427,146,0,0,0,250,250,0,,,,,,,,,,,,
37523,1560695609105,3,2.31,2.09,3.26,1.87,5.06,0.12,0.28,0.23,2,4,4,0.3,8827,66,88,34,74,502,0.0,626,453,60,116.0,0,1,419,436,146,0,0,0,250,250,0,,,,,,,,,,,,
37543,1560695609125,4,2.3,2.09,3.26,1.87,5.06,0.21,0.16,0.28,2,6,2,0.26,8720,66,88,34,75,502,0.0,621,462,60,117.0,0,1,422,446,146,0,0,0,250,250,0,45.699455,4.910461,0.0,194.2,0,0.0,-1,0.0,0.0,0,0.16,0.6257
37563,1560695609145,-1,2.31,2.09,3.26,1.88,5.04,0.39,-0.06,0.33,1,6,1,0.39,8962,66,88,33,75,501,0.0,626,456,60,117.0,0,1,415,446,146,0,0,0,250,250,0,,,,,,,,,,,,
37583,1560695609165,-0,2.3,2.09,3.26,1.88,5.04,0.55,-0.25,0.37,1,8,-1,0.61,9182,67,88,33,73,502,0.0,642,470,60,119.0,0,1,414,427,151,0,0,0,250,250,0,,,,,,,,,,,,
37603,1560695609185,4,2.31,2.09,3.26,1.87,5.07,0.65,-0.42,0.4,1,5,-1,0.78,8958,67,88,33,74,503,0.0,635,453,60,118.0,0,1,415,436,151,0,0,0,250,250,0,,,,,,,,,,,,
37623,1560695609205,4,2.3,2.09,3.25,1.87,5.03,0.79,-0.52,0.44,1,6,-2,0.95,8749,67,88,33,76,502,0.0,620,459,60,117.0,0,1,420,456,151,0,0,0,250,250,0,,,,,,,,,,,,
37643,1560695609225,3,2.3,2.1,3.26,1.88,5.04,0.91,-0.6,0.56,0,1,-3,1.09,8790,67,88,33,76,501,0.0,622,460,60,118.0,0,1,419,456,151,0,0,0,250,250,0,45.699455,4.910461,0.0,194.2,0,0.0,-1,0.0,0.0,0,0.16,0.6274
37663,1560695609245,1,2.3,2.09,3.26,1.88,5.04,1.0,-0.48,0.56,-0,2,-2,1.11,9128,67,88,33,75,502,0.0,634,457,60,119.0,0,1,413,446,151,0,0,0,250,250,0,,,,,,,,,,,,
37683,1560695609265,3,2.3,2.1,3.26,1.87,5.05,1.07,-0.46,0.68,-1,-2,-3,1.17,8920,68,88,33,74,502,0.0,628,454,60,117.0,0,1,417,436,152,0,0,0,250,250,0,,,,,,,,,,,,
37703,1560695609285,3,2.31,2.09,3.26,1.88,5.04,1.0,-0.28,0.68,-1,-1,-2,1.04,8890,68,88,33,76,501,0.0,620,454,60,116.0,0,1,416,446,152,0,0,0,250,250,0,,,,,,,,,,,,
37723,1560695609305,-1,2.3,2.09,3.26,1.88,5.04,0.89,-0.15,0.76,-1,-4,-2,0.9,9155,68,88,33,75,501,0.0,631,465,60,119.0,0,1,413,446,152,0,0,0,250,250,0,,,,,,,,,,,,
37743,1560695609325,2,2.31,2.09,3.26,1.87,5.07,1.0,-0.27,0.8,-1,-2,-1,1.04,8937,68,88,33,75,502,0.0,631,462,60,118.0,0,1,416,446,152,0,0,0,250,250,0,45.699455,4.910461,0.0,194.2,0,0.0,-1,0.0,0.0,0,0.16,0.629
37763,1560695609345,2,2.3,2.09,3.26,1.87,5.08,1.1,-0.37,0.89,-1,-3,-1,1.16,8733,68,88,33,76,502,0.0,625,461,60,117.0,0,1,420,456,152,0,0,0,250,250,0,,,,,,,,,,,,
37783,1560695609365,-0,2.3,2.09,3.26,1.88,5.04,1.04,-0.24,0.87,0,-1,0,1.07,8720,68,88,33,77,502,0.0,613,458,60,117.0,0,1,418,470,154,0,0,0,250,250,0,,,,,,,,,,,,
37803,1560695609385,1,2.31,2.09,3.26,1.87,5.07,0.97,-0.14,0.91,1,-1,0,0.98,9245,69,88,33,75,501,0.0,631,471,60,119.0,0,1,414,456,154,0,0,0,250,250,0,,,,,,,,,,,,
37823,1560695609405,1,2.31,2.09,3.26,1.87,5.04,0.98,0.01,0.81,1,3,1,0.98,9023,69,88,33,75,502,0.0,635,458,60,119.0,0,1,413,446,154,0,0,0,250,250,0,,,,,,,,,,,,
37843,1560695609425,-2,2.31,2.09,3.26,1.87,5.07,0.89,0.12,0.82,1,2,2,0.9,8778,69,88,33,77,502,0.0,630,453,60,116.0,0,1,419,456,154,0,0,0,250,250,0,45.699455,4.910461,0.0,194.2,0,0.0,-1,0.0,0.0,0,0.16,0.6307
37863,1560695609445,6,2.3,2.1,3.26,1.87,5.05,0.69,0.23,0.74,2,4,2,0.73,8608,69,88,33,77,501,0.0,618,465,60,117.0,0,1,424,470,154,0,0,0,250,250,0,,,,,,,,,,,,
37883,1560695609465,-1,2.3,2.1,3.25,1.88,5.04,0.47,0.36,0.67,2,3,1,0.59,9062,69,88,33,77,501,0.0,625,468,60,119.0,0,1,413,470,157,0,0,0,250,250,0,,,,,,,,,,,,
37903,1560695609485,4,2.31,2.1,3.25,1.88,5.04,0.25,0.46,0.53,2,5,0,0.53,8992,69,88,33,76,502,0.0,638,467,60,119.0,0,1,414,456,157,0,0,0,250,250,0,,,,,,,,,,,,
37923,1560695609505,4,2.3,2.11,3.25,1.89,5.04,0.22,0.46,0.48,1,3,-1,0.51,8696,69,88,33,77,502,0.0,627,461,60,117.0,0,1,421,470,157,0,0,0,250,250,0,,,,,,,,,,,,
37943,1560695609525,1,2.31,2.11,3.24,1.89,5.05,0.4,0.32,0.53,0,2,0,0.51,8676,69,88,33,78,501,0.0,616,460,60,117.0,0,1,422,483,157,0,0,0,250,250,0,45.699455,4.910461,0.0,194.2,0,0.0,-1,0.0,0.0,0,0.16,0.6324
37963,1560695609545,0,2.3,2.11,3.25,1.9,5.04,0.56,0.15,0.58,0,-0,-0,0.58,9071,70,88,33,77,501,0.0,629,465,60,119.0,0,1,413,470,157,0,0,0,250,250,0,,,,,,,,,,,,
37983,1560695609565,3,2.29,2.12,3.24,1.9,5.03,0.71,-0.06,0.66,-0,-3,1,0.71,8802,70,88,33,76,502,0.0,628,459,60,117.0,0,1,419,456,155,0,0,0,250,250,0,,,,,,,,,,,,
38003,1560695609585,-0,2.31,2.13,3.23,1.92,5.05,0.75,-0.04,0.69,0,-2,1,0.76,8561,70,88,33,77,502,0.0,615,450,60,117.0,0,1,425,470,155,0,0,0,250,250,0,,,,,,,,,,,,
38023,1560695609605,5,2.3,2.14,3.22,1.91,5.03,0.63,0.1,0.58,0,-1,1,0.64,8729,70,88,33,78,501,0.0,618,455,60,116.0,0,1,421,483,155,0,0,0,250,250,0,,,,,,,,,,,,
38043,1560695609625,-2,2.3,2.14,3.23,1.93,5.08,0.44,0.27,0.49,1,1,1,0.51,9044,70,88,33,76,500,0.0,630,457,60,117.0,0,1,413,456,155,0,0,0,250,250,0,45.699455,4.910461,0.0,194.2,0,0.0,-1,0.0,0.0,0,0.16,0.634
38063,1560695609645,4,2.3,2.16,3.21,1.94,5.04,0.28,0.45,0.41,1,3,1,0.53,8997,70,88,33,75,501,0.0,641,461,60,119.0,0,1,414,446,155,0,0,0,250,250,0,,,,,,,,,,,,
38083,1560695609665,3,2.3,2.16,3.22,1.94,5.06,0.25,0.43,0.43,0,3,-1,0.5,8593,70,88,33,77,501,0.0,621,453,60,117.0,0,1,424,470,151,0,0,0,250,250,0,,,,,,,,,,,,
38103,1560695609685,2,2.3,2.16,3.21,1.95,5.03,0.38,0.29,0.56,0,1,-1,0.48,8530,70,88,33,78,501,0.0,617,457,60,117.0,0,1,426,483,151,0,0,0,250,250,0,,,,,,,,,,,,
38123,1560695609705,1,2.3,2.18,3.22,1.94,5.06,0.48,0.3,0.58,1,3,0,0.57,8786,71,88,33,77,501,0.0,620,460,60,117.0,0,1,419,470,151,0,0,0,250,250,0,,,,,,,,,,,,
38143,1560695609725,2,2.3,2.18,3.21,1.96,5.04,0.53,0.25,0.64,1,2,1,0.58,9084,71,88,33,76,501,0.0,635,458,60,119.0,0,1,413,456,151,0,0,0,250,250,0,45.699455,4.910461,0.0,194.2,0,0.0,-1,0.0,0.0,0,0.16,0.6357
38163,1560695609745,-1,2.31,2.18,3.21,1.95,5.06,0.5,0.31,0.65,1,4,3,0.58,8873,71,88,33,76,501,10.0,626,456,60,117.0,0,1,417,456,151,0,0,0,250,-16384,10,,,,,,,,,,,,
38183,1560695609765,-1,2.31,2.18,3.22,1.95,5.06,0.4,0.43,0.66,2,5,3,0.59,8737,71,88,33,77,500,10.0,623,453,60,116.0,0,1,420,470,152,0,0,0,250,6193,10,,,,,,,,,,,,
38203,1560695609785,0,2.3,2.19,3.22,1.96,5.08,0.2,0.53,0.53,2,8,2,0.57,8954,71,88,33,77,500,10.0,620,466,60,117.0,0,1,415,470,152,0,0,0,250,-23367,10,,,,,,,,,,,,
38223,1560695609805,2,2.31,2.21,3.2,1.97,5.06,0.05,0.68,0.56,2,8,3,0.68,9295,71,88,33,76,500,10.0,620,460,60,116.0,0,1,414,456,152,0,0,0,250,-1818,10,,,,,,,,,,,,
38243,1560695609825,4,2.3,2.23,3.19,2.0,5.04,0.18,0.66,0.58,2,9,3,0.68,9479,72,88,33,75,500,10.0,632,457,60,117.0,0,1,409,446,152,0,0,0,250,10408,10,45.699455,4.910461,1.48,193.1,0,0.0,-1,0.0,0.0,0,0.16,0.6374
38263,1560695609845,1,2.29,2.24,3.17,2.02,5.06,0.26,0.47,0.62,2,7,3,0.54,9610,72,88,33,74,500,10.0,633,452,60,117.0,0,1,401,445,152,0,0,0,250,-21872,23,,,,,,,,,,,,
38283,1560695609865,4,2.3,2.28,3.16,2.05,5.07,0.25,0.5,0.67,2,7,3,0.56,9740,72,88,33,73,500,23.0,633,456,60,116.0,7130,1,388,457,164,0,0,0,250,-3482,23,,,,,,,,,,,,
38303,1560695609885,0,2.31,2.31,3.14,2.08,5.06,0.29,0.38,0.8,2,5,3,0.48,9837,72,88,33,73,500,23.0,635,456,60,117.0,7130,1,402,455,164,0,0,0,250,-8187,23,,,,,,,,,,,,
38323,1560695609905,4,2.31,2.34,3.12,2.12,5.05,0.31,0.26,0.81,2,6,2,0.4,9931,72,88,33,72,500,23.0,644,456,60,117.0,7130,1,398,456,164,0,0,0,250,10408,23,,,,,,,,,,,,
38343,1560695609925,3,2.3,2.37,3.13,2.14,5.05,0.23,0.4,0.79,2,7,3,0.46,9915,72,88,33,72,500,38.0,640,463,60,117.0,7130,1,355,458,164,0,0,0,250,-22519,38,45.699455,4.910461,2.46,193.1,0,0.0,-1,0.0,0.0,0,0.16,0.639
38363,1560695609945,5,2.31,2.4,3.12,2.18,5.04,0.37,0.19,0.85,2,5,2,0.41,9904,72,88,33,72,500,38.0,641,457,60,117.0,7130,1,347,454,164,0,0,0,250,-22519,38,,,,,,,,,,,,
38383,1560695609965,4,2.3,2.43,3.11,2.22,5.06,0.29,0.25,0.87,2,5,2,0.38,9925,72,88,33,72,500,52.0,630,458,60,117.0,4526,1,337,455,172,0,0,0,250,10408,52,,,,,,,,,,,,
38403,1560695609985,2,2.31,2.45,3.11,2.25,5.04,0.28,0.18,0.91,2,6,1,0.33,9852,72,88,33,72,500,52.0,633,463,60,117.0,4526,1,332,449,172,0,0,0,250,1248,52,,,,,,,,,,,,
38423,1560695609998,4,2.3,2.47,3.11,2.26,5.06,0.33,0.22,0.89,1,5,1,0.4,9735,72,88,33,72,500,63.0,631,458,60,117.0,4526,1,329,443,172,0,0,0,250,-3482,63,,,,,,,,,,,,
38443,1560695610018,3,2.31,2.48,3.1,2.28,5.05,0.35,0.18,0.95,1,4,0,0.39,9635,72,88,33,72,500,63.0,633,453,60,117.0,4526,1,327,429,172,0,0,0,250,-3414,63,45.699455,4.910461,4.13,193.1,0,0.0,-1,0.0,0.0,0,0.16,0.6407
38463,1560695610038,1,2.31,2.49,3.1,2.28,5.08,0.21,0.3,0.93,1,5,1,0.36,9556,72,88,33,72,500,73.0,619,462,60,116.0,4526,1,324,422,172,0,0,0,250,-32248,73,,,,,,,,,,,,
38483,1560695610058,2,2.3,2.52,3.08,2.31,5.04,0.19,0.29,1.01,2,4,2,0.35,9314,72,88,33,73,500,73.0,626,452,60,117.0,2082,1,414,427,152,0,0,0,250,248,73,,,,,,,,,,,,
38503,1560695610078,3,2.29,2.55,3.05,2.34,5.08,0.36,0.22,1.11,1,4,2,0.42,9005,72,88,33,74,500,84.0,618,464,60,118.0,2082,1,319,427,152,0,0,0,250,-17956,84,,,,,,,,,,,,
38523,1560695610104,3,2.29,2.59,3.01,2.38,5.04,0.28,0.33,1.19,2,5,3,0.43,8546,72,88,33,76,500,95.0,616,455,60,117.0,2082,1,425,446,152,0,0,0,250,3571,95,,,,,,,,,,,,
38543,1560695610124,-0,2.29,2.64,2.95,2.44,5.04,0.4,0.2,1.2,1,3,3,0.45,8092,72,88,33,78,500,106.0,589,453,60,117.0,2082,1,436,456,152,0,0,0,250,-4082,106,45.699451,4.91046,6.78,193.1,0,0.0,-1,0.0,0.0,0,0.16,0.6424
38563,1560695610144,1,2.28,2.69,2.91,2.49,5.07,0.53,0.18,1.23,1,2,2,0.56,7649,72,88,33,82,500,117.0,572,455,60,117.0,2082,1,354,485,152,0,0,0,250,-3968,117,,,,,,,,,,,,
38583,1560695610164,4,2.28,2.74,2.87,2.53,5.08,0.61,0.03,1.31,0,1,2,0.61,7075,72,88,33,87,500,126.0,534,459,60,117.0,1196,1,380,513,140,0,0,0,250,-6656,126,,,,,,,,,,,,
38603,1560695610184,4,2.29,2.79,2.85,2.56,5.03,0.43,0.13,1.24,1,3,3,0.45,6425,72,88,33,90,500,134.0,501,457,60,116.0,1196,1,340,516,140,0,0,0,250,-122,134,,,,,,,,,,,,
38623,1560695610204,4,2.28,2.8,2.85,2.58,5.07,0.29,0.12,1.17,2,5,3,0.31,5861,72,88,33,92,500,141.0,461,457,60,117.0,1196,1,311,517,140,0,0,0,250,32000,141,,,,,,,,,,,,
38643,1560695610224,-1,2.29,2.8,2.88,2.57,5.06,0.3,0.19,1.25,2,3,2,0.35,5642,72,88,33,92,500,147.0,427,455,60,117.0,1196,1,303,521,140,0,0,0,250,95,147,45.699451,4.910459,10.02,193.0,0,0.0,-1,0.0,0.0,0,0.16,0.644
38663,1560695610244,-1,2.29,2.77,2.98,2.54,5.05,0.23,0.17,1.32,1,0,-0,0.29,5787,72,88,33,92,500,153.0,425,456,60,118.0,1196,1,308,518,140,0,0,0,250,29440,153,,,,,,,,,,,,
38683,1560695610264,-1,2.29,2.74,3.07,2.51,5.07,0.29,0.15,1.38,1,-2,-0,0.33,6003,72,88,33,92,500,158.0,441,455,60,118.0,734,1,317,515,116,0,0,0,250,-28416,158,,,,,,,,,,,,
38703,1560695610284,1,2.29,2.72,3.05,2.49,5.07,0.39,0.12,1.44,-1,-6,1,0.41,5927,72,88,33,92,501,169.0,446,458,60,118.0,734,1,314,516,116,0,0,0,250,-30976,169,,,,,,,,,,,,
38723,1560695610306,-0,2.28,2.72,3.02,2.49,5.04,0.45,0.01,1.5,-1,-6,1,0.45,5803,73,88,33,92,501,174.0,438,456,60,118.0,734,1,309,518,116,0,0,0,250,115,174,,,,,,,,,,,,
38743,1560695610326,1,2.28,2.7,2.98,2.48,5.07,0.54,-0.12,1.54,-2,-5,1,0.55,5946,74,88,33,92,502,178.0,436,456,60,118.0,734,1,314,515,116,0,0,0,250,135,178,45.699451,4.910457,14.02,193.1,0,0.0,-1,0.0,0.0,0,0.17,0.6457
38763,1560695610346,-2,2.29,2.7,2.95,2.48,5.06,0.66,-0.22,1.59,-2,-7,1,0.69,6019,74,88,33,93,502,188.0,442,457,60,118.0,734,1,318,525,116,0,0,0,250,-28416,188,,,,,,,,,,,,
38783,1560695610366,5,2.28,2.7,2.9,2.49,5.05,0.67,-0.29,1.62,-3,-7,3,0.73,5711,74,88,33,93,502,196.0,429,457,60,118.0,586,1,306,534,115,0,0,0,250,26880,196,,,,,,,,,,,,
38803,1560695610386,0,2.29,2.72,2.86,2.49,5.03,0.51,-0.24,1.57,-2,-6,2,0.56,5383,74,88,33,93,502,207.0,410,459,60,116.0,586,1,293,543,115,0,0,0,250,250,207,,,,,,,,,,,,
38823,1560695610406,6,2.29,2.71,2.87,2.49,5.05,0.5,-0.27,1.55,-1,-4,0,0.57,5338,74,88,33,94,502,214.0,392,461,60,118.0,586,1,291,565,115,0,0,0,250,24064,214,,,,,,,,,,,,
38843,1560695610426,0,2.29,2.71,2.93,2.5,5.08,0.48,-0.33,1.56,-1,-3,0,0.58,5231,75,88,33,95,501,220.0,390,454,60,116.0,586,1,287,589,115,0,0,0,250,250,220,45.699444,4.910454,17.16,193.1,0,0.0,-1,0.0,0.0,0,0.17,0.6474
38863,1560695610446,5,2.28,2.71,2.94,2.5,5.04,0.47,-0.28,1.54,-2,-3,-0,0.54,5010,75,88,33,95,501,230.0,374,467,60,118.0,586,1,279,602,115,0,0,0,250,-1,230,,,,,,,,,,,,
38883,1560695610466,3,2.29,2.71,2.93,2.49,5.05,0.36,-0.22,1.49,-1,-0,0,0.42,4887,75,88,33,96,501,238.0,366,459,60,118.0,491,1,282,624,116,0,0,0,250,-10440,238,,,,,,,,,,,,
38903,1560695610486,0,2.29,2.71,2.93,2.49,5.08,0.37,-0.14,1.4,-1,-1,-1,0.39,4880,75,88,33,96,501,245.0,362,455,60,116.0,491,1,282,624,116,0,0,0,250,14337,245,,,,,,,,,,,,
38923,1560695610506,1,2.3,2.7,2.95,2.49,5.04,0.42,-0.14,1.36,-0,-2,0,0.44,4858,75,88,33,96,501,248.0,366,449,60,117.0,491,1,282,624,116,0,0,0,250,506,248,,,,,,,,,,,,
38943,1560695610526,4,2.29,2.66,3.0,2.47,5.05,0.36,-0.17,1.41,-0,-3,0,0.4,4881,76,88,33,96,501,256.0,355,466,60,119.0,491,1,282,624,116,0,0,0,250,14337,256,45.69944,4.91045,20.72,193.1,0,0.0,-1,0.0,0.0,0,0.17,0.649
38963,1560695610546,-1,2.29,2.64,3.02,2.47,5.04,0.41,-0.13,1.38,-1,-0,-2,0.43,4935,77,88,33,96,501,260.0,362,458,60,117.0,491,1,281,625,116,0,0,0,250,-1,260,,,,,,,,,,,,
38983,1560695610566,-0,2.29,2.63,3.01,2.44,5.06,0.41,-0.08,1.27,-1,-2,-2,0.42,5111,77,88,33,96,501,265.0,375,456,60,117.0,450,1,283,618,118,0,0,0,250,-1,265,,,,,,,,,,,,
39003,1560695610586,1,2.28,2.62,3.01,2.43,5.08,0.41,-0.09,1.26,-1,-3,-1,0.42,5289,78,88,33,95,501,269.0,377,459,60,118.0,450,1,289,586,118,0,0,0,250,-1534,269,,,,,,,,,,,,
39023,1560695610604,2,2.28,2.61,3.0,2.42,5.06,0.41,-0.07,1.25,-0,1,-1,0.41,5460,79,88,33,95,501,273.0,393,460,60,116.0,450,1,296,575,118,0,0,0,250,0,273,,,,,,,,,,,,
39043,1560695610624,2,2.27,2.6,3.0,2.41,5.05,0.37,-0.04,1.27,0,-0,-1,0.37,5617,79,88,33,95,501,278.0,405,462,60,117.0,450,1,302,570,118,0,0,0,250,90,278,45.699436,4.910446,24.01,193.1,0,0.0,-1,0.0,0.0,0,0.17,0.6507
39063,1560695610644,1,2.28,2.59,3.0,2.42,5.08,0.35,-0.01,1.32,1,-2,-1,0.35,5688,80,87,33,94,501,284.0,410,457,60,117.0,450,1,305,549,118,0,0,0,250,28160,284,,,,,,,,,,,,
39083,1560695610664,-1,2.27,2.6,2.99,2.43,5.05,0.43,-0.02,1.39,-0,-4,0,0.43,5803,80,88,33,94,501,288.0,415,455,60,118.0,414,1,309,544,119,0,0,0,250,115,290,,,,,,,,,,,,
39103,1560695610684,-1,2.28,2.61,2.99,2.42,5.05,0.54,-0.12,1.45,-2,-7,-0,0.55,5903,80,87,33,94,501,295.0,427,457,60,118.0,414,1,313,539,119,0,0,0,250,-32256,295,,,,,,,,,,,,
39123,1560695610704,1,2.28,2.61,2.97,2.43,5.04,0.69,-0.23,1.47,-4,-9,1,0.72,5982,80,87,33,94,502,300.0,436,457,60,118.0,414,1,316,535,119,0,0,0,250,-29696,300,,,,,,,,,,,,
39143,1560695610724,1,2.27,2.61,2.96,2.42,5.04,0.72,-0.31,1.48,-4,-12,2,0.79,6023,80,87,33,94,502,305.0,441,458,60,118.0,414,1,318,534,119,0,0,0,250,145,309,45.699432,4.910441,26.61,193.1,0,0.0,-1,0.0,0.0,0,0.17,0.6524
39163,1560695610744,1,2.27,2.61,2.96,2.42,5.06,0.78,-0.35,1.49,-4,-13,2,0.85,6081,80,87,33,94,503,313.0,442,458,60,118.0,414,1,321,534,119,0,0,0,250,-25856,313,,,,,,,,,,,,
39183,1560695610764,2,2.28,2.59,2.96,2.42,5.07,0.77,-0.37,1.54,-4,-15,3,0.86,6175,80,87,33,94,503,319.0,445,456,60,117.0,392,1,325,534,124,0,0,0,250,165,319,,,,,,,,,,,,
39203,1560695610784,6,2.27,2.6,2.96,2.43,5.04,0.69,-0.35,1.55,-3,-15,3,0.77,6336,80,87,33,94,502,325.0,460,456,60,116.0,392,1,334,533,124,0,0,0,250,4838,325,,,,,,,,,,,,
39223,1560695610806,-1,2.28,2.58,2.97,2.42,5.07,0.5,-0.21,1.41,-2,-9,2,0.54,6416,80,87,33,94,502,329.0,469,457,60,117.0,392,1,338,533,124,0,0,0,250,-31222,329,,,,,,,,,,,,
39243,1560695610826,-0,2.28,2.58,2.99,2.41,5.06,0.58,-0.24,1.35,-2,-8,2,0.63,6508,80,87,33,94,501,336.0,478,457,60,117.0,392,1,343,532,124,0,0,0,250,-14714,336,45.699425,4.910435,29.23,193.1,0,0.0,-1,0.0,0.0,0,0.17,0.654
39263,1560695610846,5,2.27,2.57,2.99,2.42,5.04,0.64,-0.21,1.32,-3,-10,3,0.67,6627,80,87,33,94,501,341.0,485,460,60,117.0,392,1,350,532,124,0,0,0,250,-30454,339,,,,,,,,,,,,
39283,1560695610866,1,2.28,2.57,2.99,2.41,5.04,0.47,-0.22,1.24,-2,-7,2,0.52,6751,81,87,33,94,500,344.0,491,451,60,118.0,393,1,356,531,135,0,0,0,250,4104,344,,,,,,,,,,,,
39303,1560695610886,0,2.27,2.57,2.96,2.4,5.04,0.5,-0.17,1.21,-3,-4,1,0.53,6906,81,87,33,94,500,349.0,505,460,60,116.0,393,1,364,530,135,0,0,0,250,-1268,349,,,,,,,,,,,,
39323,1560695610906,4,2.27,2.57,2.96,2.41,5.04,0.5,-0.22,1.29,-1,-5,1,0.55,6949,81,87,33,93,500,354.0,503,460,60,118.0,393,1,367,531,135,0,0,368,3302,230,354,,,,,,,,,,,,
39343,1560695610926,1,2.28,2.57,2.96,2.42,5.04,0.29,-0.17,1.21,-1,-3,1,0.34,6962,81,87,33,93,500,359.0,512,456,60,117.0,393,1,368,530,135,0,0,371,-29302,-6656,359,45.699417,4.91043,31.92,193.1,0,0.0,-1,0.0,0.0,0,0.17,0.6557
39363,1560695610946,0,2.27,2.57,2.97,2.4,5.05,0.43,-0.19,1.23,-2,-3,1,0.47,7006,81,87,33,94,500,364.0,514,459,60,116.0,393,1,373,530,135,0,0,380,-1268,-992,362,,,,,,,,,,,,
39383,1560695610966,6,2.27,2.56,2.99,2.42,5.03,0.33,-0.22,1.27,-1,-1,1,0.4,7131,81,87,33,93,500,369.0,517,458,60,117.0,389,1,380,538,143,0,0,383,-6656,-19126,369,,,,,,,,,,,,
39403,1560695610986,4,2.27,2.57,2.99,2.41,5.06,0.2,-0.16,1.23,1,1,1,0.26,7261,81,87,33,93,500,374.0,528,455,60,118.0,389,1,390,544,143,0,0,389,-6656,-6524,374,,,,,,,,,,,,
39423,1560695610999,4,2.27,2.56,3.0,2.41,5.05,0.17,-0.2,1.26,1,0,-0,0.26,7458,81,87,33,92,500,378.0,535,458,60,118.0,389,1,406,553,143,0,0,396,-6656,-6656,378,,,,,,,,,,,,
39443,1560695611019,5,2.27,2.57,2.98,2.42,5.05,0.05,-0.12,1.29,1,-0,1,0.13,7603,82,87,33,92,500,383.0,547,458,60,117.0,389,1,417,559,143,0,0,404,-992,28696,383,45.699413,4.910423,34.54,193.1,0,0.0,-1,0.0,0.0,0,0.17,0.6574
39463,1560695611039,1,2.28,2.57,2.96,2.42,5.04,0.03,-0.12,1.27,2,3,3,0.12,7767,82,87,33,90,500,388.0,552,457,60,117.0,389,1,431,565,143,0,0,402,-3866,-4059,388,,,,,,,,,,,,
39483,1560695611059,2,2.27,2.56,2.97,2.42,5.03,0.19,-0.21,1.33,2,2,2,0.28,7851,82,87,33,90,500,394.0,556,455,60,117.0,430,1,438,569,168,0,0,414,-1818,7154,394,,,,,,,,,,,,
39503,1560695611079,3,2.29,2.57,2.96,2.43,5.06,0.28,-0.19,1.25,1,2,-0,0.34,7999,82,87,33,89,500,399.0,571,456,60,117.0,430,1,447,564,168,0,0,426,11545,31796,399,,,,,,,,,,,,
39523,1560695611105,1,2.28,2.57,2.96,2.44,5.08,0.25,-0.23,1.27,1,1,1,0.34,8169,82,87,33,87,500,406.0,579,455,60,117.0,430,1,440,573,168,0,0,434,1504,13180,406,,,,,,,,,,,,
39543,1560695611125,2,2.28,2.58,2.97,2.46,5.08,0.24,-0.13,1.24,1,1,1,0.28,8234,82,87,33,87,500,410.0,579,454,60,117.0,430,1,437,575,168,0,0,443,9517,20625,410,45.699402,4.910417,36.85,193.2,0,0.0,-1,0.0,0.0,0,0.17,0.659
39563,1560695611145,3,2.27,2.6,2.97,2.45,5.06,0.28,-0.2,1.31,0,-1,2,0.35,8355,82,87,33,86,500,419.0,590,464,60,117.0,430,1,435,573,168,0,0,441,7154,-8985,417,,,,,,,,,,,,
39583,1560695611165,1,2.28,2.65,2.96,2.45,5.07,0.17,-0.03,1.29,0,1,2,0.17,8465,82,87,33,86,500,423.0,597,462,60,117.0,437,1,432,575,185,0,0,448,3826,2211,426,,,,,,,,,,,,
39603,1560695611185,4,2.27,2.67,2.93,2.47,5.04,0.16,0.0,1.17,1,4,2,0.16,8596,83,87,33,85,500,431.0,610,452,60,116.0,437,1,428,576,185,0,0,457,3635,-9160,431,,,,,,,,,,,,
39623,1560695611205,3,2.28,2.67,2.92,2.47,5.05,0.26,-0.17,1.25,1,-0,2,0.31,8712,83,87,33,84,500,438.0,608,452,60,117.0,437,1,424,576,185,0,0,461,21580,30272,439,,,,,,,,,,,,
39643,1560695611225,2,2.28,2.67,2.94,2.46,5.07,0.31,-0.22,1.33,1,0,1,0.38,8786,83,87,33,85,500,444.0,622,458,60,117.0,437,1,423,566,185,0,0,472,21432,-3210,445,45.699394,4.910409,39.73,193.2,0,0.0,-1,0.0,0.0,0,0.17,0.6607
39663,1560695611245,4,2.27,2.65,2.95,2.47,5.08,0.41,-0.17,1.39,1,0,0,0.45,8894,84,87,33,85,500,452.0,623,450,60,117.0,437,1,421,566,185,0,0,488,15649,2212,452,,,,,,,,,,,,
39683,1560695611265,1,2.28,2.66,2.95,2.46,5.06,0.46,-0.1,1.32,-0,-3,1,0.47,9001,84,87,33,84,500,456.0,614,448,60,117.0,420,1,418,566,191,0,0,486,14488,10305,457,,,,,,,,,,,,
39703,1560695611285,4,2.26,2.66,2.96,2.46,5.08,0.45,-0.01,1.29,-0,-3,2,0.45,9141,84,87,33,84,500,465.0,623,447,60,116.0,420,1,418,566,191,0,0,487,30272,771,461,,,,,,,,,,,,
39723,1560695611305,3,2.27,2.66,2.96,2.44,5.07,0.6,0.04,1.28,-1,-2,1,0.6,9272,84,87,33,84,500,471.0,637,450,60,117.0,420,1,418,566,191,0,0,493,3576,-32248,471,,,,,,,,,,,,
39743,1560695611325,1,2.26,2.65,2.96,2.44,5.07,0.56,-0.04,1.35,-1,-1,0,0.56,9450,84,87,33,83,500,479.0,627,457,60,117.0,420,1,418,555,191,0,0,503,10305,10408,477,45.699387,4.910401,42.84,193.2,0,0.0,-1,0.0,0.0,0,0.17,0.6624
39763,1560695611345,5,2.26,2.65,2.94,2.43,5.08,0.38,0.08,1.23,0,1,-0,0.39,9590,84,87,33,82,500,486.0,636,457,60,116.0,420,1,413,540,191,0,0,506,-1562,26178,482,,,,,,,,,,,,
39783,1560695611365,0,2.27,2.65,2.94,2.43,5.06,0.48,0.03,1.22,-0,-1,1,0.48,9715,84,87,33,82,500,490.0,633,458,60,117.0,408,1,408,539,198,0,0,517,-1818,17136,490,,,,,,,,,,,,
39803,1560695611385,5,2.26,2.65,2.93,2.44,5.05,0.32,0.14,1.23,-0,-0,2,0.35,9801,84,87,33,81,500,496.0,631,461,60,116.0,408,1,404,528,198,0,0,523,3,-9212,496,,,,,,,,,,,,
39823,1560695611405,0,2.26,2.65,2.93,2.46,5.03,0.47,0.06,1.28,-0,-1,1,0.47,9858,84,87,33,82,500,502.0,629,460,60,117.0,408,1,402,538,198,0,0,535,15661,6274,502,,,,,,,,,,,,
39843,1560695611425,3,2.27,2.66,2.93,2.45,5.05,0.35,0.14,1.27,-1,-3,1,0.38,9899,84,87,33,81,500,508.0,627,460,60,117.0,408,1,401,529,198,0,0,533,-28648,2524,507,45.699375,4.910393,45.54,193.2,0,0.0,-1,0.0,0.0,0,0.17,0.664
39863,1560695611445,4,2.26,2.66,2.94,2.45,5.04,0.34,0.21,1.29,-1,-2,1,0.4,9994,84,87,32,81,500,514.0,631,458,60,116.0,408,1,398,529,198,0,0,532,-3482,-2934,513,,,,,,,,,,,,
39883,1560695611465,2,2.26,2.64,2.94,2.43,5.03,0.39,0.12,1.25,-1,-2,1,0.4,10151,84,87,32,81,500,522.0,628,461,60,117.0,392,1,406,529,202,0,0,547,2524,-2336,520,,,,,,,,,,,,
39903,1560695611485,2,2.26,2.65,2.95,2.42,5.04,0.43,0.17,1.19,-1,-3,1,0.46,10223,84,87,32,81,500,526.0,630,455,60,117.0,392,1,411,529,202,0,0,556,-32248,-32248,525,,,,,,,,,,,,
39923,1560695611505,2,2.26,2.65,2.99,2.43,5.07,0.37,0.12,1.16,-1,-2,1,0.39,10364,84,87,32,81,500,531.0,643,455,60,117.0,392,1,420,529,202,0,0,556,2524,2216,530,,,,,,,,,,,,
39943,1560695611525,0,2.27,2.64,2.99,2.42,5.07,0.37,0.1,1.04,-1,1,-0,0.38,10445,84,87,32,81,500,537.0,638,457,60,116.0,392,1,426,529,202,0,0,561,1780,2211,538,45.699368,4.910384,48.91,193.2,0,0.0,-1,0.0,0.0,0,0.18,0.6657
39963,1560695611545,3,2.26,2.65,2.99,2.42,5.04,0.4,0.14,1.04,-1,1,-1,0.42,10617,85,87,32,81,500,542.0,643,458,60,117.0,392,1,433,529,202,0,0,563,-3082,1760,541,,,,,,,,,,,,
39983,1560695611565,1,2.27,2.64,2.95,2.41,5.06,0.41,0.22,1.06,-1,-2,1,0.46,10702,85,87,32,81,500,549.0,644,455,60,116.0,392,1,435,529,213,0,0,564,2104,774,544,,,,,,,,,,,,
40003,1560695611585,2,2.27,2.65,2.95,2.42,5.04,0.28,0.21,1.03,-0,-1,0,0.35,10825,85,87,32,81,500,553.0,653,459,60,116.0,392,1,438,529,213,0,0,575,-9072,1760,550,,,,,,,,,,,,
40023,1560695611605,3,2.26,2.64,3.0,2.42,5.06,0.32,0.3,1.06,1,1,-1,0.44,10875,85,87,32,81,500,556.0,649,459,60,116.0,392,1,440,529,213,0,0,583,6273,10432,557,,,,,,,,,,,,
40043,1560695611625,3,2.26,2.65,3.01,2.42,5.04,0.41,0.14,1.12,-0,1,-2,0.43,10971,85,87,32,81,500,563.0,655,458,60,116.0,392,1,442,529,213,0,0,590,-30159,-25872,561,45.699352,4.910374,51.69,193.3,0,0.0,-1,0.0,0.0,0,0.18,0.6674
40063,1560695611645,6,2.26,2.63,3.02,2.4,5.06,0.37,0.21,1.14,-1,0,-1,0.42,11107,85,87,32,81,500,567.0,640,458,60,117.0,392,1,443,529,213,0,0,595,-2934,6273,568,,,,,,,,,,,,
40083,1560695611665,3,2.26,2.63,3.0,2.4,5.04,0.39,0.13,1.21,-1,-0,-1,0.41,11160,85,87,32,80,500,575.0,645,457,60,116.0,393,1,443,529,224,0,0,595,30208,-3446,573,,,,,,,,,,,,
40103,1560695611685,2,2.27,2.62,2.93,2.4,5.05,0.28,0.17,1.16,-1,-1,-0,0.33,11261,85,87,32,80,500,580.0,643,452,60,116.0,393,1,442,521,224,0,0,602,-16384,-7939,576,,,,,,,,,,,,
40123,1560695611705,2,2.27,2.64,2.93,2.4,5.05,0.35,0.15,1.17,-1,-0,-2,0.38,11398,85,87,32,80,500,583.0,654,458,60,116.0,393,1,441,521,224,0,0,602,8488,19621,580,,,,,,,,,,,,
40143,1560695611725,4,2.28,2.63,2.93,2.41,5.04,0.34,0.15,1.16,-0,-1,-3,0.37,11496,85,87,32,80,500,588.0,652,456,60,116.0,393,1,441,521,224,0,0,609,208,3403,586,45.699345,4.910364,54.43,193.3,0,0.0,-1,0.0,0.0,0,0.18,0.669
40163,1560695611745,4,2.26,2.61,2.93,2.41,5.05,0.34,-0.02,1.23,-1,-2,-2,0.34,11588,85,87,32,80,500,592.0,652,458,60,116.0,393,1,440,522,224,0,0,618,-32504,269,596,,,,,,,,,,,,
40183,1560695611765,4,2.27,2.59,2.94,2.41,5.04,0.35,-0.09,1.3,-1,-1,-3,0.36,11653,85,87,32,79,500,600.0,659,457,60,116.0,379,1,440,514,226,0,0,626,-3210,-18357,599,,,,,,,,,,,,
40203,1560695611785,4,2.27,2.59,2.95,2.4,5.03,0.43,-0.03,1.31,-1,0,-3,0.43,11696,85,87,32,80,500,603.0,661,458,60,116.0,379,1,440,524,226,0,0,630,-7939,26688,603,,,,,,,,,,,,
40223,1560695611805,4,2.27,2.6,2.98,2.39,5.07,0.44,0.15,1.25,-1,2,-3,0.46,11770,85,87,32,79,500,608.0,653,461,60,116.0,379,1,440,526,226,0,0,637,-3446,-2580,606,,,,,,,,,,,,
40243,1560695611825,2,2.26,2.6,2.98,2.39,5.06,0.45,0.28,1.17,-1,3,-3,0.53,11867,85,87,32,80,500,614.0,673,456,60,116.0,379,1,440,527,226,0,0,639,16529,966,610,45.699333,4.910353,56.85,193.3,0,0.0,-1,0.0,0.0,0,0.18,0.6707
40263,1560695611845,2,2.26,2.58,2.97,2.37,5.05,0.47,0.38,1.0,-1,3,-2,0.61,11965,85,87,32,79,500,622.0,672,461,60,116.0,379,1,440,519,226,0,0,641,269,-3584,622,,,,,,,,,,,,
40283,1560695611865,4,2.27,2.6,2.95,2.39,5.04,0.46,0.48,0.83,-2,1,-1,0.66,12057,85,87,32,79,500,624.0,675,455,60,116.0,381,1,440,520,237,0,0,650,-1346,479,621,,,,,,,,,,,,
40303,1560695611885,2,2.27,2.61,2.95,2.38,5.07,0.5,0.48,0.83,-2,-0,-2,0.69,12143,85,87,32,79,500,627.0,670,461,60,116.0,381,1,440,530,237,0,0,651,-16046,24583,627,,,,,,,,,,,,
40323,1560695611905,4,2.27,2.61,3.01,2.38,5.08,0.5,0.39,0.92,-1,-2,-3,0.64,12207,85,87,32,80,500,631.0,656,456,60,116.0,381,1,440,531,237,0,0,656,3,-30207,632,,,,,,,,,,,,
40343,1560695611925,2,2.27,2.6,3.01,2.38,5.08,0.54,0.21,1.03,-2,-2,-3,0.58,12343,85,87,32,79,500,635.0,662,459,60,116.0,381,1,440,522,237,0,0,662,-4876,31988,634,45.699318,4.910343,59.18,193.4,0,0.0,-1,0.0,0.0,0,0.18,0.6724
40363,1560695611945,6,2.26,2.61,3.02,2.37,5.04,0.55,0.17,1.0,-1,-4,-2,0.58,12417,85,88,32,80,500,638.0,663,457,60,116.0,381,1,440,533,237,0,0,667,16599,-3038,633,,,,,,,,,,,,
40383,1560695611965,3,2.26,2.6,3.04,2.35,5.05,0.46,0.16,0.9,-1,-4,-2,0.49,12483,86,88,32,80,500,648.0,667,459,60,116.0,394,1,440,533,252,0,0,668,479,8958,645,,,,,,,,,,,,
40403,1560695611985,5,2.27,2.57,3.03,2.33,5.04,0.51,0.14,0.92,-1,-3,-2,0.52,12541,86,88,32,79,500,651.0,663,460,60,116.0,394,1,440,524,252,0,0,665,2024,8958,647,,,,,,,,,,,,
40423,1560695611998,4,2.27,2.57,3.04,2.32,5.06,0.63,0.01,0.82,-1,-5,-1,0.63,12609,86,88,32,80,500,657.0,665,454,60,116.0,394,1,440,534,252,0,0,680,8958,-10344,655,,,,,,,,,,,,
40443,1560695612018,0,2.27,2.57,3.03,2.33,5.06,0.49,0.03,0.91,-1,-6,-1,0.49,12711,86,88,32,80,500,658.0,662,452,60,116.0,394,1,440,535,252,0,0,680,-388,3543,656,45.699306,4.910331,61.69,193.4,0,0.0,-1,0.0,0.0,0,0.18,0.674
40463,1560695612038,-1,2.27,2.57,2.93,2.36,5.04,0.53,0.01,0.78,-1,-7,-0,0.53,12851,86,88,32,80,500,658.0,658,455,60,116.0,394,1,440,536,252,0,0,679,-2345,6208,660,,,,,,,,,,,,
40483,1560695612058,-1,2.28,2.57,2.96,2.35,5.04,0.59,-0.05,0.9,-1,-6,1,0.59,12600,86,88,32,80,500,663.0,666,466,60,119.0,395,1,440,534,261,0,0,690,-10348,-10344,660,,,,,,,,,,,,
40503,1560695612078,-0,2.28,2.54,2.97,2.32,5.04,0.64,-0.12,0.86,-1,-6,0,0.65,12081,86,88,32,81,501,667.0,669,461,60,119.0,395,1,440,540,261,0,0,676,3543,-3038,668,,,,,,,,,,,,
40523,1560695612104,-1,2.29,2.5,3.1,2.24,5.05,0.68,-0.22,0.83,-0,-5,0,0.72,11755,87,88,32,82,503,671.0,670,461,60,118.0,395,1,440,543,261,0,0,672,8958,-3578,667,,,,,,,,,,,,
40543,1560695612124,0,2.28,2.46,3.21,2.24,5.03,0.71,-0.19,0.8,0,-2,0,0.73,11538,87,88,32,83,504,670.0,660,462,60,119.0,395,1,440,546,261,0,0,666,-388,-3578,667,45.699295,4.910319,63.64,193.5,0,0.0,-1,0.0,0.0,0,0.19,0.6757
40563,1560695612144,-0,2.28,2.45,3.28,2.23,5.07,0.65,-0.22,0.75,1,1,-0,0.68,11301,87,88,32,84,505,670.0,660,460,60,117.0,395,1,441,564,261,0,0,671,-388,-2826,668,,,,,,,,,,,,
40583,1560695612164,5,2.27,2.37,3.29,2.11,5.05,0.69,-0.26,0.72,-1,-1,-2,0.74,11061,88,88,32,85,506,668.0,669,457,60,118.0,358,1,444,1058,239,0,0,663,-2830,3543,665,,,,,,,,,,,,
40603,1560695612184,5,2.27,2.31,3.19,2.07,5.06,0.62,-0.33,0.84,1,6,-4,0.7,10653,88,88,32,85,506,674.0,638,455,60,115.0,358,1,434,958,239,0,0,700,-26380,-13072,675,,,,,,,,,,,,
40623,1560695612204,1,2.26,2.38,3.08,2.22,5.04,0.66,-0.34,0.92,1,7,-5,0.74,9978,89,88,32,86,505,681.0,644,460,60,116.0,358,1,397,891,239,0,0,751,-26892,-23308,675,,,,,,,,,,,,
40643,1560695612224,5,2.27,2.44,2.99,2.32,5.04,0.58,-0.25,0.83,1,8,-2,0.63,9904,89,88,32,84,503,687.0,628,457,60,116.0,358,1,400,755,239,0,0,745,-10344,-2560,687,45.69928,4.910307,65.07,193.5,0,0.0,-1,0.0,0.0,0,0.19,0.6774
40663,1560695612244,2,2.28,2.45,2.91,2.33,5.04,0.58,-0.25,0.95,0,6,-2,0.63,9878,89,88,32,84,502,690.0,637,455,60,116.0,358,1,401,637,239,0,0,709,-2830,-2830,688,,,,,,,,,,,,
40683,1560695612264,4,2.27,2.45,2.71,2.32,5.04,0.64,-0.29,0.99,1,6,-1,0.7,9750,89,88,32,83,501,695.0,645,453,60,116.0,316,1,407,550,219,0,0,713,6208,19188,696,,,,,,,,,,,,
40703,1560695612284,2,2.27,2.45,2.8,2.31,5.08,0.46,-0.26,0.95,1,5,-2,0.53,9620,89,88,32,83,500,702.0,624,460,60,117.0,316,1,413,553,219,0,0,730,8010,-3344,697,,,,,,,,,,,,
40723,1560695612304,3,2.27,2.5,2.88,2.31,5.05,0.42,-0.21,0.92,0,4,-1,0.47,9694,89,88,32,83,500,704.0,632,455,60,116.0,316,1,410,566,219,0,0,725,11069,-3450,702,,,,,,,,,,,,
40743,1560695612324,1,2.27,2.53,2.97,2.31,5.07,0.46,-0.21,0.9,-0,3,-3,0.51,9832,89,88,32,84,500,706.0,632,450,60,116.0,316,1,403,565,219,0,0,729,-30694,3462,704,45.699264,4.910296,65.6,193.5,0,0.0,-1,0.0,0.0,0,0.19,0.6791
40763,1560695612344,5,2.28,2.53,3.01,2.32,5.07,0.53,-0.24,0.91,-1,-2,-2,0.58,9984,89,88,32,83,500,709.0,630,455,60,117.0,316,1,396,546,219,0,0,731,-12152,3462,707,,,,,,,,,,,,
40783,1560695612364,3,2.28,2.55,3.06,2.33,5.06,0.42,-0.18,0.91,-0,-1,-2,0.45,10102,90,88,32,83,500,714.0,634,461,60,116.0,292,1,404,545,208,0,0,741,-13312,-31068,712,,,,,,,,,,,,
40803,1560695612384,3,2.27,2.55,3.08,2.34,5.04,0.4,-0.08,0.88,-0,2,-1,0.41,10223,90,88,32,83,500,717.0,631,461,60,117.0,292,1,410,545,208,0,0,743,204,-22795,717,,,,,,,,,,,,
40823,1560695612404,2,2.27,2.55,3.11,2.33,5.05,0.38,-0.1,0.85,-0,-1,-1,0.4,10240,90,88,32,83,500,722.0,633,458,60,117.0,292,1,411,545,208,0,0,763,1524,-2766,721,,,,,,,,,,,,
40843,1560695612424,2,2.27,2.55,3.11,2.4,5.07,0.42,-0.15,0.78,-1,-2,-1,0.45,10359,90,88,32,83,500,728.0,635,456,60,117.0,292,1,419,545,208,0,0,759,-388,13016,728,45.699253,4.910283,68.77,193.5,0,0.0,-1,0.0,0.0,0,0.19,0.6807
40863,1560695612444,1,2.28,2.53,3.11,2.36,5.04,0.49,-0.13,0.82,-1,-1,1,0.51,10387,90,88,32,83,500,733.0,646,455,60,117.0,292,1,421,545,208,0,0,766,-22796,-10214,730,,,,,,,,,,,,
40883,1560695612464,2,2.28,2.51,3.08,2.35,5.08,0.54,-0.03,0.78,-1,-0,1,0.54,10457,90,88,32,83,500,737.0,648,458,60,117.0,293,1,426,545,216,0,0,770,-3580,-10218,737,,,,,,,,,,,,
40903,1560695612484,1,2.28,2.52,3.0,2.34,5.07,0.53,0.02,0.83,-1,-2,1,0.53,10439,90,88,32,83,500,742.0,646,453,60,116.0,293,1,424,545,216,0,0,764,-2826,-22795,742,,,,,,,,,,,,
40923,1560695612506,1,2.28,2.53,3.1,2.34,5.08,0.5,0.02,0.79,-1,-1,1,0.5,10457,90,88,32,83,500,746.0,650,454,60,117.0,293,1,426,545,216,0,0,798,-30694,13016,743,,,,,,,,,,,,
40943,1560695612526,2,2.28,2.53,2.97,2.34,5.03,0.59,0.08,0.83,-1,-4,1,0.59,10492,90,88,32,83,500,750.0,640,456,60,117.0,293,1,428,545,216,0,0,760,-2830,-3450,749,45.699234,4.910271,70.53,193.5,0,0.0,-1,0.0,0.0,0,0.19,0.6824
40963,1560695612546,3,2.28,2.52,3.0,2.31,5.05,0.55,0.15,0.85,-1,-2,2,0.57,10557,90,88,32,83,500,753.0,633,460,60,116.0,293,1,430,545,216,0,0,781,-22795,-10212,750,,,,,,,,,,,,
40983,1560695612566,2,2.27,2.52,2.98,2.3,5.07,0.5,0.27,0.85,-1,-4,1,0.57,10563,90,88,32,83,500,759.0,644,453,60,117.0,289,1,430,545,218,0,0,773,5876,6389,756,,,,,,,,,,,,
41003,1560695612586,4,2.29,2.54,3.03,2.32,5.04,0.46,0.21,0.85,-1,-2,1,0.51,10671,90,88,32,83,500,761.0,639,456,60,116.0,289,1,433,545,218,0,0,778,5876,-22795,757,,,,,,,,,,,,
41023,1560695612600,5,2.27,2.54,3.07,2.32,5.04,0.49,0.33,0.9,-1,-2,1,0.59,10720,90,88,32,83,500,765.0,646,462,60,116.0,289,1,434,545,218,0,0,785,-2344,-7436,762,,,,,,,,,,,,
41043,1560695612620,3,2.29,2.53,3.04,2.33,5.07,0.54,0.3,0.93,-1,-4,1,0.62,10831,90,88,32,83,500,763.0,641,457,60,116.0,289,1,437,545,218,0,0,788,6389,-30694,763,45.699219,4.910257,72.61,193.5,0,0.0,-1,0.0,0.0,0,0.19,0.684
41063,1560695612640,5,2.28,2.52,3.08,2.31,5.05,0.46,0.22,0.89,0,-3,3,0.51,10838,90,88,32,83,500,774.0,650,460,60,117.0,289,1,437,545,218,0,0,802,-2830,11277,773,,,,,,,,,,,,
41083,1560695612660,3,2.28,2.52,3.08,2.31,5.07,0.47,0.23,0.84,-0,-4,3,0.53,10901,90,88,32,83,500,776.0,651,454,60,116.0,291,1,439,545,224,0,0,808,-31068,31988,775,,,,,,,,,,,,
41103,1560695612680,2,2.28,2.52,3.11,2.33,5.05,0.49,0.26,0.79,-1,-0,2,0.56,11009,90,88,32,83,500,782.0,650,457,60,116.0,291,1,442,545,224,0,0,818,-31066,-23490,776,,,,,,,,,,,,
41123,1560695612700,6,2.28,2.52,3.06,2.32,5.07,0.44,0.18,0.91,0,-2,2,0.47,11042,90,88,32,83,500,781.0,654,457,60,116.0,291,1,442,545,224,0,0,815,-2426,204,781,,,,,,,,,,,,
41143,1560695612708,2,2.28,2.53,2.99,2.32,5.04,0.53,0.25,0.91,-0,-5,3,0.58,11094,90,88,32,83,500,788.0,648,458,60,116.0,291,1,442,545,224,0,0,808,-10216,-2314,784,45.699204,4.910244,74.37,193.6,0,0.0,-1,0.0,0.0,0,0.2,0.6857
41163,1560695612728,4,2.29,2.52,3.0,2.31,5.08,0.56,0.2,0.99,-1,-4,3,0.59,11127,90,88,32,83,500,792.0,646,458,60,116.0,291,1,442,537,224,0,0,816,5344,-3580,792,,,,,,,,,,,,
41183,1560695612748,1,2.28,2.52,3.01,2.3,5.04,0.54,0.13,0.97,-0,-2,1,0.56,11120,90,88,32,82,500,796.0,652,461,60,116.0,284,1,443,537,226,0,0,827,-12152,-31068,794,,,,,,,,,,,,
41203,1560695612768,5,2.28,2.53,3.01,2.32,5.06,0.5,0.2,0.94,0,-5,1,0.54,11120,90,88,32,83,500,799.0,643,457,60,116.0,284,1,442,545,226,0,0,819,-3888,-3580,799,,,,,,,,,,,,
41223,1560695612806,2,2.29,2.53,3.01,2.32,5.04,0.55,0.13,1.0,-1,-5,0,0.56,11227,90,88,32,82,500,802.0,650,456,60,116.0,284,1,443,537,226,0,0,830,204,-31066,800,,,,,,,,,,,,
41243,1560695612826,3,2.29,2.51,3.03,2.31,5.05,0.54,0.15,0.98,-1,-5,1,0.56,11349,90,88,32,82,500,808.0,651,454,60,116.0,284,1,442,537,226,0,0,836,-23490,136,806,45.699188,4.91023,76.45,193.6,0,0.0,-1,0.0,0.0,0,0.2,0.6874
41263,1560695612846,3,2.27,2.48,3.03,2.3,5.04,0.46,0.02,1.08,0,-1,-1,0.46,11412,90,88,32,82,500,815.0,655,457,60,116.0,284,1,441,537,226,0,0,836,-3450,-4096,812,,,,,,,,,,,,
41283,1560695612866,6,2.29,2.49,3.06,2.33,5.07,0.49,0.04,1.07,1,-2,-0,0.5,11432,90,88,32,82,500,816.0,652,460,60,116.0,285,1,441,537,232,0,0,848,-4091,-3344,816,,,,,,,,,,,,
41303,1560695612886,5,2.28,2.52,3.05,2.33,5.06,0.57,0.09,0.99,0,-4,0,0.58,11510,90,88,32,82,500,818.0,652,456,60,116.0,285,1,440,537,232,0,0,841,-13580,-23308,818,,,,,,,,,,,,
41323,1560695612906,1,2.29,2.51,3.05,2.33,5.05,0.62,-0.01,1.08,-1,-5,1,0.62,11559,90,88,32,82,500,823.0,658,460,60,116.0,285,1,440,538,232,0,0,848,-2830,-22795,822,,,,,,,,,,,,
41343,1560695612926,3,2.27,2.51,3.03,2.33,5.04,0.64,-0.06,1.13,-2,-4,2,0.64,11624,80,88,32,81,500,826.0,657,457,60,116.0,285,1,440,531,232,0,0,848,-2826,-10508,826,45.699173,4.910215,78.45,193.6,0,0.0,-1,0.0,0.0,0,0.2,0.689
41363,1560695612946,2,2.29,2.49,3.03,2.31,5.07,0.67,0.04,0.98,-1,1,3,0.67,11566,59,88,32,74,500,831.0,645,458,60,117.0,285,1,440,480,232,0,0,868,-31066,-2311,831,,,,,,,,,,,,
41383,1560695612966,5,2.28,2.48,3.04,2.31,5.03,0.61,0.13,0.95,-0,2,2,0.62,11496,37,88,32,64,500,835.0,641,461,60,116.0,242,1,441,424,202,0,0,850,-22796,-23308,836,,,,,,,,,,,,
41403,1560695612986,4,2.28,2.49,3.06,2.3,5.06,0.71,0.18,0.85,-0,-1,1,0.73,11088,15,88,32,52,500,841.0,652,456,60,117.0,242,1,394,311,202,0,0,852,136,-1576,835,,,,,,,,,,,,
41423,1560695612993,4,2.28,2.47,3.06,2.29,5.06,0.7,0.16,0.76,-1,-3,0,0.72,10738,8,88,32,43,500,838.0,653,461,60,116.0,242,1,350,239,202,0,0,832,6790,-3450,836,,,,,,,,,,,,
41443,1560695613013,6,2.28,2.4,3.13,2.21,5.05,0.71,0.02,0.77,-0,-4,0,0.71,10593,7,88,32,38,500,836.0,648,458,60,116.0,242,1,317,219,202,0,0,838,6790,1037,833,45.699154,4.910201,80.01,193.6,0,0.0,-1,0.0,0.0,0,0.2,0.6907
41463,1560695613033,7,2.28,2.33,3.2,2.15,5.03,0.67,-0.01,0.74,1,-3,0,0.67,10428,7,88,32,35,500,837.0,641,461,60,116.0,242,1,308,216,202,0,0,837,-22796,-2830,838,,,,,,,,,,,,
41483,1560695613053,8,2.27,2.33,3.28,2.13,5.05,0.59,0.02,0.6,1,-1,-1,0.59,10245,6,88,32,33,500,836.0,645,461,60,117.0,100,1,302,212,84,0,0,822,-2314,-2830,836,,,,,,,,,,,,
41503,1560695613073,6,2.28,2.3,3.32,2.1,5.07,0.54,0.05,0.44,1,-1,1,0.55,10290,6,88,32,30,500,834.0,651,460,60,117.0,100,1,291,209,84,0,0,799,-2314,16118,828,,,,,,,,,,,,
41523,1560695613101,9,2.27,2.26,3.31,2.04,5.05,0.68,0.11,0.4,1,-3,2,0.69,10324,6,88,32,29,500,831.0,649,458,60,117.0,100,1,287,208,84,0,0,807,-2826,-2826,831,,,,,,,,,,,,
41543,1560695613121,9,2.28,2.18,3.37,2.01,5.08,0.7,0.15,0.33,1,-1,1,0.71,10439,6,88,32,28,500,825.0,640,460,60,117.0,100,1,282,209,84,0,0,799,-2826,-13312,825,45.699135,4.910186,81.11,193.6,0,0.0,-1,0.0,0.0,0,0.21,0.6924
41563,1560695613141,8,2.28,2.19,3.36,2.02,5.04,0.81,0.2,0.36,0,-4,2,0.83,10439,6,88,32,27,500,820.0,652,460,60,116.0,100,1,278,208,84,0,0,788,-3344,204,818,,,,,,,,,,,,
41583,1560695613161,9,2.28,2.17,3.36,2.0,5.03,0.82,0.22,0.33,1,-3,2,0.85,10527,6,88,32,25,500,815.0,641,458,60,117.0,101,1,270,208,83,0,0,793,-2918,-22795,812,,,,,,,,,,,,
41603,1560695613181,8,2.27,2.15,3.39,1.96,5.04,0.88,0.28,0.38,1,-5,3,0.93,10533,6,88,32,25,500,813.0,655,460,60,117.0,101,1,270,208,83,0,0,781,-25858,-2826,813,,,,,,,,,,,,
41623,1560695613205,10,2.26,2.14,3.42,1.93,5.05,0.89,0.37,0.38,1,-1,4,0.97,10605,6,88,32,24,500,811.0,640,456,60,117.0,101,1,270,203,83,0,0,775,-31068,-8148,810,,,,,,,,,,,,
41643,1560695613225,9,2.26,2.14,3.43,1.93,5.04,0.99,0.4,0.39,0,-4,2,1.07,10575,6,88,32,23,500,806.0,653,461,60,117.0,101,1,270,198,83,0,0,784,-13072,-2344,805,45.69912,4.910171,80.52,193.6,0,0.0,-1,0.0,0.0,0,0.21,0.694
41663,1560695613245,10,2.27,2.13,3.38,1.92,5.04,0.92,0.48,0.22,0,-3,4,1.03,10581,6,88,32,23,500,801.0,653,459,60,117.0,101,1,270,198,83,0,0,784,-13072,-10216,795,,,,,,,,,,,,
41683,1560695613265,11,2.26,2.14,3.33,1.91,5.05,0.98,0.55,0.16,0,-4,6,1.12,10515,6,88,32,23,500,797.0,651,465,60,117.0,99,1,270,198,79,0,0,777,-2540,-10218,796,,,,,,,,,,,,
41703,1560695613285,11,2.27,2.13,3.34,1.91,5.07,0.98,0.52,-0.02,0,-3,5,1.11,10557,6,88,32,22,500,794.0,650,460,60,117.0,99,1,270,193,79,0,0,782,-10216,-2766,794,,,,,,,,,,,,
41723,1560695613305,11,2.26,2.1,3.37,1.89,5.04,1.0,0.53,-0.02,0,-2,7,1.13,10469,6,88,32,22,500,792.0,653,459,60,117.0,99,1,270,191,79,0,0,761,5344,-2574,784,,,,,,,,,,,,
41743,1560695613325,10,2.26,2.09,3.34,1.88,5.07,0.92,0.48,-0.1,-0,-0,8,1.04,10445,6,88,32,22,500,787.0,649,462,60,117.0,99,1,270,191,79,0,0,769,-10218,6900,786,45.6991,4.910157,78.26,193.6,0,0.0,-1,0.0,0.0,0,0.21,0.6957
41763,1560695613345,11,2.26,2.1,3.34,1.88,5.04,1.0,0.57,-0.13,0,-0,9,1.15,10347,6,88,32,22,500,781.0,640,461,60,117.0,99,1,270,188,79,0,0,765,-2426,-2344,779,,,,,,,,,,,,
41783,1560695613365,8,2.27,2.1,3.34,1.89,5.05,1.04,0.59,-0.02,0,-1,7,1.19,10330,6,88,32,22,500,776.0,642,458,60,117.0,94,1,270,188,73,0,0,761,-2830,-2830,773,,,,,,,,,,,,
41803,1560695613385,14,2.26,2.1,3.33,1.86,5.04,1.13,0.56,0.14,-1,-2,6,1.27,10240,6,88,32,22,500,774.0,641,457,60,117.0,94,1,270,186,73,0,0,751,-2830,13016,768,,,,,,,,,,,,
41823,1560695613405,10,2.27,2.1,3.35,1.87,5.06,1.11,0.44,0.14,0,-3,4,1.2,10245,6,88,31,22,500,767.0,657,461,60,117.0,94,1,270,186,73,0,0,746,6900,-30694,765,,,,,,,,,,,,
41843,1560695613425,12,2.26,2.08,3.39,1.86,5.04,1.04,0.33,0.11,-0,-2,4,1.09,10146,6,88,31,22,500,768.0,655,462,60,117.0,94,1,270,181,73,0,0,739,-2826,136,761,45.699085,4.910143,76.62,193.5,0,0.0,-1,0.0,0.0,0,0.21,0.6974
41863,1560695613445,11,2.27,2.08,3.39,1.87,5.04,1.04,0.35,-0.02,-0,-2,5,1.1,10069,6,88,31,22,500,762.0,659,458,60,117.0,94,1,270,181,73,0,0,741,6389,6790,760,,,,,,,,,,,,
41883,1560695613465,14,2.27,2.07,3.33,1.84,5.04,1.08,0.3,0.07,-0,-4,3,1.12,10026,6,88,31,21,500,759.0,643,461,60,117.0,89,1,270,179,68,0,0,744,5876,-22796,759,,,,,,,,,,,,
41903,1560695613485,11,2.28,2.08,3.34,1.86,5.04,1.01,0.19,0.06,0,0,3,1.02,9946,6,88,31,21,500,756.0,652,463,60,117.0,89,1,270,177,68,0,0,732,-2574,-2358,753,,,,,,,,,,,,
41923,1560695613503,11,2.28,2.09,3.38,1.87,5.04,1.05,0.17,0.05,1,-3,2,1.06,9904,6,88,31,21,500,748.0,640,461,60,117.0,89,1,270,176,68,0,0,723,136,-2826,747,,,,,,,,,,,,
41943,1560695613523,13,2.27,2.09,3.39,1.86,5.03,1.02,0.14,0.12,1,-4,1,1.03,9904,5,88,31,21,500,744.0,638,455,60,117.0,89,1,270,176,68,0,0,732,-31066,-2830,744,45.69907,4.910129,74.7,193.5,0,0.0,-1,0.0,0.0,0,0.21,0.699
41963,1560695613543,10,2.28,2.08,3.38,1.86,5.04,1.01,-0.02,0.03,1,1,1,1.01,9858,5,88,32,21,500,743.0,646,462,60,117.0,89,1,270,174,68,0,0,725,-22796,1524,739,,,,,,,,,,,,
41983,1560695613563,14,2.27,2.08,3.39,1.86,5.07,1.11,0.04,0.13,0,-4,0,1.11,9775,5,88,32,21,500,737.0,634,456,60,117.0,87,1,270,172,64,0,0,721,3462,204,733,,,,,,,,,,,,
42003,1560695613583,12,2.26,2.07,3.43,1.83,5.04,0.96,-0.01,0.07,1,-1,0,0.96,9709,5,88,32,21,500,734.0,645,461,60,117.0,87,1,270,170,64,0,0,706,-31066,-2830,733,,,,,,,,,,,,
42023,1560695613603,13,2.27,2.07,3.42,1.81,5.04,1.06,0.11,-0.0,1,-2,-0,1.07,9620,5,88,32,21,500,732.0,647,460,60,117.0,87,1,270,167,64,0,0,717,-2826,-25858,726,,,,,,,,,,,,
42043,1560695613623,13,2.27,2.02,3.44,1.8,5.05,1.1,0.02,0.03,0,1,-1,1.1,9546,5,88,32,20,500,731.0,646,454,60,117.0,87,1,270,159,64,0,0,704,-2358,-13312,731,45.699055,4.910116,73.02,193.5,0,0.0,-1,0.0,0.0,0,0.22,0.7007
42063,1560695613643,11,2.27,1.97,3.42,1.79,5.04,0.98,0.05,0.0,-0,4,0,0.98,9460,5,88,32,20,500,727.0,642,462,60,117.0,87,1,270,157,64,0,0,697,-3344,24,724,,,,,,,,,,,,
42083,1560695613663,13,2.27,1.99,3.34,1.79,5.07,1.08,0.13,0.0,-0,1,-1,1.09,9431,5,88,32,20,500,720.0,634,461,60,117.0,77,1,270,157,56,0,0,700,31988,8010,718,,,,,,,,,,,,
42103,1560695613683,14,2.26,1.99,3.28,1.8,5.04,1.18,0.06,0.05,-0,1,-2,1.18,9417,5,88,32,20,500,714.0,636,456,60,117.0,77,1,270,157,56,0,0,705,-12152,16118,711,,,,,,,,,,,,
42123,1560695613701,11,2.27,1.96,3.29,1.79,5.05,0.98,-0.01,0.19,1,2,-1,0.98,9393,5,88,32,19,500,709.0,628,458,60,117.0,77,1,270,157,56,0,0,685,687,15647,707,,,,,,,,,,,,
42143,1560695613721,13,2.27,1.93,3.29,1.76,5.08,0.85,0.08,0.16,1,0,-3,0.86,9407,5,88,32,19,500,705.0,630,465,60,117.0,77,1,270,151,56,0,0,690,15647,6208,706,45.699036,4.910103,71.54,193.5,0,0.0,-1,0.0,0.0,0,0.22,0.7024
42163,1560695613741,14,2.27,1.92,3.32,1.74,5.04,0.97,0.12,0.1,1,2,-4,0.98,9379,5,88,32,19,500,701.0,633,461,60,117.0,77,1,270,151,56,0,0,683,24,16118,701,,,,,,,,,,,,
42183,1560695613761,14,2.28,1.92,3.35,1.75,5.07,1.07,-0.09,0.1,0,-0,-3,1.08,9286,5,88,32,19,500,695.0,636,458,60,117.0,75,1,270,151,53,0,0,677,-10448,-26562,697,,,,,,,,,,,,
42203,1560695613781,17,2.27,1.93,3.36,1.75,5.07,1.13,-0.26,0.22,0,2,-2,1.16,9164,5,88,32,19,500,694.0,636,462,60,117.0,75,1,270,151,53,0,0,675,14342,-388,694,,,,,,,,,,,,
42223,1560695613803,16,2.29,1.97,3.35,1.8,5.04,1.13,-0.32,0.26,1,-0,-3,1.18,9084,5,88,32,18,500,685.0,634,463,60,117.0,75,1,270,145,53,0,0,670,-10344,31988,685,,,,,,,,,,,,
42243,1560695613823,15,2.28,1.98,3.37,1.81,5.04,1.12,-0.35,0.26,1,2,-4,1.17,9031,5,88,32,18,500,677.0,639,458,60,117.0,75,1,270,145,53,0,0,660,-2345,-3038,676,45.69902,4.910091,68.98,193.5,0,0.0,-1,0.0,0.0,0,0.22,0.704
42263,1560695613843,15,2.29,1.96,3.45,1.8,5.07,1.12,-0.34,0.21,1,1,-3,1.17,8997,5,88,32,18,500,675.0,626,460,60,117.0,75,1,270,151,53,0,0,640,-26380,1549,678,,,,,,,,,,,,
42283,1560695613863,16,2.28,1.96,3.47,1.81,5.04,1.16,-0.37,0.21,1,4,-2,1.22,8898,5,88,32,18,500,672.0,627,462,60,117.0,72,1,270,145,49,0,0,648,3543,-388,672,,,,,,,,,,,,
42303,1560695613883,14,2.28,1.96,3.48,1.79,5.07,1.24,-0.5,0.26,0,1,-2,1.34,8790,5,88,32,18,500,667.0,626,463,60,117.0,72,1,270,145,49,0,0,644,1549,6208,668,,,,,,,,,,,,
42323,1560695613905,16,2.28,1.98,3.52,1.78,5.08,1.28,-0.45,0.21,0,-1,-2,1.35,8672,5,88,32,19,500,661.0,618,461,60,118.0,72,1,270,151,49,0,0,632,-10344,-2580,661,,,,,,,,,,,,
42343,1560695613925,17,2.27,1.94,3.53,1.77,5.07,1.22,-0.35,0.16,1,0,-2,1.27,8542,5,88,32,19,500,661.0,620,457,60,117.0,72,1,270,151,49,0,0,635,8958,-2830,661,45.699009,4.91008,66.9,193.5,0,0.0,-1,0.0,0.0,0,0.22,0.7057
42363,1560695613945,15,2.26,1.94,3.52,1.77,5.07,1.2,-0.34,0.21,0,-1,-1,1.25,8445,5,88,33,20,500,658.0,606,457,60,117.0,72,1,270,156,49,0,0,622,-3488,-4876,658,,,,,,,,,,,,
42383,1560695613965,14,2.26,1.94,3.49,1.77,5.04,1.18,-0.25,0.14,1,-1,-0,1.21,8404,5,88,33,20,500,649.0,615,463,60,117.0,76,1,270,155,50,0,0,621,479,3395,649,,,,,,,,,,,,
42403,1560695613985,18,2.27,1.93,3.48,1.75,5.07,1.15,-0.15,0.05,1,-1,-0,1.16,8411,5,88,33,21,500,644.0,621,462,60,116.0,76,1,270,155,50,0,0,624,11776,17740,641,,,,,,,,,,,,
42423,1560695613998,17,2.27,1.92,3.47,1.75,5.03,1.15,-0.22,0.1,1,3,-1,1.18,8363,5,88,33,21,500,640.0,614,463,60,118.0,76,1,270,159,50,0,0,609,24,-30139,638,,,,,,,,,,,,
42443,1560695614018,17,2.28,1.9,3.47,1.74,5.05,1.13,-0.15,-0.05,1,2,-1,1.14,8289,5,88,33,21,500,632.0,615,454,60,117.0,76,1,270,157,50,0,0,600,3,30721,632,45.698994,4.910068,64.93,193.5,0,0.0,-1,0.0,0.0,0,0.22,0.7074
42463,1560695614038,15,2.28,1.88,3.46,1.73,5.06,1.21,-0.25,0.0,1,2,1,1.24,8209,5,88,33,21,500,630.0,616,459,60,118.0,76,1,270,155,50,0,0,605,506,243,628,,,,,,,,,,,,
42483,1560695614058,18,2.28,1.9,3.43,1.73,5.04,1.25,-0.2,-0.02,1,1,0,1.26,8130,5,88,33,21,500,624.0,622,462,60,117.0,76,1,270,152,48,0,0,608,-16883,2048,621,,,,,,,,,,,,
42503,1560695614078,16,2.28,1.89,3.43,1.74,5.04,1.2,-0.19,0.04,2,-1,-1,1.21,8099,5,88,33,21,500,618.0,605,462,60,118.0,76,1,270,151,48,0,0,603,-28304,-16179,618,,,,,,,,,,,,
42523,1560695614104,19,2.28,1.89,3.44,1.75,5.07,1.28,-0.25,0.01,1,-1,-1,1.3,8033,5,88,33,21,500,610.0,601,455,60,117.0,76,1,270,149,48,0,0,587,-23055,3472,610,,,,,,,,,,,,
42543,1560695614124,17,2.29,1.88,3.46,1.74,5.04,1.28,-0.17,0.04,1,-1,0,1.29,7971,5,88,33,21,500,606.0,603,461,60,117.0,76,1,269,149,48,0,0,566,-7939,208,608,45.698978,4.910056,62.24,193.5,0,0.0,-1,0.0,0.0,0,0.23,0.709
42563,1560695614144,16,2.3,1.87,3.49,1.74,5.06,1.21,-0.22,0.07,2,-1,1,1.23,7891,5,88,33,21,501,604.0,597,464,60,119.0,76,1,268,149,48,0,0,579,23619,-25872,604,,,,,,,,,,,,
42583,1560695614164,14,2.29,1.88,3.46,1.74,5.06,1.23,-0.28,0.03,1,-1,3,1.26,7751,5,88,33,21,502,594.0,579,458,60,118.0,73,1,267,149,44,0,0,583,-28648,30208,594,,,,,,,,,,,,
42603,1560695614184,15,2.29,1.87,3.49,1.73,5.07,1.31,-0.33,0.06,1,-1,2,1.35,7706,5,88,33,21,503,591.0,578,468,60,118.0,73,1,267,149,44,0,0,566,208,-8186,592,,,,,,,,,,,,
42623,1560695614206,14,2.28,1.87,3.49,1.74,5.05,1.38,-0.35,0.08,0,-3,1,1.42,7606,5,88,33,21,505,584.0,573,460,60,118.0,73,1,266,149,44,0,0,559,-3210,-28648,584,,,,,,,,,,,,
42643,1560695614226,17,2.27,1.87,3.48,1.74,5.04,1.44,-0.33,0.14,-0,-5,1,1.48,7551,5,88,33,21,506,580.0,575,459,60,118.0,73,1,265,149,44,0,0,556,259,2216,579,45.698967,4.910045,59.96,193.5,0,0.0,-1,0.0,0.0,0,0.23,0.7107
42663,1560695614246,14,2.29,1.86,3.48,1.73,5.05,1.5,-0.31,0.2,-1,-6,1,1.53,7470,5,88,34,21,507,575.0,569,458,60,118.0,73,1,264,215,44,0,0,549,-3190,-28648,575,,,,,,,,,,,,
42683,1560695614266,17,2.28,1.86,3.51,1.74,5.05,1.55,-0.3,0.23,-2,-8,2,1.58,7515,5,88,34,21,506,568.0,573,461,60,116.0,103,1,265,202,59,0,0,539,-2934,-8962,568,,,,,,,,,,,,
42703,1560695614286,17,2.27,1.86,3.5,1.73,5.05,1.6,-0.3,0.26,-2,-7,2,1.63,7408,4,88,34,21,505,563.0,567,459,60,116.0,103,1,264,188,59,0,0,539,6273,2524,563,,,,,,,,,,,,
42723,1560695614306,16,2.28,1.86,3.5,1.74,5.07,1.64,-0.33,0.3,-3,-8,2,1.67,7321,4,88,34,20,504,560.0,562,461,60,116.0,103,1,263,170,59,0,0,536,-22263,1779,560,,,,,,,,,,,,
42743,1560695614326,19,2.27,1.86,3.46,1.72,5.05,1.59,-0.34,0.27,-3,-7,2,1.63,7211,4,88,34,20,503,553.0,552,458,60,116.0,103,1,262,157,59,0,0,537,-9072,14504,551,45.698956,4.910035,57.46,193.5,0,0.0,-1,0.0,0.0,0,0.23,0.7124
42763,1560695614346,19,2.27,1.87,3.46,1.74,5.04,1.41,-0.36,0.23,-1,-5,2,1.46,7159,4,88,34,20,502,550.0,556,465,60,115.0,103,1,261,146,59,0,0,530,-506,-9072,548,,,,,,,,,,,,
42783,1560695614366,14,2.28,1.86,3.46,1.73,5.05,1.37,-0.24,0.17,-1,-5,-0,1.39,7083,4,88,34,20,501,543.0,555,462,60,115.0,71,1,260,146,39,0,0,521,1780,2524,539,,,,,,,,,,,,
42803,1560695614386,21,2.27,1.86,3.46,1.73,5.07,1.39,-0.27,0.06,-1,-4,-1,1.41,7038,4,88,34,21,501,540.0,537,460,60,117.0,71,1,260,146,39,0,0,522,-30064,-28648,535,,,,,,,,,,,,
42823,1560695614404,19,2.27,1.86,3.47,1.74,5.06,1.39,-0.33,0.04,-1,-4,2,1.42,6978,4,88,34,21,501,530.0,533,458,60,117.0,71,1,260,148,39,0,0,518,-32248,26178,530,,,,,,,,,,,,
42843,1560695614424,17,2.27,1.86,3.46,1.74,5.05,1.27,-0.23,-0.03,-0,-4,4,1.29,6890,4,88,34,21,501,523.0,529,461,60,116.0,71,1,260,148,39,0,0,502,2524,-4054,523,45.69894,4.910024,54.08,193.5,0,0.0,-1,0.0,0.0,0,0.23,0.714
