"Interval"|"ms"|0|0|1,"Utc"|"ms"|0|0|1,"FB_p"|"bar"|0|300|50,"Volant"|"F"|0.0|300.0|50,"xFR"|"mm"|0.0|5.0|50,"xRR"|"mm"|0.0|5.0|50,"xFL"|"mm"|0.0|5.0|50,"xRL"|"mm"|0.0|5.0|50,"AccelX"|"G"|-3.0|3.0|50,"AccelY"|"G"|-3.0|3.0|50,"AccelZ"|"G"|-3.0|3.0|50,"Yaw"|"Deg/Sec"|-120|120|50,"Pitch"|"Deg/Sec"|-120|120|50,"Roll"|"Deg/Sec"|-120|120|50,"Gsum"|"G"|0.0|3.0|50,"RPM"|""|0|14000|50,"TPS"|"%"|0|100|50,"WaterTemp"|"?C"|0|300|50,"AirTemp"|"?C"|-1000|1000|50,"MAP"|"KPa"|0|255|50,"Lambda"|""|0|1024|50,"WheelSpeed"|"MPH"|0.0|150.0|50,"OilPress"|"PSI"|0|150|50,"FuelPress"|"PSI"|0|150|50,"OilTemp"|"F"|0|300|50,"Battery"|"Volts"|0.0|20.0|50,"FuelCon"|"L/h"|-1000|1000|50,"Gear"|""|0|10|50,"Advance"|"Deg"|-360|360|50,"Injection"|"ms"|-1000|1000|50,"FuelCon"|"L/100km"|-1000|1000|50,"LC_But_Pres"|""|-1000|1000|50,"LC_Active"|""|-1000|1000|50,"RD_Speed"|""|-1000|1000|50,"RUD_Speed"|""|-1000|1000|50,"LD_Speed"|""|-1000|1000|50,"LUD_Speed"|""|-1000|1000|50,"Latitude"|"Degrees"|-180.0|180.0|10,"Longitude"|"Degrees"|-180.0|180.0|10,"Speed"|"kph"|0.0|150.0|10,"Altitude"|"m"|0.0|4000.0|10,"LapCount"|""|0|0|10,"LapTime"|"Min"|0.0|0.0|10,"Sector"|""|0|0|10,"SectorTime"|"Min"|0.0|0.0|10,"ElapsedTime"|"Min"|0.0|0.0|10,"CurrentLap"|""|0|0|10,"Distance"|"km"|0.0|0.0|10,"SessionTime"|"Min"|0.0|0.0|10
368963,1560692897052,17,2.25,1.89,3.51,1.64,5.04,1.4,-0.28,0.07,1,-2,-3,1.42,7205,6,86,34,21,961,594.0,495,450,60,118.0,90,1,262,156,55,0,0,486,-13043,-1818,588,,,,,,,,,,,,
368983,1560692897072,16,2.25,1.89,3.52,1.64,5.04,1.18,-0.15,-0.11,0,-0,-3,1.19,7121,6,86,34,21,966,587.0,508,455,60,118.0,90,1,261,149,55,0,0,448,-25872,23400,580,,,,,,,,,,,,
369003,1560692897098,15,2.26,1.88,3.5,1.64,5.08,1.11,-0.05,-0.1,-1,1,-7,1.11,7284,6,86,34,21,965,581.0,509,455,60,118.0,69,1,262,149,40,0,0,414,10432,18584,573,,,,,,,,,,,,
369023,1560692897118,15,2.27,1.89,3.5,1.64,5.04,1.2,-0.07,0.05,-2,-4,-6,1.2,7312,6,86,34,21,964,577.0,508,452,60,117.0,69,1,263,149,40,0,0,376,30208,11560,567,,,,,,,,,,,,
369043,1560692897138,19,2.26,1.89,3.49,1.63,5.04,1.28,-0.22,0.06,-3,-2,-6,1.3,7264,6,86,34,21,955,568.0,516,456,60,117.0,69,1,262,149,40,0,0,368,-8186,-29302,563,45.700802,4.90967,60.13,197.6,3,1.6,0,0.0,0.0383,4,0.06,6.1507
369063,1560692897158,18,2.27,1.89,3.48,1.63,5.04,1.26,-0.31,0.1,-2,-2,-6,1.3,7161,6,86,34,21,946,563.0,509,454,60,117.0,69,1,261,149,40,0,0,403,2211,486,553,,,,,,,,,,,,
369083,1560692897178,13,2.28,1.92,3.48,1.63,5.05,1.26,-0.24,-0.11,-2,-0,-6,1.28,7088,6,86,34,21,946,557.0,506,453,60,118.0,69,1,260,149,40,0,0,413,-9072,18584,543,,,,,,,,,,,,
369103,1560692897198,13,2.28,1.92,3.48,1.65,5.05,1.15,-0.1,-0.2,-3,-2,-7,1.16,7099,6,86,34,21,945,546.0,505,453,60,118.0,71,1,260,149,39,0,0,378,2524,1504,538,,,,,,,,,,,,
369123,1560692897218,19,2.28,1.92,3.49,1.64,5.07,1.24,-0.21,0.0,-5,-2,-7,1.26,7172,6,86,34,21,954,543.0,503,457,60,117.0,71,1,261,149,39,0,0,348,1779,-14707,531,,,,,,,,,,,,
369143,1560692897238,15,2.28,1.94,3.48,1.64,5.05,1.23,-0.2,-0.08,-4,-2,-6,1.25,7083,6,86,34,21,963,537.0,517,451,60,117.0,71,1,260,149,39,0,0,363,-30064,2811,527,45.700813,4.90968,57.14,197.6,3,1.6,0,0.0,0.04,4,0.06,6.1524
369163,1560692897258,13,2.29,1.97,3.47,1.66,5.06,1.25,-0.17,-0.14,-4,-1,-6,1.26,6908,6,86,34,21,972,531.0,499,456,60,118.0,71,1,260,148,39,0,0,400,-22519,-6656,518,,,,,,,,,,,,
369183,1560692897278,18,2.28,1.96,3.46,1.64,5.04,1.29,-0.2,-0.02,-5,-2,-7,1.3,6838,6,86,34,21,980,524.0,497,455,60,117.0,71,1,260,147,39,0,0,418,10408,1,512,,,,,,,,,,,,
369203,1560692897299,14,2.29,1.94,3.46,1.6,5.07,1.3,-0.19,-0.13,-5,-2,-6,1.32,6906,6,86,34,21,981,517.0,491,448,60,118.0,74,1,260,148,38,0,0,381,15679,3302,508,,,,,,,,,,,,
369223,1560692897319,17,2.29,1.92,3.47,1.59,5.04,1.16,-0.06,-0.2,-5,-0,-6,1.16,6890,6,86,34,21,981,515.0,510,458,60,117.0,74,1,260,148,38,0,0,321,-14,3327,504,,,,,,,,,,,,
369243,1560692897339,14,2.29,1.92,3.49,1.59,5.04,1.25,-0.1,-0.11,-6,0,-5,1.25,6773,6,86,34,22,977,513.0,489,455,60,117.0,74,1,260,150,38,0,0,317,26178,6870,500,45.700825,4.909689,53.99,197.5,3,1.6,0,0.0,0.0417,4,0.06,6.154
369263,1560692897359,18,2.3,1.99,3.49,1.63,5.04,1.22,-0.07,-0.13,-6,0,-5,1.22,6651,6,86,34,22,974,505.0,495,457,60,117.0,74,1,261,149,38,0,0,333,6274,-6644,489,,,,,,,,,,,,
369283,1560692897379,14,2.31,2.05,3.45,1.7,5.04,1.24,0.01,-0.19,-6,2,-5,1.24,6508,6,86,34,22,971,495.0,482,452,60,118.0,74,1,261,148,38,0,0,372,771,-18948,485,,,,,,,,,,,,
369303,1560692897398,15,2.31,2.07,3.38,1.69,5.04,1.32,0.04,-0.14,-7,1,-4,1.32,6379,6,86,34,23,968,487.0,469,443,60,118.0,75,1,263,151,36,0,0,427,505,31796,475,,,,,,,,,,,,
369323,1560692897418,18,2.31,2.05,3.36,1.65,5.04,1.35,0.06,-0.04,-7,-2,-5,1.35,6340,6,86,34,23,964,477.0,472,431,60,117.0,75,1,263,151,36,0,0,418,10305,-6656,470,,,,,,,,,,,,
369343,1560692897438,12,2.33,2.01,3.38,1.6,5.04,1.32,0.11,-0.13,-6,-1,-5,1.33,6514,6,86,34,23,961,475.0,466,411,60,119.0,75,1,262,152,36,0,0,412,-17956,230,467,45.70084,4.909698,50.99,197.5,3,1.6,0,0.0,0.0433,4,0.06,6.1557
369363,1560692897458,14,2.33,1.99,3.4,1.58,5.04,1.37,0.03,-0.05,-5,-4,-6,1.37,6606,6,86,34,23,958,469.0,468,437,60,118.0,75,1,262,152,36,0,0,354,-16384,-30438,463,,,,,,,,,,,,
369383,1560692897478,16,2.33,1.97,3.46,1.61,5.04,1.38,0.07,-0.06,-4,-3,-7,1.38,6665,6,86,34,23,958,461.0,481,432,60,118.0,75,1,262,152,36,0,0,312,2211,3327,459,,,,,,,,,,,,
369403,1560692897498,9,2.34,1.96,3.49,1.64,5.04,1.45,0.07,-0.08,-4,-4,-5,1.45,6542,6,86,34,23,957,457.0,473,447,60,119.0,82,1,262,152,38,0,0,302,-9160,-6524,454,,,,,,,,,,,,
369423,1560692897518,11,2.33,1.95,3.46,1.64,5.04,1.45,-0.01,0.02,-4,-3,-3,1.45,6421,6,86,34,24,956,451.0,473,448,60,118.0,82,1,264,155,38,0,0,318,3571,3826,449,,,,,,,,,,,,
369443,1560692897538,13,2.34,1.94,3.44,1.63,5.05,1.39,-0.01,-0.02,-3,-2,-2,1.39,6394,6,86,34,24,957,445.0,473,446,60,117.0,82,1,265,155,38,0,0,357,23400,1504,445,45.700848,4.909706,47.97,197.5,3,1.6,0,0.0,0.045,4,0.06,6.1574
369463,1560692897558,9,2.35,1.92,3.38,1.63,5.03,1.38,0.03,-0.06,-3,0,2,1.38,6458,6,86,34,24,958,441.0,465,443,60,119.0,82,1,264,155,38,0,0,387,5600,-22016,441,,,,,,,,,,,,
369483,1560692897578,12,2.36,1.93,3.36,1.65,5.04,1.37,-0.02,-0.02,-1,0,4,1.37,6542,6,86,34,24,959,437.0,471,430,60,118.0,82,1,263,155,38,0,0,392,3635,145,435,,,,,,,,,,,,
369503,1560692897600,12,2.37,1.93,3.39,1.67,5.06,1.33,-0.05,0.03,1,-1,4,1.34,6627,6,86,34,24,960,433.0,484,440,60,118.0,87,1,263,155,38,0,0,361,-3414,120,433,,,,,,,,,,,,
369523,1560692897620,6,2.37,1.92,3.41,1.77,5.05,1.34,-0.03,-0.07,2,1,5,1.34,6606,6,86,34,24,962,432.0,487,440,60,118.0,87,1,263,155,38,0,0,363,-4059,-29696,429,,,,,,,,,,,,
369543,1560692897640,8,2.39,1.9,3.43,1.82,5.06,1.34,-0.07,0.04,3,-1,5,1.34,6496,6,86,34,24,963,427.0,480,445,60,118.0,87,1,264,155,38,0,0,371,10392,2278,425,45.700859,4.909713,44.99,197.5,3,1.6,0,0.0,0.0467,4,0.07,6.159
369563,1560692897660,10,2.38,1.87,3.44,1.84,5.08,1.35,-0.08,0.02,5,-1,6,1.36,6501,6,86,34,24,965,421.0,489,438,60,117.0,87,1,263,155,38,0,0,365,6512,17144,421,,,,,,,,,,,,
369583,1560692897680,5,2.37,1.85,3.44,1.85,5.04,1.33,-0.15,0.03,5,-2,6,1.33,6599,6,86,34,24,967,414.0,471,443,60,118.0,87,1,263,155,38,0,0,356,-1818,-19019,414,,,,,,,,,,,,
369603,1560692897700,6,2.38,1.82,3.49,1.82,5.07,1.29,-0.14,0.1,6,-3,5,1.3,6751,6,86,34,24,968,409.0,492,447,60,117.0,94,1,262,156,39,0,0,353,-1562,-6656,409,,,,,,,,,,,,
369623,1560692897720,2,2.39,1.83,3.51,1.82,5.06,1.37,-0.26,0.03,7,-5,6,1.39,6823,6,86,34,24,970,405.0,495,447,60,118.0,94,1,261,156,39,0,0,349,-31744,-29302,405,,,,,,,,,,,,
369643,1560692897740,5,2.38,1.84,3.51,1.83,5.06,1.16,-0.23,-0.03,9,-2,7,1.19,6833,6,86,35,24,969,403.0,507,453,60,117.0,94,1,261,155,39,0,0,366,19125,-6644,401,45.700867,4.909719,42.41,197.5,3,1.6,0,0.0,0.0483,4,0.07,6.1607
369663,1560692897760,2,2.39,1.84,3.55,1.88,5.05,1.25,-0.36,0.13,9,-4,7,1.3,6845,6,86,35,23,969,398.0,492,446,60,117.0,94,1,261,152,39,0,0,354,-18948,8200,401,,,,,,,,,,,,
369683,1560692897780,-1,2.39,1.85,3.57,1.94,5.04,1.09,-0.32,0.01,11,-1,8,1.14,6840,6,86,35,23,968,397.0,495,453,60,118.0,94,1,261,152,39,0,0,356,-6656,-19126,397,,,,,,,,,,,,
369703,1560692897797,1,2.41,1.84,3.53,2.02,5.05,1.18,-0.44,0.14,10,-3,9,1.26,6820,6,86,35,23,965,394.0,495,451,60,117.0,98,1,261,152,39,0,0,364,742,-992,394,,,,,,,,,,,,
369723,1560692897817,0,2.39,1.84,3.54,2.03,5.05,1.06,-0.37,-0.0,12,-0,11,1.12,6860,6,86,35,23,963,390.0,499,452,60,118.0,98,1,261,152,39,0,0,357,486,-6656,389,,,,,,,,,,,,
369743,1560692897837,4,2.4,1.84,3.53,2.03,5.05,1.08,-0.42,0.17,11,-2,11,1.16,6929,6,86,35,23,958,388.0,502,451,60,117.0,98,1,260,152,39,0,0,355,-6656,1,386,45.700878,4.909725,39.51,197.4,3,1.6,0,0.0,0.05,4,0.07,6.1624
369763,1560692897857,2,2.41,1.85,3.53,2.03,5.03,1.12,-0.45,0.09,11,-2,10,1.21,6918,6,86,35,23,955,384.0,503,453,60,118.0,98,1,260,149,39,0,0,361,230,770,383,,,,,,,,,,,,
369783,1560692897877,-0,2.41,1.86,3.53,2.02,5.06,0.94,-0.39,0.01,12,-1,11,1.02,6865,6,86,35,22,952,382.0,500,447,60,118.0,98,1,260,149,39,0,0,356,-1268,1,382,,,,,,,,,,,,
369803,1560692897899,3,2.4,1.86,3.52,2.03,5.04,1.05,-0.54,0.14,12,-4,12,1.18,6840,6,86,35,22,951,380.0,496,454,60,118.0,99,1,260,149,38,0,0,355,2790,-6656,381,,,,,,,,,,,,
369823,1560692897919,0,2.41,1.88,3.52,2.02,5.04,0.92,-0.47,0.04,13,0,14,1.04,6793,6,86,35,22,950,379.0,506,448,60,118.0,99,1,260,149,38,0,0,356,-6458,257,379,,,,,,,,,,,,
369843,1560692897939,2,2.4,1.91,3.51,2.02,5.07,1.02,-0.54,0.17,12,-2,15,1.15,6732,6,86,35,23,950,377.0,502,444,60,117.0,99,1,261,149,38,0,0,357,-14707,-6656,377,45.700886,4.909732,37.6,197.4,3,1.6,0,0.0,0.0517,4,0.07,6.1641
369863,1560692897959,1,2.4,1.91,3.5,2.03,5.08,0.97,-0.44,0.14,13,-1,17,1.06,6670,6,86,35,22,952,374.0,486,450,60,118.0,99,1,261,151,38,0,0,353,-29978,-6656,374,,,,,,,,,,,,
369883,1560692897979,2,2.4,1.92,3.5,1.99,5.05,1.03,-0.49,0.32,12,-2,16,1.14,6641,6,86,35,23,953,372.0,481,452,60,118.0,99,1,262,148,38,0,0,352,-6640,3082,372,,,,,,,,,,,,
369903,1560692897993,4,2.4,1.93,3.5,1.99,5.04,0.98,-0.42,0.31,12,-1,14,1.07,6648,6,86,35,23,955,370.0,487,453,60,117.0,102,1,262,151,38,0,0,349,2060,-29978,370,,,,,,,,,,,,
369923,1560692898013,-2,2.4,1.94,3.49,1.99,5.05,1.05,-0.43,0.26,12,-1,14,1.13,6623,6,86,35,23,956,369.0,484,455,60,118.0,102,1,262,151,38,0,0,345,-6644,-29302,369,,,,,,,,,,,,
369943,1560692898033,4,2.4,1.95,3.49,1.99,5.08,0.95,-0.42,0.32,12,-1,14,1.04,6581,6,86,35,23,956,368.0,482,454,60,117.0,102,1,262,151,38,0,0,345,28553,-14707,368,45.700893,4.909739,35.91,197.4,3,1.6,0,0.0,0.0533,4,0.07,6.1657
369963,1560692898053,-0,2.4,1.94,3.48,1.99,5.07,0.95,-0.37,0.21,13,2,14,1.02,6558,6,86,35,23,957,366.0,471,448,60,119.0,102,1,262,151,38,0,0,346,2811,-29302,366,,,,,,,,,,,,
369983,1560692898073,1,2.38,1.95,3.46,2.0,5.04,1.04,-0.45,0.33,12,-1,16,1.13,6544,6,86,35,23,958,363.0,470,443,60,118.0,102,1,262,151,38,0,0,346,-1246,4104,363,,,,,,,,,,,,
370003,1560692898099,3,2.39,1.96,3.45,2.01,5.07,0.97,-0.4,0.36,13,-2,16,1.05,6533,6,86,35,24,958,361.0,475,457,60,117.0,101,1,263,154,37,0,0,340,-10554,-6644,361,,,,,,,,,,,,
370023,1560692898119,-1,2.37,1.96,3.45,2.01,5.04,0.94,-0.31,0.25,12,-0,17,0.99,6490,6,86,35,23,960,360.0,472,443,60,119.0,101,1,263,154,37,0,0,341,-10554,2060,360,,,,,,,,,,,,
370043,1560692898139,-2,2.36,1.96,3.43,2.01,5.05,1.01,-0.37,0.32,11,-1,16,1.08,6447,6,86,35,24,959,358.0,478,450,60,118.0,101,1,264,154,37,0,0,342,-14714,-6644,357,45.700901,4.909746,35.27,197.4,3,1.6,0,0.0,0.055,4,0.07,6.1674
370063,1560692898159,2,2.33,1.97,3.4,1.99,5.04,1.08,-0.35,0.38,11,-2,15,1.14,6408,6,86,35,24,964,356.0,481,447,60,117.0,101,1,264,154,37,0,0,339,-31206,2811,356,,,,,,,,,,,,
370083,1560692898179,3,2.31,2.0,3.39,1.98,5.07,0.98,-0.26,0.34,11,-1,15,1.02,6358,6,86,35,24,968,353.0,473,441,60,118.0,101,1,265,154,37,0,0,337,6668,-30438,353,,,,,,,,,,,,
370103,1560692898199,-0,2.28,2.03,3.38,1.97,5.04,0.98,-0.23,0.24,10,1,16,1.01,6304,6,86,35,24,973,350.0,471,450,60,118.0,105,1,265,158,37,0,0,337,-31206,-31206,350,,,,,,,,,,,,
370123,1560692898219,-0,2.25,2.06,3.37,1.95,5.05,1.02,-0.29,0.26,8,0,16,1.06,6285,6,86,35,25,977,348.0,460,451,60,118.0,105,1,268,158,37,0,0,337,-31206,-14714,348,,,,,,,,,,,,
370143,1560692898239,2,2.24,2.07,3.34,1.95,5.05,1.05,-0.32,0.33,7,-1,15,1.1,6285,6,86,35,25,980,343.0,467,448,60,117.0,105,1,268,158,37,0,0,339,-31206,-32559,341,45.700909,4.909753,34.36,197.4,3,1.6,0,0.0,0.0567,4,0.07,6.1691
370163,1560692898259,3,2.21,2.1,3.32,1.93,5.04,1.05,-0.27,0.36,6,-2,15,1.09,6270,6,86,35,25,984,341.0,467,450,60,117.0,105,1,268,158,37,0,0,338,6668,4838,338,,,,,,,,,,,,
370183,1560692898279,2,2.19,2.14,3.32,1.9,5.04,0.96,-0.05,0.33,6,0,15,0.96,6245,6,86,35,25,987,342.0,465,447,60,118.0,105,1,268,158,37,0,0,334,-31206,-6528,338,,,,,,,,,,,,
370203,1560692898299,4,2.17,2.19,3.3,1.88,5.03,0.94,0.15,0.19,4,3,15,0.96,6208,6,86,35,26,988,342.0,461,457,60,118.0,110,1,271,159,37,0,0,338,-14714,-22016,333,,,,,,,,,,,,
370223,1560692898319,0,2.14,2.22,3.23,1.86,5.04,1.01,0.23,0.15,2,4,15,1.04,6204,6,86,35,26,986,340.0,454,446,60,119.0,110,1,271,159,37,0,0,338,3327,-24576,329,,,,,,,,,,,,
370243,1560692898339,-2,2.12,2.25,3.2,1.83,5.05,1.1,0.14,0.22,-0,3,13,1.11,6167,6,86,35,26,983,342.0,455,437,60,119.0,110,1,272,159,37,0,0,336,-31206,-23296,327,45.700916,4.90976,33.31,197.4,3,1.6,0,0.0,0.0583,4,0.07,6.1707
370263,1560692898359,0,2.09,2.29,3.19,1.81,5.07,1.2,0.05,0.33,-3,2,9,1.2,6111,6,86,35,26,980,342.0,443,415,60,119.0,110,1,272,159,37,0,0,335,-31206,-27136,324,,,,,,,,,,,,
370283,1560692898379,0,2.06,2.32,3.18,1.79,5.04,1.27,0.02,0.4,-5,1,5,1.27,6067,6,86,35,27,976,342.0,447,432,60,118.0,110,1,275,159,37,0,0,335,-31206,-32256,321,,,,,,,,,,,,
370303,1560692898399,1,2.05,2.33,3.17,1.78,5.07,1.27,0.04,0.42,-7,-1,1,1.27,6073,6,86,35,27,970,341.0,447,452,60,118.0,112,1,275,160,36,0,0,333,6668,-30976,318,,,,,,,,,,,,
370323,1560692898419,-1,2.05,2.34,3.17,1.78,5.07,1.26,0.05,0.46,-8,-1,-2,1.26,6040,6,86,35,27,964,341.0,450,452,60,118.0,112,1,275,160,36,0,0,334,6668,32000,312,,,,,,,,,,,,
370343,1560692898439,-2,2.03,2.36,3.15,1.77,5.06,1.28,0.1,0.49,-9,-1,-6,1.29,6001,6,86,35,27,960,341.0,446,451,60,117.0,112,1,275,160,36,0,0,336,6668,110,310,45.700924,4.909767,32.9,197.4,3,1.6,0,0.0,0.06,4,0.07,6.1724
370363,1560692898459,-1,2.04,2.36,3.17,1.77,5.08,1.31,0.2,0.5,-11,-1,-10,1.33,5950,7,86,35,27,957,340.0,437,458,60,119.0,112,1,274,160,36,0,0,331,-122,100,308,,,,,,,,,,,,
370383,1560692898479,0,2.04,2.37,3.17,1.78,5.08,1.36,0.23,0.45,-12,-1,-14,1.38,5911,7,86,35,28,954,340.0,437,452,60,119.0,112,1,277,161,36,0,0,330,3327,105,305,,,,,,,,,,,,
370403,1560692898499,-2,2.04,2.37,3.16,1.78,5.07,1.43,0.21,0.48,-15,-2,-17,1.44,5890,7,86,35,28,950,338.0,437,455,60,119.0,114,1,276,161,35,0,0,329,-31222,100,305,,,,,,,,,,,,
370423,1560692898519,-0,2.03,2.37,3.16,1.79,5.06,1.49,0.18,0.49,-18,-2,-20,1.5,5872,7,86,35,29,947,335.0,439,448,60,119.0,114,1,278,162,35,0,0,331,3346,95,303,,,,,,,,,,,,
370443,1560692898539,4,2.03,2.36,3.16,1.79,5.08,1.52,0.16,0.39,-20,-2,-22,1.53,5812,8,86,35,29,946,333.0,437,454,60,118.0,114,1,278,162,35,0,0,327,-6528,85,301,45.700928,4.909773,31.94,197.4,3,1.6,0,0.0,0.0617,4,0.08,6.174
370463,1560692898559,3,2.03,2.37,3.16,1.79,5.05,1.4,0.21,0.35,-21,-0,-23,1.42,5760,11,86,35,30,946,332.0,438,451,60,117.0,114,1,279,163,35,0,0,326,-12032,20480,300,,,,,,,,,,,,
370483,1560692898579,0,2.04,2.35,3.16,1.77,5.06,1.22,0.25,0.38,-19,1,-24,1.25,5755,14,86,35,32,947,330.0,434,455,60,117.0,114,1,285,165,35,0,0,324,175,20480,299,,,,,,,,,,,,
370503,1560692898599,-1,2.04,2.34,3.16,1.78,5.06,1.13,0.39,0.4,-17,1,-24,1.2,5709,16,86,35,35,949,328.0,425,450,60,118.0,120,1,293,181,36,0,0,320,170,20480,298,,,,,,,,,,,,
370523,1560692898619,0,2.04,2.34,3.16,1.77,5.07,1.2,0.4,0.4,-18,-2,-24,1.27,5680,17,86,35,37,951,327.0,417,450,60,118.0,120,1,299,193,36,0,0,323,-22016,0,295,,,,,,,,,,,,
370543,1560692898639,18,2.04,2.34,3.16,1.78,5.08,1.28,0.27,0.46,-21,-3,-26,1.31,5685,18,86,35,39,952,325.0,421,456,60,119.0,120,1,306,205,36,0,0,316,-24576,0,294,45.700935,4.909779,31.15,197.5,3,1.6,0,0.0,0.0633,4,0.08,6.1757
370563,1560692898659,1,2.03,2.34,3.16,1.78,5.05,1.19,0.23,0.42,-22,-1,-26,1.21,5693,19,86,35,42,952,323.0,420,447,60,119.0,120,1,319,209,36,0,0,316,-24576,10686,292,,,,,,,,,,,,
370583,1560692898679,1,2.03,2.33,3.16,1.78,5.07,1.01,0.31,0.47,-21,2,-26,1.06,5719,20,86,35,44,952,319.0,428,456,60,117.0,120,1,330,212,36,0,0,317,155,41,291,,,,,,,,,,,,
370603,1560692898699,1,2.03,2.33,3.16,1.79,5.04,0.95,0.47,0.49,-18,2,-26,1.06,5712,21,86,35,46,949,320.0,428,461,60,117.0,158,1,339,215,46,0,0,318,150,0,291,,,,,,,,,,,,
370623,1560692898719,0,2.03,2.33,3.15,1.82,5.05,1.03,0.51,0.47,-19,1,-26,1.16,5751,21,86,35,48,943,319.0,420,447,60,118.0,158,1,348,222,46,0,0,317,-27136,-16896,289,,,,,,,,,,,,
370643,1560692898739,0,2.03,2.34,3.15,1.83,5.03,1.13,0.44,0.47,-20,-1,-27,1.21,5776,22,86,35,50,926,318.0,423,453,60,118.0,158,1,354,227,46,0,0,313,145,0,290,45.700943,4.909783,30.48,197.5,3,1.6,0,0.0,0.065,4,0.08,6.1774
370663,1560692898759,1,2.03,2.34,3.16,1.81,5.06,1.16,0.37,0.43,-22,1,-28,1.22,5837,22,86,35,51,910,319.0,420,450,60,119.0,158,1,361,236,46,0,0,315,-28416,10686,289,,,,,,,,,,,,
370683,1560692898779,3,2.03,2.33,3.13,1.81,5.04,1.07,0.36,0.32,-23,3,-28,1.13,5886,22,86,35,52,896,318.0,421,447,60,118.0,158,1,368,242,46,0,0,316,145,1886,287,,,,,,,,,,,,
370703,1560692898799,4,2.04,2.33,3.13,1.81,5.08,0.98,0.37,0.25,-23,5,-27,1.05,5958,22,86,35,52,882,317.0,425,445,60,119.0,187,1,373,249,54,0,0,314,-28416,41,287,,,,,,,,,,,,
370723,1560692898819,2,2.04,2.33,3.12,1.82,5.07,0.89,0.42,0.17,-22,7,-27,0.99,6056,23,86,35,53,873,316.0,434,445,60,118.0,187,1,380,250,54,0,0,311,140,41,287,,,,,,,,,,,,
370743,1560692898839,-0,2.05,2.33,3.12,1.83,5.04,0.81,0.47,0.06,-21,9,-27,0.93,6161,23,86,35,53,864,315.0,441,444,60,118.0,187,1,380,250,54,0,0,314,-29696,-16896,286,45.700947,4.909787,29.76,197.5,3,1.6,0,0.0,0.0667,4,0.08,6.179
370763,1560692898859,0,2.04,2.34,3.12,1.85,5.04,0.82,0.46,0.03,-21,9,-28,0.94,6252,23,86,35,52,870,314.0,441,448,60,118.0,187,1,378,250,54,0,0,313,130,-16896,286,,,,,,,,,,,,
370783,1560692898879,-1,2.07,2.34,3.12,1.85,5.04,0.85,0.36,0.09,-21,9,-28,0.92,6302,23,86,35,52,874,314.0,450,443,60,118.0,187,1,378,244,54,0,0,313,135,41,286,,,,,,,,,,,,
370803,1560692898896,-0,2.09,2.33,3.11,1.87,5.05,0.87,0.36,0.17,-21,9,-28,0.94,6188,23,86,35,53,877,315.0,454,451,60,117.0,202,1,380,250,58,0,0,315,135,110,287,,,,,,,,,,,,
370823,1560692898916,1,2.09,2.35,3.09,1.92,5.07,0.84,0.39,0.24,-20,9,-27,0.92,5992,23,86,35,53,880,317.0,439,449,60,117.0,202,1,374,248,58,0,0,318,-28416,145,292,,,,,,,,,,,,
370843,1560692898936,-0,2.12,2.39,3.07,1.99,5.03,0.88,0.4,0.25,-19,9,-26,0.97,5794,23,86,35,54,878,317.0,431,456,60,117.0,202,1,366,251,58,0,0,318,-28416,145,296,45.700954,4.909791,29.48,197.5,3,1.6,0,0.0,0.0683,4,0.08,6.1807
370863,1560692898956,-2,2.15,2.4,3.07,2.05,5.05,0.97,0.33,0.29,-20,8,-25,1.02,5661,23,86,35,55,875,317.0,412,453,60,118.0,202,1,354,249,58,0,0,319,-28416,115,299,,,,,,,,,,,,
370883,1560692898976,3,2.19,2.38,3.08,2.06,5.04,0.89,0.18,0.28,-20,9,-25,0.91,5613,24,86,35,56,889,318.0,410,447,60,118.0,202,1,350,249,58,0,0,318,145,26880,301,,,,,,,,,,,,
370903,1560692898992,-0,2.21,2.36,3.15,2.07,5.07,0.74,0.17,0.34,-17,8,-25,0.76,5618,24,86,35,58,905,315.0,408,451,60,116.0,176,1,350,251,53,0,0,316,-29696,28160,303,,,,,,,,,,,,
370923,1560692899012,-0,2.23,2.33,3.22,2.07,5.08,0.84,0.16,0.44,-15,4,-23,0.86,5637,23,86,35,59,922,314.0,400,457,60,118.0,176,1,351,252,53,0,0,313,135,26880,303,,,,,,,,,,,,
370943,1560692899032,0,2.26,2.3,3.26,2.09,5.05,0.96,0.13,0.43,-15,1,-21,0.97,5702,24,86,35,59,936,313.0,403,457,60,118.0,176,1,356,251,53,0,0,315,-30976,105,303,45.700962,4.909794,29.64,197.5,3,1.6,0,0.0,0.07,4,0.08,6.1824
370963,1560692899052,-1,2.28,2.29,3.29,2.07,5.05,0.99,0.08,0.44,-17,2,-19,0.99,5762,24,86,35,60,976,312.0,402,453,60,119.0,176,1,361,251,53,0,0,313,130,30720,306,,,,,,,,,,,,
370983,1560692899072,2,2.32,2.28,3.27,2.09,5.07,0.88,0.03,0.38,-16,3,-17,0.88,5779,24,86,35,60,1017,311.0,412,446,60,119.0,176,1,363,251,53,0,0,312,-32256,32000,306,,,,,,,,,,,,
371003,1560692899098,2,2.35,2.27,3.26,2.09,5.07,0.7,-0.01,0.41,-14,5,-15,0.7,5890,24,86,35,60,1046,309.0,421,446,60,118.0,179,1,372,250,55,0,0,309,32000,32000,308,,,,,,,,,,,,
371023,1560692899118,3,2.39,2.25,3.28,2.09,5.05,0.6,0.03,0.43,-9,8,-14,0.6,5971,24,86,35,59,1071,310.0,425,445,60,118.0,179,1,379,250,55,0,0,307,30720,130,310,,,,,,,,,,,,
371043,1560692899138,2,2.44,2.23,3.34,2.12,5.06,0.5,0.02,0.47,-5,9,-12,0.5,5980,24,86,35,58,1090,313.0,433,446,60,118.0,179,1,381,250,55,0,0,308,29440,-32256,313,45.70097,4.909796,30.07,197.6,3,1.6,0,0.0,0.0717,4,0.08,6.1841
371063,1560692899158,3,2.48,2.2,3.35,2.16,5.04,0.41,0.01,0.53,-2,10,-10,0.41,5927,24,86,35,58,1109,318.0,427,448,60,117.0,179,1,376,251,55,0,0,311,110,145,318,,,,,,,,,,,,
371083,1560692899178,2,2.52,2.18,3.37,2.2,5.04,0.33,-0.0,0.6,3,11,-8,0.33,5846,24,86,35,58,1109,322.0,429,453,60,117.0,179,1,369,251,55,0,0,310,28160,150,322,,,,,,,,,,,,
371103,1560692899198,2,2.59,2.17,3.41,2.26,5.06,0.33,-0.04,0.7,6,8,-6,0.33,5801,24,86,35,58,1102,324.0,426,455,60,116.0,170,1,365,251,55,0,0,311,26880,145,324,,,,,,,,,,,,
371123,1560692899218,-0,2.64,2.14,3.44,2.28,5.08,0.47,-0.12,0.77,9,5,-3,0.49,5852,24,86,35,58,1095,324.0,422,458,60,117.0,170,1,369,251,55,0,0,307,100,-24576,324,,,,,,,,,,,,
371143,1560692899238,0,2.68,2.14,3.47,2.31,5.04,0.6,-0.21,0.73,10,1,1,0.64,5901,24,86,35,58,1088,326.0,419,456,60,118.0,170,1,374,251,55,0,0,306,95,-22016,326,45.700977,4.909799,29.8,197.6,3,1.6,0,0.0,0.0733,4,0.08,6.1857
371163,1560692899258,-1,2.73,2.14,3.53,2.3,5.06,0.67,-0.36,0.72,11,-2,6,0.76,5944,24,86,35,58,1084,328.0,428,462,60,118.0,170,1,378,251,55,0,0,307,23040,160,328,,,,,,,,,,,,
371183,1560692899278,-1,2.75,2.14,3.58,2.34,5.04,0.78,-0.46,0.71,12,-4,10,0.91,5990,24,86,35,58,1085,330.0,432,460,60,118.0,170,1,382,251,55,0,0,307,85,175,330,,,,,,,,,,,,
371203,1560692899298,-0,2.76,2.12,3.58,2.37,5.04,0.87,-0.6,0.71,13,-6,14,1.05,5980,24,86,35,58,1099,330.0,432,457,60,118.0,169,1,381,251,56,0,0,311,0,-22016,333,,,,,,,,,,,,
371223,1560692899318,-1,2.75,2.1,3.59,2.36,5.08,0.98,-0.72,0.7,14,-7,18,1.22,6036,24,86,35,58,1119,334.0,422,458,60,118.0,169,1,383,251,56,0,0,313,21760,-32559,334,,,,,,,,,,,,
371243,1560692899338,-0,2.77,2.09,3.59,2.37,5.07,1.0,-0.77,0.78,15,-9,21,1.26,6060,24,86,35,57,1139,333.0,432,457,60,118.0,169,1,384,253,56,0,0,313,0,-12032,337,45.700985,4.909802,30.0,197.6,3,1.6,0,0.0,0.075,4,0.08,6.1874
371263,1560692899358,-0,2.76,2.07,3.59,2.36,5.07,1.04,-0.88,0.74,17,-10,25,1.36,6083,24,86,35,57,1157,336.0,434,455,60,117.0,169,1,384,254,56,0,0,305,20480,-12032,336,,,,,,,,,,,,
371283,1560692899378,-2,2.77,2.06,3.6,2.36,5.06,1.11,-0.99,0.8,18,-11,28,1.49,6058,25,86,35,57,1171,338.0,431,458,60,117.0,169,1,384,253,56,0,0,315,20480,13,338,,,,,,,,,,,,
371303,1560692899398,-1,2.76,2.05,3.61,2.36,5.07,1.11,-1.08,0.85,20,-12,31,1.55,6040,25,86,35,57,1181,339.0,421,458,60,118.0,168,1,384,253,57,0,0,332,0,3346,339,,,,,,,,,,,,
371323,1560692899418,1,2.76,2.05,3.63,2.36,5.05,1.0,-1.17,0.89,22,-13,34,1.54,6111,25,86,35,57,1183,339.0,430,458,60,117.0,168,1,384,254,57,0,0,331,0,3346,339,,,,,,,,,,,,
371343,1560692899438,4,2.77,2.03,3.65,2.37,5.04,0.92,-1.25,0.88,25,-12,36,1.56,6171,25,86,35,57,1175,342.0,438,458,60,116.0,168,1,386,256,57,0,0,321,0,-32559,342,45.700993,4.909805,29.65,197.6,3,1.6,0,0.0,0.0767,4,0.08,6.1891
371363,1560692899458,3,2.77,2.03,3.64,2.37,5.04,0.92,-1.23,0.84,27,-11,39,1.54,6198,25,86,35,57,1166,342.0,435,461,60,117.0,168,1,386,256,57,0,0,307,0,6668,342,,,,,,,,,,,,
371383,1560692899478,3,2.77,2.03,3.63,2.38,5.04,0.9,-1.1,0.79,28,-11,40,1.42,6179,25,86,35,56,1155,344.0,440,450,60,118.0,168,1,385,256,57,0,0,316,0,-122,344,,,,,,,,,,,,
371403,1560692899500,5,2.77,2.03,3.63,2.39,5.04,0.84,-0.94,0.64,30,-8,42,1.26,6101,25,86,35,56,1147,345.0,437,449,60,119.0,173,1,384,255,60,0,0,325,41,2560,345,,,,,,,,,,,,
371423,1560692899520,-1,2.79,2.03,3.63,2.39,5.05,0.88,-0.87,0.46,31,-8,44,1.23,6125,25,86,35,57,1145,345.0,431,453,60,119.0,173,1,384,255,60,0,0,342,0,2560,345,,,,,,,,,,,,
371443,1560692899540,1,2.78,2.03,3.61,2.41,5.06,0.92,-0.91,0.42,31,-6,46,1.29,6151,25,86,35,56,1144,345.0,436,449,60,118.0,173,1,384,256,60,0,0,312,41,-31222,345,45.701,4.90981,29.55,197.6,3,1.6,0,0.0,0.0783,4,0.08,6.1907
371463,1560692899560,0,2.79,2.03,3.61,2.44,5.07,0.94,-1.01,0.46,32,-6,47,1.38,6196,25,86,35,57,1144,343.0,437,459,60,118.0,173,1,386,256,60,0,0,300,41,-31222,342,,,,,,,,,,,,
371483,1560692899580,-0,2.78,2.03,3.62,2.43,5.04,1.05,-1.09,0.6,33,-8,48,1.51,6169,26,86,35,57,1143,343.0,442,463,60,117.0,173,1,386,256,60,0,0,321,0,-31222,343,,,,,,,,,,,,
371503,1560692899598,1,2.77,2.01,3.62,2.43,5.04,1.11,-1.15,0.73,34,-10,49,1.6,6121,26,86,35,57,1145,345.0,437,463,60,118.0,174,1,384,255,60,0,0,337,0,13,345,,,,,,,,,,,,
371523,1560692899618,2,2.77,1.98,3.62,2.43,5.04,1.06,-1.21,0.75,36,-11,51,1.61,6173,27,86,35,58,1148,346.0,439,457,60,117.0,174,1,387,255,60,0,0,350,0,2560,345,,,,,,,,,,,,
371543,1560692899638,2,2.77,1.97,3.63,2.43,5.06,0.93,-1.18,0.66,37,-11,53,1.5,6291,29,86,35,58,1151,347.0,450,451,60,118.0,174,1,389,258,60,0,0,327,0,2560,347,45.701004,4.909815,29.83,197.6,3,1.6,0,0.0,0.08,4,0.08,6.1924
371563,1560692899658,-0,2.77,1.97,3.62,2.42,5.05,0.89,-1.12,0.56,38,-10,55,1.43,6377,32,86,35,59,1155,346.0,450,450,60,118.0,174,1,393,261,60,0,0,305,41,-31222,346,,,,,,,,,,,,
371583,1560692899678,-0,2.74,1.97,3.62,2.42,5.07,0.91,-1.14,0.52,38,-7,57,1.45,6340,33,86,35,61,1155,347.0,445,453,60,118.0,174,1,395,262,60,0,0,315,0,-122,346,,,,,,,,,,,,
371603,1560692899700,1,2.71,2.0,3.62,2.42,5.07,0.99,-1.14,0.6,38,-8,58,1.51,6277,34,86,35,62,1155,345.0,448,458,60,117.0,179,1,389,266,62,0,0,355,0,-31206,345,,,,,,,,,,,,
371623,1560692899720,1,2.68,2.03,3.6,2.43,5.04,0.97,-1.13,0.67,38,-7,58,1.49,6200,35,86,35,63,1155,345.0,443,453,60,118.0,179,1,382,269,62,0,0,341,0,-31222,345,,,,,,,,,,,,
371643,1560692899740,5,2.65,2.04,3.61,2.42,5.04,0.92,-1.08,0.76,39,-8,57,1.41,6204,35,86,35,64,1155,344.0,447,456,60,117.0,179,1,379,279,62,0,0,324,21760,2560,343,45.701012,4.909822,30.15,197.6,3,1.6,0,0.0,0.0817,4,0.09,6.194
371663,1560692899760,4,2.61,2.04,3.65,2.42,5.04,0.87,-1.0,0.72,40,-9,56,1.32,6155,35,86,35,65,1155,344.0,445,458,60,117.0,179,1,374,284,62,0,0,320,21760,-31222,344,,,,,,,,,,,,
371683,1560692899780,3,2.58,2.04,3.61,2.38,5.05,0.74,-0.9,0.59,39,-8,55,1.17,6163,36,86,35,66,1155,343.0,445,459,60,117.0,179,1,371,292,62,0,0,317,85,3327,343,,,,,,,,,,,,
371703,1560692899800,1,2.55,2.07,3.54,2.36,5.08,0.68,-0.86,0.48,38,-5,54,1.09,6153,37,86,35,67,1159,342.0,437,454,60,119.0,198,1,367,300,68,0,0,306,25600,3327,341,,,,,,,,,,,,
371723,1560692899820,-0,2.51,2.12,3.49,2.34,5.04,0.71,-0.88,0.47,37,-3,52,1.13,6087,37,86,35,67,1164,339.0,438,451,60,119.0,198,1,364,297,68,0,0,311,26880,-6528,339,,,,,,,,,,,,
371743,1560692899840,-0,2.48,2.16,3.46,2.32,5.05,0.77,-0.9,0.52,35,-0,50,1.18,5967,37,86,35,68,1168,338.0,429,448,60,118.0,198,1,355,306,68,0,0,315,110,3346,337,45.701019,4.90983,30.58,197.5,3,1.6,0,0.0,0.0833,4,0.09,6.1957
371763,1560692899860,-1,2.46,2.19,3.42,2.31,5.04,0.83,-0.88,0.53,32,0,48,1.21,5967,38,86,35,69,1172,335.0,423,451,60,119.0,198,1,354,321,68,0,0,313,115,-6528,335,,,,,,,,,,,,
371783,1560692899880,1,2.42,2.2,3.39,2.27,5.07,0.88,-0.89,0.55,30,1,46,1.25,5956,38,86,35,69,1205,335.0,425,451,60,119.0,198,1,353,321,68,0,0,312,125,4838,335,,,,,,,,,,,,
371803,1560692899899,-1,2.4,2.22,3.37,2.25,5.04,0.91,-0.91,0.57,28,4,44,1.29,6025,39,86,35,70,1240,335.0,428,453,60,118.0,226,1,356,336,76,0,0,315,-30976,-6528,335,,,,,,,,,,,,
371823,1560692899919,-2,2.38,2.23,3.35,2.23,5.06,0.92,-0.91,0.59,26,5,42,1.29,6121,40,86,35,71,1271,331.0,428,453,60,119.0,226,1,358,338,76,0,0,317,135,4838,331,,,,,,,,,,,,
371843,1560692899939,1,2.36,2.24,3.34,2.24,5.06,0.92,-0.9,0.72,25,3,39,1.29,6206,41,86,35,72,1301,332.0,432,455,60,118.0,226,1,360,356,76,0,0,321,145,4838,331,45.701023,4.909839,31.13,197.5,3,1.6,0,0.0,0.085,4,0.09,6.1974
371863,1560692899959,2,2.33,2.24,3.32,2.22,5.07,0.92,-0.85,0.83,23,2,35,1.25,6233,41,86,35,72,1333,332.0,438,453,60,117.0,226,1,361,372,76,0,0,326,-27136,4838,332,,,,,,,,,,,,
371883,1560692899979,2,2.31,2.27,3.29,2.22,5.07,0.92,-0.73,0.86,21,1,31,1.18,6241,42,86,35,73,1366,332.0,446,454,60,116.0,226,1,360,387,76,0,0,330,155,2560,332,,,,,,,,,,,,
371903,1560692899993,3,2.3,2.3,3.27,2.21,5.06,0.85,-0.53,0.8,19,2,29,1.0,6256,42,86,35,73,1376,331.0,445,451,60,118.0,274,1,360,387,91,0,0,334,-23296,4838,331,,,,,,,,,,,,
371923,1560692900013,8,2.28,2.3,3.25,2.22,5.08,0.8,-0.4,0.71,17,3,28,0.9,6220,42,86,35,73,1377,331.0,441,454,60,118.0,274,1,359,403,91,0,0,337,175,-31222,331,,,,,,,,,,,,
371943,1560692900033,0,2.26,2.32,3.23,2.2,5.04,0.81,-0.37,0.66,16,4,27,0.89,6279,43,86,35,74,1365,331.0,432,458,60,118.0,274,1,360,403,91,0,0,336,-12032,3346,331,45.701023,4.909848,31.5,197.5,3,1.6,0,0.0,0.0867,4,0.09,6.199
371963,1560692900053,1,2.24,2.34,3.21,2.19,5.07,0.78,-0.36,0.77,14,2,25,0.86,6325,44,86,35,75,1347,335.0,433,462,60,117.0,274,1,360,404,91,0,0,338,3346,-31222,332,,,,,,,,,,,,
371983,1560692900073,3,2.23,2.34,3.18,2.19,5.03,0.79,-0.29,0.86,11,1,22,0.85,6386,46,86,35,76,1329,336.0,441,457,60,116.0,274,1,360,435,91,0,0,340,13,-31206,334,,,,,,,,,,,,
372003,1560692900099,5,2.22,2.36,3.16,2.18,5.07,0.7,-0.1,0.71,10,2,20,0.71,6447,49,86,35,77,1311,340.0,445,451,60,118.0,317,1,362,442,106,0,0,340,3327,-31206,334,,,,,,,,,,,,
372023,1560692900119,-0,2.21,2.37,3.15,2.19,5.05,0.73,-0.15,0.75,9,3,18,0.74,6530,51,86,35,78,1289,340.0,445,455,60,118.0,317,1,364,449,106,0,0,346,3327,-14714,335,,,,,,,,,,,,
372043,1560692900139,4,2.21,2.38,3.14,2.19,5.06,0.77,-0.08,0.87,7,-0,14,0.77,6609,53,86,35,79,1265,345.0,461,460,60,117.0,317,1,367,456,106,0,0,351,6870,-10554,337,45.701031,4.909857,31.68,197.5,3,1.6,0,0.0,0.0883,4,0.09,6.2007
372063,1560692900159,0,2.19,2.39,3.14,2.19,5.04,0.65,-0.0,0.75,6,-1,11,0.65,6674,54,86,35,80,1252,347.0,461,454,60,118.0,317,1,368,464,106,0,0,353,8841,3302,340,,,,,,,,,,,,
372083,1560692900179,1,2.2,2.42,3.11,2.2,5.06,0.7,-0.01,0.85,5,-1,7,0.7,6684,54,86,35,81,1247,350.0,461,451,60,118.0,317,1,368,471,106,0,0,358,-30454,2811,342,,,,,,,,,,,,
372103,1560692900199,-0,2.2,2.42,3.1,2.21,5.07,0.7,0.01,0.74,3,-2,5,0.7,6773,55,86,35,82,1234,351.0,472,458,60,117.0,350,1,371,479,120,0,0,360,28553,3302,345,,,,,,,,,,,,
372123,1560692900219,4,2.21,2.44,3.1,2.21,5.07,0.73,-0.01,0.83,2,-2,4,0.73,6868,57,86,35,83,1216,354.0,467,459,60,117.0,350,1,373,488,120,0,0,362,3302,-14707,346,,,,,,,,,,,,
372143,1560692900239,3,2.21,2.46,3.1,2.21,5.04,0.7,-0.11,0.75,2,-1,4,0.71,6983,58,86,35,83,1199,358.0,476,455,60,118.0,350,1,377,490,120,0,0,369,-29302,-6656,352,45.701035,4.909866,32.14,197.5,3,1.6,0,0.0,0.09,4,0.09,6.2024
372163,1560692900259,-0,2.21,2.48,3.1,2.21,5.08,0.71,-0.0,0.73,0,-0,4,0.71,7030,59,86,35,84,1185,362.0,486,454,60,118.0,350,1,379,496,120,0,0,373,2790,742,354,,,,,,,,,,,,
372183,1560692900279,4,2.21,2.48,3.09,2.21,5.07,0.81,-0.05,0.85,-1,-2,4,0.81,7072,60,86,35,84,1163,368.0,498,459,60,116.0,350,1,384,497,120,0,0,379,0,8200,360,,,,,,,,,,,,
372203,1560692900299,3,2.22,2.48,3.07,2.22,5.04,0.77,-0.1,0.93,-1,-0,2,0.78,7172,61,86,35,85,1134,372.0,488,454,60,117.0,369,1,388,498,133,0,0,378,1,-18948,364,,,,,,,,,,,,
372223,1560692900319,1,2.24,2.48,3.06,2.21,5.06,0.59,-0.02,0.88,-1,-0,1,0.59,7231,62,86,35,85,1111,376.0,492,458,60,118.0,369,1,391,499,133,0,0,385,3,-6524,368,,,,,,,,,,,,
372243,1560692900339,1,2.25,2.48,3.08,2.24,5.08,0.54,0.11,0.79,-1,1,0,0.55,7335,63,86,35,84,1095,379.0,493,452,60,118.0,369,1,397,508,133,0,0,393,8200,-6656,373,45.701038,4.909876,33.19,197.5,3,1.6,0,0.0,0.0917,4,0.09,6.2041
372263,1560692900359,3,2.26,2.5,3.09,2.29,5.05,0.58,0.11,0.8,-2,2,-1,0.59,7390,64,86,35,84,1068,382.0,498,453,60,118.0,369,1,401,501,133,0,0,399,19125,1,378,,,,,,,,,,,,
372283,1560692900379,0,2.28,2.5,3.1,2.32,5.04,0.55,0.21,0.79,-2,1,-1,0.59,7524,65,86,35,84,1029,387.0,505,457,60,118.0,369,1,408,511,133,0,0,401,240,6384,383,,,,,,,,,,,,
372303,1560692900397,3,2.29,2.5,3.12,2.31,5.04,0.44,0.22,0.77,-2,1,-2,0.49,7631,66,86,35,85,994,390.0,515,453,60,118.0,373,1,416,513,143,0,0,406,-1562,10392,391,,,,,,,,,,,,
372323,1560692900417,4,2.3,2.5,3.11,2.3,5.06,0.47,0.25,0.8,-2,0,-2,0.53,7796,67,86,35,84,970,395.0,517,456,60,118.0,373,1,425,507,143,0,0,412,17144,2524,395,,,,,,,,,,,,
372343,1560692900437,4,2.31,2.5,3.11,2.33,5.07,0.46,0.22,0.84,-1,1,-0,0.51,7888,67,86,35,83,945,399.0,522,443,60,118.0,373,1,430,499,143,0,0,416,6384,-3414,400,45.701042,4.909886,35.17,197.5,3,1.6,0,0.0,0.0933,4,0.09,6.2057
372363,1560692900457,-0,2.33,2.5,3.1,2.35,5.06,0.42,0.16,0.9,-1,2,-1,0.45,8005,67,86,35,82,919,404.0,544,455,60,117.0,373,1,438,492,143,0,0,419,1504,3635,406,,,,,,,,,,,,
372383,1560692900477,3,2.33,2.5,3.1,2.38,5.05,0.42,0.13,0.9,-0,2,-1,0.44,8106,68,86,35,81,898,412.0,538,451,60,118.0,373,1,436,491,143,0,0,430,10392,-3314,412,,,,,,,,,,,,
372403,1560692900500,-1,2.34,2.5,3.13,2.42,5.06,0.44,-0.04,0.93,0,2,-1,0.44,8130,68,86,35,80,896,417.0,541,448,60,117.0,364,1,435,493,150,0,0,449,-9166,19477,417,,,,,,,,,,,,
372423,1560692900520,2,2.36,2.5,3.14,2.43,5.07,0.33,-0.04,0.88,1,3,-1,0.33,8267,68,86,35,80,894,424.0,564,459,60,117.0,364,1,432,492,150,0,0,450,-3414,19477,424,,,,,,,,,,,,
372443,1560692900540,2,2.36,2.5,3.15,2.43,5.08,0.42,-0.11,0.94,1,2,-0,0.44,8423,69,86,35,79,892,429.0,565,453,60,116.0,364,1,428,489,150,0,0,446,-4082,10305,430,45.70105,4.909897,36.73,197.4,3,1.6,0,0.0,0.095,4,0.09,6.2074
372463,1560692900560,5,2.36,2.53,3.14,2.43,5.05,0.36,-0.02,0.92,2,1,1,0.36,8546,70,86,35,77,889,435.0,568,452,60,117.0,364,1,425,466,150,0,0,450,31796,12552,435,,,,,,,,,,,,
372483,1560692900580,2,2.38,2.54,3.14,2.45,5.06,0.28,-0.08,0.84,3,1,1,0.29,8589,70,86,35,77,889,440.0,573,453,60,118.0,364,1,424,466,150,0,0,462,-3322,2211,440,,,,,,,,,,,,
372503,1560692900599,3,2.38,2.51,3.16,2.46,5.07,0.45,-0.22,0.9,4,0,1,0.5,8640,71,86,35,77,891,447.0,582,458,60,117.0,340,1,423,466,151,0,0,468,21580,-3210,449,,,,,,,,,,,,
372523,1560692900619,3,2.38,2.49,3.19,2.47,5.07,0.37,-0.21,1.01,4,-1,3,0.42,8798,72,86,35,77,903,454.0,573,451,60,117.0,340,1,419,452,151,0,0,479,20625,10432,454,,,,,,,,,,,,
372543,1560692900639,2,2.38,2.49,3.19,2.46,5.07,0.36,-0.15,1.1,5,-1,5,0.39,8869,72,86,34,77,915,457.0,583,465,60,117.0,340,1,417,470,151,0,0,476,16648,8488,461,45.701057,4.909909,39.76,197.4,3,1.6,0,0.0,0.0967,4,0.09,6.2091
372563,1560692900659,1,2.38,2.49,3.2,2.46,5.04,0.32,-0.12,1.12,5,-0,5,0.35,8971,73,86,34,76,928,465.0,581,460,60,117.0,340,1,413,456,151,0,0,476,-3267,8488,465,,,,,,,,,,,,
372583,1560692900679,0,2.38,2.49,3.18,2.47,5.05,0.24,-0.01,1.16,7,-2,7,0.24,9093,73,86,34,76,940,472.0,587,466,60,117.0,340,1,413,456,151,0,0,483,-9160,505,472,,,,,,,,,,,,
372603,1560692900699,1,2.38,2.49,3.2,2.49,5.07,0.32,0.06,1.21,7,-1,8,0.33,9241,74,86,34,77,979,475.0,589,455,60,116.0,343,1,414,470,162,0,0,493,-9160,2524,473,,,,,,,,,,,,
372623,1560692900719,2,2.39,2.48,3.19,2.49,5.05,0.34,-0.13,1.27,8,-3,9,0.37,9337,74,86,34,76,1018,479.0,598,458,60,117.0,343,1,415,470,162,0,0,499,-3210,-9216,479,,,,,,,,,,,,
372643,1560692900739,5,2.37,2.48,3.22,2.5,5.04,0.47,-0.31,1.34,8,-1,8,0.56,9460,74,86,34,77,1045,485.0,611,451,60,117.0,343,1,415,470,162,0,0,511,10432,10408,485,45.701061,4.909921,42.17,197.4,3,1.6,0,0.0,0.0983,4,0.09,6.2107
372663,1560692900759,1,2.37,2.48,3.2,2.5,5.07,0.4,-0.28,1.23,7,-3,10,0.49,9571,74,86,34,77,1071,489.0,617,457,60,117.0,343,1,414,460,162,0,0,504,3576,17136,490,,,,,,,,,,,,
372683,1560692900779,5,2.37,2.48,3.19,2.51,5.05,0.47,-0.26,1.26,8,-1,11,0.54,9610,75,86,34,76,1100,493.0,621,456,60,117.0,343,1,412,463,162,0,0,515,16648,-3856,496,,,,,,,,,,,,
372703,1560692900799,2,2.38,2.48,3.18,2.5,5.07,0.38,-0.37,1.27,9,-1,10,0.53,9650,75,86,34,76,1129,500.0,622,456,60,117.0,342,1,410,466,170,0,0,513,505,10408,502,,,,,,,,,,,,
372723,1560692900819,3,2.38,2.47,3.2,2.51,5.05,0.3,-0.38,1.25,10,-2,11,0.49,9745,75,86,34,75,1137,510.0,623,452,60,117.0,342,1,406,469,170,0,0,529,-6656,-32248,510,,,,,,,,,,,,
372743,1560692900839,2,2.38,2.46,3.21,2.5,5.05,0.33,-0.46,1.29,10,-0,11,0.57,9837,75,86,34,75,1139,512.0,621,447,60,117.0,342,1,402,471,170,0,0,533,998,-9072,512,45.701065,4.909934,44.9,197.4,3,1.6,0,0.0,0.1,4,0.1,6.2124
372763,1560692900859,5,2.39,2.45,3.22,2.51,5.04,0.38,-0.46,1.19,10,-2,12,0.6,9946,75,86,34,75,1138,516.0,635,456,60,117.0,342,1,398,478,170,0,0,532,-22519,-32248,516,,,,,,,,,,,,
372783,1560692900879,3,2.38,2.46,3.22,2.51,5.04,0.34,-0.38,1.17,10,-3,12,0.51,10053,75,86,34,75,1136,521.0,626,455,60,116.0,342,1,405,483,170,0,0,539,-32248,-28648,521,,,,,,,,,,,,
372803,1560692900898,2,2.39,2.45,3.26,2.52,5.08,0.34,-0.42,1.25,10,-0,12,0.54,10179,75,86,34,75,1134,527.0,621,455,60,117.0,354,1,409,483,185,0,0,552,-3414,-8962,528,,,,,,,,,,,,
372823,1560692900918,4,2.38,2.47,3.23,2.52,5.04,0.37,-0.47,1.21,11,-3,12,0.6,10257,75,86,34,74,1130,532.0,638,454,60,117.0,354,1,415,478,185,0,0,544,-3482,-32504,532,,,,,,,,,,,,
372843,1560692900938,1,2.38,2.46,3.22,2.51,5.07,0.25,-0.45,1.22,11,-3,13,0.51,10347,75,86,34,75,1128,534.0,627,462,60,116.0,354,1,421,484,185,0,0,550,-14,-32248,536,45.701073,4.909949,47.47,197.4,3,1.6,0,0.0,0.1017,4,0.1,6.214
372863,1560692900958,3,2.38,2.46,3.23,2.51,5.06,0.3,-0.41,1.16,11,0,13,0.51,10341,75,86,34,75,1126,538.0,628,450,60,116.0,354,1,420,484,185,0,0,560,-8187,6273,540,,,,,,,,,,,,
372883,1560692900978,1,2.39,2.45,3.23,2.51,5.04,0.33,-0.37,1.16,11,-1,13,0.5,10302,75,86,34,75,1127,545.0,647,460,60,119.0,354,1,418,484,185,0,0,561,-28648,6273,545,,,,,,,,,,,,
372903,1560692900994,-1,2.38,2.43,3.26,2.49,5.06,0.3,-0.31,1.01,11,-2,14,0.44,9796,75,86,34,77,1131,550.0,632,454,60,119.0,341,1,405,485,186,0,0,554,14504,2216,550,,,,,,,,,,,,
372923,1560692901014,1,2.38,2.41,3.3,2.48,5.06,0.4,-0.33,0.94,11,-1,14,0.52,9389,75,86,34,79,1131,550.0,627,460,60,117.0,341,1,416,497,186,0,0,539,2104,6274,550,,,,,,,,,,,,
372943,1560692901034,0,2.38,2.36,3.34,2.44,5.06,0.56,-0.47,1.04,11,-5,14,0.73,9209,75,86,34,81,1130,552.0,621,460,60,119.0,341,1,416,512,186,0,0,529,-32248,2524,553,45.70108,4.909964,49.44,197.4,3,1.6,0,0.0,0.1033,4,0.1,6.2157
372963,1560692901054,0,2.37,2.32,3.41,2.43,5.07,0.55,-0.62,1.06,12,-7,15,0.83,8979,79,86,34,82,1128,552.0,613,463,60,117.0,341,1,418,540,186,0,0,535,14504,2104,552,,,,,,,,,,,,
372983,1560692901074,3,2.38,2.3,3.44,2.43,5.06,0.64,-0.71,1.11,13,-1,15,0.95,8511,82,86,34,85,1126,554.0,603,458,60,118.0,341,1,430,1052,186,0,0,574,6274,1760,554,,,,,,,,,,,,
373003,1560692901098,4,2.38,2.31,3.39,2.44,5.08,0.65,-0.66,1.1,13,-2,15,0.93,7709,83,86,34,87,1154,560.0,563,447,60,118.0,574,1,423,887,319,0,0,629,1780,208,560,,,,,,,,,,,,
373023,1560692901118,4,2.37,2.33,3.34,2.49,5.04,0.57,-0.58,0.97,13,-0,15,0.82,7324,83,86,34,90,1210,563.0,533,455,60,118.0,574,1,397,808,319,0,0,586,-2934,1,563,,,,,,,,,,,,
373043,1560692901138,5,2.37,2.31,3.32,2.48,5.06,0.54,-0.53,0.96,13,-1,13,0.75,7678,83,86,34,91,1269,562.0,520,455,60,118.0,574,1,423,730,319,0,0,544,-506,2211,562,45.701084,4.90998,51.27,197.3,3,1.6,0,0.0,0.105,4,0.1,6.2174
373063,1560692901158,2,2.36,2.3,3.33,2.45,5.05,0.55,-0.49,0.96,13,-2,12,0.74,8130,83,86,34,90,1330,562.0,539,456,60,117.0,574,1,447,662,319,0,0,557,-506,-3190,562,,,,,,,,,,,,
373083,1560692901178,5,2.36,2.3,3.33,2.45,5.05,0.48,-0.56,0.95,13,-2,13,0.73,8396,83,86,34,87,1392,566.0,560,459,60,117.0,574,1,435,598,319,0,0,587,2104,10432,566,,,,,,,,,,,,
373103,1560692901200,2,2.37,2.31,3.31,2.46,5.08,0.54,-0.65,1.04,13,-2,15,0.85,8374,84,86,34,86,1453,571.0,581,452,60,116.0,333,1,434,575,189,0,0,625,2524,-768,571,,,,,,,,,,,,
373123,1560692901220,3,2.36,2.38,3.27,2.49,5.06,0.38,-0.64,1.0,13,2,16,0.74,8351,84,86,34,86,1498,578.0,570,456,60,118.0,333,1,435,573,189,0,0,629,-22263,28675,577,,,,,,,,,,,,
373143,1560692901240,1,2.37,2.43,3.2,2.52,5.05,0.52,-0.73,1.02,12,2,15,0.9,8348,84,86,34,86,1498,584.0,567,457,60,117.0,333,1,435,572,189,0,0,591,-28648,-30139,584,45.701092,4.909997,52.3,197.3,3,1.6,0,0.0,0.1067,4,0.1,6.219
373163,1560692901260,3,2.37,2.43,3.2,2.52,5.05,0.43,-0.65,1.07,12,1,15,0.78,8230,84,86,34,86,1463,587.0,563,458,60,117.0,333,1,437,559,189,0,0,606,-29984,17336,592,,,,,,,,,,,,
373183,1560692901280,0,2.36,2.43,3.2,2.52,5.06,0.45,-0.68,1.02,12,1,14,0.82,8191,84,86,34,87,1381,594.0,553,454,60,116.0,333,1,440,559,189,0,0,611,774,28675,594,,,,,,,,,,,,
373203,1560692901300,4,2.37,2.43,3.2,2.53,5.04,0.41,-0.57,0.93,12,-0,14,0.7,8274,83,86,34,86,1298,598.0,552,455,60,118.0,297,1,437,564,177,0,0,612,10432,-18357,598,,,,,,,,,,,,
373223,1560692901320,1,2.37,2.43,3.24,2.52,5.06,0.43,-0.59,0.97,12,-1,15,0.73,8426,83,86,34,86,1216,601.0,563,455,60,117.0,297,1,433,579,177,0,0,623,15649,3395,604,,,,,,,,,,,,
373243,1560692901340,2,2.36,2.42,3.26,2.52,5.06,0.41,-0.52,1.07,13,-0,15,0.66,8573,83,86,34,85,1135,607.0,567,452,60,116.0,297,1,429,576,177,0,0,620,-28648,771,607,45.701099,4.910015,53.27,197.3,3,1.6,0,0.0,0.1083,4,0.1,6.2207
373263,1560692901360,7,2.36,2.4,3.29,2.51,5.04,0.3,-0.52,1.1,12,-0,13,0.6,8644,82,86,34,84,1060,612.0,577,450,60,117.0,297,1,426,566,177,0,0,642,17344,-5120,611,,,,,,,,,,,,
373283,1560692901380,4,2.37,2.41,3.26,2.51,5.04,0.36,-0.57,1.09,12,-0,14,0.67,8745,82,86,34,84,1000,617.0,586,458,60,117.0,297,1,424,566,177,0,0,639,243,-2580,620,,,,,,,,,,,,
373303,1560692901400,2,2.38,2.42,3.25,2.51,5.05,0.4,-0.66,1.08,12,-0,12,0.77,8786,79,86,34,83,1008,621.0,598,455,60,117.0,298,1,423,555,185,0,0,646,5344,11566,621,,,,,,,,,,,,
373323,1560692901420,3,2.37,2.43,3.25,2.5,5.06,0.55,-0.74,1.03,11,-1,11,0.93,8798,77,86,34,81,1016,627.0,598,455,60,117.0,298,1,421,526,185,0,0,652,19621,31988,627,,,,,,,,,,,,
373343,1560692901440,-0,2.38,2.43,3.25,2.52,5.06,0.64,-0.79,1.12,12,-1,11,1.02,8778,75,86,34,80,1025,633.0,597,454,60,117.0,298,1,421,512,185,0,0,647,16529,479,633,45.701103,4.910034,53.59,197.3,3,1.6,0,0.0,0.11,4,0.1,6.2224
373363,1560692901460,3,2.38,2.42,3.25,2.52,5.04,0.54,-0.74,1.21,12,-2,11,0.91,8794,71,86,34,78,1034,636.0,593,450,60,116.0,298,1,420,483,185,0,0,663,3403,31988,636,,,,,,,,,,,,
373383,1560692901480,2,2.39,2.42,3.28,2.52,5.04,0.45,-0.68,1.24,12,-1,11,0.81,8873,68,86,34,76,1035,640.0,603,457,60,117.0,298,1,417,456,185,0,0,662,-18357,-2826,640,,,,,,,,,,,,
373403,1560692901500,-1,2.39,2.4,3.32,2.51,5.06,0.33,-0.67,1.19,13,-0,12,0.74,8984,66,86,34,73,1036,645.0,598,451,60,117.0,233,1,414,436,150,0,0,663,-16046,-388,646,,,,,,,,,,,,
373423,1560692901520,2,2.38,2.39,3.32,2.5,5.03,0.27,-0.53,1.12,13,-2,13,0.59,9079,65,86,34,71,1041,650.0,591,459,60,117.0,233,1,413,417,150,0,0,660,3,-10348,650,,,,,,,,,,,,
373443,1560692901540,2,2.38,2.39,3.33,2.51,5.04,0.2,-0.42,1.15,14,-2,14,0.47,9146,64,86,34,70,1046,656.0,592,457,60,117.0,233,1,413,407,150,0,0,681,3,-26892,658,45.701107,4.910053,58.24,197.3,3,1.6,0,0.0,0.1117,4,0.11,6.2241
373463,1560692901560,3,2.39,2.38,3.35,2.5,5.07,0.3,-0.37,1.23,14,-3,15,0.48,9191,64,86,34,69,1050,659.0,598,455,60,116.0,233,1,414,388,150,0,0,685,16599,-26892,659,,,,,,,,,,,,
373483,1560692901580,3,2.39,2.38,3.34,2.53,5.08,0.33,-0.42,1.17,14,-3,14,0.53,9241,64,86,34,68,1054,660.0,595,457,60,117.0,233,1,414,388,150,0,0,673,-2580,-26380,660,,,,,,,,,,,,
373503,1560692901598,4,2.4,2.38,3.33,2.54,5.08,0.49,-0.58,1.21,14,-3,13,0.76,9245,63,86,34,68,1052,664.0,613,457,60,117.0,205,1,414,379,136,0,0,679,-2830,24845,664,,,,,,,,,,,,
373523,1560692901618,3,2.4,2.38,3.31,2.54,5.04,0.56,-0.72,1.2,14,-5,13,0.91,9222,60,86,34,67,1049,669.0,607,457,60,117.0,205,1,412,375,136,0,0,678,4909,6208,671,,,,,,,,,,,,
373543,1560692901638,0,2.39,2.36,3.32,2.54,5.04,0.52,-0.76,1.13,15,-2,13,0.92,9209,56,86,34,65,1044,673.0,621,457,60,117.0,205,1,409,366,136,0,0,692,-6006,-2830,674,45.701111,4.910074,60.49,197.3,3,1.6,0,0.0,0.1133,4,0.11,6.2257
373563,1560692901658,2,2.4,2.35,3.34,2.54,5.08,0.34,-0.57,1.07,15,-4,15,0.66,9250,53,86,34,63,1037,676.0,614,462,60,117.0,205,1,408,357,136,0,0,686,-3488,-10448,675,,,,,,,,,,,,
373583,1560692901678,4,2.39,2.34,3.4,2.53,5.04,0.31,-0.47,0.97,15,-1,15,0.56,9375,52,86,34,61,1022,676.0,619,468,60,117.0,205,1,409,348,136,0,0,693,-2830,3543,680,,,,,,,,,,,,
373603,1560692901698,4,2.4,2.31,3.4,2.53,5.07,0.43,-0.61,0.99,15,-3,16,0.74,9450,52,86,34,60,1008,683.0,630,456,60,117.0,180,1,410,343,123,0,0,687,-3038,24,683,,,,,,,,,,,,
373623,1560692901718,1,2.4,2.31,3.43,2.54,5.08,0.53,-0.71,0.92,15,-1,18,0.88,9479,51,86,34,58,998,688.0,629,447,60,117.0,180,1,407,334,123,0,0,705,-2345,11069,688,,,,,,,,,,,,
373643,1560692901738,1,2.41,2.32,3.43,2.54,5.05,0.38,-0.52,0.92,15,-3,20,0.65,9474,51,86,34,58,989,687.0,627,459,60,117.0,180,1,407,333,123,0,0,695,-26380,11069,687,45.701118,4.910095,63.21,197.3,3,1.6,0,0.0,0.115,4,0.11,6.2274
373663,1560692901758,2,2.41,2.3,3.42,2.55,5.05,0.48,-0.61,0.9,15,-2,18,0.78,9479,51,86,34,57,974,687.0,620,460,60,116.0,180,1,405,329,123,0,0,704,-2345,11069,687,,,,,,,,,,,,
373683,1560692901778,1,2.4,2.27,3.42,2.54,5.08,0.52,-0.75,0.94,16,-4,18,0.91,9479,51,86,33,57,956,692.0,626,454,60,117.0,180,1,405,329,123,0,0,700,3543,-10448,692,,,,,,,,,,,,
373703,1560692901800,2,2.4,2.24,3.43,2.54,5.04,0.37,-0.7,0.92,16,-3,19,0.79,9537,51,86,33,56,944,693.0,620,460,60,117.0,170,1,404,325,118,0,0,708,-2830,15647,697,,,,,,,,,,,,
373723,1560692901820,3,2.4,2.23,3.46,2.53,5.08,0.43,-0.65,0.83,16,-1,18,0.78,9561,50,86,33,55,934,698.0,620,465,60,117.0,170,1,402,326,118,0,0,705,8958,-30694,698,,,,,,,,,,,,
373743,1560692901840,1,2.4,2.23,3.47,2.53,5.06,0.52,-0.67,0.8,15,-2,19,0.85,9620,50,86,33,55,910,701.0,629,461,60,117.0,170,1,401,322,118,0,0,704,-388,11069,699,45.701122,4.910118,63.41,197.3,3,1.6,0,0.0,0.1167,4,0.11,6.2291
373763,1560692901860,4,2.4,2.23,3.45,2.54,5.04,0.4,-0.58,0.81,16,-2,19,0.71,9620,50,86,33,54,880,697.0,637,454,60,117.0,170,1,400,322,118,0,0,709,8958,687,699,,,,,,,,,,,,
373783,1560692901880,1,2.4,2.23,3.45,2.54,5.04,0.56,-0.72,0.78,17,-0,19,0.91,9620,49,86,33,54,855,702.0,622,460,60,117.0,170,1,400,317,118,0,0,705,-10344,-30694,702,,,,,,,,,,,,
373803,1560692901899,2,2.39,2.23,3.46,2.54,5.06,0.4,-0.69,0.82,17,-2,21,0.8,9650,49,86,33,54,836,704.0,626,457,60,116.0,164,1,400,317,115,0,0,710,-10344,11069,701,,,,,,,,,,,,
373823,1560692901919,4,2.4,2.22,3.46,2.53,5.05,0.5,-0.71,0.77,16,2,20,0.87,9650,49,86,33,54,819,703.0,633,452,60,117.0,164,1,400,317,115,0,0,723,-2345,-13312,703,,,,,,,,,,,,
373843,1560692901939,4,2.38,2.23,3.48,2.53,5.04,0.58,-0.61,0.83,16,-3,21,0.84,9684,47,86,33,53,803,705.0,628,461,60,117.0,164,1,397,306,115,0,0,717,-10346,-3450,706,45.701122,4.91014,63.62,197.3,3,1.6,0,0.0,0.1183,4,0.11,6.2307
373863,1560692901959,4,2.38,2.22,3.5,2.51,5.05,0.55,-0.67,0.85,16,-4,20,0.87,9694,46,86,33,52,797,708.0,627,453,60,117.0,164,1,394,295,115,0,0,705,24845,-31068,708,,,,,,,,,,,,
373883,1560692901979,2,2.38,2.21,3.51,2.52,5.07,0.62,-0.74,0.81,16,-3,19,0.97,9709,46,86,33,51,801,709.0,624,460,60,117.0,164,1,391,284,115,0,0,717,24845,-23490,710,,,,,,,,,,,,
373903,1560692901993,4,2.36,2.22,3.49,2.52,5.06,0.49,-0.83,0.81,16,-3,20,0.96,9750,46,86,33,51,805,710.0,624,452,60,117.0,146,1,391,284,104,0,0,712,-10399,-3888,710,,,,,,,,,,,,
373923,1560692902013,0,2.36,2.22,3.48,2.51,5.07,0.57,-0.88,0.82,16,-3,20,1.05,9755,45,86,33,50,809,712.0,634,454,60,117.0,146,1,388,275,104,0,0,720,16599,31988,713,,,,,,,,,,,,
373943,1560692902033,4,2.35,2.22,3.45,2.51,5.04,0.69,-0.84,0.82,16,-3,21,1.09,9715,45,86,33,50,811,714.0,627,460,60,117.0,146,1,388,274,104,0,0,714,-3584,204,712,45.701126,4.910164,67.32,197.3,3,1.6,0,0.0,0.12,4,0.11,6.2324
373963,1560692902053,2,2.34,2.21,3.45,2.49,5.06,0.71,-0.82,0.87,16,-3,20,1.08,9689,45,86,33,50,810,715.0,622,463,60,117.0,146,1,388,274,104,0,0,728,14342,-3450,712,,,,,,,,,,,,
373983,1560692902073,5,2.33,2.22,3.44,2.49,5.04,0.58,-0.72,0.81,15,-0,20,0.92,9750,44,86,33,49,811,714.0,625,459,60,117.0,146,1,385,264,104,0,0,714,14342,-13312,714,,,,,,,,,,,,
374003,1560692902100,2,2.31,2.22,3.44,2.45,5.06,0.63,-0.66,0.74,13,-1,20,0.91,9770,43,86,33,49,811,710.0,637,457,60,117.0,134,1,385,264,96,0,0,720,6208,-2560,712,,,,,,,,,,,,
374023,1560692902120,4,2.3,2.23,3.41,2.43,5.05,0.69,-0.65,0.71,13,-2,19,0.94,9745,42,86,33,48,812,712.0,640,451,60,117.0,134,1,382,252,96,0,0,715,19188,-2560,712,,,,,,,,,,,,
374043,1560692902140,2,2.28,2.26,3.37,2.43,5.07,0.68,-0.66,0.66,13,-1,18,0.95,9735,41,86,33,47,814,712.0,635,452,60,117.0,134,1,380,242,96,0,0,720,11069,-2560,712,45.701126,4.910187,67.4,197.2,3,1.6,0,0.0,0.1217,4,0.12,6.234
374063,1560692902160,3,2.26,2.29,3.35,2.41,5.04,0.56,-0.6,0.66,11,-3,17,0.82,9740,39,86,33,46,817,712.0,631,457,60,117.0,134,1,372,238,96,0,0,720,15647,-3450,712,,,,,,,,,,,,
374083,1560692902180,0,2.26,2.32,3.32,2.39,5.04,0.7,-0.56,0.65,10,-0,15,0.9,9730,38,86,33,45,824,712.0,622,460,60,117.0,134,1,365,235,96,0,0,722,687,-2830,712,,,,,,,,,,,,
374103,1560692902199,4,2.24,2.33,3.26,2.36,5.06,0.73,-0.36,0.68,8,-6,15,0.82,9704,36,86,33,44,831,709.0,635,451,60,117.0,121,1,357,232,86,0,0,719,-13072,-2830,708,,,,,,,,,,,,
374123,1560692902219,1,2.24,2.35,3.26,2.33,5.07,0.83,-0.43,0.69,6,-4,13,0.94,9694,33,86,33,42,836,714.0,622,459,60,117.0,121,1,342,225,86,0,0,719,204,31988,711,,,,,,,,,,,,
374143,1560692902239,4,2.24,2.35,3.25,2.3,5.07,0.69,-0.24,0.64,5,-3,11,0.73,9735,32,85,33,40,843,713.0,626,458,60,117.0,121,1,327,219,86,0,0,719,-2560,-12152,709,45.70113,4.910212,69.81,197.3,3,1.6,0,0.0,0.1233,4,0.12,6.2357
374163,1560692902259,2,2.23,2.36,3.24,2.26,5.08,0.71,-0.31,0.5,3,-1,9,0.78,9725,31,85,33,39,854,715.0,635,455,60,117.0,121,1,320,216,86,0,0,715,-2560,-13312,708,,,,,,,,,,,,
374183,1560692902279,3,2.23,2.36,3.21,2.2,5.06,0.66,-0.12,0.6,2,-1,8,0.67,9669,30,85,33,37,865,718.0,638,455,60,117.0,121,1,314,211,86,0,0,725,16118,-13072,710,,,,,,,,,,,,
374203,1560692902299,1,2.22,2.36,3.21,2.16,5.05,0.59,-0.07,0.62,1,-1,6,0.59,9654,30,85,33,36,870,720.0,643,451,60,117.0,110,1,311,209,78,0,0,719,-2830,-2830,711,,,,,,,,,,,,
374223,1560692902319,0,2.23,2.37,3.2,2.13,5.05,0.57,0.05,0.64,0,-2,5,0.58,9669,30,85,33,35,875,718.0,635,459,60,117.0,110,1,308,209,78,0,0,721,-2830,-20693,707,,,,,,,,,,,,
374243,1560692902339,5,2.21,2.39,3.17,2.11,5.04,0.66,0.0,0.47,-1,1,4,0.66,9669,30,85,33,35,881,721.0,633,449,60,118.0,110,1,308,207,78,0,0,720,31988,-2830,705,45.701134,4.910236,70.31,197.3,3,1.6,0,0.0,0.125,4,0.12,6.2374
374263,1560692902359,3,2.2,2.41,3.12,2.08,5.05,0.68,0.2,0.57,-2,-1,2,0.71,9654,29,85,33,34,886,721.0,630,457,60,117.0,110,1,305,205,78,0,0,723,31988,-12152,703,,,,,,,,,,,,
374283,1560692902379,5,2.2,2.43,3.09,2.06,5.03,0.75,0.07,0.48,-3,-1,1,0.75,9580,29,85,33,34,886,719.0,626,456,60,117.0,110,1,305,204,78,0,0,722,-3450,-13312,705,,,,,,,,,,,,
374303,1560692902399,-0,2.2,2.44,3.09,2.04,5.04,0.67,0.23,0.57,-4,-2,-2,0.71,9551,29,85,33,34,886,717.0,623,455,60,117.0,104,1,305,203,74,0,0,720,-23490,-20693,702,,,,,,,,,,,,
374323,1560692902419,3,2.2,2.45,3.08,2.02,5.04,0.65,0.27,0.57,-4,-1,-2,0.7,9541,29,85,33,33,877,721.0,627,457,60,117.0,104,1,302,200,74,0,0,719,31988,687,702,,,,,,,,,,,,
374343,1560692902439,2,2.2,2.45,3.09,1.99,5.05,0.69,0.2,0.55,-5,-1,-5,0.72,9541,29,85,33,33,867,720.0,630,452,60,117.0,104,1,302,200,74,0,0,720,-2830,687,700,45.701134,4.910261,69.67,197.2,3,1.6,0,0.0,0.1267,4,0.12,6.239
374363,1560692902459,-0,2.2,2.45,3.1,1.98,5.07,0.6,0.39,0.58,-6,0,-6,0.71,9537,29,85,33,33,858,721.0,636,459,60,118.0,104,1,302,200,74,0,0,711,-3450,-20693,702,,,,,,,,,,,,
374383,1560692902479,1,2.19,2.47,3.11,1.96,5.05,0.74,0.44,0.55,-7,-1,-6,0.86,9532,29,85,33,33,849,720.0,636,452,60,117.0,104,1,302,200,74,0,0,721,-2830,16599,700,,,,,,,,,,,,
374403,1560692902499,4,2.17,2.47,3.09,1.95,5.04,0.77,0.34,0.55,-8,-2,-9,0.84,9484,29,85,33,33,835,717.0,649,460,60,117.0,103,1,302,199,72,0,0,720,-31068,8010,698,,,,,,,,,,,,
374423,1560692902519,1,2.17,2.48,3.07,1.94,5.04,0.62,0.51,0.53,-9,-2,-9,0.81,9479,29,85,32,32,822,718.0,623,461,60,117.0,103,1,300,197,72,0,0,718,-31068,-10448,696,,,,,,,,,,,,
374443,1560692902539,1,2.17,2.5,3.06,1.92,5.06,0.76,0.57,0.47,-10,-0,-9,0.95,9522,29,85,32,32,815,717.0,642,453,60,117.0,103,1,300,197,72,0,0,721,-3450,14342,694,45.701134,4.910286,68.88,197.2,3,1.6,0,0.0,0.1283,4,0.12,6.2407
374463,1560692902559,4,2.17,2.5,3.05,1.9,5.07,0.81,0.41,0.47,-11,-0,-11,0.91,9517,29,85,32,33,811,718.0,629,455,60,117.0,103,1,302,200,72,0,0,715,-31068,12333,695,,,,,,,,,,,,
374483,1560692902579,1,2.16,2.51,3.04,1.89,5.03,0.58,0.57,0.44,-12,4,-11,0.81,9503,29,85,32,32,809,719.0,628,456,60,117.0,103,1,300,198,72,0,0,715,-23490,1780,690,,,,,,,,,,,,
374503,1560692902599,1,2.17,2.53,3.02,1.87,5.06,0.72,0.56,0.45,-13,1,-13,0.91,9455,29,85,32,32,808,717.0,634,456,60,117.0,102,1,300,198,71,0,0,722,-23490,1780,693,,,,,,,,,,,,
374523,1560692902619,3,2.16,2.54,3.03,1.85,5.05,0.78,0.4,0.54,-14,-1,-13,0.88,9464,29,85,32,32,810,717.0,628,453,60,117.0,102,1,300,197,71,0,0,712,-23490,6208,690,,,,,,,,,,,,
374543,1560692902639,1,2.17,2.54,3.02,1.84,5.04,0.65,0.56,0.48,-13,1,-16,0.86,9464,29,85,32,32,813,716.0,625,457,60,117.0,102,1,300,197,71,0,0,717,16118,-2830,690,45.701138,4.91031,68.2,197.2,3,1.6,0,0.0,0.13,4,0.13,6.2424
374563,1560692902659,3,2.17,2.54,3.02,1.84,5.07,0.7,0.69,0.46,-14,0,-15,0.99,9498,29,85,32,32,820,715.0,623,456,60,117.0,102,1,300,197,71,0,0,716,-2560,-26892,690,,,,,,,,,,,,
374583,1560692902679,3,2.19,2.54,3.02,1.83,5.05,0.79,0.62,0.53,-15,0,-16,1.01,9508,29,85,32,32,829,715.0,634,449,60,117.0,102,1,300,198,71,0,0,713,-13312,24,687,,,,,,,,,,,,
374603,1560692902699,-1,2.19,2.55,3.01,1.85,5.06,0.61,0.76,0.52,-15,1,-17,0.98,9508,29,85,32,32,836,713.0,634,455,60,118.0,103,1,300,198,71,0,0,714,-13312,14342,688,,,,,,,,,,,,
374623,1560692902719,2,2.19,2.55,3.01,1.84,5.06,0.71,0.83,0.53,-15,-0,-17,1.09,9512,29,85,32,32,842,710.0,633,451,60,117.0,103,1,300,198,71,0,0,713,-3888,24845,686,,,,,,,,,,,,
374643,1560692902739,4,2.18,2.54,2.98,1.83,5.03,0.82,0.68,0.53,-15,-0,-18,1.06,9474,29,85,32,33,850,709.0,642,443,60,117.0,103,1,302,199,71,0,0,709,-3888,6208,689,45.701141,4.910334,67.36,197.2,3,1.6,0,0.0,0.1317,4,0.13,6.2441
374663,1560692902759,1,2.19,2.53,3.01,1.83,5.04,0.61,0.82,0.47,-15,-2,-18,1.02,9464,29,85,32,33,860,711.0,635,430,60,118.0,103,1,302,199,71,0,0,705,-13072,12333,688,,,,,,,,,,,,
374683,1560692902779,2,2.2,2.52,3.01,1.83,5.07,0.63,0.94,0.37,-15,2,-17,1.13,9522,29,85,32,33,868,711.0,632,447,60,117.0,103,1,302,199,71,0,0,705,687,1780,685,,,,,,,,,,,,
374703,1560692902799,5,2.19,2.55,3.02,1.84,5.05,0.76,0.7,0.41,-15,-2,-19,1.04,9537,29,85,32,33,872,707.0,627,456,60,117.0,103,1,302,200,71,0,0,704,6658,6208,683,,,,,,,,,,,,
374723,1560692902819,1,2.19,2.55,3.02,1.83,5.05,0.53,0.83,0.35,-14,2,-19,0.99,9541,29,85,32,33,878,705.0,626,441,60,118.0,103,1,302,200,71,0,0,709,-20693,-10399,684,,,,,,,,,,,,
374743,1560692902839,1,2.2,2.54,3.02,1.84,5.05,0.68,0.95,0.36,-14,-1,-19,1.17,9517,29,85,32,33,887,705.0,631,420,60,117.0,103,1,302,201,71,0,0,702,-20693,-2826,682,45.701141,4.910358,66.81,197.3,3,1.6,0,0.0,0.1333,4,0.13,6.2457
374763,1560692902859,5,2.2,2.53,3.02,1.82,5.07,0.74,0.73,0.37,-14,-2,-18,1.04,9532,29,85,32,33,894,703.0,637,418,60,117.0,103,1,302,200,71,0,0,711,-20693,-2345,685,,,,,,,,,,,,
374783,1560692902879,2,2.19,2.53,3.02,1.82,5.04,0.61,0.86,0.31,-14,1,-19,1.05,9546,29,85,32,33,898,706.0,631,433,60,118.0,103,1,302,200,71,0,0,704,687,16599,683,,,,,,,,,,,,
374803,1560692902899,1,2.19,2.53,3.01,1.84,5.06,0.72,0.71,0.42,-14,-1,-16,1.01,9615,29,85,32,33,907,704.0,637,412,60,117.0,105,1,302,201,72,0,0,706,11069,-2830,683,,,,,,,,,,,,
374823,1560692902919,4,2.18,2.53,3.01,1.83,5.08,0.69,0.66,0.45,-14,1,-17,0.95,9615,29,85,32,33,921,700.0,635,416,60,118.0,105,1,302,202,72,0,0,701,19188,-2345,682,,,,,,,,,,,,
374843,1560692902939,2,2.16,2.53,3.0,1.82,5.08,0.74,0.79,0.54,-14,2,-17,1.08,9615,29,85,32,33,934,698.0,631,427,60,118.0,105,1,302,202,72,0,0,701,24,24,680,45.701141,4.910381,66.22,197.3,3,1.6,0,0.0,0.135,4,0.13,6.2474
374863,1560692902959,4,2.17,2.52,2.98,1.81,5.04,0.87,0.62,0.63,-15,0,-16,1.07,9561,29,85,32,33,943,703.0,641,416,60,118.0,105,1,302,201,72,0,0,708,11069,-10399,681,,,,,,,,,,,,
374883,1560692902979,-1,2.17,2.53,3.01,1.82,5.06,0.72,0.66,0.65,-15,2,-18,0.97,9551,29,85,32,33,954,704.0,637,416,60,118.0,105,1,302,201,72,0,0,703,11069,-26380,678,,,,,,,,,,,,
374903,1560692902994,2,2.17,2.54,3.01,1.81,5.05,0.76,0.69,0.63,-14,2,-18,1.02,9537,29,85,32,33,967,702.0,631,425,60,117.0,106,1,302,200,72,0,0,704,-3584,11576,681,,,,,,,,,,,,
374923,1560692903014,4,2.17,2.56,2.99,1.84,5.04,0.8,0.43,0.72,-15,2,-19,0.91,9474,29,85,32,33,977,704.0,632,435,60,117.0,106,1,302,199,72,0,0,703,19188,-10399,676,,,,,,,,,,,,
374943,1560692903034,-1,2.18,2.62,2.97,1.89,5.04,0.66,0.59,0.63,-14,2,-20,0.88,9422,29,85,32,33,981,698.0,626,435,60,118.0,106,1,302,198,72,0,0,704,24,24,674,45.701149,4.910404,66.04,197.3,3,1.6,0,0.0,0.1367,4,0.13,6.2491
374963,1560692903054,2,2.18,2.63,2.99,1.89,5.06,0.71,0.73,0.68,-14,3,-19,1.02,9393,29,85,32,34,985,698.0,625,400,60,118.0,106,1,305,200,72,0,0,697,6208,1780,672,,,,,,,,,,,,
374983,1560692903074,3,2.19,2.62,3.04,1.88,5.08,0.84,0.6,0.71,-15,-2,-19,1.03,9323,29,85,32,34,993,696.0,632,394,60,117.0,106,1,305,196,72,0,0,693,16599,3543,673,,,,,,,,,,,,
375003,1560692903092,4,2.19,2.61,3.08,1.86,5.04,0.73,0.43,0.63,-14,-1,-20,0.85,9323,29,85,32,34,1000,696.0,624,407,60,118.0,103,1,305,199,70,0,0,696,24,-10344,677,,,,,,,,,,,,
375023,1560692903112,1,2.19,2.61,3.11,1.83,5.07,0.55,0.56,0.57,-13,0,-21,0.78,9323,29,85,32,34,1003,700.0,633,433,60,118.0,103,1,305,199,70,0,0,702,24,6208,675,,,,,,,,,,,,
375043,1560692903132,2,2.19,2.59,3.12,1.83,5.03,0.54,0.7,0.61,-14,1,-20,0.88,9309,29,85,32,34,1008,701.0,628,426,60,118.0,103,1,305,199,70,0,0,695,19188,14342,677,45.701153,4.910427,65.46,197.2,3,1.6,0,0.0,0.1383,4,0.14,6.2507
375063,1560692903152,2,2.18,2.57,3.1,1.81,5.08,0.69,0.76,0.58,-14,-0,-20,1.02,9305,29,85,32,34,1015,700.0,626,412,60,117.0,103,1,305,199,70,0,0,701,19188,-26562,678,,,,,,,,,,,,
375083,1560692903172,2,2.17,2.58,3.05,1.81,5.04,0.71,0.59,0.56,-14,1,-19,0.93,9328,29,85,32,34,1022,701.0,635,422,60,118.0,103,1,305,199,70,0,0,698,19188,-26562,673,,,,,,,,,,,,
375103,1560692903198,2,2.15,2.58,2.94,1.81,5.04,0.62,0.55,0.55,-14,2,-21,0.83,9328,29,85,32,34,1025,700.0,643,394,60,118.0,103,1,305,199,70,0,0,699,-2830,16599,675,,,,,,,,,,,,
375123,1560692903218,1,2.15,2.59,2.88,1.82,5.04,0.52,0.69,0.47,-14,5,-21,0.87,9309,29,85,32,34,1029,700.0,625,423,60,118.0,103,1,305,199,70,0,0,697,6208,-26562,669,,,,,,,,,,,,
375143,1560692903238,0,2.14,2.59,2.87,1.8,5.07,0.65,0.83,0.5,-14,3,-21,1.05,9272,29,85,32,34,1034,698.0,623,422,60,117.0,103,1,305,199,70,0,0,698,24,-388,670,45.70116,4.910449,65.21,197.2,3,1.6,0,0.0,0.14,4,0.14,6.2524
375163,1560692903258,-1,2.15,2.58,2.87,1.78,5.04,0.79,0.86,0.54,-16,1,-21,1.17,9254,29,85,32,34,1039,694.0,633,410,60,117.0,103,1,305,199,70,0,0,695,-10448,8958,671,,,,,,,,,,,,
375183,1560692903278,2,2.15,2.59,2.89,1.75,5.07,0.84,0.7,0.56,-16,-1,-21,1.09,9241,29,85,32,34,1042,695.0,622,406,60,117.0,103,1,305,199,70,0,0,695,-10448,-3038,671,,,,,,,,,,,,
375203,1560692903298,5,2.15,2.59,2.92,1.75,5.04,0.84,0.56,0.5,-16,1,-23,1.01,9245,29,85,32,34,1044,696.0,635,405,60,117.0,104,1,305,198,70,0,0,695,16599,8958,668,,,,,,,,,,,,
375223,1560692903318,3,2.16,2.59,2.99,1.76,5.05,0.69,0.68,0.43,-16,-0,-23,0.97,9254,29,85,32,34,1053,698.0,625,408,60,118.0,104,1,305,199,70,0,0,700,16599,-3038,665,,,,,,,,,,,,
375243,1560692903338,-0,2.16,2.59,2.98,1.77,5.07,0.67,0.81,0.31,-16,2,-23,1.05,9268,29,85,32,35,1063,696.0,632,410,60,118.0,104,1,308,202,70,0,0,699,6208,31988,665,45.701164,4.91047,64.52,197.2,3,1.6,0,0.0,0.1417,4,0.14,6.254
375263,1560692903358,0,2.15,2.62,2.98,1.8,5.07,0.68,0.93,0.41,-17,0,-22,1.16,9282,29,85,32,34,1070,696.0,630,418,60,117.0,104,1,305,199,70,0,0,696,16599,-2830,660,,,,,,,,,,,,
375283,1560692903378,1,2.15,2.67,2.97,1.84,5.05,0.81,0.88,0.47,-16,0,-21,1.2,9268,29,85,32,34,1077,689.0,622,400,60,117.0,104,1,305,198,70,0,0,696,-2830,8958,662,,,,,,,,,,,,
375303,1560692903398,4,2.13,2.69,2.97,1.82,5.04,0.85,0.73,0.52,-17,-2,-22,1.12,9241,30,85,32,34,1090,690.0,637,423,60,118.0,104,1,305,198,69,0,0,687,-2830,-26380,658,,,,,,,,,,,,
375323,1560692903418,2,2.14,2.67,2.98,1.78,5.07,0.8,0.64,0.47,-16,-0,-24,1.02,9231,30,85,32,34,1102,688.0,621,429,60,118.0,104,1,305,198,69,0,0,689,24,-2345,660,,,,,,,,,,,,
375343,1560692903438,3,2.15,2.65,3.02,1.74,5.06,0.72,0.67,0.44,-17,2,-25,0.98,9231,30,85,32,35,1110,692.0,631,434,60,118.0,104,1,308,201,69,0,0,687,12333,3543,662,45.701172,4.910491,64.57,197.1,3,1.6,0,0.0,0.1433,4,0.14,6.2557
375363,1560692903458,-0,2.16,2.64,3.02,1.71,5.04,0.61,0.8,0.35,-17,3,-27,1.01,9222,30,85,32,35,1115,695.0,621,415,60,118.0,104,1,308,201,69,0,0,695,-10448,3543,662,,,,,,,,,,,,
375383,1560692903478,1,2.16,2.65,3.01,1.71,5.04,0.66,0.92,0.36,-17,4,-27,1.14,9204,30,85,32,35,1122,695.0,627,422,60,118.0,104,1,308,201,69,0,0,693,-10448,31988,659,,,,,,,,,,,,
375403,1560692903498,3,2.17,2.65,2.96,1.7,5.07,0.72,1.01,0.51,-17,3,-28,1.24,9146,29,85,32,35,1129,695.0,623,422,60,117.0,106,1,308,200,70,0,0,696,14342,-10344,659,,,,,,,,,,,,
375423,1560692903518,4,2.18,2.65,2.91,1.72,5.04,0.85,1.07,0.54,-17,1,-28,1.37,9159,30,85,32,35,1131,688.0,627,444,60,118.0,106,1,308,200,70,0,0,689,-2830,8958,658,,,,,,,,,,,,
375443,1560692903538,3,2.17,2.66,2.9,1.74,5.05,0.95,0.96,0.62,-18,-1,-28,1.35,9115,30,85,32,35,1133,685.0,630,431,60,117.0,106,1,308,200,70,0,0,689,-10399,-2345,654,45.70118,4.910512,64.53,197.1,3,1.6,0,0.0,0.145,4,0.14,6.2574
375463,1560692903558,2,2.18,2.65,2.88,1.72,5.07,1.06,0.85,0.62,-18,-1,-28,1.36,9093,30,85,32,35,1136,687.0,633,426,60,117.0,106,1,308,199,70,0,0,691,16599,-10348,656,,,,,,,,,,,,
375483,1560692903578,3,2.17,2.64,2.89,1.72,5.07,1.09,0.69,0.68,-17,-3,-27,1.29,9084,30,85,32,35,1140,683.0,633,438,60,117.0,106,1,308,199,70,0,0,683,3543,31988,656,,,,,,,,,,,,
375503,1560692903598,3,2.18,2.64,2.92,1.71,5.05,1.13,0.59,0.59,-17,-2,-28,1.27,9031,30,85,32,35,1144,683.0,635,445,60,118.0,103,1,308,198,68,0,0,679,3543,-6006,658,,,,,,,,,,,,
375523,1560692903618,2,2.18,2.64,2.99,1.7,5.04,1.09,0.51,0.52,-17,-2,-29,1.21,8988,30,85,32,35,1147,684.0,637,453,60,117.0,103,1,308,198,68,0,0,683,24845,8958,657,,,,,,,,,,,,
375543,1560692903638,4,2.18,2.62,2.99,1.71,5.07,1.11,0.4,0.49,-16,-1,-30,1.18,8928,30,85,32,35,1156,683.0,618,437,60,118.0,103,1,308,198,68,0,0,682,3543,-3488,656,45.701187,4.910531,63.79,197.1,3,1.6,0,0.0,0.1467,4,0.14,6.259
375563,1560692903658,3,2.19,2.6,3.01,1.71,5.08,1.13,0.29,0.49,-16,-2,-30,1.17,8861,30,85,32,35,1169,685.0,616,454,60,117.0,103,1,308,198,68,0,0,680,3543,8958,655,,,,,,,,,,,,
375583,1560692903678,5,2.19,2.6,2.99,1.72,5.04,1.15,0.17,0.53,-16,-2,-30,1.17,8802,30,85,32,35,1180,680.0,615,455,60,117.0,103,1,308,198,68,0,0,685,16118,2024,656,,,,,,,,,,,,
375603,1560692903696,5,2.2,2.59,2.98,1.72,5.07,1.24,0.15,0.59,-16,-1,-29,1.25,8798,30,85,32,36,1190,681.0,615,452,60,117.0,102,1,311,202,67,0,0,673,16118,479,651,,,,,,,,,,,,
375623,1560692903716,5,2.21,2.56,2.95,1.72,5.07,1.27,0.27,0.63,-15,-2,-27,1.3,8836,30,85,32,36,1205,677.0,607,456,60,118.0,102,1,311,202,67,0,0,679,-2826,-3488,653,,,,,,,,,,,,
375643,1560692903736,6,2.21,2.55,2.94,1.72,5.07,1.22,0.39,0.67,-15,-3,-25,1.28,8827,29,85,32,36,1227,674.0,618,449,60,118.0,102,1,311,202,67,0,0,665,-3038,24583,652,45.701199,4.91055,63.84,197.1,3,1.6,0,0.0,0.1483,4,0.15,6.2607
375663,1560692903756,12,2.22,2.53,2.95,1.73,5.06,1.1,0.55,0.48,-14,-2,-24,1.23,8823,29,85,32,36,1244,666.0,611,453,60,118.0,102,1,311,202,67,0,0,665,1549,11776,646,,,,,,,,,,,,
375683,1560692903776,13,2.21,2.5,3.0,1.73,5.04,1.03,0.58,0.44,-13,-1,-24,1.18,8852,29,85,32,35,1256,658.0,621,455,60,118.0,102,1,308,202,67,0,0,667,-3038,-2580,646,,,,,,,,,,,,
375703,1560692903800,12,2.22,2.48,3.06,1.74,5.07,1.03,0.57,0.34,-13,-2,-25,1.18,8848,29,85,32,36,1270,657.0,610,450,60,118.0,102,1,311,202,66,0,0,656,8958,-2836,643,,,,,,,,,,,,
375723,1560692903820,12,2.22,2.45,3.1,1.73,5.07,1.02,0.45,0.35,-12,-1,-25,1.12,8877,29,85,32,36,1287,655.0,617,455,60,118.0,102,1,311,202,66,0,0,654,31988,16599,643,,,,,,,,,,,,
375743,1560692903840,15,2.22,2.42,3.16,1.73,5.07,1.08,0.25,0.41,-12,-2,-26,1.11,8873,29,85,32,36,1301,654.0,621,450,60,117.0,102,1,311,202,66,0,0,651,-2830,269,636,45.701206,4.910568,63.37,197.0,3,1.6,0,0.0,0.15,4,0.15,6.2624
375763,1560692903860,13,2.22,2.41,3.19,1.73,5.05,1.15,0.14,0.38,-12,-1,-25,1.16,8886,29,85,32,36,1307,648.0,613,455,60,118.0,102,1,311,202,66,0,0,644,479,17336,634,,,,,,,,,,,,
375783,1560692903880,15,2.22,2.38,3.22,1.73,5.04,1.24,0.04,0.47,-12,-3,-24,1.24,8877,29,85,32,35,1308,645.0,602,458,60,118.0,102,1,308,198,66,0,0,641,11566,3403,630,,,,,,,,,,,,
375803,1560692903899,16,2.21,2.37,3.22,1.71,5.05,1.32,0.1,0.46,-11,-2,-23,1.32,8928,29,85,32,35,1299,641.0,608,456,60,117.0,108,1,308,198,68,0,0,641,-3584,-28304,625,,,,,,,,,,,,
375823,1560692903919,16,2.22,2.34,3.2,1.71,5.07,1.37,0.15,0.52,-11,-3,-21,1.37,8861,29,85,32,36,1289,639.0,615,453,60,117.0,108,1,311,202,68,0,0,635,6208,16529,622,,,,,,,,,,,,
375843,1560692903939,15,2.22,2.32,3.2,1.7,5.07,1.29,0.34,0.46,-11,-3,-19,1.33,8819,29,85,32,36,1275,636.0,605,453,60,118.0,108,1,311,202,68,0,0,639,-5120,-18357,618,45.701218,4.910585,62.27,197.0,3,1.6,0,0.0,0.1517,4,0.15,6.264
375863,1560692903959,15,2.21,2.32,3.16,1.74,5.04,1.18,0.5,0.29,-11,-1,-16,1.28,8593,28,85,32,35,1259,628.0,595,458,60,118.0,108,1,308,202,68,0,0,633,-16046,-10251,614,,,,,,,,,,,,
375883,1560692903979,15,2.21,2.32,3.13,1.73,5.04,1.2,0.47,0.29,-10,-1,-16,1.29,8363,28,85,32,36,1240,626.0,603,452,60,119.0,108,1,308,199,68,0,0,626,506,-14655,608,,,,,,,,,,,,
375903,1560692903993,14,2.21,2.31,3.13,1.72,5.05,1.18,0.59,0.17,-10,-2,-14,1.32,8109,28,85,32,37,1221,622.0,583,459,60,119.0,101,1,306,199,62,0,0,628,17336,1010,608,,,,,,,,,,,,
375923,1560692904013,16,2.19,2.29,3.13,1.72,5.07,1.25,0.46,0.2,-10,-2,-14,1.33,7868,28,85,32,38,1216,618.0,571,451,60,119.0,101,1,307,203,62,0,0,613,269,243,606,,,,,,,,,,,,
375943,1560692904033,17,2.19,2.28,3.15,1.71,5.04,1.32,0.38,0.3,-10,-2,-13,1.38,7649,28,85,32,39,1211,615.0,575,454,60,118.0,101,1,310,209,62,0,0,610,26688,6273,599,45.701225,4.910601,61.86,197.0,3,1.6,0,0.0,0.1533,4,0.15,6.2657
375963,1560692904053,18,2.19,2.28,3.22,1.71,5.04,1.32,0.32,0.35,-10,-3,-14,1.36,7488,29,85,32,40,1208,608.0,547,458,60,118.0,101,1,317,209,62,0,0,605,-23055,243,594,,,,,,,,,,,,
375983,1560692904073,19,2.19,2.25,3.27,1.7,5.03,1.39,0.13,0.37,-11,-7,-15,1.4,7335,28,85,32,41,1205,603.0,553,456,60,116.0,101,1,325,211,62,0,0,580,-7939,-9072,588,,,,,,,,,,,,
376003,1560692904099,23,2.2,2.23,3.33,1.68,5.04,1.45,-0.07,0.47,-11,-13,-13,1.46,7211,28,85,32,43,1208,598.0,519,458,60,116.0,162,1,340,329,95,0,0,499,4956,-3267,582,,,,,,,,,,,,
376023,1560692904119,22,2.2,2.2,3.39,1.66,5.04,1.31,-0.04,0.38,-10,-8,-12,1.31,7551,28,85,32,43,1208,596.0,538,453,60,117.0,162,1,340,303,95,0,0,506,17344,-3314,578,,,,,,,,,,,,
376043,1560692904139,19,2.19,2.19,3.42,1.66,5.06,1.38,-0.02,0.47,-11,-9,-12,1.38,7951,28,85,32,43,1254,591.0,547,455,60,116.0,162,1,340,277,95,0,0,442,6273,-3866,567,45.701241,4.910616,60.44,197.0,3,1.6,0,0.0,0.155,4,0.15,6.2674
376063,1560692904159,22,2.19,2.19,3.42,1.67,5.04,1.29,0.11,0.39,-12,-11,-12,1.29,8113,28,85,32,43,1300,585.0,557,457,60,118.0,162,1,341,251,95,0,0,419,-16384,-32559,563,,,,,,,,,,,,
376083,1560692904179,19,2.2,2.19,3.41,1.67,5.07,1.36,0.09,0.28,-13,-10,-14,1.37,8245,28,85,32,42,1344,579.0,558,457,60,117.0,162,1,335,221,95,0,0,441,243,-32559,551,,,,,,,,,,,,
376103,1560692904199,20,2.2,2.2,3.36,1.68,5.06,1.41,0.22,0.22,-14,-9,-15,1.42,8370,28,85,32,42,1387,570.0,574,458,60,118.0,123,1,336,217,68,0,0,498,-29984,3346,543,,,,,,,,,,,,
376123,1560692904219,21,2.2,2.19,3.29,1.65,5.05,1.45,0.15,0.23,-15,-8,-17,1.46,8468,28,85,32,41,1433,567.0,589,452,60,118.0,123,1,331,215,68,0,0,554,1780,8841,535,,,,,,,,,,,,
376143,1560692904239,19,2.2,2.21,3.25,1.6,5.06,1.33,0.3,0.29,-16,-9,-17,1.37,8514,28,85,32,40,1480,563.0,588,452,60,117.0,123,1,326,214,68,0,0,555,2211,3327,527,45.701248,4.91063,58.43,197.0,3,1.6,0,0.0,0.1567,4,0.15,6.2691
376163,1560692904259,24,2.19,2.21,3.23,1.54,5.06,1.3,0.46,0.23,-17,-8,-17,1.38,8585,28,85,32,40,1493,561.0,610,461,60,118.0,123,1,326,214,68,0,0,554,-32504,-29696,524,,,,,,,,,,,,
376183,1560692904279,21,2.21,2.21,3.22,1.53,5.05,1.37,0.43,0.22,-16,-6,-19,1.43,8585,28,85,32,39,1494,553.0,618,455,60,117.0,123,1,320,213,68,0,0,553,-9072,120,518,,,,,,,,,,,,
376203,1560692904299,18,2.19,2.26,3.23,1.55,5.04,1.33,0.44,0.15,-16,-5,-18,1.4,8472,28,85,32,39,1433,547.0,613,456,60,117.0,134,1,318,212,69,0,0,548,-22519,2278,512,,,,,,,,,,,,
376223,1560692904319,22,2.19,2.27,3.23,1.55,5.04,1.33,0.55,0.07,-16,-5,-18,1.44,8396,28,85,32,38,1351,542.0,595,457,60,118.0,134,1,314,212,69,0,0,537,-3082,15649,509,,,,,,,,,,,,
376243,1560692904339,19,2.2,2.26,3.22,1.54,5.07,1.33,0.55,0.14,-17,-3,-19,1.44,8468,28,85,32,39,1268,537.0,611,455,60,117.0,134,1,319,212,69,0,0,528,-30064,2131,506,45.70126,4.910643,55.73,197.0,3,1.6,0,0.0,0.1583,4,0.16,6.2707
376263,1560692904359,19,2.2,2.27,3.23,1.55,5.05,1.22,0.63,0.15,-16,-5,-18,1.37,8503,28,85,32,38,1185,528.0,585,460,60,118.0,134,1,317,209,69,0,0,523,-28648,3635,498,,,,,,,,,,,,
376283,1560692904379,20,2.2,2.27,3.23,1.54,5.04,1.22,0.73,0.04,-15,-5,-18,1.42,8569,28,85,32,38,1113,521.0,597,461,60,118.0,134,1,317,209,69,0,0,520,-9212,-3968,490,,,,,,,,,,,,
376303,1560692904399,21,2.21,2.27,3.27,1.55,5.08,1.24,0.63,0.04,-15,-4,-20,1.39,8644,28,85,32,38,1044,518.0,601,459,60,118.0,140,1,317,209,68,0,0,510,16383,8200,486,,,,,,,,,,,,
376323,1560692904419,21,2.2,2.24,3.33,1.54,5.08,1.32,0.5,0.01,-15,-4,-21,1.41,8684,28,85,32,38,1019,512.0,605,454,60,117.0,140,1,317,209,68,0,0,501,26178,-1246,488,,,,,,,,,,,,
376343,1560692904439,20,2.2,2.24,3.33,1.53,5.06,1.34,0.51,-0.05,-14,-4,-19,1.44,8737,28,85,32,37,1034,508.0,597,457,60,117.0,140,1,314,205,68,0,0,502,-3414,230,485,45.701267,4.910656,53.57,197.0,3,1.6,0,0.0,0.16,4,0.16,6.2724
376363,1560692904459,23,2.2,2.24,3.31,1.54,5.04,1.27,0.62,-0.03,-14,-4,-18,1.41,8612,28,85,32,37,1046,503.0,592,458,60,118.0,140,1,314,205,68,0,0,492,2109,2131,478,,,,,,,,,,,,
376383,1560692904479,22,2.2,2.24,3.31,1.54,5.08,1.28,0.58,-0.0,-14,-3,-18,1.41,8581,28,85,32,37,1057,495.0,601,455,60,118.0,140,1,314,205,68,0,0,489,771,8488,473,,,,,,,,,,,,
376403,1560692904500,20,2.2,2.23,3.32,1.53,5.06,1.33,0.43,0.03,-13,-4,-19,1.4,8604,27,85,32,37,1059,491.0,609,458,60,117.0,139,1,314,205,66,0,0,485,248,30272,466,,,,,,,,,,,,
376423,1560692904520,20,2.2,2.22,3.33,1.53,5.07,1.26,0.47,-0.02,-12,-3,-19,1.35,8612,27,85,33,37,1054,488.0,609,461,60,118.0,139,1,314,205,66,0,0,474,-6441,2131,465,,,,,,,,,,,,
376443,1560692904540,24,2.2,2.21,3.35,1.54,5.08,1.23,0.52,-0.06,-12,-3,-18,1.33,8640,27,85,33,36,1050,482.0,601,460,60,118.0,139,1,311,205,66,0,0,467,-899,2131,463,45.701279,4.910666,51.31,197.0,3,1.6,0,0.0,0.1617,4,0.16,6.274
376463,1560692904560,24,2.2,2.19,3.36,1.54,5.08,1.31,0.38,-0.05,-12,-2,-18,1.36,8684,27,85,33,37,1048,476.0,610,461,60,118.0,139,1,314,205,66,0,0,460,-23367,-7939,455,,,,,,,,,,,,
376483,1560692904580,24,2.2,2.2,3.35,1.53,5.06,1.36,0.24,-0.01,-12,-2,-17,1.38,8692,27,85,33,36,1048,470.0,614,451,60,118.0,139,1,311,202,66,0,0,458,-16384,2131,450,,,,,,,,,,,,
376503,1560692904599,22,2.2,2.19,3.34,1.54,5.08,1.42,0.2,-0.08,-12,-3,-16,1.44,8604,27,85,32,36,1051,463.0,606,455,60,117.0,146,1,311,202,66,0,0,460,6193,3571,443,,,,,,,,,,,,
376523,1560692904619,26,2.19,2.2,3.31,1.56,5.06,1.24,0.34,-0.09,-11,-0,-15,1.29,8549,27,85,32,36,1055,459.0,598,458,60,118.0,146,1,311,205,66,0,0,457,-26615,-23623,439,,,,,,,,,,,,
376543,1560692904639,21,2.2,2.2,3.29,1.56,5.05,1.23,0.28,-0.06,-11,-0,-15,1.26,8419,27,85,32,37,1061,454.0,591,453,60,118.0,146,1,312,204,66,0,0,452,2524,3571,435,45.70129,4.910676,48.6,197.0,3,1.6,0,0.0,0.1633,4,0.16,6.2757
376563,1560692904659,20,2.2,2.19,3.28,1.58,5.06,1.25,0.3,-0.06,-10,1,-15,1.29,8314,27,85,32,37,1066,447.0,579,455,60,117.0,146,1,310,202,66,0,0,444,10305,26704,431,,,,,,,,,,,,
376583,1560692904679,24,2.21,2.19,3.3,1.58,5.07,1.2,0.27,0.05,-9,1,-15,1.23,8180,27,85,32,38,1069,442.0,583,453,60,117.0,146,1,310,205,66,0,0,441,23400,-28332,428,,,,,,,,,,,,
376603,1560692904699,26,2.21,2.18,3.3,1.58,5.05,1.21,0.29,0.06,-9,1,-14,1.24,8109,27,85,32,38,1072,440.0,564,457,60,118.0,147,1,309,204,63,0,0,429,19477,1779,426,,,,,,,,,,,,
376623,1560692904719,23,2.21,2.17,3.32,1.61,5.03,1.21,0.16,0.14,-9,1,-14,1.22,8009,27,85,33,39,1076,431.0,571,451,60,117.0,147,1,310,210,63,0,0,425,1779,3635,422,,,,,,,,,,,,
376643,1560692904739,23,2.23,2.18,3.34,1.66,5.07,1.16,0.19,0.01,-8,2,-13,1.18,7894,27,85,33,40,1080,424.0,568,455,60,117.0,147,1,317,210,63,0,0,421,-4082,13180,414,45.701302,4.910684,46.22,197.0,3,1.6,0,0.0,0.165,4,0.16,6.2774
376663,1560692904759,24,2.24,2.17,3.37,1.66,5.05,1.14,0.27,-0.08,-7,1,-13,1.18,7851,27,85,33,40,1081,419.0,556,453,60,118.0,147,1,317,210,63,0,0,422,-21944,-3414,411,,,,,,,,,,,,
376683,1560692904779,24,2.25,2.17,3.37,1.67,5.05,1.05,0.23,-0.1,-6,2,-12,1.07,7747,28,85,33,41,1082,415.0,555,450,60,118.0,147,1,325,212,63,0,0,413,-26615,-26615,406,,,,,,,,,,,,
376703,1560692904799,23,2.25,2.15,3.4,1.66,5.07,1.01,0.15,-0.05,-5,2,-11,1.02,7706,28,85,33,42,1079,411.0,552,453,60,118.0,152,1,332,214,62,0,0,404,-4059,1504,406,,,,,,,,,,,,
376723,1560692904819,22,2.26,2.13,3.42,1.67,5.04,1.04,0.04,0.07,-5,1,-11,1.04,7575,28,85,33,43,1075,408.0,544,456,60,117.0,152,1,340,216,62,0,0,404,10392,9517,401,,,,,,,,,,,,
376743,1560692904839,22,2.28,2.13,3.42,1.66,5.04,1.08,-0.01,0.12,-5,1,-11,1.08,7458,28,85,33,44,1071,404.0,534,455,60,117.0,152,1,347,217,62,0,0,399,1504,6512,399,45.701309,4.910692,44.05,197.0,3,1.6,0,0.0,0.1667,4,0.16,6.279
376763,1560692904859,24,2.29,2.1,3.45,1.66,5.04,0.99,-0.06,0.14,-4,1,-11,0.99,7393,27,85,33,44,1062,400.0,515,450,60,118.0,152,1,347,217,62,0,0,393,6512,6384,397,,,,,,,,,,,,
376783,1560692904879,23,2.29,2.08,3.48,1.66,5.04,0.91,-0.05,0.06,-3,2,-10,0.91,7332,27,85,33,45,1037,394.0,517,456,60,117.0,152,1,355,219,62,0,0,389,-1818,1,392,,,,,,,,,,,,
376803,1560692904898,23,2.31,2.08,3.47,1.71,5.07,0.94,-0.08,-0.01,-2,2,-9,0.95,7228,28,85,33,46,1013,390.0,505,452,60,117.0,155,1,362,221,61,0,0,388,-6524,505,390,,,,,,,,,,,,
376823,1560692904918,22,2.31,2.08,3.47,1.72,5.05,0.97,-0.06,-0.09,-1,3,-7,0.97,7181,28,85,33,47,994,385.0,505,455,60,118.0,155,1,370,221,61,0,0,384,-19126,1,385,,,,,,,,,,,,
376843,1560692904938,17,2.34,2.07,3.46,1.73,5.06,1.07,-0.08,0.08,-1,3,-6,1.08,7078,27,85,33,47,974,382.0,511,455,60,117.0,155,1,370,223,61,0,0,379,3,-992,382,45.701321,4.910699,41.52,197.0,3,1.6,0,0.0,0.1683,4,0.16,6.2807
376863,1560692904958,20,2.37,2.05,3.47,1.74,5.06,0.99,-0.11,0.07,0,2,-6,1.0,7019,27,85,33,48,954,380.0,500,459,60,117.0,155,1,372,228,61,0,0,375,1,-6656,380,,,,,,,,,,,,
376883,1560692904978,19,2.39,2.02,3.48,1.78,5.04,0.95,-0.14,-0.01,2,3,-5,0.96,6980,28,85,33,48,933,379.0,498,452,60,118.0,155,1,371,232,61,0,0,370,0,770,379,,,,,,,,,,,,
376903,1560692904992,17,2.43,1.99,3.48,1.82,5.08,0.93,-0.19,0.06,3,3,-3,0.95,6870,27,85,33,49,933,375.0,488,452,60,118.0,161,1,374,237,61,0,0,363,-14707,257,375,,,,,,,,,,,,
376923,1560692905012,18,2.45,1.93,3.5,1.84,5.08,0.99,-0.26,0.05,5,1,-0,1.03,6833,27,85,33,50,932,374.0,485,454,60,117.0,161,1,376,237,61,0,0,358,2060,0,374,,,,,,,,,,,,
376943,1560692905032,16,2.46,1.89,3.52,1.89,5.04,0.98,-0.3,0.13,7,3,2,1.03,6773,27,85,33,51,946,374.0,491,451,60,118.0,161,1,379,242,61,0,0,356,8841,-6656,374,45.701324,4.910705,39.08,197.0,3,1.6,0,0.0,0.17,4,0.17,6.2824
376963,1560692905052,16,2.49,1.87,3.53,1.94,5.05,1.06,-0.36,0.1,7,1,4,1.12,6715,27,85,33,51,960,371.0,477,446,60,118.0,161,1,379,242,61,0,0,350,-122,0,371,,,,,,,,,,,,
376983,1560692905072,14,2.5,1.86,3.55,1.97,5.04,0.99,-0.34,0.14,10,2,6,1.05,6606,27,85,33,52,974,369.0,481,455,60,118.0,161,1,381,247,61,0,0,347,13,-1268,367,,,,,,,,,,,,
377003,1560692905098,14,2.52,1.87,3.57,2.0,5.04,0.92,-0.31,0.05,11,3,8,0.97,6528,27,85,33,53,987,364.0,467,455,60,118.0,168,1,383,252,62,0,0,342,170,-6640,364,,,,,,,,,,,,
377023,1560692905118,16,2.56,1.85,3.58,2.02,5.06,1.0,-0.42,0.14,13,1,9,1.08,6410,27,85,33,54,1011,361.0,461,457,60,118.0,168,1,386,258,62,0,0,336,-22016,2060,361,,,,,,,,,,,,
377043,1560692905138,17,2.58,1.84,3.63,2.03,5.07,1.03,-0.55,0.26,14,-0,10,1.17,6325,27,85,33,54,1036,360.0,461,455,60,117.0,168,1,385,258,62,0,0,331,150,-6644,360,45.701336,4.910711,36.58,197.0,3,1.6,0,0.0,0.1717,4,0.17,6.284
377063,1560692905158,16,2.61,1.81,3.66,2.08,5.07,1.01,-0.52,0.19,16,-0,11,1.14,6273,27,85,33,55,1049,357.0,456,451,60,118.0,168,1,386,258,62,0,0,322,30720,-1246,356,,,,,,,,,,,,
377083,1560692905178,13,2.64,1.78,3.66,2.09,5.06,0.97,-0.52,0.13,18,2,14,1.1,6250,27,85,33,56,1060,353.0,440,456,60,118.0,168,1,386,258,62,0,0,312,30720,8841,353,,,,,,,,,,,,
377103,1560692905198,15,2.64,1.77,3.68,2.1,5.04,1.07,-0.6,0.18,19,1,17,1.22,6204,27,85,33,56,1072,350.0,436,458,60,118.0,170,1,386,180,60,0,0,310,95,-1246,350,,,,,,,,,,,,
377123,1560692905218,16,2.64,1.75,3.68,2.12,5.04,1.12,-0.68,0.16,20,1,19,1.31,6157,27,85,33,57,1087,346.0,435,457,60,119.0,170,1,385,257,60,0,0,309,0,-31206,346,,,,,,,,,,,,
377143,1560692905238,16,2.64,1.75,3.68,2.12,5.04,1.17,-0.73,0.24,21,-0,22,1.38,6075,27,85,33,58,1095,344.0,428,460,60,118.0,170,1,384,255,60,0,0,308,20480,3327,344,45.70134,4.910718,34.68,197.0,3,1.6,0,0.0,0.1733,4,0.17,6.2857
377163,1560692905258,15,2.63,1.75,3.69,2.12,5.07,1.24,-0.79,0.31,22,-2,24,1.47,5998,27,85,33,58,1099,340.0,422,462,60,117.0,170,1,382,253,60,0,0,307,1886,-122,340,,,,,,,,,,,,
377183,1560692905278,15,2.63,1.75,3.69,2.12,5.06,1.32,-0.83,0.35,22,-4,26,1.56,5894,27,85,33,58,1109,339.0,416,458,60,119.0,170,1,373,253,60,0,0,306,0,13,336,,,,,,,,,,,,
377203,1560692905300,12,2.62,1.75,3.68,2.11,5.04,1.39,-0.88,0.32,22,-5,28,1.65,5815,27,85,33,59,1121,334.0,412,456,60,118.0,166,1,366,253,56,0,0,294,250,170,334,,,,,,,,,,,,
377223,1560692905320,16,2.63,1.75,3.68,2.12,5.06,1.45,-0.93,0.31,21,-4,29,1.73,5751,27,85,33,60,1131,329.0,405,455,60,119.0,166,1,360,253,56,0,0,288,30208,165,329,,,,,,,,,,,,
377243,1560692905340,17,2.6,1.75,3.68,2.11,5.06,1.43,-0.98,0.25,23,-1,29,1.74,5697,27,85,33,61,1138,326.0,408,458,60,118.0,166,1,355,255,56,0,0,290,-1534,150,326,45.701347,4.910724,32.65,197.0,3,1.6,0,0.0,0.175,4,0.17,6.2874
377263,1560692905360,13,2.59,1.75,3.65,2.1,5.06,1.31,-0.97,0.2,25,-2,29,1.63,5627,27,85,33,62,1148,322.0,354,456,60,117.0,166,1,347,264,56,0,0,284,250,145,322,,,,,,,,,,,,
377283,1560692905380,9,2.54,1.76,3.61,2.1,5.05,1.28,-0.93,0.22,25,-3,30,1.58,5516,27,85,33,64,1158,318.0,287,459,60,118.0,166,1,332,273,56,0,0,282,250,-29696,318,,,,,,,,,,,,
377303,1560692905398,11,2.5,1.81,3.57,2.1,5.04,1.34,-0.89,0.19,23,-2,30,1.61,5463,27,85,33,65,1163,315.0,261,449,60,118.0,182,1,326,289,58,0,0,282,-1527,-32256,315,,,,,,,,,,,,
377323,1560692905418,6,2.45,1.87,3.53,2.11,5.06,1.16,-0.84,0.12,24,-1,31,1.43,5426,27,85,33,66,1167,312.0,282,458,60,117.0,182,1,318,297,58,0,0,279,250,32000,312,,,,,,,,,,,,
377343,1560692905438,8,2.41,1.95,3.45,2.11,5.04,1.25,-0.75,0.13,23,-3,31,1.45,5375,27,85,33,67,1168,308.0,292,453,60,118.0,182,1,314,306,58,0,0,280,630,120,308,45.701355,4.910731,30.76,197.0,3,1.6,0,0.0,0.1767,4,0.17,6.2891
377363,1560692905458,1,2.35,2.04,3.38,2.11,5.07,1.12,-0.75,0.15,20,-0,30,1.35,5370,27,85,33,68,1166,304.0,268,458,60,117.0,182,1,311,314,58,0,0,284,24064,26880,304,,,,,,,,,,,,
377383,1560692905478,1,2.28,2.14,3.29,2.08,5.05,1.08,-0.58,0.25,20,-2,30,1.23,5397,27,85,33,69,1163,300.0,257,458,60,118.0,182,1,313,314,58,0,0,285,-1529,100,300,,,,,,,,,,,,
377403,1560692905500,4,2.23,2.22,3.2,2.06,5.05,1.18,-0.47,0.26,15,-1,29,1.27,5464,27,85,33,69,1157,297.0,275,455,60,118.0,221,1,318,323,66,0,0,290,41,90,295,,,,,,,,,,,,
377423,1560692905520,-1,2.17,2.28,3.13,2.04,5.06,0.97,-0.42,0.26,15,1,27,1.06,5535,27,85,33,69,1148,293.0,278,454,60,116.0,221,1,323,322,66,0,0,291,21760,21760,293,,,,,,,,,,,,
377443,1560692905540,-1,2.11,2.32,3.1,2.01,5.04,0.95,-0.23,0.38,12,-2,24,0.98,5613,27,85,33,68,1132,296.0,296,456,60,119.0,221,1,329,311,66,0,0,297,90,0,289,45.701359,4.910739,29.81,197.1,3,1.6,0,0.0,0.1783,4,0.17,6.2907
377463,1560692905560,1,2.04,2.37,3.05,1.99,5.05,1.02,-0.08,0.35,7,-2,23,1.02,5692,28,85,33,68,1116,299.0,310,455,60,119.0,221,1,335,311,66,0,0,299,25600,23040,286,,,,,,,,,,,,
377483,1560692905580,4,1.98,2.44,3.01,1.97,5.05,1.04,-0.09,0.41,4,-1,20,1.04,5719,28,85,33,67,1104,302.0,336,453,60,117.0,221,1,340,301,66,0,0,305,110,21760,284,,,,,,,,,,,,
377503,1560692905600,1,1.91,2.49,2.97,1.98,5.06,0.95,0.02,0.37,2,1,16,0.95,5718,28,85,33,67,1091,305.0,355,455,60,118.0,228,1,340,301,65,0,0,308,29440,105,284,,,,,,,,,,,,
377523,1560692905620,1,1.81,2.53,2.93,1.98,5.08,0.86,0.14,0.43,2,1,11,0.87,5683,28,85,33,67,1079,307.0,362,463,60,118.0,228,1,337,302,65,0,0,306,30720,29440,283,,,,,,,,,,,,
377543,1560692905640,-1,1.72,2.54,2.94,1.98,5.08,0.88,0.29,0.48,-1,-2,6,0.92,5683,28,85,33,66,1068,307.0,370,455,60,118.0,228,1,340,294,65,0,0,308,30720,-29696,281,45.701363,4.910747,28.52,197.2,3,1.6,0,0.0,0.18,4,0.17,6.2924
377563,1560692905660,0,1.63,2.54,2.96,1.99,5.04,0.93,0.27,0.5,-4,-3,1,0.97,5723,28,85,33,65,1065,307.0,380,448,60,119.0,228,1,346,293,65,0,0,311,30720,120,278,,,,,,,,,,,,
377583,1560692905680,4,1.54,2.53,2.99,1.96,5.04,0.96,0.22,0.46,-8,-2,-2,0.98,5785,28,85,33,65,1062,303.0,387,453,60,119.0,228,1,351,285,65,0,0,313,28160,115,277,,,,,,,,,,,,
377603,1560692905700,4,1.47,2.53,2.99,1.94,5.08,0.92,0.16,0.42,-10,-1,-6,0.94,5833,28,85,33,65,1059,306.0,400,456,60,118.0,225,1,354,284,62,0,0,312,115,-28416,274,,,,,,,,,,,,
377623,1560692905720,4,1.47,2.52,2.99,1.93,5.07,0.89,0.2,0.37,-11,-1,-8,0.91,5912,28,85,33,64,1055,305.0,406,456,60,117.0,225,1,364,275,62,0,0,313,29440,135,269,,,,,,,,,,,,
377643,1560692905740,3,1.48,2.51,2.99,1.92,5.07,0.84,0.38,0.32,-13,-1,-9,0.92,5944,28,85,33,64,1053,303.0,412,461,60,117.0,225,1,367,275,62,0,0,317,28160,130,265,45.70137,4.910754,28.46,197.2,3,1.6,0,0.0,0.1817,4,0.17,6.2941
377663,1560692905760,2,1.5,2.51,2.95,1.9,5.07,0.87,0.44,0.32,-15,-1,-11,0.97,5978,28,85,33,63,1050,306.0,418,456,60,118.0,225,1,373,266,62,0,0,317,115,125,270,,,,,,,,,,,,
377683,1560692905780,4,1.49,2.5,2.92,1.89,5.07,0.85,0.56,0.33,-17,-1,-13,1.02,5952,28,85,33,62,1045,309.0,421,455,60,118.0,225,1,373,266,62,0,0,320,32000,-6528,269,,,,,,,,,,,,
377703,1560692905800,2,1.48,2.51,2.92,1.89,5.05,0.86,0.64,0.37,-19,-1,-16,1.08,5980,28,85,33,62,1041,310.0,420,461,60,117.0,223,1,376,257,60,0,0,316,32000,-32559,266,,,,,,,,,,,,
377723,1560692905820,3,1.48,2.51,2.94,1.87,5.06,0.84,0.7,0.41,-20,-1,-20,1.1,6040,28,85,33,62,1039,309.0,422,455,60,117.0,223,1,379,258,60,0,0,319,32000,140,266,,,,,,,,,,,,
377743,1560692905840,8,1.48,2.51,2.96,1.87,5.06,0.84,0.73,0.45,-22,-2,-22,1.11,6052,28,85,33,61,1035,307.0,426,458,60,117.0,223,1,383,250,60,0,0,323,30720,125,262,45.701374,4.910761,28.28,197.2,3,1.6,0,0.0,0.1833,4,0.17,6.2957
377763,1560692905860,11,1.47,2.51,2.96,1.87,5.04,0.86,0.76,0.45,-24,-3,-26,1.15,5973,28,85,33,61,1033,307.0,423,455,60,118.0,223,1,378,249,60,0,0,322,115,155,257,,,,,,,,,,,,
377783,1560692905880,13,1.48,2.5,2.97,1.86,5.08,0.83,0.79,0.42,-25,-4,-27,1.15,5888,28,85,33,61,1031,302.0,423,453,60,118.0,223,1,371,251,60,0,0,321,105,-12032,243,,,,,,,,,,,,
377803,1560692905899,14,1.48,2.5,3.01,1.85,5.07,0.85,0.88,0.36,-25,-2,-27,1.22,5861,28,85,33,61,1032,296.0,420,456,60,117.0,230,1,369,251,56,0,0,315,90,125,236,,,,,,,,,,,,
377823,1560692905919,12,1.51,2.48,3.06,1.82,5.08,0.88,0.99,0.39,-26,-2,-27,1.32,5832,28,85,33,62,1033,290.0,416,456,60,117.0,230,1,363,259,56,0,0,314,0,90,229,,,,,,,,,,,,
377843,1560692905939,11,1.58,2.47,3.06,1.79,5.04,0.93,1.03,0.39,-28,-2,-28,1.39,5776,28,85,33,62,1046,292.0,414,458,60,117.0,230,1,359,261,56,0,0,310,80,-28416,227,45.701378,4.910768,28.13,197.2,3,1.6,0,0.0,0.185,4,0.17,6.2974
377863,1560692905959,12,1.66,2.47,3.07,1.76,5.07,1.04,0.98,0.35,-30,-1,-29,1.43,5718,27,85,33,62,1059,294.0,402,445,60,118.0,230,1,355,262,56,0,0,307,85,-23296,229,,,,,,,,,,,,
377883,1560692905979,16,1.79,2.46,3.08,1.75,5.04,1.13,0.93,0.25,-33,1,-32,1.46,5721,28,85,33,63,1070,295.0,404,445,60,118.0,230,1,352,270,56,0,0,304,23040,24320,231,,,,,,,,,,,,
377903,1560692905993,15,1.95,2.44,3.09,1.76,5.04,1.03,0.78,0.23,-34,4,-35,1.29,5711,28,85,33,63,1082,301.0,402,448,60,118.0,245,1,351,278,58,0,0,303,105,10686,244,,,,,,,,,,,,
377923,1560692906013,10,2.09,2.43,3.13,1.79,5.08,0.82,0.66,0.32,-30,5,-37,1.06,5610,28,85,33,64,1098,301.0,399,456,60,117.0,245,1,340,279,58,0,0,301,26880,115,251,,,,,,,,,,,,
377943,1560692906033,4,2.17,2.39,3.21,1.9,5.08,0.79,0.61,0.45,-25,3,-36,1.0,5524,28,85,33,65,1116,297.0,397,461,60,118.0,245,1,330,288,58,0,0,293,24320,250,256,45.701386,4.910773,27.95,197.3,3,1.6,0,0.0,0.1867,4,0.17,6.299
377963,1560692906053,4,2.21,2.36,3.22,2.09,5.07,0.81,0.59,0.47,-25,5,-34,1.0,5384,28,85,33,66,1122,289.0,385,442,60,118.0,245,1,317,298,58,0,0,292,-16896,250,267,,,,,,,,,,,,
377983,1560692906073,3,2.22,2.36,3.21,2.18,5.08,0.72,0.45,0.55,-21,6,-32,0.85,5275,28,85,33,68,1128,283.0,385,450,60,117.0,245,1,304,307,58,0,0,287,-1529,1886,275,,,,,,,,,,,,
378003,1560692906100,2,2.2,2.36,3.2,2.19,5.05,0.85,0.4,0.6,-22,3,-30,0.94,5070,28,85,33,69,1127,282.0,375,460,60,116.0,225,1,289,322,62,0,0,282,1886,1886,277,,,,,,,,,,,,
378023,1560692906120,4,2.18,2.35,3.19,2.21,5.04,0.77,0.38,0.6,-18,2,-27,0.86,4922,28,85,33,70,1124,281.0,359,452,60,118.0,225,1,286,324,62,0,0,280,24064,250,275,,,,,,,,,,,,
378043,1560692906140,1,2.15,2.36,3.2,2.2,5.05,0.74,0.38,0.53,-17,6,-26,0.83,4955,27,85,33,72,1118,282.0,362,463,60,117.0,225,1,284,335,62,0,0,280,1886,250,274,45.701393,4.910777,27.06,197.3,3,1.6,0,0.0,0.1883,4,0.17,6.3007
378063,1560692906160,0,2.15,2.35,3.2,2.15,5.07,0.87,0.38,0.59,-19,1,-24,0.94,5041,27,85,33,72,1109,283.0,359,444,60,118.0,225,1,285,338,62,0,0,282,-1529,-1,271,,,,,,,,,,,,
378083,1560692906180,6,2.18,2.35,3.21,2.12,5.08,0.79,0.4,0.57,-16,-2,-22,0.88,5108,27,85,33,73,1097,286.0,356,453,60,119.0,225,1,290,346,62,0,0,284,-16896,-1,270,,,,,,,,,,,,
378103,1560692906199,-0,2.23,2.35,3.23,2.1,5.06,0.75,0.33,0.55,-17,2,-23,0.82,5243,27,85,33,73,1082,285.0,362,452,60,117.0,248,1,299,353,67,0,0,281,-16896,-1,270,,,,,,,,,,,,
378123,1560692906219,1,2.27,2.33,3.25,2.1,5.05,0.77,0.34,0.56,-13,-2,-21,0.84,5380,27,85,33,73,1071,283.0,364,455,60,119.0,248,1,309,359,67,0,0,282,-1529,250,271,,,,,,,,,,,,
378143,1560692906239,3,2.28,2.31,3.24,2.11,5.07,0.8,0.24,0.59,-14,-2,-19,0.83,5493,27,85,33,72,1063,281.0,375,449,60,117.0,248,1,317,354,67,0,0,280,24064,30208,273,45.701401,4.910781,27.31,197.4,3,1.6,0,0.0,0.19,4,0.18,6.3024
378163,1560692906259,-1,2.3,2.31,3.22,2.12,5.05,0.65,0.16,0.64,-10,1,-18,0.68,5511,27,85,33,71,1053,278.0,378,457,60,118.0,248,1,319,343,67,0,0,284,630,250,278,,,,,,,,,,,,
378183,1560692906279,-0,2.29,2.32,3.22,2.16,5.04,0.63,0.2,0.7,-8,-1,-16,0.66,5503,27,85,33,70,1038,281.0,375,442,60,119.0,248,1,320,333,67,0,0,286,-1534,0,283,,,,,,,,,,,,
378203,1560692906299,2,2.28,2.35,3.16,2.17,5.04,0.66,0.12,0.7,-10,-1,-14,0.67,5460,27,85,33,70,1024,285.0,381,442,60,118.0,243,1,317,333,69,0,0,286,1886,25600,285,,,,,,,,,,,,
378223,1560692906319,-1,2.28,2.38,3.15,2.2,5.05,0.57,0.1,0.71,-7,-0,-13,0.58,5398,27,85,33,70,1017,286.0,388,457,60,117.0,243,1,312,332,69,0,0,288,250,21760,286,,,,,,,,,,,,
378243,1560692906339,1,2.28,2.38,3.15,2.18,5.05,0.7,0.15,0.69,-8,-3,-11,0.71,5328,27,85,33,70,1007,288.0,377,443,60,118.0,243,1,307,331,69,0,0,295,0,0,286,45.701405,4.910785,26.71,197.4,3,1.6,0,0.0,0.1917,4,0.18,6.304
378263,1560692906359,-0,2.28,2.41,3.15,2.18,5.05,0.54,0.08,0.65,-7,-0,-10,0.54,5302,27,85,33,70,998,289.0,382,450,60,117.0,243,1,305,339,69,0,0,294,0,23040,288,,,,,,,,,,,,
378283,1560692906379,4,2.32,2.41,3.19,2.19,5.05,0.69,0.21,0.65,-6,-2,-8,0.72,5310,27,86,33,70,989,291.0,370,443,60,118.0,243,1,305,330,69,0,0,294,20480,80,289,,,,,,,,,,,,
378303,1560692906399,1,2.33,2.4,3.27,2.17,5.06,0.55,0.11,0.67,-5,1,-8,0.56,5419,27,86,33,71,987,291.0,380,443,60,117.0,235,1,313,341,68,0,0,294,0,21760,290,,,,,,,,,,,,
378323,1560692906419,-0,2.35,2.37,3.31,2.17,5.08,0.59,0.12,0.72,-2,-3,-7,0.6,5517,27,86,33,71,984,292.0,382,452,60,118.0,235,1,320,344,68,0,0,293,0,90,292,,,,,,,,,,,,
378343,1560692906439,3,2.35,2.35,3.32,2.18,5.04,0.74,0.04,0.72,-3,-4,-6,0.74,5625,27,86,33,70,974,295.0,381,453,60,119.0,235,1,328,335,68,0,0,291,0,24320,295,45.701416,4.910789,27.73,197.5,3,1.6,0,0.0,0.1933,4,0.18,6.3057
378363,1560692906459,3,2.35,2.33,3.32,2.17,5.07,0.71,-0.03,0.66,-3,-1,-4,0.71,5728,27,86,33,69,964,298.0,391,452,60,118.0,235,1,336,323,68,0,0,297,0,26880,298,,,,,,,,,,,,
378383,1560692906479,3,2.32,2.34,3.3,2.18,5.07,0.58,-0.04,0.63,-1,2,-3,0.58,5801,29,86,33,68,958,299.0,399,451,60,117.0,235,1,343,323,68,0,0,298,20480,105,299,,,,,,,,,,,,
378403,1560692906499,2,2.31,2.34,3.27,2.18,5.08,0.47,-0.04,0.72,2,2,-3,0.47,5848,29,86,33,68,951,301.0,406,451,60,117.0,235,1,346,309,71,0,0,300,23040,120,301,,,,,,,,,,,,
378423,1560692906519,2,2.29,2.38,3.23,2.18,5.07,0.42,0.04,0.83,4,1,-2,0.42,5837,30,86,33,67,941,303.0,407,450,60,117.0,235,1,349,300,71,0,0,307,24320,30720,303,,,,,,,,,,,,
378443,1560692906539,-1,2.27,2.41,3.22,2.19,5.06,0.45,0.08,0.86,3,-1,-2,0.45,5810,30,86,32,67,931,304.0,404,455,60,118.0,235,1,346,300,71,0,0,310,105,-32256,304,45.70142,4.910792,28.1,197.5,3,1.6,0,0.0,0.195,4,0.18,6.3074
378463,1560692906559,0,2.24,2.45,3.16,2.18,5.08,0.55,0.08,0.8,1,-2,-1,0.55,5801,30,86,32,67,928,306.0,398,445,60,119.0,235,1,346,300,71,0,0,314,115,-32256,305,,,,,,,,,,,,
378483,1560692906579,-1,2.22,2.46,3.14,2.18,5.07,0.62,-0.01,0.79,-1,-2,-2,0.62,5797,31,86,32,67,925,310.0,403,451,60,119.0,235,1,345,301,71,0,0,317,125,125,307,,,,,,,,,,,,
378503,1560692906599,4,2.19,2.48,3.14,2.18,5.04,0.68,-0.09,0.74,-2,-1,-1,0.69,5806,32,86,32,67,922,312.0,410,444,60,118.0,214,1,346,300,66,0,0,319,-30976,140,308,,,,,,,,,,,,
378523,1560692906619,4,2.18,2.48,3.13,2.17,5.08,0.64,-0.1,0.67,-2,0,-1,0.65,5859,32,86,32,67,919,315.0,409,452,60,118.0,214,1,351,300,66,0,0,322,-29696,140,309,,,,,,,,,,,,
378543,1560692906639,2,2.17,2.47,3.13,2.16,5.04,0.56,-0.01,0.66,-1,3,-1,0.56,5914,33,86,32,67,920,317.0,408,454,60,118.0,214,1,355,308,66,0,0,322,145,135,309,45.701427,4.910797,28.42,197.5,3,1.6,0,0.0,0.1967,4,0.18,6.3091
378563,1560692906659,5,2.15,2.47,3.14,2.14,5.06,0.5,0.09,0.67,-1,4,-1,0.51,5988,34,86,32,68,922,320.0,411,453,60,118.0,214,1,357,308,66,0,0,324,150,-29696,310,,,,,,,,,,,,
378583,1560692906679,5,2.14,2.46,3.11,2.13,5.07,0.5,0.18,0.67,-1,5,-1,0.53,6081,35,86,32,68,929,323.0,417,452,60,118.0,214,1,360,308,66,0,0,328,155,-28416,311,,,,,,,,,,,,
378603,1560692906699,5,2.13,2.45,3.1,2.13,5.04,0.51,0.22,0.65,-2,6,-0,0.56,6109,36,86,32,68,937,327.0,421,451,60,118.0,228,1,361,309,71,0,0,328,-22016,160,312,,,,,,,,,,,,
378623,1560692906719,0,2.13,2.48,3.07,2.13,5.04,0.51,0.19,0.63,-3,7,-1,0.54,6161,37,86,32,69,942,330.0,421,450,60,119.0,228,1,362,326,71,0,0,332,-20736,-20736,313,,,,,,,,,,,,
378643,1560692906739,0,2.11,2.5,3.05,2.11,5.05,0.58,0.11,0.63,-4,7,-2,0.59,6208,37,86,32,69,947,332.0,427,455,60,119.0,228,1,364,327,71,0,0,334,-32559,-32559,315,45.701435,4.910801,30.37,197.5,3,1.6,0,0.0,0.1983,4,0.18,6.3107
378663,1560692906759,-0,2.12,2.51,3.04,2.11,5.08,0.66,0.01,0.74,-6,5,-4,0.66,6200,37,86,32,69,962,335.0,428,450,60,118.0,228,1,363,327,71,0,0,339,3346,-20736,316,,,,,,,,,,,,
378683,1560692906779,2,2.13,2.5,3.05,2.12,5.07,0.64,-0.06,0.86,-7,3,-6,0.64,6206,37,86,32,70,976,337.0,433,453,60,117.0,228,1,363,343,71,0,0,337,2560,-22016,319,,,,,,,,,,,,
378703,1560692906799,3,2.12,2.5,3.06,2.12,5.04,0.64,0.03,0.84,-7,3,-7,0.64,6235,38,86,32,70,988,338.0,436,450,60,117.0,253,1,363,343,81,0,0,340,-31222,3346,320,,,,,,,,,,,,
378723,1560692906819,4,2.13,2.48,3.08,2.11,5.04,0.62,0.21,0.77,-7,4,-6,0.65,6306,39,86,32,70,998,339.0,436,452,60,118.0,253,1,366,344,81,0,0,339,3327,3346,324,,,,,,,,,,,,
378743,1560692906839,-1,2.13,2.48,3.09,2.12,5.08,0.6,0.23,0.69,-8,4,-5,0.64,6379,42,86,32,71,1021,341.0,438,453,60,119.0,253,1,367,361,81,0,0,342,6668,3346,323,45.701439,4.910804,31.05,197.5,3,1.6,0,0.0,0.2,4,0.18,6.3124
378763,1560692906859,2,2.12,2.48,3.09,2.11,5.06,0.64,0.15,0.75,-9,3,-4,0.66,6410,46,86,32,73,1044,341.0,440,458,60,118.0,253,1,365,392,81,0,0,343,6668,3346,326,,,,,,,,,,,,
378783,1560692906879,4,2.11,2.49,3.08,2.11,5.04,0.63,0.16,0.87,-9,1,-6,0.65,6445,49,86,32,75,1062,344.0,449,456,60,117.0,253,1,364,424,81,0,0,344,-10554,-31206,328,,,,,,,,,,,,
378803,1560692906900,1,2.12,2.49,3.08,2.1,5.08,0.59,0.26,0.79,-9,4,-7,0.65,6458,52,86,32,77,1077,346.0,448,448,60,118.0,327,1,363,446,107,0,0,349,-30438,3327,328,,,,,,,,,,,,
378823,1560692906920,2,2.12,2.49,3.05,2.1,5.05,0.57,0.23,0.72,-9,3,-8,0.61,6560,55,86,32,79,1095,349.0,448,447,60,118.0,327,1,365,460,107,0,0,350,2811,-10554,329,,,,,,,,,,,,
378843,1560692906940,5,2.11,2.49,3.05,2.1,5.05,0.59,0.26,0.81,-10,1,-10,0.65,6658,58,86,32,82,1116,351.0,461,456,60,117.0,327,1,367,480,107,0,0,354,3183,-30438,332,45.70145,4.910808,32.12,197.5,3,1.6,0,0.0,0.2017,4,0.18,6.3141
378863,1560692906960,-1,2.13,2.49,3.05,2.1,5.06,0.58,0.26,0.71,-10,1,-10,0.63,6734,59,86,32,83,1127,353.0,462,450,60,118.0,327,1,368,489,107,0,0,355,-6644,4104,335,,,,,,,,,,,,
378883,1560692906980,4,2.12,2.5,3.04,2.11,5.04,0.61,0.29,0.8,-11,2,-12,0.67,6803,60,86,32,85,1134,356.0,470,453,60,117.0,327,1,369,495,107,0,0,357,4104,3082,337,,,,,,,,,,,,
378903,1560692906992,3,2.12,2.51,3.03,2.1,5.07,0.62,0.27,0.76,-11,3,-12,0.67,6903,61,86,32,85,1141,359.0,471,451,60,118.0,383,1,372,503,130,0,0,361,-29978,-29302,342,,,,,,,,,,,,
378923,1560692907012,1,2.11,2.54,3.03,2.12,5.05,0.6,0.33,0.73,-11,3,-13,0.69,7014,62,86,32,85,1148,362.0,477,450,60,118.0,383,1,377,506,130,0,0,368,2790,486,344,,,,,,,,,,,,
378943,1560692907032,5,2.12,2.56,2.99,2.13,5.04,0.62,0.29,0.85,-12,3,-13,0.68,7078,62,86,32,86,1153,367.0,481,455,60,117.0,383,1,380,513,130,0,0,372,0,8200,346,45.701458,4.910811,32.71,197.6,3,1.6,0,0.0,0.2033,4,0.18,6.3157
378963,1560692907052,3,2.11,2.56,2.99,2.13,5.04,0.62,0.27,0.88,-12,3,-12,0.68,7137,62,86,32,86,1153,372.0,485,452,60,117.0,383,1,385,514,130,0,0,377,1,-19126,351,,,,,,,,,,,,
378983,1560692907072,3,2.12,2.58,2.95,2.13,5.06,0.46,0.33,0.78,-11,3,-13,0.57,7247,63,86,32,86,1144,375.0,492,451,60,118.0,383,1,392,510,130,0,0,383,770,-3866,355,,,,,,,,,,,,
379003,1560692907098,1,2.12,2.59,2.96,2.15,5.04,0.44,0.41,0.73,-11,4,-15,0.6,7315,63,86,32,85,1129,379.0,501,455,60,117.0,394,1,396,512,140,0,0,388,8200,240,358,,,,,,,,,,,,
379023,1560692907118,2,2.13,2.59,2.96,2.17,5.07,0.53,0.45,0.75,-12,3,-16,0.69,7419,63,86,32,85,1113,383.0,508,451,60,118.0,394,1,402,513,140,0,0,391,-19126,-6656,362,,,,,,,,,,,,
379043,1560692907138,2,2.13,2.6,2.97,2.17,5.08,0.51,0.51,0.79,-12,5,-16,0.72,7464,63,86,32,84,1096,389.0,506,453,60,118.0,394,1,405,514,140,0,0,399,-6524,1504,368,45.701466,4.910814,34.05,197.6,3,1.6,0,0.0,0.205,4,0.18,6.3174
379063,1560692907158,3,2.13,2.6,2.96,2.17,5.07,0.5,0.5,0.8,-13,4,-17,0.71,7548,63,86,32,84,1068,392.0,511,455,60,118.0,394,1,410,508,140,0,0,404,1,6512,374,,,,,,,,,,,,
379083,1560692907178,2,2.13,2.61,2.96,2.18,5.04,0.51,0.57,0.78,-14,2,-16,0.76,7597,63,86,32,84,1025,398.0,514,451,60,118.0,394,1,413,508,140,0,0,408,6384,-26615,380,,,,,,,,,,,,
379103,1560692907198,4,2.13,2.63,2.96,2.18,5.04,0.51,0.54,0.77,-14,2,-15,0.74,7731,63,86,32,83,989,404.0,518,450,60,118.0,381,1,421,502,145,0,0,411,1504,-9166,383,,,,,,,,,,,,
379123,1560692907218,4,2.13,2.62,2.95,2.18,5.03,0.47,0.58,0.79,-14,2,-15,0.75,7809,63,86,32,83,963,406.0,523,449,60,117.0,381,1,425,494,145,0,0,414,2524,18584,388,,,,,,,,,,,,
379143,1560692907238,1,2.14,2.62,2.95,2.19,5.03,0.45,0.57,0.88,-13,2,-15,0.73,7948,63,86,32,81,933,411.0,533,451,60,117.0,381,1,434,487,145,0,0,425,-4059,-21792,392,45.701477,4.910817,35.84,197.6,3,1.6,0,0.0,0.2067,4,0.18,6.319
379163,1560692907258,3,2.14,2.64,2.94,2.19,5.04,0.43,0.69,0.79,-13,4,-15,0.81,8092,64,86,32,79,897,416.0,537,452,60,118.0,381,1,436,484,145,0,0,426,-3414,-3322,397,,,,,,,,,,,,
379183,1560692907278,1,2.13,2.64,2.95,2.18,5.05,0.44,0.73,0.83,-13,3,-15,0.85,8180,64,86,32,78,867,422.0,541,452,60,117.0,381,1,433,470,145,0,0,431,-3414,16648,402,,,,,,,,,,,,
379203,1560692907298,1,2.14,2.64,2.94,2.19,5.06,0.41,0.77,0.94,-13,3,-15,0.87,8329,64,86,32,77,857,427.0,553,450,60,118.0,358,1,431,452,144,0,0,440,31796,-768,407,,,,,,,,,,,,
379223,1560692907318,3,2.12,2.66,2.93,2.22,5.04,0.52,0.72,1.03,-14,0,-15,0.89,8442,64,86,32,74,846,433.0,558,452,60,117.0,358,1,430,434,144,0,0,445,243,21580,411,,,,,,,,,,,,
379243,1560692907338,5,2.13,2.67,2.93,2.24,5.07,0.39,0.79,0.92,-14,3,-16,0.88,8461,64,86,32,74,835,439.0,564,450,60,118.0,358,1,429,435,144,0,0,451,-28332,17628,415,45.701485,4.910819,38.18,197.6,3,1.6,0,0.0,0.2083,4,0.18,6.3207
379263,1560692907358,5,2.12,2.67,2.91,2.25,5.04,0.42,0.79,0.9,-14,3,-16,0.89,8507,64,86,32,73,826,444.0,570,453,60,117.0,358,1,429,427,144,0,0,456,21432,30272,422,,,,,,,,,,,,
379283,1560692907378,1,2.12,2.68,2.88,2.23,5.05,0.46,0.81,0.9,-14,1,-16,0.93,8538,64,86,32,72,824,450.0,568,462,60,117.0,358,1,429,417,144,0,0,465,15649,12552,426,,,,,,,,,,,,
379303,1560692907398,4,2.13,2.67,2.89,2.22,5.08,0.32,0.78,0.93,-14,3,-16,0.84,8632,65,86,32,72,829,456.0,571,449,60,117.0,323,1,425,427,138,0,0,460,14488,12552,432,,,,,,,,,,,,
379323,1560692907418,4,2.13,2.67,2.89,2.22,5.08,0.33,0.81,0.95,-14,2,-16,0.87,8745,65,86,32,72,853,461.0,578,455,60,118.0,323,1,422,417,138,0,0,473,2211,32033,436,,,,,,,,,,,,
379343,1560692907438,5,2.13,2.67,2.89,2.21,5.08,0.38,0.67,0.97,-14,1,-18,0.77,8865,65,86,32,71,878,463.0,593,445,60,117.0,323,1,419,407,138,0,0,474,6193,3576,441,45.701496,4.910821,40.65,197.6,3,1.6,0,0.0,0.21,4,0.19,6.3224
379363,1560692907458,2,2.14,2.67,2.92,2.22,5.04,0.48,0.44,0.94,-15,1,-19,0.65,8962,65,86,32,72,903,467.0,589,452,60,117.0,323,1,415,407,138,0,0,479,243,505,446,,,,,,,,,,,,
379383,1560692907478,2,2.14,2.68,2.94,2.2,5.06,0.5,0.29,0.89,-15,3,-21,0.57,9101,66,86,32,71,933,471.0,592,457,60,118.0,323,1,413,407,138,0,0,486,-9203,505,449,,,,,,,,,,,,
379403,1560692907500,6,2.15,2.69,2.91,2.21,5.08,0.52,0.18,0.93,-15,4,-21,0.55,9213,66,86,32,71,980,478.0,601,456,60,117.0,307,1,414,407,138,0,0,492,16648,505,451,,,,,,,,,,,,
379423,1560692907520,-1,2.15,2.69,2.89,2.22,5.06,0.38,0.17,1.04,-15,2,-21,0.41,9259,66,86,32,71,1027,482.0,608,450,60,117.0,307,1,414,398,138,0,0,494,-899,998,457,,,,,,,,,,,,
379443,1560692907540,0,2.16,2.69,2.87,2.23,5.06,0.36,0.35,1.03,-14,3,-20,0.5,9295,66,86,32,70,1049,485.0,608,457,60,117.0,307,1,414,398,138,0,0,495,-6441,2109,459,45.701504,4.910822,42.79,197.6,3,1.6,0,0.0,0.2117,4,0.19,6.324
379463,1560692907560,4,2.16,2.7,2.87,2.23,5.04,0.48,0.52,1.05,-15,1,-20,0.7,9356,66,86,32,70,1071,488.0,609,453,60,117.0,307,1,415,398,138,0,0,503,1,-28648,468,,,,,,,,,,,,
379483,1560692907580,3,2.18,2.68,2.88,2.23,5.07,0.47,0.4,1.04,-14,2,-21,0.62,9412,66,86,32,69,1087,492.0,615,458,60,117.0,307,1,415,388,138,0,0,505,-32768,16383,472,,,,,,,,,,,,
379503,1560692907600,0,2.19,2.67,2.92,2.22,5.08,0.32,0.32,1.1,-13,3,-22,0.45,9512,66,86,32,69,1103,498.0,612,454,60,117.0,300,1,416,399,142,0,0,509,2524,6274,480,,,,,,,,,,,,
379523,1560692907620,4,2.19,2.66,2.92,2.23,5.04,0.38,0.36,1.1,-14,1,-22,0.53,9590,66,86,32,69,1100,502.0,621,455,60,117.0,300,1,413,398,142,0,0,515,15661,-3482,484,,,,,,,,,,,,
379543,1560692907640,-0,2.19,2.66,2.93,2.26,5.06,0.45,0.25,1.12,-14,-1,-22,0.52,9630,66,86,32,69,1095,504.0,632,458,60,119.0,300,1,411,393,142,0,0,516,-32248,-3482,486,45.701515,4.910823,44.86,197.6,3,1.6,0,0.0,0.2133,4,0.19,6.3257
379563,1560692907660,-4,2.2,2.66,2.93,2.28,5.05,0.34,0.23,1.03,-12,1,-21,0.42,9101,66,86,32,70,1094,508.0,632,454,60,119.0,300,1,413,398,142,0,0,517,-28648,26178,490,,,,,,,,,,,,
379583,1560692907680,-0,2.19,2.64,2.99,2.25,5.04,0.31,0.17,0.98,-12,-1,-22,0.36,8700,66,86,32,73,1093,507.0,617,454,60,117.0,300,1,423,427,142,0,0,512,-21872,10408,496,,,,,,,,,,,,
379603,1560692907700,-1,2.2,2.6,3.0,2.21,5.07,0.48,0.08,0.95,-12,-1,-22,0.49,8484,66,86,32,75,1096,508.0,608,454,60,119.0,282,1,428,445,140,0,0,505,-21872,3,495,,,,,,,,,,,,
379623,1560692907720,0,2.2,2.53,3.08,2.17,5.06,0.51,0.1,0.92,-12,-4,-21,0.52,8337,67,86,32,77,1101,508.0,587,449,60,116.0,282,1,430,452,140,0,0,509,-3856,771,496,,,,,,,,,,,,
379643,1560692907740,3,2.19,2.5,3.11,2.13,5.06,0.6,0.03,0.84,-12,-2,-21,0.6,8113,69,86,32,79,1144,511.0,572,462,60,119.0,282,1,436,879,140,0,0,507,10994,248,495,45.701527,4.910822,47.55,197.6,3,1.6,0,0.0,0.215,4,0.19,6.3274
379663,1560692907760,3,2.2,2.52,3.13,2.15,5.07,0.61,0.07,0.83,-12,-3,-19,0.62,7845,69,86,32,81,1196,509.0,562,453,60,118.0,282,1,428,802,140,0,0,519,10994,10408,494,,,,,,,,,,,,
379683,1560692907780,3,2.19,2.52,3.13,2.14,5.08,0.65,0.12,0.81,-12,-2,-17,0.66,7387,70,86,32,84,1244,512.0,530,456,60,117.0,282,1,400,740,140,0,0,535,17136,-2934,497,,,,,,,,,,,,
379703,1560692907800,-0,2.19,2.55,3.02,2.14,5.05,0.69,0.23,0.84,-13,3,-15,0.72,7256,70,86,32,85,1291,519.0,512,455,60,117.0,397,1,393,669,198,0,0,534,-8187,-28648,502,,,,,,,,,,,,
379723,1560692907820,1,2.18,2.59,2.94,2.14,5.05,0.77,0.23,0.92,-13,2,-15,0.8,7408,70,86,32,87,1349,520.0,506,451,60,118.0,397,1,402,608,198,0,0,531,1248,2524,504,,,,,,,,,,,,
379743,1560692907840,1,2.18,2.59,2.87,2.14,5.07,0.82,0.27,0.99,-14,2,-15,0.86,7352,70,86,32,87,1411,526.0,508,455,60,118.0,397,1,398,534,198,0,0,539,-32248,-22519,511,45.701538,4.910821,48.76,197.6,3,1.6,0,0.0,0.2167,4,0.19,6.3291
379763,1560692907860,2,2.18,2.58,2.84,2.14,5.06,0.79,0.23,1.04,-13,2,-14,0.83,7304,70,86,32,88,1447,530.0,505,453,60,117.0,397,1,395,533,198,0,0,546,2524,1779,513,,,,,,,,,,,,
379783,1560692907880,5,2.19,2.62,2.89,2.14,5.06,0.7,0.2,1.1,-13,1,-14,0.73,7259,70,86,32,89,1461,534.0,505,456,60,117.0,397,1,393,538,198,0,0,545,-32248,-9072,516,,,,,,,,,,,,
379803,1560692907899,4,2.19,2.62,2.91,2.16,5.03,0.65,0.19,1.02,-12,0,-14,0.68,7295,70,86,32,89,1445,537.0,499,455,60,117.0,286,1,395,539,148,0,0,549,-32248,-2336,519,,,,,,,,,,,,
379823,1560692907919,2,2.19,2.62,2.94,2.15,5.05,0.57,0.2,0.97,-11,-0,-15,0.6,7464,70,86,32,89,1415,540.0,507,453,60,117.0,286,1,407,537,148,0,0,548,-8186,2524,523,,,,,,,,,,,,
379843,1560692907939,3,2.2,2.6,3.0,2.16,5.06,0.55,0.24,1.01,-10,0,-16,0.6,7584,70,86,32,88,1377,542.0,510,452,60,118.0,286,1,415,541,148,0,0,553,-3082,-22263,529,45.70155,4.91082,49.7,197.5,3,1.6,0,0.0,0.2183,4,0.19,6.3307
379863,1560692907959,1,2.2,2.62,2.97,2.18,5.07,0.52,0.19,1.04,-10,1,-14,0.56,7741,70,86,32,87,1331,545.0,519,455,60,118.0,286,1,425,537,148,0,0,560,-8962,2211,531,,,,,,,,,,,,
379883,1560692907979,-0,2.21,2.62,2.95,2.21,5.07,0.49,0.17,1.1,-10,2,-13,0.52,7805,70,86,32,86,1262,549.0,524,457,60,117.0,286,1,428,539,148,0,0,567,2104,-8188,534,,,,,,,,,,,,
379903,1560692907993,2,2.2,2.62,2.94,2.22,5.04,0.52,0.18,1.17,-10,1,-13,0.55,7809,70,86,32,86,1167,555.0,522,458,60,116.0,291,1,429,530,156,0,0,568,2524,259,540,,,,,,,,,,,,
379923,1560692908013,2,2.21,2.62,2.95,2.21,5.08,0.52,0.25,1.03,-10,1,-13,0.58,7855,70,86,32,85,1092,558.0,529,452,60,118.0,291,1,430,521,156,0,0,579,-32504,1760,546,,,,,,,,,,,,
379943,1560692908033,4,2.21,2.62,2.95,2.21,5.08,0.55,0.31,0.96,-10,1,-13,0.64,7822,70,87,32,85,1043,560.0,526,456,60,117.0,291,1,428,521,156,0,0,582,-28648,-8186,552,45.701561,4.910819,51.43,197.5,3,1.6,0,0.0,0.22,4,0.19,6.3324
379963,1560692908053,2,2.2,2.62,2.95,2.2,5.05,0.58,0.3,1.02,-10,1,-13,0.65,7851,69,87,32,85,995,568.0,526,461,60,116.0,291,1,430,521,156,0,0,588,-8186,208,553,,,,,,,,,,,,
379983,1560692908073,3,2.2,2.61,2.97,2.2,5.07,0.48,0.29,1.08,-10,1,-12,0.56,7944,69,87,32,83,947,573.0,528,452,60,118.0,291,1,433,513,156,0,0,583,1760,-1894,558,,,,,,,,,,,,
380003,1560692908099,2,2.19,2.65,2.95,2.19,5.05,0.44,0.41,0.99,-10,3,-11,0.6,7995,68,87,32,82,911,577.0,534,453,60,117.0,269,1,437,495,151,0,0,588,243,17344,558,,,,,,,,,,,,
380023,1560692908119,-1,2.18,2.68,2.93,2.19,5.05,0.48,0.37,1.02,-10,2,-12,0.61,8138,68,87,32,81,912,581.0,546,452,60,117.0,269,1,435,497,151,0,0,593,10432,-16179,563,,,,,,,,,,,,
380043,1560692908139,3,2.18,2.68,2.93,2.19,5.08,0.45,0.38,1.07,-10,2,-12,0.59,8234,68,87,32,79,912,585.0,551,453,60,118.0,269,1,433,482,151,0,0,597,-4035,17344,567,45.701576,4.910817,52.93,197.5,3,1.6,0,0.0,0.2217,4,0.2,6.3341
380063,1560692908159,0,2.18,2.67,2.92,2.2,5.08,0.54,0.27,1.08,-10,3,-12,0.6,8285,68,87,32,79,908,591.0,549,453,60,117.0,269,1,432,472,151,0,0,610,6273,-23055,573,,,,,,,,,,,,
380083,1560692908179,2,2.19,2.66,2.91,2.19,5.06,0.47,0.29,1.08,-10,1,-13,0.55,8249,68,87,32,78,904,594.0,563,463,60,117.0,269,1,433,472,151,0,0,605,-13043,26688,578,,,,,,,,,,,,
380103,1560692908199,1,2.19,2.67,2.9,2.2,5.05,0.55,0.28,1.0,-11,1,-13,0.62,8285,68,87,32,78,900,599.0,550,452,60,116.0,250,1,432,464,145,0,0,617,30227,-16883,581,,,,,,,,,,,,
380123,1560692908219,3,2.19,2.7,2.9,2.22,5.04,0.48,0.33,0.97,-11,0,-13,0.59,8378,67,87,32,76,897,602.0,554,453,60,117.0,250,1,429,465,145,0,0,614,-768,17336,581,,,,,,,,,,,,
380143,1560692908239,1,2.19,2.71,2.94,2.24,5.05,0.5,0.29,1.02,-10,1,-14,0.58,8488,67,87,32,75,902,603.0,561,457,60,117.0,250,1,428,445,145,0,0,618,-7939,30721,586,45.701592,4.910814,54.99,197.4,3,1.6,0,0.0,0.2233,4,0.2,6.3357
380163,1560692908259,-1,2.17,2.7,2.93,2.24,5.04,0.6,0.2,0.98,-10,-1,-13,0.63,8526,66,87,32,74,907,609.0,563,451,60,117.0,250,1,428,436,145,0,0,630,-30139,-18357,588,,,,,,,,,,,,
380183,1560692908279,4,2.18,2.67,2.9,2.24,5.08,0.54,0.25,1.02,-11,-1,-12,0.6,8557,66,87,32,73,917,611.0,565,459,60,117.0,250,1,427,436,145,0,0,632,1010,-4876,598,,,,,,,,,,,,
380203,1560692908299,3,2.19,2.66,2.86,2.2,5.07,0.47,0.31,1.07,-12,-1,-11,0.56,8542,65,87,32,73,929,620.0,563,446,60,116.0,230,1,428,417,138,0,0,636,-18357,-2830,600,,,,,,,,,,,,
380223,1560692908319,2,2.19,2.66,2.88,2.18,5.04,0.6,0.19,1.05,-12,-1,-12,0.63,8616,64,87,32,73,948,625.0,565,455,60,117.0,230,1,425,427,138,0,0,639,-1346,-2830,605,,,,,,,,,,,,
380243,1560692908339,0,2.19,2.66,2.93,2.16,5.04,0.62,0.16,1.08,-11,1,-11,0.63,8773,64,87,32,71,967,625.0,580,457,60,117.0,230,1,422,407,138,0,0,639,-1346,6208,608,45.701603,4.91081,57.11,197.4,3,1.6,0,0.0,0.225,4,0.2,6.3374
380263,1560692908359,1,2.19,2.66,2.92,2.17,5.07,0.62,0.22,1.1,-12,1,-11,0.66,8844,63,87,32,70,976,631.0,588,465,60,117.0,230,1,419,398,138,0,0,648,771,6208,609,,,,,,,,,,,,
380283,1560692908379,4,2.19,2.66,2.9,2.18,5.07,0.49,0.4,1.12,-11,3,-9,0.64,8856,63,87,32,70,986,633.0,581,456,60,117.0,230,1,419,398,138,0,0,651,-5120,-30207,615,,,,,,,,,,,,
380303,1560692908399,4,2.18,2.67,2.78,2.16,5.04,0.49,0.5,1.02,-12,4,-10,0.7,8794,62,87,32,69,1005,638.0,588,460,60,118.0,211,1,421,388,130,0,0,650,16599,479,618,,,,,,,,,,,,
380323,1560692908419,3,2.19,2.67,2.77,2.14,5.05,0.4,0.53,0.98,-12,5,-11,0.66,8786,62,87,32,69,1024,643.0,578,448,60,116.0,211,1,422,388,130,0,0,652,-3584,8958,620,,,,,,,,,,,,
380343,1560692908439,3,2.19,2.66,2.78,2.14,5.04,0.51,0.36,1.0,-12,5,-13,0.62,8831,62,87,32,69,1035,646.0,586,456,60,117.0,211,1,420,388,130,0,0,653,4909,-8429,627,45.701618,4.910806,59.02,197.4,3,1.6,0,0.0,0.2267,4,0.2,6.339
380363,1560692908459,2,2.19,2.64,2.85,2.13,5.07,0.58,0.26,1.05,-12,3,-14,0.63,8890,62,87,32,68,1045,645.0,588,457,60,117.0,211,1,416,379,130,0,0,658,479,-30207,630,,,,,,,,,,,,
380383,1560692908479,2,2.19,2.65,2.89,2.14,5.04,0.69,0.03,1.08,-12,2,-15,0.69,9027,61,87,32,68,1053,650.0,585,451,60,117.0,211,1,413,379,130,0,0,664,24583,-27404,631,,,,,,,,,,,,
380403,1560692908497,4,2.19,2.64,2.87,2.14,5.03,0.82,-0.13,1.17,-13,1,-15,0.83,9106,61,87,32,67,1060,651.0,595,453,60,117.0,203,1,411,375,129,0,0,665,2024,-2345,636,,,,,,,,,,,,
380423,1560692908517,3,2.19,2.64,2.89,2.14,5.07,0.82,-0.32,1.1,-13,-2,-16,0.88,9141,61,87,32,67,1059,656.0,599,462,60,117.0,203,1,411,375,129,0,0,669,-388,-26892,636,,,,,,,,,,,,
380443,1560692908537,4,2.19,2.65,2.86,2.14,5.07,0.83,-0.43,1.1,-13,1,-18,0.93,9177,61,87,32,67,1056,659.0,607,457,60,117.0,203,1,412,375,129,0,0,672,-26380,-2826,643,45.701633,4.910801,61.05,197.4,3,1.6,0,0.0,0.2283,4,0.2,6.3407
380463,1560692908557,3,2.19,2.65,2.84,2.14,5.07,0.69,-0.37,1.11,-12,-1,-19,0.79,9195,61,87,32,66,1051,661.0,612,457,60,117.0,203,1,410,370,129,0,0,672,-2345,-10399,646,,,,,,,,,,,,
380483,1560692908577,-0,2.19,2.68,2.85,2.14,5.05,0.5,-0.19,1.05,-12,-1,-20,0.53,9245,61,87,32,66,1046,666.0,614,461,60,117.0,203,1,411,370,129,0,0,677,1549,-10346,644,,,,,,,,,,,,
380503,1560692908599,1,2.18,2.67,2.87,2.14,5.04,0.47,0.03,1.01,-12,-1,-20,0.48,9286,61,87,32,66,1044,666.0,619,461,60,117.0,202,1,411,370,130,0,0,683,1549,-2345,649,,,,,,,,,,,,
380523,1560692908619,1,2.19,2.65,2.86,2.12,5.05,0.54,0.21,0.98,-12,1,-18,0.58,9300,61,87,32,66,1042,674.0,610,451,60,117.0,202,1,411,370,130,0,0,688,-10344,-26892,653,,,,,,,,,,,,
380543,1560692908639,2,2.2,2.66,2.86,2.1,5.06,0.65,0.2,0.96,-13,1,-16,0.68,9282,61,87,32,66,1037,676.0,620,448,60,117.0,202,1,411,370,130,0,0,687,-10346,16599,656,45.701649,4.910795,62.63,197.4,3,1.6,0,0.0,0.23,4,0.2,6.3424
380563,1560692908659,2,2.18,2.67,2.86,2.11,5.06,0.65,0.03,0.98,-13,-0,-16,0.65,9328,61,87,32,65,1031,678.0,620,455,60,117.0,202,1,411,366,130,0,0,696,-2345,24845,657,,,,,,,,,,,,
380583,1560692908679,2,2.18,2.67,2.87,2.11,5.07,0.51,0.08,1.08,-12,-1,-16,0.51,9389,61,87,32,65,1025,678.0,625,450,60,117.0,202,1,412,366,130,0,0,689,-10346,15647,656,,,,,,,,,,,,
380603,1560692908699,3,2.18,2.66,2.85,2.11,5.06,0.59,0.18,1.08,-13,-1,-17,0.62,9474,61,87,32,65,1020,683.0,610,462,60,117.0,198,1,415,366,131,0,0,692,-2345,-10344,661,,,,,,,,,,,,
380623,1560692908719,4,2.19,2.64,2.83,2.09,5.06,0.69,0.13,1.03,-13,-0,-16,0.7,9527,61,87,32,65,1015,688.0,613,457,60,117.0,198,1,414,366,131,0,0,700,6208,8010,667,,,,,,,,,,,,
380643,1560692908739,2,2.19,2.65,2.84,2.08,5.04,0.57,0.2,1.08,-13,1,-17,0.6,9532,61,87,32,64,1011,691.0,611,459,60,117.0,198,1,414,363,131,0,0,710,1780,-13072,667,45.70166,4.910788,63.94,197.5,3,1.6,0,0.0,0.2317,4,0.21,6.344
380663,1560692908759,2,2.19,2.65,2.84,2.07,5.05,0.63,0.34,1.01,-13,2,-15,0.71,9576,61,87,32,65,1009,694.0,618,450,60,117.0,198,1,414,372,131,0,0,706,12333,-2830,670,,,,,,,,,,,,
380683,1560692908779,5,2.18,2.66,2.85,2.07,5.04,0.64,0.26,0.98,-13,3,-16,0.7,9615,61,87,32,64,1010,696.0,632,453,60,117.0,198,1,413,370,131,0,0,705,6208,11576,671,,,,,,,,,,,,
380703,1560692908799,3,2.18,2.67,2.84,2.06,5.06,0.57,0.44,0.98,-13,6,-15,0.72,9640,61,87,32,63,1013,699.0,619,461,60,117.0,201,1,412,372,136,0,0,711,-3584,687,675,,,,,,,,,,,,
380723,1560692908819,3,2.19,2.65,2.83,2.04,5.08,0.71,0.38,0.92,-14,4,-15,0.81,9684,60,87,32,63,1016,701.0,624,458,60,117.0,201,1,412,367,136,0,0,712,-2830,-13072,679,,,,,,,,,,,,
380743,1560692908839,3,2.18,2.63,2.79,2.01,5.08,0.58,0.43,0.92,-13,7,-16,0.72,9674,58,87,32,62,1020,706.0,620,454,60,118.0,201,1,413,363,136,0,0,716,687,16118,685,45.701679,4.91078,65.5,197.4,3,1.6,0,0.0,0.2333,4,0.21,6.3457
380763,1560692908859,2,2.2,2.64,2.78,1.98,5.06,0.72,0.43,0.93,-13,5,-16,0.84,9654,56,87,32,61,1023,708.0,627,456,60,117.0,201,1,413,358,136,0,0,719,-30694,204,687,,,,,,,,,,,,
380783,1560692908879,-1,2.19,2.66,2.8,2.05,5.05,0.53,0.35,0.91,-12,4,-17,0.63,9704,54,87,32,60,1025,707.0,629,455,60,117.0,201,1,410,353,136,0,0,722,-12152,-3450,684,,,,,,,,,,,,
380803,1560692908900,3,2.17,2.7,2.83,2.18,5.07,0.51,0.34,0.95,-12,3,-18,0.61,9765,54,87,32,59,1024,704.0,623,459,60,117.0,189,1,407,349,130,0,0,716,11069,204,686,,,,,,,,,,,,
380823,1560692908920,1,2.16,2.71,2.82,2.21,5.04,0.51,0.4,0.96,-12,1,-17,0.64,9816,52,87,32,58,1022,705.0,624,452,60,117.0,189,1,406,345,130,0,0,719,-20693,-30694,687,,,,,,,,,,,,
380843,1560692908940,5,2.16,2.7,2.82,2.19,5.04,0.58,0.43,0.95,-13,-1,-17,0.72,9750,48,87,31,56,1018,709.0,630,452,60,117.0,189,1,403,329,130,0,0,720,-12152,-388,692,45.701694,4.910771,67.11,197.5,3,1.6,0,0.0,0.235,4,0.21,6.3474
380863,1560692908960,4,2.17,2.7,2.88,2.17,5.04,0.5,0.55,0.9,-13,-1,-16,0.74,9725,42,87,31,54,1009,709.0,624,457,60,117.0,189,1,400,317,130,0,0,732,204,-2314,694,,,,,,,,,,,,
380883,1560692908980,5,2.17,2.68,3.04,2.16,5.03,0.55,0.51,0.8,-13,-0,-17,0.75,9816,34,87,31,50,996,713.0,626,458,60,117.0,189,1,388,275,130,0,0,724,-13312,-31066,695,,,,,,,,,,,,
380903,1560692908992,2,2.17,2.68,3.11,2.12,5.05,0.58,0.64,0.87,-14,-1,-18,0.86,9858,30,87,31,46,983,718.0,628,456,60,117.0,139,1,372,241,97,0,0,731,31988,204,694,,,,,,,,,,,,
380923,1560692909012,5,2.19,2.66,3.1,2.08,5.08,0.67,0.55,0.84,-15,-1,-18,0.86,9664,30,87,31,42,973,721.0,628,453,60,117.0,139,1,342,226,97,0,0,732,31988,-3450,699,,,,,,,,,,,,
380943,1560692909032,3,2.19,2.65,3.06,2.03,5.04,0.52,0.52,0.84,-14,-0,-20,0.74,9561,29,87,31,40,959,722.0,631,461,60,118.0,139,1,327,221,97,0,0,724,-388,204,695,45.70171,4.910761,68.5,197.5,3,1.6,0,0.0,0.2367,4,0.21,6.3491
380963,1560692909052,6,2.19,2.66,3.01,2.01,5.07,0.61,0.67,0.89,-14,-1,-20,0.9,9431,29,87,31,39,934,721.0,625,461,60,117.0,139,1,320,215,97,0,0,719,-31068,16599,694,,,,,,,,,,,,
380983,1560692909072,8,2.18,2.65,2.98,2.01,5.03,0.75,0.54,0.91,-15,-2,-20,0.92,9254,29,87,31,39,911,717.0,620,460,60,117.0,139,1,320,214,97,0,0,720,-2560,-2830,692,,,,,,,,,,,,
381003,1560692909100,10,2.19,2.65,2.97,1.96,5.04,0.77,0.37,0.89,-15,-4,-22,0.85,9093,28,87,31,39,897,714.0,612,453,60,117.0,107,1,320,213,74,0,0,710,204,-26562,683,,,,,,,,,,,,
381023,1560692909120,10,2.19,2.62,2.96,1.91,5.07,0.8,0.32,0.86,-15,-2,-22,0.86,8945,28,87,31,38,880,709.0,611,457,60,117.0,107,1,317,209,74,0,0,709,-12152,3543,688,,,,,,,,,,,,
381043,1560692909140,9,2.19,2.6,3.01,1.89,5.06,0.84,0.16,0.94,-15,-6,-22,0.85,8811,28,87,31,38,855,708.0,605,452,60,117.0,107,1,317,209,74,0,0,703,687,-26892,677,45.701725,4.91075,68.6,197.5,3,1.6,0,0.0,0.2383,4,0.21,6.3507
381063,1560692909160,12,2.19,2.58,3.09,1.87,5.03,0.86,0.16,0.79,-14,-4,-22,0.87,8692,27,87,31,38,830,704.0,601,459,60,118.0,107,1,317,209,74,0,0,694,11069,-3578,678,,,,,,,,,,,,
381083,1560692909180,11,2.19,2.54,3.16,1.83,5.08,0.89,0.34,0.66,-15,-7,-21,0.96,8782,27,87,31,38,819,700.0,595,460,60,118.0,107,1,317,209,74,0,0,673,-2830,3,674,,,,,,,,,,,,
381103,1560692909198,12,2.2,2.53,3.22,1.81,5.04,0.83,0.51,0.57,-14,-5,-20,0.97,8997,27,87,31,37,810,695.0,612,463,60,118.0,104,1,314,205,70,0,0,669,11576,17740,669,,,,,,,,,,,,
381123,1560692909218,15,2.21,2.49,3.27,1.78,5.06,0.84,0.66,0.52,-14,-4,-20,1.07,9075,26,87,31,35,813,691.0,619,460,60,117.0,104,1,308,202,70,0,0,677,11576,-16179,666,,,,,,,,,,,,
381143,1560692909238,13,2.22,2.48,3.26,1.78,5.05,0.91,0.8,0.45,-14,-4,-20,1.21,9173,26,87,31,34,815,688.0,621,460,60,117.0,104,1,305,197,70,0,0,675,24,30227,661,45.701736,4.910739,68.43,197.5,3,1.6,0,0.0,0.24,4,0.21,6.3524
381163,1560692909258,16,2.23,2.48,3.22,1.8,5.04,0.92,0.84,0.51,-14,-5,-20,1.25,9186,26,87,31,33,828,682.0,623,457,60,117.0,104,1,302,193,70,0,0,680,3543,16529,653,,,,,,,,,,,,
381183,1560692909278,15,2.23,2.48,3.18,1.78,5.05,1.03,0.7,0.51,-14,-3,-21,1.25,9200,26,87,31,33,840,678.0,628,455,60,117.0,104,1,302,195,70,0,0,679,-2345,26688,652,,,,,,,,,,,,
381203,1560692909300,17,2.23,2.48,3.16,1.78,5.07,1.04,0.43,0.58,-14,-5,-21,1.13,9200,25,87,31,32,845,668.0,619,458,60,117.0,103,1,300,191,67,0,0,675,-388,771,641,,,,,,,,,,,,
381223,1560692909320,18,2.22,2.47,3.14,1.77,5.07,1.09,0.26,0.56,-13,-3,-22,1.12,9159,25,87,31,32,849,661.0,616,455,60,117.0,103,1,300,191,67,0,0,667,-2345,-10251,638,,,,,,,,,,,,
381243,1560692909340,19,2.23,2.45,3.13,1.76,5.07,1.01,0.2,0.51,-12,-3,-24,1.03,9084,25,87,31,31,842,661.0,615,457,60,118.0,103,1,295,188,67,0,0,665,-2345,244,640,45.701756,4.910727,66.87,197.5,3,1.6,0,0.0,0.2417,4,0.22,6.3541
381263,1560692909360,17,2.23,2.42,3.13,1.76,5.06,1.05,0.19,0.5,-12,-0,-24,1.07,8894,25,87,31,31,833,657.0,607,450,60,116.0,103,1,295,188,67,0,0,659,8958,8958,644,,,,,,,,,,,,
381283,1560692909380,18,2.22,2.41,3.15,1.77,5.05,1.09,-0.03,0.51,-11,-0,-24,1.09,8733,25,87,31,31,819,653.0,606,455,60,117.0,103,1,295,188,67,0,0,656,-3488,-388,636,,,,,,,,,,,,
381303,1560692909400,19,2.23,2.4,3.2,1.76,5.08,1.12,-0.09,0.47,-10,1,-22,1.13,8648,24,87,31,31,806,647.0,601,457,60,117.0,96,1,295,188,61,0,0,643,-8429,-2580,631,,,,,,,,,,,,
381323,1560692909420,19,2.23,2.38,3.22,1.77,5.04,1.03,0.12,0.38,-10,1,-20,1.04,8542,24,87,31,31,799,643.0,603,460,60,118.0,96,1,295,188,61,0,0,638,244,-1346,631,,,,,,,,,,,,
381343,1560692909440,17,2.24,2.37,3.24,1.77,5.07,1.05,0.19,0.3,-10,1,-19,1.07,8484,24,87,31,31,794,638.0,607,460,60,118.0,96,1,294,187,61,0,0,633,16599,3395,625,45.701767,4.910715,65.07,197.4,3,1.6,0,0.0,0.2433,4,0.22,6.3557
381363,1560692909460,16,2.24,2.35,3.27,1.77,5.06,1.03,0.09,0.38,-9,1,-16,1.04,8426,24,87,31,31,791,633.0,600,457,60,117.0,96,1,294,187,61,0,0,627,-5120,269,621,,,,,,,,,,,,
381383,1560692909480,18,2.24,2.34,3.27,1.77,5.08,1.02,0.21,0.18,-9,1,-15,1.04,8415,23,87,31,31,789,626.0,593,460,60,119.0,96,1,294,183,61,0,0,624,-18357,17740,615,,,,,,,,,,,,
381403,1560692909500,18,2.25,2.3,3.27,1.75,5.04,1.04,0.22,0.18,-8,3,-14,1.06,8187,23,87,31,32,792,624.0,595,455,60,119.0,92,1,293,176,57,0,0,615,3395,-3446,613,,,,,,,,,,,,
381423,1560692909520,18,2.23,2.26,3.27,1.73,5.06,1.03,0.33,0.04,-7,1,-14,1.08,7958,23,87,31,32,796,620.0,578,458,60,119.0,92,1,290,169,57,0,0,611,17336,4956,612,,,,,,,,,,,,
381443,1560692909540,19,2.24,2.22,3.28,1.71,5.06,1.0,0.37,-0.02,-7,2,-12,1.07,7796,23,87,31,32,804,616.0,561,463,60,119.0,92,1,290,169,57,0,0,606,19304,3472,608,45.701778,4.910701,63.18,197.4,3,1.6,0,0.0,0.245,4,0.22,6.3574
381463,1560692909560,20,2.23,2.21,3.3,1.7,5.05,0.89,0.3,-0.07,-5,4,-12,0.94,7575,23,87,31,33,814,609.0,542,455,60,119.0,92,1,292,174,57,0,0,597,-30139,-16384,600,,,,,,,,,,,,
381483,1560692909580,19,2.24,2.2,3.32,1.72,5.03,1.01,0.19,-0.06,-5,1,-12,1.02,7413,23,87,31,34,822,602.0,531,460,60,118.0,92,1,295,179,57,0,0,596,243,15649,593,,,,,,,,,,,,
381503,1560692909600,22,2.24,2.19,3.32,1.72,5.08,0.77,0.29,-0.26,-3,3,-12,0.82,7261,23,87,31,35,828,594.0,522,443,60,117.0,82,1,298,281,49,0,0,536,-13043,-28648,585,,,,,,,,,,,,
381523,1560692909620,23,2.23,2.15,3.34,1.71,5.05,0.58,0.46,-0.43,-2,13,-13,0.73,7321,23,87,31,35,838,587.0,516,460,60,117.0,82,1,298,261,49,0,0,484,208,16648,581,,,,,,,,,,,,
381543,1560692909640,24,2.24,2.07,3.38,1.68,5.04,0.6,0.54,-0.44,-3,8,-10,0.81,7674,22,87,31,35,851,583.0,537,457,60,118.0,82,1,298,239,49,0,0,492,15649,6193,574,45.701794,4.910688,60.96,197.4,3,1.6,0,0.0,0.2467,4,0.22,6.359
381563,1560692909660,24,2.25,2.06,3.43,1.68,5.04,0.66,0.59,-0.54,-3,9,-11,0.88,7961,22,87,31,36,860,577.0,548,460,60,117.0,82,1,301,218,49,0,0,418,259,-3968,566,,,,,,,,,,,,
381583,1560692909680,22,2.24,2.05,3.44,1.69,5.03,0.79,0.53,-0.45,-4,5,-12,0.96,8009,22,87,31,36,868,566.0,560,456,60,117.0,82,1,301,205,49,0,0,412,-2934,-18948,560,,,,,,,,,,,,
381603,1560692909700,21,2.26,2.05,3.46,1.69,5.05,0.79,0.48,-0.41,-4,6,-12,0.92,7965,22,87,31,36,924,564.0,577,460,60,117.0,104,1,301,191,58,0,0,410,12552,-6458,552,,,,,,,,,,,,
381623,1560692909720,24,2.25,2.06,3.46,1.7,5.04,0.87,0.47,-0.39,-4,6,-12,0.99,8005,22,87,31,35,1029,559.0,568,460,60,117.0,104,1,298,186,58,0,0,423,2216,2790,547,,,,,,,,,,,,
381643,1560692909740,19,2.27,2.07,3.44,1.71,5.05,0.98,0.35,-0.42,-5,2,-12,1.05,7995,22,87,31,35,1132,550.0,572,458,60,117.0,104,1,298,185,58,0,0,425,-32248,0,537,45.701801,4.910676,58.22,197.4,3,1.6,0,0.0,0.2483,4,0.22,6.3607
381663,1560692909760,23,2.26,2.06,3.44,1.71,5.03,1.03,0.33,-0.34,-6,1,-13,1.08,7948,22,87,31,35,1230,540.0,582,457,60,118.0,104,1,298,185,58,0,0,463,-8186,2524,530,,,,,,,,,,,,
381683,1560692909780,25,2.26,2.07,3.44,1.7,5.04,0.98,0.3,-0.39,-6,2,-11,1.03,7971,22,87,31,35,1299,535.0,573,461,60,118.0,104,1,298,185,58,0,0,489,6274,-7939,525,,,,,,,,,,,,
381703,1560692909800,21,2.27,2.07,3.41,1.7,5.04,1.09,0.18,-0.31,-6,-1,-11,1.1,7965,22,87,31,35,1338,528.0,561,458,60,117.0,107,1,298,185,56,0,0,501,-28648,-18341,519,,,,,,,,,,,,
381723,1560692909820,21,2.27,2.06,3.41,1.68,5.06,1.18,0.15,-0.19,-6,-1,-10,1.19,7911,22,87,31,35,1353,519.0,570,458,60,118.0,107,1,298,185,56,0,0,509,-8187,-6387,515,,,,,,,,,,,,
381743,1560692909840,21,2.28,2.04,3.4,1.67,5.06,1.11,0.17,-0.24,-6,-2,-8,1.12,8057,22,87,31,35,1294,516.0,557,458,60,118.0,107,1,299,187,56,0,0,473,16383,243,509,45.701817,4.910664,55.07,197.3,3,1.6,0,0.0,0.25,4,0.22,6.3624
381763,1560692909860,18,2.28,2.01,3.46,1.66,5.06,1.2,0.15,-0.23,-5,-1,-8,1.21,8249,22,87,31,35,1221,508.0,571,459,60,117.0,107,1,302,191,56,0,0,413,-3414,-19019,506,,,,,,,,,,,,
381783,1560692909880,21,2.28,1.98,3.48,1.68,5.06,1.11,0.16,-0.25,-5,-0,-7,1.12,8245,22,87,31,34,1119,504.0,575,455,60,118.0,107,1,299,186,56,0,0,387,-32248,-992,503,,,,,,,,,,,,
381803,1560692909899,18,2.28,1.98,3.47,1.7,5.06,1.17,0.12,-0.22,-4,-0,-7,1.17,8249,22,87,31,34,1028,496.0,581,460,60,117.0,116,1,299,188,58,0,0,401,998,-3866,495,,,,,,,,,,,,
381823,1560692909919,23,2.27,1.98,3.45,1.71,5.04,1.04,0.2,-0.32,-3,-1,-5,1.06,8256,22,87,31,33,984,490.0,514,458,60,118.0,116,1,297,182,58,0,0,425,-1562,-1818,486,,,,,,,,,,,,
