"Interval"|"ms"|0|0|1,"Utc"|"ms"|0|0|1,"FB_p"|"bar"|0|300|50,"Volant"|"F"|0.0|300.0|50,"xFR"|"mm"|0.0|5.0|50,"xRR"|"mm"|0.0|5.0|50,"xFL"|"mm"|0.0|5.0|50,"xRL"|"mm"|0.0|5.0|50,"AccelX"|"G"|-3.0|3.0|50,"AccelY"|"G"|-3.0|3.0|50,"AccelZ"|"G"|-3.0|3.0|50,"Yaw"|"Deg/Sec"|-120|120|50,"Pitch"|"Deg/Sec"|-120|120|50,"Roll"|"Deg/Sec"|-120|120|50,"Gsum"|"G"|0.0|3.0|50,"RPM"|""|0|14000|50,"TPS"|"%"|0|100|50,"WaterTemp"|"?C"|0|300|50,"AirTemp"|"?C"|-1000|1000|50,"MAP"|"KPa"|0|255|50,"Lambda"|""|0|1024|50,"WheelSpeed"|"MPH"|0.0|150.0|50,"OilPress"|"PSI"|0|150|50,"FuelPress"|"PSI"|0|150|50,"OilTemp"|"F"|0|300|50,"Battery"|"Volts"|0.0|20.0|50,"FuelCon"|"L/h"|-1000|1000|50,"Gear"|""|0|10|50,"Advance"|"Deg"|-360|360|50,"Injection"|"ms"|-1000|1000|50,"FuelCon"|"L/100km"|-1000|1000|50,"LC_But_Pres"|""|-1000|1000|50,"LC_Active"|""|-1000|1000|50,"RD_Speed"|""|-1000|1000|50,"RUD_Speed"|""|-1000|1000|50,"LD_Speed"|""|-1000|1000|50,"LUD_Speed"|""|-1000|1000|50,"Latitude"|"Degrees"|-180.0|180.0|10,"Longitude"|"Degrees"|-180.0|180.0|10,"Speed"|"kph"|0.0|150.0|10,"Altitude"|"m"|0.0|4000.0|10,"LapCount"|""|0|0|10,"LapTime"|"Min"|0.0|0.0|10,"Sector"|""|0|0|10,"SectorTime"|"Min"|0.0|0.0|10,"ElapsedTime"|"Min"|0.0|0.0|10,"CurrentLap"|""|0|0|10,"Distance"|"km"|0.0|0.0|10,"SessionTime"|"Min"|0.0|0.0|10
32563,1560695108702,10,2.27,1.85,3.43,1.69,5.08,0.61,-0.01,-0.13,6,4,0,0.61,7295,5,88,34,20,500,548.0,603,461,60,121.0,72,1,262,146,41,0,0,535,-8962,-28648,547,,,,,,,,,,,,
32583,1560695108722,11,2.27,1.84,3.44,1.68,5.08,0.75,-0.06,-0.09,4,1,-1,0.75,7222,5,88,34,20,500,545.0,604,463,60,121.0,72,1,262,146,41,0,0,534,1779,14504,543,,,,,,,,,,,,
32603,1560695108742,10,2.26,1.85,3.41,1.68,5.06,0.88,-0.08,0.0,2,1,1,0.88,7194,5,88,34,20,500,541.0,595,465,60,119.0,73,1,261,146,40,0,0,526,-2336,-32248,541,,,,,,,,,,,,
32623,1560695108762,12,2.27,1.84,3.41,1.69,5.05,0.92,-0.18,0.06,2,-0,3,0.94,7145,5,88,34,20,500,539.0,594,462,60,120.0,73,1,261,146,40,0,0,519,-32248,-9212,539,,,,,,,,,,,,
32643,1560695108782,12,2.26,1.85,3.41,1.68,5.05,0.89,-0.15,0.1,2,-1,4,0.91,7064,5,88,34,20,501,532.0,583,458,60,121.0,73,1,260,146,40,0,0,525,2524,6274,532,45.70079,4.909634,55.19,196.7,0,0.0,0,0.0,0.0383,1,0.05,0.544
32663,1560695108804,9,2.27,1.84,3.41,1.71,5.04,0.84,-0.03,0.01,2,1,3,0.84,7038,5,88,34,21,500,527.0,585,465,60,121.0,73,1,260,149,40,0,0,519,2088,17136,527,,,,,,,,,,,,
32683,1560695108824,12,2.26,1.85,3.4,1.7,5.03,0.93,-0.06,0.03,2,-2,3,0.93,6936,5,88,34,21,501,525.0,589,460,60,120.0,73,1,260,148,40,0,0,513,10408,-28648,525,,,,,,,,,,,,
32703,1560695108844,7,2.28,1.85,3.4,1.7,5.05,0.81,-0.06,-0.06,2,1,1,0.81,6883,5,88,34,21,501,524.0,581,464,60,121.0,74,1,260,148,39,0,0,509,2524,-3856,524,,,,,,,,,,,,
32723,1560695108864,3,2.28,1.85,3.39,1.7,5.07,0.88,-0.05,-0.04,2,-1,0,0.89,6860,5,88,34,21,501,521.0,570,462,60,120.0,74,1,260,148,39,0,0,503,15679,2109,521,,,,,,,,,,,,
32743,1560695108884,7,2.27,1.85,3.39,1.7,5.04,0.9,-0.17,-0.06,2,-1,1,0.92,6843,5,88,34,21,501,516.0,567,461,60,121.0,74,1,260,147,39,0,0,506,26178,-32248,516,45.700802,4.909642,53.25,196.7,0,0.0,0,0.0,0.04,1,0.05,0.5457
32763,1560695108904,2,2.28,1.85,3.39,1.71,5.05,0.89,-0.07,-0.09,2,1,2,0.9,6830,5,88,34,22,501,514.0,573,464,60,119.0,74,1,260,150,39,0,0,502,10994,2524,514,,,,,,,,,,,,
32783,1560695108924,6,2.28,1.85,3.39,1.72,5.07,0.97,-0.18,0.01,1,0,3,0.99,6820,5,88,34,22,501,512.0,565,460,60,121.0,74,1,260,147,39,0,0,501,-4054,15661,512,,,,,,,,,,,,
32803,1560695108944,0,2.27,1.87,3.37,1.76,5.07,0.89,-0.08,-0.07,1,3,4,0.89,6808,5,88,34,22,501,509.0,566,462,60,121.0,74,1,260,150,38,0,0,499,-21872,-9216,509,,,,,,,,,,,,
32823,1560695108964,4,2.28,1.9,3.34,1.8,5.05,1.0,-0.13,0.12,1,-0,4,1.0,6783,5,88,34,22,501,506.0,572,459,60,120.0,74,1,260,150,38,0,0,500,6274,15661,505,,,,,,,,,,,,
32843,1560695108984,-0,2.28,1.92,3.33,1.8,5.06,0.89,-0.08,0.07,1,1,4,0.89,6751,5,88,34,22,501,504.0,575,466,60,120.0,74,1,260,150,38,0,0,493,15661,-9216,504,45.700813,4.90965,51.04,196.6,0,0.0,0,0.0,0.0417,1,0.05,0.5474
32863,1560695108998,4,2.28,1.93,3.33,1.8,5.07,0.99,-0.11,0.17,0,-1,5,1.0,6725,5,88,34,22,501,503.0,565,462,60,121.0,74,1,260,150,38,0,0,496,-22519,771,503,,,,,,,,,,,,
32883,1560695109018,1,2.26,1.97,3.34,1.81,5.04,0.93,-0.05,0.14,1,0,5,0.93,6696,5,88,34,22,501,500.0,563,461,60,121.0,74,1,261,150,38,0,0,488,3,-32768,499,,,,,,,,,,,,
32903,1560695109038,4,2.26,1.98,3.35,1.79,5.05,0.93,-0.11,0.21,1,-0,3,0.94,6660,5,88,34,22,501,497.0,557,463,60,120.0,74,1,261,149,37,0,0,488,-9216,-6656,497,,,,,,,,,,,,
32923,1560695109058,2,2.26,1.98,3.39,1.78,5.04,0.9,-0.01,0.23,1,-0,1,0.9,6597,5,88,34,22,501,497.0,560,461,60,120.0,74,1,261,152,37,0,0,484,771,-1818,493,,,,,,,,,,,,
32943,1560695109078,3,2.27,1.98,3.39,1.77,5.04,0.91,-0.09,0.24,1,-3,-0,0.91,6562,5,88,34,22,501,496.0,553,455,60,121.0,74,1,261,152,37,0,0,488,3,505,491,45.700825,4.909658,49.63,196.6,0,0.0,0,0.0,0.0433,1,0.05,0.549
32963,1560695109104,7,2.27,1.98,3.38,1.75,5.07,0.9,-0.08,0.22,0,-1,-1,0.91,6544,5,88,34,23,501,493.0,550,467,60,121.0,74,1,262,152,37,0,0,479,-6528,16648,490,,,,,,,,,,,,
32983,1560695109124,3,2.26,1.97,3.39,1.75,5.03,0.88,0.05,0.17,1,-0,-1,0.88,6544,4,88,35,23,501,489.0,552,461,60,121.0,74,1,262,151,37,0,0,479,-6656,16648,489,,,,,,,,,,,,
33003,1560695109144,5,2.27,1.97,3.38,1.77,5.04,0.95,-0.07,0.23,1,-2,0,0.95,6524,4,88,35,23,501,487.0,552,457,60,121.0,75,1,262,151,37,0,0,481,-10483,-23367,486,,,,,,,,,,,,
33023,1560695109164,8,2.27,2.0,3.36,1.79,5.04,0.92,-0.02,0.25,1,-1,1,0.92,6472,4,88,35,23,501,484.0,553,463,60,120.0,75,1,263,151,37,0,0,478,-10483,3576,484,,,,,,,,,,,,
33043,1560695109184,1,2.27,2.03,3.35,1.81,5.06,0.9,0.06,0.19,1,0,2,0.9,6441,4,88,35,23,501,482.0,552,466,60,119.0,75,1,263,151,37,0,0,477,-899,10305,480,45.700836,4.909665,48.44,196.6,0,0.0,0,0.0,0.045,1,0.06,0.5507
33063,1560695109204,3,2.27,2.04,3.34,1.8,5.07,0.92,0.0,0.22,1,0,-0,0.92,6414,4,88,35,23,501,479.0,548,462,60,122.0,75,1,263,151,37,0,0,474,16648,-9203,479,,,,,,,,,,,,
33083,1560695109224,7,2.27,2.03,3.32,1.8,5.05,1.02,-0.03,0.29,1,-2,-2,1.02,6394,4,88,35,24,501,477.0,541,461,60,120.0,75,1,265,154,37,0,0,467,-17956,-1923,477,,,,,,,,,,,,
33103,1560695109244,6,2.27,2.0,3.34,1.79,5.05,0.98,-0.02,0.24,1,-2,-1,0.99,6379,4,88,35,24,501,474.0,539,462,60,120.0,77,1,265,154,37,0,0,464,-9203,-16384,473,,,,,,,,,,,,
33123,1560695109264,2,2.28,1.98,3.34,1.77,5.07,0.93,-0.03,0.12,1,0,-1,0.93,6323,4,88,35,24,501,472.0,536,461,60,121.0,77,1,265,154,37,0,0,466,-1923,243,474,,,,,,,,,,,,
33143,1560695109284,3,2.28,1.98,3.35,1.76,5.07,0.97,-0.12,0.18,1,-1,-1,0.98,6262,4,88,35,24,501,471.0,533,462,60,121.0,77,1,266,154,37,0,0,463,8488,2211,469,45.700844,4.909672,47.46,196.5,0,0.0,0,0.0,0.0467,1,0.06,0.5524
33163,1560695109304,3,2.29,1.98,3.35,1.77,5.06,0.97,-0.1,0.24,0,-3,-3,0.97,6243,4,88,35,24,502,468.0,523,462,60,122.0,77,1,266,154,37,0,0,462,243,14488,468,,,,,,,,,,,,
33183,1560695109324,5,2.29,1.98,3.34,1.79,5.05,0.96,0.04,0.23,0,-3,-2,0.96,6241,4,88,35,24,502,467.0,524,462,60,121.0,77,1,266,154,37,0,0,459,30272,-9160,467,,,,,,,,,,,,
33203,1560695109344,7,2.28,1.99,3.34,1.82,5.04,0.9,0.18,0.24,1,-2,-2,0.92,6218,4,88,35,25,502,465.0,528,460,60,120.0,79,1,269,158,37,0,0,457,6193,6193,465,,,,,,,,,,,,
33223,1560695109364,7,2.28,1.98,3.34,1.84,5.04,0.88,0.18,0.2,2,1,-2,0.9,6169,4,88,35,25,501,463.0,529,460,60,120.0,79,1,269,158,37,0,0,453,17628,-26615,464,,,,,,,,,,,,
33243,1560695109384,1,2.29,1.98,3.34,1.85,5.06,0.91,0.08,0.14,2,1,-3,0.91,6147,4,88,35,25,501,459.0,531,455,60,120.0,79,1,269,158,37,0,0,454,14488,-6387,459,45.700855,4.90968,46.29,196.5,0,0.0,0,0.0,0.0483,1,0.06,0.5541
33263,1560695109404,3,2.28,1.99,3.34,1.89,5.05,0.99,-0.09,0.12,1,1,-1,1.0,6115,4,88,35,25,501,456.0,523,457,60,121.0,79,1,269,158,37,0,0,452,-8985,15649,456,,,,,,,,,,,,
33283,1560695109424,4,2.28,1.98,3.34,1.87,5.04,1.09,-0.21,0.19,1,1,1,1.11,6073,4,88,35,25,500,453.0,521,457,60,121.0,79,1,270,158,37,0,0,447,-8985,15649,453,,,,,,,,,,,,
33303,1560695109444,4,2.29,1.97,3.35,1.86,5.08,1.14,-0.29,0.26,-1,-1,1,1.18,6011,4,88,35,25,500,452.0,519,459,60,122.0,79,1,270,158,36,0,0,442,-3267,16648,452,,,,,,,,,,,,
33323,1560695109464,3,2.29,1.97,3.34,1.84,5.04,1.23,-0.36,0.34,-3,-3,-0,1.28,5975,4,88,35,25,500,450.0,521,462,60,122.0,79,1,269,159,36,0,0,443,15649,10305,450,,,,,,,,,,,,
33343,1560695109484,4,2.28,1.97,3.33,1.83,5.04,1.31,-0.36,0.33,-5,-6,-1,1.36,5961,4,88,35,26,500,448.0,512,462,60,121.0,79,1,271,159,36,0,0,438,16648,23400,447,45.700867,4.909687,45.27,196.4,0,0.0,0,0.0,0.05,1,0.06,0.5557
33363,1560695109504,4,2.29,1.97,3.33,1.82,5.05,1.38,-0.4,0.37,-6,-6,-1,1.44,5961,4,88,35,26,500,443.0,509,462,60,121.0,79,1,271,159,36,0,0,436,-18341,-3322,442,,,,,,,,,,,,
33383,1560695109524,4,2.29,1.98,3.37,1.85,5.04,1.45,-0.45,0.37,-8,-6,-0,1.51,5903,4,88,35,27,500,441.0,507,461,60,121.0,79,1,274,160,36,0,0,433,-28332,1779,441,,,,,,,,,,,,
33403,1560695109544,5,2.28,1.98,3.42,1.84,5.08,1.5,-0.52,0.41,-9,-5,1,1.59,5824,4,88,35,28,500,438.0,504,461,60,121.0,79,1,275,161,35,0,0,431,21580,-768,437,,,,,,,,,,,,
33423,1560695109564,10,2.26,1.98,3.37,1.86,5.04,1.56,-0.57,0.43,-9,-5,0,1.66,5756,4,88,35,28,500,435.0,498,458,60,119.0,79,1,274,161,35,0,0,428,243,31796,435,,,,,,,,,,,,
33443,1560695109584,9,2.28,1.98,3.38,1.85,5.05,1.46,-0.59,0.37,-8,-2,0,1.57,5749,4,88,35,28,500,433.0,493,459,60,120.0,79,1,274,161,35,0,0,422,3635,3635,432,45.700878,4.909694,43.97,196.4,0,0.0,0,0.0,0.0517,1,0.06,0.5574
33463,1560695109604,6,2.28,1.97,3.36,1.82,5.05,1.29,-0.54,0.35,-4,-0,1,1.4,5732,4,88,35,28,500,430.0,486,462,60,121.0,79,1,274,161,35,0,0,423,13180,31796,430,,,,,,,,,,,,
33483,1560695109624,6,2.28,1.96,3.34,1.79,5.07,1.15,-0.39,0.32,-1,-2,0,1.21,5730,4,88,35,29,501,427.0,484,463,60,122.0,79,1,276,162,35,0,0,419,-3856,18584,427,,,,,,,,,,,,
33503,1560695109644,6,2.27,1.94,3.34,1.78,5.06,1.18,-0.34,0.34,-2,-4,-1,1.23,5735,4,88,35,29,501,422.0,485,464,60,121.0,81,1,276,162,35,0,0,415,-8165,-26615,423,,,,,,,,,,,,
33523,1560695109664,12,2.27,1.94,3.35,1.77,5.05,1.26,-0.39,0.33,-4,-4,-1,1.32,5671,4,88,35,29,501,421.0,480,468,60,120.0,81,1,275,161,35,0,0,413,-21944,2524,421,,,,,,,,,,,,
33543,1560695109684,11,2.27,1.95,3.36,1.78,5.06,1.21,-0.41,0.34,-4,-0,-2,1.28,5597,4,88,35,30,502,416.0,475,465,60,121.0,81,1,276,161,35,0,0,414,18584,9517,416,45.700886,4.909701,43.04,196.4,0,0.0,0,0.0,0.0533,1,0.06,0.559
33563,1560695109703,6,2.28,1.95,3.37,1.79,5.06,1.08,-0.33,0.33,-1,-1,-3,1.13,5511,4,88,35,30,502,412.0,473,453,60,122.0,81,1,275,161,35,0,0,408,13040,10392,412,,,,,,,,,,,,
33583,1560695109723,10,2.28,1.95,3.38,1.79,5.06,1.18,-0.26,0.25,-2,-2,-3,1.2,5456,4,88,35,31,502,410.0,467,465,60,119.0,81,1,276,161,35,0,0,405,9517,1504,410,,,,,,,,,,,,
33603,1560695109743,8,2.27,1.96,3.35,1.77,5.06,1.12,-0.27,0.25,-3,-0,-4,1.15,5458,4,88,35,32,501,408.0,460,471,60,121.0,80,1,279,161,33,0,0,403,10392,-8151,406,,,,,,,,,,,,
33623,1560695109763,9,2.28,1.96,3.35,1.77,5.05,0.96,-0.2,0.26,0,-2,-3,0.98,5430,4,88,35,32,502,404.0,463,456,60,122.0,80,1,278,162,33,0,0,400,1504,-1818,404,,,,,,,,,,,,
33643,1560695109783,12,2.27,1.95,3.35,1.77,5.04,1.06,-0.2,0.26,-2,-2,-2,1.08,5372,4,88,35,33,502,400.0,460,461,60,120.0,80,1,280,167,33,0,0,394,6512,-32702,400,45.700897,4.909708,41.29,196.3,0,0.0,0,0.0,0.055,1,0.06,0.5607
33663,1560695109803,9,2.26,1.95,3.36,1.78,5.06,0.87,-0.22,0.26,-0,1,-2,0.89,5308,4,88,35,33,502,398.0,453,461,60,122.0,80,1,279,167,33,0,0,390,-3968,1,397,,,,,,,,,,,,
33683,1560695109823,12,2.27,1.94,3.36,1.79,5.08,0.98,-0.16,0.24,-1,-2,-0,1.0,5256,4,88,35,34,502,394.0,455,466,60,120.0,80,1,282,172,33,0,0,390,-6656,240,394,,,,,,,,,,,,
33703,1560695109843,8,2.26,1.94,3.36,1.79,5.03,0.87,-0.26,0.23,-1,1,-0,0.91,5225,4,88,35,35,502,392.0,448,460,60,122.0,88,1,286,178,35,0,0,387,505,-19019,392,,,,,,,,,,,,
33723,1560695109863,8,2.28,1.94,3.35,1.78,5.05,0.99,-0.18,0.27,-1,-2,0,1.0,5178,3,88,35,36,502,390.0,439,461,60,120.0,88,1,289,183,35,0,0,382,-31744,-992,387,,,,,,,,,,,,
33743,1560695109883,6,2.27,1.95,3.35,1.78,5.08,0.8,-0.23,0.24,0,1,-0,0.83,5129,3,88,35,37,502,385.0,442,461,60,122.0,88,1,292,183,35,0,0,380,-19019,-992,385,45.700901,4.909714,40.01,196.3,0,0.0,0,0.0,0.0567,1,0.06,0.5624
33763,1560695109903,7,2.27,1.95,3.35,1.78,5.05,0.92,-0.08,0.22,-1,-1,-1,0.93,5122,3,88,35,37,502,383.0,442,466,60,120.0,88,1,292,189,35,0,0,378,-18948,8200,381,,,,,,,,,,,,
33783,1560695109923,3,2.28,1.95,3.34,1.78,5.05,0.74,-0.07,0.24,2,-2,1,0.74,5114,3,88,35,37,502,380.0,436,458,60,120.0,88,1,292,195,35,0,0,372,8200,-6656,381,,,,,,,,,,,,
33803,1560695109943,5,2.27,1.95,3.35,1.79,5.05,0.87,-0.1,0.34,-1,2,-0,0.88,5084,3,88,35,38,502,377.0,427,461,60,122.0,97,1,295,195,37,0,0,373,3,-6656,377,,,,,,,,,,,,
33823,1560695109963,5,2.26,1.95,3.37,1.78,5.05,0.96,0.0,0.32,1,-2,1,0.96,5041,3,88,35,38,502,376.0,430,460,60,120.0,97,1,295,202,37,0,0,368,3,486,376,,,,,,,,,,,,
33843,1560695109983,5,2.26,1.95,3.38,1.79,5.07,0.74,-0.08,0.34,1,0,1,0.75,5004,3,88,35,39,502,375.0,418,460,60,121.0,97,1,300,202,37,0,0,369,770,486,373,45.700912,4.909721,38.44,196.3,0,0.0,0,0.0,0.0583,1,0.06,0.564
33863,1560695109997,3,2.26,2.01,3.34,1.8,5.07,0.87,-0.1,0.41,-1,-0,-0,0.88,4956,3,88,35,40,502,371.0,413,467,60,121.0,97,1,297,202,37,0,0,365,257,0,370,,,,,,,,,,,,
33883,1560695110017,6,2.25,2.02,3.33,1.79,5.05,0.96,-0.01,0.31,1,-2,1,0.96,4934,3,88,35,40,502,368.0,420,458,60,119.0,97,1,297,201,37,0,0,363,0,-6458,367,,,,,,,,,,,,
33903,1560695110037,6,2.24,2.02,3.33,1.77,5.05,0.75,-0.06,0.33,2,-1,1,0.76,4926,3,87,35,40,502,367.0,412,463,60,121.0,100,1,296,201,37,0,0,360,0,2790,363,,,,,,,,,,,,
33923,1560695110057,5,2.24,2.02,3.33,1.76,5.04,0.81,-0.08,0.35,-1,2,-1,0.81,4885,3,87,35,41,503,365.0,410,463,60,122.0,100,1,296,201,37,0,0,361,-6405,-6458,362,,,,,,,,,,,,
33943,1560695110077,5,2.24,2.02,3.33,1.77,5.04,0.93,0.05,0.31,-1,-1,0,0.93,4861,3,87,35,41,502,363.0,407,465,60,122.0,100,1,295,201,37,0,0,358,3082,3302,360,45.700924,4.909727,36.8,196.2,0,0.0,0,0.0,0.06,1,0.07,0.5657
33963,1560695110103,8,2.24,2.01,3.34,1.77,5.06,0.97,0.09,0.34,-0,-3,1,0.98,4834,3,87,35,41,502,360.0,403,462,60,119.0,100,1,293,199,37,0,0,351,-14707,-6644,357,,,,,,,,,,,,
33983,1560695110123,8,2.24,2.01,3.33,1.78,5.07,0.86,0.08,0.34,1,1,-0,0.87,4777,3,87,35,41,503,357.0,409,456,60,121.0,100,1,291,198,37,0,0,353,-6640,2811,354,,,,,,,,,,,,
34003,1560695110143,6,2.23,2.02,3.33,1.77,5.05,0.77,0.1,0.27,-1,1,-2,0.78,4745,3,87,35,42,503,354.0,403,460,60,122.0,101,1,292,199,36,0,0,350,3302,2811,350,,,,,,,,,,,,
34023,1560695110163,5,2.24,2.03,3.34,1.76,5.06,0.84,0.02,0.27,-2,0,-2,0.84,4708,3,87,35,42,503,352.0,397,461,60,122.0,101,1,290,198,36,0,0,347,3183,-10554,348,,,,,,,,,,,,
34043,1560695110183,4,2.24,2.03,3.32,1.76,5.05,0.94,0.12,0.33,-3,1,-1,0.95,4685,3,87,35,42,503,349.0,394,462,60,122.0,101,1,290,197,36,0,0,345,2811,-31206,343,45.700928,4.909733,35.73,196.2,0,0.0,0,0.0,0.0617,1,0.07,0.5674
34063,1560695110203,4,2.23,2.04,3.33,1.77,5.06,1.0,0.21,0.33,-3,-1,-1,1.02,4630,3,87,35,42,503,348.0,392,463,60,121.0,101,1,287,196,36,0,0,343,8841,-31222,342,,,,,,,,,,,,
34083,1560695110223,5,2.22,2.03,3.33,1.78,5.04,1.07,0.33,0.28,-3,-1,-3,1.12,4576,3,87,35,42,503,345.0,389,467,60,121.0,101,1,285,194,36,0,0,341,6870,13,340,,,,,,,,,,,,
34103,1560695110243,6,2.21,2.04,3.33,1.77,5.04,1.14,0.41,0.27,-2,-4,-2,1.21,4564,3,87,35,42,503,343.0,383,465,60,121.0,97,1,285,194,33,0,0,337,-14714,13,338,,,,,,,,,,,,
34123,1560695110263,8,2.21,2.02,3.32,1.75,5.07,1.2,0.45,0.29,-2,-5,-1,1.28,4544,3,87,35,42,503,340.0,382,458,60,120.0,97,1,284,193,33,0,0,332,-122,-12032,336,,,,,,,,,,,,
34143,1560695110283,5,2.2,2.03,3.32,1.75,5.05,1.21,0.45,0.33,-1,-6,-1,1.29,4508,3,87,35,43,503,337.0,382,465,60,121.0,97,1,286,195,33,0,0,333,2560,-20736,332,45.700935,4.909739,34.76,196.2,0,0.0,0,0.0,0.0633,1,0.07,0.569
34163,1560695110299,4,2.19,2.03,3.32,1.75,5.04,1.21,0.49,0.28,-1,-7,-1,1.31,4464,3,87,35,42,503,335.0,380,458,60,120.0,97,1,280,191,33,0,0,331,3346,-22016,327,,,,,,,,,,,,
34183,1560695110319,3,2.19,2.03,3.3,1.75,5.05,1.25,0.53,0.26,-1,-8,-1,1.36,4404,3,87,35,43,503,335.0,371,462,60,120.0,97,1,283,193,33,0,0,331,3346,160,325,,,,,,,,,,,,
34203,1560695110339,5,2.17,2.03,3.3,1.75,5.06,1.28,0.59,0.24,-1,-8,-1,1.41,4397,3,87,35,43,503,332.0,371,459,60,121.0,98,1,282,192,32,0,0,327,-32559,145,323,,,,,,,,,,,,
34223,1560695110359,3,2.18,2.03,3.3,1.74,5.05,1.3,0.63,0.28,-2,-9,-1,1.44,4389,3,87,35,43,503,330.0,365,464,60,121.0,98,1,282,192,32,0,0,325,175,145,319,,,,,,,,,,,,
34243,1560695110379,4,2.16,2.04,3.3,1.76,5.04,1.32,0.6,0.31,-3,-8,-4,1.45,4353,3,87,35,43,503,327.0,365,466,60,122.0,98,1,281,191,32,0,0,324,-22016,135,318,45.700943,4.909744,33.23,196.1,0,0.0,0,0.0,0.065,1,0.07,0.5707
34263,1560695110405,4,2.16,2.04,3.3,1.77,5.08,1.28,0.55,0.31,-4,-7,-6,1.39,4296,3,87,35,42,503,327.0,356,463,60,122.0,98,1,275,186,32,0,0,322,165,125,315,,,,,,,,,,,,
34283,1560695110425,7,2.15,2.06,3.28,1.76,5.05,1.23,0.49,0.29,-5,-4,-7,1.32,4284,3,87,35,42,503,326.0,359,462,60,122.0,98,1,275,185,32,0,0,321,165,32000,313,,,,,,,,,,,,
34303,1560695110445,5,2.15,2.06,3.26,1.75,5.07,1.16,0.45,0.29,-5,-2,-8,1.24,4248,3,87,35,42,503,324.0,358,460,60,120.0,95,1,274,184,30,0,0,321,-24576,125,311,,,,,,,,,,,,
34323,1560695110465,2,2.14,2.06,3.26,1.74,5.06,1.11,0.43,0.26,-5,-1,-9,1.19,4247,3,87,35,42,503,322.0,353,462,60,120.0,95,1,274,184,30,0,0,320,155,28160,308,,,,,,,,,,,,
34343,1560695110485,1,2.14,2.09,3.25,1.75,5.07,1.15,0.42,0.27,-6,-2,-9,1.23,4239,3,87,35,42,503,322.0,352,462,60,121.0,95,1,273,184,30,0,0,316,-25856,105,307,45.700951,4.90975,32.05,196.1,0,0.0,0,0.0,0.0667,1,0.07,0.5724
34363,1560695110503,-0,2.14,2.1,3.25,1.76,5.05,1.23,0.41,0.33,-6,-4,-10,1.29,4217,3,87,35,43,503,321.0,346,464,60,122.0,95,1,277,184,30,0,0,317,-25856,26880,304,,,,,,,,,,,,
34383,1560695110523,1,2.15,2.09,3.24,1.77,5.07,1.26,0.33,0.38,-7,-3,-11,1.31,4202,3,87,36,42,503,319.0,350,463,60,122.0,95,1,272,184,30,0,0,317,-27136,28160,303,,,,,,,,,,,,
34403,1560695110543,3,2.14,2.11,3.22,1.77,5.04,1.17,0.29,0.36,-8,-0,-12,1.2,4176,3,87,36,42,503,317.0,346,464,60,121.0,92,1,271,183,28,0,0,314,-28416,100,302,,,,,,,,,,,,
34423,1560695110563,-0,2.14,2.11,3.22,1.78,5.04,1.11,0.28,0.33,-8,0,-12,1.14,4164,3,87,36,42,503,316.0,349,463,60,119.0,92,1,271,182,28,0,0,314,140,95,302,,,,,,,,,,,,
34443,1560695110583,-2,2.15,2.11,3.21,1.78,5.05,1.09,0.31,0.34,-8,-1,-11,1.13,4129,3,87,36,42,503,316.0,343,461,60,121.0,92,1,269,181,28,0,0,313,140,90,300,45.700958,4.909754,30.8,196.1,0,0.0,0,0.0,0.0683,1,0.07,0.574
34463,1560695110602,-1,2.15,2.11,3.22,1.78,5.08,1.1,0.32,0.37,-8,-2,-12,1.15,4100,3,87,36,42,504,315.0,342,460,60,122.0,92,1,268,180,28,0,0,311,-29696,24320,300,,,,,,,,,,,,
34483,1560695110622,3,2.15,2.11,3.2,1.79,5.04,1.05,0.3,0.36,-9,0,-12,1.09,4118,3,87,36,42,503,313.0,341,462,60,120.0,92,1,268,181,28,0,0,312,-30976,21760,299,,,,,,,,,,,,
34503,1560695110642,-0,2.16,2.11,3.21,1.78,5.08,0.97,0.32,0.37,-9,1,-12,1.02,4139,3,87,36,42,503,312.0,346,465,60,121.0,93,1,270,181,28,0,0,308,130,90,297,,,,,,,,,,,,
34523,1560695110662,-2,2.18,2.11,3.21,1.79,5.07,0.99,0.32,0.39,-9,-1,-11,1.04,4134,3,87,36,42,503,311.0,338,461,60,122.0,93,1,269,181,28,0,0,308,-32256,85,296,,,,,,,,,,,,
34543,1560695110682,0,2.19,2.1,3.21,1.8,5.04,1.01,0.29,0.45,-9,-1,-12,1.05,4116,3,87,36,42,504,308.0,344,463,60,122.0,93,1,268,181,28,0,0,309,120,21760,297,45.700962,4.909759,30.08,196.0,0,0.0,0,0.0,0.07,1,0.07,0.5757
34563,1560695110702,3,2.2,2.11,3.21,1.8,5.05,0.96,0.24,0.45,-9,1,-12,0.99,4090,3,87,36,42,503,309.0,344,462,60,121.0,93,1,268,180,28,0,0,306,32000,23040,297,,,,,,,,,,,,
34583,1560695110722,0,2.23,2.11,3.21,1.85,5.04,0.93,0.21,0.41,-9,2,-11,0.95,4051,3,87,36,42,503,308.0,338,464,60,120.0,93,1,266,179,28,0,0,305,29440,90,296,,,,,,,,,,,,
34603,1560695110742,-2,2.26,2.11,3.21,1.88,5.06,0.95,0.2,0.4,-8,-1,-9,0.97,4041,3,87,36,43,503,305.0,338,459,60,122.0,91,1,271,178,27,0,0,301,29440,85,296,,,,,,,,,,,,
34623,1560695110762,4,2.28,2.1,3.23,1.88,5.05,0.89,0.12,0.43,-7,0,-9,0.9,4040,4,87,36,43,503,301.0,334,460,60,122.0,91,1,271,178,27,0,0,299,26880,24320,296,,,,,,,,,,,,
34643,1560695110782,0,2.3,2.09,3.25,1.89,5.07,0.87,0.09,0.42,-6,1,-8,0.88,4047,5,87,36,43,503,299.0,335,465,60,120.0,91,1,271,182,27,0,0,298,25600,23040,297,45.70097,4.909762,29.46,196.0,0,0.0,0,0.0,0.0717,1,0.07,0.5774
34663,1560695110802,-2,2.34,2.06,3.27,1.89,5.05,0.91,0.06,0.45,-5,-1,-6,0.91,4052,7,87,36,43,503,298.0,333,462,60,122.0,91,1,271,183,27,0,0,293,24320,23040,298,,,,,,,,,,,,
34683,1560695110822,5,2.36,2.04,3.28,1.92,5.04,0.88,0.04,0.47,-4,-1,-6,0.88,4054,11,87,36,44,503,299.0,336,461,60,122.0,91,1,276,186,27,0,0,296,85,25600,300,,,,,,,,,,,,
34703,1560695110842,1,2.38,2.03,3.31,1.94,5.04,0.85,-0.02,0.47,-3,-0,-6,0.85,4014,13,87,36,45,503,300.0,331,462,60,119.0,93,1,280,189,28,0,0,288,21760,26880,300,,,,,,,,,,,,
34723,1560695110862,-0,2.41,2.02,3.32,1.96,5.06,0.87,-0.08,0.49,-1,-1,-4,0.88,4010,15,87,36,47,504,300.0,333,457,60,122.0,93,1,291,197,28,0,0,288,0,25600,300,,,,,,,,,,,,
34743,1560695110882,-1,2.45,2.01,3.33,2.02,5.06,0.91,-0.14,0.51,-0,-2,-1,0.92,4050,17,87,36,49,504,302.0,327,463,60,122.0,93,1,293,206,28,0,0,288,41,26880,301,45.700977,4.909766,28.72,196.0,0,0.0,0,0.0,0.0733,1,0.07,0.579
34763,1560695110902,3,2.47,2.01,3.37,2.02,5.05,0.85,-0.17,0.5,2,-0,-0,0.87,4034,18,87,36,51,504,303.0,332,463,60,120.0,93,1,295,214,28,0,0,286,10686,26880,303,,,,,,,,,,,,
34783,1560695110922,1,2.48,2.01,3.43,2.05,5.06,0.84,-0.22,0.51,4,-1,2,0.87,4056,18,87,36,53,504,303.0,330,463,60,121.0,93,1,297,222,28,0,0,283,-16896,25600,303,,,,,,,,,,,,
34803,1560695110942,-1,2.5,1.99,3.46,2.07,5.04,0.9,-0.28,0.51,5,-4,5,0.94,4138,19,87,36,55,504,304.0,331,467,60,122.0,112,1,297,231,34,0,0,280,1886,28160,304,,,,,,,,,,,,
34823,1560695110962,5,2.51,1.98,3.48,2.09,5.07,0.87,-0.33,0.52,7,-2,6,0.93,4127,19,87,36,56,504,305.0,334,461,60,121.0,112,1,296,236,34,0,0,279,250,29440,305,,,,,,,,,,,,
34843,1560695110982,1,2.54,1.98,3.49,2.12,5.04,0.82,-0.37,0.53,8,0,7,0.9,4179,20,87,36,58,504,307.0,341,460,60,120.0,112,1,294,246,34,0,0,279,-1534,110,307,45.700981,4.909769,28.68,196.0,0,0.0,0,0.0,0.075,1,0.07,0.5807
34863,1560695110996,-1,2.55,1.98,3.49,2.12,5.03,0.79,-0.42,0.51,10,-1,10,0.9,4226,20,87,36,60,503,307.0,339,458,60,120.0,112,1,293,257,34,0,0,277,630,28160,307,,,,,,,,,,,,
34883,1560695111016,-1,2.56,1.97,3.49,2.11,5.08,0.81,-0.44,0.51,12,-2,13,0.92,4219,20,87,36,61,503,308.0,340,465,60,122.0,112,1,292,262,34,0,0,277,30208,115,308,,,,,,,,,,,,
34903,1560695111036,0,2.57,1.96,3.49,2.12,5.08,0.85,-0.49,0.53,13,-4,15,0.98,4292,20,87,36,62,504,308.0,346,466,60,122.0,133,1,292,267,41,0,0,273,-1527,30720,308,,,,,,,,,,,,
34923,1560695111056,0,2.57,1.96,3.5,2.11,5.08,0.86,-0.51,0.55,14,-4,17,1.0,4325,20,87,36,63,504,308.0,347,466,60,121.0,133,1,292,273,41,0,0,271,2414,110,308,,,,,,,,,,,,
34943,1560695111076,25,2.57,1.97,3.5,2.12,5.05,0.85,-0.54,0.57,15,-2,17,1.01,4349,21,87,36,64,503,307.0,352,463,60,122.0,133,1,292,278,41,0,0,278,2414,110,307,45.700993,4.909772,28.6,196.0,0,0.0,0,0.0,0.0767,1,0.07,0.5824
34963,1560695111104,4,2.57,1.97,3.49,2.14,5.04,0.85,-0.56,0.59,16,-1,17,1.01,4204,22,87,36,65,503,309.0,349,455,60,122.0,133,1,294,282,41,0,0,294,630,125,310,,,,,,,,,,,,
34983,1560695111124,-1,2.58,1.99,3.45,2.17,5.04,0.82,-0.52,0.53,17,-1,19,0.97,4045,22,87,36,66,503,312.0,343,460,60,120.0,133,1,294,285,41,0,0,302,630,32000,312,,,,,,,,,,,,
35003,1560695111144,-2,2.58,2.0,3.42,2.2,5.06,0.88,-0.57,0.58,18,-2,22,1.05,3960,23,87,36,67,503,310.0,330,462,60,122.0,137,1,292,287,43,0,0,295,-1534,32000,310,,,,,,,,,,,,
35023,1560695111164,4,2.57,2.01,3.4,2.2,5.05,0.84,-0.56,0.6,18,-2,23,1.01,3966,23,87,36,68,503,311.0,330,457,60,122.0,137,1,294,292,43,0,0,281,250,30720,312,,,,,,,,,,,,
35043,1560695111184,1,2.57,2.0,3.41,2.17,5.05,0.81,-0.53,0.59,19,-1,23,0.97,3936,23,87,36,69,503,312.0,326,461,60,121.0,137,1,290,293,43,0,0,277,250,30720,312,45.701,4.909776,28.44,195.9,0,0.0,0,0.0,0.0783,1,0.08,0.584
35063,1560695111204,-0,2.58,2.0,3.41,2.19,5.07,0.85,-0.56,0.56,20,-3,25,1.02,3984,25,87,36,70,503,314.0,323,465,60,122.0,137,1,296,299,43,0,0,278,-1534,125,314,,,,,,,,,,,,
35083,1560695111224,3,2.57,2.0,3.41,2.2,5.06,0.86,-0.55,0.57,21,-2,27,1.02,4078,28,87,36,71,503,314.0,327,455,60,121.0,137,1,297,304,43,0,0,280,630,120,314,,,,,,,,,,,,
35103,1560695111244,-1,2.58,2.0,3.42,2.19,5.05,0.79,-0.52,0.57,22,-2,28,0.95,4091,29,87,36,73,503,316.0,331,459,60,120.0,149,1,298,309,47,0,0,281,630,32000,316,,,,,,,,,,,,
35123,1560695111264,-2,2.6,1.99,3.44,2.2,5.05,0.83,-0.56,0.61,22,-5,29,1.0,4002,30,87,36,74,503,314.0,328,467,60,122.0,149,1,298,310,47,0,0,282,-1534,-32256,314,,,,,,,,,,,,
35143,1560695111284,4,2.6,1.96,3.45,2.2,5.04,0.84,-0.59,0.64,23,-4,29,1.03,4048,30,87,36,75,503,316.0,330,456,60,122.0,149,1,298,313,47,0,0,284,250,-32256,316,45.701004,4.909781,28.24,195.9,0,0.0,0,0.0,0.08,1,0.08,0.5857
35163,1560695111304,-0,2.6,1.96,3.44,2.22,5.05,0.85,-0.63,0.61,23,-3,30,1.06,4042,31,87,36,76,503,317.0,332,456,60,119.0,149,1,298,317,47,0,0,285,-1534,135,318,,,,,,,,,,,,
35183,1560695111324,-2,2.62,1.95,3.44,2.21,5.04,0.85,-0.64,0.61,24,-4,32,1.06,3965,31,87,36,77,503,318.0,324,467,60,122.0,149,1,293,323,47,0,0,282,250,135,318,,,,,,,,,,,,
35203,1560695111344,3,2.62,1.95,3.44,2.21,5.06,0.85,-0.63,0.6,24,-5,32,1.06,4012,31,87,36,77,503,317.0,325,462,60,122.0,150,1,298,325,48,0,0,278,-1534,-32256,318,,,,,,,,,,,,
35223,1560695111364,-1,2.63,1.95,3.45,2.21,5.07,0.86,-0.65,0.55,25,-5,33,1.08,4051,31,87,36,78,503,318.0,328,456,60,119.0,150,1,298,339,48,0,0,277,30208,-32256,318,,,,,,,,,,,,
35243,1560695111384,-1,2.63,1.96,3.45,2.23,5.04,0.87,-0.69,0.54,25,-5,36,1.11,4048,31,87,36,79,503,319.0,322,471,60,122.0,150,1,298,349,48,0,0,278,630,-32256,319,45.701008,4.909786,28.94,195.9,0,0.0,0,0.0,0.0817,1,0.08,0.5874
35263,1560695111404,0,2.62,1.96,3.52,2.21,5.06,0.84,-0.72,0.6,26,-6,36,1.1,4063,31,87,36,79,503,320.0,327,467,60,121.0,150,1,297,350,48,0,0,284,630,-29696,320,,,,,,,,,,,,
35283,1560695111424,2,2.62,1.96,3.56,2.23,5.06,0.82,-0.7,0.56,27,-4,35,1.08,4056,31,87,36,79,503,319.0,332,455,60,120.0,150,1,298,350,48,0,0,283,250,145,319,,,,,,,,,,,,
35303,1560695111444,-1,2.63,1.95,3.56,2.23,5.08,0.79,-0.69,0.55,27,-4,35,1.05,4119,31,87,36,80,503,322.0,329,456,60,120.0,171,1,296,365,55,0,0,286,-1534,135,322,,,,,,,,,,,,
35323,1560695111464,0,2.62,1.95,3.53,2.22,5.07,0.78,-0.69,0.59,28,-4,36,1.04,4130,31,87,36,80,503,321.0,335,467,60,122.0,171,1,296,365,55,0,0,284,250,140,321,,,,,,,,,,,,
35343,1560695111484,6,2.61,1.95,3.51,2.23,5.04,0.75,-0.7,0.64,28,-4,36,1.02,4105,31,87,36,80,503,320.0,333,468,60,122.0,171,1,296,364,55,0,0,284,250,-27136,320,45.701016,4.909792,29.11,195.9,0,0.0,0,0.0,0.0833,1,0.08,0.589
35363,1560695111504,3,2.61,1.96,3.5,2.22,5.04,0.81,-0.72,0.63,28,-4,36,1.08,4125,32,87,36,80,503,320.0,334,448,60,119.0,171,1,296,365,55,0,0,286,1886,145,320,,,,,,,,,,,,
35383,1560695111524,-0,2.59,1.96,3.5,2.21,5.04,0.79,-0.72,0.6,28,-4,36,1.07,4140,32,87,36,81,503,320.0,335,461,60,121.0,171,1,295,377,55,0,0,288,1886,-29696,320,,,,,,,,,,,,
35403,1560695111544,-0,2.58,1.96,3.5,2.2,5.05,0.79,-0.73,0.59,28,-5,38,1.08,4051,32,87,36,81,503,321.0,331,467,60,122.0,175,1,297,373,56,0,0,291,250,-28416,321,,,,,,,,,,,,
35423,1560695111564,3,2.56,1.97,3.5,2.2,5.06,0.77,-0.69,0.59,28,-4,37,1.03,4121,32,87,36,81,503,321.0,330,465,60,122.0,175,1,296,365,56,0,0,288,-16896,-27136,321,,,,,,,,,,,,
35443,1560695111584,1,2.54,1.98,3.48,2.2,5.04,0.75,-0.67,0.59,28,-3,36,1.0,4190,32,87,36,81,503,321.0,338,457,60,119.0,175,1,295,380,56,0,0,289,10686,150,321,45.701023,4.909799,28.89,195.8,0,0.0,0,0.0,0.085,1,0.08,0.5907
35463,1560695111603,-1,2.51,2.0,3.48,2.2,5.06,0.73,-0.6,0.57,28,-2,36,0.95,4154,33,87,36,81,503,321.0,340,453,60,120.0,175,1,295,378,56,0,0,294,0,-27136,321,,,,,,,,,,,,
35483,1560695111623,-2,2.49,2.01,3.44,2.2,5.06,0.71,-0.54,0.55,27,-2,36,0.89,4179,33,87,36,82,503,320.0,336,466,60,122.0,175,1,295,379,56,0,0,295,20480,150,320,,,,,,,,,,,,
35503,1560695111643,-0,2.46,2.03,3.39,2.18,5.05,0.73,-0.52,0.6,26,-2,36,0.9,4189,33,87,36,82,503,321.0,340,472,60,122.0,186,1,295,380,60,0,0,296,80,150,320,,,,,,,,,,,,
35523,1560695111663,3,2.44,2.05,3.36,2.19,5.04,0.74,-0.49,0.63,26,-2,34,0.89,4139,33,87,36,82,503,319.0,340,452,60,120.0,186,1,295,389,60,0,0,300,85,-25856,319,,,,,,,,,,,,
35543,1560695111683,2,2.42,2.09,3.36,2.17,5.05,0.75,-0.43,0.61,24,-2,33,0.87,4193,34,87,36,82,503,319.0,337,447,60,119.0,186,1,295,392,60,0,0,297,90,150,318,45.701023,4.909807,29.13,195.8,0,0.0,0,0.0,0.0867,1,0.08,0.5924
35563,1560695111703,-1,2.4,2.1,3.34,2.17,5.08,0.72,-0.39,0.59,23,-2,33,0.82,4220,34,87,36,83,503,316.0,339,462,60,120.0,186,1,293,406,60,0,0,301,95,145,316,,,,,,,,,,,,
35583,1560695111723,-1,2.38,2.1,3.33,2.16,5.07,0.74,-0.35,0.61,22,-3,31,0.82,4222,35,86,36,83,503,317.0,345,471,60,121.0,186,1,293,406,60,0,0,306,25600,-28416,317,,,,,,,,,,,,
35603,1560695111743,-1,2.37,2.11,3.33,2.14,5.08,0.68,-0.3,0.61,21,-3,29,0.75,4273,35,86,36,83,503,317.0,343,461,60,122.0,201,1,292,409,64,0,0,308,28160,-29696,317,,,,,,,,,,,,
35623,1560695111763,-1,2.37,2.12,3.31,2.13,5.05,0.7,-0.3,0.63,20,-2,27,0.76,4335,35,86,36,83,503,317.0,347,457,60,121.0,201,1,291,413,64,0,0,308,29440,-28416,317,,,,,,,,,,,,
35643,1560695111783,4,2.36,2.12,3.29,2.14,5.08,0.68,-0.25,0.64,19,-1,26,0.73,4241,36,86,36,83,503,318.0,349,452,60,121.0,201,1,293,407,64,0,0,312,115,150,318,45.701031,4.909815,29.6,195.7,0,0.0,0,0.0,0.0883,1,0.08,0.594
35663,1560695111803,2,2.35,2.14,3.29,2.14,5.06,0.69,-0.22,0.64,17,-1,24,0.72,4314,36,86,36,83,503,319.0,346,446,60,119.0,201,1,292,415,64,0,0,314,30720,-27136,319,,,,,,,,,,,,
35683,1560695111823,1,2.35,2.14,3.26,2.13,5.08,0.69,-0.19,0.65,16,0,22,0.71,4383,36,86,36,84,503,319.0,353,463,60,119.0,201,1,291,420,64,0,0,317,125,145,318,,,,,,,,,,,,
35703,1560695111843,0,2.34,2.14,3.25,2.13,5.04,0.67,-0.2,0.66,15,0,21,0.7,4342,36,86,36,84,503,320.0,350,452,60,120.0,216,1,291,417,69,0,0,321,-30976,150,320,,,,,,,,,,,,
35723,1560695111863,-0,2.33,2.15,3.26,2.12,5.05,0.67,-0.19,0.63,15,-0,19,0.7,4371,37,86,36,84,503,321.0,356,462,60,120.0,216,1,291,419,69,0,0,321,135,-25856,320,,,,,,,,,,,,
35743,1560695111883,-2,2.34,2.15,3.25,2.14,5.07,0.63,-0.21,0.59,14,-1,18,0.66,4404,37,86,36,83,503,322.0,353,467,60,122.0,216,1,290,417,69,0,0,325,140,160,322,45.701035,4.909824,29.99,195.7,0,0.0,0,0.0,0.09,1,0.08,0.5957
35763,1560695111903,0,2.33,2.16,3.25,2.16,5.05,0.59,-0.15,0.56,13,1,18,0.61,4444,37,86,36,84,503,323.0,355,470,60,121.0,216,1,290,423,69,0,0,324,140,155,323,,,,,,,,,,,,
35783,1560695111923,1,2.34,2.16,3.25,2.15,5.07,0.56,-0.13,0.64,12,0,18,0.58,4477,37,86,36,84,503,324.0,363,476,60,122.0,216,1,289,424,69,0,0,328,-28416,165,324,,,,,,,,,,,,
35803,1560695111943,-0,2.32,2.17,3.24,2.16,5.05,0.65,-0.14,0.66,11,-1,16,0.67,4170,37,86,36,83,504,326.0,355,464,60,122.0,215,1,294,403,70,0,0,325,150,-23296,326,,,,,,,,,,,,
35823,1560695111963,-0,2.32,2.17,3.24,2.15,5.05,0.62,-0.15,0.62,11,-1,14,0.64,3928,38,86,36,83,504,327.0,344,468,60,121.0,215,1,287,384,70,0,0,320,150,170,327,,,,,,,,,,,,
35843,1560695111983,-1,2.32,2.16,3.27,2.12,5.04,0.68,-0.14,0.59,10,-1,15,0.7,3837,38,86,36,83,505,327.0,327,457,60,122.0,215,1,277,374,70,0,0,320,-27136,-22016,327,45.701038,4.909833,30.49,195.7,0,0.0,0,0.0,0.0917,1,0.08,0.5974
35863,1560695111998,1,2.32,2.14,3.29,2.09,5.08,0.69,-0.16,0.59,9,-1,14,0.71,3701,38,86,36,83,506,328.0,322,465,60,122.0,215,1,262,358,70,0,0,319,150,160,328,,,,,,,,,,,,
35883,1560695112018,0,2.32,2.13,3.29,2.08,5.04,0.72,-0.15,0.61,9,-3,13,0.74,3607,38,86,36,84,507,326.0,309,462,60,120.0,215,1,251,348,70,0,0,320,-25856,-23296,326,,,,,,,,,,,,
35903,1560695112038,-0,2.32,2.13,3.29,2.06,5.08,0.8,-0.25,0.6,8,-2,12,0.84,3508,38,86,36,85,507,326.0,306,461,60,119.0,138,1,240,563,45,0,0,319,150,155,326,,,,,,,,,,,,
35923,1560695112058,3,2.31,2.11,3.3,2.04,5.04,0.81,-0.15,0.54,8,1,9,0.83,3475,38,86,36,86,506,319.0,294,461,60,121.0,138,1,239,508,45,0,0,290,140,20480,319,,,,,,,,,,,,
35943,1560695112078,-0,2.3,2.09,3.36,2.03,5.06,0.87,-0.12,0.56,8,-3,7,0.88,3681,39,86,36,86,506,316.0,297,466,60,122.0,138,1,260,500,45,0,0,303,-32256,29440,316,45.701042,4.909842,31.4,195.7,0,0.0,0,0.0,0.0933,1,0.08,0.599
35963,1560695112103,1,2.31,2.07,3.4,2.01,5.07,0.86,-0.13,0.54,7,-0,5,0.87,3854,40,86,36,86,505,316.0,305,465,60,122.0,138,1,279,470,45,0,0,288,32000,630,313,,,,,,,,,,,,
35983,1560695112123,2,2.3,2.06,3.41,1.97,5.07,0.95,-0.06,0.49,6,-3,5,0.95,4359,40,86,36,85,504,312.0,318,454,60,119.0,138,1,291,449,45,0,0,297,120,26880,312,,,,,,,,,,,,
36003,1560695112143,3,2.29,2.06,3.43,1.95,5.06,0.89,-0.1,0.49,6,-4,5,0.9,4651,41,86,36,85,503,310.0,342,449,60,120.0,230,1,287,443,72,0,0,282,115,630,310,,,,,,,,,,,,
36023,1560695112163,1,2.29,2.06,3.41,1.95,5.04,0.94,-0.07,0.39,6,0,4,0.95,4996,41,86,36,86,503,307.0,373,460,60,122.0,230,1,282,463,72,0,0,293,105,90,307,,,,,,,,,,,,
36043,1560695112183,1,2.3,2.05,3.39,1.94,5.04,0.94,-0.07,0.46,4,-3,3,0.94,5363,41,86,35,85,503,301.0,408,471,60,121.0,230,1,300,466,72,0,0,289,95,85,301,45.701046,4.909852,31.24,195.7,0,0.0,0,0.0,0.095,1,0.08,0.6007
36063,1560695112203,3,2.29,2.04,3.38,1.94,5.07,0.8,-0.01,0.42,5,-1,2,0.8,5758,41,86,35,82,503,300.0,445,464,60,121.0,230,1,328,459,72,0,0,293,24320,85,300,,,,,,,,,,,,
36083,1560695112223,3,2.29,2.04,3.34,1.94,5.04,0.88,0.01,0.44,6,-3,3,0.88,6179,42,86,35,80,503,299.0,479,457,60,122.0,230,1,351,457,72,0,0,295,23040,90,299,,,,,,,,,,,,
36103,1560695112243,-1,2.3,2.05,3.29,1.94,5.07,0.79,0.13,0.48,6,-2,4,0.8,6653,42,86,35,77,502,298.0,514,461,60,119.0,357,1,369,451,107,0,0,296,90,26880,298,,,,,,,,,,,,
36123,1560695112263,2,2.3,2.07,3.27,1.95,5.04,0.85,0.07,0.51,6,-0,3,0.86,6975,42,86,35,76,502,298.0,545,462,60,120.0,357,1,380,441,107,0,0,293,85,24320,298,,,,,,,,,,,,
36143,1560695112283,4,2.3,2.09,3.29,1.97,5.04,0.6,0.12,0.48,6,6,2,0.61,7284,42,86,35,74,501,297.0,573,465,60,121.0,357,1,400,402,107,0,0,299,85,26880,298,45.70105,4.909861,30.17,195.7,0,0.0,0,0.0,0.0967,1,0.08,0.6024
36163,1560695112303,1,2.29,2.17,3.25,2.04,5.04,0.55,0.14,0.51,6,7,1,0.57,7038,42,86,35,72,501,303.0,585,460,60,121.0,357,1,389,383,107,0,0,349,25600,-122,303,,,,,,,,,,,,
36183,1560695112323,6,2.29,2.29,3.09,2.12,5.04,0.61,0.03,0.64,4,6,2,0.61,6613,42,86,35,73,501,311.0,558,466,60,120.0,357,1,372,377,107,0,0,372,125,742,311,,,,,,,,,,,,
36203,1560695112343,4,2.3,2.42,2.94,2.27,5.04,0.52,0.09,0.68,5,9,2,0.53,6252,42,86,35,73,500,321.0,530,466,60,119.0,305,1,360,403,96,0,0,358,-29696,8841,321,,,,,,,,,,,,
36223,1560695112363,4,2.31,2.51,2.89,2.34,5.05,0.4,0.16,0.73,5,9,3,0.43,6023,42,86,35,74,500,322.0,511,460,60,120.0,305,1,351,400,96,0,0,333,155,13,322,,,,,,,,,,,,
36243,1560695112383,5,2.3,2.54,2.91,2.36,5.04,0.31,0.19,0.68,6,9,1,0.37,5903,42,86,35,75,500,328.0,496,460,60,119.0,305,1,343,409,96,0,0,331,-24576,13,328,45.701054,4.909871,28.84,195.6,0,0.0,0,0.0,0.0983,1,0.09,0.604
36263,1560695112403,3,2.3,2.52,2.98,2.34,5.04,0.32,0.2,0.62,5,11,1,0.38,5896,42,86,35,75,500,329.0,489,462,60,119.0,305,1,345,409,96,0,0,335,170,3346,329,,,,,,,,,,,,
36283,1560695112423,5,2.3,2.5,3.11,2.33,5.07,0.26,0.24,0.59,6,11,2,0.35,6036,42,86,35,75,500,331.0,493,465,60,120.0,305,1,353,416,96,0,0,336,175,-31222,331,,,,,,,,,,,,
36303,1560695112443,1,2.31,2.47,3.22,2.33,5.04,0.19,0.35,0.53,7,12,3,0.4,6313,42,86,35,75,500,333.0,505,466,60,120.0,290,1,360,1029,96,0,0,336,175,-122,333,,,,,,,,,,,,
36323,1560695112463,-1,2.31,2.44,3.26,2.3,5.05,0.17,0.33,0.51,7,12,3,0.37,6476,42,86,35,75,500,335.0,523,456,60,122.0,290,1,365,1027,96,0,0,341,-12032,-14714,335,,,,,,,,,,,,
36343,1560695112483,3,2.32,2.43,3.27,2.29,5.07,0.22,0.25,0.56,7,9,3,0.33,6469,42,86,35,75,500,338.0,537,458,60,120.0,290,1,365,1021,96,0,0,344,3346,-30438,340,45.701061,4.90988,29.51,195.6,0,0.0,0,0.0,0.1,1,0.09,0.6057
36363,1560695112503,2,2.32,2.42,3.24,2.27,5.08,0.31,0.28,0.6,6,9,3,0.42,6565,42,86,35,75,500,341.0,540,462,60,119.0,290,1,368,1013,96,0,0,347,-122,8841,341,,,,,,,,,,,,
36383,1560695112523,1,2.32,2.42,3.21,2.28,5.04,0.28,0.23,0.56,7,9,2,0.36,6298,42,86,35,74,500,346.0,544,461,60,121.0,290,1,360,955,96,0,0,347,3327,-30454,346,,,,,,,,,,,,
36403,1560695112543,-1,2.33,2.4,3.2,2.28,5.06,0.38,0.14,0.54,7,8,2,0.41,6077,42,86,35,74,500,346.0,524,460,60,121.0,653,1,353,940,226,0,0,344,6668,28553,347,,,,,,,,,,,,
36423,1560695112563,0,2.33,2.36,3.18,2.25,5.06,0.55,0.07,0.55,6,5,3,0.55,6113,42,86,35,75,500,347.0,516,460,60,121.0,653,1,353,979,226,0,0,340,6668,-30438,347,,,,,,,,,,,,
36443,1560695112583,1,2.32,2.32,3.19,2.22,5.07,0.68,-0.01,0.58,5,1,3,0.68,6027,43,86,35,75,500,345.0,512,457,60,121.0,653,1,350,970,226,0,0,341,3327,-10554,345,45.701061,4.909889,32.11,195.6,0,0.0,0,0.0,0.1017,1,0.09,0.6074
36463,1560695112602,1,2.33,2.29,3.24,2.21,5.05,0.74,-0.08,0.62,4,-2,3,0.74,6058,43,86,35,75,500,345.0,506,457,60,121.0,653,1,351,963,226,0,0,339,-122,-30438,345,,,,,,,,,,,,
36483,1560695112622,1,2.33,2.27,3.3,2.2,5.06,0.84,-0.12,0.67,4,-5,2,0.85,5980,44,86,35,76,500,346.0,509,458,60,121.0,653,1,346,993,226,0,0,341,-122,-10554,346,,,,,,,,,,,,
36503,1560695112642,3,2.32,2.26,3.3,2.19,5.06,0.92,-0.16,0.68,4,-8,2,0.93,6017,46,86,35,77,500,345.0,503,459,60,121.0,655,1,348,1004,226,0,0,339,-122,-10554,345,,,,,,,,,,,,
36523,1560695112662,3,2.33,2.26,3.29,2.18,5.06,1.02,-0.21,0.72,4,-10,2,1.04,5971,49,86,35,78,500,346.0,500,461,60,121.0,655,1,345,1007,226,0,0,338,-122,6870,345,,,,,,,,,,,,
36543,1560695112682,1,2.34,2.25,3.28,2.18,5.06,1.07,-0.22,0.72,4,-11,3,1.1,5954,52,86,35,79,501,346.0,497,457,60,121.0,655,1,343,1013,226,0,0,339,-122,-10554,346,45.701065,4.9099,33.21,195.6,0,0.0,0,0.0,0.1033,1,0.09,0.609
36563,1560695112702,2,2.33,2.24,3.29,2.17,5.08,1.17,-0.29,0.76,4,-13,4,1.2,5946,55,86,35,82,501,346.0,495,454,60,121.0,655,1,340,1048,226,0,0,336,-31222,-31206,346,,,,,,,,,,,,
36583,1560695112722,1,2.34,2.21,3.29,2.16,5.07,1.25,-0.29,0.75,3,-15,4,1.29,5959,57,86,35,83,500,346.0,496,462,60,121.0,655,1,340,1061,226,0,0,336,-122,6668,344,,,,,,,,,,,,
36603,1560695112742,1,2.33,2.2,3.28,2.16,5.04,1.33,-0.36,0.75,1,-17,3,1.38,6060,60,86,35,85,500,343.0,498,456,60,121.0,697,1,338,1063,240,0,0,332,13,-31222,343,,,,,,,,,,,,
36623,1560695112762,4,2.34,2.17,3.29,2.12,5.04,1.4,-0.42,0.82,0,-19,3,1.46,6198,63,86,35,86,500,340.0,507,460,60,121.0,697,1,340,1077,240,0,0,330,-6528,-32559,340,,,,,,,,,,,,
36643,1560695112782,4,2.33,2.15,3.31,2.1,5.04,1.45,-0.42,0.85,0,-20,2,1.51,6247,65,86,35,87,500,338.0,514,456,60,120.0,697,1,339,1082,240,0,0,325,-32559,-20736,338,45.701069,4.90991,33.36,195.6,0,0.0,0,0.0,0.105,1,0.09,0.6107
36663,1560695112803,3,2.33,2.15,3.32,2.08,5.04,1.36,-0.32,0.78,1,-18,3,1.39,6560,67,86,35,88,500,337.0,525,456,60,119.0,697,1,352,1110,240,0,0,330,-12032,-6528,337,,,,,,,,,,,,
36683,1560695112823,2,2.34,2.15,3.32,2.09,5.04,1.23,-0.33,0.71,2,-15,4,1.27,6718,67,86,34,88,500,337.0,542,457,60,120.0,697,1,360,1135,240,0,0,329,175,2560,337,,,,,,,,,,,,
36703,1560695112843,6,2.34,2.16,3.3,2.1,5.07,1.19,-0.24,0.68,2,-13,4,1.22,6599,67,86,34,88,500,338.0,553,461,60,120.0,845,1,353,1102,285,0,0,330,170,3346,338,,,,,,,,,,,,
36723,1560695112863,-0,2.33,2.17,3.27,2.1,5.06,1.17,-0.17,0.61,3,-12,4,1.18,6430,67,86,34,88,500,338.0,548,456,60,119.0,845,1,346,1078,285,0,0,331,170,13,338,,,,,,,,,,,,
36743,1560695112883,3,2.34,2.16,3.27,2.09,5.08,1.18,-0.28,0.65,3,-12,4,1.21,6330,67,86,34,89,500,336.0,536,457,60,120.0,845,1,338,1062,285,0,0,329,-22016,3346,336,45.701073,4.909921,33.0,195.5,0,0.0,0,0.0,0.1067,1,0.09,0.6124
36763,1560695112902,4,2.34,2.16,3.27,2.08,5.07,1.15,-0.31,0.65,3,-12,4,1.19,6496,68,86,34,89,500,336.0,530,460,60,120.0,845,1,347,1075,285,0,0,327,-20736,-31222,336,,,,,,,,,,,,
36783,1560695112922,-1,2.34,2.15,3.26,2.09,5.04,1.03,-0.18,0.58,3,-8,5,1.05,6503,68,86,34,89,500,335.0,535,465,60,119.0,845,1,347,1069,285,0,0,329,170,4838,336,,,,,,,,,,,,
36803,1560695112942,2,2.33,2.15,3.27,2.07,5.05,1.08,-0.24,0.58,3,-10,5,1.1,6416,68,86,34,89,500,335.0,536,453,60,121.0,773,1,342,1053,260,0,0,329,-22016,4838,335,,,,,,,,,,,,
36823,1560695112962,4,2.33,2.15,3.27,2.08,5.04,1.17,-0.34,0.67,3,-12,5,1.22,6311,68,86,34,89,500,336.0,530,456,60,120.0,773,1,337,1035,260,0,0,328,170,-31222,336,,,,,,,,,,,,
36843,1560695112982,5,2.34,2.14,3.27,2.08,5.07,1.12,-0.29,0.69,3,-13,6,1.16,6239,68,86,34,89,500,334.0,522,456,60,120.0,773,1,333,1016,260,0,0,328,-22016,3346,334,45.70108,4.909931,32.61,195.5,0,0.0,0,0.0,0.1083,1,0.09,0.614
36863,1560695112996,5,2.33,2.15,3.27,2.08,5.07,1.0,-0.17,0.69,5,-9,6,1.01,6364,68,86,34,90,500,334.0,520,459,60,119.0,773,1,337,1014,260,0,0,326,-22016,-32559,334,,,,,,,,,,,,
36883,1560695113016,2,2.33,2.16,3.28,2.11,5.06,0.86,-0.09,0.59,6,-5,6,0.87,6390,68,86,34,90,500,335.0,523,463,60,120.0,773,1,338,1021,260,0,0,327,165,-6528,334,,,,,,,,,,,,
36903,1560695113036,2,2.34,2.16,3.28,2.1,5.04,0.87,-0.12,0.56,6,-5,7,0.88,6285,68,86,34,89,500,334.0,523,463,60,121.0,739,1,335,995,247,0,0,328,-22016,-12032,334,,,,,,,,,,,,
36923,1560695113056,4,2.33,2.16,3.28,2.09,5.04,0.9,-0.21,0.59,5,-5,6,0.92,6258,68,86,34,89,500,335.0,521,458,60,121.0,739,1,334,985,247,0,0,329,-22016,3346,335,,,,,,,,,,,,
36943,1560695113076,6,2.33,2.15,3.28,2.09,5.04,0.98,-0.21,0.69,5,-8,6,1.0,6231,68,86,34,90,500,335.0,516,455,60,120.0,739,1,329,983,247,0,0,327,-22016,4838,335,45.70108,4.909941,32.18,195.5,0,0.0,0,0.0,0.11,1,0.09,0.6157
36963,1560695113100,6,2.33,2.15,3.27,2.09,5.05,0.94,-0.14,0.68,5,-7,6,0.95,6264,68,86,34,90,500,335.0,518,457,60,119.0,739,1,331,976,247,0,0,329,165,13,335,,,,,,,,,,,,
36983,1560695113120,-0,2.34,2.15,3.26,2.1,5.06,0.88,-0.05,0.62,5,-7,5,0.89,6194,67,86,34,90,500,336.0,517,457,60,120.0,739,1,327,961,247,0,0,332,170,-6528,334,,,,,,,,,,,,
37003,1560695113140,1,2.32,2.15,3.25,2.09,5.04,0.89,-0.07,0.59,5,-6,5,0.89,6169,62,86,34,89,500,334.0,512,458,60,121.0,667,1,330,943,223,0,0,330,-20736,4838,334,,,,,,,,,,,,
37023,1560695113160,-1,2.33,2.15,3.24,2.08,5.07,0.89,-0.14,0.57,5,-5,4,0.9,6036,59,86,34,88,500,334.0,512,460,60,121.0,667,1,326,920,223,0,0,330,-22016,4838,334,,,,,,,,,,,,
37043,1560695113180,1,2.33,2.15,3.24,2.09,5.06,0.88,-0.2,0.53,4,-4,4,0.9,5952,59,86,34,87,500,334.0,506,457,60,119.0,667,1,326,902,223,0,0,327,165,4838,334,45.701084,4.909952,32.28,195.5,0,0.0,0,0.0,0.1117,1,0.09,0.6174
37063,1560695113202,0,2.32,2.16,3.26,2.09,5.04,0.91,-0.24,0.51,3,-3,4,0.94,5939,59,86,34,86,500,334.0,500,458,60,121.0,667,1,329,888,223,0,0,327,165,-6528,334,,,,,,,,,,,,
37083,1560695113222,-1,2.33,2.15,3.28,2.08,5.07,0.95,-0.26,0.51,2,-2,4,0.99,5833,59,86,34,86,500,334.0,494,461,60,119.0,667,1,323,876,223,0,0,327,-22016,175,334,,,,,,,,,,,,
37103,1560695113242,5,2.33,2.15,3.28,2.09,5.08,1.0,-0.31,0.5,0,-1,3,1.05,5707,59,86,34,86,500,335.0,480,462,60,119.0,570,1,316,864,191,0,0,325,165,-31222,335,,,,,,,,,,,,
37123,1560695113262,2,2.32,2.15,3.28,2.08,5.08,0.95,-0.32,0.51,1,-0,3,1.0,5622,59,86,34,86,500,333.0,475,462,60,120.0,570,1,312,854,191,0,0,326,165,-12032,334,,,,,,,,,,,,
37143,1560695113282,2,2.32,2.15,3.29,2.08,5.07,0.88,-0.29,0.51,4,-1,4,0.93,5532,59,86,34,86,500,333.0,472,453,60,121.0,570,1,307,844,191,0,0,327,165,170,333,45.701088,4.909962,32.02,195.5,0,0.0,0,0.0,0.1133,1,0.09,0.6191
37163,1560695113302,6,2.32,2.15,3.28,2.08,5.07,1.0,-0.22,0.48,4,-2,4,1.02,5461,59,86,34,86,500,333.0,466,467,60,119.0,570,1,304,834,191,0,0,326,165,-32559,332,,,,,,,,,,,,
37183,1560695113322,1,2.32,2.13,3.27,2.06,5.07,0.97,-0.25,0.45,3,-2,4,1.0,5477,59,86,34,87,500,331.0,458,467,60,120.0,570,1,303,836,191,0,0,317,-23296,160,331,,,,,,,,,,,,
37203,1560695113342,1,2.32,2.12,3.29,2.03,5.07,0.93,-0.22,0.43,5,-3,4,0.95,5625,59,86,34,86,500,327.0,463,453,60,122.0,524,1,312,832,173,0,0,306,-27136,-30976,327,,,,,,,,,,,,
37223,1560695113362,1,2.33,2.09,3.32,2.01,5.05,0.99,-0.2,0.45,5,-6,4,1.01,5872,58,86,34,86,500,324.0,478,456,60,121.0,524,1,326,825,173,0,0,308,-28416,125,324,,,,,,,,,,,,
37243,1560695113382,-1,2.33,2.09,3.35,1.99,5.06,1.1,-0.23,0.45,3,-8,5,1.12,5978,58,86,34,86,500,322.0,490,452,60,121.0,524,1,331,819,173,0,0,310,140,32000,322,45.701092,4.909973,32.13,195.5,0,0.0,0,0.0,0.115,1,0.09,0.6207
37263,1560695113400,1,2.33,2.09,3.36,1.99,5.08,1.19,-0.32,0.48,1,-8,6,1.23,5992,58,86,34,85,500,321.0,496,460,60,121.0,524,1,335,806,173,0,0,313,140,-29696,321,,,,,,,,,,,,
37283,1560695113420,-0,2.32,2.1,3.36,2.0,5.05,1.27,-0.39,0.52,-1,-8,6,1.33,5963,58,86,34,84,500,320.0,497,453,60,119.0,524,1,337,476,173,0,0,312,135,-30976,320,,,,,,,,,,,,
37303,1560695113440,-0,2.33,2.1,3.34,2.03,5.04,1.35,-0.47,0.55,-1,-8,6,1.43,6025,57,86,34,84,500,317.0,499,461,60,119.0,334,1,340,478,107,0,0,311,130,145,317,,,,,,,,,,,,
37323,1560695113460,0,2.32,2.11,3.31,2.01,5.06,1.4,-0.61,0.59,-2,-8,7,1.52,6151,57,86,34,85,500,318.0,504,452,60,120.0,334,1,342,484,107,0,0,313,130,-28416,318,,,,,,,,,,,,
37343,1560695113480,0,2.31,2.1,3.28,2.01,5.07,1.46,-0.66,0.66,-2,-9,8,1.6,6262,57,86,34,85,500,318.0,510,456,60,122.0,334,1,346,487,107,0,0,312,130,140,318,45.701096,4.909983,31.82,195.4,0,0.0,0,0.0,0.1167,1,0.1,0.6224
37363,1560695113502,3,2.31,2.09,3.27,2.0,5.08,1.42,-0.61,0.72,-2,-11,9,1.55,6386,57,86,34,86,500,317.0,518,453,60,120.0,334,1,349,490,107,0,0,313,130,-28416,317,,,,,,,,,,,,
37383,1560695113522,4,2.3,2.1,3.25,2.0,5.04,1.26,-0.46,0.65,-1,-10,9,1.34,6410,57,86,34,85,500,316.0,525,458,60,119.0,334,1,352,491,107,0,0,310,-32256,-29696,316,,,,,,,,,,,,
37403,1560695113542,0,2.3,2.1,3.26,2.0,5.04,1.23,-0.43,0.6,-1,-6,9,1.3,6542,57,86,34,85,500,316.0,537,463,60,120.0,382,1,357,493,121,0,0,312,125,130,316,,,,,,,,,,,,
37423,1560695113562,3,2.3,2.1,3.27,2.0,5.08,1.28,-0.35,0.67,-1,-5,9,1.32,6590,57,86,34,84,500,315.0,541,462,60,121.0,382,1,361,490,121,0,0,310,125,140,315,,,,,,,,,,,,
37443,1560695113582,-1,2.31,2.12,3.25,2.01,5.07,1.17,-0.29,0.67,-0,-5,8,1.21,6574,57,86,34,84,500,315.0,546,457,60,120.0,382,1,361,490,121,0,0,318,125,-24576,315,45.701099,4.909994,30.52,195.4,0,0.0,0,0.0,0.1183,1,0.1,0.624
37463,1560695113603,1,2.29,2.16,3.24,2.03,5.04,1.09,-0.36,0.78,0,-3,7,1.15,6443,57,86,34,84,500,318.0,535,462,60,121.0,382,1,356,487,121,0,0,325,140,175,320,,,,,,,,,,,,
37483,1560695113623,3,2.3,2.22,3.21,2.09,5.05,1.06,-0.37,0.87,0,-4,5,1.12,6208,56,86,34,85,500,324.0,521,462,60,121.0,382,1,344,482,121,0,0,332,-27136,-20736,324,,,,,,,,,,,,
37503,1560695113643,1,2.31,2.28,3.15,2.14,5.07,1.03,-0.32,0.93,-0,-6,5,1.08,5958,54,86,34,85,501,327.0,501,462,60,121.0,342,1,333,476,111,0,0,332,160,-12032,326,,,,,,,,,,,,
37523,1560695113663,1,2.3,2.32,3.1,2.15,5.05,0.98,-0.27,0.98,-1,-5,5,1.01,5909,53,86,34,85,501,328.0,494,460,60,121.0,342,1,331,476,111,0,0,332,160,175,328,,,,,,,,,,,,
37543,1560695113683,0,2.3,2.3,3.09,2.15,5.07,0.93,-0.2,1.03,-0,-7,4,0.95,5990,53,86,34,84,502,328.0,493,461,60,122.0,342,1,339,476,111,0,0,330,-23296,175,328,45.701103,4.910004,30.25,195.4,0,0.0,0,0.0,0.12,1,0.1,0.6257
37563,1560695113701,1,2.3,2.3,3.13,2.13,5.04,0.97,-0.16,1.03,-1,-8,2,0.98,6038,53,86,34,84,502,329.0,495,463,60,122.0,342,1,341,478,111,0,0,329,-23296,170,329,,,,,,,,,,,,
37583,1560695113721,1,2.31,2.28,3.22,2.11,5.07,1.0,-0.19,1.05,-1,-8,1,1.02,6198,53,86,34,83,503,329.0,500,462,60,121.0,342,1,349,478,111,0,0,332,165,170,329,,,,,,,,,,,,
37603,1560695113741,4,2.3,2.28,3.28,2.11,5.04,0.97,-0.1,1.04,-2,-8,1,0.98,6319,53,86,34,84,503,330.0,514,461,60,120.0,340,1,352,481,112,0,0,329,165,-6528,330,,,,,,,,,,,,
37623,1560695113761,-0,2.31,2.28,3.28,2.13,5.08,0.91,-0.08,0.94,-1,-6,1,0.92,6416,53,86,34,83,502,333.0,523,458,60,120.0,340,1,357,483,112,0,0,336,-20736,13,333,,,,,,,,,,,,
37643,1560695113781,1,2.31,2.29,3.26,2.13,5.04,0.87,-0.17,0.94,-0,-5,2,0.88,6521,53,86,33,83,502,334.0,532,453,60,122.0,340,1,361,485,112,0,0,340,-12032,-122,335,45.701103,4.910015,30.67,195.4,0,0.0,0,0.0,0.1217,1,0.1,0.6274
37663,1560695113803,4,2.32,2.3,3.21,2.15,5.08,0.87,-0.19,0.99,-1,-5,2,0.89,6526,53,86,33,83,501,338.0,536,463,60,120.0,340,1,361,478,112,0,0,341,-6528,-10554,338,,,,,,,,,,,,
37683,1560695113823,0,2.33,2.3,3.19,2.16,5.08,0.79,-0.1,0.95,-0,-3,3,0.79,6430,53,86,33,82,501,339.0,532,461,60,120.0,340,1,359,476,112,0,0,347,13,-14714,339,,,,,,,,,,,,
37703,1560695113843,1,2.33,2.3,3.17,2.16,5.04,0.8,-0.14,0.93,1,-3,3,0.82,6425,53,86,33,82,500,341.0,530,457,60,121.0,339,1,358,476,115,0,0,345,2560,6870,341,,,,,,,,,,,,
37723,1560695113863,3,2.33,2.3,3.17,2.13,5.06,0.8,-0.16,0.99,1,-5,3,0.82,6458,53,86,33,82,500,344.0,528,456,60,121.0,339,1,360,477,115,0,0,347,3327,2811,344,,,,,,,,,,,,
37743,1560695113883,5,2.33,2.28,3.17,2.14,5.04,0.78,-0.07,0.92,1,-3,2,0.79,6517,53,86,33,82,500,346.0,535,460,60,119.0,339,1,362,478,115,0,0,349,-31206,-30454,346,45.701103,4.910025,31.67,195.4,0,0.0,0,0.0,0.1233,1,0.1,0.629
37763,1560695113903,-2,2.35,2.28,3.18,2.14,5.07,0.74,-0.12,0.89,2,-2,2,0.75,6546,53,86,33,82,500,349.0,537,466,60,122.0,339,1,363,478,115,0,0,354,-14714,28553,349,,,,,,,,,,,,
37783,1560695113923,4,2.36,2.28,3.2,2.15,5.05,0.78,-0.11,0.91,2,-3,3,0.79,6558,53,86,33,82,500,352.0,535,458,60,120.0,339,1,363,479,115,0,0,355,6870,3302,352,,,,,,,,,,,,
37803,1560695113943,1,2.36,2.28,3.22,2.17,5.07,0.69,-0.05,0.81,3,-1,3,0.69,6637,53,86,33,82,500,356.0,540,457,60,120.0,337,1,366,480,119,0,0,355,6870,4104,356,,,,,,,,,,,,
37823,1560695113963,1,2.36,2.28,3.23,2.17,5.06,0.78,-0.2,0.93,3,-2,3,0.8,6658,53,86,33,82,500,357.0,544,465,60,121.0,337,1,367,481,119,0,0,358,2811,2060,357,,,,,,,,,,,,
37843,1560695113983,5,2.36,2.27,3.25,2.18,5.08,0.8,-0.07,0.88,3,-3,3,0.8,6639,53,86,33,81,500,358.0,545,460,60,119.0,337,1,367,474,119,0,0,358,2811,-29978,358,45.701107,4.910036,32.26,195.4,0,0.0,0,0.0,0.125,1,0.1,0.6307
37863,1560695113995,1,2.36,2.27,3.26,2.18,5.08,0.68,-0.13,0.86,5,-4,4,0.69,6768,53,86,33,81,500,359.0,543,455,60,121.0,337,1,371,476,119,0,0,356,-30454,-29302,359,,,,,,,,,,,,
37883,1560695114015,1,2.36,2.27,3.24,2.17,5.04,0.71,-0.1,0.82,4,-2,5,0.72,6835,53,86,33,81,500,361.0,548,465,60,119.0,337,1,373,484,119,0,0,360,-6644,0,361,,,,,,,,,,,,
37903,1560695114035,2,2.36,2.27,3.22,2.16,5.05,0.81,-0.25,0.88,5,-2,7,0.85,6732,53,86,33,81,500,362.0,553,460,60,121.0,337,1,370,476,122,0,0,362,-6644,3082,362,,,,,,,,,,,,
37923,1560695114055,-0,2.37,2.25,3.22,2.17,5.05,0.75,-0.16,0.83,4,-2,8,0.76,6845,53,86,33,81,500,364.0,550,457,60,120.0,337,1,373,477,122,0,0,363,2060,3082,364,,,,,,,,,,,,
37943,1560695114075,3,2.36,2.25,3.23,2.16,5.05,0.87,-0.25,0.94,5,-3,8,0.91,6941,53,86,33,80,500,365.0,561,463,60,122.0,337,1,377,473,122,0,0,363,4104,-6656,365,45.701111,4.910047,33.69,195.4,0,0.0,0,0.0,0.1267,1,0.1,0.6324
37963,1560695114103,-1,2.36,2.25,3.22,2.18,5.07,0.68,-0.2,0.84,6,-0,6,0.71,6996,53,86,33,80,500,367.0,570,457,60,121.0,337,1,379,479,122,0,0,371,-29978,-6656,367,,,,,,,,,,,,
37983,1560695114123,1,2.36,2.25,3.22,2.21,5.04,0.75,-0.21,0.88,5,-4,5,0.78,6947,53,86,33,81,500,370.0,577,466,60,119.0,337,1,377,479,122,0,0,372,-14707,257,370,,,,,,,,,,,,
38003,1560695114143,2,2.36,2.25,3.21,2.21,5.04,0.76,-0.25,0.89,6,-2,5,0.8,6883,54,86,33,80,515,372.0,567,453,60,121.0,336,1,375,472,125,0,0,372,3082,770,372,,,,,,,,,,,,
38023,1560695114163,0,2.36,2.25,3.22,2.2,5.03,0.7,-0.2,0.79,6,0,7,0.72,7025,54,86,33,81,546,374.0,568,458,60,120.0,336,1,380,480,125,0,0,374,-1268,3,374,,,,,,,,,,,,
38043,1560695114183,3,2.37,2.25,3.22,2.19,5.07,0.78,-0.23,0.82,5,-2,8,0.82,7048,54,86,33,81,577,375.0,570,460,60,120.0,336,1,380,480,125,0,0,378,-6405,-6656,376,45.701115,4.910059,33.96,195.4,0,0.0,0,0.0,0.1283,1,0.1,0.634
38063,1560695114203,3,2.36,2.24,3.2,2.18,5.05,0.78,-0.29,0.88,6,-0,9,0.83,6996,54,86,33,81,608,377.0,575,461,60,121.0,336,1,378,479,125,0,0,380,0,-992,377,,,,,,,,,,,,
38083,1560695114223,1,2.36,2.25,3.22,2.19,5.04,0.56,-0.21,0.75,7,2,8,0.6,7086,54,86,33,81,638,380.0,573,459,60,121.0,336,1,384,480,125,0,0,375,486,2278,380,,,,,,,,,,,,
38103,1560695114243,-1,2.38,2.25,3.23,2.19,5.05,0.7,-0.24,0.81,6,-2,7,0.74,7211,54,86,33,80,667,381.0,578,461,60,120.0,334,1,392,475,127,0,0,384,257,-992,381,,,,,,,,,,,,
38123,1560695114263,0,2.37,2.25,3.23,2.2,5.04,0.76,-0.31,0.89,7,-2,7,0.82,7335,54,86,33,80,689,383.0,587,461,60,120.0,334,1,399,476,127,0,0,387,1,-19019,383,,,,,,,,,,,,
38143,1560695114283,5,2.38,2.24,3.22,2.21,5.05,0.76,-0.33,0.81,7,-1,8,0.83,7347,54,86,33,79,687,385.0,593,458,60,120.0,334,1,396,468,127,0,0,387,742,-3866,385,45.701115,4.910071,35.38,195.3,0,0.0,0,0.0,0.13,1,0.1,0.6357
38163,1560695114303,4,2.38,2.25,3.23,2.22,5.04,0.67,-0.32,0.77,8,1,9,0.74,7312,54,86,33,79,685,387.0,592,462,60,120.0,334,1,398,461,127,0,0,390,3,-1562,387,,,,,,,,,,,,
38183,1560695114323,5,2.37,2.25,3.22,2.22,5.07,0.49,-0.29,0.77,9,4,10,0.56,7352,54,86,33,78,682,389.0,593,460,60,120.0,334,1,401,461,127,0,0,391,8200,505,389,,,,,,,,,,,,
38203,1560695114343,3,2.39,2.24,3.22,2.22,5.07,0.43,-0.25,0.78,9,2,9,0.5,7284,54,86,33,78,679,392.0,594,457,60,121.0,333,1,397,460,130,0,0,397,19125,6384,392,,,,,,,,,,,,
38223,1560695114363,1,2.39,2.24,3.22,2.22,5.05,0.42,-0.24,0.68,9,1,9,0.48,7367,55,86,33,79,677,394.0,596,460,60,121.0,333,1,401,468,130,0,0,397,-19019,28696,394,,,,,,,,,,,,
38243,1560695114383,2,2.38,2.23,3.23,2.22,5.04,0.45,-0.21,0.64,9,1,11,0.5,7461,56,86,33,79,675,397.0,599,458,60,120.0,333,1,407,469,130,0,0,397,-19019,6512,397,45.701118,4.910083,36.17,195.3,0,0.0,0,0.0,0.1317,1,0.1,0.6374
38263,1560695114403,3,2.38,2.23,3.24,2.23,5.05,0.48,-0.2,0.71,8,-2,11,0.52,7656,58,86,33,78,674,399.0,610,458,60,121.0,333,1,418,462,130,0,0,404,240,6512,400,,,,,,,,,,,,
38283,1560695114423,4,2.38,2.24,3.24,2.22,5.06,0.38,-0.15,0.71,8,-2,10,0.41,7770,60,86,33,78,674,401.0,607,456,60,121.0,333,1,424,462,130,0,0,407,-6524,2524,403,,,,,,,,,,,,
38303,1560695114443,5,2.39,2.23,3.23,2.24,5.05,0.29,-0.18,0.72,8,-3,9,0.34,7825,60,86,33,78,674,408.0,615,461,60,120.0,337,1,428,462,136,0,0,417,1,-9166,408,,,,,,,,,,,,
38323,1560695114463,-1,2.38,2.24,3.24,2.25,5.06,0.28,-0.13,0.69,8,-2,12,0.31,7904,60,86,33,78,674,409.0,610,458,60,120.0,337,1,432,462,136,0,0,427,-32702,-8165,409,,,,,,,,,,,,
38343,1560695114483,2,2.39,2.26,3.23,2.29,5.08,0.44,-0.18,0.68,8,1,12,0.47,8029,61,86,33,77,673,411.0,608,462,60,121.0,337,1,438,454,136,0,0,419,28696,-3414,411,45.701122,4.910097,37.28,195.3,0,0.0,0,0.0,0.1333,1,0.1,0.639
38363,1560695114503,3,2.39,2.28,3.2,2.3,5.05,0.41,-0.11,0.8,8,-1,12,0.42,8187,61,86,33,75,672,415.0,616,461,60,121.0,337,1,436,439,136,0,0,423,1504,31796,415,,,,,,,,,,,,
38383,1560695114523,2,2.39,2.29,3.17,2.3,5.06,0.42,-0.13,0.79,8,-1,10,0.44,8289,62,86,33,73,671,420.0,617,457,60,120.0,337,1,435,421,136,0,0,434,9517,13180,420,,,,,,,,,,,,
38403,1560695114543,-1,2.39,2.32,3.16,2.33,5.06,0.4,-0.06,0.82,8,-0,11,0.4,8281,62,86,33,72,670,426.0,611,457,60,120.0,312,1,436,412,132,0,0,451,13040,21580,426,,,,,,,,,,,,
38423,1560695114563,4,2.38,2.35,3.16,2.37,5.05,0.37,-0.02,0.73,9,1,11,0.37,8337,63,86,33,72,671,432.0,623,462,60,121.0,312,1,434,413,132,0,0,450,18584,2131,432,,,,,,,,,,,,
38443,1560695114583,2,2.37,2.37,3.15,2.4,5.04,0.38,-0.1,0.85,8,0,13,0.39,8389,64,86,33,72,672,437.0,618,454,60,120.0,312,1,433,415,132,0,0,450,-8165,-8985,440,45.701122,4.91011,38.14,195.3,0,0.0,0,0.0,0.135,1,0.11,0.6407
38463,1560695114602,3,2.38,2.39,3.15,2.41,5.05,0.37,-0.05,0.81,9,0,14,0.37,8476,64,86,32,73,674,442.0,627,466,60,121.0,312,1,430,426,132,0,0,457,3635,17628,442,,,,,,,,,,,,
38483,1560695114622,4,2.37,2.41,3.16,2.4,5.06,0.38,-0.16,0.92,9,-0,12,0.42,8581,64,86,32,72,676,447.0,622,456,60,120.0,312,1,427,417,132,0,0,462,-3322,-23623,447,,,,,,,,,,,,
38503,1560695114642,0,2.38,2.42,3.17,2.41,5.06,0.42,-0.19,1.01,9,-2,12,0.46,8692,65,86,32,72,696,452.0,624,456,60,120.0,293,1,424,407,132,0,0,463,21580,10432,452,,,,,,,,,,,,
38523,1560695114662,1,2.37,2.42,3.16,2.42,5.04,0.42,-0.18,0.98,9,-1,13,0.46,8773,65,86,32,71,716,457.0,627,461,60,120.0,293,1,421,407,132,0,0,465,21432,8488,457,,,,,,,,,,,,
38543,1560695114682,2,2.36,2.42,3.19,2.41,5.04,0.31,-0.04,0.94,10,1,15,0.31,8903,65,86,32,71,734,461.0,624,466,60,121.0,293,1,417,407,132,0,0,477,10305,3576,462,45.701122,4.910124,39.97,195.3,0,0.0,0,0.0,0.1367,1,0.11,0.6424
38563,1560695114702,-1,2.37,2.42,3.18,2.42,5.07,0.21,0.06,0.9,10,1,16,0.21,9018,66,86,32,71,752,467.0,632,460,60,121.0,293,1,413,407,132,0,0,481,2524,3580,467,,,,,,,,,,,,
38583,1560695114722,-0,2.36,2.41,3.19,2.42,5.04,0.05,0.22,0.83,11,3,16,0.23,9101,66,86,32,70,782,471.0,625,461,60,120.0,293,1,413,398,132,0,0,491,-9160,-1562,471,,,,,,,,,,,,
38603,1560695114708,1,2.36,2.41,3.18,2.42,5.07,0.04,0.29,0.81,10,3,17,0.29,9186,66,86,32,70,816,476.0,634,455,60,120.0,291,1,414,398,138,0,0,484,12552,998,478,,,,,,,,,,,,
38623,1560695114728,3,2.35,2.41,3.17,2.42,5.05,0.09,0.31,0.89,10,4,17,0.32,9245,66,86,32,70,836,481.0,627,468,60,120.0,291,1,414,398,138,0,0,492,243,-32768,481,,,,,,,,,,,,
38643,1560695114748,4,2.34,2.41,3.15,2.43,5.05,0.28,0.14,0.98,10,1,17,0.32,9337,66,86,32,70,852,486.0,632,456,60,120.0,291,1,415,388,138,0,0,496,-17956,11560,486,45.701126,4.910139,42.44,195.3,0,0.0,0,0.0,0.1383,1,0.11,0.644
38663,1560695114768,4,2.35,2.41,3.14,2.42,5.04,0.44,-0.07,1.04,10,-1,15,0.45,9403,66,86,32,70,873,493.0,635,455,60,120.0,291,1,415,388,138,0,0,507,32033,-21872,493,,,,,,,,,,,,
38683,1560695114788,2,2.33,2.4,3.15,2.41,5.03,0.24,-0.06,1.05,11,2,13,0.24,9469,66,86,32,69,896,499.0,632,460,60,120.0,291,1,415,388,138,0,0,508,-899,-3856,499,,,,,,,,,,,,
38703,1560695114808,2,2.34,2.4,3.16,2.41,5.07,0.2,-0.08,1.06,11,-0,14,0.21,9551,66,86,32,69,911,501.0,631,465,60,120.0,279,1,414,395,139,0,0,523,505,16383,501,,,,,,,,,,,,
38723,1560695114802,1,2.33,2.41,3.17,2.41,5.04,0.32,-0.18,1.11,9,1,14,0.37,9664,66,86,32,69,919,503.0,638,463,60,120.0,279,1,410,405,139,0,0,515,3,1248,505,,,,,,,,,,,,
38743,1560695114822,2,2.32,2.41,3.17,2.4,5.06,0.27,-0.06,1.13,9,0,14,0.28,9811,66,86,32,68,925,508.0,633,459,60,120.0,279,1,403,408,139,0,0,520,10408,1248,508,45.701126,4.910154,44.97,195.3,0,0.0,0,0.0,0.14,1,0.11,0.6457
38763,1560695114902,1,2.31,2.42,3.17,2.38,5.05,0.35,-0.14,1.2,8,1,12,0.37,9894,66,86,32,67,931,511.0,645,454,60,120.0,279,1,402,415,139,0,0,523,-21872,2088,511,,,,,,,,,,,,
38783,1560695114922,4,2.31,2.43,3.15,2.37,5.05,0.41,-0.03,1.14,8,1,12,0.41,9910,66,86,32,67,934,516.0,647,457,60,120.0,279,1,401,416,139,0,0,531,-4054,-28648,516,,,,,,,,,,,,
38803,1560695114942,2,2.3,2.45,3.13,2.39,5.04,0.39,-0.06,1.19,7,1,12,0.39,9952,66,86,32,67,933,521.0,652,454,60,120.0,306,1,400,421,159,0,0,535,26178,-8186,521,,,,,,,,,,,,
38823,1560695114962,1,2.29,2.44,3.14,2.38,5.04,0.55,-0.14,1.22,7,-1,11,0.57,10048,66,86,32,67,936,522.0,645,462,60,120.0,306,1,401,427,159,0,0,544,-14,-30064,522,,,,,,,,,,,,
38843,1560695114982,6,2.3,2.44,3.14,2.38,5.04,0.53,-0.08,1.1,6,-1,10,0.53,10086,66,86,32,67,944,528.0,645,459,60,120.0,306,1,405,428,159,0,0,542,-22519,14504,530,45.70113,4.910171,47.52,195.2,0,0.0,0,0.0,0.1417,1,0.11,0.6474
38863,1560695114996,2,2.3,2.43,3.13,2.37,5.08,0.5,-0.06,1.11,5,-0,9,0.51,10168,66,86,32,67,952,533.0,640,462,60,120.0,306,1,417,431,159,0,0,549,-28648,2104,534,,,,,,,,,,,,
38883,1560695115016,2,2.3,2.43,3.12,2.37,5.05,0.48,-0.05,1.18,5,-1,9,0.49,10268,66,86,32,67,961,536.0,643,463,60,120.0,306,1,422,435,159,0,0,548,14504,-28648,536,,,,,,,,,,,,
38903,1560695115036,3,2.29,2.44,3.13,2.38,5.04,0.49,-0.11,1.17,4,-0,8,0.51,10347,66,86,32,67,971,539.0,636,460,60,120.0,315,1,430,436,170,0,0,558,-32248,2524,541,,,,,,,,,,,,
38923,1560695115056,3,2.29,2.44,3.13,2.38,5.04,0.51,-0.11,1.2,4,-1,7,0.52,10463,66,85,32,67,983,546.0,645,460,60,120.0,315,1,440,439,170,0,0,563,-8186,6274,546,,,,,,,,,,,,
38943,1560695115076,2,2.29,2.43,3.12,2.38,5.05,0.48,-0.16,1.15,4,-1,7,0.51,10504,66,85,32,67,992,548.0,650,462,60,120.0,315,1,444,441,170,0,0,560,-506,-2934,548,45.70113,4.910189,49.63,195.2,0,0.0,0,0.0,0.1433,1,0.11,0.649
38963,1560695115096,3,2.29,2.43,3.12,2.38,5.08,0.55,-0.08,1.11,4,0,7,0.56,10611,65,85,32,67,994,552.0,650,461,60,120.0,315,1,445,442,170,0,0,562,2524,1267,552,,,,,,,,,,,,
38983,1560695115110,4,2.28,2.43,3.12,2.36,5.05,0.58,-0.06,1.1,3,-1,7,0.58,10623,63,86,32,66,994,554.0,653,460,60,120.0,315,1,446,433,170,0,0,577,-9072,-18032,555,,,,,,,,,,,,
39003,1560695115130,4,2.28,2.43,3.1,2.36,5.04,0.52,-0.08,1.13,3,-2,7,0.52,10665,60,86,32,65,989,559.0,655,456,60,120.0,311,1,448,424,174,0,0,570,-32504,-3210,559,,,,,,,,,,,,
39023,1560695115150,6,2.27,2.42,3.11,2.34,5.08,0.52,-0.15,1.14,3,0,5,0.54,10744,58,86,32,63,985,564.0,655,462,60,120.0,311,1,449,407,174,0,0,573,-18032,-16384,564,,,,,,,,,,,,
39043,1560695115170,5,2.26,2.42,3.12,2.33,5.05,0.5,-0.19,1.12,3,1,5,0.54,10738,56,86,32,62,978,563.0,657,461,60,120.0,311,1,450,398,174,0,0,583,-2934,-12040,567,45.70113,4.910206,51.65,195.2,0,0.0,0,0.0,0.145,1,0.11,0.6507
39063,1560695115203,1,2.26,2.44,3.11,2.32,5.04,0.51,-0.27,1.16,2,-0,4,0.58,10806,55,86,32,61,968,569.0,645,465,60,120.0,311,1,450,392,174,0,0,581,-29984,30208,566,,,,,,,,,,,,
39083,1560695115223,3,2.25,2.45,3.1,2.31,5.04,0.54,-0.18,1.08,1,-0,3,0.57,10800,53,85,32,59,949,571.0,659,459,60,120.0,311,1,435,375,174,0,0,578,1267,-3210,569,,,,,,,,,,,,
39103,1560695115243,6,2.24,2.44,3.1,2.29,5.04,0.56,-0.05,0.92,1,-0,3,0.56,10888,49,85,32,58,931,576.0,652,457,60,120.0,268,1,428,368,153,0,0,587,1,-16384,571,,,,,,,,,,,,
39123,1560695115263,6,2.24,2.46,3.1,2.26,5.04,0.57,-0.05,0.99,0,0,2,0.57,10907,45,85,32,55,918,579.0,653,460,60,120.0,268,1,407,342,153,0,0,585,243,8488,573,,,,,,,,,,,,
39143,1560695115283,1,2.23,2.45,3.11,2.23,5.05,0.45,-0.13,1.0,1,-2,2,0.47,10875,42,85,32,52,903,580.0,650,461,60,120.0,268,1,394,309,153,0,0,587,243,208,575,45.701134,4.910225,53.52,195.2,0,0.0,0,0.0,0.1467,1,0.11,0.6524
39163,1560695115303,1,2.23,2.45,3.11,2.21,5.04,0.58,-0.08,0.98,-0,0,2,0.58,10882,40,85,32,50,878,584.0,657,461,60,120.0,268,1,388,284,153,0,0,593,-4035,3472,576,,,,,,,,,,,,
39183,1560695115323,2,2.23,2.44,3.1,2.18,5.07,0.58,0.0,0.93,-1,1,0,0.58,10788,39,85,32,48,853,587.0,653,466,60,120.0,268,1,382,260,153,0,0,583,-4035,8488,578,,,,,,,,,,,,
39203,1560695115298,3,2.22,2.44,3.11,2.15,5.04,0.55,0.09,0.85,-1,-1,-1,0.56,10659,37,85,32,46,841,587.0,652,458,60,120.0,183,1,372,244,106,0,0,590,-12040,10432,579,,,,,,,,,,,,
39223,1560695115318,2,2.22,2.43,3.12,2.13,5.07,0.53,0.18,0.68,-2,0,-1,0.56,10486,35,85,32,45,828,584.0,653,465,60,120.0,183,1,365,240,106,0,0,584,-12040,259,580,,,,,,,,,,,,
39243,1560695115338,3,2.22,2.42,3.14,2.1,5.04,0.54,0.25,0.59,-2,1,-1,0.6,10251,33,85,32,45,805,586.0,648,461,60,120.0,183,1,365,240,106,0,0,585,-1894,-8188,579,45.701134,4.910245,55.38,195.2,0,0.0,0,0.0,0.1483,1,0.12,0.654
39263,1560695115402,1,2.22,2.4,3.14,2.07,5.07,0.63,0.22,0.6,-3,1,-2,0.67,10069,31,85,32,44,783,587.0,638,463,60,120.0,183,1,357,236,106,0,0,589,-12040,-16384,577,,,,,,,,,,,,
39283,1560695115422,5,2.22,2.39,3.13,2.05,5.07,0.76,0.26,0.63,-4,-1,-3,0.8,9889,28,85,32,43,773,586.0,646,458,60,120.0,183,1,350,231,106,0,0,582,-1894,259,578,,,,,,,,,,,,
39303,1560695115442,1,2.23,2.39,3.14,2.04,5.04,0.64,0.27,0.48,-3,1,-3,0.7,9740,26,85,32,42,764,586.0,647,464,60,120.0,147,1,342,225,85,0,0,584,-12040,1267,575,,,,,,,,,,,,
39323,1560695115462,3,2.22,2.38,3.14,1.99,5.05,0.78,0.44,0.43,-4,-1,-3,0.9,9679,25,85,32,40,762,580.0,647,458,60,120.0,147,1,327,219,85,0,0,565,-16384,-32248,572,,,,,,,,,,,,
39343,1560695115482,1,2.21,2.35,3.19,1.95,5.03,0.68,0.3,0.37,-4,1,-5,0.75,9730,24,85,32,39,760,580.0,655,465,60,120.0,147,1,320,216,85,0,0,557,243,2104,571,45.701134,4.910265,56.22,195.1,0,0.0,0,0.0,0.15,1,0.12,0.6557
39363,1560695115500,2,2.22,2.32,3.21,1.9,5.07,0.8,0.44,0.3,-5,-1,-5,0.91,9796,24,85,32,37,766,577.0,654,461,60,120.0,147,1,314,213,85,0,0,551,30208,-3082,566,,,,,,,,,,,,
39383,1560695115520,2,2.2,2.3,3.22,1.88,5.05,0.76,0.26,0.36,-5,-0,-6,0.8,9852,22,85,32,36,775,574.0,652,463,60,120.0,147,1,311,211,85,0,0,550,259,2104,562,,,,,,,,,,,,
39403,1560695115540,5,2.2,2.29,3.25,1.86,5.06,0.88,0.31,0.4,-6,-3,-6,0.93,9842,20,85,32,35,807,574.0,652,459,60,120.0,140,1,308,209,79,0,0,542,774,-2934,559,,,,,,,,,,,,
39423,1560695115560,3,2.2,2.28,3.24,1.83,5.07,0.75,0.36,0.33,-6,1,-7,0.83,9925,18,85,32,33,841,571.0,651,462,60,120.0,140,1,302,208,79,0,0,547,-8186,-8186,557,,,,,,,,,,,,
39443,1560695115580,1,2.19,2.28,3.24,1.82,5.08,0.88,0.27,0.32,-6,0,-8,0.92,9952,18,85,32,32,869,568.0,658,459,60,121.0,140,1,300,207,79,0,0,534,-30159,-22519,552,45.701138,4.910285,56.32,195.1,0,0.0,0,0.0,0.1517,1,0.12,0.6574
39463,1560695115599,3,2.19,2.28,3.23,1.81,5.04,0.89,0.39,0.32,-7,-2,-7,0.98,9946,17,85,32,31,896,563.0,656,462,60,120.0,140,1,295,203,79,0,0,539,2211,-3082,551,,,,,,,,,,,,
39483,1560695115619,2,2.19,2.28,3.22,1.8,5.05,0.81,0.29,0.32,-7,-1,-7,0.86,9962,17,85,32,30,916,557.0,649,462,60,120.0,140,1,291,201,79,0,0,541,-18032,-2934,546,,,,,,,,,,,,
39503,1560695115639,1,2.2,2.27,3.21,1.81,5.04,0.93,0.28,0.3,-8,-1,-8,0.97,10016,16,85,31,29,935,555.0,653,460,60,121.0,139,1,287,202,76,0,0,532,-22263,-28648,542,,,,,,,,,,,,
39523,1560695115659,6,2.19,2.26,3.18,1.79,5.05,0.91,0.45,0.29,-8,-2,-8,1.01,9973,16,85,31,29,935,553.0,656,460,60,120.0,139,1,287,198,76,0,0,539,-9072,-32248,540,,,,,,,,,,,,
39543,1560695115679,1,2.2,2.26,3.18,1.78,5.08,0.84,0.38,0.36,-8,-1,-9,0.92,9957,16,85,31,28,928,551.0,655,465,60,120.0,139,1,282,196,76,0,0,531,6274,2524,536,45.701138,4.910305,55.18,195.1,0,0.0,0,0.0,0.1533,1,0.12,0.659
39563,1560695115699,7,2.19,2.26,3.18,1.78,5.06,0.96,0.33,0.38,-8,-2,-11,1.01,9962,15,85,31,28,920,545.0,658,459,60,120.0,139,1,282,196,76,0,0,535,-22519,-9072,538,,,,,,,,,,,,
39583,1560695115719,4,2.2,2.25,3.19,1.78,5.04,0.92,0.46,0.36,-8,-3,-10,1.03,9873,15,85,31,27,913,545.0,656,462,60,120.0,139,1,278,193,76,0,0,533,-8962,-32248,534,,,,,,,,,,,,
39603,1560695115739,1,2.19,2.26,3.19,1.79,5.05,0.9,0.24,0.43,-8,-2,-10,0.93,9821,14,85,31,27,910,542.0,646,462,60,121.0,135,1,278,192,72,0,0,531,-3082,-9212,531,,,,,,,,,,,,
39623,1560695115759,5,2.2,2.26,3.19,1.78,5.06,1.01,0.4,0.31,-9,-1,-10,1.09,9801,13,85,31,26,910,541.0,654,458,60,120.0,135,1,274,190,72,0,0,532,-2336,-9212,528,,,,,,,,,,,,
39643,1560695115709,1,2.21,2.26,3.19,1.79,5.05,0.97,0.27,0.34,-8,-2,-9,1.01,9755,13,85,31,26,911,539.0,646,465,60,121.0,135,1,274,190,72,0,0,523,1780,2524,525,45.701141,4.910324,53.41,195.1,0,0.0,0,0.0,0.155,1,0.12,0.6607
39663,1560695115799,4,2.2,2.27,3.21,1.78,5.05,0.96,0.45,0.3,-9,-2,-9,1.06,9664,12,85,31,25,910,535.0,650,461,60,120.0,135,1,270,188,72,0,0,520,6274,15679,524,,,,,,,,,,,,
39683,1560695115819,2,2.19,2.26,3.21,1.78,5.04,0.99,0.28,0.4,-9,-1,-11,1.03,9620,12,85,31,25,910,535.0,648,459,60,121.0,135,1,270,188,72,0,0,519,2104,17136,521,,,,,,,,,,,,
39703,1560695115839,1,2.21,2.26,3.2,1.77,5.08,0.87,0.46,0.28,-9,-1,-10,0.98,9605,12,85,31,24,909,530.0,648,463,60,120.0,130,1,270,182,68,0,0,513,2524,-3482,518,,,,,,,,,,,,
39723,1560695115859,4,2.19,2.24,3.21,1.75,5.07,0.99,0.28,0.42,-9,-3,-11,1.03,9561,12,85,31,24,909,531.0,650,460,60,121.0,130,1,270,182,68,0,0,512,2524,-3414,517,,,,,,,,,,,,
39743,1560695115879,1,2.2,2.23,3.21,1.74,5.08,0.85,0.37,0.37,-9,-1,-10,0.93,9522,11,85,31,23,911,529.0,649,462,60,120.0,130,1,270,176,68,0,0,517,-28648,15661,514,45.701141,4.910343,52.37,195.1,0,0.0,0,0.0,0.1567,1,0.12,0.6624
39763,1560695115901,2,2.19,2.25,3.2,1.78,5.04,0.81,0.54,0.29,-9,-2,-10,0.97,9431,11,85,31,23,913,523.0,646,461,60,120.0,130,1,270,176,68,0,0,510,-22519,6274,513,,,,,,,,,,,,
39783,1560695115921,5,2.19,2.27,3.2,1.79,5.05,0.93,0.36,0.45,-10,-4,-11,1.0,9389,11,85,31,22,915,522.0,648,463,60,120.0,130,1,270,170,68,0,0,506,1341,10408,509,,,,,,,,,,,,
39803,1560695115941,3,2.18,2.25,3.18,1.75,5.04,0.92,0.26,0.46,-10,-2,-12,0.95,9342,11,85,32,22,921,520.0,645,465,60,121.0,118,1,270,170,60,0,0,507,1248,998,508,,,,,,,,,,,,
39823,1560695115961,1,2.18,2.26,3.18,1.75,5.04,0.67,0.43,0.38,-9,0,-12,0.8,9295,11,85,32,22,928,518.0,643,460,60,120.0,118,1,270,170,60,0,0,505,1341,-6528,504,,,,,,,,,,,,
39843,1560695115981,1,2.18,2.24,3.16,1.74,5.06,0.64,0.59,0.24,-9,1,-11,0.87,9277,11,85,32,21,935,515.0,645,460,60,120.0,118,1,270,164,60,0,0,505,-14,3,501,45.701141,4.910361,51.05,195.1,0,0.0,0,0.0,0.1583,1,0.12,0.664
39863,1560695115998,3,2.18,2.24,3.16,1.74,5.05,0.77,0.49,0.32,-10,-3,-12,0.92,9245,11,85,32,21,940,513.0,641,457,60,120.0,118,1,270,164,60,0,0,500,-3856,1,497,,,,,,,,,,,,
39883,1560695116018,5,2.18,2.24,3.2,1.74,5.06,0.9,0.28,0.45,-11,-3,-13,0.94,9204,11,85,32,21,946,510.0,642,462,60,120.0,118,1,270,164,60,0,0,494,10994,-1818,495,,,,,,,,,,,,
39903,1560695116038,2,2.18,2.24,3.2,1.75,5.06,1.01,0.07,0.54,-12,-6,-14,1.01,9146,10,85,32,21,959,506.0,641,459,60,121.0,115,1,270,164,57,0,0,501,-28648,10305,494,,,,,,,,,,,,
39923,1560695116058,3,2.17,2.26,3.18,1.74,5.04,1.06,-0.0,0.61,-12,-4,-13,1.06,9097,10,85,32,21,970,506.0,641,463,60,121.0,115,1,270,164,57,0,0,496,-28648,3580,491,,,,,,,,,,,,
39943,1560695116078,3,2.17,2.29,3.17,1.76,5.03,1.04,-0.07,0.64,-12,-5,-14,1.04,9053,10,85,32,20,978,503.0,640,460,60,120.0,115,1,270,157,57,0,0,492,2109,10305,487,45.701145,4.910378,49.78,195.0,0,0.0,0,0.0,0.16,1,0.13,0.6657
39963,1560695116103,4,2.16,2.29,3.18,1.75,5.05,1.01,-0.07,0.65,-12,-4,-15,1.01,9010,10,85,32,20,989,499.0,641,463,60,121.0,115,1,270,157,57,0,0,487,-22519,-23367,482,,,,,,,,,,,,
39983,1560695116123,3,2.17,2.29,3.18,1.74,5.06,0.95,-0.1,0.58,-11,-4,-18,0.95,8962,10,85,32,21,1009,497.0,640,464,60,121.0,115,1,270,157,57,0,0,487,-9216,-23367,481,,,,,,,,,,,,
40003,1560695116143,3,2.16,2.29,3.21,1.73,5.07,0.98,-0.22,0.63,-11,-3,-18,1.01,8911,10,85,32,20,1030,496.0,638,463,60,121.0,110,1,270,157,53,0,0,485,3,10432,478,,,,,,,,,,,,
40023,1560695116163,0,2.16,2.29,3.21,1.72,5.08,1.09,-0.4,0.74,-12,-3,-19,1.16,8852,10,85,32,20,1042,493.0,635,458,60,121.0,110,1,270,157,53,0,0,480,3,-16384,476,,,,,,,,,,,,
40043,1560695116183,2,2.16,2.3,3.21,1.71,5.05,1.18,-0.42,0.77,-12,-3,-20,1.25,8806,10,85,32,21,1057,495.0,636,461,60,120.0,110,1,270,164,53,0,0,478,248,243,472,45.701149,4.910396,48.53,195.0,0,0.0,0,0.0,0.1617,1,0.13,0.6674
40063,1560695116203,3,2.17,2.3,3.21,1.7,5.06,1.26,-0.38,0.79,-13,-5,-20,1.32,8761,10,85,32,21,1082,492.0,642,460,60,120.0,110,1,270,164,53,0,0,477,-32768,6193,470,,,,,,,,,,,,
40083,1560695116223,1,2.15,2.3,3.21,1.68,5.04,1.26,-0.17,0.61,-13,-5,-19,1.27,8720,10,85,32,21,1108,490.0,631,463,60,120.0,110,1,270,164,53,0,0,474,-1818,-9160,468,,,,,,,,,,,,
40103,1560695116243,6,2.16,2.29,3.21,1.66,5.04,1.09,0.05,0.53,-13,-3,-19,1.09,8652,10,85,32,22,1121,487.0,640,465,60,121.0,119,1,270,170,56,0,0,476,505,14488,465,,,,,,,,,,,,
40123,1560695116263,2,2.17,2.3,3.21,1.66,5.05,1.02,0.14,0.53,-13,-1,-19,1.03,8604,10,85,32,22,1134,485.0,635,465,60,121.0,119,1,270,170,56,0,0,470,-10483,-9160,462,,,,,,,,,,,,
40143,1560695116283,2,2.17,2.3,3.19,1.67,5.08,1.06,-0.02,0.67,-13,-1,-21,1.06,8561,10,85,32,23,1154,480.0,641,461,60,120.0,119,1,270,176,56,0,0,464,8488,2524,461,45.701153,4.910412,47.5,195.0,0,0.0,0,0.0,0.1633,1,0.13,0.669
40163,1560695116303,-1,2.17,2.3,3.18,1.68,5.05,1.11,0.05,0.51,-13,-2,-21,1.11,8561,10,85,32,23,1175,478.0,628,463,60,121.0,119,1,270,176,56,0,0,466,16648,-8985,460,,,,,,,,,,,,
40183,1560695116323,2,2.17,2.3,3.15,1.66,5.07,1.06,0.18,0.45,-13,-2,-19,1.07,8526,12,85,32,24,1184,476.0,632,462,60,121.0,119,1,270,181,56,0,0,465,-17956,26704,456,,,,,,,,,,,,
40203,1560695116343,3,2.17,2.28,3.14,1.67,5.08,1.1,0.1,0.58,-13,-2,-19,1.11,8491,14,85,32,24,1192,474.0,636,462,60,120.0,127,1,270,180,58,0,0,461,-9203,16648,454,,,,,,,,,,,,
40223,1560695116363,0,2.16,2.29,3.14,1.68,5.06,1.15,0.16,0.48,-14,-2,-18,1.17,8434,16,85,32,25,1198,469.0,630,462,60,121.0,127,1,270,184,58,0,0,456,10432,26704,451,,,,,,,,,,,,
40243,1560695116383,4,2.17,2.28,3.14,1.68,5.05,1.13,0.21,0.49,-13,-2,-19,1.15,8411,18,85,32,27,1203,467.0,636,460,60,121.0,127,1,278,182,58,0,0,459,30272,23400,449,45.701157,4.910428,46.24,195.0,0,0.0,0,0.0,0.165,1,0.13,0.6707
40263,1560695116403,1,2.16,2.26,3.14,1.67,5.07,1.15,0.19,0.56,-13,-2,-18,1.17,8393,22,85,32,29,1202,464.0,633,465,60,120.0,127,1,285,182,58,0,0,453,16408,21580,447,,,,,,,,,,,,
40283,1560695116423,6,2.17,2.26,3.16,1.68,5.07,1.06,0.3,0.44,-13,-3,-18,1.11,8385,26,85,32,30,1200,464.0,633,465,60,121.0,127,1,289,182,58,0,0,452,2211,5600,444,,,,,,,,,,,,
40303,1560695116443,2,2.17,2.27,3.17,1.68,5.04,1.12,0.25,0.56,-13,-2,-19,1.15,8438,30,85,33,33,1192,460.0,631,458,60,120.0,130,1,300,188,58,0,0,454,-23623,19477,443,,,,,,,,,,,,
40323,1560695116463,3,2.17,2.28,3.16,1.68,5.05,1.15,0.28,0.55,-13,-2,-19,1.18,8449,32,85,33,35,1184,459.0,625,460,60,120.0,130,1,306,196,58,0,0,456,-23623,-28332,441,,,,,,,,,,,,
40343,1560695116483,4,2.17,2.27,3.16,1.69,5.08,1.02,0.39,0.41,-13,-2,-20,1.09,8546,33,85,33,38,1178,458.0,635,461,60,122.0,130,1,317,209,58,0,0,459,17628,23400,440,45.70116,4.910444,44.96,195.0,0,0.0,0,0.0,0.1667,1,0.13,0.6724
40363,1560695116503,4,2.16,2.28,3.16,1.68,5.05,0.98,0.34,0.49,-13,1,-20,1.04,8589,34,85,33,40,1172,458.0,635,465,60,121.0,130,1,326,214,58,0,0,460,17628,243,438,,,,,,,,,,,,
40383,1560695116500,1,2.17,2.3,3.14,1.71,5.05,1.07,0.25,0.55,-13,-1,-20,1.1,8668,35,85,33,41,1142,457.0,632,462,60,120.0,130,1,332,215,58,0,0,456,-9160,-7939,439,,,,,,,,,,,,
40403,1560695116520,-1,2.17,2.3,3.12,1.72,5.07,1.02,0.36,0.46,-13,-0,-19,1.09,8724,35,85,33,42,1104,456.0,636,457,60,120.0,161,1,338,219,71,0,0,452,14488,-28332,438,,,,,,,,,,,,
40423,1560695116540,-1,2.17,2.32,3.12,1.74,5.05,0.85,0.53,0.35,-13,-1,-18,1.0,8790,36,85,33,43,1068,456.0,639,463,60,121.0,161,1,345,221,71,0,0,454,14488,-28332,437,,,,,,,,,,,,
40443,1560695116560,5,2.16,2.34,3.11,1.74,5.04,0.7,0.58,0.31,-12,1,-18,0.91,8840,36,85,33,43,1036,454.0,640,462,60,121.0,161,1,345,222,71,0,0,453,2524,-7939,436,45.701164,4.910459,43.64,195.0,0,0.0,0,0.0,0.1683,1,0.13,0.674
40463,1560695116598,4,2.17,2.34,3.11,1.74,5.08,0.62,0.46,0.36,-12,1,-18,0.77,8865,37,85,33,43,1011,454.0,633,465,60,121.0,161,1,345,222,71,0,0,452,-8985,-7939,435,,,,,,,,,,,,
40483,1560695116618,2,2.17,2.35,3.11,1.74,5.04,0.76,0.21,0.52,-11,1,-19,0.78,8873,37,85,33,43,988,453.0,638,463,60,121.0,161,1,345,222,71,0,0,451,-8985,-768,437,,,,,,,,,,,,
40503,1560695116638,4,2.16,2.35,3.12,1.73,5.05,0.87,-0.01,0.66,-11,1,-20,0.87,8773,37,85,33,44,982,453.0,633,461,60,120.0,169,1,351,223,74,0,0,457,-8985,8488,435,,,,,,,,,,,,
40523,1560695116658,2,2.17,2.34,3.12,1.74,5.04,0.99,-0.02,0.76,-12,-1,-21,0.99,8573,37,85,33,45,992,456.0,632,462,60,120.0,169,1,357,224,74,0,0,457,14488,-6387,437,,,,,,,,,,,,
40543,1560695116678,6,2.16,2.35,3.12,1.73,5.06,0.99,0.05,0.66,-12,1,-20,0.99,8404,37,85,33,45,1020,459.0,628,460,60,121.0,169,1,357,223,74,0,0,458,17628,-9160,440,45.701168,4.910472,42.8,195.0,0,0.0,0,0.0,0.17,1,0.13,0.6757
40563,1560695116698,4,2.17,2.37,3.1,1.74,5.07,0.91,-0.05,0.7,-12,1,-20,0.91,8318,38,85,33,46,1068,457.0,632,465,60,121.0,169,1,363,226,74,0,0,458,-9160,14488,442,,,,,,,,,,,,
40583,1560695116718,-1,2.18,2.38,3.09,1.74,5.07,0.89,0.06,0.62,-12,-0,-20,0.89,8359,38,85,33,47,1111,458.0,629,460,60,121.0,169,1,370,226,74,0,0,460,-23623,8488,442,,,,,,,,,,,,
40603,1560695116738,4,2.17,2.37,3.1,1.74,5.04,0.78,0.04,0.58,-11,3,-20,0.78,8370,38,85,33,48,1148,458.0,630,462,60,121.0,160,1,372,233,71,0,0,461,17628,2131,443,,,,,,,,,,,,
40623,1560695116758,0,2.16,2.36,3.1,1.74,5.02,0.86,0.05,0.63,-11,1,-20,0.87,8374,38,85,33,48,1196,459.0,625,459,60,121.0,160,1,372,233,71,0,0,463,17628,23400,445,,,,,,,,,,,,
40643,1560695116778,7,2.17,2.37,3.1,1.76,5.06,0.82,0.12,0.47,-11,2,-19,0.83,8488,38,85,33,48,1257,459.0,628,461,60,121.0,160,1,372,234,71,0,0,457,-18108,23400,443,45.701176,4.910486,42.65,195.0,0,0.0,0,0.0,0.1717,1,0.14,0.6774
40663,1560695116801,3,2.17,2.36,3.1,1.78,5.05,0.81,-0.01,0.57,-11,3,-20,0.81,8542,38,85,33,48,1308,458.0,631,463,60,121.0,160,1,372,235,71,0,0,457,-23623,15649,443,,,,,,,,,,,,
40683,1560695116821,1,2.18,2.36,3.09,1.79,5.08,0.9,-0.04,0.64,-11,2,-20,0.9,8565,38,85,33,48,1332,459.0,628,460,60,120.0,160,1,373,236,71,0,0,461,-18108,8488,443,,,,,,,,,,,,
40703,1560695116841,0,2.17,2.37,3.08,1.79,5.05,0.86,0.16,0.53,-11,1,-18,0.88,8589,38,85,33,48,1350,459.0,629,460,60,121.0,171,1,373,235,76,0,0,460,-18108,-8985,444,,,,,,,,,,,,
40723,1560695116861,4,2.16,2.37,3.07,1.79,5.06,0.75,0.19,0.56,-11,2,-18,0.78,8612,38,85,33,47,1360,461.0,629,461,60,121.0,171,1,370,229,76,0,0,463,2211,3571,444,,,,,,,,,,,,
40743,1560695116881,3,2.17,2.37,3.07,1.79,5.08,0.81,0.09,0.67,-11,1,-18,0.81,8596,38,85,33,48,1363,462.0,629,461,60,121.0,171,1,373,228,76,0,0,460,12552,17628,445,45.70118,4.9105,43.37,195.0,0,0.0,0,0.0,0.1733,1,0.14,0.6791
40763,1560695116904,0,2.17,2.38,3.08,1.82,5.04,0.88,0.13,0.68,-11,-1,-18,0.89,8549,39,85,33,47,1350,462.0,628,458,60,120.0,171,1,370,228,76,0,0,465,12552,-26615,445,,,,,,,,,,,,
40783,1560695116924,5,2.17,2.37,3.08,1.82,5.04,0.83,0.21,0.56,-11,1,-18,0.85,8488,39,85,33,47,1336,462.0,630,462,60,121.0,171,1,370,234,76,0,0,461,12552,17628,447,,,,,,,,,,,,
40803,1560695116944,2,2.16,2.38,3.1,1.81,5.04,0.83,0.06,0.7,-11,-1,-19,0.83,8442,39,85,34,48,1323,463.0,625,461,60,120.0,167,1,372,234,75,0,0,464,6193,-26615,447,,,,,,,,,,,,
40823,1560695116964,0,2.16,2.38,3.11,1.8,5.05,0.87,0.11,0.65,-11,-1,-19,0.88,8534,39,85,34,48,1314,463.0,622,463,60,120.0,167,1,372,235,75,0,0,464,6193,3571,448,,,,,,,,,,,,
40843,1560695116984,4,2.17,2.37,3.1,1.8,5.07,0.73,0.25,0.55,-11,0,-19,0.77,8604,39,85,34,48,1316,465.0,630,460,60,121.0,167,1,373,236,75,0,0,467,243,-8985,446,45.701183,4.910513,43.78,195.0,0,0.0,0,0.0,0.175,1,0.14,0.6807
40863,1560695116998,3,2.16,2.36,3.09,1.8,5.06,0.74,0.14,0.61,-11,1,-18,0.75,8632,39,85,34,48,1318,466.0,628,452,60,120.0,167,1,373,236,75,0,0,466,-3210,15649,448,,,,,,,,,,,,
40883,1560695117018,3,2.16,2.36,3.09,1.79,5.04,0.86,0.08,0.75,-11,1,-18,0.87,8688,39,85,34,48,1323,466.0,630,455,60,120.0,167,1,373,236,75,0,0,467,-3210,2524,449,,,,,,,,,,,,
40903,1560695117038,1,2.16,2.36,3.07,1.79,5.05,0.92,0.21,0.67,-12,-0,-17,0.95,8672,39,85,34,48,1328,467.0,635,463,60,121.0,171,1,373,238,77,0,0,469,243,14488,448,,,,,,,,,,,,
40923,1560695117058,0,2.17,2.36,3.06,1.82,5.04,0.81,0.39,0.52,-11,1,-16,0.9,8672,39,85,34,48,1331,468.0,633,462,60,121.0,171,1,373,236,77,0,0,467,-16384,16408,449,,,,,,,,,,,,
40943,1560695117078,5,2.16,2.36,3.05,1.83,5.03,0.71,0.36,0.57,-10,3,-17,0.8,8668,35,85,34,47,1334,467.0,633,462,60,121.0,171,1,370,229,77,0,0,469,243,-18108,451,45.701191,4.910526,44.05,195.0,0,0.0,0,0.0,0.1767,1,0.14,0.6824
40963,1560695117104,1,2.17,2.36,3.02,1.83,5.06,0.6,0.47,0.49,-11,5,-17,0.76,8632,29,85,34,44,1334,468.0,632,464,60,121.0,171,1,351,223,77,0,0,472,-16384,12552,452,,,,,,,,,,,,
40983,1560695117124,2,2.17,2.35,3.02,1.83,5.05,0.57,0.29,0.64,-11,3,-17,0.64,8680,25,85,34,41,1335,468.0,630,459,60,120.0,171,1,332,217,77,0,0,465,-16384,-9160,454,,,,,,,,,,,,
41003,1560695117144,-1,2.17,2.35,3.02,1.82,5.07,0.71,0.15,0.74,-11,2,-16,0.73,8729,22,85,34,38,1333,467.0,630,463,60,120.0,156,1,317,209,71,0,0,473,10432,12552,453,,,,,,,,,,,,
41023,1560695117164,4,2.17,2.35,3.03,1.82,5.08,0.81,0.27,0.68,-11,1,-16,0.85,8716,20,85,34,35,1331,468.0,634,463,60,121.0,156,1,308,198,71,0,0,471,-16384,16408,454,,,,,,,,,,,,
41043,1560695117184,3,2.17,2.36,3.04,1.85,5.05,0.69,0.44,0.53,-11,2,-16,0.82,8676,18,85,34,33,1331,469.0,636,459,60,120.0,156,1,302,191,71,0,0,471,10432,-23623,454,45.701199,4.910539,43.88,194.9,0,0.0,0,0.0,0.1783,1,0.14,0.684
41063,1560695117204,1,2.17,2.36,3.05,1.84,5.08,0.59,0.39,0.53,-11,2,-16,0.7,8596,13,85,34,30,1330,471.0,633,458,60,120.0,156,1,291,188,71,0,0,470,32033,2211,454,,,,,,,,,,,,
41083,1560695117224,-1,2.17,2.36,3.03,1.84,5.05,0.73,0.3,0.63,-12,1,-16,0.79,8476,11,85,34,28,1331,471.0,632,463,60,121.0,156,1,282,186,71,0,0,472,32033,2524,457,,,,,,,,,,,,
41103,1560695117244,4,2.16,2.36,3.05,1.84,5.04,0.77,0.39,0.53,-12,2,-17,0.86,8351,10,85,34,26,1332,472.0,633,463,60,121.0,129,1,273,179,59,0,0,469,32033,14488,455,,,,,,,,,,,,
41123,1560695117264,0,2.17,2.34,3.06,1.82,5.03,0.74,0.27,0.6,-12,-0,-17,0.79,8209,9,85,34,24,1295,471.0,624,462,60,121.0,129,1,270,167,59,0,0,465,32033,-26615,453,,,,,,,,,,,,
41143,1560695117284,0,2.17,2.34,3.07,1.8,5.06,0.8,0.32,0.51,-13,-0,-16,0.86,7999,9,85,33,24,1257,471.0,622,460,60,120.0,129,1,269,156,59,0,0,472,32033,3571,453,45.701202,4.910551,44.28,194.9,0,0.0,0,0.0,0.18,1,0.14,0.6857
41163,1560695117304,4,2.16,2.34,3.07,1.8,5.04,0.74,0.39,0.57,-13,0,-15,0.84,7796,8,85,33,23,1217,473.0,618,457,60,121.0,129,1,267,154,59,0,0,468,-1923,-6387,451,,,,,,,,,,,,
41183,1560695117324,5,2.16,2.34,3.08,1.8,5.04,0.74,0.37,0.68,-13,-1,-16,0.83,7646,8,85,33,22,1177,472.0,615,463,60,121.0,129,1,266,151,59,0,0,468,-1923,14488,453,,,,,,,,,,,,
41203,1560695117344,5,2.17,2.35,3.07,1.8,5.04,0.76,0.29,0.64,-13,2,-17,0.82,7539,8,85,33,22,1117,469.0,610,460,60,121.0,95,1,265,151,43,0,0,461,-16384,-28332,451,,,,,,,,,,,,
41223,1560695117364,4,2.17,2.33,3.09,1.78,5.05,0.73,0.23,0.61,-11,2,-18,0.77,7551,8,85,33,22,1048,464.0,609,461,60,121.0,95,1,265,151,43,0,0,447,16408,31796,448,,,,,,,,,,,,
41243,1560695117384,5,2.16,2.29,3.12,1.75,5.08,0.7,0.16,0.64,-11,0,-17,0.72,7637,8,85,33,22,1008,461.0,611,463,60,121.0,95,1,266,151,43,0,0,446,2211,31796,445,45.701214,4.910564,44.78,194.9,0,0.0,0,0.0,0.1817,1,0.14,0.6874
41263,1560695117404,-0,2.17,2.25,3.18,1.71,5.08,0.78,0.03,0.64,-10,3,-17,0.78,7662,7,85,33,22,981,461.0,615,461,60,120.0,95,1,266,151,43,0,0,433,-18108,3826,442,,,,,,,,,,,,
41283,1560695117424,-0,2.16,2.23,3.18,1.72,5.04,0.91,-0.02,0.63,-11,2,-17,0.91,7735,7,85,33,22,953,456.0,621,462,60,120.0,95,1,267,151,43,0,0,438,14488,-3856,439,,,,,,,,,,,,
41303,1560695117444,1,2.17,2.23,3.18,1.73,5.08,0.99,0.04,0.53,-12,2,-18,0.99,7741,7,85,33,22,925,451.0,621,463,60,121.0,100,1,267,151,44,0,0,432,-6387,13552,434,,,,,,,,,,,,
41323,1560695117464,2,2.17,2.23,3.18,1.72,5.05,0.94,0.18,0.41,-12,1,-18,0.95,7809,7,85,33,21,910,449.0,617,465,60,121.0,100,1,268,151,44,0,0,432,15649,-4082,433,,,,,,,,,,,,
41343,1560695117484,4,2.17,2.23,3.18,1.72,5.04,0.9,0.22,0.4,-12,1,-17,0.93,7815,7,85,33,22,910,446.0,623,461,60,121.0,100,1,268,149,44,0,0,428,2131,2524,429,45.701221,4.910576,44.45,194.9,0,0.0,0,0.0,0.1833,1,0.14,0.689
41363,1560695117504,-0,2.17,2.22,3.17,1.73,5.03,0.92,0.19,0.44,-11,2,-18,0.94,7878,7,85,33,21,917,444.0,618,464,60,121.0,100,1,268,149,44,0,0,424,-18341,18584,427,,,,,,,,,,,,
41383,1560695117524,0,2.18,2.22,3.17,1.72,5.07,1.01,0.17,0.42,-11,3,-18,1.03,7888,7,85,33,22,929,440.0,616,462,60,120.0,100,1,268,151,44,0,0,423,20625,-8165,426,,,,,,,,,,,,
41403,1560695117544,3,2.18,2.2,3.16,1.73,5.03,1.01,0.22,0.26,-11,1,-19,1.04,7864,7,85,33,22,941,435.0,627,463,60,121.0,106,1,268,151,45,0,0,423,-7939,-26615,421,,,,,,,,,,,,
41423,1560695117564,4,2.19,2.2,3.16,1.73,5.04,0.88,0.25,0.23,-11,3,-17,0.91,7864,7,85,33,22,953,432.0,621,462,60,121.0,106,1,268,151,45,0,0,421,-3322,9517,419,,,,,,,,,,,,
41443,1560695117584,4,2.19,2.2,3.17,1.74,5.07,0.82,0.27,0.3,-10,4,-16,0.87,7789,7,85,33,22,972,430.0,616,460,60,121.0,106,1,268,151,45,0,0,416,-3314,-9166,415,45.701221,4.910576,44.45,194.9,0,0.0,0,0.0,0.1833,1,0.14,0.6907
41463,1560695117505,1,2.18,2.2,3.18,1.75,5.07,0.9,0.24,0.32,-9,2,-16,0.93,7716,7,85,33,22,999,427.0,622,462,60,120.0,106,1,267,151,45,0,0,418,13552,2524,415,,,,,,,,,,,,
41483,1560695117603,1,2.18,2.2,3.17,1.75,5.04,0.99,0.25,0.3,-9,3,-17,1.02,7674,7,85,33,22,1021,426.0,618,463,60,120.0,106,1,266,151,45,0,0,416,-4082,11560,412,,,,,,,,,,,,
41503,1560695117623,1,2.18,2.2,3.18,1.75,5.04,1.04,0.3,0.29,-10,1,-17,1.09,7591,7,85,33,22,1035,422.0,620,463,60,120.0,104,1,265,151,43,0,0,414,-3414,-26615,410,,,,,,,,,,,,
41523,1560695117643,-1,2.19,2.18,3.19,1.73,5.05,1.04,0.38,0.25,-11,-1,-17,1.11,7563,7,85,33,22,1054,420.0,610,460,60,120.0,104,1,265,151,43,0,0,408,-8165,1504,406,,,,,,,,,,,,
41543,1560695117663,3,2.19,2.18,3.19,1.74,5.07,1.09,0.41,0.17,-11,-2,-16,1.17,7500,7,85,33,21,1078,417.0,617,461,60,121.0,104,1,265,151,43,0,0,407,-21944,-3968,405,45.701237,4.910598,41.63,194.8,0,0.0,0,0.0,0.1867,1,0.15,0.6924
41563,1560695117701,3,2.19,2.18,3.19,1.73,5.08,1.04,0.52,0.13,-11,0,-15,1.16,7482,7,85,33,21,1097,415.0,611,463,60,120.0,104,1,264,149,43,0,0,404,-26615,6384,402,,,,,,,,,,,,
41583,1560695117721,3,2.18,2.19,3.19,1.74,5.06,1.08,0.54,0.19,-12,-2,-15,1.21,7422,7,85,33,21,1106,413.0,617,462,60,121.0,104,1,264,149,43,0,0,398,-9166,-1818,399,,,,,,,,,,,,
41603,1560695117741,4,2.18,2.19,3.2,1.75,5.05,1.04,0.61,0.15,-12,-3,-16,1.21,7396,7,85,33,21,1115,410.0,606,465,60,120.0,105,1,263,149,42,0,0,399,9517,-1562,398,,,,,,,,,,,,
41623,1560695117761,4,2.18,2.19,3.21,1.75,5.04,1.13,0.61,0.17,-13,-4,-14,1.28,7327,7,85,33,21,1125,406.0,613,460,60,120.0,105,1,263,149,42,0,0,397,2524,-6524,396,,,,,,,,,,,,
41643,1560695117781,7,2.2,2.18,3.22,1.75,5.06,1.22,0.51,0.28,-13,-3,-14,1.32,7304,6,85,33,21,1134,403.0,607,463,60,120.0,105,1,263,149,42,0,0,396,-8151,240,392,45.701241,4.910607,40.54,194.8,0,0.0,0,0.0,0.1883,1,0.15,0.694
41663,1560695117801,9,2.2,2.18,3.21,1.75,5.05,1.12,0.41,0.32,-11,-1,-14,1.19,7264,6,85,33,21,1136,399.0,606,460,60,121.0,105,1,262,149,42,0,0,389,28696,-18948,390,,,,,,,,,,,,
41683,1560695117821,7,2.19,2.18,3.21,1.73,5.06,1.02,0.42,0.29,-10,-0,-13,1.11,7192,6,85,33,21,1137,397.0,603,458,60,122.0,105,1,261,149,42,0,0,386,-3968,-18948,387,,,,,,,,,,,,
41703,1560695117841,5,2.2,2.17,3.22,1.73,5.07,0.98,0.45,0.3,-10,0,-14,1.08,7156,6,85,33,21,1136,394.0,600,461,60,122.0,103,1,261,149,40,0,0,385,-1818,8200,383,,,,,,,,,,,,
41723,1560695117861,6,2.2,2.16,3.22,1.74,5.03,1.01,0.43,0.32,-10,-3,-15,1.09,7067,6,85,33,21,1135,391.0,601,461,60,120.0,103,1,260,149,40,0,0,384,-31744,742,380,,,,,,,,,,,,
41743,1560695117881,10,2.2,2.15,3.22,1.73,5.07,1.11,0.27,0.43,-10,-3,-16,1.14,7009,6,85,33,21,1132,387.0,588,462,60,122.0,103,1,260,149,40,0,0,379,240,742,377,45.701248,4.910617,39.49,194.8,0,0.0,0,0.0,0.19,1,0.15,0.6957
41763,1560695117903,6,2.21,2.16,3.23,1.74,5.05,1.0,0.2,0.28,-9,-1,-15,1.02,6959,6,85,33,22,1128,383.0,585,458,60,122.0,103,1,260,151,40,0,0,377,-19126,0,373,,,,,,,,,,,,
41783,1560695117923,7,2.2,2.17,3.24,1.74,5.06,1.01,0.29,0.2,-9,-1,-12,1.05,6885,6,85,33,22,1120,381.0,583,462,60,120.0,103,1,260,150,40,0,0,373,-18948,-1268,372,,,,,,,,,,,,
41803,1560695117943,8,2.22,2.17,3.25,1.76,5.04,0.99,0.21,0.3,-8,-1,-9,1.01,6838,6,85,33,22,1112,377.0,577,460,60,121.0,105,1,260,150,39,0,0,368,-6656,-1268,370,,,,,,,,,,,,
41823,1560695117963,4,2.22,2.15,3.26,1.74,5.05,0.91,0.38,0.23,-8,1,-7,0.99,6795,6,85,33,22,1107,375.0,573,466,60,120.0,105,1,260,150,39,0,0,360,770,-14707,369,,,,,,,,,,,,
41843,1560695117983,7,2.22,2.13,3.26,1.74,5.04,1.02,0.29,0.41,-9,-2,-9,1.06,6737,6,85,33,22,1102,371.0,570,458,60,121.0,105,1,260,150,39,0,0,360,257,-29302,364,45.70126,4.910625,38.16,194.8,0,0.0,0,0.0,0.1917,1,0.15,0.6974
41863,1560695117997,4,2.22,2.12,3.27,1.74,5.06,0.99,0.36,0.29,-8,-1,-11,1.05,6660,6,85,33,22,1054,368.0,561,462,60,120.0,105,1,261,149,39,0,0,360,0,-29302,361,,,,,,,,,,,,
41883,1560695118017,8,2.21,2.13,3.27,1.75,5.06,1.02,0.23,0.35,-8,-1,-12,1.05,6611,6,85,33,23,1007,365.0,557,463,60,122.0,105,1,262,152,39,0,0,357,2790,2060,358,,,,,,,,,,,,
41903,1560695118037,8,2.22,2.13,3.26,1.75,5.06,1.05,0.3,0.24,-7,-2,-12,1.09,6569,6,85,33,23,964,363.0,551,462,60,120.0,106,1,262,152,38,0,0,354,3082,2811,353,,,,,,,,,,,,
41923,1560695118057,5,2.2,2.13,3.27,1.75,5.06,1.04,0.2,0.16,-7,-1,-11,1.06,6528,6,85,33,23,921,358.0,547,463,60,120.0,106,1,262,152,38,0,0,348,-29978,6870,350,,,,,,,,,,,,
41943,1560695118077,6,2.2,2.13,3.29,1.75,5.04,1.01,0.12,0.25,-7,-1,-10,1.02,6481,6,85,33,23,886,356.0,543,461,60,122.0,106,1,263,152,38,0,0,346,4104,8841,348,45.701263,4.910634,36.43,194.8,0,0.0,0,0.0,0.1933,1,0.15,0.699
41963,1560695118103,9,2.2,2.13,3.3,1.74,5.04,1.01,0.28,0.2,-7,1,-9,1.05,6427,6,85,34,23,853,355.0,543,461,60,120.0,106,1,263,152,38,0,0,345,-6644,6870,346,,,,,,,,,,,,
41983,1560695118123,3,2.2,2.13,3.29,1.75,5.06,1.1,0.25,0.26,-7,-0,-9,1.12,6360,6,85,34,24,850,352.0,542,461,60,120.0,106,1,265,155,38,0,0,343,3183,6870,344,,,,,,,,,,,,
42003,1560695118143,3,2.2,2.13,3.29,1.74,5.04,1.06,0.19,0.3,-7,-2,-10,1.08,6308,6,85,34,24,858,349.0,537,458,60,122.0,107,1,265,155,37,0,0,340,2811,-31222,342,,,,,,,,,,,,
42023,1560695118163,4,2.2,2.13,3.29,1.74,5.04,1.02,0.11,0.32,-6,-3,-12,1.03,6262,6,85,34,24,871,346.0,533,460,60,122.0,107,1,266,155,37,0,0,336,-30438,-32559,338,,,,,,,,,,,,
42043,1560695118183,4,2.21,2.13,3.3,1.74,5.07,0.96,0.15,0.28,-6,-3,-12,0.97,6223,6,85,34,24,887,345.0,532,461,60,122.0,107,1,266,155,37,0,0,335,6870,-6528,335,45.701271,4.910642,35.33,194.8,0,0.0,0,0.0,0.195,1,0.15,0.7007
42063,1560695118203,5,2.21,2.13,3.3,1.73,5.08,0.95,0.29,0.27,-6,-2,-10,0.99,6200,5,85,34,25,896,344.0,529,465,60,121.0,107,1,268,159,37,0,0,334,-10554,175,334,,,,,,,,,,,,
42083,1560695118223,5,2.21,2.14,3.31,1.74,5.09,0.98,0.38,0.27,-6,0,-9,1.05,6157,5,85,34,25,902,341.0,527,470,60,120.0,107,1,269,159,37,0,0,331,6668,-12032,333,,,,,,,,,,,,
42103,1560695118243,6,2.2,2.14,3.31,1.73,5.05,0.98,0.42,0.2,-5,3,-9,1.07,6111,5,85,34,25,911,340.0,520,463,60,119.0,111,1,269,159,37,0,0,331,3327,-23296,330,,,,,,,,,,,,
42123,1560695118263,5,2.2,2.14,3.3,1.73,5.04,0.97,0.38,0.12,-5,5,-10,1.04,6075,5,85,34,26,923,338.0,516,462,60,120.0,111,1,272,160,37,0,0,329,-31222,-20736,329,,,,,,,,,,,,
42143,1560695118283,1,2.21,2.14,3.29,1.74,5.06,1.01,0.31,0.14,-4,6,-10,1.06,6065,5,85,34,26,929,336.0,514,462,60,120.0,111,1,272,160,37,0,0,328,3346,-24576,326,45.701279,4.910649,33.59,194.8,0,0.0,0,0.0,0.1967,1,0.15,0.7024
42163,1560695118303,1,2.21,2.14,3.28,1.73,5.07,1.06,0.18,0.14,-5,7,-10,1.08,6060,5,85,34,26,932,334.0,516,459,60,121.0,111,1,272,160,37,0,0,324,4838,-25856,324,,,,,,,,,,,,
42183,1560695118323,1,2.2,2.15,3.28,1.74,5.06,1.14,0.05,0.16,-5,7,-11,1.14,6034,5,85,34,26,923,332.0,514,461,60,121.0,111,1,272,160,37,0,0,323,175,-25856,322,,,,,,,,,,,,
42203,1560695118343,1,2.2,2.14,3.27,1.74,5.04,1.19,-0.09,0.17,-6,7,-11,1.2,6023,5,85,34,26,909,328.0,512,461,60,121.0,111,1,272,160,36,0,0,320,170,-27136,319,,,,,,,,,,,,
42223,1560695118363,1,2.21,2.14,3.28,1.74,5.08,1.26,-0.16,0.2,-7,8,-10,1.27,5973,5,85,34,26,893,327.0,511,456,60,121.0,111,1,271,160,36,0,0,320,-22016,135,319,,,,,,,,,,,,
42243,1560695118383,-0,2.2,2.14,3.27,1.75,5.07,1.31,-0.22,0.24,-7,10,-9,1.33,5911,5,85,34,27,875,326.0,505,461,60,120.0,111,1,274,161,36,0,0,319,165,-30976,316,45.701282,4.910655,32.71,194.8,0,0.0,0,0.0,0.1983,1,0.15,0.704
42263,1560695118404,5,2.2,2.14,3.27,1.76,5.05,1.32,-0.21,0.24,-8,12,-9,1.34,5850,5,85,34,27,862,323.0,498,461,60,120.0,111,1,273,161,36,0,0,318,-24576,130,315,,,,,,,,,,,,
42283,1560695118424,4,2.2,2.14,3.27,1.76,5.04,1.21,-0.18,0.2,-7,14,-9,1.22,5803,5,85,34,27,855,320.0,495,463,60,120.0,111,1,273,161,36,0,0,315,150,130,311,,,,,,,,,,,,
42303,1560695118444,4,2.2,2.14,3.27,1.75,5.04,0.99,-0.11,0.1,-4,17,-9,1.0,5763,5,85,34,27,856,319.0,492,463,60,121.0,112,1,272,161,35,0,0,312,-27136,29440,312,,,,,,,,,,,,
42323,1560695118464,3,2.2,2.13,3.26,1.76,5.04,0.76,-0.02,0.04,-0,16,-7,0.76,5739,5,85,34,28,868,318.0,489,464,60,122.0,112,1,274,162,35,0,0,309,145,29440,308,,,,,,,,,,,,
42343,1560695118484,2,2.2,2.14,3.26,1.75,5.05,0.73,0.09,0.04,0,13,-6,0.74,5719,5,85,34,28,882,314.0,488,461,60,122.0,112,1,274,162,35,0,0,307,135,29440,306,45.70129,4.910662,31.57,194.8,0,0.0,0,0.0,0.2,1,0.15,0.7057
42363,1560695118501,-0,2.2,2.13,3.26,1.75,5.05,0.86,0.03,0.17,-3,8,-6,0.86,5704,5,85,34,29,898,312.0,487,458,60,121.0,112,1,276,163,35,0,0,305,130,28160,306,,,,,,,,,,,,
42383,1560695118521,4,2.2,2.13,3.27,1.75,5.04,0.98,-0.02,0.24,-5,8,-6,0.98,5647,5,85,34,29,910,311.0,484,461,60,120.0,112,1,275,162,35,0,0,304,-32256,26880,302,,,,,,,,,,,,
42403,1560695118541,3,2.21,2.14,3.27,1.77,5.04,0.84,-0.03,0.28,-5,9,-7,0.84,5617,5,85,34,30,916,308.0,482,460,60,121.0,112,1,277,163,34,0,0,303,120,90,300,,,,,,,,,,,,
42423,1560695118561,1,2.2,2.15,3.27,1.79,5.04,0.76,0.03,0.22,-3,7,-7,0.76,5553,5,85,34,30,919,304.0,479,458,60,121.0,112,1,276,162,34,0,0,302,110,24320,298,,,,,,,,,,,,
42443,1560695118581,6,2.2,2.15,3.28,1.79,5.04,0.88,0.06,0.25,-4,3,-8,0.89,5503,5,85,34,31,916,304.0,472,465,60,120.0,112,1,277,163,34,0,0,297,110,23040,295,45.701298,4.910667,30.65,194.7,0,0.0,0,0.0,0.2017,1,0.15,0.7074
42463,1560695118600,4,2.21,2.14,3.28,1.79,5.05,0.83,-0.01,0.25,-6,6,-8,0.83,5453,5,85,34,32,912,301.0,461,466,60,121.0,112,1,279,163,34,0,0,295,26880,80,294,,,,,,,,,,,,
42483,1560695118620,1,2.22,2.14,3.29,1.79,5.08,0.8,0.06,0.19,-3,4,-6,0.8,5412,5,85,34,33,907,301.0,462,456,60,122.0,112,1,281,163,34,0,0,294,26880,0,292,,,,,,,,,,,,
42503,1560695118640,5,2.21,2.14,3.28,1.77,5.07,0.92,0.06,0.19,-5,4,-6,0.92,5398,5,85,34,33,894,298.0,462,463,60,120.0,116,1,280,168,34,0,0,292,95,10686,291,,,,,,,,,,,,
42523,1560695118660,1,2.22,2.14,3.29,1.78,5.04,0.72,0.05,0.23,-4,5,-6,0.72,5409,5,85,34,34,863,298.0,454,460,60,122.0,116,1,285,175,34,0,0,289,90,10686,289,,,,,,,,,,,,
42543,1560695118680,1,2.22,2.14,3.28,1.77,5.04,0.85,0.06,0.28,-4,2,-6,0.85,5375,5,85,34,34,832,295.0,451,461,60,120.0,116,1,284,174,34,0,0,289,23040,41,288,45.701302,4.910673,29.68,194.7,0,0.0,0,0.0,0.2033,1,0.16,0.709
42563,1560695118700,2,2.23,2.13,3.28,1.76,5.07,0.81,-0.02,0.3,-5,5,-9,0.81,5331,5,85,34,35,807,293.0,450,465,60,122.0,116,1,287,179,34,0,0,287,21760,250,286,,,,,,,,,,,,
42583,1560695118720,0,2.24,2.13,3.28,1.77,5.08,0.77,0.05,0.29,-2,2,-7,0.77,5311,5,85,34,35,785,291.0,449,462,60,122.0,116,1,287,179,34,0,0,285,20480,24064,285,,,,,,,,,,,,
42603,1560695118740,4,2.25,2.13,3.3,1.78,5.04,0.89,0.01,0.32,-5,3,-7,0.89,5302,5,85,34,36,768,288.0,453,465,60,121.0,129,1,290,185,37,0,0,283,0,24064,283,,,,,,,,,,,,
42623,1560695118760,2,2.25,2.14,3.32,1.79,5.04,0.73,0.06,0.34,-2,2,-7,0.73,5235,5,85,34,36,754,285.0,452,456,60,122.0,129,1,290,185,37,0,0,283,-16896,24064,282,,,,,,,,,,,,
42643,1560695118780,1,2.27,2.14,3.31,1.79,5.04,0.85,-0.02,0.36,-5,4,-7,0.85,5172,5,85,34,37,762,285.0,442,469,60,122.0,129,1,293,190,37,0,0,279,-16896,250,281,45.701309,4.910678,28.89,194.7,0,0.0,0,0.0,0.205,1,0.16,0.7107
42663,1560695118800,-1,2.28,2.14,3.31,1.81,5.06,0.86,0.07,0.32,-1,2,-7,0.86,5128,5,85,34,37,772,283.0,441,457,60,120.0,129,1,292,190,37,0,0,276,-1529,250,279,,,,,,,,,,,,
42683,1560695118820,-0,2.29,2.13,3.32,1.82,5.08,0.77,-0.03,0.31,-3,4,-6,0.78,5111,5,85,34,38,783,280.0,438,466,60,123.0,129,1,296,196,37,0,0,273,250,30208,278,,,,,,,,,,,,
42703,1560695118840,4,2.3,2.13,3.33,1.81,5.08,0.9,0.04,0.31,-2,-1,-4,0.9,5120,5,85,34,38,794,278.0,430,459,60,120.0,133,1,296,203,37,0,0,272,250,28160,277,,,,,,,,,,,,
42723,1560695118860,2,2.3,2.12,3.33,1.81,5.04,0.61,-0.03,0.29,0,6,-5,0.61,5082,5,85,34,39,797,277.0,434,460,60,121.0,133,1,300,203,37,0,0,271,-1527,-1281,277,,,,,,,,,,,,
42743,1560695118880,2,2.31,2.11,3.32,1.81,5.08,0.75,-0.03,0.36,-2,3,-4,0.75,5062,5,85,34,39,797,275.0,438,469,60,121.0,133,1,300,203,37,0,0,268,250,28160,275,45.701317,4.910684,27.82,194.7,0,0.0,0,0.0,0.2067,1,0.16,0.7124
42763,1560695118904,5,2.32,2.1,3.3,1.83,5.04,0.74,0.03,0.39,1,0,-3,0.74,5017,5,85,34,39,804,274.0,429,457,60,120.0,133,1,300,203,37,0,0,268,-1281,-1,274,,,,,,,,,,,,
42783,1560695118924,0,2.33,2.09,3.31,1.83,5.08,0.6,-0.07,0.35,1,6,-4,0.6,4977,5,85,34,40,811,273.0,425,461,60,122.0,133,1,298,203,37,0,0,265,-1,-1,273,,,,,,,,,,,,
42803,1560695118944,1,2.35,2.08,3.31,1.84,5.05,0.74,-0.03,0.37,-1,1,-3,0.74,4962,5,85,34,41,817,271.0,421,471,60,122.0,140,1,299,205,38,0,0,263,-1,-1,270,,,,,,,,,,,,
42823,1560695118964,4,2.35,2.07,3.33,1.85,5.08,0.78,-0.02,0.34,2,-1,0,0.78,4923,5,85,34,41,823,269.0,412,458,60,120.0,140,1,297,204,38,0,0,258,-1,-1,268,,,,,,,,,,,,
42843,1560695118984,1,2.36,2.05,3.33,1.86,5.04,0.57,-0.13,0.36,3,3,1,0.59,4884,5,85,34,41,824,268.0,413,460,60,122.0,140,1,296,202,38,0,0,259,-1,-1,267,45.701321,4.910688,26.59,194.7,0,0.0,0,0.0,0.2083,1,0.16,0.714
42863,1560695118996,1,2.38,2.04,3.33,1.87,5.05,0.64,-0.16,0.41,1,3,1,0.66,4870,5,85,34,41,825,267.0,412,461,60,122.0,140,1,295,202,38,0,0,255,-10440,-1,267,,,,,,,,,,,,
42883,1560695119016,2,2.38,2.05,3.34,1.9,5.05,0.78,-0.15,0.42,2,-1,1,0.79,4821,5,85,34,42,820,265.0,402,468,60,121.0,140,1,295,202,38,0,0,255,506,-1,265,,,,,,,,,,,,
42903,1560695119036,4,2.4,2.05,3.34,1.91,5.05,0.84,-0.05,0.32,4,-2,3,0.85,4786,5,85,34,42,815,264.0,404,458,60,120.0,135,1,293,201,36,0,0,251,-1,-1,264,,,,,,,,,,,,
42923,1560695119056,6,2.42,2.05,3.35,1.95,5.06,0.75,-0.11,0.3,6,-2,5,0.76,4752,5,85,34,42,812,264.0,398,455,60,119.0,135,1,292,201,36,0,0,251,-214,-1,264,,,,,,,,,,,,
42943,1560695119076,-0,2.45,2.04,3.36,1.96,5.06,0.61,-0.27,0.3,6,3,6,0.67,4693,5,85,34,42,809,263.0,395,460,60,121.0,135,1,290,201,36,0,0,247,16896,-10440,263,45.701328,4.910693,25.9,194.6,0,0.0,0,0.0,0.21,1,0.16,0.7157
42963,1560695119104,2,2.46,2.02,3.35,1.96,5.04,0.64,-0.33,0.34,6,4,6,0.72,4636,5,85,34,42,809,263.0,394,458,60,122.0,135,1,287,197,36,0,0,243,10812,-1,263,,,,,,,,,,,,
42983,1560695119124,-0,2.49,2.0,3.36,1.97,5.05,0.71,-0.36,0.42,6,3,5,0.8,4611,5,85,34,42,812,262.0,385,462,60,122.0,135,1,287,196,36,0,0,240,23482,-10440,262,,,,,,,,,,,,
43003,1560695119144,2,2.5,1.98,3.39,1.97,5.05,0.84,-0.38,0.42,7,2,6,0.93,4578,5,85,34,42,822,262.0,385,467,60,122.0,129,1,285,195,34,0,0,234,-17920,506,262,,,,,,,,,,,,
43023,1560695119164,-1,2.53,1.96,3.42,1.97,5.05,0.95,-0.41,0.45,8,-0,8,1.03,4544,5,85,34,42,834,261.0,384,465,60,122.0,129,1,284,194,34,0,0,230,-25600,-1,261,,,,,,,,,,,,
43043,1560695119184,0,2.54,1.95,3.43,1.97,5.08,1.05,-0.42,0.47,9,-1,10,1.13,4542,5,85,34,43,844,259.0,380,468,60,122.0,129,1,287,197,34,0,0,230,13602,-1,259,45.701332,4.910697,25.39,194.7,0,0.0,0,0.0,0.2117,1,0.16,0.7174
43063,1560695119204,1,2.54,1.95,3.43,2.0,5.06,1.15,-0.39,0.5,9,-3,12,1.21,4508,5,85,34,43,854,258.0,376,470,60,122.0,129,1,286,196,34,0,0,227,250,-214,258,,,,,,,,,,,,
43083,1560695119224,1,2.55,1.94,3.44,2.02,5.04,1.2,-0.39,0.52,10,-4,12,1.26,4448,5,85,34,43,858,256.0,375,464,60,122.0,129,1,284,194,34,0,0,225,18432,-214,256,,,,,,,,,,,,
43103,1560695119244,1,2.56,1.95,3.44,2.01,5.05,1.23,-0.39,0.5,11,-4,14,1.3,4372,5,85,34,42,855,255.0,374,462,60,122.0,125,1,278,190,32,0,0,222,250,10818,255,,,,,,,,,,,,
43123,1560695119264,-1,2.58,1.94,3.45,2.03,5.06,1.21,-0.46,0.48,11,-1,16,1.3,4337,5,85,34,42,849,254.0,369,462,60,122.0,125,1,276,188,32,0,0,219,10318,250,254,,,,,,,,,,,,
43143,1560695119284,3,2.58,1.94,3.46,2.03,5.06,1.14,-0.5,0.49,12,2,17,1.24,4328,5,85,34,42,836,253.0,364,455,60,120.0,125,1,276,188,32,0,0,216,-1530,10812,253,45.70134,4.910703,24.74,194.7,0,0.0,0,0.0,0.2133,1,0.16,0.719
43163,1560695119304,4,2.57,1.94,3.45,2.03,5.06,1.08,-0.52,0.41,13,3,17,1.2,4307,5,85,34,42,826,252.0,360,460,60,121.0,125,1,276,187,32,0,0,217,-1530,-1494,252,,,,,,,,,,,,
43183,1560695119324,2,2.58,1.94,3.45,2.04,5.07,0.96,-0.54,0.4,13,5,18,1.1,4306,5,85,34,42,817,251.0,358,460,60,120.0,125,1,276,188,32,0,0,216,250,15360,251,,,,,,,,,,,,
43203,1560695119344,-0,2.58,1.95,3.44,2.04,5.03,0.92,-0.54,0.38,14,4,21,1.07,4269,5,85,35,42,812,250.0,353,460,60,120.0,123,1,274,185,31,0,0,213,250,-1445,250,,,,,,,,,,,,
43223,1560695119364,-0,2.57,1.95,3.4,2.04,5.05,0.97,-0.48,0.41,16,0,23,1.08,4309,5,85,35,43,816,248.0,351,462,60,122.0,123,1,280,190,31,0,0,215,1210,-1445,246,,,,,,,,,,,,
43243,1560695119384,-2,2.58,1.95,3.39,2.03,5.05,1.06,-0.46,0.44,16,-3,23,1.15,4240,5,85,35,43,821,247.0,353,465,60,122.0,123,1,278,188,31,0,0,213,1210,250,247,45.701344,4.910708,23.84,194.7,0,0.0,0,0.0,0.215,1,0.16,0.7207
43263,1560695119404,-0,2.56,1.95,3.39,2.03,5.07,1.15,-0.43,0.47,17,-3,24,1.23,4260,7,85,35,43,830,246.0,351,464,60,122.0,123,1,278,189,31,0,0,214,250,-1484,246,,,,,,,,,,,,
43283,1560695119424,3,2.56,1.94,3.38,2.02,5.07,1.09,-0.42,0.53,17,0,24,1.17,4202,11,85,35,43,837,243.0,350,460,60,122.0,123,1,276,187,31,0,0,212,1088,13468,243,,,,,,,,,,,,
43303,1560695119444,1,2.55,1.94,3.39,2.03,5.08,1.04,-0.46,0.47,17,2,23,1.14,4180,15,85,35,45,842,242.0,349,462,60,120.0,123,1,284,193,30,0,0,209,1088,-25600,242,,,,,,,,,,,,
43323,1560695119464,-0,2.52,1.96,3.38,2.03,5.05,0.99,-0.43,0.4,17,1,24,1.08,4183,18,85,35,48,847,240.0,345,460,60,121.0,123,1,293,200,30,0,0,209,16384,-1483,240,,,,,,,,,,,,
43343,1560695119484,0,2.5,1.98,3.38,2.06,5.04,1.04,-0.39,0.44,17,-3,26,1.11,4167,20,85,35,50,851,238.0,342,463,60,122.0,123,1,295,212,30,0,0,209,16384,13602,238,45.701347,4.910714,23.01,194.7,0,0.0,0,0.0,0.2167,1,0.16,0.7224
43363,1560695119502,1,2.48,1.99,3.39,2.03,5.06,1.07,-0.4,0.47,17,-2,25,1.14,4216,21,85,35,53,855,236.0,343,461,60,122.0,123,1,297,221,30,0,0,210,-1533,10824,236,,,,,,,,,,,,
43383,1560695119522,5,2.45,2.0,3.37,2.03,5.07,1.02,-0.37,0.46,17,-1,24,1.09,4293,22,85,35,55,854,234.0,351,460,60,122.0,123,1,298,232,30,0,0,212,1088,10824,234,,,,,,,,,,,,
43403,1560695119542,3,2.43,2.03,3.34,2.04,5.05,0.94,-0.37,0.41,16,1,23,1.01,4312,22,85,35,58,854,232.0,348,460,60,121.0,161,1,295,247,38,0,0,212,1088,10824,232,,,,,,,,,,,,
43423,1560695119562,0,2.43,2.04,3.32,2.04,5.06,0.83,-0.36,0.42,15,3,23,0.91,4360,22,85,35,60,858,230.0,355,460,60,120.0,161,1,293,257,38,0,0,212,16384,10824,230,,,,,,,,,,,,
43443,1560695119582,1,2.41,2.04,3.32,2.03,5.08,0.82,-0.33,0.38,15,2,22,0.88,4367,23,85,35,61,862,229.0,356,461,60,120.0,161,1,292,262,38,0,0,211,16384,18432,229,45.701351,4.910719,22.21,194.7,0,0.0,0,0.0,0.2183,1,0.16,0.724
43463,1560695119599,1,2.39,2.04,3.31,2.03,5.04,0.79,-0.3,0.39,15,3,22,0.84,4446,23,85,35,63,867,228.0,358,461,60,120.0,161,1,293,274,38,0,0,213,1088,-1496,228,,,,,,,,,,,,
43483,1560695119619,1,2.36,2.04,3.3,2.01,5.08,0.79,-0.27,0.39,15,1,23,0.84,4489,23,85,35,64,871,227.0,361,459,60,120.0,161,1,293,280,38,0,0,214,-1532,10318,227,,,,,,,,,,,,
43503,1560695119639,-1,2.34,2.04,3.26,2.01,5.05,0.81,-0.22,0.38,14,2,22,0.84,4503,24,85,35,65,876,225.0,364,456,60,120.0,210,1,292,286,48,0,0,216,250,19968,225,,,,,,,,,,,,
43523,1560695119659,2,2.29,2.05,3.26,2.0,5.04,0.75,-0.15,0.35,13,1,21,0.76,4623,24,85,35,66,880,224.0,372,453,60,120.0,210,1,291,294,48,0,0,215,250,1596,224,,,,,,,,,,,,
43543,1560695119679,4,2.24,2.09,3.23,1.99,5.04,0.67,-0.11,0.32,12,4,19,0.68,4667,24,85,35,67,881,222.0,379,449,60,120.0,210,1,290,301,48,0,0,219,-17920,1596,222,45.701355,4.910725,22.07,194.7,0,0.0,0,0.0,0.22,1,0.16,0.7257
43563,1560695119699,4,2.18,2.14,3.19,1.98,5.04,0.61,-0.08,0.39,9,5,17,0.62,4682,24,85,35,68,882,220.0,378,456,60,121.0,210,1,289,308,48,0,0,221,250,-1530,219,,,,,,,,,,,,
43583,1560695119719,4,2.13,2.23,3.13,1.98,5.04,0.61,-0.05,0.46,6,5,14,0.61,4569,24,85,35,69,894,224.0,384,458,60,122.0,210,1,291,309,48,0,0,227,250,250,219,,,,,,,,,,,,
43603,1560695119739,5,2.07,2.33,3.05,1.99,5.06,0.66,-0.02,0.49,4,5,10,0.66,4331,24,85,35,69,905,231.0,367,455,60,122.0,237,1,294,304,52,0,0,235,-1494,250,221,,,,,,,,,,,,
43623,1560695119759,3,2.0,2.41,2.95,2.02,5.05,0.69,0.05,0.48,2,5,9,0.69,4172,25,85,35,70,916,236.0,352,455,60,119.0,237,1,296,303,52,0,0,236,250,10824,221,,,,,,,,,,,,
43643,1560695119779,-0,1.93,2.44,2.89,2.01,5.04,0.67,0.12,0.46,0,4,8,0.68,4122,25,85,35,71,928,240.0,341,462,60,121.0,237,1,297,305,52,0,0,238,250,18432,221,45.701359,4.910731,21.43,194.8,0,0.0,0,0.0,0.2217,1,0.16,0.7274
43663,1560695119801,-1,1.87,2.44,2.9,1.99,5.04,0.73,0.15,0.55,-2,2,5,0.75,4072,25,85,35,72,958,241.0,341,468,60,122.0,237,1,297,303,52,0,0,239,-17920,19968,219,,,,,,,,,,,,
43683,1560695119821,5,1.8,2.43,2.93,1.95,5.08,0.78,0.26,0.53,-5,1,3,0.82,4149,25,85,35,72,989,241.0,336,457,60,121.0,237,1,296,308,52,0,0,241,-17920,-1532,218,,,,,,,,,,,,
43703,1560695119841,2,1.75,2.44,2.95,1.89,5.04,0.73,0.34,0.45,-8,2,-2,0.8,4201,25,85,35,72,1012,245.0,338,462,60,120.0,225,1,296,314,49,0,0,243,10812,16384,215,,,,,,,,,,,,
43723,1560695119861,-2,1.72,2.44,2.96,1.83,5.06,0.74,0.41,0.42,-11,2,-5,0.84,4200,25,85,35,73,1032,248.0,343,462,60,121.0,225,1,296,314,49,0,0,243,250,-14848,212,,,,,,,,,,,,
43743,1560695119881,-0,1.68,2.44,2.96,1.79,5.03,0.76,0.41,0.4,-13,0,-9,0.87,4260,25,85,35,73,1046,252.0,342,467,60,122.0,225,1,295,315,49,0,0,245,-1,13964,211,45.701363,4.910737,21.62,194.8,0,0.0,0,0.0,0.2233,1,0.16,0.729
43763,1560695119899,0,1.63,2.44,2.96,1.75,5.06,0.83,0.44,0.4,-15,-1,-12,0.94,4356,25,85,35,73,1058,255.0,349,470,60,123.0,225,1,293,318,49,0,0,248,-1281,250,210,,,,,,,,,,,,
43783,1560695119919,-0,1.58,2.45,2.95,1.75,5.04,0.92,0.45,0.48,-18,-3,-16,1.02,4439,25,85,35,73,1055,256.0,353,462,60,123.0,225,1,292,321,49,0,0,250,506,-1482,207,,,,,,,,,,,,
43803,1560695119939,-1,1.55,2.44,2.94,1.74,5.08,1.0,0.48,0.53,-20,-4,-19,1.11,4413,25,85,35,73,1046,256.0,358,471,60,123.0,256,1,292,320,53,0,0,250,506,250,206,,,,,,,,,,,,
43823,1560695119959,-1,1.51,2.45,2.94,1.74,5.04,1.04,0.48,0.58,-22,-6,-23,1.15,4492,25,85,35,73,1048,256.0,360,466,60,122.0,256,1,291,322,53,0,0,248,506,1596,206,,,,,,,,,,,,
43843,1560695119979,-1,1.48,2.44,2.93,1.74,5.05,1.07,0.5,0.58,-24,-7,-26,1.18,4533,25,85,35,74,1055,256.0,364,464,60,122.0,256,1,290,324,53,0,0,250,506,250,205,45.701366,4.910743,22.15,194.8,0,0.0,0,0.0,0.225,1,0.16,0.7307
43863,1560695119998,-0,1.46,2.44,2.94,1.75,5.07,1.13,0.51,0.62,-27,-7,-28,1.24,4537,25,85,35,73,1066,257.0,370,465,60,122.0,256,1,290,324,53,0,0,249,14337,-41,203,,,,,,,,,,,,
43883,1560695120018,-0,1.46,2.43,2.94,1.74,5.05,1.19,0.53,0.66,-29,-7,-31,1.3,4659,25,85,35,74,1082,259.0,371,471,60,122.0,256,1,288,331,53,0,0,249,-41,-1494,204,,,,,,,,,,,,
43903,1560695120038,1,1.47,2.43,2.95,1.72,5.06,1.17,0.53,0.69,-31,-9,-36,1.29,4742,25,85,35,74,1107,257.0,380,472,60,122.0,285,1,287,334,58,0,0,249,14337,15360,203,,,,,,,,,,,,
43923,1560695120058,3,1.48,2.42,2.94,1.72,5.06,1.22,0.56,0.65,-32,-8,-41,1.34,4755,25,85,35,74,1137,259.0,386,461,60,120.0,285,1,287,335,58,0,0,251,-41,10818,203,,,,,,,,,,,,
43943,1560695120078,5,1.47,2.43,2.94,1.72,5.08,1.08,0.6,0.56,-33,-5,-45,1.23,4802,25,85,35,74,1159,263.0,389,463,60,120.0,285,1,286,337,58,0,0,251,-1,-1,201,45.70137,4.910748,21.31,194.8,0,0.0,0,0.0,0.2267,1,0.17,0.7324
43963,1560695120103,0,1.48,2.43,2.94,1.73,5.04,0.94,0.63,0.5,-35,-2,-48,1.13,4791,25,85,35,74,1173,264.0,396,451,60,120.0,285,1,286,336,58,0,0,252,-1,-1,201,,,,,,,,,,,,
43983,1560695120123,1,1.47,2.44,2.93,1.72,5.05,1.01,0.64,0.54,-38,-5,-50,1.2,4831,25,85,35,74,1178,263.0,392,470,60,122.0,285,1,285,337,58,0,0,254,-1,-1494,202,,,,,,,,,,,,
44003,1560695120143,1,1.47,2.44,2.92,1.73,5.05,1.07,0.64,0.56,-39,-6,-50,1.25,4797,25,85,35,74,1171,264.0,396,471,60,121.0,301,1,286,336,61,0,0,255,-1,16896,203,,,,,,,,,,,,
44023,1560695120163,1,1.47,2.45,2.91,1.73,5.05,1.08,0.69,0.55,-39,-4,-51,1.29,4736,25,85,35,74,1159,266.0,391,463,60,120.0,301,1,287,334,61,0,0,254,-1,-1281,204,,,,,,,,,,,,
44043,1560695120183,3,1.48,2.44,2.91,1.72,5.08,0.95,0.67,0.54,-40,-3,-52,1.16,4730,25,85,35,74,1139,268.0,384,463,60,120.0,301,1,287,333,61,0,0,255,-1,506,204,45.701378,4.910752,20.97,194.9,0,0.0,0,0.0,0.2283,1,0.17,0.734
44063,1560695120203,5,1.48,2.43,2.92,1.72,5.05,0.85,0.65,0.51,-41,0,-54,1.07,4699,25,85,35,74,1111,267.0,391,448,60,120.0,301,1,288,332,61,0,0,255,-1,15360,205,,,,,,,,,,,,
44083,1560695120223,1,1.49,2.44,2.91,1.73,5.04,0.86,0.71,0.47,-43,-1,-55,1.12,4716,25,85,35,74,1076,270.0,389,456,60,122.0,301,1,287,333,61,0,0,256,-1,13468,206,,,,,,,,,,,,
44103,1560695120243,-1,1.5,2.44,2.91,1.72,5.05,0.91,0.76,0.52,-45,-2,-57,1.19,4714,25,85,35,74,1047,271.0,387,460,60,122.0,286,1,287,333,59,0,0,257,-1281,-1,205,,,,,,,,,,,,
44123,1560695120263,-2,1.53,2.44,2.91,1.73,5.05,1.01,0.8,0.59,-46,-3,-58,1.29,4768,25,85,35,74,1032,270.0,390,463,60,122.0,286,1,286,335,59,0,0,257,-1,-1,205,,,,,,,,,,,,
44143,1560695120283,3,1.56,2.44,2.93,1.74,5.04,0.97,0.83,0.62,-46,-3,-59,1.28,4832,25,85,35,74,1019,268.0,391,472,60,121.0,286,1,285,337,59,0,0,255,-1,-1484,206,45.701378,4.910756,20.72,194.9,0,0.0,0,0.0,0.23,1,0.17,0.7357
44163,1560695120305,3,1.61,2.44,2.93,1.74,5.06,0.92,0.91,0.45,-45,0,-60,1.3,4852,25,85,35,74,1007,268.0,399,452,60,120.0,286,1,285,338,59,0,0,257,-1,250,206,,,,,,,,,,,,
44183,1560695120325,0,1.65,2.44,2.93,1.75,5.05,0.85,0.84,0.52,-46,-1,-60,1.19,4831,25,85,35,74,1000,269.0,398,456,60,122.0,286,1,285,337,59,0,0,257,-1,250,208,,,,,,,,,,,,
44203,1560695120345,-1,1.72,2.45,2.93,1.79,5.07,0.91,0.77,0.66,-46,-1,-61,1.19,4843,25,85,35,74,1003,269.0,392,463,60,122.0,293,1,285,337,61,0,0,259,-1,-1,210,,,,,,,,,,,,
44223,1560695120365,0,1.76,2.43,2.94,1.82,5.05,0.94,0.78,0.74,-44,-5,-60,1.22,4887,25,85,35,74,1005,267.0,400,462,60,121.0,293,1,284,339,61,0,0,259,-1,-1494,211,,,,,,,,,,,,
44243,1560695120385,3,1.82,2.43,2.94,1.88,5.07,0.78,0.77,0.74,-42,-1,-60,1.1,4786,25,85,35,74,1007,266.0,396,466,60,121.0,293,1,287,340,61,0,0,260,-1,10824,217,45.701386,4.910758,21.03,194.9,0,0.0,0,0.0,0.2317,1,0.17,0.7374
44263,1560695120405,4,1.89,2.43,2.94,1.96,5.06,0.69,0.71,0.64,-41,3,-59,0.99,4584,25,85,35,74,1008,265.0,385,450,60,120.0,293,1,290,329,61,0,0,261,-1,-1,222,,,,,,,,,,,,
44283,1560695120425,4,1.95,2.42,2.94,2.01,5.04,0.65,0.57,0.62,-40,3,-57,0.86,4462,25,85,35,74,1006,263.0,374,458,60,120.0,293,1,292,325,61,0,0,259,-1,13602,225,,,,,,,,,,,,
44303,1560695120445,3,2.01,2.4,2.99,2.06,5.06,0.62,0.49,0.62,-38,6,-55,0.79,4427,25,85,35,74,1003,263.0,365,453,60,120.0,237,1,292,324,54,0,0,260,-1,250,229,,,,,,,,,,,,
44323,1560695120465,2,2.09,2.36,3.08,2.12,5.04,0.57,0.4,0.62,-36,6,-53,0.7,4476,25,86,35,74,998,260.0,367,452,60,120.0,237,1,291,325,54,0,0,257,-1,-1494,232,,,,,,,,,,,,
44343,1560695120485,2,2.16,2.3,3.16,2.13,5.08,0.51,0.31,0.6,-33,7,-51,0.59,4522,25,86,35,74,994,259.0,367,453,60,119.0,237,1,291,326,54,0,0,256,-41,13602,235,45.701389,4.910758,21.49,194.9,0,0.0,0,0.0,0.2333,1,0.17,0.739
44363,1560695120503,4,2.23,2.28,3.21,2.17,5.04,0.47,0.25,0.56,-31,7,-47,0.54,4605,25,86,35,74,990,255.0,368,463,60,120.0,237,1,289,330,54,0,0,254,-1281,250,239,,,,,,,,,,,,
44383,1560695120523,3,2.32,2.25,3.25,2.18,5.04,0.4,0.18,0.57,-28,8,-43,0.44,4652,25,86,35,74,987,250.0,380,455,60,119.0,237,1,288,331,54,0,0,252,10818,250,241,,,,,,,,,,,,
44403,1560695120543,-1,2.4,2.22,3.28,2.2,5.07,0.41,0.1,0.64,-26,7,-39,0.42,4721,25,86,35,74,975,248.0,380,455,60,122.0,237,1,287,333,58,0,0,249,250,16896,246,,,,,,,,,,,,
44423,1560695120563,-2,2.47,2.19,3.33,2.24,5.06,0.47,0.02,0.69,-22,5,-36,0.47,4714,25,86,35,74,963,251.0,383,465,60,122.0,237,1,287,333,58,0,0,247,250,-1,251,,,,,,,,,,,,
44443,1560695120583,-2,2.53,2.16,3.38,2.28,5.06,0.58,-0.05,0.76,-18,2,-32,0.58,4733,25,86,35,74,953,255.0,385,462,60,122.0,237,1,287,334,58,0,0,246,-1445,-1281,255,45.701397,4.910758,22.44,194.9,0,0.0,0,0.0,0.235,1,0.17,0.7407
44463,1560695120602,-2,2.59,2.14,3.39,2.3,5.07,0.57,-0.14,0.8,-13,2,-25,0.59,4764,25,86,35,75,943,259.0,383,469,60,121.0,237,1,287,335,58,0,0,247,-17920,14337,259,,,,,,,,,,,,
44483,1560695120622,2,2.65,2.11,3.41,2.31,5.07,0.58,-0.21,0.76,-9,3,-20,0.61,4762,25,86,35,74,928,262.0,394,461,60,120.0,237,1,287,339,58,0,0,248,-1484,-1,262,,,,,,,,,,,,
44503,1560695120642,4,2.7,2.11,3.44,2.34,5.06,0.52,-0.3,0.7,-6,2,-16,0.6,4767,25,86,35,74,913,265.0,389,453,60,120.0,231,1,286,335,61,0,0,250,13468,-1,265,,,,,,,,,,,,
44523,1560695120662,1,2.74,2.1,3.48,2.34,5.07,0.52,-0.35,0.68,-4,3,-13,0.63,4725,25,86,35,74,907,267.0,387,457,60,122.0,231,1,287,334,61,0,0,254,13468,-1,267,,,,,,,,,,,,
44543,1560695120682,-0,2.78,2.11,3.51,2.34,5.07,0.54,-0.35,0.67,-2,1,-9,0.65,4806,25,86,35,74,902,268.0,388,460,60,123.0,231,1,286,337,61,0,0,255,250,-1,268,45.701401,4.910758,23.28,194.9,0,0.0,0,0.0,0.2367,1,0.17,0.7424
44563,1560695120702,1,2.82,2.09,3.52,2.34,5.03,0.57,-0.42,0.63,1,-2,-3,0.71,4852,25,86,35,74,893,268.0,387,465,60,122.0,231,1,285,338,61,0,0,248,13602,-1,270,,,,,,,,,,,,
44583,1560695120722,1,2.84,2.08,3.54,2.31,5.04,0.63,-0.44,0.56,5,-1,3,0.77,4922,25,86,35,75,882,271.0,399,468,60,121.0,231,1,284,345,61,0,0,249,-1483,-1,274,,,,,,,,,,,,
44603,1560695120742,-1,2.85,2.07,3.55,2.32,5.05,0.58,-0.58,0.66,8,-2,7,0.83,4947,25,86,35,74,876,276.0,402,451,60,122.0,233,1,283,341,64,0,0,253,-1483,-1,276,,,,,,,,,,,,
44623,1560695120762,1,2.84,2.07,3.55,2.34,5.06,0.61,-0.6,0.65,10,-1,10,0.85,4934,25,86,35,74,871,277.0,401,464,60,122.0,233,1,284,341,64,0,0,271,-1494,-1,277,,,,,,,,,,,,
44643,1560695120782,2,2.84,2.07,3.55,2.32,5.06,0.67,-0.51,0.56,14,-2,15,0.85,4978,25,86,35,74,869,279.0,405,470,60,120.0,233,1,283,348,64,0,0,268,13602,28160,279,45.701408,4.910758,24.14,194.9,0,0.0,0,0.0,0.2383,1,0.17,0.7441
44663,1560695120802,6,2.84,2.04,3.57,2.33,5.08,0.67,-0.62,0.59,17,-3,19,0.91,5026,25,86,35,74,869,280.0,403,458,60,119.0,233,1,283,345,64,0,0,250,-1494,2414,280,,,,,,,,,,,,
44683,1560695120822,-0,2.84,2.01,3.6,2.32,5.04,0.58,-0.65,0.57,19,-1,21,0.87,5055,25,86,35,74,872,281.0,406,468,60,122.0,233,1,285,347,64,0,0,266,8704,28160,281,,,,,,,,,,,,
44703,1560695120842,4,2.83,2.0,3.59,2.31,5.06,0.72,-0.6,0.53,22,-4,25,0.94,5097,25,86,35,73,876,284.0,417,461,60,120.0,232,1,289,349,66,0,0,269,250,-1534,286,,,,,,,,,,,,
44723,1560695120862,0,2.83,1.99,3.59,2.31,5.07,0.64,-0.7,0.53,23,-3,27,0.95,5148,25,86,35,73,882,286.0,416,454,60,122.0,232,1,292,345,66,0,0,272,8704,250,286,,,,,,,,,,,,
44743,1560695120882,2,2.83,2.0,3.58,2.31,5.08,0.71,-0.72,0.55,24,-3,29,1.01,5156,25,86,35,73,887,286.0,416,471,60,121.0,232,1,295,346,66,0,0,269,8704,-1534,286,45.701416,4.910758,24.75,194.9,0,0.0,0,0.0,0.24,1,0.17,0.7457
44763,1560695120904,-0,2.83,2.0,3.59,2.32,5.08,0.7,-0.78,0.54,27,-4,31,1.04,5191,25,86,35,72,890,287.0,423,455,60,122.0,232,1,296,341,66,0,0,279,13602,630,287,,,,,,,,,,,,
44783,1560695120924,2,2.82,2.0,3.59,2.31,5.06,0.71,-0.82,0.5,27,-3,32,1.08,5246,25,86,35,72,890,288.0,422,471,60,121.0,232,1,300,334,66,0,0,285,-1483,630,288,,,,,,,,,,,,
44803,1560695120944,0,2.81,2.01,3.58,2.33,5.06,0.72,-0.89,0.51,30,-5,36,1.14,5290,25,86,35,71,890,288.0,425,451,60,122.0,230,1,304,336,66,0,0,283,-1483,-1534,288,,,,,,,,,,,,
44823,1560695120964,3,2.8,2.0,3.57,2.33,5.04,0.72,-0.87,0.52,30,-3,38,1.13,5325,25,86,35,71,888,289.0,430,469,60,121.0,230,1,306,336,66,0,0,276,13602,1886,289,,,,,,,,,,,,
44843,1560695120984,1,2.76,2.01,3.56,2.33,5.05,0.6,-0.89,0.54,31,-3,39,1.08,5325,25,86,35,70,887,291.0,437,457,60,122.0,230,1,307,328,66,0,0,280,13468,-1529,291,45.70142,4.91076,25.01,194.9,0,0.0,0,0.0,0.2417,1,0.17,0.7474
44863,1560695120998,4,2.73,2.01,3.53,2.34,5.07,0.69,-0.84,0.53,32,-4,40,1.09,5292,28,86,35,70,886,292.0,439,463,60,120.0,230,1,304,336,66,0,0,286,-1484,250,292,,,,,,,,,,,,
44883,1560695121018,-1,2.68,2.02,3.51,2.34,5.08,0.65,-0.82,0.6,32,-3,40,1.05,5310,30,86,35,71,884,290.0,431,459,60,122.0,230,1,305,336,66,0,0,283,250,-16896,290,,,,,,,,,,,,
44903,1560695121038,3,2.63,2.04,3.44,2.34,5.07,0.71,-0.82,0.58,32,-5,42,1.08,5313,32,86,35,72,883,289.0,431,461,60,120.0,231,1,304,344,67,0,0,267,250,10686,289,,,,,,,,,,,,
44923,1560695121058,-1,2.55,2.07,3.35,2.31,5.06,0.7,-0.75,0.63,30,-3,43,1.02,5278,34,86,35,73,883,287.0,425,461,60,122.0,231,1,301,352,67,0,0,259,10818,250,287,,,,,,,,,,,,
44943,1560695121078,4,2.52,2.15,3.29,2.3,5.04,0.67,-0.71,0.66,30,-3,43,0.98,5199,36,86,35,75,883,287.0,422,467,60,120.0,231,1,295,364,67,0,0,268,-1281,41,287,45.701424,4.910762,24.8,194.9,0,0.0,0,0.0,0.2433,1,0.17,0.749
44963,1560695121104,-1,2.47,2.23,3.23,2.27,5.06,0.67,-0.65,0.67,27,-3,41,0.93,5132,38,86,35,77,882,287.0,423,465,60,123.0,231,1,289,364,67,0,0,269,-1,-1529,286,,,,,,,,,,,,
44983,1560695121124,1,2.43,2.28,3.17,2.26,5.05,0.71,-0.53,0.64,26,-4,40,0.88,5068,41,86,35,79,880,286.0,417,460,60,120.0,231,1,285,385,67,0,0,270,-1,-16896,286,,,,,,,,,,,,
45003,1560695121144,1,2.37,2.31,3.14,2.23,5.04,0.58,-0.47,0.67,25,-1,38,0.74,5060,43,86,35,81,877,286.0,412,461,60,121.0,265,1,285,425,76,0,0,272,-1,41,286,,,,,,,,,,,,
45023,1560695121164,0,2.32,2.33,3.12,2.21,5.07,0.72,-0.42,0.71,21,-4,35,0.84,5121,46,86,35,83,874,283.0,414,461,60,122.0,265,1,288,454,76,0,0,274,-1281,-1529,283,,,,,,,,,,,,
45043,1560695121184,5,2.28,2.33,3.12,2.19,5.06,0.54,-0.34,0.68,22,-2,32,0.64,5244,48,86,35,84,871,283.0,418,455,60,120.0,265,1,295,460,76,0,0,277,28160,-1529,283,45.701431,4.910766,25.02,194.8,0,0.0,0,0.0,0.245,1,0.17,0.7507
45063,1560695121204,-3,2.25,2.33,3.12,2.17,5.06,0.69,-0.24,0.66,17,-3,30,0.73,5337,49,86,35,85,868,281.0,425,457,60,122.0,265,1,299,465,76,0,0,281,30208,24064,281,,,,,,,,,,,,
45083,1560695121224,-0,2.2,2.33,3.12,2.15,5.08,0.58,-0.21,0.69,17,-1,27,0.62,5480,50,86,35,85,866,281.0,440,453,60,120.0,265,1,307,468,76,0,0,288,250,-1529,280,,,,,,,,,,,,
45103,1560695121244,3,2.17,2.36,3.11,2.15,5.04,0.61,-0.15,0.64,14,-2,24,0.63,5592,51,86,35,84,865,285.0,451,466,60,120.0,350,1,315,469,98,0,0,294,-16896,-16896,281,,,,,,,,,,,,
45123,1560695121264,1,2.13,2.41,3.05,2.14,5.05,0.61,-0.1,0.63,11,-1,20,0.62,5662,51,86,35,84,869,290.0,460,466,60,121.0,350,1,320,468,98,0,0,297,21760,85,282,,,,,,,,,,,,
45143,1560695121284,3,2.09,2.48,2.97,2.14,5.05,0.57,-0.05,0.69,8,-1,18,0.58,5781,52,86,35,84,887,298.0,463,461,60,122.0,350,1,326,467,98,0,0,301,95,100,284,45.701439,4.91077,26.28,194.8,0,0.0,0,0.0,0.2467,1,0.17,0.7524
45163,1560695121304,-0,2.06,2.53,2.88,2.13,5.07,0.55,0.05,0.77,6,-2,16,0.55,5868,53,86,35,83,905,303.0,477,460,60,122.0,350,1,334,469,98,0,0,309,28160,110,285,,,,,,,,,,,,
45183,1560695121324,1,2.03,2.59,2.82,2.14,5.04,0.59,0.2,0.85,3,-3,13,0.63,5933,54,86,35,83,923,309.0,482,454,60,121.0,350,1,338,470,98,0,0,314,32000,135,289,,,,,,,,,,,,
45203,1560695121344,-1,2.02,2.61,2.79,2.14,5.05,0.65,0.29,0.93,0,-4,10,0.71,5990,54,86,34,84,941,314.0,488,459,60,122.0,363,1,339,476,105,0,0,319,135,165,291,,,,,,,,,,,,
45223,1560695121364,-0,2.0,2.62,2.79,2.14,5.08,0.73,0.34,0.98,-3,-6,7,0.81,6046,55,86,34,84,974,317.0,490,461,60,122.0,363,1,341,478,105,0,0,325,-27136,160,293,,,,,,,,,,,,
45243,1560695121384,1,1.99,2.63,2.8,2.15,5.08,0.77,0.36,1.03,-5,-7,4,0.85,6071,56,86,34,84,1005,324.0,497,455,60,122.0,363,1,342,482,105,0,0,329,160,-24576,296,45.701443,4.910775,27.25,194.8,0,0.0,0,0.0,0.2483,1,0.17,0.754
45263,1560695121404,2,1.97,2.64,2.81,2.14,5.05,0.83,0.41,1.12,-8,-9,1,0.93,6113,57,86,34,85,1020,328.0,502,455,60,122.0,363,1,340,483,105,0,0,333,175,-24576,301,,,,,,,,,,,,
45283,1560695121424,3,1.96,2.64,2.82,2.15,5.06,0.79,0.47,1.16,-10,-10,-2,0.92,6151,58,86,34,86,1034,335.0,504,462,60,121.0,363,1,339,484,105,0,0,337,3346,3327,303,,,,,,,,,,,,
45303,1560695121444,3,1.96,2.65,2.81,2.14,5.04,0.8,0.57,1.1,-12,-12,-5,0.98,6237,59,86,34,86,1034,340.0,512,463,60,121.0,369,1,342,489,112,0,0,341,3327,-31222,305,,,,,,,,,,,,
45323,1560695121464,22,1.96,2.64,2.81,2.12,5.05,0.69,0.65,1.02,-13,-11,-8,0.95,6349,61,86,34,87,1034,342.0,514,461,60,120.0,369,1,346,496,112,0,0,343,-31206,-31222,308,,,,,,,,,,,,
45343,1560695121484,-1,1.96,2.64,2.82,2.1,5.05,0.67,0.58,0.94,-14,-7,-10,0.89,6469,61,86,34,87,1021,347.0,521,462,60,119.0,369,1,350,500,112,0,0,347,8841,6668,310,45.70145,4.91078,28.21,194.8,0,0.0,0,0.0,0.25,1,0.17,0.7557
45363,1560695121504,5,1.95,2.64,2.81,2.09,5.04,0.73,0.61,1.0,-16,-8,-13,0.95,6592,61,86,34,87,1007,350.0,525,460,60,121.0,369,1,355,504,112,0,0,351,-30454,2060,314,,,,,,,,,,,,
45383,1560695121524,-0,1.96,2.64,2.81,2.07,5.05,0.63,0.73,0.95,-17,-6,-16,0.97,6798,62,86,34,87,998,353.0,535,458,60,121.0,369,1,365,510,112,0,0,353,-6644,742,315,,,,,,,,,,,,
45403,1560695121544,4,1.96,2.63,2.82,2.05,5.04,0.74,0.67,0.9,-19,-8,-18,1.0,6965,62,86,34,87,990,356.0,548,461,60,120.0,419,1,373,510,132,0,0,360,4104,-29302,316,,,,,,,,,,,,
45423,1560695121564,1,1.96,2.64,2.82,2.05,5.07,0.7,0.69,0.99,-19,-3,-19,0.98,7054,62,86,34,86,992,361.0,558,455,60,121.0,419,1,379,513,132,0,0,366,-6458,-1268,319,,,,,,,,,,,,
45443,1560695121584,3,1.95,2.65,2.81,2.05,5.05,0.62,0.83,0.92,-21,-3,-20,1.04,7088,63,86,34,86,997,367.0,569,463,60,120.0,419,1,381,513,132,0,0,372,0,-1562,323,45.701458,4.910785,30.3,194.8,0,0.0,0,0.0,0.2517,1,0.18,0.7574
45463,1560695121605,1,1.96,2.67,2.8,2.05,5.06,0.7,0.84,0.92,-23,-5,-21,1.1,7115,63,86,34,86,1001,369.0,571,460,60,120.0,419,1,383,514,132,0,0,377,486,-3968,328,,,,,,,,,,,,
45483,1560695121625,6,1.97,2.67,2.77,2.06,5.05,0.75,0.8,1.0,-24,-5,-24,1.1,7181,63,86,34,86,1002,373.0,577,461,60,121.0,419,1,388,515,132,0,0,381,742,19125,330,,,,,,,,,,,,
45503,1560695121645,2,1.97,2.68,2.78,2.07,5.06,0.67,0.75,1.1,-24,-4,-26,1.0,7273,63,86,34,85,999,378.0,581,458,60,121.0,425,1,394,517,141,0,0,388,2278,770,335,,,,,,,,,,,,
45523,1560695121665,4,1.98,2.7,2.78,2.06,5.06,0.5,0.79,1.01,-24,-2,-27,0.93,7244,63,86,34,85,995,384.0,580,458,60,121.0,425,1,392,517,141,0,0,393,-19019,6384,340,,,,,,,,,,,,
45543,1560695121685,2,2.0,2.7,2.79,2.06,5.05,0.46,0.9,0.95,-25,-2,-29,1.01,7324,64,86,34,86,967,387.0,576,463,60,120.0,425,1,397,519,141,0,0,398,240,-26615,343,45.701462,4.910789,31.68,194.8,0,0.0,0,0.0,0.2533,1,0.18,0.759
45563,1560695121703,3,2.0,2.7,2.78,2.06,5.07,0.51,0.94,0.85,-27,-2,-31,1.07,7434,64,86,34,85,931,392.0,589,461,60,120.0,425,1,403,514,141,0,0,398,1,-6524,349,,,,,,,,,,,,
45583,1560695121723,1,2.03,2.7,2.77,2.06,5.04,0.51,0.91,0.81,-27,-2,-32,1.04,7581,64,86,34,84,898,393.0,597,459,60,121.0,425,1,412,508,141,0,0,400,-6656,-19126,354,,,,,,,,,,,,
45603,1560695121743,2,2.03,2.69,2.79,2.06,5.08,0.49,0.98,0.77,-28,-1,-32,1.1,7615,64,86,34,83,866,398.0,595,458,60,121.0,409,1,414,501,145,0,0,410,28696,13040,358,,,,,,,,,,,,
45623,1560695121763,4,2.04,2.7,2.77,2.06,5.06,0.46,1.01,0.87,-28,-2,-32,1.1,7716,65,86,34,83,831,401.0,604,460,60,121.0,409,1,420,502,145,0,0,409,-8151,13552,364,,,,,,,,,,,,
