"Interval"|"ms"|0|0|1,"Utc"|"ms"|0|0|1,"FB_p"|"bar"|0|300|50,"Volant"|"F"|0.0|300.0|50,"xFR"|"mm"|0.0|5.0|50,"xRR"|"mm"|0.0|5.0|50,"xFL"|"mm"|0.0|5.0|50,"xRL"|"mm"|0.0|5.0|50,"AccelX"|"G"|-3.0|3.0|50,"AccelY"|"G"|-3.0|3.0|50,"AccelZ"|"G"|-3.0|3.0|50,"Yaw"|"Deg/Sec"|-120|120|50,"Pitch"|"Deg/Sec"|-120|120|50,"Roll"|"Deg/Sec"|-120|120|50,"Gsum"|"G"|0.0|3.0|50,"RPM"|""|0|14000|50,"TPS"|"%"|0|100|50,"WaterTemp"|"?C"|0|300|50,"AirTemp"|"?C"|-1000|1000|50,"MAP"|"KPa"|0|255|50,"Lambda"|""|0|1024|50,"WheelSpeed"|"MPH"|0.0|150.0|50,"OilPress"|"PSI"|0|150|50,"FuelPress"|"PSI"|0|150|50,"OilTemp"|"F"|0|300|50,"Battery"|"Volts"|0.0|20.0|50,"FuelCon"|"L/h"|-1000|1000|50,"Gear"|""|0|10|50,"Advance"|"Deg"|-360|360|50,"Injection"|"ms"|-1000|1000|50,"FuelCon"|"L/100km"|-1000|1000|50,"LC_But_Pres"|""|-1000|1000|50,"LC_Active"|""|-1000|1000|50,"RD_Speed"|""|-1000|1000|50,"RUD_Speed"|""|-1000|1000|50,"LD_Speed"|""|-1000|1000|50,"LUD_Speed"|""|-1000|1000|50,"Latitude"|"Degrees"|-180.0|180.0|10,"Longitude"|"Degrees"|-180.0|180.0|10,"Speed"|"kph"|0.0|150.0|10,"Altitude"|"m"|0.0|4000.0|10,"LapCount"|""|0|0|10,"LapTime"|"Min"|0.0|0.0|10,"Sector"|""|0|0|10,"SectorTime"|"Min"|0.0|0.0|10,"ElapsedTime"|"Min"|0.0|0.0|10,"CurrentLap"|""|0|0|10,"Distance"|"km"|0.0|0.0|10,"SessionTime"|"Min"|0.0|0.0|10
51863,1560695546019,22,2.25,1.92,3.45,1.72,5.08,1.41,-0.13,0.23,-0,-6,-2,1.42,9957,5,83,34,21,725,556.0,650,461,60,120.0,120,1,270,176,68,0,0,538,-22359,-9072,555,,,,,,,,,,,,
51883,1560695546039,16,2.26,1.9,3.48,1.72,5.05,1.32,-0.13,0.15,-0,-3,-3,1.33,9878,5,83,34,21,730,553.0,642,460,60,120.0,120,1,270,175,68,0,0,519,-32248,10408,552,,,,,,,,,,,,
51903,1560695546059,22,2.25,1.89,3.48,1.7,5.07,1.39,-0.06,0.09,-1,-3,-3,1.39,9699,5,83,34,21,734,549.0,640,460,60,120.0,120,1,270,169,68,0,0,512,-22519,-28648,549,,,,,,,,,,,,
51923,1560695546079,22,2.24,1.9,3.48,1.71,5.04,1.39,-0.1,0.06,-1,-2,-2,1.4,9556,5,83,34,21,739,544.0,643,460,60,120.0,120,1,270,165,68,0,0,522,-506,6274,543,,,,,,,,,,,,
51943,1560695546103,18,2.24,1.9,3.48,1.71,5.04,1.23,-0.03,-0.0,-1,-0,-2,1.23,9441,5,83,34,21,748,539.0,639,463,60,120.0,109,1,270,164,59,0,0,507,1780,-3856,533,45.702084,4.91093,55.03,196.3,0,0.0,0,0.0,0.4683,1,0.34,0.8657
51963,1560695546123,18,2.25,1.9,3.45,1.71,5.04,1.31,0.03,-0.04,-1,0,-2,1.31,9360,5,83,34,20,755,534.0,642,456,60,120.0,109,1,270,157,59,0,0,509,-32248,10408,525,,,,,,,,,,,,
51983,1560695546143,21,2.25,1.9,3.46,1.71,5.03,1.38,-0.08,0.07,-1,-3,-2,1.38,9272,5,83,34,20,761,526.0,645,457,60,120.0,109,1,270,157,59,0,0,501,-32248,998,519,,,,,,,,,,,,
52003,1560695546163,20,2.25,1.9,3.47,1.71,5.04,1.44,-0.23,0.11,-2,-2,-3,1.46,9191,5,83,34,20,770,519.0,643,461,60,120.0,109,1,270,157,59,0,0,481,-8187,248,517,,,,,,,,,,,,
52023,1560695546183,18,2.25,1.88,3.46,1.7,5.06,1.5,-0.4,0.27,-3,-7,-5,1.56,9084,5,83,34,20,781,514.0,638,453,60,120.0,109,1,270,157,59,0,0,484,-3482,32033,511,,,,,,,,,,,,
52043,1560695546205,18,2.25,1.89,3.46,1.67,5.06,1.55,-0.53,0.33,-4,-7,-6,1.64,8958,5,83,34,19,800,510.0,635,460,60,121.0,103,1,270,157,53,0,0,487,10994,32033,504,45.702076,4.910944,52.15,196.3,0,0.0,0,0.0,0.47,1,0.34,0.8674
52063,1560695546225,20,2.24,1.89,3.45,1.67,5.06,1.6,-0.62,0.34,-3,-7,-8,1.72,8836,5,83,34,19,810,504.0,628,458,60,121.0,103,1,270,151,53,0,0,478,-32248,8488,500,,,,,,,,,,,,
52083,1560695546245,16,2.26,1.88,3.46,1.67,5.08,1.64,-0.56,0.34,-4,-8,-6,1.74,8733,5,83,34,19,817,497.0,630,458,60,120.0,103,1,270,151,53,0,0,476,-9216,6193,494,,,,,,,,,,,,
52103,1560695546265,20,2.26,1.89,3.47,1.68,5.04,1.56,-0.49,0.23,-4,-6,-5,1.64,8620,5,83,34,19,835,491.0,628,461,60,121.0,103,1,270,151,53,0,0,460,248,12552,486,,,,,,,,,,,,
52123,1560695546285,20,2.25,1.89,3.49,1.69,5.06,1.48,-0.54,0.25,-3,-5,-5,1.57,8503,5,83,35,19,855,485.0,629,461,60,121.0,103,1,270,156,53,0,0,435,-10483,-26615,485,,,,,,,,,,,,
52143,1560695546305,18,2.26,1.89,3.47,1.68,5.04,1.43,-0.41,0.25,-3,-3,-5,1.49,8344,5,83,35,20,869,479.0,628,457,60,120.0,102,1,270,153,49,0,0,442,10305,2211,478,45.702068,4.910957,49.37,196.2,0,0.0,0,0.0,0.4717,1,0.35,0.869
52163,1560695546325,19,2.25,1.89,3.45,1.68,5.05,1.41,-0.37,0.21,-3,-3,-6,1.46,8241,5,83,35,21,883,472.0,626,459,60,120.0,102,1,270,150,49,0,0,455,-1923,15649,470,,,,,,,,,,,,
52183,1560695546345,20,2.27,1.89,3.44,1.66,5.07,1.37,-0.26,0.16,-2,-4,-7,1.4,8148,5,83,35,21,902,469.0,619,457,60,120.0,102,1,270,152,49,0,0,449,10432,-3314,463,,,,,,,,,,,,
52203,1560695546365,18,2.26,1.87,3.44,1.66,5.05,1.36,-0.15,0.05,-2,-1,-4,1.37,8061,5,83,35,22,936,463.0,613,458,60,121.0,102,1,270,152,49,0,0,437,6193,-3414,460,,,,,,,,,,,,
52223,1560695546385,20,2.27,1.86,3.46,1.67,5.07,1.39,-0.11,0.11,-2,-2,-4,1.39,7961,5,83,35,22,955,455.0,610,461,60,120.0,102,1,270,150,49,0,0,411,14488,31796,455,,,,,,,,,,,,
52243,1560695546405,19,2.27,1.86,3.47,1.67,5.04,1.33,-0.03,0.07,-2,-2,-4,1.33,7874,5,83,35,22,972,449.0,606,458,60,121.0,99,1,268,150,45,0,0,405,10305,1779,449,45.702057,4.91097,46.73,196.2,0,0.0,0,0.0,0.4733,1,0.35,0.8707
52263,1560695546425,21,2.29,1.85,3.47,1.68,5.04,1.11,-0.01,-0.09,-1,1,-3,1.11,7719,5,83,35,22,989,445.0,597,460,60,121.0,99,1,267,150,45,0,0,410,23400,-3414,444,,,,,,,,,,,,
52283,1560695546445,18,2.29,1.86,3.46,1.68,5.04,0.99,-0.05,-0.16,0,1,-1,0.99,7625,5,83,35,22,1022,440.0,585,461,60,121.0,99,1,266,150,45,0,0,414,21580,2524,440,,,,,,,,,,,,
52303,1560695546465,19,2.29,1.86,3.46,1.68,5.05,0.95,-0.09,-0.26,1,-0,0,0.95,7509,5,83,35,22,1035,433.0,575,458,60,121.0,99,1,265,150,45,0,0,412,243,10541,433,,,,,,,,,,,,
52323,1560695546485,18,2.3,1.85,3.47,1.68,5.04,0.93,-0.13,-0.33,2,1,1,0.94,7452,5,83,35,22,1046,427.0,577,460,60,121.0,99,1,264,150,45,0,0,404,-3856,6512,425,,,,,,,,,,,,
52343,1560695546505,19,2.3,1.85,3.48,1.69,5.05,0.76,-0.17,-0.37,3,4,1,0.78,7367,5,83,35,22,1066,422.0,563,457,60,121.0,98,1,263,150,42,0,0,388,-3414,-1818,422,45.702053,4.910981,43.85,196.2,0,0.0,0,0.0,0.475,1,0.35,0.8724
52363,1560695546525,18,2.29,1.83,3.49,1.68,5.06,0.78,-0.04,-0.49,4,5,2,0.78,7307,5,83,35,21,1080,417.0,559,464,60,120.0,98,1,263,148,42,0,0,371,2524,-1818,417,,,,,,,,,,,,
52383,1560695546545,17,2.29,1.84,3.49,1.68,5.04,0.85,0.01,-0.48,3,2,2,0.85,7172,5,83,35,21,1096,414.0,555,456,60,120.0,98,1,261,148,42,0,0,378,-26615,-19019,414,,,,,,,,,,,,
52403,1560695546565,19,2.3,1.84,3.47,1.7,5.04,0.97,-0.11,-0.33,2,-1,4,0.97,7080,5,83,35,21,1106,407.0,550,458,60,120.0,98,1,260,148,42,0,0,390,11545,-6524,407,,,,,,,,,,,,
52423,1560695546585,18,2.29,1.84,3.46,1.69,5.04,0.9,-0.11,-0.35,3,2,5,0.91,7025,5,83,36,21,1113,401.0,544,459,60,121.0,98,1,260,148,42,0,0,380,17144,-19126,401,,,,,,,,,,,,
52443,1560695546604,13,2.3,1.82,3.46,1.68,5.05,0.89,-0.07,-0.3,4,2,3,0.9,6949,5,83,36,21,1122,397.0,540,462,60,120.0,95,1,260,147,38,0,0,371,-6524,486,397,45.702045,4.910992,41.12,196.2,0,0.0,0,0.0,0.4767,1,0.35,0.874
52463,1560695546624,21,2.29,1.82,3.47,1.69,5.04,0.97,-0.16,-0.1,3,1,0,0.98,6893,5,83,36,22,1131,389.0,538,455,60,121.0,95,1,260,149,38,0,0,363,-3866,0,389,,,,,,,,,,,,
52483,1560695546644,16,2.29,1.82,3.49,1.7,5.04,0.9,-0.1,-0.19,4,1,0,0.91,6823,5,83,36,22,1134,385.0,530,461,60,121.0,95,1,260,149,38,0,0,359,2278,-14707,384,,,,,,,,,,,,
52503,1560695546664,19,2.28,1.82,3.49,1.7,5.07,1.02,-0.21,-0.12,3,-1,0,1.04,6737,5,83,36,22,1133,380.0,530,458,60,120.0,95,1,261,149,38,0,0,355,-6656,0,380,,,,,,,,,,,,
52523,1560695546684,14,2.28,1.82,3.48,1.69,5.04,1.04,-0.12,-0.23,3,3,2,1.04,6609,5,83,36,22,1125,373.0,521,460,60,121.0,95,1,261,148,38,0,0,355,-6656,-29302,373,,,,,,,,,,,,
52543,1560695546706,17,2.26,1.81,3.48,1.68,5.05,1.13,-0.21,-0.14,3,1,5,1.15,6542,5,83,36,23,1116,370.0,512,461,60,121.0,97,1,261,148,36,0,0,349,2790,-6640,370,45.702038,4.911002,38.37,196.2,0,0.0,0,0.0,0.4783,1,0.35,0.8757
52563,1560695546726,19,2.26,1.81,3.48,1.67,5.07,1.13,-0.17,-0.05,2,-1,5,1.14,6492,5,83,36,23,1109,363.0,505,457,60,120.0,97,1,263,151,36,0,0,343,-14707,8841,363,,,,,,,,,,,,
52583,1560695546746,20,2.25,1.81,3.48,1.67,5.04,1.07,-0.07,-0.08,2,-1,3,1.08,6401,5,83,36,23,1095,357.0,504,458,60,122.0,97,1,263,151,36,0,0,341,-6640,3327,356,,,,,,,,,,,,
52603,1560695546766,16,2.26,1.82,3.48,1.67,5.03,1.09,-0.02,-0.15,3,2,2,1.09,6308,5,83,36,23,1085,351.0,499,458,60,121.0,97,1,263,150,36,0,0,339,28553,-31222,351,,,,,,,,,,,,
52623,1560695546786,16,2.26,1.81,3.48,1.66,5.07,1.12,-0.03,-0.16,2,3,-0,1.12,6218,5,83,36,24,1069,348.0,493,461,60,121.0,97,1,266,154,36,0,0,335,-30438,13,344,,,,,,,,,,,,
52643,1560695546806,15,2.27,1.82,3.49,1.67,5.08,1.19,-0.13,-0.16,2,3,-2,1.2,6139,5,83,36,24,1066,342.0,488,456,60,120.0,105,1,266,154,36,0,0,327,-31206,-6528,339,45.702034,4.911011,35.61,196.2,0,0.0,0,0.0,0.48,1,0.35,0.8774
52663,1560695546826,16,2.26,1.82,3.5,1.67,5.03,1.28,-0.28,-0.17,0,2,-2,1.31,6064,5,83,36,25,1056,335.0,479,459,60,120.0,105,1,270,158,36,0,0,320,3346,170,334,,,,,,,,,,,,
52683,1560695546846,15,2.26,1.84,3.51,1.66,5.04,1.35,-0.36,-0.14,-2,1,-1,1.4,5980,5,83,36,25,1047,329.0,473,461,60,122.0,105,1,269,158,36,0,0,313,-20736,-25856,327,,,,,,,,,,,,
52703,1560695546866,14,2.26,1.83,3.49,1.65,5.04,1.42,-0.41,-0.09,-3,1,-1,1.48,5879,5,83,36,25,1035,326.0,472,458,60,121.0,105,1,268,158,36,0,0,313,-23296,145,326,,,,,,,,,,,,
52723,1560695546886,20,2.25,1.84,3.48,1.64,5.07,1.4,-0.41,-0.09,-5,1,-1,1.46,5787,5,83,36,26,1027,321.0,465,457,60,122.0,105,1,269,159,36,0,0,310,-25856,-32256,318,,,,,,,,,,,,
52743,1560695546906,18,2.23,1.84,3.48,1.63,5.05,1.19,-0.38,-0.11,-5,6,-2,1.25,5695,5,83,36,26,1021,316.0,457,458,60,121.0,107,1,268,158,34,0,0,303,140,110,313,45.702026,4.91102,32.88,196.2,0,0.0,0,0.0,0.4817,1,0.35,0.879
52763,1560695546926,15,2.21,1.85,3.48,1.63,5.04,1.12,-0.22,-0.12,-2,4,-2,1.15,5605,5,83,36,27,1010,312.0,452,461,60,120.0,107,1,270,159,34,0,0,299,130,90,306,,,,,,,,,,,,
52783,1560695546946,14,2.2,1.86,3.46,1.62,5.06,1.21,-0.19,-0.08,-3,-1,-3,1.23,5524,5,83,36,28,1003,309.0,449,463,60,121.0,107,1,271,160,34,0,0,295,30720,80,301,,,,,,,,,,,,
52803,1560695546966,14,2.18,1.86,3.44,1.62,5.05,1.06,-0.22,-0.05,-5,5,-3,1.08,5426,5,83,36,29,1000,303.0,441,457,60,122.0,107,1,272,160,34,0,0,293,28160,0,298,,,,,,,,,,,,
52823,1560695546986,11,2.14,1.9,3.43,1.63,5.04,1.07,-0.13,-0.03,-3,1,-2,1.08,5334,5,83,36,30,999,300.0,434,461,60,119.0,107,1,272,160,34,0,0,291,100,10686,291,,,,,,,,,,,,
52843,1560695547000,13,2.1,1.95,3.39,1.63,5.05,1.11,-0.08,-0.02,-6,3,-4,1.11,5296,5,83,36,31,995,297.0,428,463,60,122.0,110,1,273,159,32,0,0,288,90,1886,285,45.702019,4.911028,30.55,196.1,0,0.0,0,0.0,0.4833,1,0.35,0.8807
52863,1560695547020,10,2.06,1.97,3.34,1.6,5.08,1.14,0.06,-0.01,-5,1,-5,1.14,5240,5,83,36,31,992,295.0,425,456,60,120.0,110,1,272,159,32,0,0,289,23040,-1527,280,,,,,,,,,,,,
52883,1560695547040,10,2.03,2.0,3.31,1.57,5.07,1.05,0.03,-0.05,-9,4,-5,1.05,5182,5,83,36,32,990,295.0,415,460,60,122.0,110,1,273,159,32,0,0,286,23040,-1,276,,,,,,,,,,,,
52903,1560695547060,10,1.99,2.06,3.26,1.58,5.04,1.15,0.2,-0.05,-8,2,-6,1.16,5145,5,83,36,33,989,293.0,413,462,60,120.0,110,1,276,165,32,0,0,286,21760,-1,271,,,,,,,,,,,,
52923,1560695547080,7,1.94,2.1,3.22,1.57,5.04,0.97,0.19,-0.07,-11,4,-7,0.99,5092,5,83,36,34,991,291.0,407,453,60,122.0,110,1,279,170,32,0,0,284,20480,-1,265,,,,,,,,,,,,
52943,1560695547106,6,1.9,2.16,3.19,1.57,5.04,1.07,0.26,-0.01,-13,1,-9,1.11,5017,5,83,36,35,992,290.0,400,471,60,121.0,125,1,282,177,33,0,0,286,0,-1281,259,45.702015,4.911036,28.18,196.1,0,0.0,0,0.0,0.485,1,0.35,0.8824
52963,1560695547126,8,1.87,2.2,3.17,1.56,5.06,1.12,0.4,-0.0,-13,0,-11,1.19,4925,5,83,36,36,996,290.0,397,455,60,119.0,125,1,282,181,33,0,0,281,0,10812,255,,,,,,,,,,,,
52983,1560695547146,5,1.84,2.22,3.17,1.55,5.04,0.95,0.4,0.01,-15,2,-14,1.03,4872,6,83,36,37,998,288.0,393,456,60,122.0,125,1,283,185,33,0,0,281,0,-17920,250,,,,,,,,,,,,
53003,1560695547166,6,1.81,2.25,3.17,1.56,5.04,0.9,0.37,0.06,-19,3,-17,0.98,4800,6,83,36,38,970,288.0,384,462,60,122.0,125,1,285,189,33,0,0,277,10686,-1483,244,,,,,,,,,,,,
53023,1560695547186,5,1.77,2.26,3.17,1.56,5.04,1.01,0.4,0.17,-21,0,-21,1.09,4751,7,83,36,39,940,285.0,380,462,60,121.0,125,1,287,193,33,0,0,277,-16896,13602,241,,,,,,,,,,,,
53043,1560695547206,3,1.75,2.26,3.16,1.55,5.05,1.11,0.55,0.25,-23,-4,-25,1.24,4699,7,83,36,40,917,283.0,373,460,60,120.0,143,1,286,193,34,0,0,275,-1529,-1496,235,45.702011,4.911043,26.56,196.1,0,0.0,0,0.0,0.4867,1,0.35,0.884
53063,1560695547226,4,1.73,2.26,3.16,1.54,5.06,1.21,0.64,0.24,-24,-5,-27,1.36,4644,8,83,37,41,884,282.0,370,456,60,120.0,143,1,286,194,34,0,0,274,1886,250,234,,,,,,,,,,,,
53083,1560695547246,3,1.72,2.25,3.14,1.55,5.08,1.24,0.64,0.23,-26,-7,-30,1.4,4582,8,83,37,41,840,280.0,365,452,60,119.0,143,1,284,192,34,0,0,272,250,1088,231,,,,,,,,,,,,
53103,1560695547266,3,1.71,2.26,3.12,1.56,5.04,1.26,0.65,0.24,-27,-8,-32,1.42,4497,9,83,37,42,804,281.0,355,458,60,119.0,143,1,282,192,34,0,0,271,24064,1088,229,,,,,,,,,,,,
53123,1560695547286,-0,1.73,2.26,3.09,1.56,5.07,1.24,0.73,0.19,-28,-8,-33,1.43,4452,9,83,37,43,793,280.0,354,451,60,120.0,143,1,284,194,34,0,0,271,630,250,226,,,,,,,,,,,,
53143,1560695547306,-1,1.74,2.26,3.09,1.55,5.07,1.25,0.75,0.2,-28,-9,-35,1.46,4410,10,83,37,44,789,277.0,351,455,60,121.0,141,1,286,196,32,0,0,265,30208,966,226,45.702007,4.91105,24.79,196.1,0,0.0,0,0.0,0.4883,1,0.36,0.8857
53163,1560695547326,1,1.76,2.24,3.1,1.56,5.07,1.33,0.73,0.31,-29,-12,-38,1.52,4406,10,83,37,44,787,275.0,351,457,60,121.0,141,1,285,196,32,0,0,267,-1527,13964,224,,,,,,,,,,,,
53183,1560695547346,-1,1.8,2.24,3.1,1.58,5.07,1.35,0.74,0.36,-30,-13,-40,1.54,4381,11,83,37,45,788,274.0,350,456,60,121.0,141,1,289,198,32,0,0,261,2414,13964,223,,,,,,,,,,,,
53203,1560695547366,-2,1.85,2.23,3.1,1.59,5.06,1.37,0.68,0.43,-30,-14,-42,1.52,4372,11,83,37,45,790,270.0,346,458,60,122.0,141,1,289,198,32,0,0,263,-1,-29696,221,,,,,,,,,,,,
53223,1560695547386,-0,1.88,2.23,3.1,1.64,5.05,1.36,0.62,0.49,-30,-12,-42,1.49,4347,11,83,37,46,795,268.0,345,462,60,122.0,141,1,291,200,32,0,0,260,-1,250,221,,,,,,,,,,,,
53243,1560695547406,-0,1.93,2.22,3.1,1.68,5.04,1.26,0.56,0.56,-30,-9,-44,1.38,4433,12,83,37,47,807,264.0,342,463,60,122.0,150,1,297,205,33,0,0,257,-1,16384,220,45.702004,4.911058,23.44,196.1,0,0.0,0,0.0,0.49,1,0.36,0.8874
53263,1560695547426,1,2.0,2.21,3.11,1.74,5.04,1.15,0.49,0.5,-30,-6,-44,1.25,4400,13,83,37,48,819,261.0,342,461,60,122.0,150,1,296,205,33,0,0,255,-1,-1533,221,,,,,,,,,,,,
53283,1560695547446,5,2.06,2.19,3.12,1.82,5.07,0.98,0.42,0.48,-28,-3,-44,1.07,4377,15,83,37,49,835,258.0,340,462,60,122.0,150,1,296,211,33,0,0,253,-10440,-1532,221,,,,,,,,,,,,
53303,1560695547466,5,2.12,2.16,3.15,1.87,5.08,0.93,0.33,0.46,-27,0,-42,0.99,4441,17,83,37,51,845,251.0,340,457,60,122.0,150,1,297,216,33,0,0,249,-214,250,223,,,,,,,,,,,,
53323,1560695547486,4,2.17,2.14,3.23,1.94,5.08,0.84,0.29,0.47,-25,2,-40,0.89,4408,19,83,37,52,855,248.0,340,456,60,122.0,150,1,297,223,33,0,0,245,250,1596,225,,,,,,,,,,,,
53343,1560695547504,4,2.21,2.12,3.24,1.98,5.06,0.82,0.23,0.44,-23,4,-38,0.85,4457,21,83,37,54,863,244.0,340,453,60,122.0,168,1,298,230,38,0,0,241,250,250,227,45.702004,4.911066,22.92,196.1,0,0.0,0,0.0,0.4917,1,0.36,0.889
53363,1560695547524,4,2.27,2.11,3.24,2.0,5.04,0.72,0.15,0.43,-21,5,-35,0.73,4491,23,83,37,57,866,238.0,343,456,60,120.0,168,1,296,244,38,0,0,237,13468,250,229,,,,,,,,,,,,
53383,1560695547544,3,2.31,2.1,3.29,2.0,5.06,0.71,0.08,0.46,-20,6,-33,0.72,4546,24,83,37,59,864,237.0,345,456,60,121.0,168,1,295,253,38,0,0,237,250,10824,230,,,,,,,,,,,,
53403,1560695547564,1,2.33,2.09,3.33,2.0,5.08,0.72,0.04,0.48,-18,7,-30,0.72,4610,26,83,37,61,862,235.0,346,455,60,122.0,168,1,294,264,38,0,0,235,-1483,-1494,231,,,,,,,,,,,,
53423,1560695547584,0,2.35,2.08,3.35,2.0,5.07,0.77,-0.03,0.52,-16,6,-28,0.77,4685,27,83,37,64,861,233.0,350,458,60,122.0,168,1,292,282,38,0,0,232,8704,-1494,232,,,,,,,,,,,,
53443,1560695547603,-0,2.38,2.08,3.35,2.01,5.08,0.83,-0.03,0.53,-14,5,-24,0.83,4709,28,83,37,67,861,234.0,352,465,60,122.0,219,1,290,295,51,0,0,230,10824,8704,236,45.702,4.911074,22.68,196.0,0,0.0,0,0.0,0.4933,1,0.36,0.8907
53463,1560695547623,0,2.39,2.08,3.34,2.0,5.06,0.91,0.01,0.52,-12,2,-19,0.91,4825,29,83,37,69,863,235.0,361,459,60,121.0,219,1,287,315,51,0,0,227,250,8704,235,,,,,,,,,,,,
53483,1560695547643,5,2.41,2.09,3.34,2.01,5.05,0.76,-0.07,0.56,-9,1,-16,0.76,4893,30,83,37,71,865,235.0,361,462,60,120.0,219,1,285,325,51,0,0,228,18432,-1483,235,,,,,,,,,,,,
53503,1560695547663,-0,2.43,2.09,3.35,2.0,5.06,0.68,-0.16,0.61,-8,2,-15,0.7,4990,30,83,37,72,868,236.0,369,453,60,122.0,219,1,284,333,51,0,0,227,-1496,-1483,236,,,,,,,,,,,,
53523,1560695547683,-1,2.45,2.09,3.32,2.07,5.06,0.77,-0.09,0.62,-6,0,-13,0.78,4969,30,83,37,74,870,238.0,375,464,60,121.0,219,1,284,337,51,0,0,232,-1496,-17920,238,,,,,,,,,,,,
53543,1560695547705,1,2.49,2.09,3.32,2.13,5.06,0.65,-0.1,0.58,-3,2,-9,0.66,4838,31,83,37,75,871,243.0,371,466,60,120.0,263,1,286,342,63,0,0,240,18432,15360,243,45.701996,4.911081,22.44,196.0,0,0.0,0,0.0,0.495,1,0.36,0.8924
53563,1560695547725,1,2.53,2.11,3.3,2.16,5.08,0.64,-0.14,0.57,-2,4,-6,0.65,4558,31,83,37,76,872,245.0,365,456,60,119.0,263,1,289,339,63,0,0,245,250,16896,247,,,,,,,,,,,,
53583,1560695547745,-1,2.56,2.12,3.29,2.22,5.04,0.66,-0.18,0.61,-0,2,-3,0.69,4445,31,83,37,76,887,250.0,358,454,60,119.0,263,1,291,331,63,0,0,244,13602,-1,252,,,,,,,,,,,,
53603,1560695547765,0,2.6,2.12,3.28,2.24,5.04,0.67,-0.22,0.6,2,0,-1,0.7,4346,31,83,37,77,896,254.0,346,462,60,120.0,263,1,293,339,63,0,0,241,13602,-1,254,,,,,,,,,,,,
53623,1560695547785,-1,2.63,2.1,3.32,2.22,5.08,0.66,-0.29,0.56,5,-2,2,0.72,4293,31,83,37,78,907,255.0,341,462,60,121.0,263,1,294,337,63,0,0,236,-1494,-1,255,,,,,,,,,,,,
53643,1560695547803,-1,2.65,2.05,3.4,2.23,5.04,0.7,-0.3,0.57,8,-3,5,0.76,4452,31,83,37,78,917,259.0,340,470,60,121.0,217,1,291,357,56,0,0,229,10824,506,259,45.701996,4.911089,23.17,196.0,0,0.0,0,0.0,0.4967,1,0.36,0.894
53663,1560695547823,-0,2.66,2.01,3.48,2.24,5.04,0.78,-0.3,0.64,11,-6,8,0.84,4497,31,83,37,79,957,262.0,340,470,60,122.0,217,1,290,371,56,0,0,227,-1496,506,264,,,,,,,,,,,,
53683,1560695547843,-1,2.69,1.98,3.5,2.25,5.08,0.85,-0.31,0.62,12,-7,11,0.91,4580,31,83,37,78,981,265.0,342,467,60,122.0,217,1,289,363,56,0,0,225,250,-1,266,,,,,,,,,,,,
53703,1560695547863,0,2.7,1.99,3.49,2.25,5.04,0.84,-0.32,0.6,15,-8,15,0.9,4663,31,83,37,79,1005,265.0,346,469,60,122.0,217,1,287,378,56,0,0,227,10318,-1,267,,,,,,,,,,,,
53723,1560695547883,3,2.73,1.98,3.49,2.27,5.05,0.79,-0.39,0.58,17,-6,18,0.88,4772,31,83,37,79,1027,268.0,355,456,60,120.0,217,1,285,383,56,0,0,229,250,-1,267,,,,,,,,,,,,
53743,1560695547905,5,2.76,1.98,3.48,2.32,5.06,0.79,-0.48,0.63,18,-5,20,0.93,4811,31,83,37,79,1065,270.0,358,442,60,121.0,259,1,285,386,70,0,0,235,-1496,-1,270,45.701996,4.911097,23.69,196.0,0,0.0,0,0.0,0.4983,1,0.36,0.8957
53763,1560695547925,-2,2.81,1.98,3.48,2.33,5.05,0.82,-0.51,0.64,19,-5,22,0.96,4778,30,83,37,79,1097,271.0,356,455,60,122.0,259,1,285,384,70,0,0,242,-1496,-1,271,,,,,,,,,,,,
53783,1560695547945,0,2.84,1.98,3.51,2.33,5.07,0.85,-0.54,0.64,21,-6,23,1.01,4820,30,83,37,79,1104,272.0,358,459,60,122.0,259,1,285,373,70,0,0,261,-1496,-1,272,,,,,,,,,,,,
53803,1560695547965,3,2.87,1.98,3.54,2.32,5.08,0.79,-0.54,0.58,23,-8,27,0.95,4827,29,83,37,79,1117,273.0,357,467,60,120.0,259,1,284,387,70,0,0,272,-1496,-1,273,,,,,,,,,,,,
53823,1560695547985,5,2.88,1.96,3.59,2.31,5.04,0.73,-0.66,0.53,25,-5,30,0.98,4939,29,83,37,78,1127,274.0,364,456,60,120.0,259,1,283,392,70,0,0,265,10318,-1,274,,,,,,,,,,,,
53843,1560695547999,-2,2.9,1.94,3.62,2.31,5.05,0.78,-0.66,0.57,26,-6,32,1.02,5055,29,83,37,78,1143,275.0,370,460,60,122.0,261,1,284,371,72,0,0,266,18432,-1,275,45.701992,4.911105,23.78,196.0,0,0.0,0,0.0,0.5,1,0.36,0.8974
53863,1560695548019,3,2.91,1.95,3.61,2.3,5.06,0.78,-0.68,0.6,29,-7,35,1.03,5079,29,83,37,77,1148,279.0,370,460,60,120.0,261,1,286,373,72,0,0,263,19968,-1281,279,,,,,,,,,,,,
53883,1560695548039,-1,2.91,1.95,3.62,2.31,5.04,0.7,-0.69,0.53,31,-5,36,0.99,5169,29,83,37,76,1150,281.0,376,461,60,121.0,261,1,292,367,72,0,0,468,10318,-1281,282,,,,,,,,,,,,
53903,1560695548059,3,2.92,1.95,3.61,2.32,5.04,0.81,-0.69,0.54,32,-7,41,1.06,5253,29,83,37,76,1141,283.0,381,467,60,121.0,261,1,297,374,72,0,0,172,19968,2414,283,,,,,,,,,,,,
53923,1560695548079,-2,2.94,1.94,3.61,2.32,5.05,0.66,-0.68,0.5,33,-5,43,0.95,5244,29,83,37,75,1131,284.0,384,450,60,122.0,261,1,298,365,72,0,0,172,10318,30208,284,,,,,,,,,,,,
53943,1560695548099,3,0.32,1.95,3.62,2.32,5.04,0.77,-0.69,0.51,35,-7,46,1.03,5214,29,83,37,75,1117,286.0,388,470,60,121.0,248,1,296,363,71,0,0,172,250,630,286,45.701988,4.911112,24.2,196.0,0,0.0,0,0.0,0.5017,1,0.36,0.899
53963,1560695548119,-2,0.34,1.94,3.61,2.32,5.05,0.66,-0.74,0.54,36,-5,47,0.99,5259,29,83,38,75,1108,288.0,391,454,60,119.0,248,1,299,363,71,0,0,172,10318,250,288,,,,,,,,,,,,
53983,1560695548139,4,0.33,1.94,3.63,2.32,5.06,0.77,-0.73,0.52,38,-6,49,1.06,5316,29,83,38,74,1091,288.0,396,468,60,120.0,248,1,304,359,71,0,0,172,250,-1534,289,,,,,,,,,,,,
54003,1560695548159,-0,0.33,1.94,3.64,2.33,5.04,0.74,-0.73,0.54,39,-6,51,1.04,5328,29,83,38,73,1068,291.0,398,447,60,121.0,248,1,305,351,71,0,0,27,250,41,291,,,,,,,,,,,,
54023,1560695548179,-0,2.93,1.95,3.64,2.32,5.04,0.72,-0.8,0.56,41,-7,53,1.08,5325,29,83,38,74,1060,293.0,399,467,60,121.0,248,1,304,351,71,0,0,293,18432,250,293,,,,,,,,,,,,
54043,1560695548205,3,2.91,1.95,3.64,2.33,5.04,0.73,-0.79,0.53,41,-5,53,1.07,5405,29,83,38,73,1053,294.0,402,462,60,122.0,244,1,310,354,72,0,0,288,18432,0,294,45.701984,4.911118,24.02,196.0,0,0.0,0,0.0,0.5033,1,0.36,0.9007
54063,1560695548225,-1,2.88,1.94,3.63,2.33,5.04,0.63,-0.88,0.48,43,-5,53,1.08,5456,29,83,38,72,1045,295.0,403,454,60,120.0,244,1,314,347,72,0,0,275,10824,0,296,,,,,,,,,,,,
54083,1560695548245,5,2.84,1.94,3.62,2.32,5.05,0.7,-0.87,0.47,44,-5,55,1.12,5476,29,83,38,72,1037,297.0,410,457,60,122.0,244,1,316,348,72,0,0,283,-1494,0,297,,,,,,,,,,,,
54103,1560695548265,1,2.78,1.93,3.61,2.34,5.08,0.72,-0.91,0.5,43,-3,57,1.16,5456,29,83,38,71,1029,298.0,413,453,60,122.0,244,1,315,347,72,0,0,303,-1483,0,298,,,,,,,,,,,,
54123,1560695548285,1,2.7,1.96,3.56,2.34,5.05,0.67,-0.9,0.58,44,-5,59,1.12,5488,29,83,38,71,1026,299.0,411,456,60,120.0,244,1,318,338,72,0,0,293,250,80,300,,,,,,,,,,,,
54143,1560695548305,2,2.64,2.02,3.47,2.34,5.04,0.72,-0.79,0.55,43,-5,59,1.07,5496,29,83,37,71,1018,298.0,415,458,60,121.0,234,1,318,341,70,0,0,275,-1484,85,298,45.701977,4.911124,24.8,195.9,0,0.0,0,0.0,0.505,1,0.36,0.9024
54163,1560695548325,-1,2.58,2.12,3.36,2.35,5.04,0.69,-0.73,0.6,40,-3,57,1.01,5433,29,83,37,70,1008,297.0,416,445,60,121.0,234,1,315,339,70,0,0,260,15360,90,297,,,,,,,,,,,,
54183,1560695548345,4,2.52,2.19,3.25,2.34,5.05,0.71,-0.68,0.65,38,-3,56,0.99,5307,29,83,37,71,995,295.0,412,466,60,120.0,234,1,305,337,70,0,0,267,-1,23040,295,,,,,,,,,,,,
54203,1560695548365,0,2.45,2.27,3.15,2.34,5.04,0.71,-0.64,0.62,35,-1,55,0.96,5195,29,83,37,71,988,293.0,403,455,60,122.0,234,1,297,334,70,0,0,275,-1,85,293,,,,,,,,,,,,
54223,1560695548385,3,2.39,2.35,3.08,2.32,5.04,0.74,-0.46,0.66,33,-4,53,0.87,5048,29,83,37,73,978,292.0,396,463,60,120.0,234,1,286,335,70,0,0,274,-1,80,292,,,,,,,,,,,,
54243,1560695548403,8,2.32,2.37,3.05,2.28,5.04,0.64,-0.4,0.61,31,-1,49,0.75,4981,29,83,37,73,966,289.0,391,453,60,120.0,216,1,284,338,63,0,0,272,-1,0,289,45.701977,4.91113,25.45,195.9,0,0.0,0,0.0,0.5067,1,0.36,0.904
54263,1560695548423,0,2.25,2.37,3.05,2.22,5.04,0.77,-0.33,0.61,27,-2,45,0.84,5010,31,83,37,75,958,288.0,387,457,60,122.0,216,1,282,344,63,0,0,273,28160,0,288,,,,,,,,,,,,
54283,1560695548443,2,2.21,2.37,3.06,2.16,5.06,0.79,-0.22,0.57,25,-5,42,0.82,5057,34,83,37,77,952,285.0,387,476,60,120.0,216,1,288,371,63,0,0,276,-1527,250,284,,,,,,,,,,,,
54303,1560695548463,-0,2.16,2.37,3.06,2.1,5.08,0.72,-0.26,0.6,21,-2,37,0.77,5218,36,83,37,77,944,281.0,391,447,60,121.0,216,1,295,382,63,0,0,279,630,250,281,,,,,,,,,,,,
54323,1560695548483,0,2.12,2.37,3.06,2.04,5.08,0.78,-0.12,0.57,19,-4,34,0.79,5375,37,83,37,78,933,282.0,395,468,60,120.0,216,1,307,405,63,0,0,283,1886,24064,277,,,,,,,,,,,,
54343,1560695548503,0,2.11,2.38,3.03,2.0,5.05,0.8,-0.13,0.55,15,-2,29,0.81,5530,39,83,37,78,922,286.0,407,457,60,122.0,303,1,316,414,84,0,0,286,0,24064,276,45.701969,4.911134,26.9,195.8,0,0.0,0,0.0,0.5083,1,0.36,0.9057
54363,1560695548523,3,2.09,2.43,3.01,2.02,5.08,0.7,-0.08,0.59,12,1,23,0.7,5668,39,83,37,77,917,291.0,413,456,60,120.0,303,1,325,414,84,0,0,294,20480,-16896,275,,,,,,,,,,,,
54383,1560695548543,-1,2.06,2.48,2.96,2.02,5.07,0.65,0.0,0.7,9,1,18,0.65,5740,40,83,37,77,911,295.0,422,458,60,120.0,303,1,330,416,84,0,0,299,23040,-16896,276,,,,,,,,,,,,
54403,1560695548563,0,2.04,2.53,2.9,2.03,5.05,0.64,0.1,0.79,8,-1,14,0.65,5751,41,83,37,77,906,298.0,431,470,60,121.0,303,1,331,420,84,0,0,303,95,90,278,,,,,,,,,,,,
54423,1560695548583,-0,2.03,2.56,2.86,2.03,5.05,0.68,0.14,0.77,5,-1,11,0.7,5763,41,83,37,76,902,302.0,436,464,60,122.0,303,1,332,414,84,0,0,305,28160,115,280,,,,,,,,,,,,
54443,1560695548602,4,2.0,2.56,2.86,2.02,5.06,0.72,0.1,0.72,2,-1,7,0.73,5771,42,83,37,76,905,306.0,437,464,60,121.0,319,1,332,414,90,0,0,310,115,150,283,45.701962,4.911139,27.69,195.7,0,0.0,0,0.0,0.51,1,0.36,0.9074
54463,1560695548622,2,1.99,2.58,2.89,2.04,5.07,0.74,0.11,0.7,-0,-0,3,0.75,5815,42,83,37,76,912,308.0,439,461,60,122.0,319,1,335,418,90,0,0,313,120,-24576,283,,,,,,,,,,,,
54483,1560695548642,3,1.98,2.58,2.94,2.05,5.04,0.71,0.15,0.63,-2,0,0,0.73,5894,45,83,37,77,924,313.0,439,457,60,122.0,319,1,340,429,90,0,0,317,-30976,120,287,,,,,,,,,,,,
54503,1560695548662,5,1.97,2.56,2.93,2.06,5.03,0.64,0.25,0.54,-4,1,-3,0.69,5978,52,83,37,78,939,318.0,450,451,60,121.0,319,1,345,441,90,0,0,323,145,130,289,,,,,,,,,,,,
54523,1560695548682,5,1.97,2.57,2.9,2.05,5.04,0.56,0.36,0.48,-6,2,-5,0.67,6060,59,83,37,81,953,322.0,453,460,60,122.0,319,1,347,461,90,0,0,325,-24576,-22016,293,,,,,,,,,,,,
54543,1560695548704,0,1.97,2.57,2.87,2.04,5.04,0.55,0.4,0.41,-7,2,-8,0.68,6159,65,83,37,85,966,326.0,459,453,60,121.0,370,1,342,480,109,0,0,328,165,-20736,296,45.701954,4.911145,28.77,195.7,0,0.0,0,0.0,0.5117,1,0.37,0.909
54563,1560695548724,-2,1.99,2.57,2.87,2.04,5.05,0.57,0.35,0.45,-9,2,-10,0.67,6266,70,83,37,88,967,332.0,463,454,60,122.0,370,1,337,493,109,0,0,335,-32559,-122,297,,,,,,,,,,,,
54583,1560695548744,4,1.98,2.57,2.87,2.04,5.04,0.55,0.28,0.6,-11,0,-13,0.62,6358,73,83,37,91,965,333.0,472,465,60,120.0,370,1,338,511,109,0,0,338,-6528,-30438,302,,,,,,,,,,,,
54603,1560695548764,3,2.0,2.57,2.86,2.03,5.07,0.56,0.38,0.64,-12,1,-15,0.68,6375,75,83,37,92,951,339.0,480,458,60,121.0,370,1,337,517,109,0,0,342,-122,-6528,304,,,,,,,,,,,,
54623,1560695548784,-1,2.0,2.57,2.87,2.03,5.06,0.52,0.48,0.57,-13,3,-18,0.71,6311,78,83,37,93,942,342.0,481,458,60,122.0,370,1,333,521,109,0,0,343,-31206,-32559,306,,,,,,,,,,,,
54643,1560695548804,0,2.01,2.57,2.88,2.04,5.04,0.54,0.47,0.61,-14,3,-18,0.72,6360,81,83,37,93,937,344.0,482,455,60,121.0,405,1,336,522,125,0,0,346,-10554,-31206,311,45.70195,4.911151,29.88,195.7,0,0.0,0,0.0,0.5133,1,0.37,0.9107
54663,1560695548824,1,2.03,2.57,2.89,2.04,5.06,0.6,0.45,0.71,-16,1,-19,0.75,6412,83,83,37,94,934,346.0,478,457,60,120.0,405,1,339,528,125,0,0,349,-30438,28553,313,,,,,,,,,,,,
54683,1560695548844,-0,2.04,2.57,2.92,2.04,5.04,0.55,0.53,0.73,-16,3,-21,0.76,6590,87,83,37,94,943,348.0,483,461,60,120.0,405,1,347,530,125,0,0,351,8841,3183,318,,,,,,,,,,,,
54703,1560695548864,4,2.06,2.57,2.93,2.05,5.06,0.6,0.4,0.84,-16,1,-23,0.72,6698,91,83,37,95,955,352.0,493,458,60,120.0,405,1,352,528,125,0,0,354,3183,-29978,321,,,,,,,,,,,,
54723,1560695548884,1,2.09,2.56,2.92,2.06,5.08,0.47,0.47,0.82,-16,1,-25,0.66,6959,96,83,37,95,987,353.0,499,453,60,120.0,405,1,366,525,125,0,0,357,-6644,-1246,325,,,,,,,,,,,,
54743,1560695548904,1,2.1,2.56,2.91,2.08,5.07,0.63,0.37,0.8,-18,-0,-25,0.73,7078,99,83,37,95,1029,357.0,508,463,60,121.0,423,1,374,528,139,0,0,365,-6640,0,329,45.701942,4.911159,32.22,195.6,0,0.0,0,0.0,0.515,1,0.37,0.9124
54763,1560695548924,5,2.13,2.56,2.85,2.1,5.07,0.62,0.3,0.92,-17,2,-23,0.69,7151,100,83,37,95,1067,360.0,516,452,60,121.0,423,1,380,532,139,0,0,369,-6458,17144,338,,,,,,,,,,,,
54783,1560695548944,2,2.15,2.57,2.83,2.11,5.05,0.36,0.38,0.98,-15,5,-21,0.53,7228,100,83,37,95,1107,364.0,528,456,60,121.0,423,1,386,536,139,0,0,375,-1268,6384,342,,,,,,,,,,,,
54803,1560695548964,4,2.16,2.55,2.85,2.14,5.04,0.21,0.41,1.03,-13,5,-22,0.46,7247,100,83,37,94,1125,370.0,528,456,60,121.0,423,1,388,537,139,0,0,379,486,-992,349,,,,,,,,,,,,
54823,1560695548984,1,2.16,2.56,2.85,2.19,5.05,0.32,0.4,1.03,-13,5,-24,0.51,7298,100,83,37,95,1136,373.0,525,458,60,119.0,423,1,391,540,139,0,0,388,-6656,3,358,,,,,,,,,,,,
54843,1560695548998,1,2.17,2.56,2.86,2.24,5.07,0.44,0.37,1.01,-14,3,-24,0.57,7256,100,83,37,95,1130,379.0,526,460,60,120.0,411,1,388,537,148,0,0,395,8200,-992,365,45.701935,4.911167,33.66,195.5,0,0.0,0,0.0,0.5167,1,0.37,0.914
54863,1560695549018,2,2.15,2.58,2.88,2.25,5.07,0.49,0.4,0.97,-14,4,-23,0.63,7287,100,83,37,95,1112,387.0,529,461,60,120.0,411,1,390,538,148,0,0,398,240,1,369,,,,,,,,,,,,
54883,1560695549038,-0,2.16,2.61,2.89,2.27,5.04,0.53,0.37,1.01,-15,5,-21,0.64,7344,100,83,37,94,1084,389.0,535,455,60,121.0,411,1,395,542,148,0,0,402,-6524,6512,376,,,,,,,,,,,,
54903,1560695549058,1,2.15,2.61,2.9,2.27,5.04,0.59,0.29,1.09,-15,1,-19,0.66,7479,100,83,37,94,1035,396.0,541,460,60,120.0,411,1,405,549,148,0,0,410,-32702,11545,380,,,,,,,,,,,,
54923,1560695549078,3,2.15,2.61,2.9,2.25,5.06,0.6,0.27,1.13,-15,0,-20,0.66,7744,100,83,37,94,985,401.0,547,461,60,120.0,411,1,426,561,148,0,0,412,11545,-4059,385,,,,,,,,,,,,
54943,1560695549106,6,2.16,2.62,2.89,2.26,5.04,0.62,0.34,1.12,-14,-0,-20,0.71,8009,100,83,37,93,962,406.0,556,456,60,120.0,436,1,447,574,168,0,0,416,2524,7154,388,45.701931,4.911176,36.21,195.5,0,0.0,0,0.0,0.5183,1,0.37,0.9157
54963,1560695549126,3,2.16,2.61,2.9,2.25,5.07,0.59,0.15,1.18,-13,-2,-20,0.61,8209,100,83,37,91,921,409.0,576,455,60,120.0,436,1,444,597,168,0,0,422,11560,-7939,394,,,,,,,,,,,,
54983,1560695549146,1,2.18,2.63,2.89,2.28,5.04,0.57,0.15,1.21,-13,0,-20,0.59,8404,100,83,37,90,895,416.0,593,453,60,120.0,436,1,439,605,168,0,0,438,-3414,-18341,398,,,,,,,,,,,,
55003,1560695549166,6,2.17,2.63,2.87,2.27,5.08,0.55,0.2,1.16,-13,0,-18,0.58,8542,100,84,37,89,866,423.0,602,451,60,120.0,436,1,434,617,168,0,0,445,3826,21432,406,,,,,,,,,,,,
55023,1560695549186,3,2.18,2.63,2.87,2.27,5.04,0.49,0.05,1.24,-12,-3,-20,0.49,8612,100,84,37,88,862,431.0,603,456,60,120.0,436,1,430,617,168,0,0,461,1779,2524,416,,,,,,,,,,,,
55043,1560695549204,2,2.2,2.63,2.86,2.29,5.07,0.5,0.08,1.23,-13,-0,-19,0.51,8624,100,84,37,88,861,437.0,602,452,60,120.0,480,1,430,606,201,0,0,472,20625,-26615,423,45.701923,4.911186,39.2,195.4,0,0.0,0,0.0,0.52,1,0.37,0.9174
55063,1560695549224,-0,2.21,2.66,2.86,2.29,5.06,0.52,0.24,1.11,-13,1,-17,0.57,8692,100,84,37,88,867,446.0,611,453,60,120.0,480,1,428,606,201,0,0,466,16648,16408,429,,,,,,,,,,,,
55083,1560695549244,2,2.22,2.67,2.87,2.28,5.03,0.27,0.28,1.08,-12,1,-15,0.39,8741,100,84,37,87,871,451.0,610,450,60,120.0,480,1,426,606,201,0,0,470,3571,-899,436,,,,,,,,,,,,
55103,1560695549264,9,2.23,2.71,2.87,2.3,5.04,0.16,0.28,1.06,-11,2,-16,0.32,8890,100,84,37,87,882,458.0,621,463,60,120.0,480,1,419,594,201,0,0,477,17628,-6656,441,,,,,,,,,,,,
55123,1560695549284,3,2.24,2.74,2.93,2.4,5.07,-0.05,0.35,0.99,-9,6,-16,0.35,9066,100,84,37,87,897,460.0,619,461,60,120.0,480,1,418,594,201,0,0,487,-23623,32033,447,,,,,,,,,,,,
55143,1560695549306,3,2.23,2.73,2.93,2.43,5.04,-0.14,0.38,0.95,-9,5,-15,0.41,9222,100,84,37,87,917,467.0,623,458,60,120.0,458,1,418,594,206,0,0,496,243,32033,454,45.701916,4.911197,42.14,195.4,0,0.0,0,0.0,0.5217,1,0.37,0.919
55163,1560695549326,4,2.23,2.72,2.94,2.43,5.04,-0.26,0.5,0.97,-8,5,-13,0.57,9314,100,84,37,86,933,471.0,620,460,60,120.0,458,1,418,583,206,0,0,501,32033,505,461,,,,,,,,,,,,
55183,1560695549346,6,2.24,2.71,2.92,2.41,5.06,-0.06,0.45,0.98,-9,6,-13,0.46,9403,100,84,37,87,948,477.0,627,451,60,120.0,458,1,418,583,206,0,0,502,2212,-3856,473,,,,,,,,,,,,
55203,1560695549366,2,2.24,2.72,2.88,2.4,5.06,0.03,0.47,0.95,-9,5,-12,0.47,9517,100,84,37,86,965,486.0,630,460,60,120.0,458,1,419,595,206,0,0,505,-1562,16383,477,,,,,,,,,,,,
55223,1560695549386,4,2.25,2.69,2.88,2.39,5.03,-0.0,0.45,1.0,-7,4,-12,0.45,9650,100,84,36,86,988,491.0,633,456,60,119.0,458,1,412,586,206,0,0,505,248,-9072,483,,,,,,,,,,,,
55243,1560695549406,4,2.25,2.66,3.0,2.4,5.07,0.01,0.43,0.99,-6,5,-13,0.43,9791,100,84,36,86,1006,496.0,643,455,60,120.0,449,1,406,591,218,0,0,540,3,2524,491,45.701912,4.911209,45.2,195.4,0,0.0,0,0.0,0.5233,1,0.37,0.9207
55263,1560695549426,1,2.24,2.63,3.03,2.41,5.04,0.08,0.3,1.09,-6,3,-12,0.31,10042,100,84,36,85,1020,501.0,643,459,60,119.0,449,1,398,577,218,0,0,542,2109,-32248,498,,,,,,,,,,,,
55283,1560695549446,6,2.27,2.63,3.02,2.43,5.04,0.1,0.32,1.11,-6,6,-11,0.34,10157,100,84,36,85,1029,505.0,644,456,60,120.0,449,1,405,577,218,0,0,542,-28648,2524,505,,,,,,,,,,,,
55303,1560695549466,5,2.26,2.64,2.97,2.42,5.07,0.07,0.3,1.2,-6,2,-9,0.31,10223,100,84,36,85,1029,512.0,645,459,60,120.0,449,1,414,577,218,0,0,540,17136,6274,512,,,,,,,,,,,,
55323,1560695549486,4,2.27,2.65,2.93,2.41,5.06,-0.01,0.35,1.27,-6,2,-7,0.35,10307,100,84,36,85,1028,520.0,646,456,60,120.0,449,1,416,577,218,0,0,542,1248,6273,517,,,,,,,,,,,,
55343,1560695549506,5,2.27,2.66,2.9,2.41,5.07,0.07,0.33,1.31,-5,3,-7,0.34,10307,100,84,36,85,1018,526.0,641,454,60,120.0,434,1,416,577,226,0,0,549,-28648,-22263,522,45.7019,4.911222,48.45,195.4,0,0.0,0,0.0,0.525,1,0.37,0.9224
55363,1560695549526,3,2.28,2.65,2.94,2.42,5.07,0.07,0.28,1.3,-4,3,-7,0.29,10399,100,84,36,85,1010,532.0,645,456,60,120.0,434,1,424,577,226,0,0,569,-22519,-22359,529,,,,,,,,,,,,
55383,1560695549546,4,2.27,2.65,2.96,2.42,5.05,0.09,0.23,1.29,-3,2,-6,0.25,10416,100,84,36,85,1001,537.0,647,457,60,119.0,434,1,425,577,226,0,0,573,1780,-30159,537,,,,,,,,,,,,
55403,1560695549566,5,2.29,2.62,2.96,2.41,5.04,0.16,0.26,1.36,-3,1,-7,0.31,10563,100,84,36,85,989,544.0,642,457,60,120.0,434,1,432,577,226,0,0,571,-506,-29984,544,,,,,,,,,,,,
55423,1560695549586,3,2.29,2.62,2.98,2.41,5.07,0.16,0.34,1.28,-3,4,-6,0.38,10647,100,84,36,85,990,549.0,646,455,60,119.0,434,1,434,577,226,0,0,575,2104,30208,547,,,,,,,,,,,,
55443,1560695549605,7,2.29,2.61,2.98,2.37,5.06,0.23,0.21,1.17,-2,1,-4,0.31,10844,100,84,36,85,992,555.0,657,455,60,120.0,425,1,439,577,234,0,0,577,-22263,10432,554,45.701897,4.911236,50.96,195.4,0,0.0,0,0.0,0.5267,1,0.37,0.924
55463,1560695549625,4,2.29,2.6,2.98,2.37,5.08,0.14,0.13,1.25,-2,0,-3,0.19,10945,100,84,36,85,991,559.0,656,456,60,120.0,425,1,442,577,234,0,0,583,-18032,-4035,561,,,,,,,,,,,,
55483,1560695549645,3,2.29,2.59,3.0,2.36,5.06,0.15,0.15,1.17,-1,1,-3,0.21,11068,100,84,36,85,989,566.0,657,456,60,120.0,425,1,444,577,234,0,0,599,-2934,2048,566,,,,,,,,,,,,
55503,1560695549665,3,2.29,2.59,3.02,2.37,5.06,0.14,0.07,1.25,-0,2,-4,0.16,11234,100,84,36,84,986,574.0,652,457,60,120.0,425,1,442,559,234,0,0,605,-3190,2048,572,,,,,,,,,,,,
55523,1560695549685,3,2.29,2.6,3.02,2.39,5.07,0.19,0.16,1.3,-1,3,-3,0.25,11336,100,84,36,84,983,578.0,651,454,60,119.0,425,1,441,559,234,0,0,611,1,-7939,578,,,,,,,,,,,,
55543,1560695549705,3,2.3,2.6,2.97,2.37,5.07,0.23,0.03,1.31,-1,4,-3,0.23,11356,100,84,36,84,972,581.0,656,455,60,120.0,416,1,441,559,241,0,0,610,10432,-23055,583,45.701885,4.911251,54.01,195.4,0,0.0,0,0.0,0.5283,1,0.38,0.9257
55563,1560695549725,0,2.29,2.6,2.93,2.38,5.06,0.26,0.13,1.19,-1,5,-2,0.29,11432,100,84,36,84,964,587.0,657,455,60,120.0,416,1,441,559,241,0,0,606,208,269,587,,,,,,,,,,,,
55583,1560695549745,6,2.29,2.59,2.93,2.38,5.06,0.21,0.2,1.13,1,5,-0,0.29,11531,100,84,36,84,956,594.0,654,452,60,119.0,416,1,441,559,241,0,0,616,2048,30721,595,,,,,,,,,,,,
55603,1560695549765,4,2.3,2.56,2.96,2.42,5.05,0.26,0.14,1.16,1,4,1,0.29,11609,100,84,36,84,947,601.0,655,453,60,120.0,416,1,440,561,241,0,0,624,17344,-16883,601,,,,,,,,,,,,
55623,1560695549785,2,2.31,2.55,3.01,2.44,5.05,0.22,0.11,1.24,1,2,0,0.25,11711,100,84,36,84,936,604.0,660,457,60,120.0,416,1,440,564,241,0,0,636,23619,-10251,611,,,,,,,,,,,,
55643,1560695549805,4,2.29,2.54,2.99,2.45,5.04,0.26,0.05,1.24,1,0,-0,0.27,11867,100,84,36,83,916,611.0,655,455,60,120.0,414,1,440,551,252,0,0,632,5344,-1346,614,45.701878,4.911266,56.65,195.4,0,0.0,0,0.0,0.53,1,0.38,0.9274
55663,1560695549825,2,2.3,2.52,3.0,2.42,5.05,0.34,0.0,1.15,2,0,0,0.34,11988,100,84,36,83,907,615.0,665,462,60,119.0,414,1,440,553,252,0,0,635,28675,16599,615,,,,,,,,,,,,
55683,1560695549845,4,2.29,2.51,3.01,2.41,5.05,0.42,-0.04,1.13,2,0,0,0.42,12104,100,84,36,83,896,622.0,665,457,60,120.0,414,1,440,555,252,0,0,650,269,-4876,622,,,,,,,,,,,,
55703,1560695549865,4,2.29,2.49,3.04,2.41,5.07,0.44,-0.08,1.21,2,1,-0,0.44,12207,100,84,36,83,879,629.0,662,456,60,120.0,414,1,440,555,252,0,0,651,3395,-3488,629,,,,,,,,,,,,
55723,1560695549885,3,2.29,2.49,3.05,2.39,5.05,0.39,-0.03,1.25,2,1,1,0.39,12278,100,84,36,83,859,632.0,663,455,60,120.0,414,1,440,555,252,0,0,660,-16046,-26380,634,,,,,,,,,,,,
55743,1560695549906,5,2.28,2.5,3.04,2.37,5.04,0.28,0.12,1.31,2,2,4,0.3,12376,100,84,36,83,848,637.0,660,454,60,119.0,420,1,440,555,266,0,0,664,-2580,8958,639,45.701866,4.911283,59.27,195.4,0,0.0,0,0.0,0.5317,1,0.38,0.929
55763,1560695549926,3,2.28,2.58,2.96,2.37,5.05,0.27,0.11,1.07,2,3,2,0.29,12376,100,84,36,84,834,640.0,663,453,60,119.0,420,1,440,555,266,0,0,656,24,3543,641,,,,,,,,,,,,
55783,1560695549946,4,2.28,2.59,2.94,2.39,5.04,0.36,-0.01,1.06,2,3,0,0.36,12433,100,84,36,83,822,643.0,670,453,60,119.0,420,1,440,555,266,0,0,663,244,-10344,642,,,,,,,,,,,,
55803,1560695549966,5,2.27,2.59,2.96,2.38,5.04,0.39,0.01,1.15,2,2,2,0.39,12441,100,84,36,83,798,648.0,663,450,60,120.0,420,1,440,555,266,0,0,674,4909,31988,649,,,,,,,,,,,,
55823,1560695549986,5,2.26,2.6,2.94,2.4,5.04,0.32,0.18,0.88,2,2,4,0.37,12508,100,84,36,83,786,652.0,658,455,60,119.0,420,1,440,555,266,0,0,674,24583,-388,653,,,,,,,,,,,,
55843,1560695549999,4,2.27,2.61,3.02,2.41,5.04,0.29,0.11,0.89,2,2,3,0.31,12626,100,84,36,83,775,653.0,667,453,60,119.0,405,1,440,555,265,0,0,684,-3488,3543,654,45.701855,4.911299,61.37,195.4,0,0.0,0,0.0,0.5333,1,0.38,0.9307
55863,1560695550019,3,2.27,2.59,3.09,2.4,5.08,0.38,0.05,1.0,1,1,3,0.38,12729,100,84,36,83,769,658.0,671,457,60,119.0,405,1,440,555,265,0,0,690,31988,-3584,659,,,,,,,,,,,,
55883,1560695550039,4,2.28,2.58,3.12,2.39,5.05,0.45,-0.03,1.08,1,-0,3,0.45,12860,100,84,36,83,758,665.0,676,457,60,119.0,405,1,440,555,265,0,0,692,-2826,14342,665,,,,,,,,,,,,
55903,1560695550059,4,2.28,2.57,3.13,2.39,5.05,0.4,-0.01,1.09,1,-1,1,0.4,13002,100,84,36,83,754,671.0,669,461,60,119.0,405,1,440,555,265,0,0,695,3543,19188,671,,,,,,,,,,,,
55923,1560695550079,4,2.26,2.56,3.17,2.39,5.03,0.42,-0.06,1.14,1,-2,0,0.43,13194,100,84,36,84,753,673.0,678,458,60,119.0,405,1,440,570,265,0,0,703,-3038,-13072,673,,,,,,,,,,,,
55943,1560695550105,5,2.27,2.56,3.17,2.4,5.05,0.39,-0.05,1.03,1,-2,1,0.39,13260,100,84,36,83,754,679.0,674,451,60,119.0,412,1,440,555,278,0,0,714,-2345,11069,677,45.701847,4.911317,64.26,195.4,0,0.0,0,0.0,0.535,1,0.38,0.9324
55963,1560695550125,1,2.27,2.58,3.11,2.41,5.07,0.33,0.03,0.92,0,-2,1,0.33,13383,100,84,36,83,757,681.0,666,453,60,119.0,412,1,440,555,278,0,0,708,-2345,204,683,,,,,,,,,,,,
55983,1560695550145,-3,2.28,2.61,3.05,2.42,5.04,0.41,-0.06,0.97,-0,-2,0,0.41,13345,100,84,36,83,761,685.0,678,458,60,119.0,412,1,440,555,278,0,0,717,16118,6658,685,,,,,,,,,,,,
56003,1560695550165,-1,2.27,2.62,2.99,2.4,5.07,0.35,-0.01,0.95,0,-1,-0,0.35,13093,100,84,36,84,765,686.0,686,460,60,123.0,412,1,440,555,278,0,0,713,16599,-2560,685,,,,,,,,,,,,
56023,1560695550185,-0,2.27,2.6,3.03,2.37,5.04,0.41,0.08,0.74,1,-2,-1,0.42,12508,100,84,36,84,772,691.0,680,462,60,123.0,412,1,440,570,278,0,0,705,1780,-20693,689,,,,,,,,,,,,
56043,1560695550203,1,2.26,2.49,3.15,2.3,5.04,0.39,0.14,0.63,2,-2,-0,0.41,12143,100,84,36,84,776,695.0,673,461,60,121.0,383,1,440,570,266,0,0,705,14342,11576,694,45.701836,4.911335,65.55,195.4,0,0.0,0,0.0,0.5367,1,0.38,0.934
56063,1560695550223,1,2.28,2.39,3.28,2.19,5.08,0.38,0.22,0.52,3,2,0,0.44,11927,100,84,36,85,781,695.0,674,460,60,122.0,383,1,440,585,266,0,0,692,-10448,11576,693,,,,,,,,,,,,
56083,1560695550243,-0,2.27,2.37,3.29,2.16,5.05,0.39,0.26,0.47,4,2,1,0.47,11711,100,84,36,86,782,697.0,668,462,60,122.0,383,1,440,599,266,0,0,693,16599,-2830,693,,,,,,,,,,,,
56103,1560695550263,5,2.26,2.38,3.27,2.16,5.04,0.16,0.34,0.62,4,-3,-2,0.38,11207,100,84,36,86,814,698.0,665,463,60,121.0,383,1,443,1086,266,0,0,723,24,-2830,696,,,,,,,,,,,,
56123,1560695550283,0,2.27,2.4,3.12,2.19,5.06,0.1,0.21,0.55,4,4,-3,0.24,10140,100,84,36,88,900,705.0,640,452,60,119.0,383,1,406,1021,266,0,0,795,-20693,204,703,,,,,,,,,,,,
56143,1560695550305,4,2.26,2.43,2.99,2.24,5.05,0.26,0.25,0.58,3,6,-1,0.36,9827,100,84,36,88,1012,709.0,631,457,60,120.0,514,1,405,927,363,0,0,748,-30694,-2830,714,45.701824,4.911353,67.33,195.4,0,0.0,0,0.0,0.5383,1,0.39,0.9357
56163,1560695550325,4,2.26,2.45,2.88,2.27,5.04,0.16,0.27,0.6,3,5,1,0.32,10135,100,84,36,86,1156,711.0,640,449,60,120.0,514,1,405,776,363,0,0,732,-12152,-2358,711,,,,,,,,,,,,
56183,1560695550345,3,2.26,2.51,2.87,2.27,5.03,0.16,0.22,0.74,2,4,-1,0.28,10206,100,84,36,85,1242,714.0,638,460,60,119.0,514,1,410,656,363,0,0,732,16118,-13068,711,,,,,,,,,,,,
56203,1560695550365,0,2.27,2.59,2.87,2.32,5.07,0.23,0.15,0.65,2,1,-4,0.28,10190,100,84,36,85,1357,716.0,637,460,60,119.0,514,1,408,577,363,0,0,740,16118,-2830,714,,,,,,,,,,,,
56223,1560695550385,6,2.25,2.61,2.96,2.35,5.08,0.31,0.14,0.6,2,-2,-3,0.34,10021,100,84,36,85,1498,720.0,642,453,60,119.0,514,1,396,577,363,0,0,757,-2830,-10218,719,,,,,,,,,,,,
56243,1560695550405,5,2.25,2.64,3.07,2.35,5.05,0.27,0.19,0.59,2,-3,-2,0.33,10080,100,84,36,85,1498,725.0,645,455,60,120.0,305,1,401,577,220,0,0,763,-388,-23308,720,45.701817,4.911372,68.61,195.4,0,0.0,0,0.0,0.54,1,0.39,0.9374
56263,1560695550425,4,2.26,2.62,3.22,2.32,5.06,0.19,0.2,0.7,2,-4,-3,0.28,10257,100,84,36,85,1483,732.0,639,455,60,120.0,305,1,413,577,220,0,0,755,-2826,-22795,725,,,,,,,,,,,,
56283,1560695550445,2,2.26,2.61,3.3,2.32,5.04,0.28,0.19,0.66,2,1,-5,0.34,10359,100,84,36,85,1412,734.0,648,455,60,120.0,305,1,421,577,220,0,0,769,-3580,-3368,732,,,,,,,,,,,,
56303,1560695550465,3,2.26,2.57,3.3,2.29,5.08,0.31,0.17,0.64,1,-1,-5,0.36,10611,100,84,36,85,1318,741.0,655,460,60,120.0,305,1,433,577,220,0,0,774,-2826,-31068,735,,,,,,,,,,,,
56323,1560695550485,3,2.27,2.52,3.21,2.26,5.05,0.38,0.15,0.74,1,1,-4,0.41,10695,100,84,36,85,1200,748.0,646,456,60,120.0,305,1,435,559,220,0,0,784,-4096,-3888,744,,,,,,,,,,,,
56343,1560695550505,2,2.26,2.52,3.06,2.25,5.04,0.33,0.08,0.76,1,3,-5,0.34,10850,100,84,36,85,1130,754.0,651,459,60,120.0,315,1,440,559,235,0,0,768,-2574,-2344,751,45.701801,4.911391,71.06,195.4,0,0.0,0,0.0,0.5417,1,0.39,0.939
56363,1560695550525,3,2.27,2.52,2.95,2.26,5.05,0.42,0.06,0.87,1,3,-4,0.43,10763,100,84,35,84,1030,755.0,647,458,60,119.0,315,1,437,577,235,0,0,775,-31066,-2540,754,,,,,,,,,,,,
56383,1560695550545,3,2.25,2.51,2.81,2.25,5.04,0.47,0.06,0.91,1,2,-4,0.48,10605,100,84,35,85,955,761.0,651,451,60,119.0,315,1,433,577,235,0,0,795,-10218,-2570,755,,,,,,,,,,,,
56403,1560695550565,4,2.26,2.5,2.69,2.29,5.08,0.56,0.07,0.93,1,3,-5,0.57,10533,100,84,35,85,961,766.0,652,456,60,120.0,315,1,432,577,235,0,0,776,-2344,6389,764,,,,,,,,,,,,
56423,1560695550585,3,2.26,2.54,2.71,2.29,5.04,0.52,0.01,0.95,-0,2,-4,0.52,10498,100,84,35,85,985,768.0,641,454,60,119.0,315,1,430,577,235,0,0,784,-10214,-2570,767,,,,,,,,,,,,
56443,1560695550604,4,2.27,2.58,2.8,2.29,5.07,0.63,0.06,1.0,0,-2,-3,0.63,10569,100,84,35,85,996,767.0,642,460,60,120.0,303,1,434,577,231,0,0,788,6900,-2344,768,45.701794,4.911411,72.29,195.4,0,0.0,0,0.0,0.5433,1,0.39,0.9407
56463,1560695550624,2,2.27,2.58,2.92,2.31,5.05,0.58,0.09,1.03,-1,-2,-2,0.58,10726,100,84,35,85,1009,771.0,650,455,60,120.0,303,1,436,577,231,0,0,795,-10214,-13312,771,,,,,,,,,,,,
56483,1560695550644,4,2.26,2.59,3.14,2.35,5.04,0.49,0.05,1.06,0,-3,-3,0.49,10926,100,84,35,85,1014,772.0,657,456,60,119.0,303,1,442,577,231,0,0,813,-10212,-3888,770,,,,,,,,,,,,
56503,1560695550664,1,2.26,2.64,3.28,2.35,5.06,0.48,0.05,0.92,-0,-5,-6,0.48,11016,100,84,35,84,1009,777.0,652,457,60,120.0,303,1,443,559,231,0,0,813,-3450,204,772,,,,,,,,,,,,
56523,1560695550684,3,2.27,2.66,3.36,2.44,5.05,0.45,0.08,0.82,-1,-2,-3,0.46,11234,94,84,35,84,998,776.0,663,457,60,120.0,303,1,442,559,231,0,0,833,-31068,-1576,777,,,,,,,,,,,,
56543,1560695550706,6,2.27,2.67,3.37,2.5,5.04,0.32,0.12,0.8,-0,-0,-3,0.34,11517,87,84,35,82,988,781.0,656,459,60,120.0,299,1,440,540,233,0,0,851,-2426,-2314,780,45.701778,4.911432,75.44,195.4,0,0.0,0,0.0,0.545,1,0.39,0.9424
56563,1560695550726,4,2.25,2.67,3.35,2.48,5.08,0.22,0.09,0.78,-0,-3,-6,0.23,11624,77,84,35,79,976,782.0,658,458,60,119.0,299,1,440,510,233,0,0,856,-2826,-2570,779,,,,,,,,,,,,
56583,1560695550746,3,2.27,2.65,3.3,2.47,5.07,0.27,0.02,0.69,0,0,-7,0.27,11733,71,85,35,75,970,791.0,659,456,60,120.0,299,1,440,481,233,0,0,847,-8148,-22795,789,,,,,,,,,,,,
56603,1560695550766,5,2.26,2.66,3.29,2.47,5.07,0.35,0.08,0.73,1,1,-3,0.36,11711,64,85,35,70,951,795.0,661,462,60,119.0,299,1,440,457,233,0,0,856,-7436,-23308,793,,,,,,,,,,,,
56623,1560695550786,5,2.26,2.65,3.26,2.46,5.03,0.43,0.09,0.82,-1,-1,-3,0.44,11517,57,85,35,66,931,798.0,648,458,60,120.0,299,1,441,433,233,0,0,863,6905,-4096,797,,,,,,,,,,,,
56643,1560695550806,3,2.27,2.64,3.14,2.41,5.05,0.51,0.09,0.74,-2,1,-3,0.52,11227,47,85,35,61,915,803.0,651,453,60,120.0,227,1,446,397,181,0,0,822,-31068,-13068,803,45.701767,4.911453,76.62,195.4,0,0.0,0,0.0,0.5467,1,0.4,0.944
56663,1560695550826,7,2.27,2.62,3.07,2.35,5.04,0.47,0.02,0.7,-1,2,-2,0.47,11022,37,85,35,55,906,809.0,656,455,60,120.0,227,1,407,342,181,0,0,824,-2830,-30694,806,,,,,,,,,,,,
56683,1560695550846,4,2.27,2.6,3.04,2.33,5.07,0.58,0.01,0.62,-1,-1,-1,0.58,10539,27,85,35,49,876,813.0,651,458,60,120.0,227,1,385,269,181,0,0,819,-25858,-2560,809,,,,,,,,,,,,
56703,1560695550866,5,2.27,2.54,3.05,2.32,5.08,0.57,-0.03,0.59,-1,-4,0,0.57,10347,23,85,35,45,851,806.0,645,452,60,120.0,227,1,365,238,181,0,0,805,16118,-388,810,,,,,,,,,,,,
56723,1560695550886,5,2.28,2.42,3.08,2.22,5.07,0.52,0.08,0.49,-0,-2,2,0.53,10096,20,85,35,42,816,807.0,643,457,60,120.0,227,1,342,227,181,0,0,805,-23490,-2826,805,,,,,,,,,,,,
56743,1560695550906,8,2.27,2.28,3.22,2.06,5.04,0.67,-0.02,0.53,-0,-5,0,0.67,9941,18,85,35,39,800,806.0,645,457,60,120.0,105,1,320,219,85,0,0,797,16118,-2560,806,45.701756,4.911474,77.98,195.4,0,0.0,0,0.0,0.5483,1,0.4,0.9457
56763,1560695550926,7,2.26,2.18,3.4,2.01,5.06,0.61,-0.08,0.45,1,-3,1,0.62,9873,12,85,35,36,775,808.0,648,461,60,120.0,105,1,311,212,85,0,0,783,-31068,-2826,809,,,,,,,,,,,,
56783,1560695550946,5,2.27,2.15,3.47,1.98,5.04,0.7,-0.14,0.26,0,-2,1,0.71,9904,9,85,35,34,761,804.0,635,457,60,120.0,105,1,305,208,85,0,0,758,-13312,-2574,808,,,,,,,,,,,,
56803,1560695550966,7,2.27,2.13,3.41,1.94,5.04,0.83,-0.07,0.31,-0,-5,2,0.83,9978,8,85,35,32,748,803.0,638,460,60,120.0,105,1,300,206,85,0,0,771,-13072,-31066,804,,,,,,,,,,,,
56823,1560695550986,7,2.27,2.11,3.32,1.89,5.06,0.82,-0.13,0.31,1,-0,2,0.83,10026,7,85,35,30,751,801.0,642,457,60,120.0,105,1,291,201,85,0,0,777,6905,-10212,797,,,,,,,,,,,,
56843,1560695550998,5,2.28,2.08,3.29,1.88,5.05,0.88,-0.19,0.27,1,-2,1,0.9,10053,7,85,35,28,773,799.0,641,455,60,120.0,94,1,282,197,75,0,0,782,-2540,11277,799,45.70174,4.911496,78.88,195.3,0,0.0,0,0.0,0.55,1,0.4,0.9474
56863,1560695551018,11,2.28,2.07,3.3,1.87,5.09,0.99,-0.13,0.26,1,-4,1,1.0,10124,7,85,35,27,802,789.0,642,456,60,120.0,94,1,278,195,75,0,0,763,3544,-3368,789,,,,,,,,,,,,
56883,1560695551038,13,2.28,2.06,3.31,1.86,5.05,1.1,-0.18,0.29,0,-4,1,1.11,10135,7,85,35,26,850,783.0,651,460,60,120.0,94,1,274,195,75,0,0,763,5876,-2344,784,,,,,,,,,,,,
56903,1560695551058,14,2.28,2.04,3.31,1.83,5.05,1.14,-0.2,0.28,1,-2,0,1.16,10184,7,85,35,25,876,778.0,653,461,60,120.0,94,1,270,196,75,0,0,755,-2830,-30694,778,,,,,,,,,,,,
56923,1560695551078,15,2.27,2.03,3.37,1.82,5.07,1.07,-0.21,0.25,2,-3,-1,1.09,10257,7,85,35,25,913,772.0,658,457,60,120.0,94,1,270,197,75,0,0,748,-2344,-3344,772,,,,,,,,,,,,
56943,1560695551104,13,2.27,2.02,3.41,1.83,5.07,0.99,-0.12,0.18,1,-3,-1,1.0,10190,7,85,35,24,925,768.0,651,461,60,120.0,97,1,270,190,75,0,0,735,-10214,-2314,766,45.701733,4.911517,76.89,195.3,0,0.0,0,0.0,0.5517,1,0.4,0.949
56963,1560695551124,16,2.27,2.0,3.41,1.81,5.08,1.1,-0.08,0.25,1,-1,0,1.1,10118,7,85,35,24,941,765.0,646,466,60,120.0,97,1,270,187,75,0,0,747,-2766,-31068,765,,,,,,,,,,,,
56983,1560695551144,18,2.26,2.0,3.39,1.81,5.07,0.98,-0.07,0.19,1,-2,-0,0.98,10032,7,85,35,24,917,758.0,647,458,60,120.0,97,1,270,185,75,0,0,739,5876,-22796,757,,,,,,,,,,,,
57003,1560695551164,15,2.26,1.99,3.38,1.81,5.03,0.93,-0.05,0.18,1,-0,1,0.93,9899,7,85,35,23,895,757.0,647,460,60,120.0,97,1,270,180,75,0,0,736,-31068,-22796,756,,,,,,,,,,,,
57023,1560695551184,18,2.27,2.0,3.38,1.81,5.07,1.04,0.01,0.2,1,-1,2,1.04,9873,7,85,35,23,866,749.0,637,461,60,120.0,97,1,270,180,75,0,0,719,-3344,-2830,751,,,,,,,,,,,,
57043,1560695551206,17,2.26,1.99,3.37,1.8,5.07,0.95,-0.06,0.1,1,-3,1,0.95,9811,7,85,35,22,839,741.0,648,457,60,121.0,88,1,270,176,66,0,0,724,-2314,-22796,738,45.701717,4.911539,75.08,195.3,0,0.0,0,0.0,0.5533,1,0.4,0.9507
57063,1560695551226,19,2.26,1.98,3.37,1.79,5.07,1.03,-0.07,0.14,1,-1,2,1.04,9735,6,85,35,22,832,738.0,642,455,60,120.0,88,1,270,175,66,0,0,722,-31066,204,738,,,,,,,,,,,,
57083,1560695551246,17,2.27,1.98,3.37,1.79,5.07,0.99,-0.12,0.11,1,-0,0,1.0,9679,6,85,35,22,822,731.0,645,460,60,120.0,88,1,270,173,66,0,0,714,-3344,-13312,732,,,,,,,,,,,,
57103,1560695551266,20,2.26,1.96,3.39,1.79,5.03,1.09,-0.05,0.11,1,-1,-0,1.09,9625,6,85,35,22,803,725.0,647,461,60,120.0,88,1,270,171,66,0,0,699,-25858,-20693,725,,,,,,,,,,,,
57123,1560695551286,19,2.28,1.95,3.41,1.77,5.05,1.18,-0.16,0.28,1,-4,-0,1.19,9512,6,85,35,21,787,721.0,643,457,60,120.0,88,1,270,163,66,0,0,703,-2830,8010,721,,,,,,,,,,,,
57143,1560695551306,22,2.27,1.94,3.42,1.75,5.04,1.13,-0.19,0.15,1,-3,-0,1.15,9398,6,85,35,21,781,716.0,644,460,60,121.0,80,1,270,163,58,0,0,696,204,12333,717,45.701706,4.911559,72.55,195.3,0,0.0,0,0.0,0.555,1,0.41,0.9524
57163,1560695551326,18,2.28,1.94,3.42,1.76,5.08,0.94,-0.04,0.02,2,-2,-0,0.94,9300,6,85,35,21,775,715.0,640,462,60,120.0,80,1,270,163,58,0,0,686,-30694,-26380,711,,,,,,,,,,,,
57183,1560695551346,18,2.28,1.94,3.45,1.75,5.03,0.84,0.11,-0.13,3,2,-0,0.85,9227,6,85,35,21,772,706.0,635,463,60,120.0,80,1,270,163,58,0,0,675,11069,-10346,706,,,,,,,,,,,,
57203,1560695551366,19,2.27,1.94,3.45,1.75,5.04,0.82,0.19,-0.09,2,-0,1,0.85,9101,6,85,35,20,767,700.0,633,458,60,120.0,80,1,270,156,58,0,0,674,24,-2345,699,,,,,,,,,,,,
57223,1560695551386,18,2.28,1.98,3.45,1.78,5.04,0.86,0.24,-0.1,2,2,2,0.9,9040,6,85,35,20,768,690.0,635,456,60,120.0,80,1,270,156,58,0,0,668,-2830,-2345,688,,,,,,,,,,,,
57243,1560695551406,18,2.28,2.03,3.45,1.79,5.07,0.97,0.22,-0.08,1,-3,1,1.0,9001,6,85,35,20,770,679.0,636,457,60,120.0,77,1,270,156,53,0,0,661,-2345,-2345,676,45.701698,4.911578,69.87,195.3,0,0.0,0,0.0,0.5567,1,0.41,0.954
57263,1560695551426,14,2.28,2.01,3.45,1.78,5.05,1.04,0.18,-0.03,1,-1,1,1.06,8915,6,85,35,20,776,672.0,630,457,60,120.0,77,1,270,156,53,0,0,649,-2830,11566,674,,,,,,,,,,,,
57283,1560695551446,19,2.28,1.98,3.48,1.77,5.04,0.97,0.29,-0.05,2,-2,1,1.01,8769,6,85,35,19,787,674.0,633,458,60,120.0,77,1,270,150,53,0,0,647,-10344,-2830,674,,,,,,,,,,,,
57303,1560695551466,18,2.28,1.98,3.54,1.78,5.08,0.85,0.39,-0.09,2,-0,1,0.94,8688,6,85,35,19,794,668.0,629,461,60,120.0,77,1,270,150,53,0,0,636,-3578,-2580,668,,,,,,,,,,,,
57323,1560695551486,17,2.27,1.99,3.59,1.78,5.04,0.88,0.33,-0.02,2,-3,2,0.94,8522,6,85,35,19,800,665.0,630,460,60,122.0,77,1,270,150,53,0,0,619,-2345,30721,665,,,,,,,,,,,,
57343,1560695551504,17,2.27,1.98,3.58,1.78,5.06,0.88,0.35,-0.09,2,-2,0,0.94,8314,6,85,35,19,821,658.0,628,461,60,122.0,71,1,270,147,47,0,0,607,31988,28675,658,45.701683,4.911597,67.17,195.3,0,0.0,0,0.0,0.5583,1,0.41,0.9557
57363,1560695551524,16,2.27,1.96,3.54,1.77,5.05,0.93,0.26,-0.04,2,-1,-1,0.96,8123,6,85,35,20,836,659.0,618,460,60,122.0,71,1,270,148,47,0,0,607,-2830,28675,659,,,,,,,,,,,,
57383,1560695551544,15,2.28,1.95,3.51,1.78,5.06,0.97,0.3,-0.18,1,-1,0,1.02,8061,6,85,35,21,856,655.0,611,460,60,120.0,71,1,270,150,47,0,0,607,4909,19621,655,,,,,,,,,,,,
57403,1560695551564,17,2.27,1.93,3.49,1.78,5.04,1.02,0.22,-0.14,1,-1,2,1.04,8099,6,85,35,21,866,648.0,616,462,60,121.0,71,1,270,150,47,0,0,595,-2830,8488,648,,,,,,,,,,,,
57423,1560695551584,16,2.29,1.91,3.47,1.75,5.06,1.03,0.17,-0.15,1,0,3,1.04,8029,6,85,35,22,886,642.0,606,461,60,121.0,71,1,270,151,47,0,0,587,-4876,259,642,,,,,,,,,,,,
57443,1560695551605,19,2.28,1.88,3.42,1.73,5.04,1.01,0.19,-0.22,1,1,2,1.03,7965,6,85,35,22,917,638.0,603,456,60,118.0,101,1,269,208,65,0,0,605,3,17344,638,45.701675,4.911615,64.9,195.3,0,0.0,0,0.0,0.56,1,0.41,0.9574
57463,1560695551625,20,2.29,1.84,3.46,1.71,5.07,1.07,0.14,-0.22,2,2,3,1.08,7995,6,85,35,21,929,633.0,597,459,60,120.0,101,1,269,191,65,0,0,585,20993,5344,633,,,,,,,,,,,,
57483,1560695551645,16,2.28,1.84,3.52,1.72,5.08,1.1,0.07,-0.15,2,2,2,1.11,7992,6,85,35,20,942,623.0,597,456,60,120.0,101,1,269,172,65,0,0,563,-18357,-28648,623,,,,,,,,,,,,
57503,1560695551665,16,2.29,1.84,3.54,1.71,5.08,1.14,0.12,-0.17,1,2,1,1.14,7908,6,85,35,20,950,620.0,600,457,60,119.0,101,1,269,159,65,0,0,562,-28304,23619,619,,,,,,,,,,,,
57523,1560695551685,17,2.28,1.85,3.53,1.7,5.05,1.13,0.17,-0.26,1,2,2,1.14,7832,6,85,35,20,955,615.0,598,460,60,120.0,101,1,268,147,65,0,0,564,28675,243,615,,,,,,,,,,,,
57543,1560695551705,17,2.28,1.86,3.49,1.7,5.05,1.03,0.13,-0.28,2,3,2,1.04,7747,5,85,35,20,958,608.0,591,457,60,119.0,68,1,267,145,42,0,0,576,-23055,2048,608,45.701664,4.911633,62.36,195.2,0,0.0,0,0.0,0.5617,1,0.41,0.959
57563,1560695551725,13,2.28,1.87,3.51,1.7,5.08,1.0,0.02,-0.17,3,1,2,1.0,7789,5,85,35,20,953,601.0,589,464,60,120.0,68,1,267,145,42,0,0,569,-768,-8188,599,,,,,,,,,,,,
57583,1560695551745,11,2.27,1.86,3.52,1.71,5.08,1.1,-0.09,-0.08,2,0,0,1.1,7763,5,85,35,20,938,595.0,596,458,60,120.0,68,1,267,145,42,0,0,559,-16179,-29984,591,,,,,,,,,,,,
57603,1560695551765,14,2.26,1.86,3.52,1.71,5.06,1.19,-0.04,0.04,1,0,0,1.19,7668,5,85,35,20,894,590.0,590,460,60,119.0,68,1,266,145,42,0,0,568,-1894,-3190,586,,,,,,,,,,,,
57623,1560695551785,13,2.25,1.86,3.52,1.73,5.07,1.23,0.02,0.08,-0,-3,-2,1.23,7609,5,85,35,20,869,585.0,581,460,60,118.0,68,1,266,145,42,0,0,556,-25872,-8186,584,,,,,,,,,,,,
57643,1560695551805,13,2.27,1.86,3.46,1.73,5.05,1.26,0.12,-0.03,-1,-3,-1,1.26,7524,5,85,35,20,839,580.0,576,457,60,119.0,70,1,265,145,41,0,0,560,1,-28648,581,45.701656,4.91165,59.41,195.2,0,0.0,0,0.0,0.5633,1,0.42,0.9607
57663,1560695551825,12,2.27,1.87,3.41,1.73,5.04,1.3,0.14,-0.01,-1,-3,-0,1.31,7494,5,85,35,20,814,575.0,568,459,60,119.0,70,1,264,145,41,0,0,564,259,-506,574,,,,,,,,,,,,
57683,1560695551845,12,2.26,1.86,3.42,1.71,5.06,1.36,0.15,0.03,-1,-2,-1,1.37,7461,5,85,36,21,802,571.0,562,455,60,119.0,70,1,264,148,41,0,0,545,-3190,-30064,568,,,,,,,,,,,,
57703,1560695551865,10,2.27,1.83,3.42,1.71,5.05,1.37,0.15,0.05,-2,-2,-2,1.38,7381,5,85,36,20,798,568.0,560,460,60,119.0,70,1,263,145,41,0,0,545,1780,-2934,568,,,,,,,,,,,,
57723,1560695551885,10,2.28,1.85,3.43,1.73,5.05,1.35,0.1,0.09,-2,-4,-0,1.35,7318,5,85,36,20,813,567.0,560,461,60,119.0,70,1,263,145,41,0,0,540,2211,-9072,567,,,,,,,,,,,,
57743,1560695551907,12,2.29,1.84,3.42,1.75,5.04,1.38,0.02,0.2,-1,-3,3,1.38,7256,5,85,36,20,844,563.0,554,458,60,119.0,70,1,262,145,40,0,0,538,-9072,1779,559,45.701645,4.911665,57.31,195.2,0,0.0,0,0.0,0.565,1,0.42,0.9624
57763,1560695551927,10,2.29,1.84,3.41,1.74,5.04,1.25,-0.04,0.22,-0,0,3,1.25,7275,5,85,36,20,879,557.0,554,460,60,120.0,70,1,262,145,40,0,0,536,-9072,2524,557,,,,,,,,,,,,
57783,1560695551947,6,2.29,1.84,3.42,1.72,5.06,1.1,-0.05,0.18,1,2,1,1.1,7250,5,85,36,21,905,555.0,555,460,60,119.0,70,1,262,148,40,0,0,531,-32248,-22519,555,,,,,,,,,,,,
57803,1560695551967,5,2.29,1.84,3.41,1.78,5.04,1.07,0.02,0.15,2,-0,-0,1.07,7250,5,85,36,21,922,549.0,553,460,60,119.0,70,1,262,148,40,0,0,529,2524,1780,551,,,,,,,,,,,,
57823,1560695551987,2,2.29,1.85,3.41,1.76,5.06,1.11,0.05,0.11,1,-1,2,1.11,7225,5,85,36,21,947,547.0,554,455,60,118.0,70,1,262,148,40,0,0,529,-8186,-32248,547,,,,,,,,,,,,
57843,1560695551999,2,2.28,1.84,3.42,1.75,5.08,1.2,-0.01,0.26,0,-2,4,1.2,7214,5,85,36,21,970,545.0,561,458,60,119.0,73,1,262,148,40,0,0,526,1780,6274,545,45.701637,4.91168,54.85,195.1,0,0.0,0,0.0,0.5667,1,0.42,0.964
57863,1560695552019,4,2.28,1.85,3.38,1.77,5.04,1.14,-0.04,0.29,0,-1,4,1.14,7194,5,85,36,21,1000,541.0,556,458,60,120.0,73,1,261,148,40,0,0,531,-8186,2524,541,,,,,,,,,,,,
57883,1560695552039,1,2.28,1.86,3.35,1.77,5.06,1.02,-0.02,0.24,1,-1,3,1.02,7137,5,85,36,21,1017,540.0,550,456,60,120.0,73,1,261,148,40,0,0,529,-2934,2524,540,,,,,,,,,,,,
57903,1560695552059,1,2.26,1.87,3.35,1.76,5.05,1.02,0.09,0.23,1,-2,2,1.02,7153,5,85,36,21,1030,535.0,547,460,60,119.0,73,1,261,148,40,0,0,528,6274,2524,535,,,,,,,,,,,,
57923,1560695552079,1,2.26,1.88,3.35,1.76,5.04,1.08,0.09,0.28,0,-1,2,1.08,7148,5,85,36,21,1038,533.0,543,458,60,119.0,73,1,261,148,40,0,0,522,14504,-8187,533,,,,,,,,,,,,
57943,1560695552105,3,2.25,1.9,3.35,1.76,5.07,1.15,0.0,0.31,-0,-2,2,1.15,7091,5,85,36,21,1053,532.0,542,457,60,119.0,73,1,260,148,39,0,0,524,-22519,15679,531,45.701626,4.911696,52.88,195.1,0,0.0,0,0.0,0.5683,1,0.42,0.9657
57963,1560695552125,2,2.26,1.92,3.35,1.76,5.08,1.0,0.07,0.16,1,2,3,1.0,7067,5,85,36,21,1050,530.0,541,457,60,120.0,73,1,260,148,39,0,0,520,2524,-9212,526,,,,,,,,,,,,
57983,1560695552145,1,2.26,1.92,3.34,1.75,5.08,1.04,0.11,0.29,0,0,1,1.04,7004,5,85,36,21,1041,529.0,538,462,60,118.0,73,1,260,148,39,0,0,520,-9072,-3482,524,,,,,,,,,,,,
58003,1560695552165,6,2.26,1.92,3.34,1.74,5.08,1.06,0.01,0.34,-0,-1,-1,1.06,6985,5,85,36,21,1007,526.0,533,453,60,120.0,73,1,260,147,39,0,0,519,-32248,-4054,524,,,,,,,,,,,,
58023,1560695552185,4,2.26,1.94,3.34,1.74,5.04,1.0,0.01,0.23,1,1,-1,1.0,6988,5,85,36,21,949,523.0,534,457,60,120.0,73,1,260,147,39,0,0,509,-22519,-21872,520,,,,,,,,,,,,
58043,1560695552205,4,2.27,1.93,3.34,1.72,5.04,0.98,0.03,0.26,0,3,0,0.98,6934,5,85,36,21,904,519.0,536,457,60,119.0,73,1,260,147,38,0,0,512,-22519,10994,518,45.701618,4.911709,51.59,195.2,0,0.0,0,0.0,0.57,1,0.42,0.9674
58063,1560695552225,5,2.26,1.93,3.35,1.72,5.08,1.08,-0.08,0.36,-0,1,0,1.09,6893,5,85,36,21,872,520.0,535,460,60,120.0,73,1,260,147,38,0,0,504,-8187,-3856,517,,,,,,,,,,,,
58083,1560695552245,2,2.27,1.94,3.34,1.73,5.08,0.93,0.04,0.24,0,3,-0,0.93,6865,5,85,36,21,831,518.0,532,460,60,118.0,73,1,260,147,38,0,0,506,15679,-4054,516,,,,,,,,,,,,
58103,1560695552265,6,2.28,1.96,3.3,1.73,5.04,1.04,-0.03,0.34,-1,1,-1,1.04,6838,5,85,36,22,792,517.0,530,461,60,119.0,73,1,260,146,38,0,0,504,15679,2109,512,,,,,,,,,,,,
58123,1560695552285,2,2.27,1.99,3.28,1.74,5.04,0.97,0.15,0.22,1,3,-2,0.98,6818,5,85,36,22,782,511.0,530,459,60,120.0,73,1,260,149,38,0,0,504,-4054,-9216,507,,,,,,,,,,,,
58143,1560695552306,7,2.26,1.98,3.28,1.77,5.04,1.01,0.04,0.34,0,1,-2,1.01,6825,5,85,36,22,785,508.0,528,457,60,119.0,75,1,260,149,38,0,0,498,-3414,11560,505,45.701611,4.911723,50.21,195.2,0,0.0,0,0.0,0.5717,1,0.42,0.969
58163,1560695552326,0,2.27,1.99,3.29,1.79,5.06,1.04,0.04,0.32,1,1,-0,1.04,6795,5,85,36,22,800,505.0,528,458,60,120.0,75,1,260,149,38,0,0,499,6274,771,504,,,,,,,,,,,,
58183,1560695552346,6,2.26,1.99,3.3,1.82,5.08,1.04,-0.02,0.4,0,1,0,1.04,6720,5,85,36,22,824,503.0,521,459,60,119.0,75,1,261,149,38,0,0,491,11560,2109,503,,,,,,,,,,,,
58203,1560695552366,2,2.26,1.99,3.31,1.81,5.08,0.95,0.1,0.3,0,2,1,0.95,6627,5,85,36,22,840,499.0,519,458,60,120.0,75,1,261,148,38,0,0,490,2524,998,499,,,,,,,,,,,,
58223,1560695552386,8,2.26,1.99,3.31,1.8,5.04,1.05,-0.04,0.41,-0,-2,1,1.06,6585,5,85,36,23,851,498.0,516,459,60,120.0,75,1,262,148,38,0,0,488,2524,-1562,496,,,,,,,,,,,,
58243,1560695552405,7,2.26,1.98,3.35,1.78,5.05,0.97,-0.01,0.37,0,-2,-0,0.97,6588,5,85,36,23,868,494.0,512,457,60,119.0,74,1,262,151,37,0,0,481,-6528,32033,492,45.701603,4.911736,49.02,195.2,0,0.0,0,0.0,0.5733,1,0.42,0.9707
58263,1560695552425,4,2.27,1.96,3.38,1.78,5.07,0.97,0.0,0.32,-0,-2,-1,0.97,6560,5,85,36,23,887,494.0,509,457,60,120.0,74,1,262,151,37,0,0,477,-6528,8488,489,,,,,,,,,,,,
58283,1560695552445,7,2.28,1.99,3.41,1.8,5.04,1.03,-0.06,0.38,-1,-3,-1,1.03,6517,5,85,36,23,901,492.0,509,463,60,119.0,74,1,263,151,37,0,0,475,-32768,16648,489,,,,,,,,,,,,
58303,1560695552465,8,2.29,2.04,3.4,1.84,5.04,1.0,-0.01,0.37,-0,-3,-2,1.0,6441,5,85,36,23,905,486.0,506,455,60,119.0,74,1,263,151,37,0,0,477,-1562,8488,486,,,,,,,,,,,,
58323,1560695552485,3,2.3,2.02,3.4,1.83,5.03,1.0,-0.02,0.28,0,-1,-2,1.0,6403,5,85,36,23,902,485.0,498,455,60,120.0,74,1,263,154,37,0,0,476,-10483,-9203,487,,,,,,,,,,,,
58343,1560695552505,1,2.31,2.01,3.37,1.84,5.05,1.01,-0.18,0.28,0,-2,-0,1.03,6371,5,85,36,24,891,484.0,498,460,60,120.0,74,1,265,154,36,0,0,471,32033,8488,483,45.701595,4.911749,48.06,195.2,0,0.0,0,0.0,0.575,1,0.43,0.9724
58363,1560695552525,5,2.31,2.0,3.38,1.85,5.04,1.0,-0.17,0.33,1,-2,1,1.01,6368,5,85,36,24,879,482.0,496,464,60,120.0,74,1,265,154,36,0,0,467,16648,32033,482,,,,,,,,,,,,
58383,1560695552545,5,2.32,2.0,3.37,1.87,5.05,0.99,-0.16,0.33,2,-2,3,1.0,6371,5,85,36,24,863,479.0,500,463,60,118.0,74,1,265,154,36,0,0,464,-1923,8488,479,,,,,,,,,,,,
58403,1560695552565,0,2.31,2.0,3.37,1.87,5.04,0.99,-0.09,0.33,2,-2,4,0.99,6360,5,85,36,24,852,477.0,503,453,60,120.0,74,1,265,154,36,0,0,464,-1923,243,477,,,,,,,,,,,,
58423,1560695552585,-2,2.32,2.0,3.39,1.86,5.06,1.08,-0.18,0.33,1,-3,4,1.09,6328,5,85,36,24,849,475.0,498,455,60,120.0,74,1,265,154,36,0,0,460,8488,2211,475,,,,,,,,,,,,
58443,1560695552604,1,2.32,1.99,3.38,1.87,5.08,0.97,-0.16,0.34,2,-3,4,0.99,6285,5,85,36,25,847,472.0,498,462,60,119.0,75,1,268,158,36,0,0,458,243,8488,472,45.701588,4.911762,46.8,195.2,0,0.0,0,0.0,0.5767,1,0.43,0.974
58463,1560695552624,2,2.32,1.99,3.36,1.88,5.04,0.83,-0.14,0.39,4,-1,4,0.85,6214,4,85,36,25,854,474.0,492,462,60,118.0,75,1,268,158,36,0,0,461,-3210,2211,474,,,,,,,,,,,,
58483,1560695552644,3,2.34,1.97,3.36,1.9,5.08,0.74,-0.08,0.36,6,1,4,0.75,6206,4,85,36,25,865,472.0,492,458,60,119.0,75,1,268,158,36,0,0,463,30272,2211,472,,,,,,,,,,,,
58503,1560695552664,5,2.33,1.95,3.37,1.92,5.04,0.77,-0.13,0.3,7,3,6,0.78,6220,4,85,36,25,882,469.0,491,457,60,120.0,75,1,268,158,36,0,0,457,-23623,16408,469,,,,,,,,,,,,
58523,1560695552684,0,2.34,1.95,3.38,1.95,5.03,0.83,-0.21,0.34,6,4,7,0.85,6239,4,85,36,25,899,468.0,492,461,60,120.0,75,1,268,158,36,0,0,454,-18108,16408,469,,,,,,,,,,,,
58543,1560695552704,0,2.33,1.95,3.4,1.97,5.07,0.95,-0.3,0.32,4,2,8,0.99,6105,4,85,36,25,904,469.0,486,456,60,118.0,76,1,269,158,36,0,0,463,-18108,8488,469,45.701576,4.911774,45.65,195.2,0,0.0,0,0.0,0.5783,1,0.43,0.9757
58563,1560695552724,4,2.33,1.96,3.37,2.0,5.05,0.97,-0.21,0.24,4,6,11,1.0,5971,4,85,36,25,912,470.0,480,455,60,120.0,76,1,269,158,36,0,0,457,-9160,243,473,,,,,,,,,,,,
58583,1560695552744,3,2.33,1.97,3.36,2.02,5.07,1.08,-0.36,0.22,2,7,10,1.14,5868,4,85,36,26,925,469.0,473,448,60,120.0,76,1,270,159,36,0,0,454,-9160,-23623,469,,,,,,,,,,,,
58603,1560695552764,4,2.32,1.94,3.36,2.01,5.04,1.17,-0.3,0.16,2,10,15,1.21,5742,4,85,36,26,938,462.0,467,461,60,120.0,76,1,269,159,36,0,0,426,3571,1779,462,,,,,,,,,,,,
58623,1560695552784,2,2.33,1.91,3.4,1.98,5.04,1.1,-0.28,0.18,5,9,17,1.13,6000,4,85,36,27,944,460.0,466,463,60,119.0,76,1,275,160,36,0,0,444,15649,-6387,458,,,,,,,,,,,,
58643,1560695552804,4,2.32,1.91,3.42,1.96,5.07,0.99,-0.26,0.12,6,16,16,1.02,6001,4,85,36,27,943,456.0,469,460,60,121.0,78,1,275,160,36,0,0,417,16648,-3414,456,45.701572,4.911786,44.86,195.3,0,0.0,0,0.0,0.58,1,0.43,0.9774
58663,1560695552824,1,2.32,1.91,3.44,1.96,5.08,1.04,-0.34,0.07,7,15,15,1.1,6186,4,85,36,27,929,456.0,478,460,60,121.0,78,1,275,160,36,0,0,423,16648,-3314,454,,,,,,,,,,,,
58683,1560695552844,-0,2.32,1.92,3.42,1.97,5.04,1.13,-0.51,0.15,6,12,14,1.24,6279,4,85,36,26,913,450.0,483,460,60,121.0,78,1,271,159,36,0,0,433,23400,13180,450,,,,,,,,,,,,
58703,1560695552864,2,2.32,1.92,3.42,1.97,5.07,1.13,-0.52,0.14,6,11,16,1.24,6401,4,85,36,26,892,446.0,496,457,60,120.0,78,1,269,159,36,0,0,423,-28332,3826,447,,,,,,,,,,,,
58723,1560695552884,0,2.31,1.92,3.44,1.96,5.04,1.01,-0.31,0.02,6,8,15,1.06,6611,4,85,36,26,876,444.0,505,456,60,120.0,78,1,267,159,36,0,0,419,-7939,31796,444,,,,,,,,,,,,
58743,1560695552904,2,2.3,1.91,3.39,1.96,5.03,1.11,-0.32,0.21,5,6,16,1.16,6682,4,85,36,26,855,441.0,510,459,60,120.0,90,1,267,158,40,0,0,418,243,13040,441,45.701565,4.911797,43.66,195.3,0,0.0,0,0.0,0.5817,1,0.43,0.979
58763,1560695552924,0,2.3,1.91,3.41,1.93,5.04,0.97,-0.33,0.15,6,7,13,1.02,6805,5,85,36,25,840,436.0,516,461,60,119.0,90,1,262,158,40,0,0,420,13180,-8165,436,,,,,,,,,,,,
58783,1560695552944,4,2.3,1.92,3.41,1.95,5.03,1.07,-0.27,0.2,6,4,10,1.1,6888,5,85,36,25,843,434.0,523,459,60,120.0,90,1,262,158,40,0,0,407,13180,13040,434,,,,,,,,,,,,
58803,1560695552964,2,2.3,1.93,3.42,1.97,5.04,1.08,-0.33,0.25,6,4,9,1.13,7051,5,85,36,25,848,431.0,530,462,60,120.0,90,1,260,158,40,0,0,409,-3414,-21944,431,,,,,,,,,,,,
58823,1560695552984,1,2.3,1.92,3.45,1.94,5.08,0.91,-0.31,0.03,6,5,9,0.96,7156,5,85,36,24,862,427.0,539,455,60,119.0,90,1,261,155,40,0,0,406,-8165,11560,427,,,,,,,,,,,,
58843,1560695553000,-1,2.31,1.92,3.45,1.92,5.06,1.01,-0.2,0.03,5,3,10,1.03,7284,7,85,36,24,886,424.0,547,463,60,119.0,98,1,262,155,42,0,0,402,7154,6384,424,45.701557,4.911808,42.45,195.3,0,0.0,0,0.0,0.5833,1,0.43,0.9807
58863,1560695553020,-0,2.32,1.92,3.45,1.91,5.06,1.11,-0.17,0.13,3,1,11,1.12,7376,8,85,36,23,902,420.0,554,458,60,119.0,98,1,263,153,42,0,0,402,-26615,28696,420,,,,,,,,,,,,
58883,1560695553040,0,2.32,1.92,3.43,1.89,5.04,1.16,-0.15,0.19,3,2,8,1.16,7446,10,85,36,23,914,417.0,557,458,60,120.0,98,1,264,153,42,0,0,393,2524,-1818,417,,,,,,,,,,,,
58903,1560695553060,0,2.33,1.91,3.38,1.89,5.03,1.24,-0.1,0.18,2,-1,5,1.25,7548,13,85,36,24,926,415.0,567,458,60,119.0,98,1,265,155,42,0,0,406,11560,6512,416,,,,,,,,,,,,
58923,1560695553080,1,2.33,1.92,3.39,1.89,5.07,1.29,-0.06,0.15,2,-3,6,1.3,7606,14,85,36,24,938,412.0,572,458,60,119.0,98,1,266,155,42,0,0,398,2524,-26615,412,,,,,,,,,,,,
58943,1560695553106,1,2.32,1.92,3.47,1.89,5.05,1.3,0.01,0.21,1,-2,7,1.3,7646,15,85,36,25,936,410.0,577,461,60,118.0,109,1,266,158,45,0,0,391,10541,17144,410,45.70155,4.911819,40.86,195.2,0,0.0,0,0.0,0.585,1,0.43,0.9824
58963,1560695553126,3,2.32,1.96,3.44,1.93,5.06,1.2,0.08,0.26,1,-3,6,1.21,7609,15,85,36,26,930,411.0,581,457,60,119.0,109,1,269,159,45,0,0,402,-8151,-8151,411,,,,,,,,,,,,
58983,1560695553146,2,2.32,1.99,3.42,1.94,5.06,1.1,0.1,0.26,1,-4,6,1.1,7536,15,85,36,27,920,406.0,586,458,60,119.0,109,1,272,160,45,0,0,401,6512,28696,406,,,,,,,,,,,,
59003,1560695553166,1,2.34,2.02,3.41,2.0,5.08,1.02,0.1,0.2,1,-4,7,1.02,7524,15,85,36,27,912,405.0,578,460,60,120.0,109,1,272,160,45,0,0,398,6512,1504,405,,,,,,,,,,,,
59023,1560695553186,0,2.35,2.02,3.35,2.01,5.04,0.93,0.12,0.24,1,-6,7,0.94,7446,16,85,36,28,908,405.0,578,457,60,120.0,109,1,275,162,45,0,0,395,6384,6512,404,,,,,,,,,,,,
59043,1560695553206,1,2.35,1.99,3.34,1.98,5.04,0.89,0.17,0.25,1,-7,6,0.9,7413,16,85,36,28,903,404.0,573,460,60,120.0,111,1,275,162,45,0,0,395,6384,11545,404,45.701542,4.911829,39.02,195.3,0,0.0,0,0.0,0.5867,1,0.43,0.984
59063,1560695553226,-0,2.36,1.98,3.35,1.98,5.04,0.91,0.18,0.24,2,-7,7,0.93,7411,16,85,36,29,904,405.0,571,455,60,120.0,111,1,278,163,45,0,0,397,-32702,11545,405,,,,,,,,,,,,
59083,1560695553246,-0,2.38,1.98,3.36,2.01,5.07,0.98,0.14,0.28,2,-9,8,0.98,7358,16,85,36,29,906,405.0,568,458,60,120.0,111,1,278,163,45,0,0,390,-1818,6512,405,,,,,,,,,,,,
59103,1560695553266,1,2.39,1.97,3.4,2.01,5.04,1.08,0.09,0.39,2,-9,8,1.08,7384,16,85,36,30,909,405.0,566,458,60,121.0,111,1,282,165,45,0,0,389,505,17144,405,,,,,,,,,,,,
59123,1560695553286,3,2.4,1.96,3.43,2.02,5.04,1.17,0.01,0.55,3,-9,7,1.17,7344,17,85,37,30,914,406.0,562,458,60,121.0,111,1,282,165,45,0,0,386,-6524,6384,406,,,,,,,,,,,,
59143,1560695553306,2,2.41,1.98,3.47,2.1,5.05,1.18,-0.11,0.58,4,-9,6,1.18,7350,17,85,37,31,922,404.0,561,461,60,121.0,114,1,286,166,46,0,0,386,240,28696,404,45.701538,4.911839,38.99,195.2,0,0.0,0,0.0,0.5883,1,0.44,0.9857
59163,1560695553326,4,2.4,1.99,3.56,2.13,5.04,1.14,-0.28,0.56,5,-8,8,1.18,7301,17,85,37,31,935,405.0,559,460,60,121.0,114,1,286,166,46,0,0,381,-6475,-3968,405,,,,,,,,,,,,
59183,1560695553346,2,2.41,1.98,3.52,2.11,5.08,1.01,-0.32,0.49,7,-3,12,1.05,7332,17,85,37,32,942,404.0,558,457,60,121.0,114,1,290,168,46,0,0,381,-6475,11545,403,,,,,,,,,,,,
59203,1560695553366,1,2.42,1.98,3.47,2.11,5.08,0.8,-0.28,0.48,9,-2,11,0.85,7281,17,85,37,32,947,402.0,557,459,60,121.0,114,1,290,168,46,0,0,381,-19019,28696,403,,,,,,,,,,,,
59223,1560695553386,2,2.4,1.97,3.47,2.12,5.06,0.77,-0.24,0.46,9,-5,11,0.8,7321,17,85,37,33,951,402.0,556,458,60,120.0,114,1,292,173,46,0,0,379,-19126,-3968,401,,,,,,,,,,,,
59243,1560695553406,-2,2.41,1.95,3.48,2.11,5.07,0.81,-0.23,0.35,9,-4,12,0.84,7290,18,85,37,33,956,401.0,563,457,60,120.0,119,1,292,173,48,0,0,379,-992,6384,401,45.701527,4.911848,38.56,195.2,0,0.0,0,0.0,0.59,1,0.44,0.9874
59263,1560695553426,-0,2.41,1.96,3.46,2.12,5.04,0.93,-0.27,0.39,9,-6,14,0.97,7275,19,85,37,34,960,402.0,560,460,60,120.0,119,1,295,178,48,0,0,380,-992,-3968,402,,,,,,,,,,,,
59283,1560695553446,4,2.41,1.96,3.44,2.12,5.04,1.04,-0.3,0.51,9,-5,16,1.08,7290,20,85,37,35,960,402.0,560,457,60,120.0,119,1,298,178,48,0,0,378,-992,28696,402,,,,,,,,,,,,
59303,1560695553466,3,2.41,1.96,3.47,2.13,5.08,0.9,-0.31,0.53,11,-2,14,0.96,7275,21,85,37,35,961,400.0,560,460,60,121.0,119,1,298,189,48,0,0,379,8200,-3968,400,,,,,,,,,,,,
59323,1560695553486,1,2.41,1.96,3.47,2.14,5.06,0.76,-0.37,0.48,12,-1,13,0.85,7287,22,85,37,37,964,399.0,563,461,60,121.0,119,1,304,195,48,0,0,377,2278,505,399,,,,,,,,,,,,
59343,1560695553506,2,2.41,1.96,3.44,2.14,5.04,0.62,-0.38,0.35,13,1,15,0.73,7273,23,85,37,38,967,398.0,561,460,60,121.0,135,1,307,201,54,0,0,377,2278,-32702,398,45.701519,4.911857,37.87,195.1,0,0.0,0,0.0,0.5917,1,0.44,0.989
59363,1560695553526,1,2.43,1.96,3.43,2.14,5.06,0.58,-0.31,0.26,14,0,19,0.65,7315,24,85,37,39,969,399.0,562,460,60,120.0,135,1,310,207,54,0,0,377,-6656,11545,399,,,,,,,,,,,,
59383,1560695553546,-0,2.42,1.96,3.44,2.15,5.08,0.72,-0.32,0.38,13,-4,19,0.79,7312,25,85,37,41,973,398.0,557,461,60,119.0,135,1,325,210,54,0,0,376,770,17144,398,,,,,,,,,,,,
59403,1560695553566,-1,2.42,1.94,3.44,2.13,5.08,0.85,-0.31,0.46,12,-6,16,0.91,7329,26,85,37,42,977,398.0,555,457,60,120.0,135,1,332,212,54,0,0,374,742,505,398,,,,,,,,,,,,
59423,1560695553586,1,2.41,1.94,3.44,2.13,5.05,0.93,-0.37,0.44,12,-7,15,1.01,7393,26,85,37,43,981,399.0,555,458,60,120.0,135,1,340,214,54,0,0,374,770,6512,397,,,,,,,,,,,,
59443,1560695553605,0,2.4,1.93,3.43,2.13,5.05,1.04,-0.38,0.44,12,-8,19,1.11,7411,27,85,37,44,982,397.0,560,460,60,121.0,151,1,347,216,60,0,0,375,742,-3968,397,45.701511,4.911865,37.97,195.1,0,0.0,0,0.0,0.5933,1,0.44,0.9907
59463,1560695553625,0,2.4,1.93,3.44,2.12,5.05,1.14,-0.38,0.53,11,-6,20,1.2,7485,29,85,37,45,984,398.0,558,459,60,120.0,151,1,355,218,60,0,0,374,770,-1818,397,,,,,,,,,,,,
59483,1560695553645,0,2.39,1.93,3.44,2.12,5.05,1.21,-0.34,0.61,11,-6,18,1.26,7527,30,85,37,46,988,397.0,565,457,60,121.0,151,1,362,220,60,0,0,374,3,505,397,,,,,,,,,,,,
59503,1560695553665,1,2.4,1.93,3.43,2.12,5.04,1.21,-0.34,0.56,11,-6,15,1.26,7637,31,85,37,48,993,395.0,571,458,60,120.0,151,1,372,227,60,0,0,376,3,-6656,395,,,,,,,,,,,,
59523,1560695553685,0,2.39,1.96,3.44,2.1,5.05,1.26,-0.29,0.52,11,-7,16,1.29,7700,32,85,37,49,996,394.0,580,460,60,120.0,151,1,375,227,60,0,0,377,3,505,394,,,,,,,,,,,,
59543,1560695553705,2,2.38,1.99,3.45,2.13,5.03,1.22,-0.29,0.52,11,-5,18,1.26,7722,32,85,37,49,998,394.0,582,462,60,120.0,172,1,375,233,68,0,0,377,770,505,394,45.701504,4.911873,37.22,195.1,0,0.0,0,0.0,0.595,1,0.44,0.9924
59563,1560695553725,4,2.36,2.03,3.44,2.11,5.05,1.1,-0.26,0.61,11,-5,18,1.13,7719,32,85,37,49,1008,395.0,586,456,60,121.0,172,1,375,239,68,0,0,386,770,6384,395,,,,,,,,,,,,
59583,1560695553745,2,2.37,2.12,3.42,2.16,5.06,0.93,-0.31,0.63,11,-4,16,0.98,7634,32,85,37,50,1018,396.0,583,459,60,120.0,172,1,378,238,68,0,0,398,2278,11545,396,,,,,,,,,,,,
59603,1560695553765,4,2.35,2.21,3.33,2.21,5.04,0.81,-0.29,0.53,11,-2,17,0.86,7515,32,85,37,51,1028,397.0,579,458,60,121.0,172,1,381,243,68,0,0,398,8200,6512,397,,,,,,,,,,,,
59623,1560695553785,1,2.34,2.28,3.25,2.22,5.07,0.62,-0.25,0.47,11,-0,17,0.67,7304,32,85,37,52,1034,397.0,565,457,60,121.0,172,1,384,248,68,0,0,394,-6475,11545,397,,,,,,,,,,,,
59643,1560695553805,0,2.32,2.29,3.25,2.19,5.06,0.74,-0.17,0.55,10,-3,15,0.76,7161,33,85,37,53,1062,396.0,551,461,60,120.0,169,1,387,251,67,0,0,392,240,-3968,396,45.701496,4.91188,37.03,195.1,0,0.0,0,0.0,0.5967,1,0.44,0.994
59663,1560695553825,-1,2.32,2.26,3.23,2.16,5.04,0.87,-0.28,0.65,8,-4,14,0.92,7118,33,85,37,55,1086,396.0,546,457,60,120.0,169,1,395,257,67,0,0,391,-31744,17144,396,,,,,,,,,,,,
59683,1560695553845,4,2.31,2.26,3.23,2.15,5.04,0.85,-0.33,0.61,9,-4,15,0.92,7151,33,85,37,56,1102,397.0,544,460,60,121.0,169,1,400,262,67,0,0,388,-31744,-1818,397,,,,,,,,,,,,
59703,1560695553865,3,2.31,2.23,3.26,2.14,5.04,0.64,-0.25,0.53,10,-1,15,0.69,7247,33,85,37,56,1118,396.0,546,457,60,121.0,169,1,401,269,67,0,0,385,-31744,1,396,,,,,,,,,,,,
59723,1560695553885,1,2.31,2.21,3.31,2.1,5.06,0.51,-0.2,0.5,11,-2,13,0.55,7287,34,85,37,57,1134,397.0,553,465,60,120.0,169,1,407,275,67,0,0,388,-6524,17144,397,,,,,,,,,,,,
59743,1560695553907,3,2.31,2.19,3.34,2.12,5.04,0.53,-0.18,0.48,10,-3,12,0.56,7411,34,85,37,57,1154,397.0,555,461,60,120.0,190,1,408,276,76,0,0,390,-1562,-32702,397,45.701488,4.911887,38.04,195.1,0,0.0,0,0.0,0.5983,1,0.44,0.9957
59763,1560695553927,4,2.31,2.18,3.34,2.16,5.08,0.49,-0.11,0.43,10,-2,13,0.5,7515,34,85,37,57,1164,397.0,565,457,60,120.0,190,1,410,277,76,0,0,391,-1562,-3968,397,,,,,,,,,,,,
59783,1560695553947,4,2.32,2.19,3.31,2.18,5.06,0.39,-0.07,0.35,10,0,14,0.39,7687,34,85,37,57,1169,398.0,570,458,60,120.0,190,1,411,278,76,0,0,394,-6524,11545,398,,,,,,,,,,,,
59803,1560695553967,4,2.34,2.19,3.26,2.17,5.06,0.23,-0.12,0.43,10,1,13,0.26,7706,30,85,37,55,1177,399.0,577,455,60,121.0,190,1,397,268,76,0,0,398,505,10541,399,,,,,,,,,,,,
59823,1560695553987,-0,2.34,2.19,3.24,2.17,5.04,0.16,-0.14,0.47,11,1,11,0.21,7760,23,85,37,52,1188,401.0,585,456,60,120.0,190,1,384,251,76,0,0,405,-1818,-26615,402,,,,,,,,,,,,
59843,1560695553999,1,2.33,2.2,3.25,2.19,5.05,0.26,-0.24,0.49,11,1,11,0.36,7674,16,85,37,48,1192,403.0,586,458,60,120.0,176,1,372,227,71,0,0,412,-32702,-9211,403,45.701477,4.911893,38.24,195.1,0,0.0,0,0.0,0.6,1,0.44,0.9974
59863,1560695554019,-0,2.33,2.2,3.22,2.2,5.04,0.44,-0.31,0.59,9,-0,12,0.53,7597,11,86,37,44,1194,404.0,580,461,60,121.0,176,1,347,216,71,0,0,412,-3968,10392,404,,,,,,,,,,,,
59883,1560695554039,1,2.32,2.19,3.2,2.19,5.05,0.47,-0.32,0.68,8,1,10,0.57,7428,9,86,37,40,1192,407.0,572,458,60,120.0,176,1,317,208,71,0,0,406,10541,-4059,407,,,,,,,,,,,,
59903,1560695554059,6,2.32,2.17,3.21,2.16,5.05,0.55,-0.38,0.69,8,-1,10,0.68,7327,8,86,37,37,1187,409.0,567,455,60,121.0,176,1,304,195,71,0,0,406,11545,10392,409,,,,,,,,,,,,
59923,1560695554079,5,2.32,2.14,3.22,2.12,5.07,0.48,-0.38,0.66,8,2,11,0.61,7211,8,86,37,34,1182,408.0,568,458,60,121.0,176,1,295,184,71,0,0,403,10541,10392,408,,,,,,,,,,,,
59943,1560695554105,4,2.3,2.14,3.23,2.1,5.04,0.4,-0.28,0.55,8,2,13,0.49,7192,8,86,37,33,1175,409.0,556,457,60,122.0,117,1,292,173,48,0,0,399,11545,10392,409,45.701469,4.9119,38.92,195.1,0,0.0,0,0.0,0.6017,1,0.44,0.999
59963,1560695554125,2,2.3,2.14,3.23,2.09,5.04,0.56,-0.3,0.62,7,-1,11,0.64,7080,7,86,37,31,1157,406.0,547,461,60,120.0,117,1,285,166,48,0,0,398,10541,-26615,407,,,,,,,,,,,,
59983,1560695554145,8,2.3,2.13,3.27,2.08,5.07,0.56,-0.4,0.62,7,0,8,0.68,7004,7,86,37,30,1130,406.0,546,457,60,121.0,117,1,281,165,48,0,0,395,6384,10541,406,,,,,,,,,,,,
60003,1560695554165,5,2.29,2.12,3.31,2.09,5.08,0.56,-0.35,0.54,8,1,8,0.66,6931,7,86,37,29,1100,404.0,537,457,60,121.0,117,1,277,163,48,0,0,390,-32702,6384,404,,,,,,,,,,,,
60023,1560695554185,8,2.29,2.11,3.32,2.07,5.04,0.64,-0.39,0.62,6,0,9,0.75,6855,7,86,37,28,1084,400.0,529,455,60,121.0,117,1,274,162,48,0,0,386,-32702,11545,400,,,,,,,,,,,,
60043,1560695554205,4,2.28,2.1,3.33,2.05,5.05,0.65,-0.32,0.53,6,5,10,0.72,6718,7,86,37,28,1054,400.0,526,460,60,122.0,101,1,274,162,41,0,0,391,-1818,-3968,400,45.701462,4.911906,38.97,195.1,0,0.0,0,0.0,0.6033,1,0.45,1.0007
60063,1560695554225,10,2.27,2.1,3.33,2.01,5.07,0.79,-0.38,0.67,5,-0,8,0.88,6641,6,86,37,27,1013,396.0,517,457,60,121.0,101,1,271,160,41,0,0,384,-6656,-31744,396,,,,,,,,,,,,
60083,1560695554245,7,2.27,2.08,3.35,1.95,5.07,0.72,-0.24,0.53,5,1,7,0.76,6732,6,86,37,27,972,390.0,517,457,60,121.0,101,1,270,160,41,0,0,378,-6524,8200,390,,,,,,,,,,,,
60103,1560695554265,11,2.28,2.06,3.39,1.89,5.06,0.85,-0.29,0.62,4,-3,5,0.9,6870,6,86,36,27,951,385.0,522,462,60,120.0,101,1,270,160,41,0,0,358,-19019,2790,383,,,,,,,,,,,,
60123,1560695554285,7,2.27,2.06,3.39,1.86,5.06,0.74,-0.28,0.51,5,-2,4,0.79,6900,6,86,36,26,931,381.0,530,456,60,121.0,101,1,265,159,41,0,0,362,8200,-29978,378,,,,,,,,,,,,
60143,1560695554305,8,2.27,2.07,3.41,1.88,5.04,0.85,-0.18,0.42,4,-3,3,0.87,6898,6,86,36,25,889,377.0,531,464,60,120.0,108,1,262,158,41,0,0,363,742,-6640,374,45.701454,4.911912,38.31,195.1,0,0.0,0,0.0,0.605,1,0.45,1.0024
60163,1560695554325,10,2.28,2.07,3.42,1.88,5.06,0.94,-0.26,0.45,3,-5,2,0.97,6850,6,86,36,25,867,372.0,534,458,60,121.0,108,1,262,158,41,0,0,359,1,-6458,369,,,,,,,,,,,,
60183,1560695554345,8,2.28,2.07,3.41,1.88,5.05,0.88,-0.12,0.25,3,-1,4,0.89,6744,6,86,36,25,854,369.0,532,458,60,120.0,108,1,263,158,41,0,0,357,-6656,3082,367,,,,,,,,,,,,
60203,1560695554365,7,2.3,2.07,3.39,1.89,5.05,0.99,-0.26,0.31,2,-3,5,1.02,6646,6,86,36,25,845,365.0,521,460,60,121.0,108,1,264,158,41,0,0,358,-1268,-1268,365,,,,,,,,,,,,
60223,1560695554385,10,2.31,2.06,3.36,1.88,5.04,0.93,-0.23,0.38,3,-5,5,0.96,6560,6,86,36,25,838,361.0,513,457,60,120.0,108,1,265,158,41,0,0,353,-14707,3302,361,,,,,,,,,,,,
60243,1560695554405,7,2.31,2.04,3.37,1.88,5.07,0.91,-0.15,0.3,3,-4,5,0.92,6494,6,86,36,25,834,358.0,505,460,60,122.0,108,1,266,158,39,0,0,348,2060,28553,358,45.701443,4.911918,36.84,195.1,0,0.0,0,0.0,0.6067,1,0.45,1.0041
60263,1560695554425,8,2.32,1.99,3.39,1.87,5.08,0.97,-0.23,0.34,3,-5,3,0.99,6443,6,86,36,25,838,355.0,502,462,60,121.0,108,1,266,158,39,0,0,346,3183,6870,356,,,,,,,,,,,,
60283,1560695554445,7,2.32,1.97,3.38,1.88,5.05,1.02,-0.22,0.33,4,-5,2,1.04,6353,6,86,36,25,845,355.0,500,461,60,120.0,108,1,267,158,39,0,0,339,8841,3327,355,,,,,,,,,,,,
60303,1560695554465,9,2.31,1.97,3.39,1.88,5.04,1.02,-0.18,0.28,4,-6,3,1.04,6306,6,86,36,25,854,352.0,498,461,60,120.0,108,1,267,158,39,0,0,337,-10554,4838,352,,,,,,,,,,,,
60323,1560695554485,10,2.31,1.98,3.4,1.94,5.04,0.97,-0.17,0.25,5,-3,4,0.99,6247,6,86,36,25,862,349.0,496,457,60,121.0,108,1,268,159,39,0,0,335,6668,3346,349,,,,,,,,,,,,
60343,1560695554505,2,2.31,1.98,3.39,2.01,5.04,0.96,-0.14,0.21,5,-3,5,0.97,6177,6,86,36,26,869,348.0,487,453,60,121.0,105,1,272,159,37,0,0,332,13,-6528,346,45.701439,4.911923,35.14,195.1,0,0.0,0,0.0,0.6083,1,0.45,1.0057
60363,1560695554525,2,2.29,1.98,3.4,2.01,5.05,0.9,-0.18,0.17,4,-2,5,0.91,6121,6,86,36,26,876,344.0,482,456,60,122.0,105,1,272,159,37,0,0,327,13,-32559,344,,,,,,,,,,,,
60383,1560695554545,-1,2.28,1.97,3.39,1.98,5.05,0.91,-0.25,0.17,4,-2,5,0.94,6073,6,86,36,26,888,341.0,480,462,60,121.0,105,1,272,159,37,0,0,328,4838,-32559,341,,,,,,,,,,,,
60403,1560695554565,0,2.28,1.97,3.4,1.97,5.07,0.92,-0.33,0.13,2,-2,5,0.98,6058,6,86,36,26,897,340.0,478,462,60,121.0,105,1,272,159,37,0,0,326,4838,-12032,340,,,,,,,,,,,,
60423,1560695554585,-1,2.27,1.98,3.37,1.96,5.06,0.96,-0.42,0.11,1,-2,4,1.04,6050,6,86,36,26,901,337.0,479,465,60,121.0,105,1,272,159,37,0,0,324,-6528,165,337,,,,,,,,,,,,
60443,1560695554606,-0,2.27,1.98,3.38,1.92,5.08,1.0,-0.48,0.12,0,-3,3,1.11,6040,6,86,36,26,904,334.0,476,460,60,121.0,107,1,272,159,36,0,0,327,-12032,160,332,45.701427,4.911928,33.5,195.1,0,0.0,0,0.0,0.61,1,0.45,1.0074
60463,1560695554626,0,2.26,1.99,3.35,1.91,5.04,1.06,-0.53,0.19,-1,-4,2,1.18,6052,6,86,36,27,911,330.0,477,461,60,121.0,107,1,275,159,36,0,0,323,175,-25856,329,,,,,,,,,,,,
60483,1560695554646,0,2.25,2.01,3.35,1.89,5.04,1.14,-0.58,0.27,-1,-6,1,1.28,6058,6,86,36,27,918,329.0,481,461,60,121.0,107,1,275,160,36,0,0,324,170,150,326,,,,,,,,,,,,
60503,1560695554666,-0,2.24,2.01,3.39,1.88,5.05,1.19,-0.6,0.31,-2,-7,0,1.34,6042,6,86,36,27,922,327.0,480,465,60,120.0,107,1,275,160,36,0,0,320,-22016,155,325,,,,,,,,,,,,
60523,1560695554686,0,2.24,2.04,3.42,1.87,5.04,1.25,-0.6,0.39,-3,-8,-0,1.39,6032,6,86,36,27,927,326.0,480,465,60,120.0,107,1,275,160,36,0,0,318,-23296,-28416,322,,,,,,,,,,,,
60543,1560695554707,1,2.24,2.11,3.41,1.86,5.08,1.31,-0.6,0.46,-5,-10,-1,1.44,5975,6,86,36,27,932,327.0,475,465,60,120.0,111,1,274,160,36,0,0,320,-22016,145,322,45.70142,4.911932,32.45,195.1,0,0.0,0,0.0,0.6117,1,0.45,1.0091
60563,1560695554727,-1,2.23,2.16,3.35,1.85,5.04,1.38,-0.63,0.53,-6,-11,-1,1.52,5909,6,86,36,27,938,326.0,470,464,60,120.0,111,1,274,160,36,0,0,324,165,145,321,,,,,,,,,,,,
60583,1560695554747,-1,2.22,2.21,3.29,1.85,5.08,1.43,-0.64,0.56,-8,-12,-2,1.57,5866,6,86,36,28,940,327.0,467,463,60,121.0,111,1,276,160,36,0,0,322,-22016,140,319,,,,,,,,,,,,
60603,1560695554767,0,2.22,2.21,3.29,1.84,5.07,1.46,-0.65,0.52,-9,-12,-4,1.6,5868,6,86,36,28,942,324.0,465,463,60,121.0,111,1,276,161,36,0,0,318,160,-32256,314,,,,,,,,,,,,
60623,1560695554787,4,2.23,2.2,3.29,1.83,5.08,1.4,-0.62,0.49,-10,-11,-5,1.53,5861,6,86,36,28,949,322.0,462,459,60,122.0,111,1,276,161,36,0,0,315,155,120,314,,,,,,,,,,,,
60643,1560695554804,4,2.22,2.21,3.3,1.84,5.07,1.26,-0.54,0.42,-10,-8,-6,1.37,5859,6,86,36,28,958,320.0,460,453,60,122.0,111,1,276,161,35,0,0,314,150,32000,313,45.701416,4.911937,31.17,195.2,0,0.0,0,0.0,0.6133,1,0.45,1.0107
60663,1560695554824,3,2.23,2.2,3.31,1.84,5.04,1.07,-0.47,0.39,-9,-4,-6,1.17,5844,7,86,36,29,966,318.0,458,455,60,122.0,111,1,278,162,35,0,0,312,145,120,311,,,,,,,,,,,,
60683,1560695554844,1,2.24,2.19,3.31,1.86,5.07,0.92,-0.38,0.37,-7,-1,-6,1.0,5806,8,86,36,29,974,317.0,462,456,60,121.0,111,1,278,162,35,0,0,311,-28416,120,311,,,,,,,,,,,,
60703,1560695554864,2,2.22,2.19,3.31,1.86,5.07,0.86,-0.26,0.41,-4,1,-5,0.9,5772,8,86,36,30,983,316.0,457,456,60,121.0,111,1,279,163,35,0,0,309,140,30720,311,,,,,,,,,,,,
60723,1560695554884,-0,2.22,2.18,3.29,1.85,5.08,0.98,-0.18,0.45,-2,-1,-6,0.99,5737,8,86,36,31,995,315.0,455,457,60,120.0,111,1,281,164,35,0,0,310,135,32000,310,,,,,,,,,,,,
60743,1560695554906,-2,2.22,2.16,3.26,1.86,5.07,1.08,-0.15,0.4,-4,-3,-6,1.09,5737,8,86,36,31,1000,314.0,455,460,60,121.0,113,1,281,164,35,0,0,309,135,110,308,45.701408,4.911942,30.7,195.2,0,0.0,0,0.0,0.615,1,0.45,1.0124
60763,1560695554926,4,2.2,2.15,3.25,1.86,5.04,1.08,-0.19,0.35,-7,-3,-7,1.09,5711,9,86,36,32,1002,311.0,452,460,60,122.0,113,1,284,165,35,0,0,308,-32256,28160,306,,,,,,,,,,,,
60783,1560695554946,3,2.18,2.13,3.25,1.86,5.08,0.87,-0.2,0.33,-8,1,-7,0.9,5678,9,86,36,33,1005,310.0,449,461,60,122.0,113,1,286,170,35,0,0,305,125,28160,305,,,,,,,,,,,,
60803,1560695554966,-0,2.18,2.13,3.24,1.85,5.08,0.73,-0.05,0.34,-5,1,-5,0.73,5683,10,86,36,34,1007,310.0,450,460,60,121.0,113,1,289,176,35,0,0,305,125,26880,303,,,,,,,,,,,,
60823,1560695554986,1,2.17,2.11,3.23,1.85,5.07,0.86,0.04,0.43,-3,-2,-5,0.86,5666,12,86,36,35,1006,309.0,450,463,60,120.0,113,1,292,181,35,0,0,306,125,100,301,,,,,,,,,,,,
60843,1560695554998,1,2.15,2.12,3.18,1.86,5.05,0.98,-0.01,0.42,-6,-4,-6,0.98,5625,13,86,36,36,1004,310.0,452,461,60,121.0,132,1,295,187,40,0,0,307,125,100,300,45.701401,4.911946,30.05,195.1,0,0.0,0,0.0,0.6167,1,0.45,1.0141
60863,1560695555018,3,2.14,2.11,3.15,1.92,5.03,0.89,-0.09,0.43,-9,-0,-6,0.89,5647,15,86,36,38,1002,309.0,449,451,60,122.0,132,1,302,199,40,0,0,307,32000,23040,299,,,,,,,,,,,,
60883,1560695555038,1,2.13,2.12,3.15,1.98,5.04,0.61,0.01,0.36,-7,3,-6,0.61,5583,17,86,36,40,999,307.0,445,453,60,121.0,132,1,309,205,40,0,0,306,30720,0,296,,,,,,,,,,,,
60903,1560695555058,0,2.1,2.12,3.1,1.94,5.05,0.75,0.12,0.38,-6,-1,-5,0.76,5527,18,86,36,43,995,304.0,445,466,60,120.0,132,1,319,210,40,0,0,301,110,20480,295,,,,,,,,,,,,
60923,1560695555078,5,2.1,2.12,3.06,1.93,5.03,0.88,0.12,0.41,-10,-4,-6,0.89,5560,19,86,36,45,992,306.0,442,462,60,122.0,132,1,327,213,40,0,0,303,115,41,293,,,,,,,,,,,,
60943,1560695555104,1,2.1,2.12,3.06,1.93,5.04,0.69,0.09,0.38,-12,1,-8,0.69,5607,20,86,36,47,988,306.0,441,451,60,122.0,154,1,338,217,45,0,0,305,115,0,291,45.701393,4.911951,29.28,195.1,0,0.0,0,0.0,0.6183,1,0.45,1.0157
60963,1560695555124,-0,2.11,2.13,3.07,1.92,5.08,0.51,0.09,0.37,-9,1,-9,0.52,5635,20,86,36,49,983,308.0,441,460,60,120.0,154,1,342,226,45,0,0,306,120,10686,288,,,,,,,,,,,,
60983,1560695555144,1,2.1,2.17,3.06,1.92,5.04,0.66,0.1,0.41,-9,-1,-11,0.67,5637,21,86,36,51,977,306.0,440,464,60,121.0,154,1,346,234,45,0,0,307,30720,-16896,288,,,,,,,,,,,,
61003,1560695555164,4,2.1,2.16,3.07,1.92,5.07,0.8,0.07,0.42,-12,-2,-12,0.8,5657,21,86,36,53,970,306.0,443,463,60,121.0,154,1,352,239,45,0,0,304,115,250,286,,,,,,,,,,,,
61023,1560695555184,2,2.1,2.17,3.06,1.93,5.06,0.68,0.08,0.38,-13,-1,-12,0.68,5719,21,86,36,53,963,306.0,442,460,60,122.0,154,1,356,245,45,0,0,304,115,250,286,,,,,,,,,,,,
61043,1560695555206,4,2.1,2.16,3.08,1.93,5.03,0.61,0.09,0.31,-13,1,-12,0.61,5785,22,86,36,54,954,305.0,448,455,60,122.0,189,1,365,251,54,0,0,304,29440,-16896,286,45.701386,4.911956,28.81,195.1,0,0.0,0,0.0,0.62,1,0.45,1.0174
61063,1560695555226,2,2.1,2.19,3.15,1.91,5.06,0.5,0.18,0.3,-11,0,-11,0.53,5852,22,86,36,55,945,304.0,448,453,60,121.0,189,1,371,253,54,0,0,303,110,24064,286,,,,,,,,,,,,
61083,1560695555246,5,2.1,2.21,3.19,1.91,5.04,0.45,0.22,0.35,-10,-0,-11,0.5,5969,22,86,36,55,940,305.0,458,460,60,120.0,189,1,381,254,54,0,0,304,29440,-1529,285,,,,,,,,,,,,
61103,1560695555266,4,2.11,2.23,3.18,1.9,5.07,0.39,0.29,0.35,-10,-1,-12,0.48,6089,22,86,36,55,932,304.0,460,457,60,121.0,189,1,384,256,54,0,0,302,30720,1886,285,,,,,,,,,,,,
61123,1560695555286,-0,2.11,2.27,3.17,1.9,5.06,0.37,0.25,0.39,-10,1,-13,0.45,6202,22,86,36,54,920,306.0,468,456,60,120.0,189,1,385,256,54,0,0,303,115,250,284,,,,,,,,,,,,
61143,1560695555304,-1,2.14,2.3,3.13,1.9,5.04,0.36,0.2,0.38,-10,3,-14,0.41,6241,22,86,36,54,904,306.0,477,456,60,122.0,210,1,385,256,60,0,0,308,115,80,285,45.701378,4.911961,28.47,195.1,0,0.0,0,0.0,0.6217,1,0.46,1.0191
61163,1560695555324,-0,2.15,2.32,3.09,1.91,5.07,0.39,0.15,0.43,-10,5,-13,0.42,6103,22,86,36,54,898,308.0,479,454,60,122.0,210,1,384,256,60,0,0,311,120,32000,289,,,,,,,,,,,,
61183,1560695555344,4,2.16,2.37,3.07,1.97,5.08,0.44,0.12,0.42,-11,5,-14,0.45,5885,22,86,36,54,889,311.0,467,461,60,121.0,210,1,374,253,60,0,0,315,-32256,-27136,292,,,,,,,,,,,,
61203,1560695555364,3,2.19,2.38,3.06,2.01,5.04,0.45,0.02,0.48,-11,5,-15,0.45,5676,22,86,36,54,887,313.0,452,452,60,121.0,210,1,356,249,60,0,0,316,130,-30976,295,,,,,,,,,,,,
61223,1560695555384,0,2.21,2.37,3.07,2.02,5.04,0.31,0.01,0.49,-7,5,-14,0.31,5540,22,86,36,56,885,313.0,443,463,60,121.0,210,1,344,248,60,0,0,314,-30976,120,301,,,,,,,,,,,,
61243,1560695555406,5,2.25,2.36,3.1,2.04,5.04,0.48,0.11,0.44,-8,2,-15,0.5,5516,22,86,36,57,890,312.0,436,460,60,121.0,172,1,341,250,52,0,0,314,130,120,303,45.701378,4.911967,28.73,195.1,0,0.0,0,0.0,0.6233,1,0.46,1.0207
61263,1560695555426,3,2.29,2.34,3.19,2.05,5.04,0.51,-0.01,0.45,-9,3,-16,0.51,5490,22,86,36,58,901,310.0,431,454,60,122.0,172,1,339,251,52,0,0,314,125,29440,302,,,,,,,,,,,,
61283,1560695555446,1,2.32,2.27,3.29,2.02,5.04,0.41,-0.06,0.5,-5,1,-14,0.41,5562,22,86,36,60,922,310.0,430,464,60,120.0,172,1,344,253,52,0,0,309,125,28160,304,,,,,,,,,,,,
61303,1560695555466,1,2.35,2.18,3.34,2.02,5.08,0.48,-0.1,0.51,-3,-0,-13,0.49,5573,22,86,36,60,941,309.0,430,463,60,121.0,172,1,345,253,52,0,0,308,120,29440,307,,,,,,,,,,,,
61323,1560695555486,2,2.38,2.14,3.36,2.02,5.04,0.63,-0.17,0.53,-4,0,-10,0.66,5688,22,86,36,60,956,308.0,435,450,60,121.0,172,1,355,252,52,0,0,304,30720,120,308,,,,,,,,,,,,
61343,1560695555506,6,2.39,2.11,3.35,2.02,5.06,0.72,-0.19,0.5,-4,3,-7,0.75,5792,22,86,36,60,974,312.0,444,451,60,122.0,173,1,364,251,54,0,0,306,28160,120,312,45.70137,4.911973,29.78,195.1,0,0.0,0,0.0,0.625,1,0.46,1.0224
61363,1560695555526,4,2.41,2.1,3.32,2.05,5.08,0.71,-0.16,0.41,-2,6,-4,0.73,5853,23,86,36,59,998,315.0,448,455,60,122.0,173,1,369,250,54,0,0,304,26880,-29696,315,,,,,,,,,,,,
61383,1560695555546,4,2.42,2.1,3.32,2.07,5.07,0.61,-0.13,0.37,0,8,-2,0.62,5977,23,86,36,59,1022,315.0,456,457,60,121.0,173,1,380,250,54,0,0,301,26880,140,314,,,,,,,,,,,,
61403,1560695555566,6,2.44,2.1,3.34,2.1,5.06,0.65,-0.13,0.33,1,9,0,0.66,6085,23,86,36,58,1030,314.0,462,459,60,122.0,173,1,384,253,54,0,0,302,25600,-30976,314,,,,,,,,,,,,
61423,1560695555586,1,2.45,2.11,3.35,2.13,5.06,0.65,-0.15,0.31,3,11,2,0.66,6069,23,86,36,57,1038,315.0,470,459,60,122.0,173,1,384,253,54,0,0,308,25600,-28416,315,,,,,,,,,,,,
61443,1560695555605,5,2.48,2.12,3.35,2.21,5.07,0.63,-0.17,0.31,4,10,4,0.66,6000,23,86,36,56,1037,318.0,469,460,60,121.0,180,1,384,254,57,0,0,318,105,-27136,318,45.701363,4.911979,29.66,195.1,0,0.0,0,0.0,0.6267,1,0.46,1.024
61463,1560695555625,4,2.51,2.12,3.36,2.26,5.05,0.58,-0.14,0.25,5,13,6,0.6,5927,23,86,36,56,1035,321.0,464,460,60,122.0,180,1,377,253,57,0,0,324,105,145,321,,,,,,,,,,,,
61483,1560695555645,4,2.53,2.12,3.36,2.27,5.05,0.53,-0.13,0.23,7,15,8,0.55,5872,23,86,36,56,1028,324.0,457,460,60,120.0,180,1,372,252,57,0,0,312,28160,150,324,,,,,,,,,,,,
61503,1560695555665,2,2.55,2.11,3.37,2.26,5.04,0.46,-0.16,0.22,9,14,9,0.49,5853,23,86,36,56,1015,326.0,456,457,60,122.0,180,1,371,252,57,0,0,314,28160,160,326,,,,,,,,,,,,
61523,1560695555685,4,2.57,2.09,3.37,2.25,5.04,0.42,-0.21,0.24,12,14,11,0.47,5888,23,86,36,56,1019,328.0,456,464,60,121.0,180,1,374,252,57,0,0,311,28160,175,328,,,,,,,,,,,,
61543,1560695555705,1,2.59,2.07,3.4,2.25,5.06,0.33,-0.27,0.32,15,11,13,0.43,5942,23,86,36,56,1023,331.0,457,462,60,120.0,170,1,379,253,56,0,0,307,26880,-22016,331,45.701359,4.911984,30.17,195.1,0,0.0,0,0.0,0.6283,1,0.46,1.0257
61563,1560695555725,2,2.61,2.06,3.46,2.26,5.08,0.29,-0.32,0.36,17,10,15,0.43,6000,23,86,36,56,1032,332.0,461,463,60,120.0,170,1,384,254,56,0,0,309,100,-32559,332,,,,,,,,,,,,
61583,1560695555745,3,2.63,2.06,3.51,2.28,5.04,0.23,-0.33,0.34,19,8,17,0.4,6054,23,86,36,55,1049,335.0,465,461,60,121.0,170,1,384,255,56,0,0,312,25600,-32559,336,,,,,,,,,,,,
61603,1560695555765,4,2.66,2.05,3.55,2.31,5.07,0.18,-0.28,0.27,20,8,19,0.33,6087,23,86,36,55,1070,336.0,466,460,60,121.0,170,1,384,256,56,0,0,323,100,3346,336,,,,,,,,,,,,
61623,1560695555785,5,2.7,2.05,3.56,2.32,5.07,0.18,-0.24,0.18,21,8,21,0.3,6145,23,86,36,55,1085,339.0,472,466,60,121.0,170,1,384,256,56,0,0,321,100,13,339,,,,,,,,,,,,
61643,1560695555805,0,2.76,2.05,3.58,2.36,5.04,0.28,-0.31,0.16,22,7,24,0.42,6196,23,86,36,55,1100,340.0,472,457,60,122.0,177,1,385,256,60,0,0,318,25600,4838,340,45.701351,4.91199,30.71,195.2,0,0.0,0,0.0,0.63,1,0.46,1.0274
61663,1560695555825,1,2.79,2.06,3.59,2.36,5.07,0.43,-0.43,0.2,23,4,26,0.61,6194,23,86,36,54,1107,340.0,474,458,60,121.0,177,1,385,256,60,0,0,336,90,13,340,,,,,,,,,,,,
61683,1560695555845,-1,2.85,2.02,3.6,2.35,5.06,0.59,-0.58,0.34,24,0,28,0.82,6223,23,86,36,54,1108,340.0,477,461,60,121.0,177,1,385,256,60,0,0,339,23040,-122,340,,,,,,,,,,,,
61703,1560695555865,2,2.86,1.99,3.61,2.34,5.07,0.61,-0.64,0.45,26,-3,30,0.88,6285,23,86,36,54,1103,341.0,479,457,60,121.0,177,1,385,256,60,0,0,331,23040,13,341,,,,,,,,,,,,
61723,1560695555885,4,2.87,1.96,3.62,2.34,5.07,0.58,-0.68,0.45,28,-3,31,0.9,6343,23,86,36,54,1094,341.0,486,458,60,121.0,177,1,386,256,60,0,0,334,85,3346,341,,,,,,,,,,,,
61743,1560695555905,0,2.87,1.94,3.63,2.34,5.07,0.63,-0.69,0.36,30,-2,31,0.93,6366,23,86,36,54,1083,342.0,485,457,60,122.0,178,1,386,256,61,0,0,344,0,3327,343,45.701344,4.911994,30.96,195.2,0,0.0,0,0.0,0.6317,1,0.46,1.029
61763,1560695555925,1,2.86,1.92,3.68,2.34,5.06,0.69,-0.82,0.35,30,-2,32,1.07,6392,23,86,36,54,1072,342.0,485,458,60,121.0,178,1,386,256,61,0,0,352,20480,3327,342,,,,,,,,,,,,
61783,1560695555945,3,2.87,1.92,3.69,2.36,5.04,0.73,-0.92,0.42,31,-3,33,1.17,6454,23,86,36,54,1060,346.0,486,466,60,121.0,178,1,386,256,61,0,0,345,0,6668,346,,,,,,,,,,,,
61803,1560695555965,-0,2.87,1.91,3.69,2.36,5.07,0.66,-0.91,0.35,34,-2,36,1.13,6478,23,86,36,53,1050,345.0,492,450,60,121.0,178,1,382,250,61,0,0,347,0,-10554,346,,,,,,,,,,,,
61823,1560695555985,1,2.87,1.91,3.68,2.38,5.04,0.66,-1.0,0.41,35,0,39,1.19,6496,24,86,36,53,1051,347.0,495,457,60,121.0,178,1,382,250,61,0,0,361,0,-31206,347,,,,,,,,,,,,
61843,1560695555999,2,2.87,1.9,3.68,2.38,5.06,0.63,-1.05,0.44,36,-1,40,1.22,6558,26,86,36,54,1051,347.0,499,464,60,120.0,175,1,387,256,61,0,0,352,41,3327,347,45.70134,4.911998,30.84,195.2,0,0.0,0,0.0,0.6333,1,0.46,1.0307
61863,1560695556019,-1,2.86,1.9,3.69,2.38,5.06,0.62,-1.04,0.4,38,-1,43,1.21,6583,29,86,36,55,1050,347.0,501,458,60,122.0,175,1,389,258,61,0,0,347,10686,8841,349,,,,,,,,,,,,
61883,1560695556039,1,2.85,1.89,3.67,2.41,5.08,0.61,-1.13,0.43,39,-1,45,1.29,6583,33,86,36,57,1049,348.0,502,457,60,120.0,175,1,395,264,61,0,0,2127,10686,2811,348,,,,,,,,,,,,
61903,1560695556059,4,2.85,1.89,3.65,2.42,5.04,0.64,-1.14,0.35,41,-1,47,1.3,6517,39,86,36,59,1048,351.0,495,460,60,120.0,175,1,398,266,61,0,0,179,10686,-31206,351,,,,,,,,,,,,
61923,1560695556079,0,2.82,1.88,3.64,2.44,5.05,0.61,-1.12,0.45,41,-1,48,1.27,6438,48,86,36,64,1050,350.0,494,460,60,122.0,175,1,388,286,61,0,0,142,0,2811,351,,,,,,,,,,,,
61943,1560695556099,1,2.81,1.89,3.63,2.46,5.04,0.67,-1.12,0.37,41,-2,49,1.3,6358,55,86,36,70,1050,350.0,485,457,60,121.0,212,1,368,326,74,0,0,142,10686,-30438,350,45.70134,4.911998,30.84,195.2,0,0.0,0,0.0,0.6333,1,0.46,1.0324
61963,1560695556119,2,2.79,1.88,3.64,2.44,5.06,0.7,-1.19,0.44,42,-4,50,1.38,6285,64,86,36,77,1051,349.0,383,457,60,120.0,212,1,357,434,74,0,0,556,0,-14714,349,,,,,,,,,,,,
61983,1560695556139,2,2.77,1.87,3.65,2.45,5.04,0.77,-1.24,0.44,43,-5,51,1.46,6214,73,86,36,84,1052,350.0,381,455,60,119.0,212,1,347,478,74,0,0,556,20480,6668,350,,,,,,,,,,,,
62003,1560695556101,5,2.74,1.87,3.65,2.44,5.05,0.78,-1.2,0.46,43,-5,53,1.43,6229,82,86,36,90,1054,351.0,334,455,60,120.0,212,1,329,500,74,0,0,59,0,-10554,351,,,,,,,,,,,,
62023,1560695556121,2,2.71,1.87,3.66,2.44,5.06,0.67,-1.12,0.48,44,-4,54,1.31,6296,91,86,36,94,1061,352.0,316,455,60,120.0,212,1,332,528,74,0,0,59,20480,-31222,352,,,,,,,,,,,,
62043,1560695556205,1,2.68,1.87,3.66,2.42,5.04,0.67,-1.08,0.5,43,-3,54,1.28,6386,98,86,36,95,1069,350.0,297,457,60,121.0,365,1,337,533,128,0,0,59,0,-10554,350,45.701321,4.912001,30.31,195.3,0,0.0,0,0.0,0.6367,1,0.46,1.034
62063,1560695556225,2,2.66,1.88,3.65,2.41,5.07,0.75,-1.12,0.52,43,-3,55,1.34,6524,100,86,36,95,1073,349.0,325,463,60,121.0,365,1,344,531,128,0,0,59,80,-31206,350,,,,,,,,,,,,
62083,1560695556245,-0,2.63,1.91,3.63,2.42,5.04,0.58,-1.05,0.59,42,-2,54,1.2,6727,100,86,36,95,1083,347.0,361,458,60,120.0,365,1,354,530,128,0,0,328,85,-10554,347,,,,,,,,,,,,
62103,1560695556265,3,2.61,1.91,3.59,2.41,5.04,0.72,-1.04,0.58,41,-2,55,1.26,6815,100,86,36,95,1172,346.0,378,458,60,120.0,365,1,361,527,128,0,0,381,95,-14714,346,,,,,,,,,,,,
62123,1560695556285,4,2.56,1.95,3.54,2.39,5.05,0.61,-1.06,0.59,41,-1,54,1.22,7022,100,86,36,95,1226,349.0,422,458,60,121.0,365,1,370,525,128,0,0,397,25600,3183,349,,,,,,,,,,,,
62143,1560695556306,3,2.55,2.06,3.46,2.41,5.04,0.42,-1.03,0.67,40,0,52,1.11,7247,100,86,36,94,1307,350.0,463,455,60,121.0,412,1,388,537,144,0,0,369,105,-29978,350,45.701317,4.912,30.77,195.4,0,0.0,0,0.0,0.6383,1,0.46,1.0357
62163,1560695556326,1,2.55,2.17,3.38,2.42,5.06,0.37,-0.98,0.76,38,-0,52,1.05,7376,100,87,36,94,1362,354.0,494,455,60,120.0,412,1,398,544,144,0,0,354,32000,257,354,,,,,,,,,,,,
62183,1560695556346,-0,2.53,2.27,3.29,2.45,5.07,0.48,-0.98,0.77,36,-1,51,1.09,7261,100,87,36,95,1383,360.0,501,463,60,120.0,412,1,388,541,144,0,0,378,140,-19019,360,,,,,,,,,,,,
62203,1560695556366,1,2.52,2.33,3.21,2.49,5.05,0.63,-0.97,0.72,36,-1,49,1.16,7164,100,87,36,95,1410,364.0,507,458,60,120.0,412,1,381,533,144,0,0,401,150,-992,365,,,,,,,,,,,,
62223,1560695556386,2,2.52,2.36,3.17,2.5,5.04,0.49,-0.9,0.84,35,-0,47,1.03,7086,100,87,36,95,1374,369.0,512,455,60,120.0,412,1,375,528,144,0,0,374,175,-3866,369,,,,,,,,,,,,
62243,1560695556407,2,2.51,2.37,3.19,2.53,5.04,0.36,-0.88,0.78,35,1,47,0.95,6980,100,87,36,95,1327,374.0,507,456,60,121.0,378,1,367,524,141,0,0,364,2560,-3866,374,45.701305,4.911998,32.3,195.4,0,0.0,0,0.0,0.64,1,0.46,1.0374
62263,1560695556427,5,2.5,2.38,3.23,2.57,5.05,0.49,-0.89,0.82,32,-1,47,1.01,6926,100,87,36,95,1248,378.0,506,457,60,120.0,378,1,366,526,141,0,0,390,3327,-19019,378,,,,,,,,,,,,
62283,1560695556447,3,2.51,2.38,3.31,2.57,5.08,0.36,-0.88,0.87,32,-1,45,0.95,6988,100,87,36,95,1169,381.0,503,457,60,121.0,378,1,368,524,141,0,0,409,-14714,505,381,,,,,,,,,,,,
62303,1560695556467,3,2.51,2.37,3.33,2.56,5.07,0.13,-0.81,0.83,31,-1,43,0.82,7200,100,87,36,95,1137,382.0,500,460,60,120.0,378,1,384,535,141,0,0,378,-6644,-1818,382,,,,,,,,,,,,
62323,1560695556487,3,2.49,2.34,3.35,2.54,5.04,0.14,-0.77,0.86,31,-2,41,0.78,7428,100,87,36,95,1096,387.0,516,461,60,119.0,378,1,401,547,141,0,0,375,2060,-6656,387,,,,,,,,,,,,
62343,1560695556507,4,2.46,2.31,3.35,2.54,5.04,0.13,-0.78,0.9,31,-2,40,0.79,7612,100,87,36,94,1050,393.0,523,460,60,119.0,403,1,415,555,157,0,0,402,-6458,6512,393,45.701302,4.911994,35.01,195.4,0,0.0,0,0.0,0.6417,1,0.47,1.039
62363,1560695556527,2,2.46,2.31,3.34,2.53,5.08,0.15,-0.72,1.01,30,-2,39,0.73,7904,100,87,36,92,991,399.0,538,452,60,120.0,403,1,440,569,157,0,0,429,-6405,13040,399,,,,,,,,,,,,
62383,1560695556547,4,2.44,2.3,3.28,2.54,5.08,0.17,-0.73,0.98,29,-1,38,0.75,8127,100,87,36,91,983,401.0,548,453,60,121.0,403,1,446,586,157,0,0,417,257,2524,401,,,,,,,,,,,,
62403,1560695556567,1,2.43,2.35,3.23,2.54,5.04,0.17,-0.73,1.08,28,-0,38,0.75,8337,100,87,36,90,976,406.0,576,456,60,120.0,403,1,441,609,157,0,0,415,770,3826,406,,,,,,,,,,,,
62423,1560695556587,4,2.43,2.38,3.22,2.55,5.06,0.18,-0.71,1.12,27,0,36,0.74,8400,100,87,36,89,969,410.0,582,452,60,120.0,403,1,437,605,157,0,0,452,-19126,21580,412,,,,,,,,,,,,
62443,1560695556604,4,2.41,2.4,3.2,2.54,5.06,0.18,-0.73,1.15,26,1,35,0.75,8426,100,87,36,89,960,420.0,586,456,60,120.0,456,1,437,608,190,0,0,473,240,-6387,420,45.70129,4.911991,36.27,195.4,0,0.0,0,0.0,0.6433,1,0.47,1.0407
62463,1560695556624,2,2.4,2.44,3.2,2.55,5.06,0.19,-0.66,1.17,25,-1,35,0.68,8488,100,87,36,89,958,424.0,595,455,60,120.0,456,1,435,599,190,0,0,443,6512,6193,424,,,,,,,,,,,,
62483,1560695556644,5,2.4,2.46,3.2,2.56,5.04,0.1,-0.63,1.13,25,-1,33,0.64,8542,100,87,36,88,958,431.0,593,450,60,120.0,456,1,431,606,190,0,0,443,1504,16408,431,,,,,,,,,,,,
62503,1560695556664,3,2.41,2.47,3.2,2.57,5.08,0.14,-0.64,0.96,24,-0,31,0.65,8604,100,87,36,88,956,436.0,606,458,60,120.0,456,1,431,606,190,0,0,467,9517,-9160,437,,,,,,,,,,,,
62523,1560695556684,5,2.4,2.5,3.19,2.62,5.03,0.22,-0.61,1.06,23,-2,30,0.65,8700,100,87,36,88,952,442.0,596,453,60,120.0,456,1,427,606,190,0,0,484,18584,2211,442,,,,,,,,,,,,
62543,1560695556706,3,2.4,2.48,3.24,2.59,5.04,0.21,-0.66,1.15,22,-2,27,0.69,8819,100,87,36,88,948,444.0,607,454,60,120.0,451,1,424,606,201,0,0,469,3826,8488,447,45.701279,4.911986,39.53,195.4,0,0.0,0,0.0,0.645,1,0.47,1.0424
62563,1560695556726,4,2.4,2.47,3.23,2.58,5.08,0.28,-0.64,1.24,22,-2,25,0.7,8975,100,87,36,87,945,452.0,610,456,60,120.0,451,1,419,594,201,0,0,474,1779,-9203,452,,,,,,,,,,,,
62583,1560695556746,2,2.39,2.47,3.22,2.58,5.04,0.33,-0.68,1.26,21,-1,25,0.76,9079,100,87,36,87,952,460.0,614,452,60,120.0,451,1,418,594,201,0,0,483,21580,32033,462,,,,,,,,,,,,
62603,1560695556766,5,2.39,2.48,3.2,2.59,5.04,0.43,-0.77,1.25,20,-1,24,0.88,9168,100,87,36,87,961,468.0,612,453,60,120.0,451,1,418,594,201,0,0,489,2131,248,468,,,,,,,,,,,,
62623,1560695556786,4,2.39,2.47,3.2,2.59,5.04,0.43,-0.76,1.16,20,-0,23,0.87,9250,100,87,36,87,974,476.0,623,451,60,120.0,451,1,418,594,201,0,0,499,15649,10408,476,,,,,,,,,,,,
62643,1560695556806,3,2.38,2.46,3.23,2.58,5.04,0.3,-0.7,1.13,20,0,23,0.76,9333,100,87,36,87,989,480.0,621,455,60,121.0,442,1,418,594,210,0,0,510,-9160,10408,481,45.701271,4.911979,43.12,195.4,0,0.0,0,0.0,0.6467,1,0.47,1.044
62663,1560695556826,4,2.38,2.47,3.22,2.58,5.04,0.34,-0.62,1.19,18,-1,22,0.71,9517,100,87,36,86,1010,486.0,626,457,60,119.0,442,1,418,583,210,0,0,524,-3210,-14,486,,,,,,,,,,,,
62683,1560695556846,2,2.37,2.5,3.21,2.59,5.05,0.42,-0.54,1.11,17,-2,21,0.69,9704,100,87,36,86,1023,491.0,632,457,60,120.0,442,1,410,588,210,0,0,504,8488,10994,491,,,,,,,,,,,,
62703,1560695556866,3,2.37,2.53,3.2,2.61,5.06,0.38,-0.49,1.19,17,-3,20,0.62,9811,100,87,36,86,1037,494.0,641,453,60,120.0,442,1,405,591,210,0,0,507,3576,-9212,494,,,,,,,,,,,,
62723,1560695556886,3,2.35,2.54,3.2,2.6,5.06,0.36,-0.45,1.19,17,-3,20,0.57,9842,100,87,36,85,1039,501.0,638,455,60,120.0,442,1,403,575,210,0,0,537,32033,6274,501,,,,,,,,,,,,
62743,1560695556906,4,2.34,2.51,3.2,2.59,5.06,0.32,-0.53,1.22,17,-3,18,0.62,9973,100,87,36,85,1040,507.0,630,461,60,119.0,429,1,397,576,216,0,0,548,-1562,6274,509,45.70126,4.911972,45.94,195.4,0,0.0,0,0.0,0.6483,1,0.47,1.0457
62763,1560695556926,4,2.34,2.48,3.19,2.57,5.04,0.31,-0.44,1.25,16,-3,18,0.54,10064,100,87,36,85,1039,513.0,640,453,60,120.0,429,1,398,577,216,0,0,536,-9216,-32248,513,,,,,,,,,,,,
62783,1560695556946,2,2.34,2.46,3.19,2.53,5.06,0.34,-0.4,1.29,15,-2,18,0.52,10124,100,87,36,85,1037,519.0,633,453,60,120.0,429,1,404,577,216,0,0,535,-28648,1779,520,,,,,,,,,,,,
62803,1560695556966,3,2.32,2.46,3.19,2.52,5.05,0.34,-0.37,1.07,14,-3,17,0.5,10217,100,87,36,85,1032,525.0,639,454,60,120.0,429,1,410,577,216,0,0,555,26178,-22359,525,,,,,,,,,,,,
62823,1560695556986,3,2.31,2.47,3.19,2.51,5.05,0.35,-0.4,1.14,14,-2,16,0.53,10307,100,87,36,85,1030,529.0,645,450,60,120.0,429,1,416,577,216,0,0,548,1341,6274,533,,,,,,,,,,,,
62843,1560695557000,3,2.32,2.47,3.19,2.52,5.03,0.4,-0.34,1.13,13,-1,14,0.53,10457,100,87,36,85,1027,536.0,638,457,60,120.0,427,1,428,577,227,0,0,558,10408,-28648,536,45.701252,4.911963,49.15,195.4,0,0.0,0,0.0,0.65,1,0.47,1.0474
62863,1560695557020,3,2.31,2.48,3.14,2.53,5.06,0.34,-0.4,1.15,12,-0,13,0.53,10527,100,87,36,85,1024,541.0,641,459,60,120.0,427,1,431,577,227,0,0,558,-32248,-30159,541,,,,,,,,,,,,
62883,1560695557040,4,2.32,2.47,3.11,2.52,5.07,0.4,-0.31,1.2,11,1,13,0.51,10641,100,87,36,85,1024,544.0,648,458,60,120.0,427,1,434,577,227,0,0,564,2524,-23623,544,,,,,,,,,,,,
62903,1560695557060,3,2.33,2.47,3.07,2.51,5.08,0.36,-0.23,1.14,9,1,13,0.43,10659,100,87,36,85,1024,549.0,647,455,60,120.0,427,1,435,577,227,0,0,568,1779,-29984,549,,,,,,,,,,,,
62923,1560695557080,5,2.32,2.5,3.06,2.51,5.05,0.37,-0.28,1.15,9,-0,12,0.46,10738,100,87,36,85,1023,554.0,654,460,60,119.0,427,1,437,577,227,0,0,580,14504,30208,554,,,,,,,,,,,,
62943,1560695557107,4,2.31,2.52,3.06,2.5,5.05,0.33,-0.34,1.14,9,-0,10,0.47,10794,100,87,36,85,1022,558.0,650,457,60,120.0,421,1,438,577,235,0,0,581,6274,-12040,558,45.701241,4.911954,51.67,195.4,0,0.0,0,0.0,0.6517,1,0.47,1.049
62963,1560695557127,4,2.31,2.52,3.11,2.5,5.06,0.29,-0.37,1.18,9,1,9,0.48,10952,100,87,36,85,1020,562.0,649,458,60,120.0,421,1,441,559,235,0,0,590,-22263,-28648,562,,,,,,,,,,,,
62983,1560695557147,5,2.31,2.5,3.15,2.5,5.08,0.37,-0.19,1.2,9,-1,9,0.42,11120,100,87,36,84,1019,569.0,645,460,60,120.0,421,1,442,559,235,0,0,600,2211,2048,570,,,,,,,,,,,,
63003,1560695557167,5,2.3,2.5,3.15,2.49,5.04,0.42,-0.32,1.18,7,-1,10,0.53,11207,100,87,36,84,1010,573.0,652,457,60,120.0,421,1,442,559,235,0,0,607,1267,-768,573,,,,,,,,,,,,
63023,1560695557187,6,2.31,2.5,3.15,2.47,5.07,0.31,-0.18,1.15,7,0,11,0.36,11363,100,87,36,84,999,580.0,654,453,60,119.0,421,1,441,559,235,0,0,605,774,-3446,580,,,,,,,,,,,,
63043,1560695557206,3,2.31,2.52,3.15,2.47,5.05,0.22,-0.14,1.08,7,3,9,0.26,11517,100,87,36,84,994,585.0,653,455,60,119.0,417,1,440,559,243,0,0,607,-16384,-18357,585,45.701229,4.911944,54.52,195.4,0,0.0,0,0.0,0.6533,1,0.47,1.0507
63063,1560695557226,5,2.3,2.51,3.13,2.47,5.04,0.24,-0.21,1.12,8,3,7,0.32,11617,100,87,36,84,982,588.0,660,456,60,120.0,417,1,440,543,243,0,0,620,-25872,19621,591,,,,,,,,,,,,
63083,1560695557246,1,2.3,2.51,3.12,2.47,5.06,0.29,-0.24,1.2,8,2,7,0.37,11704,100,87,36,83,964,596.0,666,453,60,120.0,417,1,440,546,243,0,0,623,2048,-28304,596,,,,,,,,,,,,
63103,1560695557266,2,2.29,2.51,3.07,2.47,5.03,0.33,-0.2,1.21,7,2,7,0.39,11762,100,87,36,83,950,600.0,660,455,60,119.0,417,1,440,546,243,0,0,634,17344,-16883,601,,,,,,,,,,,,
63123,1560695557286,5,2.3,2.53,3.02,2.46,5.07,0.32,-0.19,1.1,6,-0,6,0.37,11792,100,87,36,83,935,603.0,667,458,60,119.0,417,1,440,547,243,0,0,625,243,771,603,,,,,,,,,,,,
63143,1560695557306,5,2.3,2.53,3.03,2.47,5.07,0.31,-0.22,1.12,5,-1,5,0.38,11777,100,87,36,83,922,609.0,659,460,60,120.0,404,1,440,548,245,0,0,633,-3820,11776,609,45.701218,4.911933,56.93,195.4,0,0.0,0,0.0,0.655,1,0.48,1.0524
63163,1560695557326,5,2.29,2.51,3.04,2.45,5.08,0.33,-0.26,1.07,5,-2,5,0.42,11837,100,87,36,83,900,615.0,662,458,60,120.0,404,1,440,550,245,0,0,637,-28304,16599,615,,,,,,,,,,,,
63183,1560695557346,5,2.28,2.5,3.06,2.43,5.05,0.34,-0.3,0.98,4,-3,5,0.45,11912,100,87,36,83,883,621.0,665,455,60,120.0,404,1,440,552,245,0,0,646,269,2024,622,,,,,,,,,,,,
63203,1560695557366,3,2.29,2.5,3.08,2.43,5.07,0.39,-0.34,0.99,3,-3,5,0.51,12026,100,87,36,83,865,627.0,664,458,60,119.0,404,1,440,555,245,0,0,649,506,-2830,626,,,,,,,,,,,,
63223,1560695557386,5,2.28,2.51,3.1,2.42,5.06,0.42,-0.32,1.05,2,-4,4,0.53,12065,100,87,36,84,856,628.0,663,461,60,120.0,404,1,440,570,245,0,0,650,20993,8958,628,,,,,,,,,,,,
63243,1560695557406,3,2.28,2.51,3.12,2.44,5.06,0.51,-0.33,1.04,2,-5,3,0.61,12311,100,87,36,83,837,632.0,664,459,60,119.0,418,1,440,555,263,0,0,655,966,-10344,632,45.701202,4.911922,59.64,195.4,0,0.0,0,0.0,0.6567,1,0.48,1.054
63263,1560695557426,6,2.27,2.51,3.09,2.44,5.03,0.59,-0.38,1.08,2,-6,2,0.7,12450,100,87,36,83,826,638.0,670,457,60,119.0,418,1,440,555,263,0,0,654,16599,3543,638,,,,,,,,,,,,
63283,1560695557446,5,2.27,2.51,3.09,2.43,5.04,0.52,-0.3,1.12,2,-5,3,0.6,12541,100,87,36,83,817,641.0,670,457,60,120.0,418,1,440,555,263,0,0,674,16599,-3038,641,,,,,,,,,,,,
63303,1560695557466,1,2.28,2.5,3.09,2.42,5.06,0.49,-0.13,1.05,3,-2,1,0.51,12600,100,87,35,83,814,646.0,670,457,60,120.0,418,1,440,555,263,0,0,679,479,-3578,645,,,,,,,,,,,,
63323,1560695557486,5,2.28,2.49,3.09,2.42,5.04,0.54,-0.18,1.13,2,0,-0,0.57,12626,100,87,35,83,804,650.0,665,450,60,119.0,418,1,440,555,263,0,0,678,-6006,-10344,650,,,,,,,,,,,,
63343,1560695557502,1,2.28,2.51,3.08,2.41,5.06,0.52,-0.06,1.07,2,-0,0,0.52,12668,100,87,35,83,796,655.0,666,451,60,120.0,407,1,440,555,266,0,0,682,-2830,3543,655,45.701191,4.911911,61.77,195.4,0,0.0,0,0.0,0.6583,1,0.48,1.0557
63363,1560695557522,6,2.28,2.52,3.06,2.41,5.07,0.46,-0.08,1.09,2,-2,1,0.47,12798,100,87,35,83,790,658.0,672,456,60,119.0,407,1,440,555,266,0,0,681,-388,14342,658,,,,,,,,,,,,
63383,1560695557542,4,2.28,2.52,3.02,2.41,5.03,0.51,-0.13,1.11,2,-3,1,0.53,12860,100,87,35,83,787,661.0,671,457,60,119.0,407,1,440,555,266,0,0,681,-2345,-2830,661,,,,,,,,,,,,
63403,1560695557562,7,2.28,2.52,3.04,2.41,5.04,0.44,-0.1,1.12,2,-3,1,0.45,12886,100,87,35,83,778,669.0,668,458,60,119.0,407,1,440,555,266,0,0,685,31988,16599,665,,,,,,,,,,,,
63423,1560695557582,5,2.28,2.5,3.08,2.4,5.07,0.57,-0.19,1.14,2,-4,0,0.61,12993,100,87,35,83,769,672.0,665,461,60,119.0,407,1,440,555,266,0,0,708,8958,12333,672,,,,,,,,,,,,
63443,1560695557601,4,2.27,2.51,3.11,2.39,5.05,0.48,-0.04,1.07,2,-4,1,0.49,13057,100,87,35,83,765,675.0,674,458,60,120.0,405,1,440,555,274,0,0,699,-2345,19188,679,45.70118,4.911899,63.88,195.4,0,0.0,0,0.0,0.66,1,0.48,1.0574
63463,1560695557621,17,2.27,2.51,3.12,2.4,5.07,0.55,-0.07,1.16,1,-2,2,0.55,13075,100,87,35,83,759,681.0,673,451,60,119.0,405,1,440,555,274,0,0,705,-2826,-13072,678,,,,,,,,,,,,
63483,1560695557641,1,2.27,2.51,3.09,2.39,5.04,0.45,-0.08,1.13,1,-1,0,0.46,13232,100,87,35,83,758,685.0,670,458,60,119.0,405,1,440,555,274,0,0,705,-10399,-3888,683,,,,,,,,,,,,
63503,1560695557661,-0,2.27,2.51,3.1,2.37,5.04,0.46,-0.09,1.01,1,0,-0,0.47,12939,100,87,35,84,761,687.0,681,457,60,123.0,405,1,440,570,274,0,0,709,6208,-30694,685,,,,,,,,,,,,
63523,1560695557681,-1,2.28,2.49,3.09,2.35,5.08,0.44,-0.06,0.84,1,1,-2,0.45,12359,100,87,35,84,765,692.0,676,460,60,123.0,405,1,440,570,274,0,0,696,14342,-10448,688,,,,,,,,,,,,
63543,1560695557703,-1,2.28,2.45,3.14,2.32,5.07,0.46,0.01,0.85,1,-1,-2,0.46,12073,100,87,35,85,775,690.0,673,462,60,122.0,382,1,440,570,264,0,0,687,-2830,6208,690,45.70116,4.911886,65.89,195.3,0,0.0,0,0.0,0.6617,1,0.48,1.059
63563,1560695557723,1,2.26,2.42,3.19,2.26,5.03,0.49,0.02,0.82,1,-2,-3,0.49,11859,100,87,35,85,796,692.0,670,464,60,122.0,382,1,440,584,264,0,0,689,14342,-10448,689,,,,,,,,,,,,
63583,1560695557743,6,2.27,2.41,3.26,2.24,5.05,0.24,0.05,0.77,4,3,-1,0.25,11574,100,87,35,86,825,689.0,669,456,60,122.0,382,1,440,597,264,0,0,690,-3584,24,690,,,,,,,,,,,,
63603,1560695557763,5,2.27,2.42,3.22,2.26,5.04,0.24,0.07,0.78,4,7,0,0.25,10888,100,87,35,86,844,693.0,661,457,60,119.0,382,1,442,1070,264,0,0,740,14342,13016,693,,,,,,,,,,,,
63623,1560695557783,1,2.27,2.44,3.08,2.3,5.04,0.2,0.05,0.82,3,5,1,0.21,9858,100,87,35,88,864,699.0,628,452,60,119.0,382,1,404,1015,264,0,0,805,-3584,-7436,697,,,,,,,,,,,,
63643,1560695557801,5,2.27,2.45,3.0,2.33,5.04,0.3,0.04,0.84,2,3,1,0.3,9868,100,87,35,87,905,701.0,633,455,60,120.0,499,1,403,889,349,0,0,722,19188,-23490,703,45.701149,4.911873,67.06,195.3,0,0.0,0,0.0,0.6633,1,0.48,1.0607
63663,1560695557821,3,2.28,2.45,2.99,2.29,5.06,0.29,0.14,0.83,2,5,0,0.32,10251,100,87,35,86,1045,706.0,638,453,60,120.0,499,1,414,761,349,0,0,720,6658,-31066,704,,,,,,,,,,,,
63683,1560695557841,2,2.27,2.45,2.98,2.29,5.07,0.28,0.19,0.88,3,5,0,0.34,10245,100,87,35,85,1150,712.0,634,456,60,120.0,499,1,412,636,349,0,0,741,204,-2356,711,,,,,,,,,,,,
63703,1560695557861,3,2.27,2.48,3.01,2.31,5.06,0.2,0.07,0.96,2,4,0,0.22,10151,100,87,35,85,1241,717.0,641,455,60,120.0,499,1,406,577,349,0,0,752,-31068,-4096,717,,,,,,,,,,,,
63723,1560695557881,5,2.27,2.55,3.01,2.34,5.05,0.29,-0.02,0.94,2,4,1,0.29,10102,100,87,35,85,1302,717.0,622,456,60,119.0,499,1,399,577,349,0,0,757,16118,-31068,718,,,,,,,,,,,,
63743,1560695557907,5,2.28,2.58,3.04,2.37,5.05,0.29,0.01,0.93,2,3,1,0.29,10075,100,87,35,85,1376,724.0,634,458,60,120.0,308,1,400,577,221,0,0,749,-2918,-10216,717,45.701134,4.91186,68.41,195.3,0,0.0,0,0.0,0.665,1,0.49,1.0624
63763,1560695557927,2,2.28,2.59,3.06,2.35,5.04,0.23,0.07,0.97,2,3,-0,0.24,10168,100,87,35,85,1413,729.0,643,452,60,120.0,308,1,407,577,221,0,0,752,-2358,-2574,725,,,,,,,,,,,,
63783,1560695557947,2,2.28,2.57,3.09,2.33,5.08,0.33,-0.01,1.06,2,1,-2,0.33,10279,100,87,35,85,1378,733.0,651,453,60,120.0,308,1,414,577,221,0,0,746,-22796,-3450,729,,,,,,,,,,,,
63803,1560695557967,2,2.28,2.53,3.12,2.31,5.05,0.3,-0.02,1.05,2,1,-2,0.3,10439,100,87,35,85,1350,738.0,642,462,60,120.0,308,1,426,577,221,0,0,772,-2830,-10216,735,,,,,,,,,,,,
63823,1560695557987,5,2.28,2.51,3.13,2.31,5.07,0.3,-0.06,1.08,1,3,-1,0.3,10504,100,87,35,85,1251,744.0,644,453,60,120.0,308,1,431,577,221,0,0,777,-31066,-2344,740,,,,,,,,,,,,
63843,1560695557997,4,2.27,2.52,3.06,2.32,5.05,0.29,-0.09,1.08,2,3,-2,0.3,10611,100,87,35,85,1179,747.0,648,455,60,120.0,310,1,433,577,231,0,0,768,136,6389,746,45.701118,4.911847,70.78,195.3,0,0.0,0,0.0,0.6667,1,0.49,1.064
63863,1560695558017,3,2.27,2.51,2.97,2.32,5.06,0.36,-0.12,1.15,1,1,-3,0.38,10605,100,87,35,85,1145,749.0,640,458,60,119.0,310,1,433,577,231,0,0,775,136,-10218,749,,,,,,,,,,,,
63883,1560695558037,3,2.28,2.51,2.92,2.32,5.08,0.29,-0.17,1.16,2,1,-2,0.34,10653,100,87,35,85,1100,754.0,636,454,60,120.0,310,1,434,577,231,0,0,782,-3450,6900,751,,,,,,,,,,,,
63903,1560695558057,4,2.28,2.51,2.92,2.32,5.06,0.38,-0.27,1.24,2,2,-1,0.46,10569,100,87,35,85,1058,760.0,642,450,60,120.0,310,1,432,577,231,0,0,790,-10218,-31068,755,,,,,,,,,,,,
63923,1560695558077,7,2.28,2.51,2.99,2.32,5.04,0.34,-0.3,1.26,2,1,-2,0.45,10611,100,87,35,85,1015,763.0,647,457,60,120.0,310,1,433,577,231,0,0,790,-10218,-10218,761,,,,,,,,,,,,
63943,1560695558105,7,2.28,2.53,3.06,2.34,5.04,0.39,-0.27,1.23,1,-1,-3,0.47,10641,100,87,35,85,1008,766.0,650,460,60,120.0,303,1,434,577,232,0,0,795,-2826,-10216,763,45.701103,4.911832,72.39,195.3,0,0.0,0,0.0,0.6683,1,0.49,1.0657
63963,1560695558125,3,2.27,2.53,3.09,2.32,5.05,0.36,-0.23,1.16,1,0,-3,0.42,10800,100,87,35,85,1011,766.0,640,458,60,120.0,303,1,438,577,232,0,0,790,-2344,-1566,766,,,,,,,,,,,,
63983,1560695558145,2,2.29,2.53,3.12,2.31,5.06,0.4,-0.04,1.17,1,-1,-1,0.4,10958,100,87,35,85,1003,775.0,646,460,60,120.0,303,1,442,577,232,0,0,805,-23308,204,768,,,,,,,,,,,,
64003,1560695558165,5,2.27,2.51,3.15,2.29,5.08,0.41,-0.16,1.06,1,1,-2,0.44,11003,100,87,35,85,998,781.0,644,453,60,119.0,303,1,444,577,232,0,0,809,-2426,16118,775,,,,,,,,,,,,
64023,1560695558185,3,2.28,2.5,3.14,2.3,5.07,0.35,-0.05,1.01,2,4,-3,0.35,11134,100,87,35,85,987,786.0,651,458,60,120.0,303,1,443,577,232,0,0,830,-10218,-25858,786,,,,,,,,,,,,
64043,1560695558205,5,2.28,2.52,3.07,2.32,5.04,0.32,-0.05,1.04,2,1,-3,0.32,11234,100,87,35,84,980,789.0,653,460,60,120.0,302,1,442,559,237,0,0,814,3544,-4091,785,45.701088,4.911818,74.88,195.3,0,0.0,0,0.0,0.67,1,0.49,1.0674
64063,1560695558225,4,2.28,2.57,3.0,2.37,5.03,0.26,0.03,1.06,2,2,-4,0.26,11214,100,87,35,84,968,792.0,650,458,60,120.0,302,1,442,559,237,0,0,819,5344,-2574,786,,,,,,,,,,,,
64083,1560695558245,6,2.27,2.6,2.95,2.45,5.04,0.34,0.02,1.02,1,2,-4,0.35,11167,100,87,35,84,952,793.0,651,456,60,119.0,302,1,442,559,237,0,0,824,-2344,-4091,790,,,,,,,,,,,,
64103,1560695558265,2,2.28,2.58,2.94,2.45,5.03,0.34,-0.02,1.08,1,2,-3,0.34,11174,93,87,35,84,948,791.0,648,455,60,120.0,302,1,442,559,237,0,0,826,-8148,-2314,796,,,,,,,,,,,,
64123,1560695558285,5,2.29,2.48,2.96,2.41,5.07,0.47,0.09,1.01,0,-1,-2,0.48,11147,77,87,35,81,944,803.0,649,457,60,119.0,302,1,443,524,237,0,0,826,-2560,-3580,804,,,,,,,,,,,,
64143,1560695558305,3,2.3,2.41,3.11,2.3,5.05,0.46,-0.03,1.01,0,-1,-2,0.46,11120,62,87,35,75,933,810.0,648,455,60,120.0,264,1,445,481,214,0,0,832,-2830,-13068,811,45.701073,4.911804,76.45,195.3,0,0.0,0,0.0,0.6717,1,0.49,1.069
64163,1560695558325,8,2.29,2.38,3.22,2.24,5.04,0.45,0.07,0.84,1,2,-2,0.46,11241,48,87,35,67,925,813.0,661,455,60,120.0,264,1,446,447,214,0,0,843,-2830,-2830,813,,,,,,,,,,,,
64183,1560695558345,10,2.28,2.36,3.21,2.19,5.06,0.43,-0.06,0.95,2,0,-2,0.44,11174,37,87,35,58,913,816.0,659,456,60,120.0,264,1,426,370,214,0,0,819,-25858,-2356,811,,,,,,,,,,,,
64203,1560695558365,13,2.29,2.36,3.13,2.19,5.04,0.49,-0.08,0.92,1,2,-1,0.49,10751,31,87,35,52,907,812.0,653,460,60,120.0,264,1,394,317,214,0,0,826,-388,-2314,812,,,,,,,,,,,,
64223,1560695558385,17,2.29,2.36,3.11,2.17,5.07,0.49,-0.11,0.76,2,-1,-2,0.5,10515,26,87,35,48,894,805.0,650,453,60,120.0,264,1,382,257,214,0,0,801,204,-25858,801,,,,,,,,,,,,
64243,1560695558405,17,2.29,2.33,3.11,2.15,5.07,0.52,-0.11,0.62,2,0,-2,0.54,10273,24,87,35,45,874,796.0,653,459,60,120.0,119,1,365,238,95,0,0,803,-7436,-3450,796,45.701054,4.911789,78.25,195.4,0,0.0,0,0.0,0.6733,1,0.5,1.0707
64263,1560695558425,17,2.29,2.3,3.26,2.13,5.07,0.51,-0.15,0.56,3,-5,-2,0.54,10129,21,87,35,42,864,795.0,642,455,60,121.0,119,1,342,227,95,0,0,787,5344,-10216,795,,,,,,,,,,,,
64283,1560695558445,23,2.29,2.22,3.46,2.1,5.05,0.59,-0.15,0.5,3,-4,-1,0.61,9899,19,87,35,40,858,792.0,632,457,60,120.0,119,1,327,219,95,0,0,780,5344,3544,792,,,,,,,,,,,,
64303,1560695558465,19,2.29,2.18,3.62,2.06,5.04,0.59,-0.18,0.39,2,-5,-1,0.62,9827,17,87,35,38,850,792.0,646,457,60,120.0,119,1,317,214,95,0,0,738,-10218,-22796,792,,,,,,,,,,,,
64323,1560695558485,22,2.28,2.16,3.65,2.05,5.08,0.72,-0.23,0.44,2,-10,1,0.75,9878,16,87,35,36,843,792.0,644,463,60,120.0,119,1,311,210,95,0,0,703,-10218,-30694,792,,,,,,,,,,,,
64343,1560695558507,21,2.28,2.17,3.68,2.05,5.04,0.59,-0.13,0.34,2,-7,1,0.61,9745,15,87,35,34,840,781.0,652,463,60,120.0,98,1,305,205,77,0,0,662,-2574,24,782,45.701038,4.911774,78.74,195.4,0,0.0,0,0.0,0.675,1,0.5,1.0724
64363,1560695558527,21,2.28,2.18,3.66,2.04,5.04,0.73,-0.17,0.3,2,-7,-1,0.75,9488,13,87,35,32,841,780.0,644,461,60,120.0,98,1,300,196,77,0,0,644,-3368,31988,778,,,,,,,,,,,,
64383,1560695558547,25,2.28,2.16,3.62,2.04,5.05,0.86,-0.27,0.33,2,-9,-3,0.91,9300,11,87,35,30,849,770.0,647,461,60,121.0,98,1,291,192,77,0,0,639,-2826,-10399,769,,,,,,,,,,,,
64403,1560695558567,28,2.29,2.12,3.55,2.03,5.08,0.89,-0.38,0.3,2,-8,-2,0.97,9097,10,87,34,29,871,766.0,638,463,60,121.0,98,1,287,110,77,0,0,652,-2574,-4091,772,,,,,,,,,,,,
64423,1560695558587,30,2.29,2.03,3.5,1.99,5.07,0.9,-0.49,0.34,2,-8,-1,1.02,8903,10,87,34,27,888,763.0,635,461,60,121.0,98,1,278,188,77,0,0,675,-22795,-30694,763,,,,,,,,,,,,
64443,1560695558606,30,2.29,1.94,3.51,1.93,5.07,1.01,-0.57,0.39,1,-9,-3,1.16,8716,9,87,34,26,904,758.0,626,457,60,121.0,82,1,274,188,63,0,0,689,-4096,6790,758,45.701023,4.911759,76.28,195.4,0,0.0,0,0.0,0.6767,1,0.5,1.074
64463,1560695558626,28,2.29,1.87,3.51,1.87,5.04,1.11,-0.63,0.34,1,-11,-3,1.28,8648,9,87,34,25,913,753.0,627,456,60,120.0,82,1,270,188,63,0,0,673,1037,-3584,749,,,,,,,,,,,,
64483,1560695558646,28,2.29,1.77,3.52,1.79,5.07,1.1,-0.58,0.35,2,-8,-1,1.24,8729,9,87,34,24,917,742.0,629,456,60,120.0,82,1,270,181,63,0,0,652,3462,-3038,745,,,,,,,,,,,,
64503,1560695558666,30,2.3,1.8,3.51,1.78,5.05,0.99,-0.43,0.25,2,-8,0,1.08,8790,9,87,34,23,912,738.0,632,459,60,120.0,82,1,270,176,63,0,0,639,-2358,11566,734,,,,,,,,,,,,
64523,1560695558686,28,2.29,1.78,3.53,1.78,5.05,0.95,-0.4,0.25,3,-8,-2,1.03,8676,9,87,34,23,900,719.0,628,462,60,121.0,82,1,270,176,63,0,0,630,-3450,-16046,719,,,,,,,,,,,,
64543,1560695558707,27,2.29,1.77,3.57,1.77,5.07,1.05,-0.39,0.16,3,-7,-2,1.12,8511,9,87,34,23,889,721.0,625,456,60,120.0,78,1,270,176,57,0,0,627,6658,6208,719,45.701004,4.911745,73.48,195.4,0,0.0,0,0.0,0.6783,1,0.5,1.0757
64563,1560695558727,31,2.28,1.77,3.6,1.78,5.05,1.03,-0.33,0.0,3,-7,-0,1.08,8389,9,87,34,23,872,712.0,621,457,60,120.0,78,1,270,170,57,0,0,596,15647,479,712,,,,,,,,,,,,
64583,1560695558747,29,2.27,1.78,3.62,1.78,5.06,1.05,-0.3,0.08,3,-5,2,1.09,8281,9,87,34,23,862,704.0,621,460,60,121.0,78,1,270,166,57,0,0,545,6208,4909,702,,,,,,,,,,,,
64603,1560695558767,28,2.27,1.78,3.64,1.76,5.08,1.09,-0.21,0.05,3,-7,1,1.11,8113,9,87,34,23,861,702.0,602,462,60,120.0,78,1,270,162,57,0,0,509,3543,23619,702,,,,,,,,,,,,
64623,1560695558787,30,2.26,1.77,3.64,1.76,5.05,1.01,-0.14,0.0,4,-6,1,1.01,7961,9,87,34,24,864,693.0,567,461,60,121.0,78,1,269,156,57,0,0,471,24,3403,693,,,,,,,,,,,,
64643,1560695558806,29,2.26,1.75,3.62,1.73,5.05,0.93,-0.15,-0.02,5,-1,-1,0.95,7735,9,87,34,24,868,690.0,565,460,60,121.0,66,1,267,156,46,0,0,447,-2345,-2836,692,45.700989,4.911731,70.27,195.4,0,0.0,0,0.0,0.68,1,0.5,1.0774
64663,1560695558826,28,2.26,1.76,3.63,1.72,5.04,0.92,-0.25,-0.08,6,-1,0,0.95,7557,9,87,34,24,876,683.0,554,461,60,121.0,66,1,265,156,46,0,0,422,-10344,-14655,683,,,,,,,,,,,,
64683,1560695558846,31,2.24,1.75,3.59,1.72,5.04,0.89,-0.3,-0.09,6,2,1,0.94,7304,9,87,34,24,880,672.0,542,459,60,121.0,66,1,263,156,46,0,0,389,-3578,8958,672,,,,,,,,,,,,
64703,1560695558866,25,2.26,1.75,3.59,1.74,5.04,0.78,-0.21,-0.23,7,2,-0,0.8,7075,9,87,34,24,889,667.0,534,461,60,120.0,66,1,260,156,46,0,0,379,-26380,3543,667,,,,,,,,,,,,
64723,1560695558886,28,2.26,1.74,3.54,1.73,5.07,0.9,-0.28,-0.01,4,1,-0,0.94,6868,9,87,34,24,900,662.0,516,460,60,120.0,66,1,261,156,46,0,0,367,-30207,-6006,662,,,,,,,,,,,,
64743,1560695558906,26,2.25,1.74,3.46,1.73,5.06,0.88,-0.21,-0.08,4,2,-1,0.91,6609,9,87,34,24,907,658.0,505,461,60,120.0,59,1,263,155,39,0,0,368,-6006,479,658,45.700977,4.911717,66.72,195.4,0,0.0,0,0.0,0.6817,1,0.51,1.079
64763,1560695558926,26,2.25,1.73,3.47,1.72,5.04,0.92,-0.29,-0.06,3,1,-2,0.97,6432,9,87,34,25,912,648.0,497,456,60,121.0,59,1,266,159,39,0,0,383,11566,-14655,648,,,,,,,,,,,,
64783,1560695558946,25,2.26,1.74,3.47,1.72,5.04,1.03,-0.34,0.0,1,-1,-4,1.09,6273,9,87,34,25,917,641.0,485,465,60,120.0,59,1,268,159,39,0,0,364,-3584,17336,638,,,,,,,,,,,,
64803,1560695558966,25,2.26,1.75,3.49,1.73,5.03,1.13,-0.32,0.02,-1,-5,-5,1.17,6111,9,87,34,26,923,631.0,482,466,60,122.0,59,1,272,160,39,0,0,355,-14655,26688,631,,,,,,,,,,,,
64823,1560695558986,23,2.26,1.75,3.48,1.7,5.04,1.21,-0.34,0.09,-2,-8,-7,1.26,5944,9,87,34,27,933,623.0,470,463,60,122.0,59,1,274,161,39,0,0,346,506,1010,623,,,,,,,,,,,,
64843,1560695559000,25,2.27,1.75,3.49,1.68,5.07,1.29,-0.36,0.07,-4,-10,-8,1.34,5841,9,87,34,27,935,620.0,463,467,60,122.0,56,1,273,161,35,0,0,331,19320,8488,615,45.700962,4.911705,63.75,195.4,0,0.0,0,0.0,0.6833,1,0.51,1.0807
64863,1560695559020,26,2.27,1.75,3.52,1.67,5.04,1.37,-0.45,0.06,-6,-7,-8,1.44,5842,9,87,34,28,939,616.0,459,462,60,121.0,56,1,275,162,35,0,0,302,19304,16383,611,,,,,,,,,,,,
