"Interval"|"ms"|0|0|1,"Utc"|"ms"|0|0|1,"FB_p"|"bar"|0|300|50,"Volant"|"F"|0.0|300.0|50,"xFR"|"mm"|0.0|5.0|50,"xRR"|"mm"|0.0|5.0|50,"xFL"|"mm"|0.0|5.0|50,"xRL"|"mm"|0.0|5.0|50,"AccelX"|"G"|-3.0|3.0|50,"AccelY"|"G"|-3.0|3.0|50,"AccelZ"|"G"|-3.0|3.0|50,"Yaw"|"Deg/Sec"|-120|120|50,"Pitch"|"Deg/Sec"|-120|120|50,"Roll"|"Deg/Sec"|-120|120|50,"Gsum"|"G"|0.0|3.0|50,"RPM"|""|0|14000|50,"TPS"|"%"|0|100|50,"WaterTemp"|"?C"|0|300|50,"AirTemp"|"?C"|-1000|1000|50,"MAP"|"KPa"|0|255|50,"Lambda"|""|0|1024|50,"WheelSpeed"|"MPH"|0.0|150.0|50,"OilPress"|"PSI"|0|150|50,"FuelPress"|"PSI"|0|150|50,"OilTemp"|"F"|0|300|50,"Battery"|"Volts"|0.0|20.0|50,"FuelCon"|"L/h"|-1000|1000|50,"Gear"|""|0|10|50,"Advance"|"Deg"|-360|360|50,"Injection"|"ms"|-1000|1000|50,"FuelCon"|"L/100km"|-1000|1000|50,"LC_But_Pres"|""|-1000|1000|50,"LC_Active"|""|-1000|1000|50,"RD_Speed"|""|-1000|1000|50,"RUD_Speed"|""|-1000|1000|50,"LD_Speed"|""|-1000|1000|50,"LUD_Speed"|""|-1000|1000|50,"Latitude"|"Degrees"|-180.0|180.0|10,"Longitude"|"Degrees"|-180.0|180.0|10,"Speed"|"kph"|0.0|150.0|10,"Altitude"|"m"|0.0|4000.0|10,"LapCount"|""|0|0|10,"LapTime"|"Min"|0.0|0.0|10,"Sector"|""|0|0|10,"SectorTime"|"Min"|0.0|0.0|10,"ElapsedTime"|"Min"|0.0|0.0|10,"CurrentLap"|""|0|0|10,"Distance"|"km"|0.0|0.0|10,"SessionTime"|"Min"|0.0|0.0|10
896263,1560693424370,13,2.31,1.86,3.52,1.7,5.06,1.26,-0.09,-0.17,1,2,-5,1.27,8120,7,90,35,18,894,543.0,560,435,60,117.0,76,1,270,141,44,0,0,442,-8186,-21792,543,,,,,,,,,,,,
896283,1560693424390,14,2.31,1.84,3.55,1.68,5.06,1.26,-0.05,-0.06,1,-2,-4,1.26,8152,7,90,35,18,902,542.0,570,433,60,118.0,76,1,270,141,44,0,0,433,-28648,-8165,542,,,,,,,,,,,,
896303,1560693424409,15,2.31,1.85,3.55,1.69,5.05,1.26,-0.07,-0.14,1,-2,-4,1.26,8081,7,90,35,18,909,534.0,578,422,60,117.0,79,1,270,141,43,0,0,410,2524,-6387,535,,,,,,,,,,,,
896323,1560693424429,12,2.31,1.85,3.54,1.68,5.05,1.27,-0.08,-0.1,2,-3,-3,1.27,7995,7,90,35,18,911,530.0,565,427,60,118.0,79,1,269,140,43,0,0,420,-22519,10305,528,,,,,,,,,,,,
896343,1560693424449,12,2.31,1.86,3.56,1.68,5.05,1.22,-0.06,-0.08,3,-4,-3,1.23,7982,7,90,35,18,915,522.0,580,434,60,117.0,79,1,269,140,43,0,0,431,15679,3826,520,45.699009,4.910094,55.65,192.0,8,1.6267,0,0.0,1.06,9,0.76,14.939
896363,1560693424469,15,2.29,1.85,3.56,1.68,5.02,1.19,-0.02,-0.15,4,-2,-3,1.19,7992,7,90,35,18,919,518.0,563,427,60,117.0,79,1,269,140,43,0,0,419,26178,-32702,518,,,,,,,,,,,,
896383,1560693424491,11,2.3,1.82,3.57,1.68,5.07,1.13,-0.12,-0.11,4,-2,-2,1.13,7891,7,90,35,18,922,515.0,551,417,60,117.0,79,1,268,143,43,0,0,402,10994,5600,515,,,,,,,,,,,,
896403,1560693424511,11,2.3,1.82,3.56,1.7,5.05,1.21,-0.14,-0.06,4,-1,-2,1.22,7855,7,90,35,18,923,508.0,552,425,60,118.0,81,1,268,140,42,0,0,410,6274,-899,508,,,,,,,,,,,,
896423,1560693424531,10,2.3,1.87,3.56,1.71,5.05,1.22,-0.01,-0.12,4,-2,-0,1.22,7855,7,90,35,19,924,504.0,543,427,60,118.0,81,1,268,143,42,0,0,400,998,17628,504,,,,,,,,,,,,
896443,1560693424551,12,2.3,1.86,3.55,1.7,5.06,1.13,0.03,-0.19,5,-1,-0,1.13,7914,7,90,35,19,928,496.0,554,438,60,117.0,81,1,269,143,42,0,0,410,248,13552,496,45.698998,4.910084,53.41,192.0,8,1.6267,0,0.0,1.0617,9,0.76,14.9407
896463,1560693424571,6,2.3,1.86,3.56,1.7,5.06,1.08,-0.03,-0.13,5,-4,0,1.08,7938,7,90,35,19,933,489.0,550,452,60,118.0,81,1,269,143,42,0,0,435,-1562,13040,489,,,,,,,,,,,,
896483,1560693424591,6,2.31,1.86,3.55,1.7,5.06,1.17,-0.03,-0.08,5,-0,-1,1.17,7898,7,90,35,19,936,489.0,552,431,60,117.0,81,1,268,143,42,0,0,417,3580,13040,490,,,,,,,,,,,,
896503,1560693424609,8,2.3,1.85,3.53,1.73,5.06,1.15,-0.07,-0.1,5,-2,0,1.16,7874,7,90,35,19,940,487.0,558,424,60,117.0,85,1,268,143,42,0,0,424,10305,243,482,,,,,,,,,,,,
896523,1560693424629,4,2.3,1.85,3.51,1.74,5.04,1.07,-0.11,-0.16,5,-1,2,1.08,7931,7,90,35,19,945,476.0,551,433,60,117.0,85,1,269,143,42,0,0,431,-1923,3571,476,,,,,,,,,,,,
896543,1560693424649,5,2.3,1.85,3.51,1.75,5.04,1.15,-0.18,-0.08,5,-1,2,1.17,7985,7,90,35,19,948,472.0,551,442,60,118.0,85,1,269,143,42,0,0,450,-16384,243,473,45.69899,4.910073,50.33,192.0,8,1.6267,0,0.0,1.0633,9,0.76,14.9424
896563,1560693424669,5,2.29,1.86,3.51,1.74,5.04,1.03,-0.18,-0.03,5,0,1,1.05,8033,7,90,35,19,950,469.0,581,430,60,117.0,85,1,270,143,42,0,0,435,16408,3826,469,,,,,,,,,,,,
896583,1560693424689,-1,2.31,1.86,3.5,1.75,5.06,1.03,-0.19,-0.17,6,2,1,1.05,8088,7,90,35,18,949,465.0,571,436,60,118.0,85,1,270,141,42,0,0,430,-23623,-7939,465,,,,,,,,,,,,
896603,1560693424709,5,2.3,1.87,3.48,1.8,5.04,1.08,-0.18,-0.05,6,0,1,1.09,8088,7,90,35,19,946,465.0,568,427,60,117.0,90,1,270,141,42,0,0,432,17628,5600,462,,,,,,,,,,,,
896623,1560693424729,5,2.29,1.87,3.47,1.83,5.04,0.99,-0.2,-0.14,6,3,1,1.01,8116,7,90,35,18,943,459.0,576,435,60,117.0,90,1,270,141,42,0,0,432,-6387,21580,459,,,,,,,,,,,,
896643,1560693424749,2,2.29,1.88,3.45,1.82,5.04,1.07,-0.25,0.01,6,2,1,1.1,8169,7,90,36,18,940,454.0,566,431,60,118.0,90,1,270,145,42,0,0,433,-3267,5600,456,45.698978,4.910064,47.35,192.0,8,1.6267,0,0.0,1.065,9,0.76,14.944
896663,1560693424769,4,2.29,1.88,3.45,1.81,5.05,0.95,-0.22,-0.01,6,3,1,0.98,8187,7,90,36,18,936,450.0,574,424,60,117.0,90,1,270,141,42,0,0,435,8488,-3314,450,,,,,,,,,,,,
896683,1560693424789,2,2.29,1.89,3.45,1.83,5.07,0.98,-0.21,0.05,5,2,2,1.0,8138,7,90,36,18,934,450.0,567,442,60,117.0,90,1,270,141,42,0,0,430,16648,-3322,447,,,,,,,,,,,,
896703,1560693424809,3,2.29,1.94,3.41,1.84,5.07,0.94,-0.16,0.05,5,3,3,0.95,8134,7,90,36,18,932,446.0,563,435,60,117.0,96,1,270,141,43,0,0,438,2131,243,446,,,,,,,,,,,,
896723,1560693424829,-1,2.29,1.94,3.39,1.85,5.04,0.89,-0.13,0.05,5,4,4,0.9,8081,7,90,36,18,934,443.0,563,425,60,117.0,96,1,270,141,43,0,0,435,26704,243,442,,,,,,,,,,,,
896743,1560693424849,2,2.28,1.94,3.4,1.84,5.05,0.96,-0.13,0.18,4,2,4,0.97,8009,7,90,36,18,935,440.0,558,430,60,118.0,96,1,270,140,43,0,0,426,21580,13180,440,45.698971,4.910054,45.14,192.1,8,1.6267,0,0.0,1.0667,9,0.76,14.9457
896763,1560693424869,3,2.28,1.97,3.4,1.86,5.04,0.93,-0.06,0.05,4,4,5,0.94,7965,7,91,36,18,939,440.0,570,421,60,117.0,96,1,269,140,43,0,0,426,19477,-3314,440,,,,,,,,,,,,
896783,1560693424889,5,2.28,1.97,3.38,1.85,5.07,0.93,-0.02,0.01,3,4,6,0.94,7961,7,91,36,18,944,438.0,558,431,60,118.0,96,1,269,140,43,0,0,428,5600,-21944,435,,,,,,,,,,,,
896803,1560693424907,0,2.27,1.98,3.37,1.86,5.06,0.94,-0.02,0.15,3,2,6,0.94,7894,7,91,36,18,946,434.0,552,434,60,118.0,96,1,268,140,42,0,0,421,243,13180,434,,,,,,,,,,,,
896823,1560693424927,2,2.27,1.98,3.37,1.86,5.07,0.95,0.02,0.03,3,3,5,0.95,7881,7,91,36,18,949,432.0,560,426,60,118.0,96,1,268,140,42,0,0,419,-3314,-3414,432,,,,,,,,,,,,
896843,1560693424947,3,2.26,2.01,3.37,1.85,5.05,0.96,-0.02,0.02,3,3,5,0.96,7845,7,91,36,19,952,429.0,562,421,60,117.0,96,1,268,143,42,0,0,418,13180,-26615,429,45.698959,4.910045,43.98,192.1,8,1.6267,0,0.0,1.0683,9,0.76,14.9474
896863,1560693424967,2,2.26,2.01,3.36,1.86,5.04,0.9,-0.07,0.11,3,4,4,0.9,7776,7,90,36,19,955,427.0,540,420,60,118.0,96,1,267,143,42,0,0,419,31796,7154,427,,,,,,,,,,,,
896883,1560693424987,-1,2.24,2.01,3.37,1.85,5.08,0.95,-0.08,0.18,3,4,4,0.95,7773,7,90,36,19,957,425.0,539,425,60,118.0,96,1,267,143,42,0,0,414,-3856,18584,424,,,,,,,,,,,,
896903,1560693425003,-1,2.25,2.01,3.36,1.85,5.06,0.98,-0.09,0.26,2,2,3,0.99,7703,7,90,36,19,957,424.0,539,432,60,118.0,96,1,267,143,41,0,0,416,-4082,-4059,423,,,,,,,,,,,,
896923,1560693425023,1,2.23,2.02,3.35,1.83,5.06,1.06,-0.01,0.37,1,2,2,1.06,7703,7,90,36,19,958,423.0,539,429,60,118.0,96,1,267,143,41,0,0,412,3826,-4059,419,,,,,,,,,,,,
896943,1560693425043,1,2.23,2.05,3.33,1.84,5.05,1.05,0.07,0.29,0,0,1,1.06,7640,7,91,36,19,959,421.0,539,423,60,117.0,96,1,266,143,41,0,0,409,-21792,13040,418,45.698952,4.910035,42.64,192.1,8,1.6267,0,0.0,1.07,9,0.76,14.949
896963,1560693425063,0,2.22,2.07,3.33,1.84,5.07,0.97,0.14,0.21,0,0,0,0.98,7612,7,91,36,19,959,420.0,542,415,60,117.0,96,1,266,143,41,0,0,408,-3414,-9211,413,,,,,,,,,,,,
896983,1560693425083,0,2.22,2.06,3.33,1.83,5.06,0.94,0.18,0.11,-0,0,0,0.96,7600,7,91,36,19,959,418.0,544,413,60,117.0,96,1,266,143,41,0,0,411,-3414,28696,412,,,,,,,,,,,,
897003,1560693425109,2,2.2,2.09,3.31,1.83,5.05,0.84,0.23,0.02,-1,-1,0,0.87,7542,7,91,36,19,960,418.0,546,411,60,117.0,100,1,265,143,41,0,0,409,-3414,-9211,410,,,,,,,,,,,,
897023,1560693425129,2,2.2,2.16,3.3,1.85,5.05,0.8,0.23,-0.03,-1,-0,1,0.83,7527,7,91,36,19,960,416.0,539,418,60,116.0,100,1,265,143,41,0,0,403,18584,6384,407,,,,,,,,,,,,
897043,1560693425149,2,2.2,2.17,3.3,1.85,5.04,0.81,0.29,-0.05,-2,0,1,0.86,7470,7,91,36,19,960,413.0,546,415,60,117.0,100,1,264,143,41,0,0,404,-9166,11545,405,45.698944,4.910026,41.53,192.2,8,1.6267,0,0.0,1.0717,9,0.76,14.9507
897063,1560693425169,3,2.19,2.15,3.28,1.83,5.08,0.77,0.31,-0.04,-2,1,0,0.83,7464,7,91,36,20,960,411.0,532,413,60,117.0,100,1,264,145,41,0,0,403,-4059,-3968,403,,,,,,,,,,,,
897083,1560693425189,2,2.19,2.15,3.27,1.83,5.04,0.67,0.39,-0.07,-2,0,-2,0.78,7399,7,91,36,20,960,410.0,541,408,60,117.0,100,1,263,145,41,0,0,401,-4059,17144,401,,,,,,,,,,,,
897103,1560693425209,0,2.19,2.16,3.28,1.83,5.07,0.68,0.44,-0.1,-4,-1,-2,0.81,7378,7,91,36,20,960,407.0,516,403,60,118.0,100,1,263,145,40,0,0,401,9517,-1818,397,,,,,,,,,,,,
897123,1560693425229,-1,2.19,2.16,3.26,1.84,5.05,0.69,0.46,-0.1,-4,1,-3,0.83,7373,7,91,36,20,960,407.0,530,400,60,117.0,100,1,263,145,40,0,0,398,-26615,-6524,395,,,,,,,,,,,,
897143,1560693425249,1,2.18,2.16,3.23,1.83,5.06,0.74,0.5,0.0,-5,-1,-3,0.89,7301,7,91,36,20,960,405.0,524,403,60,118.0,100,1,263,145,40,0,0,398,-9211,-6475,393,45.698936,4.910018,40.92,192.2,8,1.6267,0,0.0,1.0733,9,0.77,14.9524
897163,1560693425269,3,2.18,2.16,3.24,1.82,5.05,0.86,0.47,0.19,-6,-2,-4,0.98,7290,7,91,36,20,959,403.0,515,405,60,118.0,100,1,262,145,40,0,0,394,-8151,-6475,391,,,,,,,,,,,,
897183,1560693425289,3,2.18,2.17,3.25,1.83,5.05,0.88,0.33,0.23,-6,-1,-5,0.94,7222,7,91,36,20,956,400.0,506,404,60,118.0,100,1,262,145,40,0,0,389,6512,3,390,,,,,,,,,,,,
897203,1560693425310,3,2.19,2.17,3.24,1.83,5.04,0.84,0.31,0.19,-5,0,-5,0.9,7219,7,91,36,20,954,399.0,505,401,60,118.0,100,1,262,145,39,0,0,390,28696,-992,389,,,,,,,,,,,,
897223,1560693425330,0,2.18,2.16,3.24,1.84,5.06,0.78,0.41,0.04,-5,4,-5,0.88,7148,7,91,36,20,950,398.0,512,399,60,117.0,100,1,261,145,39,0,0,389,6384,-19126,385,,,,,,,,,,,,
897243,1560693425350,5,2.19,2.16,3.24,1.83,5.07,0.86,0.44,0.2,-6,0,-5,0.97,7118,7,91,36,21,950,396.0,503,399,60,118.0,100,1,261,148,39,0,0,384,-32702,2278,384,45.698929,4.910009,39.52,192.2,8,1.6267,0,0.0,1.075,9,0.77,14.9541
897263,1560693425370,4,2.18,2.16,3.24,1.83,5.05,0.96,0.4,0.3,-7,1,-6,1.04,7113,7,91,36,21,950,393.0,501,393,60,118.0,100,1,261,148,39,0,0,382,-6656,3,383,,,,,,,,,,,,
897283,1560693425390,2,2.19,2.16,3.23,1.84,5.04,0.86,0.42,0.25,-6,3,-6,0.96,7062,7,91,36,21,950,392.0,514,395,60,117.0,100,1,260,148,39,0,0,385,1,-6656,380,,,,,,,,,,,,
897303,1560693425410,-1,2.19,2.16,3.24,1.83,5.05,0.85,0.51,0.21,-7,3,-6,0.99,7051,7,91,36,21,953,391.0,512,391,60,117.0,102,1,260,148,39,0,0,380,-6524,257,378,,,,,,,,,,,,
897323,1560693425430,4,2.19,2.17,3.26,1.84,5.04,0.88,0.36,0.37,-7,2,-8,0.95,7011,7,91,36,21,956,387.0,505,384,60,118.0,102,1,260,148,39,0,0,379,240,486,375,,,,,,,,,,,,
897343,1560693425450,0,2.2,2.16,3.28,1.84,5.04,0.94,0.37,0.25,-7,5,-8,1.01,6954,7,91,36,21,958,385.0,502,391,60,118.0,102,1,260,147,39,0,0,373,-6475,0,375,45.698917,4.910001,38.69,192.3,8,1.6267,0,0.0,1.0767,9,0.77,14.9557
897363,1560693425470,4,2.19,2.16,3.27,1.83,5.08,0.79,0.43,0.27,-6,3,-9,0.9,6916,7,91,36,22,960,383.0,498,388,60,117.0,102,1,260,147,39,0,0,376,-19126,0,373,,,,,,,,,,,,
897383,1560693425490,0,2.21,2.16,3.26,1.83,5.05,0.91,0.29,0.36,-7,1,-10,0.96,6900,7,91,36,22,960,382.0,488,384,60,118.0,102,1,260,149,39,0,0,376,19125,3082,372,,,,,,,,,,,,
897403,1560693425510,-1,2.21,2.17,3.26,1.84,5.07,0.82,0.39,0.24,-6,2,-10,0.91,6860,7,91,36,22,961,379.0,495,381,60,117.0,102,1,260,149,38,0,0,368,8200,-6405,368,,,,,,,,,,,,
897423,1560693425530,2,2.22,2.17,3.27,1.84,5.04,0.88,0.22,0.35,-7,1,-10,0.91,6830,7,91,36,22,964,376.0,480,381,60,118.0,102,1,260,149,38,0,0,369,3,3082,368,,,,,,,,,,,,
897443,1560693425550,-0,2.22,2.16,3.27,1.84,5.03,0.91,0.28,0.24,-6,4,-9,0.95,6820,7,91,36,22,966,375.0,490,389,60,117.0,102,1,260,149,38,0,0,367,770,2060,365,45.698914,4.909993,38.38,192.3,8,1.6267,0,0.0,1.0783,9,0.77,14.9574
897463,1560693425570,4,2.22,2.15,3.27,1.84,5.04,0.86,0.19,0.38,-6,3,-8,0.88,6788,7,91,36,22,969,372.0,486,375,60,119.0,102,1,260,149,38,0,0,363,1,-6640,365,,,,,,,,,,,,
897483,1560693425590,-1,2.25,2.16,3.27,1.84,5.06,0.94,0.2,0.33,-5,5,-7,0.96,6730,7,91,36,23,973,370.0,485,384,60,117.0,102,1,261,152,38,0,0,366,486,-1268,363,,,,,,,,,,,,
897503,1560693425610,1,2.26,2.16,3.27,1.88,5.06,0.92,0.14,0.45,-6,1,-7,0.93,6694,7,91,36,23,979,369.0,477,380,60,118.0,104,1,262,152,38,0,0,361,-6656,-29978,362,,,,,,,,,,,,
897523,1560693425630,1,2.26,2.15,3.27,1.87,5.04,0.85,0.21,0.38,-4,1,-7,0.87,6670,7,91,36,23,983,365.0,481,383,60,117.0,104,1,262,151,38,0,0,360,-6405,2060,362,,,,,,,,,,,,
897543,1560693425650,-0,2.29,2.15,3.28,1.89,5.06,0.97,0.13,0.47,-5,-1,-7,0.98,6658,7,91,36,23,986,364.0,475,380,60,119.0,104,1,262,151,38,0,0,355,-1268,3302,358,45.698902,4.909985,38.12,192.3,8,1.6267,0,0.0,1.08,9,0.77,14.9591
897563,1560693425670,3,2.29,2.14,3.32,1.92,5.04,0.89,0.14,0.45,-4,-1,-8,0.9,6588,7,91,36,23,988,361.0,477,378,60,118.0,104,1,262,151,38,0,0,353,-6458,28553,358,,,,,,,,,,,,
897583,1560693425690,0,2.3,2.11,3.34,1.91,5.05,0.93,0.08,0.35,-3,-0,-7,0.93,6560,7,91,37,23,991,358.0,459,378,60,118.0,104,1,262,151,38,0,0,348,-6640,3183,358,,,,,,,,,,,,
897603,1560693425708,2,2.32,2.09,3.34,1.92,5.05,0.92,-0.01,0.43,-3,0,-6,0.92,6526,7,91,37,24,995,358.0,467,383,60,118.0,106,1,263,154,38,0,0,350,2060,2060,358,,,,,,,,,,,,
897623,1560693425728,5,2.32,2.11,3.33,1.95,5.04,0.88,0.05,0.42,-2,1,-6,0.88,6492,7,91,37,24,994,358.0,472,389,60,117.0,106,1,264,154,38,0,0,349,3302,3183,358,,,,,,,,,,,,
897643,1560693425748,-1,2.33,2.11,3.33,1.95,5.05,0.96,0.04,0.39,-1,0,-4,0.96,6476,7,91,37,24,996,355.0,461,385,60,119.0,106,1,264,154,38,0,0,346,-30454,-30454,355,45.698898,4.909977,36.68,192.5,8,1.6267,0,0.0,1.0817,9,0.77,14.9607
897663,1560693425768,1,2.33,2.08,3.36,1.95,5.08,0.96,-0.06,0.51,-1,-2,-4,0.97,6456,7,91,37,24,997,353.0,458,389,60,119.0,106,1,264,154,38,0,0,342,8841,-10554,353,,,,,,,,,,,,
897683,1560693425788,2,2.33,2.07,3.37,1.94,5.08,0.83,-0.01,0.5,0,0,-4,0.83,6410,7,91,37,25,997,352.0,472,386,60,118.0,106,1,266,158,38,0,0,341,-30438,-14714,352,,,,,,,,,,,,
897703,1560693425810,4,2.33,2.07,3.36,1.98,5.04,0.9,0.08,0.42,1,2,-3,0.9,6371,7,91,37,25,998,353.0,461,388,60,118.0,108,1,267,158,38,0,0,339,6870,-31206,353,,,,,,,,,,,,
897723,1560693425830,0,2.33,2.07,3.37,1.99,5.05,1.0,-0.02,0.42,1,2,-2,1.0,6349,7,91,37,25,998,351.0,449,383,60,119.0,108,1,267,158,38,0,0,339,-31206,3327,349,,,,,,,,,,,,
897743,1560693425850,1,2.34,2.07,3.36,1.99,5.06,1.08,-0.07,0.51,1,-2,-1,1.08,6306,7,91,37,25,1001,348.0,456,387,60,118.0,108,1,267,158,38,0,0,336,-31206,6668,348,45.698887,4.909971,35.83,192.6,8,1.6267,0,0.0,1.0833,9,0.77,14.9624
897763,1560693425870,1,2.35,2.04,3.35,1.98,5.07,1.0,-0.1,0.58,2,-4,-1,1.0,6279,7,91,37,25,1002,346.0,453,384,60,118.0,108,1,268,158,38,0,0,335,3327,-31206,346,,,,,,,,,,,,
897783,1560693425890,2,2.36,2.02,3.34,1.98,5.04,0.93,-0.08,0.58,2,-5,-0,0.94,6266,7,91,37,26,1002,345.0,453,389,60,118.0,108,1,271,159,38,0,0,334,-31222,6668,345,,,,,,,,,,,,
897803,1560693425910,3,2.38,2.02,3.35,1.98,5.07,0.89,-0.04,0.51,4,-4,1,0.89,6239,7,91,37,26,1003,345.0,454,397,60,118.0,107,1,271,159,37,0,0,332,13,2560,345,,,,,,,,,,,,
897823,1560693425930,1,2.39,2.03,3.36,2.01,5.04,0.84,-0.02,0.4,5,-2,2,0.84,6229,7,91,37,26,1005,344.0,448,393,60,119.0,107,1,271,159,37,0,0,330,-6528,-32559,344,,,,,,,,,,,,
897843,1560693425950,1,2.4,2.03,3.39,2.06,5.05,0.92,-0.08,0.32,5,-0,3,0.92,6194,7,91,37,26,1006,343.0,448,388,60,119.0,107,1,272,159,37,0,0,326,-32559,3346,342,45.698879,4.909966,33.62,192.6,8,1.6267,0,0.0,1.085,9,0.77,14.9641
897863,1560693425970,0,2.43,2.02,3.4,2.06,5.05,1.01,-0.21,0.31,5,0,4,1.03,6161,7,91,37,27,1006,343.0,447,399,60,119.0,107,1,275,159,37,0,0,321,170,-32559,343,,,,,,,,,,,,
897883,1560693425990,0,2.45,2.02,3.42,2.08,5.05,1.08,-0.32,0.34,5,-0,5,1.13,6113,7,91,37,27,1006,341.0,446,400,60,118.0,107,1,275,160,37,0,0,321,165,4838,341,,,,,,,,,,,,
897903,1560693426004,0,2.47,2.01,3.44,2.1,5.03,1.18,-0.43,0.4,5,-1,6,1.25,6073,7,91,37,27,1006,341.0,442,407,60,118.0,105,1,275,160,36,0,0,320,155,-12032,342,,,,,,,,,,,,
897923,1560693426024,-0,2.48,1.99,3.46,2.1,5.04,1.26,-0.51,0.43,5,-3,7,1.36,6044,7,91,37,27,1005,341.0,439,410,60,118.0,105,1,275,160,36,0,0,313,150,4838,341,,,,,,,,,,,,
897943,1560693426044,0,2.5,1.96,3.46,2.1,5.06,1.32,-0.56,0.49,5,-5,9,1.44,6036,7,91,37,27,1003,341.0,442,419,60,118.0,105,1,275,160,36,0,0,314,-29696,13,341,45.698875,4.90996,33.79,192.7,8,1.6267,0,0.0,1.0867,9,0.77,14.9657
897963,1560693426064,0,2.52,1.93,3.47,2.1,5.04,1.39,-0.61,0.52,5,-6,11,1.52,6017,7,91,37,27,1001,339.0,440,422,60,118.0,105,1,275,160,36,0,0,310,135,-32559,339,,,,,,,,,,,,
897983,1560693426084,0,2.52,1.93,3.48,2.12,5.04,1.46,-0.68,0.55,5,-8,12,1.61,5961,7,91,37,28,999,339.0,439,435,60,118.0,105,1,277,161,36,0,0,305,125,-12032,339,,,,,,,,,,,,
898003,1560693426109,-1,2.54,1.94,3.49,2.17,5.08,1.51,-0.74,0.6,6,-9,14,1.68,5929,7,91,37,28,998,340.0,431,442,60,118.0,106,1,277,161,36,0,0,303,120,170,339,,,,,,,,,,,,
898023,1560693426129,-0,2.54,1.93,3.53,2.18,5.08,1.56,-0.8,0.53,5,-8,15,1.76,5868,7,91,37,28,997,339.0,422,440,60,118.0,106,1,276,161,36,0,0,299,29440,-20736,339,,,,,,,,,,,,
898043,1560693426149,4,2.55,1.91,3.57,2.17,5.04,1.6,-0.86,0.52,6,-6,17,1.81,5839,7,91,37,29,997,337.0,432,442,60,119.0,106,1,278,162,36,0,0,298,28160,170,337,45.698864,4.909954,32.61,192.8,8,1.6267,0,0.0,1.0883,9,0.77,14.9674
898063,1560693426169,3,2.56,1.89,3.58,2.17,5.07,1.48,-0.86,0.42,8,-2,19,1.71,5799,7,91,37,29,996,337.0,423,438,60,119.0,106,1,277,163,36,0,0,293,105,-23296,337,,,,,,,,,,,,
898083,1560693426189,3,2.56,1.9,3.58,2.23,5.04,1.24,-0.81,0.37,13,-1,20,1.48,5749,7,91,37,30,995,337.0,421,433,60,117.0,106,1,279,163,36,0,0,293,26880,-12032,337,,,,,,,,,,,,
898103,1560693426210,2,2.57,1.9,3.56,2.22,5.04,1.07,-0.74,0.44,17,-2,22,1.3,5718,7,91,37,31,993,335.0,418,435,60,116.0,104,1,281,164,35,0,0,290,90,-22016,334,,,,,,,,,,,,
898123,1560693426230,-1,2.59,1.89,3.57,2.23,5.05,1.16,-0.76,0.44,17,-6,24,1.39,5674,7,91,37,32,991,332.0,409,448,60,117.0,104,1,283,164,35,0,0,284,85,165,332,,,,,,,,,,,,
898143,1560693426250,4,2.59,1.89,3.58,2.22,5.08,1.25,-0.82,0.44,15,-5,26,1.5,5649,7,91,37,32,988,329.0,400,437,60,118.0,104,1,282,164,35,0,0,285,20480,155,329,45.698856,4.909946,31.73,192.9,8,1.6267,0,0.0,1.09,9,0.78,14.9691
898163,1560693426270,1,2.61,1.89,3.59,2.21,5.07,1.11,-0.81,0.34,17,-1,27,1.38,5622,8,91,37,33,985,329.0,399,433,60,119.0,104,1,285,170,35,0,0,282,20480,-28416,329,,,,,,,,,,,,
898183,1560693426290,0,2.61,1.91,3.63,2.22,5.04,0.91,-0.79,0.35,21,0,27,1.2,5618,10,90,37,34,982,328.0,409,453,60,117.0,104,1,288,176,35,0,0,280,0,-28416,328,,,,,,,,,,,,
898203,1560693426310,-1,2.61,1.91,3.64,2.22,5.04,1.02,-0.82,0.43,22,-4,29,1.31,5622,11,90,37,35,979,326.0,406,456,60,118.0,112,1,292,181,37,0,0,277,10686,-27136,326,,,,,,,,,,,,
898223,1560693426330,4,2.61,1.9,3.63,2.22,5.07,1.12,-0.84,0.43,19,-2,31,1.4,5563,12,90,37,36,976,325.0,397,430,60,118.0,112,1,294,186,37,0,0,275,-16896,-27136,325,,,,,,,,,,,,
898243,1560693426350,-0,2.62,1.89,3.56,2.23,5.03,0.86,-0.84,0.38,23,0,32,1.2,5487,13,90,37,38,973,325.0,396,440,60,117.0,112,1,300,197,37,0,0,275,250,-29696,325,45.698856,4.90994,30.17,193.1,8,1.6267,0,0.0,1.0917,9,0.78,14.9707
898263,1560693426370,0,2.61,1.9,3.54,2.21,5.05,0.95,-0.8,0.42,25,-3,34,1.24,5444,13,90,37,40,969,323.0,394,450,60,118.0,112,1,307,204,37,0,0,274,24064,-29696,323,,,,,,,,,,,,
898283,1560693426390,3,2.62,1.9,3.55,2.22,5.08,0.96,-0.88,0.42,23,-1,35,1.3,5430,14,90,37,41,967,322.0,388,441,60,118.0,112,1,310,207,37,0,0,270,250,130,322,,,,,,,,,,,,
898303,1560693426409,0,2.61,1.89,3.57,2.21,5.04,0.85,-0.81,0.41,27,-2,36,1.17,5479,14,90,37,42,964,319.0,407,447,60,117.0,130,1,314,208,42,0,0,268,30208,125,319,,,,,,,,,,,,
898323,1560693426429,0,2.61,1.9,3.57,2.19,5.07,0.96,-0.81,0.47,26,-5,36,1.26,5461,15,90,37,44,958,317.0,399,449,60,117.0,130,1,320,212,42,0,0,270,30208,125,317,,,,,,,,,,,,
898343,1560693426449,2,2.6,1.92,3.58,2.21,5.08,0.75,-0.82,0.33,26,-2,36,1.11,5428,15,90,37,45,955,316.0,385,447,60,119.0,130,1,322,213,42,0,0,267,-1527,30720,317,45.698849,4.909934,28.83,193.1,8,1.6267,0,0.0,1.0933,9,0.78,14.9724
898363,1560693426469,0,2.59,1.95,3.58,2.24,5.08,0.77,-0.77,0.39,29,-6,37,1.09,5417,16,90,37,47,953,315.0,397,452,60,117.0,130,1,328,217,42,0,0,268,-1527,115,315,,,,,,,,,,,,
898383,1560693426489,2,2.59,1.95,3.57,2.24,5.05,0.9,-0.73,0.41,25,-5,38,1.15,5374,16,90,37,48,949,313.0,375,441,60,118.0,130,1,325,217,42,0,0,266,2414,32000,313,,,,,,,,,,,,
898403,1560693426509,-0,2.58,1.96,3.56,2.24,5.08,0.67,-0.72,0.35,29,-2,37,0.98,5383,16,90,37,49,945,312.0,390,445,60,118.0,143,1,327,224,45,0,0,268,28160,115,312,,,,,,,,,,,,
898423,1560693426529,4,2.56,1.96,3.53,2.23,5.08,0.8,-0.69,0.43,27,-6,39,1.06,5386,16,90,37,50,940,312.0,390,450,60,117.0,143,1,328,227,45,0,0,268,-1281,105,312,,,,,,,,,,,,
898443,1560693426549,0,2.54,1.98,3.51,2.23,5.04,0.63,-0.71,0.38,26,-3,39,0.94,5384,17,90,37,51,940,310.0,376,442,60,118.0,143,1,328,231,45,0,0,268,250,110,310,45.698841,4.909927,27.57,193.2,8,1.6267,0,0.0,1.095,9,0.78,14.974
898463,1560693426569,-1,2.52,2.0,3.5,2.22,5.04,0.69,-0.62,0.45,28,-6,38,0.92,5386,17,90,37,52,937,307.0,384,450,60,117.0,143,1,329,235,45,0,0,269,28160,30720,307,,,,,,,,,,,,
898483,1560693426589,4,2.49,1.99,3.49,2.21,5.05,0.73,-0.66,0.45,24,-2,37,0.98,5360,17,90,37,53,931,305.0,373,452,60,119.0,143,1,327,235,45,0,0,272,2414,95,305,,,,,,,,,,,,
898503,1560693426609,-0,2.45,2.0,3.45,2.2,5.04,0.66,-0.56,0.44,27,-3,37,0.86,5381,17,90,37,53,926,303.0,387,450,60,117.0,157,1,329,243,48,0,0,271,2414,105,303,,,,,,,,,,,,
898523,1560693426629,4,2.43,2.02,3.38,2.2,5.04,0.79,-0.54,0.46,23,-5,37,0.96,5395,18,90,37,54,921,301.0,379,442,60,118.0,157,1,331,243,48,0,0,274,2414,25600,301,,,,,,,,,,,,
898543,1560693426649,-1,2.39,2.04,3.33,2.18,5.06,0.56,-0.54,0.38,22,-0,34,0.78,5433,18,90,37,55,917,300.0,385,450,60,119.0,157,1,335,246,48,0,0,276,250,23040,300,45.698837,4.90992,26.86,193.3,8,1.6267,0,0.0,1.0967,9,0.78,14.9757
898563,1560693426669,-0,2.35,2.07,3.34,2.17,5.08,0.7,-0.43,0.48,22,-5,33,0.82,5430,18,90,37,56,910,297.0,384,446,60,117.0,157,1,337,248,48,0,0,275,250,21760,297,,,,,,,,,,,,
898583,1560693426691,3,2.32,2.12,3.33,2.16,5.06,0.83,-0.37,0.45,17,-5,33,0.91,5477,19,90,37,56,900,295.0,377,441,60,118.0,157,1,339,248,48,0,0,278,630,20480,295,,,,,,,,,,,,
898603,1560693426711,2,2.27,2.2,3.33,2.14,5.06,0.65,-0.34,0.36,16,-0,31,0.73,5547,19,90,37,57,895,293.0,385,434,60,118.0,176,1,344,250,52,0,0,282,-1534,0,293,,,,,,,,,,,,
898623,1560693426731,-2,2.24,2.24,3.31,2.11,5.06,0.57,-0.2,0.49,17,0,28,0.61,5597,20,90,37,58,891,291.0,402,454,60,116.0,176,1,348,251,52,0,0,282,-1529,0,288,,,,,,,,,,,,
898643,1560693426751,0,2.2,2.26,3.25,2.09,5.07,0.72,-0.16,0.51,14,-3,25,0.74,5676,20,90,37,58,889,287.0,405,458,60,118.0,176,1,355,251,52,0,0,282,-16896,-16896,287,45.698837,4.909912,26.52,193.3,8,1.6267,0,0.0,1.0983,9,0.78,14.9774
898663,1560693426771,-1,2.16,2.27,3.21,2.09,5.04,0.85,-0.21,0.52,10,-3,21,0.87,5763,21,90,37,58,887,288.0,406,444,60,118.0,176,1,362,251,52,0,0,287,0,250,285,,,,,,,,,,,,
898683,1560693426791,-0,2.12,2.27,3.18,2.08,5.04,0.97,-0.23,0.5,5,-4,19,0.99,5863,22,90,37,58,888,289.0,408,446,60,118.0,176,1,371,252,52,0,0,288,0,1886,283,,,,,,,,,,,,
898703,1560693426811,-0,2.09,2.3,3.14,2.07,5.04,1.0,-0.15,0.4,3,-4,16,1.02,5956,24,90,37,57,891,292.0,420,434,60,119.0,197,1,379,252,56,0,0,291,20480,24064,282,,,,,,,,,,,,
898723,1560693426831,1,2.08,2.36,3.09,2.04,5.06,1.04,-0.09,0.41,0,-3,13,1.04,6034,25,90,37,57,897,294.0,429,430,60,118.0,197,1,384,253,56,0,0,295,85,-1529,279,,,,,,,,,,,,
898743,1560693426851,3,2.07,2.42,3.02,2.05,5.06,1.0,-0.02,0.42,-2,-2,10,1.0,5903,27,90,37,58,906,297.0,419,425,60,119.0,197,1,374,251,56,0,0,301,24320,21760,278,45.698833,4.909904,26.8,193.3,8,1.6267,0,0.0,1.1,9,0.78,14.979
898763,1560693426871,1,2.04,2.47,2.97,2.05,5.07,0.79,0.03,0.43,-3,2,7,0.79,5718,27,90,37,59,912,301.0,418,407,60,117.0,197,1,358,251,56,0,0,304,26880,29440,280,,,,,,,,,,,,
898783,1560693426891,0,2.03,2.49,2.91,2.05,5.07,0.83,0.19,0.49,-2,3,3,0.85,5526,28,90,37,61,918,306.0,403,400,60,117.0,197,1,335,256,56,0,0,310,115,110,284,,,,,,,,,,,,
898803,1560693426911,0,2.02,2.5,2.92,2.06,5.05,0.84,0.16,0.55,-5,1,-0,0.86,5296,28,90,37,63,929,308.0,378,403,60,119.0,186,1,317,276,53,0,0,309,120,25600,286,,,,,,,,,,,,
898823,1560693426931,-0,2.01,2.49,2.95,2.05,5.07,0.79,0.34,0.52,-5,-0,-3,0.86,5244,28,90,37,65,940,309.0,380,411,60,117.0,186,1,308,290,53,0,0,308,32000,0,285,,,,,,,,,,,,
898843,1560693426951,2,2.01,2.47,3.03,2.05,5.07,0.86,0.24,0.53,-10,-1,-7,0.9,5250,29,90,37,67,946,309.0,374,422,60,118.0,186,1,305,305,53,0,0,311,32000,1886,283,45.69883,4.909897,26.45,193.3,8,1.6267,0,0.0,1.1017,9,0.78,14.9807
898863,1560693426971,-1,2.01,2.45,3.08,2.06,5.04,0.85,0.31,0.54,-9,-1,-9,0.9,5241,30,90,37,69,954,310.0,374,451,60,117.0,186,1,301,320,53,0,0,309,125,24064,281,,,,,,,,,,,,
898883,1560693426991,2,2.0,2.44,3.12,2.02,5.08,0.9,0.21,0.51,-14,1,-11,0.92,5233,32,90,37,70,969,312.0,364,443,60,119.0,186,1,300,327,53,0,0,308,-32256,-1534,282,,,,,,,,,,,,
898903,1560693427005,-1,2.0,2.45,3.1,2.0,5.07,0.76,0.29,0.51,-12,1,-14,0.81,5357,32,90,37,72,996,314.0,378,434,60,117.0,230,1,307,345,65,0,0,308,135,250,282,,,,,,,,,,,,
898923,1560693427025,4,1.99,2.46,3.08,1.99,5.05,0.87,0.33,0.52,-15,1,-16,0.93,5392,33,90,37,73,1025,315.0,379,420,60,118.0,230,1,310,348,65,0,0,311,-29696,24064,280,,,,,,,,,,,,
898943,1560693427045,2,1.99,2.46,3.07,1.97,5.06,0.78,0.36,0.53,-16,3,-17,0.86,5487,33,90,37,73,1045,315.0,380,420,60,118.0,230,1,316,361,65,0,0,312,-29696,630,280,45.698822,4.90989,26.45,193.4,8,1.6267,0,0.0,1.1033,9,0.78,14.9824
898963,1560693427065,-1,2.0,2.46,3.03,1.95,5.05,0.75,0.49,0.55,-15,2,-20,0.9,5570,33,90,37,73,1075,315.0,390,436,60,116.0,230,1,322,364,65,0,0,309,-29696,-1534,280,,,,,,,,,,,,
898983,1560693427085,-0,1.99,2.46,3.02,1.96,5.04,0.83,0.43,0.58,-17,2,-23,0.94,5650,34,90,37,73,1108,314.0,394,455,60,118.0,230,1,327,369,65,0,0,310,135,30208,279,,,,,,,,,,,,
899003,1560693427109,-0,2.0,2.45,3.03,1.95,5.07,0.88,0.38,0.53,-19,1,-25,0.96,5830,34,90,37,72,1130,314.0,396,445,60,119.0,286,1,341,363,80,0,0,309,135,630,279,,,,,,,,,,,,
899023,1560693427129,-0,2.0,2.44,3.07,1.95,5.04,0.86,0.31,0.51,-20,-1,-27,0.92,6062,34,90,37,71,1145,313.0,405,437,60,118.0,286,1,357,353,80,0,0,309,130,30208,278,,,,,,,,,,,,
899043,1560693427149,3,2.0,2.45,3.09,1.95,5.08,0.85,0.31,0.6,-21,1,-29,0.91,6275,34,90,37,70,1161,313.0,426,432,60,118.0,286,1,365,340,80,0,0,313,-30976,10686,281,45.698818,4.909883,27.29,193.4,8,1.6267,0,0.0,1.105,9,0.78,14.984
899063,1560693427169,3,2.0,2.51,3.05,1.99,5.04,0.76,0.38,0.71,-21,1,-29,0.85,6250,34,90,37,69,1176,316.0,441,432,60,117.0,286,1,364,325,80,0,0,318,140,135,282,,,,,,,,,,,,
899083,1560693427191,4,2.0,2.56,3.0,2.02,5.04,0.65,0.45,0.76,-21,2,-30,0.79,6085,34,90,37,69,1190,320.0,437,443,60,117.0,286,1,359,322,80,0,0,323,150,8841,283,,,,,,,,,,,,
899103,1560693427211,2,2.01,2.58,2.94,2.03,5.08,0.6,0.52,0.79,-20,2,-30,0.79,6017,34,90,37,69,1193,320.0,433,446,60,117.0,256,1,357,321,73,0,0,323,150,170,288,,,,,,,,,,,,
899123,1560693427231,2,2.01,2.58,2.92,2.03,5.04,0.61,0.59,0.8,-20,3,-31,0.85,5935,35,90,37,69,1194,321.0,426,461,60,117.0,256,1,352,321,73,0,0,325,-25856,125,290,,,,,,,,,,,,
899143,1560693427251,2,2.02,2.58,2.93,2.02,5.04,0.63,0.6,0.83,-20,2,-31,0.87,5857,35,90,37,69,1187,324.0,421,455,60,116.0,256,1,346,321,73,0,0,325,160,29440,291,45.698814,4.909875,28.38,193.3,8,1.6267,0,0.0,1.1067,9,0.78,14.9857
899163,1560693427271,-0,2.03,2.56,2.95,2.03,5.04,0.67,0.58,0.85,-20,2,-31,0.89,5812,35,90,37,69,1183,325.0,403,456,60,118.0,256,1,343,321,73,0,0,325,-23296,130,294,,,,,,,,,,,,
899183,1560693427291,0,2.03,2.55,3.0,2.02,5.04,0.67,0.5,0.84,-21,-1,-32,0.84,5861,35,90,37,70,1175,326.0,407,448,60,117.0,256,1,345,321,73,0,0,323,165,145,297,,,,,,,,,,,,
899203,1560693427311,-0,2.04,2.53,3.0,2.02,5.04,0.69,0.41,0.82,-22,-1,-32,0.8,5905,35,90,37,70,1170,326.0,408,444,60,118.0,249,1,348,321,74,0,0,327,165,32000,299,,,,,,,,,,,,
899223,1560693427331,-0,2.07,2.5,3.0,2.02,5.03,0.69,0.29,0.81,-22,-1,-33,0.75,5998,35,90,37,69,1170,329.0,411,422,60,119.0,249,1,356,322,74,0,0,329,-20736,120,302,,,,,,,,,,,,
899243,1560693427351,-1,2.08,2.49,3.0,2.04,5.04,0.7,0.19,0.84,-22,-2,-33,0.72,6050,35,90,37,69,1170,331.0,416,440,60,118.0,249,1,358,322,74,0,0,328,-12032,32000,305,45.698811,4.909868,29.21,193.3,8,1.6267,0,0.0,1.1083,9,0.78,14.9874
899263,1560693427371,0,2.1,2.48,3.01,2.03,5.07,0.71,0.12,0.9,-23,-2,-33,0.72,6067,35,90,37,69,1177,328.0,422,441,60,118.0,249,1,359,322,74,0,0,330,-12032,-28416,306,,,,,,,,,,,,
899283,1560693427391,2,2.12,2.48,3.01,2.02,5.05,0.72,0.09,0.92,-22,-1,-32,0.72,6095,35,90,37,68,1182,330.0,418,431,60,118.0,249,1,361,306,74,0,0,333,175,140,307,,,,,,,,,,,,
899303,1560693427410,2,2.15,2.47,3.01,2.05,5.05,0.74,0.06,0.98,-21,-0,-32,0.75,6065,35,90,37,69,1184,331.0,421,419,60,117.0,239,1,359,306,74,0,0,333,-12032,-27136,311,,,,,,,,,,,,
899323,1560693427430,2,2.19,2.45,3.03,2.06,5.08,0.72,0.03,1.04,-20,-2,-31,0.72,6071,35,90,37,69,1186,331.0,425,439,60,118.0,239,1,359,322,74,0,0,334,-12032,-25856,313,,,,,,,,,,,,
899343,1560693427450,3,2.2,2.44,3.05,2.07,5.04,0.67,0.03,1.1,-19,-2,-30,0.67,6097,35,90,37,69,1182,332.0,430,455,60,116.0,239,1,360,322,74,0,0,334,-32559,165,316,45.698803,4.909861,30.16,193.3,8,1.6267,0,0.0,1.11,9,0.78,14.989
899363,1560693427470,4,2.23,2.41,3.1,2.07,5.05,0.66,0.1,1.15,-17,-2,-30,0.67,6147,35,90,37,69,1178,330.0,428,457,60,117.0,239,1,361,323,74,0,0,332,175,-25856,318,,,,,,,,,,,,
899383,1560693427490,5,2.25,2.39,3.13,2.08,5.04,0.69,0.17,1.1,-16,-2,-28,0.71,6194,35,90,37,69,1174,332.0,446,454,60,117.0,239,1,363,324,74,0,0,332,-32559,165,323,,,,,,,,,,,,
899403,1560693427510,1,2.28,2.37,3.15,2.12,5.03,0.66,0.22,1.02,-14,-2,-25,0.7,6243,35,90,37,68,1169,331.0,434,438,60,118.0,222,1,366,309,72,0,0,331,-12032,-20736,325,,,,,,,,,,,,
899423,1560693427530,-0,2.31,2.38,3.19,2.15,5.06,0.68,0.16,0.89,-13,-2,-22,0.7,6289,35,90,37,68,1169,331.0,435,432,60,118.0,222,1,367,310,72,0,0,333,-12032,-12032,328,,,,,,,,,,,,
899443,1560693427550,-1,2.33,2.38,3.21,2.15,5.05,0.65,0.07,0.84,-11,-3,-20,0.66,6268,35,90,37,68,1169,329.0,438,440,60,118.0,222,1,367,310,72,0,0,332,-12032,3346,329,45.698799,4.909854,30.76,193.4,8,1.6267,0,0.0,1.1117,9,0.79,14.9907
899463,1560693427570,0,2.37,2.37,3.2,2.19,5.04,0.65,0.03,0.92,-8,-2,-19,0.65,6256,35,90,37,68,1181,332.0,441,452,60,117.0,222,1,366,310,72,0,0,334,175,13,332,,,,,,,,,,,,
899483,1560693427590,2,2.39,2.35,3.23,2.22,5.06,0.63,-0.03,1.02,-6,-3,-17,0.63,6258,35,90,37,68,1191,334.0,446,452,60,116.0,222,1,366,310,72,0,0,336,-20736,13,334,,,,,,,,,,,,
899503,1560693427610,5,2.41,2.32,3.28,2.23,5.03,0.54,-0.02,0.94,-4,-0,-15,0.54,6268,35,90,37,68,1203,338.0,443,450,60,118.0,220,1,367,310,74,0,0,335,-20736,3327,338,,,,,,,,,,,,
899523,1560693427630,-0,2.42,2.33,3.31,2.26,5.04,0.64,-0.03,0.87,-3,-1,-12,0.64,6273,35,90,37,68,1215,340.0,431,454,60,118.0,220,1,367,310,74,0,0,337,170,-14714,342,,,,,,,,,,,,
899543,1560693427650,-1,2.45,2.32,3.31,2.29,5.04,0.68,-0.08,0.81,-2,-2,-9,0.68,6291,35,90,37,68,1220,342.0,441,448,60,118.0,220,1,367,310,74,0,0,333,-20736,8841,342,45.698792,4.909847,31.83,193.3,8,1.6267,0,0.0,1.1133,9,0.79,14.9924
899563,1560693427670,3,2.46,2.3,3.32,2.29,5.04,0.78,-0.18,0.84,0,-4,-6,0.8,6377,35,90,37,68,1229,345.0,439,454,60,117.0,220,1,370,312,74,0,0,337,-22016,6870,345,,,,,,,,,,,,
899583,1560693427692,4,2.47,2.28,3.35,2.27,5.05,0.66,-0.18,0.85,3,-5,-2,0.68,6423,35,90,37,67,1228,346.0,450,447,60,117.0,220,1,376,313,74,0,0,339,-22016,6870,349,,,,,,,,,,,,
899603,1560693427712,-0,2.48,2.28,3.37,2.29,5.05,0.66,-0.16,0.73,4,-4,1,0.68,6483,35,90,37,67,1226,350.0,452,450,60,118.0,217,1,378,307,76,0,0,343,-22016,8841,350,,,,,,,,,,,,
899623,1560693427732,3,2.48,2.26,3.37,2.3,5.07,0.68,-0.18,0.8,6,-3,2,0.71,6514,35,90,37,67,1226,352.0,458,451,60,117.0,217,1,379,308,76,0,0,341,-22016,-30454,352,,,,,,,,,,,,
899643,1560693427752,1,2.5,2.26,3.38,2.34,5.06,0.69,-0.24,0.72,7,-4,4,0.73,6530,36,90,37,67,1226,354.0,458,447,60,117.0,217,1,380,308,76,0,0,343,-20736,3183,354,45.698788,4.90984,32.47,193.3,8,1.6267,0,0.0,1.115,9,0.79,14.994
899663,1560693427772,-1,2.5,2.26,3.37,2.36,5.06,0.67,-0.29,0.74,8,-4,6,0.73,6553,36,90,37,67,1230,355.0,461,448,60,117.0,217,1,380,309,76,0,0,349,170,3302,355,,,,,,,,,,,,
899683,1560693427792,5,2.5,2.26,3.38,2.35,5.06,0.64,-0.29,0.77,10,-4,7,0.7,6558,36,90,37,67,1235,356.0,457,445,60,118.0,217,1,380,309,76,0,0,343,-20736,-6644,356,,,,,,,,,,,,
899703,1560693427808,-1,2.51,2.26,3.4,2.35,5.05,0.65,-0.36,0.67,11,-3,9,0.74,6630,36,90,37,67,1239,358.0,462,447,60,117.0,216,1,384,311,77,0,0,348,-6528,-14707,358,,,,,,,,,,,,
899723,1560693427828,3,2.49,2.26,3.42,2.36,5.04,0.6,-0.4,0.73,12,-4,10,0.72,6665,36,90,37,67,1239,359.0,458,453,60,118.0,216,1,385,312,77,0,0,354,4838,-29978,361,,,,,,,,,,,,
899743,1560693427848,-2,2.5,2.26,3.4,2.36,5.04,0.67,-0.36,0.64,12,-3,12,0.76,6732,36,90,37,66,1237,362.0,475,451,60,117.0,216,1,391,308,77,0,0,358,3346,-14707,362,45.69878,4.909833,32.96,193.3,8,1.6267,0,0.0,1.1167,9,0.79,14.9957
899763,1560693427868,2,2.51,2.26,3.38,2.36,5.06,0.71,-0.41,0.67,13,-5,15,0.82,6825,36,90,37,66,1232,363.0,464,452,60,118.0,216,1,395,311,77,0,0,356,13,-6458,363,,,,,,,,,,,,
899783,1560693427888,1,2.49,2.26,3.35,2.38,5.04,0.77,-0.44,0.59,14,-3,17,0.88,6926,36,90,36,65,1223,365.0,479,448,60,117.0,216,1,403,309,77,0,0,359,-31222,0,365,,,,,,,,,,,,
899803,1560693427910,-1,2.51,2.26,3.31,2.39,5.05,0.7,-0.43,0.58,14,-3,18,0.82,6957,36,90,36,65,1209,366.0,470,455,60,117.0,224,1,403,309,82,0,0,362,-122,2790,366,,,,,,,,,,,,
899823,1560693427930,2,2.49,2.25,3.32,2.4,5.04,0.75,-0.54,0.69,15,-2,18,0.92,6916,36,90,36,65,1197,371.0,473,444,60,118.0,224,1,403,308,82,0,0,368,-10554,-6656,371,,,,,,,,,,,,
899843,1560693427950,-1,2.49,2.26,3.32,2.43,5.04,0.74,-0.55,0.64,16,-1,19,0.93,6947,36,90,36,65,1188,372.0,478,451,60,117.0,224,1,404,309,82,0,0,380,6870,-6656,373,45.698776,4.909824,34.25,193.2,8,1.6267,0,0.0,1.1183,9,0.79,14.9974
899863,1560693427970,4,2.48,2.25,3.31,2.44,5.03,0.64,-0.57,0.63,16,-1,20,0.85,6972,36,90,36,65,1167,373.0,477,452,60,117.0,224,1,405,310,82,0,0,377,8841,742,375,,,,,,,,,,,,
899883,1560693427990,3,2.49,2.24,3.32,2.42,5.04,0.78,-0.62,0.76,16,-3,20,0.99,7004,36,90,36,65,1135,377.0,474,448,60,118.0,224,1,406,312,82,0,0,372,-30454,-18948,377,,,,,,,,,,,,
899903,1560693428004,2,2.47,2.24,3.32,2.41,5.07,0.65,-0.61,0.59,17,-1,22,0.89,7067,37,90,36,64,1106,379.0,482,451,60,117.0,219,1,413,313,83,0,0,376,-6644,-6656,379,,,,,,,,,,,,
899923,1560693428024,-2,2.47,2.25,3.33,2.41,5.05,0.64,-0.63,0.52,17,-1,23,0.9,7121,37,90,36,64,1081,383.0,485,453,60,117.0,219,1,414,310,83,0,0,381,3302,19125,383,,,,,,,,,,,,
899943,1560693428044,0,2.46,2.25,3.35,2.42,5.03,0.78,-0.64,0.62,15,-2,23,1.01,7172,37,90,36,64,1048,382.0,482,448,60,117.0,219,1,417,311,83,0,0,390,4104,-19126,382,45.698769,4.909816,34.68,193.2,8,1.6267,0,0.0,1.12,9,0.79,14.9991
899963,1560693428064,5,2.46,2.26,3.34,2.41,5.04,0.8,-0.59,0.73,16,-1,24,0.99,7284,37,90,36,63,1008,384.0,498,453,60,118.0,219,1,425,308,83,0,0,386,-29302,-3866,384,,,,,,,,,,,,
899983,1560693428084,4,2.46,2.25,3.34,2.4,5.07,0.8,-0.59,0.84,17,-1,24,0.99,7335,37,90,36,63,977,386.0,504,452,60,117.0,219,1,426,309,83,0,0,388,3082,17144,386,,,,,,,,,,,,
900003,1560693428110,1,2.47,2.26,3.33,2.41,5.05,0.76,-0.66,0.95,17,0,24,1.0,7402,37,90,36,63,961,389.0,502,450,60,117.0,222,1,429,311,86,0,0,396,230,17144,389,,,,,,,,,,,,
900023,1560693428130,3,2.45,2.27,3.32,2.41,5.07,0.59,-0.61,0.93,18,-0,24,0.85,7390,37,90,36,62,944,391.0,506,458,60,117.0,222,1,432,304,86,0,0,400,-6656,-1818,391,,,,,,,,,,,,
900043,1560693428150,2,2.46,2.28,3.29,2.41,5.07,0.48,-0.61,0.93,18,1,24,0.78,7434,37,90,36,62,926,394.0,513,454,60,117.0,222,1,433,305,86,0,0,395,486,6512,394,45.698761,4.909807,35.43,193.1,8,1.6267,0,0.0,1.1217,9,0.79,15.0007
900063,1560693428170,2,2.45,2.28,3.27,2.4,5.05,0.51,-0.65,0.9,17,-1,24,0.82,7425,37,90,36,61,909,395.0,511,450,60,117.0,222,1,435,299,86,0,0,391,-6656,28696,395,,,,,,,,,,,,
900083,1560693428190,1,2.46,2.27,3.28,2.42,5.06,0.35,-0.63,0.8,18,0,23,0.72,7449,37,90,36,61,907,399.0,503,451,60,117.0,222,1,435,299,86,0,0,400,-6656,11545,399,,,,,,,,,,,,
900103,1560693428210,3,2.44,2.25,3.3,2.42,5.08,0.34,-0.64,0.77,18,0,22,0.72,7446,37,90,36,61,902,402.0,503,452,60,117.0,210,1,435,299,84,0,0,408,2278,10541,402,,,,,,,,,,,,
900123,1560693428230,1,2.45,2.25,3.28,2.43,5.05,0.36,-0.63,0.73,17,-4,22,0.72,7554,37,90,36,61,890,404.0,510,452,60,117.0,210,1,438,300,84,0,0,406,8200,-9211,405,,,,,,,,,,,,
900143,1560693428250,3,2.44,2.25,3.28,2.44,5.04,0.31,-0.67,0.7,17,-3,21,0.73,7612,37,90,36,60,878,405.0,519,447,60,117.0,210,1,432,295,84,0,0,398,-19126,11560,408,45.698757,4.909797,36.5,193.1,8,1.6267,0,0.0,1.1233,9,0.79,15.0024
900163,1560693428270,2,2.45,2.25,3.28,2.44,5.06,0.29,-0.71,0.77,17,-2,22,0.76,7709,37,90,36,60,869,409.0,510,455,60,116.0,210,1,434,296,84,0,0,402,-19126,-26615,409,,,,,,,,,,,,
900183,1560693428290,1,2.43,2.26,3.29,2.47,5.04,0.27,-0.69,0.78,17,-1,22,0.74,7709,37,90,36,59,855,411.0,521,450,60,118.0,210,1,427,290,84,0,0,419,240,2524,411,,,,,,,,,,,,
900203,1560693428310,1,2.43,2.26,3.29,2.47,5.07,0.34,-0.68,0.79,17,-1,21,0.76,7783,37,90,36,58,845,413.0,529,454,60,118.0,206,1,420,290,85,0,0,424,-6524,-21944,413,,,,,,,,,,,,
900223,1560693428330,1,2.43,2.24,3.29,2.46,5.06,0.4,-0.59,0.72,16,-1,20,0.71,7822,37,90,36,58,832,415.0,533,452,60,118.0,206,1,421,285,85,0,0,418,-6656,7154,415,,,,,,,,,,,,
900243,1560693428350,3,2.43,2.26,3.31,2.47,5.05,0.35,-0.55,0.58,16,-2,21,0.65,7908,37,90,36,57,826,417.0,544,451,60,116.0,206,1,414,281,85,0,0,421,17144,18584,419,45.698753,4.909786,37.73,193.0,8,1.6267,0,0.0,1.125,9,0.79,15.0041
900263,1560693428370,-0,2.42,2.27,3.28,2.47,5.06,0.33,-0.48,0.55,15,-2,23,0.58,7958,37,90,36,57,823,421.0,544,451,60,118.0,206,1,414,281,85,0,0,420,-32702,1779,421,,,,,,,,,,,,
900283,1560693428391,1,2.42,2.28,3.27,2.46,5.08,0.35,-0.33,0.57,15,-1,22,0.48,7968,37,90,36,56,820,421.0,551,455,60,118.0,206,1,406,276,85,0,0,424,28696,13180,421,,,,,,,,,,,,
900303,1560693428411,4,2.41,2.28,3.28,2.46,5.05,0.34,-0.3,0.53,14,-1,20,0.46,8009,37,90,36,56,818,422.0,546,451,60,117.0,197,1,407,276,83,0,0,426,-9211,31796,422,,,,,,,,,,,,
900323,1560693428431,1,2.4,2.28,3.3,2.43,5.07,0.35,-0.33,0.58,14,-2,21,0.49,8016,37,90,36,56,817,423.0,561,456,60,116.0,197,1,407,271,83,0,0,432,2524,5600,427,,,,,,,,,,,,
900343,1560693428451,3,2.4,2.27,3.31,2.4,5.07,0.42,-0.32,0.66,13,-2,20,0.53,8033,37,90,36,55,817,429.0,548,452,60,117.0,197,1,398,271,83,0,0,436,13040,3635,429,45.698746,4.909775,38.84,193.0,8,1.6267,0,0.0,1.1267,9,0.79,15.0057
900363,1560693428471,4,2.39,2.28,3.3,2.37,5.05,0.45,-0.33,0.66,13,-2,19,0.55,8106,37,90,35,55,818,431.0,558,457,60,116.0,197,1,398,274,83,0,0,434,-26615,21580,431,,,,,,,,,,,,
900383,1560693428491,2,2.39,2.28,3.31,2.36,5.08,0.45,-0.44,0.73,13,-2,20,0.63,8194,37,90,35,54,820,433.0,551,450,60,118.0,197,1,390,269,83,0,0,436,-21944,20625,434,,,,,,,,,,,,
900403,1560693428511,4,2.38,2.31,3.3,2.37,5.04,0.44,-0.39,0.67,13,0,19,0.59,8220,37,90,35,53,822,435.0,555,451,60,117.0,186,1,387,263,81,0,0,437,-3414,-18341,435,,,,,,,,,,,,
900423,1560693428531,2,2.39,2.34,3.3,2.35,5.04,0.49,-0.41,0.79,13,-2,19,0.64,8270,37,90,35,52,823,436.0,549,450,60,118.0,186,1,384,264,81,0,0,441,-21792,26704,436,,,,,,,,,,,,
900443,1560693428551,2,2.39,2.35,3.3,2.34,5.06,0.49,-0.33,0.69,12,-2,18,0.59,8314,37,90,35,52,833,435.0,566,452,60,116.0,186,1,384,258,81,0,0,446,-3856,23400,440,45.698742,4.909762,40.25,192.9,8,1.6267,0,0.0,1.1283,9,0.8,15.0074
900463,1560693428571,0,2.39,2.34,3.27,2.34,5.05,0.5,-0.35,0.82,12,-2,17,0.61,8370,37,90,35,51,840,442.0,557,450,60,118.0,186,1,381,252,81,0,0,449,31796,15649,442,,,,,,,,,,,,
900483,1560693428591,-2,2.39,2.35,3.25,2.35,5.05,0.55,-0.31,0.78,12,-2,18,0.63,8389,37,90,35,51,851,443.0,573,458,60,117.0,186,1,381,252,81,0,0,450,-3314,10305,444,,,,,,,,,,,,
900503,1560693428611,3,2.39,2.34,3.26,2.34,5.03,0.5,-0.28,0.72,12,0,17,0.57,8374,37,90,35,50,857,448.0,572,458,60,117.0,173,1,378,245,77,0,0,451,-3322,8488,448,,,,,,,,,,,,
900523,1560693428631,2,2.38,2.34,3.29,2.33,5.04,0.58,-0.25,0.82,11,-2,16,0.63,8378,37,90,35,50,871,449.0,582,453,60,116.0,173,1,378,245,77,0,0,454,-7939,-26615,449,,,,,,,,,,,,
900543,1560693428651,4,2.38,2.34,3.31,2.32,5.06,0.57,-0.16,0.7,11,-2,16,0.59,8426,37,90,35,50,896,449.0,595,450,60,117.0,173,1,378,246,77,0,0,457,5600,-6387,449,45.698738,4.909749,41.57,192.8,8,1.6267,0,0.0,1.13,9,0.8,15.0091
900563,1560693428671,3,2.38,2.35,3.33,2.33,5.05,0.54,-0.2,0.82,12,-2,15,0.57,8507,37,90,35,49,907,453.0,578,452,60,117.0,173,1,375,240,77,0,0,454,19477,-8985,453,,,,,,,,,,,,
900583,1560693428691,0,2.4,2.34,3.33,2.31,5.07,0.63,-0.18,0.72,11,-2,15,0.65,8542,37,90,35,49,922,453.0,590,456,60,117.0,173,1,375,240,77,0,0,456,20625,-26615,453,,,,,,,,,,,,
900603,1560693428709,-0,2.4,2.34,3.33,2.31,5.08,0.58,-0.18,0.67,12,-1,14,0.6,8608,37,90,35,48,941,456.0,587,448,60,117.0,169,1,373,233,77,0,0,458,-18341,17628,456,,,,,,,,,,,,
900623,1560693428729,4,2.39,2.34,3.33,2.32,5.05,0.5,-0.31,0.75,12,-1,14,0.59,8612,37,90,35,48,963,459.0,583,452,60,117.0,169,1,373,234,77,0,0,461,-18341,-18108,459,,,,,,,,,,,,
900643,1560693428749,3,2.4,2.33,3.33,2.32,5.04,0.58,-0.28,0.76,12,-1,14,0.65,8644,36,90,35,48,977,461.0,587,445,60,117.0,169,1,373,234,77,0,0,465,21432,12552,461,45.698734,4.909735,42.46,192.8,8,1.6267,0,0.0,1.1317,9,0.8,15.0107
900663,1560693428769,2,2.39,2.28,3.3,2.3,5.06,0.6,-0.27,0.77,12,0,13,0.66,8652,36,90,35,47,989,462.0,588,458,60,117.0,169,1,370,227,77,0,0,463,21432,-18108,462,,,,,,,,,,,,
900683,1560693428789,-1,2.4,2.27,3.3,2.33,5.07,0.67,-0.32,0.75,12,-1,14,0.74,8640,36,90,35,47,1007,465.0,591,449,60,116.0,169,1,370,226,77,0,0,467,8488,-3210,466,,,,,,,,,,,,
900703,1560693428809,-2,2.41,2.26,3.28,2.34,5.06,0.57,-0.36,0.74,13,-1,14,0.67,8692,36,90,35,46,1024,466.0,591,458,60,118.0,158,1,363,226,74,0,0,467,15649,8488,466,,,,,,,,,,,,
900723,1560693428829,2,2.42,2.26,3.26,2.34,5.05,0.58,-0.3,0.77,13,-1,16,0.65,8692,36,90,35,46,1045,467.0,592,452,60,118.0,158,1,363,226,74,0,0,464,15649,8488,467,,,,,,,,,,,,
900743,1560693428849,3,2.42,2.24,3.29,2.34,5.04,0.68,-0.34,0.71,13,-1,16,0.76,8733,36,90,35,46,1061,470.0,600,454,60,117.0,158,1,363,226,74,0,0,465,15649,8488,470,45.69873,4.90972,43.76,192.7,8,1.6267,0,0.0,1.1333,9,0.8,15.0124
900763,1560693428869,2,2.41,2.19,3.34,2.32,5.06,0.8,-0.37,0.62,14,-0,17,0.88,8745,36,90,35,46,1080,471.0,612,454,60,117.0,158,1,363,226,74,0,0,468,3571,10432,471,,,,,,,,,,,,
900783,1560693428891,1,2.43,2.19,3.33,2.33,5.05,0.84,-0.46,0.67,14,-0,20,0.95,8729,36,90,35,46,1099,476.0,607,463,60,117.0,158,1,363,226,74,0,0,470,-6387,10432,475,,,,,,,,,,,,
900803,1560693428911,1,2.43,2.2,3.31,2.35,5.05,0.79,-0.44,0.67,14,-1,21,0.9,8773,36,90,35,46,1122,474.0,615,448,60,117.0,157,1,363,226,75,0,0,464,3571,8488,474,,,,,,,,,,,,
900823,1560693428931,1,2.44,2.18,3.38,2.34,5.04,0.76,-0.44,0.7,14,-0,21,0.88,8836,36,90,35,45,1136,473.0,600,458,60,117.0,157,1,357,225,75,0,0,469,-3267,2212,473,,,,,,,,,,,,
900843,1560693428951,-0,2.44,2.17,3.4,2.3,5.07,0.64,-0.46,0.66,15,0,20,0.79,8840,36,90,35,45,1145,472.0,598,465,60,117.0,157,1,357,225,75,0,0,472,2524,16648,474,45.698723,4.909705,44.43,192.6,8,1.6267,0,0.0,1.135,9,0.8,15.014
900863,1560693428971,5,2.43,2.16,3.41,2.29,5.04,0.61,-0.36,0.56,16,3,20,0.71,8869,36,90,35,45,1162,478.0,594,463,60,117.0,157,1,357,225,75,0,0,473,-26615,-23367,478,,,,,,,,,,,,
900883,1560693428991,3,2.44,2.14,3.4,2.3,5.08,0.59,-0.42,0.63,16,2,22,0.73,8823,36,90,35,44,1172,482.0,597,463,60,117.0,157,1,351,223,75,0,0,482,2524,16648,482,,,,,,,,,,,,
900903,1560693429003,5,2.44,2.14,3.38,2.31,5.04,0.67,-0.42,0.55,16,3,22,0.79,8894,36,90,35,44,1174,480.0,602,458,60,117.0,156,1,351,223,75,0,0,471,-26615,-6441,480,,,,,,,,,,,,
900923,1560693429023,3,2.44,2.15,3.4,2.31,5.05,0.67,-0.45,0.53,16,3,23,0.81,8915,36,90,35,45,1176,482.0,611,447,60,117.0,156,1,357,223,75,0,0,472,2524,2212,482,,,,,,,,,,,,
900943,1560693429043,3,2.44,2.15,3.43,2.3,5.04,0.78,-0.47,0.48,15,2,23,0.91,8907,36,90,35,44,1185,480.0,603,457,60,118.0,156,1,351,223,75,0,0,476,-26615,-899,480,45.698719,4.909689,45.1,192.5,8,1.6267,0,0.0,1.1367,9,0.8,15.0157
900963,1560693429063,4,2.45,2.14,3.42,2.3,5.04,0.78,-0.44,0.53,17,3,23,0.9,8873,36,90,35,44,1190,483.0,616,457,60,118.0,156,1,351,223,75,0,0,476,-26615,2212,481,,,,,,,,,,,,
900983,1560693429091,2,2.45,2.14,3.38,2.3,5.07,0.9,-0.55,0.55,17,2,22,1.05,8903,36,90,35,44,1196,482.0,626,450,60,117.0,156,1,351,223,75,0,0,470,17628,-10483,484,,,,,,,,,,,,
901003,1560693429111,2,2.45,2.15,3.4,2.32,5.07,0.96,-0.58,0.55,17,0,22,1.12,8898,36,90,35,44,1200,485.0,632,451,60,117.0,154,1,351,223,75,0,0,473,14488,1,485,,,,,,,,,,,,
901023,1560693429131,2,2.45,2.13,3.43,2.32,5.08,1.02,-0.69,0.58,17,1,23,1.23,8861,36,90,35,44,1210,483.0,626,454,60,116.0,154,1,351,223,75,0,0,476,14488,-1562,483,,,,,,,,,,,,
901043,1560693429151,0,2.45,2.11,3.43,2.28,5.05,0.96,-0.67,0.6,18,1,23,1.17,8890,36,90,35,44,1218,484.0,624,452,60,116.0,154,1,351,223,75,0,0,472,17628,3580,483,45.698719,4.909674,45.37,192.5,8,1.6267,0,0.0,1.1383,9,0.8,15.0174
901063,1560693429171,2,2.44,2.1,3.46,2.29,5.05,0.93,-0.71,0.6,18,2,25,1.17,8869,36,90,34,44,1220,484.0,621,455,60,116.0,154,1,351,222,75,0,0,473,17628,-6656,487,,,,,,,,,,,,
901083,1560693429191,1,2.45,2.1,3.42,2.32,5.08,0.77,-0.7,0.57,19,3,25,1.04,8924,36,90,34,43,1222,487.0,605,463,60,117.0,154,1,345,222,75,0,0,469,17628,-899,487,,,,,,,,,,,,
901103,1560693429211,1,2.45,2.11,3.42,2.34,5.04,0.72,-0.64,0.58,20,4,26,0.96,8988,36,90,34,43,1229,486.0,607,457,60,117.0,156,1,345,222,76,0,0,468,17628,-6441,486,,,,,,,,,,,,
901123,1560693429231,1,2.44,2.14,3.44,2.34,5.04,0.63,-0.58,0.6,21,5,26,0.86,9014,36,90,34,43,1233,485.0,606,463,60,117.0,156,1,345,223,76,0,0,472,-9160,-1818,486,,,,,,,,,,,,
901143,1560693429251,0,2.45,2.14,3.47,2.34,5.08,0.54,-0.59,0.68,21,2,27,0.79,8971,36,90,34,43,1238,487.0,612,456,60,117.0,156,1,345,222,76,0,0,474,14488,-10483,484,45.698719,4.909658,45.71,192.4,8,1.6267,0,0.0,1.14,9,0.8,15.019
901163,1560693429271,-2,2.44,2.14,3.46,2.34,5.04,0.5,-0.49,0.57,21,4,26,0.7,8992,36,90,34,43,1241,485.0,601,458,60,117.0,156,1,345,222,76,0,0,482,17628,-1818,485,,,,,,,,,,,,
901183,1560693429292,1,2.45,2.13,3.46,2.32,5.04,0.37,-0.46,0.59,22,3,27,0.59,8988,36,90,34,43,1244,484.0,612,461,60,117.0,156,1,345,222,76,0,0,475,-18108,-1818,484,,,,,,,,,,,,
901203,1560693429312,-1,2.44,2.1,3.5,2.32,5.06,0.34,-0.42,0.56,22,6,27,0.54,8984,36,90,34,43,1246,484.0,607,464,60,117.0,156,1,345,222,76,0,0,474,17628,1,486,,,,,,,,,,,,
901223,1560693429332,-0,2.44,2.09,3.51,2.32,5.04,0.25,-0.42,0.6,21,5,28,0.48,8967,36,90,34,43,1247,484.0,623,458,60,117.0,156,1,345,222,76,0,0,482,-23623,505,484,,,,,,,,,,,,
901243,1560693429352,1,2.43,2.09,3.5,2.32,5.04,0.16,-0.36,0.56,21,5,25,0.4,9001,36,90,34,43,1246,488.0,626,456,60,117.0,156,1,345,223,76,0,0,472,2211,1,488,45.698715,4.909641,45.87,192.4,8,1.6267,0,0.0,1.1417,9,0.81,15.0207
901263,1560693429372,-2,2.44,2.09,3.49,2.3,5.04,0.14,-0.3,0.46,22,6,25,0.33,9023,36,90,34,43,1243,492.0,617,462,60,117.0,156,1,345,223,76,0,0,469,2211,-6441,492,,,,,,,,,,,,
901283,1560693429392,0,2.44,2.08,3.5,2.32,5.08,0.0,-0.24,0.43,23,8,25,0.24,9057,36,90,34,43,1241,490.0,602,463,60,117.0,156,1,345,223,76,0,0,476,6193,-10483,491,,,,,,,,,,,,
901303,1560693429410,0,2.44,2.14,3.47,2.41,5.07,-0.04,-0.18,0.38,23,8,27,0.18,9079,35,90,34,43,1237,492.0,611,460,60,117.0,154,1,345,223,76,0,0,477,30272,771,490,,,,,,,,,,,,
901323,1560693429430,1,2.45,2.17,3.45,2.43,5.05,-0.13,-0.13,0.37,23,8,27,0.19,9084,35,90,34,43,1235,488.0,615,452,60,117.0,154,1,345,223,76,0,0,475,2211,1,488,,,,,,,,,,,,
901343,1560693429450,2,2.43,2.11,3.48,2.4,5.05,-0.05,-0.16,0.39,22,6,27,0.17,9053,35,90,34,42,1232,488.0,608,459,60,117.0,154,1,339,220,76,0,0,478,2211,-10483,488,45.698715,4.909624,46.6,192.4,8,1.6267,0,0.0,1.1433,9,0.81,15.0224
901363,1560693429470,1,2.43,2.04,3.49,2.4,5.06,-0.08,-0.15,0.39,22,6,28,0.17,9014,34,90,34,42,1228,490.0,607,463,60,117.0,154,1,338,220,76,0,0,481,12552,505,489,,,,,,,,,,,,
901383,1560693429490,1,2.43,2.05,3.44,2.36,5.04,-0.02,-0.17,0.39,22,5,28,0.17,9001,30,90,34,41,1225,493.0,607,458,60,117.0,154,1,332,218,76,0,0,479,30272,-1818,495,,,,,,,,,,,,
901403,1560693429510,1,2.43,2.03,3.41,2.33,5.03,-0.02,-0.16,0.35,23,6,28,0.16,9014,27,90,34,39,1224,494.0,617,454,60,117.0,147,1,320,213,73,0,0,469,30272,1,493,,,,,,,,,,,,
901423,1560693429530,0,2.42,2.05,3.49,2.32,5.04,-0.07,-0.18,0.39,23,6,30,0.19,9062,26,90,34,37,1221,492.0,616,453,60,117.0,147,1,314,206,73,0,0,475,-3210,-6528,492,,,,,,,,,,,,
901443,1560693429550,-0,2.43,2.06,3.55,2.32,5.07,-0.0,-0.21,0.37,23,9,28,0.21,9036,25,90,34,35,1216,492.0,618,459,60,117.0,147,1,308,199,73,0,0,488,-3210,248,492,45.698711,4.909607,46.26,192.4,8,1.6267,0,0.0,1.145,9,0.81,15.024
901463,1560693429570,3,2.42,2.06,3.54,2.31,5.06,0.05,-0.29,0.43,23,7,28,0.3,9031,25,90,34,34,1213,492.0,626,460,60,117.0,147,1,305,195,73,0,0,475,30272,3,492,,,,,,,,,,,,
901483,1560693429590,0,2.43,2.12,3.55,2.32,5.05,0.11,-0.36,0.4,21,7,27,0.37,9010,21,90,34,32,1208,492.0,626,452,60,117.0,147,1,300,188,73,0,0,477,-3210,1,491,,,,,,,,,,,,
901503,1560693429610,2,2.43,2.26,3.51,2.33,5.04,0.12,-0.4,0.4,21,4,26,0.42,8984,17,90,34,30,1201,491.0,617,451,60,116.0,130,1,291,188,64,0,0,473,-3210,-1818,491,,,,,,,,,,,,
901523,1560693429630,-1,2.43,2.26,3.47,2.32,5.06,0.09,-0.44,0.4,21,4,25,0.45,8836,14,90,34,28,1182,486.0,615,458,60,117.0,130,1,282,188,64,0,0,468,30272,-6441,486,,,,,,,,,,,,
901543,1560693429650,5,2.42,2.24,3.47,2.32,5.04,0.12,-0.35,0.35,22,4,25,0.37,8737,12,90,34,26,1172,487.0,603,461,60,118.0,130,1,274,188,64,0,0,468,30272,-6656,487,45.698711,4.90959,46.1,192.4,8,1.6267,0,0.0,1.1467,9,0.81,15.0257
901563,1560693429670,3,2.42,2.23,3.49,2.32,5.06,0.25,-0.38,0.39,22,1,23,0.45,8569,10,90,34,24,1158,486.0,591,460,60,117.0,130,1,270,181,64,0,0,464,16408,-6441,487,,,,,,,,,,,,
901583,1560693429690,6,2.42,2.18,3.51,2.31,5.04,0.29,-0.39,0.32,22,-1,25,0.49,8355,9,90,34,22,1140,487.0,585,450,60,117.0,130,1,270,164,64,0,0,455,12552,1,487,,,,,,,,,,,,
901603,1560693429706,3,2.42,2.16,3.55,2.3,5.07,0.44,-0.37,0.35,21,-1,24,0.58,8127,9,90,34,22,1093,488.0,573,459,60,118.0,102,1,270,155,50,0,0,454,-18108,10305,488,,,,,,,,,,,,
901623,1560693429726,5,2.42,1.92,3.62,2.27,5.07,0.43,-0.41,0.4,21,-0,24,0.59,7888,8,90,34,21,1040,487.0,576,458,60,117.0,102,1,268,149,50,0,0,453,-18108,-899,487,,,,,,,,,,,,
901643,1560693429746,3,2.42,1.88,3.64,2.27,5.04,0.44,-0.41,0.24,21,2,27,0.6,7731,8,90,34,21,1014,489.0,557,452,60,117.0,102,1,267,149,50,0,0,445,2211,-1923,488,45.698715,4.909573,46.54,192.3,8,1.6267,0,0.0,1.1483,9,0.81,15.0274
901663,1560693429766,8,2.41,1.92,3.6,2.28,5.04,0.31,-0.37,0.02,21,3,28,0.48,7637,8,90,34,21,964,488.0,553,457,60,117.0,102,1,266,149,50,0,0,430,-18108,17628,488,,,,,,,,,,,,
901683,1560693429786,10,2.42,1.93,3.58,2.27,5.07,0.38,-0.38,-0.12,21,2,28,0.54,7662,8,90,34,21,916,480.0,547,458,60,117.0,102,1,266,149,50,0,0,415,-3267,1779,480,,,,,,,,,,,,
901703,1560693429810,5,2.42,1.88,3.57,2.24,5.05,0.45,-0.5,-0.0,22,2,29,0.67,7684,8,90,34,21,879,477.0,561,458,60,117.0,89,1,266,149,43,0,0,424,2131,-26615,476,,,,,,,,,,,,
901723,1560693429830,3,2.41,1.82,3.58,2.22,5.06,0.6,-0.59,0.19,23,4,29,0.85,7716,8,90,34,21,867,476.0,553,457,60,118.0,89,1,267,149,43,0,0,414,-18341,1779,476,,,,,,,,,,,,
901743,1560693429850,6,2.41,1.79,3.61,2.21,5.03,0.75,-0.67,0.37,23,-1,28,1.0,7719,8,90,34,21,853,471.0,545,457,60,117.0,89,1,267,149,43,0,0,392,-7939,7154,471,45.698715,4.909556,46.4,192.4,8,1.6267,0,0.0,1.15,9,0.81,15.029
901763,1560693429870,5,2.41,1.77,3.6,2.18,5.06,0.87,-0.66,0.25,22,0,27,1.09,7716,8,90,34,21,850,465.0,542,455,60,117.0,89,1,267,149,43,0,0,378,-7939,2211,463,,,,,,,,,,,,
901783,1560693429890,7,2.4,1.77,3.65,2.16,5.05,0.94,-0.7,0.17,21,-1,28,1.17,7712,8,90,34,21,847,461.0,542,456,60,116.0,89,1,267,149,43,0,0,384,13552,3635,461,,,,,,,,,,,,
901803,1560693429910,8,2.4,1.8,3.69,2.15,5.04,0.82,-0.61,0.04,21,-0,30,1.02,7646,8,90,34,21,856,451.0,555,458,60,117.0,93,1,266,149,43,0,0,357,31796,-768,451,,,,,,,,,,,,
901823,1560693429930,9,2.4,1.87,3.69,2.15,5.03,0.71,-0.57,-0.1,22,2,32,0.91,7548,8,90,34,21,862,449.0,535,458,60,117.0,93,1,265,149,43,0,0,327,-3856,-28332,449,,,,,,,,,,,,
901843,1560693429950,5,2.4,1.92,3.69,2.15,5.04,0.65,-0.54,-0.19,22,2,32,0.85,7324,7,90,34,21,888,448.0,524,459,60,116.0,93,1,263,149,43,0,0,303,-21792,8488,447,45.698719,4.909541,45.01,192.4,8,1.6267,0,0.0,1.1517,9,0.81,15.0307
901863,1560693429970,3,2.41,1.98,3.67,2.15,5.05,0.72,-0.45,-0.14,21,2,32,0.85,7151,7,90,34,21,920,444.0,519,460,60,116.0,93,1,261,149,43,0,0,301,-21792,21432,444,,,,,,,,,,,,
901883,1560693429990,7,2.41,1.99,3.63,2.15,5.04,0.82,-0.51,-0.03,21,1,32,0.97,6993,8,90,34,21,934,442.0,500,459,60,118.0,93,1,260,148,43,0,0,321,18584,26704,442,,,,,,,,,,,,
901903,1560693430004,5,2.4,1.98,3.61,2.14,5.04,0.72,-0.42,-0.03,22,3,30,0.83,6793,7,90,34,21,951,436.0,501,460,60,117.0,85,1,260,147,38,0,0,370,2524,19477,436,,,,,,,,,,,,
901923,1560693430024,9,2.41,1.96,3.63,2.12,5.04,0.85,-0.49,0.08,21,-3,27,0.98,6708,7,90,34,22,975,435.0,485,458,60,118.0,85,1,260,150,38,0,0,376,-9166,-4082,435,,,,,,,,,,,,
901943,1560693430044,5,2.41,1.95,3.67,2.08,5.08,0.7,-0.4,-0.06,21,0,26,0.81,6764,7,90,34,22,1005,428.0,481,457,60,117.0,85,1,260,150,38,0,0,351,-4059,2524,426,45.698719,4.909526,43.02,192.4,8,1.6267,0,0.0,1.1533,9,0.81,15.0324
901963,1560693430064,6,2.41,1.95,3.68,2.06,5.06,0.83,-0.44,0.07,19,-2,25,0.95,6828,7,90,34,22,1011,424.0,478,455,60,118.0,85,1,260,150,38,0,0,309,-26615,-8151,424,,,,,,,,,,,,
901983,1560693430091,3,2.4,1.98,3.68,2.06,5.06,0.77,-0.37,0.03,20,1,24,0.86,6759,7,90,34,23,1017,422.0,487,455,60,118.0,85,1,261,153,38,0,0,293,-9211,10392,422,,,,,,,,,,,,
902003,1560693430111,5,2.41,2.03,3.67,2.07,5.05,0.83,-0.44,0.06,19,-2,23,0.94,6670,7,90,34,23,1025,419.0,468,453,60,118.0,92,1,262,152,39,0,0,286,11545,-26615,419,,,,,,,,,,,,
902023,1560693430131,7,2.4,2.03,3.63,2.06,5.07,0.8,-0.37,0.04,19,0,23,0.88,6549,7,90,34,23,1034,418.0,481,462,60,116.0,92,1,262,152,39,0,0,291,28696,-9166,418,,,,,,,,,,,,
902043,1560693430151,2,2.4,2.03,3.62,2.05,5.07,0.92,-0.38,-0.01,18,-2,23,1.0,6478,7,90,34,23,1035,416.0,463,456,60,118.0,92,1,263,152,39,0,0,320,-32702,-8151,414,45.698719,4.909511,41.63,192.4,8,1.6267,0,0.0,1.155,9,0.82,15.034
902063,1560693430171,6,2.4,2.01,3.62,2.02,5.04,0.91,-0.41,0.01,18,-0,22,1.0,6461,7,90,34,24,1037,411.0,460,451,60,118.0,92,1,264,155,39,0,0,326,1,28696,411,,,,,,,,,,,,
902083,1560693430191,7,2.41,2.01,3.63,2.01,5.05,0.86,-0.35,0.0,19,0,21,0.92,6526,7,90,34,24,1034,405.0,466,457,60,116.0,92,1,263,155,39,0,0,314,-6524,-18948,405,,,,,,,,,,,,
902103,1560693430210,3,2.4,1.82,3.64,1.96,5.07,0.97,-0.45,0.08,17,-1,20,1.07,6609,7,90,34,24,1031,400.0,461,458,60,118.0,94,1,263,155,38,0,0,299,-6475,8200,400,,,,,,,,,,,,
902123,1560693430230,6,2.4,1.81,3.64,1.96,5.05,0.9,-0.44,0.17,17,-0,21,1.0,6604,7,90,34,25,1027,401.0,465,458,60,117.0,94,1,265,159,38,0,0,289,-3866,-1562,401,,,,,,,,,,,,
902143,1560693430250,7,2.4,1.92,3.56,1.97,5.08,0.83,-0.32,0.12,17,1,20,0.89,6481,7,90,34,25,1023,400.0,467,456,60,117.0,94,1,266,159,38,0,0,297,-18948,-32702,400,45.698723,4.909498,39.95,192.3,8,1.6267,0,0.0,1.1567,9,0.82,15.0357
902163,1560693430270,3,2.39,1.94,3.51,1.98,5.08,0.85,-0.31,0.01,17,2,19,0.91,6366,7,90,34,25,1014,397.0,456,455,60,117.0,94,1,267,159,38,0,0,337,3,1,397,,,,,,,,,,,,
902183,1560693430290,5,2.38,1.94,3.5,1.97,5.05,0.94,-0.39,0.04,16,3,18,1.01,6403,7,90,34,25,997,392.0,463,457,60,118.0,94,1,266,159,38,0,0,359,1,257,392,,,,,,,,,,,,
902203,1560693430310,6,2.39,1.93,3.48,1.97,5.05,0.94,-0.33,0.12,16,1,16,1.0,6490,7,90,34,25,986,386.0,466,460,60,116.0,97,1,266,159,38,0,0,354,-6656,3082,386,,,,,,,,,,,,
902223,1560693430330,3,2.37,1.91,3.48,1.97,5.04,0.93,-0.38,0.09,16,-0,16,1.01,6588,7,90,34,25,977,382.0,462,452,60,118.0,97,1,265,159,38,0,0,356,-1268,4104,382,,,,,,,,,,,,
902243,1560693430350,6,2.36,1.9,3.48,1.97,5.05,0.92,-0.43,0.19,16,-0,14,1.02,6644,7,90,34,25,965,379.0,472,459,60,117.0,97,1,264,159,38,0,0,348,-14707,6668,379,45.698727,4.909484,37.99,192.3,8,1.6267,0,0.0,1.1583,9,0.82,15.0374
902263,1560693430370,1,2.36,1.91,3.47,1.96,5.05,0.99,-0.37,0.09,16,3,15,1.06,6667,7,90,34,25,955,376.0,473,456,60,118.0,97,1,264,159,38,0,0,352,-29302,-6656,376,,,,,,,,,,,,
902283,1560693430390,4,2.34,1.95,3.48,1.96,5.06,1.04,-0.47,0.21,15,-1,14,1.14,6660,7,90,34,25,946,370.0,476,456,60,118.0,97,1,264,159,38,0,0,349,4104,-6640,370,,,,,,,,,,,,
902303,1560693430409,-1,2.33,1.98,3.49,1.95,5.05,0.91,-0.32,0.07,15,3,14,0.96,6637,7,90,34,25,942,365.0,485,458,60,116.0,107,1,264,159,40,0,0,346,2060,4104,365,,,,,,,,,,,,
902323,1560693430429,2,2.33,1.97,3.5,1.96,5.04,1.02,-0.43,0.14,13,-0,13,1.1,6632,7,90,34,25,936,365.0,475,456,60,118.0,107,1,264,159,40,0,0,349,-6644,-6640,365,,,,,,,,,,,,
902343,1560693430449,3,2.3,2.0,3.5,1.94,5.05,0.95,-0.37,0.22,13,-0,12,1.02,6560,7,90,34,25,928,364.0,486,457,60,117.0,107,1,265,159,40,0,0,348,3302,2060,362,45.69873,4.909472,36.37,192.2,8,1.6267,0,0.0,1.16,9,0.82,15.0391
902363,1560693430469,0,2.29,2.1,3.48,1.95,5.05,0.87,-0.25,0.06,12,2,13,0.91,6499,7,90,34,25,922,361.0,480,456,60,118.0,107,1,266,159,40,0,0,348,3302,2060,361,,,,,,,,,,,,
902383,1560693430489,1,2.26,2.17,3.43,1.96,5.06,0.97,-0.28,0.04,10,2,12,1.01,6467,7,90,34,25,918,357.0,462,454,60,118.0,107,1,266,159,40,0,0,349,3183,-6644,357,,,,,,,,,,,,
902403,1560693430509,3,2.26,2.2,3.41,1.93,5.07,0.96,-0.18,0.08,10,2,10,0.98,6441,7,90,34,25,911,353.0,466,461,60,117.0,107,1,266,159,38,0,0,349,-6644,-14714,353,,,,,,,,,,,,
902423,1560693430529,5,2.23,2.23,3.41,1.92,5.03,0.93,-0.08,0.08,10,4,9,0.94,6405,7,90,34,25,905,352.0,462,453,60,117.0,107,1,266,160,38,0,0,343,3183,-14714,351,,,,,,,,,,,,
902443,1560693430549,1,2.22,2.25,3.4,1.91,5.03,0.95,-0.15,0.12,8,3,9,0.96,6384,7,90,34,26,902,351.0,453,455,60,118.0,107,1,270,160,38,0,0,345,28553,2560,346,45.698738,4.90946,35.13,192.2,8,1.6267,0,0.0,1.1617,9,0.82,15.0407
902463,1560693430569,2,2.19,2.32,3.41,1.91,5.03,0.91,-0.15,0.24,7,3,6,0.92,6371,7,90,34,26,902,350.0,446,453,60,118.0,107,1,270,160,38,0,0,342,-30454,13,343,,,,,,,,,,,,
902483,1560693430589,2,2.18,2.3,3.41,1.89,5.05,0.9,-0.03,0.3,5,3,5,0.9,6338,7,90,34,26,903,349.0,452,457,60,117.0,107,1,270,160,38,0,0,344,2811,-31222,342,,,,,,,,,,,,
902503,1560693430609,3,2.16,2.3,3.36,1.87,5.05,0.86,0.07,0.24,4,5,4,0.87,6317,8,90,34,26,903,350.0,458,453,60,117.0,111,1,270,160,38,0,0,343,-30454,3346,339,,,,,,,,,,,,
902523,1560693430629,0,2.13,2.33,3.34,1.84,5.07,0.93,0.13,0.14,3,5,2,0.94,6283,8,90,34,27,904,347.0,452,453,60,118.0,111,1,274,161,38,0,0,341,-30454,-6528,335,,,,,,,,,,,,
902543,1560693430649,-0,2.13,2.37,3.32,1.83,5.07,0.98,0.11,0.14,1,4,-1,0.98,6283,10,90,34,27,907,348.0,458,453,60,118.0,111,1,274,161,38,0,0,341,-1246,-20736,334,45.698738,4.909449,33.91,192.2,8,1.6267,0,0.0,1.1633,9,0.82,15.0424
902563,1560693430669,0,2.11,2.37,3.3,1.83,5.04,1.0,0.09,0.29,-1,1,-5,1.0,6260,12,90,34,28,909,348.0,462,452,60,118.0,111,1,277,163,38,0,0,339,-1246,160,330,,,,,,,,,,,,
902583,1560693430691,0,2.12,2.36,3.26,1.81,5.06,0.92,0.13,0.34,-2,0,-9,0.92,6245,13,90,34,29,910,347.0,465,456,60,117.0,111,1,280,164,38,0,0,341,8841,160,328,,,,,,,,,,,,
902603,1560693430711,2,2.12,2.34,3.26,1.8,5.08,0.82,0.21,0.32,-3,2,-12,0.84,6229,14,90,34,31,912,347.0,464,457,60,117.0,116,1,286,166,38,0,0,337,8841,155,326,,,,,,,,,,,,
902623,1560693430731,2,2.11,2.34,3.25,1.8,5.05,0.74,0.32,0.29,-2,3,-15,0.81,6169,15,90,34,32,913,347.0,462,465,60,117.0,116,1,290,169,38,0,0,340,8841,145,325,,,,,,,,,,,,
902643,1560693430751,3,2.11,2.37,3.24,1.83,5.06,0.74,0.42,0.22,-2,4,-16,0.85,6163,16,90,34,33,915,345.0,461,456,60,117.0,116,1,292,174,38,0,0,341,6870,-30976,323,45.698742,4.909438,33.14,192.2,8,1.6267,0,0.0,1.165,9,0.82,15.0441
902663,1560693430771,-1,2.08,2.38,3.25,1.86,5.06,0.85,0.42,0.16,-3,6,-17,0.95,6165,18,90,34,35,917,342.0,460,456,60,118.0,116,1,298,185,38,0,0,342,-31206,-27136,323,,,,,,,,,,,,
902683,1560693430791,-2,2.08,2.38,3.25,1.87,5.05,0.95,0.29,0.15,-5,5,-17,1.0,6143,19,90,34,37,920,341.0,453,455,60,117.0,116,1,304,196,38,0,0,336,6668,145,321,,,,,,,,,,,,
902703,1560693430809,-1,2.07,2.4,3.24,1.86,5.04,1.06,0.2,0.19,-7,4,-18,1.07,6159,20,90,34,38,922,342.0,441,457,60,118.0,140,1,307,202,45,0,0,338,-31206,140,319,,,,,,,,,,,,
902723,1560693430829,-1,2.07,2.43,3.25,1.85,5.08,1.15,0.13,0.3,-9,2,-20,1.16,6161,21,90,34,40,925,342.0,441,457,60,118.0,140,1,316,209,45,0,0,338,-31206,-32256,316,,,,,,,,,,,,
902743,1560693430849,2,2.06,2.4,3.23,1.84,5.04,1.16,0.09,0.43,-11,-1,-20,1.16,6163,21,90,34,42,927,342.0,445,456,60,117.0,140,1,329,211,45,0,0,339,-31206,140,314,45.698746,4.909427,32.18,192.2,8,1.6267,0,0.0,1.1667,9,0.82,15.0457
902763,1560693430869,2,2.07,2.4,3.17,1.84,5.07,1.1,0.16,0.46,-12,-3,-21,1.11,6202,21,90,34,43,929,343.0,448,457,60,117.0,140,1,336,213,45,0,0,340,-14714,135,313,,,,,,,,,,,,
902783,1560693430891,4,2.07,2.41,3.1,1.82,5.04,1.06,0.25,0.49,-12,-3,-22,1.09,6245,22,90,34,44,927,341.0,453,455,60,117.0,140,1,342,214,45,0,0,342,6668,125,313,,,,,,,,,,,,
902803,1560693430911,9,2.07,2.39,3.09,1.82,5.04,1.02,0.35,0.42,-13,-3,-21,1.08,6275,23,90,34,45,927,341.0,457,455,60,118.0,162,1,349,216,51,0,0,339,6668,-30976,312,,,,,,,,,,,,
902823,1560693430931,-1,2.08,2.39,3.1,1.82,5.05,1.01,0.35,0.36,-14,-2,-19,1.07,6311,24,90,34,47,923,341.0,449,453,60,118.0,162,1,363,219,51,0,0,339,6668,125,311,,,,,,,,,,,,
902843,1560693430951,1,2.08,2.39,3.13,1.86,5.04,0.99,0.31,0.34,-15,-0,-20,1.03,6306,24,90,34,48,918,340.0,458,453,60,118.0,162,1,366,219,51,0,0,336,3327,-32256,311,45.69875,4.909415,31.71,192.2,8,1.6267,0,0.0,1.1683,9,0.82,15.0474
902863,1560693430971,2,2.07,2.4,3.16,1.88,5.05,1.05,0.34,0.43,-15,-1,-20,1.11,6340,24,89,34,49,915,340.0,456,457,60,118.0,162,1,369,230,51,0,0,337,2560,30720,312,,,,,,,,,,,,
902883,1560693430991,5,2.07,2.4,3.19,1.91,5.04,1.0,0.42,0.39,-16,1,-19,1.08,6347,25,90,34,50,909,339.0,464,449,60,117.0,162,1,372,235,51,0,0,338,-122,-32256,311,,,,,,,,,,,,
902903,1560693431003,0,2.07,2.4,3.17,1.91,5.05,0.91,0.43,0.33,-15,3,-19,1.01,6360,25,90,34,50,904,339.0,467,448,60,117.0,180,1,372,241,56,0,0,337,-31222,-32256,312,,,,,,,,,,,,
902923,1560693431023,1,2.09,2.4,3.15,1.91,5.04,0.91,0.34,0.46,-16,3,-18,0.97,6416,25,90,34,51,898,338.0,457,430,60,119.0,180,1,376,241,56,0,0,338,-31222,30720,312,,,,,,,,,,,,
902943,1560693431043,4,2.09,2.4,3.13,1.9,5.05,0.86,0.43,0.56,-16,3,-19,0.96,6410,25,90,34,52,892,339.0,458,449,60,117.0,180,1,379,247,56,0,0,335,-122,125,311,45.698753,4.909404,31.61,192.2,8,1.6267,0,0.0,1.17,9,0.82,15.0491
902963,1560693431063,0,2.1,2.39,3.12,1.92,5.06,0.88,0.52,0.62,-15,3,-19,1.02,6441,26,90,34,52,888,338.0,472,451,60,117.0,180,1,379,247,56,0,0,337,2560,-29696,310,,,,,,,,,,,,
902983,1560693431091,0,2.1,2.39,3.12,1.91,5.07,0.88,0.53,0.64,-16,2,-19,1.02,6423,26,90,34,53,907,338.0,456,451,60,118.0,180,1,382,252,56,0,0,337,-31222,145,311,,,,,,,,,,,,
903003,1560693431111,0,2.13,2.39,3.1,1.92,5.06,0.83,0.55,0.76,-16,1,-22,0.99,6334,26,90,34,54,928,337.0,451,445,60,118.0,196,1,386,252,61,0,0,339,2560,-25856,313,,,,,,,,,,,,
903023,1560693431131,2,2.13,2.39,3.11,1.91,5.05,0.78,0.56,0.84,-15,-2,-24,0.97,6231,26,90,34,54,948,338.0,447,443,60,117.0,196,1,385,258,61,0,0,339,-31222,-22016,316,,,,,,,,,,,,
903043,1560693431151,1,2.17,2.39,3.12,1.91,5.06,0.74,0.49,0.86,-15,-1,-27,0.89,6163,27,90,34,55,964,338.0,438,423,60,118.0,196,1,384,258,61,0,0,340,-31222,175,319,45.698757,4.909392,31.15,192.2,8,1.6267,0,0.0,1.1717,9,0.82,15.0507
903063,1560693431171,1,2.18,2.39,3.16,1.93,5.06,0.66,0.39,0.85,-14,-1,-28,0.77,6069,27,90,34,56,1010,339.0,435,434,60,117.0,196,1,384,257,61,0,0,339,-122,-23296,323,,,,,,,,,,,,
903083,1560693431191,2,2.21,2.39,3.15,1.96,5.04,0.63,0.34,0.8,-13,1,-29,0.71,6103,27,90,34,56,1058,338.0,435,446,60,117.0,196,1,384,257,61,0,0,340,-31222,165,323,,,,,,,,,,,,
903103,1560693431211,2,2.23,2.39,3.19,1.97,5.06,0.64,0.36,0.76,-12,2,-29,0.73,6139,27,90,34,57,1091,338.0,436,451,60,117.0,183,1,384,257,59,0,0,340,-31222,160,322,,,,,,,,,,,,
903123,1560693431231,0,2.25,2.37,3.25,1.99,5.08,0.69,0.36,0.74,-12,2,-29,0.78,6151,27,89,34,57,1111,338.0,435,448,60,118.0,183,1,385,257,59,0,0,336,-31222,170,324,,,,,,,,,,,,
903143,1560693431251,0,2.26,2.36,3.28,2.01,5.04,0.73,0.32,0.64,-11,4,-27,0.8,6216,27,90,34,57,1143,336.0,446,436,60,119.0,183,1,387,258,59,0,0,337,13,175,326,45.698757,4.90938,31.42,192.2,8,1.6267,0,0.0,1.1733,9,0.83,15.0524
903163,1560693431271,-0,2.28,2.33,3.27,2.04,5.07,0.81,0.29,0.62,-11,2,-24,0.86,6229,27,90,34,57,1181,334.0,438,445,60,118.0,183,1,387,258,59,0,0,336,4838,175,328,,,,,,,,,,,,
903183,1560693431291,1,2.3,2.31,3.27,2.07,5.08,0.85,0.15,0.73,-10,1,-22,0.86,6216,27,90,34,58,1212,334.0,442,455,60,118.0,183,1,387,258,59,0,0,336,4838,4838,330,,,,,,,,,,,,
903203,1560693431311,4,2.32,2.3,3.26,2.1,5.03,0.81,0.05,0.76,-8,-2,-19,0.81,6241,28,90,34,58,1222,332.0,436,447,60,117.0,184,1,388,259,61,0,0,335,-32559,-12032,331,,,,,,,,,,,,
903223,1560693431331,4,2.33,2.3,3.27,2.08,5.05,0.73,0.04,0.77,-6,-4,-16,0.73,6250,28,90,34,58,1229,334.0,445,445,60,117.0,184,1,388,258,61,0,0,331,175,4838,334,,,,,,,,,,,,
903243,1560693431351,1,2.35,2.28,3.32,2.1,5.07,0.65,0.03,0.72,-4,-2,-13,0.66,6283,28,90,34,58,1236,335.0,447,446,60,118.0,184,1,389,260,61,0,0,332,-20736,13,337,45.698757,4.909368,31.81,192.1,8,1.6267,0,0.0,1.175,9,0.83,15.0541
903263,1560693431371,-2,2.38,2.26,3.33,2.1,5.07,0.71,0.02,0.59,-3,-1,-9,0.71,6239,28,90,34,59,1238,336.0,452,446,60,118.0,184,1,389,258,61,0,0,332,175,-6528,336,,,,,,,,,,,,
903283,1560693431391,1,2.39,2.24,3.39,2.1,5.06,0.73,-0.06,0.62,-1,-1,-7,0.73,6279,28,90,34,59,1233,337.0,448,448,60,118.0,184,1,390,260,61,0,0,334,175,-31222,338,,,,,,,,,,,,
903303,1560693431410,2,2.41,2.23,3.41,2.13,5.08,0.74,-0.12,0.68,0,1,-6,0.75,6252,28,90,34,59,1231,340.0,439,448,60,118.0,180,1,389,259,61,0,0,331,-20736,-122,340,,,,,,,,,,,,
903323,1560693431430,1,2.44,2.24,3.43,2.15,5.05,0.75,-0.14,0.7,2,-0,-5,0.76,6317,29,90,34,59,1235,341.0,443,458,60,118.0,180,1,390,260,61,0,0,331,-20736,-31206,341,,,,,,,,,,,,
903343,1560693431450,3,2.44,2.24,3.44,2.16,5.04,0.73,-0.16,0.64,3,0,-4,0.75,6296,29,90,34,59,1243,341.0,451,448,60,117.0,180,1,390,261,61,0,0,333,-22016,6870,342,45.698757,4.909357,31.79,192.1,8,1.6267,0,0.0,1.1767,9,0.83,15.0557
903363,1560693431470,0,2.46,2.23,3.46,2.15,5.08,0.82,-0.22,0.58,4,0,-1,0.85,6260,29,90,34,60,1250,343.0,447,435,60,117.0,180,1,391,260,61,0,0,333,170,-14714,343,,,,,,,,,,,,
903383,1560693431490,-1,2.46,2.23,3.48,2.15,5.04,0.83,-0.28,0.58,4,-0,0,0.87,6291,29,90,34,60,1261,345.0,440,445,60,118.0,180,1,391,261,61,0,0,330,-22016,3327,345,,,,,,,,,,,,
903403,1560693431510,-1,2.47,2.22,3.48,2.15,5.07,0.79,-0.34,0.71,6,-1,2,0.86,6294,29,90,34,60,1283,345.0,438,444,60,118.0,182,1,391,261,63,0,0,327,165,-14714,346,,,,,,,,,,,,
903423,1560693431530,3,2.47,2.22,3.5,2.15,5.04,0.73,-0.4,0.81,9,-2,1,0.83,6260,29,90,34,60,1304,347.0,435,457,60,117.0,182,1,391,260,63,0,0,330,165,-14714,347,,,,,,,,,,,,
903443,1560693431550,5,2.48,2.21,3.48,2.17,5.04,0.78,-0.32,0.77,10,-1,1,0.84,6330,29,90,34,60,1317,348.0,442,448,60,117.0,182,1,393,262,63,0,0,327,165,8841,348,45.698757,4.909345,32.03,192.0,8,1.6267,0,0.0,1.1783,9,0.83,15.0574
903463,1560693431570,0,2.48,2.21,3.47,2.17,5.04,0.87,-0.33,0.67,11,-3,3,0.93,6323,30,90,34,60,1335,349.0,449,451,60,118.0,182,1,392,263,63,0,0,329,-23296,-30438,348,,,,,,,,,,,,
903483,1560693431590,0,2.49,2.2,3.48,2.19,5.07,0.88,-0.44,0.62,11,-4,4,0.98,6317,30,90,34,60,1350,349.0,444,444,60,118.0,182,1,392,262,63,0,0,327,-23296,-14714,349,,,,,,,,,,,,
903503,1560693431610,1,2.5,2.2,3.5,2.19,5.04,0.82,-0.44,0.64,12,-4,6,0.93,6302,30,90,34,61,1360,348.0,450,447,60,118.0,177,1,393,263,62,0,0,326,160,-30454,348,,,,,,,,,,,,
903523,1560693431630,3,2.5,2.2,3.5,2.21,5.04,0.69,-0.49,0.68,15,-4,7,0.85,6315,30,89,34,61,1359,350.0,456,450,60,117.0,177,1,393,263,62,0,0,328,160,-30454,351,,,,,,,,,,,,
903543,1560693431650,5,2.5,2.19,3.5,2.21,5.04,0.71,-0.51,0.67,16,-2,8,0.87,6313,30,90,34,61,1360,351.0,454,455,60,117.0,177,1,394,263,62,0,0,326,-24576,-30438,351,45.698761,4.909333,32.96,192.0,8,1.6267,0,0.0,1.18,9,0.83,15.059
903563,1560693431670,-2,2.5,2.18,3.5,2.22,5.05,0.81,-0.51,0.59,16,-2,10,0.96,6304,31,90,34,61,1366,351.0,447,456,60,119.0,177,1,394,263,62,0,0,327,-24576,28553,351,,,,,,,,,,,,
903583,1560693431692,-1,2.51,2.17,3.49,2.22,5.06,0.88,-0.57,0.59,16,-4,13,1.05,6287,31,90,34,62,1371,352.0,446,453,60,118.0,177,1,390,262,62,0,0,327,155,28553,352,,,,,,,,,,,,
903603,1560693431712,2,2.5,2.17,3.5,2.23,5.06,0.93,-0.6,0.66,17,-5,16,1.11,6283,31,90,34,62,1374,352.0,446,453,60,117.0,178,1,390,269,63,0,0,327,-24576,2811,352,,,,,,,,,,,,
903623,1560693431732,2,2.5,2.17,3.49,2.23,5.08,0.86,-0.61,0.67,18,-6,17,1.05,6273,31,90,34,62,1376,352.0,445,450,60,118.0,178,1,390,269,63,0,0,324,-24576,-1246,352,,,,,,,,,,,,
903643,1560693431752,3,2.51,2.16,3.48,2.24,5.06,0.85,-0.62,0.66,19,-6,20,1.05,6321,31,90,34,62,1382,352.0,448,447,60,117.0,178,1,391,271,63,0,0,328,155,28553,352,45.698765,4.909321,32.99,191.9,8,1.6267,0,0.0,1.1817,9,0.83,15.0607
903663,1560693431772,-1,2.5,2.14,3.48,2.24,5.07,0.83,-0.6,0.58,19,-4,22,1.03,6386,31,90,34,62,1390,352.0,451,452,60,118.0,178,1,394,273,63,0,0,324,160,-30454,352,,,,,,,,,,,,
903683,1560693431792,1,2.5,2.13,3.49,2.25,5.06,0.9,-0.62,0.64,19,-3,23,1.1,6421,32,90,34,63,1394,354.0,448,453,60,119.0,178,1,392,281,63,0,0,328,-24576,-6640,354,,,,,,,,,,,,
903703,1560693431810,3,2.5,2.13,3.48,2.25,5.07,0.82,-0.58,0.76,20,-3,24,1.01,6452,32,90,34,63,1395,354.0,452,453,60,117.0,186,1,393,282,66,0,0,330,-23296,-30454,354,,,,,,,,,,,,
903723,1560693431830,-1,2.5,2.13,3.46,2.27,5.04,0.89,-0.6,0.61,20,-3,25,1.07,6423,32,90,34,63,1400,356.0,457,452,60,118.0,186,1,392,281,66,0,0,333,160,-6644,356,,,,,,,,,,,,
903743,1560693431850,-0,2.49,2.13,3.46,2.28,5.06,0.83,-0.59,0.57,19,-3,26,1.02,6408,32,90,34,63,1408,356.0,446,446,60,118.0,186,1,391,280,66,0,0,334,-23296,28553,355,45.698765,4.90931,33.27,191.9,8,1.6267,0,0.0,1.1833,9,0.83,15.0624
903763,1560693431870,1,2.5,2.13,3.45,2.31,5.03,0.82,-0.64,0.7,19,-4,25,1.04,6392,32,90,34,63,1414,355.0,443,458,60,117.0,186,1,390,279,66,0,0,334,-23296,3302,355,,,,,,,,,,,,
903783,1560693431890,5,2.48,2.12,3.45,2.3,5.05,0.8,-0.57,0.71,20,-3,24,0.99,6430,32,90,34,63,1418,356.0,443,453,60,116.0,186,1,392,279,66,0,0,333,-22016,-6644,356,,,,,,,,,,,,
903803,1560693431908,-1,2.48,2.11,3.44,2.3,5.07,0.92,-0.55,0.64,20,-5,24,1.07,6434,33,90,34,64,1411,357.0,450,452,60,118.0,190,1,388,288,68,0,0,334,170,-29978,357,,,,,,,,,,,,
903823,1560693431928,0,2.47,2.12,3.43,2.31,5.06,0.88,-0.56,0.66,20,-4,24,1.04,6441,33,90,34,64,1401,356.0,445,450,60,118.0,190,1,388,288,68,0,0,337,-20736,2060,359,,,,,,,,,,,,
903843,1560693431948,3,2.47,2.12,3.39,2.31,5.06,0.74,-0.59,0.69,21,-3,23,0.95,6461,33,90,34,64,1386,357.0,457,453,60,117.0,190,1,389,290,68,0,0,365,170,4104,357,45.698769,4.909298,33.23,191.8,8,1.6267,0,0.0,1.185,9,0.83,15.064
903863,1560693431968,-1,2.46,2.12,3.37,2.32,5.05,0.79,-0.53,0.65,20,-2,23,0.95,6481,33,90,34,64,1375,358.0,463,455,60,118.0,190,1,390,290,68,0,0,331,-20736,2060,358,,,,,,,,,,,,
903883,1560693431988,-0,2.46,2.12,3.37,2.31,5.06,0.9,-0.62,0.73,20,-5,22,1.09,6503,33,90,34,64,1362,358.0,453,456,60,118.0,190,1,391,291,68,0,0,334,175,-29978,358,,,,,,,,,,,,
903903,1560693432004,2,2.43,2.12,3.37,2.3,5.03,0.84,-0.62,0.76,20,-5,22,1.04,6533,33,90,34,64,1349,358.0,452,456,60,117.0,201,1,392,291,72,0,0,338,-32559,-6458,359,,,,,,,,,,,,
903923,1560693432024,-0,2.42,2.13,3.37,2.31,5.05,0.8,-0.6,0.6,19,-3,22,1.0,6613,34,90,34,64,1343,359.0,462,448,60,118.0,201,1,395,295,72,0,0,343,4838,4104,359,,,,,,,,,,,,
903943,1560693432044,4,2.41,2.16,3.38,2.32,5.04,0.82,-0.59,0.68,18,-3,23,1.01,6646,34,90,34,64,1345,358.0,455,462,60,117.0,201,1,396,296,72,0,0,347,3346,-14707,358,45.698772,4.909287,33.4,191.8,8,1.6267,0,0.0,1.1867,9,0.83,15.0657
903963,1560693432064,-1,2.4,2.17,3.35,2.32,5.04,0.78,-0.52,0.58,18,-2,24,0.94,6670,34,90,34,64,1340,358.0,465,456,60,117.0,201,1,397,297,72,0,0,351,-122,-14707,358,,,,,,,,,,,,
903983,1560693432084,4,2.39,2.2,3.33,2.32,5.04,0.81,-0.6,0.71,16,-2,23,1.01,6722,34,90,34,64,1333,359.0,458,449,60,118.0,201,1,400,299,72,0,0,352,6668,2790,359,,,,,,,,,,,,
904003,1560693432110,-2,2.37,2.21,3.31,2.31,5.07,0.82,-0.48,0.56,16,-2,23,0.95,6773,34,90,34,64,1323,358.0,471,459,60,117.0,211,1,402,299,76,0,0,357,-10554,2790,358,,,,,,,,,,,,
904023,1560693432130,5,2.35,2.23,3.3,2.3,5.05,0.82,-0.48,0.65,15,-2,23,0.95,6810,34,90,34,63,1314,360.0,466,450,60,118.0,211,1,407,297,76,0,0,359,-30438,-1268,360,,,,,,,,,,,,
904043,1560693432150,-0,2.34,2.23,3.28,2.29,5.05,0.76,-0.4,0.57,14,0,23,0.86,6810,34,90,34,63,1288,362.0,474,453,60,118.0,211,1,407,302,76,0,0,363,28553,0,362,45.698776,4.909276,33.27,191.7,8,1.6267,0,0.0,1.1883,9,0.83,15.0674
904063,1560693432170,3,2.33,2.27,3.23,2.28,5.06,0.72,-0.34,0.69,13,-3,21,0.8,6820,34,90,34,63,1266,362.0,468,459,60,117.0,211,1,408,298,76,0,0,366,3302,0,362,,,,,,,,,,,,
904083,1560693432190,2,2.31,2.3,3.23,2.28,5.04,0.69,-0.39,0.71,12,-2,18,0.8,6865,34,90,34,63,1239,365.0,478,448,60,118.0,211,1,410,299,76,0,0,368,-6640,0,364,,,,,,,,,,,,
904103,1560693432210,1,2.31,2.29,3.24,2.27,5.08,0.66,-0.3,0.66,11,-2,15,0.72,6880,34,90,34,63,1219,366.0,475,454,60,117.0,211,1,410,300,77,0,0,370,-29302,-6656,366,,,,,,,,,,,,
904123,1560693432230,4,2.3,2.3,3.24,2.27,5.04,0.74,-0.39,0.67,10,-3,14,0.84,6898,34,90,34,63,1192,367.0,478,453,60,118.0,211,1,411,300,77,0,0,374,2790,486,367,,,,,,,,,,,,
904143,1560693432250,-1,2.3,2.31,3.24,2.26,5.08,0.66,-0.26,0.53,10,-1,14,0.71,6978,35,90,34,63,1144,370.0,481,456,60,117.0,211,1,414,303,77,0,0,371,230,-6656,370,45.69878,4.909265,34.13,191.7,8,1.6267,0,0.0,1.19,9,0.83,15.069
904163,1560693432270,-0,2.3,2.31,3.24,2.26,5.06,0.67,-0.25,0.63,8,-1,15,0.71,7025,35,90,34,63,1095,371.0,491,455,60,117.0,211,1,416,305,77,0,0,381,0,-6656,371,,,,,,,,,,,,
904183,1560693432290,4,2.3,2.3,3.22,2.26,5.04,0.8,-0.35,0.77,7,-1,13,0.88,7070,35,90,34,62,1067,373.0,485,458,60,118.0,211,1,421,301,77,0,0,375,486,8200,373,,,,,,,,,,,,
904203,1560693432310,1,2.3,2.31,3.2,2.25,5.06,0.62,-0.33,0.7,8,1,12,0.7,7151,35,90,34,62,1035,373.0,500,451,60,118.0,217,1,424,303,81,0,0,380,-6656,-18948,373,,,,,,,,,,,,
904223,1560693432330,0,2.31,2.33,3.21,2.26,5.04,0.5,-0.24,0.65,8,1,11,0.55,7159,35,90,34,62,999,376.0,506,455,60,117.0,217,1,425,303,81,0,0,383,770,-6475,376,,,,,,,,,,,,
904243,1560693432350,-0,2.31,2.32,3.21,2.25,5.05,0.6,-0.15,0.69,6,-1,9,0.62,7197,35,90,34,62,970,377.0,501,452,60,117.0,217,1,426,303,81,0,0,383,-6656,-6475,378,45.698788,4.909254,35.03,191.6,8,1.6267,0,0.0,1.1917,9,0.84,15.0707
904263,1560693432370,-1,2.31,2.33,3.21,2.25,5.05,0.72,-0.16,0.75,5,-0,8,0.73,7259,35,90,34,61,962,379.0,502,455,60,117.0,217,1,430,299,81,0,0,387,2278,-3866,382,,,,,,,,,,,,
904283,1560693432390,5,2.31,2.32,3.21,2.26,5.08,0.74,-0.23,0.88,5,-2,8,0.78,7261,35,90,34,61,956,383.0,507,453,60,118.0,217,1,430,299,81,0,0,390,8200,-1562,383,,,,,,,,,,,,
904303,1560693432409,4,2.31,2.31,3.18,2.25,5.06,0.58,-0.31,0.9,5,-0,7,0.66,7324,35,90,34,60,952,386.0,507,452,60,117.0,216,1,426,300,83,0,0,392,19125,1,386,,,,,,,,,,,,
904323,1560693432429,4,2.3,2.31,3.17,2.26,5.04,0.57,-0.26,0.81,6,-0,7,0.62,7335,35,90,34,60,949,387.0,510,452,60,118.0,216,1,426,294,83,0,0,395,-19126,-1818,387,,,,,,,,,,,,
904343,1560693432449,3,2.31,2.31,3.17,2.26,5.05,0.61,-0.25,0.81,5,-2,8,0.66,7411,35,90,34,60,955,388.0,510,451,60,118.0,216,1,427,295,83,0,0,395,-3866,-3968,388,45.698792,4.909243,35.96,191.5,8,1.6267,0,0.0,1.1933,9,0.84,15.0724
904363,1560693432469,2,2.31,2.31,3.19,2.26,5.05,0.48,-0.23,0.73,5,-1,9,0.54,7431,35,90,34,60,960,392.0,507,451,60,117.0,216,1,428,295,83,0,0,396,-6524,-3968,392,,,,,,,,,,,,
904383,1560693432491,4,2.29,2.32,3.21,2.27,5.04,0.48,-0.19,0.63,5,-1,8,0.52,7509,35,90,34,59,960,394.0,519,450,60,117.0,216,1,423,290,83,0,0,400,505,2524,394,,,,,,,,,,,,
904403,1560693432511,3,2.3,2.33,3.2,2.27,5.04,0.37,-0.17,0.61,6,-0,7,0.4,7527,35,90,34,59,957,397.0,524,457,60,118.0,207,1,423,290,82,0,0,404,-6656,28696,399,,,,,,,,,,,,
904423,1560693432531,2,2.3,2.33,3.22,2.28,5.06,0.4,-0.16,0.56,5,-2,7,0.43,7584,35,90,34,58,951,398.0,528,453,60,118.0,207,1,418,284,82,0,0,405,-3968,-26615,398,,,,,,,,,,,,
904443,1560693432551,3,2.29,2.32,3.2,2.27,5.07,0.37,-0.22,0.58,5,-0,8,0.43,7606,35,90,34,58,943,399.0,523,451,60,118.0,207,1,418,285,82,0,0,407,28696,1504,401,45.698799,4.909231,36.89,191.5,8,1.6267,0,0.0,1.195,9,0.84,15.074
904463,1560693432571,0,2.28,2.32,3.18,2.27,5.08,0.41,-0.24,0.62,4,0,8,0.48,7687,35,90,33,57,933,402.0,529,451,60,117.0,207,1,411,285,82,0,0,410,10541,13040,404,,,,,,,,,,,,
904483,1560693432591,1,2.28,2.35,3.17,2.26,5.06,0.38,-0.29,0.72,5,-0,7,0.47,7693,34,90,33,57,920,404.0,523,452,60,118.0,207,1,412,280,82,0,0,409,1504,-26615,404,,,,,,,,,,,,
904503,1560693432611,1,2.28,2.35,3.19,2.27,5.07,0.4,-0.26,0.79,5,0,7,0.48,7744,32,90,33,55,912,405.0,533,455,60,118.0,202,1,397,270,82,0,0,413,1504,9517,405,,,,,,,,,,,,
904523,1560693432631,1,2.28,2.36,3.18,2.27,5.07,0.5,-0.12,0.74,4,-1,7,0.52,7735,31,90,33,54,907,409.0,526,455,60,118.0,202,1,390,265,82,0,0,418,10392,-26615,409,,,,,,,,,,,,
904543,1560693432651,3,2.28,2.35,3.18,2.27,5.05,0.5,-0.13,0.65,3,-2,6,0.51,7735,30,90,33,53,896,410.0,541,457,60,116.0,202,1,387,259,82,0,0,421,10392,18584,410,45.698799,4.909219,38.5,191.5,8,1.6267,0,0.0,1.1967,9,0.84,15.0757
904563,1560693432671,3,2.27,2.35,3.2,2.27,5.08,0.55,-0.11,0.6,3,-3,6,0.56,7783,28,90,33,52,890,412.0,528,459,60,117.0,202,1,384,253,82,0,0,416,13040,-21944,411,,,,,,,,,,,,
904583,1560693432691,-1,2.27,2.35,3.19,2.26,5.06,0.57,-0.22,0.64,2,-3,5,0.61,7770,26,90,33,49,885,414.0,539,453,60,118.0,202,1,375,241,82,0,0,421,-4059,-26615,415,,,,,,,,,,,,
904603,1560693432711,1,2.27,2.36,3.18,2.26,5.04,0.61,-0.28,0.77,2,-4,3,0.67,7832,24,90,33,47,882,415.0,537,455,60,118.0,166,1,370,223,69,0,0,421,18584,-3414,415,,,,,,,,,,,,
904623,1560693432731,3,2.27,2.35,3.2,2.24,5.04,0.67,-0.28,0.81,2,-5,2,0.73,7815,23,90,33,45,871,416.0,544,452,60,117.0,166,1,355,219,69,0,0,423,-21944,-8165,414,,,,,,,,,,,,
904643,1560693432751,4,2.26,2.36,3.24,2.25,5.05,0.63,-0.15,0.69,1,-4,2,0.65,7858,22,90,33,43,863,418.0,548,458,60,117.0,166,1,340,216,69,0,0,420,-3414,-21792,416,45.698807,4.909206,39.96,191.5,8,1.6267,0,0.0,1.1983,9,0.84,15.0774
904663,1560693432771,4,2.27,2.35,3.26,2.24,5.08,0.53,-0.1,0.53,1,-4,2,0.54,7841,22,90,33,41,853,419.0,550,453,60,117.0,166,1,325,212,69,0,0,425,-3414,-8165,417,,,,,,,,,,,,
904683,1560693432791,-0,2.28,2.35,3.27,2.23,5.08,0.5,-0.14,0.53,2,-3,2,0.52,7773,21,90,33,39,845,420.0,541,455,60,118.0,166,1,310,210,69,0,0,426,-8165,7154,419,,,,,,,,,,,,
904703,1560693432811,-1,2.28,2.35,3.27,2.23,5.05,0.59,-0.21,0.68,1,-3,2,0.62,7763,21,90,33,38,835,421.0,546,456,60,118.0,145,1,307,209,61,0,0,419,-8165,-21944,419,,,,,,,,,,,,
904723,1560693432831,1,2.28,2.34,3.28,2.2,5.04,0.73,-0.24,0.81,1,-3,-0,0.77,7618,19,90,33,37,821,420.0,542,455,60,117.0,145,1,304,197,61,0,0,421,-8165,-26615,418,,,,,,,,,,,,
904743,1560693432851,2,2.3,2.34,3.27,2.18,5.05,0.86,-0.25,0.91,-0,-6,-2,0.9,7646,17,90,33,36,811,421.0,537,456,60,118.0,145,1,301,191,61,0,0,422,-21792,7154,420,45.698814,4.909194,40.88,191.5,8,1.6267,0,0.0,1.2,9,0.84,15.0791
904763,1560693432871,-1,2.3,2.33,3.27,2.19,5.06,0.98,-0.23,0.9,-1,-7,-2,1.0,7588,15,90,33,34,805,420.0,531,451,60,118.0,145,1,295,179,61,0,0,421,-8165,-21944,417,,,,,,,,,,,,
904783,1560693432891,2,2.3,2.33,3.29,2.19,5.08,0.95,-0.15,0.86,-1,-7,-1,0.96,7560,14,90,33,32,796,419.0,530,457,60,117.0,145,1,290,169,61,0,0,416,7154,-21944,419,,,,,,,,,,,,
904803,1560693432911,1,2.3,2.33,3.3,2.19,5.05,1.02,-0.05,0.86,-1,-7,-1,1.02,7434,13,90,33,31,785,420.0,535,457,60,117.0,114,1,286,167,48,0,0,423,-3414,-26615,420,,,,,,,,,,,,
904823,1560693432931,0,2.32,2.29,3.31,2.18,5.07,1.12,-0.09,0.91,-1,-8,-1,1.12,7367,13,90,33,30,776,420.0,526,451,60,117.0,114,1,282,166,48,0,0,416,18584,7154,420,,,,,,,,,,,,
904843,1560693432951,4,2.32,2.25,3.31,2.2,5.05,1.16,-0.21,0.97,-2,-7,-1,1.18,7273,12,90,33,30,772,423.0,516,456,60,118.0,114,1,278,164,48,0,0,418,-21944,7154,421,45.698818,4.909181,40.88,191.4,8,1.6267,0,0.0,1.2017,9,0.84,15.0807
904863,1560693432971,3,2.33,2.06,3.27,2.11,5.05,1.2,-0.23,0.94,-0,-6,2,1.22,7205,11,90,33,29,770,423.0,512,454,60,118.0,114,1,278,164,48,0,0,416,2524,-21944,423,,,,,,,,,,,,
904883,1560693432991,-1,2.35,2.02,3.25,1.95,5.06,1.04,-0.12,0.75,2,-4,3,1.05,7104,10,90,33,28,767,425.0,512,457,60,117.0,114,1,273,163,48,0,0,412,-26615,-26615,425,,,,,,,,,,,,
904903,1560693433003,-0,2.36,1.99,3.33,1.95,5.04,0.99,-0.07,0.67,4,-3,3,1.0,7228,9,90,33,27,766,423.0,513,459,60,117.0,103,1,270,161,44,0,0,404,2524,-26615,421,,,,,,,,,,,,
904923,1560693433023,-0,2.37,1.96,3.41,1.98,5.05,1.1,-0.09,0.76,4,-5,4,1.1,7307,9,90,33,26,768,419.0,516,452,60,118.0,103,1,266,160,44,0,0,395,9517,-9211,417,,,,,,,,,,,,
904943,1560693433043,-2,2.37,1.96,3.48,1.98,5.05,1.18,-0.15,0.8,3,-4,4,1.19,7405,9,90,33,26,772,416.0,512,457,60,117.0,103,1,267,159,44,0,0,390,2524,10541,416,45.698822,4.909169,40.97,191.3,8,1.6267,0,0.0,1.2033,9,0.84,15.0824
904963,1560693433063,-2,2.38,1.96,3.49,2.04,5.04,1.22,-0.21,0.84,3,-3,5,1.24,7479,8,90,33,25,778,416.0,542,457,60,117.0,103,1,264,159,44,0,0,389,11545,11545,416,,,,,,,,,,,,
904983,1560693433083,-1,2.4,1.99,3.52,2.11,5.07,1.3,-0.25,0.84,3,-3,5,1.32,7452,8,90,33,24,782,415.0,532,456,60,117.0,103,1,264,156,44,0,0,392,28696,17144,415,,,,,,,,,,,,
905003,1560693433109,1,2.41,2.05,3.48,2.15,5.04,1.36,-0.3,0.89,3,-4,6,1.39,7461,8,90,33,24,786,413.0,534,455,60,117.0,106,1,264,156,44,0,0,389,-32702,10541,413,,,,,,,,,,,,
905023,1560693433129,-2,2.44,2.04,3.26,2.14,5.05,1.43,-0.42,1.0,4,-6,5,1.49,7405,8,90,33,23,790,409.0,523,455,60,118.0,106,1,264,154,44,0,0,391,1,-9211,408,,,,,,,,,,,,
905043,1560693433149,3,2.45,2.01,3.28,2.15,5.04,1.45,-0.55,1.07,6,-6,6,1.55,7405,8,90,33,23,795,407.0,526,457,60,118.0,106,1,264,154,44,0,0,391,505,6384,406,45.69883,4.909156,39.32,191.2,8,1.6267,0,0.0,1.205,9,0.84,15.0841
905063,1560693433169,4,2.44,1.98,3.44,2.17,5.05,1.41,-0.65,1.08,8,-8,7,1.55,7327,8,90,33,23,801,407.0,520,455,60,118.0,106,1,263,154,44,0,0,382,-6475,10541,407,,,,,,,,,,,,
905083,1560693433191,0,2.46,1.96,3.54,2.18,5.05,1.25,-0.65,0.91,9,-8,9,1.41,7278,8,90,33,22,803,405.0,520,458,60,118.0,106,1,262,151,44,0,0,374,-18948,28696,405,,,,,,,,,,,,
905103,1560693433211,-1,2.46,1.95,3.6,2.18,5.04,1.07,-0.57,0.76,12,-6,12,1.21,7164,8,90,33,23,807,405.0,518,456,60,117.0,103,1,261,154,42,0,0,377,2278,-3968,405,,,,,,,,,,,,
905123,1560693433231,1,2.46,1.95,3.65,2.18,5.04,1.07,-0.53,0.75,12,-6,14,1.2,7131,8,90,33,23,820,406.0,501,453,60,118.0,103,1,261,154,42,0,0,368,2278,-1818,406,,,,,,,,,,,,
905143,1560693433251,4,2.48,1.95,3.64,2.21,5.05,1.14,-0.61,0.82,12,-7,15,1.29,7091,8,90,33,23,835,407.0,506,456,60,118.0,103,1,260,154,42,0,0,365,770,-1818,407,45.698837,4.909144,38.79,191.2,8,1.6267,0,0.0,1.2067,9,0.85,15.0857
905163,1560693433271,-1,2.49,1.95,3.66,2.23,5.05,1.08,-0.62,0.61,13,-6,17,1.24,6991,8,90,33,23,842,404.0,507,457,60,116.0,103,1,260,153,42,0,0,364,742,-1818,404,,,,,,,,,,,,
905183,1560693433292,0,2.5,1.95,3.62,2.24,5.04,0.91,-0.58,0.53,16,-5,19,1.08,6975,8,90,33,23,852,403.0,495,456,60,118.0,103,1,260,153,42,0,0,361,-6656,505,404,,,,,,,,,,,,
905203,1560693433312,4,2.52,1.94,3.58,2.28,5.04,1.02,-0.7,0.55,16,-6,20,1.24,6970,8,90,33,23,870,401.0,499,455,60,118.0,99,1,260,153,40,0,0,365,486,-19126,401,,,,,,,,,,,,
905223,1560693433332,-0,2.52,1.92,3.59,2.3,5.05,1.07,-0.75,0.54,18,-5,23,1.31,6957,8,90,33,23,882,401.0,493,456,60,118.0,99,1,260,153,40,0,0,354,230,-1562,401,,,,,,,,,,,,
905243,1560693433352,1,2.52,1.89,3.59,2.3,5.07,1.03,-0.84,0.68,19,-5,25,1.33,6957,8,90,33,23,886,400.0,500,458,60,117.0,99,1,260,153,40,0,0,349,-1268,240,400,45.698837,4.909133,38.07,191.1,8,1.6267,0,0.0,1.2083,9,0.85,15.0874
905263,1560693433372,4,2.51,1.88,3.58,2.3,5.04,1.06,-0.93,0.74,19,-7,25,1.41,6934,8,90,33,23,890,398.0,497,461,60,118.0,99,1,260,153,40,0,0,353,-14707,240,398,,,,,,,,,,,,
905283,1560693433392,-1,2.51,1.85,3.59,2.28,5.07,1.1,-0.91,0.63,21,-4,26,1.43,6883,8,90,33,23,894,395.0,503,461,60,117.0,99,1,261,153,40,0,0,353,-6640,-19019,395,,,,,,,,,,,,
905303,1560693433410,1,2.51,1.85,3.59,2.27,5.05,1.02,-0.88,0.62,21,-7,27,1.35,6855,8,90,33,23,899,394.0,495,460,60,117.0,101,1,261,153,40,0,0,350,4104,-19019,394,,,,,,,,,,,,
905323,1560693433430,-2,2.49,1.86,3.59,2.26,5.06,1.12,-0.96,0.55,21,-4,29,1.48,6815,8,90,33,23,898,391.0,491,456,60,117.0,101,1,261,153,40,0,0,347,2060,-992,391,,,,,,,,,,,,
905343,1560693433450,4,2.49,1.89,3.61,2.25,5.04,0.98,-0.87,0.52,21,-5,29,1.31,6778,8,90,33,23,898,387.0,486,453,60,118.0,101,1,261,153,40,0,0,343,3302,3,387,45.698845,4.909122,37.2,191.0,8,1.6267,0,0.0,1.21,9,0.85,15.0891
905363,1560693433470,-1,2.47,1.93,3.61,2.25,5.04,1.02,-0.89,0.46,22,-4,30,1.36,6715,8,90,33,24,896,385.0,492,458,60,117.0,101,1,262,156,40,0,0,346,-6644,-6656,385,,,,,,,,,,,,
905383,1560693433490,2,2.46,1.75,3.6,2.22,5.04,0.93,-0.85,0.57,20,-4,30,1.25,6686,8,90,33,24,895,380.0,478,458,60,117.0,101,1,263,155,40,0,0,344,28553,1,380,,,,,,,,,,,,
905403,1560693433510,0,2.43,1.73,3.52,2.22,5.08,1.02,-0.76,0.45,20,-2,29,1.27,6677,8,90,33,24,895,382.0,485,462,60,118.0,101,1,263,155,39,0,0,339,28553,-6656,382,,,,,,,,,,,,
905423,1560693433530,3,2.4,1.74,3.39,2.13,5.07,0.97,-0.72,0.53,19,-2,29,1.21,6644,8,90,33,24,894,382.0,478,454,60,118.0,101,1,263,155,39,0,0,342,-1246,257,382,,,,,,,,,,,,
905443,1560693433550,2,2.38,1.84,3.33,2.1,5.05,0.92,-0.57,0.44,20,2,28,1.08,6604,8,90,33,24,894,379.0,479,460,60,116.0,101,1,263,155,39,0,0,345,28553,-29302,379,45.698853,4.909113,35.92,191.0,8,1.6267,0,0.0,1.2117,9,0.85,15.0907
905463,1560693433570,-1,2.34,1.99,3.33,2.13,5.05,1.03,-0.62,0.47,19,-0,26,1.2,6578,8,90,33,24,894,372.0,476,461,60,118.0,101,1,263,155,39,0,0,348,2811,-1268,372,,,,,,,,,,,,
905483,1560693433590,4,2.28,2.04,3.34,2.17,5.04,0.91,-0.51,0.44,17,-3,23,1.04,6576,8,90,33,25,896,367.0,470,457,60,117.0,101,1,265,159,39,0,0,345,8841,4104,364,,,,,,,,,,,,
905503,1560693433610,0,2.23,2.09,3.33,2.16,5.04,0.92,-0.44,0.32,15,-1,23,1.02,6583,8,90,33,25,895,362.0,468,453,60,117.0,107,1,265,159,39,0,0,342,-10554,3302,362,,,,,,,,,,,,
905523,1560693433630,1,2.18,2.18,3.29,2.14,5.06,0.93,-0.42,0.36,13,0,21,1.02,6533,8,90,33,25,898,356.0,469,456,60,118.0,107,1,265,159,39,0,0,347,8841,6870,356,,,,,,,,,,,,
905543,1560693433650,2,2.16,2.27,3.26,2.09,5.05,1.04,-0.32,0.48,10,-1,17,1.09,6461,8,90,33,25,900,351.0,477,460,60,117.0,107,1,266,159,39,0,0,347,28553,6668,350,45.698856,4.909105,34.27,190.9,8,1.6267,0,0.0,1.2133,9,0.85,15.0924
905563,1560693433670,5,2.11,2.37,3.24,2.01,5.05,0.98,-0.26,0.3,8,0,16,1.01,6377,8,90,33,26,901,353.0,470,452,60,117.0,107,1,270,160,39,0,0,351,-6644,6870,347,,,,,,,,,,,,
905583,1560693433690,-1,2.1,2.43,3.21,1.91,5.04,1.04,-0.27,0.25,5,-1,14,1.08,6313,8,90,33,26,904,355.0,455,452,60,118.0,107,1,270,160,39,0,0,352,2060,-6528,340,,,,,,,,,,,,
905603,1560693433710,0,2.08,2.42,3.09,1.84,5.05,1.08,-0.24,0.29,2,-2,11,1.1,6264,8,90,33,26,907,355.0,452,456,60,118.0,112,1,271,160,38,0,0,349,2060,-32559,331,,,,,,,,,,,,
905623,1560693433730,-0,2.09,2.42,3.17,1.81,5.04,1.04,-0.16,0.39,0,-5,8,1.06,6273,8,90,33,27,911,353.0,455,461,60,117.0,112,1,274,161,38,0,0,345,-6644,155,329,,,,,,,,,,,,
905643,1560693433750,1,2.08,2.41,3.27,1.81,5.06,0.96,0.02,0.41,-1,-3,4,0.96,6239,9,90,33,27,911,352.0,453,461,60,117.0,112,1,274,161,38,0,0,342,3183,-28416,328,45.698868,4.909095,34.84,191.2,8,1.6267,0,0.0,1.215,9,0.85,15.0941
905663,1560693433770,3,2.04,2.43,3.37,1.83,5.05,0.9,0.17,0.42,-3,-3,1,0.92,6202,9,90,33,27,912,353.0,463,460,60,117.0,112,1,274,163,38,0,0,340,-6644,160,325,,,,,,,,,,,,
905683,1560693433790,3,2.02,2.49,3.41,1.84,5.06,0.87,0.31,0.37,-4,-1,-1,0.92,6151,9,90,33,28,913,355.0,460,455,60,117.0,112,1,278,163,38,0,0,337,2060,-28416,322,,,,,,,,,,,,
905703,1560693433808,4,1.98,2.52,3.34,1.84,5.04,0.92,0.41,0.35,-7,-1,-3,1.01,6123,9,90,33,28,914,353.0,455,461,60,116.0,114,1,278,163,37,0,0,343,-6644,145,321,,,,,,,,,,,,
905723,1560693433828,3,1.95,2.54,3.23,1.84,5.08,0.99,0.49,0.29,-8,-1,-5,1.1,6069,9,90,33,29,914,354.0,452,459,60,117.0,114,1,281,164,37,0,0,346,-6644,-30976,318,,,,,,,,,,,,
905743,1560693433848,4,1.93,2.54,3.18,1.82,5.03,1.01,0.53,0.23,-10,-1,-8,1.14,6036,9,90,33,29,915,351.0,445,456,60,117.0,114,1,281,164,37,0,0,344,28553,29440,316,45.698875,4.909087,34.05,191.2,8,1.6267,0,0.0,1.2167,9,0.85,15.0957
905763,1560693433868,4,1.92,2.53,3.17,1.81,5.04,1.03,0.51,0.22,-11,-2,-11,1.15,6025,10,90,33,30,916,351.0,446,456,60,117.0,114,1,284,166,37,0,0,344,28553,23040,312,,,,,,,,,,,,
905783,1560693433888,1,1.94,2.49,3.11,1.79,5.05,1.09,0.52,0.24,-13,-1,-14,1.2,5990,10,90,33,30,918,350.0,444,458,60,117.0,114,1,283,165,37,0,0,345,-30454,24320,311,,,,,,,,,,,,
905803,1560693433910,3,1.96,2.48,3.07,1.76,5.06,1.15,0.49,0.23,-15,-1,-18,1.25,5958,11,90,33,31,919,349.0,436,453,60,118.0,118,1,286,166,37,0,0,343,2811,95,310,,,,,,,,,,,,
905823,1560693433930,3,1.97,2.45,3.04,1.76,5.03,1.17,0.48,0.22,-15,0,-21,1.27,5933,13,90,33,32,919,348.0,432,456,60,118.0,118,1,288,168,37,0,0,339,-1246,85,306,,,,,,,,,,,,
905843,1560693433950,1,2.0,2.43,3.07,1.76,5.05,1.12,0.5,0.22,-14,1,-22,1.23,5927,15,90,33,34,919,345.0,432,453,60,117.0,118,1,294,179,37,0,0,338,6870,20480,305,45.698879,4.909079,32.75,191.2,8,1.6267,0,0.0,1.2183,9,0.85,15.0974
905863,1560693433970,3,1.99,2.41,3.08,1.78,5.05,1.02,0.54,0.22,-14,3,-24,1.16,5898,15,90,33,36,921,346.0,440,458,60,117.0,118,1,299,189,37,0,0,334,-30438,85,304,,,,,,,,,,,,
905883,1560693433990,3,2.0,2.4,3.07,1.8,5.04,0.93,0.62,0.29,-13,3,-26,1.12,5903,15,90,33,37,922,341.0,437,460,60,116.0,118,1,303,195,37,0,0,335,6668,21760,303,,,,,,,,,,,,
905903,1560693434004,2,2.0,2.39,3.08,1.79,5.08,0.81,0.7,0.37,-13,3,-28,1.07,5927,16,90,33,39,922,340.0,436,462,60,116.0,145,1,309,207,44,0,0,333,-31222,85,302,,,,,,,,,,,,
905923,1560693434024,1,2.0,2.37,3.08,1.79,5.05,0.73,0.8,0.45,-13,3,-31,1.08,5967,16,90,33,40,922,338.0,439,458,60,117.0,145,1,315,208,44,0,0,331,-31222,80,302,,,,,,,,,,,,
905943,1560693434044,2,1.99,2.37,3.08,1.8,5.04,0.68,0.83,0.55,-14,1,-34,1.07,5948,16,90,33,40,922,337.0,433,461,60,118.0,145,1,315,208,44,0,0,333,2560,23040,301,45.698883,4.90907,31.18,191.1,8,1.6267,0,0.0,1.22,9,0.85,15.099
905963,1560693434064,0,2.01,2.36,3.07,1.79,5.07,0.64,0.84,0.59,-15,1,-36,1.05,5965,17,90,33,41,921,336.0,441,461,60,117.0,145,1,321,209,44,0,0,335,13,21760,301,,,,,,,,,,,,
905983,1560693434091,1,2.0,2.37,3.05,1.8,5.04,0.6,0.89,0.63,-16,0,-38,1.08,5914,17,90,33,42,920,336.0,437,459,60,117.0,145,1,326,211,44,0,0,334,13,24320,301,,,,,,,,,,,,
906003,1560693434111,0,2.01,2.36,3.03,1.85,5.04,0.6,0.9,0.66,-17,-1,-39,1.08,5909,17,90,33,43,917,336.0,429,461,60,117.0,157,1,332,212,47,0,0,332,3346,85,299,,,,,,,,,,,,
906023,1560693434131,0,2.01,2.37,3.03,1.85,5.05,0.63,0.93,0.68,-19,-2,-39,1.12,5905,17,90,33,44,911,332.0,425,458,60,117.0,157,1,337,212,47,0,0,332,-32559,24320,299,,,,,,,,,,,,
906043,1560693434151,-0,2.03,2.36,3.03,1.84,5.06,0.68,0.89,0.71,-21,-3,-39,1.12,5899,18,90,33,44,905,330.0,422,456,60,118.0,157,1,336,213,47,0,0,327,175,23040,299,45.698891,4.90906,30.36,191.1,8,1.6267,0,0.0,1.2217,9,0.85,15.1007
906063,1560693434171,-1,2.06,2.35,3.03,1.84,5.04,0.77,0.8,0.77,-23,-4,-39,1.11,5909,18,90,33,45,901,330.0,417,452,60,118.0,157,1,342,215,47,0,0,329,175,90,299,,,,,,,,,,,,
906083,1560693434191,-1,2.07,2.35,3.03,1.84,5.04,0.85,0.67,0.83,-24,-4,-39,1.08,5926,19,90,33,46,897,329.0,415,451,60,118.0,157,1,349,216,47,0,0,330,-20736,95,299,,,,,,,,,,,,
906103,1560693434210,-0,2.09,2.33,3.05,1.84,5.08,0.89,0.52,0.91,-24,-4,-39,1.03,5959,20,90,33,47,889,328.0,422,450,60,118.0,160,1,357,218,48,0,0,323,170,24320,300,,,,,,,,,,,,
906123,1560693434230,-0,2.1,2.34,3.06,1.84,5.06,0.92,0.4,0.94,-24,-3,-38,1.0,6005,20,90,33,48,880,326.0,423,445,60,118.0,160,1,363,223,48,0,0,326,165,95,300,,,,,,,,,,,,
906143,1560693434250,-2,2.12,2.34,3.06,1.84,5.07,0.93,0.27,0.97,-24,-2,-37,0.97,6050,21,90,33,48,876,326.0,421,455,60,118.0,160,1,363,223,48,0,0,324,165,95,300,45.698894,4.90905,29.96,191.0,8,1.6267,0,0.0,1.2233,9,0.86,15.1024
906163,1560693434270,-0,2.13,2.34,3.08,1.87,5.04,0.97,0.15,1.06,-23,-2,-35,0.98,6099,21,90,33,49,874,324.0,425,443,60,119.0,160,1,366,229,48,0,0,321,160,90,300,,,,,,,,,,,,
906183,1560693434292,1,2.15,2.33,3.14,1.87,5.08,0.96,0.1,1.14,-23,-4,-34,0.97,6141,21,90,33,49,865,322.0,427,449,60,118.0,160,1,367,229,48,0,0,322,155,25600,300,,,,,,,,,,,,
906203,1560693434312,2,2.17,2.34,3.21,1.86,5.07,0.89,0.14,1.11,-22,-4,-33,0.9,6198,22,90,33,50,854,319.0,438,453,60,117.0,176,1,371,235,53,0,0,316,-27136,100,300,,,,,,,,,,,,
906223,1560693434332,4,2.18,2.34,3.23,1.87,5.04,0.84,0.23,1.07,-21,-2,-32,0.87,6206,22,90,33,50,847,320.0,443,456,60,117.0,176,1,371,235,53,0,0,319,150,105,301,,,,,,,,,,,,
906243,1560693434352,5,2.2,2.35,3.21,1.87,5.06,0.82,0.32,1.05,-20,-2,-31,0.88,6258,22,90,33,51,843,319.0,447,461,60,117.0,176,1,375,241,53,0,0,320,-27136,26880,302,45.698898,4.909041,29.78,191.0,8,1.6267,0,0.0,1.225,9,0.86,15.104
906263,1560693434372,1,2.23,2.35,3.21,1.9,5.04,0.85,0.28,0.98,-19,-1,-29,0.9,6216,23,90,33,51,844,319.0,450,451,60,117.0,176,1,375,241,53,0,0,320,-27136,115,302,,,,,,,,,,,,
906283,1560693434391,-0,2.26,2.34,3.2,1.9,5.08,0.86,0.22,0.92,-17,1,-28,0.88,6151,23,90,33,51,848,318.0,435,442,60,119.0,176,1,374,240,53,0,0,322,145,140,306,,,,,,,,,,,,
906303,1560693434411,1,2.28,2.32,3.17,1.91,5.07,0.9,0.15,0.83,-16,2,-26,0.91,6005,23,90,33,52,856,319.0,427,446,60,118.0,179,1,377,246,55,0,0,323,-27136,-25856,310,,,,,,,,,,,,
906323,1560693434431,2,2.31,2.31,3.16,1.96,5.06,0.9,0.06,0.76,-14,2,-24,0.91,5866,23,90,33,53,865,320.0,416,444,60,118.0,179,1,369,249,55,0,0,323,-27136,-25856,316,,,,,,,,,,,,
906343,1560693434451,1,2.34,2.28,3.2,2.0,5.06,0.81,0.07,0.67,-12,4,-22,0.81,5803,23,90,33,54,896,318.0,417,445,60,118.0,179,1,367,254,55,0,0,321,145,-24576,317,45.698898,4.909031,29.89,191.1,8,1.6267,0,0.0,1.2267,9,0.86,15.1057
906363,1560693434471,2,2.35,2.25,3.26,2.05,5.07,0.7,0.06,0.69,-8,4,-20,0.71,5794,24,90,33,55,927,320.0,413,451,60,117.0,179,1,366,253,55,0,0,319,-28416,-24576,320,,,,,,,,,,,,
906383,1560693434491,3,2.38,2.23,3.3,2.06,5.05,0.6,0.04,0.74,-5,5,-19,0.6,5879,24,90,33,56,950,320.0,409,446,60,117.0,179,1,373,254,55,0,0,317,-29696,140,320,,,,,,,,,,,,
906403,1560693434507,3,2.4,2.22,3.34,2.1,5.06,0.51,-0.01,0.8,-2,5,-18,0.51,5918,27,90,33,57,965,322.0,414,453,60,117.0,173,1,380,254,56,0,0,313,-29696,-25856,322,,,,,,,,,,,,
906423,1560693434527,3,2.44,2.21,3.34,2.16,5.06,0.46,-0.06,0.82,0,5,-16,0.46,6027,29,90,33,58,998,324.0,417,457,60,117.0,173,1,384,253,56,0,0,314,-30976,-23296,324,,,,,,,,,,,,
906443,1560693434547,3,2.46,2.2,3.34,2.23,5.04,0.51,-0.09,0.87,2,5,-14,0.52,6044,32,90,33,59,1037,327.0,417,463,60,117.0,173,1,384,253,56,0,0,313,125,-24576,327,45.698902,4.909021,30.21,191.1,8,1.6267,0,0.0,1.2283,9,0.86,15.1074
906463,1560693434567,3,2.46,2.18,3.3,2.28,5.05,0.51,-0.11,0.94,4,5,-12,0.52,6050,33,90,33,61,1065,327.0,421,462,60,117.0,173,1,383,250,56,0,0,314,32000,-22016,327,,,,,,,,,,,,
906483,1560693434587,3,2.48,2.16,3.28,2.31,5.06,0.46,-0.1,0.98,7,5,-10,0.47,6001,33,90,33,62,1081,330.0,423,460,60,117.0,173,1,378,256,56,0,0,311,120,-22016,330,,,,,,,,,,,,
906503,1560693434609,3,2.49,2.14,3.28,2.33,5.07,0.39,-0.1,1.0,10,4,-8,0.4,5959,34,90,33,64,1096,331.0,420,463,60,116.0,181,1,368,266,60,0,0,311,120,-6528,331,,,,,,,,,,,,
906523,1560693434629,0,2.49,2.14,3.29,2.37,5.07,0.33,-0.15,1.04,12,2,-7,0.37,5888,34,90,33,65,1108,332.0,417,466,60,117.0,181,1,360,276,60,0,0,309,115,-22016,332,,,,,,,,,,,,
906543,1560693434649,1,2.49,2.11,3.34,2.36,5.06,0.28,-0.22,1.05,13,1,-5,0.36,5967,34,90,33,65,1110,332.0,421,458,60,117.0,181,1,365,282,60,0,0,308,29440,-23296,331,45.698906,4.909011,30.61,191.1,8,1.6267,0,0.0,1.23,9,0.86,15.109
906563,1560693434669,2,2.48,2.11,3.34,2.38,5.04,0.33,-0.31,1.08,14,-1,-3,0.45,5950,34,90,33,66,1106,330.0,414,467,60,118.0,181,1,361,290,60,0,0,306,110,175,330,,,,,,,,,,,,
906583,1560693434691,1,2.5,2.11,3.35,2.4,5.06,0.39,-0.4,1.14,15,-2,-1,0.56,6019,35,90,33,67,1110,332.0,425,463,60,117.0,181,1,362,298,60,0,0,307,28160,-12032,332,,,,,,,,,,,,
906603,1560693434711,1,2.49,2.12,3.34,2.4,5.07,0.4,-0.44,1.21,16,-4,0,0.59,6017,35,90,33,67,1121,333.0,426,465,60,117.0,204,1,362,298,68,0,0,308,110,-32559,333,,,,,,,,,,,,
906623,1560693434731,1,2.5,2.12,3.34,2.41,5.07,0.42,-0.5,1.25,18,-5,2,0.65,5998,35,90,33,67,1135,334.0,428,460,60,116.0,204,1,362,299,68,0,0,310,110,-32559,334,,,,,,,,,,,,
906643,1560693434751,0,2.5,2.13,3.34,2.41,5.06,0.41,-0.55,1.26,19,-7,3,0.69,6021,35,90,33,67,1148,333.0,421,461,60,117.0,204,1,363,298,68,0,0,311,110,170,333,45.698914,4.909001,31.02,191.2,8,1.6267,0,0.0,1.2317,9,0.86,15.1107
906663,1560693434771,2,2.49,2.12,3.34,2.4,5.04,0.43,-0.61,1.26,20,-7,4,0.74,5984,35,90,33,68,1187,333.0,428,455,60,117.0,204,1,356,308,68,0,0,310,110,3346,333,,,,,,,,,,,,
906683,1560693434791,0,2.51,2.12,3.35,2.37,5.06,0.46,-0.65,1.26,21,-7,5,0.8,5990,36,90,33,68,1224,333.0,422,458,60,118.0,204,1,358,307,68,0,0,313,29440,175,334,,,,,,,,,,,,
906703,1560693434811,2,2.5,2.11,3.36,2.37,5.07,0.48,-0.71,1.3,21,-7,6,0.86,5977,36,90,33,68,1268,335.0,425,454,60,116.0,206,1,356,308,69,0,0,312,30720,3346,335,,,,,,,,,,,,
906723,1560693434831,1,2.51,2.12,3.39,2.37,5.06,0.49,-0.76,1.32,21,-8,7,0.9,5994,36,90,33,69,1299,335.0,419,461,60,116.0,206,1,356,324,69,0,0,314,30720,-32559,335,,,,,,,,,,,,
906743,1560693434851,1,2.51,2.12,3.42,2.34,5.06,0.43,-0.73,1.3,22,-8,8,0.85,6044,36,90,33,69,1330,334.0,415,467,60,117.0,206,1,358,323,69,0,0,314,30720,4838,334,45.698917,4.908991,31.19,191.2,8,1.6267,0,0.0,1.2333,9,0.86,15.1124
906763,1560693434871,4,2.51,2.12,3.47,2.34,5.04,0.46,-0.68,1.25,23,-6,8,0.82,6141,37,90,33,69,1359,335.0,421,461,60,117.0,206,1,361,325,69,0,0,315,120,2560,335,,,,,,,,,,,,
906783,1560693434892,4,2.5,2.13,3.5,2.33,5.04,0.48,-0.58,1.19,22,-6,10,0.75,6165,37,90,33,69,1386,337.0,428,454,60,117.0,206,1,362,325,69,0,0,319,32000,-6528,337,,,,,,,,,,,,
906803,1560693434912,3,2.52,2.18,3.47,2.34,5.07,0.48,-0.49,1.09,22,-4,12,0.68,6181,37,90,33,69,1384,339.0,433,463,60,117.0,222,1,363,326,75,0,0,322,32000,4838,339,,,,,,,,,,,,
906823,1560693434932,0,2.52,2.21,3.45,2.37,5.05,0.5,-0.43,0.93,22,-2,13,0.66,6163,37,90,33,69,1383,337.0,434,446,60,118.0,222,1,362,342,75,0,0,321,-32256,4838,337,,,,,,,,,,,,
906843,1560693434952,-0,2.53,2.21,3.44,2.38,5.05,0.58,-0.48,0.81,21,-2,15,0.76,6169,38,90,33,70,1383,338.0,431,448,60,118.0,222,1,361,342,75,0,0,320,125,-122,338,45.698917,4.908982,31.3,191.2,8,1.6267,0,0.0,1.235,9,0.86,15.114
906863,1560693434972,-1,2.53,2.19,3.43,2.37,5.04,0.64,-0.54,0.79,22,-2,17,0.84,6210,38,90,33,70,1384,340.0,431,445,60,118.0,222,1,363,343,75,0,0,317,-32256,-31222,340,,,,,,,,,,,,
906883,1560693434992,1,2.54,2.19,3.42,2.38,5.04,0.63,-0.54,0.82,22,-2,19,0.83,6214,38,90,33,70,1386,342.0,431,445,60,118.0,222,1,363,343,75,0,0,320,130,-14714,341,,,,,,,,,,,,
906903,1560693435003,3,2.54,2.19,3.43,2.38,5.06,0.62,-0.58,0.93,22,-4,20,0.85,6241,38,90,33,70,1385,344.0,435,456,60,117.0,234,1,363,343,80,0,0,326,130,-122,344,,,,,,,,,,,,
906923,1560693435023,4,2.54,2.18,3.42,2.38,5.07,0.57,-0.64,1.01,23,-5,20,0.86,6216,38,90,33,70,1377,345.0,444,455,60,116.0,234,1,363,343,80,0,0,325,-32256,-14714,345,,,,,,,,,,,,
906943,1560693435043,5,2.54,2.17,3.41,2.38,5.04,0.55,-0.63,0.96,23,-3,19,0.83,6245,38,90,33,70,1372,345.0,441,456,60,117.0,234,1,364,343,80,0,0,325,-30976,6668,345,45.698925,4.908973,31.52,191.2,8,1.6267,0,0.0,1.2367,9,0.86,15.1157
906963,1560693435063,1,2.54,2.15,3.42,2.36,5.04,0.62,-0.56,0.87,23,-3,20,0.83,6147,38,90,33,70,1362,346.0,432,455,60,118.0,234,1,360,341,80,0,0,323,135,-30438,346,,,,,,,,,,,,
906983,1560693435091,-2,2.55,2.13,3.42,2.37,5.05,0.66,-0.49,0.7,23,-2,22,0.82,6165,38,91,33,70,1353,349.0,428,452,60,119.0,234,1,361,342,80,0,0,324,-29696,3327,349,,,,,,,,,,,,
907003,1560693435111,-1,2.55,2.13,3.45,2.36,5.05,0.68,-0.54,0.65,23,-3,23,0.87,6241,39,91,33,71,1345,349.0,435,457,60,118.0,229,1,362,359,80,0,0,324,140,-10554,349,,,,,,,,,,,,
907023,1560693435131,2,2.54,2.14,3.49,2.35,5.06,0.72,-0.6,0.75,24,-4,25,0.94,6334,39,91,33,71,1333,349.0,434,456,60,117.0,229,1,366,360,80,0,0,330,135,2811,349,,,,,,,,,,,,
907043,1560693435151,2,2.55,2.14,3.48,2.36,5.06,0.63,-0.58,0.7,25,-3,26,0.86,6423,40,91,33,71,1327,352.0,440,455,60,117.0,229,1,368,361,80,0,0,328,140,2811,352,45.698933,4.908964,32.07,191.2,8,1.6267,0,0.0,1.2383,9,0.86,15.1174
907063,1560693435171,-1,2.55,2.14,3.49,2.35,5.04,0.66,-0.61,0.65,24,-1,27,0.9,6490,40,91,33,72,1323,353.0,442,455,60,118.0,229,1,369,377,80,0,0,327,145,2811,354,,,,,,,,,,,,
907083,1560693435191,2,2.54,2.14,3.51,2.35,5.04,0.72,-0.64,0.7,25,-2,28,0.96,6530,41,91,33,72,1319,354.0,446,456,60,117.0,229,1,371,378,80,0,0,349,-25856,3302,354,,,,,,,,,,,,
907103,1560693435211,0,2.54,2.14,3.49,2.38,5.04,0.69,-0.65,0.68,25,-1,28,0.95,6574,41,91,33,72,1312,355.0,450,460,60,117.0,262,1,372,379,93,0,0,362,-25856,28553,355,,,,,,,,,,,,
907123,1560693435231,2,2.55,2.15,3.43,2.43,5.03,0.66,-0.64,0.68,24,-1,30,0.92,6646,41,91,33,72,1310,355.0,456,455,60,118.0,262,1,374,380,93,0,0,346,150,-6644,355,,,,,,,,,,,,
907143,1560693435251,-1,2.56,2.21,3.42,2.42,5.07,0.59,-0.59,0.67,24,1,30,0.84,6725,41,91,33,72,1309,355.0,460,457,60,116.0,262,1,378,381,93,0,0,340,155,-6640,356,45.698936,4.908956,32.26,191.2,8,1.6267,0,0.0,1.24,9,0.86,15.1191
907163,1560693435271,4,2.55,2.2,3.41,2.41,5.06,0.73,-0.66,0.75,24,-1,29,0.99,6820,41,91,33,71,1298,356.0,467,454,60,118.0,262,1,382,368,93,0,0,353,-23296,-6458,356,,,,,,,,,,,,
907183,1560693435291,0,2.55,2.21,3.39,2.45,5.04,0.65,-0.64,0.72,24,-0,29,0.91,6820,42,91,33,72,1278,359.0,475,455,60,116.0,262,1,380,383,93,0,0,360,170,3082,359,,,,,,,,,,,,
907203,1560693435311,3,2.55,2.22,3.37,2.47,5.07,0.77,-0.67,0.8,23,-4,29,1.02,6805,42,91,33,72,1263,363.0,468,456,60,118.0,273,1,380,368,99,0,0,385,-20736,-6405,363,,,,,,,,,,,,
907223,1560693435331,-0,2.55,2.21,3.35,2.45,5.07,0.61,-0.63,0.68,24,-2,29,0.88,6918,42,91,33,71,1249,364.0,477,452,60,117.0,273,1,385,384,99,0,0,369,-12032,0,365,,,,,,,,,,,,
907243,1560693435351,4,2.55,2.2,3.36,2.45,5.06,0.64,-0.57,0.71,24,-4,29,0.85,6959,42,91,33,71,1217,366.0,472,460,60,117.0,273,1,386,371,99,0,0,356,-6528,-6656,368,45.698944,4.908948,32.34,191.2,8,1.6267,0,0.0,1.2417,9,0.86,15.1207
907263,1560693435371,4,2.53,2.2,3.36,2.45,5.06,0.6,-0.57,0.71,24,-5,29,0.83,6921,42,91,33,71,1184,370.0,474,451,60,118.0,273,1,385,370,99,0,0,377,2560,0,370,,,,,,,,,,,,
907283,1560693435391,-1,2.54,2.19,3.46,2.45,5.08,0.54,-0.47,0.7,25,-3,29,0.72,6913,42,91,33,72,1166,373.0,476,460,60,117.0,273,1,385,370,99,0,0,401,3327,-6656,373,,,,,,,,,,,,
907303,1560693435410,-1,2.54,2.19,3.52,2.44,5.04,0.52,-0.54,0.74,24,-5,31,0.75,7064,42,91,33,71,1149,376.0,472,455,60,117.0,258,1,391,373,97,0,0,409,3327,742,376,,,,,,,,,,,,
907323,1560693435430,3,2.54,2.2,3.5,2.44,5.06,0.6,-0.63,0.84,24,-5,31,0.87,7259,42,91,33,71,1113,378.0,490,459,60,118.0,258,1,403,377,97,0,0,368,-14714,-18948,378,,,,,,,,,,,,
907343,1560693435450,4,2.54,2.19,3.48,2.44,5.05,0.58,-0.7,0.9,25,-3,32,0.91,7411,42,91,33,70,1058,380.0,498,456,60,118.0,258,1,413,369,97,0,0,368,-30438,240,380,45.698952,4.908941,33.71,191.2,8,1.6267,0,0.0,1.2433,9,0.87,15.1224
907363,1560693435470,4,2.53,2.2,3.47,2.47,5.08,0.4,-0.75,0.93,26,-2,34,0.85,7378,43,91,33,69,1003,385.0,498,456,60,118.0,258,1,412,355,97,0,0,405,-30454,-3968,385,,,,,,,,,,,,
907383,1560693435490,4,2.54,2.22,3.43,2.51,5.04,0.34,-0.81,0.97,27,-1,34,0.88,7402,43,91,33,69,976,390.0,510,456,60,116.0,258,1,414,356,97,0,0,412,-1246,-6656,390,,,,,,,,,,,,
907403,1560693435510,4,2.53,2.22,3.43,2.51,5.04,0.32,-0.78,0.98,27,-2,35,0.84,7408,43,91,33,68,939,391.0,506,450,60,118.0,243,1,415,343,95,0,0,392,3183,28696,391,,,,,,,,,,,,
907423,1560693435530,4,2.52,2.22,3.42,2.51,5.06,0.18,-0.79,0.9,27,-1,35,0.81,7443,43,91,33,68,904,392.0,509,455,60,116.0,243,1,417,344,95,0,0,383,-6640,17144,392,,,,,,,,,,,,
907443,1560693435550,1,2.53,2.22,3.41,2.5,5.07,0.23,-0.82,0.85,28,-2,36,0.85,7381,43,91,33,68,877,395.0,507,458,60,117.0,243,1,414,343,95,0,0,396,2790,-1818,395,45.698956,4.908935,34.93,191.2,8,1.6267,0,0.0,1.245,9,0.87,15.1241
907463,1560693435570,1,2.52,2.21,3.4,2.49,5.06,0.22,-0.75,0.79,27,-0,35,0.78,7399,43,91,33,68,878,399.0,511,457,60,116.0,243,1,415,342,95,0,0,402,3082,-8151,399,,,,,,,,,,,,
907483,1560693435590,2,2.51,2.21,3.39,2.49,5.04,0.2,-0.71,0.73,27,-2,35,0.74,7411,43,91,33,68,869,400.0,514,453,60,116.0,243,1,415,344,95,0,0,392,230,10392,400,,,,,,,,,,,,
907503,1560693435610,2,2.5,2.2,3.39,2.48,5.03,0.25,-0.66,0.73,26,-2,34,0.7,7509,43,91,33,68,856,403.0,511,457,60,116.0,241,1,421,345,97,0,0,392,486,11560,403,,,,,,,,,,,,
907523,1560693435630,0,2.49,2.21,3.38,2.47,5.06,0.25,-0.62,0.59,26,-3,33,0.67,7533,43,91,33,68,842,405.0,515,457,60,116.0,241,1,422,349,97,0,0,405,-6656,-9211,405,,,,,,,,,,,,
907543,1560693435650,3,2.49,2.2,3.4,2.46,5.06,0.32,-0.62,0.5,25,-3,32,0.7,7637,43,91,33,67,828,407.0,525,456,60,116.0,241,1,430,352,97,0,0,416,3,11560,409,45.698967,4.908929,36.08,191.2,8,1.6267,0,0.0,1.2467,9,0.87,15.1257
907563,1560693435670,3,2.47,2.21,3.4,2.47,5.07,0.31,-0.62,0.48,24,-3,32,0.69,7735,43,91,33,66,817,409.0,528,453,60,117.0,241,1,437,348,97,0,0,413,2278,-9166,411,,,,,,,,,,,,
907583,1560693435692,-2,2.47,2.24,3.4,2.48,5.06,0.29,-0.65,0.62,24,-4,31,0.71,7874,43,91,33,66,804,412.0,546,455,60,117.0,241,1,444,345,97,0,0,413,-18948,-3414,412,,,,,,,,,,,,
907603,1560693435712,2,2.46,2.27,3.39,2.48,5.08,0.34,-0.63,0.71,24,-3,30,0.71,7918,43,91,33,65,794,413.0,536,453,60,118.0,247,1,446,338,102,0,0,414,-3866,7154,413,,,,,,,,,,,,
907623,1560693435732,4,2.45,2.28,3.36,2.48,5.04,0.33,-0.49,0.57,23,-1,31,0.59,7982,43,91,33,64,796,416.0,543,460,60,116.0,247,1,449,332,102,0,0,425,-31744,-21792,416,,,,,,,,,,,,
907643,1560693435752,-2,2.44,2.31,3.31,2.5,5.06,0.35,-0.49,0.69,22,-2,31,0.61,8026,44,91,33,63,799,418.0,544,451,60,118.0,247,1,450,324,102,0,0,421,505,13180,417,45.698975,4.908924,37.3,191.1,8,1.6267,0,0.0,1.2483,9,0.87,15.1274
907663,1560693435772,3,2.42,2.34,3.32,2.48,5.05,0.39,-0.55,0.79,21,-3,30,0.67,7965,44,91,33,63,803,419.0,541,455,60,117.0,247,1,449,314,102,0,0,428,17144,13180,420,,,,,,,,,,,,
907683,1560693435792,3,2.41,2.35,3.31,2.49,5.08,0.44,-0.5,0.68,20,-2,29,0.67,7948,44,91,33,63,808,424.0,542,460,60,116.0,247,1,448,314,102,0,0,436,28696,31796,424,,,,,,,,,,,,
907703,1560693435812,-1,2.4,2.36,3.3,2.48,5.04,0.43,-0.57,0.71,20,-3,29,0.72,7999,44,91,33,62,811,423.0,541,452,60,117.0,224,1,449,314,95,0,0,428,-9211,243,423,,,,,,,,,,,,
907723,1560693435832,2,2.37,2.36,3.32,2.46,5.04,0.36,-0.53,0.77,19,-3,27,0.65,7985,44,91,33,62,813,426.0,539,455,60,118.0,224,1,449,314,95,0,0,430,9517,-3322,427,,,,,,,,,,,,
907743,1560693435852,4,2.36,2.36,3.32,2.44,5.04,0.36,-0.43,0.69,18,-2,26,0.56,8071,44,91,33,62,816,429.0,547,458,60,116.0,224,1,450,311,95,0,0,432,-9166,5600,429,45.698982,4.908919,38.76,191.1,8,1.6267,0,0.0,1.25,9,0.87,15.1291
907763,1560693435872,-0,2.35,2.37,3.32,2.41,5.06,0.44,-0.45,0.8,17,-3,24,0.64,8166,44,91,33,60,819,431.0,553,451,60,118.0,224,1,440,316,95,0,0,438,18584,5600,431,,,,,,,,,,,,
907783,1560693435892,5,2.33,2.43,3.32,2.42,5.07,0.39,-0.48,0.69,16,-3,23,0.62,8227,44,91,33,61,819,433.0,565,458,60,117.0,224,1,449,313,95,0,0,441,-8165,26704,433,,,,,,,,,,,,
907803,1560693435910,-1,2.31,2.44,3.32,2.41,5.07,0.54,-0.56,0.8,15,-3,21,0.78,8333,44,91,33,59,821,434.0,574,457,60,118.0,227,1,431,310,98,0,0,439,-3414,23400,434,,,,,,,,,,,,
907823,1560693435930,-1,2.29,2.46,3.32,2.39,5.07,0.49,-0.51,0.72,12,-3,19,0.71,8430,44,91,33,58,825,436.0,579,456,60,116.0,227,1,422,307,98,0,0,452,31796,-28332,436,,,,,,,,,,,,
907843,1560693435950,3,2.25,2.5,3.27,2.39,5.04,0.49,-0.45,0.68,11,-3,18,0.67,8461,44,91,33,57,833,435.0,573,457,60,117.0,227,1,414,300,98,0,0,453,-3322,10305,438,45.698994,4.908915,40.43,191.0,8,1.6267,0,0.0,1.2517,9,0.87,15.1307
907863,1560693435970,2,2.24,2.52,3.2,2.37,5.04,0.56,-0.43,0.77,9,-4,15,0.7,8488,44,91,33,57,837,440.0,583,459,60,117.0,227,1,414,301,98,0,0,450,-28332,10305,440,,,,,,,,,,,,
907883,1560693435990,1,2.23,2.51,3.15,2.33,5.08,0.52,-0.44,0.73,8,-4,14,0.68,8472,43,91,33,56,847,444.0,572,452,60,117.0,227,1,406,283,98,0,0,456,21432,3571,441,,,,,,,,,,,,
907903,1560693436004,3,2.23,2.51,3.08,2.3,5.04,0.52,-0.35,0.84,7,-1,13,0.62,8453,41,91,33,55,862,448.0,578,457,60,118.0,209,1,398,292,93,0,0,457,8488,-9160,443,,,,,,,,,,,,
907923,1560693436024,2,2.22,2.5,3.07,2.27,5.04,0.61,-0.29,0.86,5,-1,10,0.67,8461,38,91,32,53,882,451.0,579,457,60,118.0,209,1,387,269,93,0,0,458,3571,-9160,444,,,,,,,,,,,,
907943,1560693436044,-1,2.23,2.5,3.08,2.25,5.06,0.55,-0.24,0.81,5,-1,10,0.6,8514,35,91,32,51,902,452.0,575,451,60,117.0,209,1,381,257,93,0,0,460,14488,-18108,448,45.699001,4.908911,41.7,191.0,8,1.6267,0,0.0,1.2533,9,0.87,15.1324
907963,1560693436064,3,2.2,2.5,3.09,2.25,5.04,0.53,-0.12,0.92,4,-1,8,0.54,8581,35,91,32,49,913,456.0,578,451,60,118.0,209,1,376,243,93,0,0,463,14488,6193,449,,,,,,,,,,,,
907983,1560693436084,2,2.21,2.49,3.1,2.25,5.03,0.68,-0.13,0.84,2,-1,6,0.69,8620,34,91,32,48,950,459.0,586,450,60,118.0,209,1,373,236,93,0,0,468,-18108,-18108,451,,,,,,,,,,,,
908003,1560693436104,0,2.21,2.49,3.1,2.23,5.04,0.7,-0.12,0.86,1,-1,4,0.71,8656,34,91,32,46,982,461.0,599,450,60,117.0,164,1,363,227,74,0,0,468,2211,6193,451,,,,,,,,,,,,
908023,1560693436124,0,2.2,2.5,3.07,2.23,5.04,0.55,-0.06,0.92,1,-2,5,0.55,8636,33,91,32,45,995,464.0,590,457,60,118.0,164,1,357,225,74,0,0,469,30272,12552,454,,,,,,,,,,,,
908043,1560693436144,3,2.2,2.51,3.06,2.23,5.08,0.53,0.07,0.9,0,1,4,0.53,8676,33,91,32,44,1017,466.0,605,453,60,118.0,164,1,351,223,74,0,0,473,-3210,12552,453,45.699017,4.908907,42.93,190.9,8,1.6267,0,0.0,1.255,9,0.87,15.1341
908063,1560693436164,3,2.19,2.51,3.07,2.22,5.04,0.44,0.2,0.86,-0,-1,2,0.49,8676,33,91,32,43,1024,464.0,622,456,60,118.0,164,1,345,223,74,0,0,469,16408,2211,454,,,,,,,,,,,,
908083,1560693436192,1,2.2,2.5,3.1,2.19,5.06,0.5,0.25,0.76,-1,-1,-1,0.56,8684,32,91,32,43,1038,465.0,610,450,60,117.0,164,1,345,221,74,0,0,470,30272,-16384,454,,,,,,,,,,,,
908103,1560693436212,2,2.19,2.49,3.11,2.18,5.07,0.65,0.14,0.72,-2,-1,-3,0.67,8700,32,91,32,42,1036,467.0,597,450,60,117.0,157,1,338,219,72,0,0,470,243,16408,456,,,,,,,,,,,,
908123,1560693436232,0,2.2,2.49,3.12,2.18,5.07,0.79,0.03,0.76,-2,-2,-1,0.79,8757,32,91,32,41,1028,470.0,593,451,60,117.0,157,1,332,217,72,0,0,469,8488,30272,456,,,,,,,,,,,,
908143,1560693436252,5,2.19,2.48,3.11,2.16,5.04,0.63,0.05,0.86,-2,-0,-2,0.64,8773,31,91,32,41,1023,470.0,593,453,60,118.0,157,1,332,217,72,0,0,472,8488,16408,458,45.699024,4.908903,44.4,190.9,8,1.6267,0,0.0,1.2567,9,0.87,15.1357
908163,1560693436272,4,2.2,2.48,3.12,2.15,5.08,0.51,0.24,0.83,-3,-1,-2,0.56,8794,31,91,32,40,1015,470.0,598,455,60,117.0,157,1,326,215,72,0,0,475,8488,2212,458,,,,,,,,,,,,
908183,1560693436292,3,2.19,2.48,3.11,2.14,5.07,0.43,0.41,0.74,-4,1,-4,0.59,8827,29,91,32,39,1011,471.0,611,450,60,118.0,157,1,320,213,72,0,0,469,-1923,32033,458,,,,,,,,,,,,
908203,1560693436312,3,2.19,2.48,3.13,2.13,5.04,0.45,0.4,0.67,-4,-2,-5,0.61,8815,27,91,32,38,1011,473.0,607,451,60,118.0,155,1,317,209,71,0,0,470,3576,-16384,461,,,,,,,,,,,,
908223,1560693436332,0,2.2,2.46,3.13,2.12,5.06,0.61,0.24,0.67,-5,-2,-7,0.65,8819,25,91,32,36,1008,475.0,605,458,60,117.0,155,1,311,205,71,0,0,475,-17956,32033,463,,,,,,,,,,,,
908243,1560693436352,-0,2.2,2.45,3.13,2.13,5.06,0.75,0.06,0.62,-6,-4,-7,0.75,8798,23,91,32,35,1000,474.0,611,451,60,116.0,155,1,308,198,71,0,0,475,-9203,32033,463,45.699036,4.908898,44.68,190.9,8,1.6267,0,0.0,1.2583,9,0.88,15.1374
908263,1560693436372,-0,2.19,2.45,3.12,2.12,5.06,0.78,0.01,0.64,-6,-1,-7,0.78,8741,21,91,32,33,996,475.0,621,452,60,117.0,155,1,302,191,71,0,0,476,-17956,-3210,463,,,,,,,,,,,,
908283,1560693436391,4,2.19,2.45,3.1,2.11,5.05,0.7,0.03,0.69,-5,-1,-7,0.7,8684,18,91,32,31,989,475.0,605,459,60,117.0,155,1,295,188,71,0,0,477,-17956,-3210,462,,,,,,,,,,,,
908303,1560693436411,2,2.19,2.44,3.11,2.1,5.03,0.67,0.19,0.65,-6,-0,-9,0.7,8620,17,91,32,30,983,473.0,617,451,60,118.0,132,1,291,188,61,0,0,475,-9203,-16384,461,,,,,,,,,,,,
908323,1560693436431,-1,2.2,2.43,3.11,2.09,5.04,0.75,0.23,0.64,-6,-1,-10,0.78,8522,15,91,32,28,972,473.0,608,454,60,117.0,132,1,282,188,61,0,0,472,3576,16408,461,,,,,,,,,,,,
908343,1560693436451,2,2.2,2.42,3.11,2.07,5.04,0.73,0.27,0.53,-6,-0,-10,0.78,8423,14,91,32,26,967,475.0,592,453,60,117.0,132,1,274,183,61,0,0,477,-17956,12552,463,45.699047,4.908894,45.4,190.9,8,1.6267,0,0.0,1.26,9,0.88,15.139
908363,1560693436471,-0,2.19,2.41,3.11,2.07,5.04,0.84,0.25,0.6,-7,-0,-10,0.88,8227,13,91,32,25,964,475.0,583,457,60,118.0,132,1,270,172,61,0,0,475,-17956,2211,461,,,,,,,,,,,,
908383,1560693436492,2,2.2,2.41,3.13,2.05,5.06,0.84,0.25,0.62,-8,-0,-10,0.88,8005,12,91,32,25,957,475.0,560,448,60,117.0,132,1,270,159,61,0,0,471,-17956,-9160,460,,,,,,,,,,,,
908403,1560693436512,1,2.21,2.41,3.11,2.05,5.07,0.85,0.36,0.4,-8,0,-9,0.92,7858,12,91,32,24,948,474.0,561,452,60,117.0,102,1,268,156,47,0,0,477,-9203,243,460,,,,,,,,,,,,
908423,1560693436532,3,2.2,2.39,3.13,2.04,5.06,0.81,0.42,0.34,-8,-1,-8,0.92,7684,11,91,32,24,938,473.0,546,444,60,117.0,102,1,266,156,47,0,0,473,32033,12552,460,,,,,,,,,,,,
908443,1560693436552,2,2.22,2.37,3.16,2.02,5.06,0.78,0.42,0.28,-7,0,-8,0.88,7646,11,91,32,24,928,470.0,551,455,60,117.0,102,1,266,156,47,0,0,451,8488,-28332,457,45.699055,4.908888,45.36,190.9,8,1.6267,0,0.0,1.2617,9,0.88,15.1407
908463,1560693436572,4,2.21,2.34,3.23,2.0,5.07,0.81,0.4,0.23,-7,1,-8,0.9,7728,11,91,32,23,920,466.0,547,451,60,118.0,102,1,267,156,47,0,0,447,12552,26704,453,,,,,,,,,,,,
908483,1560693436591,0,2.22,2.3,3.28,1.99,5.04,0.91,0.43,0.37,-7,0,-8,1.01,7744,11,91,32,23,903,460.0,548,448,60,118.0,102,1,267,154,47,0,0,436,-23623,1779,452,,,,,,,,,,,,
908503,1560693436611,1,2.23,2.28,3.29,1.97,5.06,0.95,0.47,0.35,-8,1,-8,1.06,7835,10,91,32,23,892,458.0,562,446,60,117.0,99,1,268,154,45,0,0,434,17628,-7939,450,,,,,,,,,,,,
908523,1560693436631,2,2.23,2.27,3.3,1.96,5.07,0.94,0.44,0.3,-8,-0,-7,1.03,7825,10,91,32,23,888,456.0,552,421,60,118.0,99,1,268,154,45,0,0,423,14488,3635,445,,,,,,,,,,,,
908543,1560693436651,4,2.23,2.28,3.28,1.97,5.06,1.01,0.36,0.31,-8,0,-7,1.07,7874,10,91,32,23,884,450.0,568,437,60,117.0,99,1,268,154,45,0,0,435,-3267,-3414,442,45.699066,4.908883,45.04,190.9,8,1.6267,0,0.0,1.2633,9,0.88,15.1424
908563,1560693436671,-0,2.24,2.26,3.29,1.96,5.08,1.09,0.29,0.46,-8,-1,-7,1.13,7941,10,91,32,23,887,446.0,571,453,60,117.0,99,1,269,154,45,0,0,431,16648,13180,438,,,,,,,,,,,,
908583,1560693436691,2,2.24,2.24,3.29,1.96,5.06,1.06,0.24,0.41,-7,-1,-7,1.09,7938,10,91,32,23,889,443.0,563,451,60,118.0,99,1,269,154,45,0,0,419,-18341,13552,435,,,,,,,,,,,,
908603,1560693436711,4,2.25,2.23,3.29,1.95,5.04,1.03,0.21,0.28,-7,1,-5,1.05,7934,10,91,32,23,899,439.0,573,453,60,117.0,105,1,269,154,46,0,0,423,-28332,-3414,434,,,,,,,,,,,,
908623,1560693436731,0,2.26,2.21,3.27,1.97,5.04,1.08,0.18,0.37,-7,0,-5,1.1,7951,10,91,32,22,910,437.0,557,452,60,118.0,105,1,269,154,46,0,0,424,5600,13552,433,,,,,,,,,,,,
908643,1560693436751,1,2.27,2.21,3.23,1.97,5.04,1.15,0.2,0.41,-6,-0,-6,1.16,7891,10,91,32,22,927,435.0,550,450,60,118.0,105,1,268,151,46,0,0,422,243,-21944,429,45.699078,4.908876,43.4,190.9,8,1.6267,0,0.0,1.265,9,0.88,15.144
908663,1560693436771,2,2.26,2.2,3.25,1.97,5.04,1.11,0.27,0.3,-6,-0,-4,1.14,7888,10,91,32,23,953,431.0,558,457,60,117.0,105,1,268,151,46,0,0,419,1779,18584,429,,,,,,,,,,,,
908683,1560693436791,3,2.27,2.19,3.26,1.97,5.04,1.05,0.2,0.2,-5,-0,-3,1.07,7848,10,91,32,22,964,427.0,551,449,60,117.0,105,1,268,151,46,0,0,418,31796,-3414,425,,,,,,,,,,,,
908703,1560693436811,4,2.28,2.2,3.28,1.99,5.04,0.98,0.11,0.22,-4,3,-3,0.99,7783,10,91,32,22,978,425.0,561,451,60,117.0,103,1,267,151,44,0,0,421,-3856,2524,425,,,,,,,,,,,,
908723,1560693436831,0,2.28,2.2,3.31,1.98,5.05,1.04,0.08,0.31,-3,4,-2,1.04,7767,10,91,32,22,997,422.0,546,451,60,118.0,103,1,267,151,44,0,0,411,-3414,-3414,422,,,,,,,,,,,,
908743,1560693436851,-0,2.28,2.2,3.33,1.98,5.05,1.11,0.07,0.48,-3,2,-2,1.12,7697,10,91,32,22,1013,422.0,549,447,60,118.0,103,1,266,149,44,0,0,411,-8165,-26615,422,45.699089,4.90887,42.16,190.9,8,1.6267,0,0.0,1.2667,9,0.88,15.1457
908763,1560693436871,-1,2.29,2.2,3.32,1.97,5.05,1.2,0.06,0.6,-3,-0,-2,1.2,7671,10,91,32,21,1014,419.0,550,456,60,118.0,103,1,266,149,44,0,0,410,7154,18584,419,,,,,,,,,,,,
908783,1560693436891,0,2.29,2.19,3.32,1.98,5.03,1.27,0.08,0.61,-4,-1,-2,1.27,7578,10,91,32,22,1013,417.0,547,451,60,117.0,103,1,265,151,44,0,0,407,18584,-26615,415,,,,,,,,,,,,
908803,1560693436911,-1,2.3,2.2,3.33,1.97,5.05,1.22,0.17,0.48,-4,-1,-2,1.23,7575,10,91,32,22,999,415.0,543,452,60,118.0,103,1,265,151,43,0,0,404,2524,11560,414,,,,,,,,,,,,
908823,1560693436931,1,2.29,2.2,3.33,1.96,5.07,1.17,0.26,0.35,-3,-3,-1,1.2,7527,9,91,32,22,981,413.0,539,447,60,117.0,103,1,265,151,43,0,0,406,-4059,11545,413,,,,,,,,,,,,
908843,1560693436951,-1,2.3,2.2,3.33,1.99,5.05,1.09,0.27,0.2,-3,-2,-0,1.12,7530,9,91,32,22,960,410.0,534,450,60,118.0,103,1,265,151,43,0,0,402,9517,-9211,410,45.699097,4.908865,41.31,191.0,8,1.6267,0,0.0,1.2683,9,0.88,15.1474
908863,1560693436971,-1,2.31,2.2,3.35,1.99,5.04,1.09,0.28,0.2,-3,-3,-0,1.12,7491,9,91,32,22,939,407.0,530,444,60,118.0,103,1,264,149,43,0,0,397,-9211,2524,407,,,,,,,,,,,,
908883,1560693436991,-1,2.31,2.2,3.36,1.99,5.07,1.06,0.33,0.12,-3,-3,-1,1.11,7476,9,91,32,22,918,407.0,532,452,60,117.0,103,1,264,149,43,0,0,396,-9211,-8151,405,,,,,,,,,,,,
908903,1560693437005,-0,2.32,2.2,3.36,1.99,5.05,1.08,0.41,0.06,-3,-5,-1,1.16,7387,9,91,32,22,898,405.0,523,446,60,118.0,103,1,263,151,42,0,0,396,-8151,11545,405,,,,,,,,,,,,
908923,1560693437025,-0,2.31,2.19,3.36,1.99,5.07,1.17,0.39,0.15,-4,-5,-1,1.24,7367,9,91,32,22,891,404.0,525,443,60,118.0,103,1,263,151,42,0,0,393,11545,17144,404,,,,,,,,,,,,
908943,1560693437045,4,2.32,2.19,3.34,1.98,5.05,1.24,0.28,0.33,-4,-5,-1,1.27,7315,9,91,32,22,891,403.0,519,449,60,118.0,103,1,263,151,42,0,0,393,6384,-6656,403,45.699108,4.908859,39.94,191.0,8,1.6267,0,0.0,1.27,9,0.88,15.149
908963,1560693437065,3,2.34,2.17,3.33,1.99,5.07,1.22,0.18,0.42,-2,-5,-0,1.23,7312,9,91,32,22,887,400.0,524,446,60,118.0,103,1,263,151,42,0,0,390,17144,-6656,400,,,,,,,,,,,,
908983,1560693437091,2,2.35,2.15,3.33,1.99,5.07,1.23,0.04,0.42,-1,-2,1,1.23,7253,9,91,32,22,880,398.0,521,449,60,118.0,103,1,262,151,42,0,0,386,505,240,398,,,,,,,,,,,,
909003,1560693437111,2,2.37,2.13,3.34,2.03,5.07,1.05,-0.04,0.33,2,-1,2,1.05,7256,9,91,32,22,874,398.0,524,450,60,117.0,103,1,262,151,41,0,0,387,-1562,-1562,398,,,,,,,,,,,,
909023,1560693437131,-0,2.38,2.13,3.37,2.11,5.05,0.9,0.02,0.18,3,-1,3,0.9,7233,9,91,32,23,870,398.0,520,448,60,118.0,103,1,262,151,41,0,0,377,-3866,-32702,398,,,,,,,,,,,,
909043,1560693437151,-2,2.41,2.11,3.4,2.12,5.06,0.95,0.04,0.27,3,-3,4,0.95,7172,10,91,32,23,867,396.0,508,445,60,117.0,103,1,261,154,41,0,0,380,19125,-1562,396,45.699116,4.908854,39.27,191.1,8,1.6267,0,0.0,1.2717,9,0.88,15.1507
909063,1560693437171,2,2.41,2.07,3.42,2.12,5.07,1.03,-0.07,0.39,4,-3,4,1.03,7140,10,91,32,23,864,398.0,516,446,60,118.0,103,1,261,154,41,0,0,379,-18948,-19126,398,,,,,,,,,,,,
909083,1560693437191,1,2.44,2.05,3.44,2.13,5.04,1.04,-0.2,0.36,5,-2,5,1.06,7072,10,91,32,23,866,397.0,516,453,60,118.0,103,1,260,154,41,0,0,375,-6656,-31744,396,,,,,,,,,,,,
909103,1560693437211,-1,2.45,2.03,3.45,2.13,5.08,0.85,-0.15,0.25,8,-1,6,0.86,7051,10,91,32,23,869,395.0,506,451,60,117.0,103,1,260,154,41,0,0,370,742,-6475,395,,,,,,,,,,,,
909123,1560693437231,4,2.46,2.03,3.45,2.15,5.07,0.96,-0.24,0.35,7,-4,7,0.99,7062,10,91,32,24,873,395.0,505,448,60,118.0,103,1,260,156,41,0,0,368,1,240,394,,,,,,,,,,,,
909143,1560693437251,2,2.47,2.02,3.45,2.17,5.04,0.99,-0.37,0.38,9,-3,9,1.06,7011,10,91,32,24,880,392.0,508,452,60,118.0,103,1,260,156,41,0,0,369,0,19125,393,45.699123,4.908848,38.4,191.1,8,1.6267,0,0.0,1.2733,9,0.89,15.1524
909163,1560693437271,0,2.48,2.01,3.52,2.2,5.04,0.91,-0.34,0.32,11,-2,11,0.97,7006,12,91,32,25,884,391.0,501,450,60,118.0,103,1,260,159,41,0,0,365,230,-6524,391,,,,,,,,,,,,
