"Interval"|"ms"|0|0|1,"Utc"|"ms"|0|0|1,"FB_p"|"bar"|0|300|50,"Volant"|"F"|0.0|300.0|50,"xFR"|"mm"|0.0|5.0|50,"xRR"|"mm"|0.0|5.0|50,"xFL"|"mm"|0.0|5.0|50,"xRL"|"mm"|0.0|5.0|50,"AccelX"|"G"|-3.0|3.0|50,"AccelY"|"G"|-3.0|3.0|50,"AccelZ"|"G"|-3.0|3.0|50,"Yaw"|"Deg/Sec"|-120|120|50,"Pitch"|"Deg/Sec"|-120|120|50,"Roll"|"Deg/Sec"|-120|120|50,"Gsum"|"G"|0.0|3.0|50,"RPM"|""|0|14000|50,"TPS"|"%"|0|100|50,"WaterTemp"|"?C"|0|300|50,"AirTemp"|"?C"|-1000|1000|50,"MAP"|"KPa"|0|255|50,"Lambda"|""|0|1024|50,"WheelSpeed"|"MPH"|0.0|150.0|50,"OilPress"|"PSI"|0|150|50,"FuelPress"|"PSI"|0|150|50,"OilTemp"|"F"|0|300|50,"Battery"|"Volts"|0.0|20.0|50,"FuelCon"|"L/h"|-1000|1000|50,"Gear"|""|0|10|50,"Advance"|"Deg"|-360|360|50,"Injection"|"ms"|-1000|1000|50,"FuelCon"|"L/100km"|-1000|1000|50,"LC_But_Pres"|""|-1000|1000|50,"LC_Active"|""|-1000|1000|50,"RD_Speed"|""|-1000|1000|50,"RUD_Speed"|""|-1000|1000|50,"LD_Speed"|""|-1000|1000|50,"LUD_Speed"|""|-1000|1000|50,"Latitude"|"Degrees"|-180.0|180.0|10,"Longitude"|"Degrees"|-180.0|180.0|10,"Speed"|"kph"|0.0|150.0|10,"Altitude"|"m"|0.0|4000.0|10,"LapCount"|""|0|0|10,"LapTime"|"Min"|0.0|0.0|10,"Sector"|""|0|0|10,"SectorTime"|"Min"|0.0|0.0|10,"ElapsedTime"|"Min"|0.0|0.0|10,"CurrentLap"|""|0|0|10,"Distance"|"km"|0.0|0.0|10,"SessionTime"|"Min"|0.0|0.0|10
665750,1560684830522,20,2.24,1.62,3.58,1.68,3.13,1.05,-0.01,-0.03,6,0,10,1.05,6768,9,85,30,24,1000,553.0,498,453,60,123.0,71,1,262,156,40,0,0,213,6274,32033,553,,,,,,,,,,,,
665770,1560684830542,24,2.24,1.68,3.53,1.69,3.12,1.15,-0.09,0.1,5,-1,7,1.15,6644,9,85,30,24,1013,547.0,495,460,60,122.0,71,1,263,155,40,0,0,206,-22519,248,546,,,,,,,,,,,,
665790,1560684830562,24,2.25,1.68,3.51,1.7,3.07,1.09,-0.11,0.04,6,-1,4,1.1,6458,9,85,30,25,1019,539.0,490,461,60,121.0,71,1,266,159,40,0,0,208,1780,6274,539,,,,,,,,,,,,
665810,1560684830582,18,2.25,1.66,3.51,1.7,3.05,1.07,-0.08,-0.14,4,0,4,1.08,6330,9,85,30,25,1028,536.0,486,453,60,123.0,71,1,267,159,40,0,0,210,6274,1248,536,,,,,,,,,,,,
665830,1560684830601,16,2.24,1.64,3.51,1.68,3.06,1.17,-0.18,-0.18,1,-1,5,1.18,6256,8,85,30,25,1039,535.0,476,457,60,122.0,71,1,268,159,40,0,0,202,-32248,17136,530,45.702087,4.910927,55.38,194.5,0,0.0,0,0.0,5.8133,1,0.0,11.0972
665850,1560684830621,14,2.23,1.64,3.51,1.66,3.08,1.25,-0.2,-0.07,-0,-5,5,1.27,6233,8,85,30,26,1045,530.0,417,460,60,122.0,69,1,271,160,37,0,0,153,2524,248,526,,,,,,,,,,,,
665870,1560684830641,8,2.23,1.66,3.48,1.65,3.09,1.26,-0.23,0.08,0,-7,3,1.29,6161,8,85,30,26,1049,533.0,415,462,60,122.0,69,1,272,160,37,0,0,152,2104,2109,523,,,,,,,,,,,,
665890,1560684830661,1,2.24,1.71,3.44,1.66,3.08,1.12,-0.17,0.2,1,-5,1,1.13,6075,8,85,30,27,1050,530.0,414,466,60,122.0,69,1,275,161,37,0,0,172,2524,11560,521,,,,,,,,,,,,
665910,1560684830681,2,2.24,1.78,3.38,1.66,3.07,1.05,-0.1,0.22,0,-5,-2,1.06,6123,8,85,30,27,1053,527.0,416,460,60,122.0,69,1,275,161,37,0,0,228,6274,505,516,,,,,,,,,,,,
665930,1560684830700,4,2.24,1.82,3.32,1.67,3.05,0.92,-0.03,0.22,-1,-3,-2,0.92,6139,8,85,30,27,1054,521.0,419,455,60,121.0,69,1,275,161,37,0,0,291,-9212,12552,507,45.702076,4.910941,52.68,194.5,0,0.0,0,0.0,5.815,1,0.0,11.0988
665950,1560684830720,5,2.24,1.84,3.27,1.66,3.08,0.7,0.14,0.05,-1,1,-3,0.72,6256,8,85,30,27,1052,517.0,429,456,60,122.0,72,1,274,163,37,0,0,417,15679,31796,505,,,,,,,,,,,,
665970,1560684830740,4,2.24,1.84,3.26,1.62,3.14,0.74,0.18,-0.03,-2,4,-3,0.77,6345,8,85,30,28,1048,512.0,441,451,60,123.0,72,1,276,163,37,0,0,498,17136,13040,500,,,,,,,,,,,,
665990,1560684830760,13,2.25,1.86,3.26,1.62,3.17,0.86,0.09,0.03,-5,4,-4,0.87,6469,8,85,30,28,1041,505.0,451,452,60,122.0,72,1,276,163,37,0,0,457,6274,-3267,495,,,,,,,,,,,,
666010,1560684830780,21,2.25,1.87,3.28,1.59,3.21,0.93,0.15,0.02,-4,3,-6,0.95,6560,8,85,30,28,1033,499.0,457,456,60,120.0,72,1,275,163,37,0,0,439,3,-3267,485,,,,,,,,,,,,
666030,1560684830800,23,2.25,1.84,3.34,1.56,3.25,0.93,0.11,-0.04,-4,5,-8,0.94,6691,8,85,30,27,1025,492.0,469,458,60,123.0,72,1,271,161,37,0,0,406,248,-9211,480,45.702068,4.910954,50.76,194.5,0,0.0,0,0.0,5.8167,1,0.0,11.1005
666050,1560684830820,29,2.25,1.81,3.42,1.52,3.29,0.98,0.12,0.02,-5,2,-8,0.99,6860,8,85,30,27,1007,489.0,479,455,60,122.0,85,1,270,161,41,0,0,343,-6656,3183,475,,,,,,,,,,,,
666070,1560684830840,23,2.27,1.8,3.43,1.52,3.29,1.0,0.05,0.01,-5,0,-9,1.0,6825,8,85,30,27,974,482.0,487,453,60,122.0,85,1,270,161,41,0,0,318,-899,170,470,,,,,,,,,,,,
666090,1560684830860,29,2.28,1.8,3.42,1.54,3.29,0.96,0.03,0.03,-5,2,-9,0.96,6646,8,85,30,27,943,477.0,487,453,60,121.0,85,1,271,161,41,0,0,343,-23367,-28416,463,,,,,,,,,,,,
666110,1560684830880,26,2.29,1.8,3.42,1.54,3.28,0.94,0.08,-0.13,-5,2,-9,0.95,6530,8,85,30,27,916,469.0,482,449,60,122.0,85,1,272,161,41,0,0,366,10432,30720,455,,,,,,,,,,,,
666130,1560684830902,25,2.31,1.8,3.41,1.54,3.28,1.05,0.04,-0.06,-5,-1,-8,1.05,6423,8,85,30,27,888,463.0,480,463,60,122.0,85,1,272,161,41,0,0,381,6193,-30976,452,45.702061,4.910967,48.4,194.5,0,0.0,0,0.0,5.8183,1,0.0,11.1022
666150,1560684830922,29,2.32,1.79,3.4,1.54,3.26,1.09,-0.03,0.04,-5,-3,-7,1.09,6296,8,85,30,27,853,453.0,475,465,60,122.0,86,1,274,161,39,0,0,405,-8985,140,448,,,,,,,,,,,,
666170,1560684830942,31,2.32,1.78,3.39,1.54,3.25,1.04,-0.05,0.11,-5,-3,-7,1.04,6161,8,85,30,27,822,446.0,470,460,60,121.0,86,1,275,161,39,0,0,421,16648,-23296,442,,,,,,,,,,,,
666190,1560684830962,32,2.32,1.74,3.41,1.52,3.25,0.9,0.0,0.0,-4,1,-7,0.9,6097,8,85,30,28,811,439.0,467,453,60,121.0,86,1,278,163,39,0,0,397,-28332,115,439,,,,,,,,,,,,
666210,1560684830982,31,2.32,1.72,3.43,1.51,3.26,0.86,0.13,-0.11,-4,3,-5,0.87,6093,8,85,30,28,803,435.0,458,455,60,122.0,86,1,278,163,39,0,0,325,-3314,-1,435,,,,,,,,,,,,
666230,1560684830994,32,2.31,1.69,3.46,1.51,3.24,0.79,0.23,-0.2,-4,6,-4,0.82,5971,8,85,30,29,801,431.0,448,455,60,121.0,86,1,280,164,39,0,0,296,-4082,10824,431,45.702053,4.910979,45.63,194.5,0,0.0,0,0.0,5.82,1,0.0,11.1038
666250,1560684831014,31,2.3,1.68,3.47,1.51,3.23,0.71,0.2,-0.27,-5,7,-3,0.74,5853,8,85,30,29,798,424.0,445,454,60,122.0,83,1,278,163,36,0,0,263,7154,-1484,424,,,,,,,,,,,,
666270,1560684831034,28,2.29,1.68,3.46,1.51,3.21,0.65,0.16,-0.26,-4,7,-2,0.67,5681,8,85,30,30,806,418.0,433,455,60,121.0,83,1,278,163,36,0,0,241,2524,-214,418,,,,,,,,,,,,
666290,1560684831054,25,2.28,1.69,3.46,1.51,3.21,0.57,0.19,-0.26,-2,5,-1,0.6,5430,8,85,30,31,816,413.0,428,457,60,123.0,83,1,276,162,36,0,0,276,2524,145,413,,,,,,,,,,,,
666310,1560684831074,30,2.26,1.69,3.45,1.51,3.2,0.72,0.17,-0.28,-2,5,-0,0.74,5185,8,85,30,33,828,403.0,410,453,60,122.0,83,1,277,166,36,0,0,338,28696,-14714,403,,,,,,,,,,,,
666330,1560684831100,29,2.27,1.68,3.47,1.5,3.2,0.75,0.12,-0.23,-0,6,1,0.76,5082,8,85,30,35,839,396.0,397,452,60,123.0,83,1,283,171,36,0,0,340,-6656,2060,396,45.702045,4.910991,42.33,194.5,0,0.0,0,0.0,5.8217,1,0.0,11.1055
666350,1560684831120,27,2.26,1.67,3.49,1.48,3.22,0.88,0.08,-0.27,-1,7,2,0.88,4974,8,85,30,36,842,390.0,389,461,60,122.0,83,1,285,183,33,0,0,313,-31744,3183,389,,,,,,,,,,,,
666370,1560684831140,29,2.25,1.67,3.53,1.47,3.22,0.99,0.15,-0.14,-1,0,2,1.0,5048,8,85,30,37,846,383.0,381,451,60,122.0,83,1,291,190,33,0,0,238,19125,250,382,,,,,,,,,,,,
666390,1560684831160,29,2.26,1.67,3.55,1.46,3.21,0.82,0.07,-0.14,-0,2,1,0.82,5037,8,85,30,38,855,378.0,379,459,60,123.0,83,1,295,196,33,0,0,202,2278,250,378,,,,,,,,,,,,
666410,1560684831180,26,2.23,1.68,3.52,1.47,3.19,0.88,0.12,-0.18,-1,6,-0,0.88,4917,8,85,30,40,862,373.0,372,459,60,123.0,83,1,296,202,33,0,0,176,-6656,-29696,369,,,,,,,,,,,,
666430,1560684831202,24,2.23,1.71,3.51,1.48,3.16,0.98,0.12,-0.11,-1,6,-2,0.99,4734,8,85,30,40,867,367.0,367,450,60,120.0,83,1,287,198,33,0,0,160,0,250,363,45.702038,4.911002,39.12,194.5,0,0.0,0,0.0,5.8233,1,0.0,11.1072
666450,1560684831222,24,2.23,1.72,3.48,1.48,3.14,1.08,0.16,-0.11,-1,1,-3,1.09,4495,8,85,30,41,873,361.0,358,454,60,122.0,96,1,279,190,35,0,0,211,-6458,115,354,,,,,,,,,,,,
666470,1560684831242,23,2.23,1.72,3.48,1.47,3.14,1.18,0.2,-0.1,-1,-3,-3,1.19,4388,8,85,30,42,884,354.0,346,451,60,120.0,96,1,279,190,35,0,0,270,3302,6870,347,,,,,,,,,,,,
666490,1560684831262,23,2.21,1.7,3.47,1.46,3.14,1.24,0.23,-0.06,-2,-3,-4,1.27,4303,8,86,30,43,895,347.0,336,455,60,121.0,96,1,280,191,35,0,0,287,8841,-22016,340,,,,,,,,,,,,
666510,1560684831282,26,2.19,1.7,3.47,1.43,3.19,1.25,0.19,-0.08,-4,-3,-5,1.26,4273,8,86,30,43,902,345.0,330,448,60,122.0,96,1,278,186,35,0,0,266,6870,24320,332,,,,,,,,,,,,
666530,1560684831302,23,2.17,1.71,3.47,1.41,3.25,1.2,0.14,-0.1,-5,0,-6,1.2,4394,8,86,30,43,908,338.0,327,461,60,123.0,96,1,282,193,35,0,0,233,-31222,13468,326,45.702034,4.911012,35.79,194.5,0,0.0,0,0.0,5.825,1,0.0,11.1088
666550,1560684831322,20,2.15,1.71,3.47,1.38,3.27,1.11,0.19,-0.09,-6,2,-6,1.13,4348,8,86,30,43,915,338.0,326,457,60,123.0,98,1,281,192,32,0,0,209,-31222,250,321,,,,,,,,,,,,
666570,1560684831342,16,2.13,1.74,3.42,1.38,3.27,1.11,0.23,-0.13,-7,4,-7,1.13,4259,8,86,30,43,922,335.0,322,456,60,123.0,98,1,278,190,32,0,0,234,3346,-1,314,,,,,,,,,,,,
666590,1560684831362,12,2.09,1.85,3.35,1.39,3.25,1.16,0.24,-0.11,-8,1,-8,1.19,4234,8,86,30,43,925,330.0,317,451,60,122.0,98,1,277,189,32,0,0,270,175,1088,307,,,,,,,,,,,,
666610,1560684831382,12,2.05,1.96,3.24,1.38,3.29,1.24,0.34,-0.06,-10,-1,-9,1.29,4134,8,86,30,43,927,323.0,311,450,60,121.0,98,1,274,189,32,0,0,321,-24576,250,297,,,,,,,,,,,,
666630,1560684831402,19,2.01,2.02,3.19,1.36,3.36,1.23,0.41,-0.07,-11,-0,-9,1.3,4143,8,86,30,44,906,322.0,310,451,60,123.0,98,1,279,189,32,0,0,294,155,16896,289,45.702026,4.911021,32.82,194.5,0,0.0,0,0.0,5.8267,1,0.0,11.1105
666650,1560684831422,15,1.98,2.05,3.19,1.32,3.41,1.24,0.45,-0.05,-12,0,-11,1.31,4297,8,86,30,44,876,314.0,308,453,60,122.0,103,1,283,193,30,0,0,284,135,250,285,,,,,,,,,,,,
666670,1560684831442,11,1.96,2.06,3.2,1.28,3.44,1.18,0.51,-0.02,-14,3,-14,1.28,4423,8,86,30,45,845,309.0,312,459,60,123.0,103,1,289,197,30,0,0,303,32000,-1,279,,,,,,,,,,,,
666690,1560684831462,8,1.94,2.08,3.2,1.28,3.43,1.15,0.53,-0.05,-16,3,-16,1.27,4368,8,86,30,45,814,314.0,317,457,60,123.0,103,1,289,198,30,0,0,305,135,-1482,274,,,,,,,,,,,,
666710,1560684831482,6,1.93,2.15,3.16,1.28,3.42,1.11,0.53,-0.06,-17,3,-18,1.23,4278,8,86,30,45,789,313.0,316,451,60,123.0,103,1,286,196,30,0,0,307,-30976,-1482,275,,,,,,,,,,,,
666730,1560684831502,2,1.92,2.2,3.08,1.31,3.43,1.13,0.52,0.01,-18,1,-20,1.24,4183,8,86,30,45,766,315.0,315,450,60,123.0,103,1,284,194,30,0,0,305,135,250,273,45.702023,4.91103,30.26,194.5,0,0.0,0,0.0,5.8283,1,0.0,11.1122
666750,1560684831522,-2,1.91,2.24,3.0,1.36,3.37,1.15,0.54,0.12,-19,-2,-22,1.27,4130,8,86,30,45,760,313.0,310,450,60,120.0,109,1,283,193,30,0,0,308,-30976,-9728,271,,,,,,,,,,,,
666770,1560684831542,2,1.89,2.29,2.94,1.41,3.31,1.08,0.58,0.15,-21,1,-24,1.23,4091,8,86,30,46,770,309.0,309,449,60,122.0,109,1,287,195,30,0,0,302,32000,250,270,,,,,,,,,,,,
666790,1560684831562,1,1.87,2.3,2.94,1.42,3.33,1.05,0.57,0.16,-22,1,-26,1.2,3999,8,86,30,45,784,308.0,305,450,60,123.0,109,1,279,189,30,0,0,301,30720,-1,267,,,,,,,,,,,,
666810,1560684831582,-1,1.86,2.29,2.95,1.42,3.38,1.01,0.57,0.22,-23,-2,-27,1.16,4047,9,86,30,46,801,307.0,303,451,60,121.0,109,1,286,194,30,0,0,292,30720,14337,265,,,,,,,,,,,,
666830,1560684831602,7,1.86,2.28,3.0,1.4,3.4,1.03,0.59,0.21,-24,0,-28,1.19,4144,9,86,30,46,813,302.0,303,451,60,123.0,109,1,288,196,30,0,0,283,105,1596,262,45.702019,4.911039,28.56,194.5,0,0.0,0,0.0,5.83,1,0.0,11.1138
666850,1560684831622,6,1.88,2.24,3.05,1.37,3.42,1.01,0.58,0.25,-24,3,-29,1.16,4325,9,86,30,46,821,301.0,305,451,60,122.0,118,1,291,200,31,0,0,288,26880,250,260,,,,,,,,,,,,
666870,1560684831642,10,1.9,2.21,3.09,1.38,3.42,1.0,0.55,0.25,-24,7,-30,1.14,4462,9,86,30,46,832,300.0,311,455,60,123.0,118,1,294,204,31,0,0,285,100,-1,257,,,,,,,,,,,,
666890,1560684831662,14,1.94,2.2,3.1,1.4,3.41,0.93,0.61,0.2,-24,9,-30,1.12,4496,9,86,30,46,847,295.0,316,458,60,123.0,118,1,294,204,31,0,0,289,23040,5120,255,,,,,,,,,,,,
666910,1560684831682,17,1.95,2.18,3.09,1.43,3.36,0.96,0.57,0.22,-25,8,-32,1.12,4433,9,86,30,47,859,293.0,321,453,60,123.0,118,1,297,203,31,0,0,286,20480,-1,251,,,,,,,,,,,,
666930,1560684831701,17,1.97,2.15,3.1,1.46,3.27,0.92,0.53,0.25,-25,7,-33,1.06,4400,8,86,30,47,866,284.0,320,456,60,123.0,118,1,296,206,31,0,0,279,250,10620,247,45.702015,4.911048,26.89,194.5,0,0.0,0,0.0,5.8317,1,0.0,11.1155
666950,1560684831721,13,1.98,2.13,3.11,1.47,3.24,0.91,0.47,0.21,-24,6,-34,1.03,4338,8,86,30,47,875,278.0,320,457,60,123.0,133,1,295,200,33,0,0,271,630,-17920,244,,,,,,,,,,,,
666970,1560684831741,11,2.01,2.09,3.15,1.47,3.25,0.93,0.42,0.19,-24,4,-35,1.03,4333,8,86,30,46,887,272.0,322,455,60,123.0,133,1,291,200,33,0,0,263,250,-1494,243,,,,,,,,,,,,
666990,1560684831761,11,2.04,2.03,3.24,1.45,3.27,0.98,0.44,0.16,-23,2,-35,1.07,4360,8,86,30,46,897,267.0,321,453,60,123.0,133,1,292,201,33,0,0,247,-1,-1532,239,,,,,,,,,,,,
667010,1560684831781,12,2.06,1.99,3.31,1.44,3.28,1.04,0.41,0.17,-22,1,-34,1.12,4381,8,86,30,46,901,262.0,320,456,60,122.0,133,1,292,205,33,0,0,246,-1,13874,235,,,,,,,,,,,,
667030,1560684831801,8,2.1,1.96,3.33,1.46,3.26,1.06,0.41,0.22,-21,-1,-34,1.14,4392,8,86,30,47,905,260.0,319,450,60,120.0,133,1,296,205,33,0,0,247,-1,250,234,45.702015,4.911056,25.46,194.5,0,0.0,0,0.0,5.8333,1,0.0,11.1172
667050,1560684831821,4,2.16,1.94,3.33,1.48,3.18,1.11,0.35,0.26,-20,-1,-33,1.16,4347,8,86,30,47,910,257.0,322,456,60,120.0,145,1,295,204,34,0,0,245,14337,-1496,233,,,,,,,,,,,,
667070,1560684831841,1,2.22,1.95,3.32,1.56,3.08,1.08,0.31,0.32,-19,-1,-31,1.12,4315,8,86,30,47,914,251.0,316,457,60,121.0,145,1,295,204,34,0,0,245,-214,19968,232,,,,,,,,,,,,
667090,1560684831861,7,2.27,1.94,3.32,1.67,2.98,1.02,0.23,0.33,-17,3,-30,1.05,4343,8,86,30,47,915,247.0,316,458,60,122.0,145,1,295,204,34,0,0,241,-1494,-1494,232,,,,,,,,,,,,
667110,1560684831881,4,2.34,1.92,3.32,1.77,2.93,0.91,0.17,0.34,-15,6,-27,0.93,4338,8,86,30,47,917,239.0,317,459,60,123.0,145,1,295,204,34,0,0,237,-1484,-1494,233,,,,,,,,,,,,
667130,1560684831901,3,2.4,1.89,3.33,1.85,2.89,0.89,0.09,0.27,-12,7,-24,0.89,4360,8,86,31,47,921,236.0,315,458,60,123.0,145,1,296,205,34,0,0,229,250,8704,236,45.702011,4.911065,23.78,194.5,0,0.0,0,0.0,5.835,1,0.0,11.1188
667150,1560684831921,2,2.46,1.86,3.36,1.91,2.87,0.82,0.06,0.3,-10,7,-20,0.83,4372,8,86,31,47,925,238.0,315,462,60,123.0,144,1,296,205,34,0,0,228,18432,13602,238,,,,,,,,,,,,
667170,1560684831941,-1,2.54,1.83,3.4,1.97,2.85,0.8,-0.0,0.31,-7,6,-17,0.8,4342,8,86,31,47,928,239.0,314,457,60,123.0,144,1,295,204,34,0,0,225,19968,250,239,,,,,,,,,,,,
667190,1560684831961,0,2.6,1.81,3.46,2.04,2.83,0.85,-0.06,0.35,-3,3,-13,0.85,4351,8,86,31,47,930,241.0,316,452,60,123.0,144,1,295,205,34,0,0,222,1596,-1484,241,,,,,,,,,,,,
667210,1560684831981,-2,2.67,1.79,3.49,2.11,2.81,0.94,-0.12,0.41,-0,-1,-9,0.95,4303,9,86,31,47,932,243.0,308,462,60,120.0,144,1,295,204,34,0,0,216,250,250,243,,,,,,,,,,,,
667230,1560684831995,-1,2.74,1.78,3.52,2.15,2.8,0.98,-0.19,0.42,3,-3,-5,1.0,4266,9,86,31,48,933,244.0,310,457,60,122.0,144,1,294,206,34,0,0,214,250,-1445,244,45.702011,4.911073,23.09,194.5,0,0.0,0,0.0,5.8367,1,0.0,11.1205
667250,1560684832015,0,2.81,1.78,3.58,2.19,2.8,0.96,-0.28,0.38,5,-4,-1,0.99,4280,9,86,31,48,932,246.0,311,458,60,122.0,134,1,294,206,33,0,0,209,250,23482,246,,,,,,,,,,,,
667270,1560684832035,2,2.9,1.78,3.61,2.22,2.8,0.9,-0.34,0.35,8,-1,2,0.96,4221,9,86,31,48,931,245.0,312,460,60,123.0,134,1,294,206,33,0,0,205,966,250,245,,,,,,,,,,,,
667290,1560684832055,2,0.37,1.77,3.63,2.23,2.79,0.82,-0.42,0.3,11,-1,6,0.92,4210,9,86,31,48,928,244.0,308,462,60,123.0,134,1,293,206,33,0,0,201,13964,13468,244,,,,,,,,,,,,
667310,1560684832075,-0,0.43,1.74,3.68,2.23,2.79,0.88,-0.46,0.34,15,-3,11,0.99,4222,9,86,31,48,925,246.0,308,455,60,122.0,134,1,294,206,33,0,0,198,12800,-17920,246,,,,,,,,,,,,
667330,1560684832096,-0,0.43,1.72,3.69,2.23,2.8,0.91,-0.49,0.36,18,-6,17,1.04,4185,9,86,31,48,922,246.0,309,453,60,122.0,134,1,293,205,33,0,0,194,250,23482,246,45.702007,4.911081,22.87,194.5,0,0.0,0,0.0,5.8383,1,0.0,11.1222
667350,1560684832116,-0,0.42,1.7,3.69,2.22,2.8,0.92,-0.56,0.38,20,-6,22,1.08,4150,10,86,31,49,921,246.0,305,459,60,121.0,134,1,294,209,33,0,0,193,-1481,-17920,248,,,,,,,,,,,,
667370,1560684832136,3,0.42,1.7,3.69,2.22,2.8,0.87,-0.61,0.34,23,-3,25,1.07,4139,10,86,31,49,916,249.0,303,461,60,123.0,134,1,293,208,33,0,0,192,250,250,250,,,,,,,,,,,,
667390,1560684832156,0,0.42,1.69,3.69,2.22,2.78,0.88,-0.66,0.34,25,-2,29,1.1,4125,12,86,31,50,911,251.0,304,460,60,122.0,134,1,294,208,33,0,0,190,14326,13468,251,,,,,,,,,,,,
667410,1560684832176,-1,0.42,1.7,3.7,2.23,2.76,0.94,-0.67,0.36,28,-6,33,1.15,4126,19,86,31,51,907,251.0,298,457,60,122.0,134,1,295,216,33,0,0,188,14326,-1484,251,,,,,,,,,,,,
667430,1560684832201,0,0.42,1.7,3.69,2.23,2.75,0.94,-0.68,0.38,30,-7,36,1.16,4122,28,86,31,55,903,251.0,296,456,60,122.0,134,1,297,233,33,0,0,184,14326,-17920,251,45.702004,4.911088,22.26,194.6,0,0.0,0,0.0,5.84,1,0.0,11.1238
667450,1560684832221,4,0.41,1.69,3.69,2.21,2.74,0.91,-0.75,0.36,32,-4,39,1.17,4184,36,86,31,61,902,252.0,300,460,60,123.0,146,1,291,258,37,0,0,180,-2560,250,252,,,,,,,,,,,,
667470,1560684832241,3,0.4,1.69,3.7,2.21,2.73,0.87,-0.8,0.35,34,-3,41,1.18,4276,45,86,31,68,902,253.0,298,460,60,123.0,146,1,295,302,37,0,0,178,-1281,-25600,253,,,,,,,,,,,,
667490,1560684832261,0,0.4,1.69,3.69,2.21,2.73,0.87,-0.82,0.33,36,-3,43,1.2,4353,54,86,31,76,904,252.0,301,460,60,123.0,146,1,292,327,37,0,0,176,250,-25600,252,,,,,,,,,,,,
667510,1560684832281,-0,0.39,1.69,3.69,2.2,2.73,0.89,-0.85,0.34,37,-5,45,1.23,4343,66,86,31,84,907,250.0,303,456,60,123.0,146,1,291,420,37,0,0,178,250,13602,250,,,,,,,,,,,,
667530,1560684832301,-0,0.38,1.7,3.68,2.19,2.71,0.9,-0.85,0.38,39,-6,48,1.23,4316,78,86,31,92,914,250.0,302,445,60,121.0,146,1,292,501,37,0,0,178,-1281,250,250,45.702,4.911095,21.12,194.5,0,0.0,0,0.0,5.8417,1,0.0,11.1255
667550,1560684832321,-2,0.37,1.71,3.65,2.2,2.68,0.9,-0.84,0.39,40,-7,50,1.23,4110,88,86,31,96,922,251.0,302,451,60,121.0,364,1,296,613,91,0,0,204,250,-25600,251,,,,,,,,,,,,
667570,1560684832341,4,0.36,1.73,3.63,2.2,2.69,0.89,-0.86,0.38,40,-5,50,1.23,3951,95,86,31,97,929,250.0,296,453,60,122.0,364,1,291,641,91,0,0,233,14326,13468,250,,,,,,,,,,,,
667590,1560684832361,-3,0.34,1.74,3.63,2.2,2.68,0.89,-0.83,0.37,41,-6,52,1.21,3840,99,86,31,97,934,248.0,292,457,60,120.0,364,1,279,639,91,0,0,215,-2560,-1483,248,,,,,,,,,,,,
667610,1560684832381,4,2.92,1.74,3.63,2.17,2.69,0.84,-0.79,0.34,41,-5,53,1.15,3904,100,86,31,98,941,247.0,287,450,60,122.0,364,1,285,674,91,0,0,179,14326,-1483,247,,,,,,,,,,,,
667630,1560684832401,0,2.88,1.73,3.62,2.16,2.71,0.83,-0.78,0.35,42,-2,53,1.14,4040,100,86,31,97,951,249.0,287,472,60,123.0,364,1,297,643,91,0,0,179,14326,13602,249,45.701996,4.9111,21.04,194.5,0,0.0,0,0.0,5.8433,1,0.0,11.1272
667650,1560684832421,-1,2.85,1.77,3.61,2.17,2.7,0.82,-0.76,0.33,42,-1,54,1.12,4318,100,86,31,97,957,249.0,286,463,60,123.0,405,1,292,645,101,0,0,180,-2560,250,248,,,,,,,,,,,,
667670,1560684832441,-0,2.83,1.83,3.56,2.17,2.7,0.8,-0.71,0.32,42,-1,54,1.07,4538,100,86,31,97,961,248.0,291,450,60,121.0,405,1,288,646,101,0,0,199,-2560,13468,248,,,,,,,,,,,,
667690,1560684832461,4,2.78,1.89,3.48,2.18,2.65,0.79,-0.68,0.36,41,1,54,1.04,4618,100,86,31,97,1006,247.0,299,458,60,123.0,405,1,287,647,101,0,0,252,14412,-25600,247,,,,,,,,,,,,
667710,1560684832481,5,2.75,1.93,3.41,2.19,2.62,0.81,-0.68,0.37,39,3,54,1.06,4779,100,86,31,97,1095,248.0,308,454,60,122.0,405,1,284,648,101,0,0,268,13874,-1445,248,,,,,,,,,,,,
667730,1560684832501,-1,2.7,1.98,3.34,2.2,2.6,0.84,-0.61,0.44,38,1,54,1.04,4916,100,86,31,98,1181,247.0,317,463,60,122.0,405,1,281,674,101,0,0,233,-1482,15360,247,45.701996,4.911105,21.01,194.4,0,0.0,0,0.0,5.845,1,0.0,11.1288
667750,1560684832521,1,2.64,2.05,3.26,2.2,2.61,0.79,-0.59,0.52,37,0,53,0.99,4927,100,86,31,97,1266,250.0,323,451,60,122.0,504,1,281,649,125,0,0,248,966,-1,250,,,,,,,,,,,,
667770,1560684832541,2,2.58,2.13,3.16,2.2,2.59,0.71,-0.51,0.55,36,1,51,0.87,4851,100,86,31,97,1333,252.0,325,458,60,122.0,504,1,282,674,125,0,0,269,16384,-1281,252,,,,,,,,,,,,
667790,1560684832561,5,2.49,2.22,3.08,2.21,2.6,0.66,-0.42,0.57,34,3,49,0.79,4799,100,86,31,98,1378,255.0,332,457,60,122.0,504,1,283,674,125,0,0,246,1596,-41,255,,,,,,,,,,,,
667810,1560684832581,-1,2.41,2.3,3.0,2.23,2.62,0.72,-0.33,0.64,31,4,48,0.79,4727,100,86,31,98,1402,257.0,332,463,60,122.0,504,1,284,674,125,0,0,239,18432,-1,257,,,,,,,,,,,,
667830,1560684832601,1,2.32,2.36,2.92,2.23,2.67,0.74,-0.25,0.67,28,2,47,0.78,4654,100,86,31,98,1363,257.0,331,453,60,121.0,504,1,285,674,125,0,0,253,-25600,-1,257,45.701988,4.911108,22.09,194.4,0,0.0,0,0.0,5.8467,1,0.0,11.1305
667850,1560684832621,2,2.22,2.41,2.89,2.2,2.77,0.74,-0.17,0.68,25,2,43,0.76,4657,100,86,31,98,1314,255.0,327,455,60,121.0,459,1,285,674,118,0,0,253,10812,-1,255,,,,,,,,,,,,
667870,1560684832641,0,2.14,2.46,2.87,2.17,2.88,0.71,-0.08,0.6,21,0,40,0.71,4726,100,86,31,97,1235,255.0,326,450,60,120.0,459,1,285,674,118,0,0,257,-1,-1,255,,,,,,,,,,,,
667890,1560684832661,2,2.05,2.5,2.86,2.14,3.0,0.64,0.06,0.56,18,1,37,0.64,4829,100,86,31,97,1163,256.0,333,451,60,121.0,459,1,283,674,118,0,0,262,-41,-1,252,,,,,,,,,,,,
667910,1560684832681,4,2.0,2.53,2.86,2.1,3.09,0.64,0.14,0.58,15,2,33,0.65,4947,100,86,31,97,1123,264.0,337,458,60,123.0,459,1,281,649,118,0,0,271,-1,-1,251,,,,,,,,,,,,
667930,1560684832700,-1,1.95,2.53,2.87,2.07,3.11,0.66,0.21,0.69,11,-1,30,0.7,5166,100,86,31,97,1078,269.0,345,456,60,120.0,459,1,285,636,118,0,0,278,-1,-1,252,45.701981,4.911112,24.49,194.4,0,0.0,0,0.0,5.8483,1,0.0,11.1322
667950,1560684832720,0,1.91,2.55,2.85,2.05,3.13,0.59,0.26,0.67,9,1,24,0.65,5354,100,86,31,97,1021,273.0,354,455,60,122.0,492,1,292,620,124,0,0,280,28160,-1534,252,,,,,,,,,,,,
667970,1560684832740,3,1.89,2.58,2.81,2.05,3.13,0.57,0.33,0.63,5,3,19,0.66,5582,100,86,31,96,964,277.0,366,450,60,122.0,492,1,301,584,124,0,0,286,30208,0,256,,,,,,,,,,,,
667990,1560684832760,1,1.89,2.6,2.76,2.03,3.11,0.5,0.35,0.67,2,4,15,0.61,5801,100,86,31,96,946,283.0,374,453,60,121.0,492,1,309,569,124,0,0,292,-1529,-28416,258,,,,,,,,,,,,
668010,1560684832780,5,1.89,2.63,2.76,2.04,3.07,0.43,0.43,0.7,1,3,11,0.61,6005,100,86,31,96,929,290.0,388,455,60,121.0,492,1,317,555,124,0,0,307,0,30720,260,,,,,,,,,,,,
668030,1560684832800,4,1.91,2.65,2.76,2.09,3.02,0.34,0.53,0.73,0,4,7,0.63,6105,100,86,31,96,910,299.0,398,457,60,120.0,492,1,322,552,124,0,0,327,25600,140,265,45.701977,4.911117,25.92,194.4,0,0.0,0,0.0,5.85,1,0.0,11.1338
668050,1560684832820,4,1.92,2.66,2.76,2.14,2.93,0.21,0.68,0.76,-1,5,4,0.71,6149,100,86,31,96,891,306.0,410,454,60,121.0,479,1,324,551,127,0,0,341,115,160,269,,,,,,,,,,,,
668070,1560684832840,4,1.95,2.66,2.75,2.14,2.91,0.1,0.77,0.77,-4,8,0,0.77,6200,100,86,31,96,888,312.0,416,449,60,122.0,479,1,327,549,127,0,0,323,130,175,273,,,,,,,,,,,,
668090,1560684832860,-2,1.99,2.66,2.7,2.12,2.92,0.05,0.78,0.69,-8,10,-3,0.79,6208,100,86,31,96,885,319.0,424,448,60,122.0,479,1,327,549,127,0,0,327,-27136,3327,279,,,,,,,,,,,,
668110,1560684832880,1,2.01,2.66,2.7,2.12,2.96,0.09,0.69,0.73,-11,9,-9,0.7,6260,100,86,31,96,883,324.0,427,449,60,122.0,479,1,330,547,127,0,0,337,160,2790,284,,,,,,,,,,,,
668130,1560684832902,2,2.04,2.67,2.75,2.12,2.95,0.26,0.59,0.81,-15,6,-14,0.65,6412,100,86,31,96,880,328.0,432,452,60,122.0,479,1,337,544,127,0,0,355,170,145,286,45.701973,4.911123,27.97,194.4,0,0.0,0,0.0,5.8517,1,0.0,11.1355
668150,1560684832922,4,2.07,2.66,2.78,2.15,2.94,0.27,0.65,0.9,-14,5,-16,0.7,6514,100,86,31,96,878,331.0,442,456,60,121.0,455,1,342,541,132,0,0,355,-12032,-25856,295,,,,,,,,,,,,
668170,1560684832942,1,2.09,2.65,2.75,2.15,2.93,0.19,0.7,0.88,-15,6,-18,0.73,6524,100,86,31,95,877,334.0,447,457,60,122.0,455,1,344,540,132,0,0,345,4838,1,301,,,,,,,,,,,,
668190,1560684832962,5,2.1,2.65,2.71,2.14,2.93,0.34,0.5,0.94,-18,2,-17,0.6,6595,100,86,31,96,888,338.0,453,455,60,121.0,455,1,346,535,132,0,0,349,-31222,-1268,307,,,,,,,,,,,,
668210,1560684832982,-3,2.12,2.65,2.71,2.14,2.94,0.16,0.57,0.94,-16,3,-16,0.59,6710,100,87,31,95,899,341.0,461,453,60,122.0,455,1,353,535,132,0,0,355,6668,-10554,314,,,,,,,,,,,,
668230,1560684832994,4,2.13,2.64,2.74,2.15,2.93,0.33,0.53,1.03,-17,1,-16,0.62,6756,100,86,31,96,910,346.0,463,459,60,122.0,455,1,355,534,132,0,0,364,-30438,3082,320,45.701965,4.91113,30.64,194.3,0,0.0,0,0.0,5.8533,1,0.0,11.1372
668250,1560684833014,1,2.15,2.62,2.77,2.15,2.91,0.2,0.66,1.0,-14,2,-16,0.68,6798,100,86,31,95,921,349.0,466,452,60,122.0,426,1,357,533,137,0,0,369,-30454,-6640,328,,,,,,,,,,,,
668270,1560684833034,5,2.16,2.6,2.8,2.16,2.88,0.36,0.52,1.05,-16,0,-17,0.63,6838,100,86,31,96,934,353.0,463,457,60,121.0,426,1,361,532,137,0,0,369,-6644,-29978,333,,,,,,,,,,,,
668290,1560684833054,1,2.18,2.58,2.82,2.17,2.88,0.21,0.58,1.02,-14,3,-17,0.62,6865,100,86,31,95,947,357.0,470,455,60,122.0,426,1,361,531,137,0,0,374,-6640,-6656,341,,,,,,,,,,,,
668310,1560684833074,3,2.19,2.56,2.82,2.16,2.87,0.39,0.58,1.0,-16,2,-17,0.7,6893,100,86,31,96,951,363.0,475,455,60,121.0,426,1,362,530,137,0,0,370,3082,2278,347,,,,,,,,,,,,
668330,1560684833100,3,2.19,2.56,2.82,2.14,2.87,0.29,0.49,0.97,-14,3,-17,0.57,6972,100,86,31,96,953,367.0,477,455,60,122.0,426,1,366,530,137,0,0,376,0,-18948,351,45.701958,4.911138,33.38,194.4,0,0.0,0,0.0,5.855,1,0.0,11.1388
668350,1560684833120,2,2.19,2.56,2.82,2.15,2.84,0.25,0.58,0.95,-12,4,-17,0.63,7118,100,86,31,95,932,369.0,484,451,60,123.0,400,1,377,535,141,0,0,378,486,0,356,,,,,,,,,,,,
668370,1560684833140,1,2.19,2.56,2.84,2.17,2.81,0.43,0.46,1.04,-14,2,-17,0.63,7219,100,86,31,95,904,373.0,488,455,60,121.0,400,1,385,540,141,0,0,382,-6656,2278,359,,,,,,,,,,,,
668390,1560684833160,1,2.19,2.54,2.85,2.16,2.8,0.52,0.32,1.1,-14,0,-15,0.61,7347,100,86,31,95,875,376.0,493,455,60,121.0,400,1,395,546,141,0,0,388,3,-31744,367,,,,,,,,,,,,
668410,1560684833180,-1,2.2,2.53,2.84,2.16,2.8,0.39,0.27,1.1,-13,1,-14,0.47,7440,100,86,31,94,846,383.0,498,458,60,120.0,400,1,403,552,141,0,0,397,-19126,28696,374,,,,,,,,,,,,
668430,1560684833202,1,2.2,2.53,2.85,2.16,2.81,0.43,0.22,1.12,-12,-0,-15,0.48,7606,100,86,31,94,813,387.0,508,456,60,120.0,400,1,415,560,141,0,0,400,240,-9166,380,45.701954,4.911147,35.65,194.3,0,0.0,0,0.0,5.8567,1,0.0,11.1405
668450,1560684833222,2,2.19,2.53,2.84,2.15,2.78,0.52,0.17,1.16,-13,-2,-16,0.54,7747,100,86,31,94,779,393.0,516,460,60,121.0,423,1,426,566,161,0,0,407,-6656,13040,382,,,,,,,,,,,,
668470,1560684833242,4,2.19,2.53,2.81,2.17,2.75,0.53,0.26,1.11,-13,-2,-15,0.59,7914,100,86,31,93,760,400.0,526,460,60,121.0,423,1,440,574,161,0,0,413,6512,-9166,386,,,,,,,,,,,,
668490,1560684833262,0,2.19,2.54,2.82,2.16,2.75,0.43,0.3,1.15,-12,1,-13,0.53,8002,100,86,31,92,754,404.0,538,450,60,121.0,423,1,448,575,161,0,0,433,-9211,-3314,392,,,,,,,,,,,,
668510,1560684833282,3,2.2,2.53,2.83,2.19,2.75,0.45,0.13,1.17,-12,2,-16,0.46,8159,100,86,31,91,752,411.0,541,455,60,121.0,423,1,445,595,161,0,0,434,-4059,10305,397,,,,,,,,,,,,
668530,1560684833302,2,2.18,2.55,2.83,2.22,2.74,0.41,0.21,1.25,-12,-1,-16,0.46,8355,100,86,31,90,753,417.0,547,451,60,121.0,423,1,441,616,161,0,0,449,-21944,-7939,406,45.701946,4.911156,38.15,194.3,0,0.0,0,0.0,5.8583,1,0.0,11.1422
668550,1560684833322,5,2.19,2.58,2.81,2.23,2.73,0.39,0.2,0.96,-11,2,-13,0.44,8546,100,86,31,89,755,423.0,551,452,60,120.0,492,1,434,622,200,0,0,443,3826,15649,409,,,,,,,,,,,,
668570,1560684833342,4,2.21,2.6,2.8,2.24,2.73,0.42,0.1,1.06,-11,1,-13,0.43,8656,100,87,31,89,760,429.0,565,453,60,120.0,492,1,430,611,200,0,0,455,3635,3576,415,,,,,,,,,,,,
668590,1560684833362,1,2.21,2.6,2.79,2.24,2.74,0.41,0.2,1.15,-11,-1,-15,0.46,8737,100,87,31,88,772,436.0,578,462,60,121.0,492,1,426,611,200,0,0,474,5600,3576,421,,,,,,,,,,,,
668610,1560684833382,3,2.21,2.59,2.8,2.24,2.74,0.25,0.38,1.1,-10,-0,-14,0.46,8877,100,87,31,88,791,441.0,577,463,60,122.0,492,1,422,611,200,0,0,476,26704,-3210,427,,,,,,,,,,,,
668630,1560684833402,1,2.21,2.59,2.8,2.23,2.73,0.14,0.49,1.06,-10,-1,-12,0.51,9010,100,87,31,87,808,447.0,593,457,60,122.0,492,1,418,599,200,0,0,487,8488,16648,435,45.701939,4.911167,41.13,194.3,0,0.0,0,0.0,5.86,1,0.0,11.1438
668650,1560684833422,3,2.22,2.57,2.83,2.22,2.73,-0.01,0.64,1.09,-9,0,-12,0.64,9132,100,87,31,87,822,453.0,596,460,60,120.0,473,1,418,599,206,0,0,497,-8985,3,442,,,,,,,,,,,,
668670,1560684833442,6,2.22,2.58,2.82,2.22,2.74,0.08,0.58,1.09,-10,-2,-13,0.59,9286,100,87,31,87,843,460.0,607,458,60,120.0,473,1,418,599,206,0,0,485,-23623,6274,448,,,,,,,,,,,,
668690,1560684833462,6,2.22,2.6,2.82,2.22,2.73,0.24,0.33,1.16,-9,2,-13,0.41,9460,100,87,31,87,874,467.0,606,452,60,121.0,473,1,418,588,206,0,0,497,243,-4054,453,,,,,,,,,,,,
668710,1560684833482,2,2.23,2.63,2.82,2.23,2.73,0.1,0.49,1.11,-7,2,-12,0.51,9580,100,87,31,87,902,473.0,612,452,60,121.0,473,1,416,602,206,0,0,510,3576,1248,460,,,,,,,,,,,,
668730,1560684833502,5,2.23,2.68,2.82,2.29,2.7,0.26,0.35,1.19,-7,0,-12,0.44,9684,100,87,31,86,920,473.0,613,456,60,120.0,473,1,410,593,206,0,0,518,2212,15661,465,45.701931,4.911179,44.16,194.4,0,0.0,0,0.0,5.8617,1,0.0,11.1455
668750,1560684833522,4,2.23,2.68,2.82,2.36,2.64,0.07,0.5,1.16,-7,-0,-10,0.51,9735,100,87,31,86,938,482.0,621,452,60,121.0,467,1,408,594,219,0,0,529,-899,-4054,473,,,,,,,,,,,,
668770,1560684833542,3,2.24,2.68,2.81,2.36,2.64,0.25,0.34,1.24,-8,0,-12,0.42,9801,100,87,31,85,956,488.0,618,458,60,120.0,467,1,405,579,219,0,0,520,1,-22519,480,,,,,,,,,,,,
668790,1560684833562,1,2.25,2.68,2.81,2.36,2.66,0.22,0.48,1.19,-8,0,-11,0.52,9878,100,87,31,85,972,492.0,622,458,60,121.0,467,1,401,581,219,0,0,520,3,2524,487,,,,,,,,,,,,
668810,1560684833582,0,2.26,2.68,2.79,2.35,2.69,0.26,0.4,1.18,-8,-4,-12,0.48,9962,100,87,31,85,972,500.0,627,456,60,121.0,467,1,397,581,219,0,0,536,10408,-22519,491,,,,,,,,,,,,
668830,1560684833602,5,2.27,2.66,2.84,2.35,2.73,0.29,0.3,1.19,-6,-2,-12,0.42,10113,100,87,31,85,972,506.0,626,459,60,120.0,467,1,403,582,219,0,0,535,-28648,1780,497,45.701923,4.911191,47.4,194.4,0,0.0,0,0.0,5.8633,1,0.0,11.1472
668850,1560684833622,4,2.26,2.61,3.0,2.35,2.75,0.25,0.3,1.18,-5,0,-12,0.39,10229,100,87,31,85,968,505.0,623,456,60,121.0,446,1,411,582,223,0,0,591,-4054,-3082,506,,,,,,,,,,,,
668870,1560684833642,4,2.28,2.57,3.03,2.37,2.74,0.25,0.24,1.25,-6,-3,-11,0.35,10399,100,87,31,85,964,513.0,626,452,60,121.0,446,1,424,582,223,0,0,555,26178,-2934,512,,,,,,,,,,,,
668890,1560684833662,5,2.27,2.57,3.01,2.36,2.73,0.22,0.17,1.22,-6,-3,-8,0.28,10581,100,87,31,85,959,519.0,629,454,60,121.0,446,1,433,582,223,0,0,540,-8187,-2934,520,,,,,,,,,,,,
668910,1560684833682,4,2.27,2.57,2.93,2.35,2.73,0.2,0.09,1.28,-5,-0,-6,0.22,10623,100,87,31,85,954,525.0,629,458,60,121.0,446,1,435,582,223,0,0,551,6274,-12040,523,,,,,,,,,,,,
668930,1560684833702,5,2.27,2.58,2.9,2.36,2.71,0.13,0.09,1.32,-4,-0,-6,0.15,10751,100,87,31,85,953,531.0,623,459,60,120.0,446,1,437,582,223,0,0,572,14504,-8186,528,45.701916,4.911204,50.35,194.4,0,0.0,0,0.0,5.865,1,0.0,11.1488
668950,1560684833722,3,2.28,2.56,2.9,2.36,2.64,0.09,0.03,1.38,-3,0,-8,0.09,10806,100,87,31,85,953,537.0,628,457,60,120.0,448,1,438,582,237,0,0,581,1780,6273,535,,,,,,,,,,,,
668970,1560684833742,4,2.28,2.55,2.92,2.37,2.55,0.1,0.06,1.34,-1,2,-8,0.12,10744,100,87,31,85,958,544.0,628,453,60,120.0,448,1,437,582,237,0,0,605,-3082,-29984,544,,,,,,,,,,,,
668990,1560684833762,4,2.28,2.53,2.95,2.39,2.56,0.23,0.03,1.35,-2,2,-7,0.23,10850,100,87,31,85,964,548.0,629,454,60,121.0,448,1,440,582,237,0,0,590,-8962,-29984,548,,,,,,,,,,,,
669010,1560684833782,4,2.28,2.53,2.92,2.37,2.59,0.26,0.03,1.41,-3,3,-6,0.26,10894,100,87,31,85,964,554.0,633,454,60,121.0,448,1,441,582,237,0,0,572,2524,30227,555,,,,,,,,,,,,
669030,1560684833801,5,2.28,2.54,2.91,2.36,2.64,0.2,0.11,1.42,-2,2,-4,0.23,11042,100,87,31,85,964,558.0,628,457,60,120.0,448,1,444,564,237,0,0,579,-18032,28675,559,45.701908,4.911219,53.05,194.4,0,0.0,0,0.0,5.8667,1,0.0,11.1505
669050,1560684833821,4,2.27,2.54,2.92,2.32,2.66,0.18,0.14,1.28,-1,-1,-3,0.23,11174,100,87,31,84,960,564.0,629,454,60,121.0,437,1,442,564,244,0,0,588,12552,3472,564,,,,,,,,,,,,
669070,1560684833841,3,2.27,2.51,2.97,2.32,2.62,0.18,-0.05,1.35,0,1,-5,0.19,11220,100,87,31,84,954,570.0,624,452,60,121.0,437,1,442,564,244,0,0,614,1780,17344,570,,,,,,,,,,,,
669090,1560684833861,2,2.27,2.49,3.04,2.33,2.58,0.21,0.06,1.33,1,1,-5,0.22,11343,100,87,31,84,942,575.0,632,453,60,121.0,437,1,441,564,244,0,0,638,259,3472,575,,,,,,,,,,,,
669110,1560684833881,5,2.27,2.5,3.04,2.35,2.58,0.25,0.1,1.31,0,3,-4,0.27,11503,100,87,31,84,930,580.0,632,451,60,120.0,437,1,440,564,244,0,0,610,-3210,19621,581,,,,,,,,,,,,
669130,1560684833901,1,2.27,2.5,2.99,2.34,2.61,0.36,0.02,1.37,-1,3,-3,0.36,11617,100,87,31,84,922,585.0,640,455,60,120.0,437,1,440,566,244,0,0,606,-12040,-10251,585,45.701897,4.911234,55.75,194.5,0,0.0,0,0.0,5.8683,1,0.0,11.1522
669150,1560684833921,5,2.27,2.53,2.88,2.32,2.61,0.39,0.04,1.39,-1,5,-2,0.39,11689,100,87,31,83,915,591.0,642,453,60,121.0,416,1,440,550,243,0,0,609,6273,-5120,590,,,,,,,,,,,,
669170,1560684833941,5,2.26,2.54,2.84,2.32,2.6,0.38,0.17,1.27,-0,6,-0,0.42,11733,100,87,31,83,902,596.0,643,456,60,120.0,416,1,440,550,243,0,0,624,-13043,-18357,596,,,,,,,,,,,,
669190,1560684833961,1,2.25,2.51,2.88,2.33,2.6,0.33,0.1,1.22,1,6,0,0.35,11704,100,87,31,83,888,600.0,643,459,60,123.0,416,1,440,551,243,0,0,641,-3210,506,603,,,,,,,,,,,,
669210,1560684833981,-0,2.26,2.49,2.94,2.38,2.62,0.29,0.19,1.09,1,6,1,0.35,11016,100,87,31,86,881,607.0,645,458,60,124.0,416,1,445,582,243,0,0,641,-768,771,607,,,,,,,,,,,,
669230,1560684833995,0,2.24,2.47,2.96,2.37,2.69,0.33,0.11,1.06,-0,3,2,0.35,10635,100,87,31,88,877,608.0,633,456,60,123.0,416,1,437,639,243,0,0,605,17740,30721,606,45.701889,4.911251,58.3,194.5,0,0.0,0,0.0,5.87,1,0.0,11.1538
669250,1560684834015,1,2.24,2.45,2.99,2.3,2.87,0.3,0.14,0.98,-1,2,3,0.33,10376,100,87,31,88,868,607.0,633,458,60,123.0,422,1,425,639,256,0,0,606,-23055,30227,604,,,,,,,,,,,,
669270,1560684834035,-0,2.25,2.35,3.07,2.09,3.0,0.32,0.23,0.88,-1,2,2,0.4,10229,100,87,31,88,858,605.0,632,458,60,120.0,422,1,413,639,256,0,0,603,-3820,-3820,604,,,,,,,,,,,,
669290,1560684834055,2,2.23,2.3,3.2,2.03,3.02,0.46,0.03,0.99,-2,-3,2,0.46,9973,100,87,31,89,852,610.0,625,461,60,123.0,422,1,399,655,256,0,0,605,-3446,-28304,608,,,,,,,,,,,,
669310,1560684834075,5,2.24,2.29,3.22,2.0,3.04,0.33,0.07,1.05,-2,6,0,0.33,9551,100,87,31,89,849,613.0,619,462,60,120.0,422,1,418,1071,256,0,0,643,26688,-10348,609,,,,,,,,,,,,
669330,1560684834101,4,2.24,2.3,3.13,2.01,2.94,0.48,-0.05,1.14,-2,2,-1,0.48,9164,100,87,31,88,905,623.0,605,463,60,120.0,422,1,418,940,256,0,0,702,3395,-3888,614,45.701878,4.911267,60.36,194.6,0,0.0,0,0.0,5.8717,1,0.0,11.1555
669350,1560684834121,4,2.24,2.42,2.94,2.07,2.78,0.44,-0.2,1.2,-2,5,-2,0.48,9342,100,87,31,87,1006,626.0,608,456,60,120.0,515,1,418,839,317,0,0,653,506,244,617,,,,,,,,,,,,
669370,1560684834141,3,2.24,2.51,2.78,2.14,2.57,0.25,-0.02,1.13,-2,8,-2,0.25,9245,100,87,31,87,1109,634.0,618,448,60,121.0,515,1,418,713,317,0,0,665,-2836,-8429,620,,,,,,,,,,,,
669390,1560684834161,3,2.23,2.53,2.7,2.21,2.44,0.19,0.13,1.02,-2,9,-5,0.23,8954,100,87,31,87,1215,633.0,597,460,60,121.0,515,1,419,614,317,0,0,664,-2580,-3038,628,,,,,,,,,,,,
669410,1560684834181,4,2.23,2.55,2.63,2.26,2.46,0.21,0.25,0.79,-2,8,-3,0.32,8769,100,87,31,87,1320,643.0,593,453,60,120.0,515,1,425,599,317,0,0,665,244,-388,632,,,,,,,,,,,,
669430,1560684834201,3,2.23,2.6,2.68,2.28,2.57,0.29,0.17,0.87,-3,5,-3,0.34,8773,100,87,31,87,1427,643.0,575,454,60,121.0,515,1,425,599,317,0,0,668,244,8958,631,45.70187,4.911284,61.05,194.6,0,0.0,0,0.0,5.8733,1,0.0,11.1572
669450,1560684834221,4,2.22,2.62,2.81,2.28,2.87,0.38,0.11,0.98,-4,2,-6,0.39,8997,100,87,31,87,1498,644.0,585,453,60,120.0,320,1,419,599,203,0,0,662,11566,16599,636,,,,,,,,,,,,
669470,1560684834241,2,2.23,2.6,3.02,2.28,3.02,0.42,-0.03,1.03,-3,1,-9,0.42,9263,100,87,31,87,1498,648.0,590,460,60,121.0,320,1,418,599,203,0,0,681,-30207,-10348,642,,,,,,,,,,,,
669490,1560684834261,4,2.23,2.58,3.13,2.27,3.09,0.31,0.09,0.78,-3,0,-10,0.32,9474,100,87,31,87,1458,653.0,607,451,60,121.0,320,1,418,599,203,0,0,689,-2830,24,646,,,,,,,,,,,,
669510,1560684834281,3,2.24,2.57,3.2,2.27,3.11,0.3,0.21,0.78,-4,-0,-7,0.36,9679,100,87,31,86,1369,659.0,622,460,60,121.0,320,1,411,593,203,0,0,734,-26380,-2918,650,,,,,,,,,,,,
669530,1560684834299,0,2.24,2.57,3.21,2.3,3.08,0.32,0.08,0.85,-4,-0,-7,0.33,9984,100,87,31,86,1280,662.0,623,454,60,120.0,320,1,397,600,203,0,0,738,-2826,-4091,654,45.701858,4.911301,64.43,194.6,0,0.0,0,0.0,5.875,1,0.0,11.1588
669550,1560684834319,2,2.25,2.59,3.16,2.33,3.0,0.37,0.04,0.95,-4,0,-8,0.37,10195,100,87,31,85,1191,665.0,625,457,60,120.0,350,1,409,582,229,0,0,718,3543,-23490,658,,,,,,,,,,,,
669570,1560684834339,4,2.24,2.63,3.04,2.34,2.87,0.33,0.18,0.92,-5,1,-7,0.37,10102,100,87,31,85,1103,670.0,628,459,60,120.0,350,1,398,582,229,0,0,733,-388,-13068,662,,,,,,,,,,,,
669590,1560684834359,2,2.25,2.65,2.86,2.33,2.76,0.33,0.28,0.96,-6,0,-7,0.43,9894,100,87,31,85,1020,678.0,623,451,60,121.0,350,1,400,581,229,0,0,725,-10346,-3580,667,,,,,,,,,,,,
669610,1560684834379,3,2.26,2.66,2.74,2.33,2.65,0.44,0.16,1.01,-6,-1,-8,0.47,9750,100,87,31,85,955,684.0,620,466,60,120.0,350,1,407,579,229,0,0,721,3543,8010,672,,,,,,,,,,,,
669630,1560684834401,2,2.25,2.65,2.76,2.3,2.62,0.44,0.17,0.91,-5,-1,-7,0.47,9585,100,87,31,86,962,687.0,609,455,60,120.0,350,1,415,590,229,0,0,724,24,-12152,679,45.701847,4.91132,65.58,194.6,0,0.0,0,0.0,5.8767,1,0.0,11.1605
669650,1560684834421,4,2.26,2.54,2.84,2.24,2.65,0.34,0.21,0.94,-4,-1,-5,0.4,9561,100,87,31,86,968,695.0,615,456,60,121.0,311,1,416,589,213,0,0,722,-10448,-2560,687,,,,,,,,,,,,
669670,1560684834441,7,2.25,2.5,2.9,2.2,2.7,0.51,0.11,1.05,-4,-2,-6,0.52,9669,100,87,31,86,976,699.0,615,458,60,121.0,311,1,411,592,213,0,0,716,-10448,-3344,694,,,,,,,,,,,,
669690,1560684834461,2,2.26,2.48,2.89,2.19,2.78,0.33,0.29,1.02,-5,-4,-6,0.44,9852,100,87,31,85,984,704.0,616,463,60,121.0,311,1,400,580,213,0,0,721,11069,-2826,696,,,,,,,,,,,,
669710,1560684834481,1,2.25,2.49,2.9,2.17,2.8,0.42,0.23,1.0,-4,-4,-6,0.48,10032,100,87,31,85,986,705.0,615,456,60,121.0,311,1,397,582,213,0,0,735,-20693,-31068,703,,,,,,,,,,,,
669730,1560684834501,5,2.26,2.48,2.88,2.18,2.71,0.46,0.17,1.0,-4,-1,-6,0.49,10053,100,87,31,85,987,709.0,621,458,60,121.0,311,1,399,582,213,0,0,733,-12152,-2826,708,45.701836,4.911338,68.54,194.7,0,0.0,0,0.0,5.8783,1,0.0,11.1622
669750,1560684834521,5,2.24,2.49,2.87,2.22,2.67,0.37,0.19,1.01,-3,1,-5,0.42,10021,100,87,31,85,983,714.0,616,457,60,121.0,313,1,396,582,222,0,0,744,204,-3344,711,,,,,,,,,,,,
669770,1560684834541,2,2.25,2.51,2.87,2.27,2.67,0.4,0.15,1.11,-3,-2,-4,0.43,10064,100,87,31,85,980,716.0,625,448,60,121.0,313,1,399,582,222,0,0,746,16118,3462,716,,,,,,,,,,,,
669790,1560684834561,1,2.25,2.59,2.86,2.33,2.67,0.41,0.12,1.14,-3,-4,-3,0.43,10042,100,87,31,85,975,718.0,625,452,60,120.0,313,1,398,582,222,0,0,739,16118,3462,713,,,,,,,,,,,,
669810,1560684834581,4,2.26,2.62,2.89,2.34,2.69,0.29,0.16,1.21,-2,-3,-5,0.33,10091,100,87,31,85,970,726.0,620,454,60,120.0,313,1,405,582,222,0,0,746,-4091,136,720,,,,,,,,,,,,
669830,1560684834601,4,2.26,2.64,3.03,2.33,2.72,0.31,0.26,1.04,-2,-1,-5,0.41,10229,100,87,31,85,966,724.0,626,453,60,121.0,313,1,411,582,222,0,0,752,-3344,-2766,722,45.701828,4.911358,70.38,194.7,0,0.0,0,0.0,5.88,1,0.0,11.1638
669850,1560684834621,4,2.25,2.61,3.15,2.29,2.81,0.29,0.17,1.06,-1,-4,-7,0.34,10330,100,87,31,85,963,732.0,631,455,60,121.0,312,1,418,582,226,0,0,768,-2826,-2826,727,,,,,,,,,,,,
669870,1560684834641,4,2.26,2.59,3.26,2.28,2.89,0.32,0.16,0.92,-1,-5,-6,0.36,10551,100,87,31,85,964,739.0,625,455,60,121.0,312,1,432,582,226,0,0,776,-13068,-31068,730,,,,,,,,,,,,
669890,1560684834661,4,2.27,2.58,3.27,2.27,2.91,0.31,0.17,0.89,-1,-5,-4,0.36,10659,100,87,31,85,965,737.0,628,452,60,121.0,312,1,435,582,226,0,0,782,-22796,-2344,736,,,,,,,,,,,,
669910,1560684834681,6,2.27,2.46,3.21,2.21,2.9,0.37,0.11,0.91,-0,0,-5,0.38,10819,100,87,31,85,966,746.0,631,455,60,120.0,312,1,438,582,226,0,0,792,-3344,-25858,746,,,,,,,,,,,,
669930,1560684834700,2,2.27,2.43,3.08,2.2,2.81,0.29,0.07,1.01,-0,1,-6,0.3,10907,100,87,31,84,967,754.0,631,457,60,120.0,312,1,441,564,226,0,0,789,-2574,-2344,750,45.701817,4.911379,72.96,194.7,0,0.0,0,0.0,5.8817,1,0.0,11.1655
669950,1560684834720,5,2.26,2.43,2.96,2.21,2.69,0.26,0.06,0.99,-0,2,-3,0.27,10825,100,87,31,85,967,754.0,630,452,60,121.0,311,1,439,582,234,0,0,788,-3038,6389,755,,,,,,,,,,,,
669970,1560684834740,4,2.27,2.43,2.81,2.19,2.53,0.37,0.05,1.0,-0,1,-1,0.37,10702,100,87,30,85,967,763.0,625,452,60,120.0,311,1,436,582,234,0,0,787,-2766,-2426,763,,,,,,,,,,,,
669990,1560684834760,6,2.27,2.42,2.64,2.22,2.38,0.39,0.06,1.02,-0,3,-2,0.39,10504,100,87,30,85,963,763.0,628,453,60,121.0,311,1,431,582,234,0,0,790,6389,5344,763,,,,,,,,,,,,
670010,1560684834780,4,2.28,2.44,2.64,2.25,2.4,0.47,0.12,0.96,-0,1,-1,0.48,10498,100,87,31,85,958,766.0,632,451,60,121.0,311,1,430,582,234,0,0,786,-2826,-7436,764,,,,,,,,,,,,
670030,1560684834800,4,2.27,2.46,2.73,2.26,2.49,0.48,0.09,1.06,0,-1,-1,0.49,10557,100,87,30,85,953,766.0,625,455,60,121.0,311,1,432,582,234,0,0,781,-2826,-2540,766,45.701805,4.9114,74.08,194.7,0,0.0,0,0.0,5.8833,1,0.0,11.1672
670050,1560684834820,5,2.28,2.47,2.9,2.27,2.65,0.53,0.03,1.02,1,-5,-3,0.53,10788,100,87,30,85,949,769.0,631,452,60,121.0,304,1,438,582,234,0,0,792,-2344,-7436,769,,,,,,,,,,,,
670070,1560684834840,1,2.27,2.47,3.17,2.28,2.74,0.44,-0.07,1.04,1,-5,-4,0.44,10984,100,87,30,84,938,769.0,628,456,60,120.0,304,1,442,582,234,0,0,825,-2344,-13072,773,,,,,,,,,,,,
670090,1560684834860,7,2.26,2.49,3.35,2.32,2.93,0.42,0.04,0.93,1,-4,-3,0.42,11094,96,87,30,84,926,774.0,641,455,60,120.0,304,1,443,564,234,0,0,837,-2830,-23308,776,,,,,,,,,,,,
670110,1560684834880,3,2.27,2.54,3.45,2.39,3.04,0.58,-0.08,1.02,0,-6,-2,0.59,11384,77,87,30,82,916,775.0,644,452,60,120.0,304,1,441,537,234,0,0,833,-3368,-31066,779,,,,,,,,,,,,
670130,1560684834900,5,2.26,2.57,3.44,2.43,3.13,0.48,-0.02,0.79,-1,-5,0,0.48,11574,57,87,30,74,908,781.0,642,460,60,120.0,304,1,440,480,234,0,0,841,-2574,-2426,781,45.701794,4.911422,77.13,194.7,0,0.0,0,0.0,5.885,1,0.0,11.1688
670150,1560684834920,3,2.27,2.57,3.4,2.42,3.15,0.38,-0.02,0.75,-0,-2,1,0.38,11552,43,87,30,65,899,784.0,646,461,60,121.0,264,1,440,431,207,0,0,850,-10218,-2826,784,,,,,,,,,,,,
670170,1560684834940,6,2.26,2.57,3.38,2.42,3.12,0.31,0.1,0.84,1,-3,2,0.33,11220,34,87,30,56,890,790.0,648,461,60,121.0,264,1,413,364,207,0,0,833,11277,-4091,784,,,,,,,,,,,,
670190,1560684834960,1,2.27,2.56,3.39,2.42,3.03,0.35,0.02,0.83,2,-3,0,0.35,10757,25,87,30,51,885,790.0,646,457,60,120.0,264,1,391,309,207,0,0,824,11277,-2830,789,,,,,,,,,,,,
670210,1560684834980,1,2.25,2.53,3.37,2.38,2.93,0.37,0.02,0.85,2,-3,-1,0.37,10504,15,87,30,45,884,792.0,637,460,60,121.0,264,1,365,244,207,0,0,788,11277,-8148,792,,,,,,,,,,,,
670230,1560684834994,6,2.27,2.44,3.3,2.28,2.88,0.47,-0.04,0.82,1,-2,-2,0.47,10251,12,88,30,41,873,790.0,628,455,60,120.0,264,1,335,225,207,0,0,786,-7436,3544,788,45.701782,4.911444,78.27,194.7,0,0.0,0,0.0,5.8867,1,0.0,11.1705
670250,1560684835014,6,2.27,2.37,3.28,2.16,2.88,0.42,-0.05,0.72,1,-1,-2,0.42,10086,11,87,30,37,850,793.0,632,461,60,121.0,108,1,314,215,86,0,0,779,5344,-2426,785,,,,,,,,,,,,
670270,1560684835034,3,2.26,2.35,3.27,2.14,2.94,0.48,-0.04,0.66,0,-2,-1,0.49,9931,11,87,30,34,830,790.0,630,460,60,121.0,108,1,305,210,86,0,0,788,11277,6389,786,,,,,,,,,,,,
670290,1560684835054,6,2.27,2.3,3.22,2.11,2.96,0.45,-0.07,0.7,1,-3,-0,0.46,9715,11,87,30,33,809,789.0,623,453,60,121.0,108,1,302,205,86,0,0,777,-10216,-2830,786,,,,,,,,,,,,
670310,1560684835074,5,2.26,2.2,3.18,2.05,2.97,0.6,-0.16,0.68,1,-2,-1,0.62,9674,11,87,30,31,800,788.0,621,461,60,121.0,108,1,295,199,86,0,0,765,6389,-23308,786,,,,,,,,,,,,
670330,1560684835100,10,2.27,2.08,3.21,1.89,2.98,0.53,-0.04,0.67,1,-2,0,0.53,9740,11,88,30,31,805,784.0,621,463,60,121.0,108,1,295,200,86,0,0,768,-2826,-10218,782,45.701771,4.911467,78.54,194.7,0,0.0,0,0.0,5.8883,1,0.0,11.1722
670350,1560684835120,10,2.27,2.04,3.32,1.82,3.03,0.68,-0.06,0.64,2,-0,-0,0.68,9821,12,88,30,30,815,783.0,631,453,60,122.0,92,1,291,199,73,0,0,747,-2574,-31066,780,,,,,,,,,,,,
670370,1560684835140,14,2.26,2.02,3.37,1.79,3.01,0.74,0.0,0.57,2,-2,-1,0.74,9816,12,88,30,29,841,777.0,627,457,60,121.0,92,1,287,197,73,0,0,741,-23308,6790,776,,,,,,,,,,,,
670390,1560684835160,13,2.28,1.97,3.37,1.77,3.0,0.82,-0.04,0.58,2,-2,-1,0.82,9878,13,88,30,29,861,773.0,631,462,60,122.0,92,1,287,197,73,0,0,734,-3368,-2314,774,,,,,,,,,,,,
670410,1560684835180,18,2.27,1.95,3.32,1.74,2.97,0.92,0.04,0.53,2,-0,-1,0.92,9952,13,88,30,28,871,768.0,635,454,60,122.0,92,1,282,198,73,0,0,754,-2344,-2314,766,,,,,,,,,,,,
670430,1560684835200,14,2.27,1.94,3.29,1.73,2.97,0.91,-0.02,0.47,2,-0,-2,0.91,10000,13,88,30,28,875,763.0,630,462,60,122.0,92,1,282,196,73,0,0,748,-2344,-2356,763,45.701756,4.911489,77.56,194.7,0,0.0,0,0.0,5.89,1,0.0,11.1738
670450,1560684835220,9,2.27,1.92,3.31,1.72,3.02,0.94,0.03,0.4,2,-2,-2,0.94,9984,13,88,30,28,859,757.0,626,457,60,122.0,96,1,282,196,74,0,0,738,-10218,-22796,756,,,,,,,,,,,,
670470,1560684835240,11,2.28,1.93,3.33,1.73,2.99,0.97,0.15,0.35,2,0,-1,0.98,10016,13,88,30,28,841,757.0,630,461,60,121.0,96,1,282,196,74,0,0,737,8838,136,753,,,,,,,,,,,,
670490,1560684835260,7,2.28,1.92,3.33,1.73,2.99,0.96,0.05,0.35,2,-0,-1,0.96,10000,13,88,30,27,817,753.0,633,460,60,121.0,96,1,278,193,74,0,0,735,-3450,-2918,750,,,,,,,,,,,,
670510,1560684835280,1,2.28,1.93,3.35,1.74,2.98,0.95,0.1,0.31,2,-2,-0,0.95,9925,13,88,30,27,795,752.0,622,456,60,122.0,96,1,278,193,74,0,0,732,-31068,-22796,751,,,,,,,,,,,,
670530,1560684835301,7,2.27,1.93,3.36,1.73,2.99,0.97,0.13,0.27,2,1,-0,0.98,9931,14,88,30,27,787,752.0,627,456,60,121.0,96,1,278,193,74,0,0,731,-31068,-2830,747,45.701748,4.91151,75.52,194.6,0,0.0,0,0.0,5.8917,1,0.0,11.1755
670550,1560684835321,2,2.27,1.92,3.34,1.73,3.0,0.92,0.1,0.27,1,1,1,0.92,9904,14,88,30,27,781,751.0,630,461,60,122.0,96,1,278,193,72,0,0,735,-23308,-2830,746,,,,,,,,,,,,
670570,1560684835341,-1,2.28,1.92,3.29,1.74,3.0,1.02,0.09,0.34,1,-0,2,1.02,9858,14,88,30,26,776,748.0,633,456,60,122.0,96,1,274,192,72,0,0,729,6790,1524,743,,,,,,,,,,,,
670590,1560684835361,4,2.27,1.93,3.28,1.74,2.99,0.92,0.04,0.2,2,3,2,0.92,9863,14,88,30,26,772,745.0,633,462,60,121.0,96,1,274,190,72,0,0,731,-22796,-3344,745,,,,,,,,,,,,
670610,1560684835381,1,2.29,1.92,3.25,1.75,2.95,1.0,-0.01,0.26,1,2,2,1.0,9904,14,88,30,26,775,740.0,633,456,60,121.0,96,1,274,190,72,0,0,721,-2826,-13580,740,,,,,,,,,,,,
670630,1560684835398,3,2.29,1.92,3.22,1.75,2.92,0.99,0.03,0.3,2,-0,2,0.99,9863,14,88,30,26,778,739.0,622,455,60,120.0,96,1,274,190,72,0,0,731,-2830,-4091,737,45.701736,4.911531,73.85,194.6,0,0.0,0,0.0,5.8933,1,0.0,11.1772
670650,1560684835418,2,2.29,1.93,3.23,1.76,2.92,0.93,-0.0,0.29,2,2,2,0.93,9842,14,88,30,26,792,736.0,631,461,60,122.0,96,1,274,190,71,0,0,721,-31066,-4091,735,,,,,,,,,,,,
670670,1560684835438,6,2.29,1.92,3.25,1.75,2.93,1.03,-0.05,0.31,2,-1,1,1.03,9832,14,88,30,25,805,736.0,633,455,60,121.0,96,1,270,190,71,0,0,726,-31066,-3450,736,,,,,,,,,,,,
670690,1560684835458,1,2.3,1.91,3.28,1.76,2.93,0.87,-0.09,0.29,3,1,2,0.87,9786,14,88,30,26,816,733.0,627,458,60,121.0,96,1,274,188,71,0,0,713,-2826,-388,734,,,,,,,,,,,,
670710,1560684835478,3,2.29,1.88,3.3,1.75,2.93,0.98,-0.13,0.4,3,0,1,0.99,9679,14,88,30,25,826,734.0,625,456,60,121.0,96,1,270,188,71,0,0,718,-2826,16118,730,,,,,,,,,,,,
670730,1560684835500,1,2.29,1.9,3.31,1.77,2.93,0.83,-0.06,0.34,3,-1,1,0.83,9650,14,88,30,25,850,731.0,623,453,60,122.0,96,1,270,188,71,0,0,712,-13580,204,731,45.701721,4.911552,72.8,194.6,0,0.0,0,0.0,5.895,1,0.0,11.1788
670750,1560684835520,3,2.3,1.91,3.31,1.78,2.93,0.88,-0.05,0.3,3,-0,-0,0.88,9659,14,88,30,25,874,729.0,631,461,60,122.0,92,1,270,188,68,0,0,715,-388,-3450,729,,,,,,,,,,,,
670770,1560684835540,1,2.29,1.91,3.35,1.78,2.9,0.96,-0.11,0.32,4,-1,-0,0.96,9650,14,88,30,24,891,724.0,628,456,60,122.0,92,1,270,182,68,0,0,709,-2830,-2560,724,,,,,,,,,,,,
670790,1560684835560,4,2.28,1.91,3.35,1.8,2.87,0.78,-0.06,0.23,4,-1,0,0.78,9640,14,88,30,24,905,726.0,627,461,60,121.0,92,1,270,182,68,0,0,711,-388,-13072,724,,,,,,,,,,,,
670810,1560684835580,8,2.29,1.95,3.36,1.9,2.89,0.9,-0.15,0.29,3,-4,-0,0.91,9580,14,88,30,24,931,717.0,628,456,60,122.0,92,1,270,182,68,0,0,704,-23490,8010,717,,,,,,,,,,,,
670830,1560684835600,11,2.29,1.99,3.39,1.94,2.94,0.67,-0.06,0.18,4,-5,0,0.68,9546,14,88,30,24,958,712.0,622,461,60,122.0,92,1,270,182,68,0,0,698,-30694,-10448,710,45.701714,4.911572,71.78,194.5,0,0.0,0,0.0,5.8967,1,0.0,11.1805
670850,1560684835620,12,2.3,1.98,3.4,1.93,2.97,0.78,-0.04,0.13,3,-5,2,0.78,9484,14,88,30,24,974,712.0,621,457,60,121.0,91,1,270,181,65,0,0,690,6658,-3584,710,,,,,,,,,,,,
670870,1560684835640,15,2.28,1.96,3.44,1.92,3.02,0.91,-0.13,0.2,3,-3,3,0.91,9384,14,88,30,23,987,709.0,617,455,60,121.0,91,1,270,176,65,0,0,687,687,24,707,,,,,,,,,,,,
670890,1560684835660,11,2.28,1.97,3.52,1.93,3.12,0.65,-0.04,0.13,4,-1,4,0.65,9272,14,88,30,23,1009,708.0,621,460,60,124.0,91,1,270,176,65,0,0,675,19188,-10399,708,,,,,,,,,,,,
670910,1560684835680,11,2.28,1.96,3.56,1.91,3.19,0.53,0.12,0.02,4,-2,3,0.54,9124,14,88,30,23,1034,703.0,622,456,60,123.0,91,1,270,176,65,0,0,672,8010,-10344,702,,,,,,,,,,,,
670930,1560684835699,9,2.29,1.95,3.55,1.89,3.16,0.51,0.13,0.01,4,-3,3,0.53,9014,14,88,30,23,1052,704.0,618,460,60,123.0,91,1,270,176,65,0,0,669,-3584,-3038,704,45.701698,4.911592,71.22,194.5,0,0.0,0,0.0,5.8983,1,0.0,11.1822
670950,1560684835719,10,2.29,1.93,3.52,1.9,3.14,0.51,0.21,-0.11,4,-1,4,0.55,8962,14,88,30,23,1065,697.0,618,461,60,122.0,85,1,270,176,60,0,0,650,14342,31988,699,,,,,,,,,,,,
670970,1560684835739,10,2.28,1.91,3.49,1.91,3.12,0.43,0.22,-0.14,4,-0,6,0.49,8903,14,88,30,24,1089,692.0,620,461,60,122.0,85,1,270,181,60,0,0,658,1780,3543,692,,,,,,,,,,,,
670990,1560684835759,9,2.28,1.9,3.44,1.89,3.1,0.5,0.22,-0.2,4,-1,7,0.55,8869,14,88,30,24,1117,693.0,618,452,60,122.0,85,1,270,181,60,0,0,671,6208,8958,693,,,,,,,,,,,,
671010,1560684835779,9,2.29,1.88,3.39,1.86,3.04,0.53,0.19,-0.14,5,1,7,0.56,8903,14,88,30,25,1139,689.0,612,453,60,121.0,85,1,270,286,60,0,0,665,16599,-3038,687,,,,,,,,,,,,
671030,1560684835799,4,2.29,1.85,3.41,1.83,2.98,0.53,0.2,-0.12,6,1,8,0.57,9062,13,88,30,24,1152,687.0,614,453,60,119.0,85,1,270,253,60,0,0,649,-10399,-2830,686,45.701691,4.911612,69.35,194.5,0,0.0,0,0.0,5.9,1,0.0,11.1838
671050,1560684835819,4,2.28,1.84,3.43,1.83,2.9,0.53,0.21,-0.08,5,3,7,0.57,9040,13,88,30,23,1167,685.0,614,460,60,120.0,122,1,270,225,84,0,0,660,3543,-388,685,,,,,,,,,,,,
671070,1560684835839,4,2.28,1.85,3.4,1.84,2.88,0.53,0.21,-0.12,5,4,4,0.57,9027,13,88,30,22,1185,682.0,611,460,60,121.0,122,1,270,197,84,0,0,671,3543,-27404,682,,,,,,,,,,,,
671090,1560684835859,5,2.28,1.86,3.38,1.83,2.88,0.49,0.25,-0.14,5,5,4,0.55,9031,13,88,31,22,1197,680.0,613,455,60,121.0,122,1,270,180,84,0,0,664,-10346,-2830,677,,,,,,,,,,,,
671110,1560684835879,4,2.27,1.87,3.38,1.83,2.88,0.48,0.28,-0.17,5,6,3,0.56,9040,13,88,31,23,1200,677.0,617,459,60,121.0,122,1,270,176,84,0,0,664,-26892,-2345,674,,,,,,,,,,,,
671130,1560684835899,5,2.26,1.9,3.38,1.83,2.89,0.44,0.31,-0.2,4,6,5,0.54,9036,13,88,31,23,1171,675.0,615,450,60,121.0,122,1,270,176,84,0,0,650,-2345,8958,672,45.701679,4.911631,67.86,194.5,0,0.0,0,0.0,5.9017,1,0.0,11.1855
671150,1560684835919,4,2.26,1.91,3.37,1.84,2.9,0.43,0.34,-0.14,4,6,5,0.55,8997,13,88,31,24,1112,675.0,618,458,60,121.0,89,1,270,181,60,0,0,662,-10344,-26380,669,,,,,,,,,,,,
671170,1560684835939,4,2.26,1.92,3.36,1.83,2.95,0.36,0.39,-0.07,3,7,6,0.53,8945,13,88,31,24,1051,673.0,616,458,60,120.0,89,1,270,181,60,0,0,659,-26380,2024,666,,,,,,,,,,,,
671190,1560684835959,5,2.26,1.92,3.33,1.83,3.01,0.29,0.48,-0.09,3,7,4,0.56,8890,13,88,31,24,987,671.0,616,457,60,120.0,89,1,270,181,60,0,0,657,-388,479,666,,,,,,,,,,,,
671210,1560684835979,9,2.26,1.91,3.31,1.83,3.05,0.28,0.54,-0.15,2,8,4,0.61,8848,12,88,31,24,932,668.0,613,455,60,120.0,89,1,270,181,60,0,0,654,-2830,-388,665,,,,,,,,,,,,
671230,1560684835993,15,2.26,1.9,3.29,1.81,3.07,0.34,0.54,-0.19,2,6,2,0.64,8811,12,88,31,24,891,662.0,609,457,60,120.0,89,1,270,181,60,0,0,645,-2826,24,662,45.701668,4.911649,66.69,194.5,0,0.0,0,0.0,5.9033,1,0.0,11.1872
671250,1560684836013,18,2.26,1.9,3.3,1.8,3.08,0.45,0.49,-0.24,1,6,1,0.67,8729,12,88,31,24,866,658.0,612,459,60,120.0,91,1,270,181,60,0,0,643,-3038,16599,654,,,,,,,,,,,,
671270,1560684836033,15,2.28,1.89,3.3,1.79,3.08,0.57,0.4,-0.18,1,4,0,0.7,8644,12,88,31,24,890,653.0,598,460,60,120.0,91,1,270,181,60,0,0,630,-30207,-5120,653,,,,,,,,,,,,
671290,1560684836053,20,2.27,1.86,3.35,1.75,3.08,0.61,0.32,-0.17,1,4,1,0.69,8546,11,88,31,24,919,650.0,602,455,60,121.0,91,1,270,181,60,0,0,629,479,20993,650,,,,,,,,,,,,
671310,1560684836073,17,2.29,1.86,3.35,1.75,3.06,0.64,0.31,-0.18,1,5,1,0.71,8430,11,88,31,24,965,645.0,593,458,60,119.0,91,1,270,178,60,0,0,624,11566,771,647,,,,,,,,,,,,
671330,1560684836101,17,2.29,1.85,3.35,1.76,3.05,0.74,0.18,-0.09,1,3,2,0.76,8408,11,88,31,23,1006,640.0,588,457,60,121.0,91,1,270,177,60,0,0,619,24,19304,640,45.701656,4.911667,65.45,194.5,0,0.0,0,0.0,5.905,1,0.0,11.1888
671350,1560684836121,19,2.3,1.86,3.39,1.75,3.05,0.78,0.18,-0.07,1,2,4,0.8,8366,11,88,31,23,1027,635.0,590,458,60,119.0,84,1,270,169,54,0,0,613,-4876,26688,635,,,,,,,,,,,,
671370,1560684836141,13,2.29,1.83,3.41,1.74,3.05,0.88,0.04,0.03,2,2,3,0.88,8285,11,88,31,23,1048,634.0,587,456,60,120.0,84,1,270,166,54,0,0,610,771,19621,633,,,,,,,,,,,,
671390,1560684836161,16,2.3,1.81,3.41,1.74,3.05,0.86,0.01,0.03,2,3,3,0.86,8223,11,88,31,23,1070,631.0,593,457,60,120.0,84,1,270,163,54,0,0,601,-16046,28675,631,,,,,,,,,,,,
671410,1560684836181,11,2.3,1.81,3.45,1.76,3.04,0.92,-0.03,0.09,2,3,4,0.92,8191,11,88,31,23,1091,626.0,586,460,60,120.0,84,1,270,158,54,0,0,594,3395,16529,626,,,,,,,,,,,,
671430,1560684836199,14,2.29,1.82,3.43,1.77,3.02,0.94,0.06,0.03,2,2,3,0.94,8095,11,88,31,22,1092,622.0,583,457,60,120.0,84,1,270,154,54,0,0,606,26688,-3446,622,45.701649,4.911685,63.67,194.5,0,0.0,0,0.0,5.9067,1,0.0,11.1905
671450,1560684836219,12,2.3,1.81,3.41,1.76,3.01,0.88,0.01,0.05,3,2,4,0.88,8040,11,88,31,22,1092,618.0,578,456,60,121.0,74,1,270,152,46,0,0,601,26688,-3210,616,,,,,,,,,,,,
671470,1560684836239,9,2.3,1.8,3.43,1.74,2.99,0.89,-0.04,0.05,4,2,4,0.89,8109,11,88,31,22,1087,617.0,582,459,60,120.0,74,1,270,155,46,0,0,587,28675,17344,616,,,,,,,,,,,,
671490,1560684836259,11,2.3,1.79,3.45,1.74,2.98,0.85,-0.05,0.04,4,3,4,0.85,8113,11,88,31,22,1082,614.0,573,459,60,121.0,74,1,270,155,46,0,0,591,-30139,-13043,614,,,,,,,,,,,,
671510,1560684836279,15,2.3,1.78,3.45,1.74,2.97,0.81,-0.11,0.07,5,7,4,0.81,8033,11,88,31,21,1077,612.0,573,456,60,121.0,74,1,270,149,46,0,0,593,17740,243,612,,,,,,,,,,,,
671530,1560684836301,10,2.28,1.76,3.44,1.73,2.95,0.88,-0.13,0.07,5,7,3,0.89,7982,11,88,31,22,1072,608.0,569,461,60,119.0,74,1,269,149,46,0,0,586,-3820,23619,606,45.701637,4.911702,61.58,194.5,0,0.0,0,0.0,5.9083,1,0.0,11.1922
671550,1560684836321,12,2.3,1.77,3.43,1.73,2.94,0.86,-0.11,0.07,5,6,3,0.87,7982,11,88,31,21,1040,605.0,562,459,60,121.0,74,1,269,151,45,0,0,592,243,-32504,605,,,,,,,,,,,,
671570,1560684836341,12,2.31,1.77,3.39,1.73,2.94,0.82,-0.12,0.07,5,9,3,0.83,7965,11,88,32,21,1008,602.0,561,457,60,120.0,74,1,269,149,45,0,0,582,30227,-12040,602,,,,,,,,,,,,
671590,1560684836361,10,2.3,1.77,3.39,1.75,2.94,0.87,-0.13,0.09,5,9,1,0.88,7975,10,88,32,21,980,595.0,562,457,60,120.0,74,1,269,149,45,0,0,581,-13043,774,594,,,,,,,,,,,,
671610,1560684836381,12,2.29,1.8,3.36,1.79,2.94,0.85,-0.06,0.02,5,8,2,0.86,7891,10,88,32,21,953,592.0,562,460,60,121.0,74,1,268,151,45,0,0,582,-12040,-4035,592,,,,,,,,,,,,
671630,1560684836399,13,2.31,1.82,3.34,1.81,2.95,0.74,-0.09,0.0,5,8,3,0.74,7809,10,88,32,22,920,585.0,562,456,60,121.0,74,1,268,151,45,0,0,573,10432,774,585,45.701626,4.911718,59.4,194.4,0,0.0,0,0.0,5.91,1,0.0,11.1938
671650,1560684836419,13,2.31,1.82,3.37,1.8,2.96,0.68,-0.11,0.03,6,7,4,0.69,7789,10,88,32,22,886,582.0,561,460,60,120.0,75,1,267,149,44,0,0,570,1,2211,582,,,,,,,,,,,,
671670,1560684836439,26,2.3,1.82,3.43,1.79,2.99,0.76,-0.15,0.06,7,6,4,0.77,7690,10,88,32,22,873,582.0,556,456,60,121.0,75,1,266,149,44,0,0,559,1,-2934,581,,,,,,,,,,,,
671690,1560684836459,8,2.3,1.79,3.49,1.78,3.01,0.87,-0.17,0.13,6,4,4,0.89,7631,10,88,32,22,868,581.0,554,460,60,119.0,75,1,265,151,44,0,0,554,259,-22359,581,,,,,,,,,,,,
671710,1560684836479,10,2.31,1.79,3.52,1.77,3.03,0.99,-0.17,0.21,5,2,4,1.0,7524,10,88,32,22,867,578.0,551,460,60,119.0,75,1,265,151,44,0,0,542,774,6273,577,,,,,,,,,,,,
671730,1560684836501,12,2.3,1.82,3.52,1.8,3.04,1.04,-0.19,0.27,4,1,4,1.06,7458,10,88,32,22,868,570.0,543,457,60,120.0,75,1,264,151,44,0,0,551,1780,-32248,570,45.701618,4.911734,58.33,194.4,0,0.0,0,0.0,5.9117,1,0.0,11.1955
671750,1560684836521,14,2.31,1.81,3.5,1.8,3.04,1.11,-0.15,0.27,4,0,3,1.12,7376,10,88,32,22,874,569.0,533,458,60,120.0,73,1,263,151,42,0,0,549,-2934,-28648,569,,,,,,,,,,,,
671770,1560684836541,14,2.31,1.81,3.49,1.79,3.05,1.19,-0.17,0.3,4,2,3,1.2,7367,10,88,32,23,881,567.0,531,458,60,121.0,73,1,263,154,42,0,0,542,-18032,2524,567,,,,,,,,,,,,
671790,1560684836561,14,2.3,1.8,3.48,1.8,3.01,1.2,-0.26,0.31,5,2,3,1.22,7329,10,88,32,23,889,562.0,525,457,60,121.0,73,1,263,154,42,0,0,532,-22359,2524,562,,,,,,,,,,,,
671810,1560684836581,11,2.31,1.8,3.45,1.81,2.98,1.12,-0.33,0.28,5,1,4,1.17,7350,10,88,32,23,898,560.0,525,455,60,121.0,73,1,263,154,42,0,0,540,-28648,-2336,560,,,,,,,,,,,,
671830,1560684836601,11,2.29,1.8,3.48,1.8,3.03,0.99,-0.35,0.16,6,2,5,1.05,7338,10,88,32,23,903,553.0,529,456,60,121.0,73,1,263,154,42,0,0,525,2104,2088,553,45.701607,4.911748,56.42,194.4,0,0.0,0,0.0,5.9133,1,0.0,11.1972
671850,1560684836621,8,2.3,1.8,3.44,1.8,3.0,0.89,-0.34,0.13,7,2,6,0.95,7261,10,88,32,23,905,553.0,524,460,60,121.0,76,1,262,154,42,0,0,535,2524,1780,553,,,,,,,,,,,,
671870,1560684836641,3,2.31,1.79,3.43,1.79,2.98,0.91,-0.26,0.17,6,-0,6,0.94,7203,10,88,32,23,905,552.0,523,458,60,120.0,76,1,262,154,42,0,0,532,-8962,-28648,552,,,,,,,,,,,,
671890,1560684836661,6,2.3,1.79,3.42,1.8,2.97,1.0,-0.3,0.31,5,-1,6,1.04,7086,10,88,32,23,903,551.0,518,457,60,120.0,76,1,260,154,42,0,0,536,2524,-8962,551,,,,,,,,,,,,
671910,1560684836681,2,2.29,1.79,3.41,1.83,2.96,0.91,-0.33,0.3,6,2,6,0.97,6970,10,88,32,24,900,552.0,514,456,60,121.0,76,1,260,156,42,0,0,546,-8962,2524,550,,,,,,,,,,,,
671930,1560684836700,-1,2.3,1.78,3.4,1.84,2.97,0.8,-0.14,0.07,7,5,5,0.82,6875,10,88,32,24,897,551.0,508,460,60,121.0,76,1,261,156,42,0,0,502,-3082,26178,551,45.701599,4.911763,55.07,194.3,0,0.0,0,0.0,5.915,1,0.0,11.1988
671950,1560684836720,4,2.29,1.79,3.37,1.83,2.98,0.72,-0.32,0.01,6,11,6,0.79,6873,10,88,32,24,893,540.0,502,456,60,122.0,73,1,261,156,40,0,0,490,-2934,2109,540,,,,,,,,,,,,
671970,1560684836740,2,2.3,1.78,3.38,1.84,2.99,0.63,-0.31,-0.19,8,15,9,0.7,7075,10,88,32,24,889,540.0,511,458,60,123.0,73,1,260,156,40,0,0,513,6274,771,540,,,,,,,,,,,,
671990,1560684836760,-2,2.31,1.78,3.41,1.83,3.0,0.6,-0.22,-0.17,8,14,13,0.64,7214,10,88,32,24,886,537.0,514,458,60,121.0,73,1,262,156,40,0,0,503,-32248,-3414,536,,,,,,,,,,,,
672010,1560684836780,0,2.31,1.78,3.44,1.84,2.99,0.74,-0.21,0.05,6,10,12,0.77,7284,10,88,32,24,886,535.0,521,456,60,122.0,73,1,262,156,40,0,0,485,-32248,771,536,,,,,,,,,,,,
672030,1560684836800,-2,2.33,1.78,3.44,1.84,2.99,0.8,-0.18,0.14,6,8,8,0.82,7446,10,88,32,24,887,535.0,528,460,60,121.0,73,1,264,156,40,0,0,501,6274,-4054,532,45.701588,4.911777,53.6,194.3,0,0.0,0,0.0,5.9167,1,0.0,11.2005
672050,1560684836820,-1,2.34,1.77,3.42,1.88,2.97,0.88,-0.22,0.14,6,6,5,0.91,7536,10,88,32,24,888,528.0,532,457,60,121.0,82,1,265,156,44,0,0,501,-22519,771,528,,,,,,,,,,,,
672070,1560684836840,-0,2.36,1.77,3.43,1.88,2.97,1.0,-0.29,0.09,5,3,6,1.04,7615,10,88,32,23,889,527.0,538,455,60,121.0,82,1,266,154,44,0,0,493,15679,-9216,527,,,,,,,,,,,,
672090,1560684836860,0,2.36,1.76,3.46,1.91,2.95,1.1,-0.31,0.13,6,2,6,1.14,7751,10,88,32,23,891,527.0,542,458,60,121.0,82,1,267,154,44,0,0,490,26178,6274,527,,,,,,,,,,,,
672110,1560684836880,3,2.37,1.73,3.51,1.9,2.94,1.08,-0.32,0.14,6,1,8,1.13,7799,10,88,32,23,892,525.0,544,457,60,122.0,82,1,267,154,44,0,0,481,10994,248,525,,,,,,,,,,,,
672130,1560684836902,2,2.38,1.72,3.53,1.93,2.94,1.03,-0.34,0.19,7,1,9,1.09,7955,10,88,32,22,895,523.0,553,460,60,122.0,82,1,269,151,44,0,0,485,6274,248,523,45.701576,4.91179,52.28,194.2,0,0.0,0,0.0,5.9183,1,0.0,11.2022
672150,1560684836922,0,2.39,1.72,3.55,1.99,2.93,1.05,-0.45,0.21,8,2,11,1.14,8036,10,88,32,22,897,521.0,561,457,60,122.0,86,1,270,152,45,0,0,480,2109,-6441,521,,,,,,,,,,,,
672170,1560684836942,3,2.41,1.72,3.59,2.0,2.93,1.02,-0.43,0.17,8,1,12,1.11,8106,10,88,32,22,898,516.0,568,458,60,122.0,86,1,270,155,45,0,0,468,-9216,505,516,,,,,,,,,,,,
672190,1560684836962,-1,2.4,1.71,3.61,2.0,2.91,1.08,-0.5,0.17,10,2,14,1.18,8187,10,88,32,21,899,517.0,578,462,60,122.0,86,1,270,154,45,0,0,468,998,8488,517,,,,,,,,,,,,
672210,1560684836982,2,2.42,1.67,3.62,2.01,2.89,1.06,-0.52,0.15,12,2,16,1.18,8281,10,88,32,21,901,513.0,585,457,60,122.0,86,1,270,157,45,0,0,462,-1818,16648,513,,,,,,,,,,,,
672230,1560684836994,0,2.41,1.64,3.63,2.0,2.85,1.09,-0.63,0.2,13,-1,17,1.26,8318,10,88,32,21,902,512.0,593,455,60,122.0,86,1,270,158,45,0,0,455,-6441,-1818,512,45.701569,4.911803,50.91,194.2,0,0.0,0,0.0,5.92,1,0.0,11.2038
672250,1560684837014,4,2.41,1.62,3.65,2.02,2.85,1.0,-0.63,0.13,15,-1,19,1.18,8381,10,88,32,21,903,509.0,601,460,60,122.0,97,1,270,160,50,0,0,447,8488,32033,509,,,,,,,,,,,,
672270,1560684837034,1,2.41,1.62,3.68,2.06,2.85,0.99,-0.66,0.19,15,-1,20,1.19,8461,10,88,32,20,903,507.0,601,457,60,121.0,97,1,270,156,50,0,0,417,10305,10305,507,,,,,,,,,,,,
672290,1560684837054,-0,2.41,1.62,3.68,2.07,2.85,0.96,-0.68,0.21,17,-1,21,1.18,8503,10,88,32,20,906,505.0,603,457,60,122.0,97,1,270,157,50,0,0,419,-17956,2212,504,,,,,,,,,,,,
672310,1560684837074,3,2.4,1.63,3.68,2.12,2.83,0.92,-0.69,0.14,18,-2,22,1.14,8480,10,88,32,20,908,501.0,599,460,60,122.0,97,1,270,157,50,0,0,428,32033,8488,500,,,,,,,,,,,,
672330,1560684837102,2,2.39,1.62,3.67,2.17,2.8,0.96,-0.82,0.2,18,-2,22,1.26,8468,10,88,32,20,910,496.0,591,458,60,121.0,97,1,270,156,50,0,0,430,10432,-899,496,45.701557,4.911815,49.45,194.3,0,0.0,0,0.0,5.9217,1,0.0,11.2055
672350,1560684837122,5,2.37,1.59,3.65,2.15,2.82,0.9,-0.83,0.22,18,-2,23,1.23,8434,10,88,32,20,911,493.0,589,457,60,122.0,98,1,270,156,49,0,0,423,243,-16384,493,,,,,,,,,,,,
672370,1560684837142,3,2.34,1.6,3.67,2.13,2.81,0.93,-0.74,0.24,18,-2,24,1.19,8393,10,88,32,20,914,492.0,581,457,60,121.0,98,1,270,155,49,0,0,417,30272,-1923,492,,,,,,,,,,,,
672390,1560684837162,0,2.33,1.6,3.64,2.12,2.86,0.98,-0.76,0.27,17,-2,23,1.24,8374,10,88,32,20,916,490.0,586,457,60,121.0,98,1,270,154,49,0,0,434,16408,243,489,,,,,,,,,,,,
672410,1560684837182,4,2.31,1.63,3.59,2.11,2.87,0.96,-0.8,0.22,17,-1,23,1.25,8333,10,88,32,20,917,485.0,585,456,60,121.0,98,1,270,153,49,0,0,442,16408,6193,485,,,,,,,,,,,,
672430,1560684837202,0,2.3,1.7,3.58,2.11,2.88,1.04,-0.85,0.24,16,-3,22,1.34,8337,10,88,32,21,919,481.0,583,457,60,122.0,98,1,270,159,49,0,0,445,6193,21432,481,45.70155,4.911826,47.77,194.2,0,0.0,0,0.0,5.9233,1,0.0,11.2072
672450,1560684837222,3,2.29,1.69,3.61,2.09,2.88,0.95,-0.83,0.19,15,-4,22,1.27,8303,10,88,32,20,921,476.0,592,457,60,122.0,101,1,270,158,49,0,0,432,12552,-3267,476,,,,,,,,,,,,
672470,1560684837242,1,2.26,1.7,3.55,2.06,2.86,0.96,-0.75,0.23,14,-3,21,1.22,8340,10,88,32,20,923,472.0,560,459,60,122.0,101,1,270,154,49,0,0,451,-23623,17628,473,,,,,,,,,,,,
672490,1560684837262,5,2.26,1.7,3.49,2.0,2.88,0.85,-0.65,0.13,13,-2,18,1.07,8374,10,88,32,20,924,468.0,546,460,60,122.0,101,1,270,154,49,0,0,448,12552,-7939,468,,,,,,,,,,,,
672510,1560684837282,2,2.26,1.7,3.5,1.98,2.87,0.94,-0.6,0.13,11,1,18,1.12,8378,10,88,32,20,925,462.0,569,455,60,121.0,101,1,270,154,49,0,0,443,-23623,3571,460,,,,,,,,,,,,
672530,1560684837302,0,2.27,1.72,3.46,1.94,2.87,0.93,-0.59,0.25,9,0,15,1.1,8348,10,88,32,20,918,460.0,575,456,60,122.0,101,1,270,154,49,0,0,447,-23623,21432,458,45.701542,4.911836,46.56,194.2,0,0.0,0,0.0,5.925,1,0.0,11.2088
672550,1560684837322,3,2.26,1.75,3.44,1.92,2.93,0.94,-0.55,0.19,8,-1,14,1.09,8329,14,88,32,21,910,459.0,575,455,60,121.0,105,1,270,153,48,0,0,448,17628,19477,455,,,,,,,,,,,,
672570,1560684837342,1,2.27,1.79,3.44,1.9,2.92,0.91,-0.49,0.25,7,1,14,1.03,8351,19,88,33,22,902,457.0,576,458,60,121.0,105,1,270,164,48,0,0,443,-9160,-18341,454,,,,,,,,,,,,
672590,1560684837362,3,2.28,1.82,3.38,1.89,2.92,0.87,-0.38,0.19,6,1,12,0.95,8325,24,88,33,24,893,456.0,575,457,60,122.0,105,1,270,173,48,0,0,448,2524,21580,451,,,,,,,,,,,,
672610,1560684837382,-0,2.29,1.89,3.31,1.89,2.92,0.87,-0.32,0.22,5,2,11,0.92,8322,26,88,33,27,879,453.0,585,456,60,121.0,105,1,277,178,48,0,0,449,-8985,-28332,450,,,,,,,,,,,,
672630,1560684837402,4,2.29,1.9,3.31,1.89,2.93,0.82,-0.24,0.24,5,1,11,0.86,8370,27,88,33,30,862,451.0,584,456,60,122.0,105,1,289,181,48,0,0,444,10305,26704,450,45.70153,4.911845,45.36,194.3,0,0.0,0,0.0,5.9267,1,0.0,11.2105
672650,1560684837422,1,2.31,1.9,3.31,1.87,2.94,0.93,-0.32,0.34,4,-1,9,0.98,8385,28,88,33,32,851,448.0,589,456,60,121.0,126,1,297,184,57,0,0,442,8488,-18341,448,,,,,,,,,,,,
672670,1560684837442,0,2.31,1.9,3.31,1.88,2.94,0.88,-0.29,0.39,4,-1,9,0.93,8423,28,88,33,34,843,448.0,601,457,60,121.0,126,1,303,192,57,0,0,443,8488,23400,449,,,,,,,,,,,,
672690,1560684837462,3,2.31,1.88,3.31,1.87,2.92,0.9,-0.22,0.33,5,0,9,0.92,8438,28,88,33,35,838,450.0,602,458,60,122.0,126,1,306,196,57,0,0,445,10305,2131,450,,,,,,,,,,,,
672710,1560684837482,1,2.31,1.88,3.31,1.87,2.89,0.9,-0.21,0.4,5,3,8,0.93,8415,28,88,33,36,833,451.0,603,457,60,121.0,126,1,309,200,57,0,0,444,2131,8488,451,,,,,,,,,,,,
672730,1560684837502,-1,2.3,1.88,3.29,1.88,2.88,0.86,-0.18,0.4,5,2,8,0.88,8438,28,88,33,37,833,450.0,601,456,60,122.0,126,1,312,204,57,0,0,441,21432,16648,450,45.701523,4.911853,44.41,194.2,0,0.0,0,0.0,5.9283,1,0.0,11.2122
672750,1560684837522,2,2.3,1.9,3.27,1.89,2.88,0.94,-0.2,0.4,5,3,7,0.96,8465,29,88,33,38,836,449.0,602,458,60,122.0,144,1,316,208,65,0,0,442,2131,-18341,449,,,,,,,,,,,,
672770,1560684837542,2,2.29,1.93,3.28,1.89,2.85,1.0,-0.22,0.49,5,2,6,1.03,8495,29,88,33,38,846,447.0,600,458,60,121.0,144,1,316,209,65,0,0,442,2131,21432,447,,,,,,,,,,,,
672790,1560684837562,-0,2.3,1.96,3.29,1.94,2.87,0.93,-0.17,0.44,5,2,6,0.95,8561,29,88,33,39,864,445.0,601,456,60,122.0,144,1,320,213,65,0,0,441,2131,8488,445,,,,,,,,,,,,
672810,1560684837582,5,2.29,2.03,3.3,1.99,2.85,0.89,-0.14,0.38,5,3,6,0.9,8608,29,88,33,39,880,445.0,601,457,60,122.0,144,1,320,213,65,0,0,443,-18341,-18341,445,,,,,,,,,,,,
672830,1560684837600,2,2.29,2.07,3.29,2.0,2.83,0.93,-0.19,0.4,4,2,5,0.95,8640,29,88,33,39,894,444.0,601,453,60,121.0,144,1,320,213,65,0,0,441,23400,-28332,444,45.701515,4.911861,43.93,194.2,0,0.0,0,0.0,5.93,1,0.0,11.2138
672850,1560684837620,1,2.29,2.07,3.31,1.98,2.85,0.92,-0.2,0.47,4,1,5,0.94,8648,29,88,33,39,916,443.0,604,454,60,121.0,155,1,320,213,69,0,0,436,-18341,26704,442,,,,,,,,,,,,
672870,1560684837640,2,2.28,2.07,3.28,1.98,2.86,0.85,-0.11,0.46,4,-1,5,0.86,8704,27,88,33,38,945,441.0,607,461,60,122.0,155,1,317,209,69,0,0,440,-18341,26704,441,,,,,,,,,,,,
672890,1560684837660,4,2.28,2.06,3.25,1.98,2.89,0.77,0.01,0.34,4,-1,6,0.77,8720,22,88,33,36,971,441.0,607,460,60,122.0,155,1,311,202,69,0,0,438,26704,19477,441,,,,,,,,,,,,
672910,1560684837680,7,2.26,2.05,3.27,1.96,2.93,0.77,0.01,0.35,3,-1,6,0.77,8680,17,88,33,33,986,442.0,608,458,60,121.0,155,1,302,191,69,0,0,444,20625,16648,442,,,,,,,,,,,,
672930,1560684837702,5,2.27,2.05,3.28,1.98,2.96,0.86,-0.14,0.48,2,-2,5,0.87,8514,14,88,33,30,1006,444.0,612,456,60,121.0,155,1,291,188,69,0,0,454,21432,15649,444,45.701504,4.91187,44.22,194.2,0,0.0,0,0.0,5.9317,1,0.0,11.2155
672950,1560684837722,8,2.27,2.05,3.26,1.99,2.98,0.75,-0.0,0.48,3,-1,6,0.75,8355,12,88,33,28,1035,447.0,602,458,60,122.0,135,1,281,180,60,0,0,452,10305,-26615,446,,,,,,,,,,,,
672970,1560684837742,6,2.26,2.07,3.22,1.97,2.97,0.75,-0.13,0.51,3,-3,3,0.76,8085,11,88,33,27,1061,447.0,596,456,60,121.0,135,1,276,167,60,0,0,446,16648,10305,447,,,,,,,,,,,,
672990,1560684837762,6,2.26,2.05,3.21,1.95,2.95,0.85,-0.05,0.41,3,-2,2,0.85,7911,10,88,33,25,1075,446.0,580,455,60,122.0,135,1,269,159,60,0,0,446,16648,23400,447,,,,,,,,,,,,
673010,1560684837782,7,2.27,2.05,3.25,1.95,2.94,0.86,-0.02,0.41,3,-4,3,0.86,7832,10,88,33,24,1088,446.0,566,461,60,122.0,135,1,268,159,60,0,0,443,16648,2131,445,,,,,,,,,,,,
673030,1560684837801,9,2.27,2.04,3.25,1.95,2.95,0.84,-0.08,0.41,4,-4,4,0.84,7668,9,88,33,24,1099,442.0,558,456,60,122.0,135,1,266,156,60,0,0,443,23400,21580,441,45.701496,4.911879,44.2,194.3,0,0.0,0,0.0,5.9333,1,0.0,11.2172
673050,1560684837821,12,2.26,2.02,3.27,1.95,2.95,0.82,-0.09,0.44,4,-2,3,0.82,7539,9,88,33,24,1108,441.0,545,457,60,122.0,101,1,265,156,45,0,0,437,-28332,21580,441,,,,,,,,,,,,
673070,1560684837841,13,2.27,1.99,3.31,1.92,2.97,0.64,-0.1,0.38,4,0,3,0.65,7344,9,88,33,23,1105,439.0,538,461,60,122.0,101,1,263,154,45,0,0,431,-28332,19477,439,,,,,,,,,,,,
673090,1560684837861,12,2.26,1.98,3.27,1.89,2.98,0.52,-0.04,0.28,5,2,3,0.52,7217,9,88,33,23,1098,438.0,525,460,60,123.0,101,1,262,154,45,0,0,431,21580,-3314,437,,,,,,,,,,,,
673110,1560684837881,12,2.26,1.94,3.23,1.84,3.02,0.67,0.1,0.21,5,-1,2,0.67,7231,9,88,33,23,1076,434.0,523,454,60,123.0,101,1,262,154,45,0,0,420,1779,11560,433,,,,,,,,,,,,
673130,1560684837901,13,2.23,1.9,3.26,1.8,3.03,0.8,0.07,0.22,4,-4,1,0.81,7329,9,88,33,23,1054,425.0,528,460,60,121.0,101,1,263,154,45,0,0,396,-3856,-1562,425,45.701485,4.911887,43.81,194.3,0,0.0,0,0.0,5.935,1,0.0,11.2188
673150,1560684837921,14,2.24,1.85,3.33,1.75,3.09,0.92,0.03,0.34,2,-4,0,0.92,7344,8,88,33,23,1035,423.0,528,458,60,121.0,98,1,263,154,42,0,0,369,3826,240,419,,,,,,,,,,,,
673170,1560684837941,14,2.23,1.83,3.4,1.74,3.11,0.96,-0.02,0.41,1,-6,0,0.96,7273,8,88,33,23,1016,420.0,524,458,60,122.0,98,1,262,154,42,0,0,368,-8165,-31744,416,,,,,,,,,,,,
673190,1560684837961,17,2.22,1.84,3.43,1.74,3.1,0.86,-0.06,0.4,-0,-3,-0,0.86,7170,8,88,33,23,989,417.0,522,459,60,121.0,98,1,261,154,42,0,0,392,-21944,10541,414,,,,,,,,,,,,
673210,1560684837981,12,2.22,1.87,3.38,1.74,3.08,0.82,0.02,0.22,1,0,-1,0.82,7088,8,88,33,23,963,415.0,520,458,60,122.0,98,1,260,154,42,0,0,403,2524,6512,406,,,,,,,,,,,,
673230,1560684837995,9,2.21,1.89,3.38,1.71,3.08,0.94,0.05,0.23,-0,-1,-3,0.94,7118,8,88,33,23,954,412.0,520,457,60,122.0,98,1,261,154,42,0,0,383,13040,-19019,401,45.701477,4.911895,42.12,194.3,0,0.0,0,0.0,5.9367,1,0.0,11.2205
673250,1560684838015,8,2.2,1.9,3.37,1.68,3.08,1.03,0.03,0.4,-2,-2,-6,1.03,7131,8,88,33,23,946,406.0,519,455,60,122.0,102,1,261,154,41,0,0,377,2524,742,397,,,,,,,,,,,,
673270,1560684838035,9,2.2,1.92,3.38,1.66,3.08,0.91,0.03,0.28,-2,1,-6,0.91,7153,8,88,33,23,943,405.0,519,457,60,122.0,102,1,261,154,41,0,0,381,-9211,-6656,393,,,,,,,,,,,,
673290,1560684838055,4,2.2,1.97,3.37,1.67,3.11,0.81,0.1,0.11,-2,3,-4,0.82,7145,8,88,33,23,939,403.0,515,457,60,123.0,102,1,261,154,41,0,0,383,-8151,770,389,,,,,,,,,,,,
673310,1560684838075,2,2.19,2.01,3.35,1.67,3.12,0.86,0.27,0.13,-3,3,-4,0.9,7083,8,88,33,23,943,401.0,514,457,60,123.0,102,1,260,154,41,0,0,388,11545,-18948,386,,,,,,,,,,,,
673330,1560684838101,4,2.19,2.04,3.3,1.67,3.12,0.91,0.27,0.31,-5,0,-5,0.95,7064,8,88,33,23,948,398.0,514,461,60,121.0,102,1,260,154,41,0,0,387,-32702,-6656,385,45.701466,4.911903,40.19,194.4,0,0.0,0,0.0,5.9383,1,0.0,11.2222
673350,1560684838121,4,2.17,2.07,3.23,1.69,3.13,0.81,0.34,0.14,-5,1,-6,0.88,7062,8,88,33,23,943,395.0,510,454,60,122.0,106,1,260,154,41,0,0,381,-6656,3,382,,,,,,,,,,,,
673370,1560684838141,1,2.17,2.08,3.17,1.69,3.15,0.82,0.39,0.01,-4,2,-6,0.91,7043,8,88,33,23,937,392.0,513,458,60,122.0,106,1,260,154,41,0,0,382,505,0,380,,,,,,,,,,,,
673390,1560684838161,-1,2.16,2.07,3.17,1.67,3.17,0.92,0.44,0.15,-6,-0,-6,1.02,7059,8,88,33,23,928,390.0,512,460,60,122.0,106,1,260,154,41,0,0,380,-6524,0,378,,,,,,,,,,,,
673410,1560684838181,4,2.14,2.06,3.16,1.67,3.21,0.8,0.38,0.19,-6,-0,-8,0.89,7051,7,88,33,23,918,389.0,512,457,60,122.0,106,1,260,154,41,0,0,383,-6524,0,376,,,,,,,,,,,,
673430,1560684838201,1,2.13,2.07,3.17,1.68,3.24,0.73,0.3,0.19,-5,-0,-9,0.79,6975,7,88,33,23,908,389.0,513,456,60,123.0,106,1,260,153,41,0,0,378,-3866,0,376,45.701458,4.911911,38.9,194.4,0,0.0,0,0.0,5.94,1,0.0,11.2238
673450,1560684838221,0,2.13,2.06,3.18,1.71,3.25,0.81,0.23,0.23,-7,-1,-11,0.84,6957,7,88,33,23,899,388.0,510,462,60,122.0,106,1,260,153,40,0,0,379,240,-6405,372,,,,,,,,,,,,
673470,1560684838241,1,2.11,2.07,3.17,1.74,3.23,0.86,0.18,0.35,-8,-1,-12,0.88,6926,7,88,33,23,897,386.0,510,454,60,123.0,106,1,260,153,40,0,0,379,-6475,-1268,371,,,,,,,,,,,,
673490,1560684838261,-1,2.11,2.08,3.16,1.74,3.24,0.78,0.17,0.3,-8,0,-11,0.8,6868,7,88,33,23,897,385.0,506,457,60,123.0,106,1,261,153,40,0,0,376,-19019,-29302,368,,,,,,,,,,,,
673510,1560684838281,4,2.09,2.08,3.16,1.73,3.26,0.79,0.24,0.3,-10,1,-10,0.83,6863,7,88,33,23,898,384.0,503,460,60,122.0,106,1,261,153,40,0,0,377,-3866,4104,365,,,,,,,,,,,,
673530,1560684838301,1,2.09,2.1,3.14,1.71,3.26,0.7,0.25,0.33,-9,2,-10,0.74,6848,7,88,33,23,898,386.0,506,453,60,122.0,106,1,261,153,40,0,0,376,-3866,4104,363,45.70145,4.911919,37.98,194.4,0,0.0,0,0.0,5.9417,1,0.0,11.2255
673550,1560684838321,4,2.09,2.12,3.14,1.69,3.25,0.71,0.36,0.29,-11,-0,-12,0.8,6813,7,88,33,24,898,385.0,503,460,60,122.0,107,1,262,153,39,0,0,376,-6475,-6640,361,,,,,,,,,,,,
673570,1560684838341,0,2.08,2.12,3.13,1.68,3.22,0.75,0.36,0.22,-11,-0,-13,0.83,6751,7,88,33,23,897,384.0,500,452,60,123.0,107,1,261,156,39,0,0,376,-19019,28553,358,,,,,,,,,,,,
673590,1560684838361,3,2.1,2.12,3.13,1.65,3.22,0.84,0.47,0.15,-13,-3,-14,0.96,6739,7,88,33,23,896,381.0,498,458,60,121.0,107,1,261,156,39,0,0,368,-18948,8841,357,,,,,,,,,,,,
673610,1560684838381,-0,2.08,2.12,3.15,1.63,3.2,0.85,0.42,0.14,-13,-0,-15,0.94,6722,7,88,33,24,894,382.0,496,456,60,123.0,107,1,262,156,39,0,0,371,19125,-30438,355,,,,,,,,,,,,
673630,1560684838401,2,2.09,2.14,3.15,1.64,3.18,0.88,0.42,0.16,-15,-1,-17,0.97,6698,7,88,33,24,893,380.0,491,455,60,122.0,107,1,263,156,39,0,0,371,-992,-30438,354,45.701443,4.911926,36.87,194.4,0,0.0,0,0.0,5.9433,1,0.0,11.2272
673650,1560684838421,0,2.08,2.2,3.14,1.64,3.17,0.82,0.41,0.1,-14,0,-19,0.91,6670,7,88,33,24,892,379.0,491,460,60,122.0,110,1,263,155,39,0,0,366,8200,-14714,352,,,,,,,,,,,,
673670,1560684838441,2,2.09,2.25,3.14,1.64,3.19,0.83,0.49,0.16,-15,0,-21,0.96,6653,7,88,33,24,892,376.0,489,457,60,122.0,110,1,263,155,39,0,0,369,3,-31206,350,,,,,,,,,,,,
673690,1560684838461,-1,2.1,2.25,3.14,1.64,3.19,0.86,0.48,0.15,-15,-1,-21,0.99,6630,7,88,33,24,894,374.0,487,457,60,122.0,110,1,263,155,39,0,0,361,742,6668,347,,,,,,,,,,,,
673710,1560684838481,2,2.11,2.24,3.17,1.64,3.19,0.79,0.44,0.3,-15,-0,-22,0.9,6578,7,88,33,24,898,374.0,488,458,60,122.0,110,1,263,155,39,0,0,363,742,3327,346,,,,,,,,,,,,
673730,1560684838502,6,2.13,2.23,3.19,1.65,3.19,0.83,0.48,0.23,-15,-1,-22,0.95,6510,7,88,33,24,900,372.0,487,460,60,121.0,110,1,263,159,39,0,0,362,1,2560,345,45.701439,4.911934,36.01,194.4,0,0.0,0,0.0,5.945,1,0.0,11.2288
673750,1560684838522,1,2.14,2.21,3.19,1.63,3.16,0.85,0.45,0.16,-15,-0,-21,0.96,6483,7,88,33,25,902,369.0,484,455,60,121.0,109,1,266,159,38,0,0,356,486,-122,343,,,,,,,,,,,,
673770,1560684838542,3,2.17,2.18,3.18,1.64,3.12,0.92,0.4,0.34,-15,-3,-22,1.0,6452,7,88,33,25,908,368.0,481,457,60,123.0,109,1,266,159,38,0,0,355,0,-122,344,,,,,,,,,,,,
673790,1560684838562,7,2.2,2.15,3.18,1.63,3.08,0.9,0.38,0.33,-14,-5,-25,0.97,6434,7,88,33,25,912,363.0,473,461,60,121.0,109,1,266,159,38,0,0,352,3082,13,342,,,,,,,,,,,,
673810,1560684838582,-0,2.23,2.13,3.19,1.63,3.07,0.81,0.44,0.2,-12,-2,-25,0.92,6419,7,88,33,25,914,359.0,476,457,60,122.0,109,1,266,159,38,0,0,349,-29302,13,343,,,,,,,,,,,,
673830,1560684838601,-1,2.27,2.11,3.25,1.64,3.06,0.92,0.29,0.19,-12,-0,-25,0.97,6377,7,88,33,25,914,355.0,471,457,60,123.0,109,1,267,159,38,0,0,344,2060,13,341,45.701431,4.911943,35.2,194.4,0,0.0,0,0.0,5.9467,1,0.0,11.2305
673850,1560684838621,3,2.3,2.08,3.29,1.68,3.03,0.92,0.23,0.23,-11,-1,-23,0.95,6336,7,88,33,26,915,354.0,471,455,60,122.0,111,1,270,160,38,0,0,340,3302,13,341,,,,,,,,,,,,
673870,1560684838641,5,2.35,2.03,3.34,1.73,2.96,0.86,0.16,0.26,-8,-1,-22,0.87,6313,7,88,33,26,915,347.0,467,458,60,122.0,111,1,270,160,38,0,0,333,8841,-31222,343,,,,,,,,,,,,
673890,1560684838661,6,2.4,1.95,3.38,1.75,2.92,0.78,0.18,0.15,-5,2,-19,0.8,6252,7,88,33,26,912,345.0,466,463,60,121.0,111,1,271,160,38,0,0,331,6668,-14714,345,,,,,,,,,,,,
673910,1560684838681,15,2.45,1.88,3.41,1.78,2.87,0.78,0.08,0.15,-3,5,-16,0.78,6218,7,88,33,26,911,347.0,461,461,60,121.0,111,1,271,160,38,0,0,332,-31222,3327,347,,,,,,,,,,,,
673930,1560684838700,1,2.49,1.83,3.44,1.85,2.8,0.85,-0.04,0.17,-1,6,-12,0.85,6202,7,88,33,26,914,347.0,458,457,60,123.0,111,1,271,160,38,0,0,319,175,6668,348,45.701424,4.911952,34.24,194.4,0,0.0,0,0.0,5.9483,1,0.0,11.2322
673950,1560684838720,0,2.53,1.76,3.49,1.91,2.76,0.97,-0.17,0.25,-0,4,-8,0.98,6155,7,88,33,26,914,348.0,455,457,60,123.0,106,1,272,160,37,0,0,317,165,3327,348,,,,,,,,,,,,
673970,1560684838740,2,2.57,1.7,3.53,1.96,2.75,1.06,-0.25,0.38,2,2,-5,1.09,6109,7,88,33,27,916,349.0,452,456,60,123.0,106,1,275,161,37,0,0,313,150,-31222,349,,,,,,,,,,,,
673990,1560684838760,1,2.6,1.66,3.54,2.04,2.74,1.15,-0.3,0.5,5,-3,-2,1.18,6069,7,88,33,27,920,348.0,447,458,60,123.0,106,1,275,161,37,0,0,311,-28416,6668,348,,,,,,,,,,,,
674010,1560684838780,1,2.64,1.65,3.58,2.14,2.75,1.17,-0.31,0.59,9,-5,1,1.21,6003,7,88,33,27,925,349.0,443,455,60,123.0,106,1,275,161,37,0,0,304,-30976,6668,349,,,,,,,,,,,,
674030,1560684838800,1,2.67,1.65,3.63,2.21,2.76,1.15,-0.33,0.67,12,-9,4,1.2,5950,7,88,33,27,931,348.0,437,453,60,122.0,106,1,274,161,37,0,0,294,125,-122,348,45.70142,4.911961,33.21,194.4,0,0.0,0,0.0,5.95,1,0.0,11.2338
674050,1560684838820,0,2.73,1.65,3.64,2.28,2.76,1.22,-0.34,0.76,15,-13,6,1.26,5881,7,88,33,28,935,344.0,437,458,60,123.0,104,1,276,162,36,0,0,295,30720,-31206,344,,,,,,,,,,,,
674070,1560684838840,-1,2.78,1.65,3.65,2.3,2.77,1.3,-0.39,0.83,16,-18,9,1.35,5822,7,88,33,28,939,342.0,433,455,60,123.0,104,1,275,162,36,0,0,292,105,3346,342,,,,,,,,,,,,
674090,1560684838860,5,2.83,1.65,3.67,2.3,2.77,1.37,-0.49,0.8,15,-20,11,1.45,5749,7,88,33,29,942,339.0,428,457,60,122.0,104,1,276,163,36,0,0,286,100,3346,339,,,,,,,,,,,,
674110,1560684838880,3,2.87,1.63,3.69,2.3,2.77,1.43,-0.56,0.69,14,-17,14,1.54,5678,7,88,33,30,946,337.0,424,457,60,122.0,104,1,278,163,36,0,0,277,23040,-12032,338,,,,,,,,,,,,
674130,1560684838900,2,2.88,1.61,3.69,2.3,2.76,1.21,-0.67,0.61,17,-12,16,1.38,5649,7,88,33,30,945,336.0,421,465,60,121.0,104,1,277,163,36,0,0,263,0,170,336,45.701412,4.911968,32.54,194.4,0,0.0,0,0.0,5.9517,1,0.0,11.2355
674150,1560684838920,-2,2.91,1.59,3.7,2.29,2.75,1.06,-0.73,0.6,22,-12,18,1.29,5567,7,88,33,31,944,336.0,416,458,60,123.0,101,1,278,163,34,0,0,251,0,13,336,,,,,,,,,,,,
674170,1560684838940,4,2.9,1.58,3.7,2.29,2.74,1.16,-0.75,0.64,23,-14,22,1.38,5464,7,88,33,32,943,336.0,412,450,60,123.0,101,1,279,163,34,0,0,240,10686,-6528,336,,,,,,,,,,,,
674190,1560684838960,-0,2.9,1.58,3.7,2.29,2.75,0.97,-0.81,0.49,24,-9,25,1.26,5361,7,88,33,33,942,334.0,403,462,60,123.0,101,1,280,168,34,0,0,237,-1529,-6528,334,,,,,,,,,,,,
674210,1560684838980,5,2.89,1.6,3.7,2.28,2.74,1.03,-0.8,0.5,27,-11,29,1.31,5225,8,88,33,34,940,334.0,396,461,60,123.0,101,1,282,173,34,0,0,243,-1529,170,333,,,,,,,,,,,,
674230,1560684838994,0,2.89,1.59,3.71,2.28,2.74,0.86,-0.92,0.41,29,-7,30,1.25,5179,12,88,33,36,939,332.0,388,457,60,122.0,101,1,289,184,34,0,0,250,24064,-12032,332,45.701405,4.911975,31.59,194.3,0,0.0,0,0.0,5.9533,1,0.0,11.2372
674250,1560684839014,3,2.9,1.58,3.7,2.29,2.74,0.97,-0.88,0.41,30,-10,33,1.31,5152,17,88,33,39,939,330.0,379,456,60,122.0,111,1,301,203,37,0,0,231,24064,-23296,330,,,,,,,,,,,,
674270,1560684839034,1,2.9,1.57,3.71,2.29,2.73,0.81,-0.99,0.4,32,-8,34,1.27,5097,24,88,33,43,939,328.0,378,453,60,123.0,111,1,305,210,37,0,0,218,630,155,328,,,,,,,,,,,,
674290,1560684839054,-1,2.9,1.55,3.7,2.3,2.74,0.81,-1.06,0.34,33,-5,37,1.33,5067,31,88,33,48,938,328.0,373,455,60,121.0,111,1,308,221,37,0,0,202,250,155,329,,,,,,,,,,,,
674310,1560684839074,4,2.9,1.53,3.71,2.29,2.74,0.88,-1.09,0.34,35,-4,38,1.41,5013,35,88,33,54,938,328.0,368,452,60,123.0,111,1,299,238,37,0,0,200,2414,-25856,328,,,,,,,,,,,,
674330,1560684839102,1,2.9,1.54,3.7,2.3,2.74,0.78,-1.12,0.17,36,-2,40,1.36,5049,38,88,33,61,931,329.0,362,461,60,123.0,111,1,300,268,37,0,0,199,2414,160,329,45.701401,4.911981,30.67,194.3,0,0.0,0,0.0,5.955,1,0.0,11.2388
674350,1560684839122,2,2.91,1.53,3.71,2.3,2.73,0.84,-1.03,0.13,36,-5,45,1.33,5134,40,88,33,67,916,329.0,301,452,60,120.0,158,1,295,308,52,0,0,213,-1281,150,329,,,,,,,,,,,,
674370,1560684839142,-0,2.91,1.54,3.7,2.3,2.72,0.76,-1.06,0.12,38,-3,46,1.3,5230,41,88,33,72,897,325.0,263,452,60,123.0,158,1,299,337,52,0,0,242,-1,140,325,,,,,,,,,,,,
674390,1560684839162,1,2.91,1.55,3.7,2.29,2.7,0.89,-1.08,0.15,39,-4,50,1.4,5247,42,88,33,75,883,324.0,247,456,60,121.0,158,1,298,368,52,0,0,257,-1,140,324,,,,,,,,,,,,
674410,1560684839182,-2,2.9,1.55,3.7,2.29,2.68,0.82,-1.14,0.28,40,-4,50,1.4,5275,43,88,33,78,861,320.0,234,458,60,123.0,158,1,299,389,52,0,0,257,-1,135,320,,,,,,,,,,,,
674430,1560684839202,5,2.9,1.54,3.71,2.29,2.68,0.93,-1.14,0.38,40,-7,50,1.47,5398,44,88,33,79,845,319.0,243,458,60,121.0,158,1,307,419,52,0,0,259,-1,130,319,45.701393,4.911984,29.58,194.3,0,0.0,0,0.0,5.9567,1,0.0,11.2405
674450,1560684839222,1,2.9,1.53,3.71,2.3,2.67,0.9,-1.05,0.33,40,-5,51,1.38,5484,44,88,33,80,825,319.0,258,468,60,121.0,278,1,312,434,89,0,0,258,-1,-32256,319,,,,,,,,,,,,
674470,1560684839242,0,2.88,1.53,3.7,2.29,2.66,0.85,-1.13,0.35,42,-6,51,1.42,5645,44,88,34,80,813,319.0,250,460,60,123.0,278,1,322,441,89,0,0,259,-1,-32256,319,,,,,,,,,,,,
674490,1560684839262,0,2.89,1.53,3.71,2.28,2.66,0.95,-1.13,0.39,44,-7,53,1.48,5886,46,88,34,80,823,319.0,255,454,60,123.0,278,1,338,452,89,0,0,266,-1,-32256,319,,,,,,,,,,,,
674510,1560684839282,-0,2.87,1.53,3.71,2.28,2.63,1.06,-1.12,0.51,44,-10,55,1.54,6123,48,88,34,79,837,318.0,283,445,60,122.0,278,1,350,454,89,0,0,269,-1,115,318,,,,,,,,,,,,
674530,1560684839302,3,2.88,1.54,3.71,2.28,2.63,1.09,-1.12,0.64,46,-12,55,1.56,6454,52,88,34,80,864,318.0,283,458,60,122.0,278,1,362,465,89,0,0,278,-10440,30720,317,45.701386,4.911987,28.89,194.3,0,0.0,0,0.0,5.9583,1,0.0,11.2422
674550,1560684839322,1,2.87,1.56,3.7,2.28,2.63,0.97,-1.04,0.64,47,-10,53,1.42,6639,56,88,34,81,883,316.0,293,457,60,121.0,365,1,367,474,116,0,0,307,-10440,130,316,,,,,,,,,,,,
674570,1560684839342,3,2.87,1.61,3.71,2.29,2.62,0.94,-1.11,0.67,47,-12,53,1.46,6634,59,88,34,82,919,315.0,301,462,60,122.0,365,1,366,480,116,0,0,409,-10440,-25856,315,,,,,,,,,,,,
674590,1560684839362,1,2.86,1.67,3.71,2.31,2.61,0.91,-0.97,0.57,47,-12,55,1.33,6742,61,88,34,84,995,320.0,332,453,60,121.0,365,1,367,494,116,0,0,436,-10440,145,320,,,,,,,,,,,,
674610,1560684839382,2,2.86,1.7,3.7,2.3,2.61,0.9,-1.07,0.65,47,-11,56,1.39,6947,64,88,34,86,1035,321.0,354,458,60,122.0,365,1,373,509,116,0,0,424,14337,-28416,321,,,,,,,,,,,,
674630,1560684839402,3,2.85,1.69,3.68,2.3,2.56,0.78,-1.12,0.63,49,-10,56,1.36,7194,68,88,34,86,1077,319.0,383,452,60,122.0,365,1,389,522,116,0,0,399,-1,-25856,319,45.701378,4.911988,28.72,194.3,0,0.0,0,0.0,5.96,1,0.0,11.2438
674650,1560684839422,2,2.84,1.68,3.67,2.32,2.48,0.65,-1.13,0.73,50,-10,58,1.31,7413,71,88,34,88,1099,322.0,413,458,60,121.0,454,1,403,536,145,0,0,395,-1,-6528,322,,,,,,,,,,,,
674670,1560684839442,4,2.8,1.7,3.63,2.35,2.44,0.67,-1.07,0.8,50,-8,60,1.26,7449,75,88,34,89,1124,331.0,447,456,60,121.0,454,1,406,544,145,0,0,435,-1,-1268,331,,,,,,,,,,,,
674690,1560684839462,3,2.76,1.8,3.55,2.35,2.46,0.61,-0.99,0.87,50,-7,61,1.16,7548,79,88,34,90,1145,335.0,470,455,60,122.0,454,1,414,556,145,0,0,452,-1,257,338,,,,,,,,,,,,
674710,1560684839482,3,2.72,1.94,3.46,2.35,2.45,0.56,-0.9,0.89,51,-9,61,1.06,7653,82,88,34,91,1136,340.0,481,452,60,122.0,454,1,421,561,145,0,0,400,-1,6384,340,,,,,,,,,,,,
674730,1560684839502,3,2.67,2.04,3.38,2.37,2.43,0.49,-0.93,0.92,52,-8,65,1.05,7767,84,88,34,91,1128,346.0,497,457,60,122.0,454,1,430,565,145,0,0,370,-1281,13040,346,45.70137,4.911987,29.01,194.3,0,0.0,0,0.0,5.9617,1,0.0,11.2455
674750,1560684839522,5,2.61,2.13,3.36,2.43,2.39,0.37,-0.89,0.95,54,-6,68,0.97,7738,87,88,34,91,1100,348.0,512,453,60,122.0,476,1,428,564,165,0,0,439,250,-26615,348,,,,,,,,,,,,
674770,1560684839542,0,2.57,2.18,3.35,2.48,2.36,0.4,-0.93,1.02,55,-5,67,1.01,7851,90,88,34,92,1067,354.0,511,458,60,120.0,476,1,436,571,165,0,0,447,630,-3414,354,,,,,,,,,,,,
674790,1560684839562,3,2.52,2.23,3.35,2.5,2.36,0.47,-0.92,0.94,54,-9,66,1.03,8064,93,88,34,91,1053,357.0,519,453,60,122.0,476,1,448,583,165,0,0,409,250,21580,357,,,,,,,,,,,,
674810,1560684839582,1,2.47,2.25,3.35,2.5,2.39,0.42,-0.93,0.95,55,-6,68,1.02,8212,97,88,34,90,1035,358.0,528,456,60,122.0,476,1,445,599,165,0,0,421,-16896,15649,359,,,,,,,,,,,,
674830,1560684839602,5,2.43,2.25,3.35,2.5,2.42,0.4,-0.95,0.93,56,-2,69,1.03,8434,100,88,34,90,1008,361.0,529,461,60,122.0,476,1,438,626,165,0,0,474,0,3571,361,45.701363,4.911986,31.15,194.4,0,0.0,0,0.0,5.9633,1,0.0,11.2472
674850,1560684839622,4,2.39,2.23,3.34,2.49,2.42,0.5,-0.9,1.03,56,-8,68,1.03,8596,100,88,34,88,993,364.0,544,453,60,121.0,555,1,433,611,200,0,0,477,85,-8985,364,,,,,,,,,,,,
674870,1560684839642,4,2.34,2.22,3.33,2.51,2.42,0.44,-0.85,1.09,55,-8,68,0.95,8749,100,88,34,88,985,367.0,551,452,60,121.0,555,1,426,611,200,0,0,448,24320,8488,367,,,,,,,,,,,,
674890,1560684839662,1,2.29,2.2,3.3,2.5,2.43,0.4,-0.86,1.09,54,-6,69,0.95,8920,100,88,34,88,983,369.0,558,457,60,123.0,555,1,420,611,200,0,0,457,110,10305,369,,,,,,,,,,,,
674910,1560684839682,-2,2.24,2.2,3.25,2.5,2.43,0.36,-0.91,1.01,54,-5,70,0.98,8882,100,88,34,88,991,370.0,563,454,60,122.0,555,1,422,599,200,0,0,491,120,10305,370,,,,,,,,,,,,
674930,1560684839701,1,2.19,2.2,3.24,2.49,2.44,0.35,-0.87,0.89,52,-7,69,0.93,8971,100,88,34,87,1003,372.0,567,460,60,122.0,555,1,419,611,200,0,0,478,135,16648,372,45.701355,4.911983,33.53,194.3,0,0.0,0,0.0,5.965,1,0.0,11.2488
674950,1560684839721,1,2.14,2.2,3.25,2.49,2.43,0.25,-0.66,0.86,51,-4,68,0.71,9049,100,88,34,88,1012,372.0,576,452,60,121.0,553,1,418,611,206,0,0,469,-24576,16648,373,,,,,,,,,,,,
674970,1560684839741,3,2.08,2.22,3.24,2.48,2.42,0.31,-0.62,0.86,49,-5,65,0.69,9263,100,88,34,87,1024,374.0,580,453,60,122.0,553,1,418,599,206,0,0,498,165,-6441,374,,,,,,,,,,,,
674990,1560684839761,2,2.02,2.27,3.22,2.47,2.43,0.34,-0.63,0.84,47,-3,63,0.72,9314,100,88,34,87,1065,374.0,593,455,60,121.0,553,1,418,599,206,0,0,499,13,-22519,374,,,,,,,,,,,,
675010,1560684839781,6,1.96,2.29,3.17,2.47,2.43,0.51,-0.69,0.95,43,-6,60,0.86,9277,100,88,34,87,1102,374.0,603,450,60,120.0,553,1,418,599,206,0,0,474,8841,-21872,374,,,,,,,,,,,,
675030,1560684839801,15,1.9,2.3,3.13,2.43,2.48,0.6,-0.67,1.02,39,-8,56,0.9,9333,100,88,34,87,1122,374.0,602,453,60,120.0,553,1,418,599,206,0,0,505,3302,-14,374,45.701344,4.911979,35.07,194.3,0,0.0,0,0.0,5.9667,1,0.0,11.2505
675050,1560684839821,1,1.86,2.3,3.08,2.4,2.53,0.37,-0.42,0.85,36,-7,49,0.56,9393,100,88,34,87,1148,374.0,615,453,60,122.0,571,1,418,599,213,0,0,509,0,10994,374,,,,,,,,,,,,
675070,1560684839841,3,1.84,2.31,3.07,2.38,2.6,0.42,-0.25,0.8,31,-7,45,0.49,9365,100,88,34,87,1159,379.0,609,455,60,121.0,571,1,418,599,213,0,0,500,8200,-32248,372,,,,,,,,,,,,
675090,1560684839861,6,1.84,2.31,3.04,2.35,2.64,0.58,-0.43,0.92,25,-10,37,0.72,9527,100,88,34,87,1165,389.0,616,462,60,121.0,571,1,418,600,213,0,0,490,-6524,-4054,376,,,,,,,,,,,,
675110,1560684839881,2,1.86,2.31,3.0,2.35,2.66,0.36,-0.37,0.8,21,-6,30,0.52,9689,100,88,34,86,1158,402.0,619,461,60,121.0,571,1,410,593,213,0,0,508,10541,-9212,376,,,,,,,,,,,,
675130,1560684839901,1,1.87,2.31,3.01,2.36,2.7,0.51,-0.43,0.83,15,-6,23,0.67,9704,100,88,34,86,1139,408.0,621,455,60,121.0,571,1,409,593,213,0,0,547,10392,2524,378,45.70134,4.911974,37.13,194.3,0,0.0,0,0.0,5.9683,1,0.0,11.2522
675150,1560684839921,3,1.89,2.32,3.0,2.36,2.74,0.36,-0.4,0.86,10,-3,18,0.54,9837,100,89,34,86,1109,415.0,620,454,60,121.0,584,1,404,596,221,0,0,527,-3414,14504,382,,,,,,,,,,,,
675170,1560684839941,3,1.93,2.36,2.95,2.35,2.74,0.4,-0.36,0.92,5,-3,11,0.54,10080,100,89,34,85,1088,428.0,618,454,60,121.0,584,1,401,582,221,0,0,486,13180,6274,383,,,,,,,,,,,,
675190,1560684839961,4,1.98,2.44,2.88,2.35,2.7,0.35,-0.32,0.9,0,-2,5,0.47,10064,100,88,34,85,1071,436.0,623,457,60,121.0,584,1,397,582,221,0,0,512,5600,-28648,387,,,,,,,,,,,,
675210,1560684839981,3,2.02,2.49,2.84,2.36,2.61,0.3,-0.29,1.01,-4,-0,-1,0.42,10000,100,88,34,85,1062,444.0,625,456,60,121.0,584,1,395,582,221,0,0,587,21432,17136,392,,,,,,,,,,,,
675230,1560684839995,3,2.07,2.55,2.77,2.35,2.58,0.41,-0.42,1.03,-8,0,-7,0.59,10053,100,88,34,85,1056,449.0,620,456,60,120.0,584,1,399,582,221,0,0,523,15649,2088,394,45.701328,4.911968,38.62,194.3,0,0.0,0,0.0,5.97,1,0.0,11.2538
675250,1560684840015,6,2.13,2.62,2.77,2.35,2.59,0.33,-0.34,1.06,-11,0,-12,0.47,9989,100,88,34,85,1047,453.0,620,455,60,120.0,553,1,398,582,221,0,0,511,14488,-2934,402,,,,,,,,,,,,
675270,1560684840035,2,2.19,2.65,2.76,2.34,2.63,0.26,-0.26,1.11,-13,-1,-16,0.37,9936,100,88,34,85,1039,460.0,628,456,60,121.0,553,1,398,581,221,0,0,538,-23623,-2934,410,,,,,,,,,,,,
675290,1560684840055,1,2.25,2.64,2.79,2.34,2.62,0.39,-0.33,1.13,-15,-2,-19,0.51,10080,100,89,34,85,1037,463.0,630,455,60,121.0,553,1,401,582,221,0,0,567,6193,-3856,415,,,,,,,,,,,,
675310,1560684840075,5,2.27,2.6,2.86,2.32,2.63,0.3,-0.3,1.14,-15,-2,-20,0.43,10157,100,89,34,85,1032,465.0,620,456,60,120.0,553,1,405,582,221,0,0,572,30272,-28648,424,,,,,,,,,,,,
675330,1560684840102,3,2.3,2.58,2.89,2.32,2.63,0.16,-0.25,1.1,-16,0,-22,0.3,10245,100,89,34,85,1024,465.0,627,452,60,121.0,553,1,412,582,221,0,0,534,30272,1267,435,45.701321,4.911962,41.51,194.3,0,0.0,0,0.0,5.9717,1,0.0,11.2555
675350,1560684840122,5,2.33,2.6,2.88,2.33,2.65,0.22,-0.23,1.13,-17,-0,-21,0.32,10410,100,89,34,85,1016,467.0,620,456,60,121.0,521,1,424,582,227,0,0,532,-16384,-23623,440,,,,,,,,,,,,
675370,1560684840142,5,2.34,2.63,2.88,2.31,2.72,0.26,-0.18,1.09,-16,0,-22,0.32,10463,100,89,34,85,1010,470.0,619,458,60,121.0,521,1,431,582,227,0,0,555,8488,1780,444,,,,,,,,,,,,
675390,1560684840162,6,2.36,2.62,2.88,2.31,2.71,0.33,-0.2,1.14,-15,0,-22,0.38,10593,100,89,34,85,1007,474.0,625,453,60,121.0,521,1,433,582,227,0,0,578,-1923,2524,454,,,,,,,,,,,,
675410,1560684840182,7,2.36,2.61,2.88,2.31,2.67,0.37,-0.32,1.22,-14,1,-21,0.49,10695,100,89,34,85,1003,477.0,628,457,60,121.0,521,1,436,582,227,0,0,580,2212,-32248,461,,,,,,,,,,,,
675430,1560684840201,2,2.36,2.61,2.87,2.31,2.67,0.28,-0.27,1.25,-12,2,-19,0.39,10775,100,89,34,85,1002,480.0,632,455,60,120.0,521,1,436,582,227,0,0,567,8488,1760,473,45.701309,4.911955,44.45,194.4,0,0.0,0,0.0,5.9733,1,0.0,11.2572
675450,1560684840221,3,2.35,2.63,2.81,2.32,2.64,0.22,-0.27,1.32,-12,1,-17,0.35,10763,100,89,34,85,1003,484.0,625,455,60,120.0,500,1,437,582,237,0,0,551,-10483,8488,481,,,,,,,,,,,,
675470,1560684840241,4,2.35,2.64,2.79,2.31,2.66,0.19,-0.14,1.3,-10,-3,-14,0.23,10695,100,89,34,85,1002,488.0,632,450,60,121.0,500,1,436,582,237,0,0,581,248,-1894,487,,,,,,,,,,,,
675490,1560684840261,3,2.35,2.63,2.79,2.32,2.64,0.21,-0.05,1.26,-8,-2,-12,0.22,10751,100,89,34,85,998,494.0,630,459,60,121.0,500,1,437,582,237,0,0,599,998,2216,494,,,,,,,,,,,,
675510,1560684840281,5,2.34,2.63,2.81,2.33,2.63,0.31,-0.02,1.27,-6,-0,-11,0.31,10726,100,89,33,85,992,501.0,635,453,60,121.0,500,1,436,582,237,0,0,583,2524,-28648,501,,,,,,,,,,,,
675530,1560684840301,6,2.33,2.62,2.82,2.33,2.62,0.36,-0.02,1.34,-5,-3,-9,0.36,10769,100,89,33,85,987,510.0,632,454,60,121.0,500,1,437,582,237,0,0,569,2109,-1894,510,45.701302,4.911949,47.6,194.4,0,0.0,0,0.0,5.975,1,0.0,11.2588
675550,1560684840321,1,2.33,2.61,2.82,2.31,2.64,0.25,-0.11,1.37,-3,-1,-8,0.27,10794,100,89,33,85,978,517.0,623,454,60,120.0,461,1,438,582,237,0,0,563,-4054,-7939,517,,,,,,,,,,,,
675570,1560684840341,2,2.34,2.6,2.84,2.33,2.63,0.14,-0.15,1.29,-1,0,-6,0.21,10819,100,89,33,85,972,523.0,629,455,60,120.0,461,1,439,582,237,0,0,592,16383,259,523,,,,,,,,,,,,
675590,1560684840361,3,2.35,2.6,2.88,2.38,2.58,0.15,-0.09,1.3,0,-0,-5,0.18,10920,100,89,33,85,964,528.0,632,455,60,121.0,461,1,441,582,237,0,0,597,-8187,-32504,528,,,,,,,,,,,,
675610,1560684840381,5,2.34,2.58,2.98,2.42,2.54,0.21,-0.17,1.3,2,-1,-4,0.27,10913,100,89,33,85,961,534.0,621,457,60,121.0,461,1,441,582,237,0,0,607,-22519,774,534,,,,,,,,,,,,
675630,1560684840401,2,2.34,2.57,3.0,2.42,2.54,0.23,-0.16,1.33,3,-0,-2,0.28,11016,100,89,33,84,959,542.0,633,455,60,120.0,461,1,442,564,237,0,0,579,6274,-3210,542,45.701286,4.911942,50.66,194.4,0,0.0,0,0.0,5.9767,1,0.0,11.2605
675650,1560684840421,5,2.34,2.56,3.02,2.41,2.53,0.21,-0.18,1.29,4,-2,-1,0.28,11081,100,89,33,85,946,550.0,629,455,60,121.0,446,1,444,582,243,0,0,567,-32248,-16179,552,,,,,,,,,,,,
675670,1560684840441,6,2.33,2.54,3.0,2.43,2.5,0.21,-0.21,1.34,5,-5,0,0.3,11048,100,89,33,85,938,554.0,626,448,60,121.0,446,1,444,582,243,0,0,599,1780,243,554,,,,,,,,,,,,
675690,1560684840461,3,2.33,2.52,3.09,2.44,2.52,0.23,-0.37,1.4,6,-7,2,0.43,11094,100,89,33,85,931,560.0,635,453,60,120.0,446,1,444,582,243,0,0,637,-22519,19621,560,,,,,,,,,,,,
675710,1560684840481,3,2.32,2.47,3.13,2.46,2.5,0.26,-0.32,1.4,6,-3,1,0.41,11288,100,89,33,85,923,567.0,640,458,60,120.0,446,1,442,582,243,0,0,611,2104,3472,567,,,,,,,,,,,,
675730,1560684840501,3,2.32,2.45,3.12,2.47,2.52,0.27,-0.34,1.3,7,0,2,0.44,11439,100,89,33,84,912,572.0,636,458,60,120.0,446,1,441,564,243,0,0,579,-22359,1010,572,45.701275,4.911935,54.03,194.4,0,0.0,0,0.0,5.9783,1,0.0,11.2622
675750,1560684840521,2,2.31,2.46,3.12,2.47,2.51,0.27,-0.43,1.33,8,-1,4,0.5,11453,100,89,33,84,899,575.0,640,457,60,120.0,428,1,441,564,245,0,0,618,-23623,3395,575,,,,,,,,,,,,
675770,1560684840541,6,2.31,2.45,3.11,2.49,2.5,0.27,-0.4,1.34,9,-2,4,0.48,11531,100,89,33,84,898,581.0,638,456,60,120.0,428,1,440,564,245,0,0,638,1780,17336,581,,,,,,,,,,,,
675790,1560684840561,4,2.31,2.43,3.11,2.51,2.47,0.29,-0.39,1.35,9,-3,6,0.48,11631,100,89,33,84,895,584.0,641,456,60,120.0,428,1,440,566,245,0,0,622,1760,3403,584,,,,,,,,,,,,
675810,1560684840581,4,2.3,2.42,3.13,2.52,2.46,0.27,-0.33,1.29,9,-4,6,0.42,11740,100,89,33,83,887,588.0,635,458,60,120.0,428,1,440,552,245,0,0,626,-3210,30721,592,,,,,,,,,,,,
675830,1560684840601,2,2.31,2.43,3.13,2.51,2.47,0.29,-0.41,1.34,8,-6,7,0.5,11799,100,89,33,84,874,595.0,638,457,60,120.0,428,1,440,553,245,0,0,629,8488,771,592,45.70126,4.911928,56.71,194.4,0,0.0,0,0.0,5.98,1,0.0,11.2638
675850,1560684840621,4,2.3,2.44,3.13,2.5,2.48,0.34,-0.43,1.32,7,-6,6,0.55,11859,100,89,33,83,866,600.0,640,457,60,121.0,417,1,440,555,247,0,0,635,6273,24,600,,,,,,,,,,,,
675870,1560684840641,3,2.3,2.43,3.14,2.49,2.48,0.4,-0.49,1.35,6,-5,5,0.63,11935,100,89,33,83,860,604.0,635,457,60,121.0,417,1,440,558,247,0,0,643,-16179,11776,606,,,,,,,,,,,,
675890,1560684840661,3,2.3,2.42,3.16,2.48,2.48,0.41,-0.5,1.36,5,-3,5,0.65,12042,100,89,33,83,843,609.0,632,458,60,121.0,417,1,440,560,247,0,0,651,-768,479,611,,,,,,,,,,,,
675910,1560684840681,3,2.29,2.42,3.16,2.48,2.5,0.44,-0.52,1.3,5,-2,5,0.68,12135,100,89,33,83,832,615.0,638,453,60,120.0,417,1,440,560,247,0,0,645,17740,-3488,615,,,,,,,,,,,,
675930,1560684840702,4,2.3,2.42,3.14,2.47,2.53,0.48,-0.54,1.29,4,-2,5,0.72,12167,100,89,33,83,819,620.0,640,461,60,120.0,417,1,440,560,247,0,0,647,28675,-2345,620,45.701248,4.911919,59.44,194.4,0,0.0,0,0.0,5.9817,1,0.0,11.2655
675950,1560684840722,2,2.29,2.43,3.09,2.46,2.51,0.54,-0.58,1.31,4,-2,4,0.79,12270,100,89,33,83,813,623.0,640,456,60,120.0,417,1,440,560,259,0,0,652,269,-30207,625,,,,,,,,,,,,
675970,1560684840742,6,2.29,2.43,3.09,2.46,2.5,0.68,-0.56,1.22,3,-3,4,0.88,12287,100,89,33,83,805,628.0,643,458,60,120.0,417,1,440,560,259,0,0,666,3395,-2830,630,,,,,,,,,,,,
675990,1560684840762,6,2.29,2.42,3.11,2.47,2.47,0.73,-0.55,1.27,3,-6,5,0.91,12270,100,89,33,83,800,631.0,643,455,60,120.0,417,1,440,560,259,0,0,675,-16046,8958,631,,,,,,,,,,,,
676010,1560684840782,5,2.29,2.42,3.11,2.47,2.47,0.67,-0.59,1.34,2,-8,5,0.89,12359,100,89,33,83,796,640.0,646,459,60,121.0,417,1,440,560,259,0,0,656,3,-2830,640,,,,,,,,,,,,
676030,1560684840802,2,2.3,2.42,3.1,2.46,2.51,0.49,-0.47,1.34,3,-7,3,0.68,12417,100,89,33,83,796,641.0,648,455,60,121.0,417,1,440,560,259,0,0,653,6208,-10346,641,45.701233,4.911911,61.53,194.4,0,0.0,0,0.0,5.9833,1,0.0,11.2672
676050,1560684840822,7,2.29,2.42,3.1,2.44,2.57,0.36,-0.25,1.14,5,-5,4,0.44,12533,100,89,33,83,793,645.0,650,457,60,120.0,423,1,440,560,271,0,0,669,244,-3038,645,,,,,,,,,,,,
676070,1560684840842,3,2.29,2.42,3.12,2.42,2.6,0.42,-0.38,1.15,5,-4,4,0.57,12617,100,89,33,83,791,650.0,648,457,60,121.0,423,1,440,560,271,0,0,678,-8429,-26892,650,,,,,,,,,,,,
676090,1560684840862,7,2.28,2.43,3.12,2.42,2.61,0.46,-0.35,1.2,4,-4,4,0.58,12686,100,89,33,83,786,657.0,645,452,60,120.0,423,1,440,560,271,0,0,681,-6006,-26380,657,,,,,,,,,,,,
676110,1560684840882,1,2.3,2.42,3.12,2.42,2.61,0.41,-0.27,1.07,4,-4,5,0.49,12772,100,89,33,83,782,658.0,648,450,60,120.0,423,1,440,560,271,0,0,684,8958,-2345,658,,,,,,,,,,,,
676130,1560684840903,6,2.29,2.43,3.12,2.42,2.57,0.41,-0.34,1.16,4,-5,6,0.53,12851,100,89,33,83,778,663.0,649,450,60,120.0,423,1,440,560,271,0,0,686,31988,12333,663,45.701221,4.911901,63.93,194.4,0,0.0,0,0.0,5.985,1,0.0,11.2688
676150,1560684840923,1,2.29,2.42,3.11,2.42,2.58,0.36,-0.33,1.15,4,-5,6,0.49,12939,96,89,33,84,772,667.0,655,463,60,123.0,413,1,440,575,274,0,0,694,-10348,6208,666,,,,,,,,,,,,
676170,1560684840943,-1,2.3,2.41,3.12,2.41,2.58,0.47,-0.37,1.2,3,-5,5,0.6,12433,96,89,33,84,771,670.0,659,461,60,124.0,413,1,440,575,274,0,0,690,-388,-2830,671,,,,,,,,,,,,
676190,1560684840963,0,2.29,2.41,3.12,2.41,2.61,0.62,-0.36,1.05,2,-4,5,0.72,11867,95,89,33,85,772,672.0,653,457,60,123.0,413,1,440,1500,274,0,0,679,-388,-2345,673,,,,,,,,,,,,
676210,1560684840983,-1,2.31,2.4,3.16,2.39,2.7,0.72,-0.42,1.01,1,-3,3,0.83,11682,100,89,33,86,775,671.0,652,461,60,123.0,413,1,440,1510,274,0,0,662,-388,-3578,671,,,,,,,,,,,,
676230,1560684840996,1,2.3,2.35,3.22,2.34,2.78,0.8,-0.5,0.98,2,-3,3,0.94,11474,100,89,33,86,782,672.0,647,459,60,123.0,413,1,441,1491,274,0,0,670,-2830,-3038,672,45.701202,4.91189,66.15,194.4,0,0.0,0,0.0,5.9867,1,0.0,11.2705
676250,1560684841016,-1,2.3,2.27,3.31,2.31,2.79,0.68,-0.37,0.94,2,-5,5,0.77,11261,100,89,33,86,789,675.0,643,460,60,123.0,958,1,442,1471,644,0,0,661,3543,8958,675,,,,,,,,,,,,
676270,1560684841036,6,2.29,2.24,3.38,2.29,2.84,0.5,-0.34,1.04,4,-4,6,0.6,10926,100,89,33,87,796,674.0,630,440,60,119.0,958,1,444,2735,644,0,0,692,-3578,6208,675,,,,,,,,,,,,
676290,1560684841056,5,2.29,2.26,3.34,2.28,2.81,0.63,-0.24,1.02,4,2,8,0.67,10290,100,89,33,88,825,679.0,623,453,60,120.0,958,1,418,2506,644,0,0,785,-10344,-2766,679,,,,,,,,,,,,
676310,1560684841076,4,2.29,2.35,3.19,2.3,2.74,0.55,-0.28,1.11,4,-1,8,0.62,9973,100,89,33,87,969,684.0,620,450,60,120.0,958,1,398,2090,644,0,0,751,-26562,-2426,684,,,,,,,,,,,,
676330,1560684841100,6,2.28,2.39,3.11,2.33,2.61,0.44,-0.35,1.09,4,-2,7,0.57,10037,100,89,33,86,1054,688.0,617,453,60,120.0,958,1,398,1753,644,0,0,697,-26562,8010,688,45.701191,4.911879,66.96,194.4,0,0.0,0,0.0,5.9883,1,0.0,11.2722
676350,1560684841120,5,2.27,2.39,3.08,2.35,2.52,0.41,-0.21,1.04,4,3,7,0.46,9837,100,89,33,86,1164,687.0,631,450,60,120.0,921,1,404,1460,636,0,0,720,6208,-25858,690,,,,,,,,,,,,
676370,1560684841140,2,2.28,2.37,3.06,2.35,2.48,0.57,-0.27,1.13,4,1,9,0.63,9150,100,89,33,87,1268,691.0,618,452,60,120.0,921,1,418,1334,636,0,0,710,-2830,-13072,691,,,,,,,,,,,,
676390,1560684841160,2,2.26,2.36,3.08,2.32,2.55,0.67,-0.33,1.11,3,-1,9,0.75,8644,100,89,33,88,1373,695.0,603,454,60,120.0,921,1,429,1402,636,0,0,699,12333,14342,695,,,,,,,,,,,,
676410,1560684841180,7,2.26,2.32,3.17,2.27,2.7,0.65,-0.29,0.95,2,-5,6,0.72,8453,100,89,33,90,1433,692.0,589,454,60,121.0,921,1,438,1400,636,0,0,691,14342,14342,691,,,,,,,,,,,,
676430,1560684841202,3,2.26,2.28,3.29,2.19,2.86,0.67,-0.21,0.86,2,-4,5,0.7,8281,100,89,33,90,1414,692.0,575,454,60,120.0,921,1,443,1334,636,0,0,685,11576,24845,690,45.701176,4.911868,68.16,194.4,0,0.0,0,0.0,5.99,1,0.0,11.2738
676450,1560684841222,6,2.27,2.24,3.36,2.15,2.97,0.59,-0.12,0.68,3,-3,6,0.6,8180,100,89,33,91,1387,693.0,561,455,60,119.0,593,1,444,1297,410,0,0,675,11576,-388,691,,,,,,,,,,,,
676470,1560684841242,1,2.27,2.22,3.37,2.11,3.03,0.63,-0.11,0.74,2,-2,6,0.64,8256,100,89,33,91,1256,691.0,566,448,60,120.0,593,1,442,1307,410,0,0,667,1780,-3038,691,,,,,,,,,,,,
676490,1560684841262,3,2.27,2.2,3.37,2.07,3.06,0.7,-0.19,0.6,1,-1,4,0.73,8337,100,89,33,91,1177,692.0,566,451,60,120.0,593,1,440,1317,410,0,0,663,-2830,-2830,688,,,,,,,,,,,,
676510,1560684841282,4,2.27,2.18,3.37,2.05,3.05,0.76,-0.16,0.67,1,-4,5,0.77,8396,100,89,33,91,1098,688.0,575,453,60,120.0,593,1,438,1326,410,0,0,667,24,-2830,688,,,,,,,,,,,,
676530,1560684841302,2,2.28,2.18,3.34,2.05,3.03,0.77,-0.12,0.57,2,-1,5,0.78,8488,100,89,33,91,1018,686.0,585,453,60,121.0,593,1,436,1327,410,0,0,672,-10399,3543,683,45.70116,4.911856,68.91,194.4,0,0.0,0,0.0,5.9917,1,0.0,11.2755
676550,1560684841322,7,2.27,2.17,3.33,2.05,2.98,0.74,-0.15,0.53,2,-1,4,0.76,8549,100,89,33,91,953,683.0,583,447,60,120.0,622,1,434,1304,425,0,0,672,3543,-26380,679,,,,,,,,,,,,
676570,1560684841342,5,2.28,2.16,3.33,2.02,2.95,0.82,-0.07,0.52,2,-1,4,0.82,8636,100,89,33,90,888,680.0,600,452,60,120.0,622,1,432,1287,425,0,0,662,16118,-2826,679,,,,,,,,,,,,
676590,1560684841362,3,2.28,2.17,3.32,2.03,2.95,0.89,-0.08,0.53,2,-2,4,0.89,8741,100,89,33,90,882,675.0,602,453,60,120.0,622,1,428,1287,425,0,0,658,-2345,3543,674,,,,,,,,,,,,
676610,1560684841382,3,2.28,2.15,3.34,1.98,2.98,0.98,-0.11,0.55,2,-3,4,0.99,8823,100,89,33,90,896,675.0,601,455,60,120.0,622,1,425,1260,425,0,0,658,-2345,-10344,672,,,,,,,,,,,,
676630,1560684841402,4,2.28,2.14,3.37,1.95,2.99,0.96,-0.17,0.55,2,-3,4,0.98,8890,100,89,32,91,908,674.0,611,448,60,120.0,622,1,422,1243,425,0,0,650,-26380,-6006,670,45.701141,4.911844,67.66,194.4,0,0.0,0,0.0,5.9933,1,0.0,11.2772
676650,1560684841422,2,2.29,2.11,3.37,1.93,3.0,0.96,-0.26,0.51,2,-2,4,0.99,8937,100,89,32,90,922,675.0,605,455,60,120.0,620,1,421,1237,416,0,0,643,8958,4909,668,,,,,,,,,,,,
676670,1560684841442,3,2.28,2.08,3.39,1.91,2.99,0.91,-0.23,0.5,3,-1,4,0.94,8937,100,89,32,90,919,668.0,607,449,60,120.0,620,1,421,1210,416,0,0,650,8958,-2345,667,,,,,,,,,,,,
676690,1560684841462,7,2.29,2.06,3.38,1.93,2.99,0.88,-0.17,0.33,3,1,3,0.89,8911,100,89,32,90,916,671.0,603,451,60,120.0,620,1,422,1193,416,0,0,655,1549,-388,669,,,,,,,,,,,,
676710,1560684841482,7,2.29,2.06,3.31,1.93,3.0,0.82,-0.1,0.2,3,2,4,0.82,8894,100,89,32,90,913,666.0,600,450,60,120.0,620,1,422,1176,416,0,0,657,1549,31988,665,,,,,,,,,,,,
676730,1560684841502,6,2.29,2.06,3.25,1.93,2.97,0.77,-0.04,0.13,3,2,4,0.77,8886,100,89,32,91,908,664.0,606,451,60,120.0,620,1,423,1160,416,0,0,657,-2345,24583,664,45.70113,4.911833,66.62,194.4,0,0.0,0,0.0,5.995,1,0.0,11.2788
676750,1560684841522,6,2.29,2.07,3.23,1.94,2.91,0.77,-0.01,0.19,4,3,4,0.77,8890,100,89,32,90,907,663.0,608,453,60,120.0,583,1,422,1143,388,0,0,655,-2345,-6006,663,,,,,,,,,,,,
676770,1560684841542,6,2.29,2.04,3.27,1.92,2.88,0.79,0.06,0.27,4,1,4,0.79,8848,100,89,32,90,905,659.0,607,458,60,120.0,583,1,423,1127,388,0,0,651,-3038,4909,661,,,,,,,,,,,,
676790,1560684841562,4,2.3,2.02,3.34,1.93,2.88,0.78,0.12,0.31,3,1,3,0.79,8848,100,89,32,90,907,658.0,611,454,60,120.0,583,1,424,1110,388,0,0,649,31988,2024,658,,,,,,,,,,,,
676810,1560684841582,4,2.3,2.03,3.37,1.93,2.9,0.77,0.11,0.31,3,-0,3,0.78,8778,100,89,32,90,909,659.0,608,454,60,120.0,583,1,426,1093,388,0,0,646,-388,-2830,654,,,,,,,,,,,,
676830,1560684841602,1,2.3,2.02,3.37,1.93,2.95,0.75,0.08,0.31,3,0,3,0.76,8729,100,89,32,90,912,656.0,608,461,60,120.0,583,1,428,639,388,0,0,640,31988,-8429,654,45.701115,4.911821,65.64,194.4,0,0.0,0,0.0,5.9967,1,0.0,11.2805
676850,1560684841622,7,2.3,2.03,3.38,1.93,2.95,0.75,-0.0,0.3,4,1,2,0.75,8684,100,89,32,90,915,654.0,601,456,60,121.0,318,1,430,634,209,0,0,643,-3488,-2830,654,,,,,,,,,,,,
676870,1560684841642,7,2.3,2.02,3.39,1.93,2.92,0.71,-0.1,0.29,5,-1,3,0.71,8890,100,89,32,90,920,653.0,594,447,60,120.0,318,1,422,634,209,0,0,635,2024,24,653,,,,,,,,,,,,
676890,1560684841662,3,2.28,2.01,3.41,1.93,2.93,0.61,-0.05,0.3,4,0,4,0.61,9615,100,89,32,88,927,652.0,611,457,60,121.0,318,1,414,617,209,0,0,645,24583,-30207,652,,,,,,,,,,,,
676910,1560684841682,4,2.29,2.01,3.38,1.93,2.92,0.75,-0.03,0.3,4,0,3,0.75,10416,100,89,32,86,929,654.0,622,458,60,120.0,318,1,426,601,209,0,0,644,24583,-30207,654,,,,,,,,,,,,
676930,1560684841702,3,2.3,2.06,3.28,1.97,2.86,0.78,-0.07,0.4,3,-6,6,0.78,10794,100,89,32,85,932,655.0,629,462,60,121.0,318,1,438,582,209,0,0,671,31988,24,655,45.701103,4.91181,65.01,194.4,0,0.0,0,0.0,5.9983,1,0.0,11.2822
676950,1560684841722,5,2.29,2.18,3.16,2.12,2.73,0.64,-0.01,0.56,4,-1,8,0.64,10463,100,89,32,85,923,661.0,630,458,60,121.0,361,1,428,582,237,0,0,793,31988,-2826,661,,,,,,,,,,,,
676970,1560684841742,3,2.29,2.31,3.01,2.31,2.58,0.63,-0.01,0.7,4,2,7,0.63,10151,100,89,32,85,904,666.0,610,453,60,121.0,361,1,406,582,237,0,0,801,-10344,-2826,666,,,,,,,,,,,,
676990,1560684841762,0,2.3,2.39,2.88,2.41,2.46,0.72,-0.13,0.83,3,-0,7,0.73,10146,100,89,32,85,884,674.0,620,451,60,121.0,361,1,405,582,237,0,0,688,3543,8010,674,,,,,,,,,,,,
677010,1560684841782,3,2.29,2.39,2.83,2.41,2.45,0.6,-0.07,0.82,3,-0,8,0.6,9832,88,89,32,85,863,681.0,618,456,60,121.0,361,1,403,580,237,0,0,714,-26892,-3450,678,,,,,,,,,,,,
677030,1560684841801,5,2.29,2.35,2.88,2.38,2.49,0.74,-0.23,0.85,3,-1,6,0.78,9532,62,89,32,79,837,688.0,619,452,60,121.0,361,1,415,513,237,0,0,744,-10344,-30694,687,45.701084,4.911798,65.04,194.3,0,0.0,0,0.0,6.0,1,0.0,11.2838
677050,1560684841821,2,2.28,2.32,3.08,2.37,2.57,0.48,-0.11,0.7,5,3,6,0.49,9517,37,89,32,68,815,689.0,621,460,60,121.0,247,1,416,389,171,0,0,741,-10399,6658,689,,,,,,,,,,,,
677070,1560684841841,2,2.3,2.29,3.23,2.34,2.65,0.61,-0.17,0.82,5,0,5,0.63,9503,14,89,32,56,804,694.0,618,459,60,121.0,247,1,404,330,171,0,0,714,1780,-13072,694,,,,,,,,,,,,
677090,1560684841861,4,2.29,2.29,3.24,2.33,2.63,0.75,-0.35,0.88,4,0,3,0.83,9053,10,89,32,46,803,693.0,615,453,60,121.0,247,1,364,230,171,0,0,695,1780,-2830,692,,,,,,,,,,,,
677110,1560684841881,2,2.29,2.3,3.25,2.31,2.62,0.73,-0.44,0.85,3,-1,3,0.85,8773,10,89,32,40,802,692.0,600,461,60,122.0,247,1,326,217,171,0,0,690,1780,-2830,692,,,,,,,,,,,,
677130,1560684841901,-1,2.29,2.31,3.24,2.32,2.63,0.73,-0.47,0.8,3,1,4,0.87,8569,9,89,32,37,797,686.0,597,455,60,121.0,247,1,314,205,171,0,0,685,16599,-2830,686,45.701069,4.911786,67.96,194.3,0,0.0,0,0.0,6.0017,1,0.0,11.2855
677150,1560684841921,5,2.28,2.29,3.28,2.31,2.68,0.72,-0.43,0.77,3,-1,3,0.84,8355,9,89,32,34,792,688.0,582,461,60,122.0,93,1,302,190,64,0,0,690,24,24,685,,,,,,,,,,,,
677170,1560684841941,2,2.28,2.27,3.28,2.25,2.79,0.79,-0.32,0.82,3,-5,3,0.85,8270,11,89,32,32,788,687.0,578,455,60,121.0,93,1,294,179,64,0,0,669,24845,31988,687,,,,,,,,,,,,
677190,1560684841961,9,2.28,2.22,3.33,2.19,2.91,0.86,-0.41,0.74,2,-6,2,0.95,8281,12,89,32,32,788,682.0,573,458,60,122.0,93,1,295,179,64,0,0,659,16118,-26380,682,,,,,,,,,,,,
677210,1560684841981,7,2.28,2.12,3.47,2.12,3.0,0.92,-0.37,0.76,2,-9,1,0.99,8296,12,89,32,31,791,681.0,572,456,60,121.0,93,1,291,179,64,0,0,640,-10346,24583,680,,,,,,,,,,,,
677230,1560684841995,10,2.28,2.07,3.55,2.05,3.11,0.94,-0.38,0.61,2,-9,1,1.02,8374,12,89,32,30,797,680.0,580,461,60,122.0,93,1,289,181,64,0,0,631,-26892,506,681,45.701057,4.911774,68.75,194.3,0,0.0,0,0.0,6.0033,1,0.0,11.2872
677250,1560684842015,11,2.27,2.05,3.55,2.02,3.17,0.92,-0.41,0.66,2,-7,1,1.0,8419,12,89,32,29,804,678.0,577,460,60,121.0,85,1,286,183,58,0,0,621,-2345,20993,678,,,,,,,,,,,,
677270,1560684842035,10,2.27,2.06,3.55,2.0,3.19,0.94,-0.34,0.54,2,-7,1,1.0,8468,12,89,32,28,811,674.0,587,459,60,122.0,85,1,282,186,58,0,0,612,-3038,3403,674,,,,,,,,,,,,
677290,1560684842055,10,2.27,2.06,3.53,1.99,3.16,0.95,-0.31,0.39,2,-5,1,1.0,8415,11,89,32,27,825,671.0,587,461,60,122.0,85,1,278,182,58,0,0,637,-2830,17336,671,,,,,,,,,,,,
677310,1560684842075,11,2.27,2.05,3.49,2.0,3.11,0.97,-0.29,0.44,3,-6,1,1.01,8415,11,89,32,27,842,664.0,578,455,60,121.0,85,1,278,181,58,0,0,631,-2826,-4876,662,,,,,,,,,,,,
677330,1560684842101,14,2.26,2.02,3.48,1.97,3.05,0.97,-0.26,0.36,3,-3,2,1.0,8434,11,89,32,26,848,663.0,582,456,60,122.0,85,1,274,184,58,0,0,625,-10344,244,659,45.701042,4.911761,67.65,194.3,0,0.0,0,0.0,6.005,1,0.0,11.2888
677350,1560684842121,14,2.26,1.99,3.46,1.95,3.06,1.05,-0.31,0.38,2,-2,2,1.09,8457,10,89,32,26,855,658.0,582,458,60,121.0,89,1,274,185,59,0,0,619,-388,269,654,,,,,,,,,,,,
677370,1560684842141,12,2.27,1.96,3.43,1.9,3.06,1.07,-0.2,0.4,2,-3,3,1.09,8511,10,89,32,25,855,652.0,585,456,60,122.0,89,1,270,188,59,0,0,634,-30207,20993,653,,,,,,,,,,,,
677390,1560684842161,16,2.26,1.93,3.43,1.88,3.1,1.04,-0.26,0.35,2,-2,3,1.07,8514,10,89,32,25,854,651.0,591,457,60,122.0,89,1,270,188,59,0,0,625,479,269,650,,,,,,,,,,,,
677410,1560684842181,14,2.26,1.91,3.43,1.86,3.06,1.13,-0.31,0.4,2,-3,2,1.17,8457,10,89,31,25,846,647.0,592,456,60,121.0,89,1,270,185,59,0,0,618,4909,966,644,,,,,,,,,,,,
677430,1560684842201,10,2.28,1.89,3.42,1.86,3.03,1.07,-0.27,0.42,2,-1,2,1.1,8400,10,89,31,24,839,644.0,598,458,60,122.0,89,1,270,182,59,0,0,623,24,-16883,641,45.701027,4.911748,65.69,194.3,0,0.0,0,0.0,6.0067,1,0.0,11.2905
677450,1560684842221,15,2.27,1.9,3.39,1.87,3.03,1.05,-0.26,0.27,2,-2,2,1.09,8385,10,89,31,25,838,637.0,593,458,60,122.0,90,1,270,181,58,0,0,625,-2580,16529,635,,,,,,,,,,,,
677470,1560684842241,14,2.27,1.95,3.38,1.89,3.01,1.09,-0.19,0.26,2,-3,1,1.11,8363,10,89,31,24,836,627.0,593,458,60,122.0,90,1,270,174,58,0,0,617,20993,16529,627,,,,,,,,,,,,
677490,1560684842261,13,2.27,1.91,3.42,1.87,3.04,1.09,-0.2,0.25,2,-4,3,1.11,8351,10,89,31,24,841,627.0,590,459,60,122.0,90,1,270,179,58,0,0,602,20993,-3446,627,,,,,,,,,,,,
677510,1560684842281,12,2.26,1.89,3.45,1.85,3.05,1.17,-0.23,0.32,1,-6,4,1.2,8259,10,89,31,25,846,625.0,581,458,60,120.0,90,1,270,173,58,0,0,603,-16883,-23055,625,,,,,,,,,,,,
677530,1560684842301,15,2.25,1.9,3.45,1.86,3.03,1.12,-0.17,0.25,1,-5,5,1.13,8145,10,89,31,25,859,622.0,575,457,60,122.0,90,1,270,167,58,0,0,606,17336,-3446,618,45.701016,4.911736,63.4,194.2,0,0.0,0,0.0,6.0083,1,0.0,11.2922
677550,1560684842321,9,2.25,1.91,3.44,1.85,3.12,1.03,-0.15,0.34,2,-5,4,1.04,8071,10,89,31,25,871,617.0,567,460,60,121.0,83,1,270,165,52,0,0,600,3403,-1894,614,,,,,,,,,,,,
677570,1560684842341,13,2.25,1.9,3.47,1.84,3.18,1.06,-0.13,0.25,2,-6,2,1.07,8009,10,89,31,25,875,616.0,560,457,60,121.0,83,1,270,159,52,0,0,587,19304,10432,613,,,,,,,,,,,,
677590,1560684842361,14,2.23,1.9,3.43,1.83,3.1,1.04,-0.08,0.2,2,-4,3,1.04,7891,10,89,31,25,881,613.0,549,456,60,122.0,83,1,268,159,52,0,0,594,-28304,23619,610,,,,,,,,,,,,
677610,1560684842381,9,2.23,1.9,3.41,1.8,3.1,0.93,-0.07,0.24,2,-2,3,0.93,7921,10,89,31,25,891,610.0,544,461,60,121.0,83,1,268,156,52,0,0,583,-3446,30208,603,,,,,,,,,,,,
677630,1560684842401,11,2.23,1.91,3.41,1.76,3.11,0.97,-0.12,0.23,1,-4,1,0.98,7918,9,89,31,24,897,609.0,544,455,60,121.0,83,1,269,156,52,0,0,582,-3820,1,598,45.701,4.911725,61.71,194.2,0,0.0,0,0.0,6.01,1,0.0,11.2938
677650,1560684842421,14,2.24,1.92,3.42,1.73,3.1,1.05,-0.1,0.22,1,-4,-1,1.05,7851,9,89,31,24,901,603.0,546,458,60,122.0,76,1,268,156,46,0,0,578,-7939,243,594,,,,,,,,,,,,
677670,1560684842441,13,2.26,1.9,3.4,1.71,3.07,0.98,-0.03,0.22,1,-4,-0,0.98,7841,9,89,31,24,903,600.0,547,458,60,122.0,76,1,268,156,46,0,0,578,-3210,-8188,589,,,,,,,,,,,,
677690,1560684842461,15,2.25,1.9,3.4,1.71,3.05,0.96,-0.08,0.24,1,-3,-1,0.96,7776,9,89,31,24,907,597.0,547,455,60,122.0,76,1,267,156,46,0,0,569,-16179,259,588,,,,,,,,,,,,
677710,1560684842481,8,2.27,1.89,3.34,1.7,3.05,1.0,-0.1,0.19,0,-2,-1,1.0,7773,9,89,31,24,909,590.0,548,457,60,122.0,76,1,267,156,46,0,0,575,-32504,1780,584,,,,,,,,,,,,
677730,1560684842497,9,2.29,1.9,3.3,1.69,3.09,1.1,-0.07,0.18,-0,-3,-0,1.1,7763,9,89,31,24,911,587.0,550,458,60,121.0,76,1,267,156,46,0,0,569,-4035,12552,578,45.700985,4.911713,59.6,194.2,0,0.0,0,0.0,6.0117,1,0.0,11.2955
677750,1560684842517,12,2.3,1.89,3.31,1.69,3.11,1.19,-0.05,0.19,-1,-3,-0,1.19,7687,9,89,31,24,912,581.0,552,458,60,122.0,77,1,266,156,45,0,0,563,10432,2216,576,,,,,,,,,,,,
677770,1560684842537,10,2.3,1.88,3.32,1.71,3.05,1.27,-0.02,0.22,-1,-1,-1,1.27,7631,9,89,31,24,918,577.0,543,460,60,122.0,77,1,266,156,45,0,0,560,774,2211,577,,,,,,,,,,,,
677790,1560684842557,11,2.3,1.87,3.37,1.74,3.05,1.29,0.03,0.25,-0,-1,-2,1.29,7533,9,89,31,23,925,573.0,540,457,60,122.0,77,1,265,154,45,0,0,552,-3190,6273,573,,,,,,,,,,,,
677810,1560684842577,9,2.31,1.87,3.39,1.74,3.05,1.28,0.05,0.24,0,-2,-1,1.28,7485,9,89,31,23,931,571.0,536,460,60,122.0,77,1,264,154,45,0,0,547,-30159,2216,568,,,,,,,,,,,,
677830,1560684842601,10,2.29,1.86,3.39,1.74,3.06,1.3,0.11,0.19,0,-2,0,1.3,7425,9,89,31,23,937,568.0,530,457,60,122.0,77,1,264,156,45,0,0,544,-18032,14504,568,45.700974,4.911702,57.76,194.2,0,0.0,0,0.0,6.0133,1,0.0,11.2972
677850,1560684842621,10,2.29,1.86,3.4,1.74,3.06,1.33,0.1,0.19,1,-3,2,1.33,7413,9,89,31,23,943,564.0,522,461,60,121.0,76,1,264,154,43,0,0,541,2216,1779,564,,,,,,,,,,,,
677870,1560684842641,8,2.28,1.86,3.41,1.74,3.05,1.4,0.1,0.29,1,-4,1,1.4,7341,9,89,31,23,955,560.0,523,456,60,122.0,76,1,263,154,43,0,0,537,2524,-3082,560,,,,,,,,,,,,
677890,1560684842661,7,2.28,1.84,3.44,1.74,3.05,1.46,0.11,0.33,1,-5,0,1.46,7307,9,89,31,23,967,556.0,520,460,60,121.0,76,1,263,154,43,0,0,539,6274,-8186,556,,,,,,,,,,,,
677910,1560684842681,13,2.28,1.84,3.46,1.75,3.04,1.46,0.05,0.38,0,-6,-1,1.46,7256,8,89,31,23,972,552.0,516,455,60,122.0,76,1,262,154,43,0,0,530,2104,-8186,552,,,,,,,,,,,,
677930,1560684842700,12,2.28,1.84,3.44,1.74,3.03,1.35,-0.08,0.3,1,-6,-1,1.35,7200,8,89,31,23,980,549.0,519,454,60,123.0,76,1,262,154,43,0,0,529,2524,-2934,548,45.700962,4.911691,55.86,194.2,0,0.0,0,0.0,6.015,1,0.0,11.2988
677950,1560684842720,9,2.28,1.84,3.44,1.75,3.02,1.18,-0.1,0.2,2,-3,0,1.18,7217,8,89,31,23,995,544.0,516,456,60,123.0,76,1,262,154,42,0,0,529,1779,-32248,543,,,,,,,,,,,,
677970,1560684842740,6,2.27,1.84,3.43,1.75,3.03,1.17,-0.04,0.15,2,-1,2,1.17,7178,8,89,31,23,1004,540.0,519,458,60,122.0,76,1,261,154,42,0,0,524,-30064,-28648,540,,,,,,,,,,,,
677990,1560684842760,7,2.26,1.84,3.41,1.74,3.04,1.25,-0.01,0.27,1,-2,3,1.25,7145,8,89,31,23,1009,536.0,519,460,60,121.0,76,1,261,154,42,0,0,529,-28648,-8187,536,,,,,,,,,,,,
678010,1560684842780,10,2.26,1.84,3.39,1.74,3.04,1.29,-0.06,0.31,-0,-3,2,1.29,7107,8,89,31,23,1019,534.0,517,458,60,122.0,76,1,260,154,42,0,0,524,2104,10408,534,,,,,,,,,,,,
678030,1560684842800,7,2.26,1.85,3.36,1.75,3.04,1.18,-0.08,0.25,1,-1,2,1.18,7035,8,89,31,23,1031,533.0,510,456,60,122.0,76,1,260,154,42,0,0,520,-22519,15679,533,45.700951,4.911681,54.17,194.2,0,0.0,0,0.0,6.0167,1,0.0,11.3005
678050,1560684842820,4,2.26,1.85,3.34,1.75,3.04,1.17,-0.0,0.2,1,-2,1,1.17,7025,8,89,31,23,1039,529.0,512,464,60,121.0,77,1,260,154,41,0,0,518,-9072,-14,529,,,,,,,,,,,,
678070,1560684842840,8,2.26,1.84,3.35,1.73,3.05,1.26,-0.05,0.37,-4,-4,-17,1.26,7001,8,89,32,23,1045,526.0,511,456,60,121.0,77,1,260,154,41,0,0,516,2088,17136,525,,,,,,,,,,,,
678090,1560684842860,4,2.26,1.85,3.35,1.74,3.04,1.13,-0.05,0.3,-3,-2,-16,1.14,6954,8,89,32,23,1051,524.0,508,458,60,123.0,77,1,260,153,41,0,0,519,2088,1248,525,,,,,,,,,,,,
678110,1560684842880,2,2.27,1.84,3.35,1.76,3.05,1.11,0.02,0.28,-2,-2,-14,1.11,6952,8,89,32,23,1057,521.0,504,459,60,122.0,77,1,260,153,41,0,0,513,-9212,-3482,521,,,,,,,,,,,,
678130,1560684842900,5,2.26,1.85,3.34,1.77,3.03,1.17,-0.04,0.41,-2,-3,-14,1.17,6936,8,89,32,23,1061,521.0,500,455,60,123.0,77,1,260,153,41,0,0,508,-8187,-3482,520,45.700943,4.911671,52.71,194.2,0,0.0,0,0.0,6.0183,1,0.0,11.3022
678150,1560684842920,1,2.27,1.84,3.33,1.78,3.04,0.98,0.05,0.28,-1,0,-11,0.98,6895,8,89,32,23,1060,521.0,500,456,60,123.0,76,1,261,153,40,0,0,508,1341,-3414,519,,,,,,,,,,,,
678170,1560684842940,3,2.27,1.85,3.31,1.78,3.03,1.07,0.07,0.36,-1,-2,-8,1.07,6895,7,89,32,24,1059,516.0,496,457,60,122.0,76,1,261,156,40,0,0,512,-14,-4054,516,,,,,,,,,,,,
678190,1560684842960,0,2.26,1.87,3.28,1.8,3.0,1.03,0.03,0.29,-1,-1,-5,1.03,6893,7,89,32,24,1048,516.0,499,456,60,123.0,76,1,261,153,40,0,0,510,-14,-21872,515,,,,,,,,,,,,
678210,1560684842980,0,2.24,1.87,3.31,1.79,3.02,1.02,0.11,0.27,-0,1,-5,1.02,6863,7,89,32,23,1041,515.0,497,461,60,121.0,76,1,261,153,40,0,0,506,17136,15661,515,,,,,,,,,,,,
678230,1560684842994,3,2.23,1.87,3.32,1.78,3.01,0.99,0.12,0.35,-2,1,-6,1.0,6848,7,89,32,24,1033,513.0,502,457,60,123.0,76,1,261,156,40,0,0,505,17136,-28648,512,45.700928,4.911661,51.57,194.1,0,0.0,0,0.0,6.02,1,0.0,11.3038
678250,1560684843014,-1,2.2,1.89,3.31,1.77,2.99,1.04,0.04,0.42,-1,0,-7,1.04,6860,7,89,32,23,1015,512.0,503,455,60,122.0,78,1,261,156,40,0,0,506,26178,10994,510,,,,,,,,,,,,
678270,1560684843034,4,2.19,1.94,3.27,1.74,3.0,0.95,0.07,0.38,-3,-1,-8,0.95,6823,7,89,32,24,974,513.0,503,461,60,122.0,78,1,261,156,40,0,0,503,-14,10408,504,,,,,,,,,,,,
678290,1560684843054,-1,2.18,2.03,3.27,1.73,3.01,1.06,-0.02,0.38,-3,-1,-7,1.06,6823,7,89,32,24,933,514.0,505,457,60,123.0,78,1,261,156,40,0,0,507,-3482,998,501,,,,,,,,,,,,
678310,1560684843074,2,2.16,2.11,3.25,1.74,3.05,1.01,0.07,0.31,-6,-2,-7,1.01,6798,7,89,32,24,907,516.0,499,458,60,122.0,78,1,262,156,40,0,0,504,-3482,-32768,499,,,,,,,,,,,,
678330,1560684843100,-1,2.16,2.2,3.19,1.74,3.1,1.05,0.03,0.27,-6,-0,-7,1.05,6751,7,89,32,24,868,515.0,499,456,60,123.0,78,1,262,153,40,0,0,504,26178,1,495,45.70092,4.911651,50.62,194.2,0,0.0,0,0.0,6.0217,1,0.0,11.3055
678350,1560684843120,3,2.15,2.27,3.15,1.74,3.18,1.03,0.23,0.25,-8,-1,-7,1.06,6708,7,89,32,24,846,512.0,497,460,60,121.0,78,1,262,156,39,0,0,505,17136,505,492,,,,,,,,,,,,
678370,1560684843140,-1,2.13,2.31,3.13,1.77,3.21,0.95,0.22,0.3,-8,-2,-8,0.98,6701,7,89,32,24,827,510.0,496,462,60,123.0,78,1,262,156,39,0,0,500,-4054,-6441,491,,,,,,,,,,,,
678390,1560684843160,2,2.13,2.32,3.12,1.78,3.28,0.92,0.39,0.25,-10,-3,-10,1.0,6684,7,89,32,24,835,506.0,491,456,60,122.0,78,1,263,155,39,0,0,499,-28648,8488,487,,,,,,,,,,,,
678410,1560684843180,1,2.12,2.32,3.12,1.78,3.37,0.91,0.39,0.26,-10,-3,-10,0.99,6663,7,89,32,24,852,507.0,491,456,60,122.0,78,1,263,155,39,0,0,498,-21872,16648,487,,,,,,,,,,,,
678430,1560684843200,3,2.12,2.3,3.12,1.75,3.4,0.93,0.33,0.33,-11,-4,-11,0.99,6623,7,89,32,24,871,507.0,487,462,60,122.0,78,1,263,155,39,0,0,501,-21872,8488,486,45.700905,4.911641,50.02,194.1,0,0.0,0,0.0,6.0233,1,0.0,11.3072
678450,1560684843220,5,2.12,2.3,3.12,1.72,3.41,0.86,0.49,0.24,-12,-3,-12,0.99,6558,7,89,32,24,890,507.0,486,458,60,121.0,78,1,263,155,38,0,0,499,-21872,16408,486,,,,,,,,,,,,
678470,1560684843240,-1,2.13,2.26,3.12,1.7,3.41,0.89,0.45,0.22,-12,-1,-12,1.0,6496,7,89,32,24,896,510.0,480,453,60,122.0,78,1,264,155,38,0,0,501,-4054,14488,486,,,,,,,,,,,,
678490,1560684843260,3,2.14,2.26,3.11,1.69,3.41,0.95,0.47,0.25,-14,-1,-11,1.06,6445,7,89,32,25,903,511.0,473,456,60,123.0,78,1,266,155,38,0,0,503,-4054,16648,486,,,,,,,,,,,,
678510,1560684843280,5,2.15,2.24,3.1,1.68,3.39,0.83,0.6,0.25,-14,0,-11,1.03,6381,7,89,32,25,908,512.0,470,462,60,121.0,78,1,267,159,38,0,0,499,-3856,8488,484,,,,,,,,,,,,
678530,1560684843302,-0,2.16,2.24,3.08,1.69,3.28,0.85,0.56,0.22,-14,4,-12,1.02,6379,7,89,32,25,914,510.0,467,456,60,123.0,78,1,267,159,38,0,0,498,-3414,10432,482,45.700897,4.911632,49.17,194.1,0,0.0,0,0.0,6.025,1,0.0,11.3088
678550,1560684843322,0,2.16,2.23,3.0,1.69,3.18,0.97,0.52,0.3,-16,5,-14,1.1,6449,7,89,32,25,914,503.0,472,451,60,122.0,78,1,266,159,38,0,0,494,11560,-16384,481,,,,,,,,,,,,
678570,1560684843342,4,2.18,2.22,2.98,1.69,3.14,1.01,0.55,0.28,-16,5,-16,1.15,6542,11,89,32,26,913,498.0,475,451,60,122.0,78,1,268,159,38,0,0,491,2524,-3210,480,,,,,,,,,,,,
678590,1560684843362,0,2.19,2.18,2.98,1.67,3.13,0.93,0.52,0.29,-13,6,-15,1.06,6627,16,89,32,27,913,497.0,483,457,60,123.0,78,1,271,161,38,0,0,489,-9216,10432,478,,,,,,,,,,,,
678610,1560684843382,3,2.19,2.16,2.98,1.68,3.1,0.98,0.44,0.42,-14,5,-15,1.08,6627,20,89,32,30,915,494.0,490,457,60,122.0,78,1,282,166,38,0,0,489,998,2212,478,,,,,,,,,,,,
678630,1560684843402,-1,2.23,2.13,3.01,1.67,3.09,0.96,0.49,0.44,-12,5,-14,1.08,6599,23,89,32,33,918,493.0,489,455,60,122.0,78,1,292,174,38,0,0,485,-6528,8488,480,45.700886,4.911624,47.87,194.1,0,0.0,0,0.0,6.0267,1,0.0,11.3105
678650,1560684843422,1,2.24,2.12,3.04,1.71,3.05,0.96,0.4,0.51,-12,3,-13,1.04,6620,24,89,32,36,921,491.0,485,454,60,123.0,89,1,301,185,43,0,0,489,248,2212,481,,,,,,,,,,,,
678670,1560684843442,4,2.26,2.12,3.05,1.77,3.04,0.88,0.43,0.56,-12,1,-13,0.98,6625,25,89,32,39,920,489.0,486,461,60,122.0,89,1,310,202,43,0,0,488,-6656,-9203,477,,,,,,,,,,,,
678690,1560684843462,-2,2.29,2.11,3.09,1.78,3.04,0.84,0.32,0.5,-9,3,-13,0.9,6616,26,89,32,41,914,485.0,486,451,60,123.0,89,1,324,211,43,0,0,482,-6441,2212,481,,,,,,,,,,,,
