"Interval"|"ms"|0|0|1,"Utc"|"ms"|0|0|1,"FB_p"|"bar"|0|300|50,"Volant"|"F"|0.0|300.0|50,"xFR"|"mm"|0.0|5.0|50,"xRR"|"mm"|0.0|5.0|50,"xFL"|"mm"|0.0|5.0|50,"xRL"|"mm"|0.0|5.0|50,"AccelX"|"G"|-3.0|3.0|50,"AccelY"|"G"|-3.0|3.0|50,"AccelZ"|"G"|-3.0|3.0|50,"Yaw"|"Deg/Sec"|-120|120|50,"Pitch"|"Deg/Sec"|-120|120|50,"Roll"|"Deg/Sec"|-120|120|50,"Gsum"|"G"|0.0|3.0|50,"RPM"|""|0|14000|50,"TPS"|"%"|0|100|50,"WaterTemp"|"?C"|0|300|50,"AirTemp"|"?C"|-1000|1000|50,"MAP"|"KPa"|0|255|50,"Lambda"|""|0|1024|50,"WheelSpeed"|"MPH"|0.0|150.0|50,"OilPress"|"PSI"|0|150|50,"FuelPress"|"PSI"|0|150|50,"OilTemp"|"F"|0|300|50,"Battery"|"Volts"|0.0|20.0|50,"FuelCon"|"L/h"|-1000|1000|50,"Gear"|""|0|10|50,"Advance"|"Deg"|-360|360|50,"Injection"|"ms"|-1000|1000|50,"FuelCon"|"L/100km"|-1000|1000|50,"LC_But_Pres"|""|-1000|1000|50,"LC_Active"|""|-1000|1000|50,"RD_Speed"|""|-1000|1000|50,"RUD_Speed"|""|-1000|1000|50,"LD_Speed"|""|-1000|1000|50,"LUD_Speed"|""|-1000|1000|50,"Latitude"|"Degrees"|-180.0|180.0|10,"Longitude"|"Degrees"|-180.0|180.0|10,"Speed"|"kph"|0.0|150.0|10,"Altitude"|"m"|0.0|4000.0|10,"LapCount"|""|0|0|10,"LapTime"|"Min"|0.0|0.0|10,"Sector"|""|0|0|10,"SectorTime"|"Min"|0.0|0.0|10,"ElapsedTime"|"Min"|0.0|0.0|10,"CurrentLap"|""|0|0|10,"Distance"|"km"|0.0|0.0|10,"SessionTime"|"Min"|0.0|0.0|10
63003,1560694226246,5,2.23,2.24,3.25,2.0,5.08,0.88,0.13,0.6,0,1,-5,0.89,7030,20,65,33,38,861,0.0,630,459,60,121.0,0,1,307,211,56,0,0,0,250,250,0,,,,,,,,,,,,
63023,1560694226266,2,2.23,2.24,3.25,1.99,5.06,0.76,0.08,0.59,1,1,-5,0.77,7051,20,65,33,38,863,0.0,627,461,60,120.0,0,1,307,211,56,0,0,0,250,250,0,,,,,,,,,,,,
63043,1560694226286,-0,2.23,2.24,3.26,1.99,5.07,0.7,0.17,0.49,1,-0,-5,0.72,7014,19,65,33,38,863,0.0,628,463,60,119.0,0,1,307,211,56,0,0,0,250,250,0,45.700253,4.90941,0.0,189.3,0,0.0,-1,0.0,0.0,0,0.0,1.0507
63063,1560694226306,5,2.23,2.24,3.24,2.0,5.05,0.83,0.09,0.63,-0,-3,-6,0.84,7019,20,65,33,38,865,0.0,627,458,60,120.0,0,1,307,211,56,0,0,0,250,250,0,,,,,,,,,,,,
63083,1560694226326,3,2.22,2.24,3.25,2.0,5.04,0.73,-0.01,0.56,1,-1,-4,0.73,7048,20,65,33,38,866,0.0,626,461,60,121.0,0,1,307,211,56,0,0,0,250,250,0,,,,,,,,,,,,
63103,1560694226346,-1,2.24,2.25,3.25,2.01,5.04,0.7,0.09,0.42,1,1,-2,0.7,7009,19,65,33,38,867,0.0,625,461,60,119.0,0,1,307,211,56,0,0,0,250,250,0,,,,,,,,,,,,
63123,1560694226366,4,2.24,2.24,3.26,2.0,5.04,0.83,0.09,0.58,-0,0,-3,0.84,6991,20,65,33,38,869,0.0,626,461,60,120.0,0,1,307,211,56,0,0,0,250,250,0,,,,,,,,,,,,
63143,1560694226386,2,2.23,2.24,3.25,1.99,5.07,0.8,-0.01,0.64,1,-1,-3,0.8,7019,20,65,33,38,869,0.0,630,458,60,120.0,0,1,307,211,56,0,0,0,250,250,0,45.700253,4.90941,0.0,189.3,0,0.0,-1,0.0,0.0,0,0.0,1.0524
63163,1560694226406,0,2.24,2.24,3.26,2.0,5.08,0.66,0.1,0.49,1,-0,-4,0.67,7011,20,65,33,38,870,0.0,628,462,60,119.0,0,1,307,211,56,0,0,0,250,250,0,,,,,,,,,,,,
63183,1560694226426,-0,2.23,2.24,3.25,2.0,5.09,0.79,0.07,0.6,-1,-4,-4,0.8,7009,20,65,33,38,870,0.0,622,459,60,120.0,0,1,307,211,56,0,0,0,250,250,0,,,,,,,,,,,,
63203,1560694226446,4,2.24,2.24,3.25,2.0,5.05,0.75,-0.06,0.57,-0,-2,-3,0.75,7035,20,65,33,38,870,0.0,628,464,60,120.0,0,1,307,211,56,0,0,0,250,250,0,,,,,,,,,,,,
63223,1560694226466,1,2.23,2.24,3.26,2.0,5.04,0.67,0.01,0.44,0,0,-2,0.67,7009,20,65,33,38,870,0.0,627,461,60,120.0,0,1,307,211,56,0,0,0,250,250,0,,,,,,,,,,,,
63243,1560694226486,-1,2.24,2.24,3.24,2.0,5.04,0.77,0.05,0.54,-1,-1,-3,0.78,7019,20,65,33,38,869,0.0,627,465,60,120.0,0,1,307,211,56,0,0,0,250,250,0,45.700253,4.90941,0.0,189.3,0,0.0,-1,0.0,0.0,0,0.0,1.054
63263,1560694226506,2,2.23,2.24,3.25,2.0,5.04,0.84,-0.09,0.65,-1,-2,-3,0.84,7033,20,65,33,38,868,0.0,623,459,60,120.0,0,1,307,211,56,0,0,0,250,250,0,,,,,,,,,,,,
63283,1560694226526,1,2.23,2.24,3.25,1.99,5.05,0.65,-0.03,0.48,1,-0,-2,0.65,6998,20,65,33,38,865,0.0,633,466,60,120.0,0,1,307,211,56,0,0,0,250,250,0,,,,,,,,,,,,
63303,1560694226546,-0,2.23,2.24,3.25,2.0,5.04,0.78,0.02,0.5,-1,-2,-1,0.78,7001,20,65,33,38,864,0.0,626,456,60,120.0,0,1,307,211,56,0,0,0,250,250,0,,,,,,,,,,,,
63323,1560694226566,4,2.24,2.24,3.26,2.0,5.04,0.8,-0.1,0.56,-0,-1,-1,0.81,7019,20,65,33,38,862,0.0,620,461,60,120.0,0,1,307,211,56,0,0,0,250,250,0,,,,,,,,,,,,
63343,1560694226586,-1,2.23,2.24,3.26,1.99,5.06,0.7,-0.03,0.47,1,2,-0,0.7,6985,20,65,33,38,861,0.0,630,461,60,120.0,0,1,307,211,56,0,0,0,250,250,0,45.700253,4.90941,0.0,189.3,0,0.0,-1,0.0,0.0,0,0.0,1.0557
63363,1560694226606,-1,2.24,2.24,3.24,2.0,5.04,0.77,0.04,0.55,1,1,-1,0.78,6985,20,65,33,38,861,0.0,629,463,60,120.0,0,1,307,211,56,0,0,0,250,250,0,,,,,,,,,,,,
63383,1560694226626,4,2.23,2.24,3.25,1.99,5.04,0.85,-0.09,0.67,1,-0,-3,0.85,7004,20,65,33,38,862,0.0,621,460,60,121.0,0,1,307,211,56,0,0,0,250,250,0,,,,,,,,,,,,
63403,1560694226646,-1,2.24,2.24,3.26,1.99,5.06,0.65,-0.02,0.49,2,1,-2,0.66,6954,20,65,33,38,862,0.0,628,461,60,120.0,0,1,307,211,56,0,0,0,250,250,0,,,,,,,,,,,,
63423,1560694226666,-1,2.24,2.24,3.25,2.0,5.05,0.79,0.01,0.58,0,-1,-2,0.79,6957,20,65,33,38,865,0.0,625,462,60,120.0,0,1,307,211,55,0,0,0,250,250,0,,,,,,,,,,,,
63443,1560694226686,3,2.23,2.24,3.25,1.99,5.05,0.75,-0.12,0.53,1,-0,-1,0.76,6972,20,65,33,38,867,0.0,625,458,60,121.0,0,1,307,211,55,0,0,0,250,250,0,45.700253,4.90941,0.0,189.3,0,0.0,-1,0.0,0.0,0,0.0,1.0574
63463,1560694226705,1,2.23,2.24,3.25,2.0,5.04,0.7,-0.01,0.41,2,2,1,0.7,6957,20,65,33,38,869,0.0,627,460,60,119.0,0,1,307,211,55,0,0,0,250,250,0,,,,,,,,,,,,
63483,1560694226725,4,2.23,2.23,3.25,1.99,5.07,0.79,0.01,0.57,1,2,1,0.79,6957,20,65,33,38,871,0.0,623,461,60,120.0,0,1,307,211,55,0,0,0,250,250,0,,,,,,,,,,,,
63503,1560694226745,1,2.23,2.24,3.25,2.0,5.07,0.77,-0.08,0.62,1,0,-0,0.78,6988,20,65,33,38,871,0.0,621,458,60,121.0,0,1,307,211,55,0,0,0,250,250,0,,,,,,,,,,,,
63523,1560694226765,-1,2.23,2.24,3.25,2.0,5.08,0.68,0.06,0.51,2,0,-2,0.68,6952,20,65,33,38,871,0.0,623,463,60,119.0,0,1,307,211,55,0,0,0,250,250,0,,,,,,,,,,,,
63543,1560694226785,4,2.23,2.24,3.25,2.0,5.04,0.81,0.01,0.64,-0,-2,-3,0.81,6965,20,65,33,38,871,0.0,627,461,60,120.0,0,1,307,211,55,0,0,0,250,250,0,45.700253,4.90941,0.0,189.3,0,0.0,-1,0.0,0.0,0,0.0,1.059
63563,1560694226805,-1,2.24,2.24,3.25,2.0,5.08,0.7,-0.05,0.54,1,-1,-2,0.7,6985,20,65,33,38,870,0.0,626,463,60,119.0,0,1,307,211,55,0,0,0,250,250,0,,,,,,,,,,,,
63583,1560694226825,0,2.23,2.24,3.25,1.99,5.05,0.73,0.08,0.45,1,0,0,0.74,6998,20,65,33,38,870,0.0,621,460,60,119.0,0,1,307,211,55,0,0,0,250,250,0,,,,,,,,,,,,
63603,1560694226845,5,2.23,2.24,3.25,2.0,5.04,0.83,0.03,0.6,-0,-0,0,0.83,6952,20,65,33,38,870,0.0,630,461,60,120.0,0,1,307,211,55,0,0,0,250,250,0,,,,,,,,,,,,
63623,1560694226865,-1,2.24,2.24,3.25,1.99,5.04,0.71,0.03,0.57,1,0,1,0.72,6993,20,65,33,38,870,0.0,625,458,60,120.0,0,1,307,211,55,0,0,0,250,250,0,,,,,,,,,,,,
63643,1560694226885,-2,2.24,2.24,3.24,1.99,5.05,0.73,0.14,0.57,1,-1,-1,0.74,6980,20,65,33,38,871,0.0,622,461,60,120.0,0,1,307,211,55,0,0,0,250,250,0,45.700253,4.90941,0.0,189.3,0,0.0,-1,0.0,0.0,0,0.0,1.0607
63663,1560694226905,1,2.24,2.24,3.25,1.99,5.07,0.83,0.04,0.68,-0,-2,-2,0.83,6967,20,65,33,38,872,0.0,627,456,60,121.0,0,1,307,211,55,0,0,0,250,250,0,,,,,,,,,,,,
63683,1560694226925,1,2.23,2.24,3.25,1.99,5.07,0.69,0.04,0.52,1,-1,-1,0.69,6988,20,65,33,38,873,0.0,625,462,60,120.0,0,1,307,211,55,0,0,0,250,250,0,,,,,,,,,,,,
63703,1560694226945,0,2.23,2.24,3.25,1.99,5.07,0.78,0.12,0.52,0,0,1,0.79,6965,20,65,33,38,873,0.0,630,460,60,119.0,0,1,307,211,55,0,0,0,250,250,0,,,,,,,,,,,,
63723,1560694226965,2,2.24,2.24,3.25,1.99,5.06,0.84,0.06,0.63,-0,-0,2,0.84,6959,20,65,33,38,873,0.0,622,462,60,120.0,0,1,307,211,55,0,0,0,250,250,0,,,,,,,,,,,,
63743,1560694226985,1,2.24,2.24,3.25,2.0,5.08,0.7,0.12,0.56,1,1,2,0.71,7009,20,65,33,38,873,0.0,623,463,60,119.0,0,1,307,211,55,0,0,0,250,250,0,45.700253,4.90941,0.0,189.3,0,0.0,-1,0.0,0.0,0,0.0,1.0624
63763,1560694226999,-1,2.24,2.24,3.25,2.0,5.07,0.8,0.17,0.67,0,-2,-0,0.82,6991,20,65,33,38,873,0.0,623,464,60,120.0,0,1,307,211,55,0,0,0,250,250,0,,,,,,,,,,,,
63783,1560694227019,2,2.24,2.24,3.25,2.0,5.06,0.83,0.07,0.68,-0,-2,-2,0.83,6975,20,65,33,39,873,0.0,620,460,60,121.0,0,1,310,211,55,0,0,0,250,250,0,,,,,,,,,,,,
63803,1560694227039,-0,2.24,2.24,3.25,1.99,5.07,0.73,0.11,0.52,1,-1,-1,0.73,6998,20,65,33,38,873,0.0,622,463,60,120.0,0,1,307,211,55,0,0,0,250,250,0,,,,,,,,,,,,
63823,1560694227059,-0,2.24,2.24,3.25,2.01,5.04,0.83,0.12,0.6,-0,-1,0,0.84,6988,20,65,33,38,873,0.0,626,457,60,120.0,0,1,307,211,55,0,0,0,250,250,0,,,,,,,,,,,,
63843,1560694227079,1,2.24,2.24,3.25,2.0,5.06,0.84,0.04,0.64,0,-1,2,0.84,6967,20,65,33,38,873,0.0,622,460,60,121.0,0,1,307,211,55,0,0,0,250,250,0,45.700253,4.90941,0.0,189.3,0,0.0,-1,0.0,0.0,0,0.0,1.064
63863,1560694227105,-0,2.23,2.24,3.25,2.0,5.08,0.7,0.15,0.52,1,1,2,0.71,6985,20,65,33,38,872,0.0,631,465,60,120.0,0,1,307,211,55,0,0,0,250,250,0,,,,,,,,,,,,
63883,1560694227125,-0,2.24,2.23,3.26,2.0,5.08,0.83,0.14,0.66,-0,-2,0,0.84,6972,20,65,33,38,872,0.0,625,460,60,120.0,0,1,307,211,55,0,0,0,250,250,0,,,,,,,,,,,,
63903,1560694227145,2,2.24,2.24,3.24,2.0,5.05,0.74,0.04,0.6,0,-2,-1,0.74,6962,20,65,33,38,872,0.0,630,458,60,121.0,0,1,307,211,55,0,0,0,250,250,0,,,,,,,,,,,,
63923,1560694227165,-1,2.23,2.24,3.25,2.0,5.04,0.72,0.1,0.48,1,-1,-0,0.73,6998,20,65,33,38,872,0.0,630,465,60,119.0,0,1,307,211,57,0,0,0,250,250,0,,,,,,,,,,,,
63943,1560694227185,3,2.24,2.24,3.26,1.99,5.06,0.8,0.01,0.61,-0,-1,0,0.8,6985,19,65,33,38,873,0.0,624,457,60,121.0,0,1,307,211,57,0,0,0,250,250,0,45.700253,4.90941,0.0,189.3,0,0.0,-1,0.0,0.0,0,0.0,1.0657
63963,1560694227205,1,2.23,2.24,3.25,2.0,5.06,0.76,-0.04,0.59,1,-0,2,0.76,6949,20,65,33,38,874,0.0,630,459,60,121.0,0,1,307,211,57,0,0,0,250,250,0,,,,,,,,,,,,
63983,1560694227225,0,2.23,2.24,3.26,1.99,5.07,0.7,0.07,0.54,1,2,2,0.7,6972,20,65,33,38,874,0.0,618,462,60,119.0,0,1,307,211,57,0,0,0,250,250,0,,,,,,,,,,,,
64003,1560694227245,3,2.24,2.24,3.25,1.99,5.06,0.8,0.13,0.63,-0,-2,-1,0.81,6972,20,65,33,39,875,0.0,621,461,60,120.0,0,1,310,211,57,0,0,0,250,250,0,,,,,,,,,,,,
64023,1560694227265,2,2.24,2.23,3.25,2.0,5.08,0.8,0.01,0.65,1,-1,-2,0.8,6952,20,65,33,38,875,0.0,618,461,60,120.0,0,1,307,218,55,0,0,0,250,250,0,,,,,,,,,,,,
64043,1560694227285,-1,2.24,2.24,3.25,2.0,5.05,0.73,0.05,0.49,1,-2,-1,0.73,6983,20,65,33,39,875,0.0,622,463,60,119.0,0,1,310,218,55,0,0,0,250,250,0,45.700253,4.90941,0.0,189.3,0,0.0,-1,0.0,0.0,0,0.0,1.0674
64063,1560694227305,4,2.23,2.24,3.26,2.0,5.05,0.81,0.02,0.58,0,-1,-1,0.81,6972,20,65,33,38,875,0.0,623,459,60,121.0,0,1,307,211,55,0,0,0,250,250,0,,,,,,,,,,,,
64083,1560694227325,2,2.23,2.25,3.25,2.0,5.04,0.82,-0.03,0.6,1,0,2,0.82,6941,20,65,33,38,874,0.0,628,461,60,120.0,0,1,307,218,55,0,0,0,250,250,0,,,,,,,,,,,,
64103,1560694227345,-0,2.23,2.24,3.25,1.99,5.05,0.71,0.06,0.52,1,1,2,0.71,6926,20,65,33,38,873,0.0,628,462,60,120.0,0,1,307,211,55,0,0,0,250,250,0,,,,,,,,,,,,
64123,1560694227365,2,2.22,2.24,3.25,1.99,5.04,0.83,0.01,0.67,0,-2,0,0.83,6957,20,65,33,38,873,0.0,627,459,60,121.0,0,1,307,211,55,0,0,0,250,250,0,,,,,,,,,,,,
64143,1560694227385,0,2.23,2.24,3.25,2.0,5.05,0.69,-0.04,0.58,1,-1,-1,0.69,6908,20,65,33,38,871,0.0,626,461,60,119.0,0,1,310,218,55,0,0,0,250,250,0,45.700253,4.90941,0.0,189.3,0,0.0,-1,0.0,0.0,0,0.0,1.069
64163,1560694227405,5,2.23,2.24,3.25,2.0,5.04,0.8,0.01,0.57,-0,-3,-3,0.8,6900,20,65,33,39,869,0.0,619,462,60,120.0,0,1,310,218,55,0,0,0,250,250,0,,,,,,,,,,,,
64183,1560694227425,2,2.23,2.24,3.25,1.99,5.07,0.78,-0.14,0.58,1,-2,-2,0.79,6913,20,65,33,39,867,0.0,627,460,60,120.0,0,1,310,218,55,0,0,0,250,250,0,,,,,,,,,,,,
64203,1560694227445,-0,2.24,2.23,3.25,2.0,5.04,0.74,-0.05,0.45,0,-0,0,0.74,6911,20,65,33,39,865,0.0,627,459,60,119.0,0,1,310,218,55,0,0,0,250,250,0,,,,,,,,,,,,
64223,1560694227465,4,2.23,2.24,3.25,1.99,5.06,0.82,-0.06,0.6,-0,-0,1,0.83,6898,20,65,33,38,864,0.0,625,462,60,120.0,0,1,307,218,57,0,0,0,250,250,0,,,,,,,,,,,,
64243,1560694227485,1,2.23,2.24,3.25,2.0,5.04,0.75,-0.1,0.58,1,1,1,0.75,6923,20,65,33,39,864,0.0,622,463,60,119.0,0,1,310,218,57,0,0,0,250,250,0,45.700253,4.90941,0.0,189.3,0,0.0,-1,0.0,0.0,0,0.0,1.0707
64263,1560694227505,3,2.24,2.24,3.24,1.99,5.06,0.76,0.02,0.58,-0,-2,-1,0.76,6926,20,65,33,39,864,0.0,623,462,60,120.0,0,1,310,218,57,0,0,0,250,250,0,,,,,,,,,,,,
64283,1560694227525,0,2.23,2.24,3.26,1.99,5.06,0.82,-0.05,0.6,0,-1,-2,0.83,6898,20,65,33,39,865,0.0,624,459,60,121.0,0,1,310,218,57,0,0,0,250,250,0,,,,,,,,,,,,
64303,1560694227545,-0,2.24,2.24,3.25,2.0,5.08,0.76,-0.02,0.47,0,-2,-1,0.76,6900,20,65,33,39,867,0.0,619,465,60,119.0,0,1,310,218,57,0,0,0,250,250,0,,,,,,,,,,,,
64323,1560694227565,4,2.23,2.25,3.25,2.01,5.07,0.81,-0.04,0.59,-0,-1,-0,0.81,6918,20,65,33,39,866,0.0,620,459,60,120.0,0,1,310,218,57,0,0,0,250,250,0,,,,,,,,,,,,
64343,1560694227585,-1,2.24,2.24,3.25,1.99,5.07,0.77,-0.08,0.57,1,1,2,0.77,6903,20,65,33,39,866,0.0,630,460,60,120.0,0,1,310,218,57,0,0,0,250,250,0,45.700253,4.90941,0.0,189.3,0,0.0,-1,0.0,0.0,0,0.0,1.0724
64363,1560694227605,8,2.24,2.24,3.25,2.0,5.05,0.75,0.02,0.55,-0,1,1,0.75,6893,20,65,33,39,864,0.0,626,462,60,120.0,0,1,310,218,57,0,0,0,250,250,0,,,,,,,,,,,,
64383,1560694227625,3,2.23,2.24,3.26,1.99,5.06,0.85,-0.08,0.69,0,-1,-1,0.85,6918,20,65,33,39,862,0.0,626,457,60,121.0,0,1,310,218,57,0,0,0,250,250,0,,,,,,,,,,,,
64403,1560694227645,-1,2.24,2.24,3.25,1.99,5.08,0.7,-0.06,0.52,1,-1,-2,0.7,6911,20,65,33,39,859,0.0,626,463,60,119.0,0,1,310,218,57,0,0,0,250,250,0,,,,,,,,,,,,
64423,1560694227665,3,2.24,2.25,3.25,2.01,5.04,0.83,-0.05,0.59,-1,-3,-3,0.83,6911,20,65,33,39,856,0.0,627,457,60,121.0,0,1,310,218,57,0,0,0,250,250,0,,,,,,,,,,,,
64443,1560694227685,2,2.23,2.24,3.25,1.99,5.06,0.75,-0.16,0.5,1,-2,-2,0.77,6936,20,65,33,39,855,0.0,617,463,60,120.0,0,1,310,218,57,0,0,0,250,250,0,45.700253,4.90941,0.0,189.3,0,0.0,-1,0.0,0.0,0,0.0,1.074
64463,1560694227704,0,2.23,2.24,3.25,2.0,5.06,0.77,-0.05,0.41,-0,-1,0,0.77,6934,20,65,33,39,855,0.0,623,460,60,120.0,0,1,310,218,57,0,0,0,250,250,0,,,,,,,,,,,,
64483,1560694227724,2,2.23,2.25,3.25,2.0,5.04,0.84,-0.07,0.55,0,-0,2,0.84,6923,20,65,33,39,853,0.0,620,463,60,121.0,0,1,310,218,57,0,0,0,250,250,0,,,,,,,,,,,,
64503,1560694227744,1,2.23,2.24,3.25,2.0,5.04,0.74,-0.04,0.5,1,1,2,0.74,6954,20,65,33,39,852,0.0,624,461,60,119.0,0,1,310,218,57,0,0,0,250,250,0,,,,,,,,,,,,
64523,1560694227764,5,2.23,2.24,3.26,1.99,5.05,0.79,0.07,0.57,-0,-2,0,0.8,6962,20,65,33,40,852,0.0,624,461,60,121.0,0,1,317,219,57,0,0,0,250,250,0,,,,,,,,,,,,
64543,1560694227784,2,2.24,2.24,3.26,2.0,5.08,0.81,-0.02,0.61,1,-1,-1,0.81,6916,20,65,33,39,852,0.0,627,458,60,121.0,0,1,310,218,57,0,0,0,250,250,0,45.700253,4.90941,0.0,189.3,0,0.0,-1,0.0,0.0,0,0.0,1.0757
64563,1560694227804,-1,2.24,2.24,3.25,2.0,5.04,0.72,0.03,0.44,1,-1,-1,0.72,6936,20,65,33,40,852,0.0,623,461,60,120.0,0,1,317,219,57,0,0,0,250,250,0,,,,,,,,,,,,
64583,1560694227824,6,2.23,2.24,3.26,2.0,5.05,0.81,-0.01,0.56,-0,-1,-1,0.81,6949,20,65,33,40,850,0.0,625,456,60,121.0,0,1,317,219,57,0,0,0,250,250,0,,,,,,,,,,,,
64603,1560694227844,2,2.23,2.24,3.25,2.0,5.04,0.78,-0.05,0.56,1,1,1,0.78,6947,20,65,33,40,850,0.0,623,459,60,120.0,0,1,317,219,57,0,0,0,250,250,0,,,,,,,,,,,,
64623,1560694227864,-1,2.23,2.24,3.26,1.99,5.07,0.7,0.05,0.46,1,1,1,0.7,6991,20,65,33,40,849,0.0,630,465,60,119.0,0,1,317,219,58,0,0,0,250,250,0,,,,,,,,,,,,
64643,1560694227884,4,2.23,2.24,3.25,2.0,5.04,0.83,0.0,0.62,-0,-1,-1,0.83,7009,20,65,33,40,849,0.0,624,461,60,121.0,0,1,317,219,58,0,0,0,250,250,0,45.700253,4.90941,0.0,189.3,0,0.0,-1,0.0,0.0,0,0.0,1.0774
64663,1560694227904,2,2.23,2.24,3.25,2.0,5.04,0.7,-0.08,0.54,1,-0,-1,0.71,6985,20,65,33,40,849,0.0,625,459,60,120.0,0,1,317,219,58,0,0,0,250,250,0,,,,,,,,,,,,
64683,1560694227924,-1,2.23,2.23,3.25,1.99,5.02,0.7,-0.0,0.46,0,-2,-1,0.7,7004,20,65,33,40,849,0.0,626,460,60,119.0,0,1,317,219,58,0,0,0,250,250,0,,,,,,,,,,,,
64703,1560694227944,3,2.23,2.24,3.25,2.0,5.06,0.8,-0.06,0.57,-0,-1,-1,0.8,7054,20,65,33,40,850,0.0,630,464,60,121.0,0,1,317,219,58,0,0,0,250,250,0,,,,,,,,,,,,
64723,1560694227964,2,2.22,2.23,3.25,2.0,5.08,0.77,-0.11,0.61,1,1,2,0.77,7043,20,65,33,40,852,0.0,623,461,60,120.0,0,1,317,219,58,0,0,0,250,250,0,,,,,,,,,,,,
64743,1560694227984,1,2.22,2.24,3.25,2.0,5.06,0.66,-0.01,0.51,1,3,2,0.66,7096,20,65,33,40,853,0.0,621,463,60,119.0,0,1,317,219,58,0,0,0,250,250,0,45.700253,4.90941,0.0,189.3,0,0.0,-1,0.0,0.0,0,0.0,1.079
64763,1560694228000,1,2.23,2.23,3.25,2.0,5.08,0.77,0.03,0.6,-0,-0,-0,0.77,7121,20,65,33,40,854,0.0,626,460,60,120.0,0,1,317,219,58,0,0,0,250,250,0,,,,,,,,,,,,
64783,1560694228020,4,2.22,2.24,3.25,1.99,5.05,0.87,-0.04,0.69,0,-0,-2,0.87,7107,20,65,33,40,854,0.0,625,459,60,121.0,0,1,317,219,58,0,0,0,250,250,0,,,,,,,,,,,,
64803,1560694228040,3,2.22,2.24,3.25,2.0,5.07,0.7,-0.09,0.55,1,0,-2,0.71,7137,20,65,33,40,855,0.0,628,463,60,120.0,0,1,317,219,58,0,0,0,250,250,0,,,,,,,,,,,,
64823,1560694228060,1,2.23,2.24,3.25,2.0,5.05,0.71,-0.02,0.42,1,1,0,0.71,7140,21,65,33,40,856,0.0,626,458,60,119.0,0,1,317,219,59,0,0,0,250,250,0,,,,,,,,,,,,
64843,1560694228080,-1,2.22,2.24,3.25,2.0,5.03,0.83,0.01,0.51,-0,1,1,0.83,7159,21,65,33,40,858,0.0,627,463,60,120.0,0,1,317,219,59,0,0,0,250,250,0,45.700253,4.90941,0.0,189.3,0,0.0,-1,0.0,0.0,0,0.0,1.0807
64863,1560694228106,3,2.22,2.24,3.25,2.0,5.04,0.94,-0.03,0.66,-1,-1,0,0.94,7208,21,65,33,40,858,0.0,631,460,60,121.0,0,1,317,219,59,0,0,0,250,250,0,,,,,,,,,,,,
64883,1560694228126,4,2.22,2.23,3.25,2.0,5.07,0.88,-0.06,0.66,0,0,-1,0.88,7214,21,65,33,40,860,0.0,630,459,60,121.0,0,1,317,218,59,0,0,0,250,250,0,,,,,,,,,,,,
64903,1560694228146,2,2.23,2.24,3.25,2.0,5.08,0.73,-0.09,0.53,1,0,-1,0.73,7264,21,65,33,40,863,0.0,632,462,60,120.0,0,1,317,218,59,0,0,0,250,250,0,,,,,,,,,,,,
64923,1560694228166,1,2.22,2.24,3.25,2.0,5.04,0.76,-0.06,0.46,1,-0,1,0.76,7281,21,65,33,40,864,0.0,628,461,60,120.0,0,1,317,218,60,0,0,0,250,250,0,,,,,,,,,,,,
64943,1560694228186,1,2.22,2.24,3.25,2.0,5.04,0.75,-0.01,0.46,0,1,1,0.75,7361,21,65,33,40,866,0.0,635,463,60,119.0,0,1,317,218,60,0,0,0,250,250,0,45.700253,4.90941,0.0,189.3,0,0.0,-1,0.0,0.0,0,0.0,1.0824
64963,1560694228206,1,2.23,2.24,3.26,1.99,5.07,0.8,0.02,0.5,0,-2,-0,0.8,7387,22,65,33,39,867,0.0,627,460,60,120.0,0,1,310,216,60,0,0,0,250,250,0,,,,,,,,,,,,
64983,1560694228226,-0,2.22,2.24,3.25,1.99,5.05,0.91,-0.01,0.54,-1,-4,-2,0.91,7381,22,65,33,40,868,0.0,628,461,60,120.0,0,1,317,218,60,0,0,0,250,250,0,,,,,,,,,,,,
65003,1560694228246,-1,2.23,2.24,3.25,2.0,5.04,0.99,0.01,0.53,-1,-2,-1,0.99,7458,22,65,33,39,869,0.0,630,461,60,121.0,0,1,310,216,60,0,0,0,250,250,0,,,,,,,,,,,,
65023,1560694228266,-1,2.22,2.24,3.25,1.99,5.06,1.01,0.06,0.49,-1,-0,0,1.01,7470,22,65,33,39,868,0.0,641,461,60,121.0,0,1,310,216,61,0,0,0,250,250,0,,,,,,,,,,,,
65043,1560694228286,-0,2.23,2.24,3.25,2.0,5.04,1.09,0.1,0.6,-2,-2,-1,1.1,7527,22,65,33,39,868,0.0,636,461,60,120.0,0,1,310,218,61,0,0,0,250,250,0,45.700253,4.90941,0.0,189.3,0,0.0,-1,0.0,0.0,0,0.0,1.084
65063,1560694228306,1,2.22,2.24,3.25,2.0,5.08,1.16,0.07,0.65,-3,-4,-3,1.17,7557,23,65,33,39,869,0.0,634,457,60,121.0,0,1,310,218,61,0,0,0,250,250,0,,,,,,,,,,,,
65083,1560694228326,-0,2.23,2.25,3.26,2.0,5.04,1.19,0.06,0.6,-3,-4,-3,1.19,7621,23,65,33,39,870,0.0,637,460,60,120.0,0,1,310,218,61,0,0,0,250,250,0,,,,,,,,,,,,
65103,1560694228346,2,2.22,2.24,3.26,1.99,5.06,1.17,0.1,0.53,-3,-3,-1,1.18,7693,23,65,33,39,871,0.0,640,463,60,119.0,0,1,310,218,61,0,0,0,250,250,0,,,,,,,,,,,,
65123,1560694228366,3,2.23,2.24,3.26,2.0,5.08,1.04,0.1,0.55,-2,-2,-1,1.04,7722,23,65,33,39,873,0.0,638,462,60,119.0,0,1,310,218,61,0,0,0,250,250,0,,,,,,,,,,,,
65143,1560694228386,3,2.23,2.24,3.26,2.0,5.08,0.89,0.05,0.59,-1,-3,-2,0.89,7786,23,65,33,38,875,0.0,639,461,60,121.0,0,1,307,211,61,0,0,0,250,250,0,45.700253,4.90941,0.0,189.3,0,0.0,-1,0.0,0.0,0,0.0,1.0857
65163,1560694228406,-0,2.23,2.24,3.25,2.0,5.05,0.89,-0.03,0.58,-1,-2,-1,0.89,7789,23,65,33,38,878,0.0,643,460,60,120.0,0,1,307,211,61,0,0,0,250,250,0,,,,,,,,,,,,
65183,1560694228426,1,2.22,2.25,3.25,2.0,5.04,0.94,0.02,0.58,-1,-2,-1,0.94,7868,23,65,33,38,879,0.0,640,461,60,120.0,0,1,307,211,61,0,0,0,250,250,0,,,,,,,,,,,,
65203,1560694228446,1,2.23,2.24,3.25,1.99,5.07,0.95,0.02,0.63,-1,-4,-2,0.95,7871,23,65,33,38,879,0.0,638,462,60,119.0,0,1,307,211,61,0,0,0,250,250,0,,,,,,,,,,,,
65223,1560694228466,5,2.22,2.24,3.25,2.0,5.05,0.89,0.02,0.61,-1,-4,-0,0.89,7911,23,65,33,37,880,0.0,653,459,60,120.0,0,1,304,205,63,0,0,0,250,250,0,,,,,,,,,,,,
65243,1560694228486,-1,2.22,2.24,3.25,2.0,5.04,0.91,-0.04,0.67,-1,-3,-0,0.91,7988,23,65,33,37,881,0.0,648,463,60,120.0,0,1,304,205,63,0,0,0,250,250,0,45.700253,4.90941,0.0,189.3,0,0.0,-1,0.0,0.0,0,0.0,1.0874
65263,1560694228506,2,2.22,2.24,3.25,2.0,5.08,0.9,-0.04,0.63,-1,-4,-1,0.9,8040,23,65,33,37,883,0.0,641,459,60,120.0,0,1,304,206,63,0,0,0,250,250,0,,,,,,,,,,,,
65283,1560694228526,5,2.22,2.24,3.25,2.0,5.04,0.86,-0.03,0.62,-0,-3,-0,0.86,8047,23,65,33,36,883,0.0,651,460,60,120.0,0,1,301,199,63,0,0,0,250,250,0,,,,,,,,,,,,
65303,1560694228546,2,2.22,2.24,3.25,1.99,5.04,0.91,-0.04,0.67,-0,-3,-0,0.91,8120,23,65,33,36,884,0.0,651,461,60,120.0,0,1,303,200,63,0,0,0,250,250,0,,,,,,,,,,,,
65323,1560694228566,3,2.23,2.24,3.25,2.0,5.05,0.82,-0.02,0.66,-0,-4,-1,0.82,8162,23,65,33,36,886,0.0,648,461,60,119.0,0,1,304,201,62,0,0,0,250,250,0,,,,,,,,,,,,
65343,1560694228586,2,2.21,2.24,3.26,2.0,5.07,0.88,-0.09,0.71,-0,-3,0,0.88,8169,24,65,33,35,887,0.0,652,460,60,120.0,0,1,301,203,62,0,0,0,250,250,0,45.700253,4.90941,0.0,189.3,0,0.0,-1,0.0,0.0,0,0.0,1.0891
65363,1560694228606,4,2.22,2.24,3.26,1.99,5.07,0.83,0.03,0.66,0,-3,0,0.83,8205,24,65,33,35,888,0.0,651,460,60,120.0,0,1,301,198,62,0,0,0,250,250,0,,,,,,,,,,,,
65383,1560694228626,0,2.23,2.24,3.25,2.0,5.04,0.83,-0.02,0.72,0,-3,-0,0.83,8227,24,65,33,35,890,0.0,643,463,60,120.0,0,1,302,198,62,0,0,0,250,250,0,,,,,,,,,,,,
65403,1560694228646,2,2.23,2.24,3.25,1.99,5.07,0.79,0.03,0.63,0,-1,1,0.79,8212,24,65,33,35,893,0.0,649,457,60,120.0,0,1,302,198,62,0,0,0,250,250,0,,,,,,,,,,,,
65423,1560694228666,1,2.23,2.24,3.25,2.01,5.04,0.86,-0.05,0.76,-0,-2,-0,0.86,8245,24,65,33,35,896,0.0,645,463,60,119.0,0,1,302,198,62,0,0,0,250,250,0,,,,,,,,,,,,
65443,1560694228686,3,2.23,2.24,3.26,2.0,5.08,0.84,-0.02,0.66,-0,-2,0,0.84,8245,24,65,33,35,898,0.0,649,460,60,119.0,0,1,302,195,62,0,0,0,250,250,0,45.700253,4.90941,0.0,189.3,0,0.0,-1,0.0,0.0,0,0.0,1.0907
65463,1560694228701,1,2.22,2.24,3.25,1.99,5.04,0.9,-0.1,0.7,-1,-2,-0,0.91,8292,24,65,33,34,904,0.0,646,462,60,121.0,0,1,300,199,62,0,0,0,250,250,0,,,,,,,,,,,,
65483,1560694228721,4,2.23,2.24,3.25,2.0,5.03,0.8,-0.06,0.67,-0,-3,-1,0.81,8270,24,65,33,35,909,0.0,646,461,60,119.0,0,1,304,194,62,0,0,0,250,250,0,,,,,,,,,,,,
65503,1560694228741,-1,2.21,2.23,3.24,1.99,5.06,0.87,-0.13,0.63,0,-2,-0,0.88,8292,24,65,33,35,914,0.0,656,462,60,120.0,0,1,303,199,62,0,0,0,250,250,0,,,,,,,,,,,,
65523,1560694228761,5,2.22,2.24,3.25,1.99,5.07,0.78,0.01,0.59,1,-1,0,0.78,8303,24,65,33,35,918,0.0,652,463,60,119.0,0,1,304,196,61,0,0,0,250,250,0,,,,,,,,,,,,
65543,1560694228781,2,2.21,2.24,3.25,2.0,5.07,0.81,-0.04,0.56,0,-1,-1,0.81,8359,25,65,33,35,925,0.0,651,462,60,120.0,0,1,305,201,61,0,0,0,250,250,0,45.700253,4.90941,0.0,189.3,0,0.0,-1,0.0,0.0,0,0.0,1.0924
65563,1560694228805,-1,2.22,2.24,3.24,2.0,5.07,0.77,0.01,0.55,0,-1,1,0.77,8344,25,65,33,35,939,0.0,653,461,60,120.0,0,1,304,201,61,0,0,0,250,250,0,,,,,,,,,,,,
65583,1560694228825,1,2.22,2.24,3.25,2.0,5.07,0.79,-0.01,0.62,-0,-2,-0,0.79,8318,25,65,33,35,948,0.0,646,458,60,120.0,0,1,304,200,61,0,0,0,250,250,0,,,,,,,,,,,,
65603,1560694228845,0,2.22,2.24,3.25,2.0,5.07,0.82,0.01,0.53,-0,-2,1,0.82,8314,25,65,33,35,955,0.0,659,464,60,120.0,0,1,304,200,61,0,0,0,250,250,0,,,,,,,,,,,,
65623,1560694228865,2,2.23,2.24,3.26,1.99,5.07,0.78,0.1,0.58,0,-0,1,0.78,8366,25,65,33,35,965,0.0,646,461,60,120.0,0,1,302,197,61,0,0,0,250,250,0,,,,,,,,,,,,
65643,1560694228885,-1,2.23,2.24,3.25,2.0,5.05,0.8,0.03,0.59,-0,-2,0,0.8,8363,25,65,33,35,978,0.0,648,463,60,120.0,0,1,305,201,61,0,0,0,250,250,0,45.700253,4.90941,0.0,189.3,0,0.0,-1,0.0,0.0,0,0.0,1.0941
65663,1560694228905,4,2.23,2.24,3.26,2.0,5.04,0.75,0.06,0.53,0,-0,1,0.75,8355,25,65,33,35,987,0.0,653,461,60,119.0,0,1,305,201,61,0,0,0,250,250,0,,,,,,,,,,,,
65683,1560694228925,2,2.23,2.25,3.25,2.0,5.05,0.84,-0.04,0.64,-0,-1,-0,0.84,8344,25,65,33,35,993,0.0,658,462,60,120.0,0,1,304,201,61,0,0,0,250,250,0,,,,,,,,,,,,
65703,1560694228945,5,2.22,2.24,3.25,2.0,5.08,0.8,0.01,0.58,-0,-1,1,0.8,8359,25,65,33,35,999,0.0,652,461,60,119.0,0,1,305,203,61,0,0,0,250,250,0,,,,,,,,,,,,
65723,1560694228965,3,2.22,2.24,3.26,2.0,5.05,0.81,0.01,0.68,-0,0,1,0.81,8415,25,65,33,34,1007,0.0,651,463,60,120.0,0,1,303,204,63,0,0,0,250,250,0,,,,,,,,,,,,
65743,1560694228985,1,2.22,2.24,3.25,2.0,5.05,0.8,-0.04,0.7,-0,-2,0,0.8,8419,25,65,33,35,1016,0.0,651,456,60,119.0,0,1,306,204,63,0,0,0,250,250,0,45.700253,4.90941,0.0,189.3,0,0.0,-1,0.0,0.0,0,0.0,1.0957
65763,1560694228999,3,2.22,2.24,3.26,1.99,5.07,0.74,0.05,0.66,0,0,1,0.74,8426,25,65,33,35,1019,0.0,648,457,60,120.0,0,1,306,203,63,0,0,0,250,250,0,,,,,,,,,,,,
65783,1560694229019,1,2.23,2.24,3.25,2.0,5.04,0.85,-0.05,0.79,-0,-2,0,0.85,8404,25,65,33,35,1022,0.0,651,460,60,121.0,0,1,306,204,63,0,0,0,250,250,0,,,,,,,,,,,,
65803,1560694229039,0,2.22,2.24,3.25,2.0,5.04,0.84,-0.02,0.73,0,-2,1,0.84,8419,25,65,33,35,1028,0.0,648,458,60,120.0,0,1,306,204,63,0,0,0,250,250,0,,,,,,,,,,,,
65823,1560694229059,4,2.21,2.24,3.26,2.0,5.07,0.81,0.01,0.79,0,-0,1,0.81,8465,25,65,33,35,1032,0.0,647,461,60,120.0,0,1,307,205,65,0,0,0,250,250,0,,,,,,,,,,,,
65843,1560694229079,2,2.22,2.24,3.25,1.99,5.06,0.86,-0.05,0.77,-0,-2,0,0.86,8484,25,65,33,35,1034,0.0,648,459,60,119.0,0,1,307,205,65,0,0,0,250,250,0,45.700253,4.90941,0.0,189.3,0,0.0,-1,0.0,0.0,0,0.0,1.0974
65863,1560694229099,-3,2.22,2.24,3.25,2.0,5.08,0.78,0.03,0.71,0,0,1,0.78,8511,25,65,33,36,1037,0.0,651,455,60,119.0,0,1,311,205,65,0,0,0,250,250,0,,,,,,,,,,,,
65883,1560694229119,4,2.23,2.24,3.25,2.0,5.04,0.78,0.03,0.77,0,-2,0,0.78,8476,25,65,33,35,1042,0.0,646,465,60,120.0,0,1,307,205,65,0,0,0,250,250,0,,,,,,,,,,,,
65903,1560694229139,2,2.22,2.24,3.26,2.0,5.07,0.88,-0.01,0.66,0,-2,1,0.88,8507,25,65,33,35,1046,0.0,653,465,60,120.0,0,1,308,206,65,0,0,0,250,250,0,,,,,,,,,,,,
65923,1560694229159,1,2.22,2.24,3.26,1.99,5.07,0.79,0.12,0.58,0,-1,1,0.8,8534,26,65,33,35,1049,0.0,649,460,60,120.0,0,1,308,206,66,0,0,0,250,250,0,,,,,,,,,,,,
65943,1560694229179,3,2.22,2.24,3.25,1.99,5.07,0.72,0.14,0.57,1,-1,1,0.74,8581,26,65,33,35,1051,0.0,648,460,60,120.0,0,1,308,206,66,0,0,0,250,250,0,45.700253,4.90941,0.0,189.3,0,0.0,-1,0.0,0.0,0,0.0,1.0991
65963,1560694229205,3,2.23,2.24,3.26,2.0,5.06,0.84,0.02,0.59,0,-0,0,0.84,8596,26,65,33,35,1051,0.0,648,463,60,120.0,0,1,308,206,66,0,0,0,250,250,0,,,,,,,,,,,,
65983,1560694229225,-1,2.23,2.24,3.25,1.99,5.05,0.8,-0.03,0.6,-0,-2,-0,0.8,8612,26,65,33,35,1050,0.0,652,460,60,120.0,0,1,308,206,66,0,0,0,250,250,0,,,,,,,,,,,,
66003,1560694229245,5,2.22,2.23,3.25,2.0,5.04,0.69,0.07,0.59,0,-0,1,0.69,8640,26,65,33,35,1048,0.0,652,458,60,119.0,0,1,308,206,66,0,0,0,250,250,0,,,,,,,,,,,,
66023,1560694229265,5,2.22,2.24,3.25,2.0,5.03,0.69,0.07,0.64,0,-1,0,0.69,8624,26,65,33,35,1046,0.0,648,464,60,120.0,0,1,308,206,67,0,0,0,250,250,0,,,,,,,,,,,,
66043,1560694229285,3,2.23,2.24,3.25,2.0,5.07,0.82,-0.02,0.6,0,-1,0,0.82,8636,26,65,33,35,1041,0.0,662,463,60,120.0,0,1,308,206,67,0,0,0,250,250,0,45.700253,4.90941,0.0,189.3,0,0.0,-1,0.0,0.0,0,0.0,1.1007
66063,1560694229305,2,2.22,2.24,3.25,2.0,5.03,0.85,-0.04,0.61,0,-2,0,0.85,8668,26,65,33,35,1037,0.0,660,463,60,120.0,0,1,308,206,67,0,0,0,250,250,0,,,,,,,,,,,,
66083,1560694229325,-0,2.22,2.24,3.25,2.0,5.04,0.77,0.0,0.53,0,-2,1,0.77,8672,26,65,33,36,1034,0.0,655,455,60,119.0,0,1,311,210,67,0,0,0,250,250,0,,,,,,,,,,,,
66103,1560694229345,3,2.22,2.24,3.25,2.0,5.07,0.68,0.13,0.56,0,-1,1,0.69,8729,26,65,33,35,1032,0.0,653,458,60,120.0,0,1,308,206,67,0,0,0,250,250,0,,,,,,,,,,,,
66123,1560694229365,2,2.23,2.24,3.25,2.0,5.05,0.69,0.11,0.54,1,-0,0,0.7,8716,26,65,33,35,1030,0.0,655,459,60,120.0,0,1,308,210,67,0,0,0,250,250,0,,,,,,,,,,,,
66143,1560694229385,1,2.23,2.24,3.25,1.99,5.05,0.82,-0.03,0.5,0,0,-0,0.82,8737,26,65,33,36,1028,0.0,658,452,60,120.0,0,1,311,210,67,0,0,0,250,250,0,45.700253,4.90941,0.0,189.3,0,0.0,-1,0.0,0.0,0,0.0,1.1024
66163,1560694229405,2,2.22,2.23,3.25,2.0,5.04,0.83,-0.11,0.54,-0,-2,-1,0.84,8741,27,65,33,35,1026,0.0,649,459,60,119.0,0,1,308,206,67,0,0,0,250,250,0,,,,,,,,,,,,
66183,1560694229425,-1,2.23,2.24,3.25,2.0,5.05,0.76,-0.04,0.59,0,-0,-0,0.76,8741,27,65,33,36,1027,0.0,658,455,60,119.0,0,1,308,206,67,0,0,0,250,250,0,,,,,,,,,,,,
66203,1560694229445,1,2.22,2.24,3.24,2.0,5.07,0.72,-0.05,0.62,0,-1,-0,0.72,8720,27,65,33,36,1028,0.0,661,462,60,120.0,0,1,311,210,67,0,0,0,250,250,0,,,,,,,,,,,,
66223,1560694229465,3,2.23,2.24,3.26,1.99,5.06,0.63,0.06,0.62,1,1,1,0.63,8741,27,65,33,36,1031,0.0,661,458,60,120.0,0,1,311,210,69,0,0,0,250,250,0,,,,,,,,,,,,
66243,1560694229485,3,2.22,2.24,3.25,2.0,5.03,0.54,0.16,0.62,1,-1,0,0.56,8741,27,65,33,36,1033,0.0,658,466,60,120.0,0,1,311,210,69,0,0,0,250,250,0,45.700253,4.90941,0.0,189.3,0,0.0,-1,0.0,0.0,0,0.0,1.1041
66263,1560694229505,4,2.22,2.24,3.25,1.99,5.04,0.59,0.13,0.57,0,-1,0,0.6,8765,27,65,33,36,1035,0.0,660,461,60,120.0,0,1,311,210,69,0,0,0,250,250,0,,,,,,,,,,,,
66283,1560694229525,1,2.23,2.24,3.26,1.99,5.06,0.69,-0.0,0.67,-0,-3,-1,0.69,8778,27,65,33,36,1041,0.0,665,461,60,120.0,0,1,311,210,69,0,0,0,250,250,0,,,,,,,,,,,,
66303,1560694229545,2,2.22,2.24,3.26,2.0,5.07,0.83,-0.17,0.68,-0,-2,-0,0.84,8798,27,65,33,36,1047,0.0,666,456,60,120.0,0,1,311,210,69,0,0,0,250,250,0,,,,,,,,,,,,
66323,1560694229565,1,2.22,2.23,3.24,1.99,5.06,0.92,-0.26,0.73,-0,-2,0,0.95,8806,27,65,33,36,1053,0.0,662,460,60,119.0,0,1,311,210,71,0,0,0,250,250,0,,,,,,,,,,,,
66343,1560694229585,0,2.21,2.24,3.25,2.0,5.05,0.95,-0.22,0.65,0,-1,1,0.97,8823,28,65,33,36,1057,0.0,663,460,60,119.0,0,1,311,210,71,0,0,0,250,250,0,45.700253,4.90941,0.0,189.3,0,0.0,-1,0.0,0.0,0,0.0,1.1057
66363,1560694229605,11,2.22,2.24,3.25,2.0,5.04,0.87,-0.08,0.66,1,0,2,0.88,8869,28,65,33,36,1061,0.0,662,462,60,120.0,0,1,311,210,71,0,0,0,250,250,0,,,,,,,,,,,,
66383,1560694229625,5,2.22,2.24,3.26,1.99,5.06,0.71,0.12,0.57,1,1,2,0.73,8898,28,65,33,36,1066,0.0,656,466,60,120.0,0,1,311,210,71,0,0,0,250,250,0,,,,,,,,,,,,
66403,1560694229645,4,2.22,2.24,3.26,2.0,5.05,0.54,0.31,0.58,1,4,2,0.63,8911,28,65,33,36,1071,0.0,657,462,60,120.0,0,1,311,210,71,0,0,0,250,250,0,,,,,,,,,,,,
66423,1560694229665,2,2.22,2.24,3.26,1.99,5.06,0.38,0.48,0.51,1,3,1,0.61,8932,28,65,33,37,1072,0.0,656,460,60,120.0,0,1,314,213,70,0,0,0,250,250,0,,,,,,,,,,,,
66443,1560694229685,6,2.22,2.24,3.25,2.0,5.04,0.27,0.6,0.47,1,5,-0,0.66,8962,28,65,33,36,1073,0.0,656,462,60,120.0,0,1,311,210,70,0,0,0,250,250,0,45.700253,4.90941,0.0,189.3,0,0.0,-1,0.0,0.0,0,0.0,1.1074
66463,1560694229704,3,2.22,2.25,3.25,2.01,5.04,0.16,0.69,0.43,0,2,-2,0.7,8988,28,65,33,37,1075,0.0,663,458,60,120.0,0,1,314,213,70,0,0,0,250,250,0,,,,,,,,,,,,
66483,1560694229724,2,2.22,2.24,3.26,1.99,5.06,0.12,0.71,0.45,0,3,-3,0.72,8984,28,65,33,37,1077,0.0,659,459,60,120.0,0,1,314,213,70,0,0,0,250,250,0,,,,,,,,,,,,
66503,1560694229744,3,2.22,2.24,3.25,2.01,5.06,0.06,0.73,0.47,-0,1,-4,0.73,9018,28,65,33,37,1079,0.0,663,463,60,120.0,0,1,314,213,70,0,0,0,250,250,0,,,,,,,,,,,,
66523,1560694229764,4,2.22,2.24,3.26,1.99,5.06,0.01,0.73,0.5,-0,2,-4,0.73,9036,28,65,33,37,1080,0.0,657,464,60,120.0,0,1,314,213,72,0,0,0,250,250,0,,,,,,,,,,,,
66543,1560694229784,3,2.22,2.24,3.25,2.0,5.07,-0.06,0.77,0.49,-0,0,-5,0.77,9044,28,65,33,37,1080,0.0,668,453,60,120.0,0,1,314,213,72,0,0,0,250,250,0,45.700253,4.90941,0.0,189.3,0,0.0,-1,0.0,0.0,0,0.0,1.1091
66563,1560694229804,6,2.22,2.25,3.25,2.0,5.04,-0.14,0.82,0.51,-0,2,-5,0.83,9044,29,65,33,37,1081,0.0,660,460,60,120.0,0,1,314,213,72,0,0,0,250,250,0,,,,,,,,,,,,
66583,1560694229824,4,2.22,2.24,3.25,2.0,5.07,-0.23,0.9,0.51,-1,1,-6,0.93,9040,29,65,33,37,1081,0.0,667,462,60,120.0,0,1,314,213,72,0,0,0,250,250,0,,,,,,,,,,,,
66603,1560694229844,4,2.21,2.24,3.25,1.99,5.05,-0.3,1.01,0.48,-0,3,-6,1.05,9023,29,65,33,37,1081,0.0,659,458,60,120.0,0,1,314,213,72,0,0,0,250,250,0,,,,,,,,,,,,
66623,1560694229864,5,2.21,2.24,3.24,2.0,5.04,-0.38,1.06,0.41,-1,1,-6,1.13,9005,29,65,33,37,1079,0.0,657,452,60,120.0,0,1,314,213,72,0,0,0,250,250,0,,,,,,,,,,,,
66643,1560694229884,2,2.22,2.24,3.25,2.0,5.05,-0.41,1.08,0.42,-0,4,-6,1.16,8958,29,65,33,37,1077,0.0,653,463,60,120.0,0,1,314,213,72,0,0,0,250,250,0,45.700253,4.90941,0.0,189.3,0,0.0,-1,0.0,0.0,0,0.0,1.1107
66663,1560694229904,4,2.21,2.24,3.25,2.0,5.03,-0.4,1.02,0.38,-1,1,-7,1.1,8945,29,65,33,37,1075,0.0,656,460,60,120.0,0,1,314,213,72,0,0,0,250,250,0,,,,,,,,,,,,
66683,1560694229924,3,2.22,2.24,3.25,2.0,5.07,-0.31,0.85,0.4,-1,3,-7,0.91,8907,29,65,33,37,1073,0.0,658,459,60,120.0,0,1,314,213,72,0,0,0,250,250,0,,,,,,,,,,,,
66703,1560694229944,3,2.21,2.24,3.25,2.0,5.03,-0.15,0.6,0.48,-1,0,-7,0.62,8848,29,65,33,37,1070,0.0,654,459,60,120.0,0,1,314,213,72,0,0,0,250,250,0,,,,,,,,,,,,
66723,1560694229964,1,2.22,2.24,3.25,2.0,5.08,0.02,0.35,0.46,-1,1,-7,0.35,8819,29,65,33,38,1067,0.0,651,457,60,120.0,0,1,314,213,71,0,0,0,250,250,0,,,,,,,,,,,,
66743,1560694229984,-1,2.22,2.24,3.24,1.99,5.06,0.12,0.18,0.58,-1,-0,-6,0.22,8778,29,65,33,38,1066,0.0,650,456,60,119.0,0,1,317,218,71,0,0,0,250,250,0,45.700253,4.90941,0.0,189.3,0,0.0,-1,0.0,0.0,0,0.0,1.1124
66763,1560694229998,6,2.21,2.24,3.25,2.0,5.08,0.09,0.23,0.59,-1,1,-5,0.25,8704,29,65,33,38,1065,0.0,653,457,60,119.0,0,1,317,218,71,0,0,0,250,250,0,,,,,,,,,,,,
66783,1560694230018,4,2.21,2.25,3.25,1.99,5.06,0.04,0.32,0.54,-0,1,-5,0.32,8656,29,65,33,38,1069,0.0,650,463,60,120.0,0,1,317,218,71,0,0,0,250,250,0,,,,,,,,,,,,
66803,1560694230038,3,2.21,2.24,3.24,2.01,5.08,0.16,0.23,0.52,-0,-0,-4,0.28,8632,29,65,33,38,1073,0.0,653,466,60,120.0,0,1,317,218,71,0,0,0,250,250,0,,,,,,,,,,,,
66823,1560694230058,1,2.21,2.24,3.24,2.01,5.04,0.3,0.13,0.59,-0,-1,-4,0.33,8612,30,65,33,39,1078,0.0,658,460,60,120.0,0,1,320,222,71,0,0,0,250,250,0,,,,,,,,,,,,
66843,1560694230078,4,2.21,2.25,3.23,2.01,5.04,0.34,0.14,0.59,0,-2,-3,0.37,8573,30,65,33,39,1085,0.0,648,458,60,119.0,0,1,320,222,71,0,0,0,250,250,0,45.700253,4.90941,0.0,189.3,0,0.0,-1,0.0,0.0,0,0.0,1.1141
66863,1560694230104,4,2.2,2.25,3.24,2.01,5.04,0.37,0.23,0.6,-0,0,-3,0.43,8596,30,65,33,39,1088,0.0,648,459,60,120.0,0,1,320,222,71,0,0,0,250,250,0,,,,,,,,,,,,
66883,1560694230124,2,2.2,2.25,3.24,2.01,5.06,0.44,0.17,0.63,-0,-2,-3,0.47,8553,30,65,33,40,1091,0.0,649,458,60,120.0,0,1,326,223,71,0,0,0,250,250,0,,,,,,,,,,,,
66903,1560694230144,1,2.21,2.25,3.23,2.02,5.06,0.42,0.15,0.58,0,2,-2,0.44,8499,30,65,33,39,1091,0.0,646,461,60,120.0,0,1,319,221,71,0,0,0,250,250,0,,,,,,,,,,,,
66923,1560694230164,4,2.2,2.26,3.23,2.02,5.05,0.39,0.17,0.63,-0,-0,-3,0.42,8381,31,65,33,40,1089,0.0,641,461,60,120.0,0,1,323,222,71,0,0,0,250,250,0,,,,,,,,,,,,
66943,1560694230184,0,2.2,2.27,3.22,2.02,5.04,0.49,0.07,0.64,-0,0,-1,0.5,8281,31,65,33,41,1083,0.0,650,457,60,119.0,0,1,328,223,71,0,0,0,250,250,0,45.700253,4.90941,0.0,189.3,0,0.0,-1,0.0,0.0,0,0.0,1.1157
66963,1560694230206,3,2.19,2.28,3.21,2.04,5.06,0.52,0.14,0.68,-0,0,-2,0.53,8177,31,65,33,40,1074,0.0,643,459,60,120.0,0,1,320,223,71,0,0,0,250,250,0,,,,,,,,,,,,
66983,1560694230226,5,2.19,2.3,3.21,2.05,5.05,0.47,0.07,0.69,-1,-1,-2,0.47,7999,31,65,33,41,1067,0.0,643,458,60,120.0,0,1,325,221,71,0,0,0,250,250,0,,,,,,,,,,,,
67003,1560694230246,4,2.19,2.32,3.2,2.07,5.07,0.4,0.07,0.73,0,0,-1,0.4,7789,31,65,33,43,1061,0.0,642,460,60,119.0,0,1,340,225,71,0,0,0,250,250,0,,,,,,,,,,,,
67023,1560694230266,5,2.18,2.33,3.19,2.08,5.08,0.42,0.03,0.86,1,-0,-1,0.43,7609,31,65,33,44,1048,0.0,633,461,60,121.0,0,1,347,226,65,0,0,0,250,250,0,,,,,,,,,,,,
67043,1560694230286,4,2.17,2.34,3.18,2.1,5.05,0.41,0.02,0.85,1,1,-1,0.41,7341,31,65,33,45,1036,13.0,628,457,60,121.0,0,1,355,228,65,0,0,0,-1,250,0,45.700253,4.90941,0.0,189.3,0,0.0,-1,0.0,0.0,0,0.0,1.1174
67063,1560694230306,1,2.17,2.36,3.17,2.11,5.05,0.32,0.03,0.76,2,2,-0,0.32,7107,31,65,33,47,1029,13.0,628,463,60,120.0,0,1,370,233,65,0,0,22,-1,250,0,,,,,,,,,,,,
67083,1560694230326,5,2.16,2.37,3.17,2.12,5.05,0.35,0.11,0.78,0,1,-1,0.37,6883,31,65,33,49,1025,13.0,620,461,60,120.0,0,1,374,242,65,0,0,22,-1,250,0,,,,,,,,,,,,
67103,1560694230346,-2,2.15,2.38,3.17,2.11,5.05,0.45,0.08,0.86,0,1,-1,0.46,6597,31,65,33,51,1021,24.0,612,461,60,120.0,0,1,377,252,65,0,0,22,-1,-1,24,,,,,,,,,,,,
67123,1560694230366,1,2.15,2.37,3.17,2.12,5.07,0.51,0.05,0.94,-0,0,-1,0.51,6399,31,65,33,53,1020,31.0,596,457,60,121.0,2666,1,382,264,64,0,0,22,-1,-1,24,,,,,,,,,,,,
67143,1560694230386,2,2.15,2.37,3.17,2.13,5.08,0.45,0.01,1.02,-0,-2,-2,0.45,6186,31,65,33,56,1021,31.0,586,463,60,120.0,2666,1,385,270,64,0,0,36,-1,-1,24,45.700268,4.909419,1.64,196.0,0,0.0,-1,0.0,0.0,0,0.0,1.1191
67163,1560694230406,2,2.14,2.38,3.17,2.13,5.05,0.44,0.0,1.08,-0,-4,-3,0.44,5933,31,65,33,58,1024,38.0,569,454,60,121.0,2666,1,377,265,64,0,0,36,-1,24067,38,,,,,,,,,,,,
67183,1560694230426,0,2.13,2.38,3.16,2.13,5.04,0.57,-0.0,1.16,-1,-7,-3,0.57,5739,31,65,33,60,1027,43.0,550,451,60,121.0,2666,1,359,265,64,0,0,36,-235,24067,38,,,,,,,,,,,,
67203,1560694230446,3,2.13,2.37,3.15,2.14,5.06,0.68,-0.03,1.15,-3,-6,-2,0.68,5509,31,65,33,61,1029,43.0,536,462,60,120.0,2666,1,339,277,64,0,0,47,-235,24067,38,,,,,,,,,,,,
67223,1560694230466,-0,2.13,2.37,3.15,2.14,5.03,0.56,-0.01,1.1,-2,-5,-3,0.56,5374,31,65,33,64,1031,52.0,514,465,60,119.0,1234,1,321,297,58,0,0,47,-1,-1,47,,,,,,,,,,,,
67243,1560694230486,2,2.12,2.38,3.15,2.14,5.04,0.69,-0.01,1.09,-3,-5,-2,0.69,5079,31,65,33,66,1029,52.0,498,451,60,121.0,1234,1,293,317,58,0,0,55,-1,-1,47,45.700268,4.90942,2.86,195.9,0,0.0,-1,0.0,0.0,0,0.0,1.1207
67263,1560694230506,2,2.13,2.37,3.15,2.14,5.05,0.65,0.03,1.05,-2,-5,-3,0.65,4805,31,65,33,69,1028,59.0,460,465,60,121.0,1234,1,287,329,58,0,0,55,-1,-1,55,,,,,,,,,,,,
67283,1560694230526,1,2.12,2.37,3.14,2.14,5.06,0.63,0.09,1.0,-2,-5,-2,0.64,4570,32,65,33,71,1032,59.0,439,468,60,121.0,1234,1,291,335,58,0,0,63,-1,-1,55,,,,,,,,,,,,
67303,1560694230546,-1,2.11,2.38,3.14,2.15,5.04,0.61,0.12,1.01,-1,-3,-2,0.62,4386,32,65,33,73,1036,66.0,418,466,60,122.0,1234,1,293,337,58,0,0,63,14054,-6656,62,,,,,,,,,,,,
67323,1560694230566,0,2.11,2.37,3.13,2.15,5.07,0.63,0.1,1.05,-1,-5,-2,0.64,4127,32,65,33,75,1042,66.0,392,465,60,122.0,854,1,297,332,53,0,0,69,14054,-6656,62,,,,,,,,,,,,
67343,1560694230586,5,2.11,2.37,3.13,2.15,5.03,0.59,0.07,1.07,-2,-5,-3,0.59,4008,33,65,34,76,1047,72.0,379,458,60,119.0,854,1,298,333,53,0,0,75,250,-24064,68,45.700268,4.90942,4.4,195.8,0,0.0,-1,0.0,0.0,0,0.0,1.1224
67363,1560694230608,-1,2.11,2.37,3.13,2.16,5.07,0.59,0.06,1.05,-2,-4,-4,0.59,3970,33,65,34,78,1061,72.0,365,465,60,122.0,854,1,294,354,53,0,0,75,250,250,68,,,,,,,,,,,,
67383,1560694230628,4,2.11,2.37,3.13,2.18,5.04,0.63,0.02,1.04,-2,-4,-3,0.63,3827,33,65,34,79,1073,78.0,360,452,60,120.0,854,1,277,353,53,0,0,80,14256,250,73,,,,,,,,,,,,
67403,1560694230648,-2,2.11,2.37,3.12,2.19,5.05,0.63,0.03,1.04,-2,-4,-3,0.63,3738,33,65,34,80,1081,83.0,349,462,60,121.0,854,1,267,354,53,0,0,80,-1481,-16896,79,,,,,,,,,,,,
67423,1560694230668,1,2.1,2.36,3.12,2.19,5.04,0.62,0.03,1.05,-2,-2,-4,0.62,3543,33,65,34,81,1090,83.0,343,460,60,120.0,607,1,244,343,48,0,0,85,-1481,-16896,79,,,,,,,,,,,,
67443,1560694230688,5,2.1,2.37,3.11,2.2,5.04,0.61,0.04,1.03,-3,-5,-4,0.62,3427,33,65,34,83,1103,88.0,325,469,60,120.0,607,1,237,345,48,0,0,90,250,-13312,83,45.700272,4.909421,5.91,195.8,0,0.0,-1,0.0,0.0,0,0.0,1.1241
67463,1560694230707,0,2.1,2.37,3.11,2.19,5.07,0.58,0.05,1.01,-3,-7,-3,0.58,3327,33,65,34,85,1117,92.0,315,461,60,122.0,607,1,233,334,48,0,0,94,250,-1481,87,,,,,,,,,,,,
67483,1560694230727,1,2.09,2.36,3.08,2.21,5.04,0.58,0.1,1.02,-3,-4,-4,0.59,3250,33,65,34,85,1121,92.0,309,460,60,121.0,607,1,230,330,48,0,0,94,250,-22528,87,,,,,,,,,,,,
67503,1560694230747,-1,2.09,2.37,3.07,2.2,5.04,0.62,0.17,1.01,-3,-2,-5,0.65,3127,33,65,34,86,1127,96.0,297,457,60,121.0,607,1,225,320,48,0,0,99,250,-22528,92,,,,,,,,,,,,
67523,1560694230767,5,2.09,2.36,3.07,2.2,5.07,0.63,0.19,1.02,-3,-3,-6,0.66,2842,33,65,34,87,1138,100.0,282,460,60,122.0,333,1,213,306,32,0,0,102,250,250,96,,,,,,,,,,,,
67543,1560694230787,-1,2.09,2.35,3.07,2.21,5.04,0.64,0.18,1.01,-3,-6,-4,0.66,2493,34,65,34,88,1144,104.0,260,466,60,122.0,333,1,199,295,32,0,0,106,250,-1482,99,45.700272,4.909422,7.71,195.7,0,0.0,-1,0.0,0.0,0,0.0,1.1257
67563,1560694230807,3,2.09,2.36,3.07,2.21,5.05,0.54,0.13,1.03,-3,-5,-6,0.56,2389,34,65,34,91,1149,108.0,247,462,60,120.0,333,1,201,321,32,0,0,109,250,250,99,,,,,,,,,,,,
67583,1560694230827,-0,2.08,2.35,3.07,2.22,5.08,0.61,0.15,0.96,-3,-2,-7,0.63,2170,34,65,34,92,1152,111.0,233,466,60,122.0,333,1,201,337,32,0,0,109,-1482,13844,103,,,,,,,,,,,,
67603,1560694230847,-1,2.08,2.35,3.07,2.22,5.07,0.62,0.13,0.95,-4,-4,-7,0.63,2092,34,65,34,94,1165,111.0,223,465,60,121.0,333,1,207,371,32,0,0,112,13850,-1482,105,,,,,,,,,,,,
67623,1560694230867,1,2.07,2.34,3.07,2.22,5.06,0.58,0.13,0.92,-4,-3,-8,0.6,1887,34,65,34,94,1174,114.0,216,455,60,118.0,250,1,204,366,27,0,0,114,13850,13850,108,,,,,,,,,,,,
67643,1560694230887,-2,2.08,2.32,3.07,2.21,5.06,0.66,0.11,0.86,-4,-3,-8,0.67,1831,35,65,34,94,1181,116.0,206,465,60,121.0,250,1,199,361,27,0,0,116,250,13850,110,45.700275,4.909424,8.98,195.7,0,0.0,-1,0.0,0.0,0,0.0,1.1274
67663,1560694230907,0,2.07,2.3,3.09,2.18,5.06,0.67,0.09,0.89,-5,-4,-8,0.67,1964,38,65,34,96,1188,117.0,208,460,60,122.0,250,1,210,397,27,0,0,118,8192,5120,109,,,,,,,,,,,,
67683,1560694230927,4,2.06,2.28,3.11,2.17,5.04,0.68,0.08,0.86,-5,-3,-8,0.68,2063,42,65,34,95,1197,119.0,212,468,60,120.0,250,1,214,403,27,0,0,118,-1482,250,109,,,,,,,,,,,,
67703,1560694230947,0,2.05,2.28,3.13,2.16,5.04,0.69,0.1,0.82,-5,-2,-9,0.69,2196,48,65,34,96,1205,119.0,213,461,60,121.0,250,1,218,393,27,0,0,118,-1482,5120,109,,,,,,,,,,,,
67723,1560694230967,3,2.04,2.29,3.14,2.15,5.04,0.62,0.09,0.81,-6,-4,-9,0.63,2198,53,65,34,97,1210,119.0,218,463,60,121.0,321,1,222,428,35,0,0,119,-1482,13844,109,,,,,,,,,,,,
67743,1560694230987,0,2.04,2.28,3.13,2.13,5.04,0.68,0.09,0.74,-6,-2,-8,0.69,2179,57,65,34,97,1213,120.0,219,462,60,121.0,321,1,222,427,35,0,0,120,250,-1482,109,45.700279,4.909425,10.33,195.7,0,0.0,-1,0.0,0.0,0,0.0,1.1291
67763,1560694231001,2,2.05,2.29,3.13,2.13,5.05,0.63,0.09,0.78,-6,-1,-9,0.63,2206,59,65,34,98,1230,120.0,220,458,60,122.0,321,1,228,449,35,0,0,120,250,-1482,110,,,,,,,,,,,,
67783,1560694231021,-0,2.04,2.29,3.13,2.12,5.04,0.66,0.08,0.72,-7,0,-9,0.66,2271,60,65,34,97,1250,121.0,221,462,60,122.0,321,1,225,434,35,0,0,120,9728,-1482,110,,,,,,,,,,,,
67803,1560694231041,4,2.04,2.29,3.13,2.12,5.04,0.61,0.07,0.74,-7,-0,-9,0.61,2329,60,65,34,98,1269,122.0,227,462,60,122.0,321,1,233,458,35,0,0,122,13862,6656,110,,,,,,,,,,,,
67823,1560694231061,-2,2.05,2.3,3.14,2.12,5.05,0.66,0.07,0.73,-7,-0,-9,0.67,2313,60,65,34,98,1292,124.0,226,465,60,122.0,342,1,227,436,38,0,0,122,250,-1482,111,,,,,,,,,,,,
67843,1560694231081,5,2.05,2.31,3.13,2.13,5.04,0.63,0.05,0.77,-8,-1,-10,0.63,2301,60,65,34,98,1326,125.0,226,462,60,121.0,342,1,232,452,38,0,0,124,11264,8192,113,45.700279,4.909426,10.9,195.6,0,0.0,-1,0.0,0.0,0,0.0,1.1307
67863,1560694231105,-2,2.05,2.31,3.13,2.13,5.05,0.68,0.06,0.72,-8,-1,-10,0.68,2263,60,65,34,98,1370,127.0,224,471,60,122.0,342,1,230,453,38,0,0,126,-202,-1482,115,,,,,,,,,,,,
67883,1560694231125,1,2.05,2.31,3.13,2.13,5.04,0.61,0.06,0.73,-8,-3,-9,0.61,2308,60,65,34,98,1406,128.0,226,463,60,120.0,342,1,232,456,38,0,0,127,-1,-1482,116,,,,,,,,,,,,
67903,1560694231145,-0,2.06,2.32,3.14,2.12,5.04,0.7,0.07,0.76,-8,-0,-9,0.71,2374,60,65,34,98,1439,129.0,227,463,60,122.0,342,1,234,461,38,0,0,128,-1,250,117,,,,,,,,,,,,
67923,1560694231165,-1,2.05,2.32,3.14,2.13,5.04,0.67,0.05,0.76,-8,-4,-8,0.67,2429,60,65,34,97,1465,131.0,233,460,60,121.0,352,1,232,444,42,0,0,129,-1,-1482,119,,,,,,,,,,,,
67943,1560694231185,2,2.06,2.32,3.13,2.12,5.06,0.58,0.03,0.77,-8,0,-10,0.58,2420,60,65,34,98,1492,133.0,235,462,60,121.0,352,1,236,465,42,0,0,132,-1,11264,121,45.700283,4.909427,11.12,195.6,0,0.0,-1,0.0,0.0,0,0.0,1.1324
67963,1560694231207,0,2.05,2.32,3.11,2.14,5.06,0.67,0.04,0.72,-9,-1,-9,0.67,2435,61,65,34,97,1498,135.0,232,467,60,122.0,352,1,232,444,42,0,0,134,-1,-202,124,,,,,,,,,,,,
67983,1560694231227,-1,2.07,2.32,3.1,2.13,5.04,0.61,0.04,0.78,-9,-6,-8,0.61,2477,62,65,34,97,1498,135.0,236,455,60,119.0,352,1,234,448,42,0,0,136,-1,-1,124,,,,,,,,,,,,
68003,1560694231247,0,2.07,2.31,3.11,2.12,5.05,0.63,0.07,0.77,-7,2,-10,0.64,2480,64,65,34,98,1498,136.0,238,460,60,121.0,352,1,239,469,42,0,0,137,-1,-1,126,,,,,,,,,,,,
68023,1560694231267,-1,2.07,2.31,3.11,2.11,5.04,0.64,0.06,0.74,-8,-3,-9,0.64,2503,65,65,34,97,1498,138.0,237,466,60,122.0,349,1,235,450,44,0,0,138,-1,-1,128,,,,,,,,,,,,
68043,1560694231287,-2,2.07,2.32,3.11,2.11,5.05,0.54,0.03,0.8,-8,-6,-8,0.54,2628,67,65,34,97,1498,141.0,246,458,60,119.0,349,1,235,469,44,0,0,140,5120,-1,129,45.700287,4.909428,11.45,195.5,0,0.0,-1,0.0,0.0,0,0.0,1.1341
68063,1560694231307,0,2.08,2.31,3.11,2.13,5.07,0.61,0.04,0.79,-8,3,-11,0.61,2693,69,65,34,97,1498,141.0,250,460,60,121.0,349,1,235,484,44,0,0,142,5120,-1,132,,,,,,,,,,,,
68083,1560694231327,2,2.07,2.33,3.11,2.14,5.04,0.71,0.07,0.8,-7,4,-11,0.71,2654,71,65,34,98,1497,144.0,248,457,60,121.0,349,1,240,497,44,0,0,145,-1,-1281,133,,,,,,,,,,,,
68103,1560694231347,-0,2.08,2.33,3.11,2.13,5.05,0.64,0.06,0.78,-8,-4,-9,0.65,2556,71,65,34,98,1491,145.0,248,466,60,122.0,349,1,235,457,44,0,0,146,-1,250,135,,,,,,,,,,,,
68123,1560694231367,-1,2.08,2.33,3.12,2.13,5.07,0.64,0.02,0.8,-8,-3,-9,0.64,2524,72,65,34,97,1486,146.0,245,455,60,119.0,313,1,240,474,43,0,0,146,-1,-1281,137,,,,,,,,,,,,
68143,1560694231387,0,2.09,2.32,3.13,2.13,5.04,0.65,0.07,0.75,-8,5,-11,0.65,2598,72,66,34,98,1481,148.0,246,462,60,122.0,313,1,240,483,43,0,0,147,-1,-1,137,45.700287,4.909429,12.35,195.5,0,0.0,-1,0.0,0.0,0,0.0,1.1357
68163,1560694231407,3,2.09,2.3,3.17,2.11,5.08,0.73,0.1,0.74,-8,3,-12,0.74,2752,73,66,34,98,1475,149.0,255,461,60,122.0,313,1,236,484,43,0,0,149,-1,-1,137,,,,,,,,,,,,
68183,1560694231427,0,2.09,2.3,3.15,2.09,5.06,0.72,0.08,0.77,-9,-4,-10,0.72,2723,73,66,34,97,1467,150.0,258,465,60,120.0,313,1,236,480,43,0,0,150,-1,250,138,,,,,,,,,,,,
68203,1560694231447,-1,2.09,2.3,3.14,2.1,5.08,0.64,0.07,0.73,-8,-4,-9,0.65,2623,73,66,34,97,1462,151.0,252,460,60,121.0,313,1,235,464,43,0,0,151,-1281,5140,139,,,,,,,,,,,,
68223,1560694231467,-2,2.1,2.31,3.13,2.1,5.07,0.7,0.05,0.71,-8,1,-11,0.7,2612,73,66,34,98,1458,151.0,254,459,60,120.0,335,1,240,482,47,0,0,150,-1281,5120,140,,,,,,,,,,,,
68243,1560694231487,-1,2.09,2.3,3.15,2.1,5.06,0.77,0.11,0.64,-8,5,-12,0.78,2713,74,66,34,98,1459,151.0,256,459,60,122.0,335,1,240,502,47,0,0,151,-1281,-1281,140,45.700291,4.90943,13.09,195.5,0,0.0,-1,0.0,0.0,0,0.0,1.1374
68263,1560694231507,4,2.09,2.3,3.16,2.1,5.07,0.81,0.12,0.68,-8,1,-12,0.82,2814,75,66,34,97,1464,151.0,259,462,60,122.0,335,1,236,495,47,0,0,150,-1281,250,140,,,,,,,,,,,,
68283,1560694231527,-1,2.1,2.31,3.16,2.11,5.07,0.75,0.09,0.69,-9,-4,-10,0.75,2693,75,66,34,97,1467,151.0,260,467,60,120.0,335,1,235,475,47,0,0,151,-1281,5120,141,,,,,,,,,,,,
68303,1560694231547,0,2.09,2.31,3.17,2.11,5.07,0.67,0.09,0.68,-8,-5,-10,0.68,2626,75,66,34,97,1475,151.0,254,457,60,120.0,335,1,235,465,47,0,0,151,-1281,5120,141,,,,,,,,,,,,
68323,1560694231567,0,2.09,2.3,3.17,2.09,5.08,0.68,0.08,0.67,-8,0,-11,0.69,2769,75,66,34,98,1485,152.0,257,459,60,119.0,347,1,240,512,49,0,0,150,250,250,141,,,,,,,,,,,,
68343,1560694231587,0,2.1,2.3,3.17,2.09,5.08,0.73,0.11,0.65,-8,5,-12,0.74,2858,75,66,34,97,1490,151.0,263,456,60,122.0,347,1,236,527,49,0,0,151,-1281,250,141,45.700294,4.909432,13.93,195.5,0,0.0,-1,0.0,0.0,0,0.0,1.1391
68363,1560694231605,-2,2.1,2.31,3.17,2.1,5.04,0.75,0.14,0.61,-8,7,-13,0.76,2846,75,66,34,97,1498,152.0,263,457,60,122.0,347,1,236,499,49,0,0,151,250,5140,141,,,,,,,,,,,,
68383,1560694231625,3,2.11,2.31,3.17,2.08,5.05,0.84,0.14,0.65,-8,4,-13,0.86,2767,75,66,34,98,1498,153.0,261,460,60,122.0,347,1,240,487,49,0,0,152,-23552,-236,141,,,,,,,,,,,,
68403,1560694231645,4,2.11,2.31,3.17,2.08,5.03,0.9,0.15,0.67,-8,0,-12,0.91,2837,75,66,34,98,1498,153.0,265,465,60,122.0,347,1,236,497,49,0,0,153,-23552,5140,142,,,,,,,,,,,,
68423,1560694231665,3,2.12,2.32,3.17,2.07,5.04,0.89,0.16,0.72,-8,-5,-11,0.91,2996,75,66,34,97,1498,155.0,266,465,60,122.0,412,1,237,522,59,0,0,155,-165,-1,143,,,,,,,,,,,,
68443,1560694231685,3,2.12,2.33,3.16,2.09,5.04,0.91,0.17,0.74,-9,-7,-10,0.92,2921,76,66,34,97,1498,156.0,273,465,60,120.0,412,1,237,510,59,0,0,156,-1,-1,143,45.700298,4.909433,14.18,195.5,0,0.0,-1,0.0,0.0,0,0.0,1.1407
68463,1560694231706,3,2.13,2.33,3.16,2.1,5.04,0.92,0.17,0.74,-9,-10,-9,0.93,2940,76,66,34,97,1498,156.0,270,465,60,121.0,412,1,237,513,59,0,0,156,-1,250,146,,,,,,,,,,,,
68483,1560694231726,2,2.15,2.32,3.16,2.1,5.03,0.92,0.15,0.77,-9,-13,-7,0.93,2931,76,66,34,97,1498,158.0,270,466,60,121.0,412,1,237,511,59,0,0,159,-1,-165,150,,,,,,,,,,,,
68503,1560694231746,2,2.16,2.32,3.16,2.13,5.04,0.89,0.11,0.8,-9,-16,-6,0.9,2947,76,66,34,97,1498,159.0,272,465,60,120.0,412,1,237,514,59,0,0,161,-1281,-1,152,,,,,,,,,,,,
68523,1560694231766,2,2.17,2.33,3.15,2.16,5.04,0.88,0.08,0.82,-9,-20,-4,0.89,3058,76,66,34,97,1498,161.0,274,465,60,122.0,376,1,237,540,58,0,0,161,3072,-1281,154,,,,,,,,,,,,
68543,1560694231786,4,2.17,2.32,3.16,2.2,5.05,0.85,0.08,0.84,-9,-21,-3,0.85,3058,76,66,34,97,1498,162.0,277,464,60,120.0,376,1,237,540,58,0,0,163,10764,-1494,156,45.700302,4.909434,14.13,195.5,0,0.0,-1,0.0,0.0,0,0.0,1.1424
68563,1560694231806,-1,2.19,2.32,3.11,2.25,5.07,0.82,0.09,0.83,-8,-19,-4,0.83,3167,76,66,34,97,1498,165.0,283,460,60,122.0,376,1,238,570,58,0,0,165,30720,250,158,,,,,,,,,,,,
68583,1560694231826,-0,2.2,2.31,3.07,2.23,5.08,0.81,0.13,0.82,-8,-17,-4,0.82,3298,76,66,34,97,1498,166.0,292,456,60,121.0,376,1,238,606,58,0,0,169,888,-253,161,,,,,,,,,,,,
68603,1560694231846,1,2.19,2.31,3.05,2.21,5.04,0.73,0.13,0.83,-7,-13,-4,0.74,3381,76,66,34,97,1498,167.0,305,457,60,119.0,376,1,239,631,58,0,0,170,-253,10620,165,,,,,,,,,,,,
68623,1560694231866,4,2.2,2.32,3.05,2.22,5.05,0.76,0.1,0.89,-7,-13,-4,0.77,3446,76,66,34,97,1498,170.0,304,463,60,120.0,494,1,239,649,83,0,0,174,31744,5134,168,,,,,,,,,,,,
68643,1560694231886,-0,2.22,2.33,3.05,2.25,5.05,0.72,0.1,0.9,-6,-13,-5,0.73,3425,76,66,34,97,1498,176.0,313,462,60,121.0,494,1,239,643,83,0,0,180,250,-1,173,45.700306,4.909435,14.72,195.5,0,0.0,-1,0.0,0.0,0,0.0,1.144
68663,1560694231906,1,2.21,2.34,3.06,2.28,5.03,0.73,0.12,0.93,-6,-11,-4,0.74,3469,76,66,34,97,1495,177.0,310,448,60,121.0,494,1,239,655,83,0,0,182,3584,-1,176,,,,,,,,,,,,
68683,1560694231926,4,2.22,2.36,3.06,2.28,5.06,0.7,0.04,0.95,-5,-12,-4,0.7,3504,76,66,34,97,1489,183.0,317,465,60,121.0,494,1,240,665,83,0,0,187,-1,-1,179,,,,,,,,,,,,
68703,1560694231946,0,2.22,2.38,3.06,2.28,5.08,0.62,0.09,0.9,-5,-10,-5,0.63,3553,76,66,34,97,1485,186.0,314,459,60,122.0,494,1,246,666,83,0,0,191,-1,250,185,,,,,,,,,,,,
68723,1560694231966,2,2.22,2.41,3.06,2.3,5.03,0.62,0.1,0.92,-4,-9,-4,0.62,3681,76,66,34,97,1479,191.0,326,459,60,119.0,484,1,260,669,91,0,0,195,-1281,-1481,188,,,,,,,,,,,,
68743,1560694231986,0,2.23,2.46,3.06,2.29,5.06,0.6,0.14,0.92,-3,-8,-4,0.62,3773,76,66,34,97,1459,193.0,332,464,60,122.0,484,1,271,671,91,0,0,199,-2560,14412,190,45.70031,4.909436,15.98,195.4,0,0.0,-1,0.0,0.0,0,0.0,1.1457
68763,1560694232000,5,2.23,2.46,3.08,2.28,5.05,0.63,0.11,0.93,-3,-10,-4,0.64,3911,76,66,34,97,1428,198.0,345,453,60,119.0,484,1,287,673,91,0,0,206,14412,-1482,194,,,,,,,,,,,,
68783,1560694232020,1,2.24,2.44,3.08,2.28,5.04,0.58,0.08,0.98,-4,-8,-3,0.59,3997,76,66,34,97,1393,201.0,350,444,60,120.0,484,1,296,675,91,0,0,206,12800,-14848,200,,,,,,,,,,,,
68803,1560694232040,-1,2.26,2.44,3.08,2.28,5.06,0.57,0.07,0.99,-4,-6,-3,0.58,4084,77,66,34,97,1373,208.0,366,473,60,121.0,484,1,296,676,91,0,0,216,250,-1532,204,,,,,,,,,,,,
68823,1560694232060,-0,2.26,2.47,3.07,2.29,5.05,0.55,0.05,0.97,-4,-6,-3,0.55,4117,77,66,34,97,1339,210.0,365,452,60,120.0,502,1,296,671,104,0,0,219,966,250,210,,,,,,,,,,,,
68843,1560694232080,5,2.26,2.49,3.09,2.29,5.05,0.51,0.01,1.0,-4,-7,-2,0.51,4175,77,66,34,97,1299,216.0,374,446,60,120.0,502,1,295,672,104,0,0,221,250,250,215,45.700314,4.909437,17.41,195.4,0,0.0,-1,0.0,0.0,0,0.01,1.1474
68863,1560694232106,4,2.27,2.52,3.15,2.28,5.04,0.51,0.02,1.0,-4,-4,-1,0.51,4208,77,66,34,97,1265,221.0,380,443,60,120.0,502,1,294,672,104,0,0,229,15360,250,218,,,,,,,,,,,,
68883,1560694232126,2,2.29,2.53,3.15,2.29,5.08,0.53,0.03,0.98,-4,-4,-2,0.53,4259,78,66,34,97,1255,225.0,382,466,60,122.0,502,1,293,672,104,0,0,233,-1496,13468,223,,,,,,,,,,,,
68903,1560694232146,2,2.29,2.53,3.09,2.28,5.05,0.55,0.07,0.96,-3,-5,-1,0.56,4382,78,66,34,97,1221,230.0,391,468,60,121.0,502,1,291,673,104,0,0,235,10824,-1483,229,,,,,,,,,,,,
68923,1560694232166,1,2.32,2.52,3.11,2.29,5.06,0.56,0.09,0.96,-2,-3,-0,0.56,4510,78,66,34,96,1193,233.0,404,461,60,121.0,495,1,289,645,114,0,0,239,250,250,233,,,,,,,,,,,,
68943,1560694232186,4,2.31,2.49,3.14,2.27,5.06,0.55,0.09,1.01,-2,-4,-1,0.56,4659,78,66,34,97,1154,236.0,420,465,60,120.0,495,1,286,648,114,0,0,243,13602,250,236,45.700321,4.909438,19.23,195.4,0,0.0,-1,0.0,0.0,0,0.01,1.149
68963,1560694232206,-0,2.33,2.49,3.14,2.28,5.04,0.53,0.11,1.02,-1,-5,-1,0.54,4767,78,66,34,96,1137,241.0,422,462,60,120.0,495,1,284,650,114,0,0,253,250,10818,241,,,,,,,,,,,,
68983,1560694232226,-1,2.33,2.48,3.13,2.29,5.07,0.45,0.04,0.97,-0,-3,-1,0.45,4895,78,66,34,96,1096,246.0,437,452,60,119.0,495,1,281,651,114,0,0,257,250,506,246,,,,,,,,,,,,
69003,1560694232246,1,2.34,2.49,3.11,2.36,5.06,0.36,0.11,0.92,1,-1,0,0.38,4990,78,66,34,95,1047,252.0,445,456,60,122.0,495,1,280,628,114,0,0,262,10818,-1,252,,,,,,,,,,,,
69023,1560694232266,0,2.34,2.49,3.06,2.36,5.04,0.4,0.08,1.03,1,-0,0,0.41,5071,78,66,34,95,1014,258.0,455,461,60,121.0,468,1,281,623,119,0,0,266,-1281,28160,258,,,,,,,,,,,,
69043,1560694232286,3,2.34,2.49,3.03,2.38,5.08,0.41,0.05,1.06,2,-2,-1,0.41,5214,78,66,34,95,983,264.0,476,449,60,121.0,468,1,287,615,119,0,0,270,14337,250,264,45.700325,4.909439,21.27,195.3,0,0.0,-1,0.0,0.0,0,0.01,1.1507
69063,1560694232306,-1,2.35,2.49,3.03,2.37,5.04,0.4,0.03,1.08,2,-2,-1,0.4,5293,78,66,34,94,961,269.0,483,461,60,121.0,468,1,290,590,119,0,0,276,-1,-1534,269,,,,,,,,,,,,
69083,1560694232326,4,2.35,2.49,3.09,2.38,5.05,0.39,-0.02,1.12,2,-2,0,0.39,5355,78,66,34,94,919,274.0,487,453,60,121.0,468,1,292,588,119,0,0,296,-1,1886,274,,,,,,,,,,,,
69103,1560694232346,1,2.35,2.49,3.08,2.39,5.05,0.34,0.01,1.01,4,1,2,0.34,5488,78,66,34,94,890,278.0,494,456,60,119.0,468,1,295,584,119,0,0,310,2414,0,280,,,,,,,,,,,,
69123,1560694232366,-1,2.36,2.5,3.1,2.38,5.04,0.47,0.04,1.1,3,-5,4,0.48,5598,78,66,34,94,884,285.0,506,461,60,121.0,429,1,301,576,122,0,0,301,1886,21760,285,,,,,,,,,,,,
69143,1560694232386,1,2.36,2.56,3.12,2.38,5.03,0.52,-0.08,1.14,1,-2,4,0.52,5740,78,66,34,94,874,291.0,517,458,60,121.0,429,1,307,554,122,0,0,310,250,28160,291,45.700329,4.90944,23.08,195.2,0,0.0,-1,0.0,0.0,0,0.01,1.1524
69163,1560694232406,-1,2.37,2.56,3.12,2.36,5.04,0.48,-0.12,1.16,1,0,3,0.5,5879,78,66,34,94,867,296.0,528,450,60,120.0,429,1,312,563,122,0,0,306,20480,-29696,296,,,,,,,,,,,,
69183,1560694232426,-2,2.36,2.56,3.13,2.36,5.05,0.42,-0.1,1.13,2,2,4,0.43,5982,78,66,34,93,859,303.0,538,452,60,120.0,429,1,316,557,122,0,0,317,25600,-27136,306,,,,,,,,,,,,
69203,1560694232446,-1,2.37,2.56,3.12,2.4,5.03,0.41,-0.21,1.15,3,6,5,0.46,6038,78,66,34,94,859,311.0,548,448,60,120.0,429,1,318,557,122,0,0,320,105,150,311,,,,,,,,,,,,
69223,1560694232466,1,2.37,2.56,3.12,2.42,5.07,0.5,-0.31,1.23,2,6,6,0.59,6060,78,66,34,94,859,315.0,550,452,60,121.0,406,1,320,556,128,0,0,326,115,-12032,319,,,,,,,,,,,,
69243,1560694232486,0,2.37,2.55,3.11,2.42,5.04,0.53,-0.45,1.3,2,4,6,0.7,6097,78,66,34,94,862,322.0,546,450,60,120.0,406,1,321,556,128,0,0,329,135,-32559,322,45.700336,4.909441,25.99,195.2,0,0.0,-1,0.0,0.0,0,0.01,1.154
69263,1560694232506,-1,2.38,2.54,3.09,2.42,5.05,0.59,-0.5,1.32,2,3,6,0.77,6169,78,66,34,94,864,328.0,555,449,60,121.0,406,1,325,556,128,0,0,328,-28416,3327,328,,,,,,,,,,,,
69283,1560694232526,4,2.37,2.54,3.09,2.42,5.04,0.68,-0.54,1.38,2,2,6,0.87,6260,78,66,34,94,867,335.0,563,462,60,120.0,406,1,330,555,128,0,0,338,155,6668,335,,,,,,,,,,,,
69303,1560694232546,4,2.37,2.53,3.09,2.46,5.04,0.64,-0.48,1.29,3,0,5,0.81,6353,78,66,34,94,867,336.0,575,457,60,119.0,406,1,335,555,128,0,0,337,165,-10554,337,,,,,,,,,,,,
69323,1560694232566,-0,2.37,2.53,3.09,2.53,5.04,0.56,-0.41,1.24,4,1,6,0.69,6510,78,66,34,94,857,342.0,588,463,60,119.0,397,1,343,554,135,0,0,350,170,28553,342,,,,,,,,,,,,
69343,1560694232586,5,2.37,2.41,3.1,2.37,5.07,0.56,-0.37,1.3,5,1,7,0.67,6634,78,66,34,93,848,347.0,594,457,60,120.0,397,1,350,551,135,0,0,350,-12032,3302,347,45.700344,4.909442,28.52,195.2,0,0.0,-1,0.0,0.0,0,0.01,1.1557
69363,1560694232606,-0,2.37,2.36,3.13,2.17,5.04,0.42,-0.3,1.29,8,5,7,0.52,6768,78,66,34,93,836,353.0,605,457,60,119.0,397,1,358,551,135,0,0,356,6668,-6458,357,,,,,,,,,,,,
69383,1560694232626,1,2.37,2.38,3.2,2.2,5.04,0.48,-0.25,1.28,7,2,6,0.55,6870,78,66,34,93,820,357.0,611,461,60,120.0,397,1,363,552,135,0,0,375,-30438,2790,360,,,,,,,,,,,,
69403,1560694232646,4,2.36,2.48,3.23,2.22,5.07,0.46,-0.27,1.29,7,4,6,0.53,7025,78,66,34,92,803,358.0,616,452,60,121.0,397,1,372,556,135,0,0,392,28553,-6405,358,,,,,,,,,,,,
69423,1560694232666,3,2.35,2.46,3.28,2.2,5.05,0.27,-0.23,1.19,8,5,5,0.36,7167,78,66,34,92,786,359.0,618,459,60,120.0,425,1,384,563,152,0,0,396,4104,486,359,,,,,,,,,,,,
69443,1560694232686,3,2.35,2.39,3.29,2.23,5.04,0.23,-0.21,1.12,6,4,8,0.31,7367,78,66,34,91,780,367.0,620,459,60,119.0,425,1,399,572,152,0,0,380,-6458,770,367,45.700348,4.909444,31.51,195.2,0,0.0,-1,0.0,0.0,0,0.01,1.1574
69463,1560694232707,3,2.35,2.48,3.17,2.31,5.05,0.28,-0.31,1.11,6,4,10,0.41,7452,78,66,34,91,774,373.0,632,460,60,119.0,425,1,407,576,152,0,0,380,0,11545,373,,,,,,,,,,,,
69483,1560694232727,3,2.35,2.64,3.21,2.4,5.06,0.17,-0.29,1.04,7,2,11,0.34,7584,77,66,34,90,766,377.0,627,460,60,119.0,425,1,413,579,152,0,0,410,486,9517,378,,,,,,,,,,,,
69503,1560694232747,5,2.36,2.72,2.99,2.47,5.05,-0.04,-0.19,0.88,8,6,12,0.2,7703,77,66,34,89,757,381.0,632,462,60,119.0,425,1,425,577,152,0,0,413,-6656,-3856,383,,,,,,,,,,,,
69523,1560694232767,17,2.36,2.7,2.73,2.53,5.04,0.05,-0.22,0.99,11,12,9,0.23,7868,76,66,34,88,754,385.0,632,460,60,119.0,441,1,436,563,170,0,0,391,8200,11545,385,,,,,,,,,,,,
69543,1560694232787,-0,2.35,2.55,2.76,2.58,5.04,0.09,-0.28,1.09,12,8,10,0.3,7871,72,66,34,85,749,396.0,632,453,60,120.0,441,1,431,543,170,0,0,411,-992,13040,396,45.700359,4.909446,33.47,195.1,0,0.0,-1,0.0,0.0,0,0.01,1.159
69563,1560694232805,1,2.35,2.49,2.88,2.63,5.07,0.2,-0.2,1.18,12,8,7,0.29,7878,67,66,34,82,747,404.0,636,452,60,120.0,441,1,430,514,170,0,0,461,-18948,-18341,404,,,,,,,,,,,,
69583,1560694232825,3,2.33,2.49,3.02,2.65,5.06,0.15,-0.16,1.1,11,3,9,0.21,7999,64,66,34,80,743,412.0,639,460,60,119.0,441,1,437,497,170,0,0,474,-992,-21944,412,,,,,,,,,,,,
69603,1560694232845,3,2.33,2.52,3.06,2.63,5.08,0.18,-0.1,0.96,9,1,11,0.21,8162,63,66,34,76,742,412.0,642,457,60,120.0,441,1,435,477,170,0,0,404,-18948,2131,412,,,,,,,,,,,,
69623,1560694232865,13,2.33,2.58,3.11,2.61,5.04,0.16,-0.06,0.92,7,-3,15,0.17,8359,63,66,34,74,742,414.0,641,454,60,120.0,342,1,432,450,141,0,0,422,19125,-9203,414,,,,,,,,,,,,
69643,1560694232885,3,2.34,2.58,3.23,2.52,5.06,0.1,-0.09,0.91,9,0,13,0.14,8553,62,66,34,71,741,416.0,648,460,60,120.0,342,1,428,433,141,0,0,455,9517,-32768,416,45.700367,4.909449,35.61,195.1,0,0.0,-1,0.0,0.0,0,0.01,1.1607
69663,1560694232907,2,2.34,2.55,3.29,2.51,5.05,0.21,-0.11,0.96,10,1,11,0.24,8869,60,66,34,70,740,423.0,653,461,60,120.0,342,1,418,413,141,0,0,489,-9166,-16384,424,,,,,,,,,,,,
69683,1560694232927,3,2.33,2.52,3.29,2.56,5.05,0.23,-0.26,1.06,9,0,10,0.35,9119,62,66,34,68,739,428.0,658,465,60,120.0,342,1,413,393,141,0,0,492,-26615,23400,428,,,,,,,,,,,,
69703,1560694232947,4,2.33,2.5,3.27,2.57,5.05,0.23,-0.23,0.97,8,5,9,0.32,9218,61,66,34,67,737,434.0,656,462,60,120.0,342,1,412,389,141,0,0,513,-8165,-23623,434,,,,,,,,,,,,
69723,1560694232967,2,2.31,2.5,3.15,2.54,5.04,0.02,-0.12,0.92,8,3,14,0.12,9236,61,66,34,66,740,438.0,657,464,60,119.0,308,1,412,389,135,0,0,470,3826,16383,440,,,,,,,,,,,,
69743,1560694232987,3,2.31,2.51,3.07,2.51,5.07,-0.05,0.06,0.93,8,6,16,0.07,9236,61,66,33,66,747,444.0,660,460,60,119.0,308,1,411,384,135,0,0,451,-3322,1780,444,45.700378,4.909452,39.27,195.0,0,0.0,-1,0.0,0.0,0,0.01,1.1624
69763,1560694232999,1,2.32,2.51,3.06,2.49,5.06,-0.0,0.1,0.91,9,4,15,0.1,9227,61,66,33,66,755,448.0,661,455,60,119.0,308,1,411,384,135,0,0,489,-28332,-6441,448,,,,,,,,,,,,
69783,1560694233019,3,2.3,2.5,3.07,2.52,5.04,0.2,-0.01,1.02,10,3,12,0.2,9173,61,66,33,66,764,453.0,657,460,60,120.0,308,1,410,384,135,0,0,522,-18341,-3210,453,,,,,,,,,,,,
69803,1560694233039,3,2.3,2.47,3.09,2.53,5.06,0.38,-0.2,1.11,8,-1,12,0.43,9128,62,66,33,66,774,457.0,655,457,60,120.0,308,1,409,384,135,0,0,511,-3267,-9203,462,,,,,,,,,,,,
69823,1560694233059,5,2.3,2.48,3.14,2.53,5.03,0.49,-0.29,1.2,7,0,12,0.57,9088,61,66,33,65,787,467.0,652,455,60,119.0,282,1,407,380,131,0,0,496,3571,-1818,467,,,,,,,,,,,,
69843,1560694233079,6,2.3,2.56,3.06,2.51,5.03,0.59,-0.34,1.16,5,-2,12,0.68,9075,61,66,33,66,799,466.0,656,458,60,120.0,282,1,408,384,131,0,0,471,-18108,-3414,466,45.700386,4.909455,40.71,195.0,0,0.0,-1,0.0,0.0,0,0.01,1.164
69863,1560694233107,4,2.3,2.57,3.0,2.44,5.04,0.56,-0.47,1.24,6,-4,11,0.73,9115,61,66,33,66,803,473.0,656,463,60,120.0,282,1,409,384,131,0,0,477,243,10408,473,,,,,,,,,,,,
69883,1560694233127,0,2.3,2.54,3.02,2.44,5.04,0.43,-0.38,1.12,7,-1,10,0.58,9213,61,66,33,65,808,478.0,651,463,60,120.0,282,1,410,384,131,0,0,483,8488,-6528,478,,,,,,,,,,,,
69903,1560694233147,1,2.29,2.5,3.08,2.46,5.06,0.25,-0.24,1.05,8,2,10,0.35,9328,61,66,33,65,817,482.0,655,461,60,119.0,282,1,410,380,131,0,0,508,3576,-32768,482,,,,,,,,,,,,
69923,1560694233167,2,2.29,2.44,3.12,2.45,5.06,0.24,-0.16,1.11,8,-1,10,0.29,9398,61,66,33,65,826,487.0,661,455,60,120.0,277,1,412,380,135,0,0,515,16648,11560,487,,,,,,,,,,,,
69943,1560694233187,5,2.29,2.41,3.13,2.45,5.06,0.39,-0.34,1.17,6,1,8,0.52,9493,61,66,33,65,832,491.0,661,453,60,120.0,277,1,414,380,135,0,0,512,10305,11560,491,45.700398,4.909459,43.23,194.9,0,0.0,-1,0.0,0.0,0,0.01,1.1657
69963,1560694233207,2,2.29,2.43,3.05,2.45,5.05,0.29,-0.26,1.08,5,3,8,0.39,9571,61,66,33,65,839,494.0,660,455,60,119.0,277,1,414,386,135,0,0,508,505,1341,494,,,,,,,,,,,,
69983,1560694233227,5,2.3,2.47,2.97,2.45,5.03,0.35,-0.18,1.02,5,1,9,0.4,9620,61,66,33,64,855,497.0,662,460,60,119.0,277,1,412,387,135,0,0,507,-32768,16383,496,,,,,,,,,,,,
70003,1560694233247,1,2.3,2.49,2.98,2.46,5.04,0.34,-0.29,1.05,5,2,9,0.44,9654,61,66,33,64,871,500.0,656,459,60,120.0,277,1,412,387,135,0,0,512,998,1341,500,,,,,,,,,,,,
70023,1560694233267,3,2.29,2.49,3.01,2.45,5.05,0.3,-0.16,1.06,5,1,8,0.34,9709,60,66,33,64,882,503.0,661,460,60,119.0,286,1,411,391,144,0,0,521,3,26178,505,,,,,,,,,,,,
70043,1560694233287,2,2.29,2.45,3.06,2.44,5.03,0.42,-0.3,1.15,4,1,7,0.52,9740,61,66,33,63,891,508.0,662,456,60,120.0,286,1,411,387,144,0,0,526,6274,-22519,508,45.700405,4.909464,45.72,194.9,0,0.0,-1,0.0,0.0,0,0.02,1.1674
70063,1560694233307,2,2.3,2.43,3.1,2.42,5.05,0.48,-0.17,1.14,3,1,6,0.51,9765,61,66,33,63,891,513.0,663,457,60,119.0,286,1,410,391,144,0,0,527,10994,10408,516,,,,,,,,,,,,
70083,1560694233327,3,2.28,2.43,3.1,2.4,5.04,0.45,-0.24,1.15,2,-1,6,0.51,9847,61,66,33,63,891,515.0,670,460,60,120.0,286,1,409,396,144,0,0,532,26178,-32248,515,,,,,,,,,,,,
70103,1560694233347,4,2.29,2.45,3.11,2.39,5.06,0.52,-0.2,1.09,2,-0,7,0.56,9984,61,66,33,63,879,521.0,668,456,60,120.0,286,1,406,406,144,0,0,542,-8187,-9072,521,,,,,,,,,,,,
70123,1560694233367,1,2.28,2.48,3.11,2.38,5.06,0.52,-0.13,1.09,1,1,7,0.53,10069,61,66,33,63,868,520.0,666,456,60,119.0,295,1,411,409,154,0,0,534,-8187,-28648,520,,,,,,,,,,,,
70143,1560694233387,4,2.29,2.47,3.09,2.38,5.07,0.48,-0.09,1.1,1,0,7,0.49,10129,61,66,33,63,858,525.0,672,459,60,119.0,295,1,416,410,154,0,0,540,2088,-32248,524,45.70042,4.909469,47.75,194.8,0,0.0,-1,0.0,0.0,0,0.02,1.169
70163,1560694233407,3,2.29,2.47,3.04,2.37,5.04,0.46,-0.1,1.09,1,1,5,0.47,10234,61,66,33,63,849,531.0,671,458,60,120.0,295,1,425,412,154,0,0,540,-9072,2524,531,,,,,,,,,,,,
70183,1560694233427,3,2.29,2.46,3.04,2.38,5.04,0.58,0.0,1.04,2,1,4,0.58,10229,61,66,33,63,849,537.0,663,453,60,120.0,295,1,424,412,154,0,0,553,14504,2524,535,,,,,,,,,,,,
70203,1560694233447,-5,2.28,2.44,2.99,2.38,5.07,0.56,-0.04,0.92,1,-1,4,0.57,10313,61,66,33,63,850,539.0,670,460,60,119.0,295,1,433,406,154,0,0,544,2104,-32248,539,,,,,,,,,,,,
70223,1560694233467,5,2.29,2.43,3.07,2.39,5.04,0.59,-0.06,0.88,1,-1,4,0.59,10336,61,66,33,62,856,541.0,666,458,60,119.0,293,1,435,406,158,0,0,562,-28648,-22359,541,,,,,,,,,,,,
70243,1560694233487,5,2.28,2.44,3.06,2.38,5.08,0.49,-0.08,0.82,1,-0,4,0.49,10422,61,66,33,62,862,543.0,674,463,60,119.0,293,1,442,407,158,0,0,553,-2336,2216,543,45.700432,4.909474,49.83,194.8,0,0.0,-1,0.0,0.0,0,0.02,1.1707
70263,1560694233503,5,2.28,2.44,3.05,2.37,5.06,0.49,-0.09,0.87,1,1,5,0.5,10445,61,66,33,62,866,546.0,671,453,60,119.0,293,1,447,409,158,0,0,560,-506,2216,546,,,,,,,,,,,,
70283,1560694233523,3,2.29,2.44,3.06,2.37,5.07,0.41,-0.05,0.93,1,2,6,0.41,10557,61,66,33,62,871,550.0,674,461,60,119.0,293,1,449,410,158,0,0,564,-22519,-23623,553,,,,,,,,,,,,
70303,1560694233543,6,2.28,2.48,3.06,2.37,5.04,0.39,-0.09,0.9,1,2,5,0.4,10575,61,66,33,62,878,552.0,681,461,60,119.0,293,1,450,411,158,0,0,561,-32248,1760,552,,,,,,,,,,,,
70323,1560694233563,2,2.28,2.46,3.1,2.36,5.04,0.39,-0.1,0.87,1,2,3,0.41,10665,61,66,33,62,886,556.0,673,457,60,119.0,299,1,450,412,166,0,0,579,-9072,1267,556,,,,,,,,,,,,
70343,1560694233583,1,2.29,2.44,3.14,2.36,5.04,0.49,-0.09,0.87,1,-0,2,0.5,10683,61,66,33,62,890,558.0,677,455,60,119.0,299,1,450,412,166,0,0,583,-32504,-8188,557,45.700443,4.90948,51.48,194.8,0,0.0,-1,0.0,0.0,0,0.02,1.1724
70363,1560694233605,1,2.29,2.44,3.14,2.34,5.07,0.46,-0.15,0.82,-0,-1,3,0.49,10788,61,66,33,62,894,563.0,679,458,60,120.0,299,1,450,414,166,0,0,577,-23623,774,563,,,,,,,,,,,,
70383,1560694233625,-2,2.29,2.44,3.12,2.31,5.06,0.48,-0.04,0.76,-0,-0,4,0.48,10813,61,66,33,62,895,567.0,677,459,60,120.0,299,1,450,416,166,0,0,571,-30159,-4035,567,,,,,,,,,,,,
70403,1560694233645,1,2.29,2.43,3.07,2.31,5.07,0.47,0.09,0.81,-0,-0,6,0.47,10623,61,66,33,63,896,568.0,686,460,60,122.0,299,1,450,412,166,0,0,583,-8186,-28648,568,,,,,,,,,,,,
70423,1560694233665,1,2.28,2.42,3.08,2.3,5.04,0.59,0.0,0.81,1,1,4,0.59,10157,61,66,33,65,897,574.0,683,462,60,122.0,293,1,415,429,168,0,0,578,1780,15649,574,,,,,,,,,,,,
70443,1560694233685,-0,2.28,2.39,3.08,2.29,5.08,0.66,-0.04,0.77,1,-1,4,0.66,9941,61,66,33,67,896,571.0,670,463,60,122.0,293,1,400,435,168,0,0,568,-29984,1,571,45.700455,4.909486,52.93,194.7,0,0.0,-1,0.0,0.0,0,0.02,1.174
70463,1560694233704,-1,2.29,2.37,3.15,2.29,5.04,0.56,-0.02,0.72,1,0,5,0.56,9765,61,66,33,68,896,572.0,671,460,60,121.0,293,1,405,424,168,0,0,569,-8186,774,572,,,,,,,,,,,,
70483,1560694233724,4,2.29,2.33,3.17,2.26,5.07,0.47,0.15,0.63,2,-2,7,0.5,9498,61,66,33,68,895,571.0,676,458,60,121.0,293,1,415,393,168,0,0,565,-8186,-30159,571,,,,,,,,,,,,
70503,1560694233744,6,2.28,2.35,3.2,2.27,5.06,0.57,-0.0,0.76,1,0,5,0.57,9132,61,66,33,69,896,574.0,661,459,60,120.0,293,1,413,690,168,0,0,585,-8186,-32504,572,,,,,,,,,,,,
70523,1560694233764,6,2.29,2.4,3.11,2.31,5.05,0.59,-0.08,0.82,1,-5,3,0.59,8333,61,66,33,70,896,578.0,645,457,60,120.0,365,1,437,634,210,0,0,640,259,771,578,,,,,,,,,,,,
70543,1560694233784,-0,2.29,2.44,3.08,2.34,5.06,0.58,-0.15,0.87,1,-3,3,0.6,8012,61,66,33,71,943,580.0,635,454,60,120.0,365,1,444,589,210,0,0,635,30208,28675,580,45.700466,4.909492,54.61,194.7,0,0.0,-1,0.0,0.0,0,0.02,1.1757
70563,1560694233804,4,2.3,2.44,3.07,2.32,5.04,0.65,-0.13,0.87,1,-3,3,0.67,8095,61,66,33,72,1039,585.0,640,460,60,120.0,365,1,442,525,210,0,0,589,15649,-3820,585,,,,,,,,,,,,
70583,1560694233824,1,2.29,2.44,3.09,2.31,5.04,0.69,-0.2,0.92,1,-4,3,0.72,8220,61,66,33,71,1136,585.0,636,462,60,120.0,365,1,440,446,210,0,0,595,-25872,243,584,,,,,,,,,,,,
70603,1560694233844,4,2.29,2.43,3.12,2.3,5.04,0.63,-0.19,0.82,2,-2,4,0.66,8314,61,66,33,70,1231,592.0,641,458,60,119.0,365,1,437,408,210,0,0,601,-25872,-23055,592,,,,,,,,,,,,
70623,1560694233864,1,2.28,2.42,3.12,2.3,5.04,0.69,-0.2,0.85,2,-1,3,0.72,8337,61,66,33,69,1327,592.0,642,455,60,120.0,212,1,437,398,125,0,0,615,-28648,28675,593,,,,,,,,,,,,
70643,1560694233884,7,2.28,2.44,3.15,2.29,5.07,0.66,-0.26,0.9,2,-3,2,0.71,8340,61,66,33,69,1425,597.0,637,456,60,119.0,212,1,439,388,125,0,0,620,-16179,3403,596,45.700481,4.909499,55.22,194.7,0,0.0,-1,0.0,0.0,0,0.02,1.1774
70663,1560694233906,2,2.29,2.44,3.1,2.3,5.04,0.64,-0.26,0.9,2,-0,1,0.69,8318,61,66,33,68,1498,600.0,643,461,60,120.0,212,1,439,389,125,0,0,614,30227,28675,600,,,,,,,,,,,,
70683,1560694233926,-0,2.28,2.43,3.09,2.29,5.06,0.71,-0.3,0.96,1,-1,1,0.78,8359,61,66,33,69,1498,605.0,631,458,60,120.0,212,1,437,390,125,0,0,615,-768,-16883,603,,,,,,,,,,,,
70703,1560694233946,5,2.28,2.43,3.07,2.29,5.04,0.66,-0.2,0.83,1,0,2,0.69,8404,61,66,33,68,1469,608.0,645,466,60,120.0,212,1,436,391,125,0,0,618,5344,19304,608,,,,,,,,,,,,
70723,1560694233966,1,2.29,2.41,3.06,2.29,5.08,0.74,-0.31,0.94,2,2,2,0.81,8415,61,66,33,67,1396,611.0,641,458,60,120.0,200,1,438,384,122,0,0,620,19621,26688,611,,,,,,,,,,,,
70743,1560694233986,5,2.29,2.41,3.06,2.29,5.04,0.68,-0.29,0.91,2,-0,2,0.74,8389,61,66,33,68,1322,612.0,641,460,60,119.0,200,1,438,384,122,0,0,619,1010,3395,611,45.700497,4.909505,56.73,194.7,0,0.0,0,0.0,0.0,1,0.01,1.179
70763,1560694233998,2,2.3,2.41,3.08,2.29,5.06,0.68,-0.24,0.84,1,-1,1,0.72,8468,61,66,33,67,1249,615.0,642,462,60,120.0,200,1,436,386,122,0,0,625,28675,-1346,615,,,,,,,,,,,,
70783,1560694234018,0,2.3,2.41,3.13,2.29,5.04,0.77,-0.33,0.94,1,-1,1,0.84,8495,61,66,33,67,1181,616.0,647,461,60,120.0,200,1,435,386,122,0,0,624,26688,-16883,616,,,,,,,,,,,,
70803,1560694234038,5,2.29,2.41,3.14,2.28,5.06,0.72,-0.26,0.87,2,0,3,0.76,8549,61,66,33,66,1130,619.0,640,470,60,119.0,200,1,435,382,122,0,0,631,26688,-10251,618,,,,,,,,,,,,
70823,1560694234058,2,2.29,2.42,3.15,2.28,5.06,0.66,-0.13,0.84,1,0,2,0.67,8648,61,66,33,66,1089,621.0,644,457,60,120.0,203,1,428,388,126,0,0,628,30721,-16046,620,,,,,,,,,,,,
70843,1560694234078,4,2.29,2.42,3.16,2.28,5.05,0.62,-0.12,0.88,1,-4,2,0.63,8676,61,66,33,66,1111,622.0,648,462,60,120.0,203,1,427,382,126,0,0,638,17336,24,622,45.700508,4.909512,58.13,194.7,0,0.0,0,0.0,0.0367,1,0.02,1.1807
70863,1560694234106,1,2.29,2.43,3.16,2.28,5.04,0.67,-0.24,0.88,2,-0,2,0.72,8696,60,66,33,66,1135,626.0,648,458,60,119.0,203,1,426,382,126,0,0,636,506,966,624,,,,,,,,,,,,
70883,1560694234126,1,2.29,2.42,3.19,2.26,5.04,0.73,-0.27,0.97,2,-2,2,0.78,8720,60,66,33,66,1165,629.0,640,457,60,119.0,203,1,427,382,126,0,0,645,-14655,24,629,,,,,,,,,,,,
70903,1560694234146,6,2.29,2.4,3.16,2.25,5.05,0.61,-0.08,1.02,2,-2,2,0.61,8765,60,66,33,66,1194,633.0,648,458,60,120.0,203,1,421,383,126,0,0,642,3,-6006,633,,,,,,,,,,,,
70923,1560694234166,5,2.29,2.4,3.14,2.26,5.04,0.43,0.07,0.89,2,-1,1,0.44,8794,60,66,33,66,1202,634.0,647,469,60,120.0,202,1,419,383,128,0,0,648,771,11566,633,,,,,,,,,,,,
70943,1560694234186,3,2.3,2.4,3.11,2.25,5.08,0.42,0.12,0.76,2,-0,1,0.44,8769,60,66,33,66,1210,634.0,653,460,60,120.0,202,1,421,383,128,0,0,650,-5120,31988,634,45.700523,4.909519,59.45,194.7,0,0.0,0,0.0,0.0383,1,0.02,1.1824
70963,1560694234206,4,2.29,2.41,3.09,2.25,5.07,0.4,0.09,0.89,2,0,2,0.41,8819,60,67,33,66,1218,640.0,648,462,60,120.0,202,1,418,380,128,0,0,650,-2580,4909,640,,,,,,,,,,,,
70983,1560694234226,2,2.3,2.39,3.08,2.23,5.06,0.53,-0.1,0.92,2,-2,1,0.54,8894,59,67,33,66,1225,641.0,653,458,60,120.0,202,1,414,381,128,0,0,649,24,31988,641,,,,,,,,,,,,
71003,1560694234246,1,2.29,2.39,3.09,2.25,5.06,0.57,-0.27,0.96,2,-3,-1,0.63,8932,54,67,33,64,1225,644.0,650,460,60,120.0,202,1,408,371,128,0,0,658,-3584,8958,646,,,,,,,,,,,,
71023,1560694234266,2,2.3,2.39,3.13,2.25,5.06,0.71,-0.44,0.93,2,-3,0,0.84,8954,47,67,32,62,1225,645.0,653,457,60,120.0,188,1,403,360,122,0,0,659,4909,-3488,645,,,,,,,,,,,,
71043,1560694234286,2,2.29,2.41,3.14,2.25,5.04,0.84,-0.54,1.01,0,-5,1,1.0,8954,40,67,32,58,1217,647.0,651,457,60,120.0,188,1,400,333,122,0,0,666,-8429,-3038,647,45.700539,4.909526,60.58,194.7,0,0.0,0,0.0,0.04,1,0.02,1.184
71063,1560694234306,3,2.29,2.43,3.15,2.26,5.04,0.96,-0.69,1.08,1,-5,2,1.18,8932,33,67,32,53,1210,651.0,652,458,60,120.0,188,1,394,293,122,0,0,666,-30207,-2826,651,,,,,,,,,,,,
71083,1560694234326,1,2.29,2.42,3.13,2.25,5.08,1.07,-0.82,1.17,0,-7,-0,1.34,8882,25,67,32,47,1203,654.0,648,458,60,120.0,188,1,373,245,122,0,0,664,24583,-388,649,,,,,,,,,,,,
71103,1560694234346,-1,2.29,2.42,3.17,2.24,5.06,1.08,-0.79,1.09,1,-8,-0,1.34,8811,18,67,32,42,1196,653.0,652,458,60,120.0,188,1,338,224,122,0,0,662,24583,-3038,653,,,,,,,,,,,,
71123,1560694234366,5,2.29,2.41,3.18,2.23,5.04,1.05,-0.65,0.97,1,-7,-0,1.23,8745,14,67,32,37,1171,654.0,649,457,60,120.0,108,1,314,214,71,0,0,661,-2830,-2345,650,,,,,,,,,,,,
71143,1560694234386,1,2.29,2.38,3.23,2.22,5.04,1.02,-0.56,0.92,1,-7,0,1.16,8507,12,67,32,34,1144,654.0,645,462,60,120.0,108,1,305,199,71,0,0,657,-2830,-6006,654,45.70055,4.909534,62.05,194.7,0,0.0,0,0.0,0.0417,1,0.02,1.1857
71163,1560694234406,2,2.29,2.32,3.26,2.18,5.04,1.06,-0.56,0.91,1,-7,2,1.2,8285,12,67,32,32,1122,658.0,643,456,60,120.0,108,1,295,182,71,0,0,651,31988,-2345,658,,,,,,,,,,,,
71183,1560694234426,-1,2.29,2.31,3.26,2.16,5.06,1.06,-0.54,0.97,1,-7,1,1.19,8064,11,67,32,31,1101,658.0,636,461,60,120.0,108,1,288,172,71,0,0,654,24583,31988,654,,,,,,,,,,,,
71203,1560694234446,2,2.28,2.31,3.27,2.16,5.04,1.08,-0.41,0.81,1,-6,2,1.16,7918,11,67,32,30,1053,654.0,638,457,60,120.0,108,1,284,169,71,0,0,648,-2830,-8429,655,,,,,,,,,,,,
71223,1560694234466,4,2.28,2.3,3.28,2.17,5.03,0.97,-0.38,0.81,2,-6,1,1.05,7841,11,67,32,30,996,652.0,640,463,60,120.0,76,1,283,169,50,0,0,636,4909,-4876,651,,,,,,,,,,,,
71243,1560694234486,-2,2.29,2.26,3.28,2.14,5.06,1.05,-0.39,0.8,2,-7,0,1.12,7901,10,67,32,29,952,652.0,640,457,60,119.0,76,1,281,167,50,0,0,630,-8429,3,648,45.700565,4.909542,63.23,194.8,0,0.0,0,0.0,0.0433,1,0.02,1.1874
71263,1560694234506,2,2.29,2.23,3.27,2.11,5.04,1.14,-0.33,0.75,1,-8,0,1.19,7958,9,67,32,28,915,648.0,638,461,60,120.0,76,1,278,166,50,0,0,636,244,771,649,,,,,,,,,,,,
71283,1560694234526,4,2.28,2.21,3.28,2.09,5.04,1.06,-0.28,0.67,2,-6,1,1.1,7968,9,67,32,27,876,647.0,645,460,60,119.0,76,1,275,164,50,0,0,626,244,20993,645,,,,,,,,,,,,
71303,1560694234546,1,2.29,2.19,3.36,2.08,5.03,1.13,-0.32,0.65,2,-6,1,1.18,8050,9,67,32,26,838,644.0,647,463,60,119.0,76,1,273,166,50,0,0,623,6208,-2836,644,,,,,,,,,,,,
71323,1560694234566,2,2.29,2.2,3.4,2.09,5.04,1.17,-0.27,0.57,2,-6,1,1.2,8138,9,67,32,26,818,640.0,644,462,60,120.0,79,1,273,171,51,0,0,619,-10251,3395,640,,,,,,,,,,,,
71343,1560694234586,5,2.29,2.21,3.42,2.08,5.06,1.14,-0.3,0.56,2,-3,2,1.18,8166,9,67,32,25,816,637.0,647,462,60,119.0,79,1,270,171,51,0,0,617,-4876,-3446,637,45.700584,4.909551,63.14,194.8,0,0.0,0,0.0,0.045,1,0.02,1.189
71363,1560694234606,2,2.3,2.2,3.41,2.07,5.08,1.15,-0.27,0.57,2,-5,1,1.18,8194,9,67,32,25,826,631.0,647,462,60,120.0,79,1,270,173,51,0,0,622,966,3403,631,,,,,,,,,,,,
71383,1560694234626,5,2.29,2.2,3.42,2.04,5.08,1.13,-0.29,0.52,2,-6,2,1.17,8256,8,67,32,25,841,629.0,649,460,60,120.0,79,1,270,177,51,0,0,610,-14655,-16883,629,,,,,,,,,,,,
71403,1560694234646,4,2.29,2.16,3.43,2.01,5.07,1.08,-0.19,0.48,3,-3,0,1.1,8314,8,67,32,25,857,630.0,642,462,60,121.0,79,1,270,180,51,0,0,611,966,16529,627,,,,,,,,,,,,
71423,1560694234666,0,2.28,2.16,3.38,2.01,5.05,1.07,-0.19,0.45,3,-2,1,1.09,8337,8,67,32,24,874,626.0,645,460,60,120.0,87,1,270,177,55,0,0,612,-1346,-30139,626,,,,,,,,,,,,
71443,1560694234686,3,2.29,2.15,3.38,2.01,5.04,1.01,-0.13,0.41,3,1,1,1.02,8325,8,67,32,24,895,623.0,650,459,60,120.0,87,1,270,176,55,0,0,609,17336,-28304,624,45.700596,4.909558,62.51,194.8,0,0.0,0,0.0,0.0467,1,0.03,1.1907
71463,1560694234705,0,2.29,2.15,3.31,2.0,5.05,1.08,-0.18,0.49,3,2,0,1.09,8300,8,67,32,24,920,625.0,654,462,60,119.0,87,1,270,175,55,0,0,615,-18357,1010,624,,,,,,,,,,,,
71483,1560694234725,2,2.3,2.15,3.26,2.01,5.06,1.09,-0.11,0.38,3,1,1,1.1,8270,8,67,32,24,939,620.0,653,462,60,120.0,87,1,270,175,55,0,0,615,26688,-23055,620,,,,,,,,,,,,
71503,1560694234745,1,2.28,2.15,3.26,2.02,5.05,1.11,-0.21,0.39,3,2,2,1.13,8292,8,67,32,24,947,618.0,640,456,60,119.0,87,1,270,174,55,0,0,612,28675,28675,618,,,,,,,,,,,,
71523,1560694234765,4,2.29,2.12,3.27,2.02,5.08,1.03,-0.16,0.36,3,1,1,1.05,8238,8,67,32,23,957,615.0,643,461,60,121.0,87,1,270,171,54,0,0,607,-3446,17740,617,,,,,,,,,,,,
71543,1560694234785,1,2.29,2.11,3.28,2.01,5.04,1.05,-0.19,0.35,3,-1,2,1.06,8202,8,67,32,24,971,614.0,652,461,60,121.0,87,1,270,170,54,0,0,602,-3446,-7939,614,45.700611,4.909566,61.01,194.9,0,0.0,0,0.0,0.0483,1,0.03,1.1924
71563,1560694234805,1,2.3,2.11,3.25,2.02,5.05,1.05,-0.12,0.34,3,-1,2,1.05,8194,7,67,32,23,982,611.0,652,461,60,120.0,87,1,270,165,54,0,0,607,19621,4956,611,,,,,,,,,,,,
71583,1560694234825,-2,2.3,2.1,3.29,2.02,5.05,0.99,-0.14,0.34,3,-1,2,1.0,8145,7,67,32,23,987,609.0,646,462,60,120.0,87,1,270,163,54,0,0,599,-3820,17344,609,,,,,,,,,,,,
71603,1560694234845,2,2.29,2.11,3.32,2.02,5.05,0.99,-0.16,0.3,4,2,2,1.01,8074,7,67,32,23,994,607.0,641,460,60,120.0,87,1,270,160,54,0,0,597,-768,30227,608,,,,,,,,,,,,
71623,1560694234865,4,2.29,2.11,3.33,2.03,5.05,0.96,-0.18,0.28,3,1,2,0.97,8029,7,67,32,23,1003,607.0,652,462,60,119.0,79,1,270,160,48,0,0,593,243,-13043,607,,,,,,,,,,,,
71643,1560694234885,-1,2.29,2.11,3.33,2.02,5.07,0.9,-0.24,0.3,3,1,3,0.94,8033,7,67,32,23,1012,603.0,642,463,60,120.0,79,1,270,156,48,0,0,589,30227,2048,603,45.700626,4.909574,59.85,194.9,0,0.0,0,0.0,0.05,1,0.03,1.194
71663,1560694234905,-0,2.28,2.11,3.35,2.02,5.05,0.93,-0.22,0.35,3,2,3,0.96,7985,7,67,32,23,1016,602.0,642,460,60,120.0,79,1,269,156,48,0,0,589,17344,-4035,602,,,,,,,,,,,,
71683,1560694234925,5,2.28,2.11,3.36,2.03,5.04,0.92,-0.21,0.31,3,2,3,0.94,7999,7,67,32,23,1021,597.0,643,463,60,120.0,79,1,269,156,48,0,0,585,-13043,-4035,597,,,,,,,,,,,,
71703,1560694234945,-1,2.28,2.11,3.35,2.02,5.06,0.82,-0.26,0.31,3,3,4,0.86,7958,7,67,32,23,1030,596.0,634,460,60,121.0,79,1,269,156,48,0,0,588,-28648,-32504,595,,,,,,,,,,,,
71723,1560694234965,0,2.29,2.11,3.34,2.02,5.04,0.87,-0.29,0.35,3,4,4,0.91,7908,7,67,32,23,1039,594.0,642,457,60,121.0,78,1,269,156,47,0,0,584,3472,-3210,594,,,,,,,,,,,,
71743,1560694234985,-0,2.29,2.11,3.34,2.0,5.06,0.88,-0.19,0.36,2,3,3,0.9,7864,7,67,32,23,1045,593.0,646,460,60,122.0,78,1,268,156,47,0,0,580,2048,243,593,45.700642,4.909582,58.88,194.9,0,0.0,0,0.0,0.0517,1,0.03,1.1957
71763,1560694234999,-0,2.29,2.1,3.33,2.01,5.08,0.74,-0.21,0.3,3,3,1,0.77,7871,6,67,32,23,1054,590.0,643,462,60,122.0,78,1,268,156,47,0,0,580,-12040,10432,590,,,,,,,,,,,,
71783,1560694235019,-0,2.29,2.11,3.37,2.01,5.04,0.73,-0.29,0.29,3,4,3,0.79,7828,6,67,32,23,1069,585.0,653,458,60,122.0,78,1,268,156,47,0,0,573,8488,-3210,585,,,,,,,,,,,,
71803,1560694235039,1,2.27,2.12,3.38,2.01,5.05,0.8,-0.31,0.34,3,3,3,0.86,7832,6,67,32,23,1085,583.0,646,464,60,120.0,78,1,268,156,47,0,0,576,8488,774,582,,,,,,,,,,,,
71823,1560694235059,-1,2.27,2.13,3.38,2.02,5.06,0.86,-0.25,0.4,2,1,1,0.89,7763,6,67,32,23,1095,581.0,638,460,60,121.0,79,1,267,156,46,0,0,572,243,1780,581,,,,,,,,,,,,
71843,1560694235079,2,2.27,2.13,3.39,2.01,5.03,0.86,-0.15,0.33,2,1,2,0.88,7747,6,67,32,23,1106,580.0,645,460,60,121.0,79,1,267,156,46,0,0,568,30208,-8186,580,45.700653,4.90959,57.96,194.9,0,0.0,0,0.0,0.0533,1,0.03,1.1974
71863,1560694235107,3,2.26,2.14,3.37,1.99,5.04,0.89,-0.04,0.27,3,1,2,0.89,7767,6,67,32,23,1123,577.0,631,465,60,119.0,79,1,267,221,46,0,0,569,30208,-30159,577,,,,,,,,,,,,
71883,1560694235127,5,2.27,2.12,3.36,1.98,5.07,0.85,-0.08,0.29,3,-0,2,0.86,7725,6,67,32,23,1138,574.0,639,459,60,119.0,79,1,267,205,46,0,0,565,774,-29984,574,,,,,,,,,,,,
71903,1560694235147,3,2.28,2.11,3.36,1.97,5.07,0.79,-0.16,0.35,3,2,2,0.8,7684,6,67,32,22,1145,575.0,635,462,60,120.0,79,1,266,185,46,0,0,566,259,-30159,573,,,,,,,,,,,,
71923,1560694235167,3,2.26,2.11,3.37,1.97,5.08,0.78,-0.21,0.43,3,3,2,0.81,7597,6,67,32,21,1152,573.0,639,459,60,120.0,86,1,265,168,50,0,0,568,-8188,-2934,573,,,,,,,,,,,,
71943,1560694235187,-1,2.28,2.12,3.36,1.97,5.06,0.86,-0.25,0.49,3,1,1,0.9,7581,6,67,32,21,1149,572.0,636,463,60,120.0,86,1,265,157,50,0,0,556,1267,-22359,570,45.700664,4.909598,56.93,195.0,0,0.0,0,0.0,0.055,1,0.03,1.199
71963,1560694235207,-1,2.28,2.15,3.31,1.97,5.04,0.92,-0.29,0.51,3,-0,1,0.97,7536,6,67,32,22,1147,568.0,625,458,60,120.0,86,1,265,153,50,0,0,558,-8186,2216,568,,,,,,,,,,,,
71983,1560694235227,0,2.27,2.14,3.31,1.96,5.05,1.03,-0.35,0.53,3,1,2,1.09,7566,6,67,33,23,1138,566.0,636,467,60,120.0,86,1,265,156,50,0,0,555,2211,-32504,566,,,,,,,,,,,,
72003,1560694235247,0,2.27,2.12,3.32,1.96,5.04,1.06,-0.38,0.59,2,0,2,1.13,7536,6,67,33,24,1129,565.0,635,456,60,120.0,86,1,265,158,50,0,0,550,2211,-22359,562,,,,,,,,,,,,
72023,1560694235267,1,2.28,2.12,3.33,1.96,5.05,1.13,-0.34,0.62,2,-1,2,1.18,7545,6,67,33,25,1091,560.0,630,460,60,119.0,80,1,265,158,45,0,0,552,6273,6274,560,,,,,,,,,,,,
72043,1560694235287,-1,2.28,2.1,3.32,1.95,5.04,1.22,-0.3,0.67,1,-3,1,1.26,7479,6,67,33,25,1046,559.0,628,458,60,119.0,80,1,264,161,45,0,0,549,-28648,14504,559,45.700684,4.909606,55.71,195.0,0,0.0,0,0.0,0.0567,1,0.04,1.2007
72063,1560694235307,-0,2.28,2.1,3.32,1.95,5.08,1.28,-0.31,0.69,0,-4,1,1.31,7458,6,67,33,25,1008,560.0,631,461,60,120.0,80,1,264,161,45,0,0,545,-22359,2524,557,,,,,,,,,,,,
72083,1560694235327,4,2.28,2.12,3.29,1.98,5.04,1.24,-0.33,0.71,0,-3,2,1.28,7393,6,67,33,26,973,558.0,627,458,60,120.0,80,1,266,162,45,0,0,553,-28648,-8962,558,,,,,,,,,,,,
72103,1560694235347,5,2.27,2.11,3.29,1.97,5.04,1.24,-0.34,0.65,1,-4,3,1.28,7393,6,67,33,26,933,552.0,635,461,60,119.0,80,1,266,162,45,0,0,542,-28648,-8962,552,,,,,,,,,,,,
72123,1560694235367,5,2.27,2.11,3.34,1.98,5.06,1.16,-0.32,0.67,2,-3,3,1.2,7352,6,67,33,26,892,550.0,629,458,60,120.0,81,1,266,162,45,0,0,539,2524,-8186,550,,,,,,,,,,,,
72143,1560694235387,3,2.28,2.11,3.34,1.98,5.04,1.04,-0.37,0.64,3,-2,1,1.1,7335,6,67,33,26,871,549.0,625,461,60,119.0,81,1,266,163,45,0,0,538,-22519,6274,549,45.700695,4.909614,54.86,195.0,0,0.0,0,0.0,0.0583,1,0.04,1.2024
72163,1560694235407,3,2.28,2.1,3.34,1.97,5.07,1.02,-0.35,0.53,3,-2,1,1.08,7273,6,67,33,26,866,547.0,636,457,60,119.0,81,1,270,163,45,0,0,538,-506,-8186,547,,,,,,,,,,,,
72183,1560694235427,1,2.28,2.11,3.33,1.96,5.08,0.96,-0.24,0.45,3,-2,2,0.99,7267,6,67,33,27,869,543.0,627,459,60,119.0,81,1,270,163,45,0,0,535,1779,-30064,543,,,,,,,,,,,,
72203,1560694235447,-0,2.27,2.1,3.33,1.96,5.08,1.01,-0.19,0.45,2,-3,3,1.03,7250,6,67,33,27,876,542.0,625,457,60,119.0,81,1,270,163,45,0,0,534,-8186,6274,542,,,,,,,,,,,,
72223,1560694235467,3,2.27,2.1,3.33,1.96,5.07,1.11,-0.23,0.57,1,-4,2,1.14,7214,6,67,33,27,885,540.0,622,458,60,119.0,81,1,270,163,44,0,0,527,-2934,2524,539,,,,,,,,,,,,
72243,1560694235487,4,2.27,2.1,3.33,1.99,5.04,1.06,-0.29,0.55,1,-4,2,1.1,7208,6,67,33,27,898,537.0,626,455,60,120.0,81,1,270,163,44,0,0,532,-30064,6274,539,45.700703,4.909621,53.54,195.1,0,0.0,0,0.0,0.06,1,0.04,1.2041
72263,1560694235507,2,2.28,2.1,3.33,1.97,5.04,0.98,-0.25,0.52,2,-3,3,1.01,7161,6,67,33,27,918,537.0,635,458,60,119.0,81,1,269,163,44,0,0,529,6274,-32248,537,,,,,,,,,,,,
72283,1560694235527,1,2.28,2.1,3.33,1.97,5.07,0.92,-0.11,0.4,2,-0,4,0.93,7161,5,67,33,27,948,534.0,630,460,60,118.0,81,1,269,163,44,0,0,523,14504,2524,534,,,,,,,,,,,,
72303,1560694235547,1,2.28,2.1,3.3,1.97,5.07,1.0,-0.13,0.51,1,-3,3,1.01,7129,5,67,33,27,973,533.0,630,457,60,120.0,81,1,269,163,44,0,0,527,-9072,-9072,533,,,,,,,,,,,,
72323,1560694235567,5,2.28,2.09,3.3,1.98,5.04,1.09,-0.2,0.57,1,-4,2,1.11,7086,5,67,33,27,991,530.0,623,457,60,120.0,82,1,268,163,44,0,0,517,2524,-9212,530,,,,,,,,,,,,
72343,1560694235587,2,2.27,2.11,3.29,1.98,5.04,0.97,-0.19,0.47,2,-2,3,0.99,7088,5,67,33,26,1018,530.0,627,462,60,119.0,82,1,268,163,44,0,0,519,2088,15679,530,45.700718,4.909629,52.83,195.1,0,0.0,0,0.0,0.0617,1,0.04,1.2057
72363,1560694235607,-1,2.28,2.11,3.33,1.99,5.04,0.98,-0.09,0.41,2,-2,4,0.98,7072,5,67,33,27,1057,528.0,627,457,60,119.0,82,1,268,162,44,0,0,518,10408,-9212,528,,,,,,,,,,,,
72383,1560694235627,5,2.28,2.1,3.33,1.97,5.04,1.05,-0.16,0.54,1,-3,4,1.06,7014,5,67,33,26,1092,523.0,616,456,60,120.0,82,1,264,162,44,0,0,513,-9212,-14,523,,,,,,,,,,,,
72403,1560694235647,2,2.27,2.1,3.34,1.95,5.06,1.09,-0.17,0.58,2,-3,2,1.1,6985,5,67,33,26,1113,524.0,616,457,60,120.0,82,1,265,162,44,0,0,511,1248,16383,524,,,,,,,,,,,,
72423,1560694235667,0,2.27,2.09,3.33,1.94,5.04,1.0,-0.06,0.49,1,-4,1,1.01,6931,5,67,33,26,1136,520.0,621,460,60,119.0,80,1,265,162,42,0,0,516,1248,-3482,520,,,,,,,,,,,,
72443,1560694235687,4,2.27,2.1,3.32,1.96,5.04,1.09,-0.16,0.58,1,-5,0,1.11,6921,5,67,34,26,1166,519.0,615,457,60,120.0,80,1,265,162,42,0,0,507,-8187,17136,518,45.700729,4.909636,51.98,195.1,0,0.0,0,0.0,0.0633,1,0.04,1.2074
72463,1560694235706,-1,2.27,2.12,3.32,1.96,5.04,1.06,-0.12,0.46,1,-5,0,1.07,6931,5,67,34,26,1191,516.0,620,461,60,119.0,80,1,265,162,42,0,0,510,26178,-28648,516,,,,,,,,,,,,
72483,1560694235726,4,2.26,2.12,3.33,1.96,5.07,1.04,-0.07,0.47,1,-3,2,1.04,6903,5,67,34,25,1200,515.0,618,456,60,119.0,80,1,261,161,42,0,0,508,-14,-32248,515,,,,,,,,,,,,
72503,1560694235746,3,2.25,2.12,3.34,1.96,5.04,1.13,-0.2,0.54,1,-5,2,1.15,6833,5,67,34,25,1208,515.0,618,458,60,120.0,80,1,262,161,42,0,0,503,17136,-3414,515,,,,,,,,,,,,
72523,1560694235766,1,2.25,2.11,3.31,1.96,5.08,1.03,-0.1,0.45,0,-1,2,1.03,6795,5,67,34,25,1213,512.0,616,458,60,119.0,79,1,263,161,41,0,0,503,17136,2109,510,,,,,,,,,,,,
72543,1560694235786,4,2.25,2.11,3.29,1.95,5.04,1.08,-0.25,0.52,1,-4,2,1.1,6808,5,67,34,24,1217,509.0,621,458,60,119.0,79,1,261,158,41,0,0,501,10994,2109,508,45.700745,4.909644,50.67,195.1,0,0.0,0,0.0,0.065,1,0.04,1.209
72563,1560694235806,1,2.26,2.11,3.29,1.94,5.06,1.01,-0.16,0.42,0,-2,1,1.02,6773,5,67,34,24,1213,505.0,619,460,60,119.0,79,1,262,158,41,0,0,498,6274,771,504,,,,,,,,,,,,
72583,1560694235826,5,2.26,2.11,3.29,1.94,5.07,1.08,-0.27,0.44,0,-3,2,1.11,6754,5,67,34,24,1205,504.0,617,457,60,120.0,79,1,262,158,41,0,0,492,-32248,3,502,,,,,,,,,,,,
72603,1560694235846,1,2.25,2.11,3.3,1.93,5.04,1.07,-0.15,0.36,0,-2,3,1.08,6713,5,67,34,24,1180,501.0,611,460,60,118.0,79,1,262,158,41,0,0,497,11560,-6656,500,,,,,,,,,,,,
72623,1560694235866,3,2.27,2.11,3.3,1.94,5.04,1.04,-0.26,0.35,0,-2,3,1.07,6651,5,67,34,24,1158,500.0,609,456,60,120.0,78,1,263,157,39,0,0,491,10408,-1818,501,,,,,,,,,,,,
72643,1560694235886,8,2.25,2.12,3.3,1.94,5.05,0.97,-0.12,0.38,-0,-1,2,0.98,6599,4,67,34,24,1138,497.0,615,453,60,119.0,78,1,263,157,39,0,0,492,-9216,-6656,495,45.700752,4.909652,49.72,195.1,0,0.0,0,0.0,0.0667,1,0.04,1.2107
72663,1560694235906,5,2.25,2.11,3.3,1.95,5.06,1.04,-0.11,0.38,0,-0,1,1.05,6553,4,67,34,24,1118,492.0,611,456,60,118.0,78,1,263,157,39,0,0,485,-32768,-899,492,,,,,,,,,,,,
72683,1560694235926,8,2.26,2.1,3.31,1.94,5.07,1.0,-0.12,0.38,0,-0,0,1.01,6546,4,67,34,24,1086,488.0,603,459,60,120.0,78,1,263,157,39,0,0,478,1,16648,487,,,,,,,,,,,,
72703,1560694235946,9,2.26,2.1,3.31,1.94,5.04,0.96,-0.07,0.33,-0,0,-1,0.97,6519,4,67,34,24,1051,486.0,605,458,60,118.0,78,1,263,157,39,0,0,477,-1562,16648,485,,,,,,,,,,,,
72723,1560694235966,5,2.27,2.09,3.32,1.93,5.06,1.03,0.0,0.27,0,0,-1,1.03,6456,4,67,34,24,1037,485.0,598,457,60,119.0,78,1,264,157,38,0,0,480,-10483,-9203,483,,,,,,,,,,,,
72743,1560694235986,9,2.26,2.09,3.32,1.93,5.07,1.11,-0.12,0.29,1,-1,-1,1.12,6386,4,67,34,24,1024,482.0,586,458,60,120.0,78,1,265,157,38,0,0,470,-899,-1923,481,45.700764,4.909659,48.78,195.1,0,0.0,0,0.0,0.0683,1,0.05,1.2124
72763,1560694236000,9,2.26,2.09,3.33,1.93,5.06,1.18,-0.13,0.32,-0,-4,-1,1.18,6345,4,67,34,25,1011,477.0,583,456,60,120.0,78,1,267,161,38,0,0,464,2212,-3210,477,,,,,,,,,,,,
72783,1560694236020,14,2.26,2.08,3.33,1.93,5.08,1.13,-0.11,0.36,-1,-5,-1,1.14,6296,4,67,34,25,998,473.0,587,461,60,119.0,78,1,267,161,38,0,0,466,8488,2211,471,,,,,,,,,,,,
72803,1560694236040,9,2.25,2.07,3.36,1.92,5.04,1.09,-0.01,0.24,-1,-3,-0,1.09,6268,4,67,34,25,996,470.0,587,458,60,118.0,78,1,268,161,38,0,0,454,8488,-18108,467,,,,,,,,,,,,
72823,1560694236060,10,2.26,2.07,3.36,1.92,5.08,1.02,-0.01,0.13,-1,-0,-1,1.02,6208,4,67,34,25,998,465.0,582,456,60,120.0,81,1,268,161,38,0,0,459,2211,2524,465,,,,,,,,,,,,
72843,1560694236080,10,2.25,2.08,3.35,1.92,5.05,1.04,-0.06,0.08,-1,1,-2,1.04,6135,4,67,34,25,1000,462.0,581,452,60,120.0,81,1,269,161,38,0,0,454,-23623,8488,462,45.700775,4.909667,47.66,195.1,0,0.0,0,0.0,0.07,1,0.05,1.2141
72863,1560694236106,10,2.25,2.08,3.34,1.92,5.04,1.14,-0.04,0.15,-1,0,-3,1.14,6058,4,67,34,25,1002,456.0,572,454,60,120.0,81,1,270,161,38,0,0,450,14488,15649,456,,,,,,,,,,,,
72883,1560694236126,11,2.26,2.08,3.37,1.92,5.04,1.23,-0.1,0.21,-1,-0,-4,1.23,5990,4,67,34,26,1002,454.0,563,455,60,120.0,81,1,271,162,38,0,0,447,-8985,2131,454,,,,,,,,,,,,
72903,1560694236146,11,2.26,2.07,3.37,1.91,5.05,1.31,-0.12,0.22,-1,-2,-4,1.31,5937,4,67,34,26,1003,448.0,566,458,60,120.0,81,1,271,162,38,0,0,441,8488,21432,447,,,,,,,,,,,,
72923,1560694236166,11,2.27,2.06,3.39,1.89,5.06,1.38,-0.2,0.27,-2,-2,-4,1.39,5896,4,67,34,26,1007,442.0,563,453,60,119.0,80,1,270,162,36,0,0,435,26704,26704,442,,,,,,,,,,,,
72943,1560694236186,17,2.26,2.05,3.43,1.87,5.08,1.44,-0.25,0.32,-3,0,-4,1.46,5855,4,67,34,26,1011,441.0,552,456,60,120.0,80,1,273,163,36,0,0,422,-28332,-7939,438,45.700787,4.909673,46.01,195.1,0,0.0,0,0.0,0.0717,1,0.05,1.2157
72963,1560694236206,14,2.26,2.05,3.46,1.85,5.06,1.44,-0.21,0.24,-4,3,-4,1.45,5783,4,67,34,27,1016,438.0,551,457,60,119.0,80,1,272,163,36,0,0,416,21580,13180,434,,,,,,,,,,,,
72983,1560694236226,14,2.26,2.05,3.46,1.83,5.04,1.24,-0.15,0.16,-3,5,-4,1.25,5742,4,67,34,27,1020,434.0,545,457,60,119.0,80,1,271,163,36,0,0,423,-768,-21792,431,,,,,,,,,,,,
73003,1560694236246,12,2.25,2.06,3.46,1.81,5.08,1.09,-0.08,0.13,-2,3,-4,1.09,5656,4,67,34,28,1024,433.0,537,457,60,120.0,80,1,273,163,36,0,0,419,1779,-21944,426,,,,,,,,,,,,
73023,1560694236266,10,2.27,2.06,3.45,1.81,5.04,1.18,-0.09,0.13,-2,0,-4,1.19,5598,4,67,34,28,1027,425.0,525,458,60,120.0,80,1,271,163,34,0,0,417,-3856,-26615,425,,,,,,,,,,,,
73043,1560694236286,15,2.27,2.05,3.42,1.82,5.03,1.27,-0.12,0.12,-3,1,-3,1.27,5562,4,67,34,28,1029,423.0,528,469,60,119.0,80,1,271,163,34,0,0,406,3826,13040,418,45.700798,4.90968,44.36,195.1,0,0.0,0,0.0,0.0733,1,0.05,1.2174
73063,1560694236306,11,2.27,2.06,3.42,1.83,5.04,1.1,-0.13,0.16,-1,4,-3,1.11,5521,4,67,34,29,1029,416.0,522,466,60,119.0,80,1,273,163,34,0,0,405,-9166,11560,416,,,,,,,,,,,,
73083,1560694236326,10,2.27,2.06,3.4,1.83,5.04,1.1,-0.03,0.17,-0,1,-3,1.1,5498,4,67,34,30,1025,411.0,516,457,60,120.0,80,1,274,163,34,0,0,401,-4059,1504,411,,,,,,,,,,,,
73103,1560694236346,12,2.26,2.06,3.4,1.82,5.04,1.2,-0.03,0.18,-1,1,-3,1.2,5460,4,67,34,30,1022,408.0,514,448,60,120.0,80,1,274,163,34,0,0,400,-26615,6384,406,,,,,,,,,,,,
73123,1560694236366,11,2.27,2.05,3.39,1.82,5.05,1.04,-0.07,0.19,1,2,-3,1.05,5423,4,67,34,31,1019,405.0,516,467,60,119.0,81,1,276,164,33,0,0,398,1504,6512,405,,,,,,,,,,,,
73143,1560694236386,14,2.28,2.04,3.38,1.82,5.05,1.14,-0.06,0.17,-0,1,-3,1.14,5325,4,67,34,31,1017,402.0,510,444,60,120.0,81,1,274,163,33,0,0,397,10541,-1818,402,45.700806,4.909687,42.08,195.0,0,0.0,0,0.0,0.075,1,0.05,1.2191
73163,1560694236406,10,2.27,2.03,3.39,1.81,5.07,1.01,-0.1,0.16,-0,3,-2,1.01,5259,4,67,34,31,1016,398.0,499,455,60,119.0,81,1,273,162,33,0,0,387,6384,-6656,398,,,,,,,,,,,,
73183,1560694236426,13,2.27,2.02,3.38,1.82,5.04,1.11,-0.1,0.2,-1,0,-2,1.11,5246,4,67,34,32,1015,393.0,499,453,60,120.0,81,1,274,163,33,0,0,384,-6656,-19019,393,,,,,,,,,,,,
73203,1560694236446,10,2.27,2.03,3.38,1.82,5.03,0.92,-0.15,0.22,-0,1,-3,0.94,5225,4,67,34,32,1017,390.0,499,453,60,119.0,81,1,274,163,33,0,0,383,-6524,-18948,390,,,,,,,,,,,,
73223,1560694236466,12,2.27,2.03,3.4,1.82,5.04,1.03,-0.08,0.23,-0,-1,-2,1.04,5224,4,67,34,33,1019,387.0,494,443,60,120.0,85,1,278,169,33,0,0,376,240,19125,386,,,,,,,,,,,,
73243,1560694236486,10,2.28,2.03,3.41,1.81,5.04,0.79,-0.1,0.21,1,4,-3,0.8,5139,4,67,34,34,1024,385.0,494,454,60,119.0,85,1,280,174,33,0,0,373,-19126,-6656,385,45.700817,4.909693,40.44,195.0,0,0.0,0,0.0,0.0767,1,0.05,1.2207
73263,1560694236506,7,2.3,2.03,3.41,1.83,5.05,0.92,-0.03,0.22,-0,3,-1,0.92,5033,4,67,34,34,1033,381.0,491,441,60,119.0,85,1,278,92,33,0,0,374,-992,486,381,,,,,,,,,,,,
73283,1560694236526,11,2.28,2.03,3.4,1.85,5.05,0.93,-0.01,0.29,1,-0,-0,0.93,5006,4,67,34,35,1039,380.0,473,452,60,120.0,85,1,278,173,33,0,0,373,-6656,-6656,380,,,,,,,,,,,,
73303,1560694236546,9,2.29,2.02,3.39,1.85,5.07,0.8,-0.08,0.31,2,4,-1,0.8,4957,4,67,34,35,1045,375.0,471,451,60,119.0,85,1,279,179,33,0,0,366,-6656,0,375,,,,,,,,,,,,
73323,1560694236566,7,2.28,2.03,3.38,1.85,5.05,0.91,-0.13,0.33,1,2,-2,0.92,4925,4,67,34,36,1049,372.0,469,445,60,119.0,91,1,282,185,34,0,0,364,0,-1268,372,,,,,,,,,,,,
73343,1560694236586,10,2.29,2.03,3.38,1.86,5.04,0.97,0.01,0.26,1,-1,1,0.97,4926,4,67,34,36,1048,370.0,463,436,60,120.0,91,1,282,185,34,0,0,357,230,-14707,370,45.700825,4.909698,38.34,195.0,0,0.0,0,0.0,0.0783,1,0.05,1.2224
73363,1560694236606,11,2.3,2.02,3.36,1.86,5.06,0.81,0.03,0.23,3,2,1,0.81,4896,4,67,34,37,1046,365.0,463,451,60,120.0,91,1,284,190,34,0,0,357,-14707,-6640,365,,,,,,,,,,,,
73383,1560694236626,7,2.29,2.0,3.36,1.84,5.05,0.81,-0.0,0.24,2,3,2,0.81,4857,4,67,34,38,1041,360.0,462,459,60,120.0,91,1,286,110,34,0,0,355,-29302,3302,360,,,,,,,,,,,,
73403,1560694236646,6,2.29,2.01,3.37,1.83,5.05,0.89,-0.06,0.34,0,3,1,0.89,4778,4,67,34,38,1033,359.0,451,447,60,118.0,91,1,283,192,34,0,0,349,3302,28553,359,,,,,,,,,,,,
73423,1560694236666,6,2.29,2.01,3.36,1.84,5.05,1.0,0.02,0.34,-0,1,1,1.0,4718,4,67,34,38,1017,356.0,448,436,60,120.0,95,1,280,191,34,0,0,348,-6644,-1246,354,,,,,,,,,,,,
73443,1560694236686,8,2.28,2.01,3.37,1.83,5.04,1.1,0.07,0.3,-0,-3,3,1.11,4692,4,67,34,39,1002,352.0,444,446,60,121.0,95,1,284,195,34,0,0,345,-30454,-10554,352,45.700836,4.909704,36.5,195.0,0,0.0,0,0.0,0.08,1,0.05,1.2241
73463,1560694236705,9,2.28,2.01,3.37,1.84,5.04,1.09,0.13,0.24,0,-2,3,1.1,4665,4,67,34,39,992,349.0,432,446,60,120.0,95,1,283,194,34,0,0,342,8841,-14714,349,,,,,,,,,,,,
73483,1560694236725,7,2.29,2.01,3.36,1.84,5.05,1.1,0.12,0.24,1,-1,3,1.11,4569,4,67,35,40,983,346.0,433,449,60,119.0,95,1,280,191,34,0,0,342,6870,-31206,346,,,,,,,,,,,,
73503,1560694236745,5,2.29,2.03,3.38,1.86,5.05,1.1,0.13,0.24,3,-3,3,1.11,4431,4,67,35,40,975,345.0,412,454,60,122.0,95,1,274,187,34,0,0,342,-31206,6870,345,,,,,,,,,,,,
73523,1560694236765,7,2.29,2.03,3.42,1.86,5.05,1.17,0.07,0.21,3,-4,2,1.17,4337,4,67,35,40,967,342.0,413,455,60,122.0,87,1,269,184,30,0,0,334,-122,3327,342,,,,,,,,,,,,
73543,1560694236785,7,2.29,2.0,3.4,1.83,5.07,1.24,0.05,0.21,3,-4,3,1.24,4314,4,67,35,40,968,339.0,401,443,60,121.0,87,1,268,183,30,0,0,289,4838,24320,335,45.700844,4.909709,35.35,195.0,0,0.0,0,0.0,0.0817,1,0.06,1.2257
73563,1560694236805,6,2.29,1.98,3.4,1.81,5.06,1.32,0.1,0.2,2,-6,4,1.32,4562,3,67,35,40,970,333.0,413,431,60,121.0,87,1,280,191,30,0,0,296,175,30720,333,,,,,,,,,,,,
73583,1560694236825,6,2.29,1.97,3.41,1.81,5.06,1.33,0.13,0.23,3,-8,5,1.34,4627,3,67,35,41,974,328.0,417,425,60,122.0,87,1,283,193,30,0,0,275,-22016,-1,328,,,,,,,,,,,,
73603,1560694236845,7,2.3,1.96,3.4,1.81,5.07,1.27,0.14,0.15,4,-6,4,1.28,4755,3,67,35,41,978,327.0,433,440,60,122.0,87,1,290,200,30,0,0,271,-24576,-1,327,,,,,,,,,,,,
73623,1560694236865,4,2.31,1.97,3.39,1.8,5.04,1.13,0.12,0.11,5,-2,3,1.13,4847,4,67,35,41,981,321.0,452,453,60,121.0,114,1,294,203,37,0,0,276,-27136,-1,321,,,,,,,,,,,,
73643,1560694236885,6,2.29,1.97,3.39,1.8,5.04,1.22,0.09,0.19,4,-4,3,1.22,4978,3,67,35,41,983,318.0,463,443,60,120.0,114,1,299,209,37,0,0,278,130,-1281,318,45.700851,4.909715,33.72,195.0,0,0.0,0,0.0,0.0833,1,0.06,1.2274
73663,1560694236905,8,2.3,1.97,3.39,1.79,5.07,1.27,0.1,0.19,4,-6,3,1.27,5095,3,67,35,41,986,312.0,473,444,60,121.0,114,1,302,208,37,0,0,280,115,20480,309,,,,,,,,,,,,
73683,1560694236925,6,2.3,1.96,3.42,1.79,5.06,1.08,0.09,0.21,4,-3,3,1.09,5230,3,67,35,41,991,305.0,485,448,60,120.0,114,1,306,209,37,0,0,273,28160,20480,305,,,,,,,,,,,,
73703,1560694236945,7,2.3,1.96,3.45,1.81,5.07,1.18,0.09,0.22,5,-5,2,1.18,5341,3,67,35,40,992,302.0,496,451,60,122.0,114,1,305,207,37,0,0,274,95,250,302,,,,,,,,,,,,
73723,1560694236965,8,2.3,1.98,3.44,1.81,5.07,1.13,0.01,0.18,3,-2,2,1.13,5361,3,67,35,40,993,299.0,505,461,60,120.0,140,1,305,207,42,0,0,281,23040,250,296,,,,,,,,,,,,
73743,1560694236985,5,2.3,1.97,3.4,1.81,5.07,1.04,0.08,0.2,5,-5,3,1.04,5389,3,67,35,39,994,294.0,513,448,60,122.0,140,1,303,206,42,0,0,290,80,-1534,294,45.700859,4.90972,31.76,195.0,0,0.0,0,0.0,0.085,1,0.06,1.2291
73763,1560694236999,6,2.3,1.97,3.4,1.81,5.05,1.14,0.02,0.21,2,-3,4,1.14,5358,3,67,35,38,996,291.0,511,451,60,120.0,140,1,299,199,42,0,0,282,0,0,291,,,,,,,,,,,,
73783,1560694237019,5,2.29,1.97,3.41,1.81,5.08,0.84,0.04,0.16,5,2,4,0.84,5351,3,67,35,38,997,289.0,502,452,60,120.0,140,1,299,199,42,0,0,281,250,-16896,289,,,,,,,,,,,,
73803,1560694237039,6,2.3,1.97,3.39,1.81,5.06,0.96,0.03,0.19,3,-2,6,0.96,5293,3,67,35,38,996,286.0,502,451,60,121.0,140,1,298,199,42,0,0,278,1886,-1529,284,,,,,,,,,,,,
73823,1560694237059,3,2.3,1.97,3.36,1.81,5.04,0.7,0.01,0.18,4,2,4,0.7,5233,3,67,35,38,993,282.0,498,455,60,120.0,137,1,298,199,39,0,0,278,24064,630,282,,,,,,,,,,,,
73843,1560694237079,6,2.29,1.98,3.37,1.81,5.04,0.83,0.01,0.22,3,-1,3,0.83,5142,3,67,35,37,988,281.0,486,448,60,122.0,137,1,292,192,39,0,0,277,-1534,630,281,45.700863,4.909725,29.63,195.0,0,0.0,0,0.0,0.0867,1,0.06,1.2307
73863,1560694237107,2,2.3,1.98,3.37,1.81,5.05,0.66,0.04,0.18,4,1,2,0.66,5106,3,67,35,38,983,279.0,477,458,60,121.0,137,1,296,198,39,0,0,275,30208,-1527,279,,,,,,,,,,,,
73883,1560694237127,4,2.29,1.99,3.37,1.83,5.04,0.78,-0.02,0.23,2,-0,1,0.78,5040,3,67,35,38,978,277.0,487,464,60,119.0,137,1,295,198,39,0,0,271,-1527,250,277,,,,,,,,,,,,
73903,1560694237147,7,2.29,2.0,3.37,1.82,5.04,0.9,0.06,0.19,3,-4,3,0.91,4968,3,67,35,38,972,274.0,475,447,60,121.0,137,1,293,116,39,0,0,266,-1281,-1,274,,,,,,,,,,,,
73923,1560694237167,8,2.3,1.99,3.38,1.85,5.04,0.7,0.08,0.13,4,1,3,0.71,4894,3,67,35,39,967,272.0,460,463,60,121.0,136,1,294,201,37,0,0,263,-1,-1,272,,,,,,,,,,,,
73943,1560694237187,4,2.3,2.0,3.38,1.84,5.04,0.7,0.01,0.18,3,3,3,0.7,4858,3,67,35,39,963,268.0,463,453,60,120.0,136,1,292,200,37,0,0,260,-1,-1,268,45.70087,4.90973,27.88,195.0,0,0.0,0,0.0,0.0883,1,0.06,1.2324
73963,1560694237207,3,2.3,1.98,3.36,1.83,5.04,0.83,-0.03,0.32,2,-0,2,0.84,4853,3,67,35,39,963,266.0,457,448,60,121.0,136,1,292,199,37,0,0,261,-1,-41,266,,,,,,,,,,,,
73983,1560694237227,4,2.31,1.98,3.35,1.82,5.05,0.95,0.02,0.29,2,-2,2,0.95,4843,3,67,35,39,960,265.0,456,452,60,122.0,136,1,292,199,37,0,0,258,-1,-1,264,,,,,,,,,,,,
74003,1560694237247,7,2.29,1.99,3.34,1.84,5.06,0.9,0.04,0.2,4,-2,2,0.9,4856,3,67,35,40,957,263.0,463,445,60,122.0,136,1,293,201,37,0,0,257,-10440,14337,262,,,,,,,,,,,,
74023,1560694237267,2,2.3,1.99,3.34,1.85,5.04,0.72,-0.02,0.2,3,2,1,0.72,4788,3,67,35,41,955,260.0,446,461,60,122.0,138,1,292,201,36,0,0,253,506,-1281,259,,,,,,,,,,,,
74043,1560694237287,1,2.3,1.99,3.34,1.85,5.03,0.73,-0.12,0.24,2,4,1,0.74,4701,3,67,35,41,952,258.0,450,443,60,120.0,138,1,288,199,36,0,0,251,-1281,-1,256,45.700878,4.909734,26.55,195.0,0,0.0,0,0.0,0.09,1,0.06,1.2341
74063,1560694237307,0,2.3,1.99,3.34,1.84,5.04,0.76,-0.15,0.31,1,3,1,0.77,4649,3,67,35,41,950,256.0,441,444,60,120.0,138,1,286,197,36,0,0,250,-1,10818,255,,,,,,,,,,,,
74083,1560694237327,1,2.3,2.0,3.34,1.85,5.04,0.85,-0.12,0.35,0,2,1,0.86,4620,3,67,35,41,947,255.0,432,450,60,120.0,138,1,285,196,36,0,0,250,-1,10818,254,,,,,,,,,,,,
74103,1560694237347,-0,2.29,2.01,3.34,1.85,5.04,0.94,-0.08,0.34,-0,-2,2,0.94,4586,3,67,35,41,945,252.0,435,439,60,120.0,138,1,284,195,36,0,0,248,-214,250,252,,,,,,,,,,,,
74123,1560694237367,-2,2.3,2.01,3.34,1.84,5.07,1.01,-0.0,0.37,-0,-4,3,1.01,4557,3,67,35,42,945,250.0,426,447,60,121.0,136,1,284,197,34,0,0,246,250,10812,250,,,,,,,,,,,,
74143,1560694237387,0,2.3,2.01,3.35,1.84,5.04,1.1,0.05,0.41,0,-7,5,1.1,4541,3,67,35,42,945,249.0,426,453,60,121.0,136,1,284,196,34,0,0,243,10812,-1445,249,45.700882,4.909739,25.34,195.0,0,0.0,0,0.0,0.0917,1,0.06,1.2357
74163,1560694237407,-0,2.3,2.01,3.37,1.84,5.08,1.15,0.08,0.48,1,-8,5,1.16,4508,3,67,35,42,947,247.0,419,446,60,121.0,136,1,283,195,34,0,0,242,10812,250,247,,,,,,,,,,,,
74183,1560694237427,-0,2.28,2.03,3.34,1.84,5.07,1.23,0.11,0.51,1,-10,5,1.24,4520,3,67,35,42,949,245.0,417,449,60,122.0,136,1,284,196,34,0,0,241,-1445,250,245,,,,,,,,,,,,
74203,1560694237447,-1,2.29,2.05,3.32,1.84,5.04,1.31,0.19,0.51,1,-11,5,1.32,4534,3,67,35,42,951,243.0,419,452,60,121.0,136,1,284,196,34,0,0,239,23482,250,243,,,,,,,,,,,,
74223,1560694237467,-2,2.29,2.06,3.31,1.84,5.04,1.34,0.24,0.52,2,-13,5,1.37,4512,3,67,35,42,953,241.0,417,453,60,122.0,136,1,283,195,33,0,0,239,250,-17920,241,,,,,,,,,,,,
74243,1560694237487,-2,2.28,2.05,3.32,1.83,5.06,1.37,0.29,0.55,2,-15,5,1.4,4471,3,67,35,42,957,240.0,418,455,60,121.0,136,1,282,194,33,0,0,238,13468,13468,240,45.70089,4.909742,24.34,194.9,0,0.0,0,0.0,0.0933,1,0.06,1.2374
74263,1560694237507,-0,2.28,2.04,3.32,1.84,5.04,1.42,0.29,0.58,2,-16,6,1.44,4437,3,67,35,42,960,239.0,413,445,60,122.0,136,1,280,193,33,0,0,236,13468,-25600,239,,,,,,,,,,,,
74283,1560694237527,-0,2.28,2.06,3.32,1.84,5.04,1.42,0.31,0.6,2,-17,6,1.46,4414,3,67,35,43,962,238.0,414,443,60,120.0,136,1,283,196,33,0,0,236,-25600,-1483,238,,,,,,,,,,,,
74303,1560694237547,1,2.28,2.07,3.33,1.83,5.06,1.44,0.32,0.62,2,-18,7,1.47,4399,3,67,35,42,963,237.0,414,450,60,121.0,136,1,279,192,33,0,0,234,250,-1483,237,,,,,,,,,,,,
74323,1560694237567,-1,2.28,2.07,3.32,1.84,5.07,1.42,0.27,0.66,1,-17,7,1.44,4304,3,67,35,42,961,235.0,403,450,60,120.0,131,1,276,193,31,0,0,233,-1483,13602,235,,,,,,,,,,,,
74343,1560694237587,4,2.27,2.06,3.32,1.84,5.08,1.3,0.21,0.62,1,-14,5,1.31,4260,3,67,35,43,959,234.0,401,453,60,120.0,131,1,278,192,31,0,0,234,13602,250,234,45.700897,4.909747,23.68,194.9,0,0.0,0,0.0,0.095,1,0.06,1.2391
74363,1560694237607,3,2.26,2.07,3.32,1.84,5.04,1.2,0.15,0.54,1,-10,4,1.21,4253,3,67,35,43,956,233.0,389,453,60,122.0,131,1,278,191,31,0,0,229,250,250,232,,,,,,,,,,,,
74383,1560694237627,1,2.26,2.06,3.32,1.83,5.03,1.14,0.18,0.52,2,-7,3,1.16,4269,3,67,35,43,952,231.0,391,453,60,122.0,131,1,278,192,31,0,0,229,-1494,250,231,,,,,,,,,,,,
74403,1560694237647,-2,2.25,2.07,3.32,1.84,5.04,1.16,0.2,0.51,2,-8,3,1.18,4228,4,67,35,43,950,230.0,387,457,60,122.0,131,1,277,190,31,0,0,227,10824,10318,229,,,,,,,,,,,,
74423,1560694237667,-2,2.24,2.07,3.32,1.84,5.05,1.21,0.19,0.52,1,-10,3,1.22,4244,4,67,35,43,947,229.0,389,448,60,121.0,131,1,278,191,30,0,0,226,18432,250,227,,,,,,,,,,,,
74443,1560694237687,1,2.23,2.07,3.31,1.83,5.06,1.19,0.14,0.53,1,-10,3,1.2,4238,4,67,35,43,948,227.0,396,450,60,120.0,131,1,277,191,30,0,0,225,18432,250,226,45.700901,4.909751,22.74,194.9,0,0.0,0,0.0,0.0967,1,0.06,1.2407
74463,1560694237706,3,2.22,2.09,3.3,1.84,5.04,1.14,0.12,0.52,0,-7,3,1.15,4195,4,67,35,43,949,228.0,387,447,60,121.0,131,1,276,189,30,0,0,225,250,250,225,,,,,,,,,,,,
74483,1560694237726,-0,2.2,2.1,3.28,1.84,5.04,1.06,0.15,0.47,0,-3,2,1.07,4169,4,67,35,43,953,226.0,380,452,60,122.0,131,1,275,189,30,0,0,225,10318,250,222,,,,,,,,,,,,
74503,1560694237746,-2,2.2,2.11,3.28,1.84,5.04,1.07,0.19,0.51,0,-5,2,1.08,4164,4,67,35,43,958,224.0,382,456,60,122.0,131,1,275,189,30,0,0,225,250,15360,220,,,,,,,,,,,,
74523,1560694237766,1,2.18,2.11,3.28,1.83,5.04,1.11,0.18,0.55,-1,-7,2,1.12,4150,4,68,35,43,962,225.0,384,452,60,121.0,132,1,275,188,29,0,0,222,250,1210,219,,,,,,,,,,,,
74543,1560694237786,4,2.18,2.1,3.28,1.84,5.04,1.05,0.16,0.52,-2,-5,1,1.06,4098,4,68,35,43,966,225.0,376,451,60,120.0,132,1,273,186,29,0,0,223,19968,-1532,217,45.700905,4.909754,22.24,194.9,0,0.0,0,0.0,0.0983,1,0.06,1.2424
74563,1560694237806,-1,2.17,2.11,3.28,1.83,5.08,1.0,0.18,0.47,-2,-2,-1,1.02,4073,4,68,35,43,964,224.0,378,455,60,122.0,132,1,272,185,29,0,0,220,250,1088,217,,,,,,,,,,,,
74583,1560694237826,-1,2.16,2.12,3.27,1.84,5.04,1.02,0.18,0.5,-2,-5,-1,1.03,4039,4,68,35,43,963,223.0,369,453,60,122.0,132,1,271,184,29,0,0,222,-1530,16384,215,,,,,,,,,,,,
74603,1560694237846,5,2.14,2.12,3.26,1.83,5.05,1.01,0.14,0.54,-3,-6,-2,1.02,3999,4,68,35,43,958,223.0,369,454,60,120.0,132,1,269,183,29,0,0,222,-1530,16384,214,,,,,,,,,,,,
74623,1560694237866,-1,2.14,2.12,3.26,1.84,5.06,0.97,0.17,0.5,-3,-3,-3,0.99,3977,4,68,35,44,953,222.0,369,455,60,121.0,126,1,268,183,27,0,0,217,1596,-14848,212,,,,,,,,,,,,
74643,1560694237886,-1,2.12,2.13,3.26,1.84,5.04,0.95,0.2,0.51,-4,-5,-3,0.97,3974,4,68,35,44,946,222.0,362,453,60,122.0,126,1,268,183,27,0,0,219,1596,-14848,210,45.700909,4.909759,21.84,194.9,0,0.0,0,0.0,0.1,1,0.06,1.2441
74663,1560694237906,3,2.11,2.13,3.27,1.83,5.04,0.94,0.15,0.51,-5,-5,-4,0.95,3974,4,68,35,43,938,220.0,359,455,60,120.0,126,1,273,187,27,0,0,218,250,13964,208,,,,,,,,,,,,
74683,1560694237926,-2,2.09,2.13,3.27,1.83,5.06,0.91,0.16,0.47,-5,-3,-5,0.93,3988,5,68,35,44,933,221.0,366,457,60,122.0,126,1,274,187,27,0,0,216,15360,-29696,206,,,,,,,,,,,,
74703,1560694237946,0,2.08,2.13,3.24,1.82,5.07,0.94,0.17,0.47,-6,-6,-5,0.95,3980,5,68,35,44,931,219.0,362,460,60,121.0,126,1,273,187,27,0,0,218,-1532,250,205,,,,,,,,,,,,
74723,1560694237966,3,2.07,2.13,3.22,1.83,5.04,0.89,0.17,0.45,-7,-4,-7,0.91,3931,5,68,35,44,929,220.0,364,458,60,120.0,131,1,269,186,27,0,0,219,250,-1482,203,,,,,,,,,,,,
74743,1560694237986,-0,2.06,2.13,3.21,1.84,5.07,0.87,0.17,0.45,-8,-3,-7,0.88,3906,5,68,35,44,927,219.0,361,455,60,122.0,131,1,268,186,27,0,0,217,-1532,-1480,203,45.700916,4.909761,21.0,194.9,0,0.0,0,0.0,0.1017,1,0.06,1.2457
74763,1560694238000,3,2.06,2.13,3.2,1.83,5.06,0.88,0.13,0.49,-8,-4,-8,0.89,3858,5,68,35,45,927,218.0,355,455,60,121.0,131,1,268,185,27,0,0,216,1210,12800,201,,,,,,,,,,,,
74783,1560694238020,-0,2.04,2.14,3.2,1.84,5.04,0.86,0.18,0.47,-9,-2,-10,0.88,3824,5,68,35,45,928,218.0,350,457,60,121.0,131,1,266,188,27,0,0,215,1210,14412,201,,,,,,,,,,,,
74803,1560694238040,-0,2.02,2.13,3.21,1.83,5.08,0.88,0.18,0.49,-10,-3,-9,0.9,3828,6,68,35,45,929,217.0,348,455,60,121.0,131,1,266,188,27,0,0,211,-17920,250,198,,,,,,,,,,,,
74823,1560694238060,1,2.01,2.13,3.21,1.82,5.07,0.89,0.19,0.44,-11,0,-11,0.91,3873,6,68,35,46,933,217.0,350,455,60,121.0,136,1,274,192,27,0,0,216,-17920,-1481,198,,,,,,,,,,,,
74843,1560694238080,-1,2.0,2.15,3.2,1.83,5.05,0.93,0.19,0.47,-11,-1,-10,0.95,3801,6,68,35,46,935,217.0,352,451,60,121.0,136,1,267,109,27,0,0,213,-17920,-2560,196,45.70092,4.909765,20.48,194.9,0,0.0,0,0.0,0.1033,1,0.06,1.2474
74863,1560694238106,0,2.0,2.16,3.2,1.82,5.05,0.93,0.2,0.44,-12,1,-12,0.96,3807,7,68,35,46,937,217.0,351,455,60,120.0,136,1,271,195,27,0,0,214,-17920,250,196,,,,,,,,,,,,
74883,1560694238126,-2,1.99,2.16,3.19,1.82,5.06,0.94,0.21,0.45,-12,-1,-11,0.97,3795,7,68,35,47,941,217.0,345,448,60,122.0,136,1,270,194,27,0,0,214,-17920,-1281,193,,,,,,,,,,,,
74903,1560694238146,1,1.99,2.16,3.19,1.82,5.08,0.92,0.21,0.41,-13,1,-13,0.95,3738,8,68,35,47,948,216.0,348,452,60,120.0,136,1,267,198,27,0,0,213,250,-1281,193,,,,,,,,,,,,
74923,1560694238166,-0,1.98,2.15,3.17,1.82,5.02,0.95,0.25,0.47,-13,-2,-13,0.98,3711,8,68,35,48,952,215.0,341,453,60,122.0,141,1,261,197,27,0,0,211,-1532,-1,192,,,,,,,,,,,,
74943,1560694238186,1,1.98,2.16,3.18,1.83,5.05,0.9,0.24,0.46,-14,-1,-15,0.93,3725,9,68,35,49,956,214.0,340,450,60,120.0,141,1,263,201,27,0,0,210,1088,-1,190,45.700924,4.909768,20.03,194.9,0,0.0,0,0.0,0.105,1,0.06,1.2491
74963,1560694238206,1,1.98,2.17,3.19,1.83,5.06,0.93,0.27,0.51,-14,-3,-16,0.96,3732,9,68,35,50,960,213.0,340,451,60,122.0,141,1,264,205,27,0,0,210,16384,-1,189,,,,,,,,,,,,
74983,1560694238226,1,1.99,2.16,3.18,1.83,5.07,0.91,0.27,0.43,-14,0,-17,0.95,3682,9,68,35,51,967,211.0,339,446,60,121.0,141,1,259,209,27,0,0,209,-1533,-1,189,,,,,,,,,,,,
75003,1560694238246,1,1.99,2.17,3.17,1.85,5.04,0.94,0.27,0.48,-14,-1,-18,0.98,3682,10,68,35,52,972,211.0,342,442,60,121.0,141,1,260,213,27,0,0,209,-1533,-1,188,,,,,,,,,,,,
75023,1560694238266,-0,2.01,2.16,3.17,1.84,5.08,0.94,0.29,0.43,-14,0,-19,0.98,3682,10,68,35,53,974,210.0,334,455,60,121.0,155,1,260,217,29,0,0,207,966,-1,187,,,,,,,,,,,,
75043,1560694238286,5,2.01,2.16,3.17,1.84,5.04,0.91,0.28,0.46,-15,-1,-19,0.95,3663,11,68,35,54,978,208.0,338,443,60,121.0,155,1,258,222,29,0,0,206,250,-1,186,45.700928,4.90977,19.25,194.9,0,0.0,0,0.0,0.1067,1,0.07,1.2507
75063,1560694238302,-1,2.03,2.16,3.17,1.84,5.04,0.87,0.29,0.47,-14,0,-20,0.92,3659,13,68,35,55,984,208.0,333,436,60,122.0,155,1,258,226,29,0,0,205,250,-1,186,,,,,,,,,,,,
75083,1560694238322,3,2.04,2.16,3.17,1.86,5.04,0.84,0.24,0.48,-15,-1,-19,0.87,3677,15,68,35,56,989,207.0,336,435,60,120.0,155,1,260,230,29,0,0,204,-1482,-1,185,,,,,,,,,,,,
75103,1560694238342,-1,2.08,2.16,3.16,1.87,5.04,0.86,0.23,0.47,-14,-1,-19,0.89,3660,16,68,35,58,993,205.0,333,440,60,122.0,155,1,257,239,29,0,0,202,-29696,-1,186,,,,,,,,,,,,
75123,1560694238362,2,2.09,2.16,3.18,1.86,5.04,0.87,0.2,0.48,-14,1,-19,0.89,3698,17,68,35,60,997,205.0,338,441,60,120.0,183,1,261,249,34,0,0,203,-1482,-1,185,,,,,,,,,,,,
75143,1560694238382,-0,2.1,2.16,3.18,1.88,5.07,0.87,0.22,0.47,-14,0,-18,0.89,3722,18,68,36,62,1003,203.0,332,447,60,122.0,183,1,262,255,34,0,0,201,-1482,-1,185,45.700935,4.909772,18.95,194.9,0,0.0,0,0.0,0.1083,1,0.07,1.2524
75163,1560694238406,2,2.13,2.16,3.18,1.9,5.04,0.88,0.18,0.52,-14,-0,-18,0.9,3805,19,68,36,63,1010,201.0,345,443,60,121.0,183,1,272,265,34,0,0,200,12800,-1,186,,,,,,,,,,,,
75183,1560694238426,-1,2.16,2.16,3.18,1.91,5.03,0.84,0.18,0.53,-13,0,-18,0.86,3828,20,68,36,64,1013,200.0,340,441,60,122.0,183,1,275,270,34,0,0,199,250,-1,186,,,,,,,,,,,,
75203,1560694238446,0,2.19,2.15,3.19,1.91,5.04,0.83,0.14,0.56,-13,-1,-17,0.85,3929,21,68,36,66,1016,199.0,347,448,60,121.0,183,1,287,284,34,0,0,198,-1480,-1,187,,,,,,,,,,,,
75223,1560694238466,2,2.23,2.15,3.2,1.92,5.05,0.82,0.11,0.54,-12,0,-16,0.83,3999,23,68,36,67,1020,197.0,356,448,60,121.0,229,1,296,293,43,0,0,196,19456,-1,187,,,,,,,,,,,,
75243,1560694238486,-2,2.26,2.15,3.21,1.95,5.06,0.77,0.08,0.56,-10,0,-16,0.78,4023,25,68,36,68,1024,195.0,357,448,60,122.0,229,1,298,299,43,0,0,193,-1481,-1,188,45.700939,4.909774,18.69,194.9,0,0.0,0,0.0,0.11,1,0.07,1.2541
75263,1560694238506,-1,2.3,2.14,3.26,1.95,5.04,0.79,0.04,0.54,-9,-2,-13,0.79,4147,27,68,36,69,1026,194.0,368,441,60,120.0,229,1,296,303,43,0,0,194,14326,-1,189,,,,,,,,,,,,
75283,1560694238526,1,2.33,2.13,3.26,1.98,5.04,0.79,0.01,0.61,-8,-0,-12,0.79,4184,29,68,36,71,1028,193.0,380,432,60,120.0,229,1,296,311,43,0,0,193,-2560,-1,191,,,,,,,,,,,,
75303,1560694238546,2,2.35,2.14,3.26,2.04,5.05,0.76,-0.02,0.69,-7,0,-11,0.76,4104,31,68,36,73,1028,192.0,372,442,60,120.0,229,1,297,314,43,0,0,196,-1281,250,192,,,,,,,,,,,,
75323,1560694238566,-1,2.39,2.15,3.25,2.12,5.04,0.75,-0.01,0.71,-6,-1,-10,0.75,4006,31,68,36,75,1028,197.0,366,443,60,122.0,243,1,298,316,48,0,0,199,-2560,250,197,,,,,,,,,,,,
75343,1560694238586,5,2.42,2.17,3.23,2.18,5.04,0.72,-0.06,0.71,-4,1,-9,0.72,3847,31,68,36,76,1028,200.0,362,443,60,119.0,243,1,280,309,48,0,0,200,14326,13964,202,45.700943,4.909776,18.58,194.9,0,0.0,0,0.0,0.1117,1,0.07,1.2557
75363,1560694238606,1,2.45,2.2,3.22,2.24,5.07,0.69,-0.06,0.78,-2,-0,-7,0.69,3720,31,68,36,78,1027,205.0,342,454,60,122.0,243,1,265,320,48,0,0,203,19456,-1482,205,,,,,,,,,,,,
75383,1560694238626,-1,2.47,2.21,3.22,2.25,5.07,0.68,-0.08,0.71,-1,1,-6,0.68,3539,31,68,36,80,1029,209.0,333,441,60,120.0,243,1,244,320,48,0,0,203,14412,-14848,209,,,,,,,,,,,,
75403,1560694238646,4,2.48,2.2,3.27,2.23,5.05,0.71,-0.12,0.72,0,-0,-4,0.73,3435,31,68,36,81,1031,210.0,323,445,60,122.0,243,1,235,318,48,0,0,200,14412,966,210,,,,,,,,,,,,
75423,1560694238666,0,2.5,2.17,3.36,2.21,5.05,0.74,-0.12,0.71,2,-1,-2,0.76,3488,31,68,36,83,1034,210.0,316,450,60,122.0,204,1,239,329,43,0,0,197,19456,250,210,,,,,,,,,,,,
75443,1560694238686,-1,2.5,2.14,3.41,2.18,5.08,0.75,-0.15,0.71,3,-1,-0,0.76,3621,31,68,36,84,1037,212.0,325,440,60,120.0,204,1,253,355,43,0,0,195,-1481,-14848,212,45.700947,4.909777,18.58,194.9,0,0.0,0,0.0,0.1133,1,0.07,1.2574
75463,1560694238705,-1,2.5,2.14,3.41,2.18,5.07,0.74,-0.17,0.72,4,-3,1,0.76,3578,31,68,36,84,1059,213.0,321,453,60,122.0,204,1,248,349,43,0,0,195,-1481,966,213,,,,,,,,,,,,
75483,1560694238725,-1,2.5,2.14,3.41,2.18,5.08,0.73,-0.17,0.65,5,-1,3,0.75,3595,31,68,36,84,1086,214.0,325,447,60,121.0,204,1,250,352,43,0,0,194,250,-1533,214,,,,,,,,,,,,
75503,1560694238745,2,2.5,2.15,3.37,2.18,5.04,0.75,-0.17,0.66,5,-2,5,0.77,3611,31,68,36,84,1112,214.0,322,441,60,120.0,204,1,252,354,43,0,0,194,-1481,250,214,,,,,,,,,,,,
75523,1560694238765,-2,2.5,2.15,3.35,2.16,5.05,0.74,-0.15,0.63,6,-0,6,0.76,3698,31,68,36,84,1137,213.0,332,450,60,122.0,239,1,262,364,51,0,0,193,14326,966,213,,,,,,,,,,,,
75543,1560694238785,5,2.5,2.14,3.36,2.16,5.04,0.78,-0.17,0.63,7,-1,8,0.79,3787,32,68,36,84,1172,213.0,335,440,60,121.0,239,1,272,376,51,0,0,193,14326,966,213,45.700954,4.909779,19.76,194.9,0,0.0,0,0.0,0.115,1,0.07,1.259
75563,1560694238807,-0,2.51,2.14,3.36,2.14,5.08,0.76,-0.18,0.6,8,0,8,0.78,3850,32,68,36,84,1212,212.0,340,452,60,122.0,239,1,279,383,51,0,0,192,-2560,966,212,,,,,,,,,,,,
75583,1560694238827,-1,2.5,2.14,3.34,2.13,5.04,0.77,-0.19,0.56,8,-1,9,0.79,4015,32,68,36,83,1239,212.0,350,451,60,122.0,239,1,296,399,51,0,0,192,250,250,212,,,,,,,,,,,,
75603,1560694238847,0,2.51,2.14,3.34,2.12,5.04,0.8,-0.19,0.61,9,-3,11,0.82,4096,32,68,36,82,1254,211.0,365,446,60,120.0,239,1,296,404,51,0,0,193,-2560,-14848,211,,,,,,,,,,,,
75623,1560694238867,3,2.5,2.14,3.34,2.12,5.04,0.77,-0.25,0.63,10,-2,11,0.81,4172,32,68,36,82,1289,211.0,364,450,60,120.0,293,1,295,397,62,0,0,192,-2560,250,211,,,,,,,,,,,,
75643,1560694238887,2,2.5,2.15,3.34,2.12,5.04,0.75,-0.24,0.61,10,1,12,0.79,4255,32,68,36,82,1332,211.0,381,447,60,122.0,293,1,294,401,62,0,0,197,250,16384,211,45.700958,4.909781,19.71,194.9,0,0.0,0,0.0,0.1167,1,0.07,1.2607
75663,1560694238905,0,2.51,2.16,3.34,2.15,5.04,0.73,-0.23,0.62,11,1,13,0.76,4124,32,68,36,82,1368,215.0,373,463,60,122.0,293,1,296,394,62,0,0,202,14326,1088,215,,,,,,,,,,,,
75683,1560694238925,-1,2.52,2.18,3.31,2.2,5.08,0.74,-0.23,0.66,11,0,14,0.77,4161,32,68,36,82,1397,215.0,373,437,60,122.0,293,1,295,396,62,0,0,213,-1480,-1532,215,,,,,,,,,,,,
75703,1560694238945,4,2.51,2.21,3.28,2.21,5.05,0.71,-0.29,0.67,11,1,14,0.77,4077,32,68,36,82,1427,218.0,373,447,60,120.0,293,1,294,383,62,0,0,223,250,15360,218,,,,,,,,,,,,
75723,1560694238965,-2,2.52,2.21,3.27,2.2,5.05,0.72,-0.28,0.66,11,1,15,0.77,3891,32,68,36,82,1460,221.0,354,458,60,122.0,263,1,284,374,58,0,0,216,250,250,221,,,,,,,,,,,,
75743,1560694238985,-2,2.52,2.22,3.28,2.18,5.06,0.74,-0.3,0.69,11,-1,16,0.8,4042,32,68,36,82,1481,222.0,358,452,60,121.0,263,1,297,389,58,0,0,210,-29696,15360,222,45.700962,4.909783,19.6,194.9,0,0.0,0,0.0,0.1183,1,0.07,1.2624
75763,1560694238999,2,2.52,2.21,3.28,2.17,5.08,0.71,-0.31,0.7,12,0,15,0.77,4011,32,68,36,82,1486,224.0,361,450,60,120.0,263,1,297,387,58,0,0,215,13964,1596,224,,,,,,,,,,,,
75783,1560694239019,-1,2.51,2.21,3.31,2.18,5.06,0.72,-0.33,0.7,12,-0,15,0.79,3959,32,68,36,82,1479,227.0,360,465,60,122.0,263,1,292,381,58,0,0,215,-14848,250,227,,,,,,,,,,,,
75803,1560694239039,-1,2.53,2.21,3.31,2.18,5.04,0.75,-0.33,0.69,12,-1,17,0.82,4101,32,68,36,82,1460,229.0,361,452,60,122.0,263,1,296,393,58,0,0,213,250,250,229,,,,,,,,,,,,
75823,1560694239059,4,2.54,2.21,3.32,2.18,5.07,0.72,-0.37,0.73,12,-1,17,0.82,4191,32,68,36,82,1440,229.0,376,451,60,120.0,270,1,295,398,62,0,0,213,-14848,10318,229,,,,,,,,,,,,
75843,1560694239079,4,2.55,2.2,3.33,2.18,5.07,0.71,-0.38,0.75,13,-0,17,0.8,4162,32,68,36,82,1417,230.0,373,452,60,121.0,270,1,295,396,62,0,0,215,-1533,18432,230,45.700966,4.909786,20.16,194.9,0,0.0,0,0.0,0.12,1,0.07,1.264
75863,1560694239107,2,2.57,2.2,3.35,2.18,5.04,0.71,-0.4,0.74,14,0,17,0.82,4231,32,68,36,82,1389,232.0,372,460,60,122.0,270,1,294,400,62,0,0,219,966,-1494,232,,,,,,,,,,,,
75883,1560694239127,-1,2.59,2.19,3.33,2.19,5.04,0.7,-0.44,0.74,15,0,17,0.82,4382,32,68,36,82,1348,235.0,384,465,60,122.0,270,1,292,408,62,0,0,216,16384,-1483,235,,,,,,,,,,,,
75903,1560694239147,-1,2.61,2.18,3.33,2.21,5.04,0.71,-0.47,0.73,16,-1,18,0.85,4270,32,68,36,81,1313,238.0,385,460,60,122.0,270,1,293,390,62,0,0,222,250,-25600,238,,,,,,,,,,,,
75923,1560694239167,-2,2.64,2.17,3.33,2.22,5.06,0.7,-0.47,0.74,17,-1,20,0.84,4329,32,68,36,81,1297,239.0,387,446,60,121.0,271,1,293,393,65,0,0,223,1088,250,240,,,,,,,,,,,,
75943,1560694239187,-2,2.65,2.17,3.34,2.22,5.05,0.69,-0.48,0.76,18,-2,21,0.84,4448,32,68,36,81,1281,242.0,392,445,60,121.0,271,1,291,399,65,0,0,226,16384,-17920,242,45.700974,4.909789,21.27,194.9,0,0.0,0,0.0,0.1217,1,0.07,1.2657
75963,1560694239207,-1,2.66,2.15,3.35,2.23,5.04,0.72,-0.5,0.79,19,-2,22,0.88,4414,32,68,36,81,1263,244.0,406,448,60,120.0,271,1,291,397,65,0,0,240,-1532,23482,244,,,,,,,,,,,,
75983,1560694239227,-1,2.67,2.14,3.38,2.26,5.04,0.69,-0.51,0.77,19,-4,23,0.85,4496,32,68,36,80,1247,246.0,401,446,60,120.0,271,1,290,402,65,0,0,255,250,-1445,246,,,,,,,,,,,,
76003,1560694239247,-0,2.68,2.14,3.38,2.28,5.04,0.71,-0.48,0.79,20,-3,25,0.86,4631,32,68,36,80,1246,249.0,411,443,60,120.0,271,1,288,409,65,0,0,241,-17920,10812,249,,,,,,,,,,,,
76023,1560694239267,1,2.69,2.15,3.37,2.28,5.08,0.71,-0.45,0.82,20,-4,26,0.84,4743,32,68,36,80,1243,250.0,422,449,60,122.0,284,1,286,402,71,0,0,235,-17920,250,250,,,,,,,,,,,,
76043,1560694239287,3,2.69,2.18,3.35,2.31,5.04,0.74,-0.49,0.83,21,-4,25,0.89,4760,32,68,36,80,1235,253.0,424,461,60,122.0,284,1,286,403,71,0,0,242,-1532,-1,253,45.700977,4.909792,21.42,194.9,0,0.0,0,0.0,0.1233,1,0.07,1.2674
76063,1560694239305,3,2.71,2.18,3.35,2.32,5.06,0.69,-0.54,0.79,22,-5,26,0.88,4758,32,68,36,80,1226,256.0,433,466,60,122.0,284,1,286,389,71,0,0,264,15360,-1,256,,,,,,,,,,,,
76083,1560694239325,1,2.7,2.17,3.35,2.32,5.05,0.66,-0.57,0.8,23,-4,27,0.87,4733,32,68,36,80,1218,258.0,432,469,60,120.0,284,1,286,401,71,0,0,275,-1530,14337,258,,,,,,,,,,,,
76103,1560694239345,0,2.71,2.13,3.39,2.3,5.07,0.75,-0.57,0.81,23,-5,30,0.94,4780,32,68,36,80,1210,261.0,431,455,60,119.0,284,1,285,404,71,0,0,257,-1530,-10440,261,,,,,,,,,,,,
76123,1560694239365,0,2.7,2.12,3.38,2.3,5.04,0.72,-0.56,0.9,24,-5,31,0.91,4854,32,68,36,79,1183,265.0,442,447,60,120.0,270,1,284,394,71,0,0,251,19968,-1,265,,,,,,,,,,,,
76143,1560694239385,4,2.71,2.11,3.37,2.3,5.05,0.75,-0.62,0.87,26,-3,31,0.97,4861,32,68,36,79,1156,266.0,438,464,60,122.0,270,1,284,394,71,0,0,247,10318,-1,266,45.700981,4.909796,22.59,194.9,0,0.0,0,0.0,0.125,1,0.07,1.269
76163,1560694239407,-1,2.7,2.12,3.37,2.29,5.05,0.73,-0.65,0.8,26,-4,31,0.97,4867,32,68,36,79,1137,269.0,440,465,60,122.0,270,1,284,395,71,0,0,269,18432,-1,269,,,,,,,,,,,,
76183,1560694239427,0,2.71,2.12,3.38,2.31,5.06,0.74,-0.65,0.81,26,-3,33,0.99,4919,32,68,36,79,1118,269.0,449,456,60,119.0,270,1,283,395,71,0,0,275,10824,-1,269,,,,,,,,,,,,
76203,1560694239447,2,2.71,2.12,3.38,2.3,5.07,0.79,-0.61,0.83,26,-5,34,1.0,4978,32,68,36,78,1086,269.0,447,451,60,122.0,270,1,282,400,71,0,0,265,18432,-1,269,,,,,,,,,,,,
76223,1560694239467,-0,2.71,2.12,3.39,2.3,5.04,0.7,-0.67,0.84,27,-5,33,0.97,5073,32,68,36,78,1054,271.0,461,462,60,122.0,273,1,285,391,74,0,0,252,250,-1,271,,,,,,,,,,,,
76243,1560694239487,-0,2.7,2.13,3.39,2.3,5.08,0.72,-0.64,0.75,27,-3,34,0.96,5103,32,68,36,78,1037,273.0,470,458,60,120.0,273,1,287,392,74,0,0,266,13602,-1,274,45.700985,4.909801,23.18,194.9,0,0.0,0,0.0,0.1267,1,0.07,1.2707
76263,1560694239507,2,2.68,2.13,3.41,2.3,5.05,0.72,-0.61,0.71,28,-3,35,0.94,5115,32,68,36,77,1024,275.0,463,453,60,121.0,273,1,288,380,74,0,0,297,250,250,275,,,,,,,,,,,,
76283,1560694239527,-2,2.66,2.13,3.43,2.3,5.06,0.66,-0.58,0.7,28,-3,36,0.88,5195,32,68,36,77,1015,277.0,469,469,60,121.0,273,1,294,386,74,0,0,290,-25600,28160,277,,,,,,,,,,,,
76303,1560694239547,3,2.63,2.14,3.41,2.3,5.07,0.74,-0.58,0.75,29,-4,37,0.94,5302,32,68,36,76,1006,280.0,480,460,60,122.0,273,1,301,382,74,0,0,264,-1484,250,280,,,,,,,,,,,,
76323,1560694239567,-0,2.6,2.15,3.38,2.3,5.04,0.68,-0.58,0.76,27,-2,36,0.89,5256,32,68,36,75,1007,281.0,483,463,60,119.0,263,1,299,372,74,0,0,256,23482,-1534,281,,,,,,,,,,,,
76343,1560694239587,5,2.57,2.18,3.31,2.3,5.04,0.76,-0.54,0.76,27,-4,37,0.93,5206,32,68,36,75,1009,282.0,477,452,60,122.0,263,1,295,367,74,0,0,284,15360,-1534,282,45.700993,4.909806,24.14,194.9,0,0.0,0,0.0,0.1283,1,0.07,1.2724
76363,1560694239607,-1,2.54,2.2,3.29,2.29,5.04,0.69,-0.54,0.78,26,-3,36,0.87,5183,32,68,36,75,1014,281.0,481,463,60,120.0,263,1,294,366,74,0,0,285,10818,-1529,282,,,,,,,,,,,,
76383,1560694239627,2,2.52,2.23,3.29,2.29,5.06,0.75,-0.49,0.82,25,-4,35,0.89,5178,32,68,36,75,1019,282.0,479,453,60,121.0,263,1,293,366,74,0,0,284,-1,250,282,,,,,,,,,,,,
