"Interval"|"ms"|0|0|1,"Utc"|"ms"|0|0|1,"FB_p"|"bar"|0|300|50,"Volant"|"F"|0.0|300.0|50,"xFR"|"mm"|0.0|5.0|50,"xRR"|"mm"|0.0|5.0|50,"xFL"|"mm"|0.0|5.0|50,"xRL"|"mm"|0.0|5.0|50,"AccelX"|"G"|-3.0|3.0|50,"AccelY"|"G"|-3.0|3.0|50,"AccelZ"|"G"|-3.0|3.0|50,"Yaw"|"Deg/Sec"|-120|120|50,"Pitch"|"Deg/Sec"|-120|120|50,"Roll"|"Deg/Sec"|-120|120|50,"Gsum"|"G"|0.0|3.0|50,"RPM"|""|0|14000|50,"TPS"|"%"|0|100|50,"WaterTemp"|"?C"|0|300|50,"AirTemp"|"?C"|-1000|1000|50,"MAP"|"KPa"|0|255|50,"Lambda"|""|0|1024|50,"WheelSpeed"|"MPH"|0.0|150.0|50,"OilPress"|"PSI"|0|150|50,"FuelPress"|"PSI"|0|150|50,"OilTemp"|"F"|0|300|50,"Battery"|"Volts"|0.0|20.0|50,"FuelCon"|"L/h"|-1000|1000|50,"Gear"|""|0|10|50,"Advance"|"Deg"|-360|360|50,"Injection"|"ms"|-1000|1000|50,"FuelCon"|"L/100km"|-1000|1000|50,"LC_But_Pres"|""|-1000|1000|50,"LC_Active"|""|-1000|1000|50,"RD_Speed"|""|-1000|1000|50,"RUD_Speed"|""|-1000|1000|50,"LD_Speed"|""|-1000|1000|50,"LUD_Speed"|""|-1000|1000|50,"Latitude"|"Degrees"|-180.0|180.0|10,"Longitude"|"Degrees"|-180.0|180.0|10,"Speed"|"kph"|0.0|150.0|10,"Altitude"|"m"|0.0|4000.0|10,"LapCount"|""|0|0|10,"LapTime"|"Min"|0.0|0.0|10,"Sector"|""|0|0|10,"SectorTime"|"Min"|0.0|0.0|10,"ElapsedTime"|"Min"|0.0|0.0|10,"CurrentLap"|""|0|0|10,"Distance"|"km"|0.0|0.0|10,"SessionTime"|"Min"|0.0|0.0|10
80963,1560695000800,8,2.29,1.89,3.46,1.83,5.07,0.93,-0.16,0.05,3,1,4,0.95,9669,7,77,31,22,774,538.0,651,464,60,120.0,117,1,270,174,64,0,0,512,-32248,15679,537,,,,,,,,,,,,
80983,1560695000820,8,2.28,1.89,3.47,1.82,5.04,1.01,-0.07,0.04,3,-2,4,1.01,9546,7,77,31,22,782,535.0,652,464,60,120.0,117,1,270,171,64,0,0,505,-22519,-3414,533,,,,,,,,,,,,
81003,1560695000840,11,2.29,1.88,3.46,1.83,5.07,1.11,-0.16,0.08,2,0,4,1.12,9464,7,77,31,22,790,529.0,651,459,60,121.0,117,1,270,170,64,0,0,509,6274,10994,529,,,,,,,,,,,,
81023,1560695000860,4,2.29,1.89,3.44,1.83,5.04,0.96,-0.16,0.03,2,-1,5,0.98,9398,7,77,31,21,796,525.0,644,460,60,120.0,117,1,270,170,64,0,0,512,2524,-28648,525,,,,,,,,,,,,
81043,1560695000880,8,2.29,1.89,3.43,1.81,5.03,0.92,-0.06,0.0,3,2,6,0.92,9351,7,77,31,21,807,522.0,648,463,60,120.0,111,1,270,164,58,0,0,505,-8187,-9216,522,45.702103,4.910879,54.15,194.2,0,0.0,0,0.0,0.4717,1,0.32,1.3507
81063,1560695000900,10,2.28,1.89,3.44,1.81,5.04,1.03,0.01,0.04,3,-0,5,1.03,9323,7,77,31,21,822,515.0,644,463,60,120.0,111,1,270,164,58,0,0,495,17136,10408,515,,,,,,,,,,,,
81083,1560695000920,11,2.29,1.88,3.44,1.8,5.05,1.13,-0.11,0.09,2,-2,5,1.13,9286,7,77,31,21,834,512.0,642,462,60,120.0,111,1,270,164,58,0,0,489,-4054,-32768,512,,,,,,,,,,,,
81103,1560695000940,12,2.29,1.87,3.44,1.81,5.03,1.22,-0.28,0.16,2,-0,4,1.25,9186,7,77,31,21,843,509.0,642,465,60,120.0,111,1,270,164,58,0,0,490,6274,248,509,,,,,,,,,,,,
81123,1560695000960,13,2.29,1.89,3.46,1.82,5.04,1.2,-0.29,0.17,2,-1,3,1.24,9097,7,77,31,21,856,504.0,640,462,60,120.0,111,1,270,164,58,0,0,481,15661,998,504,,,,,,,,,,,,
81143,1560695000980,10,2.29,1.9,3.45,1.82,5.06,1.07,-0.24,0.1,2,-1,3,1.1,9057,7,77,31,21,873,500.0,641,463,60,120.0,111,1,270,164,58,0,0,490,3,505,500,45.702095,4.910893,51.89,194.2,0,0.0,0,0.0,0.4733,1,0.32,1.3524
81163,1560695000994,9,2.29,1.91,3.43,1.82,5.06,1.03,-0.18,0.07,2,-2,3,1.05,8928,7,77,32,21,888,496.0,639,460,60,120.0,112,1,270,164,56,0,0,482,-32768,8488,496,,,,,,,,,,,,
81183,1560695001014,12,2.29,1.9,3.45,1.81,5.08,1.01,-0.15,0.07,2,-2,2,1.02,8848,7,77,32,21,896,490.0,640,460,60,120.0,112,1,270,164,56,0,0,474,-1562,3576,490,,,,,,,,,,,,
81203,1560695001034,10,2.28,1.89,3.46,1.82,5.04,1.07,-0.17,0.12,2,-2,2,1.08,8806,7,77,32,21,911,488.0,642,461,60,120.0,112,1,270,164,56,0,0,468,-6441,-23623,488,,,,,,,,,,,,
81223,1560695001054,8,2.29,1.9,3.45,1.81,5.06,1.17,-0.23,0.16,2,-3,2,1.19,8708,7,77,32,21,934,484.0,641,462,60,120.0,112,1,270,164,56,0,0,471,32033,30272,484,,,,,,,,,,,,
81243,1560695001074,9,2.29,1.89,3.45,1.81,5.04,1.22,-0.25,0.19,2,-2,2,1.24,8628,7,77,32,21,955,479.0,633,461,60,121.0,110,1,270,164,53,0,0,466,-17956,30272,479,45.702087,4.910907,50.01,194.2,0,0.0,0,0.0,0.475,1,0.32,1.3541
81263,1560695001100,13,2.28,1.89,3.46,1.8,5.07,1.16,-0.2,0.11,2,-2,2,1.17,8549,7,77,32,21,970,475.0,633,463,60,120.0,110,1,270,164,53,0,0,454,32033,2211,475,,,,,,,,,,,,
81283,1560695001120,11,2.27,1.89,3.45,1.8,5.07,1.14,-0.19,0.12,2,-1,3,1.15,8457,7,77,32,21,990,471.0,635,458,60,120.0,110,1,270,162,53,0,0,456,16408,3571,471,,,,,,,,,,,,
81303,1560695001140,15,2.26,1.91,3.46,1.81,5.05,1.11,-0.14,0.06,2,-1,3,1.11,8378,7,77,32,21,1028,468.0,630,465,60,121.0,110,1,270,160,53,0,0,452,12552,16648,468,,,,,,,,,,,,
81323,1560695001160,12,2.26,1.91,3.46,1.81,5.04,1.12,-0.1,0.07,1,0,3,1.13,8337,7,77,32,21,1065,459.0,632,461,60,120.0,110,1,270,159,53,0,0,441,17628,20625,459,,,,,,,,,,,,
81343,1560695001180,15,2.25,1.91,3.45,1.81,5.05,1.14,-0.05,0.04,1,0,4,1.14,8245,7,77,32,21,1089,456.0,632,463,60,121.0,105,1,270,156,48,0,0,441,2524,-28332,453,45.702076,4.91092,47.85,194.2,0,0.0,0,0.0,0.4767,1,0.32,1.3557
81363,1560695001200,13,2.26,1.9,3.44,1.79,5.06,1.13,-0.01,0.02,1,-2,3,1.13,8134,7,77,32,21,1118,451.0,628,462,60,121.0,105,1,270,153,48,0,0,436,3571,-7939,447,,,,,,,,,,,,
81383,1560695001220,13,2.27,1.88,3.45,1.78,5.07,1.1,0.04,-0.12,1,-0,2,1.1,8043,7,77,32,22,1159,448.0,628,461,60,120.0,105,1,270,152,48,0,0,429,2131,5600,448,,,,,,,,,,,,
81403,1560695001240,12,2.26,1.89,3.45,1.78,5.06,1.02,-0.01,-0.07,2,-1,2,1.02,7988,7,77,32,22,1200,442.0,623,461,60,121.0,105,1,269,151,48,0,0,429,26704,-3322,442,,,,,,,,,,,,
81423,1560695001260,12,2.26,1.88,3.44,1.78,5.07,1.08,0.04,-0.06,2,-2,1,1.08,7884,7,77,32,23,1218,438.0,625,462,60,120.0,105,1,268,154,48,0,0,425,21580,3826,438,,,,,,,,,,,,
81443,1560695001280,13,2.26,1.88,3.46,1.78,5.08,1.18,0.02,-0.1,1,-2,1,1.18,7796,7,77,32,24,1237,433.0,627,463,60,120.0,106,1,267,156,46,0,0,413,1779,18584,434,45.702072,4.910932,45.9,194.2,0,0.0,0,0.0,0.4783,1,0.32,1.3574
81463,1560695001299,15,2.26,1.89,3.47,1.78,5.08,1.04,0.01,-0.12,1,-1,2,1.04,7735,7,77,32,24,1264,428.0,624,461,60,120.0,106,1,267,156,46,0,0,408,31796,13040,428,,,,,,,,,,,,
81483,1560695001319,14,2.26,1.89,3.46,1.78,5.07,0.94,0.06,-0.11,1,-0,3,0.94,7612,7,77,32,24,1291,424.0,616,463,60,121.0,106,1,266,156,46,0,0,411,3826,10392,424,,,,,,,,,,,,
81503,1560695001339,15,2.26,1.9,3.44,1.79,5.05,0.89,0.02,-0.13,2,2,3,0.89,7542,7,77,33,24,1301,419.0,621,463,60,120.0,106,1,265,156,46,0,0,407,7154,10541,417,,,,,,,,,,,,
81523,1560695001359,14,2.26,1.9,3.43,1.78,5.04,0.65,-0.0,-0.12,4,4,2,0.65,7449,7,77,33,25,1312,415.0,618,461,60,120.0,106,1,264,159,46,0,0,402,-9166,-3968,415,,,,,,,,,,,,
81543,1560695001379,15,2.26,1.89,3.44,1.77,5.06,0.59,0.03,-0.16,4,3,1,0.6,7399,6,77,33,24,1324,411.0,617,461,60,121.0,106,1,263,159,46,0,0,396,10392,11545,409,45.702061,4.910943,43.73,194.2,0,0.0,0,0.0,0.48,1,0.32,1.3591
81563,1560695001401,14,2.26,1.87,3.43,1.76,5.03,0.65,0.02,-0.16,4,3,1,0.65,7309,7,77,33,25,1335,408.0,613,462,60,120.0,105,1,263,159,43,0,0,393,-9211,-1562,405,,,,,,,,,,,,
81583,1560695001421,14,2.25,1.88,3.43,1.78,5.04,0.7,0.06,-0.2,4,3,2,0.7,7247,6,77,33,24,1339,400.0,611,460,60,120.0,105,1,262,156,43,0,0,388,6512,-19019,400,,,,,,,,,,,,
81603,1560695001441,14,2.24,1.88,3.44,1.78,5.04,0.83,0.1,-0.08,1,0,1,0.84,7186,6,77,33,24,1340,394.0,613,463,60,121.0,105,1,261,156,43,0,0,382,-6656,-18948,394,,,,,,,,,,,,
81623,1560695001461,18,2.25,1.89,3.43,1.77,5.04,0.87,0.03,-0.04,1,0,-1,0.87,7094,6,77,33,24,1334,389.0,612,460,60,121.0,105,1,260,156,43,0,0,379,-6524,-6656,389,,,,,,,,,,,,
81643,1560695001481,17,2.25,1.89,3.44,1.75,5.08,0.88,0.11,-0.12,1,-0,-1,0.89,7019,6,77,33,24,1329,385.0,605,465,60,119.0,107,1,260,156,41,0,0,376,-6475,-6656,383,45.702053,4.910954,41.43,194.2,0,0.0,0,0.0,0.4817,1,0.32,1.3607
81663,1560695001501,15,2.24,1.89,3.44,1.75,5.04,0.9,0.18,-0.18,1,0,-0,0.92,6947,6,77,33,24,1322,380.0,610,461,60,121.0,107,1,260,156,41,0,0,368,-992,0,379,,,,,,,,,,,,
81683,1560695001521,17,2.25,1.88,3.44,1.75,5.08,1.02,0.08,-0.1,0,-1,0,1.02,6813,6,77,33,24,1314,374.0,600,460,60,121.0,107,1,261,156,41,0,0,363,742,-1268,373,,,,,,,,,,,,
81703,1560695001541,16,2.26,1.88,3.44,1.76,5.04,0.96,0.18,-0.2,1,1,-0,0.98,6725,6,77,33,24,1297,371.0,602,465,60,120.0,107,1,262,156,41,0,0,361,0,3082,369,,,,,,,,,,,,
81723,1560695001561,17,2.26,1.87,3.44,1.75,5.08,1.04,0.07,-0.12,0,-0,0,1.05,6637,6,77,33,24,1274,366.0,598,460,60,122.0,107,1,263,155,41,0,0,360,-1268,-6644,364,,,,,,,,,,,,
81743,1560695001581,18,2.26,1.88,3.44,1.75,5.06,1.11,0.06,-0.04,-1,-2,-1,1.12,6546,6,77,33,24,1258,362.0,600,460,60,121.0,107,1,263,155,41,0,0,351,-29302,6870,362,45.702049,4.910965,39.28,194.2,0,0.0,0,0.0,0.4833,1,0.32,1.3624
81763,1560695001601,13,2.27,1.88,3.44,1.76,5.07,1.08,0.14,-0.13,-0,-1,-0,1.09,6434,6,77,33,24,1244,356.0,590,463,60,120.0,104,1,264,155,38,0,0,342,2060,-30438,356,,,,,,,,,,,,
81783,1560695001621,14,2.27,1.88,3.45,1.75,5.07,1.07,-0.04,-0.09,-0,-1,0,1.07,6353,6,77,33,25,1215,353.0,589,467,60,120.0,104,1,267,159,38,0,0,341,28553,3327,350,,,,,,,,,,,,
81803,1560695001641,15,2.26,1.88,3.42,1.76,5.07,1.12,-0.11,-0.02,-1,-0,1,1.13,6289,6,77,33,25,1181,347.0,582,461,60,122.0,104,1,268,159,38,0,0,339,-30438,-122,347,,,,,,,,,,,,
81823,1560695001661,17,2.25,1.88,3.42,1.76,5.05,1.14,-0.03,0.06,-1,-2,1,1.14,6210,6,77,33,26,1155,340.0,579,463,60,121.0,104,1,271,160,38,0,0,337,3327,4838,340,,,,,,,,,,,,
81843,1560695001681,17,2.25,1.87,3.42,1.76,5.04,1.05,0.11,0.06,0,-1,0,1.06,6129,6,77,33,26,1137,338.0,575,462,60,120.0,109,1,272,160,37,0,0,325,13,-23296,335,45.702042,4.910974,36.95,194.2,0,0.0,0,0.0,0.485,1,0.33,1.3641
81863,1560695001701,15,2.25,1.88,3.44,1.76,5.08,0.95,0.27,0.02,2,1,0,0.99,6044,6,77,33,26,1108,333.0,569,462,60,120.0,109,1,272,160,37,0,0,321,-6528,-22016,332,,,,,,,,,,,,
81883,1560695001721,14,2.25,1.88,3.43,1.76,5.05,0.82,0.36,-0.06,3,2,0,0.9,5971,6,77,33,27,1070,328.0,559,464,60,120.0,109,1,274,161,37,0,0,321,165,145,328,,,,,,,,,,,,
81903,1560695001741,15,2.23,1.88,3.43,1.76,5.07,0.71,0.45,-0.1,5,5,1,0.84,5899,6,77,33,27,1043,325.0,552,460,60,121.0,109,1,273,161,37,0,0,318,-23296,135,325,,,,,,,,,,,,
81923,1560695001761,14,2.24,1.89,3.42,1.76,5.04,0.61,0.53,-0.12,6,6,1,0.8,5821,6,77,33,27,1027,320.0,549,462,60,121.0,109,1,273,161,37,0,0,313,150,30720,318,,,,,,,,,,,,
81943,1560695001781,10,2.25,1.88,3.42,1.76,5.07,0.62,0.59,-0.13,7,4,1,0.86,5751,6,77,34,28,1005,317.0,542,458,60,122.0,111,1,274,162,35,0,0,309,-28416,-32256,314,45.702034,4.910984,34.35,194.1,0,0.0,0,0.0,0.4867,1,0.33,1.3657
81963,1560695001801,12,2.24,1.88,3.42,1.74,5.04,0.76,0.51,-0.08,5,1,1,0.91,5678,6,77,34,28,978,313.0,534,461,60,122.0,111,1,273,161,35,0,0,304,-30976,110,310,,,,,,,,,,,,
81983,1560695001821,15,2.26,1.88,3.42,1.73,5.06,0.88,0.31,0.02,1,1,-1,0.94,5620,6,77,34,29,958,308.0,523,468,60,120.0,111,1,275,162,35,0,0,302,120,95,306,,,,,,,,,,,,
82003,1560695001841,13,2.27,1.89,3.42,1.75,5.05,0.79,0.25,0.02,1,3,-1,0.83,5577,6,77,34,30,951,305.0,521,467,60,120.0,111,1,275,162,35,0,0,299,29440,95,301,,,,,,,,,,,,
82023,1560695001861,12,2.28,1.88,3.42,1.74,5.07,0.78,0.35,-0.05,4,3,0,0.85,5492,6,77,34,30,942,300.0,515,462,60,122.0,111,1,274,161,35,0,0,293,25600,21760,298,,,,,,,,,,,,
82043,1560695001881,16,2.28,1.88,3.41,1.75,5.03,0.9,0.31,0.02,1,1,0,0.95,5415,6,77,34,31,931,294.0,506,461,60,120.0,112,1,276,162,33,0,0,287,85,0,294,45.70203,4.910992,32.21,194.1,0,0.0,0,0.0,0.4883,1,0.33,1.3674
82063,1560695001901,10,2.29,1.89,3.44,1.74,5.07,0.67,0.23,0.01,2,3,-1,0.71,5340,6,77,34,32,924,292.0,508,467,60,121.0,112,1,276,162,33,0,0,282,80,0,290,,,,,,,,,,,,
82083,1560695001921,13,2.3,1.89,3.45,1.75,5.05,0.81,0.21,0.06,2,-0,-1,0.84,5257,6,77,34,32,922,288.0,496,462,60,121.0,112,1,275,161,33,0,0,280,10686,1886,288,,,,,,,,,,,,
82103,1560695001941,13,2.28,1.89,3.45,1.75,5.06,0.56,0.13,0.04,3,6,-1,0.57,5208,6,77,34,33,923,285.0,492,459,60,121.0,112,1,278,167,33,0,0,277,24064,-1534,285,,,,,,,,,,,,
82123,1560695001961,12,2.28,1.89,3.46,1.73,5.05,0.7,0.16,0.06,2,2,-1,0.72,5113,6,77,34,34,927,281.0,483,469,60,120.0,112,1,280,172,33,0,0,274,630,30208,279,,,,,,,,,,,,
82143,1560695001981,11,2.27,1.89,3.45,1.73,5.07,0.58,0.15,0.1,3,3,-1,0.6,5017,6,77,34,35,932,277.0,473,453,60,122.0,112,1,282,178,33,0,0,270,-1527,250,276,45.702023,4.911,30.0,194.1,0,0.0,0,0.0,0.49,1,0.33,1.3691
82163,1560695001995,10,2.26,1.9,3.45,1.74,5.04,0.63,0.05,0.17,1,5,-3,0.63,4951,6,77,34,37,939,271.0,462,467,60,121.0,119,1,288,188,33,0,0,268,-1281,-1,271,,,,,,,,,,,,
82183,1560695002015,9,2.25,1.9,3.45,1.73,5.07,0.77,0.13,0.17,0,1,-3,0.78,4884,6,77,34,38,943,269.0,455,459,60,119.0,119,1,289,192,33,0,0,262,-1,-1,267,,,,,,,,,,,,
82203,1560695002035,10,2.24,1.91,3.45,1.72,5.08,0.79,0.19,0.1,2,-0,-2,0.81,4834,6,77,34,38,942,265.0,451,465,60,121.0,119,1,286,191,33,0,0,259,-1,-1,263,,,,,,,,,,,,
82223,1560695002055,5,2.22,1.93,3.44,1.72,5.08,0.61,0.21,0.07,2,6,-3,0.64,4818,6,77,34,39,942,264.0,440,458,60,122.0,119,1,290,196,33,0,0,258,-1,506,259,,,,,,,,,,,,
82243,1560695002075,3,2.2,1.99,3.43,1.72,5.04,0.61,0.08,0.14,-0,6,-2,0.62,4760,6,77,34,40,934,262.0,436,467,60,122.0,136,1,289,196,35,0,0,255,-1,-1,257,45.702019,4.911008,27.96,194.1,0,0.0,0,0.0,0.4917,1,0.33,1.3707
82263,1560695002101,1,2.19,2.01,3.38,1.73,5.04,0.75,0.06,0.27,-3,4,-3,0.75,4722,6,77,34,41,923,260.0,430,463,60,121.0,136,1,289,197,35,0,0,255,-1,-1,254,,,,,,,,,,,,
82283,1560695002121,-1,2.17,2.03,3.33,1.74,5.03,0.88,0.09,0.28,-3,1,-2,0.88,4686,6,77,34,41,898,260.0,427,460,60,121.0,136,1,288,196,35,0,0,255,-1,16896,252,,,,,,,,,,,,
82303,1560695002141,-1,2.15,2.09,3.28,1.73,5.07,0.99,0.22,0.31,-3,-1,-2,1.02,4647,6,77,34,41,872,257.0,428,460,60,120.0,136,1,286,196,35,0,0,255,14337,250,250,,,,,,,,,,,,
82323,1560695002161,1,2.1,2.12,3.26,1.73,5.04,1.07,0.32,0.32,-3,-2,-2,1.12,4646,6,77,34,42,854,258.0,416,461,60,121.0,136,1,288,197,35,0,0,253,-10440,250,247,,,,,,,,,,,,
82343,1560695002181,4,2.08,2.12,3.22,1.72,5.04,1.06,0.35,0.33,-2,-2,-4,1.11,4625,6,77,34,42,836,257.0,421,460,60,120.0,136,1,287,196,35,0,0,253,14337,-17920,246,45.702015,4.911015,26.3,194.1,0,0.0,0,0.0,0.4933,1,0.33,1.3724
82363,1560695002199,2,2.05,2.13,3.19,1.72,5.06,1.01,0.37,0.28,-2,1,-5,1.07,4584,7,77,34,42,827,258.0,415,461,60,120.0,138,1,286,198,34,0,0,252,-10440,-1484,243,,,,,,,,,,,,
82383,1560695002219,3,2.01,2.15,3.19,1.71,5.05,0.9,0.35,0.22,-3,2,-6,0.96,4570,7,77,34,43,817,259.0,420,461,60,122.0,138,1,288,198,34,0,0,253,-41,-25600,239,,,,,,,,,,,,
82403,1560695002239,5,1.98,2.19,3.17,1.73,5.05,0.79,0.36,0.17,-5,6,-7,0.87,4553,7,77,34,44,825,259.0,419,459,60,122.0,138,1,290,198,34,0,0,255,-41,10824,235,,,,,,,,,,,,
82423,1560695002259,3,1.94,2.22,3.15,1.73,5.07,0.68,0.31,0.15,-7,7,-9,0.75,4546,8,77,34,44,833,259.0,416,460,60,122.0,138,1,290,200,34,0,0,254,-41,250,232,,,,,,,,,,,,
82443,1560695002279,5,1.9,2.25,3.13,1.72,5.07,0.58,0.32,0.13,-9,9,-12,0.66,4528,8,77,34,45,853,260.0,411,466,60,122.0,147,1,292,199,34,0,0,253,-1,19968,229,45.702011,4.911022,24.39,194.2,0,0.0,0,0.0,0.495,1,0.33,1.3741
82463,1560695002300,4,1.86,2.28,3.13,1.72,5.08,0.54,0.31,0.08,-11,9,-16,0.62,4471,9,77,34,45,872,261.0,411,466,60,122.0,147,1,291,201,34,0,0,255,-1,1596,226,,,,,,,,,,,,
82483,1560695002320,4,1.83,2.29,3.12,1.72,5.04,0.51,0.33,0.02,-14,11,-18,0.61,4432,9,77,34,46,886,262.0,402,460,60,122.0,147,1,293,200,34,0,0,254,-1,250,224,,,,,,,,,,,,
82503,1560695002340,3,1.79,2.29,3.11,1.71,5.02,0.52,0.32,0.06,-16,10,-20,0.61,4392,10,77,34,46,898,262.0,396,461,60,121.0,147,1,292,202,34,0,0,255,-1,250,221,,,,,,,,,,,,
82523,1560695002360,2,1.77,2.31,3.11,1.71,5.07,0.58,0.36,0.12,-17,10,-21,0.68,4398,10,77,34,46,913,263.0,392,460,60,122.0,147,1,292,202,34,0,0,255,-1,16384,220,,,,,,,,,,,,
82543,1560695002380,-2,1.75,2.31,3.1,1.7,5.07,0.64,0.46,0.09,-19,8,-24,0.79,4316,10,77,34,47,929,263.0,394,460,60,120.0,147,1,295,204,34,0,0,254,-1,-1533,218,45.702007,4.911028,23.7,194.2,0,0.0,0,0.0,0.4967,1,0.33,1.3757
82563,1560695002396,-1,1.73,2.32,3.09,1.69,5.05,0.72,0.54,0.1,-20,5,-27,0.9,4351,11,77,34,48,936,262.0,387,463,60,119.0,151,1,295,208,33,0,0,255,-1,13964,216,,,,,,,,,,,,
82583,1560695002416,-2,1.72,2.32,3.08,1.68,5.07,0.82,0.62,0.15,-21,4,-29,1.03,4293,11,77,34,48,940,262.0,391,461,60,120.0,151,1,295,211,33,0,0,256,-1,250,215,,,,,,,,,,,,
82603,1560695002436,-1,1.71,2.31,3.08,1.69,5.08,0.88,0.66,0.24,-23,3,-32,1.1,4303,11,77,34,49,940,263.0,388,462,60,121.0,151,1,295,211,33,0,0,252,-1,-1482,214,,,,,,,,,,,,
82623,1560695002456,-1,1.71,2.32,3.08,1.71,5.06,0.89,0.65,0.3,-26,1,-35,1.1,4311,11,77,34,49,940,262.0,380,462,60,122.0,151,1,295,211,33,0,0,252,-1,13874,213,,,,,,,,,,,,
82643,1560695002476,5,1.7,2.32,3.07,1.7,5.06,0.85,0.67,0.28,-28,3,-37,1.08,4252,12,77,34,50,937,260.0,379,467,60,122.0,161,1,295,214,34,0,0,253,-1,250,211,45.702004,4.911035,22.87,194.2,0,0.0,0,0.0,0.4983,1,0.33,1.3774
82663,1560695002500,3,1.72,2.32,3.08,1.7,5.06,0.77,0.7,0.24,-28,4,-38,1.04,4269,12,77,34,50,932,260.0,378,462,60,122.0,161,1,295,214,34,0,0,251,-1,-1480,210,,,,,,,,,,,,
82683,1560695002520,-1,1.75,2.31,3.08,1.71,5.05,0.79,0.7,0.22,-29,3,-39,1.06,4289,12,77,34,51,930,259.0,382,461,60,121.0,161,1,296,218,34,0,0,251,-41,14412,208,,,,,,,,,,,,
82703,1560695002540,1,1.76,2.3,3.08,1.7,5.04,0.85,0.68,0.23,-30,3,-39,1.09,4279,12,77,34,51,929,258.0,377,463,60,120.0,161,1,296,218,34,0,0,252,-10440,-1480,209,,,,,,,,,,,,
82723,1560695002560,-0,1.79,2.29,3.07,1.72,5.03,0.89,0.7,0.27,-30,1,-39,1.14,4305,13,77,34,52,930,255.0,380,463,60,120.0,161,1,297,222,34,0,0,248,-1281,12800,209,,,,,,,,,,,,
82743,1560695002580,-1,1.83,2.28,3.08,1.73,5.06,0.94,0.68,0.36,-30,1,-40,1.16,4307,15,77,34,53,934,255.0,378,460,60,121.0,177,1,297,227,37,0,0,248,-1281,12800,208,45.702,4.911042,21.84,194.2,0,0.0,0,0.0,0.5,1,0.33,1.3791
82763,1560695002598,0,1.85,2.28,3.08,1.73,5.04,0.89,0.65,0.41,-31,1,-41,1.1,4297,16,77,34,54,936,252.0,376,465,60,122.0,177,1,298,230,37,0,0,244,-1,-1480,209,,,,,,,,,,,,
82783,1560695002618,5,1.9,2.28,3.08,1.76,5.07,0.81,0.61,0.41,-31,2,-43,1.01,4327,16,77,34,55,937,252.0,378,466,60,122.0,177,1,298,235,37,0,0,246,-1,12800,210,,,,,,,,,,,,
82803,1560695002638,3,1.96,2.27,3.08,1.81,5.05,0.72,0.58,0.43,-30,4,-44,0.92,4349,17,77,34,56,936,249.0,380,465,60,122.0,177,1,297,240,37,0,0,244,16896,-29696,209,,,,,,,,,,,,
82823,1560695002658,3,2.01,2.25,3.1,1.85,5.06,0.7,0.5,0.39,-28,4,-44,0.86,4374,17,77,34,57,934,245.0,383,458,60,121.0,177,1,296,245,37,0,0,242,15360,-1482,212,,,,,,,,,,,,
82843,1560695002678,1,2.07,2.23,3.13,1.9,5.07,0.67,0.38,0.38,-27,5,-42,0.77,4411,18,77,34,58,933,241.0,383,455,60,121.0,177,1,296,250,37,0,0,238,-17920,966,214,45.701996,4.911048,21.28,194.2,0,0.0,0,0.0,0.5017,1,0.33,1.3807
82863,1560695002698,2,2.12,2.19,3.19,1.94,5.04,0.68,0.3,0.41,-25,5,-38,0.75,4418,20,77,34,59,931,239.0,385,457,60,120.0,191,1,295,255,41,0,0,235,13468,250,214,,,,,,,,,,,,
82883,1560695002718,2,2.16,2.18,3.23,1.96,5.04,0.66,0.22,0.39,-23,6,-35,0.7,4502,21,77,34,60,931,236.0,390,457,60,121.0,191,1,294,265,41,0,0,234,250,-1532,217,,,,,,,,,,,,
82903,1560695002738,3,2.22,2.17,3.24,1.95,5.05,0.65,0.17,0.33,-21,5,-32,0.67,4527,22,77,34,62,932,232.0,391,457,60,122.0,191,1,293,271,41,0,0,231,250,250,219,,,,,,,,,,,,
82923,1560695002758,3,2.28,2.15,3.27,1.96,5.04,0.6,0.12,0.3,-20,7,-30,0.62,4614,23,77,35,63,937,230.0,395,460,60,121.0,191,1,293,276,41,0,0,228,10824,1210,220,,,,,,,,,,,,
82943,1560695002778,3,2.33,2.13,3.29,1.99,5.06,0.53,0.03,0.35,-18,8,-27,0.53,4626,24,77,35,65,946,226.0,401,456,60,122.0,191,1,292,288,41,0,0,228,10318,250,221,45.701996,4.911056,21.32,194.2,0,0.0,0,0.0,0.5033,1,0.33,1.3824
82963,1560695002798,3,2.38,2.13,3.3,2.03,5.05,0.5,-0.04,0.42,-16,8,-25,0.5,4639,25,77,35,66,955,226.0,405,458,60,122.0,226,1,292,294,50,0,0,228,10318,250,225,,,,,,,,,,,,
82983,1560695002818,5,2.41,2.13,3.3,2.08,5.04,0.48,-0.12,0.45,-13,8,-23,0.49,4507,25,77,35,68,963,228.0,403,464,60,122.0,226,1,291,305,50,0,0,228,250,8704,232,,,,,,,,,,,,
83003,1560695002838,3,2.46,2.14,3.3,2.15,5.04,0.51,-0.14,0.49,-11,8,-19,0.53,4342,26,77,35,69,973,233.0,393,463,60,122.0,226,1,294,304,50,0,0,231,19968,-25600,233,,,,,,,,,,,,
83023,1560695002858,1,2.49,2.14,3.3,2.17,5.05,0.51,-0.2,0.51,-9,7,-16,0.55,4211,26,77,35,70,988,237.0,387,460,60,121.0,226,1,296,305,50,0,0,231,19968,-25600,237,,,,,,,,,,,,
83043,1560695002878,-0,2.55,2.13,3.32,2.2,5.04,0.55,-0.24,0.51,-6,6,-13,0.6,4230,26,77,35,72,1002,240.0,379,461,60,120.0,226,1,295,311,50,0,0,229,10318,250,240,45.701996,4.911063,21.34,194.2,0,0.0,0,0.0,0.505,1,0.33,1.384
83063,1560695002898,0,2.58,2.13,3.36,2.24,5.06,0.56,-0.32,0.49,-3,4,-9,0.64,4222,27,77,35,73,1009,242.0,376,467,60,120.0,204,1,296,314,49,0,0,228,-1530,250,242,,,,,,,,,,,,
83083,1560695002918,-0,2.63,2.09,3.4,2.23,5.04,0.64,-0.34,0.55,-0,3,-5,0.72,4174,27,77,35,74,1017,245.0,368,465,60,122.0,204,1,296,312,49,0,0,223,15360,-1445,245,,,,,,,,,,,,
83103,1560695002938,5,2.66,2.05,3.44,2.24,5.05,0.59,-0.36,0.58,3,4,-2,0.69,4255,27,77,35,75,1030,249.0,370,469,60,122.0,204,1,295,318,49,0,0,218,250,250,249,,,,,,,,,,,,
83123,1560695002958,3,2.68,2.02,3.46,2.24,5.04,0.59,-0.42,0.53,5,4,0,0.72,4276,27,77,35,75,1041,253.0,367,458,60,122.0,204,1,295,322,49,0,0,215,250,10812,253,,,,,,,,,,,,
83143,1560695002978,-0,2.71,2.0,3.49,2.24,5.08,0.57,-0.47,0.46,7,5,4,0.74,4322,27,77,35,75,1046,253.0,369,451,60,121.0,205,1,294,323,52,0,0,215,1210,15360,254,45.701996,4.911071,21.93,194.2,0,0.0,0,0.0,0.5067,1,0.33,1.3857
83163,1560695002994,-1,2.75,1.99,3.47,2.25,5.05,0.59,-0.51,0.47,10,3,9,0.78,4383,27,77,35,75,1051,255.0,376,457,60,119.0,205,1,293,325,52,0,0,213,-1532,250,256,,,,,,,,,,,,
83183,1560695003014,-2,2.78,1.97,3.47,2.24,5.07,0.67,-0.49,0.5,13,2,12,0.83,4478,27,77,35,75,1060,255.0,382,457,60,120.0,205,1,291,333,52,0,0,212,-1532,16896,256,,,,,,,,,,,,
83203,1560695003034,-1,2.78,1.97,3.48,2.25,5.04,0.68,-0.51,0.5,16,0,16,0.85,4418,27,77,35,76,1069,257.0,383,461,60,119.0,205,1,291,330,52,0,0,211,250,10818,258,,,,,,,,,,,,
83223,1560695003054,-1,2.8,1.96,3.49,2.27,5.08,0.7,-0.55,0.49,18,-1,19,0.89,4484,27,77,35,76,1073,259.0,384,463,60,120.0,205,1,290,332,52,0,0,216,250,-1,259,,,,,,,,,,,,
83243,1560695003074,-1,2.81,1.96,3.49,2.28,5.06,0.74,-0.56,0.55,20,-2,24,0.92,4465,28,77,35,76,1077,260.0,389,457,60,119.0,215,1,291,332,56,0,0,220,-1533,-1,260,45.701992,4.911078,22.55,194.2,0,0.0,0,0.0,0.5083,1,0.34,1.3874
83263,1560695003100,-1,2.81,1.96,3.48,2.28,5.06,0.79,-0.55,0.58,22,-2,26,0.96,4525,28,77,35,76,1098,261.0,388,457,60,119.0,215,1,290,333,56,0,0,226,1088,-1,262,,,,,,,,,,,,
83283,1560695003120,-1,2.81,1.96,3.48,2.3,5.08,0.81,-0.57,0.57,24,-4,29,0.99,4519,28,77,35,76,1120,262.0,387,461,60,120.0,215,1,290,347,56,0,0,228,1088,-1,262,,,,,,,,,,,,
83303,1560695003140,-2,2.82,1.97,3.47,2.3,5.06,0.86,-0.57,0.57,25,-4,32,1.03,4536,28,77,35,77,1138,263.0,392,454,60,119.0,215,1,289,348,56,0,0,229,250,14337,265,,,,,,,,,,,,
83323,1560695003160,1,2.8,1.98,3.46,2.29,5.04,0.87,-0.6,0.61,27,-5,35,1.06,4524,28,77,35,77,1155,264.0,392,453,60,120.0,215,1,290,347,56,0,0,226,-17920,-10440,265,,,,,,,,,,,,
83343,1560695003180,-3,2.83,1.99,3.48,2.3,5.05,0.86,-0.61,0.6,28,-6,36,1.05,4555,28,77,35,76,1184,265.0,393,456,60,120.0,226,1,289,349,60,0,0,232,-17920,-10440,265,45.701992,4.911086,22.26,194.2,0,0.0,0,0.0,0.51,1,0.34,1.389
83363,1560695003200,0,2.85,1.99,3.48,2.28,5.04,0.85,-0.64,0.55,30,-5,37,1.06,4577,28,77,35,77,1215,268.0,391,462,60,119.0,226,1,289,350,60,0,0,235,1210,-1,268,,,,,,,,,,,,
83383,1560695003220,3,2.86,1.99,3.5,2.29,5.04,0.84,-0.66,0.54,30,-4,40,1.07,4615,29,77,35,77,1233,269.0,397,456,60,119.0,226,1,288,351,60,0,0,233,250,-41,269,,,,,,,,,,,,
83403,1560695003240,5,2.89,1.98,3.53,2.29,5.04,0.78,-0.74,0.53,31,-4,41,1.08,4634,29,77,35,77,1247,270.0,405,450,60,122.0,226,1,288,352,60,0,0,238,250,-1,270,,,,,,,,,,,,
83423,1560695003260,5,2.91,1.97,3.56,2.28,5.07,0.75,-0.76,0.52,32,-2,41,1.07,4688,30,77,35,78,1244,272.0,405,456,60,122.0,226,1,287,367,60,0,0,253,-1532,-1,272,,,,,,,,,,,,
83443,1560695003280,-2,2.93,1.96,3.56,2.28,5.04,0.78,-0.79,0.48,33,-2,42,1.11,4730,31,77,35,79,1235,273.0,410,462,60,122.0,241,1,286,369,66,0,0,231,250,-1,273,45.701988,4.911093,22.7,194.2,0,0.0,0,0.0,0.5117,1,0.34,1.3907
83463,1560695003299,-0,0.34,1.95,3.57,2.28,5.03,0.81,-0.77,0.46,34,-3,44,1.12,4731,32,77,35,79,1215,275.0,411,462,60,121.0,241,1,286,382,66,0,0,234,-1532,-1,275,,,,,,,,,,,,
83483,1560695003319,-0,0.35,1.95,3.59,2.27,5.05,0.85,-0.74,0.47,36,-3,48,1.13,4783,32,77,35,80,1192,276.0,415,473,60,121.0,241,1,285,398,66,0,0,255,1210,-1,276,,,,,,,,,,,,
83503,1560695003339,3,0.37,1.95,3.62,2.29,5.04,0.8,-0.81,0.48,38,-5,49,1.14,4877,33,77,35,80,1157,278.0,422,452,60,120.0,241,1,284,403,66,0,0,275,-17920,-1,276,,,,,,,,,,,,
83523,1560695003359,-2,0.39,1.94,3.64,2.27,5.05,0.75,-0.88,0.47,39,-3,49,1.15,4992,33,77,35,80,1118,277.0,425,463,60,122.0,241,1,282,394,66,0,0,265,1088,-1,277,,,,,,,,,,,,
83543,1560695003379,0,0.38,1.92,3.66,2.29,5.03,0.85,-0.83,0.45,40,-4,51,1.19,5067,34,77,35,80,1090,278.0,435,463,60,120.0,284,1,285,412,79,0,0,252,-17920,-1,278,45.701984,4.9111,23.27,194.2,0,0.0,0,0.0,0.5133,1,0.34,1.3924
83563,1560695003399,3,0.39,1.92,3.66,2.28,5.05,0.84,-0.91,0.52,42,-5,54,1.24,5158,34,77,35,79,1073,279.0,444,462,60,121.0,284,1,291,404,79,0,0,651,-1532,-1,279,,,,,,,,,,,,
83583,1560695003419,-2,0.37,1.92,3.66,2.28,5.06,0.79,-0.91,0.46,42,-3,53,1.2,5228,34,77,35,79,1061,281.0,447,467,60,122.0,284,1,296,407,79,0,0,81,-17920,-1,281,,,,,,,,,,,,
83603,1560695003439,-1,0.33,1.92,3.66,2.3,5.07,0.79,-0.98,0.52,44,-4,56,1.26,5357,34,77,35,78,1050,281.0,461,460,60,122.0,284,1,304,403,79,0,0,265,250,250,281,,,,,,,,,,,,
83623,1560695003459,1,2.91,1.93,3.64,2.32,5.04,0.83,-0.94,0.5,44,-3,57,1.25,5317,34,77,35,77,1047,281.0,470,465,60,120.0,284,1,303,389,79,0,0,279,-17920,250,282,,,,,,,,,,,,
83643,1560695003479,0,2.84,1.93,3.63,2.32,5.04,0.72,-1.0,0.56,45,-3,57,1.23,5290,34,77,35,77,1052,282.0,472,455,60,122.0,273,1,300,387,77,0,0,298,15360,250,284,45.701977,4.911106,23.13,194.2,0,0.0,0,0.0,0.515,1,0.34,1.394
83663,1560695003499,3,2.79,1.95,3.55,2.34,5.04,0.8,-0.98,0.58,44,-2,58,1.26,5287,34,77,35,77,1059,285.0,470,467,60,120.0,273,1,300,386,77,0,0,275,1596,630,285,,,,,,,,,,,,
83683,1560695003519,1,2.73,1.99,3.48,2.33,5.07,0.68,-0.98,0.58,45,-0,58,1.19,5257,35,77,35,77,1069,285.0,472,457,60,122.0,273,1,298,385,77,0,0,266,-1496,1886,285,,,,,,,,,,,,
83703,1560695003539,1,2.67,2.06,3.4,2.33,5.07,0.69,-0.9,0.55,43,1,58,1.13,5153,35,77,35,78,1077,285.0,448,463,60,120.0,273,1,291,391,77,0,0,269,-1494,1886,285,,,,,,,,,,,,
83723,1560695003559,3,2.6,2.15,3.31,2.32,5.06,0.68,-0.85,0.62,42,1,59,1.09,5077,35,77,35,78,1082,284.0,362,454,60,120.0,273,1,286,386,77,0,0,251,-1484,24064,284,,,,,,,,,,,,
83743,1560695003579,-0,2.54,2.21,3.21,2.32,5.05,0.68,-0.81,0.66,39,3,57,1.06,4966,35,77,35,79,1087,284.0,351,463,60,121.0,260,1,282,393,74,0,0,250,250,-1529,282,45.701977,4.911112,22.63,194.2,0,0.0,0,0.0,0.5167,1,0.34,1.3957
83763,1560695003599,-2,2.47,2.28,3.13,2.31,5.05,0.76,-0.66,0.71,36,-0,56,1.01,4794,36,77,35,80,1090,282.0,346,470,60,121.0,260,1,285,398,74,0,0,257,-214,-1534,282,,,,,,,,,,,,
83783,1560695003619,-1,2.38,2.34,3.06,2.27,5.07,0.7,-0.5,0.68,34,-1,53,0.86,4734,37,77,35,81,1092,281.0,331,462,60,119.0,260,1,286,409,74,0,0,257,-1,250,281,,,,,,,,,,,,
83803,1560695003639,2,2.31,2.38,3.03,2.23,5.07,0.64,-0.41,0.65,32,0,49,0.76,4810,38,77,35,82,1090,277.0,352,450,60,121.0,260,1,285,426,74,0,0,258,-41,250,277,,,,,,,,,,,,
83823,1560695003659,1,2.23,2.39,3.03,2.15,5.04,0.64,-0.33,0.64,29,0,45,0.72,4916,40,77,35,83,1087,274.0,358,458,60,122.0,260,1,283,446,74,0,0,261,-1,250,274,,,,,,,,,,,,
83843,1560695003679,1,2.16,2.39,3.04,2.11,5.04,0.74,-0.23,0.61,24,-1,40,0.77,5093,41,77,35,83,1076,271.0,380,460,60,122.0,321,1,286,453,87,0,0,267,-1,-1,271,45.701969,4.911116,23.79,194.2,0,0.0,0,0.0,0.5183,1,0.34,1.3974
83863,1560695003699,1,2.1,2.4,3.04,2.11,5.04,0.68,-0.17,0.65,23,-1,37,0.7,5305,42,77,35,82,1068,269.0,408,456,60,121.0,321,1,300,446,87,0,0,272,-1281,-1281,268,,,,,,,,,,,,
83883,1560695003719,1,2.05,2.44,3.02,2.09,5.04,0.72,-0.15,0.64,17,-0,32,0.74,5337,42,77,35,82,1059,276.0,432,463,60,120.0,321,1,305,446,87,0,0,277,250,28160,266,,,,,,,,,,,,
83903,1560695003739,-1,2.0,2.46,2.94,2.06,5.08,0.69,-0.07,0.72,14,-0,27,0.69,5431,43,77,35,81,1051,281.0,447,456,60,122.0,321,1,308,438,87,0,0,286,24064,250,265,,,,,,,,,,,,
83923,1560695003759,6,1.96,2.52,2.86,2.04,5.04,0.7,0.01,0.69,11,2,23,0.7,5477,43,77,35,81,1039,288.0,466,463,60,120.0,321,1,311,440,87,0,0,290,0,-1529,265,,,,,,,,,,,,
83943,1560695003779,2,1.92,2.58,2.83,2.04,5.05,0.73,0.09,0.67,7,2,18,0.73,5516,43,77,35,80,1028,291.0,476,463,60,122.0,321,1,314,432,87,0,0,293,20480,21760,265,45.701965,4.91112,25.06,194.2,0,0.0,0,0.0,0.52,1,0.34,1.399
83963,1560695003799,1,1.89,2.61,2.83,2.03,5.06,0.72,0.19,0.76,4,0,13,0.75,5522,44,77,35,80,1026,294.0,479,460,60,122.0,339,1,314,432,90,0,0,296,90,100,268,,,,,,,,,,,,
83983,1560695003819,1,1.85,2.62,2.83,2.04,5.05,0.71,0.21,0.73,2,1,8,0.74,5597,46,77,35,80,1023,299.0,485,459,60,119.0,339,1,319,435,90,0,0,304,25600,24320,270,,,,,,,,,,,,
84003,1560695003839,3,1.82,2.61,2.83,2.04,5.08,0.72,0.28,0.65,-1,1,4,0.78,5678,46,77,35,80,1024,301.0,497,462,60,119.0,339,1,325,437,90,0,0,305,26880,30720,271,,,,,,,,,,,,
84023,1560695003859,3,1.77,2.62,2.84,2.03,5.04,0.69,0.31,0.62,-4,1,1,0.76,5769,47,77,35,80,1024,305.0,503,469,60,121.0,339,1,330,443,90,0,0,307,29440,165,271,,,,,,,,,,,,
84043,1560695003879,4,1.74,2.61,2.89,2.04,5.04,0.59,0.33,0.58,-5,0,-2,0.68,5961,48,77,35,80,1028,308.0,518,462,60,120.0,339,1,343,452,90,0,0,313,120,140,271,45.701958,4.911125,25.77,194.2,0,0.0,0,0.0,0.5217,1,0.34,1.4007
84063,1560695003901,3,1.74,2.63,2.92,2.03,5.07,0.5,0.42,0.52,-7,2,-5,0.66,6117,48,77,35,80,1033,310.0,528,467,60,120.0,376,1,349,456,102,0,0,319,125,-27136,273,,,,,,,,,,,,
84083,1560695003921,3,1.74,2.63,2.89,2.04,5.05,0.42,0.52,0.42,-9,2,-8,0.66,6171,50,77,35,81,1031,317.0,543,471,60,120.0,376,1,350,463,102,0,0,324,-28416,13,274,,,,,,,,,,,,
84103,1560695003941,-0,1.74,2.63,2.82,2.03,5.04,0.36,0.57,0.41,-11,3,-11,0.67,6237,51,77,34,81,1028,319.0,550,460,60,120.0,376,1,353,468,102,0,0,329,-27136,2560,275,,,,,,,,,,,,
84123,1560695003961,-1,1.77,2.63,2.79,2.02,5.07,0.41,0.5,0.45,-13,5,-14,0.64,6235,52,77,34,82,1026,327.0,552,465,60,119.0,376,1,352,474,102,0,0,331,-22016,155,277,,,,,,,,,,,,
84143,1560695003981,1,1.81,2.63,2.79,2.01,5.04,0.45,0.46,0.55,-15,5,-18,0.64,6235,53,77,34,83,1022,331.0,557,460,60,122.0,376,1,351,479,102,0,0,336,-12032,8841,283,45.701954,4.91113,27.34,194.2,0,0.0,0,0.0,0.5233,1,0.34,1.4024
84163,1560695003993,3,1.86,2.63,2.79,1.99,5.05,0.52,0.53,0.65,-18,3,-21,0.75,6281,56,77,34,83,1012,337.0,557,458,60,121.0,399,1,352,480,113,0,0,342,2560,2060,288,,,,,,,,,,,,
84183,1560695004013,6,1.91,2.63,2.79,1.99,5.05,0.55,0.65,0.63,-21,1,-24,0.85,6386,59,77,34,85,995,338.0,562,459,60,120.0,399,1,352,490,113,0,0,343,6668,3346,289,,,,,,,,,,,,
84203,1560695004033,1,1.96,2.63,2.8,2.0,5.04,0.49,0.65,0.64,-22,3,-26,0.82,6483,61,77,34,86,987,343.0,571,461,60,120.0,399,1,353,496,113,0,0,346,-14714,-22016,293,,,,,,,,,,,,
84223,1560695004053,3,1.99,2.63,2.85,2.01,5.07,0.53,0.48,0.73,-22,3,-28,0.72,6512,62,77,34,87,979,345.0,574,463,60,121.0,399,1,352,502,113,0,0,348,6870,6870,301,,,,,,,,,,,,
84243,1560695004073,1,2.02,2.62,2.87,2.04,5.07,0.5,0.58,0.78,-23,4,-29,0.77,6588,65,77,34,88,973,347.0,582,462,60,121.0,416,1,353,508,127,0,0,350,-30438,486,305,45.701946,4.911135,28.68,194.2,0,0.0,0,0.0,0.525,1,0.34,1.404
84263,1560695004101,3,2.04,2.63,2.87,2.05,5.05,0.52,0.56,0.83,-23,4,-30,0.76,6754,66,77,34,88,964,348.0,583,458,60,121.0,416,1,362,515,127,0,0,353,-1246,2811,309,,,,,,,,,,,,
84283,1560695004121,1,2.08,2.62,2.87,2.08,5.07,0.46,0.61,0.86,-23,3,-31,0.76,6833,67,77,34,89,964,351.0,591,465,60,120.0,416,1,364,522,127,0,0,358,28553,-10554,316,,,,,,,,,,,,
84303,1560695004141,2,2.1,2.63,2.86,2.13,5.07,0.55,0.5,0.91,-23,3,-31,0.74,6823,67,77,34,89,966,352.0,595,460,60,120.0,416,1,364,521,127,0,0,358,3302,2060,320,,,,,,,,,,,,
84323,1560695004161,-1,2.12,2.63,2.85,2.13,5.05,0.39,0.56,0.93,-22,2,-29,0.68,6808,68,77,34,90,969,356.0,595,465,60,119.0,416,1,361,526,127,0,0,364,4104,-6656,328,,,,,,,,,,,,
84343,1560695004181,4,2.13,2.6,2.85,2.15,5.04,0.54,0.43,0.98,-21,2,-29,0.69,6823,69,77,34,89,971,360.0,593,461,60,121.0,416,1,364,521,127,0,0,366,-14707,-6640,334,45.701942,4.911142,30.26,194.2,0,0.0,0,0.0,0.5267,1,0.34,1.4057
84363,1560695004199,1,2.13,2.57,2.86,2.15,5.06,0.42,0.44,1.08,-20,3,-28,0.61,6828,71,77,34,90,971,364.0,594,458,60,120.0,404,1,362,528,135,0,0,372,-1268,-29302,343,,,,,,,,,,,,
84383,1560695004219,5,2.14,2.56,2.89,2.15,5.05,0.58,0.34,1.1,-20,-1,-28,0.67,6863,75,77,34,91,971,369.0,600,462,60,121.0,404,1,364,529,135,0,0,376,-6656,3082,350,,,,,,,,,,,,
84403,1560695004239,2,2.14,2.56,2.92,2.17,5.04,0.47,0.31,1.13,-18,3,-27,0.56,6970,79,77,34,92,960,373.0,592,462,60,119.0,404,1,369,532,135,0,0,380,-6656,-6656,353,,,,,,,,,,,,
84423,1560695004259,0,2.14,2.56,2.9,2.17,5.04,0.45,0.35,1.12,-18,2,-24,0.57,7059,81,77,34,93,934,375.0,598,464,60,120.0,404,1,374,534,135,0,0,381,3,-6656,359,,,,,,,,,,,,
84443,1560695004279,2,2.15,2.56,2.92,2.16,5.07,0.61,0.27,1.18,-19,-1,-24,0.66,7181,83,77,34,93,918,378.0,603,456,60,121.0,404,1,384,540,135,0,0,386,2278,240,362,45.701935,4.91115,31.93,194.3,0,0.0,0,0.0,0.5283,1,0.34,1.4074
84463,1560695004298,1,2.16,2.57,2.92,2.17,5.06,0.71,0.28,1.16,-18,-1,-24,0.76,7405,86,77,34,93,898,383.0,606,461,60,121.0,406,1,401,551,147,0,0,388,-19126,6512,367,,,,,,,,,,,,
84483,1560695004318,1,2.19,2.56,2.93,2.16,5.08,0.69,0.22,1.16,-17,1,-23,0.73,7612,88,77,34,92,873,386.0,613,458,60,121.0,406,1,417,559,147,0,0,394,-3866,18584,371,,,,,,,,,,,,
84503,1560695004338,3,2.2,2.56,2.93,2.2,5.04,0.75,0.17,1.17,-16,1,-22,0.77,7888,89,77,34,91,858,390.0,611,458,60,120.0,406,1,440,571,147,0,0,402,-1562,-1818,378,,,,,,,,,,,,
84523,1560695004358,5,2.22,2.56,2.91,2.26,5.04,0.62,0.2,1.22,-15,-1,-21,0.65,8047,90,77,34,91,843,395.0,615,459,60,120.0,406,1,448,574,147,0,0,414,17144,10392,381,,,,,,,,,,,,
84543,1560695004378,1,2.23,2.57,2.91,2.29,5.05,0.55,0.21,1.18,-14,3,-20,0.59,8061,90,77,34,89,843,400.0,622,463,60,121.0,446,1,447,571,174,0,0,430,-8151,13552,392,45.701931,4.911159,34.25,194.3,0,0.0,0,0.0,0.53,1,0.34,1.409
84563,1560695004400,4,2.24,2.59,2.89,2.33,5.07,0.59,0.26,1.17,-14,0,-18,0.65,8106,90,77,34,89,845,406.0,617,455,60,120.0,446,1,446,575,174,0,0,437,-26615,14488,401,,,,,,,,,,,,
84583,1560695004420,0,2.25,2.61,2.86,2.35,5.07,0.54,0.18,1.24,-13,-2,-18,0.57,8187,91,77,34,89,852,414.0,617,460,60,121.0,446,1,443,585,174,0,0,437,2524,3635,407,,,,,,,,,,,,
84603,1560695004440,3,2.26,2.6,2.88,2.35,5.08,0.52,0.23,1.19,-12,-1,-18,0.57,8223,91,77,34,89,855,420.0,622,462,60,120.0,446,1,442,589,174,0,0,446,-8165,10305,414,,,,,,,,,,,,
84623,1560695004460,1,2.28,2.59,2.93,2.35,5.08,0.5,0.24,1.27,-11,-2,-17,0.55,8325,92,77,34,89,860,427.0,612,458,60,121.0,446,1,439,591,174,0,0,461,31796,16648,421,,,,,,,,,,,,
84643,1560695004480,5,2.28,2.6,2.96,2.36,5.07,0.39,0.33,1.13,-10,-1,-16,0.51,8495,94,77,34,88,866,430.0,620,456,60,120.0,446,1,434,610,174,0,0,458,243,15649,427,45.701923,4.911169,36.4,194.3,0,0.0,0,0.0,0.5317,1,0.35,1.4107
84663,1560695004500,3,2.28,2.61,2.99,2.38,5.08,0.48,0.12,1.12,-9,-3,-14,0.5,8664,97,77,34,87,877,438.0,624,457,60,120.0,459,1,428,599,196,0,0,462,21580,-9160,434,,,,,,,,,,,,
84683,1560695004520,3,2.28,2.64,3.01,2.38,5.03,0.48,0.03,1.19,-9,-1,-12,0.48,8806,100,77,34,87,885,442.0,617,459,60,120.0,459,1,423,599,196,0,0,469,23400,10305,440,,,,,,,,,,,,
84703,1560695004540,3,2.28,2.66,3.0,2.4,5.07,0.56,-0.06,1.26,-8,-2,-12,0.56,8924,100,77,34,87,891,447.0,626,458,60,120.0,459,1,420,599,196,0,0,471,10305,10305,448,,,,,,,,,,,,
84723,1560695004560,5,2.28,2.67,3.0,2.42,5.04,0.55,-0.15,1.3,-7,-2,-10,0.58,9075,100,77,34,87,902,454.0,623,461,60,120.0,459,1,418,599,196,0,0,481,2524,-9203,452,,,,,,,,,,,,
84743,1560695004580,4,2.29,2.67,2.97,2.43,5.04,0.66,-0.33,1.3,-6,-1,-10,0.74,9164,100,77,34,86,919,460.0,624,456,60,120.0,455,1,418,599,208,0,0,479,-23623,-6528,460,45.701916,4.911179,39.53,194.3,0,0.0,0,0.0,0.5333,1,0.35,1.4124
84763,1560695004600,5,2.29,2.65,2.97,2.42,5.04,0.67,-0.44,1.35,-5,-3,-10,0.8,9200,100,77,34,87,933,467.0,627,458,60,120.0,455,1,418,588,208,0,0,499,30272,3,467,,,,,,,,,,,,
84783,1560695004620,8,2.3,2.62,2.97,2.42,5.06,0.7,-0.56,1.33,-4,-5,-9,0.9,9291,100,77,34,86,949,475.0,627,459,60,120.0,455,1,418,588,208,0,0,507,-1923,3,475,,,,,,,,,,,,
84803,1560695004640,1,2.3,2.6,3.01,2.42,5.04,0.48,-0.48,1.27,-3,-2,-7,0.68,9407,100,77,34,86,959,481.0,628,465,60,120.0,455,1,418,588,208,0,0,513,2212,6274,483,,,,,,,,,,,,
84823,1560695004660,4,2.3,2.6,3.05,2.43,5.04,0.48,-0.42,1.34,-2,-1,-6,0.64,9585,100,77,34,86,983,489.0,634,457,60,120.0,455,1,415,590,208,0,0,516,-6441,2524,489,,,,,,,,,,,,
84843,1560695004680,2,2.31,2.59,3.04,2.43,5.03,0.39,-0.37,1.34,-3,-2,-5,0.54,9760,100,77,34,85,1006,495.0,633,458,60,119.0,455,1,407,579,208,0,0,512,1,-22519,495,45.701912,4.911191,42.45,194.3,0,0.0,0,0.0,0.535,1,0.35,1.414
84863,1560695004700,5,2.31,2.59,3.03,2.43,5.08,0.36,-0.3,1.21,-2,-2,-4,0.47,9989,100,77,34,85,1018,502.0,639,458,60,120.0,436,1,396,582,216,0,0,519,3,-8186,502,,,,,,,,,,,,
84883,1560695004720,5,2.31,2.6,3.02,2.43,5.03,0.31,-0.22,1.25,-1,-0,-4,0.37,10113,100,77,34,85,1029,509.0,642,456,60,119.0,436,1,403,582,216,0,0,530,15661,2104,509,,,,,,,,,,,,
84903,1560695004740,2,2.32,2.58,3.01,2.46,5.05,0.26,-0.19,1.23,1,1,-3,0.32,10206,100,77,34,84,1030,516.0,632,461,60,119.0,436,1,409,582,216,0,0,555,-28648,-8186,516,,,,,,,,,,,,
84923,1560695004760,2,2.32,2.56,3.03,2.5,5.04,0.2,-0.28,1.14,1,2,-3,0.34,10273,100,77,34,85,1031,519.0,643,461,60,119.0,436,1,412,582,216,0,0,571,10994,-2934,521,,,,,,,,,,,,
84943,1560695004780,-1,2.31,2.56,3.04,2.5,5.08,0.23,-0.3,1.12,1,1,-1,0.38,10307,100,77,34,85,1023,527.0,638,460,60,120.0,430,1,421,582,227,0,0,564,1341,-28648,527,45.701904,4.911204,46.0,194.3,0,0.0,0,0.0,0.5367,1,0.35,1.4157
84963,1560695004800,2,2.3,2.58,3.03,2.49,5.04,0.28,-0.31,1.18,0,1,1,0.42,10434,100,77,34,85,1013,532.0,646,458,60,120.0,430,1,426,582,227,0,0,545,-22519,12552,532,,,,,,,,,,,,
84983,1560695004820,2,2.29,2.62,2.98,2.46,5.04,0.35,-0.22,1.13,0,0,1,0.41,10463,100,77,34,85,1000,536.0,646,460,60,120.0,430,1,428,582,227,0,0,552,2104,-1894,536,,,,,,,,,,,,
85003,1560695004840,3,2.29,2.63,2.95,2.46,5.05,0.4,-0.22,1.06,1,-2,2,0.45,10641,100,77,34,85,987,542.0,645,461,60,120.0,430,1,433,582,227,0,0,560,-30064,1780,542,,,,,,,,,,,,
85023,1560695004860,3,2.28,2.61,3.02,2.46,5.05,0.35,-0.25,1.04,3,-1,1,0.43,10708,100,77,34,84,982,549.0,646,458,60,120.0,430,1,437,564,227,0,0,582,1779,1780,549,,,,,,,,,,,,
85043,1560695004880,4,2.28,2.57,3.07,2.45,5.04,0.43,-0.13,1.06,3,0,1,0.45,10825,100,77,34,84,979,555.0,642,457,60,119.0,416,1,438,564,231,0,0,603,2104,774,555,45.701897,4.911217,48.78,194.3,0,0.0,0,0.0,0.5383,1,0.35,1.4174
85063,1560695004900,8,2.27,2.53,3.08,2.44,5.03,0.5,-0.27,1.16,2,-1,1,0.57,10990,100,77,34,84,977,560.0,648,460,60,119.0,416,1,442,564,231,0,0,594,-22263,1760,560,,,,,,,,,,,,
85083,1560695004920,3,2.28,2.54,3.1,2.44,5.06,0.4,-0.12,0.99,1,1,2,0.42,11075,100,77,34,84,974,563.0,650,460,60,120.0,416,1,443,564,231,0,0,585,2211,17344,563,,,,,,,,,,,,
85103,1560695004940,6,2.28,2.6,3.04,2.42,5.04,0.43,-0.07,1.0,1,2,3,0.44,11194,100,77,34,84,973,569.0,651,461,60,119.0,416,1,442,564,231,0,0,586,-3190,1010,569,,,,,,,,,,,,
85123,1560695004960,4,2.27,2.64,3.01,2.39,5.05,0.36,-0.09,1.04,1,1,1,0.37,11349,100,77,33,84,972,574.0,656,460,60,120.0,416,1,441,564,231,0,0,597,1760,19320,574,,,,,,,,,,,,
85143,1560695004980,3,2.27,2.64,2.97,2.4,5.04,0.45,-0.09,1.1,2,-0,-1,0.46,11460,100,77,33,84,968,580.0,649,466,60,119.0,416,1,441,564,231,0,0,602,1,4956,581,45.701889,4.911232,51.72,194.3,0,0.0,0,0.0,0.54,1,0.35,1.419
85163,1560695004994,5,2.26,2.62,2.95,2.41,5.05,0.39,-0.1,1.06,2,1,-0,0.4,11439,100,77,33,84,964,588.0,652,458,60,119.0,422,1,441,564,245,0,0,612,15649,-7939,588,,,,,,,,,,,,
85183,1560695005014,5,2.26,2.59,2.96,2.43,5.07,0.38,-0.21,1.09,2,1,-0,0.44,11460,100,77,33,84,959,589.0,654,458,60,120.0,422,1,441,564,245,0,0,630,-12040,269,593,,,,,,,,,,,,
85203,1560695005034,7,2.26,2.57,2.96,2.44,5.05,0.42,-0.09,1.18,1,1,2,0.43,11510,100,77,33,84,955,598.0,661,453,60,119.0,422,1,440,564,245,0,0,624,-16179,3395,598,,,,,,,,,,,,
85223,1560695005054,4,2.27,2.58,2.96,2.43,5.08,0.42,0.03,1.15,-0,1,2,0.42,11617,100,77,33,83,943,600.0,661,457,60,119.0,422,1,440,548,245,0,0,626,-3210,6208,600,,,,,,,,,,,,
85243,1560695005074,7,2.25,2.59,2.93,2.42,5.04,0.43,0.02,1.01,-1,-2,1,0.43,11777,100,77,33,83,923,606.0,664,457,60,119.0,422,1,440,553,245,0,0,623,-7939,-3584,606,45.701878,4.911246,54.41,194.3,0,0.0,0,0.0,0.5417,1,0.35,1.4207
85263,1560695005100,5,2.26,2.57,2.94,2.4,5.03,0.43,-0.03,1.1,-1,-1,2,0.43,11919,100,77,33,83,906,614.0,666,462,60,120.0,407,1,440,557,247,0,0,635,28675,-5120,614,,,,,,,,,,,,
85283,1560695005120,6,2.27,2.56,2.95,2.37,5.05,0.48,-0.14,1.17,-1,1,2,0.5,12034,100,77,33,83,890,619.0,666,458,60,120.0,407,1,440,560,247,0,0,645,30721,-2836,619,,,,,,,,,,,,
85303,1560695005140,5,2.27,2.53,3.0,2.37,5.08,0.43,-0.13,1.21,-1,4,2,0.45,12128,100,77,33,83,870,624.0,670,458,60,120.0,407,1,440,560,247,0,0,657,3395,-6006,623,,,,,,,,,,,,
85323,1560695005160,5,2.27,2.53,3.04,2.36,5.04,0.43,-0.12,1.26,-1,7,2,0.44,12183,100,77,33,83,847,629.0,667,458,60,119.0,407,1,440,560,247,0,0,667,-14655,-6006,627,,,,,,,,,,,,
85343,1560695005180,-2,2.27,2.53,3.03,2.36,5.08,0.41,0.04,1.13,-2,7,4,0.41,12262,100,77,33,83,828,636.0,672,457,60,120.0,413,1,440,560,261,0,0,654,-2580,2024,631,45.701874,4.911262,57.1,194.3,0,0.0,0,0.0,0.5433,1,0.35,1.4224
85363,1560695005200,-1,2.26,2.6,2.97,2.36,5.05,0.34,0.17,0.95,-3,7,5,0.38,11777,100,77,33,84,822,633.0,677,456,60,123.0,413,1,440,574,261,0,0,655,-5120,-3488,630,,,,,,,,,,,,
85383,1560695005220,1,2.27,2.59,2.92,2.35,5.07,0.44,0.06,0.86,-3,6,4,0.44,11322,100,77,33,86,817,641.0,677,460,60,122.0,413,1,442,601,261,0,0,649,6208,-3584,637,,,,,,,,,,,,
85403,1560695005240,0,2.28,2.56,2.98,2.32,5.04,0.45,0.17,0.76,-2,4,4,0.48,11003,100,77,33,87,811,638.0,667,461,60,122.0,413,1,446,620,261,0,0,639,-3584,-2836,638,,,,,,,,,,,,
85423,1560695005260,-0,2.26,2.54,3.09,2.3,5.04,0.44,0.16,0.83,-1,0,2,0.46,10775,100,77,33,87,807,639.0,665,462,60,122.0,413,1,440,620,261,0,0,641,16599,-4876,639,,,,,,,,,,,,
85443,1560695005280,1,2.26,2.47,3.25,2.3,5.03,0.45,0.11,0.91,-1,1,1,0.47,10623,100,77,33,88,809,638.0,661,462,60,122.0,402,1,437,639,257,0,0,633,-2836,16599,638,45.701862,4.911278,59.78,194.3,0,0.0,0,0.0,0.545,1,0.36,1.424
85463,1560695005299,6,2.26,2.43,3.36,2.3,5.04,0.35,0.22,0.88,0,-1,3,0.41,10336,100,77,33,88,838,641.0,652,451,60,119.0,402,1,422,1142,257,0,0,643,-2580,24583,638,,,,,,,,,,,,
85483,1560695005319,0,2.26,2.45,3.3,2.3,5.06,0.37,0.13,0.91,1,1,4,0.39,9650,100,77,33,88,949,644.0,635,460,60,118.0,402,1,413,995,257,0,0,704,-2830,-12152,644,,,,,,,,,,,,
85503,1560695005339,5,2.26,2.5,3.2,2.34,5.03,0.16,0.23,0.87,1,4,3,0.28,9484,100,77,33,87,1058,647.0,632,462,60,119.0,402,1,418,853,257,0,0,740,11566,-2356,647,,,,,,,,,,,,
85523,1560695005359,5,2.26,2.54,3.16,2.36,5.04,0.33,0.1,0.98,1,2,1,0.34,9796,100,77,33,86,1168,652.0,645,453,60,120.0,402,1,405,745,257,0,0,695,479,24,652,,,,,,,,,,,,
85543,1560695005379,5,2.26,2.53,3.13,2.38,5.06,0.27,0.13,1.03,1,1,2,0.3,9899,100,77,33,85,1278,657.0,636,460,60,119.0,402,1,400,631,257,0,0,695,-388,-10399,662,45.701855,4.911295,62.03,194.3,0,0.0,0,0.0,0.5467,1,0.36,1.4257
85563,1560695005399,6,2.26,2.58,3.02,2.42,5.07,0.38,-0.05,1.08,-0,0,1,0.38,9650,100,77,33,85,1389,662.0,638,460,60,119.0,354,1,412,578,235,0,0,726,-2826,-2560,662,,,,,,,,,,,,
85583,1560695005419,2,2.26,2.66,2.98,2.45,5.06,0.23,0.12,1.04,-0,2,2,0.26,9426,100,77,33,86,1498,667.0,636,453,60,119.0,354,1,418,576,235,0,0,715,-2830,-388,667,,,,,,,,,,,,
85603,1560695005439,4,2.26,2.71,2.94,2.45,5.04,0.21,0.16,1.07,-1,-3,2,0.27,9422,100,77,33,86,1498,672.0,628,458,60,120.0,354,1,418,588,235,0,0,699,-3038,11069,669,,,,,,,,,,,,
85623,1560695005459,6,2.27,2.71,2.98,2.44,5.05,0.39,-0.02,1.16,-1,-1,-0,0.39,9484,100,78,33,86,1484,677.0,640,456,60,120.0,354,1,418,588,235,0,0,702,-26892,-20693,676,,,,,,,,,,,,
85643,1560695005479,3,2.25,2.66,3.07,2.41,5.05,0.26,-0.0,1.17,-0,-2,-0,0.26,9585,100,78,33,86,1390,683.0,638,464,60,120.0,354,1,415,590,235,0,0,714,3543,6658,681,45.701843,4.911313,62.62,194.4,0,0.0,0,0.0,0.5483,1,0.36,1.4274
85663,1560695005499,5,2.26,2.6,3.14,2.39,5.06,0.3,-0.03,1.23,-0,0,-0,0.3,9704,100,78,33,85,1296,693.0,637,460,60,120.0,313,1,409,578,214,0,0,729,1780,-13072,686,,,,,,,,,,,,
85683,1560695005519,4,2.27,2.59,3.14,2.37,5.05,0.25,0.1,1.25,-0,4,-1,0.27,9899,100,78,33,85,1202,695.0,645,462,60,120.0,313,1,400,581,214,0,0,722,-10448,-3344,692,,,,,,,,,,,,
85703,1560695005539,7,2.26,2.59,3.11,2.35,5.05,0.24,-0.0,1.27,-0,0,-1,0.24,10005,100,78,33,85,1109,697.0,645,461,60,120.0,313,1,395,582,214,0,0,720,16599,-2826,698,,,,,,,,,,,,
85723,1560695005559,3,2.27,2.59,3.01,2.36,5.08,0.22,0.1,1.16,-0,1,-0,0.24,10021,100,78,33,85,1026,703.0,646,455,60,120.0,313,1,396,582,214,0,0,727,-20693,-3580,701,,,,,,,,,,,,
85743,1560695005579,4,2.27,2.58,2.93,2.35,5.08,0.25,0.13,1.2,-0,4,0,0.28,9973,100,78,33,85,945,711.0,645,456,60,119.0,313,1,397,581,214,0,0,733,-13072,-3344,710,45.701832,4.911331,65.06,194.4,0,0.0,0,0.0,0.55,1,0.36,1.429
85763,1560695005599,6,2.26,2.58,2.91,2.36,5.05,0.35,0.06,1.21,-1,2,2,0.35,9915,100,78,33,85,947,714.0,638,457,60,120.0,310,1,399,581,220,0,0,739,-13312,-3580,713,,,,,,,,,,,,
85783,1560695005619,2,2.27,2.6,2.92,2.38,5.06,0.22,0.22,1.17,-1,1,3,0.31,9878,100,78,33,85,960,715.0,639,459,60,120.0,310,1,401,581,220,0,0,741,204,-13068,715,,,,,,,,,,,,
85803,1560695005639,0,2.27,2.63,2.92,2.4,5.07,0.38,0.15,1.14,-2,1,0,0.41,9984,100,78,33,85,973,718.0,644,464,60,120.0,310,1,396,582,220,0,0,738,-2560,-23308,717,,,,,,,,,,,,
85823,1560695005659,5,2.27,2.64,2.99,2.41,5.04,0.36,0.11,1.04,-2,-4,1,0.38,10140,100,78,33,85,987,720.0,642,456,60,120.0,310,1,405,582,220,0,0,746,-2830,1037,721,,,,,,,,,,,,
85843,1560695005679,5,2.28,2.69,3.09,2.39,5.08,0.33,0.13,1.0,-1,-4,1,0.35,10234,100,78,33,85,991,725.0,640,458,60,120.0,314,1,411,582,226,0,0,753,-4091,-2574,719,45.70182,4.911349,66.95,194.3,0,0.0,0,0.0,0.5517,1,0.36,1.4307
85863,1560695005701,5,2.27,2.68,3.22,2.37,5.04,0.38,0.07,1.03,-0,-5,-1,0.38,10387,100,78,33,85,993,731.0,647,460,60,120.0,314,1,423,582,226,0,0,772,-2314,-3368,728,,,,,,,,,,,,
85883,1560695005721,5,2.26,2.65,3.34,2.36,5.08,0.34,-0.01,1.05,0,-6,-2,0.34,10504,100,78,33,85,992,738.0,652,463,60,120.0,314,1,431,582,226,0,0,797,-2830,-2570,734,,,,,,,,,,,,
85903,1560695005741,5,2.27,2.61,3.34,2.35,5.08,0.36,-0.03,1.06,-1,-5,-1,0.36,10726,100,78,33,85,992,740.0,652,458,60,120.0,314,1,436,582,226,0,0,791,-2826,-10214,740,,,,,,,,,,,,
85923,1560695005761,1,2.27,2.55,3.24,2.29,5.03,0.28,-0.0,1.15,-1,1,-1,0.28,10769,100,78,33,85,990,748.0,658,456,60,120.0,314,1,437,582,226,0,0,775,-4096,-22796,743,,,,,,,,,,,,
85943,1560695005781,3,2.28,2.54,3.07,2.26,5.04,0.34,0.01,1.06,-0,0,-1,0.34,10907,100,78,33,84,987,753.0,659,461,60,120.0,314,1,440,564,226,0,0,770,-3450,-30694,751,45.701813,4.911368,69.98,194.3,0,0.0,0,0.0,0.5533,1,0.37,1.4324
85963,1560695005801,5,2.27,2.53,2.95,2.26,5.07,0.27,0.1,1.07,-0,0,-1,0.29,10844,100,78,33,84,984,756.0,648,458,60,119.0,311,1,438,564,233,0,0,787,-31066,-2426,755,,,,,,,,,,,,
85983,1560695005821,5,2.26,2.52,2.88,2.29,5.04,0.3,0.09,1.1,1,2,-1,0.32,10611,100,78,33,84,981,763.0,646,458,60,120.0,311,1,432,564,233,0,0,792,-10218,5876,763,,,,,,,,,,,,
86003,1560695005841,4,2.26,2.5,2.73,2.31,5.07,0.36,0.04,1.13,-0,2,0,0.36,10498,100,78,33,85,980,767.0,649,461,60,119.0,311,1,430,582,233,0,0,784,-2826,3544,764,,,,,,,,,,,,
86023,1560695005861,4,2.26,2.52,2.74,2.32,5.04,0.38,0.17,1.21,-0,4,0,0.42,10445,100,78,33,85,979,768.0,645,453,60,120.0,311,1,427,582,233,0,0,785,-2826,-3450,768,,,,,,,,,,,,
86043,1560695005881,6,2.27,2.54,2.76,2.32,5.07,0.47,0.16,1.21,-1,-1,-1,0.49,10617,100,78,33,85,975,769.0,648,458,60,120.0,304,1,434,582,234,0,0,785,6900,-2344,769,45.701798,4.911388,71.5,194.3,0,0.0,0,0.0,0.555,1,0.37,1.434
86063,1560695005901,6,2.26,2.56,2.9,2.32,5.05,0.38,0.13,1.28,-0,-4,0,0.4,10769,100,78,33,84,971,772.0,650,462,60,119.0,304,1,436,582,234,0,0,790,-3368,5344,770,,,,,,,,,,,,
86083,1560695005921,2,2.26,2.61,3.08,2.33,5.04,0.32,0.1,1.19,0,-5,-1,0.33,10984,100,78,33,84,967,776.0,660,461,60,120.0,304,1,442,564,234,0,0,805,-2830,-13312,769,,,,,,,,,,,,
86103,1560695005941,4,2.27,2.63,3.26,2.35,5.03,0.26,0.07,1.01,0,-3,-3,0.27,11114,91,78,33,83,962,777.0,656,461,60,119.0,304,1,442,545,234,0,0,812,-2830,6790,775,,,,,,,,,,,,
86123,1560695005961,3,2.26,2.65,3.39,2.42,5.06,0.32,0.03,1.02,1,-5,-2,0.32,11241,79,78,33,81,957,778.0,652,458,60,120.0,304,1,443,529,234,0,0,840,-23308,-2826,777,,,,,,,,,,,,
86143,1560695005981,6,2.26,2.65,3.4,2.48,5.06,0.38,0.07,0.99,-1,-9,2,0.39,11453,64,78,33,75,949,782.0,663,460,60,119.0,304,1,442,485,234,0,0,841,-2574,-2314,781,45.70179,4.911408,72.93,194.3,0,0.0,0,0.0,0.5567,1,0.37,1.4357
86163,1560695005995,4,2.26,2.66,3.37,2.46,5.04,0.34,0.05,1.05,-1,-7,1,0.34,11460,49,78,33,66,943,787.0,670,460,60,120.0,268,1,441,444,210,0,0,841,6389,-3335,780,,,,,,,,,,,,
86183,1560695006015,7,2.27,2.64,3.32,2.45,5.07,0.41,0.05,0.79,-1,-6,-0,0.41,11207,36,78,33,59,939,788.0,662,460,60,120.0,268,1,432,381,210,0,0,818,11277,-2311,793,,,,,,,,,,,,
86203,1560695006035,6,2.27,2.63,3.34,2.45,5.04,0.33,0.16,0.69,-0,-4,1,0.37,10738,23,78,33,51,928,795.0,666,460,60,120.0,268,1,391,307,210,0,0,824,11277,-30694,795,,,,,,,,,,,,
86223,1560695006055,12,2.27,2.61,3.34,2.43,5.04,0.4,0.15,0.67,-1,-7,0,0.43,10486,15,78,33,45,907,794.0,662,461,60,120.0,268,1,365,244,210,0,0,802,-2540,-2540,787,,,,,,,,,,,,
86243,1560695006075,14,2.27,2.55,3.32,2.29,5.07,0.39,0.14,0.61,-0,-6,-2,0.41,10245,13,78,33,41,888,789.0,650,457,60,120.0,268,1,335,225,210,0,0,790,-2570,6389,787,45.701778,4.911429,76.01,194.3,0,0.0,0,0.0,0.5583,1,0.37,1.4374
86263,1560695006101,11,2.28,2.41,3.32,2.1,5.05,0.42,0.11,0.57,-1,-5,-1,0.44,10080,13,78,33,37,872,788.0,655,462,60,120.0,110,1,314,215,87,0,0,780,-10216,-22795,785,,,,,,,,,,,,
86283,1560695006121,17,2.27,2.35,3.32,2.06,5.04,0.56,-0.01,0.56,-1,-7,-1,0.56,9904,12,78,33,35,854,781.0,651,462,60,120.0,110,1,308,210,87,0,0,776,-2826,-22795,780,,,,,,,,,,,,
86303,1560695006141,17,2.27,2.26,3.32,2.04,5.04,0.54,0.04,0.51,0,-6,-1,0.54,9694,12,78,33,33,833,778.0,653,462,60,120.0,110,1,302,203,87,0,0,772,-2574,7413,777,,,,,,,,,,,,
86323,1560695006161,21,2.28,2.11,3.33,1.96,5.06,0.57,0.1,0.38,1,-5,-0,0.58,9679,11,78,33,32,815,778.0,653,461,60,121.0,110,1,300,201,87,0,0,746,-3368,-31068,778,,,,,,,,,,,,
86343,1560695006181,18,2.27,1.97,3.32,1.84,5.06,0.65,0.05,0.37,1,-5,-1,0.65,9780,10,78,33,30,810,773.0,653,463,60,120.0,110,1,291,198,87,0,0,748,6900,-2826,773,45.701763,4.911451,76.81,194.3,0,0.0,0,0.0,0.56,1,0.37,1.439
86363,1560695006201,21,2.28,1.84,3.46,1.75,5.07,0.79,0.1,0.42,2,-6,1,0.79,9832,10,78,33,29,811,770.0,654,460,60,120.0,94,1,287,197,73,0,0,713,6389,-31066,770,,,,,,,,,,,,
86383,1560695006221,16,2.28,1.83,3.54,1.73,5.05,0.75,0.07,0.33,2,-5,1,0.75,9750,9,78,33,28,830,764.0,653,461,60,120.0,94,1,282,194,73,0,0,679,5876,-31066,764,,,,,,,,,,,,
86403,1560695006241,21,2.26,1.84,3.54,1.72,5.06,0.87,0.0,0.26,2,-4,0,0.87,9640,9,78,33,27,850,758.0,646,466,60,120.0,94,1,278,191,73,0,0,703,-22795,-22796,757,,,,,,,,,,,,
86423,1560695006261,17,2.27,1.83,3.47,1.71,5.05,0.91,-0.1,0.25,1,-1,0,0.92,9635,8,78,32,27,874,751.0,649,458,60,120.0,94,1,278,191,73,0,0,730,-2830,-4091,751,,,,,,,,,,,,
86443,1560695006281,20,2.26,1.83,3.41,1.68,5.04,1.0,-0.05,0.24,1,-2,-0,1.0,9650,8,78,32,26,896,742.0,650,463,60,121.0,94,1,274,189,73,0,0,721,-2826,-2918,741,45.701756,4.911472,76.66,194.2,0,0.0,0,0.0,0.5617,1,0.38,1.4407
86463,1560695006300,18,2.26,1.83,3.4,1.67,5.06,1.06,-0.08,0.21,1,-2,-1,1.06,9654,8,78,32,25,906,739.0,655,463,60,120.0,93,1,270,188,69,0,0,722,-31066,-3450,739,,,,,,,,,,,,
86483,1560695006320,21,2.26,1.82,3.41,1.67,5.05,1.05,-0.04,0.1,1,-2,-0,1.05,9674,8,78,32,25,916,730.0,653,461,60,121.0,93,1,270,188,69,0,0,703,-2358,24,727,,,,,,,,,,,,
86503,1560695006340,17,2.27,1.83,3.44,1.67,5.04,1.08,-0.12,0.17,0,-2,0,1.09,9645,8,78,32,24,901,724.0,653,463,60,120.0,93,1,270,182,69,0,0,704,-2918,-20693,723,,,,,,,,,,,,
86523,1560695006360,17,2.26,1.83,3.44,1.66,5.08,1.0,-0.07,0.14,1,0,-1,1.0,9561,8,78,32,24,887,718.0,653,459,60,121.0,93,1,270,182,69,0,0,712,-2560,12333,716,,,,,,,,,,,,
86543,1560695006380,19,2.27,1.85,3.43,1.66,5.07,1.1,-0.05,0.07,-0,-3,-1,1.1,9479,8,78,32,23,863,714.0,646,461,60,120.0,88,1,270,176,63,0,0,699,204,11576,710,45.70174,4.911494,74.27,194.2,0,0.0,0,0.0,0.5633,1,0.38,1.4424
86563,1560695006400,18,2.27,1.84,3.45,1.66,5.05,1.17,-0.17,0.16,0,-2,-1,1.18,9398,8,78,32,23,839,706.0,650,465,60,120.0,88,1,270,176,63,0,0,689,687,-3584,705,,,,,,,,,,,,
86583,1560695006420,18,2.26,1.83,3.45,1.65,5.06,1.08,-0.15,0.11,1,0,-1,1.09,9241,8,78,32,23,830,703.0,641,460,60,120.0,88,1,270,176,63,0,0,689,15647,1780,703,,,,,,,,,,,,
86603,1560695006440,17,2.26,1.83,3.44,1.66,5.03,0.88,0.01,-0.08,1,-0,-1,0.88,9150,8,78,32,23,820,698.0,641,460,60,120.0,88,1,270,176,63,0,0,674,24,-388,694,,,,,,,,,,,,
86623,1560695006460,15,2.27,1.84,3.43,1.65,5.07,0.89,0.17,-0.12,0,3,-2,0.91,9066,8,78,32,22,808,692.0,640,461,60,120.0,88,1,270,170,63,0,0,679,-2830,-26892,689,,,,,,,,,,,,
86643,1560695006480,18,2.27,1.84,3.41,1.65,5.05,0.86,0.26,-0.05,1,-0,-3,0.9,9023,8,78,32,22,796,687.0,638,462,60,121.0,88,1,270,170,63,0,0,659,16599,-3038,683,45.701729,4.911514,71.48,194.1,0,0.0,0,0.0,0.565,1,0.38,1.4441
86663,1560695006500,15,2.29,1.83,3.41,1.66,5.05,0.82,0.33,-0.14,1,-0,-3,0.89,8967,8,78,32,22,791,680.0,638,463,60,121.0,84,1,270,170,58,0,0,195,-26380,3543,676,,,,,,,,,,,,
86683,1560695006520,15,2.29,1.83,3.41,1.65,5.06,0.77,0.41,-0.24,2,-0,-1,0.87,8911,8,78,32,22,788,675.0,637,461,60,121.0,84,1,270,170,58,0,0,654,-2830,-6006,671,,,,,,,,,,,,
86703,1560695006540,17,2.28,1.82,3.43,1.67,5.03,0.69,0.48,-0.29,2,3,2,0.84,8840,8,78,32,22,788,667.0,642,462,60,121.0,84,1,270,170,58,0,0,639,3543,-3038,667,,,,,,,,,,,,
86723,1560695006560,19,2.28,1.83,3.43,1.66,5.08,0.57,0.54,-0.32,2,2,4,0.79,8745,8,78,32,22,788,661.0,640,462,60,120.0,84,1,270,170,58,0,0,646,-26380,11776,660,,,,,,,,,,,,
86743,1560695006580,20,2.28,1.82,3.44,1.67,5.04,0.63,0.51,-0.24,2,3,3,0.81,8644,7,78,32,21,790,656.0,636,462,60,120.0,82,1,270,164,54,0,0,631,-3488,479,656,45.701717,4.911534,68.53,194.1,0,0.0,0,0.0,0.5667,1,0.38,1.4457
86763,1560695006600,18,2.27,1.81,3.45,1.66,5.04,0.72,0.45,-0.17,2,3,4,0.85,8585,7,78,32,21,793,650.0,637,460,60,121.0,82,1,270,164,54,0,0,631,-30207,6208,650,,,,,,,,,,,,
86783,1560695006620,16,2.27,1.81,3.45,1.66,5.05,0.8,0.46,-0.19,2,2,3,0.92,8472,7,78,32,21,802,649.0,634,463,60,120.0,82,1,270,163,54,0,0,628,-3584,30721,649,,,,,,,,,,,,
86803,1560695006640,16,2.25,1.81,3.46,1.65,5.03,0.84,0.41,-0.14,2,3,3,0.93,8385,7,78,32,21,813,638.0,633,460,60,120.0,82,1,270,160,54,0,0,619,-2580,269,636,,,,,,,,,,,,
86823,1560695006660,13,2.28,1.82,3.47,1.65,5.07,0.82,0.33,-0.12,3,2,2,0.88,8292,7,78,32,21,822,634.0,632,463,60,121.0,82,1,270,157,54,0,0,612,-2836,269,633,,,,,,,,,,,,
86843,1560695006680,16,2.28,1.81,3.5,1.66,5.08,0.94,0.27,-0.11,2,3,2,0.98,8270,7,78,32,21,830,629.0,632,463,60,121.0,82,1,270,157,54,0,0,598,20993,-30139,632,45.70171,4.911552,65.99,194.1,0,0.0,0,0.0,0.5683,1,0.38,1.4474
86863,1560695006700,15,2.27,1.84,3.49,1.69,5.06,0.88,0.23,0.01,2,1,2,0.91,8205,7,78,32,21,848,622.0,630,461,60,121.0,75,1,270,155,48,0,0,602,-18357,1010,619,,,,,,,,,,,,
86883,1560695006720,18,2.27,1.92,3.48,1.71,5.07,0.97,0.15,-0.05,1,-0,1,0.98,8127,7,78,32,22,871,611.0,626,463,60,120.0,75,1,270,155,48,0,0,599,19621,-13043,608,,,,,,,,,,,,
86903,1560695006740,20,2.27,1.93,3.48,1.72,5.04,0.99,0.14,-0.12,1,-2,2,1.0,8054,7,78,32,22,890,606.0,626,463,60,121.0,75,1,270,153,48,0,0,595,-3820,-25872,606,,,,,,,,,,,,
86923,1560695006760,15,2.28,1.92,3.47,1.71,5.07,0.92,0.14,-0.07,2,-1,2,0.93,7982,7,78,32,22,905,602.0,628,465,60,121.0,75,1,269,151,48,0,0,589,-768,-32504,600,,,,,,,,,,,,
86943,1560695006780,16,2.27,1.91,3.48,1.71,5.07,1.03,0.1,-0.08,2,-3,0,1.03,7861,7,78,32,23,930,599.0,623,464,60,120.0,75,1,268,154,48,0,0,574,3472,-3210,599,45.701698,4.911571,63.01,194.1,0,0.0,0,0.0,0.57,1,0.39,1.449
86963,1560695006800,18,2.28,1.91,3.52,1.72,5.05,1.13,0.08,-0.09,1,-3,1,1.13,7735,7,78,32,24,962,597.0,621,461,60,120.0,76,1,267,156,46,0,0,562,6273,1,597,,,,,,,,,,,,
86983,1560695006820,17,2.28,1.91,3.55,1.73,5.04,1.09,0.02,-0.07,1,-4,1,1.09,7618,7,78,32,24,987,589.0,623,462,60,120.0,76,1,266,156,46,0,0,558,-25872,-32504,589,,,,,,,,,,,,
87003,1560695006840,16,2.28,1.9,3.56,1.71,5.08,0.99,0.06,-0.13,2,-4,1,0.99,7449,7,78,33,25,1004,586.0,618,462,60,120.0,76,1,264,159,46,0,0,553,15649,2216,586,,,,,,,,,,,,
87023,1560695006860,15,2.29,1.88,3.52,1.7,5.06,1.01,0.1,-0.27,3,1,2,1.02,7378,7,78,33,25,1027,583.0,615,465,60,120.0,76,1,263,159,46,0,0,562,-16384,-22519,583,,,,,,,,,,,,
87043,1560695006880,15,2.28,1.88,3.5,1.71,5.05,1.12,0.08,-0.23,3,1,3,1.12,7355,7,78,33,25,1058,577.0,615,458,60,120.0,76,1,263,159,46,0,0,545,-8188,-8962,578,45.701691,4.911588,60.72,194.1,0,0.0,0,0.0,0.5717,1,0.39,1.4507
87063,1560695006900,15,2.28,1.85,3.49,1.72,5.04,1.17,0.05,-0.1,2,-2,3,1.17,7387,7,78,33,25,1083,571.0,616,462,60,120.0,76,1,263,159,44,0,0,529,-23623,1779,571,,,,,,,,,,,,
87083,1560695006920,10,2.28,1.82,3.49,1.71,5.06,1.25,0.02,-0.07,1,-3,3,1.25,7358,7,78,33,25,1096,568.0,612,460,60,120.0,76,1,263,159,44,0,0,542,6273,2088,565,,,,,,,,,,,,
87103,1560695006940,13,2.28,1.81,3.46,1.69,5.06,1.33,-0.05,-0.04,0,-4,5,1.33,7256,7,78,33,25,1114,562.0,613,458,60,122.0,76,1,262,159,44,0,0,544,6273,-28648,562,,,,,,,,,,,,
87123,1560695006960,13,2.27,1.8,3.43,1.68,5.04,1.3,-0.07,-0.05,1,0,4,1.3,7214,7,78,33,24,1137,558.0,618,467,60,122.0,76,1,262,159,44,0,0,538,-9072,-28648,558,,,,,,,,,,,,
87143,1560695006980,13,2.27,1.79,3.45,1.69,5.08,1.15,-0.03,-0.08,3,2,1,1.15,7205,7,78,33,24,1156,552.0,622,462,60,122.0,76,1,262,156,42,0,0,518,2524,6274,551,45.701679,4.911604,58.16,194.1,0,0.0,0,0.0,0.5733,1,0.39,1.4524
87163,1560695006994,12,2.28,1.79,3.52,1.68,5.07,1.08,0.02,-0.08,3,1,-1,1.08,7197,7,78,33,25,1166,548.0,617,462,60,121.0,76,1,261,159,42,0,0,500,1779,2524,544,,,,,,,,,,,,
87183,1560695007014,12,2.26,1.79,3.53,1.69,5.03,1.17,-0.03,-0.04,2,1,-1,1.17,7107,7,78,33,25,1177,542.0,616,461,60,121.0,76,1,261,159,42,0,0,510,-28648,-32248,542,,,,,,,,,,,,
87203,1560695007034,15,2.27,1.8,3.51,1.68,5.07,1.26,-0.16,-0.02,1,-0,1,1.27,6954,7,78,33,25,1194,536.0,611,462,60,121.0,76,1,261,231,42,0,0,517,-28648,-9072,533,,,,,,,,,,,,
87223,1560695007054,13,2.26,1.85,3.49,1.67,5.05,1.05,-0.08,-0.21,2,4,2,1.05,7038,7,78,33,25,1207,532.0,607,462,60,120.0,76,1,260,220,42,0,0,518,14504,-8187,527,,,,,,,,,,,,
87243,1560695007074,11,2.26,1.86,3.5,1.68,5.03,1.14,-0.08,-0.11,2,3,3,1.15,6996,7,78,33,25,1213,525.0,613,462,60,119.0,102,1,261,204,54,0,0,510,2088,10994,525,45.701672,4.91162,55.09,194.0,0,0.0,0,0.0,0.575,1,0.39,1.4541
87263,1560695007100,14,2.27,1.87,3.5,1.67,5.07,1.05,-0.18,-0.02,2,1,2,1.07,6936,7,78,33,24,1214,522.0,609,462,60,120.0,102,1,260,185,54,0,0,507,2524,17136,519,,,,,,,,,,,,
87283,1560695007120,9,2.27,1.88,3.49,1.69,5.04,1.02,-0.06,-0.06,2,1,-1,1.02,6870,7,78,33,24,1194,517.0,606,463,60,119.0,102,1,261,169,54,0,0,504,15679,15661,516,,,,,,,,,,,,
87303,1560695007140,12,2.25,1.89,3.48,1.69,5.04,1.03,-0.13,-0.0,1,-0,-1,1.04,6788,7,78,33,24,1174,511.0,603,463,60,120.0,102,1,262,156,54,0,0,504,-3856,11560,510,,,,,,,,,,,,
87323,1560695007160,7,2.25,1.89,3.44,1.69,5.04,1.02,-0.03,-0.09,1,1,-1,1.02,6706,7,78,33,24,1148,509.0,602,462,60,119.0,102,1,262,156,54,0,0,499,10994,2524,507,,,,,,,,,,,,
87343,1560695007180,9,2.26,1.89,3.43,1.7,5.05,1.07,-0.09,-0.01,1,-0,0,1.07,6686,7,78,33,24,1117,505.0,601,463,60,120.0,102,1,263,155,54,0,0,491,6274,-1818,503,45.70166,4.911635,52.36,194.0,0,0.0,0,0.0,0.5767,1,0.39,1.4557
87363,1560695007198,4,2.26,1.89,3.39,1.7,5.08,1.02,-0.04,-0.01,1,1,1,1.02,6701,7,78,33,24,1054,502.0,603,465,60,118.0,77,1,262,156,39,0,0,493,11560,-6656,502,,,,,,,,,,,,
87383,1560695007218,6,2.27,1.88,3.36,1.71,5.07,1.02,-0.08,0.06,2,0,1,1.02,6691,7,78,33,24,993,500.0,598,460,60,120.0,77,1,263,155,39,0,0,488,3,-32768,501,,,,,,,,,,,,
87403,1560695007238,2,2.26,1.87,3.37,1.7,5.04,1.03,-0.02,0.08,2,1,0,1.03,6646,7,78,33,24,956,501.0,603,462,60,118.0,77,1,263,155,39,0,0,483,-9216,1,502,,,,,,,,,,,,
87423,1560695007258,3,2.26,1.86,3.34,1.74,5.05,0.96,-0.14,0.11,3,1,0,0.97,6590,7,78,33,24,920,498.0,601,462,60,120.0,77,1,263,155,39,0,0,492,3,248,498,,,,,,,,,,,,
87443,1560695007278,5,2.27,1.88,3.32,1.82,5.04,0.97,-0.1,0.11,2,2,1,0.97,6553,7,78,33,25,885,497.0,596,460,60,120.0,78,1,265,159,39,0,0,486,998,-6656,497,45.701656,4.911649,50.28,194.0,0,0.0,0,0.0,0.5783,1,0.39,1.4574
87463,1560695007299,-1,2.27,1.88,3.33,1.83,5.03,1.01,-0.06,0.13,2,2,1,1.01,6569,7,78,33,25,850,494.0,594,462,60,119.0,78,1,265,159,39,0,0,487,248,-6656,494,,,,,,,,,,,,
87483,1560695007319,1,2.28,1.88,3.34,1.81,5.06,1.01,-0.17,0.17,2,1,1,1.02,6576,7,78,33,25,849,492.0,592,461,60,120.0,78,1,265,159,39,0,0,481,1,32033,492,,,,,,,,,,,,
87503,1560695007339,0,2.27,1.89,3.34,1.82,5.04,1.01,-0.09,0.14,2,4,3,1.02,6562,7,78,33,25,850,490.0,593,464,60,119.0,78,1,265,159,39,0,0,481,-1562,8488,489,,,,,,,,,,,,
87523,1560695007359,1,2.28,1.9,3.34,1.82,5.08,1.07,-0.15,0.18,2,3,4,1.08,6567,7,78,33,25,868,489.0,600,460,60,120.0,78,1,265,159,39,0,0,480,505,8488,489,,,,,,,,,,,,
87543,1560695007379,4,2.27,1.95,3.33,1.83,5.05,1.05,-0.08,0.14,1,1,5,1.06,6551,7,78,33,25,886,485.0,595,461,60,120.0,80,1,265,159,39,0,0,483,-6441,2212,484,45.701645,4.911663,48.53,194.0,0,0.0,0,0.0,0.58,1,0.39,1.459
87563,1560695007399,-1,2.27,1.94,3.33,1.81,5.04,0.98,-0.04,0.14,1,5,6,0.98,6505,7,78,33,25,902,484.0,590,467,60,118.0,80,1,265,159,39,0,0,478,-10483,10305,484,,,,,,,,,,,,
87583,1560695007419,-0,2.27,1.94,3.33,1.82,5.04,1.07,-0.12,0.29,0,4,4,1.08,6443,7,78,33,25,919,483.0,587,462,60,120.0,80,1,266,159,39,0,0,475,3580,10305,483,,,,,,,,,,,,
87603,1560695007439,3,2.27,1.95,3.31,1.83,5.07,1.1,-0.08,0.32,-0,2,2,1.1,6408,7,78,33,25,935,482.0,586,458,60,120.0,80,1,266,159,39,0,0,475,-899,32033,480,,,,,,,,,,,,
87623,1560695007459,6,2.25,1.95,3.3,1.82,5.06,1.05,0.02,0.27,-1,0,1,1.05,6432,7,78,33,25,951,479.0,585,461,60,119.0,80,1,266,159,39,0,0,473,10305,32033,478,,,,,,,,,,,,
87643,1560695007479,1,2.26,1.95,3.31,1.81,5.08,0.96,-0.06,0.25,-0,0,1,0.96,6436,7,78,33,25,956,477.0,587,463,60,119.0,81,1,266,160,39,0,0,473,-23367,3576,477,45.701637,4.911675,47.34,193.9,0,0.0,0,0.0,0.5817,1,0.4,1.4607
87663,1560695007499,1,2.26,1.96,3.33,1.82,5.04,0.95,-0.06,0.36,-0,1,0,0.96,6405,7,78,33,25,957,475.0,585,462,60,121.0,81,1,266,159,39,0,0,470,-17956,-16384,475,,,,,,,,,,,,
87683,1560695007519,3,2.26,1.97,3.33,1.82,5.07,0.99,0.03,0.43,-1,1,-2,0.99,6336,7,78,33,26,958,476.0,582,463,60,120.0,81,1,270,160,39,0,0,470,-23367,-3210,473,,,,,,,,,,,,
87703,1560695007539,5,2.26,1.98,3.31,1.82,5.08,1.01,0.1,0.37,-1,1,-2,1.02,6302,7,78,33,26,957,474.0,577,463,60,119.0,81,1,270,160,39,0,0,466,-9203,6193,471,,,,,,,,,,,,
87723,1560695007559,1,2.25,1.99,3.31,1.81,5.05,1.04,0.01,0.34,-1,1,-2,1.04,6296,6,78,33,26,957,470.0,575,462,60,119.0,81,1,271,160,39,0,0,466,8488,16408,470,,,,,,,,,,,,
87743,1560695007579,2,2.26,1.98,3.31,1.81,5.04,1.06,-0.05,0.33,-0,2,-2,1.06,6302,6,78,33,26,959,470.0,572,462,60,118.0,81,1,270,160,38,0,0,462,8488,-18108,469,45.701633,4.911688,46.63,193.9,0,0.0,0,0.0,0.5833,1,0.4,1.4624
87763,1560695007601,6,2.26,1.98,3.32,1.78,5.04,1.03,-0.09,0.36,-1,1,-1,1.04,6308,6,78,33,26,958,467.0,572,460,60,121.0,81,1,270,160,38,0,0,459,243,2211,466,,,,,,,,,,,,
87783,1560695007621,5,2.26,1.98,3.33,1.77,5.08,0.97,0.01,0.37,-1,-0,-2,0.97,6285,6,78,33,26,954,464.0,574,463,60,120.0,81,1,271,160,38,0,0,455,16408,-26615,462,,,,,,,,,,,,
87803,1560695007641,8,2.25,1.98,3.34,1.77,5.07,0.92,0.15,0.32,-1,3,-1,0.93,6218,6,78,33,27,950,465.0,573,464,60,119.0,81,1,275,161,38,0,0,460,6193,2211,461,,,,,,,,,,,,
87823,1560695007661,8,2.26,1.97,3.33,1.77,5.07,0.89,0.17,0.24,-0,5,2,0.9,6157,6,78,33,27,947,463.0,567,463,60,120.0,81,1,275,161,38,0,0,456,6193,-26615,460,,,,,,,,,,,,
87843,1560695007681,8,2.27,1.98,3.32,1.78,5.04,0.94,0.15,0.2,1,8,3,0.95,6093,6,78,33,27,945,459.0,565,460,60,118.0,81,1,275,161,38,0,0,452,17628,-9160,456,45.701622,4.911701,45.73,193.9,0,0.0,0,0.0,0.585,1,0.4,1.4641
87863,1560695007701,8,2.27,1.97,3.32,1.77,5.07,1.02,0.06,0.24,2,9,3,1.02,6105,6,78,33,27,941,454.0,562,466,60,119.0,81,1,275,161,37,0,0,452,2524,10305,453,,,,,,,,,,,,
87883,1560695007721,9,2.26,1.98,3.32,1.77,5.07,1.11,-0.09,0.29,2,8,2,1.11,6083,6,78,34,27,940,451.0,563,458,60,119.0,81,1,275,161,37,0,0,443,15649,23400,448,,,,,,,,,,,,
87903,1560695007741,11,2.27,1.98,3.33,1.78,5.04,1.2,-0.23,0.27,2,9,2,1.22,6025,6,78,34,27,941,446.0,561,458,60,120.0,81,1,275,161,37,0,0,440,2131,21432,446,,,,,,,,,,,,
87923,1560695007761,13,2.26,1.97,3.33,1.78,5.07,1.28,-0.31,0.3,2,9,3,1.32,5959,6,78,34,27,943,443.0,558,461,60,118.0,81,1,274,161,37,0,0,437,20625,19477,443,,,,,,,,,,,,
87943,1560695007781,20,2.26,1.97,3.33,1.8,5.06,1.36,-0.35,0.33,0,8,3,1.4,5853,6,78,34,28,946,437.0,549,458,60,119.0,82,1,276,162,36,0,0,438,5600,-28332,436,45.701618,4.911714,44.68,193.9,0,0.0,0,0.0,0.5867,1,0.4,1.4657
87963,1560695007801,21,2.26,1.96,3.35,1.8,5.06,1.42,-0.38,0.42,-1,6,3,1.47,5732,6,78,34,28,947,432.0,543,464,60,119.0,82,1,274,162,36,0,0,431,3635,243,432,,,,,,,,,,,,
87983,1560695007821,21,2.28,1.93,3.42,1.76,5.08,1.27,-0.32,0.36,1,7,1,1.31,5723,6,78,34,29,946,427.0,530,460,60,121.0,82,1,276,163,36,0,0,407,31796,-26615,427,,,,,,,,,,,,
88003,1560695007841,20,2.27,1.89,3.44,1.72,5.07,1.21,-0.21,0.23,2,3,1,1.22,5790,6,78,34,29,945,421.0,522,466,60,122.0,82,1,277,163,36,0,0,358,-21792,0,421,,,,,,,,,,,,
88023,1560695007861,18,2.28,1.86,3.51,1.69,5.05,1.03,-0.11,0.24,2,0,2,1.04,5894,6,78,34,29,945,415.0,528,465,60,122.0,82,1,278,163,36,0,0,335,13040,-30454,415,,,,,,,,,,,,
88043,1560695007881,17,2.29,1.83,3.56,1.69,5.06,1.05,-0.1,0.27,2,-1,0,1.06,5996,6,78,34,29,944,413.0,533,465,60,122.0,89,1,280,164,37,0,0,282,11560,95,413,45.701611,4.911726,43.82,193.9,0,0.0,0,0.0,0.5883,1,0.4,1.4674
88063,1560695007901,14,2.3,1.83,3.57,1.7,5.06,1.05,-0.1,0.35,1,-3,-1,1.06,5907,6,78,34,29,944,410.0,537,460,60,120.0,89,1,279,164,37,0,0,273,2524,160,410,,,,,,,,,,,,
88083,1560695007921,14,2.29,1.9,3.55,1.75,5.03,1.12,-0.14,0.28,-0,-4,-2,1.13,5781,6,78,34,30,944,403.0,538,464,60,120.0,89,1,279,164,37,0,0,271,6512,6870,403,,,,,,,,,,,,
88103,1560695007941,13,2.28,1.94,3.53,1.78,5.04,1.21,-0.17,0.3,-2,-5,-2,1.22,5645,6,78,34,30,947,394.0,526,464,60,120.0,89,1,277,163,37,0,0,307,-1818,19125,394,,,,,,,,,,,,
88123,1560695007961,9,2.29,1.9,3.51,1.76,5.05,1.24,-0.16,0.31,-1,-3,-2,1.25,5635,6,78,34,30,950,394.0,524,466,60,121.0,89,1,277,163,37,0,0,317,505,-6656,394,,,,,,,,,,,,
88143,1560695007981,8,2.28,1.88,3.49,1.74,5.04,1.09,-0.14,0.25,1,-1,-2,1.1,5709,6,78,34,31,951,389.0,526,462,60,122.0,89,1,281,164,37,0,0,328,240,170,389,45.701603,4.911737,42.07,193.9,0,0.0,0,0.0,0.59,1,0.4,1.469
88163,1560695007993,3,2.28,1.88,3.49,1.74,5.04,1.03,-0.05,0.22,2,-2,-2,1.03,5863,6,78,34,31,952,385.0,533,464,60,122.0,89,1,284,164,35,0,0,343,-19126,150,385,,,,,,,,,,,,
88183,1560695008013,3,2.27,1.88,3.46,1.74,5.04,0.98,-0.02,0.24,2,-3,-4,0.98,6009,6,78,34,30,953,383.0,541,463,60,122.0,89,1,284,166,35,0,0,332,-18948,-28416,383,,,,,,,,,,,,
88203,1560695008033,2,2.28,1.88,3.42,1.74,5.05,0.94,0.01,0.29,2,-3,-5,0.94,6107,6,78,34,30,954,378.0,554,462,60,122.0,89,1,284,166,35,0,0,341,770,6870,378,,,,,,,,,,,,
88223,1560695008053,3,2.29,1.89,3.4,1.75,5.08,0.91,0.09,0.24,2,-2,-7,0.91,6179,6,78,34,30,952,371.0,562,463,60,121.0,89,1,284,166,35,0,0,350,0,4104,371,,,,,,,,,,,,
88243,1560695008073,4,2.3,1.89,3.43,1.77,5.05,0.86,0.21,0.15,3,-2,-6,0.88,6332,6,78,34,29,950,368.0,573,461,60,121.0,89,1,280,164,35,0,0,346,0,-30438,368,45.701595,4.911748,39.05,193.9,0,0.0,0,0.0,0.5917,1,0.4,1.4707
88263,1560695008101,-0,2.29,1.89,3.43,1.77,5.06,0.92,0.05,0.16,3,-1,-5,0.92,6492,6,78,34,29,952,367.0,585,465,60,120.0,105,1,279,164,39,0,0,341,3082,2811,364,,,,,,,,,,,,
88283,1560695008121,3,2.29,1.89,3.41,1.77,5.06,0.93,-0.02,0.17,3,-0,-4,0.93,6595,6,78,34,28,952,361.0,586,458,60,122.0,105,1,275,163,39,0,0,350,-29302,-1246,361,,,,,,,,,,,,
88303,1560695008141,-0,2.31,1.88,3.39,1.77,5.05,0.94,0.06,0.1,3,0,-2,0.94,6689,6,78,34,27,952,359.0,593,460,60,120.0,105,1,271,163,39,0,0,350,4104,-30454,359,,,,,,,,,,,,
88323,1560695008161,3,2.3,1.88,3.39,1.78,5.07,1.0,-0.06,0.2,3,-2,0,1.01,6710,6,78,34,27,952,356.0,596,458,60,122.0,105,1,270,161,39,0,0,346,3302,-30454,356,,,,,,,,,,,,
88343,1560695008181,-1,2.3,1.89,3.4,1.8,5.08,0.89,0.03,0.18,3,2,2,0.89,6667,6,78,34,27,950,356.0,597,465,60,121.0,105,1,271,161,39,0,0,351,-6644,28553,356,45.701592,4.911758,36.82,193.9,0,0.0,0,0.0,0.5933,1,0.4,1.4724
88363,1560695008201,-0,2.32,1.91,3.38,1.82,5.05,0.92,-0.04,0.26,3,1,3,0.92,6595,6,78,34,26,950,355.0,600,460,60,120.0,112,1,268,160,40,0,0,351,3183,28553,357,,,,,,,,,,,,
88383,1560695008221,4,2.31,1.92,3.36,1.86,5.05,0.95,0.0,0.29,3,-0,3,0.95,6539,6,78,34,26,947,355.0,596,456,60,121.0,112,1,268,160,40,0,0,351,-30454,3183,355,,,,,,,,,,,,
88403,1560695008241,0,2.32,1.92,3.36,1.89,5.04,0.87,0.01,0.29,4,1,3,0.87,6403,6,78,34,26,943,353.0,597,463,60,120.0,112,1,269,160,40,0,0,348,-1246,-30454,353,,,,,,,,,,,,
88423,1560695008261,-1,2.33,1.92,3.36,1.89,5.04,0.89,-0.11,0.33,4,2,2,0.89,6347,6,78,34,26,937,354.0,593,465,60,121.0,112,1,270,160,40,0,0,344,-1246,-1246,354,,,,,,,,,,,,
88443,1560695008281,2,2.33,1.91,3.36,1.9,5.08,0.94,-0.17,0.38,4,-0,-0,0.96,6325,6,78,34,26,929,351.0,585,461,60,122.0,108,1,270,160,38,0,0,341,6870,6668,351,45.701584,4.911768,34.95,194.0,0,0.0,0,0.0,0.595,1,0.41,1.4741
88463,1560695008300,4,2.32,1.92,3.36,1.9,5.04,0.91,-0.06,0.36,3,-0,-1,0.91,6332,6,78,34,26,923,349.0,584,461,60,122.0,108,1,270,160,38,0,0,341,6668,6668,349,,,,,,,,,,,,
88483,1560695008320,5,2.32,1.91,3.36,1.89,5.04,0.9,-0.01,0.34,4,0,0,0.9,6321,6,78,34,26,916,346.0,583,460,60,121.0,108,1,270,160,38,0,0,335,3327,4838,346,,,,,,,,,,,,
88503,1560695008340,-1,2.31,1.91,3.37,1.9,5.07,0.94,-0.13,0.33,4,2,1,0.95,6321,6,78,34,26,911,346.0,582,464,60,120.0,108,1,270,160,38,0,0,335,-122,-31222,346,,,,,,,,,,,,
88523,1560695008360,-0,2.31,1.92,3.37,1.89,5.05,1.01,-0.2,0.34,4,-0,3,1.03,6298,5,78,34,26,908,344.0,581,460,60,122.0,108,1,271,160,38,0,0,333,-122,4838,344,,,,,,,,,,,,
88543,1560695008380,2,2.31,1.92,3.36,1.9,5.05,1.02,-0.23,0.35,3,-1,5,1.04,6275,5,78,34,26,906,341.0,577,462,60,122.0,111,1,271,160,38,0,0,334,13,2560,341,45.701576,4.911777,33.94,194.0,0,0.0,0,0.0,0.5967,1,0.41,1.4757
88563,1560695008400,3,2.3,1.93,3.35,1.89,5.05,0.92,-0.11,0.38,3,-1,6,0.93,6254,5,78,34,26,906,341.0,574,463,60,121.0,111,1,271,160,38,0,0,335,3346,4838,341,,,,,,,,,,,,
88583,1560695008420,4,2.3,1.93,3.35,1.91,5.06,0.83,0.02,0.34,4,1,7,0.83,6223,5,78,34,26,910,339.0,574,463,60,120.0,111,1,272,160,38,0,0,329,-6528,-12032,339,,,,,,,,,,,,
88603,1560695008440,5,2.3,1.92,3.34,1.89,5.07,0.8,0.04,0.26,5,3,8,0.8,6175,5,78,34,27,916,336.0,572,465,60,121.0,111,1,275,161,38,0,0,328,-12032,-12032,337,,,,,,,,,,,,
88623,1560695008460,0,2.3,1.92,3.34,1.89,5.04,0.85,-0.04,0.25,5,4,8,0.85,6121,5,78,34,26,922,335.0,567,465,60,120.0,111,1,272,160,38,0,0,329,175,-22016,335,,,,,,,,,,,,
88643,1560695008480,0,2.3,1.93,3.35,1.89,5.05,0.93,-0.2,0.23,4,6,9,0.96,6071,5,78,34,26,927,334.0,561,458,60,120.0,110,1,272,161,37,0,0,327,170,-22016,334,45.701572,4.911786,33.53,194.0,0,0.0,0,0.0,0.5983,1,0.41,1.4774
88663,1560695008500,-2,2.31,1.94,3.34,1.91,5.06,1.04,-0.34,0.35,3,5,9,1.1,6030,5,78,34,26,936,333.0,557,459,60,121.0,110,1,272,161,37,0,0,326,-22016,-22016,333,,,,,,,,,,,,
88683,1560695008520,-2,2.31,1.94,3.34,1.9,5.05,1.14,-0.48,0.39,1,4,8,1.24,5998,5,78,34,27,948,330.0,556,457,60,121.0,110,1,274,161,37,0,0,323,-23296,-23296,330,,,,,,,,,,,,
88703,1560695008540,-1,2.3,1.93,3.34,1.89,5.04,1.23,-0.58,0.42,-1,2,8,1.36,5982,5,78,34,27,958,329.0,556,458,60,121.0,110,1,274,161,37,0,0,320,160,-27136,329,,,,,,,,,,,,
88723,1560695008560,-0,2.29,1.94,3.34,1.9,5.04,1.31,-0.68,0.42,-3,2,9,1.47,5982,5,78,34,27,965,326.0,553,461,60,120.0,110,1,274,161,37,0,0,322,160,-27136,326,,,,,,,,,,,,
88743,1560695008580,0,2.3,1.98,3.34,1.94,5.03,1.38,-0.77,0.46,-5,1,9,1.58,5959,5,78,34,27,971,325.0,551,460,60,120.0,110,1,274,161,37,0,0,320,-25856,-29696,325,45.701565,4.911795,32.72,194.0,0,0.0,0,0.0,0.6,1,0.41,1.4791
88763,1560695008600,-1,2.3,1.97,3.36,1.93,5.06,1.44,-0.81,0.49,-6,2,9,1.65,5950,8,78,34,27,976,322.0,548,460,60,120.0,110,1,274,161,36,0,0,316,145,155,322,,,,,,,,,,,,
88783,1560695008620,5,2.29,1.97,3.37,1.92,5.07,1.5,-0.82,0.54,-7,2,9,1.71,5918,11,78,34,28,980,321.0,548,461,60,120.0,110,1,277,162,36,0,0,315,145,140,321,,,,,,,,,,,,
88803,1560695008640,3,2.29,1.98,3.35,1.93,5.05,1.49,-0.8,0.5,-8,3,8,1.69,5881,14,78,34,30,979,320.0,548,461,60,120.0,110,1,281,165,36,0,0,316,-28416,-27136,320,,,,,,,,,,,,
88823,1560695008660,3,2.3,1.99,3.36,1.92,5.07,1.36,-0.77,0.42,-6,6,9,1.56,5846,16,78,34,32,978,318.0,548,462,60,120.0,110,1,286,167,36,0,0,315,140,-30976,318,,,,,,,,,,,,
88843,1560695008680,4,2.3,1.99,3.36,1.91,5.07,1.22,-0.69,0.34,-4,9,10,1.4,5901,18,78,34,35,976,316.0,544,465,60,120.0,129,1,297,184,41,0,0,312,-29696,-32256,316,45.701561,4.911803,31.84,194.0,0,0.0,0,0.0,0.6017,1,0.41,1.4807
88863,1560695008700,3,2.3,1.99,3.35,1.9,5.06,0.95,-0.6,0.25,-0,12,10,1.13,5877,19,78,34,37,974,316.0,546,465,60,121.0,129,1,302,195,41,0,0,312,-29696,-32256,316,,,,,,,,,,,,
88883,1560695008720,1,2.32,1.99,3.35,1.89,5.04,0.74,-0.49,0.29,3,13,11,0.89,5868,20,78,34,40,971,315.0,545,464,60,122.0,129,1,313,207,41,0,0,311,-30976,-32256,315,,,,,,,,,,,,
88903,1560695008740,0,2.33,1.99,3.33,1.9,5.07,0.52,-0.41,0.3,6,12,9,0.67,5892,21,78,34,42,970,314.0,542,466,60,122.0,129,1,325,211,41,0,0,313,130,-32256,314,,,,,,,,,,,,
88923,1560695008760,0,2.34,2.0,3.37,1.92,5.05,0.39,-0.37,0.33,8,10,8,0.54,5911,22,78,34,44,970,314.0,542,460,60,122.0,129,1,337,213,41,0,0,309,125,32000,313,,,,,,,,,,,,
88943,1560695008780,1,2.33,2.0,3.4,1.93,5.04,0.38,-0.35,0.37,8,8,7,0.51,5927,23,78,34,46,971,314.0,541,460,60,121.0,129,1,349,216,41,0,0,309,32000,-30976,314,45.701557,4.911811,30.92,194.0,0,0.0,0,0.0,0.6033,1,0.41,1.4824
88963,1560695008800,-2,2.34,2.04,3.38,1.97,5.08,0.41,-0.33,0.39,7,5,8,0.53,5963,23,78,34,48,973,315.0,539,456,60,121.0,152,1,360,223,48,0,0,305,120,-29696,315,,,,,,,,,,,,
88983,1560695008820,-1,2.35,2.06,3.36,1.98,5.05,0.49,-0.35,0.46,7,2,9,0.6,6003,23,78,34,49,974,313.0,546,462,60,122.0,152,1,366,229,48,0,0,306,30720,140,313,,,,,,,,,,,,
89003,1560695008840,-0,2.36,2.06,3.37,1.99,5.07,0.57,-0.39,0.52,6,-1,9,0.69,6069,24,78,34,50,970,314.0,547,463,60,122.0,152,1,370,235,48,0,0,306,115,135,314,,,,,,,,,,,,
89023,1560695008860,2,2.35,2.07,3.35,2.02,5.04,0.58,-0.37,0.55,5,-2,9,0.69,6133,24,78,34,51,965,313.0,551,465,60,122.0,152,1,374,240,48,0,0,307,29440,-30976,312,,,,,,,,,,,,
89043,1560695008880,4,2.37,2.05,3.34,2.01,5.05,0.52,-0.37,0.64,6,-4,10,0.64,6204,25,78,34,52,959,313.0,552,458,60,122.0,182,1,378,246,57,0,0,301,110,-32256,313,45.70155,4.911819,30.14,194.0,0,0.0,0,0.0,0.605,1,0.41,1.4841
89063,1560695008900,5,2.37,2.03,3.35,1.99,5.05,0.47,-0.3,0.67,6,-3,9,0.56,6270,25,78,34,53,950,313.0,561,466,60,121.0,182,1,381,252,57,0,0,301,105,-30976,313,,,,,,,,,,,,
89083,1560695008920,-2,2.38,2.0,3.34,1.98,5.07,0.48,-0.2,0.57,7,0,9,0.52,6300,26,78,34,54,938,315.0,568,465,60,120.0,182,1,385,258,57,0,0,305,110,-32256,315,,,,,,,,,,,,
89103,1560695008940,-2,2.38,2.01,3.34,2.01,5.04,0.55,-0.31,0.55,7,1,10,0.63,6302,27,78,34,54,928,315.0,573,455,60,121.0,182,1,385,258,57,0,0,305,110,130,315,,,,,,,,,,,,
89123,1560695008960,-1,2.39,2.04,3.32,2.07,5.04,0.65,-0.45,0.6,7,-1,12,0.79,6231,27,78,34,55,923,316.0,574,458,60,122.0,182,1,385,258,57,0,0,308,105,140,316,,,,,,,,,,,,
89143,1560695008980,2,2.38,2.06,3.32,2.11,5.06,0.69,-0.44,0.66,7,-2,15,0.82,6085,27,78,34,56,918,317.0,566,460,60,122.0,186,1,384,257,59,0,0,314,110,160,317,45.701542,4.911827,30.02,194.0,0,0.0,0,0.0,0.6067,1,0.41,1.4857
89163,1560695008994,-1,2.4,2.07,3.32,2.13,5.06,0.72,-0.42,0.71,8,-4,16,0.83,5905,28,78,34,57,928,318.0,553,461,60,122.0,186,1,374,254,59,0,0,320,30720,155,321,,,,,,,,,,,,
89183,1560695009014,-1,2.39,2.1,3.32,2.15,5.07,0.8,-0.41,0.73,8,-6,17,0.9,5781,28,78,34,58,938,321.0,544,458,60,122.0,186,1,364,253,59,0,0,317,125,-24576,321,,,,,,,,,,,,
89203,1560695009034,0,2.39,2.16,3.34,2.18,5.04,0.88,-0.44,0.62,6,-5,16,0.98,5704,28,78,34,60,953,323.0,531,460,60,120.0,186,1,356,253,59,0,0,316,125,150,321,,,,,,,,,,,,
89223,1560695009054,2,2.4,2.16,3.39,2.16,5.06,0.91,-0.41,0.57,4,-3,17,1.0,5683,28,78,34,61,967,322.0,525,460,60,120.0,186,1,354,254,59,0,0,312,125,150,322,,,,,,,,,,,,
89243,1560695009074,3,2.4,2.14,3.38,2.14,5.04,0.72,-0.46,0.6,6,1,17,0.86,5748,29,78,34,62,1008,323.0,520,467,60,122.0,176,1,357,262,57,0,0,310,125,155,323,45.701538,4.911834,30.0,194.0,0,0.0,0,0.0,0.6083,1,0.41,1.4874
89263,1560695009100,-0,2.4,2.14,3.37,2.12,5.05,0.6,-0.43,0.62,9,0,17,0.73,5824,29,78,34,63,1050,324.0,523,462,60,122.0,176,1,360,268,57,0,0,310,32000,160,324,,,,,,,,,,,,
89283,1560695009120,-1,2.4,2.12,3.37,2.1,5.05,0.51,-0.34,0.59,11,-1,17,0.62,5872,29,78,34,63,1084,325.0,527,458,60,122.0,176,1,364,267,57,0,0,309,32000,155,324,,,,,,,,,,,,
89303,1560695009140,0,2.4,2.1,3.36,2.1,5.08,0.47,-0.32,0.65,13,-3,18,0.57,6000,29,78,34,63,1115,323.0,530,462,60,122.0,176,1,375,265,57,0,0,311,125,150,323,,,,,,,,,,,,
89323,1560695009160,1,2.41,2.09,3.37,2.1,5.08,0.43,-0.29,0.72,13,-2,19,0.52,6000,29,78,34,63,1151,324.0,537,458,60,122.0,176,1,375,265,57,0,0,311,32000,-24576,325,,,,,,,,,,,,
89343,1560695009180,1,2.42,2.09,3.36,2.11,5.08,0.43,-0.29,0.79,14,-3,18,0.51,5984,30,78,34,63,1190,324.0,540,459,60,121.0,176,1,373,266,57,0,0,310,120,160,324,45.701534,4.911841,30.37,194.0,0,0.0,0,0.0,0.61,1,0.41,1.4891
89363,1560695009200,-1,2.42,2.09,3.37,2.1,5.06,0.51,-0.33,0.84,14,-5,17,0.6,5992,30,78,34,63,1210,323.0,537,460,60,122.0,185,1,374,266,60,0,0,308,32000,-24576,323,,,,,,,,,,,,
89383,1560695009220,1,2.41,2.08,3.37,2.11,5.07,0.58,-0.36,0.88,14,-7,17,0.69,6017,30,79,34,63,1221,324.0,541,465,60,122.0,185,1,375,265,60,0,0,309,32000,155,324,,,,,,,,,,,,
89403,1560695009240,0,2.42,2.08,3.42,2.12,5.08,0.66,-0.35,0.93,13,-9,17,0.75,5992,30,79,34,63,1229,325.0,538,465,60,122.0,185,1,374,266,60,0,0,312,30720,-24576,326,,,,,,,,,,,,
89423,1560695009260,1,2.42,2.09,3.41,2.14,5.04,0.7,-0.35,0.95,12,-10,18,0.78,5935,30,79,34,63,1236,326.0,535,462,60,122.0,185,1,369,266,60,0,0,311,30720,-23296,326,,,,,,,,,,,,
89443,1560695009280,-1,2.42,2.09,3.38,2.14,5.07,0.77,-0.36,0.96,12,-12,19,0.85,5965,30,79,34,63,1238,328.0,537,460,60,122.0,182,1,372,266,60,0,0,308,32000,155,325,45.701527,4.911848,30.65,194.0,0,0.0,0,0.0,0.6117,1,0.41,1.4907
89463,1560695009299,-1,2.42,2.08,3.38,2.13,5.07,0.9,-0.36,0.99,11,-13,19,0.97,5971,30,79,34,63,1235,327.0,539,459,60,122.0,182,1,372,274,60,0,0,310,30720,165,327,,,,,,,,,,,,
89483,1560695009319,1,2.41,2.09,3.35,2.14,5.06,1.01,-0.41,0.96,9,-16,18,1.09,6032,30,79,34,64,1246,327.0,543,458,60,121.0,182,1,373,274,60,0,0,311,30720,160,327,,,,,,,,,,,,
89503,1560695009339,1,2.41,2.09,3.35,2.14,5.04,1.08,-0.43,0.91,9,-16,19,1.17,6060,31,79,34,64,1263,326.0,540,462,60,122.0,182,1,374,275,60,0,0,314,120,-22016,326,,,,,,,,,,,,
89523,1560695009359,-2,2.41,2.08,3.34,2.13,5.07,1.11,-0.42,0.96,8,-17,20,1.18,5986,31,79,34,64,1282,327.0,543,460,60,121.0,182,1,370,274,60,0,0,316,125,-23296,327,,,,,,,,,,,,
89543,1560695009379,-2,2.4,2.08,3.34,2.14,5.07,1.14,-0.43,0.96,7,-18,19,1.22,5971,31,79,34,64,1302,327.0,543,461,60,120.0,189,1,369,274,62,0,0,315,-32256,-22016,327,45.701519,4.911854,30.6,194.0,0,0.0,0,0.0,0.6133,1,0.41,1.4924
89563,1560695009399,-0,2.39,2.08,3.34,2.13,5.06,1.21,-0.48,0.95,6,-18,19,1.3,5946,31,79,34,64,1328,327.0,544,462,60,122.0,189,1,367,275,62,0,0,313,130,-20736,327,,,,,,,,,,,,
89583,1560695009419,1,2.39,2.07,3.34,2.11,5.07,1.29,-0.56,0.93,5,-18,19,1.41,5994,31,79,34,64,1360,328.0,539,462,60,120.0,189,1,371,274,62,0,0,315,130,-22016,328,,,,,,,,,,,,
89603,1560695009439,-0,2.38,2.07,3.34,2.1,5.08,1.36,-0.66,0.93,4,-18,19,1.51,6030,31,79,34,64,1383,328.0,542,461,60,122.0,189,1,373,274,62,0,0,315,-30976,170,328,,,,,,,,,,,,
89623,1560695009459,0,2.38,2.08,3.34,2.11,5.04,1.43,-0.72,0.93,3,-18,18,1.6,6089,31,79,34,64,1395,329.0,546,460,60,122.0,189,1,375,283,62,0,0,317,-30976,-20736,329,,,,,,,,,,,,
89643,1560695009479,2,2.37,2.09,3.34,2.11,5.04,1.46,-0.73,0.97,2,-19,17,1.63,6117,31,79,34,64,1401,330.0,546,460,60,121.0,189,1,376,277,62,0,0,321,140,170,330,45.701515,4.911861,30.46,194.0,0,0.0,0,0.0,0.615,1,0.42,1.4941
89663,1560695009499,1,2.37,2.1,3.34,2.1,5.03,1.42,-0.78,1.0,2,-18,17,1.62,6133,31,79,34,64,1401,329.0,549,456,60,122.0,193,1,376,278,64,0,0,321,-28416,-23296,329,,,,,,,,,,,,
89683,1560695009519,2,2.36,2.13,3.34,2.1,5.05,1.4,-0.74,1.03,2,-18,16,1.58,6111,31,79,34,65,1398,330.0,548,465,60,122.0,193,1,372,277,64,0,0,323,-27136,-12032,330,,,,,,,,,,,,
89703,1560695009539,1,2.36,2.14,3.33,2.1,5.07,1.33,-0.65,1.06,2,-18,15,1.48,6075,31,79,34,65,1385,329.0,544,463,60,122.0,193,1,371,275,64,0,0,325,145,-20736,330,,,,,,,,,,,,
89723,1560695009559,3,2.34,2.17,3.33,2.09,5.05,1.2,-0.57,1.07,3,-16,14,1.33,6099,32,79,34,65,1370,329.0,547,464,60,121.0,193,1,372,283,64,0,0,320,145,-20736,329,,,,,,,,,,,,
89743,1560695009579,2,2.34,2.17,3.32,2.1,5.05,1.06,-0.48,1.07,3,-14,13,1.16,6081,32,79,34,65,1352,328.0,550,462,60,121.0,198,1,371,283,65,0,0,322,150,-22016,328,45.701508,4.911867,31.24,194.0,0,0.0,0,0.0,0.6167,1,0.42,1.4957
89763,1560695009599,4,2.32,2.18,3.32,2.1,5.04,0.92,-0.41,1.02,4,-13,12,1.01,6062,32,79,34,65,1337,328.0,548,467,60,121.0,198,1,370,283,65,0,0,325,-25856,-12032,328,,,,,,,,,,,,
89783,1560695009619,4,2.33,2.19,3.32,2.08,5.08,0.81,-0.3,0.96,5,-10,12,0.86,6060,32,79,34,65,1331,327.0,543,466,60,121.0,198,1,370,283,65,0,0,323,-25856,-22016,328,,,,,,,,,,,,
89803,1560695009639,4,2.32,2.19,3.32,2.08,5.04,0.67,-0.18,0.92,6,-7,12,0.7,6153,32,79,34,65,1326,328.0,548,465,60,121.0,198,1,374,286,65,0,0,323,155,175,328,,,,,,,,,,,,
89823,1560695009659,4,2.32,2.18,3.32,2.07,5.04,0.55,-0.08,0.84,7,-3,12,0.56,6115,32,79,34,65,1325,328.0,558,463,60,120.0,198,1,372,285,65,0,0,327,-24576,-20736,329,,,,,,,,,,,,
89843,1560695009679,1,2.32,2.19,3.29,2.08,5.04,0.48,0.02,0.75,8,-1,12,0.48,6157,32,79,34,65,1325,328.0,555,462,60,120.0,201,1,374,286,66,0,0,326,160,-20736,328,45.7015,4.911873,30.75,194.0,0,0.0,0,0.0,0.6183,1,0.42,1.4974
89863,1560695009701,-0,2.31,2.19,3.26,2.08,5.04,0.5,-0.0,0.69,8,0,11,0.5,6165,32,79,34,65,1330,329.0,560,456,60,121.0,201,1,374,286,66,0,0,327,-24576,175,329,,,,,,,,,,,,
89883,1560695009721,-1,2.31,2.18,3.24,2.09,5.07,0.53,-0.13,0.72,8,-1,10,0.55,6175,32,79,34,65,1335,329.0,558,455,60,121.0,201,1,374,286,66,0,0,330,-24576,-22016,329,,,,,,,,,,,,
89903,1560695009741,-0,2.31,2.17,3.26,2.07,5.05,0.66,-0.3,0.76,8,-4,9,0.73,6165,31,79,34,65,1342,331.0,557,462,60,122.0,201,1,374,286,66,0,0,330,160,-6528,331,,,,,,,,,,,,
89923,1560695009761,2,2.31,2.17,3.27,2.08,5.06,0.8,-0.38,0.76,6,-8,9,0.88,6196,30,79,34,64,1347,330.0,558,463,60,122.0,201,1,379,279,66,0,0,331,-22016,4838,330,,,,,,,,,,,,
89943,1560695009781,4,2.31,2.16,3.27,2.1,5.07,0.82,-0.33,0.79,5,-11,9,0.89,6167,29,79,34,64,1348,332.0,557,466,60,121.0,195,1,378,278,65,0,0,334,170,4838,332,45.701496,4.911879,31.67,194.0,0,0.0,0,0.0,0.62,1,0.42,1.499
89963,1560695009799,6,2.31,2.16,3.26,2.11,5.04,0.77,-0.21,0.8,4,-11,10,0.8,6216,28,79,34,63,1348,334.0,557,465,60,122.0,195,1,383,273,65,0,0,334,-20736,-12032,334,,,,,,,,,,,,
89983,1560695009819,1,2.32,2.17,3.23,2.1,5.04,0.61,-0.08,0.71,5,-7,9,0.62,6243,27,79,34,62,1342,335.0,560,463,60,120.0,195,1,389,267,65,0,0,333,-20736,13,335,,,,,,,,,,,,
90003,1560695009839,1,2.31,2.16,3.23,2.08,5.04,0.54,-0.07,0.59,6,-3,8,0.54,6285,25,79,34,61,1337,335.0,562,465,60,121.0,195,1,393,262,65,0,0,335,175,3346,336,,,,,,,,,,,,
90023,1560695009859,1,2.32,2.16,3.27,2.09,5.04,0.62,-0.18,0.62,6,-2,7,0.65,6330,23,79,34,59,1332,337.0,563,455,60,122.0,195,1,392,262,65,0,0,338,-20736,-122,337,,,,,,,,,,,,
90043,1560695009879,3,2.31,2.17,3.26,2.1,5.05,0.69,-0.22,0.64,5,-3,6,0.73,6304,21,79,34,58,1325,337.0,567,457,60,122.0,183,1,390,260,62,0,0,338,-12032,2560,337,45.701488,4.911884,31.76,194.0,0,0.0,0,0.0,0.6217,1,0.42,1.5007
90063,1560695009901,5,2.32,2.16,3.25,2.09,5.07,0.78,-0.15,0.67,4,-3,7,0.79,6340,19,79,34,56,1314,337.0,568,463,60,121.0,183,1,388,260,62,0,0,339,-32559,-31222,337,,,,,,,,,,,,
90083,1560695009921,-0,2.31,2.17,3.23,2.1,5.05,0.74,-0.09,0.65,3,-3,7,0.75,6347,18,79,34,54,1303,338.0,570,462,60,121.0,183,1,386,258,62,0,0,337,4838,3327,338,,,,,,,,,,,,
90103,1560695009941,0,2.31,2.16,3.23,2.09,5.06,0.67,-0.11,0.6,4,-1,7,0.68,6334,16,79,34,51,1298,338.0,576,465,60,122.0,183,1,376,241,62,0,0,340,4838,6668,338,,,,,,,,,,,,
90123,1560695009961,1,2.31,2.15,3.24,2.08,5.06,0.7,-0.21,0.67,4,-1,6,0.73,6315,15,79,34,49,1293,340.0,575,462,60,122.0,183,1,369,230,62,0,0,342,13,-14714,340,,,,,,,,,,,,
90143,1560695009981,4,2.3,2.15,3.24,2.06,5.04,0.68,-0.23,0.72,3,-1,4,0.71,6302,13,79,34,47,1279,342.0,574,462,60,121.0,152,1,363,219,52,0,0,341,-31222,-14714,342,45.701481,4.91189,32.35,194.0,0,0.0,0,0.0,0.6233,1,0.42,1.5024
90163,1560695009993,6,2.3,2.15,3.21,2.08,5.04,0.74,-0.08,0.74,3,-1,4,0.75,6258,13,79,34,45,1264,342.0,572,461,60,120.0,152,1,349,216,52,0,0,341,2560,-10554,342,,,,,,,,,,,,
90183,1560695010013,2,2.28,2.14,3.18,2.07,5.03,0.74,0.02,0.68,3,-0,4,0.74,6266,13,79,34,44,1255,343.0,573,461,60,120.0,152,1,342,214,52,0,0,338,-31222,-14714,343,,,,,,,,,,,,
90203,1560695010033,2,2.3,2.14,3.22,2.06,5.07,0.72,-0.03,0.64,5,1,4,0.72,6237,13,79,34,43,1249,341.0,576,463,60,120.0,152,1,336,213,52,0,0,335,2560,-122,341,,,,,,,,,,,,
90223,1560695010053,3,2.3,2.14,3.24,2.06,5.05,0.74,-0.18,0.65,6,1,3,0.76,6231,13,79,34,41,1228,340.0,572,462,60,120.0,152,1,323,210,52,0,0,335,3346,2560,340,,,,,,,,,,,,
90243,1560695010073,4,2.31,2.13,3.27,2.06,5.07,0.78,-0.24,0.65,6,0,2,0.81,6204,12,79,34,40,1201,339.0,570,461,60,122.0,144,1,316,209,49,0,0,334,-6528,3327,339,45.701473,4.911895,32.28,194.0,0,0.0,0,0.0,0.625,1,0.42,1.504
90263,1560695010101,7,2.31,2.12,3.31,2.06,5.05,0.8,-0.25,0.63,5,-2,3,0.84,6151,12,79,34,40,1181,336.0,568,461,60,122.0,144,1,316,209,49,0,0,329,-32559,-31222,336,,,,,,,,,,,,
90283,1560695010121,11,2.31,2.11,3.31,2.05,5.04,0.76,-0.22,0.63,4,-1,3,0.79,6107,12,79,34,39,1164,336.0,565,462,60,122.0,144,1,310,208,49,0,0,329,175,-6528,336,,,,,,,,,,,,
90303,1560695010141,13,2.3,2.11,3.31,2.02,5.04,0.72,-0.19,0.67,4,-2,4,0.75,6015,12,79,34,39,1130,331.0,560,465,60,121.0,144,1,310,208,49,0,0,329,170,-12032,331,,,,,,,,,,,,
90323,1560695010161,10,2.32,2.1,3.33,1.98,5.05,0.63,-0.16,0.68,5,-2,3,0.65,5958,12,79,33,38,1088,330.0,551,462,60,122.0,144,1,306,201,49,0,0,325,165,170,330,,,,,,,,,,,,
90343,1560695010181,10,2.31,2.1,3.36,1.95,5.06,0.63,-0.14,0.68,6,-2,3,0.64,5832,12,79,33,38,1055,327.0,542,464,60,122.0,134,1,304,201,44,0,0,320,160,165,327,45.701466,4.911901,32.97,194.1,0,0.0,0,0.0,0.6267,1,0.42,1.5057
90363,1560695010201,10,2.31,2.09,3.37,1.96,5.03,0.77,-0.17,0.7,5,-6,3,0.79,5707,12,79,33,38,1032,324.0,535,462,60,122.0,134,1,303,200,44,0,0,316,150,155,324,,,,,,,,,,,,
90383,1560695010221,15,2.31,2.1,3.41,1.95,5.05,0.89,-0.19,0.71,3,-7,3,0.91,5588,11,79,33,38,1001,319.0,531,465,60,120.0,134,1,301,199,44,0,0,313,140,140,319,,,,,,,,,,,,
90403,1560695010241,12,2.31,2.1,3.41,1.95,5.06,0.73,-0.18,0.62,3,-4,3,0.75,5456,11,79,33,39,960,317.0,514,465,60,121.0,134,1,304,198,44,0,0,313,130,-28416,317,,,,,,,,,,,,
90423,1560695010261,11,2.3,2.09,3.42,1.94,5.04,0.86,-0.11,0.59,4,-6,3,0.87,5304,11,79,33,39,928,312.0,504,454,60,122.0,134,1,303,204,44,0,0,306,32000,125,312,,,,,,,,,,,,
90443,1560695010281,13,2.3,2.07,3.41,1.94,5.07,0.68,-0.14,0.53,3,-2,3,0.7,5206,11,79,33,40,911,310.0,491,471,60,122.0,134,1,303,205,44,0,0,302,120,32000,310,45.701458,4.911906,32.43,194.1,0,0.0,0,0.0,0.6283,1,0.42,1.5074
90463,1560695010300,14,2.32,2.05,3.41,1.93,5.05,0.82,-0.07,0.44,4,-7,5,0.82,5124,11,79,33,40,890,307.0,479,456,60,119.0,129,1,302,204,40,0,0,296,26880,100,307,,,,,,,,,,,,
90483,1560695010320,14,2.31,2.01,3.41,1.91,5.07,0.64,-0.07,0.38,4,-4,4,0.65,5151,10,79,33,41,865,300.0,477,465,60,122.0,129,1,304,206,40,0,0,284,95,1886,300,,,,,,,,,,,,
90503,1560695010340,18,2.31,1.98,3.42,1.89,5.04,0.78,-0.02,0.37,3,-7,4,0.78,5263,10,79,33,41,845,296.0,483,462,60,120.0,129,1,306,207,40,0,0,276,80,28160,296,,,,,,,,,,,,
90523,1560695010360,12,2.32,1.95,3.42,1.86,5.05,0.55,-0.08,0.32,4,-3,4,0.55,5320,10,79,33,41,838,292.0,488,460,60,121.0,129,1,307,207,40,0,0,275,-16896,-1281,292,,,,,,,,,,,,
90543,1560695010380,17,2.32,1.93,3.43,1.86,5.04,0.69,-0.03,0.32,4,-6,5,0.7,5260,10,79,33,41,835,289.0,484,462,60,121.0,141,1,306,209,41,0,0,272,24064,-1527,287,45.701454,4.911912,31.3,194.1,0,0.0,0,0.0,0.63,1,0.42,1.509
90563,1560695010400,12,2.32,1.93,3.43,1.87,5.08,0.45,-0.09,0.3,5,-2,4,0.46,5180,10,79,33,42,832,284.0,485,463,60,121.0,141,1,305,208,41,0,0,272,250,630,284,,,,,,,,,,,,
90583,1560695010420,15,2.33,1.93,3.43,1.88,5.04,0.61,-0.04,0.35,4,-4,5,0.61,5086,10,79,33,43,832,281.0,477,468,60,120.0,141,1,304,210,41,0,0,270,-1281,-1527,281,,,,,,,,,,,,
90603,1560695010440,11,2.32,1.93,3.42,1.88,5.05,0.54,-0.06,0.3,6,-2,5,0.54,5029,10,79,33,43,835,279.0,468,462,60,122.0,141,1,303,210,41,0,0,270,-1,28160,279,,,,,,,,,,,,
90623,1560695010460,8,2.33,1.93,3.41,1.92,5.06,0.49,-0.12,0.31,5,-1,4,0.5,4926,10,79,33,44,845,274.0,464,464,60,121.0,141,1,300,210,41,0,0,263,-1,-1,274,,,,,,,,,,,,
90643,1560695010480,8,2.33,1.93,3.39,1.94,5.04,0.64,-0.14,0.29,5,-4,5,0.66,4837,10,79,33,45,869,271.0,457,466,60,120.0,140,1,299,210,38,0,0,260,-1,-1,271,45.701447,4.911917,29.78,194.1,0,0.0,0,0.0,0.6317,1,0.42,1.5107
90663,1560695010500,8,2.33,1.93,3.39,1.93,5.04,0.78,-0.1,0.26,5,-6,8,0.79,4801,10,79,33,45,894,267.0,441,457,60,121.0,140,1,299,209,38,0,0,252,-10440,-1,267,,,,,,,,,,,,
90683,1560695010520,10,2.33,1.9,3.39,1.92,5.08,0.7,-0.13,0.35,6,-4,9,0.71,4754,10,79,33,45,914,266.0,438,458,60,122.0,140,1,297,208,38,0,0,253,506,-41,266,,,,,,,,,,,,
90703,1560695010540,5,2.32,1.9,3.38,1.91,5.04,0.61,-0.14,0.31,6,2,7,0.63,4739,9,79,33,46,937,263.0,431,465,60,122.0,140,1,299,209,38,0,0,251,-1281,14337,263,,,,,,,,,,,,
90723,1560695010560,5,2.32,1.92,3.37,1.89,5.05,0.57,-0.16,0.28,5,1,5,0.59,4681,9,79,33,47,961,262.0,423,465,60,122.0,140,1,300,208,38,0,0,250,-1,-1,262,,,,,,,,,,,,
90743,1560695010580,3,2.32,1.92,3.35,1.91,5.04,0.59,-0.18,0.29,4,2,5,0.62,4644,9,79,33,47,985,260.0,424,467,60,121.0,142,1,300,210,37,0,0,250,-1,-1,260,45.701439,4.911921,27.34,194.1,0,0.0,0,0.0,0.6333,1,0.43,1.5124
90763,1560695010600,2,2.31,1.93,3.35,1.9,5.08,0.73,-0.21,0.36,3,0,5,0.76,4613,9,79,33,47,989,256.0,416,462,60,121.0,142,1,299,210,37,0,0,246,16896,-1,256,,,,,,,,,,,,
90783,1560695010620,1,2.31,1.92,3.36,1.89,5.08,0.86,-0.17,0.48,2,-2,5,0.88,4618,9,79,33,47,992,254.0,422,463,60,120.0,142,1,299,210,37,0,0,244,-1494,-1494,254,,,,,,,,,,,,
90803,1560695010640,1,2.3,1.96,3.35,1.9,5.04,0.97,-0.14,0.46,2,-5,5,0.98,4612,9,79,33,47,986,250.0,419,461,60,120.0,142,1,299,210,37,0,0,242,10812,250,250,,,,,,,,,,,,
90823,1560695010660,1,2.29,1.99,3.36,1.88,5.04,1.08,-0.12,0.43,3,-8,6,1.09,4567,9,79,33,48,979,248.0,413,464,60,120.0,142,1,298,212,37,0,0,243,10812,-17920,248,,,,,,,,,,,,
90843,1560695010680,0,2.3,2.02,3.37,1.87,5.05,1.17,-0.05,0.43,4,-8,8,1.17,4531,9,79,33,47,970,246.0,411,465,60,120.0,142,1,298,211,37,0,0,242,250,23482,246,45.701435,4.911925,25.76,194.1,0,0.0,0,0.0,0.635,1,0.43,1.514
90863,1560695010700,1,2.29,2.04,3.38,1.87,5.07,1.22,0.0,0.49,4,-10,9,1.22,4495,8,79,33,47,961,244.0,406,455,60,120.0,142,1,297,208,35,0,0,240,250,250,244,,,,,,,,,,,,
90883,1560695010720,0,2.3,2.09,3.39,1.89,5.04,1.28,0.02,0.54,4,-12,9,1.28,4500,8,79,33,48,955,243.0,407,463,60,120.0,142,1,298,211,35,0,0,239,23482,-17920,243,,,,,,,,,,,,
90903,1560695010740,-1,2.3,2.1,3.4,1.88,5.08,1.34,0.06,0.52,5,-13,9,1.34,4457,8,79,33,48,949,242.0,400,467,60,119.0,142,1,297,210,35,0,0,237,23482,250,241,,,,,,,,,,,,
90923,1560695010760,-0,2.3,2.12,3.39,1.87,5.05,1.41,0.09,0.52,5,-13,10,1.41,4407,8,79,33,48,951,241.0,401,466,60,119.0,142,1,296,209,35,0,0,238,-17920,-1484,240,,,,,,,,,,,,
90943,1560695010780,0,2.29,2.13,3.39,1.86,5.06,1.46,0.12,0.58,4,-16,10,1.46,4381,8,79,33,48,954,240.0,401,460,60,121.0,142,1,296,205,35,0,0,235,250,250,239,45.701427,4.911929,24.44,194.1,0,0.0,0,0.0,0.6367,1,0.43,1.5157
90963,1560695010800,0,2.3,2.13,3.37,1.86,5.04,1.47,0.1,0.62,4,-16,10,1.48,4349,8,79,33,48,958,238.0,392,461,60,121.0,142,1,295,207,34,0,0,235,13468,13602,238,,,,,,,,,,,,
90983,1560695010820,-0,2.29,2.13,3.37,1.85,5.05,1.44,0.11,0.63,3,-15,8,1.44,4374,8,79,33,48,961,236.0,393,461,60,122.0,142,1,296,208,34,0,0,234,250,8704,236,,,,,,,,,,,,
91003,1560695010840,-0,2.29,2.12,3.37,1.85,5.04,1.39,0.03,0.62,2,-12,6,1.39,4359,8,79,33,48,962,235.0,389,467,60,122.0,142,1,296,208,34,0,0,232,-1483,8704,235,,,,,,,,,,,,
91023,1560695010860,5,2.29,2.13,3.38,1.85,5.06,1.26,-0.04,0.62,2,-9,5,1.26,4397,8,79,33,48,962,235.0,396,468,60,122.0,142,1,296,208,34,0,0,232,8704,10824,235,,,,,,,,,,,,
91043,1560695010880,4,2.29,2.13,3.37,1.86,5.07,1.13,-0.06,0.55,1,-6,3,1.14,4351,8,79,33,48,956,233.0,390,465,60,122.0,141,1,295,205,33,0,0,231,8704,-1494,234,45.70142,4.911933,23.58,194.1,0,0.0,0,0.0,0.6383,1,0.43,1.5174
91063,1560695010900,1,2.29,2.13,3.38,1.86,5.05,1.01,-0.04,0.49,2,-2,3,1.01,4311,8,79,33,47,950,232.0,387,457,60,122.0,141,1,295,204,33,0,0,230,10824,10824,232,,,,,,,,,,,,
91083,1560695010920,0,2.27,2.13,3.37,1.85,5.05,0.96,-0.01,0.45,2,-1,3,0.96,4271,8,79,33,47,944,232.0,385,458,60,121.0,141,1,294,203,33,0,0,229,250,10824,232,,,,,,,,,,,,
91103,1560695010940,-1,2.27,2.13,3.35,1.86,5.07,1.04,-0.04,0.48,2,-3,3,1.04,4263,8,79,33,47,938,231.0,380,461,60,120.0,141,1,294,203,33,0,0,229,-1494,18432,231,,,,,,,,,,,,
91123,1560695010960,-1,2.26,2.12,3.32,1.86,5.08,1.11,-0.02,0.53,3,-5,3,1.11,4236,8,79,33,47,932,229.0,380,462,60,122.0,141,1,294,202,33,0,0,228,18432,-1496,229,,,,,,,,,,,,
91143,1560695010980,-0,2.25,2.12,3.32,1.86,5.08,1.16,-0.01,0.59,2,-6,3,1.16,4288,8,79,33,47,925,229.0,376,467,60,122.0,141,1,295,206,33,0,0,228,18432,10318,228,45.70142,4.911936,22.88,194.1,0,0.0,0,0.0,0.64,1,0.43,1.519
91163,1560695010994,5,2.23,2.11,3.31,1.86,5.05,1.11,-0.02,0.6,1,-4,1,1.11,4248,8,79,33,47,921,228.0,380,463,60,122.0,144,1,294,202,33,0,0,226,250,19968,227,,,,,,,,,,,,
91183,1560695011014,3,2.22,2.11,3.25,1.86,5.07,1.04,0.01,0.55,1,-2,-1,1.04,4234,8,79,33,47,920,229.0,375,462,60,122.0,144,1,294,202,33,0,0,227,18432,19968,226,,,,,,,,,,,,
91203,1560695011034,0,2.22,2.11,3.25,1.87,5.07,0.98,0.02,0.52,1,-0,-1,0.98,4245,8,79,33,47,919,228.0,378,458,60,120.0,144,1,294,206,33,0,0,226,250,-1530,224,,,,,,,,,,,,
91223,1560695011054,0,2.21,2.11,3.25,1.88,5.04,1.02,0.04,0.54,0,-2,-1,1.02,4216,8,79,33,48,917,227.0,379,459,60,121.0,144,1,294,206,33,0,0,227,-1496,1596,225,,,,,,,,,,,,
91243,1560695011074,-0,2.2,2.11,3.23,1.89,5.03,1.06,0.02,0.56,-0,-3,-0,1.06,4196,9,79,33,48,915,227.0,375,463,60,121.0,143,1,293,205,32,0,0,226,-1496,15360,223,45.701412,4.911939,22.35,194.1,0,0.0,0,0.0,0.6417,1,0.43,1.5207
91263,1560695011092,5,2.2,2.11,3.21,1.88,5.07,1.06,-0.01,0.57,-1,-3,-2,1.06,4162,9,79,33,48,913,226.0,369,461,60,122.0,143,1,293,205,32,0,0,225,10318,1596,221,,,,,,,,,,,,
91283,1560695011112,-0,2.2,2.11,3.21,1.88,5.05,0.97,0.03,0.48,-1,1,-3,0.97,4123,9,79,33,48,908,226.0,369,462,60,122.0,143,1,292,204,32,0,0,227,10318,-1532,222,,,,,,,,,,,,
91303,1560695011132,-1,2.18,2.09,3.21,1.88,5.08,0.96,0.03,0.5,-1,-0,-3,0.96,4132,9,79,33,48,900,226.0,372,463,60,120.0,143,1,292,204,32,0,0,224,10318,250,220,,,,,,,,,,,,
91323,1560695011152,-2,2.18,2.08,3.19,1.88,5.07,1.01,0.05,0.51,-2,-2,-3,1.01,4155,9,79,33,49,894,225.0,364,462,60,122.0,143,1,294,209,32,0,0,224,19968,-17920,220,,,,,,,,,,,,
91343,1560695011172,6,2.16,2.09,3.19,1.92,5.04,1.02,0.06,0.48,-2,-1,-3,1.02,4131,9,79,33,48,888,225.0,370,463,60,122.0,143,1,292,204,32,0,0,224,19968,250,218,45.701408,4.911942,21.77,194.1,0,0.0,0,0.0,0.6433,1,0.43,1.5224
91363,1560695011200,0,2.16,2.08,3.18,1.99,5.06,0.92,0.1,0.43,-3,3,-2,0.93,4126,9,79,33,49,881,223.0,369,463,60,122.0,141,1,293,204,31,0,0,223,-1530,250,218,,,,,,,,,,,,
91383,1560695011220,-0,2.13,2.08,3.15,2.02,5.07,0.9,0.16,0.44,-4,1,-1,0.92,4109,9,79,33,49,874,222.0,367,466,60,120.0,141,1,293,208,31,0,0,221,1596,250,216,,,,,,,,,,,,
91403,1560695011240,-0,2.11,2.09,3.12,2.01,5.04,0.94,0.17,0.45,-5,-0,-1,0.96,4076,9,79,33,49,869,223.0,364,462,60,120.0,141,1,293,207,31,0,0,224,-1530,1088,215,,,,,,,,,,,,
91423,1560695011260,4,2.11,2.09,3.1,2.0,5.05,0.91,0.2,0.44,-5,1,-3,0.93,4082,9,79,33,49,869,224.0,365,463,60,122.0,141,1,293,207,31,0,0,223,250,1088,214,,,,,,,,,,,,
91443,1560695011280,2,2.09,2.09,3.1,1.99,5.06,0.88,0.18,0.41,-6,3,-4,0.9,4078,9,79,33,49,869,225.0,361,462,60,122.0,150,1,293,207,32,0,0,221,19968,966,212,45.701401,4.911946,21.46,194.1,0,0.0,0,0.0,0.645,1,0.43,1.524
91463,1560695011299,-0,2.08,2.09,3.11,1.98,5.05,0.93,0.21,0.42,-6,1,-4,0.95,4055,9,79,33,49,871,225.0,362,463,60,119.0,150,1,293,206,32,0,0,222,250,250,212,,,,,,,,,,,,
91483,1560695011319,1,2.07,2.09,3.11,1.98,5.06,0.94,0.21,0.45,-7,-0,-5,0.96,4054,9,79,33,50,873,225.0,362,463,60,122.0,150,1,294,211,32,0,0,224,19968,-14848,210,,,,,,,,,,,,
91503,1560695011339,1,2.06,2.11,3.1,1.98,5.08,0.92,0.2,0.45,-8,2,-7,0.94,4061,9,79,33,50,876,225.0,356,460,60,122.0,150,1,294,211,32,0,0,223,19968,-1482,210,,,,,,,,,,,,
91523,1560695011359,-2,2.03,2.14,3.11,1.96,5.06,0.88,0.21,0.44,-9,1,-7,0.91,4056,9,79,33,49,880,224.0,358,464,60,121.0,150,1,293,207,32,0,0,223,250,250,209,,,,,,,,,,,,
91543,1560695011379,0,2.01,2.15,3.1,1.96,5.07,0.94,0.26,0.47,-9,-1,-8,0.98,4047,9,79,33,50,887,225.0,359,460,60,122.0,154,1,294,210,32,0,0,223,19968,-29696,207,45.701397,4.911949,21.17,194.1,0,0.0,0,0.0,0.6467,1,0.43,1.5257
91563,1560695011399,3,1.99,2.15,3.1,1.96,5.08,0.94,0.25,0.46,-11,0,-10,0.97,4033,9,79,33,50,893,226.0,357,462,60,122.0,154,1,294,210,32,0,0,224,10318,-1482,205,,,,,,,,,,,,
91583,1560695011419,-2,1.98,2.15,3.11,1.94,5.05,0.9,0.27,0.49,-11,0,-11,0.94,4033,9,79,33,50,897,227.0,356,463,60,120.0,154,1,294,210,32,0,0,222,-1496,-1482,204,,,,,,,,,,,,
91603,1560695011439,-0,1.96,2.16,3.12,1.93,5.05,0.93,0.24,0.46,-12,-2,-12,0.96,4034,9,79,33,50,903,227.0,361,464,60,120.0,154,1,294,210,32,0,0,224,-1496,250,203,,,,,,,,,,,,
91623,1560695011459,3,1.98,2.18,3.14,1.92,5.07,0.93,0.25,0.42,-13,-0,-13,0.96,4021,10,79,33,51,912,227.0,352,459,60,122.0,154,1,295,215,32,0,0,224,-1496,250,202,,,,,,,,,,,,
91643,1560695011479,-1,1.97,2.2,3.14,1.91,5.08,0.89,0.25,0.4,-14,2,-14,0.92,4020,10,79,33,50,921,228.0,355,462,60,122.0,159,1,294,210,32,0,0,224,250,19456,201,45.701393,4.911953,20.95,194.1,0,0.0,0,0.0,0.6483,1,0.43,1.5274
91663,1560695011501,-2,1.97,2.21,3.13,1.92,5.05,0.89,0.31,0.44,-15,0,-14,0.94,4035,10,79,33,51,927,228.0,358,464,60,120.0,159,1,295,215,32,0,0,226,250,14412,200,,,,,,,,,,,,
91683,1560695011521,4,1.97,2.25,3.13,1.92,5.04,0.93,0.3,0.48,-16,-0,-16,0.98,4024,10,79,33,51,932,228.0,354,460,60,122.0,159,1,295,215,32,0,0,224,250,250,200,,,,,,,,,,,,
91703,1560695011541,1,1.96,2.28,3.12,1.91,5.04,0.9,0.3,0.47,-17,1,-17,0.95,4016,10,79,33,51,940,228.0,355,463,60,122.0,159,1,295,215,32,0,0,223,250,-1480,199,,,,,,,,,,,,
91723,1560695011561,-1,1.96,2.27,3.12,1.88,5.07,0.89,0.31,0.49,-16,-0,-18,0.94,4040,10,79,33,51,949,226.0,354,462,60,119.0,159,1,295,215,32,0,0,223,10318,250,198,,,,,,,,,,,,
91743,1560695011581,-2,1.97,2.28,3.13,1.87,5.05,0.92,0.31,0.52,-17,-1,-19,0.97,4027,10,79,33,52,952,226.0,351,464,60,122.0,159,1,296,215,32,0,0,222,10318,250,199,45.701389,4.911956,20.56,194.2,0,0.0,0,0.0,0.65,1,0.43,1.529
91763,1560695011601,2,1.96,2.27,3.13,1.86,5.03,0.88,0.3,0.52,-17,-0,-21,0.93,4031,10,79,33,51,955,226.0,355,460,60,122.0,165,1,295,215,33,0,0,223,10318,14412,198,,,,,,,,,,,,
91783,1560695011621,-2,1.97,2.27,3.15,1.86,5.06,0.85,0.29,0.5,-17,-1,-22,0.9,4045,10,79,33,51,961,227.0,357,461,60,120.0,165,1,295,219,33,0,0,222,19968,250,198,,,,,,,,,,,,
91803,1560695011641,-1,1.97,2.27,3.16,1.87,5.08,0.89,0.29,0.53,-18,-2,-22,0.94,4028,10,79,33,52,968,226.0,354,464,60,121.0,165,1,296,219,33,0,0,222,10318,19456,198,,,,,,,,,,,,
91823,1560695011661,2,1.97,2.28,3.16,1.88,5.04,0.87,0.29,0.52,-18,-1,-23,0.92,4017,10,79,33,52,971,225.0,356,459,60,123.0,165,1,296,219,33,0,0,221,19968,250,199,,,,,,,,,,,,
91843,1560695011681,-1,1.96,2.28,3.16,1.86,5.04,0.82,0.27,0.51,-19,-1,-23,0.87,4055,10,79,33,52,974,225.0,356,460,60,122.0,166,1,296,219,33,0,0,220,19968,19456,198,45.701382,4.911961,20.28,194.2,0,0.0,0,0.0,0.6517,1,0.43,1.5307
91863,1560695011701,-1,1.97,2.28,3.15,1.87,5.05,0.86,0.28,0.5,-19,-1,-24,0.91,4067,11,79,33,52,976,224.0,356,465,60,121.0,166,1,296,219,33,0,0,222,250,-1481,198,,,,,,,,,,,,
91883,1560695011721,2,1.97,2.28,3.15,1.86,5.05,0.86,0.27,0.51,-19,-1,-25,0.9,4045,11,79,33,52,978,225.0,356,462,60,122.0,166,1,296,219,33,0,0,221,19968,-1481,197,,,,,,,,,,,,
91903,1560695011741,-1,1.97,2.29,3.15,1.86,5.08,0.81,0.27,0.48,-19,0,-26,0.85,4059,11,79,33,52,977,224.0,360,459,60,121.0,166,1,296,219,33,0,0,220,250,-1481,196,,,,,,,,,,,,
91923,1560695011761,1,1.97,2.27,3.15,1.86,5.03,0.85,0.28,0.5,-19,-0,-26,0.89,4100,11,79,33,52,976,223.0,356,463,60,119.0,166,1,296,223,33,0,0,220,-1530,14326,196,,,,,,,,,,,,
91943,1560695011781,1,1.98,2.27,3.16,1.86,5.04,0.91,0.22,0.54,-19,-2,-26,0.93,4071,11,79,33,53,976,224.0,361,460,60,122.0,166,1,297,223,33,0,0,222,250,-2560,197,45.701378,4.911965,20.29,194.2,0,0.0,0,0.0,0.6533,1,0.43,1.5324
91963,1560695011801,2,2.0,2.27,3.16,1.86,5.04,0.86,0.22,0.53,-19,1,-26,0.89,4080,11,79,33,53,975,224.0,361,463,60,122.0,172,1,297,223,34,0,0,220,250,14326,197,,,,,,,,,,,,
91983,1560695011821,0,2.02,2.27,3.16,1.87,5.04,0.84,0.19,0.55,-19,1,-26,0.86,4062,11,79,33,53,976,223.0,360,461,60,120.0,172,1,297,223,34,0,0,221,-1530,19456,198,,,,,,,,,,,,
92003,1560695011841,-1,2.05,2.27,3.15,1.87,5.05,0.84,0.17,0.56,-18,0,-26,0.86,4032,11,79,33,53,977,222.0,358,465,60,121.0,172,1,297,223,34,0,0,219,1596,14412,197,,,,,,,,,,,,
92023,1560695011861,5,2.07,2.26,3.15,1.87,5.07,0.83,0.15,0.57,-18,2,-26,0.84,4035,11,79,33,53,978,221.0,358,466,60,123.0,172,1,297,223,34,0,0,220,15360,14412,199,,,,,,,,,,,,
92043,1560695011881,0,2.1,2.25,3.15,1.9,5.04,0.79,0.16,0.61,-17,2,-26,0.81,3973,11,79,33,53,980,221.0,350,460,60,119.0,165,1,293,222,33,0,0,220,15360,250,200,45.701378,4.91197,20.21,194.2,0,0.0,0,0.0,0.655,1,0.43,1.534
92063,1560695011901,-0,2.15,2.25,3.16,1.89,5.08,0.78,0.15,0.61,-16,1,-25,0.8,3920,11,79,33,54,981,219.0,353,463,60,121.0,165,1,288,226,33,0,0,220,-1532,250,202,,,,,,,,,,,,
92083,1560695011921,-0,2.18,2.24,3.16,1.93,5.07,0.76,0.15,0.59,-15,3,-25,0.77,3909,11,79,33,54,982,218.0,347,461,60,122.0,165,1,287,226,33,0,0,218,1210,-1482,205,,,,,,,,,,,,
92103,1560695011941,-0,2.22,2.24,3.18,2.01,5.08,0.79,0.11,0.6,-14,1,-24,0.8,3878,11,79,33,54,983,217.0,346,464,60,120.0,165,1,284,225,33,0,0,215,-17920,250,205,,,,,,,,,,,,
92123,1560695011961,3,2.26,2.22,3.22,2.03,5.04,0.76,0.03,0.6,-13,1,-23,0.76,3877,11,79,33,54,985,215.0,342,462,60,122.0,165,1,283,225,33,0,0,215,16384,-1482,208,,,,,,,,,,,,
92143,1560695011981,-0,2.29,2.2,3.28,2.02,5.07,0.71,0.03,0.58,-11,3,-20,0.71,3907,11,79,33,55,986,213.0,340,456,60,121.0,163,1,287,230,34,0,0,212,16384,-14848,208,45.701374,4.911974,19.89,194.2,0,0.0,0,0.0,0.6567,1,0.43,1.5357
92163,1560695011991,-0,2.32,2.19,3.28,2.05,5.05,0.77,-0.02,0.64,-10,1,-18,0.77,3899,12,79,33,55,986,211.0,340,468,60,123.0,163,1,286,229,34,0,0,212,-1533,-14848,211,,,,,,,,,,,,
92183,1560695012011,1,2.35,2.17,3.28,2.06,5.08,0.75,-0.04,0.61,-9,2,-17,0.75,3904,12,79,33,55,987,211.0,340,458,60,122.0,163,1,286,230,34,0,0,210,-1533,250,212,,,,,,,,,,,,
92203,1560695012031,-1,2.39,2.15,3.29,2.06,5.08,0.76,-0.07,0.64,-7,0,-14,0.77,3949,12,79,33,56,987,213.0,343,462,60,120.0,163,1,290,236,34,0,0,210,250,250,213,,,,,,,,,,,,
92223,1560695012051,5,2.44,2.11,3.3,2.06,5.08,0.8,-0.13,0.66,-5,0,-12,0.81,3974,12,79,33,56,989,216.0,341,465,60,122.0,163,1,293,237,34,0,0,208,13964,250,216,,,,,,,,,,,,
92243,1560695012071,0,2.47,2.1,3.33,2.08,5.04,0.75,-0.16,0.62,-3,2,-11,0.77,3994,13,79,33,56,989,216.0,347,460,60,122.0,163,1,295,237,34,0,0,205,-29696,-1532,216,45.70137,4.91198,20.36,194.2,0,0.0,0,0.0,0.6583,1,0.43,1.5374
92263,1560695012101,-2,2.51,2.07,3.33,2.09,5.07,0.77,-0.21,0.63,-1,-1,-7,0.8,3991,14,79,33,56,988,218.0,348,460,60,120.0,162,1,295,243,35,0,0,205,-1482,1210,218,,,,,,,,,,,,
92283,1560695012121,6,2.53,2.06,3.33,2.09,5.07,0.8,-0.26,0.61,-0,-1,-4,0.84,4012,16,79,33,57,986,219.0,351,462,60,122.0,162,1,295,243,35,0,0,203,13874,250,219,,,,,,,,,,,,
92303,1560695012141,-0,2.56,2.07,3.34,2.1,5.07,0.75,-0.28,0.62,2,0,-2,0.8,4002,18,79,33,58,983,219.0,349,460,60,120.0,162,1,294,248,35,0,0,204,12800,-1532,221,,,,,,,,,,,,
92323,1560695012161,-1,2.59,2.07,3.36,2.09,5.04,0.75,-0.32,0.62,3,-1,2,0.81,3985,19,79,33,60,981,222.0,350,461,60,120.0,162,1,289,257,35,0,0,203,12800,250,222,,,,,,,,,,,,
92343,1560695012181,4,2.63,2.07,3.36,2.09,5.05,0.76,-0.36,0.62,5,-2,4,0.84,3992,20,79,33,62,975,225.0,348,467,60,122.0,177,1,291,267,40,0,0,201,250,15360,225,45.701363,4.911985,20.27,194.2,0,0.0,0,0.0,0.66,1,0.43,1.539
92363,1560695012201,-1,2.69,2.06,3.37,2.13,5.05,0.73,-0.36,0.61,7,-1,6,0.82,4004,21,79,33,63,964,228.0,350,458,60,121.0,177,1,293,273,40,0,0,201,14412,19968,228,,,,,,,,,,,,
92383,1560695012221,0,2.73,2.05,3.44,2.16,5.07,0.73,-0.41,0.59,10,-3,9,0.84,3997,22,79,33,65,955,228.0,347,461,60,121.0,177,1,294,281,40,0,0,203,14412,250,231,,,,,,,,,,,,
92403,1560695012241,3,2.79,2.04,3.48,2.2,5.05,0.71,-0.47,0.62,11,-3,10,0.85,3999,23,79,33,67,948,233.0,352,467,60,122.0,177,1,296,286,40,0,0,201,19456,250,233,,,,,,,,,,,,
92423,1560695012261,-1,2.85,2.03,3.5,2.21,5.04,0.71,-0.5,0.6,13,-1,12,0.87,4049,25,79,33,68,940,235.0,350,462,60,121.0,177,1,298,292,40,0,0,201,-1481,-1496,235,,,,,,,,,,,,
92443,1560695012281,0,2.9,2.03,3.53,2.2,5.05,0.69,-0.51,0.57,16,-3,15,0.86,4004,27,79,33,69,932,237.0,352,462,60,119.0,177,1,298,299,40,0,0,202,19456,-1494,237,45.701359,4.91199,20.7,194.2,0,0.0,0,0.0,0.6617,1,0.44,1.5407
92463,1560695012300,1,0.35,2.02,3.53,2.22,5.05,0.71,-0.57,0.55,17,-3,17,0.91,4041,28,79,33,71,924,238.0,352,467,60,122.0,189,1,298,304,45,0,0,196,14326,10824,238,,,,,,,,,,,,
92483,1560695012320,3,0.4,2.0,3.53,2.21,5.07,0.72,-0.68,0.55,20,-2,19,0.99,4133,30,79,33,73,922,239.0,354,463,60,122.0,189,1,297,313,45,0,0,203,-2560,250,239,,,,,,,,,,,,
92503,1560695012340,-2,0.43,1.98,3.54,2.22,5.05,0.69,-0.69,0.51,22,-1,21,0.97,4101,32,79,33,74,923,240.0,353,453,60,120.0,189,1,297,318,45,0,0,200,250,13602,242,,,,,,,,,,,,
92523,1560695012360,-1,0.43,1.96,3.54,2.23,5.07,0.73,-0.78,0.58,24,-4,23,1.06,4132,34,79,33,77,929,242.0,360,463,60,121.0,189,1,296,333,45,0,0,215,-1281,-1483,242,,,,,,,,,,,,
92543,1560695012380,-1,0.43,1.95,3.55,2.23,5.05,0.72,-0.74,0.57,26,-5,23,1.03,4141,37,79,33,79,934,242.0,360,465,60,122.0,231,1,296,357,56,0,0,225,-1,-1483,242,45.701359,4.911995,20.51,194.2,0,0.0,0,0.0,0.6633,1,0.44,1.5424
92563,1560695012400,4,0.4,1.94,3.56,2.24,5.03,0.73,-0.79,0.53,28,-4,25,1.07,4171,39,79,33,80,941,244.0,356,461,60,122.0,231,1,295,371,56,0,0,213,250,-1483,244,,,,,,,,,,,,
92583,1560695012420,-1,0.4,1.94,3.56,2.24,5.07,0.72,-0.84,0.46,30,-5,30,1.1,4158,42,79,33,83,947,245.0,362,459,60,122.0,231,1,294,393,56,0,0,192,250,13468,245,,,,,,,,,,,,
92603,1560695012440,0,0.39,1.93,3.57,2.24,5.07,0.78,-0.82,0.44,32,-4,37,1.13,4101,45,79,33,85,973,249.0,360,460,60,120.0,231,1,295,410,56,0,0,201,250,250,249,,,,,,,,,,,,
92623,1560695012460,-0,0.38,1.94,3.56,2.25,5.04,0.8,-0.83,0.44,33,-3,42,1.16,4112,48,79,33,87,998,249.0,358,475,60,122.0,231,1,295,419,56,0,0,208,250,-25600,249,,,,,,,,,,,,
92643,1560695012480,4,0.38,1.94,3.56,2.25,5.04,0.77,-0.79,0.44,34,-1,44,1.1,4138,51,79,33,89,1016,250.0,356,472,60,122.0,268,1,295,429,67,0,0,201,250,13468,250,45.701355,4.911999,20.53,194.1,0,0.0,0,0.0,0.665,1,0.44,1.544
92663,1560695012500,-0,0.38,1.94,3.55,2.25,5.07,0.77,-0.68,0.49,35,-2,43,1.03,4033,54,80,33,90,1035,250.0,360,449,60,119.0,268,1,298,427,67,0,0,193,-2560,-1484,250,,,,,,,,,,,,
92683,1560695012520,0,0.38,1.94,3.55,2.23,5.07,0.77,-0.69,0.48,37,-6,43,1.04,3896,54,80,33,91,1075,250.0,350,453,60,121.0,268,1,285,442,67,0,0,192,-2560,-25600,250,,,,,,,,,,,,
92703,1560695012540,0,0.37,1.94,3.56,2.23,5.04,0.77,-0.71,0.42,38,-6,42,1.05,3796,55,80,33,91,1115,252.0,345,463,60,121.0,268,1,274,428,67,0,0,187,-1481,-25600,252,,,,,,,,,,,,
92723,1560695012560,-1,0.37,1.94,3.58,2.22,5.04,0.8,-0.72,0.41,39,-6,45,1.08,3713,56,80,33,93,1142,251.0,333,463,60,122.0,268,1,264,490,67,0,0,181,14326,-25600,251,,,,,,,,,,,,
92743,1560695012580,0,0.36,1.94,3.59,2.2,5.07,0.82,-0.74,0.34,40,-5,48,1.11,3708,58,80,33,93,1162,253.0,331,458,60,121.0,268,1,264,489,67,0,0,179,14326,-25600,253,45.701347,4.912003,20.63,194.1,0,0.0,0,0.0,0.6667,1,0.44,1.5457
92763,1560695012600,6,0.35,1.94,3.58,2.22,5.05,0.87,-0.75,0.4,41,-5,51,1.15,3692,61,80,33,94,1209,252.0,325,466,60,122.0,268,1,262,525,68,0,0,179,14326,13468,252,,,,,,,,,,,,
92783,1560695012620,-1,0.35,1.93,3.58,2.21,5.06,0.83,-0.75,0.41,41,-3,52,1.12,3765,62,79,33,95,1262,251.0,330,460,60,121.0,268,1,270,567,68,0,0,179,-2560,13468,251,,,,,,,,,,,,
92803,1560695012640,-1,0.35,1.94,3.57,2.21,5.04,0.86,-0.74,0.41,42,-5,52,1.14,3843,64,80,33,95,1300,250.0,328,452,60,121.0,268,1,279,571,68,0,0,176,250,-25600,250,,,,,,,,,,,,
92823,1560695012660,3,0.34,1.94,3.59,2.22,5.04,0.89,-0.78,0.41,42,-6,53,1.18,3955,65,80,33,95,1330,249.0,333,470,60,122.0,268,1,291,577,68,0,0,178,-1281,250,249,,,,,,,,,,,,
92843,1560695012680,1,0.34,1.93,3.59,2.21,5.04,0.86,-0.78,0.41,42,-4,54,1.17,4203,66,80,33,95,1373,249.0,342,448,60,120.0,268,1,294,584,68,0,0,177,250,-1483,249,45.701344,4.912005,20.82,194.1,0,0.0,0,0.0,0.6683,1,0.44,1.5474
92863,1560695012700,0,0.33,1.94,3.59,2.2,5.08,0.83,-0.83,0.43,42,-4,56,1.18,4400,67,80,33,95,1419,248.0,360,449,60,120.0,373,1,291,589,93,0,0,179,-1281,8704,248,,,,,,,,,,,,
92883,1560695012720,0,0.33,1.94,3.57,2.22,5.04,0.78,-0.86,0.45,42,-3,56,1.16,4436,67,80,33,95,1447,248.0,368,452,60,120.0,373,1,290,590,93,0,0,183,-1281,13602,248,,,,,,,,,,,,
92903,1560695012740,-0,2.94,1.98,3.54,2.22,5.07,0.79,-0.83,0.47,42,-1,55,1.15,4509,67,80,33,95,1461,247.0,375,461,60,120.0,373,1,289,619,93,0,0,221,14326,250,247,,,,,,,,,,,,
92923,1560695012760,1,2.91,2.0,3.54,2.25,5.07,0.76,-0.85,0.48,43,-2,55,1.14,4559,68,80,33,96,1476,247.0,383,453,60,120.0,373,1,288,619,93,0,0,275,-1481,13468,247,,,,,,,,,,,,
92943,1560695012780,3,2.9,2.0,3.52,2.27,5.08,0.8,-0.89,0.56,43,-2,56,1.2,4766,68,80,33,95,1491,248.0,392,449,60,120.0,373,1,284,622,93,0,0,270,250,-1484,248,45.70134,4.912006,20.95,194.1,0,0.0,0,0.0,0.67,1,0.44,1.549
92963,1560695012800,-1,2.87,2.0,3.49,2.27,5.04,0.72,-0.93,0.64,43,-5,56,1.18,5000,68,80,33,95,1498,251.0,417,467,60,122.0,431,1,279,602,107,0,0,245,19456,-1445,251,,,,,,,,,,,,
92983,1560695012820,3,2.83,2.03,3.45,2.28,5.04,0.65,-0.85,0.57,43,-1,56,1.07,5108,68,80,33,95,1498,254.0,428,463,60,121.0,431,1,284,594,107,0,0,248,250,-214,254,,,,,,,,,,,,
93003,1560695012840,1,2.8,2.1,3.4,2.32,5.04,0.64,-0.83,0.65,44,-2,59,1.05,5161,68,80,33,93,1483,257.0,434,459,60,121.0,431,1,285,572,107,0,0,284,250,-10440,259,,,,,,,,,,,,
93023,1560695012860,1,2.76,2.17,3.31,2.38,5.04,0.61,-0.85,0.74,43,-0,59,1.05,5192,68,80,33,93,1452,264.0,445,462,60,122.0,431,1,286,549,107,0,0,279,-1482,-1,264,,,,,,,,,,,,
93043,1560695012880,5,2.74,2.23,3.22,2.39,5.07,0.63,-0.78,0.82,43,-2,60,1.0,5193,68,80,33,93,1421,268.0,448,458,60,120.0,431,1,286,571,107,0,0,257,-17920,-1,268,45.701332,4.912006,20.75,194.1,0,0.0,0,0.0,0.6717,1,0.44,1.5507
93063,1560695012900,0,2.72,2.29,3.19,2.43,5.08,0.56,-0.81,0.89,42,-2,58,0.98,5113,68,80,33,94,1391,272.0,450,467,60,121.0,402,1,283,552,108,0,0,244,250,30208,272,,,,,,,,,,,,
93083,1560695012920,1,2.7,2.33,3.18,2.48,5.05,0.58,-0.75,0.91,42,-1,56,0.95,4998,68,80,33,94,1339,276.0,451,463,60,120.0,402,1,280,578,108,0,0,303,-1496,250,276,,,,,,,,,,,,
93103,1560695012940,1,2.67,2.33,3.2,2.49,5.06,0.58,-0.75,0.89,40,-1,55,0.95,5041,68,80,33,94,1266,280.0,442,461,60,122.0,402,1,280,577,108,0,0,302,250,250,280,,,,,,,,,,,,
93123,1560695012960,2,2.65,2.33,3.25,2.49,5.05,0.48,-0.72,0.87,39,-0,54,0.87,5176,68,80,33,94,1201,279.0,445,465,60,122.0,402,1,285,572,108,0,0,264,13468,1886,279,,,,,,,,,,,,
93143,1560695012980,-1,2.64,2.34,3.29,2.48,5.04,0.54,-0.7,0.95,39,-3,53,0.89,5314,68,80,33,93,1158,284.0,457,459,60,122.0,402,1,290,546,108,0,0,262,15360,0,285,45.701328,4.912006,22.0,194.1,0,0.0,0,0.0,0.6733,1,0.44,1.5524
93163,1560695012994,3,2.62,2.33,3.29,2.47,5.07,0.49,-0.7,0.91,38,1,51,0.85,5375,68,80,33,93,1113,289.0,465,461,60,121.0,387,1,293,544,110,0,0,285,10818,20480,289,,,,,,,,,,,,
93183,1560695013014,1,2.59,2.34,3.29,2.48,5.06,0.45,-0.66,0.93,38,-0,50,0.8,5521,68,80,33,92,1060,292.0,472,462,60,122.0,387,1,298,523,110,0,0,321,-1281,21760,292,,,,,,,,,,,,
93203,1560695013034,0,2.56,2.31,3.29,2.47,5.03,0.54,-0.68,1.02,36,-4,50,0.87,5765,69,80,33,92,1017,294.0,492,465,60,122.0,387,1,308,518,110,0,0,313,-41,95,294,,,,,,,,,,,,
93223,1560695013054,2,2.54,2.31,3.3,2.46,5.04,0.68,-0.78,1.11,34,-5,49,1.03,6015,69,80,33,91,1008,298.0,514,461,60,122.0,387,1,317,505,110,0,0,296,-1,29440,299,,,,,,,,,,,,
93243,1560695013074,1,2.53,2.33,3.24,2.45,5.05,0.8,-0.81,1.2,32,-7,48,1.14,6115,69,80,33,91,997,304.0,529,461,60,122.0,384,1,323,507,117,0,0,291,-1,140,304,45.701321,4.912005,24.37,194.1,0,0.0,0,0.0,0.675,1,0.44,1.554
93263,1560695013100,-0,2.52,2.41,3.2,2.47,5.06,0.77,-0.86,1.24,29,-9,45,1.15,6040,69,80,33,91,986,308.0,534,462,60,121.0,384,1,319,505,117,0,0,321,-1527,-27136,308,,,,,,,,,,,,
93283,1560695013120,1,2.5,2.44,3.18,2.48,5.04,0.76,-0.85,1.27,28,-11,44,1.14,5973,69,80,33,91,975,314.0,529,461,60,122.0,384,1,315,504,117,0,0,344,-1529,-24576,314,,,,,,,,,,,,
93303,1560695013140,0,2.48,2.44,3.18,2.48,5.05,0.79,-0.88,1.34,26,-13,43,1.18,6000,69,80,33,91,971,318.0,528,461,60,122.0,384,1,317,505,117,0,0,329,41,-23296,318,,,,,,,,,,,,
93323,1560695013160,-1,2.47,2.43,3.18,2.48,5.06,0.88,-0.91,1.38,23,-16,42,1.26,6032,69,80,33,91,968,319.0,533,461,60,122.0,384,1,318,505,117,0,0,315,20480,-12032,321,,,,,,,,,,,,
93343,1560695013180,2,2.44,2.44,3.18,2.47,5.04,0.93,-0.9,1.41,21,-18,41,1.29,6071,69,80,33,91,957,325.0,538,463,60,122.0,356,1,320,506,116,0,0,321,105,-31222,325,45.701317,4.912003,25.89,194.1,0,0.0,0,0.0,0.6767,1,0.44,1.5557
93363,1560695013200,3,2.43,2.44,3.19,2.45,5.04,0.96,-0.91,1.44,19,-19,38,1.33,6145,69,80,33,91,946,330.0,542,463,60,122.0,356,1,324,508,116,0,0,332,30720,2560,330,,,,,,,,,,,,
93383,1560695013220,6,2.41,2.43,3.19,2.45,5.04,0.93,-0.86,1.49,18,-21,35,1.26,6270,69,80,33,91,938,332.0,546,462,60,121.0,356,1,331,512,116,0,0,344,-29696,2560,332,,,,,,,,,,,,
93403,1560695013240,-1,2.4,2.43,3.21,2.44,5.05,0.78,-0.7,1.39,17,-18,34,1.05,6434,69,80,33,91,931,336.0,556,460,60,120.0,356,1,340,516,116,0,0,348,-28416,-14714,336,,,,,,,,,,,,
93423,1560695013260,1,2.4,2.44,3.2,2.45,5.07,0.76,-0.7,1.35,17,-14,33,1.04,6578,69,80,33,91,931,337.0,566,456,60,120.0,356,1,348,521,116,0,0,336,150,2811,337,,,,,,,,,,,,
93443,1560695013280,4,2.4,2.45,3.19,2.45,5.05,0.77,-0.63,1.25,15,-16,32,1.0,6639,69,80,33,91,931,342.0,577,457,60,121.0,383,1,352,523,131,0,0,345,-22016,3183,342,45.701309,4.911999,28.84,194.1,0,0.0,0,0.0,0.6783,1,0.44,1.5574
93463,1560695013299,3,2.39,2.44,3.17,2.44,5.05,0.59,-0.55,1.26,16,-13,30,0.81,6703,69,80,33,90,939,348.0,586,462,60,120.0,383,1,355,525,131,0,0,355,-32559,-6640,348,,,,,,,,,,,,
93483,1560695013319,5,2.39,2.42,3.17,2.44,5.05,0.71,-0.56,1.21,15,-13,27,0.9,6698,69,80,33,91,946,352.0,583,456,60,121.0,383,1,355,522,131,0,0,366,-31222,-14707,355,,,,,,,,,,,,
93503,1560695013339,-1,2.4,2.42,3.17,2.45,5.05,0.59,-0.46,1.17,15,-12,26,0.74,6720,69,80,33,91,950,356.0,590,460,60,120.0,383,1,356,525,131,0,0,366,6668,0,356,,,,,,,,,,,,
93523,1560695013359,5,2.38,2.4,3.17,2.44,5.05,0.67,-0.43,1.12,14,-11,25,0.8,6795,69,80,33,91,951,361.0,591,462,60,121.0,383,1,360,526,131,0,0,362,-30438,230,361,,,,,,,,,,,,
93543,1560695013379,1,2.39,2.4,3.16,2.43,5.05,0.58,-0.35,1.13,14,-9,24,0.67,6929,69,80,33,90,947,364.0,597,455,60,121.0,384,1,368,532,140,0,0,368,-30454,486,364,45.701302,4.911995,31.29,194.1,0,0.0,0,0.0,0.68,1,0.44,1.5591
93563,1560695013401,2,2.38,2.39,3.2,2.42,5.07,0.51,-0.31,1.12,13,-10,23,0.59,7025,69,80,33,90,941,367.0,597,462,60,120.0,384,1,373,536,140,0,0,376,2060,-6656,369,,,,,,,,,,,,
93583,1560695013421,2,2.38,2.38,3.22,2.41,5.04,0.66,-0.35,1.11,11,-10,22,0.75,7151,69,80,33,89,909,372.0,601,458,60,121.0,384,1,384,534,140,0,0,388,-14707,-19126,372,,,,,,,,,,,,
93603,1560695013441,-0,2.38,2.38,3.23,2.41,5.08,0.75,-0.36,1.15,12,-8,21,0.83,7347,69,80,33,88,876,375.0,607,458,60,121.0,384,1,398,533,140,0,0,392,-6405,-3866,375,,,,,,,,,,,,
93623,1560695013461,1,2.37,2.39,3.22,2.42,5.03,0.72,-0.38,1.16,11,-7,21,0.81,7488,69,80,33,87,847,379.0,611,458,60,121.0,384,1,408,530,140,0,0,394,0,-1562,379,,,,,,,,,,,,
93643,1560695013481,0,2.38,2.41,3.19,2.42,5.07,0.65,-0.44,1.17,12,-5,20,0.79,7637,69,80,33,86,819,385.0,613,458,60,121.0,394,1,417,526,152,0,0,390,-6656,1,385,45.701294,4.911991,33.64,194.1,0,0.0,0,0.0,0.6817,1,0.44,1.5607
93663,1560695013501,-1,2.38,2.46,3.16,2.42,5.06,0.77,-0.43,1.14,11,-6,19,0.88,7674,69,80,33,86,792,388.0,613,462,60,120.0,394,1,420,526,152,0,0,404,2278,-26615,388,,,,,,,,,,,,
93683,1560695013521,0,2.37,2.5,3.1,2.45,5.07,0.89,-0.46,1.08,10,-6,18,1.0,7709,69,80,33,84,765,394.0,612,461,60,120.0,394,1,420,510,152,0,0,414,-19126,2524,394,,,,,,,,,,,,
93703,1560695013541,1,2.37,2.49,3.12,2.45,5.05,0.94,-0.43,1.11,10,-6,15,1.03,7703,69,80,33,84,758,401.0,615,461,60,120.0,394,1,422,510,152,0,0,430,505,-21944,401,,,,,,,,,,,,
93723,1560695013561,4,2.37,2.47,3.13,2.44,5.08,0.81,-0.3,1.16,9,-9,14,0.86,7799,69,80,33,84,760,407.0,612,465,60,120.0,394,1,426,520,152,0,0,430,17144,-8165,409,,,,,,,,,,,,
93743,1560695013581,1,2.35,2.46,3.12,2.44,5.03,0.74,-0.3,1.14,9,-7,14,0.8,7971,70,80,33,83,760,413.0,614,460,60,121.0,375,1,435,513,155,0,0,421,6512,13552,413,45.701286,4.911985,35.46,194.1,0,0.0,0,0.0,0.6833,1,0.44,1.5624
93763,1560695013601,3,2.36,2.46,3.13,2.43,5.08,0.76,-0.43,1.11,9,-5,14,0.87,8099,71,80,33,81,761,417.0,622,458,60,121.0,375,1,436,504,155,0,0,425,1504,-3314,417,,,,,,,,,,,,
93783,1560695013621,1,2.36,2.47,3.12,2.43,5.07,0.63,-0.31,1.16,10,-5,14,0.7,8252,72,80,33,81,761,423.0,615,462,60,119.0,375,1,432,507,155,0,0,436,11560,20625,423,,,,,,,,,,,,
93803,1560695013641,4,2.35,2.46,3.14,2.43,5.04,0.59,-0.32,1.07,10,-7,14,0.67,8415,72,80,33,80,759,427.0,622,454,60,120.0,375,1,429,506,155,0,0,461,7154,-8985,430,,,,,,,,,,,,
93823,1560695013661,4,2.35,2.47,3.16,2.44,5.07,0.66,-0.32,1.15,9,-4,15,0.73,8589,73,80,33,79,761,436.0,631,458,60,120.0,375,1,425,497,155,0,0,467,-21792,2524,436,,,,,,,,,,,,
93843,1560695013681,3,2.36,2.49,3.15,2.48,5.04,0.63,-0.21,1.23,9,-5,14,0.66,8753,73,80,33,78,763,439.0,625,463,60,121.0,364,1,420,483,160,0,0,452,13552,-18108,439,45.701279,4.91198,37.75,194.1,0,0.0,0,0.0,0.685,1,0.45,1.564
93863,1560695013701,-0,2.35,2.53,3.1,2.48,5.04,0.37,0.0,1.14,10,-3,16,0.37,8856,74,80,33,78,766,442.0,634,460,60,120.0,364,1,418,483,160,0,0,452,-3314,-3210,446,,,,,,,,,,,,
93883,1560695013721,2,2.35,2.54,3.09,2.5,5.05,0.27,0.11,0.96,10,-2,16,0.29,8877,75,80,33,79,770,450.0,629,459,60,120.0,364,1,418,483,160,0,0,476,20625,-17956,450,,,,,,,,,,,,
93903,1560695013741,6,2.35,2.55,3.1,2.52,5.07,0.13,0.15,0.88,11,0,15,0.2,8911,76,80,33,79,785,456.0,625,456,60,120.0,364,1,417,497,160,0,0,491,26704,-23367,455,,,,,,,,,,,,
93923,1560695013761,5,2.35,2.53,3.11,2.52,5.05,0.19,0.07,0.92,10,-2,15,0.21,8945,77,80,33,79,813,462.0,630,467,60,120.0,364,1,416,497,160,0,0,497,10305,-899,462,,,,,,,,,,,,
93943,1560695013781,2,2.34,2.49,3.13,2.49,5.04,0.07,0.07,0.88,10,-1,13,0.09,9115,78,80,33,79,839,468.0,629,460,60,120.0,365,1,415,497,171,0,0,492,-9160,3580,471,45.701267,4.911974,40.4,194.1,0,0.0,0,0.0,0.6867,1,0.45,1.5657
93963,1560695013801,1,2.34,2.48,3.14,2.48,5.05,0.11,0.16,0.83,9,-0,14,0.2,9245,79,80,33,80,862,475.0,633,468,60,120.0,365,1,416,512,171,0,0,485,-3210,-9216,475,,,,,,,,,,,,
93983,1560695013821,2,2.34,2.47,3.16,2.45,5.07,0.07,0.27,0.8,9,2,15,0.28,9398,79,80,32,80,892,482.0,636,462,60,119.0,365,1,416,512,171,0,0,502,32033,11560,482,,,,,,,,,,,,
94003,1560695013841,6,2.34,2.48,3.13,2.46,5.06,0.21,0.16,0.86,9,1,13,0.26,9561,80,80,32,80,928,485.0,636,456,60,120.0,365,1,415,513,171,0,0,496,-23367,-3856,485,,,,,,,,,,,,
