"Interval"|"ms"|0|0|1,"Utc"|"ms"|0|0|1,"FB_p"|"bar"|0|300|50,"Volant"|"F"|0.0|300.0|50,"xFR"|"mm"|0.0|5.0|50,"xRR"|"mm"|0.0|5.0|50,"xFL"|"mm"|0.0|5.0|50,"xRL"|"mm"|0.0|5.0|50,"AccelX"|"G"|-3.0|3.0|50,"AccelY"|"G"|-3.0|3.0|50,"AccelZ"|"G"|-3.0|3.0|50,"Yaw"|"Deg/Sec"|-120|120|50,"Pitch"|"Deg/Sec"|-120|120|50,"Roll"|"Deg/Sec"|-120|120|50,"Gsum"|"G"|0.0|3.0|50,"RPM"|""|0|14000|50,"TPS"|"%"|0|100|50,"WaterTemp"|"?C"|0|300|50,"AirTemp"|"?C"|-1000|1000|50,"MAP"|"KPa"|0|255|50,"Lambda"|""|0|1024|50,"WheelSpeed"|"MPH"|0.0|150.0|50,"OilPress"|"PSI"|0|150|50,"FuelPress"|"PSI"|0|150|50,"OilTemp"|"F"|0|300|50,"Battery"|"Volts"|0.0|20.0|50,"FuelCon"|"L/h"|-1000|1000|50,"Gear"|""|0|10|50,"Advance"|"Deg"|-360|360|50,"Injection"|"ms"|-1000|1000|50,"FuelCon"|"L/100km"|-1000|1000|50,"LC_But_Pres"|""|-1000|1000|50,"LC_Active"|""|-1000|1000|50,"RD_Speed"|""|-1000|1000|50,"RUD_Speed"|""|-1000|1000|50,"LD_Speed"|""|-1000|1000|50,"LUD_Speed"|""|-1000|1000|50,"Latitude"|"Degrees"|-180.0|180.0|10,"Longitude"|"Degrees"|-180.0|180.0|10,"Speed"|"kph"|0.0|150.0|10,"Altitude"|"m"|0.0|4000.0|10,"LapCount"|""|0|0|10,"LapTime"|"Min"|0.0|0.0|10,"Sector"|""|0|0|10,"SectorTime"|"Min"|0.0|0.0|10,"ElapsedTime"|"Min"|0.0|0.0|10,"CurrentLap"|""|0|0|10,"Distance"|"km"|0.0|0.0|10,"SessionTime"|"Min"|0.0|0.0|10
27943,1560686919129,-2,2.22,2.05,3.17,1.85,2.72,0.74,-0.11,0.62,-0,1,-3,0.75,4887,17,67,33,58,502,0.0,542,460,60,119.0,0,1,297,313,56,0,0,0,250,250,0,45.700359,4.909455,0.0,193.2,0,0.0,-1,0.0,0.0,0,0.0,0.4657
27963,1560686919149,0,2.21,2.04,3.17,1.85,2.72,0.79,-0.08,0.59,-1,-1,-1,0.8,4899,17,67,33,57,502,0.0,542,458,60,122.0,0,1,297,313,56,0,0,0,250,250,0,,,,,,,,,,,,
27983,1560686919169,0,2.22,2.05,3.18,1.84,2.73,0.86,-0.01,0.64,-1,-3,-0,0.86,4813,17,67,33,57,502,0.0,545,456,60,122.0,0,1,297,308,56,0,0,0,250,250,0,,,,,,,,,,,,
28003,1560686919189,3,2.21,2.05,3.18,1.85,2.71,0.84,-0.01,0.67,1,-1,-1,0.84,4896,17,67,33,58,502,0.0,545,470,60,120.0,0,1,297,313,56,0,0,0,250,250,0,,,,,,,,,,,,
28023,1560686919209,0,2.2,2.05,3.18,1.85,2.72,0.8,-0.06,0.62,-0,0,-2,0.8,4808,17,67,33,58,502,0.0,536,461,60,119.0,0,1,297,313,56,0,0,0,250,250,0,,,,,,,,,,,,
28043,1560686919229,-0,2.21,2.06,3.18,1.86,2.72,0.75,-0.09,0.57,-1,-1,-1,0.76,4813,17,67,33,58,502,0.0,540,458,60,119.0,0,1,297,313,56,0,0,0,250,250,0,45.700359,4.909455,0.0,193.2,0,0.0,-1,0.0,0.0,0,0.0,0.4674
28063,1560686919249,-1,2.21,2.05,3.18,1.85,2.71,0.84,0.0,0.55,-1,-2,0,0.84,4791,17,67,33,58,502,0.0,536,461,60,122.0,0,1,296,312,56,0,0,0,250,250,0,,,,,,,,,,,,
28083,1560686919269,2,2.21,2.05,3.17,1.86,2.72,0.92,0.06,0.63,-1,-3,1,0.92,4789,17,67,33,58,502,0.0,529,460,60,121.0,0,1,296,312,56,0,0,0,250,250,0,,,,,,,,,,,,
28103,1560686919289,5,2.22,2.04,3.19,1.85,2.73,0.88,0.05,0.68,0,-1,-0,0.88,4846,17,67,33,58,502,0.0,537,472,60,121.0,0,1,297,311,56,0,0,0,250,250,0,,,,,,,,,,,,
28123,1560686919309,-3,2.21,2.05,3.18,1.85,2.72,0.83,-0.02,0.65,-0,-1,-1,0.83,4762,17,67,33,58,502,0.0,529,459,60,119.0,0,1,296,310,56,0,0,0,250,250,0,,,,,,,,,,,,
28143,1560686919329,0,2.2,2.05,3.18,1.85,2.72,0.76,-0.06,0.58,-1,-2,-1,0.76,4805,17,67,33,58,502,0.0,534,458,60,121.0,0,1,297,311,56,0,0,0,250,250,0,45.700359,4.909455,0.0,193.2,0,0.0,-1,0.0,0.0,0,0.0,0.469
28163,1560686919349,-0,2.22,2.04,3.18,1.85,2.73,0.84,0.02,0.57,-1,-2,1,0.84,4768,17,67,33,57,502,0.0,535,460,60,122.0,0,1,297,308,56,0,0,0,250,250,0,,,,,,,,,,,,
28183,1560686919369,3,2.21,2.04,3.18,1.85,2.72,0.94,0.07,0.64,-1,-3,1,0.94,4815,17,67,33,58,502,0.0,526,456,60,121.0,0,1,297,310,56,0,0,0,250,250,0,,,,,,,,,,,,
28203,1560686919389,5,2.21,2.04,3.18,1.85,2.72,0.92,0.08,0.68,1,-1,0,0.92,4778,17,67,33,58,502,0.0,534,470,60,120.0,0,1,296,308,56,0,0,0,250,250,0,,,,,,,,,,,,
28223,1560686919409,-1,2.22,2.05,3.18,1.86,2.72,0.87,0.01,0.66,1,1,-1,0.87,4854,17,67,33,58,503,0.0,533,461,60,119.0,0,1,297,308,56,0,0,0,250,250,0,,,,,,,,,,,,
28243,1560686919429,1,2.2,2.05,3.18,1.85,2.72,0.81,-0.04,0.6,-0,0,0,0.81,4846,17,67,33,58,503,0.0,539,458,60,119.0,0,1,297,308,56,0,0,0,250,250,0,45.700359,4.909455,0.0,193.2,0,0.0,-1,0.0,0.0,0,0.0,0.4707
28263,1560686919449,1,2.21,2.05,3.18,1.85,2.73,0.87,0.04,0.56,-0,-0,2,0.87,4799,17,67,33,57,503,0.0,543,461,60,121.0,0,1,297,301,56,0,0,0,250,250,0,,,,,,,,,,,,
28283,1560686919469,3,2.21,2.05,3.18,1.84,2.73,0.93,0.1,0.62,1,-2,1,0.94,4861,17,67,33,58,503,0.0,533,463,60,122.0,0,1,297,306,56,0,0,0,250,250,0,,,,,,,,,,,,
28303,1560686919489,5,2.22,2.04,3.18,1.85,2.72,0.86,0.08,0.69,2,1,-1,0.86,4822,17,67,33,58,502,0.0,538,472,60,121.0,0,1,297,306,56,0,0,0,250,250,0,,,,,,,,,,,,
28323,1560686919509,-2,2.21,2.05,3.18,1.84,2.73,0.81,0.02,0.66,1,1,-3,0.81,4834,17,67,33,58,502,0.0,534,458,60,119.0,0,1,297,306,56,0,0,0,250,250,0,,,,,,,,,,,,
28343,1560686919529,-2,2.22,2.05,3.17,1.85,2.72,0.79,0.01,0.6,0,-1,-3,0.79,4815,17,67,33,57,502,0.0,532,459,60,121.0,0,1,297,299,56,0,0,0,250,250,0,45.700359,4.909455,0.0,193.2,0,0.0,-1,0.0,0.0,0,0.0,0.4724
28363,1560686919549,-0,2.22,2.05,3.17,1.85,2.73,0.89,0.11,0.55,1,-1,-2,0.9,4812,17,67,33,58,502,0.0,537,464,60,121.0,0,1,297,304,56,0,0,0,250,250,0,,,,,,,,,,,,
28383,1560686919569,5,2.2,2.05,3.17,1.85,2.71,0.9,0.09,0.61,2,-0,-2,0.9,4885,17,67,33,58,502,0.0,539,461,60,121.0,0,1,297,304,56,0,0,0,250,250,0,,,,,,,,,,,,
28403,1560686919589,0,2.21,2.04,3.17,1.85,2.72,0.81,0.06,0.61,2,2,-2,0.81,4806,17,67,33,58,502,0.0,540,463,60,119.0,0,1,297,304,56,0,0,0,250,250,0,,,,,,,,,,,,
28423,1560686919608,-2,2.22,2.05,3.17,1.85,2.72,0.79,-0.01,0.61,0,1,-1,0.79,4871,17,67,33,58,502,0.0,539,452,60,121.0,0,1,297,304,56,0,0,0,250,250,0,,,,,,,,,,,,
28443,1560686919628,1,2.2,2.05,3.18,1.85,2.72,0.84,0.05,0.6,1,-2,-0,0.84,4815,17,67,33,58,502,0.0,537,460,60,121.0,0,1,297,304,56,0,0,0,250,250,0,45.700359,4.909455,0.0,193.2,0,0.0,-1,0.0,0.0,0,0.0,0.474
28463,1560686919648,4,2.21,2.04,3.17,1.85,2.72,0.79,0.04,0.6,2,-0,-0,0.79,4796,17,67,33,58,502,0.0,531,462,60,121.0,0,1,296,303,56,0,0,0,250,250,0,,,,,,,,,,,,
28483,1560686919668,4,2.21,2.05,3.17,1.86,2.72,0.71,-0.03,0.55,2,1,-1,0.71,4847,17,67,33,58,502,0.0,541,467,60,120.0,0,1,297,304,56,0,0,0,250,250,0,,,,,,,,,,,,
28503,1560686919688,-0,2.2,2.05,3.18,1.85,2.72,0.69,-0.1,0.6,1,2,0,0.7,4742,17,67,33,58,502,0.0,537,462,60,119.0,0,1,296,303,56,0,0,0,250,250,0,,,,,,,,,,,,
28523,1560686919708,0,2.21,2.05,3.17,1.86,2.72,0.76,-0.06,0.61,0,0,-0,0.77,4838,17,67,33,58,502,0.0,535,458,60,121.0,0,1,297,304,56,0,0,0,250,250,0,,,,,,,,,,,,
28543,1560686919728,-0,2.21,2.05,3.17,1.86,2.72,0.85,0.05,0.62,1,-2,-1,0.85,4801,17,67,33,58,502,0.0,536,462,60,122.0,0,1,297,304,55,0,0,0,250,250,0,45.700359,4.909455,0.0,193.2,0,0.0,-1,0.0,0.0,0,0.0,0.4757
28563,1560686919748,3,2.21,2.05,3.18,1.85,2.72,0.8,0.04,0.63,2,-0,-2,0.8,4785,17,67,33,58,502,0.0,526,464,60,121.0,0,1,296,303,55,0,0,0,250,250,0,,,,,,,,,,,,
28583,1560686919768,4,2.22,2.05,3.18,1.84,2.72,0.74,-0.04,0.58,2,2,-3,0.74,4821,17,67,33,58,502,0.0,533,463,60,121.0,0,1,297,304,55,0,0,0,250,250,0,,,,,,,,,,,,
28603,1560686919788,-0,2.22,2.04,3.18,1.85,2.72,0.7,-0.1,0.59,1,2,-2,0.71,4761,17,67,33,58,502,0.0,530,462,60,119.0,0,1,296,303,55,0,0,0,250,250,0,,,,,,,,,,,,
28623,1560686919808,-0,2.22,2.04,3.18,1.85,2.72,0.76,-0.05,0.58,0,1,-1,0.76,4846,17,67,33,57,502,0.0,531,451,60,121.0,0,1,297,304,55,0,0,0,250,250,0,,,,,,,,,,,,
28643,1560686919828,1,2.22,2.04,3.18,1.85,2.73,0.85,0.03,0.57,1,-2,0,0.85,4778,17,67,33,57,502,0.0,543,460,60,121.0,0,1,297,298,55,0,0,0,250,250,0,45.700359,4.909455,0.0,193.2,0,0.0,-1,0.0,0.0,0,0.0,0.4774
28663,1560686919848,1,2.22,2.05,3.18,1.85,2.72,0.81,0.02,0.6,1,-1,-0,0.81,4794,17,67,33,58,503,0.0,529,461,60,121.0,0,1,296,303,55,0,0,0,250,250,0,,,,,,,,,,,,
28683,1560686919868,4,2.21,2.05,3.17,1.86,2.72,0.72,-0.03,0.55,2,1,-1,0.72,4750,17,67,33,58,503,0.0,527,471,60,120.0,0,1,296,303,55,0,0,0,250,250,0,,,,,,,,,,,,
28703,1560686919888,-1,2.22,2.05,3.17,1.84,2.73,0.66,-0.07,0.55,1,2,-0,0.67,4705,17,67,33,58,503,0.0,524,466,60,120.0,0,1,296,303,55,0,0,0,250,250,0,,,,,,,,,,,,
28723,1560686919910,2,2.22,2.05,3.17,1.86,2.72,0.7,-0.06,0.6,0,2,-1,0.7,4702,17,67,33,58,503,0.0,520,458,60,120.0,0,1,296,303,55,0,0,0,250,250,0,,,,,,,,,,,,
28743,1560686919930,-2,2.22,2.05,3.17,1.85,2.72,0.76,-0.02,0.62,0,1,-1,0.76,4661,17,67,33,58,502,0.0,525,457,60,121.0,0,1,296,303,53,0,0,0,250,250,0,45.700359,4.909455,0.0,193.2,0,0.0,-1,0.0,0.0,0,0.0,0.479
28763,1560686919950,0,2.21,2.05,3.18,1.85,2.72,0.87,0.07,0.65,0,-1,-1,0.88,4784,17,67,33,58,502,0.0,524,458,60,121.0,0,1,296,303,53,0,0,0,250,250,0,,,,,,,,,,,,
28783,1560686919970,2,2.22,2.05,3.18,1.85,2.73,0.88,0.08,0.68,1,-2,-2,0.88,4722,17,67,33,58,502,0.0,525,460,60,122.0,0,1,296,303,53,0,0,0,250,250,0,,,,,,,,,,,,
28803,1560686919990,4,2.22,2.04,3.18,1.85,2.72,0.8,-0.0,0.69,2,-0,-3,0.8,4752,17,67,33,58,502,0.0,528,470,60,121.0,0,1,296,303,53,0,0,0,250,250,0,,,,,,,,,,,,
28823,1560686920005,5,2.21,2.05,3.18,1.85,2.73,0.73,-0.07,0.64,2,1,-3,0.74,4752,17,67,33,58,502,0.0,530,462,60,120.0,0,1,296,303,53,0,0,0,250,250,0,,,,,,,,,,,,
28843,1560686920025,-2,2.22,2.05,3.18,1.84,2.73,0.67,-0.11,0.6,0,1,-3,0.68,4743,17,67,33,58,502,0.0,526,458,60,119.0,0,1,296,303,54,0,0,0,250,250,0,45.700356,4.909449,0.0,201.2,0,0.0,-1,0.0,0.0,0,0.0,0.4807
28863,1560686920045,-2,2.21,2.05,3.18,1.84,2.73,0.75,-0.07,0.6,-0,-0,-1,0.75,4779,17,67,33,58,502,0.0,530,460,60,121.0,0,1,296,303,54,0,0,0,250,250,0,,,,,,,,,,,,
28883,1560686920065,0,2.21,2.05,3.18,1.85,2.72,0.84,0.03,0.6,-0,-3,1,0.84,4714,17,67,33,58,502,0.0,521,455,60,121.0,0,1,296,303,54,0,0,0,250,250,0,,,,,,,,,,,,
28903,1560686920085,2,2.21,2.05,3.18,1.86,2.72,0.88,0.05,0.64,1,-3,2,0.88,4740,17,67,33,58,502,0.0,529,464,60,121.0,0,1,296,303,54,0,0,0,250,250,0,,,,,,,,,,,,
28923,1560686920110,4,2.21,2.05,3.18,1.85,2.71,0.86,0.01,0.65,1,-3,1,0.86,4698,17,67,33,58,502,0.0,524,465,60,121.0,0,1,296,303,54,0,0,0,250,250,0,,,,,,,,,,,,
28943,1560686920130,5,2.21,2.05,3.18,1.85,2.72,0.74,-0.06,0.6,1,-2,-0,0.75,4702,17,67,33,59,502,0.0,520,466,60,120.0,0,1,296,310,53,0,0,0,250,250,0,45.700356,4.909449,0.0,201.2,0,0.0,-1,0.0,0.0,0,0.0,0.4824
28963,1560686920150,-1,2.21,2.05,3.18,1.85,2.73,0.71,-0.09,0.53,0,0,-0,0.72,4711,17,67,33,58,502,0.0,525,462,60,119.0,0,1,296,303,53,0,0,0,250,250,0,,,,,,,,,,,,
28983,1560686920170,0,2.21,2.04,3.17,1.85,2.72,0.71,-0.09,0.58,-1,-0,0,0.71,4649,17,67,33,58,502,0.0,519,463,60,119.0,0,1,296,303,53,0,0,0,250,250,0,,,,,,,,,,,,
29003,1560686920190,0,2.2,2.05,3.18,1.85,2.72,0.77,-0.08,0.64,-1,-1,-0,0.78,4715,17,67,33,58,502,0.0,527,455,60,121.0,0,1,296,303,53,0,0,0,250,250,0,,,,,,,,,,,,
29023,1560686920210,0,2.21,2.05,3.18,1.85,2.73,0.87,0.01,0.67,-1,-2,-1,0.87,4725,17,67,33,58,502,0.0,525,453,60,121.0,0,1,296,303,53,0,0,0,250,250,0,,,,,,,,,,,,
29043,1560686920230,0,2.22,2.05,3.17,1.85,2.73,0.93,0.06,0.66,0,-1,-2,0.93,4736,17,67,33,58,503,0.0,520,461,60,122.0,0,1,296,303,54,0,0,0,250,250,0,45.700356,4.909449,0.0,201.2,0,0.0,-1,0.0,0.0,0,0.0,0.484
29063,1560686920250,2,2.2,2.05,3.18,1.85,2.73,0.88,-0.0,0.66,1,-1,-2,0.88,4713,17,67,33,58,503,0.0,523,466,60,121.0,0,1,296,303,54,0,0,0,250,250,0,,,,,,,,,,,,
29083,1560686920270,3,2.21,2.05,3.18,1.86,2.72,0.8,-0.09,0.6,2,3,-2,0.8,4721,17,67,33,58,502,0.0,524,466,60,120.0,0,1,296,310,54,0,0,0,250,250,0,,,,,,,,,,,,
29103,1560686920290,1,2.21,2.05,3.18,1.84,2.72,0.75,-0.13,0.59,1,5,-2,0.76,4669,17,67,33,59,502,0.0,523,461,60,119.0,0,1,296,307,54,0,0,0,250,250,0,,,,,,,,,,,,
29123,1560686920310,-2,2.21,2.05,3.18,1.85,2.72,0.71,-0.15,0.59,0,5,-1,0.72,4602,17,67,33,59,502,0.0,513,460,60,119.0,0,1,296,307,54,0,0,0,250,250,0,,,,,,,,,,,,
29143,1560686920330,-0,2.21,2.04,3.18,1.85,2.72,0.73,-0.14,0.63,-0,5,-1,0.74,4702,17,67,33,59,503,0.0,507,457,60,120.0,0,1,296,308,53,0,0,0,250,250,0,45.700356,4.909449,0.0,201.2,0,0.0,-1,0.0,0.0,0,0.0,0.4857
29163,1560686920350,-0,2.2,2.05,3.18,1.85,2.72,0.78,-0.1,0.65,-1,2,-1,0.78,4636,17,67,33,58,503,0.0,520,452,60,120.0,0,1,296,301,53,0,0,0,250,250,0,,,,,,,,,,,,
29183,1560686920370,0,2.2,2.05,3.18,1.85,2.71,0.85,-0.03,0.65,-0,-0,-1,0.85,4722,17,67,33,58,503,0.0,517,456,60,120.0,0,1,296,301,53,0,0,0,250,250,0,,,,,,,,,,,,
29203,1560686920390,1,2.21,2.05,3.18,1.84,2.72,0.91,0.05,0.66,0,-2,-2,0.91,4749,17,67,33,58,503,0.0,517,463,60,122.0,0,1,296,301,53,0,0,0,250,250,0,,,,,,,,,,,,
29223,1560686920410,4,2.21,2.05,3.18,1.84,2.73,0.84,0.04,0.64,1,-1,-3,0.84,4706,17,67,33,58,503,0.0,521,463,60,121.0,0,1,296,301,53,0,0,0,250,250,0,,,,,,,,,,,,
29243,1560686920430,5,2.2,2.05,3.18,1.85,2.72,0.75,-0.05,0.58,1,0,-4,0.75,4813,17,67,33,58,503,0.0,521,470,60,120.0,0,1,297,303,54,0,0,0,250,250,0,45.700356,4.909449,0.0,201.2,0,0.0,-1,0.0,0.0,0,0.0,0.4874
29263,1560686920450,0,2.21,2.05,3.18,1.85,2.72,0.68,-0.11,0.53,-0,1,-2,0.69,4764,17,67,33,58,502,0.0,538,468,60,120.0,0,1,296,301,54,0,0,0,250,250,0,,,,,,,,,,,,
29283,1560686920470,-2,2.22,2.05,3.17,1.85,2.72,0.73,-0.11,0.53,-1,-1,-0,0.74,4812,17,67,33,58,503,0.0,533,453,60,121.0,0,1,297,303,54,0,0,0,250,250,0,,,,,,,,,,,,
29303,1560686920490,-0,2.22,2.05,3.18,1.86,2.72,0.84,-0.02,0.55,-0,-4,2,0.84,4784,17,67,33,58,503,0.0,525,461,60,122.0,0,1,296,301,54,0,0,0,250,250,0,,,,,,,,,,,,
29323,1560686920510,2,2.22,2.05,3.18,1.85,2.72,0.84,-0.01,0.55,1,-3,2,0.84,4767,17,67,33,59,503,0.0,525,466,60,122.0,0,1,296,308,54,0,0,0,250,250,0,,,,,,,,,,,,
29343,1560686920530,4,2.22,2.05,3.18,1.85,2.72,0.76,-0.06,0.56,1,-2,2,0.76,4786,17,67,33,59,502,0.0,525,470,60,120.0,0,1,296,306,56,0,0,0,250,250,0,45.700356,4.909449,0.0,201.2,0,0.0,-1,0.0,0.0,0,0.0,0.489
29363,1560686920550,1,2.21,2.05,3.19,1.84,2.73,0.7,-0.12,0.57,0,-0,2,0.71,4805,17,66,33,58,502,0.0,525,462,60,119.0,0,1,297,311,56,0,0,0,250,250,0,,,,,,,,,,,,
29383,1560686920570,-0,2.2,2.05,3.18,1.85,2.72,0.75,-0.1,0.6,-0,-2,1,0.75,4868,17,67,33,58,502,0.0,541,453,60,121.0,0,1,297,301,56,0,0,0,250,250,0,,,,,,,,,,,,
29403,1560686920590,-0,2.22,2.05,3.18,1.86,2.72,0.85,0.0,0.62,0,-3,1,0.85,4861,17,66,33,58,502,0.0,530,465,60,122.0,0,1,297,304,56,0,0,0,250,250,0,,,,,,,,,,,,
29423,1560686920609,3,2.22,2.05,3.18,1.85,2.72,0.8,-0.0,0.64,1,-0,-1,0.8,4901,17,66,33,58,502,0.0,542,461,60,122.0,0,1,297,306,56,0,0,0,250,250,0,,,,,,,,,,,,
29443,1560686920629,0,2.21,2.05,3.19,1.85,2.73,0.75,-0.11,0.58,0,0,-2,0.76,4890,17,66,33,58,502,0.0,541,463,60,119.0,0,1,297,304,56,0,0,0,250,250,0,45.700356,4.909449,0.0,201.2,0,0.0,-1,0.0,0.0,0,0.0,0.4907
29463,1560686920649,-1,2.22,2.04,3.18,1.85,2.72,0.77,-0.09,0.6,-1,-2,-0,0.77,4870,17,66,33,58,502,0.0,542,453,60,121.0,0,1,297,303,56,0,0,0,250,250,0,,,,,,,,,,,,
29483,1560686920669,2,2.21,2.05,3.18,1.84,2.73,0.88,-0.01,0.6,0,-2,0,0.88,4909,17,66,33,58,503,0.0,542,461,60,122.0,0,1,297,304,56,0,0,0,250,250,0,,,,,,,,,,,,
29503,1560686920689,4,2.22,2.05,3.17,1.86,2.73,0.85,-0.01,0.57,1,-1,-0,0.85,4834,17,66,33,58,502,0.0,542,467,60,122.0,0,1,297,303,56,0,0,0,250,250,0,,,,,,,,,,,,
29523,1560686920709,1,2.21,2.05,3.17,1.86,2.72,0.74,-0.14,0.56,-0,0,-1,0.76,4889,17,66,33,58,502,0.0,534,460,60,119.0,0,1,297,303,56,0,0,0,250,250,0,,,,,,,,,,,,
29543,1560686920729,-0,2.21,2.05,3.19,1.84,2.73,0.79,-0.11,0.53,-1,-0,1,0.8,4871,17,66,33,58,503,0.0,545,456,60,122.0,0,1,297,303,56,0,0,0,250,250,0,45.700356,4.909449,0.0,201.2,0,0.0,-1,0.0,0.0,0,0.0,0.4924
29563,1560686920749,2,2.21,2.05,3.18,1.85,2.72,0.9,-0.02,0.58,-0,-3,2,0.9,4836,17,66,33,58,503,0.0,538,460,60,122.0,0,1,297,303,56,0,0,0,250,250,0,,,,,,,,,,,,
29583,1560686920769,5,2.2,2.04,3.17,1.85,2.72,0.87,-0.02,0.65,1,-1,1,0.87,4881,17,66,33,59,502,0.0,539,471,60,121.0,0,1,296,307,56,0,0,0,250,250,0,,,,,,,,,,,,
29603,1560686920789,0,2.2,2.05,3.18,1.84,2.72,0.83,-0.08,0.62,0,1,-1,0.84,4789,17,66,32,59,502,0.0,537,468,60,120.0,0,1,296,306,56,0,0,0,250,250,0,,,,,,,,,,,,
29623,1560686920810,-2,2.22,2.05,3.17,1.85,2.72,0.76,-0.12,0.57,-1,-1,-1,0.77,4758,17,66,32,59,503,0.0,531,458,60,120.0,0,1,296,306,56,0,0,0,250,250,0,,,,,,,,,,,,
29643,1560686920830,0,2.21,2.04,3.18,1.86,2.72,0.85,-0.05,0.58,-1,-1,-0,0.85,4755,17,66,32,59,503,0.0,527,460,60,122.0,0,1,296,306,55,0,0,0,250,250,0,45.700356,4.909449,0.0,201.2,0,0.0,-1,0.0,0.0,0,0.0,0.494
29663,1560686920850,-1,2.21,2.05,3.18,1.84,2.73,0.96,0.04,0.59,-0,-3,1,0.96,4795,17,66,32,59,503,0.0,533,456,60,122.0,0,1,296,300,55,0,0,0,250,250,0,,,,,,,,,,,,
29683,1560686920870,4,2.2,2.05,3.18,1.85,2.73,0.92,0.15,0.61,1,-2,0,0.93,4739,17,66,32,59,503,0.0,522,470,60,122.0,0,1,296,306,55,0,0,0,250,250,0,,,,,,,,,,,,
29703,1560686920890,3,2.22,2.05,3.17,1.85,2.73,0.85,0.09,0.61,1,-0,-1,0.86,4770,17,66,32,59,503,0.0,524,467,60,121.0,0,1,296,304,55,0,0,0,250,250,0,,,,,,,,,,,,
29723,1560686920909,-2,2.21,2.05,3.18,1.85,2.72,0.76,-0.01,0.54,0,0,-1,0.76,4789,17,66,32,59,502,0.0,528,461,60,119.0,0,1,296,304,55,0,0,0,250,250,0,,,,,,,,,,,,
29743,1560686920929,-2,2.22,2.05,3.18,1.86,2.72,0.8,-0.03,0.52,-1,-0,1,0.81,4766,17,66,32,58,502,0.0,523,456,60,121.0,0,1,296,304,53,0,0,0,250,250,0,45.700356,4.909449,0.0,201.2,0,0.0,-1,0.0,0.0,0,0.0,0.4957
29763,1560686920949,0,2.21,2.05,3.17,1.86,2.72,0.86,0.04,0.56,-1,-4,2,0.86,4794,17,66,32,58,502,0.0,536,452,60,121.0,0,1,296,298,53,0,0,0,250,250,0,,,,,,,,,,,,
29783,1560686920969,1,2.21,2.05,3.17,1.85,2.72,0.9,0.08,0.61,1,-3,2,0.9,4786,17,66,32,59,502,0.0,527,463,60,122.0,0,1,296,298,53,0,0,0,250,250,0,,,,,,,,,,,,
29803,1560686920989,5,2.22,2.05,3.17,1.86,2.72,0.87,0.01,0.61,1,-1,0,0.87,4797,17,66,32,59,502,0.0,528,465,60,120.0,0,1,296,304,53,0,0,0,250,250,0,,,,,,,,,,,,
29823,1560686921003,-2,2.21,2.05,3.17,1.85,2.72,0.75,-0.06,0.58,-0,-0,-1,0.75,4748,17,66,32,59,502,0.0,534,465,60,119.0,0,1,296,303,53,0,0,0,250,250,0,,,,,,,,,,,,
29843,1560686921023,-0,2.2,2.04,3.18,1.85,2.72,0.76,-0.09,0.53,-1,-0,0,0.76,4820,17,66,32,59,502,0.0,526,458,60,121.0,0,1,296,304,55,0,0,0,250,250,0,45.700356,4.909449,0.0,201.2,0,0.0,-1,0.0,0.0,0,0.0,0.4974
29863,1560686921043,-0,2.21,2.04,3.18,1.85,2.72,0.84,-0.03,0.6,-1,-4,1,0.84,4778,17,66,32,59,502,0.0,531,459,60,122.0,0,1,296,303,55,0,0,0,250,250,0,,,,,,,,,,,,
29883,1560686921063,0,2.22,2.05,3.17,1.85,2.72,0.91,0.04,0.64,0,-3,0,0.91,4801,17,66,32,59,502,0.0,533,468,60,122.0,0,1,296,304,55,0,0,0,250,250,0,,,,,,,,,,,,
29903,1560686921083,5,2.21,2.05,3.19,1.84,2.72,0.9,0.02,0.66,1,-1,-1,0.9,4770,17,66,32,59,502,0.0,525,468,60,122.0,0,1,296,301,55,0,0,0,250,250,0,,,,,,,,,,,,
29923,1560686921109,0,2.2,2.05,3.18,1.85,2.71,0.77,-0.07,0.63,0,1,-3,0.77,4802,17,66,32,59,502,0.0,534,463,60,120.0,0,1,296,301,55,0,0,0,250,250,0,,,,,,,,,,,,
29943,1560686921129,-1,2.21,2.05,3.18,1.86,2.72,0.76,-0.13,0.58,-1,2,-2,0.77,4836,17,66,32,59,503,0.0,533,457,60,120.0,0,1,296,302,55,0,0,0,250,250,0,45.700356,4.909449,0.0,201.2,0,0.0,-1,0.0,0.0,0,0.0,0.499
29963,1560686921149,-2,2.22,2.05,3.17,1.85,2.72,0.82,-0.09,0.61,-1,-1,1,0.83,4766,17,66,32,59,503,0.0,525,455,60,122.0,0,1,296,295,55,0,0,0,250,250,0,,,,,,,,,,,,
29983,1560686921169,3,2.21,2.05,3.18,1.85,2.72,0.9,-0.02,0.64,-0,-2,1,0.9,4848,17,66,32,59,503,0.0,534,461,60,122.0,0,1,296,302,55,0,0,0,250,250,0,,,,,,,,,,,,
30003,1560686921189,6,2.22,2.05,3.18,1.85,2.72,0.88,-0.05,0.64,0,-1,0,0.88,4802,17,66,32,59,502,0.0,525,467,60,122.0,0,1,296,302,55,0,0,0,250,250,0,,,,,,,,,,,,
30023,1560686921209,-0,2.21,2.05,3.18,1.86,2.73,0.77,-0.13,0.63,-0,0,-1,0.78,4780,17,66,32,59,502,0.0,533,464,60,119.0,0,1,296,299,55,0,0,0,250,250,0,,,,,,,,,,,,
30043,1560686921229,-0,2.2,2.05,3.18,1.85,2.72,0.77,-0.16,0.59,-1,-0,-0,0.79,4849,17,66,32,59,502,0.0,535,458,60,121.0,0,1,296,300,54,0,0,0,250,250,0,45.700356,4.909449,0.0,201.2,0,0.0,-1,0.0,0.0,0,0.0,0.5007
30063,1560686921249,1,2.21,2.05,3.18,1.86,2.72,0.87,-0.07,0.63,-1,-4,0,0.87,4805,17,66,32,58,502,0.0,526,449,60,122.0,0,1,297,300,54,0,0,0,250,250,0,,,,,,,,,,,,
30083,1560686921269,4,2.21,2.04,3.18,1.85,2.73,0.93,-0.0,0.67,0,-3,-1,0.93,4847,17,66,32,59,502,0.0,533,461,60,122.0,0,1,296,300,54,0,0,0,250,250,0,,,,,,,,,,,,
30103,1560686921289,4,2.22,2.05,3.18,1.85,2.73,0.87,-0.04,0.7,0,-1,-3,0.88,4849,17,66,32,59,502,0.0,534,464,60,120.0,0,1,296,300,54,0,0,0,250,250,0,,,,,,,,,,,,
30123,1560686921309,-0,2.21,2.04,3.18,1.86,2.72,0.78,-0.14,0.64,-1,-1,-3,0.79,4857,17,66,32,59,502,0.0,537,456,60,120.0,0,1,296,300,54,0,0,0,250,250,0,,,,,,,,,,,,
30143,1560686921329,-0,2.21,2.05,3.18,1.86,2.73,0.85,-0.11,0.6,-1,-1,-1,0.85,4843,17,66,32,58,502,0.0,538,456,60,121.0,0,1,297,292,55,0,0,0,250,250,0,45.700356,4.909449,0.0,201.2,0,0.0,-1,0.0,0.0,0,0.0,0.5024
30163,1560686921349,3,2.21,2.04,3.18,1.85,2.73,0.95,-0.03,0.61,-0,-4,0,0.95,4856,17,66,32,59,502,0.0,532,455,60,122.0,0,1,296,298,55,0,0,0,250,250,0,,,,,,,,,,,,
30183,1560686921369,6,2.21,2.04,3.17,1.85,2.72,0.89,-0.05,0.67,0,-1,0,0.9,4871,17,66,32,59,502,0.0,537,472,60,120.0,0,1,296,298,55,0,0,0,250,250,0,,,,,,,,,,,,
30203,1560686921389,0,2.21,2.04,3.18,1.85,2.72,0.85,-0.12,0.67,-0,0,-0,0.86,4849,17,66,32,59,502,0.0,541,460,60,119.0,0,1,296,297,55,0,0,0,250,250,0,,,,,,,,,,,,
30223,1560686921409,0,2.21,2.04,3.17,1.85,2.72,0.82,-0.11,0.64,-1,-1,-0,0.82,4836,17,66,32,59,502,0.0,535,461,60,122.0,0,1,296,297,55,0,0,0,250,250,0,,,,,,,,,,,,
30243,1560686921429,0,2.22,2.05,3.17,1.86,2.73,0.93,0.01,0.59,0,-2,1,0.93,4834,17,66,32,59,502,0.0,533,461,60,121.0,0,1,296,297,54,0,0,0,250,250,0,45.700356,4.909449,0.0,201.2,0,0.0,-1,0.0,0.0,0,0.0,0.504
30263,1560686921449,5,2.21,2.04,3.18,1.85,2.72,0.84,-0.05,0.59,1,-1,-0,0.84,4820,17,66,32,59,502,0.0,535,470,60,121.0,0,1,296,297,54,0,0,0,250,250,0,,,,,,,,,,,,
30283,1560686921469,-1,2.21,2.05,3.17,1.86,2.72,0.75,-0.12,0.59,1,1,-1,0.76,4842,17,66,32,59,502,0.0,532,463,60,119.0,0,1,296,297,54,0,0,0,250,250,0,,,,,,,,,,,,
30303,1560686921489,-2,2.22,2.05,3.17,1.85,2.72,0.77,-0.12,0.64,-0,1,-1,0.78,4843,17,66,32,59,503,0.0,537,453,60,121.0,0,1,296,297,54,0,0,0,250,250,0,,,,,,,,,,,,
30323,1560686921509,-1,2.21,2.04,3.19,1.85,2.72,0.87,-0.03,0.62,-0,-3,-1,0.87,4822,17,66,32,59,503,0.0,537,456,60,121.0,0,1,296,295,54,0,0,0,250,250,0,,,,,,,,,,,,
30343,1560686921529,3,2.21,2.05,3.17,1.86,2.72,0.86,-0.01,0.63,1,-2,-1,0.86,4837,17,66,32,59,503,0.0,530,460,60,122.0,0,1,296,295,53,0,0,0,250,250,0,45.700356,4.909449,0.0,201.2,0,0.0,-1,0.0,0.0,0,0.0,0.5057
30363,1560686921549,-2,2.22,2.05,3.17,1.85,2.72,0.77,-0.09,0.59,1,1,-2,0.77,4894,17,66,32,59,503,0.0,538,463,60,120.0,0,1,296,295,53,0,0,0,250,250,0,,,,,,,,,,,,
30383,1560686921569,-3,2.21,2.04,3.17,1.83,2.72,0.78,-0.14,0.63,0,2,-0,0.79,4852,17,66,32,59,503,0.0,542,458,60,120.0,0,1,296,295,53,0,0,0,250,250,0,,,,,,,,,,,,
30403,1560686921589,0,2.2,2.05,3.18,1.86,2.72,0.87,-0.05,0.64,0,0,1,0.88,4893,17,66,32,59,503,0.0,535,451,60,121.0,0,1,296,295,53,0,0,0,250,250,0,,,,,,,,,,,,
30423,1560686921610,4,2.21,2.05,3.18,1.84,2.73,0.88,-0.01,0.64,1,-1,0,0.88,4893,17,66,32,59,502,0.0,543,468,60,122.0,0,1,296,295,53,0,0,0,250,250,0,,,,,,,,,,,,
30443,1560686921630,1,2.21,2.05,3.18,1.84,2.72,0.77,-0.13,0.63,1,1,-1,0.78,4860,17,66,32,59,502,0.0,537,463,60,120.0,0,1,296,295,53,0,0,0,250,250,0,45.700356,4.909449,0.0,201.2,0,0.0,-1,0.0,0.0,0,0.0,0.5074
30463,1560686921650,0,2.21,2.05,3.17,1.86,2.72,0.79,-0.13,0.58,-0,1,-1,0.8,4927,17,66,32,59,502,0.0,539,463,60,120.0,0,1,296,293,53,0,0,0,250,250,0,,,,,,,,,,,,
30483,1560686921670,-1,2.21,2.05,3.18,1.86,2.72,0.88,-0.03,0.61,-0,-2,1,0.88,4844,17,66,32,59,502,0.0,538,452,60,122.0,0,1,296,293,53,0,0,0,250,250,0,,,,,,,,,,,,
30503,1560686921690,2,2.22,2.05,3.17,1.85,2.72,0.86,-0.03,0.69,1,-2,-0,0.86,4922,17,66,32,59,502,0.0,532,471,60,122.0,0,1,296,293,53,0,0,0,250,250,0,,,,,,,,,,,,
30523,1560686921708,-0,2.21,2.05,3.18,1.85,2.72,0.8,-0.1,0.66,1,0,-2,0.81,4880,17,66,32,59,502,0.0,546,463,60,120.0,0,1,296,291,53,0,0,0,250,250,0,,,,,,,,,,,,
30543,1560686921728,-1,2.21,2.05,3.18,1.86,2.72,0.78,-0.09,0.61,-0,-0,-2,0.79,4900,17,66,32,59,502,0.0,541,460,60,121.0,0,1,296,291,52,0,0,0,250,250,0,45.700356,4.909449,0.0,201.2,0,0.0,-1,0.0,0.0,0,0.0,0.509
30563,1560686921748,-0,2.22,2.05,3.18,1.85,2.72,0.9,0.02,0.54,0,-2,0,0.9,4921,17,66,32,58,502,0.0,539,458,60,122.0,0,1,297,291,52,0,0,0,250,250,0,,,,,,,,,,,,
30583,1560686921768,4,2.21,2.04,3.18,1.85,2.72,0.83,-0.01,0.6,1,-2,-0,0.83,4866,17,66,32,59,502,0.0,538,468,60,121.0,0,1,296,291,52,0,0,0,250,250,0,,,,,,,,,,,,
30603,1560686921788,0,2.22,2.05,3.17,1.86,2.72,0.72,-0.03,0.58,1,1,0,0.72,4876,17,66,32,59,502,0.0,541,468,60,119.0,0,1,296,291,52,0,0,0,250,250,0,,,,,,,,,,,,
30623,1560686921808,0,2.2,2.06,3.18,1.85,2.73,0.73,0.02,0.58,-0,1,0,0.73,4922,17,66,32,59,502,0.0,539,458,60,121.0,0,1,296,291,52,0,0,0,250,250,0,,,,,,,,,,,,
30643,1560686921828,2,2.21,2.05,3.18,1.86,2.72,0.83,0.1,0.58,1,-2,1,0.84,4907,17,66,32,59,502,0.0,547,460,60,121.0,0,1,296,290,53,0,0,0,250,250,0,45.700356,4.909449,0.0,201.2,0,0.0,-1,0.0,0.0,0,0.0,0.5107
30663,1560686921848,5,2.22,2.05,3.18,1.85,2.73,0.77,0.04,0.62,1,-0,-0,0.77,4910,17,66,32,59,502,0.0,543,463,60,120.0,0,1,296,290,53,0,0,0,250,250,0,,,,,,,,,,,,
30683,1560686921868,-1,2.22,2.05,3.18,1.85,2.72,0.73,-0.06,0.56,0,1,-1,0.73,4926,17,66,32,59,502,0.0,540,473,60,120.0,0,1,296,290,53,0,0,0,250,250,0,,,,,,,,,,,,
30703,1560686921888,-2,2.22,2.05,3.17,1.86,2.72,0.81,0.01,0.6,-1,-0,1,0.81,4919,17,66,32,59,503,0.0,546,453,60,121.0,0,1,296,290,53,0,0,0,250,250,0,,,,,,,,,,,,
30723,1560686921910,1,2.22,2.05,3.18,1.84,2.73,0.85,0.02,0.68,1,-1,0,0.85,4903,17,66,32,59,502,0.0,543,467,60,122.0,0,1,296,290,53,0,0,0,250,250,0,,,,,,,,,,,,
30743,1560686921930,6,2.22,2.04,3.18,1.85,2.73,0.77,-0.02,0.65,1,0,-1,0.77,4853,17,66,32,59,502,0.0,539,465,60,120.0,0,1,296,290,53,0,0,0,250,250,0,45.700356,4.909449,0.0,201.2,0,0.0,-1,0.0,0.0,0,0.0,0.5124
30763,1560686921950,-2,2.22,2.05,3.17,1.85,2.72,0.71,-0.07,0.6,-0,1,-2,0.71,4870,17,66,32,59,502,0.0,548,464,60,119.0,0,1,296,288,53,0,0,0,250,250,0,,,,,,,,,,,,
30783,1560686921970,0,2.22,2.04,3.18,1.85,2.73,0.81,0.04,0.55,-0,-0,-0,0.81,4884,17,66,32,59,503,0.0,536,461,60,121.0,0,1,296,288,53,0,0,0,250,250,0,,,,,,,,,,,,
30803,1560686921990,4,2.22,2.05,3.18,1.85,2.72,0.84,0.0,0.64,1,-2,-0,0.84,4894,17,66,32,59,502,0.0,539,461,60,121.0,0,1,296,286,53,0,0,0,250,250,0,,,,,,,,,,,,
30823,1560686922002,0,2.21,2.05,3.18,1.86,2.73,0.76,-0.06,0.68,1,0,-1,0.77,4868,17,66,32,59,502,0.0,545,464,60,120.0,0,1,296,286,53,0,0,0,250,250,0,,,,,,,,,,,,
30843,1560686922022,-2,2.22,2.05,3.17,1.85,2.73,0.77,-0.11,0.67,-0,-0,-1,0.78,4947,17,66,32,59,502,0.0,535,453,60,121.0,0,1,296,286,53,0,0,0,250,250,0,45.700356,4.909449,0.0,201.2,0,0.0,-1,0.0,0.0,0,0.0,0.514
30863,1560686922042,1,2.21,2.04,3.18,1.85,2.73,0.86,0.01,0.62,-0,-2,0,0.86,4905,17,66,32,58,503,0.0,539,464,60,122.0,0,1,297,281,53,0,0,0,250,250,0,,,,,,,,,,,,
30883,1560686922062,5,2.21,2.05,3.17,1.85,2.72,0.81,0.01,0.63,1,-1,0,0.81,4981,17,66,32,59,502,0.0,542,462,60,122.0,0,1,296,281,53,0,0,0,250,250,0,,,,,,,,,,,,
30903,1560686922082,0,2.21,2.05,3.18,1.84,2.73,0.78,-0.1,0.58,0,-0,-0,0.78,4992,17,66,32,58,502,0.0,549,463,60,120.0,0,1,297,280,53,0,0,0,250,250,0,,,,,,,,,,,,
30923,1560686922108,-1,2.22,2.05,3.18,1.84,2.73,0.86,-0.03,0.6,-1,-2,1,0.86,4965,17,66,32,58,503,0.0,548,455,60,122.0,0,1,297,280,53,0,0,0,250,250,0,,,,,,,,,,,,
30943,1560686922128,1,2.21,2.05,3.18,1.84,2.73,0.87,-0.06,0.66,1,-2,-0,0.87,5009,17,66,32,58,502,0.0,551,470,60,122.0,0,1,297,281,53,0,0,0,250,250,0,45.700356,4.909449,0.0,201.2,0,0.0,-1,0.0,0.0,0,0.0,0.5157
30963,1560686922148,0,2.21,2.05,3.18,1.84,2.73,0.79,-0.11,0.62,-0,-1,-1,0.8,5012,17,66,32,58,502,0.0,548,465,60,120.0,0,1,298,279,53,0,0,0,250,250,0,,,,,,,,,,,,
30983,1560686922168,-0,2.21,2.05,3.17,1.85,2.72,0.84,-0.02,0.53,-0,-2,-0,0.84,5012,17,66,32,58,502,0.0,550,462,60,122.0,0,1,298,279,53,0,0,0,250,250,0,,,,,,,,,,,,
31003,1560686922188,2,2.22,2.05,3.18,1.84,2.73,0.83,-0.01,0.51,1,-1,-0,0.83,5010,17,66,32,58,502,0.0,552,465,60,121.0,0,1,297,279,53,0,0,0,250,250,0,,,,,,,,,,,,
31023,1560686922210,-0,2.22,2.04,3.18,1.85,2.72,0.76,-0.13,0.52,-0,-1,0,0.77,5013,17,66,32,58,502,0.0,549,470,60,120.0,0,1,298,278,53,0,0,0,250,250,0,,,,,,,,,,,,
31043,1560686922230,1,2.22,2.04,3.18,1.85,2.73,0.85,-0.03,0.56,-1,-2,2,0.85,5029,17,66,32,58,502,0.0,556,455,60,122.0,0,1,299,277,53,0,0,0,250,250,0,45.700356,4.909449,0.0,201.2,0,0.0,-1,0.0,0.0,0,0.0,0.5174
31063,1560686922250,6,2.21,2.04,3.18,1.85,2.72,0.85,-0.08,0.6,1,-0,-0,0.85,4996,17,66,32,58,502,0.0,555,466,60,122.0,0,1,297,276,53,0,0,0,250,250,0,,,,,,,,,,,,
31083,1560686922270,-1,2.21,2.05,3.18,1.86,2.72,0.78,-0.13,0.61,-0,-1,-1,0.79,5070,17,66,32,58,502,0.0,554,457,60,120.0,0,1,303,277,53,0,0,0,250,250,0,,,,,,,,,,,,
31103,1560686922290,2,2.22,2.04,3.18,1.85,2.72,0.86,0.01,0.51,0,-1,-0,0.86,5048,17,66,32,58,502,0.0,560,461,60,122.0,0,1,301,276,53,0,0,0,250,250,0,,,,,,,,,,,,
31123,1560686922310,-0,2.21,2.05,3.18,1.85,2.72,0.77,-0.04,0.55,1,0,-1,0.77,5075,17,66,32,58,502,0.0,553,462,60,120.0,0,1,303,276,53,0,0,0,250,250,0,,,,,,,,,,,,
31143,1560686922330,1,2.21,2.05,3.17,1.86,2.72,0.79,-0.08,0.55,-0,-1,0,0.79,5082,17,66,32,57,502,0.0,556,458,60,121.0,0,1,304,271,52,0,0,0,250,250,0,45.700356,4.909449,0.0,201.2,0,0.0,-1,0.0,0.0,0,0.0,0.519
31163,1560686922350,3,2.22,2.05,3.18,1.85,2.72,0.85,-0.03,0.62,1,-2,1,0.85,5085,17,66,32,57,502,0.0,565,463,60,121.0,0,1,305,271,52,0,0,0,250,250,0,,,,,,,,,,,,
31183,1560686922370,-2,2.21,2.05,3.17,1.86,2.73,0.78,-0.09,0.59,-0,-0,0,0.78,5118,17,66,32,57,502,0.0,565,466,60,120.0,0,1,308,269,52,0,0,0,250,250,0,,,,,,,,,,,,
31203,1560686922390,3,2.21,2.05,3.18,1.86,2.73,0.85,0.03,0.55,0,-2,0,0.85,5135,17,66,32,57,502,0.0,563,451,60,122.0,0,1,309,269,52,0,0,0,250,250,0,,,,,,,,,,,,
31223,1560686922410,0,2.2,2.06,3.18,1.85,2.73,0.8,-0.02,0.58,0,-1,-1,0.8,5117,17,66,32,57,502,0.0,563,464,60,120.0,0,1,307,269,52,0,0,0,250,250,0,,,,,,,,,,,,
31243,1560686922430,0,2.22,2.04,3.18,1.85,2.73,0.83,-0.04,0.55,-1,-1,-1,0.84,5141,17,66,32,56,502,0.0,565,458,60,122.0,0,1,310,263,52,0,0,0,250,250,0,45.700356,4.909449,0.0,201.2,0,0.0,-1,0.0,0.0,0,0.0,0.5207
31263,1560686922450,4,2.22,2.05,3.18,1.84,2.74,0.84,-0.01,0.58,1,-1,0,0.84,5163,17,66,32,57,502,0.0,561,463,60,121.0,0,1,311,263,52,0,0,0,250,250,0,,,,,,,,,,,,
31283,1560686922470,-0,2.22,2.04,3.18,1.85,2.73,0.79,-0.09,0.58,-1,-1,0,0.8,5203,17,66,32,56,502,0.0,570,462,60,120.0,0,1,315,264,52,0,0,0,250,250,0,,,,,,,,,,,,
31303,1560686922490,2,2.22,2.04,3.17,1.85,2.71,0.86,-0.06,0.62,1,-2,0,0.86,5159,17,66,32,56,502,0.0,570,458,60,121.0,0,1,311,263,52,0,0,0,250,250,0,,,,,,,,,,,,
31323,1560686922510,-0,2.21,2.05,3.18,1.85,2.73,0.8,-0.12,0.59,-1,-0,-0,0.81,5176,17,66,32,56,502,0.0,567,461,60,120.0,0,1,313,263,52,0,0,0,250,250,0,,,,,,,,,,,,
31343,1560686922530,4,2.23,2.05,3.18,1.85,2.73,0.86,-0.01,0.5,0,-2,-0,0.86,5198,17,66,32,56,502,0.0,568,461,60,122.0,0,1,315,262,51,0,0,0,250,250,0,45.700356,4.909449,0.0,201.2,0,0.0,-1,0.0,0.0,0,0.0,0.5224
31363,1560686922550,-2,2.23,2.05,3.18,1.85,2.72,0.79,-0.07,0.48,-0,0,-1,0.79,5219,17,66,32,56,502,0.0,567,461,60,119.0,0,1,316,263,51,0,0,0,250,250,0,,,,,,,,,,,,
31383,1560686922570,4,2.22,2.04,3.18,1.85,2.73,0.88,0.04,0.44,1,-2,0,0.88,5237,17,66,32,56,502,0.0,563,463,60,122.0,0,1,318,261,51,0,0,0,250,250,0,,,,,,,,,,,,
31403,1560686922590,-1,2.23,2.05,3.18,1.85,2.73,0.74,-0.04,0.51,-0,0,-0,0.74,5195,17,66,32,56,502,0.0,580,463,60,120.0,0,1,314,260,51,0,0,0,250,250,0,,,,,,,,,,,,
31423,1560686922609,1,2.23,2.05,3.18,1.85,2.72,0.87,0.05,0.49,0,-3,2,0.87,5228,17,66,32,56,502,0.0,576,462,60,122.0,0,1,317,258,51,0,0,0,250,250,0,,,,,,,,,,,,
31443,1560686922629,-2,2.23,2.05,3.18,1.85,2.73,0.76,-0.02,0.61,0,-0,0,0.76,5189,17,66,32,56,502,0.0,571,462,60,119.0,0,1,315,260,51,0,0,0,250,250,0,45.700356,4.909449,0.0,201.2,0,0.0,-1,0.0,0.0,0,0.0,0.524
31463,1560686922649,1,2.22,2.05,3.18,1.85,2.73,0.86,0.03,0.61,-0,-2,1,0.86,5215,17,66,32,55,502,0.0,570,456,60,121.0,0,1,316,258,51,0,0,0,250,250,0,,,,,,,,,,,,
31483,1560686922669,-1,2.22,2.05,3.17,1.86,2.73,0.78,0.0,0.64,0,-0,-1,0.78,5193,17,66,32,56,502,0.0,581,473,60,120.0,0,1,314,261,51,0,0,0,250,250,0,,,,,,,,,,,,
31503,1560686922689,1,2.22,2.04,3.18,1.85,2.72,0.83,-0.0,0.61,-0,-2,-1,0.83,5218,17,66,32,55,502,0.0,568,452,60,120.0,0,1,316,258,51,0,0,0,250,250,0,,,,,,,,,,,,
31523,1560686922705,1,2.21,2.05,3.18,1.85,2.72,0.81,-0.03,0.62,1,-1,-1,0.81,5196,17,66,32,55,502,0.0,575,466,60,120.0,0,1,314,257,51,0,0,0,250,250,0,,,,,,,,,,,,
31543,1560686922725,1,2.22,2.04,3.18,1.85,2.73,0.84,-0.06,0.57,-0,-1,-0,0.84,5211,17,66,32,55,502,0.0,578,456,60,121.0,0,1,316,258,50,0,0,0,250,250,0,45.700356,4.909449,0.0,201.2,0,0.0,-1,0.0,0.0,0,0.0,0.5257
31563,1560686922745,0,2.22,2.05,3.17,1.85,2.73,0.8,-0.08,0.64,1,-1,-0,0.81,5256,17,66,32,55,502,0.0,576,463,60,120.0,0,1,320,258,50,0,0,0,250,250,0,,,,,,,,,,,,
31583,1560686922765,1,2.21,2.05,3.18,1.85,2.72,0.84,-0.12,0.67,-0,-1,0,0.85,5233,17,66,32,55,502,0.0,575,462,60,121.0,0,1,318,258,50,0,0,0,250,250,0,,,,,,,,,,,,
31603,1560686922785,-0,2.23,2.05,3.18,1.84,2.74,0.83,-0.12,0.74,1,-1,-1,0.84,5275,17,66,32,55,502,0.0,581,462,60,120.0,0,1,323,258,50,0,0,0,250,250,0,,,,,,,,,,,,
31623,1560686922809,-2,2.23,2.05,3.17,1.85,2.72,0.86,-0.16,0.73,-0,-2,-0,0.87,5217,17,66,32,55,502,0.0,581,454,60,122.0,0,1,316,258,50,0,0,0,250,250,0,,,,,,,,,,,,
31643,1560686922829,0,2.22,2.05,3.17,1.86,2.73,0.85,-0.16,0.72,1,-1,-2,0.86,5247,17,66,32,55,502,0.0,576,470,60,120.0,0,1,319,258,51,0,0,0,250,250,0,45.700356,4.909449,0.0,201.2,0,0.0,-1,0.0,0.0,0,0.0,0.5274
31663,1560686922849,0,2.21,2.04,3.18,1.85,2.73,0.83,-0.2,0.7,-1,-2,-2,0.86,5231,17,66,32,55,502,0.0,578,457,60,120.0,0,1,317,258,51,0,0,0,250,250,0,,,,,,,,,,,,
31683,1560686922869,2,2.22,2.05,3.18,1.84,2.73,0.85,-0.18,0.63,1,-1,-1,0.87,5255,17,66,32,55,502,0.0,575,466,60,120.0,0,1,319,258,51,0,0,0,250,250,0,,,,,,,,,,,,
31703,1560686922889,0,2.22,2.05,3.18,1.86,2.73,0.85,-0.22,0.62,-1,-1,-1,0.87,5235,17,66,32,55,502,0.0,572,459,60,122.0,0,1,318,258,51,0,0,0,250,250,0,,,,,,,,,,,,
31723,1560686922909,-0,2.22,2.05,3.17,1.85,2.73,0.84,-0.19,0.65,1,-1,0,0.86,5230,17,66,32,55,502,0.0,580,461,60,121.0,0,1,317,258,51,0,0,0,250,250,0,,,,,,,,,,,,
31743,1560686922929,0,2.23,2.05,3.17,1.86,2.72,0.82,-0.23,0.67,-1,-1,0,0.85,5252,17,66,32,55,502,0.0,580,461,60,121.0,0,1,319,258,51,0,0,0,250,250,0,45.700356,4.909449,0.0,201.2,0,0.0,-1,0.0,0.0,0,0.0,0.529
31763,1560686922949,5,2.23,2.04,3.18,1.85,2.73,0.85,-0.18,0.69,1,-0,-0,0.87,5201,17,66,32,55,502,0.0,569,461,60,121.0,0,1,315,258,51,0,0,0,250,250,0,,,,,,,,,,,,
31783,1560686922969,0,2.22,2.04,3.17,1.85,2.73,0.83,-0.24,0.68,-1,-1,-0,0.86,5255,17,66,32,55,502,0.0,577,463,60,120.0,0,1,319,258,51,0,0,0,250,250,0,,,,,,,,,,,,
31803,1560686922989,5,2.22,2.05,3.18,1.85,2.74,0.84,-0.2,0.66,1,-1,-1,0.86,5237,17,66,32,55,502,0.0,578,464,60,121.0,0,1,318,258,51,0,0,0,250,250,0,,,,,,,,,,,,
31823,1560686923003,-0,2.21,2.06,3.18,1.85,2.74,0.8,-0.25,0.65,-1,0,-2,0.84,5260,17,66,32,55,502,0.0,571,455,60,121.0,0,1,320,258,51,0,0,0,250,250,0,,,,,,,,,,,,
31843,1560686923023,6,2.22,2.05,3.19,1.84,2.74,0.88,-0.2,0.62,1,-1,-1,0.91,5246,17,66,32,55,502,0.0,580,465,60,121.0,0,1,319,258,51,0,0,0,250,250,0,45.700356,4.909449,0.0,201.2,0,0.0,-1,0.0,0.0,0,0.0,0.5307
31863,1560686923043,0,2.22,2.04,3.18,1.86,2.73,0.78,-0.25,0.61,-0,0,-1,0.82,5208,17,66,32,55,502,0.0,582,458,60,121.0,0,1,315,258,51,0,0,0,250,250,0,,,,,,,,,,,,
31883,1560686923063,5,2.21,2.05,3.18,1.85,2.74,0.85,-0.18,0.56,1,-1,0,0.87,5274,17,66,32,55,502,0.0,579,463,60,121.0,0,1,321,258,51,0,0,0,250,250,0,,,,,,,,,,,,
31903,1560686923083,-0,2.22,2.05,3.18,1.85,2.73,0.78,-0.25,0.61,-0,0,-1,0.82,5233,17,66,32,54,502,0.0,575,461,60,121.0,0,1,318,254,51,0,0,0,250,250,0,,,,,,,,,,,,
31923,1560686923109,5,2.23,2.04,3.18,1.85,2.73,0.86,-0.18,0.62,1,-1,-1,0.87,5243,17,66,32,55,502,0.0,573,457,60,122.0,0,1,318,258,51,0,0,0,250,250,0,,,,,,,,,,,,
31943,1560686923129,-1,2.22,2.05,3.18,1.86,2.73,0.8,-0.22,0.61,-1,0,-1,0.83,5238,17,66,32,54,502,0.0,579,464,60,120.0,0,1,318,258,51,0,0,0,250,250,0,45.700356,4.909449,0.0,201.2,0,0.0,-1,0.0,0.0,0,0.0,0.5324
31963,1560686923149,6,2.22,2.04,3.18,1.85,2.74,0.86,-0.14,0.54,1,-1,-2,0.87,5249,17,66,32,54,502,0.0,574,465,60,121.0,0,1,319,254,51,0,0,0,250,250,0,,,,,,,,,,,,
31983,1560686923169,-0,2.22,2.05,3.18,1.86,2.73,0.79,-0.19,0.58,-1,-0,-2,0.81,5253,17,66,32,54,502,0.0,580,455,60,121.0,0,1,319,258,51,0,0,0,250,250,0,,,,,,,,,,,,
32003,1560686923189,3,2.23,2.05,3.18,1.84,2.74,0.86,-0.08,0.44,1,-1,-1,0.86,5188,17,66,32,55,503,0.0,577,468,60,121.0,0,1,314,253,51,0,0,0,250,250,0,,,,,,,,,,,,
32023,1560686923210,-1,2.22,2.05,3.18,1.86,2.73,0.76,-0.14,0.46,-0,1,-1,0.77,5269,17,66,32,54,502,0.0,573,457,60,121.0,0,1,321,258,51,0,0,0,250,250,0,,,,,,,,,,,,
32043,1560686923230,5,2.22,2.05,3.18,1.85,2.73,0.83,-0.05,0.44,1,-2,1,0.84,5214,17,66,32,55,502,0.0,574,462,60,122.0,0,1,316,254,51,0,0,0,250,250,0,45.700356,4.909449,0.0,201.2,0,0.0,-1,0.0,0.0,0,0.0,0.534
32063,1560686923250,-0,2.21,2.06,3.18,1.86,2.72,0.83,-0.1,0.49,-0,1,-0,0.84,5293,17,66,32,55,502,0.0,572,467,60,119.0,0,1,323,258,51,0,0,0,250,250,0,,,,,,,,,,,,
32083,1560686923270,4,2.22,2.04,3.18,1.85,2.74,0.84,-0.1,0.56,1,-1,-0,0.84,5228,17,66,32,55,502,0.0,572,461,60,121.0,0,1,317,254,51,0,0,0,250,250,0,,,,,,,,,,,,
32103,1560686923290,-2,2.22,2.05,3.18,1.85,2.73,0.84,-0.11,0.58,-0,0,-1,0.85,5246,17,66,32,54,502,0.0,575,461,60,121.0,0,1,319,254,51,0,0,0,250,250,0,,,,,,,,,,,,
32123,1560686923309,6,2.21,2.05,3.18,1.86,2.73,0.83,-0.05,0.57,1,-1,-1,0.83,5302,17,66,32,55,502,0.0,580,464,60,121.0,0,1,323,259,51,0,0,0,250,250,0,,,,,,,,,,,,
32143,1560686923329,-1,2.22,2.05,3.18,1.84,2.74,0.81,-0.08,0.58,-0,-0,-2,0.82,5263,17,66,32,54,502,0.0,577,452,60,121.0,0,1,320,256,51,0,0,0,250,250,0,45.700356,4.909449,0.0,201.2,0,0.0,-1,0.0,0.0,0,0.0,0.5357
32163,1560686923349,6,2.21,2.05,3.18,1.84,2.74,0.85,-0.1,0.54,1,-1,-1,0.86,5259,17,66,32,55,502,0.0,572,471,60,121.0,0,1,320,256,51,0,0,0,250,250,0,,,,,,,,,,,,
32183,1560686923369,-0,2.22,2.04,3.18,1.85,2.73,0.88,-0.11,0.56,-0,-1,-1,0.89,5317,17,66,32,54,502,0.0,588,460,60,120.0,0,1,325,259,51,0,0,0,250,250,0,,,,,,,,,,,,
32203,1560686923389,-1,2.22,2.05,3.18,1.85,2.73,0.81,-0.16,0.62,1,-1,-1,0.82,5283,17,66,32,54,502,0.0,582,465,60,121.0,0,1,322,256,51,0,0,0,250,250,0,,,,,,,,,,,,
32223,1560686923409,1,2.21,2.05,3.18,1.84,2.74,0.9,-0.1,0.63,-0,-1,-0,0.91,5335,17,66,32,54,502,0.0,578,460,60,122.0,0,1,326,257,51,0,0,0,250,250,0,,,,,,,,,,,,
32243,1560686923429,1,2.22,2.04,3.18,1.85,2.72,0.79,-0.12,0.66,1,-0,-1,0.8,5293,17,66,32,54,502,0.0,584,466,60,120.0,0,1,323,256,51,0,0,0,250,250,0,45.700356,4.909449,0.0,201.2,0,0.0,-1,0.0,0.0,0,0.0,0.5374
32263,1560686923449,0,2.22,2.05,3.17,1.85,2.72,0.89,-0.04,0.65,-0,-2,-1,0.89,5310,17,66,32,54,502,0.0,581,455,60,122.0,0,1,324,257,51,0,0,0,250,250,0,,,,,,,,,,,,
32283,1560686923469,0,2.22,2.04,3.18,1.85,2.73,0.77,-0.03,0.67,0,0,-2,0.77,5299,17,66,32,54,502,0.0,585,472,60,120.0,0,1,323,257,51,0,0,0,250,250,0,,,,,,,,,,,,
32303,1560686923489,3,2.21,2.05,3.18,1.84,2.73,0.88,0.09,0.62,0,0,-1,0.89,5305,17,66,32,54,502,0.0,590,454,60,122.0,0,1,324,257,51,0,0,0,250,250,0,,,,,,,,,,,,
32323,1560686923509,-1,2.22,2.05,3.17,1.85,2.74,0.79,0.01,0.61,-0,1,-2,0.79,5334,17,66,32,54,502,0.0,591,460,60,120.0,0,1,326,257,51,0,0,0,250,250,0,,,,,,,,,,,,
32343,1560686923529,5,2.21,2.05,3.17,1.85,2.73,0.88,0.08,0.53,1,-2,-1,0.88,5317,17,66,32,54,502,0.0,581,461,60,122.0,0,1,325,257,51,0,0,0,250,250,0,45.700356,4.909449,0.0,201.2,0,0.0,-1,0.0,0.0,0,0.0,0.539
32363,1560686923549,-3,2.22,2.05,3.17,1.85,2.73,0.78,-0.02,0.54,-0,0,-1,0.78,5334,17,66,32,54,502,0.0,587,462,60,119.0,0,1,326,257,51,0,0,0,250,250,0,,,,,,,,,,,,
32383,1560686923569,5,2.22,2.05,3.17,1.85,2.73,0.78,-0.0,0.53,1,-2,0,0.78,5347,17,66,32,54,502,0.0,587,462,60,121.0,0,1,327,257,51,0,0,0,250,250,0,,,,,,,,,,,,
32403,1560686923589,0,2.22,2.05,3.18,1.85,2.73,0.84,0.01,0.56,-1,0,0,0.84,5394,17,66,32,54,502,0.0,586,465,60,122.0,0,1,331,258,51,0,0,0,250,250,0,,,,,,,,,,,,
32423,1560686923608,0,2.22,2.04,3.18,1.85,2.73,0.76,-0.03,0.65,1,1,-0,0.76,5344,17,66,32,54,502,0.0,583,466,60,120.0,0,1,327,257,51,0,0,0,250,250,0,,,,,,,,,,,,
32443,1560686923628,1,2.22,2.05,3.18,1.85,2.73,0.86,0.02,0.63,-0,-1,0,0.86,5406,17,66,32,53,502,0.0,588,452,60,122.0,0,1,331,254,52,0,0,0,250,250,0,45.700356,4.909449,0.0,201.2,0,0.0,-1,0.0,0.0,0,0.0,0.5407
32463,1560686923648,-0,2.2,2.05,3.18,1.86,2.73,0.75,-0.02,0.61,-0,1,-0,0.75,5386,17,66,32,53,502,0.0,593,463,60,120.0,0,1,330,258,52,0,0,0,250,250,0,,,,,,,,,,,,
32483,1560686923668,6,2.21,2.04,3.18,1.85,2.73,0.83,0.05,0.61,1,-0,-1,0.83,5412,17,66,32,53,502,0.0,590,461,60,121.0,0,1,332,254,52,0,0,0,250,250,0,,,,,,,,,,,,
32503,1560686923688,1,2.21,2.05,3.18,1.86,2.73,0.81,-0.04,0.59,-1,2,-2,0.81,5452,17,66,32,53,502,0.0,591,460,60,122.0,0,1,335,254,52,0,0,0,250,250,0,,,,,,,,,,,,
32523,1560686923708,0,2.21,2.05,3.18,1.86,2.74,0.75,-0.05,0.58,1,1,-1,0.75,5463,17,66,32,53,501,0.0,598,467,60,120.0,0,1,336,254,52,0,0,0,250,250,0,,,,,,,,,,,,
32543,1560686923728,5,2.21,2.05,3.18,1.86,2.73,0.88,0.05,0.57,1,-1,-0,0.88,5431,17,66,32,53,502,0.0,587,466,60,122.0,0,1,334,254,52,0,0,0,250,250,0,45.700356,4.909449,0.0,201.2,0,0.0,-1,0.0,0.0,0,0.0,0.5424
32563,1560686923748,-2,2.21,2.05,3.17,1.85,2.73,0.71,-0.04,0.54,-0,2,-1,0.71,5477,17,66,32,53,502,0.0,592,458,60,120.0,0,1,337,254,52,0,0,0,250,250,0,,,,,,,,,,,,
32583,1560686923768,1,2.21,2.04,3.18,1.85,2.74,0.65,-0.03,0.6,2,0,0,0.66,5498,17,66,32,53,501,0.0,600,462,60,120.0,0,1,336,254,52,0,0,0,250,250,0,,,,,,,,,,,,
32603,1560686923788,4,2.21,2.05,3.18,1.86,2.73,0.79,0.01,0.6,0,-1,1,0.79,5472,17,66,32,52,502,0.0,598,459,60,121.0,0,1,335,250,52,0,0,0,250,250,0,,,,,,,,,,,,
32623,1560686923808,-0,2.2,2.05,3.18,1.85,2.73,0.61,-0.06,0.59,0,3,1,0.61,5501,17,66,32,52,501,0.0,592,462,60,121.0,0,1,338,251,52,0,0,0,250,250,0,,,,,,,,,,,,
32643,1560686923828,-1,2.21,2.05,3.17,1.86,2.73,0.65,-0.02,0.64,2,-0,0,0.65,5431,17,66,32,52,502,0.0,595,461,60,120.0,0,1,333,250,52,0,0,0,250,250,0,45.700356,4.909449,0.0,201.2,0,0.0,-1,0.0,0.0,0,0.0,0.544
32663,1560686923848,3,2.2,2.05,3.18,1.85,2.73,0.76,-0.01,0.65,-0,-1,1,0.76,5441,17,66,32,52,502,0.0,598,453,60,122.0,0,1,333,250,52,0,0,0,250,250,0,,,,,,,,,,,,
32683,1560686923868,0,2.21,2.05,3.17,1.86,2.73,0.61,-0.06,0.64,0,2,-1,0.61,5434,17,66,32,52,502,0.0,599,463,60,120.0,0,1,333,254,52,0,0,0,250,250,0,,,,,,,,,,,,
32703,1560686923888,4,2.2,2.05,3.18,1.85,2.72,0.74,0.03,0.61,2,-0,-1,0.74,5433,17,66,32,53,502,0.0,593,465,60,121.0,0,1,334,250,52,0,0,0,250,250,0,,,,,,,,,,,,
32723,1560686923910,2,2.2,2.05,3.18,1.85,2.73,0.72,-0.04,0.57,-1,1,-1,0.72,5463,17,66,32,52,502,0.0,597,461,60,122.0,0,1,335,250,52,0,0,0,250,250,0,,,,,,,,,,,,
32743,1560686923930,1,2.2,2.05,3.18,1.85,2.73,0.62,-0.04,0.57,1,1,-1,0.62,5445,17,66,32,53,502,0.0,597,470,60,120.0,0,1,335,250,52,0,0,0,250,250,0,45.700356,4.909449,0.0,201.2,0,0.0,-1,0.0,0.0,0,0.0,0.5457
32763,1560686923950,4,2.21,2.04,3.18,1.85,2.73,0.76,0.05,0.55,1,-1,-0,0.77,5436,17,66,32,52,502,0.0,588,466,60,122.0,0,1,333,250,52,0,0,0,250,250,0,,,,,,,,,,,,
32783,1560686923970,-2,2.21,2.05,3.17,1.85,2.73,0.68,-0.06,0.53,-0,2,-0,0.68,5412,17,66,32,52,502,0.0,593,456,60,121.0,0,1,331,250,52,0,0,0,250,250,0,,,,,,,,,,,,
32803,1560686923990,1,2.21,2.04,3.18,1.85,2.73,0.63,-0.02,0.58,1,0,0,0.63,5461,17,66,32,52,502,0.0,597,462,60,120.0,0,1,334,250,52,0,0,0,250,250,0,,,,,,,,,,,,
32823,1560686924004,3,2.22,2.04,3.18,1.85,2.73,0.77,0.02,0.56,0,-1,1,0.77,5441,17,66,32,52,503,0.0,592,458,60,121.0,0,1,333,250,52,0,0,0,250,250,0,,,,,,,,,,,,
32843,1560686924024,-1,2.22,2.05,3.18,1.86,2.72,0.62,-0.04,0.61,0,2,-0,0.62,5468,17,66,32,52,502,0.0,587,467,60,120.0,0,1,335,250,51,0,0,0,250,250,0,45.700356,4.909449,0.0,201.2,0,0.0,-1,0.0,0.0,0,0.0,0.5474
32863,1560686924044,-0,2.22,2.04,3.18,1.85,2.73,0.7,0.01,0.61,1,-1,-0,0.7,5441,17,66,32,52,502,0.0,598,459,60,122.0,0,1,333,250,51,0,0,0,250,250,0,,,,,,,,,,,,
32883,1560686924064,-1,2.23,2.05,3.17,1.85,2.73,0.74,-0.06,0.61,-1,-1,-0,0.75,5256,17,66,32,52,503,0.0,593,458,60,122.0,0,1,319,247,51,0,0,0,250,250,0,,,,,,,,,,,,
32903,1560686924084,-0,2.22,2.05,3.18,1.85,2.73,0.74,-0.02,0.61,1,-1,-1,0.74,5129,17,66,32,52,504,0.0,573,464,60,122.0,0,1,310,245,51,0,0,0,250,250,0,,,,,,,,,,,,
32923,1560686924110,-0,2.21,2.05,3.18,1.85,2.73,0.7,-0.05,0.58,0,0,-2,0.7,4938,17,66,32,52,505,0.0,560,457,60,122.0,0,1,300,243,51,0,0,0,250,250,0,,,,,,,,,,,,
32943,1560686924130,1,2.22,2.05,3.17,1.86,2.73,0.72,-0.05,0.51,-0,-0,-1,0.72,4777,17,66,32,52,506,0.0,543,463,60,122.0,0,1,299,239,44,0,0,0,250,250,0,45.700356,4.909449,0.0,201.2,0,0.0,-1,0.0,0.0,0,0.0,0.549
32963,1560686924150,-1,2.22,2.05,3.18,1.85,2.72,0.78,0.07,0.49,0,-0,-0,0.78,4641,17,66,32,53,506,0.0,519,451,60,121.0,0,1,299,380,44,0,0,0,250,250,0,,,,,,,,,,,,
32983,1560686924170,0,2.22,2.04,3.18,1.85,2.73,0.83,0.1,0.5,0,-3,1,0.84,4555,17,66,32,53,506,0.0,517,458,60,122.0,0,1,298,353,44,0,0,0,250,250,0,,,,,,,,,,,,
33003,1560686924190,-1,2.22,2.05,3.18,1.85,2.74,0.87,0.16,0.55,1,-4,2,0.89,4579,17,66,32,53,505,0.0,496,459,60,121.0,0,1,299,320,44,0,0,0,250,250,0,,,,,,,,,,,,
33023,1560686924210,2,2.22,2.05,3.17,1.86,2.73,0.91,0.19,0.56,1,-4,1,0.93,4696,17,66,32,55,505,0.0,507,460,60,122.0,0,1,298,295,44,0,0,0,250,250,0,,,,,,,,,,,,
33043,1560686924230,2,2.22,2.04,3.18,1.85,2.72,0.87,0.16,0.54,2,-3,-0,0.88,4668,17,66,32,55,504,0.0,512,465,60,122.0,0,1,298,268,50,0,0,0,250,250,0,45.700356,4.909449,0.0,201.2,0,0.0,-1,0.0,0.0,0,0.0,0.5507
33063,1560686924250,4,2.21,2.05,3.18,1.85,2.72,0.83,0.13,0.49,2,-2,-1,0.84,4630,17,66,32,56,503,0.0,505,468,60,121.0,0,1,297,256,50,0,0,0,250,250,0,,,,,,,,,,,,
33083,1560686924270,5,2.22,2.04,3.18,1.85,2.73,0.76,0.08,0.51,1,-0,-1,0.77,4625,17,66,32,56,502,0.0,506,465,60,120.0,0,1,297,260,50,0,0,0,250,250,0,,,,,,,,,,,,
33103,1560686924290,5,2.22,2.05,3.19,1.85,2.73,0.74,0.01,0.49,1,1,-1,0.74,4621,17,66,32,57,502,0.0,506,461,60,120.0,0,1,297,260,50,0,0,0,250,250,0,,,,,,,,,,,,
33123,1560686924310,1,2.22,2.04,3.18,1.85,2.73,0.71,-0.06,0.52,0,1,-1,0.71,4592,17,66,32,57,502,0.0,505,464,60,121.0,0,1,296,259,50,0,0,0,250,250,0,,,,,,,,,,,,
33143,1560686924330,1,2.21,2.05,3.18,1.85,2.73,0.73,-0.1,0.54,-0,2,-1,0.74,4622,17,66,32,57,502,0.0,512,458,60,120.0,0,1,297,260,45,0,0,0,250,250,0,45.700356,4.909449,0.0,201.2,0,0.0,-1,0.0,0.0,0,0.0,0.5524
33163,1560686924350,-0,2.22,2.05,3.18,1.85,2.73,0.73,-0.11,0.6,-1,1,-2,0.74,4567,17,66,32,57,503,0.0,498,456,60,120.0,0,1,296,264,45,0,0,0,250,250,0,,,,,,,,,,,,
33183,1560686924370,-2,2.22,2.05,3.17,1.85,2.73,0.73,-0.1,0.61,-1,1,-1,0.74,4619,17,66,32,58,503,0.0,502,450,60,119.0,0,1,296,265,45,0,0,0,250,250,0,,,,,,,,,,,,
33203,1560686924390,-0,2.21,2.06,3.18,1.86,2.73,0.74,-0.07,0.61,-1,-1,-1,0.74,4614,17,66,32,58,503,0.0,501,459,60,121.0,0,1,296,265,45,0,0,0,250,250,0,,,,,,,,,,,,
33223,1560686924410,0,2.22,2.05,3.18,1.86,2.73,0.82,0.01,0.59,-0,-1,-0,0.82,4646,17,66,32,58,503,0.0,500,460,60,122.0,0,1,296,265,45,0,0,0,250,250,0,,,,,,,,,,,,
33243,1560686924430,1,2.22,2.05,3.18,1.84,2.74,0.89,0.07,0.56,0,-4,1,0.89,4700,17,66,32,58,503,0.0,512,456,60,121.0,0,1,296,265,47,0,0,0,250,250,0,45.700356,4.909449,0.0,201.2,0,0.0,-1,0.0,0.0,0,0.0,0.5541
33263,1560686924450,1,2.22,2.05,3.17,1.85,2.74,0.9,0.08,0.59,1,-2,1,0.9,4736,17,66,32,59,503,0.0,511,466,60,122.0,0,1,296,271,47,0,0,0,250,250,0,,,,,,,,,,,,
33283,1560686924470,4,2.22,2.05,3.18,1.84,2.74,0.88,0.04,0.59,1,-1,-0,0.88,4767,17,66,32,59,503,0.0,519,466,60,121.0,0,1,296,271,47,0,0,0,250,250,0,,,,,,,,,,,,
33303,1560686924490,-0,2.21,2.05,3.18,1.84,2.74,0.79,-0.03,0.59,0,-0,-1,0.8,4775,17,66,32,59,503,0.0,522,465,60,121.0,0,1,296,271,47,0,0,0,250,250,0,,,,,,,,,,,,
33323,1560686924510,-0,2.21,2.04,3.18,1.85,2.73,0.82,-0.05,0.59,-1,-0,-1,0.83,4841,17,66,32,59,503,0.0,519,457,60,121.0,0,1,296,272,47,0,0,0,250,250,0,,,,,,,,,,,,
33343,1560686924530,-0,2.22,2.05,3.18,1.85,2.74,0.89,0.03,0.59,-0,-3,0,0.89,4837,17,66,32,59,503,0.0,528,461,60,122.0,0,1,296,272,49,0,0,0,250,250,0,45.700356,4.909449,0.0,201.2,0,0.0,-1,0.0,0.0,0,0.0,0.5557
33363,1560686924550,4,2.21,2.05,3.18,1.85,2.74,0.89,0.04,0.62,1,-1,0,0.89,4895,17,66,32,59,503,0.0,529,471,60,122.0,0,1,296,272,49,0,0,0,250,250,0,,,,,,,,,,,,
33383,1560686924570,-2,2.22,2.05,3.17,1.85,2.73,0.82,-0.01,0.62,0,-0,-1,0.82,4881,17,66,32,60,502,0.0,533,468,60,121.0,0,1,296,276,49,0,0,0,250,250,0,,,,,,,,,,,,
33403,1560686924590,-2,2.22,2.05,3.17,1.84,2.74,0.78,-0.03,0.59,-1,-1,-1,0.79,4898,17,66,32,60,503,0.0,539,460,60,119.0,0,1,296,276,49,0,0,0,250,250,0,,,,,,,,,,,,
33423,1560686924609,2,2.22,2.05,3.17,1.85,2.73,0.89,0.08,0.53,0,-2,-0,0.9,4960,17,66,32,59,503,0.0,539,456,60,122.0,0,1,296,272,49,0,0,0,250,250,0,,,,,,,,,,,,
33443,1560686924629,5,2.22,2.04,3.18,1.85,2.73,0.82,0.03,0.59,1,-1,-0,0.82,4962,17,66,32,60,502,0.0,541,466,60,121.0,0,1,296,276,52,0,0,0,250,250,0,45.700356,4.909449,0.0,201.2,0,0.0,-1,0.0,0.0,0,0.0,0.5574
33463,1560686924649,0,2.22,2.04,3.17,1.85,2.73,0.76,-0.02,0.6,-0,-0,1,0.76,4974,17,66,32,59,502,0.0,550,468,60,120.0,0,1,296,276,52,0,0,0,250,250,0,,,,,,,,,,,,
33483,1560686924669,2,2.21,2.05,3.17,1.86,2.73,0.85,0.06,0.59,0,-1,1,0.85,5029,17,66,32,59,503,0.0,542,459,60,122.0,0,1,299,273,52,0,0,0,250,250,0,,,,,,,,,,,,
33503,1560686924689,-2,2.22,2.05,3.17,1.84,2.73,0.84,0.02,0.63,1,-2,-0,0.84,5056,17,66,32,59,502,0.0,553,469,60,120.0,0,1,303,273,52,0,0,0,250,250,0,,,,,,,,,,,,
33523,1560686924709,-0,2.21,2.05,3.18,1.85,2.74,0.79,-0.06,0.57,-0,-0,-1,0.8,5086,17,66,32,59,502,0.0,563,461,60,122.0,0,1,304,273,52,0,0,0,250,250,0,,,,,,,,,,,,
33543,1560686924729,4,2.22,2.05,3.17,1.84,2.74,0.89,0.04,0.51,1,-2,0,0.89,5148,17,66,32,58,502,0.0,558,460,60,122.0,0,1,309,267,52,0,0,0,250,250,0,45.700356,4.909449,0.0,201.2,0,0.0,-1,0.0,0.0,0,0.0,0.559
33563,1560686924749,-0,2.21,2.05,3.18,1.84,2.74,0.78,-0.02,0.55,-0,0,-0,0.78,5189,17,66,32,58,502,0.0,562,461,60,120.0,0,1,313,267,52,0,0,0,250,250,0,,,,,,,,,,,,
33583,1560686924769,3,2.22,2.04,3.18,1.85,2.73,0.88,0.04,0.57,0,-1,1,0.88,5191,17,66,32,58,502,0.0,566,459,60,122.0,0,1,313,267,52,0,0,0,250,250,0,,,,,,,,,,,,
33603,1560686924789,1,2.21,2.05,3.18,1.85,2.72,0.8,-0.04,0.6,-0,-0,0,0.8,5218,17,66,32,58,502,0.0,566,470,60,119.0,0,1,315,267,52,0,0,0,250,250,0,,,,,,,,,,,,
33623,1560686924810,4,2.22,2.05,3.17,1.85,2.73,0.86,0.04,0.55,0,-2,-0,0.86,5244,17,66,32,57,503,0.0,570,451,60,122.0,0,1,318,264,52,0,0,0,250,250,0,,,,,,,,,,,,
33643,1560686924830,1,2.21,2.05,3.18,1.85,2.74,0.79,-0.0,0.56,-0,-0,-2,0.79,5320,17,66,32,57,502,0.0,578,460,60,120.0,0,1,325,264,52,0,0,0,250,250,0,45.700356,4.909449,0.0,201.2,0,0.0,-1,0.0,0.0,0,0.0,0.5607
33663,1560686924850,5,2.21,2.05,3.18,1.85,2.72,0.92,0.11,0.5,1,-2,-0,0.92,5302,17,66,32,57,502,0.0,576,461,60,122.0,0,1,323,264,52,0,0,0,250,250,0,,,,,,,,,,,,
33683,1560686924870,-2,2.22,2.05,3.18,1.84,2.73,0.76,0.02,0.56,-1,-0,-1,0.76,5369,17,66,32,56,502,0.0,582,460,60,121.0,0,1,329,264,52,0,0,0,250,250,0,,,,,,,,,,,,
33703,1560686924890,1,2.21,2.04,3.18,1.85,2.73,0.83,0.06,0.54,1,-2,1,0.83,5419,17,66,32,56,502,0.0,588,463,60,121.0,0,1,334,263,52,0,0,0,250,250,0,,,,,,,,,,,,
33723,1560686924909,3,2.22,2.05,3.19,1.85,2.74,0.85,0.04,0.56,-0,-1,1,0.85,5476,17,66,32,55,502,0.0,590,462,60,122.0,0,1,338,261,52,0,0,0,250,250,0,,,,,,,,,,,,
33743,1560686924929,0,2.23,2.04,3.18,1.85,2.74,0.74,-0.01,0.65,0,1,0,0.74,5529,17,66,32,55,502,0.0,587,461,60,120.0,0,1,343,262,54,0,0,0,250,250,0,45.700356,4.909449,0.0,201.2,0,0.0,-1,0.0,0.0,0,0.0,0.5624
33763,1560686924949,-1,2.22,2.05,3.17,1.85,2.73,0.85,0.03,0.66,1,-1,-0,0.85,5565,17,66,32,54,502,0.0,592,458,60,121.0,0,1,346,262,54,0,0,0,250,250,0,,,,,,,,,,,,
33783,1560686924969,4,2.21,2.05,3.18,1.85,2.74,0.87,-0.01,0.65,-1,-3,0,0.87,5588,17,66,32,54,502,0.0,600,458,60,122.0,0,1,348,262,54,0,0,0,250,250,0,,,,,,,,,,,,
33803,1560686924989,2,2.22,2.05,3.17,1.85,2.74,0.74,-0.04,0.65,-1,0,-1,0.74,5623,17,66,32,53,502,0.0,605,461,60,122.0,0,1,349,258,54,0,0,0,250,250,0,,,,,,,,,,,,
33823,1560686925003,1,2.22,2.05,3.18,1.86,2.72,0.78,-0.01,0.68,1,0,-1,0.78,5644,17,66,32,53,502,0.0,604,468,60,120.0,0,1,351,258,54,0,0,0,250,250,0,,,,,,,,,,,,
33843,1560686925023,0,2.22,2.04,3.18,1.85,2.73,0.89,0.02,0.59,2,-1,-0,0.89,5692,17,66,32,52,501,0.0,605,462,60,121.0,0,1,352,253,55,0,0,0,250,250,0,45.700356,4.909449,0.0,201.2,0,0.0,-1,0.0,0.0,0,0.0,0.564
33863,1560686925043,5,2.22,2.04,3.18,1.85,2.73,0.99,0.05,0.53,0,0,-0,0.99,5719,17,66,32,52,501,0.0,610,461,60,122.0,0,1,354,254,55,0,0,0,250,250,0,,,,,,,,,,,,
33883,1560686925063,4,2.21,2.05,3.18,1.85,2.73,0.99,0.08,0.49,-1,2,-1,1.0,5704,17,66,32,51,501,0.0,608,457,60,122.0,0,1,351,249,55,0,0,0,250,250,0,,,,,,,,,,,,
33903,1560686925083,2,2.21,2.05,3.18,1.85,2.74,0.86,-0.0,0.46,-1,3,-1,0.86,5776,17,66,32,51,500,0.0,611,456,60,122.0,0,1,356,250,55,0,0,0,250,250,0,,,,,,,,,,,,
33923,1560686925109,1,2.21,2.05,3.18,1.84,2.73,0.75,-0.02,0.51,0,1,-1,0.75,5662,17,66,32,50,500,0.0,607,467,60,120.0,0,1,346,244,55,0,0,0,250,250,0,,,,,,,,,,,,
33943,1560686925129,0,2.22,2.05,3.18,1.85,2.74,0.79,0.0,0.57,2,-2,-1,0.79,5707,17,66,32,50,500,0.0,612,470,60,121.0,0,1,351,244,52,0,0,0,250,250,0,45.700356,4.909449,0.0,201.2,0,0.0,-1,0.0,0.0,0,0.0,0.5657
33963,1560686925149,1,2.22,2.05,3.18,1.85,2.74,0.91,-0.01,0.55,1,-4,-1,0.91,5719,17,66,32,50,500,0.0,611,463,60,122.0,0,1,350,244,52,0,0,0,250,250,0,,,,,,,,,,,,
33983,1560686925169,2,2.22,2.05,3.18,1.86,2.72,1.0,0.05,0.52,-1,-2,-1,1.0,5664,17,66,32,50,500,0.0,601,459,60,122.0,0,1,347,244,52,0,0,0,250,250,0,,,,,,,,,,,,
34003,1560686925189,0,2.22,2.05,3.17,1.85,2.74,0.88,0.0,0.51,-1,1,-1,0.88,5683,17,66,32,50,500,0.0,606,458,60,120.0,0,1,348,244,52,0,0,0,250,250,0,,,,,,,,,,,,
34023,1560686925209,0,2.21,2.05,3.18,1.85,2.73,0.74,-0.06,0.58,0,1,-0,0.74,5664,17,66,32,50,500,0.0,605,463,60,120.0,0,1,347,244,52,0,0,0,250,250,0,,,,,,,,,,,,
34043,1560686925229,-2,2.23,2.05,3.18,1.85,2.73,0.73,-0.02,0.56,1,-1,1,0.73,5635,17,66,32,49,500,0.0,601,465,60,122.0,0,1,342,238,50,0,0,0,250,250,0,45.700356,4.909449,0.0,201.2,0,0.0,-1,0.0,0.0,0,0.0,0.5674
34063,1560686925249,3,2.22,2.05,3.17,1.85,2.74,0.86,0.02,0.55,-0,-2,2,0.86,5623,17,66,32,49,501,0.0,596,460,60,122.0,0,1,342,238,50,0,0,0,250,250,0,,,,,,,,,,,,
34083,1560686925269,-1,2.22,2.05,3.18,1.85,2.73,0.82,-0.03,0.55,-1,1,1,0.82,5572,17,66,32,49,501,0.0,597,462,60,122.0,0,1,339,237,50,0,0,0,250,250,0,,,,,,,,,,,,
34103,1560686925289,-0,2.21,2.04,3.18,1.85,2.73,0.73,-0.04,0.63,1,1,1,0.73,5575,17,66,32,49,501,0.0,600,463,60,120.0,0,1,339,243,50,0,0,0,250,250,0,,,,,,,,,,,,
34123,1560686925309,4,2.21,2.05,3.18,1.85,2.73,0.81,-0.03,0.63,1,-2,1,0.81,5506,17,66,32,49,501,0.0,600,461,60,122.0,0,1,334,237,50,0,0,0,250,250,0,,,,,,,,,,,,
34143,1560686925329,0,2.22,2.05,3.18,1.85,2.74,0.82,-0.06,0.64,-1,-1,0,0.83,5445,17,66,32,49,501,0.0,598,468,60,120.0,0,1,331,242,49,0,0,0,250,250,0,45.700356,4.909449,0.0,201.2,0,0.0,-1,0.0,0.0,0,0.0,0.569
34163,1560686925349,0,2.21,2.05,3.18,1.85,2.74,0.74,-0.08,0.69,1,-1,-1,0.75,5482,17,66,32,50,501,0.0,598,466,60,121.0,0,1,334,242,49,0,0,0,250,250,0,,,,,,,,,,,,
34183,1560686925369,5,2.21,2.05,3.18,1.84,2.73,0.83,0.01,0.6,1,-2,-0,0.83,5464,17,66,32,50,501,0.0,597,456,60,122.0,0,1,333,242,49,0,0,0,250,250,0,,,,,,,,,,,,
34203,1560686925389,1,2.21,2.04,3.18,1.85,2.73,0.82,-0.07,0.56,-1,-1,-1,0.82,5433,17,66,32,50,501,0.0,590,461,60,121.0,0,1,331,242,49,0,0,0,250,250,0,,,,,,,,,,,,
34223,1560686925409,1,2.2,2.04,3.18,1.85,2.72,0.79,-0.07,0.58,1,-1,-1,0.79,5381,17,66,32,50,501,0.0,587,469,60,121.0,0,1,327,240,49,0,0,0,250,250,0,,,,,,,,,,,,
34243,1560686925429,1,2.22,2.05,3.17,1.86,2.73,0.87,-0.01,0.51,-0,-2,0,0.87,5389,17,66,32,50,502,0.0,590,458,60,122.0,0,1,328,240,48,0,0,0,250,250,0,45.700356,4.909449,0.0,201.2,0,0.0,-1,0.0,0.0,0,0.0,0.5707
34263,1560686925449,1,2.22,2.04,3.18,1.85,2.73,0.76,-0.08,0.58,0,-0,-0,0.76,5369,17,66,32,51,501,0.0,587,462,60,121.0,0,1,325,245,48,0,0,0,250,250,0,,,,,,,,,,,,
34283,1560686925469,3,2.22,2.04,3.18,1.85,2.73,0.84,0.04,0.59,0,-3,2,0.84,5307,17,66,32,51,501,0.0,584,461,60,122.0,0,1,322,244,48,0,0,0,250,250,0,,,,,,,,,,,,
34303,1560686925489,0,2.21,2.04,3.18,1.85,2.73,0.74,-0.03,0.61,0,0,1,0.74,5280,17,66,32,52,501,0.0,582,469,60,120.0,0,1,321,247,48,0,0,0,250,250,0,,,,,,,,,,,,
34323,1560686925509,4,2.21,2.05,3.18,1.84,2.74,0.82,0.05,0.6,0,-2,1,0.82,5243,17,66,32,52,501,0.0,580,460,60,122.0,0,1,318,247,48,0,0,0,250,250,0,,,,,,,,,,,,
34343,1560686925529,-0,2.21,2.05,3.18,1.85,2.73,0.76,-0.0,0.61,-0,-0,-0,0.76,5192,17,66,32,52,501,0.0,576,475,60,119.0,0,1,315,247,48,0,0,0,250,250,0,45.700356,4.909449,0.0,201.2,0,0.0,-1,0.0,0.0,0,0.0,0.5724
34363,1560686925549,3,2.22,2.05,3.18,1.85,2.72,0.81,0.07,0.55,0,-3,-0,0.81,5198,17,66,32,53,500,0.0,570,458,60,122.0,0,1,315,246,48,0,0,0,250,250,0,,,,,,,,,,,,
34383,1560686925569,-1,2.22,2.05,3.17,1.86,2.73,0.76,0.02,0.57,0,-1,-1,0.76,5183,17,66,32,53,500,0.0,567,470,60,121.0,0,1,314,249,48,0,0,0,250,250,0,,,,,,,,,,,,
34403,1560686925589,-3,2.22,2.05,3.18,1.85,2.74,0.81,0.07,0.5,-0,-1,-0,0.81,5158,17,66,32,53,500,0.0,562,458,60,121.0,0,1,312,249,48,0,0,0,250,250,0,,,,,,,,,,,,
34423,1560686925610,0,2.22,2.05,3.18,1.85,2.74,0.74,0.04,0.58,1,-1,0,0.74,5173,17,66,32,53,500,0.0,571,463,60,120.0,0,1,312,249,48,0,0,0,250,250,0,,,,,,,,,,,,
34443,1560686925630,0,2.21,2.05,3.19,1.84,2.74,0.75,0.0,0.59,-0,-1,1,0.75,5144,17,66,32,53,500,0.0,567,460,60,121.0,0,1,311,248,48,0,0,0,250,250,0,45.700356,4.909449,0.0,201.2,0,0.0,-1,0.0,0.0,0,0.0,0.574
34463,1560686925650,3,2.22,2.05,3.17,1.85,2.73,0.8,0.03,0.65,1,-1,0,0.8,5110,17,66,32,54,500,0.0,557,459,60,122.0,0,1,307,248,48,0,0,0,250,250,0,,,,,,,,,,,,
34483,1560686925670,-1,2.22,2.05,3.18,1.85,2.74,0.75,-0.05,0.62,0,-0,-0,0.75,5074,16,66,32,54,500,0.0,565,470,60,120.0,0,1,304,251,48,0,0,0,250,250,0,,,,,,,,,,,,
34503,1560686925690,1,2.22,2.05,3.18,1.86,2.73,0.81,0.05,0.57,-0,-2,-1,0.81,5052,16,66,32,54,500,0.0,556,457,60,122.0,0,1,302,251,48,0,0,0,250,250,0,,,,,,,,,,,,
34523,1560686925708,6,2.21,2.05,3.18,1.85,2.74,0.78,-0.01,0.6,1,-1,-2,0.78,5044,16,66,32,54,500,0.0,549,468,60,121.0,0,1,301,250,48,0,0,0,250,250,0,,,,,,,,,,,,
34543,1560686925728,-0,2.21,2.06,3.18,1.86,2.73,0.75,-0.08,0.55,-0,-1,-2,0.76,5014,16,66,32,54,501,0.0,560,462,60,120.0,0,1,299,250,47,0,0,0,250,250,0,45.700356,4.909449,0.0,201.2,0,0.0,-1,0.0,0.0,0,0.0,0.5757
34563,1560686925748,2,2.22,2.05,3.18,1.85,2.73,0.84,0.04,0.54,0,-3,-0,0.84,4988,16,66,32,54,500,0.0,555,457,60,122.0,0,1,298,249,47,0,0,0,250,250,0,,,,,,,,,,,,
34583,1560686925768,4,2.22,2.05,3.17,1.86,2.73,0.75,-0.02,0.6,1,-1,-1,0.75,4927,16,66,32,55,500,0.0,541,470,60,121.0,0,1,298,253,47,0,0,0,250,250,0,,,,,,,,,,,,
34603,1560686925788,-1,2.22,2.05,3.18,1.86,2.74,0.71,-0.07,0.57,-0,1,0,0.72,4938,16,66,32,55,501,0.0,551,461,60,120.0,0,1,298,253,47,0,0,0,250,250,0,,,,,,,,,,,,
34623,1560686925810,-1,2.22,2.05,3.18,1.85,2.73,0.79,0.01,0.58,-0,-2,0,0.79,4926,16,66,32,55,501,0.0,541,460,60,122.0,0,1,298,253,47,0,0,0,250,250,0,,,,,,,,,,,,
34643,1560686925830,3,2.22,2.06,3.18,1.86,2.73,0.84,0.05,0.58,1,-3,-0,0.84,4917,16,66,32,56,501,0.0,535,467,60,122.0,0,1,298,253,47,0,0,0,250,250,0,45.700356,4.909449,0.0,201.2,0,0.0,-1,0.0,0.0,0,0.0,0.5774
34663,1560686925850,1,2.21,2.05,3.18,1.84,2.73,0.75,-0.04,0.53,0,0,-2,0.75,4931,16,66,32,56,501,0.0,547,466,60,120.0,0,1,298,253,47,0,0,0,250,250,0,,,,,,,,,,,,
34683,1560686925870,-2,2.22,2.05,3.18,1.84,2.74,0.76,-0.09,0.53,-1,-1,-0,0.77,4926,16,66,32,55,501,0.0,541,463,60,121.0,0,1,298,258,47,0,0,0,250,250,0,,,,,,,,,,,,
34703,1560686925890,-1,2.22,2.05,3.17,1.85,2.73,0.86,0.02,0.56,-0,-2,1,0.86,4891,16,66,32,56,501,0.0,534,458,60,122.0,0,1,298,251,47,0,0,0,250,250,0,,,,,,,,,,,,
34723,1560686925910,3,2.22,2.05,3.17,1.86,2.73,0.86,-0.01,0.59,1,-1,0,0.86,4875,16,66,32,56,501,0.0,534,470,60,122.0,0,1,298,255,47,0,0,0,250,250,0,,,,,,,,,,,,
34743,1560686925930,0,2.21,2.05,3.18,1.85,2.73,0.78,-0.07,0.57,0,-1,-1,0.78,4827,16,66,32,56,501,0.0,527,462,60,120.0,0,1,298,255,47,0,0,0,250,250,0,45.700356,4.909449,0.0,201.2,0,0.0,-1,0.0,0.0,0,0.0,0.579
34763,1560686925950,-2,2.21,2.05,3.18,1.84,2.74,0.74,-0.09,0.51,-0,-0,-1,0.74,4817,15,66,32,56,501,0.0,527,460,60,120.0,0,1,298,255,47,0,0,0,250,250,0,,,,,,,,,,,,
34783,1560686925970,1,2.22,2.04,3.18,1.85,2.73,0.84,0.03,0.48,0,-1,0,0.84,4825,15,66,32,56,501,0.0,529,457,60,122.0,0,1,298,255,47,0,0,0,250,250,0,,,,,,,,,,,,
34803,1560686925990,3,2.21,2.05,3.18,1.85,2.72,0.88,0.07,0.53,1,-2,1,0.88,4816,15,66,32,56,501,0.0,520,463,60,122.0,0,1,298,255,47,0,0,0,250,250,0,,,,,,,,,,,,
34823,1560686926004,5,2.21,2.05,3.17,1.85,2.73,0.81,-0.0,0.57,1,-1,1,0.81,4811,15,66,32,57,501,0.0,525,471,60,121.0,0,1,297,255,47,0,0,0,250,250,0,,,,,,,,,,,,
34843,1560686926024,-0,2.21,2.05,3.18,1.84,2.74,0.77,-0.06,0.58,1,0,-0,0.77,4852,15,66,32,57,501,0.0,524,460,60,120.0,0,1,297,260,46,0,0,0,250,250,0,45.700356,4.909449,0.0,201.2,0,0.0,-1,0.0,0.0,0,0.0,0.5807
34863,1560686926044,0,2.21,2.04,3.17,1.84,2.74,0.77,-0.04,0.58,0,-1,-0,0.77,4823,15,66,32,56,501,0.0,523,460,60,120.0,0,1,298,255,46,0,0,0,250,250,0,,,,,,,,,,,,
34883,1560686926064,1,2.21,2.05,3.17,1.85,2.73,0.86,0.08,0.55,1,-1,0,0.86,4822,15,66,32,56,501,0.0,530,460,60,122.0,0,1,298,255,46,0,0,0,250,250,0,,,,,,,,,,,,
34903,1560686926084,3,2.21,2.05,3.18,1.85,2.73,0.87,0.08,0.6,2,-2,0,0.87,4822,15,66,32,57,501,0.0,522,460,60,122.0,0,1,297,260,46,0,0,0,250,250,0,,,,,,,,,,,,
34923,1560686926110,3,2.22,2.05,3.18,1.85,2.73,0.78,0.01,0.61,2,1,0,0.78,4823,15,66,32,57,501,0.0,525,467,60,121.0,0,1,297,260,46,0,0,0,250,250,0,,,,,,,,,,,,
34943,1560686926130,0,2.21,2.05,3.18,1.85,2.73,0.76,-0.04,0.62,1,1,-0,0.76,4785,15,66,32,56,501,0.0,526,460,60,120.0,0,1,297,254,46,0,0,0,250,250,0,45.700356,4.909449,0.0,201.2,0,0.0,-1,0.0,0.0,0,0.0,0.5824
34963,1560686926150,-1,2.21,2.05,3.18,1.85,2.74,0.77,-0.02,0.63,0,-1,-0,0.78,4799,15,66,32,56,501,0.0,526,462,60,120.0,0,1,297,254,46,0,0,0,250,250,0,,,,,,,,,,,,
34983,1560686926170,1,2.22,2.04,3.17,1.85,2.74,0.85,0.1,0.6,1,-0,0,0.86,4780,14,66,32,56,501,0.0,523,458,60,122.0,0,1,297,250,46,0,0,0,250,250,0,,,,,,,,,,,,
35003,1560686926190,3,2.21,2.05,3.18,1.84,2.73,0.88,0.11,0.61,2,-2,0,0.88,4761,14,66,32,56,502,0.0,522,465,60,122.0,0,1,297,250,46,0,0,0,250,250,0,,,,,,,,,,,,
35023,1560686926210,5,2.21,2.05,3.17,1.85,2.73,0.81,0.04,0.62,2,1,-0,0.82,4733,14,66,32,55,502,0.0,514,472,60,122.0,0,1,298,250,46,0,0,0,250,250,0,,,,,,,,,,,,
35043,1560686926230,20,2.22,2.04,3.18,1.85,2.73,0.77,-0.03,0.63,1,2,-1,0.77,4719,14,66,32,55,501,0.0,523,461,60,120.0,0,1,298,250,45,0,0,0,250,250,0,45.700356,4.909449,0.0,201.2,0,0.0,-1,0.0,0.0,0,0.0,0.584
35063,1560686926250,-0,2.21,2.06,3.18,1.85,2.74,0.73,-0.08,0.62,1,1,-1,0.73,4715,14,66,32,55,501,0.0,519,463,60,120.0,0,1,298,250,45,0,0,0,250,250,0,,,,,,,,,,,,
35083,1560686926270,-0,2.21,2.05,3.18,1.85,2.73,0.78,-0.07,0.62,0,1,0,0.78,4705,14,66,32,54,501,0.0,510,455,60,121.0,0,1,298,245,45,0,0,0,250,250,0,,,,,,,,,,,,
35103,1560686926290,-2,2.21,2.05,3.18,1.85,2.73,0.82,-0.02,0.62,0,-1,1,0.82,4657,14,66,32,54,501,0.0,515,452,60,121.0,0,1,298,249,45,0,0,0,250,250,0,,,,,,,,,,,,
35123,1560686926310,0,2.22,2.04,3.18,1.85,2.74,0.87,0.07,0.61,0,-2,2,0.87,4653,13,66,32,54,501,0.0,501,462,60,122.0,0,1,298,244,45,0,0,0,250,250,0,,,,,,,,,,,,
35143,1560686926330,1,2.22,2.05,3.19,1.86,2.73,0.92,0.1,0.64,1,-3,1,0.93,4570,13,66,32,54,501,0.0,501,459,60,123.0,0,1,298,243,42,0,0,0,250,250,0,45.700356,4.909449,0.0,201.2,0,0.0,-1,0.0,0.0,0,0.0,0.5857
35163,1560686926350,0,2.21,2.05,3.17,1.85,2.73,0.96,0.1,0.64,2,-3,1,0.96,4564,13,66,32,54,501,0.0,493,462,60,122.0,0,1,298,243,42,0,0,0,250,250,0,,,,,,,,,,,,
35183,1560686926370,1,2.22,2.05,3.18,1.84,2.74,0.96,0.08,0.63,2,-4,1,0.97,4548,13,66,32,54,501,0.0,487,462,60,123.0,0,1,298,243,42,0,0,0,250,250,0,,,,,,,,,,,,
35203,1560686926390,1,2.21,2.05,3.18,1.84,2.75,0.98,0.1,0.64,2,-4,1,0.98,4508,13,66,32,54,501,0.0,491,465,60,122.0,0,1,298,243,42,0,0,0,250,250,0,,,,,,,,,,,,
35223,1560686926410,1,2.22,2.05,3.17,1.86,2.73,1.0,0.13,0.62,2,-4,1,1.01,4505,13,66,32,54,502,0.0,480,465,60,122.0,0,1,298,243,42,0,0,0,250,250,0,,,,,,,,,,,,
35243,1560686926430,1,2.21,2.05,3.18,1.85,2.74,1.01,0.09,0.63,2,-5,0,1.01,4480,13,66,32,54,502,0.0,480,460,60,122.0,0,1,298,238,41,0,0,0,250,250,0,45.700356,4.909449,0.0,201.2,0,0.0,-1,0.0,0.0,0,0.0,0.5874
35263,1560686926450,-2,2.22,2.05,3.17,1.85,2.73,1.04,0.07,0.65,2,-6,1,1.04,4388,13,66,32,54,502,0.0,470,457,60,122.0,0,1,298,241,41,0,0,0,250,250,0,,,,,,,,,,,,
35283,1560686926470,-2,2.22,2.05,3.18,1.85,2.74,1.06,0.11,0.69,2,-7,1,1.07,4424,13,66,32,54,502,0.0,475,466,60,122.0,0,1,298,238,41,0,0,0,250,250,0,,,,,,,,,,,,
35303,1560686926490,-2,2.21,2.05,3.19,1.84,2.74,1.09,0.09,0.71,2,-8,0,1.1,4367,13,66,32,53,501,0.0,475,458,60,122.0,0,1,297,237,41,0,0,0,250,250,0,,,,,,,,,,,,
35323,1560686926510,0,2.22,2.04,3.18,1.85,2.74,1.09,0.1,0.69,2,-7,0,1.09,4365,13,66,32,53,501,0.0,465,454,60,122.0,0,1,297,237,41,0,0,0,250,250,0,,,,,,,,,,,,
35343,1560686926530,-1,2.21,2.05,3.18,1.85,2.74,1.07,0.05,0.69,2,-7,1,1.07,4361,13,66,32,53,502,0.0,471,457,60,122.0,0,1,297,237,39,0,0,0,250,250,0,45.700356,4.909449,0.0,201.2,0,0.0,-1,0.0,0.0,0,0.0,0.589
35363,1560686926550,-2,2.22,2.05,3.18,1.84,2.74,1.01,0.04,0.68,1,-6,2,1.01,4342,13,66,32,53,501,0.0,469,461,60,120.0,0,1,297,237,39,0,0,0,250,250,0,,,,,,,,,,,,
35383,1560686926570,6,2.21,2.05,3.18,1.84,2.74,0.93,0.01,0.66,1,-5,1,0.93,4335,13,66,32,53,501,0.0,466,466,60,120.0,0,1,297,237,39,0,0,0,250,250,0,,,,,,,,,,,,
35403,1560686926590,4,2.22,2.05,3.17,1.86,2.74,0.89,-0.0,0.61,1,-3,1,0.89,4359,13,66,32,53,501,0.0,469,463,60,121.0,0,1,297,237,39,0,0,0,250,250,0,,,,,,,,,,,,
35423,1560686926609,3,2.22,2.05,3.18,1.85,2.73,0.83,-0.0,0.57,1,-1,1,0.83,4332,13,66,32,53,502,0.0,465,463,60,121.0,0,1,297,237,39,0,0,0,250,250,0,,,,,,,,,,,,
35443,1560686926629,1,2.21,2.05,3.18,1.85,2.72,0.84,0.0,0.57,1,0,0,0.84,4369,13,66,32,53,501,0.0,473,465,60,122.0,0,1,297,237,39,0,0,0,250,250,0,45.700356,4.909449,0.0,201.2,0,0.0,-1,0.0,0.0,0,0.0,0.5907
35463,1560686926649,0,2.21,2.05,3.18,1.84,2.74,0.85,0.0,0.59,1,-0,-0,0.85,4374,13,66,32,53,501,0.0,461,460,60,122.0,0,1,297,237,39,0,0,0,250,250,0,,,,,,,,,,,,
35483,1560686926669,-2,2.22,2.05,3.17,1.84,2.74,0.9,-0.0,0.61,1,-2,0,0.9,4353,13,66,32,53,501,0.0,466,465,60,122.0,0,1,297,233,39,0,0,0,250,250,0,,,,,,,,,,,,
35503,1560686926689,0,2.21,2.05,3.18,1.86,2.73,0.92,0.05,0.64,2,-3,0,0.92,4407,13,66,32,53,501,0.0,468,461,60,122.0,0,1,297,234,39,0,0,0,250,250,0,,,,,,,,,,,,
35523,1560686926709,-0,2.21,2.05,3.18,1.85,2.74,0.95,0.04,0.65,2,-5,-0,0.95,4359,13,66,32,53,502,0.0,468,457,60,122.0,0,1,297,237,39,0,0,0,250,250,0,,,,,,,,,,,,
35543,1560686926729,-0,2.21,2.04,3.18,1.85,2.73,0.95,0.06,0.65,2,-5,-0,0.95,4344,13,66,32,53,502,0.0,468,460,60,122.0,0,1,297,237,39,0,0,0,250,250,0,45.700356,4.909449,0.0,201.2,0,0.0,-1,0.0,0.0,0,0.0,0.5924
35563,1560686926749,-0,2.21,2.05,3.17,1.85,2.73,0.92,0.02,0.65,1,-5,0,0.92,4325,13,66,32,53,501,0.0,469,457,60,119.0,0,1,297,237,39,0,0,0,250,250,0,,,,,,,,,,,,
35583,1560686926769,6,2.21,2.04,3.18,1.85,2.73,0.89,0.01,0.64,1,-3,1,0.89,4304,13,66,32,53,501,0.0,470,464,60,119.0,0,1,297,236,39,0,0,0,250,250,0,,,,,,,,,,,,
35603,1560686926789,5,2.21,2.05,3.18,1.85,2.73,0.83,-0.01,0.6,1,-2,1,0.83,4297,13,66,32,53,502,0.0,453,461,60,121.0,0,1,297,236,39,0,0,0,250,250,0,,,,,,,,,,,,
35623,1560686926809,3,2.22,2.04,3.18,1.85,2.73,0.81,-0.02,0.58,1,-1,1,0.81,4324,13,66,32,53,502,0.0,457,468,60,122.0,0,1,297,237,39,0,0,0,250,250,0,,,,,,,,,,,,
35643,1560686926829,2,2.21,2.05,3.18,1.84,2.74,0.8,-0.04,0.6,1,-1,0,0.8,4322,13,66,32,53,502,0.0,462,467,60,122.0,0,1,297,237,38,0,0,0,250,250,0,45.700356,4.909449,0.0,201.2,0,0.0,-1,0.0,0.0,0,0.0,0.594
35663,1560686926849,1,2.22,2.04,3.18,1.85,2.73,0.82,-0.03,0.59,1,-0,0,0.82,4349,13,66,32,53,502,0.0,461,461,60,122.0,0,1,297,237,38,0,0,0,250,250,0,,,,,,,,,,,,
35683,1560686926869,-1,2.22,2.05,3.18,1.85,2.74,0.84,-0.03,0.6,2,-1,-0,0.84,4347,13,66,32,53,502,0.0,462,465,60,122.0,0,1,297,233,38,0,0,0,250,250,0,,,,,,,,,,,,
35703,1560686926889,-0,2.21,2.04,3.18,1.85,2.73,0.9,-0.01,0.6,1,-3,1,0.9,4332,13,66,32,53,502,0.0,463,453,60,122.0,0,1,297,233,38,0,0,0,250,250,0,,,,,,,,,,,,
35723,1560686926909,1,2.21,2.05,3.18,1.85,2.74,0.93,0.01,0.63,1,-4,1,0.93,4365,13,66,32,53,502,0.0,470,462,60,120.0,0,1,297,237,38,0,0,0,250,250,0,,,,,,,,,,,,
35743,1560686926929,-2,2.22,2.05,3.18,1.85,2.74,0.94,0.0,0.65,1,-5,0,0.94,4334,13,66,32,53,502,0.0,460,462,60,120.0,0,1,297,237,39,0,0,0,250,250,0,45.700356,4.909449,0.0,201.2,0,0.0,-1,0.0,0.0,0,0.0,0.5957
35763,1560686926949,0,2.21,2.05,3.18,1.85,2.73,0.93,0.01,0.67,1,-3,-0,0.93,4348,13,66,32,53,502,0.0,468,461,60,121.0,0,1,297,237,39,0,0,0,250,250,0,,,,,,,,,,,,
35783,1560686926969,5,2.21,2.05,3.18,1.85,2.74,0.88,-0.02,0.68,0,-2,-0,0.88,4397,13,66,32,53,502,0.0,468,461,60,121.0,0,1,297,237,39,0,0,0,250,250,0,,,,,,,,,,,,
35803,1560686926989,6,2.21,2.05,3.18,1.84,2.74,0.84,-0.03,0.66,0,0,0,0.84,4365,13,66,32,53,502,0.0,468,459,60,121.0,0,1,297,237,39,0,0,0,250,250,0,,,,,,,,,,,,
35823,1560686927003,3,2.21,2.05,3.19,1.85,2.73,0.77,-0.05,0.65,0,0,-0,0.77,4356,13,66,32,53,502,0.0,461,470,60,122.0,0,1,297,237,39,0,0,0,250,250,0,,,,,,,,,,,,
35843,1560686927023,2,2.21,2.05,3.18,1.84,2.74,0.75,-0.05,0.58,0,1,0,0.75,4381,13,66,32,53,502,0.0,464,468,60,122.0,0,1,297,237,39,0,0,0,250,250,0,45.700356,4.909449,0.0,201.2,0,0.0,-1,0.0,0.0,0,0.0,0.5974
35863,1560686927043,1,2.22,2.05,3.18,1.84,2.74,0.73,-0.07,0.6,1,1,-0,0.73,4347,13,66,32,52,502,0.0,469,463,60,122.0,0,1,297,233,39,0,0,0,250,250,0,,,,,,,,,,,,
35883,1560686927063,1,2.22,2.04,3.18,1.85,2.73,0.77,-0.04,0.58,1,0,-0,0.77,4385,13,66,32,53,502,0.0,460,464,60,122.0,0,1,297,237,39,0,0,0,250,250,0,,,,,,,,,,,,
35903,1560686927083,0,2.22,2.05,3.18,1.85,2.73,0.79,-0.05,0.58,1,-0,-0,0.8,4423,13,66,32,53,502,0.0,472,462,60,122.0,0,1,297,234,39,0,0,0,250,250,0,,,,,,,,,,,,
35923,1560686927109,-2,2.22,2.05,3.18,1.85,2.73,0.86,-0.06,0.59,1,-3,0,0.86,4402,13,66,32,53,502,0.0,472,459,60,122.0,0,1,297,234,39,0,0,0,250,250,0,,,,,,,,,,,,
35943,1560686927129,0,2.22,2.04,3.18,1.85,2.73,0.9,0.0,0.63,1,-4,0,0.9,4410,13,66,32,53,502,0.0,472,457,60,122.0,0,1,297,234,39,0,0,0,250,250,0,45.700356,4.909449,0.0,201.2,0,0.0,-1,0.0,0.0,0,0.0,0.599
35963,1560686927149,-0,2.22,2.05,3.18,1.85,2.74,0.92,-0.01,0.64,1,-5,-0,0.92,4341,13,66,32,53,502,0.0,468,458,60,122.0,0,1,297,237,39,0,0,0,250,250,0,,,,,,,,,,,,
35983,1560686927169,-0,2.21,2.05,3.18,1.85,2.74,0.93,0.01,0.64,1,-4,-0,0.93,4360,13,66,32,52,502,0.0,464,462,60,121.0,0,1,297,237,39,0,0,0,250,250,0,,,,,,,,,,,,
36003,1560686927189,-2,2.23,2.05,3.17,1.86,2.73,0.92,-0.01,0.65,0,-4,-0,0.92,4385,13,66,32,53,502,0.0,477,452,60,120.0,0,1,297,238,39,0,0,0,250,250,0,,,,,,,,,,,,
36023,1560686927210,3,2.22,2.05,3.18,1.85,2.73,0.89,-0.02,0.65,0,-1,0,0.89,4361,13,66,32,53,502,0.0,466,466,60,120.0,0,1,297,237,39,0,0,0,250,250,0,,,,,,,,,,,,
36043,1560686927230,5,2.22,2.04,3.18,1.85,2.72,0.83,-0.05,0.64,0,-1,0,0.83,4383,13,66,32,52,502,0.0,469,461,60,121.0,0,1,297,233,38,0,0,0,250,250,0,45.700356,4.909449,0.0,201.2,0,0.0,-1,0.0,0.0,0,0.0,0.6007
36063,1560686927250,6,2.21,2.05,3.18,1.85,2.74,0.79,-0.07,0.58,0,1,0,0.79,4410,13,66,32,52,502,0.0,470,467,60,121.0,0,1,297,234,38,0,0,0,250,250,0,,,,,,,,,,,,
36083,1560686927270,4,2.21,2.05,3.18,1.85,2.72,0.73,-0.05,0.54,0,2,-0,0.73,4390,13,66,32,52,502,0.0,471,462,60,121.0,0,1,297,233,38,0,0,0,250,250,0,,,,,,,,,,,,
36103,1560686927290,4,2.21,2.05,3.18,1.85,2.72,0.72,-0.09,0.51,0,3,-1,0.73,4428,13,66,32,53,502,0.0,471,468,60,122.0,0,1,297,238,38,0,0,0,250,250,0,,,,,,,,,,,,
36123,1560686927309,3,2.21,2.05,3.18,1.84,2.73,0.66,-0.1,0.51,0,3,-2,0.67,4443,13,66,32,52,502,0.0,468,461,60,122.0,0,1,297,234,38,0,0,0,250,250,0,,,,,,,,,,,,
36143,1560686927329,2,2.22,2.05,3.18,1.84,2.73,0.66,-0.11,0.51,1,3,-2,0.66,4423,13,66,32,53,502,0.0,479,463,60,123.0,0,1,297,238,39,0,0,0,250,250,0,45.700356,4.909449,0.0,201.2,0,0.0,-1,0.0,0.0,0,0.0,0.6024
36163,1560686927349,1,2.22,2.05,3.18,1.85,2.73,0.66,-0.16,0.56,1,3,-2,0.68,4485,13,66,32,53,502,0.0,476,462,60,122.0,0,1,297,238,39,0,0,0,250,250,0,,,,,,,,,,,,
36183,1560686927369,0,2.22,2.05,3.18,1.85,2.73,0.7,-0.16,0.56,1,2,-2,0.72,4431,13,66,32,53,502,0.0,476,465,60,122.0,0,1,297,238,39,0,0,0,250,250,0,,,,,,,,,,,,
36203,1560686927389,-1,2.22,2.05,3.18,1.85,2.72,0.71,-0.14,0.56,1,2,-2,0.73,4443,13,66,32,52,502,0.0,473,460,60,122.0,0,1,297,234,39,0,0,0,250,250,0,,,,,,,,,,,,
36223,1560686927409,1,2.22,2.04,3.17,1.86,2.73,0.75,-0.16,0.56,1,-0,-1,0.76,4481,13,66,32,52,502,0.0,476,465,60,122.0,0,1,297,234,39,0,0,0,250,250,0,,,,,,,,,,,,
36243,1560686927429,-0,2.22,2.05,3.18,1.86,2.73,0.78,-0.12,0.59,1,-1,-1,0.79,4456,13,66,32,52,502,0.0,483,461,60,122.0,0,1,297,234,39,0,0,0,250,250,0,45.700356,4.909449,0.0,201.2,0,0.0,-1,0.0,0.0,0,0.0,0.604
36263,1560686927449,-2,2.22,2.05,3.17,1.85,2.73,0.82,-0.06,0.59,1,-1,-1,0.83,4496,13,66,32,53,502,0.0,471,460,60,122.0,0,1,297,234,39,0,0,0,250,250,0,,,,,,,,,,,,
36283,1560686927469,-0,2.22,2.05,3.19,1.85,2.73,0.85,-0.05,0.59,2,-2,-1,0.85,4495,13,66,32,53,502,0.0,482,462,60,122.0,0,1,297,234,39,0,0,0,250,250,0,,,,,,,,,,,,
36303,1560686927489,0,2.21,2.05,3.17,1.85,2.73,0.88,-0.04,0.62,2,-4,-0,0.88,4445,13,66,32,52,502,0.0,480,462,60,122.0,0,1,297,234,39,0,0,0,250,250,0,,,,,,,,,,,,
36323,1560686927505,-1,2.22,2.05,3.18,1.86,2.73,0.9,0.02,0.65,2,-5,0,0.9,4512,13,66,32,52,502,0.0,480,461,60,123.0,0,1,298,235,39,0,0,0,250,250,0,,,,,,,,,,,,
36343,1560686927525,1,2.22,2.04,3.18,1.84,2.74,0.92,0.03,0.65,2,-6,-0,0.93,4442,13,66,32,53,502,0.0,480,463,60,123.0,0,1,297,234,39,0,0,0,250,250,0,45.700356,4.909449,0.0,201.2,0,0.0,-1,0.0,0.0,0,0.0,0.6057
36363,1560686927545,0,2.21,2.05,3.17,1.85,2.73,0.95,0.03,0.63,2,-5,0,0.95,4447,13,66,32,52,502,0.0,473,458,60,122.0,0,1,297,234,39,0,0,0,250,250,0,,,,,,,,,,,,
36383,1560686927565,-1,2.22,2.05,3.17,1.86,2.73,0.98,0.05,0.62,2,-7,1,0.99,4458,13,66,32,52,502,0.0,486,460,60,121.0,0,1,297,234,39,0,0,0,250,250,0,,,,,,,,,,,,
36403,1560686927585,-0,2.21,2.05,3.18,1.85,2.74,1.04,0.07,0.64,2,-7,1,1.04,4438,13,66,32,52,502,0.0,471,458,60,122.0,0,1,297,234,39,0,0,0,250,250,0,,,,,,,,,,,,
36423,1560686927608,-2,2.22,2.06,3.18,1.85,2.74,1.07,0.06,0.65,2,-8,2,1.07,4467,13,66,32,52,502,0.0,478,458,60,122.0,0,1,297,234,39,0,0,0,250,250,0,,,,,,,,,,,,
36443,1560686927628,0,2.22,2.05,3.18,1.86,2.72,1.09,0.11,0.64,2,-7,2,1.1,4491,13,66,32,52,502,0.0,484,459,60,122.0,0,1,297,234,40,0,0,0,250,250,0,45.700356,4.909449,0.0,201.2,0,0.0,-1,0.0,0.0,0,0.0,0.6074
36463,1560686927648,-0,2.2,2.04,3.18,1.84,2.73,1.1,0.15,0.63,1,-8,2,1.11,4443,13,66,32,52,502,0.0,476,457,60,121.0,0,1,297,234,40,0,0,0,250,250,0,,,,,,,,,,,,
36483,1560686927668,-0,2.21,2.05,3.18,1.84,2.73,1.12,0.12,0.66,1,-8,2,1.12,4491,13,66,32,52,502,0.0,482,463,60,120.0,0,1,297,234,40,0,0,0,250,250,0,,,,,,,,,,,,
36503,1560686927688,-2,2.22,2.05,3.18,1.84,2.74,1.12,0.12,0.65,1,-9,1,1.12,4448,13,66,32,52,502,0.0,473,460,60,121.0,0,1,297,234,40,0,0,0,250,250,0,,,,,,,,,,,,
36523,1560686927708,0,2.21,2.05,3.18,1.85,2.74,1.12,0.13,0.63,1,-7,1,1.13,4451,13,66,32,52,502,0.0,485,459,60,121.0,0,1,297,234,40,0,0,0,250,250,0,,,,,,,,,,,,
36543,1560686927728,-0,2.21,2.05,3.18,1.85,2.73,1.11,0.09,0.63,1,-8,2,1.11,4469,13,66,32,52,502,0.0,475,456,60,120.0,0,1,297,234,40,0,0,0,250,250,0,45.700356,4.909449,0.0,201.2,0,0.0,-1,0.0,0.0,0,0.0,0.609
36563,1560686927748,-1,2.21,2.05,3.18,1.84,2.74,1.08,0.07,0.65,0,-7,2,1.08,4457,13,66,32,52,502,0.0,481,458,60,120.0,0,1,297,234,40,0,0,0,250,250,0,,,,,,,,,,,,
36583,1560686927768,-2,2.21,2.05,3.17,1.86,2.73,1.03,0.07,0.66,0,-7,2,1.04,4467,13,66,32,52,502,0.0,483,462,60,120.0,0,1,297,234,40,0,0,0,250,250,0,,,,,,,,,,,,
36603,1560686927788,-1,2.21,2.05,3.18,1.85,2.73,1.02,0.08,0.66,-0,-5,2,1.02,4481,13,66,32,52,502,0.0,475,458,60,120.0,0,1,297,234,40,0,0,0,250,250,0,,,,,,,,,,,,
36623,1560686927808,-0,2.21,2.05,3.18,1.85,2.73,0.96,0.04,0.69,-0,-5,2,0.96,4451,13,66,32,52,502,0.0,480,460,60,119.0,0,1,297,234,40,0,0,0,250,250,0,,,,,,,,,,,,
36643,1560686927828,-1,2.2,2.05,3.18,1.85,2.74,0.9,0.02,0.69,-1,-4,2,0.9,4479,12,66,32,52,502,0.0,477,458,60,119.0,0,1,297,234,39,0,0,0,250,250,0,45.700356,4.909449,0.0,201.2,0,0.0,-1,0.0,0.0,0,0.0,0.6107
36663,1560686927848,-2,2.21,2.05,3.17,1.85,2.73,0.86,0.0,0.71,-1,-4,1,0.86,4435,13,66,32,52,502,0.0,488,456,60,120.0,0,1,297,234,39,0,0,0,250,250,0,,,,,,,,,,,,
36683,1560686927868,-1,2.21,2.05,3.18,1.85,2.73,0.84,-0.01,0.68,-1,-3,1,0.84,4422,13,67,32,52,502,0.0,480,465,60,120.0,0,1,297,231,39,0,0,0,250,250,0,,,,,,,,,,,,
36703,1560686927888,6,2.21,2.04,3.18,1.85,2.73,0.78,-0.01,0.66,-1,-1,0,0.78,4445,13,67,32,53,502,0.0,475,458,60,120.0,0,1,297,235,39,0,0,0,250,250,0,,,,,,,,,,,,
36723,1560686927910,5,2.2,2.05,3.18,1.84,2.74,0.74,-0.02,0.62,-1,0,1,0.75,4428,12,67,32,52,502,0.0,477,467,60,121.0,0,1,297,231,39,0,0,0,250,250,0,,,,,,,,,,,,
36743,1560686927930,4,2.2,2.05,3.18,1.85,2.72,0.7,-0.05,0.6,-1,0,1,0.7,4457,13,67,32,52,502,0.0,479,461,60,120.0,0,1,297,231,38,0,0,0,250,250,0,45.700356,4.909449,0.0,201.2,0,0.0,-1,0.0,0.0,0,0.0,0.6124
36763,1560686927950,6,2.21,2.04,3.17,1.85,2.73,0.67,-0.06,0.56,-1,1,0,0.67,4468,13,67,32,52,502,0.0,480,466,60,122.0,0,1,297,231,38,0,0,0,250,250,0,,,,,,,,,,,,
36783,1560686927970,4,2.2,2.05,3.18,1.85,2.74,0.63,-0.04,0.53,-1,2,-0,0.63,4434,13,67,32,52,502,0.0,475,468,60,122.0,0,1,297,231,38,0,0,0,250,250,0,,,,,,,,,,,,
36803,1560686927990,2,2.21,2.05,3.18,1.85,2.73,0.63,-0.07,0.51,-1,3,-1,0.64,4470,13,67,32,52,502,0.0,476,461,60,121.0,0,1,297,235,38,0,0,0,250,250,0,,,,,,,,,,,,
36823,1560686928005,4,2.2,2.05,3.18,1.85,2.73,0.58,-0.09,0.51,-1,4,-2,0.58,4492,13,67,32,52,502,0.0,483,466,60,122.0,0,1,297,231,38,0,0,0,250,250,0,,,,,,,,,,,,
36843,1560686928025,4,2.21,2.04,3.18,1.85,2.73,0.57,-0.09,0.48,-1,4,-2,0.58,4455,13,67,32,52,502,0.0,474,468,60,122.0,0,1,297,231,39,0,0,0,250,250,0,45.700356,4.909449,0.0,201.2,0,0.0,-1,0.0,0.0,0,0.0,0.614
36863,1560686928045,2,2.21,2.05,3.17,1.85,2.73,0.56,-0.13,0.5,-1,5,-3,0.58,4500,13,67,32,52,502,0.0,484,460,60,122.0,0,1,298,232,39,0,0,0,250,250,0,,,,,,,,,,,,
36883,1560686928065,2,2.21,2.05,3.18,1.85,2.73,0.6,-0.16,0.5,-0,5,-3,0.62,4460,12,67,32,52,502,0.0,481,466,60,122.0,0,1,297,231,39,0,0,0,250,250,0,,,,,,,,,,,,
36903,1560686928085,3,2.2,2.05,3.18,1.85,2.72,0.59,-0.14,0.51,-0,5,-2,0.6,4466,13,67,32,53,502,0.0,481,467,60,122.0,0,1,297,235,39,0,0,0,250,250,0,,,,,,,,,,,,
36923,1560686928105,2,2.21,2.05,3.18,1.86,2.73,0.61,-0.17,0.52,-0,5,-2,0.63,4484,13,67,32,52,502,0.0,483,463,60,122.0,0,1,297,231,39,0,0,0,250,250,0,,,,,,,,,,,,
36943,1560686928125,3,2.2,2.05,3.18,1.84,2.74,0.61,-0.18,0.57,0,5,-2,0.64,4450,12,67,32,53,502,0.0,473,467,60,122.0,0,1,297,235,38,0,0,0,250,250,0,45.700356,4.909449,0.0,201.2,0,0.0,-1,0.0,0.0,0,0.0,0.6157
36963,1560686928098,3,2.21,2.05,3.18,1.85,2.73,0.65,-0.14,0.57,1,5,-2,0.66,4451,12,67,32,52,502,0.0,482,465,60,122.0,0,1,297,231,38,0,0,0,250,250,0,,,,,,,,,,,,
36983,1560686928118,2,2.21,2.05,3.18,1.86,2.73,0.67,-0.13,0.58,1,5,-3,0.68,4448,12,67,32,52,502,0.0,472,466,60,122.0,0,1,297,231,38,0,0,0,250,250,0,,,,,,,,,,,,
37003,1560686928138,-1,2.21,2.05,3.18,1.85,2.73,0.71,-0.14,0.58,1,3,-2,0.72,4437,13,67,32,52,502,0.0,473,463,60,122.0,0,1,297,231,38,0,0,0,250,250,0,,,,,,,,,,,,
37023,1560686928158,-1,2.22,2.05,3.18,1.84,2.74,0.74,-0.1,0.61,1,2,-3,0.75,4463,12,67,32,52,502,0.0,473,467,60,122.0,0,1,297,231,38,0,0,0,250,250,0,,,,,,,,,,,,
37043,1560686928178,-0,2.2,2.05,3.18,1.86,2.73,0.78,-0.07,0.6,2,1,-2,0.78,4416,12,67,32,52,502,0.0,472,458,60,122.0,0,1,297,231,39,0,0,0,250,250,0,45.700356,4.909449,0.0,201.2,0,0.0,-1,0.0,0.0,0,0.0,0.6174
37063,1560686928198,0,2.21,2.05,3.18,1.84,2.74,0.81,-0.06,0.58,2,1,-2,0.81,4407,13,67,32,52,502,0.0,477,460,60,122.0,0,1,297,231,39,0,0,0,250,250,0,,,,,,,,,,,,
37083,1560686928210,0,2.22,2.05,3.18,1.84,2.73,0.85,-0.02,0.57,2,-1,-1,0.85,4436,13,67,32,52,502,0.0,466,457,60,122.0,0,1,297,231,39,0,0,0,250,250,0,,,,,,,,,,,,
37103,1560686928230,-0,2.22,2.05,3.18,1.85,2.74,0.9,-0.0,0.61,1,-2,-0,0.9,4424,12,67,32,52,502,0.0,480,461,60,122.0,0,1,297,231,39,0,0,0,250,250,0,,,,,,,,,,,,
37123,1560686928250,0,2.22,2.04,3.18,1.85,2.74,0.92,-0.01,0.62,1,-3,0,0.92,4460,13,67,32,52,502,0.0,474,460,60,122.0,0,1,297,231,39,0,0,0,250,250,0,,,,,,,,,,,,
37143,1560686928270,-2,2.23,2.05,3.17,1.85,2.73,0.96,0.05,0.62,1,-3,1,0.97,4484,12,67,32,52,502,0.0,477,459,60,122.0,0,1,297,231,39,0,0,0,250,250,0,45.700356,4.909449,0.0,201.2,0,0.0,-1,0.0,0.0,0,0.0,0.6191
37163,1560686928290,0,2.23,2.04,3.18,1.85,2.74,0.97,0.06,0.6,1,-4,1,0.97,4451,13,67,32,51,502,0.0,480,460,60,122.0,0,1,297,231,39,0,0,0,250,250,0,,,,,,,,,,,,
37183,1560686928304,-0,2.21,2.05,3.18,1.85,2.74,1.01,0.05,0.61,0,-5,1,1.01,4474,12,67,32,52,502,0.0,478,457,60,120.0,0,1,297,231,39,0,0,0,250,250,0,,,,,,,,,,,,
37203,1560686928324,-1,2.22,2.05,3.18,1.86,2.73,1.01,0.06,0.64,0,-6,0,1.01,4432,13,67,32,52,502,0.0,487,461,60,121.0,0,1,297,231,39,0,0,0,250,250,0,,,,,,,,,,,,
37223,1560686928410,-0,2.22,2.05,3.18,1.85,2.74,1.02,0.06,0.65,0,-5,0,1.03,4436,13,67,32,52,502,0.0,476,462,60,120.0,0,1,297,231,39,0,0,0,250,250,0,,,,,,,,,,,,
37243,1560686928430,0,2.21,2.05,3.18,1.85,2.72,0.99,0.04,0.67,0,-5,1,0.99,4439,13,67,32,52,502,0.0,485,458,60,120.0,0,1,297,231,39,0,0,0,250,250,0,45.700356,4.909449,0.0,201.2,0,0.0,-1,0.0,0.0,0,0.0,0.6207
37263,1560686928450,1,2.22,2.04,3.17,1.84,2.73,0.96,0.02,0.67,-0,-5,2,0.96,4419,12,67,32,52,502,0.0,484,461,60,120.0,0,1,297,231,39,0,0,0,250,250,0,,,,,,,,,,,,
37283,1560686928470,-1,2.23,2.05,3.17,1.85,2.74,0.89,-0.01,0.69,-0,-5,2,0.89,4448,13,67,32,52,502,0.0,475,458,60,120.0,0,1,297,231,39,0,0,0,250,250,0,,,,,,,,,,,,
37303,1560686928490,-0,2.23,2.05,3.17,1.84,2.73,0.84,-0.03,0.67,-1,-3,1,0.84,4457,13,67,32,52,502,0.0,477,463,60,121.0,0,1,297,231,39,0,0,0,250,250,0,,,,,,,,,,,,
37323,1560686928510,5,2.23,2.04,3.18,1.85,2.74,0.76,-0.01,0.65,-1,-1,1,0.76,4445,13,67,32,52,502,0.0,475,458,60,120.0,0,1,297,231,39,0,0,0,250,250,0,,,,,,,,,,,,
37343,1560686928530,5,2.23,2.04,3.18,1.85,2.73,0.7,-0.03,0.6,-1,1,0,0.7,4450,13,67,32,52,502,0.0,482,461,60,122.0,0,1,297,231,38,0,0,0,250,250,0,45.700356,4.909449,0.0,201.2,0,0.0,-1,0.0,0.0,0,0.0,0.6224
37363,1560686928550,5,2.22,2.04,3.17,1.85,2.73,0.63,-0.04,0.56,-1,1,-1,0.63,4445,13,67,32,52,502,0.0,476,461,60,121.0,0,1,297,231,38,0,0,0,250,250,0,,,,,,,,,,,,
37383,1560686928570,4,2.23,2.04,3.17,1.85,2.73,0.59,-0.03,0.51,-1,2,-1,0.59,4421,13,67,32,52,502,0.0,471,466,60,121.0,0,1,297,231,38,0,0,0,250,250,0,,,,,,,,,,,,
37403,1560686928590,4,2.22,2.05,3.18,1.84,2.73,0.57,-0.06,0.51,-1,4,-2,0.57,4428,13,67,32,52,502,0.0,476,463,60,122.0,0,1,297,231,38,0,0,0,250,250,0,,,,,,,,,,,,
37423,1560686928607,0,2.23,2.05,3.17,1.84,2.74,0.59,-0.07,0.51,-1,5,-1,0.59,4380,13,67,32,52,502,0.0,464,463,60,122.0,0,1,297,230,38,0,0,0,250,250,0,,,,,,,,,,,,
37443,1560686928627,-1,2.23,2.05,3.18,1.84,2.74,0.62,-0.07,0.51,-1,5,-1,0.62,4409,13,67,32,52,502,0.0,470,466,60,122.0,0,1,297,231,38,0,0,0,250,250,0,45.700356,4.909449,0.0,201.2,0,0.0,-1,0.0,0.0,0,0.0,0.624
37463,1560686928647,1,2.22,2.05,3.18,1.84,2.73,0.67,-0.1,0.52,-0,3,-1,0.68,4400,13,67,32,52,502,0.0,460,470,60,122.0,0,1,297,231,38,0,0,0,250,250,0,,,,,,,,,,,,
37483,1560686928667,-1,2.23,2.05,3.18,1.85,2.74,0.69,-0.12,0.57,-0,2,-1,0.7,4409,13,67,32,52,502,0.0,473,468,60,122.0,0,1,297,231,38,0,0,0,250,250,0,,,,,,,,,,,,
37503,1560686928687,0,2.22,2.04,3.17,1.85,2.73,0.73,-0.08,0.56,0,0,-1,0.74,4419,13,67,32,52,502,0.0,467,460,60,122.0,0,1,297,231,38,0,0,0,250,250,0,,,,,,,,,,,,
37523,1560686928695,-0,2.23,2.05,3.18,1.86,2.73,0.76,-0.08,0.56,1,-1,-1,0.77,4441,13,67,32,52,502,0.0,468,460,60,122.0,0,1,297,231,38,0,0,0,250,250,0,,,,,,,,,,,,
37543,1560686928715,-1,2.22,2.05,3.18,1.85,2.72,0.83,-0.05,0.57,1,-3,0,0.83,4414,13,67,32,52,503,0.0,472,460,60,122.0,0,1,297,231,38,0,0,0,250,250,0,45.700356,4.909449,0.0,201.2,0,0.0,-1,0.0,0.0,0,0.0,0.6257
37563,1560686928735,-2,2.23,2.05,3.17,1.84,2.74,0.88,0.0,0.6,1,-5,1,0.88,4477,13,67,32,52,503,0.0,469,463,60,120.0,0,1,297,231,38,0,0,0,250,250,0,,,,,,,,,,,,
37583,1560686928755,-1,2.22,2.05,3.18,1.84,2.74,0.93,-0.0,0.62,1,-5,0,0.93,4405,13,67,32,52,502,0.0,472,459,60,121.0,0,1,297,231,38,0,0,0,250,250,0,,,,,,,,,,,,
37603,1560686928775,-0,2.22,2.05,3.18,1.85,2.74,0.97,0.03,0.62,1,-4,-0,0.97,4394,13,67,32,52,502,0.0,462,460,60,121.0,0,1,297,230,38,0,0,0,250,250,0,,,,,,,,,,,,
37623,1560686928795,-1,2.23,2.05,3.18,1.86,2.74,0.99,0.03,0.63,0,-5,1,0.99,4419,13,67,32,52,502,0.0,478,453,60,120.0,0,1,297,231,38,0,0,0,250,250,0,,,,,,,,,,,,
37643,1560686928808,-2,2.23,2.05,3.18,1.84,2.73,1.0,0.03,0.63,0,-5,1,1.0,4425,13,67,32,52,502,0.0,477,461,60,120.0,0,1,297,231,38,0,0,0,250,250,0,45.700356,4.909449,0.0,201.2,0,0.0,-1,0.0,0.0,0,0.0,0.6274
37663,1560686928828,-2,2.23,2.05,3.17,1.85,2.73,0.99,0.03,0.64,0,-5,1,0.99,4446,13,67,32,52,502,0.0,470,459,60,120.0,0,1,297,231,38,0,0,0,250,250,0,,,,,,,,,,,,
37683,1560686928848,0,2.22,2.05,3.18,1.85,2.74,0.98,0.03,0.64,-0,-3,1,0.98,4472,13,67,32,52,502,0.0,480,463,60,121.0,0,1,297,231,38,0,0,0,250,250,0,,,,,,,,,,,,
37703,1560686928868,1,2.22,2.05,3.17,1.85,2.73,0.93,0.02,0.65,-0,-1,0,0.93,4434,13,67,32,52,502,0.0,481,458,60,120.0,0,1,297,231,38,0,0,0,250,250,0,,,,,,,,,,,,
37723,1560686928888,6,2.22,2.05,3.18,1.86,2.73,0.88,-0.01,0.67,-1,0,0,0.88,4442,13,67,32,52,502,0.0,472,460,60,120.0,0,1,297,231,38,0,0,0,250,250,0,,,,,,,,,,,,
37743,1560686928905,5,2.22,2.05,3.19,1.84,2.74,0.83,-0.03,0.69,-1,0,-0,0.83,4447,13,67,32,52,502,0.0,471,460,60,120.0,0,1,297,231,38,0,0,0,250,250,0,45.700356,4.909449,0.0,201.2,0,0.0,-1,0.0,0.0,0,0.0,0.629
37763,1560686928925,5,2.22,2.05,3.18,1.85,2.73,0.8,-0.07,0.68,-1,2,-1,0.81,4410,13,67,32,52,502,0.0,472,456,60,121.0,0,1,297,231,38,0,0,0,250,250,0,,,,,,,,,,,,
37783,1560686928945,2,2.22,2.05,3.18,1.84,2.74,0.73,-0.05,0.64,-1,3,-2,0.73,4457,13,67,32,52,502,0.0,479,462,60,121.0,0,1,297,231,38,0,0,0,250,250,0,,,,,,,,,,,,
37803,1560686928965,3,2.23,2.04,3.18,1.85,2.74,0.69,-0.06,0.58,-1,5,-2,0.69,4419,13,67,32,52,502,0.0,465,463,60,122.0,0,1,297,231,38,0,0,0,250,250,0,,,,,,,,,,,,
37823,1560686929003,4,2.22,2.05,3.18,1.85,2.73,0.64,-0.08,0.54,-1,5,-1,0.65,4435,13,67,32,52,502,0.0,473,464,60,122.0,0,1,297,231,38,0,0,0,250,250,0,,,,,,,,,,,,
37843,1560686929023,2,2.23,2.05,3.18,1.85,2.74,0.61,-0.07,0.49,-1,5,-1,0.62,4479,13,67,32,53,502,0.0,472,469,60,122.0,0,1,297,231,39,0,0,0,250,250,0,45.700356,4.909449,0.0,201.2,0,0.0,-1,0.0,0.0,0,0.0,0.6307
37863,1560686929043,3,2.23,2.04,3.18,1.85,2.73,0.58,-0.07,0.49,-0,6,-1,0.59,4466,13,67,32,52,502,0.0,476,466,60,122.0,0,1,297,231,39,0,0,0,250,250,0,,,,,,,,,,,,
37883,1560686929063,3,2.22,2.05,3.18,1.84,2.73,0.59,-0.1,0.5,-0,6,-2,0.6,4478,13,67,32,52,502,0.0,476,465,60,122.0,0,1,297,231,39,0,0,0,250,250,0,,,,,,,,,,,,
37903,1560686929083,1,2.22,2.05,3.17,1.84,2.73,0.54,-0.11,0.51,0,5,-2,0.55,4497,13,67,32,53,502,0.0,470,465,60,122.0,0,1,297,231,39,0,0,0,250,250,0,,,,,,,,,,,,
37923,1560686929109,3,2.21,2.05,3.18,1.85,2.74,0.53,-0.12,0.53,0,4,-3,0.54,4462,13,67,32,52,502,0.0,482,463,60,122.0,0,1,297,231,39,0,0,0,250,250,0,,,,,,,,,,,,
37943,1560686929129,-1,2.23,2.05,3.17,1.84,2.73,0.54,-0.17,0.57,1,4,-3,0.56,4506,13,67,32,52,502,0.0,472,465,60,122.0,0,1,298,232,39,0,0,0,250,250,0,45.700356,4.909449,0.0,201.2,0,0.0,-1,0.0,0.0,0,0.0,0.6324
37963,1560686929149,2,2.22,2.05,3.18,1.84,2.73,0.56,-0.16,0.56,1,5,-3,0.58,4451,13,67,32,52,502,0.0,473,465,60,122.0,0,1,297,231,39,0,0,0,250,250,0,,,,,,,,,,,,
37983,1560686929169,-1,2.21,2.05,3.18,1.85,2.73,0.55,-0.15,0.55,1,4,-2,0.57,4465,13,67,32,52,502,0.0,473,468,60,122.0,0,1,297,231,39,0,0,0,250,250,0,,,,,,,,,,,,
38003,1560686929189,1,2.21,2.05,3.18,1.85,2.74,0.56,-0.18,0.56,1,2,-1,0.59,4479,13,67,32,53,502,0.0,475,468,60,122.0,0,1,297,235,39,0,0,0,250,250,0,,,,,,,,,,,,
38023,1560686929209,1,2.22,2.04,3.18,1.84,2.73,0.59,-0.18,0.59,1,2,-1,0.62,4448,13,67,32,52,502,0.0,480,466,60,122.0,0,1,297,231,39,0,0,0,250,250,0,,,,,,,,,,,,
38043,1560686929229,-2,2.23,2.05,3.18,1.84,2.74,0.65,-0.12,0.59,1,2,-1,0.66,4464,13,67,32,53,502,0.0,467,466,60,122.0,0,1,297,231,38,0,0,0,250,250,0,45.700356,4.909449,0.0,201.2,0,0.0,-1,0.0,0.0,0,0.0,0.634
38063,1560686929249,0,2.22,2.04,3.17,1.85,2.74,0.68,-0.12,0.59,2,1,-2,0.69,4464,13,67,32,52,503,0.0,473,462,60,122.0,0,1,297,231,38,0,0,0,250,250,0,,,,,,,,,,,,
38083,1560686929269,0,2.22,2.04,3.17,1.85,2.73,0.74,-0.11,0.62,2,-2,-1,0.75,4446,13,67,32,52,503,0.0,476,459,60,122.0,0,1,297,231,38,0,0,0,250,250,0,,,,,,,,,,,,
38103,1560686929289,1,2.22,2.04,3.17,1.86,2.73,0.78,-0.05,0.64,2,-3,-1,0.78,4472,12,67,32,53,503,0.0,475,464,60,122.0,0,1,297,231,38,0,0,0,250,250,0,,,,,,,,,,,,
38123,1560686929309,-1,2.22,2.05,3.18,1.85,2.72,0.82,-0.03,0.63,2,-4,-1,0.82,4430,13,67,32,52,503,0.0,471,460,60,122.0,0,1,297,231,38,0,0,0,250,250,0,,,,,,,,,,,,
38143,1560686929329,1,2.22,2.05,3.18,1.84,2.74,0.86,0.0,0.61,2,-4,-1,0.86,4433,13,67,32,52,502,0.0,470,460,60,122.0,0,1,297,231,38,0,0,0,250,250,0,45.700356,4.909449,0.0,201.2,0,0.0,-1,0.0,0.0,0,0.0,0.6357
38163,1560686929349,1,2.22,2.04,3.17,1.85,2.73,0.91,0.03,0.6,2,-5,1,0.91,4452,13,67,32,52,502,0.0,482,453,60,122.0,0,1,297,231,38,0,0,0,250,250,0,,,,,,,,,,,,
38183,1560686929369,-1,2.21,2.05,3.18,1.85,2.73,0.96,0.04,0.62,2,-5,1,0.96,4425,13,67,32,52,502,0.0,475,461,60,120.0,0,1,297,231,38,0,0,0,250,250,0,,,,,,,,,,,,
38203,1560686929389,-0,2.22,2.05,3.19,1.84,2.74,1.01,0.03,0.65,2,-6,1,1.01,4460,13,67,32,52,502,0.0,476,462,60,120.0,0,1,297,231,38,0,0,0,250,250,0,,,,,,,,,,,,
38223,1560686929409,-1,2.22,2.05,3.18,1.86,2.74,1.04,0.07,0.63,1,-5,1,1.04,4471,13,67,32,52,502,0.0,481,457,60,121.0,0,1,297,231,38,0,0,0,250,250,0,,,,,,,,,,,,
38243,1560686929429,-2,2.22,2.04,3.18,1.85,2.74,1.02,0.09,0.6,1,-5,1,1.02,4424,13,67,32,52,502,0.0,470,457,60,120.0,0,1,297,231,39,0,0,0,250,250,0,45.700356,4.909449,0.0,201.2,0,0.0,-1,0.0,0.0,0,0.0,0.6374
38263,1560686929449,-0,2.22,2.05,3.18,1.84,2.74,1.01,0.05,0.61,1,-5,1,1.01,4468,12,67,32,52,502,0.0,478,456,60,120.0,0,1,297,231,39,0,0,0,250,250,0,,,,,,,,,,,,
38283,1560686929469,-0,2.22,2.05,3.19,1.85,2.73,0.99,0.04,0.64,0,-6,1,0.99,4394,13,67,32,52,502,0.0,467,462,60,120.0,0,1,297,230,39,0,0,0,250,250,0,,,,,,,,,,,,
38303,1560686929489,-1,2.22,2.05,3.18,1.85,2.73,0.96,0.03,0.65,0,-4,0,0.96,4413,13,67,32,52,502,0.0,476,459,60,120.0,0,1,297,231,39,0,0,0,250,250,0,,,,,,,,,,,,
38323,1560686929507,1,2.23,2.05,3.18,1.86,2.73,0.9,0.01,0.66,-0,-2,0,0.9,4421,13,67,32,52,502,0.0,471,461,60,120.0,0,1,297,231,39,0,0,0,250,250,0,,,,,,,,,,,,
38343,1560686929527,5,2.23,2.04,3.18,1.85,2.73,0.85,0.01,0.63,-0,-0,1,0.85,4395,12,67,32,52,502,0.0,471,461,60,120.0,0,1,297,230,38,0,0,0,250,250,0,45.700356,4.909449,0.0,201.2,0,0.0,-1,0.0,0.0,0,0.0,0.639
38363,1560686929547,5,2.22,2.05,3.18,1.85,2.73,0.78,-0.04,0.61,-0,-0,1,0.78,4403,13,67,32,53,502,0.0,474,463,60,121.0,0,1,297,235,38,0,0,0,250,250,0,,,,,,,,,,,,
38383,1560686929567,2,2.23,2.05,3.18,1.84,2.74,0.74,-0.04,0.56,-0,1,1,0.74,4427,13,67,32,52,502,0.0,466,460,60,121.0,0,1,297,231,38,0,0,0,250,250,0,,,,,,,,,,,,
38403,1560686929587,3,2.21,2.05,3.18,1.85,2.74,0.69,-0.03,0.53,-0,2,-0,0.69,4422,13,67,32,52,503,0.0,474,465,60,121.0,0,1,297,231,38,0,0,0,250,250,0,,,,,,,,,,,,
38423,1560686929608,4,2.21,2.05,3.18,1.85,2.74,0.69,-0.06,0.51,0,3,-1,0.69,4452,13,67,32,52,503,0.0,467,465,60,121.0,0,1,297,231,38,0,0,0,250,250,0,,,,,,,,,,,,
38443,1560686929628,4,2.22,2.05,3.17,1.86,2.73,0.64,-0.06,0.52,0,4,-1,0.65,4478,13,67,32,52,503,0.0,481,463,60,122.0,0,1,297,231,39,0,0,0,250,250,0,45.700356,4.909449,0.0,201.2,0,0.0,-1,0.0,0.0,0,0.0,0.6407
38463,1560686929648,1,2.23,2.05,3.17,1.85,2.73,0.65,-0.08,0.53,0,4,-2,0.65,4437,13,67,32,53,503,0.0,470,467,60,122.0,0,1,297,235,39,0,0,0,250,250,0,,,,,,,,,,,,
38483,1560686929668,2,2.22,2.05,3.18,1.85,2.73,0.66,-0.14,0.58,1,4,-2,0.67,4497,13,67,32,52,503,0.0,475,464,60,122.0,0,1,297,231,39,0,0,0,250,250,0,,,,,,,,,,,,
38503,1560686929688,1,2.22,2.05,3.18,1.85,2.73,0.68,-0.11,0.57,1,3,-2,0.69,4453,13,67,32,52,503,0.0,477,467,60,122.0,0,1,297,231,39,0,0,0,250,250,0,,,,,,,,,,,,
38523,1560686929706,-1,2.22,2.05,3.18,1.84,2.74,0.67,-0.1,0.57,1,3,-2,0.68,4460,13,67,32,53,503,0.0,472,463,60,123.0,0,1,297,231,39,0,0,0,250,250,0,,,,,,,,,,,,
38543,1560686929726,0,2.21,2.05,3.18,1.85,2.72,0.7,-0.13,0.6,1,3,-1,0.72,4468,13,67,32,52,503,0.0,474,470,60,122.0,0,1,297,231,39,0,0,0,250,250,0,45.700356,4.909449,0.0,201.2,0,0.0,-1,0.0,0.0,0,0.0,0.6424
38563,1560686929746,1,2.21,2.05,3.18,1.84,2.73,0.74,-0.12,0.64,1,2,-1,0.75,4433,13,67,32,53,503,0.0,468,464,60,123.0,0,1,297,235,39,0,0,0,250,250,0,,,,,,,,,,,,
38583,1560686929766,0,2.21,2.05,3.17,1.85,2.73,0.8,-0.07,0.65,1,2,-1,0.8,4450,13,67,32,53,503,0.0,470,465,60,122.0,0,1,297,231,39,0,0,0,250,250,0,,,,,,,,,,,,
38603,1560686929786,0,2.21,2.05,3.18,1.85,2.74,0.84,-0.07,0.68,1,0,-1,0.85,4471,13,67,32,52,503,0.0,478,462,60,122.0,0,1,297,231,39,0,0,0,250,250,0,,,,,,,,,,,,
38623,1560686929806,-1,2.21,2.05,3.18,1.85,2.72,0.89,-0.06,0.7,2,-2,-1,0.89,4445,13,67,32,52,503,0.0,473,455,60,122.0,0,1,297,231,39,0,0,0,250,250,0,,,,,,,,,,,,
38643,1560686929826,-0,2.21,2.05,3.18,1.86,2.72,0.91,0.01,0.73,2,-2,-1,0.91,4465,13,67,32,52,503,0.0,475,464,60,122.0,0,1,297,231,38,0,0,0,250,250,0,45.700356,4.909449,0.0,201.2,0,0.0,-1,0.0,0.0,0,0.0,0.644
38663,1560686929846,0,2.22,2.04,3.18,1.85,2.73,0.95,0.02,0.73,2,-4,-1,0.95,4412,13,67,32,52,502,0.0,472,461,60,122.0,0,1,297,231,38,0,0,0,250,250,0,,,,,,,,,,,,
38683,1560686929866,-2,2.22,2.05,3.18,1.85,2.72,0.97,0.03,0.7,2,-4,-0,0.97,4422,13,67,32,52,502,0.0,471,460,60,122.0,0,1,297,231,38,0,0,0,250,250,0,,,,,,,,,,,,
38703,1560686929886,0,2.21,2.05,3.18,1.85,2.72,1.0,0.07,0.68,2,-5,1,1.0,4447,13,67,32,52,502,0.0,476,453,60,122.0,0,1,297,231,38,0,0,0,250,250,0,,,,,,,,,,,,
38723,1560686929908,-2,2.21,2.05,3.18,1.84,2.74,1.01,0.04,0.69,1,-6,1,1.01,4429,13,67,32,52,502,0.0,471,457,60,121.0,0,1,297,231,38,0,0,0,250,250,0,,,,,,,,,,,,
38743,1560686929928,-0,2.21,2.05,3.18,1.84,2.73,1.01,0.02,0.69,1,-6,1,1.01,4486,13,67,32,52,502,0.0,481,456,60,120.0,0,1,297,231,38,0,0,0,250,250,0,45.700356,4.909449,0.0,201.2,0,0.0,-1,0.0,0.0,0,0.0,0.6457
38763,1560686929948,-0,2.22,2.05,3.19,1.84,2.73,1.02,0.04,0.68,1,-5,2,1.02,4494,13,67,32,52,502,0.0,477,460,60,121.0,0,1,297,231,38,0,0,0,250,250,0,,,,,,,,,,,,
38783,1560686929968,-1,2.22,2.04,3.18,1.85,2.74,1.0,0.02,0.69,1,-6,2,1.0,4464,13,67,32,52,502,0.0,481,458,60,121.0,0,1,297,231,38,0,0,0,250,250,0,,,,,,,,,,,,
38803,1560686929988,0,2.21,2.05,3.18,1.84,2.73,1.02,-0.01,0.69,0,-6,2,1.02,4499,12,67,32,52,502,0.0,478,456,60,120.0,0,1,297,235,38,0,0,0,250,250,0,,,,,,,,,,,,
38823,1560686930002,-2,2.22,2.05,3.17,1.85,2.73,1.01,-0.0,0.7,0,-7,1,1.01,4464,13,67,32,52,502,0.0,475,461,60,119.0,0,1,297,231,38,0,0,0,250,250,0,,,,,,,,,,,,
38843,1560686930022,1,2.22,2.05,3.17,1.85,2.73,1.0,0.02,0.71,0,-6,1,1.0,4460,13,67,32,52,502,0.0,485,461,60,121.0,0,1,297,231,39,0,0,0,250,250,0,45.700356,4.909449,0.0,201.2,0,0.0,-1,0.0,0.0,0,0.0,0.6474
38863,1560686930042,0,2.22,2.05,3.18,1.84,2.74,0.98,-0.01,0.72,-0,-7,2,0.98,4472,13,67,32,52,502,0.0,473,458,60,120.0,0,1,297,235,39,0,0,0,250,250,0,,,,,,,,,,,,
38883,1560686930062,-2,2.22,2.05,3.18,1.86,2.72,0.94,-0.03,0.72,-0,-6,2,0.94,4444,12,67,32,52,502,0.0,484,455,60,120.0,0,1,297,231,39,0,0,0,250,250,0,,,,,,,,,,,,
38903,1560686930082,-0,2.22,2.05,3.18,1.85,2.74,0.87,-0.02,0.72,-0,-6,3,0.88,4481,12,67,32,52,502,0.0,471,464,60,120.0,0,1,297,231,39,0,0,0,250,250,0,,,,,,,,,,,,
38923,1560686930110,0,2.23,2.05,3.18,1.85,2.73,0.86,-0.03,0.72,-0,-4,2,0.86,4489,13,67,33,52,502,0.0,475,460,60,120.0,0,1,297,231,39,0,0,0,250,250,0,,,,,,,,,,,,
38943,1560686930130,-1,2.22,2.06,3.18,1.86,2.73,0.82,-0.05,0.73,-1,-4,2,0.82,4462,13,67,33,52,502,0.0,475,462,60,120.0,0,1,297,231,38,0,0,0,250,250,0,45.700356,4.909449,0.0,201.2,0,0.0,-1,0.0,0.0,0,0.0,0.649
38963,1560686930150,-1,2.22,2.05,3.18,1.85,2.74,0.76,-0.03,0.7,-1,-3,2,0.76,4476,12,67,33,53,502,0.0,471,461,60,120.0,0,1,297,235,38,0,0,0,250,250,0,,,,,,,,,,,,
38983,1560686930170,2,2.22,2.05,3.17,1.86,2.73,0.7,-0.06,0.7,-1,-4,1,0.71,4448,13,67,33,52,502,0.0,483,456,60,121.0,0,1,297,231,38,0,0,0,250,250,0,,,,,,,,,,,,
39003,1560686930190,5,2.22,2.05,3.18,1.85,2.73,0.68,-0.08,0.66,-1,-2,1,0.68,4398,13,67,33,53,502,0.0,462,463,60,120.0,0,1,297,234,38,0,0,0,250,250,0,,,,,,,,,,,,
39023,1560686930210,5,2.22,2.05,3.18,1.86,2.73,0.63,-0.06,0.62,-1,0,0,0.63,4460,13,67,33,53,502,0.0,476,458,60,121.0,0,1,297,235,38,0,0,0,250,250,0,,,,,,,,,,,,
39043,1560686930230,5,2.22,2.04,3.17,1.85,2.73,0.63,-0.09,0.59,-1,2,0,0.64,4422,13,67,33,53,502,0.0,476,465,60,122.0,0,1,297,235,39,0,0,0,250,250,0,45.700356,4.909449,0.0,201.2,0,0.0,-1,0.0,0.0,0,0.0,0.6507
39063,1560686930250,3,2.22,2.05,3.18,1.85,2.73,0.6,-0.11,0.57,-1,2,0,0.61,4409,13,67,33,53,502,0.0,466,463,60,121.0,0,1,297,235,39,0,0,0,250,250,0,,,,,,,,,,,,
39083,1560686930270,4,2.21,2.05,3.18,1.85,2.73,0.59,-0.11,0.55,-1,3,0,0.6,4433,13,67,33,52,503,0.0,471,473,60,122.0,0,1,297,231,39,0,0,0,250,250,0,,,,,,,,,,,,
39103,1560686930290,3,2.22,2.04,3.18,1.86,2.73,0.59,-0.13,0.58,-0,4,-0,0.6,4412,13,67,33,52,503,0.0,467,466,60,122.0,0,1,297,235,39,0,0,0,250,250,0,,,,,,,,,,,,
39123,1560686930310,2,2.21,2.06,3.18,1.85,2.74,0.63,-0.09,0.56,-0,4,-1,0.63,4427,13,67,33,53,503,0.0,477,466,60,122.0,0,1,297,235,39,0,0,0,250,250,0,,,,,,,,,,,,
39143,1560686930330,1,2.21,2.05,3.18,1.85,2.72,0.65,-0.09,0.58,0,3,-1,0.66,4457,13,67,33,52,503,0.0,467,465,60,122.0,0,1,297,231,39,0,0,0,250,250,0,45.700356,4.909449,0.0,201.2,0,0.0,-1,0.0,0.0,0,0.0,0.6524
39163,1560686930350,1,2.21,2.04,3.18,1.84,2.74,0.7,-0.09,0.6,0,2,-1,0.7,4434,13,67,33,52,503,0.0,470,468,60,122.0,0,1,297,231,39,0,0,0,250,250,0,,,,,,,,,,,,
39183,1560686930370,1,2.2,2.05,3.17,1.85,2.73,0.74,-0.03,0.63,1,2,-2,0.74,4479,13,67,33,52,503,0.0,481,468,60,122.0,0,1,297,231,39,0,0,0,250,250,0,,,,,,,,,,,,
39203,1560686930390,-2,2.21,2.05,3.17,1.85,2.73,0.78,-0.01,0.63,1,1,-2,0.78,4448,13,67,33,53,503,0.0,467,462,60,122.0,0,1,297,231,39,0,0,0,250,250,0,,,,,,,,,,,,
39223,1560686930410,-0,2.21,2.04,3.18,1.85,2.73,0.82,0.02,0.62,1,1,-1,0.82,4466,13,67,33,53,503,0.0,475,462,60,122.0,0,1,297,231,39,0,0,0,250,250,0,,,,,,,,,,,,
39243,1560686930430,0,2.21,2.05,3.17,1.85,2.73,0.88,0.03,0.61,1,-2,-0,0.88,4480,13,67,33,52,503,0.0,467,463,60,122.0,0,1,297,231,39,0,0,0,250,250,0,45.700356,4.909449,0.0,201.2,0,0.0,-1,0.0,0.0,0,0.0,0.654
39263,1560686930450,-2,2.2,2.05,3.18,1.84,2.74,0.93,0.07,0.64,1,-3,0,0.94,4446,12,67,33,52,503,0.0,483,458,60,122.0,0,1,297,231,39,0,0,0,250,250,0,,,,,,,,,,,,
39283,1560686930470,0,2.2,2.05,3.18,1.85,2.73,0.99,0.07,0.66,1,-3,0,0.99,4461,13,67,33,52,503,0.0,472,460,60,122.0,0,1,297,231,39,0,0,0,250,250,0,,,,,,,,,,,,
39303,1560686930490,1,2.2,2.05,3.19,1.85,2.72,1.03,0.12,0.64,2,-3,0,1.03,4469,13,67,33,52,503,0.0,472,457,60,122.0,0,1,297,231,39,0,0,0,250,250,0,,,,,,,,,,,,
39323,1560686930508,-0,2.21,2.05,3.18,1.85,2.73,1.06,0.12,0.67,1,-5,1,1.07,4454,13,67,33,52,503,0.0,476,460,60,121.0,0,1,297,231,39,0,0,0,250,250,0,,,,,,,,,,,,
39343,1560686930528,-2,2.21,2.05,3.17,1.85,2.73,1.07,0.17,0.69,1,-6,1,1.08,4496,12,67,33,52,503,0.0,475,460,60,122.0,0,1,297,231,39,0,0,0,250,250,0,45.700356,4.909449,0.0,201.2,0,0.0,-1,0.0,0.0,0,0.0,0.6557
39363,1560686930548,-0,2.2,2.05,3.18,1.85,2.72,1.09,0.17,0.69,2,-7,0,1.11,4464,12,67,33,52,503,0.0,477,461,60,122.0,0,1,297,231,39,0,0,0,250,250,0,,,,,,,,,,,,
39383,1560686930568,-1,2.2,2.04,3.18,1.85,2.73,1.11,0.17,0.66,2,-7,1,1.12,4476,13,67,33,52,502,0.0,473,459,60,121.0,0,1,297,231,39,0,0,0,250,250,0,,,,,,,,,,,,
39403,1560686930588,-2,2.21,2.05,3.17,1.86,2.73,1.12,0.19,0.63,2,-8,2,1.14,4495,13,67,33,52,502,0.0,476,456,60,122.0,0,1,297,231,39,0,0,0,250,250,0,,,,,,,,,,,,
39423,1560686930605,-0,2.2,2.05,3.18,1.85,2.72,1.16,0.21,0.66,1,-8,2,1.18,4477,12,67,33,52,502,0.0,483,461,60,123.0,0,1,297,231,39,0,0,0,250,250,0,,,,,,,,,,,,
39443,1560686930625,-1,2.21,2.05,3.18,1.85,2.74,1.19,0.2,0.67,1,-8,2,1.21,4495,13,67,33,52,502,0.0,468,457,60,122.0,0,1,297,231,39,0,0,0,250,250,0,45.700356,4.909449,0.0,201.2,0,0.0,-1,0.0,0.0,0,0.0,0.6574
39463,1560686930645,0,2.21,2.04,3.18,1.85,2.73,1.2,0.23,0.64,1,-8,2,1.22,4481,13,67,33,52,502,0.0,481,460,60,122.0,0,1,297,231,39,0,0,0,250,250,0,,,,,,,,,,,,
39483,1560686930665,1,2.2,2.05,3.18,1.84,2.74,1.22,0.26,0.63,1,-9,3,1.24,4465,13,67,33,52,502,0.0,478,458,60,122.0,0,1,297,231,39,0,0,0,250,250,0,,,,,,,,,,,,
39503,1560686930685,0,2.2,2.06,3.18,1.85,2.72,1.22,0.25,0.66,1,-9,3,1.25,4443,12,67,33,52,502,0.0,475,458,60,121.0,0,1,297,231,39,0,0,0,250,250,0,,,,,,,,,,,,
39523,1560686930705,-1,2.21,2.04,3.18,1.85,2.74,1.21,0.21,0.67,0,-9,2,1.23,4408,12,67,33,52,502,0.0,475,459,60,121.0,0,1,297,235,39,0,0,0,250,250,0,,,,,,,,,,,,
39543,1560686930725,0,2.21,2.04,3.18,1.85,2.74,1.19,0.22,0.66,0,-8,2,1.21,4378,13,67,33,52,502,0.0,468,456,60,120.0,0,1,297,234,39,0,0,0,250,250,0,45.700356,4.909449,0.0,201.2,0,0.0,-1,0.0,0.0,0,0.0,0.659
39563,1560686930745,-0,2.21,2.05,3.18,1.86,2.74,1.14,0.16,0.67,0,-7,1,1.15,4377,13,67,33,53,502,0.0,476,459,60,121.0,0,1,297,234,39,0,0,0,250,250,0,,,,,,,,,,,,
39583,1560686930765,1,2.21,2.05,3.18,1.85,2.73,1.08,0.12,0.67,-0,-5,1,1.09,4437,13,67,33,53,502,0.0,473,462,60,120.0,0,1,297,235,39,0,0,0,250,250,0,,,,,,,,,,,,
39603,1560686930785,5,2.2,2.05,3.18,1.85,2.74,1.03,0.08,0.68,-0,-4,1,1.03,4418,13,67,33,52,502,0.0,471,460,60,121.0,0,1,297,231,39,0,0,0,250,250,0,,,,,,,,,,,,
39623,1560686930805,3,2.22,2.05,3.18,1.86,2.73,0.97,0.04,0.65,-0,-3,1,0.98,4407,13,67,33,53,502,0.0,471,461,60,120.0,0,1,297,235,39,0,0,0,250,250,0,,,,,,,,,,,,
39643,1560686930825,4,2.21,2.04,3.18,1.85,2.74,0.9,0.05,0.63,-0,-2,1,0.9,4453,13,67,33,52,502,0.0,475,470,60,122.0,0,1,297,231,39,0,0,0,250,250,0,45.700356,4.909449,0.0,201.2,0,0.0,-1,0.0,0.0,0,0.0,0.6607
39663,1560686930845,4,2.21,2.04,3.18,1.85,2.73,0.85,0.02,0.61,-0,0,1,0.85,4412,13,67,33,52,502,0.0,473,462,60,121.0,0,1,297,231,39,0,0,0,250,250,0,,,,,,,,,,,,
39683,1560686930865,3,2.21,2.05,3.18,1.85,2.73,0.76,-0.01,0.59,-0,1,0,0.76,4457,13,67,33,52,502,0.0,466,465,60,122.0,0,1,297,231,39,0,0,0,250,250,0,,,,,,,,,,,,
39703,1560686930885,3,2.21,2.04,3.18,1.85,2.73,0.72,-0.0,0.53,-0,2,-0,0.72,4437,13,67,33,53,502,0.0,480,469,60,122.0,0,1,297,235,39,0,0,0,250,250,0,,,,,,,,,,,,
39723,1560686930909,1,2.21,2.05,3.19,1.85,2.74,0.69,-0.03,0.53,0,3,-1,0.69,4419,13,67,33,53,502,0.0,467,469,60,122.0,0,1,297,235,39,0,0,0,250,250,0,,,,,,,,,,,,
39743,1560686930929,2,2.21,2.05,3.18,1.84,2.74,0.72,-0.04,0.5,0,3,-2,0.72,4445,13,67,33,53,503,0.0,467,463,60,122.0,0,1,297,231,38,0,0,0,250,250,0,45.700356,4.909449,0.0,201.2,0,0.0,-1,0.0,0.0,0,0.0,0.6624
39763,1560686930949,2,2.21,2.04,3.18,1.85,2.74,0.72,-0.04,0.51,1,2,-2,0.72,4423,13,67,33,53,503,0.0,468,464,60,122.0,0,1,297,235,38,0,0,0,250,250,0,,,,,,,,,,,,
39783,1560686930969,-1,2.21,2.05,3.18,1.85,2.74,0.74,-0.06,0.53,1,0,-1,0.74,4408,13,67,33,53,503,0.0,462,470,60,122.0,0,1,297,231,38,0,0,0,250,250,0,,,,,,,,,,,,
39803,1560686930989,-2,2.22,2.05,3.18,1.86,2.73,0.75,-0.03,0.56,1,-1,-0,0.75,4447,13,67,33,53,503,0.0,474,458,60,122.0,0,1,297,235,38,0,0,0,250,250,0,,,,,,,,,,,,
39823,1560686931003,-1,2.21,2.05,3.18,1.85,2.72,0.8,0.01,0.58,1,-1,-0,0.8,4405,13,67,33,52,503,0.0,463,461,60,122.0,0,1,297,231,38,0,0,0,250,250,0,,,,,,,,,,,,
39843,1560686931023,-0,2.21,2.05,3.18,1.85,2.73,0.86,0.04,0.6,1,-2,-0,0.86,4467,13,67,33,52,503,0.0,473,462,60,122.0,0,1,297,231,38,0,0,0,250,250,0,45.700356,4.909449,0.0,201.2,0,0.0,-1,0.0,0.0,0,0.0,0.664
39863,1560686931043,-0,2.2,2.05,3.18,1.85,2.74,0.92,0.07,0.6,1,-4,1,0.92,4458,13,67,33,52,503,0.0,475,457,60,122.0,0,1,297,231,38,0,0,0,250,250,0,,,,,,,,,,,,
39883,1560686931063,-1,2.21,2.05,3.18,1.86,2.73,0.97,0.12,0.63,1,-5,1,0.97,4456,13,67,33,52,503,0.0,471,458,60,121.0,0,1,297,231,38,0,0,0,250,250,0,,,,,,,,,,,,
39903,1560686931083,-2,2.21,2.05,3.17,1.85,2.74,1.0,0.09,0.64,1,-6,0,1.0,4429,13,67,33,52,503,0.0,471,462,60,120.0,0,1,297,231,38,0,0,0,250,250,0,,,,,,,,,,,,
39923,1560686931103,-1,2.21,2.04,3.18,1.85,2.73,1.02,0.1,0.63,1,-5,0,1.03,4404,13,67,33,52,503,0.0,468,457,60,122.0,0,1,297,231,38,0,0,0,250,250,0,,,,,,,,,,,,
39943,1560686931123,-0,2.2,2.04,3.18,1.85,2.74,1.02,0.1,0.63,1,-6,0,1.03,4397,13,67,33,52,503,0.0,474,457,60,122.0,0,1,297,230,39,0,0,0,250,250,0,45.700356,4.909449,0.0,201.2,0,0.0,-1,0.0,0.0,0,0.0,0.6657
39963,1560686931143,1,2.21,2.05,3.18,1.84,2.74,1.02,0.05,0.64,0,-5,1,1.02,4457,13,67,33,52,503,0.0,471,457,60,120.0,0,1,297,231,39,0,0,0,250,250,0,,,,,,,,,,,,
39983,1560686931163,-0,2.2,2.05,3.18,1.85,2.72,1.0,0.05,0.65,0,-5,1,1.0,4429,13,67,33,52,503,0.0,476,462,60,120.0,0,1,297,231,39,0,0,0,250,250,0,,,,,,,,,,,,
40003,1560686931183,-1,2.21,2.05,3.17,1.86,2.73,0.98,0.04,0.66,0,-4,1,0.99,4464,13,67,33,52,503,0.0,479,458,60,120.0,0,1,297,235,39,0,0,0,250,250,0,,,,,,,,,,,,
40023,1560686931210,-0,2.21,2.05,3.18,1.86,2.73,0.93,-0.0,0.68,-0,-4,2,0.93,4455,13,67,33,52,502,0.0,476,459,60,120.0,0,1,297,231,39,0,0,0,250,250,0,,,,,,,,,,,,
40043,1560686931230,0,2.21,2.04,3.18,1.85,2.74,0.87,0.0,0.67,-0,-3,2,0.87,4432,13,67,33,52,502,0.0,480,458,60,120.0,0,1,297,231,38,0,0,0,250,250,0,45.700356,4.909449,0.0,201.2,0,0.0,-1,0.0,0.0,0,0.0,0.6674
40063,1560686931250,1,2.21,2.05,3.17,1.86,2.73,0.82,-0.02,0.68,-1,-3,1,0.82,4471,13,67,33,52,502,0.0,469,461,60,121.0,0,1,297,231,38,0,0,0,250,250,0,,,,,,,,,,,,
40083,1560686931270,5,2.2,2.05,3.18,1.84,2.74,0.79,-0.04,0.66,-1,-1,-0,0.79,4464,13,67,33,53,502,0.0,485,462,60,120.0,0,1,297,235,38,0,0,0,250,250,0,,,,,,,,,,,,
40103,1560686931290,6,2.2,2.05,3.18,1.84,2.73,0.75,-0.04,0.65,-1,-0,-1,0.75,4457,13,67,33,52,503,0.0,472,457,60,120.0,0,1,297,231,38,0,0,0,250,250,0,,,,,,,,,,,,
40123,1560686931309,5,2.2,2.05,3.18,1.85,2.73,0.72,-0.05,0.63,-1,1,-1,0.72,4485,13,67,33,53,503,0.0,475,467,60,122.0,0,1,297,235,38,0,0,0,250,250,0,,,,,,,,,,,,
40143,1560686931329,5,2.21,2.05,3.18,1.85,2.72,0.68,-0.09,0.61,-1,1,-1,0.68,4466,13,67,33,52,503,0.0,480,461,60,120.0,0,1,297,231,39,0,0,0,250,250,0,45.700356,4.909449,0.0,201.2,0,0.0,-1,0.0,0.0,0,0.0,0.669
40163,1560686931349,3,2.21,2.05,3.18,1.85,2.72,0.64,-0.1,0.56,-1,3,-1,0.65,4466,13,67,33,52,503,0.0,468,475,60,122.0,0,1,297,235,39,0,0,0,250,250,0,,,,,,,,,,,,
40183,1560686931369,5,2.21,2.04,3.18,1.86,2.73,0.61,-0.09,0.55,-1,3,-0,0.62,4516,13,67,33,53,503,0.0,482,470,60,121.0,0,1,298,236,39,0,0,0,250,250,0,,,,,,,,,,,,
40203,1560686931389,4,2.21,2.04,3.18,1.85,2.74,0.59,-0.12,0.54,-1,4,-0,0.6,4473,13,67,33,53,503,0.0,477,462,60,121.0,0,1,297,235,39,0,0,0,250,250,0,,,,,,,,,,,,
40223,1560686931409,4,2.21,2.05,3.19,1.85,2.73,0.52,-0.14,0.53,-1,4,-1,0.54,4521,13,67,33,53,503,0.0,483,472,60,121.0,0,1,298,236,39,0,0,0,250,250,0,,,,,,,,,,,,
40243,1560686931429,6,2.21,2.05,3.18,1.86,2.73,0.51,-0.14,0.5,-1,6,-2,0.53,4521,13,67,33,53,503,0.0,485,463,60,120.0,0,1,298,236,40,0,0,0,250,250,0,45.700356,4.909449,0.0,201.2,0,0.0,-1,0.0,0.0,0,0.0,0.6707
40263,1560686931449,4,2.2,2.05,3.18,1.85,2.74,0.49,-0.13,0.47,-1,6,-2,0.51,4535,14,67,33,54,503,0.0,479,455,60,120.0,0,1,298,236,40,0,0,0,250,250,0,,,,,,,,,,,,
40283,1560686931469,4,2.21,2.05,3.17,1.86,2.73,0.47,-0.15,0.45,-1,7,-2,0.49,4520,14,67,33,54,503,0.0,486,465,60,121.0,0,1,298,240,40,0,0,0,250,250,0,,,,,,,,,,,,
40303,1560686931489,4,2.21,2.05,3.18,1.85,2.74,0.46,-0.18,0.44,-1,6,-2,0.49,4519,14,67,33,55,503,0.0,481,461,60,120.0,0,1,298,240,40,0,0,0,250,250,0,,,,,,,,,,,,
40323,1560686931507,-1,2.2,2.05,3.18,1.85,2.73,0.46,-0.2,0.43,-1,7,-2,0.5,4539,15,67,33,55,502,0.0,481,462,60,120.0,0,1,298,243,40,0,0,0,250,250,0,,,,,,,,,,,,
40343,1560686931527,1,2.2,2.05,3.18,1.85,2.74,0.44,-0.19,0.45,-2,6,-1,0.48,4554,15,67,33,55,502,0.0,488,457,60,120.0,0,1,298,244,42,0,0,0,250,250,0,45.700356,4.909449,0.0,201.2,0,0.0,-1,0.0,0.0,0,0.0,0.6724
40363,1560686931547,-2,2.21,2.05,3.18,1.85,2.73,0.43,-0.18,0.48,-2,7,-1,0.47,4564,15,67,33,55,502,0.0,478,462,60,121.0,0,1,298,244,42,0,0,0,250,250,0,,,,,,,,,,,,
40383,1560686931567,0,2.21,2.06,3.17,1.86,2.73,0.43,-0.19,0.54,-2,5,-2,0.47,4602,15,67,33,56,502,0.0,494,460,60,120.0,0,1,297,251,42,0,0,0,250,250,0,,,,,,,,,,,,
40403,1560686931587,-0,2.2,2.05,3.19,1.85,2.74,0.49,-0.19,0.57,-2,5,-2,0.52,4595,14,67,33,55,502,0.0,491,455,60,121.0,0,1,298,244,42,0,0,0,250,250,0,,,,,,,,,,,,
40423,1560686931606,-0,2.2,2.05,3.18,1.85,2.73,0.52,-0.18,0.62,-2,3,-1,0.56,4560,13,67,33,55,503,0.0,491,451,60,120.0,0,1,298,244,42,0,0,0,250,250,0,,,,,,,,,,,,
40443,1560686931626,0,2.2,2.05,3.18,1.86,2.73,0.57,-0.19,0.64,-2,3,-1,0.6,4564,12,67,33,55,503,0.0,487,455,60,119.0,0,1,298,244,42,0,0,0,250,250,0,45.700356,4.909449,0.0,201.2,0,0.0,-1,0.0,0.0,0,0.0,0.674
40463,1560686931646,0,2.21,2.05,3.18,1.85,2.74,0.62,-0.15,0.63,-2,1,-0,0.64,4535,12,67,33,54,503,0.0,480,462,60,122.0,0,1,298,240,42,0,0,0,250,250,0,,,,,,,,,,,,
40483,1560686931666,1,2.2,2.05,3.18,1.84,2.74,0.71,-0.08,0.64,-1,1,0,0.71,4538,11,67,33,53,503,0.0,492,453,60,122.0,0,1,298,236,42,0,0,0,250,250,0,,,,,,,,,,,,
40503,1560686931686,0,2.2,2.05,3.18,1.84,2.73,0.75,-0.05,0.63,-1,-1,1,0.75,4489,11,67,33,53,503,0.0,484,454,60,120.0,0,1,297,239,42,0,0,0,250,250,0,,,,,,,,,,,,
40523,1560686931706,-0,2.2,2.05,3.18,1.85,2.73,0.79,-0.05,0.65,-1,-2,1,0.79,4468,11,67,33,53,502,0.0,480,459,60,121.0,0,1,297,235,42,0,0,0,250,250,0,,,,,,,,,,,,
40543,1560686931726,-2,2.21,2.05,3.17,1.85,2.73,0.81,-0.03,0.66,-1,-4,1,0.81,4442,11,67,33,53,502,0.0,477,457,60,119.0,0,1,297,235,39,0,0,0,250,250,0,45.700356,4.909449,0.0,201.2,0,0.0,-1,0.0,0.0,0,0.0,0.6757
40563,1560686931746,-2,2.21,2.05,3.18,1.86,2.73,0.82,-0.03,0.68,-1,-3,0,0.82,4398,11,67,33,53,502,0.0,471,460,60,120.0,0,1,297,234,39,0,0,0,250,250,0,,,,,,,,,,,,
40583,1560686931766,1,2.2,2.05,3.18,1.85,2.72,0.79,-0.06,0.69,-1,-3,0,0.79,4378,11,67,33,52,502,0.0,465,461,60,120.0,0,1,297,230,39,0,0,0,250,250,0,,,,,,,,,,,,
40603,1560686931786,0,2.21,2.05,3.17,1.86,2.73,0.75,-0.07,0.69,-1,-1,1,0.75,4435,11,67,33,52,502,0.0,468,455,60,121.0,0,1,297,231,39,0,0,0,250,250,0,,,,,,,,,,,,
40623,1560686931806,6,2.21,2.05,3.18,1.85,2.73,0.71,-0.09,0.68,-1,-1,1,0.72,4372,11,67,33,52,502,0.0,474,460,60,120.0,0,1,297,230,39,0,0,0,250,250,0,,,,,,,,,,,,
40643,1560686931826,4,2.21,2.04,3.18,1.85,2.74,0.69,-0.1,0.63,-1,1,1,0.69,4383,11,67,33,51,502,0.0,460,467,60,122.0,0,1,297,225,38,0,0,0,250,250,0,45.700356,4.909449,0.0,201.2,0,0.0,-1,0.0,0.0,0,0.0,0.6774
40663,1560686931846,5,2.2,2.05,3.17,1.85,2.73,0.64,-0.09,0.58,-1,2,0,0.65,4431,11,67,33,51,502,0.0,472,461,60,121.0,0,1,297,227,38,0,0,0,250,250,0,,,,,,,,,,,,
40683,1560686931866,3,2.21,2.04,3.18,1.85,2.73,0.64,-0.1,0.55,-1,3,0,0.64,4377,11,67,33,51,503,0.0,470,460,60,121.0,0,1,297,225,38,0,0,0,250,250,0,,,,,,,,,,,,
40703,1560686931886,2,2.21,2.04,3.18,1.85,2.73,0.6,-0.09,0.55,-1,3,-0,0.61,4419,11,67,33,51,503,0.0,458,470,60,122.0,0,1,297,227,38,0,0,0,250,250,0,,,,,,,,,,,,
40723,1560686931908,2,2.22,2.04,3.18,1.85,2.73,0.63,-0.11,0.58,-1,3,-1,0.64,4399,11,67,33,51,503,0.0,465,467,60,122.0,0,1,297,225,38,0,0,0,250,250,0,,,,,,,,,,,,
40743,1560686931928,0,2.2,2.05,3.18,1.85,2.73,0.67,-0.1,0.6,-0,3,-2,0.68,4377,11,67,33,51,503,0.0,457,467,60,122.0,0,1,297,225,37,0,0,0,250,250,0,45.700356,4.909449,0.0,201.2,0,0.0,-1,0.0,0.0,0,0.0,0.6791
40763,1560686931948,-0,2.2,2.05,3.18,1.85,2.74,0.75,-0.07,0.59,0,1,-1,0.75,4397,11,67,33,51,503,0.0,470,461,60,122.0,0,1,297,222,37,0,0,0,250,250,0,,,,,,,,,,,,
40783,1560686931968,-0,2.2,2.05,3.18,1.86,2.73,0.79,-0.05,0.59,0,0,-1,0.79,4337,11,67,33,50,503,0.0,463,461,60,122.0,0,1,296,221,37,0,0,0,250,250,0,,,,,,,,,,,,
40803,1560686931988,0,2.21,2.05,3.17,1.85,2.73,0.83,-0.01,0.58,0,-2,0,0.83,4323,11,67,33,50,503,0.0,460,455,60,122.0,0,1,296,221,37,0,0,0,250,250,0,,,,,,,,,,,,
40823,1560686932004,-0,2.2,2.05,3.18,1.85,2.74,0.84,-0.04,0.59,-0,-3,1,0.84,4354,11,67,33,50,503,0.0,467,456,60,121.0,0,1,296,222,37,0,0,0,250,250,0,,,,,,,,,,,,
40843,1560686932024,0,2.21,2.04,3.18,1.85,2.73,0.81,-0.05,0.6,-0,-2,1,0.81,4287,11,67,33,50,502,0.0,451,462,60,120.0,0,1,296,221,36,0,0,0,250,250,0,45.700356,4.909449,0.0,201.2,0,0.0,-1,0.0,0.0,0,0.0,0.6807
40863,1560686932044,3,2.22,2.05,3.18,1.84,2.74,0.77,-0.06,0.59,-0,-0,0,0.77,4340,11,67,33,50,502,0.0,461,463,60,121.0,0,1,296,220,36,0,0,0,250,250,0,,,,,,,,,,,,
40883,1560686932064,4,2.21,2.04,3.18,1.85,2.74,0.71,-0.04,0.55,-0,2,0,0.71,4349,11,67,33,50,502,0.0,455,467,60,122.0,0,1,296,221,36,0,0,0,250,250,0,,,,,,,,,,,,
40903,1560686932084,0,2.22,2.05,3.18,1.85,2.73,0.72,-0.05,0.53,-0,3,-0,0.72,4302,11,67,33,50,503,0.0,464,458,60,122.0,0,1,296,221,36,0,0,0,250,250,0,,,,,,,,,,,,
40923,1560686932108,2,2.2,2.06,3.18,1.85,2.73,0.74,-0.02,0.52,0,2,-0,0.74,4333,11,67,33,50,503,0.0,455,467,60,122.0,0,1,296,221,36,0,0,0,250,250,0,,,,,,,,,,,,
40943,1560686932128,-1,2.21,2.05,3.18,1.85,2.73,0.81,-0.01,0.56,0,-0,-0,0.81,4323,11,67,33,50,503,0.0,458,466,60,122.0,0,1,296,221,36,0,0,0,250,250,0,45.700356,4.909449,0.0,201.2,0,0.0,-1,0.0,0.0,0,0.0,0.6824
40963,1560686932148,1,2.2,2.05,3.18,1.85,2.74,0.87,0.01,0.63,0,-2,-1,0.87,4315,11,67,33,50,503,0.0,460,459,60,122.0,0,1,296,221,36,0,0,0,250,250,0,,,,,,,,,,,,
40983,1560686932168,-2,2.22,2.05,3.18,1.85,2.74,0.87,0.01,0.64,0,-3,-1,0.87,4323,11,67,33,50,503,0.0,453,465,60,120.0,0,1,296,221,36,0,0,0,250,250,0,,,,,,,,,,,,
41003,1560686932188,-0,2.21,2.04,3.18,1.85,2.74,0.85,-0.01,0.65,0,-2,-1,0.85,4270,11,67,33,50,503,0.0,458,461,60,121.0,0,1,295,220,36,0,0,0,250,250,0,,,,,,,,,,,,
41023,1560686932208,3,2.21,2.05,3.18,1.86,2.72,0.79,-0.02,0.62,-0,-1,-1,0.79,4283,11,67,33,51,503,0.0,447,463,60,120.0,0,1,296,224,36,0,0,0,250,250,0,,,,,,,,,,,,
41043,1560686932228,3,2.2,2.05,3.18,1.84,2.73,0.78,-0.05,0.59,-0,1,-1,0.78,4304,11,67,33,51,503,0.0,457,462,60,122.0,0,1,296,225,36,0,0,0,250,250,0,45.700356,4.909449,0.0,201.2,0,0.0,-1,0.0,0.0,0,0.0,0.684
41063,1560686932248,2,2.21,2.05,3.18,1.86,2.73,0.78,-0.04,0.6,0,1,-1,0.78,4259,11,67,33,51,503,0.0,443,464,60,122.0,0,1,296,224,36,0,0,0,250,250,0,,,,,,,,,,,,
41083,1560686932268,-2,2.21,2.05,3.17,1.85,2.73,0.85,-0.05,0.64,0,-1,-0,0.85,4251,11,67,33,51,503,0.0,448,461,60,123.0,0,1,296,224,36,0,0,0,250,250,0,,,,,,,,,,,,
41103,1560686932288,1,2.21,2.04,3.18,1.85,2.73,0.9,-0.03,0.7,0,-3,-0,0.9,4293,12,67,33,51,503,0.0,456,456,60,121.0,0,1,296,224,36,0,0,0,250,250,0,,,,,,,,,,,,
41123,1560686932304,-1,2.21,2.05,3.18,1.84,2.73,0.9,-0.03,0.71,-0,-4,-0,0.9,4232,12,67,33,51,503,0.0,443,455,60,120.0,0,1,296,224,36,0,0,0,250,250,0,,,,,,,,,,,,
41143,1560686932324,6,2.2,2.04,3.18,1.85,2.73,0.86,-0.03,0.68,-0,-1,-0,0.86,4265,12,67,33,51,503,0.0,447,462,60,120.0,0,1,296,224,36,0,0,0,250,250,0,45.700356,4.909449,0.0,201.2,0,0.0,-1,0.0,0.0,0,0.0,0.6857
41163,1560686932344,4,2.2,2.04,3.18,1.85,2.73,0.81,-0.04,0.65,-0,1,-0,0.81,4259,12,67,33,51,503,0.0,447,460,60,121.0,0,1,296,229,36,0,0,0,250,250,0,,,,,,,,,,,,
41183,1560686932364,1,2.21,2.05,3.18,1.85,2.73,0.78,-0.04,0.61,0,2,-0,0.79,4236,12,67,33,51,503,0.0,450,466,60,122.0,0,1,296,224,36,0,0,0,250,250,0,,,,,,,,,,,,
41203,1560686932384,-0,2.21,2.04,3.18,1.85,2.73,0.77,-0.03,0.63,0,0,-1,0.78,4278,12,67,33,51,503,0.0,441,463,60,122.0,0,1,296,224,36,0,0,0,250,250,0,,,,,,,,,,,,
41223,1560686932410,-1,2.21,2.05,3.18,1.85,2.72,0.83,-0.03,0.67,0,-3,-0,0.83,4259,12,67,33,52,503,0.0,451,461,60,122.0,0,1,296,224,36,0,0,0,250,250,0,,,,,,,,,,,,
41243,1560686932430,-1,2.2,2.05,3.18,1.85,2.73,0.88,-0.02,0.72,0,-4,-0,0.88,4264,12,67,33,52,502,0.0,448,458,60,120.0,0,1,296,229,36,0,0,0,250,250,0,45.700356,4.909449,0.0,201.2,0,0.0,-1,0.0,0.0,0,0.0,0.6874
41263,1560686932450,1,2.2,2.05,3.18,1.85,2.72,0.87,-0.02,0.72,-0,-3,-1,0.87,4297,12,67,33,52,503,0.0,446,462,60,120.0,0,1,297,229,36,0,0,0,250,250,0,,,,,,,,,,,,
41283,1560686932470,4,2.21,2.05,3.18,1.85,2.72,0.84,-0.03,0.71,-0,-1,-1,0.84,4280,12,67,33,52,503,0.0,448,460,60,122.0,0,1,296,229,36,0,0,0,250,250,0,,,,,,,,,,,,
41303,1560686932490,3,2.2,2.05,3.18,1.85,2.74,0.79,-0.02,0.66,-0,1,-2,0.79,4264,12,67,33,52,503,0.0,448,461,60,122.0,0,1,296,229,36,0,0,0,250,250,0,,,,,,,,,,,,
41323,1560686932508,-0,2.21,2.05,3.18,1.84,2.73,0.79,-0.02,0.64,0,1,-2,0.79,4302,12,67,33,52,503,0.0,453,467,60,122.0,0,1,297,230,36,0,0,0,250,250,0,,,,,,,,,,,,
41343,1560686932528,-0,2.21,2.04,3.18,1.85,2.73,0.8,-0.01,0.65,0,-0,-1,0.8,4281,12,67,33,52,503,0.0,445,463,60,122.0,0,1,296,229,37,0,0,0,250,250,0,45.700356,4.909449,0.0,201.2,0,0.0,-1,0.0,0.0,0,0.0,0.689
41363,1560686932548,0,2.2,2.05,3.18,1.85,2.72,0.84,-0.01,0.67,0,-2,-0,0.84,4278,12,68,33,52,503,0.0,457,456,60,122.0,0,1,296,226,37,0,0,0,250,250,0,,,,,,,,,,,,
41383,1560686932568,-1,2.2,2.05,3.18,1.85,2.74,0.9,-0.02,0.7,0,-3,-0,0.9,4335,12,68,33,52,503,0.0,453,459,60,120.0,0,1,297,227,37,0,0,0,250,250,0,,,,,,,,,,,,
41403,1560686932588,0,2.2,2.05,3.18,1.85,2.73,0.89,-0.03,0.71,-0,-4,-0,0.89,4314,12,68,33,52,503,0.0,458,462,60,121.0,0,1,297,227,37,0,0,0,250,250,0,,,,,,,,,,,,
41423,1560686932605,6,2.21,2.05,3.19,1.85,2.73,0.88,-0.04,0.73,-0,-2,-1,0.88,4349,12,68,33,52,503,0.0,457,463,60,120.0,0,1,297,227,37,0,0,0,250,250,0,,,,,,,,,,,,
41443,1560686932625,5,2.21,2.05,3.18,1.85,2.73,0.81,-0.04,0.69,-0,0,-0,0.81,4361,12,68,33,52,503,0.0,461,462,60,122.0,0,1,297,227,37,0,0,0,250,250,0,45.700356,4.909449,0.0,201.2,0,0.0,-1,0.0,0.0,0,0.0,0.6907
41463,1560686932645,3,2.2,2.05,3.18,1.85,2.73,0.76,-0.04,0.66,-0,2,-0,0.76,4337,12,68,33,52,503,0.0,460,462,60,121.0,0,1,297,227,37,0,0,0,250,250,0,,,,,,,,,,,,
41483,1560686932665,1,2.21,2.05,3.18,1.85,2.72,0.71,-0.04,0.63,-0,2,-1,0.71,4368,12,68,33,52,503,0.0,451,470,60,122.0,0,1,297,227,37,0,0,0,250,250,0,,,,,,,,,,,,
41503,1560686932685,2,2.2,2.05,3.18,1.85,2.73,0.7,-0.04,0.64,0,1,-1,0.7,4373,12,68,33,52,503,0.0,472,463,60,122.0,0,1,297,227,37,0,0,0,250,250,0,,,,,,,,,,,,
41523,1560686932705,-0,2.2,2.05,3.17,1.85,2.73,0.71,-0.06,0.66,1,0,-1,0.71,4379,12,68,33,52,503,0.0,461,470,60,122.0,0,1,297,227,37,0,0,0,250,250,0,,,,,,,,,,,,
41543,1560686932725,-2,2.2,2.04,3.18,1.83,2.73,0.74,-0.03,0.64,1,-0,-1,0.74,4400,12,68,33,52,503,0.0,465,460,60,122.0,0,1,297,228,37,0,0,0,250,250,0,45.700356,4.909449,0.0,201.2,0,0.0,-1,0.0,0.0,0,0.0,0.6924
41563,1560686932745,0,2.21,2.05,3.18,1.85,2.74,0.77,-0.02,0.62,1,-1,-1,0.77,4376,12,68,33,52,503,0.0,463,459,60,122.0,0,1,297,227,37,0,0,0,250,250,0,,,,,,,,,,,,
41583,1560686932765,1,2.2,2.05,3.18,1.85,2.73,0.83,0.01,0.61,1,-3,0,0.83,4371,12,68,33,52,503,0.0,463,457,60,122.0,0,1,297,227,37,0,0,0,250,250,0,,,,,,,,,,,,
41603,1560686932785,-0,2.21,2.04,3.18,1.85,2.73,0.88,0.01,0.65,1,-3,1,0.88,4419,12,68,33,52,503,0.0,470,460,60,121.0,0,1,297,228,37,0,0,0,250,250,0,,,,,,,,,,,,
41623,1560686932807,0,2.21,2.05,3.18,1.85,2.74,0.89,-0.0,0.66,1,-4,0,0.89,4382,12,68,33,52,503,0.0,460,459,60,120.0,0,1,297,227,37,0,0,0,250,250,0,,,,,,,,,,,,
41643,1560686932827,-0,2.21,2.04,3.18,1.85,2.74,0.9,0.01,0.64,0,-3,0,0.9,4427,13,68,33,52,502,0.0,468,459,60,120.0,0,1,297,228,38,0,0,0,250,250,0,45.700356,4.909449,0.0,201.2,0,0.0,-1,0.0,0.0,0,0.0,0.694
41663,1560686932847,-1,2.21,2.05,3.18,1.85,2.74,0.87,-0.02,0.64,0,-3,1,0.87,4435,13,68,33,52,502,0.0,473,459,60,120.0,0,1,297,228,38,0,0,0,250,250,0,,,,,,,,,,,,
41683,1560686932867,-1,2.21,2.05,3.17,1.86,2.73,0.83,-0.03,0.65,-0,-2,1,0.83,4433,13,68,33,53,502,0.0,469,464,60,120.0,0,1,297,232,38,0,0,0,250,250,0,,,,,,,,,,,,
41703,1560686932887,-1,2.21,2.05,3.18,1.86,2.72,0.79,-0.04,0.67,-1,-2,0,0.79,4481,14,68,33,53,502,0.0,473,461,60,120.0,0,1,297,232,38,0,0,0,250,250,0,,,,,,,,,,,,
41723,1560686932909,-1,2.21,2.05,3.18,1.85,2.74,0.78,-0.07,0.68,-1,-0,-0,0.78,4478,14,68,33,54,502,0.0,475,459,60,120.0,0,1,298,236,38,0,0,0,250,250,0,,,,,,,,,,,,
41743,1560686932929,-0,2.2,2.05,3.18,1.85,2.74,0.74,-0.07,0.68,-1,1,-1,0.74,4502,15,68,33,55,502,0.0,485,461,60,120.0,0,1,298,237,40,0,0,0,250,250,0,45.700356,4.909449,0.0,201.2,0,0.0,-1,0.0,0.0,0,0.0,0.6957
41763,1560686932949,-1,2.21,2.05,3.17,1.86,2.73,0.7,-0.07,0.68,-1,2,-0,0.71,4549,15,68,33,55,502,0.0,481,458,60,120.0,0,1,298,241,40,0,0,0,250,250,0,,,,,,,,,,,,
41783,1560686932969,-2,2.21,2.05,3.17,1.85,2.73,0.68,-0.08,0.69,-1,1,-0,0.68,4530,15,68,33,56,502,0.0,485,460,60,120.0,0,1,297,246,40,0,0,0,250,250,0,,,,,,,,,,,,
41803,1560686932989,-2,2.22,2.05,3.18,1.84,2.74,0.69,-0.08,0.69,-1,2,0,0.69,4593,15,68,33,56,503,0.0,490,460,60,120.0,0,1,297,246,40,0,0,0,250,250,0,,,,,,,,,,,,
41823,1560686933003,-2,2.21,2.05,3.18,1.86,2.72,0.7,-0.09,0.71,-2,1,1,0.7,4608,15,68,33,56,503,0.0,490,451,60,120.0,0,1,297,247,40,0,0,0,250,250,0,,,,,,,,,,,,
41843,1560686933023,-0,2.2,2.05,3.18,1.84,2.74,0.74,-0.08,0.73,-2,0,1,0.74,4626,14,68,33,56,503,0.0,493,455,60,121.0,0,1,297,247,43,0,0,0,250,250,0,45.700356,4.909449,0.0,201.2,0,0.0,-1,0.0,0.0,0,0.0,0.6974
41863,1560686933043,-1,2.21,2.05,3.18,1.84,2.74,0.78,-0.04,0.74,-1,-2,1,0.78,4593,14,68,33,56,503,0.0,485,458,60,121.0,0,1,297,246,43,0,0,0,250,250,0,,,,,,,,,,,,
41883,1560686933063,0,2.21,2.04,3.18,1.85,2.72,0.84,0.02,0.71,-1,-2,0,0.84,4579,13,68,33,55,503,0.0,501,455,60,121.0,0,1,298,246,43,0,0,0,250,250,0,,,,,,,,,,,,
41903,1560686933083,-0,2.2,2.05,3.18,1.85,2.73,0.88,0.05,0.68,-1,-4,1,0.88,4567,13,68,33,56,502,0.0,491,458,60,122.0,0,1,297,241,43,0,0,0,250,250,0,,,,,,,,,,,,
41923,1560686933109,0,2.21,2.04,3.18,1.86,2.73,0.93,0.09,0.69,-0,-5,1,0.93,4601,13,68,33,55,502,0.0,487,460,60,122.0,0,1,298,242,43,0,0,0,250,250,0,,,,,,,,,,,,
