"Interval"|"ms"|0|0|1,"Utc"|"ms"|0|0|1,"FB_p"|"bar"|0|300|50,"Volant"|"F"|0.0|300.0|50,"xFR"|"mm"|0.0|5.0|50,"xRR"|"mm"|0.0|5.0|50,"xFL"|"mm"|0.0|5.0|50,"xRL"|"mm"|0.0|5.0|50,"AccelX"|"G"|-3.0|3.0|50,"AccelY"|"G"|-3.0|3.0|50,"AccelZ"|"G"|-3.0|3.0|50,"Yaw"|"Deg/Sec"|-120|120|50,"Pitch"|"Deg/Sec"|-120|120|50,"Roll"|"Deg/Sec"|-120|120|50,"Gsum"|"G"|0.0|3.0|50,"RPM"|""|0|14000|50,"TPS"|"%"|0|100|50,"WaterTemp"|"?C"|0|300|50,"AirTemp"|"?C"|-1000|1000|50,"MAP"|"KPa"|0|255|50,"Lambda"|""|0|1024|50,"WheelSpeed"|"MPH"|0.0|150.0|50,"OilPress"|"PSI"|0|150|50,"FuelPress"|"PSI"|0|150|50,"OilTemp"|"F"|0|300|50,"Battery"|"Volts"|0.0|20.0|50,"FuelCon"|"L/h"|-1000|1000|50,"Gear"|""|0|10|50,"Advance"|"Deg"|-360|360|50,"Injection"|"ms"|-1000|1000|50,"FuelCon"|"L/100km"|-1000|1000|50,"LC_But_Pres"|""|-1000|1000|50,"LC_Active"|""|-1000|1000|50,"RD_Speed"|""|-1000|1000|50,"RUD_Speed"|""|-1000|1000|50,"LD_Speed"|""|-1000|1000|50,"LUD_Speed"|""|-1000|1000|50,"Latitude"|"Degrees"|-180.0|180.0|10,"Longitude"|"Degrees"|-180.0|180.0|10,"Speed"|"kph"|0.0|150.0|10,"Altitude"|"m"|0.0|4000.0|10,"LapCount"|""|0|0|10,"LapTime"|"Min"|0.0|0.0|10,"Sector"|""|0|0|10,"SectorTime"|"Min"|0.0|0.0|10,"ElapsedTime"|"Min"|0.0|0.0|10,"CurrentLap"|""|0|0|10,"Distance"|"km"|0.0|0.0|10,"SessionTime"|"Min"|0.0|0.0|10
68663,1560687014892,24,2.28,1.75,3.47,1.7,2.99,1.13,-0.13,0.05,2,-4,2,1.14,9155,9,79,33,23,895,514.0,647,455,60,122.0,117,1,270,176,61,0,0,497,-4054,248,514,,,,,,,,,,,,
68683,1560687014912,25,2.28,1.74,3.5,1.69,3.0,1.15,-0.17,0.07,2,-3,2,1.16,9044,9,79,33,23,905,507.0,647,448,60,122.0,117,1,270,176,61,0,0,479,-32248,-899,507,,,,,,,,,,,,
68703,1560687014932,26,2.28,1.74,3.53,1.68,3.0,1.23,-0.28,0.09,2,-5,3,1.26,8915,9,79,33,22,916,501.0,645,458,60,122.0,117,1,270,170,61,0,0,465,-9216,2212,501,,,,,,,,,,,,
68723,1560687014952,27,2.28,1.73,3.54,1.68,3.01,1.27,-0.31,0.1,1,-4,3,1.31,8773,9,79,33,22,935,495.0,642,457,60,122.0,117,1,270,170,61,0,0,462,998,8488,495,,,,,,,,,,,,
68743,1560687014972,27,2.26,1.74,3.53,1.69,3.03,1.26,-0.27,0.03,2,-3,2,1.29,8612,9,79,33,22,954,490.0,632,455,60,121.0,117,1,270,170,61,0,0,457,-6441,32033,490,45.702091,4.910908,53.23,197.0,0,0.0,0,0.0,0.4933,1,0.32,1.1457
68763,1560687014992,27,2.28,1.73,3.51,1.68,3.03,1.29,-0.25,0.05,1,-3,1,1.31,8465,9,79,33,22,965,486.0,635,451,60,121.0,110,1,270,168,54,0,0,459,16648,17628,482,,,,,,,,,,,,
68783,1560687015004,26,2.28,1.73,3.48,1.68,3.03,1.3,-0.21,0.08,2,-4,2,1.31,8333,9,79,33,23,974,479.0,630,457,60,122.0,110,1,270,163,54,0,0,450,-9203,10305,479,,,,,,,,,,,,
68803,1560687015024,30,2.26,1.74,3.49,1.66,3.04,1.31,-0.1,-0.01,2,-4,2,1.32,8205,9,79,33,23,992,472.0,631,452,60,121.0,110,1,270,165,54,0,0,441,32033,19477,472,,,,,,,,,,,,
68823,1560687015044,27,2.26,1.74,3.51,1.64,3.04,1.19,-0.1,0.02,2,-3,4,1.19,8120,9,79,33,23,1010,469.0,630,455,60,122.0,110,1,270,159,54,0,0,424,30272,-3322,466,,,,,,,,,,,,
68843,1560687015064,25,2.27,1.73,3.52,1.63,3.05,1.24,-0.08,0.01,1,-3,3,1.24,7955,9,79,33,24,1021,461.0,626,453,60,122.0,110,1,269,156,54,0,0,427,17628,-3314,461,45.70208,4.910922,50.78,197.1,0,0.0,0,0.0,0.495,1,0.32,1.1474
68863,1560687015092,29,2.26,1.72,3.52,1.63,3.06,1.22,-0.02,-0.01,1,-1,3,1.22,7851,9,79,33,25,1030,458.0,626,454,60,122.0,100,1,268,156,46,0,0,412,-8985,-3856,456,,,,,,,,,,,,
68883,1560687015112,28,2.27,1.72,3.51,1.62,3.06,1.1,-0.03,-0.02,2,1,2,1.1,7693,9,79,33,25,1050,452.0,622,456,60,121.0,100,1,266,159,46,0,0,408,10305,-21792,452,,,,,,,,,,,,
68903,1560687015132,28,2.27,1.72,3.5,1.63,3.06,0.97,0.02,-0.14,3,3,2,0.97,7545,9,79,33,25,1075,444.0,624,456,60,121.0,100,1,265,159,46,0,0,409,26704,9517,440,,,,,,,,,,,,
68923,1560687015152,27,2.27,1.73,3.49,1.63,3.05,0.99,-0.03,-0.28,4,4,2,0.99,7461,9,79,33,25,1093,436.0,617,458,60,122.0,100,1,264,159,46,0,0,413,-3322,-8151,436,,,,,,,,,,,,
68943,1560687015172,24,2.26,1.73,3.48,1.64,3.06,0.89,0.01,-0.37,4,6,2,0.89,7361,9,79,34,26,1109,431.0,616,453,60,121.0,100,1,266,160,46,0,0,391,13180,-31744,431,45.702076,4.910935,47.97,197.1,0,0.0,0,0.0,0.4967,1,0.32,1.149
68963,1560687015192,18,2.27,1.72,3.48,1.61,3.08,0.85,0.06,-0.41,5,7,1,0.86,7284,9,79,34,25,1132,427.0,616,460,60,121.0,102,1,262,159,44,0,0,376,13180,-18948,426,,,,,,,,,,,,
68983,1560687015212,11,2.27,1.7,3.49,1.61,3.06,0.95,0.13,-0.36,4,5,2,0.96,7172,9,79,34,25,1157,424.0,613,455,60,122.0,102,1,261,159,44,0,0,383,-4082,6512,422,,,,,,,,,,,,
69003,1560687015232,11,2.26,1.72,3.49,1.65,3.05,1.05,0.05,-0.18,2,5,2,1.06,7091,9,79,34,25,1176,420.0,608,455,60,123.0,102,1,260,159,44,0,0,393,7154,11545,420,,,,,,,,,,,,
69023,1560687015252,14,2.27,1.72,3.47,1.64,3.02,1.1,-0.04,-0.04,2,2,2,1.1,7156,9,79,34,25,1186,415.0,607,461,60,122.0,102,1,261,159,44,0,0,394,-9166,-19019,415,,,,,,,,,,,,
69043,1560687015272,13,2.26,1.72,3.43,1.63,3.03,0.95,0.02,-0.2,3,5,3,0.95,7208,9,78,34,25,1195,410.0,613,453,60,122.0,102,1,262,159,44,0,0,380,-26615,0,410,45.702064,4.910948,45.04,197.1,0,0.0,0,0.0,0.4983,1,0.32,1.1507
69063,1560687015292,10,2.25,1.73,3.44,1.63,3.05,0.97,0.1,-0.25,3,5,2,0.98,7197,9,78,34,25,1202,405.0,615,460,60,121.0,105,1,261,159,43,0,0,378,-8151,742,403,,,,,,,,,,,,
69083,1560687015312,7,2.25,1.72,3.44,1.63,3.04,1.08,0.17,-0.1,2,1,1,1.09,7153,9,78,34,25,1205,401.0,613,454,60,122.0,105,1,261,159,43,0,0,385,6512,240,399,,,,,,,,,,,,
69103,1560687015332,13,2.26,1.73,3.44,1.63,3.04,1.04,0.13,0.02,1,1,-0,1.05,7104,9,78,34,25,1202,398.0,611,453,60,123.0,105,1,261,159,43,0,0,378,-3968,-19126,395,,,,,,,,,,,,
69123,1560687015352,10,2.26,1.73,3.43,1.64,3.03,1.02,0.09,-0.05,1,2,-1,1.02,7113,9,78,34,25,1180,391.0,612,458,60,121.0,105,1,261,159,43,0,0,377,505,-992,391,,,,,,,,,,,,
69143,1560687015372,10,2.26,1.72,3.44,1.64,3.04,0.94,0.12,-0.15,1,3,1,0.95,7088,9,78,34,24,1139,388.0,612,452,60,122.0,105,1,260,156,43,0,0,376,-31744,742,387,45.702057,4.910959,42.24,197.1,0,0.0,0,0.0,0.5,1,0.33,1.1524
69163,1560687015392,11,2.25,1.73,3.43,1.64,3.05,1.05,0.11,0.02,0,2,1,1.06,6991,9,78,34,25,1099,387.0,614,455,60,123.0,106,1,261,156,41,0,0,376,-19126,742,384,,,,,,,,,,,,
69183,1560687015412,13,2.24,1.73,3.39,1.64,3.04,1.02,0.09,0.06,-0,3,2,1.03,6934,9,78,34,25,1060,381.0,611,460,60,122.0,106,1,261,159,41,0,0,375,-18948,257,378,,,,,,,,,,,,
69203,1560687015432,10,2.25,1.76,3.37,1.63,3.05,1.02,0.12,-0.01,1,2,2,1.02,6898,9,78,34,25,1019,378.0,607,456,60,123.0,106,1,262,159,41,0,0,366,3,-6405,376,,,,,,,,,,,,
69223,1560687015452,14,2.25,1.77,3.36,1.64,3.04,0.96,0.09,0.14,0,1,1,0.97,6823,9,78,34,25,976,373.0,608,461,60,121.0,106,1,262,159,41,0,0,366,257,-14707,373,,,,,,,,,,,,
69243,1560687015472,10,2.24,1.77,3.37,1.64,3.02,1.0,0.11,0.04,0,1,0,1.01,6761,9,78,34,25,942,371.0,605,461,60,121.0,106,1,263,159,41,0,0,358,-6656,-29302,369,45.702053,4.91097,39.82,197.1,0,0.0,0,0.0,0.5017,1,0.33,1.154
69263,1560687015492,10,2.25,1.77,3.39,1.64,3.03,1.05,-0.01,0.13,0,-2,-1,1.05,6679,9,78,34,25,936,368.0,608,459,60,122.0,108,1,264,159,40,0,0,356,0,-29302,366,,,,,,,,,,,,
69283,1560687015512,7,2.25,1.76,3.4,1.64,3.03,1.02,0.02,0.11,-0,-1,-1,1.02,6611,8,78,34,26,929,364.0,599,453,60,122.0,108,1,267,159,40,0,0,352,-1268,2060,362,,,,,,,,,,,,
69303,1560687015532,11,2.24,1.76,3.4,1.64,3.02,1.01,0.02,0.11,-0,-1,-0,1.01,6514,8,78,34,26,919,361.0,592,461,60,121.0,108,1,268,160,40,0,0,351,-6458,-1246,358,,,,,,,,,,,,
69323,1560687015552,13,2.24,1.77,3.39,1.63,3.03,1.05,-0.05,0.17,-1,-2,1,1.05,6474,8,78,34,26,912,359.0,600,456,60,123.0,108,1,269,160,40,0,0,348,2060,8841,356,,,,,,,,,,,,
69343,1560687015572,8,2.24,1.77,3.38,1.62,3.03,1.0,-0.0,0.11,-1,0,1,1.0,6414,8,78,34,26,908,356.0,595,456,60,122.0,108,1,269,160,40,0,0,344,4104,8841,352,45.702045,4.91098,37.98,197.1,0,0.0,0,0.0,0.5033,1,0.33,1.1557
69363,1560687015592,8,2.24,1.77,3.38,1.62,3.03,1.02,-0.03,0.19,-1,1,1,1.02,6381,8,78,34,27,904,351.0,592,456,60,121.0,108,1,273,161,38,0,0,341,28553,13,348,,,,,,,,,,,,
69383,1560687015612,9,2.24,1.78,3.38,1.62,3.03,1.07,0.0,0.24,-1,-1,-1,1.07,6340,8,78,34,27,903,348.0,589,454,60,122.0,108,1,273,161,38,0,0,341,-1246,-122,344,,,,,,,,,,,,
69403,1560687015632,13,2.22,1.77,3.39,1.62,3.01,1.05,0.1,0.21,-1,-2,-3,1.06,6302,8,78,34,27,902,346.0,587,456,60,123.0,108,1,273,161,38,0,0,333,-10554,4838,342,,,,,,,,,,,,
69423,1560687015652,14,2.24,1.77,3.4,1.62,3.0,1.02,0.2,0.06,-0,-0,-3,1.04,6260,8,78,34,27,905,341.0,583,455,60,123.0,108,1,274,161,38,0,0,330,6668,-12032,338,,,,,,,,,,,,
69443,1560687015672,8,2.24,1.77,3.43,1.63,2.99,1.04,0.13,0.01,-0,2,-2,1.05,6177,8,78,34,28,906,339.0,577,456,60,123.0,108,1,278,163,38,0,0,328,-122,175,335,45.702038,4.91099,36.37,197.1,0,0.0,0,0.0,0.505,1,0.33,1.1574
69463,1560687015692,9,2.24,1.78,3.44,1.63,2.98,1.11,0.01,0.06,-2,3,-1,1.11,6093,8,78,34,28,907,337.0,570,459,60,122.0,110,1,278,163,37,0,0,325,2560,165,330,,,,,,,,,,,,
69483,1560687015712,9,2.23,1.82,3.42,1.63,2.98,1.21,-0.1,0.13,-4,3,-1,1.21,6013,8,78,34,28,910,334.0,563,460,60,122.0,110,1,278,163,37,0,0,325,4838,-24576,328,,,,,,,,,,,,
69503,1560687015732,6,2.23,1.83,3.4,1.6,2.98,1.29,-0.19,0.21,-6,3,-1,1.3,5954,8,78,34,29,909,329.0,555,456,60,122.0,110,1,280,164,37,0,0,323,-20736,-27136,325,,,,,,,,,,,,
69523,1560687015752,14,2.22,1.84,3.39,1.59,2.98,1.36,-0.26,0.26,-9,4,-0,1.38,5912,8,78,34,29,908,326.0,551,457,60,122.0,110,1,279,164,37,0,0,319,165,140,320,,,,,,,,,,,,
69543,1560687015772,13,2.21,1.86,3.39,1.59,2.98,1.43,-0.29,0.27,-10,6,0,1.46,5861,8,78,34,29,909,323.0,547,453,60,123.0,110,1,278,163,37,0,0,313,-24576,135,316,45.702034,4.910999,34.42,197.1,0,0.0,0,0.0,0.5067,1,0.33,1.159
69563,1560687015791,10,2.21,1.91,3.39,1.59,3.0,1.35,-0.28,0.2,-10,10,-1,1.38,5803,8,78,34,30,911,320.0,547,455,60,123.0,114,1,280,164,36,0,0,310,150,125,313,,,,,,,,,,,,
69583,1560687015811,10,2.2,1.89,3.39,1.59,3.0,1.1,-0.22,0.13,-8,14,-2,1.12,5744,8,78,34,30,914,318.0,543,456,60,123.0,114,1,279,164,36,0,0,308,145,29440,310,,,,,,,,,,,,
69603,1560687015831,5,2.18,1.9,3.38,1.6,2.99,0.89,-0.1,0.11,-4,13,-4,0.9,5681,8,78,35,31,917,315.0,539,452,60,121.0,114,1,280,163,36,0,0,307,-29696,26880,308,,,,,,,,,,,,
69623,1560687015851,4,2.16,1.93,3.35,1.6,3.01,1.01,0.04,0.13,-4,6,-5,1.01,5617,8,78,35,31,923,313.0,538,457,60,122.0,114,1,279,163,36,0,0,305,-30976,95,304,,,,,,,,,,,,
69643,1560687015871,10,2.13,1.94,3.33,1.59,3.03,1.11,0.01,0.19,-8,5,-5,1.11,5568,8,78,35,32,928,311.0,533,450,60,123.0,114,1,281,163,36,0,0,303,-32256,85,298,45.702026,4.911008,32.78,197.1,0,0.0,0,0.0,0.5083,1,0.33,1.1607
69663,1560687015891,5,2.11,1.94,3.3,1.58,3.05,0.99,0.0,0.13,-9,13,-5,0.99,5516,8,78,35,32,932,309.0,526,453,60,121.0,114,1,280,163,34,0,0,302,32000,21760,295,,,,,,,,,,,,
69683,1560687015911,5,2.09,1.98,3.27,1.56,3.07,0.86,0.09,0.13,-7,12,-6,0.87,5498,8,78,35,33,937,308.0,517,456,60,121.0,114,1,282,168,34,0,0,302,120,10686,292,,,,,,,,,,,,
69703,1560687015931,9,2.06,2.04,3.24,1.56,3.09,0.98,0.16,0.17,-9,7,-6,0.99,5476,8,78,35,34,941,308.0,514,457,60,123.0,114,1,286,174,34,0,0,299,115,-16896,288,,,,,,,,,,,,
69723,1560687015951,4,2.05,2.08,3.21,1.56,3.12,0.84,0.14,0.11,-11,9,-8,0.85,5419,8,78,35,34,947,305.0,507,451,60,122.0,114,1,285,179,34,0,0,300,29440,630,282,,,,,,,,,,,,
69743,1560687015971,8,2.04,2.12,3.21,1.56,3.14,0.83,0.17,0.18,-10,4,-9,0.85,5360,8,78,35,35,951,303.0,498,459,60,122.0,114,1,288,178,34,0,0,298,28160,-1527,278,45.702023,4.911017,31.09,197.1,0,0.0,0,0.0,0.51,1,0.33,1.1624
69763,1560687015991,1,2.03,2.16,3.2,1.56,3.17,0.93,0.15,0.18,-13,8,-11,0.94,5278,8,78,35,36,954,302.0,496,457,60,123.0,132,1,290,184,37,0,0,297,105,-1,276,,,,,,,,,,,,
69783,1560687016005,8,2.01,2.17,3.18,1.58,3.14,0.84,0.24,0.21,-12,6,-13,0.87,5241,8,78,35,37,955,302.0,491,456,60,122.0,132,1,294,190,37,0,0,293,105,-1,275,,,,,,,,,,,,
69803,1560687016025,-0,1.99,2.17,3.17,1.57,3.13,0.96,0.22,0.26,-15,6,-15,0.98,5189,8,78,35,37,952,300.0,479,454,60,121.0,132,1,293,189,37,0,0,292,100,-1,273,,,,,,,,,,,,
69823,1560687016045,5,1.97,2.17,3.17,1.56,3.16,0.83,0.3,0.26,-14,1,-16,0.88,5149,8,78,35,38,950,299.0,482,455,60,123.0,132,1,296,195,37,0,0,292,25600,-1,270,,,,,,,,,,,,
69843,1560687016065,1,1.95,2.16,3.15,1.55,3.17,0.82,0.28,0.25,-17,6,-18,0.87,5134,7,78,35,39,946,298.0,480,448,60,122.0,132,1,301,202,37,0,0,290,95,-1,267,45.702015,4.911025,29.59,197.1,0,0.0,0,0.0,0.5117,1,0.33,1.164
69863,1560687016091,3,1.94,2.17,3.12,1.56,3.17,0.94,0.43,0.28,-17,2,-19,1.04,5136,7,78,35,40,937,297.0,473,455,60,123.0,146,1,302,203,39,0,0,290,24320,14337,264,,,,,,,,,,,,
69883,1560687016111,4,1.91,2.17,3.13,1.55,3.17,0.8,0.4,0.24,-19,3,-20,0.89,5102,7,78,35,40,928,296.0,477,455,60,122.0,146,1,302,203,39,0,0,290,85,-1,261,,,,,,,,,,,,
69903,1560687016131,2,1.9,2.16,3.12,1.55,3.2,0.92,0.44,0.32,-21,-1,-22,1.02,5064,7,78,35,41,919,295.0,470,454,60,123.0,146,1,302,205,39,0,0,288,23040,-214,258,,,,,,,,,,,,
69923,1560687016151,5,1.88,2.17,3.12,1.55,3.23,0.89,0.5,0.31,-21,0,-24,1.02,5024,7,78,35,42,915,295.0,471,459,60,122.0,146,1,302,205,39,0,0,287,23040,16896,257,,,,,,,,,,,,
69943,1560687016171,1,1.89,2.17,3.11,1.56,3.25,0.83,0.56,0.2,-23,2,-26,1.0,4957,7,78,35,42,910,294.0,472,460,60,121.0,146,1,299,206,39,0,0,285,85,10812,253,45.702015,4.911034,28.44,197.1,0,0.0,0,0.0,0.5133,1,0.33,1.1657
69963,1560687016191,3,1.87,2.18,3.11,1.56,3.26,0.95,0.62,0.33,-24,-1,-26,1.13,4885,7,78,35,43,909,293.0,465,451,60,121.0,150,1,298,205,38,0,0,285,20480,-17920,253,,,,,,,,,,,,
69983,1560687016211,5,1.87,2.19,3.11,1.56,3.26,0.98,0.69,0.31,-24,-1,-28,1.2,4843,7,78,35,43,910,290.0,453,457,60,123.0,150,1,297,204,38,0,0,282,0,-1483,250,,,,,,,,,,,,
70003,1560687016231,7,1.87,2.18,3.11,1.55,3.27,0.97,0.63,0.21,-25,-1,-31,1.15,4803,7,78,35,44,914,287.0,449,462,60,122.0,150,1,297,126,38,0,0,282,41,-1483,247,,,,,,,,,,,,
70023,1560687016251,11,1.87,2.17,3.11,1.55,3.26,0.91,0.59,0.22,-26,1,-32,1.08,4767,7,78,35,44,922,287.0,442,457,60,121.0,150,1,296,205,38,0,0,276,41,250,245,,,,,,,,,,,,
70043,1560687016271,5,1.87,2.18,3.11,1.55,3.25,0.97,0.57,0.25,-27,2,-33,1.13,4733,7,78,35,44,931,285.0,431,450,60,121.0,150,1,295,206,38,0,0,274,-16896,8704,243,45.702011,4.911042,27.43,197.1,0,0.0,0,0.0,0.515,1,0.33,1.1674
70063,1560687016291,5,1.89,2.17,3.12,1.55,3.22,1.03,0.57,0.35,-28,-1,-34,1.18,4716,7,78,35,45,940,282.0,430,443,60,120.0,148,1,297,206,36,0,0,272,24064,250,241,,,,,,,,,,,,
70083,1560687016307,6,1.9,2.16,3.13,1.55,3.2,1.09,0.61,0.36,-28,-2,-35,1.25,4675,7,78,35,45,946,278.0,429,453,60,123.0,148,1,295,205,36,0,0,270,630,18432,238,,,,,,,,,,,,
70103,1560687016327,5,1.92,2.17,3.13,1.56,3.19,1.14,0.64,0.35,-28,-3,-36,1.31,4617,7,78,35,45,952,277.0,426,453,60,123.0,148,1,294,203,36,0,0,265,30208,-1496,237,,,,,,,,,,,,
70123,1560687016347,4,1.94,2.16,3.16,1.56,3.18,1.17,0.62,0.34,-28,-4,-36,1.32,4576,7,78,35,46,959,273.0,424,456,60,123.0,148,1,296,202,36,0,0,263,28160,250,235,,,,,,,,,,,,
70143,1560687016367,6,1.98,2.16,3.17,1.55,3.14,1.16,0.59,0.32,-27,-5,-36,1.3,4550,7,78,35,46,965,269.0,420,461,60,123.0,148,1,295,205,36,0,0,260,-1,10318,234,45.702007,4.91105,26.23,197.1,0,0.0,0,0.0,0.5167,1,0.33,1.169
70163,1560687016391,4,2.03,2.15,3.17,1.57,3.12,1.17,0.53,0.3,-26,-6,-36,1.29,4543,7,78,35,46,967,266.0,418,464,60,123.0,150,1,295,204,35,0,0,255,-1,250,232,,,,,,,,,,,,
70183,1560687016411,5,2.06,2.12,3.19,1.57,3.07,1.17,0.47,0.29,-25,-7,-35,1.26,4471,7,78,35,46,967,262.0,411,461,60,123.0,150,1,294,203,35,0,0,252,-1,250,230,,,,,,,,,,,,
70203,1560687016431,3,2.12,2.1,3.2,1.62,3.02,1.21,0.38,0.3,-24,-9,-34,1.27,4429,7,78,35,46,963,258.0,408,457,60,123.0,150,1,293,202,35,0,0,248,-10440,10318,230,,,,,,,,,,,,
70223,1560687016451,3,2.18,2.06,3.23,1.69,2.98,1.23,0.32,0.36,-22,-11,-32,1.27,4406,7,78,35,46,959,252.0,399,461,60,123.0,150,1,292,202,35,0,0,243,-1,250,230,,,,,,,,,,,,
70243,1560687016471,2,2.23,2.03,3.25,1.76,2.94,1.3,0.28,0.43,-20,-12,-31,1.33,4408,7,78,35,46,954,246.0,392,462,60,123.0,150,1,292,202,35,0,0,240,10812,250,231,45.702004,4.911059,24.81,197.1,0,0.0,0,0.0,0.5183,1,0.34,1.1707
70263,1560687016492,2,2.29,1.99,3.29,1.79,2.93,1.33,0.19,0.47,-18,-14,-29,1.34,4326,7,78,35,46,948,240.0,387,457,60,123.0,142,1,291,199,33,0,0,236,250,250,232,,,,,,,,,,,,
70283,1560687016512,1,2.35,1.95,3.34,1.83,2.9,1.3,0.09,0.5,-16,-13,-25,1.31,4329,7,78,35,46,936,235.0,381,457,60,120.0,142,1,291,199,33,0,0,231,-1483,10824,233,,,,,,,,,,,,
70303,1560687016532,7,2.42,1.91,3.38,1.89,2.87,1.18,-0.0,0.53,-13,-10,-23,1.18,4251,7,78,35,46,924,234.0,383,456,60,120.0,142,1,290,198,33,0,0,227,10824,-1494,234,,,,,,,,,,,,
70323,1560687016552,4,2.51,1.85,3.43,1.93,2.82,1.11,-0.06,0.49,-10,-6,-20,1.11,4219,7,78,35,46,917,236.0,380,456,60,121.0,142,1,289,197,33,0,0,222,250,13602,236,,,,,,,,,,,,
70343,1560687016572,2,2.57,1.8,3.48,1.97,2.79,1.05,-0.11,0.45,-7,-3,-16,1.05,4204,7,78,35,46,911,238.0,382,461,60,123.0,142,1,288,197,33,0,0,221,-1530,13602,238,45.702004,4.911068,23.9,197.1,0,0.0,0,0.0,0.52,1,0.34,1.1724
70363,1560687016591,0,2.65,1.78,3.53,2.01,2.78,1.05,-0.16,0.47,-4,-5,-12,1.06,4218,7,78,35,46,907,240.0,372,463,60,123.0,130,1,289,197,31,0,0,215,250,250,240,,,,,,,,,,,,
70383,1560687016611,-0,2.74,1.76,3.56,2.07,2.75,1.11,-0.2,0.48,-1,-7,-8,1.12,4253,7,78,35,46,903,240.0,370,453,60,121.0,130,1,290,198,31,0,0,209,1088,250,240,,,,,,,,,,,,
70403,1560687016631,5,2.84,1.76,3.58,2.11,2.74,1.06,-0.3,0.46,2,-6,-5,1.1,4145,7,78,35,46,905,241.0,375,455,60,120.0,130,1,288,199,31,0,0,207,250,-1483,241,,,,,,,,,,,,
70423,1560687016651,2,0.33,1.73,3.61,2.14,2.74,0.97,-0.37,0.39,6,-2,-1,1.04,4102,7,78,35,47,908,241.0,367,458,60,123.0,130,1,292,195,31,0,0,202,13964,-25600,241,,,,,,,,,,,,
70443,1560687016671,-0,0.42,1.71,3.64,2.16,2.74,0.95,-0.39,0.41,9,-3,4,1.03,4113,7,78,35,47,911,240.0,363,463,60,123.0,130,1,292,199,31,0,0,198,12800,250,240,45.702,4.911076,23.28,197.1,0,0.0,0,0.0,0.5217,1,0.34,1.174
70463,1560687016691,1,0.44,1.71,3.67,2.16,2.75,1.0,-0.47,0.5,11,-5,9,1.11,4005,7,78,35,46,915,242.0,360,461,60,123.0,125,1,285,193,30,0,0,195,-1481,-1483,242,,,,,,,,,,,,
70483,1560687016710,1,0.43,1.71,3.68,2.16,2.74,0.92,-0.6,0.52,14,-2,11,1.1,3945,7,78,35,47,917,240.0,351,457,60,122.0,125,1,285,195,30,0,0,191,250,-25600,240,,,,,,,,,,,,
70503,1560687016730,-2,0.43,1.71,3.69,2.15,2.75,0.94,-0.65,0.5,17,-3,13,1.14,3945,7,78,35,47,918,243.0,344,460,60,123.0,125,1,285,195,30,0,0,187,13874,250,243,,,,,,,,,,,,
70523,1560687016750,5,0.44,1.71,3.69,2.17,2.71,0.98,-0.66,0.45,20,-4,16,1.18,3930,7,78,35,47,916,245.0,345,463,60,121.0,125,1,283,195,30,0,0,186,14326,-1483,245,,,,,,,,,,,,
70543,1560687016770,-0,0.43,1.69,3.7,2.15,2.7,0.95,-0.69,0.33,23,-1,20,1.18,3887,7,78,35,48,913,245.0,337,459,60,123.0,125,1,279,198,30,0,0,182,-1281,8704,245,45.701996,4.911084,22.36,197.1,0,0.0,0,0.0,0.5233,1,0.34,1.1757
70563,1560687016792,-0,0.43,1.68,3.7,2.16,2.67,1.01,-0.74,0.36,25,-4,25,1.26,3904,7,78,35,48,908,245.0,340,459,60,123.0,114,1,281,195,28,0,0,177,250,8704,245,,,,,,,,,,,,
70583,1560687016812,1,0.44,1.66,3.7,2.16,2.67,0.97,-0.82,0.39,27,-3,29,1.27,3867,7,78,35,48,904,246.0,339,465,60,121.0,114,1,275,198,28,0,0,177,-1,13602,246,,,,,,,,,,,,
70603,1560687016832,-0,0.43,1.67,3.7,2.16,2.68,0.98,-0.86,0.41,30,-4,32,1.3,3782,7,78,35,48,898,247.0,340,458,60,123.0,114,1,268,196,28,0,0,172,-1,10824,247,,,,,,,,,,,,
70623,1560687016852,-1,0.44,1.66,3.68,2.15,2.65,0.93,-0.84,0.36,32,-1,34,1.25,3758,7,78,35,49,892,246.0,332,461,60,122.0,114,1,266,200,28,0,0,169,-1,18432,246,,,,,,,,,,,,
70643,1560687016872,-2,0.44,1.68,3.7,2.15,2.67,0.95,-0.84,0.3,34,-4,38,1.27,3753,8,78,35,50,890,247.0,337,455,60,123.0,114,1,266,200,28,0,0,169,-1,10318,247,45.701996,4.911091,21.75,197.1,0,0.0,0,0.0,0.525,1,0.34,1.1774
70663,1560687016892,-1,0.44,1.67,3.69,2.15,2.65,0.93,-0.82,0.31,36,-3,41,1.24,3696,8,78,35,50,889,245.0,328,460,60,121.0,114,1,258,202,28,0,0,169,-1,10824,245,,,,,,,,,,,,
70683,1560687016910,-1,0.44,1.67,3.7,2.15,2.65,0.94,-0.86,0.34,37,-6,45,1.27,3652,8,78,35,51,889,243.0,331,460,60,123.0,114,1,256,207,28,0,0,167,-1,10824,243,,,,,,,,,,,,
70703,1560687016930,-2,0.44,1.68,3.69,2.13,2.66,0.9,-0.86,0.36,38,-4,47,1.25,3660,9,78,35,52,891,243.0,323,461,60,122.0,114,1,257,211,28,0,0,166,-1,18432,243,,,,,,,,,,,,
70723,1560687016950,5,0.43,1.67,3.69,2.14,2.66,0.9,-0.87,0.36,40,-6,49,1.25,3577,13,78,35,53,893,242.0,318,457,60,120.0,114,1,247,213,28,0,0,165,-1,10318,242,,,,,,,,,,,,
70743,1560687016970,-0,0.43,1.68,3.7,2.13,2.66,0.91,-0.87,0.38,41,-4,50,1.26,3557,20,78,35,56,896,241.0,316,461,60,123.0,114,1,246,226,28,0,0,165,-1,-1496,241,45.701996,4.911098,20.97,197.1,0,0.0,0,0.0,0.5267,1,0.34,1.179
70763,1560687016990,-0,0.43,1.68,3.69,2.12,2.65,0.92,-0.85,0.32,42,-3,51,1.25,3596,28,78,35,61,900,241.0,310,457,60,121.0,128,1,249,248,31,0,0,162,-1,250,241,,,,,,,,,,,,
70783,1560687017006,-0,0.42,1.68,3.69,2.11,2.65,0.93,-0.84,0.34,43,-6,55,1.25,3635,35,78,35,66,906,239.0,297,455,60,123.0,128,1,254,267,31,0,0,162,-1,-1530,239,,,,,,,,,,,,
70803,1560687017026,-2,0.42,1.68,3.69,2.11,2.65,0.9,-0.82,0.37,43,-6,55,1.22,3689,41,78,35,73,911,237.0,267,457,60,122.0,128,1,261,288,31,0,0,162,-1,1596,237,,,,,,,,,,,,
70823,1560687017046,0,0.4,1.67,3.68,2.1,2.65,0.92,-0.81,0.38,44,-6,55,1.23,3865,46,78,35,78,914,235.0,255,460,60,123.0,128,1,282,325,31,0,0,162,-236,-1530,235,,,,,,,,,,,,
70843,1560687017066,3,0.38,1.68,3.68,2.09,2.66,0.91,-0.82,0.37,44,-4,55,1.22,3954,52,78,35,83,919,235.0,270,456,60,120.0,128,1,290,386,31,0,0,161,-236,15360,234,45.701992,4.911103,20.22,197.0,0,0.0,0,0.0,0.5283,1,0.34,1.1807
70863,1560687017092,-2,0.36,1.68,3.68,2.09,2.67,0.92,-0.8,0.36,44,-3,56,1.22,3931,59,78,35,88,927,234.0,277,463,60,123.0,247,1,288,399,58,0,0,163,-236,-17920,234,,,,,,,,,,,,
70883,1560687017112,1,0.34,1.68,3.64,2.1,2.67,0.92,-0.79,0.34,44,-5,58,1.22,3913,66,78,35,91,933,234.0,266,457,60,122.0,247,1,287,441,58,0,0,163,5134,250,234,,,,,,,,,,,,
70903,1560687017132,0,2.92,1.7,3.6,2.09,2.67,0.89,-0.77,0.32,44,-2,59,1.17,3876,72,78,35,94,937,233.0,269,459,60,122.0,247,1,283,535,58,0,0,163,5134,-17920,233,,,,,,,,,,,,
70923,1560687017152,-1,2.88,1.7,3.57,2.1,2.67,0.93,-0.76,0.38,43,-3,59,1.2,3784,77,78,35,96,940,231.0,272,467,60,122.0,247,1,272,597,58,0,0,163,-236,1210,231,,,,,,,,,,,,
70943,1560687017172,1,2.82,1.73,3.54,2.1,2.67,0.92,-0.71,0.4,43,-2,58,1.16,3699,81,78,35,97,943,229.0,279,451,60,122.0,247,1,263,630,58,0,0,165,5134,-1532,229,45.701988,4.911108,20.23,197.0,0,0.0,0,0.0,0.53,1,0.34,1.1824
70963,1560687017192,0,2.76,1.76,3.48,2.11,2.67,0.93,-0.7,0.42,42,-5,58,1.16,3630,83,78,35,97,945,228.0,281,465,60,122.0,381,1,255,629,87,0,0,165,3584,16384,228,,,,,,,,,,,,
70983,1560687017212,1,2.69,1.8,3.42,2.11,2.69,0.91,-0.63,0.4,41,-2,56,1.11,3589,84,78,35,97,944,225.0,291,460,60,123.0,381,1,250,628,87,0,0,168,-236,1088,225,,,,,,,,,,,,
71003,1560687017232,5,2.61,1.85,3.36,2.09,2.71,0.92,-0.6,0.38,39,-3,56,1.1,3656,85,78,36,98,950,221.0,292,461,60,121.0,381,1,257,668,87,0,0,170,5134,16384,221,,,,,,,,,,,,
71023,1560687017252,-1,2.53,1.93,3.27,2.07,2.75,0.92,-0.53,0.39,37,-1,55,1.06,3843,85,78,36,97,976,218.0,297,462,60,123.0,381,1,279,633,87,0,0,172,-236,-1533,218,,,,,,,,,,,,
71043,1560687017272,0,2.44,2.02,3.19,2.04,2.81,0.87,-0.43,0.38,34,-1,53,0.97,4176,86,78,36,97,1001,213.0,312,464,60,123.0,381,1,295,638,87,0,0,179,-1,250,213,45.701981,4.911112,19.7,197.0,0,0.0,0,0.0,0.5317,1,0.34,1.184
71063,1560687017293,-1,2.35,2.14,3.1,2.01,2.84,0.83,-0.35,0.39,32,-1,50,0.9,4350,86,78,36,97,1027,210.0,321,453,60,122.0,514,1,292,639,108,0,0,186,-1,250,207,,,,,,,,,,,,
71083,1560687017313,-1,2.28,2.22,3.02,1.99,2.83,0.85,-0.34,0.5,28,1,47,0.91,4445,87,78,36,97,1069,206.0,336,450,60,121.0,514,1,290,640,108,0,0,201,14326,966,206,,,,,,,,,,,,
71103,1560687017333,-0,2.2,2.3,2.9,2.0,2.81,0.8,-0.3,0.64,25,1,43,0.85,4290,87,78,36,97,1158,206.0,348,448,60,120.0,514,1,293,668,108,0,0,209,12800,-17920,206,,,,,,,,,,,,
71123,1560687017353,5,2.11,2.39,2.79,2.03,2.75,0.76,-0.21,0.72,22,2,37,0.79,4205,87,78,36,97,1248,212.0,355,447,60,120.0,514,1,294,668,108,0,0,224,250,250,208,,,,,,,,,,,,
71143,1560687017373,1,2.03,2.47,2.7,2.05,2.73,0.78,-0.11,0.78,18,2,33,0.79,4125,88,78,36,98,1310,216.0,353,451,60,122.0,514,1,294,668,108,0,0,226,250,1210,209,45.701977,4.911115,19.6,197.0,0,0.0,0,0.0,0.5333,1,0.34,1.1857
71163,1560687017392,-2,1.97,2.53,2.67,2.06,2.76,0.77,-0.03,0.78,15,-1,30,0.77,4013,88,78,36,97,1368,222.0,355,468,60,123.0,466,1,297,636,98,0,0,229,1596,250,211,,,,,,,,,,,,
71183,1560687017412,4,1.91,2.56,2.68,2.04,2.85,0.76,0.02,0.81,12,-3,26,0.77,3976,88,78,36,97,1401,225.0,347,452,60,120.0,466,1,294,636,98,0,0,233,19968,10824,212,,,,,,,,,,,,
71203,1560687017432,-1,1.87,2.56,2.72,2.02,2.98,0.78,0.13,0.77,9,-3,21,0.79,4040,88,78,36,97,1433,228.0,349,462,60,123.0,466,1,297,637,98,0,0,232,250,250,214,,,,,,,,,,,,
71223,1560687017452,1,1.83,2.55,2.81,1.98,3.1,0.74,0.2,0.73,6,-3,18,0.77,4270,88,78,36,98,1403,232.0,355,472,60,123.0,466,1,292,638,98,0,0,236,13602,13602,213,,,,,,,,,,,,
71243,1560687017472,1,1.8,2.56,2.93,1.96,3.13,0.73,0.23,0.68,3,-2,12,0.76,4425,88,78,36,98,1373,236.0,361,472,60,123.0,466,1,289,639,98,0,0,240,250,13602,214,45.701973,4.911117,19.74,196.9,0,0.0,0,0.0,0.535,1,0.34,1.1874
71263,1560687017492,-1,1.78,2.56,2.98,1.94,3.14,0.65,0.29,0.58,1,-1,7,0.71,4608,88,78,36,97,1314,243.0,371,461,60,122.0,539,1,287,641,115,0,0,244,-1445,10812,214,,,,,,,,,,,,
71283,1560687017512,3,1.78,2.56,2.97,1.95,3.12,0.63,0.35,0.52,-2,3,4,0.72,4825,88,78,36,97,1256,248.0,384,462,60,123.0,539,1,283,642,115,0,0,251,250,-1,214,,,,,,,,,,,,
71303,1560687017532,-1,1.78,2.57,2.91,1.94,3.07,0.61,0.42,0.58,-5,3,0,0.75,5057,89,78,36,97,1224,253.0,396,460,60,120.0,539,1,281,639,115,0,0,256,-1,-1,216,,,,,,,,,,,,
71323,1560687017552,2,1.78,2.58,2.81,1.94,3.03,0.54,0.43,0.62,-8,3,-4,0.69,5166,89,78,36,96,1195,258.0,419,458,60,123.0,539,1,285,609,115,0,0,260,-10440,250,220,,,,,,,,,,,,
71343,1560687017572,1,1.78,2.59,2.75,1.94,2.99,0.6,0.46,0.65,-11,2,-9,0.76,5340,89,78,36,96,1166,262.0,432,460,60,120.0,539,1,291,596,115,0,0,270,-1,0,223,45.701969,4.911119,21.9,196.9,0,0.0,0,0.0,0.5367,1,0.34,1.189
71363,1560687017592,4,1.79,2.6,2.75,1.94,2.91,0.53,0.49,0.62,-13,5,-14,0.72,5437,89,78,36,96,1137,269.0,442,463,60,123.0,542,1,295,590,121,0,0,279,-1,-1,225,,,,,,,,,,,,
71383,1560687017612,-1,1.81,2.62,2.73,1.96,2.88,0.57,0.55,0.72,-16,4,-17,0.79,5430,89,78,36,96,1130,274.0,455,453,60,120.0,542,1,295,590,121,0,0,284,2414,0,230,,,,,,,,,,,,
71403,1560687017632,1,1.83,2.63,2.72,1.97,2.88,0.64,0.59,0.78,-18,3,-20,0.87,5406,89,78,36,96,1130,281.0,463,464,60,121.0,542,1,294,592,121,0,0,294,-1529,-27136,234,,,,,,,,,,,,
71423,1560687017652,4,1.86,2.63,2.7,1.99,2.88,0.6,0.6,0.75,-20,4,-24,0.84,5542,89,78,36,95,1113,288.0,468,460,60,123.0,542,1,299,582,121,0,0,295,0,28160,239,,,,,,,,,,,,
71443,1560687017672,1,1.89,2.62,2.71,1.98,2.88,0.53,0.5,0.83,-22,3,-26,0.73,5635,89,78,36,95,1091,292.0,480,457,60,122.0,542,1,303,575,121,0,0,305,80,80,245,45.701962,4.911124,22.54,196.9,0,0.0,0,0.0,0.5383,1,0.34,1.1907
71463,1560687017691,-1,1.94,2.61,2.74,1.99,2.9,0.46,0.44,0.94,-22,2,-28,0.64,5767,89,78,36,95,1070,296.0,491,457,60,120.0,489,1,308,553,120,0,0,313,90,8841,250,,,,,,,,,,,,
71483,1560687017711,-1,1.99,2.59,2.77,2.03,2.89,0.46,0.45,1.04,-22,-1,-30,0.64,6036,89,78,36,95,1049,300.0,502,458,60,121.0,489,1,318,540,120,0,0,322,26880,115,252,,,,,,,,,,,,
71503,1560687017731,2,2.03,2.59,2.78,2.09,2.87,0.45,0.53,1.13,-22,-4,-31,0.69,6179,90,78,36,95,1030,303.0,520,452,60,121.0,489,1,325,545,120,0,0,326,28160,1886,259,,,,,,,,,,,,
71523,1560687017751,4,2.07,2.62,2.76,2.1,2.84,0.44,0.57,1.2,-23,-7,-31,0.72,6169,91,78,36,96,1010,305.0,532,447,60,121.0,489,1,325,545,120,0,0,321,29440,-29978,268,,,,,,,,,,,,
71543,1560687017771,5,2.1,2.65,2.73,2.13,2.81,0.29,0.58,1.14,-21,-8,-31,0.65,6233,92,78,36,95,1003,310.0,541,447,60,123.0,489,1,328,536,120,0,0,327,125,-10554,275,45.701958,4.911128,24.33,196.9,0,0.0,0,0.0,0.54,1,0.34,1.1924
71563,1560687017791,1,2.13,2.64,2.74,2.15,2.78,0.15,0.59,1.02,-19,-7,-31,0.61,6283,92,78,36,96,1005,313.0,550,448,60,123.0,456,1,331,535,127,0,0,340,-30976,28160,282,,,,,,,,,,,,
71583,1560687017811,-0,2.17,2.61,2.81,2.16,2.77,0.15,0.51,0.97,-18,-4,-31,0.53,6227,93,78,36,96,998,315.0,552,447,60,122.0,456,1,328,536,127,0,0,355,-28416,-14714,290,,,,,,,,,,,,
71603,1560687017831,1,2.18,2.58,2.88,2.17,2.74,0.3,0.37,1.07,-19,-0,-30,0.48,6252,93,78,36,96,990,319.0,548,460,60,121.0,456,1,331,543,127,0,0,357,-27136,2060,297,,,,,,,,,,,,
71623,1560687017851,1,2.21,2.56,2.88,2.19,2.72,0.46,0.33,1.16,-20,-2,-28,0.57,6375,94,78,36,96,981,321.0,557,452,60,120.0,456,1,335,540,127,0,0,330,155,-24576,307,,,,,,,,,,,,
71643,1560687017871,5,2.22,2.56,2.86,2.2,2.72,0.38,0.4,1.14,-18,-6,-26,0.56,6401,95,78,36,96,972,326.0,560,447,60,122.0,456,1,337,533,127,0,0,337,165,-31206,310,45.701954,4.911134,27.03,196.9,0,0.0,0,0.0,0.5417,1,0.34,1.194
71663,1560687017891,1,2.23,2.57,2.84,2.2,2.71,0.25,0.35,1.09,-15,-3,-24,0.43,6432,96,78,36,96,964,326.0,562,443,60,122.0,410,1,338,533,129,0,0,338,175,-29978,320,,,,,,,,,,,,
71683,1560687017911,2,2.22,2.54,2.86,2.18,2.69,0.35,0.32,1.1,-15,-1,-24,0.47,6478,97,78,36,96,960,333.0,567,452,60,121.0,410,1,340,537,129,0,0,347,-6528,13,326,,,,,,,,,,,,
71703,1560687017931,5,2.23,2.52,2.87,2.19,2.66,0.37,0.29,1.11,-13,-3,-22,0.47,6519,97,78,36,96,963,339.0,566,455,60,121.0,410,1,342,536,129,0,0,355,-122,-30438,331,,,,,,,,,,,,
71723,1560687017951,1,2.22,2.51,2.9,2.2,2.64,0.29,0.25,1.11,-11,-1,-20,0.38,6565,98,78,36,96,970,343.0,572,452,60,121.0,410,1,345,534,129,0,0,359,-14714,-6644,336,,,,,,,,,,,,
71743,1560687017971,3,2.23,2.51,2.92,2.21,2.63,0.41,0.19,1.18,-13,-2,-19,0.45,6651,99,78,36,96,975,348.0,575,449,60,121.0,410,1,349,532,129,0,0,359,-1246,28553,343,45.70195,4.911142,29.92,196.9,0,0.0,0,0.0,0.5433,1,0.34,1.1957
71763,1560687017991,1,2.22,2.51,2.91,2.2,2.64,0.32,0.21,1.11,-10,-2,-17,0.38,6722,100,78,36,95,980,354.0,575,451,60,123.0,389,1,354,528,134,0,0,361,3302,-6458,349,,,,,,,,,,,,
71783,1560687018005,5,2.21,2.51,2.92,2.19,2.65,0.45,0.15,1.17,-12,-2,-16,0.48,6783,100,78,36,95,983,357.0,584,451,60,121.0,389,1,357,528,134,0,0,367,-6640,-6656,350,,,,,,,,,,,,
71803,1560687018025,1,2.21,2.51,2.93,2.18,2.71,0.25,0.23,1.06,-9,-1,-14,0.34,6895,100,78,36,96,983,362.0,588,452,60,122.0,389,1,362,525,134,0,0,372,2790,-19126,356,,,,,,,,,,,,
71823,1560687018045,1,2.21,2.52,2.94,2.2,2.73,0.43,0.2,1.14,-11,-3,-13,0.47,7107,100,78,36,95,974,366.0,603,453,60,122.0,389,1,377,449,134,0,0,378,230,3,360,,,,,,,,,,,,
71843,1560687018065,5,2.21,2.51,2.95,2.2,2.7,0.48,0.07,1.21,-9,-0,-13,0.48,7281,100,78,36,95,954,370.0,605,455,60,121.0,389,1,390,539,134,0,0,380,486,-18948,365,45.701942,4.91115,32.37,196.9,0,0.0,0,0.0,0.545,1,0.35,1.1974
71863,1560687018092,4,2.2,2.52,2.92,2.21,2.67,0.36,0.05,1.17,-8,4,-13,0.37,7458,100,78,36,94,935,376.0,612,453,60,121.0,413,1,404,548,151,0,0,387,3,-19019,367,,,,,,,,,,,,
71883,1560687018112,5,2.2,2.52,2.89,2.21,2.63,0.31,-0.01,1.2,-7,3,-12,0.31,7521,100,78,36,94,915,379.0,613,458,60,121.0,413,1,409,551,151,0,0,394,19125,-3968,372,,,,,,,,,,,,
71903,1560687018132,6,2.21,2.53,2.87,2.2,2.63,0.33,-0.08,1.21,-6,1,-10,0.34,7609,100,78,36,94,895,385.0,611,457,60,120.0,413,1,415,555,151,0,0,405,240,-26615,377,,,,,,,,,,,,
71923,1560687018152,1,2.2,2.54,2.86,2.21,2.64,0.42,-0.09,1.19,-6,1,-10,0.43,7681,100,78,36,93,864,393.0,621,454,60,121.0,413,1,422,558,151,0,0,420,-6656,-8165,383,,,,,,,,,,,,
71943,1560687018172,-0,2.21,2.53,2.86,2.2,2.63,0.46,0.08,1.16,-6,-1,-9,0.47,7845,100,78,36,92,836,399.0,619,452,60,122.0,413,1,435,566,151,0,0,418,28696,-21792,388,45.701935,4.911159,34.66,196.9,0,0.0,0,0.0,0.5467,1,0.35,1.199
71963,1560687018191,4,2.21,2.53,2.89,2.2,2.65,0.41,0.21,1.24,-7,1,-9,0.46,7982,100,78,36,91,825,405.0,616,450,60,122.0,435,1,447,570,170,0,0,434,-9211,-3856,395,,,,,,,,,,,,
71983,1560687018211,2,2.2,2.52,2.89,2.2,2.65,0.45,0.19,1.23,-7,2,-9,0.49,8227,100,78,36,90,814,409.0,625,457,60,122.0,435,1,444,599,170,0,0,434,11560,-28332,401,,,,,,,,,,,,
72003,1560687018231,6,2.21,2.53,2.89,2.19,2.64,0.44,0.22,1.18,-7,1,-7,0.49,8461,100,78,36,89,802,416.0,625,450,60,122.0,435,1,436,612,170,0,0,437,18584,8488,406,,,,,,,,,,,,
72023,1560687018251,3,2.2,2.56,2.87,2.18,2.64,0.4,0.14,1.12,-7,-0,-9,0.42,8632,100,78,36,88,791,420.0,625,460,60,122.0,435,1,430,617,170,0,0,456,-4082,17628,410,,,,,,,,,,,,
72043,1560687018271,2,2.21,2.63,2.85,2.2,2.63,0.41,0.18,1.16,-7,0,-10,0.45,8773,100,78,36,88,791,430.0,628,449,60,121.0,435,1,425,606,170,0,0,469,-3314,-3210,414,45.701931,4.911168,37.27,196.9,0,0.0,0,0.0,0.5483,1,0.35,1.2007
72063,1560687018291,3,2.2,2.69,2.86,2.3,2.59,0.47,0.05,1.24,-7,1,-9,0.48,8865,100,78,36,87,791,433.0,628,450,60,122.0,484,1,422,594,202,0,0,488,243,10432,420,,,,,,,,,,,,
72083,1560687018311,1,2.21,2.72,2.86,2.39,2.57,0.5,0.08,1.31,-7,-0,-11,0.5,8988,100,78,36,87,803,437.0,636,447,60,121.0,484,1,419,594,202,0,0,491,-28332,32033,428,,,,,,,,,,,,
72103,1560687018331,2,2.21,2.71,2.85,2.4,2.59,0.48,0.08,1.38,-7,0,-10,0.48,9079,100,78,36,87,816,445.0,631,453,60,120.0,484,1,418,594,202,0,0,477,2131,-9216,435,,,,,,,,,,,,
72123,1560687018351,2,2.22,2.71,2.83,2.36,2.61,0.55,0.18,1.37,-8,0,-9,0.58,9204,100,78,35,87,829,448.0,633,450,60,121.0,484,1,418,594,202,0,0,477,-26615,16383,441,,,,,,,,,,,,
72143,1560687018371,6,2.22,2.71,2.81,2.34,2.64,0.63,0.03,1.43,-7,-3,-9,0.63,9346,100,78,35,87,841,458.0,639,451,60,121.0,484,1,418,583,202,0,0,498,17628,6274,446,45.701923,4.911179,39.83,196.9,0,0.0,0,0.0,0.55,1,0.35,1.2024
72163,1560687018391,6,2.22,2.69,2.79,2.35,2.63,0.48,0.03,1.43,-7,-4,-11,0.48,9474,100,78,35,86,874,464.0,643,455,60,121.0,470,1,418,594,211,0,0,510,30272,248,450,,,,,,,,,,,,
72183,1560687018411,2,2.23,2.67,2.87,2.35,2.66,0.34,0.16,1.3,-6,-1,-12,0.37,9580,100,78,35,86,906,470.0,645,460,60,121.0,470,1,415,585,211,0,0,551,8488,-8187,456,,,,,,,,,,,,
72203,1560687018431,6,2.24,2.65,2.98,2.36,2.67,0.5,0.03,1.32,-7,-1,-11,0.51,9796,100,78,35,86,929,472.0,650,452,60,121.0,470,1,405,591,211,0,0,549,-9203,1779,465,,,,,,,,,,,,
72223,1560687018451,5,2.24,2.62,2.99,2.34,2.7,0.4,0.12,1.3,-8,-0,-11,0.42,10151,100,78,35,85,949,480.0,648,457,60,121.0,470,1,406,577,211,0,0,500,8488,-32248,469,,,,,,,,,,,,
72243,1560687018471,4,2.23,2.62,2.93,2.33,2.68,0.4,0.2,1.26,-8,1,-11,0.44,10262,100,78,35,85,969,485.0,653,460,60,121.0,470,1,413,577,211,0,0,535,-6441,-28648,475,45.701916,4.91119,43.07,196.9,0,0.0,0,0.0,0.5517,1,0.35,1.2041
72263,1560687018491,4,2.25,2.63,2.83,2.32,2.64,0.42,0.27,1.25,-8,2,-11,0.5,10319,100,78,35,85,989,493.0,647,455,60,120.0,470,1,417,577,225,0,0,541,-6528,-29984,481,,,,,,,,,,,,
72283,1560687018511,3,2.25,2.63,2.82,2.33,2.57,0.44,0.21,1.26,-7,3,-12,0.49,10307,100,78,35,85,994,497.0,652,452,60,120.0,470,1,416,577,225,0,0,575,-9216,1341,487,,,,,,,,,,,,
72303,1560687018531,3,2.25,2.63,2.83,2.34,2.55,0.41,0.21,1.3,-7,3,-12,0.46,10302,100,78,35,85,994,502.0,651,452,60,121.0,470,1,416,577,225,0,0,550,-32248,-28648,492,,,,,,,,,,,,
72323,1560687018551,-0,2.26,2.63,2.82,2.34,2.56,0.4,0.22,1.34,-7,5,-10,0.46,10296,100,78,35,85,990,507.0,645,457,60,121.0,470,1,416,577,225,0,0,544,-3414,15649,502,,,,,,,,,,,,
72343,1560687018571,4,2.26,2.63,2.82,2.33,2.56,0.37,0.25,1.28,-6,4,-10,0.45,10313,100,78,35,85,985,514.0,649,452,60,121.0,470,1,417,577,225,0,0,545,-14,-8188,507,45.701912,4.911202,46.04,196.9,0,0.0,0,0.0,0.5533,1,0.35,1.2057
72363,1560687018591,3,2.27,2.63,2.8,2.32,2.58,0.31,0.3,1.15,-5,4,-10,0.43,10463,100,78,35,85,980,518.0,656,452,60,121.0,443,1,428,577,227,0,0,557,-8187,-3082,514,,,,,,,,,,,,
72383,1560687018611,5,2.27,2.62,2.85,2.32,2.59,0.28,0.29,1.16,-4,5,-11,0.41,10463,100,78,35,85,975,523.0,656,458,60,121.0,443,1,428,577,227,0,0,588,-32248,-32248,521,,,,,,,,,,,,
72403,1560687018631,5,2.27,2.59,2.92,2.32,2.57,0.28,0.27,1.11,-4,7,-10,0.39,10611,100,78,35,85,969,530.0,653,454,60,121.0,443,1,433,577,227,0,0,584,-22519,-32248,528,,,,,,,,,,,,
72423,1560687018651,2,2.27,2.57,2.94,2.32,2.57,0.28,0.23,1.11,-4,4,-7,0.36,10659,100,78,35,85,963,536.0,660,455,60,121.0,443,1,435,577,227,0,0,560,-2934,774,534,,,,,,,,,,,,
72443,1560687018671,2,2.27,2.59,2.92,2.31,2.59,0.19,0.31,1.05,-4,6,-8,0.37,10763,100,78,35,85,960,541.0,658,454,60,121.0,443,1,437,577,227,0,0,563,-2336,-23055,543,45.7019,4.911215,48.73,196.9,0,0.0,0,0.0,0.555,1,0.35,1.2074
72463,1560687018691,6,2.27,2.59,2.89,2.31,2.59,0.26,0.29,1.07,-3,4,-8,0.39,10844,100,78,35,85,959,548.0,657,455,60,120.0,422,1,441,577,229,0,0,574,14504,15649,545,,,,,,,,,,,,
72483,1560687018710,5,2.27,2.59,2.9,2.3,2.58,0.31,0.24,1.0,-2,3,-8,0.39,10939,100,78,35,85,958,552.0,652,458,60,121.0,422,1,442,577,229,0,0,600,-9072,-3190,551,,,,,,,,,,,,
72503,1560687018730,1,2.28,2.57,2.91,2.32,2.52,0.28,0.1,1.1,-1,2,-8,0.3,11048,100,78,35,84,957,557.0,653,457,60,120.0,422,1,443,559,229,0,0,609,-22359,259,557,,,,,,,,,,,,
72523,1560687018750,4,2.28,2.55,2.92,2.35,2.49,0.28,0.21,1.18,-1,0,-6,0.34,11042,100,78,35,84,956,562.0,650,455,60,120.0,422,1,443,559,229,0,0,599,-23623,-32504,562,,,,,,,,,,,,
72543,1560687018770,7,2.26,2.56,2.89,2.35,2.49,0.35,0.14,1.26,-2,-1,-5,0.37,11081,100,78,35,84,955,567.0,651,453,60,120.0,422,1,443,559,229,0,0,584,1780,-23055,569,45.701897,4.91123,51.86,196.8,0,0.0,0,0.0,0.5567,1,0.35,1.209
72563,1560687018792,4,2.27,2.54,2.86,2.35,2.55,0.25,0.24,1.28,-2,1,-4,0.34,11187,100,78,35,84,951,573.0,657,452,60,120.0,410,1,442,559,235,0,0,596,1267,19304,573,,,,,,,,,,,,
72583,1560687018812,6,2.27,2.54,2.87,2.35,2.6,0.31,0.21,1.35,-1,2,-5,0.37,11315,100,78,35,84,944,576.0,660,457,60,121.0,410,1,441,559,235,0,0,604,259,243,576,,,,,,,,,,,,
72603,1560687018832,3,2.27,2.53,2.87,2.34,2.61,0.38,0.14,1.25,-0,0,-5,0.41,11377,100,78,35,84,938,584.0,662,455,60,121.0,410,1,441,559,235,0,0,614,10432,4956,584,,,,,,,,,,,,
72623,1560687018852,1,2.26,2.51,2.93,2.35,2.6,0.45,0.13,1.24,-0,-4,-3,0.47,11510,100,78,35,84,933,586.0,657,456,60,120.0,410,1,440,559,235,0,0,630,-1894,16529,589,,,,,,,,,,,,
72643,1560687018872,7,2.26,2.48,2.96,2.34,2.58,0.38,0.09,1.17,-1,-6,-2,0.39,11645,100,78,35,84,924,595.0,663,456,60,120.0,410,1,440,563,235,0,0,621,3472,3403,595,45.701885,4.911245,54.27,196.8,0,0.0,0,0.0,0.5583,1,0.36,1.2107
72663,1560687018892,5,2.27,2.47,2.98,2.34,2.54,0.3,-0.0,1.18,-2,-4,-1,0.3,11748,100,78,35,84,913,599.0,661,455,60,120.0,418,1,440,547,250,0,0,632,4956,3395,599,,,,,,,,,,,,
72683,1560687018912,4,2.28,2.45,2.97,2.31,2.53,0.23,-0.07,1.13,-2,-1,-1,0.25,11807,100,78,35,83,903,605.0,662,459,60,120.0,418,1,440,550,250,0,0,628,-7939,771,604,,,,,,,,,,,,
72703,1560687018932,4,2.27,2.45,2.96,2.29,2.53,0.16,-0.04,1.13,-1,0,0,0.17,11912,100,78,35,83,898,612.0,666,458,60,120.0,418,1,440,552,250,0,0,636,-30139,-10251,612,,,,,,,,,,,,
72723,1560687018952,5,2.27,2.51,2.89,2.3,2.52,0.1,-0.07,1.21,-0,1,1,0.12,11935,100,78,35,83,889,614.0,663,457,60,121.0,418,1,440,553,250,0,0,639,19304,24,613,,,,,,,,,,,,
72743,1560687018972,5,2.27,2.57,2.87,2.32,2.5,0.11,-0.1,1.26,0,2,1,0.15,11973,100,78,35,83,874,619.0,665,456,60,120.0,418,1,440,554,250,0,0,644,30721,-2830,615,45.701878,4.911261,57.2,196.8,0,0.0,0,0.0,0.56,1,0.36,1.2124
72763,1560687018992,1,2.28,2.58,2.88,2.35,2.47,0.18,-0.17,1.27,1,2,-1,0.25,12011,100,78,35,83,859,623.0,664,459,60,120.0,405,1,440,555,252,0,0,646,30721,4909,623,,,,,,,,,,,,
72783,1560687019006,3,2.28,2.55,2.9,2.35,2.48,0.19,-0.24,1.23,2,0,-0,0.31,12073,100,78,35,83,849,628.0,666,455,60,120.0,405,1,440,555,252,0,0,654,20993,-3488,628,,,,,,,,,,,,
72803,1560687019026,5,2.26,2.55,2.96,2.38,2.53,0.21,-0.31,1.31,2,-1,0,0.37,12159,100,78,35,83,838,629.0,672,457,60,120.0,405,1,440,555,252,0,0,664,-16046,24583,629,,,,,,,,,,,,
72823,1560687019046,4,2.28,2.55,3.03,2.38,2.72,0.15,-0.32,1.37,1,-3,-0,0.35,12295,100,78,35,83,821,633.0,669,456,60,120.0,405,1,440,555,252,0,0,654,3,6208,632,,,,,,,,,,,,
72843,1560687019066,3,2.28,2.55,3.06,2.39,2.82,0.2,-0.3,1.2,2,-3,-1,0.36,12483,100,78,35,83,803,636.0,672,460,60,121.0,405,1,440,555,252,0,0,666,-2580,31988,640,45.70187,4.911278,59.26,196.8,0,0.0,0,0.0,0.5617,1,0.36,1.2141
72863,1560687019092,5,2.28,2.54,3.09,2.37,2.79,0.16,-0.29,1.15,2,-5,1,0.33,12634,100,78,35,83,795,641.0,673,459,60,120.0,411,1,440,555,264,0,0,672,24,-2830,645,,,,,,,,,,,,
72883,1560687019112,7,2.28,2.51,3.17,2.37,2.78,0.17,-0.33,1.24,2,-8,1,0.37,12789,100,78,35,83,788,647.0,675,457,60,121.0,411,1,440,555,264,0,0,706,4909,-10344,650,,,,,,,,,,,,
72903,1560687019132,6,2.28,2.48,3.22,2.37,2.75,0.25,-0.34,1.19,2,-9,-0,0.42,12904,100,78,35,83,780,652.0,674,460,60,121.0,411,1,440,555,264,0,0,695,-30207,16118,655,,,,,,,,,,,,
72923,1560687019152,3,2.28,2.49,3.18,2.38,2.71,0.23,-0.2,1.16,2,-8,2,0.31,12966,100,78,35,83,773,657.0,673,455,60,120.0,411,1,440,555,264,0,0,671,-3488,-3584,655,,,,,,,,,,,,
72943,1560687019172,5,2.29,2.56,3.09,2.38,2.66,0.24,-0.27,1.19,2,-5,2,0.36,12948,100,78,35,83,772,662.0,665,452,60,120.0,411,1,440,555,264,0,0,680,-2830,-2830,662,45.701858,4.911295,62.54,196.8,0,0.0,0,0.0,0.5633,1,0.36,1.2157
72963,1560687019192,3,2.29,2.57,3.0,2.38,2.62,0.28,-0.14,0.91,3,-3,1,0.31,12939,100,78,34,83,772,663.0,666,456,60,120.0,410,1,440,560,272,0,0,693,-2345,-2830,663,,,,,,,,,,,,
72983,1560687019212,3,2.28,2.56,3.0,2.38,2.57,0.35,-0.19,1.0,3,-4,2,0.4,12877,100,78,34,83,769,668.0,665,461,60,120.0,410,1,440,560,272,0,0,704,3543,3543,668,,,,,,,,,,,,
73003,1560687019232,6,2.27,2.53,3.07,2.37,2.51,0.3,-0.18,0.98,3,-3,1,0.35,12877,100,78,34,83,765,672.0,669,456,60,120.0,410,1,440,560,272,0,0,702,8958,-10448,672,,,,,,,,,,,,
73023,1560687019252,3,2.27,2.48,3.13,2.36,2.53,0.41,-0.28,0.96,2,-2,1,0.5,13020,100,78,34,83,762,680.0,673,458,60,120.0,410,1,440,560,272,0,0,702,-10346,11069,676,,,,,,,,,,,,
73043,1560687019272,1,2.28,2.45,3.14,2.32,2.58,0.43,-0.14,1.06,2,-3,2,0.46,13093,100,78,34,83,758,682.0,676,454,60,120.0,410,1,440,560,272,0,0,690,-26562,-12152,683,45.701851,4.911314,64.27,196.8,0,0.0,0,0.0,0.565,1,0.36,1.2174
73063,1560687019292,7,2.26,2.44,3.11,2.29,2.67,0.46,-0.19,1.14,1,0,1,0.49,13157,100,78,34,83,755,686.0,670,450,60,120.0,407,1,440,560,278,0,0,701,-10399,-388,686,,,,,,,,,,,,
73083,1560687019312,7,2.27,2.43,3.06,2.25,2.71,0.45,-0.07,1.06,1,3,0,0.46,13316,100,78,34,83,753,691.0,685,456,60,120.0,407,1,440,560,278,0,0,701,-2830,-13072,688,,,,,,,,,,,,
73103,1560687019332,6,2.26,2.44,3.02,2.25,2.61,0.36,-0.07,0.99,2,5,-1,0.37,13288,100,78,34,83,753,692.0,684,456,60,120.0,407,1,440,575,278,0,0,719,14342,8010,695,,,,,,,,,,,,
73123,1560687019352,5,2.26,2.43,3.0,2.26,2.52,0.5,-0.15,1.04,2,4,-2,0.52,13412,100,78,34,83,754,696.0,682,460,60,120.0,407,1,440,560,278,0,0,714,16599,-12152,695,,,,,,,,,,,,
73143,1560687019372,5,2.27,2.43,3.01,2.29,2.51,0.53,-0.07,0.98,2,2,0,0.53,13373,100,78,34,83,757,699.0,674,458,60,119.0,407,1,440,560,278,0,0,720,19188,-13312,699,45.701836,4.911332,66.48,196.8,0,0.0,0,0.0,0.5667,1,0.36,1.2191
73163,1560687019392,4,2.26,2.45,3.01,2.31,2.55,0.56,-0.09,1.08,1,1,2,0.56,13460,100,78,34,83,760,699.0,678,455,60,120.0,406,1,440,560,284,0,0,717,24,-2830,699,,,,,,,,,,,,
73183,1560687019412,5,2.26,2.52,3.0,2.32,2.59,0.54,-0.07,1.17,1,1,1,0.54,13469,100,78,34,83,762,703.0,683,456,60,120.0,406,1,440,560,284,0,0,722,-20693,-4091,700,,,,,,,,,,,,
73203,1560687019432,4,2.26,2.59,3.02,2.31,2.62,0.54,-0.04,1.13,1,-1,1,0.55,13577,100,78,34,83,764,706.0,683,460,60,120.0,406,1,440,560,284,0,0,733,687,-2918,704,,,,,,,,,,,,
73223,1560687019452,1,2.26,2.6,3.13,2.29,2.68,0.5,0.1,1.18,2,-2,1,0.51,13606,100,78,34,83,763,710.0,687,455,60,120.0,406,1,440,560,284,0,0,741,-3888,-31066,707,,,,,,,,,,,,
73243,1560687019472,6,2.26,2.55,3.28,2.26,2.76,0.58,0.14,1.14,1,-2,-1,0.59,13736,100,78,34,83,762,715.0,684,461,60,120.0,406,1,440,560,284,0,0,739,-2560,-2314,713,45.701828,4.911351,68.06,196.8,0,0.0,0,0.0,0.5683,1,0.37,1.2207
73263,1560687019492,7,2.27,2.53,3.34,2.26,2.81,0.49,0.11,1.01,2,-0,-1,0.5,13837,100,78,34,83,760,720.0,690,453,60,120.0,407,1,440,560,292,0,0,745,-2830,-2358,714,,,,,,,,,,,,
73283,1560687019512,3,2.26,2.51,3.31,2.23,2.83,0.5,0.11,0.99,1,-2,-0,0.51,13807,100,78,34,83,758,724.0,682,468,60,120.0,407,1,440,560,292,0,0,739,-2918,-4096,722,,,,,,,,,,,,
73303,1560687019532,5,2.27,2.41,3.21,2.17,2.83,0.57,0.08,1.01,1,-3,-1,0.57,13878,100,78,34,83,754,727.0,699,456,60,120.0,407,1,440,560,292,0,0,735,-13580,-31066,725,,,,,,,,,,,,
73323,1560687019552,-3,2.28,2.39,3.1,2.16,2.74,0.51,0.12,0.96,2,1,-1,0.53,13796,100,78,34,83,750,729.0,692,466,60,124.0,407,1,440,560,292,0,0,740,-13580,-22796,729,,,,,,,,,,,,
73343,1560687019572,-1,2.27,2.36,3.04,2.15,2.66,0.65,0.07,0.94,2,2,0,0.65,13354,100,78,34,85,749,734.0,692,463,60,124.0,407,1,440,592,292,0,0,739,-2358,3462,731,45.701817,4.91137,70.34,196.8,0,0.0,0,0.0,0.57,1,0.37,1.2224
73363,1560687019592,0,2.27,2.34,2.93,2.14,2.51,0.69,0.13,0.98,3,4,1,0.71,12922,100,78,34,83,751,732.0,690,457,60,123.0,388,1,440,560,285,0,0,733,-13580,-2314,730,,,,,,,,,,,,
73383,1560687019612,1,2.26,2.28,2.89,2.14,2.47,0.7,0.1,0.97,2,4,0,0.71,12686,100,78,34,83,758,731.0,692,450,60,123.0,388,1,440,560,285,0,0,726,-2830,-25858,726,,,,,,,,,,,,
73403,1560687019632,-1,2.27,2.26,3.03,2.14,2.59,0.81,0.07,0.97,1,0,-1,0.81,12483,100,78,34,83,770,724.0,684,460,60,122.0,388,1,440,560,285,0,0,723,31988,-2826,723,,,,,,,,,,,,
73423,1560687019652,3,2.27,2.25,3.13,2.11,2.69,0.93,-0.14,1.07,-2,-7,1,0.94,12191,100,78,34,84,783,722.0,683,457,60,124.0,388,1,440,575,285,0,0,728,31988,-3344,725,,,,,,,,,,,,
73443,1560687019672,7,2.26,2.33,3.15,2.16,2.72,0.87,-0.04,1.07,0,-3,-0,0.87,11274,100,78,34,85,796,728.0,667,457,60,120.0,388,1,442,998,285,0,0,819,-4091,-23490,725,45.701805,4.91139,71.08,196.8,0,0.0,0,0.0,0.5717,1,0.37,1.2241
73463,1560687019692,6,2.26,2.43,3.19,2.22,2.71,0.89,-0.02,1.05,-0,-6,-3,0.89,10539,100,78,34,87,856,732.0,652,452,60,120.0,553,1,434,960,403,0,0,908,-2826,-2311,732,,,,,,,,,,,,
73483,1560687019712,1,2.26,2.51,3.26,2.28,2.82,0.67,0.02,0.92,0,-6,-3,0.67,11114,91,78,34,86,975,732.0,666,457,60,120.0,553,1,444,830,403,0,0,799,-2826,-2344,735,,,,,,,,,,,,
73503,1560687019732,6,2.25,2.54,3.3,2.37,2.83,0.71,0.14,0.95,-0,-8,-1,0.72,11439,70,78,34,80,1090,734.0,657,458,60,120.0,553,1,441,626,403,0,0,766,3462,13016,734,,,,,,,,,,,,
73523,1560687019752,3,2.26,2.6,3.26,2.44,2.84,0.58,0.1,0.91,-1,-10,1,0.59,11094,51,78,34,71,1197,741.0,658,458,60,121.0,553,1,448,481,403,0,0,847,-2314,-31066,738,,,,,,,,,,,,
73543,1560687019772,4,2.26,2.62,3.21,2.44,2.85,0.53,0.1,0.89,-1,-6,-1,0.54,10997,34,78,34,60,1304,741.0,655,458,60,120.0,553,1,442,396,403,0,0,843,-2314,-31066,741,45.701798,4.911411,71.95,196.8,0,0.0,0,0.0,0.5733,1,0.37,1.2257
73563,1560687019791,6,2.24,2.6,3.23,2.43,2.87,0.52,0.06,0.82,-1,-6,-2,0.53,11081,16,78,34,50,1412,748.0,656,459,60,121.0,200,1,388,285,149,0,0,769,-30694,5876,743,,,,,,,,,,,,
73583,1560687019811,5,2.25,2.57,3.26,2.41,2.87,0.55,-0.03,0.76,-2,-5,-2,0.55,10480,12,78,34,42,1498,751.0,656,456,60,122.0,200,1,342,229,149,0,0,797,-2830,-2570,744,,,,,,,,,,,,
73603,1560687019831,2,2.25,2.57,3.26,2.37,2.84,0.41,0.17,0.65,-2,-4,-1,0.44,9946,12,78,34,37,1498,756.0,652,458,60,121.0,200,1,314,215,149,0,0,769,-22795,-31066,749,,,,,,,,,,,,
73623,1560687019851,5,2.26,2.56,3.21,2.28,2.84,0.5,0.1,0.64,-3,-5,-2,0.51,9664,11,78,34,35,1468,755.0,651,461,60,122.0,200,1,308,207,149,0,0,748,-22795,-30694,748,,,,,,,,,,,,
73643,1560687019871,2,2.25,2.48,3.21,2.11,2.84,0.45,0.25,0.54,-2,-1,-2,0.51,9412,11,78,34,33,1346,758.0,641,460,60,120.0,200,1,302,198,149,0,0,754,-3038,6790,748,45.701782,4.911431,73.28,196.8,0,0.0,0,0.0,0.575,1,0.37,1.2274
73663,1560687019891,5,2.26,2.44,3.2,2.07,2.87,0.61,0.24,0.66,-3,-2,-2,0.65,9227,11,78,34,32,1223,753.0,640,465,60,121.0,94,1,300,192,70,0,0,747,-2830,-31066,746,,,,,,,,,,,,
73683,1560687019911,5,2.27,2.41,3.17,2.06,2.93,0.75,0.18,0.73,-2,-6,-0,0.77,9088,11,78,34,30,1100,749.0,638,457,60,122.0,94,1,291,188,70,0,0,748,-3344,-2826,744,,,,,,,,,,,,
73703,1560687019931,12,2.28,2.29,3.19,2.01,3.0,0.85,0.14,0.8,-3,-8,-0,0.87,9075,11,78,34,29,979,743.0,633,459,60,122.0,94,1,287,188,70,0,0,725,-2314,-388,744,,,,,,,,,,,,
73723,1560687019951,16,2.27,2.11,3.21,1.83,3.01,0.9,0.09,0.85,-2,-10,-0,0.9,9137,13,78,34,28,876,742.0,641,461,60,121.0,94,1,282,188,70,0,0,717,-2356,687,740,,,,,,,,,,,,
73743,1560687019971,15,2.26,1.95,3.35,1.73,3.03,1.01,0.03,0.81,-1,-9,-1,1.01,9209,16,78,34,28,774,739.0,638,458,60,122.0,94,1,282,189,70,0,0,680,3462,-20693,737,45.701771,4.911452,74.84,196.8,0,0.0,0,0.0,0.5767,1,0.38,1.2291
73763,1560687019991,17,2.27,1.93,3.49,1.7,3.04,0.92,0.1,0.74,-1,-11,-0,0.93,9236,16,78,34,29,793,738.0,642,463,60,122.0,89,1,287,190,66,0,0,655,-2830,16599,736,,,,,,,,,,,,
73783,1560687020005,13,2.27,1.9,3.49,1.69,3.01,0.82,0.09,0.57,0,-6,-1,0.82,9231,17,78,34,29,814,734.0,642,460,60,122.0,89,1,287,190,66,0,0,691,-2358,3543,736,,,,,,,,,,,,
73803,1560687020025,10,2.28,1.87,3.44,1.68,2.96,0.81,0.13,0.49,0,-5,-0,0.82,9236,17,78,34,29,847,728.0,641,457,60,121.0,89,1,287,190,66,0,0,701,-3344,19188,728,,,,,,,,,,,,
73823,1560687020045,13,2.28,1.84,3.34,1.65,2.88,0.93,0.17,0.33,1,1,-0,0.95,9272,17,78,34,29,879,726.0,646,453,60,121.0,89,1,287,190,66,0,0,714,31988,6658,720,,,,,,,,,,,,
73843,1560687020065,12,2.28,1.84,3.32,1.65,2.84,1.04,-0.0,0.36,1,0,-1,1.04,9305,18,78,34,29,895,716.0,643,460,60,122.0,89,1,287,191,66,0,0,696,16118,-20693,715,45.701759,4.911473,74.66,196.8,0,0.0,0,0.0,0.5783,1,0.38,1.2307
73863,1560687020091,13,2.28,1.83,3.34,1.66,2.87,1.11,-0.03,0.41,1,1,-2,1.11,9346,18,78,34,29,908,711.0,641,458,60,122.0,94,1,287,191,67,0,0,691,-12152,-10448,711,,,,,,,,,,,,
73883,1560687020111,11,2.27,1.82,3.41,1.66,2.87,0.99,0.04,0.33,1,2,-2,0.99,9337,18,78,34,29,914,709.0,641,461,60,121.0,94,1,287,192,67,0,0,677,-3888,14342,707,,,,,,,,,,,,
73903,1560687020131,6,2.27,1.82,3.42,1.65,2.91,0.89,0.11,0.26,1,2,-1,0.9,9309,18,78,34,29,920,706.0,646,463,60,121.0,94,1,287,192,67,0,0,695,11069,-26892,704,,,,,,,,,,,,
73923,1560687020151,6,2.27,1.86,3.38,1.66,2.92,1.01,0.08,0.28,0,4,-1,1.01,9272,18,78,34,29,916,706.0,646,460,60,122.0,94,1,287,190,67,0,0,679,8010,24845,700,,,,,,,,,,,,
73943,1560687020171,6,2.25,1.89,3.39,1.67,2.95,1.1,0.02,0.35,0,1,-1,1.1,9227,18,78,34,29,909,701.0,643,457,60,122.0,94,1,287,190,67,0,0,683,19188,-2345,697,45.701748,4.911494,72.41,196.8,0,0.0,0,0.0,0.58,1,0.38,1.2324
73963,1560687020191,5,2.26,1.88,3.37,1.66,2.95,1.12,-0.09,0.47,-0,1,-3,1.13,9182,18,78,34,28,911,698.0,641,462,60,122.0,94,1,282,189,66,0,0,678,-2830,-2345,698,,,,,,,,,,,,
73983,1560687020211,6,2.25,1.89,3.35,1.66,2.95,0.99,-0.05,0.43,0,-2,-2,0.99,9168,18,78,34,28,914,696.0,643,460,60,121.0,94,1,282,189,66,0,0,680,16599,-2345,695,,,,,,,,,,,,
74003,1560687020231,3,2.26,1.89,3.3,1.66,2.93,0.85,-0.01,0.37,0,2,-3,0.85,9177,18,78,34,28,923,695.0,641,457,60,121.0,94,1,282,189,66,0,0,685,-10448,-10346,690,,,,,,,,,,,,
74023,1560687020251,-2,2.27,1.9,3.27,1.67,2.92,0.73,0.19,0.22,1,1,-2,0.75,9236,18,78,34,28,933,692.0,641,459,60,121.0,94,1,282,189,66,0,0,683,-2830,-2345,690,,,,,,,,,,,,
74043,1560687020271,0,2.27,1.89,3.26,1.67,2.88,0.76,0.21,0.14,2,5,-2,0.79,9245,18,78,34,29,961,690.0,641,457,60,121.0,94,1,287,189,66,0,0,676,24,-26562,687,45.701736,4.911514,70.41,196.8,0,0.0,0,0.0,0.5817,1,0.38,1.2341
74063,1560687020291,3,2.27,1.89,3.26,1.67,2.88,0.89,0.11,0.24,1,2,-1,0.9,9227,18,78,34,28,994,686.0,640,455,60,122.0,96,1,282,189,66,0,0,678,16599,-26892,685,,,,,,,,,,,,
74083,1560687020311,3,2.28,1.9,3.26,1.68,2.89,1.0,0.01,0.31,1,1,-0,1.0,9191,18,78,34,28,1020,683.0,640,456,60,121.0,96,1,282,189,66,0,0,681,3543,-26892,685,,,,,,,,,,,,
74103,1560687020331,4,2.27,1.91,3.27,1.69,2.88,1.05,-0.16,0.47,1,-1,-0,1.06,9137,18,78,34,28,1043,683.0,638,460,60,122.0,96,1,282,188,66,0,0,675,-26562,1549,682,,,,,,,,,,,,
74123,1560687020351,3,2.28,1.91,3.28,1.71,2.89,0.98,-0.11,0.59,1,-1,0,0.99,9101,18,78,34,28,1079,680.0,645,463,60,122.0,96,1,282,188,66,0,0,670,16118,1549,679,,,,,,,,,,,,
74143,1560687020371,4,2.28,1.89,3.31,1.71,2.9,0.96,-0.12,0.65,1,0,-0,0.97,9062,18,78,34,28,1119,680.0,633,460,60,122.0,96,1,282,188,66,0,0,660,-2345,-26380,677,45.701725,4.911534,68.82,196.8,0,0.0,0,0.0,0.5833,1,0.38,1.2357
74163,1560687020391,4,2.28,1.89,3.33,1.7,2.9,0.84,-0.07,0.69,1,0,-0,0.85,9066,18,78,34,27,1147,679.0,638,461,60,122.0,94,1,278,188,64,0,0,665,-2826,-3038,679,,,,,,,,,,,,
74183,1560687020411,4,2.28,1.92,3.32,1.71,2.89,0.83,-0.11,0.65,1,-1,-2,0.84,9027,18,78,34,27,1165,676.0,637,465,60,122.0,94,1,278,188,64,0,0,665,-10344,3543,675,,,,,,,,,,,,
74203,1560687020431,5,2.28,1.92,3.32,1.72,2.87,0.7,-0.04,0.63,2,0,-2,0.7,9010,17,78,34,27,1185,673.0,641,459,60,122.0,94,1,278,188,64,0,0,660,-26380,-10348,673,,,,,,,,,,,,
74223,1560687020451,7,2.27,1.93,3.35,1.71,2.84,0.74,-0.05,0.59,1,-0,-1,0.74,8988,16,78,34,27,1208,668.0,639,464,60,122.0,94,1,278,188,64,0,0,659,-3578,31988,668,,,,,,,,,,,,
74243,1560687020471,7,2.28,1.94,3.34,1.77,2.83,0.68,-0.02,0.65,1,-2,-1,0.68,8962,15,78,34,27,1223,664.0,640,461,60,122.0,94,1,278,188,64,0,0,650,-10348,-3488,664,45.701717,4.911553,67.59,196.8,0,0.0,0,0.0,0.585,1,0.39,1.2374
74263,1560687020492,11,2.26,1.98,3.36,1.81,2.9,0.72,-0.05,0.7,0,-6,-0,0.72,8882,15,78,34,26,1228,661.0,636,462,60,122.0,95,1,274,188,63,0,0,653,-2345,-3584,657,,,,,,,,,,,,
74283,1560687020512,10,2.26,2.0,3.36,1.79,2.94,0.75,-0.01,0.82,0,-5,-0,0.75,8782,14,78,34,26,1221,657.0,633,455,60,122.0,95,1,274,188,63,0,0,644,8958,244,654,,,,,,,,,,,,
74303,1560687020532,10,2.28,1.98,3.37,1.79,2.96,0.87,-0.09,0.79,0,-7,-0,0.88,8688,14,78,34,26,1199,654.0,627,458,60,121.0,95,1,274,188,63,0,0,637,-2830,-2836,652,,,,,,,,,,,,
74323,1560687020552,17,2.27,1.96,3.46,1.79,3.04,0.85,-0.15,0.68,0,-7,-2,0.86,8585,13,78,34,26,1176,650.0,628,454,60,121.0,95,1,274,188,63,0,0,621,-30207,3,653,,,,,,,,,,,,
74343,1560687020572,16,2.28,1.96,3.53,1.79,3.13,0.77,-0.09,0.55,1,-6,-2,0.78,8438,13,78,34,26,1150,647.0,625,461,60,122.0,95,1,274,184,63,0,0,617,-8429,19320,646,45.701706,4.911572,66.64,196.8,0,0.0,0,0.0,0.5867,1,0.39,1.2391
74363,1560687020591,15,2.28,1.96,3.53,1.78,3.14,0.82,-0.04,0.48,0,-3,-0,0.82,8292,13,78,34,26,1118,646.0,630,461,60,122.0,88,1,273,177,57,0,0,622,4909,-1346,645,,,,,,,,,,,,
74383,1560687020611,14,2.29,1.96,3.51,1.78,3.1,0.88,-0.09,0.4,1,-4,1,0.89,8249,13,78,34,26,1081,643.0,628,462,60,122.0,88,1,273,174,57,0,0,615,-3584,-28304,643,,,,,,,,,,,,
74403,1560687020631,15,2.28,1.94,3.49,1.79,3.08,0.96,-0.21,0.4,1,-3,-1,0.98,8216,12,78,34,27,1049,637.0,627,460,60,122.0,88,1,276,172,57,0,0,603,-4876,19621,637,,,,,,,,,,,,
74423,1560687020651,16,2.28,1.91,3.48,1.78,3.07,0.99,-0.2,0.37,1,-2,-1,1.01,8173,12,78,34,27,1038,637.0,627,458,60,122.0,88,1,276,170,57,0,0,590,966,-7939,637,,,,,,,,,,,,
74443,1560687020671,18,2.29,1.87,3.45,1.77,3.07,1.01,-0.2,0.3,1,-2,0,1.03,8127,12,78,34,27,1030,629.0,631,462,60,121.0,88,1,276,170,57,0,0,610,506,-28648,629,45.701698,4.911591,65.81,196.8,0,0.0,0,0.0,0.5883,1,0.39,1.2407
74463,1560687020691,15,2.29,1.87,3.39,1.73,3.02,1.04,-0.31,0.31,2,-1,0,1.09,8148,12,78,34,27,1029,627.0,628,458,60,122.0,81,1,276,169,51,0,0,610,17336,17740,627,,,,,,,,,,,,
74483,1560687020710,19,2.3,1.85,3.4,1.74,2.95,1.04,-0.3,0.27,2,-2,0,1.08,8184,12,78,34,27,1029,620.0,628,460,60,121.0,81,1,276,169,51,0,0,583,269,5344,620,,,,,,,,,,,,
74503,1560687020730,15,2.29,1.8,3.49,1.71,2.92,1.08,-0.33,0.38,3,-3,1,1.13,8123,12,78,34,28,1038,617.0,622,461,60,121.0,81,1,279,169,51,0,0,582,-28304,-3210,617,,,,,,,,,,,,
74523,1560687020750,15,2.28,1.75,3.51,1.71,2.88,1.12,-0.26,0.32,2,-1,1,1.15,8078,12,78,34,28,1050,617.0,626,461,60,121.0,81,1,279,165,51,0,0,582,1010,-23055,617,,,,,,,,,,,,
74543,1560687020770,18,2.29,1.78,3.51,1.71,2.89,1.03,-0.26,0.3,2,-1,0,1.06,7999,12,78,34,27,1069,609.0,625,459,60,121.0,81,1,275,161,51,0,0,591,19621,2048,609,45.701687,4.911609,63.87,196.7,0,0.0,0,0.0,0.59,1,0.39,1.2424
74563,1560687020790,12,2.28,1.84,3.47,1.7,2.9,0.99,-0.28,0.27,3,-1,1,1.03,7938,12,78,34,28,1088,605.0,625,460,60,121.0,79,1,278,163,48,0,0,591,-3820,15649,602,,,,,,,,,,,,
74583,1560687020810,12,2.28,1.85,3.47,1.7,2.9,1.08,-0.28,0.24,2,-2,1,1.12,7944,12,78,34,28,1098,597.0,623,460,60,122.0,79,1,278,161,48,0,0,578,23619,8488,596,,,,,,,,,,,,
74603,1560687020830,17,2.28,1.85,3.47,1.71,2.91,1.05,-0.24,0.27,2,-2,0,1.08,7901,12,78,34,28,1108,591.0,622,460,60,121.0,79,1,278,163,48,0,0,581,-13043,259,591,,,,,,,,,,,,
74623,1560687020850,17,2.29,1.84,3.49,1.71,2.92,0.97,-0.2,0.28,2,-2,-0,0.99,7822,12,78,34,27,1128,591.0,624,457,60,122.0,79,1,274,163,48,0,0,571,6273,-16384,588,,,,,,,,,,,,
74643,1560687020870,13,2.27,1.85,3.48,1.71,2.95,0.98,-0.29,0.34,2,-2,-1,1.02,7760,12,78,34,28,1148,588.0,622,460,60,121.0,79,1,276,163,48,0,0,576,2048,-3190,588,45.701679,4.911626,61.69,196.7,0,0.0,0,0.0,0.5917,1,0.39,1.2441
74663,1560687020890,11,2.29,1.84,3.45,1.71,3.0,1.08,-0.27,0.32,1,-2,0,1.12,7662,12,78,34,27,1157,583.0,624,458,60,122.0,80,1,272,161,47,0,0,576,15649,2216,582,,,,,,,,,,,,
74683,1560687020910,14,2.28,1.83,3.42,1.71,3.01,1.18,-0.23,0.34,1,-2,2,1.2,7631,11,78,34,27,1167,580.0,620,461,60,122.0,80,1,272,161,47,0,0,567,1,-28648,577,,,,,,,,,,,,
74703,1560687020930,13,2.29,1.8,3.42,1.7,3.03,1.24,-0.17,0.34,1,-2,1,1.25,7569,11,78,34,27,1179,577.0,621,458,60,123.0,80,1,272,161,47,0,0,557,-8188,-28648,577,,,,,,,,,,,,
74723,1560687020950,12,2.29,1.77,3.42,1.69,3.05,1.29,-0.13,0.34,1,-2,1,1.3,7551,11,78,34,27,1191,577.0,623,461,60,123.0,80,1,272,161,47,0,0,553,-3190,-22359,577,,,,,,,,,,,,
74743,1560687020970,10,2.29,1.78,3.42,1.73,3.03,1.34,-0.09,0.33,0,-3,1,1.34,7458,11,78,34,26,1196,570.0,625,458,60,123.0,80,1,267,160,47,0,0,553,12552,2524,570,45.701668,4.911643,59.61,196.7,0,0.0,0,0.0,0.5933,1,0.39,1.2457
74763,1560687020990,8,2.3,1.78,3.41,1.72,3.0,1.4,-0.04,0.3,0,-4,2,1.4,7434,11,78,34,26,1199,567.0,621,463,60,123.0,79,1,267,160,45,0,0,550,-18032,14504,566,,,,,,,,,,,,
74783,1560687021004,9,2.29,1.77,3.41,1.73,2.97,1.44,-0.05,0.3,0,-3,3,1.44,7387,11,78,34,26,1194,564.0,620,461,60,121.0,79,1,266,160,45,0,0,542,-32504,-22519,564,,,,,,,,,,,,
74803,1560687021024,5,2.29,1.77,3.41,1.72,2.95,1.49,-0.04,0.36,0,-5,2,1.49,7384,11,78,34,26,1189,560.0,618,460,60,123.0,79,1,266,160,45,0,0,540,-22263,1779,560,,,,,,,,,,,,
74823,1560687021044,5,2.29,1.78,3.42,1.72,2.93,1.55,-0.06,0.41,-0,-6,2,1.55,7344,11,78,34,26,1184,557.0,621,460,60,122.0,79,1,266,160,45,0,0,540,-28648,-32248,555,,,,,,,,,,,,
74843,1560687021064,9,2.28,1.78,3.44,1.73,2.94,1.48,-0.11,0.42,-1,-4,3,1.49,7381,11,78,34,26,1177,555.0,614,463,60,120.0,79,1,266,229,45,0,0,534,-28648,1780,553,45.701656,4.91166,57.79,196.7,0,0.0,0,0.0,0.595,1,0.4,1.2474
74863,1560687021084,5,2.29,1.79,3.42,1.72,2.93,1.39,-0.2,0.48,-0,-2,3,1.4,7384,11,78,34,27,1158,551.0,607,460,60,119.0,112,1,270,214,62,0,0,543,-32248,-8186,551,,,,,,,,,,,,
74883,1560687021108,3,2.28,1.81,3.38,1.72,2.9,1.33,-0.27,0.51,0,-2,2,1.36,7327,11,78,34,26,1134,550.0,616,462,60,120.0,112,1,266,196,62,0,0,544,14504,-506,550,,,,,,,,,,,,
74903,1560687021128,1,2.29,1.81,3.34,1.74,2.88,1.21,-0.28,0.4,1,-1,3,1.24,7287,11,78,34,26,1117,548.0,610,457,60,120.0,112,1,266,181,62,0,0,541,-22519,-30064,547,,,,,,,,,,,,
74923,1560687021148,4,2.28,1.8,3.36,1.73,2.89,1.08,-0.2,0.3,2,-0,4,1.09,7247,11,78,34,26,1101,546.0,612,461,60,120.0,112,1,266,165,62,0,0,540,-8962,-22519,545,,,,,,,,,,,,
74943,1560687021168,1,2.28,1.82,3.36,1.74,2.9,1.13,-0.11,0.27,2,-1,3,1.13,7273,11,78,34,26,1075,542.0,612,458,60,121.0,112,1,266,159,62,0,0,530,-3082,6274,542,45.701649,4.911675,55.46,196.7,0,0.0,0,0.0,0.5967,1,0.4,1.2491
74963,1560687021192,-0,2.28,1.83,3.34,1.74,2.89,1.16,-0.07,0.25,1,0,2,1.16,7292,11,78,35,25,1046,541.0,614,455,60,121.0,81,1,262,158,44,0,0,530,-2336,-9072,541,,,,,,,,,,,,
74983,1560687021212,0,2.28,1.84,3.34,1.72,2.88,1.25,-0.17,0.4,-1,-3,1,1.26,7295,11,78,35,25,1026,541.0,614,458,60,122.0,81,1,262,158,44,0,0,534,-8186,-22519,541,,,,,,,,,,,,
75003,1560687021232,4,2.28,1.86,3.34,1.72,2.88,1.29,-0.21,0.44,-1,-2,3,1.31,7228,11,78,35,25,1012,538.0,612,460,60,121.0,81,1,262,158,44,0,0,532,1780,14504,538,,,,,,,,,,,,
75023,1560687021252,3,2.29,1.85,3.33,1.72,2.87,1.04,-0.19,0.41,1,1,3,1.06,7228,10,78,35,25,1001,538.0,608,462,60,119.0,81,1,262,158,44,0,0,531,-2934,2524,535,,,,,,,,,,,,
75043,1560687021272,4,2.28,1.85,3.34,1.69,2.87,0.96,-0.05,0.35,2,-0,3,0.96,7194,10,78,35,25,991,537.0,613,462,60,120.0,81,1,261,158,44,0,0,531,-30064,-28648,536,45.701637,4.91169,54.21,196.7,0,0.0,0,0.0,0.5983,1,0.4,1.2507
75063,1560687021292,8,2.29,1.84,3.35,1.7,2.87,1.02,-0.03,0.31,1,0,2,1.02,7126,10,78,35,25,987,533.0,610,458,60,121.0,78,1,261,158,42,0,0,524,2104,2524,532,,,,,,,,,,,,
75083,1560687021312,15,2.3,1.84,3.35,1.69,2.87,1.12,-0.11,0.36,0,-3,3,1.12,7137,10,78,35,25,990,530.0,609,458,60,121.0,78,1,261,158,42,0,0,520,2524,10408,526,,,,,,,,,,,,
75103,1560687021332,17,2.3,1.84,3.35,1.69,2.88,1.1,-0.13,0.29,1,0,4,1.11,7064,10,78,35,25,991,526.0,613,458,60,120.0,78,1,260,158,42,0,0,521,10408,16383,526,,,,,,,,,,,,
75123,1560687021352,14,2.3,1.84,3.36,1.7,2.87,0.98,-0.11,0.19,2,3,4,0.99,6996,10,78,35,25,989,521.0,611,462,60,120.0,78,1,261,158,42,0,0,507,1248,16383,521,,,,,,,,,,,,
75143,1560687021372,17,2.31,1.83,3.38,1.72,2.91,1.08,-0.1,0.26,2,0,3,1.08,6921,10,78,35,25,987,518.0,611,462,60,121.0,78,1,261,158,42,0,0,510,26178,26178,518,45.70163,4.911706,53.39,196.7,0,0.0,0,0.0,0.6,1,0.4,1.2524
75163,1560687021392,17,2.31,1.83,3.38,1.75,2.9,1.15,-0.16,0.26,2,-1,3,1.16,6818,10,78,35,25,982,518.0,606,463,60,120.0,78,1,262,158,41,0,0,503,-3414,-3414,518,,,,,,,,,,,,
75183,1560687021412,14,2.3,1.83,3.4,1.77,2.91,1.1,-0.16,0.17,3,0,4,1.11,6776,10,78,35,26,975,508.0,600,454,60,121.0,78,1,266,159,41,0,0,496,-32248,10408,508,,,,,,,,,,,,
75203,1560687021432,14,2.31,1.83,3.41,1.76,2.91,1.18,-0.26,0.19,2,-3,5,1.21,6727,10,78,35,26,965,508.0,595,465,60,119.0,78,1,266,159,41,0,0,494,10408,3,508,,,,,,,,,,,,
75223,1560687021452,18,2.3,1.84,3.44,1.76,2.92,1.11,-0.25,0.18,3,-4,5,1.14,6665,10,78,35,26,956,506.0,600,460,60,121.0,78,1,267,159,41,0,0,488,2524,248,504,,,,,,,,,,,,
75243,1560687021472,13,2.3,1.8,3.5,1.74,2.92,1.07,-0.25,0.13,4,-2,5,1.09,6585,10,78,35,27,950,501.0,596,461,60,120.0,78,1,272,160,41,0,0,473,771,-32768,501,45.701622,4.91172,52.14,196.8,0,0.0,0,0.0,0.6017,1,0.4,1.2541
75263,1560687021492,14,2.31,1.76,3.52,1.73,2.92,1.15,-0.28,0.18,4,-2,5,1.18,6501,10,78,35,27,945,499.0,593,463,60,119.0,78,1,272,160,39,0,0,473,248,-6528,499,,,,,,,,,,,,
75283,1560687021512,15,2.3,1.78,3.53,1.77,2.93,1.11,-0.2,0.12,4,-2,5,1.13,6430,10,78,35,27,941,496.0,592,461,60,121.0,78,1,272,160,39,0,0,473,1,-1562,496,,,,,,,,,,,,
75303,1560687021532,6,2.31,1.78,3.52,1.78,2.93,1.01,-0.22,0.1,3,-3,5,1.03,6373,10,78,35,27,936,490.0,585,459,60,120.0,78,1,273,160,39,0,0,470,505,-899,490,,,,,,,,,,,,
75323,1560687021552,8,2.3,1.78,3.49,1.77,2.93,1.01,-0.21,0.15,3,-3,4,1.03,6408,9,78,35,28,937,491.0,579,457,60,120.0,78,1,276,162,39,0,0,472,-10483,3576,491,,,,,,,,,,,,
75343,1560687021572,6,2.31,1.78,3.48,1.77,2.94,1.05,-0.26,0.2,3,-5,3,1.08,6443,9,78,35,28,939,487.0,581,457,60,121.0,78,1,276,162,39,0,0,471,-899,8488,487,45.701614,4.911734,50.83,196.8,0,0.0,0,0.0,0.6033,1,0.4,1.2557
75363,1560687021592,2,2.31,1.78,3.45,1.77,2.9,1.01,-0.22,0.2,3,-3,4,1.03,6438,9,78,35,28,941,484.0,583,456,60,122.0,80,1,276,162,39,0,0,470,8488,16648,484,,,,,,,,,,,,
75383,1560687021612,1,2.31,1.79,3.39,1.79,2.85,0.99,-0.25,0.18,3,-2,4,1.02,6463,9,78,35,28,942,481.0,587,461,60,121.0,80,1,276,162,39,0,0,471,-9203,16648,481,,,,,,,,,,,,
75403,1560687021632,2,2.32,1.79,3.43,1.81,2.88,0.96,-0.29,0.26,3,-2,4,1.0,6456,9,78,35,28,942,481.0,587,458,60,120.0,80,1,276,162,39,0,0,468,-17956,243,481,,,,,,,,,,,,
75423,1560687021652,3,2.31,1.79,3.41,1.81,2.86,0.95,-0.24,0.28,4,-2,6,0.98,6425,9,78,35,28,944,481.0,588,460,60,121.0,80,1,276,162,39,0,0,468,-17956,2212,478,,,,,,,,,,,,
75443,1560687021672,-1,2.32,1.79,3.37,1.81,2.84,0.92,-0.22,0.25,3,-2,7,0.95,6386,9,78,35,28,945,479.0,582,464,60,120.0,80,1,276,162,39,0,0,467,3576,-1923,479,45.701603,4.911747,48.88,196.8,0,0.0,0,0.0,0.605,1,0.4,1.2574
75463,1560687021691,1,2.32,1.8,3.36,1.81,2.84,0.98,-0.27,0.32,3,-4,7,1.01,6368,9,78,35,29,945,479.0,579,468,60,120.0,81,1,280,163,39,0,0,469,-1923,-23367,479,,,,,,,,,,,,
75483,1560687021711,2,2.32,1.81,3.36,1.81,2.84,1.0,-0.28,0.39,4,-5,7,1.04,6358,9,78,35,29,945,477.0,580,462,60,120.0,81,1,280,163,39,0,0,468,8488,-1923,475,,,,,,,,,,,,
75503,1560687021731,5,2.32,1.8,3.38,1.81,2.87,0.96,-0.22,0.34,4,-3,7,0.99,6334,9,78,35,29,947,476.0,580,455,60,121.0,81,1,280,163,39,0,0,467,-16384,243,476,,,,,,,,,,,,
75523,1560687021751,-0,2.31,1.8,3.4,1.81,2.89,0.89,-0.14,0.29,4,-1,7,0.9,6330,9,79,35,29,946,473.0,579,460,60,121.0,81,1,280,163,39,0,0,464,243,-16384,473,,,,,,,,,,,,
75543,1560687021771,-1,2.32,1.81,3.39,1.83,2.89,0.98,-0.2,0.32,3,-0,6,1.0,6273,9,79,35,29,944,474.0,577,461,60,120.0,81,1,280,163,39,0,0,465,243,-3210,475,45.701599,4.91176,47.71,196.8,0,0.0,0,0.0,0.6067,1,0.41,1.259
75563,1560687021791,0,2.33,1.86,3.37,1.9,2.87,1.04,-0.18,0.36,3,-3,6,1.05,6287,9,79,35,29,944,472.0,572,467,60,120.0,80,1,280,163,38,0,0,462,16408,10432,472,,,,,,,,,,,,
75583,1560687021811,3,2.32,1.86,3.37,1.9,2.85,0.99,-0.15,0.4,4,-5,5,1.0,6273,11,79,35,29,945,472.0,576,463,60,120.0,80,1,280,163,38,0,0,459,6193,-23623,472,,,,,,,,,,,,
75603,1560687021831,5,2.32,1.86,3.37,1.91,2.83,0.9,-0.1,0.34,5,-4,5,0.91,6270,15,79,35,30,943,471.0,579,460,60,122.0,80,1,283,165,38,0,0,459,2211,-23623,471,,,,,,,,,,,,
75623,1560687021851,-2,2.33,1.85,3.38,1.9,2.83,0.87,-0.19,0.3,5,-2,5,0.89,6283,20,79,35,33,940,468.0,578,458,60,121.0,80,1,292,168,38,0,0,453,2211,2211,468,,,,,,,,,,,,
75643,1560687021871,-0,2.32,1.84,3.38,1.91,2.82,0.98,-0.25,0.38,4,-2,4,1.01,6289,24,79,35,36,937,468.0,576,463,60,120.0,80,1,301,189,38,0,0,455,-23623,243,467,45.701588,4.911772,46.89,196.9,0,0.0,0,0.0,0.6083,1,0.41,1.2607
75663,1560687021891,3,2.33,1.85,3.37,1.92,2.83,1.02,-0.31,0.45,3,-3,4,1.06,6317,26,79,35,39,937,464.0,573,457,60,120.0,98,1,310,207,46,0,0,455,17628,-3210,464,,,,,,,,,,,,
75683,1560687021911,2,2.34,1.86,3.38,1.93,2.85,1.01,-0.28,0.49,4,-5,4,1.05,6330,27,79,35,43,935,467.0,572,457,60,120.0,98,1,336,212,46,0,0,454,-9160,-16384,467,,,,,,,,,,,,
75703,1560687021931,6,2.33,1.87,3.37,1.96,2.84,0.85,-0.2,0.4,5,-4,5,0.88,6330,27,79,35,46,933,467.0,574,461,60,122.0,98,1,356,215,46,0,0,454,-9160,30272,468,,,,,,,,,,,,
75723,1560687021951,1,2.34,1.87,3.37,1.96,2.83,0.87,-0.11,0.23,7,-0,7,0.87,6364,27,79,35,48,931,468.0,573,460,60,120.0,98,1,366,223,46,0,0,452,-18108,-3210,468,,,,,,,,,,,,
75743,1560687021971,3,2.34,1.83,3.4,1.93,2.82,0.98,-0.14,0.29,5,-3,6,0.99,6461,28,79,35,50,931,466.0,583,467,60,120.0,98,1,373,234,46,0,0,426,2524,1779,462,45.70158,4.911785,46.42,196.9,0,0.0,0,0.0,0.61,1,0.41,1.2624
75763,1560687021991,-1,2.36,1.83,3.43,1.96,2.82,0.99,-0.12,0.25,6,-1,7,0.99,6798,28,79,35,51,931,459.0,593,453,60,122.0,127,1,379,240,59,0,0,443,10305,-6387,459,,,,,,,,,,,,
75783,1560687022005,6,2.35,1.8,3.52,1.93,2.85,1.09,-0.12,0.34,5,-4,6,1.1,7051,29,79,35,52,928,460.0,610,459,60,121.0,127,1,384,246,59,0,0,405,2131,-8165,455,,,,,,,,,,,,
75803,1560687022025,6,2.35,1.79,3.54,1.92,2.87,1.02,-0.23,0.3,7,-2,7,1.05,7318,29,79,35,52,925,456.0,615,457,60,121.0,127,1,384,248,59,0,0,422,-28332,-9166,456,,,,,,,,,,,,
75823,1560687022045,6,2.35,1.79,3.54,1.91,2.89,0.77,-0.25,0.23,9,2,8,0.81,7554,28,79,35,51,923,454.0,620,463,60,122.0,127,1,381,243,59,0,0,407,21580,-3866,453,,,,,,,,,,,,
75843,1560687022065,6,2.35,1.8,3.54,1.9,2.89,0.8,-0.29,0.21,10,1,8,0.85,7898,26,79,35,49,929,452.0,625,461,60,121.0,127,1,375,233,59,0,0,405,-7939,13180,452,45.701572,4.911797,45.91,196.9,0,0.0,0,0.0,0.6117,1,0.41,1.264
75863,1560687022092,10,2.35,1.79,3.5,1.91,2.82,0.85,-0.34,0.14,11,-1,8,0.92,8141,23,79,35,46,938,449.0,628,462,60,122.0,153,1,362,223,69,0,0,428,1779,19477,447,,,,,,,,,,,,
75883,1560687022112,7,2.36,1.77,3.5,1.92,2.8,0.84,-0.43,0.24,12,2,8,0.94,8423,20,79,35,43,946,442.0,628,457,60,121.0,153,1,344,218,69,0,0,423,31796,-768,442,,,,,,,,,,,,
75903,1560687022132,9,2.35,1.76,3.58,1.95,2.77,0.88,-0.4,0.17,11,2,9,0.97,8514,16,79,35,38,957,442.0,632,462,60,122.0,153,1,317,208,69,0,0,405,-3856,21580,442,,,,,,,,,,,,
75923,1560687022152,10,2.36,1.76,3.56,1.95,2.79,0.95,-0.44,0.17,11,1,11,1.04,8596,15,79,35,34,984,438.0,636,463,60,122.0,153,1,305,197,69,0,0,416,-21792,1779,438,,,,,,,,,,,,
75943,1560687022172,9,2.36,1.77,3.54,1.95,2.8,0.92,-0.44,0.29,11,-2,12,1.02,8608,14,79,35,32,1029,432.0,633,460,60,122.0,153,1,300,187,69,0,0,417,-3414,13180,432,45.701565,4.911808,44.75,196.9,0,0.0,0,0.0,0.6133,1,0.41,1.2657
75963,1560687022191,19,2.35,1.79,3.54,1.99,2.8,0.91,-0.42,0.27,11,-1,12,1.0,8581,14,79,35,29,1069,430.0,637,460,60,121.0,141,1,287,187,61,0,0,410,-4059,-3314,430,,,,,,,,,,,,
75983,1560687022211,16,2.35,1.79,3.52,1.97,2.81,0.91,-0.44,0.26,10,-3,12,1.01,8538,13,79,35,27,1104,428.0,635,460,60,122.0,141,1,278,187,61,0,0,417,-26615,1779,428,,,,,,,,,,,,
76003,1560687022231,12,2.35,1.78,3.5,1.93,2.82,0.89,-0.48,0.35,10,-1,13,1.01,8220,13,79,35,26,1128,429.0,631,460,60,122.0,141,1,273,171,61,0,0,422,-26615,3635,429,,,,,,,,,,,,
76023,1560687022251,13,2.36,1.79,3.48,1.94,2.79,0.97,-0.4,0.37,10,0,12,1.04,7851,12,79,35,26,1140,429.0,622,457,60,122.0,141,1,271,159,61,0,0,430,-26615,-3314,429,,,,,,,,,,,,
76043,1560687022271,13,2.36,1.79,3.47,1.98,2.77,1.07,-0.46,0.4,9,-3,11,1.16,7554,12,79,35,25,1144,426.0,617,462,60,122.0,141,1,265,158,61,0,0,418,10392,-4082,426,45.701557,4.911818,43.28,196.9,0,0.0,0,0.0,0.615,1,0.41,1.2674
76063,1560687022291,14,2.35,1.79,3.47,1.97,2.77,1.17,-0.44,0.4,8,-6,12,1.25,7281,12,79,35,25,1122,422.0,612,461,60,122.0,103,1,262,158,44,0,0,406,11560,-8165,422,,,,,,,,,,,,
76083,1560687022311,19,2.35,1.79,3.5,1.97,2.82,1.24,-0.47,0.42,8,-8,13,1.33,7142,12,79,35,25,1090,418.0,617,462,60,123.0,103,1,261,159,44,0,0,397,-8151,2524,418,,,,,,,,,,,,
76103,1560687022331,18,2.36,1.78,3.6,1.96,2.87,1.2,-0.5,0.39,9,-4,14,1.3,6944,11,79,35,26,1044,417.0,608,458,60,122.0,103,1,265,159,44,0,0,382,6512,13040,417,,,,,,,,,,,,
76123,1560687022351,16,2.36,1.78,3.62,1.94,2.87,1.1,-0.42,0.32,9,-4,15,1.18,6823,11,79,35,26,1004,414.0,607,461,60,123.0,103,1,266,159,44,0,0,385,11545,9517,414,,,,,,,,,,,,
76143,1560687022371,18,2.36,1.79,3.59,1.91,2.88,1.17,-0.48,0.45,9,-4,13,1.26,6718,11,79,35,26,981,411.0,601,460,60,121.0,103,1,266,159,44,0,0,387,-32702,10541,411,45.70155,4.911828,42.33,197.0,0,0.0,0,0.0,0.6167,1,0.41,1.269
76163,1560687022393,22,2.35,1.77,3.56,1.9,2.88,1.11,-0.42,0.36,10,-4,10,1.19,6592,11,79,35,27,957,407.0,600,463,60,123.0,97,1,272,160,40,0,0,382,1,10541,407,,,,,,,,,,,,
76183,1560687022413,18,2.37,1.75,3.57,1.89,2.86,1.12,-0.44,0.26,9,-2,10,1.21,6517,11,79,35,27,927,404.0,597,463,60,121.0,97,1,272,160,40,0,0,358,-3866,-1562,404,,,,,,,,,,,,
76203,1560687022433,20,2.37,1.72,3.56,1.86,2.86,1.19,-0.5,0.26,9,-4,10,1.3,6565,11,79,35,28,903,398.0,595,458,60,122.0,97,1,275,162,40,0,0,329,8200,257,398,,,,,,,,,,,,
76223,1560687022453,19,2.37,1.7,3.56,1.85,2.92,1.19,-0.41,0.16,9,-3,12,1.26,6625,11,79,35,28,898,392.0,599,461,60,122.0,97,1,275,162,40,0,0,306,-6656,4104,392,,,,,,,,,,,,
76243,1560687022473,20,2.36,1.7,3.61,1.85,2.95,1.18,-0.44,0.2,10,-1,14,1.26,6508,11,79,35,28,892,389.0,596,464,60,122.0,97,1,275,162,40,0,0,280,486,-19126,389,45.701538,4.911837,41.48,197.0,0,0.0,0,0.0,0.6183,1,0.41,1.2707
76263,1560687022493,22,2.37,1.7,3.62,1.87,2.92,1.22,-0.49,0.28,10,-3,15,1.31,6410,11,79,35,29,890,385.0,591,459,60,122.0,100,1,279,163,39,0,0,269,3082,-19019,385,,,,,,,,,,,,
76283,1560687022513,24,2.37,1.7,3.59,1.88,2.92,1.13,-0.44,0.2,10,-3,15,1.22,6298,11,79,35,29,887,380.0,583,459,60,123.0,100,1,280,163,39,0,0,277,2790,742,380,,,,,,,,,,,,
76303,1560687022533,22,2.38,1.7,3.58,1.87,2.89,1.0,-0.34,0.03,11,1,16,1.05,6181,11,79,35,30,888,375.0,575,457,60,122.0,100,1,284,163,39,0,0,283,-6640,1,375,,,,,,,,,,,,
76323,1560687022553,18,2.37,1.69,3.58,1.86,2.89,0.94,-0.28,-0.09,10,5,17,0.98,6040,11,79,35,30,890,370.0,562,453,60,123.0,100,1,284,165,39,0,0,296,3183,0,370,,,,,,,,,,,,
76343,1560687022573,23,2.36,1.69,3.57,1.84,2.88,0.94,-0.27,-0.16,9,8,17,0.98,5901,11,79,35,31,893,368.0,550,458,60,123.0,100,1,285,164,39,0,0,318,2811,-14707,365,45.701534,4.911846,39.42,197.0,0,0.0,0,0.0,0.62,1,0.42,1.2724
76363,1560687022591,23,2.35,1.67,3.57,1.82,2.91,0.86,-0.28,-0.24,7,11,17,0.9,5815,10,79,35,31,898,363.0,542,458,60,123.0,99,1,283,164,36,0,0,323,-30438,3302,363,,,,,,,,,,,,
76383,1560687022611,25,2.34,1.65,3.57,1.78,2.92,0.68,-0.31,-0.27,7,11,16,0.74,5792,10,79,35,32,900,355.0,538,455,60,121.0,99,1,285,165,36,0,0,299,-14714,6668,355,,,,,,,,,,,,
76403,1560687022631,21,2.34,1.65,3.57,1.74,2.95,0.53,-0.29,-0.24,9,9,14,0.6,5822,10,79,35,32,903,350.0,534,454,60,122.0,99,1,286,171,36,0,0,267,13,145,350,,,,,,,,,,,,
76423,1560687022651,24,2.32,1.64,3.57,1.73,2.96,0.63,-0.25,-0.17,11,4,14,0.67,5748,10,79,35,33,908,345.0,535,463,60,122.0,99,1,287,170,36,0,0,259,-6528,4838,343,,,,,,,,,,,,
76443,1560687022671,23,2.32,1.65,3.56,1.73,2.96,0.77,-0.24,-0.06,11,-2,13,0.8,5659,10,79,35,34,913,338.0,528,462,60,121.0,99,1,288,176,36,0,0,261,170,-12032,338,45.701523,4.911854,37.42,197.0,0,0.0,0,0.0,0.6217,1,0.42,1.274
76463,1560687022691,27,2.3,1.65,3.55,1.72,2.97,0.89,-0.23,-0.07,8,0,13,0.92,5530,10,79,35,35,915,334.0,524,462,60,123.0,109,1,290,180,37,0,0,271,-24576,170,332,,,,,,,,,,,,
76483,1560687022710,24,2.3,1.66,3.55,1.71,2.97,0.61,-0.27,-0.14,8,7,12,0.66,5415,10,79,35,36,917,326.0,516,459,60,121.0,109,1,292,185,37,0,0,284,-27136,-27136,326,,,,,,,,,,,,
76503,1560687022730,29,2.28,1.68,3.54,1.7,2.97,0.75,-0.18,-0.12,9,1,12,0.77,5358,10,79,35,37,918,317.0,510,458,60,122.0,109,1,295,190,37,0,0,286,135,130,317,,,,,,,,,,,,
76523,1560687022750,23,2.29,1.69,3.53,1.68,2.96,0.79,-0.17,-0.14,7,4,12,0.8,5355,10,79,35,37,917,310.0,500,455,60,123.0,109,1,295,190,37,0,0,285,32000,0,310,,,,,,,,,,,,
76543,1560687022770,24,2.29,1.68,3.53,1.66,3.01,0.78,-0.13,-0.1,8,1,11,0.79,5395,10,79,35,38,917,305.0,500,464,60,121.0,109,1,299,196,37,0,0,277,28160,28160,305,45.701519,4.91186,34.97,197.0,0,0.0,0,0.0,0.6233,1,0.42,1.2757
76563,1560687022790,24,2.27,1.68,3.52,1.63,3.01,0.9,-0.16,-0.04,5,-2,11,0.92,5308,10,79,35,39,916,298.0,500,447,60,123.0,136,1,303,203,41,0,0,272,95,2414,297,,,,,,,,,,,,
76583,1560687022810,22,2.26,1.73,3.53,1.62,3.01,0.72,-0.08,-0.17,5,2,11,0.73,5227,10,79,35,40,920,293.0,490,469,60,121.0,136,1,302,204,41,0,0,280,21760,250,292,,,,,,,,,,,,
76603,1560687022830,25,2.24,1.76,3.53,1.61,3.02,0.85,-0.09,-0.1,4,-1,10,0.86,5120,10,79,35,41,922,288.0,479,455,60,123.0,136,1,303,205,41,0,0,280,10686,1886,286,,,,,,,,,,,,
76623,1560687022850,28,2.24,1.75,3.52,1.57,3.03,0.86,-0.02,-0.1,4,-2,8,0.86,5044,10,79,35,42,925,282.0,473,465,60,122.0,136,1,302,207,41,0,0,266,1886,250,278,,,,,,,,,,,,
76643,1560687022870,24,2.22,1.76,3.51,1.55,3.04,0.8,-0.02,-0.13,3,2,6,0.8,4989,10,79,35,43,929,277.0,467,465,60,121.0,136,1,301,208,41,0,0,267,30208,-1,273,45.701511,4.911867,31.8,197.0,0,0.0,0,0.0,0.625,1,0.42,1.2774
76663,1560687022892,22,2.22,1.76,3.49,1.55,3.06,0.92,0.02,-0.07,2,-2,6,0.92,4956,10,79,35,43,933,273.0,459,458,60,123.0,143,1,300,208,39,0,0,265,28160,-1,265,,,,,,,,,,,,
76683,1560687022912,21,2.23,1.75,3.47,1.56,3.08,0.95,0.04,-0.02,2,-4,5,0.95,4887,9,79,35,44,938,268.0,454,466,60,123.0,143,1,299,208,39,0,0,262,-1,-41,262,,,,,,,,,,,,
76703,1560687022932,21,2.23,1.75,3.47,1.55,3.1,0.9,0.01,-0.04,2,-2,3,0.9,4764,9,79,35,45,941,263.0,447,463,60,121.0,143,1,297,208,39,0,0,260,-1,-1,259,,,,,,,,,,,,
76723,1560687022952,11,2.24,1.75,3.46,1.57,3.1,0.81,-0.03,-0.08,2,1,3,0.81,4659,9,79,35,45,943,260.0,440,463,60,121.0,143,1,295,205,39,0,0,253,-1,-214,256,,,,,,,,,,,,
76743,1560687022972,8,2.24,1.76,3.47,1.59,3.08,0.74,-0.05,-0.04,1,3,2,0.74,4552,9,79,35,46,941,257.0,428,463,60,120.0,143,1,295,205,39,0,0,249,14337,-214,254,45.7015,4.911872,29.48,197.1,0,0.0,0,0.0,0.6267,1,0.42,1.279
76763,1560687022992,4,2.24,1.75,3.46,1.62,3.07,0.71,-0.09,-0.01,0,6,2,0.71,4532,9,79,35,46,939,254.0,420,462,60,121.0,138,1,295,204,35,0,0,245,-1,10812,252,,,,,,,,,,,,
76783,1560687023006,5,2.22,1.77,3.42,1.65,3.05,0.66,-0.11,0.04,-0,9,2,0.67,4527,9,79,35,46,935,252.0,418,458,60,121.0,138,1,295,204,35,0,0,247,-1,10812,251,,,,,,,,,,,,
76803,1560687023026,5,2.22,1.77,3.37,1.66,3.05,0.65,-0.08,0.09,-1,10,2,0.66,4495,9,79,35,46,930,249.0,411,459,60,121.0,138,1,294,206,35,0,0,245,16896,-17920,247,,,,,,,,,,,,
76823,1560687023046,6,2.2,1.78,3.35,1.66,3.04,0.65,-0.06,0.11,-1,10,1,0.65,4494,9,79,35,47,924,246.0,412,466,60,121.0,138,1,297,206,35,0,0,243,10812,-17920,244,,,,,,,,,,,,
76843,1560687023066,8,2.18,1.78,3.34,1.64,3.05,0.69,-0.03,0.13,-1,11,0,0.69,4500,9,79,35,47,917,244.0,407,460,60,121.0,138,1,298,207,35,0,0,238,250,250,240,45.7015,4.911878,26.86,197.1,0,0.0,0,0.0,0.6283,1,0.42,1.2807
76863,1560687023092,8,2.17,1.78,3.33,1.62,3.03,0.7,-0.01,0.14,-2,12,-1,0.7,4506,9,79,35,47,912,243.0,407,456,60,121.0,146,1,298,207,35,0,0,236,-17920,-1483,237,,,,,,,,,,,,
76883,1560687023112,11,2.13,1.79,3.33,1.61,3.03,0.69,-0.02,0.13,-3,13,-1,0.69,4487,9,79,35,47,911,242.0,407,460,60,121.0,146,1,297,206,35,0,0,236,23482,18432,232,,,,,,,,,,,,
76903,1560687023132,12,2.12,1.8,3.34,1.61,3.04,0.64,-0.01,0.14,-4,14,-1,0.64,4412,9,79,35,47,909,239.0,400,456,60,120.0,146,1,296,205,35,0,0,235,-1484,-1496,229,,,,,,,,,,,,
76923,1560687023152,15,2.1,1.84,3.31,1.6,3.04,0.64,0.03,0.13,-5,15,-3,0.64,4372,9,79,35,48,908,237.0,397,456,60,122.0,146,1,296,207,35,0,0,234,-25600,1596,225,,,,,,,,,,,,
76943,1560687023172,14,2.07,1.87,3.27,1.59,3.05,0.65,0.09,0.07,-6,17,-4,0.65,4352,9,79,35,48,907,235.0,391,457,60,123.0,146,1,295,207,35,0,0,233,-1483,1210,219,45.701492,4.911882,24.68,197.1,0,0.0,0,0.0,0.63,1,0.42,1.2824
76963,1560687023192,15,2.06,1.9,3.25,1.6,3.07,0.68,0.17,0.01,-7,16,-5,0.7,4249,8,79,35,47,908,232.0,388,452,60,123.0,148,1,294,201,32,0,0,231,250,16384,216,,,,,,,,,,,,
76983,1560687023212,11,2.04,1.91,3.25,1.6,3.09,0.77,0.18,0.06,-8,12,-5,0.79,4226,9,79,35,48,909,230.0,383,455,60,123.0,148,1,294,205,32,0,0,228,10824,-14848,211,,,,,,,,,,,,
77003,1560687023232,11,2.04,1.91,3.26,1.59,3.1,0.87,0.2,0.14,-9,7,-6,0.9,4147,9,79,35,47,911,229.0,376,451,60,123.0,148,1,293,199,32,0,0,224,18432,-1482,209,,,,,,,,,,,,
77023,1560687023252,15,2.03,1.91,3.25,1.58,3.11,0.88,0.19,0.17,-10,9,-7,0.9,4119,9,79,35,47,913,227.0,373,452,60,120.0,148,1,292,203,32,0,0,223,-1496,13874,207,,,,,,,,,,,,
77043,1560687023272,11,2.04,1.92,3.25,1.59,3.09,0.84,0.22,0.13,-10,13,-9,0.87,4085,9,79,35,48,914,225.0,369,451,60,122.0,148,1,292,202,32,0,0,222,19968,12800,204,45.701485,4.911887,23.17,197.1,0,0.0,0,0.0,0.6317,1,0.42,1.284
77063,1560687023292,8,2.03,1.93,3.25,1.6,3.07,0.86,0.2,0.17,-11,11,-11,0.89,4051,9,79,35,48,914,223.0,363,452,60,123.0,152,1,292,202,31,0,0,219,-1530,250,203,,,,,,,,,,,,
77083,1560687023312,6,2.05,1.93,3.24,1.61,3.07,0.9,0.19,0.21,-11,9,-12,0.92,4027,9,79,35,48,912,219.0,358,448,60,122.0,152,1,292,201,31,0,0,216,-1532,19456,200,,,,,,,,,,,,
77103,1560687023332,8,2.05,1.93,3.23,1.62,3.06,0.91,0.22,0.17,-11,12,-14,0.93,3961,9,79,35,48,910,217.0,360,456,60,122.0,152,1,287,200,31,0,0,215,-17920,19456,197,,,,,,,,,,,,
77123,1560687023352,7,2.05,1.93,3.23,1.63,3.07,0.94,0.21,0.21,-11,7,-14,0.96,3955,9,79,35,48,907,214.0,352,451,60,123.0,152,1,286,200,31,0,0,211,1088,-1481,196,,,,,,,,,,,,
77143,1560687023372,9,2.06,1.93,3.23,1.61,3.07,0.92,0.18,0.23,-11,7,-15,0.93,3953,9,79,35,48,904,212.0,356,454,60,120.0,152,1,286,204,31,0,0,208,250,-2560,196,45.701481,4.911891,21.65,197.1,0,0.0,0,0.0,0.6333,1,0.42,1.2857
77163,1560687023392,6,2.04,1.93,3.25,1.63,3.06,0.92,0.22,0.18,-11,10,-16,0.95,3902,9,79,35,49,898,210.0,347,455,60,123.0,154,1,282,203,30,0,0,207,966,-1281,194,,,,,,,,,,,,
77183,1560687023412,6,2.06,1.92,3.24,1.63,3.06,0.99,0.2,0.24,-11,6,-16,1.01,3893,9,79,35,49,892,209.0,346,453,60,122.0,154,1,281,202,30,0,0,205,-14848,-1,192,,,,,,,,,,,,
77203,1560687023432,8,2.07,1.92,3.24,1.64,3.03,0.95,0.2,0.21,-12,9,-15,0.98,3887,9,79,35,49,890,207.0,343,458,60,123.0,154,1,280,202,30,0,0,205,-1482,-1,189,,,,,,,,,,,,
77223,1560687023452,4,2.08,1.93,3.25,1.64,3.02,0.97,0.17,0.24,-12,7,-16,0.99,3837,9,79,35,49,887,206.0,340,451,60,123.0,154,1,275,201,30,0,0,203,250,-1,189,,,,,,,,,,,,
77243,1560687023472,9,2.09,1.93,3.24,1.65,3.01,0.95,0.17,0.26,-12,7,-16,0.97,3808,9,79,35,49,882,203.0,340,455,60,121.0,154,1,272,201,30,0,0,201,-1482,-1,187,45.701477,4.911896,20.33,197.1,0,0.0,0,0.0,0.635,1,0.42,1.2874
77263,1560687023492,5,2.11,1.93,3.25,1.65,3.0,0.97,0.19,0.26,-12,6,-15,0.99,3758,9,79,35,50,877,202.0,340,456,60,123.0,155,1,267,204,29,0,0,198,250,-1,186,,,,,,,,,,,,
77283,1560687023512,8,2.13,1.93,3.25,1.65,2.97,0.94,0.19,0.29,-11,6,-15,0.96,3661,9,79,35,50,875,200.0,331,454,60,122.0,155,1,256,202,29,0,0,197,250,-1,185,,,,,,,,,,,,
77303,1560687023532,5,2.17,1.93,3.25,1.65,2.95,0.96,0.18,0.35,-11,2,-15,0.98,3548,9,79,35,51,873,196.0,330,458,60,123.0,155,1,244,204,29,0,0,195,250,-1,184,,,,,,,,,,,,
77323,1560687023552,5,2.2,1.93,3.25,1.66,2.92,0.95,0.14,0.37,-10,4,-15,0.97,3471,9,79,35,52,876,196.0,318,458,60,123.0,155,1,234,206,29,0,0,194,250,-1,184,,,,,,,,,,,,
77343,1560687023572,5,2.25,1.94,3.29,1.67,2.91,0.95,0.11,0.33,-9,8,-15,0.95,3328,8,79,35,53,880,191.0,314,454,60,122.0,155,1,209,206,29,0,0,188,-1281,-1,184,45.701473,4.9119,19.21,197.1,0,0.0,0,0.0,0.6367,1,0.42,1.289
77363,1560687023592,6,2.3,1.92,3.33,1.7,2.88,0.92,0.04,0.36,-8,6,-15,0.92,3217,9,79,35,54,885,189.0,302,456,60,122.0,137,1,189,205,25,0,0,188,-1,-1,182,,,,,,,,,,,,
77383,1560687023612,3,2.37,1.9,3.39,1.72,2.85,0.88,-0.02,0.4,-7,2,-13,0.88,3137,8,79,35,55,891,186.0,293,452,60,120.0,137,1,174,206,25,0,0,181,-1,-1,182,,,,,,,,,,,,
77403,1560687023632,5,2.43,1.89,3.45,1.77,2.87,0.87,-0.07,0.38,-6,-3,-12,0.88,3081,9,79,35,56,905,182.0,288,452,60,120.0,137,1,164,208,25,0,0,177,-236,-1,182,,,,,,,,,,,,
77423,1560687023652,6,2.48,1.88,3.48,1.81,2.86,0.87,-0.14,0.42,-4,-8,-9,0.88,3009,9,79,35,57,921,183.0,279,455,60,121.0,137,1,151,209,25,0,0,175,3584,-1,182,,,,,,,,,,,,
77443,1560687023672,3,2.54,1.87,3.53,1.83,2.84,0.83,-0.19,0.43,-2,-13,-6,0.85,2916,9,79,35,58,932,183.0,276,456,60,121.0,137,1,137,213,25,0,0,167,-1,-1,183,45.701469,4.911905,18.75,197.1,0,0.0,0,0.0,0.6383,1,0.42,1.2907
77463,1560687023693,4,2.59,1.85,3.55,1.84,2.82,0.75,-0.26,0.42,-0,-15,-3,0.8,2860,9,79,35,59,942,184.0,270,452,60,122.0,125,1,129,216,23,0,0,163,-1,-1,184,,,,,,,,,,,,
77483,1560687023713,2,2.63,1.84,3.56,1.85,2.79,0.71,-0.29,0.42,2,-13,-1,0.77,2864,9,79,35,60,954,185.0,265,455,60,122.0,125,1,129,220,23,0,0,158,30720,-1,185,,,,,,,,,,,,
77503,1560687023733,1,2.67,1.83,3.57,1.86,2.78,0.74,-0.3,0.41,4,-7,1,0.8,2809,9,79,35,60,966,186.0,262,459,60,122.0,125,1,122,219,23,0,0,156,250,-1,186,,,,,,,,,,,,
77523,1560687023753,0,2.68,1.82,3.58,1.86,2.77,0.81,-0.32,0.37,6,0,2,0.87,2734,9,79,35,61,974,186.0,254,456,60,123.0,125,1,112,221,23,0,0,153,250,-1,186,,,,,,,,,,,,
77543,1560687023773,5,2.71,1.82,3.58,1.87,2.77,0.87,-0.33,0.33,8,3,5,0.93,2754,9,79,35,62,977,186.0,253,461,60,123.0,125,1,117,224,23,0,0,151,-1,-236,186,45.701466,4.911909,18.19,197.1,0,0.0,0,0.0,0.64,1,0.42,1.2924
77563,1560687023791,3,2.73,1.81,3.57,1.86,2.77,0.92,-0.35,0.31,9,-3,8,0.98,2840,9,79,35,62,981,187.0,248,452,60,123.0,122,1,128,225,23,0,0,147,-1,250,185,,,,,,,,,,,,
77583,1560687023811,3,2.74,1.82,3.58,1.86,2.77,0.86,-0.38,0.33,10,-10,12,0.94,2906,9,79,35,63,987,183.0,252,452,60,123.0,122,1,139,227,23,0,0,145,-165,31744,183,,,,,,,,,,,,
77603,1560687023831,-0,2.76,1.81,3.57,1.84,2.76,0.86,-0.4,0.36,11,-14,15,0.95,2971,9,79,35,63,991,181.0,255,453,60,120.0,122,1,148,230,23,0,0,143,250,250,181,,,,,,,,,,,,
77623,1560687023851,5,2.78,1.81,3.57,1.85,2.77,0.9,-0.39,0.39,12,-17,16,0.98,3098,9,79,35,64,993,179.0,258,456,60,123.0,122,1,170,237,23,0,0,141,-1,-1281,179,,,,,,,,,,,,
77643,1560687023871,-1,2.79,1.81,3.58,1.85,2.77,0.9,-0.39,0.39,13,-17,17,0.98,3189,9,79,35,64,995,179.0,261,460,60,123.0,122,1,186,241,23,0,0,141,-1,250,179,45.701462,4.911914,17.55,197.1,0,0.0,0,0.0,0.6417,1,0.43,1.294
77663,1560687023891,-2,2.81,1.83,3.53,1.86,2.77,0.86,-0.39,0.36,15,-13,19,0.94,3198,10,79,35,65,999,180.0,268,460,60,123.0,161,1,188,241,29,0,0,141,-1,31744,180,,,,,,,,,,,,
77683,1560687023911,-1,2.82,1.86,3.48,1.86,2.75,0.85,-0.37,0.34,16,-9,21,0.93,3226,12,79,35,66,1002,180.0,272,458,60,123.0,161,1,194,249,29,0,0,141,-1,-1281,180,,,,,,,,,,,,
77703,1560687023931,0,2.81,1.86,3.46,1.86,2.72,0.85,-0.36,0.35,18,-5,23,0.92,3237,14,79,35,66,1005,179.0,278,455,60,123.0,161,1,195,249,29,0,0,140,-1,31744,179,,,,,,,,,,,,
77723,1560687023951,-1,2.82,1.87,3.47,1.86,2.72,0.88,-0.38,0.39,19,-7,24,0.96,3292,17,79,35,68,1004,179.0,282,458,60,121.0,161,1,206,257,29,0,0,138,-1,-1,179,,,,,,,,,,,,
77743,1560687023971,3,2.81,1.87,3.46,1.87,2.74,0.9,-0.37,0.46,20,-10,25,0.97,3313,21,79,35,69,1003,178.0,286,457,60,122.0,161,1,211,261,29,0,0,137,-1,250,178,45.701458,4.911917,16.8,197.1,0,0.0,0,0.0,0.6433,1,0.43,1.2957
77763,1560687023991,-0,2.79,1.87,3.47,1.88,2.73,0.91,-0.35,0.47,20,-9,25,0.97,3343,25,79,35,72,1000,178.0,286,463,60,122.0,185,1,219,267,33,0,0,138,-1,250,178,,,,,,,,,,,,
77783,1560687024005,0,2.77,1.87,3.47,1.89,2.73,0.84,-0.37,0.41,21,-6,25,0.92,3374,27,79,35,74,997,178.0,289,463,60,123.0,185,1,225,276,33,0,0,139,-1,-1,178,,,,,,,,,,,,
77803,1560687024025,0,2.77,1.87,3.46,1.92,2.74,0.76,-0.37,0.41,22,-4,27,0.85,3358,28,79,35,76,992,177.0,294,457,60,121.0,185,1,225,282,33,0,0,139,-1,-1,177,,,,,,,,,,,,
77823,1560687024045,4,2.74,1.87,3.43,1.95,2.72,0.78,-0.38,0.48,22,-5,28,0.87,3284,28,79,35,78,982,178.0,292,456,60,122.0,185,1,221,288,33,0,0,142,-1,31744,178,,,,,,,,,,,,
77843,1560687024065,4,2.72,1.89,3.38,1.98,2.72,0.82,-0.35,0.53,22,-9,30,0.9,3105,28,79,35,79,975,178.0,291,460,60,121.0,185,1,210,281,33,0,0,148,-1,31744,178,45.701458,4.91192,15.87,197.1,0,0.0,0,0.0,0.645,1,0.43,1.2974
77863,1560687024085,3,2.69,1.9,3.34,1.99,2.72,0.85,-0.36,0.58,22,-13,31,0.92,2897,28,79,35,81,969,178.0,278,455,60,122.0,174,1,203,270,31,0,0,157,-1,10620,178,,,,,,,,,,,,
77883,1560687024105,-1,2.68,1.91,3.32,1.98,2.72,0.84,-0.34,0.64,21,-17,31,0.91,2739,28,79,35,83,964,178.0,272,460,60,120.0,174,1,209,272,31,0,0,153,-1281,250,178,,,,,,,,,,,,
77903,1560687024125,0,2.66,1.92,3.29,1.99,2.74,0.73,-0.33,0.64,21,-14,32,0.8,2728,28,79,35,85,960,178.0,263,458,60,122.0,174,1,209,277,31,0,0,146,-1281,250,178,,,,,,,,,,,,
77923,1560687024145,1,2.62,1.92,3.29,1.99,2.79,0.74,-0.3,0.62,21,-7,31,0.8,2763,28,79,35,86,956,177.0,257,461,60,122.0,174,1,210,282,31,0,0,146,-1,250,177,,,,,,,,,,,,
77943,1560687024165,0,2.61,1.92,3.28,1.99,2.83,0.78,-0.28,0.56,21,-1,29,0.83,2702,28,79,35,86,958,177.0,256,465,60,123.0,174,1,208,281,31,0,0,146,-1,250,177,45.701454,4.911922,15.76,197.2,0,0.0,0,0.0,0.6467,1,0.43,1.299
77963,1560687024191,2,2.57,1.92,3.28,2.0,2.83,0.83,-0.26,0.56,21,-5,29,0.87,2611,28,79,35,87,962,177.0,251,455,60,123.0,152,1,204,280,27,0,0,146,-1,250,177,,,,,,,,,,,,
77983,1560687024211,1,2.52,1.92,3.29,2.01,2.84,0.8,-0.24,0.6,20,-10,30,0.83,2585,28,79,35,88,979,175.0,247,458,60,122.0,152,1,203,280,27,0,0,146,-1,-1,175,,,,,,,,,,,,
78003,1560687024231,-1,2.48,1.92,3.26,2.01,2.84,0.76,-0.24,0.6,20,-7,29,0.8,2507,28,79,35,89,994,173.0,242,456,60,123.0,152,1,200,282,27,0,0,148,-1,-1,173,,,,,,,,,,,,
78023,1560687024251,1,2.43,1.91,3.21,2.0,2.86,0.8,-0.18,0.52,19,-4,28,0.82,2440,28,79,35,89,1009,173.0,240,453,60,122.0,152,1,197,281,27,0,0,149,250,-1,173,,,,,,,,,,,,
78043,1560687024271,0,2.36,1.93,3.17,1.98,2.86,0.79,-0.14,0.54,17,-7,27,0.8,2430,28,79,35,90,1026,171.0,236,457,60,123.0,152,1,198,285,27,0,0,152,23460,-253,171,45.70145,4.911924,16.28,197.2,0,0.0,0,0.0,0.6483,1,0.43,1.3007
78063,1560687024291,6,2.31,1.92,3.14,1.95,2.87,0.82,-0.13,0.53,16,-2,26,0.83,2392,28,79,35,89,1072,166.0,233,463,60,123.0,147,1,195,281,25,0,0,153,-165,-1494,166,,,,,,,,,,,,
78083,1560687024311,0,2.26,1.92,3.14,1.91,2.95,0.93,-0.07,0.46,14,-7,24,0.93,2535,28,79,35,89,1120,161.0,233,455,60,121.0,147,1,201,283,25,0,0,151,23460,-1,161,,,,,,,,,,,,
78103,1560687024331,-1,2.21,1.92,3.15,1.83,3.03,0.95,-0.06,0.49,12,-13,22,0.95,2625,28,79,35,89,1151,157.0,233,458,60,123.0,147,1,205,288,25,0,0,149,250,-1,157,,,,,,,,,,,,
78123,1560687024351,0,2.15,1.92,3.15,1.78,3.06,0.76,-0.03,0.45,11,-8,20,0.76,2786,28,79,36,89,1183,154.0,238,457,60,123.0,147,1,211,297,25,0,0,147,-1281,-1,154,,,,,,,,,,,,
78143,1560687024371,1,2.09,1.93,3.16,1.75,3.07,0.84,0.02,0.4,10,2,16,0.84,2863,28,79,36,88,1253,151.0,241,460,60,123.0,147,1,214,296,25,0,0,148,-1281,5140,148,45.701447,4.911926,16.1,197.2,0,0.0,0,0.0,0.65,1,0.43,1.3024
78163,1560687024391,-2,2.04,1.94,3.16,1.76,3.07,0.93,0.06,0.36,9,6,12,0.93,2885,28,79,36,88,1324,153.0,248,459,60,123.0,216,1,215,297,32,0,0,150,-23552,-1,146,,,,,,,,,,,,
78183,1560687024411,-2,2.0,1.98,3.14,1.77,3.05,0.99,0.1,0.33,6,8,10,0.99,2872,28,79,36,87,1370,155.0,251,460,60,123.0,216,1,214,292,32,0,0,154,-165,-236,144,,,,,,,,,,,,
78203,1560687024431,5,1.94,2.03,3.11,1.78,3.04,1.03,0.16,0.32,4,8,7,1.04,2814,28,79,36,87,1410,156.0,252,458,60,124.0,216,1,212,289,32,0,0,153,-1,5120,141,,,,,,,,,,,,
78223,1560687024451,3,1.9,2.05,3.08,1.76,3.04,1.04,0.2,0.33,2,1,7,1.06,2752,28,79,36,87,1449,157.0,250,456,60,123.0,216,1,210,287,32,0,0,154,-1,-1281,138,,,,,,,,,,,,
78243,1560687024471,-0,1.87,2.06,3.09,1.76,3.04,1.02,0.2,0.39,-1,-8,5,1.04,2704,28,79,36,87,1488,157.0,249,455,60,120.0,216,1,208,289,32,0,0,153,-1,-1,137,45.701443,4.911928,15.7,197.2,0,0.0,0,0.0,0.6517,1,0.43,1.304
78263,1560687024492,1,1.86,2.05,3.08,1.75,3.06,0.86,0.19,0.41,-3,-8,3,0.88,2694,28,79,36,88,1498,158.0,249,458,60,123.0,211,1,207,288,29,0,0,154,-1,-1,134,,,,,,,,,,,,
78283,1560687024512,1,1.85,2.07,3.11,1.76,3.05,0.88,0.2,0.45,-4,2,-3,0.9,2642,28,79,36,88,1498,158.0,247,457,60,122.0,211,1,205,285,29,0,0,153,-1,-1,134,,,,,,,,,,,,
78303,1560687024532,4,1.84,2.07,3.15,1.75,3.05,0.96,0.23,0.38,-5,9,-7,0.99,2591,28,79,36,88,1498,159.0,245,457,60,122.0,211,1,203,283,29,0,0,153,-1281,-1,135,,,,,,,,,,,,
78323,1560687024552,0,1.84,2.07,3.16,1.76,3.04,1.07,0.24,0.45,-7,-1,-8,1.09,2570,28,79,36,89,1498,159.0,242,458,60,120.0,211,1,202,285,29,0,0,153,-1281,-1,133,,,,,,,,,,,,
78343,1560687024572,0,1.82,2.07,3.18,1.75,3.01,0.8,0.17,0.48,-8,-8,-8,0.81,2559,28,79,36,89,1498,157.0,242,457,60,123.0,211,1,202,284,29,0,0,152,-1,-1,133,45.701439,4.911929,14.45,197.2,0,0.0,0,0.0,0.6533,1,0.43,1.3057
78363,1560687024591,5,1.8,2.07,3.19,1.76,2.99,0.82,0.16,0.47,-9,7,-13,0.83,2555,28,79,36,89,1498,156.0,241,461,60,122.0,206,1,202,284,27,0,0,150,-1,-202,131,,,,,,,,,,,,
78383,1560687024611,-0,1.79,2.08,3.19,1.75,2.98,0.94,0.23,0.42,-10,6,-15,0.96,2563,28,79,36,89,1498,156.0,237,452,60,123.0,206,1,202,284,27,0,0,149,-1,13868,130,,,,,,,,,,,,
78403,1560687024631,-2,1.8,2.07,3.18,1.74,2.98,0.84,0.22,0.46,-13,-6,-13,0.87,2570,28,80,36,90,1498,155.0,241,457,60,123.0,206,1,202,289,27,0,0,148,-165,250,129,,,,,,,,,,,,
78423,1560687024651,0,1.79,2.07,3.18,1.73,2.97,0.73,0.21,0.49,-13,-2,-16,0.76,2555,28,80,36,89,1498,156.0,238,458,60,123.0,206,1,202,284,27,0,0,147,-1,-1482,127,,,,,,,,,,,,
78443,1560687024671,0,1.79,2.07,3.2,1.73,2.97,0.86,0.27,0.42,-13,9,-19,0.9,2525,28,80,36,89,1498,153.0,235,455,60,123.0,206,1,201,283,27,0,0,146,-23552,250,126,45.701439,4.911931,14.16,197.2,0,0.0,0,0.0,0.655,1,0.43,1.3074
78463,1560687024691,0,1.79,2.08,3.21,1.73,2.96,0.96,0.28,0.43,-15,-2,-18,1.0,2513,28,80,36,90,1498,153.0,238,459,60,123.0,206,1,200,285,26,0,0,147,-23552,9728,125,,,,,,,,,,,,
78483,1560687024710,0,1.78,2.09,3.23,1.74,2.95,0.78,0.23,0.52,-15,-5,-19,0.81,2482,29,80,36,90,1498,152.0,236,460,60,123.0,206,1,199,285,26,0,0,145,250,-1482,124,,,,,,,,,,,,
78503,1560687024730,-1,1.78,2.09,3.23,1.73,2.95,0.9,0.23,0.47,-16,6,-22,0.92,2436,30,80,36,90,1498,151.0,233,456,60,122.0,206,1,198,285,26,0,0,144,-1281,-1482,124,,,,,,,,,,,,
78523,1560687024750,0,1.77,2.1,3.24,1.72,2.95,0.92,0.27,0.44,-17,-2,-21,0.96,2425,32,80,36,91,1498,150.0,233,457,60,124.0,206,1,202,304,26,0,0,144,-1,8192,122,,,,,,,,,,,,
78543,1560687024770,5,1.76,2.11,3.23,1.74,2.95,0.8,0.25,0.5,-17,1,-23,0.84,2424,35,80,36,91,1498,150.0,232,461,60,123.0,206,1,202,304,26,0,0,143,-1,250,121,45.701435,4.911933,13.38,197.2,0,0.0,0,0.0,0.6567,1,0.43,1.309
78563,1560687024790,0,1.75,2.11,3.23,1.73,2.95,0.92,0.25,0.42,-17,4,-25,0.96,2379,37,80,36,92,1498,149.0,230,458,60,121.0,223,1,206,322,27,0,0,141,-1,250,120,,,,,,,,,,,,
78583,1560687024810,-1,1.76,2.11,3.24,1.73,2.95,0.88,0.24,0.49,-18,-4,-24,0.91,2355,39,80,36,93,1498,148.0,227,456,60,123.0,223,1,210,339,27,0,0,141,-1,-1482,120,,,,,,,,,,,,
78603,1560687024830,0,1.76,2.1,3.24,1.73,2.95,0.89,0.26,0.47,-18,1,-25,0.93,2322,40,80,36,93,1498,147.0,228,453,60,120.0,223,1,209,339,27,0,0,139,-1,-1482,119,,,,,,,,,,,,
78623,1560687024850,0,1.75,2.11,3.24,1.73,2.95,0.89,0.26,0.44,-18,-2,-25,0.93,2306,42,80,36,94,1498,146.0,224,456,60,122.0,223,1,214,357,27,0,0,137,-1,250,119,,,,,,,,,,,,
78643,1560687024870,0,1.76,2.1,3.24,1.73,2.94,0.84,0.25,0.48,-18,-0,-26,0.88,2298,45,80,36,94,1498,144.0,222,455,60,122.0,223,1,213,356,27,0,0,135,-1,-1482,117,45.701431,4.911936,12.92,197.2,0,0.0,0,0.0,0.6583,1,0.43,1.3107
78663,1560687024890,0,1.76,2.1,3.25,1.72,2.96,0.85,0.25,0.41,-19,-0,-26,0.88,2293,47,80,36,95,1498,143.0,222,459,60,122.0,275,1,217,374,32,0,0,135,-236,13844,116,,,,,,,,,,,,
78683,1560687024910,-1,1.77,2.1,3.24,1.74,2.95,0.79,0.23,0.44,-19,2,-27,0.82,2288,49,80,36,95,1498,141.0,222,455,60,123.0,275,1,217,374,32,0,0,133,5120,5120,115,,,,,,,,,,,,
78703,1560687024930,-2,1.77,2.1,3.24,1.73,2.96,0.81,0.22,0.37,-19,2,-27,0.84,2278,51,80,36,96,1498,140.0,221,457,60,124.0,275,1,222,391,32,0,0,131,250,5120,113,,,,,,,,,,,,
78723,1560687024950,-1,1.77,2.1,3.24,1.74,2.95,0.76,0.21,0.41,-19,3,-28,0.79,2243,53,80,36,96,1498,139.0,218,462,60,123.0,275,1,220,389,32,0,0,131,-1281,5120,112,,,,,,,,,,,,
78743,1560687024970,0,1.77,2.1,3.24,1.73,2.95,0.73,0.19,0.35,-19,4,-27,0.76,2222,54,80,36,97,1498,137.0,219,455,60,122.0,275,1,223,405,32,0,0,131,-1,13838,110,45.701427,4.911939,12.57,197.2,0,0.0,0,0.0,0.66,1,0.43,1.3124
78763,1560687024990,-0,1.77,2.1,3.24,1.73,2.95,0.75,0.19,0.36,-19,5,-27,0.77,2188,55,80,36,96,1498,136.0,217,457,60,123.0,300,1,218,386,33,0,0,129,-1,13838,110,,,,,,,,,,,,
78783,1560687025006,1,1.78,2.1,3.25,1.73,2.96,0.76,0.17,0.35,-19,3,-27,0.77,2167,58,80,36,97,1498,135.0,214,456,60,123.0,300,1,221,402,33,0,0,128,-1,250,110,,,,,,,,,,,,
78803,1560687025026,-1,1.8,2.1,3.24,1.74,2.95,0.82,0.17,0.38,-19,3,-27,0.83,2142,61,80,36,97,1498,134.0,215,452,60,119.0,300,1,220,400,33,0,0,127,-1,250,109,,,,,,,,,,,,
78823,1560687025046,3,1.82,2.1,3.24,1.73,2.95,0.82,0.16,0.44,-19,-1,-27,0.84,2133,64,80,36,98,1498,133.0,213,456,60,123.0,300,1,225,417,33,0,0,125,-1,250,108,,,,,,,,,,,,
78843,1560687025066,0,1.83,2.09,3.25,1.73,2.93,0.85,0.12,0.42,-19,-0,-26,0.86,2117,66,80,36,98,1498,129.0,211,466,60,123.0,300,1,224,416,33,0,0,123,-1,13832,107,45.701424,4.911942,11.78,197.1,0,0.0,0,0.0,0.6617,1,0.43,1.314
78863,1560687025092,-1,1.84,2.1,3.24,1.74,2.93,0.8,0.12,0.44,-18,1,-27,0.81,2111,66,80,36,98,1498,129.0,211,465,60,122.0,308,1,224,398,33,0,0,122,-202,2048,106,,,,,,,,,,,,
78883,1560687025112,0,1.85,2.1,3.26,1.72,2.92,0.81,0.12,0.39,-18,4,-26,0.81,2101,67,80,36,98,1498,127.0,211,461,60,123.0,308,1,224,415,33,0,0,121,-202,2048,105,,,,,,,,,,,,
78903,1560687025132,-1,1.88,2.09,3.26,1.73,2.92,0.83,0.14,0.41,-18,4,-27,0.84,2050,67,80,36,98,1498,127.0,208,451,60,120.0,308,1,222,411,33,0,0,120,-202,2048,105,,,,,,,,,,,,
78923,1560687025152,3,1.89,2.1,3.27,1.73,2.91,0.81,0.12,0.42,-17,2,-27,0.82,2033,67,80,36,98,1498,126.0,206,462,60,123.0,308,1,221,410,33,0,0,120,13868,250,104,,,,,,,,,,,,
78943,1560687025172,-0,1.91,2.09,3.28,1.75,2.89,0.78,0.11,0.39,-17,3,-26,0.79,2035,67,80,36,98,1498,124.0,206,464,60,123.0,308,1,221,410,33,0,0,118,250,250,103,45.701424,4.911944,11.42,197.1,0,0.0,0,0.0,0.6633,1,0.43,1.3157
78963,1560687025192,-2,1.94,2.1,3.29,1.75,2.9,0.81,0.11,0.41,-16,3,-25,0.82,2047,67,80,35,98,1498,122.0,204,449,60,121.0,300,1,221,411,31,0,0,117,13862,-1483,102,,,,,,,,,,,,
78983,1560687025212,5,1.96,2.09,3.29,1.75,2.89,0.84,0.09,0.46,-16,1,-25,0.84,2031,67,80,35,98,1498,119.0,202,459,60,122.0,300,1,221,410,31,0,0,116,-1482,-1483,102,,,,,,,,,,,,
79003,1560687025232,-1,1.99,2.09,3.28,1.75,2.88,0.85,0.06,0.44,-15,2,-23,0.85,2000,67,80,35,98,1498,118.0,201,464,60,123.0,300,1,220,408,31,0,0,114,13856,-1483,102,,,,,,,,,,,,
79023,1560687025252,0,2.01,2.09,3.29,1.76,2.88,0.86,0.06,0.46,-15,2,-23,0.86,1957,67,80,35,98,1498,116.0,198,451,60,120.0,300,1,218,404,31,0,0,112,250,-1483,101,,,,,,,,,,,,
79043,1560687025272,2,2.05,2.08,3.3,1.75,2.88,0.84,0.04,0.47,-14,1,-24,0.85,1962,67,80,35,98,1498,115.0,197,460,60,123.0,300,1,218,405,31,0,0,111,-1482,-1483,101,45.70142,4.911947,10.76,197.1,0,0.0,0,0.0,0.665,1,0.43,1.3174
79063,1560687025292,0,2.07,2.07,3.29,1.75,2.88,0.84,0.02,0.41,-14,2,-22,0.84,1949,67,80,35,98,1498,112.0,197,463,60,122.0,287,1,217,404,29,0,0,110,250,-1483,101,,,,,,,,,,,,
79083,1560687025312,-0,2.11,2.07,3.29,1.75,2.87,0.88,0.03,0.45,-13,1,-19,0.88,1977,67,80,35,98,1498,111.0,197,455,60,119.0,287,1,219,406,29,0,0,110,-1482,-1483,101,,,,,,,,,,,,
79103,1560687025332,-1,2.13,2.06,3.29,1.75,2.86,0.85,0.03,0.47,-12,2,-20,0.85,1965,67,80,35,98,1498,111.0,197,461,60,123.0,287,1,218,405,29,0,0,108,-1482,13736,100,,,,,,,,,,,,
79123,1560687025352,1,2.13,2.06,3.29,1.75,2.85,0.85,0.01,0.45,-11,0,-18,0.85,1947,67,80,35,98,1498,109.0,195,458,60,123.0,287,1,217,404,29,0,0,106,5120,-1483,100,,,,,,,,,,,,
79143,1560687025372,0,2.18,2.06,3.29,1.75,2.85,0.89,-0.01,0.46,-10,0,-15,0.89,1942,67,80,35,98,1498,107.0,195,453,60,121.0,287,1,217,404,29,0,0,105,-1482,13736,100,45.70142,4.91195,10.53,197.1,0,0.0,0,0.0,0.6667,1,0.43,1.3191
79163,1560687025392,0,2.2,2.07,3.3,1.76,2.84,0.84,-0.0,0.53,-10,-0,-16,0.84,1931,68,80,35,98,1498,105.0,194,458,60,122.0,290,1,217,403,29,0,0,105,3584,13736,100,,,,,,,,,,,,
79183,1560687025412,5,2.23,2.07,3.31,1.77,2.85,0.85,-0.04,0.53,-9,-1,-16,0.85,1929,70,80,35,98,1498,105.0,195,458,60,123.0,290,1,217,403,29,0,0,103,3584,250,100,,,,,,,,,,,,
79203,1560687025432,-0,2.24,2.07,3.31,1.76,2.85,0.85,-0.05,0.49,-8,0,-13,0.86,1927,71,80,35,99,1498,105.0,196,467,60,122.0,290,1,220,431,29,0,0,103,-1482,13736,100,,,,,,,,,,,,
79223,1560687025452,-0,2.27,2.07,3.3,1.77,2.85,0.85,-0.04,0.51,-8,1,-11,0.85,1968,73,80,35,98,1498,103.0,194,449,60,119.0,290,1,218,405,29,0,0,102,-1482,250,100,,,,,,,,,,,,
79243,1560687025472,4,2.3,2.07,3.3,1.78,2.84,0.81,-0.01,0.56,-7,0,-11,0.81,1958,73,80,35,98,1498,102.0,197,461,60,122.0,290,1,218,405,29,0,0,101,13832,250,100,45.70142,4.911952,10.03,197.1,0,0.0,0,0.0,0.6683,1,0.43,1.3207
79263,1560687025492,1,2.3,2.06,3.3,1.77,2.85,0.79,-0.02,0.51,-7,-0,-9,0.79,1989,74,80,35,99,1498,101.0,198,465,60,123.0,300,1,222,436,30,0,0,101,2048,250,100,,,,,,,,,,,,
79283,1560687025512,1,2.31,2.07,3.29,1.77,2.84,0.81,-0.02,0.52,-6,1,-7,0.81,2025,74,80,35,98,1498,101.0,196,450,60,120.0,300,1,221,409,30,0,0,101,2048,250,101,,,,,,,,,,,,
79303,1560687025532,5,2.33,2.07,3.28,1.77,2.85,0.8,-0.0,0.57,-5,1,-7,0.8,2054,75,80,35,98,1498,101.0,198,460,60,123.0,300,1,222,411,30,0,0,100,2048,2048,101,,,,,,,,,,,,
79323,1560687025552,-0,2.33,2.06,3.28,1.77,2.84,0.82,-0.02,0.54,-4,-0,-6,0.82,2106,75,80,35,98,1498,101.0,202,464,60,120.0,300,1,224,415,30,0,0,99,-1483,2048,101,,,,,,,,,,,,
79343,1560687025572,1,2.34,2.07,3.28,1.77,2.85,0.76,-0.02,0.54,-3,2,-5,0.76,2130,75,80,35,98,1498,101.0,201,463,60,122.0,300,1,225,417,30,0,0,98,-1483,2048,101,45.70142,4.911955,10.09,197.1,0,0.0,0,0.0,0.67,1,0.43,1.3224
79363,1560687025592,0,2.35,2.06,3.27,1.79,2.85,0.74,-0.03,0.5,-3,2,-5,0.74,2138,75,80,35,99,1498,101.0,203,457,60,123.0,326,1,227,447,33,0,0,98,-1483,250,101,,,,,,,,,,,,
79383,1560687025612,1,2.34,2.07,3.27,1.79,2.85,0.75,-0.02,0.54,-2,4,-5,0.75,2240,75,80,35,98,1498,101.0,206,461,60,123.0,326,1,229,423,33,0,0,98,-1483,250,101,,,,,,,,,,,,
79403,1560687025632,0,2.35,2.06,3.26,1.8,2.85,0.74,-0.03,0.5,-2,1,-4,0.74,2283,75,80,35,98,1498,101.0,212,460,60,123.0,326,1,231,458,33,0,0,98,13736,2048,101,,,,,,,,,,,,
79423,1560687025652,3,2.37,2.06,3.24,1.8,2.85,0.65,-0.04,0.54,-1,4,-3,0.65,2436,75,80,35,98,1498,101.0,215,464,60,122.0,326,1,237,437,33,0,0,97,-22528,2048,101,,,,,,,,,,,,
79443,1560687025672,0,2.37,2.06,3.23,1.84,2.85,0.72,-0.03,0.57,-0,6,-3,0.72,2497,75,80,35,98,1498,101.0,219,455,60,120.0,326,1,239,441,33,0,0,100,13736,2048,101,45.701416,4.911958,9.96,197.1,0,0.0,0,0.0,0.6717,1,0.43,1.324
79463,1560687025691,-1,2.37,2.07,3.19,1.9,2.83,0.72,-0.02,0.67,-0,3,-2,0.72,2406,75,80,35,99,1498,102.0,222,457,60,122.0,401,1,236,467,41,0,0,100,2048,13838,102,,,,,,,,,,,,
79483,1560687025711,-1,2.37,2.09,3.14,1.98,2.77,0.66,-0.05,0.72,0,2,-1,0.67,2269,75,80,35,98,1498,107.0,221,454,60,122.0,401,1,230,425,41,0,0,107,2048,-1482,107,,,,,,,,,,,,
79503,1560687025731,-1,2.37,2.13,3.1,2.05,2.71,0.65,-0.02,0.74,1,3,-1,0.65,2191,75,80,35,99,1498,112.0,217,453,60,122.0,401,1,228,451,41,0,0,112,13838,250,112,,,,,,,,,,,,
79523,1560687025751,-2,2.38,2.15,3.06,2.11,2.67,0.69,-0.04,0.73,1,2,-1,0.69,2053,75,80,35,98,1498,116.0,217,453,60,120.0,401,1,222,411,41,0,0,116,-1482,13856,116,,,,,,,,,,,,
79543,1560687025771,3,2.37,2.16,3.06,2.12,2.67,0.66,-0.04,0.73,1,4,-0,0.66,2021,68,80,35,98,1498,119.0,211,466,60,123.0,401,1,220,409,41,0,0,117,13850,-1482,119,45.701416,4.911961,9.81,197.1,0,0.0,0,0.0,0.6733,1,0.43,1.3257
79563,1560687025791,-1,2.38,2.16,3.06,2.12,2.7,0.65,-0.05,0.75,1,-1,1,0.65,2044,58,80,35,98,1498,121.0,209,461,60,123.0,260,1,221,411,31,0,0,118,250,9728,121,,,,,,,,,,,,
79583,1560687025811,-1,2.38,2.14,3.11,2.11,2.75,0.68,-0.07,0.75,1,0,2,0.69,2160,49,80,35,97,1498,121.0,208,454,60,123.0,260,1,221,402,31,0,0,119,8192,13862,121,,,,,,,,,,,,
79603,1560687025831,-0,2.37,2.14,3.14,2.11,2.79,0.66,-0.06,0.79,2,-1,2,0.66,2214,42,80,35,97,1498,124.0,210,454,60,123.0,260,1,223,404,31,0,0,121,13856,250,124,,,,,,,,,,,,
79623,1560687025851,-0,2.38,2.14,3.14,2.11,2.79,0.69,-0.04,0.76,2,-1,2,0.69,2274,36,80,35,95,1498,126.0,211,453,60,122.0,260,1,216,374,31,0,0,122,250,250,126,,,,,,,,,,,,
79643,1560687025871,-0,2.38,2.13,3.14,2.1,2.79,0.66,-0.04,0.77,2,-3,2,0.66,2269,33,80,35,96,1498,126.0,212,455,60,123.0,260,1,221,390,31,0,0,123,9728,250,126,45.701412,4.911963,10.62,197.1,0,0.0,0,0.0,0.675,1,0.43,1.3274
79663,1560687025891,4,2.39,2.13,3.13,2.1,2.78,0.65,-0.05,0.75,3,1,3,0.65,2410,32,80,35,94,1498,128.0,216,455,60,123.0,261,1,217,360,33,0,0,124,-1482,13868,128,,,,,,,,,,,,
79683,1560687025907,-1,2.4,2.12,3.13,2.1,2.78,0.73,-0.04,0.79,3,-1,2,0.73,2524,32,80,35,93,1498,130.0,222,453,60,120.0,261,1,215,366,33,0,0,127,-1482,-1,130,,,,,,,,,,,,
79703,1560687025927,-0,2.41,2.12,3.13,2.11,2.77,0.7,-0.06,0.82,3,-2,3,0.7,2491,32,80,35,94,1498,132.0,222,455,60,123.0,261,1,219,363,33,0,0,129,250,-1,132,,,,,,,,,,,,
79723,1560687025947,-0,2.43,2.12,3.12,2.11,2.77,0.67,-0.09,0.81,4,0,2,0.68,2406,31,80,35,93,1498,134.0,223,462,60,122.0,261,1,212,341,33,0,0,130,11264,-1,134,,,,,,,,,,,,
79743,1560687025967,-1,2.43,2.11,3.12,2.13,2.77,0.71,-0.1,0.78,4,-2,3,0.72,2410,31,80,35,93,1498,135.0,225,462,60,122.0,261,1,212,341,33,0,0,133,-202,-1,135,45.701412,4.911966,12.04,197.1,0,0.0,0,0.0,0.6767,1,0.43,1.3291
79763,1560687025987,-0,2.42,2.1,3.13,2.11,2.77,0.68,-0.11,0.81,4,-2,4,0.68,2511,31,80,35,93,1498,136.0,225,461,60,123.0,229,1,215,344,31,0,0,133,-1,-1,136,,,,,,,,,,,,
79783,1560687026005,3,2.44,2.09,3.12,2.12,2.76,0.64,-0.09,0.78,4,3,4,0.64,2590,31,80,35,92,1490,137.0,230,458,60,122.0,229,1,212,331,31,0,0,134,-1,-1,137,,,,,,,,,,,,
79803,1560687026025,0,2.44,2.09,3.13,2.1,2.78,0.74,-0.08,0.77,4,1,4,0.74,2537,31,80,35,92,1482,140.0,232,460,60,122.0,229,1,210,326,31,0,0,135,-1,250,140,,,,,,,,,,,,
79823,1560687026045,-3,2.46,2.09,3.13,2.11,2.78,0.72,-0.1,0.8,5,-4,5,0.73,2518,31,80,35,93,1474,141.0,232,458,60,123.0,229,1,215,345,31,0,0,135,-1,5120,141,,,,,,,,,,,,
79843,1560687026065,10,2.48,2.09,3.13,2.1,2.77,0.64,-0.14,0.78,5,2,5,0.65,2613,30,80,35,92,1465,142.0,233,462,60,123.0,229,1,213,333,31,0,0,137,-1,5140,142,45.701408,4.91197,12.69,197.2,0,0.0,0,0.0,0.6783,1,0.43,1.3307
79863,1560687026092,-1,2.51,2.09,3.13,2.12,2.76,0.71,-0.11,0.77,6,2,5,0.72,2622,28,80,35,91,1442,144.0,235,453,60,122.0,208,1,208,334,30,0,0,137,-1,5140,144,,,,,,,,,,,,
79883,1560687026112,-0,2.53,2.09,3.17,2.11,2.76,0.78,-0.14,0.79,6,-4,7,0.79,2602,26,80,35,91,1419,145.0,236,460,60,122.0,208,1,208,312,30,0,0,137,-1,-1,145,,,,,,,,,,,,
79903,1560687026132,0,2.56,2.07,3.2,2.1,2.75,0.67,-0.2,0.81,7,-5,8,0.7,2637,25,80,35,91,1401,147.0,236,458,60,122.0,208,1,209,314,30,0,0,136,-1,-1,147,,,,,,,,,,,,
79923,1560687026152,-0,2.6,2.05,3.22,2.1,2.75,0.65,-0.23,0.79,8,6,6,0.69,2702,25,80,35,90,1386,150.0,238,465,60,123.0,208,1,208,297,30,0,0,138,-1,-1,150,,,,,,,,,,,,
79943,1560687026172,3,2.63,2.04,3.26,2.11,2.74,0.75,-0.19,0.73,9,5,7,0.78,2649,24,80,35,89,1366,153.0,238,459,60,122.0,208,1,205,285,30,0,0,140,-1,-1281,153,45.701405,4.911972,13.35,197.1,0,0.0,0,0.0,0.68,1,0.43,1.3324
79963,1560687026191,0,2.66,2.03,3.28,2.11,2.72,0.81,-0.21,0.74,9,-4,10,0.83,2636,24,80,35,89,1346,154.0,242,460,60,122.0,183,1,205,289,28,0,0,138,-1,-1281,154,,,,,,,,,,,,
79983,1560687026211,0,2.68,2.03,3.29,2.11,2.73,0.71,-0.24,0.79,10,-7,12,0.75,2663,24,80,35,89,1337,155.0,241,457,60,123.0,183,1,206,290,28,0,0,135,-1,250,155,,,,,,,,,,,,
80003,1560687026231,0,2.7,2.03,3.3,2.1,2.73,0.66,-0.28,0.75,11,-0,12,0.72,2796,24,80,35,88,1332,157.0,243,461,60,122.0,183,1,211,292,28,0,0,134,-1,-23552,157,,,,,,,,,,,,
80023,1560687026251,-1,2.73,2.03,3.33,2.11,2.73,0.72,-0.26,0.7,12,8,11,0.76,2725,24,80,35,87,1332,161.0,246,465,60,123.0,183,1,209,285,28,0,0,136,-1,-165,161,,,,,,,,,,,,
80043,1560687026271,2,2.75,2.03,3.35,2.1,2.73,0.79,-0.25,0.64,13,3,13,0.83,2644,24,80,35,87,1333,160.0,242,460,60,123.0,183,1,205,281,28,0,0,136,-1,-1,160,45.701401,4.911976,14.19,197.1,0,0.0,0,0.0,0.6817,1,0.43,1.334
80063,1560687026291,-1,2.76,2.03,3.37,2.1,2.72,0.8,-0.3,0.63,14,-6,17,0.85,2721,24,80,35,87,1339,162.0,245,461,60,120.0,181,1,208,285,29,0,0,137,-1,-1,162,,,,,,,,,,,,
80083,1560687026311,-2,2.78,2.03,3.39,2.1,2.72,0.71,-0.34,0.69,15,-8,20,0.79,2766,24,80,35,87,1345,163.0,246,459,60,124.0,181,1,210,287,29,0,0,135,-1,-1,163,,,,,,,,,,,,
80103,1560687026331,0,2.77,2.03,3.39,2.09,2.71,0.65,-0.35,0.71,16,-3,20,0.74,2727,24,80,35,87,1360,165.0,246,459,60,122.0,181,1,209,285,29,0,0,136,-1,-1281,165,,,,,,,,,,,,
80123,1560687026351,0,2.79,2.02,3.4,2.08,2.71,0.73,-0.36,0.68,17,5,18,0.81,2714,24,80,35,86,1379,165.0,245,464,60,123.0,181,1,208,281,29,0,0,135,-1,-1281,165,,,,,,,,,,,,
80143,1560687026371,0,2.79,2.01,3.38,2.06,2.71,0.76,-0.32,0.64,18,7,19,0.82,2881,24,80,35,86,1393,167.0,247,460,60,122.0,181,1,215,287,29,0,0,136,-1,10764,167,45.701401,4.911979,14.62,197.2,0,0.0,0,0.0,0.6833,1,0.43,1.3357
80163,1560687026391,5,2.82,2.01,3.36,2.08,2.7,0.78,-0.31,0.64,18,3,21,0.84,2853,24,80,35,85,1405,167.0,249,465,60,122.0,185,1,214,281,31,0,0,136,-1,-1494,168,,,,,,,,,,,,
80183,1560687026411,2,2.85,2.01,3.36,2.07,2.68,0.77,-0.33,0.64,19,-4,21,0.83,2753,24,80,35,85,1422,168.0,252,453,60,122.0,185,1,210,278,31,0,0,138,-1,10764,168,,,,,,,,,,,,
80203,1560687026431,-2,2.89,2.02,3.36,2.08,2.68,0.73,-0.36,0.64,20,-5,22,0.82,2772,24,80,35,85,1444,170.0,252,460,60,120.0,185,1,210,278,31,0,0,137,-1,250,170,,,,,,,,,,,,
80223,1560687026451,-2,2.92,2.0,3.36,2.08,2.68,0.72,-0.4,0.63,21,-7,24,0.82,2995,24,80,35,85,1461,170.0,255,458,60,121.0,185,1,219,285,31,0,0,134,-1,30720,171,,,,,,,,,,,,
80243,1560687026471,0,0.34,1.99,3.39,2.09,2.69,0.71,-0.46,0.64,22,-8,26,0.84,2900,24,80,35,84,1470,173.0,259,456,60,121.0,185,1,216,286,31,0,0,140,-1,888,173,45.701397,4.911982,14.99,197.2,0,0.0,0,0.0,0.685,1,0.43,1.3374
80263,1560687026491,-0,0.35,1.97,3.42,2.1,2.69,0.73,-0.44,0.63,24,-6,27,0.85,2826,24,80,35,84,1481,176.0,256,460,60,123.0,173,1,213,280,30,0,0,149,-1,-253,176,,,,,,,,,,,,
80283,1560687026511,-2,0.39,1.96,3.43,2.11,2.68,0.77,-0.46,0.64,25,-2,29,0.9,2773,24,80,35,85,1491,178.0,255,458,60,123.0,173,1,210,278,30,0,0,152,-1281,-253,178,,,,,,,,,,,,
80303,1560687026531,-1,0.4,1.94,3.45,2.11,2.69,0.75,-0.47,0.62,25,0,31,0.89,2971,23,80,35,84,1498,178.0,257,464,60,122.0,173,1,218,279,30,0,0,137,-1281,-1,178,,,,,,,,,,,,
80323,1560687026551,-2,0.41,1.95,3.45,2.12,2.68,0.77,-0.47,0.6,26,4,32,0.9,3020,23,80,35,84,1498,179.0,260,461,60,123.0,173,1,220,282,30,0,0,132,-1,-1,179,,,,,,,,,,,,
80343,1560687026571,-0,0.41,1.95,3.45,2.11,2.68,0.78,-0.49,0.59,27,5,33,0.92,2866,23,80,34,84,1498,182.0,260,460,60,122.0,173,1,214,278,30,0,0,140,-1281,-1281,182,45.701393,4.911985,14.91,197.2,0,0.0,0,0.0,0.6867,1,0.43,1.3391
80363,1560687026591,-2,0.42,1.95,3.44,2.11,2.68,0.76,-0.49,0.53,29,7,35,0.91,2801,22,80,34,83,1498,181.0,259,460,60,123.0,159,1,212,274,29,0,0,143,5120,-1281,181,,,,,,,,,,,,
80383,1560687026611,0,0.41,1.95,3.45,2.12,2.66,0.77,-0.46,0.56,29,6,37,0.9,2935,21,80,34,83,1498,183.0,258,457,60,122.0,159,1,217,276,29,0,0,139,5120,-1281,183,,,,,,,,,,,,
80403,1560687026631,-0,0.42,1.95,3.45,2.11,2.66,0.75,-0.47,0.56,30,5,37,0.88,3015,21,80,34,83,1498,183.0,265,462,60,123.0,159,1,220,278,29,0,0,132,250,31744,183,,,,,,,,,,,,
80423,1560687026651,4,0.41,1.95,3.45,2.09,2.66,0.73,-0.47,0.58,31,2,37,0.86,2893,21,80,34,82,1498,185.0,261,460,60,122.0,159,1,208,273,29,0,0,141,5120,31744,185,,,,,,,,,,,,
80443,1560687026671,4,0.41,1.95,3.45,2.1,2.66,0.75,-0.46,0.54,31,-1,38,0.88,2833,20,80,34,82,1498,186.0,262,457,60,122.0,159,1,205,272,29,0,0,148,5120,10620,186,45.701389,4.911987,15.4,197.2,0,0.0,0,0.0,0.6883,1,0.44,1.3407
80463,1560687026692,4,0.42,1.94,3.45,2.1,2.66,0.8,-0.47,0.53,32,-4,40,0.93,2957,20,80,34,82,1498,186.0,261,457,60,122.0,155,1,213,276,29,0,0,139,-236,250,186,,,,,,,,,,,,
80483,1560687026712,3,0.42,1.96,3.45,2.1,2.66,0.82,-0.44,0.57,32,-8,42,0.93,3041,20,80,34,81,1498,186.0,265,458,60,122.0,155,1,213,279,29,0,0,136,-236,-1495,186,,,,,,,,,,,,
80503,1560687026732,4,0.42,1.95,3.44,2.1,2.66,0.83,-0.49,0.63,32,-11,44,0.96,2950,20,80,34,81,1498,188.0,266,460,60,123.0,155,1,207,275,29,0,0,136,-236,3584,188,,,,,,,,,,,,
80523,1560687026752,2,0.41,1.95,3.44,2.09,2.67,0.87,-0.5,0.67,33,-14,45,1.01,2941,19,80,34,81,1498,189.0,265,460,60,123.0,155,1,206,274,29,0,0,137,-1,3584,189,,,,,,,,,,,,
80543,1560687026772,1,0.42,1.95,3.44,2.09,2.65,0.88,-0.54,0.71,33,-16,47,1.03,3045,19,80,34,80,1498,189.0,265,458,60,122.0,155,1,209,279,29,0,0,140,-1,-236,189,45.701386,4.911989,15.68,197.2,0,0.0,0,0.0,0.69,1,0.44,1.3424
80563,1560687026792,3,0.42,1.95,3.45,2.09,2.64,0.88,-0.56,0.74,34,-19,46,1.04,3057,19,80,34,80,1498,190.0,270,455,60,122.0,168,1,210,280,32,0,0,150,-1,-1,190,,,,,,,,,,,,
80583,1560687026812,4,0.42,1.96,3.47,2.09,2.64,0.91,-0.56,0.7,34,-20,46,1.07,3008,19,80,34,80,1498,190.0,266,457,60,122.0,168,1,207,278,32,0,0,156,-1,5134,190,,,,,,,,,,,,
80603,1560687026832,5,0.41,1.96,3.48,2.08,2.65,0.9,-0.54,0.63,34,-21,47,1.05,3131,19,80,34,80,1496,190.0,272,461,60,123.0,168,1,215,286,32,0,0,140,-1,5134,190,,,,,,,,,,,,
80623,1560687026852,-2,0.42,1.96,3.47,2.09,2.65,0.89,-0.49,0.6,35,-17,48,1.01,3238,19,80,34,79,1493,192.0,275,463,60,124.0,168,1,219,291,32,0,0,148,-1,5134,192,,,,,,,,,,,,
80643,1560687026872,0,0.42,1.95,3.48,2.1,2.64,0.88,-0.51,0.56,35,-13,48,1.02,3159,19,80,34,79,1490,191.0,281,461,60,123.0,168,1,214,286,32,0,0,165,-1,-1,193,45.701382,4.91199,16.02,197.1,0,0.0,0,0.0,0.6917,1,0.44,1.344
80663,1560687026892,-0,0.41,1.96,3.48,2.09,2.64,0.86,-0.52,0.57,35,-10,48,1.01,3164,18,80,34,79,1488,192.0,278,462,60,123.0,170,1,214,284,33,0,0,174,-1,-1,192,,,,,,,,,,,,
80683,1560687026912,-2,0.42,1.96,3.47,2.09,2.62,0.88,-0.54,0.57,35,-6,48,1.03,3284,18,80,34,78,1470,192.0,285,457,60,122.0,170,1,221,290,33,0,0,152,-1,-1,194,,,,,,,,,,,,
80703,1560687026932,2,0.42,1.96,3.47,2.08,2.63,0.9,-0.52,0.58,36,-8,48,1.04,3294,18,80,34,77,1451,193.0,286,460,60,120.0,170,1,220,286,33,0,0,157,-1,-1,193,,,,,,,,,,,,
80723,1560687026952,5,0.41,1.96,3.47,2.09,2.62,0.88,-0.54,0.59,36,-13,48,1.03,3259,17,80,34,76,1435,195.0,285,460,60,122.0,170,1,215,282,33,0,0,170,-1,-1,196,,,,,,,,,,,,
80743,1560687026972,0,0.4,1.96,3.48,2.08,2.63,0.88,-0.5,0.54,37,-11,47,1.01,3324,17,80,34,76,1420,196.0,289,462,60,123.0,170,1,222,283,33,0,0,181,-1281,-1,196,45.701378,4.911991,16.17,197.2,0,0.0,0,0.0,0.6933,1,0.44,1.3457
80763,1560687026992,1,0.4,1.96,3.47,2.09,2.61,0.88,-0.5,0.5,37,-7,47,1.01,3366,17,80,34,76,1392,197.0,292,457,60,123.0,182,1,226,284,36,0,0,190,-1281,-1,198,,,,,,,,,,,,
80783,1560687027006,0,0.41,1.95,3.47,2.08,2.63,0.86,-0.51,0.53,37,-9,48,1.0,3441,17,80,34,75,1363,198.0,298,458,60,122.0,182,1,233,285,36,0,0,182,250,-1,198,,,,,,,,,,,,
80803,1560687027026,-2,0.4,1.95,3.46,2.09,2.62,0.87,-0.52,0.57,37,-9,49,1.01,3422,17,80,34,75,1346,197.0,295,459,60,123.0,182,1,231,282,36,0,0,163,250,-1,198,,,,,,,,,,,,
80823,1560687027046,0,0.38,1.96,3.45,2.09,2.62,0.83,-0.5,0.57,37,-6,48,0.97,3446,16,80,34,75,1333,199.0,301,465,60,123.0,182,1,233,282,36,0,0,169,23460,-1,199,,,,,,,,,,,,
80843,1560687027066,-0,0.38,1.97,3.44,2.1,2.62,0.8,-0.49,0.58,37,-5,47,0.94,3466,16,80,34,74,1309,200.0,302,457,60,123.0,182,1,235,283,36,0,0,180,23460,-1,200,45.701374,4.911991,16.72,197.2,0,0.0,0,0.0,0.695,1,0.44,1.3474
80863,1560687027092,6,0.35,1.97,3.43,2.1,2.61,0.81,-0.52,0.55,37,-8,47,0.96,3465,16,80,34,74,1283,200.0,303,457,60,123.0,180,1,235,280,36,0,0,198,-165,-1,200,,,,,,,,,,,,
80883,1560687027112,-2,0.33,1.98,3.44,2.11,2.61,0.85,-0.46,0.52,37,-8,47,0.97,3518,16,80,34,73,1266,200.0,303,463,60,123.0,180,1,242,280,36,0,0,186,-1,-1,200,,,,,,,,,,,,
80903,1560687027132,1,2.9,1.96,3.44,2.1,2.62,0.86,-0.49,0.54,37,-6,47,0.99,3541,16,80,34,73,1253,201.0,307,458,60,121.0,180,1,247,281,36,0,0,184,-1,-1,201,,,,,,,,,,,,
80923,1560687027152,-0,2.87,1.97,3.44,2.1,2.62,0.83,-0.53,0.6,37,-8,49,0.99,3568,16,80,34,73,1230,202.0,311,458,60,123.0,180,1,247,283,36,0,0,194,250,-1281,202,,,,,,,,,,,,
80943,1560687027172,-1,2.83,1.98,3.41,2.09,2.61,0.78,-0.47,0.64,36,-5,47,0.91,3580,16,80,34,72,1205,202.0,308,462,60,123.0,180,1,249,281,36,0,0,188,250,-1281,202,45.70137,4.91199,16.77,197.1,0,0.0,0,0.0,0.6967,1,0.44,1.3491
80963,1560687027192,2,2.81,2.01,3.39,2.1,2.62,0.79,-0.43,0.62,36,-3,47,0.9,3605,16,80,34,72,1186,201.0,317,455,60,121.0,189,1,252,283,38,0,0,190,-1494,-2560,201,,,,,,,,,,,,
80983,1560687027212,-0,2.77,2.07,3.35,2.09,2.61,0.81,-0.4,0.64,35,-5,45,0.9,3574,16,80,34,71,1174,200.0,314,461,60,124.0,189,1,248,278,38,0,0,184,250,-2560,200,,,,,,,,,,,,
81003,1560687027232,-2,2.75,2.11,3.32,2.09,2.61,0.77,-0.41,0.61,34,-4,43,0.87,3510,16,80,34,71,1154,200.0,315,455,60,123.0,189,1,241,275,38,0,0,171,888,14326,200,,,,,,,,,,,,
81023,1560687027252,2,2.71,2.12,3.32,2.1,2.61,0.74,-0.41,0.61,33,-6,43,0.84,3382,16,80,34,71,1127,201.0,308,456,60,121.0,189,1,223,271,38,0,0,182,-1,14326,202,,,,,,,,,,,,
81043,1560687027272,-0,2.66,2.12,3.32,2.1,2.62,0.78,-0.39,0.66,32,-7,43,0.87,3297,15,80,34,71,1106,201.0,302,457,60,123.0,189,1,211,268,38,0,0,179,-1281,14326,201,45.701366,4.911988,17.28,197.1,0,0.0,0,0.0,0.6983,1,0.44,1.3507
81063,1560687027292,-1,2.64,2.12,3.32,2.08,2.64,0.81,-0.37,0.72,31,-8,42,0.89,3229,15,80,33,71,1090,201.0,298,462,60,123.0,164,1,202,266,33,0,0,166,250,-1481,201,,,,,,,,,,,,
81083,1560687027312,-0,2.6,2.12,3.33,2.05,2.69,0.77,-0.34,0.66,30,-6,40,0.84,3239,15,80,33,71,1067,202.0,290,463,60,123.0,164,1,203,266,33,0,0,167,-1281,-1481,202,,,,,,,,,,,,
81103,1560687027332,0,2.58,2.11,3.33,2.03,2.7,0.73,-0.31,0.62,29,-3,39,0.79,3365,15,80,33,71,1034,200.0,298,458,60,123.0,164,1,221,270,33,0,0,168,250,14412,200,,,,,,,,,,,,
81123,1560687027352,4,2.58,2.1,3.32,2.01,2.71,0.74,-0.32,0.62,29,-6,38,0.8,3481,15,80,33,71,1007,199.0,300,457,60,122.0,164,1,236,274,33,0,0,169,250,14326,199,,,,,,,,,,,,
81143,1560687027372,-1,2.58,2.1,3.33,2.01,2.7,0.73,-0.32,0.62,28,-5,35,0.79,3474,15,80,33,70,990,197.0,306,463,60,123.0,164,1,235,271,33,0,0,172,10620,250,197,45.701359,4.911986,18.07,197.1,0,0.0,0,0.0,0.7,1,0.44,1.3524
81163,1560687027392,-0,2.58,2.1,3.32,2.02,2.69,0.7,-0.31,0.54,27,-2,34,0.76,3541,15,80,33,70,967,197.0,306,456,60,123.0,182,1,244,275,36,0,0,173,10620,-1481,197,,,,,,,,,,,,
81183,1560687027412,-1,2.57,2.09,3.33,2.01,2.69,0.75,-0.31,0.57,26,-2,33,0.81,3616,15,80,33,70,938,199.0,313,456,60,122.0,182,1,253,278,36,0,0,176,-1495,-1481,199,,,,,,,,,,,,
81203,1560687027432,-0,2.56,2.1,3.32,2.02,2.69,0.73,-0.27,0.59,25,-2,32,0.78,3573,15,80,33,70,913,199.0,314,461,60,123.0,182,1,248,277,36,0,0,178,-1495,250,199,,,,,,,,,,,,
81223,1560687027452,1,2.57,2.09,3.32,2.03,2.68,0.69,-0.27,0.62,24,-3,32,0.74,3539,14,80,33,69,901,200.0,314,459,60,120.0,182,1,244,273,36,0,0,180,5134,19456,200,,,,,,,,,,,,
81243,1560687027472,0,2.56,2.08,3.32,2.05,2.69,0.71,-0.27,0.66,24,-3,31,0.76,3491,13,80,33,68,887,201.0,313,458,60,123.0,182,1,238,267,36,0,0,179,-236,14412,200,45.701359,4.911984,18.4,197.1,0,0.0,0,0.0,0.7017,1,0.44,1.3541
81263,1560687027492,-0,2.54,2.09,3.31,2.06,2.7,0.72,-0.24,0.65,23,0,29,0.76,3430,13,80,33,68,866,201.0,309,460,60,123.0,170,1,228,265,34,0,0,182,-1,250,201,,,,,,,,,,,,
81283,1560687027512,-0,2.53,2.09,3.31,2.05,2.7,0.7,-0.24,0.59,23,1,28,0.74,3396,12,80,33,68,850,202.0,308,459,60,122.0,170,1,223,263,34,0,0,178,-1,250,202,,,,,,,,,,,,
81303,1560687027532,5,2.51,2.08,3.31,2.05,2.71,0.71,-0.27,0.6,22,-3,28,0.76,3332,12,80,33,67,842,202.0,303,456,60,122.0,170,1,212,258,34,0,0,179,-236,250,202,,,,,,,,,,,,
81323,1560687027552,-1,2.51,2.06,3.32,2.04,2.74,0.74,-0.25,0.6,22,-4,28,0.78,3321,12,80,33,67,834,202.0,301,462,60,123.0,170,1,210,257,34,0,0,177,-1,-1481,202,,,,,,,,,,,,
81343,1560687027572,-2,2.49,2.06,3.32,2.05,2.73,0.73,-0.22,0.59,22,-0,26,0.76,3345,12,80,33,67,826,202.0,298,462,60,123.0,170,1,214,258,34,0,0,179,-1,14412,202,45.701355,4.911981,18.53,197.1,0,0.0,0,0.0,0.7033,1,0.44,1.3557
81363,1560687027592,-1,2.47,2.06,3.32,2.05,2.73,0.7,-0.23,0.57,21,0,25,0.74,3386,12,80,33,67,819,200.0,301,457,60,123.0,164,1,220,260,33,0,0,179,-1,250,200,,,,,,,,,,,,
81383,1560687027612,3,2.44,2.06,3.32,2.04,2.74,0.72,-0.25,0.57,20,-2,26,0.76,3388,11,80,33,66,819,200.0,300,457,60,120.0,164,1,221,257,33,0,0,179,-1,14326,200,,,,,,,,,,,,
81403,1560687027632,0,2.42,2.05,3.3,2.03,2.74,0.76,-0.23,0.6,19,-4,25,0.8,3419,11,80,33,66,819,197.0,299,462,60,123.0,164,1,226,258,33,0,0,180,-1,250,197,,,,,,,,,,,,
81423,1560687027652,-0,2.38,2.06,3.3,2.02,2.73,0.75,-0.17,0.6,18,-1,23,0.77,3464,11,80,33,66,818,196.0,301,460,60,123.0,164,1,233,260,33,0,0,181,-1,-1481,196,,,,,,,,,,,,
81443,1560687027672,3,2.37,2.05,3.29,2.03,2.75,0.71,-0.16,0.59,16,-0,21,0.73,3503,11,80,33,65,816,194.0,308,455,60,120.0,164,1,240,262,33,0,0,182,-1,250,194,45.701347,4.911978,19.09,197.1,0,0.0,0,0.0,0.705,1,0.44,1.3574
81463,1560687027693,-0,2.35,2.07,3.27,2.02,2.75,0.79,-0.15,0.59,15,-2,21,0.81,3483,11,80,33,65,816,194.0,307,461,60,122.0,175,1,236,258,34,0,0,183,-1,250,194,,,,,,,,,,,,
81483,1560687027713,0,2.32,2.08,3.27,2.0,2.76,0.78,-0.11,0.56,14,-0,20,0.79,3516,11,80,33,65,815,192.0,310,460,60,123.0,175,1,241,259,34,0,0,184,-1,250,192,,,,,,,,,,,,
81503,1560687027733,4,2.29,2.07,3.26,1.99,2.75,0.75,-0.13,0.58,13,-2,19,0.76,3543,11,80,33,64,813,191.0,312,454,60,120.0,175,1,244,261,34,0,0,184,-1,-1,191,,,,,,,,,,,,
81523,1560687027753,1,2.27,2.07,3.25,1.97,2.76,0.79,-0.1,0.61,12,-3,18,0.79,3504,11,80,33,64,811,189.0,311,461,60,122.0,175,1,240,256,34,0,0,185,-1,-1,189,,,,,,,,,,,,
81543,1560687027773,-1,2.26,2.07,3.24,1.95,2.76,0.83,-0.05,0.59,11,1,16,0.83,3517,11,80,33,64,810,189.0,312,460,60,123.0,175,1,241,257,34,0,0,186,-1,-1,189,45.701344,4.911974,19.11,197.1,0,0.0,0,0.0,0.7067,1,0.44,1.3591
81563,1560687027791,5,2.22,2.08,3.24,1.94,2.77,0.84,-0.04,0.59,9,-1,15,0.84,3539,11,80,33,64,809,187.0,314,459,60,121.0,181,1,243,258,34,0,0,186,-1,-1,187,,,,,,,,,,,,
81583,1560687027811,-2,2.21,2.08,3.24,1.92,2.8,0.86,-0.07,0.63,8,-5,13,0.86,3496,11,80,33,64,805,187.0,312,465,60,123.0,181,1,239,255,34,0,0,188,-1,-1,185,,,,,,,,,,,,
81603,1560687027831,-1,2.18,2.09,3.21,1.92,2.82,0.84,-0.02,0.61,6,-1,11,0.84,3443,11,80,33,64,801,188.0,306,463,60,123.0,181,1,229,253,34,0,0,188,-1,-1,184,,,,,,,,,,,,
81623,1560687027851,2,2.15,2.11,3.2,1.91,2.83,0.84,-0.01,0.6,5,-1,9,0.84,3460,11,80,33,64,797,189.0,312,454,60,120.0,181,1,232,254,34,0,0,189,-1,-1,184,,,,,,,,,,,,
81643,1560687027871,-1,2.13,2.11,3.2,1.9,2.88,0.86,0.0,0.6,4,-4,8,0.86,3410,11,80,33,64,794,190.0,307,457,60,123.0,181,1,223,252,34,0,0,190,-1,-1,183,45.70134,4.911971,18.71,197.1,0,0.0,0,0.0,0.7083,1,0.44,1.3607
81663,1560687027891,0,2.11,2.11,3.2,1.89,2.9,0.86,0.03,0.6,2,-3,6,0.86,3335,11,80,33,64,792,191.0,306,462,60,123.0,174,1,211,249,32,0,0,190,-1281,-1,182,,,,,,,,,,,,
81683,1560687027911,-2,2.09,2.11,3.17,1.88,2.9,0.83,0.08,0.53,1,1,4,0.83,3335,11,80,33,65,791,192.0,300,455,60,123.0,174,1,211,252,32,0,0,190,250,3584,181,,,,,,,,,,,,
81703,1560687027931,1,2.09,2.11,3.19,1.89,2.93,0.82,0.07,0.5,0,2,3,0.82,3341,11,80,33,65,790,192.0,301,460,60,122.0,174,1,212,252,32,0,0,189,250,-1,180,,,,,,,,,,,,
81723,1560687027951,5,2.07,2.11,3.19,1.89,2.93,0.83,0.07,0.56,-1,-3,2,0.84,3295,11,80,33,64,792,193.0,300,459,60,123.0,174,1,204,247,32,0,0,192,14326,5134,179,,,,,,,,,,,,
