"Interval"|"ms"|0|0|1,"Utc"|"ms"|0|0|1,"FB_p"|"bar"|0|300|50,"Volant"|"F"|0.0|300.0|50,"xFR"|"mm"|0.0|5.0|50,"xRR"|"mm"|0.0|5.0|50,"xFL"|"mm"|0.0|5.0|50,"xRL"|"mm"|0.0|5.0|50,"AccelX"|"G"|-3.0|3.0|50,"AccelY"|"G"|-3.0|3.0|50,"AccelZ"|"G"|-3.0|3.0|50,"Yaw"|"Deg/Sec"|-120|120|50,"Pitch"|"Deg/Sec"|-120|120|50,"Roll"|"Deg/Sec"|-120|120|50,"Gsum"|"G"|0.0|3.0|50,"RPM"|""|0|14000|50,"TPS"|"%"|0|100|50,"WaterTemp"|"?C"|0|300|50,"AirTemp"|"?C"|-1000|1000|50,"MAP"|"KPa"|0|255|50,"Lambda"|""|0|1024|50,"WheelSpeed"|"MPH"|0.0|150.0|50,"OilPress"|"PSI"|0|150|50,"FuelPress"|"PSI"|0|150|50,"OilTemp"|"F"|0|300|50,"Battery"|"Volts"|0.0|20.0|50,"FuelCon"|"L/h"|-1000|1000|50,"Gear"|""|0|10|50,"Advance"|"Deg"|-360|360|50,"Injection"|"ms"|-1000|1000|50,"FuelCon"|"L/100km"|-1000|1000|50,"LC_But_Pres"|""|-1000|1000|50,"LC_Active"|""|-1000|1000|50,"RD_Speed"|""|-1000|1000|50,"RUD_Speed"|""|-1000|1000|50,"LD_Speed"|""|-1000|1000|50,"LUD_Speed"|""|-1000|1000|50,"Latitude"|"Degrees"|-180.0|180.0|10,"Longitude"|"Degrees"|-180.0|180.0|10,"Speed"|"kph"|0.0|150.0|10,"Altitude"|"m"|0.0|4000.0|10,"LapCount"|""|0|0|10,"LapTime"|"Min"|0.0|0.0|10,"Sector"|""|0|0|10,"SectorTime"|"Min"|0.0|0.0|10,"ElapsedTime"|"Min"|0.0|0.0|10,"CurrentLap"|""|0|0|10,"Distance"|"km"|0.0|0.0|10,"SessionTime"|"Min"|0.0|0.0|10
56963,1560687688956,17,2.29,1.92,3.47,1.91,2.94,0.88,0.02,0.11,4,-1,5,0.88,8370,15,77,30,30,945,502.0,634,457,60,122.0,118,1,289,181,61,0,0,425,-9216,-18341,502,,,,,,,,,,,,
56983,1560687688976,14,2.28,1.87,3.49,1.87,2.97,0.83,0.11,0.16,4,-3,5,0.84,8303,15,77,30,30,915,498.0,634,461,60,122.0,118,1,288,179,61,0,0,412,3,18584,498,,,,,,,,,,,,
57003,1560687688996,16,2.28,1.85,3.52,1.85,3.0,0.88,0.08,0.1,4,-3,3,0.89,8106,15,77,30,30,901,495.0,635,455,60,122.0,106,1,285,170,53,0,0,417,-6656,17628,495,,,,,,,,,,,,
57023,1560687689010,17,2.27,1.86,3.48,1.85,2.98,0.79,0.06,0.02,4,-2,3,0.8,7948,15,77,30,30,891,492.0,627,460,60,120.0,106,1,284,166,53,0,0,460,-899,16648,490,,,,,,,,,,,,
57043,1560687689030,10,2.27,1.86,3.45,1.85,2.93,0.8,0.05,0.04,4,-1,4,0.8,7965,15,77,30,31,903,483.0,626,458,60,122.0,106,1,287,166,53,0,0,449,8488,-768,483,45.702118,4.910891,50.32,201.2,0,0.0,0,0.0,0.4217,1,0.31,0.9507
57063,1560687689050,11,2.27,1.84,3.45,1.82,2.94,0.92,0.03,0.05,3,-2,2,0.92,7995,15,77,30,31,923,480.0,634,455,60,122.0,106,1,287,167,53,0,0,432,-23367,13552,480,,,,,,,,,,,,
57083,1560687689070,14,2.25,1.83,3.45,1.79,2.93,0.85,0.01,0.0,3,-2,2,0.85,7995,15,77,30,31,962,472.0,632,458,60,121.0,106,1,287,167,53,0,0,418,-1923,21580,471,,,,,,,,,,,,
57103,1560687689090,7,2.26,1.81,3.45,1.77,2.96,0.85,-0.07,0.0,3,-0,2,0.86,8023,15,77,30,31,1006,470.0,627,457,60,122.0,106,1,287,167,50,0,0,422,-16384,-3414,469,,,,,,,,,,,,
57123,1560687689110,9,2.26,1.81,3.46,1.77,2.96,0.91,0.02,-0.06,3,0,2,0.92,7968,15,77,30,31,1038,466.0,634,454,60,122.0,106,1,287,167,50,0,0,423,16408,3826,466,,,,,,,,,,,,
57143,1560687689130,11,2.25,1.82,3.46,1.76,2.96,0.83,0.09,-0.12,2,1,2,0.83,7944,15,77,30,31,1062,462.0,632,458,60,122.0,106,1,287,167,50,0,0,438,-18108,243,459,45.70211,4.910903,48.29,201.2,0,0.0,0,0.0,0.4233,1,0.32,0.9524
57163,1560687689150,6,2.26,1.83,3.44,1.77,2.96,0.83,0.06,-0.11,2,1,2,0.83,7955,15,77,30,31,1094,456.0,629,460,60,122.0,106,1,287,167,50,0,0,432,14488,13180,455,,,,,,,,,,,,
57183,1560687689170,8,2.26,1.82,3.43,1.77,2.96,0.92,0.05,-0.0,2,0,2,0.93,7958,15,77,30,31,1128,453.0,632,455,60,122.0,106,1,287,167,50,0,0,428,-3267,-3856,450,,,,,,,,,,,,
57203,1560687689190,5,2.26,1.82,3.42,1.76,2.96,0.91,0.02,0.05,1,-0,1,0.91,8023,15,77,30,31,1151,449.0,635,456,60,122.0,111,1,287,166,50,0,0,421,15649,3826,448,,,,,,,,,,,,
57223,1560687689210,2,2.25,1.81,3.43,1.75,2.95,0.83,-0.02,0.1,1,-1,1,0.83,8026,15,77,30,31,1162,448.0,628,458,60,121.0,111,1,287,168,50,0,0,429,10305,3635,445,,,,,,,,,,,,
57243,1560687689230,0,2.25,1.81,3.42,1.75,2.96,0.92,-0.06,0.1,0,0,0,0.92,7995,15,77,30,30,1171,445.0,626,456,60,122.0,111,1,284,166,50,0,0,431,2131,-3856,443,45.702099,4.910916,46.09,201.2,0,0.0,0,0.0,0.425,1,0.32,0.954
57263,1560687689250,3,2.25,1.85,3.38,1.76,2.96,0.82,0.01,0.08,-0,0,-0,0.82,8026,15,77,30,30,1180,443.0,631,458,60,122.0,111,1,284,166,50,0,0,435,-18341,-3856,440,,,,,,,,,,,,
57283,1560687689270,-2,2.25,1.86,3.37,1.75,2.94,0.76,0.05,0.09,-0,1,2,0.76,8050,15,77,30,29,1183,438.0,627,458,60,122.0,111,1,282,167,50,0,0,429,21580,-3856,438,,,,,,,,,,,,
57303,1560687689296,2,2.25,1.89,3.37,1.75,2.94,0.84,0.12,0.14,-1,2,-0,0.85,8033,15,77,30,28,1181,437.0,626,456,60,122.0,114,1,278,164,50,0,0,427,19477,-3856,434,,,,,,,,,,,,
57323,1560687689316,4,2.24,1.92,3.35,1.76,2.93,0.73,0.19,0.12,-1,2,-2,0.75,8050,15,77,30,28,1168,434.0,631,458,60,121.0,114,1,279,166,50,0,0,430,-7939,-4082,432,,,,,,,,,,,,
57343,1560687689336,-2,2.25,1.94,3.33,1.77,2.93,0.75,0.13,0.16,-1,2,-1,0.76,8023,15,77,30,28,1144,433.0,628,458,60,121.0,114,1,278,162,50,0,0,427,243,3826,430,45.702095,4.910927,44.3,201.2,0,0.0,0,0.0,0.4267,1,0.32,0.9557
57363,1560687689356,-0,2.25,1.94,3.34,1.76,2.92,0.8,0.21,0.1,-2,2,-1,0.83,7951,15,77,30,28,1120,431.0,632,457,60,122.0,114,1,278,163,50,0,0,424,1779,-8165,428,,,,,,,,,,,,
57383,1560687689376,3,2.24,1.94,3.34,1.76,2.93,0.73,0.24,0.18,-1,1,-1,0.77,7871,15,77,30,27,1098,430.0,631,459,60,121.0,114,1,274,161,50,0,0,424,-3314,-3414,425,,,,,,,,,,,,
57403,1560687689395,3,2.25,1.94,3.32,1.77,2.92,0.64,0.2,0.18,-0,1,-0,0.67,7841,15,77,30,27,1067,428.0,630,458,60,122.0,112,1,274,161,48,0,0,424,13180,-3414,427,,,,,,,,,,,,
57423,1560687689415,0,2.25,1.95,3.32,1.77,2.92,0.63,0.17,0.13,0,2,0,0.65,7786,15,77,30,26,1024,425.0,628,457,60,122.0,112,1,270,160,48,0,0,416,-3856,-21944,425,,,,,,,,,,,,
57443,1560687689435,2,2.26,1.94,3.32,1.76,2.91,0.75,0.19,0.2,-1,1,-2,0.78,7815,15,77,30,26,987,425.0,628,459,60,122.0,112,1,271,160,48,0,0,417,-3856,7154,422,45.702084,4.910938,43.04,201.2,0,0.0,0,0.0,0.4283,1,0.32,0.9574
57463,1560687689455,2,2.26,1.94,3.33,1.77,2.89,0.84,0.18,0.27,-1,-2,-3,0.85,7767,15,77,30,26,967,424.0,631,455,60,122.0,112,1,270,161,48,0,0,417,3826,-9166,421,,,,,,,,,,,,
57483,1560687689475,4,2.26,1.94,3.33,1.76,2.9,0.84,0.15,0.22,-1,-2,-2,0.86,7754,15,77,30,26,946,420.0,627,457,60,121.0,112,1,270,160,48,0,0,413,-8165,9517,418,,,,,,,,,,,,
57503,1560687689495,8,2.26,1.93,3.34,1.77,2.91,0.74,0.11,0.2,-0,-1,-1,0.75,7681,15,77,30,27,923,418.0,621,459,60,121.0,112,1,272,161,47,0,0,409,-3414,13040,415,,,,,,,,,,,,
57523,1560687689515,10,2.25,1.94,3.34,1.77,2.92,0.61,0.01,0.23,1,1,-1,0.61,7606,15,77,30,27,902,416.0,622,459,60,121.0,112,1,272,161,47,0,0,408,18584,-26615,413,,,,,,,,,,,,
57543,1560687689535,13,2.25,1.94,3.33,1.76,2.92,0.56,0.04,0.21,1,2,-0,0.56,7584,15,77,30,27,898,412.0,624,457,60,121.0,112,1,272,161,47,0,0,406,9517,11545,410,45.702076,4.910948,41.86,201.2,0,0.0,0,0.0,0.43,1,0.32,0.959
57563,1560687689555,11,2.26,1.93,3.33,1.76,2.97,0.59,0.01,0.26,2,2,-1,0.59,7533,15,77,30,27,894,409.0,628,457,60,122.0,112,1,272,161,47,0,0,400,2524,6512,409,,,,,,,,,,,,
57583,1560687689575,13,2.26,1.92,3.34,1.75,2.97,0.62,0.04,0.28,3,2,-2,0.62,7488,15,77,30,27,889,406.0,623,461,60,121.0,112,1,271,161,47,0,0,398,-9211,10541,406,,,,,,,,,,,,
57603,1560687689595,12,2.26,1.92,3.34,1.76,2.94,0.68,-0.03,0.28,2,3,-2,0.68,7419,15,77,30,27,885,403.0,623,456,60,122.0,111,1,271,161,45,0,0,396,-8151,6512,402,,,,,,,,,,,,
57623,1560687689615,12,2.27,1.92,3.33,1.77,2.94,0.68,-0.08,0.27,3,5,-1,0.68,7381,15,77,30,27,883,400.0,619,460,60,121.0,111,1,270,161,45,0,0,394,28696,-32702,399,,,,,,,,,,,,
57643,1560687689635,14,2.25,1.92,3.35,1.78,2.93,0.64,-0.13,0.28,3,5,-1,0.66,7301,15,77,30,28,882,396.0,620,454,60,122.0,111,1,274,161,45,0,0,387,17144,505,397,45.702072,4.910959,40.89,201.2,0,0.0,0,0.0,0.4317,1,0.32,0.9607
57663,1560687689655,9,2.26,1.9,3.35,1.77,2.93,0.54,-0.15,0.26,4,6,-1,0.57,7244,15,77,30,28,882,395.0,616,458,60,121.0,111,1,274,163,45,0,0,388,17144,-6524,394,,,,,,,,,,,,
57683,1560687689675,7,2.27,1.9,3.35,1.77,2.95,0.52,-0.12,0.18,4,6,-2,0.53,7208,15,77,31,28,882,392.0,615,459,60,122.0,111,1,274,163,45,0,0,387,1,-6475,391,,,,,,,,,,,,
57703,1560687689695,7,2.26,1.91,3.35,1.77,2.96,0.64,-0.08,0.18,2,3,-0,0.65,7131,14,77,31,28,883,391.0,613,456,60,123.0,113,1,273,163,44,0,0,386,505,-19019,388,,,,,,,,,,,,
57723,1560687689715,11,2.25,1.91,3.35,1.76,2.96,0.64,-0.12,0.22,2,4,1,0.65,7088,15,77,31,29,885,388.0,611,460,60,121.0,113,1,277,164,44,0,0,379,-31744,-992,385,,,,,,,,,,,,
57743,1560687689735,6,2.26,1.9,3.34,1.78,2.94,0.62,-0.09,0.11,3,4,1,0.63,7046,14,77,31,29,884,383.0,610,453,60,122.0,113,1,277,164,44,0,0,377,-19126,2278,383,45.702061,4.91097,39.62,201.3,0,0.0,0,0.0,0.4333,1,0.32,0.9624
57763,1560687689755,4,2.26,1.9,3.33,1.77,2.95,0.66,-0.06,0.04,3,3,1,0.66,6998,14,77,31,29,885,382.0,609,457,60,122.0,113,1,277,164,44,0,0,376,-18948,-6656,381,,,,,,,,,,,,
57783,1560687689775,11,2.25,1.89,3.34,1.77,2.95,0.79,-0.05,0.14,1,0,1,0.8,7009,14,77,31,29,884,381.0,611,458,60,122.0,113,1,277,166,44,0,0,372,8200,257,377,,,,,,,,,,,,
57803,1560687689795,8,2.26,1.89,3.33,1.77,2.93,0.72,-0.12,0.11,2,2,1,0.73,6965,14,77,31,30,882,377.0,608,458,60,122.0,114,1,281,166,43,0,0,368,3,-6656,377,,,,,,,,,,,,
57823,1560687689815,7,2.24,1.89,3.33,1.78,2.92,0.73,-0.02,0.05,2,1,1,0.73,6908,14,77,31,31,883,374.0,605,457,60,123.0,114,1,285,166,43,0,0,369,-6656,0,372,,,,,,,,,,,,
57843,1560687689835,12,2.25,1.89,3.32,1.78,2.94,0.78,-0.09,0.17,1,-1,0,0.78,6883,14,77,31,31,884,372.0,606,460,60,121.0,114,1,286,167,43,0,0,367,486,0,372,45.702053,4.91098,38.32,201.3,0,0.0,0,0.0,0.435,1,0.32,0.964
57863,1560687689855,8,2.24,1.89,3.33,1.76,2.94,0.82,-0.0,0.1,1,0,0,0.82,6845,14,77,31,31,886,370.0,612,453,60,123.0,114,1,286,167,43,0,0,365,486,-6458,368,,,,,,,,,,,,
57883,1560687689875,13,2.24,1.89,3.34,1.76,2.96,0.83,-0.05,0.2,-0,-1,0,0.83,6754,14,77,31,31,889,367.0,608,460,60,122.0,114,1,286,167,43,0,0,360,0,-29302,364,,,,,,,,,,,,
57903,1560687689895,10,2.24,1.89,3.34,1.77,2.95,0.83,-0.03,0.11,0,1,-0,0.83,6713,14,77,31,32,892,363.0,605,459,60,122.0,116,1,290,169,42,0,0,362,3082,-14707,361,,,,,,,,,,,,
57923,1560687689915,11,2.22,1.9,3.34,1.76,2.94,0.9,-0.03,0.19,-1,-0,-1,0.9,6658,14,77,31,32,896,362.0,599,460,60,121.0,116,1,290,169,42,0,0,359,2790,2060,358,,,,,,,,,,,,
57943,1560687689935,11,2.23,1.89,3.34,1.75,2.96,0.91,0.0,0.19,-0,1,-1,0.91,6611,14,77,31,33,897,359.0,594,457,60,123.0,116,1,292,174,42,0,0,353,-29302,2060,355,45.702049,4.910989,36.92,201.3,0,0.0,0,0.0,0.4367,1,0.32,0.9657
57963,1560687689955,14,2.22,1.89,3.33,1.74,2.95,0.89,-0.08,0.28,-1,1,-1,0.9,6530,14,77,31,33,898,358.0,593,460,60,121.0,116,1,292,174,42,0,0,349,-29978,-30454,351,,,,,,,,,,,,
57983,1560687689975,15,2.21,1.89,3.34,1.72,2.96,0.96,-0.07,0.31,-2,-1,-1,0.97,6469,14,77,31,33,902,356.0,584,457,60,122.0,116,1,292,174,42,0,0,349,4104,-30438,347,,,,,,,,,,,,
58003,1560687689991,11,2.21,1.91,3.34,1.71,2.96,0.94,0.07,0.2,-1,0,0,0.94,6419,14,77,31,34,905,352.0,583,456,60,123.0,124,1,295,179,43,0,0,349,3183,-31206,346,,,,,,,,,,,,
58023,1560687690011,12,2.21,1.92,3.33,1.71,2.97,0.92,0.05,0.22,-2,1,-1,0.92,6392,14,77,31,34,907,349.0,580,460,60,122.0,124,1,295,179,43,0,0,344,2811,3346,341,,,,,,,,,,,,
58043,1560687690031,15,2.2,1.93,3.33,1.7,2.98,1.0,-0.03,0.34,-3,-1,-2,1.0,6345,14,77,31,35,910,345.0,579,465,60,122.0,124,1,298,185,43,0,0,340,6870,2560,338,45.702042,4.910998,36.09,201.3,0,0.0,0,0.0,0.4383,1,0.33,0.9674
58063,1560687690051,16,2.19,1.94,3.34,1.69,2.97,1.0,-0.03,0.33,-3,-1,-3,1.0,6321,14,77,31,35,913,342.0,575,456,60,122.0,124,1,298,185,43,0,0,340,-31206,13,334,,,,,,,,,,,,
58083,1560687690071,10,2.2,1.95,3.34,1.7,2.97,0.95,0.14,0.2,-2,1,-3,0.96,6241,14,77,31,35,916,341.0,571,453,60,123.0,124,1,298,185,43,0,0,335,3327,-12032,329,,,,,,,,,,,,
58103,1560687690095,10,2.2,1.95,3.35,1.68,2.96,0.93,0.17,0.09,-2,3,-4,0.95,6214,14,77,31,36,915,339.0,568,455,60,123.0,130,1,301,190,43,0,0,336,-122,-23296,328,,,,,,,,,,,,
58123,1560687690115,12,2.18,1.96,3.35,1.68,2.95,1.0,0.08,0.08,-4,3,-5,1.0,6163,14,77,31,36,914,334.0,563,458,60,122.0,130,1,301,190,43,0,0,330,4838,-24576,324,,,,,,,,,,,,
58143,1560687690135,10,2.19,1.95,3.34,1.66,2.93,1.1,-0.08,0.13,-6,-0,-5,1.1,6131,14,77,31,37,914,333.0,559,458,60,122.0,130,1,304,190,43,0,0,328,-6528,-25856,321,45.702038,4.911007,34.68,201.3,0,0.0,0,0.0,0.44,1,0.33,0.969
58163,1560687690155,13,2.18,1.94,3.34,1.64,2.95,1.19,-0.14,0.22,-8,-4,-7,1.2,6067,14,77,31,37,913,330.0,557,462,60,122.0,130,1,304,196,43,0,0,324,175,-29696,318,,,,,,,,,,,,
58183,1560687690175,11,2.17,1.96,3.34,1.61,2.98,1.27,-0.15,0.32,-8,-8,-8,1.28,6032,14,77,31,37,912,328.0,548,456,60,122.0,130,1,304,196,43,0,0,323,170,130,313,,,,,,,,,,,,
58203,1560687690195,12,2.18,1.97,3.34,1.61,2.98,1.35,-0.09,0.38,-7,-11,-9,1.35,5990,14,77,31,38,912,324.0,546,459,60,122.0,144,1,306,201,45,0,0,318,160,125,311,,,,,,,,,,,,
58223,1560687690215,13,2.16,1.97,3.34,1.61,2.98,1.42,-0.04,0.46,-7,-14,-9,1.42,5939,14,77,31,38,912,320.0,547,462,60,122.0,144,1,306,201,45,0,0,318,150,110,308,,,,,,,,,,,,
58243,1560687690235,12,2.15,1.99,3.33,1.61,3.0,1.48,-0.05,0.51,-6,-17,-10,1.48,5863,14,77,31,39,912,316.0,543,460,60,122.0,144,1,308,201,45,0,0,315,140,26880,303,45.702034,4.911016,32.99,201.3,0,0.0,0,0.0,0.4417,1,0.33,0.9707
58263,1560687690255,11,2.14,2.0,3.33,1.62,3.0,1.53,-0.1,0.52,-8,-20,-11,1.53,5801,14,77,31,39,911,315.0,535,455,60,123.0,144,1,308,207,45,0,0,310,-29696,100,302,,,,,,,,,,,,
58283,1560687690275,16,2.15,1.98,3.32,1.62,3.0,1.58,-0.1,0.49,-10,-17,-12,1.58,5707,14,77,31,40,909,312.0,526,455,60,122.0,144,1,311,207,45,0,0,311,130,90,298,,,,,,,,,,,,
58303,1560687690295,12,2.14,1.99,3.31,1.61,3.0,1.35,-0.09,0.4,-13,-11,-12,1.35,5600,14,77,31,41,908,311.0,519,457,60,121.0,148,1,314,209,44,0,0,307,-32256,23040,296,,,,,,,,,,,,
58323,1560687690315,11,2.13,1.99,3.3,1.61,3.0,1.14,-0.02,0.39,-11,-7,-13,1.14,5527,14,77,31,42,907,308.0,514,461,60,122.0,148,1,315,209,44,0,0,304,120,0,292,,,,,,,,,,,,
58343,1560687690335,10,2.1,2.01,3.29,1.62,3.01,1.16,0.08,0.41,-10,-10,-13,1.16,5433,14,77,31,43,905,305.0,502,461,60,123.0,148,1,316,211,44,0,0,301,29440,10686,286,45.702026,4.911025,31.64,201.3,0,0.0,0,0.0,0.4433,1,0.33,0.9724
58363,1560687690355,10,2.1,2.02,3.28,1.61,3.02,1.24,0.12,0.38,-12,-11,-12,1.25,5296,14,77,31,44,904,303.0,500,460,60,120.0,148,1,313,212,44,0,0,299,28160,250,284,,,,,,,,,,,,
58383,1560687690375,7,2.08,2.04,3.29,1.6,3.06,1.08,0.14,0.4,-11,-9,-14,1.09,5231,14,77,31,45,903,300.0,489,456,60,123.0,148,1,313,214,44,0,0,298,100,250,281,,,,,,,,,,,,
58403,1560687690395,10,2.07,2.05,3.28,1.61,3.06,1.17,0.22,0.45,-14,-9,-14,1.19,5228,14,77,31,46,901,300.0,478,460,60,120.0,150,1,315,218,42,0,0,297,100,-1534,278,,,,,,,,,,,,
58423,1560687690415,14,2.05,2.06,3.29,1.61,3.05,1.07,0.25,0.37,-12,-6,-16,1.1,5125,14,77,31,47,897,298.0,475,460,60,123.0,150,1,311,218,42,0,0,293,95,-1281,275,,,,,,,,,,,,
58443,1560687690435,9,2.03,2.06,3.28,1.59,3.08,1.16,0.26,0.44,-14,-7,-16,1.19,5110,14,77,31,48,894,296.0,470,460,60,121.0,150,1,311,221,42,0,0,290,90,-1,272,45.702023,4.911033,30.34,201.4,0,0.0,0,0.0,0.445,1,0.33,0.974
58463,1560687690455,11,2.0,2.06,3.24,1.58,3.09,1.18,0.27,0.42,-14,-8,-17,1.21,5067,14,77,31,49,891,294.0,458,451,60,121.0,150,1,307,224,42,0,0,289,80,-1,268,,,,,,,,,,,,
58483,1560687690475,11,1.97,2.06,3.2,1.56,3.07,1.04,0.29,0.32,-15,-5,-18,1.08,4989,14,77,31,50,888,290.0,460,458,60,123.0,150,1,302,225,42,0,0,288,0,-41,264,,,,,,,,,,,,
58503,1560687690494,12,1.94,2.09,3.17,1.57,3.09,1.14,0.38,0.35,-17,-6,-18,1.2,4985,14,77,31,52,884,288.0,453,468,60,122.0,167,1,300,231,43,0,0,285,0,14337,257,,,,,,,,,,,,
58523,1560687690514,14,1.91,2.11,3.18,1.54,3.18,1.13,0.42,0.34,-18,-10,-19,1.2,4931,14,77,31,52,884,286.0,447,453,60,122.0,167,1,300,231,43,0,0,278,10686,15360,254,,,,,,,,,,,,
58543,1560687690534,16,1.9,2.11,3.18,1.51,3.24,1.01,0.45,0.24,-19,-6,-21,1.1,4921,14,77,31,53,883,286.0,449,453,60,122.0,167,1,299,234,43,0,0,277,10686,13468,249,45.702015,4.911041,28.92,201.4,0,0.0,0,0.0,0.4467,1,0.33,0.9757
58563,1560687690554,10,1.91,2.11,3.17,1.49,3.27,1.07,0.5,0.27,-21,-6,-23,1.18,4890,14,77,31,54,889,285.0,445,470,60,123.0,167,1,298,236,43,0,0,278,-1529,250,246,,,,,,,,,,,,
58583,1560687690574,12,1.91,2.12,3.18,1.49,3.27,1.13,0.55,0.3,-22,-7,-25,1.25,4868,14,77,31,54,894,282.0,437,458,60,120.0,167,1,298,236,43,0,0,275,1886,15360,243,,,,,,,,,,,,
58603,1560687690594,14,1.9,2.12,3.19,1.48,3.27,1.12,0.55,0.27,-22,-5,-27,1.25,4833,14,77,31,55,899,280.0,435,458,60,120.0,177,1,298,240,43,0,0,273,250,14412,240,,,,,,,,,,,,
58623,1560687690614,15,1.9,2.12,3.18,1.49,3.27,1.07,0.54,0.19,-22,-5,-29,1.2,4799,14,77,31,55,905,275.0,435,452,60,123.0,177,1,298,239,43,0,0,271,-1527,250,238,,,,,,,,,,,,
58643,1560687690634,11,1.89,2.12,3.18,1.49,3.23,1.0,0.52,0.19,-23,-4,-30,1.13,4764,14,77,31,55,910,273.0,433,460,60,123.0,177,1,298,239,43,0,0,268,28160,1088,237,45.702015,4.911049,27.38,201.4,0,0.0,0,0.0,0.4483,1,0.33,0.9774
58663,1560687690654,8,1.91,2.12,3.16,1.5,3.2,1.07,0.52,0.22,-24,-2,-31,1.19,4749,14,77,31,56,915,270.0,430,467,60,122.0,177,1,297,243,43,0,0,265,-1,10824,233,,,,,,,,,,,,
58683,1560687690674,9,1.9,2.1,3.17,1.5,3.16,1.11,0.52,0.26,-24,-5,-31,1.23,4708,14,77,31,56,916,266.0,422,461,60,121.0,177,1,297,243,43,0,0,262,-1,19968,232,,,,,,,,,,,,
58703,1560687690694,8,1.91,2.1,3.17,1.51,3.15,1.13,0.53,0.3,-24,-4,-31,1.25,4685,14,77,31,57,916,265.0,422,458,60,120.0,186,1,297,247,43,0,0,259,-1,19968,229,,,,,,,,,,,,
58723,1560687690714,7,1.92,2.1,3.17,1.5,3.13,1.13,0.49,0.3,-24,-6,-33,1.24,4686,14,77,31,56,912,263.0,414,451,60,122.0,186,1,297,247,43,0,0,256,-1,1596,227,,,,,,,,,,,,
58743,1560687690734,8,1.92,2.11,3.17,1.5,3.13,1.08,0.47,0.28,-24,-4,-33,1.18,4652,14,77,31,57,908,261.0,411,448,60,122.0,186,1,297,247,43,0,0,253,-1,15360,225,45.702011,4.911056,25.11,201.5,0,0.0,0,0.0,0.45,1,0.33,0.979
58763,1560687690754,6,1.95,2.1,3.17,1.52,3.1,1.09,0.44,0.24,-23,-2,-34,1.17,4634,14,77,31,57,904,259.0,407,455,60,123.0,186,1,297,247,43,0,0,253,-41,1596,226,,,,,,,,,,,,
58783,1560687690774,7,1.98,2.11,3.17,1.52,3.07,1.01,0.45,0.25,-23,-2,-34,1.11,4570,14,77,32,58,901,258.0,406,459,60,123.0,186,1,296,246,43,0,0,251,-10440,15360,224,,,,,,,,,,,,
58803,1560687690794,5,2.02,2.11,3.17,1.54,3.03,0.99,0.42,0.27,-23,0,-34,1.08,4521,14,77,32,57,899,257.0,404,458,60,122.0,191,1,296,246,43,0,0,252,14337,250,224,,,,,,,,,,,,
58823,1560687690814,5,2.06,2.1,3.17,1.57,2.96,0.95,0.43,0.27,-22,2,-34,1.04,4472,14,77,32,58,897,256.0,399,458,60,123.0,191,1,296,246,43,0,0,251,506,250,225,,,,,,,,,,,,
58843,1560687690834,4,2.11,2.11,3.17,1.66,2.9,0.95,0.41,0.26,-22,4,-33,1.03,4423,14,77,32,58,898,253.0,391,456,60,123.0,191,1,296,246,43,0,0,249,-1,10318,227,45.702007,4.911065,24.11,201.5,0,0.0,0,0.0,0.4517,1,0.33,0.9807
58863,1560687690854,3,2.17,2.1,3.17,1.77,2.87,0.89,0.38,0.27,-21,4,-33,0.97,4390,14,77,32,57,900,250.0,390,452,60,122.0,191,1,296,245,43,0,0,246,10818,250,228,,,,,,,,,,,,
58883,1560687690874,-1,2.25,2.09,3.21,1.85,2.83,0.84,0.3,0.24,-19,5,-31,0.89,4360,14,77,32,57,907,244.0,381,456,60,120.0,191,1,296,245,43,0,0,241,250,10824,233,,,,,,,,,,,,
58903,1560687690894,-0,2.3,2.05,3.26,1.91,2.81,0.81,0.23,0.27,-16,5,-29,0.84,4363,14,77,32,58,916,242.0,379,448,60,121.0,175,1,295,249,41,0,0,239,23482,8704,233,,,,,,,,,,,,
58923,1560687690914,-0,2.38,2.02,3.33,1.98,2.78,0.83,0.17,0.33,-14,3,-27,0.85,4363,14,77,32,58,924,238.0,374,459,60,121.0,175,1,295,249,41,0,0,238,13468,250,236,,,,,,,,,,,,
58943,1560687690934,-2,2.47,1.97,3.38,2.06,2.74,0.84,0.11,0.41,-11,3,-24,0.85,4381,14,77,32,58,931,240.0,372,462,60,122.0,175,1,295,249,41,0,0,236,8704,-1484,240,45.702007,4.911072,22.59,201.5,0,0.0,0,0.0,0.4533,1,0.33,0.9824
58963,1560687690954,-1,2.54,1.93,3.42,2.09,2.71,0.87,0.07,0.42,-8,1,-20,0.87,4389,14,77,32,58,939,242.0,376,458,60,123.0,175,1,295,249,41,0,0,230,-1494,250,242,,,,,,,,,,,,
58983,1560687690974,0,2.63,1.89,3.46,2.13,2.67,0.88,-0.02,0.43,-5,-1,-16,0.88,4433,14,77,32,59,950,246.0,376,465,60,122.0,175,1,295,255,41,0,0,225,-1496,250,246,,,,,,,,,,,,
59003,1560687690994,0,2.7,1.87,3.51,2.16,2.66,0.87,-0.12,0.46,-2,-2,-12,0.87,4458,14,77,32,58,957,247.0,382,462,60,122.0,170,1,296,250,42,0,0,223,-1530,10812,247,,,,,,,,,,,,
59023,1560687691008,1,2.79,1.84,3.54,2.19,2.65,0.86,-0.19,0.48,1,-3,-7,0.88,4466,14,77,32,58,960,247.0,384,465,60,122.0,170,1,296,250,42,0,0,220,-1532,250,248,,,,,,,,,,,,
59043,1560687691028,-2,2.87,1.82,3.57,2.2,2.66,0.86,-0.29,0.48,3,-3,-3,0.91,4442,14,78,32,58,963,247.0,386,471,60,122.0,170,1,296,250,42,0,0,221,-17920,15360,249,45.702004,4.911079,23.64,201.6,0,0.0,0,0.0,0.455,1,0.33,0.984
59063,1560687691048,0,0.33,1.8,3.6,2.21,2.65,0.84,-0.4,0.49,6,-3,-0,0.93,4403,14,77,32,59,965,248.0,385,467,60,123.0,170,1,295,255,42,0,0,222,1088,-1494,248,,,,,,,,,,,,
59083,1560687691068,3,0.42,1.79,3.61,2.23,2.63,0.79,-0.43,0.45,8,-4,4,0.9,4372,14,77,32,59,966,248.0,384,466,60,123.0,170,1,294,249,42,0,0,222,16384,15360,248,,,,,,,,,,,,
59103,1560687691096,5,0.44,1.78,3.64,2.23,2.65,0.74,-0.51,0.4,11,-1,7,0.9,4343,14,77,32,58,965,248.0,382,461,60,123.0,165,1,295,249,41,0,0,227,-14848,10812,248,,,,,,,,,,,,
59123,1560687691116,3,0.44,1.8,3.66,2.22,2.65,0.68,-0.51,0.31,13,1,9,0.85,4307,14,78,32,58,961,245.0,376,452,60,123.0,165,1,295,249,41,0,0,218,250,10812,245,,,,,,,,,,,,
59143,1560687691136,-0,0.43,1.79,3.66,2.22,2.64,0.63,-0.57,0.16,16,2,12,0.85,4349,14,77,32,58,953,248.0,378,458,60,123.0,165,1,295,254,41,0,0,208,250,250,248,45.702,4.911087,23.84,201.6,0,0.0,0,0.0,0.4567,1,0.33,0.9857
59163,1560687691156,-0,0.43,1.79,3.67,2.21,2.63,0.66,-0.56,0.05,19,1,16,0.87,4287,14,77,32,58,945,253.0,376,458,60,120.0,165,1,295,254,41,0,0,212,-1482,-1494,253,,,,,,,,,,,,
59183,1560687691176,0,0.44,1.78,3.67,2.21,2.6,0.76,-0.59,0.01,21,1,20,0.96,4328,14,77,32,58,938,254.0,373,452,60,121.0,165,1,295,254,41,0,0,219,-29696,10812,254,,,,,,,,,,,,
59203,1560687691196,0,0.43,1.77,3.68,2.2,2.59,0.76,-0.58,0.05,24,-1,26,0.96,4321,14,77,32,59,931,256.0,378,458,60,121.0,162,1,294,254,41,0,0,219,-29696,250,256,,,,,,,,,,,,
59223,1560687691216,0,0.43,1.76,3.68,2.2,2.58,0.79,-0.66,0.1,26,-4,30,1.03,4288,14,77,32,59,924,258.0,370,460,60,122.0,162,1,294,254,41,0,0,205,-1482,250,258,,,,,,,,,,,,
59243,1560687691236,-1,0.44,1.75,3.68,2.19,2.59,0.81,-0.71,0.11,29,-3,34,1.07,4328,14,77,32,59,917,259.0,369,463,60,123.0,162,1,294,254,41,0,0,196,250,-1494,259,45.702,4.911094,22.82,201.6,0,0.0,0,0.0,0.4583,1,0.34,0.9874
59263,1560687691256,4,0.44,1.73,3.68,2.21,2.55,0.78,-0.77,0.15,31,-1,37,1.1,4272,14,77,32,59,916,260.0,367,459,60,123.0,162,1,294,249,41,0,0,211,-1482,16896,260,,,,,,,,,,,,
59283,1560687691276,3,0.43,1.73,3.68,2.21,2.55,0.81,-0.84,0.21,34,-0,40,1.17,4261,14,77,32,59,915,262.0,373,451,60,122.0,162,1,294,254,41,0,0,235,13874,10812,262,,,,,,,,,,,,
59303,1560687691296,-1,0.44,1.73,3.69,2.21,2.55,0.81,-0.87,0.27,35,-1,43,1.2,4273,14,77,32,59,914,260.0,373,456,60,121.0,157,1,294,254,41,0,0,231,250,250,260,,,,,,,,,,,,
59323,1560687691316,-0,0.44,1.73,3.68,2.21,2.55,0.89,-0.9,0.34,37,-4,46,1.26,4269,14,77,32,59,913,260.0,370,452,60,121.0,157,1,294,254,41,0,0,228,250,-1494,260,,,,,,,,,,,,
59343,1560687691336,-0,0.43,1.73,3.7,2.21,2.56,0.92,-0.87,0.43,39,-9,49,1.27,4303,14,77,32,59,912,261.0,366,460,60,123.0,157,1,294,254,41,0,0,226,-1480,10812,261,45.701996,4.9111,22.68,201.6,0,0.0,0,0.0,0.46,1,0.34,0.989
59363,1560687691356,0,0.43,1.73,3.7,2.21,2.55,0.91,-0.89,0.45,40,-9,51,1.27,4339,14,77,32,59,912,261.0,367,463,60,123.0,157,1,294,254,41,0,0,221,-1480,250,261,,,,,,,,,,,,
59383,1560687691376,0,0.44,1.74,3.69,2.22,2.56,0.9,-0.92,0.46,41,-7,52,1.29,4349,14,77,32,59,912,260.0,370,466,60,123.0,157,1,294,254,41,0,0,214,-1480,250,260,,,,,,,,,,,,
59403,1560687691396,3,0.44,1.73,3.7,2.21,2.54,0.89,-0.94,0.45,42,-7,53,1.29,4360,14,77,32,59,912,259.0,372,466,60,123.0,162,1,294,254,42,0,0,208,19456,15360,259,,,,,,,,,,,,
59423,1560687691416,6,0.43,1.73,3.7,2.2,2.55,0.86,-0.96,0.43,44,-6,54,1.28,4376,14,77,32,59,912,258.0,380,453,60,123.0,162,1,294,254,42,0,0,197,19456,250,258,,,,,,,,,,,,
59443,1560687691436,4,0.43,1.73,3.69,2.2,2.55,0.79,-0.98,0.38,45,-5,55,1.26,4355,14,77,32,59,912,259.0,379,455,60,123.0,162,1,294,254,42,0,0,190,19456,10812,259,45.701996,4.911107,21.28,201.6,0,0.0,0,0.0,0.4617,1,0.34,0.9907
59463,1560687691456,1,0.4,1.71,3.69,2.2,2.54,0.78,-0.99,0.34,46,-2,56,1.26,4328,14,78,32,58,912,259.0,344,451,60,122.0,162,1,295,249,42,0,0,206,19456,-1445,259,,,,,,,,,,,,
59483,1560687691476,-0,0.39,1.72,3.69,2.2,2.54,0.84,-1.0,0.32,46,-3,57,1.3,4243,14,78,32,59,912,259.0,328,453,60,122.0,162,1,294,254,42,0,0,237,250,15360,259,,,,,,,,,,,,
59503,1560687691493,-0,0.35,1.71,3.66,2.21,2.55,0.89,-1.0,0.39,47,-7,58,1.34,4228,14,78,32,59,911,259.0,312,461,60,122.0,154,1,294,254,40,0,0,222,19456,-1445,259,,,,,,,,,,,,
59523,1560687691513,-1,2.9,1.73,3.61,2.21,2.55,0.9,-0.96,0.37,47,-7,59,1.31,4239,14,78,32,60,911,256.0,308,460,60,122.0,154,1,293,254,40,0,0,185,14412,250,256,,,,,,,,,,,,
59543,1560687691533,4,2.83,1.75,3.57,2.21,2.56,0.89,-0.92,0.36,46,-6,59,1.28,4129,14,78,32,60,909,256.0,283,467,60,123.0,154,1,292,253,40,0,0,190,-1480,250,256,45.701992,4.911111,20.03,201.5,0,0.0,0,0.0,0.4633,1,0.34,0.9924
59563,1560687691553,2,2.74,1.79,3.52,2.21,2.59,0.89,-0.89,0.37,45,-5,60,1.26,4080,14,78,32,60,906,255.0,285,453,60,121.0,154,1,292,258,40,0,0,193,12800,23482,255,,,,,,,,,,,,
59583,1560687691573,0,2.64,1.88,3.43,2.22,2.6,0.89,-0.82,0.4,44,-7,61,1.21,4017,14,78,32,60,905,254.0,280,458,60,121.0,154,1,288,258,40,0,0,193,13874,250,254,,,,,,,,,,,,
59603,1560687691595,4,2.54,1.99,3.33,2.2,2.64,0.9,-0.73,0.4,42,-6,61,1.16,3973,18,78,32,61,903,249.0,279,462,60,123.0,155,1,288,262,39,0,0,198,250,-17920,249,,,,,,,,,,,,
59623,1560687691615,1,2.44,2.11,3.21,2.16,2.74,0.93,-0.59,0.37,39,-5,59,1.1,4041,22,78,32,62,902,246.0,279,455,60,121.0,155,1,292,268,39,0,0,200,-29696,-1484,242,,,,,,,,,,,,
59643,1560687691635,-1,2.36,2.18,3.11,2.08,2.82,0.93,-0.47,0.35,36,-6,56,1.04,4072,26,78,32,65,901,238.0,286,460,60,122.0,155,1,294,282,39,0,0,209,-14848,250,238,45.701988,4.911116,19.91,201.3,0,0.0,0,0.0,0.465,1,0.34,0.994
59663,1560687691655,1,2.28,2.21,3.05,1.98,2.86,0.96,-0.4,0.39,33,-8,52,1.04,4133,31,78,32,69,901,229.0,295,462,60,123.0,155,1,297,299,39,0,0,211,1088,18432,229,,,,,,,,,,,,
59683,1560687691675,6,2.2,2.21,3.01,1.94,2.91,0.95,-0.31,0.4,29,-7,48,1.0,4219,35,78,32,72,901,223.0,301,460,60,123.0,155,1,295,310,39,0,0,218,-17920,250,223,,,,,,,,,,,,
59703,1560687691693,4,2.14,2.22,2.98,1.89,2.94,0.94,-0.19,0.41,26,-6,43,0.96,4273,39,78,32,76,900,219.0,307,460,60,123.0,235,1,294,323,52,0,0,221,-1532,1596,219,,,,,,,,,,,,
59723,1560687691713,1,2.09,2.25,2.95,1.85,2.94,0.96,-0.08,0.42,22,-5,38,0.96,4228,42,78,32,79,897,225.0,321,449,60,122.0,235,1,295,362,52,0,0,227,19968,15360,219,,,,,,,,,,,,
59743,1560687691733,0,2.05,2.29,2.92,1.83,2.98,0.95,-0.02,0.43,18,-6,33,0.96,4211,43,78,32,82,895,229.0,334,458,60,122.0,235,1,294,396,52,0,0,228,18432,-1530,217,45.701984,4.91112,18.32,201.3,0,0.0,0,0.0,0.4667,1,0.34,0.9957
59763,1560687691753,0,2.03,2.34,2.91,1.8,3.0,0.91,0.01,0.48,15,-6,28,0.91,4202,44,78,32,84,891,231.0,338,464,60,123.0,235,1,293,412,52,0,0,231,-1494,15360,216,,,,,,,,,,,,
59783,1560687691773,3,2.02,2.37,2.91,1.8,3.01,0.88,0.03,0.5,12,-5,23,0.88,4120,46,78,32,86,889,236.0,343,468,60,123.0,235,1,295,415,52,0,0,234,250,-1532,215,,,,,,,,,,,,
59803,1560687691795,2,2.0,2.38,2.94,1.81,3.02,0.89,0.11,0.46,9,-3,18,0.9,4117,48,78,32,87,889,235.0,346,460,60,123.0,302,1,295,420,65,0,0,233,-1483,-17920,214,,,,,,,,,,,,
59823,1560687691815,-0,1.99,2.37,3.01,1.82,3.01,0.88,0.15,0.46,7,-3,14,0.89,4168,53,78,32,89,890,235.0,345,449,60,120.0,302,1,294,431,65,0,0,233,-1483,16384,213,,,,,,,,,,,,
59843,1560687691835,-2,1.99,2.36,3.05,1.81,3.01,0.87,0.17,0.5,4,-4,10,0.88,4185,60,78,32,92,893,237.0,349,455,60,121.0,302,1,295,495,65,0,0,233,-25600,16384,213,45.701977,4.911124,17.9,201.3,0,0.0,0,0.0,0.4683,1,0.34,0.9974
59863,1560687691855,5,1.96,2.35,3.07,1.82,3.0,0.87,0.22,0.51,2,-4,6,0.9,4142,67,78,32,93,910,237.0,351,473,60,123.0,302,1,296,523,65,0,0,234,13468,-1533,212,,,,,,,,,,,,
59883,1560687691875,3,1.96,2.33,3.07,1.83,3.0,0.88,0.28,0.49,-0,-2,3,0.92,4071,73,78,32,95,943,238.0,351,471,60,122.0,302,1,296,581,65,0,0,234,13468,-14848,212,,,,,,,,,,,,
59903,1560687691895,2,1.95,2.31,3.07,1.81,2.99,0.86,0.27,0.49,-2,-2,-0,0.9,4014,79,78,32,96,974,240.0,350,446,60,121.0,445,1,297,611,94,0,0,235,250,-14848,211,,,,,,,,,,,,
59923,1560687691915,0,1.95,2.3,3.07,1.81,2.97,0.89,0.28,0.54,-4,-3,-3,0.93,4006,82,78,32,97,1004,240.0,348,457,60,123.0,445,1,297,642,94,0,0,235,250,250,211,,,,,,,,,,,,
59943,1560687691935,1,1.95,2.3,3.06,1.81,2.96,0.88,0.31,0.52,-6,-2,-6,0.93,4012,86,78,32,97,1059,241.0,348,474,60,123.0,445,1,297,642,94,0,0,238,-17920,250,210,45.701977,4.911127,19.49,201.3,0,0.0,0,0.0,0.47,1,0.34,0.999
59963,1560687691955,-0,1.95,2.3,3.06,1.82,2.96,0.88,0.34,0.53,-8,-1,-9,0.95,4071,89,78,32,97,1147,242.0,347,448,60,121.0,445,1,296,643,94,0,0,237,23482,250,210,,,,,,,,,,,,
59983,1560687691975,0,1.94,2.3,3.07,1.82,2.95,0.87,0.32,0.54,-10,-3,-11,0.93,4156,92,78,32,98,1228,241.0,351,460,60,123.0,445,1,294,674,94,0,0,238,-17920,250,211,,,,,,,,,,,,
60003,1560687691995,-0,1.95,2.3,3.06,1.82,2.96,0.88,0.32,0.57,-11,-5,-12,0.94,4398,93,78,32,98,1285,240.0,359,461,60,122.0,530,1,290,645,112,0,0,236,-1484,-14848,211,,,,,,,,,,,,
60023,1560687692009,-0,1.95,2.29,3.06,1.82,2.96,0.86,0.29,0.58,-12,-7,-14,0.91,4634,95,78,32,97,1345,239.0,366,460,60,122.0,530,1,286,647,112,0,0,238,-1484,-1533,211,,,,,,,,,,,,
60043,1560687692029,1,1.95,2.29,3.06,1.81,2.96,0.84,0.37,0.56,-12,-5,-15,0.92,4951,95,78,32,97,1411,240.0,383,460,60,121.0,530,1,280,649,112,0,0,238,250,-1530,212,45.701973,4.911131,21.18,201.3,0,0.0,0,0.0,0.4717,1,0.34,1.0007
60063,1560687692049,5,1.94,2.3,3.04,1.82,2.96,0.8,0.39,0.61,-13,-5,-16,0.89,5095,95,78,32,97,1465,243.0,397,453,60,123.0,530,1,282,642,112,0,0,243,-1445,630,214,,,,,,,,,,,,
60083,1560687692069,-1,1.96,2.35,2.96,1.85,2.93,0.73,0.36,0.68,-15,-3,-17,0.81,5277,95,78,32,97,1474,248.0,413,459,60,121.0,530,1,289,632,112,0,0,249,250,115,219,,,,,,,,,,,,
60103,1560687692093,-1,1.97,2.41,2.9,1.9,2.87,0.72,0.38,0.68,-15,-1,-18,0.81,5372,96,78,32,96,1480,252.0,430,454,60,123.0,552,1,293,599,122,0,0,256,-1,250,224,,,,,,,,,,,,
60123,1560687692113,1,1.98,2.45,2.87,1.97,2.78,0.65,0.34,0.79,-16,-1,-20,0.74,5311,96,78,32,96,1480,260.0,443,458,60,121.0,552,1,290,604,122,0,0,270,-1,250,227,,,,,,,,,,,,
60143,1560687692133,1,1.99,2.48,2.85,2.06,2.69,0.66,0.34,0.82,-16,-0,-21,0.75,5172,96,78,32,97,1481,267.0,441,461,60,123.0,552,1,285,614,122,0,0,292,-1,24064,233,45.701965,4.911135,21.56,201.2,0,0.0,0,0.0,0.4733,1,0.34,1.0024
60163,1560687692153,-0,2.02,2.49,2.84,2.14,2.65,0.55,0.29,0.87,-17,1,-23,0.63,5128,96,78,32,97,1474,271.0,441,452,60,122.0,552,1,283,639,122,0,0,280,-1281,95,241,,,,,,,,,,,,
60183,1560687692173,7,2.03,2.51,2.83,2.17,2.65,0.62,0.35,0.91,-18,3,-24,0.71,5144,96,78,32,97,1458,273.0,437,450,60,123.0,552,1,284,638,122,0,0,284,28160,-1,246,,,,,,,,,,,,
60203,1560687692195,1,2.05,2.53,2.85,2.15,2.7,0.61,0.35,0.92,-18,0,-23,0.71,5175,96,78,32,97,1392,278.0,439,452,60,121.0,497,1,285,635,124,0,0,282,630,105,251,,,,,,,,,,,,
60223,1560687692215,5,2.07,2.57,2.86,2.16,2.74,0.53,0.35,0.91,-18,1,-23,0.63,5302,96,78,32,96,1325,281.0,445,447,60,123.0,497,1,290,604,124,0,0,289,1886,-30976,256,,,,,,,,,,,,
60243,1560687692235,2,2.1,2.58,2.88,2.17,2.74,0.52,0.32,0.95,-18,1,-23,0.61,5474,96,78,32,96,1268,283.0,456,454,60,122.0,497,1,299,592,124,0,0,292,250,28160,261,45.701962,4.91114,22.96,201.2,0,0.0,0,0.0,0.475,1,0.34,1.0041
60263,1560687692255,1,2.13,2.57,2.91,2.18,2.72,0.57,0.26,1.03,-17,-1,-23,0.63,5627,96,78,32,96,1209,288.0,469,447,60,122.0,497,1,302,581,124,0,0,299,0,-1529,265,,,,,,,,,,,,
60283,1560687692275,0,2.14,2.56,2.93,2.18,2.69,0.62,0.21,1.12,-16,-3,-24,0.66,5755,97,78,32,96,1143,291.0,481,447,60,123.0,497,1,307,559,124,0,0,307,20480,120,274,,,,,,,,,,,,
60303,1560687692295,1,2.16,2.52,2.91,2.2,2.65,0.72,0.2,1.17,-16,-1,-23,0.74,5896,97,78,32,95,1074,295.0,496,448,60,122.0,442,1,313,551,122,0,0,308,23040,115,280,,,,,,,,,,,,
60323,1560687692315,-1,2.18,2.52,2.88,2.19,2.63,0.78,0.11,1.21,-18,-0,-22,0.79,5967,97,78,32,95,1058,301.0,507,453,60,123.0,442,1,315,547,122,0,0,309,26880,155,286,,,,,,,,,,,,
60343,1560687692335,0,2.18,2.52,2.85,2.18,2.61,0.82,0.0,1.26,-18,1,-21,0.82,5994,97,78,32,96,1049,305.0,517,452,60,123.0,442,1,316,555,122,0,0,320,29440,-22016,295,45.701958,4.911147,25.01,201.2,0,0.0,0,0.0,0.4767,1,0.34,1.0057
60363,1560687692355,0,2.19,2.52,2.86,2.19,2.59,0.83,-0.02,1.25,-19,3,-21,0.83,6017,98,78,32,96,1038,310.0,522,452,60,122.0,442,1,317,555,122,0,0,323,125,-24576,301,,,,,,,,,,,,
60383,1560687692375,-0,2.2,2.51,2.86,2.21,2.56,0.84,-0.11,1.25,-19,3,-22,0.85,6023,98,78,32,96,1026,316.0,523,451,60,123.0,442,1,318,554,122,0,0,334,140,150,306,,,,,,,,,,,,
60403,1560687692395,0,2.19,2.5,2.88,2.22,2.56,0.9,-0.22,1.29,-19,5,-22,0.93,6065,98,78,32,96,1021,322.0,527,450,60,122.0,409,1,320,553,127,0,0,334,155,175,313,,,,,,,,,,,,
60423,1560687692415,-1,2.21,2.5,2.92,2.22,2.56,1.01,-0.27,1.34,-19,6,-21,1.05,6127,98,78,32,96,1019,326.0,530,452,60,122.0,409,1,323,551,127,0,0,341,165,13,317,,,,,,,,,,,,
60443,1560687692435,-1,2.2,2.5,2.95,2.21,2.61,1.1,-0.29,1.39,-20,5,-21,1.14,6250,98,78,32,96,1012,329.0,538,448,60,121.0,409,1,329,548,127,0,0,339,-32559,-10554,322,45.701954,4.911154,27.28,201.2,0,0.0,0,0.0,0.4783,1,0.34,1.0074
60463,1560687692455,4,2.19,2.5,2.96,2.22,2.64,1.15,-0.21,1.39,-19,1,-20,1.17,6421,99,78,32,96,1004,333.0,545,450,60,122.0,409,1,338,544,127,0,0,343,-6528,-1246,326,,,,,,,,,,,,
60483,1560687692475,-1,2.2,2.51,2.96,2.22,2.65,0.93,-0.11,1.3,-17,-1,-18,0.94,6551,99,78,32,96,998,339.0,550,448,60,121.0,409,1,344,540,127,0,0,344,-122,-14714,331,,,,,,,,,,,,
60503,1560687692496,2,2.19,2.5,2.97,2.22,2.64,0.92,-0.23,1.36,-16,-0,-17,0.95,6684,100,78,32,96,990,343.0,561,454,60,122.0,405,1,351,536,135,0,0,352,-14714,-30454,333,,,,,,,,,,,,
60523,1560687692516,-0,2.19,2.5,2.94,2.2,2.63,0.81,-0.07,1.33,-15,-2,-16,0.81,6776,100,78,32,95,989,348.0,570,449,60,122.0,405,1,356,534,135,0,0,357,-1246,-14707,340,,,,,,,,,,,,
60543,1560687692536,0,2.2,2.5,2.92,2.21,2.62,0.86,-0.06,1.34,-15,-0,-14,0.86,6848,100,78,32,95,988,351.0,578,450,60,122.0,405,1,360,531,135,0,0,364,3302,-6656,345,45.70195,4.911161,30.04,201.2,0,0.0,0,0.0,0.48,1,0.34,1.0091
60563,1560687692556,-2,2.21,2.5,2.91,2.2,2.63,0.65,0.04,1.23,-12,1,-14,0.65,6929,100,78,32,95,991,357.0,584,455,60,122.0,405,1,365,531,135,0,0,368,-6640,230,348,,,,,,,,,,,,
60583,1560687692576,4,2.22,2.5,2.91,2.2,2.62,0.78,-0.01,1.3,-13,-1,-14,0.78,6985,100,78,32,96,997,362.0,588,453,60,121.0,405,1,367,528,135,0,0,376,2790,3,355,,,,,,,,,,,,
60603,1560687692596,3,2.21,2.49,2.92,2.19,2.61,0.68,-0.06,1.19,-10,2,-14,0.68,7056,100,78,32,95,988,367.0,597,454,60,121.0,395,1,373,532,142,0,0,380,0,3,360,,,,,,,,,,,,
60623,1560687692616,2,2.22,2.48,2.93,2.2,2.62,0.52,0.07,1.1,-10,2,-14,0.52,7192,100,78,32,95,976,372.0,601,453,60,122.0,395,1,383,539,142,0,0,389,1,-6524,367,,,,,,,,,,,,
60643,1560687692636,-0,2.22,2.48,2.94,2.2,2.61,0.67,0.13,1.18,-11,1,-14,0.68,7315,100,78,32,94,959,378.0,605,453,60,122.0,395,1,393,546,142,0,0,390,2278,-19126,369,45.701942,4.91117,32.85,201.2,0,0.0,0,0.0,0.4817,1,0.34,1.0107
60663,1560687692656,0,2.22,2.48,2.96,2.2,2.62,0.8,0.1,1.25,-11,1,-14,0.81,7473,100,78,32,94,939,384.0,615,450,60,122.0,395,1,405,553,142,0,0,397,-19019,1504,373,,,,,,,,,,,,
60683,1560687692676,1,2.21,2.5,2.96,2.2,2.62,0.74,0.12,1.18,-11,2,-12,0.75,7615,100,78,32,93,910,388.0,618,451,60,122.0,395,1,417,560,142,0,0,403,-31744,10392,380,,,,,,,,,,,,
60703,1560687692696,0,2.22,2.52,2.96,2.18,2.62,0.73,0.23,1.14,-11,2,-12,0.76,7812,100,78,32,92,874,395.0,616,452,60,122.0,434,1,433,570,166,0,0,412,17144,-26615,383,,,,,,,,,,,,
60723,1560687692716,5,2.21,2.59,2.95,2.25,2.58,0.66,0.21,1.23,-10,3,-12,0.69,7951,100,78,32,92,846,396.0,616,450,60,122.0,434,1,444,578,166,0,0,425,-32702,13040,388,,,,,,,,,,,,
60743,1560687692736,1,2.21,2.61,2.95,2.34,2.54,0.62,0.07,1.3,-9,3,-12,0.62,8130,100,78,32,91,830,403.0,626,455,60,120.0,434,1,446,591,166,0,0,438,-8151,3826,393,45.701935,4.91118,35.3,201.2,0,0.0,0,0.0,0.4833,1,0.34,1.0124
60763,1560687692756,4,2.21,2.62,2.92,2.35,2.52,0.62,0.15,1.28,-9,2,-12,0.64,8278,100,78,32,90,814,408.0,628,451,60,122.0,434,1,443,607,166,0,0,429,10392,-18341,399,,,,,,,,,,,,
60783,1560687692776,-0,2.22,2.62,2.88,2.34,2.53,0.59,0.06,1.23,-9,1,-9,0.59,8393,100,78,32,89,802,414.0,627,458,60,122.0,434,1,437,621,166,0,0,443,2524,30272,408,,,,,,,,,,,,
60803,1560687692796,5,2.22,2.62,2.87,2.33,2.54,0.53,0.24,1.24,-9,-0,-9,0.59,8573,100,78,32,89,793,420.0,625,450,60,120.0,489,1,433,611,201,0,0,453,3826,-3210,414,,,,,,,,,,,,
60823,1560687692816,2,2.23,2.61,2.86,2.32,2.55,0.44,0.16,1.19,-8,-0,-12,0.46,8668,100,78,32,88,796,429.0,627,461,60,121.0,489,1,428,611,201,0,0,464,3635,14488,419,,,,,,,,,,,,
60843,1560687692836,4,2.22,2.58,2.88,2.32,2.57,0.5,0.01,1.2,-7,-3,-12,0.5,8819,100,78,32,88,803,434.0,633,455,60,122.0,489,1,424,611,201,0,0,484,-768,-17956,423,45.701931,4.91119,38.09,201.2,0,0.0,0,0.0,0.485,1,0.35,1.0141
60863,1560687692856,5,2.23,2.57,2.97,2.33,2.6,0.52,-0.08,1.23,-7,-1,-14,0.53,9036,100,78,32,87,817,437.0,632,458,60,122.0,489,1,418,599,201,0,0,522,19477,-6441,430,,,,,,,,,,,,
60883,1560687692876,3,2.23,2.56,2.99,2.33,2.61,0.61,-0.17,1.26,-7,-0,-13,0.63,9346,100,78,32,87,830,444.0,643,453,60,121.0,489,1,418,599,201,0,0,463,21432,-9216,437,,,,,,,,,,,,
60903,1560687692894,2,2.23,2.57,2.96,2.32,2.62,0.39,-0.01,1.11,-8,-0,-12,0.39,9595,100,78,32,86,841,448.0,642,459,60,121.0,485,1,414,601,213,0,0,479,8488,-4054,442,,,,,,,,,,,,
60923,1560687692914,4,2.23,2.59,2.9,2.3,2.6,0.35,0.08,1.13,-8,1,-12,0.36,9715,100,78,32,86,857,457.0,646,452,60,121.0,485,1,409,593,213,0,0,513,-9160,-22519,447,,,,,,,,,,,,
60943,1560687692934,2,2.24,2.62,2.87,2.31,2.56,0.5,0.03,1.18,-7,0,-12,0.5,9760,100,78,32,85,889,463.0,642,453,60,120.0,485,1,407,594,213,0,0,533,30272,-22519,454,45.701923,4.911201,41.07,201.1,0,0.0,0,0.0,0.4867,1,0.35,1.0157
60963,1560687692954,2,2.24,2.61,2.87,2.35,2.49,0.42,0.08,1.23,-7,-2,-11,0.43,9796,100,78,32,85,920,468.0,648,451,60,121.0,485,1,405,580,213,0,0,545,-16384,-32248,461,,,,,,,,,,,,
60983,1560687692974,3,2.24,2.6,2.86,2.35,2.48,0.49,0.08,1.26,-8,-2,-11,0.5,9852,100,78,32,85,941,473.0,648,453,60,121.0,485,1,402,580,213,0,0,512,-23367,-23623,466,,,,,,,,,,,,
61003,1560687692994,7,2.25,2.6,2.83,2.34,2.5,0.47,0.01,1.33,-8,-1,-10,0.47,9915,100,78,32,85,962,481.0,646,457,60,121.0,456,1,401,581,217,0,0,504,32033,2211,474,,,,,,,,,,,,
61023,1560687693010,1,2.26,2.62,2.8,2.32,2.54,0.44,0.2,1.3,-7,-3,-9,0.48,9973,100,78,32,85,977,485.0,636,451,60,120.0,456,1,397,581,217,0,0,541,-6441,-30064,475,,,,,,,,,,,,
61043,1560687693030,1,2.27,2.61,2.82,2.32,2.55,0.47,-0.02,1.34,-6,-5,-10,0.47,10053,100,78,32,85,992,493.0,655,455,60,121.0,456,1,402,582,217,0,0,564,-6528,-21872,484,45.701916,4.911213,43.68,201.1,0,0.0,0,0.0,0.4883,1,0.35,1.0174
61063,1560687693050,6,2.26,2.6,2.92,2.35,2.54,0.44,-0.1,1.37,-4,-4,-10,0.45,10157,100,78,32,85,987,497.0,645,457,60,121.0,456,1,406,582,217,0,0,588,2524,6274,493,,,,,,,,,,,,
61083,1560687693070,6,2.27,2.56,2.98,2.35,2.52,0.42,-0.01,1.35,-4,-2,-11,0.42,10257,100,78,32,85,981,502.0,647,455,60,121.0,456,1,413,582,217,0,0,535,15661,6274,502,,,,,,,,,,,,
61103,1560687693096,5,2.27,2.55,2.94,2.33,2.52,0.5,-0.02,1.33,-5,-2,-8,0.5,10393,100,78,32,85,978,508.0,650,454,60,121.0,453,1,423,582,229,0,0,524,-4054,8488,507,,,,,,,,,,,,
61123,1560687693116,4,2.27,2.57,2.87,2.29,2.55,0.47,0.06,1.26,-5,-3,-5,0.47,10434,100,78,32,85,975,514.0,650,454,60,121.0,453,1,426,582,229,0,0,538,16383,-32504,512,,,,,,,,,,,,
61143,1560687693136,2,2.29,2.58,2.88,2.29,2.55,0.46,0.0,1.33,-4,-3,-5,0.46,10599,100,78,32,85,978,520.0,643,455,60,121.0,453,1,433,582,229,0,0,574,1248,-2336,519,45.701912,4.911226,47.27,201.1,0,0.0,0,0.0,0.49,1,0.35,1.0191
61163,1560687693156,5,2.29,2.56,2.93,2.32,2.48,0.47,-0.16,1.39,-2,-3,-7,0.5,10617,100,78,32,85,981,525.0,651,455,60,121.0,453,1,434,582,229,0,0,609,-32248,1779,522,,,,,,,,,,,,
61183,1560687693176,6,2.27,2.54,2.99,2.38,2.44,0.58,-0.21,1.44,-1,-3,-8,0.62,10714,100,78,32,85,984,531.0,652,455,60,121.0,453,1,436,582,229,0,0,603,-9072,-28648,532,,,,,,,,,,,,
61203,1560687693196,8,2.27,2.51,2.99,2.38,2.4,0.58,-0.23,1.41,-2,-5,-5,0.62,10813,100,78,32,84,987,537.0,657,455,60,121.0,448,1,438,582,239,0,0,549,-28648,15649,537,,,,,,,,,,,,
61223,1560687693216,2,2.28,2.53,2.88,2.36,2.44,0.51,-0.21,1.39,-3,-6,-3,0.55,10794,100,78,32,84,987,543.0,655,457,60,120.0,448,1,437,564,239,0,0,554,1780,-30139,543,,,,,,,,,,,,
61243,1560687693236,5,2.28,2.56,2.81,2.35,2.51,0.37,-0.05,1.21,-2,-3,-2,0.37,10945,100,78,32,84,987,546.0,651,453,60,120.0,448,1,441,564,239,0,0,568,-506,-30139,546,45.7019,4.911239,50.19,201.1,0,0.0,0,0.0,0.4917,1,0.35,1.0207
61263,1560687693256,7,2.28,2.55,2.87,2.37,2.53,0.42,-0.16,1.26,0,-2,-3,0.45,10990,100,78,32,84,984,550.0,655,453,60,121.0,448,1,442,564,239,0,0,611,14504,12552,550,,,,,,,,,,,,
61283,1560687693276,3,2.28,2.52,2.98,2.43,2.52,0.51,-0.22,1.25,1,-4,-3,0.56,11120,100,78,32,84,981,556.0,656,453,60,120.0,448,1,442,564,239,0,0,633,-22359,-25872,558,,,,,,,,,,,,
61303,1560687693296,3,2.27,2.48,3.06,2.47,2.48,0.43,-0.16,1.25,1,-6,-1,0.46,11329,100,78,32,84,978,565.0,660,457,60,120.0,429,1,441,564,241,0,0,602,-22359,2048,565,,,,,,,,,,,,
61323,1560687693316,3,2.27,2.44,3.04,2.44,2.51,0.42,-0.22,1.25,-0,-1,-1,0.47,11446,100,78,32,84,975,568.0,657,457,60,121.0,429,1,441,564,241,0,0,585,-2934,506,568,,,,,,,,,,,,
61343,1560687693336,7,2.26,2.45,2.98,2.39,2.53,0.47,-0.15,1.3,-1,-4,-0,0.49,11474,100,78,32,84,965,574.0,661,456,60,121.0,429,1,441,564,241,0,0,598,-8188,-5120,575,45.701897,4.911253,53.0,201.1,0,0.0,0,0.0,0.4933,1,0.35,1.0224
61363,1560687693356,3,2.28,2.46,2.95,2.36,2.52,0.44,-0.02,1.27,-1,-5,1,0.44,11559,100,78,32,83,954,579.0,664,456,60,121.0,429,1,440,564,241,0,0,608,-3210,-18357,579,,,,,,,,,,,,
61383,1560687693376,5,2.28,2.45,2.97,2.36,2.5,0.41,-0.12,1.34,0,-2,1,0.43,11602,100,78,32,84,944,586.0,671,458,60,121.0,429,1,440,566,241,0,0,656,-12040,-3446,586,,,,,,,,,,,,
61403,1560687693395,2,2.27,2.44,3.04,2.35,2.41,0.55,-0.28,1.4,1,0,-1,0.61,11733,100,78,32,83,935,590.0,671,455,60,120.0,411,1,440,551,243,0,0,665,2048,28675,590,,,,,,,,,,,,
61423,1560687693415,3,2.27,2.45,3.0,2.38,2.35,0.62,-0.33,1.44,-1,0,-0,0.7,11829,100,78,32,84,916,593.0,673,453,60,120.0,411,1,440,571,243,0,0,601,17344,30721,592,,,,,,,,,,,,
61443,1560687693435,5,2.28,2.5,2.92,2.36,2.36,0.58,-0.24,1.32,-2,2,2,0.63,11829,100,78,32,83,894,599.0,668,456,60,120.0,411,1,440,554,243,0,0,621,23619,-6006,601,45.701885,4.911269,56.13,201.1,0,0.0,0,0.0,0.495,1,0.35,1.024
61463,1560687693455,6,2.27,2.57,2.87,2.36,2.4,0.43,-0.04,1.19,-2,3,4,0.43,11814,100,78,32,83,877,603.0,666,456,60,120.0,411,1,440,554,243,0,0,626,-768,-2345,603,,,,,,,,,,,,
61483,1560687693475,4,2.29,2.58,2.85,2.36,2.46,0.37,0.05,1.16,-1,5,3,0.37,11867,100,78,32,83,864,608.0,667,460,60,120.0,411,1,440,556,243,0,0,635,19621,-2830,608,,,,,,,,,,,,
61503,1560687693495,5,2.28,2.6,2.93,2.4,2.45,0.29,0.05,1.05,1,7,2,0.29,11957,100,78,32,83,847,611.0,667,456,60,120.0,411,1,440,558,252,0,0,665,1010,3,614,,,,,,,,,,,,
61523,1560687693515,4,2.28,2.56,3.09,2.45,2.53,0.19,0.06,0.95,3,6,0,0.2,12088,100,78,32,83,829,617.0,677,456,60,120.0,411,1,440,560,252,0,0,665,28675,11776,617,,,,,,,,,,,,
61543,1560687693535,5,2.26,2.53,3.17,2.49,2.55,0.17,0.07,0.81,2,5,1,0.19,12262,100,78,32,83,816,622.0,670,455,60,121.0,411,1,440,560,252,0,0,665,19320,16599,622,45.701878,4.911285,58.18,201.0,0,0.0,0,0.0,0.4967,1,0.36,1.0257
61563,1560687693555,-0,2.27,2.52,3.17,2.48,2.64,0.17,0.19,0.66,1,4,4,0.25,12384,100,78,32,83,810,625.0,677,457,60,120.0,411,1,440,560,252,0,0,640,19320,-26562,627,,,,,,,,,,,,
61583,1560687693575,3,2.28,2.54,3.14,2.45,2.75,0.21,0.19,0.6,1,4,4,0.28,12516,100,78,32,83,802,630.0,673,457,60,120.0,411,1,440,560,252,0,0,663,20993,-2830,631,,,,,,,,,,,,
61603,1560687693595,-2,2.28,2.53,3.14,2.42,2.75,0.29,0.05,0.7,1,4,4,0.29,12643,100,78,32,83,791,634.0,672,457,60,122.0,423,1,440,560,268,0,0,670,-2836,-10344,636,,,,,,,,,,,,
61623,1560687693615,0,2.28,2.51,3.17,2.42,2.68,0.28,0.14,0.67,1,4,4,0.31,12159,100,78,32,84,786,640.0,684,463,60,124.0,423,1,440,575,268,0,0,701,24,-26380,639,,,,,,,,,,,,
61643,1560687693635,0,2.26,2.51,3.18,2.43,2.59,0.32,0.16,0.62,1,3,5,0.36,11645,100,78,32,85,786,641.0,675,457,60,123.0,423,1,440,584,268,0,0,659,-3584,11566,644,45.701866,4.911303,61.29,201.0,0,0.0,0,0.0,0.4983,1,0.36,1.0274
61663,1560687693655,1,2.26,2.49,3.16,2.42,2.6,0.43,0.09,0.68,-1,2,5,0.44,11308,100,78,32,86,785,640.0,673,460,60,122.0,423,1,442,601,268,0,0,645,24,479,640,,,,,,,,,,,,
61683,1560687693675,-0,2.27,2.48,3.14,2.35,2.64,0.53,0.14,0.6,-2,3,5,0.54,11174,100,78,32,87,783,642.0,665,458,60,123.0,423,1,444,620,268,0,0,640,-2830,-3584,638,,,,,,,,,,,,
61703,1560687693695,0,2.26,2.45,3.17,2.19,2.71,0.5,0.17,0.59,-1,3,3,0.52,10907,100,78,32,87,781,640.0,664,462,60,121.0,404,1,444,620,258,0,0,642,6208,-5120,637,,,,,,,,,,,,
61723,1560687693715,4,2.26,2.33,3.26,2.12,2.79,0.6,0.15,0.63,-0,1,2,0.62,10683,100,78,32,88,782,638.0,653,451,60,120.0,404,1,438,1114,258,0,0,640,16599,16599,638,,,,,,,,,,,,
61743,1560687693735,5,2.25,2.3,3.28,2.06,2.85,0.48,0.15,0.77,-1,7,2,0.51,10313,100,78,32,88,807,646.0,655,463,60,119.0,404,1,420,1002,258,0,0,676,4909,3543,640,45.701855,4.911319,62.66,201.0,0,0.0,0,0.0,0.5,1,0.36,1.029
61763,1560687693755,1,2.26,2.32,3.21,2.07,2.77,0.49,0.15,0.7,-1,7,1,0.51,9989,100,78,32,87,920,652.0,638,462,60,120.0,404,1,397,861,258,0,0,785,24583,-2560,650,,,,,,,,,,,,
61783,1560687693775,7,2.25,2.37,3.04,2.13,2.67,0.35,0.19,0.7,-0,11,1,0.4,10129,100,78,31,86,1034,657.0,635,456,60,120.0,404,1,405,736,258,0,0,745,-10344,-31068,652,,,,,,,,,,,,
61803,1560687693795,4,2.25,2.39,2.92,2.16,2.51,0.42,0.21,0.72,0,9,0,0.47,10251,100,78,31,85,1149,663.0,651,451,60,121.0,374,1,413,612,247,0,0,694,-27404,-10399,663,,,,,,,,,,,,
61823,1560687693815,2,2.26,2.41,2.79,2.19,2.37,0.47,0.14,0.77,-1,10,3,0.49,9801,100,78,31,86,1258,671.0,649,454,60,120.0,374,1,405,595,247,0,0,723,8958,-13580,667,,,,,,,,,,,,
61843,1560687693835,4,2.26,2.42,2.7,2.21,2.35,0.46,0.18,0.84,-2,8,5,0.49,9532,100,78,31,86,1347,676.0,632,458,60,121.0,374,1,417,589,247,0,0,714,-2826,19188,671,45.701847,4.911337,62.98,201.0,0,0.0,0,0.0,0.5017,1,0.36,1.0307
61863,1560687693855,6,2.26,2.52,2.71,2.24,2.38,0.6,0.01,0.93,-1,6,4,0.6,9393,100,78,31,86,1439,677.0,640,458,60,121.0,374,1,418,588,247,0,0,698,-26892,-30694,674,,,,,,,,,,,,
61883,1560687693875,2,2.25,2.57,2.76,2.27,2.48,0.52,0.05,0.82,-0,6,2,0.52,9393,100,78,31,86,1414,678.0,636,460,60,120.0,374,1,418,588,247,0,0,712,-2345,19188,678,,,,,,,,,,,,
61903,1560687693895,5,2.24,2.58,2.91,2.29,2.56,0.47,0.12,0.77,-1,2,1,0.48,9527,100,78,31,86,1381,683.0,641,455,60,120.0,310,1,417,589,211,0,0,717,-26562,8010,683,,,,,,,,,,,,
61923,1560687693915,4,2.26,2.58,3.05,2.29,2.67,0.55,-0.04,0.79,-1,-1,-0,0.55,9720,100,78,31,86,1290,685.0,644,456,60,120.0,310,1,409,593,211,0,0,716,-10399,-3450,681,,,,,,,,,,,,
61943,1560687693935,4,2.26,2.59,3.16,2.27,2.74,0.44,0.01,0.82,-0,-1,-1,0.44,9904,100,78,31,85,1199,696.0,643,455,60,121.0,310,1,400,580,211,0,0,726,11576,-13580,690,45.701836,4.911355,65.53,201.0,0,0.0,0,0.0,0.5033,1,0.36,1.0324
61963,1560687693955,3,2.26,2.59,3.28,2.28,2.82,0.44,0.03,0.88,0,-1,-1,0.44,10168,100,78,31,85,1134,699.0,655,459,60,120.0,310,1,407,582,211,0,0,759,-3584,13016,695,,,,,,,,,,,,
61983,1560687693975,6,2.26,2.57,3.33,2.29,2.81,0.54,-0.03,0.87,0,-1,-2,0.54,10382,100,78,31,85,1069,702.0,652,454,60,121.0,310,1,421,582,211,0,0,767,8010,-2358,698,,,,,,,,,,,,
62003,1560687693991,1,2.26,2.52,3.27,2.24,2.81,0.48,-0.0,0.87,-1,-1,-2,0.48,10498,100,78,31,85,1011,710.0,654,459,60,121.0,329,1,430,582,231,0,0,754,-3888,-2426,706,,,,,,,,,,,,
62023,1560687694011,1,2.28,2.47,3.09,2.21,2.72,0.45,0.04,0.97,-1,1,-1,0.45,10510,100,78,31,85,953,714.0,647,453,60,120.0,329,1,431,582,231,0,0,737,204,5876,711,,,,,,,,,,,,
62043,1560687694031,3,2.26,2.47,2.93,2.21,2.58,0.43,0.06,0.97,-0,4,-2,0.43,10393,100,78,31,85,949,718.0,656,459,60,120.0,329,1,423,582,231,0,0,763,-3450,-22796,719,45.701824,4.911374,68.0,201.0,0,0.0,0,0.0,0.505,1,0.36,1.034
62063,1560687694051,6,2.27,2.45,2.83,2.21,2.45,0.36,0.06,0.97,1,3,-2,0.37,10173,100,78,31,85,956,725.0,644,455,60,121.0,329,1,407,582,231,0,0,765,1524,-3344,721,,,,,,,,,,,,
62083,1560687694071,6,2.26,2.43,2.73,2.21,2.28,0.36,0.05,1.04,1,3,-1,0.36,9962,100,78,31,85,964,730.0,639,455,60,121.0,329,1,397,581,231,0,0,745,-2830,-13068,730,,,,,,,,,,,,
62103,1560687694095,1,2.27,2.41,2.68,2.24,2.21,0.49,-0.15,1.12,0,2,-1,0.51,9978,100,78,31,85,971,730.0,646,455,60,120.0,300,1,397,582,220,0,0,743,-13580,6790,730,,,,,,,,,,,,
62123,1560687694115,5,2.27,2.48,2.73,2.25,2.34,0.36,-0.06,1.03,1,2,-1,0.37,10096,100,78,31,85,974,731.0,647,459,60,120.0,300,1,401,582,220,0,0,754,-2314,-31068,730,,,,,,,,,,,,
62143,1560687694135,6,2.27,2.49,2.9,2.24,2.47,0.42,-0.04,1.09,1,0,-2,0.43,10223,100,78,31,85,974,734.0,648,453,60,121.0,300,1,411,582,220,0,0,759,-2826,7413,732,45.701817,4.911393,69.72,201.1,0,0.0,0,0.0,0.5067,1,0.37,1.0357
62163,1560687694155,4,2.25,2.5,3.03,2.26,2.63,0.46,-0.07,1.03,0,-2,-1,0.46,10422,100,78,31,85,973,734.0,652,455,60,120.0,300,1,425,582,220,0,0,778,-3580,-10216,732,,,,,,,,,,,,
62183,1560687694175,6,2.25,2.53,3.23,2.29,2.69,0.42,-0.03,1.08,0,-3,0,0.43,10569,100,78,31,85,971,740.0,653,456,60,121.0,300,1,432,582,220,0,0,778,-2356,-2830,738,,,,,,,,,,,,
62203,1560687694195,5,2.26,2.59,3.3,2.33,2.9,0.47,0.06,0.98,0,-3,-0,0.48,10813,100,78,31,85,969,741.0,658,459,60,121.0,321,1,439,564,237,0,0,781,-2314,-3450,740,,,,,,,,,,,,
62223,1560687694215,2,2.25,2.61,3.38,2.42,2.92,0.41,-0.08,1.02,-1,-5,-0,0.42,11134,100,78,31,84,966,743.0,661,456,60,121.0,321,1,442,564,237,0,0,819,-22796,-10212,743,,,,,,,,,,,,
62243,1560687694235,4,2.25,2.62,3.36,2.48,2.94,0.38,-0.07,0.98,-1,-6,0,0.39,11220,100,78,31,84,963,749.0,655,453,60,120.0,321,1,442,564,237,0,0,838,-3344,-22796,744,45.701801,4.911413,72.5,201.1,0,0.0,0,0.0,0.5083,1,0.37,1.0374
62263,1560687694255,4,2.25,2.63,3.29,2.46,2.93,0.41,0.09,0.95,-1,-6,-1,0.42,11405,100,78,31,84,960,752.0,663,453,60,120.0,321,1,441,564,237,0,0,805,-31068,-11019,749,,,,,,,,,,,,
62283,1560687694275,6,2.25,2.63,3.24,2.46,2.89,0.43,0.08,0.86,-2,-6,-1,0.44,11574,100,78,31,84,959,760.0,667,455,60,120.0,321,1,440,565,237,0,0,826,-10218,-2830,755,,,,,,,,,,,,
62303,1560687694297,5,2.25,2.63,3.23,2.42,2.84,0.42,0.04,0.85,-2,-4,-1,0.42,11602,96,78,31,83,959,760.0,667,457,60,120.0,329,1,440,548,249,0,0,895,6389,-2358,756,,,,,,,,,,,,
62323,1560687694317,4,2.24,2.62,3.17,2.41,2.72,0.3,0.05,0.85,-2,-2,-2,0.3,11559,83,78,31,81,952,769.0,672,456,60,120.0,329,1,440,530,249,0,0,862,-2344,-2830,764,,,,,,,,,,,,
62343,1560687694337,8,2.25,2.61,3.03,2.35,2.6,0.27,-0.01,0.96,-2,-3,0,0.27,11405,69,78,31,76,941,779.0,659,458,60,120.0,329,1,441,497,249,0,0,800,-23308,-1576,771,45.70179,4.911434,74.49,201.1,0,0.0,0,0.0,0.51,1,0.37,1.039
62363,1560687694357,4,2.26,2.61,2.92,2.32,2.52,0.22,0.19,0.98,-2,-4,1,0.29,11048,56,79,31,70,931,781.0,656,455,60,120.0,329,1,449,461,249,0,0,826,-2826,-2826,773,,,,,,,,,,,,
62383,1560687694377,4,2.26,2.61,2.85,2.32,2.53,0.32,0.14,1.02,-2,-5,0,0.35,10757,40,78,31,62,920,782.0,652,456,60,121.0,329,1,450,408,249,0,0,817,-2344,204,777,,,,,,,,,,,,
62403,1560687694395,8,2.26,2.6,2.84,2.33,2.53,0.31,0.06,1.02,-1,-5,-1,0.31,10364,27,78,31,54,902,782.0,650,456,60,121.0,174,1,400,332,136,0,0,796,-10218,6905,782,,,,,,,,,,,,
62423,1560687694415,11,2.25,2.52,2.89,2.31,2.59,0.35,0.15,0.81,-1,-5,-3,0.38,9957,20,78,31,48,875,782.0,649,455,60,121.0,174,1,382,257,136,0,0,785,-22795,-2826,781,,,,,,,,,,,,
62443,1560687694435,12,2.27,2.36,3.08,2.15,2.76,0.52,-0.04,0.92,-1,-9,-2,0.52,9755,18,78,31,43,854,779.0,642,454,60,121.0,174,1,350,230,136,0,0,772,-2574,-2830,781,45.701778,4.911455,75.9,201.1,0,0.0,0,0.0,0.5117,1,0.37,1.0407
62463,1560687694455,11,2.27,2.19,3.36,1.95,2.98,0.43,-0.0,0.75,-1,-8,-4,0.43,9498,17,78,31,40,840,779.0,645,461,60,121.0,174,1,327,218,136,0,0,760,-31066,-2826,780,,,,,,,,,,,,
62483,1560687694475,13,2.27,2.15,3.52,1.91,3.08,0.48,0.01,0.75,-0,-11,-3,0.48,9342,16,78,31,38,821,780.0,643,460,60,122.0,174,1,317,212,136,0,0,756,-31068,13016,774,,,,,,,,,,,,
62503,1560687694496,15,2.26,2.12,3.54,1.87,3.07,0.64,-0.03,0.72,-0,-6,-4,0.64,9300,16,78,31,36,797,779.0,642,460,60,122.0,95,1,311,205,74,0,0,721,-31068,-2826,774,,,,,,,,,,,,
62523,1560687694516,16,2.27,2.07,3.44,1.81,3.0,0.69,-0.07,0.62,-0,-6,-3,0.7,9379,16,78,31,34,777,774.0,652,459,60,121.0,95,1,305,203,74,0,0,733,7413,-3344,772,,,,,,,,,,,,
62543,1560687694536,12,2.27,1.99,3.38,1.76,2.92,0.55,0.07,0.58,1,-4,-2,0.55,9464,16,79,31,33,768,768.0,649,463,60,121.0,95,1,302,199,74,0,0,734,13016,-3344,766,45.701767,4.911477,78.0,201.1,0,0.0,0,0.0,0.5133,1,0.37,1.0424
62563,1560687694556,11,2.28,1.97,3.35,1.76,2.87,0.69,0.01,0.53,0,-1,-4,0.69,9479,16,78,31,32,770,760.0,646,457,60,121.0,95,1,300,199,74,0,0,739,-10218,1037,757,,,,,,,,,,,,
62583,1560687694576,12,2.27,1.95,3.34,1.74,2.83,0.83,-0.07,0.55,0,-5,-3,0.83,9537,16,78,31,32,795,756.0,645,461,60,122.0,95,1,300,198,74,0,0,739,-31066,3462,756,,,,,,,,,,,,
62603,1560687694596,11,2.28,1.94,3.33,1.72,2.84,0.7,-0.05,0.41,1,-1,-3,0.7,9561,16,78,31,31,822,753.0,642,456,60,121.0,94,1,295,197,71,0,0,735,-23308,-3344,753,,,,,,,,,,,,
62623,1560687694616,13,2.27,1.9,3.36,1.7,2.84,0.73,-0.08,0.4,1,-1,-1,0.73,9595,16,78,31,30,854,747.0,650,460,60,122.0,94,1,291,195,71,0,0,717,-31066,-2830,745,,,,,,,,,,,,
62643,1560687694636,13,2.27,1.9,3.4,1.7,2.89,0.77,-0.13,0.49,0,1,-2,0.78,9664,17,78,31,30,885,744.0,646,460,60,121.0,94,1,291,196,71,0,0,717,-2826,16118,745,45.701756,4.911499,76.72,201.1,0,0.0,0,0.0,0.515,1,0.38,1.044
62663,1560687694656,9,2.26,1.89,3.4,1.7,2.91,0.78,-0.08,0.4,0,3,-3,0.78,9679,17,78,31,30,910,742.0,641,456,60,122.0,94,1,291,197,71,0,0,715,-2826,-13312,741,,,,,,,,,,,,
62683,1560687694676,10,2.28,1.89,3.4,1.7,2.95,0.9,-0.15,0.38,-0,0,-3,0.91,9664,17,79,31,29,932,739.0,651,461,60,121.0,94,1,287,195,71,0,0,723,1037,16599,735,,,,,,,,,,,,
62703,1560687694696,8,2.27,1.89,3.38,1.71,2.96,0.77,-0.17,0.28,1,6,-3,0.79,9640,17,78,31,29,922,734.0,650,458,60,121.0,96,1,287,194,71,0,0,704,-2314,11069,734,,,,,,,,,,,,
62723,1560687694716,12,2.26,1.9,3.37,1.71,2.95,0.89,-0.22,0.34,1,2,-2,0.92,9595,17,78,31,29,911,727.0,651,460,60,121.0,96,1,287,194,71,0,0,711,-4091,-2830,727,,,,,,,,,,,,
62743,1560687694736,6,2.26,1.9,3.35,1.71,2.9,0.8,-0.24,0.3,1,6,-2,0.83,9615,17,78,31,29,893,725.0,656,462,60,121.0,96,1,287,194,71,0,0,713,-25858,-3888,725,45.70174,4.91152,74.47,201.1,0,0.0,0,0.0,0.5167,1,0.38,1.0457
62763,1560687694756,9,2.26,1.9,3.34,1.71,2.9,0.91,-0.18,0.25,1,5,-3,0.92,9625,17,78,31,29,876,721.0,652,456,60,122.0,96,1,287,193,71,0,0,705,-3450,687,721,,,,,,,,,,,,
62783,1560687694776,11,2.27,1.89,3.34,1.7,2.89,1.02,-0.2,0.31,-0,2,-2,1.04,9610,17,78,31,28,869,718.0,651,458,60,121.0,96,1,282,193,71,0,0,699,-23490,-10448,719,,,,,,,,,,,,
62803,1560687694796,7,2.26,1.89,3.34,1.71,2.9,0.79,-0.16,0.25,1,5,-3,0.81,9512,17,78,31,28,862,716.0,647,458,60,121.0,96,1,282,192,69,0,0,701,204,6208,715,,,,,,,,,,,,
62823,1560687694816,8,2.27,1.89,3.34,1.71,2.92,0.91,-0.24,0.27,0,4,-3,0.94,9431,17,78,31,28,860,712.0,649,456,60,121.0,96,1,282,191,69,0,0,695,204,24,713,,,,,,,,,,,,
62843,1560687694836,9,2.26,1.89,3.34,1.71,2.92,0.95,-0.29,0.29,0,6,-3,1.0,9393,17,78,31,28,859,710.0,645,461,60,121.0,96,1,282,191,69,0,0,693,-12152,11576,709,45.701733,4.91154,72.47,201.1,0,0.0,0,0.0,0.5183,1,0.38,1.0474
62863,1560687694856,6,2.27,1.89,3.35,1.7,2.92,0.79,-0.15,0.15,1,7,-3,0.8,9365,17,78,31,28,865,707.0,649,459,60,121.0,96,1,282,190,69,0,0,684,687,3543,704,,,,,,,,,,,,
62883,1560687694876,8,2.27,1.89,3.37,1.71,2.89,0.75,-0.12,0.15,2,7,-2,0.76,9323,17,78,31,28,871,703.0,642,459,60,121.0,96,1,282,190,69,0,0,683,15647,11576,700,,,,,,,,,,,,
62903,1560687694896,11,2.26,1.89,3.38,1.7,2.88,0.88,-0.23,0.23,1,6,-3,0.91,9282,17,78,31,27,886,700.0,646,460,60,122.0,94,1,278,189,66,0,0,679,-10448,16118,695,,,,,,,,,,,,
62923,1560687694916,12,2.26,1.95,3.37,1.74,2.85,0.99,-0.27,0.29,-0,1,-3,1.03,9245,17,78,31,27,901,691.0,645,463,60,122.0,94,1,278,189,66,0,0,677,1780,-26892,687,,,,,,,,,,,,
62943,1560687694936,12,2.26,2.0,3.38,1.77,2.92,0.97,-0.22,0.27,-1,0,-4,1.0,9155,17,78,31,27,912,684.0,644,459,60,121.0,94,1,278,189,66,0,0,669,24845,-3038,682,45.701717,4.911561,70.69,201.1,0,0.0,0,0.0,0.52,1,0.38,1.049
62963,1560687694956,13,2.27,2.0,3.39,1.76,2.99,0.85,-0.11,0.24,-1,-2,-3,0.86,9097,17,78,31,27,922,683.0,644,458,60,121.0,94,1,278,188,66,0,0,667,-10344,1549,678,,,,,,,,,,,,
62983,1560687694976,17,2.25,2.0,3.39,1.75,3.0,0.8,-0.02,0.11,-0,0,-4,0.8,8920,17,78,31,27,947,679.0,641,463,60,121.0,94,1,278,188,66,0,0,662,-2345,-26380,675,,,,,,,,,,,,
63003,1560687694996,17,2.26,2.0,3.44,1.75,3.06,0.69,0.03,0.06,-0,-3,-4,0.69,8869,17,78,31,27,975,675.0,636,460,60,122.0,93,1,278,188,63,0,0,640,-2345,-2830,671,,,,,,,,,,,,
63023,1560687695010,17,2.26,2.0,3.54,1.74,3.16,0.75,0.01,-0.02,-1,-2,-5,0.75,8724,17,78,31,27,996,672.0,636,462,60,122.0,93,1,278,188,63,0,0,635,-3038,11566,667,,,,,,,,,,,,
63043,1560687695030,16,2.26,1.98,3.56,1.74,3.17,0.8,-0.0,0.02,-1,-1,-5,0.8,8573,17,78,31,27,1013,672.0,632,461,60,122.0,93,1,278,188,63,0,0,635,-2830,-3584,668,45.70171,4.91158,69.13,201.1,0,0.0,0,0.0,0.5217,1,0.38,1.0507
63063,1560687695050,18,2.27,1.96,3.52,1.73,3.14,0.81,-0.03,-0.04,-1,-1,-4,0.81,8468,17,78,31,28,1050,667.0,634,455,60,121.0,93,1,282,184,63,0,0,634,-10348,-10251,665,,,,,,,,,,,,
63083,1560687695070,17,2.27,1.96,3.46,1.74,3.09,0.83,-0.05,-0.01,-1,-1,-2,0.83,8411,17,78,31,28,1093,658.0,631,460,60,122.0,93,1,282,182,63,0,0,627,-26380,-18357,658,,,,,,,,,,,,
63103,1560687695096,14,2.27,1.95,3.44,1.74,3.09,0.91,-0.1,0.04,-1,-0,-2,0.91,8423,17,78,31,29,1126,655.0,638,463,60,123.0,88,1,286,183,58,0,0,621,-2830,30227,655,,,,,,,,,,,,
63123,1560687695116,16,2.27,1.92,3.41,1.7,3.09,0.94,-0.05,0.02,-1,-1,-2,0.94,8340,17,78,31,29,1153,650.0,637,461,60,123.0,88,1,284,181,58,0,0,631,-6006,-1346,650,,,,,,,,,,,,
63143,1560687695136,15,2.27,1.88,3.38,1.67,3.03,1.0,-0.14,0.08,0,-2,-1,1.01,8359,17,78,31,30,1178,648.0,636,461,60,123.0,88,1,289,181,58,0,0,616,-3584,19320,648,45.701698,4.911599,67.31,201.1,0,0.0,0,0.0,0.5233,1,0.39,1.0524
63163,1560687695156,13,2.28,1.86,3.42,1.65,3.0,1.02,-0.15,0.03,1,-0,-2,1.03,8363,17,78,31,30,1202,642.0,638,458,60,122.0,88,1,289,180,58,0,0,593,-3584,-28304,642,,,,,,,,,,,,
63183,1560687695176,13,2.28,1.84,3.48,1.65,2.95,1.03,-0.15,0.09,1,-1,-2,1.04,8259,17,78,31,30,1215,638.0,635,461,60,122.0,88,1,287,177,58,0,0,597,-2580,19304,637,,,,,,,,,,,,
63203,1560687695196,11,2.3,1.84,3.5,1.65,2.89,1.09,-0.1,-0.02,1,1,-1,1.09,8180,17,78,31,31,1214,633.0,635,458,60,122.0,85,1,289,176,54,0,0,605,-5120,30721,633,,,,,,,,,,,,
63223,1560687695216,14,2.28,1.83,3.47,1.65,2.88,1.16,-0.14,0.07,1,1,-1,1.16,8318,17,78,31,31,1201,627.0,627,456,60,121.0,85,1,292,263,54,0,0,609,20993,-7939,625,,,,,,,,,,,,
63243,1560687695236,17,2.29,1.84,3.47,1.64,2.9,1.12,-0.08,0.03,1,2,-1,1.12,8370,16,78,31,31,1177,623.0,631,457,60,120.0,85,1,293,246,54,0,0,606,3395,17740,619,45.701687,4.911618,64.91,201.1,0,0.0,0,0.0,0.525,1,0.39,1.054
63263,1560687695256,11,2.29,1.86,3.46,1.67,2.89,1.16,-0.09,0.04,1,3,-1,1.16,8267,17,78,31,30,1153,619.0,629,456,60,121.0,85,1,287,220,54,0,0,611,269,-3446,614,,,,,,,,,,,,
63283,1560687695276,14,2.29,1.88,3.45,1.68,2.9,1.11,-0.1,0.11,2,2,-0,1.11,8241,17,78,31,29,1131,615.0,626,461,60,120.0,85,1,283,197,54,0,0,601,26688,-3820,612,,,,,,,,,,,,
63303,1560687695296,11,2.29,1.88,3.45,1.69,2.89,1.16,-0.15,0.15,1,2,-1,1.17,8223,16,78,31,28,1111,610.0,627,459,60,121.0,91,1,280,177,56,0,0,606,-3446,243,610,,,,,,,,,,,,
63323,1560687695316,14,2.29,1.87,3.44,1.68,2.94,1.14,-0.18,0.23,1,2,-0,1.15,8138,16,78,32,27,1094,608.0,631,457,60,120.0,91,1,276,168,56,0,0,601,-23055,23619,609,,,,,,,,,,,,
63343,1560687695336,11,2.29,1.86,3.42,1.69,2.97,1.13,-0.15,0.23,1,1,-0,1.14,8033,16,78,32,27,1082,604.0,622,459,60,121.0,91,1,275,162,56,0,0,591,-768,-32504,604,45.701679,4.911636,62.52,201.1,0,0.0,0,0.0,0.5267,1,0.39,1.0557
63363,1560687695356,13,2.29,1.85,3.42,1.68,3.0,1.15,-0.11,0.17,1,1,0,1.16,8033,16,78,32,27,1087,603.0,627,460,60,120.0,91,1,275,162,56,0,0,592,4956,17344,603,,,,,,,,,,,,
63383,1560687695376,14,2.29,1.83,3.41,1.69,2.99,1.08,-0.16,0.15,2,3,1,1.09,7961,16,78,32,27,1081,605.0,622,460,60,120.0,91,1,275,161,56,0,0,586,23619,-25872,604,,,,,,,,,,,,
63403,1560687695396,10,2.29,1.82,3.41,1.72,2.97,1.1,-0.21,0.18,2,2,2,1.12,7894,16,78,32,27,1061,599.0,621,458,60,121.0,79,1,274,161,48,0,0,579,-32504,-1894,599,,,,,,,,,,,,
63423,1560687695416,10,2.3,1.81,3.42,1.72,2.94,1.14,-0.18,0.15,3,3,3,1.15,7894,16,78,32,27,1040,599.0,622,460,60,121.0,79,1,274,161,48,0,0,583,2048,8488,598,,,,,,,,,,,,
63443,1560687695436,6,2.31,1.79,3.42,1.73,2.91,1.09,-0.18,0.13,3,4,3,1.1,7861,16,78,32,27,1015,594.0,622,456,60,121.0,79,1,274,161,48,0,0,579,-12040,-3210,594,45.701668,4.911653,60.87,201.1,0,0.0,0,0.0,0.5283,1,0.39,1.0574
63463,1560687695456,6,2.3,1.79,3.41,1.77,2.86,0.95,-0.23,0.18,5,5,3,0.97,7851,16,78,32,27,987,593.0,622,460,60,120.0,79,1,274,161,48,0,0,580,-1894,-12040,593,,,,,,,,,,,,
63483,1560687695476,-1,2.31,1.79,3.4,1.84,2.8,0.95,-0.31,0.16,5,6,3,1.0,7878,16,78,32,27,949,591.0,625,460,60,120.0,79,1,274,161,48,0,0,578,8488,8488,592,,,,,,,,,,,,
63503,1560687695495,3,2.31,1.79,3.42,1.83,2.78,1.05,-0.27,0.14,5,5,3,1.08,7864,16,78,32,27,914,591.0,622,456,60,121.0,81,1,274,161,48,0,0,571,8488,-16384,591,,,,,,,,,,,,
63523,1560687695515,4,2.29,1.78,3.42,1.84,2.75,1.0,-0.23,0.2,5,5,3,1.02,7868,16,78,32,27,900,589.0,617,460,60,120.0,81,1,274,161,48,0,0,574,8488,-4035,587,,,,,,,,,,,,
63543,1560687695535,9,2.3,1.78,3.39,1.84,2.75,0.95,-0.23,0.26,5,5,4,0.98,7878,16,78,32,27,887,585.0,620,459,60,120.0,81,1,274,161,48,0,0,571,-3210,-16384,585,45.701656,4.91167,59.0,201.1,0,0.0,0,0.0,0.53,1,0.39,1.059
63563,1560687695555,14,2.29,1.79,3.4,1.83,2.78,1.04,-0.28,0.3,5,4,4,1.07,7802,16,78,32,27,875,577.0,627,456,60,121.0,81,1,274,161,48,0,0,569,-8188,1,575,,,,,,,,,,,,
63583,1560687695575,17,2.28,1.8,3.42,1.81,2.82,1.14,-0.23,0.31,4,1,4,1.16,7747,16,78,32,27,863,574.0,625,460,60,121.0,81,1,273,161,48,0,0,564,-8186,-8186,574,,,,,,,,,,,,
63603,1560687695595,23,2.28,1.79,3.43,1.81,2.84,1.22,-0.22,0.32,3,-1,3,1.24,7646,16,78,32,27,864,570.0,622,457,60,120.0,82,1,272,161,47,0,0,555,-30159,-30159,570,,,,,,,,,,,,
63623,1560687695615,24,2.28,1.78,3.46,1.78,2.86,1.28,-0.13,0.22,3,-1,4,1.28,7578,16,78,32,27,866,564.0,626,458,60,121.0,82,1,272,161,47,0,0,546,-28648,2104,563,,,,,,,,,,,,
63643,1560687695635,23,2.27,1.78,3.49,1.74,2.89,1.22,-0.13,0.15,3,-0,5,1.22,7437,16,78,32,27,867,560.0,618,459,60,121.0,82,1,271,161,47,0,0,540,2216,6274,560,45.701649,4.911686,57.84,201.1,0,0.0,0,0.0,0.5317,1,0.39,1.0607
63663,1560687695655,23,2.27,1.78,3.5,1.72,2.91,1.19,-0.1,0.04,3,-1,6,1.2,7419,16,79,32,28,869,554.0,618,453,60,122.0,82,1,275,163,47,0,0,511,-28648,10408,554,,,,,,,,,,,,
63683,1560687695675,20,2.29,1.77,3.51,1.68,2.94,1.28,-0.02,0.03,2,-6,8,1.28,7461,16,79,32,28,869,551.0,616,456,60,122.0,82,1,275,163,47,0,0,443,6274,-6387,548,,,,,,,,,,,,
63703,1560687695695,20,2.28,1.75,3.52,1.62,2.94,1.29,0.06,0.01,1,-7,8,1.29,7671,16,79,32,29,868,547.0,622,460,60,122.0,85,1,279,163,47,0,0,424,2524,20625,546,,,,,,,,,,,,
63723,1560687695715,20,2.29,1.72,3.51,1.59,2.94,1.29,-0.0,-0.03,2,-5,9,1.29,7776,16,79,32,28,870,541.0,626,460,60,122.0,85,1,276,163,47,0,0,383,1780,-3866,541,,,,,,,,,,,,
63743,1560687695735,23,2.28,1.71,3.48,1.59,2.92,1.03,-0.01,-0.07,3,-1,9,1.03,7731,16,79,32,28,872,534.0,619,458,60,120.0,85,1,276,163,47,0,0,411,14504,1504,534,45.701641,4.911702,56.44,201.1,0,0.0,0,0.0,0.5333,1,0.4,1.0624
63763,1560687695755,22,2.3,1.73,3.43,1.61,2.93,0.97,-0.07,-0.15,4,1,8,0.97,7725,16,79,32,28,874,527.0,618,459,60,121.0,85,1,276,163,47,0,0,460,2088,3571,527,,,,,,,,,,,,
63783,1560687695775,20,2.3,1.74,3.42,1.63,2.92,1.06,-0.11,-0.07,4,-2,6,1.07,7789,16,79,32,28,876,519.0,629,457,60,122.0,85,1,276,163,47,0,0,423,15679,21580,519,,,,,,,,,,,,
63803,1560687695795,20,2.31,1.73,3.42,1.64,2.91,1.16,-0.12,-0.0,4,-2,5,1.17,7965,16,79,32,28,879,515.0,626,457,60,122.0,94,1,278,163,49,0,0,405,-3414,8488,515,,,,,,,,,,,,
63823,1560687695815,19,2.31,1.71,3.45,1.64,2.91,1.17,-0.16,0.02,4,-3,5,1.18,8005,16,79,32,27,883,509.0,626,454,60,122.0,94,1,275,161,49,0,0,406,-32248,8488,509,,,,,,,,,,,,
63843,1560687695835,14,2.31,1.7,3.47,1.62,2.94,1.17,-0.29,0.06,4,-4,6,1.21,8057,16,79,32,27,886,506.0,630,460,60,121.0,94,1,276,164,49,0,0,406,-22519,3635,506,45.701633,4.911716,53.61,201.1,0,0.0,0,0.0,0.535,1,0.4,1.064
63863,1560687695855,12,2.3,1.71,3.48,1.62,2.95,1.25,-0.26,0.07,4,-4,6,1.27,8067,16,79,32,27,888,504.0,631,461,60,122.0,94,1,276,165,49,0,0,438,3,10305,504,,,,,,,,,,,,
63883,1560687695875,13,2.3,1.71,3.5,1.64,2.95,1.11,-0.21,0.08,5,-4,7,1.13,8078,16,79,32,27,890,497.0,624,461,60,121.0,94,1,276,165,49,0,0,446,-32768,21432,497,,,,,,,,,,,,
63903,1560687695895,7,2.29,1.71,3.51,1.62,2.96,1.17,-0.28,0.13,5,-5,5,1.21,8134,16,79,32,26,893,496.0,632,460,60,122.0,104,1,273,169,52,0,0,438,-6656,21580,496,,,,,,,,,,,,
63923,1560687695915,7,2.28,1.72,3.51,1.67,2.94,1.05,-0.28,0.09,6,-3,5,1.09,8223,16,79,32,26,894,493.0,633,462,60,121.0,104,1,273,173,52,0,0,423,505,19477,493,,,,,,,,,,,,
63943,1560687695935,3,2.28,1.74,3.51,1.73,2.94,1.1,-0.33,0.13,5,-4,5,1.15,8285,16,79,32,26,894,488.0,631,461,60,122.0,104,1,273,176,52,0,0,447,3580,-6387,488,45.701622,4.91173,51.08,201.1,0,0.0,0,0.0,0.5367,1,0.4,1.0657
63963,1560687695955,4,2.28,1.74,3.49,1.71,2.92,1.04,-0.34,0.11,6,-2,6,1.1,8378,16,79,32,26,895,485.0,635,458,60,121.0,104,1,273,180,52,0,0,470,8488,14488,485,,,,,,,,,,,,
63983,1560687695975,2,2.28,1.74,3.46,1.73,2.9,1.12,-0.28,0.14,5,-3,6,1.15,8442,16,79,32,25,896,483.0,632,460,60,122.0,104,1,270,184,52,0,0,461,-17956,17628,480,,,,,,,,,,,,
64003,1560687695991,0,2.27,1.74,3.45,1.73,2.88,1.07,-0.34,0.21,5,-3,6,1.13,8577,16,79,32,25,898,479.0,640,458,60,121.0,127,1,270,188,61,0,0,461,-9203,-23623,479,,,,,,,,,,,,
64023,1560687696011,0,2.27,1.74,3.43,1.74,2.87,0.97,-0.31,0.22,4,-3,6,1.02,8684,16,79,32,24,898,472.0,638,460,60,121.0,127,1,270,181,61,0,0,465,-1923,-23623,472,,,,,,,,,,,,
64043,1560687696031,5,2.26,1.76,3.43,1.72,2.89,0.93,-0.29,0.13,4,-3,6,0.98,8749,16,79,32,24,900,470.0,638,456,60,121.0,127,1,270,181,61,0,0,453,8488,3571,469,45.701618,4.911744,48.84,201.1,0,0.0,0,0.0,0.5383,1,0.4,1.0674
64063,1560687696051,5,2.27,1.77,3.44,1.73,2.92,0.99,-0.21,0.17,3,-2,5,1.01,8765,16,79,32,23,903,469.0,642,463,60,122.0,127,1,270,181,61,0,0,462,10432,-3210,469,,,,,,,,,,,,
64083,1560687696071,3,2.27,1.77,3.39,1.73,2.87,0.95,-0.25,0.3,3,-4,5,0.98,8692,16,79,32,23,906,468.0,636,461,60,122.0,127,1,270,176,61,0,0,468,-16384,2211,468,,,,,,,,,,,,
64103,1560687696095,1,2.27,1.8,3.33,1.73,2.87,0.93,-0.22,0.37,3,-3,4,0.96,8589,16,79,32,24,908,468.0,634,460,60,122.0,122,1,270,181,57,0,0,462,-3210,17628,467,,,,,,,,,,,,
64123,1560687696115,6,2.27,1.82,3.31,1.73,2.84,0.9,-0.13,0.29,2,-2,4,0.91,8495,16,79,32,24,910,465.0,636,453,60,121.0,122,1,270,180,57,0,0,460,30272,2211,463,,,,,,,,,,,,
64143,1560687696135,2,2.27,1.82,3.31,1.73,2.86,0.97,-0.28,0.33,2,-2,4,1.01,8404,16,79,32,24,912,462.0,637,458,60,122.0,122,1,270,177,57,0,0,458,2211,14488,462,45.701607,4.911756,46.99,201.1,0,0.0,0,0.0,0.54,1,0.4,1.069
64163,1560687696155,-2,2.3,1.82,3.32,1.74,2.91,0.9,-0.18,0.29,2,-2,4,0.92,8363,16,79,32,25,913,461.0,635,462,60,122.0,122,1,270,179,57,0,0,455,-18108,-3267,461,,,,,,,,,,,,
64183,1560687696175,3,2.3,1.81,3.35,1.73,2.93,0.93,-0.21,0.25,2,-2,4,0.95,8381,17,79,32,26,912,461.0,638,458,60,121.0,122,1,273,180,57,0,0,446,-9160,21432,461,,,,,,,,,,,,
64203,1560687696197,0,2.3,1.82,3.36,1.74,2.91,0.98,-0.33,0.34,3,-1,4,1.03,8348,22,79,32,27,913,460.0,631,459,60,122.0,122,1,277,179,56,0,0,443,-8985,10305,460,,,,,,,,,,,,
64223,1560687696217,5,2.31,1.82,3.35,1.8,2.89,0.93,-0.28,0.36,3,-2,4,0.97,8359,28,79,32,30,916,456.0,637,458,60,121.0,122,1,289,180,56,0,0,444,-6387,16648,457,,,,,,,,,,,,
64243,1560687696237,1,2.32,1.81,3.35,1.83,2.86,0.95,-0.25,0.33,4,-0,3,0.98,8453,34,79,33,33,918,456.0,640,458,60,122.0,122,1,301,189,56,0,0,443,10305,2131,456,45.701599,4.911769,46.01,201.1,0,0.0,0,0.0,0.5417,1,0.4,1.0707
64263,1560687696257,-0,2.31,1.81,3.36,1.85,2.83,0.93,-0.25,0.41,4,-0,3,0.97,8538,37,79,33,37,921,451.0,636,459,60,121.0,122,1,314,205,56,0,0,446,8488,10305,451,,,,,,,,,,,,
64283,1560687696277,3,2.31,1.82,3.37,1.85,2.81,0.92,-0.17,0.39,4,0,4,0.93,8604,39,79,33,41,925,452.0,636,456,60,121.0,122,1,332,217,56,0,0,445,8488,16648,452,,,,,,,,,,,,
64303,1560687696295,5,2.32,1.83,3.36,1.87,2.8,0.88,-0.18,0.38,4,0,4,0.9,8692,40,79,33,43,929,454.0,640,461,60,122.0,158,1,345,221,72,0,0,446,10305,8488,453,,,,,,,,,,,,
64323,1560687696315,4,2.33,1.82,3.33,1.92,2.79,0.86,-0.26,0.4,4,-2,5,0.89,8757,41,79,33,45,933,452.0,640,460,60,122.0,158,1,357,227,72,0,0,443,10305,-3267,452,,,,,,,,,,,,
64343,1560687696335,1,2.34,1.83,3.35,1.93,2.79,0.95,-0.33,0.45,4,-1,5,1.0,8811,42,79,33,47,935,452.0,641,457,60,121.0,158,1,370,231,72,0,0,443,21432,-6387,453,45.701592,4.91178,44.92,201.1,0,0.0,0,0.0,0.5433,1,0.4,1.0724
64363,1560687696355,-1,2.36,1.82,3.35,1.96,2.78,1.0,-0.36,0.54,5,-3,6,1.06,8831,42,79,33,48,940,453.0,636,456,60,121.0,158,1,373,239,72,0,0,442,-18341,-6387,453,,,,,,,,,,,,
64383,1560687696375,1,2.36,1.82,3.37,1.96,2.76,1.08,-0.43,0.58,5,-3,6,1.16,8811,43,79,33,49,952,453.0,641,454,60,121.0,158,1,377,247,72,0,0,440,21432,-6387,454,,,,,,,,,,,,
64403,1560687696397,22,2.37,1.82,3.4,1.97,2.74,1.04,-0.39,0.6,6,-2,7,1.11,8782,43,79,33,50,963,455.0,641,462,60,121.0,187,1,380,255,85,0,0,440,20625,8488,455,,,,,,,,,,,,
64423,1560687696417,3,2.38,1.83,3.42,2.06,2.74,0.95,-0.34,0.47,7,-3,7,1.0,8782,43,79,33,51,973,455.0,638,460,60,122.0,187,1,384,265,85,0,0,440,21580,-3267,455,,,,,,,,,,,,
64443,1560687696437,2,2.37,1.84,3.46,2.1,2.72,0.89,-0.37,0.45,8,-2,9,0.96,8749,43,79,33,52,993,455.0,636,471,60,122.0,187,1,387,270,85,0,0,453,20625,243,455,45.701584,4.911792,44.37,201.1,0,0.0,0,0.0,0.545,1,0.41,1.074
64463,1560687696457,4,2.37,1.85,3.47,2.1,2.68,0.88,-0.46,0.46,8,-1,10,1.0,8616,44,79,33,52,1060,458.0,638,463,60,122.0,187,1,385,274,85,0,0,456,-18341,-18108,458,,,,,,,,,,,,
64483,1560687696477,-0,2.38,1.85,3.46,2.11,2.65,0.85,-0.45,0.59,8,1,10,0.97,8499,44,79,33,53,1129,458.0,631,455,60,120.0,187,1,387,269,85,0,0,465,21432,6193,458,,,,,,,,,,,,
64503,1560687696494,4,2.38,1.87,3.41,2.12,2.61,0.83,-0.32,0.59,9,1,11,0.89,8465,44,79,33,53,1187,460.0,636,457,60,122.0,186,1,387,269,86,0,0,450,2131,12552,460,,,,,,,,,,,,
64523,1560687696514,2,2.37,1.88,3.34,2.12,2.57,0.89,-0.4,0.62,9,-0,11,0.98,8400,44,79,33,53,1246,461.0,633,457,60,122.0,186,1,387,269,86,0,0,449,8488,-9160,461,,,,,,,,,,,,
64543,1560687696534,3,2.38,1.88,3.39,2.1,2.61,0.84,-0.4,0.66,9,-2,11,0.93,8366,44,79,33,54,1325,459.0,631,460,60,121.0,186,1,390,274,86,0,0,454,2131,2524,459,45.701576,4.911804,44.03,201.1,0,0.0,0,0.0,0.5467,1,0.41,1.0757
64563,1560687696554,4,2.38,1.88,3.46,2.1,2.61,0.8,-0.4,0.56,10,-3,11,0.9,8400,44,79,33,54,1405,460.0,635,458,60,122.0,186,1,390,276,86,0,0,446,2131,14488,461,,,,,,,,,,,,
64583,1560687696574,-1,2.39,1.88,3.45,2.1,2.63,0.8,-0.37,0.59,10,-2,13,0.88,8476,44,79,33,54,1430,461.0,630,463,60,122.0,186,1,390,284,86,0,0,446,2131,14488,461,,,,,,,,,,,,
64603,1560687696596,5,2.38,1.88,3.46,2.13,2.62,0.74,-0.27,0.58,10,-2,13,0.78,8573,44,79,33,54,1451,461.0,630,456,60,120.0,195,1,391,279,90,0,0,446,2131,2211,461,,,,,,,,,,,,
64623,1560687696616,4,2.39,1.9,3.44,2.16,2.62,0.7,-0.31,0.56,10,-3,13,0.77,8620,45,79,33,54,1470,462.0,631,461,60,122.0,195,1,392,281,90,0,0,450,23400,16408,462,,,,,,,,,,,,
64643,1560687696636,3,2.38,1.9,3.4,2.14,2.62,0.74,-0.42,0.58,11,-3,14,0.85,8664,45,79,33,54,1490,463.0,635,461,60,122.0,195,1,393,283,90,0,0,452,-18341,2211,463,45.701569,4.911815,44.76,201.1,0,0.0,0,0.0,0.5483,1,0.41,1.0774
64663,1560687696656,1,2.39,1.89,3.39,2.14,2.6,0.78,-0.46,0.67,11,-2,14,0.91,8656,45,79,33,54,1493,465.0,637,450,60,121.0,195,1,393,276,90,0,0,457,10305,6193,465,,,,,,,,,,,,
64683,1560687696676,5,2.4,1.9,3.4,2.15,2.59,0.76,-0.43,0.66,12,-2,14,0.87,8604,45,79,33,54,1491,465.0,638,451,60,121.0,195,1,392,281,90,0,0,460,10305,30272,465,,,,,,,,,,,,
64703,1560687696696,3,2.4,1.89,3.41,2.16,2.59,0.76,-0.45,0.59,12,-2,14,0.88,8620,46,79,33,54,1484,467.0,642,455,60,121.0,197,1,392,281,92,0,0,469,15649,8488,467,,,,,,,,,,,,
64723,1560687696716,1,2.4,1.9,3.42,2.17,2.59,0.81,-0.45,0.53,12,-2,15,0.93,8600,46,79,33,54,1476,468.0,635,462,60,122.0,197,1,392,289,92,0,0,466,-3267,16408,468,,,,,,,,,,,,
64743,1560687696736,0,2.4,1.9,3.51,2.21,2.6,0.76,-0.47,0.64,12,-2,15,0.9,8700,48,79,33,55,1469,467.0,633,446,60,121.0,197,1,398,293,92,0,0,480,15649,30272,467,45.701561,4.911825,45.01,201.1,0,0.0,0,0.0,0.55,1,0.41,1.079
64763,1560687696756,2,2.4,1.89,3.52,2.2,2.59,0.7,-0.47,0.73,13,-0,16,0.84,8790,51,79,33,56,1462,468.0,633,457,60,121.0,197,1,401,303,92,0,0,457,-8985,2211,468,,,,,,,,,,,,
64783,1560687696776,15,2.39,1.9,3.45,2.18,2.59,0.68,-0.44,0.74,12,-2,17,0.81,8869,55,79,33,58,1451,469.0,633,455,60,121.0,197,1,404,314,92,0,0,462,-6387,-16384,469,,,,,,,,,,,,
64803,1560687696794,5,2.38,1.9,3.45,2.18,2.58,0.62,-0.48,0.67,13,-1,17,0.79,8890,60,79,33,60,1438,470.0,645,462,60,121.0,240,1,408,337,113,0,0,475,2524,-16384,470,,,,,,,,,,,,
64823,1560687696814,4,2.39,1.91,3.43,2.19,2.56,0.61,-0.36,0.61,13,-0,16,0.71,8865,65,79,33,64,1428,473.0,632,449,60,121.0,240,1,413,355,113,0,0,473,-26615,3576,473,,,,,,,,,,,,
64843,1560687696834,4,2.38,1.91,3.41,2.19,2.56,0.63,-0.39,0.53,13,0,15,0.74,8676,70,79,33,68,1421,474.0,640,452,60,121.0,240,1,426,374,113,0,0,466,-9160,3576,474,45.701553,4.911835,45.61,201.0,0,0.0,0,0.0,0.5517,1,0.41,1.0807
64863,1560687696854,3,2.4,1.9,3.44,2.2,2.56,0.67,-0.47,0.54,13,0,16,0.82,8596,73,79,33,73,1408,475.0,632,464,60,121.0,240,1,426,427,113,0,0,473,17628,-17956,475,,,,,,,,,,,,
64883,1560687696874,2,2.38,1.9,3.43,2.2,2.56,0.65,-0.45,0.59,13,-1,17,0.79,8745,76,79,33,76,1394,476.0,637,462,60,121.0,240,1,420,456,113,0,0,457,14488,-9203,476,,,,,,,,,,,,
64903,1560687696896,6,2.38,1.9,3.41,2.19,2.58,0.59,-0.4,0.55,13,1,19,0.71,8794,79,79,33,79,1382,475.0,634,461,60,121.0,337,1,420,497,160,0,0,457,14488,-23367,475,,,,,,,,,,,,
64923,1560687696916,4,2.37,1.91,3.41,2.19,2.6,0.54,-0.29,0.48,13,1,19,0.61,9027,80,79,33,80,1374,473.0,642,451,60,120.0,337,1,415,512,160,0,0,461,14488,8488,475,,,,,,,,,,,,
64943,1560687696936,7,2.36,1.92,3.41,2.19,2.6,0.49,-0.24,0.45,13,0,19,0.54,9049,81,79,33,81,1378,476.0,632,455,60,121.0,337,1,416,526,160,0,0,473,-9160,8488,476,45.701542,4.911845,45.72,201.0,0,0.0,0,0.0,0.5533,1,0.41,1.0824
64963,1560687696956,1,2.37,1.92,3.4,2.19,2.59,0.44,-0.18,0.35,14,1,19,0.48,9250,81,79,33,81,1393,477.0,640,453,60,121.0,337,1,416,526,160,0,0,487,6193,32033,477,,,,,,,,,,,,
64983,1560687696976,2,2.36,1.9,3.4,2.18,2.54,0.43,-0.13,0.32,14,1,20,0.44,9365,81,79,33,81,1412,480.0,628,451,60,121.0,337,1,417,526,160,0,0,501,-3210,248,480,,,,,,,,,,,,
65003,1560687696996,3,2.36,1.91,3.36,2.17,2.53,0.59,-0.3,0.46,12,3,20,0.66,9450,81,79,33,81,1435,483.0,639,451,60,121.0,386,1,417,526,187,0,0,496,10432,-6528,483,,,,,,,,,,,,
65023,1560687697010,6,2.36,1.94,3.29,2.18,2.5,0.66,-0.46,0.56,11,1,19,0.81,9541,73,79,33,79,1455,488.0,646,462,60,120.0,386,1,415,499,187,0,0,494,-23367,-22519,488,,,,,,,,,,,,
65043,1560687697030,6,2.35,2.03,3.25,2.18,2.5,0.4,-0.28,0.48,11,5,18,0.49,9541,56,79,33,73,1473,490.0,643,452,60,120.0,386,1,415,429,187,0,0,516,10305,3,490,45.701534,4.911854,45.64,201.0,0,0.0,0,0.0,0.555,1,0.41,1.084
65063,1560687697050,14,2.33,2.12,3.24,2.17,2.49,0.5,-0.31,0.6,11,4,18,0.58,9561,34,79,33,63,1485,489.0,646,458,60,121.0,386,1,414,361,187,0,0,502,2212,-3414,489,,,,,,,,,,,,
65083,1560687697070,14,2.34,2.21,3.23,2.22,2.49,0.55,-0.29,0.64,11,3,17,0.62,9464,17,79,33,52,1479,489.0,648,464,60,122.0,386,1,394,303,187,0,0,508,-3210,-28648,489,,,,,,,,,,,,
65103,1560687697096,16,2.32,2.25,3.22,2.24,2.48,0.42,-0.08,0.49,10,5,16,0.43,9128,13,79,33,43,1457,485.0,650,453,60,121.0,164,1,346,223,80,0,0,504,-23623,2109,485,,,,,,,,,,,,
65123,1560687697116,25,2.31,2.26,3.24,2.23,2.55,0.39,0.09,0.37,10,3,18,0.4,8708,11,79,33,37,1410,477.0,646,456,60,121.0,164,1,314,205,80,0,0,494,-23623,2524,477,,,,,,,,,,,,
65143,1560687697136,24,2.32,2.22,3.31,2.18,2.67,0.54,-0.03,0.27,9,1,15,0.54,8303,10,79,33,33,1364,483.0,635,458,60,122.0,164,1,298,188,80,0,0,480,-3210,-6441,483,45.701523,4.911863,47.02,201.0,0,0.0,0,0.0,0.5567,1,0.41,1.0857
65163,1560687697156,28,2.32,2.15,3.4,2.13,2.84,0.5,-0.01,0.22,10,0,13,0.5,8036,9,79,33,31,1322,476.0,631,460,60,121.0,164,1,287,171,80,0,0,458,30272,32033,476,,,,,,,,,,,,
65183,1560687697176,25,2.32,2.03,3.55,2.04,3.01,0.56,-0.1,0.23,10,-3,12,0.57,7864,8,79,33,30,1268,475.0,625,460,60,122.0,164,1,283,166,80,0,0,434,6193,6193,475,,,,,,,,,,,,
65203,1560687697196,25,2.31,1.92,3.67,1.96,3.12,0.7,-0.12,0.24,9,-5,11,0.71,7637,8,79,33,29,1173,473.0,623,462,60,122.0,101,1,279,164,48,0,0,400,12552,-6387,473,,,,,,,,,,,,
65223,1560687697216,20,2.31,1.84,3.69,1.92,3.19,0.83,-0.15,0.33,7,-7,11,0.84,7455,9,79,33,28,1085,472.0,618,460,60,122.0,101,1,275,164,48,0,0,336,12552,23400,472,,,,,,,,,,,,
65243,1560687697236,21,2.3,1.83,3.69,1.89,3.22,0.95,-0.06,0.35,6,-8,12,0.95,7219,9,79,33,28,1031,470.0,618,460,60,122.0,101,1,274,163,48,0,0,287,2211,3826,472,45.701515,4.911872,48.19,200.9,0,0.0,0,0.0,0.5583,1,0.42,1.0874
65263,1560687697256,25,2.3,1.83,3.64,1.86,3.16,1.0,-0.11,0.45,6,-7,10,1.01,7011,9,79,33,28,978,470.0,613,462,60,121.0,101,1,272,163,48,0,0,276,-9160,7154,470,,,,,,,,,,,,
65283,1560687697276,21,2.29,1.84,3.57,1.87,3.04,0.91,-0.11,0.33,8,-5,8,0.91,6825,9,79,33,28,921,462.0,608,453,60,123.0,101,1,274,163,48,0,0,315,-8985,-8985,457,,,,,,,,,,,,
65303,1560687697296,24,2.29,1.83,3.53,1.86,2.92,0.97,-0.18,0.29,7,-6,8,0.99,6572,9,79,33,28,865,453.0,601,458,60,120.0,90,1,275,163,41,0,0,339,2131,3571,453,,,,,,,,,,,,
65323,1560687697316,17,2.28,1.8,3.48,1.86,2.83,0.99,-0.13,0.2,8,-2,7,1.0,6405,9,79,33,28,862,448.0,586,459,60,123.0,90,1,276,163,41,0,0,378,21580,2131,448,,,,,,,,,,,,
65343,1560687697336,15,2.26,1.73,3.47,1.85,2.79,1.1,-0.22,0.14,6,-3,8,1.12,6266,9,79,33,28,859,444.0,573,458,60,122.0,90,1,277,163,41,0,0,398,-28332,-768,444,45.701504,4.911881,47.37,200.9,0,0.0,0,0.0,0.56,1,0.42,1.0891
65363,1560687697356,14,2.25,1.7,3.46,1.74,2.86,1.19,-0.2,0.2,2,-4,9,1.21,6239,9,79,33,29,872,439.0,568,460,60,122.0,90,1,280,164,41,0,0,366,19477,-19019,435,,,,,,,,,,,,
65383,1560687697376,12,2.24,1.69,3.37,1.65,2.97,1.26,-0.17,0.28,2,-6,8,1.27,6381,9,79,33,29,887,432.0,567,458,60,121.0,90,1,280,164,41,0,0,405,1779,-22016,432,,,,,,,,,,,,
65403,1560687697396,13,2.23,1.7,3.32,1.57,3.06,1.25,-0.01,0.22,2,-6,8,1.25,6452,9,79,33,29,904,428.0,572,458,60,121.0,90,1,279,164,39,0,0,371,13180,85,427,,,,,,,,,,,,
65423,1560687697416,8,2.21,1.72,3.35,1.56,3.08,1.19,0.05,0.13,3,-2,6,1.19,6449,9,79,33,29,920,426.0,579,459,60,122.0,90,1,279,164,39,0,0,341,-4082,25600,420,,,,,,,,,,,,
65443,1560687697436,11,2.2,1.75,3.36,1.57,3.04,1.19,-0.05,0.26,2,-2,3,1.2,6353,9,79,33,29,942,422.0,575,463,60,122.0,90,1,280,164,39,0,0,362,-3414,-6640,415,45.701496,4.911889,45.53,200.9,0,0.0,0,0.0,0.5617,1,0.42,1.0907
65463,1560687697456,11,2.2,1.78,3.37,1.57,3.01,1.24,-0.02,0.26,0,-5,0,1.24,6388,9,79,33,29,965,418.0,573,458,60,121.0,90,1,280,164,39,0,0,356,-3414,3,410,,,,,,,,,,,,
65483,1560687697476,5,2.19,1.82,3.35,1.56,3.0,1.24,0.19,0.15,0,-4,0,1.25,6478,9,79,32,29,974,415.0,576,458,60,123.0,90,1,279,164,39,0,0,349,-26615,-6458,403,,,,,,,,,,,,
65503,1560687697495,4,2.18,1.82,3.33,1.54,2.99,1.18,0.17,0.14,-1,-2,-1,1.19,6558,10,79,32,29,978,413.0,577,460,60,122.0,100,1,279,164,40,0,0,376,13040,-10554,398,,,,,,,,,,,,
65523,1560687697515,6,2.18,1.87,3.33,1.5,3.01,1.2,0.21,0.17,-3,-2,-2,1.22,6708,10,79,32,29,991,410.0,585,460,60,122.0,100,1,278,164,40,0,0,382,9517,6870,394,,,,,,,,,,,,
65543,1560687697535,1,2.17,1.96,3.3,1.5,3.04,1.17,0.23,0.02,-3,1,-2,1.19,6781,10,79,32,29,1004,406.0,588,456,60,123.0,100,1,278,164,40,0,0,376,2524,0,390,45.701485,4.911896,42.15,200.9,0,0.0,0,0.0,0.5633,1,0.42,1.0924
65563,1560687697555,5,2.17,2.03,3.3,1.5,3.06,1.18,0.28,0.03,-4,-1,-4,1.21,6870,10,79,32,28,1015,404.0,601,463,60,122.0,100,1,274,163,40,0,0,365,1504,257,386,,,,,,,,,,,,
65583,1560687697575,3,2.17,2.07,3.29,1.52,3.05,1.17,0.27,0.05,-5,-0,-5,1.2,6944,10,79,32,28,1022,400.0,609,462,60,121.0,100,1,273,163,40,0,0,372,6512,742,380,,,,,,,,,,,,
65603,1560687697595,0,2.16,2.08,3.28,1.56,3.04,1.09,0.33,-0.06,-5,1,-5,1.14,7056,10,79,32,28,1029,396.0,607,460,60,122.0,113,1,272,161,43,0,0,379,-32702,0,379,,,,,,,,,,,,
65623,1560687697615,0,2.17,2.09,3.26,1.57,3.05,1.18,0.44,-0.0,-7,-2,-4,1.26,7110,10,79,32,27,1037,392.0,611,457,60,122.0,113,1,269,161,43,0,0,381,1,230,377,,,,,,,,,,,,
65643,1560687697635,5,2.16,2.08,3.22,1.56,3.11,1.09,0.47,0.13,-8,-3,-5,1.19,7131,10,79,32,27,1037,387.0,612,461,60,121.0,113,1,269,161,43,0,0,378,240,-6405,374,45.701477,4.911903,39.71,200.9,0,0.0,0,0.0,0.565,1,0.42,1.0941
65663,1560687697655,3,2.16,2.08,3.2,1.57,3.13,1.0,0.52,0.14,-7,-3,-7,1.12,7104,10,79,32,27,1035,387.0,612,458,60,122.0,113,1,269,161,43,0,0,377,240,0,374,,,,,,,,,,,,
65683,1560687697675,0,2.16,2.08,3.19,1.56,3.15,0.99,0.55,0.04,-7,-3,-9,1.14,7017,10,79,32,26,1022,385.0,611,462,60,123.0,113,1,264,160,43,0,0,380,-6475,-1268,374,,,,,,,,,,,,
65703,1560687697693,9,2.16,2.07,3.17,1.56,3.15,1.1,0.5,0.1,-8,-4,-9,1.21,6952,10,79,32,26,1005,384.0,610,463,60,121.0,113,1,265,160,42,0,0,377,-19019,-6405,371,,,,,,,,,,,,
65723,1560687697713,4,2.17,2.05,3.18,1.6,3.14,0.96,0.49,0.07,-7,-1,-8,1.08,6873,10,79,32,26,988,381.0,603,463,60,122.0,113,1,266,160,42,0,0,377,-18948,-29302,369,,,,,,,,,,,,
65743,1560687697733,9,2.17,2.04,3.19,1.7,3.13,1.0,0.5,0.13,-8,-2,-7,1.12,6747,10,79,32,26,973,379.0,603,456,60,122.0,113,1,266,160,42,0,0,373,8200,-29302,367,45.701469,4.911911,38.64,200.9,0,0.0,0,0.0,0.5667,1,0.42,1.0957
65763,1560687697753,4,2.17,2.05,3.2,1.76,3.09,0.95,0.46,0.15,-7,-3,-8,1.06,6696,9,79,32,26,954,374.0,600,457,60,122.0,113,1,267,160,42,0,0,371,742,4104,365,,,,,,,,,,,,
65783,1560687697773,7,2.17,2.04,3.22,1.75,3.08,0.99,0.39,0.22,-8,-5,-9,1.06,6667,9,79,32,26,932,372.0,599,466,60,121.0,113,1,267,160,42,0,0,364,-6656,-6644,363,,,,,,,,,,,,
65803,1560687697795,3,2.17,2.03,3.23,1.73,3.09,0.94,0.38,0.16,-7,-2,-9,1.02,6637,9,79,32,27,917,371.0,598,456,60,123.0,110,1,271,160,40,0,0,362,486,-1246,361,,,,,,,,,,,,
65823,1560687697815,9,2.16,2.03,3.24,1.72,3.08,0.93,0.34,0.25,-8,-3,-10,0.99,6606,9,79,32,27,912,368.0,596,456,60,122.0,110,1,271,161,40,0,0,356,0,-30438,357,,,,,,,,,,,,
65843,1560687697835,5,2.16,2.03,3.24,1.7,3.08,0.97,0.33,0.22,-8,-2,-10,1.02,6567,9,79,32,27,906,365.0,593,460,60,123.0,110,1,272,161,40,0,0,358,-6405,-30438,353,45.701462,4.911918,37.51,201.0,0,0.0,0,0.0,0.5683,1,0.42,1.0974
65863,1560687697855,6,2.16,2.02,3.24,1.7,3.05,0.94,0.31,0.15,-8,0,-11,0.99,6524,9,79,32,27,900,362.0,585,450,60,123.0,110,1,272,161,40,0,0,356,2790,-1246,350,,,,,,,,,,,,
65883,1560687697875,9,2.16,2.01,3.27,1.68,3.03,1.0,0.29,0.21,-9,-1,-11,1.04,6481,9,79,32,27,898,361.0,584,456,60,121.0,110,1,272,161,40,0,0,344,-6458,-10554,347,,,,,,,,,,,,
65903,1560687697895,5,2.15,2.01,3.31,1.67,3.02,1.05,0.28,0.22,-10,-2,-10,1.09,6423,9,79,32,27,898,360.0,584,453,60,123.0,113,1,272,161,39,0,0,343,-29978,6668,345,,,,,,,,,,,,
65923,1560687697915,5,2.14,2.02,3.31,1.65,3.01,0.97,0.27,0.18,-10,-1,-11,1.01,6394,9,79,32,28,899,357.0,577,456,60,122.0,113,1,276,161,39,0,0,348,-6640,3346,339,,,,,,,,,,,,
65943,1560687697935,7,2.13,2.07,3.28,1.64,3.0,0.96,0.25,0.27,-11,-1,-13,0.99,6304,9,79,32,28,901,355.0,575,453,60,121.0,113,1,276,163,39,0,0,345,2060,-32559,337,45.701458,4.911926,35.99,201.0,0,0.0,0,0.0,0.57,1,0.42,1.0991
65963,1560687697955,7,2.12,2.13,3.27,1.61,3.02,1.0,0.3,0.32,-11,-3,-14,1.05,6258,9,79,32,28,902,353.0,567,452,60,121.0,113,1,277,163,39,0,0,343,-6644,-22016,333,,,,,,,,,,,,
65983,1560687697975,10,2.1,2.12,3.27,1.58,3.04,0.96,0.43,0.32,-11,-3,-14,1.05,6210,9,79,32,28,904,352.0,559,452,60,121.0,113,1,277,163,39,0,0,339,3183,-24576,329,,,,,,,,,,,,
66003,1560687697995,5,2.1,2.12,3.27,1.55,3.08,0.92,0.55,0.27,-11,-2,-14,1.07,6159,9,79,32,28,905,350.0,562,453,60,121.0,116,1,278,163,38,0,0,339,-30454,-25856,325,,,,,,,,,,,,
66023,1560687698009,6,2.1,2.13,3.27,1.55,3.09,0.88,0.58,0.16,-11,0,-14,1.05,6109,9,79,32,29,906,347.0,560,450,60,122.0,116,1,281,164,38,0,0,339,8841,-28416,324,,,,,,,,,,,,
66043,1560687698029,5,2.09,2.13,3.26,1.54,3.07,0.86,0.52,0.11,-13,1,-14,1.0,6046,9,79,32,29,909,344.0,555,453,60,123.0,116,1,281,164,38,0,0,336,6870,140,321,45.70145,4.911933,34.64,201.0,0,0.0,0,0.0,0.5717,1,0.43,1.1007
66063,1560687698049,6,2.09,2.13,3.25,1.52,3.08,0.94,0.4,0.12,-16,0,-14,1.02,6015,9,79,32,29,910,340.0,551,452,60,123.0,116,1,281,164,38,0,0,335,3327,-30976,317,,,,,,,,,,,,
66083,1560687698069,7,2.09,2.13,3.24,1.52,3.06,1.05,0.29,0.11,-18,-1,-15,1.09,5973,9,79,32,29,911,339.0,546,455,60,123.0,116,1,280,164,38,0,0,330,-122,125,315,,,,,,,,,,,,
66103,1560687698095,7,2.09,2.13,3.23,1.49,3.06,1.14,0.21,0.12,-20,-2,-15,1.16,5939,9,79,32,30,912,335.0,543,452,60,123.0,118,1,282,164,37,0,0,329,3346,115,312,,,,,,,,,,,,
66123,1560687698115,6,2.1,2.12,3.25,1.49,3.06,1.2,0.15,0.09,-21,-2,-16,1.21,5886,8,79,32,30,914,334.0,539,452,60,123.0,118,1,281,164,37,0,0,324,4838,105,309,,,,,,,,,,,,
66143,1560687698135,9,2.1,2.12,3.27,1.48,3.06,1.14,0.14,0.04,-22,-0,-17,1.15,5808,8,79,32,30,914,333.0,539,450,60,121.0,118,1,280,164,37,0,0,319,-12032,100,307,45.701443,4.911941,33.42,201.0,0,0.0,0,0.0,0.5733,1,0.43,1.1024
66163,1560687698155,9,2.1,2.09,3.28,1.49,3.05,1.23,0.06,0.05,-23,4,-17,1.23,5735,8,79,32,31,916,329.0,530,455,60,122.0,118,1,281,165,37,0,0,318,-20736,25600,304,,,,,,,,,,,,
66183,1560687698175,8,2.1,2.07,3.28,1.5,3.03,1.0,0.05,0.03,-21,8,-17,1.0,5706,8,79,32,31,919,328.0,521,451,60,122.0,118,1,280,165,37,0,0,316,165,90,302,,,,,,,,,,,,
66203,1560687698197,6,2.11,2.08,3.25,1.49,3.03,0.73,0.12,0.03,-17,9,-17,0.74,5661,8,79,32,32,922,322.0,520,456,60,123.0,116,1,283,165,35,0,0,315,155,90,299,,,,,,,,,,,,
66223,1560687698217,6,2.13,2.08,3.25,1.5,3.03,0.83,0.22,0.14,-16,3,-18,0.86,5622,8,79,32,32,923,320.0,515,452,60,123.0,116,1,282,165,35,0,0,311,-27136,21760,297,,,,,,,,,,,,
66243,1560687698237,9,2.14,2.08,3.25,1.5,3.0,0.95,0.15,0.22,-19,2,-18,0.96,5593,8,79,32,33,924,313.0,506,456,60,121.0,116,1,284,170,35,0,0,304,-30976,20480,293,45.701439,4.911948,31.9,201.0,0,0.0,0,0.0,0.575,1,0.43,1.1041
66263,1560687698257,7,2.18,2.07,3.26,1.51,2.99,0.91,0.07,0.21,-19,7,-19,0.91,5552,8,79,32,33,928,311.0,507,460,60,121.0,116,1,284,170,35,0,0,300,-32256,41,292,,,,,,,,,,,,
66283,1560687698277,2,2.25,2.04,3.28,1.56,3.01,0.69,0.03,0.24,-15,7,-20,0.7,5492,8,79,32,34,931,305.0,506,451,60,123.0,116,1,286,175,35,0,0,299,29440,250,291,,,,,,,,,,,,
66303,1560687698295,7,2.31,1.98,3.28,1.64,2.98,0.83,0.08,0.27,-14,3,-19,0.83,5414,8,79,32,34,932,301.0,498,449,60,121.0,123,1,285,180,36,0,0,294,26880,0,292,,,,,,,,,,,,
66323,1560687698315,3,2.37,1.91,3.3,1.77,2.93,0.77,-0.07,0.27,-13,4,-18,0.77,5363,8,79,32,35,934,295.0,493,462,60,123.0,123,1,288,179,36,0,0,287,23040,0,293,,,,,,,,,,,,
66343,1560687698335,5,2.43,1.85,3.34,1.86,2.85,0.85,-0.16,0.34,-9,-1,-15,0.86,5289,8,79,32,36,939,296.0,493,452,60,122.0,123,1,290,185,36,0,0,281,10686,0,296,45.701431,4.911956,30.39,201.0,0,0.0,0,0.0,0.5767,1,0.43,1.1057
66363,1560687698355,3,2.47,1.77,3.4,1.95,2.77,0.79,-0.28,0.32,-7,4,-11,0.83,5238,8,79,32,37,946,295.0,487,458,60,123.0,123,1,294,191,36,0,0,274,250,80,295,,,,,,,,,,,,
66383,1560687698375,6,2.54,1.71,3.43,2.01,2.76,0.86,-0.3,0.33,-3,-0,-8,0.91,5212,8,79,32,37,948,295.0,478,454,60,121.0,123,1,294,191,36,0,0,270,-1527,0,295,,,,,,,,,,,,
66403,1560687698397,2,2.58,1.66,3.47,2.04,2.76,0.84,-0.41,0.31,-1,2,-5,0.94,5198,8,79,32,38,952,295.0,475,456,60,122.0,128,1,297,196,38,0,0,263,-1,20480,295,,,,,,,,,,,,
66423,1560687698417,6,2.6,1.63,3.55,2.08,2.75,0.88,-0.42,0.37,3,-5,-2,0.98,5155,8,79,32,39,959,296.0,467,449,60,122.0,128,1,301,203,38,0,0,259,-1,20480,296,,,,,,,,,,,,
66443,1560687698437,2,2.62,1.61,3.62,2.13,2.76,0.75,-0.52,0.36,6,2,0,0.92,5067,8,79,32,40,967,297.0,461,457,60,123.0,128,1,301,204,38,0,0,248,-1,0,297,45.701427,4.911963,29.07,201.0,0,0.0,0,0.0,0.5783,1,0.43,1.1074
66463,1560687698457,2,2.64,1.6,3.67,2.18,2.75,0.88,-0.55,0.34,8,-2,4,1.04,4997,8,79,32,41,973,297.0,460,463,60,122.0,128,1,298,205,38,0,0,236,-41,80,297,,,,,,,,,,,,
66483,1560687698477,1,2.66,1.61,3.69,2.24,2.74,0.87,-0.58,0.33,11,-4,8,1.04,4868,8,79,32,41,977,297.0,450,451,60,121.0,128,1,295,202,38,0,0,229,506,0,297,,,,,,,,,,,,
66503,1560687698496,4,2.68,1.63,3.68,2.29,2.72,0.77,-0.61,0.24,13,-2,11,0.98,4764,8,79,32,42,968,295.0,436,456,60,123.0,121,1,292,201,36,0,0,223,-1,0,295,,,,,,,,,,,,
66523,1560687698516,1,2.7,1.63,3.69,2.29,2.71,0.74,-0.67,0.23,14,0,15,1.0,4713,8,79,32,43,953,295.0,428,460,60,123.0,121,1,292,202,36,0,0,214,-1,0,295,,,,,,,,,,,,
66543,1560687698536,-1,2.75,1.64,3.69,2.27,2.67,0.75,-0.73,0.24,16,1,17,1.05,4603,8,79,32,43,936,294.0,418,459,60,123.0,121,1,289,199,36,0,0,221,-214,41,294,45.70142,4.911971,27.89,201.0,0,0.0,0,0.0,0.58,1,0.43,1.1091
66563,1560687698556,-0,2.79,1.62,3.69,2.25,2.63,0.84,-0.76,0.28,17,1,20,1.13,4542,8,79,32,44,916,293.0,413,463,60,123.0,121,1,290,199,36,0,0,229,10818,250,293,,,,,,,,,,,,
66583,1560687698576,-0,2.84,1.6,3.69,2.25,2.62,0.89,-0.77,0.25,19,-1,23,1.18,4513,8,79,32,44,892,292.0,407,461,60,123.0,121,1,289,199,36,0,0,217,-1494,24064,292,,,,,,,,,,,,
66603,1560687698594,-2,2.89,1.59,3.69,2.22,2.63,0.95,-0.81,0.23,21,1,26,1.25,4547,8,79,32,45,866,292.0,402,466,60,122.0,116,1,292,202,34,0,0,184,250,-1534,292,,,,,,,,,,,,
66623,1560687698614,-2,0.33,1.58,3.71,2.2,2.63,0.97,-0.87,0.23,23,1,29,1.3,4493,9,79,32,45,849,292.0,402,466,60,123.0,116,1,291,201,34,0,0,174,23482,0,292,,,,,,,,,,,,
66643,1560687698634,0,0.37,1.57,3.71,2.21,2.62,0.96,-0.94,0.31,25,3,32,1.35,4418,9,79,32,46,843,293.0,396,463,60,123.0,116,1,292,203,34,0,0,168,250,-16896,293,45.701416,4.911976,27.17,201.0,0,0.0,0,0.0,0.5817,1,0.43,1.1107
66663,1560687698654,1,0.41,1.57,3.71,2.21,2.61,0.94,-1.0,0.37,27,5,34,1.37,4344,9,79,32,46,840,293.0,391,463,60,123.0,116,1,291,201,34,0,0,166,-25600,10686,293,,,,,,,,,,,,
66683,1560687698674,3,0.44,1.58,3.7,2.21,2.61,0.88,-1.04,0.38,29,6,34,1.36,4286,10,79,32,47,841,292.0,385,459,60,123.0,116,1,295,199,34,0,0,183,8704,10686,292,,,,,,,,,,,,
66703,1560687698696,2,0.44,1.58,3.69,2.22,2.61,0.82,-1.08,0.27,31,6,35,1.35,4203,12,79,32,47,846,289.0,380,452,60,121.0,110,1,293,202,32,0,0,218,10824,250,290,,,,,,,,,,,,
66723,1560687698716,-0,0.42,1.57,3.71,2.21,2.61,0.89,-1.1,0.21,34,3,35,1.41,4273,16,79,33,49,854,286.0,377,456,60,121.0,110,1,295,210,32,0,0,212,18432,-1527,286,,,,,,,,,,,,
66743,1560687698736,0,0.43,1.56,3.71,2.23,2.61,0.96,-1.06,0.14,36,-1,38,1.43,4311,23,79,33,52,865,285.0,375,461,60,121.0,110,1,297,223,32,0,0,173,18432,-1,285,45.701412,4.911982,25.39,201.0,0,0.0,0,0.0,0.5833,1,0.43,1.1124
66763,1560687698756,-2,0.43,1.53,3.71,2.21,2.62,1.02,-1.05,0.09,37,-3,42,1.46,4382,30,79,33,57,880,283.0,378,460,60,122.0,110,1,296,240,32,0,0,157,250,250,283,,,,,,,,,,,,
66783,1560687698776,-2,0.43,1.52,3.7,2.22,2.61,1.07,-1.03,0.11,39,-5,45,1.48,4468,35,79,33,61,892,285.0,328,460,60,122.0,110,1,293,265,32,0,0,154,19968,250,285,,,,,,,,,,,,
66803,1560687698796,-2,0.43,1.51,3.7,2.23,2.62,1.09,-1.02,0.1,40,-7,50,1.49,4505,38,79,33,67,899,286.0,286,460,60,123.0,171,1,292,294,49,0,0,154,1596,2414,287,,,,,,,,,,,,
66823,1560687698816,1,0.42,1.53,3.7,2.24,2.61,1.14,-0.97,0.17,41,-8,53,1.5,4613,41,79,33,72,906,286.0,268,466,60,121.0,171,1,289,325,49,0,0,159,15360,2414,286,,,,,,,,,,,,
66843,1560687698836,-2,0.43,1.54,3.7,2.24,2.61,1.21,-0.93,0.23,42,-11,56,1.52,4643,45,79,33,76,915,284.0,301,459,60,121.0,171,1,288,342,49,0,0,170,250,28160,284,45.701405,4.911985,24.06,201.0,0,0.0,0,0.0,0.585,1,0.43,1.1141
66863,1560687698856,3,0.42,1.56,3.71,2.24,2.6,1.24,-0.96,0.29,44,-10,57,1.57,4775,48,79,33,80,922,282.0,323,450,60,121.0,171,1,285,401,49,0,0,174,-1532,-1281,282,,,,,,,,,,,,
66883,1560687698876,6,0.42,1.56,3.71,2.23,2.53,1.19,-1.06,0.28,45,-11,58,1.59,4807,52,79,33,84,925,281.0,297,454,60,121.0,171,1,284,448,49,0,0,207,1210,-1,281,,,,,,,,,,,,
66903,1560687698894,5,0.43,1.55,3.7,2.21,2.48,1.04,-1.1,0.24,46,-10,58,1.52,4700,56,79,33,87,925,281.0,274,456,60,123.0,288,1,286,455,81,0,0,215,1210,-1,281,,,,,,,,,,,,
66923,1560687698914,0,0.41,1.56,3.71,2.21,2.46,1.05,-1.13,0.2,47,-8,58,1.54,4657,58,79,33,90,917,280.0,265,463,60,123.0,288,1,286,465,81,0,0,249,1210,-1,280,,,,,,,,,,,,
66943,1560687698934,-1,0.41,1.55,3.7,2.21,2.46,1.03,-1.14,0.2,47,-9,60,1.53,4600,61,79,33,91,908,279.0,256,467,60,123.0,288,1,287,487,81,0,0,267,-17920,-1,279,45.701401,4.911988,24.96,201.0,0,0.0,0,0.0,0.5867,1,0.43,1.1157
66963,1560687698954,0,0.39,1.55,3.7,2.21,2.46,1.03,-1.13,0.24,47,-8,62,1.53,4587,62,79,33,92,897,279.0,243,470,60,123.0,288,1,287,513,81,0,0,269,1088,-1,279,,,,,,,,,,,,
66983,1560687698974,-1,0.37,1.55,3.71,2.2,2.47,1.01,-1.11,0.29,48,-9,64,1.51,4576,64,79,33,93,892,280.0,248,462,60,122.0,288,1,288,540,81,0,0,265,250,-1,280,,,,,,,,,,,,
67003,1560687698994,0,0.36,1.55,3.71,2.2,2.49,1.03,-1.05,0.33,49,-8,65,1.47,4550,64,79,33,93,909,279.0,261,467,60,123.0,333,1,288,539,93,0,0,267,-1532,-1,279,,,,,,,,,,,,
67023,1560687699010,-2,0.36,1.57,3.71,2.2,2.52,1.04,-1.03,0.34,49,-10,67,1.46,4600,65,79,33,94,927,279.0,253,468,60,122.0,333,1,287,568,93,0,0,266,1088,-1,279,,,,,,,,,,,,
67043,1560687699030,1,0.35,1.61,3.71,2.2,2.53,1.02,-0.99,0.36,49,-10,67,1.42,4606,65,79,33,94,956,278.0,245,460,60,122.0,333,1,287,568,93,0,0,260,16384,-1,277,45.701393,4.91199,23.44,201.1,0,0.0,0,0.0,0.5883,1,0.43,1.1174
67063,1560687699050,-1,0.35,1.63,3.7,2.21,2.52,1.06,-0.91,0.39,50,-10,67,1.4,4681,65,79,33,94,984,275.0,250,453,60,121.0,333,1,286,569,93,0,0,247,1088,-1,276,,,,,,,,,,,,
67083,1560687699070,3,0.34,1.62,3.7,2.2,2.51,1.08,-0.93,0.38,50,-11,67,1.42,4775,65,79,33,93,1086,274.0,257,455,60,122.0,333,1,284,573,93,0,0,205,-1532,-1,274,,,,,,,,,,,,
67103,1560687699094,5,2.92,1.63,3.69,2.2,2.49,1.02,-0.98,0.32,50,-11,67,1.41,4905,65,79,33,94,1188,272.0,259,452,60,122.0,383,1,281,576,105,0,0,198,1088,-41,272,,,,,,,,,,,,
67123,1560687699114,-0,2.9,1.63,3.68,2.2,2.5,1.03,-0.97,0.34,50,-12,67,1.41,5020,66,79,33,93,1262,271.0,280,465,60,123.0,383,1,279,555,105,0,0,198,16384,-10440,271,,,,,,,,,,,,
67143,1560687699134,3,2.84,1.63,3.67,2.18,2.5,1.07,-0.87,0.35,50,-12,67,1.38,5161,67,79,33,93,1334,271.0,296,455,60,120.0,383,1,285,550,105,0,0,203,16384,14337,271,45.701389,4.91199,22.57,201.2,0,0.0,0,0.0,0.59,1,0.43,1.1191
67163,1560687699154,1,2.82,1.64,3.67,2.19,2.5,1.02,-0.89,0.38,49,-12,67,1.35,5201,68,79,33,93,1407,271.0,320,463,60,122.0,383,1,286,550,105,0,0,266,-1532,-1,271,,,,,,,,,,,,
67183,1560687699174,3,2.79,1.74,3.61,2.2,2.48,0.98,-0.79,0.4,48,-10,67,1.26,5132,69,79,33,93,1480,272.0,339,450,60,121.0,383,1,284,574,105,0,0,327,-17920,-1,272,,,,,,,,,,,,
67203,1560687699194,-1,2.75,1.84,3.53,2.2,2.46,0.93,-0.82,0.45,47,-8,66,1.24,5250,70,79,33,93,1498,270.0,353,461,60,123.0,414,1,288,548,112,0,0,304,250,-1,270,,,,,,,,,,,,
67223,1560687699214,3,2.71,1.92,3.48,2.2,2.47,0.92,-0.72,0.48,46,-8,66,1.16,5344,70,79,33,93,1498,270.0,375,456,60,122.0,414,1,292,564,112,0,0,237,1596,-1,270,,,,,,,,,,,,
67243,1560687699234,1,2.67,2.01,3.42,2.2,2.47,0.84,-0.79,0.58,44,-8,63,1.15,5307,70,79,33,94,1491,272.0,391,461,60,123.0,414,1,290,566,112,0,0,264,19968,250,272,45.701382,4.911989,22.24,201.3,0,0.0,0,0.0,0.5917,1,0.43,1.1207
67263,1560687699254,4,2.61,2.12,3.36,2.22,2.47,0.78,-0.7,0.65,43,-7,62,1.05,5283,71,79,33,94,1482,275.0,399,457,60,120.0,414,1,289,567,112,0,0,318,250,250,275,,,,,,,,,,,,
67283,1560687699274,1,2.57,2.18,3.31,2.24,2.46,0.73,-0.64,0.67,41,-5,59,0.98,5347,71,79,33,94,1475,278.0,403,457,60,123.0,414,1,292,545,112,0,0,272,13468,630,278,,,,,,,,,,,,
67303,1560687699296,3,2.51,2.26,3.23,2.23,2.45,0.73,-0.61,0.68,39,-3,55,0.95,5360,71,79,33,93,1465,278.0,415,452,60,123.0,400,1,292,544,111,0,0,251,-1445,250,278,,,,,,,,,,,,
67323,1560687699316,-1,2.47,2.31,3.14,2.24,2.46,0.65,-0.57,0.68,37,-3,53,0.86,5301,71,79,33,94,1434,279.0,415,464,60,122.0,400,1,290,567,111,0,0,285,-214,0,279,,,,,,,,,,,,
67343,1560687699336,5,2.42,2.35,3.1,2.24,2.45,0.68,-0.54,0.68,36,-5,50,0.87,5262,71,79,33,94,1395,282.0,417,457,60,123.0,400,1,288,568,111,0,0,296,-41,0,282,45.701378,4.911986,23.44,201.3,0,0.0,0,0.0,0.5933,1,0.43,1.1224
67363,1560687699356,1,2.38,2.35,3.07,2.25,2.46,0.62,-0.49,0.74,33,-3,47,0.79,5269,72,79,33,94,1360,283.0,423,458,60,122.0,400,1,289,567,111,0,0,289,-1,41,283,,,,,,,,,,,,
67383,1560687699376,-1,2.35,2.35,3.05,2.25,2.48,0.64,-0.41,0.82,31,-3,44,0.76,5319,72,79,33,94,1329,284.0,427,457,60,123.0,400,1,291,566,111,0,0,281,250,0,284,,,,,,,,,,,,
67403,1560687699396,0,2.32,2.35,3.04,2.23,2.55,0.57,-0.35,0.81,28,-2,42,0.67,5414,72,79,33,94,1280,286.0,429,455,60,121.0,403,1,294,562,115,0,0,287,250,80,286,,,,,,,,,,,,
67423,1560687699416,-1,2.29,2.35,3.04,2.19,2.63,0.61,-0.26,0.92,26,-3,38,0.66,5521,72,79,33,93,1227,288.0,426,457,60,123.0,403,1,298,539,115,0,0,290,1886,24320,288,,,,,,,,,,,,
67443,1560687699436,-1,2.27,2.36,3.03,2.19,2.66,0.59,-0.29,0.97,23,-3,32,0.66,5662,73,79,33,93,1186,289.0,433,458,60,122.0,403,1,304,535,115,0,0,300,41,25600,289,45.70137,4.911982,25.72,201.3,0,0.0,0,0.0,0.595,1,0.44,1.1241
67463,1560687699456,4,2.26,2.4,3.02,2.18,2.67,0.57,-0.34,0.96,20,-2,29,0.66,5839,73,79,33,93,1162,292.0,448,456,60,121.0,403,1,310,530,115,0,0,311,20480,29440,293,,,,,,,,,,,,
67483,1560687699476,5,2.24,2.42,3.03,2.2,2.67,0.51,-0.31,0.93,17,0,26,0.6,5996,73,79,33,93,1134,299.0,466,458,60,121.0,403,1,316,524,115,0,0,318,25600,125,298,,,,,,,,,,,,
67503,1560687699495,1,2.25,2.45,3.03,2.24,2.64,0.36,-0.27,0.92,15,3,23,0.45,6139,73,79,33,93,1103,304.0,487,453,60,122.0,404,1,324,525,121,0,0,323,110,145,300,,,,,,,,,,,,
67523,1560687699515,-2,2.25,2.47,3.01,2.26,2.61,0.31,-0.21,0.91,12,5,20,0.37,6190,74,79,33,93,1083,308.0,503,460,60,123.0,404,1,327,526,121,0,0,325,120,175,306,,,,,,,,,,,,
67543,1560687699535,0,2.25,2.49,2.95,2.26,2.59,0.35,-0.22,0.92,10,4,18,0.41,6145,74,79,33,93,1074,314.0,514,459,60,123.0,404,1,324,525,121,0,0,329,135,-31222,312,45.701363,4.911978,27.87,201.2,0,0.0,0,0.0,0.5967,1,0.44,1.1257
67563,1560687699555,0,2.25,2.49,2.94,2.26,2.59,0.45,-0.29,0.97,7,2,15,0.53,6145,74,79,33,93,1063,319.0,520,460,60,122.0,404,1,324,525,121,0,0,335,-27136,175,316,,,,,,,,,,,,
67583,1560687699575,1,2.26,2.46,2.96,2.25,2.58,0.59,-0.4,1.07,5,-2,12,0.72,6173,74,79,33,93,1048,324.0,523,462,60,122.0,404,1,326,525,121,0,0,345,160,4838,322,,,,,,,,,,,,
67603,1560687699597,4,2.26,2.43,2.97,2.25,2.58,0.72,-0.46,1.16,4,-5,10,0.85,6233,74,79,33,93,1036,328.0,524,462,60,122.0,378,1,329,526,123,0,0,337,170,-122,325,,,,,,,,,,,,
67623,1560687699617,3,2.26,2.4,2.99,2.22,2.59,0.74,-0.37,1.19,5,-4,9,0.83,6338,76,79,33,93,1028,331.0,532,452,60,121.0,378,1,334,527,123,0,0,342,-12032,6668,331,,,,,,,,,,,,
67643,1560687699637,0,2.25,2.37,3.0,2.22,2.63,0.57,-0.17,1.11,6,-1,8,0.59,6463,78,79,33,94,1021,336.0,544,456,60,123.0,378,1,341,532,123,0,0,345,13,-30454,333,45.701359,4.911974,29.7,201.3,0,0.0,0,0.0,0.5983,1,0.44,1.1274
67663,1560687699657,0,2.23,2.38,3.0,2.24,2.65,0.5,-0.16,1.13,5,0,7,0.52,6592,81,79,33,94,1013,339.0,552,455,60,122.0,378,1,347,532,123,0,0,353,-122,-6644,337,,,,,,,,,,,,
67683,1560687699677,-1,2.22,2.38,3.0,2.23,2.67,0.61,-0.11,1.18,3,-2,6,0.62,6795,84,79,33,94,1008,345.0,565,458,60,122.0,378,1,358,531,123,0,0,356,6870,4104,342,,,,,,,,,,,,
67703,1560687699697,3,2.19,2.38,2.99,2.24,2.67,0.49,-0.18,1.13,2,-2,6,0.52,6916,87,79,33,95,1008,348.0,573,455,60,122.0,400,1,364,531,138,0,0,362,-1246,742,345,,,,,,,,,,,,
67723,1560687699717,-0,2.19,2.38,2.95,2.25,2.67,0.47,0.01,1.03,2,1,5,0.47,7019,90,79,33,94,1008,354.0,584,455,60,122.0,400,1,370,531,138,0,0,366,3302,0,348,,,,,,,,,,,,
67743,1560687699737,1,2.2,2.4,2.92,2.24,2.65,0.63,-0.07,1.06,-1,1,2,0.63,7137,92,79,33,95,1011,361.0,590,458,60,121.0,400,1,379,536,138,0,0,375,-6458,257,354,45.701351,4.911969,32.02,201.3,0,0.0,0,0.0,0.6,1,0.44,1.1291
67763,1560687699757,3,2.21,2.41,2.91,2.24,2.59,0.5,-0.17,1.07,-1,0,2,0.53,7151,95,79,33,95,1014,367.0,598,458,60,121.0,400,1,380,537,138,0,0,382,0,1,360,,,,,,,,,,,,
67783,1560687699777,5,2.21,2.41,2.89,2.23,2.59,0.37,-0.09,1.1,-0,4,2,0.39,7189,97,79,33,95,1018,371.0,603,457,60,121.0,400,1,385,539,138,0,0,386,742,-19126,362,,,,,,,,,,,,
67803,1560687699795,3,2.22,2.42,2.88,2.23,2.58,0.42,0.07,1.13,-1,3,1,0.42,7273,99,79,33,94,1014,376.0,604,455,60,122.0,403,1,390,543,148,0,0,395,2278,-1562,366,,,,,,,,,,,,
67823,1560687699815,3,2.22,2.45,2.9,2.23,2.58,0.5,0.14,1.15,-3,-0,0,0.52,7332,100,79,33,94,987,379.0,606,452,60,122.0,403,1,394,547,148,0,0,401,8200,11545,373,,,,,,,,,,,,
67843,1560687699835,-0,2.24,2.47,2.91,2.22,2.61,0.59,0.07,1.15,-4,-4,-2,0.6,7527,100,79,33,93,958,386.0,609,452,60,122.0,403,1,410,556,148,0,0,402,-3866,-9211,378,45.70134,4.911964,33.72,201.3,0,0.0,0,0.0,0.6017,1,0.44,1.1307
67863,1560687699855,3,2.25,2.47,2.93,2.21,2.59,0.66,0.15,1.1,-4,-5,-2,0.68,7693,100,79,33,93,926,388.0,612,450,60,122.0,403,1,423,563,148,0,0,409,-31744,-9211,384,,,,,,,,,,,,
67883,1560687699875,5,2.26,2.47,2.96,2.22,2.58,0.66,0.21,1.15,-4,-2,-3,0.69,7904,100,79,33,92,893,393.0,617,450,60,122.0,403,1,440,573,148,0,0,422,-6656,-21944,389,,,,,,,,,,,,
67903,1560687699895,-1,2.28,2.47,2.98,2.22,2.56,0.58,0.1,1.23,-4,-1,-3,0.59,8148,100,79,33,91,855,400.0,617,452,60,122.0,454,1,445,593,178,0,0,434,11545,31796,396,,,,,,,,,,,,
67923,1560687699915,5,2.28,2.48,2.99,2.26,2.53,0.59,0.05,1.12,-4,2,-3,0.59,8289,100,79,33,90,817,404.0,620,452,60,121.0,454,1,442,608,178,0,0,442,-9211,243,402,,,,,,,,,,,,
67943,1560687699935,3,2.29,2.48,2.98,2.28,2.52,0.59,0.01,1.21,-3,1,-4,0.59,8465,100,79,33,89,810,409.0,628,451,60,121.0,454,1,435,617,178,0,0,453,11560,-26615,407,45.701332,4.911959,36.27,201.3,0,0.0,0,0.0,0.6033,1,0.44,1.1324
67963,1560687699955,1,2.29,2.48,2.98,2.28,2.51,0.43,0.13,1.19,-2,-2,-3,0.45,8648,100,79,33,88,803,414.0,626,453,60,121.0,454,1,429,611,178,0,0,471,2524,3576,413,,,,,,,,,,,,
67983,1560687699975,6,2.29,2.48,2.98,2.28,2.51,0.4,0.08,1.1,-2,-0,-1,0.41,8852,100,79,33,87,807,420.0,630,456,60,122.0,454,1,422,611,178,0,0,462,-8165,6193,419,,,,,,,,,,,,
68003,1560687699995,7,2.29,2.48,2.96,2.28,2.47,0.38,0.0,1.09,-1,-0,-2,0.38,8949,100,79,33,87,811,427.0,628,452,60,120.0,477,1,420,599,203,0,0,469,31796,-9203,427,,,,,,,,,,,,
68023,1560687700009,5,2.29,2.49,2.93,2.31,2.46,0.46,-0.16,1.07,-1,0,-1,0.49,9023,100,79,33,87,820,433.0,631,456,60,122.0,477,1,418,599,203,0,0,498,-3322,248,433,,,,,,,,,,,,
68043,1560687700029,19,2.29,2.49,2.94,2.34,2.44,0.46,-0.25,1.08,0,2,-2,0.52,9155,100,79,33,87,830,439.0,632,454,60,121.0,477,1,418,599,203,0,0,496,21580,-6441,439,45.701324,4.911954,38.95,201.3,0,0.0,0,0.0,0.605,1,0.44,1.1341
68063,1560687700049,1,2.29,2.49,2.96,2.34,2.46,0.44,-0.18,1.07,0,-0,-0,0.48,9295,100,79,33,86,858,447.0,638,456,60,121.0,477,1,418,599,203,0,0,495,2131,10994,447,,,,,,,,,,,,
68083,1560687700069,4,2.29,2.49,2.99,2.33,2.46,0.33,-0.05,1.01,1,1,-0,0.33,9455,100,79,33,87,886,453.0,636,453,60,121.0,477,1,418,588,203,0,0,517,8488,2524,453,,,,,,,,,,,,
68103,1560687700097,6,2.29,2.48,2.98,2.34,2.46,0.31,-0.16,1.11,2,1,-0,0.34,9645,100,79,33,86,907,458.0,645,451,60,121.0,472,1,412,592,216,0,0,513,-8985,-4054,458,,,,,,,,,,,,
68123,1560687700117,6,2.29,2.49,2.98,2.35,2.44,0.28,-0.13,1.16,2,2,1,0.31,9832,100,79,33,86,925,462.0,642,448,60,121.0,472,1,404,580,216,0,0,504,-23623,10994,467,,,,,,,,,,,,
68143,1560687700137,6,2.29,2.48,2.97,2.35,2.45,0.35,-0.29,1.24,3,2,0,0.45,9863,100,79,33,85,946,472.0,646,443,60,121.0,472,1,402,580,216,0,0,544,243,2524,472,45.701313,4.911949,42.47,201.3,0,0.0,0,0.0,0.6067,1,0.44,1.1357
68163,1560687700157,5,2.29,2.48,2.97,2.35,2.44,0.27,-0.25,1.24,3,2,2,0.37,9931,100,79,33,85,967,475.0,648,454,60,121.0,472,1,399,581,216,0,0,545,3576,-9072,479,,,,,,,,,,,,
68183,1560687700177,3,2.29,2.51,2.97,2.36,2.45,0.21,-0.15,1.15,3,-0,2,0.25,10113,100,79,33,85,975,482.0,651,450,60,121.0,472,1,403,582,216,0,0,519,10305,-3082,483,,,,,,,,,,,,
68203,1560687700197,2,2.29,2.53,2.98,2.38,2.45,0.2,-0.33,1.23,3,1,1,0.39,10102,100,79,33,85,977,488.0,648,453,60,120.0,457,1,402,582,223,0,0,548,-6441,-30064,488,,,,,,,,,,,,
68223,1560687700217,6,2.29,2.5,3.01,2.37,2.43,0.27,-0.34,1.3,4,2,2,0.43,10173,100,79,33,85,979,495.0,641,451,60,121.0,457,1,407,582,223,0,0,573,248,2104,495,,,,,,,,,,,,
68243,1560687700237,3,2.3,2.5,3.01,2.37,2.44,0.16,-0.27,1.26,4,-0,3,0.31,10347,100,79,33,85,980,502.0,645,453,60,121.0,457,1,420,582,223,0,0,534,3,2104,502,45.701302,4.911943,45.28,201.4,0,0.0,0,0.0,0.6083,1,0.44,1.1374
68263,1560687700257,5,2.29,2.51,3.02,2.38,2.43,0.13,-0.21,1.27,4,3,2,0.25,10376,100,79,33,85,980,508.0,642,451,60,121.0,457,1,422,582,223,0,0,543,-22519,-9072,510,,,,,,,,,,,,
68283,1560687700277,4,2.3,2.49,2.99,2.38,2.41,0.27,-0.16,1.26,4,2,3,0.31,10399,100,79,33,85,978,511.0,654,449,60,121.0,457,1,424,582,223,0,0,557,-28648,-23623,514,,,,,,,,,,,,
68303,1560687700297,3,2.3,2.5,3.04,2.38,2.46,0.24,-0.17,1.29,4,2,4,0.29,10428,100,79,33,85,978,519.0,651,454,60,121.0,441,1,426,582,229,0,0,597,26178,8488,519,,,,,,,,,,,,
68323,1560687700317,4,2.31,2.48,3.06,2.4,2.44,0.33,-0.16,1.36,5,3,3,0.37,10689,100,79,33,85,978,526.0,649,454,60,121.0,441,1,435,582,229,0,0,558,15679,-22359,526,,,,,,,,,,,,
68343,1560687700337,3,2.31,2.45,3.05,2.4,2.44,0.37,-0.23,1.37,5,2,3,0.44,10708,100,79,33,85,978,531.0,652,454,60,121.0,441,1,436,582,229,0,0,551,-22519,-29984,531,45.70129,4.911937,48.44,201.4,0,0.0,0,0.0,0.61,1,0.44,1.1391
68363,1560687700357,5,2.31,2.45,3.05,2.4,2.44,0.35,-0.2,1.33,5,2,4,0.4,10751,100,79,33,85,980,540.0,656,452,60,121.0,441,1,437,582,229,0,0,591,-28648,-16384,540,,,,,,,,,,,,
68383,1560687700377,3,2.3,2.45,3.05,2.42,2.43,0.26,-0.24,1.38,5,2,4,0.36,10794,100,79,33,84,981,541.0,658,456,60,121.0,441,1,437,582,229,0,0,581,14504,1780,541,,,,,,,,,,,,
68403,1560687700397,3,2.3,2.45,3.04,2.43,2.43,0.24,-0.13,1.4,5,-1,4,0.27,10894,100,79,33,85,980,547.0,660,456,60,120.0,426,1,441,564,233,0,0,571,-8186,15649,548,,,,,,,,,,,,
68423,1560687700417,5,2.31,2.44,3.06,2.44,2.43,0.29,-0.26,1.42,5,2,4,0.39,10997,100,79,33,84,979,553.0,658,453,60,121.0,426,1,442,564,233,0,0,597,-8962,-28648,557,,,,,,,,,,,,
68443,1560687700437,1,2.31,2.45,3.06,2.45,2.41,0.32,-0.21,1.33,6,7,2,0.38,11029,100,79,33,84,977,559.0,657,457,60,121.0,426,1,443,564,233,0,0,590,-32248,-4035,559,45.701279,4.91193,51.31,201.4,0,0.0,0,0.0,0.6117,1,0.45,1.1407
68463,1560687700457,4,2.3,2.44,3.07,2.43,2.43,0.38,-0.11,1.27,6,3,5,0.4,11088,100,79,33,84,973,563.0,657,451,60,120.0,426,1,443,564,233,0,0,604,2216,-3820,563,,,,,,,,,,,,
68483,1560687700477,3,2.31,2.44,3.1,2.42,2.43,0.4,-0.22,1.33,5,0,5,0.46,11234,100,79,33,84,966,568.0,660,455,60,121.0,426,1,442,564,233,0,0,600,-18032,30227,571,,,,,,,,,,,,
68503,1560687700496,4,2.31,2.44,3.12,2.42,2.43,0.29,-0.2,1.38,5,2,5,0.36,11384,100,79,32,84,960,573.0,667,455,60,121.0,424,1,441,564,243,0,0,601,-29984,-7939,573,,,,,,,,,,,,
68523,1560687700516,3,2.3,2.44,3.11,2.42,2.44,0.24,-0.31,1.37,6,1,4,0.4,11503,100,79,32,83,955,577.0,660,457,60,121.0,424,1,440,564,243,0,0,613,774,-23055,582,,,,,,,,,,,,
68543,1560687700536,5,2.29,2.45,3.11,2.42,2.44,0.27,-0.18,1.29,6,1,5,0.33,11552,100,79,32,83,948,585.0,668,456,60,121.0,424,1,440,564,243,0,0,623,30208,17336,585,45.701267,4.911922,54.12,201.5,0,0.0,0,0.0,0.6133,1,0.45,1.1424
68563,1560687700556,3,2.3,2.43,3.09,2.42,2.44,0.31,-0.07,1.23,6,0,5,0.32,11653,100,79,32,84,936,592.0,665,452,60,121.0,424,1,440,550,243,0,0,619,10432,-1346,592,,,,,,,,,,,,
68583,1560687700576,1,2.3,2.43,3.07,2.42,2.42,0.39,-0.13,1.3,5,-0,5,0.41,11711,100,79,32,83,924,596.0,666,455,60,121.0,424,1,440,551,243,0,0,626,208,17336,596,,,,,,,,,,,,
68603,1560687700596,3,2.29,2.43,3.06,2.43,2.42,0.48,-0.32,1.35,4,-1,5,0.58,11718,100,79,32,83,917,600.0,670,456,60,121.0,411,1,440,553,246,0,0,645,-28648,-14655,600,,,,,,,,,,,,
68623,1560687700616,2,2.29,2.44,3.07,2.43,2.42,0.49,-0.43,1.37,4,-1,5,0.65,11822,100,79,32,83,906,606.0,669,457,60,121.0,411,1,440,554,246,0,0,646,4956,-4876,606,,,,,,,,,,,,
68643,1560687700636,5,2.29,2.44,3.07,2.42,2.42,0.51,-0.43,1.31,3,-0,5,0.67,11904,100,79,32,83,888,610.0,665,456,60,121.0,411,1,440,557,246,0,0,628,-3820,-6006,610,45.701256,4.911914,56.86,201.5,0,0.0,0,0.0,0.615,1,0.45,1.144
68663,1560687700656,3,2.31,2.43,3.07,2.42,2.42,0.53,-0.36,1.24,3,3,6,0.64,11980,100,79,32,83,871,614.0,672,454,60,121.0,411,1,440,559,246,0,0,638,19621,-2830,616,,,,,,,,,,,,
68683,1560687700676,7,2.29,2.43,3.09,2.4,2.45,0.51,-0.25,1.22,3,4,6,0.57,12081,100,79,32,83,859,618.0,671,457,60,120.0,411,1,440,560,246,0,0,655,-28304,-6006,621,,,,,,,,,,,,
68703,1560687700696,3,2.3,2.43,3.11,2.4,2.49,0.49,-0.25,1.08,4,4,6,0.55,12214,100,79,32,83,848,624.0,668,461,60,120.0,413,1,440,560,258,0,0,654,269,2024,624,,,,,,,,,,,,
68723,1560687700716,4,2.31,2.43,3.11,2.41,2.48,0.55,-0.34,1.1,4,5,6,0.65,12335,100,79,32,83,831,630.0,680,457,60,120.0,413,1,440,560,258,0,0,647,3395,-2830,630,,,,,,,,,,,,
68743,1560687700736,4,2.31,2.42,3.11,2.41,2.48,0.59,-0.44,1.19,4,6,5,0.73,12368,100,79,32,83,814,634.0,675,453,60,120.0,413,1,440,560,258,0,0,665,20993,-3488,634,45.701241,4.911905,59.52,201.5,0,0.0,0,0.0,0.6167,1,0.45,1.1457
68763,1560687700756,4,2.3,2.41,3.13,2.41,2.42,0.55,-0.35,1.23,3,5,5,0.65,12343,100,79,32,84,807,638.0,680,456,60,120.0,413,1,440,560,258,0,0,668,771,-2826,638,,,,,,,,,,,,
68783,1560687700776,3,2.3,2.41,3.12,2.4,2.41,0.52,-0.22,1.05,3,5,7,0.57,12425,100,79,32,83,801,641.0,673,453,60,120.0,413,1,440,560,258,0,0,653,-4876,-10344,641,,,,,,,,,,,,
68803,1560687700796,6,2.3,2.41,3.11,2.4,2.44,0.53,-0.29,1.14,3,3,8,0.6,12550,100,79,32,83,794,648.0,672,459,60,120.0,411,1,440,560,266,0,0,665,-3584,-10346,648,,,,,,,,,,,,
68823,1560687700816,-0,2.3,2.42,3.1,2.4,2.46,0.53,-0.42,1.22,4,1,6,0.67,12626,100,79,32,83,787,650.0,666,457,60,120.0,411,1,440,560,266,0,0,667,11566,-26380,650,,,,,,,,,,,,
68843,1560687700836,-1,2.3,2.41,3.11,2.41,2.46,0.46,-0.41,1.1,5,-1,6,0.62,12175,100,79,32,84,789,653.0,684,461,60,124.0,411,1,440,575,266,0,0,684,-8429,-388,653,45.701225,4.911895,62.11,201.5,0,0.0,0,0.0,0.6183,1,0.45,1.1474
68863,1560687700856,-2,2.31,2.39,3.15,2.41,2.46,0.34,-0.31,0.93,5,1,7,0.46,11660,100,79,32,86,792,657.0,680,456,60,123.0,411,1,440,603,266,0,0,664,2024,-27404,657,,,,,,,,,,,,
68883,1560687700876,-2,2.31,2.35,3.19,2.39,2.51,0.3,-0.32,0.81,6,1,7,0.44,11363,100,79,32,86,792,657.0,673,459,60,123.0,411,1,441,601,266,0,0,644,-6006,-2830,657,,,,,,,,,,,,
68903,1560687700896,-1,2.31,2.29,3.3,2.35,2.6,0.4,-0.3,0.86,6,-2,6,0.5,11140,100,79,32,87,791,654.0,670,458,60,123.0,389,1,445,620,255,0,0,651,-3488,8958,654,,,,,,,,,,,,
68923,1560687700916,1,2.29,2.25,3.37,2.28,2.71,0.56,-0.47,0.97,4,-8,6,0.73,10932,100,79,32,87,791,658.0,668,466,60,123.0,389,1,442,620,255,0,0,646,24583,8958,658,,,,,,,,,,,,
68943,1560687700936,6,2.29,2.25,3.39,2.26,2.71,0.53,-0.35,1.06,5,0,3,0.63,10102,100,79,32,88,790,661.0,653,458,60,121.0,389,1,403,1130,255,0,0,757,31988,3462,661,45.70121,4.911884,64.21,201.6,0,0.0,0,0.0,0.62,1,0.45,1.149
68963,1560687700956,5,2.31,2.28,3.27,2.28,2.67,0.35,-0.15,0.86,5,-0,2,0.38,9474,100,79,32,89,888,668.0,639,457,60,120.0,389,1,418,995,255,0,0,767,-10344,-30694,664,,,,,,,,,,,,
68983,1560687700976,4,2.3,2.35,3.19,2.3,2.58,0.41,-0.34,0.8,5,-4,3,0.54,9821,100,79,32,87,1000,672.0,636,455,60,121.0,389,1,405,867,255,0,0,668,-27404,24,670,,,,,,,,,,,,
69003,1560687700996,4,2.3,2.37,3.11,2.33,2.49,0.43,-0.36,0.92,5,-1,6,0.56,9952,100,79,32,86,1113,674.0,645,453,60,120.0,433,1,399,744,291,0,0,680,-3578,687,674,,,,,,,,,,,,
69023,1560687701010,6,2.29,2.35,3.09,2.31,2.39,0.45,-0.45,1.02,6,3,6,0.64,9801,100,79,32,85,1227,678.0,647,457,60,120.0,433,1,405,636,291,0,0,734,8958,-23490,678,,,,,,,,,,,,
69043,1560687701030,1,2.3,2.35,3.08,2.32,2.39,0.27,-0.2,0.92,7,4,6,0.34,9694,100,79,32,85,1341,683.0,634,460,60,120.0,433,1,410,579,291,0,0,730,-10346,-2358,683,45.701199,4.911874,64.88,201.6,0,0.0,0,0.0,0.6217,1,0.46,1.1507
69063,1560687701050,6,2.29,2.36,3.07,2.33,2.4,0.42,-0.3,1.03,6,4,5,0.52,9689,100,79,32,85,1455,688.0,643,457,60,121.0,433,1,411,579,291,0,0,709,-26562,-3344,688,,,,,,,,,,,,
69083,1560687701070,3,2.3,2.38,3.07,2.32,2.44,0.38,-0.09,0.97,5,0,6,0.39,9669,100,79,32,85,1498,690.0,644,451,60,121.0,433,1,411,578,291,0,0,713,6208,-2358,690,,,,,,,,,,,,
69103,1560687701096,5,2.3,2.37,3.1,2.32,2.46,0.44,-0.19,1.02,5,-2,5,0.48,9735,100,79,32,85,1498,696.0,637,459,60,121.0,307,1,408,579,214,0,0,722,14342,204,696,,,,,,,,,,,,
69123,1560687701116,3,2.29,2.36,3.11,2.32,2.48,0.46,-0.1,0.87,5,-3,6,0.47,9852,100,79,32,85,1434,701.0,642,452,60,121.0,307,1,402,580,214,0,0,723,6208,-3344,704,,,,,,,,,,,,
69143,1560687701136,4,2.3,2.35,3.13,2.33,2.47,0.48,-0.29,0.98,5,-2,5,0.56,9989,100,79,32,85,1344,707.0,646,460,60,121.0,307,1,396,582,214,0,0,736,6208,1037,707,45.70118,4.911862,66.5,201.6,0,0.0,0,0.0,0.6233,1,0.46,1.1524
69163,1560687701156,3,2.31,2.36,3.13,2.34,2.49,0.41,-0.23,0.95,5,0,5,0.47,10021,100,79,32,85,1254,709.0,646,455,60,121.0,307,1,396,582,214,0,0,728,687,-2826,710,,,,,,,,,,,,
69183,1560687701176,3,2.31,2.36,3.13,2.35,2.44,0.38,-0.22,0.91,5,1,4,0.44,10091,100,79,32,85,1165,714.0,650,454,60,121.0,307,1,402,582,214,0,0,739,6658,-2830,714,,,,,,,,,,,,
69203,1560687701196,2,2.31,2.36,3.13,2.35,2.44,0.44,-0.39,0.99,5,-1,3,0.59,10064,100,79,32,85,1081,720.0,645,456,60,120.0,310,1,399,582,222,0,0,753,-13072,-2830,718,,,,,,,,,,,,
69223,1560687701216,6,2.31,2.37,3.13,2.35,2.42,0.46,-0.31,0.94,5,3,3,0.55,10091,100,79,32,85,1003,719.0,639,457,60,121.0,310,1,405,582,222,0,0,743,-13312,-30694,719,,,,,,,,,,,,
69243,1560687701236,6,2.3,2.39,3.13,2.36,2.42,0.47,-0.21,1.0,5,1,4,0.52,10157,100,79,32,85,968,724.0,651,454,60,121.0,310,1,406,582,222,0,0,744,-388,-31066,725,45.701164,4.91185,68.85,201.6,0,0.0,0,0.0,0.625,1,0.46,1.154
69263,1560687701256,3,2.3,2.39,3.14,2.34,2.42,0.47,-0.27,0.98,5,-0,4,0.55,10162,100,79,32,85,980,731.0,655,454,60,121.0,310,1,407,582,222,0,0,755,1524,-4096,731,,,,,,,,,,,,
69283,1560687701276,3,2.3,2.37,3.18,2.32,2.45,0.56,-0.3,1.03,5,1,2,0.63,10251,96,79,32,85,992,734.0,642,457,60,120.0,310,1,413,582,222,0,0,753,-2358,13016,734,,,,,,,,,,,,
69303,1560687701296,10,2.29,2.33,3.21,2.31,2.48,0.66,-0.31,1.09,5,1,3,0.73,10330,87,79,32,84,1005,735.0,653,450,60,121.0,300,1,417,564,220,0,0,770,-2830,-31066,731,,,,,,,,,,,,
69323,1560687701316,17,2.29,2.32,3.23,2.31,2.52,0.57,-0.31,1.15,4,-0,4,0.65,10376,74,79,32,80,1014,736.0,652,457,60,121.0,300,1,421,521,220,0,0,742,-3344,-2826,736,,,,,,,,,,,,
69343,1560687701336,17,2.29,2.31,3.17,2.3,2.57,0.58,-0.32,1.11,4,-4,4,0.66,10410,61,79,32,74,1015,739.0,648,461,60,121.0,300,1,427,484,220,0,0,756,31988,13016,739,45.701153,4.911837,70.71,201.6,0,0.0,0,0.0,0.6267,1,0.46,1.1557
69363,1560687701356,22,2.28,2.3,3.16,2.3,2.57,0.48,-0.29,1.15,4,-3,5,0.57,10251,47,79,32,67,1016,735.0,652,453,60,121.0,300,1,421,434,220,0,0,761,-13580,5876,736,,,,,,,,,,,,
69383,1560687701376,20,2.28,2.29,3.19,2.26,2.56,0.55,-0.29,1.08,4,1,4,0.62,9994,32,79,32,59,1017,737.0,643,452,60,121.0,300,1,407,359,220,0,0,764,-3344,-2344,734,,,,,,,,,,,,
69403,1560687701396,22,2.28,2.26,3.23,2.23,2.55,0.7,-0.44,1.16,4,0,2,0.82,9645,19,79,32,51,1017,735.0,644,459,60,121.0,153,1,391,284,113,0,0,738,-2918,-3580,735,,,,,,,,,,,,
69423,1560687701416,23,2.27,2.25,3.37,2.23,2.61,0.57,-0.39,0.94,4,-2,2,0.69,9305,14,79,32,44,1017,724.0,648,457,60,121.0,153,1,355,227,113,0,0,725,-2830,-3344,729,,,,,,,,,,,,
69443,1560687701436,22,2.27,2.17,3.44,2.15,2.75,0.55,-0.29,0.81,4,-5,2,0.62,9093,13,80,32,40,1009,728.0,641,455,60,122.0,153,1,326,215,113,0,0,710,-388,16118,728,45.701138,4.911824,73.23,201.6,0,0.0,0,0.0,0.6283,1,0.46,1.1574
69463,1560687701456,20,2.28,2.12,3.47,2.04,2.91,0.7,-0.32,0.8,3,-4,1,0.77,8886,13,79,32,37,977,723.0,640,459,60,122.0,153,1,314,205,113,0,0,700,-2830,-388,723,,,,,,,,,,,,
69483,1560687701476,19,2.28,2.09,3.51,1.96,2.97,0.71,-0.19,0.71,3,-5,-0,0.74,8684,13,79,32,34,945,722.0,639,457,60,121.0,153,1,305,195,113,0,0,690,16118,204,720,,,,,,,,,,,,
69503,1560687701495,20,2.29,2.06,3.58,1.92,3.02,0.82,-0.21,0.54,3,-4,-2,0.85,8624,12,79,32,32,913,720.0,630,458,60,121.0,84,1,300,188,61,0,0,652,-2560,-27404,717,,,,,,,,,,,,
69523,1560687701515,20,2.29,2.0,3.6,1.91,3.04,0.88,-0.21,0.54,3,-6,-2,0.9,8660,12,79,32,30,883,713.0,633,464,60,122.0,84,1,291,188,61,0,0,624,204,20993,713,,,,,,,,,,,,
69543,1560687701535,22,2.28,1.99,3.56,1.88,3.05,0.96,-0.1,0.36,2,-3,-1,0.96,8581,12,79,32,29,857,712.0,635,457,60,122.0,84,1,287,188,61,0,0,610,15647,966,712,45.701122,4.91181,73.6,201.6,0,0.0,0,0.0,0.63,1,0.47,1.159
69563,1560687701555,25,2.29,2.0,3.49,1.9,3.04,1.0,-0.06,0.23,2,-2,1,1.0,8396,12,79,32,28,832,698.0,635,459,60,122.0,84,1,281,181,61,0,0,651,-3584,11566,698,,,,,,,,,,,,
69583,1560687701575,22,2.29,2.0,3.46,1.97,2.98,1.1,-0.12,0.27,3,-4,1,1.11,8337,12,79,32,28,838,690.0,629,456,60,122.0,84,1,281,179,61,0,0,639,-10344,244,688,,,,,,,,,,,,
69603,1560687701595,17,2.28,1.93,3.48,1.93,2.97,1.1,-0.12,0.26,3,-4,2,1.1,8393,12,79,32,27,846,692.0,634,458,60,121.0,82,1,277,181,57,0,0,631,-26562,-3488,692,,,,,,,,,,,,
69623,1560687701615,19,2.27,1.74,3.48,1.8,2.99,1.12,-0.12,0.21,3,-4,3,1.13,8434,12,79,32,26,867,688.0,635,464,60,122.0,82,1,274,184,57,0,0,623,-2345,17740,688,,,,,,,,,,,,
69643,1560687701635,16,2.28,1.61,3.5,1.63,3.09,1.16,-0.13,0.28,3,-3,5,1.16,8389,12,79,32,26,888,690.0,635,456,60,121.0,82,1,273,181,57,0,0,594,-10346,-16384,686,45.701103,4.911797,71.55,201.7,0,0.0,0,0.0,0.6317,1,0.47,1.1607
69663,1560687701655,19,2.26,1.61,3.55,1.59,3.12,1.24,-0.26,0.23,3,-5,5,1.27,8173,11,79,31,26,902,686.0,633,458,60,121.0,82,1,273,169,57,0,0,581,-2826,-768,686,,,,,,,,,,,,
69683,1560687701675,17,2.26,1.6,3.54,1.54,3.01,1.27,-0.27,0.17,4,-4,4,1.3,7955,11,79,31,26,917,681.0,627,461,60,122.0,82,1,272,160,57,0,0,625,-26380,-10251,681,,,,,,,,,,,,
69703,1560687701695,19,2.27,1.59,3.46,1.55,2.84,1.34,-0.32,0.19,4,-3,2,1.38,7901,11,79,31,26,924,670.0,622,457,60,122.0,69,1,272,160,47,0,0,635,-27404,31988,670,,,,,,,,,,,,
69723,1560687701715,22,2.26,1.6,3.42,1.61,2.66,1.41,-0.35,0.24,4,-3,1,1.46,7931,11,79,31,27,930,659.0,624,456,60,122.0,69,1,275,161,47,0,0,647,-30207,479,659,,,,,,,,,,,,
69743,1560687701735,21,2.26,1.62,3.43,1.66,2.64,1.37,-0.35,0.24,3,-3,1,1.41,7968,11,79,31,27,923,648.0,622,457,60,121.0,69,1,275,161,47,0,0,624,24,20993,648,45.701088,4.911783,69.41,201.8,0,0.0,0,0.0,0.6333,1,0.47,1.1624
69763,1560687701755,18,2.27,1.62,3.43,1.63,2.71,1.43,-0.38,0.33,2,-6,0,1.48,8023,11,79,31,27,915,643.0,622,459,60,123.0,69,1,275,162,47,0,0,623,24,3403,635,,,,,,,,,,,,
69783,1560687701775,21,2.25,1.63,3.46,1.61,2.86,1.49,-0.34,0.34,1,-8,0,1.53,8050,11,79,31,27,906,633.0,623,457,60,122.0,69,1,276,164,47,0,0,599,-2836,-16179,631,,,,,,,,,,,,
69803,1560687701795,20,2.25,1.63,3.56,1.58,3.04,1.4,-0.26,0.28,0,-9,-1,1.42,8012,11,79,31,27,898,632.0,631,465,60,123.0,78,1,275,161,49,0,0,563,-14655,-30159,627,,,,,,,,,,,,
69823,1560687701815,18,2.25,1.66,3.62,1.57,3.19,1.45,-0.3,0.26,-1,-10,-2,1.48,7871,11,79,31,27,897,630.0,633,462,60,123.0,78,1,274,161,49,0,0,543,966,2524,623,,,,,,,,,,,,
69843,1560687701835,19,2.25,1.71,3.66,1.58,3.25,1.5,-0.29,0.26,-2,-9,-0,1.53,7637,11,79,31,27,898,625.0,627,458,60,123.0,78,1,272,161,49,0,0,515,-1346,-28648,618,45.701073,4.91177,65.63,201.8,0,0.0,0,0.0,0.635,1,0.47,1.164
69863,1560687701855,17,2.26,1.78,3.65,1.61,3.23,1.44,-0.17,0.17,-2,-7,-1,1.45,7458,11,79,31,28,902,624.0,625,462,60,123.0,78,1,275,161,49,0,0,504,-16883,-2934,615,,,,,,,,,,,,
69883,1560687701875,20,2.25,1.8,3.64,1.61,3.21,1.5,-0.08,0.09,-3,-6,-3,1.5,7219,11,79,31,28,907,617.0,618,460,60,123.0,78,1,274,163,49,0,0,491,19304,-32248,611,,,,,,,,,,,,
69903,1560687701895,20,2.26,1.84,3.54,1.63,3.14,1.55,-0.08,0.18,-5,-7,-5,1.55,7035,11,79,31,28,912,609.0,608,460,60,122.0,70,1,272,163,43,0,0,525,-30139,1267,599,,,,,,,,,,,,
69923,1560687701915,20,2.27,1.86,3.47,1.61,3.1,1.41,-0.02,-0.04,-4,-4,-4,1.41,6941,11,79,31,28,916,604.0,604,452,60,120.0,70,1,273,226,43,0,0,525,5344,-9212,595,,,,,,,,,,,,
69943,1560687701935,15,2.26,1.85,3.46,1.59,3.11,1.47,0.09,-0.04,-3,-10,-3,1.48,7048,11,79,31,27,918,600.0,598,450,60,123.0,70,1,268,210,43,0,0,469,243,3826,595,45.701061,4.911758,63.72,201.8,0,0.0,0,0.0,0.6367,1,0.47,1.1657
