"Interval"|"ms"|0|0|1,"Utc"|"ms"|0|0|1,"FB_p"|"bar"|0|300|50,"Volant"|"F"|0.0|300.0|50,"xFR"|"mm"|0.0|5.0|50,"xRR"|"mm"|0.0|5.0|50,"xFL"|"mm"|0.0|5.0|50,"xRL"|"mm"|0.0|5.0|50,"AccelX"|"G"|-3.0|3.0|50,"AccelY"|"G"|-3.0|3.0|50,"AccelZ"|"G"|-3.0|3.0|50,"Yaw"|"Deg/Sec"|-120|120|50,"Pitch"|"Deg/Sec"|-120|120|50,"Roll"|"Deg/Sec"|-120|120|50,"Gsum"|"G"|0.0|3.0|50,"RPM"|""|0|14000|50,"TPS"|"%"|0|100|50,"WaterTemp"|"?C"|0|300|50,"AirTemp"|"?C"|-1000|1000|50,"MAP"|"KPa"|0|255|50,"Lambda"|""|0|1024|50,"WheelSpeed"|"MPH"|0.0|150.0|50,"OilPress"|"PSI"|0|150|50,"FuelPress"|"PSI"|0|150|50,"OilTemp"|"F"|0|300|50,"Battery"|"Volts"|0.0|20.0|50,"FuelCon"|"L/h"|-1000|1000|50,"Gear"|""|0|10|50,"Advance"|"Deg"|-360|360|50,"Injection"|"ms"|-1000|1000|50,"FuelCon"|"L/100km"|-1000|1000|50,"LC_But_Pres"|""|-1000|1000|50,"LC_Active"|""|-1000|1000|50,"RD_Speed"|""|-1000|1000|50,"RUD_Speed"|""|-1000|1000|50,"LD_Speed"|""|-1000|1000|50,"LUD_Speed"|""|-1000|1000|50,"Latitude"|"Degrees"|-180.0|180.0|10,"Longitude"|"Degrees"|-180.0|180.0|10,"Speed"|"kph"|0.0|150.0|10,"Altitude"|"m"|0.0|4000.0|10,"LapCount"|""|0|0|10,"LapTime"|"Min"|0.0|0.0|10,"Sector"|""|0|0|10,"SectorTime"|"Min"|0.0|0.0|10,"ElapsedTime"|"Min"|0.0|0.0|10,"CurrentLap"|""|0|0|10,"Distance"|"km"|0.0|0.0|10,"SessionTime"|"Min"|0.0|0.0|10
253963,1560687885961,3,2.28,1.92,3.38,1.89,2.81,0.89,-0.43,0.2,3,-3,4,0.99,10201,13,86,30,26,1043,564.0,640,458,60,121.0,145,1,274,198,83,0,0,549,2216,-9072,564,,,,,,,,,,,,
253983,1560687885981,2,2.28,1.92,3.4,1.88,2.81,0.87,-0.33,0.2,3,-3,5,0.93,10190,13,86,30,26,1045,561.0,638,460,60,121.0,135,1,274,196,76,0,0,546,6273,-8962,561,,,,,,,,,,,,
254003,1560687885995,2,2.28,1.93,3.43,1.9,2.82,0.96,-0.21,0.2,3,0,5,0.99,10146,12,86,30,25,1047,560.0,642,460,60,121.0,135,1,270,193,76,0,0,537,-22263,-8962,559,,,,,,,,,,,,
254023,1560687886015,5,2.27,1.93,3.42,1.9,2.81,1.0,-0.27,0.2,2,-2,5,1.04,10059,12,86,30,25,1047,559.0,642,455,60,122.0,135,1,270,190,76,0,0,541,-9072,-22519,555,,,,,,,,,,,,
254043,1560687886035,3,2.27,1.92,3.39,1.88,2.8,0.88,-0.25,0.2,2,-2,5,0.92,10075,12,86,30,25,1046,553.0,636,465,60,121.0,135,1,270,191,76,0,0,537,6274,-28648,553,45.702114,4.910877,56.22,201.0,2,1.8767,0,0.0,0.41,3,0.32,4.234
254063,1560687886055,2,2.27,1.93,3.37,1.87,2.79,0.99,-0.1,0.21,2,1,4,0.99,10016,11,86,30,24,1043,551.0,633,458,60,121.0,135,1,270,187,76,0,0,542,-32248,-22519,551,,,,,,,,,,,,
254083,1560687886075,5,2.28,1.92,3.36,1.87,2.79,1.08,-0.08,0.17,2,-1,4,1.09,10000,11,86,30,24,1042,548.0,638,453,60,122.0,127,1,270,185,70,0,0,535,14504,6274,545,,,,,,,,,,,,
254103,1560687886101,4,2.26,1.93,3.36,1.87,2.79,0.99,-0.08,0.22,2,-2,4,1.0,10016,11,86,30,24,1040,544.0,632,459,60,122.0,127,1,270,185,70,0,0,535,-506,-8186,547,,,,,,,,,,,,
254123,1560687886121,7,2.26,1.93,3.39,1.87,2.78,1.03,0.0,0.25,1,-2,4,1.03,9968,11,86,30,24,1039,544.0,632,456,60,121.0,127,1,270,182,70,0,0,529,1779,-22519,544,,,,,,,,,,,,
254143,1560687886141,17,2.27,1.92,3.39,1.87,2.8,1.13,-0.03,0.21,0,-4,3,1.13,9858,11,86,31,23,1040,536.0,634,452,60,122.0,127,1,270,180,70,0,0,525,-28648,-9212,535,45.702106,4.910892,55.31,201.0,2,1.8767,0,0.0,0.4117,3,0.33,4.2357
254163,1560687886161,17,2.26,1.93,3.38,1.85,2.84,1.12,-0.02,0.22,1,-5,4,1.12,9791,10,86,31,23,1044,530.0,639,456,60,121.0,127,1,270,179,70,0,0,514,-28648,-8187,530,,,,,,,,,,,,
254183,1560687886181,22,2.27,1.9,3.42,1.81,2.86,1.21,-0.03,0.24,0,-4,2,1.21,9669,10,86,31,23,1048,523.0,635,457,60,122.0,123,1,270,179,65,0,0,508,-9212,10994,523,,,,,,,,,,,,
254203,1560687886201,21,2.27,1.88,3.44,1.78,2.94,1.3,-0.1,0.32,0,-4,1,1.3,9436,10,86,31,22,1053,519.0,631,461,60,121.0,123,1,270,170,65,0,0,501,-8187,10408,518,,,,,,,,,,,,
254223,1560687886221,23,2.27,1.87,3.46,1.75,2.97,1.21,-0.0,0.13,1,-1,1,1.21,9250,10,86,31,22,1056,513.0,631,457,60,121.0,123,1,270,170,65,0,0,492,26178,2524,513,,,,,,,,,,,,
254243,1560687886241,24,2.27,1.87,3.51,1.74,2.97,1.3,-0.1,0.17,1,0,1,1.3,9066,10,86,31,21,1061,509.0,629,462,60,122.0,123,1,270,164,65,0,0,478,10994,-9216,509,45.702099,4.910906,54.19,201.0,2,1.8767,0,0.0,0.4133,3,0.33,4.2374
254263,1560687886261,19,2.28,1.86,3.53,1.74,2.97,1.37,-0.23,0.24,1,0,2,1.39,8894,10,86,31,21,1069,506.0,616,456,60,122.0,123,1,270,164,65,0,0,461,-28648,-32768,502,,,,,,,,,,,,
254283,1560687886281,18,2.27,1.86,3.52,1.75,2.95,1.43,-0.22,0.2,1,1,2,1.45,8708,10,86,31,21,1079,499.0,614,458,60,121.0,108,1,270,164,54,0,0,444,2524,505,499,,,,,,,,,,,,
254303,1560687886301,15,2.27,1.86,3.51,1.74,2.93,1.36,-0.2,0.16,1,1,3,1.37,8585,10,86,31,22,1083,494.0,616,461,60,121.0,108,1,270,170,54,0,0,448,771,-899,494,,,,,,,,,,,,
254323,1560687886321,11,2.27,1.86,3.47,1.74,2.93,1.38,-0.12,0.11,0,1,2,1.39,8423,10,86,31,22,1087,492.0,615,458,60,122.0,108,1,270,167,54,0,0,467,-32768,-17956,491,,,,,,,,,,,,
254343,1560687886341,9,2.27,1.85,3.45,1.74,2.94,1.31,-0.04,0.12,0,1,2,1.31,8370,9,86,31,22,1095,488.0,610,458,60,121.0,108,1,270,165,54,0,0,458,505,-18108,488,45.702091,4.91092,52.51,201.0,2,1.8767,0,0.0,0.415,3,0.33,4.239
254363,1560687886361,4,2.28,1.85,3.43,1.72,2.93,1.32,-0.05,0.09,0,2,2,1.32,8344,9,86,31,22,1099,486.0,609,457,60,122.0,108,1,270,169,54,0,0,455,-6441,10305,486,,,,,,,,,,,,
254383,1560687886381,1,2.27,1.85,3.42,1.72,2.91,1.35,-0.03,0.19,-0,2,2,1.35,8374,9,86,31,22,1102,483.0,615,461,60,122.0,109,1,270,165,53,0,0,449,3580,-8985,482,,,,,,,,,,,,
254403,1560687886401,4,2.27,1.85,3.41,1.73,2.9,1.3,-0.01,0.13,-0,2,2,1.3,8434,9,86,31,22,1103,480.0,611,458,60,123.0,109,1,270,167,53,0,0,452,16648,15649,480,,,,,,,,,,,,
254423,1560687886421,1,2.27,1.85,3.42,1.72,2.89,1.26,-0.04,0.19,0,4,2,1.26,8465,9,86,31,22,1108,474.0,612,460,60,122.0,109,1,270,168,53,0,0,452,3576,-9160,474,,,,,,,,,,,,
254443,1560687886441,-1,2.27,1.85,3.41,1.73,2.88,1.22,-0.05,0.29,0,4,2,1.23,8499,9,86,31,22,1110,472.0,612,455,60,121.0,109,1,270,168,53,0,0,456,-1923,-8985,472,45.70208,4.910933,50.1,201.0,2,1.8767,0,0.0,0.4167,3,0.33,4.2407
254463,1560687886461,0,2.28,1.87,3.39,1.74,2.88,1.23,0.01,0.16,-0,1,1,1.23,8491,9,86,31,21,1111,469.0,604,458,60,122.0,109,1,270,163,53,0,0,455,-16384,8488,469,,,,,,,,,,,,
254483,1560687886481,2,2.26,1.89,3.36,1.74,2.88,1.21,0.02,0.18,-0,2,1,1.21,8495,9,86,31,21,1112,466.0,614,456,60,121.0,113,1,270,163,53,0,0,452,16408,16648,466,,,,,,,,,,,,
254503,1560687886501,-0,2.28,1.88,3.36,1.74,2.89,1.18,0.05,0.22,0,2,1,1.18,8472,9,86,31,21,1104,463.0,612,461,60,121.0,113,1,270,164,53,0,0,451,12552,10305,463,,,,,,,,,,,,
254523,1560687886521,6,2.27,1.87,3.36,1.73,2.88,1.18,0.03,0.09,1,2,1,1.18,8465,9,86,31,21,1094,461.0,607,457,60,122.0,113,1,270,162,53,0,0,447,-18108,8488,461,,,,,,,,,,,,
254543,1560687886541,5,2.26,1.89,3.36,1.74,2.87,1.15,0.06,0.12,1,2,2,1.16,8396,9,86,32,21,1087,459.0,611,458,60,122.0,113,1,270,160,53,0,0,442,-9160,8488,458,45.702072,4.910945,48.1,201.0,2,1.8767,0,0.0,0.4183,3,0.33,4.2424
254563,1560687886561,9,2.28,1.88,3.36,1.74,2.84,1.13,0.16,0.05,0,1,2,1.15,8311,9,86,32,22,1075,453.0,604,456,60,121.0,113,1,270,157,53,0,0,441,3571,-6387,453,,,,,,,,,,,,
254583,1560687886581,8,2.27,1.86,3.37,1.73,2.86,1.18,0.13,0.11,0,1,2,1.19,8198,9,86,32,21,1064,450.0,612,459,60,121.0,106,1,270,154,48,0,0,440,15649,-28332,450,,,,,,,,,,,,
254603,1560687886601,10,2.26,1.87,3.38,1.74,2.88,1.15,0.13,0.11,0,0,1,1.15,8148,9,86,32,21,1050,446.0,606,461,60,122.0,106,1,270,153,48,0,0,436,2131,-3322,446,,,,,,,,,,,,
254623,1560687886621,8,2.27,1.87,3.38,1.75,2.9,1.11,0.09,0.14,1,2,2,1.11,8054,9,86,32,21,1040,444.0,605,460,60,122.0,106,1,270,150,48,0,0,433,-18341,243,442,,,,,,,,,,,,
254643,1560687886641,10,2.27,1.87,3.39,1.74,2.9,1.19,0.13,0.15,0,0,-0,1.2,7968,9,86,32,21,1036,440.0,598,455,60,122.0,106,1,269,149,48,0,0,426,21580,3635,439,45.702064,4.910957,46.53,201.0,2,1.8767,0,0.0,0.42,3,0.33,4.2441
254663,1560687886661,13,2.26,1.87,3.38,1.74,2.9,1.17,0.18,0.16,-0,-3,1,1.18,7934,9,86,32,21,1022,435.0,591,458,60,121.0,106,1,268,146,48,0,0,423,243,3826,435,,,,,,,,,,,,
254683,1560687886681,13,2.27,1.87,3.4,1.72,2.93,1.11,0.1,0.15,0,-2,2,1.11,7828,9,86,32,21,1012,431.0,585,454,60,122.0,99,1,268,146,43,0,0,410,13180,18584,431,,,,,,,,,,,,
254703,1560687886698,17,2.25,1.85,3.4,1.73,2.92,1.1,0.03,0.15,1,1,1,1.1,7684,9,86,32,21,1002,425.0,576,456,60,121.0,99,1,266,149,43,0,0,414,-3856,-3414,425,,,,,,,,,,,,
254723,1560687886718,13,2.25,1.86,3.4,1.73,2.92,1.15,0.04,0.12,1,-1,0,1.15,7606,9,86,32,21,995,421.0,572,458,60,121.0,99,1,266,149,43,0,0,410,-8165,2524,421,,,,,,,,,,,,
254743,1560687886738,13,2.26,1.86,3.4,1.73,2.93,1.23,-0.04,0.15,1,-1,1,1.23,7497,9,86,32,21,950,416.0,561,457,60,123.0,99,1,264,149,43,0,0,404,2524,1504,416,45.702057,4.910969,44.31,201.0,2,1.8767,0,0.0,0.4217,3,0.33,4.2457
254763,1560687886758,18,2.25,1.86,3.41,1.72,2.93,1.28,-0.06,0.23,1,-1,1,1.29,7431,9,86,32,21,905,411.0,556,462,60,122.0,99,1,264,149,43,0,0,392,-4059,-1818,411,,,,,,,,,,,,
254783,1560687886778,16,2.25,1.85,3.42,1.72,2.94,1.3,-0.01,0.24,1,0,1,1.3,7327,9,86,32,21,875,408.0,552,460,60,121.0,100,1,263,151,41,0,0,389,10392,-1818,405,,,,,,,,,,,,
254803,1560687886800,16,2.24,1.85,3.43,1.71,2.95,1.21,-0.05,0.23,2,3,0,1.21,7259,9,86,32,22,829,403.0,553,461,60,121.0,100,1,262,151,41,0,0,386,11545,-6524,400,,,,,,,,,,,,
254823,1560687886820,16,2.24,1.85,3.42,1.71,2.96,1.13,-0.05,0.11,2,3,1,1.13,7164,9,86,32,22,805,398.0,544,457,60,121.0,100,1,261,151,41,0,0,385,-3968,8200,395,,,,,,,,,,,,
254843,1560687886840,15,2.22,1.85,3.43,1.68,2.95,1.18,0.09,0.08,0,4,1,1.18,7033,9,86,32,22,775,395.0,541,458,60,122.0,100,1,260,151,41,0,0,380,-6656,2278,389,45.702053,4.91098,42.58,201.0,2,1.8767,0,0.0,0.4233,3,0.34,4.2474
254863,1560687886860,18,2.22,1.85,3.42,1.67,2.95,1.26,0.03,0.24,-1,2,-1,1.26,6957,8,86,32,22,765,389.0,533,462,60,122.0,100,1,260,151,41,0,0,375,240,742,383,,,,,,,,,,,,
254883,1560687886880,15,2.21,1.85,3.42,1.66,2.96,1.18,0.02,0.08,0,4,-3,1.18,6895,8,86,32,23,771,385.0,529,452,60,123.0,104,1,261,153,40,0,0,372,-19126,0,377,,,,,,,,,,,,
254903,1560687886900,16,2.21,1.85,3.42,1.64,2.97,1.26,-0.0,0.11,-1,2,-5,1.26,6778,8,86,32,23,780,381.0,525,458,60,122.0,104,1,261,153,40,0,0,370,8200,-14707,373,,,,,,,,,,,,
254923,1560687886920,12,2.19,1.85,3.42,1.6,2.98,1.23,-0.08,0.04,-1,5,-4,1.23,6708,8,86,32,23,795,377.0,517,460,60,122.0,104,1,261,153,40,0,0,358,-6656,3302,368,,,,,,,,,,,,
254943,1560687886940,18,2.19,1.85,3.42,1.6,2.99,1.19,0.04,0.04,-2,4,-2,1.19,6618,8,86,32,24,801,374.0,510,456,60,122.0,104,1,263,155,40,0,0,355,742,2060,361,45.702042,4.910991,40.57,201.0,2,1.8767,0,0.0,0.425,3,0.34,4.2491
254963,1560687886960,11,2.18,1.87,3.41,1.57,2.97,1.2,0.17,-0.02,-3,4,-1,1.21,6546,8,86,32,24,805,368.0,506,460,60,122.0,104,1,263,155,40,0,0,351,0,8841,355,,,,,,,,,,,,
254983,1560687886980,14,2.16,1.89,3.41,1.54,2.98,1.19,0.18,0.06,-4,4,-2,1.21,6441,8,86,32,25,815,365.0,502,461,60,121.0,111,1,266,159,39,0,0,354,-6405,3327,348,,,,,,,,,,,,
255003,1560687886994,16,2.16,1.89,3.4,1.52,2.96,1.12,0.2,0.03,-5,4,-6,1.14,6366,8,86,32,25,823,360.0,498,455,60,121.0,111,1,267,159,39,0,0,343,-14707,-10554,343,,,,,,,,,,,,
255023,1560687887014,18,2.17,1.9,3.38,1.5,2.97,1.12,0.32,-0.04,-5,4,-8,1.16,6289,8,86,32,26,838,356.0,487,456,60,123.0,111,1,271,160,39,0,0,340,-6644,-12032,336,,,,,,,,,,,,
255043,1560687887034,10,2.15,1.9,3.38,1.47,2.98,1.11,0.42,-0.15,-5,5,-9,1.19,6220,8,86,32,26,844,350.0,479,462,60,123.0,111,1,271,160,39,0,0,337,-30454,165,334,45.702038,4.911001,38.0,201.0,2,1.8767,0,0.0,0.4267,3,0.34,4.2507
255063,1560687887054,11,2.17,1.91,3.39,1.48,3.0,1.12,0.4,-0.22,-6,6,-10,1.19,6127,8,86,33,27,859,346.0,475,464,60,122.0,111,1,275,160,39,0,0,333,-30438,-27136,326,,,,,,,,,,,,
255083,1560687887074,9,2.16,1.9,3.39,1.47,3.01,1.21,0.3,-0.21,-7,7,-10,1.24,6044,8,86,33,27,872,343.0,471,467,60,122.0,113,1,275,161,37,0,0,328,6668,150,325,,,,,,,,,,,,
255103,1560687887100,10,2.15,1.91,3.37,1.48,3.01,1.29,0.2,-0.21,-9,7,-10,1.31,5950,8,86,33,28,880,338.0,464,462,60,123.0,113,1,277,162,37,0,0,328,-31222,135,321,,,,,,,,,,,,
255123,1560687887120,14,2.14,1.94,3.35,1.48,3.0,1.36,0.16,-0.23,-11,8,-10,1.37,5857,8,86,33,29,887,334.0,456,463,60,123.0,113,1,278,162,37,0,0,325,-32559,32000,317,,,,,,,,,,,,
255143,1560687887140,14,2.13,1.93,3.34,1.47,3.01,1.43,0.17,-0.26,-13,8,-9,1.44,5787,8,86,33,29,892,329.0,452,461,60,123.0,113,1,277,163,37,0,0,320,-20736,26880,311,45.702034,4.91101,34.82,200.9,2,1.8767,0,0.0,0.4283,3,0.34,4.2524
255163,1560687887160,11,2.12,1.93,3.34,1.48,3.02,1.23,0.18,-0.34,-13,12,-9,1.25,5716,8,86,33,30,897,323.0,448,456,60,122.0,113,1,279,164,37,0,0,317,-24576,25600,309,,,,,,,,,,,,
255183,1560687887180,10,2.1,1.93,3.35,1.47,3.02,1.03,0.21,-0.33,-10,14,-10,1.05,5650,8,86,33,31,902,320.0,444,457,60,121.0,115,1,280,164,35,0,0,309,150,85,301,,,,,,,,,,,,
255203,1560687887200,10,2.08,1.95,3.33,1.47,3.04,1.07,0.29,-0.25,-8,9,-10,1.11,5615,8,86,33,32,901,316.0,438,462,60,122.0,115,1,282,164,35,0,0,307,140,0,295,,,,,,,,,,,,
255223,1560687887220,12,2.05,1.98,3.33,1.48,3.06,1.17,0.29,-0.14,-12,5,-9,1.2,5539,8,86,33,32,900,314.0,432,460,60,123.0,115,1,280,164,35,0,0,307,135,10686,291,,,,,,,,,,,,
255243,1560687887240,9,2.03,2.01,3.31,1.47,3.1,1.04,0.25,-0.1,-14,7,-11,1.07,5472,8,86,33,33,898,311.0,430,463,60,121.0,115,1,282,169,35,0,0,306,130,630,288,45.702026,4.911019,32.68,200.9,2,1.8767,0,0.0,0.43,3,0.34,4.254
255263,1560687887260,7,2.0,2.06,3.28,1.48,3.11,1.0,0.34,-0.06,-13,5,-13,1.05,5417,8,86,33,34,894,310.0,426,458,60,123.0,115,1,285,175,35,0,0,305,125,2414,285,,,,,,,,,,,,
255283,1560687887280,7,1.98,2.08,3.24,1.46,3.1,1.1,0.35,-0.01,-16,4,-15,1.16,5329,8,86,33,35,890,309.0,419,445,60,122.0,129,1,287,179,36,0,0,303,32000,28160,278,,,,,,,,,,,,
255303,1560687887300,6,1.96,2.1,3.2,1.45,3.14,1.0,0.38,-0.06,-17,5,-17,1.07,5271,8,86,33,36,887,307.0,417,466,60,122.0,129,1,290,185,36,0,0,301,30720,-1,274,,,,,,,,,,,,
255323,1560687887320,9,1.94,2.1,3.18,1.44,3.17,1.11,0.41,-0.02,-19,3,-19,1.18,5235,8,86,33,37,888,306.0,411,457,60,123.0,129,1,294,191,36,0,0,300,115,-1,270,,,,,,,,,,,,
255343,1560687887340,2,1.95,2.12,3.16,1.44,3.13,0.95,0.46,-0.02,-19,3,-21,1.06,5185,8,86,33,38,890,305.0,404,451,60,121.0,129,1,297,196,36,0,0,298,29440,-1,266,45.702023,4.911028,30.62,200.9,2,1.8767,0,0.0,0.4317,3,0.34,4.2557
255363,1560687887360,2,1.93,2.16,3.14,1.44,3.12,1.06,0.48,0.01,-22,1,-22,1.16,5136,8,86,33,39,894,301.0,396,453,60,123.0,129,1,301,203,36,0,0,294,26880,-41,265,,,,,,,,,,,,
255383,1560687887380,4,1.93,2.17,3.14,1.45,3.16,1.04,0.52,0.01,-21,3,-25,1.16,5124,8,86,33,40,897,300.0,393,452,60,123.0,147,1,302,204,39,0,0,292,100,-1,263,,,,,,,,,,,,
255403,1560687887400,0,1.91,2.18,3.14,1.46,3.16,0.99,0.49,0.02,-23,3,-26,1.11,5086,8,86,33,40,909,300.0,391,451,60,121.0,147,1,301,204,39,0,0,291,100,-214,261,,,,,,,,,,,,
255423,1560687887420,3,1.91,2.2,3.12,1.48,3.17,1.09,0.59,0.11,-24,-3,-27,1.24,5029,8,86,33,41,923,299.0,389,452,60,123.0,147,1,301,206,39,0,0,293,95,-1,260,,,,,,,,,,,,
255443,1560687887440,4,1.9,2.2,3.12,1.47,3.17,0.95,0.63,0.07,-24,2,-28,1.14,4993,8,86,33,42,930,296.0,388,457,60,122.0,147,1,300,205,39,0,0,290,90,16896,258,45.702019,4.911037,28.58,200.8,2,1.8767,0,0.0,0.4333,3,0.34,4.2574
255463,1560687887460,1,1.9,2.2,3.12,1.47,3.16,1.0,0.57,0.18,-26,2,-29,1.15,4984,8,86,33,42,937,295.0,381,445,60,120.0,147,1,300,207,39,0,0,287,23040,10812,257,,,,,,,,,,,,
255483,1560687887480,3,1.9,2.2,3.11,1.46,3.17,1.1,0.68,0.2,-26,-3,-29,1.29,4959,8,86,33,42,938,294.0,381,450,60,123.0,148,1,299,207,38,0,0,286,85,23482,255,,,,,,,,,,,,
255503,1560687887500,7,1.9,2.19,3.1,1.46,3.15,0.99,0.65,0.15,-25,-0,-31,1.18,4923,8,86,33,43,936,292.0,380,455,60,122.0,148,1,299,208,38,0,0,284,80,250,252,,,,,,,,,,,,
255523,1560687887520,5,1.92,2.18,3.1,1.46,3.13,0.97,0.65,0.14,-26,3,-33,1.17,4873,8,86,33,44,927,289.0,376,449,60,120.0,148,1,299,208,38,0,0,281,0,-17920,249,,,,,,,,,,,,
255543,1560687887540,6,1.92,2.17,3.11,1.48,3.11,1.01,0.59,0.23,-27,1,-34,1.17,4837,8,86,33,44,921,287.0,380,443,60,122.0,148,1,297,207,38,0,0,275,41,250,247,45.702015,4.911045,27.68,200.8,2,1.8767,0,0.0,0.435,3,0.34,4.259
255563,1560687887560,6,1.95,2.16,3.12,1.47,3.09,1.08,0.67,0.24,-27,-1,-34,1.27,4826,8,86,33,44,895,281.0,378,446,60,123.0,148,1,297,207,38,0,0,274,24064,-25600,245,,,,,,,,,,,,
255583,1560687887580,8,1.97,2.16,3.16,1.47,3.09,1.05,0.65,0.2,-26,-2,-34,1.24,4820,8,86,33,45,857,279.0,370,455,60,123.0,156,1,299,209,38,0,0,270,630,-25600,243,,,,,,,,,,,,
255603,1560687887599,10,2.01,2.15,3.18,1.49,3.06,0.96,0.63,0.18,-25,1,-35,1.14,4772,8,86,33,45,835,276.0,371,457,60,121.0,156,1,297,208,38,0,0,270,-1527,13602,242,,,,,,,,,,,,
255623,1560687887619,5,2.07,2.14,3.19,1.52,3.02,0.89,0.59,0.18,-25,4,-36,1.07,4681,8,86,33,46,814,272.0,363,449,60,121.0,156,1,298,208,38,0,0,266,250,250,241,,,,,,,,,,,,
255643,1560687887639,4,2.11,2.12,3.2,1.53,2.96,0.87,0.5,0.23,-24,4,-35,1.01,4594,8,86,33,45,800,269.0,360,446,60,122.0,156,1,294,203,38,0,0,262,-1,-1483,240,45.702015,4.911054,26.42,200.8,2,1.8767,0,0.0,0.4367,3,0.34,4.2607
255663,1560687887659,3,2.17,2.1,3.21,1.59,2.87,0.83,0.39,0.26,-23,5,-35,0.92,4545,8,86,33,45,787,263.0,353,448,60,122.0,156,1,292,202,38,0,0,257,-1,250,239,,,,,,,,,,,,
255683,1560687887679,-1,2.23,2.05,3.24,1.66,2.81,0.83,0.23,0.29,-22,5,-34,0.86,4507,8,86,33,45,789,258.0,345,452,60,121.0,141,1,292,205,34,0,0,249,-10440,13468,240,,,,,,,,,,,,
255703,1560687887699,1,2.28,1.99,3.29,1.75,2.78,0.84,0.12,0.35,-19,5,-31,0.85,4486,8,86,33,46,795,252.0,345,453,60,121.0,141,1,294,204,34,0,0,244,-1,-25600,242,,,,,,,,,,,,
255723,1560687887719,-1,2.34,1.91,3.34,1.82,2.75,0.83,0.02,0.42,-17,5,-28,0.83,4486,8,86,33,46,809,248.0,339,450,60,122.0,141,1,294,204,34,0,0,238,15360,250,244,,,,,,,,,,,,
255743,1560687887739,-0,2.38,1.87,3.39,1.84,2.74,0.78,-0.06,0.43,-15,5,-25,0.78,4467,8,86,33,46,836,244.0,340,455,60,121.0,141,1,294,204,34,0,0,239,-17920,23482,244,45.702011,4.911062,25.11,200.8,2,1.8767,0,0.0,0.4383,3,0.34,4.2624
255763,1560687887759,0,2.43,1.84,3.41,1.9,2.72,0.7,-0.14,0.42,-13,6,-22,0.72,4454,8,86,33,46,849,247.0,338,454,60,121.0,141,1,293,204,34,0,0,237,250,23482,247,,,,,,,,,,,,
255783,1560687887779,0,2.48,1.84,3.43,1.96,2.71,0.67,-0.21,0.4,-10,9,-18,0.7,4445,8,86,33,46,863,248.0,336,456,60,121.0,137,1,293,203,34,0,0,233,-1483,250,248,,,,,,,,,,,,
255803,1560687887799,-1,2.55,1.83,3.45,2.01,2.71,0.6,-0.27,0.4,-7,11,-15,0.66,4478,8,86,33,46,878,249.0,338,452,60,122.0,137,1,294,204,34,0,0,231,250,10812,249,,,,,,,,,,,,
255823,1560687887819,1,2.6,1.83,3.47,2.06,2.68,0.53,-0.37,0.38,-4,12,-12,0.65,4448,8,86,33,46,896,250.0,337,451,60,121.0,137,1,293,203,34,0,0,226,-1496,15360,250,,,,,,,,,,,,
255843,1560687887839,3,2.66,1.83,3.51,2.11,2.65,0.43,-0.45,0.32,-1,13,-9,0.62,4412,8,86,34,46,904,251.0,336,450,60,122.0,137,1,292,203,34,0,0,222,19968,16896,251,45.702011,4.91107,24.85,200.8,2,1.8767,0,0.0,0.44,3,0.34,4.264
255863,1560687887859,4,2.71,1.82,3.54,2.14,2.65,0.38,-0.53,0.27,2,16,-6,0.65,4380,8,86,34,46,905,252.0,333,459,60,123.0,137,1,292,202,34,0,0,218,15360,-1494,252,,,,,,,,,,,,
255883,1560687887879,4,2.76,1.81,3.56,2.17,2.64,0.38,-0.54,0.27,6,16,-2,0.66,4362,8,86,34,46,904,253.0,330,455,60,122.0,130,1,292,201,33,0,0,215,1210,10812,253,,,,,,,,,,,,
255903,1560687887899,1,2.81,1.77,3.6,2.18,2.63,0.48,-0.58,0.32,9,14,2,0.75,4314,8,86,34,46,903,255.0,327,456,60,123.0,130,1,291,200,33,0,0,212,-1532,10818,255,,,,,,,,,,,,
255923,1560687887919,-0,2.84,1.75,3.63,2.2,2.62,0.58,-0.64,0.39,12,9,7,0.86,4244,9,86,34,46,901,257.0,323,455,60,123.0,130,1,290,198,33,0,0,207,1088,16896,257,,,,,,,,,,,,
255943,1560687887939,-1,2.9,1.73,3.67,2.21,2.61,0.68,-0.67,0.43,15,4,12,0.96,4235,11,86,34,47,899,258.0,323,448,60,123.0,130,1,294,202,33,0,0,204,966,250,258,45.702007,4.911079,24.28,200.8,2,1.8767,0,0.0,0.4417,3,0.35,4.2657
255963,1560687887959,-1,0.33,1.72,3.7,2.2,2.61,0.65,-0.75,0.41,17,4,15,0.99,4173,12,86,34,48,898,258.0,320,456,60,120.0,130,1,293,205,33,0,0,199,-14848,250,258,,,,,,,,,,,,
255983,1560687887979,2,0.4,1.72,3.69,2.22,2.6,0.59,-0.85,0.36,20,6,18,1.03,4184,13,86,34,49,898,258.0,317,453,60,121.0,124,1,294,209,32,0,0,198,13964,250,258,,,,,,,,,,,,
256003,1560687887995,1,0.43,1.71,3.7,2.22,2.6,0.61,-0.85,0.36,23,6,22,1.05,4209,14,86,34,50,898,258.0,316,463,60,123.0,124,1,295,214,32,0,0,195,-29696,16896,258,,,,,,,,,,,,
256023,1560687888015,-1,0.44,1.7,3.7,2.21,2.59,0.71,-0.89,0.43,26,2,27,1.14,4205,15,86,34,51,901,259.0,314,462,60,123.0,124,1,295,218,32,0,0,193,12800,-214,259,,,,,,,,,,,,
256043,1560687888035,-0,0.43,1.71,3.7,2.2,2.59,0.78,-0.93,0.47,28,-1,32,1.21,4204,16,86,34,52,903,257.0,313,452,60,122.0,124,1,296,222,32,0,0,191,12800,16896,257,45.702004,4.911087,23.45,200.8,2,1.8767,0,0.0,0.4433,3,0.35,4.2674
256063,1560687888055,-0,0.44,1.7,3.7,2.21,2.58,0.78,-0.98,0.47,31,-2,36,1.25,4267,17,86,34,54,906,260.0,315,452,60,122.0,124,1,298,230,32,0,0,189,13874,15360,260,,,,,,,,,,,,
256083,1560687888075,3,0.44,1.71,3.71,2.2,2.59,0.7,-1.03,0.4,33,-1,39,1.25,4281,17,86,34,55,909,260.0,318,456,60,121.0,146,1,298,239,38,0,0,186,-1480,10812,260,,,,,,,,,,,,
256103,1560687888099,3,0.43,1.7,3.7,2.21,2.54,0.7,-1.06,0.37,35,2,41,1.27,4290,18,86,34,57,909,259.0,316,458,60,122.0,146,1,296,244,38,0,0,186,-1480,-1494,259,,,,,,,,,,,,
256123,1560687888119,3,0.43,1.71,3.7,2.2,2.53,0.67,-1.04,0.33,37,2,43,1.23,4328,18,86,34,58,909,260.0,317,461,60,123.0,146,1,295,249,38,0,0,184,19456,15360,260,,,,,,,,,,,,
256143,1560687888139,2,0.43,1.71,3.7,2.2,2.53,0.69,-1.06,0.32,39,3,45,1.26,4375,18,86,34,59,907,260.0,318,466,60,123.0,146,1,294,254,38,0,0,182,-1481,250,260,45.702004,4.911093,22.12,200.8,2,1.8767,0,0.0,0.445,3,0.35,4.2691
256163,1560687888159,-1,0.43,1.71,3.7,2.19,2.53,0.8,-1.07,0.35,40,1,47,1.33,4416,19,86,34,60,904,258.0,323,470,60,123.0,146,1,294,260,38,0,0,182,-1481,15360,258,,,,,,,,,,,,
256183,1560687888179,1,0.43,1.71,3.69,2.19,2.52,0.86,-1.0,0.33,41,-1,50,1.32,4429,22,86,34,61,901,258.0,324,464,60,123.0,170,1,293,265,44,0,0,181,-1481,23482,258,,,,,,,,,,,,
256203,1560687888199,1,0.42,1.7,3.7,2.19,2.53,0.89,-0.99,0.37,43,-3,53,1.34,4499,25,86,34,63,899,257.0,326,457,60,123.0,170,1,293,271,44,0,0,182,-1481,23482,257,,,,,,,,,,,,
256223,1560687888219,-0,0.42,1.71,3.7,2.18,2.52,0.95,-0.98,0.41,44,-4,54,1.36,4425,31,86,34,66,899,257.0,327,455,60,123.0,170,1,293,287,44,0,0,212,-1481,-1445,257,,,,,,,,,,,,
256243,1560687888239,-1,0.41,1.73,3.69,2.19,2.51,1.01,-0.89,0.43,45,-7,56,1.35,4416,34,86,34,69,899,257.0,323,451,60,123.0,170,1,293,308,44,0,0,257,-1481,23482,257,45.701996,4.911099,21.61,200.8,2,1.8767,0,0.0,0.4467,3,0.35,4.2707
256263,1560687888259,-2,0.4,1.73,3.67,2.19,2.49,0.99,-0.86,0.38,45,-8,57,1.31,4498,40,86,34,73,903,256.0,297,458,60,123.0,170,1,291,324,44,0,0,242,250,-1445,256,,,,,,,,,,,,
256283,1560687888279,-2,0.36,1.72,3.68,2.18,2.51,1.02,-0.86,0.36,46,-9,58,1.34,4515,48,86,34,77,904,255.0,265,459,60,123.0,223,1,290,349,57,0,0,225,250,-17920,255,,,,,,,,,,,,
256303,1560687888299,-2,2.93,1.72,3.67,2.19,2.5,1.06,-0.84,0.37,46,-10,60,1.35,4537,59,86,34,84,915,256.0,270,463,60,123.0,223,1,288,428,57,0,0,229,19456,250,256,,,,,,,,,,,,
256323,1560687888319,0,2.86,1.72,3.64,2.19,2.5,1.04,-0.79,0.41,46,-9,61,1.3,4534,70,86,34,90,924,255.0,282,470,60,123.0,223,1,288,458,57,0,0,259,14412,-1445,257,,,,,,,,,,,,
256343,1560687888339,-1,2.82,1.74,3.58,2.18,2.51,1.01,-0.76,0.44,45,-8,61,1.27,4444,80,86,34,95,929,256.0,264,452,60,123.0,223,1,290,590,57,0,0,241,14412,-1445,255,45.701996,4.911104,20.62,200.8,2,1.8767,0,0.0,0.4483,3,0.35,4.2724
256363,1560687888359,-1,2.76,1.83,3.5,2.18,2.51,1.02,-0.72,0.48,45,-8,62,1.25,4380,86,86,34,97,936,254.0,270,465,60,123.0,223,1,291,645,57,0,0,196,250,15360,251,,,,,,,,,,,,
256383,1560687888379,1,2.7,1.92,3.41,2.18,2.5,1.02,-0.67,0.53,43,-8,62,1.22,4175,88,86,34,97,943,253.0,275,447,60,121.0,411,1,295,644,104,0,0,201,250,23482,253,,,,,,,,,,,,
256403,1560687888399,5,2.63,2.0,3.31,2.17,2.51,0.98,-0.62,0.52,41,-7,60,1.15,4084,89,86,34,97,952,250.0,271,443,60,121.0,411,1,296,643,104,0,0,203,13964,-1445,250,,,,,,,,,,,,
256423,1560687888419,0,2.57,2.06,3.24,2.17,2.53,0.99,-0.52,0.5,39,-5,59,1.11,4111,89,86,34,98,958,248.0,276,455,60,122.0,411,1,295,643,104,0,0,204,250,-17920,248,,,,,,,,,,,,
256443,1560687888439,-1,2.51,2.12,3.16,2.16,2.59,0.93,-0.47,0.5,37,-4,57,1.04,4315,90,86,34,97,960,245.0,281,470,60,123.0,411,1,292,645,104,0,0,210,-14848,-1484,245,45.701992,4.911108,20.79,200.8,2,1.8767,0,0.0,0.45,3,0.35,4.274
256463,1560687888459,-0,2.43,2.17,3.13,2.15,2.66,0.82,-0.4,0.5,35,-3,55,0.92,4457,90,86,34,97,1003,241.0,287,458,60,123.0,411,1,290,646,104,0,0,218,16384,-1484,241,,,,,,,,,,,,
256483,1560687888479,2,2.36,2.21,3.09,2.13,2.68,0.77,-0.27,0.5,33,-1,51,0.81,4567,91,86,34,98,1078,239.0,296,462,60,123.0,481,1,287,647,116,0,0,222,-1532,-17920,239,,,,,,,,,,,,
256503,1560687888499,2,2.29,2.24,3.04,2.1,2.67,0.67,-0.15,0.52,30,1,48,0.69,4608,91,86,34,97,1122,238.0,307,461,60,123.0,481,1,287,647,116,0,0,232,250,250,238,,,,,,,,,,,,
256523,1560687888519,2,2.22,2.29,2.97,2.1,2.67,0.62,-0.09,0.54,27,2,44,0.63,4669,91,86,34,98,1192,237.0,315,465,60,123.0,481,1,285,674,116,0,0,243,8704,23482,237,,,,,,,,,,,,
256543,1560687888539,6,2.15,2.36,2.9,2.1,2.66,0.62,-0.04,0.6,23,2,39,0.63,4708,91,86,34,98,1260,241.0,326,456,60,122.0,481,1,285,674,116,0,0,249,-17920,250,237,45.701984,4.911112,20.16,200.9,2,1.8767,0,0.0,0.4517,3,0.35,4.2757
256563,1560687888559,0,2.1,2.43,2.82,2.11,2.66,0.67,0.01,0.69,18,2,34,0.67,4712,91,86,34,97,1332,247.0,332,445,60,120.0,481,1,285,674,116,0,0,254,-1494,250,237,,,,,,,,,,,,
256583,1560687888579,1,2.05,2.46,2.8,2.07,2.71,0.7,0.04,0.75,14,-1,30,0.7,4701,91,86,34,97,1360,253.0,332,447,60,121.0,483,1,285,648,115,0,0,258,-1,-1,238,,,,,,,,,,,,
256603,1560687888599,0,2.02,2.51,2.77,2.05,2.78,0.68,0.16,0.72,11,-3,25,0.7,4743,91,86,34,97,1379,258.0,335,453,60,122.0,483,1,284,648,115,0,0,263,-10440,-41,241,,,,,,,,,,,,
256623,1560687888619,1,2.0,2.55,2.78,2.03,2.83,0.65,0.22,0.67,8,-3,21,0.69,4812,92,86,34,97,1364,262.0,340,452,60,123.0,483,1,283,648,115,0,0,266,-1,-10440,242,,,,,,,,,,,,
256643,1560687888639,4,1.97,2.58,2.84,2.02,2.86,0.66,0.22,0.71,6,-2,16,0.69,4944,92,86,34,97,1329,266.0,346,462,60,123.0,483,1,281,649,115,0,0,270,-1,-1,243,45.701981,4.911115,21.47,200.9,2,1.8767,0,0.0,0.4533,3,0.35,4.2774
256663,1560687888659,1,1.96,2.59,2.88,2.02,2.88,0.65,0.24,0.74,3,-3,12,0.7,5161,92,86,34,97,1289,268.0,355,455,60,121.0,483,1,285,636,115,0,0,272,-1,-1,245,,,,,,,,,,,,
256683,1560687888679,3,1.96,2.6,2.87,2.02,2.88,0.68,0.28,0.7,1,-1,8,0.73,5338,92,86,34,96,1239,272.0,362,460,60,123.0,508,1,291,602,125,0,0,275,250,-1534,246,,,,,,,,,,,,
256703,1560687888700,2,1.95,2.61,2.87,2.04,2.86,0.59,0.25,0.59,-1,0,4,0.64,5553,92,86,34,96,1160,278.0,372,458,60,123.0,508,1,300,586,125,0,0,286,630,21760,249,,,,,,,,,,,,
256723,1560687888720,1,1.95,2.61,2.84,2.04,2.84,0.57,0.26,0.68,-3,1,0,0.63,5785,92,86,34,95,1085,283.0,388,450,60,121.0,508,1,308,570,125,0,0,291,41,26880,250,,,,,,,,,,,,
256743,1560687888740,1,1.95,2.61,2.85,2.06,2.78,0.46,0.3,0.8,-5,-1,-3,0.55,5963,92,86,34,95,1035,291.0,400,450,60,121.0,508,1,315,547,125,0,0,302,20480,0,255,45.701977,4.911119,21.52,200.9,2,1.8767,0,0.0,0.455,3,0.35,4.279
256763,1560687888760,2,1.96,2.62,2.83,2.1,2.72,0.39,0.34,0.89,-6,-3,-6,0.52,6023,92,86,34,96,1015,298.0,410,454,60,121.0,508,1,318,554,125,0,0,317,95,135,260,,,,,,,,,,,,
256783,1560687888780,1,1.96,2.64,2.79,2.13,2.68,0.36,0.44,1.0,-8,-6,-8,0.57,6032,92,86,34,96,991,303.0,418,456,60,120.0,475,1,318,554,126,0,0,321,28160,6668,265,,,,,,,,,,,,
256803,1560687888800,5,1.96,2.65,2.73,2.13,2.67,0.26,0.57,1.09,-9,-7,-10,0.62,6081,92,86,34,95,968,310.0,423,450,60,122.0,475,1,321,552,126,0,0,321,125,-25856,270,,,,,,,,,,,,
256823,1560687888820,3,1.98,2.65,2.72,2.11,2.69,0.19,0.65,1.1,-10,-7,-13,0.68,6081,92,86,34,95,949,315.0,427,453,60,122.0,475,1,321,552,126,0,0,331,-29696,-24576,279,,,,,,,,,,,,
256843,1560687888840,3,2.01,2.64,2.73,2.1,2.72,0.11,0.69,1.03,-11,-8,-16,0.7,6113,92,86,34,95,950,323.0,433,445,60,123.0,475,1,322,543,126,0,0,340,-24576,-29302,282,45.701973,4.911124,23.8,200.9,2,1.8767,0,0.0,0.4567,3,0.35,4.2807
256863,1560687888860,4,2.03,2.64,2.74,2.09,2.74,0.02,0.67,0.95,-12,-7,-18,0.67,6275,93,86,34,95,950,326.0,436,445,60,122.0,475,1,331,541,126,0,0,340,165,2560,287,,,,,,,,,,,,
256883,1560687888880,-1,2.05,2.64,2.77,2.1,2.75,0.05,0.53,0.98,-12,-3,-20,0.53,6379,96,86,34,96,945,329.0,447,448,60,122.0,448,1,335,539,131,0,0,349,-20736,-24576,292,,,,,,,,,,,,
256903,1560687888900,3,2.08,2.64,2.78,2.11,2.74,0.19,0.48,1.01,-15,-2,-21,0.51,6481,97,86,34,96,937,334.0,456,453,60,121.0,448,1,341,541,131,0,0,344,4838,3327,300,,,,,,,,,,,,
256923,1560687888920,6,2.09,2.63,2.78,2.13,2.74,0.14,0.57,1.02,-15,-2,-23,0.58,6572,98,86,34,95,933,337.0,463,448,60,122.0,448,1,346,539,131,0,0,352,2560,3082,305,,,,,,,,,,,,
256943,1560687888940,1,2.11,2.63,2.79,2.13,2.74,0.17,0.47,1.05,-15,-0,-23,0.5,6679,98,86,34,96,929,338.0,472,445,60,121.0,448,1,350,537,131,0,0,356,6668,-30438,311,45.701965,4.91113,27.68,200.9,2,1.8767,0,0.0,0.4583,3,0.35,4.2824
256963,1560687888960,5,2.13,2.63,2.81,2.13,2.74,0.21,0.54,1.06,-16,-1,-23,0.58,6742,98,86,34,95,932,343.0,477,449,60,121.0,448,1,355,534,131,0,0,358,-14714,-1246,319,,,,,,,,,,,,
256983,1560687888980,2,2.15,2.62,2.82,2.13,2.71,0.18,0.47,1.11,-15,-0,-23,0.51,6800,99,86,34,96,937,348.0,479,450,60,121.0,428,1,358,532,137,0,0,363,-1246,1,325,,,,,,,,,,,,
257003,1560687888992,-1,2.17,2.62,2.8,2.14,2.66,0.17,0.6,1.13,-16,-3,-23,0.62,6893,99,86,34,95,948,353.0,483,443,60,122.0,428,1,363,530,137,0,0,369,-6644,3302,331,,,,,,,,,,,,
257023,1560687889012,5,2.17,2.6,2.82,2.14,2.62,0.3,0.48,1.21,-15,-0,-22,0.57,6848,99,86,34,95,962,356.0,482,451,60,121.0,428,1,360,531,137,0,0,368,4104,-6458,336,,,,,,,,,,,,
257043,1560687889032,2,2.17,2.58,2.81,2.14,2.62,0.16,0.57,1.16,-14,1,-21,0.59,6820,99,86,34,95,966,359.0,485,442,60,122.0,428,1,359,531,137,0,0,373,-29302,2278,345,45.701958,4.911137,30.54,201.0,2,1.8767,0,0.0,0.46,3,0.35,4.284
257063,1560687889052,4,2.2,2.55,2.81,2.13,2.61,0.34,0.39,1.21,-14,-1,-21,0.52,6900,99,86,34,96,971,364.0,486,451,60,121.0,428,1,363,531,137,0,0,373,-1268,0,352,,,,,,,,,,,,
257083,1560687889072,0,2.2,2.54,2.82,2.13,2.63,0.17,0.36,1.13,-11,2,-20,0.4,6975,99,86,34,96,966,368.0,495,450,60,121.0,390,1,366,530,139,0,0,380,0,3,356,,,,,,,,,,,,
257103,1560687889096,-0,2.19,2.53,2.88,2.13,2.61,0.26,0.41,1.09,-12,0,-20,0.48,7075,100,86,34,95,954,371.0,500,451,60,122.0,390,1,374,533,139,0,0,379,1,-6656,361,,,,,,,,,,,,
257123,1560687889116,5,2.19,2.51,2.88,2.15,2.6,0.44,0.3,1.11,-12,0,-18,0.53,7256,100,86,34,95,927,376.0,505,452,60,121.0,390,1,388,542,139,0,0,384,-6656,-19126,365,,,,,,,,,,,,
257143,1560687889136,6,2.19,2.51,2.91,2.14,2.62,0.31,0.27,1.15,-10,2,-17,0.41,7387,100,86,34,94,883,380.0,511,449,60,122.0,390,1,399,549,139,0,0,394,-18948,-1818,370,45.701954,4.911145,32.7,201.0,2,1.8767,0,0.0,0.4617,3,0.35,4.2857
257163,1560687889156,5,2.16,2.52,2.91,2.15,2.62,0.27,0.26,1.13,-10,3,-16,0.38,7591,100,86,34,94,853,385.0,527,452,60,122.0,390,1,414,559,139,0,0,397,240,-4059,375,,,,,,,,,,,,
257183,1560687889176,1,2.17,2.54,2.9,2.15,2.63,0.39,0.14,1.18,-9,0,-16,0.41,7754,100,86,34,93,831,391.0,538,450,60,121.0,440,1,427,568,166,0,0,406,505,-26615,379,,,,,,,,,,,,
257203,1560687889198,2,2.17,2.56,2.86,2.16,2.61,0.48,0.16,1.18,-10,-1,-15,0.51,7958,100,86,34,92,805,396.0,549,450,60,122.0,440,1,444,575,166,0,0,412,-3968,-21944,383,,,,,,,,,,,,
257223,1560687889218,3,2.17,2.57,2.82,2.16,2.59,0.38,0.32,1.24,-10,-1,-15,0.5,8092,100,86,34,92,772,402.0,549,452,60,120.0,440,1,446,579,166,0,0,419,1504,31796,389,,,,,,,,,,,,
257243,1560687889238,2,2.17,2.58,2.82,2.17,2.58,0.42,0.25,1.25,-10,-1,-17,0.48,8155,100,86,34,91,774,409.0,564,452,60,121.0,440,1,445,594,166,0,0,444,11560,19477,396,45.70195,4.911154,35.88,201.0,2,1.8767,0,0.0,0.4633,3,0.35,4.2874
257263,1560687889258,3,2.18,2.59,2.82,2.18,2.57,0.34,0.4,1.26,-10,-1,-16,0.52,8300,100,86,34,90,779,417.0,570,452,60,121.0,440,1,443,610,166,0,0,446,-21944,21432,400,,,,,,,,,,,,
257283,1560687889278,3,2.16,2.59,2.82,2.17,2.57,0.42,0.2,1.17,-10,-0,-16,0.47,8438,100,86,34,90,786,422.0,575,451,60,121.0,483,1,438,626,196,0,0,452,-3414,-3267,406,,,,,,,,,,,,
257303,1560687889300,1,2.17,2.59,2.82,2.17,2.58,0.45,0.16,1.25,-10,-1,-16,0.48,8600,100,86,34,89,795,428.0,590,448,60,121.0,483,1,432,622,196,0,0,465,1779,10432,413,,,,,,,,,,,,
257323,1560687889320,2,2.17,2.59,2.82,2.16,2.59,0.27,0.34,1.23,-11,-2,-15,0.44,8741,100,86,34,88,802,438.0,590,456,60,121.0,483,1,426,611,196,0,0,460,21580,-17956,418,,,,,,,,,,,,
257343,1560687889340,5,2.17,2.6,2.81,2.16,2.6,0.14,0.51,1.12,-11,1,-16,0.53,8937,100,86,34,87,807,442.0,601,457,60,122.0,483,1,420,611,196,0,0,475,23400,8488,422,45.701942,4.911163,38.36,201.1,2,1.8767,0,0.0,0.465,3,0.36,4.2891
257363,1560687889360,1,2.19,2.6,2.81,2.15,2.6,0.06,0.66,1.03,-11,0,-15,0.66,9115,100,86,34,87,825,450.0,603,453,60,121.0,483,1,418,599,196,0,0,488,-3267,16648,429,,,,,,,,,,,,
257383,1560687889380,1,2.2,2.66,2.82,2.17,2.58,-0.07,0.74,1.09,-10,-1,-16,0.74,9263,100,86,34,87,845,456.0,611,450,60,120.0,483,1,418,599,209,0,0,497,14488,-899,433,,,,,,,,,,,,
257403,1560687889400,3,2.21,2.72,2.83,2.29,2.54,-0.16,0.82,1.11,-10,-1,-15,0.83,9356,100,86,34,87,857,457.0,612,455,60,122.0,483,1,418,599,209,0,0,500,17628,-6656,438,,,,,,,,,,,,
257423,1560687889420,5,2.21,2.73,2.81,2.35,2.53,0.01,0.63,1.17,-11,-2,-17,0.63,9445,100,86,34,87,875,463.0,623,446,60,121.0,483,1,418,599,209,0,0,502,6193,-3856,446,,,,,,,,,,,,
257443,1560687889440,3,2.21,2.75,2.78,2.35,2.53,0.09,0.5,1.1,-11,-0,-17,0.5,9541,100,86,34,87,894,468.0,623,454,60,121.0,483,1,418,589,209,0,0,493,-16384,-4054,452,45.701935,4.911174,40.94,201.1,2,1.8767,0,0.0,0.4667,3,0.36,4.2907
257463,1560687889460,4,2.22,2.74,2.76,2.33,2.56,0.0,0.65,1.05,-10,-0,-14,0.65,9595,100,86,34,86,925,475.0,621,451,60,121.0,483,1,414,591,209,0,0,515,-17956,2104,460,,,,,,,,,,,,
257483,1560687889480,4,2.24,2.72,2.76,2.31,2.56,0.1,0.57,1.14,-9,-3,-16,0.58,9704,100,86,34,86,954,480.0,627,455,60,121.0,469,1,410,593,218,0,0,528,8488,26178,468,,,,,,,,,,,,
257503,1560687889498,5,2.25,2.69,2.8,2.34,2.56,0.03,0.61,1.14,-8,-3,-15,0.61,9894,100,86,34,85,970,487.0,631,451,60,121.0,469,1,400,581,218,0,0,544,505,-3414,474,,,,,,,,,,,,
257523,1560687889518,0,2.25,2.66,2.98,2.37,2.58,0.15,0.49,1.15,-8,-6,-15,0.51,9989,100,86,34,85,977,489.0,628,455,60,121.0,469,1,397,582,218,0,0,581,-6656,-32248,484,,,,,,,,,,,,
257543,1560687889538,2,2.25,2.63,3.03,2.36,2.61,0.16,0.5,1.23,-9,-5,-13,0.53,10223,100,86,34,85,983,494.0,636,451,60,121.0,469,1,411,582,218,0,0,533,-9216,-28648,488,45.701927,4.911186,44.22,201.1,2,1.8767,0,0.0,0.4683,3,0.36,4.2924
257563,1560687889558,3,2.25,2.63,2.99,2.33,2.63,0.14,0.54,1.24,-9,-4,-12,0.56,10510,100,86,34,85,986,500.0,636,452,60,121.0,469,1,431,582,218,0,0,524,10408,-28648,492,,,,,,,,,,,,
257583,1560687889578,1,2.26,2.64,2.88,2.31,2.62,0.07,0.55,1.18,-8,-4,-11,0.56,10557,100,86,34,85,974,508.0,632,454,60,121.0,468,1,432,582,233,0,0,537,-3414,-32504,499,,,,,,,,,,,,
257603,1560687889600,3,2.25,2.62,2.83,2.29,2.54,0.0,0.56,1.25,-7,-3,-11,0.56,10623,100,86,34,85,968,511.0,636,453,60,121.0,468,1,434,582,233,0,0,601,-3856,-506,501,,,,,,,,,,,,
257623,1560687889620,5,2.26,2.63,2.85,2.36,2.45,0.06,0.53,1.32,-5,-0,-12,0.53,10623,100,86,34,85,963,518.0,635,455,60,121.0,468,1,434,582,233,0,0,597,1341,-32248,510,,,,,,,,,,,,
257643,1560687889640,4,2.25,2.62,2.87,2.37,2.41,0.11,0.44,1.31,-6,-1,-12,0.46,10605,100,86,34,85,962,523.0,631,456,60,120.0,468,1,433,582,233,0,0,560,-22519,-29984,521,45.70192,4.911199,47.86,201.1,2,1.8767,0,0.0,0.47,3,0.36,4.2941
257663,1560687889660,4,2.25,2.63,2.84,2.36,2.44,0.1,0.57,1.28,-6,-2,-8,0.58,10563,100,86,34,85,966,528.0,635,453,60,120.0,468,1,433,582,233,0,0,553,-28648,30227,525,,,,,,,,,,,,
257683,1560687889680,4,2.26,2.63,2.76,2.33,2.47,0.14,0.57,1.29,-6,-2,-7,0.59,10611,100,86,34,85,971,535.0,628,449,60,120.0,442,1,433,582,234,0,0,557,6274,23619,531,,,,,,,,,,,,
257703,1560687889699,5,2.26,2.63,2.81,2.33,2.49,0.25,0.42,1.31,-4,-2,-9,0.49,10744,100,86,34,85,974,538.0,637,456,60,120.0,442,1,437,582,234,0,0,586,-2336,-2934,535,,,,,,,,,,,,
257723,1560687889719,4,2.27,2.6,2.92,2.33,2.47,0.35,0.38,1.36,-3,-2,-9,0.52,10794,100,86,34,85,975,546.0,636,453,60,121.0,442,1,438,582,234,0,0,605,-22519,12552,543,,,,,,,,,,,,
257743,1560687889739,3,2.27,2.56,3.01,2.33,2.44,0.28,0.24,1.31,-3,-2,-8,0.37,10984,100,86,34,85,972,552.0,630,456,60,121.0,442,1,443,582,234,0,0,607,-28648,2211,551,45.701912,4.911212,50.6,201.1,2,1.8767,0,0.0,0.4717,3,0.36,4.2957
257763,1560687889759,6,2.28,2.54,3.03,2.32,2.46,0.26,0.28,1.26,-3,-3,-6,0.38,11042,100,86,34,84,968,556.0,636,453,60,120.0,442,1,442,582,234,0,0,576,-22359,6273,554,,,,,,,,,,,,
257783,1560687889779,5,2.28,2.55,2.97,2.31,2.49,0.35,0.12,1.33,-4,-1,-5,0.37,11174,100,86,34,84,958,562.0,639,453,60,121.0,425,1,442,582,238,0,0,582,-30159,-18357,559,,,,,,,,,,,,
257803,1560687889799,5,2.27,2.59,2.91,2.31,2.52,0.27,0.28,1.21,-3,1,-5,0.39,11329,100,86,34,84,951,570.0,646,451,60,121.0,425,1,441,564,238,0,0,591,-3190,-7939,567,,,,,,,,,,,,
257823,1560687889819,3,2.28,2.58,2.91,2.31,2.48,0.27,0.21,1.22,-1,3,-5,0.35,11425,100,86,34,84,945,570.0,638,454,60,120.0,425,1,441,564,238,0,0,609,774,243,569,,,,,,,,,,,,
257843,1560687889839,5,2.29,2.57,2.9,2.35,2.4,0.34,0.13,1.24,0,2,-7,0.37,11419,100,86,34,84,940,578.0,643,454,60,121.0,425,1,441,564,238,0,0,631,30208,30227,577,45.701904,4.911227,53.42,201.2,2,1.8767,0,0.0,0.4733,3,0.36,4.2974
257863,1560687889859,4,2.28,2.55,2.91,2.38,2.35,0.34,0.16,1.25,0,1,-7,0.38,11432,100,86,34,84,925,584.0,641,453,60,121.0,425,1,441,564,238,0,0,621,8488,-3820,584,,,,,,,,,,,,
257883,1560687889879,3,2.28,2.53,2.9,2.4,2.37,0.44,0.15,1.2,-1,0,-5,0.46,11467,100,86,34,84,909,589.0,643,459,60,121.0,417,1,441,564,245,0,0,618,208,26688,589,,,,,,,,,,,,
257903,1560687889897,6,2.27,2.53,2.9,2.4,2.43,0.39,0.14,1.12,-2,-2,-3,0.42,11581,100,86,34,84,903,595.0,641,454,60,121.0,417,1,440,565,245,0,0,616,-28648,-2836,595,,,,,,,,,,,,
257923,1560687889917,6,2.28,2.53,2.9,2.39,2.52,0.32,0.03,1.14,-2,-2,-4,0.32,11704,100,86,34,84,893,599.0,640,456,60,120.0,417,1,440,569,245,0,0,618,-13043,-2580,598,,,,,,,,,,,,
257943,1560687889937,4,2.28,2.52,2.92,2.37,2.55,0.3,-0.02,1.14,-0,-3,-3,0.3,11852,100,86,34,83,878,603.0,646,458,60,120.0,417,1,440,555,245,0,0,628,5344,24,603,45.701897,4.911243,55.77,201.2,2,1.8767,0,0.0,0.475,3,0.36,4.299
257963,1560687889957,3,2.28,2.5,2.98,2.34,2.52,0.27,-0.12,1.17,2,-3,-3,0.3,11973,100,86,34,83,863,613.0,642,457,60,120.0,417,1,440,559,245,0,0,650,17740,-2580,613,,,,,,,,,,,,
257983,1560687889977,5,2.28,2.43,3.06,2.34,2.45,0.29,-0.26,1.19,3,-2,-3,0.39,12096,100,86,34,83,854,616.0,648,456,60,121.0,415,1,440,560,256,0,0,664,28675,244,616,,,,,,,,,,,,
258003,1560687889995,6,2.27,2.42,3.08,2.33,2.44,0.27,-0.37,1.16,3,-1,-2,0.46,12207,100,86,34,83,849,619.0,646,455,60,121.0,415,1,440,560,256,0,0,653,-18357,244,619,,,,,,,,,,,,
258023,1560687890015,6,2.28,2.42,3.04,2.32,2.44,0.27,-0.35,1.19,2,0,0,0.44,12238,100,86,34,83,834,624.0,652,456,60,120.0,415,1,440,560,256,0,0,646,506,-10344,624,,,,,,,,,,,,
258043,1560687890035,4,2.28,2.52,2.9,2.31,2.42,0.21,-0.31,1.17,2,-5,1,0.37,12270,100,86,33,83,825,628.0,646,456,60,120.0,415,1,440,560,256,0,0,645,3,-3488,627,45.701885,4.91126,58.36,201.2,2,1.8767,0,0.0,0.4767,3,0.36,4.3007
258063,1560687890055,3,2.28,2.58,2.85,2.33,2.37,0.17,-0.26,1.02,3,-7,1,0.31,12230,100,86,33,83,816,633.0,650,455,60,120.0,415,1,440,560,256,0,0,661,966,-2830,631,,,,,,,,,,,,
258083,1560687890075,2,2.28,2.56,2.87,2.33,2.35,0.15,-0.21,1.04,2,-5,-0,0.26,12254,100,86,33,83,812,637.0,649,455,60,120.0,408,1,440,560,260,0,0,660,-4876,-10344,637,,,,,,,,,,,,
258103,1560687890099,3,2.28,2.55,2.9,2.36,2.37,0.19,-0.22,1.13,1,-4,-0,0.29,12295,100,86,33,83,798,642.0,650,459,60,121.0,408,1,440,560,260,0,0,672,16599,-10348,639,,,,,,,,,,,,
258123,1560687890119,5,2.28,2.55,3.01,2.4,2.44,0.21,-0.24,1.15,-0,-8,1,0.32,12384,100,86,33,83,788,643.0,645,455,60,120.0,408,1,440,560,260,0,0,670,24,-2830,645,,,,,,,,,,,,
258143,1560687890139,4,2.27,2.57,3.04,2.4,2.63,0.29,-0.33,1.01,-1,-11,1,0.44,12600,100,86,33,83,779,647.0,650,458,60,120.0,408,1,440,560,260,0,0,664,-8429,3543,649,45.701878,4.911277,60.82,201.2,2,1.8767,0,0.0,0.4783,3,0.37,4.3024
258163,1560687890159,3,2.29,2.54,3.12,2.39,2.68,0.32,-0.35,1.02,0,-10,0,0.47,12763,100,86,33,83,772,652.0,661,460,60,120.0,408,1,440,560,260,0,0,684,-6006,-26892,655,,,,,,,,,,,,
258183,1560687890179,2,2.28,2.52,3.16,2.39,2.68,0.26,-0.16,0.97,1,-8,0,0.3,12851,100,86,33,83,769,657.0,657,456,60,121.0,414,1,440,560,272,0,0,684,-2830,-3584,658,,,,,,,,,,,,
258203,1560687890199,5,2.28,2.49,3.24,2.38,2.69,0.35,-0.17,1.07,1,-4,0,0.39,12975,100,86,33,83,763,664.0,661,452,60,120.0,414,1,440,560,272,0,0,719,-26380,-10448,664,,,,,,,,,,,,
258223,1560687890219,3,2.28,2.49,3.23,2.38,2.66,0.34,-0.21,0.85,0,-5,1,0.4,13185,100,86,33,83,763,665.0,657,453,60,120.0,414,1,440,560,272,0,0,694,3543,14342,665,,,,,,,,,,,,
258243,1560687890239,5,2.28,2.51,3.16,2.39,2.6,0.25,-0.2,0.83,1,-4,2,0.32,13157,100,86,33,83,766,668.0,658,457,60,120.0,414,1,440,560,272,0,0,690,-2830,-10448,668,45.70187,4.911294,63.75,201.2,2,1.8767,0,0.0,0.48,3,0.37,4.304
258263,1560687890259,3,2.28,2.53,3.1,2.4,2.54,0.35,-0.27,0.91,1,-5,1,0.44,13194,100,86,33,83,766,673.0,658,461,60,120.0,414,1,440,560,272,0,0,699,-2830,8010,675,,,,,,,,,,,,
258283,1560687890279,9,2.27,2.52,3.04,2.38,2.47,0.35,-0.17,1.02,1,-5,2,0.39,13167,100,86,33,83,764,678.0,653,459,60,120.0,423,1,440,560,287,0,0,701,-2826,24,677,,,,,,,,,,,,
258303,1560687890299,7,2.27,2.52,3.02,2.38,2.39,0.37,-0.23,0.99,2,-4,2,0.43,13093,100,86,33,83,761,681.0,657,448,60,120.0,423,1,440,560,287,0,0,710,-26562,-30694,681,,,,,,,,,,,,
258323,1560687890319,3,2.27,2.5,3.04,2.36,2.39,0.39,-0.1,0.88,1,-4,2,0.41,13148,100,86,33,83,757,687.0,650,458,60,120.0,423,1,440,560,287,0,0,718,6208,-20693,686,,,,,,,,,,,,
258343,1560687890339,4,2.26,2.45,3.07,2.31,2.46,0.42,-0.13,0.99,1,-6,4,0.44,13176,100,86,33,83,753,691.0,664,457,60,121.0,423,1,440,560,287,0,0,709,12333,-13312,690,45.701855,4.911313,65.01,201.1,2,1.8767,0,0.0,0.4817,3,0.37,4.3057
258363,1560687890359,5,2.26,2.44,3.08,2.29,2.5,0.38,-0.1,1.09,0,-4,3,0.4,13345,100,86,33,83,748,696.0,654,457,60,120.0,423,1,440,560,287,0,0,714,16599,204,696,,,,,,,,,,,,
258383,1560687890379,3,2.26,2.45,3.05,2.27,2.57,0.39,0.01,1.1,1,-4,2,0.39,13460,100,86,33,83,746,698.0,664,458,60,120.0,407,1,440,560,285,0,0,718,24,204,697,,,,,,,,,,,,
258403,1560687890401,3,2.26,2.45,3.04,2.26,2.53,0.45,-0.0,1.13,0,-3,3,0.45,13577,100,86,33,83,745,703.0,660,447,60,120.0,407,1,440,575,285,0,0,724,11069,-2918,705,,,,,,,,,,,,
258423,1560687890421,4,2.24,2.44,2.98,2.25,2.47,0.46,-0.11,1.21,-0,-2,1,0.47,13518,100,86,33,83,747,705.0,662,455,60,120.0,407,1,440,560,285,0,0,724,-20693,-2560,705,,,,,,,,,,,,
258443,1560687890441,2,2.26,2.43,3.0,2.25,2.48,0.41,-0.15,1.14,-0,-0,-0,0.44,13577,100,86,33,83,750,713.0,657,452,60,120.0,407,1,440,560,285,0,0,737,6658,-3344,707,45.701847,4.911332,67.33,201.1,2,1.8767,0,0.0,0.4833,3,0.37,4.3074
258463,1560687890461,5,2.26,2.46,3.0,2.27,2.49,0.43,-0.04,1.12,-0,-2,0,0.44,13626,100,87,33,83,753,711.0,662,459,60,120.0,407,1,440,560,285,0,0,727,-13072,-2826,714,,,,,,,,,,,,
258483,1560687890481,3,2.25,2.53,2.99,2.29,2.5,0.44,-0.05,1.13,-0,-4,1,0.44,13686,100,87,33,83,757,710.0,664,451,60,120.0,409,1,440,560,290,0,0,733,-13072,-2826,712,,,,,,,,,,,,
258503,1560687890501,5,2.25,2.56,3.01,2.31,2.53,0.47,-0.06,1.22,-0,-4,1,0.47,13706,100,87,33,83,759,715.0,667,453,60,120.0,409,1,440,560,290,0,0,735,-2560,-2826,712,,,,,,,,,,,,
258523,1560687890521,7,2.26,2.56,3.11,2.28,2.58,0.58,-0.14,1.29,-0,-4,0,0.6,13786,100,87,33,83,759,720.0,656,453,60,120.0,409,1,440,560,290,0,0,742,-3450,136,718,,,,,,,,,,,,
258543,1560687890541,7,2.25,2.55,3.21,2.24,2.68,0.55,-0.08,1.24,0,-5,-2,0.56,13756,100,87,33,84,757,725.0,661,449,60,120.0,409,1,440,575,290,0,0,744,1524,-13068,721,45.701836,4.911351,69.23,201.2,2,1.8767,0,0.0,0.485,3,0.37,4.3091
258563,1560687890561,1,2.25,2.54,3.28,2.25,2.73,0.54,-0.14,1.11,-0,-7,-2,0.56,13868,100,87,33,83,754,728.0,667,465,60,121.0,409,1,440,560,290,0,0,748,-3344,3462,724,,,,,,,,,,,,
258583,1560687890581,3,2.25,2.52,3.28,2.22,2.75,0.56,-0.2,1.08,-1,-7,-2,0.59,13847,100,87,33,83,752,731.0,671,458,60,121.0,404,1,440,560,294,0,0,744,-2314,-2574,728,,,,,,,,,,,,
258603,1560687890599,4,2.26,2.4,3.23,2.13,2.75,0.5,-0.12,1.1,0,-5,-1,0.51,13899,100,87,33,84,750,737.0,675,447,60,121.0,404,1,440,575,294,0,0,742,-3580,-31066,729,,,,,,,,,,,,
258623,1560687890619,-2,2.26,2.37,3.11,2.09,2.71,0.55,-0.12,1.12,-0,-5,-2,0.57,13888,100,87,33,84,749,738.0,667,460,60,123.0,404,1,440,575,294,0,0,744,-2830,-4096,736,,,,,,,,,,,,
258643,1560687890639,-0,2.26,2.35,3.02,2.07,2.65,0.43,-0.11,1.01,0,-0,-3,0.45,13518,100,87,33,85,752,736.0,673,462,60,124.0,404,1,440,592,294,0,0,736,1037,-22796,734,45.701824,4.911371,71.28,201.2,2,1.8767,0,0.0,0.4867,3,0.38,4.3107
258663,1560687890659,2,2.25,2.34,2.94,2.04,2.56,0.59,-0.15,0.91,-0,2,-5,0.61,13241,100,87,33,84,757,740.0,670,462,60,123.0,404,1,440,575,294,0,0,737,-2356,-31066,738,,,,,,,,,,,,
258683,1560687890679,-0,2.25,2.29,2.88,2.03,2.47,0.64,-0.08,0.9,0,3,-5,0.65,12922,100,87,33,84,773,735.0,672,450,60,123.0,383,1,440,575,283,0,0,735,1037,-2356,733,,,,,,,,,,,,
258703,1560687890700,-2,2.26,2.28,2.93,2.02,2.54,0.68,-0.07,0.99,-1,1,-2,0.68,12729,100,87,33,83,786,731.0,664,455,60,123.0,383,1,440,575,283,0,0,735,-2826,1037,730,,,,,,,,,,,,
258723,1560687890720,1,2.26,2.29,3.01,2.02,2.59,0.81,-0.02,1.03,-2,-6,-3,0.81,12433,100,87,33,84,799,730.0,667,464,60,123.0,383,1,440,575,283,0,0,735,-2358,136,728,,,,,,,,,,,,
258743,1560687890740,7,2.26,2.37,3.04,2.09,2.61,0.54,0.04,1.08,-0,-9,-6,0.54,11281,100,87,33,85,806,737.0,647,460,60,121.0,383,1,442,1013,283,0,0,835,-3580,-1582,731,45.701817,4.911391,72.0,201.1,2,1.8767,0,0.0,0.4883,3,0.38,4.3124
258763,1560687890760,3,2.26,2.46,3.1,2.18,2.57,0.6,0.05,1.06,-1,-6,-6,0.61,10486,100,87,33,87,923,739.0,637,451,60,120.0,383,1,432,976,283,0,0,922,-13068,-11532,737,,,,,,,,,,,,
258783,1560687890780,3,2.26,2.53,3.14,2.23,2.68,0.67,0.1,0.95,-0,-7,-6,0.67,11075,100,87,33,86,1039,743.0,645,456,60,120.0,501,1,445,845,371,0,0,760,-13068,6790,737,,,,,,,,,,,,
258803,1560687890794,7,2.24,2.56,3.21,2.33,2.74,0.64,0.15,1.03,0,-9,-5,0.66,11301,100,87,33,85,1175,743.0,649,461,60,120.0,501,1,441,712,371,0,0,777,-22796,6389,739,,,,,,,,,,,,
258823,1560687890814,1,2.26,2.63,3.2,2.4,2.74,0.61,0.14,0.96,-1,-11,-6,0.63,11094,100,87,33,84,1255,750.0,650,457,60,121.0,501,1,443,597,371,0,0,847,-4096,-30469,745,,,,,,,,,,,,
258843,1560687890834,3,2.25,2.64,3.2,2.41,2.79,0.52,0.14,0.89,-1,-8,-8,0.54,11261,100,87,33,84,1389,752.0,640,459,60,120.0,501,1,441,564,371,0,0,842,-31068,-2570,746,45.701801,4.911412,72.89,201.1,2,1.8767,0,0.0,0.49,3,0.38,4.3141
258863,1560687890854,3,2.25,2.62,3.19,2.41,2.8,0.48,0.12,0.82,0,-5,-8,0.49,11602,100,87,33,84,1470,756.0,645,455,60,121.0,501,1,440,566,371,0,0,806,-31066,-22795,751,,,,,,,,,,,,
258883,1560687890874,4,2.25,2.62,3.21,2.42,2.78,0.48,0.28,0.83,0,-5,-5,0.55,11524,100,87,33,83,1498,759.0,639,460,60,120.0,328,1,440,545,247,0,0,873,5876,-10508,752,,,,,,,,,,,,
258903,1560687890900,4,2.26,2.65,3.21,2.4,2.72,0.52,0.22,0.86,-1,-5,-5,0.56,11481,100,87,33,83,1498,764.0,645,459,60,121.0,328,1,441,545,247,0,0,860,-10216,966,759,,,,,,,,,,,,
258923,1560687890920,4,2.25,2.65,3.1,2.36,2.66,0.62,0.15,0.94,-2,-7,-6,0.64,11574,100,87,33,83,1429,770.0,639,457,60,121.0,328,1,440,547,247,0,0,791,-10212,-2826,763,,,,,,,,,,,,
258943,1560687890940,5,2.26,2.63,3.0,2.29,2.56,0.65,-0.04,1.04,-3,-7,-5,0.65,11419,100,87,33,83,1312,776.0,642,450,60,120.0,328,1,441,545,247,0,0,834,-2574,-25858,769,45.701794,4.911432,74.23,201.1,2,1.8767,0,0.0,0.4917,3,0.38,4.3157
258963,1560687890960,5,2.27,2.63,2.89,2.3,2.49,0.62,-0.12,0.95,-3,-2,-5,0.63,11154,100,87,33,84,1243,780.0,635,454,60,120.0,328,1,442,564,247,0,0,836,5876,-11532,773,,,,,,,,,,,,
258983,1560687890980,7,2.28,2.64,2.84,2.35,2.46,0.64,-0.14,0.96,-2,-4,-4,0.65,10997,100,87,33,84,1127,782.0,638,456,60,120.0,304,1,442,564,236,0,0,815,-2344,-3450,781,,,,,,,,,,,,
259003,1560687890992,3,2.29,2.61,2.81,2.35,2.46,0.6,-0.17,1.03,-1,-7,-4,0.62,10850,100,87,33,84,1037,787.0,643,456,60,121.0,304,1,439,564,236,0,0,812,-2344,-25858,787,,,,,,,,,,,,
259023,1560687891012,3,2.29,2.49,2.84,2.29,2.48,0.58,-0.16,1.12,-0,-5,-5,0.61,10913,100,87,33,84,971,793.0,642,457,60,121.0,304,1,440,564,236,0,0,816,11277,-31068,792,,,,,,,,,,,,
259043,1560687891032,4,2.31,2.41,3.08,2.2,2.58,0.56,-0.06,1.06,1,-8,-5,0.56,11061,100,87,33,84,929,798.0,636,458,60,120.0,304,1,443,582,236,0,0,833,6905,3462,798,45.701778,4.911454,75.29,201.1,2,1.8767,0,0.0,0.4933,3,0.38,4.3174
259063,1560687891052,7,2.29,2.4,3.25,2.21,2.6,0.63,-0.15,0.99,1,-6,-4,0.65,11227,100,87,33,84,932,802.0,638,453,60,120.0,304,1,442,564,236,0,0,828,6905,-31068,802,,,,,,,,,,,,
259083,1560687891072,5,2.29,2.38,3.25,2.2,2.57,0.67,-0.14,0.99,1,-1,-3,0.69,11412,100,87,33,84,942,805.0,637,455,60,120.0,301,1,441,564,243,0,0,822,-30694,3462,807,,,,,,,,,,,,
259103,1560687891100,2,2.3,2.36,3.13,2.21,2.48,0.53,-0.2,0.99,2,-0,-2,0.57,11453,100,87,33,84,956,808.0,644,455,60,121.0,301,1,441,564,243,0,0,830,-23490,-13068,809,,,,,,,,,,,,
259123,1560687891120,5,2.3,2.37,3.03,2.22,2.4,0.54,-0.22,1.06,4,2,-2,0.58,11405,100,87,33,84,965,813.0,645,456,60,120.0,301,1,441,545,243,0,0,837,31988,-2830,813,,,,,,,,,,,,
259143,1560687891140,7,2.29,2.37,2.99,2.22,2.38,0.56,-0.16,1.09,4,1,-2,0.58,11308,100,87,33,84,970,817.0,646,456,60,121.0,301,1,441,564,243,0,0,841,-3450,-22796,817,45.701767,4.911476,77.87,201.0,2,1.8767,0,0.0,0.495,3,0.39,4.319
259163,1560687891160,9,2.29,2.36,2.99,2.22,2.34,0.67,-0.18,1.09,3,-2,-1,0.7,11295,96,87,33,84,970,815.0,647,455,60,120.0,301,1,441,564,243,0,0,844,-25858,-30694,819,,,,,,,,,,,,
259183,1560687891180,13,2.29,2.36,2.99,2.22,2.35,0.65,-0.16,1.04,2,-1,-2,0.67,11363,89,87,33,83,965,815.0,636,458,60,120.0,290,1,441,545,235,0,0,840,-2918,-22795,815,,,,,,,,,,,,
259203,1560687891200,14,2.28,2.35,3.1,2.2,2.42,0.6,-0.23,0.96,3,-3,-2,0.64,11405,84,87,33,81,952,818.0,642,455,60,121.0,290,1,441,529,235,0,0,846,1524,-22796,818,,,,,,,,,,,,
259223,1560687891220,15,2.28,2.31,3.18,2.18,2.52,0.64,-0.13,0.95,3,-5,-0,0.65,11481,82,87,33,79,938,820.0,640,458,60,120.0,290,1,441,513,235,0,0,833,-2358,-2356,820,,,,,,,,,,,,
259243,1560687891240,15,2.27,2.27,3.21,2.15,2.59,0.67,-0.12,0.97,3,-3,-0,0.68,11460,70,87,33,77,925,822.0,642,451,60,120.0,290,1,441,497,235,0,0,851,-2826,-1580,822,45.701756,4.911499,79.56,201.0,2,1.8767,0,0.0,0.4967,3,0.39,4.3207
259263,1560687891260,17,2.28,2.28,3.21,2.15,2.61,0.77,-0.25,1.0,2,0,-0,0.81,11460,65,87,33,71,906,824.0,639,455,60,120.0,290,1,441,466,235,0,0,840,-2358,8838,824,,,,,,,,,,,,
259283,1560687891280,19,2.27,2.28,3.19,2.15,2.64,0.77,-0.24,0.91,2,2,-0,0.81,11384,61,87,33,67,888,822.0,642,455,60,120.0,237,1,443,444,195,0,0,843,-2830,-22795,822,,,,,,,,,,,,
259303,1560687891300,17,2.27,2.28,3.16,2.15,2.57,0.65,-0.22,0.77,3,4,-1,0.69,11308,54,87,33,64,882,821.0,642,455,60,121.0,237,1,444,423,195,0,0,841,-4091,-2826,819,,,,,,,,,,,,
259323,1560687891320,17,2.27,2.27,3.14,2.14,2.58,0.65,-0.13,0.62,4,3,-1,0.66,11154,44,87,33,59,875,818.0,640,457,60,120.0,237,1,433,381,195,0,0,827,-2826,-31066,815,,,,,,,,,,,,
259343,1560687891340,19,2.28,2.25,3.16,2.11,2.59,0.75,-0.15,0.61,3,1,0,0.77,10856,34,87,33,53,856,819.0,644,457,60,121.0,237,1,397,321,195,0,0,826,-2830,-2356,818,45.701744,4.911521,81.44,201.0,2,1.8767,0,0.0,0.4983,3,0.39,4.3224
259363,1560687891360,21,2.29,2.19,3.21,2.08,2.64,0.77,-0.19,0.62,3,-3,1,0.79,10677,26,87,33,48,839,820.0,638,460,60,121.0,237,1,382,259,195,0,0,817,-388,-2918,818,,,,,,,,,,,,
259383,1560687891380,21,2.3,2.06,3.3,1.98,2.72,0.84,-0.23,0.68,3,-3,1,0.87,10434,24,87,33,44,826,818.0,637,456,60,122.0,116,1,357,240,95,0,0,808,-25858,-2560,818,,,,,,,,,,,,
259403,1560687891400,20,2.3,2.02,3.4,1.93,2.78,0.81,-0.26,0.63,3,-3,-0,0.85,10279,23,87,33,42,811,809.0,638,456,60,122.0,116,1,342,229,95,0,0,795,-23490,16118,809,,,,,,,,,,,,
259423,1560687891420,19,2.3,2.01,3.46,1.9,2.82,0.8,-0.27,0.56,4,-3,1,0.84,10037,22,87,33,40,790,809.0,634,459,60,121.0,116,1,327,221,95,0,0,792,-31068,-10218,811,,,,,,,,,,,,
259443,1560687891440,16,2.3,1.98,3.49,1.88,2.79,0.9,-0.29,0.59,4,-1,1,0.95,9894,21,87,33,39,769,806.0,625,461,60,121.0,116,1,320,217,95,0,0,770,16118,-10216,807,45.701733,4.911545,81.94,200.9,2,1.8767,0,0.0,0.5,3,0.39,4.324
259463,1560687891460,22,2.29,1.98,3.49,1.89,2.79,0.85,-0.13,0.53,4,-1,1,0.86,9931,20,87,33,37,761,797.0,629,455,60,121.0,116,1,314,213,95,0,0,738,-2826,-3368,797,,,,,,,,,,,,
259483,1560687891480,21,2.28,1.99,3.5,1.94,2.83,0.9,-0.16,0.43,3,-3,1,0.91,9978,19,87,33,36,759,786.0,633,458,60,122.0,101,1,311,212,80,0,0,726,-2830,-2826,785,,,,,,,,,,,,
259503,1560687891500,17,2.3,1.98,3.51,1.93,2.88,1.01,-0.15,0.4,3,-6,2,1.02,9920,19,87,33,34,780,781.0,633,458,60,122.0,101,1,305,210,80,0,0,730,-23308,-31068,781,,,,,,,,,,,,
259523,1560687891520,19,2.28,1.96,3.53,1.89,2.94,0.89,-0.09,0.36,4,-7,2,0.9,9858,18,87,33,33,803,780.0,640,460,60,123.0,101,1,302,206,80,0,0,710,-2830,11069,780,,,,,,,,,,,,
259543,1560687891540,19,2.28,1.96,3.61,1.89,3.06,0.99,-0.18,0.36,3,-9,3,1.01,9694,18,87,33,32,834,779.0,638,463,60,123.0,101,1,300,201,80,0,0,677,7413,19188,779,45.701717,4.911568,80.55,200.9,2,1.8767,0,0.0,0.5017,3,0.39,4.3257
259563,1560687891560,19,2.28,1.95,3.68,1.9,3.12,0.78,-0.05,0.2,3,-6,3,0.78,9431,18,87,33,31,865,774.0,636,458,60,123.0,101,1,295,194,80,0,0,621,-2570,8010,774,,,,,,,,,,,,
259583,1560687891580,19,2.28,1.94,3.67,1.89,3.09,0.9,-0.06,0.15,3,-4,3,0.91,9231,17,87,33,30,893,774.0,627,460,60,123.0,87,1,291,190,68,0,0,617,-2766,11069,774,,,,,,,,,,,,
259603,1560687891599,18,2.28,1.94,3.6,1.91,3.04,1.02,-0.22,0.18,3,-5,3,1.04,9018,17,87,33,29,922,769.0,621,460,60,122.0,87,1,287,188,68,0,0,608,-2574,16118,765,,,,,,,,,,,,
259623,1560687891619,21,2.27,1.92,3.54,1.89,3.02,1.1,-0.11,-0.04,4,-3,3,1.11,8831,17,87,33,28,922,762.0,618,463,60,123.0,87,1,282,294,68,0,0,598,-3450,-25858,761,,,,,,,,,,,,
259643,1560687891639,19,2.28,1.89,3.49,1.86,2.95,1.17,-0.26,0.02,3,-3,2,1.19,8769,16,87,33,28,918,757.0,612,458,60,121.0,87,1,282,273,68,0,0,540,-2830,1760,755,45.70171,4.911591,78.96,200.9,2,1.8767,0,0.0,0.5033,3,0.4,4.3274
259663,1560687891659,20,2.29,1.83,3.46,1.79,2.9,1.16,-0.22,0.05,5,-2,4,1.18,8992,15,87,33,27,913,755.0,610,458,60,122.0,87,1,278,251,68,0,0,560,-22796,-3210,751,,,,,,,,,,,,
259683,1560687891679,17,2.29,1.79,3.53,1.72,2.88,1.18,-0.17,0.1,5,-3,5,1.19,8928,15,87,33,27,908,744.0,615,455,60,121.0,105,1,278,231,79,0,0,475,-3580,-28648,744,,,,,,,,,,,,
259703,1560687891699,19,2.28,1.76,3.52,1.66,2.84,1.15,-0.13,0.0,5,2,5,1.15,8920,15,87,33,27,906,737.0,623,456,60,121.0,105,1,278,208,79,0,0,452,-2826,2524,737,,,,,,,,,,,,
259723,1560687891719,19,2.28,1.75,3.48,1.64,2.83,1.06,-0.1,-0.06,7,2,6,1.07,8831,15,87,33,26,905,732.0,617,459,60,121.0,105,1,274,188,79,0,0,438,-2358,10408,730,,,,,,,,,,,,
259743,1560687891739,22,2.28,1.75,3.48,1.65,2.8,1.06,-0.02,-0.14,8,1,5,1.06,8782,15,87,33,26,933,728.0,614,458,60,121.0,105,1,274,188,79,0,0,416,-3450,-8187,728,45.701698,4.911612,76.41,200.9,2,1.8767,0,0.0,0.505,3,0.4,4.3291
259763,1560687891759,23,2.25,1.75,3.49,1.66,2.79,1.02,0.0,-0.19,7,1,4,1.02,8737,15,87,33,26,965,720.0,615,457,60,122.0,105,1,274,188,79,0,0,395,-20693,2524,720,,,,,,,,,,,,
259783,1560687891779,18,2.25,1.75,3.5,1.67,2.81,1.12,0.04,-0.22,7,1,4,1.12,8636,14,87,33,26,998,713.0,609,459,60,121.0,85,1,274,188,61,0,0,361,15647,259,713,,,,,,,,,,,,
259803,1560687891799,10,2.25,1.75,3.5,1.67,2.88,1.09,0.0,-0.24,7,2,5,1.09,8549,14,87,33,27,1029,707.0,614,457,60,121.0,85,1,278,188,61,0,0,333,19188,1780,706,,,,,,,,,,,,
259823,1560687891819,10,2.24,1.74,3.51,1.68,2.95,1.06,0.07,-0.26,7,1,6,1.06,8389,14,87,32,27,1051,706.0,604,460,60,121.0,85,1,277,181,61,0,0,323,24,-32504,706,,,,,,,,,,,,
259843,1560687891839,2,2.22,1.75,3.5,1.69,2.97,1.14,0.09,-0.23,7,2,5,1.14,8209,14,87,32,27,1068,705.0,597,461,60,122.0,85,1,276,172,61,0,0,337,-3584,-3210,709,45.701683,4.911633,73.78,200.9,2,1.8767,0,0.0,0.5067,3,0.4,4.3307
259863,1560687891859,3,2.23,1.74,3.49,1.7,2.95,1.09,0.07,-0.26,6,2,6,1.09,8180,14,87,32,27,1063,705.0,589,459,60,122.0,85,1,276,171,61,0,0,344,6208,15649,705,,,,,,,,,,,,
259883,1560687891879,1,2.23,1.76,3.44,1.75,2.9,1.11,-0.04,-0.19,6,2,6,1.11,8162,14,87,32,27,1048,701.0,587,456,60,121.0,74,1,276,170,52,0,0,372,14342,2524,699,,,,,,,,,,,,
259903,1560687891899,3,2.23,1.75,3.4,1.75,2.84,1.07,-0.06,-0.16,6,2,6,1.07,8198,14,87,32,26,1033,696.0,594,457,60,122.0,74,1,273,170,52,0,0,452,-2830,-22519,696,,,,,,,,,,,,
259923,1560687891919,0,2.23,1.74,3.38,1.74,2.78,1.08,-0.08,-0.11,7,2,6,1.09,8177,13,87,32,26,1018,690.0,590,460,60,121.0,74,1,273,170,52,0,0,535,-10399,2088,690,,,,,,,,,,,,
259943,1560687891939,4,2.23,1.74,3.37,1.73,2.74,1.18,-0.09,-0.15,6,2,5,1.18,8216,13,87,32,26,1010,685.0,592,458,60,122.0,74,1,273,171,52,0,0,606,-2345,-29984,682,45.701672,4.911653,70.58,200.8,2,1.8767,0,0.0,0.5083,3,0.4,4.3324
259963,1560687891959,10,2.23,1.71,3.4,1.73,2.74,1.07,-0.18,-0.1,6,4,5,1.09,8278,13,87,32,25,1009,681.0,588,457,60,121.0,74,1,270,175,52,0,0,608,-10344,-2836,676,,,,,,,,,,,,
259983,1560687891979,8,2.22,1.7,3.43,1.72,2.73,1.16,-0.19,-0.06,5,3,3,1.17,8274,13,87,32,25,1016,673.0,594,460,60,122.0,81,1,270,175,55,0,0,614,-26380,506,669,,,,,,,,,,,,
260003,1560687891993,8,2.22,1.69,3.44,1.72,2.75,1.2,-0.21,-0.03,4,3,1,1.21,8389,13,87,32,24,1028,667.0,602,456,60,121.0,81,1,270,176,55,0,0,629,-3578,30721,665,,,,,,,,,,,,
260023,1560687892013,12,2.21,1.69,3.47,1.71,2.8,1.2,-0.18,-0.04,3,1,1,1.22,8453,13,87,32,24,1040,663.0,600,459,60,121.0,81,1,270,174,55,0,0,603,-27404,5344,658,,,,,,,,,,,,
260043,1560687892033,9,2.22,1.7,3.48,1.7,2.86,1.29,-0.19,-0.05,1,1,0,1.3,8577,13,87,32,23,1052,662.0,607,462,60,122.0,81,1,270,176,55,0,0,591,-2826,6273,654,45.70166,4.911672,68.35,200.8,2,1.8767,0,0.0,0.51,3,0.41,4.3341
260063,1560687892053,11,2.21,1.73,3.46,1.69,2.87,1.22,-0.14,-0.07,0,2,1,1.23,8608,13,87,33,23,1055,655.0,607,456,60,121.0,81,1,270,176,55,0,0,592,-388,774,644,,,,,,,,,,,,
260083,1560687892073,15,2.2,1.75,3.46,1.67,2.89,1.21,-0.08,-0.09,-1,1,-0,1.21,8648,12,87,33,23,1049,652.0,607,457,60,121.0,88,1,270,176,57,0,0,567,-6006,-18032,639,,,,,,,,,,,,
260103,1560687892099,14,2.21,1.74,3.46,1.62,2.91,1.19,-0.09,-0.14,-2,0,-4,1.19,8692,12,87,33,23,1040,650.0,608,461,60,122.0,88,1,270,176,57,0,0,530,479,2104,632,,,,,,,,,,,,
260123,1560687892119,15,2.21,1.74,3.45,1.53,2.91,1.21,-0.06,-0.06,-3,-1,-5,1.21,8700,12,87,33,23,1022,648.0,608,460,60,122.0,88,1,270,176,57,0,0,512,11566,-21872,625,,,,,,,,,,,,
260143,1560687892139,15,2.21,1.72,3.44,1.46,2.93,1.29,-0.11,0.01,-5,0,-7,1.3,8798,12,87,33,24,1000,641.0,627,459,60,122.0,88,1,270,181,57,0,0,501,-3584,-10483,622,45.701649,4.91169,65.68,200.8,2,1.8767,0,0.0,0.5117,3,0.41,4.3357
260163,1560687892159,12,2.22,1.72,3.38,1.42,2.92,1.37,-0.15,0.05,-7,-1,-7,1.37,8823,12,87,33,24,972,639.0,618,458,60,122.0,88,1,270,181,57,0,0,473,6208,30272,613,,,,,,,,,,,,
260183,1560687892179,12,2.23,1.74,3.32,1.43,2.93,1.41,-0.07,-0.01,-8,-1,-7,1.42,8798,12,87,33,24,947,631.0,622,458,60,121.0,98,1,270,181,60,0,0,494,771,-1923,605,,,,,,,,,,,,
260203,1560687892201,12,2.26,1.76,3.28,1.43,2.94,1.39,0.03,-0.09,-9,2,-8,1.39,8811,12,87,33,24,936,626.0,619,457,60,121.0,98,1,270,181,60,0,0,484,506,-9203,597,,,,,,,,,,,,
260223,1560687892221,14,2.28,1.78,3.26,1.44,2.93,1.33,0.16,-0.2,-9,1,-10,1.34,8840,12,87,33,24,929,618.0,618,458,60,121.0,98,1,270,181,60,0,0,469,16529,-6528,591,,,,,,,,,,,,
260243,1560687892241,14,2.31,1.8,3.27,1.45,2.93,1.2,0.2,-0.33,-9,2,-11,1.22,8882,12,87,33,24,933,609.0,621,458,60,121.0,98,1,270,181,60,0,0,477,-23055,3580,585,45.701637,4.911707,63.03,200.7,2,1.8767,0,0.0,0.5133,3,0.41,4.3374
260263,1560687892261,13,2.33,1.8,3.29,1.46,2.97,1.07,0.23,-0.4,-9,3,-12,1.1,8911,12,87,33,24,939,602.0,621,461,60,122.0,98,1,270,181,60,0,0,495,-768,-3267,582,,,,,,,,,,,,
260283,1560687892281,11,2.35,1.8,3.38,1.46,3.01,1.0,0.32,-0.37,-9,3,-11,1.05,8898,12,87,33,24,953,597.0,617,466,60,122.0,103,1,270,181,60,0,0,460,-16179,10305,578,,,,,,,,,,,,
260303,1560687892301,9,2.36,1.78,3.47,1.46,3.02,1.0,0.24,-0.24,-8,3,-12,1.03,8773,12,87,33,24,972,595.0,616,460,60,122.0,103,1,270,181,60,0,0,456,-16179,-899,581,,,,,,,,,,,,
260323,1560687892321,6,2.37,1.78,3.49,1.51,2.99,1.03,0.22,-0.11,-8,4,-11,1.05,8652,12,87,33,24,1007,588.0,616,458,60,122.0,103,1,270,181,60,0,0,467,208,-3414,582,,,,,,,,,,,,
260343,1560687892341,2,2.39,1.8,3.46,1.55,3.0,1.02,0.2,-0.07,-8,2,-11,1.04,8652,12,87,33,24,1041,583.0,607,462,60,122.0,103,1,270,181,60,0,0,469,15649,-768,576,45.70163,4.911724,60.66,200.7,2,1.8767,0,0.0,0.515,3,0.41,4.339
260363,1560687892361,6,2.39,1.8,3.4,1.55,2.98,1.0,0.18,-0.08,-6,3,-11,1.01,8632,12,87,33,25,1062,579.0,612,460,60,121.0,103,1,270,188,60,0,0,492,243,1779,578,,,,,,,,,,,,
260383,1560687892381,3,2.4,1.79,3.37,1.55,2.94,1.03,0.16,-0.08,-5,2,-9,1.04,8589,12,87,33,24,1084,575.0,611,461,60,122.0,102,1,270,188,59,0,0,481,-8188,-9203,575,,,,,,,,,,,,
260403,1560687892401,-0,2.4,1.8,3.33,1.57,2.9,1.13,0.1,-0.03,-4,1,-8,1.13,8569,12,87,33,25,1112,573.0,618,461,60,122.0,102,1,270,188,59,0,0,477,12552,-9212,574,,,,,,,,,,,,
260423,1560687892421,0,2.41,1.79,3.35,1.59,2.88,1.04,0.08,-0.02,-2,0,-4,1.05,8557,12,87,33,25,1140,571.0,618,462,60,122.0,102,1,270,181,59,0,0,522,-22263,6274,569,,,,,,,,,,,,
260443,1560687892441,2,2.41,1.79,3.37,1.59,2.94,0.99,0.08,-0.08,0,2,-1,0.99,8668,12,87,33,25,1148,571.0,617,461,60,122.0,102,1,270,188,59,0,0,544,14504,16383,571,45.701618,4.91174,58.54,200.7,2,1.8767,0,0.0,0.5167,3,0.41,4.3407
260463,1560687892461,3,2.41,1.78,3.36,1.61,2.9,1.04,-0.02,-0.05,3,3,-0,1.04,8648,12,87,33,25,1154,570.0,618,458,60,122.0,102,1,270,188,59,0,0,518,-22519,2104,571,,,,,,,,,,,,
260483,1560687892481,2,2.41,1.76,3.4,1.67,2.84,1.1,-0.21,0.09,6,0,2,1.12,8720,12,87,33,25,1163,570.0,613,460,60,122.0,107,1,270,188,61,0,0,526,-2336,2104,570,,,,,,,,,,,,
260503,1560687892501,-2,2.42,1.69,3.47,1.76,2.79,1.01,-0.29,0.13,9,2,4,1.06,8733,12,87,33,25,1171,568.0,617,456,60,121.0,107,1,270,188,61,0,0,519,6274,-3082,567,,,,,,,,,,,,
260523,1560687892521,0,2.42,1.63,3.57,1.87,2.76,0.99,-0.25,0.08,11,2,6,1.02,8790,14,87,33,25,1173,566.0,617,457,60,121.0,107,1,270,188,61,0,0,511,-22519,-8186,565,,,,,,,,,,,,
260543,1560687892541,5,2.41,1.6,3.62,1.93,2.76,0.87,-0.27,0.04,13,2,9,0.91,8790,17,87,33,26,1174,564.0,615,458,60,122.0,107,1,274,188,61,0,0,503,2524,-9072,564,45.701611,4.911756,56.79,200.7,2,1.8767,0,0.0,0.5183,3,0.41,4.3424
260563,1560687892561,3,2.43,1.6,3.62,2.01,2.72,0.88,-0.26,0.04,15,2,11,0.92,8848,20,87,33,28,1176,559.0,613,457,60,122.0,107,1,282,188,61,0,0,511,2088,2088,558,,,,,,,,,,,,
260583,1560687892581,5,2.41,1.59,3.64,2.09,2.68,0.94,-0.34,0.06,17,1,12,1.0,8941,22,87,33,29,1178,555.0,617,454,60,122.0,113,1,287,188,63,0,0,504,1248,-9212,555,,,,,,,,,,,,
260603,1560687892600,5,2.41,1.57,3.68,2.14,2.66,0.99,-0.41,0.06,18,0,14,1.07,9014,24,88,33,31,1179,550.0,617,456,60,122.0,113,1,295,188,63,0,0,484,-8187,-9212,550,,,,,,,,,,,,
260623,1560687892620,5,2.42,1.55,3.69,2.18,2.64,0.98,-0.45,0.11,19,1,16,1.07,9177,26,88,33,32,1180,547.0,622,456,60,122.0,113,1,300,191,63,0,0,466,-14,-9212,547,,,,,,,,,,,,
260643,1560687892640,2,2.42,1.56,3.7,2.22,2.62,0.94,-0.39,0.12,19,0,18,1.02,9389,29,88,33,33,1178,544.0,625,461,60,122.0,113,1,302,197,63,0,0,438,26178,2524,544,45.701599,4.911771,56.02,200.7,2,1.8767,0,0.0,0.52,3,0.42,4.344
260663,1560687892660,1,2.41,1.57,3.7,2.28,2.62,0.83,-0.42,0.16,20,1,20,0.93,9445,32,88,33,35,1175,538.0,632,458,60,121.0,113,1,308,204,63,0,0,430,-4054,-32248,543,,,,,,,,,,,,
260683,1560687892680,4,2.41,1.61,3.7,2.33,2.62,0.95,-0.58,0.24,19,-2,20,1.11,9498,34,88,33,36,1172,539.0,630,455,60,122.0,134,1,311,207,73,0,0,431,10994,2524,539,,,,,,,,,,,,
260703,1560687892700,1,2.4,1.64,3.7,2.34,2.57,0.92,-0.58,0.24,20,-0,21,1.09,9551,35,88,33,37,1168,540.0,624,456,60,122.0,134,1,314,211,73,0,0,446,10994,-30064,540,,,,,,,,,,,,
260723,1560687892720,3,2.38,1.63,3.69,2.34,2.52,0.89,-0.63,0.2,20,-0,22,1.1,9566,35,88,33,38,1134,539.0,632,452,60,121.0,134,1,317,213,73,0,0,482,-3414,14504,539,,,,,,,,,,,,
260743,1560687892740,22,2.37,1.64,3.69,2.33,2.5,0.97,-0.71,0.25,19,-4,22,1.21,9625,36,88,34,39,1088,536.0,630,455,60,122.0,134,1,320,216,73,0,0,512,-4054,2104,536,45.701595,4.911785,53.39,200.7,2,1.8767,0,0.0,0.5217,3,0.42,4.3457
260763,1560687892760,2,2.37,1.64,3.69,2.34,2.49,0.87,-0.73,0.24,19,-2,22,1.14,9699,36,88,34,40,1045,531.0,630,450,60,122.0,134,1,327,219,73,0,0,512,10994,2524,531,,,,,,,,,,,,
260783,1560687892780,5,2.37,1.64,3.68,2.32,2.5,0.89,-0.78,0.28,18,-2,22,1.18,9760,36,88,34,40,1004,529.0,629,458,60,122.0,150,1,327,220,80,0,0,508,-3414,6274,530,,,,,,,,,,,,
260803,1560687892800,3,2.35,1.65,3.67,2.29,2.53,0.85,-0.72,0.26,17,-2,22,1.11,9775,36,88,34,41,969,530.0,526,451,60,122.0,150,1,335,223,80,0,0,508,-4054,-28648,530,,,,,,,,,,,,
260823,1560687892820,-0,2.35,1.65,3.6,2.24,2.5,0.92,-0.78,0.3,16,-2,21,1.21,9847,37,88,34,41,934,528.0,433,457,60,122.0,150,1,335,223,80,0,0,507,26178,6274,528,,,,,,,,,,,,
260843,1560687892840,5,2.34,1.68,3.52,2.2,2.51,0.86,-0.76,0.32,16,-1,21,1.15,9962,37,88,34,41,920,529.0,380,454,60,122.0,150,1,335,224,80,0,0,508,17136,2524,527,45.701584,4.911798,51.78,200.7,2,1.8767,0,0.0,0.5233,3,0.42,4.3474
260863,1560687892860,2,2.35,1.71,3.53,2.18,2.5,0.86,-0.68,0.35,15,-1,21,1.09,10010,37,88,34,41,927,527.0,405,448,60,121.0,150,1,335,225,80,0,0,513,-14,10408,527,,,,,,,,,,,,
260883,1560687892880,-1,2.35,1.79,3.5,2.18,2.51,0.88,-0.69,0.37,14,0,20,1.12,10080,37,88,34,42,947,526.0,482,454,60,121.0,165,1,342,225,87,0,0,510,26178,6274,524,,,,,,,,,,,,
260903,1560687892900,5,2.33,1.88,3.47,2.19,2.51,0.82,-0.74,0.47,13,-1,19,1.11,10195,37,88,34,42,980,522.0,510,451,60,122.0,165,1,342,229,87,0,0,512,-3856,-8187,522,,,,,,,,,,,,
260923,1560687892920,2,2.34,1.94,3.43,2.19,2.53,0.85,-0.73,0.54,12,-2,20,1.12,10201,37,88,34,42,1010,521.0,426,449,60,121.0,165,1,342,229,87,0,0,518,-4054,-22519,524,,,,,,,,,,,,
260943,1560687892940,4,2.33,1.94,3.37,2.16,2.55,0.78,-0.62,0.56,12,1,19,1.0,10184,37,88,34,42,1037,524.0,463,455,60,121.0,165,1,342,229,87,0,0,517,26178,6274,524,45.701576,4.911809,50.9,200.7,2,1.8767,0,0.0,0.525,3,0.42,4.3491
260963,1560687892960,0,2.33,1.96,3.33,2.16,2.55,0.81,-0.61,0.57,12,-1,19,1.01,10042,37,88,34,42,1062,527.0,510,458,60,121.0,165,1,342,229,87,0,0,532,16383,-9072,527,,,,,,,,,,,,
260983,1560687892980,4,2.33,1.99,3.28,2.17,2.54,0.69,-0.55,0.55,12,-1,17,0.88,9837,36,88,34,42,1085,529.0,564,455,60,121.0,161,1,342,227,85,0,0,532,1248,2104,529,,,,,,,,,,,,
261003,1560687892994,0,2.34,2.0,3.29,2.18,2.52,0.71,-0.57,0.54,12,1,16,0.92,9750,31,88,34,40,1101,531.0,611,455,60,121.0,161,1,327,219,85,0,0,527,1248,-28648,531,,,,,,,,,,,,
261023,1560687893014,5,2.34,2.05,3.35,2.19,2.54,0.64,-0.6,0.58,11,-1,15,0.88,9684,26,88,34,38,1097,531.0,615,450,60,122.0,161,1,317,213,85,0,0,529,1248,2104,531,,,,,,,,,,,,
261043,1560687893034,1,2.35,2.02,3.4,2.19,2.53,0.76,-0.59,0.57,10,-1,15,0.96,9650,24,88,34,35,1091,530.0,617,455,60,121.0,161,1,308,207,85,0,0,532,2524,2524,530,45.701565,4.911821,49.91,200.7,2,1.8767,0,0.0,0.5267,3,0.42,4.3507
261063,1560687893054,3,2.34,2.0,3.37,2.16,2.56,0.71,-0.59,0.58,10,1,14,0.92,9659,24,88,34,33,1082,531.0,623,449,60,122.0,161,1,302,203,85,0,0,518,-9212,6274,531,,,,,,,,,,,,
261083,1560687893074,5,2.34,1.98,3.38,2.14,2.59,0.79,-0.58,0.6,10,-1,13,0.98,9625,23,88,34,32,1074,532.0,626,460,60,122.0,137,1,300,200,73,0,0,521,-9212,-32248,532,,,,,,,,,,,,
261103,1560687893100,3,2.34,1.97,3.4,2.13,2.58,0.65,-0.52,0.55,10,1,13,0.83,9635,22,88,34,30,1069,532.0,628,446,60,122.0,137,1,291,196,73,0,0,518,15679,-32248,532,,,,,,,,,,,,
261123,1560687893120,6,2.34,1.98,3.41,2.13,2.61,0.7,-0.6,0.61,10,-0,12,0.92,9580,19,88,34,29,1064,531.0,633,454,60,122.0,137,1,287,194,73,0,0,518,-8187,2524,531,,,,,,,,,,,,
261143,1560687893140,2,2.34,1.98,3.45,2.13,2.58,0.74,-0.53,0.6,10,2,12,0.91,9426,16,88,34,27,1058,530.0,632,451,60,121.0,137,1,278,190,73,0,0,515,15679,2088,529,45.701557,4.911832,51.57,200.7,2,1.8767,0,0.0,0.5283,3,0.42,4.3524
261163,1560687893160,5,2.34,1.98,3.42,2.13,2.58,0.59,-0.42,0.46,10,2,12,0.72,9309,14,88,34,25,1052,530.0,625,455,60,121.0,137,1,270,188,73,0,0,511,1341,-22519,525,,,,,,,,,,,,
261183,1560687893180,2,2.34,1.96,3.42,2.13,2.58,0.59,-0.38,0.42,10,-1,14,0.7,9128,14,88,34,24,1050,527.0,620,455,60,122.0,119,1,270,181,63,0,0,508,16383,6274,525,,,,,,,,,,,,
261203,1560687893200,3,2.33,1.94,3.41,2.11,2.61,0.73,-0.43,0.48,9,-4,14,0.85,8911,13,88,34,24,1043,527.0,618,450,60,121.0,119,1,270,176,63,0,0,513,15679,-32248,526,,,,,,,,,,,,
261223,1560687893220,2,2.33,1.91,3.42,2.08,2.62,0.69,-0.45,0.46,10,-3,14,0.83,8716,13,88,34,24,1013,524.0,615,455,60,122.0,119,1,270,176,63,0,0,509,-14,-22519,524,,,,,,,,,,,,
261243,1560687893240,5,2.32,1.87,3.43,2.04,2.62,0.71,-0.39,0.38,9,-2,14,0.81,8708,13,88,34,23,984,524.0,612,452,60,121.0,119,1,270,176,63,0,0,493,26178,10408,524,45.701542,4.911843,51.24,200.7,2,1.8767,0,0.0,0.53,3,0.42,4.3541
261263,1560687893260,4,2.32,1.83,3.44,2.0,2.66,0.78,-0.38,0.41,9,-2,13,0.87,8704,12,88,34,23,956,521.0,617,455,60,122.0,119,1,270,176,63,0,0,482,10994,-9216,521,,,,,,,,,,,,
261283,1560687893280,3,2.3,1.81,3.45,1.92,2.72,0.9,-0.41,0.45,8,-2,13,0.99,8757,12,88,34,23,927,516.0,617,455,60,122.0,112,1,270,176,58,0,0,487,10994,-6441,516,,,,,,,,,,,,
261303,1560687893300,3,2.29,1.81,3.45,1.88,2.75,0.93,-0.37,0.4,7,-2,13,1.0,8794,12,88,34,23,896,516.0,621,452,60,121.0,112,1,270,176,58,0,0,488,-28648,505,516,,,,,,,,,,,,
261323,1560687893320,3,2.28,1.87,3.42,1.89,2.75,0.98,-0.41,0.44,7,-1,12,1.06,8802,12,88,34,24,865,507.0,618,456,60,122.0,112,1,270,181,58,0,0,488,6274,505,507,,,,,,,,,,,,
261343,1560687893340,2,2.27,1.93,3.4,1.91,2.74,0.88,-0.37,0.37,7,1,11,0.96,8856,12,88,34,24,861,502.0,622,450,60,121.0,112,1,270,181,58,0,0,487,10408,998,503,45.701534,4.911853,51.02,200.7,2,1.8767,0,0.0,0.5317,3,0.43,4.3557
261363,1560687893360,7,2.26,2.0,3.37,1.9,2.71,1.0,-0.4,0.37,6,-2,10,1.07,8856,12,88,34,24,859,497.0,616,456,60,122.0,112,1,270,181,58,0,0,479,-32768,-1562,493,,,,,,,,,,,,
261383,1560687893380,12,2.26,1.99,3.39,1.87,2.75,0.95,-0.4,0.31,6,-0,8,1.03,8882,11,88,34,24,876,487.0,620,453,60,121.0,125,1,270,181,61,0,0,477,-1562,243,487,,,,,,,,,,,,
261403,1560687893402,17,2.25,1.95,3.4,1.84,2.82,0.89,-0.36,0.16,5,-3,9,0.96,8840,11,88,34,24,893,484.0,615,452,60,121.0,125,1,270,181,61,0,0,468,-10483,-23623,479,,,,,,,,,,,,
261423,1560687893422,15,2.26,1.92,3.41,1.78,2.93,0.83,-0.26,0.05,4,-2,8,0.87,8729,11,88,34,24,913,479.0,618,453,60,122.0,125,1,270,181,61,0,0,455,10305,10305,475,,,,,,,,,,,,
261443,1560687893442,17,2.26,1.89,3.47,1.72,3.02,0.87,-0.24,0.09,4,-4,7,0.91,8565,11,88,34,24,933,476.0,613,453,60,121.0,125,1,270,181,61,0,0,454,-23367,3571,476,45.701523,4.911862,50.95,200.8,2,1.8767,0,0.0,0.5333,3,0.43,4.3574
261463,1560687893462,13,2.28,1.87,3.51,1.72,3.07,0.94,-0.27,0.21,3,-4,6,0.98,8363,11,88,34,24,973,471.0,612,454,60,121.0,125,1,270,174,61,0,0,451,3576,-8985,467,,,,,,,,,,,,
261483,1560687893482,14,2.28,1.87,3.51,1.72,3.11,1.01,-0.24,0.18,2,-5,5,1.04,8238,11,88,34,24,1014,468.0,602,454,60,122.0,111,1,270,168,52,0,0,452,243,16648,467,,,,,,,,,,,,
261503,1560687893502,13,2.28,1.87,3.49,1.72,3.08,1.01,-0.18,0.2,2,-5,4,1.03,8095,11,88,34,24,1040,465.0,599,452,60,122.0,111,1,270,160,52,0,0,447,16408,-768,465,,,,,,,,,,,,
261523,1560687893522,10,2.29,1.87,3.49,1.73,3.01,1.1,-0.22,0.18,3,-3,3,1.12,7995,11,88,34,24,1061,462.0,597,455,60,121.0,111,1,269,156,52,0,0,429,-23623,-18341,461,,,,,,,,,,,,
261543,1560687893542,10,2.3,1.87,3.5,1.74,2.94,1.13,-0.16,0.23,2,-5,2,1.15,7988,11,88,34,23,1086,458.0,587,457,60,122.0,111,1,269,154,52,0,0,409,14488,-28332,458,45.701511,4.911872,48.87,200.9,2,1.8767,0,0.0,0.535,3,0.43,4.359
261563,1560687893562,10,2.3,1.85,3.47,1.74,2.91,1.14,-0.28,0.22,2,-4,2,1.18,7924,11,88,34,24,1112,453.0,582,452,60,122.0,111,1,269,156,52,0,0,428,15649,3635,453,,,,,,,,,,,,
261583,1560687893582,11,2.29,1.78,3.46,1.73,2.89,1.19,-0.32,0.25,2,-3,3,1.23,7898,11,88,34,23,1124,448.0,586,455,60,122.0,103,1,268,154,46,0,0,423,2131,13552,448,,,,,,,,,,,,
261603,1560687893600,11,2.29,1.75,3.44,1.69,2.9,1.27,-0.2,0.21,1,-2,4,1.28,7948,10,88,34,22,1129,444.0,582,458,60,122.0,103,1,269,154,46,0,0,426,26704,-26615,443,,,,,,,,,,,,
261623,1560687893620,12,2.29,1.72,3.38,1.65,2.9,1.26,-0.08,0.21,0,-4,5,1.26,7908,10,88,34,22,1124,439.0,579,457,60,122.0,103,1,269,151,46,0,0,428,-7939,18584,439,,,,,,,,,,,,
261643,1560687893640,12,2.27,1.73,3.34,1.64,2.89,1.19,-0.11,0.26,1,-3,4,1.2,7858,10,88,34,22,1115,436.0,579,456,60,121.0,103,1,268,151,46,0,0,422,-3322,-4082,434,45.7015,4.911881,47.04,200.9,2,1.8767,0,0.0,0.5367,3,0.43,4.3607
261663,1560687893660,7,2.27,1.73,3.38,1.66,2.89,1.28,-0.19,0.28,2,-3,3,1.29,7858,10,88,34,22,1103,431.0,575,457,60,123.0,103,1,268,151,46,0,0,415,3635,-8165,432,,,,,,,,,,,,
261683,1560687893680,6,2.26,1.74,3.39,1.68,2.87,1.35,-0.15,0.21,1,-1,3,1.36,7786,10,88,34,22,1089,426.0,567,456,60,122.0,102,1,267,151,44,0,0,411,-3856,7154,425,,,,,,,,,,,,
261703,1560687893701,5,2.26,1.74,3.4,1.67,2.87,1.32,-0.08,0.21,0,-1,4,1.33,7728,10,88,34,22,1051,424.0,571,456,60,122.0,102,1,267,151,44,0,0,407,-3414,13040,424,,,,,,,,,,,,
261723,1560687893721,6,2.25,1.77,3.39,1.67,2.83,1.19,-0.08,0.17,-1,-1,3,1.19,7618,10,88,34,22,999,422.0,568,453,60,122.0,102,1,266,151,44,0,0,418,-3414,2524,418,,,,,,,,,,,,
261743,1560687893741,6,2.24,1.83,3.37,1.65,2.82,1.12,0.02,0.07,-1,-2,3,1.13,7581,10,88,34,22,953,421.0,565,456,60,122.0,102,1,265,151,44,0,0,411,-21792,10392,414,45.701492,4.91189,43.84,200.9,2,1.8767,0,0.0,0.5383,3,0.43,4.3624
261763,1560687893761,4,2.24,1.87,3.36,1.65,2.82,1.07,0.03,0.02,-1,-2,3,1.07,7560,10,88,34,22,914,416.0,563,456,60,121.0,102,1,265,151,44,0,0,405,18584,2524,410,,,,,,,,,,,,
261783,1560687893781,5,2.23,1.91,3.37,1.64,2.84,0.9,0.06,-0.09,-1,-1,2,0.9,7548,10,88,34,22,881,415.0,562,455,60,122.0,105,1,265,151,43,0,0,405,-9166,-1818,408,,,,,,,,,,,,
261803,1560687893801,5,2.23,1.96,3.37,1.65,2.87,0.77,0.04,-0.14,-0,-0,1,0.77,7512,10,88,34,22,854,412.0,563,456,60,121.0,105,1,265,151,43,0,0,401,13040,-1818,404,,,,,,,,,,,,
261823,1560687893821,3,2.24,1.99,3.38,1.67,2.86,0.68,0.05,-0.15,0,-1,3,0.68,7446,10,88,34,22,841,408.0,558,457,60,121.0,105,1,264,151,43,0,0,399,10392,1,400,,,,,,,,,,,,
261843,1560687893841,6,2.23,2.0,3.37,1.69,2.86,0.69,0.07,-0.15,0,-0,3,0.69,7378,10,88,34,22,853,406.0,553,451,60,122.0,105,1,263,151,43,0,0,399,2524,1,399,45.701481,4.911897,41.89,200.9,2,1.8767,0,0.0,0.54,3,0.43,4.364
261863,1560687893861,4,2.23,2.01,3.35,1.71,2.88,0.61,0.06,-0.15,-1,0,-0,0.61,7327,10,88,34,22,867,404.0,548,456,60,123.0,105,1,263,151,43,0,0,395,1504,-1562,397,,,,,,,,,,,,
261883,1560687893881,1,2.22,2.0,3.29,1.72,2.9,0.62,0.16,-0.18,-1,-2,-1,0.64,7236,9,88,34,22,884,400.0,547,454,60,122.0,104,1,262,151,41,0,0,393,28696,-1562,393,,,,,,,,,,,,
261903,1560687893901,3,2.22,1.99,3.28,1.7,2.92,0.76,0.21,-0.16,-2,-4,-0,0.79,7217,9,88,34,23,899,398.0,539,456,60,123.0,104,1,262,154,41,0,0,387,-1818,-3866,393,,,,,,,,,,,,
261923,1560687893921,7,2.21,1.98,3.29,1.69,2.96,0.79,0.11,0.01,-2,-3,1,0.79,7131,9,88,34,23,903,394.0,537,458,60,121.0,104,1,261,154,41,0,0,385,-1818,8200,391,,,,,,,,,,,,
261943,1560687893941,8,2.21,1.96,3.29,1.69,3.01,0.73,0.07,0.04,-1,-1,0,0.73,7110,9,88,34,23,908,392.0,535,457,60,121.0,104,1,261,154,41,0,0,380,505,770,387,45.701473,4.911905,41.18,201.0,2,1.8767,0,0.0,0.5417,3,0.43,4.3657
261963,1560687893961,4,2.2,1.94,3.31,1.7,3.02,0.65,0.12,-0.05,-1,-1,-2,0.66,7054,9,88,34,23,914,389.0,532,455,60,122.0,104,1,260,154,41,0,0,380,-6524,-6656,385,,,,,,,,,,,,
261983,1560687893981,11,2.19,1.94,3.31,1.76,3.01,0.78,0.13,0.03,-3,-3,-3,0.79,6983,9,88,34,23,919,386.0,527,456,60,123.0,107,1,260,153,41,0,0,377,-19126,257,380,,,,,,,,,,,,
262003,1560687893995,6,2.19,1.95,3.31,1.76,3.02,0.76,0.03,0.11,-3,-3,-4,0.76,6926,9,88,34,24,919,380.0,524,453,60,122.0,107,1,260,156,41,0,0,373,-992,0,380,,,,,,,,,,,,
262023,1560687894015,6,2.19,1.94,3.31,1.75,3.01,0.79,0.09,0.03,-3,-4,-2,0.79,6878,9,88,34,24,920,380.0,520,453,60,123.0,107,1,261,153,41,0,0,372,-992,-6656,375,,,,,,,,,,,,
262043,1560687894035,9,2.19,1.94,3.3,1.74,3.0,0.76,0.08,0.16,-3,-3,-2,0.76,6810,9,88,34,24,916,378.0,519,456,60,121.0,107,1,261,156,41,0,0,369,2278,-29302,370,45.701466,4.911913,39.88,201.0,2,1.8767,0,0.0,0.5433,3,0.43,4.3674
262063,1560687894055,10,2.17,1.95,3.29,1.72,2.97,0.82,0.12,0.14,-3,-2,-2,0.83,6766,9,88,34,24,913,372.0,516,453,60,122.0,107,1,262,156,41,0,0,362,1,-29978,365,,,,,,,,,,,,
262083,1560687894075,13,2.15,1.94,3.3,1.7,2.98,0.87,0.12,0.22,-4,-3,-3,0.87,6722,9,88,35,24,908,369.0,520,462,60,121.0,107,1,262,155,39,0,0,362,-6656,2060,360,,,,,,,,,,,,
262103,1560687894101,11,2.15,1.93,3.31,1.67,2.98,0.89,0.16,0.17,-5,-1,-5,0.9,6674,8,88,35,24,905,368.0,509,451,60,123.0,107,1,263,154,39,0,0,360,0,-30454,356,,,,,,,,,,,,
262123,1560687894121,12,2.14,1.93,3.34,1.64,2.98,1.0,0.17,0.24,-6,-3,-5,1.01,6574,8,88,35,25,901,367.0,509,455,60,121.0,107,1,265,158,39,0,0,352,0,-10554,351,,,,,,,,,,,,
262143,1560687894141,14,2.12,1.96,3.35,1.62,2.99,0.96,0.28,0.19,-7,-1,-5,1.0,6487,8,88,35,25,899,365.0,505,456,60,123.0,107,1,266,158,39,0,0,353,3082,-122,345,45.701458,4.91192,38.18,201.0,2,1.8767,0,0.0,0.545,3,0.44,4.3691
262163,1560687894161,11,2.1,2.02,3.33,1.57,3.0,0.99,0.3,0.11,-8,0,-4,1.04,6397,8,88,35,25,900,361.0,496,455,60,123.0,107,1,267,158,39,0,0,355,-6458,13,337,,,,,,,,,,,,
262183,1560687894181,11,2.1,2.08,3.3,1.56,3.0,1.02,0.26,0.19,-9,-0,-5,1.05,6328,8,88,35,26,900,358.0,491,455,60,122.0,113,1,270,159,38,0,0,351,-29978,-22016,331,,,,,,,,,,,,
262203,1560687894201,13,2.1,2.09,3.3,1.53,3.02,1.07,0.23,0.33,-11,-2,-8,1.09,6262,8,88,35,26,900,355.0,487,457,60,122.0,113,1,271,159,38,0,0,347,2060,155,325,,,,,,,,,,,,
262223,1560687894221,13,2.08,2.09,3.31,1.51,3.06,1.03,0.38,0.39,-11,-3,-11,1.1,6173,8,88,35,27,899,353.0,480,457,60,121.0,113,1,275,160,38,0,0,343,2811,-28416,323,,,,,,,,,,,,
262243,1560687894241,11,2.09,2.09,3.3,1.49,3.08,0.95,0.52,0.36,-11,-4,-13,1.08,6077,8,88,35,27,898,348.0,468,455,60,121.0,113,1,275,160,38,0,0,340,-1246,-28416,319,45.70145,4.911927,36.97,201.0,2,1.8767,0,0.0,0.5467,3,0.44,4.3707
262263,1560687894261,10,2.1,2.09,3.32,1.47,3.08,0.86,0.65,0.32,-10,-3,-15,1.08,6001,8,88,35,28,896,346.0,460,452,60,122.0,113,1,278,162,38,0,0,336,-30438,-32256,317,,,,,,,,,,,,
262283,1560687894281,11,2.08,2.09,3.3,1.47,3.07,0.75,0.71,0.32,-9,-2,-17,1.04,5918,8,88,35,28,895,344.0,455,453,60,122.0,114,1,277,161,36,0,0,334,-31206,28160,315,,,,,,,,,,,,
262303,1560687894301,10,2.09,2.08,3.3,1.46,3.05,0.68,0.77,0.39,-8,-3,-18,1.02,5859,8,88,35,29,896,339.0,450,452,60,122.0,114,1,278,162,36,0,0,329,-122,110,311,,,,,,,,,,,,
262323,1560687894321,5,2.09,2.09,3.28,1.45,3.04,0.72,0.82,0.46,-7,-5,-20,1.09,5812,8,88,35,29,898,334.0,445,454,60,121.0,114,1,278,163,36,0,0,324,4838,26880,309,,,,,,,,,,,,
262343,1560687894341,5,2.09,2.1,3.27,1.44,3.03,0.85,0.82,0.54,-8,-9,-21,1.18,5771,8,88,35,30,900,333.0,444,453,60,122.0,114,1,279,163,36,0,0,322,-6528,24320,304,45.701443,4.911934,34.93,201.0,2,1.8767,0,0.0,0.5483,3,0.44,4.3724
262363,1560687894361,3,2.1,2.09,3.29,1.43,3.03,0.96,0.63,0.59,-11,-10,-22,1.15,5749,8,88,35,30,902,328.0,445,449,60,123.0,114,1,279,163,36,0,0,316,170,23040,303,,,,,,,,,,,,
262383,1560687894381,5,2.11,2.08,3.29,1.44,3.0,1.07,0.45,0.63,-15,-6,-23,1.16,5706,8,88,35,31,906,329.0,442,450,60,123.0,115,1,281,164,35,0,0,317,-20736,100,301,,,,,,,,,,,,
262403,1560687894401,4,2.13,2.07,3.29,1.47,2.93,0.95,0.37,0.56,-15,2,-24,1.02,5650,8,88,35,32,910,325.0,437,451,60,121.0,115,1,283,164,35,0,0,315,-23296,90,301,,,,,,,,,,,,
262423,1560687894421,1,2.15,2.07,3.26,1.47,2.89,0.75,0.48,0.5,-11,4,-25,0.89,5630,8,88,35,32,914,323.0,433,457,60,121.0,115,1,282,164,35,0,0,313,-24576,24320,301,,,,,,,,,,,,
262443,1560687894441,1,2.18,2.07,3.24,1.48,2.87,0.88,0.58,0.48,-10,1,-25,1.05,5659,8,88,35,33,917,319.0,433,457,60,123.0,115,1,286,170,35,0,0,310,-27136,100,300,45.701439,4.911942,32.58,201.1,2,1.8767,0,0.0,0.55,3,0.44,4.3741
262463,1560687894461,4,2.2,2.06,3.24,1.51,2.83,0.99,0.46,0.43,-12,-0,-24,1.1,5697,8,88,35,33,920,315.0,431,453,60,123.0,115,1,286,170,35,0,0,307,-29696,24320,298,,,,,,,,,,,,
262483,1560687894481,1,2.25,2.04,3.24,1.55,2.82,1.01,0.29,0.42,-14,1,-23,1.05,5690,8,88,35,33,923,312.0,430,447,60,122.0,120,1,286,170,36,0,0,305,125,23040,298,,,,,,,,,,,,
262503,1560687894501,-0,2.28,2.01,3.25,1.62,2.81,0.74,0.1,0.44,-11,3,-21,0.75,5635,8,88,35,34,925,307.0,431,453,60,121.0,120,1,288,176,36,0,0,301,30720,90,299,,,,,,,,,,,,
262523,1560687894521,0,2.3,1.98,3.26,1.7,2.8,0.71,0.14,0.46,-6,-0,-19,0.72,5567,8,88,35,35,927,303.0,427,456,60,122.0,120,1,291,180,36,0,0,300,28160,95,299,,,,,,,,,,,,
262543,1560687894541,2,2.35,1.95,3.26,1.79,2.78,0.84,0.12,0.52,-7,-3,-16,0.85,5509,8,88,35,35,927,302.0,423,456,60,123.0,120,1,290,180,36,0,0,296,25600,24320,302,45.701435,4.91195,31.22,201.1,2,1.8767,0,0.0,0.5517,3,0.44,4.3757
262563,1560687894561,2,2.38,1.91,3.28,1.88,2.75,0.61,-0.03,0.5,-6,3,-15,0.61,5472,8,88,35,36,929,301.0,417,452,60,121.0,120,1,293,185,36,0,0,294,90,90,301,,,,,,,,,,,,
262583,1560687894581,-1,2.43,1.87,3.32,1.97,2.7,0.57,-0.04,0.48,-1,3,-14,0.58,5485,8,88,35,36,932,302.0,415,455,60,122.0,125,1,293,185,38,0,0,290,80,26880,302,,,,,,,,,,,,
262603,1560687894601,4,2.48,1.84,3.34,2.06,2.67,0.72,-0.1,0.46,-1,-1,-10,0.73,5471,8,88,35,37,931,301.0,415,457,60,123.0,125,1,296,191,38,0,0,287,0,85,302,,,,,,,,,,,,
262623,1560687894621,-1,2.52,1.83,3.36,2.13,2.67,0.51,-0.23,0.44,1,2,-8,0.56,5426,8,88,35,37,930,303.0,413,455,60,122.0,125,1,296,191,38,0,0,281,-1529,23040,303,,,,,,,,,,,,
262643,1560687894641,-1,2.56,1.8,3.44,2.17,2.67,0.63,-0.29,0.53,5,-3,-5,0.69,5392,8,88,35,38,928,303.0,408,457,60,122.0,125,1,299,196,38,0,0,275,250,95,303,45.701427,4.911958,30.42,201.0,2,1.8767,0,0.0,0.5533,3,0.44,4.3774
262663,1560687894661,0,2.58,1.77,3.52,2.19,2.67,0.63,-0.31,0.41,5,0,-1,0.7,5334,8,88,35,38,926,305.0,411,452,60,123.0,125,1,299,196,38,0,0,273,30208,95,305,,,,,,,,,,,,
262683,1560687894681,-0,2.59,1.74,3.58,2.22,2.67,0.61,-0.38,0.43,9,-1,2,0.72,5301,8,88,35,39,923,305.0,407,461,60,122.0,131,1,302,203,40,0,0,270,2414,24320,305,,,,,,,,,,,,
262703,1560687894700,3,2.61,1.74,3.61,2.22,2.67,0.75,-0.46,0.44,10,-0,5,0.89,5260,8,88,35,39,916,306.0,399,456,60,123.0,131,1,302,203,40,0,0,265,250,90,306,,,,,,,,,,,,
262723,1560687894720,-2,2.63,1.74,3.63,2.25,2.65,0.68,-0.54,0.41,13,-4,9,0.87,5233,7,88,35,40,913,306.0,403,458,60,123.0,131,1,303,204,40,0,0,262,-1,25600,306,,,,,,,,,,,,
262743,1560687894740,0,2.66,1.74,3.65,2.25,2.64,0.79,-0.64,0.42,14,-2,12,1.01,5198,7,88,35,40,909,306.0,401,453,60,122.0,131,1,302,203,40,0,0,258,-1,90,306,45.70142,4.911965,29.83,201.0,2,1.8767,0,0.0,0.555,3,0.44,4.379
262763,1560687894760,6,2.67,1.72,3.68,2.24,2.63,0.79,-0.72,0.43,17,-2,14,1.07,5172,7,88,35,41,901,306.0,398,454,60,123.0,131,1,304,205,40,0,0,256,-1,90,306,,,,,,,,,,,,
262783,1560687894780,-0,2.69,1.7,3.68,2.25,2.59,0.79,-0.72,0.38,18,-1,18,1.07,5102,7,88,35,41,886,307.0,389,459,60,121.0,127,1,303,205,39,0,0,253,-1,95,307,,,,,,,,,,,,
262803,1560687894802,3,2.71,1.7,3.68,2.25,2.59,0.89,-0.76,0.48,20,-6,21,1.17,5049,7,88,35,42,870,307.0,389,455,60,123.0,127,1,302,207,39,0,0,248,-1,90,307,,,,,,,,,,,,
262823,1560687894822,-1,2.75,1.7,3.69,2.24,2.58,0.73,-0.81,0.41,22,-1,22,1.09,5020,7,88,35,42,860,306.0,386,462,60,121.0,127,1,302,207,39,0,0,241,-41,24320,306,,,,,,,,,,,,
262843,1560687894842,-2,2.8,1.7,3.69,2.24,2.58,0.85,-0.85,0.41,23,-0,24,1.21,4990,8,88,35,43,848,304.0,383,454,60,121.0,127,1,301,208,39,0,0,238,-10440,24320,304,45.70142,4.911971,28.64,201.0,2,1.8767,0,0.0,0.5567,3,0.44,4.3807
262863,1560687894862,3,2.84,1.68,3.69,2.25,2.55,0.97,-0.88,0.4,26,-6,28,1.31,4951,8,88,35,43,840,304.0,380,455,60,123.0,127,1,300,208,39,0,0,238,-1281,24320,304,,,,,,,,,,,,
262883,1560687894882,-1,2.89,1.64,3.7,2.24,2.54,0.85,-0.93,0.36,28,-3,30,1.26,4947,9,88,35,45,833,304.0,375,465,60,121.0,128,1,301,211,39,0,0,234,-1,21760,303,,,,,,,,,,,,
262903,1560687894900,-2,2.94,1.61,3.69,2.25,2.52,0.89,-0.94,0.35,29,-1,33,1.29,4922,13,88,35,45,836,303.0,372,456,60,122.0,128,1,301,211,39,0,0,235,16896,20480,303,,,,,,,,,,,,
262923,1560687894920,0,0.36,1.6,3.7,2.24,2.53,1.0,-0.92,0.39,31,-7,38,1.36,4882,17,88,35,47,840,302.0,371,453,60,123.0,128,1,303,214,39,0,0,224,10812,80,302,,,,,,,,,,,,
262943,1560687894940,4,0.41,1.6,3.7,2.24,2.54,1.04,-0.97,0.5,34,-8,41,1.42,4889,20,88,35,51,850,300.0,364,465,60,123.0,128,1,301,226,39,0,0,220,-17920,80,300,45.701412,4.911977,28.23,200.9,2,1.8767,0,0.0,0.5583,3,0.44,4.3824
262963,1560687894960,-0,0.43,1.6,3.71,2.24,2.54,0.95,-0.99,0.53,35,-4,42,1.38,4836,22,88,35,54,860,297.0,364,462,60,121.0,128,1,298,234,39,0,0,213,-1484,41,297,,,,,,,,,,,,
262983,1560687894980,-1,0.44,1.6,3.71,2.24,2.54,0.87,-1.02,0.49,36,-3,43,1.33,4803,24,88,35,56,866,296.0,360,461,60,121.0,144,1,298,242,43,0,0,211,-1484,0,296,,,,,,,,,,,,
263003,1560687894996,1,0.43,1.61,3.7,2.26,2.54,0.92,-0.98,0.43,37,-5,45,1.34,4887,24,88,35,59,872,295.0,346,452,60,122.0,144,1,296,256,43,0,0,209,250,41,295,,,,,,,,,,,,
263023,1560687895016,1,0.43,1.61,3.71,2.25,2.54,0.97,-0.89,0.34,38,-8,46,1.32,4851,26,88,35,61,881,295.0,312,460,60,123.0,144,1,295,265,43,0,0,210,-25600,0,293,,,,,,,,,,,,
263043,1560687895036,12,0.42,1.61,3.71,2.25,2.52,0.9,-1.0,0.28,40,-5,46,1.34,4931,29,88,35,65,890,293.0,314,472,60,123.0,144,1,290,292,43,0,0,222,-1483,250,293,45.701405,4.911982,28.76,200.9,2,1.8767,0,0.0,0.56,3,0.44,4.384
263063,1560687895056,1,0.42,1.6,3.71,2.24,2.47,0.86,-1.1,0.21,40,-3,48,1.4,4956,34,88,35,68,892,293.0,295,449,60,121.0,144,1,285,306,43,0,0,226,13602,41,293,,,,,,,,,,,,
263083,1560687895076,3,0.42,1.58,3.71,2.23,2.45,0.98,-1.02,0.21,42,-7,52,1.41,5013,39,88,35,72,894,291.0,303,453,60,123.0,209,1,283,329,61,0,0,227,250,-1529,291,,,,,,,,,,,,
263103,1560687895102,1,0.42,1.57,3.71,2.23,2.44,0.83,-1.11,0.24,43,-4,53,1.39,5111,42,88,35,76,881,293.0,277,456,60,121.0,209,1,288,355,61,0,0,234,10824,24064,293,,,,,,,,,,,,
263123,1560687895122,1,0.42,1.57,3.71,2.23,2.44,0.91,-1.02,0.21,43,-4,57,1.37,5162,46,88,35,79,868,291.0,266,446,60,123.0,209,1,291,404,61,0,0,237,10824,24064,291,,,,,,,,,,,,
263143,1560687895142,-0,0.42,1.57,3.71,2.22,2.45,0.91,-1.06,0.35,46,-7,58,1.4,5237,48,88,35,82,853,291.0,268,465,60,123.0,209,1,296,443,61,0,0,244,18432,250,291,45.701401,4.911985,29.35,200.9,2,1.8767,0,0.0,0.5617,3,0.44,4.3857
263163,1560687895162,2,0.42,1.58,3.7,2.23,2.45,0.92,-1.06,0.44,45,-5,59,1.41,5366,50,88,35,83,837,290.0,288,448,60,123.0,209,1,303,459,61,0,0,254,18432,30208,291,,,,,,,,,,,,
263183,1560687895182,-0,0.42,1.58,3.71,2.23,2.46,0.83,-1.16,0.48,47,-5,58,1.42,5487,50,88,35,84,834,290.0,294,458,60,120.0,329,1,309,464,96,0,0,269,-1496,-1534,290,,,,,,,,,,,,
263203,1560687895202,-1,0.42,1.58,3.71,2.24,2.47,0.93,-1.08,0.43,48,-7,59,1.43,5577,50,88,35,84,831,290.0,288,465,60,122.0,329,1,314,466,96,0,0,297,19968,630,290,,,,,,,,,,,,
263223,1560687895222,4,0.42,1.6,3.71,2.25,2.47,0.9,-1.06,0.37,47,-6,61,1.39,5688,51,88,35,84,839,291.0,301,453,60,123.0,329,1,321,468,96,0,0,323,19968,24064,291,,,,,,,,,,,,
263243,1560687895242,4,0.42,1.6,3.7,2.25,2.45,0.74,-1.08,0.31,48,-4,61,1.31,5874,51,88,35,83,852,292.0,320,452,60,121.0,329,1,335,469,96,0,0,340,250,-16896,292,45.701393,4.911987,29.04,200.7,2,1.8767,0,0.0,0.5633,3,0.44,4.3874
263263,1560687895262,5,0.41,1.62,3.71,2.26,2.43,0.65,-1.09,0.27,49,-2,61,1.27,6091,51,88,35,82,891,291.0,338,458,60,123.0,329,1,347,467,96,0,0,346,250,-16896,292,,,,,,,,,,,,
263283,1560687895282,1,0.4,1.61,3.7,2.25,2.39,0.53,-1.04,0.21,52,1,61,1.17,6315,51,88,36,82,941,291.0,362,457,60,123.0,380,1,355,471,111,0,0,342,19968,80,291,,,,,,,,,,,,
263303,1560687895302,0,0.38,1.62,3.7,2.27,2.32,0.52,-1.03,0.25,53,1,63,1.15,6390,51,88,36,82,979,295.0,384,457,60,121.0,380,1,357,472,111,0,0,361,250,100,295,,,,,,,,,,,,
263323,1560687895322,3,0.36,1.65,3.68,2.3,2.28,0.58,-1.08,0.37,53,-0,64,1.23,6313,51,88,36,82,1013,300.0,404,458,60,121.0,380,1,354,471,111,0,0,379,250,110,302,,,,,,,,,,,,
263343,1560687895342,4,0.34,1.72,3.62,2.33,2.28,0.63,-1.1,0.45,54,-1,64,1.27,6279,51,88,36,82,1058,304.0,413,459,60,122.0,380,1,353,470,111,0,0,369,10824,-32256,304,45.701382,4.911987,29.39,200.6,2,1.8767,0,0.0,0.565,3,0.45,4.389
263363,1560687895362,5,2.92,1.78,3.59,2.35,2.26,0.57,-1.06,0.45,55,0,65,1.2,6254,51,88,36,82,1105,307.0,422,457,60,122.0,380,1,352,470,111,0,0,345,8704,135,307,,,,,,,,,,,,
263383,1560687895382,-0,2.87,1.83,3.59,2.36,2.26,0.55,-1.06,0.39,56,-0,66,1.19,6179,51,88,36,82,1133,308.0,435,457,60,123.0,357,1,350,469,110,0,0,337,-25600,165,310,,,,,,,,,,,,
263403,1560687895402,0,2.83,1.89,3.59,2.39,2.27,0.52,-1.06,0.4,56,0,68,1.18,6157,52,88,36,82,1143,313.0,435,457,60,122.0,357,1,349,469,110,0,0,330,-1484,155,313,,,,,,,,,,,,
263423,1560687895422,0,2.77,1.94,3.59,2.42,2.27,0.51,-1.02,0.45,56,-1,71,1.14,6115,52,88,36,83,1145,315.0,440,457,60,122.0,357,1,347,473,110,0,0,328,23482,3346,315,,,,,,,,,,,,
263443,1560687895442,-0,2.72,1.99,3.59,2.43,2.28,0.51,-1.03,0.5,55,-2,73,1.14,6119,52,88,36,83,1141,318.0,439,457,60,122.0,357,1,347,473,110,0,0,329,15360,4838,318,45.701378,4.911986,30.18,200.4,2,1.8767,0,0.0,0.5667,3,0.45,4.3907
263463,1560687895462,-1,2.67,2.01,3.57,2.43,2.28,0.62,-1.11,0.61,54,-5,72,1.27,6165,52,88,36,83,1132,320.0,437,457,60,121.0,357,1,350,474,110,0,0,316,16896,-31222,320,,,,,,,,,,,,
263483,1560687895482,2,2.61,2.0,3.55,2.45,2.28,0.69,-1.17,0.73,54,-6,70,1.36,6243,52,88,36,83,1117,320.0,438,457,60,121.0,346,1,351,475,111,0,0,335,-1,4838,320,,,,,,,,,,,,
263503,1560687895502,6,2.56,2.01,3.53,2.44,2.28,0.68,-1.16,0.83,54,-7,69,1.35,6285,53,88,36,83,1104,321.0,438,456,60,121.0,346,1,352,476,111,0,0,348,14337,3346,321,,,,,,,,,,,,
263523,1560687895522,4,2.52,2.01,3.49,2.44,2.29,0.6,-1.03,0.78,53,-5,69,1.2,6347,54,88,36,83,1093,320.0,442,461,60,123.0,346,1,355,477,111,0,0,325,-1,2560,320,,,,,,,,,,,,
263543,1560687895542,-2,2.46,2.01,3.46,2.43,2.29,0.55,-0.97,0.7,51,-4,68,1.12,6364,54,88,36,83,1086,320.0,443,462,60,123.0,346,1,355,478,111,0,0,324,-1,-31222,320,45.701366,4.911983,32.45,200.2,2,1.8767,0,0.0,0.5683,3,0.45,4.3924
263563,1560687895562,1,2.41,2.02,3.39,2.43,2.31,0.61,-0.97,0.76,48,-5,67,1.15,6296,55,88,36,84,1090,320.0,445,456,60,121.0,346,1,351,480,111,0,0,342,250,3327,320,,,,,,,,,,,,
263583,1560687895582,3,2.37,2.06,3.34,2.44,2.31,0.65,-0.93,0.84,46,-8,64,1.13,6313,55,88,36,84,1090,319.0,443,452,60,122.0,359,1,351,484,115,0,0,341,-1529,3346,319,,,,,,,,,,,,
263603,1560687895595,6,2.32,2.1,3.29,2.42,2.31,0.66,-0.85,0.86,44,-5,60,1.08,6338,55,88,36,84,1086,319.0,445,454,60,123.0,359,1,352,480,115,0,0,321,0,6668,319,,,,,,,,,,,,
263623,1560687895615,1,2.27,2.15,3.25,2.41,2.32,0.52,-0.7,0.81,40,-2,56,0.88,6296,56,88,36,85,1080,319.0,446,452,60,123.0,359,1,348,483,115,0,0,327,28160,3346,319,,,,,,,,,,,,
263643,1560687895635,-2,2.23,2.23,3.19,2.4,2.3,0.43,-0.63,0.72,35,0,51,0.77,6233,56,88,36,85,1072,318.0,446,464,60,122.0,359,1,345,482,115,0,0,340,-32256,13,319,45.701359,4.911978,33.63,200.1,2,1.8767,0,0.0,0.57,3,0.45,4.3941
263663,1560687895655,0,2.18,2.31,3.12,2.38,2.33,0.46,-0.57,0.72,29,1,46,0.73,6184,56,88,36,85,1063,318.0,442,465,60,121.0,359,1,343,480,115,0,0,334,145,13,318,,,,,,,,,,,,
263683,1560687895675,-0,2.14,2.4,3.04,2.34,2.42,0.55,-0.57,0.72,23,0,42,0.79,6169,56,88,35,86,1056,326.0,441,465,60,122.0,351,1,340,484,112,0,0,336,165,13,320,,,,,,,,,,,,
263703,1560687895699,1,2.11,2.49,2.96,2.28,2.53,0.66,-0.52,0.76,17,-4,38,0.84,6243,57,88,35,86,1049,331.0,441,462,60,121.0,351,1,342,485,112,0,0,339,-12032,6668,319,,,,,,,,,,,,
263723,1560687895719,3,2.09,2.55,2.91,2.2,2.63,0.58,-0.31,0.69,14,-6,33,0.66,6336,60,88,35,86,1048,337.0,445,456,60,123.0,351,1,346,488,112,0,0,343,2560,6668,322,,,,,,,,,,,,
263743,1560687895739,-1,2.07,2.56,2.91,2.15,2.72,0.57,-0.15,0.65,12,-5,28,0.59,6445,65,88,35,87,1045,342.0,442,453,60,122.0,351,1,349,495,112,0,0,348,-31206,-10554,323,45.701351,4.911972,35.34,199.8,2,1.8767,0,0.0,0.5717,3,0.45,4.3957
263763,1560687895759,2,2.06,2.57,2.9,2.12,2.8,0.6,-0.14,0.67,9,-3,21,0.62,6604,71,88,35,89,1034,344.0,454,460,60,121.0,351,1,352,509,112,0,0,349,-10554,-29302,324,,,,,,,,,,,,
263783,1560687895779,1,2.07,2.57,2.9,2.1,2.84,0.52,0.01,0.67,6,-4,16,0.52,6764,75,88,35,91,1025,348.0,466,459,60,122.0,407,1,359,521,133,0,0,355,-1246,4104,326,,,,,,,,,,,,
263803,1560687895801,2,2.07,2.57,2.9,2.09,2.86,0.66,-0.07,0.8,3,-3,11,0.66,6967,79,88,35,93,1016,353.0,473,458,60,121.0,407,1,368,526,133,0,0,361,-6644,770,329,,,,,,,,,,,,
263823,1560687895821,-0,2.08,2.57,2.9,2.11,2.86,0.4,0.04,0.77,3,-1,8,0.4,7140,82,88,35,93,1005,358.0,480,457,60,122.0,407,1,380,533,133,0,0,369,-29978,-3866,333,,,,,,,,,,,,
263843,1560687895841,1,2.07,2.56,2.9,2.11,2.87,0.4,0.16,0.79,-1,-4,4,0.44,7281,83,88,35,93,992,361.0,492,455,60,122.0,407,1,391,540,133,0,0,375,-6458,-6475,338,45.701344,4.911968,34.28,199.9,2,1.8767,0,0.0,0.5733,3,0.45,4.3974
263863,1560687895861,1,2.07,2.56,2.89,2.11,2.86,0.51,0.21,0.8,-4,-3,1,0.55,7431,84,88,35,93,979,368.0,503,455,60,122.0,407,1,403,547,133,0,0,388,0,-6656,341,,,,,,,,,,,,
263883,1560687895881,-1,2.07,2.56,2.85,2.11,2.82,0.55,0.32,0.78,-7,-2,-2,0.63,7509,85,88,35,92,975,374.0,511,455,60,122.0,453,1,410,550,156,0,0,391,742,505,345,,,,,,,,,,,,
263903,1560687895901,1,2.07,2.58,2.78,2.14,2.76,0.53,0.32,0.87,-9,-1,-4,0.62,7591,86,88,35,92,971,380.0,519,455,60,122.0,453,1,416,553,156,0,0,402,-992,1504,350,,,,,,,,,,,,
263923,1560687895921,2,2.07,2.6,2.74,2.13,2.71,0.53,0.45,0.92,-11,-2,-8,0.7,7606,87,88,35,92,949,386.0,525,452,60,122.0,453,1,417,554,156,0,0,409,-3866,-26615,353,,,,,,,,,,,,
263943,1560687895941,2,2.09,2.6,2.7,2.12,2.7,0.46,0.46,0.92,-13,-2,-12,0.66,7684,91,88,35,92,926,392.0,534,455,60,122.0,453,1,423,558,156,0,0,415,1,-26615,358,45.70134,4.911962,34.75,199.8,2,1.8767,0,0.0,0.575,3,0.45,4.399
263963,1560687895961,4,2.1,2.6,2.7,2.13,2.68,0.37,0.51,0.91,-14,-1,-12,0.63,7741,96,88,35,93,906,397.0,538,455,60,121.0,453,1,430,560,156,0,0,417,-3968,1504,364,,,,,,,,,,,,
263983,1560687895981,3,2.12,2.63,2.71,2.13,2.68,0.33,0.46,0.94,-14,-0,-12,0.56,7838,100,88,35,93,887,401.0,539,460,60,121.0,449,1,434,566,166,0,0,426,11545,7154,371,,,,,,,,,,,,
264003,1560687895995,1,2.15,2.63,2.74,2.12,2.68,0.39,0.32,0.94,-15,-1,-15,0.5,8023,100,88,35,92,855,408.0,546,460,60,121.0,449,1,448,574,166,0,0,432,10392,26704,377,,,,,,,,,,,,
264023,1560687896015,5,2.18,2.63,2.76,2.12,2.64,0.36,0.35,0.99,-15,-1,-16,0.5,8212,100,88,35,91,823,411.0,556,453,60,121.0,449,1,442,594,166,0,0,439,-4059,9517,383,,,,,,,,,,,,
264043,1560687896035,4,2.2,2.63,2.78,2.11,2.63,0.47,0.14,1.04,-15,0,-17,0.49,8381,100,88,35,90,804,415.0,565,458,60,120.0,449,1,440,614,166,0,0,450,-21944,23400,391,45.701332,4.911957,35.76,199.8,2,1.8767,0,0.0,0.5767,3,0.45,4.4007
264063,1560687896055,-0,2.25,2.63,2.77,2.12,2.62,0.45,0.16,1.13,-15,-1,-18,0.48,8569,100,88,35,89,790,419.0,585,448,60,121.0,449,1,433,617,166,0,0,454,-8165,-1923,397,,,,,,,,,,,,
264083,1560687896075,3,2.27,2.63,2.78,2.18,2.58,0.31,0.34,1.09,-14,-1,-16,0.46,8782,100,88,35,88,784,422.0,590,448,60,121.0,510,1,425,606,204,0,0,475,-3414,-8985,404,,,,,,,,,,,,
264103,1560687896099,5,2.31,2.62,2.83,2.23,2.54,0.19,0.5,0.96,-13,0,-15,0.53,8915,100,88,35,87,780,425.0,602,453,60,122.0,510,1,421,606,204,0,0,481,-3856,12552,411,,,,,,,,,,,,
264123,1560687896119,6,2.32,2.6,2.88,2.25,2.52,0.03,0.6,0.86,-11,2,-16,0.6,9027,100,88,35,87,785,429.0,596,450,60,121.0,510,1,418,594,204,0,0,492,1779,-21872,420,,,,,,,,,,,,
264143,1560687896139,2,2.33,2.59,2.9,2.28,2.48,0.03,0.71,0.82,-10,4,-15,0.71,9231,100,88,35,87,795,433.0,610,454,60,121.0,510,1,418,594,204,0,0,481,243,32033,431,45.701321,4.911952,37.08,199.9,2,1.8767,0,0.0,0.5783,3,0.45,4.4024
264163,1560687896159,3,2.34,2.56,2.9,2.28,2.45,-0.01,0.71,0.83,-7,5,-11,0.71,9323,100,88,35,87,822,440.0,611,449,60,121.0,510,1,418,594,204,0,0,491,19477,-6441,440,,,,,,,,,,,,
264183,1560687896179,3,2.35,2.56,2.88,2.32,2.41,0.06,0.55,0.92,-6,3,-9,0.55,9342,100,88,35,87,854,445.0,612,445,60,121.0,474,1,418,594,210,0,0,502,26704,-3856,445,,,,,,,,,,,,
264203,1560687896201,5,2.35,2.56,2.89,2.36,2.36,0.2,0.29,0.92,-5,0,-8,0.35,9436,100,88,35,87,882,454.0,607,451,60,122.0,474,1,418,594,210,0,0,511,16648,-1818,454,,,,,,,,,,,,
264223,1560687896221,3,2.34,2.54,2.91,2.39,2.35,0.08,0.26,0.91,-2,3,-9,0.28,9460,100,88,35,86,905,462.0,617,446,60,121.0,474,1,418,594,210,0,0,517,-6387,17136,462,,,,,,,,,,,,
264243,1560687896241,4,2.34,2.53,2.94,2.41,2.33,0.15,0.24,1.01,-1,3,-6,0.28,9610,100,88,35,86,930,469.0,612,452,60,120.0,474,1,414,586,210,0,0,527,17628,-4054,469,45.701313,4.911948,38.85,200.0,2,1.8767,0,0.0,0.58,3,0.45,4.404
264263,1560687896261,2,2.35,2.52,2.99,2.44,2.33,0.2,0.19,1.09,-0,-1,-5,0.27,9709,100,88,35,86,955,474.0,619,448,60,122.0,474,1,409,588,210,0,0,505,16408,-8187,479,,,,,,,,,,,,
264283,1560687896281,1,2.35,2.52,3.0,2.44,2.32,0.12,0.22,1.13,1,-0,-3,0.25,9745,100,88,35,86,969,483.0,620,453,60,121.0,450,1,408,590,217,0,0,523,-16384,-28648,483,,,,,,,,,,,,
264303,1560687896299,2,2.33,2.5,3.05,2.43,2.34,0.2,0.15,1.11,2,-3,-0,0.25,9842,100,88,35,85,971,488.0,622,452,60,121.0,450,1,403,575,217,0,0,549,3576,-30064,488,,,,,,,,,,,,
264323,1560687896319,6,2.33,2.49,3.08,2.44,2.34,0.19,0.06,1.1,3,0,-0,0.2,10064,100,88,35,85,974,496.0,624,447,60,122.0,450,1,399,577,217,0,0,533,8488,-30064,496,,,,,,,,,,,,
264343,1560687896339,5,2.33,2.51,3.08,2.5,2.32,0.2,0.13,1.07,4,1,0,0.24,10151,100,88,35,85,980,498.0,626,457,60,121.0,450,1,406,577,217,0,0,521,-899,-9072,501,45.701305,4.911943,37.72,200.2,2,1.8767,0,0.0,0.5817,3,0.46,4.4057
264363,1560687896359,1,2.33,2.49,3.12,2.49,2.32,0.27,0.05,1.11,4,-1,1,0.27,10201,100,88,35,85,985,504.0,626,455,60,121.0,450,1,409,577,217,0,0,564,-6656,-28648,505,,,,,,,,,,,,
264383,1560687896379,2,2.33,2.49,3.13,2.49,2.33,0.33,-0.02,1.05,5,-3,3,0.33,10290,100,88,35,85,988,511.0,623,450,60,121.0,440,1,414,577,224,0,0,557,2524,2524,513,,,,,,,,,,,,
264403,1560687896399,1,2.33,2.48,3.14,2.47,2.33,0.27,-0.12,1.08,6,-3,4,0.3,10382,100,88,35,85,993,518.0,633,448,60,121.0,440,1,422,577,224,0,0,533,11560,6274,518,,,,,,,,,,,,
264423,1560687896419,2,2.32,2.48,3.13,2.46,2.29,0.21,-0.19,0.99,7,-1,4,0.28,10480,100,88,35,85,998,523.0,626,452,60,121.0,440,1,429,577,224,0,0,559,-3414,-22519,522,,,,,,,,,,,,
264443,1560687896439,2,2.31,2.46,3.13,2.46,2.31,0.14,-0.16,1.04,8,-1,6,0.22,10469,100,88,35,85,1003,527.0,627,448,60,121.0,440,1,428,577,224,0,0,583,15679,10432,528,45.701298,4.911938,44.83,200.2,2,1.8767,0,0.0,0.5833,3,0.46,4.4074
264463,1560687896459,2,2.31,2.45,3.13,2.47,2.31,0.05,-0.19,1.08,8,2,6,0.2,10641,100,88,35,85,1004,535.0,627,450,60,121.0,440,1,434,577,224,0,0,572,-9212,-8188,535,,,,,,,,,,,,
264483,1560687896479,4,2.31,2.45,3.11,2.48,2.31,0.12,-0.2,1.05,8,3,6,0.24,10800,100,88,35,85,1005,538.0,631,452,60,121.0,435,1,438,577,234,0,0,548,-28648,-3210,538,,,,,,,,,,,,
264503,1560687896501,6,2.3,2.45,3.1,2.47,2.33,0.22,-0.26,0.95,7,1,7,0.35,10850,100,88,35,85,1006,543.0,641,452,60,121.0,435,1,438,577,234,0,0,580,-32248,6273,543,,,,,,,,,,,,
264523,1560687896521,6,2.29,2.46,3.09,2.48,2.31,0.2,-0.31,1.02,8,-0,6,0.37,10920,100,88,35,85,1007,549.0,638,451,60,121.0,435,1,441,577,234,0,0,599,-2934,-25872,549,,,,,,,,,,,,
264543,1560687896541,1,2.3,2.45,3.08,2.49,2.3,0.22,-0.28,1.04,8,1,6,0.36,10971,100,88,35,85,1006,553.0,638,450,60,121.0,435,1,443,577,234,0,0,592,2524,-3210,553,45.701282,4.911931,48.89,200.2,2,1.8767,0,0.0,0.585,3,0.46,4.409
264563,1560687896561,3,2.31,2.44,3.09,2.48,2.3,0.27,-0.29,1.06,7,1,7,0.39,11042,100,88,35,84,1004,557.0,641,451,60,121.0,435,1,443,559,234,0,0,589,14504,-13043,557,,,,,,,,,,,,
264583,1560687896581,2,2.3,2.45,3.09,2.48,2.32,0.25,-0.36,1.02,6,1,7,0.44,11154,100,88,35,85,997,563.0,635,450,60,121.0,434,1,443,559,244,0,0,589,2216,-7939,563,,,,,,,,,,,,
264603,1560687896598,4,2.3,2.49,3.07,2.48,2.35,0.2,-0.27,0.92,7,3,7,0.34,11180,100,88,35,84,989,567.0,635,456,60,121.0,434,1,442,559,244,0,0,599,12552,1010,567,,,,,,,,,,,,
264623,1560687896618,1,2.3,2.49,3.08,2.46,2.36,0.32,-0.25,0.91,6,2,6,0.41,11274,100,88,35,84,981,572.0,636,456,60,120.0,434,1,441,559,244,0,0,608,-8186,-7939,572,,,,,,,,,,,,
264643,1560687896638,3,2.32,2.46,3.11,2.46,2.33,0.33,-0.26,0.93,6,-1,6,0.42,11432,100,88,35,84,972,580.0,638,452,60,121.0,434,1,441,559,244,0,0,627,1760,1010,580,45.701271,4.911924,52.8,200.1,2,1.8767,0,0.0,0.5867,3,0.46,4.4107
264663,1560687896658,3,2.31,2.45,3.13,2.45,2.33,0.24,-0.43,1.0,6,-4,7,0.49,11574,100,88,34,84,958,587.0,637,455,60,120.0,434,1,440,565,244,0,0,619,-3210,26688,587,,,,,,,,,,,,
264683,1560687896678,3,2.3,2.44,3.13,2.45,2.34,0.22,-0.46,1.05,7,-3,7,0.51,11696,100,88,34,84,942,588.0,644,455,60,121.0,424,1,440,568,251,0,0,608,15649,-14655,593,,,,,,,,,,,,
264703,1560687896700,6,2.31,2.45,3.1,2.44,2.37,0.23,-0.31,1.05,7,-1,7,0.38,11785,100,88,34,83,935,598.0,643,453,60,121.0,424,1,440,551,251,0,0,620,2048,11566,598,,,,,,,,,,,,
264723,1560687896720,6,2.31,2.46,3.05,2.44,2.36,0.22,-0.07,0.94,7,-0,7,0.23,11867,100,88,34,83,928,601.0,639,450,60,121.0,424,1,440,556,251,0,0,635,17344,-16883,601,,,,,,,,,,,,
264743,1560687896740,6,2.32,2.46,3.06,2.45,2.32,0.25,0.02,1.02,7,-0,6,0.25,11874,100,88,34,83,912,606.0,646,448,60,121.0,424,1,440,556,251,0,0,644,4956,20993,606,45.70126,4.911916,54.89,200.2,2,1.8767,0,0.0,0.5883,3,0.46,4.4124
264763,1560687896760,5,2.32,2.45,3.08,2.46,2.29,0.32,0.13,1.04,6,-2,8,0.35,11927,100,88,34,83,896,612.0,644,452,60,120.0,424,1,440,557,251,0,0,656,-7939,-4876,612,,,,,,,,,,,,
264783,1560687896780,7,2.3,2.46,3.1,2.46,2.3,0.34,0.18,1.08,5,-4,10,0.39,12050,100,88,34,83,886,613.0,637,453,60,120.0,413,1,440,560,254,0,0,634,19621,-5120,616,,,,,,,,,,,,
264803,1560687896800,3,2.32,2.45,3.09,2.44,2.33,0.32,0.33,1.04,4,-4,10,0.46,12065,100,88,34,83,878,619.0,650,453,60,120.0,413,1,440,560,254,0,0,641,16529,-3038,622,,,,,,,,,,,,
264823,1560687896820,6,2.31,2.44,3.09,2.44,2.37,0.3,0.42,0.97,4,-8,11,0.51,12191,100,88,34,83,861,624.0,641,452,60,120.0,413,1,440,560,254,0,0,656,19320,1549,624,,,,,,,,,,,,
264843,1560687896840,2,2.32,2.44,3.1,2.43,2.39,0.29,0.45,0.89,4,-9,13,0.54,12287,100,88,34,83,844,634.0,646,451,60,121.0,413,1,440,560,254,0,0,668,-18357,3543,634,45.701244,4.911907,57.72,200.2,2,1.8767,0,0.0,0.59,3,0.46,4.4141
264863,1560687896860,4,2.31,2.43,3.12,2.43,2.38,0.37,0.31,1.0,4,-7,12,0.48,12392,100,88,34,83,833,635.0,656,456,60,121.0,413,1,440,560,254,0,0,672,-16046,-3038,635,,,,,,,,,,,,
264883,1560687896880,5,2.31,2.43,3.14,2.44,2.38,0.43,0.08,1.0,5,-7,11,0.44,12491,100,88,34,83,825,639.0,659,454,60,120.0,416,1,440,560,265,0,0,675,3,-26380,639,,,,,,,,,,,,
264903,1560687896900,5,2.32,2.43,3.13,2.44,2.34,0.45,0.03,1.06,5,-11,11,0.45,12516,100,88,34,83,816,645.0,657,458,60,120.0,416,1,440,560,265,0,0,662,16599,-3038,645,,,,,,,,,,,,
264923,1560687896920,5,2.31,2.42,3.12,2.43,2.35,0.35,0.03,1.08,5,-11,12,0.35,12575,100,88,34,83,807,648.0,656,453,60,121.0,416,1,440,560,265,0,0,668,24,3543,649,,,,,,,,,,,,
264943,1560687896940,-2,2.32,2.42,3.13,2.42,2.35,0.32,-0.06,1.15,5,-12,12,0.32,12592,100,88,34,83,803,654.0,658,453,60,120.0,416,1,440,560,265,0,0,677,479,16118,655,45.701233,4.911898,60.65,200.1,2,1.8767,0,0.0,0.5917,3,0.46,4.4157
264963,1560687896960,0,2.31,2.42,3.13,2.43,2.36,0.43,-0.12,1.14,4,-14,12,0.45,12287,100,88,34,83,804,659.0,663,460,60,124.0,416,1,440,560,265,0,0,681,-8429,-2826,659,,,,,,,,,,,,
264983,1560687896980,-1,2.32,2.41,3.13,2.43,2.39,0.51,-0.08,0.97,4,-15,11,0.52,11770,100,89,34,85,803,659.0,658,457,60,123.0,401,1,440,587,265,0,0,664,-3488,1549,659,,,,,,,,,,,,
265003,1560687896994,0,2.32,2.4,3.16,2.42,2.45,0.58,-0.1,0.93,4,-16,11,0.59,11439,100,89,34,86,802,660.0,653,458,60,122.0,401,1,441,601,265,0,0,658,-2830,-10348,660,,,,,,,,,,,,
265023,1560687897014,-0,2.32,2.32,3.23,2.38,2.49,0.65,-0.23,0.87,4,-15,9,0.69,11234,100,89,34,86,801,661.0,646,458,60,123.0,401,1,443,601,265,0,0,649,-2830,8958,661,,,,,,,,,,,,
265043,1560687897034,-1,2.32,2.23,3.36,2.34,2.55,0.71,-0.25,0.93,5,-16,9,0.75,11094,100,89,34,87,800,663.0,652,460,60,123.0,401,1,446,620,265,0,0,651,-2830,1549,663,45.701218,4.911888,63.78,200.1,2,1.8767,0,0.0,0.5933,3,0.47,4.4174
265063,1560687897054,3,2.32,2.22,3.43,2.31,2.59,0.61,-0.26,0.92,3,-15,13,0.67,10587,100,89,34,88,877,664.0,632,454,60,120.0,401,1,436,1153,265,0,0,695,-2830,-3584,665,,,,,,,,,,,,
265083,1560687897074,6,2.31,2.24,3.37,2.33,2.56,0.71,-0.28,1.03,4,-10,13,0.76,9740,100,89,34,89,982,670.0,621,446,60,120.0,579,1,409,1041,388,0,0,797,-10344,-10212,670,,,,,,,,,,,,
265103,1560687897092,5,2.31,2.29,3.26,2.33,2.51,0.69,-0.11,1.02,4,-10,14,0.7,9791,100,89,34,87,1086,675.0,614,452,60,120.0,579,1,406,887,388,0,0,704,-10348,-13072,675,,,,,,,,,,,,
265123,1560687897112,2,2.3,2.31,3.19,2.34,2.4,0.63,-0.28,1.1,4,-12,11,0.69,10069,100,89,34,86,1192,674.0,621,452,60,121.0,579,1,400,767,388,0,0,689,-388,19188,674,,,,,,,,,,,,
265143,1560687897132,4,2.31,2.31,3.13,2.35,2.29,0.75,-0.32,1.15,5,-10,10,0.81,9968,100,89,34,86,1301,684.0,626,452,60,121.0,579,1,398,646,388,0,0,733,8958,-2560,684,45.701202,4.911877,65.42,200.1,2,1.8767,0,0.0,0.595,3,0.47,4.4191
265163,1560687897152,3,2.3,2.31,3.09,2.38,2.24,0.69,-0.25,1.08,5,-7,12,0.73,9699,100,89,34,85,1414,687.0,616,456,60,120.0,579,1,409,594,388,0,0,740,-2345,-2314,687,,,,,,,,,,,,
265183,1560687897172,6,2.3,2.32,3.08,2.38,2.25,0.69,-0.34,1.17,5,-7,10,0.77,9684,100,89,34,86,1476,690.0,610,455,60,121.0,313,1,410,579,217,0,0,702,3543,-3344,690,,,,,,,,,,,,
265203,1560687897200,2,2.3,2.32,3.11,2.37,2.27,0.63,-0.37,1.13,5,-8,9,0.74,9715,100,89,34,85,1481,694.0,623,459,60,121.0,313,1,409,593,217,0,0,715,24,-3344,694,,,,,,,,,,,,
265223,1560687897220,4,2.3,2.31,3.15,2.36,2.34,0.57,-0.35,1.16,6,-7,10,0.67,9791,100,89,34,85,1441,699.0,613,456,60,120.0,313,1,405,580,217,0,0,732,14342,-31068,698,,,,,,,,,,,,
265243,1560687897240,1,2.31,2.32,3.17,2.37,2.36,0.53,-0.32,1.17,6,-7,11,0.62,9899,100,89,34,85,1351,703.0,623,451,60,120.0,313,1,401,581,217,0,0,729,-2830,-31066,703,45.701191,4.911866,66.09,200.1,2,1.8767,0,0.0,0.5967,3,0.47,4.4207
265263,1560687897260,5,2.3,2.32,3.17,2.36,2.37,0.55,-0.39,1.25,6,-6,8,0.67,9984,100,89,34,85,1258,708.0,629,455,60,121.0,313,1,396,582,217,0,0,725,15647,6790,709,,,,,,,,,,,,
265283,1560687897280,3,2.3,2.31,3.14,2.36,2.37,0.49,-0.23,1.08,6,-4,9,0.54,10091,100,89,34,85,1162,713.0,632,455,60,121.0,311,1,402,582,222,0,0,735,-12152,-2830,713,,,,,,,,,,,,
265303,1560687897300,4,2.3,2.33,3.14,2.37,2.37,0.47,-0.26,1.15,6,-4,10,0.53,10069,100,89,34,85,1072,717.0,621,455,60,120.0,311,1,400,582,222,0,0,746,204,-3344,718,,,,,,,,,,,,
265323,1560687897320,1,2.3,2.33,3.13,2.36,2.35,0.51,-0.39,1.18,6,-2,8,0.64,10096,100,89,34,85,992,720.0,627,458,60,121.0,311,1,404,582,222,0,0,745,204,-2830,720,,,,,,,,,,,,
265343,1560687897340,5,2.31,2.34,3.13,2.37,2.33,0.42,-0.37,1.26,6,-4,8,0.56,10173,100,89,34,85,935,723.0,626,452,60,121.0,311,1,407,582,222,0,0,750,31988,-4096,725,45.701176,4.911854,68.31,200.1,2,1.8767,0,0.0,0.5983,3,0.47,4.4224
265363,1560687897360,6,2.3,2.37,3.14,2.37,2.34,0.39,-0.26,1.17,6,-3,7,0.47,10184,100,89,34,85,951,727.0,623,450,60,121.0,311,1,408,582,222,0,0,754,-25858,-2574,727,,,,,,,,,,,,
265383,1560687897380,3,2.3,2.38,3.14,2.36,2.36,0.39,-0.26,1.15,5,-3,7,0.47,10257,100,89,34,85,968,731.0,628,457,60,121.0,310,1,413,582,226,0,0,761,-2314,-3344,732,,,,,,,,,,,,
265403,1560687897400,4,2.29,2.38,3.15,2.34,2.39,0.42,-0.28,1.1,5,-5,8,0.5,10347,100,89,34,85,985,733.0,625,456,60,121.0,310,1,420,582,226,0,0,757,-31066,13016,734,,,,,,,,,,,,
265423,1560687897420,3,2.29,2.37,3.16,2.32,2.4,0.44,-0.27,1.06,5,-4,6,0.52,10422,100,89,34,85,999,740.0,631,455,60,121.0,310,1,430,582,226,0,0,766,-2356,-23308,740,,,,,,,,,,,,
265443,1560687897440,5,2.3,2.34,3.2,2.31,2.41,0.49,-0.26,1.02,4,-4,6,0.55,10498,100,89,34,85,1000,746.0,631,450,60,120.0,310,1,430,582,226,0,0,791,-2314,-31068,746,45.70116,4.911842,71.33,200.1,2,1.8767,0,0.0,0.6,3,0.47,4.424
265463,1560687897460,5,2.29,2.34,3.17,2.3,2.41,0.51,-0.28,0.99,4,-2,6,0.58,10617,100,89,34,85,1000,750.0,637,456,60,120.0,310,1,434,582,226,0,0,769,-4096,-2830,754,,,,,,,,,,,,
265483,1560687897480,5,2.29,2.34,3.07,2.33,2.4,0.52,-0.24,0.97,4,-3,6,0.58,10629,92,89,34,85,998,754.0,635,453,60,120.0,310,1,434,582,234,0,0,773,136,-10216,756,,,,,,,,,,,,
265503,1560687897500,4,2.3,2.39,2.99,2.34,2.35,0.54,-0.16,0.98,4,-4,6,0.56,10677,72,89,34,81,995,756.0,635,455,60,121.0,310,1,434,529,234,0,0,775,-22795,-22795,756,,,,,,,,,,,,
265523,1560687897520,5,2.3,2.39,3.0,2.32,2.32,0.61,-0.22,0.99,4,-6,6,0.65,10521,51,89,34,73,992,760.0,640,451,60,121.0,310,1,436,476,234,0,0,783,-2574,-2426,760,,,,,,,,,,,,
265543,1560687897540,3,2.3,2.36,3.06,2.31,2.33,0.62,-0.33,1.09,4,-3,6,0.7,10416,29,89,34,61,989,766.0,636,457,60,121.0,310,1,443,393,234,0,0,785,6389,-22795,766,45.701141,4.911829,72.66,200.1,2,1.8767,0,0.0,0.6017,3,0.47,4.4257
265563,1560687897560,4,2.3,2.36,3.15,2.32,2.37,0.65,-0.28,1.06,4,-3,6,0.71,10037,16,89,34,52,983,766.0,631,455,60,121.0,310,1,394,299,234,0,0,783,-2766,-2826,763,,,,,,,,,,,,
265583,1560687897580,6,2.3,2.35,3.21,2.29,2.53,0.79,-0.3,1.07,4,-6,5,0.84,9715,12,89,34,44,977,765.0,626,460,60,122.0,115,1,357,232,88,0,0,764,-2826,6389,768,,,,,,,,,,,,
265603,1560687897600,1,2.29,2.32,3.32,2.25,2.63,0.78,-0.39,1.08,4,-7,3,0.87,9522,11,89,34,39,974,765.0,625,455,60,122.0,115,1,320,218,88,0,0,757,-10216,-31066,766,,,,,,,,,,,,
265623,1560687897620,2,2.29,2.26,3.4,2.2,2.66,0.63,-0.27,1.02,4,-8,3,0.68,9328,10,89,34,36,972,765.0,624,452,60,122.0,115,1,311,205,88,0,0,754,13016,6389,769,,,,,,,,,,,,
265643,1560687897640,2,2.3,2.22,3.48,2.18,2.79,0.66,-0.25,0.86,4,-7,3,0.71,9209,10,89,34,33,942,764.0,625,455,60,121.0,115,1,302,195,88,0,0,746,-10216,-23308,764,45.701126,4.911815,75.28,200.1,2,1.8767,0,0.0,0.6033,3,0.48,4.4274
265663,1560687897660,4,2.29,2.21,3.47,2.17,2.81,0.8,-0.39,0.9,4,-6,2,0.89,9191,10,89,34,31,913,765.0,627,461,60,122.0,115,1,295,190,88,0,0,740,6389,-4096,765,,,,,,,,,,,,
265683,1560687897680,3,2.29,2.22,3.45,2.17,2.82,0.91,-0.38,0.92,3,-6,0,0.99,9241,10,89,34,29,886,762.0,622,456,60,122.0,86,1,287,190,66,0,0,738,-3038,-2356,760,,,,,,,,,,,,
265703,1560687897699,4,2.29,2.21,3.41,2.18,2.81,0.91,-0.42,0.83,3,-7,0,1.0,9291,10,89,33,28,860,757.0,622,455,60,122.0,86,1,282,190,66,0,0,736,-3450,-31066,757,,,,,,,,,,,,
265723,1560687897719,1,2.28,2.19,3.39,2.17,2.79,0.81,-0.34,0.74,3,-4,2,0.87,9300,10,89,33,27,853,756.0,625,454,60,121.0,86,1,278,189,66,0,0,741,-23308,3462,756,,,,,,,,,,,,
265743,1560687897739,1,2.28,2.08,3.34,2.09,2.78,0.81,-0.22,0.72,3,-6,4,0.83,9323,10,89,33,26,847,758.0,616,462,60,121.0,86,1,274,188,66,0,0,736,-2830,-2314,757,45.701111,4.911801,75.66,200.1,2,1.8767,0,0.0,0.605,3,0.48,4.429
265763,1560687897759,5,2.27,1.89,3.37,1.88,2.84,0.89,-0.25,0.77,2,-6,5,0.93,9379,10,89,33,25,862,757.0,624,461,60,122.0,86,1,270,188,66,0,0,724,-3450,-2358,758,,,,,,,,,,,,
265783,1560687897779,5,2.26,1.87,3.42,1.83,2.87,1.0,-0.39,0.77,2,-3,4,1.08,9417,10,89,33,25,882,756.0,622,458,60,122.0,88,1,270,188,67,0,0,719,-3344,1524,755,,,,,,,,,,,,
265803,1560687897799,2,2.26,1.84,3.4,1.74,2.79,0.93,-0.31,0.68,3,-2,4,0.98,9488,10,89,33,24,896,753.0,621,457,60,121.0,88,1,270,181,67,0,0,732,-2830,-25858,753,,,,,,,,,,,,
265823,1560687897819,5,2.27,1.85,3.31,1.75,2.64,0.84,-0.25,0.6,3,1,4,0.87,9527,10,89,33,24,908,749.0,626,452,60,122.0,88,1,270,181,67,0,0,741,136,-2356,747,,,,,,,,,,,,
265843,1560687897839,7,2.27,1.91,3.22,1.77,2.51,0.95,-0.31,0.58,2,2,2,1.0,9551,10,89,33,23,904,743.0,632,455,60,122.0,88,1,270,177,67,0,0,731,-2314,-13068,742,45.701096,4.911787,75.07,200.0,2,1.8767,0,0.0,0.6067,3,0.48,4.4307
265863,1560687897859,9,2.26,1.94,3.21,1.77,2.5,0.86,-0.28,0.48,2,1,3,0.9,9566,10,89,33,23,895,734.0,629,450,60,121.0,88,1,270,177,67,0,0,722,-31066,-3344,732,,,,,,,,,,,,
265883,1560687897879,17,2.26,1.94,3.19,1.78,2.58,0.98,-0.23,0.39,1,-3,2,1.0,9595,10,89,33,23,878,726.0,639,458,60,122.0,87,1,270,177,64,0,0,710,-2918,-23490,723,,,,,,,,,,,,
265903,1560687897899,17,2.27,1.93,3.33,1.76,2.74,1.07,-0.28,0.52,1,-6,2,1.1,9640,10,89,33,23,858,721.0,633,460,60,121.0,87,1,270,178,64,0,0,698,31988,19188,718,,,,,,,,,,,,
265923,1560687897919,20,2.28,1.89,3.54,1.73,2.98,0.9,-0.16,0.37,1,-5,1,0.92,9537,9,89,33,22,844,718.0,634,457,60,122.0,87,1,270,171,64,0,0,673,16118,-10344,718,,,,,,,,,,,,
265943,1560687897939,23,2.27,1.87,3.66,1.74,3.14,1.02,-0.3,0.43,0,-8,0,1.06,9337,9,89,33,22,834,718.0,624,463,60,122.0,87,1,270,170,64,0,0,643,-2560,-3578,711,45.70108,4.911773,73.8,200.1,2,1.8767,0,0.0,0.6083,3,0.48,4.4324
265963,1560687897959,22,2.29,1.9,3.68,1.76,3.18,1.07,-0.43,0.5,0,-5,-0,1.15,9132,9,89,33,22,823,711.0,618,460,60,122.0,87,1,270,170,64,0,0,592,-12152,-10344,709,,,,,,,,,,,,
265983,1560687897979,22,2.29,1.94,3.69,1.79,3.19,1.12,-0.5,0.48,0,-3,-1,1.23,8920,9,89,33,21,812,707.0,620,459,60,122.0,77,1,270,164,55,0,0,555,-20693,-5120,709,,,,,,,,,,,,
266003,1560687897991,18,2.29,1.98,3.65,1.82,3.14,1.2,-0.53,0.4,0,-2,-1,1.31,8660,9,89,33,21,805,702.0,612,461,60,122.0,77,1,270,164,55,0,0,545,24,-18357,702,,,,,,,,,,,,
266023,1560687898011,19,2.28,1.97,3.59,1.83,3.01,1.14,-0.43,0.33,1,-1,0,1.22,8209,9,89,33,21,803,700.0,601,458,60,120.0,77,1,270,156,55,0,0,647,-10448,24845,700,,,,,,,,,,,,
266043,1560687898031,19,2.28,1.95,3.49,1.83,2.95,1.19,-0.45,0.29,0,2,-1,1.27,7985,9,89,33,22,805,694.0,598,457,60,123.0,77,1,269,151,55,0,0,673,24,16599,696,45.701065,4.911759,72.79,200.1,2,1.8767,0,0.0,0.61,3,0.49,4.4341
266063,1560687898051,17,2.28,1.93,3.43,1.78,2.93,1.27,-0.3,0.28,0,-1,1,1.31,7825,9,89,33,22,809,691.0,582,462,60,123.0,77,1,268,151,55,0,0,679,24,-2345,691,,,,,,,,,,,,
266083,1560687898071,22,2.27,1.86,3.42,1.72,2.94,1.28,-0.22,0.24,0,0,1,1.3,7719,9,89,33,22,815,685.0,574,458,60,123.0,64,1,267,151,44,0,0,636,16118,-3446,685,,,,,,,,,,,,
266103,1560687898097,24,2.27,1.77,3.42,1.63,2.96,1.26,-0.23,0.25,1,-1,3,1.28,7812,9,89,33,23,821,681.0,578,461,60,122.0,64,1,268,154,44,0,0,625,-10344,-3446,681,,,,,,,,,,,,
266123,1560687898117,22,2.28,1.71,3.48,1.61,2.94,1.18,-0.25,0.27,1,-1,2,1.21,7881,9,89,33,22,828,673.0,576,463,60,122.0,64,1,268,154,44,0,0,549,-388,-768,673,,,,,,,,,,,,
266143,1560687898137,23,2.29,1.68,3.48,1.59,2.97,1.24,-0.31,0.32,1,-1,2,1.28,7757,9,89,33,23,836,669.0,575,460,60,122.0,64,1,267,225,44,0,0,535,-2826,8488,669,45.70105,4.911746,70.52,200.1,2,1.8767,0,0.0,0.6117,3,0.49,4.4357
266163,1560687898157,24,2.27,1.74,3.48,1.62,2.94,1.21,-0.25,0.19,1,-2,2,1.24,7700,9,89,33,23,841,655.0,567,460,60,120.0,64,1,267,211,44,0,0,532,-3488,-30139,654,,,,,,,,,,,,
266183,1560687898177,22,2.27,1.73,3.48,1.63,2.93,1.23,-0.19,0.21,1,-3,1,1.25,7530,9,89,33,23,842,654.0,560,461,60,121.0,86,1,265,196,57,0,0,544,244,3,654,,,,,,,,,,,,
266203,1560687898199,20,2.28,1.71,3.51,1.64,2.9,1.24,0.03,0.05,0,-6,3,1.24,7378,9,89,33,22,845,649.0,556,459,60,121.0,86,1,263,177,57,0,0,556,244,16599,649,,,,,,,,,,,,
266223,1560687898219,19,2.27,1.7,3.57,1.65,2.9,1.32,0.02,0.07,-2,-2,2,1.32,7236,9,89,33,22,855,643.0,540,464,60,121.0,86,1,262,163,57,0,0,464,-2836,30208,643,,,,,,,,,,,,
266243,1560687898239,16,2.27,1.71,3.6,1.64,3.01,1.16,-0.11,0.13,-1,-5,2,1.16,7416,8,89,33,22,865,636.0,537,458,60,122.0,86,1,264,154,57,0,0,394,966,-16384,636,45.701035,4.911732,67.24,200.1,2,1.8767,0,0.0,0.6133,3,0.49,4.4374
266263,1560687898259,24,2.26,1.71,3.6,1.61,3.13,1.24,-0.09,0.13,-1,-2,-1,1.25,7264,9,89,33,22,873,636.0,545,460,60,122.0,86,1,262,151,57,0,0,363,771,-4082,636,,,,,,,,,,,,
266283,1560687898279,21,2.26,1.71,3.59,1.61,3.09,1.15,-0.14,0.03,1,-2,-0,1.16,7129,8,89,33,22,873,631.0,539,463,60,120.0,64,1,261,151,41,0,0,326,20993,-8151,631,,,,,,,,,,,,
266303,1560687898299,18,2.26,1.7,3.56,1.6,2.99,1.03,-0.12,-0.06,1,-2,3,1.03,7001,8,89,33,23,844,628.0,533,462,60,122.0,64,1,260,154,41,0,0,306,17336,-7939,623,,,,,,,,,,,,
266323,1560687898319,22,2.26,1.7,3.53,1.59,2.96,1.1,-0.13,-0.03,0,2,2,1.11,6823,8,89,33,23,816,621.0,524,455,60,122.0,64,1,261,153,41,0,0,291,30721,12552,619,,,,,,,,,,,,
266343,1560687898339,18,2.25,1.72,3.5,1.6,2.89,1.19,-0.22,-0.12,2,3,1,1.21,6715,8,89,33,23,777,611.0,516,457,60,122.0,64,1,261,153,41,0,0,284,1010,-4054,611,45.701023,4.911719,64.84,200.2,2,1.8767,0,0.0,0.615,3,0.49,4.4391
266363,1560687898359,19,2.25,1.7,3.47,1.59,2.85,1.21,-0.25,-0.12,1,-2,0,1.24,6686,8,89,33,24,740,606.0,505,461,60,121.0,64,1,263,155,41,0,0,273,-768,-2336,602,,,,,,,,,,,,
266383,1560687898379,13,2.24,1.7,3.48,1.58,2.87,1.18,-0.23,-0.13,1,-2,-0,1.2,6781,8,89,33,24,708,601.0,505,456,60,122.0,65,1,262,156,39,0,0,239,30227,-3414,599,,,,,,,,,,,,
266403,1560687898399,14,2.25,1.68,3.43,1.55,2.87,1.21,-0.16,-0.09,-1,-2,-1,1.22,6751,8,89,33,24,675,597.0,511,457,60,121.0,65,1,262,156,39,0,0,212,23619,-9072,594,,,,,,,,,,,,
266423,1560687898419,13,2.26,1.68,3.38,1.54,2.9,1.19,-0.2,-0.13,-0,2,-1,1.21,6788,8,89,33,24,681,593.0,514,460,60,122.0,65,1,262,156,39,0,0,230,6273,3,581,,,,,,,,,,,,
266443,1560687898439,19,2.26,1.69,3.39,1.57,2.92,1.21,-0.07,-0.15,-1,2,-2,1.22,6825,8,89,33,24,688,585.0,512,455,60,121.0,65,1,261,156,39,0,0,238,-25872,2131,577,45.701008,4.911707,61.88,200.2,2,1.8767,0,0.0,0.6167,3,0.49,4.4407
266463,1560687898459,14,2.26,1.69,3.41,1.58,2.9,1.21,-0.1,-0.07,-2,1,-1,1.21,6761,8,88,33,24,715,578.0,510,458,60,122.0,65,1,262,156,39,0,0,252,-3210,16648,569,,,,,,,,,,,,
266483,1560687898479,18,2.26,1.69,3.42,1.57,2.96,1.17,-0.02,-0.12,-3,1,-1,1.17,6684,8,88,33,24,743,573.0,507,456,60,121.0,68,1,263,155,39,0,0,247,1760,-10483,565,,,,,,,,,,,,
266503,1560687898501,17,2.26,1.69,3.42,1.55,2.98,1.25,-0.05,-0.13,-3,0,-1,1.25,6689,8,89,33,25,765,569.0,503,457,60,122.0,68,1,264,159,39,0,0,239,1780,-18108,559,,,,,,,,,,,,
266523,1560687898521,17,2.28,1.69,3.42,1.53,3.0,1.25,-0.05,-0.1,-4,-3,-4,1.26,6620,8,89,33,25,786,564.0,504,462,60,121.0,68,1,264,159,39,0,0,243,12552,10305,557,,,,,,,,,,,,
266543,1560687898541,13,2.28,1.7,3.43,1.54,2.98,1.23,-0.05,-0.17,-4,-1,-6,1.23,6512,8,89,33,25,817,560.0,493,452,60,123.0,68,1,265,159,39,0,0,248,-28648,-1923,549,45.700996,4.911696,60.04,200.1,2,1.8767,0,0.0,0.6183,3,0.49,4.4424
266563,1560687898561,14,2.28,1.7,3.42,1.54,2.96,1.25,-0.08,-0.16,-5,0,-7,1.25,6454,8,89,33,25,847,556.0,490,455,60,122.0,68,1,266,159,39,0,0,244,-22263,-17956,542,,,,,,,,,,,,
266583,1560687898581,16,2.28,1.7,3.42,1.52,2.96,1.32,-0.1,-0.15,-6,-0,-6,1.33,6463,8,89,33,25,860,550.0,490,455,60,121.0,72,1,266,159,39,0,0,230,-32248,8488,539,,,,,,,,,,,,
266603,1560687898599,17,2.27,1.71,3.41,1.48,2.95,1.32,-0.04,-0.14,-7,1,-6,1.32,6441,8,89,33,26,870,547.0,494,454,60,123.0,72,1,269,160,39,0,0,247,-22519,-7939,530,,,,,,,,,,,,
266623,1560687898619,12,2.28,1.72,3.38,1.47,2.94,1.24,-0.09,-0.16,-6,5,-5,1.25,6408,8,89,33,26,882,539.0,487,455,60,122.0,72,1,269,160,39,0,0,287,1780,-768,526,,,,,,,,,,,,
266643,1560687898639,14,2.3,1.75,3.37,1.49,2.94,1.28,-0.08,-0.05,-7,4,-7,1.28,6505,8,89,33,26,894,532.0,488,455,60,122.0,72,1,268,160,39,0,0,304,14504,6384,515,45.700985,4.911684,57.12,200.1,2,1.8767,0,0.0,0.62,3,0.5,4.444
266663,1560687898659,17,2.3,1.77,3.4,1.48,2.95,1.26,0.03,-0.03,-8,1,-9,1.26,6558,8,89,33,26,900,530.0,492,451,60,123.0,72,1,268,160,39,0,0,308,2524,-14714,512,,,,,,,,,,,,
266683,1560687898679,13,2.32,1.77,3.4,1.48,2.96,1.25,0.01,-0.01,-8,0,-10,1.25,6524,8,89,33,26,904,522.0,495,456,60,122.0,76,1,268,160,39,0,0,355,2524,-32559,507,,,,,,,,,,,,
266703,1560687898698,17,2.33,1.76,3.4,1.48,2.97,1.23,0.03,0.02,-8,-1,-10,1.23,6447,8,89,33,26,907,516.0,493,452,60,121.0,76,1,269,160,39,0,0,377,16383,-29302,499,,,,,,,,,,,,
266723,1560687898718,20,2.35,1.76,3.4,1.48,2.98,1.26,0.1,0.01,-8,-1,-11,1.27,6510,8,89,33,26,910,510.0,493,447,60,123.0,76,1,268,160,39,0,0,341,-4054,3183,496,,,,,,,,,,,,
266743,1560687898738,15,2.36,1.76,3.4,1.48,3.0,1.27,0.05,-0.05,-8,-2,-12,1.27,6528,8,89,33,27,911,501.0,496,455,60,122.0,76,1,272,160,39,0,0,316,11560,175,491,45.700974,4.911673,54.41,200.1,2,1.8767,0,0.0,0.6217,3,0.5,4.4457
266763,1560687898758,19,2.37,1.74,3.43,1.49,3.01,1.27,-0.01,0.01,-8,-4,-13,1.27,6425,8,88,33,26,911,498.0,495,462,60,122.0,76,1,269,160,39,0,0,326,2524,4838,486,,,,,,,,,,,,
266783,1560687898778,19,2.39,1.73,3.43,1.5,3.02,1.29,-0.06,0.08,-7,-5,-14,1.29,6315,8,88,33,27,911,490.0,487,454,60,123.0,78,1,273,161,38,0,0,347,-1818,-6644,485,,,,,,,,,,,,
266803,1560687898798,20,2.39,1.75,3.43,1.52,3.01,1.27,-0.04,0.03,-6,-5,-13,1.27,6241,8,88,33,27,910,483.0,477,455,60,123.0,78,1,274,161,38,0,0,368,10305,-6458,478,,,,,,,,,,,,
266823,1560687898818,14,2.4,1.75,3.43,1.54,3.02,1.2,0.02,-0.09,-5,-3,-11,1.2,6264,8,88,33,27,909,473.0,473,453,60,123.0,78,1,274,161,38,0,0,330,32033,-29696,473,,,,,,,,,,,,
