"Interval"|"ms"|0|0|1,"Utc"|"ms"|0|0|1,"FB_p"|"bar"|0|300|50,"Volant"|"F"|0.0|300.0|50,"xFR"|"mm"|0.0|5.0|50,"xRR"|"mm"|0.0|5.0|50,"xFL"|"mm"|0.0|5.0|50,"xRL"|"mm"|0.0|5.0|50,"AccelX"|"G"|-3.0|3.0|50,"AccelY"|"G"|-3.0|3.0|50,"AccelZ"|"G"|-3.0|3.0|50,"Yaw"|"Deg/Sec"|-120|120|50,"Pitch"|"Deg/Sec"|-120|120|50,"Roll"|"Deg/Sec"|-120|120|50,"Gsum"|"G"|0.0|3.0|50,"RPM"|""|0|14000|50,"TPS"|"%"|0|100|50,"WaterTemp"|"?C"|0|300|50,"AirTemp"|"?C"|-1000|1000|50,"MAP"|"KPa"|0|255|50,"Lambda"|""|0|1024|50,"WheelSpeed"|"MPH"|0.0|150.0|50,"OilPress"|"PSI"|0|150|50,"FuelPress"|"PSI"|0|150|50,"OilTemp"|"F"|0|300|50,"Battery"|"Volts"|0.0|20.0|50,"FuelCon"|"L/h"|-1000|1000|50,"Gear"|""|0|10|50,"Advance"|"Deg"|-360|360|50,"Injection"|"ms"|-1000|1000|50,"FuelCon"|"L/100km"|-1000|1000|50,"LC_But_Pres"|""|-1000|1000|50,"LC_Active"|""|-1000|1000|50,"RD_Speed"|""|-1000|1000|50,"RUD_Speed"|""|-1000|1000|50,"LD_Speed"|""|-1000|1000|50,"LUD_Speed"|""|-1000|1000|50,"Latitude"|"Degrees"|-180.0|180.0|10,"Longitude"|"Degrees"|-180.0|180.0|10,"Speed"|"kph"|0.0|150.0|10,"Altitude"|"m"|0.0|4000.0|10,"LapCount"|""|0|0|10,"LapTime"|"Min"|0.0|0.0|10,"Sector"|""|0|0|10,"SectorTime"|"Min"|0.0|0.0|10,"ElapsedTime"|"Min"|0.0|0.0|10,"CurrentLap"|""|0|0|10,"Distance"|"km"|0.0|0.0|10,"SessionTime"|"Min"|0.0|0.0|10
593263,1560688225268,44,2.25,1.7,3.56,1.48,3.0,1.28,-0.12,0.12,-7,-9,2,1.29,6032,9,86,31,28,836,563.0,433,452,60,118.0,63,1,278,161,37,0,0,190,-32504,240,547,,,,,,,,,,,,
593283,1560688225288,42,2.27,1.67,3.63,1.43,3.09,1.29,-0.16,0.15,-7,-8,1,1.3,5894,8,86,31,28,857,554.0,428,447,60,119.0,63,1,276,162,37,0,0,143,2524,-30976,541,,,,,,,,,,,,
593303,1560688225308,47,2.27,1.68,3.62,1.42,3.09,1.36,-0.17,0.23,-10,-11,1,1.37,5598,8,86,31,29,883,553.0,425,433,60,119.0,65,1,274,161,35,0,0,71,-9072,-1,536,,,,,,,,,,,,
593323,1560688225328,43,2.3,1.77,3.53,1.45,3.06,1.23,-0.12,0.08,-10,-5,1,1.24,4886,8,86,31,31,917,541.0,400,433,60,118.0,65,1,260,158,35,0,0,413,-2336,-1529,515,,,,,,,,,,,,
593343,1560688225348,41,2.3,1.83,3.46,1.45,3.06,1.31,-0.17,0.08,-10,-5,-1,1.32,4496,8,86,31,33,945,515.0,369,430,60,118.0,65,1,239,162,35,0,0,504,-14,2414,481,45.702053,4.910929,58.64,199.1,6,1.6483,0,0.0,0.405,7,0.33,9.889
593363,1560688225368,39,2.32,1.78,3.44,1.39,3.07,1.2,-0.07,-0.08,-8,-0,-1,1.2,4371,8,86,31,34,957,523.0,350,461,60,119.0,65,1,237,165,35,0,0,478,-22519,12800,481,,,,,,,,,,,,
593383,1560688225388,42,2.33,1.73,3.5,1.36,3.08,1.19,-0.13,-0.13,-8,0,-3,1.2,4419,8,86,31,36,968,515.0,330,459,60,119.0,65,1,252,169,35,0,0,338,-14,12800,506,,,,,,,,,,,,
593403,1560688225408,41,2.35,1.67,3.6,1.37,3.08,1.27,-0.13,-0.1,-8,-1,-3,1.28,4405,8,86,31,37,979,508.0,318,453,60,119.0,58,1,258,176,29,0,0,271,-3414,250,499,,,,,,,,,,,,
593423,1560688225428,40,2.36,1.66,3.61,1.39,3.07,1.29,-0.17,-0.17,-9,1,-4,1.3,4281,8,86,31,38,987,501.0,312,446,60,119.0,58,1,257,172,29,0,0,226,11560,250,495,,,,,,,,,,,,
593443,1560688225448,42,2.37,1.68,3.57,1.43,3.05,1.31,-0.1,-0.21,-9,3,-4,1.31,3587,8,86,31,38,986,493.0,307,441,60,117.0,58,1,229,167,29,0,0,178,-32768,-1,484,45.702042,4.910943,55.85,199.1,6,1.6483,0,0.0,0.4067,7,0.33,9.8907
593463,1560688225468,44,2.38,1.69,3.49,1.43,2.98,1.3,-0.1,-0.31,-8,7,-4,1.3,3172,8,86,31,40,985,474.0,287,448,60,118.0,58,1,180,170,29,0,0,242,30272,6384,462,,,,,,,,,,,,
593483,1560688225488,38,2.4,1.65,3.46,1.42,2.97,1.37,-0.04,-0.38,-6,6,-4,1.37,3094,8,86,31,42,985,459.0,277,451,60,118.0,58,1,166,172,29,0,0,235,17628,8841,459,,,,,,,,,,,,
593503,1560688225510,39,2.4,1.56,3.55,1.37,3.0,1.41,-0.13,-0.25,-6,4,-3,1.42,3132,8,86,31,44,985,467.0,265,446,60,119.0,42,1,173,174,20,0,0,196,16408,105,464,,,,,,,,,,,,
593523,1560688225530,39,2.41,1.5,3.62,1.37,3.03,1.41,-0.16,-0.25,-5,1,-2,1.42,3241,8,86,31,46,986,461.0,260,451,60,119.0,42,1,193,179,20,0,0,119,17628,-2560,461,,,,,,,,,,,,
593543,1560688225550,41,2.4,1.51,3.62,1.4,3.02,1.47,-0.29,-0.03,-5,-9,0,1.5,3108,8,86,31,48,987,456.0,253,455,60,118.0,42,1,169,180,20,0,0,119,-6387,250,454,45.702034,4.910957,52.32,199.0,6,1.6483,0,0.0,0.4083,7,0.33,9.8924
593563,1560688225570,40,2.4,1.55,3.59,1.43,3.0,1.53,-0.23,-0.08,-4,-8,1,1.54,2782,8,86,31,50,986,448.0,246,457,60,119.0,42,1,115,180,20,0,0,119,-18341,250,448,,,,,,,,,,,,
593583,1560688225590,40,2.38,1.62,3.51,1.44,2.97,1.54,-0.21,-0.14,-4,-9,1,1.56,2376,8,86,31,53,985,434.0,232,453,60,117.0,42,1,68,192,20,0,0,244,-3314,14412,429,,,,,,,,,,,,
593603,1560688225610,40,2.35,1.62,3.5,1.41,2.96,1.42,0.0,-0.2,-2,-9,2,1.42,1937,8,86,31,55,981,423.0,220,447,60,118.0,32,1,62,194,14,0,0,267,-4059,250,423,,,,,,,,,,,,
593623,1560688225630,33,2.32,1.58,3.52,1.37,3.01,1.38,-0.02,-0.17,-3,-11,3,1.38,1921,8,86,31,58,976,423.0,211,459,60,119.0,32,1,64,203,14,0,0,188,18584,-1,423,,,,,,,,,,,,
593643,1560688225650,29,2.31,1.57,3.52,1.3,3.07,1.37,-0.05,-0.09,-3,-7,3,1.37,1980,8,86,31,61,940,416.0,200,433,60,119.0,32,1,68,212,14,0,0,188,2524,-1,416,45.702023,4.91097,48.55,199.1,6,1.6483,0,0.0,0.41,7,0.34,9.894
593663,1560688225670,33,2.29,1.59,3.53,1.28,3.09,1.22,0.01,-0.12,-2,-0,1,1.22,1954,8,86,31,62,903,414.0,201,426,60,117.0,32,1,68,212,14,0,0,188,2524,-1,409,,,,,,,,,,,,
593683,1560688225690,31,2.3,1.68,3.48,1.29,3.06,1.3,0.08,-0.0,-3,-3,-1,1.3,1805,8,86,31,64,868,411.0,195,443,60,119.0,32,1,67,212,14,0,0,188,-4059,-1,400,,,,,,,,,,,,
593703,1560688225710,30,2.29,1.76,3.38,1.31,2.98,1.26,0.11,-0.07,-3,-1,-4,1.26,1410,8,86,31,67,834,406.0,186,448,60,118.0,35,1,58,206,14,0,0,35,-8151,-1,384,,,,,,,,,,,,
593723,1560688225730,30,2.29,1.76,3.34,1.29,2.92,1.33,-0.02,-0.04,-4,0,-8,1.33,1410,8,86,31,72,793,397.0,176,447,60,118.0,35,1,59,212,14,0,0,157,1,-1,377,,,,,,,,,,,,
593743,1560688225750,26,2.29,1.73,3.37,1.28,2.93,1.23,-0.04,-0.09,-4,3,-11,1.23,1010,8,86,31,76,752,390.0,162,451,60,118.0,35,1,56,218,14,0,0,181,-3866,-1494,374,45.702015,4.910981,45.05,199.0,6,1.6483,0,0.0,0.4117,7,0.34,9.8957
593763,1560688225770,18,2.28,1.71,3.44,1.27,2.97,1.25,-0.03,-0.1,-4,2,-13,1.25,1010,8,86,32,78,739,385.0,165,442,60,115.0,35,1,57,226,14,0,0,181,-3866,-1494,368,,,,,,,,,,,,
593783,1560688225790,14,2.28,1.72,3.47,1.28,2.97,1.22,0.03,-0.12,-6,3,-14,1.22,874,8,86,32,83,732,385.0,158,428,60,118.0,35,1,60,170,14,0,0,181,-6475,250,364,,,,,,,,,,,,
593803,1560688225810,13,2.26,1.79,3.42,1.32,2.93,1.22,0.06,-0.14,-7,6,-16,1.22,913,9,86,32,83,724,382.0,157,432,60,118.0,22,1,60,170,8,0,0,181,19125,250,359,,,,,,,,,,,,
593823,1560688225830,10,2.25,1.87,3.33,1.34,2.89,1.2,0.09,-0.15,-8,4,-17,1.21,913,9,86,32,88,717,380.0,155,446,60,118.0,22,1,95,276,8,0,0,181,-992,-1,352,,,,,,,,,,,,
593843,1560688225850,7,2.23,1.92,3.25,1.34,2.86,1.23,0.11,-0.09,-10,4,-19,1.23,828,8,86,32,88,715,375.0,152,435,60,117.0,22,1,95,276,8,0,0,28,770,-1,346,45.702007,4.910992,41.19,199.0,6,1.6483,0,0.0,0.4133,7,0.34,9.8974
593863,1560688225870,5,2.2,1.93,3.2,1.33,2.85,1.3,0.11,0.06,-12,2,-21,1.31,828,8,86,32,91,715,374.0,151,416,60,118.0,22,1,118,293,8,0,0,28,742,13832,338,,,,,,,,,,,,
593883,1560688225890,2,2.19,1.93,3.17,1.31,2.87,1.32,0.14,0.05,-14,3,-23,1.33,828,9,86,32,92,718,368.0,148,405,60,118.0,22,1,127,222,8,0,0,59,0,3072,335,,,,,,,,,,,,
593903,1560688225910,-0,2.18,1.92,3.17,1.28,2.94,1.32,0.21,0.03,-17,1,-26,1.34,919,8,86,32,91,723,366.0,148,441,60,116.0,27,1,118,293,9,0,0,135,230,-1,326,,,,,,,,,,,,
593923,1560688225930,1,2.16,1.95,3.16,1.27,2.98,1.26,0.27,0.03,-19,2,-29,1.29,919,8,86,32,93,728,367.0,148,426,60,119.0,27,1,136,305,9,0,0,173,0,250,321,,,,,,,,,,,,
593943,1560688225950,6,2.16,1.98,3.17,1.26,2.99,1.27,0.32,-0.02,-21,4,-33,1.31,1059,8,86,32,93,732,368.0,148,412,60,119.0,27,1,142,307,9,0,0,135,0,250,313,45.702,4.911002,37.91,198.9,6,1.6483,0,0.0,0.415,7,0.34,9.899
593963,1560688225970,6,2.16,2.01,3.15,1.27,3.0,1.29,0.34,-0.05,-24,4,-35,1.33,1209,8,86,32,92,741,365.0,148,435,60,119.0,27,1,151,303,9,0,0,144,-6405,14242,308,,,,,,,,,,,,
593983,1560688225990,4,2.15,2.08,3.12,1.29,3.0,1.26,0.36,-0.01,-28,-1,-37,1.31,1297,8,86,32,91,751,362.0,151,417,60,116.0,27,1,156,296,9,0,0,120,2790,14242,299,,,,,,,,,,,,
594003,1560688226001,3,2.17,2.15,3.11,1.32,3.01,1.24,0.4,-0.0,-30,1,-38,1.3,1367,8,86,32,91,760,356.0,152,408,60,116.0,51,1,165,296,15,0,0,143,4104,250,291,,,,,,,,,,,,
594023,1560688226021,5,2.18,2.16,3.11,1.33,3.04,1.25,0.4,0.1,-33,0,-41,1.31,1500,8,86,32,90,765,354.0,152,436,60,116.0,51,1,180,287,15,0,0,141,3302,250,286,,,,,,,,,,,,
594043,1560688226041,9,2.21,2.16,3.12,1.35,3.07,1.28,0.44,0.16,-36,0,-45,1.35,1589,8,86,32,89,775,351.0,154,412,60,116.0,51,1,170,281,15,0,0,141,28553,250,276,45.701996,4.91101,34.86,198.9,6,1.6483,0,0.0,0.4167,7,0.34,9.9007
594063,1560688226061,9,2.23,2.16,3.13,1.37,3.06,1.23,0.48,0.16,-39,-1,-48,1.32,1631,8,86,32,89,786,348.0,154,416,60,118.0,51,1,172,281,15,0,0,88,-1246,250,269,,,,,,,,,,,,
594083,1560688226081,11,2.29,2.15,3.11,1.37,3.06,1.2,0.49,0.17,-42,0,-52,1.29,1557,8,86,32,89,794,347.0,152,425,60,119.0,51,1,170,281,15,0,0,110,8841,-1,264,,,,,,,,,,,,
594103,1560688226107,10,2.34,2.15,3.11,1.37,3.04,1.21,0.5,0.13,-44,1,-56,1.31,1519,8,86,32,89,799,343.0,153,417,60,119.0,61,1,168,281,16,0,0,154,-14714,-1,257,,,,,,,,,,,,
594123,1560688226127,3,2.4,2.11,3.11,1.36,3.02,1.19,0.45,0.12,-46,0,-59,1.27,1619,8,86,32,89,802,334.0,156,412,60,120.0,61,1,171,281,16,0,0,140,4838,-1,252,,,,,,,,,,,,
594143,1560688226147,1,2.47,2.07,3.11,1.36,2.98,1.18,0.44,0.19,-47,2,-61,1.26,1803,8,86,33,89,803,331.0,159,423,60,119.0,61,1,178,282,16,0,0,119,-12032,-1,247,45.701992,4.91102,33.41,198.9,6,1.6483,0,0.0,0.4183,7,0.34,9.9024
594163,1560688226167,4,2.55,2.06,3.11,1.4,2.95,1.22,0.42,0.24,-49,3,-61,1.29,1945,8,86,33,87,802,325.0,164,412,60,117.0,61,1,169,278,16,0,0,131,-23296,-1,244,,,,,,,,,,,,
594183,1560688226187,0,2.6,2.06,3.08,1.42,2.95,1.17,0.41,0.25,-50,1,-61,1.24,2030,8,86,33,88,796,321.0,165,410,60,119.0,61,1,179,275,16,0,0,198,-25856,-1,243,,,,,,,,,,,,
594203,1560688226207,4,2.66,2.06,3.08,1.42,2.96,1.15,0.45,0.28,-50,4,-62,1.23,2157,8,86,33,87,791,309.0,166,416,60,117.0,90,1,187,276,22,0,0,182,32000,250,242,,,,,,,,,,,,
594223,1560688226227,-2,2.73,2.06,3.11,1.42,2.97,1.24,0.47,0.29,-49,3,-62,1.32,2412,8,86,33,86,783,305.0,171,411,60,118.0,90,1,194,272,22,0,0,170,29440,250,243,,,,,,,,,,,,
594243,1560688226247,-0,2.76,2.05,3.11,1.42,2.97,1.1,0.48,0.33,-49,-3,-60,1.2,2626,8,86,33,84,775,301.0,177,408,60,119.0,90,1,205,273,22,0,0,183,26880,14256,243,45.701988,4.911028,31.0,198.9,6,1.6483,0,0.0,0.42,7,0.34,9.904
594263,1560688226267,0,2.79,2.06,3.1,1.42,2.95,0.97,0.47,0.37,-48,-1,-59,1.08,2885,8,86,33,82,772,292.0,183,404,60,117.0,90,1,208,273,22,0,0,196,80,250,244,,,,,,,,,,,,
594283,1560688226287,-0,2.81,2.07,3.09,1.42,2.94,0.96,0.46,0.4,-46,5,-60,1.07,3008,8,86,33,80,772,289.0,193,412,60,118.0,90,1,207,278,22,0,0,205,0,8192,244,,,,,,,,,,,,
594303,1560688226309,-2,2.83,2.09,3.08,1.41,2.94,0.99,0.47,0.42,-44,6,-58,1.1,3140,8,86,33,79,783,284.0,199,405,60,118.0,130,1,213,285,32,0,0,199,250,-1,244,,,,,,,,,,,,
594323,1560688226329,3,2.85,2.11,3.08,1.41,2.94,1.03,0.46,0.53,-42,1,-55,1.12,3380,8,86,33,77,795,277.0,207,405,60,119.0,130,1,229,289,32,0,0,198,30208,5120,245,,,,,,,,,,,,
594343,1560688226349,0,2.87,2.14,3.08,1.4,2.94,0.99,0.47,0.6,-40,2,-52,1.1,3511,7,86,33,74,809,274.0,217,406,60,119.0,130,1,241,282,32,0,0,209,2414,-1,246,45.701981,4.911037,28.94,198.9,6,1.6483,0,0.0,0.4217,7,0.34,9.9057
594363,1560688226369,3,2.87,2.16,3.08,1.4,2.94,1.0,0.47,0.64,-37,0,-49,1.1,3708,7,86,33,71,823,271.0,226,397,60,119.0,130,1,264,286,32,0,0,214,-1281,-1,249,,,,,,,,,,,,
594383,1560688226389,0,2.85,2.19,3.07,1.41,2.94,0.94,0.5,0.58,-34,3,-46,1.07,3856,7,86,33,68,835,266.0,237,410,60,119.0,130,1,285,288,32,0,0,214,-1,-1,251,,,,,,,,,,,,
594403,1560688226407,0,2.83,2.21,3.05,1.41,2.93,0.96,0.55,0.54,-31,1,-42,1.11,3989,7,86,33,66,845,264.0,246,401,60,119.0,171,1,294,286,43,0,0,215,-1,-29696,251,,,,,,,,,,,,
594423,1560688226427,-2,2.82,2.27,3.01,1.4,2.93,0.9,0.57,0.63,-29,-3,-37,1.07,4159,7,86,33,63,842,259.0,256,393,60,118.0,171,1,292,278,43,0,0,220,-10440,16384,253,,,,,,,,,,,,
594443,1560688226447,-0,2.82,2.32,2.96,1.38,2.93,0.88,0.55,0.68,-26,-1,-34,1.04,4255,6,86,33,62,845,256.0,270,410,60,117.0,171,1,292,269,43,0,0,222,506,19968,254,45.701977,4.911045,27.57,198.9,6,1.6483,0,0.0,0.4233,7,0.34,9.9074
594463,1560688226467,4,2.85,2.36,2.93,1.39,2.94,0.87,0.53,0.67,-23,-0,-31,1.02,4349,6,86,33,60,875,253.0,276,405,60,118.0,171,1,293,264,43,0,0,226,-1,250,255,,,,,,,,,,,,
594483,1560688226487,5,2.9,2.35,2.94,1.43,2.93,0.78,0.5,0.67,-18,1,-28,0.93,4454,6,86,33,59,906,255.0,286,388,60,118.0,171,1,295,255,43,0,0,229,250,8704,258,,,,,,,,,,,,
594503,1560688226507,4,0.34,2.33,2.99,1.47,2.89,0.7,0.44,0.64,-13,5,-22,0.83,4444,6,86,33,58,939,260.0,291,392,60,118.0,162,1,296,250,42,0,0,229,250,-17920,261,,,,,,,,,,,,
594523,1560688226527,4,0.38,2.28,3.09,1.55,2.84,0.71,0.37,0.55,-7,6,-14,0.8,4429,6,86,33,57,972,264.0,299,388,60,118.0,162,1,296,246,42,0,0,225,-25600,-1494,269,,,,,,,,,,,,
594543,1560688226547,4,0.39,2.23,3.15,1.64,2.82,0.58,0.3,0.54,-1,7,-6,0.65,4486,6,86,33,56,1027,275.0,302,401,60,118.0,162,1,297,241,42,0,0,216,18432,-1,275,45.701977,4.911053,27.01,198.8,6,1.6483,0,0.0,0.425,7,0.34,9.909
594563,1560688226567,4,0.39,2.17,3.22,1.68,2.8,0.51,0.24,0.47,5,12,0,0.57,4443,6,86,33,55,1082,280.0,306,396,60,118.0,162,1,298,236,42,0,0,212,250,-1,280,,,,,,,,,,,,
594583,1560688226587,3,0.39,2.09,3.33,1.73,2.74,0.46,0.15,0.49,13,14,4,0.48,4432,6,86,33,54,1107,286.0,305,407,60,119.0,162,1,298,236,42,0,0,203,15360,-1,286,,,,,,,,,,,,
594603,1560688226607,3,0.39,1.95,3.45,1.82,2.65,0.55,0.02,0.43,21,12,8,0.55,4457,6,86,33,54,1129,288.0,305,421,60,119.0,132,1,298,232,38,0,0,200,-17920,-1281,288,,,,,,,,,,,,
594623,1560688226627,-0,0.41,1.81,3.57,2.0,2.53,0.65,-0.14,0.45,27,9,14,0.66,4406,5,86,33,53,1144,290.0,306,447,60,118.0,132,1,297,228,38,0,0,198,1088,250,287,,,,,,,,,,,,
594643,1560688226647,0,0.42,1.72,3.66,2.16,2.42,0.75,-0.26,0.43,31,6,20,0.79,4401,5,86,33,52,1159,286.0,306,456,60,119.0,132,1,297,224,38,0,0,197,16384,-1281,286,45.701973,4.911062,26.06,198.8,6,1.6483,0,0.0,0.4267,7,0.34,9.9107
594663,1560688226667,-2,0.44,1.67,3.69,2.24,2.41,0.88,-0.29,0.47,34,2,27,0.92,4350,5,86,33,52,1158,282.0,306,450,60,119.0,132,1,297,223,38,0,0,196,-1533,-1,282,,,,,,,,,,,,
594683,1560688226687,-1,0.44,1.64,3.7,2.3,2.41,0.95,-0.38,0.55,37,-3,33,1.02,4305,5,86,33,51,1152,279.0,306,450,60,120.0,132,1,296,219,38,0,0,196,-14848,-1,279,,,,,,,,,,,,
594703,1560688226707,-1,0.43,1.62,3.7,2.32,2.44,0.99,-0.42,0.5,39,-4,38,1.07,4301,5,86,33,50,1123,277.0,305,442,60,118.0,125,1,296,215,35,0,0,195,250,-1,277,,,,,,,,,,,,
594723,1560688226727,5,0.43,1.62,3.7,2.33,2.45,0.93,-0.49,0.41,40,-2,42,1.05,4224,5,86,33,50,1089,275.0,303,447,60,118.0,125,1,295,214,35,0,0,196,966,-1,275,,,,,,,,,,,,
594743,1560688226747,2,0.44,1.62,3.7,2.36,2.45,0.9,-0.61,0.36,42,1,45,1.09,4156,5,86,33,49,1059,276.0,298,452,60,118.0,125,1,294,209,35,0,0,197,-14848,-41,276,45.701973,4.91107,24.9,198.9,6,1.6483,0,0.0,0.4283,7,0.35,9.9124
594763,1560688226767,-0,0.43,1.62,3.7,2.37,2.45,0.93,-0.65,0.39,43,-1,49,1.14,4174,5,86,33,49,1031,274.0,294,443,60,119.0,125,1,294,209,35,0,0,195,250,-10440,271,,,,,,,,,,,,
594783,1560688226787,-1,0.44,1.63,3.7,2.37,2.46,0.98,-0.67,0.4,45,-4,52,1.19,4115,5,86,33,48,995,271.0,293,437,60,119.0,125,1,292,204,35,0,0,195,-29696,14337,271,,,,,,,,,,,,
594803,1560688226807,2,0.44,1.62,3.7,2.37,2.46,0.85,-0.72,0.37,46,-3,54,1.11,4044,5,86,33,48,955,269.0,294,453,60,117.0,115,1,292,202,31,0,0,194,250,-1,269,,,,,,,,,,,,
594823,1560688226827,1,0.44,1.62,3.7,2.36,2.46,0.79,-0.77,0.38,47,-0,55,1.11,4040,5,86,33,48,932,268.0,289,448,60,118.0,115,1,292,202,31,0,0,193,13874,-214,268,,,,,,,,,,,,
594843,1560688226847,0,0.44,1.62,3.7,2.33,2.45,0.91,-0.8,0.39,48,-2,57,1.21,4037,5,86,33,47,919,267.0,288,456,60,119.0,115,1,291,198,31,0,0,183,12800,-214,267,45.701969,4.911078,24.38,198.8,6,1.6483,0,0.0,0.43,7,0.35,9.9141
594863,1560688226867,-1,0.44,1.61,3.7,2.32,2.41,0.91,-0.9,0.35,49,-3,58,1.28,4068,14,86,33,48,909,266.0,290,455,60,119.0,115,1,292,203,31,0,0,171,250,-1,266,,,,,,,,,,,,
594883,1560688226887,2,0.43,1.6,3.7,2.31,2.39,0.88,-0.9,0.3,50,-2,59,1.26,4042,25,86,33,52,899,265.0,287,447,60,118.0,115,1,296,215,31,0,0,156,250,250,265,,,,,,,,,,,,
594903,1560688226907,-2,0.44,1.58,3.64,2.29,2.38,0.9,-0.93,0.3,51,-1,61,1.29,4017,33,86,33,57,895,265.0,286,456,60,119.0,128,1,295,243,34,0,0,143,-1480,-1494,265,,,,,,,,,,,,
594923,1560688226927,-1,0.43,1.57,3.5,2.3,2.38,0.98,-0.94,0.34,52,-5,61,1.36,4162,37,86,33,63,897,263.0,287,452,60,119.0,128,1,292,268,34,0,0,136,14412,16896,263,,,,,,,,,,,,
594943,1560688226947,-1,0.43,1.55,3.49,2.32,2.41,0.94,-0.94,0.36,53,-7,61,1.33,4303,40,86,33,69,898,261.0,290,452,60,118.0,128,1,294,303,34,0,0,173,250,-17920,261,45.701969,4.911086,23.36,198.8,6,1.6483,0,0.0,0.4317,7,0.35,9.9157
594963,1560688226967,-1,0.42,1.53,3.54,2.33,2.48,0.88,-0.99,0.29,53,-6,62,1.33,4331,44,86,33,74,900,260.0,293,448,60,117.0,128,1,294,323,34,0,0,172,-1481,10812,260,,,,,,,,,,,,
594983,1560688226987,5,0.39,1.54,3.65,2.37,2.59,0.81,-0.99,0.26,53,-4,63,1.28,4439,53,86,33,80,902,261.0,297,447,60,117.0,128,1,291,383,34,0,0,168,250,15360,261,,,,,,,,,,,,
595003,1560688227002,5,0.38,1.58,3.71,2.38,2.65,0.77,-0.97,0.23,52,-4,65,1.24,4455,64,86,33,86,902,261.0,303,449,60,117.0,272,1,290,435,71,0,0,184,-2560,250,261,,,,,,,,,,,,
595023,1560688227022,4,0.36,1.69,3.7,2.39,2.66,0.73,-0.98,0.19,51,-2,66,1.22,4389,73,86,33,93,901,261.0,294,459,60,118.0,272,1,291,531,71,0,0,215,250,-1494,261,,,,,,,,,,,,
595043,1560688227042,2,0.35,1.78,3.71,2.37,2.65,0.75,-0.98,0.18,50,0,68,1.23,4287,79,86,33,96,898,261.0,268,464,60,118.0,272,1,293,615,71,0,0,263,250,250,261,45.701965,4.911093,22.23,198.7,6,1.6483,0,0.0,0.4333,7,0.35,9.9174
595063,1560688227062,1,0.33,1.81,3.71,2.35,2.57,0.8,-0.93,0.26,51,0,69,1.23,4223,81,86,33,96,895,259.0,275,468,60,119.0,272,1,294,614,71,0,0,264,250,250,259,,,,,,,,,,,,
595083,1560688227082,-0,2.92,1.82,3.68,2.33,2.45,0.88,-0.96,0.3,51,1,68,1.3,4206,81,86,33,96,891,258.0,260,457,60,118.0,272,1,294,614,71,0,0,261,14326,250,258,,,,,,,,,,,,
595103,1560688227106,1,2.89,1.81,3.53,2.32,2.29,0.91,-0.9,0.31,51,-3,68,1.29,4378,82,86,33,97,893,256.0,272,440,60,118.0,399,1,291,645,103,0,0,203,250,-1445,256,,,,,,,,,,,,
595123,1560688227126,0,2.83,1.79,3.49,2.29,2.2,1.03,-0.94,0.37,49,-3,68,1.39,4667,83,86,33,97,903,252.0,267,452,60,119.0,399,1,286,647,103,0,0,180,19456,250,252,,,,,,,,,,,,
595143,1560688227146,4,2.75,1.77,3.47,2.26,2.19,1.12,-0.97,0.33,47,-4,68,1.48,4882,84,86,33,97,913,249.0,254,456,60,119.0,399,1,282,649,103,0,0,184,-1481,-25600,249,45.701958,4.911098,20.9,198.7,6,1.6483,0,0.0,0.435,7,0.35,9.9191
595163,1560688227166,0,2.67,1.79,3.4,2.24,2.22,1.03,-0.93,0.46,45,-4,67,1.39,5028,86,86,33,97,926,247.0,267,449,60,118.0,399,1,280,648,103,0,0,199,250,23482,247,,,,,,,,,,,,
595183,1560688227186,2,2.56,1.9,3.3,2.23,2.27,0.96,-0.85,0.52,43,-0,67,1.28,5090,87,86,33,97,960,247.0,286,449,60,118.0,399,1,282,642,103,0,0,303,13874,10818,247,,,,,,,,,,,,
595203,1560688227208,0,2.45,2.09,3.16,2.25,2.27,0.98,-0.73,0.67,40,2,64,1.22,5142,87,86,33,97,1058,247.0,281,453,60,119.0,497,1,284,638,124,0,0,293,13964,-10440,247,,,,,,,,,,,,
595223,1560688227228,2,2.32,2.3,2.99,2.25,2.31,0.9,-0.64,0.68,36,2,61,1.11,5215,87,86,33,96,1155,250.0,290,453,60,117.0,497,1,287,632,124,0,0,223,1088,250,249,,,,,,,,,,,,
595243,1560688227248,5,2.19,2.5,2.81,2.26,2.37,0.89,-0.56,0.75,34,1,56,1.05,5145,88,86,33,97,1241,249.0,290,456,60,118.0,497,1,284,616,124,0,0,242,-1530,85,249,45.701954,4.911102,19.34,198.7,6,1.6483,0,0.0,0.4367,7,0.35,9.9207
595263,1560688227268,-1,2.06,2.58,2.74,2.27,2.36,0.78,-0.48,0.76,31,2,50,0.91,5018,88,86,33,97,1313,250.0,287,448,60,117.0,497,1,279,646,124,0,0,273,8704,24320,250,,,,,,,,,,,,
595283,1560688227288,0,1.94,2.58,2.75,2.32,2.37,0.77,-0.4,0.71,29,1,46,0.87,4943,88,86,33,97,1336,248.0,293,452,60,119.0,497,1,281,649,124,0,0,304,13468,-41,248,,,,,,,,,,,,
595303,1560688227308,5,1.81,2.57,2.75,2.32,2.38,0.82,-0.31,0.8,25,-0,42,0.87,4947,88,86,33,97,1359,246.0,297,451,60,119.0,487,1,281,649,121,0,0,287,-1484,-1,246,,,,,,,,,,,,
595323,1560688227328,1,1.7,2.57,2.76,2.27,2.51,0.8,-0.29,0.8,21,-0,38,0.85,4951,89,86,33,97,1297,242.0,307,448,60,119.0,487,1,280,650,121,0,0,261,23482,-1,242,,,,,,,,,,,,
595343,1560688227348,1,1.63,2.58,2.75,2.16,2.71,0.78,-0.22,0.76,16,-4,34,0.81,5000,90,86,33,97,1233,243.0,312,438,60,117.0,487,1,279,650,121,0,0,267,-1445,21760,241,45.701954,4.911106,15.67,198.7,6,1.6483,0,0.0,0.4383,7,0.35,9.9224
595363,1560688227368,3,1.57,2.61,2.76,2.08,2.82,0.76,-0.12,0.81,14,-2,29,0.77,5097,95,86,33,97,1152,250.0,321,454,60,119.0,487,1,282,642,121,0,0,271,10818,0,239,,,,,,,,,,,,
595383,1560688227388,1,1.52,2.61,2.84,2.06,2.84,0.67,-0.09,0.84,12,-2,22,0.68,5308,99,86,33,97,1070,252.0,326,451,60,117.0,487,1,290,624,121,0,0,278,-1,-1281,237,,,,,,,,,,,,
595403,1560688227408,0,1.51,2.61,2.94,2.06,2.83,0.79,0.05,0.86,9,-3,17,0.79,5460,100,86,33,97,1050,256.0,332,451,60,118.0,527,1,296,593,125,0,0,301,506,250,237,,,,,,,,,,,,
595423,1560688227428,1,1.52,2.6,2.92,2.06,2.79,0.82,0.06,0.9,5,-2,11,0.82,5680,100,86,33,96,1030,261.0,345,451,60,119.0,527,1,304,577,125,0,0,298,-1,28160,237,,,,,,,,,,,,
595443,1560688227448,1,1.54,2.61,2.84,2.05,2.76,0.83,0.04,0.86,1,-0,6,0.83,5916,100,86,33,96,1004,269.0,356,448,60,119.0,527,1,313,561,125,0,0,296,-1,32000,241,45.70195,4.91111,17.87,198.8,6,1.6483,0,0.0,0.44,7,0.35,9.9241
595463,1560688227468,1,1.57,2.64,2.74,2.04,2.76,0.87,0.0,0.82,-2,2,0,0.87,6117,100,86,33,96,978,276.0,371,446,60,119.0,527,1,322,543,125,0,0,311,250,-24576,245,,,,,,,,,,,,
595483,1560688227488,-1,1.61,2.65,2.73,2.07,2.74,0.87,0.04,0.9,-5,3,-4,0.88,6204,100,86,33,96,965,285.0,385,452,60,119.0,527,1,327,549,125,0,0,318,-16896,-1246,246,,,,,,,,,,,,
595503,1560688227508,2,1.63,2.66,2.75,2.08,2.67,0.84,0.12,0.99,-7,-0,-8,0.84,6275,100,86,33,96,956,289.0,394,458,60,118.0,520,1,330,548,130,0,0,359,80,150,251,,,,,,,,,,,,
595523,1560688227528,3,1.66,2.66,2.78,2.12,2.65,0.75,0.26,0.96,-11,-1,-11,0.8,6321,100,86,33,96,951,296.0,402,458,60,117.0,520,1,333,546,130,0,0,347,90,-27136,256,,,,,,,,,,,,
595543,1560688227548,1,1.69,2.66,2.75,2.1,2.67,0.7,0.38,0.84,-14,-1,-12,0.8,6304,100,86,33,96,948,301.0,407,454,60,117.0,520,1,332,546,130,0,0,334,26880,257,262,45.701946,4.911115,19.96,198.8,6,1.6483,0,0.0,0.4417,7,0.35,9.9257
595563,1560688227568,-1,1.74,2.68,2.7,2.05,2.74,0.71,0.39,0.91,-16,3,-14,0.82,6388,100,86,33,95,950,308.0,409,448,60,118.0,520,1,337,544,130,0,0,332,125,0,267,,,,,,,,,,,,
595583,1560688227588,3,1.81,2.68,2.69,2.02,2.82,0.83,0.4,0.99,-20,-2,-18,0.92,6510,100,86,33,96,954,318.0,415,446,60,119.0,520,1,342,536,130,0,0,336,145,-14714,270,,,,,,,,,,,,
595603,1560688227608,-0,1.89,2.67,2.72,1.99,2.83,0.61,0.52,0.88,-20,-0,-22,0.8,6569,100,86,33,96,962,326.0,425,451,60,117.0,492,1,345,539,134,0,0,364,-22016,-1246,274,,,,,,,,,,,,
595623,1560688227628,3,1.99,2.66,2.76,2.0,2.82,0.68,0.52,0.99,-23,2,-26,0.85,6698,100,86,33,95,972,336.0,430,455,60,119.0,492,1,352,533,134,0,0,376,13,-6640,280,,,,,,,,,,,,
595643,1560688227648,2,2.07,2.66,2.75,2.01,2.77,0.48,0.58,0.91,-24,-0,-28,0.75,6885,100,86,33,95,979,342.0,434,434,60,118.0,492,1,362,530,134,0,0,366,-31206,-29978,287,45.701939,4.91112,25.55,198.8,6,1.6483,0,0.0,0.4433,7,0.35,9.9274
595663,1560688227668,4,2.12,2.65,2.75,2.03,2.72,0.61,0.55,1.02,-26,-3,-30,0.82,7014,100,86,33,95,983,343.0,446,431,60,119.0,492,1,370,529,134,0,0,365,-14714,486,293,,,,,,,,,,,,
595683,1560688227688,2,2.16,2.65,2.76,2.07,2.69,0.55,0.44,1.05,-25,1,-31,0.71,7072,100,86,33,95,993,343.0,455,448,60,119.0,492,1,374,532,134,0,0,380,-14714,-19019,297,,,,,,,,,,,,
595703,1560688227710,3,2.18,2.66,2.78,2.09,2.66,0.32,0.51,1.01,-24,2,-31,0.61,7192,100,86,33,95,1006,344.0,463,455,60,117.0,480,1,383,539,144,0,0,397,-10554,1,303,,,,,,,,,,,,
595723,1560688227730,-0,2.2,2.65,2.8,2.1,2.63,0.3,0.56,1.05,-24,1,-31,0.63,7264,100,86,33,95,1017,346.0,481,442,60,118.0,480,1,388,543,144,0,0,389,-30438,-19019,315,,,,,,,,,,,,
595743,1560688227750,1,2.22,2.66,2.79,2.12,2.6,0.47,0.61,1.12,-26,0,-31,0.77,7315,100,86,33,95,1025,349.0,480,440,60,118.0,480,1,392,546,144,0,0,378,2811,17144,321,45.701935,4.911127,27.3,198.8,6,1.6483,0,0.0,0.445,7,0.35,9.9291
595763,1560688227770,2,2.22,2.66,2.76,2.13,2.58,0.6,0.59,1.16,-26,-1,-31,0.84,7396,100,86,33,94,1011,352.0,483,430,60,118.0,480,1,399,550,144,0,0,385,3183,-32702,328,,,,,,,,,,,,
595783,1560688227790,1,2.24,2.64,2.76,2.12,2.55,0.58,0.62,1.04,-24,1,-30,0.85,7402,100,86,33,94,982,355.0,486,424,60,118.0,480,1,400,550,144,0,0,401,4104,17144,333,,,,,,,,,,,,
595803,1560688227810,1,2.24,2.61,2.76,2.12,2.5,0.71,0.64,0.99,-22,4,-27,0.96,7464,100,86,33,94,948,360.0,492,411,60,117.0,458,1,404,553,156,0,0,407,-14707,-18948,343,,,,,,,,,,,,
595823,1560688227830,-1,2.25,2.58,2.77,2.12,2.48,0.81,0.52,1.09,-21,4,-27,0.96,7458,100,86,33,94,910,365.0,495,406,60,118.0,458,1,404,553,156,0,0,398,-6405,1,353,,,,,,,,,,,,
595843,1560688227850,1,2.24,2.58,2.77,2.14,2.47,0.85,0.47,1.12,-20,-1,-25,0.97,7509,100,86,33,94,867,371.0,495,402,60,119.0,458,1,408,555,156,0,0,398,257,-8165,362,45.701931,4.911134,30.95,198.8,6,1.6483,0,0.0,0.4467,7,0.35,9.9307
595863,1560688227870,0,2.25,2.58,2.75,2.14,2.44,0.82,0.43,0.99,-18,-0,-23,0.93,7536,100,86,33,94,819,376.0,491,422,60,118.0,458,1,410,557,156,0,0,391,3,10541,368,,,,,,,,,,,,
595883,1560688227890,1,2.25,2.59,2.77,2.16,2.44,0.89,0.43,0.96,-17,2,-19,0.99,7588,100,86,33,94,784,382.0,500,434,60,118.0,458,1,412,559,156,0,0,412,19125,-8151,374,,,,,,,,,,,,
595903,1560688227910,1,2.25,2.58,2.83,2.21,2.45,0.95,0.37,1.06,-15,3,-19,1.02,7597,100,86,33,94,774,383.0,494,447,60,118.0,426,1,414,559,160,0,0,424,240,11560,380,,,,,,,,,,,,
595923,1560688227930,1,2.25,2.58,2.89,2.26,2.43,0.88,0.45,1.1,-15,-1,-20,0.99,7744,100,86,33,94,768,392.0,492,444,60,117.0,426,1,426,567,160,0,0,423,1,7154,386,,,,,,,,,,,,
595943,1560688227950,6,2.24,2.58,2.89,2.28,2.42,0.74,0.34,1.14,-14,-2,-18,0.82,7948,100,86,33,93,766,397.0,497,443,60,117.0,426,1,442,575,160,0,0,422,-3968,-21944,393,45.701923,4.911143,34.22,198.8,6,1.6483,0,0.0,0.4483,7,0.35,9.9324
595963,1560688227970,2,2.24,2.6,2.86,2.28,2.42,0.72,0.15,1.15,-12,0,-15,0.73,8067,100,86,33,91,767,403.0,512,441,60,118.0,426,1,448,584,160,0,0,421,-8151,5600,397,,,,,,,,,,,,
595983,1560688227990,5,2.24,2.61,2.85,2.29,2.43,0.65,0.24,1.15,-11,3,-15,0.69,8223,100,86,33,91,775,408.0,512,453,60,117.0,426,1,443,603,160,0,0,427,10392,10305,403,,,,,,,,,,,,
596003,1560688228001,4,2.25,2.61,2.86,2.29,2.44,0.68,0.13,1.05,-10,-1,-16,0.7,8408,100,86,33,90,784,413.0,521,444,60,118.0,467,1,439,622,190,0,0,453,-9166,8488,409,,,,,,,,,,,,
596023,1560688228021,1,2.26,2.6,2.86,2.31,2.43,0.64,0.06,1.14,-8,-2,-14,0.65,8585,100,86,33,89,799,418.0,527,445,60,117.0,467,1,432,622,190,0,0,471,-3414,3571,416,,,,,,,,,,,,
596043,1560688228041,2,2.25,2.58,2.89,2.29,2.39,0.52,0.2,1.15,-8,1,-14,0.56,8757,100,87,33,88,812,425.0,537,447,60,117.0,467,1,425,611,190,0,0,478,-3856,2211,423,45.701916,4.911152,36.66,198.8,6,1.6483,0,0.0,0.45,7,0.35,9.934
596063,1560688228061,3,2.25,2.57,2.9,2.28,2.38,0.45,0.38,1.12,-7,2,-12,0.59,8861,100,87,33,87,818,432.0,555,456,60,117.0,467,1,420,611,190,0,0,481,-3322,3580,429,,,,,,,,,,,,
596083,1560688228081,1,2.26,2.58,2.89,2.29,2.38,0.27,0.55,1.11,-7,-1,-10,0.61,9062,100,87,33,87,828,437.0,558,458,60,117.0,467,1,418,599,190,0,0,464,19477,248,437,,,,,,,,,,,,
596103,1560688228107,-0,2.25,2.58,2.88,2.28,2.37,0.13,0.69,1.07,-6,3,-8,0.71,9159,100,87,33,87,851,446.0,574,455,60,117.0,472,1,418,599,207,0,0,474,16648,-32768,442,,,,,,,,,,,,
596123,1560688228127,3,2.25,2.61,2.88,2.28,2.37,0.18,0.78,1.08,-5,4,-8,0.8,9236,100,87,33,87,875,452.0,576,447,60,117.0,472,1,418,599,207,0,0,499,-6387,505,449,,,,,,,,,,,,
596143,1560688228147,4,2.25,2.65,2.89,2.37,2.34,0.15,0.65,1.17,-4,4,-8,0.67,9323,100,87,33,87,892,457.0,581,445,60,118.0,472,1,418,599,207,0,0,522,-9160,-1818,450,45.701912,4.911163,39.63,198.8,6,1.6483,0,0.0,0.4517,7,0.36,9.9357
596163,1560688228167,5,2.25,2.68,2.89,2.43,2.31,0.31,0.39,1.25,-4,2,-9,0.5,9407,100,87,33,87,912,460.0,573,446,60,118.0,472,1,418,599,207,0,0,519,-23623,-9216,456,,,,,,,,,,,,
596183,1560688228187,3,2.25,2.69,2.88,2.42,2.32,0.3,0.46,1.14,-4,2,-8,0.55,9512,100,87,33,86,943,469.0,583,449,60,117.0,472,1,418,600,207,0,0,493,10432,2088,465,,,,,,,,,,,,
596203,1560688228207,5,2.24,2.69,2.87,2.4,2.35,0.27,0.31,1.22,-4,0,-7,0.41,9590,100,87,33,86,974,473.0,589,447,60,118.0,456,1,415,590,214,0,0,507,-17956,-9072,473,,,,,,,,,,,,
596223,1560688228227,1,2.26,2.67,2.86,2.38,2.37,0.27,0.3,1.18,-3,4,-8,0.4,9720,100,87,33,86,987,481.0,590,457,60,117.0,456,1,409,593,214,0,0,515,32033,6274,477,,,,,,,,,,,,
596243,1560688228247,6,2.25,2.65,2.87,2.39,2.38,0.33,0.17,1.23,-2,1,-8,0.37,9873,100,87,33,85,1001,488.0,591,455,60,117.0,456,1,401,581,214,0,0,524,1,16383,484,45.701904,4.911175,42.52,198.8,6,1.6483,0,0.0,0.4533,7,0.36,9.9374
596263,1560688228267,5,2.24,2.63,2.98,2.39,2.4,0.24,0.31,1.14,-2,-1,-6,0.39,9941,100,87,33,85,1008,493.0,613,455,60,117.0,456,1,398,581,214,0,0,573,-6528,14504,491,,,,,,,,,,,,
596283,1560688228287,2,2.26,2.61,3.0,2.4,2.42,0.21,0.14,1.18,-3,-1,-5,0.25,10140,100,87,33,85,1015,496.0,613,450,60,117.0,456,1,405,582,214,0,0,557,2524,2104,494,,,,,,,,,,,,
596303,1560688228307,2,2.27,2.61,2.97,2.38,2.43,0.26,0.13,1.11,-3,2,-5,0.29,10405,100,87,33,85,1011,501.0,620,450,60,117.0,457,1,424,582,227,0,0,524,6274,-22263,501,,,,,,,,,,,,
596323,1560688228327,3,2.25,2.62,2.93,2.38,2.41,0.32,0.2,1.11,-2,-0,-4,0.38,10469,100,87,33,85,1004,508.0,627,452,60,117.0,457,1,428,582,227,0,0,543,-4054,-3190,507,,,,,,,,,,,,
596343,1560688228347,3,2.26,2.61,2.91,2.38,2.35,0.25,0.18,1.03,-2,-0,-3,0.3,10551,100,87,33,85,999,515.0,623,447,60,117.0,457,1,432,582,227,0,0,564,-14,6273,513,45.701897,4.911188,46.03,198.7,6,1.6483,0,0.0,0.455,7,0.36,9.939
596363,1560688228367,3,2.26,2.62,2.9,2.38,2.33,0.31,0.14,1.07,-1,1,-4,0.34,10533,100,87,33,85,993,522.0,617,450,60,117.0,457,1,431,582,227,0,0,581,2524,2104,518,,,,,,,,,,,,
596383,1560688228387,3,2.26,2.61,2.9,2.38,2.32,0.38,0.15,1.02,-3,-3,-3,0.41,10593,100,87,33,85,993,528.0,620,450,60,117.0,457,1,433,582,227,0,0,566,-28648,2211,527,,,,,,,,,,,,
596403,1560688228407,2,2.27,2.61,2.88,2.38,2.32,0.29,0.32,0.84,-3,-6,-1,0.43,10593,100,87,33,85,994,533.0,617,448,60,117.0,443,1,433,582,234,0,0,564,6274,-16384,530,,,,,,,,,,,,
596423,1560688228427,3,2.27,2.62,2.86,2.37,2.35,0.33,0.3,0.86,-3,-1,-2,0.45,10695,100,87,33,85,993,540.0,621,450,60,117.0,443,1,436,582,234,0,0,564,-2934,-4035,538,,,,,,,,,,,,
596443,1560688228447,5,2.26,2.61,2.88,2.36,2.36,0.41,0.29,0.97,-2,-1,-3,0.5,10720,100,87,33,85,990,543.0,623,452,60,117.0,443,1,436,582,234,0,0,579,1779,8488,545,45.701889,4.911202,49.0,198.6,6,1.6483,0,0.0,0.4567,7,0.36,9.9407
596463,1560688228467,3,2.26,2.6,2.93,2.36,2.37,0.43,0.22,0.96,-2,1,-3,0.48,10825,100,87,33,85,987,551.0,626,449,60,117.0,443,1,439,582,234,0,0,595,6274,774,549,,,,,,,,,,,,
596483,1560688228487,4,2.27,2.57,2.95,2.35,2.35,0.37,0.2,1.06,-2,1,-3,0.42,10984,100,87,33,85,984,558.0,632,452,60,117.0,443,1,443,582,234,0,0,590,6273,259,554,,,,,,,,,,,,
596503,1560688228509,5,2.26,2.58,2.94,2.34,2.34,0.36,0.27,1.01,-1,-0,-2,0.45,11068,100,87,33,85,977,563.0,636,454,60,117.0,423,1,444,582,237,0,0,594,2211,17344,560,,,,,,,,,,,,
596523,1560688228529,3,2.27,2.59,2.94,2.34,2.35,0.35,0.17,1.1,-2,1,-3,0.39,11180,100,87,33,85,969,567.0,636,451,60,117.0,423,1,443,564,237,0,0,592,1780,-16179,565,,,,,,,,,,,,
596543,1560688228549,5,2.26,2.59,2.94,2.34,2.35,0.32,0.19,1.0,-1,3,-3,0.38,11322,100,87,33,84,963,574.0,637,452,60,117.0,423,1,441,564,237,0,0,598,774,-7939,570,45.701881,4.911216,51.76,198.6,6,1.6483,0,0.0,0.4583,7,0.36,9.9424
596563,1560688228569,4,2.26,2.59,2.92,2.34,2.34,0.3,0.27,1.06,-1,7,-2,0.41,11391,100,87,33,84,959,577.0,638,452,60,117.0,423,1,441,564,237,0,0,608,30208,17740,577,,,,,,,,,,,,
596583,1560688228589,1,2.26,2.58,2.88,2.33,2.32,0.38,0.24,1.07,-0,7,-3,0.45,11453,100,87,33,84,950,583.0,626,453,60,117.0,423,1,441,564,237,0,0,607,-25872,5344,582,,,,,,,,,,,,
596603,1560688228607,3,2.27,2.57,2.86,2.34,2.32,0.36,0.21,1.03,-0,5,-3,0.42,11460,100,87,33,84,940,589.0,633,448,60,116.0,417,1,441,564,244,0,0,618,2048,269,588,,,,,,,,,,,,
596623,1560688228627,4,2.26,2.56,2.88,2.35,2.35,0.39,0.19,1.1,-1,2,-3,0.43,11538,100,87,33,84,931,595.0,639,447,60,117.0,417,1,440,564,244,0,0,620,6273,506,595,,,,,,,,,,,,
596643,1560688228647,4,2.26,2.56,2.91,2.36,2.4,0.39,0.17,1.09,-1,-1,-2,0.43,11682,100,87,32,84,925,599.0,640,447,60,117.0,417,1,440,568,244,0,0,626,4956,-4876,599,45.701874,4.911232,54.13,198.6,6,1.6483,0,0.0,0.46,7,0.36,9.944
596663,1560688228667,1,2.26,2.55,2.91,2.36,2.4,0.36,0.2,1.06,-2,-0,-2,0.41,11822,100,87,32,84,915,603.0,641,450,60,117.0,417,1,440,571,244,0,0,632,243,-5120,603,,,,,,,,,,,,
596683,1560688228687,3,2.27,2.52,2.91,2.34,2.43,0.36,0.29,0.99,-2,2,-3,0.46,11950,100,87,32,83,901,610.0,643,451,60,117.0,417,1,440,558,244,0,0,642,-30139,-3584,610,,,,,,,,,,,,
596703,1560688228709,3,2.27,2.5,2.91,2.32,2.4,0.27,0.3,0.93,-2,3,-3,0.4,12073,100,87,32,83,890,615.0,649,451,60,117.0,417,1,440,560,255,0,0,644,26688,-3584,614,,,,,,,,,,,,
596723,1560688228729,4,2.26,2.49,2.94,2.31,2.36,0.19,0.25,1.03,-1,4,-2,0.31,12167,100,87,32,83,881,620.0,642,450,60,117.0,417,1,440,560,255,0,0,656,3403,479,620,,,,,,,,,,,,
596743,1560688228749,3,2.28,2.48,2.96,2.3,2.34,0.2,0.25,1.13,-1,5,-3,0.32,12238,100,87,32,83,870,626.0,636,451,60,116.0,417,1,440,560,255,0,0,662,20993,-2830,625,45.701862,4.911248,57.2,198.6,6,1.6483,0,0.0,0.4617,7,0.36,9.9457
596763,1560688228769,4,2.28,2.49,2.92,2.29,2.32,0.25,0.2,1.1,-2,5,-1,0.32,12254,100,87,32,83,853,631.0,641,446,60,116.0,417,1,440,560,255,0,0,659,3,2024,631,,,,,,,,,,,,
596783,1560688228789,4,2.28,2.55,2.85,2.29,2.3,0.4,0.11,1.06,-2,1,-1,0.42,12295,100,87,32,83,838,634.0,641,448,60,117.0,417,1,440,560,255,0,0,656,-2836,-27404,631,,,,,,,,,,,,
596803,1560688228809,1,2.29,2.59,2.84,2.31,2.29,0.5,0.02,1.07,-2,-1,-2,0.5,12319,100,87,32,83,829,637.0,640,447,60,117.0,412,1,440,560,261,0,0,660,-10251,3543,633,,,,,,,,,,,,
596823,1560688228829,5,2.28,2.58,2.85,2.31,2.29,0.52,-0.05,1.16,-1,1,-3,0.53,12351,100,87,32,83,818,641.0,637,442,60,117.0,412,1,440,560,261,0,0,664,24,3543,641,,,,,,,,,,,,
596843,1560688228849,5,2.28,2.58,2.91,2.35,2.31,0.42,-0.01,1.11,0,0,-3,0.42,12458,100,87,32,83,805,645.0,640,451,60,116.0,412,1,440,560,261,0,0,670,-2830,31988,645,45.701855,4.911264,59.46,198.6,6,1.6483,0,0.0,0.4633,7,0.37,9.9474
596863,1560688228869,2,2.28,2.57,3.02,2.38,2.42,0.34,0.07,0.95,0,-2,-2,0.34,12541,100,87,32,83,795,648.0,651,451,60,117.0,412,1,440,560,261,0,0,684,4909,-10346,650,,,,,,,,,,,,
596883,1560688228889,4,2.27,2.54,3.07,2.37,2.55,0.41,-0.04,0.95,0,-2,-2,0.41,12686,100,87,32,83,790,654.0,648,453,60,117.0,412,1,440,560,261,0,0,681,-6006,-3584,654,,,,,,,,,,,,
596903,1560688228909,1,2.28,2.54,3.11,2.37,2.57,0.41,0.08,0.99,-0,-2,-0,0.42,12729,100,87,32,84,786,657.0,651,455,60,117.0,413,1,440,560,271,0,0,686,-388,3543,659,,,,,,,,,,,,
596923,1560688228929,4,2.28,2.54,3.15,2.36,2.59,0.34,0.02,1.03,1,0,-3,0.34,12939,100,87,32,83,780,661.0,646,455,60,117.0,413,1,440,575,271,0,0,685,-10344,8010,661,,,,,,,,,,,,
596943,1560688228949,4,2.27,2.52,3.2,2.36,2.59,0.31,0.07,0.72,1,1,-2,0.32,13084,100,87,32,83,774,668.0,649,460,60,117.0,413,1,440,560,271,0,0,709,-2826,-10448,668,45.701843,4.911282,62.25,198.6,6,1.6483,0,0.0,0.465,7,0.37,9.949
596963,1560688228969,-1,2.28,2.5,3.19,2.38,2.53,0.38,-0.01,0.83,1,0,-1,0.38,13093,100,87,32,83,772,672.0,653,464,60,120.0,413,1,440,560,271,0,0,710,-388,16599,672,,,,,,,,,,,,
596983,1560688228989,-1,2.28,2.51,3.15,2.37,2.5,0.44,0.02,0.74,1,1,-1,0.44,12558,100,87,32,84,772,673.0,656,451,60,120.0,413,1,440,592,271,0,0,690,-2830,11576,673,,,,,,,,,,,,
597003,1560688229002,1,2.29,2.51,3.11,2.36,2.5,0.43,-0.04,0.86,2,1,-1,0.43,12128,100,87,32,85,772,674.0,650,453,60,119.0,398,1,440,592,269,0,0,677,-26380,-10344,674,,,,,,,,,,,,
597023,1560688229022,-1,2.28,2.49,3.12,2.31,2.5,0.47,-0.1,0.97,3,-1,-3,0.48,11867,100,87,32,85,771,674.0,646,458,60,119.0,398,1,440,588,269,0,0,686,8958,-26892,674,,,,,,,,,,,,
597043,1560688229042,-2,2.28,2.4,3.21,2.23,2.52,0.62,-0.05,0.96,3,-4,-4,0.62,11617,100,87,32,86,773,674.0,647,450,60,119.0,398,1,440,602,269,0,0,669,-26380,-388,674,45.701836,4.911301,64.91,198.5,6,1.6483,0,0.0,0.4667,7,0.37,9.9507
597063,1560688229062,3,2.27,2.25,3.31,2.15,2.57,0.66,-0.19,1.06,0,-8,-3,0.69,11405,100,87,32,86,778,674.0,643,453,60,119.0,398,1,441,601,269,0,0,667,-26380,-26380,674,,,,,,,,,,,,
597083,1560688229082,6,2.26,2.27,3.32,2.12,2.61,0.64,-0.04,1.02,1,3,-5,0.64,11003,100,87,32,86,896,676.0,636,456,60,117.0,398,1,445,1028,269,0,0,710,-26892,1524,675,,,,,,,,,,,,
597103,1560688229108,5,2.26,2.29,3.19,2.13,2.53,0.69,-0.03,1.07,1,-2,-3,0.69,10069,100,87,32,88,1011,684.0,622,455,60,116.0,592,1,401,991,402,0,0,808,3543,31988,682,,,,,,,,,,,,
597123,1560688229128,2,2.26,2.32,3.06,2.14,2.46,0.66,-0.08,1.13,1,4,-3,0.67,10285,100,87,32,87,1127,688.0,622,453,60,117.0,592,1,417,846,402,0,0,734,24,-22796,687,,,,,,,,,,,,
597143,1560688229148,3,2.26,2.36,2.93,2.15,2.3,0.67,-0.05,1.21,0,4,-5,0.67,10405,100,87,32,86,1242,692.0,616,451,60,117.0,592,1,425,715,402,0,0,721,12333,-3450,690,45.701824,4.911319,66.15,198.4,6,1.6483,0,0.0,0.4683,7,0.37,9.9524
597163,1560688229168,5,2.26,2.38,2.79,2.17,2.21,0.63,-0.0,1.14,0,4,-6,0.63,10135,100,87,32,86,1358,698.0,613,456,60,116.0,592,1,405,611,402,0,0,736,24,-22796,696,,,,,,,,,,,,
597183,1560688229188,1,2.28,2.44,2.78,2.22,2.21,0.56,0.15,0.92,0,4,-2,0.58,9780,100,87,32,86,1473,702.0,612,457,60,117.0,592,1,406,597,402,0,0,753,8010,-2358,702,,,,,,,,,,,,
597203,1560688229208,6,2.27,2.51,2.78,2.29,2.23,0.56,0.04,1.02,0,3,-2,0.56,9715,100,87,32,85,1498,707.0,607,450,60,117.0,313,1,409,579,220,0,0,733,-30694,-2356,707,,,,,,,,,,,,
597223,1560688229228,1,2.27,2.55,2.85,2.33,2.3,0.55,0.21,0.98,-1,1,-1,0.59,9842,100,87,32,85,1498,710.0,617,462,60,117.0,313,1,403,580,220,0,0,729,6658,1037,710,,,,,,,,,,,,
597243,1560688229248,2,2.26,2.57,2.97,2.33,2.38,0.63,0.07,1.03,-1,-1,-1,0.63,10005,100,87,32,85,1407,713.0,616,453,60,117.0,313,1,395,582,220,0,0,729,-13312,-2356,713,45.701817,4.911338,66.93,198.4,6,1.6483,0,0.0,0.47,7,0.37,9.9541
597263,1560688229268,6,2.26,2.62,3.1,2.3,2.5,0.63,0.12,0.98,-1,-4,-0,0.64,10124,100,87,32,85,1304,717.0,613,455,60,117.0,313,1,404,582,220,0,0,746,-23490,-31066,714,,,,,,,,,,,,
597283,1560688229288,6,2.26,2.6,3.25,2.28,2.62,0.5,0.09,0.9,-0,-2,-2,0.51,10307,100,87,32,85,1202,720.0,616,457,60,117.0,313,1,416,582,220,0,0,761,-25858,-2830,720,,,,,,,,,,,,
597303,1560688229306,3,2.26,2.58,3.32,2.29,2.64,0.54,0.13,0.85,0,-2,-2,0.55,10474,100,87,32,85,1101,728.0,620,458,60,117.0,318,1,429,582,229,0,0,787,-2830,-22795,721,,,,,,,,,,,,
597323,1560688229326,1,2.25,2.52,3.32,2.27,2.64,0.44,0.09,0.89,-0,0,-1,0.45,10683,100,87,32,85,1013,729.0,618,462,60,117.0,318,1,435,582,229,0,0,777,-22796,6389,731,,,,,,,,,,,,
597343,1560688229346,3,2.28,2.47,3.19,2.21,2.61,0.45,0.08,0.92,1,3,-1,0.46,10732,100,87,32,85,931,736.0,626,451,60,117.0,318,1,437,582,229,0,0,769,-2830,-7436,736,45.701801,4.911358,69.73,198.4,6,1.6483,0,0.0,0.4717,7,0.37,9.9557
597363,1560688229366,2,2.27,2.45,3.02,2.2,2.49,0.39,0.07,1.03,1,5,-1,0.39,10825,100,87,32,85,915,742.0,626,457,60,117.0,318,1,439,582,229,0,0,763,-13068,-31066,741,,,,,,,,,,,,
597383,1560688229386,5,2.27,2.44,2.91,2.22,2.35,0.36,0.1,1.05,1,3,0,0.38,10702,100,87,32,85,935,746.0,629,454,60,117.0,318,1,436,582,229,0,0,788,-30694,-31066,745,,,,,,,,,,,,
597403,1560688229408,6,2.26,2.43,2.75,2.22,2.15,0.44,0.14,0.96,0,5,1,0.46,10575,100,87,32,85,960,753.0,616,451,60,117.0,313,1,432,582,234,0,0,781,-3450,-31066,750,,,,,,,,,,,,
597423,1560688229428,3,2.26,2.43,2.65,2.23,2.06,0.5,0.09,1.05,1,5,0,0.51,10382,100,87,32,85,986,757.0,618,455,60,117.0,313,1,422,582,234,0,0,788,-22795,-23308,757,,,,,,,,,,,,
597443,1560688229448,3,2.26,2.5,2.68,2.26,2.11,0.49,0.03,0.98,1,1,-1,0.49,10382,100,87,32,85,1003,755.0,627,445,60,117.0,313,1,422,582,234,0,0,778,-2574,-22795,755,45.701794,4.911377,71.67,198.3,6,1.6483,0,0.0,0.4733,7,0.38,9.9574
597463,1560688229468,1,2.25,2.48,2.8,2.25,2.23,0.52,-0.01,1.03,1,-0,-1,0.52,10474,100,87,32,85,1009,760.0,623,453,60,117.0,313,1,429,582,234,0,0,777,-31066,-10212,760,,,,,,,,,,,,
597483,1560688229488,-0,2.26,2.49,2.99,2.26,2.37,0.54,-0.11,0.96,-1,-0,-0,0.55,10689,100,87,32,85,1009,761.0,622,451,60,117.0,313,1,435,582,234,0,0,779,13016,-31066,758,,,,,,,,,,,,
597503,1560688229508,5,2.24,2.56,3.18,2.27,2.53,0.57,-0.11,0.86,-0,-0,-1,0.58,10788,100,87,32,85,1005,763.0,620,458,60,117.0,314,1,440,582,238,0,0,813,6389,5344,761,,,,,,,,,,,,
597523,1560688229528,3,2.24,2.6,3.31,2.31,2.77,0.56,-0.24,0.78,-1,-2,-2,0.61,11003,100,87,32,85,998,765.0,625,455,60,117.0,314,1,444,582,238,0,0,818,6900,-9995,765,,,,,,,,,,,,
597543,1560688229548,5,2.24,2.6,3.4,2.4,2.81,0.47,-0.18,0.7,-2,-1,-3,0.51,11343,100,87,32,85,988,766.0,637,457,60,117.0,314,1,441,582,238,0,0,842,-2570,-13312,768,45.701778,4.911397,73.52,198.2,6,1.6483,0,0.0,0.475,7,0.38,9.9591
597563,1560688229568,5,2.23,2.64,3.4,2.44,2.89,0.4,-0.14,0.71,-2,-3,-2,0.42,11559,100,87,32,84,975,772.0,636,459,60,117.0,314,1,440,564,238,0,0,856,-2570,-2826,768,,,,,,,,,,,,
597583,1560688229588,5,2.23,2.68,3.33,2.42,2.91,0.38,-0.01,0.69,-2,-2,-4,0.38,11770,100,87,32,83,959,778.0,640,460,60,117.0,314,1,440,568,238,0,0,855,-2574,-3348,768,,,,,,,,,,,,
597603,1560688229608,4,2.23,2.67,3.32,2.4,2.87,0.39,0.03,0.68,-2,-3,-5,0.39,12034,100,87,32,83,948,781.0,642,456,60,117.0,326,1,440,558,252,0,0,856,-2826,-5114,773,,,,,,,,,,,,
597623,1560688229628,3,2.24,2.67,3.29,2.4,2.78,0.32,0.05,0.66,-2,-5,-4,0.32,12112,100,87,32,83,942,787.0,641,457,60,116.0,326,1,440,560,252,0,0,913,3544,-31068,778,,,,,,,,,,,,
597643,1560688229648,2,2.24,2.68,3.13,2.36,2.66,0.25,0.08,0.79,-3,-4,-5,0.27,12112,100,87,32,83,933,791.0,646,457,60,117.0,326,1,440,560,252,0,0,889,-2826,-2426,777,45.701771,4.911419,76.11,198.2,6,1.6483,0,0.0,0.4767,7,0.38,9.9607
597663,1560688229668,4,2.25,2.7,2.94,2.3,2.51,0.26,0.02,0.85,-3,-2,-5,0.26,12019,100,87,32,83,916,801.0,645,458,60,117.0,326,1,440,560,252,0,0,840,-13072,-5120,784,,,,,,,,,,,,
597683,1560688229688,4,2.26,2.71,2.78,2.3,2.42,0.24,0.08,0.86,-3,-3,-5,0.25,11762,100,87,32,83,902,805.0,641,456,60,116.0,326,1,440,552,252,0,0,853,-2560,-10508,790,,,,,,,,,,,,
597703,1560688229708,6,2.27,2.71,2.68,2.32,2.41,0.19,0.21,0.94,-4,-8,-4,0.29,11446,100,87,32,83,891,809.0,637,458,60,117.0,303,1,441,545,241,0,0,855,-3450,6790,793,,,,,,,,,,,,
597723,1560688229728,3,2.27,2.72,2.62,2.31,2.42,0.3,0.04,0.95,-3,-9,-4,0.3,11200,100,87,32,84,877,813.0,633,456,60,117.0,303,1,442,564,241,0,0,834,-2830,-30694,793,,,,,,,,,,,,
597743,1560688229748,3,2.28,2.64,2.68,2.27,2.44,0.31,0.22,0.85,-3,-9,-3,0.38,11180,100,87,32,84,853,813.0,624,450,60,117.0,303,1,442,564,241,0,0,842,31988,-22795,812,45.701756,4.91144,77.22,198.1,6,1.6483,0,0.0,0.4783,7,0.38,9.9624
597763,1560688229768,6,2.27,2.5,2.94,2.15,2.55,0.26,0.22,0.89,-2,-4,-4,0.34,11281,100,87,32,84,832,820.0,638,457,60,117.0,303,1,441,564,241,0,0,846,-13580,-23308,818,,,,,,,,,,,,
597783,1560688229788,-0,2.28,2.45,3.15,2.12,2.64,0.24,0.14,0.97,-0,-3,-5,0.28,11439,100,87,32,84,820,825.0,626,457,60,117.0,303,1,440,564,241,0,0,851,3462,-23308,825,,,,,,,,,,,,
597803,1560688229808,7,2.28,2.46,3.16,2.14,2.6,0.3,0.11,1.03,0,-4,-6,0.32,11674,100,87,32,83,811,823.0,635,448,60,116.0,301,1,440,568,247,0,0,854,1037,-31068,825,,,,,,,,,,,,
597823,1560688229828,4,2.28,2.45,3.07,2.12,2.5,0.38,0.08,0.93,1,-5,-6,0.39,11777,100,87,32,83,817,831.0,627,449,60,117.0,301,1,440,553,247,0,0,849,-2314,8838,831,,,,,,,,,,,,
597843,1560688229848,7,2.27,2.44,2.96,2.13,2.38,0.47,0.09,1.02,0,-5,-5,0.48,11755,100,87,32,83,822,837.0,638,450,60,116.0,301,1,440,553,247,0,0,865,-30694,-10508,837,45.701744,4.911463,79.66,198.0,6,1.6483,0,0.0,0.48,7,0.38,9.9641
597863,1560688229868,5,2.28,2.44,2.88,2.13,2.33,0.5,0.11,1.07,-0,-5,-5,0.51,11674,83,87,32,82,841,839.0,630,447,60,116.0,301,1,440,541,247,0,0,866,136,-2311,840,,,,,,,,,,,,
597883,1560688229888,6,2.29,2.44,2.87,2.14,2.28,0.55,0.09,1.01,-0,-5,-5,0.56,11653,61,87,32,75,858,841.0,635,450,60,117.0,301,1,440,485,247,0,0,860,-2830,-10508,841,,,,,,,,,,,,
597903,1560688229908,13,2.28,2.41,2.89,2.13,2.28,0.62,0.14,0.95,0,-2,-6,0.64,11474,43,87,32,66,868,840.0,634,457,60,117.0,241,1,441,437,203,0,0,860,-2830,-1582,839,,,,,,,,,,,,
597923,1560688229928,13,2.27,2.38,3.02,2.12,2.36,0.63,0.02,1.0,1,-5,-7,0.63,11241,29,87,32,55,877,841.0,635,457,60,117.0,241,1,406,355,203,0,0,854,-4096,-2766,841,,,,,,,,,,,,
597943,1560688229948,15,2.29,2.27,3.16,2.08,2.52,0.65,0.13,0.95,1,-7,-7,0.67,10894,18,87,32,47,870,836.0,636,457,60,118.0,241,1,380,260,203,0,0,847,-30694,-10508,840,45.701733,4.911486,81.06,198.0,6,1.6483,0,0.0,0.4817,7,0.39,9.9657
597963,1560688229968,18,2.27,2.17,3.33,2.01,2.67,0.76,0.13,0.82,2,-5,-8,0.77,10738,13,87,32,42,861,835.0,637,460,60,117.0,241,1,342,231,203,0,0,829,-2314,-30694,835,,,,,,,,,,,,
597983,1560688229988,17,2.27,2.1,3.43,1.99,2.76,0.78,0.12,0.71,2,-6,-8,0.79,10492,12,87,32,38,836,834.0,630,457,60,118.0,241,1,317,217,203,0,0,825,-31066,-2358,834,,,,,,,,,,,,
598003,1560688229999,17,2.27,2.08,3.46,1.95,2.84,0.8,0.17,0.54,1,-4,-7,0.82,10341,12,87,32,35,811,830.0,630,455,60,118.0,101,1,308,215,85,0,0,814,-13068,-13068,830,,,,,,,,,,,,
598023,1560688230019,20,2.27,2.08,3.45,1.94,2.81,0.84,0.14,0.67,1,-1,-5,0.85,10168,12,87,32,33,793,827.0,618,459,60,117.0,101,1,302,212,85,0,0,803,3462,-388,826,,,,,,,,,,,,
598043,1560688230039,20,2.28,2.05,3.44,1.92,2.81,0.87,0.13,0.59,1,-1,-5,0.88,10229,12,87,32,32,776,822.0,618,461,60,117.0,101,1,300,212,85,0,0,788,-13580,-23308,822,45.701721,4.91151,83.23,197.9,6,1.6483,0,0.0,0.4833,7,0.39,9.9674
598063,1560688230059,22,2.28,2.03,3.41,1.89,2.78,0.93,0.1,0.59,1,-3,-6,0.93,10245,12,87,32,31,778,818.0,623,457,60,117.0,101,1,295,211,85,0,0,772,-2830,-2540,819,,,,,,,,,,,,
598083,1560688230079,20,2.28,1.99,3.4,1.83,2.79,0.9,-0.02,0.37,1,-1,-4,0.9,10302,12,87,32,30,780,813.0,630,455,60,118.0,101,1,291,210,85,0,0,770,-2830,-23308,811,,,,,,,,,,,,
598103,1560688230105,17,2.29,1.94,3.4,1.78,2.8,0.98,-0.13,0.31,1,1,-2,0.99,10376,12,87,32,29,795,809.0,630,458,60,118.0,101,1,287,209,82,0,0,781,-31068,6790,807,,,,,,,,,,,,
598123,1560688230125,18,2.29,1.91,3.43,1.75,2.78,1.03,-0.17,0.27,2,-3,-3,1.04,10359,12,87,32,29,814,803.0,631,458,60,118.0,101,1,287,209,82,0,0,760,-13312,-2826,804,,,,,,,,,,,,
598143,1560688230145,18,2.3,1.91,3.44,1.72,2.78,1.04,-0.09,0.23,1,-2,-2,1.04,10399,12,87,32,28,829,799.0,628,457,60,117.0,101,1,282,208,82,0,0,752,6905,-2830,799,45.70171,4.911534,82.64,197.8,6,1.6483,0,0.0,0.485,7,0.39,9.9691
598163,1560688230165,18,2.29,1.91,3.44,1.74,2.72,1.09,0.05,0.22,2,0,-1,1.09,10307,12,87,32,28,842,791.0,634,455,60,118.0,101,1,282,206,82,0,0,757,-2540,-2830,791,,,,,,,,,,,,
598183,1560688230185,24,2.3,1.92,3.43,1.78,2.7,1.04,0.09,0.23,2,1,-1,1.04,10324,12,87,31,27,842,785.0,626,456,60,117.0,101,1,278,206,82,0,0,770,-22795,6900,785,,,,,,,,,,,,
598203,1560688230205,19,2.3,1.94,3.45,1.85,2.75,1.14,0.05,0.28,2,-2,-2,1.14,10296,12,87,31,27,836,772.0,628,453,60,117.0,101,1,278,203,79,0,0,749,7413,-31068,772,,,,,,,,,,,,
598223,1560688230225,20,2.3,1.94,3.46,1.83,2.8,1.06,-0.07,0.35,2,-2,-2,1.07,10285,12,87,31,27,823,768.0,624,459,60,118.0,101,1,278,203,79,0,0,756,-10214,-23308,765,,,,,,,,,,,,
598243,1560688230245,19,2.3,1.93,3.5,1.82,2.85,1.0,-0.04,0.2,3,-1,0,1.0,10129,12,87,31,27,806,765.0,624,460,60,117.0,101,1,278,199,79,0,0,739,-2344,-13068,766,45.701698,4.911558,80.82,197.8,6,1.6483,0,0.0,0.4867,7,0.39,9.9707
598263,1560688230265,18,2.3,1.93,3.61,1.83,2.95,0.99,-0.01,0.12,3,-3,0,0.99,9994,12,87,31,27,793,765.0,619,462,60,118.0,101,1,278,193,79,0,0,730,-10218,-3344,766,,,,,,,,,,,,
598283,1560688230285,17,2.3,1.92,3.68,1.83,3.0,1.01,-0.09,0.25,3,-3,0,1.02,9842,12,87,31,26,781,763.0,627,461,60,117.0,101,1,274,190,79,0,0,709,-10218,-13580,765,,,,,,,,,,,,
598303,1560688230307,22,2.29,1.91,3.66,1.83,2.97,1.03,-0.12,0.16,3,1,-0,1.04,9659,12,87,31,26,774,761.0,618,462,60,118.0,90,1,274,189,69,0,0,703,-22795,-31066,763,,,,,,,,,,,,
598323,1560688230327,16,2.31,1.9,3.59,1.85,2.94,0.93,-0.0,0.05,4,-0,-1,0.93,9422,12,87,31,25,767,760.0,619,457,60,117.0,90,1,270,188,69,0,0,701,-23308,-25858,757,,,,,,,,,,,,
598343,1560688230347,17,2.31,1.88,3.55,1.85,2.88,1.02,-0.08,0.02,5,3,1,1.03,9333,12,87,31,24,766,755.0,612,457,60,118.0,90,1,270,181,69,0,0,706,-22796,-2830,755,45.701683,4.911581,78.62,197.7,6,1.6483,0,0.0,0.4883,7,0.4,9.9724
598363,1560688230367,16,2.29,1.84,3.49,1.81,2.82,1.12,-0.27,0.14,4,-4,2,1.16,9342,12,87,31,24,771,751.0,614,455,60,118.0,90,1,270,181,69,0,0,701,-2314,11576,751,,,,,,,,,,,,
598383,1560688230387,17,2.29,1.78,3.47,1.79,2.73,0.97,-0.23,0.12,5,-2,3,1.0,9356,12,87,31,23,781,743.0,612,453,60,119.0,90,1,270,176,69,0,0,708,-2826,6658,746,,,,,,,,,,,,
598403,1560688230407,17,2.29,1.75,3.53,1.76,2.72,0.88,-0.1,0.0,6,-0,4,0.88,9431,12,87,31,23,796,740.0,607,457,60,119.0,83,1,270,176,62,0,0,685,-2314,6208,737,,,,,,,,,,,,
598423,1560688230427,15,2.29,1.72,3.56,1.73,2.68,0.98,-0.21,0.15,6,-1,4,1.0,9398,12,87,31,22,809,735.0,604,454,60,119.0,83,1,270,170,62,0,0,670,-2918,-12152,735,,,,,,,,,,,,
598443,1560688230447,16,2.28,1.7,3.54,1.71,2.68,1.08,-0.34,0.24,5,2,5,1.13,9356,12,87,31,22,819,728.0,603,454,60,118.0,83,1,270,170,62,0,0,677,-25858,-10448,725,45.701672,4.911602,76.36,197.6,6,1.6483,0,0.0,0.49,7,0.4,9.974
598463,1560688230467,16,2.27,1.71,3.55,1.71,2.68,0.99,-0.32,0.17,5,0,3,1.04,9333,12,87,31,22,835,717.0,607,462,60,118.0,83,1,270,170,62,0,0,679,-23490,12333,717,,,,,,,,,,,,
598483,1560688230487,17,2.28,1.73,3.54,1.72,2.69,0.85,-0.13,0.02,5,2,3,0.86,9309,12,87,31,21,858,711.0,610,457,60,118.0,83,1,270,247,62,0,0,678,6658,-26892,707,,,,,,,,,,,,
598503,1560688230507,18,2.27,1.72,3.54,1.72,2.71,0.95,-0.08,-0.08,5,2,3,0.96,9309,12,87,31,22,876,703.0,614,462,60,116.0,124,1,270,242,88,0,0,679,19188,24,703,,,,,,,,,,,,
598523,1560688230527,18,2.26,1.72,3.53,1.72,2.74,1.06,-0.16,0.0,4,2,4,1.07,9209,12,87,31,21,887,700.0,614,453,60,117.0,124,1,270,213,88,0,0,679,-2830,-10346,698,,,,,,,,,,,,
598543,1560688230547,17,2.26,1.72,3.52,1.72,2.82,1.15,-0.32,0.08,2,-0,5,1.2,9101,12,87,31,20,901,698.0,612,460,60,116.0,124,1,270,187,88,0,0,673,16599,-2826,694,45.70166,4.911624,73.77,197.5,6,1.6483,0,0.0,0.4917,7,0.4,9.9757
598563,1560688230567,13,2.26,1.73,3.48,1.71,2.9,1.14,-0.38,0.2,1,-3,7,1.2,8984,12,87,31,20,922,693.0,608,459,60,117.0,124,1,270,171,88,0,0,675,11576,2024,689,,,,,,,,,,,,
598583,1560688230587,13,2.25,1.73,3.47,1.69,2.93,1.23,-0.48,0.23,1,-3,7,1.32,8877,12,87,31,21,940,691.0,599,461,60,117.0,124,1,270,164,88,0,0,667,1780,2024,687,,,,,,,,,,,,
598603,1560688230607,11,2.26,1.73,3.45,1.69,2.9,1.25,-0.48,0.33,1,-3,7,1.34,8790,12,87,31,21,948,686.0,595,453,60,117.0,79,1,270,164,55,0,0,658,6208,-3488,684,,,,,,,,,,,,
598623,1560688230627,4,2.28,1.73,3.44,1.69,2.84,1.33,-0.38,0.23,1,-0,7,1.38,8757,11,87,31,22,949,684.0,587,457,60,116.0,79,1,270,170,55,0,0,645,24845,8958,683,,,,,,,,,,,,
598643,1560688230647,7,2.28,1.74,3.41,1.68,2.81,1.14,-0.19,0.1,0,-0,8,1.16,8765,11,87,31,22,925,682.0,580,457,60,117.0,79,1,270,170,55,0,0,653,-10344,-388,681,45.701649,4.911644,71.31,197.5,6,1.6483,0,0.0,0.4933,7,0.4,9.9774
598663,1560688230667,4,2.3,1.78,3.34,1.7,2.73,1.09,-0.13,0.03,1,1,7,1.1,8782,11,87,31,22,900,681.0,583,458,60,116.0,79,1,270,170,55,0,0,662,-2345,-2830,678,,,,,,,,,,,,
598683,1560688230687,4,2.3,1.78,3.33,1.69,2.69,0.96,-0.03,0.09,1,2,6,0.96,8848,11,87,31,23,866,675.0,596,460,60,117.0,79,1,270,176,55,0,0,662,-10344,8958,675,,,,,,,,,,,,
598703,1560688230707,-1,2.31,1.78,3.32,1.7,2.68,1.06,-0.13,0.12,1,2,5,1.07,8877,11,87,31,23,836,673.0,595,458,60,117.0,86,1,270,176,58,0,0,655,-26380,-3488,672,,,,,,,,,,,,
598723,1560688230727,3,2.3,1.78,3.3,1.7,2.64,1.06,-0.19,0.2,1,2,5,1.07,8907,11,87,31,23,816,668.0,604,462,60,117.0,86,1,270,176,58,0,0,652,-2830,-388,668,,,,,,,,,,,,
598743,1560688230747,3,2.3,1.79,3.32,1.69,2.67,1.13,-0.31,0.24,2,2,6,1.17,8932,11,87,32,23,795,669.0,608,460,60,117.0,86,1,270,176,58,0,0,655,-10348,24583,669,45.701637,4.911663,68.83,197.4,6,1.6483,0,0.0,0.495,7,0.4,9.979
598763,1560688230767,3,2.29,1.79,3.34,1.71,2.67,1.19,-0.3,0.28,2,1,5,1.22,8928,11,87,32,23,808,667.0,608,461,60,117.0,86,1,270,176,58,0,0,654,-2826,8958,666,,,,,,,,,,,,
598783,1560688230787,5,2.3,1.79,3.33,1.74,2.64,1.27,-0.46,0.35,2,-1,5,1.35,8894,11,87,32,23,822,667.0,603,455,60,117.0,86,1,270,176,58,0,0,658,-2826,-6006,664,,,,,,,,,,,,
598803,1560688230809,3,2.31,1.78,3.36,1.74,2.62,1.27,-0.45,0.3,2,3,6,1.35,8844,11,87,32,23,861,664.0,595,462,60,117.0,88,1,270,176,59,0,0,645,-26380,-2830,660,,,,,,,,,,,,
598823,1560688230829,6,2.3,1.79,3.39,1.72,2.64,1.22,-0.39,0.33,3,1,6,1.28,8782,11,87,32,23,900,659.0,590,455,60,116.0,88,1,270,176,59,0,0,641,-388,-30207,659,,,,,,,,,,,,
598843,1560688230849,9,2.3,1.77,3.41,1.71,2.65,1.08,-0.3,0.32,4,4,5,1.12,8684,11,87,32,23,927,655.0,579,457,60,116.0,88,1,270,176,59,0,0,639,24583,6208,657,45.70163,4.911683,67.11,197.3,6,1.6483,0,0.0,0.4967,7,0.41,9.9807
598863,1560688230869,9,2.29,1.74,3.43,1.69,2.64,1.09,-0.31,0.37,4,2,4,1.13,8624,11,87,32,23,953,655.0,577,459,60,117.0,88,1,270,176,59,0,0,630,-6006,4909,655,,,,,,,,,,,,
598883,1560688230889,8,2.29,1.72,3.43,1.68,2.65,1.18,-0.4,0.42,3,3,4,1.25,8557,11,87,32,23,995,650.0,574,459,60,117.0,88,1,270,176,59,0,0,630,-6006,-10251,649,,,,,,,,,,,,
598903,1560688230909,14,2.28,1.74,3.38,1.69,2.64,1.09,-0.32,0.36,2,2,5,1.14,8518,11,87,32,23,1037,646.0,575,458,60,116.0,87,1,270,176,57,0,0,634,4909,-2580,642,,,,,,,,,,,,
598923,1560688230929,15,2.28,1.8,3.35,1.71,2.67,1.09,-0.31,0.32,3,3,4,1.13,8549,11,87,32,23,1060,640.0,578,456,60,116.0,87,1,270,176,57,0,0,633,6208,-1346,639,,,,,,,,,,,,
598943,1560688230949,13,2.27,1.82,3.32,1.72,2.67,1.14,-0.28,0.38,2,2,2,1.17,8522,11,87,32,23,1077,636.0,585,457,60,117.0,87,1,270,176,57,0,0,623,3,-18357,630,45.701618,4.911701,65.63,197.3,6,1.6483,0,0.0,0.4983,7,0.41,9.9824
598963,1560688230969,18,2.26,1.83,3.32,1.73,2.68,1.17,-0.2,0.26,2,-1,1,1.18,8472,11,87,32,23,1096,629.0,588,454,60,116.0,87,1,270,175,57,0,0,615,506,506,628,,,,,,,,,,,,
598983,1560688230989,17,2.27,1.81,3.34,1.71,2.71,1.2,-0.24,0.3,2,-1,1,1.23,8359,11,87,32,23,1116,626.0,580,455,60,117.0,87,1,270,169,57,0,0,615,3395,19621,621,,,,,,,,,,,,
599003,1560688231002,19,2.28,1.82,3.42,1.7,2.77,1.16,-0.18,0.28,2,-4,2,1.17,8245,11,87,32,23,1123,621.0,581,460,60,117.0,85,1,270,164,53,0,0,608,30721,-7939,621,,,,,,,,,,,,
599023,1560688231022,15,2.3,1.81,3.5,1.67,2.82,1.21,-0.3,0.23,2,-4,2,1.25,8177,11,87,32,23,1125,619.0,566,458,60,117.0,85,1,270,161,53,0,0,599,19320,243,619,,,,,,,,,,,,
599043,1560688231042,12,2.32,1.81,3.53,1.71,2.83,1.09,-0.29,0.26,2,-5,1,1.13,7992,11,87,32,23,1125,616.0,552,458,60,116.0,85,1,269,154,53,0,0,592,19304,243,615,45.701611,4.911719,64.19,197.3,6,1.6483,0,0.0,0.5,7,0.41,9.984
599063,1560688231062,11,2.33,1.8,3.56,1.73,2.8,1.04,-0.13,0.11,3,-1,2,1.05,7832,11,87,32,22,1124,613.0,548,457,60,118.0,85,1,268,151,53,0,0,592,-28304,-30139,618,,,,,,,,,,,,
599083,1560688231082,3,2.35,1.77,3.55,1.76,2.79,0.93,-0.12,-0.05,5,0,4,0.94,7760,11,87,32,22,1122,615.0,532,450,60,118.0,85,1,267,151,53,0,0,523,-30139,-3082,615,,,,,,,,,,,,
599103,1560688231108,3,2.34,1.76,3.55,1.79,2.76,1.04,-0.18,0.04,3,3,2,1.05,7918,11,87,32,22,1119,615.0,530,459,60,119.0,71,1,269,151,44,0,0,508,-3820,-3190,615,,,,,,,,,,,,
599123,1560688231128,3,2.35,1.77,3.5,1.84,2.69,1.04,-0.19,-0.01,4,4,3,1.05,7848,11,87,32,22,1103,611.0,542,457,60,117.0,71,1,268,151,44,0,0,497,4956,10408,607,,,,,,,,,,,,
599143,1560688231148,3,2.35,1.75,3.53,1.86,2.71,1.06,-0.26,0.08,6,1,3,1.09,8095,11,87,32,22,1081,608.0,546,456,60,119.0,71,1,270,154,44,0,0,553,-32504,1780,608,45.701599,4.911737,62.27,197.3,6,1.6483,0,0.0,0.5017,7,0.41,9.9857
599163,1560688231168,2,2.34,1.74,3.52,1.85,2.68,1.14,-0.3,0.11,6,1,4,1.18,8023,11,86,32,21,1061,602.0,551,457,60,118.0,71,1,270,149,44,0,0,531,-12040,14504,602,,,,,,,,,,,,
599183,1560688231188,4,2.34,1.72,3.5,1.87,2.63,1.17,-0.28,0.03,7,-0,5,1.2,8173,11,86,32,21,1042,600.0,556,453,60,117.0,71,1,270,154,44,0,0,567,15649,-8186,601,,,,,,,,,,,,
599203,1560688231208,-1,2.35,1.7,3.51,1.88,2.63,1.14,-0.41,0.01,8,-1,5,1.21,8230,11,86,32,21,1001,598.0,563,456,60,118.0,78,1,270,155,47,0,0,568,-16384,-8188,598,,,,,,,,,,,,
599223,1560688231228,4,2.34,1.69,3.56,1.9,2.65,1.05,-0.4,0.02,9,2,6,1.12,8314,11,86,33,21,943,594.0,568,455,60,118.0,78,1,270,158,47,0,0,557,-3210,2524,594,,,,,,,,,,,,
599243,1560688231248,3,2.35,1.66,3.58,1.91,2.64,1.1,-0.42,0.01,9,-2,6,1.18,8396,11,86,33,21,893,592.0,577,453,60,118.0,78,1,270,160,47,0,0,556,1760,2211,595,45.701592,4.911754,60.75,197.2,6,1.6483,0,0.0,0.5033,7,0.41,9.9874
599263,1560688231268,1,2.34,1.68,3.55,1.94,2.64,1.07,-0.51,0.01,9,-2,7,1.19,8419,11,86,33,21,854,589.0,578,461,60,118.0,78,1,270,161,47,0,0,548,1760,-22519,589,,,,,,,,,,,,
599283,1560688231288,5,2.34,1.67,3.54,1.94,2.63,1.0,-0.44,-0.06,10,-2,8,1.09,8518,11,86,33,21,823,587.0,577,455,60,118.0,78,1,270,164,47,0,0,558,-8186,-30159,582,,,,,,,,,,,,
599303,1560688231308,4,2.34,1.67,3.54,1.96,2.62,1.01,-0.42,-0.07,10,-2,8,1.1,8581,11,86,33,21,800,580.0,580,455,60,118.0,91,1,270,164,53,0,0,548,-30159,-28648,580,,,,,,,,,,,,
599323,1560688231328,1,2.35,1.68,3.56,1.96,2.61,1.03,-0.49,0.03,10,-3,9,1.14,8644,11,86,33,21,789,578.0,581,461,60,118.0,91,1,270,164,53,0,0,542,-23623,-32248,578,,,,,,,,,,,,
599343,1560688231348,0,2.35,1.67,3.56,1.97,2.61,1.03,-0.55,-0.01,10,-4,11,1.17,8708,13,86,33,21,805,575.0,580,457,60,118.0,91,1,270,164,53,0,0,547,-32504,-32248,575,45.701576,4.91177,59.36,197.2,6,1.6483,0,0.0,0.505,7,0.41,9.989
599363,1560688231368,-0,2.34,1.67,3.56,1.98,2.63,0.91,-0.48,-0.03,10,1,12,1.03,8741,16,86,33,21,824,569.0,581,457,60,117.0,91,1,270,164,53,0,0,539,-22359,1779,569,,,,,,,,,,,,
599383,1560688231388,3,2.34,1.67,3.57,1.98,2.64,0.78,-0.32,-0.07,10,-2,11,0.85,8861,22,86,33,23,845,569.0,582,455,60,117.0,91,1,270,170,53,0,0,529,-28648,-28648,568,,,,,,,,,,,,
599403,1560688231408,3,2.35,1.68,3.56,1.96,2.64,0.7,-0.29,-0.07,11,1,11,0.75,8903,27,86,33,25,862,565.0,594,459,60,118.0,107,1,270,188,61,0,0,533,2104,6274,565,,,,,,,,,,,,
599423,1560688231428,-1,2.36,1.69,3.56,1.98,2.63,0.63,-0.16,-0.15,11,-1,10,0.65,9141,31,86,33,28,867,562.0,603,453,60,117.0,107,1,282,188,61,0,0,528,-22519,2524,562,,,,,,,,,,,,
599443,1560688231448,-0,2.37,1.68,3.58,1.99,2.62,0.49,-0.06,-0.19,12,3,11,0.49,9337,34,86,33,32,872,558.0,618,455,60,117.0,107,1,300,192,61,0,0,526,1779,-2934,559,45.701569,4.911786,57.19,197.3,6,1.6483,0,0.0,0.5067,7,0.42,9.9907
599463,1560688231468,4,2.37,1.68,3.63,1.99,2.61,0.53,-0.2,-0.11,12,1,10,0.57,9532,35,86,33,34,875,556.0,623,453,60,118.0,107,1,305,203,61,0,0,512,-2934,6274,556,,,,,,,,,,,,
599483,1560688231488,0,2.37,1.67,3.63,1.98,2.61,0.68,-0.26,-0.14,12,1,10,0.73,9725,36,86,33,36,877,555.0,623,460,60,118.0,107,1,311,210,61,0,0,505,-30064,14504,555,,,,,,,,,,,,
599503,1560688231510,5,2.37,1.65,3.61,1.96,2.61,0.68,-0.41,-0.06,12,1,11,0.8,9904,38,86,33,38,875,551.0,626,452,60,118.0,142,1,317,215,79,0,0,512,-28648,10408,549,,,,,,,,,,,,
599523,1560688231530,2,2.38,1.67,3.55,1.97,2.59,0.7,-0.42,0.03,13,-0,10,0.81,10091,39,86,33,40,876,550.0,631,455,60,117.0,142,1,327,221,79,0,0,527,2524,1779,551,,,,,,,,,,,,
599543,1560688231550,3,2.37,1.67,3.6,2.0,2.55,0.77,-0.43,-0.01,13,3,10,0.88,10201,40,86,33,41,888,548.0,640,452,60,118.0,142,1,335,225,79,0,0,520,2524,1779,548,45.701557,4.9118,55.71,197.3,6,1.6483,0,0.0,0.5083,7,0.42,9.9924
599563,1560688231570,0,2.39,1.69,3.6,2.05,2.5,0.74,-0.42,-0.06,14,2,11,0.85,10234,40,86,33,43,901,546.0,630,457,60,118.0,142,1,350,229,79,0,0,523,-28648,-3082,546,,,,,,,,,,,,
599583,1560688231590,1,2.39,1.71,3.57,2.12,2.46,0.64,-0.43,0.05,14,1,12,0.77,10353,40,86,33,44,915,546.0,631,457,60,118.0,142,1,357,236,79,0,0,530,-32248,-506,546,,,,,,,,,,,,
599603,1560688231604,2,2.39,1.73,3.55,2.2,2.42,0.69,-0.46,0.17,14,1,13,0.82,10359,40,86,33,44,934,545.0,635,452,60,118.0,170,1,357,236,93,0,0,521,-32248,1780,545,,,,,,,,,,,,
599623,1560688231624,0,2.39,1.73,3.52,2.19,2.42,0.64,-0.44,0.23,14,3,14,0.78,10474,40,86,33,45,984,545.0,633,455,60,118.0,170,1,365,240,93,0,0,526,2088,6274,543,,,,,,,,,,,,
599643,1560688231644,-0,2.4,1.73,3.53,2.18,2.43,0.75,-0.53,0.4,14,-2,14,0.91,10486,40,86,33,45,1032,544.0,630,455,60,118.0,170,1,365,240,93,0,0,522,2088,-2934,544,45.70155,4.911814,54.1,197.3,6,1.6483,0,0.0,0.51,7,0.42,9.994
599663,1560688231664,1,2.39,1.72,3.56,2.18,2.44,0.65,-0.56,0.5,15,-1,15,0.86,10587,40,86,33,46,1068,544.0,635,457,60,117.0,170,1,372,244,93,0,0,525,-22519,1780,544,,,,,,,,,,,,
599683,1560688231684,2,2.38,1.74,3.58,2.2,2.45,0.67,-0.52,0.58,15,-2,18,0.85,10617,40,86,33,46,1103,545.0,640,455,60,118.0,170,1,372,244,93,0,0,528,2524,-2336,545,,,,,,,,,,,,
599703,1560688231710,2,2.38,1.8,3.61,2.25,2.44,0.64,-0.53,0.57,15,0,19,0.83,10605,40,86,33,46,1134,546.0,642,457,60,117.0,179,1,372,244,98,0,0,556,-9212,-28648,545,,,,,,,,,,,,
599723,1560688231730,2,2.38,1.82,3.59,2.26,2.41,0.6,-0.53,0.67,15,-3,20,0.8,10480,40,86,33,46,1164,548.0,645,453,60,118.0,179,1,372,244,98,0,0,586,10408,-22359,545,,,,,,,,,,,,
599743,1560688231750,0,2.38,1.87,3.46,2.26,2.37,0.46,-0.49,0.73,15,1,21,0.67,10474,40,86,33,46,1163,546.0,635,451,60,118.0,179,1,372,244,98,0,0,537,-28648,-22359,546,45.701538,4.911827,53.69,197.2,6,1.6483,0,0.0,0.5117,7,0.42,9.9957
599763,1560688231770,1,2.37,1.88,3.45,2.25,2.33,0.51,-0.47,0.78,15,2,21,0.7,10319,35,86,33,45,1159,552.0,630,454,60,118.0,179,1,365,240,98,0,0,548,-9072,6274,552,,,,,,,,,,,,
599783,1560688231790,2,2.37,1.88,3.41,2.24,2.3,0.53,-0.49,0.79,15,2,20,0.72,10240,31,86,33,43,1152,551.0,627,454,60,118.0,179,1,350,233,98,0,0,552,-22519,-22359,550,,,,,,,,,,,,
599803,1560688231808,4,2.37,1.88,3.43,2.26,2.33,0.61,-0.5,0.81,15,-1,19,0.79,10086,29,86,33,40,1146,550.0,621,454,60,117.0,160,1,327,221,88,0,0,549,14504,6273,551,,,,,,,,,,,,
599823,1560688231828,3,2.35,1.88,3.45,2.25,2.34,0.66,-0.48,0.72,14,-2,20,0.81,10037,29,86,33,38,1143,552.0,627,459,60,118.0,160,1,317,216,88,0,0,541,2104,2524,552,,,,,,,,,,,,
599843,1560688231848,5,2.36,1.89,3.42,2.25,2.39,0.6,-0.4,0.75,13,-1,19,0.73,10053,29,86,33,37,1141,549.0,622,456,60,118.0,160,1,314,215,88,0,0,543,6274,14504,549,45.701527,4.911837,53.16,197.3,6,1.6483,0,0.0,0.5133,7,0.42,9.9974
599863,1560688231868,5,2.34,1.91,3.42,2.23,2.4,0.69,-0.43,0.74,13,-2,18,0.81,10010,28,86,33,35,1132,548.0,626,453,60,117.0,160,1,308,212,88,0,0,536,-32248,6274,548,,,,,,,,,,,,
599883,1560688231888,3,2.34,1.9,3.43,2.2,2.43,0.69,-0.4,0.71,12,-5,17,0.8,9984,28,86,33,35,1122,548.0,628,457,60,117.0,160,1,308,211,88,0,0,536,2104,2524,550,,,,,,,,,,,,
599903,1560688231908,7,2.34,1.88,3.43,2.16,2.44,0.75,-0.33,0.68,12,1,17,0.82,10016,28,86,34,34,1113,550.0,631,458,60,118.0,143,1,305,210,79,0,0,534,-28648,-506,548,,,,,,,,,,,,
599923,1560688231928,16,2.33,1.85,3.45,2.1,2.47,0.85,-0.34,0.66,11,-3,16,0.92,9952,23,86,34,33,1105,545.0,633,456,60,117.0,143,1,302,208,79,0,0,533,-22519,-3082,545,,,,,,,,,,,,
599943,1560688231948,15,2.31,1.83,3.44,2.06,2.5,0.81,-0.3,0.63,10,-4,15,0.86,9904,18,86,34,31,1087,540.0,631,455,60,118.0,143,1,295,203,79,0,0,520,-22519,-8186,540,45.701519,4.911847,53.02,197.4,6,1.6483,0,0.0,0.515,7,0.42,9.9991
599963,1560688231968,21,2.3,1.83,3.44,1.97,2.56,0.87,-0.29,0.45,10,-2,15,0.91,9806,15,86,34,28,1066,537.0,622,452,60,117.0,143,1,282,194,79,0,0,522,-28648,-22519,537,,,,,,,,,,,,
599983,1560688231988,18,2.3,1.83,3.44,1.92,2.58,0.89,-0.32,0.44,10,-4,13,0.94,9635,13,86,34,26,1049,535.0,619,454,60,118.0,143,1,274,189,79,0,0,514,2088,6274,532,,,,,,,,,,,,
600003,1560688232003,20,2.29,1.83,3.46,1.93,2.57,0.79,-0.25,0.33,10,1,13,0.83,9346,12,86,34,25,1036,529.0,618,454,60,117.0,126,1,270,188,67,0,0,514,-8187,2088,527,,,,,,,,,,,,
600023,1560688232023,20,2.28,1.85,3.46,1.93,2.56,0.77,-0.09,0.24,9,-2,13,0.78,9128,11,86,33,25,1014,523.0,613,455,60,118.0,126,1,270,181,67,0,0,506,17136,15679,520,,,,,,,,,,,,
600043,1560688232043,19,2.28,1.88,3.46,1.91,2.57,0.79,0.02,0.18,8,-3,13,0.79,8903,11,86,33,24,989,515.0,616,456,60,118.0,126,1,270,181,67,0,0,500,10994,17136,516,45.701504,4.911857,53.14,197.4,6,1.6483,0,0.0,0.5167,7,0.43,10.0007
600063,1560688232063,14,2.29,1.88,3.44,1.9,2.63,0.76,0.11,0.05,7,-3,13,0.77,8692,10,86,33,24,969,513.0,607,457,60,118.0,126,1,270,181,67,0,0,500,10994,-3414,510,,,,,,,,,,,,
600083,1560688232083,15,2.29,1.87,3.43,1.9,2.7,0.72,0.19,0.09,7,-3,12,0.75,8507,10,86,33,23,956,509.0,592,454,60,117.0,126,1,270,176,67,0,0,496,6274,10408,507,,,,,,,,,,,,
600103,1560688232107,17,2.28,1.83,3.48,1.84,2.78,0.85,0.12,0.16,7,-6,11,0.86,8511,9,86,33,23,939,504.0,585,457,60,118.0,110,1,270,176,56,0,0,470,15661,32033,504,,,,,,,,,,,,
600123,1560688232127,18,2.29,1.79,3.57,1.81,2.87,0.83,0.07,0.11,6,-4,11,0.84,8499,9,86,33,22,920,501.0,579,455,60,118.0,110,1,270,169,56,0,0,416,-22519,-3322,501,,,,,,,,,,,,
600143,1560688232147,17,2.29,1.78,3.57,1.8,2.97,0.8,0.03,0.14,5,-6,10,0.8,8322,9,86,33,22,906,500.0,574,456,60,118.0,110,1,270,163,56,0,0,405,998,-3856,500,45.701496,4.911867,52.42,197.4,6,1.6483,0,0.0,0.5183,7,0.43,10.0024
600163,1560688232167,17,2.29,1.79,3.54,1.79,2.97,0.82,0.13,0.0,5,-4,11,0.83,8088,8,86,33,22,900,495.0,557,460,60,118.0,110,1,270,154,56,0,0,420,-32768,21580,495,,,,,,,,,,,,
600183,1560688232187,15,2.27,1.82,3.54,1.79,2.88,0.68,0.13,0.02,6,-1,11,0.7,7931,8,86,33,22,902,491.0,546,457,60,118.0,110,1,269,151,56,0,0,454,1,8488,491,,,,,,,,,,,,
600203,1560688232207,15,2.27,1.84,3.54,1.79,2.84,0.75,-0.05,0.09,5,-3,10,0.75,7793,8,86,33,22,913,485.0,540,453,60,118.0,90,1,267,151,44,0,0,441,32033,-3267,484,,,,,,,,,,,,
600223,1560688232227,19,2.25,1.82,3.48,1.77,2.82,0.88,-0.05,0.09,3,-3,9,0.88,7858,8,86,33,22,924,480.0,536,455,60,118.0,90,1,268,149,44,0,0,422,-17956,18584,480,,,,,,,,,,,,
600243,1560688232247,19,2.25,1.76,3.48,1.72,2.82,0.88,0.05,0.05,2,-1,9,0.88,7878,8,86,33,21,940,473.0,539,455,60,117.0,90,1,268,149,44,0,0,413,3576,-26615,472,45.701481,4.911876,50.49,197.4,6,1.6483,0,0.0,0.52,7,0.43,10.0041
600263,1560688232267,20,2.24,1.75,3.46,1.64,2.85,0.83,0.09,0.05,2,0,10,0.83,7793,8,86,33,21,960,470.0,544,454,60,118.0,90,1,267,149,44,0,0,409,8488,2524,470,,,,,,,,,,,,
600283,1560688232287,15,2.24,1.75,3.35,1.61,2.88,0.82,-0.01,0.11,2,1,9,0.82,7760,8,86,33,21,988,465.0,540,455,60,118.0,90,1,267,149,44,0,0,453,30272,6384,463,,,,,,,,,,,,
600303,1560688232307,16,2.24,1.75,3.31,1.58,2.87,0.88,0.03,0.1,2,0,6,0.88,7728,8,86,33,21,1012,460.0,538,453,60,118.0,93,1,267,149,43,0,0,443,-23623,-8151,456,,,,,,,,,,,,
600323,1560688232327,16,2.24,1.74,3.34,1.59,2.84,1.0,0.04,0.07,1,-1,4,1.0,7754,8,86,33,21,1024,455.0,538,455,60,118.0,93,1,267,149,43,0,0,397,-26615,-4082,451,,,,,,,,,,,,
600343,1560688232347,17,2.24,1.74,3.38,1.59,2.82,1.08,0.1,-0.01,1,-1,4,1.08,7738,8,86,33,21,1032,448.0,537,453,60,117.0,93,1,267,149,43,0,0,383,8488,-3856,445,45.701473,4.911884,49.29,197.4,6,1.6483,0,0.0,0.5217,7,0.43,10.0057
600363,1560688232367,14,2.22,1.74,3.4,1.58,2.8,1.09,0.17,-0.07,-0,1,4,1.1,7640,8,86,33,21,1028,447.0,532,455,60,118.0,93,1,266,149,43,0,0,409,10305,-4082,439,,,,,,,,,,,,
600383,1560688232387,12,2.22,1.77,3.38,1.57,2.79,1.07,0.18,-0.07,-1,2,4,1.08,7618,8,86,34,21,1023,443.0,529,460,60,119.0,93,1,266,149,43,0,0,426,-18341,18584,434,,,,,,,,,,,,
600403,1560688232407,13,2.21,1.83,3.38,1.56,2.81,0.91,0.3,-0.12,-1,2,4,0.95,7615,8,86,34,21,1006,438.0,529,452,60,119.0,99,1,266,149,43,0,0,415,21580,-3968,427,,,,,,,,,,,,
600423,1560688232427,9,2.21,1.89,3.38,1.55,2.83,0.84,0.33,-0.14,-1,3,3,0.9,7656,8,86,34,21,983,434.0,528,460,60,118.0,99,1,266,149,43,0,0,411,-768,-1818,421,,,,,,,,,,,,
600443,1560688232447,8,2.21,1.95,3.38,1.55,2.86,0.74,0.32,-0.11,-1,4,1,0.81,7609,8,86,34,21,927,431.0,524,447,60,119.0,99,1,266,149,43,0,0,408,1779,11545,418,45.701462,4.911893,45.75,197.5,6,1.6483,0,0.0,0.5233,7,0.43,10.0074
600463,1560688232467,3,2.2,2.02,3.38,1.59,2.85,0.79,0.33,-0.06,-2,4,-0,0.86,7591,8,86,34,21,871,430.0,519,457,60,118.0,99,1,265,149,43,0,0,404,-3314,2524,414,,,,,,,,,,,,
600483,1560688232487,2,2.2,2.04,3.36,1.62,2.85,0.72,0.27,0.03,-2,4,-1,0.77,7512,8,86,34,21,832,426.0,523,455,60,118.0,99,1,265,149,43,0,0,407,13552,10392,413,,,,,,,,,,,,
600503,1560688232507,-0,2.21,2.05,3.3,1.66,2.84,0.83,0.25,0.1,-2,3,-1,0.87,7518,8,86,34,21,793,420.0,522,454,60,119.0,101,1,265,149,42,0,0,410,-8165,-9211,411,,,,,,,,,,,,
600523,1560688232527,0,2.19,2.05,3.24,1.66,2.85,0.95,0.21,0.21,-3,1,-3,0.97,7503,8,86,34,21,772,418.0,521,443,60,118.0,101,1,265,149,42,0,0,409,-3414,6512,407,,,,,,,,,,,,
600543,1560688232547,0,2.19,2.03,3.23,1.65,2.86,1.04,0.2,0.21,-4,1,-3,1.06,7530,7,86,34,21,752,414.0,524,428,60,118.0,101,1,265,149,42,0,0,402,2524,-32702,407,45.701454,4.911902,43.62,197.5,6,1.6483,0,0.0,0.525,7,0.43,10.0091
600563,1560688232567,0,2.18,2.02,3.23,1.63,2.92,1.11,0.21,0.21,-4,2,-2,1.13,7500,7,86,34,21,768,411.0,529,445,60,118.0,101,1,265,149,42,0,0,402,-4059,-6656,405,,,,,,,,,,,,
600583,1560688232587,0,2.18,2.01,3.23,1.64,2.93,1.1,0.3,0.25,-3,2,-2,1.14,7503,7,86,34,21,786,412.0,524,448,60,118.0,101,1,265,149,42,0,0,403,13040,-32702,404,,,,,,,,,,,,
600603,1560688232607,-0,2.19,2.0,3.23,1.69,2.94,1.19,0.24,0.42,-3,1,-4,1.22,7455,7,86,34,21,806,411.0,528,450,60,119.0,104,1,264,149,42,0,0,398,-4059,-32702,402,,,,,,,,,,,,
600623,1560688232627,4,2.19,2.02,3.23,1.78,2.9,1.22,0.2,0.45,-3,-0,-4,1.24,7440,7,86,34,21,825,407.0,524,446,60,118.0,104,1,264,149,42,0,0,403,-26615,1,403,,,,,,,,,,,,
600643,1560688232647,7,2.18,2.02,3.23,1.8,2.9,1.22,0.11,0.48,-3,-0,-4,1.22,7373,7,86,34,21,831,405.0,521,442,60,119.0,104,1,263,146,42,0,0,396,-9211,-6656,398,45.701443,4.911909,42.86,197.5,6,1.6483,0,0.0,0.5267,7,0.43,10.0107
600663,1560688232667,6,2.19,2.01,3.22,1.79,2.88,1.26,0.03,0.52,-3,1,-3,1.26,7352,7,86,34,21,832,405.0,515,448,60,118.0,104,1,263,149,42,0,0,396,-9211,-6524,397,,,,,,,,,,,,
600683,1560688232687,6,2.19,2.01,3.22,1.79,2.87,1.13,0.01,0.41,-3,3,-4,1.13,7275,7,86,34,21,834,403.0,512,427,60,119.0,104,1,262,149,42,0,0,392,-8151,-6524,394,,,,,,,,,,,,
600703,1560688232707,6,2.19,2.01,3.23,1.76,2.85,0.96,0.07,0.26,-3,2,-6,0.97,7242,7,86,34,21,836,399.0,509,442,60,117.0,104,1,262,149,41,0,0,392,28696,-19126,391,,,,,,,,,,,,
600723,1560688232727,9,2.18,2.01,3.25,1.75,2.86,1.02,0.18,0.2,-5,-0,-7,1.04,7164,7,86,34,21,838,397.0,505,441,60,117.0,104,1,261,149,41,0,0,384,-3968,8200,386,,,,,,,,,,,,
600743,1560688232747,15,2.17,2.01,3.29,1.72,2.85,1.12,0.19,0.31,-6,-1,-7,1.13,7126,7,86,34,21,839,394.0,502,449,60,119.0,104,1,261,149,41,0,0,383,-1818,770,381,45.701435,4.911917,41.29,197.5,6,1.6483,0,0.0,0.5283,7,0.43,10.0124
600763,1560688232767,13,2.16,2.01,3.35,1.69,2.85,1.21,0.1,0.35,-6,-2,-6,1.21,7048,7,86,34,21,845,392.0,502,448,60,119.0,104,1,260,149,41,0,0,375,1,770,378,,,,,,,,,,,,
600783,1560688232787,11,2.15,2.01,3.35,1.64,2.87,1.05,0.17,0.11,-7,-0,-7,1.06,6913,7,86,34,21,851,390.0,500,441,60,117.0,104,1,260,148,41,0,0,375,-1562,0,375,,,,,,,,,,,,
600803,1560688232809,16,2.13,2.04,3.32,1.6,2.86,1.15,0.22,0.3,-9,-3,-8,1.17,6833,7,86,34,22,858,387.0,491,426,60,119.0,102,1,260,150,38,0,0,379,240,-14707,366,,,,,,,,,,,,
600823,1560688232829,16,2.11,2.07,3.32,1.56,2.89,1.1,0.29,0.11,-9,-1,-9,1.13,6781,7,86,34,22,863,383.0,488,412,60,119.0,102,1,260,150,38,0,0,372,-19126,-6640,358,,,,,,,,,,,,
600843,1560688232849,20,2.11,2.06,3.32,1.51,2.92,1.18,0.32,0.3,-11,-2,-11,1.22,6720,7,86,34,22,872,380.0,485,420,60,119.0,102,1,260,150,38,0,0,366,-992,-30438,355,45.701424,4.911925,40.26,197.5,6,1.6483,0,0.0,0.53,7,0.44,10.014
600863,1560688232869,18,2.1,2.06,3.32,1.48,2.95,1.18,0.35,0.18,-11,-2,-12,1.23,6599,7,86,34,22,881,376.0,488,432,60,118.0,102,1,261,152,38,0,0,363,3,3346,350,,,,,,,,,,,,
600883,1560688232889,19,2.1,2.07,3.33,1.44,2.99,1.15,0.31,0.23,-13,-3,-12,1.19,6501,7,86,34,23,889,376.0,480,413,60,119.0,102,1,262,152,38,0,0,360,3,-12032,344,,,,,,,,,,,,
600903,1560688232909,20,2.1,2.08,3.32,1.42,3.0,1.11,0.26,0.29,-13,-4,-13,1.14,6397,6,86,34,23,893,371.0,466,419,60,118.0,107,1,263,152,37,0,0,361,257,-24576,337,,,,,,,,,,,,
600923,1560688232929,20,2.11,2.09,3.31,1.41,3.01,1.05,0.43,0.23,-14,-4,-13,1.13,6270,6,86,34,24,896,366.0,456,433,60,117.0,107,1,266,155,37,0,0,356,230,130,334,,,,,,,,,,,,
600943,1560688232949,22,2.11,2.09,3.3,1.4,2.99,0.97,0.59,0.07,-13,-1,-13,1.13,6155,6,86,34,24,900,363.0,448,421,60,117.0,107,1,266,155,37,0,0,348,-14707,-30976,327,45.70142,4.911932,38.38,197.5,6,1.6483,0,0.0,0.5317,7,0.44,10.0157
600963,1560688232969,21,2.11,2.09,3.32,1.37,3.0,0.92,0.7,-0.04,-13,3,-14,1.16,6054,6,86,34,25,902,355.0,441,422,60,118.0,107,1,270,159,37,0,0,347,2060,120,324,,,,,,,,,,,,
600983,1560688232989,19,2.11,2.07,3.32,1.37,3.0,0.88,0.8,-0.19,-13,7,-15,1.19,5959,6,86,34,26,902,353.0,431,426,60,118.0,107,1,271,160,37,0,0,339,-6644,90,323,,,,,,,,,,,,
601003,1560688233002,15,2.13,2.05,3.33,1.37,2.96,0.79,0.84,-0.24,-13,10,-16,1.16,5857,6,86,34,26,902,348.0,421,422,60,117.0,109,1,270,160,35,0,0,330,-1246,90,320,,,,,,,,,,,,
601023,1560688233022,12,2.14,2.03,3.33,1.38,2.91,0.6,0.81,-0.22,-11,11,-17,1.01,5767,6,86,34,27,904,345.0,414,423,60,119.0,109,1,272,161,35,0,0,327,6870,115,317,,,,,,,,,,,,
601043,1560688233042,12,2.16,2.02,3.31,1.36,2.9,0.57,0.83,-0.14,-10,7,-17,1.01,5709,6,86,34,27,906,339.0,410,419,60,118.0,109,1,271,161,35,0,0,322,-122,105,314,45.701412,4.911941,38.06,197.5,6,1.6483,0,0.0,0.5333,7,0.44,10.0174
601063,1560688233062,12,2.18,2.01,3.3,1.38,2.9,0.72,0.76,-0.03,-12,2,-18,1.05,5714,6,86,34,28,907,334.0,407,416,60,119.0,109,1,274,162,35,0,0,319,-6528,23040,311,,,,,,,,,,,,
601083,1560688233082,12,2.22,2.0,3.31,1.4,2.89,0.85,0.6,0.04,-14,2,-19,1.04,5690,6,86,34,29,910,327.0,408,411,60,118.0,109,1,275,162,35,0,0,314,-22016,24320,306,,,,,,,,,,,,
601103,1560688233106,13,2.25,1.97,3.33,1.42,2.88,0.87,0.52,0.06,-14,5,-20,1.01,5644,6,86,34,30,914,323.0,406,428,60,118.0,111,1,277,163,34,0,0,298,-27136,24320,304,,,,,,,,,,,,
601123,1560688233126,8,2.29,1.94,3.33,1.49,2.85,0.66,0.45,0.08,-9,7,-20,0.8,5610,6,86,34,31,918,314.0,401,428,60,119.0,111,1,279,164,34,0,0,298,135,95,303,,,,,,,,,,,,
601143,1560688233146,7,2.32,1.9,3.33,1.58,2.84,0.74,0.44,0.11,-7,3,-19,0.86,5545,6,86,34,31,918,307.0,400,435,60,119.0,111,1,277,163,34,0,0,296,30720,85,302,45.701401,4.911949,36.87,197.4,6,1.6483,0,0.0,0.535,7,0.44,10.019
601163,1560688233166,9,2.35,1.86,3.34,1.68,2.81,0.87,0.42,0.16,-8,4,-17,0.96,5477,6,86,34,32,919,302.0,392,441,60,118.0,111,1,279,163,34,0,0,291,100,23040,302,,,,,,,,,,,,
601183,1560688233186,4,2.39,1.81,3.35,1.76,2.76,0.73,0.28,0.15,-5,5,-14,0.78,5417,6,86,34,33,911,302.0,392,455,60,119.0,111,1,281,169,34,0,0,288,23040,23040,304,,,,,,,,,,,,
601203,1560688233208,7,2.41,1.77,3.36,1.83,2.73,0.86,0.24,0.19,-3,1,-11,0.89,5392,6,86,34,33,901,302.0,393,453,60,118.0,112,1,280,174,34,0,0,282,0,23040,302,,,,,,,,,,,,
601223,1560688233228,1,2.46,1.74,3.36,1.89,2.69,0.73,0.1,0.21,-2,3,-8,0.74,5338,6,86,34,34,890,302.0,390,444,60,117.0,112,1,283,174,34,0,0,282,10686,21760,302,,,,,,,,,,,,
601243,1560688233248,5,2.49,1.72,3.37,1.95,2.67,0.84,-0.01,0.25,2,-2,-5,0.84,5319,6,86,34,35,880,301.0,384,444,60,119.0,112,1,287,179,34,0,0,281,24064,20480,301,45.701401,4.911957,32.79,197.4,6,1.6483,0,0.0,0.5367,7,0.44,10.0207
601263,1560688233268,1,2.52,1.71,3.42,2.0,2.65,0.78,-0.09,0.27,3,4,-2,0.79,5289,6,86,34,36,877,301.0,384,453,60,117.0,112,1,290,185,34,0,0,276,-1534,0,301,,,,,,,,,,,,
601283,1560688233288,5,2.56,1.7,3.49,2.02,2.63,0.8,-0.15,0.26,7,-0,2,0.81,5243,6,86,34,36,872,300.0,378,449,60,119.0,112,1,290,185,34,0,0,269,-1527,80,300,,,,,,,,,,,,
601303,1560688233308,-2,2.6,1.7,3.53,2.11,2.6,0.84,-0.25,0.28,7,2,5,0.87,5221,6,86,34,37,878,300.0,375,449,60,118.0,119,1,294,191,36,0,0,267,250,23040,301,,,,,,,,,,,,
601323,1560688233328,4,2.64,1.7,3.58,2.17,2.58,0.78,-0.31,0.3,11,-2,9,0.84,5221,6,86,34,38,884,300.0,370,451,60,119.0,119,1,298,191,36,0,0,260,-1,80,300,,,,,,,,,,,,
601343,1560688233348,-2,2.69,1.7,3.63,2.18,2.57,0.72,-0.35,0.33,12,3,11,0.79,5179,6,86,34,38,877,300.0,367,448,60,117.0,119,1,297,196,36,0,0,258,-1,80,300,45.701393,4.911965,30.94,197.3,6,1.6483,0,0.0,0.5383,7,0.44,10.0224
601363,1560688233368,1,2.72,1.68,3.66,2.2,2.54,0.85,-0.4,0.32,15,-2,15,0.93,5117,6,86,34,38,871,301.0,363,453,60,120.0,119,1,296,196,36,0,0,256,-1,80,301,,,,,,,,,,,,
601383,1560688233388,0,2.76,1.66,3.69,2.2,2.52,0.67,-0.48,0.34,17,-1,17,0.82,5084,6,86,34,39,859,301.0,362,455,60,119.0,119,1,300,203,36,0,0,253,-1,21760,301,,,,,,,,,,,,
601403,1560688233410,-0,2.8,1.65,3.69,2.21,2.51,0.8,-0.55,0.35,19,-0,20,0.97,5028,6,86,34,39,846,300.0,358,453,60,117.0,126,1,300,203,38,0,0,245,506,80,300,,,,,,,,,,,,
601423,1560688233430,3,2.85,1.65,3.7,2.2,2.51,0.91,-0.61,0.33,22,-4,25,1.09,4978,6,86,34,40,833,300.0,354,454,60,119.0,126,1,298,203,38,0,0,239,-1,80,300,,,,,,,,,,,,
601443,1560688233450,1,2.89,1.65,3.7,2.19,2.51,0.77,-0.67,0.33,23,-3,28,1.02,4939,8,86,34,41,821,300.0,353,460,60,118.0,126,1,298,204,38,0,0,230,-1,0,300,45.701386,4.911972,30.5,197.2,6,1.6483,0,0.0,0.54,7,0.44,10.024
601463,1560688233470,0,0.32,1.63,3.71,2.21,2.48,0.76,-0.71,0.33,25,1,30,1.04,4867,13,86,34,43,819,299.0,350,451,60,117.0,126,1,298,206,38,0,0,227,250,0,299,,,,,,,,,,,,
601483,1560688233490,0,0.38,1.61,3.7,2.21,2.44,0.86,-0.73,0.3,27,1,34,1.13,4808,21,86,34,45,819,298.0,346,448,60,119.0,126,1,299,209,38,0,0,221,-1494,80,298,,,,,,,,,,,,
601503,1560688233508,2,0.42,1.6,3.71,2.21,2.43,0.95,-0.71,0.32,29,-3,36,1.18,4775,29,86,34,50,816,298.0,343,449,60,119.0,129,1,300,222,39,0,0,224,-1445,0,298,,,,,,,,,,,,
601523,1560688233528,4,0.44,1.57,3.7,2.21,2.44,0.85,-0.83,0.34,32,-4,38,1.19,4775,34,87,34,56,814,295.0,336,455,60,119.0,129,1,297,239,39,0,0,228,-1484,41,295,,,,,,,,,,,,
601543,1560688233548,-0,0.43,1.57,3.71,2.22,2.43,0.75,-0.85,0.27,33,-1,40,1.14,4907,38,87,34,62,811,295.0,341,463,60,119.0,129,1,294,273,39,0,0,217,13468,41,295,45.701382,4.911978,28.72,197.2,6,1.6483,0,0.0,0.5417,7,0.44,10.0257
601563,1560688233568,-2,0.43,1.57,3.71,2.22,2.43,0.82,-0.89,0.23,35,-3,43,1.21,4966,42,87,34,68,808,294.0,342,453,60,118.0,129,1,285,316,39,0,0,215,250,0,294,,,,,,,,,,,,
601583,1560688233588,4,0.42,1.58,3.71,2.23,2.43,0.89,-0.91,0.18,37,-4,46,1.27,5030,47,87,34,74,808,295.0,346,453,60,119.0,129,1,284,343,39,0,0,211,250,250,295,,,,,,,,,,,,
601603,1560688233606,-1,0.43,1.57,3.71,2.25,2.43,0.77,-0.91,0.18,37,-2,48,1.2,5108,55,87,35,80,809,295.0,352,460,60,117.0,241,1,288,415,71,0,0,218,8704,1886,295,,,,,,,,,,,,
601623,1560688233626,3,0.43,1.58,3.71,2.26,2.43,0.9,-0.85,0.22,39,-5,54,1.24,5110,64,87,35,86,811,293.0,353,450,60,119.0,241,1,286,466,71,0,0,222,10824,250,293,,,,,,,,,,,,
601643,1560688233646,1,0.43,1.58,3.71,2.25,2.43,0.75,-0.97,0.32,41,-3,55,1.23,5096,70,87,35,91,814,291.0,348,459,60,119.0,241,1,282,503,71,0,0,226,18432,630,292,45.701378,4.911984,28.28,197.1,6,1.6483,0,0.0,0.5433,7,0.44,10.0274
601663,1560688233666,-1,0.43,1.58,3.71,2.24,2.43,0.78,-0.97,0.29,41,-2,56,1.24,5162,74,87,35,93,822,289.0,342,443,60,118.0,241,1,285,567,71,0,0,230,250,250,289,,,,,,,,,,,,
601683,1560688233686,0,0.42,1.58,3.71,2.24,2.39,0.85,-1.07,0.36,43,-5,55,1.37,5201,76,87,35,95,833,288.0,279,463,60,119.0,241,1,286,566,71,0,0,233,-1496,1886,288,,,,,,,,,,,,
601703,1560688233706,2,0.41,1.58,3.71,2.23,2.34,0.82,-1.0,0.33,43,-3,54,1.29,5313,77,87,35,95,841,289.0,256,449,60,117.0,386,1,290,579,112,0,0,243,-1496,630,289,,,,,,,,,,,,
601723,1560688233726,1,0.41,1.58,3.71,2.23,2.31,0.83,-1.1,0.34,46,-7,54,1.38,5387,77,87,35,95,849,289.0,281,462,60,119.0,386,1,293,575,112,0,0,279,-1496,250,289,,,,,,,,,,,,
601743,1560688233746,4,0.41,1.57,3.71,2.24,2.32,0.94,-1.01,0.32,46,-8,54,1.38,5448,78,87,35,95,887,290.0,260,453,60,118.0,386,1,296,571,112,0,0,318,10318,-1534,290,45.70137,4.911988,27.77,196.9,6,1.6483,0,0.0,0.545,7,0.44,10.029
601763,1560688233766,1,0.4,1.57,3.71,2.24,2.31,0.81,-1.03,0.3,46,-7,55,1.31,5573,78,87,35,95,946,290.0,248,452,60,118.0,386,1,300,566,112,0,0,329,250,630,290,,,,,,,,,,,,
601783,1560688233786,1,0.41,1.58,3.7,2.24,2.32,0.68,-1.09,0.37,49,-7,55,1.28,5776,78,87,35,94,1001,290.0,247,453,60,117.0,386,1,310,540,112,0,0,329,-1530,630,290,,,,,,,,,,,,
601803,1560688233808,3,0.41,1.58,3.71,2.25,2.33,0.59,-1.04,0.48,51,-9,56,1.2,6048,78,87,35,94,1051,291.0,251,456,60,118.0,410,1,323,529,119,0,0,336,-1530,1886,291,,,,,,,,,,,,
601823,1560688233828,-1,0.4,1.59,3.71,2.28,2.31,0.56,-0.99,0.43,53,-7,57,1.14,6478,78,87,35,93,1120,294.0,268,451,60,117.0,410,1,342,528,119,0,0,367,-1530,10686,294,,,,,,,,,,,,
601843,1560688233848,2,0.4,1.63,3.71,2.3,2.31,0.52,-1.0,0.46,54,-6,59,1.13,6623,78,87,35,93,1204,297.0,282,450,60,118.0,410,1,350,523,119,0,0,410,250,90,297,45.701359,4.911988,28.81,197.0,6,1.6483,0,0.0,0.5467,7,0.44,10.0307
601863,1560688233868,1,0.4,1.71,3.69,2.3,2.29,0.48,-1.03,0.4,55,-8,60,1.13,6722,78,87,35,93,1271,300.0,302,461,60,117.0,410,1,355,526,119,0,0,440,-1530,24320,300,,,,,,,,,,,,
601883,1560688233888,2,0.39,1.78,3.64,2.33,2.25,0.44,-1.08,0.47,56,-4,60,1.17,6860,78,87,35,93,1304,302.0,321,452,60,119.0,410,1,363,525,119,0,0,409,19968,95,299,,,,,,,,,,,,
601903,1560688233908,0,0.38,1.78,3.63,2.37,2.18,0.36,-1.07,0.46,58,-4,60,1.13,6903,78,87,35,94,1319,302.0,350,455,60,117.0,451,1,364,526,136,0,0,394,18432,110,302,,,,,,,,,,,,
601923,1560688233928,5,0.35,1.8,3.63,2.39,2.12,0.44,-1.09,0.61,58,-5,62,1.18,6947,78,87,35,93,1315,305.0,371,458,60,118.0,451,1,367,526,136,0,0,414,18432,160,305,,,,,,,,,,,,
601943,1560688233948,3,0.33,1.85,3.6,2.42,2.13,0.34,-1.15,0.58,59,-3,65,1.19,7067,78,87,35,93,1302,310.0,396,451,60,117.0,451,1,375,529,136,0,0,434,250,-20736,311,45.701355,4.911989,29.3,197.0,6,1.6483,0,0.0,0.5483,7,0.45,10.0324
601963,1560688233968,2,2.9,1.91,3.57,2.42,2.13,0.12,-1.05,0.48,60,-3,69,1.05,7140,79,87,35,93,1262,313.0,411,460,60,117.0,451,1,380,533,136,0,0,427,8704,3327,313,,,,,,,,,,,,
601983,1560688233988,-1,2.84,1.96,3.54,2.43,2.12,0.22,-1.05,0.62,60,-3,70,1.08,7264,79,87,35,93,1219,316.0,432,456,60,117.0,451,1,390,537,136,0,0,406,-25600,-6640,318,,,,,,,,,,,,
602003,1560688234003,1,2.78,2.01,3.52,2.44,2.13,0.4,-1.03,0.71,60,-6,72,1.1,7329,79,87,35,92,1164,322.0,451,453,60,118.0,467,1,396,543,150,0,0,395,-17920,-6475,322,,,,,,,,,,,,
602023,1560688234023,-1,2.7,2.08,3.48,2.44,2.13,0.5,-1.04,0.78,60,-5,73,1.15,7378,79,87,35,92,1118,327.0,465,456,60,118.0,467,1,400,545,150,0,0,392,250,-32702,330,,,,,,,,,,,,
602043,1560688234043,-1,2.62,2.15,3.44,2.46,2.14,0.59,-1.06,0.76,60,-7,75,1.21,7521,80,87,35,92,1100,333.0,467,452,60,118.0,467,1,411,550,150,0,0,388,15360,-8151,333,45.701347,4.911988,29.69,197.0,6,1.6483,0,0.0,0.55,7,0.45,10.034
602063,1560688234063,2,2.54,2.21,3.39,2.46,2.14,0.68,-1.02,0.69,60,-8,77,1.22,7594,80,87,35,91,1079,336.0,479,448,60,118.0,467,1,417,553,150,0,0,397,16896,-26615,336,,,,,,,,,,,,
602083,1560688234083,2,2.47,2.23,3.35,2.46,2.14,0.79,-1.05,0.67,59,-9,78,1.32,7735,81,87,35,91,1043,337.0,488,454,60,117.0,467,1,428,559,150,0,0,420,-1281,18584,337,,,,,,,,,,,,
602103,1560688234107,4,2.39,2.26,3.29,2.47,2.13,0.74,-0.96,0.73,59,-8,78,1.21,7914,82,87,35,91,1007,337.0,493,455,60,117.0,489,1,442,566,165,0,0,416,-10440,-3856,337,,,,,,,,,,,,
602123,1560688234127,0,2.32,2.26,3.24,2.46,2.14,0.62,-0.89,0.86,58,-8,76,1.08,8026,84,87,35,89,987,338.0,498,448,60,118.0,489,1,448,572,165,0,0,419,-1,13180,337,,,,,,,,,,,,
602143,1560688234147,4,2.24,2.26,3.18,2.45,2.17,0.66,-0.82,0.73,56,-8,74,1.05,8009,85,87,35,89,966,339.0,507,450,60,118.0,489,1,448,562,165,0,0,445,28160,26704,339,45.70134,4.911986,30.58,197.0,6,1.6483,0,0.0,0.5517,7,0.45,10.0357
602163,1560688234167,1,2.17,2.27,3.14,2.45,2.21,0.62,-0.61,0.7,54,-8,72,0.87,8120,86,87,35,89,940,337.0,503,455,60,117.0,489,1,445,572,165,0,0,422,24064,-8985,337,,,,,,,,,,,,
602183,1560688234187,3,2.1,2.25,3.13,2.42,2.22,0.58,-0.56,0.74,52,-8,68,0.8,8292,88,87,35,88,915,336.0,511,449,60,117.0,489,1,439,582,165,0,0,426,0,13552,336,,,,,,,,,,,,
602203,1560688234209,0,2.03,2.27,3.11,2.4,2.23,0.47,-0.49,0.73,49,-6,65,0.68,8322,90,87,35,88,909,335.0,520,455,60,117.0,568,1,438,585,191,0,0,456,110,10305,335,,,,,,,,,,,,
602223,1560688234229,1,1.97,2.3,3.1,2.39,2.23,0.47,-0.4,0.68,45,-6,60,0.62,8393,91,87,35,88,905,336.0,525,447,60,117.0,568,1,436,593,191,0,0,457,-32256,-8985,336,,,,,,,,,,,,
602243,1560688234249,1,1.91,2.32,3.07,2.38,2.22,0.47,-0.45,0.78,41,-5,55,0.65,8426,93,87,35,89,909,337.0,531,454,60,117.0,568,1,437,608,191,0,0,434,-25856,26704,337,45.701332,4.911983,31.12,196.9,6,1.6483,0,0.0,0.5533,7,0.45,10.0374
602263,1560688234269,3,1.86,2.37,3.03,2.36,2.23,0.45,-0.22,0.78,35,-4,49,0.5,8522,94,87,35,88,912,335.0,533,453,60,119.0,568,1,433,606,191,0,0,447,3346,8488,335,,,,,,,,,,,,
602283,1560688234289,-1,1.82,2.42,3.01,2.36,2.24,0.51,-0.21,0.8,30,-5,42,0.55,8434,94,87,35,88,921,346.0,534,456,60,118.0,568,1,435,598,191,0,0,466,-30438,17628,336,,,,,,,,,,,,
602303,1560688234309,1,1.81,2.45,3.0,2.36,2.24,0.45,-0.12,0.77,25,-4,37,0.47,8389,95,87,35,89,930,353.0,537,450,60,117.0,562,1,438,592,189,0,0,437,-6644,-8985,337,,,,,,,,,,,,
602323,1560688234329,5,1.84,2.46,2.99,2.36,2.28,0.39,0.03,0.75,19,-2,29,0.39,8503,95,87,35,89,962,364.0,526,449,60,117.0,562,1,434,606,189,0,0,427,-1268,10305,339,,,,,,,,,,,,
602343,1560688234349,4,1.9,2.5,2.96,2.35,2.34,0.47,-0.07,0.76,12,-3,20,0.47,8608,96,87,35,88,993,377.0,536,452,60,118.0,562,1,431,606,189,0,0,470,-6656,-16384,342,45.701324,4.911978,32.02,196.9,6,1.6483,0,0.0,0.555,7,0.45,10.0391
602363,1560688234369,2,1.97,2.53,2.9,2.36,2.36,0.52,-0.16,0.88,7,-2,12,0.54,8724,100,87,35,88,1018,388.0,537,449,60,117.0,562,1,426,606,189,0,0,469,-31744,8488,344,,,,,,,,,,,,
602383,1560688234389,3,2.03,2.53,2.88,2.36,2.38,0.42,-0.18,0.96,3,-4,6,0.46,8898,100,87,35,88,1041,397.0,543,447,60,117.0,562,1,421,594,189,0,0,450,-3968,-899,350,,,,,,,,,,,,
602403,1560688234409,3,2.1,2.52,2.87,2.38,2.38,0.25,0.04,0.92,0,-1,1,0.26,8886,100,87,35,87,1059,405.0,558,449,60,117.0,565,1,422,594,199,0,0,489,-9211,-23367,354,,,,,,,,,,,,
602423,1560688234429,2,2.16,2.5,2.89,2.4,2.38,0.24,0.24,0.96,-3,-1,-2,0.34,8937,100,87,35,87,1077,406.0,561,449,60,117.0,565,1,420,594,199,0,0,510,2524,16648,360,,,,,,,,,,,,
602443,1560688234449,3,2.17,2.5,2.89,2.4,2.39,0.12,0.42,1.01,-6,-1,-3,0.43,9155,100,87,35,87,1077,410.0,565,453,60,117.0,565,1,418,594,199,0,0,476,9517,-17956,370,45.701317,4.911972,33.47,196.9,6,1.6483,0,0.0,0.5567,7,0.45,10.0407
602463,1560688234469,5,2.18,2.53,2.84,2.39,2.39,0.13,0.39,1.11,-10,-2,-6,0.41,9295,100,87,35,87,1072,412.0,577,450,60,118.0,565,1,418,594,199,0,0,461,2524,2524,379,,,,,,,,,,,,
602483,1560688234489,4,2.19,2.59,2.76,2.36,2.4,0.24,0.15,1.19,-11,2,-10,0.28,9295,100,87,35,87,1075,416.0,593,444,60,118.0,565,1,418,594,199,0,0,482,18584,-3856,383,,,,,,,,,,,,
602503,1560688234509,1,2.19,2.61,2.72,2.37,2.38,0.29,0.04,1.18,-12,1,-12,0.29,9342,100,87,35,87,1082,423.0,588,451,60,118.0,542,1,418,594,209,0,0,510,3826,10408,390,,,,,,,,,,,,
602523,1560688234529,2,2.19,2.61,2.71,2.36,2.35,0.27,0.18,1.12,-14,2,-13,0.32,9393,100,87,35,86,1092,429.0,597,450,60,117.0,542,1,418,583,209,0,0,517,3635,2212,395,,,,,,,,,,,,
602543,1560688234549,4,2.17,2.65,2.71,2.35,2.36,0.23,0.27,1.19,-16,0,-13,0.35,9365,100,87,35,87,1104,434.0,588,445,60,118.0,542,1,418,583,209,0,0,510,-768,-3482,402,45.701309,4.911966,35.24,196.9,6,1.6483,0,0.0,0.5583,7,0.45,10.0424
602563,1560688234569,4,2.17,2.68,2.71,2.3,2.43,0.3,0.24,1.21,-17,-0,-15,0.39,9464,100,87,35,86,1111,438.0,595,448,60,118.0,542,1,418,583,209,0,0,487,21580,-506,407,,,,,,,,,,,,
602583,1560688234589,0,2.17,2.71,2.7,2.21,2.48,0.28,0.42,1.15,-19,-1,-15,0.51,9605,100,87,35,86,1115,445.0,596,456,60,117.0,542,1,414,586,209,0,0,510,10305,2524,411,,,,,,,,,,,,
602603,1560688234609,3,2.18,2.76,2.71,2.19,2.53,0.35,0.36,1.2,-20,-1,-18,0.51,9780,100,87,35,86,1114,452.0,607,448,60,118.0,524,1,406,590,216,0,0,533,-6387,11560,414,,,,,,,,,,,,
602623,1560688234629,2,2.17,2.78,2.71,2.19,2.52,0.38,0.44,1.18,-21,0,-20,0.58,9863,100,87,35,85,1106,458.0,602,451,60,117.0,524,1,403,575,216,0,0,532,-9160,-30064,417,,,,,,,,,,,,
602643,1560688234649,1,2.18,2.77,2.72,2.21,2.52,0.49,0.29,1.23,-22,-0,-22,0.57,10026,100,87,35,85,1094,460.0,619,450,60,117.0,524,1,397,577,216,0,0,539,-23623,-2934,423,45.701302,4.911959,38.45,197.0,6,1.6483,0,0.0,0.56,7,0.45,10.0441
602663,1560688234669,2,2.21,2.78,2.73,2.2,2.57,0.45,0.41,1.2,-23,-2,-22,0.61,10217,100,87,35,85,1079,465.0,618,451,60,117.0,524,1,410,577,216,0,0,545,243,-2934,428,,,,,,,,,,,,
602683,1560688234689,5,2.26,2.79,2.73,2.18,2.63,0.38,0.57,1.14,-24,2,-24,0.69,10290,100,87,35,85,1067,473.0,620,451,60,117.0,524,1,415,577,216,0,0,540,3576,30208,433,,,,,,,,,,,,
602703,1560688234709,3,2.32,2.78,2.73,2.18,2.6,0.36,0.52,1.14,-23,2,-27,0.64,10445,100,87,35,85,1060,479.0,622,453,60,117.0,521,1,427,577,227,0,0,560,10305,-30159,439,,,,,,,,,,,,
602723,1560688234729,4,2.38,2.78,2.73,2.19,2.57,0.24,0.43,1.18,-22,-0,-27,0.49,10533,100,87,35,85,1050,483.0,625,448,60,117.0,521,1,431,577,227,0,0,571,3580,-32248,443,,,,,,,,,,,,
602743,1560688234749,1,2.43,2.77,2.74,2.23,2.5,0.13,0.37,1.2,-20,4,-28,0.39,10623,100,87,35,85,1036,483.0,629,431,60,117.0,521,1,434,577,227,0,0,579,-899,-30159,453,45.70129,4.911953,41.32,197.0,6,1.6483,0,0.0,0.5617,7,0.45,10.0457
602763,1560688234769,2,2.48,2.72,2.82,2.27,2.47,0.15,0.35,1.22,-18,2,-27,0.38,10617,100,87,35,85,1025,483.0,630,437,60,118.0,521,1,434,577,227,0,0,588,3580,-16384,464,,,,,,,,,,,,
602783,1560688234789,2,2.52,2.65,2.85,2.27,2.43,0.07,0.22,1.3,-16,-0,-22,0.24,10788,100,87,35,85,1019,483.0,618,449,60,117.0,521,1,438,577,227,0,0,565,3580,6273,477,,,,,,,,,,,,
602803,1560688234809,5,2.51,2.64,2.85,2.27,2.4,0.01,0.3,1.18,-13,1,-18,0.3,10782,100,87,35,85,1015,485.0,623,450,60,117.0,493,1,438,577,237,0,0,566,3580,-23623,490,,,,,,,,,,,,
602823,1560688234829,3,2.51,2.61,2.85,2.27,2.36,0.11,0.3,1.26,-9,3,-17,0.32,10738,100,87,35,85,1012,498.0,617,442,60,117.0,493,1,437,577,237,0,0,573,-10483,243,498,,,,,,,,,,,,
602843,1560688234849,4,2.5,2.57,2.86,2.29,2.29,0.16,0.18,1.33,-4,2,-13,0.24,10831,100,87,35,85,1010,510.0,617,440,60,117.0,493,1,439,577,237,0,0,591,-10483,-28648,510,45.701279,4.911947,43.69,197.0,6,1.6483,0,0.0,0.5633,7,0.45,10.0474
602863,1560688234869,3,2.46,2.55,2.93,2.33,2.25,0.22,0.2,1.28,0,5,-9,0.3,10806,100,87,35,85,1013,521.0,625,429,60,117.0,493,1,438,577,237,0,0,604,-1818,-28648,521,,,,,,,,,,,,
602883,1560688234889,4,2.44,2.55,2.97,2.44,2.2,0.13,0.07,1.33,4,3,-4,0.15,10844,100,87,35,85,1014,529.0,625,438,60,117.0,493,1,439,577,237,0,0,574,-32768,30208,529,,,,,,,,,,,,
602903,1560688234909,4,2.4,2.54,3.05,2.46,2.16,0.07,0.14,1.25,7,0,0,0.16,10782,100,87,35,85,1013,536.0,630,440,60,117.0,447,1,438,577,237,0,0,577,10408,30208,536,,,,,,,,,,,,
602923,1560688234929,5,2.38,2.53,3.08,2.48,2.16,0.15,0.08,1.21,9,0,2,0.17,10794,100,87,35,85,1011,542.0,622,445,60,117.0,447,1,438,577,237,0,0,580,6274,-28648,541,,,,,,,,,,,,
602943,1560688234949,3,2.36,2.52,3.12,2.51,2.15,0.24,-0.01,1.23,11,3,4,0.24,10939,100,87,35,85,1007,546.0,620,440,60,117.0,447,1,442,577,237,0,0,594,-4054,1760,546,45.701267,4.911942,46.35,197.0,6,1.6483,0,0.0,0.565,7,0.46,10.0491
602963,1560688234969,4,2.35,2.51,3.15,2.53,2.13,0.28,-0.1,1.27,13,1,6,0.3,10984,100,87,35,85,1001,548.0,620,435,60,117.0,447,1,443,577,237,0,0,597,-14,15649,548,,,,,,,,,,,,
602983,1560688234989,6,2.33,2.49,3.25,2.55,2.18,0.26,-0.16,1.21,13,1,8,0.3,11114,100,87,35,85,990,552.0,618,443,60,117.0,447,1,443,577,237,0,0,589,2524,-16179,552,,,,,,,,,,,,
603003,1560688235000,4,2.33,2.47,3.29,2.56,2.2,0.26,-0.25,1.2,14,1,10,0.36,11254,100,87,35,84,979,557.0,628,447,60,117.0,439,1,441,559,244,0,0,626,-32248,-3446,557,,,,,,,,,,,,
603023,1560688235020,3,2.34,2.46,3.26,2.56,2.19,0.28,-0.25,1.11,15,-0,11,0.37,11488,100,87,34,84,972,562.0,631,447,60,117.0,439,1,441,564,244,0,0,573,14504,-3446,562,,,,,,,,,,,,
603043,1560688235040,5,2.33,2.45,3.25,2.55,2.18,0.23,-0.12,1.16,16,-1,13,0.26,11538,100,87,34,84,964,566.0,631,451,60,117.0,439,1,440,564,244,0,0,609,-8186,16529,566,45.70126,4.911936,49.78,197.0,6,1.6483,0,0.0,0.5667,7,0.46,10.0507
603063,1560688235060,5,2.33,2.43,3.24,2.58,2.13,0.25,-0.19,1.16,16,-0,15,0.31,11624,100,87,34,84,948,570.0,628,450,60,117.0,439,1,440,568,244,0,0,656,-8962,19304,571,,,,,,,,,,,,
603083,1560688235080,4,2.33,2.41,3.24,2.61,2.07,0.37,-0.35,1.17,16,-2,16,0.51,11740,100,87,34,83,932,576.0,632,446,60,117.0,439,1,440,553,244,0,0,621,14504,3403,576,,,,,,,,,,,,
603103,1560688235098,5,2.32,2.4,3.23,2.6,2.05,0.45,-0.52,1.18,15,-2,17,0.68,11762,100,87,34,83,923,581.0,627,449,60,117.0,424,1,440,554,246,0,0,615,14504,3,581,,,,,,,,,,,,
603123,1560688235118,4,2.31,2.41,3.22,2.61,2.05,0.47,-0.58,1.12,14,-2,17,0.75,11799,100,87,34,83,914,585.0,630,449,60,117.0,424,1,440,553,246,0,0,647,2216,-2836,585,,,,,,,,,,,,
603143,1560688235138,2,2.32,2.41,3.21,2.61,2.06,0.46,-0.56,0.9,14,0,17,0.73,11844,100,87,34,83,889,589.0,630,451,60,117.0,424,1,440,555,246,0,0,634,-2934,-4876,590,45.701244,4.911929,53.63,197.0,6,1.6483,0,0.0,0.5683,7,0.46,10.0524
603163,1560688235158,6,2.31,2.4,3.25,2.6,2.08,0.46,-0.46,0.88,14,1,17,0.65,11912,100,87,34,83,864,590.0,630,450,60,117.0,424,1,440,557,246,0,0,638,-8188,4909,590,,,,,,,,,,,,
603183,1560688235178,2,2.31,2.4,3.3,2.59,2.09,0.52,-0.51,0.91,14,0,16,0.73,11980,100,87,34,83,846,599.0,633,452,60,117.0,424,1,440,559,246,0,0,648,10432,-8429,599,,,,,,,,,,,,
603203,1560688235206,2,2.3,2.4,3.3,2.6,2.1,0.58,-0.66,0.95,13,1,14,0.88,12104,100,87,34,83,829,603.0,636,450,60,117.0,425,1,440,560,256,0,0,644,15649,479,603,,,,,,,,,,,,
603223,1560688235226,3,2.3,2.4,3.3,2.59,2.11,0.67,-0.79,1.05,13,2,14,1.04,12207,100,87,34,83,813,608.0,631,451,60,117.0,425,1,440,560,256,0,0,644,-32504,-2826,608,,,,,,,,,,,,
603243,1560688235246,4,2.31,2.39,3.26,2.58,2.13,0.68,-0.76,1.12,12,1,13,1.02,12287,100,87,34,83,796,612.0,634,451,60,117.0,425,1,440,560,256,0,0,650,17344,8958,616,45.701233,4.911922,56.19,197.1,6,1.6483,0,0.0,0.57,7,0.46,10.0541
603263,1560688235266,3,2.31,2.4,3.23,2.58,2.11,0.6,-0.61,1.12,11,1,14,0.86,12311,100,87,34,83,792,615.0,636,447,60,116.0,425,1,440,560,256,0,0,638,-7939,-3488,619,,,,,,,,,,,,
603283,1560688235286,6,2.3,2.41,3.23,2.58,2.08,0.52,-0.47,1.09,10,-0,15,0.7,12278,100,87,34,83,792,621.0,641,451,60,117.0,425,1,440,560,256,0,0,662,-3446,-388,621,,,,,,,,,,,,
603303,1560688235306,1,2.31,2.41,3.21,2.58,2.05,0.48,-0.51,1.11,9,-1,14,0.7,12278,100,87,34,83,793,625.0,633,451,60,117.0,417,1,440,560,260,0,0,669,28675,-26380,625,,,,,,,,,,,,
603323,1560688235326,4,2.3,2.4,3.19,2.56,2.07,0.52,-0.66,1.2,8,-1,14,0.84,12311,100,87,34,83,794,627.0,636,449,60,117.0,417,1,440,560,260,0,0,651,269,-26380,630,,,,,,,,,,,,
603343,1560688235346,5,2.3,2.4,3.17,2.56,2.11,0.55,-0.76,1.22,8,-1,14,0.94,12368,100,87,34,83,794,634.0,628,457,60,117.0,417,1,440,560,260,0,0,656,-16046,-2345,634,45.701218,4.911913,59.16,197.1,6,1.6483,0,0.0,0.5717,7,0.46,10.0557
603363,1560688235366,5,2.3,2.4,3.18,2.53,2.18,0.52,-0.7,1.18,7,-3,13,0.87,12409,100,87,34,83,795,640.0,633,451,60,116.0,417,1,440,560,260,0,0,664,-4876,-3038,641,,,,,,,,,,,,
603383,1560688235386,3,2.3,2.42,3.18,2.52,2.23,0.41,-0.58,1.01,7,-4,11,0.71,12483,100,87,34,83,795,644.0,641,450,60,117.0,417,1,440,560,260,0,0,674,24,-10344,645,,,,,,,,,,,,
603403,1560688235406,5,2.3,2.43,3.17,2.52,2.23,0.34,-0.57,1.07,7,-1,10,0.66,12575,100,88,34,83,795,648.0,643,452,60,117.0,411,1,440,560,266,0,0,670,-2830,-2345,649,,,,,,,,,,,,
603423,1560688235426,5,2.3,2.42,3.18,2.5,2.22,0.47,-0.62,1.01,6,-2,9,0.78,12626,100,88,34,83,795,649.0,636,445,60,116.0,411,1,440,560,266,0,0,681,479,-26380,652,,,,,,,,,,,,
603443,1560688235446,5,2.3,2.42,3.18,2.49,2.22,0.5,-0.64,1.1,5,-4,9,0.81,12711,100,88,34,83,795,657.0,642,448,60,116.0,411,1,440,560,266,0,0,678,2024,-26562,657,45.701202,4.911903,61.78,197.1,6,1.6483,0,0.0,0.5733,7,0.46,10.0574
603463,1560688235466,2,2.3,2.42,3.17,2.47,2.23,0.37,-0.51,0.97,5,-4,11,0.63,12851,100,88,34,83,795,661.0,641,448,60,117.0,411,1,440,560,266,0,0,689,-2830,-3584,660,,,,,,,,,,,,
603483,1560688235486,4,2.31,2.43,3.16,2.45,2.25,0.48,-0.6,1.07,5,-1,9,0.77,12904,100,88,34,83,793,666.0,642,446,60,116.0,411,1,440,560,266,0,0,687,-2345,-3584,666,,,,,,,,,,,,
603503,1560688235508,3,2.3,2.44,3.13,2.46,2.25,0.4,-0.46,0.95,5,-2,9,0.6,12931,100,88,34,83,791,669.0,651,451,60,117.0,411,1,440,560,274,0,0,693,-2826,6208,669,,,,,,,,,,,,
603523,1560688235528,5,2.31,2.44,3.12,2.46,2.24,0.46,-0.45,1.05,4,-3,11,0.64,13048,100,88,34,83,790,673.0,647,451,60,116.0,411,1,440,560,274,0,0,700,-2830,-3584,673,,,,,,,,,,,,
603543,1560688235548,5,2.31,2.42,3.12,2.45,2.24,0.45,-0.41,1.15,5,-3,10,0.61,13102,100,88,34,83,789,679.0,644,452,60,117.0,411,1,440,560,274,0,0,695,-388,-20693,675,45.701191,4.911891,64.12,197.2,6,1.6483,0,0.0,0.575,7,0.46,10.059
603563,1560688235568,3,2.31,2.42,3.14,2.44,2.25,0.52,-0.48,1.19,4,-6,8,0.71,13093,100,88,34,83,788,682.0,642,441,60,117.0,411,1,440,560,274,0,0,701,-2345,16118,683,,,,,,,,,,,,
603583,1560688235588,2,2.31,2.41,3.16,2.43,2.25,0.43,-0.4,1.0,5,-7,9,0.58,13213,100,88,34,83,787,687.0,651,443,60,117.0,411,1,440,560,274,0,0,718,-26562,16118,687,,,,,,,,,,,,
603603,1560688235608,5,2.31,2.4,3.17,2.44,2.28,0.5,-0.25,1.06,4,-9,10,0.56,13288,100,88,34,83,788,690.0,648,448,60,117.0,407,1,440,560,281,0,0,712,-10344,204,690,,,,,,,,,,,,
603623,1560688235628,3,2.31,2.4,3.17,2.42,2.3,0.48,-0.31,1.09,4,-8,9,0.57,13412,100,88,34,83,789,694.0,653,450,60,116.0,407,1,440,575,281,0,0,708,6208,16118,693,,,,,,,,,,,,
603643,1560688235648,4,2.3,2.42,3.16,2.42,2.28,0.52,-0.41,1.15,5,-5,9,0.66,13479,100,88,34,83,791,696.0,653,450,60,117.0,407,1,440,560,281,0,0,722,-3584,-31068,696,45.701176,4.91188,66.47,197.2,6,1.6483,0,0.0,0.5767,7,0.47,10.0607
603663,1560688235668,6,2.31,2.4,3.15,2.42,2.26,0.48,-0.28,1.12,5,-5,7,0.56,13469,100,88,34,84,794,699.0,658,442,60,116.0,407,1,440,575,281,0,0,721,14342,-388,699,,,,,,,,,,,,
603683,1560688235688,3,2.3,2.39,3.16,2.42,2.24,0.55,-0.28,1.15,5,-3,6,0.62,13528,100,88,34,83,795,706.0,653,447,60,116.0,407,1,440,560,281,0,0,729,24,-25858,706,,,,,,,,,,,,
603703,1560688235708,4,2.3,2.39,3.17,2.41,2.25,0.56,-0.33,1.15,4,-2,7,0.65,13508,100,88,34,84,796,710.0,658,447,60,117.0,405,1,440,560,286,0,0,728,11069,31988,710,,,,,,,,,,,,
603723,1560688235728,1,2.31,2.39,3.16,2.4,2.28,0.62,-0.45,1.22,4,-3,7,0.76,13606,100,88,34,83,791,710.0,649,453,60,116.0,405,1,440,560,286,0,0,731,-12152,-2826,713,,,,,,,,,,,,
603743,1560688235748,3,2.3,2.39,3.17,2.39,2.29,0.58,-0.37,1.23,5,-5,7,0.69,13746,100,88,34,83,786,716.0,651,447,60,116.0,405,1,440,575,286,0,0,735,-3888,-2356,714,45.70116,4.911868,68.33,197.2,6,1.6483,0,0.0,0.5783,7,0.47,10.0624
603763,1560688235768,2,2.3,2.38,3.17,2.39,2.28,0.63,-0.33,1.22,4,-6,6,0.71,13756,100,88,34,83,779,719.0,663,450,60,117.0,405,1,440,560,286,0,0,746,-3888,-2358,719,,,,,,,,,,,,
603783,1560688235788,6,2.29,2.37,3.15,2.39,2.29,0.45,-0.22,1.04,4,-2,7,0.5,13868,100,88,34,83,772,721.0,656,451,60,116.0,405,1,440,575,286,0,0,737,16118,-22796,721,,,,,,,,,,,,
603803,1560688235808,0,2.3,2.38,3.13,2.37,2.32,0.45,-0.12,1.01,4,-2,7,0.47,13776,100,88,34,84,763,724.0,650,445,60,118.0,406,1,440,575,292,0,0,746,31988,-31066,724,,,,,,,,,,,,
603823,1560688235828,-2,2.29,2.38,3.12,2.35,2.33,0.49,-0.12,1.02,4,-0,6,0.51,13726,100,88,34,83,755,730.0,660,452,60,120.0,406,1,440,560,292,0,0,743,1524,5876,730,,,,,,,,,,,,
603843,1560688235848,0,2.29,2.36,3.16,2.33,2.34,0.5,-0.17,1.11,4,-2,5,0.53,13176,100,88,34,85,755,731.0,655,461,60,120.0,406,1,440,592,292,0,0,735,1524,1524,731,45.701145,4.911854,70.0,197.2,6,1.6483,0,0.0,0.58,7,0.47,10.064
603863,1560688235868,-1,2.29,2.35,3.25,2.3,2.37,0.5,-0.15,0.9,4,-3,6,0.52,12886,100,88,34,83,755,730.0,656,462,60,119.0,406,1,440,575,292,0,0,719,-4091,1524,729,,,,,,,,,,,,
603883,1560688235888,-1,2.3,2.35,3.27,2.29,2.44,0.5,-0.13,0.8,4,-3,5,0.52,12668,100,88,34,84,756,725.0,655,458,60,119.0,406,1,440,575,292,0,0,725,-2918,-2826,727,,,,,,,,,,,,
603903,1560688235908,-0,2.28,2.34,3.29,2.24,2.53,0.63,-0.11,0.82,4,-3,5,0.64,12368,100,88,34,84,757,727.0,650,457,60,117.0,375,1,440,575,272,0,0,726,-3344,-13580,727,,,,,,,,,,,,
603923,1560688235928,4,2.29,2.33,3.34,2.19,2.51,0.77,-0.1,0.88,4,-10,5,0.78,12135,100,88,34,85,760,727.0,648,448,60,119.0,375,1,440,1093,272,0,0,722,-25858,-3344,727,,,,,,,,,,,,
603943,1560688235948,5,2.29,2.31,3.32,2.19,2.49,0.63,-0.07,0.99,3,-8,4,0.63,11446,100,88,34,85,762,734.0,636,442,60,115.0,375,1,441,980,272,0,0,803,-2826,6389,734,45.70113,4.911841,71.88,197.2,6,1.6483,0,0.0,0.5817,7,0.47,10.0657
603963,1560688235968,5,2.29,2.35,3.2,2.23,2.44,0.59,0.03,0.89,3,-3,1,0.59,10882,100,88,34,86,879,738.0,626,448,60,116.0,375,1,441,903,272,0,0,891,3462,-22795,738,,,,,,,,,,,,
603983,1560688235988,5,2.29,2.45,3.01,2.27,2.38,0.58,0.01,0.81,4,-7,2,0.58,10901,100,88,34,86,998,743.0,620,452,60,117.0,375,1,442,798,272,0,0,760,-2356,6905,743,,,,,,,,,,,,
604003,1560688236001,1,2.29,2.44,2.93,2.32,2.3,0.55,0.0,0.92,4,-4,5,0.55,11022,86,88,34,84,1115,746.0,628,453,60,117.0,406,1,443,655,302,0,0,767,-2314,-10212,746,,,,,,,,,,,,
604023,1560688236021,3,2.29,2.42,2.92,2.31,2.2,0.57,-0.01,1.02,4,-1,6,0.57,10794,66,88,34,79,1232,756.0,613,455,60,117.0,406,1,438,513,302,0,0,805,-2830,-2574,756,,,,,,,,,,,,
604043,1560688236041,2,2.29,2.41,2.92,2.29,2.18,0.57,-0.04,1.05,4,-4,5,0.58,10405,39,88,34,69,1349,760.0,621,450,60,117.0,406,1,432,452,302,0,0,792,-2574,-2540,760,45.701118,4.911827,72.58,197.3,6,1.6483,0,0.0,0.5833,7,0.47,10.0674
604063,1560688236061,4,2.28,2.42,3.0,2.29,2.25,0.5,-0.12,1.06,4,-5,4,0.51,10240,21,88,34,57,1467,762.0,622,455,60,117.0,406,1,412,355,302,0,0,782,5876,-31066,766,,,,,,,,,,,,
604083,1560688236081,5,2.28,2.4,3.13,2.28,2.34,0.53,0.02,0.83,4,-4,2,0.53,9973,12,88,34,47,1498,762.0,626,453,60,117.0,406,1,380,258,302,0,0,767,8838,-2826,760,,,,,,,,,,,,
604103,1560688236107,8,2.28,2.37,3.22,2.25,2.47,0.68,-0.18,0.9,4,-9,2,0.7,9689,11,88,34,40,1498,760.0,622,454,60,118.0,113,1,327,219,86,0,0,754,-31066,-4096,760,,,,,,,,,,,,
604123,1560688236127,6,2.28,2.35,3.31,2.21,2.63,0.48,0.04,0.72,3,-10,3,0.48,9508,10,88,34,37,1408,759.0,621,455,60,118.0,113,1,314,210,86,0,0,748,-31066,5876,754,,,,,,,,,,,,
604143,1560688236147,7,2.27,2.33,3.45,2.16,2.72,0.54,0.07,0.56,4,-6,3,0.54,9314,10,88,34,34,1301,756.0,611,452,60,118.0,113,1,305,199,86,0,0,751,-31066,6790,758,45.701103,4.911813,73.94,197.3,6,1.6483,0,0.0,0.585,7,0.48,10.069
604163,1560688236167,10,2.26,2.3,3.51,2.16,2.81,0.69,-0.11,0.58,2,-11,3,0.69,9150,10,88,34,32,1194,755.0,604,451,60,117.0,113,1,300,191,86,0,0,737,-3450,-2356,755,,,,,,,,,,,,
604183,1560688236187,12,2.27,2.26,3.51,2.13,2.84,0.81,-0.18,0.57,1,-9,3,0.83,9119,10,88,34,29,1087,752.0,603,457,60,117.0,113,1,287,189,86,0,0,700,-2574,-4091,751,,,,,,,,,,,,
604203,1560688236207,12,2.26,2.27,3.47,2.1,2.87,0.92,-0.36,0.66,1,-13,2,0.98,9200,9,88,34,28,983,749.0,609,453,60,118.0,87,1,282,189,65,0,0,689,136,-2830,746,,,,,,,,,,,,
604223,1560688236227,11,2.28,2.26,3.41,2.11,2.85,0.96,-0.29,0.59,1,-10,1,1.0,9222,9,88,34,26,880,743.0,621,455,60,118.0,87,1,274,188,65,0,0,725,-2356,14342,743,,,,,,,,,,,,
604243,1560688236247,12,2.28,2.17,3.41,2.1,2.8,0.83,-0.23,0.56,1,-14,1,0.86,9250,9,88,34,25,840,739.0,617,450,60,118.0,87,1,270,188,65,0,0,691,-3580,-4091,739,45.701084,4.911798,75.44,197.3,6,1.6483,0,0.0,0.5867,7,0.48,10.0707
604263,1560688236267,9,2.27,1.97,3.41,1.95,2.79,0.75,-0.11,0.46,1,-7,3,0.76,9254,9,88,34,24,844,741.0,616,456,60,117.0,87,1,270,181,65,0,0,697,3462,16118,739,,,,,,,,,,,,
604283,1560688236287,9,2.27,1.82,3.41,1.78,2.86,0.86,-0.03,0.42,0,-10,4,0.86,9295,9,88,34,24,860,737.0,618,455,60,117.0,87,1,270,181,65,0,0,706,-2314,-10399,737,,,,,,,,,,,,
604303,1560688236307,9,2.28,1.78,3.46,1.65,2.9,0.98,-0.13,0.47,1,-8,3,0.99,9309,9,88,33,23,880,735.0,620,458,60,118.0,84,1,270,176,62,0,0,673,-2826,8958,735,,,,,,,,,,,,
604323,1560688236327,11,2.27,1.7,3.46,1.51,2.8,1.08,-0.29,0.53,1,-5,1,1.12,9254,9,88,33,22,899,737.0,611,456,60,118.0,84,1,270,170,62,0,0,689,-31066,1780,738,,,,,,,,,,,,
604343,1560688236347,10,2.26,1.7,3.35,1.54,2.63,1.02,-0.23,0.52,1,-7,-0,1.05,9227,9,88,33,22,915,733.0,610,457,60,118.0,84,1,270,170,62,0,0,707,-2358,-23490,730,45.701069,4.911783,74.8,197.3,6,1.6483,0,0.0,0.5883,7,0.48,10.0724
604363,1560688236367,6,2.26,1.78,3.24,1.57,2.46,0.88,-0.24,0.34,1,-3,0,0.91,9300,9,88,33,21,928,723.0,607,459,60,117.0,84,1,270,170,62,0,0,719,-31068,-2830,719,,,,,,,,,,,,
604383,1560688236387,7,2.27,1.85,3.18,1.62,2.45,0.88,-0.17,0.35,2,-6,-0,0.9,9314,9,88,33,21,936,713.0,607,460,60,118.0,84,1,270,164,62,0,0,709,16118,-3584,714,,,,,,,,,,,,
604403,1560688236403,5,2.28,1.86,3.17,1.63,2.47,1.0,-0.18,0.34,2,-2,-0,1.01,9356,9,88,33,21,936,711.0,617,455,60,117.0,80,1,270,164,57,0,0,698,-12152,11576,706,,,,,,,,,,,,
604423,1560688236423,6,2.26,1.86,3.32,1.67,2.59,1.1,-0.29,0.41,1,-8,-1,1.14,9389,9,87,33,21,928,707.0,620,453,60,118.0,80,1,270,164,57,0,0,689,6658,11576,704,,,,,,,,,,,,
604443,1560688236443,7,2.26,1.86,3.49,1.65,2.83,0.85,-0.21,0.37,0,-6,0,0.87,9356,9,87,33,20,917,704.0,621,460,60,118.0,80,1,270,157,57,0,0,685,15647,-2345,704,45.701057,4.911769,72.47,197.3,6,1.6483,0,0.0,0.59,7,0.48,10.074
604463,1560688236463,3,2.27,1.88,3.56,1.68,3.0,0.67,-0.04,0.16,1,-4,-0,0.68,9209,9,87,33,20,904,704.0,621,457,60,117.0,80,1,270,157,57,0,0,681,19188,31988,703,,,,,,,,,,,,
604483,1560688236483,7,2.27,1.91,3.58,1.71,3.02,0.52,0.1,0.09,1,-3,0,0.53,9066,9,87,33,20,893,701.0,616,457,60,117.0,80,1,270,157,57,0,0,679,19188,16118,704,,,,,,,,,,,,
604503,1560688236507,12,2.25,1.93,3.6,1.74,3.01,0.52,0.16,-0.05,1,-1,0,0.55,8967,9,87,33,20,889,701.0,615,460,60,117.0,75,1,270,157,53,0,0,655,8010,-388,701,,,,,,,,,,,,
604523,1560688236527,17,2.27,1.96,3.55,1.78,2.98,0.42,0.25,-0.2,1,2,1,0.49,8869,9,87,33,20,885,694.0,606,455,60,117.0,75,1,270,157,53,0,0,658,12333,31988,690,,,,,,,,,,,,
604543,1560688236547,22,2.26,1.96,3.51,1.76,2.91,0.44,0.23,-0.28,1,0,-0,0.49,8806,8,87,33,20,883,689.0,593,458,60,119.0,75,1,270,157,53,0,0,662,-3584,-26380,683,45.701042,4.911755,71.37,197.4,6,1.6483,0,0.0,0.5917,7,0.48,10.0757
604563,1560688236567,25,2.26,1.93,3.48,1.74,2.88,0.42,0.34,-0.27,2,4,0,0.54,8848,8,87,33,20,883,680.0,595,456,60,119.0,75,1,270,157,53,0,0,643,-10344,6208,680,,,,,,,,,,,,
604583,1560688236587,26,2.26,1.86,3.46,1.68,2.89,0.51,0.31,-0.18,1,-1,-1,0.6,8802,8,87,33,20,887,676.0,590,457,60,119.0,75,1,270,157,53,0,0,648,-26380,16599,670,,,,,,,,,,,,
604603,1560688236609,26,2.27,1.78,3.48,1.62,2.91,0.61,0.33,-0.08,1,1,-1,0.69,8708,8,87,33,20,891,669.0,592,458,60,117.0,75,1,270,157,51,0,0,623,31988,24,667,,,,,,,,,,,,
604623,1560688236629,26,2.26,1.76,3.47,1.57,2.95,0.72,0.39,-0.11,1,0,-0,0.82,8577,8,87,33,21,900,665.0,591,456,60,118.0,75,1,270,164,51,0,0,637,-10348,28675,661,,,,,,,,,,,,
604643,1560688236649,24,2.26,1.75,3.49,1.54,2.92,0.75,0.3,-0.13,1,2,-2,0.81,8411,8,87,33,21,908,662.0,584,455,60,118.0,75,1,270,161,51,0,0,621,-2826,26688,660,45.701023,4.91174,69.67,197.4,6,1.6483,0,0.0,0.5933,7,0.49,10.0774
604663,1560688236669,23,2.25,1.74,3.47,1.57,2.88,0.64,0.31,-0.04,1,1,-1,0.71,8216,8,87,33,21,913,654.0,581,457,60,118.0,75,1,270,226,51,0,0,631,-3488,11776,656,,,,,,,,,,,,
604683,1560688236689,25,2.26,1.75,3.44,1.57,2.84,0.78,0.26,-0.09,1,-7,-1,0.82,8127,8,87,33,21,917,652.0,567,443,60,115.0,75,1,270,198,51,0,0,633,2024,-2580,648,,,,,,,,,,,,
604703,1560688236709,26,2.26,1.75,3.43,1.55,2.86,0.65,0.42,-0.28,2,6,-3,0.78,7924,8,87,33,21,926,641.0,557,458,60,117.0,86,1,269,182,56,0,0,517,-3584,-8187,632,,,,,,,,,,,,
604723,1560688236729,25,2.26,1.74,3.47,1.54,2.9,0.76,0.38,-0.2,1,-5,-5,0.85,8166,7,87,33,21,935,634.0,558,458,60,118.0,86,1,270,171,56,0,0,562,-5120,1248,633,,,,,,,,,,,,
604743,1560688236749,26,2.25,1.72,3.55,1.53,2.92,0.87,0.36,-0.38,1,-0,-6,0.94,8102,7,87,33,21,939,629.0,556,456,60,117.0,86,1,270,155,56,0,0,455,966,-23623,627,45.701012,4.911727,67.13,197.4,6,1.6483,0,0.0,0.595,7,0.49,10.0791
604763,1560688236769,22,2.27,1.73,3.59,1.57,2.92,0.81,0.29,-0.31,1,-1,-5,0.86,8088,7,87,33,21,943,624.0,552,455,60,118.0,86,1,270,151,56,0,0,397,269,-1923,624,,,,,,,,,,,,
604783,1560688236789,20,2.26,1.73,3.56,1.58,2.98,0.83,0.2,-0.36,1,-2,-4,0.85,7891,7,87,33,21,956,617.0,550,456,60,118.0,86,1,268,149,56,0,0,368,3403,8488,616,,,,,,,,,,,,
604803,1560688236809,22,2.27,1.74,3.52,1.58,2.97,0.94,0.2,-0.35,0,-4,-3,0.96,7754,7,87,33,21,970,612.0,532,460,60,118.0,71,1,267,149,44,0,0,378,28675,-3856,611,,,,,,,,,,,,
604823,1560688236829,23,2.26,1.74,3.52,1.57,2.91,1.05,0.2,-0.28,-0,-4,-3,1.07,7539,7,87,33,21,979,607.0,528,456,60,117.0,71,1,265,149,44,0,0,395,-3820,-7939,605,,,,,,,,,,,,
604843,1560688236849,19,2.26,1.69,3.5,1.52,2.89,1.12,0.29,-0.18,-1,-5,-3,1.16,7402,7,87,33,21,988,603.0,516,456,60,117.0,71,1,263,149,44,0,0,427,-7939,-9160,601,45.701,4.911714,64.4,197.3,6,1.6483,0,0.0,0.5967,7,0.49,10.0807
604863,1560688236869,15,2.27,1.67,3.52,1.5,2.9,1.21,0.26,-0.16,-2,-4,-3,1.24,7361,7,87,33,21,1005,601.0,515,456,60,118.0,71,1,263,149,44,0,0,383,30227,-32702,597,,,,,,,,,,,,
604883,1560688236889,12,2.26,1.68,3.49,1.49,2.86,1.29,0.18,-0.17,-3,-4,-4,1.3,7393,7,87,33,21,1023,598.0,516,457,60,118.0,71,1,263,149,44,0,0,364,23619,8841,595,,,,,,,,,,,,
604903,1560688236909,11,2.26,1.72,3.44,1.54,2.8,1.31,0.19,-0.21,-3,-1,-4,1.32,7194,7,87,33,21,1034,591.0,512,455,60,119.0,69,1,261,149,41,0,0,427,6273,-26615,587,,,,,,,,,,,,
604923,1560688236929,8,2.28,1.75,3.41,1.57,2.76,1.23,0.14,-0.26,-1,1,-4,1.23,7192,7,87,33,21,1043,582.0,503,460,60,119.0,69,1,261,149,41,0,0,423,8488,2131,582,,,,,,,,,,,,
604943,1560688236949,4,2.27,1.73,3.33,1.56,2.7,1.19,0.17,-0.2,-1,-2,-4,1.21,7192,7,87,33,21,1054,578.0,508,456,60,117.0,69,1,261,149,41,0,0,432,30208,14488,576,45.700985,4.911701,61.52,197.3,6,1.6483,0,0.0,0.5983,7,0.49,10.0824
604963,1560688236969,2,2.28,1.71,3.32,1.55,2.73,1.21,0.24,-0.18,-2,-1,-3,1.23,7250,7,87,34,21,1064,573.0,507,455,60,117.0,69,1,262,149,41,0,0,505,1267,16648,571,,,,,,,,,,,,
604983,1560688236989,3,2.27,1.71,3.32,1.54,2.79,1.29,0.27,-0.14,-2,-2,-3,1.32,7335,7,87,34,22,1068,570.0,516,457,60,118.0,69,1,263,151,41,0,0,534,-29984,248,570,,,,,,,,,,,,
605003,1560688237002,6,2.28,1.71,3.39,1.58,2.81,1.35,0.2,-0.08,-3,-1,-3,1.37,7347,7,87,34,21,1070,567.0,514,445,60,119.0,72,1,263,149,41,0,0,498,-2934,-28648,563,,,,,,,,,,,,
605023,1560688237022,9,2.28,1.74,3.44,1.61,2.83,1.42,0.16,-0.04,-3,-2,-3,1.43,7527,7,87,34,21,1056,563.0,512,452,60,118.0,72,1,265,149,41,0,0,491,-28648,16383,563,,,,,,,,,,,,
605043,1560688237042,15,2.28,1.73,3.43,1.6,2.82,1.47,0.12,-0.03,-3,-3,-3,1.48,7548,7,87,34,21,1037,555.0,521,447,60,118.0,72,1,265,149,41,0,0,492,6274,10305,553,45.700974,4.91169,58.5,197.3,6,1.6483,0,0.0,0.6,7,0.49,10.0841
605063,1560688237062,22,2.28,1.7,3.44,1.58,2.83,1.53,0.15,-0.06,-3,-3,-3,1.53,7674,6,87,34,21,1017,546.0,524,451,60,119.0,72,1,266,149,41,0,0,488,-3082,-16384,546,,,,,,,,,,,,
605083,1560688237082,24,2.27,1.69,3.45,1.55,2.84,1.53,0.27,-0.09,-3,-3,-2,1.55,7802,6,87,34,21,996,541.0,528,449,60,117.0,72,1,268,149,41,0,0,432,6274,8488,541,,,,,,,,,,,,
605103,1560688237108,27,2.27,1.67,3.5,1.53,2.87,1.43,0.22,-0.05,-3,-6,-1,1.45,7789,7,87,34,20,945,534.0,538,451,60,118.0,81,1,267,149,44,0,0,375,14504,-3968,534,,,,,,,,,,,,
605123,1560688237128,28,2.27,1.68,3.53,1.52,2.92,1.35,0.2,-0.06,-1,-3,1,1.37,7709,7,87,34,20,882,532.0,539,450,60,119.0,81,1,267,146,44,0,0,363,2524,230,532,,,,,,,,,,,,
605143,1560688237148,28,2.27,1.68,3.52,1.54,2.9,1.28,0.13,-0.09,-0,-0,1,1.28,7515,6,87,34,20,831,525.0,537,449,60,118.0,81,1,265,146,44,0,0,351,15679,742,525,45.700962,4.911678,56.31,197.3,6,1.6483,0,0.0,0.6017,7,0.5,10.0857
605163,1560688237168,27,2.26,1.68,3.5,1.55,2.84,1.18,0.12,-0.08,1,1,0,1.19,7387,6,87,34,20,789,517.0,529,442,60,119.0,81,1,263,146,44,0,0,350,-3482,10392,517,,,,,,,,,,,,
605183,1560688237188,19,2.27,1.68,3.49,1.56,2.81,1.2,0.1,-0.07,2,1,-0,1.2,7189,6,87,34,20,759,511.0,519,454,60,118.0,81,1,261,146,44,0,0,360,-28648,12552,511,,,,,,,,,,,,
605203,1560688237208,15,2.25,1.68,3.5,1.58,2.79,1.21,0.11,-0.09,1,2,-0,1.22,7048,6,87,34,21,737,504.0,512,447,60,118.0,76,1,260,149,39,0,0,372,11560,771,504,,,,,,,,,,,,
605223,1560688237228,21,2.25,1.68,3.49,1.59,2.78,1.29,0.04,-0.07,0,-2,-1,1.29,6934,6,87,34,21,736,501.0,500,441,60,119.0,76,1,260,148,39,0,0,396,-22519,-9203,501,,,,,,,,,,,,
605243,1560688237248,19,2.26,1.68,3.49,1.57,2.81,1.1,0.1,-0.23,1,1,1,1.1,6923,6,87,34,21,756,491.0,499,433,60,118.0,76,1,260,148,39,0,0,372,248,-8165,489,45.700951,4.911668,53.88,197.2,6,1.6483,0,0.0,0.6033,7,0.5,10.0874
605263,1560688237268,18,2.26,1.67,3.5,1.54,2.85,1.19,0.15,-0.14,-0,0,1,1.2,7009,6,87,34,21,777,488.0,495,453,60,118.0,76,1,260,148,39,0,0,347,-6441,742,487,,,,,,,,,,,,
605283,1560688237288,22,2.25,1.68,3.5,1.55,2.88,1.14,0.05,-0.12,-1,-0,1,1.14,6921,6,87,34,22,801,485.0,493,443,60,119.0,76,1,260,148,39,0,0,357,-6441,3082,481,,,,,,,,,,,,
605303,1560688237308,19,2.26,1.68,3.5,1.55,2.89,1.13,0.16,-0.13,0,1,-0,1.14,6766,6,87,34,22,816,479.0,491,443,60,117.0,81,1,260,150,39,0,0,374,10305,742,477,,,,,,,,,,,,
605323,1560688237328,18,2.26,1.69,3.48,1.57,2.88,1.14,0.12,-0.12,-1,-0,0,1.15,6679,6,87,34,22,820,473.0,480,440,60,119.0,81,1,261,149,39,0,0,372,32033,8200,471,,,,,,,,,,,,
605343,1560688237348,21,2.25,1.7,3.47,1.56,2.88,1.08,0.14,-0.16,-0,3,1,1.09,6644,6,87,34,23,825,467.0,473,441,60,118.0,81,1,262,149,39,0,0,359,243,2060,464,45.700943,4.911658,51.03,197.2,6,1.6483,0,0.0,0.605,7,0.5,10.0891
605363,1560688237368,17,2.25,1.7,3.47,1.57,2.89,1.16,0.16,-0.21,0,1,1,1.17,6641,6,87,34,22,833,461.0,469,436,60,119.0,81,1,261,149,39,0,0,342,2211,13,457,,,,,,,,,,,,
605383,1560688237388,19,2.25,1.7,3.47,1.58,2.88,1.12,0.12,-0.13,0,1,1,1.12,6574,6,87,34,23,839,454.0,464,433,60,119.0,81,1,262,152,39,0,0,360,2524,2560,454,,,,,,,,,,,,
605403,1560688237406,19,2.25,1.7,3.46,1.57,2.9,1.17,0.14,-0.14,-0,2,2,1.18,6436,6,87,34,23,844,450.0,458,448,60,118.0,82,1,263,152,37,0,0,364,-3267,3082,447,,,,,,,,,,,,
605423,1560688237426,18,2.24,1.69,3.46,1.54,2.92,1.19,0.18,-0.17,-1,2,3,1.2,6436,6,87,34,24,851,444.0,456,446,60,119.0,82,1,264,155,37,0,0,336,21432,-31222,444,,,,,,,,,,,,
605443,1560688237446,20,2.25,1.69,3.45,1.53,2.9,1.23,0.13,-0.13,-1,1,3,1.24,6375,6,87,34,24,865,439.0,451,443,60,119.0,82,1,265,155,37,0,0,340,-28332,-25856,435,45.700932,4.911648,48.15,197.2,6,1.6483,0,0.0,0.6067,7,0.5,10.0907
605463,1560688237466,20,2.24,1.7,3.44,1.53,2.92,1.3,0.07,-0.04,-1,2,3,1.3,6283,6,87,34,24,878,435.0,448,452,60,118.0,82,1,266,155,37,0,0,367,-7939,-32559,432,,,,,,,,,,,,
605483,1560688237486,18,2.25,1.69,3.41,1.52,2.92,1.29,0.11,-0.04,-1,3,2,1.29,6277,6,87,34,25,888,431.0,445,450,60,117.0,82,1,268,159,37,0,0,373,1779,-22016,427,,,,,,,,,,,,
605503,1560688237508,12,2.25,1.69,3.45,1.53,2.9,1.25,0.18,-0.1,-1,4,1,1.27,6306,6,87,34,25,899,423.0,446,446,60,119.0,87,1,267,159,37,0,0,340,3826,155,421,,,,,,,,,,,,
605523,1560688237528,11,2.24,1.69,3.46,1.53,2.86,1.24,0.14,-0.14,-1,4,1,1.25,6252,6,87,34,25,915,420.0,446,447,60,119.0,87,1,268,159,37,0,0,287,-8165,3183,417,,,,,,,,,,,,
605543,1560688237548,13,2.23,1.71,3.45,1.52,2.83,1.24,0.03,-0.1,-2,2,0,1.25,6153,6,87,34,25,928,416.0,440,446,60,119.0,87,1,269,159,37,0,0,316,18584,240,411,45.70092,4.911639,45.58,197.1,6,1.6483,0,0.0,0.6083,7,0.5,10.0924
605563,1560688237568,14,2.21,1.72,3.45,1.53,2.83,1.32,-0.03,0.0,-3,0,-1,1.32,6192,6,87,34,26,932,409.0,436,446,60,119.0,87,1,272,160,37,0,0,336,11560,-6656,405,,,,,,,,,,,,
605583,1560688237588,15,2.2,1.75,3.45,1.52,2.86,1.33,-0.06,0.1,-4,0,-3,1.33,6273,6,87,34,26,936,405.0,445,444,60,118.0,87,1,271,160,37,0,0,329,-9211,25600,395,,,,,,,,,,,,
605603,1560688237606,14,2.19,1.8,3.44,1.53,2.89,1.29,-0.0,0.09,-4,1,-4,1.29,6245,6,87,34,26,938,402.0,445,443,60,118.0,96,1,272,160,38,0,0,323,11545,0,392,,,,,,,,,,,,
605623,1560688237626,14,2.18,1.86,3.41,1.54,2.9,1.16,0.18,0.01,-4,3,-4,1.18,6109,6,87,34,26,940,400.0,441,452,60,117.0,96,1,272,161,38,0,0,373,6384,150,386,,,,,,,,,,,,
605643,1560688237646,9,2.18,1.91,3.38,1.52,2.91,1.09,0.37,-0.12,-3,4,-3,1.15,6129,6,87,34,27,938,393.0,437,441,60,118.0,96,1,275,161,38,0,0,371,-6656,6870,382,45.700912,4.911631,43.25,197.2,6,1.6483,0,0.0,0.61,7,0.5,10.0941
605663,1560688237666,4,2.17,1.94,3.38,1.54,2.9,1.03,0.49,-0.21,-3,3,-4,1.14,6212,6,87,34,27,936,389.0,437,458,60,119.0,96,1,274,161,38,0,0,324,-6524,170,376,,,,,,,,,,,,
605683,1560688237686,3,2.17,1.96,3.38,1.6,2.91,1.06,0.41,-0.19,-4,2,-4,1.13,6264,6,87,34,27,917,385.0,441,452,60,119.0,96,1,274,161,38,0,0,318,-6475,8841,371,,,,,,,,,,,,
605703,1560688237706,2,2.17,1.97,3.38,1.61,2.93,1.14,0.29,-0.06,-7,-1,-4,1.18,6294,6,87,34,27,898,382.0,445,448,60,119.0,103,1,274,161,38,0,0,348,-18948,-14714,368,,,,,,,,,,,,
605723,1560688237726,2,2.16,1.97,3.33,1.61,2.98,1.14,0.28,0.03,-8,-2,-5,1.18,6345,6,86,34,27,879,378.0,446,438,60,119.0,103,1,273,161,38,0,0,361,8200,4838,364,,,,,,,,,,,,
605743,1560688237746,-1,2.14,1.97,3.28,1.58,3.04,1.09,0.37,-0.03,-8,1,-5,1.15,6467,6,86,34,26,861,375.0,455,438,60,118.0,103,1,269,160,38,0,0,357,770,-22016,361,45.700901,4.911623,39.67,197.2,6,1.6483,0,0.0,0.6117,7,0.5,10.0957
605763,1560688237766,0,2.12,1.97,3.27,1.54,3.07,1.1,0.34,0.0,-8,-0,-5,1.15,6528,6,86,34,26,850,375.0,456,427,60,119.0,103,1,268,160,38,0,0,363,770,-30976,359,,,,,,,,,,,,
605783,1560688237786,4,2.11,1.97,3.2,1.53,3.08,1.12,0.33,0.1,-9,-1,-7,1.16,6539,6,86,34,26,836,375.0,461,445,60,118.0,103,1,268,160,38,0,0,367,770,145,357,,,,,,,,,,,,
605803,1560688237806,0,2.09,1.98,3.14,1.53,3.07,1.08,0.42,0.06,-10,-1,-7,1.16,6490,6,86,34,26,837,376.0,466,434,60,119.0,109,1,269,160,39,0,0,368,3,175,354,,,,,,,,,,,,
605823,1560688237826,2,2.07,1.97,3.15,1.54,3.04,1.13,0.36,0.05,-11,1,-9,1.19,6483,6,86,34,26,843,376.0,465,436,60,119.0,109,1,269,160,39,0,0,365,3,-31222,353,,,,,,,,,,,,
605843,1560688237846,2,2.03,1.98,3.15,1.53,3.03,1.05,0.49,-0.07,-12,4,-9,1.16,6496,6,86,34,26,853,373.0,464,451,60,119.0,109,1,269,160,39,0,0,365,-6656,-31222,350,45.700897,4.911616,37.66,197.2,6,1.6483,0,0.0,0.6133,7,0.5,10.0974
605863,1560688237866,0,2.0,2.0,3.13,1.52,3.03,1.07,0.41,-0.04,-13,7,-8,1.15,6574,6,86,34,25,865,373.0,467,446,60,118.0,109,1,265,159,39,0,0,361,-6656,6668,347,,,,,,,,,,,,
605883,1560688237886,3,1.97,2.04,3.12,1.49,3.04,1.08,0.44,0.06,-16,7,-8,1.17,6583,6,86,34,25,871,372.0,467,420,60,119.0,109,1,265,159,39,0,0,365,-6656,-20736,344,,,,,,,,,,,,
605903,1560688237908,6,1.94,2.1,3.05,1.49,3.03,1.1,0.6,0.0,-17,8,-7,1.25,6569,6,86,34,25,876,374.0,472,418,60,117.0,113,1,265,159,39,0,0,368,-6656,165,339,,,,,,,,,,,,
605923,1560688237928,1,1.93,2.15,2.99,1.49,3.02,1.14,0.59,0.12,-19,9,-8,1.28,6565,6,86,34,25,880,373.0,467,421,60,119.0,113,1,265,159,39,0,0,367,-6656,165,335,,,,,,,,,,,,
605943,1560688237948,4,1.9,2.18,2.93,1.48,3.03,1.09,0.68,0.21,-22,7,-11,1.29,6505,6,86,34,25,882,373.0,467,413,60,119.0,113,1,265,159,39,0,0,364,-6656,-22016,331,45.700886,4.911609,36.07,197.2,6,1.6483,0,0.0,0.615,7,0.51,10.099
605963,1560688237968,7,1.87,2.21,2.88,1.43,3.04,1.04,0.81,0.11,-23,8,-14,1.32,6434,6,86,34,25,882,371.0,462,411,60,117.0,113,1,266,159,39,0,0,368,257,155,329,,,,,,,,,,,,
605983,1560688237988,2,1.88,2.25,2.9,1.43,3.08,1.01,0.81,0.06,-23,10,-18,1.29,6366,6,86,34,25,880,372.0,459,415,60,119.0,113,1,267,159,39,0,0,366,1,140,325,,,,,,,,,,,,
606003,1560688238001,0,1.89,2.28,2.9,1.43,3.07,1.08,0.74,0.14,-24,9,-21,1.3,6304,6,86,34,25,879,368.0,453,411,60,119.0,117,1,267,159,38,0,0,367,0,-32256,323,,,,,,,,,,,,
606023,1560688238021,2,1.91,2.3,2.9,1.42,3.08,1.12,0.79,0.26,-27,4,-24,1.37,6227,6,86,34,26,880,366.0,444,409,60,119.0,117,1,271,159,38,0,0,359,-6656,125,320,,,,,,,,,,,,
606043,1560688238041,5,1.91,2.3,2.91,1.42,3.08,1.03,0.89,0.33,-28,0,-28,1.36,6171,6,86,34,26,880,366.0,440,407,60,118.0,117,1,272,160,38,0,0,357,230,30720,319,45.700882,4.911604,34.67,197.1,6,1.6483,0,0.0,0.6167,7,0.51,10.1007
606063,1560688238061,4,1.94,2.29,2.95,1.44,3.09,1.02,0.95,0.37,-28,-3,-32,1.39,6121,6,86,34,26,881,365.0,440,413,60,118.0,117,1,272,160,38,0,0,359,-6405,90,316,,,,,,,,,,,,
606083,1560688238081,4,1.96,2.29,3.0,1.44,3.09,1.01,1.03,0.34,-29,-5,-34,1.45,6062,6,86,34,26,884,361.0,437,418,60,118.0,117,1,272,160,38,0,0,352,-6458,21760,315,,,,,,,,,,,,
606103,1560688238109,2,2.0,2.29,3.01,1.44,3.09,0.9,1.11,0.3,-29,-6,-37,1.43,6013,6,86,34,27,888,362.0,433,418,60,118.0,114,1,274,160,36,0,0,351,2790,24320,315,,,,,,,,,,,,
606123,1560688238129,2,2.03,2.29,3.02,1.46,3.06,0.77,1.1,0.3,-28,-7,-39,1.34,5965,6,86,34,27,890,358.0,428,416,60,119.0,114,1,274,161,36,0,0,348,-29978,24320,315,,,,,,,,,,,,
606143,1560688238149,2,2.06,2.27,3.05,1.46,3.03,0.7,1.12,0.32,-26,-7,-39,1.32,5948,6,86,34,27,892,355.0,427,411,60,118.0,114,1,274,161,36,0,0,343,2060,23040,313,45.70087,4.9116,33.22,197.1,6,1.6483,0,0.0,0.6183,7,0.51,10.1024
