"Interval"|"ms"|0|0|1,"Utc"|"ms"|0|0|1,"FB_p"|"bar"|0|300|50,"Volant"|"F"|0.0|300.0|50,"xFR"|"mm"|0.0|5.0|50,"xRR"|"mm"|0.0|5.0|50,"xFL"|"mm"|0.0|5.0|50,"xRL"|"mm"|0.0|5.0|50,"AccelX"|"G"|-3.0|3.0|50,"AccelY"|"G"|-3.0|3.0|50,"AccelZ"|"G"|-3.0|3.0|50,"Yaw"|"Deg/Sec"|-120|120|50,"Pitch"|"Deg/Sec"|-120|120|50,"Roll"|"Deg/Sec"|-120|120|50,"Gsum"|"G"|0.0|3.0|50,"RPM"|""|0|14000|50,"TPS"|"%"|0|100|50,"WaterTemp"|"?C"|0|300|50,"AirTemp"|"?C"|-1000|1000|50,"MAP"|"KPa"|0|255|50,"Lambda"|""|0|1024|50,"WheelSpeed"|"MPH"|0.0|150.0|50,"OilPress"|"PSI"|0|150|50,"FuelPress"|"PSI"|0|150|50,"OilTemp"|"F"|0|300|50,"Battery"|"Volts"|0.0|20.0|50,"FuelCon"|"L/h"|-1000|1000|50,"Gear"|""|0|10|50,"Advance"|"Deg"|-360|360|50,"Injection"|"ms"|-1000|1000|50,"FuelCon"|"L/100km"|-1000|1000|50,"LC_But_Pres"|""|-1000|1000|50,"LC_Active"|""|-1000|1000|50,"RD_Speed"|""|-1000|1000|50,"RUD_Speed"|""|-1000|1000|50,"LD_Speed"|""|-1000|1000|50,"LUD_Speed"|""|-1000|1000|50,"Latitude"|"Degrees"|-180.0|180.0|10,"Longitude"|"Degrees"|-180.0|180.0|10,"Speed"|"kph"|0.0|150.0|10,"Altitude"|"m"|0.0|4000.0|10,"LapCount"|""|0|0|10,"LapTime"|"Min"|0.0|0.0|10,"Sector"|""|0|0|10,"SectorTime"|"Min"|0.0|0.0|10,"ElapsedTime"|"Min"|0.0|0.0|10,"CurrentLap"|""|0|0|10,"Distance"|"km"|0.0|0.0|10,"SessionTime"|"Min"|0.0|0.0|10
178163,1560690484109,26,2.29,1.88,3.54,1.72,2.84,1.08,0.04,-0.01,0,-8,1,1.08,7239,11,80,29,26,952,582.0,558,460,60,122.0,74,1,266,161,45,0,0,426,243,1504,582,,,,,,,,,,,,
178183,1560690484129,22,2.28,1.88,3.54,1.71,2.84,1.03,-0.01,-0.1,1,-11,-2,1.03,7259,11,80,29,25,961,573.0,576,462,60,122.0,74,1,262,161,45,0,0,353,1760,0,570,,,,,,,,,,,,
178203,1560690484149,22,2.26,1.88,3.56,1.71,2.84,0.94,0.12,-0.25,1,-6,-4,0.95,7159,11,80,30,26,968,566.0,585,460,60,123.0,75,1,265,159,43,0,0,313,-2934,4104,566,,,,,,,,,,,,
178223,1560690484169,27,2.26,1.89,3.52,1.71,2.83,1.05,0.12,-0.13,-1,-10,-5,1.06,7004,11,80,30,25,974,562.0,588,461,60,124.0,75,1,260,159,43,0,0,307,-32504,770,558,,,,,,,,,,,,
178243,1560690484191,24,2.26,1.89,3.46,1.7,2.82,0.96,0.04,-0.18,-0,-8,-6,0.96,6808,11,80,30,26,983,554.0,591,460,60,122.0,75,1,266,160,43,0,0,320,2524,-31744,544,45.70208,4.910907,56.58,198.6,1,1.8267,0,0.0,0.44,2,0.33,2.9707
178263,1560690484211,28,2.27,1.88,3.47,1.71,2.81,1.02,0.13,-0.25,-1,-9,-8,1.03,6670,11,80,30,26,992,546.0,584,462,60,124.0,75,1,267,160,43,0,0,343,2524,1504,540,,,,,,,,,,,,
178283,1560690484231,21,2.27,1.88,3.49,1.71,2.82,1.09,0.07,-0.25,-1,-6,-8,1.09,6533,11,80,30,26,999,538.0,576,462,60,122.0,75,1,268,160,43,0,0,355,-8186,5600,535,,,,,,,,,,,,
178303,1560690484251,20,2.29,1.88,3.49,1.7,2.82,1.17,0.01,-0.17,-2,-6,-8,1.18,6425,11,80,30,27,1001,535.0,567,462,60,123.0,73,1,272,161,39,0,0,353,-32248,16408,528,,,,,,,,,,,,
178323,1560690484271,21,2.3,1.88,3.54,1.69,2.85,1.2,0.1,-0.23,-3,-4,-8,1.21,6454,11,80,30,27,1006,528.0,563,456,60,123.0,73,1,272,161,39,0,0,321,-32248,-8151,520,,,,,,,,,,,,
178343,1560690484291,16,2.31,1.88,3.57,1.7,2.85,1.16,0.17,-0.35,-2,-2,-6,1.17,6517,11,80,30,28,1012,525.0,562,460,60,122.0,73,1,276,163,39,0,0,284,-22519,160,516,45.702072,4.910921,52.97,198.6,1,1.8267,0,0.0,0.4417,2,0.33,2.9724
178363,1560690484311,19,2.31,1.89,3.56,1.71,2.85,1.21,0.02,-0.24,-2,-4,-5,1.21,6397,11,80,30,28,1015,515.0,560,458,60,123.0,73,1,276,163,39,0,0,277,-14,3346,513,,,,,,,,,,,,
178383,1560690484331,20,2.31,1.91,3.52,1.73,2.81,1.29,-0.07,-0.16,-3,-6,-5,1.3,6243,11,80,30,29,1017,508.0,559,462,60,124.0,73,1,280,164,39,0,0,291,-21872,-1246,503,,,,,,,,,,,,
178403,1560690484351,21,2.32,1.91,3.47,1.74,2.79,1.28,-0.01,-0.13,-4,-10,-5,1.28,6123,11,80,30,29,1015,501.0,551,458,60,124.0,76,1,281,164,38,0,0,311,11560,-6524,492,,,,,,,,,,,,
178423,1560690484371,20,2.31,1.9,3.46,1.72,2.79,1.18,0.09,-0.19,-2,-8,-5,1.18,5994,11,80,30,30,1012,492.0,543,461,60,124.0,76,1,283,165,38,0,0,347,-32768,-3314,490,,,,,,,,,,,,
178443,1560690484391,18,2.33,1.88,3.46,1.69,2.82,1.05,0.16,-0.24,-0,-7,-4,1.06,5980,11,80,30,30,1007,488.0,535,459,60,123.0,76,1,283,165,38,0,0,357,1,28696,485,45.702064,4.910935,50.05,198.6,1,1.8267,0,0.0,0.4433,2,0.33,2.974
178463,1560690484411,17,2.33,1.86,3.48,1.66,2.85,0.88,0.26,-0.3,2,-6,-5,0.92,6095,11,80,30,31,1000,484.0,532,458,60,123.0,76,1,287,167,38,0,0,336,-10483,3346,481,,,,,,,,,,,,
178483,1560690484431,16,2.34,1.87,3.51,1.68,2.83,0.81,0.35,-0.35,3,-6,-5,0.88,6071,11,80,30,31,991,479.0,533,465,60,123.0,76,1,287,167,38,0,0,334,2212,120,476,,,,,,,,,,,,
178503,1560690484451,18,2.34,1.88,3.51,1.72,2.83,0.68,0.39,-0.43,4,-2,-4,0.78,6036,11,80,30,31,978,471.0,530,465,60,123.0,80,1,287,167,38,0,0,319,32033,-28416,468,,,,,,,,,,,,
178523,1560690484471,15,2.36,1.88,3.51,1.72,2.82,0.57,0.39,-0.47,5,-0,-4,0.69,5946,11,80,30,32,966,465.0,529,461,60,124.0,80,1,288,168,38,0,0,318,6193,6870,465,,,,,,,,,,,,
178543,1560690484491,15,2.35,1.88,3.49,1.71,2.81,0.5,0.44,-0.55,6,1,-1,0.67,5926,11,80,30,32,959,460.0,529,461,60,124.0,80,1,288,168,38,0,0,320,-9160,-6644,457,45.702064,4.910935,50.05,198.6,1,1.8267,0,0.0,0.4433,2,0.33,2.9757
178563,1560690484510,16,2.36,1.87,3.47,1.7,2.81,0.46,0.47,-0.62,7,2,-0,0.66,6027,11,80,30,32,950,453.0,532,458,60,124.0,80,1,290,169,38,0,0,334,8488,125,453,,,,,,,,,,,,
178583,1560690484530,16,2.36,1.87,3.48,1.68,2.83,0.39,0.55,-0.65,9,3,1,0.68,6083,11,80,30,33,939,449.0,529,464,60,124.0,80,1,292,169,38,0,0,317,21432,250,448,,,,,,,,,,,,
178603,1560690484550,17,2.35,1.87,3.48,1.69,2.81,0.3,0.62,-0.69,10,6,2,0.69,6044,11,80,30,33,929,447.0,530,462,60,124.0,87,1,292,174,39,0,0,309,-28332,90,447,,,,,,,,,,,,
178623,1560690484570,16,2.36,1.87,3.49,1.72,2.8,0.21,0.61,-0.77,11,8,3,0.65,5944,11,80,30,33,924,440.0,528,464,60,124.0,87,1,291,173,39,0,0,333,1779,8841,440,,,,,,,,,,,,
178643,1560690484590,16,2.37,1.87,3.48,1.76,2.78,0.18,0.58,-0.77,12,6,5,0.61,5909,11,80,30,34,920,433.0,524,462,60,124.0,87,1,294,173,39,0,0,340,3826,-6524,431,45.702053,4.910948,46.66,198.6,1,1.8267,0,0.0,0.445,2,0.34,2.9774
178663,1560690484610,17,2.37,1.85,3.49,1.73,2.78,0.13,0.56,-0.78,13,8,6,0.57,6000,11,80,30,34,914,426.0,524,465,60,124.0,87,1,295,179,39,0,0,327,7154,-22016,426,,,,,,,,,,,,
178683,1560690484630,14,2.37,1.83,3.51,1.71,2.79,0.12,0.61,-0.77,14,9,7,0.63,6091,11,80,30,33,908,424.0,522,461,60,124.0,87,1,292,179,39,0,0,335,-4059,30720,424,,,,,,,,,,,,
178703,1560690484650,15,2.37,1.84,3.52,1.74,2.79,0.06,0.67,-0.86,15,12,9,0.68,6139,11,80,30,34,906,420.0,528,466,60,123.0,94,1,295,179,40,0,0,323,1504,30720,419,,,,,,,,,,,,
178723,1560690484670,11,2.35,1.85,3.52,1.77,2.78,0.04,0.63,-0.94,15,13,10,0.63,6085,11,80,30,33,904,415.0,529,465,60,123.0,94,1,292,174,40,0,0,326,-3968,8841,413,,,,,,,,,,,,
178743,1560690484690,10,2.35,1.85,3.51,1.76,2.78,0.17,0.52,-0.88,15,14,11,0.55,6103,11,80,30,33,901,407.0,531,463,60,122.0,94,1,292,174,40,0,0,346,-1562,4104,407,45.702049,4.910959,44.18,198.5,1,1.8267,0,0.0,0.4467,2,0.34,2.979
178763,1560690484710,14,2.33,1.83,3.51,1.75,2.76,0.34,0.33,-0.75,14,12,12,0.48,6300,11,80,30,33,897,399.0,535,467,60,123.0,94,1,292,174,40,0,0,335,-19126,3327,399,,,,,,,,,,,,
178783,1560690484730,13,2.33,1.8,3.54,1.74,2.81,0.51,0.14,-0.59,12,10,11,0.53,6401,11,80,30,33,894,396.0,541,464,60,122.0,94,1,292,174,40,0,0,315,8200,-32256,396,,,,,,,,,,,,
178803,1560690484750,15,2.31,1.81,3.54,1.74,2.81,0.65,0.1,-0.53,10,9,12,0.66,6399,11,80,30,33,893,391.0,550,457,60,124.0,106,1,292,174,42,0,0,322,-6656,-27136,391,,,,,,,,,,,,
178823,1560690484770,17,2.3,1.82,3.5,1.78,2.78,0.63,0.16,-0.59,11,9,11,0.65,6287,11,80,30,33,890,382.0,553,460,60,123.0,106,1,292,174,42,0,0,354,0,2790,382,,,,,,,,,,,,
178843,1560690484791,12,2.29,1.82,3.51,1.8,2.74,0.59,0.14,-0.57,12,10,10,0.6,6264,11,80,30,33,886,375.0,550,463,60,122.0,106,1,292,174,42,0,0,353,3082,-1268,375,45.702034,4.910981,38.47,198.5,1,1.8267,0,0.0,0.45,2,0.34,2.9807
178863,1560690484811,14,2.27,1.8,3.51,1.79,2.73,0.73,0.02,-0.44,9,9,8,0.73,6403,11,80,30,32,883,367.0,553,463,60,122.0,106,1,290,169,42,0,0,330,-14707,6870,367,,,,,,,,,,,,
178883,1560690484831,16,2.26,1.81,3.53,1.77,2.76,0.86,-0.04,-0.38,7,5,7,0.86,6456,11,80,30,32,881,364.0,560,461,60,124.0,106,1,290,169,42,0,0,320,-6640,2560,362,,,,,,,,,,,,
178903,1560690484851,10,2.27,1.82,3.52,1.76,2.79,0.81,0.12,-0.48,7,5,9,0.82,6476,11,80,30,32,880,358.0,561,461,60,124.0,114,1,290,169,41,0,0,334,3302,13,358,,,,,,,,,,,,
178923,1560690484871,11,2.24,1.89,3.5,1.76,2.77,0.77,0.07,-0.42,7,8,10,0.77,6412,11,80,30,32,878,351.0,560,461,60,122.0,114,1,290,169,41,0,0,347,-30454,13,351,,,,,,,,,,,,
178943,1560690484891,10,2.24,1.91,3.47,1.76,2.77,0.89,-0.06,-0.27,5,6,9,0.9,6336,11,80,30,32,876,346.0,560,457,60,124.0,114,1,290,169,41,0,0,344,-30438,2560,345,45.702034,4.910981,38.47,198.5,1,1.8267,0,0.0,0.45,2,0.34,2.9824
178963,1560690484910,13,2.22,1.9,3.47,1.76,2.75,0.92,-0.08,-0.22,3,3,9,0.92,6319,11,80,30,32,877,345.0,556,462,60,124.0,114,1,290,169,41,0,0,334,-31206,-122,341,,,,,,,,,,,,
178983,1560690484930,11,2.22,1.91,3.44,1.75,2.75,0.79,0.12,-0.32,4,6,8,0.8,6218,11,80,30,32,878,342.0,552,463,60,123.0,114,1,290,169,41,0,0,334,-31206,2560,336,,,,,,,,,,,,
179003,1560690484950,8,2.22,1.93,3.43,1.74,2.77,0.73,0.26,-0.43,4,9,8,0.78,6179,11,80,30,32,879,338.0,551,460,60,123.0,116,1,290,169,39,0,0,334,-31222,170,330,,,,,,,,,,,,
179023,1560690484970,9,2.19,1.96,3.41,1.73,2.76,0.75,0.23,-0.43,4,10,6,0.78,6099,11,80,30,32,877,336.0,548,458,60,122.0,116,1,290,169,39,0,0,333,13,-22016,327,,,,,,,,,,,,
179043,1560690484990,9,2.17,1.98,3.39,1.72,2.77,0.84,0.19,-0.39,2,11,4,0.86,6030,11,80,30,33,876,333.0,543,460,60,122.0,116,1,292,174,39,0,0,327,-6528,155,323,45.70203,4.91099,35.2,198.5,1,1.8267,0,0.0,0.4517,2,0.34,2.984
179063,1560690485004,8,2.14,2.01,3.38,1.71,2.77,0.96,0.11,-0.3,-1,10,2,0.96,6015,11,80,30,33,876,332.0,538,458,60,122.0,116,1,292,174,39,0,0,325,-12032,-29696,318,,,,,,,,,,,,
179083,1560690485024,8,2.11,2.05,3.37,1.7,2.77,1.06,0.04,-0.26,-3,10,0,1.07,5907,11,80,30,33,874,330.0,535,457,60,122.0,116,1,291,173,39,0,0,324,175,120,316,,,,,,,,,,,,
179103,1560690485044,13,2.08,2.12,3.33,1.7,2.79,1.12,0.08,-0.31,-6,12,-1,1.13,5852,11,80,30,33,873,328.0,530,461,60,122.0,121,1,290,172,38,0,0,324,165,115,307,,,,,,,,,,,,
179123,1560690485064,11,2.05,2.15,3.31,1.68,2.82,1.06,0.18,-0.37,-8,15,-2,1.08,5817,11,80,30,34,873,325.0,522,460,60,123.0,121,1,292,178,38,0,0,320,-23296,26880,301,,,,,,,,,,,,
179143,1560690485084,11,2.02,2.17,3.29,1.67,2.83,0.85,0.2,-0.38,-8,17,-3,0.87,5733,11,80,30,34,876,324.0,514,461,60,124.0,121,1,290,177,38,0,0,317,-25856,23040,297,45.702023,4.910998,33.22,198.4,1,1.8267,0,0.0,0.4533,2,0.34,2.9857
179163,1560690485110,10,1.98,2.19,3.28,1.66,2.87,0.87,0.35,-0.37,-7,13,-4,0.94,5647,11,80,30,35,879,322.0,503,457,60,124.0,121,1,292,182,38,0,0,315,155,41,289,,,,,,,,,,,,
179183,1560690485130,9,1.97,2.2,3.29,1.63,2.9,0.98,0.34,-0.24,-10,7,-5,1.04,5548,11,80,30,36,881,319.0,502,460,60,122.0,121,1,294,187,38,0,0,314,-27136,-1529,282,,,,,,,,,,,,
179203,1560690485150,13,1.94,2.21,3.27,1.64,2.92,0.94,0.36,-0.21,-14,10,-6,1.01,5463,11,80,30,37,884,317.0,495,463,60,123.0,138,1,296,192,39,0,0,312,-28416,630,281,,,,,,,,,,,,
179223,1560690485170,7,1.93,2.22,3.25,1.63,2.93,0.88,0.41,-0.14,-13,8,-9,0.97,5360,11,80,30,37,889,311.0,486,453,60,124.0,138,1,295,197,39,0,0,310,-32256,250,276,,,,,,,,,,,,
179243,1560690485190,12,1.92,2.23,3.23,1.61,2.96,0.99,0.45,-0.04,-17,4,-11,1.09,5314,11,80,30,39,893,311.0,481,467,60,122.0,138,1,303,204,39,0,0,304,-32256,-1,272,45.702015,4.911007,31.16,198.4,1,1.8267,0,0.0,0.455,2,0.34,2.9874
179263,1560690485210,8,1.92,2.23,3.23,1.6,2.98,0.84,0.47,-0.04,-17,6,-15,0.97,5246,11,80,30,40,897,308.0,475,460,60,124.0,138,1,304,205,39,0,0,303,120,-1281,269,,,,,,,,,,,,
179283,1560690485230,10,1.93,2.23,3.23,1.58,2.99,0.96,0.45,0.03,-20,3,-20,1.06,5195,11,80,30,41,899,306.0,462,465,60,124.0,138,1,304,206,39,0,0,301,115,-214,265,,,,,,,,,,,,
179303,1560690485250,9,1.93,2.23,3.23,1.58,2.99,0.86,0.47,-0.02,-19,3,-23,0.98,5090,11,80,30,41,905,304.0,461,460,60,123.0,150,1,302,208,40,0,0,298,110,16896,261,,,,,,,,,,,,
179323,1560690485270,6,1.93,2.23,3.22,1.58,2.98,0.81,0.4,-0.04,-21,6,-26,0.9,5006,11,80,30,43,912,301.0,449,462,60,124.0,150,1,302,208,40,0,0,294,26880,10812,259,,,,,,,,,,,,
179343,1560690485290,6,1.92,2.22,3.24,1.59,2.96,0.93,0.48,0.02,-22,3,-27,1.05,4912,11,80,30,44,917,296.0,435,468,60,122.0,150,1,300,209,40,0,0,287,90,-1494,256,45.702015,4.911015,29.17,198.4,1,1.8267,0,0.0,0.4567,2,0.34,2.989
179363,1560690485310,11,1.91,2.22,3.23,1.6,2.94,0.89,0.49,0.04,-21,1,-28,1.02,4843,11,80,30,45,922,294.0,430,459,60,122.0,150,1,299,209,40,0,0,283,80,-1445,254,,,,,,,,,,,,
179383,1560690485330,7,1.92,2.22,3.23,1.61,2.93,0.75,0.48,-0.04,-22,6,-29,0.89,4836,11,80,30,45,923,287.0,422,457,60,123.0,150,1,299,209,40,0,0,281,41,250,250,,,,,,,,,,,,
179403,1560690485350,3,1.92,2.21,3.23,1.61,2.94,0.8,0.43,-0.0,-24,6,-30,0.91,4829,11,80,30,46,913,285.0,417,463,60,124.0,153,1,300,211,38,0,0,276,-16896,-1483,246,,,,,,,,,,,,
179423,1560690485370,4,1.91,2.21,3.23,1.62,2.94,0.89,0.46,0.08,-25,2,-31,1.0,4805,11,80,30,47,902,281.0,420,466,60,124.0,153,1,302,214,38,0,0,275,24064,13602,244,,,,,,,,,,,,
179443,1560690485390,3,1.91,2.22,3.23,1.61,2.93,0.98,0.51,0.08,-24,1,-32,1.1,4737,11,80,30,47,888,281.0,413,462,60,122.0,153,1,301,212,38,0,0,273,24064,13602,242,45.702007,4.911023,27.19,198.4,1,1.8267,0,0.0,0.4583,2,0.34,2.9907
179463,1560690485410,3,1.92,2.22,3.22,1.64,2.92,0.98,0.52,0.1,-24,-2,-33,1.1,4698,11,80,30,48,876,279.0,411,457,60,121.0,153,1,300,214,38,0,0,271,630,250,240,,,,,,,,,,,,
179483,1560690485430,5,1.91,2.22,3.2,1.64,2.87,0.9,0.46,0.11,-23,-0,-34,1.01,4657,11,80,30,48,868,277.0,406,457,60,123.0,153,1,300,214,38,0,0,272,250,8704,240,,,,,,,,,,,,
179503,1560690485450,3,1.92,2.22,3.18,1.64,2.85,0.84,0.49,0.02,-24,3,-33,0.97,4653,11,80,30,48,860,273.0,404,459,60,123.0,158,1,300,214,38,0,0,266,28160,13602,238,,,,,,,,,,,,
179523,1560690485470,-1,1.92,2.22,3.16,1.64,2.85,0.69,0.51,-0.01,-25,6,-33,0.86,4685,11,80,30,49,866,272.0,401,458,60,123.0,158,1,300,217,38,0,0,266,250,18432,237,,,,,,,,,,,,
179543,1560690485490,1,1.92,2.22,3.15,1.66,2.84,0.68,0.5,0.01,-26,9,-33,0.85,4629,11,80,31,49,872,271.0,402,463,60,124.0,158,1,299,216,38,0,0,265,-1281,250,234,45.702004,4.911031,25.97,198.4,1,1.8267,0,0.0,0.46,2,0.34,2.9924
179563,1560690485509,0,1.92,2.21,3.14,1.65,2.85,0.7,0.51,0.11,-27,9,-33,0.87,4611,11,80,31,49,876,269.0,398,458,60,124.0,158,1,299,216,38,0,0,264,-1,10824,234,,,,,,,,,,,,
179583,1560690485529,1,1.93,2.21,3.15,1.7,2.83,0.76,0.5,0.21,-27,7,-33,0.91,4573,11,80,31,50,880,268.0,398,466,60,124.0,158,1,299,219,38,0,0,262,-1,10824,234,,,,,,,,,,,,
179603,1560690485549,-1,1.95,2.21,3.15,1.73,2.83,0.8,0.51,0.3,-28,6,-34,0.95,4574,11,80,31,50,878,267.0,394,461,60,124.0,158,1,299,219,37,0,0,263,-1,-1496,233,,,,,,,,,,,,
179623,1560690485569,-0,1.95,2.23,3.16,1.75,2.83,0.86,0.5,0.32,-27,7,-35,0.99,4526,11,80,31,50,876,265.0,393,462,60,124.0,158,1,298,218,37,0,0,259,-1,10318,231,,,,,,,,,,,,
179643,1560690485591,-1,1.98,2.22,3.16,1.76,2.82,0.94,0.45,0.4,-28,3,-35,1.05,4543,11,80,31,51,874,263.0,391,466,60,124.0,158,1,298,218,37,0,0,259,-1,19968,231,45.702,4.911047,23.39,198.4,1,1.8267,0,0.0,0.4633,2,0.34,2.994
179663,1560690485611,-2,2.0,2.23,3.17,1.76,2.82,1.03,0.37,0.48,-28,1,-35,1.1,4493,11,80,31,51,872,264.0,387,466,60,124.0,158,1,297,221,37,0,0,255,-1,19968,230,,,,,,,,,,,,
179683,1560690485631,-0,2.02,2.22,3.18,1.76,2.81,1.1,0.3,0.54,-27,-1,-35,1.14,4463,11,80,31,51,872,262.0,382,465,60,124.0,158,1,297,221,37,0,0,256,-1,250,231,,,,,,,,,,,,
179703,1560690485651,-0,2.04,2.23,3.18,1.78,2.79,1.17,0.27,0.59,-27,-2,-34,1.2,4481,11,80,31,51,872,259.0,376,470,60,124.0,160,1,297,221,37,0,0,253,-41,19968,230,,,,,,,,,,,,
179723,1560690485671,-2,2.09,2.22,3.17,1.79,2.75,1.21,0.21,0.68,-26,-4,-33,1.23,4479,11,80,31,51,871,257.0,376,470,60,124.0,160,1,297,221,37,0,0,250,14337,-1496,230,,,,,,,,,,,,
179743,1560690485691,-0,2.12,2.22,3.18,1.81,2.72,1.29,0.14,0.75,-25,-4,-33,1.29,4478,11,80,31,51,870,254.0,376,466,60,124.0,160,1,297,221,37,0,0,249,-1,18432,230,45.702,4.911047,23.39,198.4,1,1.8267,0,0.0,0.4633,2,0.35,2.9957
179763,1560690485709,-2,2.15,2.19,3.19,1.83,2.69,1.28,0.08,0.81,-24,-5,-33,1.28,4510,11,80,31,51,869,251.0,375,466,60,124.0,160,1,298,222,37,0,0,248,-214,-1496,230,,,,,,,,,,,,
179783,1560690485729,-0,2.18,2.17,3.23,1.85,2.67,1.32,0.03,0.83,-22,-4,-32,1.32,4466,11,80,31,51,868,248.0,376,469,60,124.0,160,1,297,221,37,0,0,246,250,-1496,231,,,,,,,,,,,,
179803,1560690485749,0,2.21,2.16,3.25,1.88,2.65,1.3,-0.02,0.85,-21,-4,-31,1.3,4471,11,80,31,52,869,246.0,376,468,60,124.0,159,1,297,224,37,0,0,242,10812,10824,231,,,,,,,,,,,,
179823,1560690485769,-1,2.25,2.17,3.26,1.92,2.62,1.25,-0.12,0.84,-20,-3,-30,1.26,4424,11,80,31,52,870,243.0,380,465,60,124.0,159,1,297,224,37,0,0,241,-1445,250,233,,,,,,,,,,,,
179843,1560690485789,0,2.29,2.16,3.29,1.93,2.61,1.18,-0.18,0.84,-19,-2,-27,1.19,4401,11,80,31,51,871,240.0,376,456,60,124.0,159,1,297,220,37,0,0,239,250,13602,234,45.701996,4.911055,23.14,198.4,1,1.8267,0,0.0,0.465,2,0.35,2.9974
179863,1560690485809,1,2.33,2.15,3.31,1.95,2.6,1.08,-0.24,0.78,-17,2,-25,1.11,4395,11,80,31,52,873,240.0,375,463,60,124.0,159,1,297,219,37,0,0,238,13468,13602,234,,,,,,,,,,,,
179883,1560690485829,5,2.38,2.13,3.31,1.98,2.6,0.9,-0.24,0.7,-15,6,-23,0.93,4360,11,80,31,51,878,236.0,373,456,60,124.0,159,1,297,223,37,0,0,233,250,-1483,236,,,,,,,,,,,,
179903,1560690485849,4,2.43,2.12,3.34,2.01,2.57,0.8,-0.3,0.61,-12,10,-20,0.85,4371,11,80,31,52,883,239.0,367,460,60,123.0,151,1,297,223,36,0,0,233,8704,250,239,,,,,,,,,,,,
179923,1560690485869,3,2.48,2.1,3.39,2.04,2.53,0.7,-0.3,0.56,-9,11,-17,0.76,4422,11,80,31,52,888,240.0,361,456,60,123.0,151,1,297,224,36,0,0,231,10824,-1484,240,,,,,,,,,,,,
179943,1560690485889,-0,2.54,2.09,3.44,2.06,2.52,0.7,-0.33,0.53,-6,9,-14,0.78,4349,11,80,31,52,891,243.0,366,459,60,122.0,151,1,297,223,36,0,0,225,10318,250,243,45.701996,4.911063,22.95,198.4,1,1.8267,0,0.0,0.4667,2,0.35,2.9991
179963,1560690485909,-0,2.58,2.07,3.47,2.1,2.49,0.67,-0.36,0.53,-4,8,-10,0.76,4391,13,80,31,53,897,244.0,365,457,60,121.0,151,1,297,227,36,0,0,223,19968,250,244,,,,,,,,,,,,
179983,1560690485929,-2,2.63,2.05,3.47,2.15,2.48,0.67,-0.34,0.51,-1,5,-6,0.76,4361,16,80,31,54,902,245.0,367,462,60,122.0,151,1,298,232,36,0,0,221,1596,-17920,245,,,,,,,,,,,,
180003,1560690485949,-0,2.66,2.02,3.49,2.16,2.49,0.7,-0.39,0.52,3,2,-2,0.8,4383,19,80,31,55,906,247.0,369,460,60,123.0,154,1,298,235,38,0,0,217,1210,23482,247,,,,,,,,,,,,
180023,1560690485969,-0,2.69,1.99,3.51,2.18,2.49,0.78,-0.41,0.53,5,-3,2,0.88,4437,22,80,31,58,907,248.0,373,459,60,123.0,154,1,296,246,38,0,0,215,250,-1445,249,,,,,,,,,,,,
180043,1560690485989,-0,2.72,1.98,3.51,2.2,2.49,0.81,-0.42,0.54,7,-3,6,0.92,4454,26,80,31,60,908,250.0,370,466,60,123.0,154,1,294,260,38,0,0,211,-1532,15360,250,45.701996,4.911072,22.77,198.4,1,1.8267,0,0.0,0.4683,2,0.35,3.0007
180063,1560690486003,1,2.75,1.98,3.51,2.21,2.49,0.84,-0.41,0.5,10,-5,10,0.93,4548,29,80,31,64,910,251.0,375,462,60,123.0,154,1,293,277,38,0,0,208,16384,250,251,,,,,,,,,,,,
180083,1560690486023,-1,2.79,1.98,3.52,2.22,2.49,0.83,-0.42,0.45,13,-6,14,0.93,4614,31,80,31,67,910,253.0,379,461,60,122.0,154,1,290,302,38,0,0,208,250,-1494,253,,,,,,,,,,,,
180103,1560690486043,1,2.85,1.97,3.51,2.23,2.48,0.78,-0.5,0.42,15,-8,20,0.92,4732,32,80,31,70,910,253.0,386,452,60,121.0,213,1,288,315,54,0,0,205,-14848,250,253,,,,,,,,,,,,
180123,1560690486063,6,2.87,1.97,3.53,2.23,2.46,0.7,-0.54,0.39,18,-4,23,0.88,4812,32,80,31,72,910,254.0,392,461,60,123.0,213,1,286,331,54,0,0,203,-1482,10812,254,,,,,,,,,,,,
180143,1560690486083,-1,2.92,1.95,3.56,2.25,2.45,0.72,-0.59,0.45,20,-4,25,0.93,4856,32,80,31,74,908,256.0,396,457,60,123.0,213,1,285,341,54,0,0,201,13964,10812,256,45.701996,4.911079,22.74,198.4,1,1.8267,0,0.0,0.47,2,0.35,3.0024
180163,1560690486109,-2,0.33,1.95,3.57,2.29,2.42,0.72,-0.61,0.43,22,-5,27,0.94,4829,33,80,31,76,906,257.0,397,470,60,124.0,213,1,284,350,54,0,0,220,250,16896,257,,,,,,,,,,,,
180183,1560690486129,0,0.35,1.95,3.57,2.3,2.4,0.76,-0.66,0.43,25,-5,30,1.01,4709,33,80,31,77,904,259.0,397,459,60,122.0,213,1,286,358,54,0,0,269,-1482,10818,259,,,,,,,,,,,,
180203,1560690486149,2,0.37,1.95,3.55,2.34,2.38,0.7,-0.73,0.47,27,-7,32,1.01,4645,33,80,31,78,904,260.0,392,459,60,121.0,238,1,288,368,62,0,0,284,-29696,-214,260,,,,,,,,,,,,
180223,1560690486169,2,0.39,1.97,3.55,2.34,2.38,0.62,-0.82,0.54,29,-7,32,1.03,4675,33,80,31,78,906,259.0,389,458,60,122.0,238,1,287,368,62,0,0,251,250,-1,259,,,,,,,,,,,,
180243,1560690486191,5,0.38,1.97,3.57,2.32,2.38,0.56,-0.88,0.53,32,-8,31,1.04,4691,33,80,31,79,909,260.0,388,451,60,123.0,238,1,287,383,62,0,0,207,13964,-1281,260,45.701992,4.911094,22.37,198.4,1,1.8267,0,0.0,0.4733,2,0.35,3.0041
180263,1560690486211,5,0.38,1.96,3.6,2.33,2.37,0.55,-0.91,0.43,33,-8,30,1.06,4608,33,80,31,80,914,262.0,387,451,60,122.0,238,1,288,392,62,0,0,223,13964,-1,262,,,,,,,,,,,,
180283,1560690486231,7,0.37,1.96,3.61,2.32,2.37,0.55,-0.93,0.37,34,-7,33,1.08,4610,34,80,31,80,924,262.0,387,451,60,124.0,238,1,288,392,62,0,0,286,250,-1,262,,,,,,,,,,,,
180303,1560690486251,0,0.37,1.96,3.62,2.32,2.38,0.6,-0.92,0.39,35,-6,37,1.1,4718,35,80,31,80,946,264.0,387,457,60,124.0,269,1,286,411,71,0,0,259,13964,-1,264,,,,,,,,,,,,
180323,1560690486271,-2,0.37,1.96,3.62,2.32,2.37,0.71,-0.88,0.45,36,-7,41,1.13,4829,36,80,31,82,968,265.0,392,470,60,124.0,269,1,284,431,71,0,0,232,250,-1281,266,,,,,,,,,,,,
180343,1560690486291,3,0.37,1.97,3.62,2.32,2.37,0.75,-0.88,0.44,38,-8,45,1.15,4846,37,80,31,82,985,266.0,395,463,60,122.0,269,1,284,446,71,0,0,232,13964,-1281,268,45.701988,4.911101,22.33,198.3,1,1.8267,0,0.0,0.475,2,0.35,3.0057
180363,1560690486311,4,0.37,1.98,3.63,2.31,2.35,0.68,-0.93,0.38,40,-5,48,1.15,4940,37,80,31,83,1006,269.0,395,458,60,122.0,269,1,282,452,71,0,0,265,250,-41,268,,,,,,,,,,,,
180383,1560690486331,-0,0.38,1.98,3.62,2.32,2.34,0.72,-0.93,0.41,40,-5,51,1.18,4956,38,80,31,83,1041,270.0,412,460,60,124.0,269,1,282,453,71,0,0,283,250,-1,270,,,,,,,,,,,,
180403,1560690486351,1,0.38,1.99,3.6,2.32,2.31,0.74,-0.9,0.5,41,-7,54,1.16,5067,38,80,31,83,1076,271.0,413,465,60,122.0,318,1,286,457,86,0,0,267,-14848,-1,271,,,,,,,,,,,,
180423,1560690486371,-2,0.39,1.98,3.6,2.33,2.28,0.73,-0.92,0.54,43,-4,54,1.17,5163,38,80,31,83,1094,272.0,415,458,60,123.0,318,1,291,459,86,0,0,248,-1533,-1,272,,,,,,,,,,,,
180443,1560690486391,0,0.38,1.99,3.6,2.33,2.26,0.77,-0.84,0.51,43,-4,56,1.14,5120,39,80,31,83,1111,275.0,423,466,60,123.0,318,1,288,444,86,0,0,289,-1533,-1,275,45.701984,4.911107,22.45,198.3,1,1.8267,0,0.0,0.4767,2,0.35,3.0074
180463,1560690486411,4,0.36,2.01,3.6,2.32,2.27,0.77,-0.96,0.53,44,-7,57,1.23,5127,39,80,31,82,1122,278.0,420,456,60,122.0,318,1,289,444,86,0,0,314,-1532,-1,278,,,,,,,,,,,,
180483,1560690486431,2,0.34,2.01,3.58,2.34,2.25,0.72,-0.98,0.54,45,-3,57,1.21,5196,39,80,31,83,1132,279.0,423,465,60,124.0,318,1,293,446,86,0,0,274,250,28160,279,,,,,,,,,,,,
180503,1560690486451,5,2.92,2.03,3.58,2.34,2.25,0.75,-0.96,0.55,46,-5,57,1.22,5224,39,80,31,82,1126,281.0,429,457,60,122.0,314,1,295,447,88,0,0,246,1210,2414,281,,,,,,,,,,,,
180523,1560690486471,-1,2.87,2.05,3.58,2.37,2.24,0.71,-0.91,0.56,46,-4,57,1.16,5149,39,80,31,82,1121,284.0,431,459,60,124.0,314,1,290,445,88,0,0,342,15360,250,284,,,,,,,,,,,,
180543,1560690486491,4,2.81,2.06,3.55,2.38,2.24,0.71,-0.88,0.58,46,-5,60,1.13,5136,39,80,31,83,1103,285.0,433,459,60,121.0,314,1,289,458,88,0,0,342,-1530,250,285,45.701984,4.911107,22.45,198.3,1,1.8267,0,0.0,0.4767,2,0.35,3.009
180563,1560690486510,-2,2.74,2.09,3.53,2.37,2.25,0.69,-0.88,0.64,45,-4,61,1.12,5212,39,80,31,82,1088,286.0,431,457,60,124.0,314,1,295,447,88,0,0,342,10318,24064,286,,,,,,,,,,,,
180583,1560690486530,4,2.66,2.12,3.48,2.36,2.28,0.68,-0.82,0.67,45,-4,61,1.06,5235,39,80,32,82,1075,286.0,432,458,60,122.0,314,1,296,447,88,0,0,238,10824,-1529,286,,,,,,,,,,,,
180603,1560690486550,-1,2.58,2.19,3.38,2.35,2.29,0.67,-0.72,0.72,42,-5,60,0.99,5209,39,80,32,82,1066,286.0,431,462,60,124.0,308,1,294,447,88,0,0,259,-25600,-16896,286,,,,,,,,,,,,
180623,1560690486570,3,2.49,2.28,3.25,2.36,2.3,0.65,-0.57,0.72,40,-3,59,0.86,5162,39,80,32,82,1052,285.0,435,461,60,122.0,308,1,291,446,88,0,0,279,10812,10686,286,,,,,,,,,,,,
180643,1560690486590,1,2.4,2.36,3.14,2.35,2.31,0.61,-0.52,0.7,37,0,56,0.8,5118,39,80,32,82,1039,283.0,434,451,60,124.0,308,1,288,444,88,0,0,263,-1,0,283,45.701977,4.911112,23.3,198.3,1,1.8267,0,0.0,0.4783,2,0.35,3.0107
180663,1560690486610,0,2.33,2.44,3.04,2.33,2.36,0.7,-0.39,0.79,33,-3,52,0.8,5071,39,80,32,83,1034,279.0,430,463,60,124.0,308,1,285,443,88,0,0,267,-41,1886,279,,,,,,,,,,,,
180683,1560690486630,4,2.26,2.5,2.96,2.29,2.47,0.64,-0.19,0.74,30,-3,48,0.67,5070,39,80,32,83,1030,278.0,428,450,60,121.0,308,1,285,457,88,0,0,270,-1,-1529,278,,,,,,,,,,,,
180703,1560690486650,1,2.19,2.51,2.93,2.24,2.56,0.69,-0.15,0.72,25,-1,43,0.71,5096,40,80,32,83,1022,277.0,427,449,60,122.0,317,1,286,457,88,0,0,276,250,630,277,,,,,,,,,,,,
180723,1560690486670,3,2.13,2.54,2.93,2.21,2.66,0.69,0.03,0.69,22,-4,38,0.69,5120,40,80,32,83,1011,277.0,426,462,60,123.0,317,1,288,458,88,0,0,280,30208,30208,275,,,,,,,,,,,,
180743,1560690486690,-1,2.1,2.57,2.95,2.17,2.73,0.65,0.04,0.67,19,-3,34,0.65,5212,42,80,32,83,1004,282.0,430,460,60,123.0,317,1,294,460,88,0,0,287,1886,28160,273,45.701977,4.911117,24.7,198.2,1,1.8267,0,0.0,0.48,2,0.35,3.0124
180763,1560690486710,2,2.06,2.57,2.97,2.17,2.73,0.67,0.11,0.67,16,-3,28,0.68,5328,47,80,32,84,995,285.0,438,462,60,122.0,317,1,300,465,88,0,0,293,0,30208,273,,,,,,,,,,,,
180783,1560690486730,-0,2.03,2.57,2.97,2.17,2.74,0.69,0.01,0.8,13,-2,23,0.69,5479,51,80,31,84,986,291.0,448,461,60,124.0,317,1,309,468,88,0,0,292,20480,250,273,,,,,,,,,,,,
180803,1560690486750,-1,2.0,2.57,2.96,2.16,2.73,0.62,0.15,0.77,10,-3,21,0.64,5659,53,80,31,85,973,294.0,458,457,60,122.0,366,1,317,475,100,0,0,298,85,41,274,,,,,,,,,,,,
180823,1560690486770,-2,1.97,2.58,2.93,2.14,2.71,0.7,0.29,0.8,7,-4,17,0.76,5824,54,80,31,85,964,298.0,471,461,60,121.0,366,1,326,477,100,0,0,302,95,25600,276,,,,,,,,,,,,
180843,1560690486790,-1,1.97,2.6,2.88,2.13,2.69,0.8,0.25,0.84,3,-4,12,0.84,5954,54,80,31,85,959,303.0,488,456,60,122.0,366,1,333,479,100,0,0,307,110,32000,275,45.701969,4.911121,25.79,198.2,1,1.8267,0,0.0,0.4817,2,0.35,3.0141
180863,1560690486810,-1,1.97,2.64,2.88,2.14,2.66,0.82,0.17,0.87,-1,-2,7,0.84,6007,55,80,31,84,953,309.0,498,458,60,122.0,366,1,341,477,100,0,0,313,32000,4838,279,,,,,,,,,,,,
180883,1560690486830,-1,1.98,2.65,2.88,2.15,2.62,0.87,0.13,0.86,-4,-0,4,0.88,6121,55,80,31,85,946,313.0,508,459,60,122.0,366,1,341,482,100,0,0,321,-30976,-24576,283,,,,,,,,,,,,
180903,1560690486850,0,1.98,2.66,2.88,2.16,2.58,0.96,0.13,0.97,-7,-2,2,0.97,6117,55,80,31,85,939,320.0,515,457,60,122.0,395,1,341,483,112,0,0,324,150,-30976,286,,,,,,,,,,,,
180923,1560690486870,0,2.0,2.65,2.88,2.15,2.57,1.0,0.17,1.07,-10,-4,-1,1.02,6056,55,80,31,85,935,325.0,515,458,60,122.0,395,1,338,482,112,0,0,333,-23296,155,291,,,,,,,,,,,,
180943,1560690486890,2,2.01,2.66,2.87,2.17,2.59,1.0,0.23,1.15,-12,-6,-4,1.03,6058,55,80,31,85,931,329.0,514,456,60,122.0,395,1,338,482,112,0,0,333,-20736,-31206,296,45.701962,4.911126,27.34,198.2,1,1.8267,0,0.0,0.4833,2,0.35,3.0157
180963,1560690486910,2,2.0,2.66,2.9,2.16,2.6,0.97,0.3,1.18,-14,-6,-7,1.02,6147,57,80,31,85,925,331.0,510,457,60,121.0,395,1,342,483,112,0,0,336,-12032,-31222,299,,,,,,,,,,,,
180983,1560690486930,2,2.01,2.66,2.94,2.17,2.61,0.97,0.32,1.26,-15,-11,-9,1.02,6277,61,80,31,86,920,333.0,520,461,60,124.0,395,1,344,491,112,0,0,342,-6528,-24576,305,,,,,,,,,,,,
181003,1560690486950,5,2.01,2.65,2.94,2.17,2.62,0.86,0.41,1.21,-16,-11,-11,0.95,6379,65,80,31,87,918,338.0,528,461,60,124.0,386,1,346,498,118,0,0,341,-31222,-6528,307,,,,,,,,,,,,
181023,1560690486970,-0,2.01,2.63,2.92,2.15,2.63,0.76,0.44,1.02,-15,-7,-12,0.88,6481,69,80,31,89,918,343.0,534,462,60,123.0,386,1,346,509,118,0,0,347,-14714,-6644,312,,,,,,,,,,,,
181043,1560690486990,5,2.02,2.63,2.92,2.14,2.65,0.81,0.38,1.05,-18,-8,-14,0.9,6634,71,80,31,91,921,346.0,547,452,60,123.0,386,1,351,443,118,0,0,350,-30438,0,316,45.701954,4.911131,28.37,198.2,1,1.8267,0,0.0,0.485,2,0.35,3.0174
181063,1560690487004,-0,2.03,2.62,2.91,2.14,2.65,0.66,0.44,0.98,-17,-4,-15,0.79,6781,73,80,31,92,925,351.0,555,463,60,122.0,386,1,362,528,118,0,0,356,28553,-29302,318,,,,,,,,,,,,
181083,1560690487024,6,2.02,2.62,2.91,2.15,2.62,0.75,0.38,1.06,-19,-7,-17,0.84,6975,76,80,31,92,931,354.0,567,461,60,122.0,386,1,369,533,118,0,0,360,3302,2060,323,,,,,,,,,,,,
181103,1560690487044,3,2.03,2.63,2.89,2.14,2.6,0.63,0.34,1.05,-18,-3,-18,0.71,7025,77,80,31,92,938,360.0,574,459,60,122.0,436,1,372,533,141,0,0,367,-14707,-6458,327,,,,,,,,,,,,
181123,1560690487064,3,2.03,2.65,2.87,2.15,2.6,0.51,0.4,1.01,-18,-1,-18,0.65,7051,78,80,31,93,950,365.0,582,461,60,122.0,436,1,376,534,141,0,0,378,-6405,-6524,332,,,,,,,,,,,,
181143,1560690487084,1,2.04,2.65,2.88,2.16,2.6,0.61,0.41,1.1,-20,-1,-18,0.73,7137,79,80,31,93,961,369.0,586,456,60,123.0,436,1,380,538,141,0,0,382,-6656,-1818,337,45.701954,4.911138,30.75,198.2,1,1.8267,0,0.0,0.4867,2,0.35,3.019
181163,1560690487110,7,2.04,2.66,2.88,2.16,2.61,0.75,0.33,1.14,-21,-2,-20,0.82,7231,79,80,31,93,968,376.0,586,462,60,122.0,436,1,388,543,141,0,0,385,3,-19126,342,,,,,,,,,,,,
181183,1560690487130,6,2.05,2.69,2.88,2.17,2.62,0.65,0.33,1.17,-20,-2,-21,0.73,7364,79,80,31,92,970,378.0,592,460,60,123.0,436,1,399,549,141,0,0,390,-19126,-1562,346,,,,,,,,,,,,
181203,1560690487150,4,2.04,2.71,2.89,2.18,2.59,0.48,0.37,1.14,-20,2,-21,0.6,7446,80,80,31,92,955,383.0,605,460,60,122.0,446,1,405,552,154,0,0,401,-6475,-6524,350,,,,,,,,,,,,
181223,1560690487170,5,2.06,2.71,2.87,2.19,2.57,0.36,0.42,1.19,-20,1,-20,0.55,7575,80,80,31,91,939,388.0,606,459,60,123.0,446,1,416,558,154,0,0,403,505,-32702,356,,,,,,,,,,,,
181243,1560690487191,1,2.07,2.71,2.83,2.19,2.57,0.37,0.46,1.18,-20,3,-20,0.59,7649,80,80,31,91,917,394.0,600,462,60,121.0,446,1,421,560,154,0,0,407,-3968,2524,362,45.701939,4.911154,34.46,198.2,1,1.8267,0,0.0,0.49,2,0.36,3.0207
181263,1560690487211,0,2.09,2.71,2.81,2.16,2.58,0.46,0.5,1.2,-20,2,-21,0.68,7783,80,80,31,90,894,402.0,608,458,60,123.0,446,1,433,566,154,0,0,413,10541,3635,368,,,,,,,,,,,,
181283,1560690487231,4,2.11,2.71,2.82,2.17,2.57,0.49,0.52,1.25,-20,3,-23,0.72,7928,80,80,31,89,865,406.0,617,457,60,123.0,446,1,442,562,154,0,0,419,2524,-768,374,,,,,,,,,,,,
181303,1560690487251,2,2.13,2.71,2.82,2.19,2.53,0.42,0.49,1.32,-20,3,-25,0.65,8134,80,80,31,88,836,411.0,608,459,60,122.0,464,1,443,570,175,0,0,429,-4059,-9211,380,,,,,,,,,,,,
181323,1560690487271,4,2.15,2.71,2.85,2.23,2.49,0.43,0.47,1.21,-19,1,-26,0.64,8249,81,80,31,87,829,416.0,615,460,60,123.0,464,1,439,571,175,0,0,443,18584,-9166,389,,,,,,,,,,,,
181343,1560690487291,1,2.17,2.7,2.87,2.3,2.46,0.33,0.41,1.25,-19,2,-24,0.52,8322,81,80,31,86,822,421.0,617,456,60,122.0,464,1,435,564,175,0,0,454,-21792,2211,397,45.701939,4.911154,34.46,198.2,1,1.8267,0,0.0,0.49,2,0.36,3.0224
181363,1560690487310,5,2.18,2.72,2.87,2.34,2.45,0.36,0.45,1.18,-19,5,-23,0.58,8423,81,80,31,85,818,423.0,616,455,60,122.0,464,1,432,569,175,0,0,448,3826,16408,403,,,,,,,,,,,,
181383,1560690487330,2,2.2,2.74,2.85,2.35,2.44,0.33,0.38,1.24,-18,6,-21,0.5,8632,81,80,31,85,814,431.0,626,455,60,122.0,464,1,427,576,175,0,0,452,1779,23400,408,,,,,,,,,,,,
181403,1560690487350,2,2.2,2.76,2.83,2.35,2.44,0.33,0.33,1.31,-17,5,-20,0.47,8708,82,80,31,84,815,438.0,622,457,60,122.0,457,1,424,555,187,0,0,454,21580,10432,413,,,,,,,,,,,,
181423,1560690487370,2,2.22,2.74,2.84,2.36,2.44,0.33,0.26,1.38,-16,4,-21,0.43,8749,82,80,31,84,817,441.0,623,452,60,121.0,457,1,424,555,187,0,0,480,26704,-10483,426,,,,,,,,,,,,
181443,1560690487390,2,2.21,2.72,2.87,2.39,2.43,0.29,0.41,1.38,-15,1,-21,0.5,8890,82,80,31,82,833,445.0,621,461,60,121.0,457,1,420,555,187,0,0,489,2131,6193,434,45.701935,4.911163,37.06,198.2,1,1.8267,0,0.0,0.4917,2,0.36,3.024
181463,1560690487410,-1,2.22,2.7,2.93,2.4,2.43,0.29,0.41,1.38,-14,-1,-20,0.5,9014,83,80,31,83,848,451.0,625,451,60,122.0,457,1,418,555,187,0,0,491,3571,8488,440,,,,,,,,,,,,
181483,1560690487430,3,2.22,2.68,2.96,2.38,2.41,0.27,0.54,1.41,-14,-1,-18,0.6,9128,83,80,31,83,863,460.0,631,460,60,121.0,457,1,418,555,187,0,0,496,-23623,505,451,,,,,,,,,,,,
181503,1560690487450,3,2.22,2.7,2.93,2.36,2.43,0.3,0.56,1.31,-14,-2,-16,0.64,9250,83,80,31,83,876,467.0,631,460,60,122.0,427,1,418,555,193,0,0,486,243,-3482,455,,,,,,,,,,,,
181523,1560690487470,5,2.22,2.74,2.92,2.34,2.45,0.28,0.34,1.37,-13,-1,-16,0.44,9403,83,80,31,83,897,472.0,634,461,60,122.0,427,1,418,555,193,0,0,488,-9203,1248,458,,,,,,,,,,,,
181543,1560690487490,1,2.24,2.74,2.91,2.34,2.44,0.22,0.35,1.34,-11,2,-15,0.41,9551,83,80,31,83,920,481.0,637,452,60,122.0,427,1,416,554,193,0,0,499,32033,10408,465,45.701927,4.911174,40.39,198.2,1,1.8267,0,0.0,0.4933,2,0.36,3.0257
181563,1560690487509,4,2.24,2.75,2.92,2.41,2.39,0.2,0.39,1.34,-10,0,-14,0.43,9699,83,80,31,82,933,485.0,634,461,60,122.0,427,1,409,540,193,0,0,534,-6441,15661,468,,,,,,,,,,,,
181583,1560690487529,1,2.24,2.75,2.98,2.47,2.34,0.34,0.28,1.41,-10,0,-14,0.44,9745,83,80,31,82,942,486.0,636,453,60,122.0,427,1,407,528,193,0,0,550,-1562,11560,476,,,,,,,,,,,,
181603,1560690487549,5,2.25,2.74,2.97,2.48,2.3,0.36,0.28,1.42,-11,-1,-13,0.46,9791,83,80,31,81,950,494.0,634,462,60,122.0,414,1,405,528,199,0,0,523,998,-9212,485,,,,,,,,,,,,
181623,1560690487569,3,2.27,2.75,2.91,2.47,2.33,0.41,0.23,1.32,-10,-1,-13,0.47,9842,83,80,31,81,959,498.0,628,458,60,122.0,414,1,403,528,199,0,0,521,2524,6274,494,,,,,,,,,,,,
181643,1560690487589,5,2.28,2.76,2.87,2.44,2.36,0.41,0.1,1.39,-9,-3,-11,0.42,9968,83,80,31,81,964,507.0,649,455,60,122.0,414,1,398,529,199,0,0,523,-21872,12552,498,45.70192,4.911187,44.04,198.2,1,1.8267,0,0.0,0.495,2,0.36,3.0274
181663,1560690487609,4,2.28,2.74,2.9,2.43,2.4,0.38,0.12,1.35,-7,-2,-11,0.4,10102,83,80,31,81,964,511.0,646,461,60,122.0,414,1,402,529,199,0,0,530,-3856,-3082,505,,,,,,,,,,,,
181683,1560690487629,5,2.28,2.69,3.06,2.45,2.39,0.38,0.07,1.29,-6,-2,-12,0.38,10206,83,80,31,80,964,516.0,638,460,60,122.0,414,1,410,521,199,0,0,569,-3482,-28648,516,,,,,,,,,,,,
181703,1560690487649,4,2.28,2.61,3.18,2.51,2.39,0.39,0.01,1.34,-5,-4,-13,0.39,10376,83,80,31,81,965,520.0,645,460,60,122.0,390,1,421,529,202,0,0,599,16383,1779,520,,,,,,,,,,,,
181723,1560690487669,5,2.28,2.6,3.2,2.5,2.38,0.41,-0.04,1.28,-5,1,-12,0.41,10515,83,80,31,80,966,525.0,644,457,60,122.0,390,1,430,521,202,0,0,568,10408,6274,527,,,,,,,,,,,,
181743,1560690487689,4,2.28,2.6,3.13,2.48,2.37,0.4,-0.04,1.2,-5,-1,-12,0.4,10708,83,80,31,80,967,531.0,643,460,60,122.0,390,1,435,521,202,0,0,543,6274,-8188,534,45.701916,4.911199,46.64,198.2,1,1.8267,0,0.0,0.4967,2,0.36,3.0291
181763,1560690487709,5,2.3,2.61,3.05,2.46,2.4,0.37,-0.08,1.25,-4,-2,-11,0.38,10720,83,80,31,80,969,537.0,640,462,60,121.0,390,1,435,521,202,0,0,551,-28648,3472,538,,,,,,,,,,,,
181783,1560690487729,2,2.29,2.63,3.0,2.46,2.36,0.42,-0.19,1.26,-3,-1,-11,0.46,10819,84,80,31,80,975,541.0,641,455,60,121.0,390,1,438,521,202,0,0,563,-2336,774,541,,,,,,,,,,,,
181803,1560690487749,2,2.3,2.61,3.05,2.47,2.27,0.47,-0.19,1.23,-1,1,-9,0.51,10875,84,80,31,80,979,549.0,646,456,60,122.0,390,1,439,521,214,0,0,591,1779,1267,549,,,,,,,,,,,,
181823,1560690487769,-0,2.31,2.6,3.08,2.52,2.19,0.4,-0.14,1.25,-1,-1,-6,0.42,10806,84,80,31,80,984,553.0,643,456,60,122.0,390,1,437,521,214,0,0,613,14504,774,556,,,,,,,,,,,,
181843,1560690487789,-0,2.31,2.58,3.08,2.52,2.2,0.31,-0.22,1.18,-1,-2,-5,0.38,10635,84,80,31,81,991,558.0,656,457,60,125.0,390,1,433,529,214,0,0,585,-22263,10432,559,45.701908,4.911214,49.89,198.2,1,1.8267,0,0.0,0.4983,2,0.36,3.0307
181863,1560690487809,-1,2.29,2.58,3.08,2.5,2.26,0.41,-0.26,1.14,-1,0,-7,0.49,9984,84,80,31,83,999,565.0,657,458,60,124.0,390,1,396,546,214,0,0,569,-22359,243,565,,,,,,,,,,,,
181883,1560690487829,-1,2.3,2.56,3.09,2.39,2.4,0.37,-0.06,1.01,-1,-1,-6,0.37,9664,84,80,31,85,1006,566.0,645,462,60,123.0,390,1,411,578,214,0,0,564,-30159,259,570,,,,,,,,,,,,
181903,1560690487849,-0,2.28,2.51,3.19,2.28,2.5,0.53,-0.14,0.93,-1,-6,-6,0.55,9488,84,80,31,86,1010,566.0,644,461,60,124.0,369,1,418,588,209,0,0,563,12552,6273,566,,,,,,,,,,,,
181923,1560690487869,-1,2.28,2.47,3.32,2.24,2.52,0.66,-0.24,1.01,-0,-7,-5,0.7,9263,84,80,31,86,1032,569.0,641,457,60,123.0,369,1,418,588,209,0,0,558,2211,-3190,569,,,,,,,,,,,,
181943,1560690487889,4,2.28,2.46,3.34,2.24,2.56,0.42,-0.21,0.96,1,-1,-5,0.47,8852,84,80,31,87,1096,569.0,634,458,60,123.0,369,1,422,1081,209,0,0,593,-2934,-28648,570,45.701897,4.911229,52.31,198.2,1,1.8267,0,0.0,0.5,2,0.36,3.0324
181963,1560690487909,2,2.27,2.48,3.29,2.26,2.49,0.4,-0.23,1.05,1,-1,-5,0.46,8040,85,80,31,88,1155,574.0,609,455,60,122.0,369,1,445,908,209,0,0,632,-3190,26688,574,,,,,,,,,,,,
181983,1560690487929,4,2.27,2.49,3.18,2.28,2.39,0.49,-0.3,0.98,0,-0,-4,0.57,8113,85,80,31,88,1212,578.0,610,461,60,123.0,369,1,443,825,209,0,0,593,1,4956,579,,,,,,,,,,,,
182003,1560690487949,0,2.29,2.48,3.04,2.28,2.3,0.51,-0.26,1.04,0,2,-2,0.57,8359,85,80,31,87,1274,583.0,617,452,60,122.0,436,1,436,748,253,0,0,591,-3210,243,583,,,,,,,,,,,,
182023,1560690487969,6,2.29,2.49,2.97,2.29,2.24,0.51,-0.23,1.03,0,3,-0,0.56,8449,86,80,31,86,1351,585.0,620,454,60,122.0,436,1,432,646,253,0,0,604,-25872,28675,586,,,,,,,,,,,,
182043,1560690487989,1,2.29,2.48,2.95,2.31,2.23,0.56,-0.34,1.12,0,1,-1,0.66,8381,86,80,31,87,1423,594.0,609,456,60,121.0,436,1,436,586,253,0,0,615,2048,-18357,594,45.701893,4.911244,54.84,198.2,1,1.8267,0,0.0,0.5017,2,0.37,3.034
182063,1560690488005,6,2.3,2.49,2.95,2.38,2.26,0.57,-0.31,1.06,1,-0,-2,0.65,8296,86,80,31,86,1440,597.0,618,457,60,122.0,436,1,435,566,253,0,0,621,6273,-16883,597,,,,,,,,,,,,
182083,1560690488025,3,2.31,2.5,2.97,2.43,2.27,0.51,-0.38,1.09,1,-1,-3,0.63,8314,86,80,31,87,1441,603.0,612,461,60,121.0,436,1,437,578,253,0,0,623,17344,26688,603,,,,,,,,,,,,
182103,1560690488045,1,2.31,2.49,3.02,2.42,2.29,0.51,-0.29,1.04,1,-1,-2,0.59,8445,86,80,31,86,1372,609.0,617,455,60,121.0,309,1,432,581,187,0,0,621,243,3395,609,,,,,,,,,,,,
182123,1560690488065,6,2.31,2.48,3.07,2.39,2.32,0.47,-0.27,0.96,1,0,-0,0.54,8596,86,80,31,86,1301,614.0,620,456,60,122.0,309,1,429,588,187,0,0,634,17740,-4876,613,,,,,,,,,,,,
182143,1560690488085,4,2.32,2.47,3.08,2.39,2.29,0.51,-0.39,1.06,2,-2,-0,0.65,8765,86,80,31,86,1212,618.0,623,460,60,122.0,309,1,424,588,187,0,0,641,16529,-2836,618,45.701881,4.91126,55.36,198.2,1,1.8267,0,0.0,0.5033,2,0.37,3.0357
182163,1560690488103,2,2.31,2.47,3.13,2.39,2.3,0.62,-0.5,1.13,1,-0,0,0.8,8865,86,80,31,85,1122,622.0,621,457,60,123.0,309,1,421,576,187,0,0,660,269,11776,622,,,,,,,,,,,,
182183,1560690488123,3,2.31,2.48,3.13,2.39,2.28,0.67,-0.55,1.22,1,-1,-0,0.87,8882,87,80,31,85,1040,627.0,622,458,60,122.0,309,1,421,576,187,0,0,655,-16883,479,627,,,,,,,,,,,,
182203,1560690488143,3,2.3,2.54,3.12,2.39,2.25,0.67,-0.54,1.28,0,-2,0,0.86,8941,87,80,31,85,960,634.0,624,455,60,122.0,302,1,420,576,190,0,0,655,20993,-2830,631,,,,,,,,,,,,
182223,1560690488163,3,2.3,2.58,3.04,2.41,2.24,0.61,-0.48,1.3,0,-2,0,0.77,8941,87,80,31,84,964,635.0,620,456,60,121.0,302,1,420,566,190,0,0,655,-14655,8958,632,,,,,,,,,,,,
182243,1560690488191,2,2.31,2.57,3.02,2.41,2.24,0.57,-0.41,1.25,1,-2,1,0.7,8971,87,80,31,85,973,639.0,623,451,60,121.0,302,1,419,566,190,0,0,653,16599,3543,637,45.701866,4.911293,60.14,198.2,1,1.8267,0,0.0,0.5067,2,0.37,3.0374
182263,1560690488211,2,2.3,2.58,3.03,2.42,2.26,0.52,-0.31,1.22,1,-4,2,0.61,9005,87,80,31,85,993,643.0,620,452,60,121.0,302,1,418,566,190,0,0,668,-10251,-2830,646,,,,,,,,,,,,
182283,1560690488231,3,2.3,2.58,3.06,2.46,2.26,0.44,-0.2,1.15,2,-4,3,0.48,9066,87,80,31,85,1013,647.0,631,454,60,121.0,302,1,418,576,190,0,0,673,244,-388,646,,,,,,,,,,,,
182303,1560690488251,1,2.29,2.55,3.18,2.47,2.35,0.44,-0.12,1.2,1,-8,3,0.46,9177,87,80,31,85,1027,653.0,630,453,60,122.0,298,1,418,576,194,0,0,694,244,3543,653,,,,,,,,,,,,
182323,1560690488271,4,2.29,2.54,3.19,2.46,2.42,0.56,-0.24,1.19,0,-8,3,0.61,9375,87,80,31,84,1039,658.0,635,450,60,122.0,298,1,418,566,194,0,0,674,24583,-2345,657,,,,,,,,,,,,
182343,1560690488291,0,2.29,2.56,3.16,2.45,2.45,0.56,-0.35,1.19,1,-6,3,0.66,9493,87,80,31,84,1050,663.0,637,461,60,122.0,298,1,418,566,194,0,0,687,31988,1780,663,45.701855,4.91131,63.1,198.2,1,1.8267,0,0.0,0.5083,2,0.37,3.0391
182363,1560690488311,5,2.29,2.58,3.17,2.47,2.48,0.42,-0.12,1.04,2,-6,5,0.44,9571,87,80,31,83,1059,664.0,635,456,60,122.0,298,1,415,566,194,0,0,700,-26380,-3888,665,,,,,,,,,,,,
182383,1560690488331,6,2.28,2.57,3.18,2.46,2.43,0.56,-0.17,1.06,1,-7,4,0.59,9650,87,80,31,83,1060,672.0,633,453,60,122.0,298,1,412,552,194,0,0,727,-2830,687,672,,,,,,,,,,,,
182403,1560690488351,2,2.29,2.57,3.16,2.49,2.34,0.46,-0.06,1.08,1,-9,4,0.46,9775,87,80,31,83,1058,676.0,632,459,60,122.0,300,1,406,551,203,0,0,717,-388,24,676,,,,,,,,,,,,
182423,1560690488371,6,2.29,2.61,3.13,2.5,2.33,0.47,-0.12,1.05,1,-7,4,0.49,9780,87,80,31,82,1048,678.0,637,452,60,122.0,300,1,405,539,203,0,0,702,-10344,-2560,677,,,,,,,,,,,,
182443,1560690488391,2,2.27,2.66,3.07,2.49,2.33,0.37,-0.1,1.05,1,-6,6,0.39,9725,87,80,31,83,1035,681.0,635,460,60,122.0,300,1,410,551,203,0,0,709,-10346,1524,684,45.701855,4.91131,63.1,198.2,1,1.8267,0,0.0,0.5083,2,0.37,3.0407
182463,1560690488407,4,2.3,2.7,3.05,2.49,2.33,0.34,-0.17,1.08,1,-6,7,0.38,9659,87,80,31,83,1024,688.0,628,455,60,122.0,300,1,411,539,203,0,0,719,24,-388,685,,,,,,,,,,,,
182483,1560690488427,2,2.3,2.66,3.09,2.46,2.32,0.32,-0.18,1.1,2,-4,7,0.36,9699,87,80,31,83,1013,693.0,633,455,60,122.0,300,1,409,540,203,0,0,730,1780,-31068,693,,,,,,,,,,,,
182503,1560690488447,5,2.29,2.58,3.17,2.43,2.35,0.41,-0.09,1.1,2,-4,5,0.42,9816,87,80,31,83,1000,700.0,633,454,60,122.0,291,1,404,538,203,0,0,731,-2830,-13580,703,,,,,,,,,,,,
182523,1560690488467,5,2.3,2.55,3.21,2.43,2.36,0.34,0.01,1.1,2,-3,4,0.34,9946,87,80,31,82,985,707.0,639,461,60,122.0,291,1,399,538,203,0,0,735,11069,1524,707,,,,,,,,,,,,
182543,1560690488487,3,2.3,2.54,3.22,2.43,2.41,0.42,-0.08,1.08,2,-2,0,0.42,10053,87,80,31,82,974,712.0,641,457,60,122.0,291,1,399,537,203,0,0,740,-12152,-4096,712,45.701847,4.911328,65.01,198.2,1,1.8267,0,0.0,0.51,2,0.37,3.0424
182563,1560690488510,1,2.3,2.54,3.15,2.41,2.37,0.39,-0.03,1.12,2,-2,-0,0.39,10184,87,80,31,82,969,717.0,638,456,60,122.0,291,1,408,537,203,0,0,740,204,-2826,717,,,,,,,,,,,,
182583,1560690488530,6,2.29,2.54,3.04,2.41,2.28,0.31,0.07,1.12,3,-1,0,0.31,10151,87,80,31,82,968,722.0,640,457,60,121.0,291,1,406,537,203,0,0,732,-3450,-13068,721,,,,,,,,,,,,
182603,1560690488550,2,2.3,2.55,2.98,2.42,2.21,0.41,0.03,1.19,3,1,2,0.42,10096,87,80,31,82,971,725.0,646,459,60,121.0,286,1,403,537,207,0,0,742,-31068,-2314,725,,,,,,,,,,,,
182623,1560690488570,1,2.29,2.57,3.0,2.45,2.2,0.4,-0.13,1.23,3,-2,1,0.42,10069,87,80,31,82,975,726.0,637,456,60,122.0,286,1,400,537,207,0,0,753,-388,-2830,727,,,,,,,,,,,,
182643,1560690488590,6,2.28,2.6,3.02,2.46,2.21,0.37,-0.24,1.17,3,-1,-1,0.45,10096,87,80,31,82,982,725.0,640,453,60,122.0,286,1,402,537,207,0,0,752,-25858,-4096,730,45.701836,4.911346,67.56,198.2,1,1.8267,0,0.0,0.5117,2,0.38,3.044
182663,1560690488610,4,2.29,2.62,3.07,2.47,2.27,0.42,-0.2,1.2,3,-4,-1,0.46,10184,87,80,31,82,990,732.0,639,457,60,122.0,286,1,411,537,207,0,0,752,1524,-23308,732,,,,,,,,,,,,
182683,1560690488630,5,2.28,2.68,3.14,2.46,2.38,0.34,-0.13,1.03,2,-6,1,0.36,10336,87,80,31,82,1000,732.0,644,459,60,122.0,286,1,418,537,207,0,0,759,-2314,-10218,731,,,,,,,,,,,,
182703,1560690488650,6,2.28,2.69,3.27,2.43,2.47,0.36,-0.08,0.98,2,-7,0,0.37,10422,87,80,31,82,1007,740.0,643,459,60,122.0,288,1,429,537,212,0,0,770,-2356,-3450,734,,,,,,,,,,,,
182723,1560690488670,3,2.28,2.66,3.37,2.41,2.51,0.29,-0.1,0.98,3,-2,-1,0.31,10593,87,80,31,82,1009,743.0,652,456,60,121.0,288,1,432,537,212,0,0,795,-22796,7413,741,,,,,,,,,,,,
182743,1560690488690,2,2.28,2.61,3.4,2.4,2.52,0.39,-0.05,1.0,2,-2,-1,0.4,10813,87,80,31,82,1010,749.0,655,461,60,122.0,288,1,438,537,212,0,0,799,-4096,-2426,749,45.701824,4.911365,69.12,198.2,1,1.8267,0,0.0,0.5133,2,0.38,3.0457
182763,1560690488710,3,2.28,2.56,3.34,2.34,2.59,0.32,0.04,1.02,2,-1,-0,0.32,10913,87,80,30,82,1009,755.0,653,460,60,121.0,288,1,440,537,212,0,0,795,-22795,-25858,757,,,,,,,,,,,,
182783,1560690488730,6,2.28,2.55,3.18,2.32,2.51,0.28,0.03,1.07,3,1,-2,0.28,11048,87,80,30,81,1007,763.0,659,457,60,122.0,288,1,443,529,212,0,0,782,-2766,16118,760,,,,,,,,,,,,
182803,1560690488750,6,2.28,2.56,3.01,2.34,2.37,0.35,-0.05,1.09,2,3,-3,0.35,10984,87,80,30,81,1004,765.0,650,458,60,121.0,289,1,442,529,221,0,0,795,13016,-10218,765,,,,,,,,,,,,
182823,1560690488770,2,2.27,2.54,2.89,2.33,2.18,0.33,-0.07,1.15,2,5,-3,0.33,10738,87,80,30,81,1001,769.0,649,453,60,121.0,289,1,436,529,221,0,0,797,-2826,-2826,769,,,,,,,,,,,,
182843,1560690488792,1,2.28,2.53,2.72,2.35,2.02,0.4,0.01,1.17,2,6,-2,0.4,10605,87,80,30,82,997,776.0,647,455,60,122.0,289,1,432,537,221,0,0,791,-3368,-13072,775,45.701801,4.911404,72.65,198.2,1,1.8267,0,0.0,0.5167,2,0.38,3.0474
182863,1560690488812,3,2.27,2.54,2.74,2.36,2.04,0.43,-0.06,1.17,1,3,-1,0.43,10504,87,80,30,82,994,777.0,641,453,60,122.0,289,1,430,537,221,0,0,801,-31068,-2570,777,,,,,,,,,,,,
182883,1560690488832,3,2.28,2.56,2.81,2.37,2.2,0.4,-0.14,1.06,1,0,-3,0.42,10695,87,80,30,82,992,776.0,643,457,60,122.0,289,1,435,537,221,0,0,791,-2830,-1566,776,,,,,,,,,,,,
182903,1560690488852,5,2.29,2.58,2.91,2.37,2.33,0.52,-0.13,0.99,0,1,-4,0.53,10856,87,80,30,82,990,781.0,651,457,60,122.0,282,1,439,537,220,0,0,795,-2426,-30694,781,,,,,,,,,,,,
182923,1560690488872,4,2.29,2.62,3.14,2.38,2.44,0.46,-0.22,0.99,1,-1,-3,0.51,11061,87,80,30,82,984,779.0,657,456,60,121.0,282,1,443,529,220,0,0,815,-2826,-4091,778,,,,,,,,,,,,
182943,1560690488892,6,2.28,2.66,3.35,2.4,2.61,0.41,-0.05,0.92,2,-7,-4,0.41,11187,87,80,30,81,977,784.0,652,454,60,121.0,282,1,443,529,220,0,0,834,-10218,-31066,782,45.701801,4.911404,72.65,198.2,1,1.8267,0,0.0,0.5167,2,0.38,3.0491
182963,1560690488910,1,2.28,2.66,3.48,2.47,2.69,0.45,-0.17,0.85,1,-7,-3,0.48,11336,87,80,30,81,971,787.0,664,460,60,121.0,282,1,441,529,220,0,0,845,-31066,-31066,787,,,,,,,,,,,,
182983,1560690488930,7,2.28,2.66,3.48,2.51,2.75,0.49,-0.14,0.83,0,-6,-1,0.51,11566,82,80,30,80,965,788.0,660,462,60,121.0,282,1,440,522,220,0,0,853,6389,-22796,788,,,,,,,,,,,,
183003,1560690488950,5,2.26,2.68,3.44,2.51,2.8,0.39,-0.02,0.78,0,-5,-1,0.39,11689,72,80,30,76,952,792.0,663,461,60,121.0,282,1,440,490,223,0,0,860,11277,-30778,790,,,,,,,,,,,,
183023,1560690488970,4,2.27,2.67,3.36,2.5,2.77,0.24,0.13,0.73,2,-4,-2,0.27,11807,61,80,30,70,938,799.0,669,461,60,121.0,282,1,440,466,223,0,0,847,-30694,-2820,797,,,,,,,,,,,,
183043,1560690488990,1,2.27,2.67,3.36,2.5,2.66,0.24,0.08,0.76,2,-3,-1,0.25,11566,49,80,30,64,930,800.0,666,461,60,122.0,282,1,440,425,223,0,0,878,204,-3580,799,45.70179,4.911425,75.91,198.2,1,1.8267,0,0.0,0.5183,2,0.38,3.0507
183063,1560690489004,2,2.27,2.66,3.34,2.49,2.54,0.3,0.08,0.71,1,-5,-1,0.31,11180,38,80,30,59,922,805.0,650,463,60,122.0,282,1,433,381,223,0,0,857,-2560,-31066,800,,,,,,,,,,,,
183083,1560690489024,3,2.27,2.63,3.23,2.42,2.47,0.41,0.07,0.75,-0,-5,-0,0.42,10677,27,80,30,53,899,806.0,650,461,60,122.0,282,1,397,318,223,0,0,814,-31068,-22796,805,,,,,,,,,,,,
183103,1560690489044,5,2.27,2.56,3.19,2.24,2.48,0.42,0.15,0.67,-1,-7,-0,0.45,10457,24,80,30,48,876,813.0,655,459,60,122.0,138,1,382,259,112,0,0,810,-25858,-23490,807,,,,,,,,,,,,
183123,1560690489064,2,2.27,2.54,3.18,2.21,2.58,0.45,0.21,0.56,-1,-5,-1,0.49,10223,23,80,30,44,861,810.0,650,460,60,122.0,138,1,357,236,112,0,0,813,-31068,-2560,806,,,,,,,,,,,,
183143,1560690489084,1,2.27,2.51,3.19,2.19,2.66,0.52,0.17,0.56,-1,-10,-1,0.55,10059,22,81,30,42,847,806.0,650,462,60,122.0,138,1,342,229,112,0,0,807,-2560,-2830,804,45.701778,4.911446,77.41,198.2,1,1.8267,0,0.0,0.52,2,0.39,3.0524
183163,1560690489110,3,2.28,2.44,3.17,2.16,2.68,0.54,0.24,0.46,-0,-10,-1,0.59,9894,21,80,30,40,836,810.0,648,457,60,121.0,138,1,327,220,112,0,0,792,-3450,-13312,810,,,,,,,,,,,,
183183,1560690489130,1,2.28,2.29,3.2,2.07,2.68,0.65,0.16,0.35,-0,-8,-1,0.67,9884,20,80,30,39,826,810.0,648,460,60,122.0,138,1,320,217,112,0,0,787,-2560,-7436,810,,,,,,,,,,,,
183203,1560690489150,4,2.28,2.22,3.36,2.02,2.68,0.74,0.08,0.43,0,-11,-0,0.75,9978,19,80,30,37,826,806.0,646,462,60,122.0,100,1,314,214,81,0,0,769,16118,-31066,804,,,,,,,,,,,,
183223,1560690489170,4,2.27,2.23,3.44,2.02,2.66,0.77,-0.03,0.52,1,-8,-1,0.77,10032,17,80,30,35,829,804.0,646,458,60,122.0,100,1,308,212,81,0,0,771,-13312,-10218,802,,,,,,,,,,,,
183243,1560690489190,2,2.27,2.2,3.39,2.01,2.64,0.87,-0.03,0.37,-0,-5,-1,0.87,10010,15,81,30,33,847,802.0,648,458,60,123.0,100,1,302,209,81,0,0,782,-3888,5876,801,45.701763,4.911467,78.14,198.1,1,1.8267,0,0.0,0.5217,2,0.39,3.054
183263,1560690489210,4,2.28,2.19,3.3,1.99,2.59,0.99,0.03,0.49,-1,-8,-2,0.99,10091,15,81,30,32,868,796.0,648,458,60,122.0,100,1,300,209,81,0,0,790,6905,-10218,797,,,,,,,,,,,,
183283,1560690489230,3,2.28,2.17,3.24,1.94,2.56,0.88,-0.0,0.48,0,-5,-2,0.88,10102,14,81,30,31,888,797.0,646,457,60,121.0,100,1,295,207,81,0,0,784,-2826,-2574,797,,,,,,,,,,,,
183303,1560690489250,2,2.28,2.18,3.27,1.96,2.56,0.98,-0.08,0.38,0,-3,-2,0.98,10129,13,81,30,30,906,791.0,652,460,60,122.0,99,1,291,205,79,0,0,773,11277,-31066,789,,,,,,,,,,,,
183323,1560690489270,4,2.28,2.17,3.28,1.95,2.55,0.96,-0.05,0.35,0,-7,-2,0.96,10195,12,81,30,29,916,788.0,654,461,60,122.0,99,1,287,204,79,0,0,764,-10216,-31068,789,,,,,,,,,,,,
183343,1560690489290,2,2.28,2.17,3.3,1.94,2.58,0.92,0.03,0.39,0,-3,-2,0.92,10206,12,81,30,28,922,784.0,655,457,60,122.0,99,1,282,202,79,0,0,771,-10218,-2344,784,45.701752,4.911489,78.17,198.1,1,1.8267,0,0.0,0.5233,2,0.39,3.0557
183363,1560690489310,6,2.28,2.17,3.3,1.94,2.58,0.99,0.04,0.39,1,-2,-0,0.99,10273,12,80,30,27,918,784.0,658,457,60,122.0,99,1,278,202,79,0,0,761,-10218,6900,778,,,,,,,,,,,,
183383,1560690489330,7,2.27,2.16,3.36,1.93,2.63,0.93,-0.01,0.43,1,-2,1,0.93,10257,12,81,30,27,906,779.0,650,457,60,122.0,99,1,278,203,79,0,0,756,-22795,-10216,778,,,,,,,,,,,,
183403,1560690489350,7,2.27,2.13,3.36,1.93,2.64,0.98,-0.1,0.5,1,-2,0,0.99,10262,11,80,30,26,891,780.0,651,466,60,122.0,101,1,274,200,79,0,0,758,-23308,-22795,780,,,,,,,,,,,,
183423,1560690489370,5,2.27,2.13,3.36,1.93,2.67,1.01,-0.08,0.35,1,-2,-1,1.01,10285,11,80,30,26,874,774.0,656,458,60,122.0,101,1,274,201,79,0,0,758,-10212,-2830,774,,,,,,,,,,,,
183443,1560690489390,6,2.27,2.13,3.34,1.94,2.68,1.03,-0.06,0.2,1,1,-0,1.03,10206,11,81,30,26,864,768.0,655,457,60,122.0,101,1,274,198,79,0,0,749,6900,-22795,766,45.70174,4.91151,76.63,198.1,1,1.8267,0,0.0,0.525,2,0.39,3.0574
183463,1560690489410,8,2.28,2.13,3.33,1.94,2.64,1.07,-0.02,0.25,1,-0,-1,1.07,10201,10,80,30,25,860,765.0,655,460,60,122.0,101,1,270,196,79,0,0,748,-10216,-31068,765,,,,,,,,,,,,
183483,1560690489430,15,2.27,2.14,3.32,1.93,2.63,1.06,-0.07,0.35,1,1,-0,1.06,10124,10,81,30,25,854,761.0,656,459,60,122.0,101,1,270,194,79,0,0,743,-2574,-31066,756,,,,,,,,,,,,
183503,1560690489450,16,2.27,2.11,3.33,1.92,2.64,1.11,-0.14,0.34,1,1,-0,1.12,10080,10,81,30,25,846,754.0,657,460,60,123.0,98,1,270,191,74,0,0,739,136,3462,752,,,,,,,,,,,,
183523,1560690489470,16,2.28,2.1,3.34,1.92,2.66,1.09,-0.19,0.28,1,-3,-1,1.1,10037,10,81,30,24,840,745.0,653,459,60,123.0,98,1,270,186,74,0,0,725,-22796,-13068,746,,,,,,,,,,,,
183543,1560690489491,20,2.27,2.09,3.39,1.91,2.68,1.01,-0.16,0.34,1,-1,-1,1.02,9899,10,81,30,24,835,742.0,655,458,60,122.0,98,1,270,184,74,0,0,720,-13068,3462,742,45.701717,4.911552,73.85,198.1,1,1.8267,0,0.0,0.5283,2,0.39,3.0591
183563,1560690489511,16,2.28,2.06,3.41,1.89,2.72,1.06,-0.13,0.25,1,2,-1,1.07,9770,9,81,30,24,831,742.0,653,460,60,122.0,98,1,270,183,74,0,0,712,1037,16118,736,,,,,,,,,,,,
183583,1560690489531,22,2.28,2.05,3.43,1.88,2.74,1.15,-0.18,0.24,1,-3,-0,1.17,9650,9,81,30,24,824,735.0,648,462,60,122.0,98,1,270,182,74,0,0,711,-2826,-12152,731,,,,,,,,,,,,
183603,1560690489551,20,2.28,2.05,3.46,1.86,2.75,1.05,-0.15,0.16,1,-0,-1,1.06,9527,9,81,30,23,819,724.0,643,454,60,123.0,88,1,270,176,65,0,0,704,-2830,-30694,722,,,,,,,,,,,,
183623,1560690489571,23,2.27,2.05,3.5,1.86,2.72,1.05,-0.03,0.05,2,1,0,1.05,9375,9,81,30,23,817,718.0,643,460,60,122.0,88,1,270,176,65,0,0,686,-23490,-2830,715,,,,,,,,,,,,
183643,1560690489591,22,2.29,2.04,3.5,1.86,2.7,1.14,-0.07,0.13,1,-4,0,1.14,9282,9,81,30,22,815,712.0,639,458,60,121.0,88,1,270,170,65,0,0,678,-3888,-2830,712,45.701702,4.911571,71.71,198.1,1,1.8267,0,0.0,0.53,2,0.4,3.0607
183663,1560690489611,25,2.27,2.07,3.5,1.87,2.73,1.23,-0.2,0.14,1,-2,0,1.24,9186,9,81,30,22,816,697.0,644,462,60,122.0,88,1,270,170,65,0,0,674,12333,-26892,696,,,,,,,,,,,,
183683,1560690489631,26,2.26,2.08,3.51,1.87,2.8,1.28,-0.32,0.16,0,-4,-2,1.32,9079,9,81,30,21,817,681.0,638,463,60,123.0,88,1,270,164,65,0,0,667,-26892,-27404,677,,,,,,,,,,,,
183703,1560690489651,25,2.25,2.06,3.53,1.84,2.85,1.33,-0.39,0.15,0,-5,-3,1.39,8937,9,81,30,21,819,676.0,640,463,60,123.0,82,1,270,164,56,0,0,660,-2826,2024,675,,,,,,,,,,,,
183723,1560690489671,26,2.25,2.04,3.53,1.82,2.88,1.39,-0.52,0.24,-0,-8,-4,1.48,8765,9,81,30,21,824,683.0,642,460,60,123.0,82,1,270,164,56,0,0,651,3543,-8429,679,,,,,,,,,,,,
183743,1560690489691,23,2.25,2.05,3.58,1.81,2.97,1.33,-0.48,0.19,-1,-7,-3,1.41,8585,9,81,30,21,834,676.0,632,461,60,122.0,82,1,270,164,56,0,0,624,-2826,16529,670,45.701702,4.911571,71.71,198.1,1,1.8267,0,0.0,0.53,2,0.4,3.0624
183763,1560690489709,24,2.27,2.05,3.65,1.81,3.02,1.26,-0.33,0.08,-1,-6,-3,1.3,8430,8,81,30,21,845,668.0,631,465,60,123.0,82,1,270,161,56,0,0,596,-3578,243,661,,,,,,,,,,,,
183783,1560690489729,23,2.27,2.02,3.65,1.81,3.0,1.33,-0.39,0.08,-1,-5,-3,1.39,8194,8,81,30,22,852,664.0,626,461,60,122.0,82,1,270,158,56,0,0,574,-10348,1267,661,,,,,,,,,,,,
183803,1560690489749,23,2.27,2.03,3.6,1.81,2.97,1.39,-0.31,0.11,-2,-5,-4,1.43,7968,8,81,30,22,863,663.0,625,458,60,124.0,71,1,269,151,47,0,0,576,-26380,30208,656,,,,,,,,,,,,
183823,1560690489769,23,2.27,2.03,3.52,1.82,2.93,1.45,-0.22,0.03,-3,-5,-4,1.47,7796,8,81,30,23,882,653.0,621,461,60,124.0,71,1,267,154,47,0,0,586,-30207,8488,646,,,,,,,,,,,,
183843,1560690489789,24,2.29,2.02,3.49,1.81,2.94,1.43,-0.18,-0.08,-3,-5,-3,1.44,7563,8,81,30,23,902,645.0,622,458,60,124.0,71,1,265,154,47,0,0,597,16599,1760,643,45.701694,4.911591,69.0,198.1,1,1.8267,0,0.0,0.5317,2,0.4,3.064
183863,1560690489809,22,2.29,2.0,3.44,1.77,2.91,1.47,-0.08,-0.13,-3,-2,-1,1.47,7393,8,81,30,23,914,641.0,616,461,60,122.0,71,1,263,154,47,0,0,625,24,1,636,,,,,,,,,,,,
183883,1560690489829,22,2.3,1.97,3.43,1.71,2.85,1.47,-0.05,-0.15,-3,-3,-0,1.47,7253,8,81,30,23,927,634.0,613,458,60,123.0,71,1,262,154,47,0,0,596,771,15649,632,,,,,,,,,,,,
183903,1560690489849,21,2.3,1.93,3.51,1.68,2.86,1.46,-0.02,-0.14,-3,-2,-1,1.46,7352,8,81,30,23,944,630.0,615,462,60,123.0,66,1,263,151,42,0,0,558,20993,-8186,625,,,,,,,,,,,,
183923,1560690489869,23,2.29,1.92,3.57,1.66,2.82,1.52,-0.07,-0.11,-3,-3,0,1.52,7370,8,81,30,23,961,621.0,614,457,60,122.0,66,1,263,220,42,0,0,501,-18357,-32248,620,,,,,,,,,,,,
183943,1560690489891,22,2.29,1.9,3.57,1.65,2.8,1.57,-0.21,-0.11,-3,-3,2,1.58,7411,8,81,30,23,966,614.0,616,462,60,122.0,66,1,264,205,42,0,0,482,-30139,-22263,614,45.701675,4.911627,62.55,198.0,1,1.8267,0,0.0,0.535,2,0.4,3.0657
183963,1560690489911,25,2.29,1.92,3.54,1.66,2.78,1.46,-0.26,-0.09,-2,2,3,1.48,7225,8,81,31,23,970,608.0,615,458,60,120.0,66,1,262,191,42,0,0,486,5344,243,599,,,,,,,,,,,,
183983,1560690489931,24,2.28,1.93,3.53,1.66,2.75,1.41,-0.15,-0.12,-1,2,3,1.42,7056,8,81,31,23,967,595.0,590,463,60,120.0,66,1,260,175,42,0,0,507,-16179,6273,586,,,,,,,,,,,,
184003,1560690489951,20,2.28,1.93,3.55,1.66,2.75,1.28,-0.01,-0.24,0,5,3,1.28,6900,8,81,31,23,965,591.0,578,457,60,122.0,75,1,260,159,44,0,0,532,2048,-16384,583,,,,,,,,,,,,
184023,1560690489971,25,2.27,1.92,3.57,1.66,2.79,1.35,-0.07,-0.05,-1,1,2,1.36,6749,8,81,31,23,957,581.0,575,459,60,120.0,75,1,261,153,44,0,0,511,10432,2109,579,,,,,,,,,,,,
184043,1560690489991,20,2.28,1.9,3.57,1.64,2.83,1.07,-0.05,-0.24,-1,8,3,1.08,6823,8,81,31,24,950,578.0,575,455,60,123.0,75,1,261,153,44,0,0,424,30208,3571,574,45.701675,4.911627,62.55,198.0,1,1.8267,0,0.0,0.535,2,0.4,3.0674
184063,1560690490003,25,2.28,1.89,3.58,1.65,2.88,1.17,-0.11,-0.07,-2,3,0,1.17,6934,8,81,31,23,918,572.0,585,466,60,122.0,75,1,260,156,44,0,0,407,-8188,-3322,567,,,,,,,,,,,,
184083,1560690490023,21,2.29,1.89,3.56,1.67,2.89,0.93,-0.11,-0.11,-1,2,-2,0.94,7004,8,81,31,24,882,564.0,593,461,60,122.0,75,1,260,156,44,0,0,348,-23623,3327,562,,,,,,,,,,,,
184103,1560690490043,18,2.31,1.88,3.53,1.67,2.91,1.04,0.01,-0.12,-2,4,-4,1.04,6913,8,81,31,24,851,560.0,598,464,60,123.0,73,1,260,153,41,0,0,332,-28648,-29696,557,,,,,,,,,,,,
184123,1560690490063,20,2.31,1.88,3.52,1.68,2.9,1.05,-0.06,-0.19,-1,2,-4,1.05,6778,8,81,31,24,823,554.0,591,466,60,122.0,73,1,262,156,41,0,0,338,-32248,120,554,,,,,,,,,,,,
184143,1560690490083,22,2.31,1.87,3.49,1.7,2.86,1.08,-0.05,-0.22,-1,2,-2,1.08,6627,8,81,31,24,798,551.0,587,457,60,124.0,73,1,263,155,41,0,0,356,-22519,-28416,551,45.701664,4.911644,58.82,198.0,1,1.8267,0,0.0,0.5367,2,0.41,3.0691
184163,1560690490109,18,2.3,1.88,3.47,1.73,2.84,1.12,-0.03,-0.3,-1,3,-0,1.12,6421,8,81,31,25,774,541.0,573,461,60,122.0,73,1,266,159,41,0,0,373,14504,8841,541,,,,,,,,,,,,
184183,1560690490129,16,2.3,1.87,3.45,1.7,2.82,1.17,-0.04,-0.24,-1,3,3,1.17,6289,8,81,31,25,767,537.0,560,457,60,122.0,73,1,268,159,41,0,0,392,-32248,-6475,535,,,,,,,,,,,,
184203,1560690490149,20,2.3,1.87,3.46,1.68,2.84,1.26,-0.13,-0.02,-1,-3,5,1.26,6171,8,81,31,25,772,530.0,550,456,60,122.0,69,1,269,159,37,0,0,426,-32248,-4059,530,,,,,,,,,,,,
184223,1560690490169,20,2.3,1.85,3.46,1.66,2.82,1.33,-0.09,0.1,-1,-7,5,1.34,6157,8,81,31,26,791,525.0,547,462,60,124.0,69,1,272,160,37,0,0,366,1341,0,527,,,,,,,,,,,,
184243,1560690490191,23,2.31,1.84,3.46,1.67,2.8,1.26,0.03,0.1,0,-6,6,1.26,6298,8,81,31,26,815,521.0,548,456,60,124.0,69,1,271,160,37,0,0,337,26178,0,517,45.701645,4.911675,52.59,197.9,1,1.8267,0,0.0,0.54,2,0.41,3.0707
184263,1560690490211,16,2.31,1.84,3.49,1.66,2.81,1.09,0.09,0.02,2,-3,6,1.1,6323,8,81,31,26,836,509.0,552,462,60,123.0,69,1,270,160,37,0,0,309,-32248,-14707,509,,,,,,,,,,,,
184283,1560690490231,15,2.3,1.84,3.52,1.66,2.81,1.07,-0.03,-0.08,3,2,6,1.07,6325,8,81,31,27,853,507.0,549,464,60,122.0,69,1,273,161,37,0,0,292,-22519,155,505,,,,,,,,,,,,
184303,1560690490251,17,2.29,1.85,3.5,1.69,2.79,1.17,-0.07,-0.07,2,1,5,1.17,6220,8,81,31,27,871,499.0,548,458,60,123.0,75,1,274,161,38,0,0,304,998,2060,497,,,,,,,,,,,,
184323,1560690490271,16,2.29,1.85,3.49,1.7,2.76,1.25,-0.13,0.0,2,-2,5,1.26,6109,8,81,31,27,890,493.0,542,460,60,121.0,75,1,275,161,38,0,0,332,3580,-992,493,,,,,,,,,,,,
184343,1560690490291,19,2.28,1.84,3.5,1.68,2.78,1.33,-0.12,0.08,2,-5,3,1.34,6101,8,81,31,27,900,482.0,536,454,60,124.0,75,1,275,163,38,0,0,339,-23367,17144,482,45.701637,4.91169,49.12,197.9,1,1.8267,0,0.0,0.5417,2,0.41,3.0724
184363,1560690490311,18,2.27,1.84,3.55,1.67,2.81,1.4,-0.04,0.14,2,-8,3,1.4,6208,8,81,31,28,900,482.0,536,456,60,124.0,75,1,277,163,38,0,0,316,32033,-6528,478,,,,,,,,,,,,
184383,1560690490331,15,2.26,1.84,3.52,1.68,2.83,1.31,0.04,0.11,3,-9,4,1.31,6208,8,81,31,28,903,477.0,542,460,60,124.0,75,1,277,163,38,0,0,318,243,95,477,,,,,,,,,,,,
184403,1560690490351,17,2.25,1.87,3.5,1.69,2.8,1.22,0.13,0.02,4,-6,4,1.23,6093,8,81,31,28,908,468.0,534,456,60,124.0,80,1,278,163,38,0,0,343,6193,-6528,468,,,,,,,,,,,,
184423,1560690490371,16,2.25,1.87,3.49,1.69,2.77,1.08,0.18,-0.07,5,-4,4,1.1,6003,8,81,31,29,914,461.0,529,457,60,124.0,80,1,281,164,38,0,0,357,2524,-6656,458,,,,,,,,,,,,
184443,1560690490392,14,2.24,1.86,3.49,1.68,2.77,0.97,0.23,-0.12,6,0,4,1.0,6030,8,81,31,29,919,453.0,526,456,60,124.0,80,1,281,164,38,0,0,336,-3267,-6644,453,45.70163,4.911703,46.21,197.9,1,1.8267,0,0.0,0.5433,2,0.41,3.074
184463,1560690490412,6,2.24,1.85,3.49,1.66,2.76,0.89,0.28,-0.16,7,3,5,0.93,6177,8,81,31,29,922,450.0,531,462,60,123.0,80,1,281,164,38,0,0,328,8488,2060,449,,,,,,,,,,,,
184483,1560690490432,2,2.25,1.86,3.49,1.66,2.76,0.84,0.19,-0.18,7,5,4,0.86,6268,8,81,31,29,923,446.0,539,465,60,122.0,80,1,280,164,38,0,0,342,2131,3346,446,,,,,,,,,,,,
184503,1560690490452,5,2.23,1.86,3.49,1.68,2.73,0.92,0.04,-0.07,6,4,3,0.92,6308,8,81,31,29,922,442.0,541,465,60,122.0,87,1,280,164,39,0,0,351,20625,-23296,441,,,,,,,,,,,,
184523,1560690490472,5,2.23,1.86,3.49,1.68,2.71,1.03,-0.02,0.06,4,2,1,1.03,6397,8,81,31,29,918,437.0,550,461,60,122.0,87,1,280,164,39,0,0,339,-7939,0,434,,,,,,,,,,,,
184543,1560690490492,2,2.22,1.87,3.48,1.69,2.71,1.04,0.14,-0.01,3,3,0,1.05,6533,8,81,31,29,915,433.0,559,460,60,123.0,87,1,279,164,39,0,0,354,243,770,428,45.70163,4.911703,46.21,197.9,1,1.8267,0,0.0,0.5433,2,0.41,3.0757
184563,1560690490510,3,2.22,1.86,3.43,1.69,2.7,1.05,0.06,0.02,3,3,-1,1.05,6651,8,81,31,28,898,430.0,566,459,60,123.0,87,1,275,163,39,0,0,398,31796,0,424,,,,,,,,,,,,
184583,1560690490530,-1,2.22,1.88,3.41,1.67,2.7,0.96,0.18,-0.08,2,7,-1,0.97,6742,8,81,31,28,878,426.0,576,461,60,124.0,87,1,274,163,39,0,0,401,13552,-1562,418,,,,,,,,,,,,
184603,1560690490550,3,2.22,1.92,3.41,1.68,2.73,1.06,0.03,0.01,1,1,-1,1.06,6860,8,81,31,28,868,422.0,582,466,60,122.0,101,1,274,163,42,0,0,402,-3414,-1818,412,,,,,,,,,,,,
184623,1560690490570,1,2.22,1.94,3.4,1.7,2.75,0.97,0.11,-0.05,1,4,-0,0.97,6975,8,81,31,27,856,419.0,591,461,60,123.0,101,1,269,161,42,0,0,404,7154,-6524,410,,,,,,,,,,,,
184643,1560690490590,-2,2.21,1.95,3.37,1.72,2.75,1.07,0.17,0.11,-1,2,-1,1.09,7140,8,81,31,26,850,414.0,597,461,60,123.0,101,1,265,160,42,0,0,396,-9166,-32702,406,45.701622,4.911715,43.34,197.9,1,1.8267,0,0.0,0.545,2,0.41,3.0774
184663,1560690490610,7,2.21,1.97,3.33,1.74,2.74,1.13,0.12,0.22,-2,0,-2,1.14,7242,8,81,31,26,843,408.0,604,457,60,123.0,101,1,266,160,42,0,0,395,10392,-1818,403,,,,,,,,,,,,
184683,1560690490630,4,2.21,2.0,3.33,1.74,2.74,1.14,0.03,0.22,-2,-1,-4,1.14,7355,8,81,31,25,851,406.0,611,463,60,123.0,101,1,263,159,42,0,0,391,2524,-31744,398,,,,,,,,,,,,
184703,1560690490650,6,2.21,2.0,3.32,1.74,2.74,1.05,0.05,0.2,-2,-2,-6,1.05,7428,8,81,31,25,856,404.0,612,459,60,122.0,110,1,264,159,44,0,0,391,1504,-6475,395,,,,,,,,,,,,
184723,1560690490670,4,2.2,2.02,3.32,1.74,2.74,1.04,0.07,0.16,-2,1,-6,1.04,7440,9,81,31,24,865,401.0,616,464,60,122.0,110,1,264,156,44,0,0,394,11545,-31744,393,,,,,,,,,,,,
184743,1560690490690,4,2.2,2.07,3.32,1.74,2.74,0.93,0.08,0.17,-2,2,-7,0.93,7376,11,81,31,24,872,400.0,610,459,60,122.0,110,1,263,156,44,0,0,389,6512,-6524,391,45.701618,4.911727,40.8,197.9,1,1.8267,0,0.0,0.5467,2,0.41,3.0791
184763,1560690490710,3,2.21,2.07,3.32,1.74,2.72,0.81,0.13,0.19,-2,1,-7,0.82,7344,12,81,31,25,873,398.0,612,461,60,123.0,110,1,263,159,44,0,0,392,6384,-3866,389,,,,,,,,,,,,
184783,1560690490730,1,2.22,2.07,3.32,1.74,2.71,0.81,0.23,0.14,-2,1,-7,0.84,7298,13,81,31,25,873,398.0,613,461,60,123.0,110,1,262,159,44,0,0,394,6384,-3866,389,,,,,,,,,,,,
184803,1560690490750,-1,2.23,2.09,3.32,1.78,2.71,0.92,0.16,0.19,-3,2,-6,0.94,7208,14,81,31,26,875,398.0,611,460,60,123.0,110,1,266,160,43,0,0,392,-3968,240,388,,,,,,,,,,,,
184823,1560690490770,0,2.23,2.16,3.32,1.82,2.72,0.99,0.06,0.33,-4,1,-6,0.99,7186,15,81,31,27,876,395.0,608,460,60,123.0,110,1,269,161,43,0,0,388,17144,-19126,386,,,,,,,,,,,,
184843,1560690490790,4,2.25,2.15,3.32,1.83,2.72,0.9,-0.04,0.32,-3,2,-7,0.9,7121,16,81,31,28,878,394.0,607,459,60,122.0,110,1,273,163,43,0,0,386,505,-18948,385,45.701611,4.911738,39.32,197.9,1,1.8267,0,0.0,0.5483,2,0.42,3.0807
184863,1560690490810,3,2.26,2.14,3.31,1.82,2.71,0.91,0.05,0.3,-3,0,-6,0.91,7159,17,81,31,29,880,392.0,605,464,60,122.0,110,1,277,164,43,0,0,387,-1562,-18948,385,,,,,,,,,,,,
184883,1560690490830,2,2.28,2.13,3.31,1.84,2.7,0.88,0.15,0.16,-3,2,-5,0.89,7175,17,81,31,30,885,389.0,606,460,60,123.0,110,1,281,166,43,0,0,382,-6524,19125,385,,,,,,,,,,,,
184903,1560690490850,-1,2.3,2.13,3.31,1.86,2.7,0.99,0.1,0.24,-3,0,-4,1.0,7159,18,81,31,32,889,385.0,608,458,60,124.0,117,1,290,167,45,0,0,379,-3866,-18948,384,,,,,,,,,,,,
184923,1560690490870,5,2.3,2.12,3.31,1.9,2.66,1.03,-0.01,0.29,-3,0,-3,1.03,7178,18,81,31,32,893,384.0,608,461,60,123.0,117,1,290,169,45,0,0,377,-19019,-19019,384,,,,,,,,,,,,
184943,1560690490890,1,2.33,2.12,3.3,1.96,2.6,0.9,-0.06,0.27,-1,2,-3,0.9,7140,18,81,32,33,898,383.0,612,459,60,122.0,117,1,292,174,45,0,0,378,-18948,8200,383,45.701603,4.911749,38.05,197.9,1,1.8267,0,0.0,0.55,2,0.42,3.0824
184963,1560690490910,1,2.33,2.11,3.34,2.0,2.62,0.87,-0.03,0.29,-0,1,-2,0.87,7121,18,81,32,34,902,383.0,611,463,60,122.0,117,1,295,179,45,0,0,375,2278,19125,383,,,,,,,,,,,,
184983,1560690490930,0,2.35,2.12,3.37,2.02,2.63,0.89,-0.06,0.34,-0,2,-1,0.9,7102,19,81,32,35,905,383.0,604,458,60,123.0,117,1,295,179,45,0,0,377,2278,-19019,383,,,,,,,,,,,,
185003,1560690490950,4,2.33,2.1,3.34,2.02,2.58,0.99,-0.16,0.4,1,0,1,1.0,7051,19,81,32,35,906,384.0,607,462,60,122.0,127,1,298,185,49,0,0,376,3,19125,384,,,,,,,,,,,,
185023,1560690490970,4,2.35,2.11,3.34,2.04,2.56,0.84,-0.14,0.34,2,3,1,0.85,7075,19,81,32,36,906,383.0,606,464,60,122.0,127,1,301,190,49,0,0,376,770,-992,383,,,,,,,,,,,,
185043,1560690490990,-0,2.35,2.1,3.34,2.06,2.56,0.88,-0.11,0.4,3,2,-0,0.89,7046,19,81,32,37,907,382.0,604,459,60,123.0,127,1,304,190,49,0,0,370,742,19125,382,45.701599,4.91176,37.33,197.9,1,1.8267,0,0.0,0.5517,2,0.42,3.084
185063,1560690491004,5,2.37,2.09,3.35,2.06,2.56,0.95,-0.25,0.55,2,-0,-1,0.98,7040,19,81,32,37,907,383.0,608,461,60,122.0,127,1,304,196,49,0,0,374,-6656,-6656,383,,,,,,,,,,,,
185083,1560690491024,1,2.38,2.07,3.36,2.06,2.57,0.88,-0.3,0.51,4,-1,-1,0.93,7070,19,81,32,37,907,384.0,603,464,60,122.0,127,1,304,196,49,0,0,371,257,-18948,382,,,,,,,,,,,,
185103,1560690491044,2,2.37,2.07,3.38,2.09,2.57,0.8,-0.22,0.41,5,1,1,0.83,7059,19,81,32,38,908,383.0,601,465,60,122.0,135,1,307,202,52,0,0,369,486,-18948,383,,,,,,,,,,,,
185123,1560690491064,1,2.37,2.06,3.39,2.11,2.58,0.92,-0.29,0.5,5,-0,3,0.96,7038,19,81,32,38,913,384.0,602,455,60,123.0,135,1,307,202,52,0,0,367,-6656,8200,384,,,,,,,,,,,,
185143,1560690491084,5,2.37,2.07,3.39,2.11,2.57,0.89,-0.3,0.41,5,1,5,0.94,7046,19,81,32,39,921,383.0,600,466,60,122.0,135,1,310,208,52,0,0,369,-6656,-19126,384,45.701595,4.91177,36.78,197.9,1,1.8267,0,0.0,0.5533,2,0.42,3.0857
185163,1560690491110,-1,2.39,2.07,3.37,2.12,2.54,0.79,-0.21,0.4,7,3,5,0.82,7059,19,81,32,39,930,382.0,606,458,60,123.0,135,1,310,208,52,0,0,367,0,-6656,383,,,,,,,,,,,,
185183,1560690491130,0,2.38,2.07,3.36,2.16,2.52,0.9,-0.22,0.52,7,1,5,0.93,7056,20,81,32,39,939,381.0,603,458,60,124.0,135,1,310,208,52,0,0,367,230,-6656,381,,,,,,,,,,,,
185203,1560690491150,6,2.39,2.05,3.37,2.14,2.52,0.92,-0.3,0.56,7,-1,5,0.96,7099,20,81,32,39,948,380.0,603,463,60,122.0,147,1,310,208,56,0,0,365,230,2278,380,,,,,,,,,,,,
185223,1560690491170,3,2.39,2.05,3.37,2.15,2.53,0.88,-0.32,0.55,8,-1,6,0.93,7088,20,81,32,40,962,381.0,603,465,60,123.0,147,1,317,209,56,0,0,367,230,8200,381,,,,,,,,,,,,
185243,1560690491191,1,2.38,2.05,3.37,2.14,2.52,0.76,-0.27,0.44,9,1,7,0.81,7088,20,81,32,40,975,380.0,599,456,60,124.0,147,1,317,209,56,0,0,366,-6405,742,380,45.70158,4.91179,36.26,197.9,1,1.8267,0,0.0,0.5567,2,0.42,3.0874
185263,1560690491211,-2,2.39,2.06,3.36,2.14,2.52,0.79,-0.24,0.41,8,-1,9,0.82,7102,20,81,32,40,981,380.0,606,458,60,123.0,147,1,317,209,56,0,0,365,-1268,8200,380,,,,,,,,,,,,
185283,1560690491231,3,2.39,2.06,3.37,2.15,2.52,0.83,-0.27,0.46,8,-1,10,0.87,7096,20,81,32,40,987,380.0,606,462,60,122.0,147,1,317,209,56,0,0,366,-1268,2278,380,,,,,,,,,,,,
185303,1560690491251,3,2.4,2.07,3.37,2.15,2.52,0.79,-0.29,0.46,9,-1,12,0.84,7115,20,81,32,40,995,378.0,608,461,60,122.0,147,1,317,209,56,0,0,363,3082,3,378,,,,,,,,,,,,
185323,1560690491271,-1,2.39,2.05,3.38,2.15,2.52,0.77,-0.26,0.46,9,0,14,0.81,7121,20,81,32,40,1000,379.0,604,461,60,123.0,147,1,317,209,56,0,0,361,2790,-6656,379,,,,,,,,,,,,
185343,1560690491291,-1,2.39,2.06,3.38,2.15,2.53,0.79,-0.22,0.46,9,-2,15,0.82,7107,20,81,32,40,1001,378.0,603,458,60,124.0,147,1,317,209,56,0,0,360,3082,1,378,45.70158,4.91179,36.26,197.9,1,1.8267,0,0.0,0.5567,2,0.42,3.0891
185363,1560690491310,5,2.39,2.06,3.38,2.16,2.53,0.89,-0.21,0.52,9,-1,15,0.91,7148,20,81,32,40,1000,379.0,611,463,60,123.0,147,1,317,209,56,0,0,361,3082,742,379,,,,,,,,,,,,
185383,1560690491330,3,2.39,2.06,3.37,2.15,2.53,0.78,-0.28,0.52,10,-1,13,0.83,7145,20,81,32,40,997,379.0,608,458,60,121.0,147,1,317,209,56,0,0,358,-6458,-6656,379,,,,,,,,,,,,
185403,1560690491350,1,2.39,2.04,3.38,2.13,2.52,0.73,-0.28,0.52,10,-3,12,0.79,7161,20,81,32,41,995,376.0,610,462,60,123.0,147,1,325,209,56,0,0,361,3082,742,379,,,,,,,,,,,,
185423,1560690491370,1,2.38,2.08,3.38,2.17,2.49,0.76,-0.26,0.46,10,-1,12,0.8,7172,20,81,32,40,991,378.0,607,461,60,124.0,147,1,317,209,56,0,0,366,-6458,-6656,378,,,,,,,,,,,,
185443,1560690491390,4,2.39,2.1,3.38,2.2,2.51,0.88,-0.29,0.53,9,-5,13,0.93,7151,20,81,32,40,988,377.0,603,457,60,124.0,147,1,317,209,56,0,0,365,-14707,-6656,376,45.701576,4.911799,36.23,197.9,1,1.8267,0,0.0,0.5583,2,0.42,3.0907
185463,1560690491410,2,2.38,2.1,3.39,2.18,2.5,0.88,-0.32,0.56,10,-2,14,0.94,7107,20,81,32,40,984,377.0,605,460,60,122.0,147,1,317,209,56,0,0,366,3082,8200,377,,,,,,,,,,,,
185483,1560690491430,0,2.37,2.12,3.4,2.17,2.5,0.67,-0.27,0.52,10,-0,14,0.72,7038,20,81,32,41,980,377.0,603,461,60,123.0,147,1,325,209,56,0,0,372,-1268,-6656,377,,,,,,,,,,,,
185503,1560690491450,5,2.37,2.13,3.38,2.19,2.49,0.66,-0.22,0.57,10,-3,13,0.7,6916,20,81,32,41,979,378.0,600,460,60,124.0,145,1,324,211,55,0,0,371,230,-6656,378,,,,,,,,,,,,
185523,1560690491470,2,2.37,2.13,3.38,2.18,2.49,0.69,-0.25,0.53,10,-3,14,0.73,6868,20,81,32,41,978,378.0,597,463,60,123.0,145,1,324,211,55,0,0,372,0,770,378,,,,,,,,,,,,
185543,1560690491490,0,2.37,2.12,3.36,2.16,2.48,0.62,-0.15,0.48,10,-2,14,0.64,6860,21,81,32,41,976,379.0,598,461,60,123.0,145,1,324,211,55,0,0,364,230,770,379,45.701569,4.911809,35.67,197.9,1,1.8267,0,0.0,0.56,2,0.42,3.0924
185563,1560690491509,1,2.38,2.13,3.34,2.15,2.48,0.75,-0.24,0.58,10,-5,16,0.79,6818,21,81,32,42,973,379.0,591,463,60,122.0,145,1,331,213,55,0,0,365,230,-6656,379,,,,,,,,,,,,
185583,1560690491529,1,2.38,2.12,3.4,2.15,2.51,0.65,-0.19,0.52,11,-2,16,0.68,6833,21,81,32,42,971,378.0,585,460,60,123.0,145,1,331,213,55,0,0,367,-6405,19125,378,,,,,,,,,,,,
185603,1560690491549,5,2.36,2.13,3.46,2.17,2.51,0.75,-0.21,0.65,10,-3,15,0.78,6885,21,81,32,42,969,379.0,590,462,60,122.0,145,1,331,213,55,0,0,368,230,-6656,379,,,,,,,,,,,,
185623,1560690491569,0,2.37,2.14,3.43,2.16,2.51,0.64,-0.19,0.56,10,-1,13,0.66,6863,21,81,32,42,966,378.0,591,461,60,123.0,145,1,331,213,55,0,0,366,230,8200,378,,,,,,,,,,,,
185643,1560690491589,3,2.37,2.15,3.43,2.16,2.51,0.68,-0.19,0.61,10,-2,11,0.71,6845,21,81,32,42,962,378.0,597,458,60,124.0,145,1,331,213,55,0,0,366,-6405,2278,377,45.701561,4.911818,35.97,197.9,1,1.8267,0,0.0,0.5617,2,0.42,3.094
185663,1560690491609,-0,2.37,2.16,3.41,2.18,2.48,0.74,-0.23,0.57,10,-4,11,0.77,6893,21,81,32,42,960,377.0,588,461,60,122.0,145,1,331,213,55,0,0,365,-6405,-6656,378,,,,,,,,,,,,
185683,1560690491629,0,2.35,2.16,3.39,2.19,2.49,0.7,-0.22,0.49,9,-2,13,0.73,6916,21,81,32,42,959,376.0,593,458,60,123.0,145,1,332,213,55,0,0,367,3082,742,376,,,,,,,,,,,,
185703,1560690491649,2,2.37,2.13,3.37,2.14,2.5,0.83,-0.25,0.57,9,-4,14,0.87,6916,21,81,32,42,958,376.0,597,456,60,122.0,148,1,332,213,56,0,0,363,-1268,1,376,,,,,,,,,,,,
185723,1560690491669,-0,2.36,2.11,3.37,2.13,2.51,0.73,-0.25,0.51,10,-1,15,0.77,6944,21,81,32,43,959,378.0,595,465,60,122.0,148,1,339,215,56,0,0,363,-6405,742,378,,,,,,,,,,,,
185743,1560690491689,0,2.36,2.11,3.36,2.13,2.5,0.72,-0.2,0.56,10,-2,13,0.75,6972,21,81,32,42,960,378.0,600,458,60,124.0,148,1,332,213,56,0,0,365,-6405,8200,378,45.701557,4.911827,36.04,197.9,1,1.8267,0,0.0,0.5633,2,0.42,3.0957
185763,1560690491709,3,2.36,2.12,3.36,2.16,2.5,0.74,-0.32,0.59,10,-2,10,0.8,6962,21,81,32,43,961,376.0,598,459,60,122.0,148,1,339,215,56,0,0,366,-1268,742,376,,,,,,,,,,,,
185783,1560690491729,0,2.35,2.11,3.37,2.14,2.51,0.71,-0.31,0.61,10,-3,10,0.77,6975,21,81,32,42,963,375.0,600,459,60,123.0,148,1,332,213,56,0,0,366,2790,-6656,375,,,,,,,,,,,,
185803,1560690491749,3,2.35,2.12,3.38,2.15,2.49,0.74,-0.3,0.64,9,-4,9,0.8,7011,21,81,32,42,965,376.0,602,457,60,124.0,149,1,332,213,56,0,0,366,3082,770,376,,,,,,,,,,,,
185823,1560690491769,4,2.35,2.17,3.4,2.16,2.52,0.8,-0.37,0.63,9,-4,9,0.88,6985,21,81,32,42,967,376.0,605,462,60,122.0,149,1,332,215,56,0,0,367,-1268,770,376,,,,,,,,,,,,
185843,1560690491789,0,2.34,2.17,3.42,2.18,2.52,0.69,-0.3,0.52,9,-3,9,0.76,6996,21,81,32,42,968,375.0,597,454,60,123.0,149,1,332,213,56,0,0,369,-1268,742,376,45.70155,4.911835,36.05,197.9,1,1.8267,0,0.0,0.565,2,0.43,3.0974
185863,1560690491809,-0,2.34,2.17,3.38,2.15,2.51,0.81,-0.29,0.58,8,-4,9,0.86,7022,21,81,32,42,968,375.0,602,457,60,123.0,149,1,332,213,56,0,0,366,230,1,377,,,,,,,,,,,,
185883,1560690491829,2,2.33,2.16,3.34,2.13,2.48,0.79,-0.36,0.58,9,-1,8,0.87,6996,21,81,32,42,968,376.0,602,455,60,122.0,149,1,332,213,56,0,0,365,0,257,375,,,,,,,,,,,,
185903,1560690491849,2,2.34,2.16,3.31,2.14,2.49,0.71,-0.34,0.55,9,-3,7,0.79,6980,21,81,32,42,968,375.0,602,462,60,122.0,149,1,332,213,56,0,0,370,230,8200,375,,,,,,,,,,,,
185923,1560690491869,-0,2.34,2.16,3.32,2.12,2.49,0.75,-0.31,0.53,8,-3,8,0.81,6985,21,81,32,41,968,375.0,603,458,60,123.0,149,1,324,213,56,0,0,371,0,-6656,375,,,,,,,,,,,,
185943,1560690491891,3,2.34,2.16,3.33,2.12,2.48,0.87,-0.4,0.56,8,-3,9,0.96,6931,20,81,32,41,967,375.0,602,459,60,121.0,149,1,324,213,56,0,0,369,-6405,8200,375,45.701538,4.911851,35.73,197.8,1,1.8267,0,0.0,0.5683,2,0.43,3.0991
185963,1560690491911,0,2.34,2.15,3.33,2.13,2.5,0.72,-0.27,0.5,8,-2,10,0.77,6926,20,81,32,41,967,374.0,597,454,60,124.0,149,1,324,211,56,0,0,368,0,3,374,,,,,,,,,,,,
185983,1560690491931,5,2.35,2.16,3.36,2.14,2.53,0.81,-0.26,0.61,8,-2,9,0.85,6911,20,81,32,41,966,377.0,603,458,60,124.0,149,1,324,211,56,0,0,371,0,3,377,,,,,,,,,,,,
186003,1560690491951,1,2.35,2.17,3.38,2.14,2.53,0.74,-0.27,0.53,8,-0,7,0.79,6890,20,81,32,42,967,376.0,598,461,60,123.0,146,1,331,211,55,0,0,371,0,-6656,376,,,,,,,,,,,,
186023,1560690491971,1,2.34,2.17,3.36,2.14,2.52,0.78,-0.14,0.59,7,-2,6,0.8,6880,20,81,32,41,966,377.0,600,462,60,123.0,146,1,324,211,55,0,0,366,230,-6656,377,,,,,,,,,,,,
186043,1560690491991,2,2.35,2.17,3.34,2.15,2.52,0.76,-0.18,0.57,8,-3,5,0.79,6918,20,81,32,41,962,376.0,597,460,60,122.0,146,1,324,211,55,0,0,366,0,3,376,45.701538,4.911851,35.73,197.8,1,1.8267,0,0.0,0.5683,2,0.43,3.1007
186063,1560690492005,-0,2.34,2.16,3.34,2.15,2.52,0.75,-0.13,0.52,7,-1,6,0.77,6908,20,81,32,41,961,377.0,596,461,60,123.0,146,1,324,211,55,0,0,370,230,8200,376,,,,,,,,,,,,
186083,1560690492025,4,2.35,2.16,3.34,2.15,2.51,0.79,-0.15,0.54,8,-2,7,0.8,6893,20,81,32,41,957,376.0,595,457,60,123.0,146,1,324,211,55,0,0,368,-1268,3,376,,,,,,,,,,,,
186103,1560690492045,-1,2.35,2.14,3.33,2.13,2.51,0.73,-0.17,0.49,8,-2,7,0.75,6878,20,81,32,41,956,375.0,598,461,60,122.0,146,1,324,211,55,0,0,367,230,-6656,375,,,,,,,,,,,,
186123,1560690492065,-0,2.34,2.14,3.35,2.12,2.5,0.81,-0.16,0.53,7,-3,7,0.83,6926,20,81,32,41,951,376.0,597,455,60,124.0,146,1,324,211,55,0,0,367,230,742,376,,,,,,,,,,,,
186143,1560690492091,3,2.35,2.12,3.35,2.12,2.5,0.78,-0.26,0.53,7,1,5,0.82,6895,20,81,32,41,948,377.0,600,460,60,122.0,146,1,324,211,55,0,0,366,230,770,377,45.701519,4.911866,35.96,197.8,1,1.8267,0,0.0,0.5717,2,0.43,3.1024
186163,1560690492111,0,2.35,2.12,3.35,2.12,2.5,0.79,-0.23,0.54,7,-1,6,0.82,6913,20,81,32,41,948,378.0,597,463,60,123.0,146,1,324,211,55,0,0,368,0,-6656,378,,,,,,,,,,,,
186183,1560690492131,5,2.36,2.13,3.35,2.12,2.51,0.81,-0.29,0.59,7,-1,7,0.86,6923,20,81,32,41,946,378.0,600,460,60,122.0,146,1,324,211,55,0,0,368,0,742,378,,,,,,,,,,,,
186203,1560690492151,1,2.35,2.13,3.35,2.12,2.51,0.8,-0.3,0.54,8,3,8,0.86,6908,18,81,32,41,943,376.0,596,466,60,122.0,146,1,324,211,55,0,0,368,0,3,376,,,,,,,,,,,,
186223,1560690492171,-0,2.35,2.14,3.36,2.12,2.51,0.77,-0.22,0.56,7,0,8,0.8,6888,16,81,32,40,941,376.0,597,459,60,123.0,146,1,317,209,55,0,0,366,0,3,376,,,,,,,,,,,,
186243,1560690492191,4,2.36,2.16,3.36,2.13,2.49,0.88,-0.26,0.59,7,0,7,0.92,6898,14,81,32,38,939,376.0,602,461,60,122.0,146,1,307,202,55,0,0,368,0,8200,376,45.701515,4.911873,35.73,197.8,1,1.8267,0,0.0,0.5733,2,0.43,3.104
186263,1560690492211,-2,2.37,2.18,3.36,2.15,2.47,0.79,-0.23,0.56,8,0,5,0.82,6873,12,81,32,37,938,375.0,597,459,60,123.0,146,1,304,196,55,0,0,367,230,2278,375,,,,,,,,,,,,
186283,1560690492231,4,2.37,2.18,3.38,2.14,2.47,0.82,-0.32,0.61,7,0,4,0.87,6808,11,81,32,35,935,375.0,596,462,60,123.0,146,1,298,185,55,0,0,367,230,1,374,,,,,,,,,,,,
186303,1560690492251,-0,2.37,2.19,3.38,2.14,2.46,0.85,-0.3,0.56,8,-1,4,0.9,6756,9,81,32,34,934,374.0,592,458,60,123.0,125,1,295,179,47,0,0,363,3082,1,374,,,,,,,,,,,,
186323,1560690492271,3,2.38,2.18,3.37,2.13,2.46,0.77,-0.37,0.55,8,-1,5,0.86,6663,9,81,32,33,932,374.0,587,457,60,124.0,125,1,292,174,47,0,0,363,-1268,1,374,,,,,,,,,,,,
186343,1560690492291,-1,2.38,2.17,3.38,2.12,2.46,0.8,-0.28,0.48,8,1,8,0.84,6581,8,81,32,32,931,374.0,578,462,60,123.0,125,1,290,169,47,0,0,363,-1268,-6656,374,45.701508,4.91188,35.91,197.8,1,1.8267,0,0.0,0.575,2,0.43,3.1057
186363,1560690492311,-2,2.38,2.16,3.37,2.11,2.48,0.85,-0.33,0.49,8,-0,9,0.91,6472,8,81,32,31,926,373.0,573,460,60,122.0,125,1,286,169,47,0,0,363,3082,257,373,,,,,,,,,,,,
186383,1560690492331,2,2.38,2.16,3.37,2.13,2.48,0.86,-0.32,0.5,9,-3,10,0.92,6336,8,81,32,31,922,373.0,567,457,60,123.0,125,1,286,167,47,0,0,361,2790,742,373,,,,,,,,,,,,
186403,1560690492351,4,2.37,2.16,3.37,2.12,2.51,0.86,-0.35,0.58,9,-7,10,0.93,6241,8,81,32,31,921,373.0,558,457,60,123.0,104,1,286,167,39,0,0,365,-14707,-6656,373,,,,,,,,,,,,
186423,1560690492371,3,2.37,2.14,3.37,2.13,2.53,0.73,-0.32,0.55,11,-8,9,0.8,6184,8,81,32,31,917,372.0,551,461,60,124.0,104,1,287,166,39,0,0,358,-14707,0,372,,,,,,,,,,,,
186443,1560690492391,5,2.37,2.11,3.43,2.13,2.56,0.63,-0.26,0.38,12,-5,9,0.69,6181,8,81,32,31,908,372.0,544,462,60,123.0,104,1,287,166,39,0,0,346,-29302,-29978,372,45.7015,4.911887,36.01,197.8,1,1.8267,0,0.0,0.5767,2,0.43,3.1074
186463,1560690492411,-1,2.37,2.09,3.47,2.12,2.65,0.56,-0.28,0.28,12,-3,10,0.63,6287,7,81,32,30,896,369.0,545,462,60,122.0,104,1,283,166,39,0,0,337,2060,6668,369,,,,,,,,,,,,
186483,1560690492431,1,2.37,2.07,3.47,2.11,2.7,0.67,-0.41,0.38,11,-1,9,0.79,6449,7,81,32,30,885,366.0,552,461,60,122.0,104,1,283,166,39,0,0,343,-30454,-122,366,,,,,,,,,,,,
186503,1560690492451,5,2.35,2.07,3.47,2.09,2.7,0.72,-0.34,0.36,11,-2,8,0.79,6535,7,81,32,29,881,366.0,563,458,60,123.0,109,1,279,164,40,0,0,343,2811,2560,366,,,,,,,,,,,,
186523,1560690492471,-1,2.35,2.07,3.47,2.08,2.67,0.67,-0.34,0.3,11,-1,8,0.75,6535,7,81,32,29,871,362.0,565,459,60,123.0,109,1,279,164,40,0,0,341,2811,2811,362,,,,,,,,,,,,
186543,1560690492491,1,2.36,2.07,3.48,2.1,2.61,0.73,-0.45,0.41,11,0,8,0.85,6535,7,81,32,28,858,362.0,571,460,60,123.0,109,1,275,164,40,0,0,341,8841,28553,359,45.7015,4.911887,36.01,197.8,1,1.8267,0,0.0,0.5767,2,0.43,3.1091
186563,1560690492510,5,2.34,2.07,3.46,2.11,2.58,0.74,-0.36,0.39,11,0,9,0.82,6501,7,81,32,28,853,357.0,572,457,60,123.0,109,1,275,163,40,0,0,345,-30438,-30454,357,,,,,,,,,,,,
186583,1560690492530,-0,2.33,2.08,3.41,2.11,2.55,0.79,-0.37,0.36,10,0,9,0.87,6467,7,81,31,28,849,354.0,568,461,60,122.0,109,1,276,163,40,0,0,343,-10554,3183,354,,,,,,,,,,,,
186603,1560690492550,1,2.33,2.06,3.38,2.08,2.55,0.84,-0.42,0.45,9,-0,10,0.94,6454,7,81,31,28,850,353.0,569,459,60,122.0,112,1,276,163,40,0,0,339,-31206,-1246,351,,,,,,,,,,,,
186623,1560690492570,4,2.31,2.06,3.39,2.05,2.56,0.88,-0.37,0.46,8,-1,10,0.95,6427,7,81,31,27,853,349.0,565,462,60,124.0,112,1,272,163,40,0,0,340,-14714,-10554,349,,,,,,,,,,,,
186643,1560690492590,0,2.3,2.06,3.37,2.04,2.57,0.85,-0.21,0.36,8,-0,10,0.87,6381,7,81,31,27,857,349.0,563,460,60,123.0,112,1,273,161,40,0,0,339,-14714,-30438,349,45.701492,4.911894,34.95,197.8,1,1.8267,0,0.0,0.5783,2,0.43,3.1107
186663,1560690492610,-2,2.29,2.1,3.31,2.03,2.59,0.88,-0.23,0.29,7,-0,10,0.91,6319,7,81,31,28,862,346.0,560,463,60,123.0,112,1,276,163,40,0,0,339,-31206,-31206,346,,,,,,,,,,,,
186683,1560690492630,-1,2.28,2.1,3.26,2.03,2.6,0.97,-0.26,0.37,6,-2,9,1.01,6279,7,81,31,27,869,344.0,555,456,60,122.0,112,1,274,161,40,0,0,341,6668,-31222,344,,,,,,,,,,,,
186703,1560690492650,1,2.26,2.11,3.25,2.02,2.61,1.07,-0.22,0.53,5,-6,6,1.09,6250,7,81,31,27,878,342.0,552,457,60,124.0,111,1,274,161,38,0,0,337,3327,-6528,342,,,,,,,,,,,,
186723,1560690492670,3,2.23,2.11,3.27,2.01,2.64,1.08,-0.1,0.6,4,-8,2,1.08,6220,7,81,31,27,882,340.0,548,456,60,123.0,111,1,274,163,38,0,0,332,3327,-12032,338,,,,,,,,,,,,
186743,1560690492690,2,2.23,2.1,3.27,2.01,2.64,1.0,0.02,0.53,5,-8,-0,1.0,6202,7,81,31,28,885,340.0,546,461,60,124.0,111,1,277,163,38,0,0,337,3327,-12032,337,45.701481,4.9119,33.67,197.8,1,1.8267,0,0.0,0.58,2,0.43,3.1124
186763,1560690492710,5,2.21,2.12,3.29,2.01,2.65,0.96,0.11,0.41,4,-5,-2,0.96,6165,7,81,31,28,888,338.0,543,466,60,124.0,111,1,278,163,38,0,0,333,-122,175,333,,,,,,,,,,,,
186783,1560690492730,-0,2.2,2.12,3.28,1.99,2.64,0.89,0.06,0.31,3,-1,-4,0.89,6141,7,81,31,28,891,336.0,537,461,60,123.0,111,1,278,163,38,0,0,332,13,-23296,332,,,,,,,,,,,,
186803,1560690492750,-1,2.2,2.16,3.28,1.96,2.62,0.9,0.02,0.2,1,2,-5,0.9,6129,7,81,31,28,894,337.0,539,462,60,122.0,115,1,278,163,38,0,0,333,2560,-25856,330,,,,,,,,,,,,
186823,1560690492770,-4,2.2,2.19,3.25,1.95,2.63,0.96,-0.09,0.23,-1,2,-7,0.97,6105,7,81,31,28,893,336.0,534,465,60,122.0,115,1,278,163,38,0,0,330,13,155,326,,,,,,,,,,,,
186843,1560690492792,0,2.2,2.2,3.26,1.93,2.64,1.07,-0.13,0.25,-3,1,-8,1.07,6095,7,81,31,29,895,334.0,536,463,60,122.0,115,1,281,164,38,0,0,328,4838,155,325,45.701469,4.911911,32.27,197.8,1,1.8267,0,0.0,0.5833,2,0.43,3.114
186863,1560690492812,-0,2.2,2.23,3.26,1.92,2.64,1.14,-0.14,0.31,-5,0,-10,1.15,6067,7,81,31,29,900,334.0,536,461,60,122.0,115,1,281,164,38,0,0,326,-32559,-28416,322,,,,,,,,,,,,
186883,1560690492832,0,2.19,2.25,3.27,1.91,2.66,1.23,-0.1,0.33,-6,-2,-12,1.23,6032,7,81,31,29,905,331.0,537,457,60,122.0,115,1,281,164,38,0,0,324,-12032,135,319,,,,,,,,,,,,
186903,1560690492852,-1,2.2,2.26,3.28,1.92,2.66,1.31,-0.13,0.4,-7,-5,-12,1.31,5990,7,81,31,29,909,329.0,532,459,60,122.0,115,1,280,164,37,0,0,322,-20736,135,319,,,,,,,,,,,,
186923,1560690492872,-2,2.19,2.26,3.29,1.94,2.66,1.38,-0.16,0.45,-8,-8,-13,1.39,5935,7,81,31,30,913,328.0,530,463,60,122.0,115,1,282,165,37,0,0,324,170,-28416,317,,,,,,,,,,,,
186943,1560690492892,1,2.18,2.26,3.29,1.94,2.65,1.44,-0.2,0.44,-10,-9,-13,1.46,5894,7,81,31,30,916,326.0,527,465,60,123.0,115,1,281,164,37,0,0,320,165,-29696,315,45.701469,4.911911,32.27,197.8,1,1.8267,0,0.0,0.5833,2,0.44,3.1157
186963,1560690492910,-2,2.18,2.25,3.28,1.94,2.66,1.5,-0.26,0.46,-12,-9,-13,1.52,5841,8,81,31,31,918,323.0,523,463,60,123.0,115,1,283,165,37,0,0,318,-24576,-32256,313,,,,,,,,,,,,
186983,1560690492930,5,2.17,2.25,3.27,1.94,2.68,1.44,-0.29,0.37,-14,-6,-13,1.47,5810,8,81,31,31,915,323.0,517,465,60,124.0,115,1,283,165,37,0,0,315,-24576,120,313,,,,,,,,,,,,
187003,1560690492950,4,2.16,2.24,3.25,1.93,2.69,1.24,-0.3,0.3,-14,-1,-13,1.27,5795,8,81,31,32,911,320.0,517,464,60,123.0,115,1,285,165,36,0,0,315,150,29440,310,,,,,,,,,,,,
187023,1560690492970,2,2.16,2.22,3.22,1.92,2.7,0.98,-0.22,0.24,-12,3,-13,1.0,5792,8,81,31,32,908,319.0,517,463,60,124.0,115,1,285,166,36,0,0,315,-27136,115,308,,,,,,,,,,,,
187043,1560690492990,0,2.16,2.21,3.23,1.92,2.74,0.84,-0.07,0.19,-9,4,-12,0.84,5790,8,81,31,32,905,319.0,516,461,60,124.0,115,1,285,166,36,0,0,313,-27136,25600,308,45.701462,4.911916,31.43,197.8,1,1.8267,0,0.0,0.585,2,0.44,3.1174
187063,1560690493004,1,2.15,2.2,3.23,1.93,2.75,0.9,0.08,0.25,-6,-0,-12,0.91,5751,8,81,31,33,905,318.0,514,458,60,121.0,115,1,288,171,36,0,0,313,145,95,306,,,,,,,,,,,,
187083,1560690493024,0,2.13,2.2,3.23,1.94,2.77,1.02,0.15,0.37,-7,-5,-12,1.03,5699,9,81,31,34,905,316.0,508,458,60,121.0,115,1,289,177,36,0,0,311,140,25600,304,,,,,,,,,,,,
187103,1560690493044,4,2.11,2.21,3.23,1.97,2.8,1.12,0.12,0.38,-11,-6,-13,1.12,5645,9,81,31,34,904,316.0,507,461,60,122.0,125,1,288,177,38,0,0,311,140,100,303,,,,,,,,,,,,
187123,1560690493064,1,2.1,2.22,3.22,2.0,2.82,0.91,0.06,0.37,-13,-1,-14,0.91,5632,9,81,31,35,903,314.0,500,458,60,124.0,125,1,292,182,38,0,0,311,135,95,300,,,,,,,,,,,,
187143,1560690493084,1,2.09,2.22,3.22,1.99,2.84,0.64,0.15,0.34,-11,0,-13,0.66,5634,9,81,31,35,904,313.0,496,461,60,124.0,125,1,292,182,38,0,0,308,-30976,85,298,45.701454,4.911922,31.12,197.8,1,1.8267,0,0.0,0.5867,2,0.44,3.1191
187163,1560690493110,0,2.07,2.22,3.21,1.97,2.86,0.78,0.29,0.35,-9,-6,-12,0.83,5613,9,81,31,36,905,313.0,496,465,60,122.0,125,1,295,194,38,0,0,310,135,0,296,,,,,,,,,,,,
187183,1560690493130,2,2.08,2.21,3.21,1.93,2.9,0.91,0.27,0.42,-13,-9,-13,0.95,5563,10,81,31,37,905,314.0,495,465,60,122.0,125,1,298,193,38,0,0,308,135,10686,294,,,,,,,,,,,,
187203,1560690493150,2,2.07,2.22,3.18,1.93,2.87,0.62,0.23,0.39,-14,-0,-16,0.66,5513,10,81,31,38,907,314.0,493,456,60,124.0,139,1,301,199,41,0,0,309,135,250,292,,,,,,,,,,,,
187223,1560690493170,-2,2.08,2.23,3.16,1.93,2.82,0.62,0.39,0.4,-11,-2,-18,0.74,5485,10,81,31,39,910,313.0,487,461,60,123.0,139,1,304,205,41,0,0,308,-30976,41,291,,,,,,,,,,,,
187243,1560690493190,4,2.07,2.23,3.17,1.91,2.79,0.76,0.33,0.46,-14,-6,-20,0.83,5504,10,81,31,40,912,311.0,487,470,60,123.0,139,1,308,206,41,0,0,305,-32256,250,290,45.701447,4.911927,29.92,197.8,1,1.8267,0,0.0,0.5883,2,0.44,3.1207
187263,1560690493206,1,2.07,2.22,3.17,1.91,2.78,0.56,0.25,0.4,-15,-1,-21,0.62,5493,10,81,31,40,908,309.0,490,461,60,124.0,139,1,307,206,41,0,0,301,32000,-1534,288,,,,,,,,,,,,
187283,1560690493226,0,2.07,2.23,3.18,1.91,2.78,0.63,0.39,0.4,-12,-2,-22,0.74,5496,10,81,31,40,905,308.0,488,453,60,122.0,139,1,307,206,41,0,0,302,120,24064,284,,,,,,,,,,,,
187303,1560690493246,2,2.07,2.25,3.23,1.9,2.79,0.77,0.39,0.39,-15,-4,-22,0.87,5464,10,81,31,41,900,307.0,483,465,60,123.0,151,1,310,208,43,0,0,301,30720,630,283,,,,,,,,,,,,
187323,1560690493266,-1,2.06,2.29,3.26,1.9,2.79,0.55,0.35,0.28,-16,-0,-21,0.65,5397,10,81,31,42,896,307.0,486,462,60,124.0,151,1,311,207,43,0,0,298,30720,630,281,,,,,,,,,,,,
187343,1560690493286,5,2.06,2.31,3.26,1.89,2.78,0.7,0.41,0.38,-16,-5,-20,0.81,5331,10,81,31,43,890,305.0,480,463,60,122.0,151,1,313,211,43,0,0,300,29440,30208,279,45.701439,4.911933,29.19,197.8,1,1.8267,0,0.0,0.59,2,0.44,3.1224
187363,1560690493310,-1,2.06,2.32,3.24,1.87,2.77,0.55,0.35,0.44,-18,1,-21,0.65,5325,10,81,31,43,885,305.0,475,458,60,124.0,151,1,312,211,43,0,0,298,115,28160,278,,,,,,,,,,,,
187383,1560690493330,1,2.05,2.34,3.24,1.86,2.74,0.7,0.38,0.52,-16,-4,-22,0.8,5299,10,81,31,44,886,304.0,471,463,60,122.0,151,1,313,212,43,0,0,297,110,-1281,276,,,,,,,,,,,,
187403,1560690493350,2,2.07,2.35,3.24,1.85,2.74,0.69,0.37,0.56,-18,-3,-24,0.78,5298,11,81,32,44,885,303.0,471,456,60,124.0,152,1,313,212,42,0,0,296,28160,-1281,274,,,,,,,,,,,,
187423,1560690493370,0,2.07,2.35,3.24,1.85,2.74,0.66,0.49,0.55,-16,-4,-26,0.82,5326,11,81,32,45,889,300.0,466,462,60,121.0,152,1,317,214,42,0,0,293,100,-1,273,,,,,,,,,,,,
187443,1560690493392,2,2.08,2.33,3.25,1.84,2.74,0.79,0.43,0.58,-18,-3,-28,0.9,5316,11,81,32,46,894,299.0,468,466,60,124.0,152,1,319,214,42,0,0,293,25600,-1,272,45.701431,4.911946,28.01,197.9,1,1.8267,0,0.0,0.5933,2,0.44,3.124
187463,1560690493412,0,2.08,2.33,3.25,1.85,2.73,0.71,0.48,0.5,-17,-2,-28,0.86,5253,11,81,32,46,900,298.0,467,453,60,123.0,152,1,316,216,42,0,0,290,95,-1,271,,,,,,,,,,,,
187483,1560690493432,2,2.09,2.33,3.24,1.84,2.72,0.83,0.44,0.53,-19,-2,-28,0.94,5230,11,81,32,47,904,297.0,461,461,60,123.0,152,1,317,218,42,0,0,293,24320,-1,271,,,,,,,,,,,,
187503,1560690493452,1,2.08,2.33,3.24,1.84,2.71,0.73,0.44,0.44,-17,-1,-28,0.86,5217,11,81,32,47,904,296.0,458,457,60,122.0,154,1,316,218,42,0,0,291,85,-1,270,,,,,,,,,,,,
187523,1560690493472,1,2.1,2.33,3.24,1.84,2.71,0.83,0.38,0.47,-19,-1,-28,0.92,5209,12,81,32,48,904,294.0,455,465,60,124.0,154,1,316,221,42,0,0,289,85,-1,270,,,,,,,,,,,,
187543,1560690493492,1,2.12,2.31,3.24,1.84,2.71,0.79,0.42,0.45,-16,-1,-27,0.89,5202,12,81,32,48,900,291.0,457,457,60,123.0,154,1,316,221,42,0,0,288,20480,-1,270,45.701431,4.911946,28.01,197.9,1,1.8267,0,0.0,0.5933,2,0.44,3.1257
187563,1560690493509,-0,2.13,2.3,3.23,1.84,2.68,0.8,0.36,0.5,-18,1,-26,0.87,5169,12,81,32,49,896,290.0,453,457,60,124.0,154,1,314,224,42,0,0,287,0,-1,269,,,,,,,,,,,,
187583,1560690493529,5,2.17,2.31,3.27,1.85,2.67,0.85,0.39,0.56,-15,-0,-25,0.94,5172,13,81,32,49,890,289.0,456,460,60,121.0,154,1,314,224,42,0,0,284,0,-1,268,,,,,,,,,,,,
187603,1560690493549,-0,2.18,2.31,3.3,1.85,2.66,0.69,0.28,0.6,-16,4,-25,0.74,5199,13,81,32,50,882,286.0,457,464,60,124.0,167,1,315,227,45,0,0,281,10686,-1,268,,,,,,,,,,,,
187623,1560690493569,3,2.21,2.29,3.3,1.86,2.63,0.82,0.32,0.63,-13,1,-26,0.88,5166,13,81,32,51,878,284.0,450,463,60,123.0,167,1,313,231,45,0,0,282,250,-1,269,,,,,,,,,,,,
187643,1560690493591,-0,2.21,2.27,3.3,1.87,2.6,0.59,0.2,0.56,-14,5,-27,0.62,5158,14,81,32,52,876,283.0,450,461,60,124.0,167,1,312,234,45,0,0,279,-1529,-1,272,45.70142,4.911959,26.69,197.9,1,1.8267,0,0.0,0.5967,2,0.44,3.1274
187663,1560690493611,3,2.23,2.26,3.3,1.87,2.58,0.73,0.29,0.52,-13,1,-25,0.79,5162,14,81,32,52,875,280.0,453,461,60,123.0,167,1,312,234,45,0,0,278,250,-1,271,,,,,,,,,,,,
187683,1560690493631,1,2.26,2.25,3.3,1.86,2.57,0.55,0.22,0.46,-12,4,-23,0.59,5155,14,81,32,53,877,280.0,447,453,60,124.0,167,1,312,237,45,0,0,278,-1534,-1,271,,,,,,,,,,,,
187703,1560690493651,-0,2.29,2.24,3.29,1.87,2.56,0.68,0.18,0.56,-12,3,-20,0.7,5151,14,81,32,54,878,278.0,452,461,60,123.0,172,1,310,237,47,0,0,276,630,-1,271,,,,,,,,,,,,
187723,1560690493671,3,2.31,2.24,3.29,1.91,2.55,0.63,0.16,0.57,-9,4,-18,0.65,5121,15,81,32,54,882,275.0,456,458,60,122.0,172,1,308,240,47,0,0,277,-1527,2414,273,,,,,,,,,,,,
187743,1560690493691,-0,2.35,2.23,3.3,1.94,2.53,0.61,0.02,0.6,-9,6,-16,0.61,5139,15,81,32,55,884,274.0,451,463,60,124.0,172,1,309,240,47,0,0,274,2414,250,273,45.70142,4.911959,26.69,197.9,1,1.8267,0,0.0,0.5967,2,0.44,3.1291
187763,1560690493709,5,2.41,2.2,3.32,1.95,2.53,0.71,0.05,0.56,-6,4,-14,0.71,5125,15,81,32,55,886,275.0,451,458,60,122.0,172,1,308,243,47,0,0,272,-1281,-1527,275,,,,,,,,,,,,
187783,1560690493729,1,2.45,2.16,3.35,2.04,2.52,0.56,-0.06,0.5,-5,6,-12,0.56,5096,15,81,32,56,887,276.0,445,458,60,123.0,172,1,306,247,47,0,0,268,-1,30208,276,,,,,,,,,,,,
187803,1560690493749,2,2.5,2.14,3.37,2.1,2.52,0.7,-0.1,0.54,-2,3,-10,0.71,5102,15,81,32,56,886,278.0,444,462,60,123.0,169,1,306,247,47,0,0,265,-1,630,278,,,,,,,,,,,,
187823,1560690493769,-0,2.55,2.11,3.38,2.16,2.5,0.61,-0.13,0.52,1,3,-7,0.62,5117,15,81,32,57,885,282.0,442,460,60,122.0,169,1,307,251,47,0,0,262,-1,630,281,,,,,,,,,,,,
187843,1560690493791,-2,2.6,2.09,3.39,2.22,2.49,0.65,-0.23,0.54,2,3,-5,0.68,5095,15,81,32,57,879,285.0,444,454,60,124.0,169,1,306,251,47,0,0,259,-10440,30208,285,45.701412,4.911973,26.3,197.9,1,1.8267,0,0.0,0.6,2,0.44,3.1307
187863,1560690493811,6,2.62,2.07,3.45,2.27,2.46,0.74,-0.28,0.58,5,-1,-1,0.79,5108,16,81,32,58,874,284.0,446,464,60,122.0,169,1,306,254,47,0,0,255,14337,24064,284,,,,,,,,,,,,
187883,1560690493831,-1,2.65,2.03,3.48,2.28,2.47,0.63,-0.39,0.58,6,2,2,0.74,5165,16,81,32,58,870,286.0,441,460,60,124.0,169,1,311,254,47,0,0,254,-1,1886,286,,,,,,,,,,,,
187903,1560690493851,3,2.66,2.02,3.49,2.32,2.47,0.72,-0.39,0.62,9,-1,6,0.82,5170,16,81,32,58,869,286.0,448,464,60,122.0,170,1,311,254,49,0,0,249,-1,-1529,286,,,,,,,,,,,,
187923,1560690493871,0,2.67,2.02,3.49,2.35,2.47,0.6,-0.53,0.56,11,0,9,0.8,5175,16,81,32,58,871,287.0,444,458,60,123.0,170,1,312,254,49,0,0,248,250,1886,287,,,,,,,,,,,,
187943,1560690493891,1,2.69,2.02,3.5,2.35,2.47,0.74,-0.49,0.53,14,-0,11,0.88,5169,16,81,32,59,873,288.0,445,459,60,123.0,170,1,311,254,49,0,0,245,250,1886,288,45.701408,4.911979,25.93,197.9,1,1.8267,0,0.0,0.6017,2,0.44,3.1324
187963,1560690493911,-1,2.69,2.02,3.51,2.36,2.47,0.58,-0.59,0.47,16,1,14,0.83,5199,16,81,32,59,881,289.0,450,463,60,122.0,170,1,313,258,49,0,0,244,10812,-16896,289,,,,,,,,,,,,
187983,1560690493931,-1,2.69,2.0,3.52,2.34,2.47,0.73,-0.55,0.49,17,-2,19,0.91,5180,16,81,32,59,886,290.0,451,463,60,124.0,170,1,312,258,49,0,0,241,15360,250,290,,,,,,,,,,,,
188003,1560690493951,0,2.7,2.01,3.52,2.34,2.44,0.56,-0.68,0.51,20,-1,20,0.88,5225,16,81,32,59,899,290.0,452,459,60,122.0,172,1,316,257,50,0,0,240,15360,1886,290,,,,,,,,,,,,
188023,1560690493971,1,2.72,2.02,3.54,2.34,2.43,0.71,-0.64,0.56,19,-2,23,0.95,5230,16,81,32,59,909,289.0,457,463,60,124.0,172,1,316,257,50,0,0,240,250,41,289,,,,,,,,,,,,
188043,1560690493991,1,2.76,2.01,3.57,2.33,2.43,0.58,-0.75,0.5,23,-2,25,0.94,5235,16,81,32,59,915,289.0,452,456,60,122.0,172,1,316,257,50,0,0,241,-1445,1886,289,45.701408,4.911979,25.93,197.9,1,1.8267,0,0.0,0.6017,2,0.44,3.134
188063,1560690494005,0,2.8,2.01,3.58,2.34,2.41,0.69,-0.75,0.49,23,-2,27,1.02,5198,16,81,32,59,919,291.0,452,465,60,124.0,172,1,313,258,50,0,0,241,250,24064,291,,,,,,,,,,,,
188083,1560690494025,5,2.85,2.01,3.59,2.34,2.38,0.71,-0.85,0.47,26,-4,29,1.11,5110,16,81,32,59,920,292.0,449,463,60,121.0,172,1,306,258,50,0,0,250,23482,250,293,,,,,,,,,,,,
188103,1560690494045,-1,2.91,2.0,3.6,2.35,2.37,0.64,-0.88,0.43,27,-1,31,1.08,5016,16,81,32,59,919,293.0,443,455,60,123.0,170,1,298,259,50,0,0,263,-1445,-16896,293,,,,,,,,,,,,
188123,1560690494065,-1,2.95,2.01,3.64,2.34,2.38,0.78,-0.82,0.4,27,-2,35,1.13,4947,16,81,32,60,915,293.0,436,462,60,124.0,170,1,296,262,50,0,0,278,-1484,250,293,,,,,,,,,,,,
188143,1560690494091,2,0.36,1.99,3.66,2.34,2.37,0.81,-0.76,0.43,29,-4,40,1.11,4916,16,81,32,61,912,294.0,433,458,60,122.0,170,1,295,267,50,0,0,264,250,10686,294,45.701397,4.911991,25.7,197.9,1,1.8267,0,0.0,0.605,2,0.45,3.1357
188163,1560690494111,6,0.38,1.96,3.66,2.34,2.39,0.72,-0.83,0.43,31,-2,42,1.1,4879,16,81,32,61,903,292.0,421,450,60,122.0,170,1,295,267,50,0,0,241,-1484,-1529,293,,,,,,,,,,,,
188183,1560690494131,-0,0.39,1.95,3.66,2.35,2.38,0.76,-0.95,0.42,32,-0,44,1.21,4834,16,81,32,61,891,294.0,419,457,60,124.0,170,1,295,267,50,0,0,235,250,41,294,,,,,,,,,,,,
188203,1560690494151,-0,0.39,1.95,3.65,2.35,2.37,0.88,-0.88,0.52,34,-2,44,1.24,4805,16,81,32,62,885,293.0,415,466,60,124.0,167,1,294,273,49,0,0,231,-1483,41,293,,,,,,,,,,,,
188223,1560690494171,0,0.37,1.94,3.62,2.36,2.39,0.88,-0.9,0.49,36,-5,44,1.26,4752,16,81,32,62,881,293.0,410,468,60,123.0,167,1,294,272,49,0,0,225,250,10686,293,,,,,,,,,,,,
188243,1560690494191,2,0.35,1.93,3.64,2.36,2.38,0.84,-0.97,0.36,38,-7,46,1.29,4779,16,81,32,62,877,293.0,407,463,60,122.0,167,1,294,272,49,0,0,227,-1483,10686,293,45.701389,4.911994,25.33,197.9,1,1.8267,0,0.0,0.6067,2,0.45,3.1374
188263,1560690494211,4,0.34,1.92,3.67,2.36,2.38,0.77,-1.04,0.4,39,-5,48,1.29,4801,16,81,32,62,870,293.0,403,452,60,123.0,167,1,294,273,49,0,0,224,-1494,-1529,293,,,,,,,,,,,,
188283,1560690494231,-1,0.33,1.92,3.66,2.37,2.38,0.78,-1.03,0.42,39,-2,51,1.29,4769,16,81,32,62,868,293.0,401,454,60,124.0,167,1,294,272,49,0,0,225,-1494,1886,293,,,,,,,,,,,,
188303,1560690494251,-2,2.95,1.93,3.67,2.37,2.37,0.82,-1.03,0.45,40,-2,51,1.32,4754,16,81,32,63,867,295.0,407,459,60,124.0,166,1,293,272,49,0,0,225,250,10686,293,,,,,,,,,,,,
188323,1560690494271,-1,0.33,1.93,3.65,2.36,2.37,0.9,-1.0,0.45,42,-4,53,1.35,4750,16,81,32,63,866,293.0,403,460,60,124.0,166,1,293,278,49,0,0,221,18432,-1534,293,,,,,,,,,,,,
188343,1560690494291,2,0.33,1.92,3.65,2.35,2.37,0.91,-1.02,0.47,43,-7,55,1.37,4764,16,81,32,63,865,292.0,405,467,60,123.0,166,1,293,278,49,0,0,222,250,1886,292,45.701386,4.911997,24.85,197.9,1,1.8267,0,0.0,0.6083,2,0.45,3.1391
188363,1560690494311,3,0.33,1.92,3.66,2.36,2.37,0.84,-1.08,0.49,45,-7,56,1.37,4777,17,81,32,63,864,292.0,405,457,60,121.0,166,1,293,278,49,0,0,221,10824,630,292,,,,,,,,,,,,
188383,1560690494331,5,2.94,1.9,3.67,2.34,2.36,0.8,-1.11,0.42,45,-6,58,1.37,4730,18,81,32,63,863,293.0,402,457,60,124.0,166,1,293,284,49,0,0,221,-1496,24064,292,,,,,,,,,,,,
188403,1560690494351,-2,2.91,1.92,3.68,2.34,2.36,0.76,-1.12,0.38,45,-5,60,1.36,4711,20,81,32,64,864,292.0,394,456,60,124.0,174,1,292,284,51,0,0,221,250,24064,292,,,,,,,,,,,,
188423,1560690494371,-2,2.9,1.93,3.68,2.35,2.35,0.81,-1.12,0.36,45,-3,62,1.38,4722,23,81,32,66,864,291.0,369,461,60,124.0,174,1,290,291,51,0,0,222,10318,250,291,,,,,,,,,,,,
188443,1560690494391,0,2.87,1.94,3.68,2.33,2.35,0.84,-1.04,0.41,45,-5,64,1.34,4702,25,81,32,67,864,290.0,328,468,60,124.0,174,1,290,304,51,0,0,228,250,-1534,290,45.701378,4.911998,24.79,197.9,1,1.8267,0,0.0,0.61,2,0.45,3.1407
188463,1560690494411,0,2.83,1.98,3.68,2.32,2.36,0.88,-0.99,0.47,45,-5,65,1.33,4696,29,81,32,69,864,288.0,328,470,60,123.0,174,1,289,314,51,0,0,229,250,30208,288,,,,,,,,,,,,
188483,1560690494431,1,2.8,1.99,3.67,2.32,2.35,0.91,-0.95,0.47,45,-7,64,1.32,4763,32,81,32,72,866,286.0,344,460,60,122.0,174,1,287,329,51,0,0,224,18432,250,285,,,,,,,,,,,,
188503,1560690494451,5,2.77,2.0,3.66,2.3,2.36,0.84,-0.94,0.39,44,-6,63,1.26,4802,36,81,32,74,869,286.0,338,452,60,122.0,209,1,286,340,60,0,0,231,10824,-1527,286,,,,,,,,,,,,
188523,1560690494471,1,2.74,2.05,3.6,2.31,2.36,0.85,-0.91,0.39,43,-4,62,1.24,4858,40,81,32,77,871,284.0,341,458,60,124.0,209,1,284,364,60,0,0,234,-1494,250,284,,,,,,,,,,,,
188543,1560690494491,-0,2.73,2.07,3.58,2.3,2.36,0.93,-0.81,0.51,43,-6,62,1.24,4899,44,81,32,81,873,283.0,360,475,60,124.0,209,1,283,421,60,0,0,239,-1494,2414,283,45.701378,4.911998,24.79,197.9,1,1.8267,0,0.0,0.61,2,0.45,3.1424
188563,1560690494510,2,2.72,2.1,3.52,2.3,2.35,0.87,-0.82,0.53,43,-7,60,1.19,4934,46,81,32,84,872,283.0,374,459,60,122.0,209,1,282,455,60,0,0,241,-1483,-1527,283,,,,,,,,,,,,
188583,1560690494530,4,2.71,2.11,3.46,2.28,2.33,0.8,-0.82,0.5,41,-5,58,1.15,4900,49,81,32,86,869,281.0,380,453,60,121.0,209,1,283,462,60,0,0,239,-25600,630,282,,,,,,,,,,,,
188603,1560690494550,0,2.7,2.13,3.44,2.3,2.32,0.81,-0.82,0.52,41,-5,55,1.16,4972,51,81,32,88,864,281.0,391,459,60,124.0,307,1,281,471,87,0,0,247,-1484,630,281,,,,,,,,,,,,
188623,1560690494570,3,2.69,2.13,3.44,2.29,2.32,0.85,-0.76,0.52,40,-6,55,1.14,5001,53,81,32,89,858,281.0,402,466,60,122.0,307,1,280,480,87,0,0,255,-17920,30208,281,,,,,,,,,,,,
188643,1560690494590,1,2.67,2.14,3.44,2.29,2.31,0.82,-0.8,0.55,39,-6,53,1.15,5024,55,81,32,90,858,282.0,410,452,60,121.0,307,1,279,485,87,0,0,262,250,630,282,45.701374,4.911999,24.58,197.9,1,1.8267,0,0.0,0.6117,2,0.45,3.1441
188663,1560690494610,1,2.67,2.14,3.45,2.3,2.32,0.84,-0.77,0.58,38,-7,53,1.14,5128,57,81,32,90,862,283.0,410,458,60,124.0,307,1,283,486,87,0,0,271,250,630,283,,,,,,,,,,,,
188683,1560690494630,5,2.66,2.15,3.45,2.3,2.32,0.83,-0.77,0.61,38,-6,50,1.13,5206,60,81,32,91,871,283.0,421,453,60,121.0,307,1,286,508,87,0,0,282,15360,30208,283,,,,,,,,,,,,
188703,1560690494650,2,2.65,2.15,3.46,2.29,2.33,0.84,-0.76,0.57,35,-5,48,1.13,5332,62,81,32,91,879,283.0,429,462,60,124.0,353,1,291,507,100,0,0,289,-1494,30208,283,,,,,,,,,,,,
188723,1560690494670,-0,2.63,2.16,3.47,2.29,2.33,0.78,-0.78,0.59,35,-6,46,1.1,5453,64,81,32,91,906,284.0,442,456,60,123.0,353,1,296,506,100,0,0,287,16896,1886,284,,,,,,,,,,,,
188743,1560690494690,5,2.61,2.16,3.47,2.29,2.33,0.87,-0.68,0.53,34,-7,47,1.1,5537,65,81,32,91,941,286.0,451,457,60,123.0,353,1,298,506,100,0,0,295,10818,10686,286,45.701366,4.911998,24.25,197.9,1,1.8267,0,0.0,0.6133,2,0.45,3.1457
188763,1560690494710,1,2.6,2.17,3.46,2.29,2.31,0.82,-0.63,0.57,32,-2,46,1.04,5587,66,81,32,91,968,289.0,457,459,60,124.0,353,1,301,505,100,0,0,302,-1,0,289,,,,,,,,,,,,
188783,1560690494730,1,2.59,2.2,3.44,2.29,2.29,0.68,-0.68,0.67,32,-1,44,0.96,5776,66,81,32,90,994,290.0,467,458,60,124.0,353,1,308,505,100,0,0,288,14337,20480,291,,,,,,,,,,,,
188803,1560690494750,1,2.59,2.23,3.38,2.31,2.26,0.58,-0.7,0.79,34,-4,42,0.91,5852,66,81,32,90,1020,295.0,475,459,60,122.0,373,1,311,493,109,0,0,293,-1,95,295,,,,,,,,,,,,
188823,1560690494770,1,2.57,2.25,3.34,2.33,2.24,0.62,-0.67,0.9,34,-8,40,0.91,5899,67,81,32,90,1061,297.0,480,458,60,121.0,373,1,313,493,109,0,0,320,-1,105,297,,,,,,,,,,,,
188843,1560690494790,-1,2.56,2.29,3.29,2.38,2.2,0.72,-0.7,1.01,32,-9,40,1.0,5954,67,81,32,90,1100,303.0,486,458,60,122.0,373,1,315,494,109,0,0,329,-1281,32000,303,45.701359,4.911996,25.37,197.9,1,1.8267,0,0.0,0.615,2,0.45,3.1474
188863,1560690494810,0,2.54,2.31,3.26,2.39,2.21,0.77,-0.72,1.08,31,-11,41,1.05,5998,67,81,32,90,1114,309.0,491,457,60,122.0,373,1,316,494,109,0,0,313,250,-28416,309,,,,,,,,,,,,
188883,1560690494830,-2,2.53,2.32,3.24,2.4,2.2,0.83,-0.73,1.17,30,-11,40,1.11,5937,67,81,32,90,1129,313.0,492,457,60,122.0,373,1,314,494,109,0,0,307,24064,165,313,,,,,,,,,,,,
188903,1560690494850,-1,2.51,2.36,3.23,2.42,2.22,0.94,-0.76,1.22,28,-12,38,1.21,5874,67,81,32,90,1138,319.0,491,457,60,122.0,348,1,312,493,110,0,0,321,41,-23296,319,,,,,,,,,,,,
188923,1560690494870,-1,2.5,2.37,3.24,2.44,2.23,1.01,-0.77,1.19,26,-12,37,1.27,5846,67,81,32,91,1146,320.0,493,457,60,122.0,348,1,312,493,110,0,0,327,21760,170,320,,,,,,,,,,,,
188943,1560690494890,-1,2.49,2.37,3.26,2.46,2.24,0.97,-0.76,1.07,24,-10,35,1.23,5941,67,81,32,90,1141,324.0,492,456,60,123.0,348,1,314,494,110,0,0,328,24320,165,324,45.701355,4.911994,25.91,197.8,1,1.8267,0,0.0,0.6167,2,0.45,3.149
188963,1560690494910,1,2.47,2.37,3.3,2.45,2.26,0.99,-0.71,0.96,22,-8,34,1.22,6109,67,81,32,90,1134,326.0,502,457,60,123.0,348,1,326,499,110,0,0,331,25600,-20736,326,,,,,,,,,,,,
188983,1560690494930,0,2.47,2.39,3.31,2.45,2.28,1.0,-0.68,0.97,21,-9,33,1.21,6262,67,81,32,91,1126,328.0,514,457,60,122.0,348,1,331,512,110,0,0,332,115,3346,329,,,,,,,,,,,,
189003,1560690494950,3,2.47,2.39,3.31,2.46,2.28,1.01,-0.71,1.07,20,-11,31,1.23,6325,67,81,32,90,1119,330.0,518,458,60,122.0,363,1,334,508,120,0,0,335,32000,3327,330,,,,,,,,,,,,
189023,1560690494970,5,2.44,2.37,3.29,2.44,2.27,0.89,-0.63,1.07,20,-12,30,1.09,6358,67,81,32,90,1115,334.0,526,461,60,123.0,363,1,336,509,120,0,0,337,135,3327,334,,,,,,,,,,,,
189043,1560690494990,0,2.43,2.36,3.29,2.41,2.24,0.75,-0.51,0.98,20,-8,30,0.91,6375,67,81,32,90,1114,338.0,528,463,60,123.0,363,1,337,510,120,0,0,339,145,-10554,338,45.701347,4.911991,28.12,197.8,1,1.8267,0,0.0,0.6183,2,0.45,3.1507
189063,1560690495004,2,2.41,2.34,3.26,2.4,2.23,0.76,-0.54,0.94,20,-6,29,0.93,6425,67,81,32,90,1112,342.0,529,457,60,122.0,363,1,340,512,120,0,0,344,160,8841,342,,,,,,,,,,,,
189083,1560690495024,6,2.39,2.32,3.22,2.38,2.25,0.85,-0.51,1.05,17,-10,28,0.99,6519,67,81,32,90,1111,346.0,537,453,60,123.0,363,1,345,515,120,0,0,344,-22016,-30454,346,,,,,,,,,,,,
189103,1560690495044,1,2.38,2.31,3.2,2.37,2.27,0.74,-0.44,0.97,17,-8,26,0.86,6583,67,81,32,90,1111,346.0,543,465,60,122.0,368,1,349,518,128,0,0,354,-6528,3302,346,,,,,,,,,,,,
189123,1560690495064,2,2.37,2.32,3.19,2.38,2.31,0.76,-0.43,0.89,17,-9,27,0.87,6708,67,81,32,90,1110,349.0,543,465,60,121.0,368,1,355,523,128,0,0,366,3346,2060,349,,,,,,,,,,,,
189143,1560690495084,1,2.35,2.33,3.19,2.4,2.34,0.63,-0.38,0.9,15,-5,26,0.73,6845,68,81,32,90,1112,353.0,561,454,60,122.0,368,1,363,528,128,0,0,369,-31222,-14707,353,45.70134,4.911986,30.81,197.8,1,1.8267,0,0.0,0.62,2,0.45,3.1524
189163,1560690495110,6,2.33,2.36,3.19,2.39,2.41,0.66,-0.36,0.92,14,-5,25,0.76,6975,68,81,32,89,1114,356.0,567,460,60,122.0,368,1,371,528,128,0,0,366,6870,742,356,,,,,,,,,,,,
189183,1560690495130,5,2.32,2.37,3.18,2.41,2.43,0.62,-0.28,0.91,13,-4,25,0.68,7096,68,81,32,89,1118,359.0,575,457,60,122.0,368,1,379,538,128,0,0,370,2811,8200,359,,,,,,,,,,,,
189203,1560690495150,2,2.31,2.41,3.13,2.41,2.42,0.49,-0.2,0.9,13,-2,24,0.53,7140,68,81,32,89,1120,363.0,582,460,60,122.0,392,1,383,533,143,0,0,374,4104,8200,363,,,,,,,,,,,,
189223,1560690495170,1,2.29,2.46,3.07,2.42,2.37,0.54,-0.08,0.89,11,-3,23,0.55,7170,68,81,32,88,1104,369.0,591,452,60,123.0,392,1,386,528,143,0,0,379,2790,-19019,369,,,,,,,,,,,,
189243,1560690495191,0,2.28,2.46,3.05,2.4,2.34,0.67,-0.09,0.95,9,-4,19,0.68,7211,68,81,32,88,1077,373.0,598,455,60,124.0,392,1,389,529,143,0,0,387,-6656,-18948,373,45.701324,4.911977,34.17,197.8,1,1.8267,0,0.0,0.6233,2,0.45,3.154
189263,1560690495211,6,2.26,2.47,3.01,2.4,2.32,0.65,-0.19,0.99,8,-2,16,0.68,7200,68,81,32,88,1058,376.0,594,457,60,122.0,392,1,388,536,143,0,0,389,1,-3866,376,,,,,,,,,,,,
189283,1560690495231,6,2.25,2.5,3.03,2.39,2.34,0.53,-0.19,1.0,8,-1,14,0.57,7281,68,81,32,89,1033,379.0,600,459,60,122.0,392,1,394,539,143,0,0,399,2278,-31744,379,,,,,,,,,,,,
189303,1560690495251,4,2.23,2.51,3.07,2.38,2.37,0.41,-0.14,0.98,7,-1,14,0.44,7361,68,81,32,88,993,384.0,598,459,60,122.0,386,1,399,534,147,0,0,403,-19019,1,382,,,,,,,,,,,,
189323,1560690495271,6,2.22,2.52,3.06,2.37,2.39,0.4,-0.09,0.95,6,-2,14,0.41,7488,68,81,32,87,937,391.0,602,456,60,123.0,386,1,408,530,147,0,0,402,505,10541,385,,,,,,,,,,,,
189343,1560690495291,5,2.23,2.53,3.06,2.34,2.39,0.32,-0.14,1.0,5,0,13,0.35,7693,68,81,32,87,892,395.0,608,456,60,123.0,386,1,422,535,147,0,0,410,17144,2524,389,45.701324,4.911977,34.17,197.8,1,1.8267,0,0.0,0.6233,2,0.45,3.1557
189363,1560690495310,-0,2.23,2.57,3.05,2.32,2.39,0.29,-0.07,1.03,4,1,10,0.3,7888,68,81,32,85,854,400.0,613,458,60,123.0,386,1,433,522,147,0,0,412,10541,-8165,393,,,,,,,,,,,,
189383,1560690495330,3,2.22,2.59,3.05,2.32,2.38,0.36,0.07,0.97,3,-2,6,0.36,8005,69,81,32,83,821,406.0,610,455,60,123.0,386,1,437,515,147,0,0,421,-26615,-4082,398,,,,,,,,,,,,
189403,1560690495350,0,2.23,2.6,3.04,2.32,2.37,0.31,0.09,1.0,3,0,4,0.32,8162,70,81,32,82,795,412.0,620,457,60,122.0,397,1,435,510,159,0,0,430,13040,3635,402,,,,,,,,,,,,
189423,1560690495370,3,2.22,2.61,3.04,2.34,2.36,0.33,-0.04,0.97,2,0,3,0.33,8281,71,81,32,81,767,416.0,618,452,60,123.0,397,1,432,509,159,0,0,447,18584,-7939,409,,,,,,,,,,,,
189443,1560690495392,1,2.22,2.61,3.05,2.35,2.36,0.35,0.02,1.07,1,-1,2,0.35,8322,72,81,32,81,764,422.0,619,455,60,121.0,397,1,430,512,159,0,0,459,-3414,21432,414,45.701309,4.911965,38.18,197.8,1,1.8267,0,0.0,0.6267,2,0.46,3.1574
189463,1560690495412,4,2.24,2.61,3.03,2.33,2.35,0.3,0.09,0.93,0,-1,3,0.32,8468,73,81,32,80,762,429.0,626,459,60,122.0,397,1,428,509,159,0,0,449,1779,-6387,419,,,,,,,,,,,,
189483,1560690495432,4,2.24,2.62,3.0,2.34,2.35,0.39,-0.12,1.03,-0,-2,2,0.41,8577,74,81,32,79,763,433.0,618,462,60,123.0,397,1,425,512,159,0,0,452,243,14488,426,,,,,,,,,,,,
189503,1560690495452,2,2.25,2.64,2.96,2.35,2.34,0.38,-0.08,1.13,-0,-1,2,0.39,8636,75,81,32,80,766,439.0,629,456,60,122.0,387,1,424,512,167,0,0,460,-28332,16408,432,,,,,,,,,,,,
189523,1560690495472,-0,2.28,2.64,2.97,2.37,2.34,0.26,0.13,1.14,0,-2,1,0.29,8704,76,81,32,80,770,443.0,623,455,60,122.0,387,1,422,512,167,0,0,473,2131,16408,437,,,,,,,,,,,,
189543,1560690495491,-0,2.28,2.61,3.03,2.37,2.34,0.22,0.22,1.0,1,-2,-0,0.31,8811,77,81,32,80,786,450.0,631,457,60,122.0,387,1,420,512,167,0,0,486,-3267,10432,446,45.701302,4.911959,41.15,197.8,1,1.8267,0,0.0,0.6283,2,0.46,3.159
189563,1560690495511,6,2.28,2.59,3.08,2.37,2.33,0.14,0.27,0.95,0,-0,0,0.3,8945,79,81,32,81,805,455.0,633,455,60,123.0,387,1,418,526,167,0,0,492,14488,32033,453,,,,,,,,,,,,
189583,1560690495531,2,2.31,2.58,3.08,2.4,2.32,0.07,0.27,0.91,0,0,1,0.28,9110,81,81,32,81,835,459.0,636,459,60,122.0,387,1,416,526,167,0,0,482,-18108,32033,458,,,,,,,,,,,,
189603,1560690495551,1,2.31,2.59,3.06,2.39,2.31,-0.07,0.45,0.88,0,0,2,0.45,9241,82,81,32,81,850,464.0,640,455,60,122.0,395,1,416,540,182,0,0,484,16408,-9216,464,,,,,,,,,,,,
189623,1560690495571,4,2.3,2.59,3.04,2.39,2.31,-0.07,0.49,0.9,0,-1,1,0.5,9323,82,81,32,82,881,471.0,635,455,60,121.0,395,1,417,540,182,0,0,488,-16384,6274,471,,,,,,,,,,,,
189643,1560690495591,5,2.31,2.57,3.06,2.39,2.32,0.06,0.34,1.01,1,-1,-0,0.34,9407,83,81,32,82,906,477.0,638,454,60,122.0,395,1,417,540,182,0,0,512,2212,10994,480,45.701302,4.911959,41.15,197.8,1,1.8267,0,0.0,0.6283,2,0.46,3.1607
189663,1560690495609,2,2.3,2.6,3.07,2.43,2.28,-0.0,0.2,1.06,2,-1,0,0.2,9508,84,81,32,82,943,486.0,643,459,60,122.0,395,1,417,540,182,0,0,522,-899,15661,486,,,,,,,,,,,,
189683,1560690495629,2,2.32,2.59,3.1,2.47,2.26,0.06,0.33,1.01,1,-1,2,0.33,9689,84,81,32,82,952,488.0,630,454,60,121.0,395,1,409,540,182,0,0,524,-899,10994,488,,,,,,,,,,,,
189703,1560690495649,2,2.3,2.58,3.13,2.44,2.26,0.15,0.12,1.11,1,0,2,0.19,9816,84,81,32,82,965,494.0,643,451,60,122.0,402,1,404,538,198,0,0,527,-32768,-32248,495,,,,,,,,,,,,
189723,1560690495669,5,2.31,2.58,3.12,2.43,2.26,0.13,0.29,0.99,1,2,1,0.32,9904,85,81,32,81,991,499.0,649,455,60,122.0,402,1,400,528,198,0,0,521,2524,6274,503,,,,,,,,,,,,
189743,1560690495689,4,2.32,2.61,3.09,2.45,2.25,0.15,0.22,1.09,1,-2,0,0.26,9978,85,81,32,81,1007,506.0,646,456,60,122.0,402,1,397,529,198,0,0,525,11560,-8186,507,45.701286,4.911953,44.03,197.8,1,1.8267,0,0.0,0.63,2,0.46,3.1624
189763,1560690495709,2,2.31,2.62,3.05,2.44,2.24,0.22,0.07,1.09,2,-0,-0,0.23,10086,85,81,32,81,1015,512.0,648,456,60,122.0,402,1,401,529,198,0,0,532,10994,2104,512,,,,,,,,,,,,
189783,1560690495729,5,2.32,2.6,3.1,2.45,2.29,0.27,0.14,0.96,2,-0,-0,0.31,10080,85,81,32,81,1025,517.0,651,456,60,122.0,402,1,401,529,198,0,0,555,16383,-28648,518,,,,,,,,,,,,
189803,1560690495749,5,2.31,2.58,3.13,2.45,2.26,0.21,0.14,1.06,2,-2,0,0.25,10257,85,81,32,81,1029,523.0,648,458,60,122.0,389,1,413,529,203,0,0,561,1341,1780,529,,,,,,,,,,,,
189823,1560690495769,6,2.32,2.55,3.1,2.47,2.26,0.25,0.09,1.05,2,1,-1,0.27,10364,85,81,32,81,1035,530.0,649,453,60,122.0,389,1,420,529,203,0,0,547,2524,-22263,531,,,,,,,,,,,,
189843,1560690495791,4,2.32,2.55,3.1,2.45,2.27,0.28,-0.01,1.1,3,-0,2,0.28,10439,85,81,32,81,1034,536.0,645,456,60,122.0,389,1,429,529,203,0,0,549,6274,1760,537,45.701267,4.911939,49.33,197.8,1,1.8267,0,0.0,0.6333,2,0.46,3.1641
189863,1560690495811,4,2.32,2.54,3.09,2.46,2.26,0.27,-0.14,1.17,3,0,2,0.3,10569,86,81,32,81,1031,540.0,639,462,60,122.0,389,1,431,529,203,0,0,564,2104,1760,542,,,,,,,,,,,,
189883,1560690495831,5,2.32,2.54,3.1,2.47,2.28,0.35,-0.24,1.22,3,-0,1,0.42,10671,86,81,32,81,1029,546.0,644,461,60,122.0,389,1,432,529,203,0,0,576,-30064,-29984,546,,,,,,,,,,,,
189903,1560690495851,8,2.32,2.54,3.11,2.47,2.27,0.41,-0.33,1.3,3,-1,1,0.52,10714,86,81,32,81,1027,551.0,643,455,60,121.0,389,1,435,529,214,0,0,580,1779,774,551,,,,,,,,,,,,
189923,1560690495871,1,2.33,2.54,3.11,2.47,2.26,0.4,-0.38,1.28,3,1,3,0.55,10850,86,81,32,81,1027,556.0,652,457,60,122.0,389,1,439,529,214,0,0,577,2524,-3190,556,,,,,,,,,,,,
189943,1560690495891,3,2.32,2.53,3.12,2.47,2.26,0.36,-0.25,1.3,3,3,3,0.44,10863,86,81,32,81,1028,560.0,649,458,60,122.0,389,1,439,529,214,0,0,579,2524,2048,561,45.701256,4.911931,51.89,197.8,1,1.8267,0,0.0,0.635,2,0.46,3.1657
189963,1560690495911,5,2.32,2.53,3.12,2.46,2.26,0.43,-0.33,1.24,4,0,3,0.54,11003,86,81,32,81,1030,566.0,657,458,60,122.0,389,1,442,529,214,0,0,589,6273,-13043,566,,,,,,,,,,,,
189983,1560690495931,2,2.32,2.53,3.13,2.46,2.26,0.47,-0.36,1.23,4,-2,5,0.59,11094,86,81,32,81,1032,571.0,646,455,60,121.0,389,1,443,529,214,0,0,596,2211,3472,572,,,,,,,,,,,,
190003,1560690495951,5,2.32,2.53,3.13,2.47,2.26,0.36,-0.31,1.18,4,-1,5,0.47,11114,86,81,32,81,1033,576.0,652,456,60,122.0,386,1,443,529,222,0,0,599,-3190,30227,576,,,,,,,,,,,,
190023,1560690495971,4,2.32,2.53,3.14,2.47,2.27,0.36,-0.37,1.2,4,3,2,0.51,11268,86,81,32,81,1035,582.0,657,452,60,122.0,386,1,443,529,222,0,0,602,-8188,30227,583,,,,,,,,,,,,
190043,1560690495991,6,2.32,2.52,3.14,2.47,2.28,0.37,-0.19,1.2,5,0,3,0.42,11419,87,81,32,81,1032,587.0,656,455,60,122.0,386,1,441,529,222,0,0,601,1,19621,587,45.701256,4.911931,51.89,197.8,1,1.8267,0,0.0,0.635,2,0.46,3.1674
190063,1560690496005,4,2.33,2.52,3.12,2.47,2.27,0.43,-0.33,1.18,4,0,5,0.54,11531,87,81,32,80,1030,589.0,659,463,60,122.0,386,1,440,521,222,0,0,611,-4035,19320,592,,,,,,,,,,,,
190083,1560690496025,3,2.33,2.53,3.1,2.48,2.25,0.48,-0.39,1.24,4,2,5,0.62,11624,87,81,32,80,1024,596.0,666,457,60,122.0,386,1,440,522,222,0,0,610,-25872,269,596,,,,,,,,,,,,
190103,1560690496045,7,2.32,2.52,3.12,2.48,2.26,0.45,-0.31,1.08,4,3,6,0.55,11624,87,81,32,80,1019,598.0,659,460,60,122.0,382,1,440,523,229,0,0,638,-28648,3395,598,,,,,,,,,,,,
190123,1560690496065,3,2.33,2.52,3.13,2.47,2.23,0.34,-0.16,0.95,4,4,5,0.38,11711,87,81,32,80,1003,608.0,667,459,60,122.0,382,1,440,524,229,0,0,638,4956,-14655,607,,,,,,,,,,,,
190143,1560690496091,5,2.32,2.52,3.13,2.47,2.22,0.28,-0.08,0.88,4,1,7,0.29,11829,87,81,32,80,988,610.0,665,458,60,121.0,382,1,440,526,229,0,0,635,30227,-10251,610,45.701229,4.911914,56.54,197.7,1,1.8267,0,0.0,0.6383,2,0.46,3.169
190163,1560690496111,3,2.33,2.52,3.13,2.47,2.24,0.18,-0.01,0.84,5,4,8,0.18,11912,87,81,32,80,967,614.0,667,461,60,121.0,382,1,440,528,229,0,0,641,17740,24,614,,,,,,,,,,,,
190183,1560690496131,6,2.33,2.52,3.14,2.47,2.28,0.12,0.05,0.85,6,6,9,0.13,11980,88,81,32,81,952,619.0,672,458,60,121.0,382,1,440,529,229,0,0,641,1010,24,620,,,,,,,,,,,,
190203,1560690496151,5,2.33,2.52,3.13,2.48,2.28,0.09,0.14,0.92,7,4,10,0.17,12073,88,81,32,81,928,623.0,670,460,60,122.0,389,1,440,530,242,0,0,652,19304,-3488,625,,,,,,,,,,,,
190223,1560690496171,4,2.33,2.52,3.12,2.47,2.28,0.06,0.21,0.94,7,2,10,0.22,12159,88,81,32,81,908,630.0,673,458,60,121.0,389,1,440,530,242,0,0,653,-18357,-3038,630,,,,,,,,,,,,
190243,1560690496191,3,2.32,2.51,3.16,2.46,2.23,0.06,0.23,0.84,7,2,10,0.24,12238,88,81,32,80,885,635.0,670,457,60,121.0,389,1,440,531,242,0,0,657,-16883,24583,635,45.701218,4.911904,60.06,197.8,1,1.8267,0,0.0,0.64,2,0.47,3.1707
190263,1560690496211,2,2.33,2.51,3.16,2.47,2.24,0.14,0.17,0.66,7,4,9,0.22,12311,88,81,32,80,869,639.0,672,463,60,121.0,389,1,440,532,242,0,0,664,20993,-3038,639,,,,,,,,,,,,
190283,1560690496231,6,2.33,2.5,3.17,2.46,2.26,0.24,0.01,0.74,6,5,10,0.24,12466,88,81,32,80,852,644.0,668,460,60,121.0,389,1,440,533,242,0,0,669,-2580,-27404,644,,,,,,,,,,,,
190303,1560690496251,-0,2.31,2.51,3.17,2.46,2.27,0.22,0.06,0.87,6,7,11,0.23,12567,88,81,32,81,834,650.0,676,459,60,121.0,398,1,440,542,257,0,0,664,6208,-26892,650,,,,,,,,,,,,
190323,1560690496271,-1,2.33,2.52,3.13,2.47,2.27,0.15,0.23,0.68,6,6,10,0.28,12433,89,81,32,81,824,650.0,682,463,60,125.0,398,1,440,533,257,0,0,662,24,16118,650,,,,,,,,,,,,
190343,1560690496291,-0,2.31,2.51,3.16,2.47,2.28,0.22,0.32,0.5,6,7,10,0.39,11859,89,81,32,82,819,652.0,677,458,60,124.0,398,1,440,545,257,0,0,673,11566,-10344,652,45.701202,4.911894,61.97,197.8,1,1.8267,0,0.0,0.6417,2,0.47,3.1724
190363,1560690496311,-2,2.31,2.48,3.19,2.45,2.31,0.37,0.31,0.48,6,5,9,0.49,11481,89,81,32,84,816,655.0,668,458,60,123.0,398,1,441,564,257,0,0,651,4909,2024,655,,,,,,,,,,,,
190383,1560690496331,-0,2.3,2.38,3.29,2.41,2.35,0.48,0.13,0.5,5,2,8,0.5,11247,90,81,32,85,810,656.0,666,461,60,124.0,398,1,442,582,257,0,0,648,-30207,31988,656,,,,,,,,,,,,
190403,1560690496351,-0,2.29,2.35,3.36,2.36,2.46,0.49,0.17,0.5,4,3,9,0.51,11022,92,81,32,85,807,656.0,663,462,60,124.0,375,1,444,601,246,0,0,645,479,-2830,656,,,,,,,,,,,,
190423,1560690496371,4,2.29,2.34,3.42,2.33,2.49,0.24,0.07,0.48,5,6,9,0.25,10819,94,81,32,86,808,654.0,662,459,60,123.0,375,1,440,1095,246,0,0,665,24583,1549,654,,,,,,,,,,,,
190443,1560690496391,6,2.28,2.4,3.33,2.34,2.45,0.3,0.02,0.52,4,10,7,0.3,9837,96,81,31,87,832,657.0,645,451,60,120.0,375,1,404,1012,246,0,0,738,31988,136,657,45.701187,4.911883,63.09,197.8,1,1.8267,0,0.0,0.6433,2,0.47,3.1741
190463,1560690496411,4,2.28,2.49,3.2,2.38,2.37,0.17,0.1,0.5,3,9,9,0.2,9498,96,81,31,87,969,661.0,645,462,60,121.0,375,1,417,884,246,0,0,750,-388,-3580,661,,,,,,,,,,,,
190483,1560690496431,4,2.27,2.53,3.09,2.4,2.28,0.25,0.17,0.53,3,9,9,0.3,9821,96,81,31,86,1078,667.0,644,455,60,121.0,375,1,404,776,246,0,0,685,3543,12333,670,,,,,,,,,,,,
190503,1560690496451,4,2.27,2.54,3.03,2.4,2.21,0.21,0.17,0.62,3,10,10,0.27,9827,97,81,31,85,1189,671.0,646,459,60,121.0,391,1,405,655,263,0,0,689,-2830,-20693,670,,,,,,,,,,,,
190523,1560690496471,5,2.29,2.54,2.99,2.41,2.2,0.29,0.2,0.6,2,9,9,0.35,9595,97,81,31,84,1272,678.0,641,453,60,122.0,391,1,414,578,263,0,0,710,-2826,-3450,678,,,,,,,,,,,,
190543,1560690496491,-0,2.29,2.59,3.0,2.42,2.22,0.09,0.34,0.49,2,8,9,0.36,9469,97,81,31,85,1383,682.0,633,456,60,122.0,391,1,418,576,263,0,0,713,-26892,-12152,682,45.701187,4.911883,63.09,197.8,1,1.8267,0,0.0,0.6433,2,0.47,3.1757
190563,1560690496510,3,2.3,2.58,3.04,2.43,2.25,-0.12,0.48,0.45,3,9,8,0.49,9498,97,81,31,85,1498,685.0,635,458,60,121.0,391,1,418,588,263,0,0,715,16599,687,687,,,,,,,,,,,,
190583,1560690496530,6,2.3,2.57,3.1,2.43,2.3,-0.06,0.26,0.6,2,3,6,0.27,9645,97,81,31,85,1498,693.0,628,457,60,122.0,391,1,412,578,263,0,0,724,6208,-13072,690,,,,,,,,,,,,
190603,1560690496550,4,2.31,2.54,3.13,2.43,2.33,-0.18,0.36,0.59,3,6,6,0.4,9811,97,81,31,85,1477,696.0,640,456,60,122.0,305,1,404,580,212,0,0,721,11576,-2918,696,,,,,,,,,,,,
190623,1560690496570,1,2.31,2.54,3.13,2.44,2.34,-0.02,0.17,0.7,3,4,6,0.18,9941,97,81,31,85,1387,702.0,644,455,60,122.0,305,1,398,581,212,0,0,726,-10448,-2918,701,,,,,,,,,,,,
190643,1560690496590,4,2.31,2.52,3.13,2.44,2.32,-0.01,0.14,0.65,3,3,9,0.14,10010,97,81,31,85,1320,706.0,645,462,60,122.0,305,1,399,582,212,0,0,736,15647,-2358,708,45.701172,4.911872,64.25,197.8,1,1.8267,0,0.0,0.645,2,0.47,3.1774
190663,1560690496610,4,2.32,2.52,3.11,2.42,2.31,-0.09,0.2,0.71,3,5,9,0.21,10091,97,81,31,85,1231,708.0,653,458,60,122.0,305,1,402,564,212,0,0,737,-20693,136,708,,,,,,,,,,,,
190683,1560690496630,2,2.31,2.51,3.11,2.43,2.27,-0.06,0.18,0.74,3,4,8,0.19,10037,97,81,31,85,1121,717.0,647,457,60,122.0,305,1,397,582,212,0,0,746,204,-13068,717,,,,,,,,,,,,
190703,1560690496650,4,2.32,2.52,3.13,2.43,2.25,-0.0,0.08,0.8,4,2,6,0.08,10086,97,81,31,84,1061,718.0,646,461,60,122.0,297,1,400,564,214,0,0,746,204,-31066,718,,,,,,,,,,,,
190723,1560690496670,5,2.32,2.54,3.12,2.45,2.24,-0.06,0.1,0.83,3,1,6,0.12,10118,97,81,31,84,962,724.0,646,456,60,121.0,297,1,403,582,214,0,0,749,-2830,-3344,724,,,,,,,,,,,,
190743,1560690496692,2,2.32,2.53,3.13,2.42,2.24,0.0,0.13,0.82,4,3,6,0.13,10195,97,81,31,85,972,728.0,648,458,60,122.0,297,1,409,582,214,0,0,748,-388,-2574,726,45.701141,4.911849,68.46,197.8,1,1.8267,0,0.0,0.6483,2,0.47,3.179
190763,1560690496712,1,2.31,2.54,3.14,2.4,2.24,0.03,-0.03,0.85,4,2,7,0.04,10268,97,81,31,84,979,730.0,645,458,60,122.0,297,1,413,564,214,0,0,761,-13580,-23308,730,,,,,,,,,,,,
190783,1560690496732,2,2.31,2.52,3.19,2.39,2.27,0.06,-0.05,0.9,4,2,6,0.08,10296,97,81,31,85,992,735.0,640,457,60,122.0,297,1,416,564,214,0,0,764,-2826,-10214,739,,,,,,,,,,,,
190803,1560690496752,1,2.31,2.52,3.21,2.41,2.29,0.2,-0.06,0.91,3,-0,6,0.21,10445,97,81,31,85,1005,741.0,640,461,60,121.0,309,1,427,582,229,0,0,767,3462,-10214,742,,,,,,,,,,,,
190823,1560690496772,3,2.3,2.52,3.19,2.42,2.29,0.28,-0.04,0.84,2,3,8,0.28,10498,97,81,31,84,1011,747.0,648,455,60,122.0,309,1,429,564,229,0,0,773,-2356,-10218,747,,,,,,,,,,,,
190843,1560690496792,3,2.3,2.52,3.09,2.43,2.33,0.22,-0.08,0.85,3,2,9,0.23,10617,97,81,31,84,1014,751.0,643,456,60,122.0,309,1,433,564,229,0,0,768,-13068,5344,751,45.701126,4.911836,70.91,197.8,1,1.8267,0,0.0,0.65,2,0.48,3.1807
190863,1560690496812,5,2.3,2.51,3.08,2.42,2.3,0.28,-0.04,0.85,3,4,8,0.29,10623,97,81,31,84,1016,751.0,648,456,60,121.0,309,1,433,564,229,0,0,779,-3344,7413,754,,,,,,,,,,,,
190883,1560690496832,5,2.31,2.51,3.08,2.42,2.24,0.39,-0.05,0.86,4,1,6,0.39,10659,93,81,31,84,1017,760.0,652,455,60,122.0,309,1,434,564,229,0,0,785,-2574,11277,763,,,,,,,,,,,,
190903,1560690496852,4,2.3,2.49,3.12,2.42,2.2,0.42,-0.09,0.95,3,-2,6,0.43,10605,81,81,31,82,1018,767.0,654,457,60,122.0,286,1,432,537,220,0,0,790,8838,-22795,764,,,,,,,,,,,,
190923,1560690496872,4,2.31,2.52,3.16,2.45,2.24,0.38,-0.15,0.91,3,-0,5,0.41,10677,63,81,31,76,1016,765.0,651,461,60,122.0,286,1,435,490,220,0,0,803,5876,-10216,768,,,,,,,,,,,,
190943,1560690496892,6,2.3,2.52,3.16,2.43,2.25,0.46,-0.16,0.93,3,-1,5,0.49,10659,52,81,31,69,1013,767.0,648,456,60,122.0,286,1,444,456,220,0,0,782,-2344,-2826,770,45.701126,4.911836,70.91,197.8,1,1.8267,0,0.0,0.65,2,0.48,3.1824
190963,1560690496910,2,2.3,2.52,3.15,2.42,2.28,0.39,-0.18,0.9,3,-0,4,0.43,10593,41,81,31,62,1006,772.0,647,455,60,122.0,286,1,450,397,220,0,0,793,-2344,-12152,770,,,,,,,,,,,,
190983,1560690496930,8,2.3,2.49,3.2,2.39,2.29,0.45,-0.14,0.94,3,-1,5,0.47,10480,31,81,31,55,1003,775.0,646,461,60,122.0,286,1,406,334,220,0,0,786,-23308,-10218,771,,,,,,,,,,,,
191003,1560690496950,6,2.3,2.46,3.3,2.37,2.4,0.42,-0.15,0.89,4,-2,4,0.44,10146,22,81,31,49,998,778.0,640,461,60,122.0,150,1,385,268,117,0,0,784,-2344,-2574,778,,,,,,,,,,,,
191023,1560690496970,9,2.29,2.41,3.32,2.34,2.45,0.46,-0.2,0.89,3,-3,2,0.51,9858,19,81,31,44,981,773.0,641,461,60,123.0,150,1,357,234,117,0,0,763,-10216,-10214,773,,,,,,,,,,,,
191043,1560690496990,13,2.29,2.38,3.36,2.33,2.56,0.48,-0.03,0.73,3,-1,3,0.48,9674,18,81,31,41,944,765.0,646,461,60,122.0,150,1,335,222,117,0,0,760,6389,-2826,765,45.701111,4.911823,73.61,197.9,1,1.8267,0,0.0,0.6517,2,0.48,3.1841
191063,1560690497006,18,2.27,2.38,3.38,2.32,2.65,0.63,-0.23,0.77,2,-7,3,0.67,9484,18,81,31,38,922,766.0,641,462,60,122.0,150,1,317,212,117,0,0,763,-23308,5876,766,,,,,,,,,,,,
